init_variables.started,init_variables.stopped,participant,session,date,expName,psychopyVersion,OS,frameRate,study_id,instruction_exp.started,instruction_exp.stopped,key_resp_8.keys,key_resp_8.rt,key_resp_8.duration,instruction_single.started,instruction_single.stopped,key_resp_2.keys,key_resp_2.rt,key_resp_2.duration,interval.started,interval.stopped,cue_single.started,cue_single.stopped,mask.started,mask.stopped,ori_response_single.started,res_ori,res,ori_response_single.stopped,key_resp_single.keys,key_resp_single.rt,key_resp_single.duration,disp_single.started,disp_single.stopped,key_resp.keys,key_resp.rt,key_resp.duration,single.thisRepN,single.thisTrialN,single.thisN,single.thisIndex,single.ran,ori,path,mask_path,instruction_bandit.started,instruction_bandit.stopped,key_resp_6.keys,key_resp_6.rt,key_resp_6.duration,cue_bandit.started,cue_bandit.stopped,bandit_res.keys,bandit_res.rt,bandit_res.duration,outcome_bandit.started,rew,action,outcome_bandit.stopped,bandit.thisRepN,bandit.thisTrialN,bandit.thisN,bandit.thisIndex,bandit.ran,actual_rew1,actual_rew2,rew1,rew2,instruction_task.started,instruction_task.stopped,key_resp_7.keys,key_resp_7.rt,key_resp_7.duration,wait_ready.started,wait_ready.stopped,key_resp_3.keys,key_resp_3.rt,key_resp_3.duration,cue.started,cue.stopped,ori_response.started,ori_response.stopped,key_resp_5.keys,key_resp_5.rt,key_resp_5.duration,outcome.started,diff1,diff2,outcome.stopped,disp_outcome_practice.started,disp_outcome_practice.stopped,key_resp_4.keys,key_resp_4.rt,key_resp_4.duration,trials.thisRepN,trials.thisTrialN,trials.thisN,trials.thisIndex,trials.ran,ori1,ori2,break_blk.started,break_blk.stopped,block.thisRepN,block.thisTrialN,block.thisN,block.thisIndex,block.ran,condition_file
0.0002,0.0003,615db68d9d021708b6e64603,65af56aaa08a0d49e2f07b4c,2024-01-23_08h04.57.593,bars,2023.2.3,Win32,59.88023952,657b66ea316d21385b68909f,,,,,,,,,,,,,,,,,,,,,,,,,,,,,,,,,,,,,,,,,,,,,,,,,,,,,,,,,,,,,,,,,,,,,,,,,,,,,,,,,,,,,,,,,,,,,,,,,,,,
,,615db68d9d021708b6e64603,65af56aaa08a0d49e2f07b4c,2024-01-23_08h04.57.593,bars,2023.2.3,Win32,59.88023952,657b66ea316d21385b68909f,0.0004,3.9213,y,3.9048,,,,,,,,,,,,,,,,,,,,,,,,,,,,,,,,,,,,,,,,,,,,,,,,,,,,,,,,,,,,,,,,,,,,,,,,,,,,,,,,,,,,,,,,,,,,,,,,
,,615db68d9d021708b6e64603,65af56aaa08a0d49e2f07b4c,2024-01-23_08h04.57.593,bars,2023.2.3,Win32,59.88023952,657b66ea316d21385b68909f,,,,,,3.9215,21.4679,space,17.5175,,,,,,,,,,,,,,,,,,,,,,,,,,,,,,,,,,,,,,,,,,,,,,,,,,,,,,,,,,,,,,,,,,,,,,,,,,,,,,,,,,,,,,,,,,,
,,615db68d9d021708b6e64603,65af56aaa08a0d49e2f07b4c,2024-01-23_08h04.57.593,bars,2023.2.3,Win32,59.88023952,657b66ea316d21385b68909f,,,,,,,,,,,21.4717,22.4721,22.4722,22.9677,22.968,23.217,23.2173,0,0,38.1033,space,14.8573,,38.1033,44.636,space,6.5159,,0,0,0,1,1,20,bars/single001.png,bars/mask006.png,,,,,,,,,,,,,,,,,,,,,,,,,,,,,,,,,,,,,,,,,,,,,,,,,,,,,,,,,,,,,,,,
,,615db68d9d021708b6e64603,65af56aaa08a0d49e2f07b4c,2024-01-23_08h04.57.593,bars,2023.2.3,Win32,59.88023952,657b66ea316d21385b68909f,,,,,,,,,,,44.6411,45.6298,45.6299,46.1298,46.1298,46.3801,46.3802,144,144,49.1806,space,2.776,,49.1808,52.9957,space,3.7838,,0,1,1,0,1,150,bars/single000.png,bars/mask006.png,,,,,,,,,,,,,,,,,,,,,,,,,,,,,,,,,,,,,,,,,,,,,,,,,,,,,,,,,,,,,,,,
,,615db68d9d021708b6e64603,65af56aaa08a0d49e2f07b4c,2024-01-23_08h04.57.593,bars,2023.2.3,Win32,59.88023952,657b66ea316d21385b68909f,,,,,,,,,,,53.0021,53.9953,53.9954,54.4955,54.4956,54.7453,54.7453,31,31,58.4788,space,3.7038,,58.4789,62.0615,space,3.5594,,0,2,2,3,1,20,bars/single003.png,bars/mask005.png,,,,,,,,,,,,,,,,,,,,,,,,,,,,,,,,,,,,,,,,,,,,,,,,,,,,,,,,,,,,,,,,
,,615db68d9d021708b6e64603,65af56aaa08a0d49e2f07b4c,2024-01-23_08h04.57.593,bars,2023.2.3,Win32,59.88023952,657b66ea316d21385b68909f,,,,,,,,,,,62.0626,63.0608,63.0609,63.5608,63.5608,63.8107,63.8107,98,98,66.7441,space,2.9005,,66.7443,68.9768,space,2.2003,,0,3,3,4,1,95,bars/single004.png,bars/mask004.png,,,,,,,,,,,,,,,,,,,,,,,,,,,,,,,,,,,,,,,,,,,,,,,,,,,,,,,,,,,,,,,,
,,615db68d9d021708b6e64603,65af56aaa08a0d49e2f07b4c,2024-01-23_08h04.57.593,bars,2023.2.3,Win32,59.88023952,657b66ea316d21385b68909f,,,,,,,,,,,68.9775,69.9769,69.977,70.4797,70.4797,70.732,70.732,178,178,74.0154,space,3.2667,,74.0154,77.3257,space,3.2896,,0,4,4,6,1,175,bars/single006.png,bars/mask005.png,,,,,,,,,,,,,,,,,,,,,,,,,,,,,,,,,,,,,,,,,,,,,,,,,,,,,,,,,,,,,,,,
,,615db68d9d021708b6e64603,65af56aaa08a0d49e2f07b4c,2024-01-23_08h04.57.593,bars,2023.2.3,Win32,59.88023952,657b66ea316d21385b68909f,,,,,,,,,,,77.3316,78.3256,78.3256,78.8254,78.8254,79.0753,79.0753,47,47,83.2581,space,4.1556,,83.2583,86.7912,space,3.4997,,0,5,5,7,1,45,bars/single007.png,bars/mask009.png,,,,,,,,,,,,,,,,,,,,,,,,,,,,,,,,,,,,,,,,,,,,,,,,,,,,,,,,,,,,,,,,
,,615db68d9d021708b6e64603,65af56aaa08a0d49e2f07b4c,2024-01-23_08h04.57.593,bars,2023.2.3,Win32,59.88023952,657b66ea316d21385b68909f,,,,,,,,,,,86.7968,87.7967,87.7968,88.2909,88.2909,88.5409,88.5409,140,140,92.9072,space,4.3338,,92.9072,97.7732,space,4.8422,,0,6,6,8,1,160,bars/single008.png,bars/mask004.png,,,,,,,,,,,,,,,,,,,,,,,,,,,,,,,,,,,,,,,,,,,,,,,,,,,,,,,,,,,,,,,,
,,615db68d9d021708b6e64603,65af56aaa08a0d49e2f07b4c,2024-01-23_08h04.57.593,bars,2023.2.3,Win32,59.88023952,657b66ea316d21385b68909f,,,,,,,,,,,97.7788,98.7785,98.7785,99.2727,99.2728,99.5227,99.5228,143,143,103.9888,space,4.4386,,103.9889,108.7717,space,4.7503,,0,7,7,2,1,145,bars/single002.png,bars/mask003.png,,,,,,,,,,,,,,,,,,,,,,,,,,,,,,,,,,,,,,,,,,,,,,,,,,,,,,,,,,,,,,,,
,,615db68d9d021708b6e64603,65af56aaa08a0d49e2f07b4c,2024-01-23_08h04.57.593,bars,2023.2.3,Win32,59.88023952,657b66ea316d21385b68909f,,,,,,,,,,,108.7778,109.7713,109.7714,110.2717,110.2718,110.5212,110.5213,59,59,112.5543,space,2.003,,112.5545,116.5371,space,3.9598,,0,8,8,5,1,55,bars/single005.png,bars/mask008.png,,,,,,,,,,,,,,,,,,,,,,,,,,,,,,,,,,,,,,,,,,,,,,,,,,,,,,,,,,,,,,,,
,,615db68d9d021708b6e64603,65af56aaa08a0d49e2f07b4c,2024-01-23_08h04.57.593,bars,2023.2.3,Win32,59.88023952,657b66ea316d21385b68909f,,,,,,,,,,,116.5431,117.5369,117.537,118.0369,118.0371,118.2868,118.2868,40,40,119.5701,space,1.2536,,119.5701,121.0871,space,1.4833,,0,9,9,9,1,20,bars/single009.png,bars/mask006.png,,,,,,,,,,,,,,,,,,,,,,,,,,,,,,,,,,,,,,,,,,,,,,,,,,,,,,,,,,,,,,,,
,,615db68d9d021708b6e64603,65af56aaa08a0d49e2f07b4c,2024-01-23_08h04.57.593,bars,2023.2.3,Win32,59.88023952,657b66ea316d21385b68909f,,,,,,,,,,,,,,,,,,,,,,,,,,,,,,,,,,,,,121.0885,133.2685,space,12.1511,,,,,,,,,,,,,,,,,,,,,,,,,,,,,,,,,,,,,,,,,,,,,,,,,,,,,,,,,,,,
,,615db68d9d021708b6e64603,65af56aaa08a0d49e2f07b4c,2024-01-23_08h04.57.593,bars,2023.2.3,Win32,59.88023952,657b66ea316d21385b68909f,,,,,,,,,,,,,,,,,,,,,,,,,,,,,,,,,,,,,,,,,,133.2766,136.4854,left,3.1829,,136.4856,9,1,137.4845,0,0,0,0,1,9,1,9,2,,,,,,,,,,,,,,,,,,,,,,,,,,,,,,,,,,,,,,,,,
,,615db68d9d021708b6e64603,65af56aaa08a0d49e2f07b4c,2024-01-23_08h04.57.593,bars,2023.2.3,Win32,59.88023952,657b66ea316d21385b68909f,,,,,,,,,,,,,,,,,,,,,,,,,,,,,,,,,,,,,,,,,,137.4856,141.034,right,3.5251,,141.0342,1,2,142.0337,0,1,1,1,1,10,0,10,1,,,,,,,,,,,,,,,,,,,,,,,,,,,,,,,,,,,,,,,,,
,,615db68d9d021708b6e64603,65af56aaa08a0d49e2f07b4c,2024-01-23_08h04.57.593,bars,2023.2.3,Win32,59.88023952,657b66ea316d21385b68909f,,,,,,,,,,,,,,,,,,,,,,,,,,,,,,,,,,,,,,,,,,142.0392,142.767,left,0.701,,142.767,10,1,143.7671,0,2,2,2,1,10,2,10,2,,,,,,,,,,,,,,,,,,,,,,,,,,,,,,,,,,,,,,,,,
,,615db68d9d021708b6e64603,65af56aaa08a0d49e2f07b4c,2024-01-23_08h04.57.593,bars,2023.2.3,Win32,59.88023952,657b66ea316d21385b68909f,,,,,,,,,,,,,,,,,,,,,,,,,,,,,,,,,,,,,,,,,,143.7679,144.0671,left,0.2771,,144.0672,7,1,145.0666,0,3,3,3,1,8,4,7,3,,,,,,,,,,,,,,,,,,,,,,,,,,,,,,,,,,,,,,,,,
,,615db68d9d021708b6e64603,65af56aaa08a0d49e2f07b4c,2024-01-23_08h04.57.593,bars,2023.2.3,Win32,59.88023952,657b66ea316d21385b68909f,,,,,,,,,,,,,,,,,,,,,,,,,,,,,,,,,,,,,,,,,,145.0676,146.5,left,1.4003,,146.5002,5,1,147.4997,0,4,4,4,1,6,2,5,1,,,,,,,,,,,,,,,,,,,,,,,,,,,,,,,,,,,,,,,,,
,,615db68d9d021708b6e64603,65af56aaa08a0d49e2f07b4c,2024-01-23_08h04.57.593,bars,2023.2.3,Win32,59.88023952,657b66ea316d21385b68909f,,,,,,,,,,,,,,,,,,,,,,,,,,,,,,,,,,,,,,,,,,147.5055,148.1332,right,0.6008,,148.1334,4,2,149.1329,0,5,5,5,1,4,4,4,4,,,,,,,,,,,,,,,,,,,,,,,,,,,,,,,,,,,,,,,,,
,,615db68d9d021708b6e64603,65af56aaa08a0d49e2f07b4c,2024-01-23_08h04.57.593,bars,2023.2.3,Win32,59.88023952,657b66ea316d21385b68909f,,,,,,,,,,,,,,,,,,,,,,,,,,,,,,,,,,,,,,,,,,149.1331,149.3494,left,0.1924,,149.3495,1,1,150.3494,0,6,6,6,1,2,2,1,2,,,,,,,,,,,,,,,,,,,,,,,,,,,,,,,,,,,,,,,,,
,,615db68d9d021708b6e64603,65af56aaa08a0d49e2f07b4c,2024-01-23_08h04.57.593,bars,2023.2.3,Win32,59.88023952,657b66ea316d21385b68909f,,,,,,,,,,,,,,,,,,,,,,,,,,,,,,,,,,,,,,,,,,150.3502,150.9329,right,0.558,,150.9329,1,2,151.9328,0,7,7,7,1,0,0,0,1,,,,,,,,,,,,,,,,,,,,,,,,,,,,,,,,,,,,,,,,,
,,615db68d9d021708b6e64603,65af56aaa08a0d49e2f07b4c,2024-01-23_08h04.57.593,bars,2023.2.3,Win32,59.88023952,657b66ea316d21385b68909f,,,,,,,,,,,,,,,,,,,,,,,,,,,,,,,,,,,,,,,,,,151.9336,152.3332,right,0.378,,152.3334,0,2,153.3324,0,8,8,8,1,0,2,1,0,,,,,,,,,,,,,,,,,,,,,,,,,,,,,,,,,,,,,,,,,
,,615db68d9d021708b6e64603,65af56aaa08a0d49e2f07b4c,2024-01-23_08h04.57.593,bars,2023.2.3,Win32,59.88023952,657b66ea316d21385b68909f,,,,,,,,,,,,,,,,,,,,,,,,,,,,,,,,,,,,,,,,,,153.3331,153.849,left,0.4839,,153.849,2,1,154.8491,0,9,9,9,1,2,4,2,3,,,,,,,,,,,,,,,,,,,,,,,,,,,,,,,,,,,,,,,,,
,,615db68d9d021708b6e64603,65af56aaa08a0d49e2f07b4c,2024-01-23_08h04.57.593,bars,2023.2.3,Win32,59.88023952,657b66ea316d21385b68909f,,,,,,,,,,,,,,,,,,,,,,,,,,,,,,,,,,,,,,,,,,154.8502,155.2496,left,0.3683,,155.2499,0,1,156.2486,0,10,10,10,1,0,2,0,3,,,,,,,,,,,,,,,,,,,,,,,,,,,,,,,,,,,,,,,,,
,,615db68d9d021708b6e64603,65af56aaa08a0d49e2f07b4c,2024-01-23_08h04.57.593,bars,2023.2.3,Win32,59.88023952,657b66ea316d21385b68909f,,,,,,,,,,,,,,,,,,,,,,,,,,,,,,,,,,,,,,,,,,156.2498,156.6323,right,0.3598,,156.6323,3,2,157.6317,0,11,11,11,1,0,4,0,3,,,,,,,,,,,,,,,,,,,,,,,,,,,,,,,,,,,,,,,,,
,,615db68d9d021708b6e64603,65af56aaa08a0d49e2f07b4c,2024-01-23_08h04.57.593,bars,2023.2.3,Win32,59.88023952,657b66ea316d21385b68909f,,,,,,,,,,,,,,,,,,,,,,,,,,,,,,,,,,,,,,,,,,157.6325,158.965,right,1.2999,,158.965,6,2,159.9646,0,12,12,12,1,2,6,1,6,,,,,,,,,,,,,,,,,,,,,,,,,,,,,,,,,,,,,,,,,
,,615db68d9d021708b6e64603,65af56aaa08a0d49e2f07b4c,2024-01-23_08h04.57.593,bars,2023.2.3,Win32,59.88023952,657b66ea316d21385b68909f,,,,,,,,,,,,,,,,,,,,,,,,,,,,,,,,,,,,,,,,,,159.9657,160.3875,left,0.4005,,160.3875,1,1,161.3812,0,13,13,13,1,0,4,1,3,,,,,,,,,,,,,,,,,,,,,,,,,,,,,,,,,,,,,,,,,
,,615db68d9d021708b6e64603,65af56aaa08a0d49e2f07b4c,2024-01-23_08h04.57.593,bars,2023.2.3,Win32,59.88023952,657b66ea316d21385b68909f,,,,,,,,,,,,,,,,,,,,,,,,,,,,,,,,,,,,,,,,,,161.3814,162.1311,right,0.7169,,162.1312,7,2,163.131,0,14,14,14,1,2,6,2,7,,,,,,,,,,,,,,,,,,,,,,,,,,,,,,,,,,,,,,,,,
,,615db68d9d021708b6e64603,65af56aaa08a0d49e2f07b4c,2024-01-23_08h04.57.593,bars,2023.2.3,Win32,59.88023952,657b66ea316d21385b68909f,,,,,,,,,,,,,,,,,,,,,,,,,,,,,,,,,,,,,,,,,,163.1316,163.6143,right,0.4535,,163.6145,9,2,164.6142,0,15,15,15,1,4,8,3,9,,,,,,,,,,,,,,,,,,,,,,,,,,,,,,,,,,,,,,,,,
,,615db68d9d021708b6e64603,65af56aaa08a0d49e2f07b4c,2024-01-23_08h04.57.593,bars,2023.2.3,Win32,59.88023952,657b66ea316d21385b68909f,,,,,,,,,,,,,,,,,,,,,,,,,,,,,,,,,,,,,,,,,,164.6143,165.3982,left,0.751,,165.3985,7,1,166.3972,0,16,16,16,1,6,6,7,7,,,,,,,,,,,,,,,,,,,,,,,,,,,,,,,,,,,,,,,,,
,,615db68d9d021708b6e64603,65af56aaa08a0d49e2f07b4c,2024-01-23_08h04.57.593,bars,2023.2.3,Win32,59.88023952,657b66ea316d21385b68909f,,,,,,,,,,,,,,,,,,,,,,,,,,,,,,,,,,,,,,,,,,166.398,166.8198,left,0.4005,,166.8198,9,1,167.8137,0,17,17,17,1,8,4,9,5,,,,,,,,,,,,,,,,,,,,,,,,,,,,,,,,,,,,,,,,,
,,615db68d9d021708b6e64603,65af56aaa08a0d49e2f07b4c,2024-01-23_08h04.57.593,bars,2023.2.3,Win32,59.88023952,657b66ea316d21385b68909f,,,,,,,,,,,,,,,,,,,,,,,,,,,,,,,,,,,,,,,,,,167.8144,168.5972,right,0.7505,,168.5973,1,2,169.5967,0,18,18,18,1,6,2,5,1,,,,,,,,,,,,,,,,,,,,,,,,,,,,,,,,,,,,,,,,,
,,615db68d9d021708b6e64603,65af56aaa08a0d49e2f07b4c,2024-01-23_08h04.57.593,bars,2023.2.3,Win32,59.88023952,657b66ea316d21385b68909f,,,,,,,,,,,,,,,,,,,,,,,,,,,,,,,,,,,,,,,,,,169.5976,170.547,left,0.9172,,170.5471,7,1,171.5464,0,19,19,19,1,8,0,7,0,,,,,,,,,,,,,,,,,,,,,,,,,,,,,,,,,,,,,,,,,
,,615db68d9d021708b6e64603,65af56aaa08a0d49e2f07b4c,2024-01-23_08h04.57.593,bars,2023.2.3,Win32,59.88023952,657b66ea316d21385b68909f,,,,,,,,,,,,,,,,,,,,,,,,,,,,,,,,,,,,,,,,,,,,,,,,,,,,,,,,,,,,171.5475,196.7105,space,25.1367,,,,,,,,,,,,,,,,,,,,,,,,,,,,,,,,,,,,,
,,615db68d9d021708b6e64603,65af56aaa08a0d49e2f07b4c,2024-01-23_08h04.57.593,bars,2023.2.3,Win32,59.88023952,657b66ea316d21385b68909f,,,,,,,,,,,197.8637,198.8595,,,199.3484,199.5929,,146,146,,,,,,,,,,,,,,,,bars/048.png,bars/mask008.png,,,,,,,,,,,,0,2,,,,,,,5,9,5,7,,,,,,196.7182,197.8603,space,1.117,,198.8601,199.3484,199.5934,207.143,space,7.5198,,207.1435,84,29,208.1419,208.1421,215.6252,space,7.4587,,0,0,0,0,1,50,175,,,,,,,,
,,615db68d9d021708b6e64603,65af56aaa08a0d49e2f07b4c,2024-01-23_08h04.57.593,bars,2023.2.3,Win32,59.88023952,657b66ea316d21385b68909f,,,,,,,,,,,215.6309,216.6239,,,217.1238,217.3738,,158,-22,,,,,,,,,,,,,,,,bars/035.png,bars/mask003.png,,,,,,,,,,,,4,1,,,,,,,7,7,10,5,,,,,,,,,,,216.6239,217.1237,217.3739,221.257,space,3.8545,,221.2574,17,82,222.2565,222.2566,225.3729,space,3.0828,,0,1,1,1,1,175,60,,,,,,,,
,,615db68d9d021708b6e64603,65af56aaa08a0d49e2f07b4c,2024-01-23_08h04.57.593,bars,2023.2.3,Win32,59.88023952,657b66ea316d21385b68909f,,,,,,,,,,,225.3789,226.3725,,,226.8726,227.1225,,59,59,,,,,,,,,,,,,,,,bars/018.png,bars/mask001.png,,,,,,,,,,,,0,2,,,,,,,5,5,6,3,,,,,,,,,,,226.3726,226.8725,227.1226,231.7719,space,4.6204,,231.7721,89,31,232.7774,232.7774,239.2042,space,6.4066,,0,2,2,2,1,150,90,,,,,,,,
,,615db68d9d021708b6e64603,65af56aaa08a0d49e2f07b4c,2024-01-23_08h04.57.593,bars,2023.2.3,Win32,59.88023952,657b66ea316d21385b68909f,,,,,,,,,,,239.211,240.2041,,,240.7042,240.954,,47,47,,,,,,,,,,,,,,,,bars/031.png,bars/mask008.png,,,,,,,,,,,,4,2,,,,,,,7,3,6,6,,,,,,,,,,,240.2042,240.7041,240.954,245.4596,space,4.4833,,245.4597,73,12,246.4532,246.4533,250.6699,space,4.1839,,0,3,3,3,1,120,35,,,,,,,,
,,615db68d9d021708b6e64603,65af56aaa08a0d49e2f07b4c,2024-01-23_08h04.57.593,bars,2023.2.3,Win32,59.88023952,657b66ea316d21385b68909f,,,,,,,,,,,250.6761,251.6692,,,252.1692,252.4191,,140,-40,,,,,,,,,,,,,,,,bars/040.png,bars/mask007.png,,,,,,,,,,,,9,1,,,,,,,9,5,9,6,,,,,,,,,,,251.6692,252.1692,252.4192,256.5688,space,4.1237,,256.569,0,45,257.5686,257.5687,262.6848,space,5.087,,0,4,4,4,1,140,5,,,,,,,,
,,615db68d9d021708b6e64603,65af56aaa08a0d49e2f07b4c,2024-01-23_08h04.57.593,bars,2023.2.3,Win32,59.88023952,657b66ea316d21385b68909f,,,,,,,,,,,262.6908,263.6843,,,264.1875,264.4342,,39,39,,,,,,,,,,,,,,,,bars/005.png,bars/mask005.png,,,,,,,,,,,,0,1,,,,,,,10,7,9,6,,,,,,,,,,,263.6843,264.1875,264.4343,266.3341,space,1.8684,,266.3342,29,79,267.3338,267.3338,270.467,space,3.1,,0,5,5,5,1,10,140,,,,,,,,
,,615db68d9d021708b6e64603,65af56aaa08a0d49e2f07b4c,2024-01-23_08h04.57.593,bars,2023.2.3,Win32,59.88023952,657b66ea316d21385b68909f,,,,,,,,,,,270.4683,271.4665,,,271.9666,272.2165,,56,56,,,,,,,,,,,,,,,,bars/019.png,bars/mask004.png,,,,,,,,,,,,4,1,,,,,,,8,5,7,4,,,,,,,,,,,271.4666,271.9666,272.2165,276.122,space,3.8836,,276.122,11,49,277.1159,277.1159,278.4492,space,1.3092,,0,6,6,6,1,45,105,,,,,,,,
,,615db68d9d021708b6e64603,65af56aaa08a0d49e2f07b4c,2024-01-23_08h04.57.593,bars,2023.2.3,Win32,59.88023952,657b66ea316d21385b68909f,,,,,,,,,,,278.4503,279.4489,,,279.949,280.1988,,135,135,,,,,,,,,,,,,,,,bars/040.png,bars/mask007.png,,,,,,,,,,,,5,1,,,,,,,6,7,6,8,,,,,,,,,,,279.4489,279.9488,280.1988,286.5479,space,6.3244,,286.5479,5,50,287.5479,287.5479,288.5144,space,0.9428,,0,7,7,7,1,140,5,,,,,,,,
,,615db68d9d021708b6e64603,65af56aaa08a0d49e2f07b4c,2024-01-23_08h04.57.593,bars,2023.2.3,Win32,59.88023952,657b66ea316d21385b68909f,,,,,,,,,,,288.5146,289.5143,,,290.0176,290.2641,,55,55,,,,,,,,,,,,,,,,bars/007.png,bars/mask009.png,,,,,,,,,,,,6,2,,,,,,,8,5,9,6,,,,,,,,,,,289.5143,290.0175,290.2641,291.7701,space,1.4837,,291.7701,60,0,292.7637,292.7637,294.5802,space,1.7873,,0,8,8,8,1,175,55,,,,,,,,
,,615db68d9d021708b6e64603,65af56aaa08a0d49e2f07b4c,2024-01-23_08h04.57.593,bars,2023.2.3,Win32,59.88023952,657b66ea316d21385b68909f,,,,,,,,,,,294.5804,295.5802,,,296.08,296.33,,60,60,,,,,,,,,,,,,,,,bars/035.png,bars/mask002.png,,,,,,,,,,,,8,2,,,,,,,10,7,10,8,,,,,,,,,,,295.5803,296.08,296.33,297.9191,space,1.5671,,297.9192,65,0,298.913,298.913,300.1132,space,1.1699,,0,9,9,9,1,175,60,,,,,,,,
,,615db68d9d021708b6e64603,65af56aaa08a0d49e2f07b4c,2024-01-23_08h04.57.593,bars,2023.2.3,Win32,59.88023952,657b66ea316d21385b68909f,,,,,,,,,,,300.1143,301.1127,,,301.6126,301.8626,,138,138,,,,,,,,,,,,,,,,bars/016.png,bars/mask000.png,,,,,,,,,,,,1,2,,,,,,,8,9,8,9,,,,,,,,,,,301.1127,301.6126,301.8626,303.4349,space,1.5511,,303.4349,82,27,304.429,304.4292,306.3959,space,1.9379,,0,10,10,10,1,40,165,,,,,,,,
,,615db68d9d021708b6e64603,65af56aaa08a0d49e2f07b4c,2024-01-23_08h04.57.593,bars,2023.2.3,Win32,59.88023952,657b66ea316d21385b68909f,,,,,,,,,,,306.3968,307.3952,,,307.8956,308.1452,,59,59,,,,,,,,,,,,,,,,bars/038.png,bars/mask008.png,,,,,,,,,,,,6,2,,,,,,,6,10,5,10,,,,,,,,,,,307.3954,307.8954,308.1455,312.5446,space,4.3703,,312.5448,74,11,313.5444,313.5444,314.3667,space,0.7998,,0,11,11,11,1,165,70,,,,,,,,
,,615db68d9d021708b6e64603,65af56aaa08a0d49e2f07b4c,2024-01-23_08h04.57.593,bars,2023.2.3,Win32,59.88023952,657b66ea316d21385b68909f,,,,,,,,,,,314.367,315.3608,,,315.8607,316.1107,,133,133,,,,,,,,,,,,,,,,bars/040.png,bars/mask004.png,,,,,,,,,,,,8,1,,,,,,,8,10,10,8,,,,,,,,,,,315.3609,315.8607,316.1108,319.0104,space,2.8702,,319.0105,7,52,320.0101,320.0102,320.8271,space,0.7851,,0,12,12,12,1,140,5,,,,,,,,
,,615db68d9d021708b6e64603,65af56aaa08a0d49e2f07b4c,2024-01-23_08h04.57.593,bars,2023.2.3,Win32,59.88023952,657b66ea316d21385b68909f,,,,,,,,,,,320.8279,321.8266,,,322.3265,322.5772,,131,-49,,,,,,,,,,,,,,,,bars/046.png,bars/mask008.png,,,,,,,,,,,,2,1,,,,,,,10,10,10,8,,,,,,,,,,,321.8266,322.3265,322.5774,325.6147,space,3.0165,,325.6148,24,46,326.6093,326.6093,327.4259,space,0.7939,,0,13,13,13,1,155,85,,,,,,,,
,,615db68d9d021708b6e64603,65af56aaa08a0d49e2f07b4c,2024-01-23_08h04.57.593,bars,2023.2.3,Win32,59.88023952,657b66ea316d21385b68909f,,,,,,,,,,,327.426,328.4257,,,328.9287,329.1756,,83,83,,,,,,,,,,,,,,,,bars/041.png,bars/mask000.png,,,,,,,,,,,,7,2,,,,,,,8,8,7,8,,,,,,,,,,,328.4257,328.9286,329.1757,332.5586,space,3.3501,,332.5586,63,2,333.5583,333.5584,334.6751,space,1.0832,,0,14,14,14,1,20,85,,,,,,,,
,,615db68d9d021708b6e64603,65af56aaa08a0d49e2f07b4c,2024-01-23_08h04.57.593,bars,2023.2.3,Win32,59.88023952,657b66ea316d21385b68909f,,,,,,,,,,,334.6753,335.6748,,,336.175,336.4247,,110,110,,,,,,,,,,,,,,,,bars/000.png,bars/mask009.png,,,,,,,,,,,,0,2,,,,,,,6,6,7,6,,,,,,,,,,,335.6748,336.1748,336.4248,338.0578,space,1.6007,,338.058,70,35,339.0577,339.0579,340.1076,space,1.0199,,0,15,15,15,1,40,145,,,,,,,,
,,615db68d9d021708b6e64603,65af56aaa08a0d49e2f07b4c,2024-01-23_08h04.57.593,bars,2023.2.3,Win32,59.88023952,657b66ea316d21385b68909f,,,,,,,,,,,340.1085,341.1073,,,341.6073,341.8572,,52,232,,,,,,,,,,,,,,,,bars/034.png,bars/mask007.png,,,,,,,,,,,,1,2,,,,,,,8,4,7,2,,,,,,,,,,,341.1073,341.6072,341.8572,345.7293,space,3.8501,,345.7293,73,13,346.7234,346.7235,347.94,space,1.1871,,0,16,16,16,1,125,65,,,,,,,,
,,615db68d9d021708b6e64603,65af56aaa08a0d49e2f07b4c,2024-01-23_08h04.57.593,bars,2023.2.3,Win32,59.88023952,657b66ea316d21385b68909f,,,,,,,,,,,347.9408,348.9398,,,349.4396,349.6896,,57,57,,,,,,,,,,,,,,,,bars/007.png,bars/mask004.png,,,,,,,,,,,,2,2,,,,,,,10,2,9,2,,,,,,,,,,,348.9399,349.4396,349.6897,351.7273,space,2.0317,,351.7273,62,2,352.7225,352.7225,354.6892,space,1.9339,,0,17,17,17,1,175,55,,,,,,,,
,,615db68d9d021708b6e64603,65af56aaa08a0d49e2f07b4c,2024-01-23_08h04.57.593,bars,2023.2.3,Win32,59.88023952,657b66ea316d21385b68909f,,,,,,,,,,,354.6903,355.6888,,,356.189,356.439,,142,142,,,,,,,,,,,,,,,,bars/035.png,bars/mask009.png,,,,,,,,,,,,0,1,,,,,,,8,0,6,0,,,,,,,,,,,355.6889,356.1889,356.4391,359.2551,space,2.7916,,359.2551,33,82,360.2549,360.2549,361.0882,space,0.8021,,0,18,18,18,1,175,60,,,,,,,,
,,615db68d9d021708b6e64603,65af56aaa08a0d49e2f07b4c,2024-01-23_08h04.57.593,bars,2023.2.3,Win32,59.88023952,657b66ea316d21385b68909f,,,,,,,,,,,361.0884,362.0881,,,362.5882,362.8269,,48,48,,,,,,,,,,,,,,,,bars/006.png,bars/mask005.png,,,,,,,,,,,,6,1,,,,,,,10,0,10,2,,,,,,,,,,,362.0881,362.5882,362.8269,364.3381,space,1.4838,,364.3383,13,52,365.3376,365.3376,366.0209,space,0.6504,,0,19,19,19,1,35,100,,,,,,,,
,,615db68d9d021708b6e64603,65af56aaa08a0d49e2f07b4c,2024-01-23_08h04.57.593,bars,2023.2.3,Win32,59.88023952,657b66ea316d21385b68909f,,,,,,,,,,,366.0218,367.0207,,,367.5101,367.7538,,175,-5,,,,,,,,,,,,,,,,bars/048.png,bars/mask001.png,,,,,,,,,,,,0,2,,,,,,,10,0,10,0,,,,,,,,,,,367.0207,367.51,367.7539,372.4032,space,4.6208,,372.4032,55,0,373.4031,373.4031,377.286,space,3.8501,,0,20,20,20,1,50,175,,,,,,,,
,,615db68d9d021708b6e64603,65af56aaa08a0d49e2f07b4c,2024-01-23_08h04.57.593,bars,2023.2.3,Win32,59.88023952,657b66ea316d21385b68909f,,,,,,,,,,,377.2919,378.2858,,,378.786,379.0357,,87,87,,,,,,,,,,,,,,,,bars/006.png,bars/mask003.png,,,,,,,,,,,,0,2,,,,,,,8,0,5,0,,,,,,,,,,,378.2859,378.7859,379.0357,380.6579,space,1.5999,0.0001,380.658,52,13,381.6521,381.6521,383.8851,space,2.2006,,0,21,21,21,1,35,100,,,,,,,,
,,615db68d9d021708b6e64603,65af56aaa08a0d49e2f07b4c,2024-01-23_08h04.57.593,bars,2023.2.3,Win32,59.88023952,657b66ea316d21385b68909f,,,,,,,,,,,383.8855,384.8855,,,385.3849,385.6349,,78,78,,,,,,,,,,,,,,,,bars/034.png,bars/mask001.png,,,,,,,,,,,,0,2,,,,,,,10,0,9,0,,,,,,,,,,,384.8857,385.3849,385.6349,387.9575,space,2.3004,,387.9575,47,13,388.9512,388.9514,390.0509,space,1.0723,,0,22,22,22,1,125,65,,,,,,,,
,,615db68d9d021708b6e64603,65af56aaa08a0d49e2f07b4c,2024-01-23_08h04.57.593,bars,2023.2.3,Win32,59.88023952,657b66ea316d21385b68909f,,,,,,,,,,,390.0511,391.0508,,,391.5507,391.8006,,133,-47,,,,,,,,,,,,,,,,bars/030.png,bars/mask007.png,,,,,,,,,,,,7,1,,,,,,,10,2,9,1,,,,,,,,,,,391.0508,391.5507,391.8007,395.6058,space,3.7854,,395.6058,7,68,396.6,396.6,432.9786,space,36.3551,,0,23,23,23,1,140,65,,,,,,,,
,,615db68d9d021708b6e64603,65af56aaa08a0d49e2f07b4c,2024-01-23_08h04.57.593,bars,2023.2.3,Win32,59.88023952,657b66ea316d21385b68909f,,,,,,,,,,,432.9848,433.9784,,,434.4839,434.7283,,91,91,,,,,,,,,,,,,,,,bars/001.png,bars/mask001.png,,,,,,,,,,,,0,2,,,,,,,8,0,8,0,,,,,,,,,,,433.9784,434.4839,434.7284,436.5614,space,1.8004,,436.5616,39,6,437.5612,437.5613,453.8758,space,16.2902,,0,24,24,24,1,130,85,,,,,,,,
,,615db68d9d021708b6e64603,65af56aaa08a0d49e2f07b4c,2024-01-23_08h04.57.593,bars,2023.2.3,Win32,59.88023952,657b66ea316d21385b68909f,,,,,,,,,,,453.8823,454.8758,,,455.3756,455.6255,,69,69,,,,,,,,,,,,,,,,bars/034.png,bars/mask009.png,,,,,,,,,,,,0,2,,,,,,,6,0,4,0,,,,,,,,,,,454.8759,455.3756,455.6255,457.7144,space,2.0663,,457.7144,56,4,458.7085,458.7086,473.5233,space,14.7844,,0,25,25,25,1,125,65,,,,,,,,
,,615db68d9d021708b6e64603,65af56aaa08a0d49e2f07b4c,2024-01-23_08h04.57.593,bars,2023.2.3,Win32,59.88023952,657b66ea316d21385b68909f,,,,,,,,,,,473.5302,474.5234,,,475.023,475.2729,,22,202,,,,,,,,,,,,,,,,bars/004.png,bars/mask003.png,,,,,,,,,,,,3,1,,,,,,,4,2,3,1,,,,,,,,,,,474.5237,475.023,475.273,478.8894,space,3.5913,,478.8895,3,77,479.8889,479.889,490.421,space,10.5053,,0,26,26,26,1,25,125,,,,,,,,
,,615db68d9d021708b6e64603,65af56aaa08a0d49e2f07b4c,2024-01-23_08h04.57.593,bars,2023.2.3,Win32,59.88023952,657b66ea316d21385b68909f,,,,,,,,,,,490.4276,491.425,,,491.9209,492.1707,,174,-6,,,,,,,,,,,,,,,,bars/039.png,bars/mask006.png,,,,,,,,,,,,2,1,,,,,,,2,0,2,0,,,,,,,,,,,491.4251,491.9209,492.1708,496.0095,space,3.8164,,496.0095,1,69,497.0034,497.0035,553.5628,space,56.5302,,0,27,27,27,1,175,105,,,,,,,,
,,615db68d9d021708b6e64603,65af56aaa08a0d49e2f07b4c,2024-01-23_08h04.57.593,bars,2023.2.3,Win32,59.88023952,657b66ea316d21385b68909f,,,,,,,,,,,553.5696,554.5625,,,555.0654,555.3123,,166,-14,,,,,,,,,,,,,,,,bars/023.png,bars/mask000.png,,,,,,,,,,,,0,1,,,,,,,0,2,1,1,,,,,,,,,,,554.5626,555.0654,555.3124,559.462,space,4.1176,,559.4621,34,51,560.4617,560.4618,646.2063,space,85.7222,,0,28,28,28,1,20,115,,,,,,,,
,,615db68d9d021708b6e64603,65af56aaa08a0d49e2f07b4c,2024-01-23_08h04.57.593,bars,2023.2.3,Win32,59.88023952,657b66ea316d21385b68909f,,,,,,,,,,,646.2113,647.2001,,,647.7005,647.95,,111,111,,,,,,,,,,,,,,,,bars/004.png,bars/mask008.png,,,,,,,,,,,,0,2,,,,,,,2,0,3,0,,,,,,,,,,,647.2002,647.7004,647.9501,650.6164,space,2.6362,,650.6166,86,14,651.6162,651.6163,657.849,space,6.2018,,0,29,29,29,1,25,125,,,,,,,,
,,615db68d9d021708b6e64603,65af56aaa08a0d49e2f07b4c,2024-01-23_08h04.57.593,bars,2023.2.3,Win32,59.88023952,657b66ea316d21385b68909f,,,,,,,,,,,657.8548,658.8486,,,659.3486,659.5985,,109,109,,,,,,,,,,,,,,,,bars/045.png,bars/mask008.png,,,,,,,,,,,,2,1,,,,,,,4,2,3,1,,,,,,,,,,,658.8487,659.3486,659.5985,664.7814,space,5.1499,,664.7816,9,81,665.7811,665.7812,780.0163,space,114.2023,,0,30,30,30,1,100,10,,,,,,,,
,,615db68d9d021708b6e64603,65af56aaa08a0d49e2f07b4c,2024-01-23_08h04.57.593,bars,2023.2.3,Win32,59.88023952,657b66ea316d21385b68909f,,,,,,,,,,,780.0228,781.0157,,,781.5159,781.7657,,117,117,,,,,,,,,,,,,,,,bars/045.png,bars/mask004.png,,,,,,,,,,,,2,1,,,,,,,2,4,4,5,,,,,,,,,,,781.0158,781.5158,781.7659,783.5489,space,1.7533,,783.5491,17,73,784.5487,784.5487,785.9319,space,1.3568,,0,31,31,31,1,100,10,,,,,,,,
,,615db68d9d021708b6e64603,65af56aaa08a0d49e2f07b4c,2024-01-23_08h04.57.593,bars,2023.2.3,Win32,59.88023952,657b66ea316d21385b68909f,,,,,,,,,,,785.9321,786.9318,,,787.4317,787.6816,,112,112,,,,,,,,,,,,,,,,bars/025.png,bars/mask008.png,,,,,,,,,,,,1,1,,,,,,,0,6,1,5,,,,,,,,,,,786.9319,787.4316,787.6818,790.5981,space,2.8844,,790.5982,7,72,791.5978,791.5978,792.0979,space,0.4725,,0,32,32,32,1,105,40,,,,,,,,
,,615db68d9d021708b6e64603,65af56aaa08a0d49e2f07b4c,2024-01-23_08h04.57.593,bars,2023.2.3,Win32,59.88023952,657b66ea316d21385b68909f,,,,,,,,,,,792.0988,793.0976,,,793.5974,793.8474,,86,86,,,,,,,,,,,,,,,,bars/037.png,bars/mask000.png,,,,,,,,,,,,3,2,,,,,,,0,8,0,8,,,,,,,,,,,793.0976,793.5974,793.8474,795.9674,space,2.0991,,795.9674,64,19,796.9638,796.9638,816.9493,space,19.9628,,0,33,33,33,1,150,105,,,,,,,,
,,615db68d9d021708b6e64603,65af56aaa08a0d49e2f07b4c,2024-01-23_08h04.57.593,bars,2023.2.3,Win32,59.88023952,657b66ea316d21385b68909f,,,,,,,,,,,816.9543,817.9443,,,818.4441,818.6942,,120,-60,,,,,,,,,,,,,,,,bars/040.png,bars/mask006.png,,,,,,,,,,,,0,1,,,,,,,0,6,0,6,,,,,,,,,,,817.9444,818.4441,818.6942,823.8327,space,5.1154,,823.8327,20,65,824.8267,824.8267,825.51,space,0.6597,,0,34,34,34,1,140,5,,,,,,,,
,,615db68d9d021708b6e64603,65af56aaa08a0d49e2f07b4c,2024-01-23_08h04.57.593,bars,2023.2.3,Win32,59.88023952,657b66ea316d21385b68909f,,,,,,,,,,,825.5103,826.5101,,,827.0098,827.2602,,106,106,,,,,,,,,,,,,,,,bars/025.png,bars/mask007.png,,,,,,,,,,,,0,1,,,,,,,0,8,0,7,,,,,,,,,,,826.5103,827.0097,827.2603,829.1986,space,1.917,,829.1986,1,66,830.1927,830.1927,837.4083,space,7.1889,,0,35,35,35,1,105,40,,,,,,,,
,,615db68d9d021708b6e64603,65af56aaa08a0d49e2f07b4c,2024-01-23_08h04.57.593,bars,2023.2.3,Win32,59.88023952,657b66ea316d21385b68909f,,,,,,,,,,,837.4148,838.4082,,,838.9087,839.158,,67,67,,,,,,,,,,,,,,,,bars/029.png,bars/mask000.png,,,,,,,,,,,,2,2,,,,,,,2,6,2,6,,,,,,,,,,,838.4083,838.9085,839.1581,843.047,space,3.8657,,843.047,23,22,844.0408,844.0408,845.0407,space,0.9741,,0,36,36,36,1,90,45,,,,,,,,
,,615db68d9d021708b6e64603,65af56aaa08a0d49e2f07b4c,2024-01-23_08h04.57.593,bars,2023.2.3,Win32,59.88023952,657b66ea316d21385b68909f,,,,,,,,,,,845.0415,846.0405,,,846.5405,846.7904,,46,46,,,,,,,,,,,,,,,,bars/029.png,bars/mask007.png,,,,,,,,,,,,7,2,,,,,,,0,8,1,7,,,,,,,,,,,846.0406,846.5405,846.7904,849.5281,space,2.7157,,849.5281,44,1,850.5294,850.5294,850.7736,space,0.2173,,0,37,37,37,1,90,45,,,,,,,,
,,615db68d9d021708b6e64603,65af56aaa08a0d49e2f07b4c,2024-01-23_08h04.57.593,bars,2023.2.3,Win32,59.88023952,657b66ea316d21385b68909f,,,,,,,,,,,850.7747,851.7731,,,852.2732,852.5234,,148,-32,,,,,,,,,,,,,,,,bars/005.png,bars/mask001.png,,,,,,,,,,,,7,2,,,,,,,2,10,5,9,,,,,,,,,,,851.7732,852.2731,852.5236,856.7424,space,4.1973,,856.7424,42,8,857.739,857.739,858.042,space,0.2807,,0,38,38,38,1,10,140,,,,,,,,
,,615db68d9d021708b6e64603,65af56aaa08a0d49e2f07b4c,2024-01-23_08h04.57.593,bars,2023.2.3,Win32,59.88023952,657b66ea316d21385b68909f,,,,,,,,,,,858.0423,859.0388,,,859.5387,859.7887,,50,50,,,,,,,,,,,,,,,,bars/016.png,bars/mask001.png,,,,,,,,,,,,0,1,,,,,,,0,10,0,10,,,,,,,,,,,859.0388,859.5387,859.7888,862.994,space,3.1831,,862.994,10,65,863.9881,863.9882,864.8416,space,0.8312,,0,39,39,39,1,40,165,,,,,,,,
,,615db68d9d021708b6e64603,65af56aaa08a0d49e2f07b4c,2024-01-23_08h04.57.593,bars,2023.2.3,Win32,59.88023952,657b66ea316d21385b68909f,,,,,,,,,,,864.8417,865.8379,,,866.3379,866.5878,,115,115,,,,,,,,,,,,,,,,bars/025.png,bars/mask003.png,,,,,,,,,,,,2,1,,,,,,,2,10,3,10,,,,,,,,,,,865.838,866.3379,866.5879,868.9378,space,2.3204,,868.9379,10,75,869.9375,869.9377,870.704,space,0.7421,,0,40,40,40,1,105,40,,,,,,,,
,,615db68d9d021708b6e64603,65af56aaa08a0d49e2f07b4c,2024-01-23_08h04.57.593,bars,2023.2.3,Win32,59.88023952,657b66ea316d21385b68909f,,,,,,,,,,,870.7053,871.7037,,,872.2037,872.4539,,174,-6,,,,,,,,,,,,,,,,bars/007.png,bars/mask000.png,,,,,,,,,,,,6,1,,,,,,,4,10,6,10,,,,,,,,,,,871.7038,872.2037,872.4539,875.4589,space,2.9835,,875.4589,1,61,876.4588,876.4588,877.12,space,0.6337,,0,41,41,41,1,175,55,,,,,,,,
,,615db68d9d021708b6e64603,65af56aaa08a0d49e2f07b4c,2024-01-23_08h04.57.593,bars,2023.2.3,Win32,59.88023952,657b66ea316d21385b68909f,,,,,,,,,,,877.1213,878.1197,,,878.6252,878.8696,,124,124,,,,,,,,,,,,,,,,bars/040.png,bars/mask006.png,,,,,,,,,,,,1,1,,,,,,,2,10,2,10,,,,,,,,,,,878.1197,878.6251,878.8696,881.0748,space,2.1833,,881.075,16,61,882.0692,882.0692,882.8359,space,0.7418,,0,42,42,42,1,140,5,,,,,,,,
,,615db68d9d021708b6e64603,65af56aaa08a0d49e2f07b4c,2024-01-23_08h04.57.593,bars,2023.2.3,Win32,59.88023952,657b66ea316d21385b68909f,,,,,,,,,,,882.8361,883.836,,,884.3354,884.5855,,151,-29,,,,,,,,,,,,,,,,bars/011.png,bars/mask004.png,,,,,,,,,,,,3,1,,,,,,,4,10,4,9,,,,,,,,,,,883.8361,884.3354,884.5855,888.5349,space,3.9168,,888.5349,9,66,889.5348,889.5348,889.8516,space,0.2835,,0,43,43,43,1,160,85,,,,,,,,
,,615db68d9d021708b6e64603,65af56aaa08a0d49e2f07b4c,2024-01-23_08h04.57.593,bars,2023.2.3,Win32,59.88023952,657b66ea316d21385b68909f,,,,,,,,,,,889.8524,890.8513,,,891.3512,891.6012,,135,135,,,,,,,,,,,,,,,,bars/037.png,bars/mask003.png,,,,,,,,,,,,4,1,,,,,,,6,8,7,8,,,,,,,,,,,890.8513,891.3512,891.6012,892.2011,space,0.57,,892.2012,15,30,893.201,893.201,893.4847,space,0.2604,,0,44,44,44,1,150,105,,,,,,,,
,,615db68d9d021708b6e64603,65af56aaa08a0d49e2f07b4c,2024-01-23_08h04.57.593,bars,2023.2.3,Win32,59.88023952,657b66ea316d21385b68909f,,,,,,,,,,,893.4859,894.4841,,,894.9841,895.234,,107,107,,,,,,,,,,,,,,,,bars/031.png,bars/mask005.png,,,,,,,,,,,,1,1,,,,,,,4,10,2,10,,,,,,,,,,,894.4842,894.9841,895.234,895.7842,space,0.5175,,895.7843,13,72,896.7838,896.7838,897.0507,space,0.2375,,0,45,45,45,1,120,35,,,,,,,,
,,615db68d9d021708b6e64603,65af56aaa08a0d49e2f07b4c,2024-01-23_08h04.57.593,bars,2023.2.3,Win32,59.88023952,657b66ea316d21385b68909f,,,,,,,,,,,897.0515,898.056,,,898.5503,898.8004,,141,141,,,,,,,,,,,,,,,,bars/013.png,bars/mask009.png,,,,,,,,,,,,0,2,,,,,,,2,8,2,6,,,,,,,,,,,898.056,898.5502,898.8005,899.3225,space,0.5003,,899.3226,66,49,900.3169,900.317,900.5667,space,0.2276,,0,46,46,46,1,75,10,,,,,,,,
,,615db68d9d021708b6e64603,65af56aaa08a0d49e2f07b4c,2024-01-23_08h04.57.593,bars,2023.2.3,Win32,59.88023952,657b66ea316d21385b68909f,,,,,,,,,,,900.5675,901.5665,,,902.0666,902.3166,,134,134,,,,,,,,,,,,,,,,bars/028.png,bars/mask009.png,,,,,,,,,,,,4,2,,,,,,,4,6,4,7,,,,,,,,,,,901.5665,902.0665,902.3167,904.0662,space,1.7249,,904.0662,89,14,905.0661,905.0662,905.3364,space,0.2479,,0,47,47,47,1,45,120,,,,,,,,
,,615db68d9d021708b6e64603,65af56aaa08a0d49e2f07b4c,2024-01-23_08h04.57.593,bars,2023.2.3,Win32,59.88023952,657b66ea316d21385b68909f,,,,,,,,,,,905.3366,906.3327,,,906.838,907.0825,,78,78,,,,,,,,,,,,,,,,bars/013.png,bars/mask000.png,,,,,,,,,,,,2,1,,,,,,,2,8,2,7,,,,,,,,,,,906.3328,906.838,907.0825,908.4824,space,1.3766,,908.4825,3,68,909.4821,909.4821,909.7496,space,0.2364,,0,48,48,48,1,75,10,,,,,,,,
,,615db68d9d021708b6e64603,65af56aaa08a0d49e2f07b4c,2024-01-23_08h04.57.593,bars,2023.2.3,Win32,59.88023952,657b66ea316d21385b68909f,,,,,,,,,,,909.7508,910.7487,,,911.2486,911.4986,,109,109,,,,,,,,,,,,,,,,bars/023.png,bars/mask005.png,,,,,,,,,,,,8,2,,,,,,,0,10,0,10,,,,,,,,,,,910.7487,911.2485,911.4986,914.2375,space,2.7175,,914.2375,89,6,915.2314,915.2314,915.6481,space,0.3837,,0,49,49,49,1,20,115,,,,,,,,
,,615db68d9d021708b6e64603,65af56aaa08a0d49e2f07b4c,2024-01-23_08h04.57.593,bars,2023.2.3,Win32,59.88023952,657b66ea316d21385b68909f,,,,,,,,,,,,,,,,,,,,,,,,,,,,,,,,,,,,,,,,,,,,,,,,,,,,,,,,,,,,,,,,,,,,,,,,,,,,,,,,,,,,,,,,,,,,,915.6495,975.6409,0,0,0,3,1,sequence_tables/blk026.csv
,,615db68d9d021708b6e64603,65af56aaa08a0d49e2f07b4c,2024-01-23_08h04.57.593,bars,2023.2.3,Win32,59.88023952,657b66ea316d21385b68909f,,,,,,,,,,,1091.1168,1092.1079,,,1092.6079,1092.8581,,119,119,,,,,,,,,,,,,,,,bars/028.png,bars/mask003.png,,,,,,,,,,,,2,2,,,,,,,10,2,9,2,,,,,,975.6473,1091.1082,space,115.4451,,1092.108,1092.6079,1092.8581,1094.5133,space,1.6323,,1094.5134,74,1,1095.5076,1095.5076,1095.5136,,,,0,0,0,0,1,45,120,,,,,,,,
,,615db68d9d021708b6e64603,65af56aaa08a0d49e2f07b4c,2024-01-23_08h04.57.593,bars,2023.2.3,Win32,59.88023952,657b66ea316d21385b68909f,,,,,,,,,,,1095.5137,1096.5074,,,1097.0074,1097.2573,,67,67,,,,,,,,,,,,,,,,bars/002.png,bars/mask000.png,,,,,,,,,,,,0,2,,,,,,,8,0,8,0,,,,,,,,,,,1096.5075,1097.0074,1097.2573,1098.3907,space,1.1075,,1098.3909,63,18,1099.3907,1099.3909,1099.4002,,,,0,1,1,1,1,130,85,,,,,,,,
,,615db68d9d021708b6e64603,65af56aaa08a0d49e2f07b4c,2024-01-23_08h04.57.593,bars,2023.2.3,Win32,59.88023952,657b66ea316d21385b68909f,,,,,,,,,,,1099.4004,1100.3952,,,1100.8904,1101.1401,,69,69,,,,,,,,,,,,,,,,bars/027.png,bars/mask003.png,,,,,,,,,,,,1,2,,,,,,,6,2,4,2,,,,,,,,,,,1100.3953,1100.8903,1101.1402,1104.5281,space,3.3659,,1104.5281,41,19,1105.5228,1105.5229,1105.5293,,,,0,2,2,2,1,110,50,,,,,,,,
,,615db68d9d021708b6e64603,65af56aaa08a0d49e2f07b4c,2024-01-23_08h04.57.593,bars,2023.2.3,Win32,59.88023952,657b66ea316d21385b68909f,,,,,,,,,,,1105.5293,1106.5282,,,1107.0229,1107.2727,,103,103,,,,,,,,,,,,,,,,bars/031.png,bars/mask001.png,,,,,,,,,,,,3,1,,,,,,,8,0,6,1,,,,,,,,,,,1106.5282,1107.0228,1107.2728,1111.4224,space,4.1168,,1111.4225,17,68,1112.4219,1112.4219,1112.4285,,,,0,3,3,3,1,120,35,,,,,,,,
,,615db68d9d021708b6e64603,65af56aaa08a0d49e2f07b4c,2024-01-23_08h04.57.593,bars,2023.2.3,Win32,59.88023952,657b66ea316d21385b68909f,,,,,,,,,,,1112.4286,1113.422,,,1113.9219,1114.172,,132,132,,,,,,,,,,,,,,,,bars/003.png,bars/mask001.png,,,,,,,,,,,,1,2,,,,,,,6,2,8,1,,,,,,,,,,,1113.4221,1113.9218,1114.172,1115.777,space,1.5829,,1115.7771,73,8,1116.7713,1116.7713,1116.7741,,,,0,4,4,4,1,25,140,,,,,,,,
,,615db68d9d021708b6e64603,65af56aaa08a0d49e2f07b4c,2024-01-23_08h04.57.593,bars,2023.2.3,Win32,59.88023952,657b66ea316d21385b68909f,,,,,,,,,,,1116.7742,1117.7716,,,1118.2712,1118.5098,,151,151,,,,,,,,,,,,,,,,bars/008.png,bars/mask008.png,,,,,,,,,,,,0,2,,,,,,,4,0,6,0,,,,,,,,,,,1117.7718,1118.2712,1118.5098,1122.5872,space,4.0595,,1122.5874,41,29,1123.5873,1123.5873,1123.5933,,,,0,5,5,5,1,110,0,,,,,,,,
,,615db68d9d021708b6e64603,65af56aaa08a0d49e2f07b4c,2024-01-23_08h04.57.593,bars,2023.2.3,Win32,59.88023952,657b66ea316d21385b68909f,,,,,,,,,,,1123.5935,1124.587,,,1125.0871,1125.3368,,167,167,,,,,,,,,,,,,,,,bars/035.png,bars/mask003.png,,,,,,,,,,,,1,1,,,,,,,2,0,2,1,,,,,,,,,,,1124.5871,1125.087,1125.3368,1125.8536,space,0.4839,,1125.8538,8,73,1126.8533,1126.8534,1126.8566,,,,0,6,6,6,1,175,60,,,,,,,,
,,615db68d9d021708b6e64603,65af56aaa08a0d49e2f07b4c,2024-01-23_08h04.57.593,bars,2023.2.3,Win32,59.88023952,657b66ea316d21385b68909f,,,,,,,,,,,1126.8568,1127.8533,,,1128.3531,1128.6031,,177,177,,,,,,,,,,,,,,,,bars/028.png,bars/mask006.png,,,,,,,,,,,,0,1,,,,,,,4,2,4,1,,,,,,,,,,,1127.8533,1128.3531,1128.6031,1129.12,space,0.486,,1129.1201,48,57,1130.1196,1130.1196,1130.1201,,,,0,7,7,7,1,45,120,,,,,,,,
,,615db68d9d021708b6e64603,65af56aaa08a0d49e2f07b4c,2024-01-23_08h04.57.593,bars,2023.2.3,Win32,59.88023952,657b66ea316d21385b68909f,,,,,,,,,,,1130.1206,1131.1194,,,1131.6196,1131.8693,,67,67,,,,,,,,,,,,,,,,bars/025.png,bars/mask000.png,,,,,,,,,,,,0,2,,,,,,,6,0,6,1,,,,,,,,,,,1131.1195,1131.6196,1131.8694,1132.9192,space,1.0258,,1132.9193,38,27,1133.919,1133.9191,1133.922,,,,0,8,8,8,1,105,40,,,,,,,,
,,615db68d9d021708b6e64603,65af56aaa08a0d49e2f07b4c,2024-01-23_08h04.57.593,bars,2023.2.3,Win32,59.88023952,657b66ea316d21385b68909f,,,,,,,,,,,1133.9222,1134.9189,,,1135.4079,1135.6587,,170,170,,,,,,,,,,,,,,,,bars/044.png,bars/mask001.png,,,,,,,,,,,,1,2,,,,,,,4,2,5,2,,,,,,,,,,,1134.9189,1135.4079,1135.6587,1136.8409,space,1.1663,,1136.841,85,15,1137.8354,1137.8355,1137.8374,,,,0,9,9,9,1,75,155,,,,,,,,
,,615db68d9d021708b6e64603,65af56aaa08a0d49e2f07b4c,2024-01-23_08h04.57.593,bars,2023.2.3,Win32,59.88023952,657b66ea316d21385b68909f,,,,,,,,,,,1137.8378,1138.8351,,,1139.3351,1139.585,,64,64,,,,,,,,,,,,,,,,bars/010.png,bars/mask008.png,,,,,,,,,,,,0,2,,,,,,,2,0,2,0,,,,,,,,,,,1138.8352,1139.3351,1139.5851,1143.1734,space,3.5662,,1143.1734,79,9,1144.1678,1144.1678,1144.174,,,,0,10,10,10,1,165,55,,,,,,,,
,,615db68d9d021708b6e64603,65af56aaa08a0d49e2f07b4c,2024-01-23_08h04.57.593,bars,2023.2.3,Win32,59.88023952,657b66ea316d21385b68909f,,,,,,,,,,,1144.1741,1145.1676,,,1145.6676,1145.9175,,116,116,,,,,,,,,,,,,,,,bars/004.png,bars/mask002.png,,,,,,,,,,,,3,2,,,,,,,0,2,1,4,,,,,,,,,,,1145.1676,1145.6676,1145.9175,1147.2509,space,1.3168,,1147.251,89,9,1148.2565,1148.2565,1148.257,,,,0,11,11,11,1,25,125,,,,,,,,
,,615db68d9d021708b6e64603,65af56aaa08a0d49e2f07b4c,2024-01-23_08h04.57.593,bars,2023.2.3,Win32,59.88023952,657b66ea316d21385b68909f,,,,,,,,,,,1148.257,1149.2505,,,1149.7552,1150.0003,,49,49,,,,,,,,,,,,,,,,bars/001.png,bars/mask002.png,,,,,,,,,,,,0,2,,,,,,,2,0,2,0,,,,,,,,,,,1149.2505,1149.7552,1150.0005,1151.6671,space,1.6382,,1151.6673,81,36,1152.6667,1152.6667,1152.6677,,,,0,12,12,12,1,130,85,,,,,,,,
,,615db68d9d021708b6e64603,65af56aaa08a0d49e2f07b4c,2024-01-23_08h04.57.593,bars,2023.2.3,Win32,59.88023952,657b66ea316d21385b68909f,,,,,,,,,,,1152.6683,1153.6664,,,1154.1666,1154.4164,,120,120,,,,,,,,,,,,,,,,bars/023.png,bars/mask001.png,,,,,,,,,,,,1,2,,,,,,,0,2,1,1,,,,,,,,,,,1153.6665,1154.1665,1154.4165,1157.4161,space,2.977,,1157.4161,80,5,1158.4158,1158.4158,1158.4218,,,,0,13,13,13,1,20,115,,,,,,,,
,,615db68d9d021708b6e64603,65af56aaa08a0d49e2f07b4c,2024-01-23_08h04.57.593,bars,2023.2.3,Win32,59.88023952,657b66ea316d21385b68909f,,,,,,,,,,,1158.4218,1159.4159,,,1159.9157,1160.1657,,99,99,,,,,,,,,,,,,,,,bars/019.png,bars/mask003.png,,,,,,,,,,,,0,2,,,,,,,2,0,1,0,,,,,,,,,,,1159.416,1159.9156,1160.1657,1162.0654,space,1.8765,,1162.0655,54,6,1163.0654,1163.0655,1163.0671,,,,0,14,14,14,1,45,105,,,,,,,,
,,615db68d9d021708b6e64603,65af56aaa08a0d49e2f07b4c,2024-01-23_08h04.57.593,bars,2023.2.3,Win32,59.88023952,657b66ea316d21385b68909f,,,,,,,,,,,1163.0676,1164.0651,,,1164.5654,1164.815,,125,125,,,,,,,,,,,,,,,,bars/036.png,bars/mask004.png,,,,,,,,,,,,1,1,,,,,,,4,2,4,3,,,,,,,,,,,1164.0652,1164.5653,1164.815,1166.5705,space,1.734,,1166.5705,20,75,1167.5653,1167.5653,1167.5713,,,,0,15,15,15,1,145,20,,,,,,,,
,,615db68d9d021708b6e64603,65af56aaa08a0d49e2f07b4c,2024-01-23_08h04.57.593,bars,2023.2.3,Win32,59.88023952,657b66ea316d21385b68909f,,,,,,,,,,,1167.5713,1168.5645,,,1169.0648,1169.3144,,124,124,,,,,,,,,,,,,,,,bars/037.png,bars/mask004.png,,,,,,,,,,,,1,2,,,,,,,2,4,2,3,,,,,,,,,,,1168.5645,1169.0648,1169.3144,1172.9809,space,3.6399,,1172.981,26,19,1173.9805,1173.9806,1173.987,,,,0,16,16,16,1,150,105,,,,,,,,
,,615db68d9d021708b6e64603,65af56aaa08a0d49e2f07b4c,2024-01-23_08h04.57.593,bars,2023.2.3,Win32,59.88023952,657b66ea316d21385b68909f,,,,,,,,,,,1173.9871,1174.9803,,,1175.4803,1175.7303,,135,135,,,,,,,,,,,,,,,,bars/031.png,bars/mask006.png,,,,,,,,,,,,4,1,,,,,,,4,2,7,4,,,,,,,,,,,1174.9803,1175.4802,1175.7303,1179.0856,space,3.3332,,1179.0856,15,80,1180.0797,1180.0797,1180.0861,,,,0,17,17,17,1,120,35,,,,,,,,
,,615db68d9d021708b6e64603,65af56aaa08a0d49e2f07b4c,2024-01-23_08h04.57.593,bars,2023.2.3,Win32,59.88023952,657b66ea316d21385b68909f,,,,,,,,,,,1180.0862,1181.0795,,,1181.5796,1181.8295,,129,129,,,,,,,,,,,,,,,,bars/036.png,bars/mask006.png,,,,,,,,,,,,3,1,,,,,,,6,4,6,4,,,,,,,,,,,1181.0795,1181.5796,1181.8295,1183.5352,space,1.7002,,1183.5352,16,71,1184.5291,1184.5291,1184.5309,,,,0,18,18,18,1,145,20,,,,,,,,
,,615db68d9d021708b6e64603,65af56aaa08a0d49e2f07b4c,2024-01-23_08h04.57.593,bars,2023.2.3,Win32,59.88023952,657b66ea316d21385b68909f,,,,,,,,,,,1184.5318,1185.5289,,,1186.0291,1186.2788,,10,190,,,,,,,,,,,,,,,,bars/008.png,bars/mask000.png,,,,,,,,,,,,4,2,,,,,,,4,6,1,6,,,,,,,,,,,1185.5289,1186.029,1186.2788,1190.1652,space,3.8645,,1190.1652,80,10,1191.1617,1191.1617,1191.1678,,,,0,19,19,19,1,110,0,,,,,,,,
,,615db68d9d021708b6e64603,65af56aaa08a0d49e2f07b4c,2024-01-23_08h04.57.593,bars,2023.2.3,Win32,59.88023952,657b66ea316d21385b68909f,,,,,,,,,,,1191.168,1192.1615,,,1192.6658,1192.9113,,67,67,,,,,,,,,,,,,,,,bars/042.png,bars/mask008.png,,,,,,,,,,,,4,2,,,,,,,6,4,5,5,,,,,,,,,,,1192.1615,1192.6658,1192.9115,1196.4776,space,3.5349,,1196.4777,78,8,1197.4773,1197.4774,1197.4834,,,,0,20,20,20,1,145,75,,,,,,,,
,,615db68d9d021708b6e64603,65af56aaa08a0d49e2f07b4c,2024-01-23_08h04.57.593,bars,2023.2.3,Win32,59.88023952,657b66ea316d21385b68909f,,,,,,,,,,,1197.4836,1198.4772,,,1198.9773,1199.2271,,69,69,,,,,,,,,,,,,,,,bars/046.png,bars/mask007.png,,,,,,,,,,,,1,2,,,,,,,8,2,8,3,,,,,,,,,,,1198.4773,1198.9772,1199.2272,1202.1935,space,2.9338,,1202.1936,86,16,1203.1933,1203.1934,1203.1994,,,,0,21,21,21,1,155,85,,,,,,,,
,,615db68d9d021708b6e64603,65af56aaa08a0d49e2f07b4c,2024-01-23_08h04.57.593,bars,2023.2.3,Win32,59.88023952,657b66ea316d21385b68909f,,,,,,,,,,,1203.1995,1204.198,,,1204.6932,1204.9435,,62,62,,,,,,,,,,,,,,,,bars/049.png,bars/mask008.png,,,,,,,,,,,,0,2,,,,,,,6,4,6,5,,,,,,,,,,,1204.198,1204.6932,1204.9436,1208.426,space,3.4505,,1208.4262,82,53,1209.4258,1209.4258,1209.4317,,,,0,22,22,22,1,160,115,,,,,,,,
,,615db68d9d021708b6e64603,65af56aaa08a0d49e2f07b4c,2024-01-23_08h04.57.593,bars,2023.2.3,Win32,59.88023952,657b66ea316d21385b68909f,,,,,,,,,,,1209.4318,1210.4256,,,1210.9259,1211.1756,,56,56,,,,,,,,,,,,,,,,bars/042.png,bars/mask003.png,,,,,,,,,,,,0,2,,,,,,,8,2,7,0,,,,,,,,,,,1210.4257,1210.9257,1211.1756,1213.0145,space,1.8331,,1213.0145,89,19,1214.0085,1214.0085,1214.0147,,,,0,23,23,23,1,145,75,,,,,,,,
,,615db68d9d021708b6e64603,65af56aaa08a0d49e2f07b4c,2024-01-23_08h04.57.593,bars,2023.2.3,Win32,59.88023952,657b66ea316d21385b68909f,,,,,,,,,,,1214.0148,1215.0084,,,1215.5084,1215.7582,,65,65,,,,,,,,,,,,,,,,bars/040.png,bars/mask009.png,,,,,,,,,,,,0,2,,,,,,,6,0,7,0,,,,,,,,,,,1215.0086,1215.5083,1215.7582,1222.4271,space,6.6469,,1222.4271,75,60,1223.4239,1223.4239,1223.4308,,,,0,24,24,24,1,140,5,,,,,,,,
,,615db68d9d021708b6e64603,65af56aaa08a0d49e2f07b4c,2024-01-23_08h04.57.593,bars,2023.2.3,Win32,59.88023952,657b66ea316d21385b68909f,,,,,,,,,,,1223.4309,1224.4237,,,1224.9237,1225.1738,,165,-15,,,,,,,,,,,,,,,,bars/008.png,bars/mask002.png,,,,,,,,,,,,1,2,,,,,,,4,0,5,1,,,,,,,,,,,1224.4237,1224.9236,1225.1738,1227.7125,space,2.5191,,1227.7125,55,15,1228.7065,1228.7065,1228.7127,,,,0,25,25,25,1,110,0,,,,,,,,
,,615db68d9d021708b6e64603,65af56aaa08a0d49e2f07b4c,2024-01-23_08h04.57.593,bars,2023.2.3,Win32,59.88023952,657b66ea316d21385b68909f,,,,,,,,,,,1228.7129,1229.7064,,,1230.1954,1230.4397,,164,164,,,,,,,,,,,,,,,,bars/025.png,bars/mask005.png,,,,,,,,,,,,0,2,,,,,,,6,2,7,2,,,,,,,,,,,1229.7064,1230.1954,1230.4397,1232.7119,space,2.2502,,1232.712,59,56,1233.7063,1233.7063,1233.7084,,,,0,26,26,26,1,105,40,,,,,,,,
,,615db68d9d021708b6e64603,65af56aaa08a0d49e2f07b4c,2024-01-23_08h04.57.593,bars,2023.2.3,Win32,59.88023952,657b66ea316d21385b68909f,,,,,,,,,,,1233.7086,1234.7114,,,1235.2058,1235.4557,,26,206,,,,,,,,,,,,,,,,bars/012.png,bars/mask000.png,,,,,,,,,,,,0,2,,,,,,,8,0,8,0,,,,,,,,,,,1234.7114,1235.2058,1235.4557,1240.7051,space,5.2166,,1240.7051,64,11,1241.7051,1241.7051,1241.7116,,,,0,27,27,27,1,90,15,,,,,,,,
,,615db68d9d021708b6e64603,65af56aaa08a0d49e2f07b4c,2024-01-23_08h04.57.593,bars,2023.2.3,Win32,59.88023952,657b66ea316d21385b68909f,,,,,,,,,,,1241.7117,1242.7054,,,1243.2049,1243.4546,,170,170,,,,,,,,,,,,,,,,bars/003.png,bars/mask006.png,,,,,,,,,,,,0,2,,,,,,,6,2,7,0,,,,,,,,,,,1242.7055,1243.2048,1243.4546,1246.821,space,3.3404,,1246.8211,35,30,1247.8207,1247.8207,1247.8264,,,,0,28,28,28,1,25,140,,,,,,,,
,,615db68d9d021708b6e64603,65af56aaa08a0d49e2f07b4c,2024-01-23_08h04.57.593,bars,2023.2.3,Win32,59.88023952,657b66ea316d21385b68909f,,,,,,,,,,,1247.8265,1248.8208,,,1249.3206,1249.5581,,111,111,,,,,,,,,,,,,,,,bars/023.png,bars/mask002.png,,,,,,,,,,,,3,2,,,,,,,8,4,7,4,,,,,,,,,,,1248.8209,1249.3205,1249.5581,1251.7202,space,2.1431,,1251.7203,89,4,1252.72,1252.7201,1252.726,,,,0,29,29,29,1,20,115,,,,,,,,
,,615db68d9d021708b6e64603,65af56aaa08a0d49e2f07b4c,2024-01-23_08h04.57.593,bars,2023.2.3,Win32,59.88023952,657b66ea316d21385b68909f,,,,,,,,,,,1252.7262,1253.7199,,,1254.2203,1254.4698,,169,-11,,,,,,,,,,,,,,,,bars/044.png,bars/mask003.png,,,,,,,,,,,,3,2,,,,,,,10,6,10,6,,,,,,,,,,,1253.7199,1254.2202,1254.4698,1257.1696,space,2.6672,,1257.1697,86,14,1258.1694,1258.1694,1258.1756,,,,0,30,30,30,1,75,155,,,,,,,,
,,615db68d9d021708b6e64603,65af56aaa08a0d49e2f07b4c,2024-01-23_08h04.57.593,bars,2023.2.3,Win32,59.88023952,657b66ea316d21385b68909f,,,,,,,,,,,1258.1757,1259.1692,,,1259.6691,1259.9191,,11,191,,,,,,,,,,,,,,,,bars/008.png,bars/mask002.png,,,,,,,,,,,,6,2,,,,,,,10,8,10,9,,,,,,,,,,,1259.1692,1259.6691,1259.9192,1265.1021,space,5.1534,,1265.1022,81,11,1266.1048,1266.1048,1266.1103,,,,0,31,31,31,1,110,0,,,,,,,,
,,615db68d9d021708b6e64603,65af56aaa08a0d49e2f07b4c,2024-01-23_08h04.57.593,bars,2023.2.3,Win32,59.88023952,657b66ea316d21385b68909f,,,,,,,,,,,1266.1105,1267.1015,,,1267.6014,1267.8546,,36,36,,,,,,,,,,,,,,,,bars/027.png,bars/mask006.png,,,,,,,,,,,,5,2,,,,,,,10,10,9,9,,,,,,,,,,,1267.1016,1267.6014,1267.8546,1269.7847,space,1.9004,,1269.7848,74,14,1270.7873,1270.7873,1270.7923,,,,0,32,32,32,1,110,50,,,,,,,,
,,615db68d9d021708b6e64603,65af56aaa08a0d49e2f07b4c,2024-01-23_08h04.57.593,bars,2023.2.3,Win32,59.88023952,657b66ea316d21385b68909f,,,,,,,,,,,1270.7924,1271.7842,,,1272.2873,1272.5342,,137,137,,,,,,,,,,,,,,,,bars/035.png,bars/mask001.png,,,,,,,,,,,,0,1,,,,,,,8,10,9,10,,,,,,,,,,,1271.7843,1272.2873,1272.5343,1274.118,space,1.5511,,1274.1182,38,77,1275.1171,1275.1171,1275.12,,,,0,33,33,33,1,175,60,,,,,,,,
,,615db68d9d021708b6e64603,65af56aaa08a0d49e2f07b4c,2024-01-23_08h04.57.593,bars,2023.2.3,Win32,59.88023952,657b66ea316d21385b68909f,,,,,,,,,,,1275.1202,1276.1171,,,1276.6169,1276.8717,,65,65,,,,,,,,,,,,,,,,bars/007.png,bars/mask007.png,,,,,,,,,,,,5,2,,,,,,,10,8,10,8,,,,,,,,,,,1276.1171,1276.6169,1276.8717,1281.5721,space,4.6835,,1281.5721,70,10,1282.5662,1282.5662,1282.5725,,,,0,34,34,34,1,175,55,,,,,,,,
,,615db68d9d021708b6e64603,65af56aaa08a0d49e2f07b4c,2024-01-23_08h04.57.593,bars,2023.2.3,Win32,59.88023952,657b66ea316d21385b68909f,,,,,,,,,,,1282.5727,1283.5659,,,1284.0659,1284.3159,,45,45,,,,,,,,,,,,,,,,bars/022.png,bars/mask007.png,,,,,,,,,,,,1,2,,,,,,,10,6,10,7,,,,,,,,,,,1283.566,1284.0659,1284.3159,1289.6046,space,5.2664,,1289.6046,50,25,1290.5983,1290.5984,1290.6044,,,,0,35,35,35,1,95,20,,,,,,,,
,,615db68d9d021708b6e64603,65af56aaa08a0d49e2f07b4c,2024-01-23_08h04.57.593,bars,2023.2.3,Win32,59.88023952,657b66ea316d21385b68909f,,,,,,,,,,,1290.6044,1291.5983,,,1292.0982,1292.3371,,139,139,,,,,,,,,,,,,,,,bars/009.png,bars/mask006.png,,,,,,,,,,,,0,2,,,,,,,8,8,8,6,,,,,,,,,,,1291.5984,1292.0981,1292.3371,1295.1314,space,2.7697,,1295.1315,56,34,1296.1311,1296.1311,1296.1371,,,,0,36,36,36,1,15,105,,,,,,,,
,,615db68d9d021708b6e64603,65af56aaa08a0d49e2f07b4c,2024-01-23_08h04.57.593,bars,2023.2.3,Win32,59.88023952,657b66ea316d21385b68909f,,,,,,,,,,,1296.1373,1297.1309,,,1297.6308,1297.8807,,32,32,,,,,,,,,,,,,,,,bars/025.png,bars/mask003.png,,,,,,,,,,,,7,2,,,,,,,10,10,9,10,,,,,,,,,,,1297.131,1297.6307,1297.8807,1299.9472,space,2.0415,,1299.9472,73,8,1300.9473,1300.9474,1300.953,,,,0,37,37,37,1,105,40,,,,,,,,
,,615db68d9d021708b6e64603,65af56aaa08a0d49e2f07b4c,2024-01-23_08h04.57.593,bars,2023.2.3,Win32,59.88023952,657b66ea316d21385b68909f,,,,,,,,,,,1300.9531,1301.9527,,,1302.4469,1302.6846,,58,58,,,,,,,,,,,,,,,,bars/035.png,bars/mask005.png,,,,,,,,,,,,9,2,,,,,,,10,10,8,10,,,,,,,,,,,1301.9527,1302.4468,1302.6846,1307.2134,space,4.5103,,1307.2135,63,2,1308.2126,1308.2127,1308.2185,,,,0,38,38,38,1,175,60,,,,,,,,
,,615db68d9d021708b6e64603,65af56aaa08a0d49e2f07b4c,2024-01-23_08h04.57.593,bars,2023.2.3,Win32,59.88023952,657b66ea316d21385b68909f,,,,,,,,,,,1308.2187,1309.2125,,,1309.7127,1309.9626,,36,216,,,,,,,,,,,,,,,,bars/017.png,bars/mask007.png,,,,,,,,,,,,6,2,,,,,,,10,10,8,9,,,,,,,,,,,1309.2125,1309.7126,1309.9626,1312.946,space,2.9516,,1312.9461,71,9,1313.9453,1313.9453,1313.9511,,,,0,39,39,39,1,145,45,,,,,,,,
,,615db68d9d021708b6e64603,65af56aaa08a0d49e2f07b4c,2024-01-23_08h04.57.593,bars,2023.2.3,Win32,59.88023952,657b66ea316d21385b68909f,,,,,,,,,,,1313.9512,1314.9452,,,1315.4451,1315.695,,90,90,,,,,,,,,,,,,,,,bars/002.png,bars/mask001.png,,,,,,,,,,,,8,2,,,,,,,8,10,10,10,,,,,,,,,,,1314.9453,1315.4451,1315.695,1320.3445,space,4.6176,,1320.3446,40,5,1321.3443,1321.3443,1321.35,,,,0,40,40,40,1,130,85,,,,,,,,
,,615db68d9d021708b6e64603,65af56aaa08a0d49e2f07b4c,2024-01-23_08h04.57.593,bars,2023.2.3,Win32,59.88023952,657b66ea316d21385b68909f,,,,,,,,,,,1321.3502,1322.3446,,,1322.8441,1323.0945,,150,-30,,,,,,,,,,,,,,,,bars/043.png,bars/mask003.png,,,,,,,,,,,,3,2,,,,,,,10,10,10,10,,,,,,,,,,,1322.3447,1322.8441,1323.0946,1325.8144,space,2.6987,,1325.8144,60,20,1326.8107,1326.8108,1326.8168,,,,0,41,41,41,1,30,130,,,,,,,,
,,615db68d9d021708b6e64603,65af56aaa08a0d49e2f07b4c,2024-01-23_08h04.57.593,bars,2023.2.3,Win32,59.88023952,657b66ea316d21385b68909f,,,,,,,,,,,1326.8169,1327.8102,,,1328.3103,1328.56,,77,77,,,,,,,,,,,,,,,,bars/031.png,bars/mask003.png,,,,,,,,,,,,0,2,,,,,,,10,10,9,10,,,,,,,,,,,1327.8102,1328.3102,1328.5601,1332.8428,space,4.2615,,1332.8428,43,42,1333.8427,1333.8427,1333.8489,,,,0,42,42,42,1,120,35,,,,,,,,
,,615db68d9d021708b6e64603,65af56aaa08a0d49e2f07b4c,2024-01-23_08h04.57.593,bars,2023.2.3,Win32,59.88023952,657b66ea316d21385b68909f,,,,,,,,,,,1333.849,1334.8425,,,1335.3425,1335.5928,,58,58,,,,,,,,,,,,,,,,bars/046.png,bars/mask002.png,,,,,,,,,,,,1,2,,,,,,,8,10,8,10,,,,,,,,,,,1334.8425,1335.3425,1335.5929,1336.7096,space,1.0872,,1336.7097,83,27,1337.7088,1337.7088,1337.7105,,,,0,43,43,43,1,155,85,,,,,,,,
,,615db68d9d021708b6e64603,65af56aaa08a0d49e2f07b4c,2024-01-23_08h04.57.593,bars,2023.2.3,Win32,59.88023952,657b66ea316d21385b68909f,,,,,,,,,,,1337.7111,1338.7087,,,1339.2086,1339.4585,,134,-46,,,,,,,,,,,,,,,,bars/044.png,bars/mask001.png,,,,,,,,,,,,3,2,,,,,,,6,8,6,9,,,,,,,,,,,1338.7087,1339.2086,1339.4585,1345.0914,space,5.6047,,1345.0915,59,21,1346.091,1346.0911,1346.0983,,,,0,44,44,44,1,75,155,,,,,,,,
,,615db68d9d021708b6e64603,65af56aaa08a0d49e2f07b4c,2024-01-23_08h04.57.593,bars,2023.2.3,Win32,59.88023952,657b66ea316d21385b68909f,,,,,,,,,,,1346.0984,1347.0909,,,1347.5909,1347.8409,,43,43,,,,,,,,,,,,,,,,bars/007.png,bars/mask004.png,,,,,,,,,,,,4,2,,,,,,,4,6,3,7,,,,,,,,,,,1347.091,1347.5909,1347.841,1349.7416,space,1.877,,1349.7417,48,12,1350.7409,1350.741,1350.7469,,,,0,45,45,45,1,175,55,,,,,,,,
,,615db68d9d021708b6e64603,65af56aaa08a0d49e2f07b4c,2024-01-23_08h04.57.593,bars,2023.2.3,Win32,59.88023952,657b66ea316d21385b68909f,,,,,,,,,,,1350.7471,1351.7403,,,1352.2402,1352.4904,,136,136,,,,,,,,,,,,,,,,bars/028.png,bars/mask000.png,,,,,,,,,,,,2,2,,,,,,,6,4,5,4,,,,,,,,,,,1351.7403,1352.2402,1352.4905,1354.2234,space,1.7087,,1354.2235,89,16,1355.2231,1355.2231,1355.2236,,,,0,46,46,46,1,45,120,,,,,,,,
,,615db68d9d021708b6e64603,65af56aaa08a0d49e2f07b4c,2024-01-23_08h04.57.593,bars,2023.2.3,Win32,59.88023952,657b66ea316d21385b68909f,,,,,,,,,,,1355.2242,1356.223,,,1356.7231,1356.973,,132,132,,,,,,,,,,,,,,,,bars/019.png,bars/mask005.png,,,,,,,,,,,,0,2,,,,,,,8,2,7,1,,,,,,,,,,,1356.223,1356.723,1356.9732,1360.0455,space,3.053,,1360.0455,87,27,1361.039,1361.039,1361.0449,,,,0,47,47,47,1,45,105,,,,,,,,
,,615db68d9d021708b6e64603,65af56aaa08a0d49e2f07b4c,2024-01-23_08h04.57.593,bars,2023.2.3,Win32,59.88023952,657b66ea316d21385b68909f,,,,,,,,,,,1361.0451,1362.0388,,,1362.5389,1362.7891,,146,146,,,,,,,,,,,,,,,,bars/024.png,bars/mask002.png,,,,,,,,,,,,1,2,,,,,,,6,4,6,4,,,,,,,,,,,1362.0388,1362.5388,1362.7891,1364.1886,space,1.3765,,1364.1887,26,24,1365.1884,1365.1884,1365.1899,,,,0,48,48,48,1,120,170,,,,,,,,
,,615db68d9d021708b6e64603,65af56aaa08a0d49e2f07b4c,2024-01-23_08h04.57.593,bars,2023.2.3,Win32,59.88023952,657b66ea316d21385b68909f,,,,,,,,,,,1365.1904,1366.1883,,,1366.6884,1366.9382,,150,150,,,,,,,,,,,,,,,,bars/049.png,bars/mask005.png,,,,,,,,,,,,3,1,,,,,,,4,6,4,5,,,,,,,,,,,1366.1884,1366.6883,1366.9382,1368.1882,space,1.2345,,1368.1884,10,35,1369.1879,1369.1879,1369.1909,,,,0,49,49,49,1,160,115,,,,,,,,
,,615db68d9d021708b6e64603,65af56aaa08a0d49e2f07b4c,2024-01-23_08h04.57.593,bars,2023.2.3,Win32,59.88023952,657b66ea316d21385b68909f,,,,,,,,,,,,,,,,,,,,,,,,,,,,,,,,,,,,,,,,,,,,,,,,,,,,,,,,,,,,,,,,,,,,,,,,,,,,,,,,,,,,,,,,,,,,,1369.191,1429.1801,0,1,1,1,1,sequence_tables/blk033.csv
,,615db68d9d021708b6e64603,65af56aaa08a0d49e2f07b4c,2024-01-23_08h04.57.593,bars,2023.2.3,Win32,59.88023952,657b66ea316d21385b68909f,,,,,,,,,,,1540.1581,1541.1486,,,1541.6485,1541.8984,,60,60,,,,,,,,,,,,,,,,bars/047.png,bars/mask008.png,,,,,,,,,,,,5,2,,,,,,,1,6,1,7,,,,,,1429.1871,1540.1491,space,110.94,,1541.1486,1541.6485,1541.8985,1543.4015,space,1.4822,,1543.4015,45,10,1544.3981,1544.3981,1544.4046,,,,0,0,0,0,1,15,70,,,,,,,,
,,615db68d9d021708b6e64603,65af56aaa08a0d49e2f07b4c,2024-01-23_08h04.57.593,bars,2023.2.3,Win32,59.88023952,657b66ea316d21385b68909f,,,,,,,,,,,1544.4048,1545.3981,,,1545.8982,1546.1479,,110,110,,,,,,,,,,,,,,,,bars/028.png,bars/mask009.png,,,,,,,,,,,,3,2,,,,,,,3,4,2,5,,,,,,,,,,,1545.3982,1545.8981,1546.1479,1551.0475,space,4.8712,,1551.0477,65,10,1552.0512,1552.0513,1552.0565,,,,0,1,1,1,1,45,120,,,,,,,,
,,615db68d9d021708b6e64603,65af56aaa08a0d49e2f07b4c,2024-01-23_08h04.57.593,bars,2023.2.3,Win32,59.88023952,657b66ea316d21385b68909f,,,,,,,,,,,1552.0566,1553.047,,,1553.5471,1553.7968,,47,47,,,,,,,,,,,,,,,,bars/031.png,bars/mask001.png,,,,,,,,,,,,3,2,,,,,,,1,6,2,5,,,,,,,,,,,1553.047,1553.547,1553.7969,1555.6192,space,1.7999,,1555.6192,73,12,1556.6132,1556.6132,1556.6193,,,,0,2,2,2,1,120,35,,,,,,,,
,,615db68d9d021708b6e64603,65af56aaa08a0d49e2f07b4c,2024-01-23_08h04.57.593,bars,2023.2.3,Win32,59.88023952,657b66ea316d21385b68909f,,,,,,,,,,,1556.6195,1557.613,,,1558.113,1558.3629,,131,131,,,,,,,,,,,,,,,,bars/036.png,bars/mask004.png,,,,,,,,,,,,2,1,,,,,,,3,4,3,5,,,,,,,,,,,1557.613,1558.113,1558.3629,1563.918,space,5.5334,,1563.9181,14,69,1564.9131,1564.9132,1564.9198,,,,0,3,3,3,1,145,20,,,,,,,,
,,615db68d9d021708b6e64603,65af56aaa08a0d49e2f07b4c,2024-01-23_08h04.57.593,bars,2023.2.3,Win32,59.88023952,657b66ea316d21385b68909f,,,,,,,,,,,1564.9199,1565.9119,,,1566.4119,1566.6618,,31,211,,,,,,,,,,,,,,,,bars/029.png,bars/mask003.png,,,,,,,,,,,,3,2,,,,,,,1,6,1,6,,,,,,,,,,,1565.912,1566.4119,1566.6618,1569.1116,space,2.4238,,1569.1117,59,14,1570.1114,1570.1114,1570.1143,,,,0,4,4,4,1,90,45,,,,,,,,
,,615db68d9d021708b6e64603,65af56aaa08a0d49e2f07b4c,2024-01-23_08h04.57.593,bars,2023.2.3,Win32,59.88023952,657b66ea316d21385b68909f,,,,,,,,,,,1570.1145,1571.1112,,,1571.6112,1571.8611,,103,103,,,,,,,,,,,,,,,,bars/021.png,bars/mask003.png,,,,,,,,,,,,0,2,,,,,,,3,4,4,4,,,,,,,,,,,1571.1112,1571.6112,1571.8611,1574.6997,space,2.8162,,1574.6997,52,33,1575.694,1575.694,1575.6999,,,,0,5,5,5,1,155,70,,,,,,,,
,,615db68d9d021708b6e64603,65af56aaa08a0d49e2f07b4c,2024-01-23_08h04.57.593,bars,2023.2.3,Win32,59.88023952,657b66ea316d21385b68909f,,,,,,,,,,,1575.7001,1576.6938,,,1577.1938,1577.4437,,177,177,,,,,,,,,,,,,,,,bars/032.png,bars/mask005.png,,,,,,,,,,,,1,2,,,,,,,5,6,4,6,,,,,,,,,,,1576.6938,1577.1938,1577.4438,1580.66,space,3.1883,,1580.66,52,23,1581.6598,1581.6599,1581.6659,,,,0,6,6,6,1,125,20,,,,,,,,
,,615db68d9d021708b6e64603,65af56aaa08a0d49e2f07b4c,2024-01-23_08h04.57.593,bars,2023.2.3,Win32,59.88023952,657b66ea316d21385b68909f,,,,,,,,,,,1581.666,1582.6599,,,1583.1597,1583.4096,,58,58,,,,,,,,,,,,,,,,bars/010.png,bars/mask009.png,,,,,,,,,,,,4,2,,,,,,,7,4,9,4,,,,,,,,,,,1582.6599,1583.1597,1583.4096,1585.9927,space,2.5505,,1585.9927,73,3,1586.9925,1586.9926,1586.9986,,,,0,7,7,7,1,165,55,,,,,,,,
,,615db68d9d021708b6e64603,65af56aaa08a0d49e2f07b4c,2024-01-23_08h04.57.593,bars,2023.2.3,Win32,59.88023952,657b66ea316d21385b68909f,,,,,,,,,,,1586.9988,1587.9923,,,1588.4925,1588.7423,,34,214,,,,,,,,,,,,,,,,bars/017.png,bars/mask008.png,,,,,,,,,,,,4,2,,,,,,,9,6,9,7,,,,,,,,,,,1587.9923,1588.4925,1588.7424,1591.6085,space,2.838,,1591.6087,69,11,1592.6084,1592.6085,1592.6146,,,,0,8,8,8,1,145,45,,,,,,,,
,,615db68d9d021708b6e64603,65af56aaa08a0d49e2f07b4c,2024-01-23_08h04.57.593,bars,2023.2.3,Win32,59.88023952,657b66ea316d21385b68909f,,,,,,,,,,,1592.6148,1593.6142,,,1594.1083,1594.3581,,33,213,,,,,,,,,,,,,,,,bars/030.png,bars/mask000.png,,,,,,,,,,,,0,2,,,,,,,10,4,10,5,,,,,,,,,,,1593.6142,1594.1081,1594.3581,1598.3077,space,3.9205,,1598.3078,73,32,1599.3076,1599.3076,1599.3134,,,,0,9,9,9,1,140,65,,,,,,,,
,,615db68d9d021708b6e64603,65af56aaa08a0d49e2f07b4c,2024-01-23_08h04.57.593,bars,2023.2.3,Win32,59.88023952,657b66ea316d21385b68909f,,,,,,,,,,,1599.3136,1600.3074,,,1600.8076,1601.0573,,35,215,,,,,,,,,,,,,,,,bars/031.png,bars/mask002.png,,,,,,,,,,,,3,2,,,,,,,8,2,9,3,,,,,,,,,,,1600.3074,1600.8075,1601.0573,1603.907,space,2.8176,,1603.907,85,0,1604.9067,1604.9067,1604.9126,,,,0,10,10,10,1,120,35,,,,,,,,
,,615db68d9d021708b6e64603,65af56aaa08a0d49e2f07b4c,2024-01-23_08h04.57.593,bars,2023.2.3,Win32,59.88023952,657b66ea316d21385b68909f,,,,,,,,,,,1604.9128,1605.9067,,,1606.3958,1606.64,,46,46,,,,,,,,,,,,,,,,bars/012.png,bars/mask007.png,,,,,,,,,,,,0,2,,,,,,,6,4,6,5,,,,,,,,,,,1605.9068,1606.3958,1606.6401,1617.2267,space,10.5652,,1617.2267,44,31,1618.2216,1618.2216,1618.2284,,,,0,11,11,11,1,90,15,,,,,,,,
,,615db68d9d021708b6e64603,65af56aaa08a0d49e2f07b4c,2024-01-23_08h04.57.593,bars,2023.2.3,Win32,59.88023952,657b66ea316d21385b68909f,,,,,,,,,,,1618.2286,1619.2215,,,1619.7214,1619.9714,,142,142,,,,,,,,,,,,,,,,bars/011.png,bars/mask000.png,,,,,,,,,,,,3,1,,,,,,,8,6,8,5,,,,,,,,,,,1619.2216,1619.7214,1619.9714,1620.9714,space,0.9717,,1620.9715,18,57,1621.9712,1621.9712,1621.9742,,,,0,12,12,12,1,160,85,,,,,,,,
,,615db68d9d021708b6e64603,65af56aaa08a0d49e2f07b4c,2024-01-23_08h04.57.593,bars,2023.2.3,Win32,59.88023952,657b66ea316d21385b68909f,,,,,,,,,,,1621.9743,1622.9711,,,1623.471,1623.7209,,64,64,,,,,,,,,,,,,,,,bars/002.png,bars/mask006.png,,,,,,,,,,,,1,2,,,,,,,6,4,5,4,,,,,,,,,,,1622.9711,1623.4709,1623.721,1629.5537,space,5.8157,,1629.5538,66,21,1630.5425,1630.5425,1630.5482,,,,0,13,13,13,1,130,85,,,,,,,,
,,615db68d9d021708b6e64603,65af56aaa08a0d49e2f07b4c,2024-01-23_08h04.57.593,bars,2023.2.3,Win32,59.88023952,657b66ea316d21385b68909f,,,,,,,,,,,1630.5483,1631.5366,,,1632.0365,1632.2867,,106,106,,,,,,,,,,,,,,,,bars/045.png,bars/mask004.png,,,,,,,,,,,,6,1,,,,,,,8,6,7,5,,,,,,,,,,,1631.5366,1632.0365,1632.2867,1634.2587,space,1.9504,,1634.2587,6,84,1635.2527,1635.2528,1635.2593,,,,0,14,14,14,1,100,10,,,,,,,,
,,615db68d9d021708b6e64603,65af56aaa08a0d49e2f07b4c,2024-01-23_08h04.57.593,bars,2023.2.3,Win32,59.88023952,657b66ea316d21385b68909f,,,,,,,,,,,1635.2593,1636.2526,,,1636.7526,1637.0026,,64,64,,,,,,,,,,,,,,,,bars/041.png,bars/mask008.png,,,,,,,,,,,,3,2,,,,,,,6,8,6,9,,,,,,,,,,,1636.2527,1636.7526,1637.0026,1639.4356,space,2.4246,,1639.4356,44,21,1640.4354,1640.4355,1640.4418,,,,0,15,15,15,1,20,85,,,,,,,,
,,615db68d9d021708b6e64603,65af56aaa08a0d49e2f07b4c,2024-01-23_08h04.57.593,bars,2023.2.3,Win32,59.88023952,657b66ea316d21385b68909f,,,,,,,,,,,1640.4419,1641.4352,,,1641.9352,1642.1852,,76,76,,,,,,,,,,,,,,,,bars/038.png,bars/mask006.png,,,,,,,,,,,,8,2,,,,,,,8,10,9,10,,,,,,,,,,,1641.4352,1641.9352,1642.1853,1644.1521,space,1.9337,,1644.1522,89,6,1645.1514,1645.1514,1645.1573,,,,0,16,16,16,1,165,70,,,,,,,,
,,615db68d9d021708b6e64603,65af56aaa08a0d49e2f07b4c,2024-01-23_08h04.57.593,bars,2023.2.3,Win32,59.88023952,657b66ea316d21385b68909f,,,,,,,,,,,1645.1575,1646.1513,,,1646.6512,1646.9044,,178,-2,,,,,,,,,,,,,,,,bars/012.png,bars/mask001.png,,,,,,,,,,,,3,2,,,,,,,6,10,5,8,,,,,,,,,,,1646.1513,1646.6512,1646.9045,1649.2509,space,2.3238,,1649.2509,88,17,1650.2509,1650.2509,1650.2526,,,,0,17,17,17,1,90,15,,,,,,,,
,,615db68d9d021708b6e64603,65af56aaa08a0d49e2f07b4c,2024-01-23_08h04.57.593,bars,2023.2.3,Win32,59.88023952,657b66ea316d21385b68909f,,,,,,,,,,,1650.2531,1651.2506,,,1651.7506,1652.0005,,151,-29,,,,,,,,,,,,,,,,bars/015.png,bars/mask009.png,,,,,,,,,,,,7,2,,,,,,,4,10,4,10,,,,,,,,,,,1651.2506,1651.7505,1652.0005,1655.0835,space,3.0594,,1655.0835,41,9,1656.0833,1656.0833,1656.0897,,,,0,18,18,18,1,110,160,,,,,,,,
,,615db68d9d021708b6e64603,65af56aaa08a0d49e2f07b4c,2024-01-23_08h04.57.593,bars,2023.2.3,Win32,59.88023952,657b66ea316d21385b68909f,,,,,,,,,,,1656.0898,1657.0833,,,1657.5831,1657.8331,,119,119,,,,,,,,,,,,,,,,bars/004.png,bars/mask007.png,,,,,,,,,,,,6,2,,,,,,,6,8,6,8,,,,,,,,,,,1657.0833,1657.5831,1657.8331,1659.5221,space,1.6665,,1659.5221,86,6,1660.5161,1660.5161,1660.5219,,,,0,19,19,19,1,25,125,,,,,,,,
,,615db68d9d021708b6e64603,65af56aaa08a0d49e2f07b4c,2024-01-23_08h04.57.593,bars,2023.2.3,Win32,59.88023952,657b66ea316d21385b68909f,,,,,,,,,,,1660.5221,1661.516,,,1662.0161,1662.2659,,21,21,,,,,,,,,,,,,,,,bars/032.png,bars/mask002.png,,,,,,,,,,,,6,2,,,,,,,4,6,4,6,,,,,,,,,,,1661.516,1662.016,1662.2659,1663.7546,space,1.4667,,1663.7546,76,1,1664.7547,1664.7547,1664.7595,,,,0,20,20,20,1,125,20,,,,,,,,
,,615db68d9d021708b6e64603,65af56aaa08a0d49e2f07b4c,2024-01-23_08h04.57.593,bars,2023.2.3,Win32,59.88023952,657b66ea316d21385b68909f,,,,,,,,,,,1664.7597,1665.7487,,,1666.2486,1666.4986,,86,86,,,,,,,,,,,,,,,,bars/045.png,bars/mask009.png,,,,,,,,,,,,2,1,,,,,,,2,8,3,8,,,,,,,,,,,1665.7488,1666.2486,1666.4986,1677.8865,space,11.3661,,1677.8866,14,76,1678.8803,1678.8803,1678.8877,,,,0,21,21,21,1,100,10,,,,,,,,
,,615db68d9d021708b6e64603,65af56aaa08a0d49e2f07b4c,2024-01-23_08h04.57.593,bars,2023.2.3,Win32,59.88023952,657b66ea316d21385b68909f,,,,,,,,,,,1678.8879,1679.8801,,,1680.3802,1680.63,,42,222,,,,,,,,,,,,,,,,bars/007.png,bars/mask000.png,,,,,,,,,,,,5,2,,,,,,,4,6,5,8,,,,,,,,,,,1679.8801,1680.3801,1680.63,1687.0132,space,6.3665,,1687.0133,47,13,1688.0126,1688.0128,1688.0201,,,,0,22,22,22,1,175,55,,,,,,,,
,,615db68d9d021708b6e64603,65af56aaa08a0d49e2f07b4c,2024-01-23_08h04.57.593,bars,2023.2.3,Win32,59.88023952,657b66ea316d21385b68909f,,,,,,,,,,,1688.0203,1689.0124,,,1689.5125,1689.7624,,5,5,,,,,,,,,,,,,,,,bars/023.png,bars/mask001.png,,,,,,,,,,,,2,1,,,,,,,6,8,4,9,,,,,,,,,,,1689.0124,1689.5125,1689.7624,1690.9288,space,1.15,,1690.9288,15,70,1691.9291,1691.9292,1691.9321,,,,0,23,23,23,1,20,115,,,,,,,,
,,615db68d9d021708b6e64603,65af56aaa08a0d49e2f07b4c,2024-01-23_08h04.57.593,bars,2023.2.3,Win32,59.88023952,657b66ea316d21385b68909f,,,,,,,,,,,1691.9322,1692.9284,,,1693.4284,1693.6783,,121,121,,,,,,,,,,,,,,,,bars/025.png,bars/mask001.png,,,,,,,,,,,,4,1,,,,,,,8,6,8,8,,,,,,,,,,,1692.9284,1693.4284,1693.6783,1695.3673,space,1.6669,,1695.3673,16,81,1696.3614,1696.3616,1696.3636,,,,0,24,24,24,1,105,40,,,,,,,,
,,615db68d9d021708b6e64603,65af56aaa08a0d49e2f07b4c,2024-01-23_08h04.57.593,bars,2023.2.3,Win32,59.88023952,657b66ea316d21385b68909f,,,,,,,,,,,1696.3638,1697.3612,,,1697.8611,1698.1111,,40,40,,,,,,,,,,,,,,,,bars/035.png,bars/mask000.png,,,,,,,,,,,,3,2,,,,,,,6,8,7,8,,,,,,,,,,,1697.3612,1697.8611,1698.1111,1699.0328,space,0.8994,,1699.0328,45,20,1700.0275,1700.0275,1700.0302,,,,0,25,25,25,1,175,60,,,,,,,,
,,615db68d9d021708b6e64603,65af56aaa08a0d49e2f07b4c,2024-01-23_08h04.57.593,bars,2023.2.3,Win32,59.88023952,657b66ea316d21385b68909f,,,,,,,,,,,1700.0303,1701.0273,,,1701.5274,1701.7773,,48,48,,,,,,,,,,,,,,,,bars/012.png,bars/mask001.png,,,,,,,,,,,,0,2,,,,,,,4,6,5,5,,,,,,,,,,,1701.0273,1701.5274,1701.7773,1703.9492,space,2.1493,,1703.9492,42,33,1704.9435,1704.9436,1704.9443,,,,0,26,26,26,1,90,15,,,,,,,,
,,615db68d9d021708b6e64603,65af56aaa08a0d49e2f07b4c,2024-01-23_08h04.57.593,bars,2023.2.3,Win32,59.88023952,657b66ea316d21385b68909f,,,,,,,,,,,1704.9448,1705.9434,,,1706.4433,1706.6933,,104,104,,,,,,,,,,,,,,,,bars/017.png,bars/mask007.png,,,,,,,,,,,,0,1,,,,,,,6,4,6,3,,,,,,,,,,,1705.9434,1706.4433,1706.6933,1707.5988,space,0.8831,,1707.5988,41,59,1708.5931,1708.5931,1708.5961,,,,0,27,27,27,1,145,45,,,,,,,,
,,615db68d9d021708b6e64603,65af56aaa08a0d49e2f07b4c,2024-01-23_08h04.57.593,bars,2023.2.3,Win32,59.88023952,657b66ea316d21385b68909f,,,,,,,,,,,1708.5962,1709.5983,,,1710.0929,1710.3428,,46,46,,,,,,,,,,,,,,,,bars/001.png,bars/mask005.png,,,,,,,,,,,,0,2,,,,,,,8,2,6,2,,,,,,,,,,,1709.5984,1710.0928,1710.3429,1726.3077,space,15.934,,1726.3078,84,39,1727.3072,1727.3072,1727.3149,,,,0,28,28,28,1,130,85,,,,,,,,
,,615db68d9d021708b6e64603,65af56aaa08a0d49e2f07b4c,2024-01-23_08h04.57.593,bars,2023.2.3,Win32,59.88023952,657b66ea316d21385b68909f,,,,,,,,,,,1727.3151,1728.3074,,,1728.8074,1729.0572,,166,-14,,,,,,,,,,,,,,,,bars/015.png,bars/mask004.png,,,,,,,,,,,,0,2,,,,,,,6,0,7,0,,,,,,,,,,,1728.3074,1728.8073,1729.0573,1739.2895,space,10.1997,,1739.2896,56,6,1740.2889,1740.2889,1740.2951,,,,0,29,29,29,1,110,160,,,,,,,,
,,615db68d9d021708b6e64603,65af56aaa08a0d49e2f07b4c,2024-01-23_08h04.57.593,bars,2023.2.3,Win32,59.88023952,657b66ea316d21385b68909f,,,,,,,,,,,1740.2952,1741.2886,,,1741.7886,1742.0387,,88,88,,,,,,,,,,,,,,,,bars/004.png,bars/mask009.png,,,,,,,,,,,,0,2,,,,,,,8,0,9,0,,,,,,,,,,,1741.2886,1741.7886,1742.0387,1756.8879,space,14.8153,,1756.8881,63,37,1757.8865,1757.8865,1757.8931,,,,0,30,30,30,1,25,125,,,,,,,,
,,615db68d9d021708b6e64603,65af56aaa08a0d49e2f07b4c,2024-01-23_08h04.57.593,bars,2023.2.3,Win32,59.88023952,657b66ea316d21385b68909f,,,,,,,,,,,1757.8931,1758.8865,,,1759.3865,1759.6252,,146,146,,,,,,,,,,,,,,,,bars/043.png,bars/mask003.png,,,,,,,,,,,,1,2,,,,,,,10,0,10,2,,,,,,,,,,,1758.8865,1759.3864,1759.6253,1761.8361,space,2.1839,,1761.8361,64,16,1762.8358,1762.8358,1762.842,,,,0,31,31,31,1,30,130,,,,,,,,
,,615db68d9d021708b6e64603,65af56aaa08a0d49e2f07b4c,2024-01-23_08h04.57.593,bars,2023.2.3,Win32,59.88023952,657b66ea316d21385b68909f,,,,,,,,,,,1762.8421,1763.8358,,,1764.3249,1764.5694,,114,114,,,,,,,,,,,,,,,,bars/044.png,bars/mask002.png,,,,,,,,,,,,0,1,,,,,,,10,0,9,0,,,,,,,,,,,1763.8358,1764.3248,1764.5695,1765.4413,space,0.8499,,1765.4414,39,41,1766.4354,1766.4354,1766.4384,,,,0,32,32,32,1,75,155,,,,,,,,
,,615db68d9d021708b6e64603,65af56aaa08a0d49e2f07b4c,2024-01-23_08h04.57.593,bars,2023.2.3,Win32,59.88023952,657b66ea316d21385b68909f,,,,,,,,,,,1766.4385,1767.4352,,,1767.9354,1768.1902,,52,52,,,,,,,,,,,,,,,,bars/020.png,bars/mask000.png,,,,,,,,,,,,0,2,,,,,,,10,0,10,1,,,,,,,,,,,1767.4353,1767.9353,1768.1903,1769.4684,space,1.2676,,1769.4685,63,62,1770.4574,1770.4574,1770.4584,,,,0,33,33,33,1,115,170,,,,,,,,
,,615db68d9d021708b6e64603,65af56aaa08a0d49e2f07b4c,2024-01-23_08h04.57.593,bars,2023.2.3,Win32,59.88023952,657b66ea316d21385b68909f,,,,,,,,,,,1770.4585,1771.4514,,,1771.9513,1772.1902,,117,117,,,,,,,,,,,,,,,,bars/000.png,bars/mask005.png,,,,,,,,,,,,0,2,,,,,,,8,2,9,2,,,,,,,,,,,1771.4514,1771.9513,1772.1903,1774.6234,space,2.4167,,1774.6234,77,28,1775.6175,1775.6175,1775.618,,,,0,34,34,34,1,40,145,,,,,,,,
,,615db68d9d021708b6e64603,65af56aaa08a0d49e2f07b4c,2024-01-23_08h04.57.593,bars,2023.2.3,Win32,59.88023952,657b66ea316d21385b68909f,,,,,,,,,,,1775.6185,1776.6174,,,1777.1174,1777.3673,,45,45,,,,,,,,,,,,,,,,bars/045.png,bars/mask002.png,,,,,,,,,,,,0,2,,,,,,,10,4,10,5,,,,,,,,,,,1776.6174,1777.1174,1777.3674,1779.6728,space,2.2831,,1779.6728,55,35,1780.6669,1780.6669,1780.673,,,,0,35,35,35,1,100,10,,,,,,,,
,,615db68d9d021708b6e64603,65af56aaa08a0d49e2f07b4c,2024-01-23_08h04.57.593,bars,2023.2.3,Win32,59.88023952,657b66ea316d21385b68909f,,,,,,,,,,,1780.6731,1781.6666,,,1782.1668,1782.4166,,21,21,,,,,,,,,,,,,,,,bars/011.png,bars/mask004.png,,,,,,,,,,,,0,1,,,,,,,8,6,7,5,,,,,,,,,,,1781.6667,1782.1667,1782.4166,1794.4325,space,11.9851,,1794.4327,41,64,1795.4315,1795.4315,1795.439,,,,0,36,36,36,1,160,85,,,,,,,,
,,615db68d9d021708b6e64603,65af56aaa08a0d49e2f07b4c,2024-01-23_08h04.57.593,bars,2023.2.3,Win32,59.88023952,657b66ea316d21385b68909f,,,,,,,,,,,1795.4391,1796.4314,,,1796.9314,1797.1846,,47,47,,,,,,,,,,,,,,,,bars/034.png,bars/mask006.png,,,,,,,,,,,,4,2,,,,,,,6,8,7,9,,,,,,,,,,,1796.4314,1796.9314,1797.1846,1811.863,space,14.6573,,1811.8631,78,18,1812.8625,1812.8626,1812.8702,,,,0,37,37,37,1,125,65,,,,,,,,
,,615db68d9d021708b6e64603,65af56aaa08a0d49e2f07b4c,2024-01-23_08h04.57.593,bars,2023.2.3,Win32,59.88023952,657b66ea316d21385b68909f,,,,,,,,,,,1812.8703,1813.8624,,,1814.3627,1814.6123,,144,144,,,,,,,,,,,,,,,,bars/025.png,bars/mask000.png,,,,,,,,,,,,0,1,,,,,,,8,6,8,7,,,,,,,,,,,1813.8624,1814.3626,1814.6124,1825.5776,space,10.9382,,1825.5777,39,76,1826.5774,1826.5775,1826.5847,,,,0,38,38,38,1,105,40,,,,,,,,
,,615db68d9d021708b6e64603,65af56aaa08a0d49e2f07b4c,2024-01-23_08h04.57.593,bars,2023.2.3,Win32,59.88023952,657b66ea316d21385b68909f,,,,,,,,,,,1826.5847,1827.5773,,,1828.0772,1828.3272,,171,171,,,,,,,,,,,,,,,,bars/012.png,bars/mask005.png,,,,,,,,,,,,1,2,,,,,,,10,4,9,3,,,,,,,,,,,1827.5773,1828.0772,1828.3272,1840.4756,space,12.1366,,1840.4757,81,24,1841.4754,1841.4755,1841.4822,,,,0,39,39,39,1,90,15,,,,,,,,
,,615db68d9d021708b6e64603,65af56aaa08a0d49e2f07b4c,2024-01-23_08h04.57.593,bars,2023.2.3,Win32,59.88023952,657b66ea316d21385b68909f,,,,,,,,,,,1841.4823,1842.4753,,,1842.9752,1843.2252,,122,122,,,,,,,,,,,,,,,,bars/038.png,bars/mask002.png,,,,,,,,,,,,0,1,,,,,,,10,2,10,3,,,,,,,,,,,1842.4753,1842.9752,1843.2253,1844.5251,space,1.2724,,1844.5252,43,52,1845.525,1845.525,1845.5316,,,,0,40,40,40,1,165,70,,,,,,,,
,,615db68d9d021708b6e64603,65af56aaa08a0d49e2f07b4c,2024-01-23_08h04.57.593,bars,2023.2.3,Win32,59.88023952,657b66ea316d21385b68909f,,,,,,,,,,,1845.5317,1846.5248,,,1847.0249,1847.2747,,113,113,,,,,,,,,,,,,,,,bars/028.png,bars/mask003.png,,,,,,,,,,,,0,2,,,,,,,10,0,10,0,,,,,,,,,,,1846.5248,1847.0248,1847.2747,1851.3408,space,4.037,,1851.3408,68,7,1852.3406,1852.3406,1852.347,,,,0,41,41,41,1,45,120,,,,,,,,
,,615db68d9d021708b6e64603,65af56aaa08a0d49e2f07b4c,2024-01-23_08h04.57.593,bars,2023.2.3,Win32,59.88023952,657b66ea316d21385b68909f,,,,,,,,,,,1852.3471,1853.341,,,1853.8405,1854.0904,,7,187,,,,,,,,,,,,,,,,bars/014.png,bars/mask004.png,,,,,,,,,,,,2,2,,,,,,,10,2,10,2,,,,,,,,,,,1853.341,1853.8405,1854.0905,1855.8126,space,1.6998,,1855.8126,73,7,1856.8067,1856.8068,1856.8084,,,,0,42,42,42,1,80,0,,,,,,,,
,,615db68d9d021708b6e64603,65af56aaa08a0d49e2f07b4c,2024-01-23_08h04.57.593,bars,2023.2.3,Win32,59.88023952,657b66ea316d21385b68909f,,,,,,,,,,,1856.8089,1857.8066,,,1858.3066,1858.5569,,42,42,,,,,,,,,,,,,,,,bars/017.png,bars/mask008.png,,,,,,,,,,,,0,2,,,,,,,8,0,8,0,,,,,,,,,,,1857.8066,1858.3065,1858.5569,1859.7898,space,1.2214,,1859.7899,77,3,1860.7895,1860.7895,1860.7924,,,,0,43,43,43,1,145,45,,,,,,,,
,,615db68d9d021708b6e64603,65af56aaa08a0d49e2f07b4c,2024-01-23_08h04.57.593,bars,2023.2.3,Win32,59.88023952,657b66ea316d21385b68909f,,,,,,,,,,,1860.7926,1861.7894,,,1862.2895,1862.5396,,43,43,,,,,,,,,,,,,,,,bars/031.png,bars/mask008.png,,,,,,,,,,,,0,2,,,,,,,6,0,6,0,,,,,,,,,,,1861.7894,1862.2894,1862.5397,1863.8225,space,1.2597,,1863.8225,77,8,1864.8223,1864.8224,1864.823,,,,0,44,44,44,1,120,35,,,,,,,,
,,615db68d9d021708b6e64603,65af56aaa08a0d49e2f07b4c,2024-01-23_08h04.57.593,bars,2023.2.3,Win32,59.88023952,657b66ea316d21385b68909f,,,,,,,,,,,1864.8234,1865.8222,,,1866.3223,1866.5723,,177,-3,,,,,,,,,,,,,,,,bars/032.png,bars/mask001.png,,,,,,,,,,,,0,2,,,,,,,4,0,4,0,,,,,,,,,,,1865.8222,1866.3222,1866.5724,1868.1273,space,1.5341,,1868.1273,52,23,1869.122,1869.1222,1869.1242,,,,0,45,45,45,1,125,20,,,,,,,,
,,615db68d9d021708b6e64603,65af56aaa08a0d49e2f07b4c,2024-01-23_08h04.57.593,bars,2023.2.3,Win32,59.88023952,657b66ea316d21385b68909f,,,,,,,,,,,1869.1245,1870.1216,,,1870.6101,1870.8549,,164,-16,,,,,,,,,,,,,,,,bars/040.png,bars/mask000.png,,,,,,,,,,,,1,2,,,,,,,6,2,4,2,,,,,,,,,,,1870.1216,1870.6101,1870.8549,1876.61,space,5.7493,,1876.61,24,21,1877.6041,1877.6041,1877.6102,,,,0,46,46,46,1,140,5,,,,,,,,
,,615db68d9d021708b6e64603,65af56aaa08a0d49e2f07b4c,2024-01-23_08h04.57.593,bars,2023.2.3,Win32,59.88023952,657b66ea316d21385b68909f,,,,,,,,,,,1877.6104,1878.6038,,,1879.1039,1879.3537,,35,35,,,,,,,,,,,,,,,,bars/027.png,bars/mask008.png,,,,,,,,,,,,2,2,,,,,,,4,4,4,4,,,,,,,,,,,1878.6038,1879.1039,1879.3538,1881.2869,space,1.9089,,1881.287,75,15,1882.2867,1882.2867,1882.2932,,,,0,47,47,47,1,110,50,,,,,,,,
,,615db68d9d021708b6e64603,65af56aaa08a0d49e2f07b4c,2024-01-23_08h04.57.593,bars,2023.2.3,Win32,59.88023952,657b66ea316d21385b68909f,,,,,,,,,,,1882.2933,1883.2869,,,1883.7869,1884.0366,,59,59,,,,,,,,,,,,,,,,bars/031.png,bars/mask001.png,,,,,,,,,,,,1,2,,,,,,,6,6,7,5,,,,,,,,,,,1883.2869,1883.7868,1884.0366,1887.5361,space,3.4713,,1887.5363,61,24,1888.5359,1888.5359,1888.5418,,,,0,48,48,48,1,120,35,,,,,,,,
,,615db68d9d021708b6e64603,65af56aaa08a0d49e2f07b4c,2024-01-23_08h04.57.593,bars,2023.2.3,Win32,59.88023952,657b66ea316d21385b68909f,,,,,,,,,,,1888.5418,1889.5358,,,1890.0357,1890.2857,,62,62,,,,,,,,,,,,,,,,bars/016.png,bars/mask000.png,,,,,,,,,,,,2,1,,,,,,,8,8,9,8,,,,,,,,,,,1889.5358,1890.0357,1890.2858,1912.783,space,22.464,,1912.783,22,77,1913.7826,1913.7827,1913.7903,,,,0,49,49,49,1,40,165,,,,,,,,
,,615db68d9d021708b6e64603,65af56aaa08a0d49e2f07b4c,2024-01-23_08h04.57.593,bars,2023.2.3,Win32,59.88023952,657b66ea316d21385b68909f,,,,,,,,,,,,,,,,,,,,,,,,,,,,,,,,,,,,,,,,,,,,,,,,,,,,,,,,,,,,,,,,,,,,,,,,,,,,,,,,,,,,,,,,,,,,,1913.7904,1973.7914,0,2,2,2,1,sequence_tables/blk034.csv
,,615db68d9d021708b6e64603,65af56aaa08a0d49e2f07b4c,2024-01-23_08h04.57.593,bars,2023.2.3,Win32,59.88023952,657b66ea316d21385b68909f,,,,,,,,,,,2086.4857,2087.4763,,,2087.9769,2088.2261,,59,59,,,,,,,,,,,,,,,,bars/010.png,bars/mask007.png,,,,,,,,,,,,9,2,,,,,,,9,9,7,10,,,,,,1973.7979,2086.4766,space,112.6599,,2087.4763,2087.9769,2088.2261,2090.0092,space,1.7588,,2090.0093,74,4,2091.0127,2091.0127,2091.0183,,,,0,0,0,0,1,165,55,,,,,,,,
,,615db68d9d021708b6e64603,65af56aaa08a0d49e2f07b4c,2024-01-23_08h04.57.593,bars,2023.2.3,Win32,59.88023952,657b66ea316d21385b68909f,,,,,,,,,,,2091.0184,2092.0089,,,2092.5089,2092.7588,,167,-13,,,,,,,,,,,,,,,,bars/033.png,bars/mask007.png,,,,,,,,,,,,6,2,,,,,,,7,10,7,10,,,,,,,,,,,2092.0091,2092.5089,2092.7588,2095.5781,space,2.797,,2095.5781,38,12,2096.575,2096.575,2096.5811,,,,0,1,1,1,1,25,155,,,,,,,,
,,615db68d9d021708b6e64603,65af56aaa08a0d49e2f07b4c,2024-01-23_08h04.57.593,bars,2023.2.3,Win32,59.88023952,657b66ea316d21385b68909f,,,,,,,,,,,2096.5812,2097.5749,,,2098.08,2098.3247,,83,83,,,,,,,,,,,,,,,,bars/032.png,bars/mask006.png,,,,,,,,,,,,0,1,,,,,,,9,8,9,8,,,,,,,,,,,2097.5749,2098.08,2098.3248,2102.2077,space,3.8562,,2102.2077,42,63,2103.2077,2103.2078,2103.2144,,,,0,2,2,2,1,125,20,,,,,,,,
,,615db68d9d021708b6e64603,65af56aaa08a0d49e2f07b4c,2024-01-23_08h04.57.593,bars,2023.2.3,Win32,59.88023952,657b66ea316d21385b68909f,,,,,,,,,,,2103.2145,2104.2073,,,2104.7078,2104.9572,,71,71,,,,,,,,,,,,,,,,bars/035.png,bars/mask000.png,,,,,,,,,,,,4,2,,,,,,,10,6,8,7,,,,,,,,,,,2104.2074,2104.7077,2104.9573,2109.3237,space,4.3496,,2109.3238,76,11,2110.3288,2110.3289,2110.3344,,,,0,3,3,3,1,175,60,,,,,,,,
,,615db68d9d021708b6e64603,65af56aaa08a0d49e2f07b4c,2024-01-23_08h04.57.593,bars,2023.2.3,Win32,59.88023952,657b66ea316d21385b68909f,,,,,,,,,,,2110.3344,2111.323,,,2111.8231,2112.073,,59,59,,,,,,,,,,,,,,,,bars/044.png,bars/mask003.png,,,,,,,,,,,,4,1,,,,,,,10,4,9,4,,,,,,,,,,,2111.323,2111.8231,2112.073,2117.0061,space,4.9002,,2117.0061,16,84,2118.0056,2118.0056,2118.0124,,,,0,4,4,4,1,75,155,,,,,,,,
,,615db68d9d021708b6e64603,65af56aaa08a0d49e2f07b4c,2024-01-23_08h04.57.593,bars,2023.2.3,Win32,59.88023952,657b66ea316d21385b68909f,,,,,,,,,,,2118.0125,2119.0053,,,2119.5055,2119.7552,,67,67,,,,,,,,,,,,,,,,bars/041.png,bars/mask004.png,,,,,,,,,,,,1,2,,,,,,,8,2,8,3,,,,,,,,,,,2119.0054,2119.5054,2119.7554,2123.5383,space,3.7507,,2123.5383,47,18,2124.538,2124.538,2124.5446,,,,0,5,5,5,1,20,85,,,,,,,,
,,615db68d9d021708b6e64603,65af56aaa08a0d49e2f07b4c,2024-01-23_08h04.57.593,bars,2023.2.3,Win32,59.88023952,657b66ea316d21385b68909f,,,,,,,,,,,2124.5448,2125.5378,,,2126.0438,2126.2878,,109,109,,,,,,,,,,,,,,,,bars/011.png,bars/mask007.png,,,,,,,,,,,,1,2,,,,,,,6,4,6,4,,,,,,,,,,,2125.5378,2126.0438,2126.2879,2128.1407,space,1.8308,,2128.1407,51,24,2129.1375,2129.1375,2129.1434,,,,0,6,6,6,1,160,85,,,,,,,,
,,615db68d9d021708b6e64603,65af56aaa08a0d49e2f07b4c,2024-01-23_08h04.57.593,bars,2023.2.3,Win32,59.88023952,657b66ea316d21385b68909f,,,,,,,,,,,2129.1435,2130.1377,,,2130.6372,2130.8875,,169,169,,,,,,,,,,,,,,,,bars/048.png,bars/mask000.png,,,,,,,,,,,,5,2,,,,,,,8,6,9,6,,,,,,,,,,,2130.1377,2130.6372,2130.8876,2137.7912,space,6.8817,,2137.7913,61,6,2138.7861,2138.7861,2138.7928,,,,0,7,7,7,1,50,175,,,,,,,,
,,615db68d9d021708b6e64603,65af56aaa08a0d49e2f07b4c,2024-01-23_08h04.57.593,bars,2023.2.3,Win32,59.88023952,657b66ea316d21385b68909f,,,,,,,,,,,2138.7929,2139.7859,,,2140.2753,2140.5191,,66,66,,,,,,,,,,,,,,,,bars/034.png,bars/mask005.png,,,,,,,,,,,,8,2,,,,,,,10,8,10,8,,,,,,,,,,,2139.786,2140.2753,2140.5191,2144.319,space,3.7721,,2144.319,59,1,2145.3185,2145.3185,2145.3246,,,,0,8,8,8,1,125,65,,,,,,,,
,,615db68d9d021708b6e64603,65af56aaa08a0d49e2f07b4c,2024-01-23_08h04.57.593,bars,2023.2.3,Win32,59.88023952,657b66ea316d21385b68909f,,,,,,,,,,,2145.3247,2146.3229,,,2146.8183,2147.0684,,59,59,,,,,,,,,,,,,,,,bars/007.png,bars/mask003.png,,,,,,,,,,,,9,2,,,,,,,8,10,6,10,,,,,,,,,,,2146.3229,2146.8183,2147.0684,2150.5238,space,3.4338,,2150.5238,64,4,2151.518,2151.5181,2151.5243,,,,0,9,9,9,1,175,55,,,,,,,,
,,615db68d9d021708b6e64603,65af56aaa08a0d49e2f07b4c,2024-01-23_08h04.57.593,bars,2023.2.3,Win32,59.88023952,657b66ea316d21385b68909f,,,,,,,,,,,2151.5244,2152.5208,,,2153.0175,2153.2674,,106,106,,,,,,,,,,,,,,,,bars/019.png,bars/mask006.png,,,,,,,,,,,,10,2,,,,,,,10,10,10,10,,,,,,,,,,,2152.5208,2153.0175,2153.2674,2156.7338,space,3.4366,,2156.7339,61,1,2157.7336,2157.7337,2157.7396,,,,0,10,10,10,1,45,105,,,,,,,,
,,615db68d9d021708b6e64603,65af56aaa08a0d49e2f07b4c,2024-01-23_08h04.57.593,bars,2023.2.3,Win32,59.88023952,657b66ea316d21385b68909f,,,,,,,,,,,2157.7398,2158.7334,,,2159.2334,2159.4833,,160,-20,,,,,,,,,,,,,,,,bars/014.png,bars/mask002.png,,,,,,,,,,,,3,2,,,,,,,8,10,9,10,,,,,,,,,,,2158.7335,2159.2334,2159.4833,2162.2496,space,2.7351,,2162.2497,80,20,2163.2495,2163.2496,2163.2556,,,,0,11,11,11,1,80,0,,,,,,,,
,,615db68d9d021708b6e64603,65af56aaa08a0d49e2f07b4c,2024-01-23_08h04.57.593,bars,2023.2.3,Win32,59.88023952,657b66ea316d21385b68909f,,,,,,,,,,,2163.2558,2164.2494,,,2164.7494,2164.9993,,54,54,,,,,,,,,,,,,,,,bars/046.png,bars/mask008.png,,,,,,,,,,,,0,2,,,,,,,10,8,8,7,,,,,,,,,,,2164.2494,2164.7494,2164.9993,2166.8658,space,1.8399,,2166.8659,79,31,2167.8658,2167.8658,2167.8719,,,,0,12,12,12,1,155,85,,,,,,,,
,,615db68d9d021708b6e64603,65af56aaa08a0d49e2f07b4c,2024-01-23_08h04.57.593,bars,2023.2.3,Win32,59.88023952,657b66ea316d21385b68909f,,,,,,,,,,,2167.872,2168.8654,,,2169.3654,2169.6153,,122,122,,,,,,,,,,,,,,,,bars/044.png,bars/mask000.png,,,,,,,,,,,,0,2,,,,,,,10,6,10,6,,,,,,,,,,,2168.8655,2169.3654,2169.6153,2179.1142,space,9.4757,,2179.1143,47,33,2180.1139,2180.1139,2180.1202,,,,0,13,13,13,1,75,155,,,,,,,,
,,615db68d9d021708b6e64603,65af56aaa08a0d49e2f07b4c,2024-01-23_08h04.57.593,bars,2023.2.3,Win32,59.88023952,657b66ea316d21385b68909f,,,,,,,,,,,2180.1203,2181.1138,,,2181.6141,2181.8639,,106,106,,,,,,,,,,,,,,,,bars/009.png,bars/mask008.png,,,,,,,,,,,,4,2,,,,,,,8,4,9,4,,,,,,,,,,,2181.1138,2181.6139,2181.864,2183.3193,space,1.4335,,2183.3193,89,1,2184.3135,2184.3136,2184.3198,,,,0,14,14,14,1,15,105,,,,,,,,
,,615db68d9d021708b6e64603,65af56aaa08a0d49e2f07b4c,2024-01-23_08h04.57.593,bars,2023.2.3,Win32,59.88023952,657b66ea316d21385b68909f,,,,,,,,,,,2184.3199,2185.3134,,,2185.8132,2186.0525,,80,80,,,,,,,,,,,,,,,,bars/001.png,bars/mask008.png,,,,,,,,,,,,2,2,,,,,,,10,2,10,2,,,,,,,,,,,2185.3134,2185.8132,2186.0525,2188.6522,space,2.5962,,2188.6523,50,5,2189.6461,2189.6461,2189.6521,,,,0,15,15,15,1,130,85,,,,,,,,
,,615db68d9d021708b6e64603,65af56aaa08a0d49e2f07b4c,2024-01-23_08h04.57.593,bars,2023.2.3,Win32,59.88023952,657b66ea316d21385b68909f,,,,,,,,,,,2189.6522,2190.6458,,,2191.1461,2191.3958,,123,123,,,,,,,,,,,,,,,,bars/019.png,bars/mask005.png,,,,,,,,,,,,0,2,,,,,,,8,0,9,1,,,,,,,,,,,2190.6459,2191.1461,2191.3959,2193.6179,space,2.1998,,2193.6179,78,18,2194.6121,2194.6122,2194.6181,,,,0,16,16,16,1,45,105,,,,,,,,
,,615db68d9d021708b6e64603,65af56aaa08a0d49e2f07b4c,2024-01-23_08h04.57.593,bars,2023.2.3,Win32,59.88023952,657b66ea316d21385b68909f,,,,,,,,,,,2194.6181,2195.6119,,,2196.1121,2196.3622,,66,66,,,,,,,,,,,,,,,,bars/031.png,bars/mask002.png,,,,,,,,,,,,0,2,,,,,,,10,0,10,0,,,,,,,,,,,2195.612,2196.112,2196.3623,2198.6282,space,2.2427,,2198.6282,54,31,2199.629,2199.629,2199.6344,,,,0,17,17,17,1,120,35,,,,,,,,
,,615db68d9d021708b6e64603,65af56aaa08a0d49e2f07b4c,2024-01-23_08h04.57.593,bars,2023.2.3,Win32,59.88023952,657b66ea316d21385b68909f,,,,,,,,,,,2199.6346,2200.6279,,,2201.128,2201.3778,,106,106,,,,,,,,,,,,,,,,bars/048.png,bars/mask007.png,,,,,,,,,,,,0,1,,,,,,,10,2,10,4,,,,,,,,,,,2200.628,2201.128,2201.3779,2263.62,space,62.2093,,2263.6203,56,69,2264.6249,2264.6249,2264.631,,,,0,18,18,18,1,50,175,,,,,,,,
,,615db68d9d021708b6e64603,65af56aaa08a0d49e2f07b4c,2024-01-23_08h04.57.593,bars,2023.2.3,Win32,59.88023952,657b66ea316d21385b68909f,,,,,,,,,,,2264.6312,2265.6196,,,2266.1193,2266.3693,,85,85,,,,,,,,,,,,,,,,bars/021.png,bars/mask007.png,,,,,,,,,,,,2,2,,,,,,,8,4,8,4,,,,,,,,,,,2265.6197,2266.1192,2266.3693,2270.852,space,4.45,,2270.8521,70,15,2271.852,2271.8521,2271.8585,,,,0,19,19,19,1,155,70,,,,,,,,
,,615db68d9d021708b6e64603,65af56aaa08a0d49e2f07b4c,2024-01-23_08h04.57.593,bars,2023.2.3,Win32,59.88023952,657b66ea316d21385b68909f,,,,,,,,,,,2271.8587,2272.8574,,,2273.3516,2273.6017,,130,130,,,,,,,,,,,,,,,,bars/036.png,bars/mask008.png,,,,,,,,,,,,5,1,,,,,,,10,6,9,5,,,,,,,,,,,2272.8574,2273.3516,2273.6018,2276.1729,space,2.5492,,2276.1729,15,70,2277.1721,2277.1721,2277.1776,,,,0,20,20,20,1,145,20,,,,,,,,
,,615db68d9d021708b6e64603,65af56aaa08a0d49e2f07b4c,2024-01-23_08h04.57.593,bars,2023.2.3,Win32,59.88023952,657b66ea316d21385b68909f,,,,,,,,,,,2277.1777,2278.1677,,,2278.6676,2278.9176,,7,7,,,,,,,,,,,,,,,,bars/004.png,bars/mask001.png,,,,,,,,,,,,4,1,,,,,,,8,4,9,4,,,,,,,,,,,2278.1677,2278.6676,2278.9178,2312.2136,space,33.2721,,2312.2136,18,62,2313.2132,2313.2132,2313.2206,,,,0,21,21,21,1,25,125,,,,,,,,
,,615db68d9d021708b6e64603,65af56aaa08a0d49e2f07b4c,2024-01-23_08h04.57.593,bars,2023.2.3,Win32,59.88023952,657b66ea316d21385b68909f,,,,,,,,,,,2313.2207,2314.217,,,2314.713,2314.9632,,53,53,,,,,,,,,,,,,,,,bars/042.png,bars/mask002.png,,,,,,,,,,,,1,2,,,,,,,6,6,8,5,,,,,,,,,,,2314.217,2314.713,2314.9633,2315.9964,space,1.0005,,2315.9964,88,22,2316.9961,2316.9962,2316.999,,,,0,22,22,22,1,145,75,,,,,,,,
,,615db68d9d021708b6e64603,65af56aaa08a0d49e2f07b4c,2024-01-23_08h04.57.593,bars,2023.2.3,Win32,59.88023952,657b66ea316d21385b68909f,,,,,,,,,,,2316.9992,2317.9961,,,2318.4961,2318.7461,,157,-23,,,,,,,,,,,,,,,,bars/040.png,bars/mask007.png,,,,,,,,,,,,3,1,,,,,,,8,4,8,2,,,,,,,,,,,2317.9961,2318.496,2318.7461,2323.4123,space,4.6383,,2323.4124,17,28,2324.4117,2324.4117,2324.4195,,,,0,23,23,23,1,140,5,,,,,,,,
,,615db68d9d021708b6e64603,65af56aaa08a0d49e2f07b4c,2024-01-23_08h04.57.593,bars,2023.2.3,Win32,59.88023952,657b66ea316d21385b68909f,,,,,,,,,,,2324.4197,2325.4122,,,2325.9183,2326.1616,,156,156,,,,,,,,,,,,,,,,bars/040.png,bars/mask003.png,,,,,,,,,,,,5,1,,,,,,,10,6,10,6,,,,,,,,,,,2325.4122,2325.9182,2326.1617,2328.1281,space,1.9367,,2328.1283,16,29,2329.1279,2329.128,2329.1289,,,,0,24,24,24,1,140,5,,,,,,,,
,,615db68d9d021708b6e64603,65af56aaa08a0d49e2f07b4c,2024-01-23_08h04.57.593,bars,2023.2.3,Win32,59.88023952,657b66ea316d21385b68909f,,,,,,,,,,,2329.1295,2330.1277,,,2330.6279,2330.8777,,25,25,,,,,,,,,,,,,,,,bars/019.png,bars/mask006.png,,,,,,,,,,,,2,1,,,,,,,8,4,7,4,,,,,,,,,,,2330.1277,2330.6278,2330.8777,2357.5746,space,26.6807,,2357.5747,20,80,2358.5743,2358.5744,2358.5826,,,,0,25,25,25,1,45,105,,,,,,,,
,,615db68d9d021708b6e64603,65af56aaa08a0d49e2f07b4c,2024-01-23_08h04.57.593,bars,2023.2.3,Win32,59.88023952,657b66ea316d21385b68909f,,,,,,,,,,,2358.5828,2359.5739,,,2360.0738,2360.3242,,155,-25,,,,,,,,,,,,,,,,bars/003.png,bars/mask003.png,,,,,,,,,,,,3,2,,,,,,,10,6,9,6,,,,,,,,,,,2359.5739,2360.0737,2360.3243,2367.1731,space,6.818,,2367.1732,50,15,2368.1727,2368.1727,2368.1814,,,,0,26,26,26,1,25,140,,,,,,,,
,,615db68d9d021708b6e64603,65af56aaa08a0d49e2f07b4c,2024-01-23_08h04.57.593,bars,2023.2.3,Win32,59.88023952,657b66ea316d21385b68909f,,,,,,,,,,,2368.1815,2369.1725,,,2369.6786,2369.9223,,95,95,,,,,,,,,,,,,,,,bars/003.png,bars/mask008.png,,,,,,,,,,,,0,2,,,,,,,8,4,9,4,,,,,,,,,,,2369.1725,2369.6785,2369.9224,2375.0052,space,5.0569,,2375.0053,70,45,2376.005,2376.005,2376.0119,,,,0,27,27,27,1,25,140,,,,,,,,
,,615db68d9d021708b6e64603,65af56aaa08a0d49e2f07b4c,2024-01-23_08h04.57.593,bars,2023.2.3,Win32,59.88023952,657b66ea316d21385b68909f,,,,,,,,,,,2376.012,2377.0049,,,2377.5048,2377.755,,58,58,,,,,,,,,,,,,,,,bars/022.png,bars/mask000.png,,,,,,,,,,,,0,1,,,,,,,6,6,6,6,,,,,,,,,,,2377.0049,2377.5048,2377.7551,2382.5374,space,4.7506,,2382.5375,37,38,2383.5374,2383.5375,2383.5454,,,,0,28,28,28,1,95,20,,,,,,,,
,,615db68d9d021708b6e64603,65af56aaa08a0d49e2f07b4c,2024-01-23_08h04.57.593,bars,2023.2.3,Win32,59.88023952,657b66ea316d21385b68909f,,,,,,,,,,,2383.5456,2384.5372,,,2385.0373,2385.2872,,136,136,,,,,,,,,,,,,,,,bars/028.png,bars/mask003.png,,,,,,,,,,,,2,2,,,,,,,4,4,3,5,,,,,,,,,,,2384.5372,2385.0371,2385.2872,2403.7682,space,18.4487,,2403.7684,89,16,2404.7679,2404.7679,2404.7768,,,,0,29,29,29,1,45,120,,,,,,,,
,,615db68d9d021708b6e64603,65af56aaa08a0d49e2f07b4c,2024-01-23_08h04.57.593,bars,2023.2.3,Win32,59.88023952,657b66ea316d21385b68909f,,,,,,,,,,,2404.777,2405.7679,,,2406.2677,2406.5176,,119,119,,,,,,,,,,,,,,,,bars/037.png,bars/mask004.png,,,,,,,,,,,,1,2,,,,,,,2,2,1,2,,,,,,,,,,,2405.7679,2406.2676,2406.5176,2416.2164,space,9.6705,,2416.2165,31,14,2417.2163,2417.2163,2417.224,,,,0,30,30,30,1,150,105,,,,,,,,
,,615db68d9d021708b6e64603,65af56aaa08a0d49e2f07b4c,2024-01-23_08h04.57.593,bars,2023.2.3,Win32,59.88023952,657b66ea316d21385b68909f,,,,,,,,,,,2417.2241,2418.2163,,,2418.716,2418.9661,,142,142,,,,,,,,,,,,,,,,bars/033.png,bars/mask001.png,,,,,,,,,,,,2,2,,,,,,,4,4,4,3,,,,,,,,,,,2418.2163,2418.7159,2418.9662,2421.3991,space,2.4004,,2421.3991,63,13,2422.3987,2422.3988,2422.4062,,,,0,31,31,31,1,25,155,,,,,,,,
,,615db68d9d021708b6e64603,65af56aaa08a0d49e2f07b4c,2024-01-23_08h04.57.593,bars,2023.2.3,Win32,59.88023952,657b66ea316d21385b68909f,,,,,,,,,,,2422.4063,2423.3992,,,2423.8987,2424.1391,,62,62,,,,,,,,,,,,,,,,bars/048.png,bars/mask003.png,,,,,,,,,,,,1,1,,,,,,,2,2,2,1,,,,,,,,,,,2423.3992,2423.8987,2424.1392,2453.6783,space,29.5159,,2453.6784,12,67,2454.6779,2454.6779,2454.6865,,,,0,32,32,32,1,50,175,,,,,,,,
,,615db68d9d021708b6e64603,65af56aaa08a0d49e2f07b4c,2024-01-23_08h04.57.593,bars,2023.2.3,Win32,59.88023952,657b66ea316d21385b68909f,,,,,,,,,,,2454.6866,2455.678,,,2456.1777,2456.4178,,125,125,,,,,,,,,,,,,,,,bars/013.png,bars/mask009.png,,,,,,,,,,,,0,1,,,,,,,4,4,4,4,,,,,,,,,,,2455.6781,2456.1777,2456.4178,2459.9942,space,3.5553,,2459.9943,50,65,2460.9937,2460.9938,2461.0009,,,,0,33,33,33,1,75,10,,,,,,,,
,,615db68d9d021708b6e64603,65af56aaa08a0d49e2f07b4c,2024-01-23_08h04.57.593,bars,2023.2.3,Win32,59.88023952,657b66ea316d21385b68909f,,,,,,,,,,,2461.0011,2461.9937,,,2462.4938,2462.7439,,50,50,,,,,,,,,,,,,,,,bars/038.png,bars/mask002.png,,,,,,,,,,,,1,2,,,,,,,6,6,5,4,,,,,,,,,,,2461.9937,2462.4937,2462.744,2467.4431,space,4.6727,,2467.4432,65,20,2468.4427,2468.4427,2468.4505,,,,0,34,34,34,1,165,70,,,,,,,,
,,615db68d9d021708b6e64603,65af56aaa08a0d49e2f07b4c,2024-01-23_08h04.57.593,bars,2023.2.3,Win32,59.88023952,657b66ea316d21385b68909f,,,,,,,,,,,2468.4508,2469.4426,,,2469.9428,2470.1926,,49,49,,,,,,,,,,,,,,,,bars/047.png,bars/mask001.png,,,,,,,,,,,,1,2,,,,,,,4,4,5,3,,,,,,,,,,,2469.4426,2469.9428,2470.1926,2472.7157,space,2.4999,,2472.7158,34,21,2473.7088,2473.7089,2473.7163,,,,0,35,35,35,1,15,70,,,,,,,,
,,615db68d9d021708b6e64603,65af56aaa08a0d49e2f07b4c,2024-01-23_08h04.57.593,bars,2023.2.3,Win32,59.88023952,657b66ea316d21385b68909f,,,,,,,,,,,2473.7164,2474.7086,,,2475.2086,2475.4587,,153,153,,,,,,,,,,,,,,,,bars/024.png,bars/mask001.png,,,,,,,,,,,,1,2,,,,,,,2,2,3,2,,,,,,,,,,,2474.7086,2475.2085,2475.4588,2477.0582,space,1.5914,,2477.0582,33,17,2478.0581,2478.0581,2478.0592,,,,0,36,36,36,1,120,170,,,,,,,,
,,615db68d9d021708b6e64603,65af56aaa08a0d49e2f07b4c,2024-01-23_08h04.57.593,bars,2023.2.3,Win32,59.88023952,657b66ea316d21385b68909f,,,,,,,,,,,2478.0594,2479.058,,,2479.558,2479.8077,,136,136,,,,,,,,,,,,,,,,bars/005.png,bars/mask005.png,,,,,,,,,,,,0,2,,,,,,,0,0,0,0,,,,,,,,,,,2479.0581,2479.558,2479.8079,2481.4318,space,1.5992,,2481.4318,54,4,2482.4241,2482.4243,2482.4248,,,,0,37,37,37,1,10,140,,,,,,,,
,,615db68d9d021708b6e64603,65af56aaa08a0d49e2f07b4c,2024-01-23_08h04.57.593,bars,2023.2.3,Win32,59.88023952,657b66ea316d21385b68909f,,,,,,,,,,,2482.4253,2483.4239,,,2483.924,2484.174,,142,-38,,,,,,,,,,,,,,,,bars/015.png,bars/mask003.png,,,,,,,,,,,,1,2,,,,,,,2,2,2,2,,,,,,,,,,,2483.424,2483.924,2484.1741,2486.5071,space,2.3042,,2486.5071,32,18,2487.5069,2487.5069,2487.5141,,,,0,38,38,38,1,110,160,,,,,,,,
,,615db68d9d021708b6e64603,65af56aaa08a0d49e2f07b4c,2024-01-23_08h04.57.593,bars,2023.2.3,Win32,59.88023952,657b66ea316d21385b68909f,,,,,,,,,,,2487.5142,2488.5067,,,2489.0067,2489.2567,,42,222,,,,,,,,,,,,,,,,bars/013.png,bars/mask001.png,,,,,,,,,,,,0,2,,,,,,,4,4,6,5,,,,,,,,,,,2488.5068,2489.0067,2489.2567,2495.4307,space,6.1515,,2495.4307,33,32,2496.4224,2496.4224,2496.4296,,,,0,39,39,39,1,75,10,,,,,,,,
,,615db68d9d021708b6e64603,65af56aaa08a0d49e2f07b4c,2024-01-23_08h04.57.593,bars,2023.2.3,Win32,59.88023952,657b66ea316d21385b68909f,,,,,,,,,,,2496.4298,2497.4224,,,2497.9222,2498.1721,,156,156,,,,,,,,,,,,,,,,bars/014.png,bars/mask000.png,,,,,,,,,,,,0,2,,,,,,,2,2,2,2,,,,,,,,,,,2497.4225,2497.9222,2498.1722,2500.5793,space,2.3844,,2500.5793,76,24,2501.5717,2501.5718,2501.5789,,,,0,40,40,40,1,80,0,,,,,,,,
,,615db68d9d021708b6e64603,65af56aaa08a0d49e2f07b4c,2024-01-23_08h04.57.593,bars,2023.2.3,Win32,59.88023952,657b66ea316d21385b68909f,,,,,,,,,,,2501.5791,2502.5714,,,2503.0623,2503.3049,,26,26,,,,,,,,,,,,,,,,bars/030.png,bars/mask005.png,,,,,,,,,,,,0,2,,,,,,,4,4,2,2,,,,,,,,,,,2502.5714,2503.0623,2503.305,2530.0848,space,26.7713,,2530.0849,66,39,2531.0845,2531.0845,2531.0945,,,,0,41,41,41,1,140,65,,,,,,,,
,,615db68d9d021708b6e64603,65af56aaa08a0d49e2f07b4c,2024-01-23_08h04.57.593,bars,2023.2.3,Win32,59.88023952,657b66ea316d21385b68909f,,,,,,,,,,,2531.0948,2532.0843,,,2532.5843,2532.8342,,124,124,,,,,,,,,,,,,,,,bars/013.png,bars/mask000.png,,,,,,,,,,,,0,1,,,,,,,2,6,1,7,,,,,,,,,,,2532.0843,2532.5843,2532.8342,2536.9005,space,4.0343,,2536.9006,49,66,2537.9003,2537.9003,2537.9081,,,,0,42,42,42,1,75,10,,,,,,,,
,,615db68d9d021708b6e64603,65af56aaa08a0d49e2f07b4c,2024-01-23_08h04.57.593,bars,2023.2.3,Win32,59.88023952,657b66ea316d21385b68909f,,,,,,,,,,,2537.9082,2538.9,,,2539.4003,2539.65,,63,63,,,,,,,,,,,,,,,,bars/037.png,bars/mask008.png,,,,,,,,,,,,0,2,,,,,,,0,8,0,8,,,,,,,,,,,2538.9,2539.4002,2539.65,2541.9331,space,2.2506,,2541.9332,87,42,2542.9329,2542.9329,2542.9351,,,,0,43,43,43,1,150,105,,,,,,,,
,,615db68d9d021708b6e64603,65af56aaa08a0d49e2f07b4c,2024-01-23_08h04.57.593,bars,2023.2.3,Win32,59.88023952,657b66ea316d21385b68909f,,,,,,,,,,,2542.9353,2543.9331,,,2544.4328,2544.6826,,48,48,,,,,,,,,,,,,,,,bars/032.png,bars/mask000.png,,,,,,,,,,,,0,2,,,,,,,0,6,1,5,,,,,,,,,,,2543.9333,2544.4328,2544.6828,2548.7656,space,4.0507,,2548.7656,77,28,2549.7652,2549.7653,2549.7727,,,,0,44,44,44,1,125,20,,,,,,,,
,,615db68d9d021708b6e64603,65af56aaa08a0d49e2f07b4c,2024-01-23_08h04.57.593,bars,2023.2.3,Win32,59.88023952,657b66ea316d21385b68909f,,,,,,,,,,,2549.7728,2550.765,,,2551.2651,2551.5155,,134,134,,,,,,,,,,,,,,,,bars/035.png,bars/mask003.png,,,,,,,,,,,,0,1,,,,,,,2,4,1,5,,,,,,,,,,,2550.7652,2551.2651,2551.5156,2575.6621,space,24.1143,,2575.6622,41,74,2576.6516,2576.6516,2576.6597,,,,0,45,45,45,1,175,60,,,,,,,,
,,615db68d9d021708b6e64603,65af56aaa08a0d49e2f07b4c,2024-01-23_08h04.57.593,bars,2023.2.3,Win32,59.88023952,657b66ea316d21385b68909f,,,,,,,,,,,2576.66,2577.6687,,,2578.1616,2578.4116,,46,46,,,,,,,,,,,,,,,,bars/035.png,bars/mask008.png,,,,,,,,,,,,2,2,,,,,,,4,2,3,3,,,,,,,,,,,2577.6688,2578.1616,2578.4116,2582.8111,space,4.3739,,2582.8112,51,14,2583.8108,2583.8108,2583.8192,,,,0,46,46,46,1,175,60,,,,,,,,
,,615db68d9d021708b6e64603,65af56aaa08a0d49e2f07b4c,2024-01-23_08h04.57.593,bars,2023.2.3,Win32,59.88023952,657b66ea316d21385b68909f,,,,,,,,,,,2583.8194,2584.8107,,,2585.3107,2585.5606,,136,-44,,,,,,,,,,,,,,,,bars/028.png,bars/mask006.png,,,,,,,,,,,,2,2,,,,,,,6,4,7,4,,,,,,,,,,,2584.8107,2585.3107,2585.5606,2591.3934,space,5.8041,,2591.3935,89,16,2592.384,2592.3841,2592.3902,,,,0,47,47,47,1,45,120,,,,,,,,
,,615db68d9d021708b6e64603,65af56aaa08a0d49e2f07b4c,2024-01-23_08h04.57.593,bars,2023.2.3,Win32,59.88023952,657b66ea316d21385b68909f,,,,,,,,,,,2592.3904,2593.3927,,,2593.8928,2594.1428,,31,211,,,,,,,,,,,,,,,,bars/029.png,bars/mask009.png,,,,,,,,,,,,1,2,,,,,,,4,2,4,2,,,,,,,,,,,2593.3928,2593.8928,2594.1429,2598.3091,space,4.1337,,2598.3091,59,14,2599.3092,2599.3095,2599.3198,,,,0,48,48,48,1,90,45,,,,,,,,
,,615db68d9d021708b6e64603,65af56aaa08a0d49e2f07b4c,2024-01-23_08h04.57.593,bars,2023.2.3,Win32,59.88023952,657b66ea316d21385b68909f,,,,,,,,,,,2599.32,2600.3087,,,2600.809,2601.0619,,145,145,,,,,,,,,,,,,,,,bars/015.png,bars/mask008.png,,,,,,,,,,,,3,2,,,,,,,6,4,6,5,,,,,,,,,,,2600.3087,2600.8089,2601.0619,2602.5917,space,1.5007,,2602.5917,35,15,2603.5918,2603.5919,2603.5928,,,,0,49,49,49,1,110,160,,,,,,,,
,,615db68d9d021708b6e64603,65af56aaa08a0d49e2f07b4c,2024-01-23_08h04.57.593,bars,2023.2.3,Win32,59.88023952,657b66ea316d21385b68909f,,,,,,,,,,,,,,,,,,,,,,,,,,,,,,,,,,,,,,,,,,,,,,,,,,,,,,,,,,,,,,,,,,,,,,,,,,,,,,,,,,,,,,,,,,,,,2603.593,2663.5836,0,3,3,4,1,sequence_tables/blk048.csv
,,615db68d9d021708b6e64603,65af56aaa08a0d49e2f07b4c,2024-01-23_08h04.57.593,bars,2023.2.3,Win32,59.88023952,657b66ea316d21385b68909f,,,,,,,,,,,2776.1133,2777.1024,,,2777.6024,2777.8518,,46,226,,,,,,,,,,,,,,,,bars/007.png,bars/mask002.png,,,,,,,,,,,,6,2,,,,,,,2,9,1,9,,,,,,2663.5913,2776.1025,space,112.4908,,2777.1025,2777.6023,2777.8519,2781.9052,space,4.0293,,2781.9052,51,9,2782.9014,2782.9014,2782.9096,,,,0,0,0,0,1,175,55,,,,,,,,
,,615db68d9d021708b6e64603,65af56aaa08a0d49e2f07b4c,2024-01-23_08h04.57.593,bars,2023.2.3,Win32,59.88023952,657b66ea316d21385b68909f,,,,,,,,,,,2782.9098,2783.901,,,2784.4009,2784.6509,,41,41,,,,,,,,,,,,,,,,bars/043.png,bars/mask004.png,,,,,,,,,,,,4,1,,,,,,,4,7,7,6,,,,,,,,,,,2783.9011,2784.4009,2784.6509,2786.0905,space,1.4324,,2786.0906,11,89,2787.0839,2787.084,2787.0867,,,,0,1,1,1,1,30,130,,,,,,,,
,,615db68d9d021708b6e64603,65af56aaa08a0d49e2f07b4c,2024-01-23_08h04.57.593,bars,2023.2.3,Win32,59.88023952,657b66ea316d21385b68909f,,,,,,,,,,,2787.0868,2788.0838,,,2788.5838,2788.8337,,36,36,,,,,,,,,,,,,,,,bars/032.png,bars/mask002.png,,,,,,,,,,,,4,2,,,,,,,6,9,6,8,,,,,,,,,,,2788.0838,2788.5837,2788.8337,2790.9743,space,2.1331,,2790.9744,89,16,2791.9666,2791.9666,2791.9691,,,,0,2,2,2,1,125,20,,,,,,,,
,,615db68d9d021708b6e64603,65af56aaa08a0d49e2f07b4c,2024-01-23_08h04.57.593,bars,2023.2.3,Win32,59.88023952,657b66ea316d21385b68909f,,,,,,,,,,,2791.9694,2792.9665,,,2793.4664,2793.7165,,106,106,,,,,,,,,,,,,,,,bars/039.png,bars/mask004.png,,,,,,,,,,,,8,2,,,,,,,8,7,6,8,,,,,,,,,,,2792.9666,2793.4664,2793.7166,2795.4729,space,1.7496,,2795.473,69,1,2796.4659,2796.4659,2796.4735,,,,0,3,3,3,1,175,105,,,,,,,,
,,615db68d9d021708b6e64603,65af56aaa08a0d49e2f07b4c,2024-01-23_08h04.57.593,bars,2023.2.3,Win32,59.88023952,657b66ea316d21385b68909f,,,,,,,,,,,2796.4737,2797.4659,,,2797.9658,2798.2157,,146,-34,,,,,,,,,,,,,,,,bars/004.png,bars/mask000.png,,,,,,,,,,,,3,2,,,,,,,6,9,5,9,,,,,,,,,,,2797.466,2797.9658,2798.2157,2801.0155,space,2.7836,,2801.0156,59,21,2802.0157,2802.0157,2802.0229,,,,0,4,4,4,1,25,125,,,,,,,,
,,615db68d9d021708b6e64603,65af56aaa08a0d49e2f07b4c,2024-01-23_08h04.57.593,bars,2023.2.3,Win32,59.88023952,657b66ea316d21385b68909f,,,,,,,,,,,2802.0231,2803.0151,,,2803.5152,2803.7649,,144,144,,,,,,,,,,,,,,,,bars/025.png,bars/mask004.png,,,,,,,,,,,,0,1,,,,,,,8,7,8,8,,,,,,,,,,,2803.0151,2803.515,2803.7651,2808.7558,space,4.9836,,2808.7558,39,76,2809.7478,2809.7479,2809.7572,,,,0,5,5,5,1,105,40,,,,,,,,
,,615db68d9d021708b6e64603,65af56aaa08a0d49e2f07b4c,2024-01-23_08h04.57.593,bars,2023.2.3,Win32,59.88023952,657b66ea316d21385b68909f,,,,,,,,,,,2809.7574,2810.7472,,,2811.2475,2811.4973,,64,64,,,,,,,,,,,,,,,,bars/019.png,bars/mask000.png,,,,,,,,,,,,2,1,,,,,,,6,5,6,7,,,,,,,,,,,2810.7472,2811.2475,2811.4974,2814.1806,space,2.6675,,2814.1806,19,41,2815.1803,2815.1803,2815.1875,,,,0,6,6,6,1,45,105,,,,,,,,
,,615db68d9d021708b6e64603,65af56aaa08a0d49e2f07b4c,2024-01-23_08h04.57.593,bars,2023.2.3,Win32,59.88023952,657b66ea316d21385b68909f,,,,,,,,,,,2815.1876,2816.1801,,,2816.68,2816.9301,,131,131,,,,,,,,,,,,,,,,bars/043.png,bars/mask007.png,,,,,,,,,,,,6,2,,,,,,,4,7,2,6,,,,,,,,,,,2816.1802,2816.68,2816.9302,2819.03,space,2.0675,,2819.03,79,1,2820.0295,2820.0295,2820.0319,,,,0,7,7,7,1,30,130,,,,,,,,
,,615db68d9d021708b6e64603,65af56aaa08a0d49e2f07b4c,2024-01-23_08h04.57.593,bars,2023.2.3,Win32,59.88023952,657b66ea316d21385b68909f,,,,,,,,,,,2820.0323,2821.0295,,,2821.5294,2821.7793,,68,68,,,,,,,,,,,,,,,,bars/038.png,bars/mask008.png,,,,,,,,,,,,7,2,,,,,,,2,9,2,8,,,,,,,,,,,2821.0295,2821.5294,2821.7794,2825.4122,space,3.621,,2825.4122,83,2,2826.4121,2826.4121,2826.4193,,,,0,8,8,8,1,165,70,,,,,,,,
,,615db68d9d021708b6e64603,65af56aaa08a0d49e2f07b4c,2024-01-23_08h04.57.593,bars,2023.2.3,Win32,59.88023952,657b66ea316d21385b68909f,,,,,,,,,,,2826.4194,2827.4121,,,2827.9152,2828.1618,,130,130,,,,,,,,,,,,,,,,bars/028.png,bars/mask009.png,,,,,,,,,,,,7,2,,,,,,,0,10,1,10,,,,,,,,,,,2827.4121,2827.9151,2828.1618,2830.4785,space,2.2893,,2830.4785,85,10,2831.4779,2831.478,2831.4854,,,,0,9,9,9,1,45,120,,,,,,,,
,,615db68d9d021708b6e64603,65af56aaa08a0d49e2f07b4c,2024-01-23_08h04.57.593,bars,2023.2.3,Win32,59.88023952,657b66ea316d21385b68909f,,,,,,,,,,,2831.4856,2832.4779,,,2832.9779,2833.2278,,119,-61,,,,,,,,,,,,,,,,bars/009.png,bars/mask001.png,,,,,,,,,,,,4,2,,,,,,,2,8,3,7,,,,,,,,,,,2832.4779,2832.9779,2833.2279,2837.0107,space,3.7585,,2837.0108,76,14,2838.0106,2838.0106,2838.0182,,,,0,10,10,10,1,15,105,,,,,,,,
