init_variables.started,init_variables.stopped,participant,session,date,expName,psychopyVersion,OS,frameRate,study_id,instruction_exp.started,instruction_exp.stopped,key_resp_8.keys,key_resp_8.rt,key_resp_8.duration,instruction_single.started,instruction_single.stopped,key_resp_2.keys,key_resp_2.rt,key_resp_2.duration,interval.started,interval.stopped,cue_single.started,cue_single.stopped,mask.started,mask.stopped,ori_response_single.started,res_ori,res,ori_response_single.stopped,key_resp_single.keys,key_resp_single.rt,key_resp_single.duration,disp_single.started,disp_single.stopped,key_resp.keys,key_resp.rt,key_resp.duration,single.thisRepN,single.thisTrialN,single.thisN,single.thisIndex,single.ran,ori,path,mask_path,instruction_bandit.started,instruction_bandit.stopped,key_resp_6.keys,key_resp_6.rt,key_resp_6.duration,cue_bandit.started,cue_bandit.stopped,bandit_res.keys,bandit_res.rt,bandit_res.duration,outcome_bandit.started,rew,action,outcome_bandit.stopped,bandit.thisRepN,bandit.thisTrialN,bandit.thisN,bandit.thisIndex,bandit.ran,actual_rew1,actual_rew2,rew1,rew2,instruction_task.started,instruction_task.stopped,key_resp_7.keys,key_resp_7.rt,key_resp_7.duration,wait_ready.started,wait_ready.stopped,key_resp_3.keys,key_resp_3.rt,key_resp_3.duration,cue.started,cue.stopped,ori_response.started,ori_response.stopped,key_resp_5.keys,key_resp_5.rt,key_resp_5.duration,outcome.started,diff1,diff2,outcome.stopped,disp_outcome_practice.started,disp_outcome_practice.stopped,key_resp_4.keys,key_resp_4.rt,key_resp_4.duration,trials.thisRepN,trials.thisTrialN,trials.thisN,trials.thisIndex,trials.ran,ori1,ori2,break_blk.started,break_blk.stopped,block.thisRepN,block.thisTrialN,block.thisN,block.thisIndex,block.ran,condition_file
0.0009,0.0012,5fa48feaddfbd812de13f3bb,65af58158f4b972623180bee,2024-01-23_08h12.22.710,bars,2023.2.3,Win32,59.17159763,657b66ea316d21385b68909f,,,,,,,,,,,,,,,,,,,,,,,,,,,,,,,,,,,,,,,,,,,,,,,,,,,,,,,,,,,,,,,,,,,,,,,,,,,,,,,,,,,,,,,,,,,,,,,,,,,,
,,5fa48feaddfbd812de13f3bb,65af58158f4b972623180bee,2024-01-23_08h12.22.710,bars,2023.2.3,Win32,59.17159763,657b66ea316d21385b68909f,0.0015,14.6038,y,14.5579,,,,,,,,,,,,,,,,,,,,,,,,,,,,,,,,,,,,,,,,,,,,,,,,,,,,,,,,,,,,,,,,,,,,,,,,,,,,,,,,,,,,,,,,,,,,,,,,
,,5fa48feaddfbd812de13f3bb,65af58158f4b972623180bee,2024-01-23_08h12.22.710,bars,2023.2.3,Win32,59.17159763,657b66ea316d21385b68909f,,,,,,14.604,65.8992,space,51.2593,,,,,,,,,,,,,,,,,,,,,,,,,,,,,,,,,,,,,,,,,,,,,,,,,,,,,,,,,,,,,,,,,,,,,,,,,,,,,,,,,,,,,,,,,,,
,,5fa48feaddfbd812de13f3bb,65af58158f4b972623180bee,2024-01-23_08h12.22.710,bars,2023.2.3,Win32,59.17159763,657b66ea316d21385b68909f,,,,,,,,,,,65.9355,66.9073,66.9082,67.4062,67.4063,67.6635,67.6645,88,88,76.4944,space,8.7279,,76.4955,111.6818,space,35.0833,,0,0,0,4,1,95,bars/single004.png,bars/mask004.png,,,,,,,,,,,,,,,,,,,,,,,,,,,,,,,,,,,,,,,,,,,,,,,,,,,,,,,,,,,,,,,,
,,5fa48feaddfbd812de13f3bb,65af58158f4b972623180bee,2024-01-23_08h12.22.710,bars,2023.2.3,Win32,59.17159763,657b66ea316d21385b68909f,,,,,,,,,,,111.7488,112.6906,112.6911,113.1905,113.1907,113.4404,113.4407,89,89,123.559,space,10.1039,,123.5591,133.7593,space,10.1162,,0,1,1,6,1,175,bars/single006.png,bars/mask005.png,,,,,,,,,,,,,,,,,,,,,,,,,,,,,,,,,,,,,,,,,,,,,,,,,,,,,,,,,,,,,,,,
,,5fa48feaddfbd812de13f3bb,65af58158f4b972623180bee,2024-01-23_08h12.22.710,bars,2023.2.3,Win32,59.17159763,657b66ea316d21385b68909f,,,,,,,,,,,133.8204,134.7746,134.775,135.2743,135.2749,135.5246,135.5247,0,180,146.6828,space,11.1474,,146.683,151.8071,space,5.041,,0,2,2,1,1,20,bars/single001.png,bars/mask006.png,,,,,,,,,,,,,,,,,,,,,,,,,,,,,,,,,,,,,,,,,,,,,,,,,,,,,,,,,,,,,,,,
,,5fa48feaddfbd812de13f3bb,65af58158f4b972623180bee,2024-01-23_08h12.22.710,bars,2023.2.3,Win32,59.17159763,657b66ea316d21385b68909f,,,,,,,,,,,151.8634,152.8082,152.8085,153.3062,153.3063,153.5599,153.5603,0,0,163.9173,space,10.3369,,163.9173,169.7437,space,5.7481,,0,3,3,7,1,45,bars/single007.png,bars/mask009.png,,,,,,,,,,,,,,,,,,,,,,,,,,,,,,,,,,,,,,,,,,,,,,,,,,,,,,,,,,,,,,,,
,,5fa48feaddfbd812de13f3bb,65af58158f4b972623180bee,2024-01-23_08h12.22.710,bars,2023.2.3,Win32,59.17159763,657b66ea316d21385b68909f,,,,,,,,,,,169.791,170.757,170.757,171.2591,171.2595,171.507,171.5071,50,50,175.9466,space,4.427,,175.9468,179.3578,space,3.3398,,0,4,4,9,1,20,bars/single009.png,bars/mask006.png,,,,,,,,,,,,,,,,,,,,,,,,,,,,,,,,,,,,,,,,,,,,,,,,,,,,,,,,,,,,,,,,
,,5fa48feaddfbd812de13f3bb,65af58158f4b972623180bee,2024-01-23_08h12.22.710,bars,2023.2.3,Win32,59.17159763,657b66ea316d21385b68909f,,,,,,,,,,,179.4032,180.3582,180.3583,180.8466,180.8467,181.0927,181.0929,1,1,186.0486,space,4.9364,,186.0486,187.7952,space,1.6652,,0,5,5,0,1,150,bars/single000.png,bars/mask006.png,,,,,,,,,,,,,,,,,,,,,,,,,,,,,,,,,,,,,,,,,,,,,,,,,,,,,,,,,,,,,,,,
,,5fa48feaddfbd812de13f3bb,65af58158f4b972623180bee,2024-01-23_08h12.22.710,bars,2023.2.3,Win32,59.17159763,657b66ea316d21385b68909f,,,,,,,,,,,187.7964,188.7911,188.7912,189.2973,189.2974,189.5412,189.5413,0,0,197.6414,space,8.0871,,197.6415,199.6091,space,1.9094,,0,6,6,3,1,20,bars/single003.png,bars/mask005.png,,,,,,,,,,,,,,,,,,,,,,,,,,,,,,,,,,,,,,,,,,,,,,,,,,,,,,,,,,,,,,,,
,,5fa48feaddfbd812de13f3bb,65af58158f4b972623180bee,2024-01-23_08h12.22.710,bars,2023.2.3,Win32,59.17159763,657b66ea316d21385b68909f,,,,,,,,,,,199.6095,200.6078,200.6078,201.1075,201.1076,201.3577,201.3578,0,0,208.3928,space,7.0224,,208.3928,210.9775,space,2.5245,,0,7,7,8,1,160,bars/single008.png,bars/mask004.png,,,,,,,,,,,,,,,,,,,,,,,,,,,,,,,,,,,,,,,,,,,,,,,,,,,,,,,,,,,,,,,,
,,5fa48feaddfbd812de13f3bb,65af58158f4b972623180bee,2024-01-23_08h12.22.710,bars,2023.2.3,Win32,59.17159763,657b66ea316d21385b68909f,,,,,,,,,,,210.9798,211.9748,211.9748,212.4745,212.4745,212.7247,212.7247,160,-20,217.5101,space,4.7689,,217.5102,219.412,space,1.8447,,0,8,8,2,1,145,bars/single002.png,bars/mask003.png,,,,,,,,,,,,,,,,,,,,,,,,,,,,,,,,,,,,,,,,,,,,,,,,,,,,,,,,,,,,,,,,
,,5fa48feaddfbd812de13f3bb,65af58158f4b972623180bee,2024-01-23_08h12.22.710,bars,2023.2.3,Win32,59.17159763,657b66ea316d21385b68909f,,,,,,,,,,,219.4144,220.4083,220.4085,220.8996,220.8998,221.1436,221.1437,52,52,222.7812,space,1.6153,,222.7813,226.6107,space,3.8059,,0,9,9,5,1,55,bars/single005.png,bars/mask008.png,,,,,,,,,,,,,,,,,,,,,,,,,,,,,,,,,,,,,,,,,,,,,,,,,,,,,,,,,,,,,,,,
,,5fa48feaddfbd812de13f3bb,65af58158f4b972623180bee,2024-01-23_08h12.22.710,bars,2023.2.3,Win32,59.17159763,657b66ea316d21385b68909f,,,,,,,,,,,,,,,,,,,,,,,,,,,,,,,,,,,,,226.6544,248.0989,space,21.4122,,,,,,,,,,,,,,,,,,,,,,,,,,,,,,,,,,,,,,,,,,,,,,,,,,,,,,,,,,,,
,,5fa48feaddfbd812de13f3bb,65af58158f4b972623180bee,2024-01-23_08h12.22.710,bars,2023.2.3,Win32,59.17159763,657b66ea316d21385b68909f,,,,,,,,,,,,,,,,,,,,,,,,,,,,,,,,,,,,,,,,,,248.1486,250.9762,left,2.7892,,250.9772,9,1,251.9758,0,0,0,0,1,9,1,9,2,,,,,,,,,,,,,,,,,,,,,,,,,,,,,,,,,,,,,,,,,
,,5fa48feaddfbd812de13f3bb,65af58158f4b972623180bee,2024-01-23_08h12.22.710,bars,2023.2.3,Win32,59.17159763,657b66ea316d21385b68909f,,,,,,,,,,,,,,,,,,,,,,,,,,,,,,,,,,,,,,,,,,251.9769,253.5927,right,1.6038,,253.5928,1,2,254.5931,0,1,1,1,1,10,0,10,1,,,,,,,,,,,,,,,,,,,,,,,,,,,,,,,,,,,,,,,,,
,,5fa48feaddfbd812de13f3bb,65af58158f4b972623180bee,2024-01-23_08h12.22.710,bars,2023.2.3,Win32,59.17159763,657b66ea316d21385b68909f,,,,,,,,,,,,,,,,,,,,,,,,,,,,,,,,,,,,,,,,,,254.63,255.5354,left,0.8985,,255.5357,10,1,256.5262,0,2,2,2,1,10,2,10,2,,,,,,,,,,,,,,,,,,,,,,,,,,,,,,,,,,,,,,,,,
,,5fa48feaddfbd812de13f3bb,65af58158f4b972623180bee,2024-01-23_08h12.22.710,bars,2023.2.3,Win32,59.17159763,657b66ea316d21385b68909f,,,,,,,,,,,,,,,,,,,,,,,,,,,,,,,,,,,,,,,,,,256.5282,257.2638,left,0.7098,,257.2639,7,1,258.2661,0,3,3,3,1,8,4,7,3,,,,,,,,,,,,,,,,,,,,,,,,,,,,,,,,,,,,,,,,,
,,5fa48feaddfbd812de13f3bb,65af58158f4b972623180bee,2024-01-23_08h12.22.710,bars,2023.2.3,Win32,59.17159763,657b66ea316d21385b68909f,,,,,,,,,,,,,,,,,,,,,,,,,,,,,,,,,,,,,,,,,,258.2688,259.2201,left,0.9369,,259.2205,5,1,260.21,0,4,4,4,1,6,2,5,1,,,,,,,,,,,,,,,,,,,,,,,,,,,,,,,,,,,,,,,,,
,,5fa48feaddfbd812de13f3bb,65af58158f4b972623180bee,2024-01-23_08h12.22.710,bars,2023.2.3,Win32,59.17159763,657b66ea316d21385b68909f,,,,,,,,,,,,,,,,,,,,,,,,,,,,,,,,,,,,,,,,,,260.2124,260.7175,right,0.486,,260.7176,4,2,261.7119,0,5,5,5,1,4,4,4,4,,,,,,,,,,,,,,,,,,,,,,,,,,,,,,,,,,,,,,,,,
,,5fa48feaddfbd812de13f3bb,65af58158f4b972623180bee,2024-01-23_08h12.22.710,bars,2023.2.3,Win32,59.17159763,657b66ea316d21385b68909f,,,,,,,,,,,,,,,,,,,,,,,,,,,,,,,,,,,,,,,,,,261.7147,262.2466,left,0.51,,262.2472,1,1,263.2453,0,6,6,6,1,2,2,1,2,,,,,,,,,,,,,,,,,,,,,,,,,,,,,,,,,,,,,,,,,
,,5fa48feaddfbd812de13f3bb,65af58158f4b972623180bee,2024-01-23_08h12.22.710,bars,2023.2.3,Win32,59.17159763,657b66ea316d21385b68909f,,,,,,,,,,,,,,,,,,,,,,,,,,,,,,,,,,,,,,,,,,263.2461,263.7637,right,0.4898,,263.7639,1,2,264.762,0,7,7,7,1,0,0,0,1,,,,,,,,,,,,,,,,,,,,,,,,,,,,,,,,,,,,,,,,,
,,5fa48feaddfbd812de13f3bb,65af58158f4b972623180bee,2024-01-23_08h12.22.710,bars,2023.2.3,Win32,59.17159763,657b66ea316d21385b68909f,,,,,,,,,,,,,,,,,,,,,,,,,,,,,,,,,,,,,,,,,,264.7636,265.2186,right,0.4359,,265.2187,0,2,266.2126,0,8,8,8,1,0,2,1,0,,,,,,,,,,,,,,,,,,,,,,,,,,,,,,,,,,,,,,,,,
,,5fa48feaddfbd812de13f3bb,65af58158f4b972623180bee,2024-01-23_08h12.22.710,bars,2023.2.3,Win32,59.17159763,657b66ea316d21385b68909f,,,,,,,,,,,,,,,,,,,,,,,,,,,,,,,,,,,,,,,,,,266.2141,266.7487,left,0.5107,,266.7489,2,1,267.7444,0,9,9,9,1,2,4,2,3,,,,,,,,,,,,,,,,,,,,,,,,,,,,,,,,,,,,,,,,,
,,5fa48feaddfbd812de13f3bb,65af58158f4b972623180bee,2024-01-23_08h12.22.710,bars,2023.2.3,Win32,59.17159763,657b66ea316d21385b68909f,,,,,,,,,,,,,,,,,,,,,,,,,,,,,,,,,,,,,,,,,,267.7462,268.3173,left,0.5509,,268.3174,0,1,269.3119,0,10,10,10,1,0,2,0,3,,,,,,,,,,,,,,,,,,,,,,,,,,,,,,,,,,,,,,,,,
,,5fa48feaddfbd812de13f3bb,65af58158f4b972623180bee,2024-01-23_08h12.22.710,bars,2023.2.3,Win32,59.17159763,657b66ea316d21385b68909f,,,,,,,,,,,,,,,,,,,,,,,,,,,,,,,,,,,,,,,,,,269.3146,269.9147,left,0.5774,,269.9149,0,1,270.9121,0,11,11,11,1,0,4,0,3,,,,,,,,,,,,,,,,,,,,,,,,,,,,,,,,,,,,,,,,,
,,5fa48feaddfbd812de13f3bb,65af58158f4b972623180bee,2024-01-23_08h12.22.710,bars,2023.2.3,Win32,59.17159763,657b66ea316d21385b68909f,,,,,,,,,,,,,,,,,,,,,,,,,,,,,,,,,,,,,,,,,,270.9127,272.2025,right,1.2695,,272.2027,6,2,273.1934,0,12,12,12,1,2,6,1,6,,,,,,,,,,,,,,,,,,,,,,,,,,,,,,,,,,,,,,,,,
,,5fa48feaddfbd812de13f3bb,65af58158f4b972623180bee,2024-01-23_08h12.22.710,bars,2023.2.3,Win32,59.17159763,657b66ea316d21385b68909f,,,,,,,,,,,,,,,,,,,,,,,,,,,,,,,,,,,,,,,,,,273.1957,273.7695,right,0.5522,,273.7697,3,2,274.764,0,13,13,13,1,0,4,1,3,,,,,,,,,,,,,,,,,,,,,,,,,,,,,,,,,,,,,,,,,
,,5fa48feaddfbd812de13f3bb,65af58158f4b972623180bee,2024-01-23_08h12.22.710,bars,2023.2.3,Win32,59.17159763,657b66ea316d21385b68909f,,,,,,,,,,,,,,,,,,,,,,,,,,,,,,,,,,,,,,,,,,274.7659,275.2985,left,0.5152,,275.2986,2,1,276.2975,0,14,14,14,1,2,6,2,7,,,,,,,,,,,,,,,,,,,,,,,,,,,,,,,,,,,,,,,,,
,,5fa48feaddfbd812de13f3bb,65af58158f4b972623180bee,2024-01-23_08h12.22.710,bars,2023.2.3,Win32,59.17159763,657b66ea316d21385b68909f,,,,,,,,,,,,,,,,,,,,,,,,,,,,,,,,,,,,,,,,,,276.2992,276.7349,left,0.4176,,276.7351,3,1,277.7323,0,15,15,15,1,4,8,3,9,,,,,,,,,,,,,,,,,,,,,,,,,,,,,,,,,,,,,,,,,
,,5fa48feaddfbd812de13f3bb,65af58158f4b972623180bee,2024-01-23_08h12.22.710,bars,2023.2.3,Win32,59.17159763,657b66ea316d21385b68909f,,,,,,,,,,,,,,,,,,,,,,,,,,,,,,,,,,,,,,,,,,277.7327,278.1371,right,0.3866,,278.1371,7,2,279.1285,0,16,16,16,1,6,6,7,7,,,,,,,,,,,,,,,,,,,,,,,,,,,,,,,,,,,,,,,,,
,,5fa48feaddfbd812de13f3bb,65af58158f4b972623180bee,2024-01-23_08h12.22.710,bars,2023.2.3,Win32,59.17159763,657b66ea316d21385b68909f,,,,,,,,,,,,,,,,,,,,,,,,,,,,,,,,,,,,,,,,,,279.1299,279.7349,right,0.5864,,279.7349,5,2,280.7292,0,17,17,17,1,8,4,9,5,,,,,,,,,,,,,,,,,,,,,,,,,,,,,,,,,,,,,,,,,
,,5fa48feaddfbd812de13f3bb,65af58158f4b972623180bee,2024-01-23_08h12.22.710,bars,2023.2.3,Win32,59.17159763,657b66ea316d21385b68909f,,,,,,,,,,,,,,,,,,,,,,,,,,,,,,,,,,,,,,,,,,280.731,281.2798,right,0.5229,,281.28,1,2,282.2832,0,18,18,18,1,6,2,5,1,,,,,,,,,,,,,,,,,,,,,,,,,,,,,,,,,,,,,,,,,
,,5fa48feaddfbd812de13f3bb,65af58158f4b972623180bee,2024-01-23_08h12.22.710,bars,2023.2.3,Win32,59.17159763,657b66ea316d21385b68909f,,,,,,,,,,,,,,,,,,,,,,,,,,,,,,,,,,,,,,,,,,282.2848,282.8532,left,0.5532,,282.8534,7,1,283.8439,0,19,19,19,1,8,0,7,0,,,,,,,,,,,,,,,,,,,,,,,,,,,,,,,,,,,,,,,,,
,,5fa48feaddfbd812de13f3bb,65af58158f4b972623180bee,2024-01-23_08h12.22.710,bars,2023.2.3,Win32,59.17159763,657b66ea316d21385b68909f,,,,,,,,,,,,,,,,,,,,,,,,,,,,,,,,,,,,,,,,,,,,,,,,,,,,,,,,,,,,283.8488,324.3333,space,40.4517,,,,,,,,,,,,,,,,,,,,,,,,,,,,,,,,,,,,,
,,5fa48feaddfbd812de13f3bb,65af58158f4b972623180bee,2024-01-23_08h12.22.710,bars,2023.2.3,Win32,59.17159763,657b66ea316d21385b68909f,,,,,,,,,,,327.2229,328.2126,,,328.7132,328.9611,,141,141,,,,,,,,,,,,,,,,bars/000.png,bars/mask009.png,,,,,,,,,,,,4,2,,,,,,,5,5,4,5,,,,,,324.3879,327.2025,space,2.7967,,328.2138,328.7131,328.9614,331.796,space,2.8099,,331.7973,79,4,332.7969,332.7983,352.1715,space,19.339,,0,0,0,0,1,40,145,,,,,,,,
,,5fa48feaddfbd812de13f3bb,65af58158f4b972623180bee,2024-01-23_08h12.22.710,bars,2023.2.3,Win32,59.17159763,657b66ea316d21385b68909f,,,,,,,,,,,352.2058,353.1784,,,353.6811,353.9288,,148,148,,,,,,,,,,,,,,,,bars/043.png,bars/mask007.png,,,,,,,,,,,,1,2,,,,,,,3,3,2,2,,,,,,,,,,,353.1785,353.6808,353.9288,357.2788,space,3.3361,,357.2789,62,18,358.2788,358.2788,362.2542,space,3.9307,,0,1,1,1,1,30,130,,,,,,,,
,,5fa48feaddfbd812de13f3bb,65af58158f4b972623180bee,2024-01-23_08h12.22.710,bars,2023.2.3,Win32,59.17159763,657b66ea316d21385b68909f,,,,,,,,,,,362.2989,363.2631,,,363.7699,364.0143,,141,141,,,,,,,,,,,,,,,,bars/003.png,bars/mask008.png,,,,,,,,,,,,1,2,,,,,,,5,1,6,1,,,,,,,,,,,363.2633,363.7698,364.0145,366.4391,space,2.4022,,366.4393,64,1,367.4354,367.4355,369.7148,space,2.2203,,0,2,2,2,1,25,140,,,,,,,,
,,5fa48feaddfbd812de13f3bb,65af58158f4b972623180bee,2024-01-23_08h12.22.710,bars,2023.2.3,Win32,59.17159763,657b66ea316d21385b68909f,,,,,,,,,,,369.717,370.7123,,,371.2134,371.4656,,40,220,,,,,,,,,,,,,,,,bars/023.png,bars/mask004.png,,,,,,,,,,,,2,1,,,,,,,3,3,5,4,,,,,,,,,,,370.7123,371.213,371.4659,376.3643,space,4.8761,,376.3648,20,75,377.3529,377.3534,380.5646,space,3.1398,,0,3,3,3,1,20,115,,,,,,,,
,,5fa48feaddfbd812de13f3bb,65af58158f4b972623180bee,2024-01-23_08h12.22.710,bars,2023.2.3,Win32,59.17159763,657b66ea316d21385b68909f,,,,,,,,,,,380.5976,381.5802,,,382.0816,382.3307,,124,124,,,,,,,,,,,,,,,,bars/040.png,bars/mask008.png,,,,,,,,,,,,0,1,,,,,,,1,5,1,5,,,,,,,,,,,381.5802,382.0813,382.3309,385.0302,space,2.6855,,385.0303,16,61,386.0308,386.0312,390.3311,space,4.2417,,0,4,4,4,1,140,5,,,,,,,,
,,5fa48feaddfbd812de13f3bb,65af58158f4b972623180bee,2024-01-23_08h12.22.710,bars,2023.2.3,Win32,59.17159763,657b66ea316d21385b68909f,,,,,,,,,,,390.3741,391.3462,,,391.8324,392.0828,,23,23,,,,,,,,,,,,,,,,bars/007.png,bars/mask001.png,,,,,,,,,,,,0,1,,,,,,,0,3,0,2,,,,,,,,,,,391.3462,391.8321,392.0833,393.9341,space,1.8276,,393.9344,28,32,394.9301,394.9305,398.7662,space,3.773,,0,5,5,5,1,175,55,,,,,,,,
,,5fa48feaddfbd812de13f3bb,65af58158f4b972623180bee,2024-01-23_08h12.22.710,bars,2023.2.3,Win32,59.17159763,657b66ea316d21385b68909f,,,,,,,,,,,398.8097,399.7797,,,400.2798,400.5297,,34,34,,,,,,,,,,,,,,,,bars/013.png,bars/mask003.png,,,,,,,,,,,,0,2,,,,,,,2,1,3,1,,,,,,,,,,,399.7797,400.2798,400.5297,403.7665,space,3.2217,,403.7669,41,24,404.7649,404.765,406.5577,space,1.7147,,0,6,6,6,1,75,10,,,,,,,,
,,5fa48feaddfbd812de13f3bb,65af58158f4b972623180bee,2024-01-23_08h12.22.710,bars,2023.2.3,Win32,59.17159763,657b66ea316d21385b68909f,,,,,,,,,,,406.5582,407.5484,,,408.0485,408.3037,,35,215,,,,,,,,,,,,,,,,bars/008.png,bars/mask001.png,,,,,,,,,,,,0,2,,,,,,,4,3,5,3,,,,,,,,,,,407.5485,408.0484,408.3039,411.6891,space,3.3695,,411.6893,75,35,412.6866,412.6868,414.0852,space,1.3505,,0,7,7,7,1,110,0,,,,,,,,
,,5fa48feaddfbd812de13f3bb,65af58158f4b972623180bee,2024-01-23_08h12.22.710,bars,2023.2.3,Win32,59.17159763,657b66ea316d21385b68909f,,,,,,,,,,,414.0887,415.0801,,,415.5812,415.8321,,165,-15,,,,,,,,,,,,,,,,bars/012.png,bars/mask003.png,,,,,,,,,,,,0,2,,,,,,,2,5,1,6,,,,,,,,,,,415.0803,415.5811,415.8323,421.7654,space,5.9161,,421.7658,75,30,422.7638,422.7638,424.5049,space,1.6952,,0,8,8,8,1,90,15,,,,,,,,
,,5fa48feaddfbd812de13f3bb,65af58158f4b972623180bee,2024-01-23_08h12.22.710,bars,2023.2.3,Win32,59.17159763,657b66ea316d21385b68909f,,,,,,,,,,,424.5052,425.4997,,,425.9979,426.2499,,165,165,,,,,,,,,,,,,,,,bars/001.png,bars/mask008.png,,,,,,,,,,,,0,1,,,,,,,4,3,4,4,,,,,,,,,,,425.4998,425.9978,426.2501,429.4976,space,3.2344,,429.4976,35,80,430.4973,430.4974,431.764,space,1.1928,,0,9,9,9,1,130,85,,,,,,,,
,,5fa48feaddfbd812de13f3bb,65af58158f4b972623180bee,2024-01-23_08h12.22.710,bars,2023.2.3,Win32,59.17159763,657b66ea316d21385b68909f,,,,,,,,,,,431.7649,432.7639,,,433.2544,433.4991,,99,-81,,,,,,,,,,,,,,,,bars/039.png,bars/mask000.png,,,,,,,,,,,,4,2,,,,,,,2,5,3,5,,,,,,,,,,,432.7639,433.2543,433.4994,437.5661,space,4.0507,,437.5665,76,6,438.5701,438.5704,441.2558,space,2.6165,,0,10,10,10,1,175,105,,,,,,,,
,,5fa48feaddfbd812de13f3bb,65af58158f4b972623180bee,2024-01-23_08h12.22.710,bars,2023.2.3,Win32,59.17159763,657b66ea316d21385b68909f,,,,,,,,,,,441.293,442.2641,,,442.7539,442.9976,,47,227,,,,,,,,,,,,,,,,bars/025.png,bars/mask002.png,,,,,,,,,,,,5,2,,,,,,,0,7,0,6,,,,,,,,,,,442.2641,442.7538,442.9976,447.7809,space,4.7721,,447.781,58,7,448.781,448.781,450.3035,space,1.4615,,0,11,11,11,1,105,40,,,,,,,,
,,5fa48feaddfbd812de13f3bb,65af58158f4b972623180bee,2024-01-23_08h12.22.710,bars,2023.2.3,Win32,59.17159763,657b66ea316d21385b68909f,,,,,,,,,,,450.3038,451.2997,,,451.7977,452.0493,,45,45,,,,,,,,,,,,,,,,bars/035.png,bars/mask008.png,,,,,,,,,,,,4,2,,,,,,,0,9,0,8,,,,,,,,,,,451.2997,451.7977,452.0494,455.6004,space,3.5384,,455.6006,50,15,456.6,456.6002,459.1757,space,2.4956,,0,12,12,12,1,175,60,,,,,,,,
,,5fa48feaddfbd812de13f3bb,65af58158f4b972623180bee,2024-01-23_08h12.22.710,bars,2023.2.3,Win32,59.17159763,657b66ea316d21385b68909f,,,,,,,,,,,459.2158,460.1831,,,460.672,460.917,,74,254,,,,,,,,,,,,,,,,bars/019.png,bars/mask000.png,,,,,,,,,,,,0,1,,,,,,,2,7,3,7,,,,,,,,,,,460.1834,460.6718,460.917,467.1178,space,6.1755,,467.1181,29,31,468.1149,468.115,472.2844,space,4.1028,,0,13,13,13,1,45,105,,,,,,,,
,,5fa48feaddfbd812de13f3bb,65af58158f4b972623180bee,2024-01-23_08h12.22.710,bars,2023.2.3,Win32,59.17159763,657b66ea316d21385b68909f,,,,,,,,,,,472.3234,473.2881,,,473.7883,474.0387,,40,220,,,,,,,,,,,,,,,,bars/035.png,bars/mask006.png,,,,,,,,,,,,3,2,,,,,,,0,9,0,10,,,,,,,,,,,473.2883,473.7882,474.0389,478.7428,space,4.6863,,478.7429,45,20,479.7342,479.7344,481.774,space,1.9763,,0,14,14,14,1,175,60,,,,,,,,
,,5fa48feaddfbd812de13f3bb,65af58158f4b972623180bee,2024-01-23_08h12.22.710,bars,2023.2.3,Win32,59.17159763,657b66ea316d21385b68909f,,,,,,,,,,,481.7742,482.7659,,,483.2553,483.5017,,101,101,,,,,,,,,,,,,,,,bars/026.png,bars/mask008.png,,,,,,,,,,,,3,2,,,,,,,0,7,1,7,,,,,,,,,,,482.7662,483.2551,483.5019,485.4892,space,1.9689,,485.4892,66,16,486.4843,486.4844,487.6322,space,1.0888,,0,15,15,15,1,35,85,,,,,,,,
,,5fa48feaddfbd812de13f3bb,65af58158f4b972623180bee,2024-01-23_08h12.22.710,bars,2023.2.3,Win32,59.17159763,657b66ea316d21385b68909f,,,,,,,,,,,487.6325,488.6325,,,489.1321,489.3823,,24,24,,,,,,,,,,,,,,,,bars/035.png,bars/mask006.png,,,,,,,,,,,,0,1,,,,,,,0,9,2,6,,,,,,,,,,,488.6325,489.1321,489.3823,490.4332,space,1.0381,,490.4333,29,36,491.4321,491.4322,491.5508,space,0.0917,,0,16,16,16,1,175,60,,,,,,,,
,,5fa48feaddfbd812de13f3bb,65af58158f4b972623180bee,2024-01-23_08h12.22.710,bars,2023.2.3,Win32,59.17159763,657b66ea316d21385b68909f,,,,,,,,,,,491.553,492.549,,,493.0556,493.3012,,164,-16,,,,,,,,,,,,,,,,bars/024.png,bars/mask006.png,,,,,,,,,,,,6,2,,,,,,,2,7,2,7,,,,,,,,,,,492.549,493.0556,493.3013,498.2006,space,4.8775,,498.2007,44,6,499.1999,499.2004,530.1928,space,30.9183,,0,17,17,17,1,120,170,,,,,,,,
,,5fa48feaddfbd812de13f3bb,65af58158f4b972623180bee,2024-01-23_08h12.22.710,bars,2023.2.3,Win32,59.17159763,657b66ea316d21385b68909f,,,,,,,,,,,530.2387,531.2042,,,531.7071,531.9513,,90,90,,,,,,,,,,,,,,,,bars/026.png,bars/mask004.png,,,,,,,,,,,,3,2,,,,,,,0,5,0,4,,,,,,,,,,,531.2044,531.707,531.9515,536.5594,space,4.5852,,536.5596,55,5,537.5522,537.5524,538.7671,space,1.1509,,0,18,18,18,1,35,85,,,,,,,,
,,5fa48feaddfbd812de13f3bb,65af58158f4b972623180bee,2024-01-23_08h12.22.710,bars,2023.2.3,Win32,59.17159763,657b66ea316d21385b68909f,,,,,,,,,,,538.7676,539.7573,,,540.2525,540.5023,,81,81,,,,,,,,,,,,,,,,bars/047.png,bars/mask002.png,,,,,,,,,,,,5,2,,,,,,,2,7,1,8,,,,,,,,,,,539.7574,540.2523,540.5025,544.7044,space,4.1748,,544.7049,66,11,545.7065,545.7066,547.0045,space,1.2214,,0,19,19,19,1,15,70,,,,,,,,
,,5fa48feaddfbd812de13f3bb,65af58158f4b972623180bee,2024-01-23_08h12.22.710,bars,2023.2.3,Win32,59.17159763,657b66ea316d21385b68909f,,,,,,,,,,,547.0061,548.0023,,,548.5079,548.7522,,76,-104,,,,,,,,,,,,,,,,bars/038.png,bars/mask004.png,,,,,,,,,,,,4,2,,,,,,,0,5,0,5,,,,,,,,,,,548.0024,548.5078,548.7522,553.3359,space,4.5742,,553.3371,89,6,554.3365,554.3369,557.3699,space,2.9695,,0,20,20,20,1,165,70,,,,,,,,
,,5fa48feaddfbd812de13f3bb,65af58158f4b972623180bee,2024-01-23_08h12.22.710,bars,2023.2.3,Win32,59.17159763,657b66ea316d21385b68909f,,,,,,,,,,,557.4267,558.3852,,,558.8858,559.134,,87,87,,,,,,,,,,,,,,,,bars/002.png,bars/mask009.png,,,,,,,,,,,,4,2,,,,,,,2,3,2,4,,,,,,,,,,,558.3853,558.8856,559.134,564.1344,space,4.9863,,564.1344,43,2,565.1342,565.1342,566.8029,space,1.6087,,0,21,21,21,1,130,85,,,,,,,,
,,5fa48feaddfbd812de13f3bb,65af58158f4b972623180bee,2024-01-23_08h12.22.710,bars,2023.2.3,Win32,59.17159763,657b66ea316d21385b68909f,,,,,,,,,,,566.8049,567.8009,,,568.301,568.5521,,115,115,,,,,,,,,,,,,,,,bars/026.png,bars/mask009.png,,,,,,,,,,,,0,2,,,,,,,4,5,3,4,,,,,,,,,,,567.8009,568.301,568.5521,574.7845,space,6.2206,,574.7846,80,30,575.7844,575.7845,576.8852,space,1.0574,,0,22,22,22,1,35,85,,,,,,,,
,,5fa48feaddfbd812de13f3bb,65af58158f4b972623180bee,2024-01-23_08h12.22.710,bars,2023.2.3,Win32,59.17159763,657b66ea316d21385b68909f,,,,,,,,,,,576.8857,577.8847,,,578.3846,578.6345,,79,79,,,,,,,,,,,,,,,,bars/024.png,bars/mask001.png,,,,,,,,,,,,0,1,,,,,,,6,3,5,2,,,,,,,,,,,577.8847,578.3845,578.6346,584.4021,space,5.7551,,584.4026,41,89,585.3912,585.3912,586.4224,space,0.9719,,0,23,23,23,1,120,170,,,,,,,,
,,5fa48feaddfbd812de13f3bb,65af58158f4b972623180bee,2024-01-23_08h12.22.710,bars,2023.2.3,Win32,59.17159763,657b66ea316d21385b68909f,,,,,,,,,,,586.4246,587.4207,,,587.9221,588.1684,,85,265,,,,,,,,,,,,,,,,bars/037.png,bars/mask009.png,,,,,,,,,,,,1,2,,,,,,,4,1,4,3,,,,,,,,,,,587.4208,587.9218,588.1684,595.5686,space,7.3873,,595.5687,65,20,596.5686,596.5687,597.9687,space,1.3417,,0,24,24,24,1,150,105,,,,,,,,
,,5fa48feaddfbd812de13f3bb,65af58158f4b972623180bee,2024-01-23_08h12.22.710,bars,2023.2.3,Win32,59.17159763,657b66ea316d21385b68909f,,,,,,,,,,,597.9696,598.9685,,,599.4685,599.7184,,37,37,,,,,,,,,,,,,,,,bars/036.png,bars/mask000.png,,,,,,,,,,,,0,2,,,,,,,2,0,1,0,,,,,,,,,,,598.9685,599.4685,599.7184,603.4688,space,3.7343,,603.4688,72,17,604.4685,604.4686,605.325,space,0.8084,,0,25,25,25,1,145,20,,,,,,,,
,,5fa48feaddfbd812de13f3bb,65af58158f4b972623180bee,2024-01-23_08h12.22.710,bars,2023.2.3,Win32,59.17159763,657b66ea316d21385b68909f,,,,,,,,,,,605.3268,606.3192,,,606.8256,607.0695,,79,79,,,,,,,,,,,,,,,,bars/028.png,bars/mask004.png,,,,,,,,,,,,0,1,,,,,,,0,0,1,1,,,,,,,,,,,606.3194,606.8255,607.0697,613.1113,space,6.0308,,613.1114,34,41,614.1031,614.1034,615.4382,space,1.2521,,0,26,26,26,1,45,120,,,,,,,,
,,5fa48feaddfbd812de13f3bb,65af58158f4b972623180bee,2024-01-23_08h12.22.710,bars,2023.2.3,Win32,59.17159763,657b66ea316d21385b68909f,,,,,,,,,,,615.4386,616.442,,,616.9372,617.1923,,127,127,,,,,,,,,,,,,,,,bars/028.png,bars/mask009.png,,,,,,,,,,,,0,2,,,,,,,0,0,1,0,,,,,,,,,,,616.4422,616.9368,617.1924,621.5631,space,4.3533,,621.5633,82,7,622.5543,622.5545,626.7233,space,4.0994,,0,27,27,27,1,45,120,,,,,,,,
,,5fa48feaddfbd812de13f3bb,65af58158f4b972623180bee,2024-01-23_08h12.22.710,bars,2023.2.3,Win32,59.17159763,657b66ea316d21385b68909f,,,,,,,,,,,626.7705,627.7359,,,628.2429,628.4931,,6,6,,,,,,,,,,,,,,,,bars/016.png,bars/mask001.png,,,,,,,,,,,,0,2,,,,,,,0,0,0,0,,,,,,,,,,,627.7359,628.2428,628.4933,634.5229,space,6.0115,,634.5234,34,21,635.5209,635.5219,639.0619,space,3.4808,,0,28,28,28,1,40,165,,,,,,,,
,,5fa48feaddfbd812de13f3bb,65af58158f4b972623180bee,2024-01-23_08h12.22.710,bars,2023.2.3,Win32,59.17159763,657b66ea316d21385b68909f,,,,,,,,,,,639.0635,640.0554,,,640.5545,640.8099,,13,193,,,,,,,,,,,,,,,,bars/032.png,bars/mask001.png,,,,,,,,,,,,2,2,,,,,,,0,2,0,2,,,,,,,,,,,640.0556,640.5543,640.8101,647.3311,space,6.504,,647.3311,68,7,648.3205,648.3213,649.5216,space,1.1405,,0,29,29,29,1,125,20,,,,,,,,
,,5fa48feaddfbd812de13f3bb,65af58158f4b972623180bee,2024-01-23_08h12.22.710,bars,2023.2.3,Win32,59.17159763,657b66ea316d21385b68909f,,,,,,,,,,,649.5242,650.5198,,,651.0198,651.2699,,24,24,,,,,,,,,,,,,,,,bars/043.png,bars/mask005.png,,,,,,,,,,,,2,1,,,,,,,2,4,3,3,,,,,,,,,,,650.5198,651.0198,651.2699,657.3885,space,6.1037,,657.3887,6,74,658.3866,658.3867,679.3211,space,20.8733,,0,30,30,30,1,30,130,,,,,,,,
,,5fa48feaddfbd812de13f3bb,65af58158f4b972623180bee,2024-01-23_08h12.22.710,bars,2023.2.3,Win32,59.17159763,657b66ea316d21385b68909f,,,,,,,,,,,679.3421,680.3374,,,680.8378,681.0873,,10,190,,,,,,,,,,,,,,,,bars/012.png,bars/mask002.png,,,,,,,,,,,,2,2,,,,,,,4,2,4,2,,,,,,,,,,,680.3374,680.8376,681.0873,683.4729,space,2.3701,,683.4731,80,5,684.4707,684.4707,685.4716,space,0.94,,0,31,31,31,1,90,15,,,,,,,,
,,5fa48feaddfbd812de13f3bb,65af58158f4b972623180bee,2024-01-23_08h12.22.710,bars,2023.2.3,Win32,59.17159763,657b66ea316d21385b68909f,,,,,,,,,,,685.4746,686.4721,,,686.9736,687.2113,,10,190,,,,,,,,,,,,,,,,bars/031.png,bars/mask001.png,,,,,,,,,,,,1,2,,,,,,,6,4,6,4,,,,,,,,,,,686.4723,686.9735,687.2114,691.0973,space,3.8693,,691.0975,70,25,692.0899,692.0902,693.0561,space,0.9041,,0,32,32,32,1,120,35,,,,,,,,
,,5fa48feaddfbd812de13f3bb,65af58158f4b972623180bee,2024-01-23_08h12.22.710,bars,2023.2.3,Win32,59.17159763,657b66ea316d21385b68909f,,,,,,,,,,,693.0584,694.0541,,,694.5545,694.8042,,115,115,,,,,,,,,,,,,,,,bars/002.png,bars/mask004.png,,,,,,,,,,,,4,1,,,,,,,8,6,7,5,,,,,,,,,,,694.0541,694.5545,694.8043,699.5061,space,4.6885,,699.5063,15,30,700.495,700.4951,702.9548,space,2.3944,,0,33,33,33,1,130,85,,,,,,,,
,,5fa48feaddfbd812de13f3bb,65af58158f4b972623180bee,2024-01-23_08h12.22.710,bars,2023.2.3,Win32,59.17159763,657b66ea316d21385b68909f,,,,,,,,,,,702.9556,703.9546,,,704.445,704.6948,,27,27,,,,,,,,,,,,,,,,bars/029.png,bars/mask002.png,,,,,,,,,,,,2,2,,,,,,,6,4,6,5,,,,,,,,,,,703.9546,704.4449,704.6949,706.8956,space,2.1856,,706.8956,63,18,707.8885,707.8887,708.7649,space,0.8147,,0,34,34,34,1,90,45,,,,,,,,
,,5fa48feaddfbd812de13f3bb,65af58158f4b972623180bee,2024-01-23_08h12.22.710,bars,2023.2.3,Win32,59.17159763,657b66ea316d21385b68909f,,,,,,,,,,,708.7653,709.7572,,,710.256,710.5058,,99,99,,,,,,,,,,,,,,,,bars/007.png,bars/mask006.png,,,,,,,,,,,,0,2,,,,,,,8,2,7,3,,,,,,,,,,,709.7575,710.2558,710.5062,715.605,space,5.0758,,715.6051,76,44,716.6049,716.6051,717.5569,space,0.8885,,0,35,35,35,1,175,55,,,,,,,,
,,5fa48feaddfbd812de13f3bb,65af58158f4b972623180bee,2024-01-23_08h12.22.710,bars,2023.2.3,Win32,59.17159763,657b66ea316d21385b68909f,,,,,,,,,,,717.5606,718.555,,,719.0578,719.308,,108,108,,,,,,,,,,,,,,,,bars/005.png,bars/mask007.png,,,,,,,,,,,,0,2,,,,,,,6,0,7,0,,,,,,,,,,,718.555,719.0574,719.3081,725.5906,space,6.2588,,725.5908,82,32,726.5787,726.5788,727.5427,space,0.9055,,0,36,36,36,1,10,140,,,,,,,,
,,5fa48feaddfbd812de13f3bb,65af58158f4b972623180bee,2024-01-23_08h12.22.710,bars,2023.2.3,Win32,59.17159763,657b66ea316d21385b68909f,,,,,,,,,,,727.5452,728.5407,,,729.0392,729.2958,,51,51,,,,,,,,,,,,,,,,bars/029.png,bars/mask009.png,,,,,,,,,,,,1,2,,,,,,,4,2,3,1,,,,,,,,,,,728.5409,729.039,729.2959,731.7085,space,2.3938,,731.7088,39,6,732.7123,732.7125,733.6751,space,0.8985,,0,37,37,37,1,90,45,,,,,,,,
,,5fa48feaddfbd812de13f3bb,65af58158f4b972623180bee,2024-01-23_08h12.22.710,bars,2023.2.3,Win32,59.17159763,657b66ea316d21385b68909f,,,,,,,,,,,733.6804,734.6747,,,735.1723,735.4247,,143,143,,,,,,,,,,,,,,,,bars/024.png,bars/mask008.png,,,,,,,,,,,,0,1,,,,,,,2,4,1,4,,,,,,,,,,,734.675,735.1723,735.4248,740.4252,space,4.9838,,740.4263,23,27,741.4225,741.4226,742.6557,space,1.1763,,0,38,38,38,1,120,170,,,,,,,,
,,5fa48feaddfbd812de13f3bb,65af58158f4b972623180bee,2024-01-23_08h12.22.710,bars,2023.2.3,Win32,59.17159763,657b66ea316d21385b68909f,,,,,,,,,,,742.6561,743.6573,,,744.1559,744.4059,,153,153,,,,,,,,,,,,,,,,bars/020.png,bars/mask003.png,,,,,,,,,,,,3,2,,,,,,,4,6,4,6,,,,,,,,,,,743.6574,744.1558,744.4059,745.7727,space,1.3519,,745.7728,38,17,746.7727,746.7727,747.8085,space,0.9922,,0,39,39,39,1,115,170,,,,,,,,
,,5fa48feaddfbd812de13f3bb,65af58158f4b972623180bee,2024-01-23_08h12.22.710,bars,2023.2.3,Win32,59.17159763,657b66ea316d21385b68909f,,,,,,,,,,,747.8104,748.8058,,,749.3073,749.5571,,162,162,,,,,,,,,,,,,,,,bars/043.png,bars/mask003.png,,,,,,,,,,,,0,2,,,,,,,2,4,2,2,,,,,,,,,,,748.8058,749.3072,749.5573,753.7726,space,4.1989,,753.7727,48,32,754.7724,754.7725,755.992,space,1.1708,,0,40,40,40,1,30,130,,,,,,,,
,,5fa48feaddfbd812de13f3bb,65af58158f4b972623180bee,2024-01-23_08h12.22.710,bars,2023.2.3,Win32,59.17159763,657b66ea316d21385b68909f,,,,,,,,,,,755.9941,756.9929,,,757.496,757.7417,,161,161,,,,,,,,,,,,,,,,bars/016.png,bars/mask003.png,,,,,,,,,,,,2,2,,,,,,,4,2,7,2,,,,,,,,,,,756.993,757.4958,757.7418,759.2296,space,1.4686,,759.2297,59,4,760.229,760.2291,761.4923,space,1.2435,,0,41,41,41,1,40,165,,,,,,,,
,,5fa48feaddfbd812de13f3bb,65af58158f4b972623180bee,2024-01-23_08h12.22.710,bars,2023.2.3,Win32,59.17159763,657b66ea316d21385b68909f,,,,,,,,,,,761.4948,762.4912,,,762.9969,763.2471,,86,86,,,,,,,,,,,,,,,,bars/028.png,bars/mask000.png,,,,,,,,,,,,0,2,,,,,,,6,4,7,5,,,,,,,,,,,762.4913,762.9968,763.2471,767.691,space,4.4231,,767.6914,41,34,768.6959,768.6961,769.7983,space,1.038,,0,42,42,42,1,45,120,,,,,,,,
,,5fa48feaddfbd812de13f3bb,65af58158f4b972623180bee,2024-01-23_08h12.22.710,bars,2023.2.3,Win32,59.17159763,657b66ea316d21385b68909f,,,,,,,,,,,769.8004,770.7921,,,771.2928,771.5396,,136,136,,,,,,,,,,,,,,,,bars/022.png,bars/mask008.png,,,,,,,,,,,,0,1,,,,,,,4,2,4,3,,,,,,,,,,,770.7923,771.2923,771.5396,774.0415,space,2.4871,,774.0418,41,64,775.0418,775.042,776.1575,space,1.0258,,0,43,43,43,1,95,20,,,,,,,,
,,5fa48feaddfbd812de13f3bb,65af58158f4b972623180bee,2024-01-23_08h12.22.710,bars,2023.2.3,Win32,59.17159763,657b66ea316d21385b68909f,,,,,,,,,,,776.158,777.1581,,,777.6587,777.908,,145,145,,,,,,,,,,,,,,,,bars/023.png,bars/mask003.png,,,,,,,,,,,,0,2,,,,,,,6,0,5,1,,,,,,,,,,,777.1582,777.6586,777.9082,779.9756,space,2.0524,,779.976,55,30,780.9747,780.9748,805.7103,space,24.6475,,0,44,44,44,1,20,115,,,,,,,,
,,5fa48feaddfbd812de13f3bb,65af58158f4b972623180bee,2024-01-23_08h12.22.710,bars,2023.2.3,Win32,59.17159763,657b66ea316d21385b68909f,,,,,,,,,,,805.7673,806.725,,,807.2321,807.4812,,121,121,,,,,,,,,,,,,,,,bars/037.png,bars/mask000.png,,,,,,,,,,,,0,2,,,,,,,4,0,3,0,,,,,,,,,,,806.7253,807.2321,807.4812,813.9343,space,6.4357,,813.9346,29,16,814.9262,814.9264,825.1262,space,10.1319,,0,45,45,45,1,150,105,,,,,,,,
,,5fa48feaddfbd812de13f3bb,65af58158f4b972623180bee,2024-01-23_08h12.22.710,bars,2023.2.3,Win32,59.17159763,657b66ea316d21385b68909f,,,,,,,,,,,825.1638,826.1277,,,826.6273,826.8747,,139,139,,,,,,,,,,,,,,,,bars/005.png,bars/mask003.png,,,,,,,,,,,,1,2,,,,,,,6,2,6,1,,,,,,,,,,,826.1279,826.6271,826.8748,831.0676,space,4.1823,,831.0677,51,1,832.0644,832.0647,833.9417,space,1.8321,,0,46,46,46,1,10,140,,,,,,,,
,,5fa48feaddfbd812de13f3bb,65af58158f4b972623180bee,2024-01-23_08h12.22.710,bars,2023.2.3,Win32,59.17159763,657b66ea316d21385b68909f,,,,,,,,,,,833.9435,834.9435,,,835.4417,835.6921,,106,106,,,,,,,,,,,,,,,,bars/004.png,bars/mask006.png,,,,,,,,,,,,2,2,,,,,,,4,4,3,5,,,,,,,,,,,834.9436,835.4417,835.6921,838.1106,space,2.4043,,838.111,81,19,839.1114,839.1115,840.2757,space,1.1431,,0,47,47,47,1,25,125,,,,,,,,
,,5fa48feaddfbd812de13f3bb,65af58158f4b972623180bee,2024-01-23_08h12.22.710,bars,2023.2.3,Win32,59.17159763,657b66ea316d21385b68909f,,,,,,,,,,,840.2764,841.2749,,,841.7789,842.0279,,27,27,,,,,,,,,,,,,,,,bars/022.png,bars/mask009.png,,,,,,,,,,,,2,2,,,,,,,2,2,2,3,,,,,,,,,,,841.2749,841.7787,842.028,845.6613,space,3.618,,845.6614,68,7,846.6601,846.6602,847.71,space,0.9719,,0,48,48,48,1,95,20,,,,,,,,
,,5fa48feaddfbd812de13f3bb,65af58158f4b972623180bee,2024-01-23_08h12.22.710,bars,2023.2.3,Win32,59.17159763,657b66ea316d21385b68909f,,,,,,,,,,,847.7105,848.7098,,,849.1989,849.4489,,87,87,,,,,,,,,,,,,,,,bars/019.png,bars/mask007.png,,,,,,,,,,,,0,2,,,,,,,0,0,0,0,,,,,,,,,,,848.7099,849.1988,849.449,852.8333,space,3.3684,,852.8333,42,18,853.8278,853.8279,854.7348,space,0.8341,,0,49,49,49,1,45,105,,,,,,,,
,,5fa48feaddfbd812de13f3bb,65af58158f4b972623180bee,2024-01-23_08h12.22.710,bars,2023.2.3,Win32,59.17159763,657b66ea316d21385b68909f,,,,,,,,,,,,,,,,,,,,,,,,,,,,,,,,,,,,,,,,,,,,,,,,,,,,,,,,,,,,,,,,,,,,,,,,,,,,,,,,,,,,,,,,,,,,,854.7359,914.737,0,0,0,0,1,sequence_tables/blk014.csv
,,5fa48feaddfbd812de13f3bb,65af58158f4b972623180bee,2024-01-23_08h12.22.710,bars,2023.2.3,Win32,59.17159763,657b66ea316d21385b68909f,,,,,,,,,,,919.4888,920.4616,,,920.9454,921.1975,,139,139,,,,,,,,,,,,,,,,bars/004.png,bars/mask002.png,,,,,,,,,,,,3,2,,,,,,,8,4,8,5,,,,,,914.7572,919.4443,space,4.6731,,920.4617,920.9453,921.1976,928.6178,space,7.4032,,928.618,66,14,929.6127,929.6128,929.655,,,,0,0,0,0,1,25,125,,,,,,,,
,,5fa48feaddfbd812de13f3bb,65af58158f4b972623180bee,2024-01-23_08h12.22.710,bars,2023.2.3,Win32,59.17159763,657b66ea316d21385b68909f,,,,,,,,,,,929.6561,930.644,,,931.1441,931.394,,104,104,,,,,,,,,,,,,,,,bars/013.png,bars/mask008.png,,,,,,,,,,,,0,1,,,,,,,10,6,10,8,,,,,,,,,,,930.6441,931.1441,931.394,934.6776,space,3.27,,934.6777,29,86,935.6775,935.6775,935.7211,,,,0,1,1,1,1,75,10,,,,,,,,
,,5fa48feaddfbd812de13f3bb,65af58158f4b972623180bee,2024-01-23_08h12.22.710,bars,2023.2.3,Win32,59.17159763,657b66ea316d21385b68909f,,,,,,,,,,,935.7222,936.7121,,,937.212,937.461,,147,147,,,,,,,,,,,,,,,,bars/015.png,bars/mask009.png,,,,,,,,,,,,3,2,,,,,,,10,4,10,5,,,,,,,,,,,936.7121,937.212,937.461,944.328,space,6.8545,,944.328,37,13,945.3277,945.3277,945.3706,,,,0,2,2,2,1,110,160,,,,,,,,
,,5fa48feaddfbd812de13f3bb,65af58158f4b972623180bee,2024-01-23_08h12.22.710,bars,2023.2.3,Win32,59.17159763,657b66ea316d21385b68909f,,,,,,,,,,,945.3721,946.3611,,,946.8615,947.1112,,174,174,,,,,,,,,,,,,,,,bars/024.png,bars/mask001.png,,,,,,,,,,,,4,2,,,,,,,8,6,8,5,,,,,,,,,,,946.3612,946.8614,947.1112,952.9117,space,5.7901,,952.9117,54,4,953.9113,953.9113,953.9592,,,,0,3,3,3,1,120,170,,,,,,,,
,,5fa48feaddfbd812de13f3bb,65af58158f4b972623180bee,2024-01-23_08h12.22.710,bars,2023.2.3,Win32,59.17159763,657b66ea316d21385b68909f,,,,,,,,,,,953.9606,954.9614,,,955.4614,955.7113,,87,87,,,,,,,,,,,,,,,,bars/002.png,bars/mask003.png,,,,,,,,,,,,8,2,,,,,,,10,8,10,9,,,,,,,,,,,954.9614,955.4614,955.7113,961.012,space,5.29,,961.012,43,2,962.0115,962.0115,962.049,,,,0,4,4,4,1,130,85,,,,,,,,
,,5fa48feaddfbd812de13f3bb,65af58158f4b972623180bee,2024-01-23_08h12.22.710,bars,2023.2.3,Win32,59.17159763,657b66ea316d21385b68909f,,,,,,,,,,,962.0493,963.0516,,,963.5473,963.7975,,105,105,,,,,,,,,,,,,,,,bars/025.png,bars/mask005.png,,,,,,,,,,,,8,1,,,,,,,8,10,8,10,,,,,,,,,,,963.0517,963.5472,963.7976,969.8233,space,6.0035,,969.8235,0,65,970.8183,970.8184,970.8612,,,,0,5,5,5,1,105,40,,,,,,,,
,,5fa48feaddfbd812de13f3bb,65af58158f4b972623180bee,2024-01-23_08h12.22.710,bars,2023.2.3,Win32,59.17159763,657b66ea316d21385b68909f,,,,,,,,,,,970.8633,971.8619,,,972.3635,972.6138,,71,71,,,,,,,,,,,,,,,,bars/007.png,bars/mask002.png,,,,,,,,,,,,5,2,,,,,,,10,10,10,10,,,,,,,,,,,971.8619,972.3634,972.6139,974.9956,space,2.3681,,974.9957,76,16,975.9977,975.9979,976.036,,,,0,6,6,6,1,175,55,,,,,,,,
,,5fa48feaddfbd812de13f3bb,65af58158f4b972623180bee,2024-01-23_08h12.22.710,bars,2023.2.3,Win32,59.17159763,657b66ea316d21385b68909f,,,,,,,,,,,976.0373,977.0288,,,977.5289,977.7787,,133,133,,,,,,,,,,,,,,,,bars/016.png,bars/mask007.png,,,,,,,,,,,,0,2,,,,,,,8,10,7,10,,,,,,,,,,,977.0288,977.5289,977.7787,982.4457,space,4.6547,,982.4457,87,32,983.4458,983.4458,983.4753,,,,0,7,7,7,1,40,165,,,,,,,,
,,5fa48feaddfbd812de13f3bb,65af58158f4b972623180bee,2024-01-23_08h12.22.710,bars,2023.2.3,Win32,59.17159763,657b66ea316d21385b68909f,,,,,,,,,,,983.4755,984.4789,,,984.9818,985.2293,,50,50,,,,,,,,,,,,,,,,bars/018.png,bars/mask008.png,,,,,,,,,,,,0,2,,,,,,,6,10,6,10,,,,,,,,,,,984.4789,984.9816,985.2298,986.0982,space,0.8412,,986.0984,80,40,987.0964,987.0966,987.101,,,,0,8,8,8,1,150,90,,,,,,,,
,,5fa48feaddfbd812de13f3bb,65af58158f4b972623180bee,2024-01-23_08h12.22.710,bars,2023.2.3,Win32,59.17159763,657b66ea316d21385b68909f,,,,,,,,,,,987.1021,988.0975,,,988.5866,988.8318,,59,59,,,,,,,,,,,,,,,,bars/019.png,bars/mask003.png,,,,,,,,,,,,4,1,,,,,,,8,8,8,8,,,,,,,,,,,988.0976,988.5864,988.8319,993.3555,space,4.5023,,993.3559,14,46,994.3522,994.3522,994.4019,,,,0,9,9,9,1,45,105,,,,,,,,
,,5fa48feaddfbd812de13f3bb,65af58158f4b972623180bee,2024-01-23_08h12.22.710,bars,2023.2.3,Win32,59.17159763,657b66ea316d21385b68909f,,,,,,,,,,,994.4029,995.3974,,,995.8959,996.1459,,167,-13,,,,,,,,,,,,,,,,bars/024.png,bars/mask000.png,,,,,,,,,,,,9,2,,,,,,,6,10,4,10,,,,,,,,,,,995.3975,995.8958,996.1459,1003.4978,space,7.337,,1003.498,47,3,1004.5027,1004.5029,1004.5364,,,,0,10,10,10,1,120,170,,,,,,,,
,,5fa48feaddfbd812de13f3bb,65af58158f4b972623180bee,2024-01-23_08h12.22.710,bars,2023.2.3,Win32,59.17159763,657b66ea316d21385b68909f,,,,,,,,,,,1004.5378,1005.5293,,,1006.0294,1006.2794,,117,117,,,,,,,,,,,,,,,,bars/020.png,bars/mask005.png,,,,,,,,,,,,3,1,,,,,,,4,8,3,10,,,,,,,,,,,1005.5293,1006.0294,1006.2794,1010.5963,space,4.3025,,1010.5964,2,53,1011.5963,1011.5964,1011.6212,,,,0,11,11,11,1,115,170,,,,,,,,
,,5fa48feaddfbd812de13f3bb,65af58158f4b972623180bee,2024-01-23_08h12.22.710,bars,2023.2.3,Win32,59.17159763,657b66ea316d21385b68909f,,,,,,,,,,,1011.6222,1012.6131,,,1013.1133,1013.3632,,55,55,,,,,,,,,,,,,,,,bars/007.png,bars/mask006.png,,,,,,,,,,,,5,2,,,,,,,6,6,6,5,,,,,,,,,,,1012.6132,1013.1133,1013.3632,1017.1653,space,3.7882,,1017.1655,60,0,1018.1633,1018.1634,1018.2107,,,,0,12,12,12,1,175,55,,,,,,,,
,,5fa48feaddfbd812de13f3bb,65af58158f4b972623180bee,2024-01-23_08h12.22.710,bars,2023.2.3,Win32,59.17159763,657b66ea316d21385b68909f,,,,,,,,,,,1018.2121,1019.2129,,,1019.7157,1019.9691,,128,128,,,,,,,,,,,,,,,,bars/011.png,bars/mask006.png,,,,,,,,,,,,0,1,,,,,,,8,8,7,7,,,,,,,,,,,1019.213,1019.7155,1019.9693,1023.3522,space,3.3661,,1023.3522,32,43,1024.3483,1024.3485,1024.391,,,,0,13,13,13,1,160,85,,,,,,,,
,,5fa48feaddfbd812de13f3bb,65af58158f4b972623180bee,2024-01-23_08h12.22.710,bars,2023.2.3,Win32,59.17159763,657b66ea316d21385b68909f,,,,,,,,,,,1024.3926,1025.3966,,,1025.8967,1026.1466,,105,105,,,,,,,,,,,,,,,,bars/011.png,bars/mask007.png,,,,,,,,,,,,3,2,,,,,,,6,10,6,10,,,,,,,,,,,1025.3966,1025.8967,1026.1467,1028.4134,space,2.2534,,1028.4134,55,20,1029.4133,1029.4134,1029.4449,,,,0,14,14,14,1,160,85,,,,,,,,
,,5fa48feaddfbd812de13f3bb,65af58158f4b972623180bee,2024-01-23_08h12.22.710,bars,2023.2.3,Win32,59.17159763,657b66ea316d21385b68909f,,,,,,,,,,,1029.4478,1030.4369,,,1030.9373,1031.1804,,60,60,,,,,,,,,,,,,,,,bars/029.png,bars/mask000.png,,,,,,,,,,,,5,2,,,,,,,4,10,5,10,,,,,,,,,,,1030.4371,1030.937,1031.1806,1033.5484,space,2.3409,,1033.5497,30,15,1034.5542,1034.5544,1034.5564,,,,0,15,15,15,1,90,45,,,,,,,,
,,5fa48feaddfbd812de13f3bb,65af58158f4b972623180bee,2024-01-23_08h12.22.710,bars,2023.2.3,Win32,59.17159763,657b66ea316d21385b68909f,,,,,,,,,,,1034.5567,1035.548,,,1036.0494,1036.299,,85,85,,,,,,,,,,,,,,,,bars/000.png,bars/mask003.png,,,,,,,,,,,,0,1,,,,,,,2,8,3,7,,,,,,,,,,,1035.5482,1036.0493,1036.2991,1039.3167,space,3.0099,,1039.3168,45,60,1040.3147,1040.315,1040.3608,,,,0,16,16,16,1,40,145,,,,,,,,
,,5fa48feaddfbd812de13f3bb,65af58158f4b972623180bee,2024-01-23_08h12.22.710,bars,2023.2.3,Win32,59.17159763,657b66ea316d21385b68909f,,,,,,,,,,,1040.3609,1041.3636,,,1041.8638,1042.1187,,114,114,,,,,,,,,,,,,,,,bars/023.png,bars/mask009.png,,,,,,,,,,,,7,2,,,,,,,4,6,4,7,,,,,,,,,,,1041.3636,1041.8638,1042.1187,1044.4166,space,2.2892,,1044.4168,86,1,1045.4159,1045.416,1045.4491,,,,0,17,17,17,1,20,115,,,,,,,,
,,5fa48feaddfbd812de13f3bb,65af58158f4b972623180bee,2024-01-23_08h12.22.710,bars,2023.2.3,Win32,59.17159763,657b66ea316d21385b68909f,,,,,,,,,,,1045.4493,1046.4472,,,1046.9374,1047.185,,39,39,,,,,,,,,,,,,,,,bars/036.png,bars/mask006.png,,,,,,,,,,,,2,2,,,,,,,6,4,6,5,,,,,,,,,,,1046.4473,1046.9372,1047.1852,1053.1546,space,5.951,,1053.1547,74,19,1054.1496,1054.1497,1054.2089,,,,0,18,18,18,1,145,20,,,,,,,,
,,5fa48feaddfbd812de13f3bb,65af58158f4b972623180bee,2024-01-23_08h12.22.710,bars,2023.2.3,Win32,59.17159763,657b66ea316d21385b68909f,,,,,,,,,,,1054.2103,1055.2154,,,1055.7159,1055.9667,,178,-2,,,,,,,,,,,,,,,,bars/048.png,bars/mask006.png,,,,,,,,,,,,3,2,,,,,,,4,2,3,3,,,,,,,,,,,1055.2155,1055.7158,1055.9668,1057.9559,space,1.9784,,1057.956,52,3,1058.9523,1058.9563,1059.0121,,,,0,19,19,19,1,50,175,,,,,,,,
,,5fa48feaddfbd812de13f3bb,65af58158f4b972623180bee,2024-01-23_08h12.22.710,bars,2023.2.3,Win32,59.17159763,657b66ea316d21385b68909f,,,,,,,,,,,1059.0147,1060.0048,,,1060.4981,1060.7475,,172,172,,,,,,,,,,,,,,,,bars/021.png,bars/mask007.png,,,,,,,,,,,,0,1,,,,,,,2,0,1,0,,,,,,,,,,,1060.0051,1060.498,1060.7475,1061.2496,space,0.4853,,1061.2498,17,78,1062.2489,1062.249,1062.2581,,,,0,20,20,20,1,155,70,,,,,,,,
,,5fa48feaddfbd812de13f3bb,65af58158f4b972623180bee,2024-01-23_08h12.22.710,bars,2023.2.3,Win32,59.17159763,657b66ea316d21385b68909f,,,,,,,,,,,1062.2593,1063.2476,,,1063.7476,1063.9976,,111,111,,,,,,,,,,,,,,,,bars/002.png,bars/mask009.png,,,,,,,,,,,,2,1,,,,,,,4,0,5,0,,,,,,,,,,,1063.2476,1063.7476,1063.9976,1069.8655,space,5.8543,,1069.8655,19,26,1070.8662,1070.8663,1070.9076,,,,0,21,21,21,1,130,85,,,,,,,,
,,5fa48feaddfbd812de13f3bb,65af58158f4b972623180bee,2024-01-23_08h12.22.710,bars,2023.2.3,Win32,59.17159763,657b66ea316d21385b68909f,,,,,,,,,,,1070.9086,1071.8998,,,1072.3979,1072.6479,,41,41,,,,,,,,,,,,,,,,bars/008.png,bars/mask005.png,,,,,,,,,,,,0,2,,,,,,,6,0,5,0,,,,,,,,,,,1071.9,1072.3979,1072.6479,1075.6814,space,3.017,,1075.6814,69,41,1076.6815,1076.6815,1076.7095,,,,0,22,22,22,1,110,0,,,,,,,,
,,5fa48feaddfbd812de13f3bb,65af58158f4b972623180bee,2024-01-23_08h12.22.710,bars,2023.2.3,Win32,59.17159763,657b66ea316d21385b68909f,,,,,,,,,,,1076.7098,1077.6981,,,1078.2026,1078.4548,,91,91,,,,,,,,,,,,,,,,bars/049.png,bars/mask000.png,,,,,,,,,,,,0,2,,,,,,,8,0,8,0,,,,,,,,,,,1077.6981,1078.2024,1078.455,1094.5072,space,16.0362,,1094.5074,69,24,1095.4991,1095.4994,1095.5311,,,,0,23,23,23,1,160,115,,,,,,,,
,,5fa48feaddfbd812de13f3bb,65af58158f4b972623180bee,2024-01-23_08h12.22.710,bars,2023.2.3,Win32,59.17159763,657b66ea316d21385b68909f,,,,,,,,,,,1095.5338,1096.5216,,,1097.0218,1097.2674,,66,66,,,,,,,,,,,,,,,,bars/048.png,bars/mask004.png,,,,,,,,,,,,5,1,,,,,,,10,0,10,2,,,,,,,,,,,1096.5219,1097.0217,1097.2674,1100.2352,space,2.9433,,1100.2353,16,71,1101.2377,1101.2379,1101.2725,,,,0,24,24,24,1,50,175,,,,,,,,
,,5fa48feaddfbd812de13f3bb,65af58158f4b972623180bee,2024-01-23_08h12.22.710,bars,2023.2.3,Win32,59.17159763,657b66ea316d21385b68909f,,,,,,,,,,,1101.2739,1102.2653,,,1102.7655,1103.0153,,107,107,,,,,,,,,,,,,,,,bars/016.png,bars/mask007.png,,,,,,,,,,,,0,2,,,,,,,10,2,10,3,,,,,,,,,,,1102.2653,1102.7654,1103.0153,1105.5846,space,2.5531,,1105.5849,67,58,1106.5841,1106.5843,1106.6189,,,,0,25,25,25,1,40,165,,,,,,,,
,,5fa48feaddfbd812de13f3bb,65af58158f4b972623180bee,2024-01-23_08h12.22.710,bars,2023.2.3,Win32,59.17159763,657b66ea316d21385b68909f,,,,,,,,,,,1106.6203,1107.616,,,1108.1268,1108.3659,,75,75,,,,,,,,,,,,,,,,bars/025.png,bars/mask005.png,,,,,,,,,,,,0,1,,,,,,,8,4,7,3,,,,,,,,,,,1107.6163,1108.1267,1108.366,1110.7222,space,2.3467,,1110.7223,30,35,1111.7212,1111.7212,1111.762,,,,0,26,26,26,1,105,40,,,,,,,,
,,5fa48feaddfbd812de13f3bb,65af58158f4b972623180bee,2024-01-23_08h12.22.710,bars,2023.2.3,Win32,59.17159763,657b66ea316d21385b68909f,,,,,,,,,,,1111.7636,1112.7658,,,1113.2727,1113.5175,,153,153,,,,,,,,,,,,,,,,bars/049.png,bars/mask004.png,,,,,,,,,,,,5,1,,,,,,,6,2,7,2,,,,,,,,,,,1112.766,1113.2727,1113.5176,1118.7013,space,5.1584,,1118.7015,7,38,1119.6991,1119.6993,1119.7451,,,,0,27,27,27,1,160,115,,,,,,,,
,,5fa48feaddfbd812de13f3bb,65af58158f4b972623180bee,2024-01-23_08h12.22.710,bars,2023.2.3,Win32,59.17159763,657b66ea316d21385b68909f,,,,,,,,,,,1119.7454,1120.7491,,,1121.2394,1121.4859,,105,105,,,,,,,,,,,,,,,,bars/038.png,bars/mask005.png,,,,,,,,,,,,0,2,,,,,,,4,0,3,1,,,,,,,,,,,1120.7492,1121.2393,1121.486,1125.7017,space,4.1892,,1125.7019,60,35,1126.7009,1126.7012,1126.7472,,,,0,28,28,28,1,165,70,,,,,,,,
,,5fa48feaddfbd812de13f3bb,65af58158f4b972623180bee,2024-01-23_08h12.22.710,bars,2023.2.3,Win32,59.17159763,657b66ea316d21385b68909f,,,,,,,,,,,1126.7482,1127.7494,,,1128.2494,1128.4994,,153,153,,,,,,,,,,,,,,,,bars/020.png,bars/mask008.png,,,,,,,,,,,,0,2,,,,,,,6,2,6,1,,,,,,,,,,,1127.7495,1128.2494,1128.4995,1132.4869,space,3.9705,,1132.4871,38,17,1133.4829,1133.4829,1133.5055,,,,0,29,29,29,1,115,170,,,,,,,,
,,5fa48feaddfbd812de13f3bb,65af58158f4b972623180bee,2024-01-23_08h12.22.710,bars,2023.2.3,Win32,59.17159763,657b66ea316d21385b68909f,,,,,,,,,,,1133.5064,1134.5018,,,1135,1135.2562,,148,-32,,,,,,,,,,,,,,,,bars/003.png,bars/mask006.png,,,,,,,,,,,,1,2,,,,,,,4,0,2,1,,,,,,,,,,,1134.5018,1134.9997,1135.2564,1138.0533,space,2.7753,,1138.0534,57,8,1139.0561,1139.0562,1139.0814,,,,0,30,30,30,1,25,140,,,,,,,,
,,5fa48feaddfbd812de13f3bb,65af58158f4b972623180bee,2024-01-23_08h12.22.710,bars,2023.2.3,Win32,59.17159763,657b66ea316d21385b68909f,,,,,,,,,,,1139.0842,1140.0832,,,1140.5829,1140.8352,,58,58,,,,,,,,,,,,,,,,bars/019.png,bars/mask005.png,,,,,,,,,,,,1,1,,,,,,,2,2,1,3,,,,,,,,,,,1140.0832,1140.5829,1140.8353,1143.4165,space,2.5633,,1143.4166,13,47,1144.4164,1144.4164,1144.4404,,,,0,31,31,31,1,45,105,,,,,,,,
,,5fa48feaddfbd812de13f3bb,65af58158f4b972623180bee,2024-01-23_08h12.22.710,bars,2023.2.3,Win32,59.17159763,657b66ea316d21385b68909f,,,,,,,,,,,1144.4415,1145.434,,,1145.9339,1146.1897,,46,46,,,,,,,,,,,,,,,,bars/032.png,bars/mask004.png,,,,,,,,,,,,1,2,,,,,,,4,4,3,4,,,,,,,,,,,1145.4342,1145.9338,1146.1897,1151.0509,space,4.842,,1151.0512,79,26,1152.0514,1152.0523,1152.0787,,,,0,32,32,32,1,125,20,,,,,,,,
,,5fa48feaddfbd812de13f3bb,65af58158f4b972623180bee,2024-01-23_08h12.22.710,bars,2023.2.3,Win32,59.17159763,657b66ea316d21385b68909f,,,,,,,,,,,1152.0789,1153.0667,,,1153.5668,1153.8167,,141,141,,,,,,,,,,,,,,,,bars/024.png,bars/mask005.png,,,,,,,,,,,,1,1,,,,,,,6,6,4,4,,,,,,,,,,,1153.0668,1153.5667,1153.8167,1157.7691,space,3.9406,,1157.7693,21,29,1158.7669,1158.767,1158.8232,,,,0,33,33,33,1,120,170,,,,,,,,
,,5fa48feaddfbd812de13f3bb,65af58158f4b972623180bee,2024-01-23_08h12.22.710,bars,2023.2.3,Win32,59.17159763,657b66ea316d21385b68909f,,,,,,,,,,,1158.8245,1159.817,,,1160.317,1160.5669,,30,30,,,,,,,,,,,,,,,,bars/020.png,bars/mask006.png,,,,,,,,,,,,0,2,,,,,,,4,8,4,8,,,,,,,,,,,1159.817,1160.3169,1160.5669,1164.8339,space,4.257,,1164.834,85,40,1165.8337,1165.8337,1165.8714,,,,0,34,34,34,1,115,170,,,,,,,,
,,5fa48feaddfbd812de13f3bb,65af58158f4b972623180bee,2024-01-23_08h12.22.710,bars,2023.2.3,Win32,59.17159763,657b66ea316d21385b68909f,,,,,,,,,,,1165.8728,1166.8725,,,1167.3698,1167.6235,,22,22,,,,,,,,,,,,,,,,bars/013.png,bars/mask004.png,,,,,,,,,,,,5,2,,,,,,,2,10,1,9,,,,,,,,,,,1166.8726,1167.3697,1167.6237,1172.1682,space,4.5249,,1172.1694,53,12,1173.1694,1173.1695,1173.1925,,,,0,35,35,35,1,75,10,,,,,,,,
,,5fa48feaddfbd812de13f3bb,65af58158f4b972623180bee,2024-01-23_08h12.22.710,bars,2023.2.3,Win32,59.17159763,657b66ea316d21385b68909f,,,,,,,,,,,1173.1937,1174.1841,,,1174.686,1174.9339,,156,156,,,,,,,,,,,,,,,,bars/033.png,bars/mask000.png,,,,,,,,,,,,8,2,,,,,,,4,8,3,8,,,,,,,,,,,1174.1842,1174.6857,1174.9339,1177.2692,space,2.3213,,1177.2694,49,1,1178.2675,1178.2676,1178.2816,,,,0,36,36,36,1,25,155,,,,,,,,
,,5fa48feaddfbd812de13f3bb,65af58158f4b972623180bee,2024-01-23_08h12.22.710,bars,2023.2.3,Win32,59.17159763,657b66ea316d21385b68909f,,,,,,,,,,,1178.2818,1179.2841,,,1179.7843,1180.0344,,37,37,,,,,,,,,,,,,,,,bars/034.png,bars/mask009.png,,,,,,,,,,,,0,2,,,,,,,2,6,2,5,,,,,,,,,,,1179.2841,1179.7843,1180.0344,1181.5692,space,1.5184,,1181.5693,88,28,1182.5686,1182.5687,1182.6185,,,,0,37,37,37,1,125,65,,,,,,,,
,,5fa48feaddfbd812de13f3bb,65af58158f4b972623180bee,2024-01-23_08h12.22.710,bars,2023.2.3,Win32,59.17159763,657b66ea316d21385b68909f,,,,,,,,,,,1182.62,1183.6229,,,1184.1191,1184.3577,,109,109,,,,,,,,,,,,,,,,bars/018.png,bars/mask002.png,,,,,,,,,,,,4,2,,,,,,,4,8,4,10,,,,,,,,,,,1183.623,1184.119,1184.3578,1186.2581,space,1.8834,,1186.2584,41,19,1187.2532,1187.2534,1187.2575,,,,0,38,38,38,1,150,90,,,,,,,,
,,5fa48feaddfbd812de13f3bb,65af58158f4b972623180bee,2024-01-23_08h12.22.710,bars,2023.2.3,Win32,59.17159763,657b66ea316d21385b68909f,,,,,,,,,,,1187.2588,1188.2512,,,1188.7535,1189.0084,,161,161,,,,,,,,,,,,,,,,bars/015.png,bars/mask002.png,,,,,,,,,,,,5,2,,,,,,,2,6,2,5,,,,,,,,,,,1188.2514,1188.7533,1189.0085,1190.2773,space,1.2537,,1190.2773,51,1,1191.2701,1191.2702,1191.2733,,,,0,39,39,39,1,110,160,,,,,,,,
,,5fa48feaddfbd812de13f3bb,65af58158f4b972623180bee,2024-01-23_08h12.22.710,bars,2023.2.3,Win32,59.17159763,657b66ea316d21385b68909f,,,,,,,,,,,1191.2737,1192.2679,,,1192.7752,1193.0184,,46,46,,,,,,,,,,,,,,,,bars/046.png,bars/mask001.png,,,,,,,,,,,,0,2,,,,,,,4,8,2,7,,,,,,,,,,,1192.2681,1192.7751,1193.0187,1194.6106,space,1.5687,,1194.6106,71,39,1195.6029,1195.603,1195.6067,,,,0,40,40,40,1,155,85,,,,,,,,
,,5fa48feaddfbd812de13f3bb,65af58158f4b972623180bee,2024-01-23_08h12.22.710,bars,2023.2.3,Win32,59.17159763,657b66ea316d21385b68909f,,,,,,,,,,,1195.6086,1196.6027,,,1197.1021,1197.3416,,41,41,,,,,,,,,,,,,,,,bars/041.png,bars/mask004.png,,,,,,,,,,,,2,1,,,,,,,6,10,5,10,,,,,,,,,,,1196.603,1197.1019,1197.3417,1214.5524,space,17.193,,1214.5524,21,44,1215.5518,1215.5518,1215.5826,,,,0,41,41,41,1,20,85,,,,,,,,
,,5fa48feaddfbd812de13f3bb,65af58158f4b972623180bee,2024-01-23_08h12.22.710,bars,2023.2.3,Win32,59.17159763,657b66ea316d21385b68909f,,,,,,,,,,,1215.5838,1216.5852,,,1217.0866,1217.3368,,38,38,,,,,,,,,,,,,,,,bars/022.png,bars/mask004.png,,,,,,,,,,,,4,2,,,,,,,8,8,8,10,,,,,,,,,,,1216.5852,1217.0865,1217.3369,1221.5019,space,4.1522,,1221.5019,57,18,1222.502,1222.5021,1222.5307,,,,0,42,42,42,1,95,20,,,,,,,,
,,5fa48feaddfbd812de13f3bb,65af58158f4b972623180bee,2024-01-23_08h12.22.710,bars,2023.2.3,Win32,59.17159763,657b66ea316d21385b68909f,,,,,,,,,,,1222.5309,1223.5196,,,1224.0203,1224.259,,153,153,,,,,,,,,,,,,,,,bars/042.png,bars/mask002.png,,,,,,,,,,,,7,1,,,,,,,10,6,10,6,,,,,,,,,,,1223.5199,1224.0201,1224.259,1226.8918,space,2.6181,,1226.892,8,78,1227.8875,1227.8875,1227.9341,,,,0,43,43,43,1,145,75,,,,,,,,
,,5fa48feaddfbd812de13f3bb,65af58158f4b972623180bee,2024-01-23_08h12.22.710,bars,2023.2.3,Win32,59.17159763,657b66ea316d21385b68909f,,,,,,,,,,,1227.9367,1228.9371,,,1229.4356,1229.6854,,38,38,,,,,,,,,,,,,,,,bars/015.png,bars/mask007.png,,,,,,,,,,,,0,2,,,,,,,8,4,10,5,,,,,,,,,,,1228.9379,1229.4355,1229.6855,1232.9716,space,3.2784,,1232.9716,72,58,1233.9688,1233.9688,1234.0058,,,,0,44,44,44,1,110,160,,,,,,,,
,,5fa48feaddfbd812de13f3bb,65af58158f4b972623180bee,2024-01-23_08h12.22.710,bars,2023.2.3,Win32,59.17159763,657b66ea316d21385b68909f,,,,,,,,,,,1234.0067,1235.0042,,,1235.5043,1235.753,,131,131,,,,,,,,,,,,,,,,bars/044.png,bars/mask007.png,,,,,,,,,,,,0,2,,,,,,,6,2,7,2,,,,,,,,,,,1235.0042,1235.5042,1235.7533,1241.8715,space,6.0944,,1241.8715,56,24,1242.8756,1242.8759,1242.9161,,,,0,45,45,45,1,75,155,,,,,,,,
,,5fa48feaddfbd812de13f3bb,65af58158f4b972623180bee,2024-01-23_08h12.22.710,bars,2023.2.3,Win32,59.17159763,657b66ea316d21385b68909f,,,,,,,,,,,1242.9173,1243.919,,,1244.4193,1244.6691,,140,140,,,,,,,,,,,,,,,,bars/037.png,bars/mask007.png,,,,,,,,,,,,3,1,,,,,,,4,0,5,0,,,,,,,,,,,1243.9191,1244.4192,1244.6691,1253.5553,space,8.8725,,1253.5556,10,35,1254.5559,1254.5559,1254.6155,,,,0,46,46,46,1,150,105,,,,,,,,
,,5fa48feaddfbd812de13f3bb,65af58158f4b972623180bee,2024-01-23_08h12.22.710,bars,2023.2.3,Win32,59.17159763,657b66ea316d21385b68909f,,,,,,,,,,,1254.6157,1255.6033,,,1256.1027,1256.3528,,26,206,,,,,,,,,,,,,,,,bars/044.png,bars/mask005.png,,,,,,,,,,,,0,1,,,,,,,2,2,2,2,,,,,,,,,,,1255.6033,1256.1027,1256.3528,1258.6535,space,2.2861,,1258.6537,49,51,1259.6542,1259.6544,1259.6915,,,,0,47,47,47,1,75,155,,,,,,,,
,,5fa48feaddfbd812de13f3bb,65af58158f4b972623180bee,2024-01-23_08h12.22.710,bars,2023.2.3,Win32,59.17159763,657b66ea316d21385b68909f,,,,,,,,,,,1259.6925,1260.6866,,,1261.1928,1261.4387,,52,52,,,,,,,,,,,,,,,,bars/017.png,bars/mask004.png,,,,,,,,,,,,4,2,,,,,,,0,4,1,5,,,,,,,,,,,1260.6867,1261.1927,1261.4388,1264.072,space,2.6226,,1264.072,87,7,1265.0716,1265.0718,1265.1168,,,,0,48,48,48,1,145,45,,,,,,,,
,,5fa48feaddfbd812de13f3bb,65af58158f4b972623180bee,2024-01-23_08h12.22.710,bars,2023.2.3,Win32,59.17159763,657b66ea316d21385b68909f,,,,,,,,,,,1265.117,1266.1198,,,1266.6219,1266.8699,,47,227,,,,,,,,,,,,,,,,bars/029.png,bars/mask004.png,,,,,,,,,,,,2,2,,,,,,,2,2,3,2,,,,,,,,,,,1266.1198,1266.6218,1266.8699,1271.1906,space,4.3144,,1271.1906,43,2,1272.1867,1272.1867,1272.2237,,,,0,49,49,49,1,90,45,,,,,,,,
,,5fa48feaddfbd812de13f3bb,65af58158f4b972623180bee,2024-01-23_08h12.22.710,bars,2023.2.3,Win32,59.17159763,657b66ea316d21385b68909f,,,,,,,,,,,,,,,,,,,,,,,,,,,,,,,,,,,,,,,,,,,,,,,,,,,,,,,,,,,,,,,,,,,,,,,,,,,,,,,,,,,,,,,,,,,,,1272.2239,1332.2128,0,1,1,2,1,sequence_tables/blk028.csv
,,5fa48feaddfbd812de13f3bb,65af58158f4b972623180bee,2024-01-23_08h12.22.710,bars,2023.2.3,Win32,59.17159763,657b66ea316d21385b68909f,,,,,,,,,,,1335.0344,1336.0216,,,1336.5231,1336.7717,,56,56,,,,,,,,,,,,,,,,bars/041.png,bars/mask001.png,,,,,,,,,,,,0,2,,,,,,,4,2,4,1,,,,,,1332.2458,1335.0062,space,2.7517,,1336.0216,1336.5228,1336.7717,1342.9218,space,6.1394,,1342.9218,36,29,1343.9218,1343.9218,1343.9481,,,,0,0,0,0,1,20,85,,,,,,,,
,,5fa48feaddfbd812de13f3bb,65af58158f4b972623180bee,2024-01-23_08h12.22.710,bars,2023.2.3,Win32,59.17159763,657b66ea316d21385b68909f,,,,,,,,,,,1343.9494,1344.9446,,,1345.4409,1345.6957,,30,30,,,,,,,,,,,,,,,,bars/029.png,bars/mask005.png,,,,,,,,,,,,2,2,,,,,,,2,4,3,3,,,,,,,,,,,1344.9447,1345.4407,1345.6958,1348.5351,space,2.8218,,1348.5353,60,15,1349.5407,1349.5409,1349.6003,,,,0,1,1,1,1,90,45,,,,,,,,
,,5fa48feaddfbd812de13f3bb,65af58158f4b972623180bee,2024-01-23_08h12.22.710,bars,2023.2.3,Win32,59.17159763,657b66ea316d21385b68909f,,,,,,,,,,,1349.6006,1350.5888,,,1351.0902,1351.3388,,121,121,,,,,,,,,,,,,,,,bars/031.png,bars/mask005.png,,,,,,,,,,,,0,1,,,,,,,0,6,0,6,,,,,,,,,,,1350.5888,1351.0901,1351.3388,1355.3587,space,4.0089,,1355.3588,1,86,1356.3556,1356.3557,1356.3837,,,,0,2,2,2,1,120,35,,,,,,,,
,,5fa48feaddfbd812de13f3bb,65af58158f4b972623180bee,2024-01-23_08h12.22.710,bars,2023.2.3,Win32,59.17159763,657b66ea316d21385b68909f,,,,,,,,,,,1356.3839,1357.3721,,,1357.8727,1358.1281,,153,153,,,,,,,,,,,,,,,,bars/035.png,bars/mask006.png,,,,,,,,,,,,0,1,,,,,,,2,4,0,5,,,,,,,,,,,1357.3721,1357.8724,1358.1282,1361.8327,space,3.6861,,1361.8329,22,87,1362.8271,1362.8273,1362.8647,,,,0,3,3,3,1,175,60,,,,,,,,
,,5fa48feaddfbd812de13f3bb,65af58158f4b972623180bee,2024-01-23_08h12.22.710,bars,2023.2.3,Win32,59.17159763,657b66ea316d21385b68909f,,,,,,,,,,,1362.865,1363.8563,,,1364.3629,1364.6059,,19,19,,,,,,,,,,,,,,,,bars/036.png,bars/mask005.png,,,,,,,,,,,,3,2,,,,,,,0,2,0,3,,,,,,,,,,,1363.8565,1364.3628,1364.606,1366.7166,space,2.0874,,1366.7167,54,1,1367.7063,1367.7065,1367.752,,,,0,4,4,4,1,145,20,,,,,,,,
,,5fa48feaddfbd812de13f3bb,65af58158f4b972623180bee,2024-01-23_08h12.22.710,bars,2023.2.3,Win32,59.17159763,657b66ea316d21385b68909f,,,,,,,,,,,1367.7522,1368.7559,,,1369.2471,1369.4965,,21,21,,,,,,,,,,,,,,,,bars/005.png,bars/mask008.png,,,,,,,,,,,,0,1,,,,,,,0,4,0,5,,,,,,,,,,,1368.7559,1369.247,1369.4967,1373.3655,space,3.8521,,1373.3655,11,61,1374.3607,1374.361,1374.3887,,,,0,5,5,5,1,10,140,,,,,,,,
,,5fa48feaddfbd812de13f3bb,65af58158f4b972623180bee,2024-01-23_08h12.22.710,bars,2023.2.3,Win32,59.17159763,657b66ea316d21385b68909f,,,,,,,,,,,1374.3917,1375.3903,,,1375.8898,1376.1397,,117,117,,,,,,,,,,,,,,,,bars/039.png,bars/mask008.png,,,,,,,,,,,,1,2,,,,,,,0,2,0,1,,,,,,,,,,,1375.3905,1375.8897,1376.1398,1376.7085,space,0.5543,,1376.7086,58,12,1377.7063,1377.7064,1377.7152,,,,0,6,6,6,1,175,105,,,,,,,,
,,5fa48feaddfbd812de13f3bb,65af58158f4b972623180bee,2024-01-23_08h12.22.710,bars,2023.2.3,Win32,59.17159763,657b66ea316d21385b68909f,,,,,,,,,,,1377.7166,1378.7065,,,1379.2065,1379.4563,,97,97,,,,,,,,,,,,,,,,bars/037.png,bars/mask009.png,,,,,,,,,,,,1,2,,,,,,,0,0,1,1,,,,,,,,,,,1378.7066,1379.2065,1379.4564,1381.7565,space,2.286,,1381.7566,53,8,1382.7564,1382.7564,1382.7853,,,,0,7,7,7,1,150,105,,,,,,,,
,,5fa48feaddfbd812de13f3bb,65af58158f4b972623180bee,2024-01-23_08h12.22.710,bars,2023.2.3,Win32,59.17159763,657b66ea316d21385b68909f,,,,,,,,,,,1382.7873,1383.7753,,,1384.273,1384.5231,,44,44,,,,,,,,,,,,,,,,bars/049.png,bars/mask001.png,,,,,,,,,,,,0,1,,,,,,,0,2,0,2,,,,,,,,,,,1383.7753,1384.2729,1384.5232,1386.2397,space,1.7004,,1386.2398,64,71,1387.2395,1387.2396,1387.267,,,,0,8,8,8,1,160,115,,,,,,,,
,,5fa48feaddfbd812de13f3bb,65af58158f4b972623180bee,2024-01-23_08h12.22.710,bars,2023.2.3,Win32,59.17159763,657b66ea316d21385b68909f,,,,,,,,,,,1387.2673,1388.2564,,,1388.7582,1388.9962,,109,289,,,,,,,,,,,,,,,,bars/011.png,bars/mask003.png,,,,,,,,,,,,0,2,,,,,,,2,0,1,1,,,,,,,,,,,1388.2564,1388.758,1388.9963,1393.3158,space,4.3023,,1393.316,51,24,1394.3066,1394.3067,1394.3486,,,,0,9,9,9,1,160,85,,,,,,,,
,,5fa48feaddfbd812de13f3bb,65af58158f4b972623180bee,2024-01-23_08h12.22.710,bars,2023.2.3,Win32,59.17159763,657b66ea316d21385b68909f,,,,,,,,,,,1394.3501,1395.3398,,,1395.8416,1396.0899,,129,129,,,,,,,,,,,,,,,,bars/040.png,bars/mask003.png,,,,,,,,,,,,0,1,,,,,,,0,0,0,0,,,,,,,,,,,1395.3399,1395.8414,1396.09,1399.4251,space,3.3243,,1399.4255,11,56,1400.4233,1400.4233,1400.4512,,,,0,10,10,10,1,140,5,,,,,,,,
,,5fa48feaddfbd812de13f3bb,65af58158f4b972623180bee,2024-01-23_08h12.22.710,bars,2023.2.3,Win32,59.17159763,657b66ea316d21385b68909f,,,,,,,,,,,1400.4514,1401.4403,,,1401.9401,1402.1901,,126,126,,,,,,,,,,,,,,,,bars/033.png,bars/mask004.png,,,,,,,,,,,,0,2,,,,,,,2,2,3,3,,,,,,,,,,,1401.4404,1401.9401,1402.1902,1405.457,space,3.258,,1405.457,79,29,1406.4569,1406.457,1406.4868,,,,0,11,11,11,1,25,155,,,,,,,,
,,5fa48feaddfbd812de13f3bb,65af58158f4b972623180bee,2024-01-23_08h12.22.710,bars,2023.2.3,Win32,59.17159763,657b66ea316d21385b68909f,,,,,,,,,,,1406.4882,1407.4804,,,1407.9811,1408.2287,,94,94,,,,,,,,,,,,,,,,bars/019.png,bars/mask001.png,,,,,,,,,,,,0,2,,,,,,,0,0,0,0,,,,,,,,,,,1407.4807,1407.981,1408.2288,1416.9677,space,8.7199,,1416.9679,49,11,1417.9633,1417.9633,1418.001,,,,0,12,12,12,1,45,105,,,,,,,,
,,5fa48feaddfbd812de13f3bb,65af58158f4b972623180bee,2024-01-23_08h12.22.710,bars,2023.2.3,Win32,59.17159763,657b66ea316d21385b68909f,,,,,,,,,,,1418.0012,1418.9911,,,1419.4906,1419.7404,,91,91,,,,,,,,,,,,,,,,bars/019.png,bars/mask003.png,,,,,,,,,,,,0,2,,,,,,,0,2,0,0,,,,,,,,,,,1418.9912,1419.4905,1419.7404,1420.8924,space,1.1409,,1420.8926,46,14,1421.8908,1421.8908,1421.8929,,,,0,13,13,13,1,45,105,,,,,,,,
,,5fa48feaddfbd812de13f3bb,65af58158f4b972623180bee,2024-01-23_08h12.22.710,bars,2023.2.3,Win32,59.17159763,657b66ea316d21385b68909f,,,,,,,,,,,1421.8949,1422.8906,,,1423.3907,1423.644,,105,105,,,,,,,,,,,,,,,,bars/019.png,bars/mask005.png,,,,,,,,,,,,4,2,,,,,,,0,4,0,4,,,,,,,,,,,1422.8906,1423.3906,1423.6441,1425.4244,space,1.7665,,1425.4244,60,0,1426.4242,1426.4242,1426.4612,,,,0,14,14,14,1,45,105,,,,,,,,
,,5fa48feaddfbd812de13f3bb,65af58158f4b972623180bee,2024-01-23_08h12.22.710,bars,2023.2.3,Win32,59.17159763,657b66ea316d21385b68909f,,,,,,,,,,,1426.4615,1427.4647,,,1427.9602,1428.2147,,86,86,,,,,,,,,,,,,,,,bars/005.png,bars/mask002.png,,,,,,,,,,,,0,2,,,,,,,2,2,3,2,,,,,,,,,,,1427.4648,1427.9602,1428.2148,1428.5503,space,0.319,,1428.5504,76,54,1429.5453,1429.5454,1429.5488,,,,0,15,15,15,1,10,140,,,,,,,,
,,5fa48feaddfbd812de13f3bb,65af58158f4b972623180bee,2024-01-23_08h12.22.710,bars,2023.2.3,Win32,59.17159763,657b66ea316d21385b68909f,,,,,,,,,,,1429.549,1430.5479,,,1431.0428,1431.2931,,45,45,,,,,,,,,,,,,,,,bars/022.png,bars/mask007.png,,,,,,,,,,,,0,2,,,,,,,0,0,0,0,,,,,,,,,,,1430.548,1431.0426,1431.2933,1432.7999,space,1.4996,,1432.8001,50,25,1433.7929,1433.7929,1433.7949,,,,0,16,16,16,1,95,20,,,,,,,,
,,5fa48feaddfbd812de13f3bb,65af58158f4b972623180bee,2024-01-23_08h12.22.710,bars,2023.2.3,Win32,59.17159763,657b66ea316d21385b68909f,,,,,,,,,,,1433.7965,1434.7923,,,1435.295,1435.542,,114,114,,,,,,,,,,,,,,,,bars/042.png,bars/mask003.png,,,,,,,,,,,,0,1,,,,,,,0,2,0,2,,,,,,,,,,,1434.7924,1435.295,1435.5423,1438.1609,space,2.5991,,1438.161,31,39,1439.1616,1439.1618,1439.1863,,,,0,17,17,17,1,145,75,,,,,,,,
,,5fa48feaddfbd812de13f3bb,65af58158f4b972623180bee,2024-01-23_08h12.22.710,bars,2023.2.3,Win32,59.17159763,657b66ea316d21385b68909f,,,,,,,,,,,1439.1866,1440.1747,,,1440.6748,1440.9259,,38,38,,,,,,,,,,,,,,,,bars/008.png,bars/mask007.png,,,,,,,,,,,,0,2,,,,,,,0,4,0,2,,,,,,,,,,,1440.1748,1440.6748,1440.9261,1443.3581,space,2.4188,,1443.3582,72,38,1444.3595,1444.3596,1444.406,,,,0,18,18,18,1,110,0,,,,,,,,
,,5fa48feaddfbd812de13f3bb,65af58158f4b972623180bee,2024-01-23_08h12.22.710,bars,2023.2.3,Win32,59.17159763,657b66ea316d21385b68909f,,,,,,,,,,,1444.4082,1445.3962,,,1445.8933,1446.1443,,39,39,,,,,,,,,,,,,,,,bars/021.png,bars/mask005.png,,,,,,,,,,,,0,2,,,,,,,2,6,4,8,,,,,,,,,,,1445.3962,1445.8932,1446.1444,1450.0189,space,3.8521,,1450.0189,64,31,1451.0081,1451.0081,1451.0456,,,,0,19,19,19,1,155,70,,,,,,,,
,,5fa48feaddfbd812de13f3bb,65af58158f4b972623180bee,2024-01-23_08h12.22.710,bars,2023.2.3,Win32,59.17159763,657b66ea316d21385b68909f,,,,,,,,,,,1451.0467,1452.0436,,,1452.5435,1452.7982,,11,11,,,,,,,,,,,,,,,,bars/048.png,bars/mask009.png,,,,,,,,,,,,1,2,,,,,,,0,4,0,3,,,,,,,,,,,1452.0436,1452.5435,1452.7984,1453.9619,space,1.1469,,1453.9622,39,16,1454.9597,1454.9599,1454.9637,,,,0,20,20,20,1,50,175,,,,,,,,
,,5fa48feaddfbd812de13f3bb,65af58158f4b972623180bee,2024-01-23_08h12.22.710,bars,2023.2.3,Win32,59.17159763,657b66ea316d21385b68909f,,,,,,,,,,,1454.965,1455.9609,,,1456.4641,1456.715,,150,-30,,,,,,,,,,,,,,,,bars/040.png,bars/mask006.png,,,,,,,,,,,,2,1,,,,,,,2,6,3,7,,,,,,,,,,,1455.961,1456.464,1456.7151,1460.0499,space,3.3199,,1460.0499,10,35,1461.0447,1461.0448,1461.0998,,,,0,21,21,21,1,140,5,,,,,,,,
,,5fa48feaddfbd812de13f3bb,65af58158f4b972623180bee,2024-01-23_08h12.22.710,bars,2023.2.3,Win32,59.17159763,657b66ea316d21385b68909f,,,,,,,,,,,1461.1017,1462.0931,,,1462.5923,1462.8431,,41,41,,,,,,,,,,,,,,,,bars/007.png,bars/mask006.png,,,,,,,,,,,,5,2,,,,,,,0,8,0,9,,,,,,,,,,,1462.0932,1462.5923,1462.8432,1465.5752,space,2.718,,1465.5753,46,14,1466.575,1466.5751,1466.6029,,,,0,22,22,22,1,175,55,,,,,,,,
,,5fa48feaddfbd812de13f3bb,65af58158f4b972623180bee,2024-01-23_08h12.22.710,bars,2023.2.3,Win32,59.17159763,657b66ea316d21385b68909f,,,,,,,,,,,1466.6042,1467.592,,,1468.0923,1468.3421,,107,107,,,,,,,,,,,,,,,,bars/019.png,bars/mask008.png,,,,,,,,,,,,5,2,,,,,,,0,6,1,5,,,,,,,,,,,1467.592,1468.0922,1468.3421,1470.0755,space,1.7218,,1470.0756,62,2,1471.0753,1471.0754,1471.1072,,,,0,23,23,23,1,45,105,,,,,,,,
,,5fa48feaddfbd812de13f3bb,65af58158f4b972623180bee,2024-01-23_08h12.22.710,bars,2023.2.3,Win32,59.17159763,657b66ea316d21385b68909f,,,,,,,,,,,1471.1081,1472.1107,,,1472.6111,1472.8614,,75,75,,,,,,,,,,,,,,,,bars/008.png,bars/mask006.png,,,,,,,,,,,,0,1,,,,,,,2,8,2,9,,,,,,,,,,,1472.1108,1472.611,1472.8615,1474.6586,space,1.7874,,1474.6586,35,75,1475.6587,1475.6587,1475.6653,,,,0,24,24,24,1,110,0,,,,,,,,
,,5fa48feaddfbd812de13f3bb,65af58158f4b972623180bee,2024-01-23_08h12.22.710,bars,2023.2.3,Win32,59.17159763,657b66ea316d21385b68909f,,,,,,,,,,,1475.6664,1476.6606,,,1477.1595,1477.4102,,121,121,,,,,,,,,,,,,,,,bars/040.png,bars/mask003.png,,,,,,,,,,,,0,1,,,,,,,0,10,1,10,,,,,,,,,,,1476.6606,1477.1594,1477.4103,1481.4924,space,4.0677,,1481.4924,19,64,1482.4922,1482.4922,1482.5211,,,,0,25,25,25,1,140,5,,,,,,,,
,,5fa48feaddfbd812de13f3bb,65af58158f4b972623180bee,2024-01-23_08h12.22.710,bars,2023.2.3,Win32,59.17159763,657b66ea316d21385b68909f,,,,,,,,,,,1482.5219,1483.5258,,,1484.0257,1484.2756,,124,124,,,,,,,,,,,,,,,,bars/035.png,bars/mask000.png,,,,,,,,,,,,0,1,,,,,,,2,8,3,9,,,,,,,,,,,1483.5258,1484.0256,1484.2756,1489.4776,space,5.1909,,1489.4778,51,64,1490.4765,1490.4765,1490.5236,,,,0,26,26,26,1,175,60,,,,,,,,
,,5fa48feaddfbd812de13f3bb,65af58158f4b972623180bee,2024-01-23_08h12.22.710,bars,2023.2.3,Win32,59.17159763,657b66ea316d21385b68909f,,,,,,,,,,,1490.5239,1491.5259,,,1492.0268,1492.2758,,130,130,,,,,,,,,,,,,,,,bars/044.png,bars/mask000.png,,,,,,,,,,,,2,2,,,,,,,0,10,0,10,,,,,,,,,,,1491.526,1492.0268,1492.2759,1498.7094,space,6.4222,,1498.7095,55,25,1499.7094,1499.7094,1499.7463,,,,0,27,27,27,1,75,155,,,,,,,,
,,5fa48feaddfbd812de13f3bb,65af58158f4b972623180bee,2024-01-23_08h12.22.710,bars,2023.2.3,Win32,59.17159763,657b66ea316d21385b68909f,,,,,,,,,,,1499.7465,1500.7451,,,1501.2492,1501.4933,,90,90,,,,,,,,,,,,,,,,bars/041.png,bars/mask000.png,,,,,,,,,,,,8,2,,,,,,,0,10,0,10,,,,,,,,,,,1500.7453,1501.2492,1501.4935,1523.8282,space,22.3016,,1523.8285,70,5,1524.828,1524.828,1524.846,,,,0,28,28,28,1,20,85,,,,,,,,
,,5fa48feaddfbd812de13f3bb,65af58158f4b972623180bee,2024-01-23_08h12.22.710,bars,2023.2.3,Win32,59.17159763,657b66ea316d21385b68909f,,,,,,,,,,,1524.8462,1525.8473,,,1526.3458,1526.5964,,159,159,,,,,,,,,,,,,,,,bars/033.png,bars/mask007.png,,,,,,,,,,,,9,2,,,,,,,0,10,1,10,,,,,,,,,,,1525.8473,1526.3458,1526.5965,1529.2375,space,2.619,,1529.2381,46,4,1530.2269,1530.227,1530.268,,,,0,29,29,29,1,25,155,,,,,,,,
,,5fa48feaddfbd812de13f3bb,65af58158f4b972623180bee,2024-01-23_08h12.22.710,bars,2023.2.3,Win32,59.17159763,657b66ea316d21385b68909f,,,,,,,,,,,1530.2694,1531.2603,,,1531.7603,1532.0103,,139,139,,,,,,,,,,,,,,,,bars/049.png,bars/mask008.png,,,,,,,,,,,,1,1,,,,,,,2,8,2,6,,,,,,,,,,,1531.2603,1531.7603,1532.0103,1536.9272,space,4.9063,,1536.9272,21,24,1537.9292,1537.9294,1537.9788,,,,0,30,30,30,1,160,115,,,,,,,,
,,5fa48feaddfbd812de13f3bb,65af58158f4b972623180bee,2024-01-23_08h12.22.710,bars,2023.2.3,Win32,59.17159763,657b66ea316d21385b68909f,,,,,,,,,,,1537.9802,1538.9792,,,1539.4675,1539.7122,,129,129,,,,,,,,,,,,,,,,bars/038.png,bars/mask001.png,,,,,,,,,,,,0,1,,,,,,,4,6,4,7,,,,,,,,,,,1538.9793,1539.4674,1539.7125,1543.7029,space,3.9703,,1543.7035,36,59,1544.7007,1544.7007,1544.7341,,,,0,31,31,31,1,165,70,,,,,,,,
,,5fa48feaddfbd812de13f3bb,65af58158f4b972623180bee,2024-01-23_08h12.22.710,bars,2023.2.3,Win32,59.17159763,657b66ea316d21385b68909f,,,,,,,,,,,1544.7356,1545.7274,,,1546.2273,1546.4774,,131,131,,,,,,,,,,,,,,,,bars/015.png,bars/mask008.png,,,,,,,,,,,,0,1,,,,,,,2,8,1,10,,,,,,,,,,,1545.7274,1546.2273,1546.4774,1549.3609,space,2.8693,,1549.3609,21,29,1550.3608,1550.3609,1550.385,,,,0,32,32,32,1,110,160,,,,,,,,
,,5fa48feaddfbd812de13f3bb,65af58158f4b972623180bee,2024-01-23_08h12.22.710,bars,2023.2.3,Win32,59.17159763,657b66ea316d21385b68909f,,,,,,,,,,,1550.386,1551.3781,,,1551.8778,1552.1277,,75,75,,,,,,,,,,,,,,,,bars/021.png,bars/mask001.png,,,,,,,,,,,,7,2,,,,,,,0,10,1,8,,,,,,,,,,,1551.3781,1551.8777,1552.1278,1557.681,space,5.5399,,1557.6811,80,5,1558.6777,1558.6778,1558.7344,,,,0,33,33,33,1,155,70,,,,,,,,
,,5fa48feaddfbd812de13f3bb,65af58158f4b972623180bee,2024-01-23_08h12.22.710,bars,2023.2.3,Win32,59.17159763,657b66ea316d21385b68909f,,,,,,,,,,,1558.7347,1559.7295,,,1560.2346,1560.4829,,72,252,,,,,,,,,,,,,,,,bars/017.png,bars/mask006.png,,,,,,,,,,,,1,2,,,,,,,2,8,2,9,,,,,,,,,,,1559.7297,1560.2344,1560.4829,1567.0534,space,6.5509,,1567.0536,73,27,1568.0514,1568.0514,1568.1011,,,,0,34,34,34,1,145,45,,,,,,,,
,,5fa48feaddfbd812de13f3bb,65af58158f4b972623180bee,2024-01-23_08h12.22.710,bars,2023.2.3,Win32,59.17159763,657b66ea316d21385b68909f,,,,,,,,,,,1568.1024,1569.0966,,,1569.5966,1569.848,,99,99,,,,,,,,,,,,,,,,bars/036.png,bars/mask005.png,,,,,,,,,,,,0,1,,,,,,,4,6,4,7,,,,,,,,,,,1569.0968,1569.5964,1569.848,1573.3806,space,3.5106,,1573.3806,46,79,1574.381,1574.3811,1574.4519,,,,0,35,35,35,1,145,20,,,,,,,,
,,5fa48feaddfbd812de13f3bb,65af58158f4b972623180bee,2024-01-23_08h12.22.710,bars,2023.2.3,Win32,59.17159763,657b66ea316d21385b68909f,,,,,,,,,,,1574.4537,1575.4456,,,1575.9453,1576.1961,,104,104,,,,,,,,,,,,,,,,bars/007.png,bars/mask000.png,,,,,,,,,,,,0,2,,,,,,,6,4,7,2,,,,,,,,,,,1575.4457,1575.9453,1576.1963,1582.9699,space,6.7633,,1582.9701,71,49,1583.9702,1583.9703,1584.0415,,,,0,36,36,36,1,175,55,,,,,,,,
,,5fa48feaddfbd812de13f3bb,65af58158f4b972623180bee,2024-01-23_08h12.22.710,bars,2023.2.3,Win32,59.17159763,657b66ea316d21385b68909f,,,,,,,,,,,1584.0425,1585.0449,,,1585.5469,1585.7972,,87,87,,,,,,,,,,,,,,,,bars/037.png,bars/mask006.png,,,,,,,,,,,,2,2,,,,,,,4,6,5,6,,,,,,,,,,,1585.0449,1585.5468,1585.7973,1590.6122,space,4.7986,,1590.6122,63,18,1591.6149,1591.6151,1591.663,,,,0,37,37,37,1,150,105,,,,,,,,
,,5fa48feaddfbd812de13f3bb,65af58158f4b972623180bee,2024-01-23_08h12.22.710,bars,2023.2.3,Win32,59.17159763,657b66ea316d21385b68909f,,,,,,,,,,,1591.6632,1592.6634,,,1593.1519,1593.4035,,89,89,,,,,,,,,,,,,,,,bars/023.png,bars/mask007.png,,,,,,,,,,,,1,2,,,,,,,2,8,3,9,,,,,,,,,,,1592.6636,1593.1518,1593.4037,1595.121,space,1.7031,,1595.1211,69,26,1596.1158,1596.1159,1596.1737,,,,0,38,38,38,1,20,115,,,,,,,,
,,5fa48feaddfbd812de13f3bb,65af58158f4b972623180bee,2024-01-23_08h12.22.710,bars,2023.2.3,Win32,59.17159763,657b66ea316d21385b68909f,,,,,,,,,,,1596.1751,1597.1646,,,1597.6645,1597.9043,,58,58,,,,,,,,,,,,,,,,bars/049.png,bars/mask006.png,,,,,,,,,,,,0,2,,,,,,,0,10,1,10,,,,,,,,,,,1597.1647,1597.6645,1597.9045,1599.9181,space,1.9904,,1599.9185,78,57,1600.9141,1600.9141,1600.9513,,,,0,39,39,39,1,160,115,,,,,,,,
,,5fa48feaddfbd812de13f3bb,65af58158f4b972623180bee,2024-01-23_08h12.22.710,bars,2023.2.3,Win32,59.17159763,657b66ea316d21385b68909f,,,,,,,,,,,1600.9529,1601.952,,,1602.4456,1602.6956,,93,93,,,,,,,,,,,,,,,,bars/046.png,bars/mask008.png,,,,,,,,,,,,7,2,,,,,,,2,10,2,10,,,,,,,,,,,1601.9522,1602.4455,1602.6957,1604.2622,space,1.5581,,1604.2622,62,8,1605.2622,1605.2624,1605.2646,,,,0,40,40,40,1,155,85,,,,,,,,
,,5fa48feaddfbd812de13f3bb,65af58158f4b972623180bee,2024-01-23_08h12.22.710,bars,2023.2.3,Win32,59.17159763,657b66ea316d21385b68909f,,,,,,,,,,,1605.2664,1606.2623,,,1606.7622,1607.0122,,147,147,,,,,,,,,,,,,,,,bars/041.png,bars/mask008.png,,,,,,,,,,,,0,1,,,,,,,4,8,3,6,,,,,,,,,,,1606.2623,1606.7622,1607.0122,1607.6168,space,0.5911,,1607.617,53,62,1608.6123,1608.6126,1608.6215,,,,0,41,41,41,1,20,85,,,,,,,,
,,5fa48feaddfbd812de13f3bb,65af58158f4b972623180bee,2024-01-23_08h12.22.710,bars,2023.2.3,Win32,59.17159763,657b66ea316d21385b68909f,,,,,,,,,,,1608.623,1609.6126,,,1610.1137,1610.3624,,93,93,,,,,,,,,,,,,,,,bars/038.png,bars/mask006.png,,,,,,,,,,,,2,2,,,,,,,6,10,5,9,,,,,,,,,,,1609.6127,1610.1135,1610.3624,1611.1961,space,0.8186,,1611.1961,72,23,1612.1958,1612.1958,1612.2331,,,,0,42,42,42,1,165,70,,,,,,,,
,,5fa48feaddfbd812de13f3bb,65af58158f4b972623180bee,2024-01-23_08h12.22.710,bars,2023.2.3,Win32,59.17159763,657b66ea316d21385b68909f,,,,,,,,,,,1612.2346,1613.2356,,,1613.7315,1613.9864,,113,113,,,,,,,,,,,,,,,,bars/023.png,bars/mask005.png,,,,,,,,,,,,8,2,,,,,,,4,10,5,9,,,,,,,,,,,1613.2357,1613.7314,1613.9865,1616.0719,space,2.0694,,1616.0721,87,2,1617.0691,1617.0692,1617.1222,,,,0,43,43,43,1,20,115,,,,,,,,
,,5fa48feaddfbd812de13f3bb,65af58158f4b972623180bee,2024-01-23_08h12.22.710,bars,2023.2.3,Win32,59.17159763,657b66ea316d21385b68909f,,,,,,,,,,,1617.1236,1618.1124,,,1618.6126,1618.8624,,53,53,,,,,,,,,,,,,,,,bars/044.png,bars/mask001.png,,,,,,,,,,,,1,1,,,,,,,2,10,3,10,,,,,,,,,,,1618.1125,1618.6125,1618.8625,1625.1153,space,6.2398,,1625.1157,22,78,1626.1166,1626.1166,1626.1817,,,,0,44,44,44,1,75,155,,,,,,,,
,,5fa48feaddfbd812de13f3bb,65af58158f4b972623180bee,2024-01-23_08h12.22.710,bars,2023.2.3,Win32,59.17159763,657b66ea316d21385b68909f,,,,,,,,,,,1626.1832,1627.1863,,,1627.6879,1627.9297,,114,114,,,,,,,,,,,,,,,,bars/047.png,bars/mask008.png,,,,,,,,,,,,0,2,,,,,,,0,10,0,10,,,,,,,,,,,1627.1867,1627.6878,1627.93,1630.0021,space,2.0615,,1630.0021,81,44,1630.9985,1630.9986,1631.0563,,,,0,45,45,45,1,15,70,,,,,,,,
,,5fa48feaddfbd812de13f3bb,65af58158f4b972623180bee,2024-01-23_08h12.22.710,bars,2023.2.3,Win32,59.17159763,657b66ea316d21385b68909f,,,,,,,,,,,1631.0577,1632.0486,,,1632.5376,1632.787,,74,74,,,,,,,,,,,,,,,,bars/041.png,bars/mask009.png,,,,,,,,,,,,6,2,,,,,,,0,10,1,10,,,,,,,,,,,1632.0487,1632.5374,1632.787,1667.9834,space,35.1744,,1667.9837,54,11,1668.9827,1668.9828,1669.0168,,,,0,46,46,46,1,20,85,,,,,,,,
,,5fa48feaddfbd812de13f3bb,65af58158f4b972623180bee,2024-01-23_08h12.22.710,bars,2023.2.3,Win32,59.17159763,657b66ea316d21385b68909f,,,,,,,,,,,1669.0171,1670.014,,,1670.5141,1670.764,,95,95,,,,,,,,,,,,,,,,bars/019.png,bars/mask002.png,,,,,,,,,,,,7,2,,,,,,,0,10,3,10,,,,,,,,,,,1670.0141,1670.5141,1670.764,1672.5309,space,1.7511,,1672.531,50,10,1673.5307,1673.5307,1673.5669,,,,0,47,47,47,1,45,105,,,,,,,,
,,5fa48feaddfbd812de13f3bb,65af58158f4b972623180bee,2024-01-23_08h12.22.710,bars,2023.2.3,Win32,59.17159763,657b66ea316d21385b68909f,,,,,,,,,,,1673.5673,1674.5712,,,1675.0658,1675.3162,,42,42,,,,,,,,,,,,,,,,bars/007.png,bars/mask007.png,,,,,,,,,,,,6,2,,,,,,,0,10,0,10,,,,,,,,,,,1674.5713,1675.0657,1675.3164,1680.3501,space,5.01,,1680.3504,47,13,1681.3478,1681.3479,1681.3783,,,,0,48,48,48,1,175,55,,,,,,,,
,,5fa48feaddfbd812de13f3bb,65af58158f4b972623180bee,2024-01-23_08h12.22.710,bars,2023.2.3,Win32,59.17159763,657b66ea316d21385b68909f,,,,,,,,,,,1681.3793,1682.3872,,,1682.8833,1683.1376,,47,47,,,,,,,,,,,,,,,,bars/030.png,bars/mask005.png,,,,,,,,,,,,3,2,,,,,,,2,8,1,8,,,,,,,,,,,1682.3874,1682.8832,1683.1378,1687.8239,space,4.6708,,1687.8239,87,18,1688.8146,1688.8148,1688.8433,,,,0,49,49,49,1,140,65,,,,,,,,
,,5fa48feaddfbd812de13f3bb,65af58158f4b972623180bee,2024-01-23_08h12.22.710,bars,2023.2.3,Win32,59.17159763,657b66ea316d21385b68909f,,,,,,,,,,,,,,,,,,,,,,,,,,,,,,,,,,,,,,,,,,,,,,,,,,,,,,,,,,,,,,,,,,,,,,,,,,,,,,,,,,,,,,,,,,,,,1688.8443,1748.8335,0,2,2,1,1,sequence_tables/blk012.csv
,,5fa48feaddfbd812de13f3bb,65af58158f4b972623180bee,2024-01-23_08h12.22.710,bars,2023.2.3,Win32,59.17159763,657b66ea316d21385b68909f,,,,,,,,,,,1760.7963,1761.7667,,,1762.267,1762.5183,,56,56,,,,,,,,,,,,,,,,bars/007.png,bars/mask006.png,,,,,,,,,,,,3,2,,,,,,,0,3,0,3,,,,,,1748.8462,1760.7519,space,11.8935,,1761.7669,1762.267,1762.5186,1765.4671,space,2.9392,,1765.4672,61,1,1766.4676,1766.4677,1766.4968,,,,0,0,0,0,1,175,55,,,,,,,,
,,5fa48feaddfbd812de13f3bb,65af58158f4b972623180bee,2024-01-23_08h12.22.710,bars,2023.2.3,Win32,59.17159763,657b66ea316d21385b68909f,,,,,,,,,,,1766.4984,1767.4999,,,1767.9899,1768.2354,,51,51,,,,,,,,,,,,,,,,bars/028.png,bars/mask004.png,,,,,,,,,,,,0,1,,,,,,,2,5,0,6,,,,,,,,,,,1767.4999,1767.9897,1768.2356,1777.0411,space,8.796,,1777.0413,6,69,1778.0397,1778.0399,1778.074,,,,0,1,1,1,1,45,120,,,,,,,,
,,5fa48feaddfbd812de13f3bb,65af58158f4b972623180bee,2024-01-23_08h12.22.710,bars,2023.2.3,Win32,59.17159763,657b66ea316d21385b68909f,,,,,,,,,,,1778.0751,1779.0688,,,1779.5572,1779.8021,,33,33,,,,,,,,,,,,,,,,bars/024.png,bars/mask003.png,,,,,,,,,,,,0,2,,,,,,,0,7,0,6,,,,,,,,,,,1779.0689,1779.5569,1779.8023,1784.4427,space,4.6207,,1784.4428,87,43,1785.4343,1785.4345,1785.4716,,,,0,2,2,2,1,120,170,,,,,,,,
,,5fa48feaddfbd812de13f3bb,65af58158f4b972623180bee,2024-01-23_08h12.22.710,bars,2023.2.3,Win32,59.17159763,657b66ea316d21385b68909f,,,,,,,,,,,1785.472,1786.4673,,,1786.9674,1787.2172,,52,52,,,,,,,,,,,,,,,,bars/026.png,bars/mask005.png,,,,,,,,,,,,1,1,,,,,,,2,5,2,5,,,,,,,,,,,1786.4674,1786.9673,1787.2172,1790.3355,space,3.1032,,1790.3357,17,33,1791.336,1791.336,1791.3999,,,,0,3,3,3,1,35,85,,,,,,,,
,,5fa48feaddfbd812de13f3bb,65af58158f4b972623180bee,2024-01-23_08h12.22.710,bars,2023.2.3,Win32,59.17159763,657b66ea316d21385b68909f,,,,,,,,,,,1791.4032,1792.403,,,1792.9008,1793.1523,,49,229,,,,,,,,,,,,,,,,bars/005.png,bars/mask006.png,,,,,,,,,,,,0,1,,,,,,,0,7,0,7,,,,,,,,,,,1792.403,1792.9007,1793.1524,1797.4007,space,4.2402,,1797.4007,39,89,1798.4007,1798.4008,1798.4401,,,,0,4,4,4,1,10,140,,,,,,,,
,,5fa48feaddfbd812de13f3bb,65af58158f4b972623180bee,2024-01-23_08h12.22.710,bars,2023.2.3,Win32,59.17159763,657b66ea316d21385b68909f,,,,,,,,,,,1798.441,1799.4342,,,1799.9243,1800.1696,,55,235,,,,,,,,,,,,,,,,bars/029.png,bars/mask007.png,,,,,,,,,,,,3,2,,,,,,,2,5,3,5,,,,,,,,,,,1799.4345,1799.9241,1800.1697,1805.8378,space,5.6538,,1805.838,35,10,1806.8396,1806.8399,1806.8789,,,,0,5,5,5,1,90,45,,,,,,,,
,,5fa48feaddfbd812de13f3bb,65af58158f4b972623180bee,2024-01-23_08h12.22.710,bars,2023.2.3,Win32,59.17159763,657b66ea316d21385b68909f,,,,,,,,,,,1806.8792,1807.8692,,,1808.3678,1808.6176,,62,62,,,,,,,,,,,,,,,,bars/033.png,bars/mask003.png,,,,,,,,,,,,0,1,,,,,,,0,3,0,2,,,,,,,,,,,1807.8694,1808.3678,1808.6177,1811.5511,space,2.9284,,1811.5511,37,87,1812.5512,1812.5512,1812.5836,,,,0,6,6,6,1,25,155,,,,,,,,
,,5fa48feaddfbd812de13f3bb,65af58158f4b972623180bee,2024-01-23_08h12.22.710,bars,2023.2.3,Win32,59.17159763,657b66ea316d21385b68909f,,,,,,,,,,,1812.586,1813.5846,,,1814.0846,1814.3346,,136,136,,,,,,,,,,,,,,,,bars/028.png,bars/mask006.png,,,,,,,,,,,,2,2,,,,,,,2,5,3,5,,,,,,,,,,,1813.5846,1814.0846,1814.3346,1827.5349,space,13.1877,,1827.5351,89,16,1828.5348,1828.5348,1828.5625,,,,0,7,7,7,1,45,120,,,,,,,,
,,5fa48feaddfbd812de13f3bb,65af58158f4b972623180bee,2024-01-23_08h12.22.710,bars,2023.2.3,Win32,59.17159763,657b66ea316d21385b68909f,,,,,,,,,,,1828.5628,1829.5517,,,1830.0518,1830.3015,,104,104,,,,,,,,,,,,,,,,bars/021.png,bars/mask005.png,,,,,,,,,,,,0,2,,,,,,,0,7,0,8,,,,,,,,,,,1829.5519,1830.0518,1830.3016,1832.2185,space,1.9025,,1832.2185,51,34,1833.2185,1833.2185,1833.2474,,,,0,8,8,8,1,155,70,,,,,,,,
,,5fa48feaddfbd812de13f3bb,65af58158f4b972623180bee,2024-01-23_08h12.22.710,bars,2023.2.3,Win32,59.17159763,657b66ea316d21385b68909f,,,,,,,,,,,1833.2478,1834.2521,,,1834.752,1835.0042,,144,144,,,,,,,,,,,,,,,,bars/033.png,bars/mask003.png,,,,,,,,,,,,3,2,,,,,,,2,5,3,5,,,,,,,,,,,1834.2521,1834.752,1835.0042,1838.1022,space,3.0859,,1838.1024,61,11,1839.1032,1839.1032,1839.1321,,,,0,9,9,9,1,25,155,,,,,,,,
,,5fa48feaddfbd812de13f3bb,65af58158f4b972623180bee,2024-01-23_08h12.22.710,bars,2023.2.3,Win32,59.17159763,657b66ea316d21385b68909f,,,,,,,,,,,1839.1323,1840.1354,,,1840.6373,1840.8923,,90,270,,,,,,,,,,,,,,,,bars/034.png,bars/mask002.png,,,,,,,,,,,,1,2,,,,,,,0,7,1,7,,,,,,,,,,,1840.1354,1840.6371,1840.8924,1845.7953,space,4.887,,1845.7955,35,25,1846.7884,1846.7884,1846.8448,,,,0,10,10,10,1,125,65,,,,,,,,
,,5fa48feaddfbd812de13f3bb,65af58158f4b972623180bee,2024-01-23_08h12.22.710,bars,2023.2.3,Win32,59.17159763,657b66ea316d21385b68909f,,,,,,,,,,,1846.8461,1847.8353,,,1848.3355,1848.5854,,41,41,,,,,,,,,,,,,,,,bars/013.png,bars/mask001.png,,,,,,,,,,,,0,2,,,,,,,0,9,1,10,,,,,,,,,,,1847.8354,1848.3355,1848.5855,1851.0356,space,2.4352,,1851.0358,34,31,1852.0356,1852.0357,1852.0636,,,,0,11,11,11,1,75,10,,,,,,,,
,,5fa48feaddfbd812de13f3bb,65af58158f4b972623180bee,2024-01-23_08h12.22.710,bars,2023.2.3,Win32,59.17159763,657b66ea316d21385b68909f,,,,,,,,,,,1852.0638,1853.0525,,,1853.5525,1853.8024,,35,35,,,,,,,,,,,,,,,,bars/029.png,bars/mask007.png,,,,,,,,,,,,5,2,,,,,,,2,7,2,7,,,,,,,,,,,1853.0527,1853.5525,1853.8024,1865.2028,space,11.3862,,1865.2029,55,10,1866.2027,1866.2027,1866.2346,,,,0,12,12,12,1,90,45,,,,,,,,
,,5fa48feaddfbd812de13f3bb,65af58158f4b972623180bee,2024-01-23_08h12.22.710,bars,2023.2.3,Win32,59.17159763,657b66ea316d21385b68909f,,,,,,,,,,,1866.2372,1867.236,,,1867.7361,1867.9859,,31,31,,,,,,,,,,,,,,,,bars/022.png,bars/mask002.png,,,,,,,,,,,,3,2,,,,,,,4,5,3,5,,,,,,,,,,,1867.2361,1867.7361,1867.9859,1870.1361,space,2.1351,,1870.1361,64,11,1871.1361,1871.1363,1871.1653,,,,0,13,13,13,1,95,20,,,,,,,,
,,5fa48feaddfbd812de13f3bb,65af58158f4b972623180bee,2024-01-23_08h12.22.710,bars,2023.2.3,Win32,59.17159763,657b66ea316d21385b68909f,,,,,,,,,,,1871.1664,1872.1694,,,1872.6696,1872.9196,,45,45,,,,,,,,,,,,,,,,bars/046.png,bars/mask003.png,,,,,,,,,,,,0,2,,,,,,,2,3,1,3,,,,,,,,,,,1872.1695,1872.6695,1872.9196,1891.754,space,18.8214,,1891.7541,70,40,1892.7535,1892.7536,1892.7815,,,,0,14,14,14,1,155,85,,,,,,,,
,,5fa48feaddfbd812de13f3bb,65af58158f4b972623180bee,2024-01-23_08h12.22.710,bars,2023.2.3,Win32,59.17159763,657b66ea316d21385b68909f,,,,,,,,,,,1892.7817,1893.7749,,,1894.2706,1894.5093,,38,218,,,,,,,,,,,,,,,,bars/035.png,bars/mask007.png,,,,,,,,,,,,1,2,,,,,,,4,1,3,3,,,,,,,,,,,1893.775,1894.2703,1894.5093,1900.7134,space,6.1858,,1900.7135,43,22,1901.7106,1901.7106,1901.7678,,,,0,15,15,15,1,175,60,,,,,,,,
,,5fa48feaddfbd812de13f3bb,65af58158f4b972623180bee,2024-01-23_08h12.22.710,bars,2023.2.3,Win32,59.17159763,657b66ea316d21385b68909f,,,,,,,,,,,1901.768,1902.7716,,,1903.2714,1903.5242,,132,132,,,,,,,,,,,,,,,,bars/044.png,bars/mask001.png,,,,,,,,,,,,0,2,,,,,,,6,0,5,0,,,,,,,,,,,1902.7719,1903.2714,1903.5243,1905.7755,space,2.2334,,1905.7757,57,23,1906.7722,1906.7723,1906.8283,,,,0,16,16,16,1,75,155,,,,,,,,
,,5fa48feaddfbd812de13f3bb,65af58158f4b972623180bee,2024-01-23_08h12.22.710,bars,2023.2.3,Win32,59.17159763,657b66ea316d21385b68909f,,,,,,,,,,,1906.8285,1907.8221,,,1908.3232,1908.573,,135,135,,,,,,,,,,,,,,,,bars/029.png,bars/mask006.png,,,,,,,,,,,,0,1,,,,,,,4,2,5,2,,,,,,,,,,,1907.8222,1908.323,1908.5732,1910.6293,space,2.045,,1910.6295,45,90,1911.6219,1911.6219,1911.6278,,,,0,17,17,17,1,90,45,,,,,,,,
,,5fa48feaddfbd812de13f3bb,65af58158f4b972623180bee,2024-01-23_08h12.22.710,bars,2023.2.3,Win32,59.17159763,657b66ea316d21385b68909f,,,,,,,,,,,1911.6292,1912.6223,,,1913.1222,1913.3727,,116,116,,,,,,,,,,,,,,,,bars/012.png,bars/mask009.png,,,,,,,,,,,,1,1,,,,,,,6,4,7,4,,,,,,,,,,,1912.6224,1913.1221,1913.3727,1916.4421,space,3.0583,,1916.4423,26,79,1917.4394,1917.4395,1917.4965,,,,0,18,18,18,1,90,15,,,,,,,,
,,5fa48feaddfbd812de13f3bb,65af58158f4b972623180bee,2024-01-23_08h12.22.710,bars,2023.2.3,Win32,59.17159763,657b66ea316d21385b68909f,,,,,,,,,,,1917.4967,1918.4891,,,1918.989,1919.228,,110,110,,,,,,,,,,,,,,,,bars/001.png,bars/mask008.png,,,,,,,,,,,,2,1,,,,,,,4,2,6,3,,,,,,,,,,,1918.4892,1918.9888,1919.2282,1921.1234,space,1.8735,,1921.1235,20,25,1922.1234,1922.1235,1922.1862,,,,0,19,19,19,1,130,85,,,,,,,,
,,5fa48feaddfbd812de13f3bb,65af58158f4b972623180bee,2024-01-23_08h12.22.710,bars,2023.2.3,Win32,59.17159763,657b66ea316d21385b68909f,,,,,,,,,,,1922.1888,1923.1884,,,1923.689,1923.9411,,148,148,,,,,,,,,,,,,,,,bars/048.png,bars/mask004.png,,,,,,,,,,,,0,2,,,,,,,6,4,8,4,,,,,,,,,,,1923.1896,1923.689,1923.9419,1926.0234,space,2.0679,,1926.0235,82,27,1927.0226,1927.0227,1927.0819,,,,0,20,20,20,1,50,175,,,,,,,,
,,5fa48feaddfbd812de13f3bb,65af58158f4b972623180bee,2024-01-23_08h12.22.710,bars,2023.2.3,Win32,59.17159763,657b66ea316d21385b68909f,,,,,,,,,,,1927.0839,1928.0722,,,1928.5731,1928.8226,,91,91,,,,,,,,,,,,,,,,bars/021.png,bars/mask009.png,,,,,,,,,,,,2,2,,,,,,,8,6,9,6,,,,,,,,,,,1928.0725,1928.5729,1928.8227,1930.8226,space,1.9844,,1930.8228,64,21,1931.8279,1931.8279,1931.8287,,,,0,21,21,21,1,155,70,,,,,,,,
,,5fa48feaddfbd812de13f3bb,65af58158f4b972623180bee,2024-01-23_08h12.22.710,bars,2023.2.3,Win32,59.17159763,657b66ea316d21385b68909f,,,,,,,,,,,1931.8295,1932.8281,,,1933.3238,1933.5734,,143,143,,,,,,,,,,,,,,,,bars/040.png,bars/mask006.png,,,,,,,,,,,,8,1,,,,,,,10,8,9,8,,,,,,,,,,,1932.8282,1933.3236,1933.5738,1935.4385,space,1.8434,,1935.4388,3,42,1936.4461,1936.4462,1936.5039,,,,0,22,22,22,1,140,5,,,,,,,,
,,5fa48feaddfbd812de13f3bb,65af58158f4b972623180bee,2024-01-23_08h12.22.710,bars,2023.2.3,Win32,59.17159763,657b66ea316d21385b68909f,,,,,,,,,,,1936.5043,1937.4944,,,1937.9896,1938.2384,,133,133,,,,,,,,,,,,,,,,bars/004.png,bars/mask003.png,,,,,,,,,,,,7,2,,,,,,,8,10,7,10,,,,,,,,,,,1937.4944,1937.9895,1938.2385,1939.8569,space,1.6043,,1939.8569,72,8,1940.8546,1940.8547,1940.86,,,,0,23,23,23,1,25,125,,,,,,,,
,,5fa48feaddfbd812de13f3bb,65af58158f4b972623180bee,2024-01-23_08h12.22.710,bars,2023.2.3,Win32,59.17159763,657b66ea316d21385b68909f,,,,,,,,,,,1940.8614,1941.8546,,,1942.3547,1942.6048,,121,-59,,,,,,,,,,,,,,,,bars/004.png,bars/mask007.png,,,,,,,,,,,,7,2,,,,,,,10,8,10,8,,,,,,,,,,,1941.8547,1942.3547,1942.6048,1946.2568,space,3.6394,,1946.258,84,4,1947.2579,1947.2581,1947.2892,,,,0,24,24,24,1,25,125,,,,,,,,
,,5fa48feaddfbd812de13f3bb,65af58158f4b972623180bee,2024-01-23_08h12.22.710,bars,2023.2.3,Win32,59.17159763,657b66ea316d21385b68909f,,,,,,,,,,,1947.2905,1948.2951,,,1948.7952,1949.0429,,90,90,,,,,,,,,,,,,,,,bars/029.png,bars/mask001.png,,,,,,,,,,,,10,1,,,,,,,8,6,10,6,,,,,,,,,,,1948.2952,1948.795,1949.0429,1951.2952,space,2.2361,,1951.2953,0,45,1952.2949,1952.2951,1952.3189,,,,0,25,25,25,1,90,45,,,,,,,,
,,5fa48feaddfbd812de13f3bb,65af58158f4b972623180bee,2024-01-23_08h12.22.710,bars,2023.2.3,Win32,59.17159763,657b66ea316d21385b68909f,,,,,,,,,,,1952.3192,1953.3215,,,1953.8217,1954.0718,,84,84,,,,,,,,,,,,,,,,bars/038.png,bars/mask005.png,,,,,,,,,,,,2,2,,,,,,,6,4,6,4,,,,,,,,,,,1953.3216,1953.8217,1954.0718,1958.7722,space,4.689,,1958.7723,81,14,1959.7718,1959.7719,1959.8096,,,,0,26,26,26,1,165,70,,,,,,,,
,,5fa48feaddfbd812de13f3bb,65af58158f4b972623180bee,2024-01-23_08h12.22.710,bars,2023.2.3,Win32,59.17159763,657b66ea316d21385b68909f,,,,,,,,,,,1959.8106,1960.8118,,,1961.3056,1961.5555,,106,106,,,,,,,,,,,,,,,,bars/023.png,bars/mask001.png,,,,,,,,,,,,5,2,,,,,,,8,6,8,7,,,,,,,,,,,1960.812,1961.3054,1961.5556,1964.665,space,3.0864,,1964.6651,86,9,1965.6556,1965.6558,1965.6833,,,,0,27,27,27,1,20,115,,,,,,,,
,,5fa48feaddfbd812de13f3bb,65af58158f4b972623180bee,2024-01-23_08h12.22.710,bars,2023.2.3,Win32,59.17159763,657b66ea316d21385b68909f,,,,,,,,,,,1965.6835,1966.6744,,,1967.1721,1967.4262,,54,54,,,,,,,,,,,,,,,,bars/036.png,bars/mask002.png,,,,,,,,,,,,0,2,,,,,,,6,8,8,10,,,,,,,,,,,1966.6745,1967.172,1967.4263,1974.4405,space,7.0008,,1974.4407,89,34,1975.4388,1975.4389,1975.4759,,,,0,28,28,28,1,145,20,,,,,,,,
,,5fa48feaddfbd812de13f3bb,65af58158f4b972623180bee,2024-01-23_08h12.22.710,bars,2023.2.3,Win32,59.17159763,657b66ea316d21385b68909f,,,,,,,,,,,1975.4761,1976.4795,,,1976.9747,1977.224,,101,101,,,,,,,,,,,,,,,,bars/022.png,bars/mask009.png,,,,,,,,,,,,6,1,,,,,,,8,6,7,6,,,,,,,,,,,1976.4796,1976.9746,1977.2241,1980.9744,space,3.7245,,1980.9745,6,81,1981.9789,1981.9791,1982.0132,,,,0,29,29,29,1,95,20,,,,,,,,
,,5fa48feaddfbd812de13f3bb,65af58158f4b972623180bee,2024-01-23_08h12.22.710,bars,2023.2.3,Win32,59.17159763,657b66ea316d21385b68909f,,,,,,,,,,,1982.0143,1983.012,,,1983.5103,1983.7581,,144,144,,,,,,,,,,,,,,,,bars/005.png,bars/mask008.png,,,,,,,,,,,,7,2,,,,,,,10,8,10,8,,,,,,,,,,,1983.0122,1983.5101,1983.7581,1985.2489,space,1.4688,,1985.2491,46,4,1986.2418,1986.2419,1986.2785,,,,0,30,30,30,1,10,140,,,,,,,,
,,5fa48feaddfbd812de13f3bb,65af58158f4b972623180bee,2024-01-23_08h12.22.710,bars,2023.2.3,Win32,59.17159763,657b66ea316d21385b68909f,,,,,,,,,,,1986.2795,1987.2729,,,1987.776,1988.0227,,134,134,,,,,,,,,,,,,,,,bars/004.png,bars/mask009.png,,,,,,,,,,,,6,2,,,,,,,8,10,6,9,,,,,,,,,,,1987.2729,1987.7759,1988.0228,1992.4897,space,4.4534,,1992.4897,71,9,1993.49,1993.4901,1993.5193,,,,0,31,31,31,1,25,125,,,,,,,,
,,5fa48feaddfbd812de13f3bb,65af58158f4b972623180bee,2024-01-23_08h12.22.710,bars,2023.2.3,Win32,59.17159763,657b66ea316d21385b68909f,,,,,,,,,,,1993.5203,1994.5228,,,1995.0227,1995.2729,,47,47,,,,,,,,,,,,,,,,bars/025.png,bars/mask006.png,,,,,,,,,,,,6,2,,,,,,,6,8,6,8,,,,,,,,,,,1994.5228,1995.0226,1995.2729,1997.4231,space,2.138,,1997.4232,58,7,1998.4228,1998.4229,1998.4511,,,,0,32,32,32,1,105,40,,,,,,,,
,,5fa48feaddfbd812de13f3bb,65af58158f4b972623180bee,2024-01-23_08h12.22.710,bars,2023.2.3,Win32,59.17159763,657b66ea316d21385b68909f,,,,,,,,,,,1998.4516,1999.4397,,,1999.9405,2000.179,,119,119,,,,,,,,,,,,,,,,bars/006.png,bars/mask006.png,,,,,,,,,,,,4,2,,,,,,,8,10,8,10,,,,,,,,,,,1999.4397,1999.9403,2000.1791,2005.9071,space,5.7114,,2005.9077,84,19,2006.9073,2006.9075,2006.9486,,,,0,33,33,33,1,35,100,,,,,,,,
,,5fa48feaddfbd812de13f3bb,65af58158f4b972623180bee,2024-01-23_08h12.22.710,bars,2023.2.3,Win32,59.17159763,657b66ea316d21385b68909f,,,,,,,,,,,2006.9498,2007.9416,,,2008.4413,2008.6902,,51,51,,,,,,,,,,,,,,,,bars/036.png,bars/mask000.png,,,,,,,,,,,,0,2,,,,,,,6,8,6,10,,,,,,,,,,,2007.9417,2008.4412,2008.6903,2010.5751,space,1.8708,,2010.5752,86,31,2011.5745,2011.5746,2011.578,,,,0,34,34,34,1,145,20,,,,,,,,
,,5fa48feaddfbd812de13f3bb,65af58158f4b972623180bee,2024-01-23_08h12.22.710,bars,2023.2.3,Win32,59.17159763,657b66ea316d21385b68909f,,,,,,,,,,,2011.5805,2012.5733,,,2013.0757,2013.3133,,32,32,,,,,,,,,,,,,,,,bars/036.png,bars/mask009.png,,,,,,,,,,,,4,2,,,,,,,4,6,4,6,,,,,,,,,,,2012.5733,2013.0754,2013.3133,2017.99,space,4.6653,,2017.99,67,12,2018.99,2018.99,2019.0089,,,,0,35,35,35,1,145,20,,,,,,,,
,,5fa48feaddfbd812de13f3bb,65af58158f4b972623180bee,2024-01-23_08h12.22.710,bars,2023.2.3,Win32,59.17159763,657b66ea316d21385b68909f,,,,,,,,,,,2019.0092,2020.0071,,,2020.4972,2020.7461,,48,48,,,,,,,,,,,,,,,,bars/021.png,bars/mask000.png,,,,,,,,,,,,1,2,,,,,,,2,4,2,4,,,,,,,,,,,2020.0073,2020.4971,2020.7461,2032.1679,space,11.4032,,2032.1681,73,22,2033.1591,2033.1595,2033.185,,,,0,36,36,36,1,155,70,,,,,,,,
,,5fa48feaddfbd812de13f3bb,65af58158f4b972623180bee,2024-01-23_08h12.22.710,bars,2023.2.3,Win32,59.17159763,657b66ea316d21385b68909f,,,,,,,,,,,2033.1864,2034.1752,,,2034.6634,2034.9105,,138,138,,,,,,,,,,,,,,,,bars/000.png,bars/mask002.png,,,,,,,,,,,,3,2,,,,,,,4,6,4,4,,,,,,,,,,,2034.1753,2034.6633,2034.9107,2039.166,space,4.2355,,2039.1662,82,7,2040.1575,2040.1577,2040.1873,,,,0,37,37,37,1,40,145,,,,,,,,
,,5fa48feaddfbd812de13f3bb,65af58158f4b972623180bee,2024-01-23_08h12.22.710,bars,2023.2.3,Win32,59.17159763,657b66ea316d21385b68909f,,,,,,,,,,,2040.1876,2041.1769,,,2041.6742,2041.924,,29,29,,,,,,,,,,,,,,,,bars/034.png,bars/mask003.png,,,,,,,,,,,,0,2,,,,,,,2,8,1,7,,,,,,,,,,,2041.177,2041.6741,2041.924,2046.4411,space,4.5063,,2046.4411,84,36,2047.4408,2047.4409,2047.4671,,,,0,38,38,38,1,125,65,,,,,,,,
,,5fa48feaddfbd812de13f3bb,65af58158f4b972623180bee,2024-01-23_08h12.22.710,bars,2023.2.3,Win32,59.17159763,657b66ea316d21385b68909f,,,,,,,,,,,2047.4683,2048.4587,,,2048.9581,2049.1984,,23,23,,,,,,,,,,,,,,,,bars/005.png,bars/mask008.png,,,,,,,,,,,,3,1,,,,,,,4,10,5,10,,,,,,,,,,,2048.459,2048.958,2049.1986,2051.3467,space,2.1334,,2051.3468,13,63,2052.3429,2052.3431,2052.3804,,,,0,39,39,39,1,10,140,,,,,,,,
,,5fa48feaddfbd812de13f3bb,65af58158f4b972623180bee,2024-01-23_08h12.22.710,bars,2023.2.3,Win32,59.17159763,657b66ea316d21385b68909f,,,,,,,,,,,2052.3818,2053.3759,,,2053.8811,2054.1317,,154,154,,,,,,,,,,,,,,,,bars/040.png,bars/mask006.png,,,,,,,,,,,,4,1,,,,,,,6,8,7,7,,,,,,,,,,,2053.3762,2053.881,2054.1319,2057.2176,space,3.068,,2057.2177,14,31,2058.21,2058.2104,2058.2498,,,,0,40,40,40,1,140,5,,,,,,,,
,,5fa48feaddfbd812de13f3bb,65af58158f4b972623180bee,2024-01-23_08h12.22.710,bars,2023.2.3,Win32,59.17159763,657b66ea316d21385b68909f,,,,,,,,,,,2058.25,2059.2412,,,2059.7413,2059.9914,,27,27,,,,,,,,,,,,,,,,bars/018.png,bars/mask002.png,,,,,,,,,,,,0,1,,,,,,,4,6,5,7,,,,,,,,,,,2059.2412,2059.7412,2059.9916,2062.0746,space,2.0744,,2062.0748,57,63,2063.0758,2063.0761,2063.0785,,,,0,41,41,41,1,150,90,,,,,,,,
,,5fa48feaddfbd812de13f3bb,65af58158f4b972623180bee,2024-01-23_08h12.22.710,bars,2023.2.3,Win32,59.17159763,657b66ea316d21385b68909f,,,,,,,,,,,2063.0788,2064.0746,,,2064.5747,2064.8246,,45,45,,,,,,,,,,,,,,,,bars/035.png,bars/mask006.png,,,,,,,,,,,,5,2,,,,,,,6,8,6,9,,,,,,,,,,,2064.0746,2064.5747,2064.8246,2068.6248,space,3.7853,,2068.6249,50,15,2069.6248,2069.6248,2069.6542,,,,0,42,42,42,1,175,60,,,,,,,,
,,5fa48feaddfbd812de13f3bb,65af58158f4b972623180bee,2024-01-23_08h12.22.710,bars,2023.2.3,Win32,59.17159763,657b66ea316d21385b68909f,,,,,,,,,,,2069.6553,2070.6583,,,2071.1582,2071.4105,,122,122,,,,,,,,,,,,,,,,bars/028.png,bars/mask004.png,,,,,,,,,,,,7,2,,,,,,,8,6,9,7,,,,,,,,,,,2070.6583,2071.1582,2071.4106,2073.0917,space,1.666,,2073.0918,77,2,2074.0937,2074.094,2074.153,,,,0,43,43,43,1,45,120,,,,,,,,
,,5fa48feaddfbd812de13f3bb,65af58158f4b972623180bee,2024-01-23_08h12.22.710,bars,2023.2.3,Win32,59.17159763,657b66ea316d21385b68909f,,,,,,,,,,,2074.1546,2075.1582,,,2075.6582,2075.9084,,41,41,,,,,,,,,,,,,,,,bars/023.png,bars/mask004.png,,,,,,,,,,,,2,1,,,,,,,6,8,5,10,,,,,,,,,,,2075.1583,2075.6582,2075.9084,2077.7445,space,1.8224,,2077.7447,21,74,2078.7416,2078.7416,2078.748,,,,0,44,44,44,1,20,115,,,,,,,,
,,5fa48feaddfbd812de13f3bb,65af58158f4b972623180bee,2024-01-23_08h12.22.710,bars,2023.2.3,Win32,59.17159763,657b66ea316d21385b68909f,,,,,,,,,,,2078.7492,2079.7417,,,2080.2419,2080.4917,,16,196,,,,,,,,,,,,,,,,bars/032.png,bars/mask004.png,,,,,,,,,,,,8,2,,,,,,,4,10,4,9,,,,,,,,,,,2079.7418,2080.2419,2080.4917,2083.0419,space,2.5377,,2083.0419,71,4,2084.0419,2084.0419,2084.0743,,,,0,45,45,45,1,125,20,,,,,,,,
,,5fa48feaddfbd812de13f3bb,65af58158f4b972623180bee,2024-01-23_08h12.22.710,bars,2023.2.3,Win32,59.17159763,657b66ea316d21385b68909f,,,,,,,,,,,2084.077,2085.0755,,,2085.5649,2085.8103,,125,125,,,,,,,,,,,,,,,,bars/043.png,bars/mask004.png,,,,,,,,,,,,8,2,,,,,,,2,8,3,9,,,,,,,,,,,2085.0758,2085.5648,2085.8112,2087.6026,space,1.7687,,2087.6027,85,5,2088.5919,2088.5921,2088.5961,,,,0,46,46,46,1,30,130,,,,,,,,
,,5fa48feaddfbd812de13f3bb,65af58158f4b972623180bee,2024-01-23_08h12.22.710,bars,2023.2.3,Win32,59.17159763,657b66ea316d21385b68909f,,,,,,,,,,,2088.5979,2089.5966,,,2090.0935,2090.3433,,32,32,,,,,,,,,,,,,,,,bars/016.png,bars/mask002.png,,,,,,,,,,,,3,1,,,,,,,4,6,4,9,,,,,,,,,,,2089.5968,2090.0934,2090.3434,2095.6114,space,5.2535,,2095.6115,8,47,2096.6149,2096.615,2096.6476,,,,0,47,47,47,1,40,165,,,,,,,,
,,5fa48feaddfbd812de13f3bb,65af58158f4b972623180bee,2024-01-23_08h12.22.710,bars,2023.2.3,Win32,59.17159763,657b66ea316d21385b68909f,,,,,,,,,,,2096.6478,2097.6502,,,2098.1488,2098.3943,,121,121,,,,,,,,,,,,,,,,bars/034.png,bars/mask006.png,,,,,,,,,,,,1,1,,,,,,,2,8,1,7,,,,,,,,,,,2097.6504,2098.1487,2098.3944,2102.0613,space,3.6517,,2102.0615,4,56,2103.0597,2103.0599,2103.0893,,,,0,48,48,48,1,125,65,,,,,,,,
,,5fa48feaddfbd812de13f3bb,65af58158f4b972623180bee,2024-01-23_08h12.22.710,bars,2023.2.3,Win32,59.17159763,657b66ea316d21385b68909f,,,,,,,,,,,2103.0908,2104.0923,,,2104.5925,2104.8424,,41,41,,,,,,,,,,,,,,,,bars/047.png,bars/mask009.png,,,,,,,,,,,,0,1,,,,,,,0,6,0,6,,,,,,,,,,,2104.0923,2104.5924,2104.8424,2106.5427,space,1.6904,,2106.5427,26,29,2107.5424,2107.5425,2107.5729,,,,0,49,49,49,1,15,70,,,,,,,,
,,5fa48feaddfbd812de13f3bb,65af58158f4b972623180bee,2024-01-23_08h12.22.710,bars,2023.2.3,Win32,59.17159763,657b66ea316d21385b68909f,,,,,,,,,,,,,,,,,,,,,,,,,,,,,,,,,,,,,,,,,,,,,,,,,,,,,,,,,,,,,,,,,,,,,,,,,,,,,,,,,,,,,,,,,,,,,2107.5737,2167.5623,0,3,3,3,1,sequence_tables/blk005.csv
,,5fa48feaddfbd812de13f3bb,65af58158f4b972623180bee,2024-01-23_08h12.22.710,bars,2023.2.3,Win32,59.17159763,657b66ea316d21385b68909f,,,,,,,,,,,2208.1821,2209.1151,,,2209.6152,2209.8651,,37,-143,,,,,,,,,,,,,,,,bars/029.png,bars/mask002.png,,,,,,,,,,,,2,2,,,,,,,2,3,5,3,,,,,,2167.6181,2208.0975,space,40.4602,,2209.1152,2209.615,2209.8654,2215.048,space,5.1551,,2215.0484,53,8,2216.0474,2216.0475,2216.071,,,,0,0,0,0,1,90,45,,,,,,,,
,,5fa48feaddfbd812de13f3bb,65af58158f4b972623180bee,2024-01-23_08h12.22.710,bars,2023.2.3,Win32,59.17159763,657b66ea316d21385b68909f,,,,,,,,,,,2216.0712,2217.0639,,,2217.5526,2217.7957,,54,54,,,,,,,,,,,,,,,,bars/023.png,bars/mask009.png,,,,,,,,,,,,0,1,,,,,,,4,1,3,1,,,,,,,,,,,2217.0639,2217.5524,2217.7959,2220.3568,space,2.5398,,2220.3569,34,61,2221.3455,2221.3456,2221.3733,,,,0,1,1,1,1,20,115,,,,,,,,
,,5fa48feaddfbd812de13f3bb,65af58158f4b972623180bee,2024-01-23_08h12.22.710,bars,2023.2.3,Win32,59.17159763,657b66ea316d21385b68909f,,,,,,,,,,,2221.3736,2222.3623,,,2222.8624,2223.1122,,51,51,,,,,,,,,,,,,,,,bars/031.png,bars/mask008.png,,,,,,,,,,,,0,2,,,,,,,6,0,5,0,,,,,,,,,,,2222.3623,2222.8623,2223.1123,2225.4143,space,2.2898,,2225.4145,69,16,2226.4124,2226.4126,2226.4362,,,,0,2,2,2,1,120,35,,,,,,,,
,,5fa48feaddfbd812de13f3bb,65af58158f4b972623180bee,2024-01-23_08h12.22.710,bars,2023.2.3,Win32,59.17159763,657b66ea316d21385b68909f,,,,,,,,,,,2226.4378,2227.4289,,,2227.9292,2228.179,,56,56,,,,,,,,,,,,,,,,bars/028.png,bars/mask008.png,,,,,,,,,,,,3,1,,,,,,,4,2,4,2,,,,,,,,,,,2227.4289,2227.9292,2228.179,2237.9294,space,9.7345,,2237.9295,11,64,2238.9292,2238.9293,2238.9578,,,,0,3,3,3,1,45,120,,,,,,,,
,,5fa48feaddfbd812de13f3bb,65af58158f4b972623180bee,2024-01-23_08h12.22.710,bars,2023.2.3,Win32,59.17159763,657b66ea316d21385b68909f,,,,,,,,,,,2238.9587,2239.9628,,,2240.4626,2240.7132,,114,114,,,,,,,,,,,,,,,,bars/009.png,bars/mask005.png,,,,,,,,,,,,3,2,,,,,,,6,4,6,4,,,,,,,,,,,2239.9628,2240.4626,2240.7132,2243.0838,space,2.3575,,2243.084,81,9,2244.0815,2244.0815,2244.1393,,,,0,4,4,4,1,15,105,,,,,,,,
,,5fa48feaddfbd812de13f3bb,65af58158f4b972623180bee,2024-01-23_08h12.22.710,bars,2023.2.3,Win32,59.17159763,657b66ea316d21385b68909f,,,,,,,,,,,2244.1396,2245.1319,,,2245.6316,2245.8807,,152,152,,,,,,,,,,,,,,,,bars/014.png,bars/mask001.png,,,,,,,,,,,,0,2,,,,,,,4,2,3,2,,,,,,,,,,,2245.132,2245.6315,2245.8809,2249.3481,space,3.4532,,2249.3484,72,28,2250.3464,2250.3464,2250.3679,,,,0,5,5,5,1,80,0,,,,,,,,
,,5fa48feaddfbd812de13f3bb,65af58158f4b972623180bee,2024-01-23_08h12.22.710,bars,2023.2.3,Win32,59.17159763,657b66ea316d21385b68909f,,,,,,,,,,,2250.3689,2251.3632,,,2251.8543,2252.1011,,35,35,,,,,,,,,,,,,,,,bars/007.png,bars/mask004.png,,,,,,,,,,,,2,2,,,,,,,2,4,2,5,,,,,,,,,,,2251.3636,2251.8542,2252.1012,2255.5395,space,3.4202,,2255.5395,40,20,2256.533,2256.5331,2256.5886,,,,0,6,6,6,1,175,55,,,,,,,,
,,5fa48feaddfbd812de13f3bb,65af58158f4b972623180bee,2024-01-23_08h12.22.710,bars,2023.2.3,Win32,59.17159763,657b66ea316d21385b68909f,,,,,,,,,,,2256.5899,2257.5798,,,2258.0798,2258.33,,107,107,,,,,,,,,,,,,,,,bars/034.png,bars/mask002.png,,,,,,,,,,,,2,1,,,,,,,4,2,5,2,,,,,,,,,,,2257.5798,2258.0797,2258.33,2259.48,space,1.1403,,2259.48,18,42,2260.4799,2260.48,2260.4835,,,,0,7,7,7,1,125,65,,,,,,,,
,,5fa48feaddfbd812de13f3bb,65af58158f4b972623180bee,2024-01-23_08h12.22.710,bars,2023.2.3,Win32,59.17159763,657b66ea316d21385b68909f,,,,,,,,,,,2260.4838,2261.48,,,2261.9802,2262.2299,,17,17,,,,,,,,,,,,,,,,bars/004.png,bars/mask004.png,,,,,,,,,,,,1,1,,,,,,,2,4,2,6,,,,,,,,,,,2261.4801,2261.9801,2262.23,2262.7635,space,0.5209,,2262.7636,8,72,2263.7633,2263.7633,2263.7647,,,,0,8,8,8,1,25,125,,,,,,,,
,,5fa48feaddfbd812de13f3bb,65af58158f4b972623180bee,2024-01-23_08h12.22.710,bars,2023.2.3,Win32,59.17159763,657b66ea316d21385b68909f,,,,,,,,,,,2263.7666,2264.7635,,,2265.2652,2265.5135,,55,55,,,,,,,,,,,,,,,,bars/040.png,bars/mask005.png,,,,,,,,,,,,0,2,,,,,,,0,2,0,2,,,,,,,,,,,2264.7635,2265.265,2265.5135,2302.3006,space,36.7728,,2302.3015,85,50,2303.2977,2303.2978,2303.3398,,,,0,9,9,9,1,140,5,,,,,,,,
,,5fa48feaddfbd812de13f3bb,65af58158f4b972623180bee,2024-01-23_08h12.22.710,bars,2023.2.3,Win32,59.17159763,657b66ea316d21385b68909f,,,,,,,,,,,2303.341,2304.3311,,,2304.8202,2305.0706,,121,121,,,,,,,,,,,,,,,,bars/001.png,bars/mask004.png,,,,,,,,,,,,0,1,,,,,,,0,4,0,5,,,,,,,,,,,2304.3311,2304.8201,2305.0707,2307.971,space,2.8849,,2307.971,9,36,2308.9712,2308.9713,2308.9986,,,,0,10,10,10,1,130,85,,,,,,,,
,,5fa48feaddfbd812de13f3bb,65af58158f4b972623180bee,2024-01-23_08h12.22.710,bars,2023.2.3,Win32,59.17159763,657b66ea316d21385b68909f,,,,,,,,,,,2309.0004,2310.0004,,,2310.4987,2310.7551,,100,100,,,,,,,,,,,,,,,,bars/002.png,bars/mask008.png,,,,,,,,,,,,0,2,,,,,,,2,2,1,0,,,,,,,,,,,2310.0005,2310.4984,2310.7553,2313.7748,space,3.0026,,2313.775,30,15,2314.7668,2314.7669,2314.811,,,,0,11,11,11,1,130,85,,,,,,,,
