init_variables.started,init_variables.stopped,participant,session,date,expName,psychopyVersion,OS,frameRate,study_id,instruction_exp.started,instruction_exp.stopped,key_resp_8.keys,key_resp_8.rt,key_resp_8.duration,instruction_single.started,instruction_single.stopped,key_resp_2.keys,key_resp_2.rt,key_resp_2.duration,interval.started,interval.stopped,cue_single.started,cue_single.stopped,mask.started,mask.stopped,ori_response_single.started,res_ori,res,ori_response_single.stopped,key_resp_single.keys,key_resp_single.rt,key_resp_single.duration,disp_single.started,disp_single.stopped,key_resp.keys,key_resp.rt,key_resp.duration,single.thisRepN,single.thisTrialN,single.thisN,single.thisIndex,single.ran,ori,path,mask_path,instruction_bandit.started,instruction_bandit.stopped,key_resp_6.keys,key_resp_6.rt,key_resp_6.duration,cue_bandit.started,cue_bandit.stopped,bandit_res.keys,bandit_res.rt,bandit_res.duration,outcome_bandit.started,rew,action,outcome_bandit.stopped,bandit.thisRepN,bandit.thisTrialN,bandit.thisN,bandit.thisIndex,bandit.ran,actual_rew1,actual_rew2,rew1,rew2,instruction_task.started,instruction_task.stopped,key_resp_7.keys,key_resp_7.rt,key_resp_7.duration,wait_ready.started,wait_ready.stopped,key_resp_3.keys,key_resp_3.rt,key_resp_3.duration,cue.started,cue.stopped,ori_response.started,ori_response.stopped,key_resp_5.keys,key_resp_5.rt,key_resp_5.duration,outcome.started,diff1,diff2,outcome.stopped,disp_outcome_practice.started,disp_outcome_practice.stopped,key_resp_4.keys,key_resp_4.rt,key_resp_4.duration,trials.thisRepN,trials.thisTrialN,trials.thisN,trials.thisIndex,trials.ran,ori1,ori2,break_blk.started,break_blk.stopped,block.thisRepN,block.thisTrialN,block.thisN,block.thisIndex,block.ran,condition_file
0.0011,0.0015,60c1c8ade4bb1ec24514a4d5,65af56a74aa07d90bbee3cf8,2024-01-23_09h05.07.804,bars,2023.2.3,Win32,59.88023952,657b66ea316d21385b68909f,,,,,,,,,,,,,,,,,,,,,,,,,,,,,,,,,,,,,,,,,,,,,,,,,,,,,,,,,,,,,,,,,,,,,,,,,,,,,,,,,,,,,,,,,,,,,,,,,,,,
,,60c1c8ade4bb1ec24514a4d5,65af56a74aa07d90bbee3cf8,2024-01-23_09h05.07.804,bars,2023.2.3,Win32,59.88023952,657b66ea316d21385b68909f,0.0016,91.0877,y,91.0761,,,,,,,,,,,,,,,,,,,,,,,,,,,,,,,,,,,,,,,,,,,,,,,,,,,,,,,,,,,,,,,,,,,,,,,,,,,,,,,,,,,,,,,,,,,,,,,,
,,60c1c8ade4bb1ec24514a4d5,65af56a74aa07d90bbee3cf8,2024-01-23_09h05.07.804,bars,2023.2.3,Win32,59.88023952,657b66ea316d21385b68909f,,,,,,91.0878,94.5523,space,3.4336,,,,,,,,,,,,,,,,,,,,,,,,,,,,,,,,,,,,,,,,,,,,,,,,,,,,,,,,,,,,,,,,,,,,,,,,,,,,,,,,,,,,,,,,,,,
,,60c1c8ade4bb1ec24514a4d5,65af56a74aa07d90bbee3cf8,2024-01-23_09h05.07.804,bars,2023.2.3,Win32,59.88023952,657b66ea316d21385b68909f,,,,,,,,,,,94.5565,95.5514,95.5517,96.0583,96.0584,96.3068,96.3068,159,-21,99.0422,space,2.7104,,99.0422,100.8355,space,1.7722,,0,0,0,8,1,160,bars/single008.png,bars/mask004.png,,,,,,,,,,,,,,,,,,,,,,,,,,,,,,,,,,,,,,,,,,,,,,,,,,,,,,,,,,,,,,,,
,,60c1c8ade4bb1ec24514a4d5,65af56a74aa07d90bbee3cf8,2024-01-23_09h05.07.804,bars,2023.2.3,Win32,59.88023952,657b66ea316d21385b68909f,,,,,,,,,,,100.8373,101.8347,101.8349,102.3343,102.3345,102.5919,102.5919,33,213,105.4588,space,2.8507,,105.4588,106.4181,space,0.9397,,0,1,1,9,1,20,bars/single009.png,bars/mask006.png,,,,,,,,,,,,,,,,,,,,,,,,,,,,,,,,,,,,,,,,,,,,,,,,,,,,,,,,,,,,,,,,
,,60c1c8ade4bb1ec24514a4d5,65af56a74aa07d90bbee3cf8,2024-01-23_09h05.07.804,bars,2023.2.3,Win32,59.88023952,657b66ea316d21385b68909f,,,,,,,,,,,106.4195,107.4179,107.4181,107.9083,107.9084,108.1583,108.1583,24,24,111.0757,space,2.9008,,111.0757,111.8515,space,0.7548,,0,2,2,1,1,20,bars/single001.png,bars/mask006.png,,,,,,,,,,,,,,,,,,,,,,,,,,,,,,,,,,,,,,,,,,,,,,,,,,,,,,,,,,,,,,,,
,,60c1c8ade4bb1ec24514a4d5,65af56a74aa07d90bbee3cf8,2024-01-23_09h05.07.804,bars,2023.2.3,Win32,59.88023952,657b66ea316d21385b68909f,,,,,,,,,,,111.8526,112.8585,112.8585,113.3514,113.3516,113.6016,113.6018,25,205,116.2088,space,2.584,,116.2089,116.8256,space,0.6006,,0,3,3,3,1,20,bars/single003.png,bars/mask005.png,,,,,,,,,,,,,,,,,,,,,,,,,,,,,,,,,,,,,,,,,,,,,,,,,,,,,,,,,,,,,,,,
,,60c1c8ade4bb1ec24514a4d5,65af56a74aa07d90bbee3cf8,2024-01-23_09h05.07.804,bars,2023.2.3,Win32,59.88023952,657b66ea316d21385b68909f,,,,,,,,,,,116.8258,117.8218,117.8218,118.3246,118.3246,118.5747,118.5747,59,59,119.5381,space,0.9466,,119.5381,120.1381,space,0.5797,,0,4,4,5,1,55,bars/single005.png,bars/mask008.png,,,,,,,,,,,,,,,,,,,,,,,,,,,,,,,,,,,,,,,,,,,,,,,,,,,,,,,,,,,,,,,,
,,60c1c8ade4bb1ec24514a4d5,65af56a74aa07d90bbee3cf8,2024-01-23_09h05.07.804,bars,2023.2.3,Win32,59.88023952,657b66ea316d21385b68909f,,,,,,,,,,,120.1383,121.1343,121.1345,121.6346,121.6347,121.8735,121.8736,43,43,122.7921,space,0.9008,,122.7922,123.3755,space,0.567,,0,5,5,7,1,45,bars/single007.png,bars/mask009.png,,,,,,,,,,,,,,,,,,,,,,,,,,,,,,,,,,,,,,,,,,,,,,,,,,,,,,,,,,,,,,,,
,,60c1c8ade4bb1ec24514a4d5,65af56a74aa07d90bbee3cf8,2024-01-23_09h05.07.804,bars,2023.2.3,Win32,59.88023952,657b66ea316d21385b68909f,,,,,,,,,,,123.3757,124.3749,124.3749,124.874,124.874,125.1209,125.1209,98,98,127.8755,space,2.7339,,127.8756,128.4845,space,0.5871,,0,6,6,4,1,95,bars/single004.png,bars/mask004.png,,,,,,,,,,,,,,,,,,,,,,,,,,,,,,,,,,,,,,,,,,,,,,,,,,,,,,,,,,,,,,,,
,,60c1c8ade4bb1ec24514a4d5,65af56a74aa07d90bbee3cf8,2024-01-23_09h05.07.804,bars,2023.2.3,Win32,59.88023952,657b66ea316d21385b68909f,,,,,,,,,,,128.4852,129.4843,129.4844,129.9843,129.9844,130.2346,130.2347,150,150,132.6253,space,2.3671,,132.6253,133.2184,space,0.5675,,0,7,7,2,1,145,bars/single002.png,bars/mask003.png,,,,,,,,,,,,,,,,,,,,,,,,,,,,,,,,,,,,,,,,,,,,,,,,,,,,,,,,,,,,,,,,
,,60c1c8ade4bb1ec24514a4d5,65af56a74aa07d90bbee3cf8,2024-01-23_09h05.07.804,bars,2023.2.3,Win32,59.88023952,657b66ea316d21385b68909f,,,,,,,,,,,133.2196,134.2181,134.2183,134.7181,134.7182,134.9682,134.9682,145,145,136.2089,space,1.2173,,136.2089,136.8519,space,0.6177,,0,8,8,0,1,150,bars/single000.png,bars/mask006.png,,,,,,,,,,,,,,,,,,,,,,,,,,,,,,,,,,,,,,,,,,,,,,,,,,,,,,,,,,,,,,,,
,,60c1c8ade4bb1ec24514a4d5,65af56a74aa07d90bbee3cf8,2024-01-23_09h05.07.804,bars,2023.2.3,Win32,59.88023952,657b66ea316d21385b68909f,,,,,,,,,,,136.8528,137.8513,137.8514,138.3417,138.3418,138.5846,138.5846,4,184,140.3755,space,1.767,,140.3755,140.9421,space,0.5504,,0,9,9,6,1,175,bars/single006.png,bars/mask005.png,,,,,,,,,,,,,,,,,,,,,,,,,,,,,,,,,,,,,,,,,,,,,,,,,,,,,,,,,,,,,,,,
,,60c1c8ade4bb1ec24514a4d5,65af56a74aa07d90bbee3cf8,2024-01-23_09h05.07.804,bars,2023.2.3,Win32,59.88023952,657b66ea316d21385b68909f,,,,,,,,,,,,,,,,,,,,,,,,,,,,,,,,,,,,,140.9425,142.0748,space,1.1157,,,,,,,,,,,,,,,,,,,,,,,,,,,,,,,,,,,,,,,,,,,,,,,,,,,,,,,,,,,,
,,60c1c8ade4bb1ec24514a4d5,65af56a74aa07d90bbee3cf8,2024-01-23_09h05.07.804,bars,2023.2.3,Win32,59.88023952,657b66ea316d21385b68909f,,,,,,,,,,,,,,,,,,,,,,,,,,,,,,,,,,,,,,,,,,142.0759,143.3089,left,1.2168,,143.309,9,1,144.3019,0,0,0,0,1,9,1,9,2,,,,,,,,,,,,,,,,,,,,,,,,,,,,,,,,,,,,,,,,,
,,60c1c8ade4bb1ec24514a4d5,65af56a74aa07d90bbee3cf8,2024-01-23_09h05.07.804,bars,2023.2.3,Win32,59.88023952,657b66ea316d21385b68909f,,,,,,,,,,,,,,,,,,,,,,,,,,,,,,,,,,,,,,,,,,144.3033,144.792,left,0.467,,144.792,10,1,145.7845,0,1,1,1,1,10,0,10,1,,,,,,,,,,,,,,,,,,,,,,,,,,,,,,,,,,,,,,,,,
,,60c1c8ade4bb1ec24514a4d5,65af56a74aa07d90bbee3cf8,2024-01-23_09h05.07.804,bars,2023.2.3,Win32,59.88023952,657b66ea316d21385b68909f,,,,,,,,,,,,,,,,,,,,,,,,,,,,,,,,,,,,,,,,,,145.7852,146.1754,left,0.367,,146.1754,10,1,147.1749,0,2,2,2,1,10,2,10,2,,,,,,,,,,,,,,,,,,,,,,,,,,,,,,,,,,,,,,,,,
,,60c1c8ade4bb1ec24514a4d5,65af56a74aa07d90bbee3cf8,2024-01-23_09h05.07.804,bars,2023.2.3,Win32,59.88023952,657b66ea316d21385b68909f,,,,,,,,,,,,,,,,,,,,,,,,,,,,,,,,,,,,,,,,,,147.1752,147.4923,left,0.3007,,147.4924,7,1,148.4915,0,3,3,3,1,8,4,7,3,,,,,,,,,,,,,,,,,,,,,,,,,,,,,,,,,,,,,,,,,
,,60c1c8ade4bb1ec24514a4d5,65af56a74aa07d90bbee3cf8,2024-01-23_09h05.07.804,bars,2023.2.3,Win32,59.88023952,657b66ea316d21385b68909f,,,,,,,,,,,,,,,,,,,,,,,,,,,,,,,,,,,,,,,,,,148.4917,148.7351,left,0.2225,,148.7353,5,1,149.7347,0,4,4,4,1,6,2,5,1,,,,,,,,,,,,,,,,,,,,,,,,,,,,,,,,,,,,,,,,,
,,60c1c8ade4bb1ec24514a4d5,65af56a74aa07d90bbee3cf8,2024-01-23_09h05.07.804,bars,2023.2.3,Win32,59.88023952,657b66ea316d21385b68909f,,,,,,,,,,,,,,,,,,,,,,,,,,,,,,,,,,,,,,,,,,149.7363,150.2684,right,0.5063,,150.2685,4,2,151.2681,0,5,5,5,1,4,4,4,4,,,,,,,,,,,,,,,,,,,,,,,,,,,,,,,,,,,,,,,,,
,,60c1c8ade4bb1ec24514a4d5,65af56a74aa07d90bbee3cf8,2024-01-23_09h05.07.804,bars,2023.2.3,Win32,59.88023952,657b66ea316d21385b68909f,,,,,,,,,,,,,,,,,,,,,,,,,,,,,,,,,,,,,,,,,,151.269,151.5683,right,0.2752,,151.5684,2,2,152.5684,0,6,6,6,1,2,2,1,2,,,,,,,,,,,,,,,,,,,,,,,,,,,,,,,,,,,,,,,,,
,,60c1c8ade4bb1ec24514a4d5,65af56a74aa07d90bbee3cf8,2024-01-23_09h05.07.804,bars,2023.2.3,Win32,59.88023952,657b66ea316d21385b68909f,,,,,,,,,,,,,,,,,,,,,,,,,,,,,,,,,,,,,,,,,,152.5691,152.7023,left,0.1029,,152.7024,0,1,153.6915,0,7,7,7,1,0,0,0,1,,,,,,,,,,,,,,,,,,,,,,,,,,,,,,,,,,,,,,,,,
,,60c1c8ade4bb1ec24514a4d5,65af56a74aa07d90bbee3cf8,2024-01-23_09h05.07.804,bars,2023.2.3,Win32,59.88023952,657b66ea316d21385b68909f,,,,,,,,,,,,,,,,,,,,,,,,,,,,,,,,,,,,,,,,,,153.6918,153.8089,right,0.1006,,153.8091,0,2,154.8085,0,8,8,8,1,0,2,1,0,,,,,,,,,,,,,,,,,,,,,,,,,,,,,,,,,,,,,,,,,
,,60c1c8ade4bb1ec24514a4d5,65af56a74aa07d90bbee3cf8,2024-01-23_09h05.07.804,bars,2023.2.3,Win32,59.88023952,657b66ea316d21385b68909f,,,,,,,,,,,,,,,,,,,,,,,,,,,,,,,,,,,,,,,,,,154.8087,154.9515,right,0.1259,,154.9517,3,2,155.9585,0,9,9,9,1,2,4,2,3,,,,,,,,,,,,,,,,,,,,,,,,,,,,,,,,,,,,,,,,,
,,60c1c8ade4bb1ec24514a4d5,65af56a74aa07d90bbee3cf8,2024-01-23_09h05.07.804,bars,2023.2.3,Win32,59.88023952,657b66ea316d21385b68909f,,,,,,,,,,,,,,,,,,,,,,,,,,,,,,,,,,,,,,,,,,155.9587,156.4013,right,0.4235,,156.4014,3,2,157.4012,0,10,10,10,1,0,2,0,3,,,,,,,,,,,,,,,,,,,,,,,,,,,,,,,,,,,,,,,,,
,,60c1c8ade4bb1ec24514a4d5,65af56a74aa07d90bbee3cf8,2024-01-23_09h05.07.804,bars,2023.2.3,Win32,59.88023952,657b66ea316d21385b68909f,,,,,,,,,,,,,,,,,,,,,,,,,,,,,,,,,,,,,,,,,,157.4023,157.6521,left,0.2215,,157.6523,0,1,158.6587,0,11,11,11,1,0,4,0,3,,,,,,,,,,,,,,,,,,,,,,,,,,,,,,,,,,,,,,,,,
,,60c1c8ade4bb1ec24514a4d5,65af56a74aa07d90bbee3cf8,2024-01-23_09h05.07.804,bars,2023.2.3,Win32,59.88023952,657b66ea316d21385b68909f,,,,,,,,,,,,,,,,,,,,,,,,,,,,,,,,,,,,,,,,,,158.6592,158.8855,right,0.2012,,158.8855,6,2,159.8845,0,12,12,12,1,2,6,1,6,,,,,,,,,,,,,,,,,,,,,,,,,,,,,,,,,,,,,,,,,
,,60c1c8ade4bb1ec24514a4d5,65af56a74aa07d90bbee3cf8,2024-01-23_09h05.07.804,bars,2023.2.3,Win32,59.88023952,657b66ea316d21385b68909f,,,,,,,,,,,,,,,,,,,,,,,,,,,,,,,,,,,,,,,,,,159.8854,160.1421,right,0.2338,,160.1421,3,2,161.1346,0,13,13,13,1,0,4,1,3,,,,,,,,,,,,,,,,,,,,,,,,,,,,,,,,,,,,,,,,,
,,60c1c8ade4bb1ec24514a4d5,65af56a74aa07d90bbee3cf8,2024-01-23_09h05.07.804,bars,2023.2.3,Win32,59.88023952,657b66ea316d21385b68909f,,,,,,,,,,,,,,,,,,,,,,,,,,,,,,,,,,,,,,,,,,161.1355,161.9017,right,0.7382,,161.9018,7,2,162.9014,0,14,14,14,1,2,6,2,7,,,,,,,,,,,,,,,,,,,,,,,,,,,,,,,,,,,,,,,,,
,,60c1c8ade4bb1ec24514a4d5,65af56a74aa07d90bbee3cf8,2024-01-23_09h05.07.804,bars,2023.2.3,Win32,59.88023952,657b66ea316d21385b68909f,,,,,,,,,,,,,,,,,,,,,,,,,,,,,,,,,,,,,,,,,,162.9024,163.5853,right,0.6508,,163.5853,9,2,164.5844,0,15,15,15,1,4,8,3,9,,,,,,,,,,,,,,,,,,,,,,,,,,,,,,,,,,,,,,,,,
,,60c1c8ade4bb1ec24514a4d5,65af56a74aa07d90bbee3cf8,2024-01-23_09h05.07.804,bars,2023.2.3,Win32,59.88023952,657b66ea316d21385b68909f,,,,,,,,,,,,,,,,,,,,,,,,,,,,,,,,,,,,,,,,,,164.5851,165.0423,right,0.4503,,165.0423,7,2,166.0345,0,16,16,16,1,6,6,7,7,,,,,,,,,,,,,,,,,,,,,,,,,,,,,,,,,,,,,,,,,
,,60c1c8ade4bb1ec24514a4d5,65af56a74aa07d90bbee3cf8,2024-01-23_09h05.07.804,bars,2023.2.3,Win32,59.88023952,657b66ea316d21385b68909f,,,,,,,,,,,,,,,,,,,,,,,,,,,,,,,,,,,,,,,,,,166.0354,166.6718,right,0.6134,,166.6718,5,2,167.6682,0,17,17,17,1,8,4,9,5,,,,,,,,,,,,,,,,,,,,,,,,,,,,,,,,,,,,,,,,,
,,60c1c8ade4bb1ec24514a4d5,65af56a74aa07d90bbee3cf8,2024-01-23_09h05.07.804,bars,2023.2.3,Win32,59.88023952,657b66ea316d21385b68909f,,,,,,,,,,,,,,,,,,,,,,,,,,,,,,,,,,,,,,,,,,167.669,167.9849,right,0.2886,,167.985,1,2,168.9849,0,18,18,18,1,6,2,5,1,,,,,,,,,,,,,,,,,,,,,,,,,,,,,,,,,,,,,,,,,
,,60c1c8ade4bb1ec24514a4d5,65af56a74aa07d90bbee3cf8,2024-01-23_09h05.07.804,bars,2023.2.3,Win32,59.88023952,657b66ea316d21385b68909f,,,,,,,,,,,,,,,,,,,,,,,,,,,,,,,,,,,,,,,,,,168.9858,169.0922,left,0.0838,,169.0922,7,1,170.0845,0,19,19,19,1,8,0,7,0,,,,,,,,,,,,,,,,,,,,,,,,,,,,,,,,,,,,,,,,,
,,60c1c8ade4bb1ec24514a4d5,65af56a74aa07d90bbee3cf8,2024-01-23_09h05.07.804,bars,2023.2.3,Win32,59.88023952,657b66ea316d21385b68909f,,,,,,,,,,,,,,,,,,,,,,,,,,,,,,,,,,,,,,,,,,,,,,,,,,,,,,,,,,,,170.0853,173.9424,space,3.8335,,,,,,,,,,,,,,,,,,,,,,,,,,,,,,,,,,,,,
,,60c1c8ade4bb1ec24514a4d5,65af56a74aa07d90bbee3cf8,2024-01-23_09h05.07.804,bars,2023.2.3,Win32,59.88023952,657b66ea316d21385b68909f,,,,,,,,,,,175.1556,176.1516,,,176.6589,176.9013,,151,-29,,,,,,,,,,,,,,,,bars/042.png,bars/mask007.png,,,,,,,,,,,,8,1,,,,,,,10,7,10,6,,,,,,173.9485,175.1522,space,1.1842,,176.1522,176.6589,176.902,180.0196,space,3.0886,,180.0203,6,76,181.0251,181.0252,181.676,space,0.6334,,0,0,0,0,1,145,75,,,,,,,,
,,60c1c8ade4bb1ec24514a4d5,65af56a74aa07d90bbee3cf8,2024-01-23_09h05.07.804,bars,2023.2.3,Win32,59.88023952,657b66ea316d21385b68909f,,,,,,,,,,,181.6762,182.6715,,,183.1682,183.4069,,110,110,,,,,,,,,,,,,,,,bars/015.png,bars/mask009.png,,,,,,,,,,,,5,1,,,,,,,8,5,5,5,,,,,,,,,,,182.6715,183.1681,183.407,187.8384,space,4.4132,,187.8385,0,50,188.8419,188.8419,193.6075,space,4.7488,,0,1,1,1,1,110,160,,,,,,,,
,,60c1c8ade4bb1ec24514a4d5,65af56a74aa07d90bbee3cf8,2024-01-23_09h05.07.804,bars,2023.2.3,Win32,59.88023952,657b66ea316d21385b68909f,,,,,,,,,,,193.6127,194.6018,,,195.1029,195.3568,,155,-25,,,,,,,,,,,,,,,,bars/010.png,bars/mask007.png,,,,,,,,,,,,7,1,,,,,,,10,3,10,3,,,,,,,,,,,194.6019,195.1027,195.3569,199.3422,space,3.98,,199.3423,10,80,200.3417,200.3418,201.8258,space,1.4673,,0,2,2,2,1,165,55,,,,,,,,
,,60c1c8ade4bb1ec24514a4d5,65af56a74aa07d90bbee3cf8,2024-01-23_09h05.07.804,bars,2023.2.3,Win32,59.88023952,657b66ea316d21385b68909f,,,,,,,,,,,201.826,202.8215,,,203.3181,203.5753,,37,217,,,,,,,,,,,,,,,,bars/041.png,bars/mask008.png,,,,,,,,,,,,4,1,,,,,,,10,1,10,1,,,,,,,,,,,202.8215,203.318,203.5753,207.0185,space,3.4227,,207.0186,17,48,208.0184,208.0186,208.9257,space,0.8836,,0,3,3,3,1,20,85,,,,,,,,
,,60c1c8ade4bb1ec24514a4d5,65af56a74aa07d90bbee3cf8,2024-01-23_09h05.07.804,bars,2023.2.3,Win32,59.88023952,657b66ea316d21385b68909f,,,,,,,,,,,208.926,209.9181,,,210.4085,210.6513,,66,66,,,,,,,,,,,,,,,,bars/030.png,bars/mask007.png,,,,,,,,,,,,4,2,,,,,,,8,3,7,4,,,,,,,,,,,209.9183,210.4085,210.6513,214.1591,space,3.4839,,214.1591,74,1,215.1517,215.1517,216.3024,space,1.1189,,0,4,4,4,1,140,65,,,,,,,,
,,60c1c8ade4bb1ec24514a4d5,65af56a74aa07d90bbee3cf8,2024-01-23_09h05.07.804,bars,2023.2.3,Win32,59.88023952,657b66ea316d21385b68909f,,,,,,,,,,,216.3035,217.3017,,,217.8046,218.052,,54,54,,,,,,,,,,,,,,,,bars/034.png,bars/mask007.png,,,,,,,,,,,,3,2,,,,,,,10,5,9,4,,,,,,,,,,,217.3019,217.8045,218.0521,221.4757,space,3.4006,,221.4759,71,11,222.4685,222.4687,223.3855,space,0.8841,,0,5,5,5,1,125,65,,,,,,,,
,,60c1c8ade4bb1ec24514a4d5,65af56a74aa07d90bbee3cf8,2024-01-23_09h05.07.804,bars,2023.2.3,Win32,59.88023952,657b66ea316d21385b68909f,,,,,,,,,,,223.3863,224.3903,,,224.8881,225.1349,,47,47,,,,,,,,,,,,,,,,bars/004.png,bars/mask008.png,,,,,,,,,,,,2,1,,,,,,,8,7,9,7,,,,,,,,,,,224.3903,224.888,225.135,228.7372,space,3.5767,,228.7372,22,78,229.7255,229.7255,230.4551,space,0.713,,0,6,6,6,1,25,125,,,,,,,,
,,60c1c8ade4bb1ec24514a4d5,65af56a74aa07d90bbee3cf8,2024-01-23_09h05.07.804,bars,2023.2.3,Win32,59.88023952,657b66ea316d21385b68909f,,,,,,,,,,,230.4553,231.4518,,,231.9521,232.2017,,131,-49,,,,,,,,,,,,,,,,bars/045.png,bars/mask000.png,,,,,,,,,,,,0,1,,,,,,,6,5,6,4,,,,,,,,,,,231.4519,231.952,232.2019,235.5593,space,3.334,,235.5593,31,59,236.5515,236.5516,237.1517,space,0.5748,,0,7,7,7,1,100,10,,,,,,,,
,,60c1c8ade4bb1ec24514a4d5,65af56a74aa07d90bbee3cf8,2024-01-23_09h05.07.804,bars,2023.2.3,Win32,59.88023952,657b66ea316d21385b68909f,,,,,,,,,,,237.1526,238.1519,,,238.6517,238.9016,,113,113,,,,,,,,,,,,,,,,bars/034.png,bars/mask005.png,,,,,,,,,,,,5,1,,,,,,,8,7,9,9,,,,,,,,,,,238.1519,238.6517,238.9017,242.4923,space,3.567,,242.4924,12,48,243.4849,243.4851,244.2428,space,0.7338,,0,8,8,8,1,125,65,,,,,,,,
,,60c1c8ade4bb1ec24514a4d5,65af56a74aa07d90bbee3cf8,2024-01-23_09h05.07.804,bars,2023.2.3,Win32,59.88023952,657b66ea316d21385b68909f,,,,,,,,,,,244.2429,245.2347,,,245.735,245.9922,,41,41,,,,,,,,,,,,,,,,bars/043.png,bars/mask001.png,,,,,,,,,,,,6,1,,,,,,,10,9,10,9,,,,,,,,,,,245.2348,245.7349,245.9923,247.1258,space,1.1171,,247.1258,11,89,248.1183,248.1185,248.8594,space,0.717,,0,9,9,9,1,30,130,,,,,,,,
,,60c1c8ade4bb1ec24514a4d5,65af56a74aa07d90bbee3cf8,2024-01-23_09h05.07.804,bars,2023.2.3,Win32,59.88023952,657b66ea316d21385b68909f,,,,,,,,,,,248.8597,249.8516,,,250.3587,250.6016,,166,166,,,,,,,,,,,,,,,,bars/023.png,bars/mask008.png,,,,,,,,,,,,0,1,,,,,,,10,10,10,10,,,,,,,,,,,249.8517,250.3587,250.6017,254.3924,space,3.767,,254.3925,34,51,255.3849,255.3849,256.8551,space,1.4462,,0,10,10,10,1,20,115,,,,,,,,
,,60c1c8ade4bb1ec24514a4d5,65af56a74aa07d90bbee3cf8,2024-01-23_09h05.07.804,bars,2023.2.3,Win32,59.88023952,657b66ea316d21385b68909f,,,,,,,,,,,256.8552,257.8515,,,258.3518,258.605,,63,63,,,,,,,,,,,,,,,,bars/030.png,bars/mask001.png,,,,,,,,,,,,8,2,,,,,,,10,10,10,9,,,,,,,,,,,257.8517,258.3517,258.605,260.9425,space,2.3174,,260.9426,77,2,261.9383,261.9384,262.643,space,0.6842,,0,11,11,11,1,140,65,,,,,,,,
,,60c1c8ade4bb1ec24514a4d5,65af56a74aa07d90bbee3cf8,2024-01-23_09h05.07.804,bars,2023.2.3,Win32,59.88023952,657b66ea316d21385b68909f,,,,,,,,,,,262.6431,263.6348,,,264.1352,264.3849,,137,137,,,,,,,,,,,,,,,,bars/034.png,bars/mask001.png,,,,,,,,,,,,4,1,,,,,,,8,8,7,9,,,,,,,,,,,263.6349,264.1351,264.3849,265.3926,space,0.9876,,265.3926,12,72,266.3851,266.3852,266.869,space,0.4535,,0,12,12,12,1,125,65,,,,,,,,
,,60c1c8ade4bb1ec24514a4d5,65af56a74aa07d90bbee3cf8,2024-01-23_09h05.07.804,bars,2023.2.3,Win32,59.88023952,657b66ea316d21385b68909f,,,,,,,,,,,266.8698,267.8718,,,268.3687,268.6184,,125,125,,,,,,,,,,,,,,,,bars/024.png,bars/mask003.png,,,,,,,,,,,,8,1,,,,,,,10,10,10,10,,,,,,,,,,,267.8718,268.3685,268.6185,270.4018,space,1.7561,,270.402,5,45,271.4016,271.4019,272.0222,space,0.5968,,0,13,13,13,1,120,170,,,,,,,,
,,60c1c8ade4bb1ec24514a4d5,65af56a74aa07d90bbee3cf8,2024-01-23_09h05.07.804,bars,2023.2.3,Win32,59.88023952,657b66ea316d21385b68909f,,,,,,,,,,,272.0224,273.0182,,,273.5188,273.7685,,51,51,,,,,,,,,,,,,,,,bars/028.png,bars/mask007.png,,,,,,,,,,,,8,1,,,,,,,10,10,10,10,,,,,,,,,,,273.0183,273.5187,273.7686,278.1258,space,4.3337,,278.1258,6,69,279.1184,279.1185,279.6264,space,0.484,,0,14,14,14,1,45,120,,,,,,,,
,,60c1c8ade4bb1ec24514a4d5,65af56a74aa07d90bbee3cf8,2024-01-23_09h05.07.804,bars,2023.2.3,Win32,59.88023952,657b66ea316d21385b68909f,,,,,,,,,,,279.6265,280.6217,,,281.1256,281.3685,,126,-54,,,,,,,,,,,,,,,,bars/031.png,bars/mask001.png,,,,,,,,,,,,6,1,,,,,,,8,8,8,8,,,,,,,,,,,280.6217,281.1256,281.3686,286.4093,space,5.017,,286.4093,6,89,287.402,287.4023,287.7095,space,0.2839,,0,15,15,15,1,120,35,,,,,,,,
,,60c1c8ade4bb1ec24514a4d5,65af56a74aa07d90bbee3cf8,2024-01-23_09h05.07.804,bars,2023.2.3,Win32,59.88023952,657b66ea316d21385b68909f,,,,,,,,,,,287.7096,288.702,,,289.2022,289.4517,,72,72,,,,,,,,,,,,,,,,bars/014.png,bars/mask004.png,,,,,,,,,,,,4,1,,,,,,,6,10,5,8,,,,,,,,,,,288.702,289.2019,289.4519,290.3187,space,0.8392,,290.3188,8,72,291.3185,291.3186,291.8429,space,0.5006,,0,16,16,16,1,80,0,,,,,,,,
,,60c1c8ade4bb1ec24514a4d5,65af56a74aa07d90bbee3cf8,2024-01-23_09h05.07.804,bars,2023.2.3,Win32,59.88023952,657b66ea316d21385b68909f,,,,,,,,,,,291.8431,292.8411,,,293.3352,293.5851,,123,123,,,,,,,,,,,,,,,,bars/032.png,bars/mask000.png,,,,,,,,,,,,5,1,,,,,,,4,10,5,10,,,,,,,,,,,292.8411,293.335,293.5851,295.7758,space,2.1668,,295.7758,2,77,296.7684,296.7687,297.0261,space,0.2336,,0,17,17,17,1,125,20,,,,,,,,
,,60c1c8ade4bb1ec24514a4d5,65af56a74aa07d90bbee3cf8,2024-01-23_09h05.07.804,bars,2023.2.3,Win32,59.88023952,657b66ea316d21385b68909f,,,,,,,,,,,297.0263,298.0184,,,298.5246,298.7716,,92,92,,,,,,,,,,,,,,,,bars/008.png,bars/mask006.png,,,,,,,,,,,,2,1,,,,,,,6,8,5,9,,,,,,,,,,,298.0187,298.5246,298.7716,303.2594,space,4.4672,,303.2594,18,88,304.2518,304.2518,305.0356,space,0.7508,,0,18,18,18,1,110,0,,,,,,,,
,,60c1c8ade4bb1ec24514a4d5,65af56a74aa07d90bbee3cf8,2024-01-23_09h05.07.804,bars,2023.2.3,Win32,59.88023952,657b66ea316d21385b68909f,,,,,,,,,,,305.0367,306.0253,,,306.5185,306.7686,,79,79,,,,,,,,,,,,,,,,bars/021.png,bars/mask009.png,,,,,,,,,,,,7,2,,,,,,,8,10,9,10,,,,,,,,,,,306.0253,306.5184,306.7687,308.7595,space,1.9674,,308.7595,76,9,309.7576,309.7576,310.2748,space,0.4994,,0,19,19,19,1,155,70,,,,,,,,
,,60c1c8ade4bb1ec24514a4d5,65af56a74aa07d90bbee3cf8,2024-01-23_09h05.07.804,bars,2023.2.3,Win32,59.88023952,657b66ea316d21385b68909f,,,,,,,,,,,310.275,311.2757,,,311.7759,312.0183,,138,-42,,,,,,,,,,,,,,,,bars/005.png,bars/mask002.png,,,,,,,,,,,,8,2,,,,,,,10,10,10,9,,,,,,,,,,,311.2757,311.7758,312.0184,316.4257,space,4.3835,,316.4258,52,2,317.4256,317.4257,317.9595,space,0.5172,,0,20,20,20,1,10,140,,,,,,,,
,,60c1c8ade4bb1ec24514a4d5,65af56a74aa07d90bbee3cf8,2024-01-23_09h05.07.804,bars,2023.2.3,Win32,59.88023952,657b66ea316d21385b68909f,,,,,,,,,,,317.9596,318.952,,,319.4521,319.6913,,155,-25,,,,,,,,,,,,,,,,bars/048.png,bars/mask006.png,,,,,,,,,,,,3,2,,,,,,,10,8,10,8,,,,,,,,,,,318.9521,319.452,319.6913,324.352,space,4.6353,,324.3523,75,20,325.3518,325.3519,325.9261,space,0.5504,,0,21,21,21,1,50,175,,,,,,,,
,,60c1c8ade4bb1ec24514a4d5,65af56a74aa07d90bbee3cf8,2024-01-23_09h05.07.804,bars,2023.2.3,Win32,59.88023952,657b66ea316d21385b68909f,,,,,,,,,,,325.9263,326.9185,,,327.4219,327.6686,,33,213,,,,,,,,,,,,,,,,bars/036.png,bars/mask002.png,,,,,,,,,,,,2,2,,,,,,,8,6,8,4,,,,,,,,,,,326.9186,327.4219,327.6688,331.5262,space,3.8341,,331.5262,68,13,332.5183,332.5184,333.1017,space,0.5558,,0,22,22,22,1,145,20,,,,,,,,
,,60c1c8ade4bb1ec24514a4d5,65af56a74aa07d90bbee3cf8,2024-01-23_09h05.07.804,bars,2023.2.3,Win32,59.88023952,657b66ea316d21385b68909f,,,,,,,,,,,333.1027,334.1022,,,334.6022,334.8424,,148,-32,,,,,,,,,,,,,,,,bars/017.png,bars/mask003.png,,,,,,,,,,,,5,1,,,,,,,6,4,5,4,,,,,,,,,,,334.1023,334.6021,334.8424,339.6263,space,4.7672,,339.6263,3,77,340.6186,340.6187,340.9096,space,0.2672,,0,23,23,23,1,145,45,,,,,,,,
,,60c1c8ade4bb1ec24514a4d5,65af56a74aa07d90bbee3cf8,2024-01-23_09h05.07.804,bars,2023.2.3,Win32,59.88023952,657b66ea316d21385b68909f,,,,,,,,,,,340.9099,341.9019,,,342.4021,342.6425,,153,-27,,,,,,,,,,,,,,,,bars/021.png,bars/mask008.png,,,,,,,,,,,,7,1,,,,,,,8,6,8,7,,,,,,,,,,,341.902,342.402,342.6425,346.6095,space,3.9505,,346.6096,2,83,347.6063,347.6063,347.9207,space,0.2932,,0,24,24,24,1,155,70,,,,,,,,
,,60c1c8ade4bb1ec24514a4d5,65af56a74aa07d90bbee3cf8,2024-01-23_09h05.07.804,bars,2023.2.3,Win32,59.88023952,657b66ea316d21385b68909f,,,,,,,,,,,347.9212,348.9185,,,349.4188,349.6594,,178,178,,,,,,,,,,,,,,,,bars/048.png,bars/mask006.png,,,,,,,,,,,,6,2,,,,,,,6,8,7,7,,,,,,,,,,,348.9187,349.4187,349.6594,351.3426,space,1.6669,,351.3426,52,3,352.3353,352.3355,352.8223,space,0.4632,,0,25,25,25,1,50,175,,,,,,,,
,,60c1c8ade4bb1ec24514a4d5,65af56a74aa07d90bbee3cf8,2024-01-23_09h05.07.804,bars,2023.2.3,Win32,59.88023952,657b66ea316d21385b68909f,,,,,,,,,,,352.8225,353.8183,,,354.3091,354.5518,,41,221,,,,,,,,,,,,,,,,bars/017.png,bars/mask001.png,,,,,,,,,,,,9,2,,,,,,,8,10,8,10,,,,,,,,,,,353.8185,354.3091,354.5519,357.1428,space,2.5672,,357.1428,76,4,358.135,358.1351,358.5357,space,0.3758,,0,26,26,26,1,145,45,,,,,,,,
,,60c1c8ade4bb1ec24514a4d5,65af56a74aa07d90bbee3cf8,2024-01-23_09h05.07.804,bars,2023.2.3,Win32,59.88023952,657b66ea316d21385b68909f,,,,,,,,,,,358.5366,359.5424,,,360.0356,360.2758,,137,137,,,,,,,,,,,,,,,,bars/040.png,bars/mask007.png,,,,,,,,,,,,5,1,,,,,,,6,10,6,10,,,,,,,,,,,359.5425,360.0355,360.2758,362.1261,space,1.8338,,362.1261,3,48,363.1187,363.1188,363.5928,space,0.4504,,0,27,27,27,1,140,5,,,,,,,,
,,60c1c8ade4bb1ec24514a4d5,65af56a74aa07d90bbee3cf8,2024-01-23_09h05.07.804,bars,2023.2.3,Win32,59.88023952,657b66ea316d21385b68909f,,,,,,,,,,,363.593,364.5925,,,365.0854,365.3257,,135,135,,,,,,,,,,,,,,,,bars/003.png,bars/mask002.png,,,,,,,,,,,,8,2,,,,,,,8,10,9,10,,,,,,,,,,,364.5925,365.0852,365.3258,367.4764,space,2.1351,,367.4764,70,5,368.4687,368.4687,368.8523,space,0.3507,,0,28,28,28,1,25,140,,,,,,,,
,,60c1c8ade4bb1ec24514a4d5,65af56a74aa07d90bbee3cf8,2024-01-23_09h05.07.804,bars,2023.2.3,Win32,59.88023952,657b66ea316d21385b68909f,,,,,,,,,,,368.8532,369.8422,,,370.3425,370.5926,,115,115,,,,,,,,,,,,,,,,bars/045.png,bars/mask004.png,,,,,,,,,,,,5,1,,,,,,,10,10,10,10,,,,,,,,,,,369.8423,370.3425,370.5926,372.4928,space,1.8837,,372.4928,15,75,373.4852,373.4855,374.1929,space,0.6834,,0,29,29,29,1,100,10,,,,,,,,
,,60c1c8ade4bb1ec24514a4d5,65af56a74aa07d90bbee3cf8,2024-01-23_09h05.07.804,bars,2023.2.3,Win32,59.88023952,657b66ea316d21385b68909f,,,,,,,,,,,374.1931,375.1924,,,375.6909,375.9354,,149,-31,,,,,,,,,,,,,,,,bars/024.png,bars/mask005.png,,,,,,,,,,,,2,2,,,,,,,8,8,9,7,,,,,,,,,,,375.1924,375.6909,375.9355,378.4264,space,2.4673,,378.4265,29,21,379.4189,379.419,379.869,space,0.4175,,0,30,30,30,1,120,170,,,,,,,,
,,60c1c8ade4bb1ec24514a4d5,65af56a74aa07d90bbee3cf8,2024-01-23_09h05.07.804,bars,2023.2.3,Win32,59.88023952,657b66ea316d21385b68909f,,,,,,,,,,,379.8701,380.8593,,,381.3527,381.6025,,76,76,,,,,,,,,,,,,,,,bars/026.png,bars/mask008.png,,,,,,,,,,,,6,2,,,,,,,10,6,8,8,,,,,,,,,,,380.8593,381.3526,381.6026,382.9853,space,1.3565,,382.9855,41,9,383.9857,383.9857,384.5596,space,0.5504,,0,31,31,31,1,35,85,,,,,,,,
,,60c1c8ade4bb1ec24514a4d5,65af56a74aa07d90bbee3cf8,2024-01-23_09h05.07.804,bars,2023.2.3,Win32,59.88023952,657b66ea316d21385b68909f,,,,,,,,,,,384.5598,385.559,,,386.0521,386.3093,,128,128,,,,,,,,,,,,,,,,bars/004.png,bars/mask002.png,,,,,,,,,,,,8,2,,,,,,,10,8,10,9,,,,,,,,,,,385.559,386.052,386.3093,389.893,space,3.567,,389.893,77,3,390.8885,390.8885,391.1761,space,0.267,,0,32,32,32,1,25,125,,,,,,,,
,,60c1c8ade4bb1ec24514a4d5,65af56a74aa07d90bbee3cf8,2024-01-23_09h05.07.804,bars,2023.2.3,Win32,59.88023952,657b66ea316d21385b68909f,,,,,,,,,,,391.1764,392.1689,,,392.6688,392.9188,,138,138,,,,,,,,,,,,,,,,bars/015.png,bars/mask001.png,,,,,,,,,,,,3,2,,,,,,,10,10,10,10,,,,,,,,,,,392.1689,392.6688,392.9189,394.6597,space,1.7174,,394.6597,28,22,395.6594,395.6594,395.9264,space,0.2507,,0,33,33,33,1,110,160,,,,,,,,
,,60c1c8ade4bb1ec24514a4d5,65af56a74aa07d90bbee3cf8,2024-01-23_09h05.07.804,bars,2023.2.3,Win32,59.88023952,657b66ea316d21385b68909f,,,,,,,,,,,395.9267,396.9259,,,397.4183,397.6761,,7,7,,,,,,,,,,,,,,,,bars/040.png,bars/mask000.png,,,,,,,,,,,,8,2,,,,,,,8,8,7,9,,,,,,,,,,,396.9259,397.4183,397.6761,400.6431,space,2.9502,,400.6431,47,2,401.6351,401.6354,401.993,space,0.3336,,0,34,34,34,1,140,5,,,,,,,,
,,60c1c8ade4bb1ec24514a4d5,65af56a74aa07d90bbee3cf8,2024-01-23_09h05.07.804,bars,2023.2.3,Win32,59.88023952,657b66ea316d21385b68909f,,,,,,,,,,,401.9932,402.9924,,,403.4888,403.7352,,65,245,,,,,,,,,,,,,,,,bars/036.png,bars/mask009.png,,,,,,,,,,,,0,2,,,,,,,6,10,6,9,,,,,,,,,,,402.9924,403.4888,403.7353,408.6859,space,4.9222,,408.686,80,45,409.6854,409.6854,410.3357,space,0.6174,,0,35,35,35,1,145,20,,,,,,,,
,,60c1c8ade4bb1ec24514a4d5,65af56a74aa07d90bbee3cf8,2024-01-23_09h05.07.804,bars,2023.2.3,Win32,59.88023952,657b66ea316d21385b68909f,,,,,,,,,,,410.3366,411.3258,,,411.8187,412.0688,,125,125,,,,,,,,,,,,,,,,bars/006.png,bars/mask002.png,,,,,,,,,,,,1,2,,,,,,,4,8,3,6,,,,,,,,,,,411.3258,411.8186,412.069,413.7929,space,1.7004,,413.793,90,25,414.7853,414.7854,415.2265,space,0.4173,,0,36,36,36,1,35,100,,,,,,,,
,,60c1c8ade4bb1ec24514a4d5,65af56a74aa07d90bbee3cf8,2024-01-23_09h05.07.804,bars,2023.2.3,Win32,59.88023952,657b66ea316d21385b68909f,,,,,,,,,,,415.2267,416.222,,,416.7187,416.9686,,54,54,,,,,,,,,,,,,,,,bars/010.png,bars/mask008.png,,,,,,,,,,,,10,2,,,,,,,6,10,6,10,,,,,,,,,,,416.222,416.7187,416.9687,418.4026,space,1.4061,,418.4027,69,1,419.4022,419.4024,419.8253,space,0.3993,,0,37,37,37,1,165,55,,,,,,,,
,,60c1c8ade4bb1ec24514a4d5,65af56a74aa07d90bbee3cf8,2024-01-23_09h05.07.804,bars,2023.2.3,Win32,59.88023952,657b66ea316d21385b68909f,,,,,,,,,,,419.8255,420.826,,,421.3191,421.5742,,101,101,,,,,,,,,,,,,,,,bars/021.png,bars/mask008.png,,,,,,,,,,,,0,2,,,,,,,8,10,10,10,,,,,,,,,,,420.826,421.319,421.5742,424.4858,space,2.8857,,424.4861,54,31,425.4853,425.4855,425.9097,space,0.4004,,0,38,38,38,1,155,70,,,,,,,,
,,60c1c8ade4bb1ec24514a4d5,65af56a74aa07d90bbee3cf8,2024-01-23_09h05.07.804,bars,2023.2.3,Win32,59.88023952,657b66ea316d21385b68909f,,,,,,,,,,,425.9099,426.9022,,,427.4094,427.6522,,28,28,,,,,,,,,,,,,,,,bars/008.png,bars/mask000.png,,,,,,,,,,,,0,2,,,,,,,10,8,9,7,,,,,,,,,,,426.9024,427.4093,427.6523,429.4244,space,1.7484,,429.4245,82,28,430.4256,430.4256,430.9098,space,0.467,,0,39,39,39,1,110,0,,,,,,,,
,,60c1c8ade4bb1ec24514a4d5,65af56a74aa07d90bbee3cf8,2024-01-23_09h05.07.804,bars,2023.2.3,Win32,59.88023952,657b66ea316d21385b68909f,,,,,,,,,,,430.91,431.9018,,,432.4077,432.6522,,47,227,,,,,,,,,,,,,,,,bars/017.png,bars/mask007.png,,,,,,,,,,,,5,2,,,,,,,10,6,9,5,,,,,,,,,,,431.9019,432.4076,432.6523,436.5191,space,3.8351,,436.5192,82,2,437.519,437.5191,438.1265,space,0.5837,,0,40,40,40,1,145,45,,,,,,,,
,,60c1c8ade4bb1ec24514a4d5,65af56a74aa07d90bbee3cf8,2024-01-23_09h05.07.804,bars,2023.2.3,Win32,59.88023952,657b66ea316d21385b68909f,,,,,,,,,,,438.1268,439.1188,,,439.6192,439.869,,135,135,,,,,,,,,,,,,,,,bars/018.png,bars/mask008.png,,,,,,,,,,,,5,1,,,,,,,10,4,9,5,,,,,,,,,,,439.119,439.6192,439.8691,440.8098,space,0.9173,,440.8098,15,45,441.8022,441.8023,442.1918,space,0.3658,,0,41,41,41,1,150,90,,,,,,,,
,,60c1c8ade4bb1ec24514a4d5,65af56a74aa07d90bbee3cf8,2024-01-23_09h05.07.804,bars,2023.2.3,Win32,59.88023952,657b66ea316d21385b68909f,,,,,,,,,,,442.192,443.1852,,,443.6857,443.9356,,163,163,,,,,,,,,,,,,,,,bars/035.png,bars/mask003.png,,,,,,,,,,,,6,1,,,,,,,8,2,10,2,,,,,,,,,,,443.1853,443.6856,443.9357,446.4523,space,2.4891,,446.4525,12,77,447.4522,447.4523,447.7763,space,0.3003,,0,42,42,42,1,175,60,,,,,,,,
,,60c1c8ade4bb1ec24514a4d5,65af56a74aa07d90bbee3cf8,2024-01-23_09h05.07.804,bars,2023.2.3,Win32,59.88023952,657b66ea316d21385b68909f,,,,,,,,,,,447.7765,448.775,,,449.2688,449.5223,,52,52,,,,,,,,,,,,,,,,bars/019.png,bars/mask000.png,,,,,,,,,,,,5,1,,,,,,,6,4,6,3,,,,,,,,,,,448.775,449.2687,449.5223,452.4099,space,2.8671,,452.4099,7,53,453.4024,453.4025,453.9559,space,0.5297,,0,43,43,43,1,45,105,,,,,,,,
,,60c1c8ade4bb1ec24514a4d5,65af56a74aa07d90bbee3cf8,2024-01-23_09h05.07.804,bars,2023.2.3,Win32,59.88023952,657b66ea316d21385b68909f,,,,,,,,,,,453.9561,454.9523,,,455.4594,455.7094,,91,91,,,,,,,,,,,,,,,,bars/012.png,bars/mask006.png,,,,,,,,,,,,4,1,,,,,,,4,2,4,4,,,,,,,,,,,454.9524,455.4594,455.7095,457.3058,space,1.5797,,457.3058,1,76,458.3083,458.3084,458.393,space,0.0668,,0,44,44,44,1,90,15,,,,,,,,
,,60c1c8ade4bb1ec24514a4d5,65af56a74aa07d90bbee3cf8,2024-01-23_09h05.07.804,bars,2023.2.3,Win32,59.88023952,657b66ea316d21385b68909f,,,,,,,,,,,458.3932,459.3856,,,459.8761,460.1188,,119,119,,,,,,,,,,,,,,,,bars/025.png,bars/mask009.png,,,,,,,,,,,,1,1,,,,,,,2,0,2,2,,,,,,,,,,,459.3856,459.8761,460.1191,464.0266,space,3.884,,464.0267,14,79,465.0189,465.019,465.6559,space,0.6131,,0,45,45,45,1,105,40,,,,,,,,
,,60c1c8ade4bb1ec24514a4d5,65af56a74aa07d90bbee3cf8,2024-01-23_09h05.07.804,bars,2023.2.3,Win32,59.88023952,657b66ea316d21385b68909f,,,,,,,,,,,465.6561,466.6521,,,467.1525,467.4094,,101,101,,,,,,,,,,,,,,,,bars/027.png,bars/mask004.png,,,,,,,,,,,,4,1,,,,,,,4,0,5,0,,,,,,,,,,,466.6523,467.1523,467.4094,468.803,space,1.3727,,468.8031,9,51,469.8023,469.8024,470.4101,space,0.5839,,0,46,46,46,1,110,50,,,,,,,,
,,60c1c8ade4bb1ec24514a4d5,65af56a74aa07d90bbee3cf8,2024-01-23_09h05.07.804,bars,2023.2.3,Win32,59.88023952,657b66ea316d21385b68909f,,,,,,,,,,,470.4102,471.4056,,,471.9021,472.1525,,88,-92,,,,,,,,,,,,,,,,bars/022.png,bars/mask007.png,,,,,,,,,,,,2,1,,,,,,,2,2,3,3,,,,,,,,,,,471.4056,471.902,472.1526,476.2102,space,4.0342,,476.2102,7,68,477.2024,477.2024,477.5433,space,0.3172,,0,47,47,47,1,95,20,,,,,,,,
,,60c1c8ade4bb1ec24514a4d5,65af56a74aa07d90bbee3cf8,2024-01-23_09h05.07.804,bars,2023.2.3,Win32,59.88023952,657b66ea316d21385b68909f,,,,,,,,,,,477.5435,478.5354,,,479.0262,479.2723,,32,32,,,,,,,,,,,,,,,,bars/025.png,bars/mask002.png,,,,,,,,,,,,2,2,,,,,,,0,4,0,3,,,,,,,,,,,478.5354,479.0262,479.2723,482.3765,space,3.0838,,482.3766,73,8,483.369,483.3691,483.6932,space,0.3003,,0,48,48,48,1,105,40,,,,,,,,
,,60c1c8ade4bb1ec24514a4d5,65af56a74aa07d90bbee3cf8,2024-01-23_09h05.07.804,bars,2023.2.3,Win32,59.88023952,657b66ea316d21385b68909f,,,,,,,,,,,483.6933,484.6861,,,485.176,485.4188,,160,160,,,,,,,,,,,,,,,,bars/039.png,bars/mask006.png,,,,,,,,,,,,1,1,,,,,,,0,2,1,2,,,,,,,,,,,484.6862,485.176,485.4189,488.2265,space,2.7837,,488.2265,15,55,489.2188,489.2188,489.5859,space,0.3339,,0,49,49,49,1,175,105,,,,,,,,
,,60c1c8ade4bb1ec24514a4d5,65af56a74aa07d90bbee3cf8,2024-01-23_09h05.07.804,bars,2023.2.3,Win32,59.88023952,657b66ea316d21385b68909f,,,,,,,,,,,,,,,,,,,,,,,,,,,,,,,,,,,,,,,,,,,,,,,,,,,,,,,,,,,,,,,,,,,,,,,,,,,,,,,,,,,,,,,,,,,,,489.5879,549.5872,0,0,0,1,1,sequence_tables/blk039.csv
,,60c1c8ade4bb1ec24514a4d5,65af56a74aa07d90bbee3cf8,2024-01-23_09h05.07.804,bars,2023.2.3,Win32,59.88023952,657b66ea316d21385b68909f,,,,,,,,,,,750.965,751.953,,,752.4606,752.7105,,44,44,,,,,,,,,,,,,,,,bars/019.png,bars/mask001.png,,,,,,,,,,,,8,1,,,,,,,7,6,8,7,,,,,,549.5938,750.9538,space,201.3407,,751.9531,752.4606,752.7105,757.9107,space,5.1837,,757.9108,1,61,758.9035,758.9036,758.9107,,,,0,0,0,0,1,45,105,,,,,,,,
,,60c1c8ade4bb1ec24514a4d5,65af56a74aa07d90bbee3cf8,2024-01-23_09h05.07.804,bars,2023.2.3,Win32,59.88023952,657b66ea316d21385b68909f,,,,,,,,,,,758.9108,759.9033,,,760.4034,760.653,,4,184,,,,,,,,,,,,,,,,bars/023.png,bars/mask009.png,,,,,,,,,,,,3,1,,,,,,,5,4,7,3,,,,,,,,,,,759.9033,760.4031,760.653,764.6107,space,3.9337,,764.6108,16,69,765.6034,765.6034,765.61,,,,0,1,1,1,1,20,115,,,,,,,,
,,60c1c8ade4bb1ec24514a4d5,65af56a74aa07d90bbee3cf8,2024-01-23_09h05.07.804,bars,2023.2.3,Win32,59.88023952,657b66ea316d21385b68909f,,,,,,,,,,,765.6101,766.6087,,,767.1103,767.3531,,126,126,,,,,,,,,,,,,,,,bars/021.png,bars/mask000.png,,,,,,,,,,,,0,1,,,,,,,3,2,2,2,,,,,,,,,,,766.6087,767.1103,767.3533,768.2608,space,0.8839,,768.2608,29,56,769.2532,769.2532,769.2604,,,,0,2,2,2,1,155,70,,,,,,,,
,,60c1c8ade4bb1ec24514a4d5,65af56a74aa07d90bbee3cf8,2024-01-23_09h05.07.804,bars,2023.2.3,Win32,59.88023952,657b66ea316d21385b68909f,,,,,,,,,,,769.2604,770.2536,,,770.7532,771.0035,,62,62,,,,,,,,,,,,,,,,bars/044.png,bars/mask009.png,,,,,,,,,,,,0,1,,,,,,,1,0,0,0,,,,,,,,,,,770.2537,770.7531,771.0036,774.7201,space,3.6875,,774.7201,13,87,775.72,775.7201,775.7268,,,,0,3,3,3,1,75,155,,,,,,,,
,,60c1c8ade4bb1ec24514a4d5,65af56a74aa07d90bbee3cf8,2024-01-23_09h05.07.804,bars,2023.2.3,Win32,59.88023952,657b66ea316d21385b68909f,,,,,,,,,,,775.7269,776.7198,,,777.2198,777.4752,,70,70,,,,,,,,,,,,,,,,bars/046.png,bars/mask000.png,,,,,,,,,,,,0,2,,,,,,,3,0,4,0,,,,,,,,,,,776.7198,777.2197,777.4752,780.3031,space,2.8084,,780.3033,85,15,781.3033,781.3034,781.3122,,,,0,4,4,4,1,155,85,,,,,,,,
,,60c1c8ade4bb1ec24514a4d5,65af56a74aa07d90bbee3cf8,2024-01-23_09h05.07.804,bars,2023.2.3,Win32,59.88023952,657b66ea316d21385b68909f,,,,,,,,,,,781.3123,782.3035,,,782.8106,783.0603,,142,142,,,,,,,,,,,,,,,,bars/036.png,bars/mask006.png,,,,,,,,,,,,2,1,,,,,,,1,2,2,1,,,,,,,,,,,782.3037,782.8106,783.0603,786.6441,space,3.5669,,786.6441,3,58,787.6366,787.6369,787.6444,,,,0,5,5,5,1,145,20,,,,,,,,
,,60c1c8ade4bb1ec24514a4d5,65af56a74aa07d90bbee3cf8,2024-01-23_09h05.07.804,bars,2023.2.3,Win32,59.88023952,657b66ea316d21385b68909f,,,,,,,,,,,787.6445,788.6365,,,789.1438,789.3866,,156,156,,,,,,,,,,,,,,,,bars/038.png,bars/mask008.png,,,,,,,,,,,,0,1,,,,,,,0,4,0,5,,,,,,,,,,,788.6365,789.1437,789.3867,794.2374,space,4.8174,,794.2375,9,86,795.2367,795.2369,795.2434,,,,0,6,6,6,1,165,70,,,,,,,,
,,60c1c8ade4bb1ec24514a4d5,65af56a74aa07d90bbee3cf8,2024-01-23_09h05.07.804,bars,2023.2.3,Win32,59.88023952,657b66ea316d21385b68909f,,,,,,,,,,,795.2436,796.2367,,,796.7273,796.9701,,41,41,,,,,,,,,,,,,,,,bars/041.png,bars/mask006.png,,,,,,,,,,,,0,1,,,,,,,2,6,1,5,,,,,,,,,,,796.2367,796.7273,796.9702,799.0401,space,2.0463,,799.0401,21,44,800.0366,800.0367,800.0432,,,,0,7,7,7,1,20,85,,,,,,,,
,,60c1c8ade4bb1ec24514a4d5,65af56a74aa07d90bbee3cf8,2024-01-23_09h05.07.804,bars,2023.2.3,Win32,59.88023952,657b66ea316d21385b68909f,,,,,,,,,,,800.0433,801.0368,,,801.5368,801.7898,,30,30,,,,,,,,,,,,,,,,bars/041.png,bars/mask006.png,,,,,,,,,,,,2,1,,,,,,,4,4,3,2,,,,,,,,,,,801.0369,801.5366,801.7898,803.0109,space,1.2159,,803.0109,10,55,804.0103,804.0103,804.0106,,,,0,8,8,8,1,20,85,,,,,,,,
,,60c1c8ade4bb1ec24514a4d5,65af56a74aa07d90bbee3cf8,2024-01-23_09h05.07.804,bars,2023.2.3,Win32,59.88023952,657b66ea316d21385b68909f,,,,,,,,,,,804.0107,805.0107,,,805.5033,805.7421,,38,38,,,,,,,,,,,,,,,,bars/043.png,bars/mask006.png,,,,,,,,,,,,1,1,,,,,,,2,2,2,1,,,,,,,,,,,805.0108,805.5033,805.7422,808.4737,space,2.7134,,808.4737,8,88,809.4699,809.4699,809.4769,,,,0,9,9,9,1,30,130,,,,,,,,
,,60c1c8ade4bb1ec24514a4d5,65af56a74aa07d90bbee3cf8,2024-01-23_09h05.07.804,bars,2023.2.3,Win32,59.88023952,657b66ea316d21385b68909f,,,,,,,,,,,809.477,810.4734,,,810.9773,811.2199,,51,51,,,,,,,,,,,,,,,,bars/006.png,bars/mask006.png,,,,,,,,,,,,0,1,,,,,,,0,4,0,3,,,,,,,,,,,810.4734,810.9772,811.2201,814.2037,space,2.9557,,814.2038,16,49,815.2038,815.2039,815.2108,,,,0,10,10,10,1,35,100,,,,,,,,
,,60c1c8ade4bb1ec24514a4d5,65af56a74aa07d90bbee3cf8,2024-01-23_09h05.07.804,bars,2023.2.3,Win32,59.88023952,657b66ea316d21385b68909f,,,,,,,,,,,815.2109,816.2032,,,816.7035,816.9535,,146,146,,,,,,,,,,,,,,,,bars/049.png,bars/mask004.png,,,,,,,,,,,,1,1,,,,,,,0,6,1,6,,,,,,,,,,,816.2033,816.7034,816.9536,818.7943,space,1.8172,,818.7944,14,31,819.7865,819.7866,819.7939,,,,0,11,11,11,1,160,115,,,,,,,,
,,60c1c8ade4bb1ec24514a4d5,65af56a74aa07d90bbee3cf8,2024-01-23_09h05.07.804,bars,2023.2.3,Win32,59.88023952,657b66ea316d21385b68909f,,,,,,,,,,,819.7941,820.7921,,,821.2898,821.5366,,37,37,,,,,,,,,,,,,,,,bars/016.png,bars/mask009.png,,,,,,,,,,,,2,1,,,,,,,0,4,2,3,,,,,,,,,,,820.7921,821.2898,821.5366,824.2538,space,2.6852,,824.254,3,52,825.2606,825.2606,825.2661,,,,0,12,12,12,1,40,165,,,,,,,,
,,60c1c8ade4bb1ec24514a4d5,65af56a74aa07d90bbee3cf8,2024-01-23_09h05.07.804,bars,2023.2.3,Win32,59.88023952,657b66ea316d21385b68909f,,,,,,,,,,,825.2662,826.2732,,,826.7699,827.0274,,129,129,,,,,,,,,,,,,,,,bars/018.png,bars/mask009.png,,,,,,,,,,,,0,1,,,,,,,0,6,0,5,,,,,,,,,,,826.2732,826.7699,827.0274,828.8924,space,1.8497,,828.8924,21,39,829.8866,829.8867,829.8935,,,,0,13,13,13,1,150,90,,,,,,,,
,,60c1c8ade4bb1ec24514a4d5,65af56a74aa07d90bbee3cf8,2024-01-23_09h05.07.804,bars,2023.2.3,Win32,59.88023952,657b66ea316d21385b68909f,,,,,,,,,,,829.8936,830.8869,,,831.3868,831.6369,,49,49,,,,,,,,,,,,,,,,bars/048.png,bars/mask007.png,,,,,,,,,,,,1,1,,,,,,,2,8,1,8,,,,,,,,,,,830.887,831.3866,831.6369,832.9942,space,1.3347,,832.9942,1,54,833.9866,833.9867,833.994,,,,0,14,14,14,1,50,175,,,,,,,,
,,60c1c8ade4bb1ec24514a4d5,65af56a74aa07d90bbee3cf8,2024-01-23_09h05.07.804,bars,2023.2.3,Win32,59.88023952,657b66ea316d21385b68909f,,,,,,,,,,,833.9941,834.9866,,,835.4869,835.7367,,157,-23,,,,,,,,,,,,,,,,bars/003.png,bars/mask000.png,,,,,,,,,,,,2,2,,,,,,,0,6,1,5,,,,,,,,,,,834.9866,835.4869,835.7369,839.1376,space,3.374,,839.1377,48,17,840.1401,840.1401,840.1462,,,,0,15,15,15,1,25,140,,,,,,,,
,,60c1c8ade4bb1ec24514a4d5,65af56a74aa07d90bbee3cf8,2024-01-23_09h05.07.804,bars,2023.2.3,Win32,59.88023952,657b66ea316d21385b68909f,,,,,,,,,,,840.1462,841.1368,,,841.6367,841.8939,,58,58,,,,,,,,,,,,,,,,bars/028.png,bars/mask003.png,,,,,,,,,,,,1,1,,,,,,,0,8,1,9,,,,,,,,,,,841.137,841.6367,841.8939,843.5766,space,1.6661,,843.5766,13,62,844.5701,844.5703,844.5733,,,,0,16,16,16,1,45,120,,,,,,,,
,,60c1c8ade4bb1ec24514a4d5,65af56a74aa07d90bbee3cf8,2024-01-23_09h05.07.804,bars,2023.2.3,Win32,59.88023952,657b66ea316d21385b68909f,,,,,,,,,,,844.5735,845.573,,,846.0606,846.3038,,37,37,,,,,,,,,,,,,,,,bars/028.png,bars/mask006.png,,,,,,,,,,,,1,1,,,,,,,2,10,1,10,,,,,,,,,,,845.573,846.0605,846.3039,848.8404,space,2.5132,,848.8404,8,83,849.8366,849.8366,849.8437,,,,0,17,17,17,1,45,120,,,,,,,,
,,60c1c8ade4bb1ec24514a4d5,65af56a74aa07d90bbee3cf8,2024-01-23_09h05.07.804,bars,2023.2.3,Win32,59.88023952,657b66ea316d21385b68909f,,,,,,,,,,,849.8438,850.8369,,,851.3369,851.5869,,4,4,,,,,,,,,,,,,,,,bars/014.png,bars/mask006.png,,,,,,,,,,,,8,2,,,,,,,4,10,2,9,,,,,,,,,,,850.8369,851.3368,851.587,853.1278,space,1.5174,,853.1279,76,4,854.1201,854.1202,854.1273,,,,0,18,18,18,1,80,0,,,,,,,,
,,60c1c8ade4bb1ec24514a4d5,65af56a74aa07d90bbee3cf8,2024-01-23_09h05.07.804,bars,2023.2.3,Win32,59.88023952,657b66ea316d21385b68909f,,,,,,,,,,,854.1274,855.1203,,,855.6108,855.8606,,66,66,,,,,,,,,,,,,,,,bars/038.png,bars/mask007.png,,,,,,,,,,,,9,2,,,,,,,2,10,3,10,,,,,,,,,,,855.1203,855.6108,855.8606,857.3778,space,1.5003,,857.3778,81,4,858.3703,858.3706,858.3773,,,,0,19,19,19,1,165,70,,,,,,,,
,,60c1c8ade4bb1ec24514a4d5,65af56a74aa07d90bbee3cf8,2024-01-23_09h05.07.804,bars,2023.2.3,Win32,59.88023952,657b66ea316d21385b68909f,,,,,,,,,,,858.3774,859.37,,,859.8606,860.1108,,39,219,,,,,,,,,,,,,,,,bars/025.png,bars/mask008.png,,,,,,,,,,,,8,2,,,,,,,0,8,0,8,,,,,,,,,,,859.3701,859.8605,860.1108,863.661,space,3.5336,,863.6611,66,1,864.6534,864.6534,864.66,,,,0,20,20,20,1,105,40,,,,,,,,
,,60c1c8ade4bb1ec24514a4d5,65af56a74aa07d90bbee3cf8,2024-01-23_09h05.07.804,bars,2023.2.3,Win32,59.88023952,657b66ea316d21385b68909f,,,,,,,,,,,864.6601,865.6537,,,866.1538,866.4035,,58,58,,,,,,,,,,,,,,,,bars/034.png,bars/mask004.png,,,,,,,,,,,,8,2,,,,,,,0,10,3,10,,,,,,,,,,,865.6539,866.1536,866.4037,869.3539,space,2.9226,,869.354,67,7,870.3534,870.3536,870.3601,,,,0,21,21,21,1,125,65,,,,,,,,
,,60c1c8ade4bb1ec24514a4d5,65af56a74aa07d90bbee3cf8,2024-01-23_09h05.07.804,bars,2023.2.3,Win32,59.88023952,657b66ea316d21385b68909f,,,,,,,,,,,870.3602,871.3535,,,871.8608,872.1037,,103,103,,,,,,,,,,,,,,,,bars/001.png,bars/mask003.png,,,,,,,,,,,,4,2,,,,,,,2,10,3,9,,,,,,,,,,,871.3536,871.8608,872.1038,874.2445,space,2.117,,874.2445,27,18,875.2369,875.237,875.2436,,,,0,22,22,22,1,130,85,,,,,,,,
,,60c1c8ade4bb1ec24514a4d5,65af56a74aa07d90bbee3cf8,2024-01-23_09h05.07.804,bars,2023.2.3,Win32,59.88023952,657b66ea316d21385b68909f,,,,,,,,,,,875.2436,876.2367,,,876.7274,876.9703,,77,257,,,,,,,,,,,,,,,,bars/011.png,bars/mask009.png,,,,,,,,,,,,6,2,,,,,,,0,8,0,8,,,,,,,,,,,876.2368,876.7274,876.9704,880.9537,space,3.9561,,880.9538,83,8,881.9607,881.9607,881.9662,,,,0,23,23,23,1,160,85,,,,,,,,
,,60c1c8ade4bb1ec24514a4d5,65af56a74aa07d90bbee3cf8,2024-01-23_09h05.07.804,bars,2023.2.3,Win32,59.88023952,657b66ea316d21385b68909f,,,,,,,,,,,881.9663,882.9701,,,883.4705,883.7258,,170,-10,,,,,,,,,,,,,,,,bars/022.png,bars/mask007.png,,,,,,,,,,,,0,2,,,,,,,2,10,1,10,,,,,,,,,,,882.9703,883.4702,883.7259,890.6778,space,6.9337,,890.6778,75,30,891.6775,891.6775,891.6834,,,,0,24,24,24,1,95,20,,,,,,,,
,,60c1c8ade4bb1ec24514a4d5,65af56a74aa07d90bbee3cf8,2024-01-23_09h05.07.804,bars,2023.2.3,Win32,59.88023952,657b66ea316d21385b68909f,,,,,,,,,,,891.6835,892.6764,,,893.1701,893.4201,,41,41,,,,,,,,,,,,,,,,bars/017.png,bars/mask004.png,,,,,,,,,,,,7,2,,,,,,,4,8,3,8,,,,,,,,,,,892.6765,893.17,893.4202,895.1208,space,1.6742,,895.1208,76,4,896.1204,896.1205,896.1274,,,,0,25,25,25,1,145,45,,,,,,,,
,,60c1c8ade4bb1ec24514a4d5,65af56a74aa07d90bbee3cf8,2024-01-23_09h05.07.804,bars,2023.2.3,Win32,59.88023952,657b66ea316d21385b68909f,,,,,,,,,,,896.1275,897.1204,,,897.6206,897.8703,,120,120,,,,,,,,,,,,,,,,bars/037.png,bars/mask000.png,,,,,,,,,,,,5,2,,,,,,,6,10,6,9,,,,,,,,,,,897.1205,897.6205,897.8704,899.5206,space,1.6247,,899.5208,30,15,900.5203,900.5204,900.5269,,,,0,26,26,26,1,150,105,,,,,,,,
,,60c1c8ade4bb1ec24514a4d5,65af56a74aa07d90bbee3cf8,2024-01-23_09h05.07.804,bars,2023.2.3,Win32,59.88023952,657b66ea316d21385b68909f,,,,,,,,,,,900.527,901.52,,,902.0263,902.2702,,94,94,,,,,,,,,,,,,,,,bars/021.png,bars/mask008.png,,,,,,,,,,,,2,2,,,,,,,4,10,5,10,,,,,,,,,,,901.5202,902.0263,902.2703,905.5103,space,3.2164,,905.5103,61,24,906.5034,906.5034,906.5122,,,,0,27,27,27,1,155,70,,,,,,,,
,,60c1c8ade4bb1ec24514a4d5,65af56a74aa07d90bbee3cf8,2024-01-23_09h05.07.804,bars,2023.2.3,Win32,59.88023952,657b66ea316d21385b68909f,,,,,,,,,,,906.5124,907.507,,,908.0039,908.2609,,161,-19,,,,,,,,,,,,,,,,bars/044.png,bars/mask003.png,,,,,,,,,,,,8,2,,,,,,,6,10,7,10,,,,,,,,,,,907.507,908.0038,908.2609,910.1611,space,1.8838,,910.1611,86,6,911.1535,911.1538,911.1607,,,,0,28,28,28,1,75,155,,,,,,,,
,,60c1c8ade4bb1ec24514a4d5,65af56a74aa07d90bbee3cf8,2024-01-23_09h05.07.804,bars,2023.2.3,Win32,59.88023952,657b66ea316d21385b68909f,,,,,,,,,,,911.1608,912.16,,,912.6539,912.9037,,38,38,,,,,,,,,,,,,,,,bars/036.png,bars/mask007.png,,,,,,,,,,,,4,2,,,,,,,4,10,4,9,,,,,,,,,,,912.16,912.6538,912.9039,914.9779,space,2.0505,,914.9779,73,18,915.9703,915.9704,915.9727,,,,0,29,29,29,1,145,20,,,,,,,,
,,60c1c8ade4bb1ec24514a4d5,65af56a74aa07d90bbee3cf8,2024-01-23_09h05.07.804,bars,2023.2.3,Win32,59.88023952,657b66ea316d21385b68909f,,,,,,,,,,,915.9729,916.9704,,,917.4706,917.7106,,94,94,,,,,,,,,,,,,,,,bars/034.png,bars/mask008.png,,,,,,,,,,,,0,2,,,,,,,6,8,6,8,,,,,,,,,,,916.9706,917.4705,917.7106,922.4766,space,4.7492,,922.4766,31,29,923.4704,923.4705,923.4772,,,,0,30,30,30,1,125,65,,,,,,,,
,,60c1c8ade4bb1ec24514a4d5,65af56a74aa07d90bbee3cf8,2024-01-23_09h05.07.804,bars,2023.2.3,Win32,59.88023952,657b66ea316d21385b68909f,,,,,,,,,,,923.4773,924.4735,,,924.9776,925.2203,,123,123,,,,,,,,,,,,,,,,bars/049.png,bars/mask003.png,,,,,,,,,,,,4,2,,,,,,,4,6,5,6,,,,,,,,,,,924.4735,924.9776,925.2204,927.8112,space,2.5673,,927.8112,37,8,928.8036,928.8038,928.8107,,,,0,31,31,31,1,160,115,,,,,,,,
,,60c1c8ade4bb1ec24514a4d5,65af56a74aa07d90bbee3cf8,2024-01-23_09h05.07.804,bars,2023.2.3,Win32,59.88023952,657b66ea316d21385b68909f,,,,,,,,,,,928.8108,929.8039,,,930.304,930.554,,29,29,,,,,,,,,,,,,,,,bars/031.png,bars/mask008.png,,,,,,,,,,,,5,2,,,,,,,2,8,1,6,,,,,,,,,,,929.8039,930.3038,930.554,932.0876,space,1.5086,,932.0877,89,6,933.0773,933.0773,933.0779,,,,0,32,32,32,1,120,35,,,,,,,,
,,60c1c8ade4bb1ec24514a4d5,65af56a74aa07d90bbee3cf8,2024-01-23_09h05.07.804,bars,2023.2.3,Win32,59.88023952,657b66ea316d21385b68909f,,,,,,,,,,,933.0781,934.0706,,,934.5737,934.8204,,116,116,,,,,,,,,,,,,,,,bars/023.png,bars/mask005.png,,,,,,,,,,,,6,2,,,,,,,0,6,0,6,,,,,,,,,,,934.0707,934.5737,934.8206,936.8945,space,2.0514,,936.8945,84,1,937.894,937.8941,937.8946,,,,0,33,33,33,1,20,115,,,,,,,,
,,60c1c8ade4bb1ec24514a4d5,65af56a74aa07d90bbee3cf8,2024-01-23_09h05.07.804,bars,2023.2.3,Win32,59.88023952,657b66ea316d21385b68909f,,,,,,,,,,,937.8948,938.8939,,,939.3942,939.6369,,49,49,,,,,,,,,,,,,,,,bars/029.png,bars/mask001.png,,,,,,,,,,,,8,2,,,,,,,2,8,3,9,,,,,,,,,,,938.8939,939.3942,939.6371,941.7573,space,2.0968,,941.7573,41,4,942.757,942.757,942.7625,,,,0,34,34,34,1,90,45,,,,,,,,
,,60c1c8ade4bb1ec24514a4d5,65af56a74aa07d90bbee3cf8,2024-01-23_09h05.07.804,bars,2023.2.3,Win32,59.88023952,657b66ea316d21385b68909f,,,,,,,,,,,942.7626,943.7537,,,944.254,944.5038,,73,73,,,,,,,,,,,,,,,,bars/010.png,bars/mask008.png,,,,,,,,,,,,4,2,,,,,,,0,10,0,9,,,,,,,,,,,943.7538,944.2538,944.504,948.2705,space,3.7424,,948.2706,88,18,949.2775,949.2776,949.283,,,,0,35,35,35,1,165,55,,,,,,,,
,,60c1c8ade4bb1ec24514a4d5,65af56a74aa07d90bbee3cf8,2024-01-23_09h05.07.804,bars,2023.2.3,Win32,59.88023952,657b66ea316d21385b68909f,,,,,,,,,,,949.2831,950.2871,,,950.7903,951.0372,,134,134,,,,,,,,,,,,,,,,bars/000.png,bars/mask006.png,,,,,,,,,,,,6,2,,,,,,,0,8,0,9,,,,,,,,,,,950.2872,950.7903,951.0373,954.5781,space,3.5173,,954.5781,86,11,955.5706,955.5706,955.5775,,,,0,36,36,36,1,40,145,,,,,,,,
,,60c1c8ade4bb1ec24514a4d5,65af56a74aa07d90bbee3cf8,2024-01-23_09h05.07.804,bars,2023.2.3,Win32,59.88023952,657b66ea316d21385b68909f,,,,,,,,,,,955.5777,956.5703,,,957.0767,957.3205,,72,72,,,,,,,,,,,,,,,,bars/011.png,bars/mask005.png,,,,,,,,,,,,3,2,,,,,,,2,6,3,6,,,,,,,,,,,956.5704,957.0767,957.3207,960.9373,space,3.5896,,960.9375,88,13,961.9372,961.9374,961.944,,,,0,37,37,37,1,160,85,,,,,,,,
,,60c1c8ade4bb1ec24514a4d5,65af56a74aa07d90bbee3cf8,2024-01-23_09h05.07.804,bars,2023.2.3,Win32,59.88023952,657b66ea316d21385b68909f,,,,,,,,,,,961.9441,962.937,,,963.4441,963.6872,,130,130,,,,,,,,,,,,,,,,bars/040.png,bars/mask004.png,,,,,,,,,,,,3,1,,,,,,,4,8,4,7,,,,,,,,,,,962.937,963.4441,963.6874,965.078,space,1.3673,,965.078,10,55,966.0705,966.0706,966.0738,,,,0,38,38,38,1,140,5,,,,,,,,
,,60c1c8ade4bb1ec24514a4d5,65af56a74aa07d90bbee3cf8,2024-01-23_09h05.07.804,bars,2023.2.3,Win32,59.88023952,657b66ea316d21385b68909f,,,,,,,,,,,966.0739,967.0705,,,967.5707,967.8207,,31,211,,,,,,,,,,,,,,,,bars/004.png,bars/mask005.png,,,,,,,,,,,,1,1,,,,,,,2,6,1,6,,,,,,,,,,,967.0707,967.5706,967.8207,971.1542,space,3.3009,,971.1543,6,86,972.157,972.1571,972.1624,,,,0,39,39,39,1,25,125,,,,,,,,
,,60c1c8ade4bb1ec24514a4d5,65af56a74aa07d90bbee3cf8,2024-01-23_09h05.07.804,bars,2023.2.3,Win32,59.88023952,657b66ea316d21385b68909f,,,,,,,,,,,972.1625,973.1536,,,973.6542,973.9039,,18,18,,,,,,,,,,,,,,,,bars/023.png,bars/mask006.png,,,,,,,,,,,,0,1,,,,,,,0,4,0,3,,,,,,,,,,,973.1536,973.6541,973.9039,976.727,space,2.7993,,976.727,2,83,977.7278,977.7278,977.7332,,,,0,40,40,40,1,20,115,,,,,,,,
,,60c1c8ade4bb1ec24514a4d5,65af56a74aa07d90bbee3cf8,2024-01-23_09h05.07.804,bars,2023.2.3,Win32,59.88023952,657b66ea316d21385b68909f,,,,,,,,,,,977.7333,978.7237,,,979.2207,979.4709,,82,82,,,,,,,,,,,,,,,,bars/011.png,bars/mask000.png,,,,,,,,,,,,5,2,,,,,,,2,6,1,5,,,,,,,,,,,978.7237,979.2207,979.471,981.7875,space,2.2879,,981.7876,78,3,982.7871,982.7872,982.7944,,,,0,41,41,41,1,160,85,,,,,,,,
,,60c1c8ade4bb1ec24514a4d5,65af56a74aa07d90bbee3cf8,2024-01-23_09h05.07.804,bars,2023.2.3,Win32,59.88023952,657b66ea316d21385b68909f,,,,,,,,,,,982.7945,983.7871,,,984.2778,984.5277,,123,123,,,,,,,,,,,,,,,,bars/003.png,bars/mask008.png,,,,,,,,,,,,3,2,,,,,,,4,8,4,7,,,,,,,,,,,983.7874,984.2778,984.5278,988.6282,space,4.0952,,988.6282,82,17,989.6204,989.6204,989.6269,,,,0,42,42,42,1,25,140,,,,,,,,
,,60c1c8ade4bb1ec24514a4d5,65af56a74aa07d90bbee3cf8,2024-01-23_09h05.07.804,bars,2023.2.3,Win32,59.88023952,657b66ea316d21385b68909f,,,,,,,,,,,989.6271,990.6205,,,991.1206,991.3705,,103,-77,,,,,,,,,,,,,,,,bars/006.png,bars/mask001.png,,,,,,,,,,,,5,2,,,,,,,2,6,3,5,,,,,,,,,,,990.6206,991.1205,991.3706,995.4706,space,4.0759,,995.4708,68,3,996.4706,996.4708,996.4773,,,,0,43,43,43,1,35,100,,,,,,,,
,,60c1c8ade4bb1ec24514a4d5,65af56a74aa07d90bbee3cf8,2024-01-23_09h05.07.804,bars,2023.2.3,Win32,59.88023952,657b66ea316d21385b68909f,,,,,,,,,,,996.4773,997.4707,,,997.9738,998.2205,,144,144,,,,,,,,,,,,,,,,bars/044.png,bars/mask000.png,,,,,,,,,,,,6,2,,,,,,,4,8,6,9,,,,,,,,,,,997.4707,997.9738,998.2205,999.4782,space,1.234,,999.4782,69,11,1000.4709,1000.471,1000.4733,,,,0,44,44,44,1,75,155,,,,,,,,
,,60c1c8ade4bb1ec24514a4d5,65af56a74aa07d90bbee3cf8,2024-01-23_09h05.07.804,bars,2023.2.3,Win32,59.88023952,657b66ea316d21385b68909f,,,,,,,,,,,1000.4735,1001.4705,,,1001.9738,1002.2205,,97,-83,,,,,,,,,,,,,,,,bars/021.png,bars/mask006.png,,,,,,,,,,,,1,2,,,,,,,2,6,1,6,,,,,,,,,,,1001.4706,1001.9738,1002.2206,1006.2241,space,3.98,,1006.2242,58,27,1007.2207,1007.2208,1007.2272,,,,0,45,45,45,1,155,70,,,,,,,,
,,60c1c8ade4bb1ec24514a4d5,65af56a74aa07d90bbee3cf8,2024-01-23_09h05.07.804,bars,2023.2.3,Win32,59.88023952,657b66ea316d21385b68909f,,,,,,,,,,,1007.2275,1008.2206,,,1008.7209,1008.9707,,76,76,,,,,,,,,,,,,,,,bars/026.png,bars/mask002.png,,,,,,,,,,,,5,2,,,,,,,4,8,4,7,,,,,,,,,,,1008.2207,1008.7207,1008.9709,1009.8783,space,0.8848,,1009.8783,41,9,1010.8705,1010.8706,1010.8725,,,,0,46,46,46,1,35,85,,,,,,,,
,,60c1c8ade4bb1ec24514a4d5,65af56a74aa07d90bbee3cf8,2024-01-23_09h05.07.804,bars,2023.2.3,Win32,59.88023952,657b66ea316d21385b68909f,,,,,,,,,,,1010.8731,1011.8705,,,1012.3612,1012.6037,,89,89,,,,,,,,,,,,,,,,bars/011.png,bars/mask006.png,,,,,,,,,,,,4,2,,,,,,,6,6,7,5,,,,,,,,,,,1011.8708,1012.3612,1012.6038,1013.7781,space,1.1502,,1013.7781,71,4,1014.7768,1014.7769,1014.7773,,,,0,47,47,47,1,160,85,,,,,,,,
,,60c1c8ade4bb1ec24514a4d5,65af56a74aa07d90bbee3cf8,2024-01-23_09h05.07.804,bars,2023.2.3,Win32,59.88023952,657b66ea316d21385b68909f,,,,,,,,,,,1014.7775,1015.7777,,,1016.2739,1016.521,,118,118,,,,,,,,,,,,,,,,bars/009.png,bars/mask006.png,,,,,,,,,,,,6,2,,,,,,,8,8,7,10,,,,,,,,,,,1015.7778,1016.2739,1016.5211,1019.4615,space,2.9171,,1019.4615,77,13,1020.4538,1020.4539,1020.4605,,,,0,48,48,48,1,15,105,,,,,,,,
,,60c1c8ade4bb1ec24514a4d5,65af56a74aa07d90bbee3cf8,2024-01-23_09h05.07.804,bars,2023.2.3,Win32,59.88023952,657b66ea316d21385b68909f,,,,,,,,,,,1020.4607,1021.4612,,,1021.9613,1022.204,,12,192,,,,,,,,,,,,,,,,bars/022.png,bars/mask006.png,,,,,,,,,,,,4,2,,,,,,,10,6,10,6,,,,,,,,,,,1021.4612,1021.9612,1022.2041,1025.6116,space,3.3838,,1025.6116,83,8,1026.6037,1026.6039,1026.6111,,,,0,49,49,49,1,95,20,,,,,,,,
,,60c1c8ade4bb1ec24514a4d5,65af56a74aa07d90bbee3cf8,2024-01-23_09h05.07.804,bars,2023.2.3,Win32,59.88023952,657b66ea316d21385b68909f,,,,,,,,,,,,,,,,,,,,,,,,,,,,,,,,,,,,,,,,,,,,,,,,,,,,,,,,,,,,,,,,,,,,,,,,,,,,,,,,,,,,,,,,,,,,,1026.6111,1086.6045,0,1,1,3,1,sequence_tables/blk049.csv
,,60c1c8ade4bb1ec24514a4d5,65af56a74aa07d90bbee3cf8,2024-01-23_09h05.07.804,bars,2023.2.3,Win32,59.88023952,657b66ea316d21385b68909f,,,,,,,,,,,1102.9141,1103.9039,,,1104.4042,1104.6448,,20,20,,,,,,,,,,,,,,,,bars/048.png,bars/mask008.png,,,,,,,,,,,,1,2,,,,,,,5,9,5,7,,,,,,1086.6121,1102.9043,space,16.2743,,1103.9042,1104.4041,1104.6448,1104.8115,space,0.1504,,1104.8116,30,25,1105.804,1105.8041,1105.8065,,,,0,0,0,0,1,50,175,,,,,,,,
,,60c1c8ade4bb1ec24514a4d5,65af56a74aa07d90bbee3cf8,2024-01-23_09h05.07.804,bars,2023.2.3,Win32,59.88023952,657b66ea316d21385b68909f,,,,,,,,,,,1105.807,1106.8042,,,1107.2946,1107.5375,,43,43,,,,,,,,,,,,,,,,bars/035.png,bars/mask003.png,,,,,,,,,,,,2,2,,,,,,,7,7,10,5,,,,,,,,,,,1106.8044,1107.2946,1107.5375,1109.9545,space,2.3909,,1109.9546,48,17,1110.9614,1110.9614,1110.9618,,,,0,1,1,1,1,175,60,,,,,,,,
,,60c1c8ade4bb1ec24514a4d5,65af56a74aa07d90bbee3cf8,2024-01-23_09h05.07.804,bars,2023.2.3,Win32,59.88023952,657b66ea316d21385b68909f,,,,,,,,,,,1110.962,1111.954,,,1112.4541,1112.7042,,109,109,,,,,,,,,,,,,,,,bars/018.png,bars/mask001.png,,,,,,,,,,,,1,2,,,,,,,5,5,6,3,,,,,,,,,,,1111.9542,1112.454,1112.7043,1114.0451,space,1.3172,,1114.0451,41,19,1115.0375,1115.0377,1115.0444,,,,0,2,2,2,1,150,90,,,,,,,,
,,60c1c8ade4bb1ec24514a4d5,65af56a74aa07d90bbee3cf8,2024-01-23_09h05.07.804,bars,2023.2.3,Win32,59.88023952,657b66ea316d21385b68909f,,,,,,,,,,,1115.0446,1116.0378,,,1116.5378,1116.7781,,131,-49,,,,,,,,,,,,,,,,bars/031.png,bars/mask008.png,,,,,,,,,,,,4,1,,,,,,,7,3,6,6,,,,,,,,,,,1116.0381,1116.5377,1116.7781,1120.4213,space,3.6235,,1120.4214,11,84,1121.4281,1121.4281,1121.4341,,,,0,3,3,3,1,120,35,,,,,,,,
,,60c1c8ade4bb1ec24514a4d5,65af56a74aa07d90bbee3cf8,2024-01-23_09h05.07.804,bars,2023.2.3,Win32,59.88023952,657b66ea316d21385b68909f,,,,,,,,,,,1121.4343,1122.428,,,1122.9272,1123.178,,125,125,,,,,,,,,,,,,,,,bars/040.png,bars/mask007.png,,,,,,,,,,,,5,1,,,,,,,9,5,9,6,,,,,,,,,,,1122.428,1122.9271,1123.178,1125.6557,space,2.4598,,1125.6559,15,60,1126.6542,1126.6544,1126.6615,,,,0,4,4,4,1,140,5,,,,,,,,
,,60c1c8ade4bb1ec24514a4d5,65af56a74aa07d90bbee3cf8,2024-01-23_09h05.07.804,bars,2023.2.3,Win32,59.88023952,657b66ea316d21385b68909f,,,,,,,,,,,1126.6616,1127.6548,,,1128.1542,1128.3945,,26,206,,,,,,,,,,,,,,,,bars/005.png,bars/mask005.png,,,,,,,,,,,,4,1,,,,,,,10,7,9,6,,,,,,,,,,,1127.6548,1128.1541,1128.3945,1133.1213,space,4.7004,,1133.1215,16,66,1134.1211,1134.1211,1134.1277,,,,0,5,5,5,1,10,140,,,,,,,,
,,60c1c8ade4bb1ec24514a4d5,65af56a74aa07d90bbee3cf8,2024-01-23_09h05.07.804,bars,2023.2.3,Win32,59.88023952,657b66ea316d21385b68909f,,,,,,,,,,,1134.1278,1135.1209,,,1135.6209,1135.871,,57,57,,,,,,,,,,,,,,,,bars/019.png,bars/mask004.png,,,,,,,,,,,,4,1,,,,,,,8,5,7,4,,,,,,,,,,,1135.1211,1135.6209,1135.871,1139.1951,space,3.3005,,1139.1952,12,48,1140.1877,1140.1879,1140.1945,,,,0,6,6,6,1,45,105,,,,,,,,
,,60c1c8ade4bb1ec24514a4d5,65af56a74aa07d90bbee3cf8,2024-01-23_09h05.07.804,bars,2023.2.3,Win32,59.88023952,657b66ea316d21385b68909f,,,,,,,,,,,1140.1945,1141.1876,,,1141.6947,1141.9382,,136,136,,,,,,,,,,,,,,,,bars/040.png,bars/mask007.png,,,,,,,,,,,,5,1,,,,,,,6,7,6,8,,,,,,,,,,,1141.188,1141.6947,1141.9382,1147.0049,space,5.0392,,1147.005,4,49,1148.0041,1148.0041,1148.0114,,,,0,7,7,7,1,140,5,,,,,,,,
,,60c1c8ade4bb1ec24514a4d5,65af56a74aa07d90bbee3cf8,2024-01-23_09h05.07.804,bars,2023.2.3,Win32,59.88023952,657b66ea316d21385b68909f,,,,,,,,,,,1148.0114,1149.0044,,,1149.5043,1149.7542,,25,25,,,,,,,,,,,,,,,,bars/007.png,bars/mask009.png,,,,,,,,,,,,0,2,,,,,,,8,5,9,6,,,,,,,,,,,1149.0045,1149.5041,1149.7543,1155.2953,space,5.5173,,1155.2953,30,30,1156.2949,1156.295,1156.3011,,,,0,8,8,8,1,175,55,,,,,,,,
,,60c1c8ade4bb1ec24514a4d5,65af56a74aa07d90bbee3cf8,2024-01-23_09h05.07.804,bars,2023.2.3,Win32,59.88023952,657b66ea316d21385b68909f,,,,,,,,,,,1156.3012,1157.2946,,,1157.7879,1158.0379,,152,152,,,,,,,,,,,,,,,,bars/035.png,bars/mask002.png,,,,,,,,,,,,2,1,,,,,,,10,7,10,8,,,,,,,,,,,1157.2946,1157.7878,1158.0379,1162.3934,space,4.3318,,1162.3935,23,88,1163.388,1163.3882,1163.3952,,,,0,9,9,9,1,175,60,,,,,,,,
,,60c1c8ade4bb1ec24514a4d5,65af56a74aa07d90bbee3cf8,2024-01-23_09h05.07.804,bars,2023.2.3,Win32,59.88023952,657b66ea316d21385b68909f,,,,,,,,,,,1163.3954,1164.3878,,,1164.8877,1165.1449,,40,220,,,,,,,,,,,,,,,,bars/016.png,bars/mask000.png,,,,,,,,,,,,8,1,,,,,,,8,9,8,9,,,,,,,,,,,1164.3878,1164.8876,1165.145,1168.1119,space,2.9505,,1168.112,0,55,1169.1076,1169.1076,1169.113,,,,0,10,10,10,1,40,165,,,,,,,,
,,60c1c8ade4bb1ec24514a4d5,65af56a74aa07d90bbee3cf8,2024-01-23_09h05.07.804,bars,2023.2.3,Win32,59.88023952,657b66ea316d21385b68909f,,,,,,,,,,,1169.1131,1170.1076,,,1170.6099,1170.8577,,151,151,,,,,,,,,,,,,,,,bars/038.png,bars/mask008.png,,,,,,,,,,,,3,1,,,,,,,6,10,5,10,,,,,,,,,,,1170.1076,1170.6099,1170.8577,1172.1787,space,1.3007,,1172.1787,14,81,1173.1712,1173.1713,1173.1738,,,,0,11,11,11,1,165,70,,,,,,,,
,,60c1c8ade4bb1ec24514a4d5,65af56a74aa07d90bbee3cf8,2024-01-23_09h05.07.804,bars,2023.2.3,Win32,59.88023952,657b66ea316d21385b68909f,,,,,,,,,,,1173.1739,1174.1614,,,1174.6616,1174.9043,,119,119,,,,,,,,,,,,,,,,bars/040.png,bars/mask004.png,,,,,,,,,,,,3,1,,,,,,,8,10,10,8,,,,,,,,,,,1174.1614,1174.6616,1174.9043,1176.0788,space,1.1506,,1176.0788,21,66,1177.0714,1177.0715,1177.0738,,,,0,12,12,12,1,140,5,,,,,,,,
,,60c1c8ade4bb1ec24514a4d5,65af56a74aa07d90bbee3cf8,2024-01-23_09h05.07.804,bars,2023.2.3,Win32,59.88023952,657b66ea316d21385b68909f,,,,,,,,,,,1177.074,1178.0713,,,1178.5714,1178.8212,,139,-41,,,,,,,,,,,,,,,,bars/046.png,bars/mask008.png,,,,,,,,,,,,5,1,,,,,,,10,10,10,8,,,,,,,,,,,1178.0713,1178.5713,1178.8214,1183.2619,space,4.4172,,1183.2619,16,54,1184.2545,1184.2546,1184.2612,,,,0,13,13,13,1,155,85,,,,,,,,
,,60c1c8ade4bb1ec24514a4d5,65af56a74aa07d90bbee3cf8,2024-01-23_09h05.07.804,bars,2023.2.3,Win32,59.88023952,657b66ea316d21385b68909f,,,,,,,,,,,1184.2613,1185.2543,,,1185.7599,1186.0117,,36,36,,,,,,,,,,,,,,,,bars/041.png,bars/mask000.png,,,,,,,,,,,,3,1,,,,,,,8,8,7,8,,,,,,,,,,,1185.2544,1185.7599,1186.0117,1188.4787,space,2.4505,,1188.4787,16,49,1189.4713,1189.4714,1189.4732,,,,0,14,14,14,1,20,85,,,,,,,,
,,60c1c8ade4bb1ec24514a4d5,65af56a74aa07d90bbee3cf8,2024-01-23_09h05.07.804,bars,2023.2.3,Win32,59.88023952,657b66ea316d21385b68909f,,,,,,,,,,,1189.4739,1190.4712,,,1190.9597,1191.2043,,55,235,,,,,,,,,,,,,,,,bars/000.png,bars/mask009.png,,,,,,,,,,,,4,1,,,,,,,6,6,7,6,,,,,,,,,,,1190.4713,1190.9597,1191.2044,1195.3551,space,4.1217,,1195.3552,15,90,1196.345,1196.345,1196.3505,,,,0,15,15,15,1,40,145,,,,,,,,
,,60c1c8ade4bb1ec24514a4d5,65af56a74aa07d90bbee3cf8,2024-01-23_09h05.07.804,bars,2023.2.3,Win32,59.88023952,657b66ea316d21385b68909f,,,,,,,,,,,1196.3506,1197.3543,,,1197.845,1198.0879,,122,122,,,,,,,,,,,,,,,,bars/034.png,bars/mask007.png,,,,,,,,,,,,6,1,,,,,,,8,4,7,2,,,,,,,,,,,1197.3544,1197.845,1198.088,1200.1443,space,2.0328,,1200.1443,3,57,1201.145,1201.145,1201.1455,,,,0,16,16,16,1,125,65,,,,,,,,
,,60c1c8ade4bb1ec24514a4d5,65af56a74aa07d90bbee3cf8,2024-01-23_09h05.07.804,bars,2023.2.3,Win32,59.88023952,657b66ea316d21385b68909f,,,,,,,,,,,1201.1456,1202.1377,,,1202.6282,1202.8711,,4,184,,,,,,,,,,,,,,,,bars/007.png,bars/mask004.png,,,,,,,,,,,,6,1,,,,,,,10,2,9,2,,,,,,,,,,,1202.1378,1202.6282,1202.8712,1207.3618,space,4.467,,1207.3619,9,51,1208.3617,1208.3617,1208.3671,,,,0,17,17,17,1,175,55,,,,,,,,
,,60c1c8ade4bb1ec24514a4d5,65af56a74aa07d90bbee3cf8,2024-01-23_09h05.07.804,bars,2023.2.3,Win32,59.88023952,657b66ea316d21385b68909f,,,,,,,,,,,1208.3672,1209.3606,,,1209.8545,1210.1043,,177,-3,,,,,,,,,,,,,,,,bars/035.png,bars/mask009.png,,,,,,,,,,,,6,1,,,,,,,8,0,6,0,,,,,,,,,,,1209.3606,1209.8545,1210.1044,1212.0953,space,1.9672,,1212.0954,2,63,1213.0877,1213.0878,1213.09,,,,0,18,18,18,1,175,60,,,,,,,,
,,60c1c8ade4bb1ec24514a4d5,65af56a74aa07d90bbee3cf8,2024-01-23_09h05.07.804,bars,2023.2.3,Win32,59.88023952,657b66ea316d21385b68909f,,,,,,,,,,,1213.0906,1214.0894,,,1214.5882,1214.8377,,44,224,,,,,,,,,,,,,,,,bars/006.png,bars/mask005.png,,,,,,,,,,,,7,1,,,,,,,10,0,10,2,,,,,,,,,,,1214.0896,1214.588,1214.8378,1218.2288,space,3.3673,,1218.2289,9,56,1219.2213,1219.2215,1219.2285,,,,0,19,19,19,1,35,100,,,,,,,,
,,60c1c8ade4bb1ec24514a4d5,65af56a74aa07d90bbee3cf8,2024-01-23_09h05.07.804,bars,2023.2.3,Win32,59.88023952,657b66ea316d21385b68909f,,,,,,,,,,,1219.2287,1220.2211,,,1220.7216,1220.9599,,53,233,,,,,,,,,,,,,,,,bars/048.png,bars/mask001.png,,,,,,,,,,,,9,1,,,,,,,10,0,10,0,,,,,,,,,,,1220.2212,1220.7214,1220.9599,1224.1716,space,3.1889,,1224.1717,3,58,1225.1616,1225.1616,1225.1671,,,,0,20,20,20,1,50,175,,,,,,,,
,,60c1c8ade4bb1ec24514a4d5,65af56a74aa07d90bbee3cf8,2024-01-23_09h05.07.804,bars,2023.2.3,Win32,59.88023952,657b66ea316d21385b68909f,,,,,,,,,,,1225.1673,1226.1616,,,1226.6544,1226.9117,,55,55,,,,,,,,,,,,,,,,bars/006.png,bars/mask003.png,,,,,,,,,,,,2,1,,,,,,,8,0,5,0,,,,,,,,,,,1226.1617,1226.6543,1226.9117,1230.4622,space,3.5337,,1230.4622,20,45,1231.4544,1231.4546,1231.4612,,,,0,21,21,21,1,35,100,,,,,,,,
,,60c1c8ade4bb1ec24514a4d5,65af56a74aa07d90bbee3cf8,2024-01-23_09h05.07.804,bars,2023.2.3,Win32,59.88023952,657b66ea316d21385b68909f,,,,,,,,,,,1231.4614,1232.4544,,,1232.9544,1233.2078,,128,128,,,,,,,,,,,,,,,,bars/034.png,bars/mask001.png,,,,,,,,,,,,8,1,,,,,,,10,0,9,0,,,,,,,,,,,1232.4544,1232.9544,1233.2078,1238.1621,space,4.9336,,1238.1621,3,63,1239.1546,1239.1546,1239.1612,,,,0,22,22,22,1,125,65,,,,,,,,
,,60c1c8ade4bb1ec24514a4d5,65af56a74aa07d90bbee3cf8,2024-01-23_09h05.07.804,bars,2023.2.3,Win32,59.88023952,657b66ea316d21385b68909f,,,,,,,,,,,1239.1613,1240.1618,,,1240.6548,1240.9118,,143,143,,,,,,,,,,,,,,,,bars/030.png,bars/mask007.png,,,,,,,,,,,,8,1,,,,,,,10,2,9,1,,,,,,,,,,,1240.1618,1240.6547,1240.9118,1243.2717,space,2.3421,,1243.2719,3,78,1244.2715,1244.2715,1244.2783,,,,0,23,23,23,1,140,65,,,,,,,,
,,60c1c8ade4bb1ec24514a4d5,65af56a74aa07d90bbee3cf8,2024-01-23_09h05.07.804,bars,2023.2.3,Win32,59.88023952,657b66ea316d21385b68909f,,,,,,,,,,,1244.2784,1245.2712,,,1245.7619,1246.0047,,108,108,,,,,,,,,,,,,,,,bars/001.png,bars/mask001.png,,,,,,,,,,,,2,1,,,,,,,8,0,8,0,,,,,,,,,,,1245.2713,1245.7619,1246.0047,1248.5455,space,2.517,,1248.5455,22,23,1249.5381,1249.5382,1249.5448,,,,0,24,24,24,1,130,85,,,,,,,,
,,60c1c8ade4bb1ec24514a4d5,65af56a74aa07d90bbee3cf8,2024-01-23_09h05.07.804,bars,2023.2.3,Win32,59.88023952,657b66ea316d21385b68909f,,,,,,,,,,,1249.5448,1250.5381,,,1251.0414,1251.295,,133,133,,,,,,,,,,,,,,,,bars/034.png,bars/mask009.png,,,,,,,,,,,,3,1,,,,,,,6,0,4,0,,,,,,,,,,,1250.5383,1251.0414,1251.2951,1253.4453,space,2.1337,,1253.4453,8,68,1254.4378,1254.4379,1254.445,,,,0,25,25,25,1,125,65,,,,,,,,
,,60c1c8ade4bb1ec24514a4d5,65af56a74aa07d90bbee3cf8,2024-01-23_09h05.07.804,bars,2023.2.3,Win32,59.88023952,657b66ea316d21385b68909f,,,,,,,,,,,1254.4451,1255.445,,,1255.9383,1256.188,,41,221,,,,,,,,,,,,,,,,bars/004.png,bars/mask003.png,,,,,,,,,,,,1,1,,,,,,,4,2,3,1,,,,,,,,,,,1255.445,1255.9381,1256.1881,1260.9221,space,4.7007,,1260.9223,16,84,1261.9216,1261.9216,1261.9283,,,,0,26,26,26,1,25,125,,,,,,,,
,,60c1c8ade4bb1ec24514a4d5,65af56a74aa07d90bbee3cf8,2024-01-23_09h05.07.804,bars,2023.2.3,Win32,59.88023952,657b66ea316d21385b68909f,,,,,,,,,,,1261.9284,1262.9215,,,1263.4216,1263.6759,,92,-88,,,,,,,,,,,,,,,,bars/039.png,bars/mask006.png,,,,,,,,,,,,0,2,,,,,,,2,0,2,0,,,,,,,,,,,1262.9217,1263.4215,1263.6759,1268.1623,space,4.4671,,1268.1623,83,13,1269.1549,1269.155,1269.1625,,,,0,27,27,27,1,175,105,,,,,,,,
,,60c1c8ade4bb1ec24514a4d5,65af56a74aa07d90bbee3cf8,2024-01-23_09h05.07.804,bars,2023.2.3,Win32,59.88023952,657b66ea316d21385b68909f,,,,,,,,,,,1269.1626,1270.1547,,,1270.6549,1270.9119,,110,110,,,,,,,,,,,,,,,,bars/023.png,bars/mask000.png,,,,,,,,,,,,1,2,,,,,,,0,2,1,1,,,,,,,,,,,1270.1548,1270.6548,1270.9119,1272.4549,space,1.5365,,1272.455,90,5,1273.4578,1273.4578,1273.4582,,,,0,28,28,28,1,20,115,,,,,,,,
,,60c1c8ade4bb1ec24514a4d5,65af56a74aa07d90bbee3cf8,2024-01-23_09h05.07.804,bars,2023.2.3,Win32,59.88023952,657b66ea316d21385b68909f,,,,,,,,,,,1273.4583,1274.4547,,,1274.9547,1275.2046,,34,214,,,,,,,,,,,,,,,,bars/004.png,bars/mask008.png,,,,,,,,,,,,2,1,,,,,,,2,0,3,0,,,,,,,,,,,1274.4549,1274.9546,1275.2047,1277.4454,space,2.2336,,1277.4454,9,89,1278.4454,1278.4455,1278.4514,,,,0,29,29,29,1,25,125,,,,,,,,
,,60c1c8ade4bb1ec24514a4d5,65af56a74aa07d90bbee3cf8,2024-01-23_09h05.07.804,bars,2023.2.3,Win32,59.88023952,657b66ea316d21385b68909f,,,,,,,,,,,1278.4515,1279.4619,,,1279.9619,1280.2079,,98,98,,,,,,,,,,,,,,,,bars/045.png,bars/mask008.png,,,,,,,,,,,,3,1,,,,,,,4,2,3,1,,,,,,,,,,,1279.4619,1279.9619,1280.2079,1283.3383,space,3.1059,,1283.3384,2,88,1284.3382,1284.3384,1284.3447,,,,0,30,30,30,1,100,10,,,,,,,,
,,60c1c8ade4bb1ec24514a4d5,65af56a74aa07d90bbee3cf8,2024-01-23_09h05.07.804,bars,2023.2.3,Win32,59.88023952,657b66ea316d21385b68909f,,,,,,,,,,,1284.3448,1285.3452,,,1285.8414,1286.0882,,103,103,,,,,,,,,,,,,,,,bars/045.png,bars/mask004.png,,,,,,,,,,,,4,1,,,,,,,2,4,4,5,,,,,,,,,,,1285.3452,1285.8414,1286.0884,1287.9457,space,1.8339,,1287.9458,3,87,1288.9382,1288.9384,1288.9452,,,,0,31,31,31,1,100,10,,,,,,,,
,,60c1c8ade4bb1ec24514a4d5,65af56a74aa07d90bbee3cf8,2024-01-23_09h05.07.804,bars,2023.2.3,Win32,59.88023952,657b66ea316d21385b68909f,,,,,,,,,,,1288.9452,1289.938,,,1290.4385,1290.6885,,108,-72,,,,,,,,,,,,,,,,bars/025.png,bars/mask008.png,,,,,,,,,,,,1,1,,,,,,,0,6,1,5,,,,,,,,,,,1289.938,1290.4382,1290.6887,1295.9549,space,5.2383,,1295.9551,3,68,1296.9581,1296.9581,1296.964,,,,0,32,32,32,1,105,40,,,,,,,,
,,60c1c8ade4bb1ec24514a4d5,65af56a74aa07d90bbee3cf8,2024-01-23_09h05.07.804,bars,2023.2.3,Win32,59.88023952,657b66ea316d21385b68909f,,,,,,,,,,,1296.9643,1297.9621,,,1298.4547,1298.7048,,155,-25,,,,,,,,,,,,,,,,bars/037.png,bars/mask000.png,,,,,,,,,,,,0,1,,,,,,,0,8,0,8,,,,,,,,,,,1297.9621,1298.4547,1298.705,1302.3884,space,3.6534,,1302.3886,5,50,1303.3882,1303.3884,1303.3948,,,,0,33,33,33,1,150,105,,,,,,,,
,,60c1c8ade4bb1ec24514a4d5,65af56a74aa07d90bbee3cf8,2024-01-23_09h05.07.804,bars,2023.2.3,Win32,59.88023952,657b66ea316d21385b68909f,,,,,,,,,,,1303.395,1304.3881,,,1304.8883,1305.1383,,128,128,,,,,,,,,,,,,,,,bars/040.png,bars/mask006.png,,,,,,,,,,,,0,1,,,,,,,0,6,0,6,,,,,,,,,,,1304.3883,1304.8882,1305.1384,1307.179,space,2.017,,1307.179,12,57,1308.1716,1308.1718,1308.1739,,,,0,34,34,34,1,140,5,,,,,,,,
,,60c1c8ade4bb1ec24514a4d5,65af56a74aa07d90bbee3cf8,2024-01-23_09h05.07.804,bars,2023.2.3,Win32,59.88023952,657b66ea316d21385b68909f,,,,,,,,,,,1308.1742,1309.1716,,,1309.6624,1309.9051,,41,41,,,,,,,,,,,,,,,,bars/025.png,bars/mask007.png,,,,,,,,,,,,7,2,,,,,,,0,8,0,7,,,,,,,,,,,1309.1718,1309.6623,1309.9051,1311.9382,space,2.0005,,1311.9385,64,1,1312.9385,1312.9385,1312.9459,,,,0,35,35,35,1,105,40,,,,,,,,
,,60c1c8ade4bb1ec24514a4d5,65af56a74aa07d90bbee3cf8,2024-01-23_09h05.07.804,bars,2023.2.3,Win32,59.88023952,657b66ea316d21385b68909f,,,,,,,,,,,1312.946,1313.9416,,,1314.4454,1314.6914,,57,57,,,,,,,,,,,,,,,,bars/029.png,bars/mask000.png,,,,,,,,,,,,4,2,,,,,,,2,6,2,6,,,,,,,,,,,1313.9416,1314.4454,1314.6914,1316.5716,space,1.8541,,1316.5718,33,12,1317.5716,1317.5718,1317.5785,,,,0,36,36,36,1,90,45,,,,,,,,
,,60c1c8ade4bb1ec24514a4d5,65af56a74aa07d90bbee3cf8,2024-01-23_09h05.07.804,bars,2023.2.3,Win32,59.88023952,657b66ea316d21385b68909f,,,,,,,,,,,1317.5786,1318.5714,,,1319.0788,1319.3289,,51,51,,,,,,,,,,,,,,,,bars/029.png,bars/mask007.png,,,,,,,,,,,,6,2,,,,,,,0,8,1,7,,,,,,,,,,,1318.5715,1319.0788,1319.3289,1320.9919,space,1.6466,,1320.9919,39,6,1321.988,1321.9881,1321.9892,,,,0,37,37,37,1,90,45,,,,,,,,
,,60c1c8ade4bb1ec24514a4d5,65af56a74aa07d90bbee3cf8,2024-01-23_09h05.07.804,bars,2023.2.3,Win32,59.88023952,657b66ea316d21385b68909f,,,,,,,,,,,1321.99,1322.9785,,,1323.4788,1323.7287,,126,126,,,,,,,,,,,,,,,,bars/005.png,bars/mask001.png,,,,,,,,,,,,5,2,,,,,,,2,10,5,9,,,,,,,,,,,1322.9785,1323.4788,1323.7287,1326.622,space,2.8729,,1326.6223,64,14,1327.6246,1327.6247,1327.6301,,,,0,38,38,38,1,10,140,,,,,,,,
,,60c1c8ade4bb1ec24514a4d5,65af56a74aa07d90bbee3cf8,2024-01-23_09h05.07.804,bars,2023.2.3,Win32,59.88023952,657b66ea316d21385b68909f,,,,,,,,,,,1327.6302,1328.6286,,,1329.1216,1329.3715,,3,183,,,,,,,,,,,,,,,,bars/016.png,bars/mask001.png,,,,,,,,,,,,4,2,,,,,,,0,10,0,10,,,,,,,,,,,1328.6286,1329.1215,1329.3716,1333.9049,space,4.5062,,1333.9051,37,18,1334.9049,1334.905,1334.9114,,,,0,39,39,39,1,40,165,,,,,,,,
,,60c1c8ade4bb1ec24514a4d5,65af56a74aa07d90bbee3cf8,2024-01-23_09h05.07.804,bars,2023.2.3,Win32,59.88023952,657b66ea316d21385b68909f,,,,,,,,,,,1334.9115,1335.9053,,,1336.3954,1336.6454,,59,59,,,,,,,,,,,,,,,,bars/025.png,bars/mask003.png,,,,,,,,,,,,4,2,,,,,,,2,10,3,10,,,,,,,,,,,1335.9054,1336.3954,1336.6454,1338.8887,space,2.2243,,1338.8887,46,19,1339.8917,1339.8917,1339.8971,,,,0,40,40,40,1,105,40,,,,,,,,
,,60c1c8ade4bb1ec24514a4d5,65af56a74aa07d90bbee3cf8,2024-01-23_09h05.07.804,bars,2023.2.3,Win32,59.88023952,657b66ea316d21385b68909f,,,,,,,,,,,1339.8972,1340.8883,,,1341.3883,1341.6416,,50,50,,,,,,,,,,,,,,,,bars/007.png,bars/mask000.png,,,,,,,,,,,,8,2,,,,,,,4,10,6,10,,,,,,,,,,,1340.8883,1341.3883,1341.6416,1345.0887,space,3.4238,,1345.0888,55,5,1346.0882,1346.0883,1346.095,,,,0,41,41,41,1,175,55,,,,,,,,
,,60c1c8ade4bb1ec24514a4d5,65af56a74aa07d90bbee3cf8,2024-01-23_09h05.07.804,bars,2023.2.3,Win32,59.88023952,657b66ea316d21385b68909f,,,,,,,,,,,1346.0951,1347.0952,,,1347.5914,1347.8455,,145,145,,,,,,,,,,,,,,,,bars/040.png,bars/mask006.png,,,,,,,,,,,,2,1,,,,,,,2,10,2,10,,,,,,,,,,,1347.0953,1347.5914,1347.8455,1350.6128,space,2.7505,,1350.6128,5,40,1351.6048,1351.6049,1351.6121,,,,0,42,42,42,1,140,5,,,,,,,,
,,60c1c8ade4bb1ec24514a4d5,65af56a74aa07d90bbee3cf8,2024-01-23_09h05.07.804,bars,2023.2.3,Win32,59.88023952,657b66ea316d21385b68909f,,,,,,,,,,,1351.6122,1352.6121,,,1353.1049,1353.3455,,90,90,,,,,,,,,,,,,,,,bars/011.png,bars/mask004.png,,,,,,,,,,,,8,2,,,,,,,4,10,4,9,,,,,,,,,,,1352.6122,1353.1048,1353.3455,1356.4718,space,3.108,,1356.4718,70,5,1357.4621,1357.4621,1357.4681,,,,0,43,43,43,1,160,85,,,,,,,,
,,60c1c8ade4bb1ec24514a4d5,65af56a74aa07d90bbee3cf8,2024-01-23_09h05.07.804,bars,2023.2.3,Win32,59.88023952,657b66ea316d21385b68909f,,,,,,,,,,,1357.4681,1358.4621,,,1358.9625,1359.2052,,116,116,,,,,,,,,,,,,,,,bars/037.png,bars/mask003.png,,,,,,,,,,,,5,2,,,,,,,6,8,7,8,,,,,,,,,,,1358.4621,1358.9625,1359.2053,1362.0457,space,2.8168,,1362.0457,34,11,1363.0454,1363.0455,1363.051,,,,0,44,44,44,1,150,105,,,,,,,,
,,60c1c8ade4bb1ec24514a4d5,65af56a74aa07d90bbee3cf8,2024-01-23_09h05.07.804,bars,2023.2.3,Win32,59.88023952,657b66ea316d21385b68909f,,,,,,,,,,,1363.0511,1364.0454,,,1364.5448,1364.7887,,32,32,,,,,,,,,,,,,,,,bars/031.png,bars/mask005.png,,,,,,,,,,,,9,2,,,,,,,4,10,2,10,,,,,,,,,,,1364.0455,1364.5447,1364.789,1367.8889,space,3.0674,,1367.8892,88,3,1368.8884,1368.8885,1368.8951,,,,0,45,45,45,1,120,35,,,,,,,,
,,60c1c8ade4bb1ec24514a4d5,65af56a74aa07d90bbee3cf8,2024-01-23_09h05.07.804,bars,2023.2.3,Win32,59.88023952,657b66ea316d21385b68909f,,,,,,,,,,,1368.8953,1369.8952,,,1370.3887,1370.6387,,0,0,,,,,,,,,,,,,,,,bars/013.png,bars/mask009.png,,,,,,,,,,,,4,2,,,,,,,2,8,2,6,,,,,,,,,,,1369.8953,1370.3886,1370.6388,1373.0448,space,2.3825,,1373.0448,75,10,1374.0386,1374.0388,1374.0452,,,,0,46,46,46,1,75,10,,,,,,,,
,,60c1c8ade4bb1ec24514a4d5,65af56a74aa07d90bbee3cf8,2024-01-23_09h05.07.804,bars,2023.2.3,Win32,59.88023952,657b66ea316d21385b68909f,,,,,,,,,,,1374.0453,1375.0384,,,1375.5386,1375.7955,,112,112,,,,,,,,,,,,,,,,bars/028.png,bars/mask009.png,,,,,,,,,,,,5,2,,,,,,,4,6,4,7,,,,,,,,,,,1375.0385,1375.5384,1375.7955,1379.5444,space,3.7322,,1379.5444,67,8,1380.5456,1380.5456,1380.5508,,,,0,47,47,47,1,45,120,,,,,,,,
,,60c1c8ade4bb1ec24514a4d5,65af56a74aa07d90bbee3cf8,2024-01-23_09h05.07.804,bars,2023.2.3,Win32,59.88023952,657b66ea316d21385b68909f,,,,,,,,,,,1380.5509,1381.5548,,,1382.0552,1382.3122,,179,-1,,,,,,,,,,,,,,,,bars/013.png,bars/mask000.png,,,,,,,,,,,,4,2,,,,,,,2,8,2,7,,,,,,,,,,,1381.555,1382.0551,1382.3122,1386.246,space,3.928,,1386.246,76,11,1387.2444,1387.2445,1387.25,,,,0,48,48,48,1,75,10,,,,,,,,
,,60c1c8ade4bb1ec24514a4d5,65af56a74aa07d90bbee3cf8,2024-01-23_09h05.07.804,bars,2023.2.3,Win32,59.88023952,657b66ea316d21385b68909f,,,,,,,,,,,1387.25,1388.2384,,,1388.7291,1388.9748,,105,105,,,,,,,,,,,,,,,,bars/023.png,bars/mask005.png,,,,,,,,,,,,7,2,,,,,,,0,10,0,10,,,,,,,,,,,1388.2387,1388.7291,1388.9748,1391.4388,space,2.4342,,1391.4389,85,10,1392.4454,1392.4454,1392.4509,,,,0,49,49,49,1,20,115,,,,,,,,
,,60c1c8ade4bb1ec24514a4d5,65af56a74aa07d90bbee3cf8,2024-01-23_09h05.07.804,bars,2023.2.3,Win32,59.88023952,657b66ea316d21385b68909f,,,,,,,,,,,,,,,,,,,,,,,,,,,,,,,,,,,,,,,,,,,,,,,,,,,,,,,,,,,,,,,,,,,,,,,,,,,,,,,,,,,,,,,,,,,,,1392.451,1452.4421,0,2,2,2,1,sequence_tables/blk026.csv
,,60c1c8ade4bb1ec24514a4d5,65af56a74aa07d90bbee3cf8,2024-01-23_09h05.07.804,bars,2023.2.3,Win32,59.88023952,657b66ea316d21385b68909f,,,,,,,,,,,1535.1326,1536.1293,,,1536.6255,1536.8722,,174,174,,,,,,,,,,,,,,,,bars/048.png,bars/mask003.png,,,,,,,,,,,,8,2,,,,,,,8,7,10,8,,,,,,1452.4478,1535.123,space,82.6556,,1536.1294,1536.6255,1536.8723,1540.2631,space,3.3671,,1540.2631,56,1,1541.2555,1541.2556,1541.2628,,,,0,0,0,0,1,50,175,,,,,,,,
,,60c1c8ade4bb1ec24514a4d5,65af56a74aa07d90bbee3cf8,2024-01-23_09h05.07.804,bars,2023.2.3,Win32,59.88023952,657b66ea316d21385b68909f,,,,,,,,,,,1541.263,1542.2555,,,1542.7562,1543.0055,,146,146,,,,,,,,,,,,,,,,bars/038.png,bars/mask006.png,,,,,,,,,,,,2,1,,,,,,,6,5,6,4,,,,,,,,,,,1542.2558,1542.7559,1543.0057,1544.4894,space,1.457,,1544.4896,19,76,1545.4889,1545.489,1545.4964,,,,0,1,1,1,1,165,70,,,,,,,,
,,60c1c8ade4bb1ec24514a4d5,65af56a74aa07d90bbee3cf8,2024-01-23_09h05.07.804,bars,2023.2.3,Win32,59.88023952,657b66ea316d21385b68909f,,,,,,,,,,,1545.4966,1546.4886,,,1546.989,1547.2444,,46,226,,,,,,,,,,,,,,,,bars/000.png,bars/mask008.png,,,,,,,,,,,,6,1,,,,,,,8,7,8,9,,,,,,,,,,,1546.4886,1546.9887,1547.2444,1549.7258,space,2.4633,,1549.7258,6,81,1550.732,1550.7321,1550.7386,,,,0,2,2,2,1,40,145,,,,,,,,
,,60c1c8ade4bb1ec24514a4d5,65af56a74aa07d90bbee3cf8,2024-01-23_09h05.07.804,bars,2023.2.3,Win32,59.88023952,657b66ea316d21385b68909f,,,,,,,,,,,1550.739,1551.7391,,,1552.2393,1552.4962,,140,-40,,,,,,,,,,,,,,,,bars/004.png,bars/mask005.png,,,,,,,,,,,,2,2,,,,,,,10,5,9,4,,,,,,,,,,,1551.7392,1552.2392,1552.4962,1555.1954,space,2.6828,,1555.1955,65,15,1556.1888,1556.1888,1556.1963,,,,0,3,3,3,1,25,125,,,,,,,,
,,60c1c8ade4bb1ec24514a4d5,65af56a74aa07d90bbee3cf8,2024-01-23_09h05.07.804,bars,2023.2.3,Win32,59.88023952,657b66ea316d21385b68909f,,,,,,,,,,,1556.1964,1557.1921,,,1557.6923,1557.9423,,103,103,,,,,,,,,,,,,,,,bars/020.png,bars/mask008.png,,,,,,,,,,,,6,1,,,,,,,10,7,10,8,,,,,,,,,,,1557.1921,1557.6923,1557.9423,1558.9448,space,0.9823,,1558.9448,12,67,1559.9388,1559.9391,1559.9421,,,,0,4,4,4,1,115,170,,,,,,,,
,,60c1c8ade4bb1ec24514a4d5,65af56a74aa07d90bbee3cf8,2024-01-23_09h05.07.804,bars,2023.2.3,Win32,59.88023952,657b66ea316d21385b68909f,,,,,,,,,,,1559.9423,1560.9389,,,1561.4393,1561.6778,,50,50,,,,,,,,,,,,,,,,bars/016.png,bars/mask005.png,,,,,,,,,,,,7,1,,,,,,,10,5,10,6,,,,,,,,,,,1560.939,1561.4392,1561.6778,1564.9772,space,3.2812,,1564.9772,10,65,1565.9755,1565.9755,1565.9811,,,,0,5,5,5,1,40,165,,,,,,,,
,,60c1c8ade4bb1ec24514a4d5,65af56a74aa07d90bbee3cf8,2024-01-23_09h05.07.804,bars,2023.2.3,Win32,59.88023952,657b66ea316d21385b68909f,,,,,,,,,,,1565.9811,1566.9726,,,1567.4725,1567.7126,,179,179,,,,,,,,,,,,,,,,bars/003.png,bars/mask002.png,,,,,,,,,,,,1,1,,,,,,,10,7,10,7,,,,,,,,,,,1566.9726,1567.4725,1567.7126,1571.1593,space,3.4413,,1571.1593,26,39,1572.1627,1572.1627,1572.1681,,,,0,6,6,6,1,25,140,,,,,,,,
,,60c1c8ade4bb1ec24514a4d5,65af56a74aa07d90bbee3cf8,2024-01-23_09h05.07.804,bars,2023.2.3,Win32,59.88023952,657b66ea316d21385b68909f,,,,,,,,,,,1572.1682,1573.1726,,,1573.6725,1573.9129,,112,112,,,,,,,,,,,,,,,,bars/011.png,bars/mask005.png,,,,,,,,,,,,1,2,,,,,,,10,5,9,7,,,,,,,,,,,1573.1727,1573.6723,1573.9129,1577.6237,space,3.6933,,1577.6239,48,27,1578.6126,1578.6126,1578.6186,,,,0,7,7,7,1,160,85,,,,,,,,
,,60c1c8ade4bb1ec24514a4d5,65af56a74aa07d90bbee3cf8,2024-01-23_09h05.07.804,bars,2023.2.3,Win32,59.88023952,657b66ea316d21385b68909f,,,,,,,,,,,1578.6187,1579.6112,,,1580.1129,1580.3627,,118,-62,,,,,,,,,,,,,,,,bars/023.png,bars/mask009.png,,,,,,,,,,,,3,2,,,,,,,8,3,9,3,,,,,,,,,,,1579.6113,1580.1128,1580.3627,1585.0133,space,4.6337,,1585.0133,82,3,1586.0128,1586.0128,1586.0183,,,,0,8,8,8,1,20,115,,,,,,,,
,,60c1c8ade4bb1ec24514a4d5,65af56a74aa07d90bbee3cf8,2024-01-23_09h05.07.804,bars,2023.2.3,Win32,59.88023952,657b66ea316d21385b68909f,,,,,,,,,,,1586.0184,1587.0225,,,1587.5226,1587.7795,,72,72,,,,,,,,,,,,,,,,bars/022.png,bars/mask000.png,,,,,,,,,,,,2,1,,,,,,,6,1,7,0,,,,,,,,,,,1587.0225,1587.5224,1587.7795,1591.9392,space,4.1392,,1591.9394,23,52,1592.9389,1592.939,1592.9461,,,,0,9,9,9,1,95,20,,,,,,,,
,,60c1c8ade4bb1ec24514a4d5,65af56a74aa07d90bbee3cf8,2024-01-23_09h05.07.804,bars,2023.2.3,Win32,59.88023952,657b66ea316d21385b68909f,,,,,,,,,,,1592.9463,1593.9393,,,1594.4393,1594.6964,,36,36,,,,,,,,,,,,,,,,bars/006.png,bars/mask002.png,,,,,,,,,,,,5,1,,,,,,,4,3,5,4,,,,,,,,,,,1593.9393,1594.4391,1594.6964,1595.8727,space,1.1571,,1595.8728,1,64,1596.863,1596.863,1596.8634,,,,0,10,10,10,1,35,100,,,,,,,,
,,60c1c8ade4bb1ec24514a4d5,65af56a74aa07d90bbee3cf8,2024-01-23_09h05.07.804,bars,2023.2.3,Win32,59.88023952,657b66ea316d21385b68909f,,,,,,,,,,,1596.8636,1597.856,,,1598.3558,1598.5966,,114,114,,,,,,,,,,,,,,,,bars/031.png,bars/mask001.png,,,,,,,,,,,,4,1,,,,,,,6,1,5,0,,,,,,,,,,,1597.8561,1598.3556,1598.5966,1600.7561,space,2.1343,,1600.7561,6,79,1601.7558,1601.756,1601.7633,,,,0,11,11,11,1,120,35,,,,,,,,
,,60c1c8ade4bb1ec24514a4d5,65af56a74aa07d90bbee3cf8,2024-01-23_09h05.07.804,bars,2023.2.3,Win32,59.88023952,657b66ea316d21385b68909f,,,,,,,,,,,1601.7635,1602.7555,,,1603.2557,1603.5129,,60,60,,,,,,,,,,,,,,,,bars/006.png,bars/mask000.png,,,,,,,,,,,,1,1,,,,,,,8,0,9,1,,,,,,,,,,,1602.7556,1603.2557,1603.5129,1605.2227,space,1.6841,,1605.2229,25,40,1606.2224,1606.2226,1606.2295,,,,0,12,12,12,1,35,100,,,,,,,,
,,60c1c8ade4bb1ec24514a4d5,65af56a74aa07d90bbee3cf8,2024-01-23_09h05.07.804,bars,2023.2.3,Win32,59.88023952,657b66ea316d21385b68909f,,,,,,,,,,,1606.2296,1607.2227,,,1607.7226,1607.9724,,119,119,,,,,,,,,,,,,,,,bars/002.png,bars/mask002.png,,,,,,,,,,,,5,1,,,,,,,10,0,8,0,,,,,,,,,,,1607.2228,1607.7225,1607.9725,1612.3969,space,4.4023,,1612.3969,11,34,1613.3892,1613.3892,1613.3959,,,,0,13,13,13,1,130,85,,,,,,,,
,,60c1c8ade4bb1ec24514a4d5,65af56a74aa07d90bbee3cf8,2024-01-23_09h05.07.804,bars,2023.2.3,Win32,59.88023952,657b66ea316d21385b68909f,,,,,,,,,,,1613.3961,1614.3964,,,1614.8962,1615.1426,,43,43,,,,,,,,,,,,,,,,bars/006.png,bars/mask000.png,,,,,,,,,,,,7,1,,,,,,,8,0,9,0,,,,,,,,,,,1614.3964,1614.8962,1615.1426,1616.0064,space,0.8393,,1616.0065,8,57,1617.0058,1617.006,1617.008,,,,0,14,14,14,1,35,100,,,,,,,,
,,60c1c8ade4bb1ec24514a4d5,65af56a74aa07d90bbee3cf8,2024-01-23_09h05.07.804,bars,2023.2.3,Win32,59.88023952,657b66ea316d21385b68909f,,,,,,,,,,,1617.0085,1618.009,,,1618.506,1618.7467,,132,132,,,,,,,,,,,,,,,,bars/032.png,bars/mask006.png,,,,,,,,,,,,4,1,,,,,,,6,0,5,1,,,,,,,,,,,1618.009,1618.5059,1618.7467,1622.9135,space,4.1507,,1622.9135,7,68,1623.9061,1623.9063,1623.9136,,,,0,15,15,15,1,125,20,,,,,,,,
,,60c1c8ade4bb1ec24514a4d5,65af56a74aa07d90bbee3cf8,2024-01-23_09h05.07.804,bars,2023.2.3,Win32,59.88023952,657b66ea316d21385b68909f,,,,,,,,,,,1623.9137,1624.9059,,,1625.4061,1625.6462,,53,53,,,,,,,,,,,,,,,,bars/026.png,bars/mask005.png,,,,,,,,,,,,1,1,,,,,,,4,2,3,2,,,,,,,,,,,1624.9061,1625.4059,1625.6463,1628.1802,space,2.5174,,1628.1802,18,32,1629.1726,1629.1728,1629.1796,,,,0,16,16,16,1,35,85,,,,,,,,
,,60c1c8ade4bb1ec24514a4d5,65af56a74aa07d90bbee3cf8,2024-01-23_09h05.07.804,bars,2023.2.3,Win32,59.88023952,657b66ea316d21385b68909f,,,,,,,,,,,1629.1797,1630.1726,,,1630.6625,1630.9059,,104,104,,,,,,,,,,,,,,,,bars/037.png,bars/mask005.png,,,,,,,,,,,,1,2,,,,,,,2,0,4,1,,,,,,,,,,,1630.1727,1630.6624,1630.906,1633.28,space,2.3503,,1633.28,46,1,1634.2728,1634.2729,1634.28,,,,0,17,17,17,1,150,105,,,,,,,,
,,60c1c8ade4bb1ec24514a4d5,65af56a74aa07d90bbee3cf8,2024-01-23_09h05.07.804,bars,2023.2.3,Win32,59.88023952,657b66ea316d21385b68909f,,,,,,,,,,,1634.2801,1635.2726,,,1635.7724,1636.0132,,136,-44,,,,,,,,,,,,,,,,bars/004.png,bars/mask004.png,,,,,,,,,,,,1,2,,,,,,,0,0,1,1,,,,,,,,,,,1635.2727,1635.7724,1636.0132,1638.9063,space,2.872,,1638.9064,69,11,1639.9059,1639.9062,1639.9127,,,,0,18,18,18,1,25,125,,,,,,,,
,,60c1c8ade4bb1ec24514a4d5,65af56a74aa07d90bbee3cf8,2024-01-23_09h05.07.804,bars,2023.2.3,Win32,59.88023952,657b66ea316d21385b68909f,,,,,,,,,,,1639.9128,1640.9057,,,1641.4059,1641.6559,,134,134,,,,,,,,,,,,,,,,bars/017.png,bars/mask008.png,,,,,,,,,,,,2,1,,,,,,,2,0,3,0,,,,,,,,,,,1640.9058,1641.4058,1641.656,1645.3134,space,3.6335,,1645.3134,11,89,1646.3128,1646.3129,1646.3188,,,,0,19,19,19,1,145,45,,,,,,,,
,,60c1c8ade4bb1ec24514a4d5,65af56a74aa07d90bbee3cf8,2024-01-23_09h05.07.804,bars,2023.2.3,Win32,59.88023952,657b66ea316d21385b68909f,,,,,,,,,,,1646.319,1647.3229,,,1647.8226,1648.0726,,41,221,,,,,,,,,,,,,,,,bars/000.png,bars/mask003.png,,,,,,,,,,,,2,1,,,,,,,4,2,2,1,,,,,,,,,,,1647.323,1647.8225,1648.0726,1652.29,space,4.1842,,1652.2902,1,76,1653.289,1653.2891,1653.2957,,,,0,20,20,20,1,40,145,,,,,,,,
,,60c1c8ade4bb1ec24514a4d5,65af56a74aa07d90bbee3cf8,2024-01-23_09h05.07.804,bars,2023.2.3,Win32,59.88023952,657b66ea316d21385b68909f,,,,,,,,,,,1653.2958,1654.2891,,,1654.7965,1655.0392,,153,153,,,,,,,,,,,,,,,,bars/049.png,bars/mask004.png,,,,,,,,,,,,3,1,,,,,,,2,4,4,4,,,,,,,,,,,1654.2892,1654.7965,1655.0395,1656.5762,space,1.5134,,1656.5763,7,38,1657.5725,1657.5725,1657.5746,,,,0,21,21,21,1,160,115,,,,,,,,
,,60c1c8ade4bb1ec24514a4d5,65af56a74aa07d90bbee3cf8,2024-01-23_09h05.07.804,bars,2023.2.3,Win32,59.88023952,657b66ea316d21385b68909f,,,,,,,,,,,1657.5752,1658.5632,,,1659.0559,1659.3094,,115,115,,,,,,,,,,,,,,,,bars/008.png,bars/mask008.png,,,,,,,,,,,,0,1,,,,,,,0,2,0,2,,,,,,,,,,,1658.5632,1659.0559,1659.3094,1661.6135,space,2.2839,,1661.6135,5,65,1662.6129,1662.613,1662.6186,,,,0,22,22,22,1,110,0,,,,,,,,
,,60c1c8ade4bb1ec24514a4d5,65af56a74aa07d90bbee3cf8,2024-01-23_09h05.07.804,bars,2023.2.3,Win32,59.88023952,657b66ea316d21385b68909f,,,,,,,,,,,1662.6187,1663.6227,,,1664.1297,1664.3726,,108,108,,,,,,,,,,,,,,,,bars/045.png,bars/mask009.png,,,,,,,,,,,,2,1,,,,,,,2,0,3,0,,,,,,,,,,,1663.6227,1664.1297,1664.3727,1666.6802,space,2.2836,,1666.6802,8,82,1667.6726,1667.6728,1667.6794,,,,0,23,23,23,1,100,10,,,,,,,,
,,60c1c8ade4bb1ec24514a4d5,65af56a74aa07d90bbee3cf8,2024-01-23_09h05.07.804,bars,2023.2.3,Win32,59.88023952,657b66ea316d21385b68909f,,,,,,,,,,,1667.6795,1668.6725,,,1669.1729,1669.4227,,48,228,,,,,,,,,,,,,,,,bars/028.png,bars/mask007.png,,,,,,,,,,,,0,1,,,,,,,0,2,0,3,,,,,,,,,,,1668.6727,1669.1727,1669.4228,1673.8803,space,4.434,,1673.8803,3,72,1674.873,1674.873,1674.8799,,,,0,24,24,24,1,45,120,,,,,,,,
,,60c1c8ade4bb1ec24514a4d5,65af56a74aa07d90bbee3cf8,2024-01-23_09h05.07.804,bars,2023.2.3,Win32,59.88023952,657b66ea316d21385b68909f,,,,,,,,,,,1674.8801,1675.8797,,,1676.38,1676.6226,,129,-51,,,,,,,,,,,,,,,,bars/034.png,bars/mask008.png,,,,,,,,,,,,0,1,,,,,,,0,4,0,4,,,,,,,,,,,1675.8797,1676.38,1676.6227,1681.1303,space,4.4839,,1681.1303,4,64,1682.1227,1682.1228,1682.1295,,,,0,25,25,25,1,125,65,,,,,,,,
,,60c1c8ade4bb1ec24514a4d5,65af56a74aa07d90bbee3cf8,2024-01-23_09h05.07.804,bars,2023.2.3,Win32,59.88023952,657b66ea316d21385b68909f,,,,,,,,,,,1682.1296,1683.1227,,,1683.6227,1683.8728,,56,236,,,,,,,,,,,,,,,,bars/027.png,bars/mask002.png,,,,,,,,,,,,1,2,,,,,,,2,2,4,1,,,,,,,,,,,1683.1228,1683.6227,1683.8728,1687.5471,space,3.6507,,1687.5471,54,6,1688.5392,1688.5393,1688.5468,,,,0,26,26,26,1,110,50,,,,,,,,
,,60c1c8ade4bb1ec24514a4d5,65af56a74aa07d90bbee3cf8,2024-01-23_09h05.07.804,bars,2023.2.3,Win32,59.88023952,657b66ea316d21385b68909f,,,,,,,,,,,1688.5469,1689.5395,,,1690.0396,1690.28,,119,-61,,,,,,,,,,,,,,,,bars/032.png,bars/mask008.png,,,,,,,,,,,,0,1,,,,,,,0,4,0,4,,,,,,,,,,,1689.5396,1690.0394,1690.2801,1694.71,space,4.4133,,1694.71,6,81,1695.7058,1695.7059,1695.7138,,,,0,27,27,27,1,125,20,,,,,,,,
,,60c1c8ade4bb1ec24514a4d5,65af56a74aa07d90bbee3cf8,2024-01-23_09h05.07.804,bars,2023.2.3,Win32,59.88023952,657b66ea316d21385b68909f,,,,,,,,,,,1695.714,1696.7062,,,1697.2062,1697.4592,,58,58,,,,,,,,,,,,,,,,bars/034.png,bars/mask001.png,,,,,,,,,,,,3,2,,,,,,,0,6,0,4,,,,,,,,,,,1696.7063,1697.2062,1697.4592,1699.7136,space,2.2336,,1699.7136,67,7,1700.7092,1700.7092,1700.7102,,,,0,28,28,28,1,125,65,,,,,,,,
,,60c1c8ade4bb1ec24514a4d5,65af56a74aa07d90bbee3cf8,2024-01-23_09h05.07.804,bars,2023.2.3,Win32,59.88023952,657b66ea316d21385b68909f,,,,,,,,,,,1700.7104,1701.7061,,,1702.1968,1702.4395,,16,196,,,,,,,,,,,,,,,,bars/032.png,bars/mask001.png,,,,,,,,,,,,7,2,,,,,,,2,8,2,8,,,,,,,,,,,1701.7063,1702.1968,1702.4397,1704.9471,space,2.4838,,1704.9471,71,4,1705.9394,1705.9394,1705.9466,,,,0,29,29,29,1,125,20,,,,,,,,
,,60c1c8ade4bb1ec24514a4d5,65af56a74aa07d90bbee3cf8,2024-01-23_09h05.07.804,bars,2023.2.3,Win32,59.88023952,657b66ea316d21385b68909f,,,,,,,,,,,1705.9467,1706.9466,,,1707.4395,1707.6893,,87,87,,,,,,,,,,,,,,,,bars/011.png,bars/mask004.png,,,,,,,,,,,,8,2,,,,,,,4,10,5,9,,,,,,,,,,,1706.9466,1707.4395,1707.6894,1710.3073,space,2.5899,,1710.3075,73,2,1711.3085,1711.3086,1711.314,,,,0,30,30,30,1,160,85,,,,,,,,
,,60c1c8ade4bb1ec24514a4d5,65af56a74aa07d90bbee3cf8,2024-01-23_09h05.07.804,bars,2023.2.3,Win32,59.88023952,657b66ea316d21385b68909f,,,,,,,,,,,1711.3141,1712.3064,,,1712.8062,1713.0561,,63,63,,,,,,,,,,,,,,,,bars/038.png,bars/mask000.png,,,,,,,,,,,,8,2,,,,,,,2,10,3,10,,,,,,,,,,,1712.3065,1712.806,1713.0563,1716.4788,space,3.3988,,1716.4788,78,7,1717.4727,1717.473,1717.4807,,,,0,31,31,31,1,165,70,,,,,,,,
,,60c1c8ade4bb1ec24514a4d5,65af56a74aa07d90bbee3cf8,2024-01-23_09h05.07.804,bars,2023.2.3,Win32,59.88023952,657b66ea316d21385b68909f,,,,,,,,,,,1717.4809,1718.4729,,,1718.9633,1719.2061,,153,153,,,,,,,,,,,,,,,,bars/020.png,bars/mask000.png,,,,,,,,,,,,3,2,,,,,,,4,8,4,7,,,,,,,,,,,1718.4729,1718.9633,1719.2062,1720.9636,space,1.7337,,1720.9637,38,17,1721.9562,1721.9565,1721.9586,,,,0,32,32,32,1,115,170,,,,,,,,
,,60c1c8ade4bb1ec24514a4d5,65af56a74aa07d90bbee3cf8,2024-01-23_09h05.07.804,bars,2023.2.3,Win32,59.88023952,657b66ea316d21385b68909f,,,,,,,,,,,1721.9587,1722.9562,,,1723.4562,1723.706,,93,93,,,,,,,,,,,,,,,,bars/019.png,bars/mask005.png,,,,,,,,,,,,4,2,,,,,,,2,6,2,6,,,,,,,,,,,1722.9563,1723.4562,1723.7061,1726.4638,space,2.7338,,1726.4639,48,12,1727.4635,1727.4635,1727.4692,,,,0,33,33,33,1,45,105,,,,,,,,
,,60c1c8ade4bb1ec24514a4d5,65af56a74aa07d90bbee3cf8,2024-01-23_09h05.07.804,bars,2023.2.3,Win32,59.88023952,657b66ea316d21385b68909f,,,,,,,,,,,1727.4692,1728.4632,,,1728.9595,1729.2133,,104,104,,,,,,,,,,,,,,,,bars/037.png,bars/mask005.png,,,,,,,,,,,,1,2,,,,,,,0,4,0,1,,,,,,,,,,,1728.4632,1728.9595,1729.2133,1732.4805,space,3.2617,,1732.4805,46,1,1733.4728,1733.4728,1733.4798,,,,0,34,34,34,1,150,105,,,,,,,,
,,60c1c8ade4bb1ec24514a4d5,65af56a74aa07d90bbee3cf8,2024-01-23_09h05.07.804,bars,2023.2.3,Win32,59.88023952,657b66ea316d21385b68909f,,,,,,,,,,,1733.4799,1734.4728,,,1734.9731,1735.2226,,102,102,,,,,,,,,,,,,,,,bars/028.png,bars/mask004.png,,,,,,,,,,,,1,2,,,,,,,2,2,2,2,,,,,,,,,,,1734.473,1734.973,1735.2228,1737.9898,space,2.7393,,1737.9898,57,18,1738.9949,1738.995,1739.0004,,,,0,35,35,35,1,45,120,,,,,,,,
,,60c1c8ade4bb1ec24514a4d5,65af56a74aa07d90bbee3cf8,2024-01-23_09h05.07.804,bars,2023.2.3,Win32,59.88023952,657b66ea316d21385b68909f,,,,,,,,,,,1739.0004,1739.9895,,,1740.4802,1740.7227,,68,68,,,,,,,,,,,,,,,,bars/046.png,bars/mask002.png,,,,,,,,,,,,0,2,,,,,,,0,0,0,1,,,,,,,,,,,1739.9896,1740.4802,1740.723,1742.9265,space,2.1799,,1742.9265,87,17,1743.9227,1743.9228,1743.9313,,,,0,36,36,36,1,155,85,,,,,,,,
,,60c1c8ade4bb1ec24514a4d5,65af56a74aa07d90bbee3cf8,2024-01-23_09h05.07.804,bars,2023.2.3,Win32,59.88023952,657b66ea316d21385b68909f,,,,,,,,,,,1743.9315,1744.9229,,,1745.423,1745.6729,,59,59,,,,,,,,,,,,,,,,bars/035.png,bars/mask006.png,,,,,,,,,,,,1,2,,,,,,,2,2,2,1,,,,,,,,,,,1744.9231,1745.423,1745.673,1748.4637,space,2.7671,,1748.4637,64,1,1749.4562,1749.4565,1749.4629,,,,0,37,37,37,1,175,60,,,,,,,,
,,60c1c8ade4bb1ec24514a4d5,65af56a74aa07d90bbee3cf8,2024-01-23_09h05.07.804,bars,2023.2.3,Win32,59.88023952,657b66ea316d21385b68909f,,,,,,,,,,,1749.4631,1750.456,,,1750.9564,1751.2119,,46,226,,,,,,,,,,,,,,,,bars/036.png,bars/mask000.png,,,,,,,,,,,,0,2,,,,,,,4,0,3,0,,,,,,,,,,,1750.456,1750.9563,1751.2119,1756.5305,space,5.3005,,1756.5305,81,26,1757.523,1757.5231,1757.5305,,,,0,38,38,38,1,145,20,,,,,,,,
,,60c1c8ade4bb1ec24514a4d5,65af56a74aa07d90bbee3cf8,2024-01-23_09h05.07.804,bars,2023.2.3,Win32,59.88023952,657b66ea316d21385b68909f,,,,,,,,,,,1757.5306,1758.53,,,1759.023,1759.2802,,129,129,,,,,,,,,,,,,,,,bars/031.png,bars/mask008.png,,,,,,,,,,,,2,1,,,,,,,2,2,3,1,,,,,,,,,,,1758.5301,1759.023,1759.2802,1760.2637,space,0.967,,1760.2637,9,86,1761.2593,1761.2593,1761.2653,,,,0,39,39,39,1,120,35,,,,,,,,
,,60c1c8ade4bb1ec24514a4d5,65af56a74aa07d90bbee3cf8,2024-01-23_09h05.07.804,bars,2023.2.3,Win32,59.88023952,657b66ea316d21385b68909f,,,,,,,,,,,1761.2655,1762.2564,,,1762.7633,1763.0061,,44,224,,,,,,,,,,,,,,,,bars/006.png,bars/mask007.png,,,,,,,,,,,,0,1,,,,,,,0,0,0,0,,,,,,,,,,,1762.2565,1762.7633,1763.0061,1768.7637,space,5.7336,,1768.7637,9,56,1769.7565,1769.7567,1769.7638,,,,0,40,40,40,1,35,100,,,,,,,,
,,60c1c8ade4bb1ec24514a4d5,65af56a74aa07d90bbee3cf8,2024-01-23_09h05.07.804,bars,2023.2.3,Win32,59.88023952,657b66ea316d21385b68909f,,,,,,,,,,,1769.764,1770.7562,,,1771.2561,1771.5065,,123,123,,,,,,,,,,,,,,,,bars/008.png,bars/mask000.png,,,,,,,,,,,,1,1,,,,,,,2,0,2,0,,,,,,,,,,,1770.7563,1771.2561,1771.5065,1772.3905,space,0.8515,,1772.3906,13,57,1773.3894,1773.3895,1773.3966,,,,0,41,41,41,1,110,0,,,,,,,,
,,60c1c8ade4bb1ec24514a4d5,65af56a74aa07d90bbee3cf8,2024-01-23_09h05.07.804,bars,2023.2.3,Win32,59.88023952,657b66ea316d21385b68909f,,,,,,,,,,,1773.3967,1774.3898,,,1774.8895,1775.1395,,131,131,,,,,,,,,,,,,,,,bars/005.png,bars/mask003.png,,,,,,,,,,,,0,2,,,,,,,0,2,1,0,,,,,,,,,,,1774.39,1774.8895,1775.1398,1776.6304,space,1.4671,,1776.6304,59,9,1777.6231,1777.6232,1777.6307,,,,0,42,42,42,1,10,140,,,,,,,,
,,60c1c8ade4bb1ec24514a4d5,65af56a74aa07d90bbee3cf8,2024-01-23_09h05.07.804,bars,2023.2.3,Win32,59.88023952,657b66ea316d21385b68909f,,,,,,,,,,,1777.6309,1778.6228,,,1779.1135,1779.3632,,163,-17,,,,,,,,,,,,,,,,bars/018.png,bars/mask008.png,,,,,,,,,,,,0,1,,,,,,,0,0,0,0,,,,,,,,,,,1778.623,1779.1135,1779.3632,1781.6638,space,2.2836,,1781.6638,13,73,1782.6564,1782.6565,1782.6636,,,,0,43,43,43,1,150,90,,,,,,,,
,,60c1c8ade4bb1ec24514a4d5,65af56a74aa07d90bbee3cf8,2024-01-23_09h05.07.804,bars,2023.2.3,Win32,59.88023952,657b66ea316d21385b68909f,,,,,,,,,,,1782.6637,1783.6561,,,1784.1597,1784.4125,,34,214,,,,,,,,,,,,,,,,bars/026.png,bars/mask006.png,,,,,,,,,,,,0,1,,,,,,,2,0,0,1,,,,,,,,,,,1783.6562,1784.1596,1784.4126,1788.9234,space,4.4845,,1788.9236,1,51,1789.923,1789.9231,1789.9298,,,,0,44,44,44,1,35,85,,,,,,,,
,,60c1c8ade4bb1ec24514a4d5,65af56a74aa07d90bbee3cf8,2024-01-23_09h05.07.804,bars,2023.2.3,Win32,59.88023952,657b66ea316d21385b68909f,,,,,,,,,,,1789.9299,1790.9301,,,1791.4235,1791.6761,,93,93,,,,,,,,,,,,,,,,bars/025.png,bars/mask003.png,,,,,,,,,,,,1,1,,,,,,,0,2,1,2,,,,,,,,,,,1790.9301,1791.4234,1791.6762,1793.3097,space,1.6132,,1793.3098,12,53,1794.3064,1794.3066,1794.3085,,,,0,45,45,45,1,105,40,,,,,,,,
,,60c1c8ade4bb1ec24514a4d5,65af56a74aa07d90bbee3cf8,2024-01-23_09h05.07.804,bars,2023.2.3,Win32,59.88023952,657b66ea316d21385b68909f,,,,,,,,,,,1794.309,1795.3064,,,1795.8065,1796.0469,,87,87,,,,,,,,,,,,,,,,bars/022.png,bars/mask003.png,,,,,,,,,,,,1,1,,,,,,,0,4,1,5,,,,,,,,,,,1795.3064,1795.8063,1796.047,1799.7472,space,3.6837,,1799.7472,8,67,1800.7398,1800.7399,1800.7467,,,,0,46,46,46,1,95,20,,,,,,,,
,,60c1c8ade4bb1ec24514a4d5,65af56a74aa07d90bbee3cf8,2024-01-23_09h05.07.804,bars,2023.2.3,Win32,59.88023952,657b66ea316d21385b68909f,,,,,,,,,,,1800.7469,1801.7398,,,1802.247,1802.49,,146,-34,,,,,,,,,,,,,,,,bars/017.png,bars/mask001.png,,,,,,,,,,,,0,1,,,,,,,0,2,0,2,,,,,,,,,,,1801.7399,1802.247,1802.4901,1807.4398,space,4.9242,,1807.4398,1,79,1808.4399,1808.44,1808.4465,,,,0,47,47,47,1,145,45,,,,,,,,
,,60c1c8ade4bb1ec24514a4d5,65af56a74aa07d90bbee3cf8,2024-01-23_09h05.07.804,bars,2023.2.3,Win32,59.88023952,657b66ea316d21385b68909f,,,,,,,,,,,1808.4465,1809.4403,,,1809.9304,1810.1732,,147,-33,,,,,,,,,,,,,,,,bars/044.png,bars/mask009.png,,,,,,,,,,,,0,2,,,,,,,0,0,1,0,,,,,,,,,,,1809.4404,1809.9304,1810.1733,1812.6901,space,2.4889,,1812.6901,72,8,1813.6898,1813.6899,1813.6975,,,,0,48,48,48,1,75,155,,,,,,,,
,,60c1c8ade4bb1ec24514a4d5,65af56a74aa07d90bbee3cf8,2024-01-23_09h05.07.804,bars,2023.2.3,Win32,59.88023952,657b66ea316d21385b68909f,,,,,,,,,,,1813.6975,1814.6896,,,1815.193,1815.44,,178,-2,,,,,,,,,,,,,,,,bars/032.png,bars/mask001.png,,,,,,,,,,,,0,2,,,,,,,2,2,4,1,,,,,,,,,,,1814.6897,1815.193,1815.44,1818.49,space,3.0226,,1818.4901,53,22,1819.4968,1819.4968,1819.5024,,,,0,49,49,49,1,125,20,,,,,,,,
,,60c1c8ade4bb1ec24514a4d5,65af56a74aa07d90bbee3cf8,2024-01-23_09h05.07.804,bars,2023.2.3,Win32,59.88023952,657b66ea316d21385b68909f,,,,,,,,,,,,,,,,,,,,,,,,,,,,,,,,,,,,,,,,,,,,,,,,,,,,,,,,,,,,,,,,,,,,,,,,,,,,,,,,,,,,,,,,,,,,,1819.5026,1879.5069,0,3,3,0,1,sequence_tables/blk044.csv
,,60c1c8ade4bb1ec24514a4d5,65af56a74aa07d90bbee3cf8,2024-01-23_09h05.07.804,bars,2023.2.3,Win32,59.88023952,657b66ea316d21385b68909f,,,,,,,,,,,1981.3224,1982.3268,,,1982.8236,1983.0737,,37,37,,,,,,,,,,,,,,,,bars/007.png,bars/mask006.png,,,,,,,,,,,,1,2,,,,,,,0,3,0,3,,,,,,1879.5141,1981.3144,space,101.7837,,1982.3268,1982.8235,1983.0738,1985.4311,space,2.3339,,1985.4311,42,18,1986.4306,1986.4306,1986.4361,,,,0,0,0,0,1,175,55,,,,,,,,
,,60c1c8ade4bb1ec24514a4d5,65af56a74aa07d90bbee3cf8,2024-01-23_09h05.07.804,bars,2023.2.3,Win32,59.88023952,657b66ea316d21385b68909f,,,,,,,,,,,1986.4361,1987.4403,,,1987.9308,1988.1737,,122,122,,,,,,,,,,,,,,,,bars/028.png,bars/mask004.png,,,,,,,,,,,,6,2,,,,,,,2,5,0,6,,,,,,,,,,,1987.4404,1987.9308,1988.1739,1992.0645,space,3.8671,,1992.0646,77,2,1993.06,1993.06,1993.0654,,,,0,1,1,1,1,45,120,,,,,,,,
,,60c1c8ade4bb1ec24514a4d5,65af56a74aa07d90bbee3cf8,2024-01-23_09h05.07.804,bars,2023.2.3,Win32,59.88023952,657b66ea316d21385b68909f,,,,,,,,,,,1993.0655,1994.0567,,,1994.5573,1994.8141,,162,162,,,,,,,,,,,,,,,,bars/024.png,bars/mask003.png,,,,,,,,,,,,4,2,,,,,,,0,7,0,6,,,,,,,,,,,1994.0568,1994.5572,1994.8141,1996.8481,space,2.0176,,1996.8481,42,8,1997.8404,1997.8404,1997.8471,,,,0,2,2,2,1,120,170,,,,,,,,
,,60c1c8ade4bb1ec24514a4d5,65af56a74aa07d90bbee3cf8,2024-01-23_09h05.07.804,bars,2023.2.3,Win32,59.88023952,657b66ea316d21385b68909f,,,,,,,,,,,1997.8472,1998.8412,,,1999.3308,1999.5798,,72,72,,,,,,,,,,,,,,,,bars/026.png,bars/mask005.png,,,,,,,,,,,,3,2,,,,,,,2,5,2,5,,,,,,,,,,,1998.8413,1999.3307,1999.5798,2001.9315,space,2.334,,2001.9315,37,13,2002.9234,2002.9235,2002.932,,,,0,3,3,3,1,35,85,,,,,,,,
,,60c1c8ade4bb1ec24514a4d5,65af56a74aa07d90bbee3cf8,2024-01-23_09h05.07.804,bars,2023.2.3,Win32,59.88023952,657b66ea316d21385b68909f,,,,,,,,,,,2002.9321,2003.9236,,,2004.4241,2004.6739,,136,136,,,,,,,,,,,,,,,,bars/005.png,bars/mask006.png,,,,,,,,,,,,6,2,,,,,,,0,7,0,7,,,,,,,,,,,2003.9236,2004.4241,2004.674,2007.2646,space,2.5673,,2007.2646,54,4,2008.2569,2008.2572,2008.2641,,,,0,4,4,4,1,10,140,,,,,,,,
,,60c1c8ade4bb1ec24514a4d5,65af56a74aa07d90bbee3cf8,2024-01-23_09h05.07.804,bars,2023.2.3,Win32,59.88023952,657b66ea316d21385b68909f,,,,,,,,,,,2008.2642,2009.2641,,,2009.764,2010.0133,,47,47,,,,,,,,,,,,,,,,bars/029.png,bars/mask007.png,,,,,,,,,,,,5,2,,,,,,,2,5,3,5,,,,,,,,,,,2009.2642,2009.7639,2010.0133,2012.148,space,2.1173,,2012.1481,43,2,2013.1475,2013.1475,2013.1479,,,,0,5,5,5,1,90,45,,,,,,,,
,,60c1c8ade4bb1ec24514a4d5,65af56a74aa07d90bbee3cf8,2024-01-23_09h05.07.804,bars,2023.2.3,Win32,59.88023952,657b66ea316d21385b68909f,,,,,,,,,,,2013.1481,2014.1405,,,2014.6307,2014.8739,,179,179,,,,,,,,,,,,,,,,bars/033.png,bars/mask003.png,,,,,,,,,,,,0,2,,,,,,,0,3,0,2,,,,,,,,,,,2014.1406,2014.6307,2014.874,2018.0646,space,3.1671,,2018.0646,26,24,2019.0572,2019.0573,2019.0639,,,,0,6,6,6,1,25,155,,,,,,,,
,,60c1c8ade4bb1ec24514a4d5,65af56a74aa07d90bbee3cf8,2024-01-23_09h05.07.804,bars,2023.2.3,Win32,59.88023952,657b66ea316d21385b68909f,,,,,,,,,,,2019.064,2020.0641,,,2020.5603,2020.8142,,112,112,,,,,,,,,,,,,,,,bars/028.png,bars/mask006.png,,,,,,,,,,,,4,2,,,,,,,2,5,3,5,,,,,,,,,,,2020.0643,2020.5603,2020.8142,2024.8482,space,4.0287,,2024.8482,67,8,2025.8402,2025.8403,2025.8471,,,,0,7,7,7,1,45,120,,,,,,,,
,,60c1c8ade4bb1ec24514a4d5,65af56a74aa07d90bbee3cf8,2024-01-23_09h05.07.804,bars,2023.2.3,Win32,59.88023952,657b66ea316d21385b68909f,,,,,,,,,,,2025.8472,2026.8404,,,2027.3311,2027.5738,,94,94,,,,,,,,,,,,,,,,bars/021.png,bars/mask005.png,,,,,,,,,,,,2,2,,,,,,,0,7,0,8,,,,,,,,,,,2026.8407,2027.3311,2027.5739,2031.5145,space,3.917,,2031.5145,61,24,2032.507,2032.5071,2032.5139,,,,0,8,8,8,1,155,70,,,,,,,,
,,60c1c8ade4bb1ec24514a4d5,65af56a74aa07d90bbee3cf8,2024-01-23_09h05.07.804,bars,2023.2.3,Win32,59.88023952,657b66ea316d21385b68909f,,,,,,,,,,,2032.514,2033.5071,,,2033.9977,2034.2477,,8,188,,,,,,,,,,,,,,,,bars/033.png,bars/mask003.png,,,,,,,,,,,,1,1,,,,,,,2,5,3,5,,,,,,,,,,,2033.5071,2033.9976,2034.2477,2036.3151,space,2.0511,,2036.3151,17,33,2037.3072,2037.3073,2037.3105,,,,0,9,9,9,1,25,155,,,,,,,,
,,60c1c8ade4bb1ec24514a4d5,65af56a74aa07d90bbee3cf8,2024-01-23_09h05.07.804,bars,2023.2.3,Win32,59.88023952,657b66ea316d21385b68909f,,,,,,,,,,,2037.3107,2038.3105,,,2038.8073,2039.0572,,94,94,,,,,,,,,,,,,,,,bars/034.png,bars/mask002.png,,,,,,,,,,,,0,2,,,,,,,0,7,1,7,,,,,,,,,,,2038.3105,2038.8072,2039.0573,2042.6312,space,3.5519,,2042.6312,31,29,2043.6236,2043.6236,2043.6308,,,,0,10,10,10,1,125,65,,,,,,,,
,,60c1c8ade4bb1ec24514a4d5,65af56a74aa07d90bbee3cf8,2024-01-23_09h05.07.804,bars,2023.2.3,Win32,59.88023952,657b66ea316d21385b68909f,,,,,,,,,,,2043.631,2044.6236,,,2045.1142,2045.3639,,168,-12,,,,,,,,,,,,,,,,bars/013.png,bars/mask001.png,,,,,,,,,,,,3,2,,,,,,,0,9,1,10,,,,,,,,,,,2044.6237,2045.1142,2045.3639,2048.2075,space,2.8369,,2048.2076,87,22,2049.2126,2049.2126,2049.218,,,,0,11,11,11,1,75,10,,,,,,,,
,,60c1c8ade4bb1ec24514a4d5,65af56a74aa07d90bbee3cf8,2024-01-23_09h05.07.804,bars,2023.2.3,Win32,59.88023952,657b66ea316d21385b68909f,,,,,,,,,,,2049.2181,2050.2069,,,2050.6978,2050.9404,,63,63,,,,,,,,,,,,,,,,bars/029.png,bars/mask007.png,,,,,,,,,,,,3,2,,,,,,,2,7,2,7,,,,,,,,,,,2050.2069,2050.6977,2050.9405,2052.0146,space,1.0505,,2052.0147,27,18,2053.0072,2053.0074,2053.009,,,,0,12,12,12,1,90,45,,,,,,,,
