init_variables.started,init_variables.stopped,participant,session,date,expName,psychopyVersion,OS,frameRate,study_id,instruction_exp.started,instruction_exp.stopped,key_resp_8.keys,key_resp_8.rt,key_resp_8.duration,instruction_single.started,instruction_single.stopped,key_resp_2.keys,key_resp_2.rt,key_resp_2.duration,interval.started,interval.stopped,cue_single.started,cue_single.stopped,mask.started,mask.stopped,ori_response_single.started,res_ori,res,ori_response_single.stopped,key_resp_single.keys,key_resp_single.rt,key_resp_single.duration,disp_single.started,disp_single.stopped,key_resp.keys,key_resp.rt,key_resp.duration,single.thisRepN,single.thisTrialN,single.thisN,single.thisIndex,single.ran,ori,path,mask_path,instruction_bandit.started,instruction_bandit.stopped,key_resp_6.keys,key_resp_6.rt,key_resp_6.duration,cue_bandit.started,cue_bandit.stopped,bandit_res.keys,bandit_res.rt,bandit_res.duration,outcome_bandit.started,rew,action,outcome_bandit.stopped,bandit.thisRepN,bandit.thisTrialN,bandit.thisN,bandit.thisIndex,bandit.ran,actual_rew1,actual_rew2,rew1,rew2,instruction_task.started,instruction_task.stopped,key_resp_7.keys,key_resp_7.rt,key_resp_7.duration,wait_ready.started,wait_ready.stopped,key_resp_3.keys,key_resp_3.rt,key_resp_3.duration,cue.started,cue.stopped,ori_response.started,ori_response.stopped,key_resp_5.keys,key_resp_5.rt,key_resp_5.duration,outcome.started,diff1,diff2,outcome.stopped,disp_outcome_practice.started,disp_outcome_practice.stopped,key_resp_4.keys,key_resp_4.rt,key_resp_4.duration,trials.thisRepN,trials.thisTrialN,trials.thisN,trials.thisIndex,trials.ran,ori1,ori2,break_blk.started,break_blk.stopped,block.thisRepN,block.thisTrialN,block.thisN,block.thisIndex,block.ran,condition_file
0.0004,0.0005,65745708518a6ec1b4773387,65af701bca620457d06d5c8f,2024-01-23_09h04.02.399,bars,2023.2.3,Win32,20.57613169,657b66ea316d21385b68909f,,,,,,,,,,,,,,,,,,,,,,,,,,,,,,,,,,,,,,,,,,,,,,,,,,,,,,,,,,,,,,,,,,,,,,,,,,,,,,,,,,,,,,,,,,,,,,,,,,,,
,,65745708518a6ec1b4773387,65af701bca620457d06d5c8f,2024-01-23_09h04.02.399,bars,2023.2.3,Win32,20.57613169,657b66ea316d21385b68909f,0.0005,2.4574,y,2.3991,,,,,,,,,,,,,,,,,,,,,,,,,,,,,,,,,,,,,,,,,,,,,,,,,,,,,,,,,,,,,,,,,,,,,,,,,,,,,,,,,,,,,,,,,,,,,,,,
,,65745708518a6ec1b4773387,65af701bca620457d06d5c8f,2024-01-23_09h04.02.399,bars,2023.2.3,Win32,20.57613169,657b66ea316d21385b68909f,,,,,,2.4574,15.4648,space,12.9428,,,,,,,,,,,,,,,,,,,,,,,,,,,,,,,,,,,,,,,,,,,,,,,,,,,,,,,,,,,,,,,,,,,,,,,,,,,,,,,,,,,,,,,,,,,
,,65745708518a6ec1b4773387,65af701bca620457d06d5c8f,2024-01-23_09h04.02.399,bars,2023.2.3,Win32,20.57613169,657b66ea316d21385b68909f,,,,,,,,,,,15.4672,16.4729,16.4729,16.9321,16.9321,17.1819,17.182,172,172,20.2321,space,2.9827,,20.2322,402.2498,space,381.9597,,0,0,0,6,1,175,bars/single006.png,bars/mask005.png,,,,,,,,,,,,,,,,,,,,,,,,,,,,,,,,,,,,,,,,,,,,,,,,,,,,,,,,,,,,,,,,
,,65745708518a6ec1b4773387,65af701bca620457d06d5c8f,2024-01-23_09h04.02.399,bars,2023.2.3,Win32,20.57613169,657b66ea316d21385b68909f,,,,,,,,,,,402.2543,403.2398,403.2398,403.7127,403.7127,403.9543,403.9543,76,76,405.6926,space,1.6753,,405.6927,408.408,space,2.6587,,0,1,1,5,1,55,bars/single005.png,bars/mask008.png,,,,,,,,,,,,,,,,,,,,,,,,,,,,,,,,,,,,,,,,,,,,,,,,,,,,,,,,,,,,,,,,
,,65745708518a6ec1b4773387,65af701bca620457d06d5c8f,2024-01-23_09h04.02.399,bars,2023.2.3,Win32,20.57613169,657b66ea316d21385b68909f,,,,,,,,,,,408.4082,409.3991,409.3991,409.9084,409.9084,410.1644,410.1644,103,103,414.6048,space,4.3725,,414.6049,506.1033,space,91.4392,,0,2,2,4,1,95,bars/single004.png,bars/mask004.png,,,,,,,,,,,,,,,,,,,,,,,,,,,,,,,,,,,,,,,,,,,,,,,,,,,,,,,,,,,,,,,,
,,65745708518a6ec1b4773387,65af701bca620457d06d5c8f,2024-01-23_09h04.02.399,bars,2023.2.3,Win32,20.57613169,657b66ea316d21385b68909f,,,,,,,,,,,506.1086,507.0841,507.0842,507.5657,507.5658,507.8256,507.8256,14,14,512.5651,space,4.6745,,512.5651,513.9238,space,1.2983,,0,3,3,9,1,20,bars/single009.png,bars/mask006.png,,,,,,,,,,,,,,,,,,,,,,,,,,,,,,,,,,,,,,,,,,,,,,,,,,,,,,,,,,,,,,,,
,,65745708518a6ec1b4773387,65af701bca620457d06d5c8f,2024-01-23_09h04.02.399,bars,2023.2.3,Win32,20.57613169,657b66ea316d21385b68909f,,,,,,,,,,,513.9241,514.9345,514.9345,515.4623,515.4623,515.6681,515.6682,168,168,517.127,space,1.3889,,517.127,519.2149,space,2.0193,,0,4,4,8,1,160,bars/single008.png,bars/mask004.png,,,,,,,,,,,,,,,,,,,,,,,,,,,,,,,,,,,,,,,,,,,,,,,,,,,,,,,,,,,,,,,,
,,65745708518a6ec1b4773387,65af701bca620457d06d5c8f,2024-01-23_09h04.02.399,bars,2023.2.3,Win32,20.57613169,657b66ea316d21385b68909f,,,,,,,,,,,519.2151,520.2253,520.2253,520.7346,520.7346,520.9866,520.9868,16,196,525.2217,space,4.1736,,525.2218,526.3189,space,1.0284,,0,5,5,3,1,20,bars/single003.png,bars/mask005.png,,,,,,,,,,,,,,,,,,,,,,,,,,,,,,,,,,,,,,,,,,,,,,,,,,,,,,,,,,,,,,,,
,,65745708518a6ec1b4773387,65af701bca620457d06d5c8f,2024-01-23_09h04.02.399,bars,2023.2.3,Win32,20.57613169,657b66ea316d21385b68909f,,,,,,,,,,,526.3191,527.3195,527.3195,527.7741,527.7742,527.9756,527.9756,35,35,529.3601,space,1.3135,,529.3601,531.5427,space,2.1198,,0,6,6,7,1,45,bars/single007.png,bars/mask009.png,,,,,,,,,,,,,,,,,,,,,,,,,,,,,,,,,,,,,,,,,,,,,,,,,,,,,,,,,,,,,,,,
,,65745708518a6ec1b4773387,65af701bca620457d06d5c8f,2024-01-23_09h04.02.399,bars,2023.2.3,Win32,20.57613169,657b66ea316d21385b68909f,,,,,,,,,,,531.543,532.5494,532.5495,533.0611,533.0612,533.3143,533.3143,16,16,538.0757,space,4.701,,538.0758,539.5339,space,1.391,,0,7,7,1,1,20,bars/single001.png,bars/mask006.png,,,,,,,,,,,,,,,,,,,,,,,,,,,,,,,,,,,,,,,,,,,,,,,,,,,,,,,,,,,,,,,,
,,65745708518a6ec1b4773387,65af701bca620457d06d5c8f,2024-01-23_09h04.02.399,bars,2023.2.3,Win32,20.57613169,657b66ea316d21385b68909f,,,,,,,,,,,539.5341,540.5031,540.5031,540.9684,540.9684,541.2296,541.2296,157,157,542.7434,space,1.4517,,542.7434,543.7332,space,0.9257,,0,8,8,0,1,150,bars/single000.png,bars/mask006.png,,,,,,,,,,,,,,,,,,,,,,,,,,,,,,,,,,,,,,,,,,,,,,,,,,,,,,,,,,,,,,,,
,,65745708518a6ec1b4773387,65af701bca620457d06d5c8f,2024-01-23_09h04.02.399,bars,2023.2.3,Win32,20.57613169,657b66ea316d21385b68909f,,,,,,,,,,,543.7333,544.7117,544.7117,545.1719,545.1719,545.3777,545.3777,146,146,547.7968,space,2.3551,,547.7968,549.9362,space,2.0643,,0,9,9,2,1,145,bars/single002.png,bars/mask003.png,,,,,,,,,,,,,,,,,,,,,,,,,,,,,,,,,,,,,,,,,,,,,,,,,,,,,,,,,,,,,,,,
,,65745708518a6ec1b4773387,65af701bca620457d06d5c8f,2024-01-23_09h04.02.399,bars,2023.2.3,Win32,20.57613169,657b66ea316d21385b68909f,,,,,,,,,,,,,,,,,,,,,,,,,,,,,,,,,,,,,549.9366,571.0057,space,21.0079,,,,,,,,,,,,,,,,,,,,,,,,,,,,,,,,,,,,,,,,,,,,,,,,,,,,,,,,,,,,
,,65745708518a6ec1b4773387,65af701bca620457d06d5c8f,2024-01-23_09h04.02.399,bars,2023.2.3,Win32,20.57613169,657b66ea316d21385b68909f,,,,,,,,,,,,,,,,,,,,,,,,,,,,,,,,,,,,,,,,,,571.0116,572.0638,left,0.995,,572.0638,9,1,573.0487,0,0,0,0,1,9,1,9,2,,,,,,,,,,,,,,,,,,,,,,,,,,,,,,,,,,,,,,,,,
,,65745708518a6ec1b4773387,65af701bca620457d06d5c8f,2024-01-23_09h04.02.399,bars,2023.2.3,Win32,20.57613169,657b66ea316d21385b68909f,,,,,,,,,,,,,,,,,,,,,,,,,,,,,,,,,,,,,,,,,,573.0489,573.4441,right,0.3262,,573.4442,1,2,574.4043,0,1,1,1,1,10,0,10,1,,,,,,,,,,,,,,,,,,,,,,,,,,,,,,,,,,,,,,,,,
,,65745708518a6ec1b4773387,65af701bca620457d06d5c8f,2024-01-23_09h04.02.399,bars,2023.2.3,Win32,20.57613169,657b66ea316d21385b68909f,,,,,,,,,,,,,,,,,,,,,,,,,,,,,,,,,,,,,,,,,,574.4045,574.7376,left,0.2621,,574.7376,10,1,575.7104,0,2,2,2,1,10,2,10,2,,,,,,,,,,,,,,,,,,,,,,,,,,,,,,,,,,,,,,,,,
,,65745708518a6ec1b4773387,65af701bca620457d06d5c8f,2024-01-23_09h04.02.399,bars,2023.2.3,Win32,20.57613169,657b66ea316d21385b68909f,,,,,,,,,,,,,,,,,,,,,,,,,,,,,,,,,,,,,,,,,,575.7106,575.8428,left,0.0706,,575.8428,7,1,576.8283,0,3,3,3,1,8,4,7,3,,,,,,,,,,,,,,,,,,,,,,,,,,,,,,,,,,,,,,,,,
,,65745708518a6ec1b4773387,65af701bca620457d06d5c8f,2024-01-23_09h04.02.399,bars,2023.2.3,Win32,20.57613169,657b66ea316d21385b68909f,,,,,,,,,,,,,,,,,,,,,,,,,,,,,,,,,,,,,,,,,,576.8285,576.956,left,0.0667,,576.9561,5,1,577.9407,0,4,4,4,1,6,2,5,1,,,,,,,,,,,,,,,,,,,,,,,,,,,,,,,,,,,,,,,,,
,,65745708518a6ec1b4773387,65af701bca620457d06d5c8f,2024-01-23_09h04.02.399,bars,2023.2.3,Win32,20.57613169,657b66ea316d21385b68909f,,,,,,,,,,,,,,,,,,,,,,,,,,,,,,,,,,,,,,,,,,577.941,578.4612,right,0.4629,,578.4612,4,2,579.4631,0,5,5,5,1,4,4,4,4,,,,,,,,,,,,,,,,,,,,,,,,,,,,,,,,,,,,,,,,,
,,65745708518a6ec1b4773387,65af701bca620457d06d5c8f,2024-01-23_09h04.02.399,bars,2023.2.3,Win32,20.57613169,657b66ea316d21385b68909f,,,,,,,,,,,,,,,,,,,,,,,,,,,,,,,,,,,,,,,,,,579.4634,579.5943,left,0.0698,,579.5944,1,1,580.6111,0,6,6,6,1,2,2,1,2,,,,,,,,,,,,,,,,,,,,,,,,,,,,,,,,,,,,,,,,,
,,65745708518a6ec1b4773387,65af701bca620457d06d5c8f,2024-01-23_09h04.02.399,bars,2023.2.3,Win32,20.57613169,657b66ea316d21385b68909f,,,,,,,,,,,,,,,,,,,,,,,,,,,,,,,,,,,,,,,,,,580.6112,581.0018,right,0.3357,,581.0018,1,2,582.0041,0,7,7,7,1,0,0,0,1,,,,,,,,,,,,,,,,,,,,,,,,,,,,,,,,,,,,,,,,,
,,65745708518a6ec1b4773387,65af701bca620457d06d5c8f,2024-01-23_09h04.02.399,bars,2023.2.3,Win32,20.57613169,657b66ea316d21385b68909f,,,,,,,,,,,,,,,,,,,,,,,,,,,,,,,,,,,,,,,,,,582.0044,582.3996,left,0.3347,,582.3997,1,1,583.3864,0,8,8,8,1,0,2,1,0,,,,,,,,,,,,,,,,,,,,,,,,,,,,,,,,,,,,,,,,,
,,65745708518a6ec1b4773387,65af701bca620457d06d5c8f,2024-01-23_09h04.02.399,bars,2023.2.3,Win32,20.57613169,657b66ea316d21385b68909f,,,,,,,,,,,,,,,,,,,,,,,,,,,,,,,,,,,,,,,,,,583.3866,583.771,right,0.3242,,583.771,3,2,584.7572,0,9,9,9,1,2,4,2,3,,,,,,,,,,,,,,,,,,,,,,,,,,,,,,,,,,,,,,,,,
,,65745708518a6ec1b4773387,65af701bca620457d06d5c8f,2024-01-23_09h04.02.399,bars,2023.2.3,Win32,20.57613169,657b66ea316d21385b68909f,,,,,,,,,,,,,,,,,,,,,,,,,,,,,,,,,,,,,,,,,,584.7574,585.1625,right,0.3469,,585.1625,3,2,586.164,0,10,10,10,1,0,2,0,3,,,,,,,,,,,,,,,,,,,,,,,,,,,,,,,,,,,,,,,,,
,,65745708518a6ec1b4773387,65af701bca620457d06d5c8f,2024-01-23_09h04.02.399,bars,2023.2.3,Win32,20.57613169,657b66ea316d21385b68909f,,,,,,,,,,,,,,,,,,,,,,,,,,,,,,,,,,,,,,,,,,586.1643,586.4303,right,0.1968,,586.4303,3,2,587.4106,0,11,11,11,1,0,4,0,3,,,,,,,,,,,,,,,,,,,,,,,,,,,,,,,,,,,,,,,,,
,,65745708518a6ec1b4773387,65af701bca620457d06d5c8f,2024-01-23_09h04.02.399,bars,2023.2.3,Win32,20.57613169,657b66ea316d21385b68909f,,,,,,,,,,,,,,,,,,,,,,,,,,,,,,,,,,,,,,,,,,587.4111,587.6735,left,0.1948,,587.6735,1,1,588.6841,0,12,12,12,1,2,6,1,6,,,,,,,,,,,,,,,,,,,,,,,,,,,,,,,,,,,,,,,,,
,,65745708518a6ec1b4773387,65af701bca620457d06d5c8f,2024-01-23_09h04.02.399,bars,2023.2.3,Win32,20.57613169,657b66ea316d21385b68909f,,,,,,,,,,,,,,,,,,,,,,,,,,,,,,,,,,,,,,,,,,588.6843,589.1988,right,0.4576,,589.1988,3,2,590.1879,0,13,13,13,1,0,4,1,3,,,,,,,,,,,,,,,,,,,,,,,,,,,,,,,,,,,,,,,,,
,,65745708518a6ec1b4773387,65af701bca620457d06d5c8f,2024-01-23_09h04.02.399,bars,2023.2.3,Win32,20.57613169,657b66ea316d21385b68909f,,,,,,,,,,,,,,,,,,,,,,,,,,,,,,,,,,,,,,,,,,590.1881,590.2587,right,0.0052,,590.2587,7,2,591.2694,0,14,14,14,1,2,6,2,7,,,,,,,,,,,,,,,,,,,,,,,,,,,,,,,,,,,,,,,,,
,,65745708518a6ec1b4773387,65af701bca620457d06d5c8f,2024-01-23_09h04.02.399,bars,2023.2.3,Win32,20.57613169,657b66ea316d21385b68909f,,,,,,,,,,,,,,,,,,,,,,,,,,,,,,,,,,,,,,,,,,591.2697,591.3323,right,0.0048,,591.3323,9,2,592.3409,0,15,15,15,1,4,8,3,9,,,,,,,,,,,,,,,,,,,,,,,,,,,,,,,,,,,,,,,,,
,,65745708518a6ec1b4773387,65af701bca620457d06d5c8f,2024-01-23_09h04.02.399,bars,2023.2.3,Win32,20.57613169,657b66ea316d21385b68909f,,,,,,,,,,,,,,,,,,,,,,,,,,,,,,,,,,,,,,,,,,592.3411,592.8642,right,0.4586,,592.8643,7,2,593.8228,0,16,16,16,1,6,6,7,7,,,,,,,,,,,,,,,,,,,,,,,,,,,,,,,,,,,,,,,,,
,,65745708518a6ec1b4773387,65af701bca620457d06d5c8f,2024-01-23_09h04.02.399,bars,2023.2.3,Win32,20.57613169,657b66ea316d21385b68909f,,,,,,,,,,,,,,,,,,,,,,,,,,,,,,,,,,,,,,,,,,593.8229,594.0296,right,0.1416,,594.0296,5,2,595.0346,0,17,17,17,1,8,4,9,5,,,,,,,,,,,,,,,,,,,,,,,,,,,,,,,,,,,,,,,,,
,,65745708518a6ec1b4773387,65af701bca620457d06d5c8f,2024-01-23_09h04.02.399,bars,2023.2.3,Win32,20.57613169,657b66ea316d21385b68909f,,,,,,,,,,,,,,,,,,,,,,,,,,,,,,,,,,,,,,,,,,595.0348,595.2923,right,0.2009,,595.2923,1,2,596.2987,0,18,18,18,1,6,2,5,1,,,,,,,,,,,,,,,,,,,,,,,,,,,,,,,,,,,,,,,,,
,,65745708518a6ec1b4773387,65af701bca620457d06d5c8f,2024-01-23_09h04.02.399,bars,2023.2.3,Win32,20.57613169,657b66ea316d21385b68909f,,,,,,,,,,,,,,,,,,,,,,,,,,,,,,,,,,,,,,,,,,596.2989,596.5626,left,0.1983,,596.5626,7,1,597.5694,0,19,19,19,1,8,0,7,0,,,,,,,,,,,,,,,,,,,,,,,,,,,,,,,,,,,,,,,,,
,,65745708518a6ec1b4773387,65af701bca620457d06d5c8f,2024-01-23_09h04.02.399,bars,2023.2.3,Win32,20.57613169,657b66ea316d21385b68909f,,,,,,,,,,,,,,,,,,,,,,,,,,,,,,,,,,,,,,,,,,,,,,,,,,,,,,,,,,,,597.5696,614.2821,space,16.644,,,,,,,,,,,,,,,,,,,,,,,,,,,,,,,,,,,,,
,,65745708518a6ec1b4773387,65af701bca620457d06d5c8f,2024-01-23_09h04.02.399,bars,2023.2.3,Win32,20.57613169,657b66ea316d21385b68909f,,,,,,,,,,,615.7593,616.7466,,,617.2154,617.4227,,104,104,,,,,,,,,,,,,,,,bars/019.png,bars/mask002.png,,,,,,,,,,,,8,2,,,,,,,10,7,10,8,,,,,,614.2876,615.7576,space,1.4119,,616.7467,617.2154,617.4228,625.8369,space,8.3412,,625.837,59,1,626.8044,626.8045,633.7345,space,6.8675,,0,0,0,0,1,45,105,,,,,,,,
,,65745708518a6ec1b4773387,65af701bca620457d06d5c8f,2024-01-23_09h04.02.399,bars,2023.2.3,Win32,20.57613169,657b66ea316d21385b68909f,,,,,,,,,,,633.7389,634.7091,,,635.1629,635.4013,,101,101,,,,,,,,,,,,,,,,bars/039.png,bars/mask008.png,,,,,,,,,,,,5,2,,,,,,,10,5,10,6,,,,,,,,,,,634.7092,635.1629,635.4014,639.7068,space,4.2402,,639.7068,74,4,640.6891,640.6892,642.8964,space,2.1466,,0,1,1,1,1,175,105,,,,,,,,
,,65745708518a6ec1b4773387,65af701bca620457d06d5c8f,2024-01-23_09h04.02.399,bars,2023.2.3,Win32,20.57613169,657b66ea316d21385b68909f,,,,,,,,,,,642.8966,643.872,,,644.3715,644.6173,,106,106,,,,,,,,,,,,,,,,bars/009.png,bars/mask009.png,,,,,,,,,,,,3,2,,,,,,,10,3,9,3,,,,,,,,,,,643.872,644.3715,644.6174,646.7205,space,2.0408,,646.7205,89,1,647.6964,647.6964,649.1656,space,1.4056,,0,2,2,2,1,15,105,,,,,,,,
,,65745708518a6ec1b4773387,65af701bca620457d06d5c8f,2024-01-23_09h04.02.399,bars,2023.2.3,Win32,20.57613169,657b66ea316d21385b68909f,,,,,,,,,,,649.1658,650.125,,,650.627,650.8736,,133,133,,,,,,,,,,,,,,,,bars/034.png,bars/mask009.png,,,,,,,,,,,,4,1,,,,,,,8,1,6,0,,,,,,,,,,,650.125,650.627,650.8736,653.6576,space,2.7238,,653.6576,8,68,654.6159,654.6159,657.5342,space,2.8442,,0,3,3,3,1,125,65,,,,,,,,
,,65745708518a6ec1b4773387,65af701bca620457d06d5c8f,2024-01-23_09h04.02.399,bars,2023.2.3,Win32,20.57613169,657b66ea316d21385b68909f,,,,,,,,,,,657.5344,658.4978,,,659.0095,659.212,,89,89,,,,,,,,,,,,,,,,bars/013.png,bars/mask005.png,,,,,,,,,,,,5,1,,,,,,,10,0,10,1,,,,,,,,,,,658.4979,659.0094,659.2121,663.3194,space,4.0481,,663.3194,14,79,664.3316,664.3316,666.4697,space,2.0663,,0,4,4,4,1,75,10,,,,,,,,
,,65745708518a6ec1b4773387,65af701bca620457d06d5c8f,2024-01-23_09h04.02.399,bars,2023.2.3,Win32,20.57613169,657b66ea316d21385b68909f,,,,,,,,,,,666.4699,667.4543,,,667.9576,668.1941,,160,160,,,,,,,,,,,,,,,,bars/018.png,bars/mask008.png,,,,,,,,,,,,6,1,,,,,,,8,0,9,1,,,,,,,,,,,667.4543,667.9575,668.1941,671.1873,space,2.9371,,671.1873,10,70,672.1499,672.1499,674.1643,space,1.9579,,0,5,5,5,1,150,90,,,,,,,,
,,65745708518a6ec1b4773387,65af701bca620457d06d5c8f,2024-01-23_09h04.02.399,bars,2023.2.3,Win32,20.57613169,657b66ea316d21385b68909f,,,,,,,,,,,674.1644,675.1804,,,675.6972,675.942,,15,195,,,,,,,,,,,,,,,,bars/003.png,bars/mask005.png,,,,,,,,,,,,5,1,,,,,,,6,2,7,2,,,,,,,,,,,675.1805,675.6972,675.942,681.9487,space,5.9417,,681.9488,10,55,682.9218,682.9218,684.4961,space,1.5014,,0,6,6,6,1,25,140,,,,,,,,
,,65745708518a6ec1b4773387,65af701bca620457d06d5c8f,2024-01-23_09h04.02.399,bars,2023.2.3,Win32,20.57613169,657b66ea316d21385b68909f,,,,,,,,,,,684.4963,685.4631,,,685.9607,686.1589,,95,95,,,,,,,,,,,,,,,,bars/021.png,bars/mask003.png,,,,,,,,,,,,0,2,,,,,,,8,0,9,0,,,,,,,,,,,685.4631,685.9607,686.159,690.2154,space,3.9957,,690.2154,60,25,691.1804,691.1804,692.0391,space,0.7931,,0,7,7,7,1,155,70,,,,,,,,
,,65745708518a6ec1b4773387,65af701bca620457d06d5c8f,2024-01-23_09h04.02.399,bars,2023.2.3,Win32,20.57613169,657b66ea316d21385b68909f,,,,,,,,,,,692.0393,693.0256,,,693.5136,693.7589,,75,75,,,,,,,,,,,,,,,,bars/044.png,bars/mask008.png,,,,,,,,,,,,6,1,,,,,,,6,2,6,2,,,,,,,,,,,693.0257,693.5136,693.7589,694.9569,space,1.14,,694.9569,0,80,695.9226,695.9227,699.6021,space,3.6181,,0,8,8,8,1,75,155,,,,,,,,
,,65745708518a6ec1b4773387,65af701bca620457d06d5c8f,2024-01-23_09h04.02.399,bars,2023.2.3,Win32,20.57613169,657b66ea316d21385b68909f,,,,,,,,,,,699.6065,700.5881,,,701.0638,701.2805,,100,100,,,,,,,,,,,,,,,,bars/014.png,bars/mask001.png,,,,,,,,,,,,2,1,,,,,,,8,0,6,0,,,,,,,,,,,700.5881,701.0638,701.2805,706.9593,space,5.6075,,706.9594,20,80,707.9356,707.9356,709.8317,space,1.8318,,0,9,9,9,1,80,0,,,,,,,,
,,65745708518a6ec1b4773387,65af701bca620457d06d5c8f,2024-01-23_09h04.02.399,bars,2023.2.3,Win32,20.57613169,657b66ea316d21385b68909f,,,,,,,,,,,709.8319,710.8482,,,711.3426,711.5965,,85,85,,,,,,,,,,,,,,,,bars/001.png,bars/mask006.png,,,,,,,,,,,,1,2,,,,,,,10,2,10,1,,,,,,,,,,,710.8482,711.3426,711.5965,715.1221,space,3.4665,,715.1221,45,0,716.0838,716.0838,716.8824,space,0.7366,,0,10,10,10,1,130,85,,,,,,,,
,,65745708518a6ec1b4773387,65af701bca620457d06d5c8f,2024-01-23_09h04.02.399,bars,2023.2.3,Win32,20.57613169,657b66ea316d21385b68909f,,,,,,,,,,,716.8826,717.8449,,,718.2965,718.5636,,171,171,,,,,,,,,,,,,,,,bars/007.png,bars/mask006.png,,,,,,,,,,,,9,1,,,,,,,10,4,10,4,,,,,,,,,,,717.8449,718.2965,718.5636,720.5275,space,1.9041,,720.5276,4,64,721.4946,721.4946,722.3393,space,0.776,,0,11,11,11,1,175,55,,,,,,,,
,,65745708518a6ec1b4773387,65af701bca620457d06d5c8f,2024-01-23_09h04.02.399,bars,2023.2.3,Win32,20.57613169,657b66ea316d21385b68909f,,,,,,,,,,,722.3395,723.3109,,,723.7649,724.0254,,97,97,,,,,,,,,,,,,,,,bars/044.png,bars/mask006.png,,,,,,,,,,,,2,1,,,,,,,10,2,8,2,,,,,,,,,,,723.3109,723.7649,724.0254,730.5823,space,6.4961,,730.5823,22,58,731.5484,731.5484,732.4303,space,0.8145,,0,12,12,12,1,75,155,,,,,,,,
,,65745708518a6ec1b4773387,65af701bca620457d06d5c8f,2024-01-23_09h04.02.399,bars,2023.2.3,Win32,20.57613169,657b66ea316d21385b68909f,,,,,,,,,,,732.4305,733.4115,,,733.9058,734.1058,,70,70,,,,,,,,,,,,,,,,bars/012.png,bars/mask000.png,,,,,,,,,,,,3,1,,,,,,,8,4,8,4,,,,,,,,,,,733.4115,733.9058,734.1058,737.5359,space,3.3728,,737.5359,20,55,738.5148,738.5148,741.533,space,2.9452,,0,13,13,13,1,90,15,,,,,,,,
,,65745708518a6ec1b4773387,65af701bca620457d06d5c8f,2024-01-23_09h04.02.399,bars,2023.2.3,Win32,20.57613169,657b66ea316d21385b68909f,,,,,,,,,,,741.5333,742.4984,,,742.9538,743.2204,,171,171,,,,,,,,,,,,,,,,bars/044.png,bars/mask002.png,,,,,,,,,,,,3,2,,,,,,,10,6,9,7,,,,,,,,,,,742.4985,742.9538,743.2204,748.3163,space,5.037,,748.3164,84,16,749.2936,749.2936,849.5453,space,100.1777,,0,14,14,14,1,75,155,,,,,,,,
,,65745708518a6ec1b4773387,65af701bca620457d06d5c8f,2024-01-23_09h04.02.399,bars,2023.2.3,Win32,20.57613169,657b66ea316d21385b68909f,,,,,,,,,,,849.5456,850.5264,,,851.0383,851.2834,,149,-31,,,,,,,,,,,,,,,,bars/005.png,bars/mask008.png,,,,,,,,,,,,6,2,,,,,,,8,8,9,8,,,,,,,,,,,850.5264,851.0383,851.2834,858.5346,space,7.1925,,858.5347,41,9,859.5078,859.5079,860.5133,space,0.944,,0,15,15,15,1,10,140,,,,,,,,
,,65745708518a6ec1b4773387,65af701bca620457d06d5c8f,2024-01-23_09h04.02.399,bars,2023.2.3,Win32,20.57613169,657b66ea316d21385b68909f,,,,,,,,,,,860.5135,861.5293,,,862.0306,862.2772,,166,-14,,,,,,,,,,,,,,,,bars/033.png,bars/mask009.png,,,,,,,,,,,,6,2,,,,,,,6,10,8,9,,,,,,,,,,,861.5293,862.0306,862.2772,866.4268,space,4.0909,,866.4268,39,11,867.3837,867.3837,868.2439,space,0.7817,,0,16,16,16,1,25,155,,,,,,,,
,,65745708518a6ec1b4773387,65af701bca620457d06d5c8f,2024-01-23_09h04.02.399,bars,2023.2.3,Win32,20.57613169,657b66ea316d21385b68909f,,,,,,,,,,,868.2441,869.2081,,,869.6986,869.9655,,90,90,,,,,,,,,,,,,,,,bars/011.png,bars/mask007.png,,,,,,,,,,,,8,2,,,,,,,4,10,3,10,,,,,,,,,,,869.2081,869.6986,869.9656,874.3494,space,4.321,,874.3495,70,5,875.338,875.3381,877.0239,space,1.6165,,0,17,17,17,1,160,85,,,,,,,,
,,65745708518a6ec1b4773387,65af701bca620457d06d5c8f,2024-01-23_09h04.02.399,bars,2023.2.3,Win32,20.57613169,657b66ea316d21385b68909f,,,,,,,,,,,877.0243,878.0133,,,878.5046,878.7538,,170,-10,,,,,,,,,,,,,,,,bars/024.png,bars/mask008.png,,,,,,,,,,,,9,2,,,,,,,2,10,1,9,,,,,,,,,,,878.0133,878.5046,878.7539,885.679,space,6.8648,,885.6791,50,0,886.6308,886.6309,888.5367,space,1.8346,,0,18,18,18,1,120,170,,,,,,,,
,,65745708518a6ec1b4773387,65af701bca620457d06d5c8f,2024-01-23_09h04.02.399,bars,2023.2.3,Win32,20.57613169,657b66ea316d21385b68909f,,,,,,,,,,,888.5369,889.5042,,,890.0059,890.2576,,169,-11,,,,,,,,,,,,,,,,bars/045.png,bars/mask002.png,,,,,,,,,,,,2,2,,,,,,,0,8,0,8,,,,,,,,,,,889.5042,890.0059,890.2576,894.7827,space,4.4576,,894.7827,69,21,895.7804,895.7805,964.2804,space,68.4357,,0,19,19,19,1,100,10,,,,,,,,
,,65745708518a6ec1b4773387,65af701bca620457d06d5c8f,2024-01-23_09h04.02.399,bars,2023.2.3,Win32,20.57613169,657b66ea316d21385b68909f,,,,,,,,,,,964.2807,965.2579,,,965.7448,965.9697,,157,157,,,,,,,,,,,,,,,,bars/003.png,bars/mask001.png,,,,,,,,,,,,4,2,,,,,,,0,10,1,10,,,,,,,,,,,965.2579,965.7448,965.9697,968.1893,space,2.1839,,968.1893,48,17,969.1705,969.1705,970.5049,space,1.2959,,0,20,20,20,1,25,140,,,,,,,,
,,65745708518a6ec1b4773387,65af701bca620457d06d5c8f,2024-01-23_09h04.02.399,bars,2023.2.3,Win32,20.57613169,657b66ea316d21385b68909f,,,,,,,,,,,970.5052,971.4824,,,971.9609,972.1673,,143,143,,,,,,,,,,,,,,,,bars/003.png,bars/mask006.png,,,,,,,,,,,,8,2,,,,,,,0,10,0,9,,,,,,,,,,,971.4824,971.9608,972.1673,974.6183,space,2.3819,,974.6183,62,3,975.5954,975.5954,976.4542,space,0.792,,0,21,21,21,1,25,140,,,,,,,,
,,65745708518a6ec1b4773387,65af701bca620457d06d5c8f,2024-01-23_09h04.02.399,bars,2023.2.3,Win32,20.57613169,657b66ea316d21385b68909f,,,,,,,,,,,976.4545,977.4132,,,977.8706,978.1282,,114,114,,,,,,,,,,,,,,,,bars/028.png,bars/mask008.png,,,,,,,,,,,,8,2,,,,,,,2,10,2,10,,,,,,,,,,,977.4133,977.8706,978.1282,982.4899,space,4.3024,,982.4899,69,6,983.457,983.457,984.1873,space,0.6655,,0,22,22,22,1,45,120,,,,,,,,
,,65745708518a6ec1b4773387,65af701bca620457d06d5c8f,2024-01-23_09h04.02.399,bars,2023.2.3,Win32,20.57613169,657b66ea316d21385b68909f,,,,,,,,,,,984.1875,985.1956,,,985.6982,985.9555,,141,141,,,,,,,,,,,,,,,,bars/015.png,bars/mask008.png,,,,,,,,,,,,3,2,,,,,,,4,10,3,9,,,,,,,,,,,985.1956,985.6982,985.9555,991.0021,space,4.9831,,991.0022,31,19,992.0203,992.0203,993.032,space,0.9478,,0,23,23,23,1,110,160,,,,,,,,
,,65745708518a6ec1b4773387,65af701bca620457d06d5c8f,2024-01-23_09h04.02.399,bars,2023.2.3,Win32,20.57613169,657b66ea316d21385b68909f,,,,,,,,,,,993.0323,994.0166,,,994.5089,994.7457,,108,108,,,,,,,,,,,,,,,,bars/028.png,bars/mask001.png,,,,,,,,,,,,5,2,,,,,,,2,10,2,8,,,,,,,,,,,994.0166,994.5089,994.7457,998.1175,space,3.3049,,998.1175,63,12,999.1089,999.1089,999.8588,space,0.6737,,0,24,24,24,1,45,120,,,,,,,,
,,65745708518a6ec1b4773387,65af701bca620457d06d5c8f,2024-01-23_09h04.02.399,bars,2023.2.3,Win32,20.57613169,657b66ea316d21385b68909f,,,,,,,,,,,999.859,1000.8397,,,1001.3441,1001.6005,,17,17,,,,,,,,,,,,,,,,bars/012.png,bars/mask004.png,,,,,,,,,,,,9,2,,,,,,,0,10,0,10,,,,,,,,,,,1000.8397,1001.3441,1001.6005,1003.5628,space,1.9042,,1003.5629,73,2,1004.5436,1004.5436,1005.2233,space,0.6098,,0,25,25,25,1,90,15,,,,,,,,
,,65745708518a6ec1b4773387,65af701bca620457d06d5c8f,2024-01-23_09h04.02.399,bars,2023.2.3,Win32,20.57613169,657b66ea316d21385b68909f,,,,,,,,,,,1005.2235,1006.1805,,,1006.6849,1006.9308,,119,119,,,,,,,,,,,,,,,,bars/034.png,bars/mask005.png,,,,,,,,,,,,0,1,,,,,,,0,10,0,10,,,,,,,,,,,1006.1805,1006.6849,1006.9309,1008.3152,space,1.3237,,1008.3152,6,54,1009.3079,1009.3079,1011.2279,space,1.8537,,0,26,26,26,1,125,65,,,,,,,,
,,65745708518a6ec1b4773387,65af701bca620457d06d5c8f,2024-01-23_09h04.02.399,bars,2023.2.3,Win32,20.57613169,657b66ea316d21385b68909f,,,,,,,,,,,1011.2281,1012.2265,,,1012.7252,1012.9802,,162,162,,,,,,,,,,,,,,,,bars/020.png,bars/mask002.png,,,,,,,,,,,,4,2,,,,,,,0,8,0,6,,,,,,,,,,,1012.2265,1012.7252,1012.9802,1019.0469,space,6.0041,,1019.0469,47,8,1020.0198,1020.0198,1021.3727,space,1.2909,,0,27,27,27,1,115,170,,,,,,,,
,,65745708518a6ec1b4773387,65af701bca620457d06d5c8f,2024-01-23_09h04.02.399,bars,2023.2.3,Win32,20.57613169,657b66ea316d21385b68909f,,,,,,,,,,,1021.3729,1022.3356,,,1022.8521,1023.1046,,87,87,,,,,,,,,,,,,,,,bars/011.png,bars/mask008.png,,,,,,,,,,,,5,2,,,,,,,2,6,2,5,,,,,,,,,,,1022.3357,1022.8521,1023.1046,1028.5897,space,5.4277,,1028.5897,73,2,1029.566,1029.566,1031.3903,space,1.7559,,0,28,28,28,1,160,85,,,,,,,,
,,65745708518a6ec1b4773387,65af701bca620457d06d5c8f,2024-01-23_09h04.02.399,bars,2023.2.3,Win32,20.57613169,657b66ea316d21385b68909f,,,,,,,,,,,1031.3906,1032.3601,,,1032.812,1033.0738,,166,-14,,,,,,,,,,,,,,,,bars/040.png,bars/mask000.png,,,,,,,,,,,,3,2,,,,,,,0,8,0,8,,,,,,,,,,,1032.3601,1032.812,1033.0739,1038.85,space,5.7089,,1038.85,26,19,1039.8431,1039.8431,1041.9829,space,2.0763,,0,29,29,29,1,140,5,,,,,,,,
,,65745708518a6ec1b4773387,65af701bca620457d06d5c8f,2024-01-23_09h04.02.399,bars,2023.2.3,Win32,20.57613169,657b66ea316d21385b68909f,,,,,,,,,,,1041.9831,1042.9515,,,1043.4281,1043.6755,,54,54,,,,,,,,,,,,,,,,bars/025.png,bars/mask004.png,,,,,,,,,,,,4,2,,,,,,,0,6,0,7,,,,,,,,,,,1042.9515,1043.4281,1043.6755,1049.2429,space,5.5116,,1049.243,51,14,1050.2079,1050.208,1051.1107,space,0.8397,,0,30,30,30,1,105,40,,,,,,,,
,,65745708518a6ec1b4773387,65af701bca620457d06d5c8f,2024-01-23_09h04.02.399,bars,2023.2.3,Win32,20.57613169,657b66ea316d21385b68909f,,,,,,,,,,,1051.1108,1052.1208,,,1052.5736,1052.83,,40,40,,,,,,,,,,,,,,,,bars/029.png,bars/mask009.png,,,,,,,,,,,,8,2,,,,,,,0,8,1,10,,,,,,,,,,,1052.1209,1052.5736,1052.83,1059.1032,space,6.2124,,1059.1032,50,5,1060.0848,1060.0848,1060.8904,space,0.7444,,0,31,31,31,1,90,45,,,,,,,,
,,65745708518a6ec1b4773387,65af701bca620457d06d5c8f,2024-01-23_09h04.02.399,bars,2023.2.3,Win32,20.57613169,657b66ea316d21385b68909f,,,,,,,,,,,1060.8906,1061.9055,,,1062.4196,1062.618,,39,219,,,,,,,,,,,,,,,,bars/010.png,bars/mask000.png,,,,,,,,,,,,5,2,,,,,,,0,10,0,10,,,,,,,,,,,1061.9055,1062.4196,1062.6181,1067.4437,space,4.7649,,1067.4437,54,16,1068.4486,1068.4486,1069.4502,space,0.9364,,0,32,32,32,1,165,55,,,,,,,,
,,65745708518a6ec1b4773387,65af701bca620457d06d5c8f,2024-01-23_09h04.02.399,bars,2023.2.3,Win32,20.57613169,657b66ea316d21385b68909f,,,,,,,,,,,1069.4503,1070.4372,,,1070.9291,1071.1292,,55,55,,,,,,,,,,,,,,,,bars/010.png,bars/mask006.png,,,,,,,,,,,,9,2,,,,,,,0,10,0,9,,,,,,,,,,,1070.4374,1070.9291,1071.1292,1078.7722,space,7.5834,,1078.7722,70,0,1079.7379,1079.7379,1091.1986,space,11.3991,,0,33,33,33,1,165,55,,,,,,,,
,,65745708518a6ec1b4773387,65af701bca620457d06d5c8f,2024-01-23_09h04.02.399,bars,2023.2.3,Win32,20.57613169,657b66ea316d21385b68909f,,,,,,,,,,,1091.2032,1092.201,,,1092.6556,1092.8994,,90,90,,,,,,,,,,,,,,,,bars/046.png,bars/mask001.png,,,,,,,,,,,,6,2,,,,,,,2,8,1,7,,,,,,,,,,,1092.201,1092.6556,1092.8994,1096.7907,space,3.8353,,1096.7907,65,5,1097.7669,1097.767,1098.7326,space,0.9044,,0,34,34,34,1,155,85,,,,,,,,
,,65745708518a6ec1b4773387,65af701bca620457d06d5c8f,2024-01-23_09h04.02.399,bars,2023.2.3,Win32,20.57613169,657b66ea316d21385b68909f,,,,,,,,,,,1098.7328,1099.7066,,,1100.2229,1100.4881,,55,55,,,,,,,,,,,,,,,,bars/027.png,bars/mask002.png,,,,,,,,,,,,6,2,,,,,,,0,6,0,7,,,,,,,,,,,1099.7066,1100.2229,1100.4881,1103.1664,space,2.6176,,1103.1664,55,5,1104.1259,1104.1259,1104.886,space,0.6893,,0,35,35,35,1,110,50,,,,,,,,
,,65745708518a6ec1b4773387,65af701bca620457d06d5c8f,2024-01-23_09h04.02.399,bars,2023.2.3,Win32,20.57613169,657b66ea316d21385b68909f,,,,,,,,,,,1104.8862,1105.8418,,,1106.2971,1106.4977,,50,50,,,,,,,,,,,,,,,,bars/011.png,bars/mask006.png,,,,,,,,,,,,0,2,,,,,,,0,8,2,8,,,,,,,,,,,1105.8419,1106.297,1106.4977,1113.5963,space,7.0322,,1113.5963,70,35,1114.5578,1114.5578,1115.3203,space,0.6837,,0,36,36,36,1,160,85,,,,,,,,
,,65745708518a6ec1b4773387,65af701bca620457d06d5c8f,2024-01-23_09h04.02.399,bars,2023.2.3,Win32,20.57613169,657b66ea316d21385b68909f,,,,,,,,,,,1115.3204,1116.3,,,1116.7826,1117.0375,,126,126,,,,,,,,,,,,,,,,bars/028.png,bars/mask007.png,,,,,,,,,,,,6,2,,,,,,,0,6,0,7,,,,,,,,,,,1116.3,1116.7826,1117.0376,1121.3719,space,4.2664,,1121.3719,81,6,1122.333,1122.333,1234.5663,space,112.1716,,0,37,37,37,1,45,120,,,,,,,,
,,65745708518a6ec1b4773387,65af701bca620457d06d5c8f,2024-01-23_09h04.02.399,bars,2023.2.3,Win32,20.57613169,657b66ea316d21385b68909f,,,,,,,,,,,1234.5708,1235.5701,,,1236.0543,1236.2937,,151,-29,,,,,,,,,,,,,,,,bars/049.png,bars/mask005.png,,,,,,,,,,,,1,1,,,,,,,0,8,1,9,,,,,,,,,,,1235.5702,1236.0543,1236.2937,1242.3478,space,5.9862,,1242.3478,9,36,1243.3341,1243.3341,1251.4568,space,8.049,,0,38,38,38,1,160,115,,,,,,,,
,,65745708518a6ec1b4773387,65af701bca620457d06d5c8f,2024-01-23_09h04.02.399,bars,2023.2.3,Win32,20.57613169,657b66ea316d21385b68909f,,,,,,,,,,,1251.4614,1252.4149,,,1252.879,1253.1478,,141,141,,,,,,,,,,,,,,,,bars/004.png,bars/mask001.png,,,,,,,,,,,,3,2,,,,,,,2,6,2,7,,,,,,,,,,,1252.4149,1252.879,1253.1478,1255.1291,space,1.9213,,1255.1291,64,16,1256.127,1256.127,1257.0064,space,0.8205,,0,39,39,39,1,25,125,,,,,,,,
,,65745708518a6ec1b4773387,65af701bca620457d06d5c8f,2024-01-23_09h04.02.399,bars,2023.2.3,Win32,20.57613169,657b66ea316d21385b68909f,,,,,,,,,,,1257.0065,1257.9906,,,1258.497,1258.74,,132,132,,,,,,,,,,,,,,,,bars/041.png,bars/mask007.png,,,,,,,,,,,,0,2,,,,,,,4,4,5,3,,,,,,,,,,,1257.9906,1258.497,1258.74,1261.7264,space,2.9202,,1261.7264,68,47,1262.7409,1262.7409,1265.6804,space,2.8766,,0,40,40,40,1,20,85,,,,,,,,
,,65745708518a6ec1b4773387,65af701bca620457d06d5c8f,2024-01-23_09h04.02.399,bars,2023.2.3,Win32,20.57613169,657b66ea316d21385b68909f,,,,,,,,,,,1265.6806,1266.6515,,,1267.1453,1267.3996,,1,181,,,,,,,,,,,,,,,,bars/045.png,bars/mask002.png,,,,,,,,,,,,5,2,,,,,,,2,6,1,7,,,,,,,,,,,1266.6515,1267.1453,1267.3997,1273.84,space,6.381,,1273.84,81,9,1274.7967,1274.7967,1295.4305,space,20.5726,,0,41,41,41,1,100,10,,,,,,,,
,,65745708518a6ec1b4773387,65af701bca620457d06d5c8f,2024-01-23_09h04.02.399,bars,2023.2.3,Win32,20.57613169,657b66ea316d21385b68909f,,,,,,,,,,,1295.4307,1296.4071,,,1296.9048,1297.1596,,44,44,,,,,,,,,,,,,,,,bars/017.png,bars/mask005.png,,,,,,,,,,,,3,2,,,,,,,4,4,3,3,,,,,,,,,,,1296.4071,1296.9048,1297.1596,1301.136,space,3.9152,,1301.136,79,1,1302.1033,1302.1034,1303.6405,space,1.4786,,0,42,42,42,1,145,45,,,,,,,,
,,65745708518a6ec1b4773387,65af701bca620457d06d5c8f,2024-01-23_09h04.02.399,bars,2023.2.3,Win32,20.57613169,657b66ea316d21385b68909f,,,,,,,,,,,1303.6407,1304.6225,,,1305.133,1305.3325,,102,102,,,,,,,,,,,,,,,,bars/019.png,bars/mask009.png,,,,,,,,,,,,5,2,,,,,,,2,6,4,6,,,,,,,,,,,1304.6226,1305.133,1305.3325,1312.107,space,6.7084,,1312.107,57,3,1313.0754,1313.0754,1314.9602,space,1.8254,,0,43,43,43,1,45,105,,,,,,,,
,,65745708518a6ec1b4773387,65af701bca620457d06d5c8f,2024-01-23_09h04.02.399,bars,2023.2.3,Win32,20.57613169,657b66ea316d21385b68909f,,,,,,,,,,,1314.9604,1315.9482,,,1316.4099,1316.6543,,171,-9,,,,,,,,,,,,,,,,bars/024.png,bars/mask002.png,,,,,,,,,,,,8,2,,,,,,,0,8,0,8,,,,,,,,,,,1315.9482,1316.4099,1316.6543,1321.5687,space,4.8551,,1321.5687,51,1,1322.5325,1322.5326,1323.4542,space,0.8549,,0,44,44,44,1,120,170,,,,,,,,
,,65745708518a6ec1b4773387,65af701bca620457d06d5c8f,2024-01-23_09h04.02.399,bars,2023.2.3,Win32,20.57613169,657b66ea316d21385b68909f,,,,,,,,,,,1323.4544,1324.4107,,,1324.9036,1325.1031,,138,138,,,,,,,,,,,,,,,,bars/049.png,bars/mask008.png,,,,,,,,,,,,0,1,,,,,,,2,6,1,7,,,,,,,,,,,1324.4107,1324.9036,1325.1031,1328.6634,space,3.5038,,1328.6635,22,23,1329.6462,1329.6462,1334.1384,space,4.4221,,0,45,45,45,1,160,115,,,,,,,,
,,65745708518a6ec1b4773387,65af701bca620457d06d5c8f,2024-01-23_09h04.02.399,bars,2023.2.3,Win32,20.57613169,657b66ea316d21385b68909f,,,,,,,,,,,1334.1428,1335.1375,,,1335.6226,1335.8769,,82,82,,,,,,,,,,,,,,,,bars/009.png,bars/mask003.png,,,,,,,,,,,,1,2,,,,,,,0,4,0,4,,,,,,,,,,,1335.1376,1335.6226,1335.877,1339.5944,space,3.666,,1339.5944,67,23,1340.5643,1340.5643,1342.692,space,2.0512,,0,46,46,46,1,15,105,,,,,,,,
,,65745708518a6ec1b4773387,65af701bca620457d06d5c8f,2024-01-23_09h04.02.399,bars,2023.2.3,Win32,20.57613169,657b66ea316d21385b68909f,,,,,,,,,,,1342.6922,1343.6498,,,1344.1518,1344.398,,113,113,,,,,,,,,,,,,,,,bars/006.png,bars/mask000.png,,,,,,,,,,,,3,2,,,,,,,2,6,2,6,,,,,,,,,,,1343.6498,1344.1518,1344.3981,1348.4088,space,3.9428,,1348.4088,78,13,1349.3816,1349.3816,1350.1685,space,0.723,,0,47,47,47,1,35,100,,,,,,,,
,,65745708518a6ec1b4773387,65af701bca620457d06d5c8f,2024-01-23_09h04.02.399,bars,2023.2.3,Win32,20.57613169,657b66ea316d21385b68909f,,,,,,,,,,,1350.1688,1351.1273,,,1351.6267,1351.8663,,144,-36,,,,,,,,,,,,,,,,bars/000.png,bars/mask004.png,,,,,,,,,,,,3,2,,,,,,,0,4,0,3,,,,,,,,,,,1351.1273,1351.6267,1351.8663,1355.7728,space,3.8485,,1355.7728,76,1,1356.7522,1356.7522,1358.5258,space,1.7103,,0,48,48,48,1,40,145,,,,,,,,
,,65745708518a6ec1b4773387,65af701bca620457d06d5c8f,2024-01-23_09h04.02.399,bars,2023.2.3,Win32,20.57613169,657b66ea316d21385b68909f,,,,,,,,,,,1358.526,1359.4955,,,1359.9513,1360.1937,,39,219,,,,,,,,,,,,,,,,bars/025.png,bars/mask003.png,,,,,,,,,,,,3,2,,,,,,,2,2,2,3,,,,,,,,,,,1359.4955,1359.9513,1360.1937,1363.7917,space,3.5306,,1363.7918,66,1,1364.7759,1364.7759,1365.3756,space,0.534,,0,49,49,49,1,105,40,,,,,,,,
,,65745708518a6ec1b4773387,65af701bca620457d06d5c8f,2024-01-23_09h04.02.399,bars,2023.2.3,Win32,20.57613169,657b66ea316d21385b68909f,,,,,,,,,,,,,,,,,,,,,,,,,,,,,,,,,,,,,,,,,,,,,,,,,,,,,,,,,,,,,,,,,,,,,,,,,,,,,,,,,,,,,,,,,,,,,1365.3759,1425.3635,0,0,0,3,1,sequence_tables/blk043.csv
,,65745708518a6ec1b4773387,65af701bca620457d06d5c8f,2024-01-23_09h04.02.399,bars,2023.2.3,Win32,20.57613169,657b66ea316d21385b68909f,,,,,,,,,,,1498.8174,1499.777,,,1500.2254,1500.4686,,45,45,,,,,,,,,,,,,,,,bars/004.png,bars/mask002.png,,,,,,,,,,,,3,1,,,,,,,8,4,8,5,,,,,,1425.3681,1498.8104,space,73.3888,,1499.777,1500.2253,1500.4686,1503.767,space,3.24,,1503.767,20,80,1504.7485,1504.7485,1504.7535,,,,0,0,0,0,1,25,125,,,,,,,,
,,65745708518a6ec1b4773387,65af701bca620457d06d5c8f,2024-01-23_09h04.02.399,bars,2023.2.3,Win32,20.57613169,657b66ea316d21385b68909f,,,,,,,,,,,1504.7536,1505.7395,,,1506.2459,1506.5097,,96,96,,,,,,,,,,,,,,,,bars/013.png,bars/mask008.png,,,,,,,,,,,,3,1,,,,,,,10,6,10,8,,,,,,,,,,,1505.7395,1506.2459,1506.5097,1510.56,space,3.9886,,1510.56,21,86,1511.5661,1511.5661,1511.5666,,,,0,1,1,1,1,75,10,,,,,,,,
,,65745708518a6ec1b4773387,65af701bca620457d06d5c8f,2024-01-23_09h04.02.399,bars,2023.2.3,Win32,20.57613169,657b66ea316d21385b68909f,,,,,,,,,,,1511.5667,1512.5471,,,1513.0493,1513.2991,,147,147,,,,,,,,,,,,,,,,bars/015.png,bars/mask009.png,,,,,,,,,,,,3,2,,,,,,,10,4,10,5,,,,,,,,,,,1512.5471,1513.0492,1513.2991,1515.8153,space,2.4537,,1515.8153,37,13,1516.783,1516.783,1516.7838,,,,0,2,2,2,1,110,160,,,,,,,,
,,65745708518a6ec1b4773387,65af701bca620457d06d5c8f,2024-01-23_09h04.02.399,bars,2023.2.3,Win32,20.57613169,657b66ea316d21385b68909f,,,,,,,,,,,1516.784,1517.7509,,,1518.2617,1518.5134,,109,109,,,,,,,,,,,,,,,,bars/024.png,bars/mask001.png,,,,,,,,,,,,5,1,,,,,,,8,6,8,5,,,,,,,,,,,1517.7509,1518.2617,1518.5135,1524.6554,space,6.0846,,1524.6554,11,61,1525.6718,1525.6718,1525.6726,,,,0,3,3,3,1,120,170,,,,,,,,
,,65745708518a6ec1b4773387,65af701bca620457d06d5c8f,2024-01-23_09h04.02.399,bars,2023.2.3,Win32,20.57613169,657b66ea316d21385b68909f,,,,,,,,,,,1525.6728,1526.637,,,1527.121,1527.3727,,108,108,,,,,,,,,,,,,,,,bars/002.png,bars/mask003.png,,,,,,,,,,,,3,1,,,,,,,10,8,10,9,,,,,,,,,,,1526.637,1527.121,1527.3727,1531.0926,space,3.6572,,1531.0926,22,23,1532.0998,1532.0998,1532.1002,,,,0,4,4,4,1,130,85,,,,,,,,
,,65745708518a6ec1b4773387,65af701bca620457d06d5c8f,2024-01-23_09h04.02.399,bars,2023.2.3,Win32,20.57613169,657b66ea316d21385b68909f,,,,,,,,,,,1532.1004,1533.0769,,,1533.5936,1533.8592,,114,114,,,,,,,,,,,,,,,,bars/025.png,bars/mask005.png,,,,,,,,,,,,6,1,,,,,,,8,10,8,10,,,,,,,,,,,1533.0769,1533.5936,1533.8592,1535.2757,space,1.3627,,1535.2757,9,74,1536.2726,1536.2726,1536.273,,,,0,5,5,5,1,105,40,,,,,,,,
,,65745708518a6ec1b4773387,65af701bca620457d06d5c8f,2024-01-23_09h04.02.399,bars,2023.2.3,Win32,20.57613169,657b66ea316d21385b68909f,,,,,,,,,,,1536.2731,1537.2179,,,1537.6651,1537.8701,,15,15,,,,,,,,,,,,,,,,bars/007.png,bars/mask002.png,,,,,,,,,,,,3,1,,,,,,,10,10,10,10,,,,,,,,,,,1537.2179,1537.6651,1537.8701,1541.2893,space,3.3615,,1541.2893,20,40,1542.2604,1542.2604,1542.2648,,,,0,6,6,6,1,175,55,,,,,,,,
,,65745708518a6ec1b4773387,65af701bca620457d06d5c8f,2024-01-23_09h04.02.399,bars,2023.2.3,Win32,20.57613169,657b66ea316d21385b68909f,,,,,,,,,,,1542.2649,1543.2244,,,1543.6844,1543.9378,,30,30,,,,,,,,,,,,,,,,bars/016.png,bars/mask007.png,,,,,,,,,,,,5,1,,,,,,,8,10,7,10,,,,,,,,,,,1543.2244,1543.6844,1543.9379,1544.0595,space,0.0633,,1544.0596,10,45,1545.0519,1545.0519,1545.0524,,,,0,7,7,7,1,40,165,,,,,,,,
,,65745708518a6ec1b4773387,65af701bca620457d06d5c8f,2024-01-23_09h04.02.399,bars,2023.2.3,Win32,20.57613169,657b66ea316d21385b68909f,,,,,,,,,,,1545.0525,1546.0683,,,1546.5332,1546.7762,,159,159,,,,,,,,,,,,,,,,bars/018.png,bars/mask008.png,,,,,,,,,,,,4,1,,,,,,,6,10,6,10,,,,,,,,,,,1546.0683,1546.5332,1546.7763,1547.1485,space,0.3168,,1547.1485,9,69,1548.1491,1548.1492,1548.1496,,,,0,8,8,8,1,150,90,,,,,,,,
,,65745708518a6ec1b4773387,65af701bca620457d06d5c8f,2024-01-23_09h04.02.399,bars,2023.2.3,Win32,20.57613169,657b66ea316d21385b68909f,,,,,,,,,,,1548.1497,1549.1161,,,1549.6286,1549.8767,,165,165,,,,,,,,,,,,,,,,bars/019.png,bars/mask003.png,,,,,,,,,,,,0,2,,,,,,,8,8,8,8,,,,,,,,,,,1549.1161,1549.6286,1549.8767,1550.3557,space,0.4241,,1550.3557,60,60,1551.3368,1551.3368,1551.3377,,,,0,9,9,9,1,45,105,,,,,,,,
,,65745708518a6ec1b4773387,65af701bca620457d06d5c8f,2024-01-23_09h04.02.399,bars,2023.2.3,Win32,20.57613169,657b66ea316d21385b68909f,,,,,,,,,,,1551.3377,1552.3503,,,1552.8577,1553.117,,162,162,,,,,,,,,,,,,,,,bars/024.png,bars/mask000.png,,,,,,,,,,,,7,2,,,,,,,6,10,4,10,,,,,,,,,,,1552.3503,1552.8577,1553.117,1553.6077,space,0.4322,,1553.6077,42,8,1554.5793,1554.5793,1554.5797,,,,0,10,10,10,1,120,170,,,,,,,,
,,65745708518a6ec1b4773387,65af701bca620457d06d5c8f,2024-01-23_09h04.02.399,bars,2023.2.3,Win32,20.57613169,657b66ea316d21385b68909f,,,,,,,,,,,1554.5798,1555.5363,,,1556.0113,1556.2103,,99,99,,,,,,,,,,,,,,,,bars/020.png,bars/mask005.png,,,,,,,,,,,,1,1,,,,,,,4,8,3,10,,,,,,,,,,,1555.5363,1556.0113,1556.2104,1628.1805,space,71.9084,,1628.1805,16,71,1629.1917,1629.1917,1629.1972,,,,0,11,11,11,1,115,170,,,,,,,,
,,65745708518a6ec1b4773387,65af701bca620457d06d5c8f,2024-01-23_09h04.02.399,bars,2023.2.3,Win32,20.57613169,657b66ea316d21385b68909f,,,,,,,,,,,1629.1972,1630.169,,,1630.667,1630.9182,,103,103,,,,,,,,,,,,,,,,bars/007.png,bars/mask006.png,,,,,,,,,,,,0,2,,,,,,,6,6,6,5,,,,,,,,,,,1630.169,1630.667,1630.9182,1631.0484,space,0.0727,,1631.0484,72,48,1632.0103,1632.0103,1632.0113,,,,0,12,12,12,1,175,55,,,,,,,,
,,65745708518a6ec1b4773387,65af701bca620457d06d5c8f,2024-01-23_09h04.02.399,bars,2023.2.3,Win32,20.57613169,657b66ea316d21385b68909f,,,,,,,,,,,1632.0114,1633.0018,,,1633.4708,1633.7257,,91,91,,,,,,,,,,,,,,,,bars/011.png,bars/mask006.png,,,,,,,,,,,,6,2,,,,,,,8,8,7,7,,,,,,,,,,,1633.0019,1633.4708,1633.7257,1638.9318,space,5.1515,,1638.9318,69,6,1639.8978,1639.8978,1639.9026,,,,0,13,13,13,1,160,85,,,,,,,,
,,65745708518a6ec1b4773387,65af701bca620457d06d5c8f,2024-01-23_09h04.02.399,bars,2023.2.3,Win32,20.57613169,657b66ea316d21385b68909f,,,,,,,,,,,1639.9027,1640.8894,,,1641.37,1641.5727,,53,53,,,,,,,,,,,,,,,,bars/011.png,bars/mask007.png,,,,,,,,,,,,0,2,,,,,,,6,10,6,10,,,,,,,,,,,1640.8895,1641.37,1641.5727,1642.1579,space,0.5241,,1642.1579,73,32,1643.1432,1643.1432,1643.1436,,,,0,14,14,14,1,160,85,,,,,,,,
,,65745708518a6ec1b4773387,65af701bca620457d06d5c8f,2024-01-23_09h04.02.399,bars,2023.2.3,Win32,20.57613169,657b66ea316d21385b68909f,,,,,,,,,,,1643.1437,1644.1194,,,1644.5827,1644.7904,,157,157,,,,,,,,,,,,,,,,bars/029.png,bars/mask000.png,,,,,,,,,,,,0,1,,,,,,,4,10,5,10,,,,,,,,,,,1644.1194,1644.5827,1644.7904,1644.8569,space,0.0047,,1644.8569,67,68,1645.8708,1645.8708,1645.8718,,,,0,15,15,15,1,90,45,,,,,,,,
,,65745708518a6ec1b4773387,65af701bca620457d06d5c8f,2024-01-23_09h04.02.399,bars,2023.2.3,Win32,20.57613169,657b66ea316d21385b68909f,,,,,,,,,,,1645.8719,1646.8839,,,1647.3465,1647.6097,,127,127,,,,,,,,,,,,,,,,bars/000.png,bars/mask003.png,,,,,,,,,,,,3,2,,,,,,,2,8,3,7,,,,,,,,,,,1646.8839,1647.3464,1647.6097,1648.0676,space,0.4,,1648.0676,87,18,1649.0496,1649.0497,1649.0505,,,,0,16,16,16,1,40,145,,,,,,,,
,,65745708518a6ec1b4773387,65af701bca620457d06d5c8f,2024-01-23_09h04.02.399,bars,2023.2.3,Win32,20.57613169,657b66ea316d21385b68909f,,,,,,,,,,,1649.0507,1650.054,,,1650.5586,1650.7689,,102,102,,,,,,,,,,,,,,,,bars/023.png,bars/mask009.png,,,,,,,,,,,,4,2,,,,,,,4,6,4,7,,,,,,,,,,,1650.0541,1650.5586,1650.7689,1651.2877,space,0.4561,,1651.2878,82,13,1652.2722,1652.2722,1652.2726,,,,0,17,17,17,1,20,115,,,,,,,,
,,65745708518a6ec1b4773387,65af701bca620457d06d5c8f,2024-01-23_09h04.02.399,bars,2023.2.3,Win32,20.57613169,657b66ea316d21385b68909f,,,,,,,,,,,1652.2727,1653.2604,,,1653.7263,1653.9826,,102,102,,,,,,,,,,,,,,,,bars/036.png,bars/mask006.png,,,,,,,,,,,,0,1,,,,,,,6,4,6,5,,,,,,,,,,,1653.2604,1653.7263,1653.9826,1654.5064,space,0.4605,,1654.5064,43,82,1655.482,1655.482,1655.4829,,,,0,18,18,18,1,145,20,,,,,,,,
,,65745708518a6ec1b4773387,65af701bca620457d06d5c8f,2024-01-23_09h04.02.399,bars,2023.2.3,Win32,20.57613169,657b66ea316d21385b68909f,,,,,,,,,,,1655.483,1656.4485,,,1656.9062,1657.1114,,70,70,,,,,,,,,,,,,,,,bars/048.png,bars/mask006.png,,,,,,,,,,,,1,1,,,,,,,4,2,3,3,,,,,,,,,,,1656.4486,1656.9061,1657.1114,1660.3716,space,3.1898,,1660.3716,20,75,1661.3628,1661.3628,1661.3675,,,,0,19,19,19,1,50,175,,,,,,,,
,,65745708518a6ec1b4773387,65af701bca620457d06d5c8f,2024-01-23_09h04.02.399,bars,2023.2.3,Win32,20.57613169,657b66ea316d21385b68909f,,,,,,,,,,,1661.3677,1662.3211,,,1662.7985,1663.0025,,4,4,,,,,,,,,,,,,,,,bars/021.png,bars/mask007.png,,,,,,,,,,,,0,1,,,,,,,2,0,1,0,,,,,,,,,,,1662.3211,1662.7985,1663.0025,1664.001,space,0.9349,,1664.001,29,66,1664.9643,1664.9643,1664.9648,,,,0,20,20,20,1,155,70,,,,,,,,
,,65745708518a6ec1b4773387,65af701bca620457d06d5c8f,2024-01-23_09h04.02.399,bars,2023.2.3,Win32,20.57613169,657b66ea316d21385b68909f,,,,,,,,,,,1664.9649,1665.9244,,,1666.3853,1666.6045,,88,88,,,,,,,,,,,,,,,,bars/002.png,bars/mask009.png,,,,,,,,,,,,0,2,,,,,,,4,0,5,0,,,,,,,,,,,1665.9244,1666.3853,1666.6045,1670.2085,space,3.5437,,1670.2085,42,3,1671.2075,1671.2075,1671.2123,,,,0,21,21,21,1,130,85,,,,,,,,
,,65745708518a6ec1b4773387,65af701bca620457d06d5c8f,2024-01-23_09h04.02.399,bars,2023.2.3,Win32,20.57613169,657b66ea316d21385b68909f,,,,,,,,,,,1671.2124,1672.1897,,,1672.6617,1672.9097,,122,122,,,,,,,,,,,,,,,,bars/008.png,bars/mask005.png,,,,,,,,,,,,3,1,,,,,,,6,0,5,0,,,,,,,,,,,1672.1897,1672.6616,1672.9097,1676.5469,space,3.5776,,1676.5469,12,58,1677.5253,1677.5253,1677.5261,,,,0,22,22,22,1,110,0,,,,,,,,
,,65745708518a6ec1b4773387,65af701bca620457d06d5c8f,2024-01-23_09h04.02.399,bars,2023.2.3,Win32,20.57613169,657b66ea316d21385b68909f,,,,,,,,,,,1677.5263,1678.5117,,,1679.0256,1679.2782,,139,139,,,,,,,,,,,,,,,,bars/049.png,bars/mask000.png,,,,,,,,,,,,2,1,,,,,,,8,0,8,0,,,,,,,,,,,1678.5117,1679.0255,1679.2782,1680.2891,space,0.9482,,1680.2891,21,24,1681.2907,1681.2907,1681.291,,,,0,23,23,23,1,160,115,,,,,,,,
,,65745708518a6ec1b4773387,65af701bca620457d06d5c8f,2024-01-23_09h04.02.399,bars,2023.2.3,Win32,20.57613169,657b66ea316d21385b68909f,,,,,,,,,,,1681.2911,1682.2992,,,1682.7593,1683.0153,,82,82,,,,,,,,,,,,,,,,bars/048.png,bars/mask004.png,,,,,,,,,,,,0,1,,,,,,,10,0,10,2,,,,,,,,,,,1682.2992,1682.7593,1683.0153,1683.6226,space,0.5487,,1683.6226,32,87,1684.5886,1684.5886,1684.589,,,,0,24,24,24,1,50,175,,,,,,,,
,,65745708518a6ec1b4773387,65af701bca620457d06d5c8f,2024-01-23_09h04.02.399,bars,2023.2.3,Win32,20.57613169,657b66ea316d21385b68909f,,,,,,,,,,,1684.5891,1685.5615,,,1686.0172,1686.2612,,92,92,,,,,,,,,,,,,,,,bars/016.png,bars/mask007.png,,,,,,,,,,,,0,1,,,,,,,10,2,10,3,,,,,,,,,,,1685.5615,1686.0172,1686.2612,1686.946,space,0.6277,,1686.946,52,73,1687.9606,1687.9606,1687.961,,,,0,25,25,25,1,40,165,,,,,,,,
,,65745708518a6ec1b4773387,65af701bca620457d06d5c8f,2024-01-23_09h04.02.399,bars,2023.2.3,Win32,20.57613169,657b66ea316d21385b68909f,,,,,,,,,,,1687.9611,1688.9361,,,1689.4279,1689.7039,,95,95,,,,,,,,,,,,,,,,bars/025.png,bars/mask005.png,,,,,,,,,,,,5,1,,,,,,,8,4,7,3,,,,,,,,,,,1688.9361,1689.4278,1689.7039,1690.0328,space,0.2673,,1690.0329,10,55,1690.9888,1690.9888,1690.9892,,,,0,26,26,26,1,105,40,,,,,,,,
,,65745708518a6ec1b4773387,65af701bca620457d06d5c8f,2024-01-23_09h04.02.399,bars,2023.2.3,Win32,20.57613169,657b66ea316d21385b68909f,,,,,,,,,,,1690.9893,1692.0028,,,1692.4874,1692.7483,,43,43,,,,,,,,,,,,,,,,bars/049.png,bars/mask004.png,,,,,,,,,,,,0,1,,,,,,,6,2,7,2,,,,,,,,,,,1692.0028,1692.4873,1692.7483,1693.2901,space,0.48,,1693.2901,63,72,1694.2685,1694.2685,1694.2689,,,,0,27,27,27,1,160,115,,,,,,,,
,,65745708518a6ec1b4773387,65af701bca620457d06d5c8f,2024-01-23_09h04.02.399,bars,2023.2.3,Win32,20.57613169,657b66ea316d21385b68909f,,,,,,,,,,,1694.2691,1695.2598,,,1695.7659,1695.9688,,22,22,,,,,,,,,,,,,,,,bars/038.png,bars/mask005.png,,,,,,,,,,,,0,1,,,,,,,4,0,3,1,,,,,,,,,,,1695.2598,1695.7659,1695.9688,1696.4582,space,0.4234,,1696.4583,37,48,1697.4505,1697.4505,1697.4509,,,,0,28,28,28,1,165,70,,,,,,,,
,,65745708518a6ec1b4773387,65af701bca620457d06d5c8f,2024-01-23_09h04.02.399,bars,2023.2.3,Win32,20.57613169,657b66ea316d21385b68909f,,,,,,,,,,,1697.4511,1698.4324,,,1698.8922,1699.1491,,66,66,,,,,,,,,,,,,,,,bars/020.png,bars/mask008.png,,,,,,,,,,,,0,1,,,,,,,6,2,6,1,,,,,,,,,,,1698.4324,1698.8922,1699.1492,1699.5736,space,0.366,,1699.5736,49,76,1700.589,1700.5891,1700.5896,,,,0,29,29,29,1,115,170,,,,,,,,
,,65745708518a6ec1b4773387,65af701bca620457d06d5c8f,2024-01-23_09h04.02.399,bars,2023.2.3,Win32,20.57613169,657b66ea316d21385b68909f,,,,,,,,,,,1700.5896,1701.5586,,,1702.0658,1702.3099,,153,153,,,,,,,,,,,,,,,,bars/003.png,bars/mask006.png,,,,,,,,,,,,1,2,,,,,,,4,0,2,1,,,,,,,,,,,1701.5586,1702.0658,1702.3099,1702.8627,space,0.4868,,1702.8627,52,13,1703.8677,1703.8678,1703.8687,,,,0,30,30,30,1,25,140,,,,,,,,
,,65745708518a6ec1b4773387,65af701bca620457d06d5c8f,2024-01-23_09h04.02.399,bars,2023.2.3,Win32,20.57613169,657b66ea316d21385b68909f,,,,,,,,,,,1703.8687,1704.8407,,,1705.3027,1705.5498,,81,81,,,,,,,,,,,,,,,,bars/019.png,bars/mask005.png,,,,,,,,,,,,1,2,,,,,,,2,2,1,3,,,,,,,,,,,1704.8408,1705.3027,1705.5498,1710.3255,space,4.722,,1710.3256,36,24,1711.2908,1711.2908,1711.2955,,,,0,31,31,31,1,45,105,,,,,,,,
,,65745708518a6ec1b4773387,65af701bca620457d06d5c8f,2024-01-23_09h04.02.399,bars,2023.2.3,Win32,20.57613169,657b66ea316d21385b68909f,,,,,,,,,,,1711.2956,1712.2551,,,1712.7387,1712.9862,,167,167,,,,,,,,,,,,,,,,bars/032.png,bars/mask004.png,,,,,,,,,,,,0,2,,,,,,,4,4,3,4,,,,,,,,,,,1712.2552,1712.7386,1712.9862,1713.6559,space,0.6118,,1713.6559,42,33,1714.6703,1714.6703,1714.6707,,,,0,32,32,32,1,125,20,,,,,,,,
,,65745708518a6ec1b4773387,65af701bca620457d06d5c8f,2024-01-23_09h04.02.399,bars,2023.2.3,Win32,20.57613169,657b66ea316d21385b68909f,,,,,,,,,,,1714.6708,1715.6751,,,1716.1687,1716.4204,,124,124,,,,,,,,,,,,,,,,bars/024.png,bars/mask005.png,,,,,,,,,,,,3,1,,,,,,,6,6,4,4,,,,,,,,,,,1715.6752,1716.1687,1716.4204,1719.3226,space,2.8413,,1719.3226,4,46,1720.294,1720.294,1720.2989,,,,0,33,33,33,1,120,170,,,,,,,,
,,65745708518a6ec1b4773387,65af701bca620457d06d5c8f,2024-01-23_09h04.02.399,bars,2023.2.3,Win32,20.57613169,657b66ea316d21385b68909f,,,,,,,,,,,1720.2991,1721.2845,,,1721.7843,1722.0472,,115,115,,,,,,,,,,,,,,,,bars/020.png,bars/mask006.png,,,,,,,,,,,,4,1,,,,,,,4,8,4,8,,,,,,,,,,,1721.2845,1721.7843,1722.0472,1723.6519,space,1.5447,,1723.652,0,55,1724.616,1724.616,1724.6164,,,,0,34,34,34,1,115,170,,,,,,,,
,,65745708518a6ec1b4773387,65af701bca620457d06d5c8f,2024-01-23_09h04.02.399,bars,2023.2.3,Win32,20.57613169,657b66ea316d21385b68909f,,,,,,,,,,,1724.6165,1725.5813,,,1726.0779,1726.3188,,89,89,,,,,,,,,,,,,,,,bars/013.png,bars/mask004.png,,,,,,,,,,,,1,1,,,,,,,2,10,1,9,,,,,,,,,,,1725.5813,1726.0779,1726.3189,1728.9841,space,2.6093,,1728.9841,14,79,1729.9828,1729.9828,1729.9833,,,,0,35,35,35,1,75,10,,,,,,,,
,,65745708518a6ec1b4773387,65af701bca620457d06d5c8f,2024-01-23_09h04.02.399,bars,2023.2.3,Win32,20.57613169,657b66ea316d21385b68909f,,,,,,,,,,,1729.9833,1730.9619,,,1731.4539,1731.7011,,27,207,,,,,,,,,,,,,,,,bars/033.png,bars/mask000.png,,,,,,,,,,,,3,1,,,,,,,4,8,3,8,,,,,,,,,,,1730.9619,1731.4539,1731.7011,1735.9992,space,4.2363,,1735.9993,2,52,1736.9578,1736.9578,1736.9582,,,,0,36,36,36,1,25,155,,,,,,,,
,,65745708518a6ec1b4773387,65af701bca620457d06d5c8f,2024-01-23_09h04.02.399,bars,2023.2.3,Win32,20.57613169,657b66ea316d21385b68909f,,,,,,,,,,,1736.9583,1737.9375,,,1738.4513,1738.7065,,129,-51,,,,,,,,,,,,,,,,bars/034.png,bars/mask009.png,,,,,,,,,,,,2,1,,,,,,,2,6,2,5,,,,,,,,,,,1737.9376,1738.4513,1738.7065,1744.084,space,5.3178,,1744.084,4,64,1745.0949,1745.0949,1745.0996,,,,0,37,37,37,1,125,65,,,,,,,,
,,65745708518a6ec1b4773387,65af701bca620457d06d5c8f,2024-01-23_09h04.02.399,bars,2023.2.3,Win32,20.57613169,657b66ea316d21385b68909f,,,,,,,,,,,1745.0996,1746.0562,,,1746.5581,1746.8137,,169,-11,,,,,,,,,,,,,,,,bars/018.png,bars/mask002.png,,,,,,,,,,,,1,1,,,,,,,4,8,4,10,,,,,,,,,,,1746.0562,1746.5581,1746.8137,1750.8506,space,3.9791,,1750.8506,19,79,1751.8157,1751.8157,1751.8201,,,,0,38,38,38,1,150,90,,,,,,,,
,,65745708518a6ec1b4773387,65af701bca620457d06d5c8f,2024-01-23_09h04.02.399,bars,2023.2.3,Win32,20.57613169,657b66ea316d21385b68909f,,,,,,,,,,,1751.8202,1752.7895,,,1753.2871,1753.4851,,127,-53,,,,,,,,,,,,,,,,bars/015.png,bars/mask002.png,,,,,,,,,,,,1,1,,,,,,,2,6,2,5,,,,,,,,,,,1752.7895,1753.287,1753.4851,1759.5937,space,6.0487,,1759.5937,17,33,1760.5629,1760.5629,1760.5675,,,,0,39,39,39,1,110,160,,,,,,,,
,,65745708518a6ec1b4773387,65af701bca620457d06d5c8f,2024-01-23_09h04.02.399,bars,2023.2.3,Win32,20.57613169,657b66ea316d21385b68909f,,,,,,,,,,,1760.5676,1761.5239,,,1762.0235,1762.2712,,4,4,,,,,,,,,,,,,,,,bars/046.png,bars/mask001.png,,,,,,,,,,,,0,1,,,,,,,4,8,2,7,,,,,,,,,,,1761.5239,1762.0235,1762.2713,1768.7679,space,6.4359,,1768.7679,29,81,1769.7658,1769.7658,1769.7702,,,,0,40,40,40,1,155,85,,,,,,,,
,,65745708518a6ec1b4773387,65af701bca620457d06d5c8f,2024-01-23_09h04.02.399,bars,2023.2.3,Win32,20.57613169,657b66ea316d21385b68909f,,,,,,,,,,,1769.7704,1770.7443,,,1771.248,1771.4515,,98,98,,,,,,,,,,,,,,,,bars/041.png,bars/mask004.png,,,,,,,,,,,,6,2,,,,,,,6,10,5,10,,,,,,,,,,,1770.7443,1771.248,1771.4515,1772.1874,space,0.6774,,1772.1875,78,13,1773.2127,1773.2127,1773.2136,,,,0,41,41,41,1,20,85,,,,,,,,
,,65745708518a6ec1b4773387,65af701bca620457d06d5c8f,2024-01-23_09h04.02.399,bars,2023.2.3,Win32,20.57613169,657b66ea316d21385b68909f,,,,,,,,,,,1773.2136,1774.1764,,,1774.6383,1774.89,,104,104,,,,,,,,,,,,,,,,bars/022.png,bars/mask004.png,,,,,,,,,,,,6,1,,,,,,,8,8,8,10,,,,,,,,,,,1774.1764,1774.6383,1774.89,1775.6204,space,0.6744,,1775.6204,9,84,1776.6273,1776.6273,1776.6281,,,,0,42,42,42,1,95,20,,,,,,,,
,,65745708518a6ec1b4773387,65af701bca620457d06d5c8f,2024-01-23_09h04.02.399,bars,2023.2.3,Win32,20.57613169,657b66ea316d21385b68909f,,,,,,,,,,,1776.6282,1777.5934,,,1778.1122,1778.3139,,63,63,,,,,,,,,,,,,,,,bars/042.png,bars/mask002.png,,,,,,,,,,,,4,2,,,,,,,10,6,10,6,,,,,,,,,,,1777.5935,1778.1122,1778.3139,1778.9084,space,0.5357,,1778.9084,82,12,1779.9117,1779.9117,1779.9126,,,,0,43,43,43,1,145,75,,,,,,,,
,,65745708518a6ec1b4773387,65af701bca620457d06d5c8f,2024-01-23_09h04.02.399,bars,2023.2.3,Win32,20.57613169,657b66ea316d21385b68909f,,,,,,,,,,,1779.9126,1780.8936,,,1781.3469,1781.6074,,174,174,,,,,,,,,,,,,,,,bars/015.png,bars/mask007.png,,,,,,,,,,,,3,2,,,,,,,8,4,10,5,,,,,,,,,,,1780.8936,1781.3468,1781.6074,1781.792,space,0.1261,,1781.792,64,14,1782.7644,1782.7644,1782.7649,,,,0,44,44,44,1,110,160,,,,,,,,
,,65745708518a6ec1b4773387,65af701bca620457d06d5c8f,2024-01-23_09h04.02.399,bars,2023.2.3,Win32,20.57613169,657b66ea316d21385b68909f,,,,,,,,,,,1782.765,1783.7239,,,1784.2463,1784.5016,,170,170,,,,,,,,,,,,,,,,bars/044.png,bars/mask007.png,,,,,,,,,,,,1,2,,,,,,,6,2,7,2,,,,,,,,,,,1783.724,1784.2463,1784.5017,1784.5696,space,0.0046,,1784.5696,85,15,1785.5446,1785.5446,1785.545,,,,0,45,45,45,1,75,155,,,,,,,,
,,65745708518a6ec1b4773387,65af701bca620457d06d5c8f,2024-01-23_09h04.02.399,bars,2023.2.3,Win32,20.57613169,657b66ea316d21385b68909f,,,,,,,,,,,1785.5451,1786.5219,,,1787.0282,1787.2839,,127,127,,,,,,,,,,,,,,,,bars/037.png,bars/mask007.png,,,,,,,,,,,,0,2,,,,,,,4,0,5,0,,,,,,,,,,,1786.522,1787.0282,1787.284,1787.8178,space,0.4754,,1787.8178,23,22,1788.8285,1788.8285,1788.8288,,,,0,46,46,46,1,150,105,,,,,,,,
,,65745708518a6ec1b4773387,65af701bca620457d06d5c8f,2024-01-23_09h04.02.399,bars,2023.2.3,Win32,20.57613169,657b66ea316d21385b68909f,,,,,,,,,,,1788.829,1789.8177,,,1790.3206,1790.5549,,38,38,,,,,,,,,,,,,,,,bars/044.png,bars/mask005.png,,,,,,,,,,,,0,1,,,,,,,2,2,2,2,,,,,,,,,,,1789.8177,1790.3206,1790.5549,1833.5848,space,42.9555,,1833.5848,37,63,1834.5611,1834.5611,1834.5665,,,,0,47,47,47,1,75,155,,,,,,,,
,,65745708518a6ec1b4773387,65af701bca620457d06d5c8f,2024-01-23_09h04.02.399,bars,2023.2.3,Win32,20.57613169,657b66ea316d21385b68909f,,,,,,,,,,,1834.5667,1835.5914,,,1836.0831,1836.3372,,175,175,,,,,,,,,,,,,,,,bars/017.png,bars/mask004.png,,,,,,,,,,,,0,1,,,,,,,0,4,1,5,,,,,,,,,,,1835.5914,1836.0831,1836.3372,1836.5105,space,0.1175,,1836.5105,30,50,1837.5003,1837.5003,1837.5007,,,,0,48,48,48,1,145,45,,,,,,,,
,,65745708518a6ec1b4773387,65af701bca620457d06d5c8f,2024-01-23_09h04.02.399,bars,2023.2.3,Win32,20.57613169,657b66ea316d21385b68909f,,,,,,,,,,,1837.5009,1838.5104,,,1839.0113,1839.2779,,146,146,,,,,,,,,,,,,,,,bars/029.png,bars/mask004.png,,,,,,,,,,,,0,1,,,,,,,2,2,3,2,,,,,,,,,,,1838.5104,1839.0113,1839.278,1839.4578,space,0.1263,,1839.4578,56,79,1840.4183,1840.4183,1840.4187,,,,0,49,49,49,1,90,45,,,,,,,,
,,65745708518a6ec1b4773387,65af701bca620457d06d5c8f,2024-01-23_09h04.02.399,bars,2023.2.3,Win32,20.57613169,657b66ea316d21385b68909f,,,,,,,,,,,,,,,,,,,,,,,,,,,,,,,,,,,,,,,,,,,,,,,,,,,,,,,,,,,,,,,,,,,,,,,,,,,,,,,,,,,,,,,,,,,,,1840.4187,1900.382,0,1,1,2,1,sequence_tables/blk028.csv
,,65745708518a6ec1b4773387,65af701bca620457d06d5c8f,2024-01-23_09h04.02.399,bars,2023.2.3,Win32,20.57613169,657b66ea316d21385b68909f,,,,,,,,,,,1900.5722,1901.5507,,,1902.0582,1902.3083,,132,132,,,,,,,,,,,,,,,,bars/021.png,bars/mask007.png,,,,,,,,,,,,0,1,,,,,,,2,4,2,5,,,,,,1900.3866,1900.5706,space,0.1289,,1901.5507,1902.0582,1902.3084,1902.5522,space,0.1863,,1902.5523,23,62,1903.5187,1903.5187,1903.5191,,,,0,0,0,0,1,155,70,,,,,,,,
,,65745708518a6ec1b4773387,65af701bca620457d06d5c8f,2024-01-23_09h04.02.399,bars,2023.2.3,Win32,20.57613169,657b66ea316d21385b68909f,,,,,,,,,,,1903.5192,1904.4834,,,1904.9858,1905.2445,,30,30,,,,,,,,,,,,,,,,bars/024.png,bars/mask006.png,,,,,,,,,,,,0,2,,,,,,,4,6,4,7,,,,,,,,,,,1904.4834,1904.9858,1905.2445,1905.4822,space,0.1805,,1905.4823,90,40,1906.4685,1906.4686,1906.4694,,,,0,1,1,1,1,120,170,,,,,,,,
,,65745708518a6ec1b4773387,65af701bca620457d06d5c8f,2024-01-23_09h04.02.399,bars,2023.2.3,Win32,20.57613169,657b66ea316d21385b68909f,,,,,,,,,,,1906.4694,1907.4468,,,1907.9625,1908.2123,,60,60,,,,,,,,,,,,,,,,bars/003.png,bars/mask000.png,,,,,,,,,,,,0,1,,,,,,,6,8,5,8,,,,,,,,,,,1907.4468,1907.9625,1908.2123,1908.4619,space,0.1948,,1908.4619,35,80,1909.468,1909.468,1909.4688,,,,0,2,2,2,1,25,140,,,,,,,,
,,65745708518a6ec1b4773387,65af701bca620457d06d5c8f,2024-01-23_09h04.02.399,bars,2023.2.3,Win32,20.57613169,657b66ea316d21385b68909f,,,,,,,,,,,1909.469,1910.442,,,1910.909,1911.1313,,99,99,,,,,,,,,,,,,,,,bars/032.png,bars/mask003.png,,,,,,,,,,,,0,1,,,,,,,4,6,2,7,,,,,,,,,,,1910.4421,1910.909,1911.1314,1911.3972,space,0.1985,,1911.3972,26,79,1912.4144,1912.4144,1912.4148,,,,0,3,3,3,1,125,20,,,,,,,,
,,65745708518a6ec1b4773387,65af701bca620457d06d5c8f,2024-01-23_09h04.02.399,bars,2023.2.3,Win32,20.57613169,657b66ea316d21385b68909f,,,,,,,,,,,1912.4149,1913.3691,,,1913.869,1914.1225,,38,38,,,,,,,,,,,,,,,,bars/031.png,bars/mask008.png,,,,,,,,,,,,4,2,,,,,,,6,4,6,4,,,,,,,,,,,1913.3691,1913.869,1914.1225,1914.3112,space,0.1309,,1914.3112,82,3,1915.31,1915.31,1915.3108,,,,0,4,4,4,1,120,35,,,,,,,,
,,65745708518a6ec1b4773387,65af701bca620457d06d5c8f,2024-01-23_09h04.02.399,bars,2023.2.3,Win32,20.57613169,657b66ea316d21385b68909f,,,,,,,,,,,1915.3109,1916.2797,,,1916.7871,1917.0424,,24,24,,,,,,,,,,,,,,,,bars/009.png,bars/mask003.png,,,,,,,,,,,,6,1,,,,,,,8,2,9,3,,,,,,,,,,,1916.2798,1916.7871,1917.0424,1917.2469,space,0.1346,,1917.2469,9,81,1918.2062,1918.2062,1918.2071,,,,0,5,5,5,1,15,105,,,,,,,,
,,65745708518a6ec1b4773387,65af701bca620457d06d5c8f,2024-01-23_09h04.02.399,bars,2023.2.3,Win32,20.57613169,657b66ea316d21385b68909f,,,,,,,,,,,1918.2071,1919.1648,,,1919.6729,1919.9248,,174,174,,,,,,,,,,,,,,,,bars/049.png,bars/mask006.png,,,,,,,,,,,,4,1,,,,,,,6,0,7,0,,,,,,,,,,,1919.1648,1919.6729,1919.9248,1920.2222,space,0.2399,,1920.2222,14,59,1921.2122,1921.2122,1921.2125,,,,0,6,6,6,1,160,115,,,,,,,,
,,65745708518a6ec1b4773387,65af701bca620457d06d5c8f,2024-01-23_09h04.02.399,bars,2023.2.3,Win32,20.57613169,657b66ea316d21385b68909f,,,,,,,,,,,1921.2126,1922.2133,,,1922.7021,1922.9592,,167,167,,,,,,,,,,,,,,,,bars/047.png,bars/mask005.png,,,,,,,,,,,,0,1,,,,,,,4,2,4,2,,,,,,,,,,,1922.2133,1922.702,1922.9593,1923.1514,space,0.1382,,1923.1515,28,83,1924.1625,1924.1626,1924.163,,,,0,7,7,7,1,15,70,,,,,,,,
,,65745708518a6ec1b4773387,65af701bca620457d06d5c8f,2024-01-23_09h04.02.399,bars,2023.2.3,Win32,20.57613169,657b66ea316d21385b68909f,,,,,,,,,,,1924.1631,1925.1242,,,1925.5812,1925.7843,,124,124,,,,,,,,,,,,,,,,bars/016.png,bars/mask003.png,,,,,,,,,,,,0,2,,,,,,,2,4,2,5,,,,,,,,,,,1925.1242,1925.5812,1925.7843,1926.0879,space,0.2419,,1926.088,84,41,1927.0576,1927.0576,1927.0585,,,,0,8,8,8,1,40,165,,,,,,,,
,,65745708518a6ec1b4773387,65af701bca620457d06d5c8f,2024-01-23_09h04.02.399,bars,2023.2.3,Win32,20.57613169,657b66ea316d21385b68909f,,,,,,,,,,,1927.0586,1928.0431,,,1928.5486,1928.793,,90,90,,,,,,,,,,,,,,,,bars/019.png,bars/mask005.png,,,,,,,,,,,,1,2,,,,,,,4,2,5,2,,,,,,,,,,,1928.0431,1928.5486,1928.793,1929.0483,space,0.194,,1929.0484,45,15,1930.029,1930.0291,1930.0295,,,,0,9,9,9,1,45,105,,,,,,,,
,,65745708518a6ec1b4773387,65af701bca620457d06d5c8f,2024-01-23_09h04.02.399,bars,2023.2.3,Win32,20.57613169,657b66ea316d21385b68909f,,,,,,,,,,,1930.0296,1931.0008,,,1931.5093,1931.7671,,18,18,,,,,,,,,,,,,,,,bars/025.png,bars/mask001.png,,,,,,,,,,,,1,2,,,,,,,6,4,9,4,,,,,,,,,,,1931.0008,1931.5093,1931.7671,1932.0103,space,0.1887,,1932.0103,87,22,1932.9978,1932.9978,1932.9982,,,,0,10,10,10,1,105,40,,,,,,,,
,,65745708518a6ec1b4773387,65af701bca620457d06d5c8f,2024-01-23_09h04.02.399,bars,2023.2.3,Win32,20.57613169,657b66ea316d21385b68909f,,,,,,,,,,,1932.9983,1933.9777,,,1934.4724,1934.7222,,77,77,,,,,,,,,,,,,,,,bars/014.png,bars/mask004.png,,,,,,,,,,,,7,1,,,,,,,8,2,8,0,,,,,,,,,,,1933.9777,1934.4724,1934.7222,1934.9257,space,0.1386,,1934.9257,3,77,1935.9101,1935.9101,1935.9115,,,,0,11,11,11,1,80,0,,,,,,,,
,,65745708518a6ec1b4773387,65af701bca620457d06d5c8f,2024-01-23_09h04.02.399,bars,2023.2.3,Win32,20.57613169,657b66ea316d21385b68909f,,,,,,,,,,,1935.9116,1936.8963,,,1937.4039,1937.6116,,34,34,,,,,,,,,,,,,,,,bars/031.png,bars/mask003.png,,,,,,,,,,,,4,2,,,,,,,10,4,10,4,,,,,,,,,,,1936.8963,1937.4038,1937.6117,1937.8767,space,0.1973,,1937.8767,86,1,1938.8457,1938.8457,1938.8465,,,,0,12,12,12,1,120,35,,,,,,,,
,,65745708518a6ec1b4773387,65af701bca620457d06d5c8f,2024-01-23_09h04.02.399,bars,2023.2.3,Win32,20.57613169,657b66ea316d21385b68909f,,,,,,,,,,,1938.8466,1939.8237,,,1940.3016,1940.5569,,94,94,,,,,,,,,,,,,,,,bars/001.png,bars/mask002.png,,,,,,,,,,,,1,2,,,,,,,8,2,8,1,,,,,,,,,,,1939.8237,1940.3016,1940.5569,1940.7926,space,0.1791,,1940.7926,36,9,1941.7719,1941.7719,1941.7723,,,,0,13,13,13,1,130,85,,,,,,,,
,,65745708518a6ec1b4773387,65af701bca620457d06d5c8f,2024-01-23_09h04.02.399,bars,2023.2.3,Win32,20.57613169,657b66ea316d21385b68909f,,,,,,,,,,,1941.7723,1942.7443,,,1943.2135,1943.4569,,81,81,,,,,,,,,,,,,,,,bars/030.png,bars/mask003.png,,,,,,,,,,,,2,2,,,,,,,10,4,10,4,,,,,,,,,,,1942.7443,1943.2135,1943.4569,1943.7696,space,0.256,,1943.7696,59,16,1944.7366,1944.7367,1944.737,,,,0,14,14,14,1,140,65,,,,,,,,
,,65745708518a6ec1b4773387,65af701bca620457d06d5c8f,2024-01-23_09h04.02.399,bars,2023.2.3,Win32,20.57613169,657b66ea316d21385b68909f,,,,,,,,,,,1944.7372,1945.7232,,,1946.1986,1946.4502,,109,109,,,,,,,,,,,,,,,,bars/028.png,bars/mask007.png,,,,,,,,,,,,3,2,,,,,,,8,6,6,5,,,,,,,,,,,1945.7232,1946.1986,1946.4503,1946.6926,space,0.1812,,1946.6926,64,11,1947.7063,1947.7063,1947.7067,,,,0,15,15,15,1,45,120,,,,,,,,
,,65745708518a6ec1b4773387,65af701bca620457d06d5c8f,2024-01-23_09h04.02.399,bars,2023.2.3,Win32,20.57613169,657b66ea316d21385b68909f,,,,,,,,,,,1947.7068,1948.6804,,,1949.1912,1949.4469,,61,61,,,,,,,,,,,,,,,,bars/022.png,bars/mask009.png,,,,,,,,,,,,0,1,,,,,,,6,8,6,6,,,,,,,,,,,1948.6804,1949.1912,1949.4469,1949.6183,space,0.1164,,1949.6183,34,41,1950.6196,1950.6196,1950.6204,,,,0,16,16,16,1,95,20,,,,,,,,
,,65745708518a6ec1b4773387,65af701bca620457d06d5c8f,2024-01-23_09h04.02.399,bars,2023.2.3,Win32,20.57613169,657b66ea316d21385b68909f,,,,,,,,,,,1950.6205,1951.6026,,,1952.0947,1952.3445,,12,12,,,,,,,,,,,,,,,,bars/016.png,bars/mask002.png,,,,,,,,,,,,1,2,,,,,,,4,6,4,6,,,,,,,,,,,1951.6026,1952.0946,1952.3446,1952.5929,space,0.1822,,1952.5929,28,27,1953.5752,1953.5753,1953.576,,,,0,17,17,17,1,40,165,,,,,,,,
,,65745708518a6ec1b4773387,65af701bca620457d06d5c8f,2024-01-23_09h04.02.399,bars,2023.2.3,Win32,20.57613169,657b66ea316d21385b68909f,,,,,,,,,,,1953.5761,1954.5681,,,1955.0471,1955.2841,,36,36,,,,,,,,,,,,,,,,bars/002.png,bars/mask000.png,,,,,,,,,,,,0,2,,,,,,,2,4,2,5,,,,,,,,,,,1954.5681,1955.0471,1955.2842,1955.5239,space,0.1842,,1955.524,86,49,1956.5343,1956.5343,1956.5347,,,,0,18,18,18,1,130,85,,,,,,,,
,,65745708518a6ec1b4773387,65af701bca620457d06d5c8f,2024-01-23_09h04.02.399,bars,2023.2.3,Win32,20.57613169,657b66ea316d21385b68909f,,,,,,,,,,,1956.5348,1957.5073,,,1958.0054,1958.2419,,90,90,,,,,,,,,,,,,,,,bars/018.png,bars/mask005.png,,,,,,,,,,,,3,2,,,,,,,0,2,0,3,,,,,,,,,,,1957.5073,1958.0054,1958.2419,1958.4953,space,0.198,,1958.4953,60,0,1959.4686,1959.4687,1959.4691,,,,0,19,19,19,1,150,90,,,,,,,,
,,65745708518a6ec1b4773387,65af701bca620457d06d5c8f,2024-01-23_09h04.02.399,bars,2023.2.3,Win32,20.57613169,657b66ea316d21385b68909f,,,,,,,,,,,1959.4691,1960.4792,,,1960.9693,1961.216,,107,107,,,,,,,,,,,,,,,,bars/016.png,bars/mask008.png,,,,,,,,,,,,0,2,,,,,,,2,0,0,1,,,,,,,,,,,1960.4793,1960.9693,1961.216,1961.3985,space,0.1269,,1961.3985,67,58,1962.4129,1962.4129,1962.4132,,,,0,20,20,20,1,40,165,,,,,,,,
,,65745708518a6ec1b4773387,65af701bca620457d06d5c8f,2024-01-23_09h04.02.399,bars,2023.2.3,Win32,20.57613169,657b66ea316d21385b68909f,,,,,,,,,,,1962.4133,1963.3791,,,1963.8446,1964.0573,,15,15,,,,,,,,,,,,,,,,bars/027.png,bars/mask006.png,,,,,,,,,,,,0,2,,,,,,,4,2,7,2,,,,,,,,,,,1963.3791,1963.8446,1964.0574,1964.3555,space,0.24,,1964.3556,85,35,1965.371,1965.3711,1965.3714,,,,0,21,21,21,1,110,50,,,,,,,,
,,65745708518a6ec1b4773387,65af701bca620457d06d5c8f,2024-01-23_09h04.02.399,bars,2023.2.3,Win32,20.57613169,657b66ea316d21385b68909f,,,,,,,,,,,1965.3715,1966.3368,,,1966.8352,1967.0862,,57,57,,,,,,,,,,,,,,,,bars/046.png,bars/mask008.png,,,,,,,,,,,,0,2,,,,,,,2,0,1,0,,,,,,,,,,,1966.3368,1966.8352,1967.0862,1967.34,space,0.1884,,1967.3401,82,28,1968.3024,1968.3024,1968.3028,,,,0,22,22,22,1,155,85,,,,,,,,
,,65745708518a6ec1b4773387,65af701bca620457d06d5c8f,2024-01-23_09h04.02.399,bars,2023.2.3,Win32,20.57613169,657b66ea316d21385b68909f,,,,,,,,,,,1968.3028,1969.2794,,,1969.7417,1969.9972,,114,114,,,,,,,,,,,,,,,,bars/036.png,bars/mask006.png,,,,,,,,,,,,0,1,,,,,,,0,0,0,3,,,,,,,,,,,1969.2794,1969.7417,1969.9972,1970.2343,space,0.182,,1970.2343,31,86,1971.2351,1971.2351,1971.2359,,,,0,23,23,23,1,145,20,,,,,,,,
,,65745708518a6ec1b4773387,65af701bca620457d06d5c8f,2024-01-23_09h04.02.399,bars,2023.2.3,Win32,20.57613169,657b66ea316d21385b68909f,,,,,,,,,,,1971.236,1972.2249,,,1972.6822,1972.9287,,155,155,,,,,,,,,,,,,,,,bars/014.png,bars/mask008.png,,,,,,,,,,,,0,2,,,,,,,2,2,2,2,,,,,,,,,,,1972.2249,1972.6822,1972.9287,1973.1672,space,0.1834,,1973.1673,75,25,1974.157,1974.157,1974.1578,,,,0,24,24,24,1,80,0,,,,,,,,
,,65745708518a6ec1b4773387,65af701bca620457d06d5c8f,2024-01-23_09h04.02.399,bars,2023.2.3,Win32,20.57613169,657b66ea316d21385b68909f,,,,,,,,,,,1974.1579,1975.1214,,,1975.5796,1975.8387,,74,74,,,,,,,,,,,,,,,,bars/013.png,bars/mask001.png,,,,,,,,,,,,2,1,,,,,,,4,0,2,0,,,,,,,,,,,1975.1214,1975.5795,1975.8387,1976.1429,space,0.2459,,1976.1429,1,64,1977.0944,1977.0944,1977.0952,,,,0,25,25,25,1,75,10,,,,,,,,
,,65745708518a6ec1b4773387,65af701bca620457d06d5c8f,2024-01-23_09h04.02.399,bars,2023.2.3,Win32,20.57613169,657b66ea316d21385b68909f,,,,,,,,,,,1977.0953,1978.0814,,,1978.5791,1978.8292,,88,88,,,,,,,,,,,,,,,,bars/029.png,bars/mask008.png,,,,,,,,,,,,2,1,,,,,,,2,2,2,2,,,,,,,,,,,1978.0814,1978.579,1978.8293,1979.0639,space,0.1797,,1979.0639,2,43,1980.0525,1980.0525,1980.0529,,,,0,26,26,26,1,90,45,,,,,,,,
,,65745708518a6ec1b4773387,65af701bca620457d06d5c8f,2024-01-23_09h04.02.399,bars,2023.2.3,Win32,20.57613169,657b66ea316d21385b68909f,,,,,,,,,,,1980.053,1981.0444,,,1981.4989,1981.745,,4,4,,,,,,,,,,,,,,,,bars/025.png,bars/mask003.png,,,,,,,,,,,,0,2,,,,,,,0,4,0,6,,,,,,,,,,,1981.0444,1981.4989,1981.745,1982.0035,space,0.1934,,1982.0035,79,36,1982.9726,1982.9727,1982.9738,,,,0,27,27,27,1,105,40,,,,,,,,
,,65745708518a6ec1b4773387,65af701bca620457d06d5c8f,2024-01-23_09h04.02.399,bars,2023.2.3,Win32,20.57613169,657b66ea316d21385b68909f,,,,,,,,,,,1982.9738,1983.9316,,,1984.3986,1984.6378,,14,14,,,,,,,,,,,,,,,,bars/009.png,bars/mask006.png,,,,,,,,,,,,1,1,,,,,,,2,2,1,3,,,,,,,,,,,1983.9317,1984.3986,1984.6378,1984.9421,space,0.2384,,1984.9421,1,89,1985.9475,1985.9475,1985.9484,,,,0,28,28,28,1,15,105,,,,,,,,
,,65745708518a6ec1b4773387,65af701bca620457d06d5c8f,2024-01-23_09h04.02.399,bars,2023.2.3,Win32,20.57613169,657b66ea316d21385b68909f,,,,,,,,,,,1985.9485,1986.9127,,,1987.4211,1987.6871,,103,103,,,,,,,,,,,,,,,,bars/007.png,bars/mask001.png,,,,,,,,,,,,0,2,,,,,,,0,0,0,1,,,,,,,,,,,1986.9127,1987.4211,1987.6872,1987.9354,space,0.1855,,1987.9355,72,48,1988.9003,1988.9003,1988.9011,,,,0,29,29,29,1,175,55,,,,,,,,
,,65745708518a6ec1b4773387,65af701bca620457d06d5c8f,2024-01-23_09h04.02.399,bars,2023.2.3,Win32,20.57613169,657b66ea316d21385b68909f,,,,,,,,,,,1988.9012,1989.8741,,,1990.3891,1990.6385,,27,27,,,,,,,,,,,,,,,,bars/033.png,bars/mask002.png,,,,,,,,,,,,3,1,,,,,,,2,2,3,1,,,,,,,,,,,1989.8741,1990.3891,1990.6385,1990.8761,space,0.1772,,1990.8761,2,52,1991.8574,1991.8574,1991.8583,,,,0,30,30,30,1,25,155,,,,,,,,
,,65745708518a6ec1b4773387,65af701bca620457d06d5c8f,2024-01-23_09h04.02.399,bars,2023.2.3,Win32,20.57613169,657b66ea316d21385b68909f,,,,,,,,,,,1991.8583,1992.8601,,,1993.3619,1993.6111,,144,144,,,,,,,,,,,,,,,,bars/000.png,bars/mask004.png,,,,,,,,,,,,0,2,,,,,,,0,0,0,0,,,,,,,,,,,1992.8601,1993.3619,1993.6112,1993.8023,space,0.1347,,1993.8023,76,1,1994.7758,1994.7758,1994.7766,,,,0,31,31,31,1,40,145,,,,,,,,
,,65745708518a6ec1b4773387,65af701bca620457d06d5c8f,2024-01-23_09h04.02.399,bars,2023.2.3,Win32,20.57613169,657b66ea316d21385b68909f,,,,,,,,,,,1994.7767,1995.7339,,,1996.2264,1996.4832,,145,145,,,,,,,,,,,,,,,,bars/003.png,bars/mask008.png,,,,,,,,,,,,0,2,,,,,,,0,0,1,0,,,,,,,,,,,1995.7339,1996.2264,1996.4832,1996.7295,space,0.1819,,1996.7295,60,5,1997.7056,1997.7056,1997.7059,,,,0,32,32,32,1,25,140,,,,,,,,
,,65745708518a6ec1b4773387,65af701bca620457d06d5c8f,2024-01-23_09h04.02.399,bars,2023.2.3,Win32,20.57613169,657b66ea316d21385b68909f,,,,,,,,,,,1997.7062,1998.6805,,,1999.1801,1999.4406,,164,164,,,,,,,,,,,,,,,,bars/012.png,bars/mask005.png,,,,,,,,,,,,0,2,,,,,,,2,0,1,2,,,,,,,,,,,1998.6806,1999.18,1999.4406,1999.6801,space,0.1829,,1999.6801,74,31,2000.6649,2000.6649,2000.6653,,,,0,33,33,33,1,90,15,,,,,,,,
,,65745708518a6ec1b4773387,65af701bca620457d06d5c8f,2024-01-23_09h04.02.399,bars,2023.2.3,Win32,20.57613169,657b66ea316d21385b68909f,,,,,,,,,,,2000.6654,2001.6408,,,2002.1602,2002.4181,,24,24,,,,,,,,,,,,,,,,bars/044.png,bars/mask007.png,,,,,,,,,,,,0,2,,,,,,,0,0,0,0,,,,,,,,,,,2001.6409,2002.1602,2002.4181,2002.6211,space,0.1348,,2002.6211,51,49,2003.5992,2003.5992,2003.5995,,,,0,34,34,34,1,75,155,,,,,,,,
,,65745708518a6ec1b4773387,65af701bca620457d06d5c8f,2024-01-23_09h04.02.399,bars,2023.2.3,Win32,20.57613169,657b66ea316d21385b68909f,,,,,,,,,,,2003.5996,2004.5604,,,2005.0633,2005.3103,,18,18,,,,,,,,,,,,,,,,bars/002.png,bars/mask000.png,,,,,,,,,,,,0,2,,,,,,,2,2,2,2,,,,,,,,,,,2004.5604,2005.0633,2005.3103,2005.5492,space,0.1816,,2005.5492,68,67,2006.5635,2006.5635,2006.5639,,,,0,35,35,35,1,130,85,,,,,,,,
,,65745708518a6ec1b4773387,65af701bca620457d06d5c8f,2024-01-23_09h04.02.399,bars,2023.2.3,Win32,20.57613169,657b66ea316d21385b68909f,,,,,,,,,,,2006.5639,2007.5256,,,2008.0294,2008.277,,78,78,,,,,,,,,,,,,,,,bars/037.png,bars/mask006.png,,,,,,,,,,,,0,2,,,,,,,0,0,0,0,,,,,,,,,,,2007.5257,2008.0294,2008.277,2008.5383,space,0.1988,,2008.5383,72,27,2009.5235,2009.5235,2009.5238,,,,0,36,36,36,1,150,105,,,,,,,,
,,65745708518a6ec1b4773387,65af701bca620457d06d5c8f,2024-01-23_09h04.02.399,bars,2023.2.3,Win32,20.57613169,657b66ea316d21385b68909f,,,,,,,,,,,2009.5239,2010.5175,,,2011.0167,2011.2642,,149,149,,,,,,,,,,,,,,,,bars/032.png,bars/mask007.png,,,,,,,,,,,,0,1,,,,,,,0,0,0,0,,,,,,,,,,,2010.5175,2011.0166,2011.2642,2011.4536,space,0.1353,,2011.4537,24,51,2012.416,2012.416,2012.4168,,,,0,37,37,37,1,125,20,,,,,,,,
,,65745708518a6ec1b4773387,65af701bca620457d06d5c8f,2024-01-23_09h04.02.399,bars,2023.2.3,Win32,20.57613169,657b66ea316d21385b68909f,,,,,,,,,,,2012.4169,2013.4295,,,2013.9158,2014.1678,,120,120,,,,,,,,,,,,,,,,bars/023.png,bars/mask007.png,,,,,,,,,,,,0,2,,,,,,,0,0,0,0,,,,,,,,,,,2013.4295,2013.9158,2014.1678,2014.3682,space,0.1365,,2014.3683,80,5,2015.3224,2015.3225,2015.3235,,,,0,38,38,38,1,20,115,,,,,,,,
,,65745708518a6ec1b4773387,65af701bca620457d06d5c8f,2024-01-23_09h04.02.399,bars,2023.2.3,Win32,20.57613169,657b66ea316d21385b68909f,,,,,,,,,,,2015.3236,2016.3208,,,2016.8364,2017.0802,,148,148,,,,,,,,,,,,,,,,bars/008.png,bars/mask004.png,,,,,,,,,,,,0,2,,,,,,,0,2,0,3,,,,,,,,,,,2016.3208,2016.8364,2017.0802,2017.3163,space,0.1813,,2017.3163,38,32,2018.285,2018.285,2018.2855,,,,0,39,39,39,1,110,0,,,,,,,,
,,65745708518a6ec1b4773387,65af701bca620457d06d5c8f,2024-01-23_09h04.02.399,bars,2023.2.3,Win32,20.57613169,657b66ea316d21385b68909f,,,,,,,,,,,2018.2855,2019.2659,,,2019.7208,2019.9254,,162,162,,,,,,,,,,,,,,,,bars/042.png,bars/mask009.png,,,,,,,,,,,,0,1,,,,,,,2,0,1,1,,,,,,,,,,,2019.2659,2019.7208,2019.9254,2020.3011,space,0.3142,,2020.3011,17,87,2021.2816,2021.2816,2021.2823,,,,0,40,40,40,1,145,75,,,,,,,,
,,65745708518a6ec1b4773387,65af701bca620457d06d5c8f,2024-01-23_09h04.02.399,bars,2023.2.3,Win32,20.57613169,657b66ea316d21385b68909f,,,,,,,,,,,2021.2824,2022.2558,,,2022.7739,2023.0215,,127,127,,,,,,,,,,,,,,,,bars/034.png,bars/mask007.png,,,,,,,,,,,,5,1,,,,,,,4,2,5,3,,,,,,,,,,,2022.2558,2022.7739,2023.0215,2023.2101,space,0.1249,,2023.2102,2,62,2024.1788,2024.1788,2024.1793,,,,0,41,41,41,1,125,65,,,,,,,,
,,65745708518a6ec1b4773387,65af701bca620457d06d5c8f,2024-01-23_09h04.02.399,bars,2023.2.3,Win32,20.57613169,657b66ea316d21385b68909f,,,,,,,,,,,2024.1794,2025.154,,,2025.6617,2025.9093,,134,134,,,,,,,,,,,,,,,,bars/040.png,bars/mask005.png,,,,,,,,,,,,2,1,,,,,,,2,4,2,5,,,,,,,,,,,2025.154,2025.6616,2025.9094,2026.1558,space,0.1915,,2026.1558,6,51,2027.1507,2027.1507,2027.1511,,,,0,42,42,42,1,140,5,,,,,,,,
,,65745708518a6ec1b4773387,65af701bca620457d06d5c8f,2024-01-23_09h04.02.399,bars,2023.2.3,Win32,20.57613169,657b66ea316d21385b68909f,,,,,,,,,,,2027.1512,2028.1124,,,2028.6011,2028.8054,,38,38,,,,,,,,,,,,,,,,bars/014.png,bars/mask006.png,,,,,,,,,,,,0,2,,,,,,,4,2,3,2,,,,,,,,,,,2028.1124,2028.6011,2028.8054,2029.1059,space,0.2428,,2029.106,42,38,2030.0804,2030.0804,2030.0812,,,,0,43,43,43,1,80,0,,,,,,,,
,,65745708518a6ec1b4773387,65af701bca620457d06d5c8f,2024-01-23_09h04.02.399,bars,2023.2.3,Win32,20.57613169,657b66ea316d21385b68909f,,,,,,,,,,,2030.0813,2031.0506,,,2031.5404,2031.7845,,118,118,,,,,,,,,,,,,,,,bars/043.png,bars/mask007.png,,,,,,,,,,,,0,2,,,,,,,2,0,1,0,,,,,,,,,,,2031.0507,2031.5404,2031.7845,2032.0424,space,0.1937,,2032.0424,88,12,2033.041,2033.041,2033.0413,,,,0,44,44,44,1,30,130,,,,,,,,
,,65745708518a6ec1b4773387,65af701bca620457d06d5c8f,2024-01-23_09h04.02.399,bars,2023.2.3,Win32,20.57613169,657b66ea316d21385b68909f,,,,,,,,,,,2033.0414,2034.0151,,,2034.5264,2034.7698,,65,65,,,,,,,,,,,,,,,,bars/020.png,bars/mask006.png,,,,,,,,,,,,0,1,,,,,,,0,2,0,2,,,,,,,,,,,2034.0151,2034.5264,2034.7698,2034.9614,space,0.1274,,2034.9614,50,75,2035.9294,2035.9294,2035.9302,,,,0,45,45,45,1,115,170,,,,,,,,
,,65745708518a6ec1b4773387,65af701bca620457d06d5c8f,2024-01-23_09h04.02.399,bars,2023.2.3,Win32,20.57613169,657b66ea316d21385b68909f,,,,,,,,,,,2035.9303,2036.9271,,,2037.422,2037.6762,,38,38,,,,,,,,,,,,,,,,bars/011.png,bars/mask009.png,,,,,,,,,,,,0,2,,,,,,,2,0,2,0,,,,,,,,,,,2036.9272,2037.4219,2037.6762,2037.9182,space,0.1831,,2037.9182,58,47,2038.9019,2038.9019,2038.9026,,,,0,46,46,46,1,160,85,,,,,,,,
,,65745708518a6ec1b4773387,65af701bca620457d06d5c8f,2024-01-23_09h04.02.399,bars,2023.2.3,Win32,20.57613169,657b66ea316d21385b68909f,,,,,,,,,,,2038.9027,2039.8866,,,2040.3427,2040.5845,,175,175,,,,,,,,,,,,,,,,bars/001.png,bars/mask008.png,,,,,,,,,,,,0,1,,,,,,,4,2,3,2,,,,,,,,,,,2039.8866,2040.3427,2040.5845,2040.8481,space,0.2036,,2040.8481,45,90,2041.8462,2041.8462,2041.8471,,,,0,47,47,47,1,130,85,,,,,,,,
,,65745708518a6ec1b4773387,65af701bca620457d06d5c8f,2024-01-23_09h04.02.399,bars,2023.2.3,Win32,20.57613169,657b66ea316d21385b68909f,,,,,,,,,,,2041.8472,2042.8244,,,2043.3261,2043.5669,,130,130,,,,,,,,,,,,,,,,bars/028.png,bars/mask004.png,,,,,,,,,,,,1,2,,,,,,,6,0,5,2,,,,,,,,,,,2042.8245,2043.3261,2043.5669,2043.8163,space,0.1929,,2043.8163,85,10,2044.7959,2044.7959,2044.7969,,,,0,48,48,48,1,45,120,,,,,,,,
,,65745708518a6ec1b4773387,65af701bca620457d06d5c8f,2024-01-23_09h04.02.399,bars,2023.2.3,Win32,20.57613169,657b66ea316d21385b68909f,,,,,,,,,,,2044.7969,2045.758,,,2046.2163,2046.4614,,146,146,,,,,,,,,,,,,,,,bars/043.png,bars/mask006.png,,,,,,,,,,,,0,2,,,,,,,4,0,4,1,,,,,,,,,,,2045.758,2046.2163,2046.4614,2046.7708,space,0.2566,,2046.7708,64,16,2047.7314,2047.7314,2047.7317,,,,0,49,49,49,1,30,130,,,,,,,,
,,65745708518a6ec1b4773387,65af701bca620457d06d5c8f,2024-01-23_09h04.02.399,bars,2023.2.3,Win32,20.57613169,657b66ea316d21385b68909f,,,,,,,,,,,,,,,,,,,,,,,,,,,,,,,,,,,,,,,,,,,,,,,,,,,,,,,,,,,,,,,,,,,,,,,,,,,,,,,,,,,,,,,,,,,,,2047.7318,2107.7217,0,2,2,1,1,sequence_tables/blk040.csv
,,65745708518a6ec1b4773387,65af701bca620457d06d5c8f,2024-01-23_09h04.02.399,bars,2023.2.3,Win32,20.57613169,657b66ea316d21385b68909f,,,,,,,,,,,2107.9058,2108.893,,,2109.3929,2109.6511,,23,23,,,,,,,,,,,,,,,,bars/000.png,bars/mask001.png,,,,,,,,,,,,4,1,,,,,,,10,7,10,7,,,,,,2107.7265,2107.904,space,0.1214,,2108.8931,2109.3928,2109.6511,2109.886,space,0.1778,,2109.886,17,58,2110.8471,2110.8471,2110.8479,,,,0,0,0,0,1,40,145,,,,,,,,
,,65745708518a6ec1b4773387,65af701bca620457d06d5c8f,2024-01-23_09h04.02.399,bars,2023.2.3,Win32,20.57613169,657b66ea316d21385b68909f,,,,,,,,,,,2110.848,2111.8209,,,2112.3298,2112.5311,,95,95,,,,,,,,,,,,,,,,bars/047.png,bars/mask004.png,,,,,,,,,,,,1,2,,,,,,,8,9,8,8,,,,,,,,,,,2111.8209,2112.3297,2112.5312,2112.8451,space,0.2533,,2112.8452,80,25,2113.8264,2113.8265,2113.8273,,,,0,1,1,1,1,15,70,,,,,,,,
,,65745708518a6ec1b4773387,65af701bca620457d06d5c8f,2024-01-23_09h04.02.399,bars,2023.2.3,Win32,20.57613169,657b66ea316d21385b68909f,,,,,,,,,,,2113.8273,2114.8156,,,2115.3047,2115.5615,,10,10,,,,,,,,,,,,,,,,bars/026.png,bars/mask008.png,,,,,,,,,,,,1,1,,,,,,,6,7,4,7,,,,,,,,,,,2114.8156,2115.3047,2115.5615,2115.737,space,0.1192,,2115.737,25,75,2116.748,2116.748,2116.7488,,,,0,2,2,2,1,35,85,,,,,,,,
,,65745708518a6ec1b4773387,65af701bca620457d06d5c8f,2024-01-23_09h04.02.399,bars,2023.2.3,Win32,20.57613169,657b66ea316d21385b68909f,,,,,,,,,,,2116.7489,2117.7376,,,2118.1946,2118.4478,,38,38,,,,,,,,,,,,,,,,bars/036.png,bars/mask001.png,,,,,,,,,,,,4,2,,,,,,,8,9,8,10,,,,,,,,,,,2117.7377,2118.1946,2118.4478,2118.6929,space,0.1791,,2118.6929,73,18,2119.6692,2119.6693,2119.6701,,,,0,3,3,3,1,145,20,,,,,,,,
,,65745708518a6ec1b4773387,65af701bca620457d06d5c8f,2024-01-23_09h04.02.399,bars,2023.2.3,Win32,20.57613169,657b66ea316d21385b68909f,,,,,,,,,,,2119.6702,2120.6574,,,2121.1531,2121.4028,,3,3,,,,,,,,,,,,,,,,bars/043.png,bars/mask006.png,,,,,,,,,,,,1,1,,,,,,,10,7,9,7,,,,,,,,,,,2120.6575,2121.1531,2121.4028,2121.6406,space,0.1784,,2121.6406,27,53,2122.6335,2122.6335,2122.6344,,,,0,4,4,4,1,30,130,,,,,,,,
,,65745708518a6ec1b4773387,65af701bca620457d06d5c8f,2024-01-23_09h04.02.399,bars,2023.2.3,Win32,20.57613169,657b66ea316d21385b68909f,,,,,,,,,,,2122.6344,2123.6002,,,2124.1122,2124.3086,,51,51,,,,,,,,,,,,,,,,bars/001.png,bars/mask000.png,,,,,,,,,,,,0,2,,,,,,,8,5,8,7,,,,,,,,,,,2123.6002,2124.1122,2124.3086,2124.6221,space,0.2523,,2124.6221,79,34,2125.6263,2125.6263,2125.6272,,,,0,5,5,5,1,130,85,,,,,,,,
,,65745708518a6ec1b4773387,65af701bca620457d06d5c8f,2024-01-23_09h04.02.399,bars,2023.2.3,Win32,20.57613169,657b66ea316d21385b68909f,,,,,,,,,,,2125.6273,2126.5961,,,2127.1054,2127.3586,,107,107,,,,,,,,,,,,,,,,bars/033.png,bars/mask007.png,,,,,,,,,,,,0,2,,,,,,,10,3,10,3,,,,,,,,,,,2126.5961,2127.1054,2127.3586,2127.5476,space,0.1193,,2127.5476,82,48,2128.5149,2128.515,2128.5153,,,,0,6,6,6,1,25,155,,,,,,,,
,,65745708518a6ec1b4773387,65af701bca620457d06d5c8f,2024-01-23_09h04.02.399,bars,2023.2.3,Win32,20.57613169,657b66ea316d21385b68909f,,,,,,,,,,,2128.5154,2129.5042,,,2130.0004,2130.2598,,41,41,,,,,,,,,,,,,,,,bars/012.png,bars/mask001.png,,,,,,,,,,,,0,2,,,,,,,8,5,6,2,,,,,,,,,,,2129.5042,2130.0004,2130.2599,2130.5062,space,0.1903,,2130.5063,49,26,2131.4731,2131.4731,2131.4735,,,,0,7,7,7,1,90,15,,,,,,,,
,,65745708518a6ec1b4773387,65af701bca620457d06d5c8f,2024-01-23_09h04.02.399,bars,2023.2.3,Win32,20.57613169,657b66ea316d21385b68909f,,,,,,,,,,,2131.4735,2132.4637,,,2132.9579,2133.2047,,160,160,,,,,,,,,,,,,,,,bars/024.png,bars/mask003.png,,,,,,,,,,,,1,2,,,,,,,10,3,10,2,,,,,,,,,,,2132.4637,2132.9579,2133.2048,2133.445,space,0.1753,,2133.4451,40,10,2134.4179,2134.418,2134.4183,,,,0,8,8,8,1,120,170,,,,,,,,
,,65745708518a6ec1b4773387,65af701bca620457d06d5c8f,2024-01-23_09h04.02.399,bars,2023.2.3,Win32,20.57613169,657b66ea316d21385b68909f,,,,,,,,,,,2134.4184,2135.3787,,,2135.8837,2136.0829,,49,49,,,,,,,,,,,,,,,,bars/018.png,bars/mask008.png,,,,,,,,,,,,0,2,,,,,,,10,1,10,3,,,,,,,,,,,2135.3788,2135.8837,2136.0829,2136.3343,space,0.1897,,2136.3343,79,41,2137.3464,2137.3464,2137.3468,,,,0,9,9,9,1,150,90,,,,,,,,
,,65745708518a6ec1b4773387,65af701bca620457d06d5c8f,2024-01-23_09h04.02.399,bars,2023.2.3,Win32,20.57613169,657b66ea316d21385b68909f,,,,,,,,,,,2137.3469,2138.3152,,,2138.8199,2139.0624,,28,28,,,,,,,,,,,,,,,,bars/000.png,bars/mask005.png,,,,,,,,,,,,5,1,,,,,,,8,0,9,0,,,,,,,,,,,2138.3153,2138.8199,2139.0624,2139.3154,space,0.1888,,2139.3154,12,63,2140.2806,2140.2806,2140.2815,,,,0,10,10,10,1,40,145,,,,,,,,
,,65745708518a6ec1b4773387,65af701bca620457d06d5c8f,2024-01-23_09h04.02.399,bars,2023.2.3,Win32,20.57613169,657b66ea316d21385b68909f,,,,,,,,,,,2140.2815,2141.2576,,,2141.7634,2142.0095,,123,123,,,,,,,,,,,,,,,,bars/017.png,bars/mask008.png,,,,,,,,,,,,2,1,,,,,,,6,2,7,2,,,,,,,,,,,2141.2576,2141.7633,2142.0095,2142.2584,space,0.1934,,2142.2584,22,78,2143.2312,2143.2312,2143.2316,,,,0,11,11,11,1,145,45,,,,,,,,
,,65745708518a6ec1b4773387,65af701bca620457d06d5c8f,2024-01-23_09h04.02.399,bars,2023.2.3,Win32,20.57613169,657b66ea316d21385b68909f,,,,,,,,,,,2143.2316,2144.2471,,,2144.7499,2145.002,,83,83,,,,,,,,,,,,,,,,bars/036.png,bars/mask007.png,,,,,,,,,,,,0,1,,,,,,,8,0,9,0,,,,,,,,,,,2144.2471,2144.7498,2145.002,2145.1853,space,0.1287,,2145.1853,62,63,2146.1667,2146.1667,2146.167,,,,0,12,12,12,1,145,20,,,,,,,,
,,65745708518a6ec1b4773387,65af701bca620457d06d5c8f,2024-01-23_09h04.02.399,bars,2023.2.3,Win32,20.57613169,657b66ea316d21385b68909f,,,,,,,,,,,2146.1673,2147.1528,,,2147.6587,2147.864,,76,76,,,,,,,,,,,,,,,,bars/021.png,bars/mask009.png,,,,,,,,,,,,0,2,,,,,,,10,2,9,0,,,,,,,,,,,2147.1529,2147.6586,2147.864,2148.1184,space,0.1952,,2148.1184,79,6,2149.1147,2149.1147,2149.1155,,,,0,13,13,13,1,155,70,,,,,,,,
,,65745708518a6ec1b4773387,65af701bca620457d06d5c8f,2024-01-23_09h04.02.399,bars,2023.2.3,Win32,20.57613169,657b66ea316d21385b68909f,,,,,,,,,,,2149.1155,2150.1172,,,2150.6217,2150.8653,,88,88,,,,,,,,,,,,,,,,bars/046.png,bars/mask002.png,,,,,,,,,,,,5,2,,,,,,,8,4,10,6,,,,,,,,,,,2150.1172,2150.6217,2150.8653,2151.1132,space,0.1885,,2151.1132,67,3,2152.0736,2152.0737,2152.074,,,,0,14,14,14,1,155,85,,,,,,,,
,,65745708518a6ec1b4773387,65af701bca620457d06d5c8f,2024-01-23_09h04.02.399,bars,2023.2.3,Win32,20.57613169,657b66ea316d21385b68909f,,,,,,,,,,,2152.0741,2153.0337,,,2153.5363,2153.7403,,140,140,,,,,,,,,,,,,,,,bars/023.png,bars/mask000.png,,,,,,,,,,,,0,2,,,,,,,10,2,10,3,,,,,,,,,,,2153.0337,2153.5363,2153.7403,2153.9992,space,0.1907,,2153.9992,60,25,2154.9719,2154.9719,2154.9723,,,,0,15,15,15,1,20,115,,,,,,,,
,,65745708518a6ec1b4773387,65af701bca620457d06d5c8f,2024-01-23_09h04.02.399,bars,2023.2.3,Win32,20.57613169,657b66ea316d21385b68909f,,,,,,,,,,,2154.9724,2155.9449,,,2156.4458,2156.6562,,38,38,,,,,,,,,,,,,,,,bars/022.png,bars/mask002.png,,,,,,,,,,,,0,2,,,,,,,8,0,7,0,,,,,,,,,,,2155.945,2156.4457,2156.6562,2156.9819,space,0.2705,,2156.9819,57,18,2157.9654,2157.9654,2157.9659,,,,0,16,16,16,1,95,20,,,,,,,,
,,65745708518a6ec1b4773387,65af701bca620457d06d5c8f,2024-01-23_09h04.02.399,bars,2023.2.3,Win32,20.57613169,657b66ea316d21385b68909f,,,,,,,,,,,2157.9661,2158.9524,,,2159.4667,2159.7084,,0,0,,,,,,,,,,,,,,,,bars/043.png,bars/mask000.png,,,,,,,,,,,,0,1,,,,,,,10,0,10,0,,,,,,,,,,,2158.9525,2159.4667,2159.7084,2159.8834,space,0.1188,,2159.8834,30,50,2160.8515,2160.8515,2160.8523,,,,0,17,17,17,1,30,130,,,,,,,,
,,65745708518a6ec1b4773387,65af701bca620457d06d5c8f,2024-01-23_09h04.02.399,bars,2023.2.3,Win32,20.57613169,657b66ea316d21385b68909f,,,,,,,,,,,2160.8523,2161.816,,,2162.3031,2162.564,,90,90,,,,,,,,,,,,,,,,bars/010.png,bars/mask005.png,,,,,,,,,,,,0,2,,,,,,,10,2,9,4,,,,,,,,,,,2161.8161,2162.3031,2162.5641,2162.8723,space,0.2502,,2162.8723,75,35,2163.8458,2163.8458,2163.8465,,,,0,18,18,18,1,165,55,,,,,,,,
,,65745708518a6ec1b4773387,65af701bca620457d06d5c8f,2024-01-23_09h04.02.399,bars,2023.2.3,Win32,20.57613169,657b66ea316d21385b68909f,,,,,,,,,,,2163.8467,2164.8195,,,2165.3152,2165.5717,,169,169,,,,,,,,,,,,,,,,bars/005.png,bars/mask006.png,,,,,,,,,,,,3,1,,,,,,,10,4,10,4,,,,,,,,,,,2164.8195,2165.3152,2165.5717,2165.8186,space,0.1859,,2165.8186,21,29,2166.8024,2166.8025,2166.8032,,,,0,19,19,19,1,10,140,,,,,,,,
,,65745708518a6ec1b4773387,65af701bca620457d06d5c8f,2024-01-23_09h04.02.399,bars,2023.2.3,Win32,20.57613169,657b66ea316d21385b68909f,,,,,,,,,,,2166.8033,2167.7821,,,2168.2879,2168.5294,,128,128,,,,,,,,,,,,,,,,bars/040.png,bars/mask003.png,,,,,,,,,,,,5,1,,,,,,,10,6,9,6,,,,,,,,,,,2167.7821,2168.2879,2168.5294,2168.7696,space,0.1844,,2168.7696,12,57,2169.7414,2169.7415,2169.7417,,,,0,20,20,20,1,140,5,,,,,,,,
,,65745708518a6ec1b4773387,65af701bca620457d06d5c8f,2024-01-23_09h04.02.399,bars,2023.2.3,Win32,20.57613169,657b66ea316d21385b68909f,,,,,,,,,,,2169.7418,2170.7171,,,2171.1732,2171.3724,,159,159,,,,,,,,,,,,,,,,bars/013.png,bars/mask005.png,,,,,,,,,,,,0,2,,,,,,,8,4,7,2,,,,,,,,,,,2170.7172,2171.1732,2171.3724,2171.6905,space,0.2618,,2171.6905,84,31,2172.6585,2172.6586,2172.6593,,,,0,21,21,21,1,75,10,,,,,,,,
,,65745708518a6ec1b4773387,65af701bca620457d06d5c8f,2024-01-23_09h04.02.399,bars,2023.2.3,Win32,20.57613169,657b66ea316d21385b68909f,,,,,,,,,,,2172.6594,2173.6249,,,2174.1316,2174.3935,,41,41,,,,,,,,,,,,,,,,bars/045.png,bars/mask008.png,,,,,,,,,,,,0,2,,,,,,,10,6,9,8,,,,,,,,,,,2173.6249,2174.1316,2174.3935,2174.6479,space,0.1883,,2174.6479,59,31,2175.645,2175.645,2175.6453,,,,0,22,22,22,1,100,10,,,,,,,,
,,65745708518a6ec1b4773387,65af701bca620457d06d5c8f,2024-01-23_09h04.02.399,bars,2023.2.3,Win32,20.57613169,657b66ea316d21385b68909f,,,,,,,,,,,2175.6454,2176.6589,,,2177.1156,2177.3252,,123,123,,,,,,,,,,,,,,,,bars/049.png,bars/mask007.png,,,,,,,,,,,,1,2,,,,,,,10,4,10,2,,,,,,,,,,,2176.6589,2177.1156,2177.3252,2185.4128,space,8.0206,,2185.4129,37,8,2186.3753,2186.3753,2186.3799,,,,0,23,23,23,1,160,115,,,,,,,,
,,65745708518a6ec1b4773387,65af701bca620457d06d5c8f,2024-01-23_09h04.02.399,bars,2023.2.3,Win32,20.57613169,657b66ea316d21385b68909f,,,,,,,,,,,2186.38,2187.3353,,,2187.8371,2188.0946,,3,3,,,,,,,,,,,,,,,,bars/017.png,bars/mask005.png,,,,,,,,,,,,0,1,,,,,,,10,2,10,2,,,,,,,,,,,2187.3353,2187.8371,2188.0946,2188.3978,space,0.2481,,2188.3979,38,42,2189.3736,2189.3736,2189.3745,,,,0,24,24,24,1,145,45,,,,,,,,
,,65745708518a6ec1b4773387,65af701bca620457d06d5c8f,2024-01-23_09h04.02.399,bars,2023.2.3,Win32,20.57613169,657b66ea316d21385b68909f,,,,,,,,,,,2189.3747,2190.3593,,,2190.8566,2191.1102,,179,179,,,,,,,,,,,,,,,,bars/003.png,bars/mask006.png,,,,,,,,,,,,1,1,,,,,,,8,4,7,4,,,,,,,,,,,2190.3594,2190.8566,2191.1102,2191.2959,space,0.1329,,2191.2959,26,39,2192.2737,2192.2737,2192.2741,,,,0,25,25,25,1,25,140,,,,,,,,
,,65745708518a6ec1b4773387,65af701bca620457d06d5c8f,2024-01-23_09h04.02.399,bars,2023.2.3,Win32,20.57613169,657b66ea316d21385b68909f,,,,,,,,,,,2192.2742,2193.2437,,,2193.7559,2194.013,,2,2,,,,,,,,,,,,,,,,bars/036.png,bars/mask000.png,,,,,,,,,,,,2,2,,,,,,,10,6,10,6,,,,,,,,,,,2193.2437,2193.7559,2194.013,2194.2791,space,0.202,,2194.2791,37,18,2195.2872,2195.2872,2195.2882,,,,0,26,26,26,1,145,20,,,,,,,,
,,65745708518a6ec1b4773387,65af701bca620457d06d5c8f,2024-01-23_09h04.02.399,bars,2023.2.3,Win32,20.57613169,657b66ea316d21385b68909f,,,,,,,,,,,2195.2884,2196.2546,,,2196.7562,2197.0198,,98,98,,,,,,,,,,,,,,,,bars/029.png,bars/mask000.png,,,,,,,,,,,,7,1,,,,,,,10,8,10,8,,,,,,,,,,,2196.2547,2196.7562,2197.0198,2197.2161,space,0.1245,,2197.2161,8,53,2198.2346,2198.2346,2198.2354,,,,0,27,27,27,1,90,45,,,,,,,,
,,65745708518a6ec1b4773387,65af701bca620457d06d5c8f,2024-01-23_09h04.02.399,bars,2023.2.3,Win32,20.57613169,657b66ea316d21385b68909f,,,,,,,,,,,2198.2355,2199.2138,,,2199.693,2199.8915,,115,115,,,,,,,,,,,,,,,,bars/037.png,bars/mask009.png,,,,,,,,,,,,6,2,,,,,,,8,10,10,9,,,,,,,,,,,2199.2138,2199.693,2199.8915,2200.1312,space,0.1827,,2200.1312,35,10,2201.0912,2201.0912,2201.092,,,,0,28,28,28,1,150,105,,,,,,,,
,,65745708518a6ec1b4773387,65af701bca620457d06d5c8f,2024-01-23_09h04.02.399,bars,2023.2.3,Win32,20.57613169,657b66ea316d21385b68909f,,,,,,,,,,,2201.0922,2202.0771,,,2202.5273,2202.7848,,61,61,,,,,,,,,,,,,,,,bars/045.png,bars/mask003.png,,,,,,,,,,,,0,1,,,,,,,10,10,10,10,,,,,,,,,,,2202.0771,2202.5273,2202.7849,2203.0886,space,0.2467,,2203.0886,39,51,2204.0566,2204.0566,2204.0574,,,,0,29,29,29,1,100,10,,,,,,,,
,,65745708518a6ec1b4773387,65af701bca620457d06d5c8f,2024-01-23_09h04.02.399,bars,2023.2.3,Win32,20.57613169,657b66ea316d21385b68909f,,,,,,,,,,,2204.0576,2205.0359,,,2205.4854,2205.745,,45,45,,,,,,,,,,,,,,,,bars/018.png,bars/mask008.png,,,,,,,,,,,,0,2,,,,,,,8,10,6,10,,,,,,,,,,,2205.0359,2205.4853,2205.745,2206.058,space,0.2471,,2206.0581,75,45,2207.0272,2207.0272,2207.028,,,,0,30,30,30,1,150,90,,,,,,,,
,,65745708518a6ec1b4773387,65af701bca620457d06d5c8f,2024-01-23_09h04.02.399,bars,2023.2.3,Win32,20.57613169,657b66ea316d21385b68909f,,,,,,,,,,,2207.0281,2208.0433,,,2208.5405,2208.7854,,92,92,,,,,,,,,,,,,,,,bars/044.png,bars/mask009.png,,,,,,,,,,,,3,1,,,,,,,6,8,8,9,,,,,,,,,,,2208.0433,2208.5405,2208.7855,2208.9679,space,0.1237,,2208.9679,17,63,2209.93,2209.93,2209.9308,,,,0,31,31,31,1,75,155,,,,,,,,
,,65745708518a6ec1b4773387,65af701bca620457d06d5c8f,2024-01-23_09h04.02.399,bars,2023.2.3,Win32,20.57613169,657b66ea316d21385b68909f,,,,,,,,,,,2209.9308,2210.9298,,,2211.4389,2211.6847,,110,110,,,,,,,,,,,,,,,,bars/015.png,bars/mask006.png,,,,,,,,,,,,4,1,,,,,,,4,10,4,10,,,,,,,,,,,2210.9299,2211.4389,2211.6847,2211.9323,space,0.1923,,2211.9323,0,50,2212.9247,2212.9247,2212.9251,,,,0,32,32,32,1,110,160,,,,,,,,
,,65745708518a6ec1b4773387,65af701bca620457d06d5c8f,2024-01-23_09h04.02.399,bars,2023.2.3,Win32,20.57613169,657b66ea316d21385b68909f,,,,,,,,,,,2212.9252,2213.8942,,,2214.3883,2214.6483,,111,111,,,,,,,,,,,,,,,,bars/025.png,bars/mask003.png,,,,,,,,,,,,2,1,,,,,,,2,8,2,8,,,,,,,,,,,2213.8942,2214.3883,2214.6483,2214.8541,space,0.138,,2214.8541,6,71,2215.8354,2215.8354,2215.8358,,,,0,33,33,33,1,105,40,,,,,,,,
,,65745708518a6ec1b4773387,65af701bca620457d06d5c8f,2024-01-23_09h04.02.399,bars,2023.2.3,Win32,20.57613169,657b66ea316d21385b68909f,,,,,,,,,,,2215.8358,2216.8568,,,2217.3661,2217.5662,,172,172,,,,,,,,,,,,,,,,bars/046.png,bars/mask006.png,,,,,,,,,,,,2,1,,,,,,,4,6,5,6,,,,,,,,,,,2216.8569,2217.3661,2217.5663,2217.8182,space,0.1885,,2217.8182,17,87,2218.8031,2218.8031,2218.8035,,,,0,34,34,34,1,155,85,,,,,,,,
,,65745708518a6ec1b4773387,65af701bca620457d06d5c8f,2024-01-23_09h04.02.399,bars,2023.2.3,Win32,20.57613169,657b66ea316d21385b68909f,,,,,,,,,,,2218.8035,2219.7811,,,2220.2861,2220.5477,,87,87,,,,,,,,,,,,,,,,bars/033.png,bars/mask000.png,,,,,,,,,,,,0,1,,,,,,,2,4,2,4,,,,,,,,,,,2219.7811,2220.2861,2220.5478,2220.7306,space,0.12,,2220.7307,62,68,2221.6993,2221.6994,2221.6997,,,,0,35,35,35,1,25,155,,,,,,,,
,,65745708518a6ec1b4773387,65af701bca620457d06d5c8f,2024-01-23_09h04.02.399,bars,2023.2.3,Win32,20.57613169,657b66ea316d21385b68909f,,,,,,,,,,,2221.6998,2222.6722,,,2223.1621,2223.4343,,1,1,,,,,,,,,,,,,,,,bars/000.png,bars/mask001.png,,,,,,,,,,,,0,2,,,,,,,4,2,4,1,,,,,,,,,,,2222.6722,2223.1621,2223.4343,2223.6812,space,0.1847,,2223.6812,39,36,2224.6681,2224.6681,2224.6689,,,,0,36,36,36,1,40,145,,,,,,,,
,,65745708518a6ec1b4773387,65af701bca620457d06d5c8f,2024-01-23_09h04.02.399,bars,2023.2.3,Win32,20.57613169,657b66ea316d21385b68909f,,,,,,,,,,,2224.669,2225.6496,,,2226.138,2226.38,,104,104,,,,,,,,,,,,,,,,bars/042.png,bars/mask002.png,,,,,,,,,,,,0,2,,,,,,,2,0,0,0,,,,,,,,,,,2225.6496,2226.138,2226.38,2226.6317,space,0.1872,,2226.6317,41,29,2227.6087,2227.6087,2227.6091,,,,0,37,37,37,1,145,75,,,,,,,,
,,65745708518a6ec1b4773387,65af701bca620457d06d5c8f,2024-01-23_09h04.02.399,bars,2023.2.3,Win32,20.57613169,657b66ea316d21385b68909f,,,,,,,,,,,2227.6092,2228.5865,,,2229.1056,2229.3525,,139,139,,,,,,,,,,,,,,,,bars/004.png,bars/mask008.png,,,,,,,,,,,,1,2,,,,,,,0,0,0,2,,,,,,,,,,,2228.5865,2229.1056,2229.3526,2229.5905,space,0.1813,,2229.5906,66,14,2230.5734,2230.5735,2230.5739,,,,0,38,38,38,1,25,125,,,,,,,,
,,65745708518a6ec1b4773387,65af701bca620457d06d5c8f,2024-01-23_09h04.02.399,bars,2023.2.3,Win32,20.57613169,657b66ea316d21385b68909f,,,,,,,,,,,2230.574,2231.5429,,,2232.0408,2232.2954,,148,148,,,,,,,,,,,,,,,,bars/028.png,bars/mask001.png,,,,,,,,,,,,0,2,,,,,,,2,0,2,0,,,,,,,,,,,2231.5429,2232.0408,2232.2954,2232.5323,space,0.1788,,2232.5324,77,28,2233.5136,2233.5136,2233.5139,,,,0,39,39,39,1,45,120,,,,,,,,
,,65745708518a6ec1b4773387,65af701bca620457d06d5c8f,2024-01-23_09h04.02.399,bars,2023.2.3,Win32,20.57613169,657b66ea316d21385b68909f,,,,,,,,,,,2233.514,2234.4701,,,2234.9779,2235.1758,,162,162,,,,,,,,,,,,,,,,bars/010.png,bars/mask007.png,,,,,,,,,,,,3,1,,,,,,,4,0,3,0,,,,,,,,,,,2234.4701,2234.9778,2235.1759,2235.4695,space,0.2358,,2235.4695,3,73,2236.4753,2236.4753,2236.4762,,,,0,40,40,40,1,165,55,,,,,,,,
,,65745708518a6ec1b4773387,65af701bca620457d06d5c8f,2024-01-23_09h04.02.399,bars,2023.2.3,Win32,20.57613169,657b66ea316d21385b68909f,,,,,,,,,,,2236.4762,2237.4639,,,2237.9606,2238.2065,,37,37,,,,,,,,,,,,,,,,bars/038.png,bars/mask006.png,,,,,,,,,,,,0,2,,,,,,,2,0,3,0,,,,,,,,,,,2237.4639,2237.9606,2238.2065,2238.4088,space,0.138,,2238.4088,52,33,2239.3984,2239.3984,2239.3992,,,,0,41,41,41,1,165,70,,,,,,,,
,,65745708518a6ec1b4773387,65af701bca620457d06d5c8f,2024-01-23_09h04.02.399,bars,2023.2.3,Win32,20.57613169,657b66ea316d21385b68909f,,,,,,,,,,,2239.3993,2240.4087,,,2240.9209,2241.1773,,1,1,,,,,,,,,,,,,,,,bars/034.png,bars/mask000.png,,,,,,,,,,,,0,1,,,,,,,0,0,1,0,,,,,,,,,,,2240.4088,2240.9208,2241.1773,2241.3659,space,0.1325,,2241.3659,56,64,2242.35,2242.35,2242.3508,,,,0,42,42,42,1,125,65,,,,,,,,
,,65745708518a6ec1b4773387,65af701bca620457d06d5c8f,2024-01-23_09h04.02.399,bars,2023.2.3,Win32,20.57613169,657b66ea316d21385b68909f,,,,,,,,,,,2242.3509,2243.3058,,,2243.8125,2244.064,,72,72,,,,,,,,,,,,,,,,bars/046.png,bars/mask004.png,,,,,,,,,,,,1,2,,,,,,,2,2,1,2,,,,,,,,,,,2243.3058,2243.8125,2244.064,2244.3172,space,0.189,,2244.3173,83,13,2245.2833,2245.2833,2245.2841,,,,0,43,43,43,1,155,85,,,,,,,,
,,65745708518a6ec1b4773387,65af701bca620457d06d5c8f,2024-01-23_09h04.02.399,bars,2023.2.3,Win32,20.57613169,657b66ea316d21385b68909f,,,,,,,,,,,2245.2842,2246.2616,,,2246.757,2247.0075,,55,55,,,,,,,,,,,,,,,,bars/033.png,bars/mask001.png,,,,,,,,,,,,0,1,,,,,,,4,4,4,3,,,,,,,,,,,2246.2616,2246.757,2247.0075,2247.2622,space,0.1917,,2247.2623,30,80,2248.2681,2248.2681,2248.269,,,,0,44,44,44,1,25,155,,,,,,,,
,,65745708518a6ec1b4773387,65af701bca620457d06d5c8f,2024-01-23_09h04.02.399,bars,2023.2.3,Win32,20.57613169,657b66ea316d21385b68909f,,,,,,,,,,,2248.2691,2249.2353,,,2249.7342,2249.99,,61,61,,,,,,,,,,,,,,,,bars/022.png,bars/mask001.png,,,,,,,,,,,,0,1,,,,,,,6,2,6,2,,,,,,,,,,,2249.2354,2249.7342,2249.99,2250.1675,space,0.1163,,2250.1676,34,41,2251.1282,2251.1282,2251.1286,,,,0,45,45,45,1,95,20,,,,,,,,
,,65745708518a6ec1b4773387,65af701bca620457d06d5c8f,2024-01-23_09h04.02.399,bars,2023.2.3,Win32,20.57613169,657b66ea316d21385b68909f,,,,,,,,,,,2251.1286,2252.1103,,,2252.5876,2252.8272,,168,168,,,,,,,,,,,,,,,,bars/028.png,bars/mask007.png,,,,,,,,,,,,0,2,,,,,,,8,0,8,0,,,,,,,,,,,2252.1104,2252.5876,2252.8272,2253.1315,space,0.244,,2253.1315,57,48,2254.1231,2254.1231,2254.1238,,,,0,46,46,46,1,45,120,,,,,,,,
,,65745708518a6ec1b4773387,65af701bca620457d06d5c8f,2024-01-23_09h04.02.399,bars,2023.2.3,Win32,20.57613169,657b66ea316d21385b68909f,,,,,,,,,,,2254.124,2255.1395,,,2255.6297,2255.8712,,166,166,,,,,,,,,,,,,,,,bars/011.png,bars/mask003.png,,,,,,,,,,,,7,1,,,,,,,10,2,9,2,,,,,,,,,,,2255.1395,2255.6297,2255.8712,2256.0574,space,0.1305,,2256.0574,6,81,2257.0231,2257.0231,2257.024,,,,0,47,47,47,1,160,85,,,,,,,,
,,65745708518a6ec1b4773387,65af701bca620457d06d5c8f,2024-01-23_09h04.02.399,bars,2023.2.3,Win32,20.57613169,657b66ea316d21385b68909f,,,,,,,,,,,2257.024,2257.9895,,,2258.4995,2258.7557,,101,101,,,,,,,,,,,,,,,,bars/008.png,bars/mask009.png,,,,,,,,,,,,6,1,,,,,,,8,0,9,0,,,,,,,,,,,2257.9895,2258.4995,2258.7557,2258.9968,space,0.1812,,2258.9968,9,79,2259.9949,2259.9949,2259.9953,,,,0,48,48,48,1,110,0,,,,,,,,
,,65745708518a6ec1b4773387,65af701bca620457d06d5c8f,2024-01-23_09h04.02.399,bars,2023.2.3,Win32,20.57613169,657b66ea316d21385b68909f,,,,,,,,,,,2259.9953,2260.9922,,,2261.4565,2261.7093,,81,81,,,,,,,,,,,,,,,,bars/001.png,bars/mask008.png,,,,,,,,,,,,1,2,,,,,,,10,2,9,1,,,,,,,,,,,2260.9922,2261.4565,2261.7094,2261.9659,space,0.2018,,2261.9659,49,4,2262.931,2262.9311,2262.9318,,,,0,49,49,49,1,130,85,,,,,,,,
,,65745708518a6ec1b4773387,65af701bca620457d06d5c8f,2024-01-23_09h04.02.399,bars,2023.2.3,Win32,20.57613169,657b66ea316d21385b68909f,,,,,,,,,,,,,,,,,,,,,,,,,,,,,,,,,,,,,,,,,,,,,,,,,,,,,,,,,,,,,,,,,,,,,,,,,,,,,,,,,,,,,,,,,,,,,2262.9319,2322.8897,0,3,3,0,1,sequence_tables/blk006.csv
,,65745708518a6ec1b4773387,65af701bca620457d06d5c8f,2024-01-23_09h04.02.399,bars,2023.2.3,Win32,20.57613169,657b66ea316d21385b68909f,,,,,,,,,,,2323.0739,2324.0857,,,2324.567,2324.8176,,40,40,,,,,,,,,,,,,,,,bars/042.png,bars/mask007.png,,,,,,,,,,,,0,2,,,,,,,10,7,10,6,,,,,,2322.8946,2323.0725,space,0.1238,,2324.0857,2324.567,2324.8176,2325.0698,space,0.1982,,2325.0698,75,35,2326.0583,2326.0583,2326.0587,,,,0,0,0,0,1,145,75,,,,,,,,
,,65745708518a6ec1b4773387,65af701bca620457d06d5c8f,2024-01-23_09h04.02.399,bars,2023.2.3,Win32,20.57613169,657b66ea316d21385b68909f,,,,,,,,,,,2326.0588,2327.0295,,,2327.521,2327.7632,,166,166,,,,,,,,,,,,,,,,bars/015.png,bars/mask009.png,,,,,,,,,,,,4,2,,,,,,,8,5,5,5,,,,,,,,,,,2327.0295,2327.521,2327.7632,2328.0115,space,0.1929,,2328.0115,56,6,2329.0051,2329.0051,2329.0054,,,,0,1,1,1,1,110,160,,,,,,,,
,,65745708518a6ec1b4773387,65af701bca620457d06d5c8f,2024-01-23_09h04.02.399,bars,2023.2.3,Win32,20.57613169,657b66ea316d21385b68909f,,,,,,,,,,,2329.0055,2329.9688,,,2330.4811,2330.724,,78,78,,,,,,,,,,,,,,,,bars/010.png,bars/mask007.png,,,,,,,,,,,,1,2,,,,,,,10,3,10,3,,,,,,,,,,,2329.9688,2330.4811,2330.724,2330.9727,space,0.185,,2330.9727,87,23,2331.9374,2331.9374,2331.9378,,,,0,2,2,2,1,165,55,,,,,,,,
,,65745708518a6ec1b4773387,65af701bca620457d06d5c8f,2024-01-23_09h04.02.399,bars,2023.2.3,Win32,20.57613169,657b66ea316d21385b68909f,,,,,,,,,,,2331.9378,2332.922,,,2333.4311,2333.6343,,157,157,,,,,,,,,,,,,,,,bars/041.png,bars/mask008.png,,,,,,,,,,,,0,1,,,,,,,10,1,10,1,,,,,,,,,,,2332.9221,2333.4311,2333.6343,2333.8887,space,0.1986,,2333.8887,43,72,2334.8663,2334.8663,2334.8671,,,,0,3,3,3,1,20,85,,,,,,,,
,,65745708518a6ec1b4773387,65af701bca620457d06d5c8f,2024-01-23_09h04.02.399,bars,2023.2.3,Win32,20.57613169,657b66ea316d21385b68909f,,,,,,,,,,,2334.8672,2335.8468,,,2336.3438,2336.5931,,95,95,,,,,,,,,,,,,,,,bars/030.png,bars/mask007.png,,,,,,,,,,,,0,2,,,,,,,8,3,7,4,,,,,,,,,,,2335.8469,2336.3438,2336.5932,2336.8351,space,0.1879,,2336.8351,45,30,2337.8492,2337.8492,2337.85,,,,0,4,4,4,1,140,65,,,,,,,,
,,65745708518a6ec1b4773387,65af701bca620457d06d5c8f,2024-01-23_09h04.02.399,bars,2023.2.3,Win32,20.57613169,657b66ea316d21385b68909f,,,,,,,,,,,2337.8501,2338.8079,,,2339.3012,2339.5506,,65,65,,,,,,,,,,,,,,,,bars/034.png,bars/mask007.png,,,,,,,,,,,,4,2,,,,,,,10,5,9,4,,,,,,,,,,,2338.8079,2339.3012,2339.5506,2339.7965,space,0.1862,,2339.7966,60,0,2340.7853,2340.7853,2340.7857,,,,0,5,5,5,1,125,65,,,,,,,,
,,65745708518a6ec1b4773387,65af701bca620457d06d5c8f,2024-01-23_09h04.02.399,bars,2023.2.3,Win32,20.57613169,657b66ea316d21385b68909f,,,,,,,,,,,2340.7858,2341.7579,,,2342.2148,2342.4614,,20,20,,,,,,,,,,,,,,,,bars/004.png,bars/mask008.png,,,,,,,,,,,,8,1,,,,,,,8,7,9,7,,,,,,,,,,,2341.7579,2342.2148,2342.4614,2342.7117,space,0.1872,,2342.7117,5,75,2343.6823,2343.6823,2343.6831,,,,0,6,6,6,1,25,125,,,,,,,,
,,65745708518a6ec1b4773387,65af701bca620457d06d5c8f,2024-01-23_09h04.02.399,bars,2023.2.3,Win32,20.57613169,657b66ea316d21385b68909f,,,,,,,,,,,2343.6832,2344.6488,,,2345.138,2345.3973,,27,27,,,,,,,,,,,,,,,,bars/045.png,bars/mask000.png,,,,,,,,,,,,2,2,,,,,,,6,5,6,4,,,,,,,,,,,2344.6489,2345.138,2345.3974,2345.6586,space,0.1983,,2345.6586,73,17,2346.6557,2346.6557,2346.6565,,,,0,7,7,7,1,100,10,,,,,,,,
,,65745708518a6ec1b4773387,65af701bca620457d06d5c8f,2024-01-23_09h04.02.399,bars,2023.2.3,Win32,20.57613169,657b66ea316d21385b68909f,,,,,,,,,,,2346.6567,2347.6462,,,2348.1633,2348.3772,,9,9,,,,,,,,,,,,,,,,bars/034.png,bars/mask005.png,,,,,,,,,,,,0,2,,,,,,,8,7,9,9,,,,,,,,,,,2347.6462,2348.1633,2348.3773,2348.6368,space,0.1998,,2348.6368,64,56,2349.5924,2349.5925,2349.5929,,,,0,8,8,8,1,125,65,,,,,,,,
,,65745708518a6ec1b4773387,65af701bca620457d06d5c8f,2024-01-23_09h04.02.399,bars,2023.2.3,Win32,20.57613169,657b66ea316d21385b68909f,,,,,,,,,,,2349.593,2350.5653,,,2351.0444,2351.3005,,86,86,,,,,,,,,,,,,,,,bars/043.png,bars/mask001.png,,,,,,,,,,,,0,2,,,,,,,10,9,10,9,,,,,,,,,,,2350.5653,2351.0444,2351.3005,2351.5452,space,0.1862,,2351.5452,56,44,2352.5618,2352.5618,2352.5622,,,,0,9,9,9,1,30,130,,,,,,,,
