init_variables.started,init_variables.stopped,participant,session,date,expName,psychopyVersion,OS,frameRate,study_id,instruction_exp.started,instruction_exp.stopped,key_resp_8.keys,key_resp_8.rt,key_resp_8.duration,instruction_single.started,instruction_single.stopped,key_resp_2.keys,key_resp_2.rt,key_resp_2.duration,interval.started,interval.stopped,cue_single.started,cue_single.stopped,mask.started,mask.stopped,ori_response_single.started,res_ori,res,ori_response_single.stopped,key_resp_single.keys,key_resp_single.rt,key_resp_single.duration,disp_single.started,disp_single.stopped,key_resp.keys,key_resp.rt,key_resp.duration,single.thisRepN,single.thisTrialN,single.thisN,single.thisIndex,single.ran,ori,path,mask_path,instruction_bandit.started,instruction_bandit.stopped,key_resp_6.keys,key_resp_6.rt,key_resp_6.duration,cue_bandit.started,cue_bandit.stopped,bandit_res.keys,bandit_res.rt,bandit_res.duration,outcome_bandit.started,rew,action,outcome_bandit.stopped,bandit.thisRepN,bandit.thisTrialN,bandit.thisN,bandit.thisIndex,bandit.ran,actual_rew1,actual_rew2,rew1,rew2,instruction_task.started,instruction_task.stopped,key_resp_7.keys,key_resp_7.rt,key_resp_7.duration,wait_ready.started,wait_ready.stopped,key_resp_3.keys,key_resp_3.rt,key_resp_3.duration,cue.started,cue.stopped,ori_response.started,ori_response.stopped,key_resp_5.keys,key_resp_5.rt,key_resp_5.duration,outcome.started,diff1,diff2,outcome.stopped,disp_outcome_practice.started,disp_outcome_practice.stopped,key_resp_4.keys,key_resp_4.rt,key_resp_4.duration,trials.thisRepN,trials.thisTrialN,trials.thisN,trials.thisIndex,trials.ran,ori1,ori2,break_blk.started,break_blk.stopped,block.thisRepN,block.thisTrialN,block.thisN,block.thisIndex,block.ran,condition_file
0.0005,0.0007,60786ff5249b808e29b989a4,65af58f1928510ff1336cec9,2024-01-23_24h34.25.601,bars,2023.2.3,Win32,59.82292414,657b66ea316d21385b68909f,,,,,,,,,,,,,,,,,,,,,,,,,,,,,,,,,,,,,,,,,,,,,,,,,,,,,,,,,,,,,,,,,,,,,,,,,,,,,,,,,,,,,,,,,,,,,,,,,,,,
,,60786ff5249b808e29b989a4,65af58f1928510ff1336cec9,2024-01-23_24h34.25.601,bars,2023.2.3,Win32,59.82292414,657b66ea316d21385b68909f,0.0012,2.7904,y,2.7661,,,,,,,,,,,,,,,,,,,,,,,,,,,,,,,,,,,,,,,,,,,,,,,,,,,,,,,,,,,,,,,,,,,,,,,,,,,,,,,,,,,,,,,,,,,,,,,,
,,60786ff5249b808e29b989a4,65af58f1928510ff1336cec9,2024-01-23_24h34.25.601,bars,2023.2.3,Win32,59.82292414,657b66ea316d21385b68909f,,,,,,2.7906,4.2482,space,1.438,,,,,,,,,,,,,,,,,,,,,,,,,,,,,,,,,,,,,,,,,,,,,,,,,,,,,,,,,,,,,,,,,,,,,,,,,,,,,,,,,,,,,,,,,,,
,,60786ff5249b808e29b989a4,65af58f1928510ff1336cec9,2024-01-23_24h34.25.601,bars,2023.2.3,Win32,59.82292414,657b66ea316d21385b68909f,,,,,,,,,,,4.2574,5.2578,5.258,5.7521,5.7523,6.0032,6.0034,53,233,9.7828,space,3.7468,,9.7832,12.1218,space,2.3051,,0,0,0,7,1,45,bars/single007.png,bars/mask009.png,,,,,,,,,,,,,,,,,,,,,,,,,,,,,,,,,,,,,,,,,,,,,,,,,,,,,,,,,,,,,,,,
,,60786ff5249b808e29b989a4,65af58f1928510ff1336cec9,2024-01-23_24h34.25.601,bars,2023.2.3,Win32,59.82292414,657b66ea316d21385b68909f,,,,,,,,,,,12.1225,13.1241,13.1242,13.6261,13.6262,13.877,13.8771,149,149,17.1365,space,3.2441,,17.1365,18.8255,space,1.659,,0,1,1,2,1,145,bars/single002.png,bars/mask003.png,,,,,,,,,,,,,,,,,,,,,,,,,,,,,,,,,,,,,,,,,,,,,,,,,,,,,,,,,,,,,,,,
,,60786ff5249b808e29b989a4,65af58f1928510ff1336cec9,2024-01-23_24h34.25.601,bars,2023.2.3,Win32,59.82292414,657b66ea316d21385b68909f,,,,,,,,,,,18.8265,19.8282,19.8283,20.3295,20.3295,20.5801,20.5801,76,256,23.9907,space,3.3942,,23.9908,25.0107,space,0.9905,,0,2,2,4,1,95,bars/single004.png,bars/mask004.png,,,,,,,,,,,,,,,,,,,,,,,,,,,,,,,,,,,,,,,,,,,,,,,,,,,,,,,,,,,,,,,,
,,60786ff5249b808e29b989a4,65af58f1928510ff1336cec9,2024-01-23_24h34.25.601,bars,2023.2.3,Win32,59.82292414,657b66ea316d21385b68909f,,,,,,,,,,,25.0118,26.0137,26.0138,26.5155,26.5156,26.7657,26.7657,170,-10,28.9058,space,2.1241,,28.9059,30.1599,space,1.2353,,0,3,3,3,1,20,bars/single003.png,bars/mask005.png,,,,,,,,,,,,,,,,,,,,,,,,,,,,,,,,,,,,,,,,,,,,,,,,,,,,,,,,,,,,,,,,
,,60786ff5249b808e29b989a4,65af58f1928510ff1336cec9,2024-01-23_24h34.25.601,bars,2023.2.3,Win32,59.82292414,657b66ea316d21385b68909f,,,,,,,,,,,30.1609,31.1627,31.1627,31.6637,31.6637,31.9148,31.9148,53,53,33.0372,space,1.1085,,33.0373,34.005,space,0.9484,,0,4,4,9,1,20,bars/single009.png,bars/mask006.png,,,,,,,,,,,,,,,,,,,,,,,,,,,,,,,,,,,,,,,,,,,,,,,,,,,,,,,,,,,,,,,,
,,60786ff5249b808e29b989a4,65af58f1928510ff1336cec9,2024-01-23_24h34.25.601,bars,2023.2.3,Win32,59.82292414,657b66ea316d21385b68909f,,,,,,,,,,,34.0059,35.0077,35.0079,35.5087,35.5089,35.7599,35.76,155,155,36.7462,space,0.9706,,36.7462,37.6322,space,0.8688,,0,5,5,8,1,160,bars/single008.png,bars/mask004.png,,,,,,,,,,,,,,,,,,,,,,,,,,,,,,,,,,,,,,,,,,,,,,,,,,,,,,,,,,,,,,,,
,,60786ff5249b808e29b989a4,65af58f1928510ff1336cec9,2024-01-23_24h34.25.601,bars,2023.2.3,Win32,59.82292414,657b66ea316d21385b68909f,,,,,,,,,,,37.6332,38.6349,38.635,39.137,39.137,39.3881,39.3881,75,255,42.8485,space,3.4446,,42.8485,43.7675,space,0.8898,,0,6,6,5,1,55,bars/single005.png,bars/mask008.png,,,,,,,,,,,,,,,,,,,,,,,,,,,,,,,,,,,,,,,,,,,,,,,,,,,,,,,,,,,,,,,,
,,60786ff5249b808e29b989a4,65af58f1928510ff1336cec9,2024-01-23_24h34.25.601,bars,2023.2.3,Win32,59.82292414,657b66ea316d21385b68909f,,,,,,,,,,,43.7684,44.7702,44.7702,45.2722,45.2723,45.5232,45.5233,153,153,53.4468,space,7.9076,,53.4469,58.329,space,4.8524,,0,7,7,6,1,175,bars/single006.png,bars/mask005.png,,,,,,,,,,,,,,,,,,,,,,,,,,,,,,,,,,,,,,,,,,,,,,,,,,,,,,,,,,,,,,,,
,,60786ff5249b808e29b989a4,65af58f1928510ff1336cec9,2024-01-23_24h34.25.601,bars,2023.2.3,Win32,59.82292414,657b66ea316d21385b68909f,,,,,,,,,,,58.3419,59.3315,59.3315,59.8327,59.8328,60.084,60.084,43,43,64.6981,space,4.5978,,64.6981,65.3848,space,0.6586,,0,8,8,1,1,20,bars/single001.png,bars/mask006.png,,,,,,,,,,,,,,,,,,,,,,,,,,,,,,,,,,,,,,,,,,,,,,,,,,,,,,,,,,,,,,,,
,,60786ff5249b808e29b989a4,65af58f1928510ff1336cec9,2024-01-23_24h34.25.601,bars,2023.2.3,Win32,59.82292414,657b66ea316d21385b68909f,,,,,,,,,,,65.3855,66.3859,66.386,66.888,66.888,67.1397,67.1398,138,138,69.2572,space,2.1035,,69.2574,69.9594,space,0.6853,,0,9,9,0,1,150,bars/single000.png,bars/mask006.png,,,,,,,,,,,,,,,,,,,,,,,,,,,,,,,,,,,,,,,,,,,,,,,,,,,,,,,,,,,,,,,,
,,60786ff5249b808e29b989a4,65af58f1928510ff1336cec9,2024-01-23_24h34.25.601,bars,2023.2.3,Win32,59.82292414,657b66ea316d21385b68909f,,,,,,,,,,,,,,,,,,,,,,,,,,,,,,,,,,,,,69.961,116.5525,space,46.5719,,,,,,,,,,,,,,,,,,,,,,,,,,,,,,,,,,,,,,,,,,,,,,,,,,,,,,,,,,,,
,,60786ff5249b808e29b989a4,65af58f1928510ff1336cec9,2024-01-23_24h34.25.601,bars,2023.2.3,Win32,59.82292414,657b66ea316d21385b68909f,,,,,,,,,,,,,,,,,,,,,,,,,,,,,,,,,,,,,,,,,,116.5682,119.7286,left,3.1405,,119.7288,9,1,120.7299,0,0,0,0,1,9,1,9,2,,,,,,,,,,,,,,,,,,,,,,,,,,,,,,,,,,,,,,,,,
,,60786ff5249b808e29b989a4,65af58f1928510ff1336cec9,2024-01-23_24h34.25.601,bars,2023.2.3,Win32,59.82292414,657b66ea316d21385b68909f,,,,,,,,,,,,,,,,,,,,,,,,,,,,,,,,,,,,,,,,,,120.7308,122.7708,left,2.0241,,122.771,10,1,123.7721,0,1,1,1,1,10,0,10,1,,,,,,,,,,,,,,,,,,,,,,,,,,,,,,,,,,,,,,,,,
,,60786ff5249b808e29b989a4,65af58f1928510ff1336cec9,2024-01-23_24h34.25.601,bars,2023.2.3,Win32,59.82292414,657b66ea316d21385b68909f,,,,,,,,,,,,,,,,,,,,,,,,,,,,,,,,,,,,,,,,,,123.7727,124.4085,left,0.6193,,124.4087,10,1,125.4105,0,2,2,2,1,10,2,10,2,,,,,,,,,,,,,,,,,,,,,,,,,,,,,,,,,,,,,,,,,
,,60786ff5249b808e29b989a4,65af58f1928510ff1336cec9,2024-01-23_24h34.25.601,bars,2023.2.3,Win32,59.82292414,657b66ea316d21385b68909f,,,,,,,,,,,,,,,,,,,,,,,,,,,,,,,,,,,,,,,,,,125.4112,125.7463,right,0.3185,,125.7465,3,2,126.7479,0,3,3,3,1,8,4,7,3,,,,,,,,,,,,,,,,,,,,,,,,,,,,,,,,,,,,,,,,,
,,60786ff5249b808e29b989a4,65af58f1928510ff1336cec9,2024-01-23_24h34.25.601,bars,2023.2.3,Win32,59.82292414,657b66ea316d21385b68909f,,,,,,,,,,,,,,,,,,,,,,,,,,,,,,,,,,,,,,,,,,126.7485,127.0997,left,0.3348,,127.0999,5,1,128.1018,0,4,4,4,1,6,2,5,1,,,,,,,,,,,,,,,,,,,,,,,,,,,,,,,,,,,,,,,,,
,,60786ff5249b808e29b989a4,65af58f1928510ff1336cec9,2024-01-23_24h34.25.601,bars,2023.2.3,Win32,59.82292414,657b66ea316d21385b68909f,,,,,,,,,,,,,,,,,,,,,,,,,,,,,,,,,,,,,,,,,,128.1024,128.4877,left,0.3682,,128.4878,4,1,129.4895,0,5,5,5,1,4,4,4,4,,,,,,,,,,,,,,,,,,,,,,,,,,,,,,,,,,,,,,,,,
,,60786ff5249b808e29b989a4,65af58f1928510ff1336cec9,2024-01-23_24h34.25.601,bars,2023.2.3,Win32,59.82292414,657b66ea316d21385b68909f,,,,,,,,,,,,,,,,,,,,,,,,,,,,,,,,,,,,,,,,,,129.4903,129.6078,right,0.1011,,129.6079,2,2,130.6092,0,6,6,6,1,2,2,1,2,,,,,,,,,,,,,,,,,,,,,,,,,,,,,,,,,,,,,,,,,
,,60786ff5249b808e29b989a4,65af58f1928510ff1336cec9,2024-01-23_24h34.25.601,bars,2023.2.3,Win32,59.82292414,657b66ea316d21385b68909f,,,,,,,,,,,,,,,,,,,,,,,,,,,,,,,,,,,,,,,,,,130.6099,130.9117,right,0.2849,,130.9118,1,2,131.9133,0,7,7,7,1,0,0,0,1,,,,,,,,,,,,,,,,,,,,,,,,,,,,,,,,,,,,,,,,,
,,60786ff5249b808e29b989a4,65af58f1928510ff1336cec9,2024-01-23_24h34.25.601,bars,2023.2.3,Win32,59.82292414,657b66ea316d21385b68909f,,,,,,,,,,,,,,,,,,,,,,,,,,,,,,,,,,,,,,,,,,131.914,132.2657,right,0.3353,,132.2661,0,2,133.2677,0,8,8,8,1,0,2,1,0,,,,,,,,,,,,,,,,,,,,,,,,,,,,,,,,,,,,,,,,,
,,60786ff5249b808e29b989a4,65af58f1928510ff1336cec9,2024-01-23_24h34.25.601,bars,2023.2.3,Win32,59.82292414,657b66ea316d21385b68909f,,,,,,,,,,,,,,,,,,,,,,,,,,,,,,,,,,,,,,,,,,133.2686,133.6698,left,0.385,,133.6699,2,1,134.6717,0,9,9,9,1,2,4,2,3,,,,,,,,,,,,,,,,,,,,,,,,,,,,,,,,,,,,,,,,,
,,60786ff5249b808e29b989a4,65af58f1928510ff1336cec9,2024-01-23_24h34.25.601,bars,2023.2.3,Win32,59.82292414,657b66ea316d21385b68909f,,,,,,,,,,,,,,,,,,,,,,,,,,,,,,,,,,,,,,,,,,134.6723,134.9739,left,0.285,,134.974,0,1,135.9757,0,10,10,10,1,0,2,0,3,,,,,,,,,,,,,,,,,,,,,,,,,,,,,,,,,,,,,,,,,
,,60786ff5249b808e29b989a4,65af58f1928510ff1336cec9,2024-01-23_24h34.25.601,bars,2023.2.3,Win32,59.82292414,657b66ea316d21385b68909f,,,,,,,,,,,,,,,,,,,,,,,,,,,,,,,,,,,,,,,,,,135.9765,136.0776,right,0.0844,,136.0776,3,2,137.0793,0,11,11,11,1,0,4,0,3,,,,,,,,,,,,,,,,,,,,,,,,,,,,,,,,,,,,,,,,,
,,60786ff5249b808e29b989a4,65af58f1928510ff1336cec9,2024-01-23_24h34.25.601,bars,2023.2.3,Win32,59.82292414,657b66ea316d21385b68909f,,,,,,,,,,,,,,,,,,,,,,,,,,,,,,,,,,,,,,,,,,137.0811,137.3649,right,0.2683,,137.365,6,2,138.3664,0,12,12,12,1,2,6,1,6,,,,,,,,,,,,,,,,,,,,,,,,,,,,,,,,,,,,,,,,,
,,60786ff5249b808e29b989a4,65af58f1928510ff1336cec9,2024-01-23_24h34.25.601,bars,2023.2.3,Win32,59.82292414,657b66ea316d21385b68909f,,,,,,,,,,,,,,,,,,,,,,,,,,,,,,,,,,,,,,,,,,138.367,138.6352,right,0.2515,,138.6353,3,2,139.6368,0,13,13,13,1,0,4,1,3,,,,,,,,,,,,,,,,,,,,,,,,,,,,,,,,,,,,,,,,,
,,60786ff5249b808e29b989a4,65af58f1928510ff1336cec9,2024-01-23_24h34.25.601,bars,2023.2.3,Win32,59.82292414,657b66ea316d21385b68909f,,,,,,,,,,,,,,,,,,,,,,,,,,,,,,,,,,,,,,,,,,139.6373,139.6546,left,0.0009,,139.6549,2,1,140.6565,0,14,14,14,1,2,6,2,7,,,,,,,,,,,,,,,,,,,,,,,,,,,,,,,,,,,,,,,,,
,,60786ff5249b808e29b989a4,65af58f1928510ff1336cec9,2024-01-23_24h34.25.601,bars,2023.2.3,Win32,59.82292414,657b66ea316d21385b68909f,,,,,,,,,,,,,,,,,,,,,,,,,,,,,,,,,,,,,,,,,,140.6569,141.1871,right,0.5139,,141.1872,9,2,142.1923,0,15,15,15,1,4,8,3,9,,,,,,,,,,,,,,,,,,,,,,,,,,,,,,,,,,,,,,,,,
,,60786ff5249b808e29b989a4,65af58f1928510ff1336cec9,2024-01-23_24h34.25.601,bars,2023.2.3,Win32,59.82292414,657b66ea316d21385b68909f,,,,,,,,,,,,,,,,,,,,,,,,,,,,,,,,,,,,,,,,,,142.1927,142.4233,right,0.2097,,142.4233,7,2,143.421,0,16,16,16,1,6,6,7,7,,,,,,,,,,,,,,,,,,,,,,,,,,,,,,,,,,,,,,,,,
,,60786ff5249b808e29b989a4,65af58f1928510ff1336cec9,2024-01-23_24h34.25.601,bars,2023.2.3,Win32,59.82292414,657b66ea316d21385b68909f,,,,,,,,,,,,,,,,,,,,,,,,,,,,,,,,,,,,,,,,,,143.4219,143.4554,right,0.0183,,143.4555,5,2,144.4575,0,17,17,17,1,8,4,9,5,,,,,,,,,,,,,,,,,,,,,,,,,,,,,,,,,,,,,,,,,
,,60786ff5249b808e29b989a4,65af58f1928510ff1336cec9,2024-01-23_24h34.25.601,bars,2023.2.3,Win32,59.82292414,657b66ea316d21385b68909f,,,,,,,,,,,,,,,,,,,,,,,,,,,,,,,,,,,,,,,,,,144.4588,144.4737,left,0.001,,144.4737,5,1,145.4773,0,18,18,18,1,6,2,5,1,,,,,,,,,,,,,,,,,,,,,,,,,,,,,,,,,,,,,,,,,
,,60786ff5249b808e29b989a4,65af58f1928510ff1336cec9,2024-01-23_24h34.25.601,bars,2023.2.3,Win32,59.82292414,657b66ea316d21385b68909f,,,,,,,,,,,,,,,,,,,,,,,,,,,,,,,,,,,,,,,,,,145.4783,145.9804,left,0.4876,,145.9805,7,1,146.9816,0,19,19,19,1,8,0,7,0,,,,,,,,,,,,,,,,,,,,,,,,,,,,,,,,,,,,,,,,,
,,60786ff5249b808e29b989a4,65af58f1928510ff1336cec9,2024-01-23_24h34.25.601,bars,2023.2.3,Win32,59.82292414,657b66ea316d21385b68909f,,,,,,,,,,,,,,,,,,,,,,,,,,,,,,,,,,,,,,,,,,,,,,,,,,,,,,,,,,,,146.9828,149.974,space,2.9661,,,,,,,,,,,,,,,,,,,,,,,,,,,,,,,,,,,,,
,,60786ff5249b808e29b989a4,65af58f1928510ff1336cec9,2024-01-23_24h34.25.601,bars,2023.2.3,Win32,59.82292414,657b66ea316d21385b68909f,,,,,,,,,,,151.1811,152.1745,,,152.669,152.9159,,10,10,,,,,,,,,,,,,,,,bars/012.png,bars/mask004.png,,,,,,,,,,,,1,2,,,,,,,8,2,9,1,,,,,,149.9901,151.1743,space,1.1712,,152.1749,152.6689,152.9171,164.3033,space,11.3685,,164.3037,80,5,165.3037,165.304,207.2948,space,41.9677,,0,0,0,0,1,90,15,,,,,,,,
,,60786ff5249b808e29b989a4,65af58f1928510ff1336cec9,2024-01-23_24h34.25.601,bars,2023.2.3,Win32,59.82292414,657b66ea316d21385b68909f,,,,,,,,,,,207.3081,208.301,,,208.8023,209.0531,,104,104,,,,,,,,,,,,,,,,bars/026.png,bars/mask000.png,,,,,,,,,,,,1,2,,,,,,,6,4,6,4,,,,,,,,,,,208.301,208.8023,209.0532,210.7754,space,1.7053,,210.7755,69,19,211.7786,211.7786,216.2086,space,4.4014,,0,1,1,1,1,35,85,,,,,,,,
,,60786ff5249b808e29b989a4,65af58f1928510ff1336cec9,2024-01-23_24h34.25.601,bars,2023.2.3,Win32,59.82292414,657b66ea316d21385b68909f,,,,,,,,,,,216.2216,217.2116,,,217.7127,217.9635,,127,127,,,,,,,,,,,,,,,,bars/034.png,bars/mask003.png,,,,,,,,,,,,7,1,,,,,,,8,2,8,2,,,,,,,,,,,217.2116,217.7126,217.9635,220.94,space,2.9597,,220.94,2,62,221.9425,221.9425,238.6396,space,16.6673,,0,2,2,2,1,125,65,,,,,,,,
,,60786ff5249b808e29b989a4,65af58f1928510ff1336cec9,2024-01-23_24h34.25.601,bars,2023.2.3,Win32,59.82292414,657b66ea316d21385b68909f,,,,,,,,,,,238.6529,239.6464,,,240.1422,240.3926,,54,54,,,,,,,,,,,,,,,,bars/028.png,bars/mask004.png,,,,,,,,,,,,4,1,,,,,,,6,4,5,5,,,,,,,,,,,239.6464,240.1421,240.3926,241.8817,space,1.4723,,241.8819,9,66,242.8836,242.8837,243.7416,space,0.8291,,0,3,3,3,1,45,120,,,,,,,,
,,60786ff5249b808e29b989a4,65af58f1928510ff1336cec9,2024-01-23_24h34.25.601,bars,2023.2.3,Win32,59.82292414,657b66ea316d21385b68909f,,,,,,,,,,,243.7427,244.7389,,,245.2407,245.4913,,13,193,,,,,,,,,,,,,,,,bars/023.png,bars/mask004.png,,,,,,,,,,,,4,1,,,,,,,4,2,5,1,,,,,,,,,,,244.739,245.2407,245.4914,248.8197,space,3.3108,,248.8198,7,78,249.821,249.8211,250.7299,space,0.8793,,0,4,4,4,1,20,115,,,,,,,,
,,60786ff5249b808e29b989a4,65af58f1928510ff1336cec9,2024-01-23_24h34.25.601,bars,2023.2.3,Win32,59.82292414,657b66ea316d21385b68909f,,,,,,,,,,,250.7307,251.7326,,,252.2337,252.4846,,50,50,,,,,,,,,,,,,,,,bars/017.png,bars/mask000.png,,,,,,,,,,,,2,2,,,,,,,2,0,3,2,,,,,,,,,,,251.7327,252.2337,252.4846,254.9761,space,2.475,,254.9761,85,5,255.9788,255.9789,257.0955,space,1.0864,,0,5,5,5,1,145,45,,,,,,,,
,,60786ff5249b808e29b989a4,65af58f1928510ff1336cec9,2024-01-23_24h34.25.601,bars,2023.2.3,Win32,59.82292414,657b66ea316d21385b68909f,,,,,,,,,,,257.0964,258.0962,,,258.598,258.8491,,123,123,,,,,,,,,,,,,,,,bars/049.png,bars/mask009.png,,,,,,,,,,,,2,2,,,,,,,0,2,1,3,,,,,,,,,,,258.0963,258.5979,258.8492,262.2275,space,3.361,,262.2275,37,8,263.2291,263.2292,268.0326,space,4.7707,,0,6,6,6,1,160,115,,,,,,,,
,,60786ff5249b808e29b989a4,65af58f1928510ff1336cec9,2024-01-23_24h34.25.601,bars,2023.2.3,Win32,59.82292414,657b66ea316d21385b68909f,,,,,,,,,,,268.0455,269.0352,,,269.5364,269.7873,,120,120,,,,,,,,,,,,,,,,bars/023.png,bars/mask007.png,,,,,,,,,,,,0,2,,,,,,,2,0,2,0,,,,,,,,,,,269.0353,269.5363,269.7874,275.6388,space,5.8349,,275.6389,80,5,276.6416,276.6416,293.2087,space,16.538,,0,7,7,7,1,20,115,,,,,,,,
,,60786ff5249b808e29b989a4,65af58f1928510ff1336cec9,2024-01-23_24h34.25.601,bars,2023.2.3,Win32,59.82292414,657b66ea316d21385b68909f,,,,,,,,,,,293.222,294.2112,,,294.7134,294.9652,,135,135,,,,,,,,,,,,,,,,bars/037.png,bars/mask007.png,,,,,,,,,,,,0,1,,,,,,,0,2,0,2,,,,,,,,,,,294.2112,294.7133,294.9654,296.6356,space,1.6552,,296.6356,15,30,297.6382,297.6383,298.4382,space,0.7697,,0,8,8,8,1,150,105,,,,,,,,
,,60786ff5249b808e29b989a4,65af58f1928510ff1336cec9,2024-01-23_24h34.25.601,bars,2023.2.3,Win32,59.82292414,657b66ea316d21385b68909f,,,,,,,,,,,298.4388,299.4386,,,299.9404,300.1909,,33,33,,,,,,,,,,,,,,,,bars/007.png,bars/mask002.png,,,,,,,,,,,,1,2,,,,,,,0,4,0,4,,,,,,,,,,,299.4386,299.9404,300.191,301.4962,space,1.288,,301.4962,38,22,302.4979,302.498,304.3378,space,1.8214,,0,9,9,9,1,175,55,,,,,,,,
,,60786ff5249b808e29b989a4,65af58f1928510ff1336cec9,2024-01-23_24h34.25.601,bars,2023.2.3,Win32,59.82292414,657b66ea316d21385b68909f,,,,,,,,,,,304.3387,305.3401,,,305.8417,306.0922,,114,114,,,,,,,,,,,,,,,,bars/040.png,bars/mask005.png,,,,,,,,,,,,0,1,,,,,,,0,6,3,5,,,,,,,,,,,305.3402,305.8416,306.0922,308.9018,space,2.7928,,308.9021,26,71,309.904,309.9042,313.2861,space,3.3501,,0,10,10,10,1,140,5,,,,,,,,
,,60786ff5249b808e29b989a4,65af58f1928510ff1336cec9,2024-01-23_24h34.25.601,bars,2023.2.3,Win32,59.82292414,657b66ea316d21385b68909f,,,,,,,,,,,313.2867,314.289,,,314.7914,315.042,,11,11,,,,,,,,,,,,,,,,bars/010.png,bars/mask004.png,,,,,,,,,,,,0,1,,,,,,,2,4,3,5,,,,,,,,,,,314.2891,314.7914,315.042,402.4371,space,87.38,,402.4373,26,44,403.4396,403.4397,406.1015,space,2.6314,,0,11,11,11,1,165,55,,,,,,,,
,,60786ff5249b808e29b989a4,65af58f1928510ff1336cec9,2024-01-23_24h34.25.601,bars,2023.2.3,Win32,59.82292414,657b66ea316d21385b68909f,,,,,,,,,,,406.1027,407.1042,,,407.6063,407.8573,,53,53,,,,,,,,,,,,,,,,bars/010.png,bars/mask004.png,,,,,,,,,,,,5,2,,,,,,,0,6,0,5,,,,,,,,,,,407.1043,407.6063,407.8573,409.4786,space,1.6048,,409.4786,68,2,410.4814,410.4815,411.1836,space,0.6854,,0,12,12,12,1,165,55,,,,,,,,
,,60786ff5249b808e29b989a4,65af58f1928510ff1336cec9,2024-01-23_24h34.25.601,bars,2023.2.3,Win32,59.82292414,657b66ea316d21385b68909f,,,,,,,,,,,411.1845,412.1864,,,412.6885,412.9394,,47,47,,,,,,,,,,,,,,,,bars/006.png,bars/mask006.png,,,,,,,,,,,,1,1,,,,,,,2,4,2,4,,,,,,,,,,,412.1865,412.6885,412.9394,417.5529,space,4.5982,,417.553,12,53,418.5555,418.5556,419.9741,space,1.3884,,0,13,13,13,1,35,100,,,,,,,,
,,60786ff5249b808e29b989a4,65af58f1928510ff1336cec9,2024-01-23_24h34.25.601,bars,2023.2.3,Win32,59.82292414,657b66ea316d21385b68909f,,,,,,,,,,,419.9747,420.9749,,,421.4766,421.7271,,45,45,,,,,,,,,,,,,,,,bars/036.png,bars/mask003.png,,,,,,,,,,,,1,2,,,,,,,0,6,0,6,,,,,,,,,,,420.9749,421.4766,421.7272,424.5372,space,2.7925,,424.5372,80,25,425.5388,425.5388,426.4973,space,0.927,,0,14,14,14,1,145,20,,,,,,,,
,,60786ff5249b808e29b989a4,65af58f1928510ff1336cec9,2024-01-23_24h34.25.601,bars,2023.2.3,Win32,59.82292414,657b66ea316d21385b68909f,,,,,,,,,,,426.498,427.4999,,,427.9924,428.2305,,47,47,,,,,,,,,,,,,,,,bars/044.png,bars/mask006.png,,,,,,,,,,,,0,1,,,,,,,2,8,1,8,,,,,,,,,,,427.5,427.9924,428.2306,431.1071,space,2.8592,,431.1072,28,72,432.1087,432.1087,433.2675,space,1.1266,,0,15,15,15,1,75,155,,,,,,,,
,,60786ff5249b808e29b989a4,65af58f1928510ff1336cec9,2024-01-23_24h34.25.601,bars,2023.2.3,Win32,59.82292414,657b66ea316d21385b68909f,,,,,,,,,,,433.2682,434.2687,,,434.7665,435.0176,,113,113,,,,,,,,,,,,,,,,bars/041.png,bars/mask004.png,,,,,,,,,,,,1,2,,,,,,,0,10,0,9,,,,,,,,,,,434.2689,434.7665,435.018,436.2742,space,1.2394,,436.2743,87,28,437.2742,437.2743,438.1619,space,0.8684,,0,16,16,16,1,20,85,,,,,,,,
,,60786ff5249b808e29b989a4,65af58f1928510ff1336cec9,2024-01-23_24h34.25.601,bars,2023.2.3,Win32,59.82292414,657b66ea316d21385b68909f,,,,,,,,,,,438.1626,439.1634,,,439.6653,439.9161,,24,204,,,,,,,,,,,,,,,,bars/040.png,bars/mask000.png,,,,,,,,,,,,4,2,,,,,,,0,10,0,10,,,,,,,,,,,439.1634,439.6652,439.9161,442.5081,space,2.5753,,442.5081,64,19,443.5103,443.5103,450.7542,space,7.2141,,0,17,17,17,1,140,5,,,,,,,,
,,60786ff5249b808e29b989a4,65af58f1928510ff1336cec9,2024-01-23_24h34.25.601,bars,2023.2.3,Win32,59.82292414,657b66ea316d21385b68909f,,,,,,,,,,,450.7675,451.757,,,452.259,452.509,,105,105,,,,,,,,,,,,,,,,bars/018.png,bars/mask000.png,,,,,,,,,,,,5,2,,,,,,,0,10,0,9,,,,,,,,,,,451.757,452.2589,452.5091,454.582,space,2.057,,454.5821,45,15,455.5808,455.5808,473.172,space,17.556,,0,18,18,18,1,150,90,,,,,,,,
,,60786ff5249b808e29b989a4,65af58f1928510ff1336cec9,2024-01-23_24h34.25.601,bars,2023.2.3,Win32,59.82292414,657b66ea316d21385b68909f,,,,,,,,,,,473.1854,474.1747,,,474.6768,474.9278,,155,155,,,,,,,,,,,,,,,,bars/020.png,bars/mask005.png,,,,,,,,,,,,4,2,,,,,,,2,8,2,8,,,,,,,,,,,474.1747,474.6765,474.9278,479.5252,space,4.5808,,479.5252,40,15,480.528,480.528,481.3935,space,0.8374,,0,19,19,19,1,115,170,,,,,,,,
,,60786ff5249b808e29b989a4,65af58f1928510ff1336cec9,2024-01-23_24h34.25.601,bars,2023.2.3,Win32,59.82292414,657b66ea316d21385b68909f,,,,,,,,,,,481.3943,482.3977,,,482.8966,483.147,,94,94,,,,,,,,,,,,,,,,bars/019.png,bars/mask006.png,,,,,,,,,,,,4,2,,,,,,,0,6,1,6,,,,,,,,,,,482.3977,482.8965,483.1471,485.3381,space,2.1742,,485.3383,49,11,486.3402,486.3402,487.2654,space,0.8953,,0,20,20,20,1,45,105,,,,,,,,
,,60786ff5249b808e29b989a4,65af58f1928510ff1336cec9,2024-01-23_24h34.25.601,bars,2023.2.3,Win32,59.82292414,657b66ea316d21385b68909f,,,,,,,,,,,487.2659,488.2682,,,488.7693,489.0202,,154,154,,,,,,,,,,,,,,,,bars/044.png,bars/mask000.png,,,,,,,,,,,,5,2,,,,,,,2,8,2,5,,,,,,,,,,,488.2683,488.7692,489.0203,490.7926,space,1.7564,,490.7926,79,1,491.7953,491.7954,492.9156,space,1.0905,,0,21,21,21,1,75,155,,,,,,,,
,,60786ff5249b808e29b989a4,65af58f1928510ff1336cec9,2024-01-23_24h34.25.601,bars,2023.2.3,Win32,59.82292414,657b66ea316d21385b68909f,,,,,,,,,,,492.9161,493.9184,,,494.4195,494.6705,,159,159,,,,,,,,,,,,,,,,bars/048.png,bars/mask008.png,,,,,,,,,,,,3,2,,,,,,,4,6,4,7,,,,,,,,,,,493.9185,494.4195,494.6706,498.4318,space,3.7462,,498.4319,71,16,499.4347,499.4347,500.2708,space,0.8073,,0,22,22,22,1,50,175,,,,,,,,
,,60786ff5249b808e29b989a4,65af58f1928510ff1336cec9,2024-01-23_24h34.25.601,bars,2023.2.3,Win32,59.82292414,657b66ea316d21385b68909f,,,,,,,,,,,500.2717,501.2737,,,501.7758,502.0269,,56,236,,,,,,,,,,,,,,,,bars/042.png,bars/mask000.png,,,,,,,,,,,,1,2,,,,,,,2,4,3,4,,,,,,,,,,,501.2737,501.7758,502.027,505.855,space,3.8123,,505.8551,89,19,506.8579,506.8579,507.6771,space,0.7902,,0,23,23,23,1,145,75,,,,,,,,
,,60786ff5249b808e29b989a4,65af58f1928510ff1336cec9,2024-01-23_24h34.25.601,bars,2023.2.3,Win32,59.82292414,657b66ea316d21385b68909f,,,,,,,,,,,507.6777,508.6799,,,509.1812,509.432,,148,148,,,,,,,,,,,,,,,,bars/020.png,bars/mask002.png,,,,,,,,,,,,1,2,,,,,,,0,2,1,3,,,,,,,,,,,508.68,509.1811,509.432,512.6253,space,3.1766,,512.6254,33,22,513.6281,513.6281,514.3974,space,0.7397,,0,24,24,24,1,115,170,,,,,,,,
,,60786ff5249b808e29b989a4,65af58f1928510ff1336cec9,2024-01-23_24h34.25.601,bars,2023.2.3,Win32,59.82292414,657b66ea316d21385b68909f,,,,,,,,,,,514.398,515.4003,,,515.9022,516.1522,,157,-23,,,,,,,,,,,,,,,,bars/032.png,bars/mask008.png,,,,,,,,,,,,0,1,,,,,,,0,0,2,0,,,,,,,,,,,515.4004,515.9022,516.1523,518.9946,space,2.826,,518.9947,32,43,519.9973,519.9974,520.7966,space,0.7691,,0,25,25,25,1,125,20,,,,,,,,
,,60786ff5249b808e29b989a4,65af58f1928510ff1336cec9,2024-01-23_24h34.25.601,bars,2023.2.3,Win32,59.82292414,657b66ea316d21385b68909f,,,,,,,,,,,520.7972,521.7979,,,522.3003,522.5502,,40,40,,,,,,,,,,,,,,,,bars/022.png,bars/mask001.png,,,,,,,,,,,,0,2,,,,,,,2,0,1,0,,,,,,,,,,,521.7979,522.3002,522.5502,524.975,space,2.408,,524.9751,55,20,525.9772,525.9772,526.3364,space,0.3289,,0,26,26,26,1,95,20,,,,,,,,
,,60786ff5249b808e29b989a4,65af58f1928510ff1336cec9,2024-01-23_24h34.25.601,bars,2023.2.3,Win32,59.82292414,657b66ea316d21385b68909f,,,,,,,,,,,526.3371,527.3367,,,527.8377,528.0886,,129,129,,,,,,,,,,,,,,,,bars/000.png,bars/mask000.png,,,,,,,,,,,,1,2,,,,,,,0,2,0,2,,,,,,,,,,,527.3367,527.8376,528.0887,530.496,space,2.3914,,530.4961,89,16,531.4985,531.4988,532.185,space,0.6565,,0,27,27,27,1,40,145,,,,,,,,
,,60786ff5249b808e29b989a4,65af58f1928510ff1336cec9,2024-01-23_24h34.25.601,bars,2023.2.3,Win32,59.82292414,657b66ea316d21385b68909f,,,,,,,,,,,532.1856,533.1878,,,533.6892,533.9396,,114,114,,,,,,,,,,,,,,,,bars/049.png,bars/mask003.png,,,,,,,,,,,,1,2,,,,,,,0,0,0,1,,,,,,,,,,,533.1878,533.6891,533.9397,535.5784,space,1.6225,,535.5784,46,1,536.581,536.5811,537.4004,space,0.8021,,0,28,28,28,1,160,115,,,,,,,,
,,60786ff5249b808e29b989a4,65af58f1928510ff1336cec9,2024-01-23_24h34.25.601,bars,2023.2.3,Win32,59.82292414,657b66ea316d21385b68909f,,,,,,,,,,,537.4012,538.4031,,,538.9049,539.1559,,48,48,,,,,,,,,,,,,,,,bars/038.png,bars/mask009.png,,,,,,,,,,,,0,2,,,,,,,2,0,2,0,,,,,,,,,,,538.4034,538.9049,539.1559,540.2764,space,1.104,,540.2764,63,22,541.2791,541.2792,542.0315,space,0.7338,,0,29,29,29,1,165,70,,,,,,,,
,,60786ff5249b808e29b989a4,65af58f1928510ff1336cec9,2024-01-23_24h34.25.601,bars,2023.2.3,Win32,59.82292414,657b66ea316d21385b68909f,,,,,,,,,,,542.0323,543.0343,,,543.5356,543.7865,,124,124,,,,,,,,,,,,,,,,bars/022.png,bars/mask000.png,,,,,,,,,,,,0,1,,,,,,,0,2,0,2,,,,,,,,,,,543.0344,543.5356,543.7865,548.9357,space,5.1326,,548.9358,29,76,549.9384,549.9385,553.132,space,3.1626,,0,30,30,30,1,95,20,,,,,,,,
,,60786ff5249b808e29b989a4,65af58f1928510ff1336cec9,2024-01-23_24h34.25.601,bars,2023.2.3,Win32,59.82292414,657b66ea316d21385b68909f,,,,,,,,,,,553.133,554.1343,,,554.6361,554.8869,,25,205,,,,,,,,,,,,,,,,bars/000.png,bars/mask005.png,,,,,,,,,,,,1,1,,,,,,,2,0,1,0,,,,,,,,,,,554.1344,554.636,554.8869,557.8289,space,2.9269,,557.829,15,60,558.8317,558.8318,569.378,space,10.5165,,0,31,31,31,1,40,145,,,,,,,,
,,60786ff5249b808e29b989a4,65af58f1928510ff1336cec9,2024-01-23_24h34.25.601,bars,2023.2.3,Win32,59.82292414,657b66ea316d21385b68909f,,,,,,,,,,,569.3911,570.3841,,,570.8853,571.1363,,151,-29,,,,,,,,,,,,,,,,bars/007.png,bars/mask000.png,,,,,,,,,,,,1,1,,,,,,,4,2,5,2,,,,,,,,,,,570.3842,570.8852,571.1363,575.6837,space,4.5306,,575.6838,24,84,576.6864,576.6866,588.8072,space,12.0911,,0,32,32,32,1,175,55,,,,,,,,
,,60786ff5249b808e29b989a4,65af58f1928510ff1336cec9,2024-01-23_24h34.25.601,bars,2023.2.3,Win32,59.82292414,657b66ea316d21385b68909f,,,,,,,,,,,588.8211,589.8099,,,590.3109,590.562,,137,137,,,,,,,,,,,,,,,,bars/023.png,bars/mask001.png,,,,,,,,,,,,0,2,,,,,,,2,0,3,1,,,,,,,,,,,589.8099,590.3108,590.562,592.6351,space,2.0566,,592.6352,63,22,593.6381,593.6381,594.4532,space,0.7858,,0,33,33,33,1,20,115,,,,,,,,
,,60786ff5249b808e29b989a4,65af58f1928510ff1336cec9,2024-01-23_24h34.25.601,bars,2023.2.3,Win32,59.82292414,657b66ea316d21385b68909f,,,,,,,,,,,594.4542,595.4548,,,595.9564,596.2075,,65,65,,,,,,,,,,,,,,,,bars/042.png,bars/mask002.png,,,,,,,,,,,,0,2,,,,,,,0,0,0,0,,,,,,,,,,,595.4549,595.9564,596.2075,601.1737,space,4.9488,,601.1737,80,10,602.1753,602.1753,603.2007,space,0.9951,,0,34,34,34,1,145,75,,,,,,,,
,,60786ff5249b808e29b989a4,65af58f1928510ff1336cec9,2024-01-23_24h34.25.601,bars,2023.2.3,Win32,59.82292414,657b66ea316d21385b68909f,,,,,,,,,,,603.2017,604.2034,,,604.7046,604.9555,,26,26,,,,,,,,,,,,,,,,bars/031.png,bars/mask002.png,,,,,,,,,,,,1,2,,,,,,,0,2,1,1,,,,,,,,,,,604.2035,604.7046,604.9555,607.3467,space,2.3745,,607.3467,86,9,608.3496,608.3497,609.1113,space,0.7337,,0,35,35,35,1,120,35,,,,,,,,
,,60786ff5249b808e29b989a4,65af58f1928510ff1336cec9,2024-01-23_24h34.25.601,bars,2023.2.3,Win32,59.82292414,657b66ea316d21385b68909f,,,,,,,,,,,609.1122,610.116,,,610.6178,610.8687,,74,74,,,,,,,,,,,,,,,,bars/039.png,bars/mask006.png,,,,,,,,,,,,0,2,,,,,,,0,0,0,0,,,,,,,,,,,610.1161,610.6178,610.8687,612.8088,space,1.9236,,612.8089,79,31,613.8096,613.8096,614.6703,space,0.8299,,0,36,36,36,1,175,105,,,,,,,,
,,60786ff5249b808e29b989a4,65af58f1928510ff1336cec9,2024-01-23_24h34.25.601,bars,2023.2.3,Win32,59.82292414,657b66ea316d21385b68909f,,,,,,,,,,,614.671,615.6718,,,616.1747,616.424,,94,94,,,,,,,,,,,,,,,,bars/009.png,bars/mask006.png,,,,,,,,,,,,0,2,,,,,,,0,0,0,0,,,,,,,,,,,615.6718,616.1747,616.4241,620.0522,space,3.6117,,620.0523,79,11,621.055,621.055,621.7573,space,0.6735,,0,37,37,37,1,15,105,,,,,,,,
,,60786ff5249b808e29b989a4,65af58f1928510ff1336cec9,2024-01-23_24h34.25.601,bars,2023.2.3,Win32,59.82292414,657b66ea316d21385b68909f,,,,,,,,,,,621.7582,622.7599,,,623.2566,623.507,,60,60,,,,,,,,,,,,,,,,bars/025.png,bars/mask001.png,,,,,,,,,,,,0,2,,,,,,,0,0,0,1,,,,,,,,,,,622.76,623.2563,623.507,625.6218,space,2.0981,,625.6219,45,20,626.6212,626.6213,627.3744,space,0.7345,,0,38,38,38,1,105,40,,,,,,,,
,,60786ff5249b808e29b989a4,65af58f1928510ff1336cec9,2024-01-23_24h34.25.601,bars,2023.2.3,Win32,59.82292414,657b66ea316d21385b68909f,,,,,,,,,,,627.3754,628.3759,,,628.8786,629.1295,,159,-21,,,,,,,,,,,,,,,,bars/046.png,bars/mask002.png,,,,,,,,,,,,3,1,,,,,,,2,0,3,0,,,,,,,,,,,628.3759,628.8784,629.1295,634.0279,space,4.8838,,634.0279,4,74,635.0305,635.0306,636.5814,space,1.521,,0,39,39,39,1,155,85,,,,,,,,
,,60786ff5249b808e29b989a4,65af58f1928510ff1336cec9,2024-01-23_24h34.25.601,bars,2023.2.3,Win32,59.82292414,657b66ea316d21385b68909f,,,,,,,,,,,636.5821,637.5828,,,638.0848,638.3356,,94,94,,,,,,,,,,,,,,,,bars/037.png,bars/mask001.png,,,,,,,,,,,,1,2,,,,,,,4,0,4,1,,,,,,,,,,,637.5828,638.0847,638.3356,641.8633,space,3.5113,,641.8635,56,11,642.8622,642.8625,646.8833,space,3.9884,,0,40,40,40,1,150,105,,,,,,,,
,,60786ff5249b808e29b989a4,65af58f1928510ff1336cec9,2024-01-23_24h34.25.601,bars,2023.2.3,Win32,59.82292414,657b66ea316d21385b68909f,,,,,,,,,,,646.8963,647.8859,,,648.3882,648.638,,112,112,,,,,,,,,,,,,,,,bars/033.png,bars/mask005.png,,,,,,,,,,,,0,2,,,,,,,6,0,4,0,,,,,,,,,,,647.8861,648.3882,648.6381,651.1125,space,2.4586,,651.1126,87,43,652.1149,652.1152,652.8516,space,0.7073,,0,41,41,41,1,25,155,,,,,,,,
,,60786ff5249b808e29b989a4,65af58f1928510ff1336cec9,2024-01-23_24h34.25.601,bars,2023.2.3,Win32,59.82292414,657b66ea316d21385b68909f,,,,,,,,,,,652.852,653.8543,,,654.3554,654.6063,,49,229,,,,,,,,,,,,,,,,bars/023.png,bars/mask004.png,,,,,,,,,,,,0,1,,,,,,,4,2,5,2,,,,,,,,,,,653.8543,654.3553,654.6064,659.2876,space,4.665,,659.2877,29,66,660.2905,660.2906,661.1388,space,0.8186,,0,42,42,42,1,20,115,,,,,,,,
,,60786ff5249b808e29b989a4,65af58f1928510ff1336cec9,2024-01-23_24h34.25.601,bars,2023.2.3,Win32,59.82292414,657b66ea316d21385b68909f,,,,,,,,,,,661.1395,662.1408,,,662.6423,662.8933,,27,27,,,,,,,,,,,,,,,,bars/036.png,bars/mask002.png,,,,,,,,,,,,1,2,,,,,,,6,0,7,1,,,,,,,,,,,662.1408,662.6423,662.8933,664.8671,space,1.9569,,664.8673,62,7,665.8701,665.8702,666.8623,space,0.9588,,0,43,43,43,1,145,20,,,,,,,,
,,60786ff5249b808e29b989a4,65af58f1928510ff1336cec9,2024-01-23_24h34.25.601,bars,2023.2.3,Win32,59.82292414,657b66ea316d21385b68909f,,,,,,,,,,,666.8634,667.8638,,,668.3648,668.6158,,131,131,,,,,,,,,,,,,,,,bars/000.png,bars/mask006.png,,,,,,,,,,,,1,2,,,,,,,4,2,6,2,,,,,,,,,,,667.8638,668.3648,668.6158,670.555,space,1.9238,,670.5552,89,14,671.5579,671.558,672.6112,space,1.0243,,0,44,44,44,1,40,145,,,,,,,,
,,60786ff5249b808e29b989a4,65af58f1928510ff1336cec9,2024-01-23_24h34.25.601,bars,2023.2.3,Win32,59.82292414,657b66ea316d21385b68909f,,,,,,,,,,,672.612,673.6087,,,674.1107,674.3614,,169,169,,,,,,,,,,,,,,,,bars/020.png,bars/mask002.png,,,,,,,,,,,,4,2,,,,,,,2,4,3,4,,,,,,,,,,,673.6088,674.1107,674.3614,676.4692,space,2.0903,,676.4693,54,1,677.4719,677.472,679.4486,space,1.9476,,0,45,45,45,1,115,170,,,,,,,,
,,60786ff5249b808e29b989a4,65af58f1928510ff1336cec9,2024-01-23_24h34.25.601,bars,2023.2.3,Win32,59.82292414,657b66ea316d21385b68909f,,,,,,,,,,,679.4492,680.4524,,,680.9534,681.2043,,23,23,,,,,,,,,,,,,,,,bars/035.png,bars/mask001.png,,,,,,,,,,,,0,1,,,,,,,4,2,4,1,,,,,,,,,,,680.4525,680.9534,681.2044,682.8785,space,1.658,,682.8785,28,37,683.8788,683.8789,684.6118,space,0.7009,,0,46,46,46,1,175,60,,,,,,,,
,,60786ff5249b808e29b989a4,65af58f1928510ff1336cec9,2024-01-23_24h34.25.601,bars,2023.2.3,Win32,59.82292414,657b66ea316d21385b68909f,,,,,,,,,,,684.6126,685.6122,,,686.1137,686.3648,,139,139,,,,,,,,,,,,,,,,bars/048.png,bars/mask002.png,,,,,,,,,,,,0,2,,,,,,,6,0,6,0,,,,,,,,,,,685.6122,686.1137,686.365,689.354,space,2.972,,689.3541,89,36,690.3483,690.3484,691.1148,space,0.7259,,0,47,47,47,1,50,175,,,,,,,,
,,60786ff5249b808e29b989a4,65af58f1928510ff1336cec9,2024-01-23_24h34.25.601,bars,2023.2.3,Win32,59.82292414,657b66ea316d21385b68909f,,,,,,,,,,,691.1156,692.1154,,,692.617,692.8675,,139,139,,,,,,,,,,,,,,,,bars/017.png,bars/mask007.png,,,,,,,,,,,,4,1,,,,,,,4,2,5,2,,,,,,,,,,,692.1154,692.6169,692.8676,695.1756,space,2.291,,695.1756,6,86,696.1776,696.1776,697.2862,space,1.0775,,0,48,48,48,1,145,45,,,,,,,,
,,60786ff5249b808e29b989a4,65af58f1928510ff1336cec9,2024-01-23_24h34.25.601,bars,2023.2.3,Win32,59.82292414,657b66ea316d21385b68909f,,,,,,,,,,,697.2872,698.2888,,,698.7911,699.0416,,138,138,,,,,,,,,,,,,,,,bars/003.png,bars/mask001.png,,,,,,,,,,,,3,2,,,,,,,2,4,4,3,,,,,,,,,,,698.2888,698.7911,699.0417,704.0193,space,4.9621,,704.0195,67,2,705.021,705.0211,709.9245,space,4.8724,,0,49,49,49,1,25,140,,,,,,,,
,,60786ff5249b808e29b989a4,65af58f1928510ff1336cec9,2024-01-23_24h34.25.601,bars,2023.2.3,Win32,59.82292414,657b66ea316d21385b68909f,,,,,,,,,,,,,,,,,,,,,,,,,,,,,,,,,,,,,,,,,,,,,,,,,,,,,,,,,,,,,,,,,,,,,,,,,,,,,,,,,,,,,,,,,,,,,709.9258,769.9194,0,0,0,3,1,sequence_tables/blk015.csv
,,60786ff5249b808e29b989a4,65af58f1928510ff1336cec9,2024-01-23_24h34.25.601,bars,2023.2.3,Win32,59.82292414,657b66ea316d21385b68909f,,,,,,,,,,,773.2924,774.2865,,,774.7889,775.0387,,123,123,,,,,,,,,,,,,,,,bars/002.png,bars/mask004.png,,,,,,,,,,,,5,1,,,,,,,3,2,6,4,,,,,,769.9334,773.2839,space,3.3352,,774.2865,774.7887,775.0387,777.597,space,2.5416,,777.5971,7,38,778.5998,778.5998,778.6143,,,,0,0,0,0,1,130,85,,,,,,,,
,,60786ff5249b808e29b989a4,65af58f1928510ff1336cec9,2024-01-23_24h34.25.601,bars,2023.2.3,Win32,59.82292414,657b66ea316d21385b68909f,,,,,,,,,,,778.6146,779.6145,,,780.1162,780.3667,,42,222,,,,,,,,,,,,,,,,bars/042.png,bars/mask004.png,,,,,,,,,,,,0,2,,,,,,,1,4,1,4,,,,,,,,,,,779.6145,780.1161,780.3668,785.2327,space,4.8486,,785.2328,77,33,786.2345,786.2345,786.2493,,,,0,1,1,1,1,145,75,,,,,,,,
,,60786ff5249b808e29b989a4,65af58f1928510ff1336cec9,2024-01-23_24h34.25.601,bars,2023.2.3,Win32,59.82292414,657b66ea316d21385b68909f,,,,,,,,,,,786.2496,787.2431,,,787.7442,787.9951,,124,124,,,,,,,,,,,,,,,,bars/000.png,bars/mask005.png,,,,,,,,,,,,2,2,,,,,,,3,6,4,5,,,,,,,,,,,787.2431,787.7441,787.9952,789.9517,space,1.9416,,789.9517,84,21,790.9542,790.9543,790.9686,,,,0,2,2,2,1,40,145,,,,,,,,
,,60786ff5249b808e29b989a4,65af58f1928510ff1336cec9,2024-01-23_24h34.25.601,bars,2023.2.3,Win32,59.82292414,657b66ea316d21385b68909f,,,,,,,,,,,790.969,791.9572,,,792.4583,792.7092,,85,85,,,,,,,,,,,,,,,,bars/041.png,bars/mask004.png,,,,,,,,,,,,4,2,,,,,,,5,4,5,4,,,,,,,,,,,791.9573,792.4583,792.7094,793.3955,space,0.6699,,793.3955,65,0,794.3983,794.3983,794.3999,,,,0,3,3,3,1,20,85,,,,,,,,
,,60786ff5249b808e29b989a4,65af58f1928510ff1336cec9,2024-01-23_24h34.25.601,bars,2023.2.3,Win32,59.82292414,657b66ea316d21385b68909f,,,,,,,,,,,794.4004,795.4013,,,795.9024,796.1533,,42,222,,,,,,,,,,,,,,,,bars/017.png,bars/mask000.png,,,,,,,,,,,,5,2,,,,,,,3,6,3,6,,,,,,,,,,,795.4014,795.9024,796.1534,799.8981,space,3.7286,,799.8982,77,3,800.9005,800.9005,800.9141,,,,0,4,4,4,1,145,45,,,,,,,,
,,60786ff5249b808e29b989a4,65af58f1928510ff1336cec9,2024-01-23_24h34.25.601,bars,2023.2.3,Win32,59.82292414,657b66ea316d21385b68909f,,,,,,,,,,,800.9143,801.9036,,,802.4058,802.6566,,154,-26,,,,,,,,,,,,,,,,bars/033.png,bars/mask009.png,,,,,,,,,,,,8,2,,,,,,,5,8,4,8,,,,,,,,,,,801.9036,802.4057,802.6567,804.838,space,2.1666,,804.8381,51,1,805.8274,805.8274,805.829,,,,0,5,5,5,1,25,155,,,,,,,,
,,60786ff5249b808e29b989a4,65af58f1928510ff1336cec9,2024-01-23_24h34.25.601,bars,2023.2.3,Win32,59.82292414,657b66ea316d21385b68909f,,,,,,,,,,,805.8295,806.8302,,,807.3341,807.5828,,37,37,,,,,,,,,,,,,,,,bars/031.png,bars/mask004.png,,,,,,,,,,,,6,2,,,,,,,3,6,2,6,,,,,,,,,,,806.8303,807.334,807.5829,810.091,space,2.4916,,810.0911,83,2,811.0933,811.0933,811.1068,,,,0,6,6,6,1,120,35,,,,,,,,
,,60786ff5249b808e29b989a4,65af58f1928510ff1336cec9,2024-01-23_24h34.25.601,bars,2023.2.3,Win32,59.82292414,657b66ea316d21385b68909f,,,,,,,,,,,811.1071,812.1019,,,812.6031,812.8541,,63,63,,,,,,,,,,,,,,,,bars/026.png,bars/mask000.png,,,,,,,,,,,,1,2,,,,,,,1,4,2,4,,,,,,,,,,,812.102,812.6031,812.8542,815.2612,space,2.3909,,815.2613,28,22,816.2641,816.2642,816.2775,,,,0,7,7,7,1,35,85,,,,,,,,
,,60786ff5249b808e29b989a4,65af58f1928510ff1336cec9,2024-01-23_24h34.25.601,bars,2023.2.3,Win32,59.82292414,657b66ea316d21385b68909f,,,,,,,,,,,816.2778,817.2672,,,817.7693,818.0193,,55,55,,,,,,,,,,,,,,,,bars/027.png,bars/mask005.png,,,,,,,,,,,,2,2,,,,,,,0,2,0,2,,,,,,,,,,,817.2674,817.7692,818.0194,819.9424,space,1.9082,,819.9425,55,5,820.9453,820.9453,820.9585,,,,0,8,8,8,1,110,50,,,,,,,,
,,60786ff5249b808e29b989a4,65af58f1928510ff1336cec9,2024-01-23_24h34.25.601,bars,2023.2.3,Win32,59.82292414,657b66ea316d21385b68909f,,,,,,,,,,,820.9588,821.9498,,,822.4494,822.7004,,26,26,,,,,,,,,,,,,,,,bars/013.png,bars/mask003.png,,,,,,,,,,,,1,2,,,,,,,0,4,0,3,,,,,,,,,,,821.9499,822.4493,822.7005,826.5788,space,3.8627,,826.5789,49,16,827.5816,827.5819,827.5947,,,,0,9,9,9,1,75,10,,,,,,,,
,,60786ff5249b808e29b989a4,65af58f1928510ff1336cec9,2024-01-23_24h34.25.601,bars,2023.2.3,Win32,59.82292414,657b66ea316d21385b68909f,,,,,,,,,,,827.595,828.5849,,,829.087,829.3377,,67,67,,,,,,,,,,,,,,,,bars/039.png,bars/mask007.png,,,,,,,,,,,,0,2,,,,,,,0,6,0,5,,,,,,,,,,,828.5849,829.087,829.3377,833.233,space,3.8786,,833.2331,72,38,834.2357,834.2358,834.2488,,,,0,10,10,10,1,175,105,,,,,,,,
,,60786ff5249b808e29b989a4,65af58f1928510ff1336cec9,2024-01-23_24h34.25.601,bars,2023.2.3,Win32,59.82292414,657b66ea316d21385b68909f,,,,,,,,,,,834.2491,835.239,,,835.7399,835.991,,51,51,,,,,,,,,,,,,,,,bars/035.png,bars/mask005.png,,,,,,,,,,,,6,2,,,,,,,0,8,0,9,,,,,,,,,,,835.239,835.7399,835.991,839.3683,space,3.3612,,839.3683,56,9,840.371,840.3711,840.3842,,,,0,11,11,11,1,175,60,,,,,,,,
,,60786ff5249b808e29b989a4,65af58f1928510ff1336cec9,2024-01-23_24h34.25.601,bars,2023.2.3,Win32,59.82292414,657b66ea316d21385b68909f,,,,,,,,,,,840.3846,841.374,,,841.8752,842.1261,,63,63,,,,,,,,,,,,,,,,bars/010.png,bars/mask005.png,,,,,,,,,,,,7,2,,,,,,,2,10,2,9,,,,,,,,,,,841.3741,841.8751,842.1261,843.1635,space,1.0204,,843.1635,78,8,844.1661,844.1661,844.1675,,,,0,12,12,12,1,165,55,,,,,,,,
,,60786ff5249b808e29b989a4,65af58f1928510ff1336cec9,2024-01-23_24h34.25.601,bars,2023.2.3,Win32,59.82292414,657b66ea316d21385b68909f,,,,,,,,,,,844.1682,845.1692,,,845.6703,845.9213,,118,118,,,,,,,,,,,,,,,,bars/043.png,bars/mask005.png,,,,,,,,,,,,6,2,,,,,,,0,10,0,10,,,,,,,,,,,845.1692,845.6701,845.9214,849.6156,space,3.6783,,849.6157,88,12,850.6183,850.6184,850.6316,,,,0,13,13,13,1,30,130,,,,,,,,
,,60786ff5249b808e29b989a4,65af58f1928510ff1336cec9,2024-01-23_24h34.25.601,bars,2023.2.3,Win32,59.82292414,657b66ea316d21385b68909f,,,,,,,,,,,850.6318,851.6215,,,852.1103,852.3521,,49,49,,,,,,,,,,,,,,,,bars/010.png,bars/mask002.png,,,,,,,,,,,,8,2,,,,,,,0,10,0,10,,,,,,,,,,,851.6216,852.1102,852.3522,855.0945,space,2.7255,,855.0948,64,6,856.0966,856.0967,856.1101,,,,0,14,14,14,1,165,55,,,,,,,,
,,60786ff5249b808e29b989a4,65af58f1928510ff1336cec9,2024-01-23_24h34.25.601,bars,2023.2.3,Win32,59.82292414,657b66ea316d21385b68909f,,,,,,,,,,,856.1104,857.1042,,,857.6068,857.8579,,125,125,,,,,,,,,,,,,,,,bars/044.png,bars/mask007.png,,,,,,,,,,,,0,2,,,,,,,2,8,3,8,,,,,,,,,,,857.1043,857.6066,857.8579,861.4525,space,3.5779,,861.4528,50,30,862.4547,862.4549,862.4681,,,,0,15,15,15,1,75,155,,,,,,,,
,,60786ff5249b808e29b989a4,65af58f1928510ff1336cec9,2024-01-23_24h34.25.601,bars,2023.2.3,Win32,59.82292414,657b66ea316d21385b68909f,,,,,,,,,,,862.4684,863.4576,,,863.9592,864.21,,58,58,,,,,,,,,,,,,,,,bars/025.png,bars/mask000.png,,,,,,,,,,,,2,2,,,,,,,0,6,0,5,,,,,,,,,,,863.4579,863.9589,864.2101,866.6172,space,2.3916,,866.6172,47,18,867.6203,867.6204,867.6333,,,,0,16,16,16,1,105,40,,,,,,,,
,,60786ff5249b808e29b989a4,65af58f1928510ff1336cec9,2024-01-23_24h34.25.601,bars,2023.2.3,Win32,59.82292414,657b66ea316d21385b68909f,,,,,,,,,,,867.6336,868.623,,,869.1252,869.376,,44,224,,,,,,,,,,,,,,,,bars/027.png,bars/mask004.png,,,,,,,,,,,,2,2,,,,,,,2,4,2,3,,,,,,,,,,,868.623,869.1252,869.376,873.4062,space,4.015,,873.4062,66,6,874.4072,874.4073,874.4205,,,,0,17,17,17,1,110,50,,,,,,,,
,,60786ff5249b808e29b989a4,65af58f1928510ff1336cec9,2024-01-23_24h34.25.601,bars,2023.2.3,Win32,59.82292414,657b66ea316d21385b68909f,,,,,,,,,,,874.4208,875.4103,,,875.9125,876.1633,,92,272,,,,,,,,,,,,,,,,bars/018.png,bars/mask009.png,,,,,,,,,,,,7,2,,,,,,,0,6,1,7,,,,,,,,,,,875.4105,875.9125,876.1634,880.1419,space,3.9627,,880.142,58,2,881.1446,881.1446,881.1578,,,,0,18,18,18,1,150,90,,,,,,,,
,,60786ff5249b808e29b989a4,65af58f1928510ff1336cec9,2024-01-23_24h34.25.601,bars,2023.2.3,Win32,59.82292414,657b66ea316d21385b68909f,,,,,,,,,,,881.1581,882.1476,,,882.6496,882.9005,,84,84,,,,,,,,,,,,,,,,bars/011.png,bars/mask000.png,,,,,,,,,,,,8,2,,,,,,,2,8,2,8,,,,,,,,,,,882.1476,882.6496,882.9006,886.5278,space,3.6111,,886.5279,76,1,887.5307,887.5307,887.5441,,,,0,19,19,19,1,160,85,,,,,,,,
,,60786ff5249b808e29b989a4,65af58f1928510ff1336cec9,2024-01-23_24h34.25.601,bars,2023.2.3,Win32,59.82292414,657b66ea316d21385b68909f,,,,,,,,,,,887.5443,888.5337,,,889.0359,889.286,,137,-43,,,,,,,,,,,,,,,,bars/023.png,bars/mask003.png,,,,,,,,,,,,2,2,,,,,,,4,6,4,8,,,,,,,,,,,888.5337,889.0359,889.286,895.1712,space,5.8688,,895.1713,63,22,896.174,896.1741,896.1875,,,,0,20,20,20,1,20,115,,,,,,,,
,,60786ff5249b808e29b989a4,65af58f1928510ff1336cec9,2024-01-23_24h34.25.601,bars,2023.2.3,Win32,59.82292414,657b66ea316d21385b68909f,,,,,,,,,,,896.1877,897.1772,,,897.6781,897.9291,,40,40,,,,,,,,,,,,,,,,bars/045.png,bars/mask007.png,,,,,,,,,,,,0,2,,,,,,,6,4,6,4,,,,,,,,,,,897.1772,897.678,897.9292,904.5825,space,6.638,,904.5825,60,30,905.5854,905.5854,905.599,,,,0,21,21,21,1,100,10,,,,,,,,
,,60786ff5249b808e29b989a4,65af58f1928510ff1336cec9,2024-01-23_24h34.25.601,bars,2023.2.3,Win32,59.82292414,657b66ea316d21385b68909f,,,,,,,,,,,905.5993,906.5882,,,907.0905,907.3414,,30,30,,,,,,,,,,,,,,,,bars/027.png,bars/mask003.png,,,,,,,,,,,,1,2,,,,,,,8,2,8,2,,,,,,,,,,,906.5883,907.0905,907.3416,912.2229,space,4.8653,,912.2229,80,20,913.2257,913.2257,913.2391,,,,0,22,22,22,1,110,50,,,,,,,,
,,60786ff5249b808e29b989a4,65af58f1928510ff1336cec9,2024-01-23_24h34.25.601,bars,2023.2.3,Win32,59.82292414,657b66ea316d21385b68909f,,,,,,,,,,,913.2395,914.2286,,,914.7297,914.9808,,161,161,,,,,,,,,,,,,,,,bars/044.png,bars/mask004.png,,,,,,,,,,,,5,2,,,,,,,6,4,6,6,,,,,,,,,,,914.2287,914.7296,914.9809,915.6159,space,0.6195,,915.616,86,6,916.6188,916.6188,916.6209,,,,0,23,23,23,1,75,155,,,,,,,,
,,60786ff5249b808e29b989a4,65af58f1928510ff1336cec9,2024-01-23_24h34.25.601,bars,2023.2.3,Win32,59.82292414,657b66ea316d21385b68909f,,,,,,,,,,,916.6215,917.6218,,,918.1242,918.3749,,125,125,,,,,,,,,,,,,,,,bars/009.png,bars/mask006.png,,,,,,,,,,,,0,2,,,,,,,4,2,3,1,,,,,,,,,,,917.6219,918.1241,918.3749,920.1801,space,1.788,,920.1802,70,20,921.1828,921.1831,921.1848,,,,0,24,24,24,1,15,105,,,,,,,,
,,60786ff5249b808e29b989a4,65af58f1928510ff1336cec9,2024-01-23_24h34.25.601,bars,2023.2.3,Win32,59.82292414,657b66ea316d21385b68909f,,,,,,,,,,,921.1854,922.1859,,,922.6881,922.9379,,170,170,,,,,,,,,,,,,,,,bars/033.png,bars/mask004.png,,,,,,,,,,,,1,2,,,,,,,2,4,2,2,,,,,,,,,,,922.186,922.688,922.9379,925.4292,space,2.4612,,925.4293,35,15,926.432,926.4321,926.4456,,,,0,25,25,25,1,25,155,,,,,,,,
,,60786ff5249b808e29b989a4,65af58f1928510ff1336cec9,2024-01-23_24h34.25.601,bars,2023.2.3,Win32,59.82292414,657b66ea316d21385b68909f,,,,,,,,,,,926.4458,927.4351,,,927.9372,928.1869,,54,54,,,,,,,,,,,,,,,,bars/046.png,bars/mask009.png,,,,,,,,,,,,0,2,,,,,,,4,6,4,6,,,,,,,,,,,927.4352,927.9372,928.1873,929.9594,space,1.7563,,929.9594,79,31,930.9624,930.9624,930.9642,,,,0,26,26,26,1,155,85,,,,,,,,
,,60786ff5249b808e29b989a4,65af58f1928510ff1336cec9,2024-01-23_24h34.25.601,bars,2023.2.3,Win32,59.82292414,657b66ea316d21385b68909f,,,,,,,,,,,930.9647,931.9666,,,932.4616,932.7126,,23,23,,,,,,,,,,,,,,,,bars/007.png,bars/mask006.png,,,,,,,,,,,,0,1,,,,,,,2,4,1,1,,,,,,,,,,,931.9667,932.4616,932.7127,934.8377,space,2.1074,,934.8377,28,32,935.8391,935.8392,935.8545,,,,0,27,27,27,1,175,55,,,,,,,,
,,60786ff5249b808e29b989a4,65af58f1928510ff1336cec9,2024-01-23_24h34.25.601,bars,2023.2.3,Win32,59.82292414,657b66ea316d21385b68909f,,,,,,,,,,,935.8548,936.8476,,,937.3486,937.5997,,65,65,,,,,,,,,,,,,,,,bars/026.png,bars/mask002.png,,,,,,,,,,,,1,2,,,,,,,4,2,5,3,,,,,,,,,,,936.8476,937.3485,937.5997,939.2379,space,1.6222,,939.238,30,20,940.2409,940.241,940.255,,,,0,28,28,28,1,35,85,,,,,,,,
,,60786ff5249b808e29b989a4,65af58f1928510ff1336cec9,2024-01-23_24h34.25.601,bars,2023.2.3,Win32,59.82292414,657b66ea316d21385b68909f,,,,,,,,,,,940.2553,941.2437,,,941.7456,941.9967,,45,225,,,,,,,,,,,,,,,,bars/035.png,bars/mask008.png,,,,,,,,,,,,0,2,,,,,,,2,0,3,0,,,,,,,,,,,941.2438,941.7456,941.9967,946.7611,space,4.7479,,946.7612,50,15,947.7591,947.7592,947.7724,,,,0,29,29,29,1,175,60,,,,,,,,
,,60786ff5249b808e29b989a4,65af58f1928510ff1336cec9,2024-01-23_24h34.25.601,bars,2023.2.3,Win32,59.82292414,657b66ea316d21385b68909f,,,,,,,,,,,947.7726,948.767,,,949.2681,949.5188,,62,62,,,,,,,,,,,,,,,,bars/001.png,bars/mask002.png,,,,,,,,,,,,0,2,,,,,,,0,0,2,0,,,,,,,,,,,948.767,949.268,949.5188,953.7325,space,4.1969,,953.7325,68,23,954.7353,954.7353,954.7485,,,,0,30,30,30,1,130,85,,,,,,,,
,,60786ff5249b808e29b989a4,65af58f1928510ff1336cec9,2024-01-23_24h34.25.601,bars,2023.2.3,Win32,59.82292414,657b66ea316d21385b68909f,,,,,,,,,,,954.7488,955.7381,,,956.2393,956.4904,,109,109,,,,,,,,,,,,,,,,bars/023.png,bars/mask007.png,,,,,,,,,,,,0,2,,,,,,,2,0,1,0,,,,,,,,,,,955.7382,956.2392,956.4904,960.2014,space,3.695,,960.2015,89,6,961.2043,961.2044,961.2176,,,,0,31,31,31,1,20,115,,,,,,,,
,,60786ff5249b808e29b989a4,65af58f1928510ff1336cec9,2024-01-23_24h34.25.601,bars,2023.2.3,Win32,59.82292414,657b66ea316d21385b68909f,,,,,,,,,,,961.2179,962.2074,,,962.71,962.9601,,52,232,,,,,,,,,,,,,,,,bars/033.png,bars/mask005.png,,,,,,,,,,,,0,1,,,,,,,0,0,0,0,,,,,,,,,,,962.2075,962.71,962.9601,967.6078,space,4.6321,,967.6079,27,77,968.6107,968.6107,968.6251,,,,0,32,32,32,1,25,155,,,,,,,,
,,60786ff5249b808e29b989a4,65af58f1928510ff1336cec9,2024-01-23_24h34.25.601,bars,2023.2.3,Win32,59.82292414,657b66ea316d21385b68909f,,,,,,,,,,,968.6254,969.6136,,,970.1148,970.3659,,176,176,,,,,,,,,,,,,,,,bars/009.png,bars/mask001.png,,,,,,,,,,,,0,1,,,,,,,0,2,0,2,,,,,,,,,,,969.6137,970.1147,970.366,972.5391,space,2.1576,,972.5392,19,71,973.5422,973.5422,973.5439,,,,0,33,33,33,1,15,105,,,,,,,,
,,60786ff5249b808e29b989a4,65af58f1928510ff1336cec9,2024-01-23_24h34.25.601,bars,2023.2.3,Win32,59.82292414,657b66ea316d21385b68909f,,,,,,,,,,,973.5444,974.5449,,,975.0476,975.2979,,33,213,,,,,,,,,,,,,,,,bars/006.png,bars/mask002.png,,,,,,,,,,,,2,1,,,,,,,2,0,2,1,,,,,,,,,,,974.545,975.0475,975.2979,979.3763,space,4.0627,,979.3764,2,67,980.3787,980.3788,980.3924,,,,0,34,34,34,1,35,100,,,,,,,,
,,60786ff5249b808e29b989a4,65af58f1928510ff1336cec9,2024-01-23_24h34.25.601,bars,2023.2.3,Win32,59.82292414,657b66ea316d21385b68909f,,,,,,,,,,,980.3927,981.3822,,,981.8843,982.1353,,161,-19,,,,,,,,,,,,,,,,bars/049.png,bars/mask004.png,,,,,,,,,,,,0,1,,,,,,,0,2,0,1,,,,,,,,,,,981.3823,981.8842,982.1354,987.9706,space,5.8181,,987.9707,1,46,988.9722,988.9723,988.9858,,,,0,35,35,35,1,160,115,,,,,,,,
,,60786ff5249b808e29b989a4,65af58f1928510ff1336cec9,2024-01-23_24h34.25.601,bars,2023.2.3,Win32,59.82292414,657b66ea316d21385b68909f,,,,,,,,,,,988.9861,989.9755,,,990.4786,990.7274,,162,-18,,,,,,,,,,,,,,,,bars/049.png,bars/mask001.png,,,,,,,,,,,,3,1,,,,,,,2,0,3,0,,,,,,,,,,,989.9756,990.4785,990.7275,994.7068,space,3.9628,,994.7068,2,47,995.7097,995.7098,995.7228,,,,0,36,36,36,1,160,115,,,,,,,,
,,60786ff5249b808e29b989a4,65af58f1928510ff1336cec9,2024-01-23_24h34.25.601,bars,2023.2.3,Win32,59.82292414,657b66ea316d21385b68909f,,,,,,,,,,,995.7231,996.7127,,,997.2139,997.4647,,123,123,,,,,,,,,,,,,,,,bars/030.png,bars/mask006.png,,,,,,,,,,,,2,1,,,,,,,4,2,5,1,,,,,,,,,,,996.7127,997.2137,997.4648,1001.5772,space,4.0967,,1001.5772,17,58,1002.5797,1002.5799,1002.5931,,,,0,37,37,37,1,140,65,,,,,,,,
,,60786ff5249b808e29b989a4,65af58f1928510ff1336cec9,2024-01-23_24h34.25.601,bars,2023.2.3,Win32,59.82292414,657b66ea316d21385b68909f,,,,,,,,,,,1002.5934,1003.583,,,1004.0851,1004.3361,,75,75,,,,,,,,,,,,,,,,bars/022.png,bars/mask000.png,,,,,,,,,,,,1,1,,,,,,,2,4,2,5,,,,,,,,,,,1003.583,1004.085,1004.3361,1008.7993,space,4.4469,,1008.7993,20,55,1009.8021,1009.8022,1009.8154,,,,0,38,38,38,1,95,20,,,,,,,,
,,60786ff5249b808e29b989a4,65af58f1928510ff1336cec9,2024-01-23_24h34.25.601,bars,2023.2.3,Win32,59.82292414,657b66ea316d21385b68909f,,,,,,,,,,,1009.8156,1010.8052,,,1011.3073,1011.5572,,40,40,,,,,,,,,,,,,,,,bars/023.png,bars/mask006.png,,,,,,,,,,,,1,1,,,,,,,4,6,3,6,,,,,,,,,,,1010.8052,1011.3073,1011.5573,1015.2526,space,3.6783,,1015.2527,20,75,1016.2554,1016.2554,1016.2686,,,,0,39,39,39,1,20,115,,,,,,,,
,,60786ff5249b808e29b989a4,65af58f1928510ff1336cec9,2024-01-23_24h34.25.601,bars,2023.2.3,Win32,59.82292414,657b66ea316d21385b68909f,,,,,,,,,,,1016.2689,1017.2584,,,1017.7599,1018.0105,,29,29,,,,,,,,,,,,,,,,bars/047.png,bars/mask002.png,,,,,,,,,,,,1,1,,,,,,,2,4,1,3,,,,,,,,,,,1017.2584,1017.7599,1018.0106,1021.4049,space,3.3773,,1021.4049,14,41,1022.4076,1022.4078,1022.4207,,,,0,40,40,40,1,15,70,,,,,,,,
,,60786ff5249b808e29b989a4,65af58f1928510ff1336cec9,2024-01-23_24h34.25.601,bars,2023.2.3,Win32,59.82292414,657b66ea316d21385b68909f,,,,,,,,,,,1022.4209,1023.4106,,,1023.9117,1024.1627,,26,26,,,,,,,,,,,,,,,,bars/007.png,bars/mask008.png,,,,,,,,,,,,0,2,,,,,,,4,2,3,2,,,,,,,,,,,1023.4107,1023.9117,1024.1628,1025.467,space,1.2876,,1025.467,31,29,1026.4697,1026.4698,1026.4735,,,,0,41,41,41,1,175,55,,,,,,,,
,,60786ff5249b808e29b989a4,65af58f1928510ff1336cec9,2024-01-23_24h34.25.601,bars,2023.2.3,Win32,59.82292414,657b66ea316d21385b68909f,,,,,,,,,,,1026.474,1027.4728,,,1027.9739,1028.2247,,46,46,,,,,,,,,,,,,,,,bars/029.png,bars/mask009.png,,,,,,,,,,,,1,2,,,,,,,6,0,7,1,,,,,,,,,,,1027.4728,1027.9738,1028.2249,1032.1541,space,3.9129,,1032.1542,44,1,1033.1569,1033.157,1033.1702,,,,0,42,42,42,1,90,45,,,,,,,,
,,60786ff5249b808e29b989a4,65af58f1928510ff1336cec9,2024-01-23_24h34.25.601,bars,2023.2.3,Win32,59.82292414,657b66ea316d21385b68909f,,,,,,,,,,,1033.1705,1034.1601,,,1034.6612,1034.9118,,125,125,,,,,,,,,,,,,,,,bars/012.png,bars/mask003.png,,,,,,,,,,,,0,1,,,,,,,4,0,6,0,,,,,,,,,,,1034.1602,1034.6609,1034.9119,1035.7928,space,0.8664,,1035.7929,35,70,1036.7958,1036.7959,1036.7995,,,,0,43,43,43,1,90,15,,,,,,,,
,,60786ff5249b808e29b989a4,65af58f1928510ff1336cec9,2024-01-23_24h34.25.601,bars,2023.2.3,Win32,59.82292414,657b66ea316d21385b68909f,,,,,,,,,,,1036.7999,1037.7988,,,1038.3003,1038.5509,,127,127,,,,,,,,,,,,,,,,bars/018.png,bars/mask003.png,,,,,,,,,,,,0,1,,,,,,,2,0,2,0,,,,,,,,,,,1037.7988,1038.3003,1038.5509,1041.4273,space,2.8594,,1041.4273,23,37,1042.4293,1042.4293,1042.4427,,,,0,44,44,44,1,150,90,,,,,,,,
,,60786ff5249b808e29b989a4,65af58f1928510ff1336cec9,2024-01-23_24h34.25.601,bars,2023.2.3,Win32,59.82292414,657b66ea316d21385b68909f,,,,,,,,,,,1042.443,1043.4324,,,1043.9343,1044.1849,,59,59,,,,,,,,,,,,,,,,bars/013.png,bars/mask001.png,,,,,,,,,,,,0,1,,,,,,,0,0,0,2,,,,,,,,,,,1043.4326,1043.9343,1044.185,1047.6302,space,3.4281,,1047.6303,16,49,1048.6316,1048.6316,1048.6449,,,,0,45,45,45,1,75,10,,,,,,,,
,,60786ff5249b808e29b989a4,65af58f1928510ff1336cec9,2024-01-23_24h34.25.601,bars,2023.2.3,Win32,59.82292414,657b66ea316d21385b68909f,,,,,,,,,,,1048.6453,1049.6395,,,1050.1367,1050.3874,,32,32,,,,,,,,,,,,,,,,bars/047.png,bars/mask008.png,,,,,,,,,,,,1,1,,,,,,,2,2,2,1,,,,,,,,,,,1049.6397,1050.1366,1050.3874,1053.3983,space,2.9939,,1053.3984,17,38,1054.4003,1054.4004,1054.4145,,,,0,46,46,46,1,15,70,,,,,,,,
,,60786ff5249b808e29b989a4,65af58f1928510ff1336cec9,2024-01-23_24h34.25.601,bars,2023.2.3,Win32,59.82292414,657b66ea316d21385b68909f,,,,,,,,,,,1054.4148,1055.4077,,,1055.9088,1056.1599,,121,121,,,,,,,,,,,,,,,,bars/031.png,bars/mask005.png,,,,,,,,,,,,5,1,,,,,,,4,0,5,1,,,,,,,,,,,1055.4078,1055.9088,1056.16,1059.2359,space,3.0591,,1059.236,1,86,1060.239,1060.2391,1060.2521,,,,0,47,47,47,1,120,35,,,,,,,,
,,60786ff5249b808e29b989a4,65af58f1928510ff1336cec9,2024-01-23_24h34.25.601,bars,2023.2.3,Win32,59.82292414,657b66ea316d21385b68909f,,,,,,,,,,,1060.2524,1061.2531,,,1061.755,1062.0057,,68,68,,,,,,,,,,,,,,,,bars/022.png,bars/mask006.png,,,,,,,,,,,,1,1,,,,,,,6,2,7,3,,,,,,,,,,,1061.2532,1061.755,1062.0057,1065.0659,space,3.0434,,1065.066,27,48,1066.0678,1066.0679,1066.0813,,,,0,48,48,48,1,95,20,,,,,,,,
,,60786ff5249b808e29b989a4,65af58f1928510ff1336cec9,2024-01-23_24h34.25.601,bars,2023.2.3,Win32,59.82292414,657b66ea316d21385b68909f,,,,,,,,,,,1066.0815,1067.0762,,,1067.5783,1067.8283,,120,120,,,,,,,,,,,,,,,,bars/025.png,bars/mask003.png,,,,,,,,,,,,2,1,,,,,,,4,4,3,4,,,,,,,,,,,1067.0763,1067.5783,1067.8284,1069.5009,space,1.6555,,1069.501,15,80,1070.5035,1070.5035,1070.505,,,,0,49,49,49,1,105,40,,,,,,,,
,,60786ff5249b808e29b989a4,65af58f1928510ff1336cec9,2024-01-23_24h34.25.601,bars,2023.2.3,Win32,59.82292414,657b66ea316d21385b68909f,,,,,,,,,,,,,,,,,,,,,,,,,,,,,,,,,,,,,,,,,,,,,,,,,,,,,,,,,,,,,,,,,,,,,,,,,,,,,,,,,,,,,,,,,,,,,1070.5052,1130.4986,0,1,1,4,1,sequence_tables/blk023.csv
,,60786ff5249b808e29b989a4,65af58f1928510ff1336cec9,2024-01-23_24h34.25.601,bars,2023.2.3,Win32,59.82292414,657b66ea316d21385b68909f,,,,,,,,,,,1136.5895,1137.5852,,,1138.0871,1138.3377,,41,41,,,,,,,,,,,,,,,,bars/048.png,bars/mask008.png,,,,,,,,,,,,4,1,,,,,,,5,9,5,7,,,,,,1130.5122,1136.571,space,6.0382,,1137.5853,1138.087,1138.3377,1140.2781,space,1.9239,,1140.2784,9,46,1141.2798,1141.2798,1141.2932,,,,0,0,0,0,1,50,175,,,,,,,,
,,60786ff5249b808e29b989a4,65af58f1928510ff1336cec9,2024-01-23_24h34.25.601,bars,2023.2.3,Win32,59.82292414,657b66ea316d21385b68909f,,,,,,,,,,,1141.2936,1142.2879,,,1142.7903,1143.0399,,154,-26,,,,,,,,,,,,,,,,bars/035.png,bars/mask003.png,,,,,,,,,,,,3,1,,,,,,,7,7,10,5,,,,,,,,,,,1142.288,1142.7903,1143.04,1146.5014,space,3.4465,,1146.5014,21,86,1147.5042,1147.5042,1147.5175,,,,0,1,1,1,1,175,60,,,,,,,,
,,60786ff5249b808e29b989a4,65af58f1928510ff1336cec9,2024-01-23_24h34.25.601,bars,2023.2.3,Win32,59.82292414,657b66ea316d21385b68909f,,,,,,,,,,,1147.5177,1148.5073,,,1149.0083,1149.2593,,173,173,,,,,,,,,,,,,,,,bars/018.png,bars/mask001.png,,,,,,,,,,,,1,1,,,,,,,5,5,6,3,,,,,,,,,,,1148.5074,1149.0082,1149.2594,1152.9206,space,3.6449,,1152.9207,23,83,1153.9235,1153.9235,1153.9367,,,,0,2,2,2,1,150,90,,,,,,,,
,,60786ff5249b808e29b989a4,65af58f1928510ff1336cec9,2024-01-23_24h34.25.601,bars,2023.2.3,Win32,59.82292414,657b66ea316d21385b68909f,,,,,,,,,,,1153.9371,1154.9266,,,1155.4285,1155.6784,,44,44,,,,,,,,,,,,,,,,bars/031.png,bars/mask008.png,,,,,,,,,,,,4,2,,,,,,,7,3,6,6,,,,,,,,,,,1154.9267,1155.4284,1155.6785,1158.5713,space,2.8765,,1158.5713,76,9,1159.5739,1159.5739,1159.5878,,,,0,3,3,3,1,120,35,,,,,,,,
,,60786ff5249b808e29b989a4,65af58f1928510ff1336cec9,2024-01-23_24h34.25.601,bars,2023.2.3,Win32,59.82292414,657b66ea316d21385b68909f,,,,,,,,,,,1159.5882,1160.5766,,,1161.0788,1161.3294,,133,133,,,,,,,,,,,,,,,,bars/040.png,bars/mask007.png,,,,,,,,,,,,7,1,,,,,,,9,5,9,6,,,,,,,,,,,1160.5766,1161.0786,1161.3297,1162.082,space,0.7355,,1162.082,7,52,1163.0697,1163.0697,1163.0745,,,,0,4,4,4,1,140,5,,,,,,,,
,,60786ff5249b808e29b989a4,65af58f1928510ff1336cec9,2024-01-23_24h34.25.601,bars,2023.2.3,Win32,59.82292414,657b66ea316d21385b68909f,,,,,,,,,,,1163.0751,1164.0706,,,1164.5728,1164.8228,,48,228,,,,,,,,,,,,,,,,bars/005.png,bars/mask005.png,,,,,,,,,,,,0,1,,,,,,,10,7,9,6,,,,,,,,,,,1164.0706,1164.5728,1164.8229,1169.3042,space,4.4643,,1169.3042,38,88,1170.3069,1170.307,1170.32,,,,0,5,5,5,1,10,140,,,,,,,,
,,60786ff5249b808e29b989a4,65af58f1928510ff1336cec9,2024-01-23_24h34.25.601,bars,2023.2.3,Win32,59.82292414,657b66ea316d21385b68909f,,,,,,,,,,,1170.3202,1171.31,,,1171.8111,1172.062,,57,237,,,,,,,,,,,,,,,,bars/019.png,bars/mask004.png,,,,,,,,,,,,4,1,,,,,,,8,5,7,4,,,,,,,,,,,1171.31,1171.811,1172.0621,1174.8873,space,2.8089,,1174.8874,12,48,1175.8921,1175.8921,1175.9053,,,,0,6,6,6,1,45,105,,,,,,,,
,,60786ff5249b808e29b989a4,65af58f1928510ff1336cec9,2024-01-23_24h34.25.601,bars,2023.2.3,Win32,59.82292414,657b66ea316d21385b68909f,,,,,,,,,,,1175.9056,1176.9102,,,1177.4114,1177.6622,,152,152,,,,,,,,,,,,,,,,bars/040.png,bars/mask007.png,,,,,,,,,,,,4,1,,,,,,,6,7,6,8,,,,,,,,,,,1176.9103,1177.4114,1177.6623,1179.3345,space,1.6557,,1179.3345,12,33,1180.3374,1180.3374,1180.3388,,,,0,7,7,7,1,140,5,,,,,,,,
,,60786ff5249b808e29b989a4,65af58f1928510ff1336cec9,2024-01-23_24h34.25.601,bars,2023.2.3,Win32,59.82292414,657b66ea316d21385b68909f,,,,,,,,,,,1180.3393,1181.3404,,,1181.8416,1182.0925,,51,51,,,,,,,,,,,,,,,,bars/007.png,bars/mask009.png,,,,,,,,,,,,5,2,,,,,,,8,5,9,6,,,,,,,,,,,1181.3405,1181.8415,1182.0926,1183.6636,space,1.5556,,1183.6637,56,4,1184.6665,1184.6666,1184.6707,,,,0,8,8,8,1,175,55,,,,,,,,
,,60786ff5249b808e29b989a4,65af58f1928510ff1336cec9,2024-01-23_24h34.25.601,bars,2023.2.3,Win32,59.82292414,657b66ea316d21385b68909f,,,,,,,,,,,1184.671,1185.6695,,,1186.1716,1186.4226,,40,40,,,,,,,,,,,,,,,,bars/035.png,bars/mask002.png,,,,,,,,,,,,3,2,,,,,,,10,7,10,8,,,,,,,,,,,1185.6696,1186.1716,1186.4226,1190.6189,space,4.1796,,1190.6189,45,20,1191.6218,1191.6218,1191.6349,,,,0,9,9,9,1,175,60,,,,,,,,
,,60786ff5249b808e29b989a4,65af58f1928510ff1336cec9,2024-01-23_24h34.25.601,bars,2023.2.3,Win32,59.82292414,657b66ea316d21385b68909f,,,,,,,,,,,1191.6352,1192.6248,,,1193.126,1193.377,,44,224,,,,,,,,,,,,,,,,bars/016.png,bars/mask000.png,,,,,,,,,,,,7,1,,,,,,,8,9,8,9,,,,,,,,,,,1192.6248,1193.126,1193.377,1197.0884,space,3.6944,,1197.0884,4,59,1198.0912,1198.0912,1198.1055,,,,0,10,10,10,1,40,165,,,,,,,,
,,60786ff5249b808e29b989a4,65af58f1928510ff1336cec9,2024-01-23_24h34.25.601,bars,2023.2.3,Win32,59.82292414,657b66ea316d21385b68909f,,,,,,,,,,,1198.1059,1199.0941,,,1199.5952,1199.8462,,70,70,,,,,,,,,,,,,,,,bars/038.png,bars/mask008.png,,,,,,,,,,,,10,2,,,,,,,6,10,5,10,,,,,,,,,,,1199.0942,1199.5951,1199.8462,1200.5654,space,0.703,,1200.5655,85,0,1201.5678,1201.5679,1201.5703,,,,0,11,11,11,1,165,70,,,,,,,,
,,60786ff5249b808e29b989a4,65af58f1928510ff1336cec9,2024-01-23_24h34.25.601,bars,2023.2.3,Win32,59.82292414,657b66ea316d21385b68909f,,,,,,,,,,,1201.5707,1202.5721,,,1203.0733,1203.3232,,176,176,,,,,,,,,,,,,,,,bars/040.png,bars/mask004.png,,,,,,,,,,,,6,2,,,,,,,8,10,10,8,,,,,,,,,,,1202.5721,1203.0732,1203.3232,1204.1426,space,0.8038,,1204.1426,36,9,1205.1453,1205.1453,1205.1469,,,,0,12,12,12,1,140,5,,,,,,,,
,,60786ff5249b808e29b989a4,65af58f1928510ff1336cec9,2024-01-23_24h34.25.601,bars,2023.2.3,Win32,59.82292414,657b66ea316d21385b68909f,,,,,,,,,,,1205.1475,1206.1487,,,1206.6504,1206.9014,,36,36,,,,,,,,,,,,,,,,bars/046.png,bars/mask008.png,,,,,,,,,,,,0,2,,,,,,,10,10,10,8,,,,,,,,,,,1206.1487,1206.6503,1206.9014,1208.8236,space,1.9059,,1208.8236,61,49,1209.8264,1209.8266,1209.8397,,,,0,13,13,13,1,155,85,,,,,,,,
,,60786ff5249b808e29b989a4,65af58f1928510ff1336cec9,2024-01-23_24h34.25.601,bars,2023.2.3,Win32,59.82292414,657b66ea316d21385b68909f,,,,,,,,,,,1209.84,1210.8294,,,1211.3316,1211.5812,,101,101,,,,,,,,,,,,,,,,bars/041.png,bars/mask000.png,,,,,,,,,,,,4,2,,,,,,,8,8,7,8,,,,,,,,,,,1210.8295,1211.3315,1211.5817,1215.0448,space,3.4476,,1215.0448,81,16,1216.0456,1216.0457,1216.0591,,,,0,14,14,14,1,20,85,,,,,,,,
,,60786ff5249b808e29b989a4,65af58f1928510ff1336cec9,2024-01-23_24h34.25.601,bars,2023.2.3,Win32,59.82292414,657b66ea316d21385b68909f,,,,,,,,,,,1216.0594,1217.0487,,,1217.5499,1217.8006,,43,43,,,,,,,,,,,,,,,,bars/000.png,bars/mask009.png,,,,,,,,,,,,6,1,,,,,,,6,6,7,6,,,,,,,,,,,1217.0488,1217.5498,1217.8008,1220.0763,space,2.2605,,1220.0764,3,78,1221.0778,1221.0778,1221.0922,,,,0,15,15,15,1,40,145,,,,,,,,
,,60786ff5249b808e29b989a4,65af58f1928510ff1336cec9,2024-01-23_24h34.25.601,bars,2023.2.3,Win32,59.82292414,657b66ea316d21385b68909f,,,,,,,,,,,1221.0925,1222.0808,,,1222.582,1222.8329,,38,38,,,,,,,,,,,,,,,,bars/034.png,bars/mask007.png,,,,,,,,,,,,0,2,,,,,,,8,4,7,2,,,,,,,,,,,1222.0809,1222.5819,1222.833,1225.3742,space,2.524,,1225.3743,87,27,1226.3771,1226.3771,1226.3915,,,,0,16,16,16,1,125,65,,,,,,,,
,,60786ff5249b808e29b989a4,65af58f1928510ff1336cec9,2024-01-23_24h34.25.601,bars,2023.2.3,Win32,59.82292414,657b66ea316d21385b68909f,,,,,,,,,,,1226.3917,1227.38,,,1227.8811,1228.132,,4,4,,,,,,,,,,,,,,,,bars/007.png,bars/mask004.png,,,,,,,,,,,,6,1,,,,,,,10,2,9,2,,,,,,,,,,,1227.38,1227.881,1228.1321,1229.0013,space,0.8537,,1229.0014,9,51,1230.0037,1230.0039,1230.008,,,,0,17,17,17,1,175,55,,,,,,,,
,,60786ff5249b808e29b989a4,65af58f1928510ff1336cec9,2024-01-23_24h34.25.601,bars,2023.2.3,Win32,59.82292414,657b66ea316d21385b68909f,,,,,,,,,,,1230.0085,1231.0072,,,1231.5093,1231.7602,,63,63,,,,,,,,,,,,,,,,bars/035.png,bars/mask009.png,,,,,,,,,,,,0,2,,,,,,,8,0,6,0,,,,,,,,,,,1231.0073,1231.5092,1231.7603,1232.4286,space,0.6526,,1232.4286,68,3,1233.4312,1233.4312,1233.4351,,,,0,18,18,18,1,175,60,,,,,,,,
,,60786ff5249b808e29b989a4,65af58f1928510ff1336cec9,2024-01-23_24h34.25.601,bars,2023.2.3,Win32,59.82292414,657b66ea316d21385b68909f,,,,,,,,,,,1233.4357,1234.4339,,,1234.9365,1235.1876,,120,120,,,,,,,,,,,,,,,,bars/006.png,bars/mask005.png,,,,,,,,,,,,1,2,,,,,,,10,0,10,2,,,,,,,,,,,1234.4343,1234.9364,1235.1876,1237.7638,space,2.5616,,1237.7639,85,20,1238.7646,1238.7646,1238.7662,,,,0,19,19,19,1,35,100,,,,,,,,
,,60786ff5249b808e29b989a4,65af58f1928510ff1336cec9,2024-01-23_24h34.25.601,bars,2023.2.3,Win32,59.82292414,657b66ea316d21385b68909f,,,,,,,,,,,1238.7668,1239.7677,,,1240.2695,1240.5194,,38,38,,,,,,,,,,,,,,,,bars/048.png,bars/mask001.png,,,,,,,,,,,,6,1,,,,,,,10,0,10,0,,,,,,,,,,,1239.7678,1240.2695,1240.5196,1245.0668,space,4.5323,,1245.0671,12,43,1246.0697,1246.0697,1246.084,,,,0,20,20,20,1,50,175,,,,,,,,
,,60786ff5249b808e29b989a4,65af58f1928510ff1336cec9,2024-01-23_24h34.25.601,bars,2023.2.3,Win32,59.82292414,657b66ea316d21385b68909f,,,,,,,,,,,1246.0843,1247.0727,,,1247.5748,1247.8258,,46,46,,,,,,,,,,,,,,,,bars/006.png,bars/mask003.png,,,,,,,,,,,,3,1,,,,,,,8,0,5,0,,,,,,,,,,,1247.0729,1247.5748,1247.8258,1252.072,space,4.23,,1252.0722,11,54,1253.0747,1253.0747,1253.0883,,,,0,21,21,21,1,35,100,,,,,,,,
,,60786ff5249b808e29b989a4,65af58f1928510ff1336cec9,2024-01-23_24h34.25.601,bars,2023.2.3,Win32,59.82292414,657b66ea316d21385b68909f,,,,,,,,,,,1253.0886,1254.078,,,1254.5797,1254.8301,,47,47,,,,,,,,,,,,,,,,bars/034.png,bars/mask001.png,,,,,,,,,,,,0,2,,,,,,,10,0,9,0,,,,,,,,,,,1254.0781,1254.5797,1254.8301,1257.4883,space,2.6416,,1257.4884,78,18,1258.4911,1258.4912,1258.5057,,,,0,22,22,22,1,125,65,,,,,,,,
,,60786ff5249b808e29b989a4,65af58f1928510ff1336cec9,2024-01-23_24h34.25.601,bars,2023.2.3,Win32,59.82292414,657b66ea316d21385b68909f,,,,,,,,,,,1258.506,1259.4949,,,1259.9954,1260.2462,,50,50,,,,,,,,,,,,,,,,bars/030.png,bars/mask007.png,,,,,,,,,,,,1,2,,,,,,,10,2,9,1,,,,,,,,,,,1259.4949,1259.9953,1260.2462,1263.7576,space,3.4942,,1263.7576,90,15,1264.7604,1264.7605,1264.7736,,,,0,23,23,23,1,140,65,,,,,,,,
,,60786ff5249b808e29b989a4,65af58f1928510ff1336cec9,2024-01-23_24h34.25.601,bars,2023.2.3,Win32,59.82292414,657b66ea316d21385b68909f,,,,,,,,,,,1264.7739,1265.7635,,,1266.2645,1266.5157,,124,124,,,,,,,,,,,,,,,,bars/001.png,bars/mask001.png,,,,,,,,,,,,6,1,,,,,,,8,0,8,0,,,,,,,,,,,1265.7635,1266.2644,1266.5157,1268.1708,space,1.6388,,1268.1708,6,39,1269.1736,1269.1736,1269.188,,,,0,24,24,24,1,130,85,,,,,,,,
,,60786ff5249b808e29b989a4,65af58f1928510ff1336cec9,2024-01-23_24h34.25.601,bars,2023.2.3,Win32,59.82292414,657b66ea316d21385b68909f,,,,,,,,,,,1269.1882,1270.1767,,,1270.6786,1270.9286,,50,50,,,,,,,,,,,,,,,,bars/034.png,bars/mask009.png,,,,,,,,,,,,0,2,,,,,,,6,0,4,0,,,,,,,,,,,1270.1767,1270.6786,1270.9287,1273.9721,space,3.0266,,1273.9721,75,15,1274.975,1274.9751,1274.9908,,,,0,25,25,25,1,125,65,,,,,,,,
,,60786ff5249b808e29b989a4,65af58f1928510ff1336cec9,2024-01-23_24h34.25.601,bars,2023.2.3,Win32,59.82292414,657b66ea316d21385b68909f,,,,,,,,,,,1274.9913,1275.9889,,,1276.4918,1276.7416,,43,223,,,,,,,,,,,,,,,,bars/004.png,bars/mask003.png,,,,,,,,,,,,1,1,,,,,,,4,2,3,1,,,,,,,,,,,1275.989,1276.4916,1276.7416,1280.7552,space,3.9968,,1280.7552,18,82,1281.7567,1281.7567,1281.7714,,,,0,26,26,26,1,25,125,,,,,,,,
,,60786ff5249b808e29b989a4,65af58f1928510ff1336cec9,2024-01-23_24h34.25.601,bars,2023.2.3,Win32,59.82292414,657b66ea316d21385b68909f,,,,,,,,,,,1281.7717,1282.7651,,,1283.2612,1283.5006,,174,-6,,,,,,,,,,,,,,,,bars/039.png,bars/mask006.png,,,,,,,,,,,,2,1,,,,,,,2,0,2,0,,,,,,,,,,,1282.7651,1283.2611,1283.5007,1286.4595,space,2.9418,,1286.4595,1,69,1287.4621,1287.4622,1287.4757,,,,0,27,27,27,1,175,105,,,,,,,,
,,60786ff5249b808e29b989a4,65af58f1928510ff1336cec9,2024-01-23_24h34.25.601,bars,2023.2.3,Win32,59.82292414,657b66ea316d21385b68909f,,,,,,,,,,,1287.4759,1288.4652,,,1288.9674,1289.2176,,156,-24,,,,,,,,,,,,,,,,bars/023.png,bars/mask000.png,,,,,,,,,,,,0,2,,,,,,,0,2,1,1,,,,,,,,,,,1288.4654,1288.9674,1289.2177,1293.1467,space,3.913,,1293.1468,44,41,1294.1495,1294.1496,1294.1641,,,,0,28,28,28,1,20,115,,,,,,,,
,,60786ff5249b808e29b989a4,65af58f1928510ff1336cec9,2024-01-23_24h34.25.601,bars,2023.2.3,Win32,59.82292414,657b66ea316d21385b68909f,,,,,,,,,,,1294.1644,1295.1525,,,1295.6538,1295.9046,,38,38,,,,,,,,,,,,,,,,bars/004.png,bars/mask008.png,,,,,,,,,,,,2,1,,,,,,,2,0,3,0,,,,,,,,,,,1295.1526,1295.6538,1295.9046,1296.6737,space,0.7528,,1296.6738,13,87,1297.6766,1297.6766,1297.6804,,,,0,29,29,29,1,25,125,,,,,,,,
,,60786ff5249b808e29b989a4,65af58f1928510ff1336cec9,2024-01-23_24h34.25.601,bars,2023.2.3,Win32,59.82292414,657b66ea316d21385b68909f,,,,,,,,,,,1297.6808,1298.6796,,,1299.1818,1299.4317,,117,117,,,,,,,,,,,,,,,,bars/045.png,bars/mask008.png,,,,,,,,,,,,1,1,,,,,,,4,2,3,1,,,,,,,,,,,1298.6797,1299.1818,1299.432,1300.9539,space,1.5054,,1300.9539,17,73,1301.9568,1301.9568,1301.9583,,,,0,30,30,30,1,100,10,,,,,,,,
,,60786ff5249b808e29b989a4,65af58f1928510ff1336cec9,2024-01-23_24h34.25.601,bars,2023.2.3,Win32,59.82292414,657b66ea316d21385b68909f,,,,,,,,,,,1301.9589,1302.9598,,,1303.4609,1303.7119,,126,126,,,,,,,,,,,,,,,,bars/045.png,bars/mask004.png,,,,,,,,,,,,1,1,,,,,,,2,4,4,5,,,,,,,,,,,1302.9599,1303.4607,1303.7119,1306.5065,space,2.78,,1306.5066,26,64,1307.507,1307.507,1307.52,,,,0,31,31,31,1,100,10,,,,,,,,
,,60786ff5249b808e29b989a4,65af58f1928510ff1336cec9,2024-01-23_24h34.25.601,bars,2023.2.3,Win32,59.82292414,657b66ea316d21385b68909f,,,,,,,,,,,1307.5203,1308.51,,,1309.0111,1309.262,,120,-60,,,,,,,,,,,,,,,,bars/025.png,bars/mask008.png,,,,,,,,,,,,1,1,,,,,,,0,6,1,5,,,,,,,,,,,1308.5101,1309.011,1309.2622,1313.5424,space,4.2639,,1313.5424,15,80,1314.5439,1314.544,1314.5575,,,,0,32,32,32,1,105,40,,,,,,,,
,,60786ff5249b808e29b989a4,65af58f1928510ff1336cec9,2024-01-23_24h34.25.601,bars,2023.2.3,Win32,59.82292414,657b66ea316d21385b68909f,,,,,,,,,,,1314.5578,1315.5483,,,1316.0493,1316.3002,,173,173,,,,,,,,,,,,,,,,bars/037.png,bars/mask000.png,,,,,,,,,,,,0,1,,,,,,,0,8,0,8,,,,,,,,,,,1315.5484,1316.0492,1316.3003,1319.5097,space,3.194,,1319.5097,23,68,1320.5123,1320.5125,1320.5255,,,,0,33,33,33,1,150,105,,,,,,,,
,,60786ff5249b808e29b989a4,65af58f1928510ff1336cec9,2024-01-23_24h34.25.601,bars,2023.2.3,Win32,59.82292414,657b66ea316d21385b68909f,,,,,,,,,,,1320.5258,1321.5155,,,1322.0176,1322.2685,,118,-62,,,,,,,,,,,,,,,,bars/040.png,bars/mask006.png,,,,,,,,,,,,0,1,,,,,,,0,6,0,6,,,,,,,,,,,1321.5155,1322.0175,1322.2686,1325.0124,space,2.7297,,1325.0124,22,67,1326.0129,1326.013,1326.0257,,,,0,34,34,34,1,140,5,,,,,,,,
,,60786ff5249b808e29b989a4,65af58f1928510ff1336cec9,2024-01-23_24h34.25.601,bars,2023.2.3,Win32,59.82292414,657b66ea316d21385b68909f,,,,,,,,,,,1326.026,1327.0158,,,1327.5177,1327.7695,,96,96,,,,,,,,,,,,,,,,bars/025.png,bars/mask007.png,,,,,,,,,,,,0,1,,,,,,,0,8,0,7,,,,,,,,,,,1327.0158,1327.5177,1327.7696,1328.3226,space,0.539,,1328.3227,9,56,1329.3227,1329.3227,1329.3243,,,,0,35,35,35,1,105,40,,,,,,,,
,,60786ff5249b808e29b989a4,65af58f1928510ff1336cec9,2024-01-23_24h34.25.601,bars,2023.2.3,Win32,59.82292414,657b66ea316d21385b68909f,,,,,,,,,,,1329.325,1330.3258,,,1330.828,1331.0779,,59,59,,,,,,,,,,,,,,,,bars/029.png,bars/mask000.png,,,,,,,,,,,,3,2,,,,,,,2,6,2,6,,,,,,,,,,,1330.3258,1330.8278,1331.078,1331.681,space,0.5879,,1331.6811,31,14,1332.6833,1332.6833,1332.6872,,,,0,36,36,36,1,90,45,,,,,,,,
,,60786ff5249b808e29b989a4,65af58f1928510ff1336cec9,2024-01-23_24h34.25.601,bars,2023.2.3,Win32,59.82292414,657b66ea316d21385b68909f,,,,,,,,,,,1332.6875,1333.6864,,,1334.1881,1334.4389,,64,64,,,,,,,,,,,,,,,,bars/029.png,bars/mask007.png,,,,,,,,,,,,3,2,,,,,,,0,8,1,7,,,,,,,,,,,1333.6864,1334.188,1334.439,1335.0073,space,0.5519,,1335.0073,26,19,1336.0099,1336.01,1336.0112,,,,0,37,37,37,1,90,45,,,,,,,,
,,60786ff5249b808e29b989a4,65af58f1928510ff1336cec9,2024-01-23_24h34.25.601,bars,2023.2.3,Win32,59.82292414,657b66ea316d21385b68909f,,,,,,,,,,,1336.0118,1337.0131,,,1337.5142,1337.7651,,52,52,,,,,,,,,,,,,,,,bars/005.png,bars/mask001.png,,,,,,,,,,,,0,1,,,,,,,2,10,5,9,,,,,,,,,,,1337.0133,1337.5141,1337.7652,1338.3843,space,0.6023,,1338.3844,42,88,1339.3873,1339.3873,1339.3912,,,,0,38,38,38,1,10,140,,,,,,,,
,,60786ff5249b808e29b989a4,65af58f1928510ff1336cec9,2024-01-23_24h34.25.601,bars,2023.2.3,Win32,59.82292414,657b66ea316d21385b68909f,,,,,,,,,,,1339.3916,1340.3901,,,1340.8915,1341.1422,,39,39,,,,,,,,,,,,,,,,bars/016.png,bars/mask001.png,,,,,,,,,,,,0,1,,,,,,,0,10,0,10,,,,,,,,,,,1340.3902,1340.8913,1341.1423,1341.7105,space,0.5527,,1341.7106,1,54,1342.7133,1342.7133,1342.7149,,,,0,39,39,39,1,40,165,,,,,,,,
,,60786ff5249b808e29b989a4,65af58f1928510ff1336cec9,2024-01-23_24h34.25.601,bars,2023.2.3,Win32,59.82292414,657b66ea316d21385b68909f,,,,,,,,,,,1342.7154,1343.7163,,,1344.2185,1344.4693,,71,71,,,,,,,,,,,,,,,,bars/025.png,bars/mask003.png,,,,,,,,,,,,0,2,,,,,,,2,10,3,10,,,,,,,,,,,1343.7164,1344.2185,1344.4694,1346.7429,space,2.257,,1346.743,34,31,1347.7455,1347.7455,1347.7601,,,,0,40,40,40,1,105,40,,,,,,,,
,,60786ff5249b808e29b989a4,65af58f1928510ff1336cec9,2024-01-23_24h34.25.601,bars,2023.2.3,Win32,59.82292414,657b66ea316d21385b68909f,,,,,,,,,,,1347.7605,1348.7485,,,1349.2507,1349.5005,,64,64,,,,,,,,,,,,,,,,bars/007.png,bars/mask000.png,,,,,,,,,,,,7,2,,,,,,,4,10,6,10,,,,,,,,,,,1348.7486,1349.2507,1349.5006,1350.5879,space,1.071,,1350.588,69,9,1351.5907,1351.5908,1351.604,,,,0,41,41,41,1,175,55,,,,,,,,
,,60786ff5249b808e29b989a4,65af58f1928510ff1336cec9,2024-01-23_24h34.25.601,bars,2023.2.3,Win32,59.82292414,657b66ea316d21385b68909f,,,,,,,,,,,1351.6042,1352.5937,,,1353.0957,1353.3459,,147,147,,,,,,,,,,,,,,,,bars/040.png,bars/mask006.png,,,,,,,,,,,,2,1,,,,,,,2,10,2,10,,,,,,,,,,,1352.5938,1353.0957,1353.346,1355.5531,space,2.191,,1355.5532,7,38,1356.5557,1356.5557,1356.5699,,,,0,42,42,42,1,140,5,,,,,,,,
,,60786ff5249b808e29b989a4,65af58f1928510ff1336cec9,2024-01-23_24h34.25.601,bars,2023.2.3,Win32,59.82292414,657b66ea316d21385b68909f,,,,,,,,,,,1356.5702,1357.5588,,,1358.0598,1358.3106,,66,66,,,,,,,,,,,,,,,,bars/011.png,bars/mask004.png,,,,,,,,,,,,3,2,,,,,,,4,10,4,9,,,,,,,,,,,1357.5588,1358.0598,1358.3107,1362.4241,space,4.0979,,1362.4241,86,19,1363.427,1363.427,1363.4415,,,,0,43,43,43,1,160,85,,,,,,,,
,,60786ff5249b808e29b989a4,65af58f1928510ff1336cec9,2024-01-23_24h34.25.601,bars,2023.2.3,Win32,59.82292414,657b66ea316d21385b68909f,,,,,,,,,,,1363.4418,1364.43,,,1364.931,1365.1821,,64,64,,,,,,,,,,,,,,,,bars/037.png,bars/mask003.png,,,,,,,,,,,,0,2,,,,,,,6,8,7,8,,,,,,,,,,,1364.43,1364.931,1365.1822,1365.5663,space,0.3685,,1365.5664,86,41,1366.5691,1366.5691,1366.5707,,,,0,44,44,44,1,150,105,,,,,,,,
,,60786ff5249b808e29b989a4,65af58f1928510ff1336cec9,2024-01-23_24h34.25.601,bars,2023.2.3,Win32,59.82292414,657b66ea316d21385b68909f,,,,,,,,,,,1366.5713,1367.5722,,,1368.0743,1368.3243,,36,216,,,,,,,,,,,,,,,,bars/031.png,bars/mask005.png,,,,,,,,,,,,10,2,,,,,,,4,10,2,10,,,,,,,,,,,1367.5723,1368.0742,1368.3243,1372.1536,space,3.8124,,1372.1536,84,1,1373.1566,1373.1566,1373.1694,,,,0,45,45,45,1,120,35,,,,,,,,
,,60786ff5249b808e29b989a4,65af58f1928510ff1336cec9,2024-01-23_24h34.25.601,bars,2023.2.3,Win32,59.82292414,657b66ea316d21385b68909f,,,,,,,,,,,1373.1697,1374.1595,,,1374.6606,1374.9117,,39,219,,,,,,,,,,,,,,,,bars/013.png,bars/mask009.png,,,,,,,,,,,,0,2,,,,,,,2,8,2,6,,,,,,,,,,,1374.1596,1374.6606,1374.9117,1378.0559,space,3.1295,,1378.056,36,29,1379.0575,1379.0575,1379.0707,,,,0,46,46,46,1,75,10,,,,,,,,
,,60786ff5249b808e29b989a4,65af58f1928510ff1336cec9,2024-01-23_24h34.25.601,bars,2023.2.3,Win32,59.82292414,657b66ea316d21385b68909f,,,,,,,,,,,1379.071,1380.0606,,,1380.5617,1380.8126,,55,55,,,,,,,,,,,,,,,,bars/028.png,bars/mask009.png,,,,,,,,,,,,3,1,,,,,,,4,6,4,7,,,,,,,,,,,1380.0607,1380.5616,1380.8127,1383.4041,space,2.5748,,1383.4041,10,65,1384.4067,1384.4068,1384.4212,,,,0,47,47,47,1,45,120,,,,,,,,
,,60786ff5249b808e29b989a4,65af58f1928510ff1336cec9,2024-01-23_24h34.25.601,bars,2023.2.3,Win32,59.82292414,657b66ea316d21385b68909f,,,,,,,,,,,1384.4215,1385.4098,,,1385.9119,1386.1619,,45,225,,,,,,,,,,,,,,,,bars/013.png,bars/mask000.png,,,,,,,,,,,,0,1,,,,,,,2,8,2,7,,,,,,,,,,,1385.4099,1385.9118,1386.1619,1389.7063,space,3.5286,,1389.7064,30,35,1390.709,1390.7091,1390.7223,,,,0,48,48,48,1,75,10,,,,,,,,
,,60786ff5249b808e29b989a4,65af58f1928510ff1336cec9,2024-01-23_24h34.25.601,bars,2023.2.3,Win32,59.82292414,657b66ea316d21385b68909f,,,,,,,,,,,1390.7226,1391.7121,,,1392.2143,1392.465,,141,141,,,,,,,,,,,,,,,,bars/023.png,bars/mask005.png,,,,,,,,,,,,1,2,,,,,,,0,10,0,10,,,,,,,,,,,1391.7121,1392.2141,1392.4652,1393.2845,space,0.8027,,1393.2846,59,26,1394.2868,1394.2871,1394.291,,,,0,49,49,49,1,20,115,,,,,,,,
,,60786ff5249b808e29b989a4,65af58f1928510ff1336cec9,2024-01-23_24h34.25.601,bars,2023.2.3,Win32,59.82292414,657b66ea316d21385b68909f,,,,,,,,,,,,,,,,,,,,,,,,,,,,,,,,,,,,,,,,,,,,,,,,,,,,,,,,,,,,,,,,,,,,,,,,,,,,,,,,,,,,,,,,,,,,,1394.2912,1454.2863,0,2,2,0,1,sequence_tables/blk026.csv
,,60786ff5249b808e29b989a4,65af58f1928510ff1336cec9,2024-01-23_24h34.25.601,bars,2023.2.3,Win32,59.82292414,657b66ea316d21385b68909f,,,,,,,,,,,1456.7815,1457.7747,,,1458.2765,1458.5276,,27,207,,,,,,,,,,,,,,,,bars/007.png,bars/mask006.png,,,,,,,,,,,,0,2,,,,,,,0,3,0,3,,,,,,1454.3003,1456.7734,space,2.4595,,1457.7748,1458.2764,1458.5277,1461.6545,space,3.11,,1461.6545,32,28,1462.656,1462.6562,1462.6696,,,,0,0,0,0,1,175,55,,,,,,,,
,,60786ff5249b808e29b989a4,65af58f1928510ff1336cec9,2024-01-23_24h34.25.601,bars,2023.2.3,Win32,59.82292414,657b66ea316d21385b68909f,,,,,,,,,,,1462.6699,1463.6595,,,1464.161,1464.4116,,29,29,,,,,,,,,,,,,,,,bars/028.png,bars/mask004.png,,,,,,,,,,,,0,1,,,,,,,2,5,0,6,,,,,,,,,,,1463.6596,1464.1609,1464.4117,1466.3848,space,1.9565,,1466.3848,16,89,1467.3871,1467.3872,1467.4021,,,,0,1,1,1,1,45,120,,,,,,,,
,,60786ff5249b808e29b989a4,65af58f1928510ff1336cec9,2024-01-23_24h34.25.601,bars,2023.2.3,Win32,59.82292414,657b66ea316d21385b68909f,,,,,,,,,,,1467.4024,1468.3957,,,1468.8969,1469.148,,136,136,,,,,,,,,,,,,,,,bars/024.png,bars/mask003.png,,,,,,,,,,,,0,1,,,,,,,0,7,0,6,,,,,,,,,,,1468.3958,1468.8968,1469.1481,1472.9762,space,3.8115,,1472.9762,16,34,1473.9805,1473.9805,1473.9986,,,,0,2,2,2,1,120,170,,,,,,,,
,,60786ff5249b808e29b989a4,65af58f1928510ff1336cec9,2024-01-23_24h34.25.601,bars,2023.2.3,Win32,59.82292414,657b66ea316d21385b68909f,,,,,,,,,,,1473.999,1474.9992,,,1475.5096,1475.7526,,41,41,,,,,,,,,,,,,,,,bars/026.png,bars/mask005.png,,,,,,,,,,,,2,1,,,,,,,2,5,2,5,,,,,,,,,,,1474.9992,1475.5094,1475.7527,1478.2311,space,2.4649,,1478.2312,6,44,1479.2367,1479.2368,1479.2507,,,,0,3,3,3,1,35,85,,,,,,,,
,,60786ff5249b808e29b989a4,65af58f1928510ff1336cec9,2024-01-23_24h34.25.601,bars,2023.2.3,Win32,59.82292414,657b66ea316d21385b68909f,,,,,,,,,,,1479.251,1480.2482,,,1480.7493,1481.0003,,31,31,,,,,,,,,,,,,,,,bars/005.png,bars/mask006.png,,,,,,,,,,,,0,1,,,,,,,0,7,0,7,,,,,,,,,,,1480.2483,1480.7492,1481.0004,1482.6557,space,1.6385,,1482.6558,21,71,1483.6585,1483.6585,1483.66,,,,0,4,4,4,1,10,140,,,,,,,,
,,60786ff5249b808e29b989a4,65af58f1928510ff1336cec9,2024-01-23_24h34.25.601,bars,2023.2.3,Win32,59.82292414,657b66ea316d21385b68909f,,,,,,,,,,,1483.6609,1484.6615,,,1485.1636,1485.4134,,49,229,,,,,,,,,,,,,,,,bars/029.png,bars/mask007.png,,,,,,,,,,,,4,2,,,,,,,2,5,3,5,,,,,,,,,,,1484.6615,1485.1635,1485.4134,1488.5238,space,3.0938,,1488.5239,41,4,1489.5266,1489.5266,1489.5411,,,,0,5,5,5,1,90,45,,,,,,,,
,,60786ff5249b808e29b989a4,65af58f1928510ff1336cec9,2024-01-23_24h34.25.601,bars,2023.2.3,Win32,59.82292414,657b66ea316d21385b68909f,,,,,,,,,,,1489.5416,1490.5296,,,1491.0308,1491.2817,,22,202,,,,,,,,,,,,,,,,bars/033.png,bars/mask003.png,,,,,,,,,,,,0,1,,,,,,,0,3,0,2,,,,,,,,,,,1490.5297,1491.0307,1491.2818,1493.8729,space,2.5747,,1493.873,3,47,1494.876,1494.8761,1494.8902,,,,0,6,6,6,1,25,155,,,,,,,,
,,60786ff5249b808e29b989a4,65af58f1928510ff1336cec9,2024-01-23_24h34.25.601,bars,2023.2.3,Win32,59.82292414,657b66ea316d21385b68909f,,,,,,,,,,,1494.8906,1495.8788,,,1496.3808,1496.6308,,64,64,,,,,,,,,,,,,,,,bars/028.png,bars/mask006.png,,,,,,,,,,,,1,1,,,,,,,2,5,3,5,,,,,,,,,,,1495.8789,1496.3808,1496.6309,1498.4872,space,1.8396,,1498.4872,19,56,1499.4899,1499.49,1499.5032,,,,0,7,7,7,1,45,120,,,,,,,,
,,60786ff5249b808e29b989a4,65af58f1928510ff1336cec9,2024-01-23_24h34.25.601,bars,2023.2.3,Win32,59.82292414,657b66ea316d21385b68909f,,,,,,,,,,,1499.5035,1500.493,,,1500.9943,1501.245,,126,126,,,,,,,,,,,,,,,,bars/021.png,bars/mask005.png,,,,,,,,,,,,0,1,,,,,,,0,7,0,8,,,,,,,,,,,1500.4931,1500.9942,1501.245,1503.4352,space,2.1739,,1503.4353,29,56,1504.4381,1504.4381,1504.4395,,,,0,8,8,8,1,155,70,,,,,,,,
,,60786ff5249b808e29b989a4,65af58f1928510ff1336cec9,2024-01-23_24h34.25.601,bars,2023.2.3,Win32,59.82292414,657b66ea316d21385b68909f,,,,,,,,,,,1504.4403,1505.4411,,,1505.9432,1506.1929,,2,182,,,,,,,,,,,,,,,,bars/033.png,bars/mask003.png,,,,,,,,,,,,1,1,,,,,,,2,5,3,5,,,,,,,,,,,1505.4412,1505.9432,1506.1933,1509.0696,space,2.8594,,1509.0696,23,27,1510.0725,1510.0725,1510.0856,,,,0,9,9,9,1,25,155,,,,,,,,
,,60786ff5249b808e29b989a4,65af58f1928510ff1336cec9,2024-01-23_24h34.25.601,bars,2023.2.3,Win32,59.82292414,657b66ea316d21385b68909f,,,,,,,,,,,1510.086,1511.0755,,,1511.5765,1511.8274,,117,117,,,,,,,,,,,,,,,,bars/034.png,bars/mask002.png,,,,,,,,,,,,1,1,,,,,,,0,7,1,7,,,,,,,,,,,1511.0755,1511.5765,1511.8275,1514.4357,space,2.5924,,1514.4357,8,52,1515.4385,1515.4385,1515.4517,,,,0,10,10,10,1,125,65,,,,,,,,
,,60786ff5249b808e29b989a4,65af58f1928510ff1336cec9,2024-01-23_24h34.25.601,bars,2023.2.3,Win32,59.82292414,657b66ea316d21385b68909f,,,,,,,,,,,1515.452,1516.4563,,,1516.9596,1517.2106,,72,252,,,,,,,,,,,,,,,,bars/013.png,bars/mask001.png,,,,,,,,,,,,1,1,,,,,,,0,9,1,10,,,,,,,,,,,1516.4563,1516.9596,1517.2106,1520.9221,space,3.6953,,1520.9222,3,62,1521.9248,1521.9248,1521.9381,,,,0,11,11,11,1,75,10,,,,,,,,
,,60786ff5249b808e29b989a4,65af58f1928510ff1336cec9,2024-01-23_24h34.25.601,bars,2023.2.3,Win32,59.82292414,657b66ea316d21385b68909f,,,,,,,,,,,1521.9384,1522.9275,,,1523.4298,1523.6802,,61,61,,,,,,,,,,,,,,,,bars/029.png,bars/mask007.png,,,,,,,,,,,,3,2,,,,,,,2,7,2,7,,,,,,,,,,,1522.9275,1523.4297,1523.6802,1526.7561,space,3.0601,,1526.7562,29,16,1527.7591,1527.7591,1527.7734,,,,0,12,12,12,1,90,45,,,,,,,,
,,60786ff5249b808e29b989a4,65af58f1928510ff1336cec9,2024-01-23_24h34.25.601,bars,2023.2.3,Win32,59.82292414,657b66ea316d21385b68909f,,,,,,,,,,,1527.7737,1528.762,,,1529.2641,1529.5141,,66,246,,,,,,,,,,,,,,,,bars/022.png,bars/mask002.png,,,,,,,,,,,,0,1,,,,,,,4,5,3,5,,,,,,,,,,,1528.7621,1529.2641,1529.5142,1532.9084,space,3.3778,,1532.9084,29,46,1533.9111,1533.9112,1533.9257,,,,0,13,13,13,1,95,20,,,,,,,,
,,60786ff5249b808e29b989a4,65af58f1928510ff1336cec9,2024-01-23_24h34.25.601,bars,2023.2.3,Win32,59.82292414,657b66ea316d21385b68909f,,,,,,,,,,,1533.9261,1534.9141,,,1535.4153,1535.6662,,169,169,,,,,,,,,,,,,,,,bars/046.png,bars/mask003.png,,,,,,,,,,,,1,1,,,,,,,2,3,1,3,,,,,,,,,,,1534.9141,1535.4153,1535.6662,1537.1001,space,1.419,,1537.1003,14,84,1538.0902,1538.0903,1538.0919,,,,0,14,14,14,1,155,85,,,,,,,,
,,60786ff5249b808e29b989a4,65af58f1928510ff1336cec9,2024-01-23_24h34.25.601,bars,2023.2.3,Win32,59.82292414,657b66ea316d21385b68909f,,,,,,,,,,,1538.0925,1539.0933,,,1539.5955,1539.8461,,30,210,,,,,,,,,,,,,,,,bars/035.png,bars/mask007.png,,,,,,,,,,,,0,2,,,,,,,4,1,3,3,,,,,,,,,,,1539.0933,1539.5954,1539.8461,1542.8388,space,2.976,,1542.8388,35,30,1543.8417,1543.8418,1543.8565,,,,0,15,15,15,1,175,60,,,,,,,,
,,60786ff5249b808e29b989a4,65af58f1928510ff1336cec9,2024-01-23_24h34.25.601,bars,2023.2.3,Win32,59.82292414,657b66ea316d21385b68909f,,,,,,,,,,,1543.8569,1544.8451,,,1545.346,1545.5966,,175,175,,,,,,,,,,,,,,,,bars/044.png,bars/mask001.png,,,,,,,,,,,,0,2,,,,,,,6,0,5,0,,,,,,,,,,,1544.8451,1545.346,1545.5967,1547.2689,space,1.6554,,1547.2689,80,20,1548.2717,1548.2718,1548.2732,,,,0,16,16,16,1,75,155,,,,,,,,
,,60786ff5249b808e29b989a4,65af58f1928510ff1336cec9,2024-01-23_24h34.25.601,bars,2023.2.3,Win32,59.82292414,657b66ea316d21385b68909f,,,,,,,,,,,1548.274,1549.2748,,,1549.7759,1550.0269,,67,247,,,,,,,,,,,,,,,,bars/029.png,bars/mask006.png,,,,,,,,,,,,1,2,,,,,,,4,2,5,2,,,,,,,,,,,1549.2749,1549.7757,1550.027,1554.1901,space,4.1463,,1554.1902,23,22,1555.1929,1555.1929,1555.2068,,,,0,17,17,17,1,90,45,,,,,,,,
,,60786ff5249b808e29b989a4,65af58f1928510ff1336cec9,2024-01-23_24h34.25.601,bars,2023.2.3,Win32,59.82292414,657b66ea316d21385b68909f,,,,,,,,,,,1555.2072,1556.1961,,,1556.6972,1556.948,,151,-29,,,,,,,,,,,,,,,,bars/012.png,bars/mask009.png,,,,,,,,,,,,0,2,,,,,,,6,4,7,4,,,,,,,,,,,1556.1962,1556.6971,1556.9483,1562.1305,space,5.1668,,1562.1305,61,44,1563.1332,1563.1333,1563.147,,,,0,18,18,18,1,90,15,,,,,,,,
,,60786ff5249b808e29b989a4,65af58f1928510ff1336cec9,2024-01-23_24h34.25.601,bars,2023.2.3,Win32,59.82292414,657b66ea316d21385b68909f,,,,,,,,,,,1563.1473,1564.1363,,,1564.6384,1564.8883,,136,136,,,,,,,,,,,,,,,,bars/001.png,bars/mask008.png,,,,,,,,,,,,5,1,,,,,,,4,2,6,3,,,,,,,,,,,1564.1364,1564.6383,1564.8884,1569.0347,space,4.1301,,1569.0347,6,51,1570.0374,1570.0375,1570.0516,,,,0,19,19,19,1,130,85,,,,,,,,
,,60786ff5249b808e29b989a4,65af58f1928510ff1336cec9,2024-01-23_24h34.25.601,bars,2023.2.3,Win32,59.82292414,657b66ea316d21385b68909f,,,,,,,,,,,1570.052,1571.0405,,,1571.5426,1571.7925,,138,138,,,,,,,,,,,,,,,,bars/048.png,bars/mask004.png,,,,,,,,,,,,0,2,,,,,,,6,4,8,4,,,,,,,,,,,1571.0405,1571.5426,1571.7926,1576.758,space,4.9497,,1576.758,88,37,1577.7607,1577.7608,1577.7751,,,,0,20,20,20,1,50,175,,,,,,,,
,,60786ff5249b808e29b989a4,65af58f1928510ff1336cec9,2024-01-23_24h34.25.601,bars,2023.2.3,Win32,59.82292414,657b66ea316d21385b68909f,,,,,,,,,,,1577.7754,1578.7638,,,1579.2658,1579.5169,,134,-46,,,,,,,,,,,,,,,,bars/021.png,bars/mask009.png,,,,,,,,,,,,3,1,,,,,,,8,6,9,6,,,,,,,,,,,1578.7644,1579.2656,1579.5169,1582.8614,space,3.3271,,1582.8615,21,64,1583.8587,1583.8588,1583.8734,,,,0,21,21,21,1,155,70,,,,,,,,
,,60786ff5249b808e29b989a4,65af58f1928510ff1336cec9,2024-01-23_24h34.25.601,bars,2023.2.3,Win32,59.82292414,657b66ea316d21385b68909f,,,,,,,,,,,1583.8737,1584.8703,,,1585.3768,1585.618,,127,-53,,,,,,,,,,,,,,,,bars/040.png,bars/mask006.png,,,,,,,,,,,,5,1,,,,,,,10,8,9,8,,,,,,,,,,,1584.8704,1585.3768,1585.618,1588.6904,space,3.0572,,1588.6905,13,58,1589.692,1589.692,1589.7053,,,,0,22,22,22,1,140,5,,,,,,,,
,,60786ff5249b808e29b989a4,65af58f1928510ff1336cec9,2024-01-23_24h34.25.601,bars,2023.2.3,Win32,59.82292414,657b66ea316d21385b68909f,,,,,,,,,,,1589.7056,1590.7002,,,1591.2023,1591.4523,,135,135,,,,,,,,,,,,,,,,bars/004.png,bars/mask003.png,,,,,,,,,,,,7,2,,,,,,,8,10,7,10,,,,,,,,,,,1590.7003,1591.2023,1591.4523,1597.1707,space,5.7023,,1597.1707,70,10,1598.1735,1598.1736,1598.1886,,,,0,23,23,23,1,25,125,,,,,,,,
,,60786ff5249b808e29b989a4,65af58f1928510ff1336cec9,2024-01-23_24h34.25.601,bars,2023.2.3,Win32,59.82292414,657b66ea316d21385b68909f,,,,,,,,,,,1598.1893,1599.1883,,,1599.6897,1599.936,,37,37,,,,,,,,,,,,,,,,bars/004.png,bars/mask007.png,,,,,,,,,,,,6,1,,,,,,,10,8,10,8,,,,,,,,,,,1599.1884,1599.6897,1599.9364,1602.6335,space,2.6764,,1602.6336,12,88,1603.6335,1603.6335,1603.648,,,,0,24,24,24,1,25,125,,,,,,,,
,,60786ff5249b808e29b989a4,65af58f1928510ff1336cec9,2024-01-23_24h34.25.601,bars,2023.2.3,Win32,59.82292414,657b66ea316d21385b68909f,,,,,,,,,,,1603.6483,1604.6427,,,1605.1448,1605.3947,,69,249,,,,,,,,,,,,,,,,bars/029.png,bars/mask001.png,,,,,,,,,,,,3,1,,,,,,,8,6,10,6,,,,,,,,,,,1604.6427,1605.1448,1605.3949,1608.6221,space,3.211,,1608.6221,21,24,1609.6246,1609.6248,1609.6382,,,,0,25,25,25,1,90,45,,,,,,,,
,,60786ff5249b808e29b989a4,65af58f1928510ff1336cec9,2024-01-23_24h34.25.601,bars,2023.2.3,Win32,59.82292414,657b66ea316d21385b68909f,,,,,,,,,,,1609.6385,1610.628,,,1611.1292,1611.3804,,44,44,,,,,,,,,,,,,,,,bars/038.png,bars/mask005.png,,,,,,,,,,,,1,2,,,,,,,6,4,6,4,,,,,,,,,,,1610.6281,1611.1292,1611.3804,1612.5504,space,1.154,,1612.5504,59,26,1613.5532,1613.5532,1613.5569,,,,0,26,26,26,1,165,70,,,,,,,,
,,60786ff5249b808e29b989a4,65af58f1928510ff1336cec9,2024-01-23_24h34.25.601,bars,2023.2.3,Win32,59.82292414,657b66ea316d21385b68909f,,,,,,,,,,,1613.5573,1614.5563,,,1615.0583,1615.3083,,143,143,,,,,,,,,,,,,,,,bars/023.png,bars/mask001.png,,,,,,,,,,,,0,2,,,,,,,8,6,8,7,,,,,,,,,,,1614.5563,1615.0582,1615.3084,1619.5885,space,4.2642,,1619.5885,57,28,1620.5914,1620.5914,1620.6046,,,,0,27,27,27,1,20,115,,,,,,,,
,,60786ff5249b808e29b989a4,65af58f1928510ff1336cec9,2024-01-23_24h34.25.601,bars,2023.2.3,Win32,59.82292414,657b66ea316d21385b68909f,,,,,,,,,,,1620.6049,1621.5944,,,1622.0957,1622.3464,,61,241,,,,,,,,,,,,,,,,bars/036.png,bars/mask002.png,,,,,,,,,,,,0,2,,,,,,,6,8,8,10,,,,,,,,,,,1621.5945,1622.0954,1622.3466,1626.7384,space,4.3777,,1626.7385,84,41,1627.74,1627.7401,1627.7536,,,,0,28,28,28,1,145,20,,,,,,,,
,,60786ff5249b808e29b989a4,65af58f1928510ff1336cec9,2024-01-23_24h34.25.601,bars,2023.2.3,Win32,59.82292414,657b66ea316d21385b68909f,,,,,,,,,,,1627.7538,1628.7496,,,1629.2507,1629.5017,,60,60,,,,,,,,,,,,,,,,bars/022.png,bars/mask009.png,,,,,,,,,,,,0,1,,,,,,,8,6,7,6,,,,,,,,,,,1628.7496,1629.2506,1629.5017,1631.4743,space,1.9565,,1631.4743,35,40,1632.4778,1632.4778,1632.4923,,,,0,29,29,29,1,95,20,,,,,,,,
,,60786ff5249b808e29b989a4,65af58f1928510ff1336cec9,2024-01-23_24h34.25.601,bars,2023.2.3,Win32,59.82292414,657b66ea316d21385b68909f,,,,,,,,,,,1632.4927,1633.4919,,,1633.9934,1634.244,,131,131,,,,,,,,,,,,,,,,bars/005.png,bars/mask008.png,,,,,,,,,,,,6,2,,,,,,,10,8,10,8,,,,,,,,,,,1633.4922,1633.9934,1634.244,1636.2348,space,1.9734,,1636.2349,59,9,1637.2368,1637.237,1637.2515,,,,0,30,30,30,1,10,140,,,,,,,,
,,60786ff5249b808e29b989a4,65af58f1928510ff1336cec9,2024-01-23_24h34.25.601,bars,2023.2.3,Win32,59.82292414,657b66ea316d21385b68909f,,,,,,,,,,,1637.2517,1638.245,,,1638.7462,1638.9968,,133,133,,,,,,,,,,,,,,,,bars/004.png,bars/mask009.png,,,,,,,,,,,,7,2,,,,,,,8,10,6,9,,,,,,,,,,,1638.245,1638.7462,1638.9969,1640.9703,space,1.9569,,1640.9703,72,8,1641.9731,1641.9734,1641.975,,,,0,31,31,31,1,25,125,,,,,,,,
,,60786ff5249b808e29b989a4,65af58f1928510ff1336cec9,2024-01-23_24h34.25.601,bars,2023.2.3,Win32,59.82292414,657b66ea316d21385b68909f,,,,,,,,,,,1641.9756,1642.9759,,,1643.4773,1643.7229,,53,233,,,,,,,,,,,,,,,,bars/025.png,bars/mask006.png,,,,,,,,,,,,5,2,,,,,,,6,8,6,8,,,,,,,,,,,1642.976,1643.4772,1643.7229,1647.1341,space,3.3961,,1647.1341,52,13,1648.1384,1648.1386,1648.1519,,,,0,32,32,32,1,105,40,,,,,,,,
,,60786ff5249b808e29b989a4,65af58f1928510ff1336cec9,2024-01-23_24h34.25.601,bars,2023.2.3,Win32,59.82292414,657b66ea316d21385b68909f,,,,,,,,,,,1648.1523,1649.1444,,,1649.6465,1649.8964,,116,116,,,,,,,,,,,,,,,,bars/006.png,bars/mask006.png,,,,,,,,,,,,5,2,,,,,,,8,10,8,10,,,,,,,,,,,1649.1445,1649.6465,1649.8965,1652.1877,space,2.2751,,1652.1877,81,16,1653.1906,1653.1906,1653.204,,,,0,33,33,33,1,35,100,,,,,,,,
,,60786ff5249b808e29b989a4,65af58f1928510ff1336cec9,2024-01-23_24h34.25.601,bars,2023.2.3,Win32,59.82292414,657b66ea316d21385b68909f,,,,,,,,,,,1653.2042,1654.1937,,,1654.6945,1654.9457,,33,213,,,,,,,,,,,,,,,,bars/036.png,bars/mask000.png,,,,,,,,,,,,6,2,,,,,,,6,8,6,10,,,,,,,,,,,1654.1937,1654.6945,1654.9458,1657.5538,space,2.5915,,1657.5539,68,13,1658.5565,1658.5568,1658.57,,,,0,34,34,34,1,145,20,,,,,,,,
,,60786ff5249b808e29b989a4,65af58f1928510ff1336cec9,2024-01-23_24h34.25.601,bars,2023.2.3,Win32,59.82292414,657b66ea316d21385b68909f,,,,,,,,,,,1658.5702,1659.5597,,,1660.0608,1660.3117,,58,238,,,,,,,,,,,,,,,,bars/036.png,bars/mask009.png,,,,,,,,,,,,0,2,,,,,,,4,6,4,6,,,,,,,,,,,1659.5598,1660.0607,1660.3117,1663.355,space,3.0263,,1663.3551,87,38,1664.3579,1664.3579,1664.3709,,,,0,35,35,35,1,145,20,,,,,,,,
,,60786ff5249b808e29b989a4,65af58f1928510ff1336cec9,2024-01-23_24h34.25.601,bars,2023.2.3,Win32,59.82292414,657b66ea316d21385b68909f,,,,,,,,,,,1664.3712,1665.3609,,,1665.8623,1666.1131,,142,142,,,,,,,,,,,,,,,,bars/021.png,bars/mask000.png,,,,,,,,,,,,1,1,,,,,,,2,4,2,4,,,,,,,,,,,1665.3609,1665.8622,1666.1131,1667.8682,space,1.7386,,1667.8682,13,72,1668.8711,1668.8711,1668.8857,,,,0,36,36,36,1,155,70,,,,,,,,
,,60786ff5249b808e29b989a4,65af58f1928510ff1336cec9,2024-01-23_24h34.25.601,bars,2023.2.3,Win32,59.82292414,657b66ea316d21385b68909f,,,,,,,,,,,1668.886,1669.8742,,,1670.3762,1670.6262,,148,148,,,,,,,,,,,,,,,,bars/000.png,bars/mask002.png,,,,,,,,,,,,4,2,,,,,,,4,6,4,4,,,,,,,,,,,1669.8744,1670.3762,1670.6262,1674.1039,space,3.4615,,1674.1039,72,3,1675.106,1675.1064,1675.1204,,,,0,37,37,37,1,40,145,,,,,,,,
,,60786ff5249b808e29b989a4,65af58f1928510ff1336cec9,2024-01-23_24h34.25.601,bars,2023.2.3,Win32,59.82292414,657b66ea316d21385b68909f,,,,,,,,,,,1675.1208,1676.1095,,,1676.6115,1676.8624,,46,46,,,,,,,,,,,,,,,,bars/034.png,bars/mask003.png,,,,,,,,,,,,3,2,,,,,,,2,8,1,7,,,,,,,,,,,1676.1095,1676.6113,1676.8624,1680.3057,space,3.4277,,1680.3057,79,19,1681.3085,1681.3086,1681.3221,,,,0,38,38,38,1,125,65,,,,,,,,
,,60786ff5249b808e29b989a4,65af58f1928510ff1336cec9,2024-01-23_24h34.25.601,bars,2023.2.3,Win32,59.82292414,657b66ea316d21385b68909f,,,,,,,,,,,1681.3222,1682.3113,,,1682.8137,1683.0646,,146,146,,,,,,,,,,,,,,,,bars/005.png,bars/mask008.png,,,,,,,,,,,,8,2,,,,,,,4,10,5,10,,,,,,,,,,,1682.3116,1682.8136,1683.0646,1686.1193,space,3.0404,,1686.1193,44,6,1687.1213,1687.1213,1687.1348,,,,0,39,39,39,1,10,140,,,,,,,,
,,60786ff5249b808e29b989a4,65af58f1928510ff1336cec9,2024-01-23_24h34.25.601,bars,2023.2.3,Win32,59.82292414,657b66ea316d21385b68909f,,,,,,,,,,,1687.1351,1688.1297,,,1688.6308,1688.8819,,145,145,,,,,,,,,,,,,,,,bars/040.png,bars/mask006.png,,,,,,,,,,,,6,1,,,,,,,6,8,7,7,,,,,,,,,,,1688.1299,1688.6308,1688.8819,1692.2091,space,3.3102,,1692.2092,5,40,1693.2118,1693.2118,1693.2259,,,,0,40,40,40,1,140,5,,,,,,,,
,,60786ff5249b808e29b989a4,65af58f1928510ff1336cec9,2024-01-23_24h34.25.601,bars,2023.2.3,Win32,59.82292414,657b66ea316d21385b68909f,,,,,,,,,,,1693.2262,1694.215,,,1694.7161,1694.967,,128,128,,,,,,,,,,,,,,,,bars/018.png,bars/mask002.png,,,,,,,,,,,,1,1,,,,,,,4,6,5,7,,,,,,,,,,,1694.215,1694.7161,1694.967,1696.5223,space,1.5389,,1696.5223,22,38,1697.5251,1697.5252,1697.5267,,,,0,41,41,41,1,150,90,,,,,,,,
,,60786ff5249b808e29b989a4,65af58f1928510ff1336cec9,2024-01-23_24h34.25.601,bars,2023.2.3,Win32,59.82292414,657b66ea316d21385b68909f,,,,,,,,,,,1697.5273,1698.5282,,,1699.0293,1699.2802,,46,46,,,,,,,,,,,,,,,,bars/035.png,bars/mask006.png,,,,,,,,,,,,5,2,,,,,,,6,8,6,9,,,,,,,,,,,1698.5282,1699.0292,1699.2803,1701.8216,space,2.5249,,1701.8216,51,14,1702.8243,1702.8244,1702.8387,,,,0,42,42,42,1,175,60,,,,,,,,
,,60786ff5249b808e29b989a4,65af58f1928510ff1336cec9,2024-01-23_24h34.25.601,bars,2023.2.3,Win32,59.82292414,657b66ea316d21385b68909f,,,,,,,,,,,1702.839,1703.8274,,,1704.3294,1704.5793,,149,149,,,,,,,,,,,,,,,,bars/028.png,bars/mask004.png,,,,,,,,,,,,0,2,,,,,,,8,6,9,7,,,,,,,,,,,1703.8276,1704.3294,1704.5794,1708.5087,space,3.913,,1708.5087,76,29,1709.5116,1709.5116,1709.525,,,,0,43,43,43,1,45,120,,,,,,,,
,,60786ff5249b808e29b989a4,65af58f1928510ff1336cec9,2024-01-23_24h34.25.601,bars,2023.2.3,Win32,59.82292414,657b66ea316d21385b68909f,,,,,,,,,,,1709.5252,1710.5146,,,1711.0157,1711.2667,,110,110,,,,,,,,,,,,,,,,bars/023.png,bars/mask004.png,,,,,,,,,,,,8,2,,,,,,,6,8,5,10,,,,,,,,,,,1710.5146,1711.0156,1711.2667,1714.4929,space,3.2106,,1714.493,90,5,1715.4958,1715.4958,1715.5091,,,,0,44,44,44,1,20,115,,,,,,,,
,,60786ff5249b808e29b989a4,65af58f1928510ff1336cec9,2024-01-23_24h34.25.601,bars,2023.2.3,Win32,59.82292414,657b66ea316d21385b68909f,,,,,,,,,,,1715.5094,1716.4988,,,1717.0009,1717.2518,,7,7,,,,,,,,,,,,,,,,bars/032.png,bars/mask004.png,,,,,,,,,,,,5,2,,,,,,,4,10,4,9,,,,,,,,,,,1716.4989,1717.0008,1717.2518,1719.1571,space,1.8898,,1719.1571,62,13,1720.1599,1720.16,1720.1615,,,,0,45,45,45,1,125,20,,,,,,,,
,,60786ff5249b808e29b989a4,65af58f1928510ff1336cec9,2024-01-23_24h34.25.601,bars,2023.2.3,Win32,59.82292414,657b66ea316d21385b68909f,,,,,,,,,,,1720.1621,1721.163,,,1721.6651,1721.9163,,134,-46,,,,,,,,,,,,,,,,bars/043.png,bars/mask004.png,,,,,,,,,,,,8,2,,,,,,,2,8,3,9,,,,,,,,,,,1721.163,1721.6651,1721.9163,1726.8974,space,4.9662,,1726.8974,76,4,1727.9,1727.9,1727.913,,,,0,46,46,46,1,30,130,,,,,,,,
,,60786ff5249b808e29b989a4,65af58f1928510ff1336cec9,2024-01-23_24h34.25.601,bars,2023.2.3,Win32,59.82292414,657b66ea316d21385b68909f,,,,,,,,,,,1727.9132,1728.9032,,,1729.4054,1729.6563,,15,15,,,,,,,,,,,,,,,,bars/016.png,bars/mask002.png,,,,,,,,,,,,1,1,,,,,,,4,6,4,9,,,,,,,,,,,1728.9035,1729.4053,1729.6563,1732.7486,space,3.0763,,1732.7487,25,30,1733.7513,1733.7514,1733.7656,,,,0,47,47,47,1,40,165,,,,,,,,
,,60786ff5249b808e29b989a4,65af58f1928510ff1336cec9,2024-01-23_24h34.25.601,bars,2023.2.3,Win32,59.82292414,657b66ea316d21385b68909f,,,,,,,,,,,1733.7658,1734.7545,,,1735.2566,1735.5066,,68,68,,,,,,,,,,,,,,,,bars/034.png,bars/mask006.png,,,,,,,,,,,,6,2,,,,,,,2,8,1,7,,,,,,,,,,,1734.7546,1735.2566,1735.5066,1738.15,space,2.6284,,1738.1501,57,3,1739.1462,1739.1462,1739.1611,,,,0,48,48,48,1,125,65,,,,,,,,
,,60786ff5249b808e29b989a4,65af58f1928510ff1336cec9,2024-01-23_24h34.25.601,bars,2023.2.3,Win32,59.82292414,657b66ea316d21385b68909f,,,,,,,,,,,1739.1615,1740.1547,,,1740.6559,1740.9067,,63,63,,,,,,,,,,,,,,,,bars/047.png,bars/mask009.png,,,,,,,,,,,,5,2,,,,,,,0,6,0,6,,,,,,,,,,,1740.1547,1740.6558,1740.9068,1743.565,space,2.642,,1743.5651,48,7,1744.5678,1744.5678,1744.581,,,,0,49,49,49,1,15,70,,,,,,,,
,,60786ff5249b808e29b989a4,65af58f1928510ff1336cec9,2024-01-23_24h34.25.601,bars,2023.2.3,Win32,59.82292414,657b66ea316d21385b68909f,,,,,,,,,,,,,,,,,,,,,,,,,,,,,,,,,,,,,,,,,,,,,,,,,,,,,,,,,,,,,,,,,,,,,,,,,,,,,,,,,,,,,,,,,,,,,1744.5811,1804.5783,0,3,3,2,1,sequence_tables/blk005.csv
,,60786ff5249b808e29b989a4,65af58f1928510ff1336cec9,2024-01-23_24h34.25.601,bars,2023.2.3,Win32,59.82292414,657b66ea316d21385b68909f,,,,,,,,,,,1825.4126,1826.3999,,,1826.9008,1827.1518,,114,114,,,,,,,,,,,,,,,,bars/004.png,bars/mask002.png,,,,,,,,,,,,3,2,,,,,,,8,4,8,5,,,,,,1804.5914,1825.3929,space,20.7881,,1826.3999,1826.9005,1827.152,1828.0381,space,0.8704,,1828.0382,89,11,1829.0409,1829.0409,1829.0422,,,,0,0,0,0,1,25,125,,,,,,,,
,,60786ff5249b808e29b989a4,65af58f1928510ff1336cec9,2024-01-23_24h34.25.601,bars,2023.2.3,Win32,59.82292414,657b66ea316d21385b68909f,,,,,,,,,,,1829.0429,1830.0438,,,1830.546,1830.7957,,155,155,,,,,,,,,,,,,,,,bars/013.png,bars/mask008.png,,,,,,,,,,,,0,2,,,,,,,10,6,10,8,,,,,,,,,,,1830.0438,1830.546,1830.7959,1832.4515,space,1.6395,,1832.4515,80,35,1833.4537,1833.4538,1833.4674,,,,0,1,1,1,1,75,10,,,,,,,,
,,60786ff5249b808e29b989a4,65af58f1928510ff1336cec9,2024-01-23_24h34.25.601,bars,2023.2.3,Win32,59.82292414,657b66ea316d21385b68909f,,,,,,,,,,,1833.4678,1834.4574,,,1834.9592,1835.2102,,130,130,,,,,,,,,,,,,,,,bars/015.png,bars/mask009.png,,,,,,,,,,,,3,1,,,,,,,10,4,10,5,,,,,,,,,,,1834.4575,1834.9591,1835.2102,1837.3125,space,2.0872,,1837.3125,20,30,1838.3043,1838.3044,1838.3195,,,,0,2,2,2,1,110,160,,,,,,,,
,,60786ff5249b808e29b989a4,65af58f1928510ff1336cec9,2024-01-23_24h34.25.601,bars,2023.2.3,Win32,59.82292414,657b66ea316d21385b68909f,,,,,,,,,,,1838.32,1839.317,,,1839.8193,1840.0694,,121,121,,,,,,,,,,,,,,,,bars/024.png,bars/mask001.png,,,,,,,,,,,,8,1,,,,,,,8,6,8,5,,,,,,,,,,,1839.317,1839.819,1840.0694,1840.84,space,0.7533,,1840.8401,1,49,1841.8415,1841.8415,1841.8431,,,,0,3,3,3,1,120,170,,,,,,,,
,,60786ff5249b808e29b989a4,65af58f1928510ff1336cec9,2024-01-23_24h34.25.601,bars,2023.2.3,Win32,59.82292414,657b66ea316d21385b68909f,,,,,,,,,,,1841.8439,1842.8458,,,1843.3463,1843.5968,,108,108,,,,,,,,,,,,,,,,bars/002.png,bars/mask003.png,,,,,,,,,,,,3,1,,,,,,,10,8,10,9,,,,,,,,,,,1842.8465,1843.3461,1843.5969,1846.4439,space,2.8288,,1846.4439,22,23,1847.4465,1847.4466,1847.4598,,,,0,4,4,4,1,130,85,,,,,,,,
,,60786ff5249b808e29b989a4,65af58f1928510ff1336cec9,2024-01-23_24h34.25.601,bars,2023.2.3,Win32,59.82292414,657b66ea316d21385b68909f,,,,,,,,,,,1847.4602,1848.4496,,,1848.9518,1849.2027,,123,-57,,,,,,,,,,,,,,,,bars/025.png,bars/mask005.png,,,,,,,,,,,,3,1,,,,,,,8,10,8,10,,,,,,,,,,,1848.4497,1848.9516,1849.2029,1853.449,space,4.2303,,1853.4491,18,83,1854.4521,1854.4521,1854.4651,,,,0,5,5,5,1,105,40,,,,,,,,
,,60786ff5249b808e29b989a4,65af58f1928510ff1336cec9,2024-01-23_24h34.25.601,bars,2023.2.3,Win32,59.82292414,657b66ea316d21385b68909f,,,,,,,,,,,1854.4653,1855.4549,,,1855.9559,1856.2069,,24,204,,,,,,,,,,,,,,,,bars/007.png,bars/mask002.png,,,,,,,,,,,,0,1,,,,,,,10,10,10,10,,,,,,,,,,,1855.4549,1855.9558,1856.207,1858.8822,space,2.6596,,1858.8823,29,31,1859.885,1859.885,1859.8983,,,,0,6,6,6,1,175,55,,,,,,,,
,,60786ff5249b808e29b989a4,65af58f1928510ff1336cec9,2024-01-23_24h34.25.601,bars,2023.2.3,Win32,59.82292414,657b66ea316d21385b68909f,,,,,,,,,,,1859.8986,1860.8882,,,1861.3891,1861.6401,,147,147,,,,,,,,,,,,,,,,bars/016.png,bars/mask007.png,,,,,,,,,,,,4,2,,,,,,,8,10,7,10,,,,,,,,,,,1860.8882,1861.389,1861.6401,1863.3793,space,1.7225,,1863.3794,73,18,1864.3823,1864.3823,1864.397,,,,0,7,7,7,1,40,165,,,,,,,,
,,60786ff5249b808e29b989a4,65af58f1928510ff1336cec9,2024-01-23_24h34.25.601,bars,2023.2.3,Win32,59.82292414,657b66ea316d21385b68909f,,,,,,,,,,,1864.3981,1865.3963,,,1865.898,1866.1489,,170,-10,,,,,,,,,,,,,,,,bars/018.png,bars/mask008.png,,,,,,,,,,,,2,1,,,,,,,6,10,6,10,,,,,,,,,,,1865.3963,1865.898,1866.1489,1868.1729,space,2.0069,,1868.1729,20,80,1869.1613,1869.1613,1869.1654,,,,0,8,8,8,1,150,90,,,,,,,,
,,60786ff5249b808e29b989a4,65af58f1928510ff1336cec9,2024-01-23_24h34.25.601,bars,2023.2.3,Win32,59.82292414,657b66ea316d21385b68909f,,,,,,,,,,,1869.1659,1870.1606,,,1870.6625,1870.9133,,40,40,,,,,,,,,,,,,,,,bars/019.png,bars/mask003.png,,,,,,,,,,,,7,1,,,,,,,8,8,8,8,,,,,,,,,,,1870.1606,1870.6625,1870.9134,1876.0968,space,5.1661,,1876.0969,5,65,1877.0985,1877.0986,1877.1122,,,,0,9,9,9,1,45,105,,,,,,,,
,,60786ff5249b808e29b989a4,65af58f1928510ff1336cec9,2024-01-23_24h34.25.601,bars,2023.2.3,Win32,59.82292414,657b66ea316d21385b68909f,,,,,,,,,,,1877.1124,1878.1067,,,1878.6088,1878.8587,,158,158,,,,,,,,,,,,,,,,bars/024.png,bars/mask000.png,,,,,,,,,,,,6,2,,,,,,,6,10,4,10,,,,,,,,,,,1878.1068,1878.6088,1878.8588,1881.0989,space,2.2246,,1881.0991,38,12,1882.1015,1882.1018,1882.1164,,,,0,10,10,10,1,120,170,,,,,,,,
,,60786ff5249b808e29b989a4,65af58f1928510ff1336cec9,2024-01-23_24h34.25.601,bars,2023.2.3,Win32,59.82292414,657b66ea316d21385b68909f,,,,,,,,,,,1882.1167,1883.1138,,,1883.6018,1883.8526,,138,-42,,,,,,,,,,,,,,,,bars/020.png,bars/mask005.png,,,,,,,,,,,,1,1,,,,,,,4,8,3,10,,,,,,,,,,,1883.1138,1883.6018,1883.8527,1887.5477,space,3.6786,,1887.5479,23,32,1888.5501,1888.5501,1888.5646,,,,0,11,11,11,1,115,170,,,,,,,,
,,60786ff5249b808e29b989a4,65af58f1928510ff1336cec9,2024-01-23_24h34.25.601,bars,2023.2.3,Win32,59.82292414,657b66ea316d21385b68909f,,,,,,,,,,,1888.5648,1889.5582,,,1890.0601,1890.3103,,25,205,,,,,,,,,,,,,,,,bars/007.png,bars/mask006.png,,,,,,,,,,,,0,2,,,,,,,6,6,6,5,,,,,,,,,,,1889.5582,1890.0601,1890.3104,1892.9683,space,2.6425,,1892.9684,30,30,1893.971,1893.9713,1893.9859,,,,0,12,12,12,1,175,55,,,,,,,,
