init_variables.started,init_variables.stopped,participant,session,date,expName,psychopyVersion,OS,frameRate,study_id,instruction_exp.started,instruction_exp.stopped,key_resp_8.keys,key_resp_8.rt,key_resp_8.duration,instruction_single.started,instruction_single.stopped,key_resp_2.keys,key_resp_2.rt,key_resp_2.duration,interval.started,interval.stopped,cue_single.started,cue_single.stopped,mask.started,mask.stopped,ori_response_single.started,res_ori,res,ori_response_single.stopped,key_resp_single.keys,key_resp_single.rt,key_resp_single.duration,disp_single.started,disp_single.stopped,key_resp.keys,key_resp.rt,key_resp.duration,single.thisRepN,single.thisTrialN,single.thisN,single.thisIndex,single.ran,ori,path,mask_path,instruction_bandit.started,instruction_bandit.stopped,key_resp_6.keys,key_resp_6.rt,key_resp_6.duration,cue_bandit.started,cue_bandit.stopped,bandit_res.keys,bandit_res.rt,bandit_res.duration,outcome_bandit.started,rew,action,outcome_bandit.stopped,bandit.thisRepN,bandit.thisTrialN,bandit.thisN,bandit.thisIndex,bandit.ran,actual_rew1,actual_rew2,rew1,rew2,instruction_task.started,instruction_task.stopped,key_resp_7.keys,key_resp_7.rt,key_resp_7.duration,wait_ready.started,wait_ready.stopped,key_resp_3.keys,key_resp_3.rt,key_resp_3.duration,cue.started,cue.stopped,ori_response.started,ori_response.stopped,key_resp_5.keys,key_resp_5.rt,key_resp_5.duration,outcome.started,diff1,diff2,outcome.stopped,disp_outcome_practice.started,disp_outcome_practice.stopped,key_resp_4.keys,key_resp_4.rt,key_resp_4.duration,trials.thisRepN,trials.thisTrialN,trials.thisN,trials.thisIndex,trials.ran,ori1,ori2,break_blk.started,break_blk.stopped,block.thisRepN,block.thisTrialN,block.thisN,block.thisIndex,block.ran,condition_file
0.0004,0.0007,61066ca9d595665c412acb71,65af54814aa07d90bbee3cb3,2024-01-23_09h02.13.358,bars,2023.2.3,Win32,6.00024001,657b66ea316d21385b68909f,,,,,,,,,,,,,,,,,,,,,,,,,,,,,,,,,,,,,,,,,,,,,,,,,,,,,,,,,,,,,,,,,,,,,,,,,,,,,,,,,,,,,,,,,,,,,,,,,,,,
,,61066ca9d595665c412acb71,65af54814aa07d90bbee3cb3,2024-01-23_09h02.13.358,bars,2023.2.3,Win32,6.00024001,657b66ea316d21385b68909f,0.0009,6.2831,y,6.0533,,,,,,,,,,,,,,,,,,,,,,,,,,,,,,,,,,,,,,,,,,,,,,,,,,,,,,,,,,,,,,,,,,,,,,,,,,,,,,,,,,,,,,,,,,,,,,,,
,,61066ca9d595665c412acb71,65af54814aa07d90bbee3cb3,2024-01-23_09h02.13.358,bars,2023.2.3,Win32,6.00024001,657b66ea316d21385b68909f,,,,,,6.2833,18.5533,space,12.0872,,,,,,,,,,,,,,,,,,,,,,,,,,,,,,,,,,,,,,,,,,,,,,,,,,,,,,,,,,,,,,,,,,,,,,,,,,,,,,,,,,,,,,,,,,,
,,61066ca9d595665c412acb71,65af54814aa07d90bbee3cb3,2024-01-23_09h02.13.358,bars,2023.2.3,Win32,6.00024001,657b66ea316d21385b68909f,,,,,,,,,,,18.559,19.4439,19.4441,19.8504,19.8506,20.0438,20.044,168,168,27.1525,space,6.9339,,27.1526,38.363,space,11.0011,,0,0,0,3,1,20,bars/single003.png,bars/mask005.png,,,,,,,,,,,,,,,,,,,,,,,,,,,,,,,,,,,,,,,,,,,,,,,,,,,,,,,,,,,,,,,,
,,61066ca9d595665c412acb71,65af54814aa07d90bbee3cb3,2024-01-23_09h02.13.358,bars,2023.2.3,Win32,6.00024001,657b66ea316d21385b68909f,,,,,,,,,,,38.3813,39.4018,39.4019,39.9527,39.9528,40.1401,40.1402,161,161,61.0364,space,20.72,,61.0365,66.2789,space,5.0347,,0,1,1,7,1,45,bars/single007.png,bars/mask009.png,,,,,,,,,,,,,,,,,,,,,,,,,,,,,,,,,,,,,,,,,,,,,,,,,,,,,,,,,,,,,,,,
,,61066ca9d595665c412acb71,65af54814aa07d90bbee3cb3,2024-01-23_09h02.13.358,bars,2023.2.3,Win32,6.00024001,657b66ea316d21385b68909f,,,,,,,,,,,66.2963,67.1671,67.1672,67.5422,67.5423,67.7393,67.7393,169,169,73.2397,space,5.3351,,73.2398,75.2838,space,1.8488,,0,2,2,2,1,145,bars/single002.png,bars/mask003.png,,,,,,,,,,,,,,,,,,,,,,,,,,,,,,,,,,,,,,,,,,,,,,,,,,,,,,,,,,,,,,,,
,,61066ca9d595665c412acb71,65af54814aa07d90bbee3cb3,2024-01-23_09h02.13.358,bars,2023.2.3,Win32,6.00024001,657b66ea316d21385b68909f,,,,,,,,,,,75.2842,76.345,76.345,76.8675,76.8676,77.0425,77.0426,19,19,96.7329,space,19.525,,96.733,99.05,space,2.1025,,0,3,3,9,1,20,bars/single009.png,bars/mask006.png,,,,,,,,,,,,,,,,,,,,,,,,,,,,,,,,,,,,,,,,,,,,,,,,,,,,,,,,,,,,,,,,
,,61066ca9d595665c412acb71,65af54814aa07d90bbee3cb3,2024-01-23_09h02.13.358,bars,2023.2.3,Win32,6.00024001,657b66ea316d21385b68909f,,,,,,,,,,,99.0506,99.9401,99.9402,100.3071,100.3071,100.4803,100.4804,19,19,112.5379,space,11.8924,,112.5379,114.8193,space,2.0882,,0,4,4,1,1,20,bars/single001.png,bars/mask006.png,,,,,,,,,,,,,,,,,,,,,,,,,,,,,,,,,,,,,,,,,,,,,,,,,,,,,,,,,,,,,,,,
,,61066ca9d595665c412acb71,65af54814aa07d90bbee3cb3,2024-01-23_09h02.13.358,bars,2023.2.3,Win32,6.00024001,657b66ea316d21385b68909f,,,,,,,,,,,114.8198,115.6973,115.6973,116.0889,116.089,116.2733,116.2734,25,25,124.3333,space,7.8937,,124.3333,126.3597,space,1.8362,,0,5,5,8,1,160,bars/single008.png,bars/mask004.png,,,,,,,,,,,,,,,,,,,,,,,,,,,,,,,,,,,,,,,,,,,,,,,,,,,,,,,,,,,,,,,,
,,61066ca9d595665c412acb71,65af54814aa07d90bbee3cb3,2024-01-23_09h02.13.358,bars,2023.2.3,Win32,6.00024001,657b66ea316d21385b68909f,,,,,,,,,,,126.3602,127.3673,127.3673,127.7735,127.7736,127.9738,127.9738,12,192,141.6413,space,13.5026,,141.6414,143.9478,space,2.0942,0.0003,0,6,6,6,1,175,bars/single006.png,bars/mask005.png,,,,,,,,,,,,,,,,,,,,,,,,,,,,,,,,,,,,,,,,,,,,,,,,,,,,,,,,,,,,,,,,
,,61066ca9d595665c412acb71,65af54814aa07d90bbee3cb3,2024-01-23_09h02.13.358,bars,2023.2.3,Win32,6.00024001,657b66ea316d21385b68909f,,,,,,,,,,,143.9483,144.9658,144.9659,145.3386,145.3387,145.5437,145.5437,14,14,155.479,space,9.77,0.0002,155.479,157.5432,space,1.8657,,0,7,7,4,1,95,bars/single004.png,bars/mask004.png,,,,,,,,,,,,,,,,,,,,,,,,,,,,,,,,,,,,,,,,,,,,,,,,,,,,,,,,,,,,,,,,
,,61066ca9d595665c412acb71,65af54814aa07d90bbee3cb3,2024-01-23_09h02.13.358,bars,2023.2.3,Win32,6.00024001,657b66ea316d21385b68909f,,,,,,,,,,,157.5436,158.432,158.432,158.8159,158.8159,158.9869,158.987,10,190,171.2525,space,12.0969,,171.2526,172.9582,space,1.5132,,0,8,8,5,1,55,bars/single005.png,bars/mask008.png,,,,,,,,,,,,,,,,,,,,,,,,,,,,,,,,,,,,,,,,,,,,,,,,,,,,,,,,,,,,,,,,
,,61066ca9d595665c412acb71,65af54814aa07d90bbee3cb3,2024-01-23_09h02.13.358,bars,2023.2.3,Win32,6.00024001,657b66ea316d21385b68909f,,,,,,,,,,,172.9587,173.8744,173.8745,174.3988,174.3989,174.5713,174.5714,161,161,224.3241,space,49.5607,,224.3241,245.6178,space,21.1158,0.0003,0,9,9,0,1,150,bars/single000.png,bars/mask006.png,,,,,,,,,,,,,,,,,,,,,,,,,,,,,,,,,,,,,,,,,,,,,,,,,,,,,,,,,,,,,,,,
,,61066ca9d595665c412acb71,65af54814aa07d90bbee3cb3,2024-01-23_09h02.13.358,bars,2023.2.3,Win32,6.00024001,657b66ea316d21385b68909f,,,,,,,,,,,,,,,,,,,,,,,,,,,,,,,,,,,,,245.6362,258.9655,space,13.132,,,,,,,,,,,,,,,,,,,,,,,,,,,,,,,,,,,,,,,,,,,,,,,,,,,,,,,,,,,,
,,61066ca9d595665c412acb71,65af54814aa07d90bbee3cb3,2024-01-23_09h02.13.358,bars,2023.2.3,Win32,6.00024001,657b66ea316d21385b68909f,,,,,,,,,,,,,,,,,,,,,,,,,,,,,,,,,,,,,,,,,,258.984,261.0348,right,1.861,0.0002,261.0349,2,2,261.9344,0,0,0,0,1,9,1,9,2,,,,,,,,,,,,,,,,,,,,,,,,,,,,,,,,,,,,,,,,,
,,61066ca9d595665c412acb71,65af54814aa07d90bbee3cb3,2024-01-23_09h02.13.358,bars,2023.2.3,Win32,6.00024001,657b66ea316d21385b68909f,,,,,,,,,,,,,,,,,,,,,,,,,,,,,,,,,,,,,,,,,,261.9351,262.882,left,0.7798,,262.882,10,1,263.7841,0,1,1,1,1,10,0,10,1,,,,,,,,,,,,,,,,,,,,,,,,,,,,,,,,,,,,,,,,,
,,61066ca9d595665c412acb71,65af54814aa07d90bbee3cb3,2024-01-23_09h02.13.358,bars,2023.2.3,Win32,6.00024001,657b66ea316d21385b68909f,,,,,,,,,,,,,,,,,,,,,,,,,,,,,,,,,,,,,,,,,,263.7845,264.7192,left,0.7656,,264.7192,10,1,265.6163,0,2,2,2,1,10,2,10,2,,,,,,,,,,,,,,,,,,,,,,,,,,,,,,,,,,,,,,,,,
,,61066ca9d595665c412acb71,65af54814aa07d90bbee3cb3,2024-01-23_09h02.13.358,bars,2023.2.3,Win32,6.00024001,657b66ea316d21385b68909f,,,,,,,,,,,,,,,,,,,,,,,,,,,,,,,,,,,,,,,,,,265.6169,266.7381,left,0.9379,,266.7382,7,1,267.6249,0,3,3,3,1,8,4,7,3,,,,,,,,,,,,,,,,,,,,,,,,,,,,,,,,,,,,,,,,,
,,61066ca9d595665c412acb71,65af54814aa07d90bbee3cb3,2024-01-23_09h02.13.358,bars,2023.2.3,Win32,6.00024001,657b66ea316d21385b68909f,,,,,,,,,,,,,,,,,,,,,,,,,,,,,,,,,,,,,,,,,,267.6254,268.5309,right,0.7254,,268.531,1,2,269.4385,0,4,4,4,1,6,2,5,1,,,,,,,,,,,,,,,,,,,,,,,,,,,,,,,,,,,,,,,,,
,,61066ca9d595665c412acb71,65af54814aa07d90bbee3cb3,2024-01-23_09h02.13.358,bars,2023.2.3,Win32,6.00024001,657b66ea316d21385b68909f,,,,,,,,,,,,,,,,,,,,,,,,,,,,,,,,,,,,,,,,,,269.4393,270.3599,left,0.7478,,270.36,4,1,271.2302,0,5,5,5,1,4,4,4,4,,,,,,,,,,,,,,,,,,,,,,,,,,,,,,,,,,,,,,,,,
,,61066ca9d595665c412acb71,65af54814aa07d90bbee3cb3,2024-01-23_09h02.13.358,bars,2023.2.3,Win32,6.00024001,657b66ea316d21385b68909f,,,,,,,,,,,,,,,,,,,,,,,,,,,,,,,,,,,,,,,,,,271.2308,273.1296,left,1.7139,,273.1297,1,1,274.0105,0,6,6,6,1,2,2,1,2,,,,,,,,,,,,,,,,,,,,,,,,,,,,,,,,,,,,,,,,,
,,61066ca9d595665c412acb71,65af54814aa07d90bbee3cb3,2024-01-23_09h02.13.358,bars,2023.2.3,Win32,6.00024001,657b66ea316d21385b68909f,,,,,,,,,,,,,,,,,,,,,,,,,,,,,,,,,,,,,,,,,,274.0109,275.156,right,0.9617,,275.156,1,2,276.0372,0,7,7,7,1,0,0,0,1,,,,,,,,,,,,,,,,,,,,,,,,,,,,,,,,,,,,,,,,,
,,61066ca9d595665c412acb71,65af54814aa07d90bbee3cb3,2024-01-23_09h02.13.358,bars,2023.2.3,Win32,6.00024001,657b66ea316d21385b68909f,,,,,,,,,,,,,,,,,,,,,,,,,,,,,,,,,,,,,,,,,,276.0379,276.7721,right,0.5395,,276.7721,0,2,277.6701,0,8,8,8,1,0,2,1,0,,,,,,,,,,,,,,,,,,,,,,,,,,,,,,,,,,,,,,,,,
,,61066ca9d595665c412acb71,65af54814aa07d90bbee3cb3,2024-01-23_09h02.13.358,bars,2023.2.3,Win32,6.00024001,657b66ea316d21385b68909f,,,,,,,,,,,,,,,,,,,,,,,,,,,,,,,,,,,,,,,,,,277.6708,278.4343,right,0.5778,,278.4343,3,2,279.3303,0,9,9,9,1,2,4,2,3,,,,,,,,,,,,,,,,,,,,,,,,,,,,,,,,,,,,,,,,,
,,61066ca9d595665c412acb71,65af54814aa07d90bbee3cb3,2024-01-23_09h02.13.358,bars,2023.2.3,Win32,6.00024001,657b66ea316d21385b68909f,,,,,,,,,,,,,,,,,,,,,,,,,,,,,,,,,,,,,,,,,,279.3308,280.0769,right,0.5608,,280.077,3,2,280.9806,0,10,10,10,1,0,2,0,3,,,,,,,,,,,,,,,,,,,,,,,,,,,,,,,,,,,,,,,,,
,,61066ca9d595665c412acb71,65af54814aa07d90bbee3cb3,2024-01-23_09h02.13.358,bars,2023.2.3,Win32,6.00024001,657b66ea316d21385b68909f,,,,,,,,,,,,,,,,,,,,,,,,,,,,,,,,,,,,,,,,,,280.9811,281.909,right,0.7599,,281.909,3,2,282.8004,0,11,11,11,1,0,4,0,3,,,,,,,,,,,,,,,,,,,,,,,,,,,,,,,,,,,,,,,,,
,,61066ca9d595665c412acb71,65af54814aa07d90bbee3cb3,2024-01-23_09h02.13.358,bars,2023.2.3,Win32,6.00024001,657b66ea316d21385b68909f,,,,,,,,,,,,,,,,,,,,,,,,,,,,,,,,,,,,,,,,,,282.8008,283.349,left,0.3636,,283.3491,1,1,284.2378,0,12,12,12,1,2,6,1,6,,,,,,,,,,,,,,,,,,,,,,,,,,,,,,,,,,,,,,,,,
,,61066ca9d595665c412acb71,65af54814aa07d90bbee3cb3,2024-01-23_09h02.13.358,bars,2023.2.3,Win32,6.00024001,657b66ea316d21385b68909f,,,,,,,,,,,,,,,,,,,,,,,,,,,,,,,,,,,,,,,,,,284.2382,285.1592,right,0.7258,,285.1594,3,2,286.0671,0,13,13,13,1,0,4,1,3,,,,,,,,,,,,,,,,,,,,,,,,,,,,,,,,,,,,,,,,,
,,61066ca9d595665c412acb71,65af54814aa07d90bbee3cb3,2024-01-23_09h02.13.358,bars,2023.2.3,Win32,6.00024001,657b66ea316d21385b68909f,,,,,,,,,,,,,,,,,,,,,,,,,,,,,,,,,,,,,,,,,,286.0676,286.8237,left,0.59,,286.8239,2,1,287.8583,0,14,14,14,1,2,6,2,7,,,,,,,,,,,,,,,,,,,,,,,,,,,,,,,,,,,,,,,,,
,,61066ca9d595665c412acb71,65af54814aa07d90bbee3cb3,2024-01-23_09h02.13.358,bars,2023.2.3,Win32,6.00024001,657b66ea316d21385b68909f,,,,,,,,,,,,,,,,,,,,,,,,,,,,,,,,,,,,,,,,,,287.8588,288.3989,left,0.372,,288.399,3,1,289.4289,0,15,15,15,1,4,8,3,9,,,,,,,,,,,,,,,,,,,,,,,,,,,,,,,,,,,,,,,,,
,,61066ca9d595665c412acb71,65af54814aa07d90bbee3cb3,2024-01-23_09h02.13.358,bars,2023.2.3,Win32,6.00024001,657b66ea316d21385b68909f,,,,,,,,,,,,,,,,,,,,,,,,,,,,,,,,,,,,,,,,,,289.4293,290.0055,left,0.4104,,290.0056,7,1,291.0232,0,16,16,16,1,6,6,7,7,,,,,,,,,,,,,,,,,,,,,,,,,,,,,,,,,,,,,,,,,
,,61066ca9d595665c412acb71,65af54814aa07d90bbee3cb3,2024-01-23_09h02.13.358,bars,2023.2.3,Win32,6.00024001,657b66ea316d21385b68909f,,,,,,,,,,,,,,,,,,,,,,,,,,,,,,,,,,,,,,,,,,291.024,291.7766,left,0.5703,,291.7766,9,1,292.7912,0,17,17,17,1,8,4,9,5,,,,,,,,,,,,,,,,,,,,,,,,,,,,,,,,,,,,,,,,,
,,61066ca9d595665c412acb71,65af54814aa07d90bbee3cb3,2024-01-23_09h02.13.358,bars,2023.2.3,Win32,6.00024001,657b66ea316d21385b68909f,,,,,,,,,,,,,,,,,,,,,,,,,,,,,,,,,,,,,,,,,,292.7917,293.5662,left,0.5854,,293.5663,5,1,294.6236,0,18,18,18,1,6,2,5,1,,,,,,,,,,,,,,,,,,,,,,,,,,,,,,,,,,,,,,,,,
,,61066ca9d595665c412acb71,65af54814aa07d90bbee3cb3,2024-01-23_09h02.13.358,bars,2023.2.3,Win32,6.00024001,657b66ea316d21385b68909f,,,,,,,,,,,,,,,,,,,,,,,,,,,,,,,,,,,,,,,,,,294.6244,295.3445,left,0.5355,,295.3446,7,1,296.2398,0,19,19,19,1,8,0,7,0,,,,,,,,,,,,,,,,,,,,,,,,,,,,,,,,,,,,,,,,,
,,61066ca9d595665c412acb71,65af54814aa07d90bbee3cb3,2024-01-23_09h02.13.358,bars,2023.2.3,Win32,6.00024001,657b66ea316d21385b68909f,,,,,,,,,,,,,,,,,,,,,,,,,,,,,,,,,,,,,,,,,,,,,,,,,,,,,,,,,,,,296.2409,329.2158,space,32.778,0.0001,,,,,,,,,,,,,,,,,,,,,,,,,,,,,,,,,,,,
,,61066ca9d595665c412acb71,65af54814aa07d90bbee3cb3,2024-01-23_09h02.13.358,bars,2023.2.3,Win32,6.00024001,657b66ea316d21385b68909f,,,,,,,,,,,331.394,332.4341,,,333.0038,333.2024,,129,129,,,,,,,,,,,,,,,,bars/018.png,bars/mask001.png,,,,,,,,,,,,2,1,,,,,,,7,5,7,6,,,,,,329.2324,331.3864,space,1.9817,,332.4344,333.0037,333.2029,340.7501,space,7.3806,,340.7504,21,39,341.796,341.7964,350.6733,space,8.6758,,0,0,0,0,1,150,90,,,,,,,,
,,61066ca9d595665c412acb71,65af54814aa07d90bbee3cb3,2024-01-23_09h02.13.358,bars,2023.2.3,Win32,6.00024001,657b66ea316d21385b68909f,,,,,,,,,,,350.6887,351.7475,,,352.306,352.4758,,140,140,,,,,,,,,,,,,,,,bars/010.png,bars/mask009.png,,,,,,,,,,,,1,1,,,,,,,5,7,5,7,,,,,,,,,,,351.7476,352.3059,352.4759,362.4102,space,9.7693,,362.4103,25,85,363.3044,363.3045,367.5996,space,4.0882,,0,1,1,1,1,165,55,,,,,,,,
,,61066ca9d595665c412acb71,65af54814aa07d90bbee3cb3,2024-01-23_09h02.13.358,bars,2023.2.3,Win32,6.00024001,657b66ea316d21385b68909f,,,,,,,,,,,367.6177,368.6727,,,369.0732,369.2577,,90,90,,,,,,,,,,,,,,,,bars/034.png,bars/mask002.png,,,,,,,,,,,,1,2,,,,,,,3,5,4,4,,,,,,,,,,,368.6728,369.0732,369.2578,378.8688,space,9.447,,378.8689,35,25,379.9083,379.9083,382.4388,space,2.2962,,0,2,2,2,1,125,65,,,,,,,,
,,61066ca9d595665c412acb71,65af54814aa07d90bbee3cb3,2024-01-23_09h02.13.358,bars,2023.2.3,Win32,6.00024001,657b66ea316d21385b68909f,,,,,,,,,,,382.4393,383.4739,,,383.8788,384.0794,,90,90,,,,,,,,,,,,,,,,bars/040.png,bars/mask003.png,,,,,,,,,,,,0,1,,,,,,,1,3,2,3,,,,,,,,,,,383.474,383.8788,384.0795,406.9083,space,22.6393,,406.9085,50,85,407.7781,407.7782,410.6811,space,2.6872,,0,3,3,3,1,140,5,,,,,,,,
,,61066ca9d595665c412acb71,65af54814aa07d90bbee3cb3,2024-01-23_09h02.13.358,bars,2023.2.3,Win32,6.00024001,657b66ea316d21385b68909f,,,,,,,,,,,410.6815,411.5635,,,411.9554,412.1544,,15,15,,,,,,,,,,,,,,,,bars/029.png,bars/mask002.png,,,,,,,,,,,,0,2,,,,,,,3,5,2,6,,,,,,,,,,,411.5636,411.9552,412.1545,422.265,space,9.9461,0.0002,422.2651,75,30,423.2819,423.282,427.137,space,3.6496,,0,4,4,4,1,90,45,,,,,,,,
,,61066ca9d595665c412acb71,65af54814aa07d90bbee3cb3,2024-01-23_09h02.13.358,bars,2023.2.3,Win32,6.00024001,657b66ea316d21385b68909f,,,,,,,,,,,427.1511,428.0526,,,428.4345,428.6062,,11,191,,,,,,,,,,,,,,,,bars/030.png,bars/mask005.png,,,,,,,,,,,,0,1,,,,,,,1,3,3,2,,,,,,,,,,,428.0528,428.4345,428.6063,438.028,space,9.2574,0.0003,438.0281,51,54,438.9223,438.9224,562.737,space,123.619,,0,5,5,5,1,140,65,,,,,,,,
,,61066ca9d595665c412acb71,65af54814aa07d90bbee3cb3,2024-01-23_09h02.13.358,bars,2023.2.3,Win32,6.00024001,657b66ea316d21385b68909f,,,,,,,,,,,562.7512,563.6568,,,564.1823,564.3578,,17,17,,,,,,,,,,,,,,,,bars/010.png,bars/mask008.png,,,,,,,,,,,,0,1,,,,,,,3,1,2,1,,,,,,,,,,,563.6568,564.1823,564.3579,577.5859,space,13.0384,0.0002,577.5861,32,38,578.6284,578.6285,581.6621,space,2.8406,,0,6,6,6,1,165,55,,,,,,,,
,,61066ca9d595665c412acb71,65af54814aa07d90bbee3cb3,2024-01-23_09h02.13.358,bars,2023.2.3,Win32,6.00024001,657b66ea316d21385b68909f,,,,,,,,,,,581.6626,582.5589,,,583.125,583.301,,167,-13,,,,,,,,,,,,,,,,bars/022.png,bars/mask007.png,,,,,,,,,,,,0,2,,,,,,,5,0,6,0,,,,,,,,,,,582.5591,583.1249,583.3011,596.8978,space,13.4313,,596.8979,72,33,597.7812,597.7813,701.2284,space,103.2317,0.0001,0,7,7,7,1,95,20,,,,,,,,
,,61066ca9d595665c412acb71,65af54814aa07d90bbee3cb3,2024-01-23_09h02.13.358,bars,2023.2.3,Win32,6.00024001,657b66ea316d21385b68909f,,,,,,,,,,,701.2424,702.1592,,,702.6693,702.8397,,166,-14,,,,,,,,,,,,,,,,bars/035.png,bars/mask001.png,,,,,,,,,,,,5,1,,,,,,,7,0,7,0,,,,,,,,,,,702.1593,702.6692,702.8397,713.6151,space,10.593,,713.6152,9,74,714.5215,714.5215,716.6451,space,1.9237,,0,8,8,8,1,175,60,,,,,,,,
,,61066ca9d595665c412acb71,65af54814aa07d90bbee3cb3,2024-01-23_09h02.13.358,bars,2023.2.3,Win32,6.00024001,657b66ea316d21385b68909f,,,,,,,,,,,716.6457,717.5346,,,718.0701,718.2903,,172,172,,,,,,,,,,,,,,,,bars/005.png,bars/mask004.png,,,,,,,,,,,,4,1,,,,,,,9,0,9,1,,,,,,,,,,,717.5347,718.07,718.2903,736.0908,space,17.6234,,736.0909,18,32,737.019,737.0191,739.2955,space,2.0947,,0,9,9,9,1,10,140,,,,,,,,
,,61066ca9d595665c412acb71,65af54814aa07d90bbee3cb3,2024-01-23_09h02.13.358,bars,2023.2.3,Win32,6.00024001,657b66ea316d21385b68909f,,,,,,,,,,,739.296,740.2087,,,740.7819,740.978,,6,6,,,,,,,,,,,,,,,,bars/002.png,bars/mask001.png,,,,,,,,,,,,0,1,,,,,,,10,2,9,1,,,,,,,,,,,740.2087,740.7817,740.978,750.1362,space,8.9932,,750.1363,56,79,751.0352,751.0353,753.5245,space,2.3025,,0,10,10,10,1,130,85,,,,,,,,
,,61066ca9d595665c412acb71,65af54814aa07d90bbee3cb3,2024-01-23_09h02.13.358,bars,2023.2.3,Win32,6.00024001,657b66ea316d21385b68909f,,,,,,,,,,,753.5251,754.4327,,,754.9497,755.138,,9,189,,,,,,,,,,,,,,,,bars/047.png,bars/mask002.png,,,,,,,,,,,,6,1,,,,,,,8,4,8,4,,,,,,,,,,,754.4328,754.9496,755.138,769.0149,space,13.6836,,769.015,6,61,769.9049,769.905,772.003,space,1.9128,,0,11,11,11,1,15,70,,,,,,,,
,,61066ca9d595665c412acb71,65af54814aa07d90bbee3cb3,2024-01-23_09h02.13.358,bars,2023.2.3,Win32,6.00024001,657b66ea316d21385b68909f,,,,,,,,,,,772.0034,772.9064,,,773.2824,773.4747,,9,189,,,,,,,,,,,,,,,,bars/003.png,bars/mask006.png,,,,,,,,,,,,3,1,,,,,,,6,6,6,7,,,,,,,,,,,772.9065,773.2824,773.4747,787.6107,space,13.9535,,787.6109,16,49,788.5384,788.5385,832.0917,space,43.3576,,0,12,12,12,1,25,140,,,,,,,,
,,61066ca9d595665c412acb71,65af54814aa07d90bbee3cb3,2024-01-23_09h02.13.358,bars,2023.2.3,Win32,6.00024001,657b66ea316d21385b68909f,,,,,,,,,,,832.1061,833.0103,,,833.5218,833.7283,,10,190,,,,,,,,,,,,,,,,bars/007.png,bars/mask005.png,,,,,,,,,,,,4,1,,,,,,,8,8,8,9,,,,,,,,,,,833.0104,833.5218,833.7283,852.1793,space,18.2511,0.0002,852.1795,15,45,853.2466,853.2466,919.9903,space,66.5568,,0,13,13,13,1,175,55,,,,,,,,
,,61066ca9d595665c412acb71,65af54814aa07d90bbee3cb3,2024-01-23_09h02.13.358,bars,2023.2.3,Win32,6.00024001,657b66ea316d21385b68909f,,,,,,,,,,,920.0048,921.0572,,,921.4312,921.6077,,11,11,,,,,,,,,,,,,,,,bars/045.png,bars/mask005.png,,,,,,,,,,,,6,2,,,,,,,10,6,9,6,,,,,,,,,,,921.0573,921.4312,921.6079,929.7637,space,7.9922,,929.7638,89,1,930.6436,930.6437,932.9108,space,2.0727,,0,14,14,14,1,100,10,,,,,,,,
,,61066ca9d595665c412acb71,65af54814aa07d90bbee3cb3,2024-01-23_09h02.13.358,bars,2023.2.3,Win32,6.00024001,657b66ea316d21385b68909f,,,,,,,,,,,932.9113,933.9655,,,934.4956,934.6669,,8,188,,,,,,,,,,,,,,,,bars/027.png,bars/mask002.png,,,,,,,,,,,,0,2,,,,,,,10,4,10,3,,,,,,,,,,,933.9656,934.4956,934.6669,944.7506,space,9.8996,,944.7507,78,42,945.6583,945.6584,947.6018,space,1.7383,,0,15,15,15,1,110,50,,,,,,,,
,,61066ca9d595665c412acb71,65af54814aa07d90bbee3cb3,2024-01-23_09h02.13.358,bars,2023.2.3,Win32,6.00024001,657b66ea316d21385b68909f,,,,,,,,,,,947.6023,948.5114,,,948.8773,949.0495,,9,189,,,,,,,,,,,,,,,,bars/047.png,bars/mask000.png,,,,,,,,,,,,8,1,,,,,,,10,6,10,5,,,,,,,,,,,948.5114,948.8773,949.0496,955.341,space,6.1075,,955.3411,6,61,956.2179,956.218,957.7766,space,1.3475,0.0003,0,16,16,16,1,15,70,,,,,,,,
,,61066ca9d595665c412acb71,65af54814aa07d90bbee3cb3,2024-01-23_09h02.13.358,bars,2023.2.3,Win32,6.00024001,657b66ea316d21385b68909f,,,,,,,,,,,957.777,958.6618,,,959.0326,959.205,,6,186,,,,,,,,,,,,,,,,bars/010.png,bars/mask002.png,,,,,,,,,,,,3,1,,,,,,,10,4,10,5,,,,,,,,,,,958.6618,959.0325,959.205,965.4302,space,6.0516,,965.4303,21,49,966.3153,966.3154,967.6726,space,1.1774,,0,17,17,17,1,165,55,,,,,,,,
,,61066ca9d595665c412acb71,65af54814aa07d90bbee3cb3,2024-01-23_09h02.13.358,bars,2023.2.3,Win32,6.00024001,657b66ea316d21385b68909f,,,,,,,,,,,967.6732,968.5811,,,968.9447,969.1271,,111,111,,,,,,,,,,,,,,,,bars/013.png,bars/mask004.png,,,,,,,,,,,,0,1,,,,,,,10,6,10,7,,,,,,,,,,,968.5811,968.9447,969.1272,973.8926,space,4.5953,,973.8927,36,79,974.7687,974.7688,976.3258,space,1.3553,,0,18,18,18,1,75,10,,,,,,,,
,,61066ca9d595665c412acb71,65af54814aa07d90bbee3cb3,2024-01-23_09h02.13.358,bars,2023.2.3,Win32,6.00024001,657b66ea316d21385b68909f,,,,,,,,,,,976.3264,977.2406,,,977.7738,977.9794,,128,128,,,,,,,,,,,,,,,,bars/005.png,bars/mask000.png,,,,,,,,,,,,5,2,,,,,,,10,8,10,9,,,,,,,,,,,977.2406,977.7737,977.9794,988.0778,space,9.9348,,988.0778,62,12,988.9675,988.9675,990.3499,space,1.181,,0,19,19,19,1,10,140,,,,,,,,
,,61066ca9d595665c412acb71,65af54814aa07d90bbee3cb3,2024-01-23_09h02.13.358,bars,2023.2.3,Win32,6.00024001,657b66ea316d21385b68909f,,,,,,,,,,,990.3504,991.2603,,,991.6355,991.8068,,140,140,,,,,,,,,,,,,,,,bars/006.png,bars/mask004.png,,,,,,,,,,,,0,2,,,,,,,8,10,6,9,,,,,,,,,,,991.2604,991.6354,991.8068,998.2473,space,6.2555,,998.2474,75,40,999.1431,999.1432,1001.8822,space,2.5524,,0,20,20,20,1,35,100,,,,,,,,
,,61066ca9d595665c412acb71,65af54814aa07d90bbee3cb3,2024-01-23_09h02.13.358,bars,2023.2.3,Win32,6.00024001,657b66ea316d21385b68909f,,,,,,,,,,,1001.8827,1002.9292,,,1003.3083,1003.479,,130,130,,,,,,,,,,,,,,,,bars/006.png,bars/mask003.png,,,,,,,,,,,,0,2,,,,,,,6,10,6,9,,,,,,,,,,,1002.9293,1003.3083,1003.479,1019.7254,space,16.0821,,1019.7255,85,30,1020.792,1020.792,1021.9736,space,1.0021,,0,21,21,21,1,35,100,,,,,,,,
,,61066ca9d595665c412acb71,65af54814aa07d90bbee3cb3,2024-01-23_09h02.13.358,bars,2023.2.3,Win32,6.00024001,657b66ea316d21385b68909f,,,,,,,,,,,1021.9742,1022.8751,,,1023.4313,1023.602,,132,132,,,,,,,,,,,,,,,,bars/038.png,bars/mask005.png,,,,,,,,,,,,0,1,,,,,,,4,8,3,9,,,,,,,,,,,1022.8751,1023.4312,1023.6021,1028.3253,space,4.5581,,1028.3254,33,62,1029.237,1029.2371,1031.7058,space,2.2711,,0,22,22,22,1,165,70,,,,,,,,
,,61066ca9d595665c412acb71,65af54814aa07d90bbee3cb3,2024-01-23_09h02.13.358,bars,2023.2.3,Win32,6.00024001,657b66ea316d21385b68909f,,,,,,,,,,,1031.7064,1032.7456,,,1033.2996,1033.4962,,28,28,,,,,,,,,,,,,,,,bars/029.png,bars/mask000.png,,,,,,,,,,,,4,2,,,,,,,6,10,5,10,,,,,,,,,,,1032.7456,1033.2994,1033.4962,1065.0498,space,31.3674,,1065.0499,62,17,1065.9629,1065.9631,1089.4277,space,23.2647,,0,23,23,23,1,90,45,,,,,,,,
,,61066ca9d595665c412acb71,65af54814aa07d90bbee3cb3,2024-01-23_09h02.13.358,bars,2023.2.3,Win32,6.00024001,657b66ea316d21385b68909f,,,,,,,,,,,1089.4467,1090.3246,,,1090.6952,1090.8961,,133,133,,,,,,,,,,,,,,,,bars/012.png,bars/mask009.png,,,,,,,,,,,,0,1,,,,,,,8,10,8,10,,,,,,,,,,,1090.3246,1090.6951,1090.8961,1098.7755,space,7.7069,0.0002,1098.7756,43,62,1099.6535,1099.6535,1100.7955,space,0.942,,0,24,24,24,1,90,15,,,,,,,,
,,61066ca9d595665c412acb71,65af54814aa07d90bbee3cb3,2024-01-23_09h02.13.358,bars,2023.2.3,Win32,6.00024001,657b66ea316d21385b68909f,,,,,,,,,,,1100.7961,1101.8401,,,1102.2307,1102.4269,,152,-28,,,,,,,,,,,,,,,,bars/018.png,bars/mask009.png,,,,,,,,,,,,7,1,,,,,,,6,8,7,7,,,,,,,,,,,1101.8402,1102.2306,1102.427,1113.0599,space,10.456,,1113.0599,2,62,1113.9818,1113.9818,1115.9275,space,1.7468,,0,25,25,25,1,150,90,,,,,,,,
,,61066ca9d595665c412acb71,65af54814aa07d90bbee3cb3,2024-01-23_09h02.13.358,bars,2023.2.3,Win32,6.00024001,657b66ea316d21385b68909f,,,,,,,,,,,1115.9281,1116.8343,,,1117.347,1117.561,,158,-22,,,,,,,,,,,,,,,,bars/013.png,bars/mask007.png,,,,,,,,,,,,0,2,,,,,,,4,6,4,6,,,,,,,,,,,1116.8343,1117.3469,1117.5611,1130.8152,space,13.0737,,1130.8153,83,32,1131.692,1131.692,1132.8326,space,0.9571,,0,26,26,26,1,75,10,,,,,,,,
,,61066ca9d595665c412acb71,65af54814aa07d90bbee3cb3,2024-01-23_09h02.13.358,bars,2023.2.3,Win32,6.00024001,657b66ea316d21385b68909f,,,,,,,,,,,1132.833,1133.7294,,,1134.252,1134.425,,166,166,,,,,,,,,,,,,,,,bars/008.png,bars/mask000.png,,,,,,,,,,,,4,2,,,,,,,2,8,3,7,,,,,,,,,,,1133.7295,1134.252,1134.4251,1136.8275,space,2.2171,,1136.8276,56,14,1137.8519,1137.852,1139.3919,space,1.3232,,0,27,27,27,1,110,0,,,,,,,,
,,61066ca9d595665c412acb71,65af54814aa07d90bbee3cb3,2024-01-23_09h02.13.358,bars,2023.2.3,Win32,6.00024001,657b66ea316d21385b68909f,,,,,,,,,,,1139.3923,1140.4148,,,1140.7954,1140.9922,,140,140,,,,,,,,,,,,,,,,bars/034.png,bars/mask002.png,,,,,,,,,,,,0,1,,,,,,,0,10,0,10,,,,,,,,,,,1140.4149,1140.7953,1140.9924,1141.8767,space,0.6951,,1141.8768,15,75,1142.7871,1142.7871,1143.3462,space,0.386,,0,28,28,28,1,125,65,,,,,,,,
,,61066ca9d595665c412acb71,65af54814aa07d90bbee3cb3,2024-01-23_09h02.13.358,bars,2023.2.3,Win32,6.00024001,657b66ea316d21385b68909f,,,,,,,,,,,1143.3469,1144.2361,,,1144.7886,1144.9828,,61,61,,,,,,,,,,,,,,,,bars/036.png,bars/mask009.png,,,,,,,,,,,,0,2,,,,,,,0,8,1,9,,,,,,,,,,,1144.2362,1144.7886,1144.9828,1145.1778,space,0.009,,1145.1779,84,41,1146.2203,1146.2203,1146.8041,space,0.3924,,0,29,29,29,1,145,20,,,,,,,,
,,61066ca9d595665c412acb71,65af54814aa07d90bbee3cb3,2024-01-23_09h02.13.358,bars,2023.2.3,Win32,6.00024001,657b66ea316d21385b68909f,,,,,,,,,,,1146.8046,1147.8373,,,1148.2395,1148.4123,,4,4,,,,,,,,,,,,,,,,bars/017.png,bars/mask001.png,,,,,,,,,,,,0,1,,,,,,,0,6,0,5,,,,,,,,,,,1147.8373,1148.2394,1148.4124,1149.3222,space,0.7385,,1149.3223,39,41,1150.3513,1150.3514,1150.9359,space,0.3877,,0,30,30,30,1,145,45,,,,,,,,
,,61066ca9d595665c412acb71,65af54814aa07d90bbee3cb3,2024-01-23_09h02.13.358,bars,2023.2.3,Win32,6.00024001,657b66ea316d21385b68909f,,,,,,,,,,,1150.9365,1151.8195,,,1152.3689,1152.5685,,28,28,,,,,,,,,,,,,,,,bars/049.png,bars/mask006.png,,,,,,,,,,,,0,1,,,,,,,2,8,3,9,,,,,,,,,,,1151.8196,1152.3689,1152.5686,1155.0813,space,2.3411,,1155.0813,48,87,1155.9839,1155.984,1157.6958,space,1.5397,,0,31,31,31,1,160,115,,,,,,,,
,,61066ca9d595665c412acb71,65af54814aa07d90bbee3cb3,2024-01-23_09h02.13.358,bars,2023.2.3,Win32,6.00024001,657b66ea316d21385b68909f,,,,,,,,,,,1157.6963,1158.6497,,,1159.1636,1159.3361,,175,-5,,,,,,,,,,,,,,,,bars/045.png,bars/mask009.png,,,,,,,,,,,,5,2,,,,,,,0,10,0,9,,,,,,,,,,,1158.6497,1159.1634,1159.3363,1162.2522,space,2.7517,,1162.2522,75,15,1163.1622,1163.1623,1163.8911,space,0.5574,,0,32,32,32,1,100,10,,,,,,,,
,,61066ca9d595665c412acb71,65af54814aa07d90bbee3cb3,2024-01-23_09h02.13.358,bars,2023.2.3,Win32,6.00024001,657b66ea316d21385b68909f,,,,,,,,,,,1163.8916,1164.791,,,1165.3088,1165.5118,,56,56,,,,,,,,,,,,,,,,bars/014.png,bars/mask007.png,,,,,,,,,,,,1,1,,,,,,,2,10,3,10,,,,,,,,,,,1164.791,1165.3087,1165.5119,1165.7116,space,0.01,0.0003,1165.7117,24,56,1166.7452,1166.7452,1167.3503,space,0.3981,,0,33,33,33,1,80,0,,,,,,,,
,,61066ca9d595665c412acb71,65af54814aa07d90bbee3cb3,2024-01-23_09h02.13.358,bars,2023.2.3,Win32,6.00024001,657b66ea316d21385b68909f,,,,,,,,,,,1167.3507,1168.3773,,,1168.7702,1168.9711,,130,130,,,,,,,,,,,,,,,,bars/047.png,bars/mask009.png,,,,,,,,,,,,0,2,,,,,,,0,10,0,10,,,,,,,,,,,1168.3773,1168.7702,1168.9712,1175.6528,space,6.5175,,1175.6528,65,60,1176.5528,1176.5529,1176.9354,space,0.1875,,0,34,34,34,1,15,70,,,,,,,,
,,61066ca9d595665c412acb71,65af54814aa07d90bbee3cb3,2024-01-23_09h02.13.358,bars,2023.2.3,Win32,6.00024001,657b66ea316d21385b68909f,,,,,,,,,,,1176.9358,1177.8273,,,1178.3548,1178.5255,,177,177,,,,,,,,,,,,,,,,bars/000.png,bars/mask004.png,,,,,,,,,,,,0,2,,,,,,,2,10,2,10,,,,,,,,,,,1177.8274,1178.3547,1178.5255,1178.8717,space,0.1803,,1178.8718,43,32,1179.775,1179.7751,1180.1346,space,0.1865,,0,35,35,35,1,40,145,,,,,,,,
,,61066ca9d595665c412acb71,65af54814aa07d90bbee3cb3,2024-01-23_09h02.13.358,bars,2023.2.3,Win32,6.00024001,657b66ea316d21385b68909f,,,,,,,,,,,1180.135,1181.0504,,,1181.4271,1181.598,,156,156,,,,,,,,,,,,,,,,bars/022.png,bars/mask008.png,,,,,,,,,,,,0,2,,,,,,,0,10,0,10,,,,,,,,,,,1181.0505,1181.4271,1181.598,1181.7708,space,0.0077,0.0002,1181.7709,61,44,1182.6687,1182.6688,1182.8631,space,0.0082,0.0002,0,36,36,36,1,95,20,,,,,,,,
,,61066ca9d595665c412acb71,65af54814aa07d90bbee3cb3,2024-01-23_09h02.13.358,bars,2023.2.3,Win32,6.00024001,657b66ea316d21385b68909f,,,,,,,,,,,1182.8636,1183.8939,,,1184.2675,1184.4503,,178,178,,,,,,,,,,,,,,,,bars/036.png,bars/mask001.png,,,,,,,,,,,,3,2,,,,,,,0,10,1,10,,,,,,,,,,,1183.8939,1184.2675,1184.4503,1184.6213,space,0.0074,,1184.6214,33,22,1185.5262,1185.5264,1185.7137,space,0.0083,0.0002,0,37,37,37,1,145,20,,,,,,,,
,,61066ca9d595665c412acb71,65af54814aa07d90bbee3cb3,2024-01-23_09h02.13.358,bars,2023.2.3,Win32,6.00024001,657b66ea316d21385b68909f,,,,,,,,,,,1185.7141,1186.5946,,,1186.9623,1187.1542,,150,150,,,,,,,,,,,,,,,,bars/003.png,bars/mask000.png,,,,,,,,,,,,6,2,,,,,,,2,8,1,9,,,,,,,,,,,1186.5946,1186.9623,1187.1542,1187.354,space,0.0076,0.0001,1187.3541,55,10,1188.2321,1188.2322,1188.4196,space,0.0093,,0,38,38,38,1,25,140,,,,,,,,
,,61066ca9d595665c412acb71,65af54814aa07d90bbee3cb3,2024-01-23_09h02.13.358,bars,2023.2.3,Win32,6.00024001,657b66ea316d21385b68909f,,,,,,,,,,,1188.4201,1189.4558,,,1189.8196,1190.0273,,160,160,,,,,,,,,,,,,,,,bars/030.png,bars/mask006.png,,,,,,,,,,,,1,1,,,,,,,4,10,4,10,,,,,,,,,,,1189.4559,1189.8195,1190.0274,1190.2056,space,0.0081,,1190.2057,20,85,1191.2355,1191.2357,1191.4316,space,0.0092,0.0004,0,39,39,39,1,140,65,,,,,,,,
,,61066ca9d595665c412acb71,65af54814aa07d90bbee3cb3,2024-01-23_09h02.13.358,bars,2023.2.3,Win32,6.00024001,657b66ea316d21385b68909f,,,,,,,,,,,1191.4321,1192.4705,,,1192.8385,1193.0373,,111,111,,,,,,,,,,,,,,,,bars/042.png,bars/mask008.png,,,,,,,,,,,,0,1,,,,,,,6,10,6,10,,,,,,,,,,,1192.4706,1192.8384,1193.0374,1193.2365,space,0.0088,,1193.2366,34,36,1194.1503,1194.1504,1194.3441,space,0.0082,0.0002,0,40,40,40,1,145,75,,,,,,,,
,,61066ca9d595665c412acb71,65af54814aa07d90bbee3cb3,2024-01-23_09h02.13.358,bars,2023.2.3,Win32,6.00024001,657b66ea316d21385b68909f,,,,,,,,,,,1194.3446,1195.2236,,,1195.7706,1195.951,,47,47,,,,,,,,,,,,,,,,bars/019.png,bars/mask004.png,,,,,,,,,,,,8,1,,,,,,,8,10,9,10,,,,,,,,,,,1195.2237,1195.7705,1195.951,1196.141,space,0.0083,,1196.1412,2,58,1197.1889,1197.189,1197.3748,space,0.0076,,0,41,41,41,1,45,105,,,,,,,,
,,61066ca9d595665c412acb71,65af54814aa07d90bbee3cb3,2024-01-23_09h02.13.358,bars,2023.2.3,Win32,6.00024001,657b66ea316d21385b68909f,,,,,,,,,,,1197.3752,1198.2585,,,1198.6418,1198.8221,,122,122,,,,,,,,,,,,,,,,bars/031.png,bars/mask008.png,,,,,,,,,,,,4,1,,,,,,,6,10,4,10,,,,,,,,,,,1198.2586,1198.6417,1198.8222,1199.0082,space,0.0092,0.0003,1199.0082,2,87,1199.8927,1199.8927,1200.2708,space,0.1988,0.0002,0,42,42,42,1,120,35,,,,,,,,
,,61066ca9d595665c412acb71,65af54814aa07d90bbee3cb3,2024-01-23_09h02.13.358,bars,2023.2.3,Win32,6.00024001,657b66ea316d21385b68909f,,,,,,,,,,,1200.2714,1201.1496,,,1201.7117,1201.906,,35,35,,,,,,,,,,,,,,,,bars/028.png,bars/mask004.png,,,,,,,,,,,,4,1,,,,,,,8,8,6,8,,,,,,,,,,,1201.1497,1201.7117,1201.9061,1202.0878,space,0.0106,,1202.0879,10,85,1202.9679,1202.968,1203.1472,space,0.0077,,0,43,43,43,1,45,120,,,,,,,,
,,61066ca9d595665c412acb71,65af54814aa07d90bbee3cb3,2024-01-23_09h02.13.358,bars,2023.2.3,Win32,6.00024001,657b66ea316d21385b68909f,,,,,,,,,,,1203.1477,1204.048,,,1204.4179,1204.5919,,122,122,,,,,,,,,,,,,,,,bars/044.png,bars/mask006.png,,,,,,,,,,,,0,2,,,,,,,6,10,5,9,,,,,,,,,,,1204.0481,1204.4178,1204.592,1204.9729,space,0.1875,0.0002,1204.9731,47,33,1205.8561,1205.8562,1206.0375,space,0.0082,0.0004,0,44,44,44,1,75,155,,,,,,,,
,,61066ca9d595665c412acb71,65af54814aa07d90bbee3cb3,2024-01-23_09h02.13.358,bars,2023.2.3,Win32,6.00024001,657b66ea316d21385b68909f,,,,,,,,,,,1206.0379,1206.9356,,,1207.4671,1207.6512,,68,68,,,,,,,,,,,,,,,,bars/014.png,bars/mask007.png,,,,,,,,,,,,2,1,,,,,,,4,8,3,8,,,,,,,,,,,1206.9358,1207.467,1207.6512,1207.8447,space,0.0077,0.0003,1207.8447,12,68,1208.743,1208.7431,1208.9269,space,0.0087,0.0003,0,45,45,45,1,80,0,,,,,,,,
,,61066ca9d595665c412acb71,65af54814aa07d90bbee3cb3,2024-01-23_09h02.13.358,bars,2023.2.3,Win32,6.00024001,657b66ea316d21385b68909f,,,,,,,,,,,1208.9275,1209.8442,,,1210.3728,1210.5688,,9,9,,,,,,,,,,,,,,,,bars/048.png,bars/mask005.png,,,,,,,,,,,,4,2,,,,,,,2,6,3,7,,,,,,,,,,,1209.8443,1210.3728,1210.5688,1210.7454,space,0.0102,0.0003,1210.7454,41,14,1211.6348,1211.6348,1212.0421,space,0.2009,0.0001,0,46,46,46,1,50,175,,,,,,,,
,,61066ca9d595665c412acb71,65af54814aa07d90bbee3cb3,2024-01-23_09h02.13.358,bars,2023.2.3,Win32,6.00024001,657b66ea316d21385b68909f,,,,,,,,,,,1212.0426,1212.9279,,,1213.3086,1213.5011,,150,150,,,,,,,,,,,,,,,,bars/039.png,bars/mask003.png,,,,,,,,,,,,1,1,,,,,,,4,4,4,4,,,,,,,,,,,1212.9281,1213.3086,1213.5012,1213.8728,space,0.1804,0.0002,1213.8729,25,45,1214.7539,1214.7539,1215.1479,space,0.1969,0.0003,0,47,47,47,1,175,105,,,,,,,,
,,61066ca9d595665c412acb71,65af54814aa07d90bbee3cb3,2024-01-23_09h02.13.358,bars,2023.2.3,Win32,6.00024001,657b66ea316d21385b68909f,,,,,,,,,,,1215.1483,1216.0352,,,1216.595,1216.7656,,144,144,,,,,,,,,,,,,,,,bars/023.png,bars/mask005.png,,,,,,,,,,,,0,2,,,,,,,2,2,3,3,,,,,,,,,,,1216.0353,1216.5949,1216.7657,1216.9378,space,0.0078,,1216.9378,56,29,1217.8531,1217.8533,1218.0463,space,0.0087,,0,48,48,48,1,20,115,,,,,,,,
,,61066ca9d595665c412acb71,65af54814aa07d90bbee3cb3,2024-01-23_09h02.13.358,bars,2023.2.3,Win32,6.00024001,657b66ea316d21385b68909f,,,,,,,,,,,1218.0468,1218.926,,,1219.3101,1219.4822,,119,119,,,,,,,,,,,,,,,,bars/012.png,bars/mask003.png,,,,,,,,,,,,0,1,,,,,,,4,0,3,0,,,,,,,,,,,1218.9261,1219.3099,1219.4823,1219.6745,space,0.009,,1219.6746,29,76,1220.5704,1220.5704,1220.7528,space,0.0091,,0,49,49,49,1,90,15,,,,,,,,
,,61066ca9d595665c412acb71,65af54814aa07d90bbee3cb3,2024-01-23_09h02.13.358,bars,2023.2.3,Win32,6.00024001,657b66ea316d21385b68909f,,,,,,,,,,,,,,,,,,,,,,,,,,,,,,,,,,,,,,,,,,,,,,,,,,,,,,,,,,,,,,,,,,,,,,,,,,,,,,,,,,,,,,,,,,,,,1220.7536,1280.7059,0,0,0,1,1,sequence_tables/blk007.csv
,,61066ca9d595665c412acb71,65af54814aa07d90bbee3cb3,2024-01-23_09h02.13.358,bars,2023.2.3,Win32,6.00024001,657b66ea316d21385b68909f,,,,,,,,,,,1289.2916,1290.1886,,,1290.5601,1290.7316,,52,52,,,,,,,,,,,,,,,,bars/021.png,bars/mask007.png,,,,,,,,,,,,2,2,,,,,,,2,4,2,5,,,,,,1280.7204,1289.2725,space,8.3638,,1290.1888,1290.5601,1290.7317,1291.2339,space,0.343,,1291.234,77,18,1292.1448,1292.1448,1292.147,,,,0,0,0,0,1,155,70,,,,,,,,
,,61066ca9d595665c412acb71,65af54814aa07d90bbee3cb3,2024-01-23_09h02.13.358,bars,2023.2.3,Win32,6.00024001,657b66ea316d21385b68909f,,,,,,,,,,,1292.1474,1293.0203,,,1293.405,1293.5763,,58,58,,,,,,,,,,,,,,,,bars/024.png,bars/mask006.png,,,,,,,,,,,,0,1,,,,,,,4,6,4,7,,,,,,,,,,,1293.0204,1293.405,1293.5763,1293.7427,space,0.0076,0.0003,1293.7428,62,68,1294.6551,1294.6551,1294.6569,,,,0,1,1,1,1,120,170,,,,,,,,
,,61066ca9d595665c412acb71,65af54814aa07d90bbee3cb3,2024-01-23_09h02.13.358,bars,2023.2.3,Win32,6.00024001,657b66ea316d21385b68909f,,,,,,,,,,,1294.6572,1295.7065,,,1296.0871,1296.2579,,67,67,,,,,,,,,,,,,,,,bars/003.png,bars/mask000.png,,,,,,,,,,,,0,1,,,,,,,6,8,5,8,,,,,,,,,,,1295.7066,1296.087,1296.258,1296.5904,space,0.1743,0.0002,1296.5904,42,73,1297.5012,1297.5013,1297.5023,,,,0,2,2,2,1,25,140,,,,,,,,
,,61066ca9d595665c412acb71,65af54814aa07d90bbee3cb3,2024-01-23_09h02.13.358,bars,2023.2.3,Win32,6.00024001,657b66ea316d21385b68909f,,,,,,,,,,,1297.5026,1298.5665,,,1298.9327,1299.1046,,165,165,,,,,,,,,,,,,,,,bars/032.png,bars/mask003.png,,,,,,,,,,,,0,2,,,,,,,4,6,2,7,,,,,,,,,,,1298.5665,1298.9327,1299.1046,1299.4383,space,0.1748,1E-04,1299.4383,40,35,1300.3483,1300.3485,1300.3502,,,,0,3,3,3,1,125,20,,,,,,,,
,,61066ca9d595665c412acb71,65af54814aa07d90bbee3cb3,2024-01-23_09h02.13.358,bars,2023.2.3,Win32,6.00024001,657b66ea316d21385b68909f,,,,,,,,,,,1300.3504,1301.3895,,,1301.7533,1301.95,,92,92,,,,,,,,,,,,,,,,bars/031.png,bars/mask008.png,,,,,,,,,,,,0,1,,,,,,,6,4,6,4,,,,,,,,,,,1301.3896,1301.7533,1301.9501,1307.0016,space,4.8844,0.0003,1307.0017,28,57,1308.0309,1308.031,1308.0335,,,,0,4,4,4,1,120,35,,,,,,,,
,,61066ca9d595665c412acb71,65af54814aa07d90bbee3cb3,2024-01-23_09h02.13.358,bars,2023.2.3,Win32,6.00024001,657b66ea316d21385b68909f,,,,,,,,,,,1308.0339,1308.9173,,,1309.4646,1309.6523,,134,134,,,,,,,,,,,,,,,,bars/009.png,bars/mask003.png,,,,,,,,,,,,0,2,,,,,,,8,2,9,3,,,,,,,,,,,1308.9174,1309.4645,1309.6523,1309.845,space,0.0093,,1309.845,61,29,1310.8635,1310.8636,1310.8661,,,,0,5,5,5,1,15,105,,,,,,,,
,,61066ca9d595665c412acb71,65af54814aa07d90bbee3cb3,2024-01-23_09h02.13.358,bars,2023.2.3,Win32,6.00024001,657b66ea316d21385b68909f,,,,,,,,,,,1310.8665,1311.7756,,,1312.3077,1312.512,,64,64,,,,,,,,,,,,,,,,bars/049.png,bars/mask006.png,,,,,,,,,,,,0,2,,,,,,,6,0,7,0,,,,,,,,,,,1311.7757,1312.3077,1312.5121,1313.7233,space,1.0423,,1313.7233,84,51,1314.6163,1314.6164,1314.6173,,,,0,6,6,6,1,160,115,,,,,,,,
,,61066ca9d595665c412acb71,65af54814aa07d90bbee3cb3,2024-01-23_09h02.13.358,bars,2023.2.3,Win32,6.00024001,657b66ea316d21385b68909f,,,,,,,,,,,1314.6175,1315.4964,,,1315.8741,1316.0569,,138,138,,,,,,,,,,,,,,,,bars/047.png,bars/mask005.png,,,,,,,,,,,,0,1,,,,,,,4,2,4,2,,,,,,,,,,,1315.4965,1315.874,1316.0569,1329.9826,space,13.7571,,1329.9827,57,68,1330.8931,1330.8931,1330.9089,,,,0,7,7,7,1,15,70,,,,,,,,
,,61066ca9d595665c412acb71,65af54814aa07d90bbee3cb3,2024-01-23_09h02.13.358,bars,2023.2.3,Win32,6.00024001,657b66ea316d21385b68909f,,,,,,,,,,,1330.9092,1331.7967,,,1332.1674,1332.338,,81,81,,,,,,,,,,,,,,,,bars/016.png,bars/mask003.png,,,,,,,,,,,,0,1,,,,,,,2,4,2,5,,,,,,,,,,,1331.7968,1332.1674,1332.338,1344.1202,space,11.6234,0.0004,1344.1203,41,84,1344.9968,1344.9969,1345.0129,,,,0,8,8,8,1,40,165,,,,,,,,
,,61066ca9d595665c412acb71,65af54814aa07d90bbee3cb3,2024-01-23_09h02.13.358,bars,2023.2.3,Win32,6.00024001,657b66ea316d21385b68909f,,,,,,,,,,,1345.0131,1346.0334,,,1346.4109,1346.6009,,143,143,,,,,,,,,,,,,,,,bars/019.png,bars/mask005.png,,,,,,,,,,,,0,2,,,,,,,4,2,5,2,,,,,,,,,,,1346.0335,1346.4108,1346.601,1352.7437,space,5.9589,,1352.7437,82,38,1353.7605,1353.7605,1353.7764,,,,0,9,9,9,1,45,105,,,,,,,,
,,61066ca9d595665c412acb71,65af54814aa07d90bbee3cb3,2024-01-23_09h02.13.358,bars,2023.2.3,Win32,6.00024001,657b66ea316d21385b68909f,,,,,,,,,,,1353.7765,1354.6913,,,1355.0832,1355.2991,,147,147,,,,,,,,,,,,,,,,bars/025.png,bars/mask001.png,,,,,,,,,,,,0,1,,,,,,,6,4,9,4,,,,,,,,,,,1354.6913,1355.0831,1355.2991,1358.8631,space,3.3257,0.0003,1358.8632,42,73,1359.7418,1359.7419,1359.7604,,,,0,10,10,10,1,105,40,,,,,,,,
,,61066ca9d595665c412acb71,65af54814aa07d90bbee3cb3,2024-01-23_09h02.13.358,bars,2023.2.3,Win32,6.00024001,657b66ea316d21385b68909f,,,,,,,,,,,1359.7607,1360.7962,,,1361.1601,1361.3555,,153,153,,,,,,,,,,,,,,,,bars/014.png,bars/mask004.png,,,,,,,,,,,,0,2,,,,,,,8,2,8,0,,,,,,,,,,,1360.7962,1361.1601,1361.3556,1361.726,space,0.1993,0.0001,1361.726,73,27,1362.7719,1362.772,1362.7744,,,,0,11,11,11,1,80,0,,,,,,,,
,,61066ca9d595665c412acb71,65af54814aa07d90bbee3cb3,2024-01-23_09h02.13.358,bars,2023.2.3,Win32,6.00024001,657b66ea316d21385b68909f,,,,,,,,,,,1362.7748,1363.8127,,,1364.1993,1364.388,,78,78,,,,,,,,,,,,,,,,bars/031.png,bars/mask003.png,,,,,,,,,,,,0,1,,,,,,,10,4,10,4,,,,,,,,,,,1363.8128,1364.1991,1364.388,1364.5713,space,0.0083,0.0004,1364.5714,42,43,1365.6166,1365.6167,1365.6188,,,,0,12,12,12,1,120,35,,,,,,,,
,,61066ca9d595665c412acb71,65af54814aa07d90bbee3cb3,2024-01-23_09h02.13.358,bars,2023.2.3,Win32,6.00024001,657b66ea316d21385b68909f,,,,,,,,,,,1365.6191,1366.4944,,,1367.0528,1367.2532,,34,34,,,,,,,,,,,,,,,,bars/001.png,bars/mask002.png,,,,,,,,,,,,0,2,,,,,,,8,2,8,1,,,,,,,,,,,1366.4944,1367.0527,1367.2533,1367.4463,space,0.0077,,1367.4464,84,51,1368.3242,1368.3242,1368.327,,,,0,13,13,13,1,130,85,,,,,,,,
,,61066ca9d595665c412acb71,65af54814aa07d90bbee3cb3,2024-01-23_09h02.13.358,bars,2023.2.3,Win32,6.00024001,657b66ea316d21385b68909f,,,,,,,,,,,1368.3274,1369.2095,,,1369.5889,1369.7616,,137,137,,,,,,,,,,,,,,,,bars/030.png,bars/mask003.png,,,,,,,,,,,,9,1,,,,,,,10,4,10,4,,,,,,,,,,,1369.2095,1369.5888,1369.7617,1369.9598,space,0.0084,0.0004,1369.9598,3,72,1370.9835,1370.9836,1370.986,,,,0,14,14,14,1,140,65,,,,,,,,
,,61066ca9d595665c412acb71,65af54814aa07d90bbee3cb3,2024-01-23_09h02.13.358,bars,2023.2.3,Win32,6.00024001,657b66ea316d21385b68909f,,,,,,,,,,,1370.9863,1371.8845,,,1372.4228,1372.6192,,15,15,,,,,,,,,,,,,,,,bars/028.png,bars/mask007.png,,,,,,,,,,,,0,1,,,,,,,8,6,6,5,,,,,,,,,,,1371.8846,1372.4227,1372.6192,1372.8074,space,0.0082,0.0004,1372.8075,30,75,1373.8496,1373.8497,1373.8509,,,,0,15,15,15,1,45,120,,,,,,,,
,,61066ca9d595665c412acb71,65af54814aa07d90bbee3cb3,2024-01-23_09h02.13.358,bars,2023.2.3,Win32,6.00024001,657b66ea316d21385b68909f,,,,,,,,,,,1373.8513,1374.7731,,,1375.3313,1375.517,,119,119,,,,,,,,,,,,,,,,bars/022.png,bars/mask009.png,,,,,,,,,,,,1,1,,,,,,,6,8,6,6,,,,,,,,,,,1374.7732,1375.3312,1375.517,1375.7026,space,0.0086,0.0002,1375.7027,24,81,1376.6128,1376.6129,1376.6137,,,,0,16,16,16,1,95,20,,,,,,,,
,,61066ca9d595665c412acb71,65af54814aa07d90bbee3cb3,2024-01-23_09h02.13.358,bars,2023.2.3,Win32,6.00024001,657b66ea316d21385b68909f,,,,,,,,,,,1376.6139,1377.5023,,,1377.8827,1378.0608,,49,49,,,,,,,,,,,,,,,,bars/016.png,bars/mask002.png,,,,,,,,,,,,3,1,,,,,,,4,6,4,6,,,,,,,,,,,1377.5023,1377.8826,1378.0609,1378.2298,space,0.0081,,1378.2299,9,64,1379.1091,1379.1093,1379.1102,,,,0,17,17,17,1,40,165,,,,,,,,
,,61066ca9d595665c412acb71,65af54814aa07d90bbee3cb3,2024-01-23_09h02.13.358,bars,2023.2.3,Win32,6.00024001,657b66ea316d21385b68909f,,,,,,,,,,,1379.1105,1380.0238,,,1380.5379,1380.7105,,156,156,,,,,,,,,,,,,,,,bars/002.png,bars/mask000.png,,,,,,,,,,,,0,1,,,,,,,2,4,2,5,,,,,,,,,,,1380.0239,1380.5379,1380.7105,1380.899,space,0.0083,0.0002,1380.8991,26,71,1381.8103,1381.8103,1381.8111,,,,0,18,18,18,1,130,85,,,,,,,,
,,61066ca9d595665c412acb71,65af54814aa07d90bbee3cb3,2024-01-23_09h02.13.358,bars,2023.2.3,Win32,6.00024001,657b66ea316d21385b68909f,,,,,,,,,,,1381.8113,1382.6767,,,1383.0555,1383.226,,44,44,,,,,,,,,,,,,,,,bars/018.png,bars/mask005.png,,,,,,,,,,,,0,2,,,,,,,0,2,0,3,,,,,,,,,,,1382.6767,1383.0554,1383.2261,1383.5553,space,0.1738,,1383.5553,74,46,1384.4458,1384.4459,1384.4483,,,,0,19,19,19,1,150,90,,,,,,,,
,,61066ca9d595665c412acb71,65af54814aa07d90bbee3cb3,2024-01-23_09h02.13.358,bars,2023.2.3,Win32,6.00024001,657b66ea316d21385b68909f,,,,,,,,,,,1384.4488,1385.5087,,,1385.9038,1386.0867,,19,19,,,,,,,,,,,,,,,,bars/016.png,bars/mask008.png,,,,,,,,,,,,0,1,,,,,,,2,0,0,1,,,,,,,,,,,1385.5088,1385.9037,1386.0868,1415.7136,space,29.4674,0.0002,1415.7137,21,34,1416.745,1416.7451,1416.7605,,,,0,20,20,20,1,40,165,,,,,,,,
,,61066ca9d595665c412acb71,65af54814aa07d90bbee3cb3,2024-01-23_09h02.13.358,bars,2023.2.3,Win32,6.00024001,657b66ea316d21385b68909f,,,,,,,,,,,1416.7608,1417.676,,,1418.1866,1418.3779,,167,167,,,,,,,,,,,,,,,,bars/027.png,bars/mask006.png,,,,,,,,,,,,0,1,,,,,,,4,2,7,2,,,,,,,,,,,1417.676,1418.1866,1418.3779,1418.578,space,0.0081,,1418.5781,57,63,1419.6005,1419.6005,1419.6015,,,,0,21,21,21,1,110,50,,,,,,,,
,,61066ca9d595665c412acb71,65af54814aa07d90bbee3cb3,2024-01-23_09h02.13.358,bars,2023.2.3,Win32,6.00024001,657b66ea316d21385b68909f,,,,,,,,,,,1419.6017,1420.5126,,,1421.0256,1421.238,,65,65,,,,,,,,,,,,,,,,bars/046.png,bars/mask008.png,,,,,,,,,,,,0,2,,,,,,,2,0,1,0,,,,,,,,,,,1420.5127,1421.0255,1421.2381,1431.1678,space,9.7533,0.0003,1431.1679,90,20,1432.0474,1432.0475,1432.0636,,,,0,22,22,22,1,155,85,,,,,,,,
,,61066ca9d595665c412acb71,65af54814aa07d90bbee3cb3,2024-01-23_09h02.13.358,bars,2023.2.3,Win32,6.00024001,657b66ea316d21385b68909f,,,,,,,,,,,1432.0638,1433.0804,,,1433.466,1433.6713,,172,172,,,,,,,,,,,,,,,,bars/036.png,bars/mask006.png,,,,,,,,,,,,0,1,,,,,,,0,0,0,3,,,,,,,,,,,1433.0804,1433.466,1433.6713,1434.0366,space,0.195,,1434.0366,27,28,1434.9084,1434.9084,1434.9104,,,,0,23,23,23,1,145,20,,,,,,,,
,,61066ca9d595665c412acb71,65af54814aa07d90bbee3cb3,2024-01-23_09h02.13.358,bars,2023.2.3,Win32,6.00024001,657b66ea316d21385b68909f,,,,,,,,,,,1434.9106,1435.946,,,1436.3222,1436.4949,,83,83,,,,,,,,,,,,,,,,bars/014.png,bars/mask008.png,,,,,,,,,,,,2,1,,,,,,,2,2,2,2,,,,,,,,,,,1435.946,1436.3222,1436.4949,1437.9081,space,1.2537,,1437.9081,3,83,1438.792,1438.792,1438.7929,,,,0,24,24,24,1,80,0,,,,,,,,
,,61066ca9d595665c412acb71,65af54814aa07d90bbee3cb3,2024-01-23_09h02.13.358,bars,2023.2.3,Win32,6.00024001,657b66ea316d21385b68909f,,,,,,,,,,,1438.7932,1439.8472,,,1440.209,1440.4024,,124,124,,,,,,,,,,,,,,,,bars/013.png,bars/mask001.png,,,,,,,,,,,,0,1,,,,,,,4,0,2,0,,,,,,,,,,,1439.8473,1440.209,1440.4024,1440.593,space,0.0076,,1440.593,49,66,1441.4923,1441.4924,1441.4933,,,,0,25,25,25,1,75,10,,,,,,,,
,,61066ca9d595665c412acb71,65af54814aa07d90bbee3cb3,2024-01-23_09h02.13.358,bars,2023.2.3,Win32,6.00024001,657b66ea316d21385b68909f,,,,,,,,,,,1441.4935,1442.3959,,,1442.768,1442.9391,,45,45,,,,,,,,,,,,,,,,bars/029.png,bars/mask008.png,,,,,,,,,,,,2,2,,,,,,,2,2,2,2,,,,,,,,,,,1442.3959,1442.768,1442.9391,1443.1265,space,0.0087,,1443.1265,45,0,1444.0575,1444.0576,1444.0595,,,,0,26,26,26,1,90,45,,,,,,,,
,,61066ca9d595665c412acb71,65af54814aa07d90bbee3cb3,2024-01-23_09h02.13.358,bars,2023.2.3,Win32,6.00024001,657b66ea316d21385b68909f,,,,,,,,,,,1444.0597,1444.956,,,1445.3275,1445.4984,,1,1,,,,,,,,,,,,,,,,bars/025.png,bars/mask003.png,,,,,,,,,,,,0,2,,,,,,,0,4,0,6,,,,,,,,,,,1444.9561,1445.3275,1445.4985,1445.6662,space,0.0087,0.0003,1445.6662,76,39,1446.568,1446.5681,1446.5692,,,,0,27,27,27,1,105,40,,,,,,,,
,,61066ca9d595665c412acb71,65af54814aa07d90bbee3cb3,2024-01-23_09h02.13.358,bars,2023.2.3,Win32,6.00024001,657b66ea316d21385b68909f,,,,,,,,,,,1446.5695,1447.6157,,,1447.9894,1448.1781,,69,69,,,,,,,,,,,,,,,,bars/009.png,bars/mask006.png,,,,,,,,,,,,0,2,,,,,,,2,2,1,3,,,,,,,,,,,1447.6157,1447.9893,1448.1782,1448.3412,space,0.0077,0.0001,1448.3413,54,36,1449.2253,1449.2254,1449.2266,,,,0,28,28,28,1,15,105,,,,,,,,
,,61066ca9d595665c412acb71,65af54814aa07d90bbee3cb3,2024-01-23_09h02.13.358,bars,2023.2.3,Win32,6.00024001,657b66ea316d21385b68909f,,,,,,,,,,,1449.227,1450.1268,,,1450.496,1450.6917,,96,96,,,,,,,,,,,,,,,,bars/007.png,bars/mask001.png,,,,,,,,,,,,0,2,,,,,,,0,0,0,1,,,,,,,,,,,1450.1269,1450.496,1450.6918,1450.8643,space,0.0086,0.0002,1450.8644,79,41,1451.7606,1451.7607,1451.7617,,,,0,29,29,29,1,175,55,,,,,,,,
,,61066ca9d595665c412acb71,65af54814aa07d90bbee3cb3,2024-01-23_09h02.13.358,bars,2023.2.3,Win32,6.00024001,657b66ea316d21385b68909f,,,,,,,,,,,1451.762,1452.6529,,,1453.0188,1453.1968,,161,161,,,,,,,,,,,,,,,,bars/033.png,bars/mask002.png,,,,,,,,,,,,1,2,,,,,,,2,2,3,1,,,,,,,,,,,1452.6529,1453.0188,1453.1968,1477.9686,space,24.6139,,1477.9686,44,6,1478.8753,1478.8754,1478.8935,,,,0,30,30,30,1,25,155,,,,,,,,
,,61066ca9d595665c412acb71,65af54814aa07d90bbee3cb3,2024-01-23_09h02.13.358,bars,2023.2.3,Win32,6.00024001,657b66ea316d21385b68909f,,,,,,,,,,,1478.8937,1479.7599,,,1480.1356,1480.319,,154,154,,,,,,,,,,,,,,,,bars/000.png,bars/mask004.png,,,,,,,,,,,,0,2,,,,,,,0,0,0,0,,,,,,,,,,,1479.7599,1480.1355,1480.319,1484.9041,space,4.4257,,1484.9043,66,9,1485.7885,1485.7885,1485.8078,,,,0,31,31,31,1,40,145,,,,,,,,
,,61066ca9d595665c412acb71,65af54814aa07d90bbee3cb3,2024-01-23_09h02.13.358,bars,2023.2.3,Win32,6.00024001,657b66ea316d21385b68909f,,,,,,,,,,,1485.808,1486.8617,,,1487.3909,1487.5876,,77,77,,,,,,,,,,,,,,,,bars/003.png,bars/mask008.png,,,,,,,,,,,,0,1,,,,,,,0,0,1,0,,,,,,,,,,,1486.8617,1487.3908,1487.5877,1490.2362,space,2.49,,1490.2363,52,63,1491.1117,1491.1117,1491.1139,,,,0,32,32,32,1,25,140,,,,,,,,
,,61066ca9d595665c412acb71,65af54814aa07d90bbee3cb3,2024-01-23_09h02.13.358,bars,2023.2.3,Win32,6.00024001,657b66ea316d21385b68909f,,,,,,,,,,,1491.1143,1492.0048,,,1492.5701,1492.7454,,16,16,,,,,,,,,,,,,,,,bars/012.png,bars/mask005.png,,,,,,,,,,,,2,2,,,,,,,2,0,1,2,,,,,,,,,,,1492.0048,1492.57,1492.7455,1496.2987,space,3.3942,,1496.2987,74,1,1497.1697,1497.1697,1497.1721,,,,0,33,33,33,1,90,15,,,,,,,,
,,61066ca9d595665c412acb71,65af54814aa07d90bbee3cb3,2024-01-23_09h02.13.358,bars,2023.2.3,Win32,6.00024001,657b66ea316d21385b68909f,,,,,,,,,,,1497.1725,1498.2277,,,1498.5913,1498.7771,,54,54,,,,,,,,,,,,,,,,bars/044.png,bars/mask007.png,,,,,,,,,,,,0,1,,,,,,,0,0,0,0,,,,,,,,,,,1498.2277,1498.5913,1498.7771,1498.9649,space,0.0081,0.0002,1498.9649,21,79,1499.8475,1499.8476,1499.8494,,,,0,34,34,34,1,75,155,,,,,,,,
,,61066ca9d595665c412acb71,65af54814aa07d90bbee3cb3,2024-01-23_09h02.13.358,bars,2023.2.3,Win32,6.00024001,657b66ea316d21385b68909f,,,,,,,,,,,1499.8497,1500.726,,,1501.0909,1501.2825,,46,46,,,,,,,,,,,,,,,,bars/002.png,bars/mask000.png,,,,,,,,,,,,0,2,,,,,,,2,2,2,2,,,,,,,,,,,1500.726,1501.0909,1501.2825,1506.4711,space,5.0137,,1506.4711,84,39,1507.3602,1507.3602,1507.3812,,,,0,35,35,35,1,130,85,,,,,,,,
,,61066ca9d595665c412acb71,65af54814aa07d90bbee3cb3,2024-01-23_09h02.13.358,bars,2023.2.3,Win32,6.00024001,657b66ea316d21385b68909f,,,,,,,,,,,1507.3815,1508.4188,,,1508.9729,1509.1557,,53,53,,,,,,,,,,,,,,,,bars/037.png,bars/mask006.png,,,,,,,,,,,,0,2,,,,,,,0,0,0,0,,,,,,,,,,,1508.4188,1508.9728,1509.1558,1513.8903,space,4.5668,,1513.8903,83,52,1514.9411,1514.9412,1514.96,,,,0,36,36,36,1,150,105,,,,,,,,
,,61066ca9d595665c412acb71,65af54814aa07d90bbee3cb3,2024-01-23_09h02.13.358,bars,2023.2.3,Win32,6.00024001,657b66ea316d21385b68909f,,,,,,,,,,,1514.9602,1515.9881,,,1516.3573,1516.5623,,120,120,,,,,,,,,,,,,,,,bars/032.png,bars/mask007.png,,,,,,,,,,,,0,1,,,,,,,0,0,0,0,,,,,,,,,,,1515.9881,1516.3572,1516.5623,1516.9036,space,0.1717,0.0003,1516.9036,5,80,1517.7692,1517.7693,1517.7717,,,,0,37,37,37,1,125,20,,,,,,,,
,,61066ca9d595665c412acb71,65af54814aa07d90bbee3cb3,2024-01-23_09h02.13.358,bars,2023.2.3,Win32,6.00024001,657b66ea316d21385b68909f,,,,,,,,,,,1517.7721,1518.6643,,,1519.1981,1519.392,,46,46,,,,,,,,,,,,,,,,bars/023.png,bars/mask007.png,,,,,,,,,,,,0,1,,,,,,,0,0,0,0,,,,,,,,,,,1518.6644,1519.198,1519.392,1519.5772,space,0.0097,,1519.5773,26,69,1520.6057,1520.6058,1520.607,,,,0,38,38,38,1,20,115,,,,,,,,
,,61066ca9d595665c412acb71,65af54814aa07d90bbee3cb3,2024-01-23_09h02.13.358,bars,2023.2.3,Win32,6.00024001,657b66ea316d21385b68909f,,,,,,,,,,,1520.6073,1521.5051,,,1522.0283,1522.2002,,160,160,,,,,,,,,,,,,,,,bars/008.png,bars/mask004.png,,,,,,,,,,,,1,2,,,,,,,0,2,0,3,,,,,,,,,,,1521.5051,1522.0282,1522.2002,1526.6048,space,4.2451,0.0003,1526.6049,50,20,1527.6455,1527.6456,1527.6653,,,,0,39,39,39,1,110,0,,,,,,,,
,,61066ca9d595665c412acb71,65af54814aa07d90bbee3cb3,2024-01-23_09h02.13.358,bars,2023.2.3,Win32,6.00024001,657b66ea316d21385b68909f,,,,,,,,,,,1527.6656,1528.6758,,,1529.2322,1529.429,,109,109,,,,,,,,,,,,,,,,bars/042.png,bars/mask009.png,,,,,,,,,,,,0,2,,,,,,,2,0,1,1,,,,,,,,,,,1528.6759,1529.232,1529.429,1529.602,space,0.0078,,1529.602,36,34,1530.6334,1530.6335,1530.6344,,,,0,40,40,40,1,145,75,,,,,,,,
,,61066ca9d595665c412acb71,65af54814aa07d90bbee3cb3,2024-01-23_09h02.13.358,bars,2023.2.3,Win32,6.00024001,657b66ea316d21385b68909f,,,,,,,,,,,1530.6347,1531.6699,,,1532.2287,1532.4197,,166,166,,,,,,,,,,,,,,,,bars/034.png,bars/mask007.png,,,,,,,,,,,,0,1,,,,,,,4,2,5,3,,,,,,,,,,,1531.67,1532.2287,1532.4198,1532.7599,space,0.1734,,1532.7599,41,79,1533.7831,1533.7831,1533.7859,,,,0,41,41,41,1,125,65,,,,,,,,
,,61066ca9d595665c412acb71,65af54814aa07d90bbee3cb3,2024-01-23_09h02.13.358,bars,2023.2.3,Win32,6.00024001,657b66ea316d21385b68909f,,,,,,,,,,,1533.7862,1534.8179,,,1535.1923,1535.4043,,126,126,,,,,,,,,,,,,,,,bars/040.png,bars/mask005.png,,,,,,,,,,,,1,1,,,,,,,2,4,2,5,,,,,,,,,,,1534.8179,1535.1922,1535.4044,1535.5962,space,0.0087,,1535.5964,14,59,1536.6277,1536.6277,1536.6289,,,,0,42,42,42,1,140,5,,,,,,,,
,,61066ca9d595665c412acb71,65af54814aa07d90bbee3cb3,2024-01-23_09h02.13.358,bars,2023.2.3,Win32,6.00024001,657b66ea316d21385b68909f,,,,,,,,,,,1536.6293,1537.5096,,,1537.8764,1538.0763,,141,141,,,,,,,,,,,,,,,,bars/014.png,bars/mask006.png,,,,,,,,,,,,0,2,,,,,,,4,2,3,2,,,,,,,,,,,1537.5096,1537.8764,1538.0764,1538.9364,space,0.694,,1538.9364,61,39,1539.8475,1539.8477,1539.8501,,,,0,43,43,43,1,80,0,,,,,,,,
,,61066ca9d595665c412acb71,65af54814aa07d90bbee3cb3,2024-01-23_09h02.13.358,bars,2023.2.3,Win32,6.00024001,657b66ea316d21385b68909f,,,,,,,,,,,1539.8505,1540.8891,,,1541.2603,1541.4465,,8,8,,,,,,,,,,,,,,,,bars/043.png,bars/mask007.png,,,,,,,,,,,,0,1,,,,,,,2,0,1,0,,,,,,,,,,,1540.8892,1541.2602,1541.4465,1542.317,space,0.7102,0.0003,1542.3172,22,58,1543.2162,1543.2162,1543.2183,,,,0,44,44,44,1,30,130,,,,,,,,
,,61066ca9d595665c412acb71,65af54814aa07d90bbee3cb3,2024-01-23_09h02.13.358,bars,2023.2.3,Win32,6.00024001,657b66ea316d21385b68909f,,,,,,,,,,,1543.2185,1544.1304,,,1544.6529,1544.8246,,105,105,,,,,,,,,,,,,,,,bars/020.png,bars/mask006.png,,,,,,,,,,,,0,1,,,,,,,0,2,0,2,,,,,,,,,,,1544.1304,1544.6528,1544.8246,1545.1796,space,0.1953,0.0006,1545.1797,10,65,1546.0576,1546.0577,1546.0585,,,,0,45,45,45,1,115,170,,,,,,,,
,,61066ca9d595665c412acb71,65af54814aa07d90bbee3cb3,2024-01-23_09h02.13.358,bars,2023.2.3,Win32,6.00024001,657b66ea316d21385b68909f,,,,,,,,,,,1546.0587,1546.9295,,,1547.3163,1547.4872,,55,55,,,,,,,,,,,,,,,,bars/011.png,bars/mask009.png,,,,,,,,,,,,0,2,,,,,,,2,0,2,0,,,,,,,,,,,1546.9295,1547.3163,1547.4873,1547.655,space,0.0078,0.0002,1547.655,75,30,1548.54,1548.5401,1548.5425,,,,0,46,46,46,1,160,85,,,,,,,,
,,61066ca9d595665c412acb71,65af54814aa07d90bbee3cb3,2024-01-23_09h02.13.358,bars,2023.2.3,Win32,6.00024001,657b66ea316d21385b68909f,,,,,,,,,,,1548.543,1549.6018,,,1549.9846,1550.167,,121,121,,,,,,,,,,,,,,,,bars/001.png,bars/mask008.png,,,,,,,,,,,,2,1,,,,,,,4,2,3,2,,,,,,,,,,,1549.6019,1549.9845,1550.167,1550.3337,space,0.0077,,1550.3337,9,36,1551.2119,1551.212,1551.2142,,,,0,47,47,47,1,130,85,,,,,,,,
,,61066ca9d595665c412acb71,65af54814aa07d90bbee3cb3,2024-01-23_09h02.13.358,bars,2023.2.3,Win32,6.00024001,657b66ea316d21385b68909f,,,,,,,,,,,1551.2146,1552.2677,,,1552.6389,1552.8217,,109,109,,,,,,,,,,,,,,,,bars/028.png,bars/mask004.png,,,,,,,,,,,,1,2,,,,,,,6,0,5,2,,,,,,,,,,,1552.2677,1552.6389,1552.8218,1552.9949,space,0.0081,0.0003,1552.995,64,11,1554.0591,1554.0591,1554.0614,,,,0,48,48,48,1,45,120,,,,,,,,
,,61066ca9d595665c412acb71,65af54814aa07d90bbee3cb3,2024-01-23_09h02.13.358,bars,2023.2.3,Win32,6.00024001,657b66ea316d21385b68909f,,,,,,,,,,,1554.0618,1554.9498,,,1555.4934,1555.6657,,167,167,,,,,,,,,,,,,,,,bars/043.png,bars/mask006.png,,,,,,,,,,,,0,2,,,,,,,4,0,4,1,,,,,,,,,,,1554.9498,1555.4933,1555.6658,1555.8348,space,0.0079,0.0004,1555.8349,43,37,1556.8958,1556.8959,1556.897,,,,0,49,49,49,1,30,130,,,,,,,,
,,61066ca9d595665c412acb71,65af54814aa07d90bbee3cb3,2024-01-23_09h02.13.358,bars,2023.2.3,Win32,6.00024001,657b66ea316d21385b68909f,,,,,,,,,,,,,,,,,,,,,,,,,,,,,,,,,,,,,,,,,,,,,,,,,,,,,,,,,,,,,,,,,,,,,,,,,,,,,,,,,,,,,,,,,,,,,1556.8972,1616.8611,0,1,1,3,1,sequence_tables/blk040.csv
,,61066ca9d595665c412acb71,65af54814aa07d90bbee3cb3,2024-01-23_09h02.13.358,bars,2023.2.3,Win32,6.00024001,657b66ea316d21385b68909f,,,,,,,,,,,1619.2091,1620.1123,,,1620.6249,1620.8187,,100,100,,,,,,,,,,,,,,,,bars/047.png,bars/mask008.png,,,,,,,,,,,,0,2,,,,,,,1,6,1,7,,,,,,1616.8789,1619.2022,space,2.1703,,1620.1124,1620.6248,1620.8187,1621.3378,space,0.3529,0.0004,1621.3379,85,30,1622.3748,1622.3748,1622.3759,,,,0,0,0,0,1,15,70,,,,,,,,
,,61066ca9d595665c412acb71,65af54814aa07d90bbee3cb3,2024-01-23_09h02.13.358,bars,2023.2.3,Win32,6.00024001,657b66ea316d21385b68909f,,,,,,,,,,,1622.3761,1623.2946,,,1623.827,1624.0267,,40,40,,,,,,,,,,,,,,,,bars/028.png,bars/mask009.png,,,,,,,,,,,,2,1,,,,,,,3,4,2,5,,,,,,,,,,,1623.2946,1623.8269,1624.0268,1624.3739,space,0.1778,,1624.374,5,80,1625.2677,1625.2677,1625.2704,,,,0,1,1,1,1,45,120,,,,,,,,
,,61066ca9d595665c412acb71,65af54814aa07d90bbee3cb3,2024-01-23_09h02.13.358,bars,2023.2.3,Win32,6.00024001,657b66ea316d21385b68909f,,,,,,,,,,,1625.2707,1626.1961,,,1626.5694,1626.7748,,20,20,,,,,,,,,,,,,,,,bars/031.png,bars/mask001.png,,,,,,,,,,,,3,2,,,,,,,1,6,2,5,,,,,,,,,,,1626.1962,1626.5694,1626.7748,1626.946,space,0.0079,,1626.9461,80,15,1627.9769,1627.977,1627.9795,,,,0,2,2,2,1,120,35,,,,,,,,
,,61066ca9d595665c412acb71,65af54814aa07d90bbee3cb3,2024-01-23_09h02.13.358,bars,2023.2.3,Win32,6.00024001,657b66ea316d21385b68909f,,,,,,,,,,,1627.9798,1628.8585,,,1629.2455,1629.4444,,142,142,,,,,,,,,,,,,,,,bars/036.png,bars/mask004.png,,,,,,,,,,,,3,1,,,,,,,3,4,3,5,,,,,,,,,,,1628.8585,1629.2455,1629.4444,1629.8169,space,0.1882,0.0002,1629.8169,3,58,1630.7004,1630.7006,1630.703,,,,0,3,3,3,1,145,20,,,,,,,,
,,61066ca9d595665c412acb71,65af54814aa07d90bbee3cb3,2024-01-23_09h02.13.358,bars,2023.2.3,Win32,6.00024001,657b66ea316d21385b68909f,,,,,,,,,,,1630.7034,1631.7243,,,1632.1025,1632.2977,,93,93,,,,,,,,,,,,,,,,bars/029.png,bars/mask003.png,,,,,,,,,,,,1,1,,,,,,,1,6,1,6,,,,,,,,,,,1631.7244,1632.1025,1632.2978,1632.8155,space,0.3582,,1632.8155,3,48,1633.7015,1633.7016,1633.7026,,,,0,4,4,4,1,90,45,,,,,,,,
,,61066ca9d595665c412acb71,65af54814aa07d90bbee3cb3,2024-01-23_09h02.13.358,bars,2023.2.3,Win32,6.00024001,657b66ea316d21385b68909f,,,,,,,,,,,1633.703,1634.7612,,,1635.1333,1635.3315,,0,0,,,,,,,,,,,,,,,,bars/021.png,bars/mask003.png,,,,,,,,,,,,1,1,,,,,,,3,4,4,4,,,,,,,,,,,1634.7613,1635.1333,1635.3316,1637.427,space,1.9367,0.0002,1637.427,25,70,1638.3254,1638.3254,1638.3263,,,,0,5,5,5,1,155,70,,,,,,,,
,,61066ca9d595665c412acb71,65af54814aa07d90bbee3cb3,2024-01-23_09h02.13.358,bars,2023.2.3,Win32,6.00024001,657b66ea316d21385b68909f,,,,,,,,,,,1638.3264,1639.2014,,,1639.584,1639.7546,,136,136,,,,,,,,,,,,,,,,bars/032.png,bars/mask005.png,,,,,,,,,,,,3,1,,,,,,,5,6,4,6,,,,,,,,,,,1639.2014,1639.584,1639.7547,1643.6755,space,3.7603,0.0003,1643.6756,11,64,1644.7241,1644.7241,1644.739,,,,0,6,6,6,1,125,20,,,,,,,,
,,61066ca9d595665c412acb71,65af54814aa07d90bbee3cb3,2024-01-23_09h02.13.358,bars,2023.2.3,Win32,6.00024001,657b66ea316d21385b68909f,,,,,,,,,,,1644.7392,1645.6144,,,1646.1717,1646.3439,,150,150,,,,,,,,,,,,,,,,bars/010.png,bars/mask009.png,,,,,,,,,,,,5,1,,,,,,,7,4,9,4,,,,,,,,,,,1645.6145,1646.1717,1646.3439,1666.9462,space,20.4115,,1666.9462,15,85,1667.819,1667.8191,1667.8335,,,,0,7,7,7,1,165,55,,,,,,,,
,,61066ca9d595665c412acb71,65af54814aa07d90bbee3cb3,2024-01-23_09h02.13.358,bars,2023.2.3,Win32,6.00024001,657b66ea316d21385b68909f,,,,,,,,,,,1667.8336,1668.7144,,,1669.0917,1669.2918,,65,65,,,,,,,,,,,,,,,,bars/017.png,bars/mask008.png,,,,,,,,,,,,2,2,,,,,,,9,6,9,7,,,,,,,,,,,1668.7144,1669.0917,1669.2919,1669.4837,space,0.0078,,1669.4837,80,20,1670.5179,1670.5179,1670.52,,,,0,8,8,8,1,145,45,,,,,,,,
,,61066ca9d595665c412acb71,65af54814aa07d90bbee3cb3,2024-01-23_09h02.13.358,bars,2023.2.3,Win32,6.00024001,657b66ea316d21385b68909f,,,,,,,,,,,1670.5205,1671.5553,,,1671.9316,1672.1043,,128,128,,,,,,,,,,,,,,,,bars/030.png,bars/mask000.png,,,,,,,,,,,,6,1,,,,,,,10,4,10,5,,,,,,,,,,,1671.5553,1671.9315,1672.1044,1672.4677,space,0.1768,0.0003,1672.4678,12,63,1673.5289,1673.529,1673.5314,,,,0,9,9,9,1,140,65,,,,,,,,
,,61066ca9d595665c412acb71,65af54814aa07d90bbee3cb3,2024-01-23_09h02.13.358,bars,2023.2.3,Win32,6.00024001,657b66ea316d21385b68909f,,,,,,,,,,,1673.5318,1674.4206,,,1674.9367,1675.1436,,126,126,,,,,,,,,,,,,,,,bars/031.png,bars/mask002.png,,,,,,,,,,,,7,1,,,,,,,8,2,9,3,,,,,,,,,,,1674.4207,1674.9367,1675.1436,1675.6921,space,0.3589,,1675.6921,6,89,1676.7632,1676.7632,1676.7644,,,,0,10,10,10,1,120,35,,,,,,,,
,,61066ca9d595665c412acb71,65af54814aa07d90bbee3cb3,2024-01-23_09h02.13.358,bars,2023.2.3,Win32,6.00024001,657b66ea316d21385b68909f,,,,,,,,,,,1676.7647,1677.7677,,,1678.1742,1678.3594,,123,123,,,,,,,,,,,,,,,,bars/012.png,bars/mask007.png,,,,,,,,,,,,0,1,,,,,,,6,4,6,5,,,,,,,,,,,1677.7678,1678.1741,1678.3596,1678.6914,space,0.1731,,1678.6914,33,72,1679.7335,1679.7335,1679.7347,,,,0,11,11,11,1,90,15,,,,,,,,
,,61066ca9d595665c412acb71,65af54814aa07d90bbee3cb3,2024-01-23_09h02.13.358,bars,2023.2.3,Win32,6.00024001,657b66ea316d21385b68909f,,,,,,,,,,,1679.735,1680.764,,,1681.3278,1681.5288,,138,138,,,,,,,,,,,,,,,,bars/011.png,bars/mask000.png,,,,,,,,,,,,2,1,,,,,,,8,6,8,5,,,,,,,,,,,1680.764,1681.3278,1681.5288,1683.7621,space,2.0746,,1683.7621,22,53,1684.6697,1684.6697,1684.6707,,,,0,12,12,12,1,160,85,,,,,,,,
,,61066ca9d595665c412acb71,65af54814aa07d90bbee3cb3,2024-01-23_09h02.13.358,bars,2023.2.3,Win32,6.00024001,657b66ea316d21385b68909f,,,,,,,,,,,1684.671,1685.6684,,,1686.0766,1686.2709,,68,68,,,,,,,,,,,,,,,,bars/002.png,bars/mask006.png,,,,,,,,,,,,2,2,,,,,,,6,4,5,4,,,,,,,,,,,1685.6684,1686.0766,1686.2709,1687.6882,space,1.2571,0.0002,1687.6882,62,17,1688.6878,1688.6878,1688.6903,,,,0,13,13,13,1,130,85,,,,,,,,
,,61066ca9d595665c412acb71,65af54814aa07d90bbee3cb3,2024-01-23_09h02.13.358,bars,2023.2.3,Win32,6.00024001,657b66ea316d21385b68909f,,,,,,,,,,,1688.6907,1689.6083,,,1690.1246,1690.3291,,43,43,,,,,,,,,,,,,,,,bars/045.png,bars/mask004.png,,,,,,,,,,,,0,2,,,,,,,8,6,7,5,,,,,,,,,,,1689.6084,1690.1246,1690.3292,1690.5435,space,0.0078,0.0002,1690.5436,57,33,1691.5549,1691.555,1691.556,,,,0,14,14,14,1,100,10,,,,,,,,
,,61066ca9d595665c412acb71,65af54814aa07d90bbee3cb3,2024-01-23_09h02.13.358,bars,2023.2.3,Win32,6.00024001,657b66ea316d21385b68909f,,,,,,,,,,,1691.5563,1692.445,,,1692.9598,1693.1349,,3,3,,,,,,,,,,,,,,,,bars/041.png,bars/mask008.png,,,,,,,,,,,,3,1,,,,,,,6,8,6,9,,,,,,,,,,,1692.4451,1692.9598,1693.135,1693.3319,space,0.0084,0.0002,1693.3319,17,82,1694.367,1694.3671,1694.369,,,,0,15,15,15,1,20,85,,,,,,,,
,,61066ca9d595665c412acb71,65af54814aa07d90bbee3cb3,2024-01-23_09h02.13.358,bars,2023.2.3,Win32,6.00024001,657b66ea316d21385b68909f,,,,,,,,,,,1694.3692,1695.2908,,,1695.8045,1695.9796,,127,127,,,,,,,,,,,,,,,,bars/038.png,bars/mask006.png,,,,,,,,,,,,0,1,,,,,,,8,10,9,10,,,,,,,,,,,1695.2908,1695.8044,1695.9797,1696.186,space,0.0095,,1696.1861,38,57,1697.2139,1697.2139,1697.215,,,,0,16,16,16,1,165,70,,,,,,,,
,,61066ca9d595665c412acb71,65af54814aa07d90bbee3cb3,2024-01-23_09h02.13.358,bars,2023.2.3,Win32,6.00024001,657b66ea316d21385b68909f,,,,,,,,,,,1697.2153,1698.0998,,,1698.624,1698.7947,,83,83,,,,,,,,,,,,,,,,bars/012.png,bars/mask001.png,,,,,,,,,,,,4,1,,,,,,,6,10,5,8,,,,,,,,,,,1698.0999,1698.6239,1698.7948,1698.9626,space,0.0077,0.0002,1698.9627,7,68,1699.8805,1699.8805,1699.8815,,,,0,17,17,17,1,90,15,,,,,,,,
,,61066ca9d595665c412acb71,65af54814aa07d90bbee3cb3,2024-01-23_09h02.13.358,bars,2023.2.3,Win32,6.00024001,657b66ea316d21385b68909f,,,,,,,,,,,1699.8818,1700.9595,,,1701.4846,1701.6558,,30,30,,,,,,,,,,,,,,,,bars/015.png,bars/mask009.png,,,,,,,,,,,,0,2,,,,,,,4,10,4,10,,,,,,,,,,,1700.9596,1701.4845,1701.6558,1702.0085,space,0.1948,0.0002,1702.0086,80,50,1702.9051,1702.9051,1702.9071,,,,0,18,18,18,1,110,160,,,,,,,,
,,61066ca9d595665c412acb71,65af54814aa07d90bbee3cb3,2024-01-23_09h02.13.358,bars,2023.2.3,Win32,6.00024001,657b66ea316d21385b68909f,,,,,,,,,,,1702.9074,1703.8271,,,1704.3395,1704.5119,,88,88,,,,,,,,,,,,,,,,bars/004.png,bars/mask007.png,,,,,,,,,,,,0,2,,,,,,,6,8,6,8,,,,,,,,,,,1703.8272,1704.3394,1704.5119,1705.0383,space,0.3675,0.0002,1705.0383,63,37,1706.0798,1706.0799,1706.0811,,,,0,19,19,19,1,25,125,,,,,,,,
,,61066ca9d595665c412acb71,65af54814aa07d90bbee3cb3,2024-01-23_09h02.13.358,bars,2023.2.3,Win32,6.00024001,657b66ea316d21385b68909f,,,,,,,,,,,1706.0814,1707.0008,,,1707.378,1707.5518,,25,25,,,,,,,,,,,,,,,,bars/032.png,bars/mask002.png,,,,,,,,,,,,5,2,,,,,,,4,6,4,6,,,,,,,,,,,1707.0008,1707.3779,1707.5518,1707.7387,space,0.0087,,1707.7388,80,5,1708.6412,1708.6412,1708.6421,,,,0,20,20,20,1,125,20,,,,,,,,
,,61066ca9d595665c412acb71,65af54814aa07d90bbee3cb3,2024-01-23_09h02.13.358,bars,2023.2.3,Win32,6.00024001,657b66ea316d21385b68909f,,,,,,,,,,,1708.6423,1709.5602,,,1710.0753,1710.2459,,47,47,,,,,,,,,,,,,,,,bars/045.png,bars/mask009.png,,,,,,,,,,,,0,2,,,,,,,2,8,3,8,,,,,,,,,,,1709.5603,1710.0753,1710.246,1710.4121,space,0.008,0.0002,1710.4122,53,37,1711.3215,1711.3215,1711.3225,,,,0,21,21,21,1,100,10,,,,,,,,
,,61066ca9d595665c412acb71,65af54814aa07d90bbee3cb3,2024-01-23_09h02.13.358,bars,2023.2.3,Win32,6.00024001,657b66ea316d21385b68909f,,,,,,,,,,,1711.3227,1712.2038,,,1712.5807,1712.7546,,118,118,,,,,,,,,,,,,,,,bars/007.png,bars/mask000.png,,,,,,,,,,,,0,1,,,,,,,4,6,5,8,,,,,,,,,,,1712.2038,1712.5806,1712.7547,1713.0877,space,0.174,,1713.0877,57,63,1714.0044,1714.0044,1714.0066,,,,0,22,22,22,1,175,55,,,,,,,,
,,61066ca9d595665c412acb71,65af54814aa07d90bbee3cb3,2024-01-23_09h02.13.358,bars,2023.2.3,Win32,6.00024001,657b66ea316d21385b68909f,,,,,,,,,,,1714.0069,1715.0588,,,1715.4326,1715.603,,14,14,,,,,,,,,,,,,,,,bars/023.png,bars/mask001.png,,,,,,,,,,,,3,1,,,,,,,6,8,4,9,,,,,,,,,,,1715.0588,1715.4326,1715.6031,1716.1235,space,0.3621,0.0002,1716.1236,6,79,1717.0285,1717.0285,1717.0294,,,,0,23,23,23,1,20,115,,,,,,,,
,,61066ca9d595665c412acb71,65af54814aa07d90bbee3cb3,2024-01-23_09h02.13.358,bars,2023.2.3,Win32,6.00024001,657b66ea316d21385b68909f,,,,,,,,,,,1717.0298,1717.9313,,,1718.4497,1718.6289,,161,161,,,,,,,,,,,,,,,,bars/025.png,bars/mask001.png,,,,,,,,,,,,0,1,,,,,,,8,6,8,8,,,,,,,,,,,1717.9313,1718.4496,1718.629,1718.9897,space,0.1915,0.0004,1718.9898,56,59,1719.8882,1719.8882,1719.889,,,,0,24,24,24,1,105,40,,,,,,,,
,,61066ca9d595665c412acb71,65af54814aa07d90bbee3cb3,2024-01-23_09h02.13.358,bars,2023.2.3,Win32,6.00024001,657b66ea316d21385b68909f,,,,,,,,,,,1719.8893,1720.7651,,,1721.1308,1721.3094,,32,32,,,,,,,,,,,,,,,,bars/035.png,bars/mask000.png,,,,,,,,,,,,1,2,,,,,,,6,8,7,8,,,,,,,,,,,1720.7652,1721.1307,1721.3094,1721.6424,space,0.1745,0.0002,1721.6425,37,28,1722.546,1722.546,1722.5485,,,,0,25,25,25,1,175,60,,,,,,,,
,,61066ca9d595665c412acb71,65af54814aa07d90bbee3cb3,2024-01-23_09h02.13.358,bars,2023.2.3,Win32,6.00024001,657b66ea316d21385b68909f,,,,,,,,,,,1722.549,1723.5593,,,1723.9394,1724.1414,,150,150,,,,,,,,,,,,,,,,bars/012.png,bars/mask001.png,,,,,,,,,,,,0,2,,,,,,,4,6,5,5,,,,,,,,,,,1723.5594,1723.9394,1724.1415,1724.4767,space,0.1752,,1724.4767,60,45,1725.3435,1725.3435,1725.3445,,,,0,26,26,26,1,90,15,,,,,,,,
,,61066ca9d595665c412acb71,65af54814aa07d90bbee3cb3,2024-01-23_09h02.13.358,bars,2023.2.3,Win32,6.00024001,657b66ea316d21385b68909f,,,,,,,,,,,1725.3449,1726.2235,,,1726.7586,1726.9497,,91,91,,,,,,,,,,,,,,,,bars/017.png,bars/mask007.png,,,,,,,,,,,,0,2,,,,,,,6,4,6,3,,,,,,,,,,,1726.2235,1726.7586,1726.9498,1727.1408,space,0.0086,0.0003,1727.1409,54,46,1728.1603,1728.1603,1728.1614,,,,0,27,27,27,1,145,45,,,,,,,,
,,61066ca9d595665c412acb71,65af54814aa07d90bbee3cb3,2024-01-23_09h02.13.358,bars,2023.2.3,Win32,6.00024001,657b66ea316d21385b68909f,,,,,,,,,,,1728.1617,1729.0453,,,1729.5943,1729.7673,,115,115,,,,,,,,,,,,,,,,bars/001.png,bars/mask005.png,,,,,,,,,,,,3,1,,,,,,,8,2,6,2,,,,,,,,,,,1729.0453,1729.5942,1729.7674,1730.1285,space,0.2001,0.0002,1730.1285,15,30,1731.0127,1731.0127,1731.0153,,,,0,28,28,28,1,130,85,,,,,,,,
,,61066ca9d595665c412acb71,65af54814aa07d90bbee3cb3,2024-01-23_09h02.13.358,bars,2023.2.3,Win32,6.00024001,657b66ea316d21385b68909f,,,,,,,,,,,1731.0157,1731.9145,,,1732.4451,1732.6224,,149,149,,,,,,,,,,,,,,,,bars/015.png,bars/mask004.png,,,,,,,,,,,,0,2,,,,,,,6,0,7,0,,,,,,,,,,,1731.9146,1732.4451,1732.6224,1772.0665,space,39.2608,,1772.0665,39,11,1772.9383,1772.9383,1772.9537,,,,0,29,29,29,1,110,160,,,,,,,,
,,61066ca9d595665c412acb71,65af54814aa07d90bbee3cb3,2024-01-23_09h02.13.358,bars,2023.2.3,Win32,6.00024001,657b66ea316d21385b68909f,,,,,,,,,,,1772.954,1773.845,,,1774.2205,1774.3933,,90,90,,,,,,,,,,,,,,,,bars/004.png,bars/mask009.png,,,,,,,,,,,,0,2,,,,,,,8,0,9,0,,,,,,,,,,,1773.845,1774.2204,1774.3933,1774.5638,space,0.0077,,1774.5638,65,35,1775.6101,1775.6102,1775.6111,,,,0,30,30,30,1,25,125,,,,,,,,
,,61066ca9d595665c412acb71,65af54814aa07d90bbee3cb3,2024-01-23_09h02.13.358,bars,2023.2.3,Win32,6.00024001,657b66ea316d21385b68909f,,,,,,,,,,,1775.6114,1776.5105,,,1777.0227,1777.1939,,7,7,,,,,,,,,,,,,,,,bars/043.png,bars/mask003.png,,,,,,,,,,,,2,1,,,,,,,10,0,10,2,,,,,,,,,,,1776.5105,1777.0227,1777.194,1777.5659,space,0.2095,0.0002,1777.566,23,57,1778.4521,1778.4522,1778.4543,,,,0,31,31,31,1,30,130,,,,,,,,
,,61066ca9d595665c412acb71,65af54814aa07d90bbee3cb3,2024-01-23_09h02.13.358,bars,2023.2.3,Win32,6.00024001,657b66ea316d21385b68909f,,,,,,,,,,,1778.4546,1779.3682,,,1779.8818,1780.0547,,61,61,,,,,,,,,,,,,,,,bars/044.png,bars/mask002.png,,,,,,,,,,,,5,1,,,,,,,10,0,9,0,,,,,,,,,,,1779.3682,1779.8817,1780.0548,1782.011,space,1.795,0.0004,1782.011,14,86,1782.8918,1782.8918,1782.8928,,,,0,32,32,32,1,75,155,,,,,,,,
,,61066ca9d595665c412acb71,65af54814aa07d90bbee3cb3,2024-01-23_09h02.13.358,bars,2023.2.3,Win32,6.00024001,657b66ea316d21385b68909f,,,,,,,,,,,1782.8931,1783.7823,,,1784.1649,1784.3451,,5,5,,,,,,,,,,,,,,,,bars/020.png,bars/mask000.png,,,,,,,,,,,,1,2,,,,,,,10,0,10,1,,,,,,,,,,,1783.7823,1784.1649,1784.3451,1784.5373,space,0.0083,,1784.5373,70,15,1785.5784,1785.5784,1785.5811,,,,0,33,33,33,1,115,170,,,,,,,,
,,61066ca9d595665c412acb71,65af54814aa07d90bbee3cb3,2024-01-23_09h02.13.358,bars,2023.2.3,Win32,6.00024001,657b66ea316d21385b68909f,,,,,,,,,,,1785.5814,1786.4579,,,1787.0166,1787.1915,,97,97,,,,,,,,,,,,,,,,bars/000.png,bars/mask005.png,,,,,,,,,,,,0,2,,,,,,,8,2,9,2,,,,,,,,,,,1786.4581,1787.0166,1787.1915,1787.9125,space,0.5489,,1787.9127,57,48,1788.842,1788.842,1788.8429,,,,0,34,34,34,1,40,145,,,,,,,,
,,61066ca9d595665c412acb71,65af54814aa07d90bbee3cb3,2024-01-23_09h02.13.358,bars,2023.2.3,Win32,6.00024001,657b66ea316d21385b68909f,,,,,,,,,,,1788.8432,1789.7042,,,1790.0908,1790.2621,,12,12,,,,,,,,,,,,,,,,bars/045.png,bars/mask002.png,,,,,,,,,,,,5,2,,,,,,,10,4,10,5,,,,,,,,,,,1789.7043,1790.0907,1790.2621,1790.5977,space,0.1768,,1790.5977,88,2,1791.5104,1791.5104,1791.5113,,,,0,35,35,35,1,100,10,,,,,,,,
,,61066ca9d595665c412acb71,65af54814aa07d90bbee3cb3,2024-01-23_09h02.13.358,bars,2023.2.3,Win32,6.00024001,657b66ea316d21385b68909f,,,,,,,,,,,1791.5115,1792.5542,,,1792.9338,1793.1051,,128,128,,,,,,,,,,,,,,,,bars/011.png,bars/mask004.png,,,,,,,,,,,,0,1,,,,,,,8,6,7,5,,,,,,,,,,,1792.5543,1792.9337,1793.1051,1793.2707,space,0.0076,0.0002,1793.2708,32,43,1794.1793,1794.1793,1794.182,,,,0,36,36,36,1,160,85,,,,,,,,
,,61066ca9d595665c412acb71,65af54814aa07d90bbee3cb3,2024-01-23_09h02.13.358,bars,2023.2.3,Win32,6.00024001,657b66ea316d21385b68909f,,,,,,,,,,,1794.1824,1795.1834,,,1795.5653,1795.7466,,119,119,,,,,,,,,,,,,,,,bars/034.png,bars/mask006.png,,,,,,,,,,,,6,1,,,,,,,6,8,7,9,,,,,,,,,,,1795.1836,1795.5652,1795.7466,1795.9312,space,0.0093,,1795.9313,6,54,1796.9816,1796.9817,1796.9826,,,,0,37,37,37,1,125,65,,,,,,,,
,,61066ca9d595665c412acb71,65af54814aa07d90bbee3cb3,2024-01-23_09h02.13.358,bars,2023.2.3,Win32,6.00024001,657b66ea316d21385b68909f,,,,,,,,,,,1796.983,1798.0252,,,1798.3958,1798.6039,,140,140,,,,,,,,,,,,,,,,bars/025.png,bars/mask000.png,,,,,,,,,,,,0,1,,,,,,,8,6,8,7,,,,,,,,,,,1798.0253,1798.3957,1798.604,1798.7928,space,0.0092,,1798.7929,35,80,1799.8262,1799.8263,1799.8273,,,,0,38,38,38,1,105,40,,,,,,,,
,,61066ca9d595665c412acb71,65af54814aa07d90bbee3cb3,2024-01-23_09h02.13.358,bars,2023.2.3,Win32,6.00024001,657b66ea316d21385b68909f,,,,,,,,,,,1799.8277,1800.7202,,,1801.243,1801.4463,,80,80,,,,,,,,,,,,,,,,bars/012.png,bars/mask005.png,,,,,,,,,,,,6,1,,,,,,,10,4,9,3,,,,,,,,,,,1800.7202,1801.243,1801.4463,1801.6241,space,0.0091,,1801.6242,10,65,1802.6651,1802.6652,1802.6663,,,,0,39,39,39,1,90,15,,,,,,,,
,,61066ca9d595665c412acb71,65af54814aa07d90bbee3cb3,2024-01-23_09h02.13.358,bars,2023.2.3,Win32,6.00024001,657b66ea316d21385b68909f,,,,,,,,,,,1802.6666,1803.5835,,,1804.1159,1804.3212,,74,74,,,,,,,,,,,,,,,,bars/038.png,bars/mask002.png,,,,,,,,,,,,3,2,,,,,,,10,2,10,3,,,,,,,,,,,1803.5836,1804.1158,1804.3212,1805.9139,space,1.4187,0.0003,1805.914,89,4,1806.9748,1806.9749,1806.9774,,,,0,40,40,40,1,165,70,,,,,,,,
,,61066ca9d595665c412acb71,65af54814aa07d90bbee3cb3,2024-01-23_09h02.13.358,bars,2023.2.3,Win32,6.00024001,657b66ea316d21385b68909f,,,,,,,,,,,1806.9779,1807.8881,,,1808.4371,1808.6331,,87,87,,,,,,,,,,,,,,,,bars/028.png,bars/mask003.png,,,,,,,,,,,,0,2,,,,,,,10,0,10,0,,,,,,,,,,,1807.8881,1808.437,1808.6332,1809.0086,space,0.1873,0.0005,1809.0086,42,33,1809.892,1809.892,1809.8932,,,,0,41,41,41,1,45,120,,,,,,,,
,,61066ca9d595665c412acb71,65af54814aa07d90bbee3cb3,2024-01-23_09h02.13.358,bars,2023.2.3,Win32,6.00024001,657b66ea316d21385b68909f,,,,,,,,,,,1809.8935,1810.7953,,,1811.3572,1811.5596,,26,26,,,,,,,,,,,,,,,,bars/014.png,bars/mask004.png,,,,,,,,,,,,0,2,,,,,,,10,2,10,2,,,,,,,,,,,1810.7954,1811.3572,1811.5596,1811.8983,space,0.1775,0.0002,1811.8983,54,26,1812.9574,1812.9574,1812.9585,,,,0,42,42,42,1,80,0,,,,,,,,
,,61066ca9d595665c412acb71,65af54814aa07d90bbee3cb3,2024-01-23_09h02.13.358,bars,2023.2.3,Win32,6.00024001,657b66ea316d21385b68909f,,,,,,,,,,,1812.9588,1813.9694,,,1814.3649,1814.546,,6,6,,,,,,,,,,,,,,,,bars/017.png,bars/mask008.png,,,,,,,,,,,,0,2,,,,,,,8,0,8,0,,,,,,,,,,,1813.9694,1814.3648,1814.546,1814.7417,space,0.0077,,1814.7417,41,39,1815.7826,1815.7826,1815.7837,,,,0,43,43,43,1,145,45,,,,,,,,
,,61066ca9d595665c412acb71,65af54814aa07d90bbee3cb3,2024-01-23_09h02.13.358,bars,2023.2.3,Win32,6.00024001,657b66ea316d21385b68909f,,,,,,,,,,,1815.784,1816.8381,,,1817.2098,1817.4216,,144,144,,,,,,,,,,,,,,,,bars/031.png,bars/mask008.png,,,,,,,,,,,,1,1,,,,,,,6,0,6,0,,,,,,,,,,,1816.8381,1817.2098,1817.4217,1817.5958,space,0.0078,,1817.5959,24,71,1818.4659,1818.4661,1818.4685,,,,0,44,44,44,1,120,35,,,,,,,,
,,61066ca9d595665c412acb71,65af54814aa07d90bbee3cb3,2024-01-23_09h02.13.358,bars,2023.2.3,Win32,6.00024001,657b66ea316d21385b68909f,,,,,,,,,,,1818.4688,1819.3515,,,1819.9088,1820.1074,,149,149,,,,,,,,,,,,,,,,bars/032.png,bars/mask001.png,,,,,,,,,,,,1,1,,,,,,,4,0,4,0,,,,,,,,,,,1819.3515,1819.9088,1820.1075,1912.9037,space,92.6364,0.0002,1912.9037,24,51,1913.7705,1913.7707,1913.7908,,,,0,45,45,45,1,125,20,,,,,,,,
,,61066ca9d595665c412acb71,65af54814aa07d90bbee3cb3,2024-01-23_09h02.13.358,bars,2023.2.3,Win32,6.00024001,657b66ea316d21385b68909f,,,,,,,,,,,1913.7911,1914.8202,,,1915.371,1915.5678,,23,23,,,,,,,,,,,,,,,,bars/040.png,bars/mask000.png,,,,,,,,,,,,1,2,,,,,,,6,2,4,2,,,,,,,,,,,1914.8202,1915.371,1915.5678,1915.7576,space,0.0077,,1915.7576,63,18,1916.7713,1916.7714,1916.7741,,,,0,46,46,46,1,140,5,,,,,,,,
,,61066ca9d595665c412acb71,65af54814aa07d90bbee3cb3,2024-01-23_09h02.13.358,bars,2023.2.3,Win32,6.00024001,657b66ea316d21385b68909f,,,,,,,,,,,1916.7744,1917.6679,,,1918.0522,1918.2444,,32,32,,,,,,,,,,,,,,,,bars/027.png,bars/mask008.png,,,,,,,,,,,,2,2,,,,,,,4,4,4,4,,,,,,,,,,,1917.6679,1918.0521,1918.2444,1918.4396,space,0.0082,,1918.4397,78,18,1919.3214,1919.3214,1919.3223,,,,0,47,47,47,1,110,50,,,,,,,,
,,61066ca9d595665c412acb71,65af54814aa07d90bbee3cb3,2024-01-23_09h02.13.358,bars,2023.2.3,Win32,6.00024001,657b66ea316d21385b68909f,,,,,,,,,,,1919.3225,1920.2545,,,1920.7767,1920.9715,,14,14,,,,,,,,,,,,,,,,bars/031.png,bars/mask001.png,,,,,,,,,,,,2,2,,,,,,,6,6,7,5,,,,,,,,,,,1920.2546,1920.7766,1920.9716,1921.1497,space,0.0084,,1921.1497,74,21,1922.1887,1922.1887,1922.1898,,,,0,48,48,48,1,120,35,,,,,,,,
,,61066ca9d595665c412acb71,65af54814aa07d90bbee3cb3,2024-01-23_09h02.13.358,bars,2023.2.3,Win32,6.00024001,657b66ea316d21385b68909f,,,,,,,,,,,1922.1903,1923.0937,,,1923.6141,1923.7859,,71,71,,,,,,,,,,,,,,,,bars/016.png,bars/mask000.png,,,,,,,,,,,,0,1,,,,,,,8,8,9,8,,,,,,,,,,,1923.0938,1923.614,1923.7859,1923.9721,space,0.0079,0.0005,1923.9722,31,86,1924.8667,1924.8668,1924.8688,,,,0,49,49,49,1,40,165,,,,,,,,
,,61066ca9d595665c412acb71,65af54814aa07d90bbee3cb3,2024-01-23_09h02.13.358,bars,2023.2.3,Win32,6.00024001,657b66ea316d21385b68909f,,,,,,,,,,,,,,,,,,,,,,,,,,,,,,,,,,,,,,,,,,,,,,,,,,,,,,,,,,,,,,,,,,,,,,,,,,,,,,,,,,,,,,,,,,,,,1924.8688,1984.83,0,2,2,4,1,sequence_tables/blk034.csv
,,61066ca9d595665c412acb71,65af54814aa07d90bbee3cb3,2024-01-23_09h02.13.358,bars,2023.2.3,Win32,6.00024001,657b66ea316d21385b68909f,,,,,,,,,,,2027.3296,2028.208,,,2028.5881,2028.7687,,13,13,,,,,,,,,,,,,,,,bars/038.png,bars/mask001.png,,,,,,,,,,,,0,1,,,,,,,3,6,4,7,,,,,,1984.8444,2027.312,space,42.3145,,2028.2081,2028.5881,2028.7687,2029.1024,space,0.1734,0.0002,2029.1025,28,57,2030.0186,2030.0187,2030.0197,,,,0,0,0,0,1,165,70,,,,,,,,
,,61066ca9d595665c412acb71,65af54814aa07d90bbee3cb3,2024-01-23_09h02.13.358,bars,2023.2.3,Win32,6.00024001,657b66ea316d21385b68909f,,,,,,,,,,,2030.02,2030.8949,,,2031.4564,2031.6281,,61,61,,,,,,,,,,,,,,,,bars/042.png,bars/mask005.png,,,,,,,,,,,,4,2,,,,,,,5,8,3,7,,,,,,,,,,,2030.895,2031.4564,2031.6282,2065.659,space,33.8716,0.0003,2065.6591,84,14,2066.5595,2066.5596,2066.578,,,,0,1,1,1,1,145,75,,,,,,,,
,,61066ca9d595665c412acb71,65af54814aa07d90bbee3cb3,2024-01-23_09h02.13.358,bars,2023.2.3,Win32,6.00024001,657b66ea316d21385b68909f,,,,,,,,,,,2066.5783,2067.5055,,,2068.0175,2068.1902,,61,61,,,,,,,,,,,,,,,,bars/014.png,bars/mask007.png,,,,,,,,,,,,3,1,,,,,,,7,10,8,10,,,,,,,,,,,2067.5055,2068.0175,2068.1902,2125.5509,space,57.1897,,2125.5509,19,61,2126.459,2126.459,2126.4778,,,,0,2,2,2,1,80,0,,,,,,,,
,,61066ca9d595665c412acb71,65af54814aa07d90bbee3cb3,2024-01-23_09h02.13.358,bars,2023.2.3,Win32,6.00024001,657b66ea316d21385b68909f,,,,,,,,,,,2126.478,2127.5123,,,2127.9102,2128.0893,,106,106,,,,,,,,,,,,,,,,bars/049.png,bars/mask003.png,,,,,,,,,,,,7,2,,,,,,,5,10,5,10,,,,,,,,,,,2127.5125,2127.9102,2128.0893,2128.4212,space,0.1742,,2128.4212,54,9,2129.3338,2129.3339,2129.3359,,,,0,3,3,3,1,160,115,,,,,,,,
,,61066ca9d595665c412acb71,65af54814aa07d90bbee3cb3,2024-01-23_09h02.13.358,bars,2023.2.3,Win32,6.00024001,657b66ea316d21385b68909f,,,,,,,,,,,2129.3362,2130.2211,,,2130.619,2130.7956,,31,31,,,,,,,,,,,,,,,,bars/008.png,bars/mask008.png,,,,,,,,,,,,0,2,,,,,,,3,10,2,8,,,,,,,,,,,2130.2211,2130.6189,2130.7956,2131.141,space,0.1746,,2131.1411,79,31,2132.0694,2132.0695,2132.0704,,,,0,4,4,4,1,110,0,,,,,,,,
,,61066ca9d595665c412acb71,65af54814aa07d90bbee3cb3,2024-01-23_09h02.13.358,bars,2023.2.3,Win32,6.00024001,657b66ea316d21385b68909f,,,,,,,,,,,2132.0707,2133.1271,,,2133.4984,2133.6693,,73,73,,,,,,,,,,,,,,,,bars/007.png,bars/mask004.png,,,,,,,,,,,,4,2,,,,,,,1,10,1,9,,,,,,,,,,,2133.1271,2133.4983,2133.6693,2438.4614,space,304.6329,,2438.4616,78,18,2439.3272,2439.3273,2439.3447,,,,0,5,5,5,1,175,55,,,,,,,,
,,61066ca9d595665c412acb71,65af54814aa07d90bbee3cb3,2024-01-23_09h02.13.358,bars,2023.2.3,Win32,6.00024001,657b66ea316d21385b68909f,,,,,,,,,,,2439.3449,2440.225,,,2440.6008,2440.7795,,89,89,,,,,,,,,,,,,,,,bars/044.png,bars/mask000.png,,,,,,,,,,,,1,1,,,,,,,3,10,1,10,,,,,,,,,,,2440.225,2440.6007,2440.7796,2440.9623,space,0.0083,0.0004,2440.9624,14,66,2442.0236,2442.0236,2442.026,,,,0,6,6,6,1,75,155,,,,,,,,
,,61066ca9d595665c412acb71,65af54814aa07d90bbee3cb3,2024-01-23_09h02.13.358,bars,2023.2.3,Win32,6.00024001,657b66ea316d21385b68909f,,,,,,,,,,,2442.0263,2442.9075,,,2443.4521,2443.6319,,85,85,,,,,,,,,,,,,,,,bars/018.png,bars/mask007.png,,,,,,,,,,,,8,2,,,,,,,5,10,5,10,,,,,,,,,,,2442.9076,2443.452,2443.6319,2443.8058,space,0.0075,0.0002,2443.8058,65,5,2444.8446,2444.8446,2444.847,,,,0,7,7,7,1,150,90,,,,,,,,
,,61066ca9d595665c412acb71,65af54814aa07d90bbee3cb3,2024-01-23_09h02.13.358,bars,2023.2.3,Win32,6.00024001,657b66ea316d21385b68909f,,,,,,,,,,,2444.8474,2445.7679,,,2446.317,2446.5162,,74,74,,,,,,,,,,,,,,,,bars/038.png,bars/mask000.png,,,,,,,,,,,,8,2,,,,,,,7,8,7,9,,,,,,,,,,,2445.768,2446.317,2446.5162,2447.7638,space,1.0798,0.0003,2447.7638,89,4,2448.789,2448.789,2448.7897,,,,0,8,8,8,1,165,70,,,,,,,,
,,61066ca9d595665c412acb71,65af54814aa07d90bbee3cb3,2024-01-23_09h02.13.358,bars,2023.2.3,Win32,6.00024001,657b66ea316d21385b68909f,,,,,,,,,,,2448.79,2449.686,,,2450.2059,2450.4101,,174,174,,,,,,,,,,,,,,,,bars/023.png,bars/mask008.png,,,,,,,,,,,,1,1,,,,,,,5,6,7,5,,,,,,,,,,,2449.6861,2450.2058,2450.4101,2450.5998,space,0.009,0.0003,2450.5999,26,59,2451.6254,2451.6254,2451.6277,,,,0,9,9,9,1,20,115,,,,,,,,
,,61066ca9d595665c412acb71,65af54814aa07d90bbee3cb3,2024-01-23_09h02.13.358,bars,2023.2.3,Win32,6.00024001,657b66ea316d21385b68909f,,,,,,,,,,,2451.6282,2452.5368,,,2453.0851,2453.2807,,52,52,,,,,,,,,,,,,,,,bars/020.png,bars/mask004.png,,,,,,,,,,,,0,2,,,,,,,7,8,7,10,,,,,,,,,,,2452.5368,2453.085,2453.2808,2466.4315,space,12.9712,,2466.4315,63,62,2467.3405,2467.3405,2467.3604,,,,0,10,10,10,1,115,170,,,,,,,,
,,61066ca9d595665c412acb71,65af54814aa07d90bbee3cb3,2024-01-23_09h02.13.358,bars,2023.2.3,Win32,6.00024001,657b66ea316d21385b68909f,,,,,,,,,,,2467.3606,2468.3716,,,2468.764,2468.964,,74,74,,,,,,,,,,,,,,,,bars/023.png,bars/mask000.png,,,,,,,,,,,,0,2,,,,,,,9,10,8,9,,,,,,,,,,,2468.3716,2468.764,2468.9641,2469.1305,space,0.0077,,2469.1305,54,41,2470.0258,2470.0259,2470.0269,,,,0,11,11,11,1,20,115,,,,,,,,
,,61066ca9d595665c412acb71,65af54814aa07d90bbee3cb3,2024-01-23_09h02.13.358,bars,2023.2.3,Win32,6.00024001,657b66ea316d21385b68909f,,,,,,,,,,,2470.0271,2471.0866,,,2471.4502,2471.6429,,115,115,,,,,,,,,,,,,,,,bars/043.png,bars/mask008.png,,,,,,,,,,,,5,2,,,,,,,10,10,9,10,,,,,,,,,,,2471.0866,2471.4502,2471.6429,2471.9957,space,0.174,0.0002,2471.9958,85,15,2472.8705,2472.8705,2472.8715,,,,0,12,12,12,1,30,130,,,,,,,,
,,61066ca9d595665c412acb71,65af54814aa07d90bbee3cb3,2024-01-23_09h02.13.358,bars,2023.2.3,Win32,6.00024001,657b66ea316d21385b68909f,,,,,,,,,,,2472.8718,2473.9101,,,2474.2943,2474.5081,,88,88,,,,,,,,,,,,,,,,bars/039.png,bars/mask005.png,,,,,,,,,,,,3,2,,,,,,,8,8,8,8,,,,,,,,,,,2473.9101,2474.2942,2474.5082,2474.6777,space,0.0077,0.0002,2474.6777,87,17,2475.7292,2475.7292,2475.7302,,,,0,13,13,13,1,175,105,,,,,,,,
,,61066ca9d595665c412acb71,65af54814aa07d90bbee3cb3,2024-01-23_09h02.13.358,bars,2023.2.3,Win32,6.00024001,657b66ea316d21385b68909f,,,,,,,,,,,2475.7305,2476.7558,,,2477.1558,2477.3541,,12,12,,,,,,,,,,,,,,,,bars/004.png,bars/mask006.png,,,,,,,,,,,,6,1,,,,,,,10,10,10,10,,,,,,,,,,,2476.7559,2477.1558,2477.3541,2477.5226,space,0.0076,0.0001,2477.5227,13,67,2478.5765,2478.5766,2478.579,,,,0,14,14,14,1,25,125,,,,,,,,
,,61066ca9d595665c412acb71,65af54814aa07d90bbee3cb3,2024-01-23_09h02.13.358,bars,2023.2.3,Win32,6.00024001,657b66ea316d21385b68909f,,,,,,,,,,,2478.5793,2479.6009,,,2480.029,2480.2092,,30,30,,,,,,,,,,,,,,,,bars/045.png,bars/mask001.png,,,,,,,,,,,,3,2,,,,,,,8,10,6,10,,,,,,,,,,,2479.601,2480.0289,2480.2092,2480.3749,space,0.0077,,2480.375,70,20,2481.2765,2481.2765,2481.2798,,,,0,15,15,15,1,100,10,,,,,,,,
,,61066ca9d595665c412acb71,65af54814aa07d90bbee3cb3,2024-01-23_09h02.13.358,bars,2023.2.3,Win32,6.00024001,657b66ea316d21385b68909f,,,,,,,,,,,2481.2802,2482.3334,,,2482.7516,2482.9427,,148,148,,,,,,,,,,,,,,,,bars/012.png,bars/mask009.png,,,,,,,,,,,,0,2,,,,,,,10,10,10,9,,,,,,,,,,,2482.3335,2482.7516,2482.9427,2483.1103,space,0.0085,,2483.1104,58,47,2484.0289,2484.0289,2484.0299,,,,0,16,16,16,1,90,15,,,,,,,,
,,61066ca9d595665c412acb71,65af54814aa07d90bbee3cb3,2024-01-23_09h02.13.358,bars,2023.2.3,Win32,6.00024001,657b66ea316d21385b68909f,,,,,,,,,,,2484.0302,2485.0686,,,2485.4544,2485.6473,,5,5,,,,,,,,,,,,,,,,bars/042.png,bars/mask004.png,,,,,,,,,,,,0,1,,,,,,,10,10,10,10,,,,,,,,,,,2485.0688,2485.4543,2485.6474,2485.8356,space,0.0076,0.0002,2485.8356,40,70,2486.9017,2486.9018,2486.9041,,,,0,17,17,17,1,145,75,,,,,,,,
,,61066ca9d595665c412acb71,65af54814aa07d90bbee3cb3,2024-01-23_09h02.13.358,bars,2023.2.3,Win32,6.00024001,657b66ea316d21385b68909f,,,,,,,,,,,2486.9044,2487.9056,,,2488.3222,2488.5134,,168,168,,,,,,,,,,,,,,,,bars/021.png,bars/mask000.png,,,,,,,,,,,,5,1,,,,,,,10,10,9,10,,,,,,,,,,,2487.9056,2488.3221,2488.5134,2488.6816,space,0.0076,0.0001,2488.6817,13,82,2489.5591,2489.5592,2489.5602,,,,0,18,18,18,1,155,70,,,,,,,,
,,61066ca9d595665c412acb71,65af54814aa07d90bbee3cb3,2024-01-23_09h02.13.358,bars,2023.2.3,Win32,6.00024001,657b66ea316d21385b68909f,,,,,,,,,,,2489.5605,2490.5987,,,2490.9776,2491.1617,,155,155,,,,,,,,,,,,,,,,bars/014.png,bars/mask001.png,,,,,,,,,,,,1,2,,,,,,,8,8,10,8,,,,,,,,,,,2490.5988,2490.9776,2491.1617,2491.3513,space,0.0091,0.0002,2491.3513,75,25,2492.3657,2492.3657,2492.3681,,,,0,19,19,19,1,80,0,,,,,,,,
,,61066ca9d595665c412acb71,65af54814aa07d90bbee3cb3,2024-01-23_09h02.13.358,bars,2023.2.3,Win32,6.00024001,657b66ea316d21385b68909f,,,,,,,,,,,2492.3684,2493.2663,,,2493.7795,2493.9503,,78,78,,,,,,,,,,,,,,,,bars/005.png,bars/mask003.png,,,,,,,,,,,,0,2,,,,,,,10,6,10,5,,,,,,,,,,,2493.2663,2493.7795,2493.9503,2494.1539,space,0.0088,0.0004,2494.1539,68,62,2495.1911,2495.1912,2495.192,,,,0,20,20,20,1,10,140,,,,,,,,
,,61066ca9d595665c412acb71,65af54814aa07d90bbee3cb3,2024-01-23_09h02.13.358,bars,2023.2.3,Win32,6.00024001,657b66ea316d21385b68909f,,,,,,,,,,,2495.1922,2496.0967,,,2496.6111,2496.7824,,145,145,,,,,,,,,,,,,,,,bars/006.png,bars/mask008.png,,,,,,,,,,,,0,2,,,,,,,10,4,10,5,,,,,,,,,,,2496.0967,2496.6111,2496.7824,2496.9487,space,0.0076,0.0003,2496.9487,70,45,2497.8569,2497.857,2497.8578,,,,0,21,21,21,1,35,100,,,,,,,,
,,61066ca9d595665c412acb71,65af54814aa07d90bbee3cb3,2024-01-23_09h02.13.358,bars,2023.2.3,Win32,6.00024001,657b66ea316d21385b68909f,,,,,,,,,,,2497.8581,2498.9072,,,2499.2859,2499.4569,,147,147,,,,,,,,,,,,,,,,bars/042.png,bars/mask003.png,,,,,,,,,,,,8,1,,,,,,,8,2,9,0,,,,,,,,,,,2498.9073,2499.2859,2499.4569,2499.6228,space,0.0078,0.0003,2499.6229,2,72,2500.517,2500.517,2500.5204,,,,0,22,22,22,1,145,75,,,,,,,,
,,61066ca9d595665c412acb71,65af54814aa07d90bbee3cb3,2024-01-23_09h02.13.358,bars,2023.2.3,Win32,6.00024001,657b66ea316d21385b68909f,,,,,,,,,,,2500.5209,2501.5673,,,2501.9789,2502.1505,,86,86,,,,,,,,,,,,,,,,bars/013.png,bars/mask005.png,,,,,,,,,,,,4,1,,,,,,,6,4,6,3,,,,,,,,,,,2501.5673,2501.9789,2502.1505,2502.3165,space,0.0078,,2502.3166,11,76,2503.2054,2503.2054,2503.2064,,,,0,23,23,23,1,75,10,,,,,,,,
,,61066ca9d595665c412acb71,65af54814aa07d90bbee3cb3,2024-01-23_09h02.13.358,bars,2023.2.3,Win32,6.00024001,657b66ea316d21385b68909f,,,,,,,,,,,2503.2067,2504.2244,,,2504.63,2504.8331,,133,133,,,,,,,,,,,,,,,,bars/044.png,bars/mask008.png,,,,,,,,,,,,2,2,,,,,,,8,6,8,6,,,,,,,,,,,2504.2245,2504.63,2504.8331,2505.0078,space,0.0075,0.0003,2505.0079,58,22,2505.8979,2505.898,2505.9003,,,,0,24,24,24,1,75,155,,,,,,,,
,,61066ca9d595665c412acb71,65af54814aa07d90bbee3cb3,2024-01-23_09h02.13.358,bars,2023.2.3,Win32,6.00024001,657b66ea316d21385b68909f,,,,,,,,,,,2505.9007,2506.9333,,,2507.3374,2507.5321,,172,172,,,,,,,,,,,,,,,,bars/039.png,bars/mask001.png,,,,,,,,,,,,9,1,,,,,,,10,4,10,5,,,,,,,,,,,2506.9334,2507.3374,2507.5322,2507.6991,space,0.0076,0.0002,2507.6992,3,67,2508.7541,2508.7542,2508.7563,,,,0,25,25,25,1,175,105,,,,,,,,
,,61066ca9d595665c412acb71,65af54814aa07d90bbee3cb3,2024-01-23_09h02.13.358,bars,2023.2.3,Win32,6.00024001,657b66ea316d21385b68909f,,,,,,,,,,,2508.7568,2509.7712,,,2510.1741,2510.3729,,42,42,,,,,,,,,,,,,,,,bars/044.png,bars/mask008.png,,,,,,,,,,,,0,1,,,,,,,10,2,10,2,,,,,,,,,,,2509.7713,2510.1741,2510.373,2510.7084,space,0.1737,0.0002,2510.7085,33,67,2511.619,2511.6191,2511.62,,,,0,26,26,26,1,75,155,,,,,,,,
,,61066ca9d595665c412acb71,65af54814aa07d90bbee3cb3,2024-01-23_09h02.13.358,bars,2023.2.3,Win32,6.00024001,657b66ea316d21385b68909f,,,,,,,,,,,2511.6202,2512.6501,,,2513.0418,2513.2332,,19,19,,,,,,,,,,,,,,,,bars/029.png,bars/mask004.png,,,,,,,,,,,,1,2,,,,,,,8,4,7,4,,,,,,,,,,,2512.6502,2513.0418,2513.2332,2513.401,space,0.0075,0.0003,2513.4011,71,26,2514.2922,2514.2922,2514.2946,,,,0,27,27,27,1,90,45,,,,,,,,
,,61066ca9d595665c412acb71,65af54814aa07d90bbee3cb3,2024-01-23_09h02.13.358,bars,2023.2.3,Win32,6.00024001,657b66ea316d21385b68909f,,,,,,,,,,,2514.2949,2515.1808,,,2515.5582,2515.7339,,58,58,,,,,,,,,,,,,,,,bars/029.png,bars/mask000.png,,,,,,,,,,,,4,2,,,,,,,6,6,4,7,,,,,,,,,,,2515.1808,2515.5581,2515.7339,2515.9363,space,0.0082,0.0003,2515.9364,32,13,2516.9661,2516.9662,2516.9668,,,,0,28,28,28,1,90,45,,,,,,,,
,,61066ca9d595665c412acb71,65af54814aa07d90bbee3cb3,2024-01-23_09h02.13.358,bars,2023.2.3,Win32,6.00024001,657b66ea316d21385b68909f,,,,,,,,,,,2516.9671,2517.872,,,2518.2492,2518.4477,,42,42,,,,,,,,,,,,,,,,bars/014.png,bars/mask004.png,,,,,,,,,,,,0,1,,,,,,,4,4,3,4,,,,,,,,,,,2517.872,2518.2492,2518.4477,2518.617,space,0.0087,,2518.6171,38,42,2519.5247,2519.5248,2519.5271,,,,0,29,29,29,1,80,0,,,,,,,,
,,61066ca9d595665c412acb71,65af54814aa07d90bbee3cb3,2024-01-23_09h02.13.358,bars,2023.2.3,Win32,6.00024001,657b66ea316d21385b68909f,,,,,,,,,,,2519.5274,2520.4337,,,2520.8065,2520.9963,,142,142,,,,,,,,,,,,,,,,bars/044.png,bars/mask001.png,,,,,,,,,,,,2,2,,,,,,,6,2,6,3,,,,,,,,,,,2520.4337,2520.8065,2520.9963,2521.1805,space,0.008,0.0003,2521.1805,67,13,2522.0628,2522.0629,2522.0648,,,,0,30,30,30,1,75,155,,,,,,,,
,,61066ca9d595665c412acb71,65af54814aa07d90bbee3cb3,2024-01-23_09h02.13.358,bars,2023.2.3,Win32,6.00024001,657b66ea316d21385b68909f,,,,,,,,,,,2522.065,2522.9643,,,2523.4865,2523.6578,,120,120,,,,,,,,,,,,,,,,bars/043.png,bars/mask000.png,,,,,,,,,,,,0,2,,,,,,,4,0,5,0,,,,,,,,,,,2522.9643,2523.4864,2523.6578,2523.8376,space,0.0082,0.0002,2523.8377,90,10,2524.7524,2524.7524,2524.7533,,,,0,31,31,31,1,30,130,,,,,,,,
,,61066ca9d595665c412acb71,65af54814aa07d90bbee3cb3,2024-01-23_09h02.13.358,bars,2023.2.3,Win32,6.00024001,657b66ea316d21385b68909f,,,,,,,,,,,2524.7535,2525.6787,,,2526.1914,2526.3858,,65,65,,,,,,,,,,,,,,,,bars/007.png,bars/mask001.png,,,,,,,,,,,,1,2,,,,,,,6,2,6,2,,,,,,,,,,,2525.6787,2526.1914,2526.3859,2526.5778,space,0.0078,0.0002,2526.5778,70,10,2527.6407,2527.6407,2527.6416,,,,0,32,32,32,1,175,55,,,,,,,,
,,61066ca9d595665c412acb71,65af54814aa07d90bbee3cb3,2024-01-23_09h02.13.358,bars,2023.2.3,Win32,6.00024001,657b66ea316d21385b68909f,,,,,,,,,,,2527.6419,2528.5502,,,2528.9211,2529.1248,,64,64,,,,,,,,,,,,,,,,bars/036.png,bars/mask004.png,,,,,,,,,,,,0,2,,,,,,,8,4,10,5,,,,,,,,,,,2528.5502,2528.9211,2529.1249,2529.3092,space,0.0077,0.0003,2529.3093,81,44,2530.1905,2530.1906,2530.1914,,,,0,33,33,33,1,145,20,,,,,,,,
,,61066ca9d595665c412acb71,65af54814aa07d90bbee3cb3,2024-01-23_09h02.13.358,bars,2023.2.3,Win32,6.00024001,657b66ea316d21385b68909f,,,,,,,,,,,2530.1917,2531.0933,,,2531.4744,2531.6454,,70,70,,,,,,,,,,,,,,,,bars/030.png,bars/mask000.png,,,,,,,,,,,,4,2,,,,,,,10,6,8,5,,,,,,,,,,,2531.0933,2531.4744,2531.6455,2531.8129,space,0.0078,0.0002,2531.8129,70,5,2532.7411,2532.7411,2532.742,,,,0,34,34,34,1,140,65,,,,,,,,
,,61066ca9d595665c412acb71,65af54814aa07d90bbee3cb3,2024-01-23_09h02.13.358,bars,2023.2.3,Win32,6.00024001,657b66ea316d21385b68909f,,,,,,,,,,,2532.7422,2533.8118,,,2534.346,2534.5094,,120,120,,,,,,,,,,,,,,,,bars/042.png,bars/mask000.png,,,,,,,,,,,,2,1,,,,,,,10,8,10,8,,,,,,,,,,,2533.8119,2534.3459,2534.5095,2534.6781,space,0.0085,0.0003,2534.6782,25,45,2535.5815,2535.5816,2535.5835,,,,0,35,35,35,1,145,75,,,,,,,,
,,61066ca9d595665c412acb71,65af54814aa07d90bbee3cb3,2024-01-23_09h02.13.358,bars,2023.2.3,Win32,6.00024001,657b66ea316d21385b68909f,,,,,,,,,,,2535.5837,2536.6442,,,2537.1623,2537.333,,46,46,,,,,,,,,,,,,,,,bars/040.png,bars/mask005.png,,,,,,,,,,,,0,2,,,,,,,8,10,8,10,,,,,,,,,,,2536.6442,2537.1623,2537.333,2538.7498,space,1.2575,0.0002,2538.7499,86,41,2539.8179,2539.818,2539.8206,,,,0,36,36,36,1,140,5,,,,,,,,
,,61066ca9d595665c412acb71,65af54814aa07d90bbee3cb3,2024-01-23_09h02.13.358,bars,2023.2.3,Win32,6.00024001,657b66ea316d21385b68909f,,,,,,,,,,,2539.821,2540.8337,,,2541.2215,2541.4084,,16,16,,,,,,,,,,,,,,,,bars/005.png,bars/mask002.png,,,,,,,,,,,,4,1,,,,,,,6,10,5,9,,,,,,,,,,,2540.8337,2541.2215,2541.4085,2548.1216,space,6.5372,0.0002,2548.1217,6,56,2549.0067,2549.0068,2549.0255,,,,0,37,37,37,1,10,140,,,,,,,,
,,61066ca9d595665c412acb71,65af54814aa07d90bbee3cb3,2024-01-23_09h02.13.358,bars,2023.2.3,Win32,6.00024001,657b66ea316d21385b68909f,,,,,,,,,,,2549.0256,2549.9089,,,2550.289,2550.4601,,112,112,,,,,,,,,,,,,,,,bars/019.png,bars/mask007.png,,,,,,,,,,,,6,2,,,,,,,4,8,4,8,,,,,,,,,,,2549.909,2550.289,2550.4602,2550.6261,space,0.0076,0.0002,2550.6262,67,7,2551.5434,2551.5434,2551.5458,,,,0,38,38,38,1,45,105,,,,,,,,
,,61066ca9d595665c412acb71,65af54814aa07d90bbee3cb3,2024-01-23_09h02.13.358,bars,2023.2.3,Win32,6.00024001,657b66ea316d21385b68909f,,,,,,,,,,,2551.5461,2552.4242,,,2552.986,2553.1573,,31,31,,,,,,,,,,,,,,,,bars/024.png,bars/mask008.png,,,,,,,,,,,,0,2,,,,,,,2,6,2,5,,,,,,,,,,,2552.4243,2552.9859,2553.1574,2554.6029,space,1.2878,0.0002,2554.6029,89,41,2555.4801,2555.4801,2555.481,,,,0,39,39,39,1,120,170,,,,,,,,
,,61066ca9d595665c412acb71,65af54814aa07d90bbee3cb3,2024-01-23_09h02.13.358,bars,2023.2.3,Win32,6.00024001,657b66ea316d21385b68909f,,,,,,,,,,,2555.4811,2556.3776,,,2556.895,2557.0655,,78,78,,,,,,,,,,,,,,,,bars/029.png,bars/mask003.png,,,,,,,,,,,,3,1,,,,,,,4,8,5,7,,,,,,,,,,,2556.3777,2556.895,2557.0656,2570.3714,space,13.1459,0.0002,2570.3715,12,33,2571.2544,2571.2544,2571.2695,,,,0,40,40,40,1,90,45,,,,,,,,
,,61066ca9d595665c412acb71,65af54814aa07d90bbee3cb3,2024-01-23_09h02.13.358,bars,2023.2.3,Win32,6.00024001,657b66ea316d21385b68909f,,,,,,,,,,,2571.2697,2572.187,,,2572.7225,2572.9196,,143,143,,,,,,,,,,,,,,,,bars/011.png,bars/mask006.png,,,,,,,,,,,,1,1,,,,,,,2,6,2,5,,,,,,,,,,,2572.1871,2572.7225,2572.9197,2573.0988,space,0.0076,,2573.0988,17,58,2574.0077,2574.0078,2574.0088,,,,0,41,41,41,1,160,85,,,,,,,,
,,61066ca9d595665c412acb71,65af54814aa07d90bbee3cb3,2024-01-23_09h02.13.358,bars,2023.2.3,Win32,6.00024001,657b66ea316d21385b68909f,,,,,,,,,,,2574.0093,2574.9116,,,2575.4725,2575.6613,,170,170,,,,,,,,,,,,,,,,bars/048.png,bars/mask005.png,,,,,,,,,,,,3,2,,,,,,,0,4,0,3,,,,,,,,,,,2574.9116,2575.4725,2575.6613,2575.8346,space,0.0078,0.0003,2575.8347,60,5,2576.7365,2576.7365,2576.7387,,,,0,42,42,42,1,50,175,,,,,,,,
,,61066ca9d595665c412acb71,65af54814aa07d90bbee3cb3,2024-01-23_09h02.13.358,bars,2023.2.3,Win32,6.00024001,657b66ea316d21385b68909f,,,,,,,,,,,2576.7391,2577.6265,,,2578.0026,2578.1749,,115,115,,,,,,,,,,,,,,,,bars/017.png,bars/mask006.png,,,,,,,,,,,,0,1,,,,,,,2,2,1,3,,,,,,,,,,,2577.6266,2578.0025,2578.175,2578.3602,space,0.0078,0.0003,2578.3602,30,70,2579.2519,2579.252,2579.2537,,,,0,43,43,43,1,145,45,,,,,,,,
,,61066ca9d595665c412acb71,65af54814aa07d90bbee3cb3,2024-01-23_09h02.13.358,bars,2023.2.3,Win32,6.00024001,657b66ea316d21385b68909f,,,,,,,,,,,2579.254,2580.1349,,,2580.5078,2580.6859,,146,146,,,,,,,,,,,,,,,,bars/038.png,bars/mask004.png,,,,,,,,,,,,2,1,,,,,,,4,4,5,4,,,,,,,,,,,2580.1349,2580.5077,2580.6859,2580.8546,space,0.0086,0.0003,2580.8547,19,76,2581.9331,2581.9331,2581.9341,,,,0,44,44,44,1,165,70,,,,,,,,
,,61066ca9d595665c412acb71,65af54814aa07d90bbee3cb3,2024-01-23_09h02.13.358,bars,2023.2.3,Win32,6.00024001,657b66ea316d21385b68909f,,,,,,,,,,,2581.9344,2582.818,,,2583.3588,2583.5648,,118,118,,,,,,,,,,,,,,,,bars/017.png,bars/mask004.png,,,,,,,,,,,,0,1,,,,,,,6,2,5,2,,,,,,,,,,,2582.8181,2583.3587,2583.5648,2583.7588,space,0.0076,,2583.7588,27,73,2584.7953,2584.7954,2584.7963,,,,0,45,45,45,1,145,45,,,,,,,,
,,61066ca9d595665c412acb71,65af54814aa07d90bbee3cb3,2024-01-23_09h02.13.358,bars,2023.2.3,Win32,6.00024001,657b66ea316d21385b68909f,,,,,,,,,,,2584.7967,2585.8298,,,2586.2163,2586.3919,,72,72,,,,,,,,,,,,,,,,bars/043.png,bars/mask006.png,,,,,,,,,,,,0,1,,,,,,,4,4,5,2,,,,,,,,,,,2585.8298,2586.2162,2586.392,2586.5928,space,0.008,0.0004,2586.5928,42,58,2587.6255,2587.6255,2587.6265,,,,0,46,46,46,1,30,130,,,,,,,,
,,61066ca9d595665c412acb71,65af54814aa07d90bbee3cb3,2024-01-23_09h02.13.358,bars,2023.2.3,Win32,6.00024001,657b66ea316d21385b68909f,,,,,,,,,,,2587.6268,2588.6669,,,2589.0298,2589.2245,,177,177,,,,,,,,,,,,,,,,bars/009.png,bars/mask006.png,,,,,,,,,,,,3,1,,,,,,,6,2,7,2,,,,,,,,,,,2588.6669,2589.0297,2589.2247,2589.4231,space,0.009,0.0004,2589.4231,18,72,2590.4685,2590.4686,2590.4696,,,,0,47,47,47,1,15,105,,,,,,,,
,,61066ca9d595665c412acb71,65af54814aa07d90bbee3cb3,2024-01-23_09h02.13.358,bars,2023.2.3,Win32,6.00024001,657b66ea316d21385b68909f,,,,,,,,,,,2590.47,2591.3484,,,2591.7219,2591.9177,,164,164,,,,,,,,,,,,,,,,bars/033.png,bars/mask009.png,,,,,,,,,,,,2,2,,,,,,,4,4,3,3,,,,,,,,,,,2591.3484,2591.7218,2591.9178,2603.1424,space,11.0635,0.0003,2603.1425,41,9,2604.0709,2604.0709,2604.0885,,,,0,48,48,48,1,25,155,,,,,,,,
,,61066ca9d595665c412acb71,65af54814aa07d90bbee3cb3,2024-01-23_09h02.13.358,bars,2023.2.3,Win32,6.00024001,657b66ea316d21385b68909f,,,,,,,,,,,2604.0888,2604.9748,,,2605.3539,2605.5369,,102,102,,,,,,,,,,,,,,,,bars/017.png,bars/mask008.png,,,,,,,,,,,,0,1,,,,,,,2,2,1,2,,,,,,,,,,,2604.9748,2605.3539,2605.537,2608.0293,space,2.3333,0.0004,2608.0294,43,57,2608.9439,2608.9439,2608.9592,,,,0,49,49,49,1,145,45,,,,,,,,
,,61066ca9d595665c412acb71,65af54814aa07d90bbee3cb3,2024-01-23_09h02.13.358,bars,2023.2.3,Win32,6.00024001,657b66ea316d21385b68909f,,,,,,,,,,,,,,,,,,,,,,,,,,,,,,,,,,,,,,,,,,,,,,,,,,,,,,,,,,,,,,,,,,,,,,,,,,,,,,,,,,,,,,,,,,,,,2608.9593,2668.9637,0,3,3,0,1,sequence_tables/blk020.csv
,,61066ca9d595665c412acb71,65af54814aa07d90bbee3cb3,2024-01-23_09h02.13.358,bars,2023.2.3,Win32,6.00024001,657b66ea316d21385b68909f,,,,,,,,,,,2670.0965,2670.9625,,,2671.5181,2671.6904,,159,159,,,,,,,,,,,,,,,,bars/032.png,bars/mask004.png,,,,,,,,,,,,0,1,,,,,,,9,8,9,9,,,,,,2668.9779,2670.0924,space,0.9423,0.0003,2670.9625,2671.518,2671.6905,2671.8576,space,0.0091,,2671.8576,34,41,2672.777,2672.777,2672.7779,,,,0,0,0,0,1,125,20,,,,,,,,
,,61066ca9d595665c412acb71,65af54814aa07d90bbee3cb3,2024-01-23_09h02.13.358,bars,2023.2.3,Win32,6.00024001,657b66ea316d21385b68909f,,,,,,,,,,,2672.7782,2673.6451,,,2674.0197,2674.2211,,110,110,,,,,,,,,,,,,,,,bars/049.png,bars/mask000.png,,,,,,,,,,,,8,2,,,,,,,7,10,7,10,,,,,,,,,,,2673.6452,2674.0196,2674.2211,2674.5534,space,0.1743,0.0002,2674.5534,50,5,2675.4527,2675.4527,2675.455,,,,0,1,1,1,1,160,115,,,,,,,,
,,61066ca9d595665c412acb71,65af54814aa07d90bbee3cb3,2024-01-23_09h02.13.358,bars,2023.2.3,Win32,6.00024001,657b66ea316d21385b68909f,,,,,,,,,,,2675.4553,2676.3484,,,2676.8889,2677.0831,,51,51,,,,,,,,,,,,,,,,bars/020.png,bars/mask006.png,,,,,,,,,,,,0,2,,,,,,,9,10,9,10,,,,,,,,,,,2676.3485,2676.8889,2677.0832,2677.2494,space,0.0076,1E-04,2677.2495,64,61,2678.1266,2678.1266,2678.1281,,,,0,2,2,2,1,115,170,,,,,,,,
,,61066ca9d595665c412acb71,65af54814aa07d90bbee3cb3,2024-01-23_09h02.13.358,bars,2023.2.3,Win32,6.00024001,657b66ea316d21385b68909f,,,,,,,,,,,2678.1284,2679.0225,,,2679.3858,2679.5766,,150,150,,,,,,,,,,,,,,,,bars/009.png,bars/mask006.png,,,,,,,,,,,,0,2,,,,,,,7,8,8,6,,,,,,,,,,,2679.0225,2679.3857,2679.5767,2679.7608,space,0.0091,0.0002,2679.7609,45,45,2680.6383,2680.6383,2680.6392,,,,0,3,3,3,1,15,105,,,,,,,,
,,61066ca9d595665c412acb71,65af54814aa07d90bbee3cb3,2024-01-23_09h02.13.358,bars,2023.2.3,Win32,6.00024001,657b66ea316d21385b68909f,,,,,,,,,,,2680.6394,2681.5137,,,2681.8775,2682.0749,,176,176,,,,,,,,,,,,,,,,bars/047.png,bars/mask003.png,,,,,,,,,,,,2,1,,,,,,,5,10,6,10,,,,,,,,,,,2681.5138,2681.8775,2682.075,2683.301,space,1.0693,0.0004,2683.3011,19,74,2684.1929,2684.193,2684.1952,,,,0,4,4,4,1,15,70,,,,,,,,
,,61066ca9d595665c412acb71,65af54814aa07d90bbee3cb3,2024-01-23_09h02.13.358,bars,2023.2.3,Win32,6.00024001,657b66ea316d21385b68909f,,,,,,,,,,,2684.1956,2685.0842,,,2685.6164,2685.8187,,27,27,,,,,,,,,,,,,,,,bars/020.png,bars/mask006.png,,,,,,,,,,,,0,2,,,,,,,7,8,7,8,,,,,,,,,,,2685.0842,2685.6164,2685.8187,2686.189,space,0.1929,0.0002,2686.189,88,37,2687.0659,2687.0659,2687.068,,,,0,5,5,5,1,115,170,,,,,,,,
,,61066ca9d595665c412acb71,65af54814aa07d90bbee3cb3,2024-01-23_09h02.13.358,bars,2023.2.3,Win32,6.00024001,657b66ea316d21385b68909f,,,,,,,,,,,2687.0684,2687.947,,,2688.5039,2688.6959,,126,126,,,,,,,,,,,,,,,,bars/006.png,bars/mask007.png,,,,,,,,,,,,1,2,,,,,,,9,6,9,5,,,,,,,,,,,2687.947,2688.5038,2688.6959,2689.22,space,0.3396,0.0002,2689.2201,89,26,2690.0992,2690.0992,2690.1003,,,,0,6,6,6,1,35,100,,,,,,,,
,,61066ca9d595665c412acb71,65af54814aa07d90bbee3cb3,2024-01-23_09h02.13.358,bars,2023.2.3,Win32,6.00024001,657b66ea316d21385b68909f,,,,,,,,,,,2690.1006,2690.9808,,,2691.3571,2691.5489,,171,171,,,,,,,,,,,,,,,,bars/031.png,bars/mask007.png,,,,,,,,,,,,0,2,,,,,,,7,4,7,2,,,,,,,,,,,2690.9809,2691.3569,2691.549,2691.7449,space,0.0092,0.0003,2691.7449,51,44,2692.767,2692.767,2692.768,,,,0,7,7,7,1,120,35,,,,,,,,
,,61066ca9d595665c412acb71,65af54814aa07d90bbee3cb3,2024-01-23_09h02.13.358,bars,2023.2.3,Win32,6.00024001,657b66ea316d21385b68909f,,,,,,,,,,,2692.7684,2693.6534,,,2694.0194,2694.1924,,15,15,,,,,,,,,,,,,,,,bars/047.png,bars/mask000.png,,,,,,,,,,,,6,1,,,,,,,5,2,6,3,,,,,,,,,,,2693.6534,2694.0193,2694.1924,2694.5821,space,0.2078,,2694.5822,0,55,2695.6016,2695.6017,2695.6035,,,,0,8,8,8,1,15,70,,,,,,,,
