init_variables.started,init_variables.stopped,participant,session,date,expName,psychopyVersion,OS,frameRate,study_id,instruction_exp.started,instruction_exp.stopped,key_resp_8.keys,key_resp_8.rt,key_resp_8.duration,instruction_single.started,instruction_single.stopped,key_resp_2.keys,key_resp_2.rt,key_resp_2.duration,interval.started,interval.stopped,cue_single.started,cue_single.stopped,mask.started,mask.stopped,ori_response_single.started,res_ori,res,ori_response_single.stopped,key_resp_single.keys,key_resp_single.rt,key_resp_single.duration,disp_single.started,disp_single.stopped,key_resp.keys,key_resp.rt,key_resp.duration,single.thisRepN,single.thisTrialN,single.thisN,single.thisIndex,single.ran,ori,path,mask_path,instruction_bandit.started,instruction_bandit.stopped,key_resp_6.keys,key_resp_6.rt,key_resp_6.duration,cue_bandit.started,cue_bandit.stopped,bandit_res.keys,bandit_res.rt,bandit_res.duration,outcome_bandit.started,rew,action,outcome_bandit.stopped,bandit.thisRepN,bandit.thisTrialN,bandit.thisN,bandit.thisIndex,bandit.ran,actual_rew1,actual_rew2,rew1,rew2,instruction_task.started,instruction_task.stopped,key_resp_7.keys,key_resp_7.rt,key_resp_7.duration,wait_ready.started,wait_ready.stopped,key_resp_3.keys,key_resp_3.rt,key_resp_3.duration,cue.started,cue.stopped,ori_response.started,ori_response.stopped,key_resp_5.keys,key_resp_5.rt,key_resp_5.duration,outcome.started,diff1,diff2,outcome.stopped,disp_outcome_practice.started,disp_outcome_practice.stopped,key_resp_4.keys,key_resp_4.rt,key_resp_4.duration,trials.thisRepN,trials.thisTrialN,trials.thisN,trials.thisIndex,trials.ran,ori1,ori2,break_blk.started,break_blk.stopped,block.thisRepN,block.thisTrialN,block.thisN,block.thisIndex,block.ran,condition_file
0.0007,0.0009,6452a0c8687cf626aa4dc721,65af5696cf3d8856f5c0ca71,2024-01-23_08h17.00.658,bars,2023.2.3,Win32,59.88023952,657b66ea316d21385b68909f,,,,,,,,,,,,,,,,,,,,,,,,,,,,,,,,,,,,,,,,,,,,,,,,,,,,,,,,,,,,,,,,,,,,,,,,,,,,,,,,,,,,,,,,,,,,,,,,,,,,
,,6452a0c8687cf626aa4dc721,65af5696cf3d8856f5c0ca71,2024-01-23_08h17.00.658,bars,2023.2.3,Win32,59.88023952,657b66ea316d21385b68909f,0.0012,10.5869,y,10.3358,,,,,,,,,,,,,,,,,,,,,,,,,,,,,,,,,,,,,,,,,,,,,,,,,,,,,,,,,,,,,,,,,,,,,,,,,,,,,,,,,,,,,,,,,,,,,,,,
,,6452a0c8687cf626aa4dc721,65af5696cf3d8856f5c0ca71,2024-01-23_08h17.00.658,bars,2023.2.3,Win32,59.88023952,657b66ea316d21385b68909f,,,,,,10.5872,31.7306,space,21.1272,,,,,,,,,,,,,,,,,,,,,,,,,,,,,,,,,,,,,,,,,,,,,,,,,,,,,,,,,,,,,,,,,,,,,,,,,,,,,,,,,,,,,,,,,,,
,,6452a0c8687cf626aa4dc721,65af5696cf3d8856f5c0ca71,2024-01-23_08h17.00.658,bars,2023.2.3,Win32,59.88023952,657b66ea316d21385b68909f,,,,,,,,,,,31.7409,32.7316,32.7317,33.221,33.2212,33.4711,33.4712,0,0,47.4456,space,13.7676,,47.4459,65.1776,space,17.6902,,0,0,0,5,1,55,bars/single005.png,bars/mask008.png,,,,,,,,,,,,,,,,,,,,,,,,,,,,,,,,,,,,,,,,,,,,,,,,,,,,,,,,,,,,,,,,
,,6452a0c8687cf626aa4dc721,65af5696cf3d8856f5c0ca71,2024-01-23_08h17.00.658,bars,2023.2.3,Win32,59.88023952,657b66ea316d21385b68909f,,,,,,,,,,,65.1881,66.1904,66.1907,66.6901,66.6901,66.94,66.94,0,0,72.7552,space,5.7969,,72.7552,82.6043,space,9.825,,0,1,1,9,1,20,bars/single009.png,bars/mask006.png,,,,,,,,,,,,,,,,,,,,,,,,,,,,,,,,,,,,,,,,,,,,,,,,,,,,,,,,,,,,,,,,
,,6452a0c8687cf626aa4dc721,65af5696cf3d8856f5c0ca71,2024-01-23_08h17.00.658,bars,2023.2.3,Win32,59.88023952,657b66ea316d21385b68909f,,,,,,,,,,,82.6176,83.6196,83.6199,84.1192,84.1193,84.3695,84.3696,122,122,88.953,space,4.5515,,88.9534,94.5166,space,5.5321,,0,2,2,3,1,20,bars/single003.png,bars/mask005.png,,,,,,,,,,,,,,,,,,,,,,,,,,,,,,,,,,,,,,,,,,,,,,,,,,,,,,,,,,,,,,,,
,,6452a0c8687cf626aa4dc721,65af5696cf3d8856f5c0ca71,2024-01-23_08h17.00.658,bars,2023.2.3,Win32,59.88023952,657b66ea316d21385b68909f,,,,,,,,,,,94.5278,95.5162,95.5163,96.0164,96.0164,96.2662,96.2662,0,180,101.915,space,5.6401,,101.915,105.9642,space,4.0249,,0,3,3,6,1,175,bars/single006.png,bars/mask005.png,,,,,,,,,,,,,,,,,,,,,,,,,,,,,,,,,,,,,,,,,,,,,,,,,,,,,,,,,,,,,,,,
,,6452a0c8687cf626aa4dc721,65af5696cf3d8856f5c0ca71,2024-01-23_08h17.00.658,bars,2023.2.3,Win32,59.88023952,657b66ea316d21385b68909f,,,,,,,,,,,105.9753,106.9637,106.9638,107.4636,107.4637,107.7135,107.7136,91,91,112.6625,space,4.9387,,112.6626,117.7946,space,5.1003,,0,4,4,4,1,95,bars/single004.png,bars/mask004.png,,,,,,,,,,,,,,,,,,,,,,,,,,,,,,,,,,,,,,,,,,,,,,,,,,,,,,,,,,,,,,,,
,,6452a0c8687cf626aa4dc721,65af5696cf3d8856f5c0ca71,2024-01-23_08h17.00.658,bars,2023.2.3,Win32,59.88023952,657b66ea316d21385b68909f,,,,,,,,,,,117.8061,118.7942,118.7942,119.2941,119.2941,119.5441,119.5441,39,39,125.8759,space,6.3217,,125.8761,130.0762,space,4.1764,,0,5,5,7,1,45,bars/single007.png,bars/mask009.png,,,,,,,,,,,,,,,,,,,,,,,,,,,,,,,,,,,,,,,,,,,,,,,,,,,,,,,,,,,,,,,,
,,6452a0c8687cf626aa4dc721,65af5696cf3d8856f5c0ca71,2024-01-23_08h17.00.658,bars,2023.2.3,Win32,59.88023952,657b66ea316d21385b68909f,,,,,,,,,,,130.0874,131.0925,131.0927,131.5911,131.5912,131.8411,131.8412,140,-40,139.1895,space,7.3348,,139.1895,143.5381,space,4.3266,,0,6,6,2,1,145,bars/single002.png,bars/mask003.png,,,,,,,,,,,,,,,,,,,,,,,,,,,,,,,,,,,,,,,,,,,,,,,,,,,,,,,,,,,,,,,,
,,6452a0c8687cf626aa4dc721,65af5696cf3d8856f5c0ca71,2024-01-23_08h17.00.658,bars,2023.2.3,Win32,59.88023952,657b66ea316d21385b68909f,,,,,,,,,,,143.5498,144.5381,144.5382,145.0379,145.038,145.2879,145.2879,159,159,149.3703,space,4.0683,,149.3704,153.4026,space,4.0054,,0,7,7,8,1,160,bars/single008.png,bars/mask004.png,,,,,,,,,,,,,,,,,,,,,,,,,,,,,,,,,,,,,,,,,,,,,,,,,,,,,,,,,,,,,,,,
,,6452a0c8687cf626aa4dc721,65af5696cf3d8856f5c0ca71,2024-01-23_08h17.00.658,bars,2023.2.3,Win32,59.88023952,657b66ea316d21385b68909f,,,,,,,,,,,153.4159,154.4189,154.4189,154.9188,154.9188,155.1582,155.1582,25,25,159.3177,space,4.1444,,159.3177,164.9,space,5.5566,,0,8,8,1,1,20,bars/single001.png,bars/mask006.png,,,,,,,,,,,,,,,,,,,,,,,,,,,,,,,,,,,,,,,,,,,,,,,,,,,,,,,,,,,,,,,,
,,6452a0c8687cf626aa4dc721,65af5696cf3d8856f5c0ca71,2024-01-23_08h17.00.658,bars,2023.2.3,Win32,59.88023952,657b66ea316d21385b68909f,,,,,,,,,,,164.9119,165.8996,165.8996,166.3995,166.3995,166.6494,166.6494,144,144,171.765,space,5.1059,,171.765,175.0974,space,3.3139,,0,9,9,0,1,150,bars/single000.png,bars/mask006.png,,,,,,,,,,,,,,,,,,,,,,,,,,,,,,,,,,,,,,,,,,,,,,,,,,,,,,,,,,,,,,,,
,,6452a0c8687cf626aa4dc721,65af5696cf3d8856f5c0ca71,2024-01-23_08h17.00.658,bars,2023.2.3,Win32,59.88023952,657b66ea316d21385b68909f,,,,,,,,,,,,,,,,,,,,,,,,,,,,,,,,,,,,,175.1644,188.4642,space,13.2432,,,,,,,,,,,,,,,,,,,,,,,,,,,,,,,,,,,,,,,,,,,,,,,,,,,,,,,,,,,,
,,6452a0c8687cf626aa4dc721,65af5696cf3d8856f5c0ca71,2024-01-23_08h17.00.658,bars,2023.2.3,Win32,59.88023952,657b66ea316d21385b68909f,,,,,,,,,,,,,,,,,,,,,,,,,,,,,,,,,,,,,,,,,,188.4762,192.0464,right,3.5513,,192.0471,2,2,193.044,0,0,0,0,1,9,1,9,2,,,,,,,,,,,,,,,,,,,,,,,,,,,,,,,,,,,,,,,,,
,,6452a0c8687cf626aa4dc721,65af5696cf3d8856f5c0ca71,2024-01-23_08h17.00.658,bars,2023.2.3,Win32,59.88023952,657b66ea316d21385b68909f,,,,,,,,,,,,,,,,,,,,,,,,,,,,,,,,,,,,,,,,,,193.0464,195.5608,right,2.4906,,195.5613,1,2,196.5592,0,1,1,1,1,10,0,10,1,,,,,,,,,,,,,,,,,,,,,,,,,,,,,,,,,,,,,,,,,
,,6452a0c8687cf626aa4dc721,65af5696cf3d8856f5c0ca71,2024-01-23_08h17.00.658,bars,2023.2.3,Win32,59.88023952,657b66ea316d21385b68909f,,,,,,,,,,,,,,,,,,,,,,,,,,,,,,,,,,,,,,,,,,196.5707,198.0766,left,1.4848,,198.0769,10,1,199.0806,0,2,2,2,1,10,2,10,2,,,,,,,,,,,,,,,,,,,,,,,,,,,,,,,,,,,,,,,,,
,,6452a0c8687cf626aa4dc721,65af5696cf3d8856f5c0ca71,2024-01-23_08h17.00.658,bars,2023.2.3,Win32,59.88023952,657b66ea316d21385b68909f,,,,,,,,,,,,,,,,,,,,,,,,,,,,,,,,,,,,,,,,,,199.081,201.6483,right,2.5512,,201.6483,3,2,202.6413,0,3,3,3,1,8,4,7,3,,,,,,,,,,,,,,,,,,,,,,,,,,,,,,,,,,,,,,,,,
,,6452a0c8687cf626aa4dc721,65af5696cf3d8856f5c0ca71,2024-01-23_08h17.00.658,bars,2023.2.3,Win32,59.88023952,657b66ea316d21385b68909f,,,,,,,,,,,,,,,,,,,,,,,,,,,,,,,,,,,,,,,,,,202.6525,203.4757,left,0.8044,,203.4761,5,1,204.4739,0,4,4,4,1,6,2,5,1,,,,,,,,,,,,,,,,,,,,,,,,,,,,,,,,,,,,,,,,,
,,6452a0c8687cf626aa4dc721,65af5696cf3d8856f5c0ca71,2024-01-23_08h17.00.658,bars,2023.2.3,Win32,59.88023952,657b66ea316d21385b68909f,,,,,,,,,,,,,,,,,,,,,,,,,,,,,,,,,,,,,,,,,,204.4754,205.325,left,0.8264,,205.3253,4,1,206.3235,0,5,5,5,1,4,4,4,4,,,,,,,,,,,,,,,,,,,,,,,,,,,,,,,,,,,,,,,,,
,,6452a0c8687cf626aa4dc721,65af5696cf3d8856f5c0ca71,2024-01-23_08h17.00.658,bars,2023.2.3,Win32,59.88023952,657b66ea316d21385b68909f,,,,,,,,,,,,,,,,,,,,,,,,,,,,,,,,,,,,,,,,,,206.3249,206.8245,left,0.4767,,206.8248,1,1,207.8235,0,6,6,6,1,2,2,1,2,,,,,,,,,,,,,,,,,,,,,,,,,,,,,,,,,,,,,,,,,
,,6452a0c8687cf626aa4dc721,65af5696cf3d8856f5c0ca71,2024-01-23_08h17.00.658,bars,2023.2.3,Win32,59.88023952,657b66ea316d21385b68909f,,,,,,,,,,,,,,,,,,,,,,,,,,,,,,,,,,,,,,,,,,207.8257,208.6789,left,0.833,,208.679,0,1,209.6734,0,7,7,7,1,0,0,0,1,,,,,,,,,,,,,,,,,,,,,,,,,,,,,,,,,,,,,,,,,
,,6452a0c8687cf626aa4dc721,65af5696cf3d8856f5c0ca71,2024-01-23_08h17.00.658,bars,2023.2.3,Win32,59.88023952,657b66ea316d21385b68909f,,,,,,,,,,,,,,,,,,,,,,,,,,,,,,,,,,,,,,,,,,209.6753,210.3068,right,0.6027,,210.307,0,2,211.3057,0,8,8,8,1,0,2,1,0,,,,,,,,,,,,,,,,,,,,,,,,,,,,,,,,,,,,,,,,,
,,6452a0c8687cf626aa4dc721,65af5696cf3d8856f5c0ca71,2024-01-23_08h17.00.658,bars,2023.2.3,Win32,59.88023952,657b66ea316d21385b68909f,,,,,,,,,,,,,,,,,,,,,,,,,,,,,,,,,,,,,,,,,,211.3073,211.7399,left,0.4033,,211.7402,2,1,212.7386,0,9,9,9,1,2,4,2,3,,,,,,,,,,,,,,,,,,,,,,,,,,,,,,,,,,,,,,,,,
,,6452a0c8687cf626aa4dc721,65af5696cf3d8856f5c0ca71,2024-01-23_08h17.00.658,bars,2023.2.3,Win32,59.88023952,657b66ea316d21385b68909f,,,,,,,,,,,,,,,,,,,,,,,,,,,,,,,,,,,,,,,,,,212.7405,213.1943,left,0.4339,,213.1943,0,1,214.1883,0,10,10,10,1,0,2,0,3,,,,,,,,,,,,,,,,,,,,,,,,,,,,,,,,,,,,,,,,,
,,6452a0c8687cf626aa4dc721,65af5696cf3d8856f5c0ca71,2024-01-23_08h17.00.658,bars,2023.2.3,Win32,59.88023952,657b66ea316d21385b68909f,,,,,,,,,,,,,,,,,,,,,,,,,,,,,,,,,,,,,,,,,,214.19,215.1892,right,0.9723,,215.1895,3,2,216.1933,0,11,11,11,1,0,4,0,3,,,,,,,,,,,,,,,,,,,,,,,,,,,,,,,,,,,,,,,,,
,,6452a0c8687cf626aa4dc721,65af5696cf3d8856f5c0ca71,2024-01-23_08h17.00.658,bars,2023.2.3,Win32,59.88023952,657b66ea316d21385b68909f,,,,,,,,,,,,,,,,,,,,,,,,,,,,,,,,,,,,,,,,,,216.1938,216.6935,left,0.4829,,216.6936,1,1,217.6873,0,12,12,12,1,2,6,1,6,,,,,,,,,,,,,,,,,,,,,,,,,,,,,,,,,,,,,,,,,
,,6452a0c8687cf626aa4dc721,65af5696cf3d8856f5c0ca71,2024-01-23_08h17.00.658,bars,2023.2.3,Win32,59.88023952,657b66ea316d21385b68909f,,,,,,,,,,,,,,,,,,,,,,,,,,,,,,,,,,,,,,,,,,217.6889,218.0721,left,0.3601,,218.0724,1,1,219.0702,0,13,13,13,1,0,4,1,3,,,,,,,,,,,,,,,,,,,,,,,,,,,,,,,,,,,,,,,,,
,,6452a0c8687cf626aa4dc721,65af5696cf3d8856f5c0ca71,2024-01-23_08h17.00.658,bars,2023.2.3,Win32,59.88023952,657b66ea316d21385b68909f,,,,,,,,,,,,,,,,,,,,,,,,,,,,,,,,,,,,,,,,,,219.0717,219.5709,left,0.4745,,219.571,2,1,220.57,0,14,14,14,1,2,6,2,7,,,,,,,,,,,,,,,,,,,,,,,,,,,,,,,,,,,,,,,,,
,,6452a0c8687cf626aa4dc721,65af5696cf3d8856f5c0ca71,2024-01-23_08h17.00.658,bars,2023.2.3,Win32,59.88023952,657b66ea316d21385b68909f,,,,,,,,,,,,,,,,,,,,,,,,,,,,,,,,,,,,,,,,,,220.5714,220.9877,left,0.3904,,220.9878,3,1,221.9863,0,15,15,15,1,4,8,3,9,,,,,,,,,,,,,,,,,,,,,,,,,,,,,,,,,,,,,,,,,
,,6452a0c8687cf626aa4dc721,65af5696cf3d8856f5c0ca71,2024-01-23_08h17.00.658,bars,2023.2.3,Win32,59.88023952,657b66ea316d21385b68909f,,,,,,,,,,,,,,,,,,,,,,,,,,,,,,,,,,,,,,,,,,221.9877,222.2378,right,0.2242,,222.2381,7,2,223.236,0,16,16,16,1,6,6,7,7,,,,,,,,,,,,,,,,,,,,,,,,,,,,,,,,,,,,,,,,,
,,6452a0c8687cf626aa4dc721,65af5696cf3d8856f5c0ca71,2024-01-23_08h17.00.658,bars,2023.2.3,Win32,59.88023952,657b66ea316d21385b68909f,,,,,,,,,,,,,,,,,,,,,,,,,,,,,,,,,,,,,,,,,,223.2374,223.8539,right,0.5853,,223.854,5,2,224.8521,0,17,17,17,1,8,4,9,5,,,,,,,,,,,,,,,,,,,,,,,,,,,,,,,,,,,,,,,,,
,,6452a0c8687cf626aa4dc721,65af5696cf3d8856f5c0ca71,2024-01-23_08h17.00.658,bars,2023.2.3,Win32,59.88023952,657b66ea316d21385b68909f,,,,,,,,,,,,,,,,,,,,,,,,,,,,,,,,,,,,,,,,,,224.8535,226.8197,left,1.9379,,226.8199,5,1,227.8183,0,18,18,18,1,6,2,5,1,,,,,,,,,,,,,,,,,,,,,,,,,,,,,,,,,,,,,,,,,
,,6452a0c8687cf626aa4dc721,65af5696cf3d8856f5c0ca71,2024-01-23_08h17.00.658,bars,2023.2.3,Win32,59.88023952,657b66ea316d21385b68909f,,,,,,,,,,,,,,,,,,,,,,,,,,,,,,,,,,,,,,,,,,227.8198,228.2194,right,0.3705,,228.2197,0,2,229.2193,0,19,19,19,1,8,0,7,0,,,,,,,,,,,,,,,,,,,,,,,,,,,,,,,,,,,,,,,,,
,,6452a0c8687cf626aa4dc721,65af5696cf3d8856f5c0ca71,2024-01-23_08h17.00.658,bars,2023.2.3,Win32,59.88023952,657b66ea316d21385b68909f,,,,,,,,,,,,,,,,,,,,,,,,,,,,,,,,,,,,,,,,,,,,,,,,,,,,,,,,,,,,229.2217,243.0712,space,13.8305,,,,,,,,,,,,,,,,,,,,,,,,,,,,,,,,,,,,,
,,6452a0c8687cf626aa4dc721,65af5696cf3d8856f5c0ca71,2024-01-23_08h17.00.658,bars,2023.2.3,Win32,59.88023952,657b66ea316d21385b68909f,,,,,,,,,,,244.9552,245.9473,,,246.447,246.6969,,92,272,,,,,,,,,,,,,,,,bars/002.png,bars/mask008.png,,,,,,,,,,,,0,2,,,,,,,4,1,3,0,,,,,,243.0865,244.9491,space,1.844,,245.9481,246.447,246.6971,253.5624,space,6.8501,,253.5627,38,7,254.5617,254.5619,268.2424,space,13.6636,,0,0,0,0,1,130,85,,,,,,,,
,,6452a0c8687cf626aa4dc721,65af5696cf3d8856f5c0ca71,2024-01-23_08h17.00.658,bars,2023.2.3,Win32,59.88023952,657b66ea316d21385b68909f,,,,,,,,,,,268.2567,269.2581,,,269.7579,270.0138,,64,64,,,,,,,,,,,,,,,,bars/034.png,bars/mask002.png,,,,,,,,,,,,0,2,,,,,,,6,0,5,0,,,,,,,,,,,269.2582,269.7578,270.0139,272.8749,space,2.8375,,272.8757,61,1,273.8738,273.874,281.6561,space,7.7516,,0,1,1,1,1,125,65,,,,,,,,
,,6452a0c8687cf626aa4dc721,65af5696cf3d8856f5c0ca71,2024-01-23_08h17.00.658,bars,2023.2.3,Win32,59.88023952,657b66ea316d21385b68909f,,,,,,,,,,,281.6685,282.6716,,,283.1719,283.4218,,162,-18,,,,,,,,,,,,,,,,bars/007.png,bars/mask004.png,,,,,,,,,,,,2,1,,,,,,,4,0,4,3,,,,,,,,,,,282.6719,283.1718,283.422,288.2714,space,4.8174,,288.2717,13,73,289.2701,289.2703,293.892,space,4.5968,,0,2,2,2,1,175,55,,,,,,,,
,,6452a0c8687cf626aa4dc721,65af5696cf3d8856f5c0ca71,2024-01-23_08h17.00.658,bars,2023.2.3,Win32,59.88023952,657b66ea316d21385b68909f,,,,,,,,,,,293.9008,294.9023,,,295.4018,295.6516,,148,148,,,,,,,,,,,,,,,,bars/030.png,bars/mask009.png,,,,,,,,,,,,2,1,,,,,,,2,2,3,1,,,,,,,,,,,294.9026,295.4018,295.6517,300.5509,space,4.88,,300.5509,8,83,301.5504,301.5504,304.8996,space,3.3188,,0,3,3,3,1,140,65,,,,,,,,
,,6452a0c8687cf626aa4dc721,65af5696cf3d8856f5c0ca71,2024-01-23_08h17.00.658,bars,2023.2.3,Win32,59.88023952,657b66ea316d21385b68909f,,,,,,,,,,,304.9104,305.8993,,,306.3991,306.6492,,34,34,,,,,,,,,,,,,,,,bars/028.png,bars/mask006.png,,,,,,,,,,,,3,1,,,,,,,4,4,4,4,,,,,,,,,,,305.8993,306.399,306.6492,313.7977,space,7.1332,,313.7978,11,86,314.7969,314.7969,318.7631,space,3.9389,,0,4,4,4,1,45,120,,,,,,,,
,,6452a0c8687cf626aa4dc721,65af5696cf3d8856f5c0ca71,2024-01-23_08h17.00.658,bars,2023.2.3,Win32,59.88023952,657b66ea316d21385b68909f,,,,,,,,,,,318.775,319.7626,,,320.2536,320.4963,,179,-1,,,,,,,,,,,,,,,,bars/009.png,bars/mask004.png,,,,,,,,,,,,1,1,,,,,,,2,6,2,6,,,,,,,,,,,319.7626,320.2535,320.4965,324.3791,space,3.858,,324.3797,16,74,325.3785,325.3787,330.9113,space,5.5007,,0,5,5,5,1,15,105,,,,,,,,
,,6452a0c8687cf626aa4dc721,65af5696cf3d8856f5c0ca71,2024-01-23_08h17.00.658,bars,2023.2.3,Win32,59.88023952,657b66ea316d21385b68909f,,,,,,,,,,,330.9222,331.9105,,,332.4111,332.6656,,7,187,,,,,,,,,,,,,,,,bars/009.png,bars/mask009.png,,,,,,,,,,,,4,1,,,,,,,4,4,5,4,,,,,,,,,,,331.9108,332.4109,332.6657,337.1761,space,4.4923,,337.1765,8,82,338.1753,338.1757,340.2588,space,2.0511,,0,6,6,6,1,15,105,,,,,,,,
,,6452a0c8687cf626aa4dc721,65af5696cf3d8856f5c0ca71,2024-01-23_08h17.00.658,bars,2023.2.3,Win32,59.88023952,657b66ea316d21385b68909f,,,,,,,,,,,340.2616,341.258,,,341.7573,342.0071,,20,200,,,,,,,,,,,,,,,,bars/016.png,bars/mask002.png,,,,,,,,,,,,0,1,,,,,,,2,6,1,5,,,,,,,,,,,341.2582,341.7573,342.0071,345.5399,space,3.5168,,345.54,20,35,346.5394,346.5395,349.8221,space,3.2589,,0,7,7,7,1,40,165,,,,,,,,
,,6452a0c8687cf626aa4dc721,65af5696cf3d8856f5c0ca71,2024-01-23_08h17.00.658,bars,2023.2.3,Win32,59.88023952,657b66ea316d21385b68909f,,,,,,,,,,,349.8226,350.8217,,,351.3215,351.5716,,144,144,,,,,,,,,,,,,,,,bars/002.png,bars/mask000.png,,,,,,,,,,,,0,1,,,,,,,0,4,0,5,,,,,,,,,,,350.8217,351.3215,351.5717,355.921,space,4.3339,,355.9211,14,59,356.9203,356.9204,361.1363,space,4.1898,,0,8,8,8,1,130,85,,,,,,,,
,,6452a0c8687cf626aa4dc721,65af5696cf3d8856f5c0ca71,2024-01-23_08h17.00.658,bars,2023.2.3,Win32,59.88023952,657b66ea316d21385b68909f,,,,,,,,,,,361.147,362.1358,,,362.6356,362.8856,,179,179,,,,,,,,,,,,,,,,bars/039.png,bars/mask009.png,,,,,,,,,,,,3,1,,,,,,,2,6,3,5,,,,,,,,,,,362.1358,362.6356,362.8857,366.8846,space,3.9898,,366.8846,4,74,367.8842,367.8842,370.8669,space,2.9569,,0,9,9,9,1,175,105,,,,,,,,
,,6452a0c8687cf626aa4dc721,65af5696cf3d8856f5c0ca71,2024-01-23_08h17.00.658,bars,2023.2.3,Win32,59.88023952,657b66ea316d21385b68909f,,,,,,,,,,,370.8801,371.8832,,,372.3831,372.633,,25,25,,,,,,,,,,,,,,,,bars/016.png,bars/mask008.png,,,,,,,,,,,,4,1,,,,,,,4,8,7,8,,,,,,,,,,,371.8832,372.3831,372.633,381.0312,space,8.3794,,381.0313,15,40,382.0308,382.0309,384.7303,space,2.6706,,0,10,10,10,1,40,165,,,,,,,,
,,6452a0c8687cf626aa4dc721,65af5696cf3d8856f5c0ca71,2024-01-23_08h17.00.658,bars,2023.2.3,Win32,59.88023952,657b66ea316d21385b68909f,,,,,,,,,,,384.7308,385.7299,,,386.2298,386.4804,,146,146,,,,,,,,,,,,,,,,bars/002.png,bars/mask001.png,,,,,,,,,,,,1,1,,,,,,,2,10,3,8,,,,,,,,,,,385.73,386.2298,386.4806,388.8341,space,2.3313,,388.8341,16,61,389.8297,389.8298,391.7796,space,1.9262,,0,11,11,11,1,130,85,,,,,,,,
,,6452a0c8687cf626aa4dc721,65af5696cf3d8856f5c0ca71,2024-01-23_08h17.00.658,bars,2023.2.3,Win32,59.88023952,657b66ea316d21385b68909f,,,,,,,,,,,391.7817,392.7789,,,393.2792,393.5289,,118,118,,,,,,,,,,,,,,,,bars/015.png,bars/mask006.png,,,,,,,,,,,,1,1,,,,,,,0,10,2,10,,,,,,,,,,,392.779,393.279,393.529,399.3503,space,5.7993,,399.3504,8,42,400.3436,400.3438,402.6606,space,2.2841,,0,12,12,12,1,110,160,,,,,,,,
,,6452a0c8687cf626aa4dc721,65af5696cf3d8856f5c0ca71,2024-01-23_08h17.00.658,bars,2023.2.3,Win32,59.88023952,657b66ea316d21385b68909f,,,,,,,,,,,402.6627,403.6593,,,404.1597,404.409,,41,221,,,,,,,,,,,,,,,,bars/019.png,bars/mask002.png,,,,,,,,,,,,2,1,,,,,,,2,8,2,8,,,,,,,,,,,403.6596,404.1595,404.4091,409.5486,space,5.117,,409.5486,4,64,410.5422,410.5424,413.5756,space,2.9981,,0,13,13,13,1,45,105,,,,,,,,
,,6452a0c8687cf626aa4dc721,65af5696cf3d8856f5c0ca71,2024-01-23_08h17.00.658,bars,2023.2.3,Win32,59.88023952,657b66ea316d21385b68909f,,,,,,,,,,,413.5772,414.5736,,,415.0731,415.3228,,137,-43,,,,,,,,,,,,,,,,bars/020.png,bars/mask008.png,,,,,,,,,,,,1,1,,,,,,,4,6,5,5,,,,,,,,,,,414.5737,415.073,415.3229,420.9885,space,5.6497,,420.9886,22,33,421.9881,421.9881,423.938,space,1.9208,,0,14,14,14,1,115,170,,,,,,,,
,,6452a0c8687cf626aa4dc721,65af5696cf3d8856f5c0ca71,2024-01-23_08h17.00.658,bars,2023.2.3,Win32,59.88023952,657b66ea316d21385b68909f,,,,,,,,,,,423.9384,424.9374,,,425.4414,425.6936,,139,139,,,,,,,,,,,,,,,,bars/001.png,bars/mask008.png,,,,,,,,,,,,4,1,,,,,,,6,8,5,8,,,,,,,,,,,424.9374,425.4413,425.6936,432.6089,space,6.8989,,432.609,9,54,433.6031,433.6034,436.706,space,3.0797,,0,15,15,15,1,130,85,,,,,,,,
,,6452a0c8687cf626aa4dc721,65af5696cf3d8856f5c0ca71,2024-01-23_08h17.00.658,bars,2023.2.3,Win32,59.88023952,657b66ea316d21385b68909f,,,,,,,,,,,436.7154,437.7176,,,438.2176,438.4676,,155,155,,,,,,,,,,,,,,,,bars/049.png,bars/mask001.png,,,,,,,,,,,,7,1,,,,,,,8,6,8,7,,,,,,,,,,,437.7177,438.2176,438.4676,443.7331,space,5.2498,,443.7333,5,40,444.7327,444.7327,449.7984,space,5.0364,,0,16,16,16,1,160,115,,,,,,,,
,,6452a0c8687cf626aa4dc721,65af5696cf3d8856f5c0ca71,2024-01-23_08h17.00.658,bars,2023.2.3,Win32,59.88023952,657b66ea316d21385b68909f,,,,,,,,,,,449.8097,450.7979,,,451.2978,451.5477,,22,202,,,,,,,,,,,,,,,,bars/023.png,bars/mask002.png,,,,,,,,,,,,9,1,,,,,,,10,4,10,3,,,,,,,,,,,450.798,451.2978,451.5477,455.3801,space,3.8223,,455.3802,2,87,456.3797,456.3797,462.2619,space,5.8602,,0,17,17,17,1,20,115,,,,,,,,
,,6452a0c8687cf626aa4dc721,65af5696cf3d8856f5c0ca71,2024-01-23_08h17.00.658,bars,2023.2.3,Win32,59.88023952,657b66ea316d21385b68909f,,,,,,,,,,,462.2739,463.2617,,,463.7507,463.9958,,59,59,,,,,,,,,,,,,,,,bars/044.png,bars/mask001.png,,,,,,,,,,,,5,1,,,,,,,10,2,10,2,,,,,,,,,,,463.2617,463.7507,463.9959,469.7111,space,5.6847,,469.7114,16,84,470.7104,470.7105,472.0171,space,1.2831,,0,18,18,18,1,75,155,,,,,,,,
,,6452a0c8687cf626aa4dc721,65af5696cf3d8856f5c0ca71,2024-01-23_08h17.00.658,bars,2023.2.3,Win32,59.88023952,657b66ea316d21385b68909f,,,,,,,,,,,472.0174,473.0093,,,473.5091,473.7593,,100,100,,,,,,,,,,,,,,,,bars/027.png,bars/mask005.png,,,,,,,,,,,,6,1,,,,,,,8,4,9,4,,,,,,,,,,,473.0095,473.509,473.7593,477.375,space,3.5968,,477.3751,10,50,478.3743,478.3744,480.2742,space,1.879,,0,19,19,19,1,110,50,,,,,,,,
,,6452a0c8687cf626aa4dc721,65af5696cf3d8856f5c0ca71,2024-01-23_08h17.00.658,bars,2023.2.3,Win32,59.88023952,657b66ea316d21385b68909f,,,,,,,,,,,480.2746,481.2738,,,481.7737,482.0237,,32,32,,,,,,,,,,,,,,,,bars/041.png,bars/mask001.png,,,,,,,,,,,,6,1,,,,,,,10,2,10,3,,,,,,,,,,,481.2738,481.7737,482.0238,487.0892,space,5.0458,,487.0893,12,53,488.089,488.089,489.5554,space,1.4398,,0,20,20,20,1,20,85,,,,,,,,
,,6452a0c8687cf626aa4dc721,65af5696cf3d8856f5c0ca71,2024-01-23_08h17.00.658,bars,2023.2.3,Win32,59.88023952,657b66ea316d21385b68909f,,,,,,,,,,,489.5559,490.5553,,,491.0553,491.3051,,89,89,,,,,,,,,,,,,,,,bars/017.png,bars/mask001.png,,,,,,,,,,,,0,2,,,,,,,10,0,9,0,,,,,,,,,,,490.5554,491.0551,491.3053,495.4547,space,4.1184,,495.4548,56,44,496.455,496.4552,499.4363,space,2.915,,0,21,21,21,1,145,45,,,,,,,,
,,6452a0c8687cf626aa4dc721,65af5696cf3d8856f5c0ca71,2024-01-23_08h17.00.658,bars,2023.2.3,Win32,59.88023952,657b66ea316d21385b68909f,,,,,,,,,,,499.4481,500.4361,,,500.9358,501.1857,,42,222,,,,,,,,,,,,,,,,bars/043.png,bars/mask007.png,,,,,,,,,,,,4,1,,,,,,,8,0,7,0,,,,,,,,,,,500.4361,500.9356,501.1858,506.6512,space,5.4495,,506.6513,12,88,507.6509,507.651,508.5675,space,0.8822,,0,22,22,22,1,30,130,,,,,,,,
,,6452a0c8687cf626aa4dc721,65af5696cf3d8856f5c0ca71,2024-01-23_08h17.00.658,bars,2023.2.3,Win32,59.88023952,657b66ea316d21385b68909f,,,,,,,,,,,508.5679,509.5669,,,510.0731,510.3171,,82,82,,,,,,,,,,,,,,,,bars/012.png,bars/mask003.png,,,,,,,,,,,,3,1,,,,,,,6,0,4,0,,,,,,,,,,,509.5669,510.0731,510.3173,514.5502,space,4.2001,,514.5504,8,67,515.5495,515.5497,519.0158,space,3.4348,,0,23,23,23,1,90,15,,,,,,,,
,,6452a0c8687cf626aa4dc721,65af5696cf3d8856f5c0ca71,2024-01-23_08h17.00.658,bars,2023.2.3,Win32,59.88023952,657b66ea316d21385b68909f,,,,,,,,,,,519.0275,520.0319,,,520.5323,520.7815,,159,159,,,,,,,,,,,,,,,,bars/039.png,bars/mask004.png,,,,,,,,,,,,4,1,,,,,,,8,0,8,0,,,,,,,,,,,520.032,520.5322,520.7816,523.1543,space,2.3496,,523.1544,16,54,524.1468,524.1468,525.598,space,1.422,,0,24,24,24,1,175,105,,,,,,,,
,,6452a0c8687cf626aa4dc721,65af5696cf3d8856f5c0ca71,2024-01-23_08h17.00.658,bars,2023.2.3,Win32,59.88023952,657b66ea316d21385b68909f,,,,,,,,,,,525.6002,526.5968,,,527.0964,527.3461,,162,-18,,,,,,,,,,,,,,,,bars/032.png,bars/mask007.png,,,,,,,,,,,,0,1,,,,,,,6,0,5,0,,,,,,,,,,,526.597,527.0964,527.3461,533.8113,space,6.4461,,533.8114,37,38,534.811,534.8111,539.61,space,4.7721,,0,25,25,25,1,125,20,,,,,,,,
,,6452a0c8687cf626aa4dc721,65af5696cf3d8856f5c0ca71,2024-01-23_08h17.00.658,bars,2023.2.3,Win32,59.88023952,657b66ea316d21385b68909f,,,,,,,,,,,539.6239,540.6264,,,541.1261,541.376,,125,125,,,,,,,,,,,,,,,,bars/008.png,bars/mask001.png,,,,,,,,,,,,4,1,,,,,,,8,2,7,4,,,,,,,,,,,540.6264,541.1261,541.376,542.7924,space,1.4008,,542.7925,15,55,543.7921,543.7922,545.4418,space,1.6302,,0,26,26,26,1,110,0,,,,,,,,
,,6452a0c8687cf626aa4dc721,65af5696cf3d8856f5c0ca71,2024-01-23_08h17.00.658,bars,2023.2.3,Win32,59.88023952,657b66ea316d21385b68909f,,,,,,,,,,,545.4422,546.4416,,,546.9414,547.1915,,155,-25,,,,,,,,,,,,,,,,bars/036.png,bars/mask002.png,,,,,,,,,,,,4,1,,,,,,,6,0,6,1,,,,,,,,,,,546.4416,546.9414,547.1915,553.0401,space,5.8359,,553.0401,10,45,554.0398,554.0398,555.0895,space,1.027,,0,27,27,27,1,145,20,,,,,,,,
,,6452a0c8687cf626aa4dc721,65af5696cf3d8856f5c0ca71,2024-01-23_08h17.00.658,bars,2023.2.3,Win32,59.88023952,657b66ea316d21385b68909f,,,,,,,,,,,555.0899,556.0893,,,556.5892,556.839,,90,90,,,,,,,,,,,,,,,,bars/012.png,bars/mask003.png,,,,,,,,,,,,4,1,,,,,,,4,2,4,3,,,,,,,,,,,556.0894,556.5892,556.8391,560.8715,space,4.0228,,560.8716,0,75,561.8711,561.8712,568.1198,space,6.2179,,0,28,28,28,1,90,15,,,,,,,,
,,6452a0c8687cf626aa4dc721,65af5696cf3d8856f5c0ca71,2024-01-23_08h17.00.658,bars,2023.2.3,Win32,59.88023952,657b66ea316d21385b68909f,,,,,,,,,,,568.1307,569.1194,,,569.62,569.8697,,139,139,,,,,,,,,,,,,,,,bars/040.png,bars/mask009.png,,,,,,,,,,,,2,1,,,,,,,2,0,2,0,,,,,,,,,,,569.1195,569.6199,569.8697,573.4918,space,3.6002,,573.4919,1,46,574.4852,574.4855,578.0516,space,3.539,,0,29,29,29,1,140,5,,,,,,,,
,,6452a0c8687cf626aa4dc721,65af5696cf3d8856f5c0ca71,2024-01-23_08h17.00.658,bars,2023.2.3,Win32,59.88023952,657b66ea316d21385b68909f,,,,,,,,,,,578.0631,579.0675,,,579.567,579.817,,58,58,,,,,,,,,,,,,,,,bars/047.png,bars/mask007.png,,,,,,,,,,,,0,2,,,,,,,4,0,4,0,,,,,,,,,,,579.0677,579.567,579.817,585.1492,space,5.3175,,585.1492,43,12,586.1488,586.1488,587.7816,space,1.6013,,0,30,30,30,1,15,70,,,,,,,,
,,6452a0c8687cf626aa4dc721,65af5696cf3d8856f5c0ca71,2024-01-23_08h17.00.658,bars,2023.2.3,Win32,59.88023952,657b66ea316d21385b68909f,,,,,,,,,,,587.7821,588.7814,,,589.2818,589.5313,,170,170,,,,,,,,,,,,,,,,bars/035.png,bars/mask005.png,,,,,,,,,,,,0,1,,,,,,,2,0,0,0,,,,,,,,,,,588.7814,589.2816,589.5315,591.9479,space,2.3852,,591.9482,5,70,592.9474,592.9475,597.1639,space,4.1837,,0,31,31,31,1,175,60,,,,,,,,
,,6452a0c8687cf626aa4dc721,65af5696cf3d8856f5c0ca71,2024-01-23_08h17.00.658,bars,2023.2.3,Win32,59.88023952,657b66ea316d21385b68909f,,,,,,,,,,,597.1759,598.1794,,,598.6798,598.9333,,53,53,,,,,,,,,,,,,,,,bars/026.png,bars/mask009.png,,,,,,,,,,,,0,1,,,,,,,0,0,0,0,,,,,,,,,,,598.1796,598.6795,598.9333,601.8291,space,2.8678,,601.8293,18,32,602.8283,602.8285,604.9616,space,2.1074,,0,32,32,32,1,35,85,,,,,,,,
,,6452a0c8687cf626aa4dc721,65af5696cf3d8856f5c0ca71,2024-01-23_08h17.00.658,bars,2023.2.3,Win32,59.88023952,657b66ea316d21385b68909f,,,,,,,,,,,604.9635,605.9608,,,606.4604,606.7105,,43,43,,,,,,,,,,,,,,,,bars/000.png,bars/mask004.png,,,,,,,,,,,,0,1,,,,,,,0,2,0,3,,,,,,,,,,,605.9609,606.4603,606.7105,610.6427,space,3.9249,,610.6428,3,78,611.6427,611.6427,613.309,space,1.6386,,0,33,33,33,1,40,145,,,,,,,,
,,6452a0c8687cf626aa4dc721,65af5696cf3d8856f5c0ca71,2024-01-23_08h17.00.658,bars,2023.2.3,Win32,59.88023952,657b66ea316d21385b68909f,,,,,,,,,,,613.3095,614.3087,,,614.8089,615.0595,,179,179,,,,,,,,,,,,,,,,bars/010.png,bars/mask003.png,,,,,,,,,,,,0,1,,,,,,,2,4,0,4,,,,,,,,,,,614.3087,614.8088,615.0598,621.0078,space,5.921,,621.008,14,56,622.0071,622.0072,624.3907,space,2.3518,,0,34,34,34,1,165,55,,,,,,,,
,,6452a0c8687cf626aa4dc721,65af5696cf3d8856f5c0ca71,2024-01-23_08h17.00.658,bars,2023.2.3,Win32,59.88023952,657b66ea316d21385b68909f,,,,,,,,,,,624.3927,625.3897,,,625.8895,626.1394,,78,258,,,,,,,,,,,,,,,,bars/012.png,bars/mask003.png,,,,,,,,,,,,3,1,,,,,,,4,6,5,5,,,,,,,,,,,625.3899,625.8894,626.1395,633.6565,space,7.4931,,633.6568,12,63,634.6539,634.654,636.9936,space,2.3165,,0,35,35,35,1,90,15,,,,,,,,
,,6452a0c8687cf626aa4dc721,65af5696cf3d8856f5c0ca71,2024-01-23_08h17.00.658,bars,2023.2.3,Win32,59.88023952,657b66ea316d21385b68909f,,,,,,,,,,,637.0028,638.0031,,,638.503,638.7533,,137,-43,,,,,,,,,,,,,,,,bars/032.png,bars/mask003.png,,,,,,,,,,,,4,1,,,,,,,6,4,6,3,,,,,,,,,,,638.0032,638.5029,638.7533,644.752,space,5.9681,,644.7523,12,63,645.7515,645.7516,648.1848,space,2.4017,,0,36,36,36,1,125,20,,,,,,,,
,,6452a0c8687cf626aa4dc721,65af5696cf3d8856f5c0ca71,2024-01-23_08h17.00.658,bars,2023.2.3,Win32,59.88023952,657b66ea316d21385b68909f,,,,,,,,,,,648.187,649.1838,,,649.6839,649.9337,,128,128,,,,,,,,,,,,,,,,bars/023.png,bars/mask005.png,,,,,,,,,,,,3,2,,,,,,,4,6,4,6,,,,,,,,,,,649.1839,649.6838,649.9338,651.001,space,1.0344,,651.0012,72,13,651.9999,652,655.1331,space,3.1051,,0,37,37,37,1,20,115,,,,,,,,
,,6452a0c8687cf626aa4dc721,65af5696cf3d8856f5c0ca71,2024-01-23_08h17.00.658,bars,2023.2.3,Win32,59.88023952,657b66ea316d21385b68909f,,,,,,,,,,,655.1445,656.1488,,,656.6486,656.8984,,101,101,,,,,,,,,,,,,,,,bars/025.png,bars/mask002.png,,,,,,,,,,,,2,1,,,,,,,2,8,2,8,,,,,,,,,,,656.1488,656.6485,656.8985,657.9316,space,1.0196,,657.9316,4,61,658.9312,658.9312,661.7807,space,2.8293,,0,38,38,38,1,105,40,,,,,,,,
,,6452a0c8687cf626aa4dc721,65af5696cf3d8856f5c0ca71,2024-01-23_08h17.00.658,bars,2023.2.3,Win32,59.88023952,657b66ea316d21385b68909f,,,,,,,,,,,661.7924,662.7802,,,663.2801,663.5299,,145,145,,,,,,,,,,,,,,,,bars/049.png,bars/mask009.png,,,,,,,,,,,,2,1,,,,,,,4,10,4,10,,,,,,,,,,,662.7802,663.28,663.5299,667.8292,space,4.2831,,667.8293,15,30,668.8289,668.8289,671.1951,space,2.3466,,0,39,39,39,1,160,115,,,,,,,,
,,6452a0c8687cf626aa4dc721,65af5696cf3d8856f5c0ca71,2024-01-23_08h17.00.658,bars,2023.2.3,Win32,59.88023952,657b66ea316d21385b68909f,,,,,,,,,,,671.2063,672.1947,,,672.6945,672.9445,,47,47,,,,,,,,,,,,,,,,bars/047.png,bars/mask007.png,,,,,,,,,,,,2,2,,,,,,,2,8,3,8,,,,,,,,,,,672.1948,672.6945,672.9445,676.0772,space,3.1168,,676.0773,32,23,677.0769,677.0769,678.3433,space,1.2446,,0,40,40,40,1,15,70,,,,,,,,
,,6452a0c8687cf626aa4dc721,65af5696cf3d8856f5c0ca71,2024-01-23_08h17.00.658,bars,2023.2.3,Win32,59.88023952,657b66ea316d21385b68909f,,,,,,,,,,,678.3437,679.343,,,679.843,680.0928,,53,53,,,,,,,,,,,,,,,,bars/048.png,bars/mask005.png,,,,,,,,,,,,4,1,,,,,,,4,6,4,6,,,,,,,,,,,679.343,679.843,680.0929,684.6086,space,4.5042,,684.6087,3,58,685.608,685.6081,689.4241,space,3.7883,,0,41,41,41,1,50,175,,,,,,,,
,,6452a0c8687cf626aa4dc721,65af5696cf3d8856f5c0ca71,2024-01-23_08h17.00.658,bars,2023.2.3,Win32,59.88023952,657b66ea316d21385b68909f,,,,,,,,,,,689.4351,690.4238,,,690.9237,691.1736,,41,41,,,,,,,,,,,,,,,,bars/003.png,bars/mask008.png,,,,,,,,,,,,2,1,,,,,,,6,8,4,10,,,,,,,,,,,690.4238,690.9237,691.1736,694.4229,space,3.2392,,694.4229,16,81,695.4223,695.4223,696.5389,space,1.0879,,0,42,42,42,1,25,140,,,,,,,,
,,6452a0c8687cf626aa4dc721,65af5696cf3d8856f5c0ca71,2024-01-23_08h17.00.658,bars,2023.2.3,Win32,59.88023952,657b66ea316d21385b68909f,,,,,,,,,,,696.5393,697.5386,,,698.0387,698.2885,,140,140,,,,,,,,,,,,,,,,bars/037.png,bars/mask004.png,,,,,,,,,,,,5,1,,,,,,,8,10,8,10,,,,,,,,,,,697.5386,698.0386,698.2886,702.0043,space,3.7001,,702.0044,10,35,703.004,703.004,704.3702,space,1.346,,0,43,43,43,1,150,105,,,,,,,,
,,6452a0c8687cf626aa4dc721,65af5696cf3d8856f5c0ca71,2024-01-23_08h17.00.658,bars,2023.2.3,Win32,59.88023952,657b66ea316d21385b68909f,,,,,,,,,,,704.3706,705.3702,,,705.8701,706.12,,141,141,,,,,,,,,,,,,,,,bars/038.png,bars/mask000.png,,,,,,,,,,,,1,1,,,,,,,6,10,5,10,,,,,,,,,,,705.3702,705.87,706.12,711.4417,space,5.3144,,711.4417,24,71,712.4353,712.4354,715.8689,space,3.4067,,0,44,44,44,1,165,70,,,,,,,,
,,6452a0c8687cf626aa4dc721,65af5696cf3d8856f5c0ca71,2024-01-23_08h17.00.658,bars,2023.2.3,Win32,59.88023952,657b66ea316d21385b68909f,,,,,,,,,,,715.8875,716.8846,,,717.3896,717.6244,,32,32,,,,,,,,,,,,,,,,bars/041.png,bars/mask008.png,,,,,,,,,,,,2,1,,,,,,,4,10,4,10,,,,,,,,,,,716.8847,717.3896,717.6245,724.1165,space,6.4747,,724.1166,12,53,725.1155,725.1156,729.8983,space,4.7578,,0,45,45,45,1,20,85,,,,,,,,
,,6452a0c8687cf626aa4dc721,65af5696cf3d8856f5c0ca71,2024-01-23_08h17.00.658,bars,2023.2.3,Win32,59.88023952,657b66ea316d21385b68909f,,,,,,,,,,,729.9098,730.8976,,,731.3978,731.6473,,137,137,,,,,,,,,,,,,,,,bars/017.png,bars/mask001.png,,,,,,,,,,,,4,1,,,,,,,6,10,6,9,,,,,,,,,,,730.8978,731.3976,731.6474,734.7975,space,3.1206,,734.7977,8,88,735.7964,735.7966,738.2498,space,2.4312,,0,46,46,46,1,145,45,,,,,,,,
,,6452a0c8687cf626aa4dc721,65af5696cf3d8856f5c0ca71,2024-01-23_08h17.00.658,bars,2023.2.3,Win32,59.88023952,657b66ea316d21385b68909f,,,,,,,,,,,738.2502,739.2461,,,739.7452,739.9952,,47,47,,,,,,,,,,,,,,,,bars/004.png,bars/mask006.png,,,,,,,,,,,,1,1,,,,,,,4,8,2,8,,,,,,,,,,,739.2464,739.7452,739.9952,745.594,space,5.5836,,745.594,22,78,746.5934,746.5935,747.4935,space,0.874,,0,47,47,47,1,25,125,,,,,,,,
,,6452a0c8687cf626aa4dc721,65af5696cf3d8856f5c0ca71,2024-01-23_08h17.00.658,bars,2023.2.3,Win32,59.88023952,657b66ea316d21385b68909f,,,,,,,,,,,747.4939,748.4931,,,748.9935,749.2433,,88,88,,,,,,,,,,,,,,,,bars/029.png,bars/mask002.png,,,,,,,,,,,,6,1,,,,,,,6,10,6,10,,,,,,,,,,,748.4931,748.9933,749.2434,754.0593,space,4.7836,,754.0596,2,43,755.0583,755.0584,757.0087,space,1.9187,,0,48,48,48,1,90,45,,,,,,,,
,,6452a0c8687cf626aa4dc721,65af5696cf3d8856f5c0ca71,2024-01-23_08h17.00.658,bars,2023.2.3,Win32,59.88023952,657b66ea316d21385b68909f,,,,,,,,,,,757.0106,758.0074,,,758.5078,758.7573,,109,-71,,,,,,,,,,,,,,,,bars/034.png,bars/mask001.png,,,,,,,,,,,,3,1,,,,,,,4,10,6,10,,,,,,,,,,,758.0074,758.5077,758.7574,763.656,space,4.8753,,763.6561,16,44,764.656,764.656,766.5223,space,1.84,,0,49,49,49,1,125,65,,,,,,,,
,,6452a0c8687cf626aa4dc721,65af5696cf3d8856f5c0ca71,2024-01-23_08h17.00.658,bars,2023.2.3,Win32,59.88023952,657b66ea316d21385b68909f,,,,,,,,,,,,,,,,,,,,,,,,,,,,,,,,,,,,,,,,,,,,,,,,,,,,,,,,,,,,,,,,,,,,,,,,,,,,,,,,,,,,,,,,,,,,,766.5232,826.5252,0,0,0,0,1,sequence_tables/blk008.csv
,,6452a0c8687cf626aa4dc721,65af5696cf3d8856f5c0ca71,2024-01-23_08h17.00.658,bars,2023.2.3,Win32,59.88023952,657b66ea316d21385b68909f,,,,,,,,,,,828.1987,829.1905,,,829.6905,829.9404,,28,28,,,,,,,,,,,,,,,,bars/006.png,bars/mask003.png,,,,,,,,,,,,1,1,,,,,,,0,10,1,9,,,,,,826.5371,828.1908,space,1.6474,,829.1905,829.6903,829.9404,831.4235,space,1.472,,831.4236,7,72,832.4231,832.4231,832.4355,,,,0,0,0,0,1,35,100,,,,,,,,
,,6452a0c8687cf626aa4dc721,65af5696cf3d8856f5c0ca71,2024-01-23_08h17.00.658,bars,2023.2.3,Win32,59.88023952,657b66ea316d21385b68909f,,,,,,,,,,,832.4357,833.4394,,,833.9394,834.1893,,169,169,,,,,,,,,,,,,,,,bars/035.png,bars/mask006.png,,,,,,,,,,,,0,1,,,,,,,0,10,0,10,,,,,,,,,,,833.4395,833.9394,834.1893,837.3718,space,3.1737,,837.3718,6,71,838.3715,838.3715,838.383,,,,0,1,1,1,1,175,60,,,,,,,,
,,6452a0c8687cf626aa4dc721,65af5696cf3d8856f5c0ca71,2024-01-23_08h17.00.658,bars,2023.2.3,Win32,59.88023952,657b66ea316d21385b68909f,,,,,,,,,,,838.3832,839.3712,,,839.8712,840.1211,,138,138,,,,,,,,,,,,,,,,bars/008.png,bars/mask003.png,,,,,,,,,,,,0,1,,,,,,,0,10,0,10,,,,,,,,,,,839.3712,839.8711,840.1211,843.1872,space,3.0473,,843.1872,28,42,844.1869,844.1869,844.1982,,,,0,2,2,2,1,110,0,,,,,,,,
,,6452a0c8687cf626aa4dc721,65af5696cf3d8856f5c0ca71,2024-01-23_08h17.00.658,bars,2023.2.3,Win32,59.88023952,657b66ea316d21385b68909f,,,,,,,,,,,844.1984,845.1867,,,845.6866,845.9365,,31,31,,,,,,,,,,,,,,,,bars/000.png,bars/mask003.png,,,,,,,,,,,,0,1,,,,,,,0,8,0,9,,,,,,,,,,,845.1867,845.6865,845.9365,851.0518,space,5.0972,,851.0518,9,66,852.0516,852.0516,852.0642,,,,0,3,3,3,1,40,145,,,,,,,,
,,6452a0c8687cf626aa4dc721,65af5696cf3d8856f5c0ca71,2024-01-23_08h17.00.658,bars,2023.2.3,Win32,59.88023952,657b66ea316d21385b68909f,,,,,,,,,,,852.0644,853.0681,,,853.5681,853.818,,37,217,,,,,,,,,,,,,,,,bars/043.png,bars/mask009.png,,,,,,,,,,,,2,1,,,,,,,2,10,3,10,,,,,,,,,,,853.0682,853.568,853.818,858.467,space,4.6332,,858.467,7,87,859.4665,859.4665,859.4789,,,,0,4,4,4,1,30,130,,,,,,,,
,,6452a0c8687cf626aa4dc721,65af5696cf3d8856f5c0ca71,2024-01-23_08h17.00.658,bars,2023.2.3,Win32,59.88023952,657b66ea316d21385b68909f,,,,,,,,,,,859.4791,860.4829,,,860.983,861.2328,,38,218,,,,,,,,,,,,,,,,bars/004.png,bars/mask002.png,,,,,,,,,,,,0,1,,,,,,,0,10,0,10,,,,,,,,,,,860.483,860.9829,861.2328,864.4155,space,3.172,,864.4155,13,87,865.4151,865.4152,865.4262,,,,0,5,5,5,1,25,125,,,,,,,,
,,6452a0c8687cf626aa4dc721,65af5696cf3d8856f5c0ca71,2024-01-23_08h17.00.658,bars,2023.2.3,Win32,59.88023952,657b66ea316d21385b68909f,,,,,,,,,,,865.4265,866.4149,,,866.9145,867.1647,,135,-45,,,,,,,,,,,,,,,,bars/049.png,bars/mask006.png,,,,,,,,,,,,3,2,,,,,,,2,10,1,10,,,,,,,,,,,866.4149,866.9145,867.1647,872.5635,space,5.381,,872.5636,25,20,873.5632,873.5632,873.5761,,,,0,6,6,6,1,160,115,,,,,,,,
,,6452a0c8687cf626aa4dc721,65af5696cf3d8856f5c0ca71,2024-01-23_08h17.00.658,bars,2023.2.3,Win32,59.88023952,657b66ea316d21385b68909f,,,,,,,,,,,873.5763,874.5795,,,875.0794,875.3295,,178,-2,,,,,,,,,,,,,,,,bars/007.png,bars/mask003.png,,,,,,,,,,,,0,1,,,,,,,0,10,0,9,,,,,,,,,,,874.5795,875.0794,875.3296,878.762,space,3.4159,,878.7621,3,57,879.7615,879.7615,879.7741,,,,0,7,7,7,1,175,55,,,,,,,,
,,6452a0c8687cf626aa4dc721,65af5696cf3d8856f5c0ca71,2024-01-23_08h17.00.658,bars,2023.2.3,Win32,59.88023952,657b66ea316d21385b68909f,,,,,,,,,,,879.7743,880.778,,,881.278,881.5279,,173,-7,,,,,,,,,,,,,,,,bars/010.png,bars/mask007.png,,,,,,,,,,,,1,1,,,,,,,2,8,2,7,,,,,,,,,,,880.778,881.278,881.528,885.3605,space,3.822,,885.3605,8,62,886.3602,886.3602,886.3717,,,,0,8,8,8,1,165,55,,,,,,,,
,,6452a0c8687cf626aa4dc721,65af5696cf3d8856f5c0ca71,2024-01-23_08h17.00.658,bars,2023.2.3,Win32,59.88023952,657b66ea316d21385b68909f,,,,,,,,,,,886.3719,887.3599,,,887.8598,888.1097,,56,56,,,,,,,,,,,,,,,,bars/029.png,bars/mask006.png,,,,,,,,,,,,4,2,,,,,,,0,6,1,6,,,,,,,,,,,887.3599,887.8598,888.1097,891.4421,space,3.3225,,891.4422,34,11,892.4417,892.4417,892.4539,,,,0,9,9,9,1,90,45,,,,,,,,
,,6452a0c8687cf626aa4dc721,65af5696cf3d8856f5c0ca71,2024-01-23_08h17.00.658,bars,2023.2.3,Win32,59.88023952,657b66ea316d21385b68909f,,,,,,,,,,,892.4541,893.4584,,,893.9583,894.2082,,130,130,,,,,,,,,,,,,,,,bars/025.png,bars/mask006.png,,,,,,,,,,,,0,1,,,,,,,2,8,2,7,,,,,,,,,,,893.4584,893.9582,894.2082,900.7235,space,6.5036,,900.7236,25,90,901.7231,901.7231,901.7381,,,,0,10,10,10,1,105,40,,,,,,,,
,,6452a0c8687cf626aa4dc721,65af5696cf3d8856f5c0ca71,2024-01-23_08h17.00.658,bars,2023.2.3,Win32,59.88023952,657b66ea316d21385b68909f,,,,,,,,,,,901.7384,902.7395,,,903.2394,903.4893,,67,67,,,,,,,,,,,,,,,,bars/044.png,bars/mask008.png,,,,,,,,,,,,0,1,,,,,,,0,6,0,6,,,,,,,,,,,902.7395,903.2393,903.4894,906.9221,space,3.4159,,906.9221,8,88,907.9214,907.9214,907.933,,,,0,11,11,11,1,75,155,,,,,,,,
,,6452a0c8687cf626aa4dc721,65af5696cf3d8856f5c0ca71,2024-01-23_08h17.00.658,bars,2023.2.3,Win32,59.88023952,657b66ea316d21385b68909f,,,,,,,,,,,907.9332,908.9213,,,909.4212,909.671,,121,-59,,,,,,,,,,,,,,,,bars/021.png,bars/mask006.png,,,,,,,,,,,,0,1,,,,,,,0,4,0,5,,,,,,,,,,,908.9213,909.4212,909.671,915.953,space,6.2731,,915.9531,34,51,916.9527,916.9527,916.9645,,,,0,12,12,12,1,155,70,,,,,,,,
,,6452a0c8687cf626aa4dc721,65af5696cf3d8856f5c0ca71,2024-01-23_08h17.00.658,bars,2023.2.3,Win32,59.88023952,657b66ea316d21385b68909f,,,,,,,,,,,916.9647,917.9525,,,918.4522,918.7021,,46,226,,,,,,,,,,,,,,,,bars/006.png,bars/mask009.png,,,,,,,,,,,,1,1,,,,,,,2,2,2,3,,,,,,,,,,,917.9525,918.4522,918.7022,923.2845,space,4.57,,923.2846,11,54,924.2844,924.2844,924.2957,,,,0,13,13,13,1,35,100,,,,,,,,
,,6452a0c8687cf626aa4dc721,65af5696cf3d8856f5c0ca71,2024-01-23_08h17.00.658,bars,2023.2.3,Win32,59.88023952,657b66ea316d21385b68909f,,,,,,,,,,,924.2959,925.2913,,,925.7846,926.0344,,116,-64,,,,,,,,,,,,,,,,bars/015.png,bars/mask000.png,,,,,,,,,,,,4,1,,,,,,,4,4,5,4,,,,,,,,,,,925.2914,925.7844,926.0345,930.8669,space,4.8172,,930.8672,6,44,931.8663,931.8664,931.8782,,,,0,14,14,14,1,110,160,,,,,,,,
,,6452a0c8687cf626aa4dc721,65af5696cf3d8856f5c0ca71,2024-01-23_08h17.00.658,bars,2023.2.3,Win32,59.88023952,657b66ea316d21385b68909f,,,,,,,,,,,931.8784,932.866,,,933.3661,933.6157,,47,227,,,,,,,,,,,,,,,,bars/006.png,bars/mask006.png,,,,,,,,,,,,0,1,,,,,,,2,6,0,3,,,,,,,,,,,932.8661,933.366,933.6158,937.8025,space,4.1648,,937.8026,12,53,938.7975,938.7975,938.8093,,,,0,15,15,15,1,35,100,,,,,,,,
,,6452a0c8687cf626aa4dc721,65af5696cf3d8856f5c0ca71,2024-01-23_08h17.00.658,bars,2023.2.3,Win32,59.88023952,657b66ea316d21385b68909f,,,,,,,,,,,938.8096,939.7975,,,940.2982,940.5473,,59,59,,,,,,,,,,,,,,,,bars/044.png,bars/mask000.png,,,,,,,,,,,,1,1,,,,,,,4,4,3,4,,,,,,,,,,,939.7977,940.2979,940.5474,944.1523,space,3.5828,,944.1523,16,84,945.1461,945.1462,945.1579,,,,0,16,16,16,1,75,155,,,,,,,,
,,6452a0c8687cf626aa4dc721,65af5696cf3d8856f5c0ca71,2024-01-23_08h17.00.658,bars,2023.2.3,Win32,59.88023952,657b66ea316d21385b68909f,,,,,,,,,,,945.1582,946.1496,,,946.6457,946.8956,,79,79,,,,,,,,,,,,,,,,bars/013.png,bars/mask001.png,,,,,,,,,,,,3,1,,,,,,,2,6,3,5,,,,,,,,,,,946.1496,946.6456,946.8956,950.1448,space,3.2411,,950.1449,4,69,951.1446,951.1446,951.1559,,,,0,17,17,17,1,75,10,,,,,,,,
,,6452a0c8687cf626aa4dc721,65af5696cf3d8856f5c0ca71,2024-01-23_08h17.00.658,bars,2023.2.3,Win32,59.88023952,657b66ea316d21385b68909f,,,,,,,,,,,951.1562,952.1443,,,952.6443,952.8943,,111,111,,,,,,,,,,,,,,,,bars/008.png,bars/mask004.png,,,,,,,,,,,,5,1,,,,,,,4,8,5,8,,,,,,,,,,,952.1443,952.6443,952.8943,956.2434,space,3.3346,,956.2435,1,69,957.2431,957.2431,957.254,,,,0,18,18,18,1,110,0,,,,,,,,
,,6452a0c8687cf626aa4dc721,65af5696cf3d8856f5c0ca71,2024-01-23_08h17.00.658,bars,2023.2.3,Win32,59.88023952,657b66ea316d21385b68909f,,,,,,,,,,,957.2542,958.2426,,,958.7427,958.9927,,100,100,,,,,,,,,,,,,,,,bars/045.png,bars/mask006.png,,,,,,,,,,,,7,1,,,,,,,6,10,7,10,,,,,,,,,,,958.2427,958.7426,958.9928,960.6591,space,1.6535,,960.6591,0,90,961.6587,961.6587,961.6596,,,,0,19,19,19,1,100,10,,,,,,,,
,,6452a0c8687cf626aa4dc721,65af5696cf3d8856f5c0ca71,2024-01-23_08h17.00.658,bars,2023.2.3,Win32,59.88023952,657b66ea316d21385b68909f,,,,,,,,,,,961.6602,962.6585,,,963.1583,963.4082,,42,42,,,,,,,,,,,,,,,,bars/006.png,bars/mask007.png,,,,,,,,,,,,6,1,,,,,,,8,10,8,10,,,,,,,,,,,962.6585,963.1582,963.4082,965.6413,space,2.2143,,965.6413,7,58,966.6409,966.6409,966.6525,,,,0,20,20,20,1,35,100,,,,,,,,
,,6452a0c8687cf626aa4dc721,65af5696cf3d8856f5c0ca71,2024-01-23_08h17.00.658,bars,2023.2.3,Win32,59.88023952,657b66ea316d21385b68909f,,,,,,,,,,,966.6528,967.6405,,,968.1405,968.3904,,35,35,,,,,,,,,,,,,,,,bars/004.png,bars/mask002.png,,,,,,,,,,,,7,1,,,,,,,10,8,10,8,,,,,,,,,,,967.6405,968.1405,968.3904,970.4066,space,1.9981,,970.4067,10,90,971.4064,971.4064,971.4173,,,,0,21,21,21,1,25,125,,,,,,,,
,,6452a0c8687cf626aa4dc721,65af5696cf3d8856f5c0ca71,2024-01-23_08h17.00.658,bars,2023.2.3,Win32,59.88023952,657b66ea316d21385b68909f,,,,,,,,,,,971.4175,972.4061,,,972.906,973.1557,,49,49,,,,,,,,,,,,,,,,bars/048.png,bars/mask006.png,,,,,,,,,,,,10,1,,,,,,,10,10,10,10,,,,,,,,,,,972.4061,972.906,973.1557,975.1222,space,1.9504,,975.1223,1,54,976.1217,976.1217,976.1226,,,,0,22,22,22,1,50,175,,,,,,,,
,,6452a0c8687cf626aa4dc721,65af5696cf3d8856f5c0ca71,2024-01-23_08h17.00.658,bars,2023.2.3,Win32,59.88023952,657b66ea316d21385b68909f,,,,,,,,,,,976.1236,977.1214,,,977.6213,977.8714,,56,236,,,,,,,,,,,,,,,,bars/014.png,bars/mask000.png,,,,,,,,,,,,2,1,,,,,,,8,8,8,8,,,,,,,,,,,977.1215,977.6213,977.8715,982.054,space,4.1645,,982.054,24,56,983.0535,983.0535,983.0648,,,,0,23,23,23,1,80,0,,,,,,,,
,,6452a0c8687cf626aa4dc721,65af5696cf3d8856f5c0ca71,2024-01-23_08h17.00.658,bars,2023.2.3,Win32,59.88023952,657b66ea316d21385b68909f,,,,,,,,,,,983.065,984.0534,,,984.5533,984.8032,,14,14,,,,,,,,,,,,,,,,bars/016.png,bars/mask009.png,,,,,,,,,,,,1,1,,,,,,,6,10,5,10,,,,,,,,,,,984.0534,984.5533,984.8033,988.5022,space,3.6836,,988.5022,26,29,989.5019,989.5019,989.5133,,,,0,24,24,24,1,40,165,,,,,,,,
,,6452a0c8687cf626aa4dc721,65af5696cf3d8856f5c0ca71,2024-01-23_08h17.00.658,bars,2023.2.3,Win32,59.88023952,657b66ea316d21385b68909f,,,,,,,,,,,989.5136,990.5017,,,991.0016,991.2516,,120,120,,,,,,,,,,,,,,,,bars/008.png,bars/mask003.png,,,,,,,,,,,,4,1,,,,,,,4,10,6,10,,,,,,,,,,,990.5018,991.0016,991.2516,994.2676,space,3,,994.2676,10,60,995.2673,995.2674,995.2793,,,,0,25,25,25,1,110,0,,,,,,,,
,,6452a0c8687cf626aa4dc721,65af5696cf3d8856f5c0ca71,2024-01-23_08h17.00.658,bars,2023.2.3,Win32,59.88023952,657b66ea316d21385b68909f,,,,,,,,,,,995.2794,996.2838,,,996.7836,997.0334,,50,50,,,,,,,,,,,,,,,,bars/044.png,bars/mask005.png,,,,,,,,,,,,0,1,,,,,,,2,8,1,8,,,,,,,,,,,996.2838,996.7835,997.0335,997.8168,space,0.7679,,997.8168,25,75,998.8165,998.8165,998.8172,,,,0,26,26,26,1,75,155,,,,,,,,
,,6452a0c8687cf626aa4dc721,65af5696cf3d8856f5c0ca71,2024-01-23_08h17.00.658,bars,2023.2.3,Win32,59.88023952,657b66ea316d21385b68909f,,,,,,,,,,,998.8178,999.8162,,,1000.3161,1000.5658,,22,22,,,,,,,,,,,,,,,,bars/047.png,bars/mask003.png,,,,,,,,,,,,3,1,,,,,,,4,10,4,8,,,,,,,,,,,999.8162,1000.3161,1000.5658,1004.2486,space,3.6728,,1004.2487,7,48,1005.2482,1005.2482,1005.2609,,,,0,27,27,27,1,15,70,,,,,,,,
,,6452a0c8687cf626aa4dc721,65af5696cf3d8856f5c0ca71,2024-01-23_08h17.00.658,bars,2023.2.3,Win32,59.88023952,657b66ea316d21385b68909f,,,,,,,,,,,1005.2612,1006.2646,,,1006.7646,1007.0145,,38,38,,,,,,,,,,,,,,,,bars/028.png,bars/mask004.png,,,,,,,,,,,,5,1,,,,,,,6,8,7,10,,,,,,,,,,,1006.2647,1006.7645,1007.0145,1011.4136,space,4.3828,,1011.4136,7,82,1012.4131,1012.4131,1012.4244,,,,0,28,28,28,1,45,120,,,,,,,,
,,6452a0c8687cf626aa4dc721,65af5696cf3d8856f5c0ca71,2024-01-23_08h17.00.658,bars,2023.2.3,Win32,59.88023952,657b66ea316d21385b68909f,,,,,,,,,,,1012.4246,1013.413,,,1013.9129,1014.1627,,152,152,,,,,,,,,,,,,,,,bars/039.png,bars/mask000.png,,,,,,,,,,,,1,1,,,,,,,4,6,3,6,,,,,,,,,,,1013.413,1013.9129,1014.1627,1016.7122,space,2.5338,,1016.7122,23,47,1017.7119,1017.7119,1017.7234,,,,0,29,29,29,1,175,105,,,,,,,,
,,6452a0c8687cf626aa4dc721,65af5696cf3d8856f5c0ca71,2024-01-23_08h17.00.658,bars,2023.2.3,Win32,59.88023952,657b66ea316d21385b68909f,,,,,,,,,,,1017.7236,1018.7117,,,1019.2115,1019.4614,,48,48,,,,,,,,,,,,,,,,bars/019.png,bars/mask005.png,,,,,,,,,,,,5,1,,,,,,,6,8,6,7,,,,,,,,,,,1018.7117,1019.2115,1019.4614,1020.6947,space,1.2178,,1020.6948,3,57,1021.6943,1021.6944,1021.6951,,,,0,30,30,30,1,45,105,,,,,,,,
,,6452a0c8687cf626aa4dc721,65af5696cf3d8856f5c0ca71,2024-01-23_08h17.00.658,bars,2023.2.3,Win32,59.88023952,657b66ea316d21385b68909f,,,,,,,,,,,1021.6957,1022.694,,,1023.1939,1023.4439,,139,139,,,,,,,,,,,,,,,,bars/049.png,bars/mask002.png,,,,,,,,,,,,2,1,,,,,,,8,10,8,10,,,,,,,,,,,1022.694,1023.1939,1023.4439,1028.0263,space,4.5683,,1028.0263,21,24,1029.0257,1029.0257,1029.0371,,,,0,31,31,31,1,160,115,,,,,,,,
,,6452a0c8687cf626aa4dc721,65af5696cf3d8856f5c0ca71,2024-01-23_08h17.00.658,bars,2023.2.3,Win32,59.88023952,657b66ea316d21385b68909f,,,,,,,,,,,1029.0373,1030.0256,,,1030.5255,1030.7753,,118,118,,,,,,,,,,,,,,,,bars/032.png,bars/mask006.png,,,,,,,,,,,,4,1,,,,,,,6,8,5,7,,,,,,,,,,,1030.0257,1030.5255,1030.7753,1034.4914,space,3.7068,,1034.4914,7,82,1035.491,1035.4911,1035.5028,,,,0,32,32,32,1,125,20,,,,,,,,
,,6452a0c8687cf626aa4dc721,65af5696cf3d8856f5c0ca71,2024-01-23_08h17.00.658,bars,2023.2.3,Win32,59.88023952,657b66ea316d21385b68909f,,,,,,,,,,,1035.503,1036.4908,,,1036.9905,1037.2406,,47,47,,,,,,,,,,,,,,,,bars/043.png,bars/mask005.png,,,,,,,,,,,,1,1,,,,,,,4,6,2,6,,,,,,,,,,,1036.4908,1036.9905,1037.2406,1039.1569,space,1.8978,,1039.1569,17,83,1040.1566,1040.1566,1040.1573,,,,0,33,33,33,1,30,130,,,,,,,,
,,6452a0c8687cf626aa4dc721,65af5696cf3d8856f5c0ca71,2024-01-23_08h17.00.658,bars,2023.2.3,Win32,59.88023952,657b66ea316d21385b68909f,,,,,,,,,,,1040.1576,1041.1563,,,1041.6563,1041.9061,,93,93,,,,,,,,,,,,,,,,bars/022.png,bars/mask001.png,,,,,,,,,,,,7,1,,,,,,,6,8,7,8,,,,,,,,,,,1041.1563,1041.6562,1041.9061,1044.7889,space,2.8712,,1044.7889,2,73,1045.7886,1045.7886,1045.7996,,,,0,34,34,34,1,95,20,,,,,,,,
,,6452a0c8687cf626aa4dc721,65af5696cf3d8856f5c0ca71,2024-01-23_08h17.00.658,bars,2023.2.3,Win32,59.88023952,657b66ea316d21385b68909f,,,,,,,,,,,1045.7998,1046.7883,,,1047.2882,1047.5382,,42,42,,,,,,,,,,,,,,,,bars/006.png,bars/mask009.png,,,,,,,,,,,,2,1,,,,,,,4,6,3,5,,,,,,,,,,,1046.7883,1047.2882,1047.5382,1049.4377,space,1.881,,1049.4377,7,58,1050.4374,1050.4374,1050.4487,,,,0,35,35,35,1,35,100,,,,,,,,
,,6452a0c8687cf626aa4dc721,65af5696cf3d8856f5c0ca71,2024-01-23_08h17.00.658,bars,2023.2.3,Win32,59.88023952,657b66ea316d21385b68909f,,,,,,,,,,,1050.4489,1051.4372,,,1051.937,1052.1871,,91,91,,,,,,,,,,,,,,,,bars/045.png,bars/mask003.png,,,,,,,,,,,,0,1,,,,,,,2,8,0,9,,,,,,,,,,,1051.4372,1051.937,1052.1871,1054.0366,space,1.835,,1054.0367,9,81,1055.0363,1055.0363,1055.0476,,,,0,36,36,36,1,100,10,,,,,,,,
,,6452a0c8687cf626aa4dc721,65af5696cf3d8856f5c0ca71,2024-01-23_08h17.00.658,bars,2023.2.3,Win32,59.88023952,657b66ea316d21385b68909f,,,,,,,,,,,1055.0479,1056.0361,,,1056.5361,1056.7857,,10,190,,,,,,,,,,,,,,,,bars/009.png,bars/mask007.png,,,,,,,,,,,,0,1,,,,,,,0,6,0,5,,,,,,,,,,,1056.0361,1056.536,1056.7858,1060.1185,space,3.3245,,1060.1186,5,85,1061.118,1061.118,1061.1294,,,,0,37,37,37,1,15,105,,,,,,,,
,,6452a0c8687cf626aa4dc721,65af5696cf3d8856f5c0ca71,2024-01-23_08h17.00.658,bars,2023.2.3,Win32,59.88023952,657b66ea316d21385b68909f,,,,,,,,,,,1061.1297,1062.118,,,1062.6178,1062.8676,,4,4,,,,,,,,,,,,,,,,bars/009.png,bars/mask009.png,,,,,,,,,,,,1,1,,,,,,,0,4,1,5,,,,,,,,,,,1062.118,1062.6177,1062.8677,1066.8836,space,3.9992,,1066.8837,11,79,1067.8833,1067.8833,1067.8943,,,,0,38,38,38,1,15,105,,,,,,,,
,,6452a0c8687cf626aa4dc721,65af5696cf3d8856f5c0ca71,2024-01-23_08h17.00.658,bars,2023.2.3,Win32,59.88023952,657b66ea316d21385b68909f,,,,,,,,,,,1067.8945,1068.883,,,1069.3828,1069.6329,,50,50,,,,,,,,,,,,,,,,bars/026.png,bars/mask002.png,,,,,,,,,,,,1,1,,,,,,,0,2,2,3,,,,,,,,,,,1068.883,1069.3828,1069.6329,1073.6486,space,3.9999,,1073.6487,15,35,1074.6482,1074.6482,1074.6594,,,,0,39,39,39,1,35,85,,,,,,,,
,,6452a0c8687cf626aa4dc721,65af5696cf3d8856f5c0ca71,2024-01-23_08h17.00.658,bars,2023.2.3,Win32,59.88023952,657b66ea316d21385b68909f,,,,,,,,,,,1074.6596,1075.6481,,,1076.1479,1076.3979,,141,-39,,,,,,,,,,,,,,,,bars/042.png,bars/mask000.png,,,,,,,,,,,,0,1,,,,,,,0,4,0,5,,,,,,,,,,,1075.6482,1076.1479,1076.3979,1081.5968,space,5.1862,,1081.5968,4,66,1082.5962,1082.5963,1082.6087,,,,0,40,40,40,1,145,75,,,,,,,,
,,6452a0c8687cf626aa4dc721,65af5696cf3d8856f5c0ca71,2024-01-23_08h17.00.658,bars,2023.2.3,Win32,59.88023952,657b66ea316d21385b68909f,,,,,,,,,,,1082.609,1083.6127,,,1084.1127,1084.3626,,46,46,,,,,,,,,,,,,,,,bars/026.png,bars/mask005.png,,,,,,,,,,,,1,1,,,,,,,0,2,1,2,,,,,,,,,,,1083.6127,1084.1127,1084.3626,1085.9624,space,1.592,,1085.9624,11,39,1086.9618,1086.9618,1086.973,,,,0,41,41,41,1,35,85,,,,,,,,
,,6452a0c8687cf626aa4dc721,65af5696cf3d8856f5c0ca71,2024-01-23_08h17.00.658,bars,2023.2.3,Win32,59.88023952,657b66ea316d21385b68909f,,,,,,,,,,,1086.9732,1087.9616,,,1088.4615,1088.7115,,19,19,,,,,,,,,,,,,,,,bars/033.png,bars/mask001.png,,,,,,,,,,,,0,1,,,,,,,0,0,0,1,,,,,,,,,,,1087.9617,1088.4615,1088.7115,1091.7776,space,3.0535,,1091.7776,6,44,1092.7773,1092.7773,1092.7885,,,,0,42,42,42,1,25,155,,,,,,,,
,,6452a0c8687cf626aa4dc721,65af5696cf3d8856f5c0ca71,2024-01-23_08h17.00.658,bars,2023.2.3,Win32,59.88023952,657b66ea316d21385b68909f,,,,,,,,,,,1092.7887,1093.777,,,1094.2769,1094.5269,,116,116,,,,,,,,,,,,,,,,bars/001.png,bars/mask008.png,,,,,,,,,,,,1,1,,,,,,,0,0,2,0,,,,,,,,,,,1093.7771,1094.2769,1094.5269,1096.4767,space,1.9411,,1096.4767,14,31,1097.4761,1097.4761,1097.487,,,,0,43,43,43,1,130,85,,,,,,,,
,,6452a0c8687cf626aa4dc721,65af5696cf3d8856f5c0ca71,2024-01-23_08h17.00.658,bars,2023.2.3,Win32,59.88023952,657b66ea316d21385b68909f,,,,,,,,,,,1097.4872,1098.4759,,,1098.9759,1099.2257,,8,188,,,,,,,,,,,,,,,,bars/035.png,bars/mask006.png,,,,,,,,,,,,0,1,,,,,,,0,0,0,1,,,,,,,,,,,1098.4759,1098.9757,1099.2257,1101.1419,space,1.9002,,1101.142,13,52,1102.1415,1102.1415,1102.1422,,,,0,44,44,44,1,175,60,,,,,,,,
,,6452a0c8687cf626aa4dc721,65af5696cf3d8856f5c0ca71,2024-01-23_08h17.00.658,bars,2023.2.3,Win32,59.88023952,657b66ea316d21385b68909f,,,,,,,,,,,1102.1427,1103.1415,,,1103.6414,1103.8914,,114,114,,,,,,,,,,,,,,,,bars/001.png,bars/mask000.png,,,,,,,,,,,,0,1,,,,,,,2,2,1,4,,,,,,,,,,,1103.1415,1103.6414,1103.8914,1107.6571,space,3.7559,,1107.6571,16,29,1108.6567,1108.6568,1108.6681,,,,0,45,45,45,1,130,85,,,,,,,,
,,6452a0c8687cf626aa4dc721,65af5696cf3d8856f5c0ca71,2024-01-23_08h17.00.658,bars,2023.2.3,Win32,59.88023952,657b66ea316d21385b68909f,,,,,,,,,,,1108.6682,1109.6566,,,1110.1567,1110.4101,,8,188,,,,,,,,,,,,,,,,bars/005.png,bars/mask000.png,,,,,,,,,,,,5,1,,,,,,,4,4,5,4,,,,,,,,,,,1109.6566,1110.1565,1110.4101,1111.9067,space,1.4714,,1111.9069,2,48,1112.9059,1112.9061,1112.9186,,,,0,46,46,46,1,10,140,,,,,,,,
,,6452a0c8687cf626aa4dc721,65af5696cf3d8856f5c0ca71,2024-01-23_08h17.00.658,bars,2023.2.3,Win32,59.88023952,657b66ea316d21385b68909f,,,,,,,,,,,1112.9187,1113.9223,,,1114.4222,1114.6725,,98,-82,,,,,,,,,,,,,,,,bars/008.png,bars/mask004.png,,,,,,,,,,,,1,1,,,,,,,2,2,1,2,,,,,,,,,,,1113.9225,1114.4222,1114.6726,1120.1045,space,5.4007,,1120.1046,12,82,1121.1042,1121.1043,1121.1169,,,,0,47,47,47,1,110,0,,,,,,,,
,,6452a0c8687cf626aa4dc721,65af5696cf3d8856f5c0ca71,2024-01-23_08h17.00.658,bars,2023.2.3,Win32,59.88023952,657b66ea316d21385b68909f,,,,,,,,,,,1121.1171,1122.1207,,,1122.6209,1122.8707,,29,209,,,,,,,,,,,,,,,,bars/006.png,bars/mask006.png,,,,,,,,,,,,3,1,,,,,,,4,0,4,1,,,,,,,,,,,1122.1207,1122.6207,1122.871,1126.1427,space,3.2502,,1126.1428,6,71,1127.1361,1127.1362,1127.1477,,,,0,48,48,48,1,35,100,,,,,,,,
,,6452a0c8687cf626aa4dc721,65af5696cf3d8856f5c0ca71,2024-01-23_08h17.00.658,bars,2023.2.3,Win32,59.88023952,657b66ea316d21385b68909f,,,,,,,,,,,1127.1479,1128.1522,,,1128.6526,1128.9021,,170,-10,,,,,,,,,,,,,,,,bars/033.png,bars/mask008.png,,,,,,,,,,,,0,2,,,,,,,2,0,1,0,,,,,,,,,,,1128.1523,1128.6524,1128.9022,1132.6354,space,3.7012,,1132.6357,35,15,1133.6343,1133.6345,1133.6472,,,,0,49,49,49,1,25,155,,,,,,,,
,,6452a0c8687cf626aa4dc721,65af5696cf3d8856f5c0ca71,2024-01-23_08h17.00.658,bars,2023.2.3,Win32,59.88023952,657b66ea316d21385b68909f,,,,,,,,,,,,,,,,,,,,,,,,,,,,,,,,,,,,,,,,,,,,,,,,,,,,,,,,,,,,,,,,,,,,,,,,,,,,,,,,,,,,,,,,,,,,,1133.6475,1193.6421,0,1,1,1,1,sequence_tables/blk017.csv
,,6452a0c8687cf626aa4dc721,65af5696cf3d8856f5c0ca71,2024-01-23_08h17.00.658,bars,2023.2.3,Win32,59.88023952,657b66ea316d21385b68909f,,,,,,,,,,,1196.395,1197.3857,,,1197.8864,1198.1356,,49,49,,,,,,,,,,,,,,,,bars/012.png,bars/mask004.png,,,,,,,,,,,,0,2,,,,,,,8,2,9,1,,,,,,1193.6519,1196.3866,space,2.724,,1197.3859,1197.8862,1198.1359,1199.4022,space,1.243,,1199.4023,41,34,1200.402,1200.4021,1200.4053,,,,0,0,0,0,1,90,15,,,,,,,,
,,6452a0c8687cf626aa4dc721,65af5696cf3d8856f5c0ca71,2024-01-23_08h17.00.658,bars,2023.2.3,Win32,59.88023952,657b66ea316d21385b68909f,,,,,,,,,,,1200.4056,1201.4015,,,1201.9021,1202.1513,,45,45,,,,,,,,,,,,,,,,bars/026.png,bars/mask000.png,,,,,,,,,,,,4,1,,,,,,,6,4,6,4,,,,,,,,,,,1201.4016,1201.9019,1202.1515,1205.9854,space,3.8048,,1205.9857,10,40,1206.9834,1206.9835,1206.9975,,,,0,1,1,1,1,35,85,,,,,,,,
,,6452a0c8687cf626aa4dc721,65af5696cf3d8856f5c0ca71,2024-01-23_08h17.00.658,bars,2023.2.3,Win32,59.88023952,657b66ea316d21385b68909f,,,,,,,,,,,1206.9978,1207.9998,,,1208.5061,1208.7496,,121,121,,,,,,,,,,,,,,,,bars/034.png,bars/mask003.png,,,,,,,,,,,,7,1,,,,,,,8,2,8,2,,,,,,,,,,,1208.0001,1208.506,1208.7498,1211.5331,space,2.7533,,1211.5333,4,56,1212.532,1212.5321,1212.5441,,,,0,2,2,2,1,125,65,,,,,,,,
,,6452a0c8687cf626aa4dc721,65af5696cf3d8856f5c0ca71,2024-01-23_08h17.00.658,bars,2023.2.3,Win32,59.88023952,657b66ea316d21385b68909f,,,,,,,,,,,1212.5443,1213.5322,,,1214.0353,1214.2883,,44,44,,,,,,,,,,,,,,,,bars/028.png,bars/mask004.png,,,,,,,,,,,,5,1,,,,,,,6,4,5,5,,,,,,,,,,,1213.5323,1214.0353,1214.2884,1216.5651,space,2.2563,,1216.5655,1,76,1217.5656,1217.5658,1217.5685,,,,0,3,3,3,1,45,120,,,,,,,,
,,6452a0c8687cf626aa4dc721,65af5696cf3d8856f5c0ca71,2024-01-23_08h17.00.658,bars,2023.2.3,Win32,59.88023952,657b66ea316d21385b68909f,,,,,,,,,,,1217.5689,1218.5646,,,1219.0643,1219.314,,35,35,,,,,,,,,,,,,,,,bars/023.png,bars/mask004.png,,,,,,,,,,,,3,1,,,,,,,4,2,5,1,,,,,,,,,,,1218.5646,1219.0641,1219.3141,1223.1856,space,3.8495,,1223.1857,15,80,1224.1795,1224.1798,1224.1914,,,,0,4,4,4,1,20,115,,,,,,,,
,,6452a0c8687cf626aa4dc721,65af5696cf3d8856f5c0ca71,2024-01-23_08h17.00.658,bars,2023.2.3,Win32,59.88023952,657b66ea316d21385b68909f,,,,,,,,,,,1224.1917,1225.1958,,,1225.6959,1225.9347,,146,146,,,,,,,,,,,,,,,,bars/017.png,bars/mask000.png,,,,,,,,,,,,3,1,,,,,,,2,0,3,2,,,,,,,,,,,1225.1961,1225.6958,1225.9347,1230.1177,space,4.1653,,1230.1177,1,79,1231.1111,1231.1113,1231.1236,,,,0,5,5,5,1,145,45,,,,,,,,
,,6452a0c8687cf626aa4dc721,65af5696cf3d8856f5c0ca71,2024-01-23_08h17.00.658,bars,2023.2.3,Win32,59.88023952,657b66ea316d21385b68909f,,,,,,,,,,,1231.1238,1232.1273,,,1232.6275,1232.8775,,152,-28,,,,,,,,,,,,,,,,bars/049.png,bars/mask009.png,,,,,,,,,,,,1,1,,,,,,,0,2,1,3,,,,,,,,,,,1232.1274,1232.6273,1232.8776,1236.0773,space,3.1761,,1236.0776,8,37,1237.0762,1237.0764,1237.0885,,,,0,6,6,6,1,160,115,,,,,,,,
,,6452a0c8687cf626aa4dc721,65af5696cf3d8856f5c0ca71,2024-01-23_08h17.00.658,bars,2023.2.3,Win32,59.88023952,657b66ea316d21385b68909f,,,,,,,,,,,1237.0887,1238.0933,,,1238.5926,1238.8425,,16,16,,,,,,,,,,,,,,,,bars/023.png,bars/mask007.png,,,,,,,,,,,,2,1,,,,,,,2,0,2,0,,,,,,,,,,,1238.0935,1238.5925,1238.8426,1241.1257,space,2.2539,,1241.126,4,81,1242.1249,1242.1251,1242.1379,,,,0,7,7,7,1,20,115,,,,,,,,
,,6452a0c8687cf626aa4dc721,65af5696cf3d8856f5c0ca71,2024-01-23_08h17.00.658,bars,2023.2.3,Win32,59.88023952,657b66ea316d21385b68909f,,,,,,,,,,,1242.1381,1243.1416,,,1243.6416,1243.8912,,150,150,,,,,,,,,,,,,,,,bars/037.png,bars/mask007.png,,,,,,,,,,,,0,1,,,,,,,0,2,0,2,,,,,,,,,,,1243.1418,1243.6415,1243.8914,1247.9242,space,4.0015,,1247.9245,0,45,1248.9236,1248.9237,1248.9354,,,,0,8,8,8,1,150,105,,,,,,,,
,,6452a0c8687cf626aa4dc721,65af5696cf3d8856f5c0ca71,2024-01-23_08h17.00.658,bars,2023.2.3,Win32,59.88023952,657b66ea316d21385b68909f,,,,,,,,,,,1248.9356,1249.9399,,,1250.44,1250.6898,,172,-8,,,,,,,,,,,,,,,,bars/007.png,bars/mask002.png,,,,,,,,,,,,0,1,,,,,,,0,4,0,4,,,,,,,,,,,1249.94,1250.4398,1250.6899,1254.1451,space,3.433,,1254.1451,3,63,1255.1384,1255.1385,1255.151,,,,0,9,9,9,1,175,55,,,,,,,,
,,6452a0c8687cf626aa4dc721,65af5696cf3d8856f5c0ca71,2024-01-23_08h17.00.658,bars,2023.2.3,Win32,59.88023952,657b66ea316d21385b68909f,,,,,,,,,,,1255.1511,1256.1549,,,1256.6552,1256.9049,,148,-32,,,,,,,,,,,,,,,,bars/040.png,bars/mask005.png,,,,,,,,,,,,2,1,,,,,,,0,6,3,5,,,,,,,,,,,1256.155,1256.6551,1256.9051,1259.4547,space,2.5245,,1259.4548,8,37,1260.4541,1260.4541,1260.4664,,,,0,10,10,10,1,140,5,,,,,,,,
,,6452a0c8687cf626aa4dc721,65af5696cf3d8856f5c0ca71,2024-01-23_08h17.00.658,bars,2023.2.3,Win32,59.88023952,657b66ea316d21385b68909f,,,,,,,,,,,1260.4666,1261.4702,,,1261.9712,1262.2205,,161,161,,,,,,,,,,,,,,,,bars/010.png,bars/mask004.png,,,,,,,,,,,,3,1,,,,,,,2,4,3,5,,,,,,,,,,,1261.4704,1261.9711,1262.2208,1264.1706,space,1.9246,,1264.1707,4,74,1265.1699,1265.1701,1265.1818,,,,0,11,11,11,1,165,55,,,,,,,,
,,6452a0c8687cf626aa4dc721,65af5696cf3d8856f5c0ca71,2024-01-23_08h17.00.658,bars,2023.2.3,Win32,59.88023952,657b66ea316d21385b68909f,,,,,,,,,,,1265.182,1266.1859,,,1266.6749,1266.919,,160,160,,,,,,,,,,,,,,,,bars/010.png,bars/mask004.png,,,,,,,,,,,,0,1,,,,,,,0,6,0,5,,,,,,,,,,,1266.1861,1266.6748,1266.9192,1268.836,space,1.8893,,1268.8364,5,75,1269.8351,1269.8351,1269.8375,,,,0,12,12,12,1,165,55,,,,,,,,
,,6452a0c8687cf626aa4dc721,65af5696cf3d8856f5c0ca71,2024-01-23_08h17.00.658,bars,2023.2.3,Win32,59.88023952,657b66ea316d21385b68909f,,,,,,,,,,,1269.8387,1270.8355,,,1271.3349,1271.5848,,32,32,,,,,,,,,,,,,,,,bars/006.png,bars/mask006.png,,,,,,,,,,,,2,1,,,,,,,2,4,2,4,,,,,,,,,,,1270.8357,1271.3348,1271.5849,1273.1681,space,1.5509,,1273.1683,3,68,1274.1673,1274.1674,1274.1795,,,,0,13,13,13,1,35,100,,,,,,,,
,,6452a0c8687cf626aa4dc721,65af5696cf3d8856f5c0ca71,2024-01-23_08h17.00.658,bars,2023.2.3,Win32,59.88023952,657b66ea316d21385b68909f,,,,,,,,,,,1274.1798,1275.1836,,,1275.6873,1275.9333,,154,154,,,,,,,,,,,,,,,,bars/036.png,bars/mask003.png,,,,,,,,,,,,0,1,,,,,,,0,6,0,6,,,,,,,,,,,1275.1838,1275.6873,1275.9335,1277.9901,space,2.0343,,1277.9901,9,46,1278.983,1278.9831,1278.9946,,,,0,14,14,14,1,145,20,,,,,,,,
,,6452a0c8687cf626aa4dc721,65af5696cf3d8856f5c0ca71,2024-01-23_08h17.00.658,bars,2023.2.3,Win32,59.88023952,657b66ea316d21385b68909f,,,,,,,,,,,1278.9948,1279.9993,,,1280.4998,1280.7494,,47,47,,,,,,,,,,,,,,,,bars/044.png,bars/mask006.png,,,,,,,,,,,,0,1,,,,,,,2,8,1,8,,,,,,,,,,,1279.9993,1280.4997,1280.7496,1283.2991,space,2.5202,,1283.2992,28,72,1284.2982,1284.2983,1284.3111,,,,0,15,15,15,1,75,155,,,,,,,,
,,6452a0c8687cf626aa4dc721,65af5696cf3d8856f5c0ca71,2024-01-23_08h17.00.658,bars,2023.2.3,Win32,59.88023952,657b66ea316d21385b68909f,,,,,,,,,,,1284.3112,1285.3146,,,1285.815,1286.0647,,23,23,,,,,,,,,,,,,,,,bars/041.png,bars/mask004.png,,,,,,,,,,,,0,1,,,,,,,0,10,0,9,,,,,,,,,,,1285.3147,1285.8149,1286.0647,1288.398,space,2.3204,,1288.3984,3,62,1289.3971,1289.3974,1289.4095,,,,0,16,16,16,1,20,85,,,,,,,,
,,6452a0c8687cf626aa4dc721,65af5696cf3d8856f5c0ca71,2024-01-23_08h17.00.658,bars,2023.2.3,Win32,59.88023952,657b66ea316d21385b68909f,,,,,,,,,,,1289.4098,1290.4133,,,1290.9139,1291.1634,,142,-38,,,,,,,,,,,,,,,,bars/040.png,bars/mask000.png,,,,,,,,,,,,0,1,,,,,,,0,10,0,10,,,,,,,,,,,1290.4135,1290.9137,1291.1635,1295.2963,space,4.1068,,1295.2965,2,43,1296.2953,1296.2954,1296.3069,,,,0,17,17,17,1,140,5,,,,,,,,
,,6452a0c8687cf626aa4dc721,65af5696cf3d8856f5c0ca71,2024-01-23_08h17.00.658,bars,2023.2.3,Win32,59.88023952,657b66ea316d21385b68909f,,,,,,,,,,,1296.3071,1297.2952,,,1297.7948,1298.0447,,144,144,,,,,,,,,,,,,,,,bars/018.png,bars/mask000.png,,,,,,,,,,,,0,1,,,,,,,0,10,0,9,,,,,,,,,,,1297.2953,1297.7947,1298.0447,1300.1108,space,2.0581,,1300.1109,6,54,1301.1106,1301.1107,1301.122,,,,0,18,18,18,1,150,90,,,,,,,,
,,6452a0c8687cf626aa4dc721,65af5696cf3d8856f5c0ca71,2024-01-23_08h17.00.658,bars,2023.2.3,Win32,59.88023952,657b66ea316d21385b68909f,,,,,,,,,,,1301.1226,1302.1104,,,1302.6103,1302.8603,,114,114,,,,,,,,,,,,,,,,bars/020.png,bars/mask005.png,,,,,,,,,,,,2,1,,,,,,,2,8,2,8,,,,,,,,,,,1302.1104,1302.6103,1302.8603,1306.0261,space,3.1497,,1306.0261,1,56,1307.0258,1307.0259,1307.0379,,,,0,19,19,19,1,115,170,,,,,,,,
,,6452a0c8687cf626aa4dc721,65af5696cf3d8856f5c0ca71,2024-01-23_08h17.00.658,bars,2023.2.3,Win32,59.88023952,657b66ea316d21385b68909f,,,,,,,,,,,1307.0381,1308.0422,,,1308.542,1308.792,,57,237,,,,,,,,,,,,,,,,bars/019.png,bars/mask006.png,,,,,,,,,,,,1,1,,,,,,,0,6,1,6,,,,,,,,,,,1308.0422,1308.542,1308.7921,1312.9579,space,4.1506,,1312.958,12,48,1313.9574,1313.9574,1313.9687,,,,0,20,20,20,1,45,105,,,,,,,,
,,6452a0c8687cf626aa4dc721,65af5696cf3d8856f5c0ca71,2024-01-23_08h17.00.658,bars,2023.2.3,Win32,59.88023952,657b66ea316d21385b68909f,,,,,,,,,,,1313.9689,1314.9574,,,1315.4572,1315.7072,,65,65,,,,,,,,,,,,,,,,bars/044.png,bars/mask000.png,,,,,,,,,,,,1,1,,,,,,,2,8,2,5,,,,,,,,,,,1314.9574,1315.4572,1315.7072,1318.2734,space,2.5475,,1318.2734,10,90,1319.2729,1319.2729,1319.2839,,,,0,21,21,21,1,75,155,,,,,,,,
,,6452a0c8687cf626aa4dc721,65af5696cf3d8856f5c0ca71,2024-01-23_08h17.00.658,bars,2023.2.3,Win32,59.88023952,657b66ea316d21385b68909f,,,,,,,,,,,1319.2843,1320.2727,,,1320.7726,1321.0224,,44,224,,,,,,,,,,,,,,,,bars/048.png,bars/mask008.png,,,,,,,,,,,,3,1,,,,,,,4,6,4,7,,,,,,,,,,,1320.2727,1320.7725,1321.0224,1324.1552,space,3.1209,,1324.1554,6,49,1325.1549,1325.1549,1325.166,,,,0,22,22,22,1,50,175,,,,,,,,
,,6452a0c8687cf626aa4dc721,65af5696cf3d8856f5c0ca71,2024-01-23_08h17.00.658,bars,2023.2.3,Win32,59.88023952,657b66ea316d21385b68909f,,,,,,,,,,,1325.1663,1326.1546,,,1326.6546,1326.9044,,140,140,,,,,,,,,,,,,,,,bars/042.png,bars/mask000.png,,,,,,,,,,,,3,1,,,,,,,2,4,3,4,,,,,,,,,,,1326.1546,1326.6545,1326.9044,1329.2373,space,2.3165,,1329.2374,5,65,1330.2369,1330.237,1330.2482,,,,0,23,23,23,1,145,75,,,,,,,,
,,6452a0c8687cf626aa4dc721,65af5696cf3d8856f5c0ca71,2024-01-23_08h17.00.658,bars,2023.2.3,Win32,59.88023952,657b66ea316d21385b68909f,,,,,,,,,,,1330.2484,1331.2368,,,1331.7367,1331.9866,,94,94,,,,,,,,,,,,,,,,bars/020.png,bars/mask002.png,,,,,,,,,,,,0,1,,,,,,,0,2,1,3,,,,,,,,,,,1331.2368,1331.7367,1331.9867,1335.6522,space,3.6555,,1335.6523,21,76,1336.6519,1336.6519,1336.6628,,,,0,24,24,24,1,115,170,,,,,,,,
,,6452a0c8687cf626aa4dc721,65af5696cf3d8856f5c0ca71,2024-01-23_08h17.00.658,bars,2023.2.3,Win32,59.88023952,657b66ea316d21385b68909f,,,,,,,,,,,1336.6629,1337.6517,,,1338.1521,1338.4018,,172,172,,,,,,,,,,,,,,,,bars/032.png,bars/mask008.png,,,,,,,,,,,,0,2,,,,,,,0,0,2,0,,,,,,,,,,,1337.6519,1338.152,1338.402,1342.2349,space,3.8012,,1342.2351,47,28,1343.2344,1343.2345,1343.2479,,,,0,25,25,25,1,125,20,,,,,,,,
,,6452a0c8687cf626aa4dc721,65af5696cf3d8856f5c0ca71,2024-01-23_08h17.00.658,bars,2023.2.3,Win32,59.88023952,657b66ea316d21385b68909f,,,,,,,,,,,1343.2481,1344.2506,,,1344.7509,1345.0003,,88,88,,,,,,,,,,,,,,,,bars/022.png,bars/mask001.png,,,,,,,,,,,,1,1,,,,,,,2,0,1,0,,,,,,,,,,,1344.2508,1344.7508,1345.0003,1347.7,space,2.6698,,1347.7003,7,68,1348.6997,1348.6998,1348.7126,,,,0,26,26,26,1,95,20,,,,,,,,
,,6452a0c8687cf626aa4dc721,65af5696cf3d8856f5c0ca71,2024-01-23_08h17.00.658,bars,2023.2.3,Win32,59.88023952,657b66ea316d21385b68909f,,,,,,,,,,,1348.7128,1349.7159,,,1350.2159,1350.4549,,34,34,,,,,,,,,,,,,,,,bars/000.png,bars/mask000.png,,,,,,,,,,,,0,1,,,,,,,0,2,0,2,,,,,,,,,,,1349.716,1350.2158,1350.4549,1352.7712,space,2.3002,,1352.7713,6,69,1353.7651,1353.7653,1353.777,,,,0,27,27,27,1,40,145,,,,,,,,
,,6452a0c8687cf626aa4dc721,65af5696cf3d8856f5c0ca71,2024-01-23_08h17.00.658,bars,2023.2.3,Win32,59.88023952,657b66ea316d21385b68909f,,,,,,,,,,,1353.7772,1354.7816,,,1355.2813,1355.531,,142,142,,,,,,,,,,,,,,,,bars/049.png,bars/mask003.png,,,,,,,,,,,,0,1,,,,,,,0,0,0,1,,,,,,,,,,,1354.7817,1355.2812,1355.5311,1357.6977,space,2.1344,,1357.6979,18,27,1358.697,1358.6972,1358.7089,,,,0,28,28,28,1,160,115,,,,,,,,
,,6452a0c8687cf626aa4dc721,65af5696cf3d8856f5c0ca71,2024-01-23_08h17.00.658,bars,2023.2.3,Win32,59.88023952,657b66ea316d21385b68909f,,,,,,,,,,,1358.7091,1359.7134,,,1360.214,1360.4634,,167,167,,,,,,,,,,,,,,,,bars/038.png,bars/mask009.png,,,,,,,,,,,,2,1,,,,,,,2,0,2,0,,,,,,,,,,,1359.7136,1360.2138,1360.4635,1362.1637,space,1.6687,,1362.1639,2,83,1363.1625,1363.1627,1363.1752,,,,0,29,29,29,1,165,70,,,,,,,,
,,6452a0c8687cf626aa4dc721,65af5696cf3d8856f5c0ca71,2024-01-23_08h17.00.658,bars,2023.2.3,Win32,59.88023952,657b66ea316d21385b68909f,,,,,,,,,,,1363.1755,1364.1791,,,1364.6791,1364.9289,,88,88,,,,,,,,,,,,,,,,bars/022.png,bars/mask000.png,,,,,,,,,,,,0,1,,,,,,,0,2,0,2,,,,,,,,,,,1364.1792,1364.679,1364.929,1365.8959,space,0.9392,,1365.8961,7,68,1366.8951,1366.8953,1366.8987,,,,0,30,30,30,1,95,20,,,,,,,,
,,6452a0c8687cf626aa4dc721,65af5696cf3d8856f5c0ca71,2024-01-23_08h17.00.658,bars,2023.2.3,Win32,59.88023952,657b66ea316d21385b68909f,,,,,,,,,,,1366.8991,1367.8947,,,1368.3948,1368.6453,,40,220,,,,,,,,,,,,,,,,bars/000.png,bars/mask005.png,,,,,,,,,,,,1,1,,,,,,,2,0,1,0,,,,,,,,,,,1367.8949,1368.3947,1368.6454,1370.6281,space,1.9554,,1370.6282,0,75,1371.6273,1371.6276,1371.6311,,,,0,31,31,31,1,40,145,,,,,,,,
,,6452a0c8687cf626aa4dc721,65af5696cf3d8856f5c0ca71,2024-01-23_08h17.00.658,bars,2023.2.3,Win32,59.88023952,657b66ea316d21385b68909f,,,,,,,,,,,1371.6314,1372.6273,,,1373.127,1373.3811,,170,-10,,,,,,,,,,,,,,,,bars/007.png,bars/mask000.png,,,,,,,,,,,,4,1,,,,,,,4,2,5,2,,,,,,,,,,,1372.6273,1373.127,1373.3811,1377.3763,space,3.975,,1377.3765,5,65,1378.3757,1378.3758,1378.3887,,,,0,32,32,32,1,175,55,,,,,,,,
,,6452a0c8687cf626aa4dc721,65af5696cf3d8856f5c0ca71,2024-01-23_08h17.00.658,bars,2023.2.3,Win32,59.88023952,657b66ea316d21385b68909f,,,,,,,,,,,1378.3889,1379.3923,,,1379.892,1380.1421,,34,214,,,,,,,,,,,,,,,,bars/023.png,bars/mask001.png,,,,,,,,,,,,2,1,,,,,,,2,0,3,1,,,,,,,,,,,1379.3924,1379.8919,1380.1422,1382.2754,space,2.101,,1382.2758,14,81,1383.2781,1383.2781,1383.2877,,,,0,33,33,33,1,20,115,,,,,,,,
,,6452a0c8687cf626aa4dc721,65af5696cf3d8856f5c0ca71,2024-01-23_08h17.00.658,bars,2023.2.3,Win32,59.88023952,657b66ea316d21385b68909f,,,,,,,,,,,1383.2879,1384.291,,,1384.7909,1385.0412,,145,-35,,,,,,,,,,,,,,,,bars/042.png,bars/mask002.png,,,,,,,,,,,,0,1,,,,,,,0,0,0,0,,,,,,,,,,,1384.2912,1384.7908,1385.0414,1386.924,space,1.8523,,1386.9241,0,70,1387.9235,1387.9237,1387.927,,,,0,34,34,34,1,145,75,,,,,,,,
,,6452a0c8687cf626aa4dc721,65af5696cf3d8856f5c0ca71,2024-01-23_08h17.00.658,bars,2023.2.3,Win32,59.88023952,657b66ea316d21385b68909f,,,,,,,,,,,1387.9273,1388.9232,,,1389.4228,1389.6727,,107,-73,,,,,,,,,,,,,,,,bars/031.png,bars/mask002.png,,,,,,,,,,,,1,1,,,,,,,0,2,1,1,,,,,,,,,,,1388.9233,1389.4228,1389.6727,1394.3049,space,4.6231,,1394.3049,13,72,1395.3047,1395.3047,1395.3156,,,,0,35,35,35,1,120,35,,,,,,,,
,,6452a0c8687cf626aa4dc721,65af5696cf3d8856f5c0ca71,2024-01-23_08h17.00.658,bars,2023.2.3,Win32,59.88023952,657b66ea316d21385b68909f,,,,,,,,,,,1395.3159,1396.3045,,,1396.8043,1397.0543,,173,-7,,,,,,,,,,,,,,,,bars/039.png,bars/mask006.png,,,,,,,,,,,,0,1,,,,,,,0,0,0,0,,,,,,,,,,,1396.3045,1396.8043,1397.0543,1401.52,space,4.4519,,1401.52,2,68,1402.5196,1402.5196,1402.5315,,,,0,36,36,36,1,175,105,,,,,,,,
,,6452a0c8687cf626aa4dc721,65af5696cf3d8856f5c0ca71,2024-01-23_08h17.00.658,bars,2023.2.3,Win32,59.88023952,657b66ea316d21385b68909f,,,,,,,,,,,1402.5317,1403.5361,,,1404.0358,1404.2858,,25,205,,,,,,,,,,,,,,,,bars/009.png,bars/mask006.png,,,,,,,,,,,,0,1,,,,,,,0,0,0,0,,,,,,,,,,,1403.5361,1404.0358,1404.2859,1407.1019,space,2.8076,,1407.102,10,80,1408.1016,1408.1016,1408.1127,,,,0,37,37,37,1,15,105,,,,,,,,
,,6452a0c8687cf626aa4dc721,65af5696cf3d8856f5c0ca71,2024-01-23_08h17.00.658,bars,2023.2.3,Win32,59.88023952,657b66ea316d21385b68909f,,,,,,,,,,,1408.113,1409.1013,,,1409.6012,1409.8511,,96,96,,,,,,,,,,,,,,,,bars/025.png,bars/mask001.png,,,,,,,,,,,,0,1,,,,,,,0,0,0,1,,,,,,,,,,,1409.1013,1409.6012,1409.8511,1413.134,space,3.2719,,1413.134,9,56,1414.1335,1414.1335,1414.1445,,,,0,38,38,38,1,105,40,,,,,,,,
,,6452a0c8687cf626aa4dc721,65af5696cf3d8856f5c0ca71,2024-01-23_08h17.00.658,bars,2023.2.3,Win32,59.88023952,657b66ea316d21385b68909f,,,,,,,,,,,1414.1447,1415.1333,,,1415.6332,1415.8828,,168,-12,,,,,,,,,,,,,,,,bars/046.png,bars/mask002.png,,,,,,,,,,,,2,1,,,,,,,2,0,3,0,,,,,,,,,,,1415.1333,1415.6332,1415.8829,1419.1824,space,3.2836,,1419.1825,13,83,1420.182,1420.182,1420.1935,,,,0,39,39,39,1,155,85,,,,,,,,
,,6452a0c8687cf626aa4dc721,65af5696cf3d8856f5c0ca71,2024-01-23_08h17.00.658,bars,2023.2.3,Win32,59.88023952,657b66ea316d21385b68909f,,,,,,,,,,,1420.1937,1421.1817,,,1421.6818,1421.9316,,157,-23,,,,,,,,,,,,,,,,bars/037.png,bars/mask001.png,,,,,,,,,,,,3,1,,,,,,,4,0,4,1,,,,,,,,,,,1421.1817,1421.6818,1421.9316,1425.3475,space,3.3999,,1425.3476,7,52,1426.3472,1426.3472,1426.359,,,,0,40,40,40,1,150,105,,,,,,,,
,,6452a0c8687cf626aa4dc721,65af5696cf3d8856f5c0ca71,2024-01-23_08h17.00.658,bars,2023.2.3,Win32,59.88023952,657b66ea316d21385b68909f,,,,,,,,,,,1426.3592,1427.347,,,1427.8469,1428.0967,,13,13,,,,,,,,,,,,,,,,bars/033.png,bars/mask005.png,,,,,,,,,,,,2,1,,,,,,,6,0,4,0,,,,,,,,,,,1427.347,1427.8469,1428.0967,1430.9795,space,2.8669,,1430.9795,12,38,1431.9792,1431.9792,1431.9903,,,,0,41,41,41,1,25,155,,,,,,,,
,,6452a0c8687cf626aa4dc721,65af5696cf3d8856f5c0ca71,2024-01-23_08h17.00.658,bars,2023.2.3,Win32,59.88023952,657b66ea316d21385b68909f,,,,,,,,,,,1431.9906,1432.9789,,,1433.4789,1433.7288,,3,183,,,,,,,,,,,,,,,,bars/023.png,bars/mask004.png,,,,,,,,,,,,2,1,,,,,,,4,2,5,2,,,,,,,,,,,1432.9789,1433.4789,1433.7289,1437.8779,space,4.1396,,1437.8779,17,68,1438.8774,1438.8774,1438.8885,,,,0,42,42,42,1,20,115,,,,,,,,
,,6452a0c8687cf626aa4dc721,65af5696cf3d8856f5c0ca71,2024-01-23_08h17.00.658,bars,2023.2.3,Win32,59.88023952,657b66ea316d21385b68909f,,,,,,,,,,,1438.8887,1439.8774,,,1440.3772,1440.6272,,151,151,,,,,,,,,,,,,,,,bars/036.png,bars/mask002.png,,,,,,,,,,,,6,1,,,,,,,6,0,7,1,,,,,,,,,,,1439.8774,1440.3772,1440.6273,1443.3432,space,2.7021,,1443.3433,6,49,1444.3426,1444.3426,1444.3546,,,,0,43,43,43,1,145,20,,,,,,,,
,,6452a0c8687cf626aa4dc721,65af5696cf3d8856f5c0ca71,2024-01-23_08h17.00.658,bars,2023.2.3,Win32,59.88023952,657b66ea316d21385b68909f,,,,,,,,,,,1444.3548,1445.3427,,,1445.8426,1446.0924,,37,217,,,,,,,,,,,,,,,,bars/000.png,bars/mask006.png,,,,,,,,,,,,5,1,,,,,,,4,2,6,2,,,,,,,,,,,1445.3427,1445.8426,1446.0924,1450.6749,space,4.5729,,1450.675,3,72,1451.6745,1451.6746,1451.6867,,,,0,44,44,44,1,40,145,,,,,,,,
,,6452a0c8687cf626aa4dc721,65af5696cf3d8856f5c0ca71,2024-01-23_08h17.00.658,bars,2023.2.3,Win32,59.88023952,657b66ea316d21385b68909f,,,,,,,,,,,1451.6869,1452.6909,,,1453.1909,1453.4407,,129,129,,,,,,,,,,,,,,,,bars/020.png,bars/mask002.png,,,,,,,,,,,,2,1,,,,,,,2,4,3,4,,,,,,,,,,,1452.691,1453.1909,1453.4407,1455.6406,space,2.1911,,1455.6407,14,41,1456.6399,1456.6399,1456.6515,,,,0,45,45,45,1,115,170,,,,,,,,
,,6452a0c8687cf626aa4dc721,65af5696cf3d8856f5c0ca71,2024-01-23_08h17.00.658,bars,2023.2.3,Win32,59.88023952,657b66ea316d21385b68909f,,,,,,,,,,,1456.6517,1457.6398,,,1458.1396,1458.3896,,176,176,,,,,,,,,,,,,,,,bars/035.png,bars/mask001.png,,,,,,,,,,,,4,1,,,,,,,4,2,4,1,,,,,,,,,,,1457.6398,1458.1395,1458.3896,1461.0721,space,2.6723,,1461.0721,1,64,1462.0719,1462.072,1462.0841,,,,0,46,46,46,1,175,60,,,,,,,,
,,6452a0c8687cf626aa4dc721,65af5696cf3d8856f5c0ca71,2024-01-23_08h17.00.658,bars,2023.2.3,Win32,59.88023952,657b66ea316d21385b68909f,,,,,,,,,,,1462.0842,1463.0884,,,1463.5883,1463.8382,,43,223,,,,,,,,,,,,,,,,bars/048.png,bars/mask002.png,,,,,,,,,,,,5,1,,,,,,,6,0,6,0,,,,,,,,,,,1463.0885,1463.5883,1463.8383,1467.5207,space,3.6738,,1467.5208,7,48,1468.5205,1468.5206,1468.532,,,,0,47,47,47,1,50,175,,,,,,,,
,,6452a0c8687cf626aa4dc721,65af5696cf3d8856f5c0ca71,2024-01-23_08h17.00.658,bars,2023.2.3,Win32,59.88023952,657b66ea316d21385b68909f,,,,,,,,,,,1468.5322,1469.5202,,,1470.0202,1470.2701,,142,142,,,,,,,,,,,,,,,,bars/017.png,bars/mask007.png,,,,,,,,,,,,5,1,,,,,,,4,2,5,2,,,,,,,,,,,1469.5202,1470.0201,1470.2701,1471.2531,space,0.964,,1471.2532,3,83,1472.2529,1472.253,1472.2536,,,,0,48,48,48,1,145,45,,,,,,,,
,,6452a0c8687cf626aa4dc721,65af5696cf3d8856f5c0ca71,2024-01-23_08h17.00.658,bars,2023.2.3,Win32,59.88023952,657b66ea316d21385b68909f,,,,,,,,,,,1472.2537,1473.2526,,,1473.7526,1474.0025,,39,39,,,,,,,,,,,,,,,,bars/003.png,bars/mask001.png,,,,,,,,,,,,2,1,,,,,,,2,4,4,3,,,,,,,,,,,1473.2527,1473.7526,1474.0025,1478.4849,space,4.4685,,1478.485,14,79,1479.4846,1479.4846,1479.4958,,,,0,49,49,49,1,25,140,,,,,,,,
,,6452a0c8687cf626aa4dc721,65af5696cf3d8856f5c0ca71,2024-01-23_08h17.00.658,bars,2023.2.3,Win32,59.88023952,657b66ea316d21385b68909f,,,,,,,,,,,,,,,,,,,,,,,,,,,,,,,,,,,,,,,,,,,,,,,,,,,,,,,,,,,,,,,,,,,,,,,,,,,,,,,,,,,,,,,,,,,,,1479.496,1539.4868,0,2,2,4,1,sequence_tables/blk015.csv
,,6452a0c8687cf626aa4dc721,65af5696cf3d8856f5c0ca71,2024-01-23_08h17.00.658,bars,2023.2.3,Win32,59.88023952,657b66ea316d21385b68909f,,,,,,,,,,,1540.8445,1541.8362,,,1542.3361,1542.586,,63,63,,,,,,,,,,,,,,,,bars/029.png,bars/mask002.png,,,,,,,,,,,,1,2,,,,,,,2,3,5,3,,,,,,1539.4987,1540.8366,space,1.331,,1541.8363,1542.3361,1542.5861,1543.9525,space,1.3506,,1543.9525,27,18,1544.9521,1544.9521,1544.9593,,,,0,0,0,0,1,90,45,,,,,,,,
,,6452a0c8687cf626aa4dc721,65af5696cf3d8856f5c0ca71,2024-01-23_08h17.00.658,bars,2023.2.3,Win32,59.88023952,657b66ea316d21385b68909f,,,,,,,,,,,1544.9598,1545.9519,,,1546.4516,1546.7015,,18,18,,,,,,,,,,,,,,,,bars/023.png,bars/mask009.png,,,,,,,,,,,,3,1,,,,,,,4,1,3,1,,,,,,,,,,,1545.9519,1546.4516,1546.7015,1548.4681,space,1.7507,,1548.4682,2,83,1549.4678,1549.4678,1549.4719,,,,0,1,1,1,1,20,115,,,,,,,,
,,6452a0c8687cf626aa4dc721,65af5696cf3d8856f5c0ca71,2024-01-23_08h17.00.658,bars,2023.2.3,Win32,59.88023952,657b66ea316d21385b68909f,,,,,,,,,,,1549.4729,1550.4675,,,1550.9674,1551.2174,,107,107,,,,,,,,,,,,,,,,bars/031.png,bars/mask008.png,,,,,,,,,,,,3,1,,,,,,,6,0,5,0,,,,,,,,,,,1550.4676,1550.9674,1551.2174,1553.3167,space,2.0817,,1553.3168,13,72,1554.3166,1554.3166,1554.3276,,,,0,2,2,2,1,120,35,,,,,,,,
,,6452a0c8687cf626aa4dc721,65af5696cf3d8856f5c0ca71,2024-01-23_08h17.00.658,bars,2023.2.3,Win32,59.88023952,657b66ea316d21385b68909f,,,,,,,,,,,1554.3278,1555.3163,,,1555.8162,1556.0663,,50,50,,,,,,,,,,,,,,,,bars/028.png,bars/mask008.png,,,,,,,,,,,,3,1,,,,,,,4,2,4,2,,,,,,,,,,,1555.3163,1555.8162,1556.0664,1558.2156,space,2.1342,,1558.2157,5,70,1559.2154,1559.2155,1559.2161,,,,0,3,3,3,1,45,120,,,,,,,,
,,6452a0c8687cf626aa4dc721,65af5696cf3d8856f5c0ca71,2024-01-23_08h17.00.658,bars,2023.2.3,Win32,59.88023952,657b66ea316d21385b68909f,,,,,,,,,,,1559.2163,1560.2151,,,1560.7149,1560.9649,,16,196,,,,,,,,,,,,,,,,bars/009.png,bars/mask005.png,,,,,,,,,,,,6,1,,,,,,,6,4,6,4,,,,,,,,,,,1560.2152,1560.7149,1560.965,1564.2643,space,3.2882,,1564.2643,1,89,1565.264,1565.264,1565.2753,,,,0,4,4,4,1,15,105,,,,,,,,
,,6452a0c8687cf626aa4dc721,65af5696cf3d8856f5c0ca71,2024-01-23_08h17.00.658,bars,2023.2.3,Win32,59.88023952,657b66ea316d21385b68909f,,,,,,,,,,,1565.2756,1566.2637,,,1566.7636,1567.0135,,76,76,,,,,,,,,,,,,,,,bars/014.png,bars/mask001.png,,,,,,,,,,,,3,1,,,,,,,4,2,3,2,,,,,,,,,,,1566.2638,1566.7636,1567.0136,1569.563,space,2.5338,,1569.563,4,76,1570.5626,1570.5627,1570.5744,,,,0,5,5,5,1,80,0,,,,,,,,
,,6452a0c8687cf626aa4dc721,65af5696cf3d8856f5c0ca71,2024-01-23_08h17.00.658,bars,2023.2.3,Win32,59.88023952,657b66ea316d21385b68909f,,,,,,,,,,,1570.5746,1571.5791,,,1572.0791,1572.3289,,170,170,,,,,,,,,,,,,,,,bars/007.png,bars/mask004.png,,,,,,,,,,,,2,1,,,,,,,2,4,2,5,,,,,,,,,,,1571.5791,1572.0791,1572.3289,1575.2783,space,2.931,,1575.2783,5,65,1576.2779,1576.2779,1576.2892,,,,0,6,6,6,1,175,55,,,,,,,,
,,6452a0c8687cf626aa4dc721,65af5696cf3d8856f5c0ca71,2024-01-23_08h17.00.658,bars,2023.2.3,Win32,59.88023952,657b66ea316d21385b68909f,,,,,,,,,,,1576.2894,1577.2775,,,1577.7776,1578.0276,,120,120,,,,,,,,,,,,,,,,bars/034.png,bars/mask002.png,,,,,,,,,,,,4,1,,,,,,,4,2,5,2,,,,,,,,,,,1577.2775,1577.7775,1578.0276,1579.4606,space,1.4193,,1579.4606,5,55,1580.4602,1580.4603,1580.4609,,,,0,7,7,7,1,125,65,,,,,,,,
,,6452a0c8687cf626aa4dc721,65af5696cf3d8856f5c0ca71,2024-01-23_08h17.00.658,bars,2023.2.3,Win32,59.88023952,657b66ea316d21385b68909f,,,,,,,,,,,1580.4612,1581.4601,,,1581.9599,1582.2098,,31,211,,,,,,,,,,,,,,,,bars/004.png,bars/mask004.png,,,,,,,,,,,,2,1,,,,,,,2,4,2,6,,,,,,,,,,,1581.4601,1581.9598,1582.2098,1585.8423,space,3.6245,,1585.8423,6,86,1586.8421,1586.8421,1586.8535,,,,0,8,8,8,1,25,125,,,,,,,,
,,6452a0c8687cf626aa4dc721,65af5696cf3d8856f5c0ca71,2024-01-23_08h17.00.658,bars,2023.2.3,Win32,59.88023952,657b66ea316d21385b68909f,,,,,,,,,,,1586.8537,1587.8418,,,1588.3416,1588.5917,,142,-38,,,,,,,,,,,,,,,,bars/040.png,bars/mask005.png,,,,,,,,,,,,0,1,,,,,,,0,2,0,2,,,,,,,,,,,1587.8418,1588.3416,1588.5917,1593.2906,space,4.6832,,1593.2907,2,43,1594.2903,1594.2904,1594.3021,,,,0,9,9,9,1,140,5,,,,,,,,
,,6452a0c8687cf626aa4dc721,65af5696cf3d8856f5c0ca71,2024-01-23_08h17.00.658,bars,2023.2.3,Win32,59.88023952,657b66ea316d21385b68909f,,,,,,,,,,,1594.3023,1595.29,,,1595.7899,1596.0399,,110,110,,,,,,,,,,,,,,,,bars/001.png,bars/mask004.png,,,,,,,,,,,,0,1,,,,,,,0,4,0,5,,,,,,,,,,,1595.2901,1595.7899,1596.0399,1598.3228,space,2.2672,,1598.3228,20,25,1599.3224,1599.3224,1599.3232,,,,0,10,10,10,1,130,85,,,,,,,,
,,6452a0c8687cf626aa4dc721,65af5696cf3d8856f5c0ca71,2024-01-23_08h17.00.658,bars,2023.2.3,Win32,59.88023952,657b66ea316d21385b68909f,,,,,,,,,,,1599.3238,1600.3221,,,1600.822,1601.072,,131,131,,,,,,,,,,,,,,,,bars/002.png,bars/mask008.png,,,,,,,,,,,,1,1,,,,,,,2,2,1,0,,,,,,,,,,,1600.3221,1600.822,1601.072,1603.6881,space,2.6,,1603.6882,1,46,1604.6878,1604.6878,1604.7001,,,,0,11,11,11,1,130,85,,,,,,,,
,,6452a0c8687cf626aa4dc721,65af5696cf3d8856f5c0ca71,2024-01-23_08h17.00.658,bars,2023.2.3,Win32,59.88023952,657b66ea316d21385b68909f,,,,,,,,,,,1604.7004,1605.7042,,,1606.2041,1606.4541,,134,134,,,,,,,,,,,,,,,,bars/037.png,bars/mask005.png,,,,,,,,,,,,2,1,,,,,,,4,4,5,5,,,,,,,,,,,1605.7042,1606.2041,1606.4541,1607.9705,space,1.5004,,1607.9705,16,29,1608.9701,1608.9701,1608.9707,,,,0,12,12,12,1,150,105,,,,,,,,
,,6452a0c8687cf626aa4dc721,65af5696cf3d8856f5c0ca71,2024-01-23_08h17.00.658,bars,2023.2.3,Win32,59.88023952,657b66ea316d21385b68909f,,,,,,,,,,,1608.9711,1609.9699,,,1610.4698,1610.7198,,171,-9,,,,,,,,,,,,,,,,bars/039.png,bars/mask004.png,,,,,,,,,,,,0,1,,,,,,,2,2,0,3,,,,,,,,,,,1609.9699,1610.4698,1610.7198,1612.8693,space,2.1341,,1612.8693,4,66,1613.8691,1613.8691,1613.8803,,,,0,13,13,13,1,175,105,,,,,,,,
,,6452a0c8687cf626aa4dc721,65af5696cf3d8856f5c0ca71,2024-01-23_08h17.00.658,bars,2023.2.3,Win32,59.88023952,657b66ea316d21385b68909f,,,,,,,,,,,1613.8805,1614.8687,,,1615.3686,1615.6185,,178,178,,,,,,,,,,,,,,,,bars/039.png,bars/mask006.png,,,,,,,,,,,,5,1,,,,,,,4,4,5,4,,,,,,,,,,,1614.8688,1615.3686,1615.6186,1618.7011,space,3.0685,,1618.7011,3,73,1619.7008,1619.7008,1619.7126,,,,0,14,14,14,1,175,105,,,,,,,,
,,6452a0c8687cf626aa4dc721,65af5696cf3d8856f5c0ca71,2024-01-23_08h17.00.658,bars,2023.2.3,Win32,59.88023952,657b66ea316d21385b68909f,,,,,,,,,,,1619.7128,1620.7006,,,1621.2006,1621.4504,,92,92,,,,,,,,,,,,,,,,bars/022.png,bars/mask002.png,,,,,,,,,,,,1,1,,,,,,,2,6,1,7,,,,,,,,,,,1620.7006,1621.2005,1621.4504,1624.9161,space,3.458,,1624.9162,3,72,1625.916,1625.916,1625.9273,,,,0,15,15,15,1,95,20,,,,,,,,
,,6452a0c8687cf626aa4dc721,65af5696cf3d8856f5c0ca71,2024-01-23_08h17.00.658,bars,2023.2.3,Win32,59.88023952,657b66ea316d21385b68909f,,,,,,,,,,,1625.9275,1626.9158,,,1627.4156,1627.6657,,23,23,,,,,,,,,,,,,,,,bars/000.png,bars/mask006.png,,,,,,,,,,,,1,1,,,,,,,4,4,2,5,,,,,,,,,,,1626.9158,1627.4156,1627.6657,1630.8316,space,3.1526,,1630.8316,17,58,1631.8311,1631.8311,1631.8435,,,,0,16,16,16,1,40,145,,,,,,,,
,,6452a0c8687cf626aa4dc721,65af5696cf3d8856f5c0ca71,2024-01-23_08h17.00.658,bars,2023.2.3,Win32,59.88023952,657b66ea316d21385b68909f,,,,,,,,,,,1631.8437,1632.8477,,,1633.3478,1633.5973,,134,134,,,,,,,,,,,,,,,,bars/032.png,bars/mask005.png,,,,,,,,,,,,4,1,,,,,,,6,2,5,2,,,,,,,,,,,1632.8477,1633.3478,1633.5974,1635.6805,space,2.071,,1635.6806,9,66,1636.6801,1636.6801,1636.6919,,,,0,17,17,17,1,125,20,,,,,,,,
,,6452a0c8687cf626aa4dc721,65af5696cf3d8856f5c0ca71,2024-01-23_08h17.00.658,bars,2023.2.3,Win32,59.88023952,657b66ea316d21385b68909f,,,,,,,,,,,1636.6921,1637.6965,,,1638.1966,1638.4464,,108,108,,,,,,,,,,,,,,,,bars/012.png,bars/mask009.png,,,,,,,,,,,,3,1,,,,,,,8,4,7,3,,,,,,,,,,,1637.6965,1638.1966,1638.4464,1640.1129,space,1.6569,,1640.1129,18,87,1641.1124,1641.1124,1641.1131,,,,0,18,18,18,1,90,15,,,,,,,,
,,6452a0c8687cf626aa4dc721,65af5696cf3d8856f5c0ca71,2024-01-23_08h17.00.658,bars,2023.2.3,Win32,59.88023952,657b66ea316d21385b68909f,,,,,,,,,,,1641.1134,1642.1121,,,1642.612,1642.8619,,108,108,,,,,,,,,,,,,,,,bars/027.png,bars/mask003.png,,,,,,,,,,,,5,1,,,,,,,6,2,5,3,,,,,,,,,,,1642.1122,1642.6119,1642.8619,1646.761,space,3.8918,,1646.7611,2,58,1647.7608,1647.7609,1647.7723,,,,0,19,19,19,1,110,50,,,,,,,,
,,6452a0c8687cf626aa4dc721,65af5696cf3d8856f5c0ca71,2024-01-23_08h17.00.658,bars,2023.2.3,Win32,59.88023952,657b66ea316d21385b68909f,,,,,,,,,,,1647.7727,1648.7606,,,1649.2605,1649.5105,,2,2,,,,,,,,,,,,,,,,bars/039.png,bars/mask004.png,,,,,,,,,,,,6,1,,,,,,,8,4,8,2,,,,,,,,,,,1648.7606,1649.2605,1649.5105,1653.3428,space,3.8199,,1653.3429,7,77,1654.3424,1654.3424,1654.3534,,,,0,20,20,20,1,175,105,,,,,,,,
,,6452a0c8687cf626aa4dc721,65af5696cf3d8856f5c0ca71,2024-01-23_08h17.00.658,bars,2023.2.3,Win32,59.88023952,657b66ea316d21385b68909f,,,,,,,,,,,1654.3536,1655.3421,,,1655.8422,1656.0921,,108,-72,,,,,,,,,,,,,,,,bars/008.png,bars/mask005.png,,,,,,,,,,,,5,1,,,,,,,6,6,5,6,,,,,,,,,,,1655.3422,1655.8422,1656.0921,1661.4909,space,5.3885,,1661.491,2,72,1662.4906,1662.4906,1662.5025,,,,0,21,21,21,1,110,0,,,,,,,,
,,6452a0c8687cf626aa4dc721,65af5696cf3d8856f5c0ca71,2024-01-23_08h17.00.658,bars,2023.2.3,Win32,59.88023952,657b66ea316d21385b68909f,,,,,,,,,,,1662.5027,1663.4904,,,1663.9903,1664.2401,,43,43,,,,,,,,,,,,,,,,bars/000.png,bars/mask001.png,,,,,,,,,,,,8,1,,,,,,,8,4,9,4,,,,,,,,,,,1663.4905,1663.9902,1664.2401,1667.7561,space,3.5037,,1667.7561,3,78,1668.7558,1668.7558,1668.767,,,,0,22,22,22,1,40,145,,,,,,,,
,,6452a0c8687cf626aa4dc721,65af5696cf3d8856f5c0ca71,2024-01-23_08h17.00.658,bars,2023.2.3,Win32,59.88023952,657b66ea316d21385b68909f,,,,,,,,,,,1668.7671,1669.7556,,,1670.2555,1670.5052,,45,45,,,,,,,,,,,,,,,,bars/028.png,bars/mask002.png,,,,,,,,,,,,10,1,,,,,,,10,2,10,2,,,,,,,,,,,1669.7556,1670.2554,1670.5053,1673.5048,space,2.9834,,1673.5049,0,75,1674.5044,1674.5044,1674.516,,,,0,23,23,23,1,45,120,,,,,,,,
,,6452a0c8687cf626aa4dc721,65af5696cf3d8856f5c0ca71,2024-01-23_08h17.00.658,bars,2023.2.3,Win32,59.88023952,657b66ea316d21385b68909f,,,,,,,,,,,1674.5162,1675.5042,,,1676.0041,1676.254,,114,114,,,,,,,,,,,,,,,,bars/020.png,bars/mask009.png,,,,,,,,,,,,10,1,,,,,,,10,4,10,6,,,,,,,,,,,1675.5042,1676.004,1676.254,1679.8199,space,3.5479,,1679.8199,1,56,1680.8196,1680.8196,1680.8322,,,,0,24,24,24,1,115,170,,,,,,,,
,,6452a0c8687cf626aa4dc721,65af5696cf3d8856f5c0ca71,2024-01-23_08h17.00.658,bars,2023.2.3,Win32,59.88023952,657b66ea316d21385b68909f,,,,,,,,,,,1680.8325,1681.836,,,1682.3359,1682.5863,,1,181,,,,,,,,,,,,,,,,bars/007.png,bars/mask009.png,,,,,,,,,,,,7,1,,,,,,,10,6,9,7,,,,,,,,,,,1681.836,1682.3359,1682.5864,1688.2346,space,5.6324,,1688.2347,6,54,1689.2342,1689.2342,1689.2453,,,,0,25,25,25,1,175,55,,,,,,,,
,,6452a0c8687cf626aa4dc721,65af5696cf3d8856f5c0ca71,2024-01-23_08h17.00.658,bars,2023.2.3,Win32,59.88023952,657b66ea316d21385b68909f,,,,,,,,,,,1689.2455,1690.234,,,1690.7338,1690.9837,,176,-4,,,,,,,,,,,,,,,,bars/035.png,bars/mask005.png,,,,,,,,,,,,10,1,,,,,,,10,8,10,8,,,,,,,,,,,1690.234,1690.7338,1690.9837,1694.7995,space,3.8075,,1694.7996,1,64,1695.7994,1695.7994,1695.8114,,,,0,26,26,26,1,175,60,,,,,,,,
,,6452a0c8687cf626aa4dc721,65af5696cf3d8856f5c0ca71,2024-01-23_08h17.00.658,bars,2023.2.3,Win32,59.88023952,657b66ea316d21385b68909f,,,,,,,,,,,1695.8116,1696.8156,,,1697.3154,1697.5656,,146,-34,,,,,,,,,,,,,,,,bars/037.png,bars/mask008.png,,,,,,,,,,,,9,1,,,,,,,10,10,10,10,,,,,,,,,,,1696.8156,1697.3154,1697.5656,1700.8649,space,3.2878,,1700.8649,4,41,1701.8645,1701.8646,1701.8766,,,,0,27,27,27,1,150,105,,,,,,,,
,,6452a0c8687cf626aa4dc721,65af5696cf3d8856f5c0ca71,2024-01-23_08h17.00.658,bars,2023.2.3,Win32,59.88023952,657b66ea316d21385b68909f,,,,,,,,,,,1701.8768,1702.8811,,,1703.3809,1703.6308,,98,98,,,,,,,,,,,,,,,,bars/027.png,bars/mask009.png,,,,,,,,,,,,6,1,,,,,,,10,8,10,8,,,,,,,,,,,1702.8811,1703.3809,1703.6308,1706.0138,space,2.3758,,1706.0138,12,48,1707.0132,1707.0133,1707.0253,,,,0,28,28,28,1,110,50,,,,,,,,
,,6452a0c8687cf626aa4dc721,65af5696cf3d8856f5c0ca71,2024-01-23_08h17.00.658,bars,2023.2.3,Win32,59.88023952,657b66ea316d21385b68909f,,,,,,,,,,,1707.0255,1708.0131,,,1708.5128,1708.7628,,109,109,,,,,,,,,,,,,,,,bars/034.png,bars/mask000.png,,,,,,,,,,,,4,1,,,,,,,8,10,8,10,,,,,,,,,,,1708.0131,1708.5128,1708.7629,1711.9788,space,3.2062,,1711.9788,16,44,1712.9785,1712.9785,1712.9902,,,,0,29,29,29,1,125,65,,,,,,,,
,,6452a0c8687cf626aa4dc721,65af5696cf3d8856f5c0ca71,2024-01-23_08h17.00.658,bars,2023.2.3,Win32,59.88023952,657b66ea316d21385b68909f,,,,,,,,,,,1712.9904,1713.9783,,,1714.4783,1714.7282,,102,102,,,,,,,,,,,,,,,,bars/025.png,bars/mask007.png,,,,,,,,,,,,6,1,,,,,,,6,10,7,10,,,,,,,,,,,1713.9783,1714.4782,1714.7282,1716.6444,space,1.9009,,1716.6445,3,62,1717.6441,1717.6441,1717.6558,,,,0,30,30,30,1,105,40,,,,,,,,
,,6452a0c8687cf626aa4dc721,65af5696cf3d8856f5c0ca71,2024-01-23_08h17.00.658,bars,2023.2.3,Win32,59.88023952,657b66ea316d21385b68909f,,,,,,,,,,,1717.6561,1718.6438,,,1719.1437,1719.3937,,139,-41,,,,,,,,,,,,,,,,bars/011.png,bars/mask009.png,,,,,,,,,,,,1,1,,,,,,,4,10,3,10,,,,,,,,,,,1718.6438,1719.1437,1719.3937,1721.9931,space,2.5802,,1721.9931,21,54,1722.9927,1722.9928,1723.0042,,,,0,31,31,31,1,160,85,,,,,,,,
,,6452a0c8687cf626aa4dc721,65af5696cf3d8856f5c0ca71,2024-01-23_08h17.00.658,bars,2023.2.3,Win32,59.88023952,657b66ea316d21385b68909f,,,,,,,,,,,1723.0044,1723.9923,,,1724.4924,1724.7423,,37,37,,,,,,,,,,,,,,,,bars/004.png,bars/mask006.png,,,,,,,,,,,,4,1,,,,,,,6,10,7,10,,,,,,,,,,,1723.9923,1724.4924,1724.7424,1727.1916,space,2.4311,,1727.1917,12,88,1728.1913,1728.1913,1728.2026,,,,0,32,32,32,1,25,125,,,,,,,,
,,6452a0c8687cf626aa4dc721,65af5696cf3d8856f5c0ca71,2024-01-23_08h17.00.658,bars,2023.2.3,Win32,59.88023952,657b66ea316d21385b68909f,,,,,,,,,,,1728.2028,1729.1912,,,1729.6912,1729.9412,,169,-11,,,,,,,,,,,,,,,,bars/039.png,bars/mask003.png,,,,,,,,,,,,2,1,,,,,,,4,10,3,9,,,,,,,,,,,1729.1912,1729.6912,1729.9412,1734.0901,space,4.1365,,1734.0902,6,64,1735.0899,1735.0899,1735.1013,,,,0,33,33,33,1,175,105,,,,,,,,
,,6452a0c8687cf626aa4dc721,65af5696cf3d8856f5c0ca71,2024-01-23_08h17.00.658,bars,2023.2.3,Win32,59.88023952,657b66ea316d21385b68909f,,,,,,,,,,,1735.1015,1736.0896,,,1736.5896,1736.8394,,167,-13,,,,,,,,,,,,,,,,bars/036.png,bars/mask000.png,,,,,,,,,,,,2,1,,,,,,,6,8,8,8,,,,,,,,,,,1736.0897,1736.5896,1736.8395,1741.1385,space,4.2825,,1741.1385,22,33,1742.1381,1742.1381,1742.1491,,,,0,34,34,34,1,145,20,,,,,,,,
,,6452a0c8687cf626aa4dc721,65af5696cf3d8856f5c0ca71,2024-01-23_08h17.00.658,bars,2023.2.3,Win32,59.88023952,657b66ea316d21385b68909f,,,,,,,,,,,1742.1493,1743.1381,,,1743.6377,1743.8877,,49,49,,,,,,,,,,,,,,,,bars/026.png,bars/mask004.png,,,,,,,,,,,,2,1,,,,,,,4,6,4,6,,,,,,,,,,,1743.1381,1743.6377,1743.8878,1745.704,space,1.8061,,1745.7041,14,36,1746.7037,1746.7037,1746.7044,,,,0,35,35,35,1,35,85,,,,,,,,
,,6452a0c8687cf626aa4dc721,65af5696cf3d8856f5c0ca71,2024-01-23_08h17.00.658,bars,2023.2.3,Win32,59.88023952,657b66ea316d21385b68909f,,,,,,,,,,,1746.7047,1747.7035,,,1748.2035,1748.4534,,39,39,,,,,,,,,,,,,,,,bars/003.png,bars/mask003.png,,,,,,,,,,,,1,1,,,,,,,2,4,1,4,,,,,,,,,,,1747.7036,1748.2035,1748.4534,1750.5529,space,2.0838,,1750.5529,14,79,1751.5526,1751.5526,1751.5533,,,,0,36,36,36,1,25,140,,,,,,,,
,,6452a0c8687cf626aa4dc721,65af5696cf3d8856f5c0ca71,2024-01-23_08h17.00.658,bars,2023.2.3,Win32,59.88023952,657b66ea316d21385b68909f,,,,,,,,,,,1751.5537,1752.5523,,,1753.0523,1753.3021,,13,13,,,,,,,,,,,,,,,,bars/041.png,bars/mask003.png,,,,,,,,,,,,1,1,,,,,,,0,2,1,0,,,,,,,,,,,1752.5523,1753.0523,1753.3021,1758.5675,space,5.2573,,1758.5675,7,72,1759.5674,1759.5674,1759.5787,,,,0,37,37,37,1,20,85,,,,,,,,
,,6452a0c8687cf626aa4dc721,65af5696cf3d8856f5c0ca71,2024-01-23_08h17.00.658,bars,2023.2.3,Win32,59.88023952,657b66ea316d21385b68909f,,,,,,,,,,,1759.5789,1760.5672,,,1761.067,1761.317,,14,194,,,,,,,,,,,,,,,,bars/041.png,bars/mask005.png,,,,,,,,,,,,2,1,,,,,,,2,0,2,1,,,,,,,,,,,1760.5672,1761.0669,1761.317,1764.9162,space,3.5847,,1764.9162,6,71,1765.9158,1765.9158,1765.9275,,,,0,38,38,38,1,20,85,,,,,,,,
,,6452a0c8687cf626aa4dc721,65af5696cf3d8856f5c0ca71,2024-01-23_08h17.00.658,bars,2023.2.3,Win32,59.88023952,657b66ea316d21385b68909f,,,,,,,,,,,1765.9277,1766.9156,,,1767.4154,1767.6654,,130,130,,,,,,,,,,,,,,,,bars/032.png,bars/mask007.png,,,,,,,,,,,,4,1,,,,,,,4,2,5,2,,,,,,,,,,,1766.9156,1767.4154,1767.6654,1768.2987,space,0.62,,1768.2988,5,70,1769.2984,1769.2985,1769.2994,,,,0,39,39,39,1,125,20,,,,,,,,
,,6452a0c8687cf626aa4dc721,65af5696cf3d8856f5c0ca71,2024-01-23_08h17.00.658,bars,2023.2.3,Win32,59.88023952,657b66ea316d21385b68909f,,,,,,,,,,,1769.3004,1770.2981,,,1770.798,1771.0479,,121,121,,,,,,,,,,,,,,,,bars/001.png,bars/mask000.png,,,,,,,,,,,,5,1,,,,,,,6,0,7,1,,,,,,,,,,,1770.2982,1770.798,1771.0479,1772.8644,space,1.8037,,1772.8644,9,36,1773.8639,1773.8639,1773.876,,,,0,40,40,40,1,130,85,,,,,,,,
,,6452a0c8687cf626aa4dc721,65af5696cf3d8856f5c0ca71,2024-01-23_08h17.00.658,bars,2023.2.3,Win32,59.88023952,657b66ea316d21385b68909f,,,,,,,,,,,1773.8761,1774.8802,,,1775.38,1775.6302,,115,115,,,,,,,,,,,,,,,,bars/020.png,bars/mask007.png,,,,,,,,,,,,4,1,,,,,,,4,2,4,2,,,,,,,,,,,1774.8803,1775.3799,1775.6302,1778.5628,space,2.9202,,1778.5629,0,55,1779.5625,1779.5625,1779.5741,,,,0,41,41,41,1,115,170,,,,,,,,
,,6452a0c8687cf626aa4dc721,65af5696cf3d8856f5c0ca71,2024-01-23_08h17.00.658,bars,2023.2.3,Win32,59.88023952,657b66ea316d21385b68909f,,,,,,,,,,,1779.5743,1780.5622,,,1781.0622,1781.312,,58,58,,,,,,,,,,,,,,,,bars/028.png,bars/mask003.png,,,,,,,,,,,,1,1,,,,,,,2,4,1,3,,,,,,,,,,,1780.5622,1781.0621,1781.312,1787.7273,space,6.3998,,1787.7274,13,62,1788.727,1788.727,1788.7393,,,,0,42,42,42,1,45,120,,,,,,,,
,,6452a0c8687cf626aa4dc721,65af5696cf3d8856f5c0ca71,2024-01-23_08h17.00.658,bars,2023.2.3,Win32,59.88023952,657b66ea316d21385b68909f,,,,,,,,,,,1788.7395,1789.7433,,,1790.2434,1790.4932,,145,145,,,,,,,,,,,,,,,,bars/049.png,bars/mask000.png,,,,,,,,,,,,1,1,,,,,,,0,2,1,1,,,,,,,,,,,1789.7434,1790.2434,1790.4933,1792.5927,space,2.0847,,1792.5928,15,30,1793.5924,1793.5924,1793.5932,,,,0,43,43,43,1,160,115,,,,,,,,
,,6452a0c8687cf626aa4dc721,65af5696cf3d8856f5c0ca71,2024-01-23_08h17.00.658,bars,2023.2.3,Win32,59.88023952,657b66ea316d21385b68909f,,,,,,,,,,,1793.594,1794.5921,,,1795.0921,1795.342,,106,106,,,,,,,,,,,,,,,,bars/015.png,bars/mask000.png,,,,,,,,,,,,0,1,,,,,,,0,4,0,4,,,,,,,,,,,1794.5921,1795.092,1795.342,1799.0079,space,3.655,,1799.008,4,54,1800.0076,1800.0076,1800.0199,,,,0,44,44,44,1,110,160,,,,,,,,
,,6452a0c8687cf626aa4dc721,65af5696cf3d8856f5c0ca71,2024-01-23_08h17.00.658,bars,2023.2.3,Win32,59.88023952,657b66ea316d21385b68909f,,,,,,,,,,,1800.02,1801.0241,,,1801.5238,1801.7736,,84,84,,,,,,,,,,,,,,,,bars/014.png,bars/mask006.png,,,,,,,,,,,,0,1,,,,,,,0,6,0,9,,,,,,,,,,,1801.0242,1801.5238,1801.7736,1804.7399,space,2.9554,,1804.7399,4,84,1805.7395,1805.7395,1805.7512,,,,0,45,45,45,1,80,0,,,,,,,,
,,6452a0c8687cf626aa4dc721,65af5696cf3d8856f5c0ca71,2024-01-23_08h17.00.658,bars,2023.2.3,Win32,59.88023952,657b66ea316d21385b68909f,,,,,,,,,,,1805.7515,1806.7391,,,1807.2393,1807.4892,,115,115,,,,,,,,,,,,,,,,bars/024.png,bars/mask004.png,,,,,,,,,,,,2,1,,,,,,,2,4,2,3,,,,,,,,,,,1806.7391,1807.2391,1807.4893,1810.7885,space,3.2827,,1810.7885,5,55,1811.7882,1811.7882,1811.8004,,,,0,46,46,46,1,120,170,,,,,,,,
,,6452a0c8687cf626aa4dc721,65af5696cf3d8856f5c0ca71,2024-01-23_08h17.00.658,bars,2023.2.3,Win32,59.88023952,657b66ea316d21385b68909f,,,,,,,,,,,1811.8006,1812.8045,,,1813.3046,1813.5545,,20,200,,,,,,,,,,,,,,,,bars/047.png,bars/mask002.png,,,,,,,,,,,,1,1,,,,,,,0,2,1,2,,,,,,,,,,,1812.8046,1813.3045,1813.5545,1818.0867,space,4.522,,1818.0867,5,50,1819.0864,1819.0864,1819.098,,,,0,47,47,47,1,15,70,,,,,,,,
,,6452a0c8687cf626aa4dc721,65af5696cf3d8856f5c0ca71,2024-01-23_08h17.00.658,bars,2023.2.3,Win32,59.88023952,657b66ea316d21385b68909f,,,,,,,,,,,1819.0983,1820.0861,,,1820.586,1820.836,,24,24,,,,,,,,,,,,,,,,bars/000.png,bars/mask006.png,,,,,,,,,,,,1,1,,,,,,,0,4,2,5,,,,,,,,,,,1820.0861,1820.586,1820.836,1823.0359,space,2.1832,,1823.0362,16,59,1824.0353,1824.0354,1824.0476,,,,0,48,48,48,1,40,145,,,,,,,,
,,6452a0c8687cf626aa4dc721,65af5696cf3d8856f5c0ca71,2024-01-23_08h17.00.658,bars,2023.2.3,Win32,59.88023952,657b66ea316d21385b68909f,,,,,,,,,,,1824.0479,1825.0515,,,1825.5576,1825.802,,90,90,,,,,,,,,,,,,,,,bars/025.png,bars/mask008.png,,,,,,,,,,,,1,1,,,,,,,2,2,1,3,,,,,,,,,,,1825.0516,1825.5576,1825.8021,1827.9036,space,2.0774,,1827.9038,15,50,1828.9009,1828.901,1828.9139,,,,0,49,49,49,1,105,40,,,,,,,,
,,6452a0c8687cf626aa4dc721,65af5696cf3d8856f5c0ca71,2024-01-23_08h17.00.658,bars,2023.2.3,Win32,59.88023952,657b66ea316d21385b68909f,,,,,,,,,,,,,,,,,,,,,,,,,,,,,,,,,,,,,,,,,,,,,,,,,,,,,,,,,,,,,,,,,,,,,,,,,,,,,,,,,,,,,,,,,,,,,1828.9139,1888.9069,0,3,3,2,1,sequence_tables/blk016.csv
,,6452a0c8687cf626aa4dc721,65af5696cf3d8856f5c0ca71,2024-01-23_08h17.00.658,bars,2023.2.3,Win32,59.88023952,657b66ea316d21385b68909f,,,,,,,,,,,1912.9406,1913.9311,,,1914.4306,1914.6805,,100,100,,,,,,,,,,,,,,,,bars/025.png,bars/mask008.png,,,,,,,,,,,,5,1,,,,,,,5,7,6,8,,,,,,1888.9177,1912.9212,space,23.9952,,1913.9312,1914.4305,1914.6808,1916.6804,space,1.9684,,1916.6808,5,60,1917.6798,1917.6799,1917.6923,,,,0,0,0,0,1,105,40,,,,,,,,
,,6452a0c8687cf626aa4dc721,65af5696cf3d8856f5c0ca71,2024-01-23_08h17.00.658,bars,2023.2.3,Win32,59.88023952,657b66ea316d21385b68909f,,,,,,,,,,,1917.6925,1918.6961,,,1919.1965,1919.4461,,21,201,,,,,,,,,,,,,,,,bars/007.png,bars/mask000.png,,,,,,,,,,,,1,1,,,,,,,7,9,5,8,,,,,,,,,,,1918.6964,1919.1963,1919.4463,1921.5293,space,2.0551,,1921.5297,26,34,1922.5284,1922.5286,1922.5316,,,,0,1,1,1,1,175,55,,,,,,,,
,,6452a0c8687cf626aa4dc721,65af5696cf3d8856f5c0ca71,2024-01-23_08h17.00.658,bars,2023.2.3,Win32,59.88023952,657b66ea316d21385b68909f,,,,,,,,,,,1922.5321,1923.5285,,,1924.0283,1924.2781,,18,18,,,,,,,,,,,,,,,,bars/010.png,bars/mask001.png,,,,,,,,,,,,0,1,,,,,,,5,10,4,10,,,,,,,,,,,1923.5286,1924.0282,1924.2782,1926.2821,space,1.9822,,1926.2821,33,37,1927.2775,1927.2776,1927.2897,,,,0,2,2,2,1,165,55,,,,,,,,
,,6452a0c8687cf626aa4dc721,65af5696cf3d8856f5c0ca71,2024-01-23_08h17.00.658,bars,2023.2.3,Win32,59.88023952,657b66ea316d21385b68909f,,,,,,,,,,,1927.2899,1928.2938,,,1928.7941,1929.0436,,49,229,,,,,,,,,,,,,,,,bars/019.png,bars/mask006.png,,,,,,,,,,,,2,1,,,,,,,3,10,2,9,,,,,,,,,,,1928.2939,1928.7939,1929.0438,1933.5317,space,4.4656,,1933.5317,4,56,1934.5256,1934.5257,1934.5376,,,,0,3,3,3,1,45,105,,,,,,,,
,,6452a0c8687cf626aa4dc721,65af5696cf3d8856f5c0ca71,2024-01-23_08h17.00.658,bars,2023.2.3,Win32,59.88023952,657b66ea316d21385b68909f,,,,,,,,,,,1934.5378,1935.5256,,,1936.0255,1936.276,,161,-19,,,,,,,,,,,,,,,,bars/039.png,bars/mask007.png,,,,,,,,,,,,0,1,,,,,,,1,10,0,10,,,,,,,,,,,1935.5257,1936.0252,1936.2761,1938.6585,space,2.3548,,1938.6587,14,56,1939.6577,1939.6579,1939.6698,,,,0,4,4,4,1,175,105,,,,,,,,
,,6452a0c8687cf626aa4dc721,65af5696cf3d8856f5c0ca71,2024-01-23_08h17.00.658,bars,2023.2.3,Win32,59.88023952,657b66ea316d21385b68909f,,,,,,,,,,,1939.67,1940.6744,,,1941.1742,1941.4245,,146,146,,,,,,,,,,,,,,,,bars/049.png,bars/mask004.png,,,,,,,,,,,,1,1,,,,,,,0,10,1,10,,,,,,,,,,,1940.6746,1941.1739,1941.4246,1945.3066,space,3.8592,,1945.3069,14,31,1946.3061,1946.3062,1946.318,,,,0,5,5,5,1,160,115,,,,,,,,
,,6452a0c8687cf626aa4dc721,65af5696cf3d8856f5c0ca71,2024-01-23_08h17.00.658,bars,2023.2.3,Win32,59.88023952,657b66ea316d21385b68909f,,,,,,,,,,,1946.3181,1947.3058,,,1947.8063,1948.0557,,154,-26,,,,,,,,,,,,,,,,bars/032.png,bars/mask009.png,,,,,,,,,,,,0,1,,,,,,,2,8,1,10,,,,,,,,,,,1947.3059,1947.8061,1948.0558,1952.7049,space,4.6179,,1952.7051,29,46,1953.7043,1953.7044,1953.7163,,,,0,6,6,6,1,125,20,,,,,,,,
,,6452a0c8687cf626aa4dc721,65af5696cf3d8856f5c0ca71,2024-01-23_08h17.00.658,bars,2023.2.3,Win32,59.88023952,657b66ea316d21385b68909f,,,,,,,,,,,1953.7165,1954.7213,,,1955.2209,1955.4709,,164,164,,,,,,,,,,,,,,,,bars/036.png,bars/mask004.png,,,,,,,,,,,,0,1,,,,,,,0,6,0,5,,,,,,,,,,,1954.7214,1955.2207,1955.4709,1959.47,space,3.9679,,1959.4702,19,36,1960.4694,1960.4695,1960.4824,,,,0,7,7,7,1,145,20,,,,,,,,
,,6452a0c8687cf626aa4dc721,65af5696cf3d8856f5c0ca71,2024-01-23_08h17.00.658,bars,2023.2.3,Win32,59.88023952,657b66ea316d21385b68909f,,,,,,,,,,,1960.4826,1961.4859,,,1961.9858,1962.2356,,33,213,,,,,,,,,,,,,,,,bars/016.png,bars/mask009.png,,,,,,,,,,,,1,1,,,,,,,0,8,1,7,,,,,,,,,,,1961.486,1961.9857,1962.2357,1965.8248,space,3.5671,,1965.8248,7,48,1966.8179,1966.818,1966.8297,,,,0,8,8,8,1,40,165,,,,,,,,
,,6452a0c8687cf626aa4dc721,65af5696cf3d8856f5c0ca71,2024-01-23_08h17.00.658,bars,2023.2.3,Win32,59.88023952,657b66ea316d21385b68909f,,,,,,,,,,,1966.8298,1967.8179,,,1968.3174,1968.5672,,100,100,,,,,,,,,,,,,,,,bars/045.png,bars/mask003.png,,,,,,,,,,,,0,1,,,,,,,0,6,0,5,,,,,,,,,,,1967.8181,1968.3173,1968.5673,1970.5002,space,1.9222,,1970.5003,0,90,1971.4999,1971.5,1971.5119,,,,0,9,9,9,1,100,10,,,,,,,,
,,6452a0c8687cf626aa4dc721,65af5696cf3d8856f5c0ca71,2024-01-23_08h17.00.658,bars,2023.2.3,Win32,59.88023952,657b66ea316d21385b68909f,,,,,,,,,,,1971.5121,1972.5163,,,1973.0161,1973.2662,,24,204,,,,,,,,,,,,,,,,bars/003.png,bars/mask009.png,,,,,,,,,,,,1,1,,,,,,,0,8,1,8,,,,,,,,,,,1972.5164,1973.016,1973.2662,1975.549,space,2.2631,,1975.549,1,64,1976.5487,1976.5487,1976.5599,,,,0,10,10,10,1,25,140,,,,,,,,
,,6452a0c8687cf626aa4dc721,65af5696cf3d8856f5c0ca71,2024-01-23_08h17.00.658,bars,2023.2.3,Win32,59.88023952,657b66ea316d21385b68909f,,,,,,,,,,,1976.5601,1977.5483,,,1978.0482,1978.2983,,78,78,,,,,,,,,,,,,,,,bars/013.png,bars/mask009.png,,,,,,,,,,,,0,1,,,,,,,0,10,0,10,,,,,,,,,,,1977.5483,1978.0482,1978.2983,1982.8636,space,4.555,,1982.8637,3,68,1983.8635,1983.8635,1983.8751,,,,0,11,11,11,1,75,10,,,,,,,,
