init_variables.started,init_variables.stopped,participant,session,date,expName,psychopyVersion,OS,frameRate,study_id,instruction_exp.started,instruction_exp.stopped,key_resp_8.keys,key_resp_8.rt,key_resp_8.duration,instruction_single.started,instruction_single.stopped,key_resp_2.keys,key_resp_2.rt,key_resp_2.duration,interval.started,interval.stopped,cue_single.started,cue_single.stopped,mask.started,mask.stopped,ori_response_single.started,res_ori,res,ori_response_single.stopped,key_resp_single.keys,key_resp_single.rt,key_resp_single.duration,disp_single.started,disp_single.stopped,key_resp.keys,key_resp.rt,key_resp.duration,single.thisRepN,single.thisTrialN,single.thisN,single.thisIndex,single.ran,ori,path,mask_path,instruction_bandit.started,instruction_bandit.stopped,key_resp_6.keys,key_resp_6.rt,key_resp_6.duration,cue_bandit.started,cue_bandit.stopped,bandit_res.keys,bandit_res.rt,bandit_res.duration,outcome_bandit.started,rew,action,outcome_bandit.stopped,bandit.thisRepN,bandit.thisTrialN,bandit.thisN,bandit.thisIndex,bandit.ran,actual_rew1,actual_rew2,rew1,rew2,instruction_task.started,instruction_task.stopped,key_resp_7.keys,key_resp_7.rt,key_resp_7.duration,wait_ready.started,wait_ready.stopped,key_resp_3.keys,key_resp_3.rt,key_resp_3.duration,cue.started,cue.stopped,ori_response.started,ori_response.stopped,key_resp_5.keys,key_resp_5.rt,key_resp_5.duration,outcome.started,diff1,diff2,outcome.stopped,disp_outcome_practice.started,disp_outcome_practice.stopped,key_resp_4.keys,key_resp_4.rt,key_resp_4.duration,trials.thisRepN,trials.thisTrialN,trials.thisN,trials.thisIndex,trials.ran,ori1,ori2,break_blk.started,break_blk.stopped,block.thisRepN,block.thisTrialN,block.thisN,block.thisIndex,block.ran,condition_file
0.0013,0.0016,6167d73838d5341dfd542437,65af52f04aa07d90bbee3c8f,2024-01-23_07h48.56.674,bars,2023.2.3,Linux x86_64,59.63384817,657b66ea316d21385b68909f,,,,,,,,,,,,,,,,,,,,,,,,,,,,,,,,,,,,,,,,,,,,,,,,,,,,,,,,,,,,,,,,,,,,,,,,,,,,,,,,,,,,,,,,,,,,,,,,,,,,
,,6167d73838d5341dfd542437,65af52f04aa07d90bbee3c8f,2024-01-23_07h48.56.674,bars,2023.2.3,Linux x86_64,59.63384817,657b66ea316d21385b68909f,0.0019,28.4224,y,28.4048,,,,,,,,,,,,,,,,,,,,,,,,,,,,,,,,,,,,,,,,,,,,,,,,,,,,,,,,,,,,,,,,,,,,,,,,,,,,,,,,,,,,,,,,,,,,,,,,
,,6167d73838d5341dfd542437,65af52f04aa07d90bbee3c8f,2024-01-23_07h48.56.674,bars,2023.2.3,Linux x86_64,59.63384817,657b66ea316d21385b68909f,,,,,,28.4225,60.6253,space,32.186,,,,,,,,,,,,,,,,,,,,,,,,,,,,,,,,,,,,,,,,,,,,,,,,,,,,,,,,,,,,,,,,,,,,,,,,,,,,,,,,,,,,,,,,,,,
,,6167d73838d5341dfd542437,65af52f04aa07d90bbee3c8f,2024-01-23_07h48.56.674,bars,2023.2.3,Linux x86_64,59.63384817,657b66ea316d21385b68909f,,,,,,,,,,,60.6349,61.6401,61.6404,62.1319,62.1323,62.3831,62.3835,90,90,84.5034,space,22.0821,,84.5043,104.2644,space,19.7268,,0,0,0,1,1,20,bars/single001.png,bars/mask006.png,,,,,,,,,,,,,,,,,,,,,,,,,,,,,,,,,,,,,,,,,,,,,,,,,,,,,,,,,,,,,,,,
,,6167d73838d5341dfd542437,65af52f04aa07d90bbee3c8f,2024-01-23_07h48.56.674,bars,2023.2.3,Linux x86_64,59.63384817,657b66ea316d21385b68909f,,,,,,,,,,,104.2932,105.2797,105.2798,105.7797,105.7799,106.0294,106.0297,0,180,121.0439,space,15.0006,,121.0439,129.1435,space,8.0674,,0,1,1,3,1,20,bars/single003.png,bars/mask005.png,,,,,,,,,,,,,,,,,,,,,,,,,,,,,,,,,,,,,,,,,,,,,,,,,,,,,,,,,,,,,,,,
,,6167d73838d5341dfd542437,65af52f04aa07d90bbee3c8f,2024-01-23_07h48.56.674,bars,2023.2.3,Linux x86_64,59.63384817,657b66ea316d21385b68909f,,,,,,,,,,,129.1661,130.1593,130.1593,130.6596,130.6596,130.9094,130.9094,146,146,140.9677,space,10.0499,,140.9679,150.7065,space,9.7015,,0,2,2,9,1,20,bars/single009.png,bars/mask006.png,,,,,,,,,,,,,,,,,,,,,,,,,,,,,,,,,,,,,,,,,,,,,,,,,,,,,,,,,,,,,,,,
,,6167d73838d5341dfd542437,65af52f04aa07d90bbee3c8f,2024-01-23_07h48.56.674,bars,2023.2.3,Linux x86_64,59.63384817,657b66ea316d21385b68909f,,,,,,,,,,,150.7352,151.7216,151.7217,152.2235,152.2236,152.4719,152.472,121,121,164.3511,space,11.864,,164.3512,172.2301,space,7.85,,0,3,3,5,1,55,bars/single005.png,bars/mask008.png,,,,,,,,,,,,,,,,,,,,,,,,,,,,,,,,,,,,,,,,,,,,,,,,,,,,,,,,,,,,,,,,
,,6167d73838d5341dfd542437,65af52f04aa07d90bbee3c8f,2024-01-23_07h48.56.674,bars,2023.2.3,Linux x86_64,59.63384817,657b66ea316d21385b68909f,,,,,,,,,,,172.2455,173.2434,173.2434,173.7443,173.7444,173.9805,173.9806,143,143,182.2879,space,8.2879,,182.288,194.4098,space,12.0955,,0,4,4,8,1,160,bars/single008.png,bars/mask004.png,,,,,,,,,,,,,,,,,,,,,,,,,,,,,,,,,,,,,,,,,,,,,,,,,,,,,,,,,,,,,,,,
,,6167d73838d5341dfd542437,65af52f04aa07d90bbee3c8f,2024-01-23_07h48.56.674,bars,2023.2.3,Linux x86_64,59.63384817,657b66ea316d21385b68909f,,,,,,,,,,,194.4248,195.4128,195.4128,195.9125,195.9126,196.1616,196.1617,88,88,200.3468,space,4.1766,,200.3469,209.3438,space,8.9657,,0,5,5,0,1,150,bars/single000.png,bars/mask006.png,,,,,,,,,,,,,,,,,,,,,,,,,,,,,,,,,,,,,,,,,,,,,,,,,,,,,,,,,,,,,,,,
,,6167d73838d5341dfd542437,65af52f04aa07d90bbee3c8f,2024-01-23_07h48.56.674,bars,2023.2.3,Linux x86_64,59.63384817,657b66ea316d21385b68909f,,,,,,,,,,,209.3587,210.3445,210.3446,210.845,210.845,211.0953,211.0953,125,125,216.7662,space,5.6639,,216.7663,227.0785,space,10.2867,,0,6,6,6,1,175,bars/single006.png,bars/mask005.png,,,,,,,,,,,,,,,,,,,,,,,,,,,,,,,,,,,,,,,,,,,,,,,,,,,,,,,,,,,,,,,,
,,6167d73838d5341dfd542437,65af52f04aa07d90bbee3c8f,2024-01-23_07h48.56.674,bars,2023.2.3,Linux x86_64,59.63384817,657b66ea316d21385b68909f,,,,,,,,,,,227.1007,228.0919,228.092,228.5922,228.5922,228.8411,228.8412,34,34,235.1901,space,6.3393,,235.1902,241.4731,space,6.25,,0,7,7,2,1,145,bars/single002.png,bars/mask003.png,,,,,,,,,,,,,,,,,,,,,,,,,,,,,,,,,,,,,,,,,,,,,,,,,,,,,,,,,,,,,,,,
,,6167d73838d5341dfd542437,65af52f04aa07d90bbee3c8f,2024-01-23_07h48.56.674,bars,2023.2.3,Linux x86_64,59.63384817,657b66ea316d21385b68909f,,,,,,,,,,,241.4899,242.4833,242.4834,242.9855,242.9856,243.2313,243.2315,40,40,250.3544,space,7.1044,,250.3545,256.2876,space,5.9074,,0,8,8,7,1,45,bars/single007.png,bars/mask009.png,,,,,,,,,,,,,,,,,,,,,,,,,,,,,,,,,,,,,,,,,,,,,,,,,,,,,,,,,,,,,,,,
,,6167d73838d5341dfd542437,65af52f04aa07d90bbee3c8f,2024-01-23_07h48.56.674,bars,2023.2.3,Linux x86_64,59.63384817,657b66ea316d21385b68909f,,,,,,,,,,,256.3019,257.3022,257.3022,257.8029,257.803,258.0515,258.0516,91,91,262.9566,space,4.8918,,262.9566,266.5188,space,3.529,,0,9,9,4,1,95,bars/single004.png,bars/mask004.png,,,,,,,,,,,,,,,,,,,,,,,,,,,,,,,,,,,,,,,,,,,,,,,,,,,,,,,,,,,,,,,,
,,6167d73838d5341dfd542437,65af52f04aa07d90bbee3c8f,2024-01-23_07h48.56.674,bars,2023.2.3,Linux x86_64,59.63384817,657b66ea316d21385b68909f,,,,,,,,,,,,,,,,,,,,,,,,,,,,,,,,,,,,,266.5381,301.6466,space,35.0993,,,,,,,,,,,,,,,,,,,,,,,,,,,,,,,,,,,,,,,,,,,,,,,,,,,,,,,,,,,,
,,6167d73838d5341dfd542437,65af52f04aa07d90bbee3c8f,2024-01-23_07h48.56.674,bars,2023.2.3,Linux x86_64,59.63384817,657b66ea316d21385b68909f,,,,,,,,,,,,,,,,,,,,,,,,,,,,,,,,,,,,,,,,,,301.6656,306.1973,left,4.5062,,306.1976,9,1,307.1935,0,0,0,0,1,9,1,9,2,,,,,,,,,,,,,,,,,,,,,,,,,,,,,,,,,,,,,,,,,
,,6167d73838d5341dfd542437,65af52f04aa07d90bbee3c8f,2024-01-23_07h48.56.674,bars,2023.2.3,Linux x86_64,59.63384817,657b66ea316d21385b68909f,,,,,,,,,,,,,,,,,,,,,,,,,,,,,,,,,,,,,,,,,,307.1943,309.7293,right,2.5217,,309.7293,1,2,310.7247,0,1,1,1,1,10,0,10,1,,,,,,,,,,,,,,,,,,,,,,,,,,,,,,,,,,,,,,,,,
,,6167d73838d5341dfd542437,65af52f04aa07d90bbee3c8f,2024-01-23_07h48.56.674,bars,2023.2.3,Linux x86_64,59.63384817,657b66ea316d21385b68909f,,,,,,,,,,,,,,,,,,,,,,,,,,,,,,,,,,,,,,,,,,310.7412,312.3201,left,1.5708,,312.3201,10,1,313.3209,0,2,2,2,1,10,2,10,2,,,,,,,,,,,,,,,,,,,,,,,,,,,,,,,,,,,,,,,,,
,,6167d73838d5341dfd542437,65af52f04aa07d90bbee3c8f,2024-01-23_07h48.56.674,bars,2023.2.3,Linux x86_64,59.63384817,657b66ea316d21385b68909f,,,,,,,,,,,,,,,,,,,,,,,,,,,,,,,,,,,,,,,,,,313.3213,316.1768,left,2.8436,,316.177,7,1,317.1751,0,3,3,3,1,8,4,7,3,,,,,,,,,,,,,,,,,,,,,,,,,,,,,,,,,,,,,,,,,
,,6167d73838d5341dfd542437,65af52f04aa07d90bbee3c8f,2024-01-23_07h48.56.674,bars,2023.2.3,Linux x86_64,59.63384817,657b66ea316d21385b68909f,,,,,,,,,,,,,,,,,,,,,,,,,,,,,,,,,,,,,,,,,,317.191,318.6925,left,1.4948,,318.6927,5,1,319.692,0,4,4,4,1,6,2,5,1,,,,,,,,,,,,,,,,,,,,,,,,,,,,,,,,,,,,,,,,,
,,6167d73838d5341dfd542437,65af52f04aa07d90bbee3c8f,2024-01-23_07h48.56.674,bars,2023.2.3,Linux x86_64,59.63384817,657b66ea316d21385b68909f,,,,,,,,,,,,,,,,,,,,,,,,,,,,,,,,,,,,,,,,,,319.716,321.0575,right,1.3298,,321.0575,4,2,322.0579,0,5,5,5,1,4,4,4,4,,,,,,,,,,,,,,,,,,,,,,,,,,,,,,,,,,,,,,,,,
,,6167d73838d5341dfd542437,65af52f04aa07d90bbee3c8f,2024-01-23_07h48.56.674,bars,2023.2.3,Linux x86_64,59.63384817,657b66ea316d21385b68909f,,,,,,,,,,,,,,,,,,,,,,,,,,,,,,,,,,,,,,,,,,322.0605,323.3754,left,1.3054,,323.3754,1,1,324.3751,0,6,6,6,1,2,2,1,2,,,,,,,,,,,,,,,,,,,,,,,,,,,,,,,,,,,,,,,,,
,,6167d73838d5341dfd542437,65af52f04aa07d90bbee3c8f,2024-01-23_07h48.56.674,bars,2023.2.3,Linux x86_64,59.63384817,657b66ea316d21385b68909f,,,,,,,,,,,,,,,,,,,,,,,,,,,,,,,,,,,,,,,,,,324.3765,325.9909,left,1.604,,325.9911,0,1,326.988,0,7,7,7,1,0,0,0,1,,,,,,,,,,,,,,,,,,,,,,,,,,,,,,,,,,,,,,,,,
,,6167d73838d5341dfd542437,65af52f04aa07d90bbee3c8f,2024-01-23_07h48.56.674,bars,2023.2.3,Linux x86_64,59.63384817,657b66ea316d21385b68909f,,,,,,,,,,,,,,,,,,,,,,,,,,,,,,,,,,,,,,,,,,326.9892,328.7304,left,1.7303,,328.7309,1,1,329.7229,0,8,8,8,1,0,2,1,0,,,,,,,,,,,,,,,,,,,,,,,,,,,,,,,,,,,,,,,,,
,,6167d73838d5341dfd542437,65af52f04aa07d90bbee3c8f,2024-01-23_07h48.56.674,bars,2023.2.3,Linux x86_64,59.63384817,657b66ea316d21385b68909f,,,,,,,,,,,,,,,,,,,,,,,,,,,,,,,,,,,,,,,,,,329.7375,330.8898,right,1.1408,,330.8899,3,2,331.89,0,9,9,9,1,2,4,2,3,,,,,,,,,,,,,,,,,,,,,,,,,,,,,,,,,,,,,,,,,
,,6167d73838d5341dfd542437,65af52f04aa07d90bbee3c8f,2024-01-23_07h48.56.674,bars,2023.2.3,Linux x86_64,59.63384817,657b66ea316d21385b68909f,,,,,,,,,,,,,,,,,,,,,,,,,,,,,,,,,,,,,,,,,,331.8908,332.8375,left,0.9349,,332.8376,0,1,333.8366,0,10,10,10,1,0,2,0,3,,,,,,,,,,,,,,,,,,,,,,,,,,,,,,,,,,,,,,,,,
,,6167d73838d5341dfd542437,65af52f04aa07d90bbee3c8f,2024-01-23_07h48.56.674,bars,2023.2.3,Linux x86_64,59.63384817,657b66ea316d21385b68909f,,,,,,,,,,,,,,,,,,,,,,,,,,,,,,,,,,,,,,,,,,333.8376,334.858,right,1.0125,,334.858,3,2,335.8553,0,11,11,11,1,0,4,0,3,,,,,,,,,,,,,,,,,,,,,,,,,,,,,,,,,,,,,,,,,
,,6167d73838d5341dfd542437,65af52f04aa07d90bbee3c8f,2024-01-23_07h48.56.674,bars,2023.2.3,Linux x86_64,59.63384817,657b66ea316d21385b68909f,,,,,,,,,,,,,,,,,,,,,,,,,,,,,,,,,,,,,,,,,,335.8561,336.7062,right,0.8383,,336.7063,6,2,337.7047,0,12,12,12,1,2,6,1,6,,,,,,,,,,,,,,,,,,,,,,,,,,,,,,,,,,,,,,,,,
,,6167d73838d5341dfd542437,65af52f04aa07d90bbee3c8f,2024-01-23_07h48.56.674,bars,2023.2.3,Linux x86_64,59.63384817,657b66ea316d21385b68909f,,,,,,,,,,,,,,,,,,,,,,,,,,,,,,,,,,,,,,,,,,337.7056,339.0392,right,1.3187,,339.0394,3,2,340.0387,0,13,13,13,1,0,4,1,3,,,,,,,,,,,,,,,,,,,,,,,,,,,,,,,,,,,,,,,,,
,,6167d73838d5341dfd542437,65af52f04aa07d90bbee3c8f,2024-01-23_07h48.56.674,bars,2023.2.3,Linux x86_64,59.63384817,657b66ea316d21385b68909f,,,,,,,,,,,,,,,,,,,,,,,,,,,,,,,,,,,,,,,,,,340.066,341.0053,right,0.9321,,341.0054,7,2,342.002,0,14,14,14,1,2,6,2,7,,,,,,,,,,,,,,,,,,,,,,,,,,,,,,,,,,,,,,,,,
,,6167d73838d5341dfd542437,65af52f04aa07d90bbee3c8f,2024-01-23_07h48.56.674,bars,2023.2.3,Linux x86_64,59.63384817,657b66ea316d21385b68909f,,,,,,,,,,,,,,,,,,,,,,,,,,,,,,,,,,,,,,,,,,342.0036,343.5698,right,1.5556,,343.5698,9,2,344.5679,0,15,15,15,1,4,8,3,9,,,,,,,,,,,,,,,,,,,,,,,,,,,,,,,,,,,,,,,,,
,,6167d73838d5341dfd542437,65af52f04aa07d90bbee3c8f,2024-01-23_07h48.56.674,bars,2023.2.3,Linux x86_64,59.63384817,657b66ea316d21385b68909f,,,,,,,,,,,,,,,,,,,,,,,,,,,,,,,,,,,,,,,,,,344.5684,345.9028,right,1.3187,,345.9029,7,2,346.9026,0,16,16,16,1,6,6,7,7,,,,,,,,,,,,,,,,,,,,,,,,,,,,,,,,,,,,,,,,,
,,6167d73838d5341dfd542437,65af52f04aa07d90bbee3c8f,2024-01-23_07h48.56.674,bars,2023.2.3,Linux x86_64,59.63384817,657b66ea316d21385b68909f,,,,,,,,,,,,,,,,,,,,,,,,,,,,,,,,,,,,,,,,,,346.9037,348.3522,right,1.4381,,348.3523,5,2,349.3513,0,17,17,17,1,8,4,9,5,,,,,,,,,,,,,,,,,,,,,,,,,,,,,,,,,,,,,,,,,
,,6167d73838d5341dfd542437,65af52f04aa07d90bbee3c8f,2024-01-23_07h48.56.674,bars,2023.2.3,Linux x86_64,59.63384817,657b66ea316d21385b68909f,,,,,,,,,,,,,,,,,,,,,,,,,,,,,,,,,,,,,,,,,,349.3524,350.6513,left,1.2835,,350.6515,5,1,351.651,0,18,18,18,1,6,2,5,1,,,,,,,,,,,,,,,,,,,,,,,,,,,,,,,,,,,,,,,,,
,,6167d73838d5341dfd542437,65af52f04aa07d90bbee3c8f,2024-01-23_07h48.56.674,bars,2023.2.3,Linux x86_64,59.63384817,657b66ea316d21385b68909f,,,,,,,,,,,,,,,,,,,,,,,,,,,,,,,,,,,,,,,,,,351.6516,352.7176,right,1.056,,352.7176,0,2,353.7187,0,19,19,19,1,8,0,7,0,,,,,,,,,,,,,,,,,,,,,,,,,,,,,,,,,,,,,,,,,
,,6167d73838d5341dfd542437,65af52f04aa07d90bbee3c8f,2024-01-23_07h48.56.674,bars,2023.2.3,Linux x86_64,59.63384817,657b66ea316d21385b68909f,,,,,,,,,,,,,,,,,,,,,,,,,,,,,,,,,,,,,,,,,,,,,,,,,,,,,,,,,,,,353.7197,374.2324,space,20.4802,,,,,,,,,,,,,,,,,,,,,,,,,,,,,,,,,,,,,
,,6167d73838d5341dfd542437,65af52f04aa07d90bbee3c8f,2024-01-23_07h48.56.674,bars,2023.2.3,Linux x86_64,59.63384817,657b66ea316d21385b68909f,,,,,,,,,,,376.0405,377.0308,,,377.5317,377.7721,,114,114,,,,,,,,,,,,,,,,bars/018.png,bars/mask003.png,,,,,,,,,,,,0,2,,,,,,,8,3,7,2,,,,,,374.2546,376.0331,space,1.7674,,377.0313,377.5315,377.7724,390.3128,space,12.5245,,390.3132,36,24,391.3104,391.3105,412.4013,space,21.0669,,0,0,0,0,1,150,90,,,,,,,,
,,6167d73838d5341dfd542437,65af52f04aa07d90bbee3c8f,2024-01-23_07h48.56.674,bars,2023.2.3,Linux x86_64,59.63384817,657b66ea316d21385b68909f,,,,,,,,,,,412.4186,413.4098,,,413.9075,414.1593,,153,153,,,,,,,,,,,,,,,,bars/006.png,bars/mask001.png,,,,,,,,,,,,0,2,,,,,,,6,5,6,4,,,,,,,,,,,413.4099,413.9074,414.1594,421.2768,space,7.1077,,421.2769,62,53,422.2784,422.2803,436.5879,space,14.274,,0,1,1,1,1,35,100,,,,,,,,
,,6167d73838d5341dfd542437,65af52f04aa07d90bbee3c8f,2024-01-23_07h48.56.674,bars,2023.2.3,Linux x86_64,59.63384817,657b66ea316d21385b68909f,,,,,,,,,,,436.6068,437.6014,,,438.1015,438.3518,,172,172,,,,,,,,,,,,,,,,bars/010.png,bars/mask007.png,,,,,,,,,,,,6,1,,,,,,,8,3,8,3,,,,,,,,,,,437.6015,438.1014,438.3518,443.3869,space,5.0209,,443.3873,7,63,444.385,444.385,466.2474,space,21.8274,,0,2,2,2,1,165,55,,,,,,,,
,,6167d73838d5341dfd542437,65af52f04aa07d90bbee3c8f,2024-01-23_07h48.56.674,bars,2023.2.3,Linux x86_64,59.63384817,657b66ea316d21385b68909f,,,,,,,,,,,466.2656,467.2624,,,467.7628,468.0122,,37,37,,,,,,,,,,,,,,,,bars/004.png,bars/mask009.png,,,,,,,,,,,,3,1,,,,,,,6,5,5,5,,,,,,,,,,,467.2625,467.7627,468.0122,473.2003,space,5.1733,,473.2005,12,88,474.196,474.196,478.9545,space,4.7245,,0,3,3,3,1,25,125,,,,,,,,
,,6167d73838d5341dfd542437,65af52f04aa07d90bbee3c8f,2024-01-23_07h48.56.674,bars,2023.2.3,Linux x86_64,59.63384817,657b66ea316d21385b68909f,,,,,,,,,,,478.9684,479.9599,,,480.4597,480.71,,2,182,,,,,,,,,,,,,,,,bars/031.png,bars/mask006.png,,,,,,,,,,,,0,2,,,,,,,8,3,9,3,,,,,,,,,,,479.9599,480.4596,480.7101,484.7591,space,4.0341,,484.7592,62,33,485.7603,485.7603,490.9534,space,5.1609,,0,4,4,4,1,120,35,,,,,,,,
,,6167d73838d5341dfd542437,65af52f04aa07d90bbee3c8f,2024-01-23_07h48.56.674,bars,2023.2.3,Linux x86_64,59.63384817,657b66ea316d21385b68909f,,,,,,,,,,,490.9724,491.9608,,,492.4489,492.6988,,139,139,,,,,,,,,,,,,,,,bars/003.png,bars/mask003.png,,,,,,,,,,,,2,2,,,,,,,6,1,6,2,,,,,,,,,,,491.961,492.4489,492.6989,497.6089,space,4.8922,,497.6091,66,1,498.6011,498.6011,503.5086,space,4.867,,0,5,5,5,1,25,140,,,,,,,,
,,6167d73838d5341dfd542437,65af52f04aa07d90bbee3c8f,2024-01-23_07h48.56.674,bars,2023.2.3,Linux x86_64,59.63384817,657b66ea316d21385b68909f,,,,,,,,,,,503.523,504.5173,,,505.0171,505.2709,,29,29,,,,,,,,,,,,,,,,bars/044.png,bars/mask000.png,,,,,,,,,,,,0,1,,,,,,,4,3,3,3,,,,,,,,,,,504.5174,505.017,505.271,514.2415,space,8.9624,,514.2416,46,54,515.2402,515.2402,518.6721,space,3.3907,,0,6,6,6,1,75,155,,,,,,,,
,,6167d73838d5341dfd542437,65af52f04aa07d90bbee3c8f,2024-01-23_07h48.56.674,bars,2023.2.3,Linux x86_64,59.63384817,657b66ea316d21385b68909f,,,,,,,,,,,518.6725,519.6608,,,520.1555,520.4049,,143,143,,,,,,,,,,,,,,,,bars/027.png,bars/mask008.png,,,,,,,,,,,,0,1,,,,,,,6,1,7,1,,,,,,,,,,,519.6609,520.1555,520.405,525.1346,space,4.7175,,525.1358,33,87,526.1356,526.1357,530.9704,space,4.7995,,0,7,7,7,1,110,50,,,,,,,,
,,6167d73838d5341dfd542437,65af52f04aa07d90bbee3c8f,2024-01-23_07h48.56.674,bars,2023.2.3,Linux x86_64,59.63384817,657b66ea316d21385b68909f,,,,,,,,,,,530.9957,531.9862,,,532.4773,532.7261,,140,140,,,,,,,,,,,,,,,,bars/032.png,bars/mask003.png,,,,,,,,,,,,5,1,,,,,,,8,3,9,4,,,,,,,,,,,531.9863,532.4763,532.7261,538.5346,space,5.7844,,538.535,15,60,539.5325,539.5325,544.8333,space,5.2701,,0,8,8,8,1,125,20,,,,,,,,
,,6167d73838d5341dfd542437,65af52f04aa07d90bbee3c8f,2024-01-23_07h48.56.674,bars,2023.2.3,Linux x86_64,59.63384817,657b66ea316d21385b68909f,,,,,,,,,,,544.8531,545.8337,,,546.3255,546.5753,,125,125,,,,,,,,,,,,,,,,bars/009.png,bars/mask005.png,,,,,,,,,,,,0,2,,,,,,,10,1,8,1,,,,,,,,,,,545.8339,546.3254,546.5754,552.9951,space,6.4108,,552.9952,70,20,553.9956,553.9958,556.9304,space,2.9014,,0,9,9,9,1,15,105,,,,,,,,
,,6167d73838d5341dfd542437,65af52f04aa07d90bbee3c8f,2024-01-23_07h48.56.674,bars,2023.2.3,Linux x86_64,59.63384817,657b66ea316d21385b68909f,,,,,,,,,,,556.9319,557.9321,,,558.4304,558.6813,,137,137,,,,,,,,,,,,,,,,bars/044.png,bars/mask007.png,,,,,,,,,,,,0,2,,,,,,,8,3,7,1,,,,,,,,,,,557.9327,558.4303,558.6813,563.8118,space,5.1212,,563.8119,62,18,564.8095,564.8095,570.0784,space,5.233,,0,10,10,10,1,75,155,,,,,,,,
,,6167d73838d5341dfd542437,65af52f04aa07d90bbee3c8f,2024-01-23_07h48.56.674,bars,2023.2.3,Linux x86_64,59.63384817,657b66ea316d21385b68909f,,,,,,,,,,,570.1006,571.095,,,571.5945,571.844,,47,47,,,,,,,,,,,,,,,,bars/041.png,bars/mask000.png,,,,,,,,,,,,1,1,,,,,,,10,1,8,2,,,,,,,,,,,571.095,571.5945,571.8441,578.7972,space,6.9426,,578.7973,27,38,579.7939,579.794,582.271,space,2.4356,,0,11,11,11,1,20,85,,,,,,,,
,,6167d73838d5341dfd542437,65af52f04aa07d90bbee3c8f,2024-01-23_07h48.56.674,bars,2023.2.3,Linux x86_64,59.63384817,657b66ea316d21385b68909f,,,,,,,,,,,582.2721,583.2744,,,583.7746,584.0249,,30,30,,,,,,,,,,,,,,,,bars/015.png,bars/mask002.png,,,,,,,,,,,,0,2,,,,,,,10,0,10,0,,,,,,,,,,,583.2744,583.7745,584.0249,588.7113,space,4.6747,,588.7114,80,50,589.7091,589.7092,595.9935,space,6.2502,,0,12,12,12,1,110,160,,,,,,,,
,,6167d73838d5341dfd542437,65af52f04aa07d90bbee3c8f,2024-01-23_07h48.56.674,bars,2023.2.3,Linux x86_64,59.63384817,657b66ea316d21385b68909f,,,,,,,,,,,596.0212,597.0068,,,597.5078,597.7575,,93,93,,,,,,,,,,,,,,,,bars/018.png,bars/mask000.png,,,,,,,,,,,,2,2,,,,,,,8,2,9,2,,,,,,,,,,,597.0069,597.5076,597.7575,604.9083,space,7.1407,,604.9084,57,3,605.9026,605.9027,612.6338,space,6.7028,,0,13,13,13,1,150,90,,,,,,,,
,,6167d73838d5341dfd542437,65af52f04aa07d90bbee3c8f,2024-01-23_07h48.56.674,bars,2023.2.3,Linux x86_64,59.63384817,657b66ea316d21385b68909f,,,,,,,,,,,612.6547,613.661,,,614.1341,614.3964,,49,49,,,,,,,,,,,,,,,,bars/029.png,bars/mask005.png,,,,,,,,,,,,5,2,,,,,,,10,4,8,6,,,,,,,,,,,613.6612,614.1341,614.3965,618.9703,space,4.5565,,618.9703,41,4,619.9698,619.9699,625.7167,space,5.7138,,0,14,14,14,1,90,45,,,,,,,,
,,6167d73838d5341dfd542437,65af52f04aa07d90bbee3c8f,2024-01-23_07h48.56.674,bars,2023.2.3,Linux x86_64,59.63384817,657b66ea316d21385b68909f,,,,,,,,,,,625.7392,626.7334,,,627.2172,627.467,,126,126,,,,,,,,,,,,,,,,bars/032.png,bars/mask003.png,,,,,,,,,,,,8,1,,,,,,,8,6,8,6,,,,,,,,,,,626.7335,627.2172,627.4671,632.3993,space,4.9233,,632.3993,1,74,633.3976,633.3977,636.9826,space,3.5551,,0,15,15,15,1,125,20,,,,,,,,
,,6167d73838d5341dfd542437,65af52f04aa07d90bbee3c8f,2024-01-23_07h48.56.674,bars,2023.2.3,Linux x86_64,59.63384817,657b66ea316d21385b68909f,,,,,,,,,,,636.9978,637.9997,,,638.4834,638.7398,,135,135,,,,,,,,,,,,,,,,bars/022.png,bars/mask004.png,,,,,,,,,,,,0,1,,,,,,,10,8,10,9,,,,,,,,,,,637.9998,638.4833,638.7399,643.9798,space,5.2305,,643.9799,40,65,644.9791,644.9791,647.73,space,2.7211,,0,16,16,16,1,95,20,,,,,,,,
,,6167d73838d5341dfd542437,65af52f04aa07d90bbee3c8f,2024-01-23_07h48.56.674,bars,2023.2.3,Linux x86_64,59.63384817,657b66ea316d21385b68909f,,,,,,,,,,,647.7477,648.7461,,,649.2453,649.4964,,89,89,,,,,,,,,,,,,,,,bars/033.png,bars/mask002.png,,,,,,,,,,,,0,1,,,,,,,10,10,10,10,,,,,,,,,,,648.7461,649.2452,649.4967,653.4114,space,3.8964,,653.4115,64,66,654.4113,654.4113,657.2952,space,2.8505,,0,17,17,17,1,25,155,,,,,,,,
,,6167d73838d5341dfd542437,65af52f04aa07d90bbee3c8f,2024-01-23_07h48.56.674,bars,2023.2.3,Linux x86_64,59.63384817,657b66ea316d21385b68909f,,,,,,,,,,,657.2966,658.2954,,,658.7949,659.0448,,131,131,,,,,,,,,,,,,,,,bars/044.png,bars/mask007.png,,,,,,,,,,,,2,2,,,,,,,8,8,9,9,,,,,,,,,,,658.2955,658.7949,659.0449,664.1271,space,5.067,,664.1273,56,24,665.1278,665.128,667.6286,space,2.4611,,0,18,18,18,1,75,155,,,,,,,,
,,6167d73838d5341dfd542437,65af52f04aa07d90bbee3c8f,2024-01-23_07h48.56.674,bars,2023.2.3,Linux x86_64,59.63384817,657b66ea316d21385b68909f,,,,,,,,,,,667.6292,668.628,,,669.1274,669.3768,,48,48,,,,,,,,,,,,,,,,bars/044.png,bars/mask004.png,,,,,,,,,,,,0,1,,,,,,,6,10,5,10,,,,,,,,,,,668.6281,669.1273,669.3768,672.998,space,3.6052,,672.9982,27,73,674.0001,674.0002,676.5251,space,2.4925,,0,19,19,19,1,75,155,,,,,,,,
,,6167d73838d5341dfd542437,65af52f04aa07d90bbee3c8f,2024-01-23_07h48.56.674,bars,2023.2.3,Linux x86_64,59.63384817,657b66ea316d21385b68909f,,,,,,,,,,,676.5256,677.5245,,,678.0295,678.2813,,83,83,,,,,,,,,,,,,,,,bars/042.png,bars/mask008.png,,,,,,,,,,,,6,2,,,,,,,8,10,7,8,,,,,,,,,,,677.5246,678.0294,678.2814,682.227,space,3.9382,,682.2272,62,8,683.2235,683.2235,686.3564,space,3.0973,,0,20,20,20,1,145,75,,,,,,,,
,,6167d73838d5341dfd542437,65af52f04aa07d90bbee3c8f,2024-01-23_07h48.56.674,bars,2023.2.3,Linux x86_64,59.63384817,657b66ea316d21385b68909f,,,,,,,,,,,686.3772,687.3574,,,687.8569,688.1095,,61,61,,,,,,,,,,,,,,,,bars/031.png,bars/mask005.png,,,,,,,,,,,,1,2,,,,,,,6,8,5,8,,,,,,,,,,,687.3575,687.8569,688.1096,692.0201,space,3.899,,692.0202,59,26,693.0195,693.0196,695.0472,space,1.999,,0,21,21,21,1,120,35,,,,,,,,
,,6167d73838d5341dfd542437,65af52f04aa07d90bbee3c8f,2024-01-23_07h48.56.674,bars,2023.2.3,Linux x86_64,59.63384817,657b66ea316d21385b68909f,,,,,,,,,,,695.0494,696.0394,,,696.5379,696.7876,,79,79,,,,,,,,,,,,,,,,bars/009.png,bars/mask005.png,,,,,,,,,,,,1,2,,,,,,,4,10,3,10,,,,,,,,,,,696.0394,696.5378,696.7876,701.1852,space,4.3883,,701.1853,64,26,702.1836,702.1837,709.8832,space,7.6662,,0,22,22,22,1,15,105,,,,,,,,
,,6167d73838d5341dfd542437,65af52f04aa07d90bbee3c8f,2024-01-23_07h48.56.674,bars,2023.2.3,Linux x86_64,59.63384817,657b66ea316d21385b68909f,,,,,,,,,,,709.8986,710.8837,,,711.3824,711.6321,,90,90,,,,,,,,,,,,,,,,bars/007.png,bars/mask008.png,,,,,,,,,,,,0,2,,,,,,,2,10,2,10,,,,,,,,,,,710.8838,711.3824,711.6322,715.9508,space,4.3004,,715.9508,85,35,716.9523,716.9524,718.6825,space,1.7021,,0,23,23,23,1,175,55,,,,,,,,
,,6167d73838d5341dfd542437,65af52f04aa07d90bbee3c8f,2024-01-23_07h48.56.674,bars,2023.2.3,Linux x86_64,59.63384817,657b66ea316d21385b68909f,,,,,,,,,,,718.6839,719.6761,,,720.1649,720.4141,,20,20,,,,,,,,,,,,,,,,bars/010.png,bars/mask001.png,,,,,,,,,,,,0,2,,,,,,,0,8,0,8,,,,,,,,,,,719.6762,720.1649,720.4141,725.964,space,5.536,,725.964,35,35,726.965,726.9651,728.5658,space,1.5686,,0,24,24,24,1,165,55,,,,,,,,
,,6167d73838d5341dfd542437,65af52f04aa07d90bbee3c8f,2024-01-23_07h48.56.674,bars,2023.2.3,Linux x86_64,59.63384817,657b66ea316d21385b68909f,,,,,,,,,,,728.5671,729.5643,,,730.0726,730.3148,,124,124,,,,,,,,,,,,,,,,bars/001.png,bars/mask000.png,,,,,,,,,,,,2,1,,,,,,,2,6,3,4,,,,,,,,,,,729.5644,730.0725,730.3149,735.5284,space,5.2008,,735.5285,6,39,736.5299,736.53,749.1372,space,12.5799,,0,25,25,25,1,130,85,,,,,,,,
,,6167d73838d5341dfd542437,65af52f04aa07d90bbee3c8f,2024-01-23_07h48.56.674,bars,2023.2.3,Linux x86_64,59.63384817,657b66ea316d21385b68909f,,,,,,,,,,,749.1549,750.1418,,,750.644,750.8941,,140,140,,,,,,,,,,,,,,,,bars/012.png,bars/mask008.png,,,,,,,,,,,,0,1,,,,,,,0,8,0,6,,,,,,,,,,,750.142,750.6439,750.8941,757.4108,space,6.5055,,757.4108,50,55,758.4075,758.4076,761.4948,space,3.0532,,0,26,26,26,1,90,15,,,,,,,,
,,6167d73838d5341dfd542437,65af52f04aa07d90bbee3c8f,2024-01-23_07h48.56.674,bars,2023.2.3,Linux x86_64,59.63384817,657b66ea316d21385b68909f,,,,,,,,,,,761.5102,762.5004,,,763.0022,763.2495,,1,181,,,,,,,,,,,,,,,,bars/013.png,bars/mask000.png,,,,,,,,,,,,6,2,,,,,,,2,10,4,9,,,,,,,,,,,762.5005,763.0014,763.2496,766.2414,space,2.9853,,766.2415,74,9,767.2402,767.2402,769.7419,space,2.4691,,0,27,27,27,1,75,10,,,,,,,,
,,6167d73838d5341dfd542437,65af52f04aa07d90bbee3c8f,2024-01-23_07h48.56.674,bars,2023.2.3,Linux x86_64,59.63384817,657b66ea316d21385b68909f,,,,,,,,,,,769.7427,770.7427,,,771.2412,771.4905,,23,23,,,,,,,,,,,,,,,,bars/044.png,bars/mask005.png,,,,,,,,,,,,0,2,,,,,,,0,8,0,9,,,,,,,,,,,770.7435,771.2411,771.4905,775.9899,space,4.4835,,775.99,52,48,776.9912,776.9913,778.5571,space,1.5302,,0,28,28,28,1,75,155,,,,,,,,
,,6167d73838d5341dfd542437,65af52f04aa07d90bbee3c8f,2024-01-23_07h48.56.674,bars,2023.2.3,Linux x86_64,59.63384817,657b66ea316d21385b68909f,,,,,,,,,,,778.5588,779.5571,,,780.0572,780.3054,,143,143,,,,,,,,,,,,,,,,bars/005.png,bars/mask008.png,,,,,,,,,,,,9,2,,,,,,,0,10,0,10,,,,,,,,,,,779.5572,780.0571,780.3054,786.8711,space,6.553,,786.8711,47,3,787.872,787.872,792.417,space,4.5079,,0,29,29,29,1,10,140,,,,,,,,
,,6167d73838d5341dfd542437,65af52f04aa07d90bbee3c8f,2024-01-23_07h48.56.674,bars,2023.2.3,Linux x86_64,59.63384817,657b66ea316d21385b68909f,,,,,,,,,,,792.4399,793.4259,,,793.926,794.1649,,25,25,,,,,,,,,,,,,,,,bars/046.png,bars/mask007.png,,,,,,,,,,,,0,1,,,,,,,2,8,0,9,,,,,,,,,,,793.426,793.9259,794.1649,800.1344,space,5.955,,800.1345,50,60,801.1365,801.1365,804.0687,space,2.8971,,0,30,30,30,1,155,85,,,,,,,,
,,6167d73838d5341dfd542437,65af52f04aa07d90bbee3c8f,2024-01-23_07h48.56.674,bars,2023.2.3,Linux x86_64,59.63384817,657b66ea316d21385b68909f,,,,,,,,,,,804.096,805.0794,,,805.5798,805.8297,,153,153,,,,,,,,,,,,,,,,bars/036.png,bars/mask002.png,,,,,,,,,,,,1,1,,,,,,,0,6,1,5,,,,,,,,,,,805.0795,805.5798,805.8297,809.9971,space,4.1545,,809.9977,8,47,810.9964,810.9965,815.4642,space,4.4307,,0,31,31,31,1,145,20,,,,,,,,
,,6167d73838d5341dfd542437,65af52f04aa07d90bbee3c8f,2024-01-23_07h48.56.674,bars,2023.2.3,Linux x86_64,59.63384817,657b66ea316d21385b68909f,,,,,,,,,,,815.4811,816.4652,,,816.9648,817.2149,,172,-8,,,,,,,,,,,,,,,,bars/005.png,bars/mask008.png,,,,,,,,,,,,1,1,,,,,,,2,4,2,3,,,,,,,,,,,816.4652,816.9647,817.2149,822.2803,space,5.0557,,822.2804,18,32,823.2771,823.2771,826.2652,space,2.9499,,0,32,32,32,1,10,140,,,,,,,,
,,6167d73838d5341dfd542437,65af52f04aa07d90bbee3c8f,2024-01-23_07h48.56.674,bars,2023.2.3,Linux x86_64,59.63384817,657b66ea316d21385b68909f,,,,,,,,,,,826.2916,827.2795,,,827.7797,828.0295,,127,127,,,,,,,,,,,,,,,,bars/025.png,bars/mask005.png,,,,,,,,,,,,1,1,,,,,,,4,2,4,2,,,,,,,,,,,827.2795,827.7797,828.0296,834.1462,space,6.1002,,834.1463,22,87,835.144,835.1442,838.3437,space,3.161,,0,33,33,33,1,105,40,,,,,,,,
,,6167d73838d5341dfd542437,65af52f04aa07d90bbee3c8f,2024-01-23_07h48.56.674,bars,2023.2.3,Linux x86_64,59.63384817,657b66ea316d21385b68909f,,,,,,,,,,,838.3612,839.3585,,,839.8453,840.0919,,60,60,,,,,,,,,,,,,,,,bars/039.png,bars/mask003.png,,,,,,,,,,,,0,2,,,,,,,6,0,5,1,,,,,,,,,,,839.3587,839.8452,840.0919,846.1463,space,6.0419,,846.1464,65,45,847.1431,847.1431,849.3945,space,2.2134,,0,34,34,34,1,175,105,,,,,,,,
,,6167d73838d5341dfd542437,65af52f04aa07d90bbee3c8f,2024-01-23_07h48.56.674,bars,2023.2.3,Linux x86_64,59.63384817,657b66ea316d21385b68909f,,,,,,,,,,,849.3954,850.3928,,,850.8928,851.1427,,108,108,,,,,,,,,,,,,,,,bars/016.png,bars/mask009.png,,,,,,,,,,,,0,2,,,,,,,4,2,2,4,,,,,,,,,,,850.3928,850.8928,851.1428,855.8267,space,4.6673,,855.827,68,57,856.8253,856.8254,858.4118,space,1.5558,,0,35,35,35,1,40,165,,,,,,,,
,,6167d73838d5341dfd542437,65af52f04aa07d90bbee3c8f,2024-01-23_07h48.56.674,bars,2023.2.3,Linux x86_64,59.63384817,657b66ea316d21385b68909f,,,,,,,,,,,858.4133,859.4089,,,859.8971,860.1408,,169,169,,,,,,,,,,,,,,,,bars/000.png,bars/mask003.png,,,,,,,,,,,,1,2,,,,,,,2,4,2,4,,,,,,,,,,,859.409,859.897,860.1408,866.4896,space,6.334,,866.4897,51,24,867.4884,867.4884,869.5049,space,1.978,,0,36,36,36,1,40,145,,,,,,,,
,,6167d73838d5341dfd542437,65af52f04aa07d90bbee3c8f,2024-01-23_07h48.56.674,bars,2023.2.3,Linux x86_64,59.63384817,657b66ea316d21385b68909f,,,,,,,,,,,869.5055,870.504,,,871.0063,871.2539,,126,126,,,,,,,,,,,,,,,,bars/008.png,bars/mask009.png,,,,,,,,,,,,2,1,,,,,,,4,2,4,3,,,,,,,,,,,870.504,871.0062,871.254,876.2538,space,4.9847,,876.2538,16,54,877.2531,877.2531,878.9881,space,1.6967,,0,37,37,37,1,110,0,,,,,,,,
,,6167d73838d5341dfd542437,65af52f04aa07d90bbee3c8f,2024-01-23_07h48.56.674,bars,2023.2.3,Linux x86_64,59.63384817,657b66ea316d21385b68909f,,,,,,,,,,,878.989,879.9871,,,880.4876,880.7373,,106,106,,,,,,,,,,,,,,,,bars/018.png,bars/mask007.png,,,,,,,,,,,,2,2,,,,,,,6,4,6,5,,,,,,,,,,,879.9872,880.4876,880.7374,885.2174,space,4.4705,,885.2176,44,16,886.2147,886.2147,888.9185,space,2.6599,,0,38,38,38,1,150,90,,,,,,,,
,,6167d73838d5341dfd542437,65af52f04aa07d90bbee3c8f,2024-01-23_07h48.56.674,bars,2023.2.3,Linux x86_64,59.63384817,657b66ea316d21385b68909f,,,,,,,,,,,888.92,889.9186,,,890.4173,890.6665,,7,7,,,,,,,,,,,,,,,,bars/009.png,bars/mask001.png,,,,,,,,,,,,4,1,,,,,,,4,6,6,7,,,,,,,,,,,889.9187,890.4172,890.6666,895.8013,space,5.119,,895.8015,8,82,896.7974,896.7975,898.7983,space,1.9682,,0,39,39,39,1,15,105,,,,,,,,
,,6167d73838d5341dfd542437,65af52f04aa07d90bbee3c8f,2024-01-23_07h48.56.674,bars,2023.2.3,Linux x86_64,59.63384817,657b66ea316d21385b68909f,,,,,,,,,,,898.7996,899.7992,,,900.2987,900.5487,,160,160,,,,,,,,,,,,,,,,bars/014.png,bars/mask005.png,,,,,,,,,,,,1,2,,,,,,,6,4,7,4,,,,,,,,,,,899.7992,900.2986,900.5489,907.0145,space,6.45,,907.0146,80,20,908.0155,908.0155,910.018,space,1.9617,,0,40,40,40,1,80,0,,,,,,,,
,,6167d73838d5341dfd542437,65af52f04aa07d90bbee3c8f,2024-01-23_07h48.56.674,bars,2023.2.3,Linux x86_64,59.63384817,657b66ea316d21385b68909f,,,,,,,,,,,910.0193,911.0155,,,911.5143,911.763,,77,77,,,,,,,,,,,,,,,,bars/003.png,bars/mask003.png,,,,,,,,,,,,0,1,,,,,,,4,2,5,1,,,,,,,,,,,911.016,911.514,911.763,915.0436,space,3.2702,,915.0437,52,63,916.0466,916.0466,919.1462,space,3.0691,,0,41,41,41,1,25,140,,,,,,,,
,,6167d73838d5341dfd542437,65af52f04aa07d90bbee3c8f,2024-01-23_07h48.56.674,bars,2023.2.3,Linux x86_64,59.63384817,657b66ea316d21385b68909f,,,,,,,,,,,919.1471,920.1451,,,920.6442,920.8949,,164,164,,,,,,,,,,,,,,,,bars/025.png,bars/mask006.png,,,,,,,,,,,,0,2,,,,,,,2,4,3,4,,,,,,,,,,,920.1451,920.6441,920.895,924.4632,space,3.5517,,924.4633,59,56,925.4609,925.461,926.3961,space,0.8844,,0,42,42,42,1,105,40,,,,,,,,
,,6167d73838d5341dfd542437,65af52f04aa07d90bbee3c8f,2024-01-23_07h48.56.674,bars,2023.2.3,Linux x86_64,59.63384817,657b66ea316d21385b68909f,,,,,,,,,,,926.3972,927.3938,,,927.8927,928.1429,,15,15,,,,,,,,,,,,,,,,bars/047.png,bars/mask007.png,,,,,,,,,,,,5,1,,,,,,,4,2,5,1,,,,,,,,,,,927.3939,927.8926,928.143,936.2438,space,8.0888,,936.2438,0,55,937.2415,937.2415,942.6094,space,5.3239,,0,43,43,43,1,15,70,,,,,,,,
,,6167d73838d5341dfd542437,65af52f04aa07d90bbee3c8f,2024-01-23_07h48.56.674,bars,2023.2.3,Linux x86_64,59.63384817,657b66ea316d21385b68909f,,,,,,,,,,,942.6325,943.626,,,944.127,944.3765,,50,50,,,,,,,,,,,,,,,,bars/007.png,bars/mask004.png,,,,,,,,,,,,0,2,,,,,,,6,0,5,0,,,,,,,,,,,943.6261,944.1269,944.3766,947.0658,space,2.6809,,947.0659,55,5,948.0579,948.058,950.8249,space,2.7212,,0,44,44,44,1,175,55,,,,,,,,
,,6167d73838d5341dfd542437,65af52f04aa07d90bbee3c8f,2024-01-23_07h48.56.674,bars,2023.2.3,Linux x86_64,59.63384817,657b66ea316d21385b68909f,,,,,,,,,,,950.8252,951.8312,,,952.3241,952.5647,,38,38,,,,,,,,,,,,,,,,bars/002.png,bars/mask007.png,,,,,,,,,,,,0,2,,,,,,,8,0,9,0,,,,,,,,,,,951.8313,952.324,952.5648,955.8246,space,3.2458,,955.826,88,47,956.8228,956.8228,959.14,space,2.2846,,0,45,45,45,1,130,85,,,,,,,,
,,6167d73838d5341dfd542437,65af52f04aa07d90bbee3c8f,2024-01-23_07h48.56.674,bars,2023.2.3,Linux x86_64,59.63384817,657b66ea316d21385b68909f,,,,,,,,,,,959.1408,960.1395,,,960.6395,960.8893,,125,125,,,,,,,,,,,,,,,,bars/045.png,bars/mask009.png,,,,,,,,,,,,1,1,,,,,,,6,0,8,0,,,,,,,,,,,960.1395,960.6395,960.8894,964.8223,space,3.9209,,964.8224,25,65,965.8206,965.8207,967.5061,space,1.6521,,0,46,46,46,1,100,10,,,,,,,,
,,6167d73838d5341dfd542437,65af52f04aa07d90bbee3c8f,2024-01-23_07h48.56.674,bars,2023.2.3,Linux x86_64,59.63384817,657b66ea316d21385b68909f,,,,,,,,,,,967.5077,968.504,,,969.005,969.2545,,126,126,,,,,,,,,,,,,,,,bars/015.png,bars/mask005.png,,,,,,,,,,,,4,1,,,,,,,8,2,8,3,,,,,,,,,,,968.5041,969.0049,969.2546,972.7911,space,3.5296,,972.7911,16,34,973.7862,973.7863,975.2022,space,1.3917,,0,47,47,47,1,110,160,,,,,,,,
,,6167d73838d5341dfd542437,65af52f04aa07d90bbee3c8f,2024-01-23_07h48.56.674,bars,2023.2.3,Linux x86_64,59.63384817,657b66ea316d21385b68909f,,,,,,,,,,,975.2028,976.2024,,,976.7018,976.9523,,36,36,,,,,,,,,,,,,,,,bars/033.png,bars/mask003.png,,,,,,,,,,,,6,1,,,,,,,10,4,10,3,,,,,,,,,,,976.2024,976.7018,976.9524,981.0344,space,4.0726,,981.0344,11,61,982.0319,982.032,983.714,space,1.6525,,0,48,48,48,1,25,155,,,,,,,,
,,6167d73838d5341dfd542437,65af52f04aa07d90bbee3c8f,2024-01-23_07h48.56.674,bars,2023.2.3,Linux x86_64,59.63384817,657b66ea316d21385b68909f,,,,,,,,,,,983.7163,984.7171,,,985.2257,985.4677,,79,79,,,,,,,,,,,,,,,,bars/029.png,bars/mask002.png,,,,,,,,,,,,6,1,,,,,,,10,2,10,2,,,,,,,,,,,984.7173,985.2256,985.4678,993.2812,space,7.8057,,993.2813,11,34,994.2827,994.2827,995.5997,space,1.2871,,0,49,49,49,1,90,45,,,,,,,,
,,6167d73838d5341dfd542437,65af52f04aa07d90bbee3c8f,2024-01-23_07h48.56.674,bars,2023.2.3,Linux x86_64,59.63384817,657b66ea316d21385b68909f,,,,,,,,,,,,,,,,,,,,,,,,,,,,,,,,,,,,,,,,,,,,,,,,,,,,,,,,,,,,,,,,,,,,,,,,,,,,,,,,,,,,,,,,,,,,,995.6019,1055.6055,0,0,0,3,1,sequence_tables/blk046.csv
,,6167d73838d5341dfd542437,65af52f04aa07d90bbee3c8f,2024-01-23_07h48.56.674,bars,2023.2.3,Linux x86_64,59.63384817,657b66ea316d21385b68909f,,,,,,,,,,,1058.8267,1059.8199,,,1060.3201,1060.5705,,80,80,,,,,,,,,,,,,,,,bars/012.png,bars/mask004.png,,,,,,,,,,,,6,1,,,,,,,8,2,9,1,,,,,,1055.6299,1058.8043,space,3.1649,,1059.8199,1060.3201,1060.5705,1064.3881,space,3.8013,,1064.3881,10,65,1065.3857,1065.3857,1065.4027,,,,0,0,0,0,1,90,15,,,,,,,,
,,6167d73838d5341dfd542437,65af52f04aa07d90bbee3c8f,2024-01-23_07h48.56.674,bars,2023.2.3,Linux x86_64,59.63384817,657b66ea316d21385b68909f,,,,,,,,,,,1065.4031,1066.4018,,,1066.9005,1067.151,,88,88,,,,,,,,,,,,,,,,bars/026.png,bars/mask000.png,,,,,,,,,,,,4,2,,,,,,,6,4,6,4,,,,,,,,,,,1066.4018,1066.9003,1067.1511,1071.5344,space,4.3673,,1071.5345,53,3,1072.533,1072.533,1072.5593,,,,0,1,1,1,1,35,85,,,,,,,,
,,6167d73838d5341dfd542437,65af52f04aa07d90bbee3c8f,2024-01-23_07h48.56.674,bars,2023.2.3,Linux x86_64,59.63384817,657b66ea316d21385b68909f,,,,,,,,,,,1072.5599,1073.5508,,,1074.0502,1074.2998,,118,118,,,,,,,,,,,,,,,,bars/034.png,bars/mask003.png,,,,,,,,,,,,6,1,,,,,,,8,2,8,2,,,,,,,,,,,1073.5509,1074.0502,1074.3,1078.0348,space,3.7253,,1078.0349,7,53,1079.033,1079.0331,1079.0563,,,,0,2,2,2,1,125,65,,,,,,,,
,,6167d73838d5341dfd542437,65af52f04aa07d90bbee3c8f,2024-01-23_07h48.56.674,bars,2023.2.3,Linux x86_64,59.63384817,657b66ea316d21385b68909f,,,,,,,,,,,1079.0566,1080.049,,,1080.5513,1080.8002,,113,113,,,,,,,,,,,,,,,,bars/028.png,bars/mask004.png,,,,,,,,,,,,4,2,,,,,,,6,4,5,5,,,,,,,,,,,1080.0491,1080.551,1080.8003,1084.0676,space,3.2518,,1084.0676,68,7,1085.0636,1085.0636,1085.0817,,,,0,3,3,3,1,45,120,,,,,,,,
,,6167d73838d5341dfd542437,65af52f04aa07d90bbee3c8f,2024-01-23_07h48.56.674,bars,2023.2.3,Linux x86_64,59.63384817,657b66ea316d21385b68909f,,,,,,,,,,,1085.0822,1086.0816,,,1086.5816,1086.8319,,21,21,,,,,,,,,,,,,,,,bars/023.png,bars/mask004.png,,,,,,,,,,,,5,1,,,,,,,4,2,5,1,,,,,,,,,,,1086.082,1086.5815,1086.8319,1090.5156,space,3.6698,,1090.5157,1,86,1091.5134,1091.5135,1091.5363,,,,0,4,4,4,1,20,115,,,,,,,,
,,6167d73838d5341dfd542437,65af52f04aa07d90bbee3c8f,2024-01-23_07h48.56.674,bars,2023.2.3,Linux x86_64,59.63384817,657b66ea316d21385b68909f,,,,,,,,,,,1091.5367,1092.5285,,,1093.0295,1093.2805,,153,153,,,,,,,,,,,,,,,,bars/017.png,bars/mask000.png,,,,,,,,,,,,2,1,,,,,,,2,0,3,2,,,,,,,,,,,1092.5287,1093.0295,1093.2806,1096.9274,space,3.6366,,1096.9274,8,72,1097.9278,1097.9279,1097.9533,,,,0,5,5,5,1,145,45,,,,,,,,
,,6167d73838d5341dfd542437,65af52f04aa07d90bbee3c8f,2024-01-23_07h48.56.674,bars,2023.2.3,Linux x86_64,59.63384817,657b66ea316d21385b68909f,,,,,,,,,,,1097.9539,1098.9464,,,1099.4442,1099.6944,,164,-16,,,,,,,,,,,,,,,,bars/049.png,bars/mask009.png,,,,,,,,,,,,1,1,,,,,,,0,2,1,3,,,,,,,,,,,1098.9464,1099.4441,1099.6945,1103.3209,space,3.6211,,1103.321,4,49,1104.3299,1104.3299,1104.3484,,,,0,6,6,6,1,160,115,,,,,,,,
,,6167d73838d5341dfd542437,65af52f04aa07d90bbee3c8f,2024-01-23_07h48.56.674,bars,2023.2.3,Linux x86_64,59.63384817,657b66ea316d21385b68909f,,,,,,,,,,,1104.3489,1105.3407,,,1105.8442,1106.0959,,127,127,,,,,,,,,,,,,,,,bars/023.png,bars/mask007.png,,,,,,,,,,,,0,2,,,,,,,2,0,2,0,,,,,,,,,,,1105.3408,1105.8442,1106.0959,1110.011,space,3.9004,,1110.0112,73,12,1111.0104,1111.0106,1111.0419,,,,0,7,7,7,1,20,115,,,,,,,,
,,6167d73838d5341dfd542437,65af52f04aa07d90bbee3c8f,2024-01-23_07h48.56.674,bars,2023.2.3,Linux x86_64,59.63384817,657b66ea316d21385b68909f,,,,,,,,,,,1111.0426,1112.0353,,,1112.528,1112.7773,,3,3,,,,,,,,,,,,,,,,bars/037.png,bars/mask007.png,,,,,,,,,,,,0,1,,,,,,,0,2,0,2,,,,,,,,,,,1112.0354,1112.5279,1112.7773,1116.4374,space,3.6523,,1116.4375,33,78,1117.4354,1117.4354,1117.4551,,,,0,8,8,8,1,150,105,,,,,,,,
,,6167d73838d5341dfd542437,65af52f04aa07d90bbee3c8f,2024-01-23_07h48.56.674,bars,2023.2.3,Linux x86_64,59.63384817,657b66ea316d21385b68909f,,,,,,,,,,,1117.4557,1118.4432,,,1118.9429,1119.1841,,86,86,,,,,,,,,,,,,,,,bars/007.png,bars/mask002.png,,,,,,,,,,,,0,2,,,,,,,0,4,0,4,,,,,,,,,,,1118.4433,1118.9428,1119.1841,1124.2238,space,5.0271,,1124.2238,89,31,1125.2234,1125.2234,1125.2416,,,,0,9,9,9,1,175,55,,,,,,,,
,,6167d73838d5341dfd542437,65af52f04aa07d90bbee3c8f,2024-01-23_07h48.56.674,bars,2023.2.3,Linux x86_64,59.63384817,657b66ea316d21385b68909f,,,,,,,,,,,1125.242,1126.2413,,,1126.7414,1126.9906,,51,51,,,,,,,,,,,,,,,,bars/040.png,bars/mask005.png,,,,,,,,,,,,0,2,,,,,,,0,6,3,5,,,,,,,,,,,1126.2414,1126.7413,1126.9908,1130.5451,space,3.5452,,1130.5451,89,46,1131.5402,1131.5402,1131.5561,,,,0,10,10,10,1,140,5,,,,,,,,
,,6167d73838d5341dfd542437,65af52f04aa07d90bbee3c8f,2024-01-23_07h48.56.674,bars,2023.2.3,Linux x86_64,59.63384817,657b66ea316d21385b68909f,,,,,,,,,,,1131.5569,1132.5562,,,1133.0552,1133.3052,,128,128,,,,,,,,,,,,,,,,bars/010.png,bars/mask004.png,,,,,,,,,,,,0,1,,,,,,,2,4,3,5,,,,,,,,,,,1132.5563,1133.0552,1133.3053,1137.2761,space,3.9598,,1137.2762,37,73,1138.2723,1138.2724,1138.2996,,,,0,11,11,11,1,165,55,,,,,,,,
,,6167d73838d5341dfd542437,65af52f04aa07d90bbee3c8f,2024-01-23_07h48.56.674,bars,2023.2.3,Linux x86_64,59.63384817,657b66ea316d21385b68909f,,,,,,,,,,,1138.3009,1139.2893,,,1139.7891,1140.04,,39,39,,,,,,,,,,,,,,,,bars/010.png,bars/mask004.png,,,,,,,,,,,,2,2,,,,,,,0,6,0,5,,,,,,,,,,,1139.2894,1139.7891,1140.0401,1144.9041,space,4.8495,,1144.9043,54,16,1145.902,1145.9021,1145.92,,,,0,12,12,12,1,165,55,,,,,,,,
,,6167d73838d5341dfd542437,65af52f04aa07d90bbee3c8f,2024-01-23_07h48.56.674,bars,2023.2.3,Linux x86_64,59.63384817,657b66ea316d21385b68909f,,,,,,,,,,,1145.9205,1146.9204,,,1147.4204,1147.6714,,57,57,,,,,,,,,,,,,,,,bars/006.png,bars/mask006.png,,,,,,,,,,,,1,1,,,,,,,2,4,2,4,,,,,,,,,,,1146.9204,1147.4204,1147.6714,1154.2838,space,6.5949,,1154.2839,22,43,1155.2825,1155.2825,1155.3089,,,,0,13,13,13,1,35,100,,,,,,,,
,,6167d73838d5341dfd542437,65af52f04aa07d90bbee3c8f,2024-01-23_07h48.56.674,bars,2023.2.3,Linux x86_64,59.63384817,657b66ea316d21385b68909f,,,,,,,,,,,1155.3094,1156.2997,,,1156.8009,1157.0513,,142,142,,,,,,,,,,,,,,,,bars/036.png,bars/mask003.png,,,,,,,,,,,,0,1,,,,,,,0,6,0,6,,,,,,,,,,,1156.2998,1156.8008,1157.0513,1159.6851,space,2.6195,,1159.6851,3,58,1160.684,1160.6841,1160.6992,,,,0,14,14,14,1,145,20,,,,,,,,
,,6167d73838d5341dfd542437,65af52f04aa07d90bbee3c8f,2024-01-23_07h48.56.674,bars,2023.2.3,Linux x86_64,59.63384817,657b66ea316d21385b68909f,,,,,,,,,,,1160.6998,1161.7009,,,1162.1993,1162.4503,,50,50,,,,,,,,,,,,,,,,bars/044.png,bars/mask006.png,,,,,,,,,,,,0,1,,,,,,,2,8,1,8,,,,,,,,,,,1161.701,1162.1993,1162.4507,1165.8714,space,3.4112,,1165.8716,25,75,1166.8662,1166.8663,1166.8881,,,,0,15,15,15,1,75,155,,,,,,,,
,,6167d73838d5341dfd542437,65af52f04aa07d90bbee3c8f,2024-01-23_07h48.56.674,bars,2023.2.3,Linux x86_64,59.63384817,657b66ea316d21385b68909f,,,,,,,,,,,1166.8886,1167.883,,,1168.3846,1168.6339,,115,115,,,,,,,,,,,,,,,,bars/041.png,bars/mask004.png,,,,,,,,,,,,0,2,,,,,,,0,10,0,9,,,,,,,,,,,1167.8831,1168.3845,1168.634,1172.3199,space,3.6729,,1172.32,85,30,1173.3138,1173.3138,1173.3329,,,,0,16,16,16,1,20,85,,,,,,,,
,,6167d73838d5341dfd542437,65af52f04aa07d90bbee3c8f,2024-01-23_07h48.56.674,bars,2023.2.3,Linux x86_64,59.63384817,657b66ea316d21385b68909f,,,,,,,,,,,1173.3335,1174.3295,,,1174.8235,1175.0735,,109,109,,,,,,,,,,,,,,,,bars/040.png,bars/mask000.png,,,,,,,,,,,,0,1,,,,,,,0,10,0,10,,,,,,,,,,,1174.3296,1174.8234,1175.0736,1178.3997,space,3.3178,,1178.3998,31,76,1179.3976,1179.3976,1179.419,,,,0,17,17,17,1,140,5,,,,,,,,
,,6167d73838d5341dfd542437,65af52f04aa07d90bbee3c8f,2024-01-23_07h48.56.674,bars,2023.2.3,Linux x86_64,59.63384817,657b66ea316d21385b68909f,,,,,,,,,,,1179.4195,1180.4211,,,1180.9141,1181.1546,,107,107,,,,,,,,,,,,,,,,bars/018.png,bars/mask000.png,,,,,,,,,,,,4,2,,,,,,,0,10,0,9,,,,,,,,,,,1180.4212,1180.9139,1181.1547,1185.6926,space,4.5245,,1185.6926,43,17,1186.6957,1186.6958,1186.7193,,,,0,18,18,18,1,150,90,,,,,,,,
,,6167d73838d5341dfd542437,65af52f04aa07d90bbee3c8f,2024-01-23_07h48.56.674,bars,2023.2.3,Linux x86_64,59.63384817,657b66ea316d21385b68909f,,,,,,,,,,,1186.7196,1187.7116,,,1188.2114,1188.462,,49,49,,,,,,,,,,,,,,,,bars/020.png,bars/mask005.png,,,,,,,,,,,,0,2,,,,,,,2,8,2,8,,,,,,,,,,,1187.7116,1188.2113,1188.4621,1192.2436,space,3.7711,,1192.2437,66,59,1193.242,1193.242,1193.2599,,,,0,19,19,19,1,115,170,,,,,,,,
,,6167d73838d5341dfd542437,65af52f04aa07d90bbee3c8f,2024-01-23_07h48.56.674,bars,2023.2.3,Linux x86_64,59.63384817,657b66ea316d21385b68909f,,,,,,,,,,,1193.2604,1194.2596,,,1194.7624,1195.0111,,76,76,,,,,,,,,,,,,,,,bars/019.png,bars/mask006.png,,,,,,,,,,,,0,2,,,,,,,0,6,1,6,,,,,,,,,,,1194.2597,1194.7624,1195.0112,1197.8113,space,2.7913,,1197.8115,31,29,1198.8116,1198.8116,1198.835,,,,0,20,20,20,1,45,105,,,,,,,,
,,6167d73838d5341dfd542437,65af52f04aa07d90bbee3c8f,2024-01-23_07h48.56.674,bars,2023.2.3,Linux x86_64,59.63384817,657b66ea316d21385b68909f,,,,,,,,,,,1198.8354,1199.8285,,,1200.328,1200.5785,,5,185,,,,,,,,,,,,,,,,bars/044.png,bars/mask000.png,,,,,,,,,,,,0,2,,,,,,,2,8,2,5,,,,,,,,,,,1199.8286,1200.3279,1200.5785,1203.9969,space,3.4071,,1203.9971,70,30,1204.9933,1204.9935,1205.008,,,,0,21,21,21,1,75,155,,,,,,,,
,,6167d73838d5341dfd542437,65af52f04aa07d90bbee3c8f,2024-01-23_07h48.56.674,bars,2023.2.3,Linux x86_64,59.63384817,657b66ea316d21385b68909f,,,,,,,,,,,1205.0086,1206.0096,,,1206.5084,1206.759,,110,110,,,,,,,,,,,,,,,,bars/048.png,bars/mask008.png,,,,,,,,,,,,0,1,,,,,,,4,6,4,7,,,,,,,,,,,1206.0097,1206.5083,1206.7592,1209.526,space,2.751,,1209.526,60,65,1210.5262,1210.5262,1210.5478,,,,0,22,22,22,1,50,175,,,,,,,,
,,6167d73838d5341dfd542437,65af52f04aa07d90bbee3c8f,2024-01-23_07h48.56.674,bars,2023.2.3,Linux x86_64,59.63384817,657b66ea316d21385b68909f,,,,,,,,,,,1210.5481,1211.542,,,1212.0423,1212.2859,,40,220,,,,,,,,,,,,,,,,bars/042.png,bars/mask000.png,,,,,,,,,,,,0,2,,,,,,,2,4,3,4,,,,,,,,,,,1211.542,1212.0422,1212.286,1216.9263,space,4.6206,,1216.9264,75,35,1217.9253,1217.9253,1217.9551,,,,0,23,23,23,1,145,75,,,,,,,,
,,6167d73838d5341dfd542437,65af52f04aa07d90bbee3c8f,2024-01-23_07h48.56.674,bars,2023.2.3,Linux x86_64,59.63384817,657b66ea316d21385b68909f,,,,,,,,,,,1217.9558,1218.9467,,,1219.4406,1219.691,,127,127,,,,,,,,,,,,,,,,bars/020.png,bars/mask002.png,,,,,,,,,,,,1,1,,,,,,,0,2,1,3,,,,,,,,,,,1218.9467,1219.4406,1219.6911,1222.3206,space,2.6194,,1222.3206,12,43,1223.322,1223.322,1223.3446,,,,0,24,24,24,1,115,170,,,,,,,,
,,6167d73838d5341dfd542437,65af52f04aa07d90bbee3c8f,2024-01-23_07h48.56.674,bars,2023.2.3,Linux x86_64,59.63384817,657b66ea316d21385b68909f,,,,,,,,,,,1223.3451,1224.3383,,,1224.838,1225.0894,,80,260,,,,,,,,,,,,,,,,bars/032.png,bars/mask008.png,,,,,,,,,,,,0,1,,,,,,,0,0,2,0,,,,,,,,,,,1224.3384,1224.8379,1225.0894,1231.6388,space,6.5382,,1231.6389,45,60,1232.6322,1232.6323,1232.6512,,,,0,25,25,25,1,125,20,,,,,,,,
,,6167d73838d5341dfd542437,65af52f04aa07d90bbee3c8f,2024-01-23_07h48.56.674,bars,2023.2.3,Linux x86_64,59.63384817,657b66ea316d21385b68909f,,,,,,,,,,,1232.6515,1233.6432,,,1234.1436,1234.384,,95,95,,,,,,,,,,,,,,,,bars/022.png,bars/mask001.png,,,,,,,,,,,,1,1,,,,,,,2,0,1,0,,,,,,,,,,,1233.6432,1234.1436,1234.384,1237.5207,space,3.124,,1237.5218,0,75,1238.5121,1238.5122,1238.53,,,,0,26,26,26,1,95,20,,,,,,,,
,,6167d73838d5341dfd542437,65af52f04aa07d90bbee3c8f,2024-01-23_07h48.56.674,bars,2023.2.3,Linux x86_64,59.63384817,657b66ea316d21385b68909f,,,,,,,,,,,1238.5306,1239.5338,,,1240.0339,1240.2863,,33,33,,,,,,,,,,,,,,,,bars/000.png,bars/mask000.png,,,,,,,,,,,,0,1,,,,,,,0,2,0,2,,,,,,,,,,,1239.5339,1240.0338,1240.2864,1244.2977,space,4.0021,,1244.2977,7,68,1245.2984,1245.2984,1245.3139,,,,0,27,27,27,1,40,145,,,,,,,,
,,6167d73838d5341dfd542437,65af52f04aa07d90bbee3c8f,2024-01-23_07h48.56.674,bars,2023.2.3,Linux x86_64,59.63384817,657b66ea316d21385b68909f,,,,,,,,,,,1245.3147,1246.3163,,,1246.816,1247.0663,,35,215,,,,,,,,,,,,,,,,bars/049.png,bars/mask003.png,,,,,,,,,,,,0,1,,,,,,,0,0,0,1,,,,,,,,,,,1246.3163,1246.816,1247.0663,1250.5549,space,3.4808,,1250.555,55,80,1251.5504,1251.5505,1251.5714,,,,0,28,28,28,1,160,115,,,,,,,,
,,6167d73838d5341dfd542437,65af52f04aa07d90bbee3c8f,2024-01-23_07h48.56.674,bars,2023.2.3,Linux x86_64,59.63384817,657b66ea316d21385b68909f,,,,,,,,,,,1251.5719,1252.5628,,,1253.0574,1253.3102,,116,116,,,,,,,,,,,,,,,,bars/038.png,bars/mask009.png,,,,,,,,,,,,0,2,,,,,,,2,0,2,0,,,,,,,,,,,1252.5628,1253.0573,1253.3103,1256.9,space,3.5766,,1256.9,49,46,1257.8993,1257.8994,1257.9171,,,,0,29,29,29,1,165,70,,,,,,,,
,,6167d73838d5341dfd542437,65af52f04aa07d90bbee3c8f,2024-01-23_07h48.56.674,bars,2023.2.3,Linux x86_64,59.63384817,657b66ea316d21385b68909f,,,,,,,,,,,1257.9176,1258.9178,,,1259.4169,1259.6682,,133,133,,,,,,,,,,,,,,,,bars/022.png,bars/mask000.png,,,,,,,,,,,,0,1,,,,,,,0,2,0,2,,,,,,,,,,,1258.9178,1259.4169,1259.6682,1265.9154,space,6.239,,1265.9155,38,67,1266.9139,1266.9139,1266.9395,,,,0,30,30,30,1,95,20,,,,,,,,
,,6167d73838d5341dfd542437,65af52f04aa07d90bbee3c8f,2024-01-23_07h48.56.674,bars,2023.2.3,Linux x86_64,59.63384817,657b66ea316d21385b68909f,,,,,,,,,,,1266.9401,1267.9321,,,1268.432,1268.6853,,4,184,,,,,,,,,,,,,,,,bars/000.png,bars/mask005.png,,,,,,,,,,,,0,1,,,,,,,2,0,1,0,,,,,,,,,,,1267.9321,1268.4318,1268.6854,1272.0799,space,3.3821,,1272.0799,36,39,1273.0712,1273.0713,1273.096,,,,0,31,31,31,1,40,145,,,,,,,,
,,6167d73838d5341dfd542437,65af52f04aa07d90bbee3c8f,2024-01-23_07h48.56.674,bars,2023.2.3,Linux x86_64,59.63384817,657b66ea316d21385b68909f,,,,,,,,,,,1273.0966,1274.0912,,,1274.5928,1274.8439,,113,113,,,,,,,,,,,,,,,,bars/007.png,bars/mask000.png,,,,,,,,,,,,0,2,,,,,,,4,2,5,2,,,,,,,,,,,1274.0912,1274.5927,1274.844,1278.013,space,3.1531,,1278.0131,62,58,1279.0135,1279.0135,1279.0306,,,,0,32,32,32,1,175,55,,,,,,,,
,,6167d73838d5341dfd542437,65af52f04aa07d90bbee3c8f,2024-01-23_07h48.56.674,bars,2023.2.3,Linux x86_64,59.63384817,657b66ea316d21385b68909f,,,,,,,,,,,1279.0311,1280.03,,,1280.5298,1280.7808,,35,35,,,,,,,,,,,,,,,,bars/023.png,bars/mask001.png,,,,,,,,,,,,2,1,,,,,,,2,0,3,1,,,,,,,,,,,1280.0301,1280.5298,1280.7809,1287.1112,space,6.3147,,1287.1122,15,80,1288.1098,1288.1098,1288.13,,,,0,33,33,33,1,20,115,,,,,,,,
,,6167d73838d5341dfd542437,65af52f04aa07d90bbee3c8f,2024-01-23_07h48.56.674,bars,2023.2.3,Linux x86_64,59.63384817,657b66ea316d21385b68909f,,,,,,,,,,,1288.1307,1289.1266,,,1289.626,1289.8771,,161,161,,,,,,,,,,,,,,,,bars/042.png,bars/mask002.png,,,,,,,,,,,,0,1,,,,,,,0,0,0,0,,,,,,,,,,,1289.1267,1289.626,1289.8771,1293.6776,space,3.785,,1293.6777,16,86,1294.677,1294.677,1294.7019,,,,0,34,34,34,1,145,75,,,,,,,,
,,6167d73838d5341dfd542437,65af52f04aa07d90bbee3c8f,2024-01-23_07h48.56.674,bars,2023.2.3,Linux x86_64,59.63384817,657b66ea316d21385b68909f,,,,,,,,,,,1294.7025,1295.7002,,,1296.2,1296.4492,,9,9,,,,,,,,,,,,,,,,bars/031.png,bars/mask002.png,,,,,,,,,,,,0,2,,,,,,,0,2,1,1,,,,,,,,,,,1295.7002,1296.1998,1296.4493,1303.7048,space,7.245,,1303.7048,69,26,1304.7068,1304.7069,1304.7291,,,,0,35,35,35,1,120,35,,,,,,,,
,,6167d73838d5341dfd542437,65af52f04aa07d90bbee3c8f,2024-01-23_07h48.56.674,bars,2023.2.3,Linux x86_64,59.63384817,657b66ea316d21385b68909f,,,,,,,,,,,1304.7296,1305.7239,,,1306.2142,1306.4581,,150,150,,,,,,,,,,,,,,,,bars/039.png,bars/mask006.png,,,,,,,,,,,,0,1,,,,,,,0,0,0,0,,,,,,,,,,,1305.724,1306.2141,1306.4581,1309.4912,space,3.0026,,1309.4912,25,45,1310.481,1310.481,1310.4974,,,,0,36,36,36,1,175,105,,,,,,,,
,,6167d73838d5341dfd542437,65af52f04aa07d90bbee3c8f,2024-01-23_07h48.56.674,bars,2023.2.3,Linux x86_64,59.63384817,657b66ea316d21385b68909f,,,,,,,,,,,1310.4978,1311.4915,,,1311.9916,1312.2475,,76,76,,,,,,,,,,,,,,,,bars/009.png,bars/mask006.png,,,,,,,,,,,,0,2,,,,,,,0,0,0,0,,,,,,,,,,,1311.4916,1311.9916,1312.2475,1316.2063,space,3.9494,,1316.2064,61,29,1317.2051,1317.2052,1317.2319,,,,0,37,37,37,1,15,105,,,,,,,,
,,6167d73838d5341dfd542437,65af52f04aa07d90bbee3c8f,2024-01-23_07h48.56.674,bars,2023.2.3,Linux x86_64,59.63384817,657b66ea316d21385b68909f,,,,,,,,,,,1317.2328,1318.2234,,,1318.7225,1318.9726,,138,138,,,,,,,,,,,,,,,,bars/025.png,bars/mask001.png,,,,,,,,,,,,0,1,,,,,,,0,0,0,1,,,,,,,,,,,1318.2234,1318.7225,1318.9726,1322.4648,space,3.4849,,1322.4649,33,82,1323.4599,1323.4599,1323.4818,,,,0,38,38,38,1,105,40,,,,,,,,
,,6167d73838d5341dfd542437,65af52f04aa07d90bbee3c8f,2024-01-23_07h48.56.674,bars,2023.2.3,Linux x86_64,59.63384817,657b66ea316d21385b68909f,,,,,,,,,,,1323.4822,1324.483,,,1324.985,1325.2341,,111,111,,,,,,,,,,,,,,,,bars/046.png,bars/mask002.png,,,,,,,,,,,,0,2,,,,,,,2,0,3,0,,,,,,,,,,,1324.4831,1324.985,1325.2341,1326.3197,space,1.0707,,1326.3198,44,26,1327.3119,1327.312,1327.3197,,,,0,39,39,39,1,155,85,,,,,,,,
,,6167d73838d5341dfd542437,65af52f04aa07d90bbee3c8f,2024-01-23_07h48.56.674,bars,2023.2.3,Linux x86_64,59.63384817,657b66ea316d21385b68909f,,,,,,,,,,,1327.3202,1328.3188,,,1328.8196,1329.0684,,123,-57,,,,,,,,,,,,,,,,bars/037.png,bars/mask001.png,,,,,,,,,,,,0,2,,,,,,,4,0,4,1,,,,,,,,,,,1328.3189,1328.8196,1329.0684,1335.233,space,6.1344,,1335.233,27,18,1336.2355,1336.2356,1336.2509,,,,0,40,40,40,1,150,105,,,,,,,,
,,6167d73838d5341dfd542437,65af52f04aa07d90bbee3c8f,2024-01-23_07h48.56.674,bars,2023.2.3,Linux x86_64,59.63384817,657b66ea316d21385b68909f,,,,,,,,,,,1336.2517,1337.2522,,,1337.7527,1338.0023,,0,180,,,,,,,,,,,,,,,,bars/033.png,bars/mask005.png,,,,,,,,,,,,0,2,,,,,,,6,0,4,0,,,,,,,,,,,1337.2524,1337.7526,1338.0023,1341.8757,space,3.8616,,1341.8758,25,25,1342.8659,1342.8659,1342.8856,,,,0,41,41,41,1,25,155,,,,,,,,
,,6167d73838d5341dfd542437,65af52f04aa07d90bbee3c8f,2024-01-23_07h48.56.674,bars,2023.2.3,Linux x86_64,59.63384817,657b66ea316d21385b68909f,,,,,,,,,,,1342.8862,1343.8818,,,1344.3816,1344.6312,,63,63,,,,,,,,,,,,,,,,bars/023.png,bars/mask004.png,,,,,,,,,,,,0,1,,,,,,,4,2,5,2,,,,,,,,,,,1343.8818,1344.3815,1344.6313,1348.9001,space,4.2579,,1348.9001,43,52,1349.9002,1349.9002,1349.9242,,,,0,42,42,42,1,20,115,,,,,,,,
,,6167d73838d5341dfd542437,65af52f04aa07d90bbee3c8f,2024-01-23_07h48.56.674,bars,2023.2.3,Linux x86_64,59.63384817,657b66ea316d21385b68909f,,,,,,,,,,,1349.9246,1350.9163,,,1351.4166,1351.6659,,133,133,,,,,,,,,,,,,,,,bars/036.png,bars/mask002.png,,,,,,,,,,,,4,1,,,,,,,6,0,7,1,,,,,,,,,,,1350.9164,1351.4165,1351.6659,1354.7084,space,3.0284,,1354.7084,12,67,1355.7134,1355.7134,1355.7291,,,,0,43,43,43,1,145,20,,,,,,,,
,,6167d73838d5341dfd542437,65af52f04aa07d90bbee3c8f,2024-01-23_07h48.56.674,bars,2023.2.3,Linux x86_64,59.63384817,657b66ea316d21385b68909f,,,,,,,,,,,1355.7296,1356.7305,,,1357.2313,1357.4816,,148,148,,,,,,,,,,,,,,,,bars/000.png,bars/mask006.png,,,,,,,,,,,,2,2,,,,,,,4,2,6,2,,,,,,,,,,,1356.7306,1357.2312,1357.4817,1361.0651,space,3.568,,1361.0651,72,3,1362.0657,1362.0665,1362.0948,,,,0,44,44,44,1,40,145,,,,,,,,
,,6167d73838d5341dfd542437,65af52f04aa07d90bbee3c8f,2024-01-23_07h48.56.674,bars,2023.2.3,Linux x86_64,59.63384817,657b66ea316d21385b68909f,,,,,,,,,,,1362.0958,1363.0936,,,1363.5923,1363.8425,,110,110,,,,,,,,,,,,,,,,bars/020.png,bars/mask002.png,,,,,,,,,,,,3,1,,,,,,,2,4,3,4,,,,,,,,,,,1363.0937,1363.5923,1363.8425,1367.4137,space,3.5513,,1367.4139,5,60,1368.4133,1368.4134,1368.436,,,,0,45,45,45,1,115,170,,,,,,,,
,,6167d73838d5341dfd542437,65af52f04aa07d90bbee3c8f,2024-01-23_07h48.56.674,bars,2023.2.3,Linux x86_64,59.63384817,657b66ea316d21385b68909f,,,,,,,,,,,1368.4366,1369.4268,,,1369.9271,1370.1768,,31,31,,,,,,,,,,,,,,,,bars/035.png,bars/mask001.png,,,,,,,,,,,,0,2,,,,,,,4,2,4,1,,,,,,,,,,,1369.4268,1369.9271,1370.1771,1375.4085,space,5.218,,1375.4086,36,29,1376.4109,1376.4111,1376.4365,,,,0,46,46,46,1,175,60,,,,,,,,
,,6167d73838d5341dfd542437,65af52f04aa07d90bbee3c8f,2024-01-23_07h48.56.674,bars,2023.2.3,Linux x86_64,59.63384817,657b66ea316d21385b68909f,,,,,,,,,,,1376.4371,1377.4281,,,1377.9286,1378.1731,,133,133,,,,,,,,,,,,,,,,bars/048.png,bars/mask002.png,,,,,,,,,,,,0,2,,,,,,,6,0,6,0,,,,,,,,,,,1377.4282,1377.9286,1378.1733,1381.2338,space,3.0439,,1381.234,83,42,1382.2261,1382.2261,1382.2435,,,,0,47,47,47,1,50,175,,,,,,,,
,,6167d73838d5341dfd542437,65af52f04aa07d90bbee3c8f,2024-01-23_07h48.56.674,bars,2023.2.3,Linux x86_64,59.63384817,657b66ea316d21385b68909f,,,,,,,,,,,1382.244,1383.2355,,,1383.7279,1383.9781,,168,168,,,,,,,,,,,,,,,,bars/017.png,bars/mask007.png,,,,,,,,,,,,1,1,,,,,,,4,2,5,2,,,,,,,,,,,1383.2355,1383.7279,1383.9781,1387.642,space,3.6516,,1387.642,23,57,1388.6402,1388.6402,1388.6673,,,,0,48,48,48,1,145,45,,,,,,,,
,,6167d73838d5341dfd542437,65af52f04aa07d90bbee3c8f,2024-01-23_07h48.56.674,bars,2023.2.3,Linux x86_64,59.63384817,657b66ea316d21385b68909f,,,,,,,,,,,1388.6678,1389.658,,,1390.1587,1390.4081,,56,56,,,,,,,,,,,,,,,,bars/003.png,bars/mask001.png,,,,,,,,,,,,0,1,,,,,,,2,4,4,3,,,,,,,,,,,1389.658,1390.1585,1390.4082,1395.6112,space,5.1874,,1395.6113,31,84,1396.6085,1396.6087,1396.6298,,,,0,49,49,49,1,25,140,,,,,,,,
,,6167d73838d5341dfd542437,65af52f04aa07d90bbee3c8f,2024-01-23_07h48.56.674,bars,2023.2.3,Linux x86_64,59.63384817,657b66ea316d21385b68909f,,,,,,,,,,,,,,,,,,,,,,,,,,,,,,,,,,,,,,,,,,,,,,,,,,,,,,,,,,,,,,,,,,,,,,,,,,,,,,,,,,,,,,,,,,,,,1396.63,1456.628,0,1,1,0,1,sequence_tables/blk015.csv
,,6167d73838d5341dfd542437,65af52f04aa07d90bbee3c8f,2024-01-23_07h48.56.674,bars,2023.2.3,Linux x86_64,59.63384817,657b66ea316d21385b68909f,,,,,,,,,,,1544.2249,1545.2139,,,1545.7141,1545.9544,,13,13,,,,,,,,,,,,,,,,bars/025.png,bars/mask008.png,,,,,,,,,,,,1,2,,,,,,,5,7,6,8,,,,,,1456.6447,1544.1976,space,87.539,,1545.2139,1545.7139,1545.9545,1562.8116,space,16.8517,,1562.8117,88,27,1563.8103,1563.8104,1563.834,,,,0,0,0,0,1,105,40,,,,,,,,
,,6167d73838d5341dfd542437,65af52f04aa07d90bbee3c8f,2024-01-23_07h48.56.674,bars,2023.2.3,Linux x86_64,59.63384817,657b66ea316d21385b68909f,,,,,,,,,,,1563.8345,1564.8273,,,1565.3264,1565.5654,,34,34,,,,,,,,,,,,,,,,bars/007.png,bars/mask000.png,,,,,,,,,,,,2,2,,,,,,,7,9,5,8,,,,,,,,,,,1564.8273,1565.3264,1565.5655,1576.0263,space,10.4519,,1576.0274,39,21,1577.0246,1577.0248,1577.0426,,,,0,1,1,1,1,175,55,,,,,,,,
,,6167d73838d5341dfd542437,65af52f04aa07d90bbee3c8f,2024-01-23_07h48.56.674,bars,2023.2.3,Linux x86_64,59.63384817,657b66ea316d21385b68909f,,,,,,,,,,,1577.0436,1578.0417,,,1578.5415,1578.7911,,37,37,,,,,,,,,,,,,,,,bars/010.png,bars/mask001.png,,,,,,,,,,,,4,2,,,,,,,5,10,4,10,,,,,,,,,,,1578.0418,1578.5415,1578.7911,1585.6728,space,6.8709,,1585.6728,52,18,1586.6725,1586.6725,1586.7017,,,,0,2,2,2,1,165,55,,,,,,,,
,,6167d73838d5341dfd542437,65af52f04aa07d90bbee3c8f,2024-01-23_07h48.56.674,bars,2023.2.3,Linux x86_64,59.63384817,657b66ea316d21385b68909f,,,,,,,,,,,1586.7023,1587.7047,,,1588.2058,1588.4551,,85,85,,,,,,,,,,,,,,,,bars/019.png,bars/mask006.png,,,,,,,,,,,,3,2,,,,,,,3,10,2,9,,,,,,,,,,,1587.7047,1588.2056,1588.4552,1591.3862,space,2.9231,,1591.3862,40,20,1592.3814,1592.3814,1592.3981,,,,0,3,3,3,1,45,105,,,,,,,,
,,6167d73838d5341dfd542437,65af52f04aa07d90bbee3c8f,2024-01-23_07h48.56.674,bars,2023.2.3,Linux x86_64,59.63384817,657b66ea316d21385b68909f,,,,,,,,,,,1592.3985,1593.3945,,,1593.8943,1594.1486,,138,138,,,,,,,,,,,,,,,,bars/039.png,bars/mask007.png,,,,,,,,,,,,0,2,,,,,,,1,10,0,10,,,,,,,,,,,1593.3945,1593.8943,1594.1486,1597.453,space,3.2893,,1597.4531,37,33,1598.4536,1598.4537,1598.4763,,,,0,4,4,4,1,175,105,,,,,,,,
,,6167d73838d5341dfd542437,65af52f04aa07d90bbee3c8f,2024-01-23_07h48.56.674,bars,2023.2.3,Linux x86_64,59.63384817,657b66ea316d21385b68909f,,,,,,,,,,,1598.4768,1599.4714,,,1599.9764,1600.2196,,139,139,,,,,,,,,,,,,,,,bars/049.png,bars/mask004.png,,,,,,,,,,,,0,1,,,,,,,0,10,1,10,,,,,,,,,,,1599.4714,1599.9763,1600.2196,1603.7665,space,3.5373,,1603.7666,21,24,1604.767,1604.767,1604.7892,,,,0,5,5,5,1,160,115,,,,,,,,
,,6167d73838d5341dfd542437,65af52f04aa07d90bbee3c8f,2024-01-23_07h48.56.674,bars,2023.2.3,Linux x86_64,59.63384817,657b66ea316d21385b68909f,,,,,,,,,,,1604.7897,1605.7853,,,1606.2829,1606.533,,60,60,,,,,,,,,,,,,,,,bars/032.png,bars/mask009.png,,,,,,,,,,,,0,2,,,,,,,2,8,1,10,,,,,,,,,,,1605.7854,1606.2829,1606.5331,1611.1184,space,4.5662,,1611.1184,65,40,1612.1182,1612.1183,1612.1403,,,,0,6,6,6,1,125,20,,,,,,,,
,,6167d73838d5341dfd542437,65af52f04aa07d90bbee3c8f,2024-01-23_07h48.56.674,bars,2023.2.3,Linux x86_64,59.63384817,657b66ea316d21385b68909f,,,,,,,,,,,1612.1409,1613.1291,,,1613.6298,1613.8793,,112,112,,,,,,,,,,,,,,,,bars/036.png,bars/mask004.png,,,,,,,,,,,,0,1,,,,,,,0,6,0,5,,,,,,,,,,,1613.1291,1613.6296,1613.8793,1618.5156,space,4.6184,,1618.5158,33,88,1619.5164,1619.5165,1619.5435,,,,0,7,7,7,1,145,20,,,,,,,,
,,6167d73838d5341dfd542437,65af52f04aa07d90bbee3c8f,2024-01-23_07h48.56.674,bars,2023.2.3,Linux x86_64,59.63384817,657b66ea316d21385b68909f,,,,,,,,,,,1619.544,1620.5329,,,1621.0337,1621.2821,,73,73,,,,,,,,,,,,,,,,bars/016.png,bars/mask009.png,,,,,,,,,,,,0,1,,,,,,,0,8,1,7,,,,,,,,,,,1620.5329,1621.0336,1621.2821,1624.213,space,2.9228,,1624.2131,33,88,1625.2128,1625.2128,1625.2349,,,,0,8,8,8,1,40,165,,,,,,,,
,,6167d73838d5341dfd542437,65af52f04aa07d90bbee3c8f,2024-01-23_07h48.56.674,bars,2023.2.3,Linux x86_64,59.63384817,657b66ea316d21385b68909f,,,,,,,,,,,1625.2355,1626.235,,,1626.7326,1626.9744,,164,-16,,,,,,,,,,,,,,,,bars/045.png,bars/mask003.png,,,,,,,,,,,,1,2,,,,,,,0,6,0,5,,,,,,,,,,,1626.2351,1626.7326,1626.9745,1630.2331,space,3.2495,,1630.2331,64,26,1631.2322,1631.2322,1631.2484,,,,0,9,9,9,1,100,10,,,,,,,,
,,6167d73838d5341dfd542437,65af52f04aa07d90bbee3c8f,2024-01-23_07h48.56.674,bars,2023.2.3,Linux x86_64,59.63384817,657b66ea316d21385b68909f,,,,,,,,,,,1631.2488,1632.2454,,,1632.7466,1632.9972,,57,57,,,,,,,,,,,,,,,,bars/003.png,bars/mask009.png,,,,,,,,,,,,0,1,,,,,,,0,8,1,8,,,,,,,,,,,1632.2454,1632.7465,1632.9974,1635.8826,space,2.8771,,1635.8826,32,83,1636.8795,1636.8795,1636.899,,,,0,10,10,10,1,25,140,,,,,,,,
,,6167d73838d5341dfd542437,65af52f04aa07d90bbee3c8f,2024-01-23_07h48.56.674,bars,2023.2.3,Linux x86_64,59.63384817,657b66ea316d21385b68909f,,,,,,,,,,,1636.8996,1637.8953,,,1638.397,1638.6455,,122,122,,,,,,,,,,,,,,,,bars/013.png,bars/mask009.png,,,,,,,,,,,,0,1,,,,,,,0,10,0,10,,,,,,,,,,,1637.8953,1638.3969,1638.6455,1642.3374,space,3.6853,,1642.3375,47,68,1643.3349,1643.3349,1643.3546,,,,0,11,11,11,1,75,10,,,,,,,,
,,6167d73838d5341dfd542437,65af52f04aa07d90bbee3c8f,2024-01-23_07h48.56.674,bars,2023.2.3,Linux x86_64,59.63384817,657b66ea316d21385b68909f,,,,,,,,,,,1643.3551,1644.3536,,,1644.8578,1645.1078,,51,51,,,,,,,,,,,,,,,,bars/023.png,bars/mask005.png,,,,,,,,,,,,0,1,,,,,,,0,8,0,8,,,,,,,,,,,1644.3538,1644.8578,1645.1078,1648.2087,space,3.0864,,1648.2088,31,64,1649.21,1649.21,1649.2334,,,,0,12,12,12,1,20,115,,,,,,,,
,,6167d73838d5341dfd542437,65af52f04aa07d90bbee3c8f,2024-01-23_07h48.56.674,bars,2023.2.3,Linux x86_64,59.63384817,657b66ea316d21385b68909f,,,,,,,,,,,1649.234,1650.2283,,,1650.7277,1650.9661,,158,158,,,,,,,,,,,,,,,,bars/023.png,bars/mask009.png,,,,,,,,,,,,0,1,,,,,,,2,6,2,5,,,,,,,,,,,1650.2283,1650.7277,1650.9661,1655.6436,space,4.6646,,1655.6437,42,43,1656.6426,1656.6426,1656.6648,,,,0,13,13,13,1,20,115,,,,,,,,
,,6167d73838d5341dfd542437,65af52f04aa07d90bbee3c8f,2024-01-23_07h48.56.674,bars,2023.2.3,Linux x86_64,59.63384817,657b66ea316d21385b68909f,,,,,,,,,,,1656.6655,1657.6583,,,1658.1602,1658.399,,41,41,,,,,,,,,,,,,,,,bars/036.png,bars/mask009.png,,,,,,,,,,,,2,2,,,,,,,0,8,1,8,,,,,,,,,,,1657.6583,1658.1601,1658.3991,1661.2094,space,2.7982,,1661.2098,76,21,1662.2084,1662.2085,1662.2266,,,,0,14,14,14,1,145,20,,,,,,,,
,,6167d73838d5341dfd542437,65af52f04aa07d90bbee3c8f,2024-01-23_07h48.56.674,bars,2023.2.3,Linux x86_64,59.63384817,657b66ea316d21385b68909f,,,,,,,,,,,1662.2271,1663.2225,,,1663.7228,1663.9719,,110,110,,,,,,,,,,,,,,,,bars/013.png,bars/mask002.png,,,,,,,,,,,,0,1,,,,,,,2,10,0,10,,,,,,,,,,,1663.2225,1663.7226,1663.9719,1666.8405,space,2.8578,,1666.8405,35,80,1667.839,1667.839,1667.8626,,,,0,15,15,15,1,75,10,,,,,,,,
,,6167d73838d5341dfd542437,65af52f04aa07d90bbee3c8f,2024-01-23_07h48.56.674,bars,2023.2.3,Linux x86_64,59.63384817,657b66ea316d21385b68909f,,,,,,,,,,,1667.863,1668.8552,,,1669.3544,1669.6042,,134,134,,,,,,,,,,,,,,,,bars/012.png,bars/mask004.png,,,,,,,,,,,,0,1,,,,,,,4,10,2,10,,,,,,,,,,,1668.8552,1669.3544,1669.6043,1670.4383,space,0.8202,,1670.4383,44,61,1671.4411,1671.4411,1671.4436,,,,0,16,16,16,1,90,15,,,,,,,,
,,6167d73838d5341dfd542437,65af52f04aa07d90bbee3c8f,2024-01-23_07h48.56.674,bars,2023.2.3,Linux x86_64,59.63384817,657b66ea316d21385b68909f,,,,,,,,,,,1671.4454,1672.4409,,,1672.9395,1673.1896,,91,91,,,,,,,,,,,,,,,,bars/037.png,bars/mask001.png,,,,,,,,,,,,5,2,,,,,,,2,8,2,9,,,,,,,,,,,1672.441,1672.9395,1673.1896,1676.7572,space,3.5507,,1676.7574,59,14,1677.757,1677.7571,1677.7804,,,,0,17,17,17,1,150,105,,,,,,,,
,,6167d73838d5341dfd542437,65af52f04aa07d90bbee3c8f,2024-01-23_07h48.56.674,bars,2023.2.3,Linux x86_64,59.63384817,657b66ea316d21385b68909f,,,,,,,,,,,1677.7809,1678.7733,,,1679.2724,1679.522,,74,74,,,,,,,,,,,,,,,,bars/037.png,bars/mask004.png,,,,,,,,,,,,0,2,,,,,,,0,6,0,7,,,,,,,,,,,1678.7734,1679.2724,1679.522,1682.8369,space,3.3006,,1682.837,76,31,1683.8372,1683.8372,1683.8659,,,,0,18,18,18,1,150,105,,,,,,,,
,,6167d73838d5341dfd542437,65af52f04aa07d90bbee3c8f,2024-01-23_07h48.56.674,bars,2023.2.3,Linux x86_64,59.63384817,657b66ea316d21385b68909f,,,,,,,,,,,1683.8665,1684.8711,,,1685.372,1685.6215,,92,92,,,,,,,,,,,,,,,,bars/046.png,bars/mask009.png,,,,,,,,,,,,2,2,,,,,,,0,4,2,3,,,,,,,,,,,1684.8711,1685.3719,1685.6215,1689.1374,space,3.5031,,1689.1375,63,7,1690.1374,1690.1374,1690.1646,,,,0,19,19,19,1,155,85,,,,,,,,
,,6167d73838d5341dfd542437,65af52f04aa07d90bbee3c8f,2024-01-23_07h48.56.674,bars,2023.2.3,Linux x86_64,59.63384817,657b66ea316d21385b68909f,,,,,,,,,,,1690.1652,1691.1683,,,1691.6692,1691.9209,,122,122,,,,,,,,,,,,,,,,bars/019.png,bars/mask005.png,,,,,,,,,,,,0,2,,,,,,,2,2,1,1,,,,,,,,,,,1691.1684,1691.6691,1691.921,1695.0013,space,3.0662,,1695.0014,77,17,1696.0018,1696.0018,1696.0236,,,,0,20,20,20,1,45,105,,,,,,,,
,,6167d73838d5341dfd542437,65af52f04aa07d90bbee3c8f,2024-01-23_07h48.56.674,bars,2023.2.3,Linux x86_64,59.63384817,657b66ea316d21385b68909f,,,,,,,,,,,1696.024,1697.0162,,,1697.5176,1697.7686,,124,124,,,,,,,,,,,,,,,,bars/027.png,bars/mask006.png,,,,,,,,,,,,2,1,,,,,,,4,0,4,0,,,,,,,,,,,1697.0162,1697.5169,1697.7687,1701.2208,space,3.4436,,1701.2211,14,74,1702.2095,1702.2096,1702.2356,,,,0,21,21,21,1,110,50,,,,,,,,
,,6167d73838d5341dfd542437,65af52f04aa07d90bbee3c8f,2024-01-23_07h48.56.674,bars,2023.2.3,Linux x86_64,59.63384817,657b66ea316d21385b68909f,,,,,,,,,,,1702.2362,1703.2275,,,1703.7114,1703.9637,,141,141,,,,,,,,,,,,,,,,bars/035.png,bars/mask009.png,,,,,,,,,,,,0,1,,,,,,,2,0,3,0,,,,,,,,,,,1703.2276,1703.7113,1703.9637,1709.6106,space,5.6354,,1709.6107,34,81,1710.6118,1710.6118,1710.6301,,,,0,22,22,22,1,175,60,,,,,,,,
,,6167d73838d5341dfd542437,65af52f04aa07d90bbee3c8f,2024-01-23_07h48.56.674,bars,2023.2.3,Linux x86_64,59.63384817,657b66ea316d21385b68909f,,,,,,,,,,,1710.6307,1711.6302,,,1712.1308,1712.3774,,146,146,,,,,,,,,,,,,,,,bars/013.png,bars/mask008.png,,,,,,,,,,,,0,2,,,,,,,0,0,1,0,,,,,,,,,,,1711.6302,1712.1306,1712.3775,1716.8295,space,4.4311,,1716.8295,71,44,1717.8054,1717.8095,1717.8504,,,,0,23,23,23,1,75,10,,,,,,,,
,,6167d73838d5341dfd542437,65af52f04aa07d90bbee3c8f,2024-01-23_07h48.56.674,bars,2023.2.3,Linux x86_64,59.63384817,657b66ea316d21385b68909f,,,,,,,,,,,1717.851,1718.8482,,,1719.3461,1719.5943,,1,181,,,,,,,,,,,,,,,,bars/026.png,bars/mask009.png,,,,,,,,,,,,0,1,,,,,,,2,2,2,1,,,,,,,,,,,1718.8483,1719.3461,1719.5943,1724.3362,space,4.7267,,1724.3362,34,84,1725.3246,1725.3246,1725.3429,,,,0,24,24,24,1,35,85,,,,,,,,
,,6167d73838d5341dfd542437,65af52f04aa07d90bbee3c8f,2024-01-23_07h48.56.674,bars,2023.2.3,Linux x86_64,59.63384817,657b66ea316d21385b68909f,,,,,,,,,,,1725.3441,1726.3426,,,1726.8436,1727.0922,,96,96,,,,,,,,,,,,,,,,bars/006.png,bars/mask000.png,,,,,,,,,,,,0,2,,,,,,,0,0,0,0,,,,,,,,,,,1726.3427,1726.8436,1727.0922,1730.5086,space,3.4001,,1730.5087,61,4,1731.5054,1731.5054,1731.524,,,,0,25,25,25,1,35,100,,,,,,,,
,,6167d73838d5341dfd542437,65af52f04aa07d90bbee3c8f,2024-01-23_07h48.56.674,bars,2023.2.3,Linux x86_64,59.63384817,657b66ea316d21385b68909f,,,,,,,,,,,1731.5244,1732.5196,,,1733.0178,1733.2709,,22,22,,,,,,,,,,,,,,,,bars/018.png,bars/mask002.png,,,,,,,,,,,,0,1,,,,,,,0,0,0,0,,,,,,,,,,,1732.5197,1733.0178,1733.2709,1736.4929,space,3.2099,,1736.493,52,68,1737.4931,1737.4931,1737.5167,,,,0,26,26,26,1,150,90,,,,,,,,
,,6167d73838d5341dfd542437,65af52f04aa07d90bbee3c8f,2024-01-23_07h48.56.674,bars,2023.2.3,Linux x86_64,59.63384817,657b66ea316d21385b68909f,,,,,,,,,,,1737.5172,1738.5115,,,1739.0106,1739.2618,,80,80,,,,,,,,,,,,,,,,bars/009.png,bars/mask006.png,,,,,,,,,,,,0,2,,,,,,,2,0,2,1,,,,,,,,,,,1738.5115,1739.0106,1739.2619,1742.4834,space,3.2046,,1742.4835,65,25,1743.4773,1743.4774,1743.5,,,,0,27,27,27,1,15,105,,,,,,,,
,,6167d73838d5341dfd542437,65af52f04aa07d90bbee3c8f,2024-01-23_07h48.56.674,bars,2023.2.3,Linux x86_64,59.63384817,657b66ea316d21385b68909f,,,,,,,,,,,1743.5004,1744.4936,,,1744.9865,1745.2392,,66,66,,,,,,,,,,,,,,,,bars/016.png,bars/mask006.png,,,,,,,,,,,,0,1,,,,,,,0,2,2,2,,,,,,,,,,,1744.4936,1744.9864,1745.2393,1749.7551,space,4.4991,,1749.7551,26,81,1750.7574,1750.7575,1750.781,,,,0,28,28,28,1,40,165,,,,,,,,
,,6167d73838d5341dfd542437,65af52f04aa07d90bbee3c8f,2024-01-23_07h48.56.674,bars,2023.2.3,Linux x86_64,59.63384817,657b66ea316d21385b68909f,,,,,,,,,,,1750.7814,1751.7744,,,1752.2735,1752.5325,,73,73,,,,,,,,,,,,,,,,bars/039.png,bars/mask007.png,,,,,,,,,,,,0,2,,,,,,,2,0,1,0,,,,,,,,,,,1751.7744,1752.2735,1752.5326,1756.8872,space,4.3391,,1756.8872,78,32,1757.8977,1757.8979,1757.9281,,,,0,29,29,29,1,175,105,,,,,,,,
,,6167d73838d5341dfd542437,65af52f04aa07d90bbee3c8f,2024-01-23_07h48.56.674,bars,2023.2.3,Linux x86_64,59.63384817,657b66ea316d21385b68909f,,,,,,,,,,,1757.9286,1758.9252,,,1759.4247,1759.6748,,123,-57,,,,,,,,,,,,,,,,bars/024.png,bars/mask006.png,,,,,,,,,,,,1,1,,,,,,,0,2,1,3,,,,,,,,,,,1758.9254,1759.4246,1759.6748,1763.8267,space,4.1435,,1763.8267,3,47,1764.8237,1764.8237,1764.8432,,,,0,30,30,30,1,120,170,,,,,,,,
,,6167d73838d5341dfd542437,65af52f04aa07d90bbee3c8f,2024-01-23_07h48.56.674,bars,2023.2.3,Linux x86_64,59.63384817,657b66ea316d21385b68909f,,,,,,,,,,,1764.8436,1765.8399,,,1766.339,1766.5895,,21,21,,,,,,,,,,,,,,,,bars/035.png,bars/mask000.png,,,,,,,,,,,,0,1,,,,,,,0,0,0,1,,,,,,,,,,,1765.84,1766.339,1766.5896,1769.9399,space,3.3232,,1769.9399,26,39,1770.9389,1770.9389,1770.9611,,,,0,31,31,31,1,175,60,,,,,,,,
,,6167d73838d5341dfd542437,65af52f04aa07d90bbee3c8f,2024-01-23_07h48.56.674,bars,2023.2.3,Linux x86_64,59.63384817,657b66ea316d21385b68909f,,,,,,,,,,,1770.9615,1771.9537,,,1772.4528,1772.6997,,177,177,,,,,,,,,,,,,,,,bars/012.png,bars/mask005.png,,,,,,,,,,,,1,2,,,,,,,2,2,2,2,,,,,,,,,,,1771.9538,1772.4526,1772.6998,1776.6019,space,3.8869,,1776.6019,87,18,1777.6019,1777.602,1777.6184,,,,0,32,32,32,1,90,15,,,,,,,,
,,6167d73838d5341dfd542437,65af52f04aa07d90bbee3c8f,2024-01-23_07h48.56.674,bars,2023.2.3,Linux x86_64,59.63384817,657b66ea316d21385b68909f,,,,,,,,,,,1777.6191,1778.6194,,,1779.1211,1779.3708,,107,-73,,,,,,,,,,,,,,,,bars/004.png,bars/mask003.png,,,,,,,,,,,,2,2,,,,,,,4,4,4,6,,,,,,,,,,,1778.6195,1779.121,1779.3709,1785.7328,space,6.347,,1785.7329,82,18,1786.7347,1786.7349,1786.758,,,,0,33,33,33,1,25,125,,,,,,,,
,,6167d73838d5341dfd542437,65af52f04aa07d90bbee3c8f,2024-01-23_07h48.56.674,bars,2023.2.3,Linux x86_64,59.63384817,657b66ea316d21385b68909f,,,,,,,,,,,1786.7585,1787.7519,,,1788.2513,1788.5022,,166,166,,,,,,,,,,,,,,,,bars/025.png,bars/mask006.png,,,,,,,,,,,,0,2,,,,,,,6,2,7,2,,,,,,,,,,,1787.752,1788.2512,1788.5022,1794.1602,space,5.6405,,1794.1602,61,54,1795.1629,1795.163,1795.1775,,,,0,34,34,34,1,105,40,,,,,,,,
,,6167d73838d5341dfd542437,65af52f04aa07d90bbee3c8f,2024-01-23_07h48.56.674,bars,2023.2.3,Linux x86_64,59.63384817,657b66ea316d21385b68909f,,,,,,,,,,,1795.1783,1796.1737,,,1796.6626,1796.9125,,24,24,,,,,,,,,,,,,,,,bars/035.png,bars/mask002.png,,,,,,,,,,,,0,1,,,,,,,4,4,4,4,,,,,,,,,,,1796.1737,1796.6626,1796.9126,1801.5132,space,4.5848,,1801.5132,29,36,1802.5135,1802.5136,1802.535,,,,0,35,35,35,1,175,60,,,,,,,,
,,6167d73838d5341dfd542437,65af52f04aa07d90bbee3c8f,2024-01-23_07h48.56.674,bars,2023.2.3,Linux x86_64,59.63384817,657b66ea316d21385b68909f,,,,,,,,,,,1802.5355,1803.5316,,,1804.0406,1804.2808,,178,-2,,,,,,,,,,,,,,,,bars/012.png,bars/mask009.png,,,,,,,,,,,,2,2,,,,,,,2,6,3,5,,,,,,,,,,,1803.5318,1804.0405,1804.2809,1807.33,space,3.0387,,1807.33,88,17,1808.3282,1808.3283,1808.3458,,,,0,36,36,36,1,90,15,,,,,,,,
,,6167d73838d5341dfd542437,65af52f04aa07d90bbee3c8f,2024-01-23_07h48.56.674,bars,2023.2.3,Linux x86_64,59.63384817,657b66ea316d21385b68909f,,,,,,,,,,,1808.3462,1809.3475,,,1809.8488,1810.0984,,26,26,,,,,,,,,,,,,,,,bars/026.png,bars/mask000.png,,,,,,,,,,,,3,1,,,,,,,4,8,4,7,,,,,,,,,,,1809.3475,1809.8487,1810.0984,1814.2405,space,4.1321,,1814.2405,9,59,1815.244,1815.244,1815.2704,,,,0,37,37,37,1,35,85,,,,,,,,
,,6167d73838d5341dfd542437,65af52f04aa07d90bbee3c8f,2024-01-23_07h48.56.674,bars,2023.2.3,Linux x86_64,59.63384817,657b66ea316d21385b68909f,,,,,,,,,,,1815.2709,1816.2644,,,1816.7618,1817.0108,,62,62,,,,,,,,,,,,,,,,bars/033.png,bars/mask006.png,,,,,,,,,,,,0,1,,,,,,,6,10,7,10,,,,,,,,,,,1816.2645,1816.7618,1817.0109,1820.1444,space,3.1224,,1820.1446,37,87,1821.1362,1821.1362,1821.1516,,,,0,38,38,38,1,25,155,,,,,,,,
,,6167d73838d5341dfd542437,65af52f04aa07d90bbee3c8f,2024-01-23_07h48.56.674,bars,2023.2.3,Linux x86_64,59.63384817,657b66ea316d21385b68909f,,,,,,,,,,,1821.152,1822.1437,,,1822.6401,1822.8848,,76,76,,,,,,,,,,,,,,,,bars/015.png,bars/mask005.png,,,,,,,,,,,,0,1,,,,,,,8,8,8,8,,,,,,,,,,,1822.1437,1822.64,1822.885,1826.0275,space,3.1342,,1826.0276,34,84,1827.0194,1827.0194,1827.0475,,,,0,39,39,39,1,110,160,,,,,,,,
,,6167d73838d5341dfd542437,65af52f04aa07d90bbee3c8f,2024-01-23_07h48.56.674,bars,2023.2.3,Linux x86_64,59.63384817,657b66ea316d21385b68909f,,,,,,,,,,,1827.0483,1828.044,,,1828.5429,1828.793,,116,116,,,,,,,,,,,,,,,,bars/023.png,bars/mask006.png,,,,,,,,,,,,5,2,,,,,,,10,6,10,5,,,,,,,,,,,1828.044,1828.5428,1828.793,1832.7589,space,3.9554,,1832.759,84,1,1833.7507,1833.7507,1833.7765,,,,0,40,40,40,1,20,115,,,,,,,,
,,6167d73838d5341dfd542437,65af52f04aa07d90bbee3c8f,2024-01-23_07h48.56.674,bars,2023.2.3,Linux x86_64,59.63384817,657b66ea316d21385b68909f,,,,,,,,,,,1833.7771,1834.7747,,,1835.2761,1835.5262,,98,98,,,,,,,,,,,,,,,,bars/005.png,bars/mask003.png,,,,,,,,,,,,0,2,,,,,,,8,8,7,7,,,,,,,,,,,1834.7749,1835.2761,1835.5262,1838.4242,space,2.8863,,1838.4242,88,42,1839.4258,1839.4258,1839.448,,,,0,41,41,41,1,10,140,,,,,,,,
,,6167d73838d5341dfd542437,65af52f04aa07d90bbee3c8f,2024-01-23_07h48.56.674,bars,2023.2.3,Linux x86_64,59.63384817,657b66ea316d21385b68909f,,,,,,,,,,,1839.4486,1840.4418,,,1840.9409,1841.1925,,5,185,,,,,,,,,,,,,,,,bars/016.png,bars/mask002.png,,,,,,,,,,,,3,2,,,,,,,10,10,10,10,,,,,,,,,,,1840.4418,1840.9409,1841.1926,1844.4418,space,3.2343,,1844.4419,35,20,1845.4414,1845.4415,1845.4692,,,,0,42,42,42,1,40,165,,,,,,,,
,,6167d73838d5341dfd542437,65af52f04aa07d90bbee3c8f,2024-01-23_07h48.56.674,bars,2023.2.3,Linux x86_64,59.63384817,657b66ea316d21385b68909f,,,,,,,,,,,1845.4698,1846.4584,,,1846.965,1847.2087,,163,163,,,,,,,,,,,,,,,,bars/008.png,bars/mask005.png,,,,,,,,,,,,4,2,,,,,,,10,10,9,10,,,,,,,,,,,1846.4584,1846.965,1847.2087,1850.5244,space,3.3005,,1850.5245,53,17,1851.5237,1851.5237,1851.5385,,,,0,43,43,43,1,110,0,,,,,,,,
,,6167d73838d5341dfd542437,65af52f04aa07d90bbee3c8f,2024-01-23_07h48.56.674,bars,2023.2.3,Linux x86_64,59.63384817,657b66ea316d21385b68909f,,,,,,,,,,,1851.5395,1852.534,,,1853.0334,1853.2836,,23,23,,,,,,,,,,,,,,,,bars/035.png,bars/mask000.png,,,,,,,,,,,,1,1,,,,,,,10,10,10,10,,,,,,,,,,,1852.534,1853.0333,1853.2837,1856.3549,space,3.0584,,1856.355,28,37,1857.3551,1857.3551,1857.3724,,,,0,44,44,44,1,175,60,,,,,,,,
,,6167d73838d5341dfd542437,65af52f04aa07d90bbee3c8f,2024-01-23_07h48.56.674,bars,2023.2.3,Linux x86_64,59.63384817,657b66ea316d21385b68909f,,,,,,,,,,,1857.3728,1858.3714,,,1858.8712,1859.1217,,117,117,,,,,,,,,,,,,,,,bars/048.png,bars/mask006.png,,,,,,,,,,,,0,2,,,,,,,10,8,10,6,,,,,,,,,,,1858.3714,1858.8712,1859.1217,1862.3696,space,3.236,,1862.3698,67,58,1863.3693,1863.3693,1863.3887,,,,0,45,45,45,1,50,175,,,,,,,,
,,6167d73838d5341dfd542437,65af52f04aa07d90bbee3c8f,2024-01-23_07h48.56.674,bars,2023.2.3,Linux x86_64,59.63384817,657b66ea316d21385b68909f,,,,,,,,,,,1863.3893,1864.3873,,,1864.8881,1865.137,,65,65,,,,,,,,,,,,,,,,bars/000.png,bars/mask001.png,,,,,,,,,,,,1,1,,,,,,,8,6,6,6,,,,,,,,,,,1864.3873,1864.888,1865.137,1868.2636,space,3.1162,,1868.264,25,80,1869.2665,1869.2665,1869.2921,,,,0,46,46,46,1,40,145,,,,,,,,
,,6167d73838d5341dfd542437,65af52f04aa07d90bbee3c8f,2024-01-23_07h48.56.674,bars,2023.2.3,Linux x86_64,59.63384817,657b66ea316d21385b68909f,,,,,,,,,,,1869.2925,1870.2853,,,1870.787,1871.0358,,122,122,,,,,,,,,,,,,,,,bars/005.png,bars/mask002.png,,,,,,,,,,,,2,2,,,,,,,10,4,10,4,,,,,,,,,,,1870.2853,1870.787,1871.0359,1874.1163,space,3.0654,,1874.1163,68,18,1875.1183,1875.1183,1875.1424,,,,0,47,47,47,1,10,140,,,,,,,,
,,6167d73838d5341dfd542437,65af52f04aa07d90bbee3c8f,2024-01-23_07h48.56.674,bars,2023.2.3,Linux x86_64,59.63384817,657b66ea316d21385b68909f,,,,,,,,,,,1875.1431,1876.1343,,,1876.6357,1876.8851,,130,130,,,,,,,,,,,,,,,,bars/003.png,bars/mask006.png,,,,,,,,,,,,1,2,,,,,,,8,2,7,2,,,,,,,,,,,1876.1343,1876.6357,1876.8851,1882.5962,space,5.7024,,1882.5963,75,10,1883.5948,1883.595,1883.6117,,,,0,48,48,48,1,25,140,,,,,,,,
,,6167d73838d5341dfd542437,65af52f04aa07d90bbee3c8f,2024-01-23_07h48.56.674,bars,2023.2.3,Linux x86_64,59.63384817,657b66ea316d21385b68909f,,,,,,,,,,,1883.6121,1884.6138,,,1885.1164,1885.3654,,39,39,,,,,,,,,,,,,,,,bars/024.png,bars/mask002.png,,,,,,,,,,,,0,2,,,,,,,10,0,10,0,,,,,,,,,,,1884.6138,1885.1162,1885.3654,1889.2842,space,3.912,,1889.2842,81,49,1890.2846,1890.2846,1890.3011,,,,0,49,49,49,1,120,170,,,,,,,,
,,6167d73838d5341dfd542437,65af52f04aa07d90bbee3c8f,2024-01-23_07h48.56.674,bars,2023.2.3,Linux x86_64,59.63384817,657b66ea316d21385b68909f,,,,,,,,,,,,,,,,,,,,,,,,,,,,,,,,,,,,,,,,,,,,,,,,,,,,,,,,,,,,,,,,,,,,,,,,,,,,,,,,,,,,,,,,,,,,,1890.3011,1950.2899,0,2,2,4,1,sequence_tables/blk002.csv
,,6167d73838d5341dfd542437,65af52f04aa07d90bbee3c8f,2024-01-23_07h48.56.674,bars,2023.2.3,Linux x86_64,59.63384817,657b66ea316d21385b68909f,,,,,,,,,,,1951.88,1952.8806,,,1953.3845,1953.6304,,87,87,,,,,,,,,,,,,,,,bars/012.png,bars/mask009.png,,,,,,,,,,,,2,1,,,,,,,3,3,2,3,,,,,,1950.3115,1951.873,space,1.5502,,1952.8806,1953.3845,1953.6305,1958.1715,space,4.5196,,1958.1716,3,72,1959.1692,1959.1692,1959.1879,,,,0,0,0,0,1,90,15,,,,,,,,
,,6167d73838d5341dfd542437,65af52f04aa07d90bbee3c8f,2024-01-23_07h48.56.674,bars,2023.2.3,Linux x86_64,59.63384817,657b66ea316d21385b68909f,,,,,,,,,,,1959.1883,1960.19,,,1960.6856,1960.9356,,74,74,,,,,,,,,,,,,,,,bars/018.png,bars/mask005.png,,,,,,,,,,,,1,2,,,,,,,1,1,1,2,,,,,,,,,,,1960.1901,1960.6855,1960.9357,1961.7673,space,0.8182,,1961.7674,76,16,1962.7674,1962.7674,1962.7712,,,,0,1,1,1,1,150,90,,,,,,,,
,,6167d73838d5341dfd542437,65af52f04aa07d90bbee3c8f,2024-01-23_07h48.56.674,bars,2023.2.3,Linux x86_64,59.63384817,657b66ea316d21385b68909f,,,,,,,,,,,1962.7716,1963.7689,,,1964.2694,1964.5198,,169,-11,,,,,,,,,,,,,,,,bars/048.png,bars/mask004.png,,,,,,,,,,,,0,2,,,,,,,3,0,4,0,,,,,,,,,,,1963.7689,1964.2694,1964.5199,1967.304,space,2.7723,,1967.304,61,6,1968.3028,1968.3029,1968.3248,,,,0,2,2,2,1,50,175,,,,,,,,
,,6167d73838d5341dfd542437,65af52f04aa07d90bbee3c8f,2024-01-23_07h48.56.674,bars,2023.2.3,Linux x86_64,59.63384817,657b66ea316d21385b68909f,,,,,,,,,,,1968.3253,1969.3154,,,1969.8169,1970.0662,,74,74,,,,,,,,,,,,,,,,bars/014.png,bars/mask009.png,,,,,,,,,,,,0,1,,,,,,,1,2,0,4,,,,,,,,,,,1969.3155,1969.8168,1970.0662,1973.8995,space,3.8187,,1973.8995,6,74,1974.8989,1974.8989,1974.9195,,,,0,3,3,3,1,80,0,,,,,,,,
,,6167d73838d5341dfd542437,65af52f04aa07d90bbee3c8f,2024-01-23_07h48.56.674,bars,2023.2.3,Linux x86_64,59.63384817,657b66ea316d21385b68909f,,,,,,,,,,,1974.9203,1975.9161,,,1976.4167,1976.6677,,73,73,,,,,,,,,,,,,,,,bars/015.png,bars/mask002.png,,,,,,,,,,,,0,1,,,,,,,3,4,4,4,,,,,,,,,,,1975.9162,1976.4166,1976.6678,1979.9836,space,3.3035,,1979.9837,37,87,1980.9844,1980.9846,1981.0083,,,,0,4,4,4,1,110,160,,,,,,,,
,,6167d73838d5341dfd542437,65af52f04aa07d90bbee3c8f,2024-01-23_07h48.56.674,bars,2023.2.3,Linux x86_64,59.63384817,657b66ea316d21385b68909f,,,,,,,,,,,1981.0088,1982.0002,,,1982.4979,1982.7485,,131,131,,,,,,,,,,,,,,,,bars/025.png,bars/mask006.png,,,,,,,,,,,,0,1,,,,,,,1,6,2,6,,,,,,,,,,,1982.0003,1982.4978,1982.7485,1985.3838,space,2.6187,,1985.3839,26,89,1986.3818,1986.3818,1986.3836,,,,0,5,5,5,1,105,40,,,,,,,,
,,6167d73838d5341dfd542437,65af52f04aa07d90bbee3c8f,2024-01-23_07h48.56.674,bars,2023.2.3,Linux x86_64,59.63384817,657b66ea316d21385b68909f,,,,,,,,,,,1986.3844,1987.3818,,,1987.8821,1988.1319,,60,240,,,,,,,,,,,,,,,,bars/039.png,bars/mask007.png,,,,,,,,,,,,0,2,,,,,,,0,8,0,6,,,,,,,,,,,1987.3819,1987.8819,1988.1319,1994.2936,space,6.1535,,1994.2938,65,45,1995.2885,1995.2885,1995.317,,,,0,6,6,6,1,175,105,,,,,,,,
,,6167d73838d5341dfd542437,65af52f04aa07d90bbee3c8f,2024-01-23_07h48.56.674,bars,2023.2.3,Linux x86_64,59.63384817,657b66ea316d21385b68909f,,,,,,,,,,,1995.3176,1996.3151,,,1996.8124,1997.0624,,52,52,,,,,,,,,,,,,,,,bars/000.png,bars/mask001.png,,,,,,,,,,,,0,1,,,,,,,0,6,0,6,,,,,,,,,,,1996.3151,1996.8123,1997.0624,2000.1308,space,3.0548,,2000.1308,12,87,2001.1266,2001.1268,2001.1438,,,,0,7,7,7,1,40,145,,,,,,,,
,,6167d73838d5341dfd542437,65af52f04aa07d90bbee3c8f,2024-01-23_07h48.56.674,bars,2023.2.3,Linux x86_64,59.63384817,657b66ea316d21385b68909f,,,,,,,,,,,2001.1443,2002.1435,,,2002.6435,2002.8933,,134,134,,,,,,,,,,,,,,,,bars/040.png,bars/mask003.png,,,,,,,,,,,,1,1,,,,,,,2,4,1,4,,,,,,,,,,,2002.1436,2002.6434,2002.8933,2007.7444,space,4.8348,,2007.7444,6,51,2008.7449,2008.7449,2008.7689,,,,0,8,8,8,1,140,5,,,,,,,,
,,6167d73838d5341dfd542437,65af52f04aa07d90bbee3c8f,2024-01-23_07h48.56.674,bars,2023.2.3,Linux x86_64,59.63384817,657b66ea316d21385b68909f,,,,,,,,,,,2008.7693,2009.7599,,,2010.2604,2010.5114,,51,51,,,,,,,,,,,,,,,,bars/030.png,bars/mask005.png,,,,,,,,,,,,3,2,,,,,,,4,6,3,6,,,,,,,,,,,2009.76,2010.2604,2010.5115,2014.0745,space,3.5494,,2014.0745,89,14,2015.0755,2015.0756,2015.097,,,,0,9,9,9,1,140,65,,,,,,,,
,,6167d73838d5341dfd542437,65af52f04aa07d90bbee3c8f,2024-01-23_07h48.56.674,bars,2023.2.3,Linux x86_64,59.63384817,657b66ea316d21385b68909f,,,,,,,,,,,2015.0981,2016.0927,,,2016.5918,2016.8431,,61,61,,,,,,,,,,,,,,,,bars/022.png,bars/mask000.png,,,,,,,,,,,,0,1,,,,,,,6,8,7,9,,,,,,,,,,,2016.0927,2016.5918,2016.8431,2020.5957,space,3.7354,,2020.5959,34,41,2021.5939,2021.5939,2021.6176,,,,0,10,10,10,1,95,20,,,,,,,,
,,6167d73838d5341dfd542437,65af52f04aa07d90bbee3c8f,2024-01-23_07h48.56.674,bars,2023.2.3,Linux x86_64,59.63384817,657b66ea316d21385b68909f,,,,,,,,,,,2021.6182,2022.6096,,,2023.1096,2023.3595,,91,91,,,,,,,,,,,,,,,,bars/011.png,bars/mask005.png,,,,,,,,,,,,4,2,,,,,,,4,6,4,5,,,,,,,,,,,2022.6096,2023.1095,2023.3597,2026.2289,space,2.8531,,2026.2291,69,6,2027.2249,2027.2249,2027.2455,,,,0,11,11,11,1,160,85,,,,,,,,
,,6167d73838d5341dfd542437,65af52f04aa07d90bbee3c8f,2024-01-23_07h48.56.674,bars,2023.2.3,Linux x86_64,59.63384817,657b66ea316d21385b68909f,,,,,,,,,,,2027.246,2028.2415,,,2028.7432,2028.9911,,17,17,,,,,,,,,,,,,,,,bars/029.png,bars/mask001.png,,,,,,,,,,,,1,2,,,,,,,2,8,2,9,,,,,,,,,,,2028.2416,2028.7432,2028.9911,2032.175,space,3.1689,,2032.1756,73,28,2033.1723,2033.1723,2033.1925,,,,0,12,12,12,1,90,45,,,,,,,,
,,6167d73838d5341dfd542437,65af52f04aa07d90bbee3c8f,2024-01-23_07h48.56.674,bars,2023.2.3,Linux x86_64,59.63384817,657b66ea316d21385b68909f,,,,,,,,,,,2033.1934,2034.1889,,,2034.6884,2034.9391,,36,36,,,,,,,,,,,,,,,,bars/007.png,bars/mask000.png,,,,,,,,,,,,3,2,,,,,,,0,10,1,9,,,,,,,,,,,2034.189,2034.6884,2034.9391,2038.7734,space,3.8177,,2038.7734,41,19,2039.7727,2039.7727,2039.8,,,,0,13,13,13,1,175,55,,,,,,,,
,,6167d73838d5341dfd542437,65af52f04aa07d90bbee3c8f,2024-01-23_07h48.56.674,bars,2023.2.3,Linux x86_64,59.63384817,657b66ea316d21385b68909f,,,,,,,,,,,2039.8005,2040.7893,,,2041.282,2041.5222,,26,26,,,,,,,,,,,,,,,,bars/005.png,bars/mask001.png,,,,,,,,,,,,0,1,,,,,,,2,10,1,10,,,,,,,,,,,2040.7893,2041.2819,2041.5223,2049.1358,space,7.603,,2049.1359,16,66,2050.1355,2050.1356,2050.1565,,,,0,14,14,14,1,10,140,,,,,,,,
,,6167d73838d5341dfd542437,65af52f04aa07d90bbee3c8f,2024-01-23_07h48.56.674,bars,2023.2.3,Linux x86_64,59.63384817,657b66ea316d21385b68909f,,,,,,,,,,,2050.157,2051.1538,,,2051.6438,2051.8858,,124,124,,,,,,,,,,,,,,,,bars/025.png,bars/mask009.png,,,,,,,,,,,,0,1,,,,,,,0,8,0,8,,,,,,,,,,,2051.1538,2051.6438,2051.8858,2054.5347,space,2.634,,2054.5347,19,84,2055.535,2055.5351,2055.5526,,,,0,15,15,15,1,105,40,,,,,,,,
,,6167d73838d5341dfd542437,65af52f04aa07d90bbee3c8f,2024-01-23_07h48.56.674,bars,2023.2.3,Linux x86_64,59.63384817,657b66ea316d21385b68909f,,,,,,,,,,,2055.5532,2056.5517,,,2057.0524,2057.3024,,142,142,,,,,,,,,,,,,,,,bars/024.png,bars/mask005.png,,,,,,,,,,,,0,1,,,,,,,0,10,1,8,,,,,,,,,,,2056.5517,2057.0524,2057.3025,2061.9852,space,4.6748,,2061.9853,22,28,2062.9772,2062.9772,2062.998,,,,0,16,16,16,1,120,170,,,,,,,,
,,6167d73838d5341dfd542437,65af52f04aa07d90bbee3c8f,2024-01-23_07h48.56.674,bars,2023.2.3,Linux x86_64,59.63384817,657b66ea316d21385b68909f,,,,,,,,,,,2062.9985,2064.0008,,,2064.5,2064.7514,,92,92,,,,,,,,,,,,,,,,bars/040.png,bars/mask000.png,,,,,,,,,,,,0,1,,,,,,,0,10,0,9,,,,,,,,,,,2064.0008,2064.5,2064.7515,2068.7816,space,4.0167,,2068.7816,48,87,2069.7829,2069.783,2069.805,,,,0,17,17,17,1,140,5,,,,,,,,
,,6167d73838d5341dfd542437,65af52f04aa07d90bbee3c8f,2024-01-23_07h48.56.674,bars,2023.2.3,Linux x86_64,59.63384817,657b66ea316d21385b68909f,,,,,,,,,,,2069.8056,2070.8001,,,2071.2997,2071.5505,,45,45,,,,,,,,,,,,,,,,bars/018.png,bars/mask003.png,,,,,,,,,,,,0,2,,,,,,,2,10,2,10,,,,,,,,,,,2070.8002,2071.2997,2071.5505,2075.0952,space,3.5287,,2075.0952,75,45,2076.0966,2076.0966,2076.1142,,,,0,18,18,18,1,150,90,,,,,,,,
,,6167d73838d5341dfd542437,65af52f04aa07d90bbee3c8f,2024-01-23_07h48.56.674,bars,2023.2.3,Linux x86_64,59.63384817,657b66ea316d21385b68909f,,,,,,,,,,,2076.1146,2077.1138,,,2077.6151,2077.8644,,72,252,,,,,,,,,,,,,,,,bars/027.png,bars/mask001.png,,,,,,,,,,,,2,2,,,,,,,4,8,5,8,,,,,,,,,,,2077.1138,2077.6149,2077.8645,2083.099,space,5.2197,,2083.099,38,22,2084.0952,2084.0952,2084.1194,,,,0,19,19,19,1,110,50,,,,,,,,
,,6167d73838d5341dfd542437,65af52f04aa07d90bbee3c8f,2024-01-23_07h48.56.674,bars,2023.2.3,Linux x86_64,59.63384817,657b66ea316d21385b68909f,,,,,,,,,,,2084.1199,2085.1146,,,2085.6147,2085.8624,,52,52,,,,,,,,,,,,,,,,bars/042.png,bars/mask007.png,,,,,,,,,,,,2,2,,,,,,,6,10,7,10,,,,,,,,,,,2085.1148,2085.6145,2085.8625,2089.0985,space,3.2171,,2089.0985,87,23,2090.0938,2090.0938,2090.1099,,,,0,20,20,20,1,145,75,,,,,,,,
,,6167d73838d5341dfd542437,65af52f04aa07d90bbee3c8f,2024-01-23_07h48.56.674,bars,2023.2.3,Linux x86_64,59.63384817,657b66ea316d21385b68909f,,,,,,,,,,,2090.1108,2091.1127,,,2091.6117,2091.8618,,146,-34,,,,,,,,,,,,,,,,bars/041.png,bars/mask000.png,,,,,,,,,,,,0,1,,,,,,,8,8,7,7,,,,,,,,,,,2091.1127,2091.6116,2091.8619,2095.5286,space,3.6523,,2095.5288,54,61,2096.5287,2096.5287,2096.5532,,,,0,21,21,21,1,20,85,,,,,,,,
,,6167d73838d5341dfd542437,65af52f04aa07d90bbee3c8f,2024-01-23_07h48.56.674,bars,2023.2.3,Linux x86_64,59.63384817,657b66ea316d21385b68909f,,,,,,,,,,,2096.5538,2097.544,,,2098.044,2098.2819,,163,163,,,,,,,,,,,,,,,,bars/012.png,bars/mask003.png,,,,,,,,,,,,0,2,,,,,,,6,10,6,10,,,,,,,,,,,2097.544,2098.044,2098.2819,2101.4443,space,3.1535,,2101.4444,73,32,2102.4405,2102.4405,2102.4653,,,,0,22,22,22,1,90,15,,,,,,,,
,,6167d73838d5341dfd542437,65af52f04aa07d90bbee3c8f,2024-01-23_07h48.56.674,bars,2023.2.3,Linux x86_64,59.63384817,657b66ea316d21385b68909f,,,,,,,,,,,2102.4658,2103.4573,,,2103.9574,2104.2066,,41,41,,,,,,,,,,,,,,,,bars/019.png,bars/mask006.png,,,,,,,,,,,,3,1,,,,,,,4,8,3,7,,,,,,,,,,,2103.4573,2103.9574,2104.2066,2108.1932,space,3.9701,,2108.1932,4,64,2109.1923,2109.1924,2109.2183,,,,0,23,23,23,1,45,105,,,,,,,,
,,6167d73838d5341dfd542437,65af52f04aa07d90bbee3c8f,2024-01-23_07h48.56.674,bars,2023.2.3,Linux x86_64,59.63384817,657b66ea316d21385b68909f,,,,,,,,,,,2109.2189,2110.2101,,,2110.7097,2110.9596,,50,50,,,,,,,,,,,,,,,,bars/035.png,bars/mask001.png,,,,,,,,,,,,7,2,,,,,,,6,10,6,10,,,,,,,,,,,2110.2102,2110.7096,2110.9597,2114.9928,space,4.0202,,2114.9928,55,10,2115.9923,2115.9925,2116.0174,,,,0,24,24,24,1,175,60,,,,,,,,
,,6167d73838d5341dfd542437,65af52f04aa07d90bbee3c8f,2024-01-23_07h48.56.674,bars,2023.2.3,Linux x86_64,59.63384817,657b66ea316d21385b68909f,,,,,,,,,,,2116.0178,2117.0089,,,2117.5088,2117.7589,,65,245,,,,,,,,,,,,,,,,bars/044.png,bars/mask009.png,,,,,,,,,,,,5,1,,,,,,,8,10,8,9,,,,,,,,,,,2117.0091,2117.5087,2117.759,2122.5576,space,4.7859,,2122.5576,10,90,2123.558,2123.5582,2123.5848,,,,0,25,25,25,1,75,155,,,,,,,,
,,6167d73838d5341dfd542437,65af52f04aa07d90bbee3c8f,2024-01-23_07h48.56.674,bars,2023.2.3,Linux x86_64,59.63384817,657b66ea316d21385b68909f,,,,,,,,,,,2123.5853,2124.5879,,,2125.0897,2125.3476,,132,132,,,,,,,,,,,,,,,,bars/024.png,bars/mask003.png,,,,,,,,,,,,6,1,,,,,,,10,8,10,8,,,,,,,,,,,2124.588,2125.0896,2125.3477,2130.5564,space,5.1932,,2130.5565,12,38,2131.5557,2131.5558,2131.5803,,,,0,26,26,26,1,120,170,,,,,,,,
,,6167d73838d5341dfd542437,65af52f04aa07d90bbee3c8f,2024-01-23_07h48.56.674,bars,2023.2.3,Linux x86_64,59.63384817,657b66ea316d21385b68909f,,,,,,,,,,,2131.5807,2132.5715,,,2133.0717,2133.3228,,3,3,,,,,,,,,,,,,,,,bars/031.png,bars/mask004.png,,,,,,,,,,,,0,2,,,,,,,10,10,10,10,,,,,,,,,,,2132.5715,2133.0717,2133.3229,2136.8728,space,3.5352,,2136.8729,63,32,2137.8689,2137.8689,2137.8861,,,,0,27,27,27,1,120,35,,,,,,,,
,,6167d73838d5341dfd542437,65af52f04aa07d90bbee3c8f,2024-01-23_07h48.56.674,bars,2023.2.3,Linux x86_64,59.63384817,657b66ea316d21385b68909f,,,,,,,,,,,2137.8865,2138.8863,,,2139.3835,2139.6336,,103,103,,,,,,,,,,,,,,,,bars/042.png,bars/mask007.png,,,,,,,,,,,,1,2,,,,,,,8,10,8,10,,,,,,,,,,,2138.8863,2139.3834,2139.6336,2142.7673,space,3.1211,,2142.7674,42,28,2143.7585,2143.7585,2143.774,,,,0,28,28,28,1,145,75,,,,,,,,
,,6167d73838d5341dfd542437,65af52f04aa07d90bbee3c8f,2024-01-23_07h48.56.674,bars,2023.2.3,Linux x86_64,59.63384817,657b66ea316d21385b68909f,,,,,,,,,,,2143.775,2144.7775,,,2145.2825,2145.5275,,131,131,,,,,,,,,,,,,,,,bars/001.png,bars/mask005.png,,,,,,,,,,,,9,1,,,,,,,10,8,9,9,,,,,,,,,,,2144.7775,2145.2824,2145.5276,2149.9357,space,4.3955,,2149.9359,1,46,2150.9358,2150.9358,2150.9529,,,,0,29,29,29,1,130,85,,,,,,,,
,,6167d73838d5341dfd542437,65af52f04aa07d90bbee3c8f,2024-01-23_07h48.56.674,bars,2023.2.3,Linux x86_64,59.63384817,657b66ea316d21385b68909f,,,,,,,,,,,2150.9533,2151.9518,,,2152.4443,2152.6935,,116,116,,,,,,,,,,,,,,,,bars/023.png,bars/mask005.png,,,,,,,,,,,,10,2,,,,,,,8,10,7,10,,,,,,,,,,,2151.9519,2152.4443,2152.6936,2156.9153,space,4.196,,2156.9154,84,1,2157.9083,2157.9083,2157.9339,,,,0,30,30,30,1,20,115,,,,,,,,
,,6167d73838d5341dfd542437,65af52f04aa07d90bbee3c8f,2024-01-23_07h48.56.674,bars,2023.2.3,Linux x86_64,59.63384817,657b66ea316d21385b68909f,,,,,,,,,,,2157.9343,2158.9312,,,2159.433,2159.6828,,94,94,,,,,,,,,,,,,,,,bars/022.png,bars/mask000.png,,,,,,,,,,,,5,1,,,,,,,6,10,5,10,,,,,,,,,,,2158.9312,2159.433,2159.6829,2163.2416,space,3.5489,,2163.2417,1,74,2164.2411,2164.2411,2164.2629,,,,0,31,31,31,1,95,20,,,,,,,,
,,6167d73838d5341dfd542437,65af52f04aa07d90bbee3c8f,2024-01-23_07h48.56.674,bars,2023.2.3,Linux x86_64,59.63384817,657b66ea316d21385b68909f,,,,,,,,,,,2164.2633,2165.2622,,,2165.7639,2166.0144,,117,117,,,,,,,,,,,,,,,,bars/049.png,bars/mask003.png,,,,,,,,,,,,8,2,,,,,,,4,10,1,9,,,,,,,,,,,2165.2623,2165.7639,2166.0144,2169.25,space,3.2273,,2169.2503,43,2,2170.248,2170.248,2170.2708,,,,0,32,32,32,1,160,115,,,,,,,,
,,6167d73838d5341dfd542437,65af52f04aa07d90bbee3c8f,2024-01-23_07h48.56.674,bars,2023.2.3,Linux x86_64,59.63384817,657b66ea316d21385b68909f,,,,,,,,,,,2170.2712,2171.2662,,,2171.7634,2172.0106,,134,134,,,,,,,,,,,,,,,,bars/012.png,bars/mask008.png,,,,,,,,,,,,0,1,,,,,,,2,8,2,8,,,,,,,,,,,2171.2663,2171.7633,2172.0106,2175.8295,space,3.8018,,2175.8295,44,61,2176.8273,2176.8273,2176.8494,,,,0,33,33,33,1,90,15,,,,,,,,
,,6167d73838d5341dfd542437,65af52f04aa07d90bbee3c8f,2024-01-23_07h48.56.674,bars,2023.2.3,Linux x86_64,59.63384817,657b66ea316d21385b68909f,,,,,,,,,,,2176.85,2177.8473,,,2178.3473,2178.5967,,65,245,,,,,,,,,,,,,,,,bars/026.png,bars/mask009.png,,,,,,,,,,,,3,2,,,,,,,4,6,5,8,,,,,,,,,,,2177.8474,2178.3473,2178.5967,2183.4254,space,4.8198,,2183.4254,30,20,2184.425,2184.425,2184.4417,,,,0,34,34,34,1,35,85,,,,,,,,
,,6167d73838d5341dfd542437,65af52f04aa07d90bbee3c8f,2024-01-23_07h48.56.674,bars,2023.2.3,Linux x86_64,59.63384817,657b66ea316d21385b68909f,,,,,,,,,,,2184.4422,2185.4437,,,2185.9504,2186.1954,,63,243,,,,,,,,,,,,,,,,bars/043.png,bars/mask007.png,,,,,,,,,,,,0,1,,,,,,,6,8,5,9,,,,,,,,,,,2185.4437,2185.9504,2186.1955,2191.2674,space,5.0645,,2191.2675,33,67,2192.287,2192.287,2192.3038,,,,0,35,35,35,1,30,130,,,,,,,,
,,6167d73838d5341dfd542437,65af52f04aa07d90bbee3c8f,2024-01-23_07h48.56.674,bars,2023.2.3,Linux x86_64,59.63384817,657b66ea316d21385b68909f,,,,,,,,,,,2192.3042,2193.2926,,,2193.794,2194.043,,72,72,,,,,,,,,,,,,,,,bars/042.png,bars/mask006.png,,,,,,,,,,,,8,2,,,,,,,8,10,9,9,,,,,,,,,,,2193.2926,2193.7938,2194.0431,2200.4766,space,6.4218,,2200.4767,73,3,2201.4725,2201.4725,2201.4913,,,,0,36,36,36,1,145,75,,,,,,,,
,,6167d73838d5341dfd542437,65af52f04aa07d90bbee3c8f,2024-01-23_07h48.56.674,bars,2023.2.3,Linux x86_64,59.63384817,657b66ea316d21385b68909f,,,,,,,,,,,2201.4917,2202.4892,,,2202.9926,2203.2412,,116,116,,,,,,,,,,,,,,,,bars/003.png,bars/mask007.png,,,,,,,,,,,,2,2,,,,,,,10,8,9,9,,,,,,,,,,,2202.4892,2202.9925,2203.2413,2206.4585,space,3.2012,,2206.4586,89,24,2207.4481,2207.4483,2207.4651,,,,0,37,37,37,1,25,140,,,,,,,,
,,6167d73838d5341dfd542437,65af52f04aa07d90bbee3c8f,2024-01-23_07h48.56.674,bars,2023.2.3,Linux x86_64,59.63384817,657b66ea316d21385b68909f,,,,,,,,,,,2207.4656,2208.4571,,,2208.9473,2209.1917,,41,41,,,,,,,,,,,,,,,,bars/026.png,bars/mask005.png,,,,,,,,,,,,8,1,,,,,,,10,10,10,10,,,,,,,,,,,2208.4571,2208.9472,2209.1917,2213.8095,space,4.594,,2213.8096,6,44,2214.8067,2214.8068,2214.8331,,,,0,38,38,38,1,35,85,,,,,,,,
,,6167d73838d5341dfd542437,65af52f04aa07d90bbee3c8f,2024-01-23_07h48.56.674,bars,2023.2.3,Linux x86_64,59.63384817,657b66ea316d21385b68909f,,,,,,,,,,,2214.8337,2215.8222,,,2216.3182,2216.5803,,16,16,,,,,,,,,,,,,,,,bars/047.png,bars/mask009.png,,,,,,,,,,,,10,1,,,,,,,10,10,10,10,,,,,,,,,,,2215.8223,2216.3182,2216.5803,2221.004,space,4.4126,,2221.004,1,54,2222.0026,2222.0026,2222.023,,,,0,39,39,39,1,15,70,,,,,,,,
,,6167d73838d5341dfd542437,65af52f04aa07d90bbee3c8f,2024-01-23_07h48.56.674,bars,2023.2.3,Linux x86_64,59.63384817,657b66ea316d21385b68909f,,,,,,,,,,,2222.0235,2223.0201,,,2223.5196,2223.77,,70,70,,,,,,,,,,,,,,,,bars/048.png,bars/mask001.png,,,,,,,,,,,,2,1,,,,,,,8,8,7,7,,,,,,,,,,,2223.0202,2223.5195,2223.77,2227.9734,space,4.1847,,2227.9735,20,75,2228.9673,2228.9675,2228.9886,,,,0,40,40,40,1,50,175,,,,,,,,
,,6167d73838d5341dfd542437,65af52f04aa07d90bbee3c8f,2024-01-23_07h48.56.674,bars,2023.2.3,Linux x86_64,59.63384817,657b66ea316d21385b68909f,,,,,,,,,,,2228.9892,2229.9849,,,2230.4853,2230.7358,,113,113,,,,,,,,,,,,,,,,bars/000.png,bars/mask007.png,,,,,,,,,,,,0,2,,,,,,,10,6,10,7,,,,,,,,,,,2229.9849,2230.4853,2230.7359,2234.0532,space,3.301,,2234.0533,73,32,2235.0537,2235.0538,2235.0747,,,,0,41,41,41,1,40,145,,,,,,,,
,,6167d73838d5341dfd542437,65af52f04aa07d90bbee3c8f,2024-01-23_07h48.56.674,bars,2023.2.3,Linux x86_64,59.63384817,657b66ea316d21385b68909f,,,,,,,,,,,2235.0751,2236.0684,,,2236.5604,2236.8021,,30,30,,,,,,,,,,,,,,,,bars/049.png,bars/mask006.png,,,,,,,,,,,,0,1,,,,,,,10,4,10,4,,,,,,,,,,,2236.0684,2236.5603,2236.8021,2239.8206,space,3.0015,,2239.8207,50,85,2240.8254,2240.8254,2240.8428,,,,0,42,42,42,1,160,115,,,,,,,,
,,6167d73838d5341dfd542437,65af52f04aa07d90bbee3c8f,2024-01-23_07h48.56.674,bars,2023.2.3,Linux x86_64,59.63384817,657b66ea316d21385b68909f,,,,,,,,,,,2240.8433,2241.8349,,,2242.3363,2242.5843,,19,19,,,,,,,,,,,,,,,,bars/010.png,bars/mask008.png,,,,,,,,,,,,0,1,,,,,,,8,6,7,7,,,,,,,,,,,2241.835,2242.3363,2242.5844,2247.9805,space,5.3798,,2247.9805,34,36,2248.9821,2248.9821,2248.9982,,,,0,43,43,43,1,165,55,,,,,,,,
,,6167d73838d5341dfd542437,65af52f04aa07d90bbee3c8f,2024-01-23_07h48.56.674,bars,2023.2.3,Linux x86_64,59.63384817,657b66ea316d21385b68909f,,,,,,,,,,,2248.9987,2249.9981,,,2250.4987,2250.7493,,66,246,,,,,,,,,,,,,,,,bars/005.png,bars/mask004.png,,,,,,,,,,,,0,1,,,,,,,10,8,10,9,,,,,,,,,,,2249.9981,2250.4987,2250.7494,2256.0152,space,5.258,,2256.0153,56,74,2257.0126,2257.0127,2257.0348,,,,0,44,44,44,1,10,140,,,,,,,,
,,6167d73838d5341dfd542437,65af52f04aa07d90bbee3c8f,2024-01-23_07h48.56.674,bars,2023.2.3,Linux x86_64,59.63384817,657b66ea316d21385b68909f,,,,,,,,,,,2257.0353,2258.0304,,,2258.5305,2258.7806,,86,86,,,,,,,,,,,,,,,,bars/013.png,bars/mask001.png,,,,,,,,,,,,6,1,,,,,,,10,10,10,10,,,,,,,,,,,2258.0304,2258.5305,2258.7807,2263.5972,space,4.8077,,2263.5972,11,76,2264.5969,2264.5969,2264.6182,,,,0,45,45,45,1,75,10,,,,,,,,
,,6167d73838d5341dfd542437,65af52f04aa07d90bbee3c8f,2024-01-23_07h48.56.674,bars,2023.2.3,Linux x86_64,59.63384817,657b66ea316d21385b68909f,,,,,,,,,,,2264.6188,2265.6156,,,2266.1141,2266.3585,,124,124,,,,,,,,,,,,,,,,bars/004.png,bars/mask009.png,,,,,,,,,,,,8,2,,,,,,,8,8,7,8,,,,,,,,,,,2265.6156,2266.114,2266.3585,2269.3782,space,3.0026,,2269.3789,81,1,2270.3787,2270.3788,2270.402,,,,0,46,46,46,1,25,125,,,,,,,,
,,6167d73838d5341dfd542437,65af52f04aa07d90bbee3c8f,2024-01-23_07h48.56.674,bars,2023.2.3,Linux x86_64,59.63384817,657b66ea316d21385b68909f,,,,,,,,,,,2270.4026,2271.3955,,,2271.8941,2272.1443,,104,104,,,,,,,,,,,,,,,,bars/022.png,bars/mask007.png,,,,,,,,,,,,7,1,,,,,,,10,10,10,10,,,,,,,,,,,2271.3955,2271.8941,2272.1443,2275.5103,space,3.3519,,2275.5104,9,84,2276.5091,2276.5091,2276.5313,,,,0,47,47,47,1,95,20,,,,,,,,
,,6167d73838d5341dfd542437,65af52f04aa07d90bbee3c8f,2024-01-23_07h48.56.674,bars,2023.2.3,Linux x86_64,59.63384817,657b66ea316d21385b68909f,,,,,,,,,,,2276.5318,2277.5274,,,2278.0274,2278.2775,,91,91,,,,,,,,,,,,,,,,bars/008.png,bars/mask009.png,,,,,,,,,,,,3,1,,,,,,,8,8,8,8,,,,,,,,,,,2277.5279,2278.0271,2278.2775,2282.0755,space,3.7892,,2282.0755,19,89,2283.0689,2283.0689,2283.0953,,,,0,48,48,48,1,110,0,,,,,,,,
,,6167d73838d5341dfd542437,65af52f04aa07d90bbee3c8f,2024-01-23_07h48.56.674,bars,2023.2.3,Linux x86_64,59.63384817,657b66ea316d21385b68909f,,,,,,,,,,,2283.0958,2284.0846,,,2284.5729,2284.8228,,127,127,,,,,,,,,,,,,,,,bars/008.png,bars/mask004.png,,,,,,,,,,,,4,1,,,,,,,10,6,10,6,,,,,,,,,,,2284.0847,2284.5729,2284.8229,2289.7597,space,4.9212,,2289.7598,17,53,2290.7584,2290.7585,2290.7723,,,,0,49,49,49,1,110,0,,,,,,,,
,,6167d73838d5341dfd542437,65af52f04aa07d90bbee3c8f,2024-01-23_07h48.56.674,bars,2023.2.3,Linux x86_64,59.63384817,657b66ea316d21385b68909f,,,,,,,,,,,,,,,,,,,,,,,,,,,,,,,,,,,,,,,,,,,,,,,,,,,,,,,,,,,,,,,,,,,,,,,,,,,,,,,,,,,,,,,,,,,,,2290.7724,2350.7646,0,3,3,1,1,sequence_tables/blk029.csv
,,6167d73838d5341dfd542437,65af52f04aa07d90bbee3c8f,2024-01-23_07h48.56.674,bars,2023.2.3,Linux x86_64,59.63384817,657b66ea316d21385b68909f,,,,,,,,,,,2352.858,2353.8475,,,2354.3568,2354.5966,,56,56,,,,,,,,,,,,,,,,bars/002.png,bars/mask008.png,,,,,,,,,,,,0,2,,,,,,,4,1,3,0,,,,,,2350.7887,2352.8469,space,2.0522,,2353.8477,2354.3567,2354.5968,2359.6624,space,5.0512,,2359.6625,74,29,2360.661,2360.661,2360.6871,,,,0,0,0,0,1,130,85,,,,,,,,
,,6167d73838d5341dfd542437,65af52f04aa07d90bbee3c8f,2024-01-23_07h48.56.674,bars,2023.2.3,Linux x86_64,59.63384817,657b66ea316d21385b68909f,,,,,,,,,,,2360.6878,2361.6783,,,2362.1777,2362.4183,,37,37,,,,,,,,,,,,,,,,bars/034.png,bars/mask002.png,,,,,,,,,,,,0,2,,,,,,,6,0,5,0,,,,,,,,,,,2361.6784,2362.1775,2362.4184,2365.9783,space,3.545,,2365.9784,88,28,2366.9768,2366.9769,2367.0022,,,,0,1,1,1,1,125,65,,,,,,,,
,,6167d73838d5341dfd542437,65af52f04aa07d90bbee3c8f,2024-01-23_07h48.56.674,bars,2023.2.3,Linux x86_64,59.63384817,657b66ea316d21385b68909f,,,,,,,,,,,2367.0026,2367.994,,,2368.4926,2368.7439,,148,148,,,,,,,,,,,,,,,,bars/007.png,bars/mask004.png,,,,,,,,,,,,0,1,,,,,,,4,0,4,3,,,,,,,,,,,2367.994,2368.4925,2368.7441,2373.2928,space,4.5362,,2373.2928,27,87,2374.295,2374.2951,2374.3172,,,,0,2,2,2,1,175,55,,,,,,,,
,,6167d73838d5341dfd542437,65af52f04aa07d90bbee3c8f,2024-01-23_07h48.56.674,bars,2023.2.3,Linux x86_64,59.63384817,657b66ea316d21385b68909f,,,,,,,,,,,2374.3177,2375.3104,,,2375.819,2376.0604,,41,41,,,,,,,,,,,,,,,,bars/030.png,bars/mask009.png,,,,,,,,,,,,0,2,,,,,,,2,2,3,1,,,,,,,,,,,2375.3105,2375.8188,2376.0605,2380.2243,space,4.153,,2380.2244,81,24,2381.2235,2381.2237,2381.2457,,,,0,3,3,3,1,140,65,,,,,,,,
,,6167d73838d5341dfd542437,65af52f04aa07d90bbee3c8f,2024-01-23_07h48.56.674,bars,2023.2.3,Linux x86_64,59.63384817,657b66ea316d21385b68909f,,,,,,,,,,,2381.2462,2382.2682,,,2382.753,2383.0034,,99,99,,,,,,,,,,,,,,,,bars/028.png,bars/mask006.png,,,,,,,,,,,,1,2,,,,,,,4,4,4,4,,,,,,,,,,,2382.2683,2382.753,2383.0035,2387.8761,space,4.8565,,2387.8763,54,21,2388.8727,2388.8727,2388.8899,,,,0,4,4,4,1,45,120,,,,,,,,
,,6167d73838d5341dfd542437,65af52f04aa07d90bbee3c8f,2024-01-23_07h48.56.674,bars,2023.2.3,Linux x86_64,59.63384817,657b66ea316d21385b68909f,,,,,,,,,,,2388.8903,2389.8882,,,2390.39,2390.6385,,131,131,,,,,,,,,,,,,,,,bars/009.png,bars/mask004.png,,,,,,,,,,,,1,2,,,,,,,2,6,2,6,,,,,,,,,,,2389.8882,2390.3899,2390.6385,2394.1051,space,3.456,,2394.1051,64,26,2395.1028,2395.1028,2395.1236,,,,0,5,5,5,1,15,105,,,,,,,,
,,6167d73838d5341dfd542437,65af52f04aa07d90bbee3c8f,2024-01-23_07h48.56.674,bars,2023.2.3,Linux x86_64,59.63384817,657b66ea316d21385b68909f,,,,,,,,,,,2395.1241,2396.12,,,2396.6209,2396.8706,,60,60,,,,,,,,,,,,,,,,bars/009.png,bars/mask009.png,,,,,,,,,,,,0,2,,,,,,,4,4,5,4,,,,,,,,,,,2396.1201,2396.6209,2396.8706,2400.3238,space,3.4391,,2400.3239,45,45,2401.3238,2401.3239,2401.3384,,,,0,6,6,6,1,15,105,,,,,,,,
