init_variables.started,init_variables.stopped,participant,session,date,expName,psychopyVersion,OS,frameRate,study_id,instruction_exp.started,instruction_exp.stopped,key_resp_8.keys,key_resp_8.rt,key_resp_8.duration,instruction_single.started,instruction_single.stopped,key_resp_2.keys,key_resp_2.rt,key_resp_2.duration,interval.started,interval.stopped,cue_single.started,cue_single.stopped,mask.started,mask.stopped,ori_response_single.started,res_ori,res,ori_response_single.stopped,key_resp_single.keys,key_resp_single.rt,key_resp_single.duration,disp_single.started,disp_single.stopped,key_resp.keys,key_resp.rt,key_resp.duration,single.thisRepN,single.thisTrialN,single.thisN,single.thisIndex,single.ran,ori,path,mask_path,instruction_bandit.started,instruction_bandit.stopped,key_resp_6.keys,key_resp_6.rt,key_resp_6.duration,cue_bandit.started,cue_bandit.stopped,bandit_res.keys,bandit_res.rt,bandit_res.duration,outcome_bandit.started,rew,action,outcome_bandit.stopped,bandit.thisRepN,bandit.thisTrialN,bandit.thisN,bandit.thisIndex,bandit.ran,actual_rew1,actual_rew2,rew1,rew2,instruction_task.started,instruction_task.stopped,key_resp_7.keys,key_resp_7.rt,key_resp_7.duration,wait_ready.started,wait_ready.stopped,key_resp_3.keys,key_resp_3.rt,key_resp_3.duration,cue.started,cue.stopped,ori_response.started,ori_response.stopped,key_resp_5.keys,key_resp_5.rt,key_resp_5.duration,outcome.started,diff1,diff2,outcome.stopped,disp_outcome_practice.started,disp_outcome_practice.stopped,key_resp_4.keys,key_resp_4.rt,key_resp_4.duration,trials.thisRepN,trials.thisTrialN,trials.thisN,trials.thisIndex,trials.ran,ori1,ori2,break_blk.started,break_blk.stopped,block.thisRepN,block.thisTrialN,block.thisN,block.thisIndex,block.ran,condition_file
0.0008,0.0012,613ee5c73de62443db76d074,65af55f44ec9136d74dc74c3,2024-01-23_08h01.33.738,bars,2023.2.3,Win32,59.52380952,657b66ea316d21385b68909f,,,,,,,,,,,,,,,,,,,,,,,,,,,,,,,,,,,,,,,,,,,,,,,,,,,,,,,,,,,,,,,,,,,,,,,,,,,,,,,,,,,,,,,,,,,,,,,,,,,,
,,613ee5c73de62443db76d074,65af55f44ec9136d74dc74c3,2024-01-23_08h01.33.738,bars,2023.2.3,Win32,59.52380952,657b66ea316d21385b68909f,0.0018,17.0888,y,17.0549,,,,,,,,,,,,,,,,,,,,,,,,,,,,,,,,,,,,,,,,,,,,,,,,,,,,,,,,,,,,,,,,,,,,,,,,,,,,,,,,,,,,,,,,,,,,,,,,
,,613ee5c73de62443db76d074,65af55f44ec9136d74dc74c3,2024-01-23_08h01.33.738,bars,2023.2.3,Win32,59.52380952,657b66ea316d21385b68909f,,,,,,17.0893,57.5725,space,40.4476,,,,,,,,,,,,,,,,,,,,,,,,,,,,,,,,,,,,,,,,,,,,,,,,,,,,,,,,,,,,,,,,,,,,,,,,,,,,,,,,,,,,,,,,,,,
,,613ee5c73de62443db76d074,65af55f44ec9136d74dc74c3,2024-01-23_08h01.33.738,bars,2023.2.3,Win32,59.52380952,657b66ea316d21385b68909f,,,,,,,,,,,57.596,58.574,58.5746,59.0263,59.0266,59.2696,59.2707,49,49,71.3575,space,11.9613,,71.3579,84.6023,space,13.1358,,0,0,0,5,1,55,bars/single005.png,bars/mask008.png,,,,,,,,,,,,,,,,,,,,,,,,,,,,,,,,,,,,,,,,,,,,,,,,,,,,,,,,,,,,,,,,
,,613ee5c73de62443db76d074,65af55f44ec9136d74dc74c3,2024-01-23_08h01.33.738,bars,2023.2.3,Win32,59.52380952,657b66ea316d21385b68909f,,,,,,,,,,,84.6381,85.6114,85.6125,86.1124,86.1126,86.3648,86.365,177,-3,93.0848,space,6.6928,,93.0848,98.9356,space,5.7744,,0,1,1,1,1,20,bars/single001.png,bars/mask006.png,,,,,,,,,,,,,,,,,,,,,,,,,,,,,,,,,,,,,,,,,,,,,,,,,,,,,,,,,,,,,,,,
,,613ee5c73de62443db76d074,65af55f44ec9136d74dc74c3,2024-01-23_08h01.33.738,bars,2023.2.3,Win32,59.52380952,657b66ea316d21385b68909f,,,,,,,,,,,98.9712,99.9472,99.9474,100.4458,100.4458,100.698,100.6981,89,89,109.9142,space,9.1998,,109.9143,117.324,space,7.2573,,0,2,2,4,1,95,bars/single004.png,bars/mask004.png,,,,,,,,,,,,,,,,,,,,,,,,,,,,,,,,,,,,,,,,,,,,,,,,,,,,,,,,,,,,,,,,
,,613ee5c73de62443db76d074,65af55f44ec9136d74dc74c3,2024-01-23_08h01.33.738,bars,2023.2.3,Win32,59.52380952,657b66ea316d21385b68909f,,,,,,,,,,,117.3567,118.3264,118.3264,118.8174,118.8175,119.0675,119.0676,127,127,123.3537,space,4.2717,,123.3538,129.0763,space,5.6651,,0,3,3,0,1,150,bars/single000.png,bars/mask006.png,,,,,,,,,,,,,,,,,,,,,,,,,,,,,,,,,,,,,,,,,,,,,,,,,,,,,,,,,,,,,,,,
,,613ee5c73de62443db76d074,65af55f44ec9136d74dc74c3,2024-01-23_08h01.33.738,bars,2023.2.3,Win32,59.52380952,657b66ea316d21385b68909f,,,,,,,,,,,129.109,130.0862,130.0863,130.5843,130.5844,130.8398,130.8399,142,142,136.5898,space,5.7333,,136.5898,142.5423,space,5.8916,,0,4,4,2,1,145,bars/single002.png,bars/mask003.png,,,,,,,,,,,,,,,,,,,,,,,,,,,,,,,,,,,,,,,,,,,,,,,,,,,,,,,,,,,,,,,,
,,613ee5c73de62443db76d074,65af55f44ec9136d74dc74c3,2024-01-23_08h01.33.738,bars,2023.2.3,Win32,59.52380952,657b66ea316d21385b68909f,,,,,,,,,,,142.5696,143.544,143.544,144.0396,144.0396,144.2878,144.2879,7,187,147.4999,space,3.1971,,147.5001,153.6793,space,6.1176,,0,5,5,6,1,175,bars/single006.png,bars/mask005.png,,,,,,,,,,,,,,,,,,,,,,,,,,,,,,,,,,,,,,,,,,,,,,,,,,,,,,,,,,,,,,,,
,,613ee5c73de62443db76d074,65af55f44ec9136d74dc74c3,2024-01-23_08h01.33.738,bars,2023.2.3,Win32,59.52380952,657b66ea316d21385b68909f,,,,,,,,,,,153.7236,154.6831,154.6831,155.1498,155.1501,155.3841,155.3842,58,58,158.6449,space,3.2469,,158.645,165.9144,space,7.1317,,0,6,6,7,1,45,bars/single007.png,bars/mask009.png,,,,,,,,,,,,,,,,,,,,,,,,,,,,,,,,,,,,,,,,,,,,,,,,,,,,,,,,,,,,,,,,
,,613ee5c73de62443db76d074,65af55f44ec9136d74dc74c3,2024-01-23_08h01.33.738,bars,2023.2.3,Win32,59.52380952,657b66ea316d21385b68909f,,,,,,,,,,,165.9695,166.9339,166.9341,167.4306,167.4307,167.6769,167.677,36,36,171.6181,space,3.9262,,171.6182,177.9704,space,6.2792,,0,7,7,9,1,20,bars/single009.png,bars/mask006.png,,,,,,,,,,,,,,,,,,,,,,,,,,,,,,,,,,,,,,,,,,,,,,,,,,,,,,,,,,,,,,,,
,,613ee5c73de62443db76d074,65af55f44ec9136d74dc74c3,2024-01-23_08h01.33.738,bars,2023.2.3,Win32,59.52380952,657b66ea316d21385b68909f,,,,,,,,,,,178.0152,178.9831,178.9833,179.4796,179.4797,179.7197,179.7197,5,5,184.7041,space,4.9641,,184.7042,188.8676,space,4.0906,,0,8,8,3,1,20,bars/single003.png,bars/mask005.png,,,,,,,,,,,,,,,,,,,,,,,,,,,,,,,,,,,,,,,,,,,,,,,,,,,,,,,,,,,,,,,,
,,613ee5c73de62443db76d074,65af55f44ec9136d74dc74c3,2024-01-23_08h01.33.738,bars,2023.2.3,Win32,59.52380952,657b66ea316d21385b68909f,,,,,,,,,,,188.8973,189.8812,189.8813,190.3814,190.3814,190.6236,190.6237,119,119,195.0191,space,4.3831,,195.0192,200.5398,space,5.4574,,0,9,9,8,1,160,bars/single008.png,bars/mask004.png,,,,,,,,,,,,,,,,,,,,,,,,,,,,,,,,,,,,,,,,,,,,,,,,,,,,,,,,,,,,,,,,
,,613ee5c73de62443db76d074,65af55f44ec9136d74dc74c3,2024-01-23_08h01.33.738,bars,2023.2.3,Win32,59.52380952,657b66ea316d21385b68909f,,,,,,,,,,,,,,,,,,,,,,,,,,,,,,,,,,,,,200.5689,215.9565,space,15.3527,,,,,,,,,,,,,,,,,,,,,,,,,,,,,,,,,,,,,,,,,,,,,,,,,,,,,,,,,,,,
,,613ee5c73de62443db76d074,65af55f44ec9136d74dc74c3,2024-01-23_08h01.33.738,bars,2023.2.3,Win32,59.52380952,657b66ea316d21385b68909f,,,,,,,,,,,,,,,,,,,,,,,,,,,,,,,,,,,,,,,,,,215.9965,219.0269,right,2.9814,,219.0272,2,2,220.0213,0,0,0,0,1,9,1,9,2,,,,,,,,,,,,,,,,,,,,,,,,,,,,,,,,,,,,,,,,,
,,613ee5c73de62443db76d074,65af55f44ec9136d74dc74c3,2024-01-23_08h01.33.738,bars,2023.2.3,Win32,59.52380952,657b66ea316d21385b68909f,,,,,,,,,,,,,,,,,,,,,,,,,,,,,,,,,,,,,,,,,,220.0232,221.2079,left,1.1622,,221.208,10,1,222.2042,0,1,1,1,1,10,0,10,1,,,,,,,,,,,,,,,,,,,,,,,,,,,,,,,,,,,,,,,,,
,,613ee5c73de62443db76d074,65af55f44ec9136d74dc74c3,2024-01-23_08h01.33.738,bars,2023.2.3,Win32,59.52380952,657b66ea316d21385b68909f,,,,,,,,,,,,,,,,,,,,,,,,,,,,,,,,,,,,,,,,,,222.2057,224.0415,right,1.8229,,224.0416,2,2,225.0396,0,2,2,2,1,10,2,10,2,,,,,,,,,,,,,,,,,,,,,,,,,,,,,,,,,,,,,,,,,
,,613ee5c73de62443db76d074,65af55f44ec9136d74dc74c3,2024-01-23_08h01.33.738,bars,2023.2.3,Win32,59.52380952,657b66ea316d21385b68909f,,,,,,,,,,,,,,,,,,,,,,,,,,,,,,,,,,,,,,,,,,225.0411,225.8969,left,0.8417,,225.897,7,1,226.8947,0,3,3,3,1,8,4,7,3,,,,,,,,,,,,,,,,,,,,,,,,,,,,,,,,,,,,,,,,,
,,613ee5c73de62443db76d074,65af55f44ec9136d74dc74c3,2024-01-23_08h01.33.738,bars,2023.2.3,Win32,59.52380952,657b66ea316d21385b68909f,,,,,,,,,,,,,,,,,,,,,,,,,,,,,,,,,,,,,,,,,,226.8956,231.0144,left,4.1031,,231.0145,5,1,232.0058,0,4,4,4,1,6,2,5,1,,,,,,,,,,,,,,,,,,,,,,,,,,,,,,,,,,,,,,,,,
,,613ee5c73de62443db76d074,65af55f44ec9136d74dc74c3,2024-01-23_08h01.33.738,bars,2023.2.3,Win32,59.52380952,657b66ea316d21385b68909f,,,,,,,,,,,,,,,,,,,,,,,,,,,,,,,,,,,,,,,,,,232.0444,232.8081,left,0.7515,,232.8082,4,1,233.8056,0,5,5,5,1,4,4,4,4,,,,,,,,,,,,,,,,,,,,,,,,,,,,,,,,,,,,,,,,,
,,613ee5c73de62443db76d074,65af55f44ec9136d74dc74c3,2024-01-23_08h01.33.738,bars,2023.2.3,Win32,59.52380952,657b66ea316d21385b68909f,,,,,,,,,,,,,,,,,,,,,,,,,,,,,,,,,,,,,,,,,,233.8077,234.3074,right,0.4829,,234.3076,2,2,235.3086,0,6,6,6,1,2,2,1,2,,,,,,,,,,,,,,,,,,,,,,,,,,,,,,,,,,,,,,,,,
,,613ee5c73de62443db76d074,65af55f44ec9136d74dc74c3,2024-01-23_08h01.33.738,bars,2023.2.3,Win32,59.52380952,657b66ea316d21385b68909f,,,,,,,,,,,,,,,,,,,,,,,,,,,,,,,,,,,,,,,,,,235.3097,235.9503,left,0.6218,,235.9504,0,1,236.9445,0,7,7,7,1,0,0,0,1,,,,,,,,,,,,,,,,,,,,,,,,,,,,,,,,,,,,,,,,,
,,613ee5c73de62443db76d074,65af55f44ec9136d74dc74c3,2024-01-23_08h01.33.738,bars,2023.2.3,Win32,59.52380952,657b66ea316d21385b68909f,,,,,,,,,,,,,,,,,,,,,,,,,,,,,,,,,,,,,,,,,,236.9454,237.7418,right,0.7805,,237.7421,0,2,238.7416,0,8,8,8,1,0,2,1,0,,,,,,,,,,,,,,,,,,,,,,,,,,,,,,,,,,,,,,,,,
,,613ee5c73de62443db76d074,65af55f44ec9136d74dc74c3,2024-01-23_08h01.33.738,bars,2023.2.3,Win32,59.52380952,657b66ea316d21385b68909f,,,,,,,,,,,,,,,,,,,,,,,,,,,,,,,,,,,,,,,,,,238.7439,239.9081,right,1.1448,,239.9082,3,2,240.9062,0,9,9,9,1,2,4,2,3,,,,,,,,,,,,,,,,,,,,,,,,,,,,,,,,,,,,,,,,,
,,613ee5c73de62443db76d074,65af55f44ec9136d74dc74c3,2024-01-23_08h01.33.738,bars,2023.2.3,Win32,59.52380952,657b66ea316d21385b68909f,,,,,,,,,,,,,,,,,,,,,,,,,,,,,,,,,,,,,,,,,,240.9082,241.3976,left,0.4786,,241.3976,0,1,242.3937,0,10,10,10,1,0,2,0,3,,,,,,,,,,,,,,,,,,,,,,,,,,,,,,,,,,,,,,,,,
,,613ee5c73de62443db76d074,65af55f44ec9136d74dc74c3,2024-01-23_08h01.33.738,bars,2023.2.3,Win32,59.52380952,657b66ea316d21385b68909f,,,,,,,,,,,,,,,,,,,,,,,,,,,,,,,,,,,,,,,,,,242.3946,242.7487,right,0.342,,242.7488,3,2,243.7439,0,11,11,11,1,0,4,0,3,,,,,,,,,,,,,,,,,,,,,,,,,,,,,,,,,,,,,,,,,
,,613ee5c73de62443db76d074,65af55f44ec9136d74dc74c3,2024-01-23_08h01.33.738,bars,2023.2.3,Win32,59.52380952,657b66ea316d21385b68909f,,,,,,,,,,,,,,,,,,,,,,,,,,,,,,,,,,,,,,,,,,243.7451,244.1632,right,0.4028,,244.1633,6,2,245.1606,0,12,12,12,1,2,6,1,6,,,,,,,,,,,,,,,,,,,,,,,,,,,,,,,,,,,,,,,,,
,,613ee5c73de62443db76d074,65af55f44ec9136d74dc74c3,2024-01-23_08h01.33.738,bars,2023.2.3,Win32,59.52380952,657b66ea316d21385b68909f,,,,,,,,,,,,,,,,,,,,,,,,,,,,,,,,,,,,,,,,,,245.1617,245.8448,right,0.6684,,245.8449,3,2,246.8424,0,13,13,13,1,0,4,1,3,,,,,,,,,,,,,,,,,,,,,,,,,,,,,,,,,,,,,,,,,
,,613ee5c73de62443db76d074,65af55f44ec9136d74dc74c3,2024-01-23_08h01.33.738,bars,2023.2.3,Win32,59.52380952,657b66ea316d21385b68909f,,,,,,,,,,,,,,,,,,,,,,,,,,,,,,,,,,,,,,,,,,246.8434,247.1992,left,0.3456,,247.1993,2,1,248.1969,0,14,14,14,1,2,6,2,7,,,,,,,,,,,,,,,,,,,,,,,,,,,,,,,,,,,,,,,,,
,,613ee5c73de62443db76d074,65af55f44ec9136d74dc74c3,2024-01-23_08h01.33.738,bars,2023.2.3,Win32,59.52380952,657b66ea316d21385b68909f,,,,,,,,,,,,,,,,,,,,,,,,,,,,,,,,,,,,,,,,,,248.1977,248.5788,left,0.3644,,248.5789,3,1,249.5776,0,15,15,15,1,4,8,3,9,,,,,,,,,,,,,,,,,,,,,,,,,,,,,,,,,,,,,,,,,
,,613ee5c73de62443db76d074,65af55f44ec9136d74dc74c3,2024-01-23_08h01.33.738,bars,2023.2.3,Win32,59.52380952,657b66ea316d21385b68909f,,,,,,,,,,,,,,,,,,,,,,,,,,,,,,,,,,,,,,,,,,249.5783,249.9792,right,0.3886,,249.9793,7,2,250.9767,0,16,16,16,1,6,6,7,7,,,,,,,,,,,,,,,,,,,,,,,,,,,,,,,,,,,,,,,,,
,,613ee5c73de62443db76d074,65af55f44ec9136d74dc74c3,2024-01-23_08h01.33.738,bars,2023.2.3,Win32,59.52380952,657b66ea316d21385b68909f,,,,,,,,,,,,,,,,,,,,,,,,,,,,,,,,,,,,,,,,,,250.9778,251.295,left,0.3049,,251.2952,9,1,252.29,0,17,17,17,1,8,4,9,5,,,,,,,,,,,,,,,,,,,,,,,,,,,,,,,,,,,,,,,,,
,,613ee5c73de62443db76d074,65af55f44ec9136d74dc74c3,2024-01-23_08h01.33.738,bars,2023.2.3,Win32,59.52380952,657b66ea316d21385b68909f,,,,,,,,,,,,,,,,,,,,,,,,,,,,,,,,,,,,,,,,,,252.2914,252.6633,right,0.3585,,252.6633,1,2,253.6572,0,18,18,18,1,6,2,5,1,,,,,,,,,,,,,,,,,,,,,,,,,,,,,,,,,,,,,,,,,
,,613ee5c73de62443db76d074,65af55f44ec9136d74dc74c3,2024-01-23_08h01.33.738,bars,2023.2.3,Win32,59.52380952,657b66ea316d21385b68909f,,,,,,,,,,,,,,,,,,,,,,,,,,,,,,,,,,,,,,,,,,253.6582,254.1461,right,0.4758,,254.1462,0,2,255.1483,0,19,19,19,1,8,0,7,0,,,,,,,,,,,,,,,,,,,,,,,,,,,,,,,,,,,,,,,,,
,,613ee5c73de62443db76d074,65af55f44ec9136d74dc74c3,2024-01-23_08h01.33.738,bars,2023.2.3,Win32,59.52380952,657b66ea316d21385b68909f,,,,,,,,,,,,,,,,,,,,,,,,,,,,,,,,,,,,,,,,,,,,,,,,,,,,,,,,,,,,255.15,285.1705,space,29.9865,,,,,,,,,,,,,,,,,,,,,,,,,,,,,,,,,,,,,
,,613ee5c73de62443db76d074,65af55f44ec9136d74dc74c3,2024-01-23_08h01.33.738,bars,2023.2.3,Win32,59.52380952,657b66ea316d21385b68909f,,,,,,,,,,,287.3709,288.3669,,,288.8677,289.1169,,100,100,,,,,,,,,,,,,,,,bars/029.png,bars/mask002.png,,,,,,,,,,,,3,1,,,,,,,2,3,5,3,,,,,,285.2076,287.3522,space,2.1218,,288.3674,288.8675,289.1177,294.2346,space,5.0857,,294.2351,10,55,295.2247,295.2255,304.9745,space,9.6118,,0,0,0,0,1,90,45,,,,,,,,
,,613ee5c73de62443db76d074,65af55f44ec9136d74dc74c3,2024-01-23_08h01.33.738,bars,2023.2.3,Win32,59.52380952,657b66ea316d21385b68909f,,,,,,,,,,,305.0055,305.9852,,,306.4754,306.7173,,8,188,,,,,,,,,,,,,,,,bars/023.png,bars/mask009.png,,,,,,,,,,,,2,1,,,,,,,4,1,3,1,,,,,,,,,,,305.9863,306.4753,306.7174,310.6563,space,3.9235,,310.6565,12,73,311.6573,311.6575,318.6462,space,6.9165,,0,1,1,1,1,20,115,,,,,,,,
,,613ee5c73de62443db76d074,65af55f44ec9136d74dc74c3,2024-01-23_08h01.33.738,bars,2023.2.3,Win32,59.52380952,657b66ea316d21385b68909f,,,,,,,,,,,318.7071,319.6553,,,320.155,320.4056,,40,220,,,,,,,,,,,,,,,,bars/031.png,bars/mask008.png,,,,,,,,,,,,0,2,,,,,,,6,0,5,0,,,,,,,,,,,319.6554,320.1548,320.4057,324.1257,space,3.7056,,324.1258,80,5,325.1212,325.1212,328.311,space,3.1214,,0,2,2,2,1,120,35,,,,,,,,
,,613ee5c73de62443db76d074,65af55f44ec9136d74dc74c3,2024-01-23_08h01.33.738,bars,2023.2.3,Win32,59.52380952,657b66ea316d21385b68909f,,,,,,,,,,,328.3394,329.3163,,,329.8067,330.0572,,97,-83,,,,,,,,,,,,,,,,bars/028.png,bars/mask008.png,,,,,,,,,,,,0,2,,,,,,,4,2,4,2,,,,,,,,,,,329.3163,329.8065,330.0573,335.8277,space,5.7572,,335.8278,52,23,336.8245,336.8247,340.5287,space,3.6454,,0,3,3,3,1,45,120,,,,,,,,
,,613ee5c73de62443db76d074,65af55f44ec9136d74dc74c3,2024-01-23_08h01.33.738,bars,2023.2.3,Win32,59.52380952,657b66ea316d21385b68909f,,,,,,,,,,,340.5577,341.5441,,,342.0444,342.2824,,25,205,,,,,,,,,,,,,,,,bars/009.png,bars/mask005.png,,,,,,,,,,,,4,1,,,,,,,6,4,6,4,,,,,,,,,,,341.5442,342.0444,342.2825,344.5679,space,2.2709,,344.568,10,80,345.558,345.5581,347.7645,space,2.1363,,0,4,4,4,1,15,105,,,,,,,,
,,613ee5c73de62443db76d074,65af55f44ec9136d74dc74c3,2024-01-23_08h01.33.738,bars,2023.2.3,Win32,59.52380952,657b66ea316d21385b68909f,,,,,,,,,,,347.7654,348.7597,,,349.264,349.5171,,81,81,,,,,,,,,,,,,,,,bars/014.png,bars/mask001.png,,,,,,,,,,,,3,1,,,,,,,4,2,3,2,,,,,,,,,,,348.7598,349.2639,349.5172,351.7487,space,2.2148,,351.7491,1,81,352.7448,352.7451,354.6483,space,1.8434,,0,5,5,5,1,80,0,,,,,,,,
,,613ee5c73de62443db76d074,65af55f44ec9136d74dc74c3,2024-01-23_08h01.33.738,bars,2023.2.3,Win32,59.52380952,657b66ea316d21385b68909f,,,,,,,,,,,354.649,355.6458,,,356.1459,356.3943,,178,178,,,,,,,,,,,,,,,,bars/007.png,bars/mask004.png,,,,,,,,,,,,2,1,,,,,,,2,4,2,5,,,,,,,,,,,355.6459,356.1457,356.3945,361.6556,space,5.2482,,361.6558,3,57,362.6535,362.6536,368.4704,space,5.7296,,0,6,6,6,1,175,55,,,,,,,,
,,613ee5c73de62443db76d074,65af55f44ec9136d74dc74c3,2024-01-23_08h01.33.738,bars,2023.2.3,Win32,59.52380952,657b66ea316d21385b68909f,,,,,,,,,,,368.5033,369.4851,,,369.9798,370.217,,110,110,,,,,,,,,,,,,,,,bars/034.png,bars/mask002.png,,,,,,,,,,,,3,1,,,,,,,4,2,5,2,,,,,,,,,,,369.4852,369.9796,370.2171,375.0075,space,4.7795,,375.0075,15,45,376.0062,376.0062,378.1355,space,2.0249,,0,7,7,7,1,125,65,,,,,,,,
,,613ee5c73de62443db76d074,65af55f44ec9136d74dc74c3,2024-01-23_08h01.33.738,bars,2023.2.3,Win32,59.52380952,657b66ea316d21385b68909f,,,,,,,,,,,378.1361,379.1907,,,379.6484,379.9012,,47,47,,,,,,,,,,,,,,,,bars/004.png,bars/mask004.png,,,,,,,,,,,,1,1,,,,,,,2,4,2,6,,,,,,,,,,,379.1907,379.6484,379.9013,381.6737,space,1.7596,,381.6739,22,78,382.6549,382.6549,383.793,space,1.0438,,0,8,8,8,1,25,125,,,,,,,,
,,613ee5c73de62443db76d074,65af55f44ec9136d74dc74c3,2024-01-23_08h01.33.738,bars,2023.2.3,Win32,59.52380952,657b66ea316d21385b68909f,,,,,,,,,,,383.7942,384.7867,,,385.2871,385.5362,,146,146,,,,,,,,,,,,,,,,bars/040.png,bars/mask005.png,,,,,,,,,,,,0,1,,,,,,,0,2,0,2,,,,,,,,,,,384.7867,385.2871,385.5362,388.8051,space,3.2558,,388.8052,6,39,389.8084,389.8085,391.9404,space,2.0389,,0,9,9,9,1,140,5,,,,,,,,
,,613ee5c73de62443db76d074,65af55f44ec9136d74dc74c3,2024-01-23_08h01.33.738,bars,2023.2.3,Win32,59.52380952,657b66ea316d21385b68909f,,,,,,,,,,,391.9441,392.9505,,,393.4547,393.704,,94,-86,,,,,,,,,,,,,,,,bars/001.png,bars/mask004.png,,,,,,,,,,,,4,2,,,,,,,0,4,0,5,,,,,,,,,,,392.9506,393.4546,393.7041,399.4592,space,5.7437,,399.4593,36,9,400.439,400.439,404.3708,space,3.809,,0,10,10,10,1,130,85,,,,,,,,
,,613ee5c73de62443db76d074,65af55f44ec9136d74dc74c3,2024-01-23_08h01.33.738,bars,2023.2.3,Win32,59.52380952,657b66ea316d21385b68909f,,,,,,,,,,,404.3716,405.3763,,,405.8721,406.1193,,74,74,,,,,,,,,,,,,,,,bars/002.png,bars/mask008.png,,,,,,,,,,,,0,2,,,,,,,2,2,1,0,,,,,,,,,,,405.3763,405.8721,406.1193,408.159,space,2.0262,,408.1591,56,11,409.1546,409.1547,411.1566,space,1.8773,,0,11,11,11,1,130,85,,,,,,,,
,,613ee5c73de62443db76d074,65af55f44ec9136d74dc74c3,2024-01-23_08h01.33.738,bars,2023.2.3,Win32,59.52380952,657b66ea316d21385b68909f,,,,,,,,,,,411.1584,412.1545,,,412.6548,412.9081,,131,131,,,,,,,,,,,,,,,,bars/037.png,bars/mask005.png,,,,,,,,,,,,2,1,,,,,,,4,4,5,5,,,,,,,,,,,412.1546,412.6548,412.9081,416.8165,space,3.8952,,416.8167,19,26,417.8082,417.8084,419.3453,space,1.4718,,0,12,12,12,1,150,105,,,,,,,,
,,613ee5c73de62443db76d074,65af55f44ec9136d74dc74c3,2024-01-23_08h01.33.738,bars,2023.2.3,Win32,59.52380952,657b66ea316d21385b68909f,,,,,,,,,,,419.3464,420.3412,,,420.8323,421.0841,,78,-102,,,,,,,,,,,,,,,,bars/039.png,bars/mask004.png,,,,,,,,,,,,0,2,,,,,,,2,2,0,3,,,,,,,,,,,420.3412,420.8323,421.0842,427.3349,space,6.2336,,427.3351,83,27,428.3263,428.3264,429.3475,space,0.8895,,0,13,13,13,1,175,105,,,,,,,,
,,613ee5c73de62443db76d074,65af55f44ec9136d74dc74c3,2024-01-23_08h01.33.738,bars,2023.2.3,Win32,59.52380952,657b66ea316d21385b68909f,,,,,,,,,,,429.3491,430.3442,,,430.844,431.0818,,134,134,,,,,,,,,,,,,,,,bars/039.png,bars/mask006.png,,,,,,,,,,,,0,2,,,,,,,4,4,5,4,,,,,,,,,,,430.3442,430.844,431.0819,433.6319,space,2.5357,,433.632,41,29,434.6252,434.6252,436.5169,space,1.8515,,0,14,14,14,1,175,105,,,,,,,,
,,613ee5c73de62443db76d074,65af55f44ec9136d74dc74c3,2024-01-23_08h01.33.738,bars,2023.2.3,Win32,59.52380952,657b66ea316d21385b68909f,,,,,,,,,,,436.5179,437.5162,,,438.017,438.2645,,50,50,,,,,,,,,,,,,,,,bars/022.png,bars/mask002.png,,,,,,,,,,,,0,2,,,,,,,2,6,1,7,,,,,,,,,,,437.5164,438.0169,438.2645,442.7652,space,4.4833,,442.7654,45,30,443.7619,443.7622,445.9185,space,2.0973,,0,15,15,15,1,95,20,,,,,,,,
,,613ee5c73de62443db76d074,65af55f44ec9136d74dc74c3,2024-01-23_08h01.33.738,bars,2023.2.3,Win32,59.52380952,657b66ea316d21385b68909f,,,,,,,,,,,445.9192,446.9171,,,447.4171,447.6677,,143,143,,,,,,,,,,,,,,,,bars/000.png,bars/mask006.png,,,,,,,,,,,,5,2,,,,,,,4,4,2,5,,,,,,,,,,,446.9172,447.4171,447.6678,451.7007,space,4.0175,,451.7008,77,2,452.6967,452.6969,458.0388,space,5.286,,0,16,16,16,1,40,145,,,,,,,,
,,613ee5c73de62443db76d074,65af55f44ec9136d74dc74c3,2024-01-23_08h01.33.738,bars,2023.2.3,Win32,59.52380952,657b66ea316d21385b68909f,,,,,,,,,,,458.0885,459.0518,,,459.5499,459.7994,,6,186,,,,,,,,,,,,,,,,bars/032.png,bars/mask005.png,,,,,,,,,,,,1,2,,,,,,,6,2,5,2,,,,,,,,,,,459.0519,459.5498,459.7994,461.956,space,2.1455,,461.9561,61,14,462.9552,462.9553,465.237,space,2.252,,0,17,17,17,1,125,20,,,,,,,,
,,613ee5c73de62443db76d074,65af55f44ec9136d74dc74c3,2024-01-23_08h01.33.738,bars,2023.2.3,Win32,59.52380952,657b66ea316d21385b68909f,,,,,,,,,,,465.2378,466.2345,,,466.7347,466.9823,,94,94,,,,,,,,,,,,,,,,bars/012.png,bars/mask009.png,,,,,,,,,,,,6,1,,,,,,,8,4,7,3,,,,,,,,,,,466.2346,466.7345,466.9825,472.1406,space,5.1453,,472.1407,4,79,473.1392,473.1393,477.419,space,4.2023,,0,18,18,18,1,90,15,,,,,,,,
,,613ee5c73de62443db76d074,65af55f44ec9136d74dc74c3,2024-01-23_08h01.33.738,bars,2023.2.3,Win32,59.52380952,657b66ea316d21385b68909f,,,,,,,,,,,477.4517,478.4357,,,478.9383,479.1766,,129,129,,,,,,,,,,,,,,,,bars/027.png,bars/mask003.png,,,,,,,,,,,,2,1,,,,,,,6,2,5,3,,,,,,,,,,,478.4358,478.9382,479.1768,484.7903,space,5.5978,,484.7905,19,79,485.7873,485.7874,488.3943,space,2.5198,,0,19,19,19,1,110,50,,,,,,,,
,,613ee5c73de62443db76d074,65af55f44ec9136d74dc74c3,2024-01-23_08h01.33.738,bars,2023.2.3,Win32,59.52380952,657b66ea316d21385b68909f,,,,,,,,,,,488.3953,489.3948,,,489.8962,490.1408,,80,-100,,,,,,,,,,,,,,,,bars/039.png,bars/mask004.png,,,,,,,,,,,,0,2,,,,,,,8,4,8,2,,,,,,,,,,,489.3949,489.8962,490.1409,495.7951,space,5.6375,,495.7952,85,25,496.797,496.7972,496.9327,space,0.0029,,0,20,20,20,1,175,105,,,,,,,,
,,613ee5c73de62443db76d074,65af55f44ec9136d74dc74c3,2024-01-23_08h01.33.738,bars,2023.2.3,Win32,59.52380952,657b66ea316d21385b68909f,,,,,,,,,,,496.9358,497.9242,,,498.4269,498.6738,,176,176,,,,,,,,,,,,,,,,bars/008.png,bars/mask005.png,,,,,,,,,,,,5,2,,,,,,,6,6,5,6,,,,,,,,,,,497.9243,498.4267,498.674,502.6273,space,3.9427,,502.6275,66,4,503.6212,503.6213,507.8181,space,4.1296,,0,21,21,21,1,110,0,,,,,,,,
,,613ee5c73de62443db76d074,65af55f44ec9136d74dc74c3,2024-01-23_08h01.33.738,bars,2023.2.3,Win32,59.52380952,657b66ea316d21385b68909f,,,,,,,,,,,507.8775,508.824,,,509.3257,509.5749,,146,146,,,,,,,,,,,,,,,,bars/000.png,bars/mask001.png,,,,,,,,,,,,4,2,,,,,,,8,4,9,4,,,,,,,,,,,508.8241,509.3257,509.575,514.6787,space,5.088,,514.6788,74,1,515.6761,515.6765,520.7034,space,4.9604,,0,22,22,22,1,40,145,,,,,,,,
,,613ee5c73de62443db76d074,65af55f44ec9136d74dc74c3,2024-01-23_08h01.33.738,bars,2023.2.3,Win32,59.52380952,657b66ea316d21385b68909f,,,,,,,,,,,520.7342,521.7106,,,522.2153,522.4595,,38,218,,,,,,,,,,,,,,,,bars/028.png,bars/mask002.png,,,,,,,,,,,,8,1,,,,,,,10,2,10,2,,,,,,,,,,,521.7107,522.2152,522.4596,526.6178,space,4.1439,,526.6178,7,82,527.6113,527.6114,535.5008,space,7.8218,,0,23,23,23,1,45,120,,,,,,,,
,,613ee5c73de62443db76d074,65af55f44ec9136d74dc74c3,2024-01-23_08h01.33.738,bars,2023.2.3,Win32,59.52380952,657b66ea316d21385b68909f,,,,,,,,,,,535.531,536.5043,,,536.9949,537.2465,,132,132,,,,,,,,,,,,,,,,bars/020.png,bars/mask009.png,,,,,,,,,,,,4,1,,,,,,,10,4,10,6,,,,,,,,,,,536.5044,536.9948,537.2466,540.4142,space,3.1505,,540.4144,17,38,541.4154,541.4155,547.8358,space,6.3639,,0,24,24,24,1,115,170,,,,,,,,
,,613ee5c73de62443db76d074,65af55f44ec9136d74dc74c3,2024-01-23_08h01.33.738,bars,2023.2.3,Win32,59.52380952,657b66ea316d21385b68909f,,,,,,,,,,,547.88,548.8465,,,549.3497,549.5884,,178,-2,,,,,,,,,,,,,,,,bars/007.png,bars/mask009.png,,,,,,,,,,,,8,1,,,,,,,10,6,9,7,,,,,,,,,,,548.8467,549.3496,549.5886,553.2364,space,3.6327,,553.2365,3,57,554.2317,554.2319,555.8067,space,1.4912,,0,25,25,25,1,175,55,,,,,,,,
,,613ee5c73de62443db76d074,65af55f44ec9136d74dc74c3,2024-01-23_08h01.33.738,bars,2023.2.3,Win32,59.52380952,657b66ea316d21385b68909f,,,,,,,,,,,555.8076,556.8076,,,557.2942,557.5373,,5,185,,,,,,,,,,,,,,,,bars/035.png,bars/mask005.png,,,,,,,,,,,,7,1,,,,,,,10,8,10,8,,,,,,,,,,,556.8076,557.2941,557.5374,560.8229,space,3.2614,,560.823,10,55,561.8185,561.8186,563.6573,space,1.786,,0,26,26,26,1,175,60,,,,,,,,
,,613ee5c73de62443db76d074,65af55f44ec9136d74dc74c3,2024-01-23_08h01.33.738,bars,2023.2.3,Win32,59.52380952,657b66ea316d21385b68909f,,,,,,,,,,,563.658,564.6513,,,565.1497,565.4041,,81,81,,,,,,,,,,,,,,,,bars/037.png,bars/mask008.png,,,,,,,,,,,,2,2,,,,,,,10,10,10,10,,,,,,,,,,,564.6514,565.1496,565.4042,569.5566,space,4.1367,,569.5567,69,24,570.5613,570.5615,571.8065,space,1.1477,,0,27,27,27,1,150,105,,,,,,,,
,,613ee5c73de62443db76d074,65af55f44ec9136d74dc74c3,2024-01-23_08h01.33.738,bars,2023.2.3,Win32,59.52380952,657b66ea316d21385b68909f,,,,,,,,,,,571.8072,572.8035,,,573.3047,573.5545,,131,131,,,,,,,,,,,,,,,,bars/027.png,bars/mask009.png,,,,,,,,,,,,3,1,,,,,,,10,8,10,8,,,,,,,,,,,572.8037,573.3046,573.5547,578.0754,space,4.5098,,578.0755,21,81,579.0717,579.0718,582.7083,space,3.5801,,0,28,28,28,1,110,50,,,,,,,,
,,613ee5c73de62443db76d074,65af55f44ec9136d74dc74c3,2024-01-23_08h01.33.738,bars,2023.2.3,Win32,59.52380952,657b66ea316d21385b68909f,,,,,,,,,,,582.7452,583.7145,,,584.2083,584.4551,,136,136,,,,,,,,,,,,,,,,bars/034.png,bars/mask000.png,,,,,,,,,,,,5,1,,,,,,,8,10,8,10,,,,,,,,,,,583.7146,584.2082,584.4551,590.8396,space,6.3664,,590.8397,11,71,591.8412,591.8415,594.7989,space,2.8921,,0,29,29,29,1,125,65,,,,,,,,
,,613ee5c73de62443db76d074,65af55f44ec9136d74dc74c3,2024-01-23_08h01.33.738,bars,2023.2.3,Win32,59.52380952,657b66ea316d21385b68909f,,,,,,,,,,,594.7997,595.7995,,,596.2888,596.5279,,133,-47,,,,,,,,,,,,,,,,bars/025.png,bars/mask007.png,,,,,,,,,,,,0,1,,,,,,,6,10,7,10,,,,,,,,,,,595.7999,596.2887,596.528,600.9791,space,4.4376,,600.9792,28,87,601.9792,601.9793,603.2972,space,1.2195,,0,30,30,30,1,105,40,,,,,,,,
,,613ee5c73de62443db76d074,65af55f44ec9136d74dc74c3,2024-01-23_08h01.33.738,bars,2023.2.3,Win32,59.52380952,657b66ea316d21385b68909f,,,,,,,,,,,603.2988,604.2903,,,604.7813,605.0193,,179,179,,,,,,,,,,,,,,,,bars/011.png,bars/mask009.png,,,,,,,,,,,,1,1,,,,,,,4,10,3,10,,,,,,,,,,,604.2904,604.7813,605.0194,608.4989,space,3.4343,,608.499,19,86,609.4917,609.4917,609.633,space,0.0867,,0,31,31,31,1,160,85,,,,,,,,
,,613ee5c73de62443db76d074,65af55f44ec9136d74dc74c3,2024-01-23_08h01.33.738,bars,2023.2.3,Win32,59.52380952,657b66ea316d21385b68909f,,,,,,,,,,,609.634,610.6287,,,611.1164,611.3584,,56,56,,,,,,,,,,,,,,,,bars/004.png,bars/mask006.png,,,,,,,,,,,,0,1,,,,,,,6,10,7,10,,,,,,,,,,,610.6288,611.1163,611.3584,613.3454,space,1.9732,,613.3455,31,69,614.3445,614.3447,618.0011,space,3.6072,,0,32,32,32,1,25,125,,,,,,,,
,,613ee5c73de62443db76d074,65af55f44ec9136d74dc74c3,2024-01-23_08h01.33.738,bars,2023.2.3,Win32,59.52380952,657b66ea316d21385b68909f,,,,,,,,,,,618.0022,619.0359,,,619.4703,619.7154,,10,190,,,,,,,,,,,,,,,,bars/039.png,bars/mask003.png,,,,,,,,,,,,2,1,,,,,,,4,10,3,9,,,,,,,,,,,619.036,619.4702,619.7154,625.1477,space,5.4121,,625.1482,15,85,626.173,626.173,628.7886,space,2.5487,,0,33,33,33,1,175,105,,,,,,,,
,,613ee5c73de62443db76d074,65af55f44ec9136d74dc74c3,2024-01-23_08h01.33.738,bars,2023.2.3,Win32,59.52380952,657b66ea316d21385b68909f,,,,,,,,,,,628.8969,629.8063,,,630.3049,630.5346,,1,1,,,,,,,,,,,,,,,,bars/036.png,bars/mask000.png,,,,,,,,,,,,3,2,,,,,,,6,8,8,8,,,,,,,,,,,629.8064,630.3048,630.5346,637.0864,space,6.5361,,637.0865,36,19,638.0835,638.0836,647.3406,space,9.2,,0,34,34,34,1,145,20,,,,,,,,
,,613ee5c73de62443db76d074,65af55f44ec9136d74dc74c3,2024-01-23_08h01.33.738,bars,2023.2.3,Win32,59.52380952,657b66ea316d21385b68909f,,,,,,,,,,,647.3849,648.3548,,,648.8518,649.1051,,48,48,,,,,,,,,,,,,,,,bars/026.png,bars/mask004.png,,,,,,,,,,,,2,1,,,,,,,4,6,4,6,,,,,,,,,,,648.3549,648.8518,649.1052,652.8412,space,3.7184,,652.8414,13,37,653.8396,653.8397,656.4751,space,2.5673,,0,35,35,35,1,35,85,,,,,,,,
,,613ee5c73de62443db76d074,65af55f44ec9136d74dc74c3,2024-01-23_08h01.33.738,bars,2023.2.3,Win32,59.52380952,657b66ea316d21385b68909f,,,,,,,,,,,656.4761,657.467,,,657.967,658.2192,,135,135,,,,,,,,,,,,,,,,bars/003.png,bars/mask003.png,,,,,,,,,,,,3,2,,,,,,,2,4,1,4,,,,,,,,,,,657.4671,657.967,658.2192,661.3959,space,3.1644,,661.396,70,5,662.3899,662.3899,664.6124,space,2.1326,,0,36,36,36,1,25,140,,,,,,,,
,,613ee5c73de62443db76d074,65af55f44ec9136d74dc74c3,2024-01-23_08h01.33.738,bars,2023.2.3,Win32,59.52380952,657b66ea316d21385b68909f,,,,,,,,,,,664.6135,665.604,,,666.107,666.355,,69,69,,,,,,,,,,,,,,,,bars/041.png,bars/mask003.png,,,,,,,,,,,,0,2,,,,,,,0,2,1,0,,,,,,,,,,,665.6042,666.1069,666.355,668.4964,space,2.127,,668.4965,49,16,669.4905,669.4906,671.3429,space,1.8299,,0,37,37,37,1,20,85,,,,,,,,
,,613ee5c73de62443db76d074,65af55f44ec9136d74dc74c3,2024-01-23_08h01.33.738,bars,2023.2.3,Win32,59.52380952,657b66ea316d21385b68909f,,,,,,,,,,,671.3437,672.3366,,,672.8367,673.089,,26,206,,,,,,,,,,,,,,,,bars/041.png,bars/mask005.png,,,,,,,,,,,,2,1,,,,,,,2,0,2,1,,,,,,,,,,,672.3366,672.8366,673.089,679.383,space,6.2796,,679.3831,6,59,680.3732,680.3733,683.3969,space,2.8985,,0,38,38,38,1,20,85,,,,,,,,
,,613ee5c73de62443db76d074,65af55f44ec9136d74dc74c3,2024-01-23_08h01.33.738,bars,2023.2.3,Win32,59.52380952,657b66ea316d21385b68909f,,,,,,,,,,,683.3985,684.3915,,,684.8928,685.1437,,3,183,,,,,,,,,,,,,,,,bars/032.png,bars/mask007.png,,,,,,,,,,,,1,2,,,,,,,4,2,5,2,,,,,,,,,,,684.3915,684.8919,685.1437,689.1486,space,3.9862,,689.1487,58,17,690.1452,690.1453,696.3999,space,6.1856,,0,39,39,39,1,125,20,,,,,,,,
,,613ee5c73de62443db76d074,65af55f44ec9136d74dc74c3,2024-01-23_08h01.33.738,bars,2023.2.3,Win32,59.52380952,657b66ea316d21385b68909f,,,,,,,,,,,696.4325,697.4082,,,697.8978,698.1484,,73,73,,,,,,,,,,,,,,,,bars/001.png,bars/mask000.png,,,,,,,,,,,,1,2,,,,,,,6,0,7,1,,,,,,,,,,,697.4083,697.8978,698.1487,700.6522,space,2.4888,,700.6523,57,12,701.6488,701.649,703.2689,space,1.5398,,0,40,40,40,1,130,85,,,,,,,,
,,613ee5c73de62443db76d074,65af55f44ec9136d74dc74c3,2024-01-23_08h01.33.738,bars,2023.2.3,Win32,59.52380952,657b66ea316d21385b68909f,,,,,,,,,,,703.2698,704.2636,,,704.7671,705.0125,,153,153,,,,,,,,,,,,,,,,bars/020.png,bars/mask007.png,,,,,,,,,,,,1,2,,,,,,,4,2,4,2,,,,,,,,,,,704.2637,704.7671,705.0125,709.5318,space,4.508,,709.5318,38,17,710.5298,710.5299,714.6171,space,3.9846,,0,41,41,41,1,115,170,,,,,,,,
,,613ee5c73de62443db76d074,65af55f44ec9136d74dc74c3,2024-01-23_08h01.33.738,bars,2023.2.3,Win32,59.52380952,657b66ea316d21385b68909f,,,,,,,,,,,714.6481,715.6197,,,716.114,716.3546,,110,110,,,,,,,,,,,,,,,,bars/028.png,bars/mask003.png,,,,,,,,,,,,2,2,,,,,,,2,4,1,3,,,,,,,,,,,715.6198,716.1139,716.3546,721.1534,space,4.782,,721.1536,65,10,722.1065,722.1066,724.3359,space,2.1698,,0,42,42,42,1,45,120,,,,,,,,
,,613ee5c73de62443db76d074,65af55f44ec9136d74dc74c3,2024-01-23_08h01.33.738,bars,2023.2.3,Win32,59.52380952,657b66ea316d21385b68909f,,,,,,,,,,,724.367,725.3501,,,725.8515,726.0967,,171,171,,,,,,,,,,,,,,,,bars/049.png,bars/mask000.png,,,,,,,,,,,,1,1,,,,,,,0,2,1,1,,,,,,,,,,,725.3502,725.8515,726.0968,729.6595,space,3.5483,,729.6596,11,56,730.6499,730.65,731.7943,space,1.0861,,0,43,43,43,1,160,115,,,,,,,,
,,613ee5c73de62443db76d074,65af55f44ec9136d74dc74c3,2024-01-23_08h01.33.738,bars,2023.2.3,Win32,59.52380952,657b66ea316d21385b68909f,,,,,,,,,,,731.8,732.7903,,,733.2868,733.5414,,104,104,,,,,,,,,,,,,,,,bars/015.png,bars/mask000.png,,,,,,,,,,,,0,1,,,,,,,0,4,0,4,,,,,,,,,,,732.7904,733.2868,733.5415,735.9892,space,2.406,,735.9893,6,56,736.9803,736.9805,739.1228,space,2.1158,,0,44,44,44,1,110,160,,,,,,,,
,,613ee5c73de62443db76d074,65af55f44ec9136d74dc74c3,2024-01-23_08h01.33.738,bars,2023.2.3,Win32,59.52380952,657b66ea316d21385b68909f,,,,,,,,,,,739.1238,740.1203,,,740.6242,740.8449,,175,-5,,,,,,,,,,,,,,,,bars/014.png,bars/mask006.png,,,,,,,,,,,,8,2,,,,,,,0,6,0,9,,,,,,,,,,,740.1203,740.6241,740.845,743.3452,space,2.4855,,743.3453,85,5,744.3343,744.3344,746.5908,space,2.2035,,0,45,45,45,1,80,0,,,,,,,,
,,613ee5c73de62443db76d074,65af55f44ec9136d74dc74c3,2024-01-23_08h01.33.738,bars,2023.2.3,Win32,59.52380952,657b66ea316d21385b68909f,,,,,,,,,,,746.5918,747.5903,,,748.0953,748.335,,169,-11,,,,,,,,,,,,,,,,bars/024.png,bars/mask004.png,,,,,,,,,,,,3,2,,,,,,,2,4,2,3,,,,,,,,,,,747.5905,748.0952,748.3351,751.9804,space,3.6279,,751.9806,49,1,752.9682,752.9683,758.6423,space,5.5628,,0,46,46,46,1,120,170,,,,,,,,
,,613ee5c73de62443db76d074,65af55f44ec9136d74dc74c3,2024-01-23_08h01.33.738,bars,2023.2.3,Win32,59.52380952,657b66ea316d21385b68909f,,,,,,,,,,,758.6725,759.6438,,,760.1476,760.3893,,65,65,,,,,,,,,,,,,,,,bars/047.png,bars/mask002.png,,,,,,,,,,,,2,2,,,,,,,0,2,1,2,,,,,,,,,,,759.6439,760.1476,760.3893,765.3144,space,4.9129,,765.3146,50,5,766.3111,766.3112,773.1146,space,6.7366,,0,47,47,47,1,15,70,,,,,,,,
,,613ee5c73de62443db76d074,65af55f44ec9136d74dc74c3,2024-01-23_08h01.33.738,bars,2023.2.3,Win32,59.52380952,657b66ea316d21385b68909f,,,,,,,,,,,773.1491,774.1276,,,774.6134,774.8632,,36,36,,,,,,,,,,,,,,,,bars/000.png,bars/mask006.png,,,,,,,,,,,,2,1,,,,,,,0,4,2,5,,,,,,,,,,,774.1277,774.6132,774.8633,777.4658,space,2.5875,,777.466,4,71,778.4573,778.4573,780.6658,space,2.1516,,0,48,48,48,1,40,145,,,,,,,,
,,613ee5c73de62443db76d074,65af55f44ec9136d74dc74c3,2024-01-23_08h01.33.738,bars,2023.2.3,Win32,59.52380952,657b66ea316d21385b68909f,,,,,,,,,,,780.6668,781.6697,,,782.1596,782.4103,,58,58,,,,,,,,,,,,,,,,bars/025.png,bars/mask008.png,,,,,,,,,,,,1,2,,,,,,,2,2,1,3,,,,,,,,,,,781.6698,782.1594,782.4105,787.0182,space,4.596,,787.0183,47,18,788.0108,788.0109,791.9833,space,3.9167,,0,49,49,49,1,105,40,,,,,,,,
,,613ee5c73de62443db76d074,65af55f44ec9136d74dc74c3,2024-01-23_08h01.33.738,bars,2023.2.3,Win32,59.52380952,657b66ea316d21385b68909f,,,,,,,,,,,,,,,,,,,,,,,,,,,,,,,,,,,,,,,,,,,,,,,,,,,,,,,,,,,,,,,,,,,,,,,,,,,,,,,,,,,,,,,,,,,,,792.0155,851.991,0,0,0,1,1,sequence_tables/blk016.csv
,,613ee5c73de62443db76d074,65af55f44ec9136d74dc74c3,2024-01-23_08h01.33.738,bars,2023.2.3,Win32,59.52380952,657b66ea316d21385b68909f,,,,,,,,,,,866.2272,866.978,,,867.481,867.7394,,57,57,,,,,,,,,,,,,,,,bars/042.png,bars/mask000.png,,,,,,,,,,,,1,2,,,,,,,5,5,5,2,,,,,,852.0222,865.9667,space,13.9322,,866.978,867.481,867.7395,870.7503,space,2.9958,,870.7504,88,18,871.7597,871.7599,871.8473,,,,0,0,0,0,1,145,75,,,,,,,,
,,613ee5c73de62443db76d074,65af55f44ec9136d74dc74c3,2024-01-23_08h01.33.738,bars,2023.2.3,Win32,59.52380952,657b66ea316d21385b68909f,,,,,,,,,,,871.8487,872.8598,,,873.3651,873.5865,,55,55,,,,,,,,,,,,,,,,bars/034.png,bars/mask005.png,,,,,,,,,,,,3,2,,,,,,,7,3,8,4,,,,,,,,,,,872.8599,873.3651,873.5866,878.1369,space,4.5348,,878.137,70,10,879.1256,879.1258,879.1663,,,,0,1,1,1,1,125,65,,,,,,,,
,,613ee5c73de62443db76d074,65af55f44ec9136d74dc74c3,2024-01-23_08h01.33.738,bars,2023.2.3,Win32,59.52380952,657b66ea316d21385b68909f,,,,,,,,,,,879.1674,880.164,,,880.6649,880.9098,,41,41,,,,,,,,,,,,,,,,bars/031.png,bars/mask006.png,,,,,,,,,,,,5,2,,,,,,,5,5,4,6,,,,,,,,,,,880.164,880.6649,880.9098,884.4256,space,3.497,,884.4257,79,6,885.4138,885.4138,885.4395,,,,0,2,2,2,1,120,35,,,,,,,,
,,613ee5c73de62443db76d074,65af55f44ec9136d74dc74c3,2024-01-23_08h01.33.738,bars,2023.2.3,Win32,59.52380952,657b66ea316d21385b68909f,,,,,,,,,,,885.4401,886.4462,,,886.9349,887.1871,,129,129,,,,,,,,,,,,,,,,bars/028.png,bars/mask001.png,,,,,,,,,,,,5,2,,,,,,,7,7,7,7,,,,,,,,,,,886.4462,886.9347,887.1872,890.7068,space,3.5036,,890.707,84,9,891.7009,891.7012,891.734,,,,0,3,3,3,1,45,120,,,,,,,,
,,613ee5c73de62443db76d074,65af55f44ec9136d74dc74c3,2024-01-23_08h01.33.738,bars,2023.2.3,Win32,59.52380952,657b66ea316d21385b68909f,,,,,,,,,,,891.7347,892.7282,,,893.2304,893.4804,,34,34,,,,,,,,,,,,,,,,bars/007.png,bars/mask004.png,,,,,,,,,,,,1,2,,,,,,,5,5,6,4,,,,,,,,,,,892.7283,893.2304,893.4806,896.6379,space,3.1459,,896.638,39,21,897.6307,897.6307,897.6653,,,,0,4,4,4,1,175,55,,,,,,,,
,,613ee5c73de62443db76d074,65af55f44ec9136d74dc74c3,2024-01-23_08h01.33.738,bars,2023.2.3,Win32,59.52380952,657b66ea316d21385b68909f,,,,,,,,,,,897.6658,898.6636,,,899.1635,899.4035,,22,22,,,,,,,,,,,,,,,,bars/012.png,bars/mask009.png,,,,,,,,,,,,6,2,,,,,,,7,7,8,8,,,,,,,,,,,898.6637,899.1635,899.4038,902.6565,space,3.2363,,902.6566,68,7,903.6496,903.6496,903.6791,,,,0,5,5,5,1,90,15,,,,,,,,
,,613ee5c73de62443db76d074,65af55f44ec9136d74dc74c3,2024-01-23_08h01.33.738,bars,2023.2.3,Win32,59.52380952,657b66ea316d21385b68909f,,,,,,,,,,,903.6802,904.6843,,,905.1905,905.434,,106,106,,,,,,,,,,,,,,,,bars/026.png,bars/mask002.png,,,,,,,,,,,,3,2,,,,,,,9,9,7,9,,,,,,,,,,,904.6844,905.1904,905.4342,909.0368,space,3.5868,,909.0369,71,21,910.0392,910.0393,910.0716,,,,0,6,6,6,1,35,85,,,,,,,,
,,613ee5c73de62443db76d074,65af55f44ec9136d74dc74c3,2024-01-23_08h01.33.738,bars,2023.2.3,Win32,59.52380952,657b66ea316d21385b68909f,,,,,,,,,,,910.0725,911.0658,,,911.5681,911.8206,,54,54,,,,,,,,,,,,,,,,bars/038.png,bars/mask004.png,,,,,,,,,,,,4,2,,,,,,,10,10,10,8,,,,,,,,,,,911.0658,911.568,911.8208,914.489,space,2.6526,,914.4892,69,16,915.4883,915.4884,915.5414,,,,0,7,7,7,1,165,70,,,,,,,,
,,613ee5c73de62443db76d074,65af55f44ec9136d74dc74c3,2024-01-23_08h01.33.738,bars,2023.2.3,Win32,59.52380952,657b66ea316d21385b68909f,,,,,,,,,,,915.544,916.5362,,,917.0393,917.2868,,178,-2,,,,,,,,,,,,,,,,bars/032.png,bars/mask007.png,,,,,,,,,,,,3,2,,,,,,,10,10,10,10,,,,,,,,,,,916.5366,917.0391,917.2868,921.0233,space,3.7223,,921.0235,53,22,922.0195,922.0196,922.0501,,,,0,8,8,8,1,125,20,,,,,,,,
,,613ee5c73de62443db76d074,65af55f44ec9136d74dc74c3,2024-01-23_08h01.33.738,bars,2023.2.3,Win32,59.52380952,657b66ea316d21385b68909f,,,,,,,,,,,922.0512,923.0543,,,923.5545,923.7946,,0,180,,,,,,,,,,,,,,,,bars/035.png,bars/mask005.png,,,,,,,,,,,,8,1,,,,,,,8,10,9,10,,,,,,,,,,,923.0544,923.5544,923.7947,926.4237,space,2.6147,,926.4237,5,60,927.4298,927.4299,927.4727,,,,0,9,9,9,1,175,60,,,,,,,,
,,613ee5c73de62443db76d074,65af55f44ec9136d74dc74c3,2024-01-23_08h01.33.738,bars,2023.2.3,Win32,59.52380952,657b66ea316d21385b68909f,,,,,,,,,,,927.4734,928.4683,,,928.9594,929.2084,,99,99,,,,,,,,,,,,,,,,bars/026.png,bars/mask002.png,,,,,,,,,,,,4,2,,,,,,,6,8,7,7,,,,,,,,,,,928.4684,928.9591,929.2084,933.6128,space,4.3869,,933.6129,64,14,934.6087,934.609,934.643,,,,0,10,10,10,1,35,85,,,,,,,,
,,613ee5c73de62443db76d074,65af55f44ec9136d74dc74c3,2024-01-23_08h01.33.738,bars,2023.2.3,Win32,59.52380952,657b66ea316d21385b68909f,,,,,,,,,,,934.6438,935.6365,,,936.1395,936.3917,,145,-35,,,,,,,,,,,,,,,,bars/049.png,bars/mask005.png,,,,,,,,,,,,3,1,,,,,,,4,6,5,5,,,,,,,,,,,935.6365,936.1394,936.3917,940.8562,space,4.4463,,940.8563,15,30,941.8566,941.8566,941.892,,,,0,11,11,11,1,160,115,,,,,,,,
,,613ee5c73de62443db76d074,65af55f44ec9136d74dc74c3,2024-01-23_08h01.33.738,bars,2023.2.3,Win32,59.52380952,657b66ea316d21385b68909f,,,,,,,,,,,941.893,942.8904,,,943.3801,943.6225,,43,43,,,,,,,,,,,,,,,,bars/025.png,bars/mask004.png,,,,,,,,,,,,3,2,,,,,,,6,4,6,3,,,,,,,,,,,942.8905,943.38,943.6226,946.6116,space,2.9764,,946.6117,62,3,947.6098,947.6098,947.65,,,,0,12,12,12,1,105,40,,,,,,,,
,,613ee5c73de62443db76d074,65af55f44ec9136d74dc74c3,2024-01-23_08h01.33.738,bars,2023.2.3,Win32,59.52380952,657b66ea316d21385b68909f,,,,,,,,,,,947.6508,948.6388,,,949.1309,949.3765,,134,134,,,,,,,,,,,,,,,,bars/004.png,bars/mask003.png,,,,,,,,,,,,4,2,,,,,,,8,6,6,6,,,,,,,,,,,948.6389,949.1308,949.3766,954.2914,space,4.9005,,954.2916,71,9,955.2937,955.2937,955.325,,,,0,13,13,13,1,25,125,,,,,,,,
,,613ee5c73de62443db76d074,65af55f44ec9136d74dc74c3,2024-01-23_08h01.33.738,bars,2023.2.3,Win32,59.52380952,657b66ea316d21385b68909f,,,,,,,,,,,955.326,956.3262,,,956.8266,957.0751,,73,73,,,,,,,,,,,,,,,,bars/042.png,bars/mask003.png,,,,,,,,,,,,4,2,,,,,,,6,4,5,4,,,,,,,,,,,956.3265,956.8265,957.0753,960.779,space,3.6853,,960.7791,72,2,961.7749,961.7749,961.8106,,,,0,14,14,14,1,145,75,,,,,,,,
,,613ee5c73de62443db76d074,65af55f44ec9136d74dc74c3,2024-01-23_08h01.33.738,bars,2023.2.3,Win32,59.52380952,657b66ea316d21385b68909f,,,,,,,,,,,961.8113,962.7999,,,963.2971,963.5467,,146,146,,,,,,,,,,,,,,,,bars/039.png,bars/mask005.png,,,,,,,,,,,,0,1,,,,,,,4,2,3,2,,,,,,,,,,,962.8,963.297,963.5467,968.1035,space,4.5429,,968.1037,29,41,969.0948,969.095,969.1492,,,,0,15,15,15,1,175,105,,,,,,,,
,,613ee5c73de62443db76d074,65af55f44ec9136d74dc74c3,2024-01-23_08h01.33.738,bars,2023.2.3,Win32,59.52380952,657b66ea316d21385b68909f,,,,,,,,,,,969.1501,970.1474,,,970.6511,970.8989,,22,22,,,,,,,,,,,,,,,,bars/031.png,bars/mask008.png,,,,,,,,,,,,3,2,,,,,,,2,4,3,5,,,,,,,,,,,970.1475,970.6509,970.8989,976.0502,space,5.1356,,976.0502,82,13,977.0481,977.0482,977.0791,,,,0,16,16,16,1,120,35,,,,,,,,
,,613ee5c73de62443db76d074,65af55f44ec9136d74dc74c3,2024-01-23_08h01.33.738,bars,2023.2.3,Win32,59.52380952,657b66ea316d21385b68909f,,,,,,,,,,,977.0797,978.0809,,,978.5808,978.8223,,109,109,,,,,,,,,,,,,,,,bars/019.png,bars/mask009.png,,,,,,,,,,,,3,2,,,,,,,0,2,0,4,,,,,,,,,,,978.0809,978.5807,978.8226,983.1234,space,4.2849,,983.1236,64,4,984.118,984.1181,984.1489,,,,0,17,17,17,1,45,105,,,,,,,,
,,613ee5c73de62443db76d074,65af55f44ec9136d74dc74c3,2024-01-23_08h01.33.738,bars,2023.2.3,Win32,59.52380952,657b66ea316d21385b68909f,,,,,,,,,,,984.1499,985.1462,,,985.6492,985.9082,,64,64,,,,,,,,,,,,,,,,bars/042.png,bars/mask003.png,,,,,,,,,,,,1,2,,,,,,,0,0,2,1,,,,,,,,,,,985.1463,985.6491,985.9083,988.1858,space,2.2611,,988.1859,81,11,989.1818,989.1833,989.1854,,,,0,18,18,18,1,145,75,,,,,,,,
,,613ee5c73de62443db76d074,65af55f44ec9136d74dc74c3,2024-01-23_08h01.33.738,bars,2023.2.3,Win32,59.52380952,657b66ea316d21385b68909f,,,,,,,,,,,989.186,990.1838,,,990.6893,990.9344,,100,100,,,,,,,,,,,,,,,,bars/041.png,bars/mask004.png,,,,,,,,,,,,0,2,,,,,,,0,0,1,0,,,,,,,,,,,990.1838,990.6891,990.9345,994.5543,space,3.6027,,994.5544,80,15,995.5563,995.5564,995.5883,,,,0,19,19,19,1,20,85,,,,,,,,
,,613ee5c73de62443db76d074,65af55f44ec9136d74dc74c3,2024-01-23_08h01.33.738,bars,2023.2.3,Win32,59.52380952,657b66ea316d21385b68909f,,,,,,,,,,,995.5889,996.5814,,,997.0852,997.3333,,30,210,,,,,,,,,,,,,,,,bars/041.png,bars/mask008.png,,,,,,,,,,,,2,1,,,,,,,2,2,3,2,,,,,,,,,,,996.5815,997.0852,997.3333,1001.6105,space,4.2648,,1001.6105,10,55,1002.5882,1002.5885,1002.6364,,,,0,20,20,20,1,20,85,,,,,,,,
,,613ee5c73de62443db76d074,65af55f44ec9136d74dc74c3,2024-01-23_08h01.33.738,bars,2023.2.3,Win32,59.52380952,657b66ea316d21385b68909f,,,,,,,,,,,1002.6373,1003.6565,,,1004.1416,1004.3934,,161,161,,,,,,,,,,,,,,,,bars/021.png,bars/mask006.png,,,,,,,,,,,,0,1,,,,,,,0,0,0,0,,,,,,,,,,,1003.6566,1004.1414,1004.3934,1007.7395,space,3.3302,,1007.7396,6,89,1008.7364,1008.7365,1008.7688,,,,0,21,21,21,1,155,70,,,,,,,,
,,613ee5c73de62443db76d074,65af55f44ec9136d74dc74c3,2024-01-23_08h01.33.738,bars,2023.2.3,Win32,59.52380952,657b66ea316d21385b68909f,,,,,,,,,,,1008.7694,1009.7709,,,1010.2695,1010.5173,,174,-6,,,,,,,,,,,,,,,,bars/015.png,bars/mask009.png,,,,,,,,,,,,1,2,,,,,,,0,2,0,2,,,,,,,,,,,1009.7709,1010.2693,1010.5174,1016.0116,space,5.4813,,1016.0117,64,14,1017.0044,1017.0045,1017.0381,,,,0,22,22,22,1,110,160,,,,,,,,
,,613ee5c73de62443db76d074,65af55f44ec9136d74dc74c3,2024-01-23_08h01.33.738,bars,2023.2.3,Win32,59.52380952,657b66ea316d21385b68909f,,,,,,,,,,,1017.0386,1018.0408,,,1018.5391,1018.7892,,140,140,,,,,,,,,,,,,,,,bars/005.png,bars/mask007.png,,,,,,,,,,,,6,2,,,,,,,2,4,2,6,,,,,,,,,,,1018.0409,1018.539,1018.7893,1020.3258,space,1.5255,,1020.3259,50,0,1021.3193,1021.3194,1021.3229,,,,0,23,23,23,1,10,140,,,,,,,,
,,613ee5c73de62443db76d074,65af55f44ec9136d74dc74c3,2024-01-23_08h01.33.738,bars,2023.2.3,Win32,59.52380952,657b66ea316d21385b68909f,,,,,,,,,,,1021.3249,1022.3194,,,1022.8101,1023.0568,,80,80,,,,,,,,,,,,,,,,bars/026.png,bars/mask000.png,,,,,,,,,,,,3,2,,,,,,,4,2,5,3,,,,,,,,,,,1022.3195,1022.81,1023.0569,1026.5951,space,3.5278,,1026.5952,45,5,1027.5903,1027.5904,1027.6226,,,,0,24,24,24,1,35,85,,,,,,,,
,,613ee5c73de62443db76d074,65af55f44ec9136d74dc74c3,2024-01-23_08h01.33.738,bars,2023.2.3,Win32,59.52380952,657b66ea316d21385b68909f,,,,,,,,,,,1027.6235,1028.6203,,,1029.1209,1029.3742,,5,5,,,,,,,,,,,,,,,,bars/040.png,bars/mask000.png,,,,,,,,,,,,4,2,,,,,,,2,4,2,4,,,,,,,,,,,1028.6205,1029.1208,1029.3743,1032.0464,space,2.661,,1032.0465,45,0,1033.0441,1033.0442,1033.1002,,,,0,25,25,25,1,140,5,,,,,,,,
,,613ee5c73de62443db76d074,65af55f44ec9136d74dc74c3,2024-01-23_08h01.33.738,bars,2023.2.3,Win32,59.52380952,657b66ea316d21385b68909f,,,,,,,,,,,1033.1013,1034.1075,,,1034.6081,1034.8672,,46,46,,,,,,,,,,,,,,,,bars/034.png,bars/mask004.png,,,,,,,,,,,,3,2,,,,,,,0,6,0,7,,,,,,,,,,,1034.1076,1034.608,1034.8673,1039.0459,space,4.1665,,1039.0459,79,19,1040.0446,1040.0448,1040.0912,,,,0,26,26,26,1,125,65,,,,,,,,
,,613ee5c73de62443db76d074,65af55f44ec9136d74dc74c3,2024-01-23_08h01.33.738,bars,2023.2.3,Win32,59.52380952,657b66ea316d21385b68909f,,,,,,,,,,,1040.0918,1041.0896,,,1041.5901,1041.8452,,99,99,,,,,,,,,,,,,,,,bars/038.png,bars/mask000.png,,,,,,,,,,,,0,2,,,,,,,2,8,2,9,,,,,,,,,,,1041.0897,1041.5901,1041.8454,1046.3156,space,4.455,,1046.3156,66,29,1047.3098,1047.3099,1047.3412,,,,0,27,27,27,1,165,70,,,,,,,,
,,613ee5c73de62443db76d074,65af55f44ec9136d74dc74c3,2024-01-23_08h01.33.738,bars,2023.2.3,Win32,59.52380952,657b66ea316d21385b68909f,,,,,,,,,,,1047.3424,1048.3447,,,1048.8464,1049.0955,,142,142,,,,,,,,,,,,,,,,bars/004.png,bars/mask006.png,,,,,,,,,,,,2,2,,,,,,,0,6,0,5,,,,,,,,,,,1048.3447,1048.8463,1049.0957,1057.4018,space,8.2906,,1057.4019,63,17,1058.4018,1058.4019,1058.5107,,,,0,28,28,28,1,25,125,,,,,,,,
,,613ee5c73de62443db76d074,65af55f44ec9136d74dc74c3,2024-01-23_08h01.33.738,bars,2023.2.3,Win32,59.52380952,657b66ea316d21385b68909f,,,,,,,,,,,1058.5113,1059.5134,,,1060.0137,1060.265,,68,68,,,,,,,,,,,,,,,,bars/018.png,bars/mask008.png,,,,,,,,,,,,1,2,,,,,,,0,4,0,4,,,,,,,,,,,1059.5134,1060.0136,1060.2651,1063.9857,space,3.7042,,1063.9858,82,22,1064.9796,1064.9797,1065.0208,,,,0,29,29,29,1,150,90,,,,,,,,
,,613ee5c73de62443db76d074,65af55f44ec9136d74dc74c3,2024-01-23_08h01.33.738,bars,2023.2.3,Win32,59.52380952,657b66ea316d21385b68909f,,,,,,,,,,,1065.0218,1066.0174,,,1066.5147,1066.7644,,152,152,,,,,,,,,,,,,,,,bars/032.png,bars/mask007.png,,,,,,,,,,,,0,1,,,,,,,2,6,2,7,,,,,,,,,,,1066.0176,1066.5146,1066.7644,1069.2849,space,2.5083,,1069.285,27,48,1070.3004,1070.3004,1070.358,,,,0,30,30,30,1,125,20,,,,,,,,
,,613ee5c73de62443db76d074,65af55f44ec9136d74dc74c3,2024-01-23_08h01.33.738,bars,2023.2.3,Win32,59.52380952,657b66ea316d21385b68909f,,,,,,,,,,,1070.3708,1071.3635,,,1071.8665,1072.1079,,73,73,,,,,,,,,,,,,,,,bars/031.png,bars/mask002.png,,,,,,,,,,,,0,2,,,,,,,0,4,0,4,,,,,,,,,,,1071.3636,1071.8664,1072.108,1077.1222,space,4.9988,,1077.1224,47,38,1078.1159,1078.1162,1078.1689,,,,0,31,31,31,1,120,35,,,,,,,,
,,613ee5c73de62443db76d074,65af55f44ec9136d74dc74c3,2024-01-23_08h01.33.738,bars,2023.2.3,Win32,59.52380952,657b66ea316d21385b68909f,,,,,,,,,,,1078.1701,1079.1648,,,1079.6653,1079.9162,,166,166,,,,,,,,,,,,,,,,bars/021.png,bars/mask001.png,,,,,,,,,,,,1,1,,,,,,,2,6,2,5,,,,,,,,,,,1079.1649,1079.6652,1079.9164,1084.4539,space,4.5253,,1084.4541,11,84,1085.4239,1085.424,1085.4559,,,,0,32,32,32,1,155,70,,,,,,,,
,,613ee5c73de62443db76d074,65af55f44ec9136d74dc74c3,2024-01-23_08h01.33.738,bars,2023.2.3,Win32,59.52380952,657b66ea316d21385b68909f,,,,,,,,,,,1085.4566,1086.4571,,,1086.9512,1087.1907,,101,101,,,,,,,,,,,,,,,,bars/009.png,bars/mask001.png,,,,,,,,,,,,4,2,,,,,,,4,4,4,5,,,,,,,,,,,1086.4573,1086.9511,1087.1908,1089.7518,space,2.5438,,1089.752,86,4,1090.7439,1090.744,1090.7575,,,,0,33,33,33,1,15,105,,,,,,,,
,,613ee5c73de62443db76d074,65af55f44ec9136d74dc74c3,2024-01-23_08h01.33.738,bars,2023.2.3,Win32,59.52380952,657b66ea316d21385b68909f,,,,,,,,,,,1090.7593,1091.7533,,,1092.2528,1092.5148,,42,42,,,,,,,,,,,,,,,,bars/029.png,bars/mask000.png,,,,,,,,,,,,2,2,,,,,,,2,2,2,2,,,,,,,,,,,1091.7535,1092.2527,1092.5149,1097.9211,space,5.3893,,1097.9211,48,3,1098.9197,1098.9199,1098.949,,,,0,34,34,34,1,90,45,,,,,,,,
,,613ee5c73de62443db76d074,65af55f44ec9136d74dc74c3,2024-01-23_08h01.33.738,bars,2023.2.3,Win32,59.52380952,657b66ea316d21385b68909f,,,,,,,,,,,1098.9506,1099.9404,,,1100.4372,1100.6895,,36,216,,,,,,,,,,,,,,,,bars/017.png,bars/mask000.png,,,,,,,,,,,,0,2,,,,,,,0,0,0,0,,,,,,,,,,,1099.9405,1100.437,1100.6897,1104.9437,space,4.2356,,1104.9438,71,9,1105.9381,1105.9381,1105.9766,,,,0,35,35,35,1,145,45,,,,,,,,
,,613ee5c73de62443db76d074,65af55f44ec9136d74dc74c3,2024-01-23_08h01.33.738,bars,2023.2.3,Win32,59.52380952,657b66ea316d21385b68909f,,,,,,,,,,,1105.9772,1106.9688,,,1107.469,1107.7136,,158,-22,,,,,,,,,,,,,,,,bars/011.png,bars/mask006.png,,,,,,,,,,,,3,1,,,,,,,2,2,3,2,,,,,,,,,,,1106.9689,1107.4689,1107.7137,1110.6376,space,2.9043,,1110.6378,2,73,1111.6271,1111.6272,1111.7537,,,,0,36,36,36,1,160,85,,,,,,,,
,,613ee5c73de62443db76d074,65af55f44ec9136d74dc74c3,2024-01-23_08h01.33.738,bars,2023.2.3,Win32,59.52380952,657b66ea316d21385b68909f,,,,,,,,,,,1111.7547,1112.7614,,,1113.2562,1113.5052,,166,-14,,,,,,,,,,,,,,,,bars/018.png,bars/mask000.png,,,,,,,,,,,,1,1,,,,,,,4,0,3,0,,,,,,,,,,,1112.7614,1113.2559,1113.5052,1116.5911,space,3.0688,,1116.5913,16,76,1117.5902,1117.5902,1117.6213,,,,0,37,37,37,1,150,90,,,,,,,,
,,613ee5c73de62443db76d074,65af55f44ec9136d74dc74c3,2024-01-23_08h01.33.738,bars,2023.2.3,Win32,59.52380952,657b66ea316d21385b68909f,,,,,,,,,,,1117.6225,1118.6247,,,1119.125,1119.3718,,67,67,,,,,,,,,,,,,,,,bars/015.png,bars/mask008.png,,,,,,,,,,,,0,1,,,,,,,2,2,2,3,,,,,,,,,,,1118.6249,1119.1248,1119.3719,1125.1285,space,5.7434,,1125.1286,43,87,1126.1257,1126.1257,1126.1587,,,,0,38,38,38,1,110,160,,,,,,,,
,,613ee5c73de62443db76d074,65af55f44ec9136d74dc74c3,2024-01-23_08h01.33.738,bars,2023.2.3,Win32,59.52380952,657b66ea316d21385b68909f,,,,,,,,,,,1126.1594,1127.1583,,,1127.6634,1127.9136,,111,111,,,,,,,,,,,,,,,,bars/025.png,bars/mask001.png,,,,,,,,,,,,4,1,,,,,,,4,4,5,5,,,,,,,,,,,1127.1585,1127.6634,1127.9137,1131.0592,space,3.1267,,1131.0593,6,71,1132.0591,1132.0593,1132.0936,,,,0,39,39,39,1,105,40,,,,,,,,
,,613ee5c73de62443db76d074,65af55f44ec9136d74dc74c3,2024-01-23_08h01.33.738,bars,2023.2.3,Win32,59.52380952,657b66ea316d21385b68909f,,,,,,,,,,,1132.0942,1133.0944,,,1133.5958,1133.8493,,107,107,,,,,,,,,,,,,,,,bars/028.png,bars/mask000.png,,,,,,,,,,,,1,2,,,,,,,6,2,6,1,,,,,,,,,,,1133.0945,1133.5957,1133.8498,1137.4603,space,3.5964,,1137.4604,62,13,1138.4622,1138.4623,1138.4977,,,,0,40,40,40,1,45,120,,,,,,,,
,,613ee5c73de62443db76d074,65af55f44ec9136d74dc74c3,2024-01-23_08h01.33.738,bars,2023.2.3,Win32,59.52380952,657b66ea316d21385b68909f,,,,,,,,,,,1138.4982,1139.4957,,,1139.9941,1140.2416,,143,143,,,,,,,,,,,,,,,,bars/040.png,bars/mask008.png,,,,,,,,,,,,3,1,,,,,,,4,4,3,4,,,,,,,,,,,1139.496,1139.9939,1140.2434,1142.2826,space,2.0217,,1142.2827,3,42,1143.2852,1143.2853,1143.3783,,,,0,41,41,41,1,140,5,,,,,,,,
,,613ee5c73de62443db76d074,65af55f44ec9136d74dc74c3,2024-01-23_08h01.33.738,bars,2023.2.3,Win32,59.52380952,657b66ea316d21385b68909f,,,,,,,,,,,1143.3789,1144.3945,,,1144.879,1145.1308,,8,8,,,,,,,,,,,,,,,,bars/047.png,bars/mask009.png,,,,,,,,,,,,4,1,,,,,,,6,2,5,1,,,,,,,,,,,1144.3946,1144.8788,1145.1309,1147.4877,space,2.3386,,1147.4878,7,62,1148.4795,1148.4797,1148.5181,,,,0,42,42,42,1,15,70,,,,,,,,
,,613ee5c73de62443db76d074,65af55f44ec9136d74dc74c3,2024-01-23_08h01.33.738,bars,2023.2.3,Win32,59.52380952,657b66ea316d21385b68909f,,,,,,,,,,,1148.5188,1149.5152,,,1150.0104,1150.246,,175,-5,,,,,,,,,,,,,,,,bars/035.png,bars/mask004.png,,,,,,,,,,,,8,1,,,,,,,8,0,8,0,,,,,,,,,,,1149.5158,1150.0102,1150.2461,1154.048,space,3.7838,,1154.0481,0,65,1155.0478,1155.0479,1155.0788,,,,0,43,43,43,1,175,60,,,,,,,,
,,613ee5c73de62443db76d074,65af55f44ec9136d74dc74c3,2024-01-23_08h01.33.738,bars,2023.2.3,Win32,59.52380952,657b66ea316d21385b68909f,,,,,,,,,,,1155.0794,1156.0803,,,1156.5809,1156.8289,,113,-67,,,,,,,,,,,,,,,,bars/011.png,bars/mask005.png,,,,,,,,,,,,0,2,,,,,,,6,2,7,0,,,,,,,,,,,1156.0805,1156.5809,1156.829,1160.2701,space,3.4272,,1160.2702,47,28,1161.272,1161.2721,1161.3549,,,,0,44,44,44,1,160,85,,,,,,,,
,,613ee5c73de62443db76d074,65af55f44ec9136d74dc74c3,2024-01-23_08h01.33.738,bars,2023.2.3,Win32,59.52380952,657b66ea316d21385b68909f,,,,,,,,,,,1161.3555,1162.3658,,,1162.8635,1163.116,,167,-13,,,,,,,,,,,,,,,,bars/007.png,bars/mask004.png,,,,,,,,,,,,4,1,,,,,,,4,4,5,5,,,,,,,,,,,1162.3659,1162.8634,1163.1161,1167.1193,space,3.9894,,1167.1195,8,68,1168.1176,1168.118,1168.153,,,,0,45,45,45,1,175,55,,,,,,,,
,,613ee5c73de62443db76d074,65af55f44ec9136d74dc74c3,2024-01-23_08h01.33.738,bars,2023.2.3,Win32,59.52380952,657b66ea316d21385b68909f,,,,,,,,,,,1168.1536,1169.1495,,,1169.6427,1169.8869,,27,27,,,,,,,,,,,,,,,,bars/014.png,bars/mask004.png,,,,,,,,,,,,0,2,,,,,,,6,6,7,4,,,,,,,,,,,1169.1497,1169.6426,1169.887,1171.4761,space,1.5731,,1171.4762,53,27,1172.4688,1172.4689,1172.4979,,,,0,46,46,46,1,80,0,,,,,,,,
,,613ee5c73de62443db76d074,65af55f44ec9136d74dc74c3,2024-01-23_08h01.33.738,bars,2023.2.3,Win32,59.52380952,657b66ea316d21385b68909f,,,,,,,,,,,1172.499,1173.4906,,,1173.9815,1174.2386,,108,108,,,,,,,,,,,,,,,,bars/028.png,bars/mask006.png,,,,,,,,,,,,4,2,,,,,,,4,8,3,6,,,,,,,,,,,1173.4906,1173.9811,1174.2386,1177.3186,space,3.0581,,1177.3186,63,12,1178.3184,1178.3186,1178.3453,,,,0,47,47,47,1,45,120,,,,,,,,
,,613ee5c73de62443db76d074,65af55f44ec9136d74dc74c3,2024-01-23_08h01.33.738,bars,2023.2.3,Win32,59.52380952,657b66ea316d21385b68909f,,,,,,,,,,,1178.348,1179.339,,,1179.8355,1180.0853,,73,73,,,,,,,,,,,,,,,,bars/046.png,bars/mask007.png,,,,,,,,,,,,6,2,,,,,,,6,10,7,10,,,,,,,,,,,1179.3391,1179.8354,1180.0854,1184.3721,space,4.2739,,1184.3722,82,12,1185.3669,1185.367,1185.4019,,,,0,48,48,48,1,155,85,,,,,,,,
,,613ee5c73de62443db76d074,65af55f44ec9136d74dc74c3,2024-01-23_08h01.33.738,bars,2023.2.3,Win32,59.52380952,657b66ea316d21385b68909f,,,,,,,,,,,1185.4038,1186.4051,,,1186.9051,1187.1543,,172,172,,,,,,,,,,,,,,,,bars/007.png,bars/mask001.png,,,,,,,,,,,,7,1,,,,,,,8,10,8,10,,,,,,,,,,,1186.4052,1186.9044,1187.1544,1191.2244,space,4.0585,,1191.2246,3,63,1192.2212,1192.2213,1192.2972,,,,0,49,49,49,1,175,55,,,,,,,,
,,613ee5c73de62443db76d074,65af55f44ec9136d74dc74c3,2024-01-23_08h01.33.738,bars,2023.2.3,Win32,59.52380952,657b66ea316d21385b68909f,,,,,,,,,,,,,,,,,,,,,,,,,,,,,,,,,,,,,,,,,,,,,,,,,,,,,,,,,,,,,,,,,,,,,,,,,,,,,,,,,,,,,,,,,,,,,1192.2976,1252.3,0,1,1,3,1,sequence_tables/blk011.csv
,,613ee5c73de62443db76d074,65af55f44ec9136d74dc74c3,2024-01-23_08h01.33.738,bars,2023.2.3,Win32,59.52380952,657b66ea316d21385b68909f,,,,,,,,,,,1256.8049,1257.7497,,,1258.2502,1258.5,,100,100,,,,,,,,,,,,,,,,bars/019.png,bars/mask002.png,,,,,,,,,,,,7,2,,,,,,,10,7,10,8,,,,,,1252.3366,1256.7379,space,4.3869,,1257.7498,1258.25,1258.5,1261.2878,space,2.7698,,1261.2878,55,5,1262.2921,1262.2922,1262.3336,,,,0,0,0,0,1,45,105,,,,,,,,
,,613ee5c73de62443db76d074,65af55f44ec9136d74dc74c3,2024-01-23_08h01.33.738,bars,2023.2.3,Win32,59.52380952,657b66ea316d21385b68909f,,,,,,,,,,,1262.3343,1263.3377,,,1263.836,1264.0853,,120,120,,,,,,,,,,,,,,,,bars/039.png,bars/mask008.png,,,,,,,,,,,,3,2,,,,,,,10,5,10,6,,,,,,,,,,,1263.3378,1263.8358,1264.0854,1266.6067,space,2.5112,,1266.6069,55,15,1267.6094,1267.6095,1267.6927,,,,0,1,1,1,1,175,105,,,,,,,,
,,613ee5c73de62443db76d074,65af55f44ec9136d74dc74c3,2024-01-23_08h01.33.738,bars,2023.2.3,Win32,59.52380952,657b66ea316d21385b68909f,,,,,,,,,,,1267.6934,1268.6863,,,1269.1772,1269.422,,16,196,,,,,,,,,,,,,,,,bars/009.png,bars/mask009.png,,,,,,,,,,,,9,1,,,,,,,10,3,9,3,,,,,,,,,,,1268.6866,1269.1769,1269.4221,1273.4053,space,3.9686,,1273.4054,1,89,1274.4041,1274.4042,1274.4376,,,,0,2,2,2,1,15,105,,,,,,,,
,,613ee5c73de62443db76d074,65af55f44ec9136d74dc74c3,2024-01-23_08h01.33.738,bars,2023.2.3,Win32,59.52380952,657b66ea316d21385b68909f,,,,,,,,,,,1274.4383,1275.4364,,,1275.9372,1276.1884,,115,115,,,,,,,,,,,,,,,,bars/034.png,bars/mask009.png,,,,,,,,,,,,4,1,,,,,,,8,1,6,0,,,,,,,,,,,1275.4366,1275.9371,1276.1885,1278.747,space,2.5405,,1278.7471,10,50,1279.7452,1279.7452,1279.7774,,,,0,3,3,3,1,125,65,,,,,,,,
,,613ee5c73de62443db76d074,65af55f44ec9136d74dc74c3,2024-01-23_08h01.33.738,bars,2023.2.3,Win32,59.52380952,657b66ea316d21385b68909f,,,,,,,,,,,1279.7785,1280.7714,,,1281.2709,1281.5187,,168,-12,,,,,,,,,,,,,,,,bars/013.png,bars/mask005.png,,,,,,,,,,,,0,2,,,,,,,10,0,10,1,,,,,,,,,,,1280.7715,1281.2708,1281.5188,1285.3396,space,3.8018,,1285.3397,87,22,1286.3305,1286.3309,1286.3934,,,,0,4,4,4,1,75,10,,,,,,,,
,,613ee5c73de62443db76d074,65af55f44ec9136d74dc74c3,2024-01-23_08h01.33.738,bars,2023.2.3,Win32,59.52380952,657b66ea316d21385b68909f,,,,,,,,,,,1286.395,1287.3913,,,1287.8938,1288.1405,,169,169,,,,,,,,,,,,,,,,bars/018.png,bars/mask008.png,,,,,,,,,,,,3,1,,,,,,,8,0,9,1,,,,,,,,,,,1287.3914,1287.8937,1288.1406,1291.011,space,2.8601,,1291.0112,19,79,1292.0059,1292.006,1292.0398,,,,0,5,5,5,1,150,90,,,,,,,,
,,613ee5c73de62443db76d074,65af55f44ec9136d74dc74c3,2024-01-23_08h01.33.738,bars,2023.2.3,Win32,59.52380952,657b66ea316d21385b68909f,,,,,,,,,,,1292.0404,1293.0417,,,1293.5297,1293.7767,,32,32,,,,,,,,,,,,,,,,bars/003.png,bars/mask005.png,,,,,,,,,,,,5,1,,,,,,,6,2,7,2,,,,,,,,,,,1293.0418,1293.5296,1293.7767,1295.893,space,2.1013,,1295.8932,7,72,1296.8968,1296.8968,1296.9442,,,,0,6,6,6,1,25,140,,,,,,,,
,,613ee5c73de62443db76d074,65af55f44ec9136d74dc74c3,2024-01-23_08h01.33.738,bars,2023.2.3,Win32,59.52380952,657b66ea316d21385b68909f,,,,,,,,,,,1296.9452,1297.948,,,1298.4467,1298.694,,150,150,,,,,,,,,,,,,,,,bars/021.png,bars/mask003.png,,,,,,,,,,,,8,1,,,,,,,8,0,9,0,,,,,,,,,,,1297.948,1298.4465,1298.6941,1300.1975,space,1.4876,,1300.1976,5,80,1301.1891,1301.1891,1301.2239,,,,0,7,7,7,1,155,70,,,,,,,,
,,613ee5c73de62443db76d074,65af55f44ec9136d74dc74c3,2024-01-23_08h01.33.738,bars,2023.2.3,Win32,59.52380952,657b66ea316d21385b68909f,,,,,,,,,,,1301.2248,1302.2242,,,1302.7265,1302.9753,,89,89,,,,,,,,,,,,,,,,bars/044.png,bars/mask008.png,,,,,,,,,,,,3,1,,,,,,,6,2,6,2,,,,,,,,,,,1302.2244,1302.7264,1302.9753,1306.8797,space,3.8921,,1306.8798,14,66,1307.8783,1307.8784,1307.9135,,,,0,8,8,8,1,75,155,,,,,,,,
,,613ee5c73de62443db76d074,65af55f44ec9136d74dc74c3,2024-01-23_08h01.33.738,bars,2023.2.3,Win32,59.52380952,657b66ea316d21385b68909f,,,,,,,,,,,1307.9141,1308.915,,,1309.4135,1309.6557,,78,78,,,,,,,,,,,,,,,,bars/014.png,bars/mask001.png,,,,,,,,,,,,6,1,,,,,,,8,0,6,0,,,,,,,,,,,1308.915,1309.4135,1309.6558,1311.6124,space,1.9443,,1311.6125,2,78,1312.5863,1312.5867,1312.5936,,,,0,9,9,9,1,80,0,,,,,,,,
,,613ee5c73de62443db76d074,65af55f44ec9136d74dc74c3,2024-01-23_08h01.33.738,bars,2023.2.3,Win32,59.52380952,657b66ea316d21385b68909f,,,,,,,,,,,1312.5946,1313.5914,,,1314.093,1314.3451,,68,68,,,,,,,,,,,,,,,,bars/001.png,bars/mask006.png,,,,,,,,,,,,0,2,,,,,,,10,2,10,1,,,,,,,,,,,1313.5914,1314.0928,1314.3452,1316.8667,space,2.5108,,1316.8668,62,17,1317.8635,1317.8637,1317.898,,,,0,10,10,10,1,130,85,,,,,,,,
,,613ee5c73de62443db76d074,65af55f44ec9136d74dc74c3,2024-01-23_08h01.33.738,bars,2023.2.3,Win32,59.52380952,657b66ea316d21385b68909f,,,,,,,,,,,1317.8997,1318.8943,,,1319.3941,1319.6457,,163,-17,,,,,,,,,,,,,,,,bars/007.png,bars/mask006.png,,,,,,,,,,,,6,1,,,,,,,10,4,10,4,,,,,,,,,,,1318.8945,1319.394,1319.6457,1322.7843,space,3.1235,,1322.7844,12,72,1323.7796,1323.7797,1323.895,,,,0,11,11,11,1,175,55,,,,,,,,
,,613ee5c73de62443db76d074,65af55f44ec9136d74dc74c3,2024-01-23_08h01.33.738,bars,2023.2.3,Win32,59.52380952,657b66ea316d21385b68909f,,,,,,,,,,,1323.8956,1324.8955,,,1325.3968,1325.6471,,66,66,,,,,,,,,,,,,,,,bars/044.png,bars/mask006.png,,,,,,,,,,,,6,1,,,,,,,10,2,8,2,,,,,,,,,,,1324.8956,1325.3947,1325.6472,1330.684,space,5.0247,,1330.6841,9,89,1331.6819,1331.6819,1331.7142,,,,0,12,12,12,1,75,155,,,,,,,,
,,613ee5c73de62443db76d074,65af55f44ec9136d74dc74c3,2024-01-23_08h01.33.738,bars,2023.2.3,Win32,59.52380952,657b66ea316d21385b68909f,,,,,,,,,,,1331.7148,1332.7148,,,1333.2066,1333.4269,,20,200,,,,,,,,,,,,,,,,bars/012.png,bars/mask000.png,,,,,,,,,,,,3,2,,,,,,,8,4,8,4,,,,,,,,,,,1332.7149,1333.2066,1333.427,1336.2186,space,2.7798,,1336.2187,70,5,1337.2156,1337.2156,1337.2212,,,,0,13,13,13,1,90,15,,,,,,,,
,,613ee5c73de62443db76d074,65af55f44ec9136d74dc74c3,2024-01-23_08h01.33.738,bars,2023.2.3,Win32,59.52380952,657b66ea316d21385b68909f,,,,,,,,,,,1337.2219,1338.229,,,1338.7245,1338.9736,,56,56,,,,,,,,,,,,,,,,bars/044.png,bars/mask002.png,,,,,,,,,,,,3,1,,,,,,,10,6,9,7,,,,,,,,,,,1338.229,1338.7244,1338.9737,1344.1146,space,5.1215,,1344.1147,19,81,1345.117,1345.1171,1345.1714,,,,0,14,14,14,1,75,155,,,,,,,,
,,613ee5c73de62443db76d074,65af55f44ec9136d74dc74c3,2024-01-23_08h01.33.738,bars,2023.2.3,Win32,59.52380952,657b66ea316d21385b68909f,,,,,,,,,,,1345.1722,1346.171,,,1346.6675,1346.9081,,32,32,,,,,,,,,,,,,,,,bars/005.png,bars/mask008.png,,,,,,,,,,,,2,1,,,,,,,8,8,9,8,,,,,,,,,,,1346.1712,1346.6674,1346.9082,1351.0088,space,4.087,,1351.0089,22,72,1351.9988,1351.9988,1352.0356,,,,0,15,15,15,1,10,140,,,,,,,,
,,613ee5c73de62443db76d074,65af55f44ec9136d74dc74c3,2024-01-23_08h01.33.738,bars,2023.2.3,Win32,59.52380952,657b66ea316d21385b68909f,,,,,,,,,,,1352.037,1353.0367,,,1353.538,1353.7852,,154,154,,,,,,,,,,,,,,,,bars/033.png,bars/mask009.png,,,,,,,,,,,,9,2,,,,,,,6,10,8,9,,,,,,,,,,,1353.0369,1353.538,1353.7852,1359.5217,space,5.7223,,1359.5217,51,1,1360.5195,1360.5196,1360.5578,,,,0,16,16,16,1,25,155,,,,,,,,
,,613ee5c73de62443db76d074,65af55f44ec9136d74dc74c3,2024-01-23_08h01.33.738,bars,2023.2.3,Win32,59.52380952,657b66ea316d21385b68909f,,,,,,,,,,,1360.5591,1361.556,,,1362.0544,1362.2955,,82,82,,,,,,,,,,,,,,,,bars/011.png,bars/mask007.png,,,,,,,,,,,,9,2,,,,,,,4,10,3,10,,,,,,,,,,,1361.5561,1362.0543,1362.2956,1366.0187,space,3.6813,,1366.0188,78,3,1367.0203,1367.0205,1367.0478,,,,0,17,17,17,1,160,85,,,,,,,,
,,613ee5c73de62443db76d074,65af55f44ec9136d74dc74c3,2024-01-23_08h01.33.738,bars,2023.2.3,Win32,59.52380952,657b66ea316d21385b68909f,,,,,,,,,,,1367.0512,1368.0553,,,1368.5549,1368.8059,,166,-14,,,,,,,,,,,,,,,,bars/024.png,bars/mask008.png,,,,,,,,,,,,8,2,,,,,,,2,10,1,9,,,,,,,,,,,1368.0554,1368.5549,1368.806,1371.9094,space,3.0875,,1371.9095,46,4,1372.904,1372.9041,1372.9411,,,,0,18,18,18,1,120,170,,,,,,,,
,,613ee5c73de62443db76d074,65af55f44ec9136d74dc74c3,2024-01-23_08h01.33.738,bars,2023.2.3,Win32,59.52380952,657b66ea316d21385b68909f,,,,,,,,,,,1372.9422,1373.9361,,,1374.4249,1374.6699,,160,160,,,,,,,,,,,,,,,,bars/045.png,bars/mask002.png,,,,,,,,,,,,0,2,,,,,,,0,8,0,8,,,,,,,,,,,1373.9362,1374.4248,1374.6699,1376.8603,space,2.1776,,1376.8604,60,30,1377.864,1377.8643,1377.938,,,,0,19,19,19,1,100,10,,,,,,,,
,,613ee5c73de62443db76d074,65af55f44ec9136d74dc74c3,2024-01-23_08h01.33.738,bars,2023.2.3,Win32,59.52380952,657b66ea316d21385b68909f,,,,,,,,,,,1377.939,1378.9624,,,1379.4433,1379.6896,,37,37,,,,,,,,,,,,,,,,bars/003.png,bars/mask001.png,,,,,,,,,,,,1,1,,,,,,,0,10,1,10,,,,,,,,,,,1378.9625,1379.4433,1379.6896,1382.3429,space,2.6405,,1382.343,12,77,1383.3415,1383.3416,1383.3782,,,,0,20,20,20,1,25,140,,,,,,,,
,,613ee5c73de62443db76d074,65af55f44ec9136d74dc74c3,2024-01-23_08h01.33.738,bars,2023.2.3,Win32,59.52380952,657b66ea316d21385b68909f,,,,,,,,,,,1383.379,1384.3764,,,1384.8741,1385.1162,,146,146,,,,,,,,,,,,,,,,bars/003.png,bars/mask006.png,,,,,,,,,,,,7,2,,,,,,,0,10,0,9,,,,,,,,,,,1384.3765,1384.873,1385.1163,1387.0757,space,1.9431,,1387.0759,59,6,1388.0784,1388.0785,1388.118,,,,0,21,21,21,1,25,140,,,,,,,,
,,613ee5c73de62443db76d074,65af55f44ec9136d74dc74c3,2024-01-23_08h01.33.738,bars,2023.2.3,Win32,59.52380952,657b66ea316d21385b68909f,,,,,,,,,,,1388.1203,1389.1087,,,1389.608,1389.8558,,107,107,,,,,,,,,,,,,,,,bars/028.png,bars/mask008.png,,,,,,,,,,,,6,2,,,,,,,2,10,2,10,,,,,,,,,,,1389.1088,1389.6079,1389.8559,1393.1901,space,3.3187,,1393.1902,62,13,1394.1937,1394.1938,1394.2298,,,,0,22,22,22,1,45,120,,,,,,,,
,,613ee5c73de62443db76d074,65af55f44ec9136d74dc74c3,2024-01-23_08h01.33.738,bars,2023.2.3,Win32,59.52380952,657b66ea316d21385b68909f,,,,,,,,,,,1394.2304,1395.226,,,1395.7158,1395.9669,,108,108,,,,,,,,,,,,,,,,bars/015.png,bars/mask008.png,,,,,,,,,,,,3,1,,,,,,,4,10,3,9,,,,,,,,,,,1395.2261,1395.7157,1395.967,1400.6645,space,4.6848,,1400.6646,2,52,1401.6605,1401.6606,1401.6947,,,,0,23,23,23,1,110,160,,,,,,,,
,,613ee5c73de62443db76d074,65af55f44ec9136d74dc74c3,2024-01-23_08h01.33.738,bars,2023.2.3,Win32,59.52380952,657b66ea316d21385b68909f,,,,,,,,,,,1401.6954,1402.695,,,1403.2,1403.4489,,121,121,,,,,,,,,,,,,,,,bars/028.png,bars/mask001.png,,,,,,,,,,,,8,2,,,,,,,2,10,2,8,,,,,,,,,,,1402.6951,1403.1999,1403.449,1405.5866,space,2.1205,,1405.5867,76,1,1406.5845,1406.5846,1406.62,,,,0,24,24,24,1,45,120,,,,,,,,
,,613ee5c73de62443db76d074,65af55f44ec9136d74dc74c3,2024-01-23_08h01.33.738,bars,2023.2.3,Win32,59.52380952,657b66ea316d21385b68909f,,,,,,,,,,,1406.6205,1407.6112,,,1408.1,1408.3452,,11,191,,,,,,,,,,,,,,,,bars/012.png,bars/mask004.png,,,,,,,,,,,,9,2,,,,,,,0,10,0,10,,,,,,,,,,,1407.6114,1408.0998,1408.3454,1411.843,space,3.4846,,1411.8431,79,4,1412.8449,1412.845,1412.8798,,,,0,25,25,25,1,90,15,,,,,,,,
,,613ee5c73de62443db76d074,65af55f44ec9136d74dc74c3,2024-01-23_08h01.33.738,bars,2023.2.3,Win32,59.52380952,657b66ea316d21385b68909f,,,,,,,,,,,1412.8805,1413.8816,,,1414.3771,1414.629,,49,49,,,,,,,,,,,,,,,,bars/034.png,bars/mask005.png,,,,,,,,,,,,5,2,,,,,,,0,10,0,10,,,,,,,,,,,1413.8816,1414.3771,1414.6291,1417.6728,space,3.0317,,1417.6728,76,16,1418.6613,1418.6614,1418.6907,,,,0,26,26,26,1,125,65,,,,,,,,
,,613ee5c73de62443db76d074,65af55f44ec9136d74dc74c3,2024-01-23_08h01.33.738,bars,2023.2.3,Win32,59.52380952,657b66ea316d21385b68909f,,,,,,,,,,,1418.6932,1419.6843,,,1420.1687,1420.4218,,148,-32,,,,,,,,,,,,,,,,bars/020.png,bars/mask002.png,,,,,,,,,,,,2,2,,,,,,,0,8,0,6,,,,,,,,,,,1419.6844,1420.1685,1420.4218,1422.9837,space,2.5404,,1422.9837,33,22,1423.9861,1423.9862,1424.0489,,,,0,27,27,27,1,115,170,,,,,,,,
,,613ee5c73de62443db76d074,65af55f44ec9136d74dc74c3,2024-01-23_08h01.33.738,bars,2023.2.3,Win32,59.52380952,657b66ea316d21385b68909f,,,,,,,,,,,1424.0514,1425.0496,,,1425.5535,1425.796,,74,74,,,,,,,,,,,,,,,,bars/011.png,bars/mask008.png,,,,,,,,,,,,3,2,,,,,,,2,6,2,5,,,,,,,,,,,1425.0497,1425.5533,1425.7961,1428.1012,space,2.29,,1428.1013,86,11,1429.1147,1429.1147,1429.1459,,,,0,28,28,28,1,160,85,,,,,,,,
,,613ee5c73de62443db76d074,65af55f44ec9136d74dc74c3,2024-01-23_08h01.33.738,bars,2023.2.3,Win32,59.52380952,657b66ea316d21385b68909f,,,,,,,,,,,1429.1469,1430.1364,,,1430.6302,1430.8843,,17,197,,,,,,,,,,,,,,,,bars/040.png,bars/mask000.png,,,,,,,,,,,,5,2,,,,,,,0,8,0,8,,,,,,,,,,,1430.1364,1430.6302,1430.8846,1434.5574,space,3.6576,,1434.5574,57,12,1435.5503,1435.5504,1435.5905,,,,0,29,29,29,1,140,5,,,,,,,,
,,613ee5c73de62443db76d074,65af55f44ec9136d74dc74c3,2024-01-23_08h01.33.738,bars,2023.2.3,Win32,59.52380952,657b66ea316d21385b68909f,,,,,,,,,,,1435.5928,1436.5847,,,1437.0766,1437.3179,,35,35,,,,,,,,,,,,,,,,bars/025.png,bars/mask004.png,,,,,,,,,,,,6,2,,,,,,,0,6,0,7,,,,,,,,,,,1436.5848,1437.0765,1437.3179,1439.0869,space,1.755,,1439.087,70,5,1440.0841,1440.0842,1440.0874,,,,0,30,30,30,1,105,40,,,,,,,,
,,613ee5c73de62443db76d074,65af55f44ec9136d74dc74c3,2024-01-23_08h01.33.738,bars,2023.2.3,Win32,59.52380952,657b66ea316d21385b68909f,,,,,,,,,,,1440.088,1441.0843,,,1441.5846,1441.8379,,60,60,,,,,,,,,,,,,,,,bars/029.png,bars/mask009.png,,,,,,,,,,,,5,2,,,,,,,0,8,1,10,,,,,,,,,,,1441.0849,1441.5845,1441.838,1444.6772,space,2.8262,,1444.6772,30,15,1445.669,1445.6691,1445.7014,,,,0,31,31,31,1,90,45,,,,,,,,
,,613ee5c73de62443db76d074,65af55f44ec9136d74dc74c3,2024-01-23_08h01.33.738,bars,2023.2.3,Win32,59.52380952,657b66ea316d21385b68909f,,,,,,,,,,,1445.7033,1446.6998,,,1447.1896,1447.4347,,39,39,,,,,,,,,,,,,,,,bars/010.png,bars/mask000.png,,,,,,,,,,,,5,2,,,,,,,0,10,0,10,,,,,,,,,,,1446.6998,1447.1895,1447.4348,1451.3063,space,3.8558,,1451.3063,54,16,1452.304,1452.3042,1452.3369,,,,0,32,32,32,1,165,55,,,,,,,,
,,613ee5c73de62443db76d074,65af55f44ec9136d74dc74c3,2024-01-23_08h01.33.738,bars,2023.2.3,Win32,59.52380952,657b66ea316d21385b68909f,,,,,,,,,,,1452.3379,1453.3349,,,1453.835,1454.0764,,45,45,,,,,,,,,,,,,,,,bars/010.png,bars/mask006.png,,,,,,,,,,,,6,2,,,,,,,0,10,0,9,,,,,,,,,,,1453.335,1453.8348,1454.0765,1456.0104,space,1.9171,,1456.0106,60,10,1457.0068,1457.0069,1457.0413,,,,0,33,33,33,1,165,55,,,,,,,,
,,613ee5c73de62443db76d074,65af55f44ec9136d74dc74c3,2024-01-23_08h01.33.738,bars,2023.2.3,Win32,59.52380952,657b66ea316d21385b68909f,,,,,,,,,,,1457.0419,1458.0363,,,1458.5359,1458.7766,,108,108,,,,,,,,,,,,,,,,bars/046.png,bars/mask001.png,,,,,,,,,,,,2,2,,,,,,,2,8,1,7,,,,,,,,,,,1458.0364,1458.5359,1458.7766,1462.6921,space,3.902,,1462.6923,47,23,1463.6891,1463.6893,1463.7159,,,,0,34,34,34,1,155,85,,,,,,,,
,,613ee5c73de62443db76d074,65af55f44ec9136d74dc74c3,2024-01-23_08h01.33.738,bars,2023.2.3,Win32,59.52380952,657b66ea316d21385b68909f,,,,,,,,,,,1463.7181,1464.7068,,,1465.2082,1465.4576,,35,35,,,,,,,,,,,,,,,,bars/027.png,bars/mask002.png,,,,,,,,,,,,4,2,,,,,,,0,6,0,7,,,,,,,,,,,1464.7068,1465.2081,1465.4577,1467.3249,space,1.8476,,1467.3249,75,15,1468.3277,1468.3279,1468.3305,,,,0,35,35,35,1,110,50,,,,,,,,
,,613ee5c73de62443db76d074,65af55f44ec9136d74dc74c3,2024-01-23_08h01.33.738,bars,2023.2.3,Win32,59.52380952,657b66ea316d21385b68909f,,,,,,,,,,,1468.3325,1469.3267,,,1469.8146,1470.056,,95,95,,,,,,,,,,,,,,,,bars/011.png,bars/mask006.png,,,,,,,,,,,,5,2,,,,,,,0,8,2,8,,,,,,,,,,,1469.3268,1469.8146,1470.0561,1474.3461,space,4.273,,1474.3462,65,10,1475.3446,1475.3448,1475.3848,,,,0,36,36,36,1,160,85,,,,,,,,
,,613ee5c73de62443db76d074,65af55f44ec9136d74dc74c3,2024-01-23_08h01.33.738,bars,2023.2.3,Win32,59.52380952,657b66ea316d21385b68909f,,,,,,,,,,,1475.3901,1476.39,,,1476.8784,1477.1298,,118,118,,,,,,,,,,,,,,,,bars/028.png,bars/mask007.png,,,,,,,,,,,,7,2,,,,,,,0,6,0,7,,,,,,,,,,,1476.3902,1476.8783,1477.13,1479.0498,space,1.904,,1479.0499,73,2,1480.0437,1480.0438,1480.084,,,,0,37,37,37,1,45,120,,,,,,,,
,,613ee5c73de62443db76d074,65af55f44ec9136d74dc74c3,2024-01-23_08h01.33.738,bars,2023.2.3,Win32,59.52380952,657b66ea316d21385b68909f,,,,,,,,,,,1480.085,1481.0751,,,1481.5762,1481.8249,,113,113,,,,,,,,,,,,,,,,bars/049.png,bars/mask005.png,,,,,,,,,,,,8,2,,,,,,,0,8,1,9,,,,,,,,,,,1481.0753,1481.5761,1481.825,1484.7801,space,2.9429,,1484.7801,47,2,1485.7487,1485.7487,1485.7861,,,,0,38,38,38,1,160,115,,,,,,,,
,,613ee5c73de62443db76d074,65af55f44ec9136d74dc74c3,2024-01-23_08h01.33.738,bars,2023.2.3,Win32,59.52380952,657b66ea316d21385b68909f,,,,,,,,,,,1485.7867,1486.7772,,,1487.2679,1487.5137,,152,152,,,,,,,,,,,,,,,,bars/004.png,bars/mask001.png,,,,,,,,,,,,1,2,,,,,,,2,6,2,7,,,,,,,,,,,1486.7773,1487.2678,1487.5138,1491.2536,space,3.7205,,1491.2538,53,27,1492.2453,1492.2453,1492.2767,,,,0,39,39,39,1,25,125,,,,,,,,
,,613ee5c73de62443db76d074,65af55f44ec9136d74dc74c3,2024-01-23_08h01.33.738,bars,2023.2.3,Win32,59.52380952,657b66ea316d21385b68909f,,,,,,,,,,,1492.2773,1493.2778,,,1493.7715,1494.0144,,62,62,,,,,,,,,,,,,,,,bars/041.png,bars/mask007.png,,,,,,,,,,,,1,2,,,,,,,4,4,5,3,,,,,,,,,,,1493.278,1493.7715,1494.0145,1496.295,space,2.2584,,1496.2951,42,23,1497.2964,1497.2966,1497.3684,,,,0,40,40,40,1,20,85,,,,,,,,
,,613ee5c73de62443db76d074,65af55f44ec9136d74dc74c3,2024-01-23_08h01.33.738,bars,2023.2.3,Win32,59.52380952,657b66ea316d21385b68909f,,,,,,,,,,,1497.3689,1498.3797,,,1498.915,1499.1335,,17,197,,,,,,,,,,,,,,,,bars/045.png,bars/mask002.png,,,,,,,,,,,,5,2,,,,,,,2,6,1,7,,,,,,,,,,,1498.3797,1498.915,1499.1336,1502.719,space,3.5717,,1502.7192,83,7,1503.7142,1503.7144,1503.746,,,,0,41,41,41,1,100,10,,,,,,,,
,,613ee5c73de62443db76d074,65af55f44ec9136d74dc74c3,2024-01-23_08h01.33.738,bars,2023.2.3,Win32,59.52380952,657b66ea316d21385b68909f,,,,,,,,,,,1503.7467,1504.746,,,1505.2391,1505.4833,,35,35,,,,,,,,,,,,,,,,bars/017.png,bars/mask005.png,,,,,,,,,,,,2,2,,,,,,,4,4,3,3,,,,,,,,,,,1504.7461,1505.2391,1505.4834,1507.124,space,1.6236,,1507.124,70,10,1508.1144,1508.1148,1508.1485,,,,0,42,42,42,1,145,45,,,,,,,,
,,613ee5c73de62443db76d074,65af55f44ec9136d74dc74c3,2024-01-23_08h01.33.738,bars,2023.2.3,Win32,59.52380952,657b66ea316d21385b68909f,,,,,,,,,,,1508.1492,1509.1474,,,1509.6403,1509.881,,110,110,,,,,,,,,,,,,,,,bars/019.png,bars/mask009.png,,,,,,,,,,,,5,2,,,,,,,2,6,4,6,,,,,,,,,,,1509.1475,1509.6403,1509.8818,1511.9807,space,2.0827,,1511.9808,65,5,1512.9698,1512.97,1512.9728,,,,0,43,43,43,1,45,105,,,,,,,,
,,613ee5c73de62443db76d074,65af55f44ec9136d74dc74c3,2024-01-23_08h01.33.738,bars,2023.2.3,Win32,59.52380952,657b66ea316d21385b68909f,,,,,,,,,,,1512.9739,1513.9662,,,1514.4665,1514.715,,162,162,,,,,,,,,,,,,,,,bars/024.png,bars/mask002.png,,,,,,,,,,,,6,2,,,,,,,0,8,0,8,,,,,,,,,,,1513.9664,1514.4664,1514.7152,1516.6282,space,1.8995,,1516.6283,42,8,1517.6299,1517.63,1517.6576,,,,0,44,44,44,1,120,170,,,,,,,,
,,613ee5c73de62443db76d074,65af55f44ec9136d74dc74c3,2024-01-23_08h01.33.738,bars,2023.2.3,Win32,59.52380952,657b66ea316d21385b68909f,,,,,,,,,,,1517.6585,1518.6529,,,1519.1546,1519.397,,169,169,,,,,,,,,,,,,,,,bars/049.png,bars/mask008.png,,,,,,,,,,,,1,1,,,,,,,2,6,1,7,,,,,,,,,,,1518.6529,1519.1544,1519.3971,1522.3171,space,2.9011,,1522.3173,9,54,1523.3177,1523.3178,1523.3523,,,,0,45,45,45,1,160,115,,,,,,,,
,,613ee5c73de62443db76d074,65af55f44ec9136d74dc74c3,2024-01-23_08h01.33.738,bars,2023.2.3,Win32,59.52380952,657b66ea316d21385b68909f,,,,,,,,,,,1523.3529,1524.3502,,,1524.8569,1525.1062,,93,93,,,,,,,,,,,,,,,,bars/009.png,bars/mask003.png,,,,,,,,,,,,2,2,,,,,,,0,4,0,4,,,,,,,,,,,1524.3503,1524.8569,1525.1065,1529.1885,space,4.0648,,1529.1886,78,12,1530.1691,1530.1692,1530.2088,,,,0,46,46,46,1,15,105,,,,,,,,
,,613ee5c73de62443db76d074,65af55f44ec9136d74dc74c3,2024-01-23_08h01.33.738,bars,2023.2.3,Win32,59.52380952,657b66ea316d21385b68909f,,,,,,,,,,,1530.2095,1531.2089,,,1531.7017,1531.9494,,79,79,,,,,,,,,,,,,,,,bars/006.png,bars/mask000.png,,,,,,,,,,,,2,2,,,,,,,2,6,2,6,,,,,,,,,,,1531.209,1531.7016,1531.9495,1534.1915,space,2.229,,1534.1916,44,21,1535.1878,1535.188,1535.1899,,,,0,47,47,47,1,35,100,,,,,,,,
,,613ee5c73de62443db76d074,65af55f44ec9136d74dc74c3,2024-01-23_08h01.33.738,bars,2023.2.3,Win32,59.52380952,657b66ea316d21385b68909f,,,,,,,,,,,1535.1905,1536.19,,,1536.685,1536.9358,,33,213,,,,,,,,,,,,,,,,bars/000.png,bars/mask004.png,,,,,,,,,,,,0,1,,,,,,,0,4,0,3,,,,,,,,,,,1536.1901,1536.6849,1536.9361,1540.0092,space,3.0609,,1540.0093,7,68,1541.009,1541.0091,1541.0452,,,,0,48,48,48,1,40,145,,,,,,,,
,,613ee5c73de62443db76d074,65af55f44ec9136d74dc74c3,2024-01-23_08h01.33.738,bars,2023.2.3,Win32,59.52380952,657b66ea316d21385b68909f,,,,,,,,,,,1541.0457,1542.039,,,1542.5381,1542.7874,,56,56,,,,,,,,,,,,,,,,bars/025.png,bars/mask003.png,,,,,,,,,,,,1,2,,,,,,,2,2,2,3,,,,,,,,,,,1542.0393,1542.538,1542.7875,1544.5719,space,1.7722,,1544.5719,49,16,1545.5761,1545.5762,1545.6018,,,,0,49,49,49,1,105,40,,,,,,,,
,,613ee5c73de62443db76d074,65af55f44ec9136d74dc74c3,2024-01-23_08h01.33.738,bars,2023.2.3,Win32,59.52380952,657b66ea316d21385b68909f,,,,,,,,,,,,,,,,,,,,,,,,,,,,,,,,,,,,,,,,,,,,,,,,,,,,,,,,,,,,,,,,,,,,,,,,,,,,,,,,,,,,,,,,,,,,,1545.6022,1605.5999,0,2,2,0,1,sequence_tables/blk043.csv
,,613ee5c73de62443db76d074,65af55f44ec9136d74dc74c3,2024-01-23_08h01.33.738,bars,2023.2.3,Win32,59.52380952,657b66ea316d21385b68909f,,,,,,,,,,,1627.0934,1628.0545,,,1628.5547,1628.7913,,48,48,,,,,,,,,,,,,,,,bars/010.png,bars/mask007.png,,,,,,,,,,,,8,2,,,,,,,9,9,7,10,,,,,,1605.6466,1627.0405,space,21.381,,1628.0547,1628.5546,1628.7915,1630.4586,space,1.6513,,1630.4587,63,7,1631.4585,1631.4587,1631.4952,,,,0,0,0,0,1,165,55,,,,,,,,
,,613ee5c73de62443db76d074,65af55f44ec9136d74dc74c3,2024-01-23_08h01.33.738,bars,2023.2.3,Win32,59.52380952,657b66ea316d21385b68909f,,,,,,,,,,,1631.4959,1632.4968,,,1632.988,1633.2356,,157,157,,,,,,,,,,,,,,,,bars/033.png,bars/mask007.png,,,,,,,,,,,,9,2,,,,,,,7,10,7,10,,,,,,,,,,,1632.4969,1632.9878,1633.2357,1636.9973,space,3.7464,,1636.9974,48,2,1637.9888,1637.989,1638.0193,,,,0,1,1,1,1,25,155,,,,,,,,
,,613ee5c73de62443db76d074,65af55f44ec9136d74dc74c3,2024-01-23_08h01.33.738,bars,2023.2.3,Win32,59.52380952,657b66ea316d21385b68909f,,,,,,,,,,,1638.02,1639.0231,,,1639.5233,1639.7602,,29,29,,,,,,,,,,,,,,,,bars/032.png,bars/mask006.png,,,,,,,,,,,,6,2,,,,,,,9,8,9,8,,,,,,,,,,,1639.0232,1639.5232,1639.7604,1642.0274,space,2.2504,,1642.0274,84,9,1643.0238,1643.024,1643.0261,,,,0,2,2,2,1,125,20,,,,,,,,
,,613ee5c73de62443db76d074,65af55f44ec9136d74dc74c3,2024-01-23_08h01.33.738,bars,2023.2.3,Win32,59.52380952,657b66ea316d21385b68909f,,,,,,,,,,,1643.0266,1644.0243,,,1644.5272,1644.7747,,56,56,,,,,,,,,,,,,,,,bars/035.png,bars/mask000.png,,,,,,,,,,,,6,2,,,,,,,10,6,8,7,,,,,,,,,,,1644.0244,1644.527,1644.7748,1647.6153,space,2.826,,1647.6154,61,4,1648.6071,1648.6072,1648.6386,,,,0,3,3,3,1,175,60,,,,,,,,
,,613ee5c73de62443db76d074,65af55f44ec9136d74dc74c3,2024-01-23_08h01.33.738,bars,2023.2.3,Win32,59.52380952,657b66ea316d21385b68909f,,,,,,,,,,,1648.6396,1649.6383,,,1650.1386,1650.3776,,145,145,,,,,,,,,,,,,,,,bars/044.png,bars/mask003.png,,,,,,,,,,,,3,2,,,,,,,10,4,9,4,,,,,,,,,,,1649.6384,1650.1385,1650.3777,1653.861,space,3.4623,,1653.8612,70,10,1654.9004,1654.9005,1654.9576,,,,0,4,4,4,1,75,155,,,,,,,,
,,613ee5c73de62443db76d074,65af55f44ec9136d74dc74c3,2024-01-23_08h01.33.738,bars,2023.2.3,Win32,59.52380952,657b66ea316d21385b68909f,,,,,,,,,,,1654.9585,1656.0852,,,1656.4689,1656.6994,,99,99,,,,,,,,,,,,,,,,bars/041.png,bars/mask004.png,,,,,,,,,,,,2,2,,,,,,,8,2,8,3,,,,,,,,,,,1656.0853,1656.4689,1656.6994,1661.6703,space,4.9548,,1661.6704,79,14,1662.6606,1662.6608,1662.6943,,,,0,5,5,5,1,20,85,,,,,,,,
,,613ee5c73de62443db76d074,65af55f44ec9136d74dc74c3,2024-01-23_08h01.33.738,bars,2023.2.3,Win32,59.52380952,657b66ea316d21385b68909f,,,,,,,,,,,1662.695,1663.6964,,,1664.1946,1664.4443,,100,100,,,,,,,,,,,,,,,,bars/011.png,bars/mask007.png,,,,,,,,,,,,2,2,,,,,,,6,4,6,4,,,,,,,,,,,1663.6965,1664.1944,1664.4444,1666.2961,space,1.8348,,1666.2962,60,15,1667.294,1667.2941,1667.2968,,,,0,6,6,6,1,160,85,,,,,,,,
,,613ee5c73de62443db76d074,65af55f44ec9136d74dc74c3,2024-01-23_08h01.33.738,bars,2023.2.3,Win32,59.52380952,657b66ea316d21385b68909f,,,,,,,,,,,1667.2978,1668.2945,,,1668.7946,1669.0448,,32,212,,,,,,,,,,,,,,,,bars/048.png,bars/mask000.png,,,,,,,,,,,,4,1,,,,,,,8,6,9,6,,,,,,,,,,,1668.2946,1668.7945,1669.0449,1671.4003,space,2.3447,,1671.4004,18,37,1672.3965,1672.3966,1672.4315,,,,0,7,7,7,1,50,175,,,,,,,,
,,613ee5c73de62443db76d074,65af55f44ec9136d74dc74c3,2024-01-23_08h01.33.738,bars,2023.2.3,Win32,59.52380952,657b66ea316d21385b68909f,,,,,,,,,,,1672.4326,1673.4299,,,1673.9311,1674.1889,,141,-39,,,,,,,,,,,,,,,,bars/034.png,bars/mask005.png,,,,,,,,,,,,5,1,,,,,,,10,8,10,8,,,,,,,,,,,1673.4304,1673.9309,1674.189,1678.449,space,4.2353,,1678.449,16,76,1679.4465,1679.4466,1679.4783,,,,0,8,8,8,1,125,65,,,,,,,,
,,613ee5c73de62443db76d074,65af55f44ec9136d74dc74c3,2024-01-23_08h01.33.738,bars,2023.2.3,Win32,59.52380952,657b66ea316d21385b68909f,,,,,,,,,,,1679.4789,1680.4814,,,1680.9802,1681.2279,,49,49,,,,,,,,,,,,,,,,bars/007.png,bars/mask003.png,,,,,,,,,,,,8,2,,,,,,,8,10,6,10,,,,,,,,,,,1680.4814,1680.9801,1681.2282,1685.2058,space,3.9639,,1685.2059,54,6,1686.1962,1686.1963,1686.238,,,,0,9,9,9,1,175,55,,,,,,,,
,,613ee5c73de62443db76d074,65af55f44ec9136d74dc74c3,2024-01-23_08h01.33.738,bars,2023.2.3,Win32,59.52380952,657b66ea316d21385b68909f,,,,,,,,,,,1686.2386,1687.2286,,,1687.7187,1687.9686,,99,99,,,,,,,,,,,,,,,,bars/019.png,bars/mask006.png,,,,,,,,,,,,8,2,,,,,,,10,10,10,10,,,,,,,,,,,1687.2288,1687.7187,1687.9686,1689.7836,space,1.7922,,1689.7837,54,6,1690.7835,1690.7835,1690.8139,,,,0,10,10,10,1,45,105,,,,,,,,
,,613ee5c73de62443db76d074,65af55f44ec9136d74dc74c3,2024-01-23_08h01.33.738,bars,2023.2.3,Win32,59.52380952,657b66ea316d21385b68909f,,,,,,,,,,,1690.8146,1691.8151,,,1692.3036,1692.5489,,158,-22,,,,,,,,,,,,,,,,bars/014.png,bars/mask002.png,,,,,,,,,,,,3,2,,,,,,,8,10,9,10,,,,,,,,,,,1691.8153,1692.3036,1692.5489,1694.6329,space,2.0715,,1694.6331,78,22,1695.6306,1695.6306,1695.6349,,,,0,11,11,11,1,80,0,,,,,,,,
,,613ee5c73de62443db76d074,65af55f44ec9136d74dc74c3,2024-01-23_08h01.33.738,bars,2023.2.3,Win32,59.52380952,657b66ea316d21385b68909f,,,,,,,,,,,1695.6366,1696.6378,,,1697.1412,1697.3868,,154,154,,,,,,,,,,,,,,,,bars/046.png,bars/mask008.png,,,,,,,,,,,,8,1,,,,,,,10,8,8,7,,,,,,,,,,,1696.638,1697.1412,1697.3868,1700.1925,space,2.7901,,1700.1926,1,69,1701.1875,1701.1878,1701.3987,,,,0,12,12,12,1,155,85,,,,,,,,
,,613ee5c73de62443db76d074,65af55f44ec9136d74dc74c3,2024-01-23_08h01.33.738,bars,2023.2.3,Win32,59.52380952,657b66ea316d21385b68909f,,,,,,,,,,,1701.4003,1702.3999,,,1702.894,1703.1399,,69,69,,,,,,,,,,,,,,,,bars/044.png,bars/mask000.png,,,,,,,,,,,,8,1,,,,,,,10,6,10,6,,,,,,,,,,,1702.4,1702.8938,1703.1406,1704.8274,space,1.6528,,1704.8318,6,86,1705.9285,1705.9286,1705.9314,,,,0,13,13,13,1,75,155,,,,,,,,
,,613ee5c73de62443db76d074,65af55f44ec9136d74dc74c3,2024-01-23_08h01.33.738,bars,2023.2.3,Win32,59.52380952,657b66ea316d21385b68909f,,,,,,,,,,,1705.932,1706.9198,,,1707.4091,1707.6457,,111,111,,,,,,,,,,,,,,,,bars/009.png,bars/mask008.png,,,,,,,,,,,,3,2,,,,,,,8,4,9,4,,,,,,,,,,,1706.9198,1707.4091,1707.6459,1710.6772,space,2.9887,,1710.6784,84,6,1711.6668,1711.6668,1711.7059,,,,0,14,14,14,1,15,105,,,,,,,,
,,613ee5c73de62443db76d074,65af55f44ec9136d74dc74c3,2024-01-23_08h01.33.738,bars,2023.2.3,Win32,59.52380952,657b66ea316d21385b68909f,,,,,,,,,,,1711.7065,1712.7006,,,1713.206,1713.4541,,119,119,,,,,,,,,,,,,,,,bars/001.png,bars/mask008.png,,,,,,,,,,,,6,1,,,,,,,10,2,10,2,,,,,,,,,,,1712.7007,1713.2059,1713.4542,1715.7184,space,2.2508,,1715.7185,11,34,1716.7249,1716.725,1716.7772,,,,0,15,15,15,1,130,85,,,,,,,,
,,613ee5c73de62443db76d074,65af55f44ec9136d74dc74c3,2024-01-23_08h01.33.738,bars,2023.2.3,Win32,59.52380952,657b66ea316d21385b68909f,,,,,,,,,,,1716.7786,1717.771,,,1718.2611,1718.5059,,40,40,,,,,,,,,,,,,,,,bars/019.png,bars/mask005.png,,,,,,,,,,,,8,1,,,,,,,8,0,9,1,,,,,,,,,,,1717.7711,1718.261,1718.506,1722.0721,space,3.5509,,1722.0723,5,65,1723.069,1723.0691,1723.1044,,,,0,16,16,16,1,45,105,,,,,,,,
,,613ee5c73de62443db76d074,65af55f44ec9136d74dc74c3,2024-01-23_08h01.33.738,bars,2023.2.3,Win32,59.52380952,657b66ea316d21385b68909f,,,,,,,,,,,1723.1051,1724.0978,,,1724.597,1724.8483,,132,-48,,,,,,,,,,,,,,,,bars/031.png,bars/mask002.png,,,,,,,,,,,,6,1,,,,,,,10,0,10,0,,,,,,,,,,,1724.0978,1724.597,1724.8483,1728.2748,space,3.406,,1728.2749,12,83,1729.2741,1729.2742,1729.3134,,,,0,17,17,17,1,120,35,,,,,,,,
,,613ee5c73de62443db76d074,65af55f44ec9136d74dc74c3,2024-01-23_08h01.33.738,bars,2023.2.3,Win32,59.52380952,657b66ea316d21385b68909f,,,,,,,,,,,1729.314,1730.3057,,,1730.7923,1731.0384,,44,44,,,,,,,,,,,,,,,,bars/048.png,bars/mask007.png,,,,,,,,,,,,8,1,,,,,,,10,2,10,4,,,,,,,,,,,1730.3057,1730.7923,1731.0385,1733.5934,space,2.5399,,1733.5934,6,49,1734.5902,1734.5902,1734.6223,,,,0,18,18,18,1,50,175,,,,,,,,
,,613ee5c73de62443db76d074,65af55f44ec9136d74dc74c3,2024-01-23_08h01.33.738,bars,2023.2.3,Win32,59.52380952,657b66ea316d21385b68909f,,,,,,,,,,,1734.6235,1735.6241,,,1736.1242,1736.3875,,139,139,,,,,,,,,,,,,,,,bars/021.png,bars/mask007.png,,,,,,,,,,,,4,1,,,,,,,8,4,8,4,,,,,,,,,,,1735.6242,1736.124,1736.3876,1739.2449,space,2.8265,,1739.2452,16,69,1740.2388,1740.2388,1740.2672,,,,0,19,19,19,1,155,70,,,,,,,,
,,613ee5c73de62443db76d074,65af55f44ec9136d74dc74c3,2024-01-23_08h01.33.738,bars,2023.2.3,Win32,59.52380952,657b66ea316d21385b68909f,,,,,,,,,,,1740.2678,1741.2609,,,1741.7581,1741.9971,,143,143,,,,,,,,,,,,,,,,bars/036.png,bars/mask008.png,,,,,,,,,,,,8,1,,,,,,,10,6,9,5,,,,,,,,,,,1741.261,1741.758,1741.9972,1745.2313,space,3.2181,,1745.2314,2,57,1746.2261,1746.2263,1746.2616,,,,0,20,20,20,1,145,20,,,,,,,,
,,613ee5c73de62443db76d074,65af55f44ec9136d74dc74c3,2024-01-23_08h01.33.738,bars,2023.2.3,Win32,59.52380952,657b66ea316d21385b68909f,,,,,,,,,,,1746.2628,1747.2591,,,1747.7631,1748.0071,,53,53,,,,,,,,,,,,,,,,bars/004.png,bars/mask001.png,,,,,,,,,,,,1,1,,,,,,,8,4,9,4,,,,,,,,,,,1747.2592,1747.7629,1748.0071,1752.3183,space,4.2978,,1752.3183,28,72,1753.3301,1753.3302,1753.3705,,,,0,21,21,21,1,25,125,,,,,,,,
,,613ee5c73de62443db76d074,65af55f44ec9136d74dc74c3,2024-01-23_08h01.33.738,bars,2023.2.3,Win32,59.52380952,657b66ea316d21385b68909f,,,,,,,,,,,1753.375,1754.3752,,,1754.8753,1755.1284,,138,138,,,,,,,,,,,,,,,,bars/042.png,bars/mask002.png,,,,,,,,,,,,6,1,,,,,,,6,6,8,5,,,,,,,,,,,1754.3755,1754.8752,1755.1285,1759.9354,space,4.7745,,1759.9355,7,63,1760.9327,1760.9327,1760.9684,,,,0,22,22,22,1,145,75,,,,,,,,
,,613ee5c73de62443db76d074,65af55f44ec9136d74dc74c3,2024-01-23_08h01.33.738,bars,2023.2.3,Win32,59.52380952,657b66ea316d21385b68909f,,,,,,,,,,,1760.969,1761.9637,,,1762.464,1762.7097,,143,143,,,,,,,,,,,,,,,,bars/040.png,bars/mask007.png,,,,,,,,,,,,7,1,,,,,,,8,4,8,2,,,,,,,,,,,1761.9639,1762.4639,1762.7098,1765.4997,space,2.7769,,1765.4998,3,42,1766.4953,1766.4953,1766.528,,,,0,23,23,23,1,140,5,,,,,,,,
,,613ee5c73de62443db76d074,65af55f44ec9136d74dc74c3,2024-01-23_08h01.33.738,bars,2023.2.3,Win32,59.52380952,657b66ea316d21385b68909f,,,,,,,,,,,1766.5286,1767.5218,,,1768.0176,1768.2629,,153,-27,,,,,,,,,,,,,,,,bars/040.png,bars/mask003.png,,,,,,,,,,,,6,1,,,,,,,10,6,10,6,,,,,,,,,,,1767.5218,1768.0173,1768.2629,1773.4698,space,5.1949,,1773.4699,13,32,1774.4701,1774.4702,1774.5229,,,,0,24,24,24,1,140,5,,,,,,,,
,,613ee5c73de62443db76d074,65af55f44ec9136d74dc74c3,2024-01-23_08h01.33.738,bars,2023.2.3,Win32,59.52380952,657b66ea316d21385b68909f,,,,,,,,,,,1774.5235,1775.5183,,,1776.0151,1776.2536,,41,41,,,,,,,,,,,,,,,,bars/019.png,bars/mask006.png,,,,,,,,,,,,6,1,,,,,,,8,4,7,4,,,,,,,,,,,1775.5184,1776.0148,1776.2536,1782.1848,space,5.9096,,1782.1849,4,64,1783.1841,1783.1842,1783.2172,,,,0,25,25,25,1,45,105,,,,,,,,
,,613ee5c73de62443db76d074,65af55f44ec9136d74dc74c3,2024-01-23_08h01.33.738,bars,2023.2.3,Win32,59.52380952,657b66ea316d21385b68909f,,,,,,,,,,,1783.2179,1784.2163,,,1784.721,1784.9657,,34,214,,,,,,,,,,,,,,,,bars/003.png,bars/mask003.png,,,,,,,,,,,,6,1,,,,,,,10,6,9,6,,,,,,,,,,,1784.2164,1784.7207,1784.9659,1787.6869,space,2.7089,,1787.6869,9,74,1788.6849,1788.6849,1788.7148,,,,0,26,26,26,1,25,140,,,,,,,,
,,613ee5c73de62443db76d074,65af55f44ec9136d74dc74c3,2024-01-23_08h01.33.738,bars,2023.2.3,Win32,59.52380952,657b66ea316d21385b68909f,,,,,,,,,,,1788.7156,1789.7167,,,1790.2061,1790.457,,16,16,,,,,,,,,,,,,,,,bars/003.png,bars/mask008.png,,,,,,,,,,,,6,1,,,,,,,8,4,9,4,,,,,,,,,,,1789.717,1790.206,1790.4571,1793.8365,space,3.3654,,1793.8366,9,56,1794.8398,1794.8398,1794.8854,,,,0,27,27,27,1,25,140,,,,,,,,
,,613ee5c73de62443db76d074,65af55f44ec9136d74dc74c3,2024-01-23_08h01.33.738,bars,2023.2.3,Win32,59.52380952,657b66ea316d21385b68909f,,,,,,,,,,,1794.886,1795.8881,,,1796.3852,1796.6334,,101,101,,,,,,,,,,,,,,,,bars/022.png,bars/mask000.png,,,,,,,,,,,,5,1,,,,,,,6,6,6,6,,,,,,,,,,,1795.8882,1796.3851,1796.6335,1802.6075,space,5.9565,,1802.6077,6,81,1803.6009,1803.601,1803.6445,,,,0,28,28,28,1,95,20,,,,,,,,
,,613ee5c73de62443db76d074,65af55f44ec9136d74dc74c3,2024-01-23_08h01.33.738,bars,2023.2.3,Win32,59.52380952,657b66ea316d21385b68909f,,,,,,,,,,,1803.6452,1804.6349,,,1805.1367,1805.3739,,34,34,,,,,,,,,,,,,,,,bars/028.png,bars/mask003.png,,,,,,,,,,,,2,1,,,,,,,4,4,3,5,,,,,,,,,,,1804.6352,1805.1365,1805.3744,1809.1613,space,3.7725,,1809.1614,11,86,1810.1607,1810.1609,1810.194,,,,0,29,29,29,1,45,120,,,,,,,,
,,613ee5c73de62443db76d074,65af55f44ec9136d74dc74c3,2024-01-23_08h01.33.738,bars,2023.2.3,Win32,59.52380952,657b66ea316d21385b68909f,,,,,,,,,,,1810.1946,1811.1942,,,1811.7501,1811.9474,,146,-34,,,,,,,,,,,,,,,,bars/037.png,bars/mask004.png,,,,,,,,,,,,1,1,,,,,,,2,2,1,2,,,,,,,,,,,1811.1943,1811.75,1811.9475,1816.3248,space,4.3562,,1816.325,4,41,1817.3238,1817.3238,1817.3495,,,,0,30,30,30,1,150,105,,,,,,,,
,,613ee5c73de62443db76d074,65af55f44ec9136d74dc74c3,2024-01-23_08h01.33.738,bars,2023.2.3,Win32,59.52380952,657b66ea316d21385b68909f,,,,,,,,,,,1817.3512,1818.3399,,,1818.8373,1819.0756,,15,15,,,,,,,,,,,,,,,,bars/033.png,bars/mask001.png,,,,,,,,,,,,3,1,,,,,,,4,4,4,3,,,,,,,,,,,1818.34,1818.8372,1819.0757,1820.6141,space,1.5201,,1820.6142,10,40,1821.611,1821.611,1821.6139,,,,0,31,31,31,1,25,155,,,,,,,,
,,613ee5c73de62443db76d074,65af55f44ec9136d74dc74c3,2024-01-23_08h01.33.738,bars,2023.2.3,Win32,59.52380952,657b66ea316d21385b68909f,,,,,,,,,,,1821.6148,1822.6086,,,1823.1131,1823.3585,,73,73,,,,,,,,,,,,,,,,bars/048.png,bars/mask003.png,,,,,,,,,,,,0,1,,,,,,,2,2,2,1,,,,,,,,,,,1822.6086,1823.1131,1823.3586,1825.7317,space,2.3629,,1825.7318,23,78,1826.7252,1826.7253,1826.7614,,,,0,32,32,32,1,50,175,,,,,,,,
,,613ee5c73de62443db76d074,65af55f44ec9136d74dc74c3,2024-01-23_08h01.33.738,bars,2023.2.3,Win32,59.52380952,657b66ea316d21385b68909f,,,,,,,,,,,1826.7627,1827.7589,,,1828.249,1828.499,,59,59,,,,,,,,,,,,,,,,bars/013.png,bars/mask009.png,,,,,,,,,,,,2,1,,,,,,,4,4,4,4,,,,,,,,,,,1827.7589,1828.2489,1828.499,1832.2954,space,3.7828,,1832.2956,16,49,1833.2939,1833.2941,1833.3236,,,,0,33,33,33,1,75,10,,,,,,,,
,,613ee5c73de62443db76d074,65af55f44ec9136d74dc74c3,2024-01-23_08h01.33.738,bars,2023.2.3,Win32,59.52380952,657b66ea316d21385b68909f,,,,,,,,,,,1833.3243,1834.312,,,1834.8069,1835.0463,,165,165,,,,,,,,,,,,,,,,bars/038.png,bars/mask002.png,,,,,,,,,,,,5,1,,,,,,,6,6,5,4,,,,,,,,,,,1834.3121,1834.8068,1835.0465,1839.9112,space,4.8475,,1839.9114,0,85,1840.9077,1840.9078,1840.9402,,,,0,34,34,34,1,165,70,,,,,,,,
,,613ee5c73de62443db76d074,65af55f44ec9136d74dc74c3,2024-01-23_08h01.33.738,bars,2023.2.3,Win32,59.52380952,657b66ea316d21385b68909f,,,,,,,,,,,1840.9416,1841.9459,,,1842.446,1842.6979,,37,37,,,,,,,,,,,,,,,,bars/047.png,bars/mask001.png,,,,,,,,,,,,1,1,,,,,,,4,4,5,3,,,,,,,,,,,1841.9459,1842.446,1842.6981,1845.5542,space,2.8403,,1845.5543,22,33,1846.5453,1846.5454,1846.5864,,,,0,35,35,35,1,15,70,,,,,,,,
,,613ee5c73de62443db76d074,65af55f44ec9136d74dc74c3,2024-01-23_08h01.33.738,bars,2023.2.3,Win32,59.52380952,657b66ea316d21385b68909f,,,,,,,,,,,1846.5881,1847.5781,,,1848.0786,1848.3275,,132,-48,,,,,,,,,,,,,,,,bars/024.png,bars/mask001.png,,,,,,,,,,,,2,1,,,,,,,2,2,3,2,,,,,,,,,,,1847.5781,1848.0786,1848.3275,1854.2852,space,5.9414,,1854.2853,12,38,1855.2849,1855.2852,1855.3213,,,,0,36,36,36,1,120,170,,,,,,,,
,,613ee5c73de62443db76d074,65af55f44ec9136d74dc74c3,2024-01-23_08h01.33.738,bars,2023.2.3,Win32,59.52380952,657b66ea316d21385b68909f,,,,,,,,,,,1855.3226,1856.3143,,,1856.8042,1857.0466,,38,218,,,,,,,,,,,,,,,,bars/005.png,bars/mask005.png,,,,,,,,,,,,0,1,,,,,,,0,0,0,0,,,,,,,,,,,1856.3143,1856.8042,1857.0468,1862.1531,space,5.0938,,1862.1531,28,78,1863.1486,1863.1486,1863.183,,,,0,37,37,37,1,10,140,,,,,,,,
,,613ee5c73de62443db76d074,65af55f44ec9136d74dc74c3,2024-01-23_08h01.33.738,bars,2023.2.3,Win32,59.52380952,657b66ea316d21385b68909f,,,,,,,,,,,1863.1836,1864.1809,,,1864.6814,1864.9209,,105,-75,,,,,,,,,,,,,,,,bars/015.png,bars/mask003.png,,,,,,,,,,,,2,1,,,,,,,2,2,2,2,,,,,,,,,,,1864.181,1864.6814,1864.921,1869.5534,space,4.6173,,1869.5536,5,55,1870.5417,1870.5418,1870.6207,,,,0,38,38,38,1,110,160,,,,,,,,
,,613ee5c73de62443db76d074,65af55f44ec9136d74dc74c3,2024-01-23_08h01.33.738,bars,2023.2.3,Win32,59.52380952,657b66ea316d21385b68909f,,,,,,,,,,,1870.6213,1871.6541,,,1872.1263,1872.3477,,23,23,,,,,,,,,,,,,,,,bars/013.png,bars/mask001.png,,,,,,,,,,,,3,2,,,,,,,4,4,6,5,,,,,,,,,,,1871.6541,1872.1261,1872.3477,1878.6655,space,6.2965,,1878.6655,52,13,1879.6667,1879.6668,1879.7212,,,,0,39,39,39,1,75,10,,,,,,,,
,,613ee5c73de62443db76d074,65af55f44ec9136d74dc74c3,2024-01-23_08h01.33.738,bars,2023.2.3,Win32,59.52380952,657b66ea316d21385b68909f,,,,,,,,,,,1879.7225,1880.7206,,,1881.2212,1881.4662,,106,106,,,,,,,,,,,,,,,,bars/014.png,bars/mask000.png,,,,,,,,,,,,0,1,,,,,,,2,2,2,2,,,,,,,,,,,1880.7207,1881.2211,1881.4663,1884.6785,space,3.1904,,1884.6786,26,74,1885.6712,1885.6713,1885.7193,,,,0,40,40,40,1,80,0,,,,,,,,
,,613ee5c73de62443db76d074,65af55f44ec9136d74dc74c3,2024-01-23_08h01.33.738,bars,2023.2.3,Win32,59.52380952,657b66ea316d21385b68909f,,,,,,,,,,,1885.7207,1886.7198,,,1887.2192,1887.467,,119,119,,,,,,,,,,,,,,,,bars/030.png,bars/mask005.png,,,,,,,,,,,,1,1,,,,,,,4,4,2,2,,,,,,,,,,,1886.7199,1887.2192,1887.4671,1889.239,space,1.7587,,1889.2392,21,54,1890.2349,1890.2351,1890.2651,,,,0,41,41,41,1,140,65,,,,,,,,
,,613ee5c73de62443db76d074,65af55f44ec9136d74dc74c3,2024-01-23_08h01.33.738,bars,2023.2.3,Win32,59.52380952,657b66ea316d21385b68909f,,,,,,,,,,,1890.2666,1891.2543,,,1891.7439,1891.9875,,59,59,,,,,,,,,,,,,,,,bars/013.png,bars/mask000.png,,,,,,,,,,,,0,1,,,,,,,2,6,1,7,,,,,,,,,,,1891.2543,1891.7438,1891.9875,1893.6879,space,1.6808,,1893.688,16,49,1894.6871,1894.6872,1894.7143,,,,0,42,42,42,1,75,10,,,,,,,,
,,613ee5c73de62443db76d074,65af55f44ec9136d74dc74c3,2024-01-23_08h01.33.738,bars,2023.2.3,Win32,59.52380952,657b66ea316d21385b68909f,,,,,,,,,,,1894.7172,1895.7079,,,1896.2041,1896.4539,,132,132,,,,,,,,,,,,,,,,bars/037.png,bars/mask008.png,,,,,,,,,,,,0,1,,,,,,,0,8,0,8,,,,,,,,,,,1895.708,1896.2032,1896.4541,1898.1613,space,1.6953,,1898.1614,18,27,1899.1552,1899.1553,1899.1576,,,,0,43,43,43,1,150,105,,,,,,,,
,,613ee5c73de62443db76d074,65af55f44ec9136d74dc74c3,2024-01-23_08h01.33.738,bars,2023.2.3,Win32,59.52380952,657b66ea316d21385b68909f,,,,,,,,,,,1899.1583,1900.1585,,,1900.6549,1900.9033,,21,201,,,,,,,,,,,,,,,,bars/032.png,bars/mask000.png,,,,,,,,,,,,5,2,,,,,,,0,6,1,5,,,,,,,,,,,1900.1588,1900.6548,1900.9034,1904.3403,space,3.4238,,1904.3405,76,1,1905.3402,1905.3405,1905.373,,,,0,44,44,44,1,125,20,,,,,,,,
,,613ee5c73de62443db76d074,65af55f44ec9136d74dc74c3,2024-01-23_08h01.33.738,bars,2023.2.3,Win32,59.52380952,657b66ea316d21385b68909f,,,,,,,,,,,1905.3736,1906.376,,,1906.8759,1907.124,,42,222,,,,,,,,,,,,,,,,bars/035.png,bars/mask003.png,,,,,,,,,,,,2,2,,,,,,,2,4,1,5,,,,,,,,,,,1906.3761,1906.8759,1907.1241,1910.7267,space,3.5918,,1910.7269,47,18,1911.725,1911.7252,1911.8986,,,,0,45,45,45,1,175,60,,,,,,,,
,,613ee5c73de62443db76d074,65af55f44ec9136d74dc74c3,2024-01-23_08h01.33.738,bars,2023.2.3,Win32,59.52380952,657b66ea316d21385b68909f,,,,,,,,,,,1911.8993,1912.8906,,,1913.3914,1913.6444,,43,43,,,,,,,,,,,,,,,,bars/035.png,bars/mask008.png,,,,,,,,,,,,1,2,,,,,,,4,2,3,3,,,,,,,,,,,1912.8907,1913.3913,1913.6444,1915.0766,space,1.4082,,1915.0768,48,17,1916.0639,1916.0639,1916.0657,,,,0,46,46,46,1,175,60,,,,,,,,
,,613ee5c73de62443db76d074,65af55f44ec9136d74dc74c3,2024-01-23_08h01.33.738,bars,2023.2.3,Win32,59.52380952,657b66ea316d21385b68909f,,,,,,,,,,,1916.0664,1917.058,,,1917.5585,1917.8083,,42,42,,,,,,,,,,,,,,,,bars/028.png,bars/mask006.png,,,,,,,,,,,,6,1,,,,,,,6,4,7,4,,,,,,,,,,,1917.0581,1917.5584,1917.8084,1921.8458,space,4.0249,,1921.8458,3,78,1922.8403,1922.8404,1922.8808,,,,0,47,47,47,1,45,120,,,,,,,,
,,613ee5c73de62443db76d074,65af55f44ec9136d74dc74c3,2024-01-23_08h01.33.738,bars,2023.2.3,Win32,59.52380952,657b66ea316d21385b68909f,,,,,,,,,,,1922.8818,1923.8769,,,1924.3659,1924.6071,,43,43,,,,,,,,,,,,,,,,bars/029.png,bars/mask009.png,,,,,,,,,,,,2,2,,,,,,,4,2,4,2,,,,,,,,,,,1923.877,1924.3659,1924.6072,1926.4833,space,1.861,,1926.4835,47,2,1927.4801,1927.4802,1927.487,,,,0,48,48,48,1,90,45,,,,,,,,
,,613ee5c73de62443db76d074,65af55f44ec9136d74dc74c3,2024-01-23_08h01.33.738,bars,2023.2.3,Win32,59.52380952,657b66ea316d21385b68909f,,,,,,,,,,,1927.4898,1928.484,,,1928.9752,1929.2166,,126,126,,,,,,,,,,,,,,,,bars/015.png,bars/mask008.png,,,,,,,,,,,,3,1,,,,,,,6,4,6,5,,,,,,,,,,,1928.4841,1928.9751,1929.2166,1932.3405,space,3.0926,,1932.3405,16,34,1933.3442,1933.3443,1933.3788,,,,0,49,49,49,1,110,160,,,,,,,,
,,613ee5c73de62443db76d074,65af55f44ec9136d74dc74c3,2024-01-23_08h01.33.738,bars,2023.2.3,Win32,59.52380952,657b66ea316d21385b68909f,,,,,,,,,,,,,,,,,,,,,,,,,,,,,,,,,,,,,,,,,,,,,,,,,,,,,,,,,,,,,,,,,,,,,,,,,,,,,,,,,,,,,,,,,,,,,1933.3792,1993.3738,0,3,3,4,1,sequence_tables/blk048.csv
,,613ee5c73de62443db76d074,65af55f44ec9136d74dc74c3,2024-01-23_08h01.33.738,bars,2023.2.3,Win32,59.52380952,657b66ea316d21385b68909f,,,,,,,,,,,1995.4389,1996.424,,,1996.9266,1997.1749,,68,68,,,,,,,,,,,,,,,,bars/002.png,bars/mask004.png,,,,,,,,,,,,2,2,,,,,,,3,2,6,4,,,,,,1993.4079,1995.4158,space,1.9936,,1996.424,1996.9266,1997.175,2000.0377,space,2.8423,,2000.0382,62,17,2001.0283,2001.0283,2001.0764,,,,0,0,0,0,1,130,85,,,,,,,,
,,613ee5c73de62443db76d074,65af55f44ec9136d74dc74c3,2024-01-23_08h01.33.738,bars,2023.2.3,Win32,59.52380952,657b66ea316d21385b68909f,,,,,,,,,,,2001.0772,2002.0757,,,2002.5662,2002.8114,,151,151,,,,,,,,,,,,,,,,bars/042.png,bars/mask004.png,,,,,,,,,,,,1,1,,,,,,,1,4,1,4,,,,,,,,,,,2002.0757,2002.5659,2002.8116,2005.0497,space,2.2232,,2005.0498,6,76,2006.0448,2006.045,2006.0838,,,,0,1,1,1,1,145,75,,,,,,,,
,,613ee5c73de62443db76d074,65af55f44ec9136d74dc74c3,2024-01-23_08h01.33.738,bars,2023.2.3,Win32,59.52380952,657b66ea316d21385b68909f,,,,,,,,,,,2006.0844,2007.0799,,,2007.5571,2007.7959,,131,131,,,,,,,,,,,,,,,,bars/000.png,bars/mask005.png,,,,,,,,,,,,3,2,,,,,,,3,6,4,5,,,,,,,,,,,2007.0799,2007.557,2007.796,2012.5358,space,4.7242,,2012.536,89,14,2013.5318,2013.5319,2013.5937,,,,0,2,2,2,1,40,145,,,,,,,,
,,613ee5c73de62443db76d074,65af55f44ec9136d74dc74c3,2024-01-23_08h01.33.738,bars,2023.2.3,Win32,59.52380952,657b66ea316d21385b68909f,,,,,,,,,,,2013.5948,2014.5999,,,2015.0995,2015.3464,,74,-106,,,,,,,,,,,,,,,,bars/041.png,bars/mask004.png,,,,,,,,,,,,3,2,,,,,,,5,4,5,4,,,,,,,,,,,2014.6001,2015.0994,2015.3465,2020.1657,space,4.7865,,2020.1658,54,11,2021.1655,2021.1659,2021.1996,,,,0,3,3,3,1,20,85,,,,,,,,
,,613ee5c73de62443db76d074,65af55f44ec9136d74dc74c3,2024-01-23_08h01.33.738,bars,2023.2.3,Win32,59.52380952,657b66ea316d21385b68909f,,,,,,,,,,,2021.2009,2022.196,,,2022.6976,2022.9453,,124,124,,,,,,,,,,,,,,,,bars/017.png,bars/mask000.png,,,,,,,,,,,,1,1,,,,,,,3,6,3,6,,,,,,,,,,,2022.1961,2022.6975,2022.9454,2024.6843,space,1.7225,,2024.6844,21,79,2025.6641,2025.6642,2025.6691,,,,0,4,4,4,1,145,45,,,,,,,,
,,613ee5c73de62443db76d074,65af55f44ec9136d74dc74c3,2024-01-23_08h01.33.738,bars,2023.2.3,Win32,59.52380952,657b66ea316d21385b68909f,,,,,,,,,,,2025.6697,2026.6599,,,2027.1528,2027.3949,,25,205,,,,,,,,,,,,,,,,bars/033.png,bars/mask009.png,,,,,,,,,,,,4,1,,,,,,,5,8,4,8,,,,,,,,,,,2026.66,2027.1527,2027.3949,2031.0848,space,3.6754,,2031.0849,0,50,2032.0883,2032.0884,2032.1303,,,,0,5,5,5,1,25,155,,,,,,,,
,,613ee5c73de62443db76d074,65af55f44ec9136d74dc74c3,2024-01-23_08h01.33.738,bars,2023.2.3,Win32,59.52380952,657b66ea316d21385b68909f,,,,,,,,,,,2032.1309,2033.1351,,,2033.6328,2033.8837,,122,-58,,,,,,,,,,,,,,,,bars/031.png,bars/mask004.png,,,,,,,,,,,,2,1,,,,,,,3,6,2,6,,,,,,,,,,,2033.1352,2033.6327,2033.8837,2039.7828,space,5.8809,,2039.7829,2,87,2040.7708,2040.7709,2040.8079,,,,0,6,6,6,1,120,35,,,,,,,,
,,613ee5c73de62443db76d074,65af55f44ec9136d74dc74c3,2024-01-23_08h01.33.738,bars,2023.2.3,Win32,59.52380952,657b66ea316d21385b68909f,,,,,,,,,,,2040.8085,2041.8144,,,2042.3057,2042.5506,,32,32,,,,,,,,,,,,,,,,bars/026.png,bars/mask000.png,,,,,,,,,,,,2,1,,,,,,,1,4,2,4,,,,,,,,,,,2041.8145,2042.3054,2042.5507,2045.824,space,3.2503,,2045.824,3,53,2046.8162,2046.8164,2046.8461,,,,0,7,7,7,1,35,85,,,,,,,,
,,613ee5c73de62443db76d074,65af55f44ec9136d74dc74c3,2024-01-23_08h01.33.738,bars,2023.2.3,Win32,59.52380952,657b66ea316d21385b68909f,,,,,,,,,,,2046.8473,2047.8407,,,2048.3307,2048.5842,,126,126,,,,,,,,,,,,,,,,bars/027.png,bars/mask005.png,,,,,,,,,,,,0,1,,,,,,,0,2,0,2,,,,,,,,,,,2047.8408,2048.3307,2048.5843,2051.0187,space,2.4169,,2051.0188,16,76,2052.0183,2052.0185,2052.0491,,,,0,8,8,8,1,110,50,,,,,,,,
,,613ee5c73de62443db76d074,65af55f44ec9136d74dc74c3,2024-01-23_08h01.33.738,bars,2023.2.3,Win32,59.52380952,657b66ea316d21385b68909f,,,,,,,,,,,2052.0497,2053.0504,,,2053.569,2053.8065,,49,49,,,,,,,,,,,,,,,,bars/013.png,bars/mask003.png,,,,,,,,,,,,0,1,,,,,,,0,4,0,3,,,,,,,,,,,2053.0505,2053.569,2053.8065,2056.4542,space,2.6329,,2056.4544,26,39,2057.4533,2057.4534,2057.4859,,,,0,9,9,9,1,75,10,,,,,,,,
,,613ee5c73de62443db76d074,65af55f44ec9136d74dc74c3,2024-01-23_08h01.33.738,bars,2023.2.3,Win32,59.52380952,657b66ea316d21385b68909f,,,,,,,,,,,2057.4865,2058.4891,,,2058.985,2059.234,,70,70,,,,,,,,,,,,,,,,bars/039.png,bars/mask007.png,,,,,,,,,,,,0,2,,,,,,,0,6,0,5,,,,,,,,,,,2058.4892,2058.9849,2059.2341,2061.7251,space,2.4793,,2061.7251,75,35,2062.7188,2062.7189,2062.7238,,,,0,10,10,10,1,175,105,,,,,,,,
,,613ee5c73de62443db76d074,65af55f44ec9136d74dc74c3,2024-01-23_08h01.33.738,bars,2023.2.3,Win32,59.52380952,657b66ea316d21385b68909f,,,,,,,,,,,2062.7245,2063.7192,,,2064.2192,2064.4591,,0,180,,,,,,,,,,,,,,,,bars/035.png,bars/mask005.png,,,,,,,,,,,,0,1,,,,,,,0,8,0,9,,,,,,,,,,,2063.7192,2064.2191,2064.4592,2068.878,space,4.4039,,2068.8781,5,60,2069.871,2069.8712,2069.9093,,,,0,11,11,11,1,175,60,,,,,,,,
