init_variables.started,init_variables.stopped,participant,session,date,expName,psychopyVersion,OS,frameRate,study_id,instruction_exp.started,instruction_exp.stopped,key_resp_8.keys,key_resp_8.rt,key_resp_8.duration,instruction_single.started,instruction_single.stopped,key_resp_2.keys,key_resp_2.rt,key_resp_2.duration,interval.started,interval.stopped,cue_single.started,cue_single.stopped,mask.started,mask.stopped,ori_response_single.started,res_ori,res,ori_response_single.stopped,key_resp_single.keys,key_resp_single.rt,key_resp_single.duration,disp_single.started,disp_single.stopped,key_resp.keys,key_resp.rt,key_resp.duration,single.thisRepN,single.thisTrialN,single.thisN,single.thisIndex,single.ran,ori,path,mask_path,instruction_bandit.started,instruction_bandit.stopped,key_resp_6.keys,key_resp_6.rt,key_resp_6.duration,cue_bandit.started,cue_bandit.stopped,bandit_res.keys,bandit_res.rt,bandit_res.duration,outcome_bandit.started,rew,action,outcome_bandit.stopped,bandit.thisRepN,bandit.thisTrialN,bandit.thisN,bandit.thisIndex,bandit.ran,actual_rew1,actual_rew2,rew1,rew2,instruction_task.started,instruction_task.stopped,key_resp_7.keys,key_resp_7.rt,key_resp_7.duration,wait_ready.started,wait_ready.stopped,key_resp_3.keys,key_resp_3.rt,key_resp_3.duration,cue.started,cue.stopped,ori_response.started,ori_response.stopped,key_resp_5.keys,key_resp_5.rt,key_resp_5.duration,outcome.started,diff1,diff2,outcome.stopped,disp_outcome_practice.started,disp_outcome_practice.stopped,key_resp_4.keys,key_resp_4.rt,key_resp_4.duration,trials.thisRepN,trials.thisTrialN,trials.thisN,trials.thisIndex,trials.ran,ori1,ori2,break_blk.started,break_blk.stopped,block.thisRepN,block.thisTrialN,block.thisN,block.thisIndex,block.ran,condition_file
0,0,654afb2d87012840100daf23,65af56a874eb1d0e84c24b39,2024-01-23_07h03.56.399,bars,2023.2.3,Win32,166.6666667,657b66ea316d21385b68909f,,,,,,,,,,,,,,,,,,,,,,,,,,,,,,,,,,,,,,,,,,,,,,,,,,,,,,,,,,,,,,,,,,,,,,,,,,,,,,,,,,,,,,,,,,,,,,,,,,,,
,,654afb2d87012840100daf23,65af56a874eb1d0e84c24b39,2024-01-23_07h03.56.399,bars,2023.2.3,Win32,166.6666667,657b66ea316d21385b68909f,0,194.827,y,194.816,,,,,,,,,,,,,,,,,,,,,,,,,,,,,,,,,,,,,,,,,,,,,,,,,,,,,,,,,,,,,,,,,,,,,,,,,,,,,,,,,,,,,,,,,,,,,,,,
,,654afb2d87012840100daf23,65af56a874eb1d0e84c24b39,2024-01-23_07h03.56.399,bars,2023.2.3,Win32,166.6666667,657b66ea316d21385b68909f,,,,,,194.827,199.862,space,5.025,,,,,,,,,,,,,,,,,,,,,,,,,,,,,,,,,,,,,,,,,,,,,,,,,,,,,,,,,,,,,,,,,,,,,,,,,,,,,,,,,,,,,,,,,,,
,,654afb2d87012840100daf23,65af56a874eb1d0e84c24b39,2024-01-23_07h03.56.399,bars,2023.2.3,Win32,166.6666667,657b66ea316d21385b68909f,,,,,,,,,,,199.872,200.863,200.863,201.363,201.363,201.614,201.614,93,-87,207.506,space,5.875,,207.506,208.854,space,1.329,,0,0,0,0,1,150,bars/single000.png,bars/mask006.png,,,,,,,,,,,,,,,,,,,,,,,,,,,,,,,,,,,,,,,,,,,,,,,,,,,,,,,,,,,,,,,,
,,654afb2d87012840100daf23,65af56a874eb1d0e84c24b39,2024-01-23_07h03.56.399,bars,2023.2.3,Win32,166.6666667,657b66ea316d21385b68909f,,,,,,,,,,,208.854,209.855,209.855,210.355,210.355,210.605,210.605,145,-35,213.599,space,2.987,,213.599,221.055,space,7.441,,0,1,1,2,1,145,bars/single002.png,bars/mask003.png,,,,,,,,,,,,,,,,,,,,,,,,,,,,,,,,,,,,,,,,,,,,,,,,,,,,,,,,,,,,,,,,
,,654afb2d87012840100daf23,65af56a874eb1d0e84c24b39,2024-01-23_07h03.56.399,bars,2023.2.3,Win32,166.6666667,657b66ea316d21385b68909f,,,,,,,,,,,221.061,222.056,222.056,222.556,222.556,222.806,222.806,32,212,228.1,space,5.289,,228.1,231.11,space,2.997,,0,2,2,7,1,45,bars/single007.png,bars/mask009.png,,,,,,,,,,,,,,,,,,,,,,,,,,,,,,,,,,,,,,,,,,,,,,,,,,,,,,,,,,,,,,,,
,,654afb2d87012840100daf23,65af56a874eb1d0e84c24b39,2024-01-23_07h03.56.399,bars,2023.2.3,Win32,166.6666667,657b66ea316d21385b68909f,,,,,,,,,,,231.115,232.11,232.11,232.61,232.61,232.86,232.86,40,220,237.016,space,4.151,,237.016,238.044,space,1.011,,0,3,3,3,1,20,bars/single003.png,bars/mask005.png,,,,,,,,,,,,,,,,,,,,,,,,,,,,,,,,,,,,,,,,,,,,,,,,,,,,,,,,,,,,,,,,
,,654afb2d87012840100daf23,65af56a874eb1d0e84c24b39,2024-01-23_07h03.56.399,bars,2023.2.3,Win32,166.6666667,657b66ea316d21385b68909f,,,,,,,,,,,238.044,239.045,239.045,239.545,239.545,239.795,239.795,26,26,241.073,space,1.273,,241.073,243.582,space,2.502,,0,4,4,9,1,20,bars/single009.png,bars/mask006.png,,,,,,,,,,,,,,,,,,,,,,,,,,,,,,,,,,,,,,,,,,,,,,,,,,,,,,,,,,,,,,,,
,,654afb2d87012840100daf23,65af56a874eb1d0e84c24b39,2024-01-23_07h03.56.399,bars,2023.2.3,Win32,166.6666667,657b66ea316d21385b68909f,,,,,,,,,,,243.582,244.583,244.583,245.083,245.083,245.333,245.333,70,70,249.113,space,3.775,,249.113,251.58,space,2.452,,0,5,5,5,1,55,bars/single005.png,bars/mask008.png,,,,,,,,,,,,,,,,,,,,,,,,,,,,,,,,,,,,,,,,,,,,,,,,,,,,,,,,,,,,,,,,
,,654afb2d87012840100daf23,65af56a874eb1d0e84c24b39,2024-01-23_07h03.56.399,bars,2023.2.3,Win32,166.6666667,657b66ea316d21385b68909f,,,,,,,,,,,251.58,252.58,252.58,253.08,253.08,253.331,253.331,157,157,254.783,space,1.446,,254.783,255.791,space,1.002,,0,6,6,8,1,160,bars/single008.png,bars/mask004.png,,,,,,,,,,,,,,,,,,,,,,,,,,,,,,,,,,,,,,,,,,,,,,,,,,,,,,,,,,,,,,,,
,,654afb2d87012840100daf23,65af56a874eb1d0e84c24b39,2024-01-23_07h03.56.399,bars,2023.2.3,Win32,166.6666667,657b66ea316d21385b68909f,,,,,,,,,,,255.791,256.793,256.793,257.291,257.291,257.538,257.538,178,178,258.382,space,0.834,,258.382,260.029,space,1.635,,0,7,7,6,1,175,bars/single006.png,bars/mask005.png,,,,,,,,,,,,,,,,,,,,,,,,,,,,,,,,,,,,,,,,,,,,,,,,,,,,,,,,,,,,,,,,
,,654afb2d87012840100daf23,65af56a874eb1d0e84c24b39,2024-01-23_07h03.56.399,bars,2023.2.3,Win32,166.6666667,657b66ea316d21385b68909f,,,,,,,,,,,260.029,261.029,261.029,261.53,261.53,261.78,261.78,6,186,263.885,space,2.102,,263.885,265.789,space,1.896,,0,8,8,1,1,20,bars/single001.png,bars/mask006.png,,,,,,,,,,,,,,,,,,,,,,,,,,,,,,,,,,,,,,,,,,,,,,,,,,,,,,,,,,,,,,,,
,,654afb2d87012840100daf23,65af56a874eb1d0e84c24b39,2024-01-23_07h03.56.399,bars,2023.2.3,Win32,166.6666667,657b66ea316d21385b68909f,,,,,,,,,,,265.789,266.789,266.789,267.291,267.291,267.54,267.54,89,89,268.951,space,1.405,,268.951,270.355,space,1.398,,0,9,9,4,1,95,bars/single004.png,bars/mask004.png,,,,,,,,,,,,,,,,,,,,,,,,,,,,,,,,,,,,,,,,,,,,,,,,,,,,,,,,,,,,,,,,
,,654afb2d87012840100daf23,65af56a874eb1d0e84c24b39,2024-01-23_07h03.56.399,bars,2023.2.3,Win32,166.6666667,657b66ea316d21385b68909f,,,,,,,,,,,,,,,,,,,,,,,,,,,,,,,,,,,,,270.355,273.753,space,3.385,,,,,,,,,,,,,,,,,,,,,,,,,,,,,,,,,,,,,,,,,,,,,,,,,,,,,,,,,,,,
,,654afb2d87012840100daf23,65af56a874eb1d0e84c24b39,2024-01-23_07h03.56.399,bars,2023.2.3,Win32,166.6666667,657b66ea316d21385b68909f,,,,,,,,,,,,,,,,,,,,,,,,,,,,,,,,,,,,,,,,,,273.764,275.385,left,1.605,,275.385,9,1,276.386,0,0,0,0,1,9,1,9,2,,,,,,,,,,,,,,,,,,,,,,,,,,,,,,,,,,,,,,,,,
,,654afb2d87012840100daf23,65af56a874eb1d0e84c24b39,2024-01-23_07h03.56.399,bars,2023.2.3,Win32,166.6666667,657b66ea316d21385b68909f,,,,,,,,,,,,,,,,,,,,,,,,,,,,,,,,,,,,,,,,,,276.386,276.837,left,0.448,,276.837,10,1,277.837,0,1,1,1,1,10,0,10,1,,,,,,,,,,,,,,,,,,,,,,,,,,,,,,,,,,,,,,,,,
,,654afb2d87012840100daf23,65af56a874eb1d0e84c24b39,2024-01-23_07h03.56.399,bars,2023.2.3,Win32,166.6666667,657b66ea316d21385b68909f,,,,,,,,,,,,,,,,,,,,,,,,,,,,,,,,,,,,,,,,,,277.838,278.101,left,0.252,,278.101,10,1,279.096,0,2,2,2,1,10,2,10,2,,,,,,,,,,,,,,,,,,,,,,,,,,,,,,,,,,,,,,,,,
,,654afb2d87012840100daf23,65af56a874eb1d0e84c24b39,2024-01-23_07h03.56.399,bars,2023.2.3,Win32,166.6666667,657b66ea316d21385b68909f,,,,,,,,,,,,,,,,,,,,,,,,,,,,,,,,,,,,,,,,,,279.096,279.3,left,0.195,,279.3,7,1,280.297,0,3,3,3,1,8,4,7,3,,,,,,,,,,,,,,,,,,,,,,,,,,,,,,,,,,,,,,,,,
,,654afb2d87012840100daf23,65af56a874eb1d0e84c24b39,2024-01-23_07h03.56.399,bars,2023.2.3,Win32,166.6666667,657b66ea316d21385b68909f,,,,,,,,,,,,,,,,,,,,,,,,,,,,,,,,,,,,,,,,,,280.297,280.43,right,0.12,,280.43,1,2,281.431,0,4,4,4,1,6,2,5,1,,,,,,,,,,,,,,,,,,,,,,,,,,,,,,,,,,,,,,,,,
,,654afb2d87012840100daf23,65af56a874eb1d0e84c24b39,2024-01-23_07h03.56.399,bars,2023.2.3,Win32,166.6666667,657b66ea316d21385b68909f,,,,,,,,,,,,,,,,,,,,,,,,,,,,,,,,,,,,,,,,,,281.431,281.687,left,0.244,,281.687,4,1,282.681,0,5,5,5,1,4,4,4,4,,,,,,,,,,,,,,,,,,,,,,,,,,,,,,,,,,,,,,,,,
,,654afb2d87012840100daf23,65af56a874eb1d0e84c24b39,2024-01-23_07h03.56.399,bars,2023.2.3,Win32,166.6666667,657b66ea316d21385b68909f,,,,,,,,,,,,,,,,,,,,,,,,,,,,,,,,,,,,,,,,,,282.681,282.883,right,0.188,,282.883,2,2,283.879,0,6,6,6,1,2,2,1,2,,,,,,,,,,,,,,,,,,,,,,,,,,,,,,,,,,,,,,,,,
,,654afb2d87012840100daf23,65af56a874eb1d0e84c24b39,2024-01-23_07h03.56.399,bars,2023.2.3,Win32,166.6666667,657b66ea316d21385b68909f,,,,,,,,,,,,,,,,,,,,,,,,,,,,,,,,,,,,,,,,,,283.879,284.189,right,0.301,,284.189,1,2,285.183,0,7,7,7,1,0,0,0,1,,,,,,,,,,,,,,,,,,,,,,,,,,,,,,,,,,,,,,,,,
,,654afb2d87012840100daf23,65af56a874eb1d0e84c24b39,2024-01-23_07h03.56.399,bars,2023.2.3,Win32,166.6666667,657b66ea316d21385b68909f,,,,,,,,,,,,,,,,,,,,,,,,,,,,,,,,,,,,,,,,,,285.183,285.335,left,0.14,,285.335,1,1,286.336,0,8,8,8,1,0,2,1,0,,,,,,,,,,,,,,,,,,,,,,,,,,,,,,,,,,,,,,,,,
,,654afb2d87012840100daf23,65af56a874eb1d0e84c24b39,2024-01-23_07h03.56.399,bars,2023.2.3,Win32,166.6666667,657b66ea316d21385b68909f,,,,,,,,,,,,,,,,,,,,,,,,,,,,,,,,,,,,,,,,,,286.336,286.408,right,0.071,,286.408,3,2,287.406,0,9,9,9,1,2,4,2,3,,,,,,,,,,,,,,,,,,,,,,,,,,,,,,,,,,,,,,,,,
,,654afb2d87012840100daf23,65af56a874eb1d0e84c24b39,2024-01-23_07h03.56.399,bars,2023.2.3,Win32,166.6666667,657b66ea316d21385b68909f,,,,,,,,,,,,,,,,,,,,,,,,,,,,,,,,,,,,,,,,,,287.406,287.454,right,0.037,,287.454,3,2,288.455,0,10,10,10,1,0,2,0,3,,,,,,,,,,,,,,,,,,,,,,,,,,,,,,,,,,,,,,,,,
,,654afb2d87012840100daf23,65af56a874eb1d0e84c24b39,2024-01-23_07h03.56.399,bars,2023.2.3,Win32,166.6666667,657b66ea316d21385b68909f,,,,,,,,,,,,,,,,,,,,,,,,,,,,,,,,,,,,,,,,,,288.455,288.663,right,0.196,,288.663,3,2,289.664,0,11,11,11,1,0,4,0,3,,,,,,,,,,,,,,,,,,,,,,,,,,,,,,,,,,,,,,,,,
,,654afb2d87012840100daf23,65af56a874eb1d0e84c24b39,2024-01-23_07h03.56.399,bars,2023.2.3,Win32,166.6666667,657b66ea316d21385b68909f,,,,,,,,,,,,,,,,,,,,,,,,,,,,,,,,,,,,,,,,,,289.664,289.904,right,0.231,,289.904,6,2,290.901,0,12,12,12,1,2,6,1,6,,,,,,,,,,,,,,,,,,,,,,,,,,,,,,,,,,,,,,,,,
,,654afb2d87012840100daf23,65af56a874eb1d0e84c24b39,2024-01-23_07h03.56.399,bars,2023.2.3,Win32,166.6666667,657b66ea316d21385b68909f,,,,,,,,,,,,,,,,,,,,,,,,,,,,,,,,,,,,,,,,,,290.901,290.984,right,0.07,,290.984,3,2,291.984,0,13,13,13,1,0,4,1,3,,,,,,,,,,,,,,,,,,,,,,,,,,,,,,,,,,,,,,,,,
,,654afb2d87012840100daf23,65af56a874eb1d0e84c24b39,2024-01-23_07h03.56.399,bars,2023.2.3,Win32,166.6666667,657b66ea316d21385b68909f,,,,,,,,,,,,,,,,,,,,,,,,,,,,,,,,,,,,,,,,,,291.985,292.367,left,0.368,,292.367,2,1,293.368,0,14,14,14,1,2,6,2,7,,,,,,,,,,,,,,,,,,,,,,,,,,,,,,,,,,,,,,,,,
,,654afb2d87012840100daf23,65af56a874eb1d0e84c24b39,2024-01-23_07h03.56.399,bars,2023.2.3,Win32,166.6666667,657b66ea316d21385b68909f,,,,,,,,,,,,,,,,,,,,,,,,,,,,,,,,,,,,,,,,,,293.368,293.579,right,0.201,,293.579,9,2,294.577,0,15,15,15,1,4,8,3,9,,,,,,,,,,,,,,,,,,,,,,,,,,,,,,,,,,,,,,,,,
,,654afb2d87012840100daf23,65af56a874eb1d0e84c24b39,2024-01-23_07h03.56.399,bars,2023.2.3,Win32,166.6666667,657b66ea316d21385b68909f,,,,,,,,,,,,,,,,,,,,,,,,,,,,,,,,,,,,,,,,,,294.577,294.688,right,0.098,,294.688,7,2,295.688,0,16,16,16,1,6,6,7,7,,,,,,,,,,,,,,,,,,,,,,,,,,,,,,,,,,,,,,,,,
,,654afb2d87012840100daf23,65af56a874eb1d0e84c24b39,2024-01-23_07h03.56.399,bars,2023.2.3,Win32,166.6666667,657b66ea316d21385b68909f,,,,,,,,,,,,,,,,,,,,,,,,,,,,,,,,,,,,,,,,,,295.688,295.709,right,0.017,,295.709,5,2,296.71,0,17,17,17,1,8,4,9,5,,,,,,,,,,,,,,,,,,,,,,,,,,,,,,,,,,,,,,,,,
,,654afb2d87012840100daf23,65af56a874eb1d0e84c24b39,2024-01-23_07h03.56.399,bars,2023.2.3,Win32,166.6666667,657b66ea316d21385b68909f,,,,,,,,,,,,,,,,,,,,,,,,,,,,,,,,,,,,,,,,,,296.71,296.876,left,0.164,,296.877,5,1,297.877,0,18,18,18,1,6,2,5,1,,,,,,,,,,,,,,,,,,,,,,,,,,,,,,,,,,,,,,,,,
,,654afb2d87012840100daf23,65af56a874eb1d0e84c24b39,2024-01-23_07h03.56.399,bars,2023.2.3,Win32,166.6666667,657b66ea316d21385b68909f,,,,,,,,,,,,,,,,,,,,,,,,,,,,,,,,,,,,,,,,,,297.877,297.925,left,0.044,,297.925,7,1,298.926,0,19,19,19,1,8,0,7,0,,,,,,,,,,,,,,,,,,,,,,,,,,,,,,,,,,,,,,,,,
,,654afb2d87012840100daf23,65af56a874eb1d0e84c24b39,2024-01-23_07h03.56.399,bars,2023.2.3,Win32,166.6666667,657b66ea316d21385b68909f,,,,,,,,,,,,,,,,,,,,,,,,,,,,,,,,,,,,,,,,,,,,,,,,,,,,,,,,,,,,298.926,303.054,space,4.119,,,,,,,,,,,,,,,,,,,,,,,,,,,,,,,,,,,,,
,,654afb2d87012840100daf23,65af56a874eb1d0e84c24b39,2024-01-23_07h03.56.399,bars,2023.2.3,Win32,166.6666667,657b66ea316d21385b68909f,,,,,,,,,,,303.716,304.714,,,305.215,305.468,,53,53,,,,,,,,,,,,,,,,bars/007.png,bars/mask006.png,,,,,,,,,,,,3,2,,,,,,,0,3,0,3,,,,,,303.062,303.714,space,0.64,,304.714,305.215,305.469,307.32,space,1.841,,307.32,58,2,308.317,308.317,312.157,space,3.83,,0,0,0,0,1,175,55,,,,,,,,
,,654afb2d87012840100daf23,65af56a874eb1d0e84c24b39,2024-01-23_07h03.56.399,bars,2023.2.3,Win32,166.6666667,657b66ea316d21385b68909f,,,,,,,,,,,312.161,313.156,,,313.657,313.907,,33,33,,,,,,,,,,,,,,,,bars/028.png,bars/mask004.png,,,,,,,,,,,,0,1,,,,,,,2,5,0,6,,,,,,,,,,,313.156,313.657,313.907,315.2,space,1.286,,315.2,12,87,316.201,316.201,318.055,space,1.845,,0,1,1,1,1,45,120,,,,,,,,
,,654afb2d87012840100daf23,65af56a874eb1d0e84c24b39,2024-01-23_07h03.56.399,bars,2023.2.3,Win32,166.6666667,657b66ea316d21385b68909f,,,,,,,,,,,318.056,319.055,,,319.549,319.799,,167,167,,,,,,,,,,,,,,,,bars/024.png,bars/mask003.png,,,,,,,,,,,,5,2,,,,,,,0,7,0,6,,,,,,,,,,,319.055,319.549,319.799,320.612,space,0.809,,320.612,47,3,321.606,321.606,322.182,space,0.568,,0,2,2,2,1,120,170,,,,,,,,
,,654afb2d87012840100daf23,65af56a874eb1d0e84c24b39,2024-01-23_07h03.56.399,bars,2023.2.3,Win32,166.6666667,657b66ea316d21385b68909f,,,,,,,,,,,322.183,323.183,,,323.683,323.933,,91,91,,,,,,,,,,,,,,,,bars/026.png,bars/mask005.png,,,,,,,,,,,,4,2,,,,,,,2,5,2,5,,,,,,,,,,,323.183,323.683,323.933,326.761,space,2.822,,326.761,56,6,327.755,327.755,331.237,space,3.471,,0,3,3,3,1,35,85,,,,,,,,
,,654afb2d87012840100daf23,65af56a874eb1d0e84c24b39,2024-01-23_07h03.56.399,bars,2023.2.3,Win32,166.6666667,657b66ea316d21385b68909f,,,,,,,,,,,331.242,332.237,,,332.737,332.988,,44,44,,,,,,,,,,,,,,,,bars/005.png,bars/mask006.png,,,,,,,,,,,,0,1,,,,,,,0,7,0,7,,,,,,,,,,,332.237,332.737,332.988,335.726,space,2.733,,335.726,34,84,336.726,336.726,338.588,space,1.852,,0,4,4,4,1,10,140,,,,,,,,
,,654afb2d87012840100daf23,65af56a874eb1d0e84c24b39,2024-01-23_07h03.56.399,bars,2023.2.3,Win32,166.6666667,657b66ea316d21385b68909f,,,,,,,,,,,338.588,339.588,,,340.082,340.333,,102,102,,,,,,,,,,,,,,,,bars/029.png,bars/mask007.png,,,,,,,,,,,,2,1,,,,,,,2,5,3,5,,,,,,,,,,,339.588,340.082,340.333,342.952,space,2.61,,342.952,12,57,343.952,343.952,344.453,space,0.49,,0,5,5,5,1,90,45,,,,,,,,
,,654afb2d87012840100daf23,65af56a874eb1d0e84c24b39,2024-01-23_07h03.56.399,bars,2023.2.3,Win32,166.6666667,657b66ea316d21385b68909f,,,,,,,,,,,344.453,345.453,,,345.953,346.203,,172,172,,,,,,,,,,,,,,,,bars/033.png,bars/mask003.png,,,,,,,,,,,,1,2,,,,,,,0,3,0,2,,,,,,,,,,,345.453,345.953,346.203,348.58,space,2.373,,348.58,33,17,349.58,349.581,349.997,space,0.405,,0,6,6,6,1,25,155,,,,,,,,
,,654afb2d87012840100daf23,65af56a874eb1d0e84c24b39,2024-01-23_07h03.56.399,bars,2023.2.3,Win32,166.6666667,657b66ea316d21385b68909f,,,,,,,,,,,349.997,350.991,,,351.491,351.741,,68,68,,,,,,,,,,,,,,,,bars/028.png,bars/mask006.png,,,,,,,,,,,,1,1,,,,,,,2,5,3,5,,,,,,,,,,,350.991,351.491,351.741,354.965,space,3.219,,354.965,23,52,355.966,355.966,357.752,space,1.772,,0,7,7,7,1,45,120,,,,,,,,
,,654afb2d87012840100daf23,65af56a874eb1d0e84c24b39,2024-01-23_07h03.56.399,bars,2023.2.3,Win32,166.6666667,657b66ea316d21385b68909f,,,,,,,,,,,357.752,358.753,,,359.253,359.503,,76,76,,,,,,,,,,,,,,,,bars/021.png,bars/mask005.png,,,,,,,,,,,,6,2,,,,,,,0,7,0,8,,,,,,,,,,,358.753,359.253,359.503,362.129,space,2.621,,362.129,79,6,363.13,363.13,363.644,space,0.504,,0,8,8,8,1,155,70,,,,,,,,
,,654afb2d87012840100daf23,65af56a874eb1d0e84c24b39,2024-01-23_07h03.56.399,bars,2023.2.3,Win32,166.6666667,657b66ea316d21385b68909f,,,,,,,,,,,363.645,364.645,,,365.145,365.396,,40,40,,,,,,,,,,,,,,,,bars/033.png,bars/mask003.png,,,,,,,,,,,,2,1,,,,,,,2,5,3,5,,,,,,,,,,,364.645,365.145,365.396,367,space,1.596,,367,15,65,368.001,368.001,369.328,space,1.318,,0,9,9,9,1,25,155,,,,,,,,
,,654afb2d87012840100daf23,65af56a874eb1d0e84c24b39,2024-01-23_07h03.56.399,bars,2023.2.3,Win32,166.6666667,657b66ea316d21385b68909f,,,,,,,,,,,369.328,370.329,,,370.829,371.079,,68,68,,,,,,,,,,,,,,,,bars/034.png,bars/mask002.png,,,,,,,,,,,,6,2,,,,,,,0,7,1,7,,,,,,,,,,,370.329,370.829,371.079,373.309,space,2.226,,373.309,57,3,374.303,374.303,375.137,space,0.826,,0,10,10,10,1,125,65,,,,,,,,
,,654afb2d87012840100daf23,65af56a874eb1d0e84c24b39,2024-01-23_07h03.56.399,bars,2023.2.3,Win32,166.6666667,657b66ea316d21385b68909f,,,,,,,,,,,375.137,376.138,,,376.637,376.888,,15,15,,,,,,,,,,,,,,,,bars/013.png,bars/mask001.png,,,,,,,,,,,,8,2,,,,,,,0,9,1,10,,,,,,,,,,,376.138,376.637,376.888,380.696,space,3.8,,380.696,60,5,381.696,381.696,383.239,space,1.527,,0,11,11,11,1,75,10,,,,,,,,
,,654afb2d87012840100daf23,65af56a874eb1d0e84c24b39,2024-01-23_07h03.56.399,bars,2023.2.3,Win32,166.6666667,657b66ea316d21385b68909f,,,,,,,,,,,383.239,384.24,,,384.74,384.99,,71,71,,,,,,,,,,,,,,,,bars/029.png,bars/mask007.png,,,,,,,,,,,,1,1,,,,,,,2,7,2,7,,,,,,,,,,,384.24,384.74,384.99,389.312,space,4.317,,389.312,19,26,390.312,390.312,394.217,space,3.883,,0,12,12,12,1,90,45,,,,,,,,
,,654afb2d87012840100daf23,65af56a874eb1d0e84c24b39,2024-01-23_07h03.56.399,bars,2023.2.3,Win32,166.6666667,657b66ea316d21385b68909f,,,,,,,,,,,394.222,395.218,,,395.719,395.968,,26,26,,,,,,,,,,,,,,,,bars/022.png,bars/mask002.png,,,,,,,,,,,,4,2,,,,,,,4,5,3,5,,,,,,,,,,,395.218,395.719,395.968,397.504,space,1.526,,397.504,69,6,398.504,398.504,401.618,space,3.103,,0,13,13,13,1,95,20,,,,,,,,
,,654afb2d87012840100daf23,65af56a874eb1d0e84c24b39,2024-01-23_07h03.56.399,bars,2023.2.3,Win32,166.6666667,657b66ea316d21385b68909f,,,,,,,,,,,401.622,402.618,,,403.118,403.368,,150,-30,,,,,,,,,,,,,,,,bars/046.png,bars/mask003.png,,,,,,,,,,,,1,1,,,,,,,2,3,1,3,,,,,,,,,,,402.618,403.118,403.368,405.175,space,1.801,,405.175,5,65,406.175,406.175,409.122,space,2.929,,0,14,14,14,1,155,85,,,,,,,,
,,654afb2d87012840100daf23,65af56a874eb1d0e84c24b39,2024-01-23_07h03.56.399,bars,2023.2.3,Win32,166.6666667,657b66ea316d21385b68909f,,,,,,,,,,,409.127,410.125,,,410.622,410.873,,64,64,,,,,,,,,,,,,,,,bars/035.png,bars/mask007.png,,,,,,,,,,,,3,2,,,,,,,4,1,3,3,,,,,,,,,,,410.125,410.622,410.873,414.253,space,3.371,,414.253,69,4,415.25,415.25,415.521,space,0.256,,0,15,15,15,1,175,60,,,,,,,,
,,654afb2d87012840100daf23,65af56a874eb1d0e84c24b39,2024-01-23_07h03.56.399,bars,2023.2.3,Win32,166.6666667,657b66ea316d21385b68909f,,,,,,,,,,,415.521,416.518,,,417.016,417.265,,151,-29,,,,,,,,,,,,,,,,bars/044.png,bars/mask001.png,,,,,,,,,,,,0,2,,,,,,,6,0,5,0,,,,,,,,,,,416.518,417.016,417.265,421.073,space,3.794,,421.073,76,4,422.073,422.073,424.185,space,2.099,,0,16,16,16,1,75,155,,,,,,,,
,,654afb2d87012840100daf23,65af56a874eb1d0e84c24b39,2024-01-23_07h03.56.399,bars,2023.2.3,Win32,166.6666667,657b66ea316d21385b68909f,,,,,,,,,,,424.186,425.186,,,425.686,425.936,,107,107,,,,,,,,,,,,,,,,bars/029.png,bars/mask006.png,,,,,,,,,,,,2,1,,,,,,,4,2,5,2,,,,,,,,,,,425.186,425.686,425.936,429.022,space,3.079,,429.022,17,62,430.023,430.023,431.35,space,1.313,,0,17,17,17,1,90,45,,,,,,,,
,,654afb2d87012840100daf23,65af56a874eb1d0e84c24b39,2024-01-23_07h03.56.399,bars,2023.2.3,Win32,166.6666667,657b66ea316d21385b68909f,,,,,,,,,,,431.35,432.35,,,432.851,433.1,,97,97,,,,,,,,,,,,,,,,bars/012.png,bars/mask009.png,,,,,,,,,,,,5,1,,,,,,,6,4,7,4,,,,,,,,,,,432.35,432.851,433.1,434.963,space,1.857,,434.963,7,82,435.964,435.964,436.353,space,0.378,,0,18,18,18,1,90,15,,,,,,,,
,,654afb2d87012840100daf23,65af56a874eb1d0e84c24b39,2024-01-23_07h03.56.399,bars,2023.2.3,Win32,166.6666667,657b66ea316d21385b68909f,,,,,,,,,,,436.353,437.353,,,437.853,438.104,,109,109,,,,,,,,,,,,,,,,bars/001.png,bars/mask008.png,,,,,,,,,,,,2,1,,,,,,,4,2,6,3,,,,,,,,,,,437.353,437.853,438.104,439.507,space,1.401,,439.507,21,24,440.507,440.507,441.217,space,0.704,,0,19,19,19,1,130,85,,,,,,,,
,,654afb2d87012840100daf23,65af56a874eb1d0e84c24b39,2024-01-23_07h03.56.399,bars,2023.2.3,Win32,166.6666667,657b66ea316d21385b68909f,,,,,,,,,,,441.217,442.217,,,442.717,442.967,,77,77,,,,,,,,,,,,,,,,bars/048.png,bars/mask004.png,,,,,,,,,,,,1,1,,,,,,,6,4,8,4,,,,,,,,,,,442.217,442.717,442.967,447.046,space,4.072,,447.046,27,82,448.047,448.047,449.152,space,1.094,,0,20,20,20,1,50,175,,,,,,,,
,,654afb2d87012840100daf23,65af56a874eb1d0e84c24b39,2024-01-23_07h03.56.399,bars,2023.2.3,Win32,166.6666667,657b66ea316d21385b68909f,,,,,,,,,,,449.152,450.152,,,450.653,450.903,,158,-22,,,,,,,,,,,,,,,,bars/021.png,bars/mask009.png,,,,,,,,,,,,8,1,,,,,,,8,6,9,6,,,,,,,,,,,450.152,450.653,450.903,453.029,space,2.122,,453.029,3,88,454.03,454.03,454.529,space,0.489,,0,21,21,21,1,155,70,,,,,,,,
,,654afb2d87012840100daf23,65af56a874eb1d0e84c24b39,2024-01-23_07h03.56.399,bars,2023.2.3,Win32,166.6666667,657b66ea316d21385b68909f,,,,,,,,,,,454.529,455.53,,,456.031,456.281,,150,150,,,,,,,,,,,,,,,,bars/040.png,bars/mask006.png,,,,,,,,,,,,6,1,,,,,,,10,8,9,8,,,,,,,,,,,455.53,456.031,456.281,459.137,space,2.85,,459.137,10,35,460.137,460.137,460.79,space,0.641,,0,22,22,22,1,140,5,,,,,,,,
,,654afb2d87012840100daf23,65af56a874eb1d0e84c24b39,2024-01-23_07h03.56.399,bars,2023.2.3,Win32,166.6666667,657b66ea316d21385b68909f,,,,,,,,,,,460.791,461.79,,,462.291,462.541,,41,41,,,,,,,,,,,,,,,,bars/004.png,bars/mask003.png,,,,,,,,,,,,3,1,,,,,,,8,10,7,10,,,,,,,,,,,461.791,462.291,462.541,464.959,space,2.411,,464.959,16,84,465.96,465.96,466.39,space,0.418,,0,23,23,23,1,25,125,,,,,,,,
,,654afb2d87012840100daf23,65af56a874eb1d0e84c24b39,2024-01-23_07h03.56.399,bars,2023.2.3,Win32,166.6666667,657b66ea316d21385b68909f,,,,,,,,,,,466.391,467.391,,,467.892,468.142,,28,208,,,,,,,,,,,,,,,,bars/004.png,bars/mask007.png,,,,,,,,,,,,9,1,,,,,,,10,8,10,8,,,,,,,,,,,467.391,467.892,468.142,470.275,space,2.131,,470.275,3,83,471.275,471.275,471.644,space,0.36,,0,24,24,24,1,25,125,,,,,,,,
,,654afb2d87012840100daf23,65af56a874eb1d0e84c24b39,2024-01-23_07h03.56.399,bars,2023.2.3,Win32,166.6666667,657b66ea316d21385b68909f,,,,,,,,,,,471.644,472.644,,,473.144,473.395,,79,79,,,,,,,,,,,,,,,,bars/029.png,bars/mask001.png,,,,,,,,,,,,6,1,,,,,,,8,6,10,6,,,,,,,,,,,472.644,473.144,473.395,475.548,space,2.149,,475.548,11,34,476.549,476.549,477.105,space,0.549,,0,25,25,25,1,90,45,,,,,,,,
,,654afb2d87012840100daf23,65af56a874eb1d0e84c24b39,2024-01-23_07h03.56.399,bars,2023.2.3,Win32,166.6666667,657b66ea316d21385b68909f,,,,,,,,,,,477.106,478.106,,,478.606,478.856,,152,-28,,,,,,,,,,,,,,,,bars/038.png,bars/mask005.png,,,,,,,,,,,,3,1,,,,,,,6,4,6,4,,,,,,,,,,,478.106,478.606,478.856,481.83,space,2.968,,481.83,13,82,482.831,482.831,483.303,space,0.445,,0,26,26,26,1,165,70,,,,,,,,
,,654afb2d87012840100daf23,65af56a874eb1d0e84c24b39,2024-01-23_07h03.56.399,bars,2023.2.3,Win32,166.6666667,657b66ea316d21385b68909f,,,,,,,,,,,483.304,484.307,,,484.803,485.054,,94,94,,,,,,,,,,,,,,,,bars/023.png,bars/mask001.png,,,,,,,,,,,,2,2,,,,,,,8,6,8,7,,,,,,,,,,,484.307,484.803,485.054,487.104,space,2.043,,487.104,74,21,488.104,488.104,488.654,space,0.532,,0,27,27,27,1,20,115,,,,,,,,
,,654afb2d87012840100daf23,65af56a874eb1d0e84c24b39,2024-01-23_07h03.56.399,bars,2023.2.3,Win32,166.6666667,657b66ea316d21385b68909f,,,,,,,,,,,488.654,489.654,,,490.154,490.407,,29,29,,,,,,,,,,,,,,,,bars/036.png,bars/mask002.png,,,,,,,,,,,,7,2,,,,,,,6,8,8,10,,,,,,,,,,,489.655,490.154,490.407,492.229,space,1.814,,492.229,64,9,493.226,493.226,493.531,space,0.294,,0,28,28,28,1,145,20,,,,,,,,
,,654afb2d87012840100daf23,65af56a874eb1d0e84c24b39,2024-01-23_07h03.56.399,bars,2023.2.3,Win32,166.6666667,657b66ea316d21385b68909f,,,,,,,,,,,493.531,494.531,,,495.025,495.271,,18,198,,,,,,,,,,,,,,,,bars/022.png,bars/mask009.png,,,,,,,,,,,,6,2,,,,,,,8,6,7,6,,,,,,,,,,,494.531,495.025,495.271,497.6,space,2.321,,497.6,77,2,498.596,498.596,498.923,space,0.315,,0,29,29,29,1,95,20,,,,,,,,
,,654afb2d87012840100daf23,65af56a874eb1d0e84c24b39,2024-01-23_07h03.56.399,bars,2023.2.3,Win32,166.6666667,657b66ea316d21385b68909f,,,,,,,,,,,498.924,499.924,,,500.427,500.674,,161,161,,,,,,,,,,,,,,,,bars/005.png,bars/mask008.png,,,,,,,,,,,,2,2,,,,,,,10,8,10,8,,,,,,,,,,,499.924,500.427,500.674,502.859,space,2.175,,502.859,29,21,503.856,503.856,504.406,space,0.537,,0,30,30,30,1,10,140,,,,,,,,
,,654afb2d87012840100daf23,65af56a874eb1d0e84c24b39,2024-01-23_07h03.56.399,bars,2023.2.3,Win32,166.6666667,657b66ea316d21385b68909f,,,,,,,,,,,504.406,505.409,,,505.906,506.153,,29,29,,,,,,,,,,,,,,,,bars/004.png,bars/mask009.png,,,,,,,,,,,,5,1,,,,,,,8,10,6,9,,,,,,,,,,,505.409,505.906,506.153,508.533,space,2.372,,508.533,4,84,509.533,509.533,509.999,space,0.452,,0,31,31,31,1,25,125,,,,,,,,
,,654afb2d87012840100daf23,65af56a874eb1d0e84c24b39,2024-01-23_07h03.56.399,bars,2023.2.3,Win32,166.6666667,657b66ea316d21385b68909f,,,,,,,,,,,509.999,510.995,,,511.493,511.743,,110,110,,,,,,,,,,,,,,,,bars/025.png,bars/mask006.png,,,,,,,,,,,,5,1,,,,,,,6,8,6,8,,,,,,,,,,,510.995,511.493,511.743,514.064,space,2.303,,514.064,5,70,515.068,515.068,515.923,space,0.847,,0,32,32,32,1,105,40,,,,,,,,
,,654afb2d87012840100daf23,65af56a874eb1d0e84c24b39,2024-01-23_07h03.56.399,bars,2023.2.3,Win32,166.6666667,657b66ea316d21385b68909f,,,,,,,,,,,515.923,516.919,,,517.419,517.67,,35,35,,,,,,,,,,,,,,,,bars/006.png,bars/mask006.png,,,,,,,,,,,,8,1,,,,,,,8,10,8,10,,,,,,,,,,,516.919,517.419,517.67,519.733,space,2.059,,519.734,0,65,520.735,520.735,521.349,space,0.605,,0,33,33,33,1,35,100,,,,,,,,
,,654afb2d87012840100daf23,65af56a874eb1d0e84c24b39,2024-01-23_07h03.56.399,bars,2023.2.3,Win32,166.6666667,657b66ea316d21385b68909f,,,,,,,,,,,521.349,522.35,,,522.846,523.096,,130,130,,,,,,,,,,,,,,,,bars/036.png,bars/mask000.png,,,,,,,,,,,,3,1,,,,,,,6,8,6,10,,,,,,,,,,,522.35,522.846,523.096,525.147,space,2.047,,525.147,15,70,526.147,526.147,526.661,space,0.503,,0,34,34,34,1,145,20,,,,,,,,
,,654afb2d87012840100daf23,65af56a874eb1d0e84c24b39,2024-01-23_07h03.56.399,bars,2023.2.3,Win32,166.6666667,657b66ea316d21385b68909f,,,,,,,,,,,526.661,527.661,,,528.162,528.412,,137,137,,,,,,,,,,,,,,,,bars/036.png,bars/mask009.png,,,,,,,,,,,,3,1,,,,,,,4,6,4,6,,,,,,,,,,,527.661,528.162,528.412,532.019,space,3.603,,532.019,8,63,533.019,533.019,533.499,space,0.472,,0,35,35,35,1,145,20,,,,,,,,
,,654afb2d87012840100daf23,65af56a874eb1d0e84c24b39,2024-01-23_07h03.56.399,bars,2023.2.3,Win32,166.6666667,657b66ea316d21385b68909f,,,,,,,,,,,533.499,534.499,,,535,535.249,,84,84,,,,,,,,,,,,,,,,bars/021.png,bars/mask000.png,,,,,,,,,,,,2,2,,,,,,,2,4,2,4,,,,,,,,,,,534.499,534.999,535.249,536.972,space,1.718,,536.973,71,14,537.973,537.973,538.529,space,0.546,,0,36,36,36,1,155,70,,,,,,,,
,,654afb2d87012840100daf23,65af56a874eb1d0e84c24b39,2024-01-23_07h03.56.399,bars,2023.2.3,Win32,166.6666667,657b66ea316d21385b68909f,,,,,,,,,,,538.529,539.53,,,540.03,540.28,,138,138,,,,,,,,,,,,,,,,bars/000.png,bars/mask002.png,,,,,,,,,,,,3,2,,,,,,,4,6,4,4,,,,,,,,,,,539.53,540.03,540.28,543.47,space,3.184,,543.47,82,7,544.47,544.47,544.728,space,0.243,,0,37,37,37,1,40,145,,,,,,,,
,,654afb2d87012840100daf23,65af56a874eb1d0e84c24b39,2024-01-23_07h03.56.399,bars,2023.2.3,Win32,166.6666667,657b66ea316d21385b68909f,,,,,,,,,,,544.728,545.728,,,546.228,546.478,,140,140,,,,,,,,,,,,,,,,bars/034.png,bars/mask003.png,,,,,,,,,,,,1,1,,,,,,,2,8,1,7,,,,,,,,,,,545.728,546.228,546.478,550.842,space,4.356,,550.842,15,75,551.843,551.843,552.551,space,0.694,,0,38,38,38,1,125,65,,,,,,,,
,,654afb2d87012840100daf23,65af56a874eb1d0e84c24b39,2024-01-23_07h03.56.399,bars,2023.2.3,Win32,166.6666667,657b66ea316d21385b68909f,,,,,,,,,,,552.552,553.553,,,554.052,554.302,,34,34,,,,,,,,,,,,,,,,bars/005.png,bars/mask008.png,,,,,,,,,,,,1,1,,,,,,,4,10,5,10,,,,,,,,,,,553.553,554.052,554.302,557.408,space,3.099,,557.408,24,74,558.409,558.409,559.027,space,0.609,,0,39,39,39,1,10,140,,,,,,,,
,,654afb2d87012840100daf23,65af56a874eb1d0e84c24b39,2024-01-23_07h03.56.399,bars,2023.2.3,Win32,166.6666667,657b66ea316d21385b68909f,,,,,,,,,,,559.027,560.021,,,560.521,560.771,,137,137,,,,,,,,,,,,,,,,bars/040.png,bars/mask006.png,,,,,,,,,,,,6,1,,,,,,,6,8,7,7,,,,,,,,,,,560.021,560.521,560.771,565.788,space,5.012,,565.788,3,48,566.788,566.788,567.101,space,0.297,,0,40,40,40,1,140,5,,,,,,,,
,,654afb2d87012840100daf23,65af56a874eb1d0e84c24b39,2024-01-23_07h03.56.399,bars,2023.2.3,Win32,166.6666667,657b66ea316d21385b68909f,,,,,,,,,,,567.101,568.102,,,568.602,568.852,,155,155,,,,,,,,,,,,,,,,bars/018.png,bars/mask002.png,,,,,,,,,,,,4,1,,,,,,,4,6,5,7,,,,,,,,,,,568.102,568.602,568.852,571.082,space,2.227,,571.082,5,65,572.083,572.083,572.583,space,0.485,,0,41,41,41,1,150,90,,,,,,,,
,,654afb2d87012840100daf23,65af56a874eb1d0e84c24b39,2024-01-23_07h03.56.399,bars,2023.2.3,Win32,166.6666667,657b66ea316d21385b68909f,,,,,,,,,,,572.584,573.584,,,574.084,574.335,,59,59,,,,,,,,,,,,,,,,bars/035.png,bars/mask006.png,,,,,,,,,,,,9,2,,,,,,,6,8,6,9,,,,,,,,,,,573.584,574.084,574.335,575.217,space,0.878,,575.217,64,1,576.217,576.217,576.621,space,0.393,,0,42,42,42,1,175,60,,,,,,,,
,,654afb2d87012840100daf23,65af56a874eb1d0e84c24b39,2024-01-23_07h03.56.399,bars,2023.2.3,Win32,166.6666667,657b66ea316d21385b68909f,,,,,,,,,,,576.621,577.621,,,578.121,578.371,,90,90,,,,,,,,,,,,,,,,bars/028.png,bars/mask004.png,,,,,,,,,,,,0,2,,,,,,,8,6,9,7,,,,,,,,,,,577.621,578.121,578.371,582.395,space,4.021,,582.395,45,30,583.395,583.395,584.014,space,0.606,,0,43,43,43,1,45,120,,,,,,,,
,,654afb2d87012840100daf23,65af56a874eb1d0e84c24b39,2024-01-23_07h03.56.399,bars,2023.2.3,Win32,166.6666667,657b66ea316d21385b68909f,,,,,,,,,,,584.014,585.015,,,585.515,585.765,,111,111,,,,,,,,,,,,,,,,bars/023.png,bars/mask004.png,,,,,,,,,,,,9,2,,,,,,,6,8,5,10,,,,,,,,,,,585.015,585.515,585.765,588.037,space,2.268,,588.037,89,4,589.037,589.037,589.35,space,0.3,,0,44,44,44,1,20,115,,,,,,,,
,,654afb2d87012840100daf23,65af56a874eb1d0e84c24b39,2024-01-23_07h03.56.399,bars,2023.2.3,Win32,166.6666667,657b66ea316d21385b68909f,,,,,,,,,,,589.35,590.35,,,590.851,591.101,,14,14,,,,,,,,,,,,,,,,bars/032.png,bars/mask004.png,,,,,,,,,,,,7,2,,,,,,,4,10,4,9,,,,,,,,,,,590.35,590.851,591.101,592.928,space,1.822,,592.928,69,6,593.923,593.923,594.395,space,0.462,,0,45,45,45,1,125,20,,,,,,,,
,,654afb2d87012840100daf23,65af56a874eb1d0e84c24b39,2024-01-23_07h03.56.399,bars,2023.2.3,Win32,166.6666667,657b66ea316d21385b68909f,,,,,,,,,,,594.395,595.395,,,595.895,596.146,,164,164,,,,,,,,,,,,,,,,bars/043.png,bars/mask004.png,,,,,,,,,,,,0,2,,,,,,,2,8,3,9,,,,,,,,,,,595.395,595.895,596.146,599.773,space,3.622,,599.773,46,34,600.774,600.774,601.468,space,0.68,,0,46,46,46,1,30,130,,,,,,,,
,,654afb2d87012840100daf23,65af56a874eb1d0e84c24b39,2024-01-23_07h03.56.399,bars,2023.2.3,Win32,166.6666667,657b66ea316d21385b68909f,,,,,,,,,,,601.469,602.469,,,602.969,603.22,,151,151,,,,,,,,,,,,,,,,bars/016.png,bars/mask002.png,,,,,,,,,,,,5,2,,,,,,,4,6,4,9,,,,,,,,,,,602.469,602.969,603.22,604.728,space,1.502,,604.728,69,14,605.728,605.728,606.103,space,0.367,,0,47,47,47,1,40,165,,,,,,,,
,,654afb2d87012840100daf23,65af56a874eb1d0e84c24b39,2024-01-23_07h03.56.399,bars,2023.2.3,Win32,166.6666667,657b66ea316d21385b68909f,,,,,,,,,,,606.103,607.103,,,607.604,607.854,,136,136,,,,,,,,,,,,,,,,bars/034.png,bars/mask006.png,,,,,,,,,,,,1,1,,,,,,,2,8,1,7,,,,,,,,,,,607.103,607.604,607.854,609.82,space,1.962,,609.82,11,71,610.821,610.821,611.343,space,0.511,,0,48,48,48,1,125,65,,,,,,,,
,,654afb2d87012840100daf23,65af56a874eb1d0e84c24b39,2024-01-23_07h03.56.399,bars,2023.2.3,Win32,166.6666667,657b66ea316d21385b68909f,,,,,,,,,,,611.343,612.342,,,612.843,613.093,,13,13,,,,,,,,,,,,,,,,bars/047.png,bars/mask009.png,,,,,,,,,,,,0,1,,,,,,,0,6,0,6,,,,,,,,,,,612.342,612.843,613.093,614.935,space,1.833,,614.935,2,57,615.934,615.934,617.235,space,1.284,,0,49,49,49,1,15,70,,,,,,,,
,,654afb2d87012840100daf23,65af56a874eb1d0e84c24b39,2024-01-23_07h03.56.399,bars,2023.2.3,Win32,166.6666667,657b66ea316d21385b68909f,,,,,,,,,,,,,,,,,,,,,,,,,,,,,,,,,,,,,,,,,,,,,,,,,,,,,,,,,,,,,,,,,,,,,,,,,,,,,,,,,,,,,,,,,,,,,617.237,677.235,0,0,0,2,1,sequence_tables/blk005.csv
,,654afb2d87012840100daf23,65af56a874eb1d0e84c24b39,2024-01-23_07h03.56.399,bars,2023.2.3,Win32,166.6666667,657b66ea316d21385b68909f,,,,,,,,,,,680.023,681.021,,,681.522,681.771,,100,100,,,,,,,,,,,,,,,,bars/037.png,bars/mask003.png,,,,,,,,,,,,8,2,,,,,,,8,8,9,9,,,,,,677.247,680.02,space,2.769,,681.021,681.522,681.771,684.092,space,2.317,,684.092,50,5,685.093,685.093,685.093,,,,0,0,0,0,1,150,105,,,,,,,,
,,654afb2d87012840100daf23,65af56a874eb1d0e84c24b39,2024-01-23_07h03.56.399,bars,2023.2.3,Win32,166.6666667,657b66ea316d21385b68909f,,,,,,,,,,,685.094,686.093,,,686.594,686.844,,100,100,,,,,,,,,,,,,,,,bars/011.png,bars/mask007.png,,,,,,,,,,,,3,2,,,,,,,10,6,8,6,,,,,,,,,,,686.093,686.594,686.844,688.98,space,2.127,,688.98,60,15,689.977,689.977,689.983,,,,0,1,1,1,1,160,85,,,,,,,,
,,654afb2d87012840100daf23,65af56a874eb1d0e84c24b39,2024-01-23_07h03.56.399,bars,2023.2.3,Win32,166.6666667,657b66ea316d21385b68909f,,,,,,,,,,,689.983,690.985,,,691.486,691.736,,100,100,,,,,,,,,,,,,,,,bars/039.png,bars/mask006.png,,,,,,,,,,,,7,2,,,,,,,8,8,10,8,,,,,,,,,,,690.985,691.486,691.736,694.39,space,2.648,,694.39,75,5,695.39,695.39,695.396,,,,0,2,2,2,1,175,105,,,,,,,,
,,654afb2d87012840100daf23,65af56a874eb1d0e84c24b39,2024-01-23_07h03.56.399,bars,2023.2.3,Win32,166.6666667,657b66ea316d21385b68909f,,,,,,,,,,,695.396,696.391,,,696.891,697.141,,101,101,,,,,,,,,,,,,,,,bars/041.png,bars/mask001.png,,,,,,,,,,,,3,2,,,,,,,6,6,4,7,,,,,,,,,,,696.391,696.891,697.141,700.22,space,3.073,,700.22,81,16,701.22,701.22,701.226,,,,0,3,3,3,1,20,85,,,,,,,,
,,654afb2d87012840100daf23,65af56a874eb1d0e84c24b39,2024-01-23_07h03.56.399,bars,2023.2.3,Win32,166.6666667,657b66ea316d21385b68909f,,,,,,,,,,,701.226,702.221,,,702.721,702.971,,145,145,,,,,,,,,,,,,,,,bars/001.png,bars/mask006.png,,,,,,,,,,,,3,1,,,,,,,4,8,5,7,,,,,,,,,,,702.221,702.721,702.971,704.319,space,1.341,,704.319,15,60,705.321,705.321,705.345,,,,0,4,4,4,1,130,85,,,,,,,,
,,654afb2d87012840100daf23,65af56a874eb1d0e84c24b39,2024-01-23_07h03.56.399,bars,2023.2.3,Win32,166.6666667,657b66ea316d21385b68909f,,,,,,,,,,,705.345,706.341,,,706.841,707.091,,172,-8,,,,,,,,,,,,,,,,bars/046.png,bars/mask003.png,,,,,,,,,,,,0,1,,,,,,,2,6,1,6,,,,,,,,,,,706.341,706.841,707.091,709.995,space,2.9,,709.995,17,87,710.996,710.996,711.002,,,,0,5,5,5,1,155,85,,,,,,,,
,,654afb2d87012840100daf23,65af56a874eb1d0e84c24b39,2024-01-23_07h03.56.399,bars,2023.2.3,Win32,166.6666667,657b66ea316d21385b68909f,,,,,,,,,,,711.002,711.997,,,712.497,712.744,,21,21,,,,,,,,,,,,,,,,bars/022.png,bars/mask000.png,,,,,,,,,,,,6,2,,,,,,,4,4,3,6,,,,,,,,,,,711.997,712.497,712.744,713.595,space,0.849,,713.595,74,1,714.596,714.596,714.597,,,,0,6,6,6,1,95,20,,,,,,,,
,,654afb2d87012840100daf23,65af56a874eb1d0e84c24b39,2024-01-23_07h03.56.399,bars,2023.2.3,Win32,166.6666667,657b66ea316d21385b68909f,,,,,,,,,,,714.597,715.596,,,716.097,716.348,,178,-2,,,,,,,,,,,,,,,,bars/045.png,bars/mask004.png,,,,,,,,,,,,1,2,,,,,,,2,2,1,1,,,,,,,,,,,715.596,716.097,716.348,718.91,space,2.554,,718.91,78,12,719.905,719.905,719.909,,,,0,7,7,7,1,100,10,,,,,,,,
,,654afb2d87012840100daf23,65af56a874eb1d0e84c24b39,2024-01-23_07h03.56.399,bars,2023.2.3,Win32,166.6666667,657b66ea316d21385b68909f,,,,,,,,,,,719.909,720.905,,,721.406,721.655,,21,21,,,,,,,,,,,,,,,,bars/041.png,bars/mask006.png,,,,,,,,,,,,3,1,,,,,,,4,4,3,3,,,,,,,,,,,720.905,721.406,721.655,725.644,space,3.985,,725.644,1,64,726.644,726.644,726.65,,,,0,8,8,8,1,20,85,,,,,,,,
,,654afb2d87012840100daf23,65af56a874eb1d0e84c24b39,2024-01-23_07h03.56.399,bars,2023.2.3,Win32,166.6666667,657b66ea316d21385b68909f,,,,,,,,,,,726.651,727.652,,,728.152,728.402,,126,126,,,,,,,,,,,,,,,,bars/031.png,bars/mask005.png,,,,,,,,,,,,2,1,,,,,,,2,6,3,7,,,,,,,,,,,727.652,728.152,728.402,731.814,space,3.405,,731.814,6,89,732.815,732.815,732.82,,,,0,9,9,9,1,120,35,,,,,,,,
,,654afb2d87012840100daf23,65af56a874eb1d0e84c24b39,2024-01-23_07h03.56.399,bars,2023.2.3,Win32,166.6666667,657b66ea316d21385b68909f,,,,,,,,,,,732.82,733.815,,,734.316,734.565,,159,159,,,,,,,,,,,,,,,,bars/036.png,bars/mask009.png,,,,,,,,,,,,2,1,,,,,,,4,8,4,8,,,,,,,,,,,733.815,734.316,734.565,738.11,space,3.539,,738.11,14,41,739.11,739.11,739.116,,,,0,10,10,10,1,145,20,,,,,,,,
,,654afb2d87012840100daf23,65af56a874eb1d0e84c24b39,2024-01-23_07h03.56.399,bars,2023.2.3,Win32,166.6666667,657b66ea316d21385b68909f,,,,,,,,,,,739.116,740.117,,,740.617,740.868,,136,136,,,,,,,,,,,,,,,,bars/034.png,bars/mask007.png,,,,,,,,,,,,4,1,,,,,,,6,6,6,6,,,,,,,,,,,740.117,740.617,740.868,743.063,space,2.19,,743.063,11,71,744.064,744.064,744.069,,,,0,11,11,11,1,125,65,,,,,,,,
,,654afb2d87012840100daf23,65af56a874eb1d0e84c24b39,2024-01-23_07h03.56.399,bars,2023.2.3,Win32,166.6666667,657b66ea316d21385b68909f,,,,,,,,,,,744.07,745.072,,,745.571,745.822,,97,97,,,,,,,,,,,,,,,,bars/031.png,bars/mask004.png,,,,,,,,,,,,1,1,,,,,,,4,4,3,3,,,,,,,,,,,745.072,745.571,745.822,747.24,space,1.411,,747.24,23,62,748.24,748.24,748.241,,,,0,12,12,12,1,120,35,,,,,,,,
,,654afb2d87012840100daf23,65af56a874eb1d0e84c24b39,2024-01-23_07h03.56.399,bars,2023.2.3,Win32,166.6666667,657b66ea316d21385b68909f,,,,,,,,,,,748.241,749.241,,,749.741,749.991,,41,221,,,,,,,,,,,,,,,,bars/034.png,bars/mask002.png,,,,,,,,,,,,1,2,,,,,,,2,6,1,6,,,,,,,,,,,749.241,749.741,749.991,752.805,space,2.808,,752.805,84,24,753.806,753.806,753.812,,,,0,13,13,13,1,125,65,,,,,,,,
,,654afb2d87012840100daf23,65af56a874eb1d0e84c24b39,2024-01-23_07h03.56.399,bars,2023.2.3,Win32,166.6666667,657b66ea316d21385b68909f,,,,,,,,,,,753.812,754.813,,,755.313,755.557,,13,193,,,,,,,,,,,,,,,,bars/032.png,bars/mask002.png,,,,,,,,,,,,6,2,,,,,,,0,8,0,8,,,,,,,,,,,754.813,755.313,755.557,758.503,space,2.936,,758.503,68,7,759.503,759.503,759.51,,,,0,14,14,14,1,125,20,,,,,,,,
,,654afb2d87012840100daf23,65af56a874eb1d0e84c24b39,2024-01-23_07h03.56.399,bars,2023.2.3,Win32,166.6666667,657b66ea316d21385b68909f,,,,,,,,,,,759.51,760.511,,,761.011,761.262,,164,-16,,,,,,,,,,,,,,,,bars/020.png,bars/mask008.png,,,,,,,,,,,,5,2,,,,,,,0,6,0,6,,,,,,,,,,,760.511,761.011,761.262,763.679,space,2.413,,763.679,49,6,764.673,764.673,764.679,,,,0,15,15,15,1,115,170,,,,,,,,
,,654afb2d87012840100daf23,65af56a874eb1d0e84c24b39,2024-01-23_07h03.56.399,bars,2023.2.3,Win32,166.6666667,657b66ea316d21385b68909f,,,,,,,,,,,764.679,765.674,,,766.173,766.424,,39,39,,,,,,,,,,,,,,,,bars/010.png,bars/mask007.png,,,,,,,,,,,,4,2,,,,,,,2,8,3,9,,,,,,,,,,,765.674,766.173,766.424,768.801,space,2.37,,768.801,54,16,769.801,769.801,769.807,,,,0,16,16,16,1,165,55,,,,,,,,
,,654afb2d87012840100daf23,65af56a874eb1d0e84c24b39,2024-01-23_07h03.56.399,bars,2023.2.3,Win32,166.6666667,657b66ea316d21385b68909f,,,,,,,,,,,769.807,770.809,,,771.309,771.559,,43,223,,,,,,,,,,,,,,,,bars/034.png,bars/mask007.png,,,,,,,,,,,,3,2,,,,,,,0,10,1,10,,,,,,,,,,,770.809,771.309,771.559,774.331,space,2.766,,774.331,82,22,775.332,775.332,775.338,,,,0,17,17,17,1,125,65,,,,,,,,
,,654afb2d87012840100daf23,65af56a874eb1d0e84c24b39,2024-01-23_07h03.56.399,bars,2023.2.3,Win32,166.6666667,657b66ea316d21385b68909f,,,,,,,,,,,775.338,776.333,,,776.833,777.083,,153,153,,,,,,,,,,,,,,,,bars/018.png,bars/mask006.png,,,,,,,,,,,,1,1,,,,,,,2,8,1,7,,,,,,,,,,,776.333,776.833,777.083,778.14,space,1.051,,778.14,3,63,779.14,779.14,779.141,,,,0,18,18,18,1,150,90,,,,,,,,
,,654afb2d87012840100daf23,65af56a874eb1d0e84c24b39,2024-01-23_07h03.56.399,bars,2023.2.3,Win32,166.6666667,657b66ea316d21385b68909f,,,,,,,,,,,779.141,780.14,,,780.64,780.891,,138,138,,,,,,,,,,,,,,,,bars/003.png,bars/mask004.png,,,,,,,,,,,,5,2,,,,,,,0,6,0,5,,,,,,,,,,,780.14,780.64,780.891,782.858,space,1.961,,782.858,67,2,783.858,783.858,783.864,,,,0,19,19,19,1,25,140,,,,,,,,
,,654afb2d87012840100daf23,65af56a874eb1d0e84c24b39,2024-01-23_07h03.56.399,bars,2023.2.3,Win32,166.6666667,657b66ea316d21385b68909f,,,,,,,,,,,783.864,784.866,,,785.366,785.616,,156,-24,,,,,,,,,,,,,,,,bars/016.png,bars/mask006.png,,,,,,,,,,,,6,2,,,,,,,2,8,2,8,,,,,,,,,,,784.866,785.366,785.616,789.153,space,3.535,,789.153,64,9,790.153,790.153,790.159,,,,0,20,20,20,1,40,165,,,,,,,,
,,654afb2d87012840100daf23,65af56a874eb1d0e84c24b39,2024-01-23_07h03.56.399,bars,2023.2.3,Win32,166.6666667,657b66ea316d21385b68909f,,,,,,,,,,,790.159,791.161,,,791.661,791.911,,17,197,,,,,,,,,,,,,,,,bars/022.png,bars/mask001.png,,,,,,,,,,,,9,2,,,,,,,4,10,5,10,,,,,,,,,,,791.161,791.661,791.911,794.843,space,2.928,,794.843,78,3,795.844,795.844,795.85,,,,0,21,21,21,1,95,20,,,,,,,,
,,654afb2d87012840100daf23,65af56a874eb1d0e84c24b39,2024-01-23_07h03.56.399,bars,2023.2.3,Win32,166.6666667,657b66ea316d21385b68909f,,,,,,,,,,,795.85,796.852,,,797.352,797.602,,148,-32,,,,,,,,,,,,,,,,bars/044.png,bars/mask002.png,,,,,,,,,,,,6,2,,,,,,,6,8,6,8,,,,,,,,,,,796.852,797.352,797.602,801.299,space,3.694,,801.299,73,7,802.299,802.299,802.305,,,,0,22,22,22,1,75,155,,,,,,,,
,,654afb2d87012840100daf23,65af56a874eb1d0e84c24b39,2024-01-23_07h03.56.399,bars,2023.2.3,Win32,166.6666667,657b66ea316d21385b68909f,,,,,,,,,,,802.305,803.307,,,803.807,804.057,,87,87,,,,,,,,,,,,,,,,bars/001.png,bars/mask002.png,,,,,,,,,,,,9,2,,,,,,,8,10,7,10,,,,,,,,,,,803.307,803.807,804.057,807.746,space,3.687,,807.746,43,2,808.743,808.743,808.749,,,,0,23,23,23,1,130,85,,,,,,,,
,,654afb2d87012840100daf23,65af56a874eb1d0e84c24b39,2024-01-23_07h03.56.399,bars,2023.2.3,Win32,166.6666667,657b66ea316d21385b68909f,,,,,,,,,,,808.749,809.747,,,810.244,810.491,,80,80,,,,,,,,,,,,,,,,bars/041.png,bars/mask004.png,,,,,,,,,,,,8,2,,,,,,,10,10,10,9,,,,,,,,,,,809.747,810.244,810.491,812.471,space,1.974,,812.471,60,5,813.472,813.472,813.477,,,,0,24,24,24,1,20,85,,,,,,,,
,,654afb2d87012840100daf23,65af56a874eb1d0e84c24b39,2024-01-23_07h03.56.399,bars,2023.2.3,Win32,166.6666667,657b66ea316d21385b68909f,,,,,,,,,,,813.477,814.472,,,814.973,815.223,,1,181,,,,,,,,,,,,,,,,bars/048.png,bars/mask006.png,,,,,,,,,,,,7,2,,,,,,,10,10,9,9,,,,,,,,,,,814.472,814.973,815.223,817.21,space,1.984,,817.211,49,6,818.211,818.211,818.217,,,,0,25,25,25,1,50,175,,,,,,,,
,,654afb2d87012840100daf23,65af56a874eb1d0e84c24b39,2024-01-23_07h03.56.399,bars,2023.2.3,Win32,166.6666667,657b66ea316d21385b68909f,,,,,,,,,,,818.217,819.218,,,819.719,819.969,,98,-82,,,,,,,,,,,,,,,,bars/037.png,bars/mask004.png,,,,,,,,,,,,8,2,,,,,,,8,10,8,10,,,,,,,,,,,819.218,819.719,819.969,823.839,space,3.863,,823.839,52,7,824.839,824.839,824.845,,,,0,26,26,26,1,150,105,,,,,,,,
,,654afb2d87012840100daf23,65af56a874eb1d0e84c24b39,2024-01-23_07h03.56.399,bars,2023.2.3,Win32,166.6666667,657b66ea316d21385b68909f,,,,,,,,,,,824.846,825.847,,,826.347,826.598,,102,102,,,,,,,,,,,,,,,,bars/037.png,bars/mask002.png,,,,,,,,,,,,7,2,,,,,,,6,8,7,8,,,,,,,,,,,825.847,826.347,826.598,828.8,space,2.196,,828.8,48,3,829.801,829.801,829.807,,,,0,27,27,27,1,150,105,,,,,,,,
,,654afb2d87012840100daf23,65af56a874eb1d0e84c24b39,2024-01-23_07h03.56.399,bars,2023.2.3,Win32,166.6666667,657b66ea316d21385b68909f,,,,,,,,,,,829.807,830.808,,,831.302,831.552,,50,50,,,,,,,,,,,,,,,,bars/025.png,bars/mask004.png,,,,,,,,,,,,4,2,,,,,,,4,6,4,6,,,,,,,,,,,830.808,831.302,831.552,835.484,space,3.928,,835.485,55,10,836.48,836.48,836.486,,,,0,28,28,28,1,105,40,,,,,,,,
,,654afb2d87012840100daf23,65af56a874eb1d0e84c24b39,2024-01-23_07h03.56.399,bars,2023.2.3,Win32,166.6666667,657b66ea316d21385b68909f,,,,,,,,,,,836.486,837.486,,,837.986,838.236,,104,104,,,,,,,,,,,,,,,,bars/039.png,bars/mask004.png,,,,,,,,,,,,4,2,,,,,,,6,4,6,4,,,,,,,,,,,837.486,837.986,838.236,840.213,space,1.973,,840.213,71,1,841.21,841.21,841.211,,,,0,29,29,29,1,175,105,,,,,,,,
,,654afb2d87012840100daf23,65af56a874eb1d0e84c24b39,2024-01-23_07h03.56.399,bars,2023.2.3,Win32,166.6666667,657b66ea316d21385b68909f,,,,,,,,,,,841.211,842.211,,,842.711,842.962,,161,161,,,,,,,,,,,,,,,,bars/035.png,bars/mask004.png,,,,,,,,,,,,5,1,,,,,,,8,6,10,7,,,,,,,,,,,842.211,842.711,842.962,843.802,space,0.836,,843.802,14,79,844.802,844.802,844.804,,,,0,30,30,30,1,175,60,,,,,,,,
,,654afb2d87012840100daf23,65af56a874eb1d0e84c24b39,2024-01-23_07h03.56.399,bars,2023.2.3,Win32,166.6666667,657b66ea316d21385b68909f,,,,,,,,,,,844.804,845.803,,,846.303,846.553,,50,230,,,,,,,,,,,,,,,,bars/016.png,bars/mask006.png,,,,,,,,,,,,4,1,,,,,,,6,4,6,4,,,,,,,,,,,845.803,846.303,846.553,850.062,space,3.502,,850.062,10,65,851.063,851.063,851.069,,,,0,31,31,31,1,40,165,,,,,,,,
,,654afb2d87012840100daf23,65af56a874eb1d0e84c24b39,2024-01-23_07h03.56.399,bars,2023.2.3,Win32,166.6666667,657b66ea316d21385b68909f,,,,,,,,,,,851.069,852.071,,,852.57,852.824,,137,137,,,,,,,,,,,,,,,,bars/037.png,bars/mask008.png,,,,,,,,,,,,4,1,,,,,,,8,2,7,3,,,,,,,,,,,852.071,852.57,852.824,854.576,space,1.751,,854.576,13,32,855.572,855.572,855.579,,,,0,32,32,32,1,150,105,,,,,,,,
,,654afb2d87012840100daf23,65af56a874eb1d0e84c24b39,2024-01-23_07h03.56.399,bars,2023.2.3,Win32,166.6666667,657b66ea316d21385b68909f,,,,,,,,,,,855.579,856.583,,,857.081,857.327,,21,21,,,,,,,,,,,,,,,,bars/023.png,bars/mask003.png,,,,,,,,,,,,9,1,,,,,,,10,4,9,5,,,,,,,,,,,856.583,857.081,857.327,858.939,space,1.61,,858.939,1,86,859.936,859.936,859.942,,,,0,33,33,33,1,20,115,,,,,,,,
,,654afb2d87012840100daf23,65af56a874eb1d0e84c24b39,2024-01-23_07h03.56.399,bars,2023.2.3,Win32,166.6666667,657b66ea316d21385b68909f,,,,,,,,,,,859.942,860.937,,,861.44,861.687,,17,17,,,,,,,,,,,,,,,,bars/009.png,bars/mask002.png,,,,,,,,,,,,9,1,,,,,,,10,6,10,7,,,,,,,,,,,860.937,861.44,861.687,863.07,space,1.377,,863.07,2,88,864.071,864.071,864.071,,,,0,34,34,34,1,15,105,,,,,,,,
,,654afb2d87012840100daf23,65af56a874eb1d0e84c24b39,2024-01-23_07h03.56.399,bars,2023.2.3,Win32,166.6666667,657b66ea316d21385b68909f,,,,,,,,,,,864.071,865.077,,,865.571,865.821,,17,17,,,,,,,,,,,,,,,,bars/003.png,bars/mask008.png,,,,,,,,,,,,7,1,,,,,,,8,8,9,9,,,,,,,,,,,865.077,865.571,865.821,869.056,space,3.225,,869.056,8,57,870.054,870.054,870.058,,,,0,35,35,35,1,25,140,,,,,,,,
,,654afb2d87012840100daf23,65af56a874eb1d0e84c24b39,2024-01-23_07h03.56.399,bars,2023.2.3,Win32,166.6666667,657b66ea316d21385b68909f,,,,,,,,,,,870.059,871.061,,,871.561,871.812,,24,204,,,,,,,,,,,,,,,,bars/006.png,bars/mask006.png,,,,,,,,,,,,6,1,,,,,,,10,6,10,6,,,,,,,,,,,871.061,871.561,871.812,874.953,space,3.136,,874.953,11,76,875.952,875.952,875.957,,,,0,36,36,36,1,35,100,,,,,,,,
,,654afb2d87012840100daf23,65af56a874eb1d0e84c24b39,2024-01-23_07h03.56.399,bars,2023.2.3,Win32,166.6666667,657b66ea316d21385b68909f,,,,,,,,,,,875.957,876.953,,,877.454,877.703,,163,-17,,,,,,,,,,,,,,,,bars/039.png,bars/mask003.png,,,,,,,,,,,,6,1,,,,,,,10,8,10,8,,,,,,,,,,,876.953,877.454,877.703,881.088,space,3.378,,881.088,12,58,882.088,882.088,882.093,,,,0,37,37,37,1,175,105,,,,,,,,
,,654afb2d87012840100daf23,65af56a874eb1d0e84c24b39,2024-01-23_07h03.56.399,bars,2023.2.3,Win32,166.6666667,657b66ea316d21385b68909f,,,,,,,,,,,882.093,883.089,,,883.589,883.838,,23,23,,,,,,,,,,,,,,,,bars/003.png,bars/mask006.png,,,,,,,,,,,,7,1,,,,,,,8,10,8,10,,,,,,,,,,,883.089,883.589,883.838,886.799,space,2.956,,886.799,2,63,887.799,887.799,887.812,,,,0,38,38,38,1,25,140,,,,,,,,
,,654afb2d87012840100daf23,65af56a874eb1d0e84c24b39,2024-01-23_07h03.56.399,bars,2023.2.3,Win32,166.6666667,657b66ea316d21385b68909f,,,,,,,,,,,887.812,888.814,,,889.314,889.564,,160,160,,,,,,,,,,,,,,,,bars/021.png,bars/mask000.png,,,,,,,,,,,,8,1,,,,,,,10,8,10,9,,,,,,,,,,,888.814,889.314,889.564,892.395,space,2.828,,892.395,5,90,893.393,893.393,893.399,,,,0,39,39,39,1,155,70,,,,,,,,
,,654afb2d87012840100daf23,65af56a874eb1d0e84c24b39,2024-01-23_07h03.56.399,bars,2023.2.3,Win32,166.6666667,657b66ea316d21385b68909f,,,,,,,,,,,893.399,894.394,,,894.894,895.144,,6,186,,,,,,,,,,,,,,,,bars/011.png,bars/mask003.png,,,,,,,,,,,,1,1,,,,,,,10,6,9,6,,,,,,,,,,,894.394,894.894,895.144,896.34,space,1.193,,896.34,26,79,897.34,897.34,897.34,,,,0,40,40,40,1,160,85,,,,,,,,
,,654afb2d87012840100daf23,65af56a874eb1d0e84c24b39,2024-01-23_07h03.56.399,bars,2023.2.3,Win32,166.6666667,657b66ea316d21385b68909f,,,,,,,,,,,897.34,898.334,,,898.834,899.083,,162,-18,,,,,,,,,,,,,,,,bars/049.png,bars/mask009.png,,,,,,,,,,,,9,1,,,,,,,10,8,10,7,,,,,,,,,,,898.334,898.834,899.083,902.676,space,3.587,,902.676,2,47,903.676,903.676,903.682,,,,0,41,41,41,1,160,115,,,,,,,,
,,654afb2d87012840100daf23,65af56a874eb1d0e84c24b39,2024-01-23_07h03.56.399,bars,2023.2.3,Win32,166.6666667,657b66ea316d21385b68909f,,,,,,,,,,,903.682,904.678,,,905.178,905.427,,165,165,,,,,,,,,,,,,,,,bars/037.png,bars/mask009.png,,,,,,,,,,,,4,1,,,,,,,8,10,8,10,,,,,,,,,,,904.678,905.178,905.428,907.95,space,2.517,,907.95,15,60,908.95,908.95,908.956,,,,0,42,42,42,1,150,105,,,,,,,,
,,654afb2d87012840100daf23,65af56a874eb1d0e84c24b39,2024-01-23_07h03.56.399,bars,2023.2.3,Win32,166.6666667,657b66ea316d21385b68909f,,,,,,,,,,,908.956,909.951,,,910.452,910.702,,80,80,,,,,,,,,,,,,,,,bars/013.png,bars/mask002.png,,,,,,,,,,,,4,1,,,,,,,6,8,5,8,,,,,,,,,,,909.951,910.452,910.702,913.78,space,3.073,,913.78,5,70,914.781,914.781,914.786,,,,0,43,43,43,1,75,10,,,,,,,,
,,654afb2d87012840100daf23,65af56a874eb1d0e84c24b39,2024-01-23_07h03.56.399,bars,2023.2.3,Win32,166.6666667,657b66ea316d21385b68909f,,,,,,,,,,,914.786,915.781,,,916.281,916.531,,9,9,,,,,,,,,,,,,,,,bars/032.png,bars/mask003.png,,,,,,,,,,,,6,2,,,,,,,4,10,3,10,,,,,,,,,,,915.781,916.281,916.531,918.109,space,1.573,,918.109,64,11,919.11,919.11,919.11,,,,0,44,44,44,1,125,20,,,,,,,,
,,654afb2d87012840100daf23,65af56a874eb1d0e84c24b39,2024-01-23_07h03.56.399,bars,2023.2.3,Win32,166.6666667,657b66ea316d21385b68909f,,,,,,,,,,,919.11,920.109,,,920.61,920.86,,157,157,,,,,,,,,,,,,,,,bars/043.png,bars/mask001.png,,,,,,,,,,,,1,2,,,,,,,6,8,7,8,,,,,,,,,,,920.109,920.61,920.86,922.82,space,1.956,,922.82,53,27,923.82,923.82,923.826,,,,0,45,45,45,1,30,130,,,,,,,,
,,654afb2d87012840100daf23,65af56a874eb1d0e84c24b39,2024-01-23_07h03.56.399,bars,2023.2.3,Win32,166.6666667,657b66ea316d21385b68909f,,,,,,,,,,,923.826,924.821,,,925.321,925.571,,1,1,,,,,,,,,,,,,,,,bars/008.png,bars/mask002.png,,,,,,,,,,,,5,2,,,,,,,4,6,4,5,,,,,,,,,,,924.821,925.321,925.571,927.413,space,1.838,,927.413,71,1,928.413,928.413,928.419,,,,0,46,46,46,1,110,0,,,,,,,,
,,654afb2d87012840100daf23,65af56a874eb1d0e84c24b39,2024-01-23_07h03.56.399,bars,2023.2.3,Win32,166.6666667,657b66ea316d21385b68909f,,,,,,,,,,,928.419,929.42,,,929.921,930.171,,11,11,,,,,,,,,,,,,,,,bars/036.png,bars/mask008.png,,,,,,,,,,,,3,2,,,,,,,2,4,3,4,,,,,,,,,,,929.42,929.921,930.171,930.887,space,0.709,,930.887,46,9,931.887,931.887,931.888,,,,0,47,47,47,1,145,20,,,,,,,,
,,654afb2d87012840100daf23,65af56a874eb1d0e84c24b39,2024-01-23_07h03.56.399,bars,2023.2.3,Win32,166.6666667,657b66ea316d21385b68909f,,,,,,,,,,,931.888,932.888,,,933.388,933.638,,80,80,,,,,,,,,,,,,,,,bars/029.png,bars/mask003.png,,,,,,,,,,,,0,1,,,,,,,0,2,0,1,,,,,,,,,,,932.888,933.388,933.638,935.188,space,1.546,,935.188,10,35,936.189,936.189,936.195,,,,0,48,48,48,1,90,45,,,,,,,,
,,654afb2d87012840100daf23,65af56a874eb1d0e84c24b39,2024-01-23_07h03.56.399,bars,2023.2.3,Win32,166.6666667,657b66ea316d21385b68909f,,,,,,,,,,,936.195,937.196,,,937.697,937.947,,35,35,,,,,,,,,,,,,,,,bars/016.png,bars/mask006.png,,,,,,,,,,,,0,1,,,,,,,0,4,0,5,,,,,,,,,,,937.196,937.697,937.947,940.157,space,2.209,,940.157,5,50,941.156,941.156,941.157,,,,0,49,49,49,1,40,165,,,,,,,,
,,654afb2d87012840100daf23,65af56a874eb1d0e84c24b39,2024-01-23_07h03.56.399,bars,2023.2.3,Win32,166.6666667,657b66ea316d21385b68909f,,,,,,,,,,,,,,,,,,,,,,,,,,,,,,,,,,,,,,,,,,,,,,,,,,,,,,,,,,,,,,,,,,,,,,,,,,,,,,,,,,,,,,,,,,,,,941.157,1001.156,0,1,1,1,1,sequence_tables/blk047.csv
,,654afb2d87012840100daf23,65af56a874eb1d0e84c24b39,2024-01-23_07h03.56.399,bars,2023.2.3,Win32,166.6666667,657b66ea316d21385b68909f,,,,,,,,,,,1039.492,1040.484,,,1040.985,1041.235,,171,171,,,,,,,,,,,,,,,,bars/000.png,bars/mask009.png,,,,,,,,,,,,1,2,,,,,,,5,5,4,5,,,,,,1001.162,1039.484,space,38.316,,1040.484,1040.985,1041.235,1043.521,space,2.284,,1043.521,49,26,1044.521,1044.521,1044.535,,,,0,0,0,0,1,40,145,,,,,,,,
,,654afb2d87012840100daf23,65af56a874eb1d0e84c24b39,2024-01-23_07h03.56.399,bars,2023.2.3,Win32,166.6666667,657b66ea316d21385b68909f,,,,,,,,,,,1044.535,1045.536,,,1046.036,1046.286,,169,169,,,,,,,,,,,,,,,,bars/043.png,bars/mask007.png,,,,,,,,,,,,0,2,,,,,,,3,3,2,2,,,,,,,,,,,1045.536,1046.036,1046.286,1049.463,space,3.175,,1049.463,41,39,1050.463,1050.463,1050.468,,,,0,1,1,1,1,30,130,,,,,,,,
,,654afb2d87012840100daf23,65af56a874eb1d0e84c24b39,2024-01-23_07h03.56.399,bars,2023.2.3,Win32,166.6666667,657b66ea316d21385b68909f,,,,,,,,,,,1050.469,1051.47,,,1051.97,1052.22,,30,30,,,,,,,,,,,,,,,,bars/003.png,bars/mask008.png,,,,,,,,,,,,5,1,,,,,,,5,1,6,1,,,,,,,,,,,1051.47,1051.97,1052.22,1055.077,space,2.85,,1055.077,5,70,1056.077,1056.077,1056.083,,,,0,2,2,2,1,25,140,,,,,,,,
,,654afb2d87012840100daf23,65af56a874eb1d0e84c24b39,2024-01-23_07h03.56.399,bars,2023.2.3,Win32,166.6666667,657b66ea316d21385b68909f,,,,,,,,,,,1056.083,1057.078,,,1057.578,1057.828,,177,-3,,,,,,,,,,,,,,,,bars/023.png,bars/mask004.png,,,,,,,,,,,,1,1,,,,,,,3,3,5,4,,,,,,,,,,,1057.078,1057.578,1057.828,1059.962,space,2.131,,1059.962,23,62,1060.962,1060.962,1060.962,,,,0,3,3,3,1,20,115,,,,,,,,
,,654afb2d87012840100daf23,65af56a874eb1d0e84c24b39,2024-01-23_07h03.56.399,bars,2023.2.3,Win32,166.6666667,657b66ea316d21385b68909f,,,,,,,,,,,1060.962,1061.962,,,1062.463,1062.712,,134,134,,,,,,,,,,,,,,,,bars/040.png,bars/mask008.png,,,,,,,,,,,,1,1,,,,,,,1,5,1,5,,,,,,,,,,,1061.962,1062.462,1062.712,1065.346,space,2.629,,1065.346,6,51,1066.347,1066.347,1066.352,,,,0,4,4,4,1,140,5,,,,,,,,
,,654afb2d87012840100daf23,65af56a874eb1d0e84c24b39,2024-01-23_07h03.56.399,bars,2023.2.3,Win32,166.6666667,657b66ea316d21385b68909f,,,,,,,,,,,1066.352,1067.347,,,1067.847,1068.097,,154,154,,,,,,,,,,,,,,,,bars/007.png,bars/mask001.png,,,,,,,,,,,,0,1,,,,,,,0,3,0,2,,,,,,,,,,,1067.347,1067.847,1068.097,1069.724,space,1.621,,1069.724,21,81,1070.724,1070.724,1070.724,,,,0,5,5,5,1,175,55,,,,,,,,
,,654afb2d87012840100daf23,65af56a874eb1d0e84c24b39,2024-01-23_07h03.56.399,bars,2023.2.3,Win32,166.6666667,657b66ea316d21385b68909f,,,,,,,,,,,1070.725,1071.724,,,1072.225,1072.471,,26,206,,,,,,,,,,,,,,,,bars/013.png,bars/mask003.png,,,,,,,,,,,,0,2,,,,,,,2,1,3,1,,,,,,,,,,,1071.724,1072.225,1072.471,1075.067,space,2.593,,1075.067,49,16,1076.067,1076.067,1076.073,,,,0,6,6,6,1,75,10,,,,,,,,
,,654afb2d87012840100daf23,65af56a874eb1d0e84c24b39,2024-01-23_07h03.56.399,bars,2023.2.3,Win32,166.6666667,657b66ea316d21385b68909f,,,,,,,,,,,1076.073,1077.068,,,1077.569,1077.814,,14,14,,,,,,,,,,,,,,,,bars/008.png,bars/mask001.png,,,,,,,,,,,,2,2,,,,,,,4,3,5,3,,,,,,,,,,,1077.068,1077.569,1077.814,1080.942,space,3.126,,1080.942,84,14,1081.939,1081.939,1081.945,,,,0,7,7,7,1,110,0,,,,,,,,
,,654afb2d87012840100daf23,65af56a874eb1d0e84c24b39,2024-01-23_07h03.56.399,bars,2023.2.3,Win32,166.6666667,657b66ea316d21385b68909f,,,,,,,,,,,1081.945,1082.946,,,1083.447,1083.697,,8,8,,,,,,,,,,,,,,,,bars/012.png,bars/mask003.png,,,,,,,,,,,,5,2,,,,,,,2,5,1,6,,,,,,,,,,,1082.946,1083.447,1083.697,1085.135,space,1.434,,1085.135,82,7,1086.136,1086.136,1086.142,,,,0,8,8,8,1,90,15,,,,,,,,
,,654afb2d87012840100daf23,65af56a874eb1d0e84c24b39,2024-01-23_07h03.56.399,bars,2023.2.3,Win32,166.6666667,657b66ea316d21385b68909f,,,,,,,,,,,1086.142,1087.143,,,1087.644,1087.893,,76,76,,,,,,,,,,,,,,,,bars/001.png,bars/mask008.png,,,,,,,,,,,,3,2,,,,,,,4,3,4,4,,,,,,,,,,,1087.143,1087.644,1087.893,1089.631,space,1.731,,1089.631,54,9,1090.632,1090.632,1090.632,,,,0,9,9,9,1,130,85,,,,,,,,
,,654afb2d87012840100daf23,65af56a874eb1d0e84c24b39,2024-01-23_07h03.56.399,bars,2023.2.3,Win32,166.6666667,657b66ea316d21385b68909f,,,,,,,,,,,1090.632,1091.632,,,1092.132,1092.382,,99,99,,,,,,,,,,,,,,,,bars/039.png,bars/mask000.png,,,,,,,,,,,,4,2,,,,,,,2,5,3,5,,,,,,,,,,,1091.632,1092.132,1092.382,1096.204,space,3.816,,1096.204,76,6,1097.205,1097.205,1097.21,,,,0,10,10,10,1,175,105,,,,,,,,
,,654afb2d87012840100daf23,65af56a874eb1d0e84c24b39,2024-01-23_07h03.56.399,bars,2023.2.3,Win32,166.6666667,657b66ea316d21385b68909f,,,,,,,,,,,1097.21,1098.205,,,1098.706,1098.956,,41,41,,,,,,,,,,,,,,,,bars/025.png,bars/mask002.png,,,,,,,,,,,,6,2,,,,,,,0,7,0,6,,,,,,,,,,,1098.205,1098.706,1098.956,1101.144,space,2.183,,1101.144,64,1,1102.145,1102.145,1102.151,,,,0,11,11,11,1,105,40,,,,,,,,
,,654afb2d87012840100daf23,65af56a874eb1d0e84c24b39,2024-01-23_07h03.56.399,bars,2023.2.3,Win32,166.6666667,657b66ea316d21385b68909f,,,,,,,,,,,1102.151,1103.153,,,1103.653,1103.903,,60,240,,,,,,,,,,,,,,,,bars/035.png,bars/mask008.png,,,,,,,,,,,,8,2,,,,,,,0,9,0,8,,,,,,,,,,,1103.153,1103.653,1103.903,1107.099,space,3.19,,1107.099,65,0,1108.1,1108.1,1108.108,,,,0,12,12,12,1,175,60,,,,,,,,
,,654afb2d87012840100daf23,65af56a874eb1d0e84c24b39,2024-01-23_07h03.56.399,bars,2023.2.3,Win32,166.6666667,657b66ea316d21385b68909f,,,,,,,,,,,1108.109,1109.107,,,1109.608,1109.857,,99,99,,,,,,,,,,,,,,,,bars/019.png,bars/mask000.png,,,,,,,,,,,,6,2,,,,,,,2,7,3,7,,,,,,,,,,,1109.107,1109.608,1109.857,1111.858,space,1.996,,1111.859,54,6,1112.859,1112.859,1112.86,,,,0,13,13,13,1,45,105,,,,,,,,
,,654afb2d87012840100daf23,65af56a874eb1d0e84c24b39,2024-01-23_07h03.56.399,bars,2023.2.3,Win32,166.6666667,657b66ea316d21385b68909f,,,,,,,,,,,1112.86,1113.86,,,1114.36,1114.611,,48,48,,,,,,,,,,,,,,,,bars/035.png,bars/mask006.png,,,,,,,,,,,,6,2,,,,,,,0,9,0,10,,,,,,,,,,,1113.86,1114.36,1114.611,1116.73,space,2.116,,1116.73,53,12,1117.73,1117.73,1117.736,,,,0,14,14,14,1,175,60,,,,,,,,
,,654afb2d87012840100daf23,65af56a874eb1d0e84c24b39,2024-01-23_07h03.56.399,bars,2023.2.3,Win32,166.6666667,657b66ea316d21385b68909f,,,,,,,,,,,1117.736,1118.731,,,1119.231,1119.482,,100,100,,,,,,,,,,,,,,,,bars/026.png,bars/mask008.png,,,,,,,,,,,,4,2,,,,,,,0,7,1,7,,,,,,,,,,,1118.731,1119.231,1119.482,1120.287,space,0.8,,1120.288,65,15,1121.288,1121.288,1121.288,,,,0,15,15,15,1,35,85,,,,,,,,
,,654afb2d87012840100daf23,65af56a874eb1d0e84c24b39,2024-01-23_07h03.56.399,bars,2023.2.3,Win32,166.6666667,657b66ea316d21385b68909f,,,,,,,,,,,1121.288,1122.288,,,1122.789,1123.039,,54,54,,,,,,,,,,,,,,,,bars/035.png,bars/mask006.png,,,,,,,,,,,,5,2,,,,,,,0,9,2,6,,,,,,,,,,,1122.288,1122.789,1123.039,1124.233,space,1.19,,1124.233,59,6,1125.234,1125.234,1125.235,,,,0,16,16,16,1,175,60,,,,,,,,
,,654afb2d87012840100daf23,65af56a874eb1d0e84c24b39,2024-01-23_07h03.56.399,bars,2023.2.3,Win32,166.6666667,657b66ea316d21385b68909f,,,,,,,,,,,1125.235,1126.235,,,1126.735,1126.985,,162,162,,,,,,,,,,,,,,,,bars/024.png,bars/mask006.png,,,,,,,,,,,,5,2,,,,,,,2,7,2,7,,,,,,,,,,,1126.235,1126.735,1126.985,1128.646,space,1.654,,1128.646,42,8,1129.648,1129.648,1129.659,,,,0,17,17,17,1,120,170,,,,,,,,
,,654afb2d87012840100daf23,65af56a874eb1d0e84c24b39,2024-01-23_07h03.56.399,bars,2023.2.3,Win32,166.6666667,657b66ea316d21385b68909f,,,,,,,,,,,1129.659,1130.655,,,1131.155,1131.404,,89,89,,,,,,,,,,,,,,,,bars/026.png,bars/mask004.png,,,,,,,,,,,,3,2,,,,,,,0,5,0,4,,,,,,,,,,,1130.655,1131.155,1131.404,1132.725,space,1.313,,1132.725,54,4,1133.725,1133.725,1133.731,,,,0,18,18,18,1,35,85,,,,,,,,
,,654afb2d87012840100daf23,65af56a874eb1d0e84c24b39,2024-01-23_07h03.56.399,bars,2023.2.3,Win32,166.6666667,657b66ea316d21385b68909f,,,,,,,,,,,1133.731,1134.726,,,1135.227,1135.477,,62,62,,,,,,,,,,,,,,,,bars/047.png,bars/mask002.png,,,,,,,,,,,,6,2,,,,,,,2,7,1,8,,,,,,,,,,,1134.726,1135.227,1135.477,1137.054,space,1.57,,1137.054,47,8,1138.054,1138.054,1138.061,,,,0,19,19,19,1,15,70,,,,,,,,
,,654afb2d87012840100daf23,65af56a874eb1d0e84c24b39,2024-01-23_07h03.56.399,bars,2023.2.3,Win32,166.6666667,657b66ea316d21385b68909f,,,,,,,,,,,1138.061,1139.062,,,1139.563,1139.812,,84,84,,,,,,,,,,,,,,,,bars/038.png,bars/mask004.png,,,,,,,,,,,,3,2,,,,,,,0,5,0,5,,,,,,,,,,,1139.062,1139.563,1139.812,1141.494,space,1.672,,1141.494,81,14,1142.494,1142.494,1142.5,,,,0,20,20,20,1,165,70,,,,,,,,
,,654afb2d87012840100daf23,65af56a874eb1d0e84c24b39,2024-01-23_07h03.56.399,bars,2023.2.3,Win32,166.6666667,657b66ea316d21385b68909f,,,,,,,,,,,1142.501,1143.502,,,1144.002,1144.253,,79,79,,,,,,,,,,,,,,,,bars/002.png,bars/mask009.png,,,,,,,,,,,,3,2,,,,,,,2,3,2,4,,,,,,,,,,,1143.502,1144.002,1144.253,1145.538,space,1.281,,1145.538,51,6,1146.539,1146.539,1146.539,,,,0,21,21,21,1,130,85,,,,,,,,
,,654afb2d87012840100daf23,65af56a874eb1d0e84c24b39,2024-01-23_07h03.56.399,bars,2023.2.3,Win32,166.6666667,657b66ea316d21385b68909f,,,,,,,,,,,1146.539,1147.539,,,1148.039,1148.289,,49,229,,,,,,,,,,,,,,,,bars/026.png,bars/mask009.png,,,,,,,,,,,,2,1,,,,,,,4,5,3,4,,,,,,,,,,,1147.539,1148.039,1148.289,1151.34,space,3.046,,1151.34,14,36,1152.341,1152.341,1152.347,,,,0,22,22,22,1,35,85,,,,,,,,
,,654afb2d87012840100daf23,65af56a874eb1d0e84c24b39,2024-01-23_07h03.56.399,bars,2023.2.3,Win32,166.6666667,657b66ea316d21385b68909f,,,,,,,,,,,1152.347,1153.348,,,1153.848,1154.099,,143,143,,,,,,,,,,,,,,,,bars/024.png,bars/mask001.png,,,,,,,,,,,,1,1,,,,,,,6,3,5,2,,,,,,,,,,,1153.348,1153.848,1154.099,1159.053,space,4.95,,1159.053,23,27,1160.053,1160.053,1160.059,,,,0,23,23,23,1,120,170,,,,,,,,
,,654afb2d87012840100daf23,65af56a874eb1d0e84c24b39,2024-01-23_07h03.56.399,bars,2023.2.3,Win32,166.6666667,657b66ea316d21385b68909f,,,,,,,,,,,1160.059,1161.061,,,1161.561,1161.811,,145,145,,,,,,,,,,,,,,,,bars/037.png,bars/mask009.png,,,,,,,,,,,,3,1,,,,,,,4,1,4,3,,,,,,,,,,,1161.061,1161.561,1161.811,1163.291,space,1.475,,1163.291,5,40,1164.292,1164.292,1164.302,,,,0,24,24,24,1,150,105,,,,,,,,
,,654afb2d87012840100daf23,65af56a874eb1d0e84c24b39,2024-01-23_07h03.56.399,bars,2023.2.3,Win32,166.6666667,657b66ea316d21385b68909f,,,,,,,,,,,1164.302,1165.299,,,1165.793,1166.043,,146,146,,,,,,,,,,,,,,,,bars/036.png,bars/mask000.png,,,,,,,,,,,,1,1,,,,,,,2,0,1,0,,,,,,,,,,,1165.299,1165.793,1166.043,1167.363,space,1.315,,1167.363,1,54,1168.364,1168.364,1168.364,,,,0,25,25,25,1,145,20,,,,,,,,
,,654afb2d87012840100daf23,65af56a874eb1d0e84c24b39,2024-01-23_07h03.56.399,bars,2023.2.3,Win32,166.6666667,657b66ea316d21385b68909f,,,,,,,,,,,1168.364,1169.364,,,1169.864,1170.114,,64,64,,,,,,,,,,,,,,,,bars/028.png,bars/mask004.png,,,,,,,,,,,,0,1,,,,,,,0,0,1,1,,,,,,,,,,,1169.364,1169.864,1170.114,1173.068,space,2.947,,1173.068,19,56,1174.069,1174.069,1174.073,,,,0,26,26,26,1,45,120,,,,,,,,
,,654afb2d87012840100daf23,65af56a874eb1d0e84c24b39,2024-01-23_07h03.56.399,bars,2023.2.3,Win32,166.6666667,657b66ea316d21385b68909f,,,,,,,,,,,1174.073,1175.068,,,1175.569,1175.819,,117,117,,,,,,,,,,,,,,,,bars/028.png,bars/mask009.png,,,,,,,,,,,,0,2,,,,,,,0,0,1,0,,,,,,,,,,,1175.068,1175.569,1175.819,1178.363,space,2.539,,1178.363,72,3,1179.363,1179.363,1179.369,,,,0,27,27,27,1,45,120,,,,,,,,
,,654afb2d87012840100daf23,65af56a874eb1d0e84c24b39,2024-01-23_07h03.56.399,bars,2023.2.3,Win32,166.6666667,657b66ea316d21385b68909f,,,,,,,,,,,1179.369,1180.366,,,1180.866,1181.117,,148,148,,,,,,,,,,,,,,,,bars/016.png,bars/mask001.png,,,,,,,,,,,,0,2,,,,,,,0,0,0,0,,,,,,,,,,,1180.366,1180.866,1181.117,1182.047,space,0.924,,1182.047,72,17,1183.048,1183.048,1183.048,,,,0,28,28,28,1,40,165,,,,,,,,
,,654afb2d87012840100daf23,65af56a874eb1d0e84c24b39,2024-01-23_07h03.56.399,bars,2023.2.3,Win32,166.6666667,657b66ea316d21385b68909f,,,,,,,,,,,1183.048,1184.049,,,1184.549,1184.799,,10,190,,,,,,,,,,,,,,,,bars/032.png,bars/mask001.png,,,,,,,,,,,,1,2,,,,,,,0,2,0,2,,,,,,,,,,,1184.049,1184.549,1184.799,1188.426,space,3.62,,1188.426,65,10,1189.426,1189.426,1189.432,,,,0,29,29,29,1,125,20,,,,,,,,
,,654afb2d87012840100daf23,65af56a874eb1d0e84c24b39,2024-01-23_07h03.56.399,bars,2023.2.3,Win32,166.6666667,657b66ea316d21385b68909f,,,,,,,,,,,1189.432,1190.432,,,1190.932,1191.184,,139,-41,,,,,,,,,,,,,,,,bars/043.png,bars/mask005.png,,,,,,,,,,,,2,2,,,,,,,2,4,3,3,,,,,,,,,,,1190.432,1190.931,1191.184,1195.282,space,4.088,,1195.282,71,9,1196.286,1196.286,1196.291,,,,0,30,30,30,1,30,130,,,,,,,,
,,654afb2d87012840100daf23,65af56a874eb1d0e84c24b39,2024-01-23_07h03.56.399,bars,2023.2.3,Win32,166.6666667,657b66ea316d21385b68909f,,,,,,,,,,,1196.291,1197.29,,,1197.79,1198.04,,8,188,,,,,,,,,,,,,,,,bars/012.png,bars/mask002.png,,,,,,,,,,,,2,2,,,,,,,4,2,4,2,,,,,,,,,,,1197.29,1197.79,1198.04,1200.413,space,2.371,,1200.413,82,7,1201.41,1201.41,1201.411,,,,0,31,31,31,1,90,15,,,,,,,,
,,654afb2d87012840100daf23,65af56a874eb1d0e84c24b39,2024-01-23_07h03.56.399,bars,2023.2.3,Win32,166.6666667,657b66ea316d21385b68909f,,,,,,,,,,,1201.411,1202.411,,,1202.912,1203.161,,33,33,,,,,,,,,,,,,,,,bars/031.png,bars/mask001.png,,,,,,,,,,,,4,2,,,,,,,6,4,6,4,,,,,,,,,,,1202.411,1202.912,1203.161,1205.94,space,2.774,,1205.941,87,2,1206.941,1206.941,1206.947,,,,0,32,32,32,1,120,35,,,,,,,,
,,654afb2d87012840100daf23,65af56a874eb1d0e84c24b39,2024-01-23_07h03.56.399,bars,2023.2.3,Win32,166.6666667,657b66ea316d21385b68909f,,,,,,,,,,,1206.947,1207.948,,,1208.449,1208.699,,80,80,,,,,,,,,,,,,,,,bars/002.png,bars/mask004.png,,,,,,,,,,,,4,2,,,,,,,8,6,7,5,,,,,,,,,,,1207.948,1208.449,1208.699,1210.874,space,2.169,,1210.874,50,5,1211.875,1211.875,1211.88,,,,0,33,33,33,1,130,85,,,,,,,,
,,654afb2d87012840100daf23,65af56a874eb1d0e84c24b39,2024-01-23_07h03.56.399,bars,2023.2.3,Win32,166.6666667,657b66ea316d21385b68909f,,,,,,,,,,,1211.88,1212.875,,,1213.376,1213.626,,69,69,,,,,,,,,,,,,,,,bars/029.png,bars/mask002.png,,,,,,,,,,,,2,1,,,,,,,6,4,6,5,,,,,,,,,,,1212.875,1213.376,1213.626,1215.127,space,1.496,,1215.127,21,24,1216.127,1216.127,1216.133,,,,0,34,34,34,1,90,45,,,,,,,,
,,654afb2d87012840100daf23,65af56a874eb1d0e84c24b39,2024-01-23_07h03.56.399,bars,2023.2.3,Win32,166.6666667,657b66ea316d21385b68909f,,,,,,,,,,,1216.133,1217.135,,,1217.635,1217.885,,164,164,,,,,,,,,,,,,,,,bars/007.png,bars/mask006.png,,,,,,,,,,,,4,1,,,,,,,8,2,7,3,,,,,,,,,,,1217.135,1217.635,1217.885,1219.352,space,1.459,,1219.352,11,71,1220.351,1220.351,1220.357,,,,0,35,35,35,1,175,55,,,,,,,,
,,654afb2d87012840100daf23,65af56a874eb1d0e84c24b39,2024-01-23_07h03.56.399,bars,2023.2.3,Win32,166.6666667,657b66ea316d21385b68909f,,,,,,,,,,,1220.357,1221.352,,,1221.853,1222.102,,36,216,,,,,,,,,,,,,,,,bars/005.png,bars/mask007.png,,,,,,,,,,,,1,1,,,,,,,6,0,7,0,,,,,,,,,,,1221.352,1221.853,1222.102,1225.543,space,3.434,,1225.543,26,76,1226.543,1226.543,1226.548,,,,0,36,36,36,1,10,140,,,,,,,,
,,654afb2d87012840100daf23,65af56a874eb1d0e84c24b39,2024-01-23_07h03.56.399,bars,2023.2.3,Win32,166.6666667,657b66ea316d21385b68909f,,,,,,,,,,,1226.548,1227.544,,,1228.044,1228.294,,62,62,,,,,,,,,,,,,,,,bars/029.png,bars/mask009.png,,,,,,,,,,,,0,2,,,,,,,4,2,3,1,,,,,,,,,,,1227.544,1228.044,1228.294,1229.781,space,1.481,,1229.781,28,17,1230.781,1230.781,1230.782,,,,0,37,37,37,1,90,45,,,,,,,,
,,654afb2d87012840100daf23,65af56a874eb1d0e84c24b39,2024-01-23_07h03.56.399,bars,2023.2.3,Win32,166.6666667,657b66ea316d21385b68909f,,,,,,,,,,,1230.782,1231.782,,,1232.282,1232.533,,163,-17,,,,,,,,,,,,,,,,bars/024.png,bars/mask008.png,,,,,,,,,,,,3,2,,,,,,,2,4,1,4,,,,,,,,,,,1231.782,1232.282,1232.533,1234.492,space,1.954,,1234.492,43,7,1235.493,1235.493,1235.493,,,,0,38,38,38,1,120,170,,,,,,,,
,,654afb2d87012840100daf23,65af56a874eb1d0e84c24b39,2024-01-23_07h03.56.399,bars,2023.2.3,Win32,166.6666667,657b66ea316d21385b68909f,,,,,,,,,,,1235.493,1236.493,,,1236.993,1237.243,,159,159,,,,,,,,,,,,,,,,bars/020.png,bars/mask003.png,,,,,,,,,,,,4,2,,,,,,,4,6,4,6,,,,,,,,,,,1236.493,1236.993,1237.243,1240.412,space,3.162,,1240.412,44,11,1241.412,1241.412,1241.418,,,,0,39,39,39,1,115,170,,,,,,,,
,,654afb2d87012840100daf23,65af56a874eb1d0e84c24b39,2024-01-23_07h03.56.399,bars,2023.2.3,Win32,166.6666667,657b66ea316d21385b68909f,,,,,,,,,,,1241.418,1242.413,,,1242.913,1243.164,,146,-34,,,,,,,,,,,,,,,,bars/043.png,bars/mask003.png,,,,,,,,,,,,1,2,,,,,,,2,4,2,2,,,,,,,,,,,1242.413,1242.913,1243.164,1246.429,space,3.259,,1246.429,64,16,1247.429,1247.429,1247.435,,,,0,40,40,40,1,30,130,,,,,,,,
,,654afb2d87012840100daf23,65af56a874eb1d0e84c24b39,2024-01-23_07h03.56.399,bars,2023.2.3,Win32,166.6666667,657b66ea316d21385b68909f,,,,,,,,,,,1247.435,1248.43,,,1248.931,1249.181,,159,-21,,,,,,,,,,,,,,,,bars/016.png,bars/mask003.png,,,,,,,,,,,,2,2,,,,,,,4,2,7,2,,,,,,,,,,,1248.43,1248.931,1249.181,1252.05,space,2.865,,1252.05,61,6,1253.051,1253.051,1253.056,,,,0,41,41,41,1,40,165,,,,,,,,
,,654afb2d87012840100daf23,65af56a874eb1d0e84c24b39,2024-01-23_07h03.56.399,bars,2023.2.3,Win32,166.6666667,657b66ea316d21385b68909f,,,,,,,,,,,1253.056,1254.051,,,1254.546,1254.795,,104,104,,,,,,,,,,,,,,,,bars/028.png,bars/mask000.png,,,,,,,,,,,,2,2,,,,,,,6,4,7,5,,,,,,,,,,,1254.051,1254.546,1254.795,1258.547,space,3.747,,1258.547,59,16,1259.548,1259.548,1259.554,,,,0,42,42,42,1,45,120,,,,,,,,
,,654afb2d87012840100daf23,65af56a874eb1d0e84c24b39,2024-01-23_07h03.56.399,bars,2023.2.3,Win32,166.6666667,657b66ea316d21385b68909f,,,,,,,,,,,1259.554,1260.555,,,1261.056,1261.306,,139,139,,,,,,,,,,,,,,,,bars/022.png,bars/mask008.png,,,,,,,,,,,,0,1,,,,,,,4,2,4,3,,,,,,,,,,,1260.555,1261.056,1261.306,1264.975,space,3.664,,1264.975,44,61,1265.976,1265.976,1265.981,,,,0,43,43,43,1,95,20,,,,,,,,
,,654afb2d87012840100daf23,65af56a874eb1d0e84c24b39,2024-01-23_07h03.56.399,bars,2023.2.3,Win32,166.6666667,657b66ea316d21385b68909f,,,,,,,,,,,1265.981,1266.976,,,1267.477,1267.726,,100,100,,,,,,,,,,,,,,,,bars/023.png,bars/mask003.png,,,,,,,,,,,,1,2,,,,,,,6,0,5,1,,,,,,,,,,,1266.976,1267.477,1267.726,1271.45,space,3.719,,1271.45,80,15,1272.451,1272.451,1272.458,,,,0,44,44,44,1,20,115,,,,,,,,
,,654afb2d87012840100daf23,65af56a874eb1d0e84c24b39,2024-01-23_07h03.56.399,bars,2023.2.3,Win32,166.6666667,657b66ea316d21385b68909f,,,,,,,,,,,1272.458,1273.459,,,1273.959,1274.209,,152,152,,,,,,,,,,,,,,,,bars/037.png,bars/mask000.png,,,,,,,,,,,,3,1,,,,,,,4,0,3,0,,,,,,,,,,,1273.459,1273.959,1274.209,1275.738,space,1.524,,1275.738,2,47,1276.738,1276.738,1276.739,,,,0,45,45,45,1,150,105,,,,,,,,
,,654afb2d87012840100daf23,65af56a874eb1d0e84c24b39,2024-01-23_07h03.56.399,bars,2023.2.3,Win32,166.6666667,657b66ea316d21385b68909f,,,,,,,,,,,1276.739,1277.739,,,1278.239,1278.489,,179,-1,,,,,,,,,,,,,,,,bars/005.png,bars/mask003.png,,,,,,,,,,,,4,1,,,,,,,6,2,6,1,,,,,,,,,,,1277.739,1278.239,1278.489,1282.512,space,4.02,,1282.512,11,39,1283.514,1283.514,1283.519,,,,0,46,46,46,1,10,140,,,,,,,,
,,654afb2d87012840100daf23,65af56a874eb1d0e84c24b39,2024-01-23_07h03.56.399,bars,2023.2.3,Win32,166.6666667,657b66ea316d21385b68909f,,,,,,,,,,,1283.519,1284.514,,,1285.014,1285.264,,15,195,,,,,,,,,,,,,,,,bars/004.png,bars/mask006.png,,,,,,,,,,,,2,1,,,,,,,4,4,3,5,,,,,,,,,,,1284.514,1285.014,1285.264,1289.259,space,3.989,,1289.259,10,70,1290.26,1290.26,1290.265,,,,0,47,47,47,1,25,125,,,,,,,,
,,654afb2d87012840100daf23,65af56a874eb1d0e84c24b39,2024-01-23_07h03.56.399,bars,2023.2.3,Win32,166.6666667,657b66ea316d21385b68909f,,,,,,,,,,,1290.265,1291.261,,,1291.76,1292.011,,80,80,,,,,,,,,,,,,,,,bars/022.png,bars/mask009.png,,,,,,,,,,,,1,1,,,,,,,2,2,2,3,,,,,,,,,,,1291.261,1291.76,1292.011,1295.895,space,3.879,,1295.895,15,60,1296.896,1296.896,1296.901,,,,0,48,48,48,1,95,20,,,,,,,,
,,654afb2d87012840100daf23,65af56a874eb1d0e84c24b39,2024-01-23_07h03.56.399,bars,2023.2.3,Win32,166.6666667,657b66ea316d21385b68909f,,,,,,,,,,,1296.901,1297.897,,,1298.396,1298.647,,55,55,,,,,,,,,,,,,,,,bars/019.png,bars/mask007.png,,,,,,,,,,,,0,1,,,,,,,0,0,0,0,,,,,,,,,,,1297.897,1298.396,1298.647,1301.113,space,2.463,,1301.113,10,50,1302.114,1302.114,1302.119,,,,0,49,49,49,1,45,105,,,,,,,,
,,654afb2d87012840100daf23,65af56a874eb1d0e84c24b39,2024-01-23_07h03.56.399,bars,2023.2.3,Win32,166.6666667,657b66ea316d21385b68909f,,,,,,,,,,,,,,,,,,,,,,,,,,,,,,,,,,,,,,,,,,,,,,,,,,,,,,,,,,,,,,,,,,,,,,,,,,,,,,,,,,,,,,,,,,,,,1302.119,1362.121,0,2,2,4,1,sequence_tables/blk014.csv
,,654afb2d87012840100daf23,65af56a874eb1d0e84c24b39,2024-01-23_07h03.56.399,bars,2023.2.3,Win32,166.6666667,657b66ea316d21385b68909f,,,,,,,,,,,1386.254,1387.246,,,1387.747,1387.996,,78,78,,,,,,,,,,,,,,,,bars/002.png,bars/mask000.png,,,,,,,,,,,,0,2,,,,,,,10,1,8,0,,,,,,1362.126,1386.246,space,24.115,,1387.246,1387.747,1387.996,1391.152,space,3.15,,1391.152,52,7,1392.152,1392.152,1392.159,,,,0,0,0,0,1,130,85,,,,,,,,
,,654afb2d87012840100daf23,65af56a874eb1d0e84c24b39,2024-01-23_07h03.56.399,bars,2023.2.3,Win32,166.6666667,657b66ea316d21385b68909f,,,,,,,,,,,1392.159,1393.159,,,1393.66,1393.91,,143,143,,,,,,,,,,,,,,,,bars/024.png,bars/mask000.png,,,,,,,,,,,,2,1,,,,,,,8,0,8,0,,,,,,,,,,,1393.159,1393.66,1393.91,1396.036,space,2.12,,1396.036,23,27,1397.036,1397.036,1397.047,,,,0,1,1,1,1,120,170,,,,,,,,
,,654afb2d87012840100daf23,65af56a874eb1d0e84c24b39,2024-01-23_07h03.56.399,bars,2023.2.3,Win32,166.6666667,657b66ea316d21385b68909f,,,,,,,,,,,1397.047,1398.044,,,1398.545,1398.795,,45,45,,,,,,,,,,,,,,,,bars/043.png,bars/mask006.png,,,,,,,,,,,,3,1,,,,,,,6,0,5,0,,,,,,,,,,,1398.044,1398.544,1398.795,1401.477,space,2.676,,1401.477,15,85,1402.477,1402.477,1402.482,,,,0,2,2,2,1,30,130,,,,,,,,
,,654afb2d87012840100daf23,65af56a874eb1d0e84c24b39,2024-01-23_07h03.56.399,bars,2023.2.3,Win32,166.6666667,657b66ea316d21385b68909f,,,,,,,,,,,1402.483,1403.485,,,1403.985,1404.235,,84,84,,,,,,,,,,,,,,,,bars/031.png,bars/mask003.png,,,,,,,,,,,,0,1,,,,,,,4,2,3,0,,,,,,,,,,,1403.485,1403.985,1404.235,1407.473,space,3.235,,1407.473,36,49,1408.467,1408.467,1408.472,,,,0,3,3,3,1,120,35,,,,,,,,
,,654afb2d87012840100daf23,65af56a874eb1d0e84c24b39,2024-01-23_07h03.56.399,bars,2023.2.3,Win32,166.6666667,657b66ea316d21385b68909f,,,,,,,,,,,1408.472,1409.467,,,1409.968,1410.217,,174,-6,,,,,,,,,,,,,,,,bars/024.png,bars/mask000.png,,,,,,,,,,,,0,2,,,,,,,6,0,5,0,,,,,,,,,,,1409.467,1409.968,1410.217,1413.206,space,2.981,,1413.206,54,4,1414.207,1414.207,1414.212,,,,0,4,4,4,1,120,170,,,,,,,,
,,654afb2d87012840100daf23,65af56a874eb1d0e84c24b39,2024-01-23_07h03.56.399,bars,2023.2.3,Win32,166.6666667,657b66ea316d21385b68909f,,,,,,,,,,,1414.212,1415.207,,,1415.707,1415.957,,166,166,,,,,,,,,,,,,,,,bars/024.png,bars/mask001.png,,,,,,,,,,,,4,2,,,,,,,8,2,10,5,,,,,,,,,,,1415.207,1415.707,1415.957,1418.474,space,2.513,,1418.474,46,4,1419.474,1419.474,1419.479,,,,0,5,5,5,1,120,170,,,,,,,,
,,654afb2d87012840100daf23,65af56a874eb1d0e84c24b39,2024-01-23_07h03.56.399,bars,2023.2.3,Win32,166.6666667,657b66ea316d21385b68909f,,,,,,,,,,,1419.479,1420.481,,,1420.981,1421.231,,103,103,,,,,,,,,,,,,,,,bars/028.png,bars/mask000.png,,,,,,,,,,,,0,2,,,,,,,10,0,10,1,,,,,,,,,,,1420.481,1420.981,1421.231,1422.926,space,1.687,,1422.926,58,17,1423.927,1423.927,1423.928,,,,0,6,6,6,1,45,120,,,,,,,,
,,654afb2d87012840100daf23,65af56a874eb1d0e84c24b39,2024-01-23_07h03.56.399,bars,2023.2.3,Win32,166.6666667,657b66ea316d21385b68909f,,,,,,,,,,,1423.928,1424.927,,,1425.428,1425.678,,44,44,,,,,,,,,,,,,,,,bars/033.png,bars/mask000.png,,,,,,,,,,,,4,1,,,,,,,10,0,10,0,,,,,,,,,,,1424.927,1425.428,1425.678,1426.803,space,1.119,,1426.804,19,69,1427.804,1427.804,1427.805,,,,0,7,7,7,1,25,155,,,,,,,,
,,654afb2d87012840100daf23,65af56a874eb1d0e84c24b39,2024-01-23_07h03.56.399,bars,2023.2.3,Win32,166.6666667,657b66ea316d21385b68909f,,,,,,,,,,,1427.805,1428.805,,,1429.305,1429.555,,77,257,,,,,,,,,,,,,,,,bars/044.png,bars/mask002.png,,,,,,,,,,,,7,1,,,,,,,10,0,8,0,,,,,,,,,,,1428.805,1429.305,1429.555,1433.043,space,3.481,,1433.043,2,78,1434.044,1434.044,1434.049,,,,0,8,8,8,1,75,155,,,,,,,,
,,654afb2d87012840100daf23,65af56a874eb1d0e84c24b39,2024-01-23_07h03.56.399,bars,2023.2.3,Win32,166.6666667,657b66ea316d21385b68909f,,,,,,,,,,,1434.049,1435.045,,,1435.544,1435.789,,173,-7,,,,,,,,,,,,,,,,bars/007.png,bars/mask005.png,,,,,,,,,,,,8,1,,,,,,,8,0,9,0,,,,,,,,,,,1435.045,1435.544,1435.789,1439.297,space,3.505,,1439.297,2,62,1440.298,1440.298,1440.303,,,,0,9,9,9,1,175,55,,,,,,,,
,,654afb2d87012840100daf23,65af56a874eb1d0e84c24b39,2024-01-23_07h03.56.399,bars,2023.2.3,Win32,166.6666667,657b66ea316d21385b68909f,,,,,,,,,,,1440.303,1441.299,,,1441.799,1442.049,,6,186,,,,,,,,,,,,,,,,bars/035.png,bars/mask005.png,,,,,,,,,,,,4,1,,,,,,,10,2,7,4,,,,,,,,,,,1441.299,1441.799,1442.049,1443.39,space,1.335,,1443.39,11,54,1444.391,1444.391,1444.396,,,,0,10,10,10,1,175,60,,,,,,,,
,,654afb2d87012840100daf23,65af56a874eb1d0e84c24b39,2024-01-23_07h03.56.399,bars,2023.2.3,Win32,166.6666667,657b66ea316d21385b68909f,,,,,,,,,,,1444.397,1445.397,,,1445.898,1446.148,,166,-14,,,,,,,,,,,,,,,,bars/049.png,bars/mask000.png,,,,,,,,,,,,8,1,,,,,,,10,4,10,4,,,,,,,,,,,1445.397,1445.898,1446.148,1449.045,space,2.891,,1449.045,6,51,1450.046,1450.046,1450.051,,,,0,11,11,11,1,160,115,,,,,,,,
,,654afb2d87012840100daf23,65af56a874eb1d0e84c24b39,2024-01-23_07h03.56.399,bars,2023.2.3,Win32,166.6666667,657b66ea316d21385b68909f,,,,,,,,,,,1450.051,1451.047,,,1451.547,1451.797,,146,146,,,,,,,,,,,,,,,,bars/017.png,bars/mask008.png,,,,,,,,,,,,7,1,,,,,,,8,6,7,8,,,,,,,,,,,1451.047,1451.547,1451.797,1452.568,space,0.767,,1452.568,1,79,1453.563,1453.563,1453.564,,,,0,12,12,12,1,145,45,,,,,,,,
,,654afb2d87012840100daf23,65af56a874eb1d0e84c24b39,2024-01-23_07h03.56.399,bars,2023.2.3,Win32,166.6666667,657b66ea316d21385b68909f,,,,,,,,,,,1453.564,1454.563,,,1455.063,1455.313,,102,102,,,,,,,,,,,,,,,,bars/022.png,bars/mask007.png,,,,,,,,,,,,5,1,,,,,,,6,4,6,2,,,,,,,,,,,1454.563,1455.063,1455.313,1458.072,space,2.757,,1458.072,7,82,1459.072,1459.072,1459.078,,,,0,13,13,13,1,95,20,,,,,,,,
,,654afb2d87012840100daf23,65af56a874eb1d0e84c24b39,2024-01-23_07h03.56.399,bars,2023.2.3,Win32,166.6666667,657b66ea316d21385b68909f,,,,,,,,,,,1459.078,1460.08,,,1460.58,1460.83,,38,38,,,,,,,,,,,,,,,,bars/005.png,bars/mask006.png,,,,,,,,,,,,0,1,,,,,,,4,6,4,6,,,,,,,,,,,1460.08,1460.58,1460.83,1463.436,space,2.6,,1463.436,28,78,1464.436,1464.436,1464.442,,,,0,14,14,14,1,10,140,,,,,,,,
,,654afb2d87012840100daf23,65af56a874eb1d0e84c24b39,2024-01-23_07h03.56.399,bars,2023.2.3,Win32,166.6666667,657b66ea316d21385b68909f,,,,,,,,,,,1464.442,1465.444,,,1465.944,1466.194,,49,229,,,,,,,,,,,,,,,,bars/010.png,bars/mask006.png,,,,,,,,,,,,2,2,,,,,,,6,4,5,3,,,,,,,,,,,1465.444,1465.944,1466.194,1468.779,space,2.581,,1468.779,64,6,1469.78,1469.78,1469.785,,,,0,15,15,15,1,165,55,,,,,,,,
,,654afb2d87012840100daf23,65af56a874eb1d0e84c24b39,2024-01-23_07h03.56.399,bars,2023.2.3,Win32,166.6666667,657b66ea316d21385b68909f,,,,,,,,,,,1469.785,1470.78,,,1471.275,1471.524,,3,183,,,,,,,,,,,,,,,,bars/016.png,bars/mask003.png,,,,,,,,,,,,1,2,,,,,,,4,2,3,3,,,,,,,,,,,1470.78,1471.275,1471.524,1474.366,space,2.835,,1474.366,37,18,1475.366,1475.366,1475.372,,,,0,16,16,16,1,40,165,,,,,,,,
,,654afb2d87012840100daf23,65af56a874eb1d0e84c24b39,2024-01-23_07h03.56.399,bars,2023.2.3,Win32,166.6666667,657b66ea316d21385b68909f,,,,,,,,,,,1475.372,1476.367,,,1476.867,1477.118,,78,78,,,,,,,,,,,,,,,,bars/002.png,bars/mask002.png,,,,,,,,,,,,3,2,,,,,,,2,4,2,4,,,,,,,,,,,1476.367,1476.867,1477.118,1478.952,space,1.832,,1478.952,52,7,1479.953,1479.953,1479.953,,,,0,17,17,17,1,130,85,,,,,,,,
,,654afb2d87012840100daf23,65af56a874eb1d0e84c24b39,2024-01-23_07h03.56.399,bars,2023.2.3,Win32,166.6666667,657b66ea316d21385b68909f,,,,,,,,,,,1479.953,1480.953,,,1481.454,1481.703,,165,-15,,,,,,,,,,,,,,,,bars/016.png,bars/mask004.png,,,,,,,,,,,,2,2,,,,,,,0,2,0,2,,,,,,,,,,,1480.953,1481.454,1481.703,1483.365,space,1.654,,1483.365,55,0,1484.365,1484.365,1484.37,,,,0,18,18,18,1,40,165,,,,,,,,
,,654afb2d87012840100daf23,65af56a874eb1d0e84c24b39,2024-01-23_07h03.56.399,bars,2023.2.3,Win32,166.6666667,657b66ea316d21385b68909f,,,,,,,,,,,1484.37,1485.365,,,1485.866,1486.116,,85,85,,,,,,,,,,,,,,,,bars/011.png,bars/mask007.png,,,,,,,,,,,,4,2,,,,,,,0,4,0,4,,,,,,,,,,,1485.365,1485.866,1486.116,1488.513,space,2.393,,1488.513,75,0,1489.513,1489.513,1489.519,,,,0,19,19,19,1,160,85,,,,,,,,
,,654afb2d87012840100daf23,65af56a874eb1d0e84c24b39,2024-01-23_07h03.56.399,bars,2023.2.3,Win32,166.6666667,657b66ea316d21385b68909f,,,,,,,,,,,1489.519,1490.521,,,1491.021,1491.274,,63,63,,,,,,,,,,,,,,,,bars/047.png,bars/mask000.png,,,,,,,,,,,,2,2,,,,,,,2,2,1,3,,,,,,,,,,,1490.521,1491.021,1491.274,1492.759,space,1.474,,1492.759,48,7,1493.759,1493.759,1493.759,,,,0,20,20,20,1,15,70,,,,,,,,
,,654afb2d87012840100daf23,65af56a874eb1d0e84c24b39,2024-01-23_07h03.56.399,bars,2023.2.3,Win32,166.6666667,657b66ea316d21385b68909f,,,,,,,,,,,1493.759,1494.759,,,1495.26,1495.509,,120,-60,,,,,,,,,,,,,,,,bars/032.png,bars/mask007.png,,,,,,,,,,,,0,1,,,,,,,0,4,0,5,,,,,,,,,,,1494.759,1495.26,1495.509,1499.161,space,3.65,,1499.161,5,80,1500.158,1500.158,1500.164,,,,0,21,21,21,1,125,20,,,,,,,,
,,654afb2d87012840100daf23,65af56a874eb1d0e84c24b39,2024-01-23_07h03.56.399,bars,2023.2.3,Win32,166.6666667,657b66ea316d21385b68909f,,,,,,,,,,,1500.164,1501.159,,,1501.659,1501.909,,139,139,,,,,,,,,,,,,,,,bars/001.png,bars/mask003.png,,,,,,,,,,,,1,1,,,,,,,2,2,2,2,,,,,,,,,,,1501.159,1501.659,1501.909,1504.265,space,2.353,,1504.265,9,54,1505.26,1505.26,1505.266,,,,0,22,22,22,1,130,85,,,,,,,,
,,654afb2d87012840100daf23,65af56a874eb1d0e84c24b39,2024-01-23_07h03.56.399,bars,2023.2.3,Win32,166.6666667,657b66ea316d21385b68909f,,,,,,,,,,,1505.266,1506.269,,,1506.766,1507.021,,72,72,,,,,,,,,,,,,,,,bars/021.png,bars/mask007.png,,,,,,,,,,,,2,2,,,,,,,0,4,0,2,,,,,,,,,,,1506.269,1506.766,1507.021,1511.068,space,4.042,,1511.068,83,2,1512.068,1512.068,1512.074,,,,0,23,23,23,1,155,70,,,,,,,,
,,654afb2d87012840100daf23,65af56a874eb1d0e84c24b39,2024-01-23_07h03.56.399,bars,2023.2.3,Win32,166.6666667,657b66ea316d21385b68909f,,,,,,,,,,,1512.074,1513.075,,,1513.576,1513.826,,78,78,,,,,,,,,,,,,,,,bars/014.png,bars/mask002.png,,,,,,,,,,,,2,1,,,,,,,2,2,2,1,,,,,,,,,,,1513.075,1513.576,1513.826,1517.254,space,3.426,,1517.254,2,78,1518.249,1518.249,1518.255,,,,0,24,24,24,1,80,0,,,,,,,,
,,654afb2d87012840100daf23,65af56a874eb1d0e84c24b39,2024-01-23_07h03.56.399,bars,2023.2.3,Win32,166.6666667,657b66ea316d21385b68909f,,,,,,,,,,,1518.255,1519.253,,,1519.753,1520.003,,158,-22,,,,,,,,,,,,,,,,bars/010.png,bars/mask001.png,,,,,,,,,,,,2,1,,,,,,,4,4,3,5,,,,,,,,,,,1519.253,1519.753,1520.003,1522.15,space,2.141,,1522.15,7,77,1523.151,1523.151,1523.159,,,,0,25,25,25,1,165,55,,,,,,,,
,,654afb2d87012840100daf23,65af56a874eb1d0e84c24b39,2024-01-23_07h03.56.399,bars,2023.2.3,Win32,166.6666667,657b66ea316d21385b68909f,,,,,,,,,,,1523.159,1524.158,,,1524.659,1524.909,,165,165,,,,,,,,,,,,,,,,bars/036.png,bars/mask002.png,,,,,,,,,,,,2,1,,,,,,,6,2,6,3,,,,,,,,,,,1524.158,1524.659,1524.909,1527.716,space,2.8,,1527.716,20,35,1528.717,1528.717,1528.722,,,,0,26,26,26,1,145,20,,,,,,,,
,,654afb2d87012840100daf23,65af56a874eb1d0e84c24b39,2024-01-23_07h03.56.399,bars,2023.2.3,Win32,166.6666667,657b66ea316d21385b68909f,,,,,,,,,,,1528.723,1529.724,,,1530.224,1530.474,,176,-4,,,,,,,,,,,,,,,,bars/035.png,bars/mask005.png,,,,,,,,,,,,7,1,,,,,,,8,4,7,4,,,,,,,,,,,1529.724,1530.224,1530.474,1531.843,space,1.362,,1531.843,1,64,1532.844,1532.844,1532.849,,,,0,27,27,27,1,175,60,,,,,,,,
,,654afb2d87012840100daf23,65af56a874eb1d0e84c24b39,2024-01-23_07h03.56.399,bars,2023.2.3,Win32,166.6666667,657b66ea316d21385b68909f,,,,,,,,,,,1532.849,1533.845,,,1534.34,1534.59,,111,111,,,,,,,,,,,,,,,,bars/027.png,bars/mask008.png,,,,,,,,,,,,10,1,,,,,,,10,6,10,5,,,,,,,,,,,1533.845,1534.34,1534.59,1538.454,space,3.857,,1538.454,1,61,1539.454,1539.454,1539.46,,,,0,28,28,28,1,110,50,,,,,,,,
,,654afb2d87012840100daf23,65af56a874eb1d0e84c24b39,2024-01-23_07h03.56.399,bars,2023.2.3,Win32,166.6666667,657b66ea316d21385b68909f,,,,,,,,,,,1539.46,1540.459,,,1540.959,1541.21,,125,125,,,,,,,,,,,,,,,,bars/031.png,bars/mask000.png,,,,,,,,,,,,8,1,,,,,,,10,4,10,4,,,,,,,,,,,1540.459,1540.959,1541.21,1542.843,space,1.627,,1542.843,5,90,1543.843,1543.843,1543.844,,,,0,29,29,29,1,120,35,,,,,,,,
,,654afb2d87012840100daf23,65af56a874eb1d0e84c24b39,2024-01-23_07h03.56.399,bars,2023.2.3,Win32,166.6666667,657b66ea316d21385b68909f,,,,,,,,,,,1543.844,1544.844,,,1545.345,1545.591,,82,82,,,,,,,,,,,,,,,,bars/013.png,bars/mask008.png,,,,,,,,,,,,5,1,,,,,,,8,6,7,5,,,,,,,,,,,1544.844,1545.345,1545.591,1547.603,space,2.007,,1547.603,7,72,1548.602,1548.602,1548.608,,,,0,30,30,30,1,75,10,,,,,,,,
,,654afb2d87012840100daf23,65af56a874eb1d0e84c24b39,2024-01-23_07h03.56.399,bars,2023.2.3,Win32,166.6666667,657b66ea316d21385b68909f,,,,,,,,,,,1548.608,1549.606,,,1550.104,1550.35,,163,163,,,,,,,,,,,,,,,,bars/039.png,bars/mask001.png,,,,,,,,,,,,4,1,,,,,,,6,8,6,10,,,,,,,,,,,1549.606,1550.104,1550.35,1554.738,space,4.38,,1554.738,12,58,1555.739,1555.739,1555.745,,,,0,31,31,31,1,175,105,,,,,,,,
,,654afb2d87012840100daf23,65af56a874eb1d0e84c24b39,2024-01-23_07h03.56.399,bars,2023.2.3,Win32,166.6666667,657b66ea316d21385b68909f,,,,,,,,,,,1555.745,1556.74,,,1557.239,1557.487,,11,191,,,,,,,,,,,,,,,,bars/008.png,bars/mask002.png,,,,,,,,,,,,6,2,,,,,,,4,10,4,10,,,,,,,,,,,1556.74,1557.239,1557.487,1558.588,space,1.097,,1558.588,81,11,1559.588,1559.588,1559.589,,,,0,32,32,32,1,110,0,,,,,,,,
,,654afb2d87012840100daf23,65af56a874eb1d0e84c24b39,2024-01-23_07h03.56.399,bars,2023.2.3,Win32,166.6666667,657b66ea316d21385b68909f,,,,,,,,,,,1559.59,1560.589,,,1561.089,1561.339,,96,96,,,,,,,,,,,,,,,,bars/019.png,bars/mask007.png,,,,,,,,,,,,6,2,,,,,,,2,10,2,9,,,,,,,,,,,1560.589,1561.089,1561.339,1564.021,space,2.677,,1564.021,51,9,1565.015,1565.015,1565.02,,,,0,33,33,33,1,45,105,,,,,,,,
,,654afb2d87012840100daf23,65af56a874eb1d0e84c24b39,2024-01-23_07h03.56.399,bars,2023.2.3,Win32,166.6666667,657b66ea316d21385b68909f,,,,,,,,,,,1565.02,1566.016,,,1566.516,1566.766,,0,0,,,,,,,,,,,,,,,,bars/045.png,bars/mask005.png,,,,,,,,,,,,5,2,,,,,,,0,8,1,7,,,,,,,,,,,1566.016,1566.516,1566.766,1570.22,space,3.446,,1570.22,80,10,1571.22,1571.22,1571.226,,,,0,34,34,34,1,100,10,,,,,,,,
,,654afb2d87012840100daf23,65af56a874eb1d0e84c24b39,2024-01-23_07h03.56.399,bars,2023.2.3,Win32,166.6666667,657b66ea316d21385b68909f,,,,,,,,,,,1571.226,1572.227,,,1572.728,1572.979,,48,48,,,,,,,,,,,,,,,,bars/035.png,bars/mask009.png,,,,,,,,,,,,5,2,,,,,,,0,10,0,9,,,,,,,,,,,1572.227,1572.728,1572.979,1574.958,space,1.975,,1574.958,53,12,1575.959,1575.959,1575.959,,,,0,35,35,35,1,175,60,,,,,,,,
,,654afb2d87012840100daf23,65af56a874eb1d0e84c24b39,2024-01-23_07h03.56.399,bars,2023.2.3,Win32,166.6666667,657b66ea316d21385b68909f,,,,,,,,,,,1575.959,1576.96,,,1577.46,1577.71,,170,-10,,,,,,,,,,,,,,,,bars/033.png,bars/mask008.png,,,,,,,,,,,,4,2,,,,,,,2,8,4,7,,,,,,,,,,,1576.96,1577.46,1577.71,1579.1,space,1.381,,1579.1,35,15,1580.101,1580.101,1580.101,,,,0,36,36,36,1,25,155,,,,,,,,
,,654afb2d87012840100daf23,65af56a874eb1d0e84c24b39,2024-01-23_07h03.56.399,bars,2023.2.3,Win32,166.6666667,657b66ea316d21385b68909f,,,,,,,,,,,1580.101,1581.1,,,1581.602,1581.851,,108,-72,,,,,,,,,,,,,,,,bars/008.png,bars/mask009.png,,,,,,,,,,,,0,1,,,,,,,0,6,0,5,,,,,,,,,,,1581.1,1581.602,1581.851,1585.277,space,3.418,,1585.277,2,72,1586.277,1586.277,1586.284,,,,0,37,37,37,1,110,0,,,,,,,,
,,654afb2d87012840100daf23,65af56a874eb1d0e84c24b39,2024-01-23_07h03.56.399,bars,2023.2.3,Win32,166.6666667,657b66ea316d21385b68909f,,,,,,,,,,,1586.284,1587.285,,,1587.785,1588.036,,73,73,,,,,,,,,,,,,,,,bars/001.png,bars/mask002.png,,,,,,,,,,,,5,2,,,,,,,2,8,2,8,,,,,,,,,,,1587.285,1587.785,1588.036,1590.982,space,2.942,,1590.982,57,12,1591.982,1591.982,1591.988,,,,0,38,38,38,1,130,85,,,,,,,,
,,654afb2d87012840100daf23,65af56a874eb1d0e84c24b39,2024-01-23_07h03.56.399,bars,2023.2.3,Win32,166.6666667,657b66ea316d21385b68909f,,,,,,,,,,,1591.988,1592.989,,,1593.49,1593.741,,77,77,,,,,,,,,,,,,,,,bars/038.png,bars/mask003.png,,,,,,,,,,,,8,2,,,,,,,4,10,5,10,,,,,,,,,,,1592.989,1593.49,1593.741,1595.797,space,2.049,,1595.797,88,7,1596.797,1596.797,1596.803,,,,0,39,39,39,1,165,70,,,,,,,,
,,654afb2d87012840100daf23,65af56a874eb1d0e84c24b39,2024-01-23_07h03.56.399,bars,2023.2.3,Win32,166.6666667,657b66ea316d21385b68909f,,,,,,,,,,,1596.803,1597.804,,,1598.305,1598.555,,76,76,,,,,,,,,,,,,,,,bars/042.png,bars/mask008.png,,,,,,,,,,,,10,2,,,,,,,6,10,5,10,,,,,,,,,,,1597.804,1598.305,1598.555,1600.237,space,1.678,,1600.237,69,1,1601.237,1601.237,1601.243,,,,0,40,40,40,1,145,75,,,,,,,,
,,654afb2d87012840100daf23,65af56a874eb1d0e84c24b39,2024-01-23_07h03.56.399,bars,2023.2.3,Win32,166.6666667,657b66ea316d21385b68909f,,,,,,,,,,,1601.243,1602.238,,,1602.738,1602.989,,78,78,,,,,,,,,,,,,,,,bars/002.png,bars/mask008.png,,,,,,,,,,,,5,2,,,,,,,8,8,8,6,,,,,,,,,,,1602.239,1602.738,1602.989,1606.366,space,3.37,,1606.366,52,7,1607.366,1607.366,1607.372,,,,0,41,41,41,1,130,85,,,,,,,,
,,654afb2d87012840100daf23,65af56a874eb1d0e84c24b39,2024-01-23_07h03.56.399,bars,2023.2.3,Win32,166.6666667,657b66ea316d21385b68909f,,,,,,,,,,,1607.372,1608.367,,,1608.867,1609.117,,79,79,,,,,,,,,,,,,,,,bars/021.png,bars/mask001.png,,,,,,,,,,,,7,2,,,,,,,6,10,5,10,,,,,,,,,,,1608.367,1608.867,1609.117,1611.757,space,2.635,,1611.757,76,9,1612.757,1612.757,1612.763,,,,0,42,42,42,1,155,70,,,,,,,,
,,654afb2d87012840100daf23,65af56a874eb1d0e84c24b39,2024-01-23_07h03.56.399,bars,2023.2.3,Win32,166.6666667,657b66ea316d21385b68909f,,,,,,,,,,,1612.763,1613.759,,,1614.259,1614.509,,96,96,,,,,,,,,,,,,,,,bars/019.png,bars/mask005.png,,,,,,,,,,,,7,2,,,,,,,8,10,9,10,,,,,,,,,,,1613.759,1614.259,1614.509,1616.385,space,1.871,,1616.385,51,9,1617.386,1617.386,1617.391,,,,0,43,43,43,1,45,105,,,,,,,,
,,654afb2d87012840100daf23,65af56a874eb1d0e84c24b39,2024-01-23_07h03.56.399,bars,2023.2.3,Win32,166.6666667,657b66ea316d21385b68909f,,,,,,,,,,,1617.391,1618.386,,,1618.886,1619.136,,163,163,,,,,,,,,,,,,,,,bars/033.png,bars/mask001.png,,,,,,,,,,,,7,2,,,,,,,10,10,10,10,,,,,,,,,,,1618.386,1618.886,1619.136,1621.443,space,2.301,,1621.443,42,8,1622.437,1622.437,1622.437,,,,0,44,44,44,1,25,155,,,,,,,,
,,654afb2d87012840100daf23,65af56a874eb1d0e84c24b39,2024-01-23_07h03.56.399,bars,2023.2.3,Win32,166.6666667,657b66ea316d21385b68909f,,,,,,,,,,,1622.437,1623.437,,,1623.938,1624.188,,104,104,,,,,,,,,,,,,,,,bars/023.png,bars/mask003.png,,,,,,,,,,,,5,2,,,,,,,10,8,10,8,,,,,,,,,,,1623.438,1623.938,1624.188,1628.114,space,3.919,,1628.114,84,11,1629.115,1629.115,1629.12,,,,0,45,45,45,1,20,115,,,,,,,,
,,654afb2d87012840100daf23,65af56a874eb1d0e84c24b39,2024-01-23_07h03.56.399,bars,2023.2.3,Win32,166.6666667,657b66ea316d21385b68909f,,,,,,,,,,,1629.12,1630.122,,,1630.622,1630.872,,55,55,,,,,,,,,,,,,,,,bars/010.png,bars/mask001.png,,,,,,,,,,,,10,2,,,,,,,10,10,10,10,,,,,,,,,,,1630.122,1630.622,1630.872,1635.035,space,4.157,,1635.035,70,0,1636.035,1636.035,1636.04,,,,0,46,46,46,1,165,55,,,,,,,,
,,654afb2d87012840100daf23,65af56a874eb1d0e84c24b39,2024-01-23_07h03.56.399,bars,2023.2.3,Win32,166.6666667,657b66ea316d21385b68909f,,,,,,,,,,,1636.04,1637.036,,,1637.536,1637.786,,47,47,,,,,,,,,,,,,,,,bars/029.png,bars/mask009.png,,,,,,,,,,,,9,2,,,,,,,10,10,10,10,,,,,,,,,,,1637.036,1637.536,1637.786,1638.585,space,0.795,,1638.585,43,2,1639.586,1639.586,1639.586,,,,0,47,47,47,1,90,45,,,,,,,,
,,654afb2d87012840100daf23,65af56a874eb1d0e84c24b39,2024-01-23_07h03.56.399,bars,2023.2.3,Win32,166.6666667,657b66ea316d21385b68909f,,,,,,,,,,,1639.586,1640.587,,,1641.087,1641.336,,43,43,,,,,,,,,,,,,,,,bars/029.png,bars/mask004.png,,,,,,,,,,,,9,2,,,,,,,10,10,10,10,,,,,,,,,,,1640.587,1641.087,1641.336,1645.193,space,3.852,,1645.193,47,2,1646.193,1646.193,1646.199,,,,0,48,48,48,1,90,45,,,,,,,,
,,654afb2d87012840100daf23,65af56a874eb1d0e84c24b39,2024-01-23_07h03.56.399,bars,2023.2.3,Win32,166.6666667,657b66ea316d21385b68909f,,,,,,,,,,,1646.199,1647.194,,,1647.695,1647.945,,66,66,,,,,,,,,,,,,,,,bars/030.png,bars/mask009.png,,,,,,,,,,,,6,2,,,,,,,8,8,6,6,,,,,,,,,,,1647.194,1647.694,1647.945,1650.369,space,2.421,,1650.369,74,1,1651.371,1651.371,1651.376,,,,0,49,49,49,1,140,65,,,,,,,,
,,654afb2d87012840100daf23,65af56a874eb1d0e84c24b39,2024-01-23_07h03.56.399,bars,2023.2.3,Win32,166.6666667,657b66ea316d21385b68909f,,,,,,,,,,,,,,,,,,,,,,,,,,,,,,,,,,,,,,,,,,,,,,,,,,,,,,,,,,,,,,,,,,,,,,,,,,,,,,,,,,,,,,,,,,,,,1651.376,1711.377,0,3,3,0,1,sequence_tables/blk041.csv
,,654afb2d87012840100daf23,65af56a874eb1d0e84c24b39,2024-01-23_07h03.56.399,bars,2023.2.3,Win32,166.6666667,657b66ea316d21385b68909f,,,,,,,,,,,1815.25,1816.243,,,1816.743,1816.993,,101,101,,,,,,,,,,,,,,,,bars/034.png,bars/mask002.png,,,,,,,,,,,,2,1,,,,,,,7,2,8,3,,,,,,1711.383,1815.242,space,103.853,,1816.243,1816.743,1816.993,1820.148,space,3.148,,1820.148,24,36,1821.148,1821.148,1821.16,,,,0,0,0,0,1,125,65,,,,,,,,
,,654afb2d87012840100daf23,65af56a874eb1d0e84c24b39,2024-01-23_07h03.56.399,bars,2023.2.3,Win32,166.6666667,657b66ea316d21385b68909f,,,,,,,,,,,1821.16,1822.156,,,1822.657,1822.907,,33,213,,,,,,,,,,,,,,,,bars/033.png,bars/mask008.png,,,,,,,,,,,,6,1,,,,,,,9,4,8,5,,,,,,,,,,,1822.156,1822.657,1822.907,1826.078,space,3.17,,1826.078,8,58,1827.075,1827.076,1827.081,,,,0,1,1,1,1,25,155,,,,,,,,
,,654afb2d87012840100daf23,65af56a874eb1d0e84c24b39,2024-01-23_07h03.56.399,bars,2023.2.3,Win32,166.6666667,657b66ea316d21385b68909f,,,,,,,,,,,1827.081,1828.076,,,1828.576,1828.826,,76,76,,,,,,,,,,,,,,,,bars/032.png,bars/mask009.png,,,,,,,,,,,,0,1,,,,,,,7,6,6,6,,,,,,,,,,,1828.076,1828.576,1828.826,1830.848,space,2.018,,1830.848,49,56,1831.849,1831.849,1831.854,,,,0,2,2,2,1,125,20,,,,,,,,
,,654afb2d87012840100daf23,65af56a874eb1d0e84c24b39,2024-01-23_07h03.56.399,bars,2023.2.3,Win32,166.6666667,657b66ea316d21385b68909f,,,,,,,,,,,1831.854,1832.85,,,1833.35,1833.6,,148,-32,,,,,,,,,,,,,,,,bars/030.png,bars/mask004.png,,,,,,,,,,,,4,1,,,,,,,5,8,6,9,,,,,,,,,,,1832.85,1833.35,1833.6,1836.97,space,3.364,,1836.97,8,83,1837.97,1837.971,1837.976,,,,0,3,3,3,1,140,65,,,,,,,,
,,654afb2d87012840100daf23,65af56a874eb1d0e84c24b39,2024-01-23_07h03.56.399,bars,2023.2.3,Win32,166.6666667,657b66ea316d21385b68909f,,,,,,,,,,,1837.976,1838.971,,,1839.472,1839.722,,108,108,,,,,,,,,,,,,,,,bars/012.png,bars/mask003.png,,,,,,,,,,,,1,1,,,,,,,3,6,2,6,,,,,,,,,,,1838.971,1839.472,1839.722,1841.125,space,1.396,,1841.125,18,87,1842.125,1842.125,1842.126,,,,0,4,4,4,1,90,15,,,,,,,,
,,654afb2d87012840100daf23,65af56a874eb1d0e84c24b39,2024-01-23_07h03.56.399,bars,2023.2.3,Win32,166.6666667,657b66ea316d21385b68909f,,,,,,,,,,,1842.127,1843.127,,,1843.627,1843.877,,150,150,,,,,,,,,,,,,,,,bars/015.png,bars/mask007.png,,,,,,,,,,,,3,2,,,,,,,5,4,4,5,,,,,,,,,,,1843.127,1843.627,1843.877,1846.614,space,2.733,,1846.614,40,10,1847.609,1847.609,1847.617,,,,0,5,5,5,1,110,160,,,,,,,,
,,654afb2d87012840100daf23,65af56a874eb1d0e84c24b39,2024-01-23_07h03.56.399,bars,2023.2.3,Win32,166.6666667,657b66ea316d21385b68909f,,,,,,,,,,,1847.617,1848.616,,,1849.116,1849.36,,22,22,,,,,,,,,,,,,,,,bars/012.png,bars/mask003.png,,,,,,,,,,,,2,2,,,,,,,3,2,3,3,,,,,,,,,,,1848.616,1849.116,1849.36,1850.874,space,1.509,,1850.874,68,7,1851.875,1851.875,1851.88,,,,0,6,6,6,1,90,15,,,,,,,,
,,654afb2d87012840100daf23,65af56a874eb1d0e84c24b39,2024-01-23_07h03.56.399,bars,2023.2.3,Win32,166.6666667,657b66ea316d21385b68909f,,,,,,,,,,,1851.88,1852.882,,,1853.382,1853.632,,24,24,,,,,,,,,,,,,,,,bars/014.png,bars/mask006.png,,,,,,,,,,,,1,2,,,,,,,1,4,2,3,,,,,,,,,,,1852.882,1853.382,1853.632,1856.252,space,2.614,,1856.252,56,24,1857.253,1857.253,1857.253,,,,0,7,7,7,1,80,0,,,,,,,,
,,654afb2d87012840100daf23,65af56a874eb1d0e84c24b39,2024-01-23_07h03.56.399,bars,2023.2.3,Win32,166.6666667,657b66ea316d21385b68909f,,,,,,,,,,,1857.253,1858.254,,,1858.753,1859.003,,68,68,,,,,,,,,,,,,,,,bars/035.png,bars/mask000.png,,,,,,,,,,,,2,2,,,,,,,0,2,0,3,,,,,,,,,,,1858.254,1858.753,1859.003,1860.296,space,1.289,,1860.296,73,8,1861.296,1861.296,1861.302,,,,0,8,8,8,1,175,60,,,,,,,,
,,654afb2d87012840100daf23,65af56a874eb1d0e84c24b39,2024-01-23_07h03.56.399,bars,2023.2.3,Win32,166.6666667,657b66ea316d21385b68909f,,,,,,,,,,,1861.303,1862.305,,,1862.804,1863.054,,61,61,,,,,,,,,,,,,,,,bars/021.png,bars/mask000.png,,,,,,,,,,,,4,2,,,,,,,0,4,0,5,,,,,,,,,,,1862.305,1862.804,1863.054,1865.466,space,2.405,,1865.466,86,9,1866.466,1866.466,1866.472,,,,0,9,9,9,1,155,70,,,,,,,,
,,654afb2d87012840100daf23,65af56a874eb1d0e84c24b39,2024-01-23_07h03.56.399,bars,2023.2.3,Win32,166.6666667,657b66ea316d21385b68909f,,,,,,,,,,,1866.472,1867.467,,,1867.967,1868.218,,59,59,,,,,,,,,,,,,,,,bars/001.png,bars/mask001.png,,,,,,,,,,,,1,2,,,,,,,0,6,0,6,,,,,,,,,,,1867.467,1867.967,1868.218,1870.836,space,2.612,,1870.836,71,26,1871.838,1871.838,1871.843,,,,0,10,10,10,1,130,85,,,,,,,,
,,654afb2d87012840100daf23,65af56a874eb1d0e84c24b39,2024-01-23_07h03.56.399,bars,2023.2.3,Win32,166.6666667,657b66ea316d21385b68909f,,,,,,,,,,,1871.843,1872.845,,,1873.346,1873.595,,83,83,,,,,,,,,,,,,,,,bars/018.png,bars/mask006.png,,,,,,,,,,,,6,2,,,,,,,2,8,2,8,,,,,,,,,,,1872.845,1873.346,1873.595,1876.924,space,3.321,,1876.924,67,7,1877.924,1877.924,1877.93,,,,0,11,11,11,1,150,90,,,,,,,,
,,654afb2d87012840100daf23,65af56a874eb1d0e84c24b39,2024-01-23_07h03.56.399,bars,2023.2.3,Win32,166.6666667,657b66ea316d21385b68909f,,,,,,,,,,,1877.93,1878.932,,,1879.432,1879.682,,169,-11,,,,,,,,,,,,,,,,bars/033.png,bars/mask003.png,,,,,,,,,,,,3,2,,,,,,,4,6,5,6,,,,,,,,,,,1878.932,1879.432,1879.682,1882.364,space,2.676,,1882.364,36,14,1883.364,1883.364,1883.37,,,,0,12,12,12,1,25,155,,,,,,,,
,,654afb2d87012840100daf23,65af56a874eb1d0e84c24b39,2024-01-23_07h03.56.399,bars,2023.2.3,Win32,166.6666667,657b66ea316d21385b68909f,,,,,,,,,,,1883.37,1884.366,,,1884.865,1885.116,,153,-27,,,,,,,,,,,,,,,,bars/015.png,bars/mask009.png,,,,,,,,,,,,6,2,,,,,,,2,8,1,8,,,,,,,,,,,1884.366,1884.865,1885.116,1887.499,space,2.377,,1887.499,43,7,1888.5,1888.5,1888.506,,,,0,13,13,13,1,110,160,,,,,,,,
,,654afb2d87012840100daf23,65af56a874eb1d0e84c24b39,2024-01-23_07h03.56.399,bars,2023.2.3,Win32,166.6666667,657b66ea316d21385b68909f,,,,,,,,,,,1888.506,1889.501,,,1890,1890.251,,109,-71,,,,,,,,,,,,,,,,bars/006.png,bars/mask005.png,,,,,,,,,,,,7,2,,,,,,,4,10,3,10,,,,,,,,,,,1889.501,1890,1890.251,1893.816,space,3.561,,1893.816,74,9,1894.816,1894.816,1894.822,,,,0,14,14,14,1,35,100,,,,,,,,
,,654afb2d87012840100daf23,65af56a874eb1d0e84c24b39,2024-01-23_07h03.56.399,bars,2023.2.3,Win32,166.6666667,657b66ea316d21385b68909f,,,,,,,,,,,1894.822,1895.823,,,1896.324,1896.574,,171,-9,,,,,,,,,,,,,,,,bars/024.png,bars/mask009.png,,,,,,,,,,,,9,2,,,,,,,2,10,3,9,,,,,,,,,,,1895.823,1896.324,1896.574,1897.935,space,1.355,,1897.935,51,1,1898.936,1898.936,1898.936,,,,0,15,15,15,1,120,170,,,,,,,,
,,654afb2d87012840100daf23,65af56a874eb1d0e84c24b39,2024-01-23_07h03.56.399,bars,2023.2.3,Win32,166.6666667,657b66ea316d21385b68909f,,,,,,,,,,,1898.937,1899.937,,,1900.437,1900.688,,101,-79,,,,,,,,,,,,,,,,bars/026.png,bars/mask002.png,,,,,,,,,,,,4,2,,,,,,,0,10,0,8,,,,,,,,,,,1899.937,1900.437,1900.688,1904.85,space,4.155,,1904.85,66,16,1905.85,1905.85,1905.856,,,,0,16,16,16,1,35,85,,,,,,,,
,,654afb2d87012840100daf23,65af56a874eb1d0e84c24b39,2024-01-23_07h03.56.399,bars,2023.2.3,Win32,166.6666667,657b66ea316d21385b68909f,,,,,,,,,,,1905.856,1906.851,,,1907.351,1907.601,,16,196,,,,,,,,,,,,,,,,bars/040.png,bars/mask004.png,,,,,,,,,,,,6,2,,,,,,,2,8,2,10,,,,,,,,,,,1906.851,1907.351,1907.601,1910.248,space,2.643,,1910.248,56,11,1911.249,1911.249,1911.249,,,,0,17,17,17,1,140,5,,,,,,,,
,,654afb2d87012840100daf23,65af56a874eb1d0e84c24b39,2024-01-23_07h03.56.399,bars,2023.2.3,Win32,166.6666667,657b66ea316d21385b68909f,,,,,,,,,,,1911.249,1912.249,,,1912.75,1913,,168,-12,,,,,,,,,,,,,,,,bars/016.png,bars/mask004.png,,,,,,,,,,,,9,2,,,,,,,4,10,5,10,,,,,,,,,,,1912.249,1912.75,1913,1914.821,space,1.814,,1914.821,52,3,1915.82,1915.821,1915.827,,,,0,18,18,18,1,40,165,,,,,,,,
,,654afb2d87012840100daf23,65af56a874eb1d0e84c24b39,2024-01-23_07h03.56.399,bars,2023.2.3,Win32,166.6666667,657b66ea316d21385b68909f,,,,,,,,,,,1915.827,1916.828,,,1917.329,1917.579,,90,90,,,,,,,,,,,,,,,,bars/011.png,bars/mask009.png,,,,,,,,,,,,8,2,,,,,,,6,10,5,10,,,,,,,,,,,1916.829,1917.329,1917.579,1921.123,space,3.537,,1921.123,70,5,1922.123,1922.124,1922.128,,,,0,19,19,19,1,160,85,,,,,,,,
,,654afb2d87012840100daf23,65af56a874eb1d0e84c24b39,2024-01-23_07h03.56.399,bars,2023.2.3,Win32,166.6666667,657b66ea316d21385b68909f,,,,,,,,,,,1922.128,1923.124,,,1923.624,1923.874,,94,94,,,,,,,,,,,,,,,,bars/009.png,bars/mask002.png,,,,,,,,,,,,6,2,,,,,,,8,10,9,10,,,,,,,,,,,1923.124,1923.624,1923.874,1926.612,space,2.733,,1926.612,79,11,1927.613,1927.613,1927.619,,,,0,20,20,20,1,15,105,,,,,,,,
