init_variables.started,init_variables.stopped,participant,session,date,expName,psychopyVersion,OS,frameRate,study_id,instruction_exp.started,instruction_exp.stopped,key_resp_8.keys,key_resp_8.rt,key_resp_8.duration,instruction_single.started,instruction_single.stopped,key_resp_2.keys,key_resp_2.rt,key_resp_2.duration,interval.started,interval.stopped,cue_single.started,cue_single.stopped,mask.started,mask.stopped,ori_response_single.started,res_ori,res,ori_response_single.stopped,key_resp_single.keys,key_resp_single.rt,key_resp_single.duration,disp_single.started,disp_single.stopped,key_resp.keys,key_resp.rt,key_resp.duration,single.thisRepN,single.thisTrialN,single.thisN,single.thisIndex,single.ran,ori,path,mask_path,instruction_bandit.started,instruction_bandit.stopped,key_resp_6.keys,key_resp_6.rt,key_resp_6.duration,cue_bandit.started,cue_bandit.stopped,bandit_res.keys,bandit_res.rt,bandit_res.duration,outcome_bandit.started,rew,action,outcome_bandit.stopped,bandit.thisRepN,bandit.thisTrialN,bandit.thisN,bandit.thisIndex,bandit.ran,actual_rew1,actual_rew2,rew1,rew2,instruction_task.started,instruction_task.stopped,key_resp_7.keys,key_resp_7.rt,key_resp_7.duration,wait_ready.started,wait_ready.stopped,key_resp_3.keys,key_resp_3.rt,key_resp_3.duration,cue.started,cue.stopped,ori_response.started,ori_response.stopped,key_resp_5.keys,key_resp_5.rt,key_resp_5.duration,outcome.started,diff1,diff2,outcome.stopped,disp_outcome_practice.started,disp_outcome_practice.stopped,key_resp_4.keys,key_resp_4.rt,key_resp_4.duration,trials.thisRepN,trials.thisTrialN,trials.thisN,trials.thisIndex,trials.ran,ori1,ori2,break_blk.started,break_blk.stopped,block.thisRepN,block.thisTrialN,block.thisN,block.thisIndex,block.ran,condition_file
0.0003,0.0005,5c5493207f5e0c000143e96e,65af5575928510ff1336ce44,2024-01-23_07h00.53.074,bars,2023.2.3,Linux x86_64,59.88023952,657b66ea316d21385b68909f,,,,,,,,,,,,,,,,,,,,,,,,,,,,,,,,,,,,,,,,,,,,,,,,,,,,,,,,,,,,,,,,,,,,,,,,,,,,,,,,,,,,,,,,,,,,,,,,,,,,
,,5c5493207f5e0c000143e96e,65af5575928510ff1336ce44,2024-01-23_07h00.53.074,bars,2023.2.3,Linux x86_64,59.88023952,657b66ea316d21385b68909f,0.0007,99.8684,y,99.8578,0.0005,,,,,,,,,,,,,,,,,,,,,,,,,,,,,,,,,,,,,,,,,,,,,,,,,,,,,,,,,,,,,,,,,,,,,,,,,,,,,,,,,,,,,,,,,,,,,,,
,,5c5493207f5e0c000143e96e,65af5575928510ff1336ce44,2024-01-23_07h00.53.074,bars,2023.2.3,Linux x86_64,59.88023952,657b66ea316d21385b68909f,,,,,,99.8685,126.9133,space,27.0314,0.0004,,,,,,,,,,,,,,,,,,,,,,,,,,,,,,,,,,,,,,,,,,,,,,,,,,,,,,,,,,,,,,,,,,,,,,,,,,,,,,,,,,,,,,,,,,
,,5c5493207f5e0c000143e96e,65af5575928510ff1336ce44,2024-01-23_07h00.53.074,bars,2023.2.3,Linux x86_64,59.88023952,657b66ea316d21385b68909f,,,,,,,,,,,126.9197,127.9122,127.9125,128.4124,128.4126,128.6624,128.6627,5,185,167.6014,space,38.9138,,167.6018,228.3055,space,60.6768,0.0005,0,0,0,7,1,45,bars/single007.png,bars/mask009.png,,,,,,,,,,,,,,,,,,,,,,,,,,,,,,,,,,,,,,,,,,,,,,,,,,,,,,,,,,,,,,,,
,,5c5493207f5e0c000143e96e,65af5575928510ff1336ce44,2024-01-23_07h00.53.074,bars,2023.2.3,Linux x86_64,59.88023952,657b66ea316d21385b68909f,,,,,,,,,,,228.3062,229.3039,229.304,229.8047,229.8048,230.0546,230.0547,55,55,248.2897,space,18.2199,0.0004,248.2898,253.5393,space,5.2324,0.0002,0,1,1,4,1,95,bars/single004.png,bars/mask004.png,,,,,,,,,,,,,,,,,,,,,,,,,,,,,,,,,,,,,,,,,,,,,,,,,,,,,,,,,,,,,,,,
,,5c5493207f5e0c000143e96e,65af5575928510ff1336ce44,2024-01-23_07h00.53.074,bars,2023.2.3,Linux x86_64,59.88023952,657b66ea316d21385b68909f,,,,,,,,,,,253.5515,254.54,254.54,255.0397,255.0398,255.2893,255.2893,8,8,272.9912,space,17.6804,0.0001,272.9913,280.2421,space,7.221,0.0001,0,2,2,1,1,20,bars/single001.png,bars/mask006.png,,,,,,,,,,,,,,,,,,,,,,,,,,,,,,,,,,,,,,,,,,,,,,,,,,,,,,,,,,,,,,,,
,,5c5493207f5e0c000143e96e,65af5575928510ff1336ce44,2024-01-23_07h00.53.074,bars,2023.2.3,Linux x86_64,59.88023952,657b66ea316d21385b68909f,,,,,,,,,,,280.2538,281.2419,281.2419,281.7417,281.7418,281.9924,281.9926,122,122,299.0429,space,17.0394,0.0002,299.0429,299.0599,space,0.0009,,0,3,3,0,1,150,bars/single000.png,bars/mask006.png,,,,,,,,,,,,,,,,,,,,,,,,,,,,,,,,,,,,,,,,,,,,,,,,,,,,,,,,,,,,,,,,
,,5c5493207f5e0c000143e96e,65af5575928510ff1336ce44,2024-01-23_07h00.53.074,bars,2023.2.3,Linux x86_64,59.88023952,657b66ea316d21385b68909f,,,,,,,,,,,299.0604,300.0594,300.0595,300.5598,300.5601,300.8086,300.8087,46,46,316.7438,space,15.9178,,316.7439,324.9274,space,8.1484,0.0002,0,4,4,5,1,55,bars/single005.png,bars/mask008.png,,,,,,,,,,,,,,,,,,,,,,,,,,,,,,,,,,,,,,,,,,,,,,,,,,,,,,,,,,,,,,,,
,,5c5493207f5e0c000143e96e,65af5575928510ff1336ce44,2024-01-23_07h00.53.074,bars,2023.2.3,Linux x86_64,59.88023952,657b66ea316d21385b68909f,,,,,,,,,,,324.9393,325.9273,325.9273,326.4272,326.4273,326.6766,326.6767,137,137,332.8441,space,6.1604,,332.8444,335.8621,space,2.9917,0.0003,0,5,5,9,1,20,bars/single009.png,bars/mask006.png,,,,,,,,,,,,,,,,,,,,,,,,,,,,,,,,,,,,,,,,,,,,,,,,,,,,,,,,,,,,,,,,
,,5c5493207f5e0c000143e96e,65af5575928510ff1336ce44,2024-01-23_07h00.53.074,bars,2023.2.3,Linux x86_64,59.88023952,657b66ea316d21385b68909f,,,,,,,,,,,335.8628,336.861,336.861,337.3612,337.3613,337.6118,337.6119,3,3,348.245,space,10.619,,348.2451,352.9958,space,4.7223,0.0002,0,6,6,6,1,175,bars/single006.png,bars/mask005.png,,,,,,,,,,,,,,,,,,,,,,,,,,,,,,,,,,,,,,,,,,,,,,,,,,,,,,,,,,,,,,,,
,,5c5493207f5e0c000143e96e,65af5575928510ff1336ce44,2024-01-23_07h00.53.074,bars,2023.2.3,Linux x86_64,59.88023952,657b66ea316d21385b68909f,,,,,,,,,,,353.0059,353.9955,353.9955,354.4954,354.4954,354.7457,354.7459,21,201,371.4968,space,16.735,0.0002,371.497,404.1639,space,32.6381,0.0001,0,7,7,3,1,20,bars/single003.png,bars/mask005.png,,,,,,,,,,,,,,,,,,,,,,,,,,,,,,,,,,,,,,,,,,,,,,,,,,,,,,,,,,,,,,,,
,,5c5493207f5e0c000143e96e,65af5575928510ff1336ce44,2024-01-23_07h00.53.074,bars,2023.2.3,Linux x86_64,59.88023952,657b66ea316d21385b68909f,,,,,,,,,,,404.1742,405.1649,405.1649,405.6643,405.6643,405.915,405.9151,143,-37,415.2977,space,9.3688,,415.2977,417.8153,space,2.4858,,0,8,8,8,1,160,bars/single008.png,bars/mask004.png,,,,,,,,,,,,,,,,,,,,,,,,,,,,,,,,,,,,,,,,,,,,,,,,,,,,,,,,,,,,,,,,
,,5c5493207f5e0c000143e96e,65af5575928510ff1336ce44,2024-01-23_07h00.53.074,bars,2023.2.3,Linux x86_64,59.88023952,657b66ea316d21385b68909f,,,,,,,,,,,417.816,418.8147,418.8148,419.3146,419.3147,419.5653,419.5653,140,-40,428.4318,space,8.854,,428.4319,432.0648,space,3.6128,0.0002,0,9,9,2,1,145,bars/single002.png,bars/mask003.png,,,,,,,,,,,,,,,,,,,,,,,,,,,,,,,,,,,,,,,,,,,,,,,,,,,,,,,,,,,,,,,,
,,5c5493207f5e0c000143e96e,65af5575928510ff1336ce44,2024-01-23_07h00.53.074,bars,2023.2.3,Linux x86_64,59.88023952,657b66ea316d21385b68909f,,,,,,,,,,,,,,,,,,,,,,,,,,,,,,,,,,,,,432.075,458.0834,space,25.9902,0.0002,,,,,,,,,,,,,,,,,,,,,,,,,,,,,,,,,,,,,,,,,,,,,,,,,,,,,,,,,,,
,,5c5493207f5e0c000143e96e,65af5575928510ff1336ce44,2024-01-23_07h00.53.074,bars,2023.2.3,Linux x86_64,59.88023952,657b66ea316d21385b68909f,,,,,,,,,,,,,,,,,,,,,,,,,,,,,,,,,,,,,,,,,,458.0957,464.7852,right,6.6701,0.0109,464.7853,2,2,465.7833,0,0,0,0,1,9,1,9,2,,,,,,,,,,,,,,,,,,,,,,,,,,,,,,,,,,,,,,,,,
,,5c5493207f5e0c000143e96e,65af5575928510ff1336ce44,2024-01-23_07h00.53.074,bars,2023.2.3,Linux x86_64,59.88023952,657b66ea316d21385b68909f,,,,,,,,,,,,,,,,,,,,,,,,,,,,,,,,,,,,,,,,,,465.784,467.7499,right,1.9561,0.0002,467.7499,1,2,468.7501,0,1,1,1,1,10,0,10,1,,,,,,,,,,,,,,,,,,,,,,,,,,,,,,,,,,,,,,,,,
,,5c5493207f5e0c000143e96e,65af5575928510ff1336ce44,2024-01-23_07h00.53.074,bars,2023.2.3,Linux x86_64,59.88023952,657b66ea316d21385b68909f,,,,,,,,,,,,,,,,,,,,,,,,,,,,,,,,,,,,,,,,,,468.7596,469.4329,left,0.6585,,469.433,10,1,470.4333,0,2,2,2,1,10,2,10,2,,,,,,,,,,,,,,,,,,,,,,,,,,,,,,,,,,,,,,,,,
,,5c5493207f5e0c000143e96e,65af5575928510ff1336ce44,2024-01-23_07h00.53.074,bars,2023.2.3,Linux x86_64,59.88023952,657b66ea316d21385b68909f,,,,,,,,,,,,,,,,,,,,,,,,,,,,,,,,,,,,,,,,,,470.4338,471.1003,left,0.6512,,471.1004,7,1,472.1002,0,3,3,3,1,8,4,7,3,,,,,,,,,,,,,,,,,,,,,,,,,,,,,,,,,,,,,,,,,
,,5c5493207f5e0c000143e96e,65af5575928510ff1336ce44,2024-01-23_07h00.53.074,bars,2023.2.3,Linux x86_64,59.88023952,657b66ea316d21385b68909f,,,,,,,,,,,,,,,,,,,,,,,,,,,,,,,,,,,,,,,,,,472.101,472.6169,left,0.5091,,472.617,5,1,473.6163,0,4,4,4,1,6,2,5,1,,,,,,,,,,,,,,,,,,,,,,,,,,,,,,,,,,,,,,,,,
,,5c5493207f5e0c000143e96e,65af5575928510ff1336ce44,2024-01-23_07h00.53.074,bars,2023.2.3,Linux x86_64,59.88023952,657b66ea316d21385b68909f,,,,,,,,,,,,,,,,,,,,,,,,,,,,,,,,,,,,,,,,,,473.617,474.1002,right,0.4774,,474.1002,4,2,475.1007,0,5,5,5,1,4,4,4,4,,,,,,,,,,,,,,,,,,,,,,,,,,,,,,,,,,,,,,,,,
,,5c5493207f5e0c000143e96e,65af5575928510ff1336ce44,2024-01-23_07h00.53.074,bars,2023.2.3,Linux x86_64,59.88023952,657b66ea316d21385b68909f,,,,,,,,,,,,,,,,,,,,,,,,,,,,,,,,,,,,,,,,,,475.1012,475.6005,left,0.4858,,475.6006,1,1,476.6002,0,6,6,6,1,2,2,1,2,,,,,,,,,,,,,,,,,,,,,,,,,,,,,,,,,,,,,,,,,
,,5c5493207f5e0c000143e96e,65af5575928510ff1336ce44,2024-01-23_07h00.53.074,bars,2023.2.3,Linux x86_64,59.88023952,657b66ea316d21385b68909f,,,,,,,,,,,,,,,,,,,,,,,,,,,,,,,,,,,,,,,,,,476.6008,477.2504,right,0.6442,,477.2505,1,2,478.2504,0,7,7,7,1,0,0,0,1,,,,,,,,,,,,,,,,,,,,,,,,,,,,,,,,,,,,,,,,,
,,5c5493207f5e0c000143e96e,65af5575928510ff1336ce44,2024-01-23_07h00.53.074,bars,2023.2.3,Linux x86_64,59.88023952,657b66ea316d21385b68909f,,,,,,,,,,,,,,,,,,,,,,,,,,,,,,,,,,,,,,,,,,478.2509,478.75,left,0.4836,,478.7501,1,1,479.75,0,8,8,8,1,0,2,1,0,,,,,,,,,,,,,,,,,,,,,,,,,,,,,,,,,,,,,,,,,
,,5c5493207f5e0c000143e96e,65af5575928510ff1336ce44,2024-01-23_07h00.53.074,bars,2023.2.3,Linux x86_64,59.88023952,657b66ea316d21385b68909f,,,,,,,,,,,,,,,,,,,,,,,,,,,,,,,,,,,,,,,,,,479.7508,480.1838,left,0.4189,,480.1838,2,1,481.1838,0,9,9,9,1,2,4,2,3,,,,,,,,,,,,,,,,,,,,,,,,,,,,,,,,,,,,,,,,,
,,5c5493207f5e0c000143e96e,65af5575928510ff1336ce44,2024-01-23_07h00.53.074,bars,2023.2.3,Linux x86_64,59.88023952,657b66ea316d21385b68909f,,,,,,,,,,,,,,,,,,,,,,,,,,,,,,,,,,,,,,,,,,481.1844,481.5839,left,0.3841,,481.584,0,1,482.5836,0,10,10,10,1,0,2,0,3,,,,,,,,,,,,,,,,,,,,,,,,,,,,,,,,,,,,,,,,,
,,5c5493207f5e0c000143e96e,65af5575928510ff1336ce44,2024-01-23_07h00.53.074,bars,2023.2.3,Linux x86_64,59.88023952,657b66ea316d21385b68909f,,,,,,,,,,,,,,,,,,,,,,,,,,,,,,,,,,,,,,,,,,482.5841,483.2013,right,0.6012,,483.2013,3,2,484.2005,0,11,11,11,1,0,4,0,3,,,,,,,,,,,,,,,,,,,,,,,,,,,,,,,,,,,,,,,,,
,,5c5493207f5e0c000143e96e,65af5575928510ff1336ce44,2024-01-23_07h00.53.074,bars,2023.2.3,Linux x86_64,59.88023952,657b66ea316d21385b68909f,,,,,,,,,,,,,,,,,,,,,,,,,,,,,,,,,,,,,,,,,,484.201,484.7336,right,0.5184,,484.7337,6,2,485.7339,0,12,12,12,1,2,6,1,6,,,,,,,,,,,,,,,,,,,,,,,,,,,,,,,,,,,,,,,,,
,,5c5493207f5e0c000143e96e,65af5575928510ff1336ce44,2024-01-23_07h00.53.074,bars,2023.2.3,Linux x86_64,59.88023952,657b66ea316d21385b68909f,,,,,,,,,,,,,,,,,,,,,,,,,,,,,,,,,,,,,,,,,,485.7345,486.2506,right,0.5102,,486.2507,3,2,487.2504,0,13,13,13,1,0,4,1,3,,,,,,,,,,,,,,,,,,,,,,,,,,,,,,,,,,,,,,,,,
,,5c5493207f5e0c000143e96e,65af5575928510ff1336ce44,2024-01-23_07h00.53.074,bars,2023.2.3,Linux x86_64,59.88023952,657b66ea316d21385b68909f,,,,,,,,,,,,,,,,,,,,,,,,,,,,,,,,,,,,,,,,,,487.251,487.6503,left,0.3893,,487.6504,2,1,488.6508,0,14,14,14,1,2,6,2,7,,,,,,,,,,,,,,,,,,,,,,,,,,,,,,,,,,,,,,,,,
,,5c5493207f5e0c000143e96e,65af5575928510ff1336ce44,2024-01-23_07h00.53.074,bars,2023.2.3,Linux x86_64,59.88023952,657b66ea316d21385b68909f,,,,,,,,,,,,,,,,,,,,,,,,,,,,,,,,,,,,,,,,,,488.6519,489.0508,right,0.3847,,489.0509,9,2,490.0508,0,15,15,15,1,4,8,3,9,,,,,,,,,,,,,,,,,,,,,,,,,,,,,,,,,,,,,,,,,
,,5c5493207f5e0c000143e96e,65af5575928510ff1336ce44,2024-01-23_07h00.53.074,bars,2023.2.3,Linux x86_64,59.88023952,657b66ea316d21385b68909f,,,,,,,,,,,,,,,,,,,,,,,,,,,,,,,,,,,,,,,,,,490.0514,490.5842,right,0.5155,,490.5842,7,2,491.584,0,16,16,16,1,6,6,7,7,,,,,,,,,,,,,,,,,,,,,,,,,,,,,,,,,,,,,,,,,
,,5c5493207f5e0c000143e96e,65af5575928510ff1336ce44,2024-01-23_07h00.53.074,bars,2023.2.3,Linux x86_64,59.88023952,657b66ea316d21385b68909f,,,,,,,,,,,,,,,,,,,,,,,,,,,,,,,,,,,,,,,,,,491.5843,492.017,right,0.4205,,492.0171,5,2,493.0171,0,17,17,17,1,8,4,9,5,,,,,,,,,,,,,,,,,,,,,,,,,,,,,,,,,,,,,,,,,
,,5c5493207f5e0c000143e96e,65af5575928510ff1336ce44,2024-01-23_07h00.53.074,bars,2023.2.3,Linux x86_64,59.88023952,657b66ea316d21385b68909f,,,,,,,,,,,,,,,,,,,,,,,,,,,,,,,,,,,,,,,,,,493.0176,493.3673,left,0.3364,,493.3673,5,1,494.3673,0,18,18,18,1,6,2,5,1,,,,,,,,,,,,,,,,,,,,,,,,,,,,,,,,,,,,,,,,,
,,5c5493207f5e0c000143e96e,65af5575928510ff1336ce44,2024-01-23_07h00.53.074,bars,2023.2.3,Linux x86_64,59.88023952,657b66ea316d21385b68909f,,,,,,,,,,,,,,,,,,,,,,,,,,,,,,,,,,,,,,,,,,494.3677,494.7671,right,0.3854,,494.7672,0,2,495.7672,0,19,19,19,1,8,0,7,0,,,,,,,,,,,,,,,,,,,,,,,,,,,,,,,,,,,,,,,,,
,,5c5493207f5e0c000143e96e,65af5575928510ff1336ce44,2024-01-23_07h00.53.074,bars,2023.2.3,Linux x86_64,59.88023952,657b66ea316d21385b68909f,,,,,,,,,,,,,,,,,,,,,,,,,,,,,,,,,,,,,,,,,,,,,,,,,,,,,,,,,,,,495.7684,508.4352,space,12.6474,0.0002,,,,,,,,,,,,,,,,,,,,,,,,,,,,,,,,,,,,
,,5c5493207f5e0c000143e96e,65af5575928510ff1336ce44,2024-01-23_07h00.53.074,bars,2023.2.3,Linux x86_64,59.88023952,657b66ea316d21385b68909f,,,,,,,,,,,510.2407,511.2342,,,511.7345,511.9848,,36,36,,,,,,,,,,,,,,,,bars/000.png,bars/mask009.png,,,,,,,,,,,,3,1,,,,,,,5,5,4,5,,,,,,508.4474,510.2359,space,1.7798,,511.2345,511.7344,511.9851,522.2533,space,10.2593,,522.2538,4,71,523.252,523.2524,538.5027,space,15.2317,0.0003,0,0,0,0,1,40,145,,,,,,,,
,,5c5493207f5e0c000143e96e,65af5575928510ff1336ce44,2024-01-23_07h00.53.074,bars,2023.2.3,Linux x86_64,59.88023952,657b66ea316d21385b68909f,,,,,,,,,,,538.513,539.5026,,,540.0021,540.2524,,34,34,,,,,,,,,,,,,,,,bars/043.png,bars/mask007.png,,,,,,,,,,,,2,1,,,,,,,3,3,2,2,,,,,,,,,,,539.5027,540.0021,540.2525,550.6526,space,10.3895,,550.6528,4,84,551.6525,551.6525,564.4529,space,12.7839,0.0003,0,1,1,1,1,30,130,,,,,,,,
,,5c5493207f5e0c000143e96e,65af5575928510ff1336ce44,2024-01-23_07h00.53.074,bars,2023.2.3,Linux x86_64,59.88023952,657b66ea316d21385b68909f,,,,,,,,,,,564.4645,565.4528,,,565.9528,566.2023,,35,35,,,,,,,,,,,,,,,,bars/003.png,bars/mask008.png,,,,,,,,,,,,4,1,,,,,,,5,1,6,1,,,,,,,,,,,565.4529,565.9528,566.2024,577.6532,space,11.4369,,577.6534,10,75,578.6536,578.6537,581.9207,space,3.2382,0.0003,0,2,2,2,1,25,140,,,,,,,,
,,5c5493207f5e0c000143e96e,65af5575928510ff1336ce44,2024-01-23_07h00.53.074,bars,2023.2.3,Linux x86_64,59.88023952,657b66ea316d21385b68909f,,,,,,,,,,,581.9214,582.9203,,,583.4195,583.6704,,25,205,,,,,,,,,,,,,,,,bars/023.png,bars/mask004.png,,,,,,,,,,,,4,1,,,,,,,3,3,5,4,,,,,,,,,,,582.9203,583.4195,583.6705,592.5037,space,8.8212,,592.5038,5,90,593.5037,593.5037,597.1199,space,3.5942,0.0001,0,3,3,3,1,20,115,,,,,,,,
,,5c5493207f5e0c000143e96e,65af5575928510ff1336ce44,2024-01-23_07h00.53.074,bars,2023.2.3,Linux x86_64,59.88023952,657b66ea316d21385b68909f,,,,,,,,,,,597.1204,598.1206,,,598.6204,598.8699,,127,-53,,,,,,,,,,,,,,,,bars/040.png,bars/mask008.png,,,,,,,,,,,,1,1,,,,,,,1,5,1,5,,,,,,,,,,,598.1206,598.6203,598.8699,609.3376,space,10.4494,,609.3377,13,58,610.3374,610.3375,615.2718,space,4.9065,0.0002,0,4,4,4,1,140,5,,,,,,,,
,,5c5493207f5e0c000143e96e,65af5575928510ff1336ce44,2024-01-23_07h00.53.074,bars,2023.2.3,Linux x86_64,59.88023952,657b66ea316d21385b68909f,,,,,,,,,,,615.2814,616.2702,,,616.7717,617.0205,,157,157,,,,,,,,,,,,,,,,bars/007.png,bars/mask001.png,,,,,,,,,,,,0,1,,,,,,,0,3,0,2,,,,,,,,,,,616.2703,616.7716,617.0205,623.6878,space,6.6569,,623.6879,18,78,624.6878,624.6881,628.3545,space,3.6476,0.0006,0,5,5,5,1,175,55,,,,,,,,
,,5c5493207f5e0c000143e96e,65af5575928510ff1336ce44,2024-01-23_07h00.53.074,bars,2023.2.3,Linux x86_64,59.88023952,657b66ea316d21385b68909f,,,,,,,,,,,628.3638,629.3547,,,629.8544,630.1041,,52,52,,,,,,,,,,,,,,,,bars/013.png,bars/mask003.png,,,,,,,,,,,,1,1,,,,,,,2,1,3,1,,,,,,,,,,,629.3547,629.8543,630.1043,638.4548,space,8.335,,638.4548,23,42,639.4547,639.4548,644.3885,space,4.9065,0.0001,0,6,6,6,1,75,10,,,,,,,,
,,5c5493207f5e0c000143e96e,65af5575928510ff1336ce44,2024-01-23_07h00.53.074,bars,2023.2.3,Linux x86_64,59.88023952,657b66ea316d21385b68909f,,,,,,,,,,,644.3987,645.3878,,,645.8885,646.1378,,91,91,,,,,,,,,,,,,,,,bars/008.png,bars/mask001.png,,,,,,,,,,,,2,1,,,,,,,4,3,5,3,,,,,,,,,,,645.3879,645.8883,646.1379,653.5221,space,7.3734,,653.5221,19,89,654.5214,654.5215,659.9552,space,5.4024,0.0003,0,7,7,7,1,110,0,,,,,,,,
,,5c5493207f5e0c000143e96e,65af5575928510ff1336ce44,2024-01-23_07h00.53.074,bars,2023.2.3,Linux x86_64,59.88023952,657b66ea316d21385b68909f,,,,,,,,,,,659.9648,660.9551,,,661.4548,661.7053,,93,93,,,,,,,,,,,,,,,,bars/012.png,bars/mask003.png,,,,,,,,,,,,1,1,,,,,,,2,5,1,6,,,,,,,,,,,660.9551,661.4547,661.7053,669.189,space,7.4698,,669.1891,3,78,670.1888,670.1889,673.1886,space,2.9727,0.0003,0,8,8,8,1,90,15,,,,,,,,
,,5c5493207f5e0c000143e96e,65af5575928510ff1336ce44,2024-01-23_07h00.53.074,bars,2023.2.3,Linux x86_64,59.88023952,657b66ea316d21385b68909f,,,,,,,,,,,673.1893,674.189,,,674.6888,674.9392,,110,110,,,,,,,,,,,,,,,,bars/001.png,bars/mask008.png,,,,,,,,,,,,1,1,,,,,,,4,3,4,4,,,,,,,,,,,674.189,674.6887,674.9392,684.9393,space,9.9814,,684.9394,20,25,685.9387,685.9388,699.7892,space,13.8165,0.0001,0,9,9,9,1,130,85,,,,,,,,
,,5c5493207f5e0c000143e96e,65af5575928510ff1336ce44,2024-01-23_07h00.53.074,bars,2023.2.3,Linux x86_64,59.88023952,657b66ea316d21385b68909f,,,,,,,,,,,699.7994,700.7894,,,701.2893,701.539,,0,0,,,,,,,,,,,,,,,,bars/039.png,bars/mask000.png,,,,,,,,,,,,3,1,,,,,,,2,5,3,5,,,,,,,,,,,700.7894,701.2892,701.5392,706.6729,space,5.1205,,706.6729,5,75,707.6722,707.6723,711.2064,space,3.5035,0.0002,0,10,10,10,1,175,105,,,,,,,,
,,5c5493207f5e0c000143e96e,65af5575928510ff1336ce44,2024-01-23_07h00.53.074,bars,2023.2.3,Linux x86_64,59.88023952,657b66ea316d21385b68909f,,,,,,,,,,,711.2163,712.2057,,,712.706,712.956,,95,95,,,,,,,,,,,,,,,,bars/025.png,bars/mask002.png,,,,,,,,,,,,0,1,,,,,,,0,7,0,6,,,,,,,,,,,712.2058,712.7059,712.956,718.6396,space,5.6708,,718.6396,10,55,719.6394,719.6394,722.1896,space,2.5201,0.0084,0,11,11,11,1,105,40,,,,,,,,
,,5c5493207f5e0c000143e96e,65af5575928510ff1336ce44,2024-01-23_07h00.53.074,bars,2023.2.3,Linux x86_64,59.88023952,657b66ea316d21385b68909f,,,,,,,,,,,722.1992,723.1891,,,723.6901,723.9397,,49,229,,,,,,,,,,,,,,,,bars/035.png,bars/mask008.png,,,,,,,,,,,,5,2,,,,,,,0,9,0,8,,,,,,,,,,,723.1891,723.69,723.9397,731.9066,space,7.9625,,731.9067,54,11,732.9072,732.9072,737.8903,space,4.9578,0.0003,0,12,12,12,1,175,60,,,,,,,,
,,5c5493207f5e0c000143e96e,65af5575928510ff1336ce44,2024-01-23_07h00.53.074,bars,2023.2.3,Linux x86_64,59.88023952,657b66ea316d21385b68909f,,,,,,,,,,,737.9002,738.8899,,,739.3897,739.6401,,96,96,,,,,,,,,,,,,,,,bars/019.png,bars/mask000.png,,,,,,,,,,,,5,2,,,,,,,2,7,3,7,,,,,,,,,,,738.89,739.3897,739.6403,745.1063,space,5.4509,,745.1064,51,9,746.1064,746.1064,750.8903,space,4.7615,,0,13,13,13,1,45,105,,,,,,,,
,,5c5493207f5e0c000143e96e,65af5575928510ff1336ce44,2024-01-23_07h00.53.074,bars,2023.2.3,Linux x86_64,59.88023952,657b66ea316d21385b68909f,,,,,,,,,,,750.9012,751.8902,,,752.3902,752.6401,,35,35,,,,,,,,,,,,,,,,bars/035.png,bars/mask006.png,,,,,,,,,,,,2,2,,,,,,,0,9,0,10,,,,,,,,,,,751.8902,752.3902,752.6402,756.941,space,4.2826,,756.9411,40,25,757.9405,757.9405,760.8413,space,2.8686,,0,14,14,14,1,175,60,,,,,,,,
,,5c5493207f5e0c000143e96e,65af5575928510ff1336ce44,2024-01-23_07h00.53.074,bars,2023.2.3,Linux x86_64,59.88023952,657b66ea316d21385b68909f,,,,,,,,,,,760.8419,761.8416,,,762.3407,762.5909,,39,39,,,,,,,,,,,,,,,,bars/026.png,bars/mask008.png,,,,,,,,,,,,1,1,,,,,,,0,7,1,7,,,,,,,,,,,761.8416,762.3406,762.5911,767.424,space,4.8176,,767.4241,4,46,768.4233,768.4234,771.4071,space,2.9674,0.0004,0,15,15,15,1,35,85,,,,,,,,
,,5c5493207f5e0c000143e96e,65af5575928510ff1336ce44,2024-01-23_07h00.53.074,bars,2023.2.3,Linux x86_64,59.88023952,657b66ea316d21385b68909f,,,,,,,,,,,771.4177,772.4073,,,772.9073,773.1576,,40,40,,,,,,,,,,,,,,,,bars/035.png,bars/mask006.png,,,,,,,,,,,,2,2,,,,,,,0,9,2,6,,,,,,,,,,,772.4074,772.9073,773.1576,778.0906,space,4.9163,,778.0907,45,20,779.0908,779.0908,781.4908,space,2.3739,,0,16,16,16,1,175,60,,,,,,,,
,,5c5493207f5e0c000143e96e,65af5575928510ff1336ce44,2024-01-23_07h00.53.074,bars,2023.2.3,Linux x86_64,59.88023952,657b66ea316d21385b68909f,,,,,,,,,,,781.4915,782.4902,,,782.9905,783.2406,,13,193,,,,,,,,,,,,,,,,bars/024.png,bars/mask006.png,,,,,,,,,,,,2,2,,,,,,,2,7,2,7,,,,,,,,,,,782.4903,782.9903,783.2406,788.7908,space,5.5422,,788.7909,73,23,789.7904,789.7904,792.8407,space,3.0277,0.0003,0,17,17,17,1,120,170,,,,,,,,
,,5c5493207f5e0c000143e96e,65af5575928510ff1336ce44,2024-01-23_07h00.53.074,bars,2023.2.3,Linux x86_64,59.88023952,657b66ea316d21385b68909f,,,,,,,,,,,792.8413,793.841,,,794.3405,794.5903,,94,-86,,,,,,,,,,,,,,,,bars/026.png,bars/mask004.png,,,,,,,,,,,,3,2,,,,,,,0,5,0,4,,,,,,,,,,,793.8411,794.3404,794.5903,806.0243,space,11.4238,,806.0245,59,9,807.0243,807.0244,809.8414,space,2.7954,0.0002,0,18,18,18,1,35,85,,,,,,,,
,,5c5493207f5e0c000143e96e,65af5575928510ff1336ce44,2024-01-23_07h00.53.074,bars,2023.2.3,Linux x86_64,59.88023952,657b66ea316d21385b68909f,,,,,,,,,,,809.8418,810.8413,,,811.3407,811.5912,,82,82,,,,,,,,,,,,,,,,bars/047.png,bars/mask002.png,,,,,,,,,,,,5,2,,,,,,,2,7,1,8,,,,,,,,,,,810.8414,811.3406,811.5913,819.8915,space,8.2872,,819.8915,67,12,820.8912,820.8913,826.592,space,5.6742,0.0058,0,19,19,19,1,15,70,,,,,,,,
,,5c5493207f5e0c000143e96e,65af5575928510ff1336ce44,2024-01-23_07h00.53.074,bars,2023.2.3,Linux x86_64,59.88023952,657b66ea316d21385b68909f,,,,,,,,,,,826.6021,827.5918,,,828.092,828.3416,,86,266,,,,,,,,,,,,,,,,bars/038.png,bars/mask004.png,,,,,,,,,,,,2,2,,,,,,,0,5,0,5,,,,,,,,,,,827.5919,828.0919,828.3417,837.0749,space,8.7249,,837.075,79,16,838.0745,838.0746,841.3087,space,3.2088,0.0001,0,20,20,20,1,165,70,,,,,,,,
,,5c5493207f5e0c000143e96e,65af5575928510ff1336ce44,2024-01-23_07h00.53.074,bars,2023.2.3,Linux x86_64,59.88023952,657b66ea316d21385b68909f,,,,,,,,,,,841.3092,842.3087,,,842.8081,843.0582,,92,92,,,,,,,,,,,,,,,,bars/002.png,bars/mask009.png,,,,,,,,,,,,3,2,,,,,,,2,3,2,4,,,,,,,,,,,842.3087,842.808,843.0583,851.0754,space,8.0043,,851.0755,38,7,852.0749,852.0749,854.6757,space,2.5732,0.0002,0,21,21,21,1,130,85,,,,,,,,
,,5c5493207f5e0c000143e96e,65af5575928510ff1336ce44,2024-01-23_07h00.53.074,bars,2023.2.3,Linux x86_64,59.88023952,657b66ea316d21385b68909f,,,,,,,,,,,854.6858,855.6746,,,856.175,856.4254,,85,85,,,,,,,,,,,,,,,,bars/026.png,bars/mask009.png,,,,,,,,,,,,4,2,,,,,,,4,5,3,4,,,,,,,,,,,855.6747,856.1749,856.4254,862.8255,space,6.3854,,862.8256,50,0,863.8248,863.8248,865.7753,space,1.9354,,0,22,22,22,1,35,85,,,,,,,,
,,5c5493207f5e0c000143e96e,65af5575928510ff1336ce44,2024-01-23_07h00.53.074,bars,2023.2.3,Linux x86_64,59.88023952,657b66ea316d21385b68909f,,,,,,,,,,,865.7759,866.7757,,,867.2754,867.5256,,177,-3,,,,,,,,,,,,,,,,bars/024.png,bars/mask001.png,,,,,,,,,,,,2,2,,,,,,,6,3,5,2,,,,,,,,,,,866.7761,867.2753,867.5257,872.6754,space,5.1347,,872.6755,57,7,873.6758,873.6759,875.9916,space,2.2905,0.0002,0,23,23,23,1,120,170,,,,,,,,
,,5c5493207f5e0c000143e96e,65af5575928510ff1336ce44,2024-01-23_07h00.53.074,bars,2023.2.3,Linux x86_64,59.88023952,657b66ea316d21385b68909f,,,,,,,,,,,875.9922,876.9923,,,877.4922,877.7419,,89,89,,,,,,,,,,,,,,,,bars/037.png,bars/mask009.png,,,,,,,,,,,,1,2,,,,,,,4,1,4,3,,,,,,,,,,,876.9923,877.4921,877.7419,883.9754,space,6.2183,,883.9755,61,16,884.9753,884.9753,885.5925,space,0.5876,,0,24,24,24,1,150,105,,,,,,,,
,,5c5493207f5e0c000143e96e,65af5575928510ff1336ce44,2024-01-23_07h00.53.074,bars,2023.2.3,Linux x86_64,59.88023952,657b66ea316d21385b68909f,,,,,,,,,,,885.5929,886.5918,,,887.0921,887.3425,,7,7,,,,,,,,,,,,,,,,bars/036.png,bars/mask000.png,,,,,,,,,,,,0,2,,,,,,,2,0,1,0,,,,,,,,,,,886.5918,887.0921,887.3426,893.4593,space,6.1093,,893.4593,42,13,894.4588,894.4589,894.8594,space,0.3772,,0,25,25,25,1,145,20,,,,,,,,
,,5c5493207f5e0c000143e96e,65af5575928510ff1336ce44,2024-01-23_07h00.53.074,bars,2023.2.3,Linux x86_64,59.88023952,657b66ea316d21385b68909f,,,,,,,,,,,894.8598,895.8592,,,896.3586,896.6092,,147,-33,,,,,,,,,,,,,,,,bars/028.png,bars/mask004.png,,,,,,,,,,,,0,2,,,,,,,0,0,1,1,,,,,,,,,,,895.8592,896.3586,896.6094,903.3589,space,6.7437,,903.359,78,27,904.3594,904.3595,905.4429,space,1.0486,,0,26,26,26,1,45,120,,,,,,,,
,,5c5493207f5e0c000143e96e,65af5575928510ff1336ce44,2024-01-23_07h00.53.074,bars,2023.2.3,Linux x86_64,59.88023952,657b66ea316d21385b68909f,,,,,,,,,,,905.4436,906.4422,,,906.9427,907.1921,,47,47,,,,,,,,,,,,,,,,bars/028.png,bars/mask009.png,,,,,,,,,,,,1,1,,,,,,,0,0,1,0,,,,,,,,,,,906.4423,906.9427,907.1921,914.6601,space,7.4559,,914.6604,2,73,915.6589,915.6589,918.6087,space,2.9325,0.0002,0,27,27,27,1,45,120,,,,,,,,
,,5c5493207f5e0c000143e96e,65af5575928510ff1336ce44,2024-01-23_07h00.53.074,bars,2023.2.3,Linux x86_64,59.88023952,657b66ea316d21385b68909f,,,,,,,,,,,918.6183,919.6096,,,920.1098,920.3593,,167,-13,,,,,,,,,,,,,,,,bars/016.png,bars/mask001.png,,,,,,,,,,,,0,2,,,,,,,0,0,0,0,,,,,,,,,,,919.6096,920.1097,920.3594,928.7428,space,8.373,,928.7428,53,2,929.7429,929.743,930.4594,space,0.6847,,0,28,28,28,1,40,165,,,,,,,,
,,5c5493207f5e0c000143e96e,65af5575928510ff1336ce44,2024-01-23_07h00.53.074,bars,2023.2.3,Linux x86_64,59.88023952,657b66ea316d21385b68909f,,,,,,,,,,,930.4598,931.4592,,,931.9595,932.2095,,171,171,,,,,,,,,,,,,,,,bars/032.png,bars/mask001.png,,,,,,,,,,,,0,2,,,,,,,0,2,0,2,,,,,,,,,,,931.4592,931.9595,932.2095,940.5269,space,8.3129,,940.527,46,29,941.5261,941.5263,989.6607,space,48.1116,0.0004,0,29,29,29,1,125,20,,,,,,,,
,,5c5493207f5e0c000143e96e,65af5575928510ff1336ce44,2024-01-23_07h00.53.074,bars,2023.2.3,Linux x86_64,59.88023952,657b66ea316d21385b68909f,,,,,,,,,,,989.6611,990.6599,,,991.1601,991.4099,,63,63,,,,,,,,,,,,,,,,bars/043.png,bars/mask005.png,,,,,,,,,,,,0,1,,,,,,,2,4,3,3,,,,,,,,,,,990.66,991.1601,991.41,997.2271,space,5.8135,,997.2271,33,67,998.2269,998.227,1013.0275,space,14.7696,0.0002,0,30,30,30,1,30,130,,,,,,,,
,,5c5493207f5e0c000143e96e,65af5575928510ff1336ce44,2024-01-23_07h00.53.074,bars,2023.2.3,Linux x86_64,59.88023952,657b66ea316d21385b68909f,,,,,,,,,,,1013.0398,1014.0276,,,1014.5269,1014.7772,,14,14,,,,,,,,,,,,,,,,bars/012.png,bars/mask002.png,,,,,,,,,,,,2,2,,,,,,,4,2,4,2,,,,,,,,,,,1014.0276,1014.5269,1014.7773,1021.5272,space,6.7429,,1021.5273,76,1,1022.527,1022.5271,1023.7944,space,1.2321,,0,31,31,31,1,90,15,,,,,,,,
,,5c5493207f5e0c000143e96e,65af5575928510ff1336ce44,2024-01-23_07h00.53.074,bars,2023.2.3,Linux x86_64,59.88023952,657b66ea316d21385b68909f,,,,,,,,,,,1023.795,1024.7941,,,1025.2938,1025.544,,46,226,,,,,,,,,,,,,,,,bars/031.png,bars/mask001.png,,,,,,,,,,,,3,2,,,,,,,6,4,6,4,,,,,,,,,,,1024.7942,1025.2937,1025.544,1035.8946,space,10.3349,,1035.8947,74,11,1036.8942,1036.8943,1037.9614,space,1.0412,,0,32,32,32,1,120,35,,,,,,,,
,,5c5493207f5e0c000143e96e,65af5575928510ff1336ce44,2024-01-23_07h00.53.074,bars,2023.2.3,Linux x86_64,59.88023952,657b66ea316d21385b68909f,,,,,,,,,,,1037.9619,1038.9609,,,1039.4612,1039.7103,,98,98,,,,,,,,,,,,,,,,bars/002.png,bars/mask004.png,,,,,,,,,,,,3,2,,,,,,,8,6,7,5,,,,,,,,,,,1038.961,1039.4609,1039.7103,1043.9444,space,4.219,,1043.9445,32,13,1044.9437,1044.9437,1064.1781,space,19.2186,0.0003,0,33,33,33,1,130,85,,,,,,,,
,,5c5493207f5e0c000143e96e,65af5575928510ff1336ce44,2024-01-23_07h00.53.074,bars,2023.2.3,Linux x86_64,59.88023952,657b66ea316d21385b68909f,,,,,,,,,,,1064.188,1065.1777,,,1065.6782,1065.9278,,42,42,,,,,,,,,,,,,,,,bars/029.png,bars/mask002.png,,,,,,,,,,,,5,2,,,,,,,6,4,6,5,,,,,,,,,,,1065.1777,1065.6781,1065.9278,1072.1619,space,6.2181,,1072.162,48,3,1073.1611,1073.1612,1074.8114,space,1.62,0.0003,0,34,34,34,1,90,45,,,,,,,,
,,5c5493207f5e0c000143e96e,65af5575928510ff1336ce44,2024-01-23_07h00.53.074,bars,2023.2.3,Linux x86_64,59.88023952,657b66ea316d21385b68909f,,,,,,,,,,,1074.8118,1075.8116,,,1076.311,1076.561,,42,222,,,,,,,,,,,,,,,,bars/007.png,bars/mask006.png,,,,,,,,,,,,2,2,,,,,,,8,2,7,3,,,,,,,,,,,1075.8117,1076.311,1076.5611,1084.845,space,8.2749,,1084.845,47,13,1085.8441,1085.8442,1089.2447,space,3.3836,0.0003,0,35,35,35,1,175,55,,,,,,,,
,,5c5493207f5e0c000143e96e,65af5575928510ff1336ce44,2024-01-23_07h00.53.074,bars,2023.2.3,Linux x86_64,59.88023952,657b66ea316d21385b68909f,,,,,,,,,,,1089.2544,1090.2449,,,1090.7447,1090.9944,,127,127,,,,,,,,,,,,,,,,bars/005.png,bars/mask007.png,,,,,,,,,,,,0,2,,,,,,,6,0,7,0,,,,,,,,,,,1090.2449,1090.7445,1090.9944,1100.7783,space,9.7743,,1100.7783,63,13,1101.7785,1101.7786,1102.8116,space,1.0076,,0,36,36,36,1,10,140,,,,,,,,
,,5c5493207f5e0c000143e96e,65af5575928510ff1336ce44,2024-01-23_07h00.53.074,bars,2023.2.3,Linux x86_64,59.88023952,657b66ea316d21385b68909f,,,,,,,,,,,1102.8121,1103.8112,,,1104.3111,1104.5621,,43,43,,,,,,,,,,,,,,,,bars/029.png,bars/mask009.png,,,,,,,,,,,,1,2,,,,,,,4,2,3,1,,,,,,,,,,,1103.8112,1104.3111,1104.5621,1109.1452,space,4.5748,,1109.1453,47,2,1110.1447,1110.1447,1110.595,space,0.4205,,0,37,37,37,1,90,45,,,,,,,,
,,5c5493207f5e0c000143e96e,65af5575928510ff1336ce44,2024-01-23_07h00.53.074,bars,2023.2.3,Linux x86_64,59.88023952,657b66ea316d21385b68909f,,,,,,,,,,,1110.5955,1111.5952,,,1112.0949,1112.3451,,125,125,,,,,,,,,,,,,,,,bars/024.png,bars/mask008.png,,,,,,,,,,,,1,1,,,,,,,2,4,1,4,,,,,,,,,,,1111.5952,1112.0949,1112.3451,1118.3285,space,5.9728,,1118.3286,5,45,1119.3283,1119.3283,1120.4954,space,1.135,,0,38,38,38,1,120,170,,,,,,,,
,,5c5493207f5e0c000143e96e,65af5575928510ff1336ce44,2024-01-23_07h00.53.074,bars,2023.2.3,Linux x86_64,59.88023952,657b66ea316d21385b68909f,,,,,,,,,,,1120.4959,1121.4952,,,1121.9948,1122.2445,,172,-8,,,,,,,,,,,,,,,,bars/020.png,bars/mask003.png,,,,,,,,,,,,6,2,,,,,,,4,6,4,6,,,,,,,,,,,1121.4953,1121.9947,1122.2445,1129.3117,space,7.0534,,1129.3119,57,2,1130.312,1130.312,1213.9959,space,83.6561,0.0002,0,39,39,39,1,115,170,,,,,,,,
,,5c5493207f5e0c000143e96e,65af5575928510ff1336ce44,2024-01-23_07h00.53.074,bars,2023.2.3,Linux x86_64,59.88023952,657b66ea316d21385b68909f,,,,,,,,,,,1214.0058,1214.9964,,,1215.4961,1215.7462,,149,149,,,,,,,,,,,,,,,,bars/043.png,bars/mask003.png,,,,,,,,,,,,1,2,,,,,,,2,4,2,2,,,,,,,,,,,1214.9964,1215.4961,1215.7463,1226.2469,space,10.4835,,1226.2469,61,19,1227.2456,1227.2458,1230.5466,space,3.2757,0.0002,0,40,40,40,1,30,130,,,,,,,,
,,5c5493207f5e0c000143e96e,65af5575928510ff1336ce44,2024-01-23_07h00.53.074,bars,2023.2.3,Linux x86_64,59.88023952,657b66ea316d21385b68909f,,,,,,,,,,,1230.5472,1231.5467,,,1232.046,1232.2966,,11,191,,,,,,,,,,,,,,,,bars/016.png,bars/mask003.png,,,,,,,,,,,,0,2,,,,,,,4,2,7,2,,,,,,,,,,,1231.5467,1232.0459,1232.2967,1241.6303,space,9.3196,,1241.6304,29,26,1242.6291,1242.6292,1245.1296,space,2.4694,0.0002,0,41,41,41,1,40,165,,,,,,,,
,,5c5493207f5e0c000143e96e,65af5575928510ff1336ce44,2024-01-23_07h00.53.074,bars,2023.2.3,Linux x86_64,59.88023952,657b66ea316d21385b68909f,,,,,,,,,,,1245.1304,1246.1297,,,1246.6301,1246.8806,,109,109,,,,,,,,,,,,,,,,bars/028.png,bars/mask000.png,,,,,,,,,,,,3,2,,,,,,,6,4,7,5,,,,,,,,,,,1246.1297,1246.63,1246.8808,1252.5629,space,5.6708,,1252.5629,64,11,1253.5634,1253.5636,1255.7968,space,2.2057,0.0001,0,42,42,42,1,45,120,,,,,,,,
,,5c5493207f5e0c000143e96e,65af5575928510ff1336ce44,2024-01-23_07h00.53.074,bars,2023.2.3,Linux x86_64,59.88023952,657b66ea316d21385b68909f,,,,,,,,,,,1255.7979,1256.7967,,,1257.2961,1257.5474,,178,178,,,,,,,,,,,,,,,,bars/022.png,bars/mask008.png,,,,,,,,,,,,1,2,,,,,,,4,2,4,3,,,,,,,,,,,1256.7968,1257.296,1257.5474,1259.4473,space,1.8824,0.0003,1259.4473,83,22,1260.4461,1260.4462,1261.8799,space,1.4185,,0,43,43,43,1,95,20,,,,,,,,
,,5c5493207f5e0c000143e96e,65af5575928510ff1336ce44,2024-01-23_07h00.53.074,bars,2023.2.3,Linux x86_64,59.88023952,657b66ea316d21385b68909f,,,,,,,,,,,1261.881,1262.8795,,,1263.3798,1263.6298,,105,105,,,,,,,,,,,,,,,,bars/023.png,bars/mask003.png,,,,,,,,,,,,1,2,,,,,,,6,0,5,1,,,,,,,,,,,1262.8796,1263.3798,1263.6298,1268.3963,space,4.7602,,1268.3964,85,10,1269.3976,1269.3977,1270.6137,space,1.1852,,0,44,44,44,1,20,115,,,,,,,,
,,5c5493207f5e0c000143e96e,65af5575928510ff1336ce44,2024-01-23_07h00.53.074,bars,2023.2.3,Linux x86_64,59.88023952,657b66ea316d21385b68909f,,,,,,,,,,,1270.6143,1271.6129,,,1272.1139,1272.3635,,109,109,,,,,,,,,,,,,,,,bars/037.png,bars/mask000.png,,,,,,,,,,,,0,2,,,,,,,4,0,3,0,,,,,,,,,,,1271.6129,1272.1136,1272.3635,1277.4965,space,5.1173,,1277.4966,41,4,1278.4963,1278.4963,1279.8802,space,1.358,,0,45,45,45,1,150,105,,,,,,,,
,,5c5493207f5e0c000143e96e,65af5575928510ff1336ce44,2024-01-23_07h00.53.074,bars,2023.2.3,Linux x86_64,59.88023952,657b66ea316d21385b68909f,,,,,,,,,,,1279.8809,1280.8796,,,1281.3796,1281.6305,,35,215,,,,,,,,,,,,,,,,bars/005.png,bars/mask003.png,,,,,,,,,,,,1,1,,,,,,,6,2,6,1,,,,,,,,,,,1280.8797,1281.3796,1281.6305,1287.8474,space,6.2015,,1287.8474,25,75,1288.8471,1288.8472,1291.1643,space,2.3001,,0,46,46,46,1,10,140,,,,,,,,
,,5c5493207f5e0c000143e96e,65af5575928510ff1336ce44,2024-01-23_07h00.53.074,bars,2023.2.3,Linux x86_64,59.88023952,657b66ea316d21385b68909f,,,,,,,,,,,1291.1648,1292.1638,,,1292.6639,1292.9131,,47,47,,,,,,,,,,,,,,,,bars/004.png,bars/mask006.png,,,,,,,,,,,,1,1,,,,,,,4,4,3,5,,,,,,,,,,,1292.1638,1292.6638,1292.9131,1299.2303,space,6.3038,,1299.2305,22,78,1300.2303,1300.2303,1300.9307,space,0.6845,,0,47,47,47,1,25,125,,,,,,,,
,,5c5493207f5e0c000143e96e,65af5575928510ff1336ce44,2024-01-23_07h00.53.074,bars,2023.2.3,Linux x86_64,59.88023952,657b66ea316d21385b68909f,,,,,,,,,,,1300.9313,1301.9298,,,1302.4299,1302.68,,99,99,,,,,,,,,,,,,,,,bars/022.png,bars/mask009.png,,,,,,,,,,,,2,1,,,,,,,2,2,2,3,,,,,,,,,,,1301.9299,1302.4299,1302.68,1307.3306,space,4.6363,,1307.3307,4,79,1308.3304,1308.3304,1309.9803,space,1.6282,0.0002,0,48,48,48,1,95,20,,,,,,,,
,,5c5493207f5e0c000143e96e,65af5575928510ff1336ce44,2024-01-23_07h00.53.074,bars,2023.2.3,Linux x86_64,59.88023952,657b66ea316d21385b68909f,,,,,,,,,,,1309.9809,1310.9802,,,1311.4805,1311.7305,,100,100,,,,,,,,,,,,,,,,bars/019.png,bars/mask007.png,,,,,,,,,,,,0,2,,,,,,,0,0,0,0,,,,,,,,,,,1310.9803,1311.4804,1311.7305,1317.3137,space,5.5773,,1317.3138,55,5,1318.3141,1318.3142,1319.0815,space,0.7415,,0,49,49,49,1,45,105,,,,,,,,
,,5c5493207f5e0c000143e96e,65af5575928510ff1336ce44,2024-01-23_07h00.53.074,bars,2023.2.3,Linux x86_64,59.88023952,657b66ea316d21385b68909f,,,,,,,,,,,,,,,,,,,,,,,,,,,,,,,,,,,,,,,,,,,,,,,,,,,,,,,,,,,,,,,,,,,,,,,,,,,,,,,,,,,,,,,,,,,,,1319.0827,1379.0816,0,0,0,2,1,sequence_tables/blk014.csv
,,5c5493207f5e0c000143e96e,65af5575928510ff1336ce44,2024-01-23_07h00.53.074,bars,2023.2.3,Linux x86_64,59.88023952,657b66ea316d21385b68909f,,,,,,,,,,,1411.9137,1412.9145,,,1413.4147,1413.6644,,103,103,,,,,,,,,,,,,,,,bars/028.png,bars/mask003.png,,,,,,,,,,,,3,2,,,,,,,2,7,4,8,,,,,,1379.0937,1411.8984,space,32.7974,0.0008,1412.9146,1413.4146,1413.6644,1419.6483,space,5.972,,1419.6486,58,17,1420.6481,1420.6481,1420.6581,,,,0,0,0,0,1,45,120,,,,,,,,
,,5c5493207f5e0c000143e96e,65af5575928510ff1336ce44,2024-01-23_07h00.53.074,bars,2023.2.3,Linux x86_64,59.88023952,657b66ea316d21385b68909f,,,,,,,,,,,1420.6584,1421.6485,,,1422.1478,1422.3983,,174,174,,,,,,,,,,,,,,,,bars/044.png,bars/mask000.png,,,,,,,,,,,,2,2,,,,,,,4,5,3,5,,,,,,,,,,,1421.6485,1422.1477,1422.3984,1427.2149,space,4.7999,,1427.215,81,19,1428.215,1428.2151,1428.2255,,,,0,1,1,1,1,75,155,,,,,,,,
,,5c5493207f5e0c000143e96e,65af5575928510ff1336ce44,2024-01-23_07h00.53.074,bars,2023.2.3,Linux x86_64,59.88023952,657b66ea316d21385b68909f,,,,,,,,,,,1428.2257,1429.2154,,,1429.7145,1429.9643,,166,166,,,,,,,,,,,,,,,,bars/020.png,bars/mask003.png,,,,,,,,,,,,7,2,,,,,,,6,7,7,8,,,,,,,,,,,1429.2155,1429.7144,1429.9643,1438.5486,space,8.5748,,1438.5487,51,4,1439.5479,1439.548,1439.5609,,,,0,2,2,2,1,115,170,,,,,,,,
,,5c5493207f5e0c000143e96e,65af5575928510ff1336ce44,2024-01-23_07h00.53.074,bars,2023.2.3,Linux x86_64,59.88023952,657b66ea316d21385b68909f,,,,,,,,,,,1439.5611,1440.565,,,1441.0651,1441.3152,,104,104,,,,,,,,,,,,,,,,bars/026.png,bars/mask002.png,,,,,,,,,,,,2,2,,,,,,,8,5,7,5,,,,,,,,,,,1440.565,1441.0651,1441.3152,1448.5817,space,7.2555,,1448.5819,69,19,1449.5817,1449.5818,1449.5928,,,,0,3,3,3,1,35,85,,,,,,,,
,,5c5493207f5e0c000143e96e,65af5575928510ff1336ce44,2024-01-23_07h00.53.074,bars,2023.2.3,Linux x86_64,59.88023952,657b66ea316d21385b68909f,,,,,,,,,,,1449.593,1450.582,,,1451.0815,1451.332,,93,93,,,,,,,,,,,,,,,,bars/002.png,bars/mask009.png,,,,,,,,,,,,1,2,,,,,,,6,3,6,2,,,,,,,,,,,1450.582,1451.0814,1451.332,1456.2823,space,4.9323,,1456.2824,37,8,1457.2813,1457.2814,1457.2915,,,,0,4,4,4,1,130,85,,,,,,,,
,,5c5493207f5e0c000143e96e,65af5575928510ff1336ce44,2024-01-23_07h00.53.074,bars,2023.2.3,Linux x86_64,59.88023952,657b66ea316d21385b68909f,,,,,,,,,,,1457.2917,1458.2815,,,1458.782,1459.0314,,38,38,,,,,,,,,,,,,,,,bars/036.png,bars/mask009.png,,,,,,,,,,,,2,2,,,,,,,4,5,4,6,,,,,,,,,,,1458.2815,1458.782,1459.0315,1466.3653,space,7.3205,,1466.3653,73,18,1467.3653,1467.3654,1467.3755,,,,0,5,5,5,1,145,20,,,,,,,,
,,5c5493207f5e0c000143e96e,65af5575928510ff1336ce44,2024-01-23_07h00.53.074,bars,2023.2.3,Linux x86_64,59.88023952,657b66ea316d21385b68909f,,,,,,,,,,,1467.3758,1468.3656,,,1468.865,1469.1155,,17,17,,,,,,,,,,,,,,,,bars/013.png,bars/mask007.png,,,,,,,,,,,,2,2,,,,,,,2,3,3,3,,,,,,,,,,,1468.3657,1468.865,1469.1156,1475.0823,space,5.9606,,1475.0824,58,7,1476.0819,1476.0819,1476.0922,,,,0,6,6,6,1,75,10,,,,,,,,
,,5c5493207f5e0c000143e96e,65af5575928510ff1336ce44,2024-01-23_07h00.53.074,bars,2023.2.3,Linux x86_64,59.88023952,657b66ea316d21385b68909f,,,,,,,,,,,1476.0924,1477.0814,,,1477.5819,1477.8315,,84,84,,,,,,,,,,,,,,,,bars/014.png,bars/mask002.png,,,,,,,,,,,,5,1,,,,,,,4,1,6,2,,,,,,,,,,,1477.0814,1477.5819,1477.8315,1487.9498,space,10.1119,,1487.9499,4,84,1488.9487,1488.9487,1488.9612,,,,0,7,7,7,1,80,0,,,,,,,,
,,5c5493207f5e0c000143e96e,65af5575928510ff1336ce44,2024-01-23_07h00.53.074,bars,2023.2.3,Linux x86_64,59.88023952,657b66ea316d21385b68909f,,,,,,,,,,,1488.9616,1489.9653,,,1490.4656,1490.7152,,93,93,,,,,,,,,,,,,,,,bars/022.png,bars/mask005.png,,,,,,,,,,,,5,1,,,,,,,6,3,5,4,,,,,,,,,,,1489.9654,1490.4656,1490.7153,1495.6488,space,4.9266,,1495.6488,2,73,1496.6484,1496.6484,1496.6587,,,,0,8,8,8,1,95,20,,,,,,,,
,,5c5493207f5e0c000143e96e,65af5575928510ff1336ce44,2024-01-23_07h00.53.074,bars,2023.2.3,Linux x86_64,59.88023952,657b66ea316d21385b68909f,,,,,,,,,,,1496.6589,1497.6485,,,1498.1484,1498.3988,,16,16,,,,,,,,,,,,,,,,bars/047.png,bars/mask007.png,,,,,,,,,,,,7,1,,,,,,,8,5,7,5,,,,,,,,,,,1497.6485,1498.1483,1498.3988,1505.5995,space,7.1887,,1505.5997,1,54,1506.5991,1506.5991,1506.6098,,,,0,9,9,9,1,15,70,,,,,,,,
,,5c5493207f5e0c000143e96e,65af5575928510ff1336ce44,2024-01-23_07h00.53.074,bars,2023.2.3,Linux x86_64,59.88023952,657b66ea316d21385b68909f,,,,,,,,,,,1506.61,1507.5984,,,1508.0991,1508.3484,,10,190,,,,,,,,,,,,,,,,bars/014.png,bars/mask001.png,,,,,,,,,,,,3,2,,,,,,,10,3,10,4,,,,,,,,,,,1507.5985,1508.0991,1508.3484,1513.699,space,5.3359,,1513.699,70,10,1514.6983,1514.6985,1514.7094,,,,0,10,10,10,1,80,0,,,,,,,,
,,5c5493207f5e0c000143e96e,65af5575928510ff1336ce44,2024-01-23_07h00.53.074,bars,2023.2.3,Linux x86_64,59.88023952,657b66ea316d21385b68909f,,,,,,,,,,,1514.7096,1515.6986,,,1516.1994,1516.4494,,84,84,,,,,,,,,,,,,,,,bars/021.png,bars/mask006.png,,,,,,,,,,,,2,2,,,,,,,10,1,10,4,,,,,,,,,,,1515.6987,1516.1993,1516.4494,1522.2996,space,5.8345,,1522.2997,71,14,1523.2985,1523.2985,1523.3095,,,,0,11,11,11,1,155,70,,,,,,,,
,,5c5493207f5e0c000143e96e,65af5575928510ff1336ce44,2024-01-23_07h00.53.074,bars,2023.2.3,Linux x86_64,59.88023952,657b66ea316d21385b68909f,,,,,,,,,,,1523.3098,1524.2993,,,1524.7987,1525.0494,,31,211,,,,,,,,,,,,,,,,bars/006.png,bars/mask001.png,,,,,,,,,,,,9,1,,,,,,,10,3,10,3,,,,,,,,,,,1524.2993,1524.7986,1525.0494,1532.6836,space,7.6238,,1532.6838,4,69,1533.6824,1533.6825,1533.6949,,,,0,12,12,12,1,35,100,,,,,,,,
,,5c5493207f5e0c000143e96e,65af5575928510ff1336ce44,2024-01-23_07h00.53.074,bars,2023.2.3,Linux x86_64,59.88023952,657b66ea316d21385b68909f,,,,,,,,,,,1533.6952,1534.6998,,,1535.1988,1535.4491,,111,111,,,,,,,,,,,,,,,,bars/025.png,bars/mask001.png,,,,,,,,,,,,5,1,,,,,,,8,5,6,3,,,,,,,,,,,1534.7,1535.1988,1535.4492,1541.1499,space,5.686,,1541.1499,6,71,1542.149,1542.149,1542.1604,,,,0,13,13,13,1,105,40,,,,,,,,
,,5c5493207f5e0c000143e96e,65af5575928510ff1336ce44,2024-01-23_07h00.53.074,bars,2023.2.3,Linux x86_64,59.88023952,657b66ea316d21385b68909f,,,,,,,,,,,1542.1606,1543.1493,,,1543.6489,1543.8994,,129,129,,,,,,,,,,,,,,,,bars/042.png,bars/mask009.png,,,,,,,,,,,,5,1,,,,,,,10,7,10,8,,,,,,,,,,,1543.1494,1543.6488,1543.8994,1552.166,space,8.2515,0.0002,1552.166,16,54,1553.1666,1553.1666,1553.1799,,,,0,14,14,14,1,145,75,,,,,,,,
,,5c5493207f5e0c000143e96e,65af5575928510ff1336ce44,2024-01-23_07h00.53.074,bars,2023.2.3,Linux x86_64,59.88023952,657b66ea316d21385b68909f,,,,,,,,,,,1553.1802,1554.1822,,,1554.6831,1554.9331,,114,114,,,,,,,,,,,,,,,,bars/024.png,bars/mask005.png,,,,,,,,,,,,6,1,,,,,,,8,5,7,4,,,,,,,,,,,1554.1822,1554.683,1554.9332,1562.0329,space,7.0829,,1562.0331,6,56,1563.033,1563.0332,1563.044,,,,0,15,15,15,1,120,170,,,,,,,,
,,5c5493207f5e0c000143e96e,65af5575928510ff1336ce44,2024-01-23_07h00.53.074,bars,2023.2.3,Linux x86_64,59.88023952,657b66ea316d21385b68909f,,,,,,,,,,,1563.0443,1564.0325,,,1564.5332,1564.7824,,91,91,,,,,,,,,,,,,,,,bars/013.png,bars/mask008.png,,,,,,,,,,,,2,1,,,,,,,6,3,5,5,,,,,,,,,,,1564.0326,1564.5332,1564.7824,1572.1501,space,7.3591,,1572.1502,16,81,1573.149,1573.149,1573.1598,,,,0,16,16,16,1,75,10,,,,,,,,
,,5c5493207f5e0c000143e96e,65af5575928510ff1336ce44,2024-01-23_07h00.53.074,bars,2023.2.3,Linux x86_64,59.88023952,657b66ea316d21385b68909f,,,,,,,,,,,1573.1601,1574.15,,,1574.6501,1574.8999,,155,155,,,,,,,,,,,,,,,,bars/015.png,bars/mask001.png,,,,,,,,,,,,4,2,,,,,,,8,5,8,5,,,,,,,,,,,1574.15,1574.6501,1574.9,1586.1498,space,11.2333,,1586.1499,45,5,1587.1496,1587.1496,1587.1616,,,,0,17,17,17,1,110,160,,,,,,,,
,,5c5493207f5e0c000143e96e,65af5575928510ff1336ce44,2024-01-23_07h00.53.074,bars,2023.2.3,Linux x86_64,59.88023952,657b66ea316d21385b68909f,,,,,,,,,,,1587.1619,1588.1667,,,1588.6659,1588.9164,,82,82,,,,,,,,,,,,,,,,bars/042.png,bars/mask006.png,,,,,,,,,,,,2,2,,,,,,,6,3,7,3,,,,,,,,,,,1588.1667,1588.6658,1588.9164,1590.817,space,1.8925,0.0003,1590.8171,63,7,1591.8159,1591.816,1591.8269,,,,0,18,18,18,1,145,75,,,,,,,,
,,5c5493207f5e0c000143e96e,65af5575928510ff1336ce44,2024-01-23_07h00.53.074,bars,2023.2.3,Linux x86_64,59.88023952,657b66ea316d21385b68909f,,,,,,,,,,,1591.8271,1592.8161,,,1593.3161,1593.5666,,12,192,,,,,,,,,,,,,,,,bars/016.png,bars/mask009.png,,,,,,,,,,,,0,2,,,,,,,8,1,9,1,,,,,,,,,,,1592.8162,1593.3161,1593.5667,1598.7499,space,5.1683,,1598.7499,28,27,1599.7496,1599.7496,1599.7621,,,,0,19,19,19,1,40,165,,,,,,,,
,,5c5493207f5e0c000143e96e,65af5575928510ff1336ce44,2024-01-23_07h00.53.074,bars,2023.2.3,Linux x86_64,59.88023952,657b66ea316d21385b68909f,,,,,,,,,,,1599.7623,1600.75,,,1601.2499,1601.4998,,155,155,,,,,,,,,,,,,,,,bars/043.png,bars/mask004.png,,,,,,,,,,,,0,2,,,,,,,10,0,10,0,,,,,,,,,,,1600.75,1601.2498,1601.4999,1605.3998,space,3.8947,,1605.3998,55,25,1606.4002,1606.4002,1606.4109,,,,0,20,20,20,1,30,130,,,,,,,,
,,5c5493207f5e0c000143e96e,65af5575928510ff1336ce44,2024-01-23_07h00.53.074,bars,2023.2.3,Linux x86_64,59.88023952,657b66ea316d21385b68909f,,,,,,,,,,,1606.4111,1607.4001,,,1607.9,1608.1502,,44,44,,,,,,,,,,,,,,,,bars/043.png,bars/mask002.png,,,,,,,,,,,,3,1,,,,,,,8,0,6,0,,,,,,,,,,,1607.4001,1607.9,1608.1503,1616.8845,space,8.718,,1616.8846,14,86,1617.8835,1617.8836,1617.8945,,,,0,21,21,21,1,30,130,,,,,,,,
,,5c5493207f5e0c000143e96e,65af5575928510ff1336ce44,2024-01-23_07h00.53.074,bars,2023.2.3,Linux x86_64,59.88023952,657b66ea316d21385b68909f,,,,,,,,,,,1617.8949,1618.8835,,,1619.3832,1619.6335,,108,108,,,,,,,,,,,,,,,,bars/045.png,bars/mask004.png,,,,,,,,,,,,5,1,,,,,,,6,0,7,0,,,,,,,,,,,1618.8835,1619.3831,1619.6335,1626.9167,space,7.2708,,1626.9167,8,82,1627.9167,1627.9169,1627.9279,,,,0,22,22,22,1,100,10,,,,,,,,
,,5c5493207f5e0c000143e96e,65af5575928510ff1336ce44,2024-01-23_07h00.53.074,bars,2023.2.3,Linux x86_64,59.88023952,657b66ea316d21385b68909f,,,,,,,,,,,1627.9281,1628.9172,,,1629.4163,1629.6666,,159,159,,,,,,,,,,,,,,,,bars/021.png,bars/mask001.png,,,,,,,,,,,,2,1,,,,,,,4,2,2,1,,,,,,,,,,,1628.9173,1629.4163,1629.6667,1636.3173,space,6.6413,,1636.3174,4,89,1637.3167,1637.3167,1637.3279,,,,0,23,23,23,1,155,70,,,,,,,,
,,5c5493207f5e0c000143e96e,65af5575928510ff1336ce44,2024-01-23_07h00.53.074,bars,2023.2.3,Linux x86_64,59.88023952,657b66ea316d21385b68909f,,,,,,,,,,,1637.3281,1638.3169,,,1638.8174,1639.0668,,92,92,,,,,,,,,,,,,,,,bars/018.png,bars/mask008.png,,,,,,,,,,,,4,2,,,,,,,2,4,0,4,,,,,,,,,,,1638.3169,1638.8173,1639.0669,1644.5499,space,5.4794,,1644.5501,58,2,1645.55,1645.5501,1645.5615,,,,0,24,24,24,1,150,90,,,,,,,,
,,5c5493207f5e0c000143e96e,65af5575928510ff1336ce44,2024-01-23_07h00.53.074,bars,2023.2.3,Linux x86_64,59.88023952,657b66ea316d21385b68909f,,,,,,,,,,,1645.5618,1646.55,,,1647.0502,1647.3005,,1,1,,,,,,,,,,,,,,,,bars/048.png,bars/mask004.png,,,,,,,,,,,,5,2,,,,,,,0,6,0,6,,,,,,,,,,,1646.5501,1647.0501,1647.3005,1655.1833,space,7.8664,,1655.1833,49,6,1656.1836,1656.1836,1656.1938,,,,0,25,25,25,1,50,175,,,,,,,,
,,5c5493207f5e0c000143e96e,65af5575928510ff1336ce44,2024-01-23_07h00.53.074,bars,2023.2.3,Linux x86_64,59.88023952,657b66ea316d21385b68909f,,,,,,,,,,,1656.1941,1657.1834,,,1657.6837,1657.9333,,157,-23,,,,,,,,,,,,,,,,bars/000.png,bars/mask006.png,,,,,,,,,,,,5,2,,,,,,,2,8,3,8,,,,,,,,,,,1657.1835,1657.6836,1657.9334,1662.334,space,4.3841,,1662.334,63,12,1663.3339,1663.334,1663.3446,,,,0,26,26,26,1,40,145,,,,,,,,
,,5c5493207f5e0c000143e96e,65af5575928510ff1336ce44,2024-01-23_07h00.53.074,bars,2023.2.3,Linux x86_64,59.88023952,657b66ea316d21385b68909f,,,,,,,,,,,1663.3448,1664.3335,,,1664.8333,1665.0835,,156,156,,,,,,,,,,,,,,,,bars/011.png,bars/mask001.png,,,,,,,,,,,,0,1,,,,,,,0,6,0,6,,,,,,,,,,,1664.3336,1664.8333,1665.0836,1671.3334,space,6.2353,0.0002,1671.3335,4,71,1672.3342,1672.3345,1672.3462,,,,0,27,27,27,1,160,85,,,,,,,,
,,5c5493207f5e0c000143e96e,65af5575928510ff1336ce44,2024-01-23_07h00.53.074,bars,2023.2.3,Linux x86_64,59.88023952,657b66ea316d21385b68909f,,,,,,,,,,,1672.3465,1673.3507,,,1673.8508,1674.1003,,82,-98,,,,,,,,,,,,,,,,bars/042.png,bars/mask005.png,,,,,,,,,,,,6,2,,,,,,,0,8,0,8,,,,,,,,,,,1673.3507,1673.8508,1674.1004,1682.134,space,8.0181,,1682.134,63,7,1683.1343,1683.1343,1683.1478,,,,0,28,28,28,1,145,75,,,,,,,,
,,5c5493207f5e0c000143e96e,65af5575928510ff1336ce44,2024-01-23_07h00.53.074,bars,2023.2.3,Linux x86_64,59.88023952,657b66ea316d21385b68909f,,,,,,,,,,,1683.1481,1684.1505,,,1684.6505,1684.9003,,114,114,,,,,,,,,,,,,,,,bars/018.png,bars/mask008.png,,,,,,,,,,,,1,2,,,,,,,2,6,2,7,,,,,,,,,,,1684.1506,1684.6505,1684.9004,1689.2009,space,4.2826,,1689.2009,36,24,1690.2005,1690.2006,1690.2108,,,,0,29,29,29,1,150,90,,,,,,,,
,,5c5493207f5e0c000143e96e,65af5575928510ff1336ce44,2024-01-23_07h00.53.074,bars,2023.2.3,Linux x86_64,59.88023952,657b66ea316d21385b68909f,,,,,,,,,,,1690.2111,1691.2007,,,1691.7009,1691.9504,,20,20,,,,,,,,,,,,,,,,bars/023.png,bars/mask002.png,,,,,,,,,,,,0,1,,,,,,,0,8,0,10,,,,,,,,,,,1691.2008,1691.7009,1691.9504,1696.8511,space,4.8849,,1696.8511,0,85,1697.8503,1697.8504,1697.862,,,,0,30,30,30,1,20,115,,,,,,,,
,,5c5493207f5e0c000143e96e,65af5575928510ff1336ce44,2024-01-23_07h00.53.074,bars,2023.2.3,Linux x86_64,59.88023952,657b66ea316d21385b68909f,,,,,,,,,,,1697.8622,1698.85,,,1699.3508,1699.6005,,3,3,,,,,,,,,,,,,,,,bars/045.png,bars/mask005.png,,,,,,,,,,,,5,2,,,,,,,0,6,0,6,,,,,,,,,,,1698.8501,1699.3508,1699.6005,1703.734,space,4.1167,,1703.7342,83,7,1704.7337,1704.7337,1704.7472,,,,0,31,31,31,1,100,10,,,,,,,,
,,5c5493207f5e0c000143e96e,65af5575928510ff1336ce44,2024-01-23_07h00.53.074,bars,2023.2.3,Linux x86_64,59.88023952,657b66ea316d21385b68909f,,,,,,,,,,,1704.7476,1705.7503,,,1706.2508,1706.5008,,11,11,,,,,,,,,,,,,,,,bars/033.png,bars/mask008.png,,,,,,,,,,,,2,1,,,,,,,2,8,3,7,,,,,,,,,,,1705.7504,1706.2508,1706.5009,1708.768,space,2.2498,0.0002,1708.768,14,36,1709.7671,1709.7671,1709.7779,,,,0,32,32,32,1,25,155,,,,,,,,
,,5c5493207f5e0c000143e96e,65af5575928510ff1336ce44,2024-01-23_07h00.53.074,bars,2023.2.3,Linux x86_64,59.88023952,657b66ea316d21385b68909f,,,,,,,,,,,1709.7782,1710.7671,,,1711.2675,1711.5183,,36,36,,,,,,,,,,,,,,,,bars/017.png,bars/mask003.png,,,,,,,,,,,,7,2,,,,,,,4,10,2,10,,,,,,,,,,,1710.7671,1711.2674,1711.5183,1721.1846,space,9.6611,,1721.1847,71,9,1722.1843,1722.1844,1722.1964,,,,0,33,33,33,1,145,45,,,,,,,,
,,5c5493207f5e0c000143e96e,65af5575928510ff1336ce44,2024-01-23_07h00.53.074,bars,2023.2.3,Linux x86_64,59.88023952,657b66ea316d21385b68909f,,,,,,,,,,,1722.1966,1723.1844,,,1723.6845,1723.934,,17,197,,,,,,,,,,,,,,,,bars/014.png,bars/mask000.png,,,,,,,,,,,,3,2,,,,,,,6,10,7,8,,,,,,,,,,,1723.1845,1723.6845,1723.9341,1729.9178,space,5.9728,,1729.9178,63,17,1730.9175,1730.9176,1730.9289,,,,0,34,34,34,1,80,0,,,,,,,,
,,5c5493207f5e0c000143e96e,65af5575928510ff1336ce44,2024-01-23_07h00.53.074,bars,2023.2.3,Linux x86_64,59.88023952,657b66ea316d21385b68909f,,,,,,,,,,,1730.9291,1731.9176,,,1732.4182,1732.668,,158,-22,,,,,,,,,,,,,,,,bars/046.png,bars/mask005.png,,,,,,,,,,,,8,1,,,,,,,8,8,9,9,,,,,,,,,,,1731.9176,1732.4182,1732.668,1739.0517,space,6.3764,,1739.0518,3,73,1740.0519,1740.0519,1740.0648,,,,0,35,35,35,1,155,85,,,,,,,,
,,5c5493207f5e0c000143e96e,65af5575928510ff1336ce44,2024-01-23_07h00.53.074,bars,2023.2.3,Linux x86_64,59.88023952,657b66ea316d21385b68909f,,,,,,,,,,,1740.0651,1741.0685,,,1741.5685,1741.8183,,103,103,,,,,,,,,,,,,,,,bars/027.png,bars/mask001.png,,,,,,,,,,,,5,1,,,,,,,6,10,7,10,,,,,,,,,,,1741.0686,1741.5685,1741.8184,1747.0194,space,5.194,,1747.0195,7,53,1748.0196,1748.0196,1748.0301,,,,0,36,36,36,1,110,50,,,,,,,,
,,5c5493207f5e0c000143e96e,65af5575928510ff1336ce44,2024-01-23_07h00.53.074,bars,2023.2.3,Linux x86_64,59.88023952,657b66ea316d21385b68909f,,,,,,,,,,,1748.0304,1749.0194,,,1749.5193,1749.7693,,85,85,,,,,,,,,,,,,,,,bars/001.png,bars/mask004.png,,,,,,,,,,,,8,2,,,,,,,8,8,9,8,,,,,,,,,,,1749.0195,1749.5193,1749.7694,1752.8694,space,3.0864,0.0067,1752.8695,45,0,1753.8699,1753.8699,1753.881,,,,0,37,37,37,1,130,85,,,,,,,,
,,5c5493207f5e0c000143e96e,65af5575928510ff1336ce44,2024-01-23_07h00.53.074,bars,2023.2.3,Linux x86_64,59.88023952,657b66ea316d21385b68909f,,,,,,,,,,,1753.8812,1754.8704,,,1755.3702,1755.62,,109,109,,,,,,,,,,,,,,,,bars/006.png,bars/mask007.png,,,,,,,,,,,,7,2,,,,,,,10,10,10,10,,,,,,,,,,,1754.8705,1755.3701,1755.6201,1761.8704,space,6.241,,1761.8704,74,9,1762.8703,1762.8704,1762.8823,,,,0,38,38,38,1,35,100,,,,,,,,
,,5c5493207f5e0c000143e96e,65af5575928510ff1336ce44,2024-01-23_07h00.53.074,bars,2023.2.3,Linux x86_64,59.88023952,657b66ea316d21385b68909f,,,,,,,,,,,1762.8826,1763.8705,,,1764.3713,1764.6211,,97,97,,,,,,,,,,,,,,,,bars/002.png,bars/mask005.png,,,,,,,,,,,,6,2,,,,,,,10,10,10,10,,,,,,,,,,,1763.8705,1764.3713,1764.6212,1771.105,space,6.4707,,1771.1051,33,12,1772.1047,1772.1047,1772.1152,,,,0,39,39,39,1,130,85,,,,,,,,
,,5c5493207f5e0c000143e96e,65af5575928510ff1336ce44,2024-01-23_07h00.53.074,bars,2023.2.3,Linux x86_64,59.88023952,657b66ea316d21385b68909f,,,,,,,,,,,1772.1156,1773.1054,,,1773.6053,1773.8555,,116,116,,,,,,,,,,,,,,,,bars/020.png,bars/mask000.png,,,,,,,,,,,,7,1,,,,,,,8,8,7,7,,,,,,,,,,,1773.1054,1773.6052,1773.8556,1779.2062,space,5.3369,,1779.2062,1,54,1780.2059,1780.2061,1780.2179,,,,0,40,40,40,1,115,170,,,,,,,,
,,5c5493207f5e0c000143e96e,65af5575928510ff1336ce44,2024-01-23_07h00.53.074,bars,2023.2.3,Linux x86_64,59.88023952,657b66ea316d21385b68909f,,,,,,,,,,,1780.2182,1781.2064,,,1781.7063,1781.9567,,104,104,,,,,,,,,,,,,,,,bars/037.png,bars/mask007.png,,,,,,,,,,,,5,2,,,,,,,10,6,10,5,,,,,,,,,,,1781.2065,1781.7063,1781.9568,1789.8731,space,7.8992,,1789.8731,46,1,1790.8742,1790.8742,1790.8863,,,,0,41,41,41,1,150,105,,,,,,,,
,,5c5493207f5e0c000143e96e,65af5575928510ff1336ce44,2024-01-23_07h00.53.074,bars,2023.2.3,Linux x86_64,59.88023952,657b66ea316d21385b68909f,,,,,,,,,,,1790.8866,1791.8905,,,1792.3898,1792.6399,,93,93,,,,,,,,,,,,,,,,bars/039.png,bars/mask002.png,,,,,,,,,,,,4,2,,,,,,,8,8,7,7,,,,,,,,,,,1791.8906,1792.3898,1792.64,1793.9576,space,1.299,0.0003,1793.9577,82,12,1794.9572,1794.9573,1794.9673,,,,0,42,42,42,1,175,105,,,,,,,,
,,5c5493207f5e0c000143e96e,65af5575928510ff1336ce44,2024-01-23_07h00.53.074,bars,2023.2.3,Linux x86_64,59.88023952,657b66ea316d21385b68909f,,,,,,,,,,,1794.9675,1795.9569,,,1796.4569,1796.7067,,67,67,,,,,,,,,,,,,,,,bars/035.png,bars/mask005.png,,,,,,,,,,,,4,2,,,,,,,6,6,4,5,,,,,,,,,,,1795.957,1796.4569,1796.7067,1802.9253,space,6.2046,,1802.9254,72,7,1803.9248,1803.9249,1803.9351,,,,0,43,43,43,1,175,60,,,,,,,,
,,5c5493207f5e0c000143e96e,65af5575928510ff1336ce44,2024-01-23_07h00.53.074,bars,2023.2.3,Linux x86_64,59.88023952,657b66ea316d21385b68909f,,,,,,,,,,,1803.9353,1804.9244,,,1805.4249,1805.6746,,101,101,,,,,,,,,,,,,,,,bars/009.png,bars/mask003.png,,,,,,,,,,,,3,2,,,,,,,8,4,7,4,,,,,,,,,,,1804.9245,1805.4248,1805.6746,1812.7757,space,7.0856,,1812.7758,86,4,1813.7751,1813.7752,1813.7862,,,,0,44,44,44,1,15,105,,,,,,,,
,,5c5493207f5e0c000143e96e,65af5575928510ff1336ce44,2024-01-23_07h00.53.074,bars,2023.2.3,Linux x86_64,59.88023952,657b66ea316d21385b68909f,,,,,,,,,,,1813.7865,1814.7759,,,1815.2754,1815.5256,,17,197,,,,,,,,,,,,,,,,bars/016.png,bars/mask002.png,,,,,,,,,,,,2,1,,,,,,,10,6,10,6,,,,,,,,,,,1814.776,1815.2753,1815.5256,1820.6424,space,5.1123,,1820.6425,23,32,1821.6427,1821.6428,1821.6561,,,,0,45,45,45,1,40,165,,,,,,,,
,,5c5493207f5e0c000143e96e,65af5575928510ff1336ce44,2024-01-23_07h00.53.074,bars,2023.2.3,Linux x86_64,59.88023952,657b66ea316d21385b68909f,,,,,,,,,,,1821.6564,1822.6601,,,1823.1597,1823.4095,,9,9,,,,,,,,,,,,,,,,bars/014.png,bars/mask001.png,,,,,,,,,,,,4,2,,,,,,,8,4,7,5,,,,,,,,,,,1822.6602,1823.1596,1823.4095,1828.4764,space,5.0589,,1828.4765,71,9,1829.4762,1829.4763,1829.4892,,,,0,46,46,46,1,80,0,,,,,,,,
,,5c5493207f5e0c000143e96e,65af5575928510ff1336ce44,2024-01-23_07h00.53.074,bars,2023.2.3,Linux x86_64,59.88023952,657b66ea316d21385b68909f,,,,,,,,,,,1829.4894,1830.4934,,,1830.9929,1831.2436,,1,1,,,,,,,,,,,,,,,,bars/015.png,bars/mask008.png,,,,,,,,,,,,2,2,,,,,,,10,6,10,5,,,,,,,,,,,1830.4934,1830.9929,1831.2437,1832.4765,space,1.2192,0.0002,1832.4765,71,21,1833.4768,1833.4769,1833.4778,,,,0,47,47,47,1,110,160,,,,,,,,
,,5c5493207f5e0c000143e96e,65af5575928510ff1336ce44,2024-01-23_07h00.53.074,bars,2023.2.3,Linux x86_64,59.88023952,657b66ea316d21385b68909f,,,,,,,,,,,1833.4781,1834.4768,,,1834.9773,1835.2265,,171,171,,,,,,,,,,,,,,,,bars/037.png,bars/mask009.png,,,,,,,,,,,,2,1,,,,,,,8,8,7,8,,,,,,,,,,,1834.4769,1834.9772,1835.2266,1841.5273,space,6.2899,,1841.5273,21,66,1842.5271,1842.5273,1842.5387,,,,0,48,48,48,1,150,105,,,,,,,,
,,5c5493207f5e0c000143e96e,65af5575928510ff1336ce44,2024-01-23_07h00.53.074,bars,2023.2.3,Linux x86_64,59.88023952,657b66ea316d21385b68909f,,,,,,,,,,,1842.539,1843.5277,,,1844.0279,1844.2769,,77,77,,,,,,,,,,,,,,,,bars/044.png,bars/mask009.png,,,,,,,,,,,,7,1,,,,,,,6,10,7,10,,,,,,,,,,,1843.5277,1844.0278,1844.277,1851.0785,space,6.7862,,1851.0786,2,78,1852.0782,1852.0782,1852.0884,,,,0,49,49,49,1,75,155,,,,,,,,
,,5c5493207f5e0c000143e96e,65af5575928510ff1336ce44,2024-01-23_07h00.53.074,bars,2023.2.3,Linux x86_64,59.88023952,657b66ea316d21385b68909f,,,,,,,,,,,,,,,,,,,,,,,,,,,,,,,,,,,,,,,,,,,,,,,,,,,,,,,,,,,,,,,,,,,,,,,,,,,,,,,,,,,,,,,,,,,,,1852.0886,1912.0812,0,1,1,1,1,sequence_tables/blk009.csv
,,5c5493207f5e0c000143e96e,65af5575928510ff1336ce44,2024-01-23_07h00.53.074,bars,2023.2.3,Linux x86_64,59.88023952,657b66ea316d21385b68909f,,,,,,,,,,,1913.7551,1914.7482,,,1915.2488,1915.4985,,56,56,,,,,,,,,,,,,,,,bars/021.png,bars/mask007.png,,,,,,,,,,,,0,2,,,,,,,6,1,6,0,,,,,,1912.0937,1913.7485,space,1.6457,0.0002,1914.7483,1915.2487,1915.4986,1921.2319,space,5.7169,,1921.2319,81,14,1922.232,1922.2321,1922.243,,,,0,0,0,0,1,155,70,,,,,,,,
,,5c5493207f5e0c000143e96e,65af5575928510ff1336ce44,2024-01-23_07h00.53.074,bars,2023.2.3,Linux x86_64,59.88023952,657b66ea316d21385b68909f,,,,,,,,,,,1922.2434,1923.2322,,,1923.7319,1923.9819,,61,61,,,,,,,,,,,,,,,,bars/010.png,bars/mask006.png,,,,,,,,,,,,2,2,,,,,,,8,3,8,3,,,,,,,,,,,1923.2325,1923.7318,1923.9819,1928.25,space,4.2544,,1928.25,76,6,1929.2491,1929.2492,1929.2614,,,,0,1,1,1,1,165,55,,,,,,,,
,,5c5493207f5e0c000143e96e,65af5575928510ff1336ce44,2024-01-23_07h00.53.074,bars,2023.2.3,Linux x86_64,59.88023952,657b66ea316d21385b68909f,,,,,,,,,,,1929.2616,1930.2658,,,1930.7659,1931.0156,,141,-39,,,,,,,,,,,,,,,,bars/018.png,bars/mask005.png,,,,,,,,,,,,7,1,,,,,,,10,5,10,6,,,,,,,,,,,1930.2659,1930.7659,1931.0156,1938.6495,space,7.6211,,1938.6496,9,51,1939.6494,1939.6494,1939.6606,,,,0,2,2,2,1,150,90,,,,,,,,
,,5c5493207f5e0c000143e96e,65af5575928510ff1336ce44,2024-01-23_07h00.53.074,bars,2023.2.3,Linux x86_64,59.88023952,657b66ea316d21385b68909f,,,,,,,,,,,1939.6609,1940.6495,,,1941.1494,1941.3988,,37,217,,,,,,,,,,,,,,,,bars/006.png,bars/mask006.png,,,,,,,,,,,,8,1,,,,,,,10,3,9,2,,,,,,,,,,,1940.6496,1941.1493,1941.3989,1948.7659,space,7.355,,1948.7659,2,63,1949.7667,1949.7667,1949.7775,,,,0,3,3,3,1,35,100,,,,,,,,
,,5c5493207f5e0c000143e96e,65af5575928510ff1336ce44,2024-01-23_07h00.53.074,bars,2023.2.3,Linux x86_64,59.88023952,657b66ea316d21385b68909f,,,,,,,,,,,1949.7777,1950.766,,,1951.2665,1951.5166,,78,78,,,,,,,,,,,,,,,,bars/029.png,bars/mask002.png,,,,,,,,,,,,4,1,,,,,,,8,1,7,1,,,,,,,,,,,1950.766,1951.2663,1951.5168,1957.3165,space,5.7882,,1957.3166,12,33,1958.3164,1958.3165,1958.328,,,,0,4,4,4,1,90,45,,,,,,,,
,,5c5493207f5e0c000143e96e,65af5575928510ff1336ce44,2024-01-23_07h00.53.074,bars,2023.2.3,Linux x86_64,59.88023952,657b66ea316d21385b68909f,,,,,,,,,,,1958.3281,1959.3163,,,1959.8169,1960.0673,,112,112,,,,,,,,,,,,,,,,bars/024.png,bars/mask006.png,,,,,,,,,,,,4,1,,,,,,,6,0,6,0,,,,,,,,,,,1959.3164,1959.8169,1960.0674,1966.2336,space,6.1516,,1966.2337,8,58,1967.2334,1967.2335,1967.2471,,,,0,5,5,5,1,120,170,,,,,,,,
,,5c5493207f5e0c000143e96e,65af5575928510ff1336ce44,2024-01-23_07h00.53.074,bars,2023.2.3,Linux x86_64,59.88023952,657b66ea316d21385b68909f,,,,,,,,,,,1967.2475,1968.2502,,,1968.7501,1969.0005,,4,4,,,,,,,,,,,,,,,,bars/009.png,bars/mask007.png,,,,,,,,,,,,4,1,,,,,,,8,0,7,1,,,,,,,,,,,1968.2502,1968.7501,1969.0005,1972.8845,space,3.8769,,1972.8845,11,79,1973.8839,1973.884,1973.896,,,,0,6,6,6,1,15,105,,,,,,,,
,,5c5493207f5e0c000143e96e,65af5575928510ff1336ce44,2024-01-23_07h00.53.074,bars,2023.2.3,Linux x86_64,59.88023952,657b66ea316d21385b68909f,,,,,,,,,,,1973.8962,1974.8843,,,1975.384,1975.6344,,4,4,,,,,,,,,,,,,,,,bars/021.png,bars/mask000.png,,,,,,,,,,,,0,1,,,,,,,10,2,10,3,,,,,,,,,,,1974.8843,1975.3839,1975.6345,1982.3846,space,6.7383,,1982.3847,29,66,1983.3838,1983.3839,1983.3953,,,,0,7,7,7,1,155,70,,,,,,,,
,,5c5493207f5e0c000143e96e,65af5575928510ff1336ce44,2024-01-23_07h00.53.074,bars,2023.2.3,Linux x86_64,59.88023952,657b66ea316d21385b68909f,,,,,,,,,,,1983.3956,1984.3842,,,1984.8847,1985.1345,,128,128,,,,,,,,,,,,,,,,bars/049.png,bars/mask000.png,,,,,,,,,,,,0,2,,,,,,,8,0,9,0,,,,,,,,,,,1984.3842,1984.8846,1985.1346,1989.6686,space,4.527,,1989.6686,32,13,1990.6682,1990.6682,1990.6804,,,,0,8,8,8,1,160,115,,,,,,,,
,,5c5493207f5e0c000143e96e,65af5575928510ff1336ce44,2024-01-23_07h00.53.074,bars,2023.2.3,Linux x86_64,59.88023952,657b66ea316d21385b68909f,,,,,,,,,,,1990.6807,1991.6845,,,1992.1842,1992.4343,,149,149,,,,,,,,,,,,,,,,bars/020.png,bars/mask004.png,,,,,,,,,,,,0,2,,,,,,,6,0,8,0,,,,,,,,,,,1991.6845,1992.1841,1992.4343,1997.918,space,5.4702,,1997.9181,34,21,1998.9179,1998.9179,1998.9299,,,,0,9,9,9,1,115,170,,,,,,,,
,,5c5493207f5e0c000143e96e,65af5575928510ff1336ce44,2024-01-23_07h00.53.074,bars,2023.2.3,Linux x86_64,59.88023952,657b66ea316d21385b68909f,,,,,,,,,,,1998.9301,1999.9177,,,2000.4184,2000.6679,,175,175,,,,,,,,,,,,,,,,bars/035.png,bars/mask006.png,,,,,,,,,,,,3,1,,,,,,,4,2,3,0,,,,,,,,,,,1999.9178,2000.4183,2000.6679,2009.8359,space,9.1531,,2009.836,0,65,2010.8352,2010.8352,2010.8476,,,,0,10,10,10,1,175,60,,,,,,,,
,,5c5493207f5e0c000143e96e,65af5575928510ff1336ce44,2024-01-23_07h00.53.074,bars,2023.2.3,Linux x86_64,59.88023952,657b66ea316d21385b68909f,,,,,,,,,,,2010.8478,2011.852,,,2012.3519,2012.6015,,80,80,,,,,,,,,,,,,,,,bars/014.png,bars/mask003.png,,,,,,,,,,,,2,1,,,,,,,2,0,2,1,,,,,,,,,,,2011.8522,2012.3519,2012.6015,2019.9524,space,7.3458,,2019.9525,0,80,2020.9518,2020.9519,2020.9635,,,,0,11,11,11,1,80,0,,,,,,,,
,,5c5493207f5e0c000143e96e,65af5575928510ff1336ce44,2024-01-23_07h00.53.074,bars,2023.2.3,Linux x86_64,59.88023952,657b66ea316d21385b68909f,,,,,,,,,,,2020.9638,2021.952,,,2022.4523,2022.7019,,100,100,,,,,,,,,,,,,,,,bars/015.png,bars/mask001.png,,,,,,,,,,,,4,1,,,,,,,4,2,6,2,,,,,,,,,,,2021.952,2022.4523,2022.702,2028.3364,space,5.6166,,2028.3364,10,60,2029.3361,2029.3361,2029.3462,,,,0,12,12,12,1,110,160,,,,,,,,
,,5c5493207f5e0c000143e96e,65af5575928510ff1336ce44,2024-01-23_07h00.53.074,bars,2023.2.3,Linux x86_64,59.88023952,657b66ea316d21385b68909f,,,,,,,,,,,2029.3463,2030.3356,,,2030.8361,2031.086,,157,157,,,,,,,,,,,,,,,,bars/037.png,bars/mask002.png,,,,,,,,,,,,2,1,,,,,,,2,0,2,2,,,,,,,,,,,2030.3356,2030.8361,2031.086,2037.3697,space,6.2765,,2037.3699,7,52,2038.3694,2038.3695,2038.3808,,,,0,13,13,13,1,150,105,,,,,,,,
,,5c5493207f5e0c000143e96e,65af5575928510ff1336ce44,2024-01-23_07h00.53.074,bars,2023.2.3,Linux x86_64,59.88023952,657b66ea316d21385b68909f,,,,,,,,,,,2038.3809,2039.3692,,,2039.8695,2040.1192,,124,124,,,,,,,,,,,,,,,,bars/030.png,bars/mask006.png,,,,,,,,,,,,3,1,,,,,,,4,0,6,0,,,,,,,,,,,2039.3692,2039.8693,2040.1192,2047.1035,space,6.9652,,2047.1036,16,59,2048.1031,2048.1032,2048.1153,,,,0,14,14,14,1,140,65,,,,,,,,
,,5c5493207f5e0c000143e96e,65af5575928510ff1336ce44,2024-01-23_07h00.53.074,bars,2023.2.3,Linux x86_64,59.88023952,657b66ea316d21385b68909f,,,,,,,,,,,2048.1156,2049.1032,,,2049.6034,2049.8529,,59,59,,,,,,,,,,,,,,,,bars/048.png,bars/mask009.png,,,,,,,,,,,,4,1,,,,,,,6,2,6,3,,,,,,,,,,,2049.1033,2049.6033,2049.853,2056.187,space,6.317,,2056.1871,9,64,2057.1869,2057.187,2057.1974,,,,0,15,15,15,1,50,175,,,,,,,,
,,5c5493207f5e0c000143e96e,65af5575928510ff1336ce44,2024-01-23_07h00.53.074,bars,2023.2.3,Linux x86_64,59.88023952,657b66ea316d21385b68909f,,,,,,,,,,,2057.1978,2058.1869,,,2058.6865,2058.9363,,166,-14,,,,,,,,,,,,,,,,bars/007.png,bars/mask006.png,,,,,,,,,,,,6,1,,,,,,,8,4,9,2,,,,,,,,,,,2058.1869,2058.6865,2058.9364,2066.3541,space,7.4055,,2066.3543,9,69,2067.3539,2067.354,2067.365,,,,0,16,16,16,1,175,55,,,,,,,,
,,5c5493207f5e0c000143e96e,65af5575928510ff1336ce44,2024-01-23_07h00.53.074,bars,2023.2.3,Linux x86_64,59.88023952,657b66ea316d21385b68909f,,,,,,,,,,,2067.3652,2068.3538,,,2068.8544,2069.1035,,41,41,,,,,,,,,,,,,,,,bars/009.png,bars/mask004.png,,,,,,,,,,,,1,1,,,,,,,6,2,5,1,,,,,,,,,,,2068.3538,2068.8543,2069.1036,2075.1715,space,6.0596,,2075.1716,26,64,2076.1711,2076.1711,2076.1819,,,,0,17,17,17,1,15,105,,,,,,,,
,,5c5493207f5e0c000143e96e,65af5575928510ff1336ce44,2024-01-23_07h00.53.074,bars,2023.2.3,Linux x86_64,59.88023952,657b66ea316d21385b68909f,,,,,,,,,,,2076.1821,2077.1705,,,2077.6706,2077.9205,,45,45,,,,,,,,,,,,,,,,bars/007.png,bars/mask004.png,,,,,,,,,,,,0,2,,,,,,,4,0,4,0,,,,,,,,,,,2077.1705,2077.6706,2077.9206,2079.4873,space,1.55,0.0003,2079.4874,50,10,2080.4868,2080.4869,2080.4905,,,,0,18,18,18,1,175,55,,,,,,,,
,,5c5493207f5e0c000143e96e,65af5575928510ff1336ce44,2024-01-23_07h00.53.074,bars,2023.2.3,Linux x86_64,59.88023952,657b66ea316d21385b68909f,,,,,,,,,,,2080.4909,2081.4874,,,2081.9876,2082.2369,,91,91,,,,,,,,,,,,,,,,bars/026.png,bars/mask005.png,,,,,,,,,,,,2,2,,,,,,,6,2,6,2,,,,,,,,,,,2081.4874,2081.9875,2082.2369,2088.4544,space,6.2018,,2088.4545,56,6,2089.4544,2089.4545,2089.4645,,,,0,19,19,19,1,35,85,,,,,,,,
,,5c5493207f5e0c000143e96e,65af5575928510ff1336ce44,2024-01-23_07h00.53.074,bars,2023.2.3,Linux x86_64,59.88023952,657b66ea316d21385b68909f,,,,,,,,,,,2089.4647,2090.454,,,2090.9548,2091.2043,,175,-5,,,,,,,,,,,,,,,,bars/018.png,bars/mask007.png,,,,,,,,,,,,1,1,,,,,,,8,4,7,6,,,,,,,,,,,2090.454,2090.9547,2091.2044,2095.4714,space,4.2523,,2095.4715,25,85,2096.4716,2096.4717,2096.4851,,,,0,20,20,20,1,150,90,,,,,,,,
,,5c5493207f5e0c000143e96e,65af5575928510ff1336ce44,2024-01-23_07h00.53.074,bars,2023.2.3,Linux x86_64,59.88023952,657b66ea316d21385b68909f,,,,,,,,,,,2096.4854,2097.4879,,,2097.9875,2098.238,,169,-11,,,,,,,,,,,,,,,,bars/018.png,bars/mask003.png,,,,,,,,,,,,3,1,,,,,,,10,6,9,8,,,,,,,,,,,2097.4879,2097.9873,2098.2381,2104.4711,space,6.2225,,2104.4712,19,79,2105.4713,2105.4714,2105.4815,,,,0,21,21,21,1,150,90,,,,,,,,
,,5c5493207f5e0c000143e96e,65af5575928510ff1336ce44,2024-01-23_07h00.53.074,bars,2023.2.3,Linux x86_64,59.88023952,657b66ea316d21385b68909f,,,,,,,,,,,2105.4818,2106.4717,,,2106.9718,2107.2217,,16,16,,,,,,,,,,,,,,,,bars/041.png,bars/mask006.png,,,,,,,,,,,,7,1,,,,,,,8,4,8,4,,,,,,,,,,,2106.4718,2106.9718,2107.2217,2114.9554,space,7.724,,2114.9555,4,69,2115.9552,2115.9553,2115.9664,,,,0,22,22,22,1,20,85,,,,,,,,
,,5c5493207f5e0c000143e96e,65af5575928510ff1336ce44,2024-01-23_07h00.53.074,bars,2023.2.3,Linux x86_64,59.88023952,657b66ea316d21385b68909f,,,,,,,,,,,2115.9666,2116.9554,,,2117.4549,2117.7047,,14,14,,,,,,,,,,,,,,,,bars/016.png,bars/mask006.png,,,,,,,,,,,,1,1,,,,,,,10,2,10,1,,,,,,,,,,,2116.9555,2117.4548,2117.7048,2124.455,space,6.7335,,2124.455,26,29,2125.455,2125.4551,2125.4669,,,,0,23,23,23,1,40,165,,,,,,,,
,,5c5493207f5e0c000143e96e,65af5575928510ff1336ce44,2024-01-23_07h00.53.074,bars,2023.2.3,Linux x86_64,59.88023952,657b66ea316d21385b68909f,,,,,,,,,,,2125.4671,2126.4554,,,2126.9553,2127.2054,,7,7,,,,,,,,,,,,,,,,bars/011.png,bars/mask002.png,,,,,,,,,,,,1,1,,,,,,,10,4,10,4,,,,,,,,,,,2126.4555,2126.9553,2127.2054,2133.9059,space,6.6854,,2133.9059,27,78,2134.9058,2134.9058,2134.9173,,,,0,24,24,24,1,160,85,,,,,,,,
,,5c5493207f5e0c000143e96e,65af5575928510ff1336ce44,2024-01-23_07h00.53.074,bars,2023.2.3,Linux x86_64,59.88023952,657b66ea316d21385b68909f,,,,,,,,,,,2134.9176,2135.9053,,,2136.4061,2136.6553,,51,51,,,,,,,,,,,,,,,,bars/007.png,bars/mask009.png,,,,,,,,,,,,4,2,,,,,,,10,6,9,5,,,,,,,,,,,2135.9053,2136.4061,2136.6554,2140.3891,space,3.719,,2140.3892,56,4,2141.3886,2141.3886,2141.4009,,,,0,25,25,25,1,175,55,,,,,,,,
,,5c5493207f5e0c000143e96e,65af5575928510ff1336ce44,2024-01-23_07h00.53.074,bars,2023.2.3,Linux x86_64,59.88023952,657b66ea316d21385b68909f,,,,,,,,,,,2141.4012,2142.3892,,,2142.8894,2143.1394,,86,86,,,,,,,,,,,,,,,,bars/002.png,bars/mask008.png,,,,,,,,,,,,9,2,,,,,,,10,8,10,9,,,,,,,,,,,2142.3893,2142.8894,2143.1394,2149.1058,space,5.962,,2149.1058,44,1,2150.1055,2150.1055,2150.1184,,,,0,26,26,26,1,130,85,,,,,,,,
,,5c5493207f5e0c000143e96e,65af5575928510ff1336ce44,2024-01-23_07h00.53.074,bars,2023.2.3,Linux x86_64,59.88023952,657b66ea316d21385b68909f,,,,,,,,,,,2150.1186,2151.1223,,,2151.6229,2151.8726,,6,6,,,,,,,,,,,,,,,,bars/008.png,bars/mask002.png,,,,,,,,,,,,8,2,,,,,,,10,10,10,10,,,,,,,,,,,2151.1223,2151.6228,2151.8726,2156.9902,space,5.1029,,2156.9903,76,6,2157.9891,2157.9891,2158.0018,,,,0,27,27,27,1,110,0,,,,,,,,
,,5c5493207f5e0c000143e96e,65af5575928510ff1336ce44,2024-01-23_07h00.53.074,bars,2023.2.3,Linux x86_64,59.88023952,657b66ea316d21385b68909f,,,,,,,,,,,2158.002,2159.0066,,,2159.5059,2159.7561,,8,8,,,,,,,,,,,,,,,,bars/024.png,bars/mask000.png,,,,,,,,,,,,4,2,,,,,,,8,10,8,9,,,,,,,,,,,2159.0066,2159.5059,2159.7562,2169.7235,space,9.9533,,2169.7235,68,18,2170.7236,2170.7236,2170.735,,,,0,28,28,28,1,120,170,,,,,,,,
,,5c5493207f5e0c000143e96e,65af5575928510ff1336ce44,2024-01-23_07h00.53.074,bars,2023.2.3,Linux x86_64,59.88023952,657b66ea316d21385b68909f,,,,,,,,,,,2170.7353,2171.7237,,,2172.2227,2172.473,,167,-13,,,,,,,,,,,,,,,,bars/033.png,bars/mask009.png,,,,,,,,,,,,5,2,,,,,,,6,8,5,8,,,,,,,,,,,2171.7238,2172.2227,2172.473,2178.9398,space,6.4619,,2178.9398,38,12,2179.9397,2179.9398,2179.9519,,,,0,29,29,29,1,25,155,,,,,,,,
,,5c5493207f5e0c000143e96e,65af5575928510ff1336ce44,2024-01-23_07h00.53.074,bars,2023.2.3,Linux x86_64,59.88023952,657b66ea316d21385b68909f,,,,,,,,,,,2179.9522,2180.94,,,2181.4406,2181.6904,,27,207,,,,,,,,,,,,,,,,bars/004.png,bars/mask004.png,,,,,,,,,,,,5,1,,,,,,,4,10,5,10,,,,,,,,,,,2180.94,2181.4406,2181.6905,2185.9731,space,4.2679,,2185.9731,2,82,2186.9742,2186.9742,2186.9925,,,,0,30,30,30,1,25,125,,,,,,,,
,,5c5493207f5e0c000143e96e,65af5575928510ff1336ce44,2024-01-23_07h00.53.074,bars,2023.2.3,Linux x86_64,59.88023952,657b66ea316d21385b68909f,,,,,,,,,,,2186.9935,2187.9907,,,2188.4904,2188.74,,95,95,,,,,,,,,,,,,,,,bars/012.png,bars/mask004.png,,,,,,,,,,,,1,1,,,,,,,2,8,1,9,,,,,,,,,,,2187.9907,2188.4903,2188.74,2192.9403,space,4.1898,,2192.9403,5,80,2193.9403,2193.9403,2193.9527,,,,0,31,31,31,1,90,15,,,,,,,,
,,5c5493207f5e0c000143e96e,65af5575928510ff1336ce44,2024-01-23_07h00.53.074,bars,2023.2.3,Linux x86_64,59.88023952,657b66ea316d21385b68909f,,,,,,,,,,,2193.9529,2194.9569,,,2195.4568,2195.7075,,9,9,,,,,,,,,,,,,,,,bars/033.png,bars/mask008.png,,,,,,,,,,,,0,1,,,,,,,0,10,0,7,,,,,,,,,,,2194.957,2195.4567,2195.7075,2205.3578,space,9.6429,,2205.3578,16,34,2206.3579,2206.3579,2206.3692,,,,0,32,32,32,1,25,155,,,,,,,,
,,5c5493207f5e0c000143e96e,65af5575928510ff1336ce44,2024-01-23_07h00.53.074,bars,2023.2.3,Linux x86_64,59.88023952,657b66ea316d21385b68909f,,,,,,,,,,,2206.3695,2207.3576,,,2207.8575,2208.1076,,96,96,,,,,,,,,,,,,,,,bars/026.png,bars/mask003.png,,,,,,,,,,,,4,2,,,,,,,2,8,2,7,,,,,,,,,,,2207.3577,2207.8574,2208.1076,2214.4077,space,6.2872,,2214.4077,61,11,2215.4073,2215.4074,2215.419,,,,0,33,33,33,1,35,85,,,,,,,,
,,5c5493207f5e0c000143e96e,65af5575928510ff1336ce44,2024-01-23_07h00.53.074,bars,2023.2.3,Linux x86_64,59.88023952,657b66ea316d21385b68909f,,,,,,,,,,,2215.4193,2216.4072,,,2216.9079,2217.1571,,11,191,,,,,,,,,,,,,,,,bars/009.png,bars/mask007.png,,,,,,,,,,,,1,1,,,,,,,0,10,1,10,,,,,,,,,,,2216.4072,2216.9078,2217.1572,2223.358,space,6.1928,,2223.358,4,86,2224.3576,2224.3576,2224.3684,,,,0,34,34,34,1,15,105,,,,,,,,
,,5c5493207f5e0c000143e96e,65af5575928510ff1336ce44,2024-01-23_07h00.53.074,bars,2023.2.3,Linux x86_64,59.88023952,657b66ea316d21385b68909f,,,,,,,,,,,2224.3686,2225.3578,,,2225.8575,2226.1083,,43,43,,,,,,,,,,,,,,,,bars/005.png,bars/mask006.png,,,,,,,,,,,,0,1,,,,,,,2,10,1,10,,,,,,,,,,,2225.3578,2225.8574,2226.1084,2232.9916,space,6.872,,2232.9917,33,83,2233.9911,2233.9912,2234.0016,,,,0,35,35,35,1,10,140,,,,,,,,
,,5c5493207f5e0c000143e96e,65af5575928510ff1336ce44,2024-01-23_07h00.53.074,bars,2023.2.3,Linux x86_64,59.88023952,657b66ea316d21385b68909f,,,,,,,,,,,2234.0018,2234.9913,,,2235.4913,2235.741,,80,80,,,,,,,,,,,,,,,,bars/013.png,bars/mask005.png,,,,,,,,,,,,3,1,,,,,,,4,10,4,9,,,,,,,,,,,2234.9914,2235.4911,2235.7411,2240.4253,space,4.6656,,2240.4254,5,70,2241.425,2241.425,2241.4354,,,,0,36,36,36,1,75,10,,,,,,,,
,,5c5493207f5e0c000143e96e,65af5575928510ff1336ce44,2024-01-23_07h00.53.074,bars,2023.2.3,Linux x86_64,59.88023952,657b66ea316d21385b68909f,,,,,,,,,,,2241.4357,2242.4248,,,2242.9249,2243.1749,,117,117,,,,,,,,,,,,,,,,bars/028.png,bars/mask007.png,,,,,,,,,,,,8,2,,,,,,,6,10,6,9,,,,,,,,,,,2242.4249,2242.9249,2243.175,2251.4923,space,8.3015,,2251.4923,72,3,2252.4913,2252.4915,2252.5045,,,,0,37,37,37,1,45,120,,,,,,,,
,,5c5493207f5e0c000143e96e,65af5575928510ff1336ce44,2024-01-23_07h00.53.074,bars,2023.2.3,Linux x86_64,59.88023952,657b66ea316d21385b68909f,,,,,,,,,,,2252.5048,2253.5084,,,2254.008,2254.2588,,5,5,,,,,,,,,,,,,,,,bars/024.png,bars/mask004.png,,,,,,,,,,,,4,2,,,,,,,8,10,9,8,,,,,,,,,,,2253.5085,2254.008,2254.2589,2260.0757,space,5.8137,,2260.0757,65,15,2261.0749,2261.0749,2261.0877,,,,0,38,38,38,1,120,170,,,,,,,,
,,5c5493207f5e0c000143e96e,65af5575928510ff1336ce44,2024-01-23_07h00.53.074,bars,2023.2.3,Linux x86_64,59.88023952,657b66ea316d21385b68909f,,,,,,,,,,,2261.0879,2262.0756,,,2262.5751,2262.8252,,90,90,,,,,,,,,,,,,,,,bars/001.png,bars/mask006.png,,,,,,,,,,,,8,2,,,,,,,6,8,7,9,,,,,,,,,,,2262.0759,2262.5751,2262.8252,2270.6589,space,7.8175,,2270.6589,40,5,2271.6584,2271.6585,2271.6695,,,,0,39,39,39,1,130,85,,,,,,,,
,,5c5493207f5e0c000143e96e,65af5575928510ff1336ce44,2024-01-23_07h00.53.074,bars,2023.2.3,Linux x86_64,59.88023952,657b66ea316d21385b68909f,,,,,,,,,,,2271.6697,2272.6588,,,2273.1584,2273.4084,,94,94,,,,,,,,,,,,,,,,bars/039.png,bars/mask009.png,,,,,,,,,,,,4,2,,,,,,,4,6,4,6,,,,,,,,,,,2272.6588,2273.1583,2273.4084,2279.4755,space,6.0582,,2279.4756,81,11,2280.476,2280.476,2280.4857,,,,0,40,40,40,1,175,105,,,,,,,,
,,5c5493207f5e0c000143e96e,65af5575928510ff1336ce44,2024-01-23_07h00.53.074,bars,2023.2.3,Linux x86_64,59.88023952,657b66ea316d21385b68909f,,,,,,,,,,,2280.4859,2281.4753,,,2281.976,2282.226,,42,42,,,,,,,,,,,,,,,,bars/036.png,bars/mask008.png,,,,,,,,,,,,2,2,,,,,,,6,8,6,9,,,,,,,,,,,2281.4753,2281.9759,2282.2261,2286.4921,space,4.2577,,2286.4921,77,22,2287.4927,2287.4927,2287.5026,,,,0,41,41,41,1,145,20,,,,,,,,
,,5c5493207f5e0c000143e96e,65af5575928510ff1336ce44,2024-01-23_07h00.53.074,bars,2023.2.3,Linux x86_64,59.88023952,657b66ea316d21385b68909f,,,,,,,,,,,2287.5028,2288.4924,,,2288.9928,2289.2426,,99,99,,,,,,,,,,,,,,,,bars/020.png,bars/mask003.png,,,,,,,,,,,,1,1,,,,,,,4,10,3,10,,,,,,,,,,,2288.4925,2288.9927,2289.2427,2292.6592,space,3.4079,,2292.6592,16,71,2293.6597,2293.6597,2293.6706,,,,0,42,42,42,1,115,170,,,,,,,,
,,5c5493207f5e0c000143e96e,65af5575928510ff1336ce44,2024-01-23_07h00.53.074,bars,2023.2.3,Linux x86_64,59.88023952,657b66ea316d21385b68909f,,,,,,,,,,,2293.6709,2294.6595,,,2295.1598,2295.4092,,0,180,,,,,,,,,,,,,,,,bars/007.png,bars/mask003.png,,,,,,,,,,,,2,1,,,,,,,2,10,2,10,,,,,,,,,,,2294.6595,2295.1598,2295.4093,2299.2265,space,3.8118,,2299.2266,5,55,2300.2261,2300.2262,2300.2391,,,,0,43,43,43,1,175,55,,,,,,,,
,,5c5493207f5e0c000143e96e,65af5575928510ff1336ce44,2024-01-23_07h00.53.074,bars,2023.2.3,Linux x86_64,59.88023952,657b66ea316d21385b68909f,,,,,,,,,,,2300.2393,2301.2425,,,2301.7431,2301.9926,,67,67,,,,,,,,,,,,,,,,bars/044.png,bars/mask002.png,,,,,,,,,,,,1,1,,,,,,,0,10,1,10,,,,,,,,,,,2301.2426,2301.7431,2301.9926,2306.7431,space,4.7402,,2306.7432,8,88,2307.7427,2307.7428,2307.7533,,,,0,44,44,44,1,75,155,,,,,,,,
,,5c5493207f5e0c000143e96e,65af5575928510ff1336ce44,2024-01-23_07h00.53.074,bars,2023.2.3,Linux x86_64,59.88023952,657b66ea316d21385b68909f,,,,,,,,,,,2307.7535,2308.7431,,,2309.2428,2309.4935,,27,207,,,,,,,,,,,,,,,,bars/000.png,bars/mask009.png,,,,,,,,,,,,1,1,,,,,,,2,10,1,9,,,,,,,,,,,2308.7431,2309.2427,2309.4935,2317.677,space,8.1794,,2317.677,13,62,2318.6765,2318.6765,2318.6877,,,,0,45,45,45,1,40,145,,,,,,,,
,,5c5493207f5e0c000143e96e,65af5575928510ff1336ce44,2024-01-23_07h00.53.074,bars,2023.2.3,Linux x86_64,59.88023952,657b66ea316d21385b68909f,,,,,,,,,,,2318.688,2319.677,,,2320.1769,2320.4263,,173,-7,,,,,,,,,,,,,,,,bars/024.png,bars/mask009.png,,,,,,,,,,,,9,2,,,,,,,0,10,0,10,,,,,,,,,,,2319.6771,2320.1768,2320.4263,2326.3271,space,5.8825,,2326.3271,53,3,2327.3266,2327.3266,2327.3383,,,,0,46,46,46,1,120,170,,,,,,,,
,,5c5493207f5e0c000143e96e,65af5575928510ff1336ce44,2024-01-23_07h00.53.074,bars,2023.2.3,Linux x86_64,59.88023952,657b66ea316d21385b68909f,,,,,,,,,,,2327.3386,2328.3268,,,2328.8273,2329.0764,,9,189,,,,,,,,,,,,,,,,bars/016.png,bars/mask002.png,,,,,,,,,,,,1,2,,,,,,,2,8,3,7,,,,,,,,,,,2328.3269,2328.8273,2329.0764,2336.3602,space,7.2689,,2336.3602,31,24,2337.3606,2337.3606,2337.3711,,,,0,47,47,47,1,40,165,,,,,,,,
,,5c5493207f5e0c000143e96e,65af5575928510ff1336ce44,2024-01-23_07h00.53.074,bars,2023.2.3,Linux x86_64,59.88023952,657b66ea316d21385b68909f,,,,,,,,,,,2337.3713,2338.3604,,,2338.86,2339.1099,,9,9,,,,,,,,,,,,,,,,bars/032.png,bars/mask007.png,,,,,,,,,,,,5,2,,,,,,,4,10,5,8,,,,,,,,,,,2338.3605,2338.86,2339.1099,2346.4439,space,7.3168,,2346.444,64,11,2347.4436,2347.4437,2347.4554,,,,0,48,48,48,1,125,20,,,,,,,,
,,5c5493207f5e0c000143e96e,65af5575928510ff1336ce44,2024-01-23_07h00.53.074,bars,2023.2.3,Linux x86_64,59.88023952,657b66ea316d21385b68909f,,,,,,,,,,,2347.4557,2348.4435,,,2348.9444,2349.1937,,4,4,,,,,,,,,,,,,,,,bars/024.png,bars/mask007.png,,,,,,,,,,,,5,2,,,,,,,6,8,6,10,,,,,,,,,,,2348.4436,2348.9444,2349.1937,2356.4776,space,7.2679,,2356.4776,64,14,2357.4777,2357.4777,2357.4892,,,,0,49,49,49,1,120,170,,,,,,,,
,,5c5493207f5e0c000143e96e,65af5575928510ff1336ce44,2024-01-23_07h00.53.074,bars,2023.2.3,Linux x86_64,59.88023952,657b66ea316d21385b68909f,,,,,,,,,,,,,,,,,,,,,,,,,,,,,,,,,,,,,,,,,,,,,,,,,,,,,,,,,,,,,,,,,,,,,,,,,,,,,,,,,,,,,,,,,,,,,2357.4894,2417.4789,0,2,2,0,1,sequence_tables/blk045.csv
,,5c5493207f5e0c000143e96e,65af5575928510ff1336ce44,2024-01-23_07h00.53.074,bars,2023.2.3,Linux x86_64,59.88023952,657b66ea316d21385b68909f,,,,,,,,,,,2422.86,2423.8453,,,2424.3456,2424.5954,,100,100,,,,,,,,,,,,,,,,bars/018.png,bars/mask005.png,,,,,,,,,,,,5,2,,,,,,,9,7,10,7,,,,,,2417.4893,2422.8452,space,5.3352,0.007,2423.8454,2424.3455,2424.5955,2432.1624,space,7.5567,,2432.1626,50,10,2433.1627,2433.1627,2433.1735,,,,0,0,0,0,1,150,90,,,,,,,,
,,5c5493207f5e0c000143e96e,65af5575928510ff1336ce44,2024-01-23_07h00.53.074,bars,2023.2.3,Linux x86_64,59.88023952,657b66ea316d21385b68909f,,,,,,,,,,,2433.1738,2434.163,,,2434.6629,2434.9131,,79,-101,,,,,,,,,,,,,,,,bars/038.png,bars/mask001.png,,,,,,,,,,,,3,2,,,,,,,7,5,7,4,,,,,,,,,,,2434.1632,2434.6628,2434.9133,2443.8627,space,8.9397,,2443.8628,86,9,2444.8625,2444.8625,2444.8737,,,,0,1,1,1,1,165,70,,,,,,,,
,,5c5493207f5e0c000143e96e,65af5575928510ff1336ce44,2024-01-23_07h00.53.074,bars,2023.2.3,Linux x86_64,59.88023952,657b66ea316d21385b68909f,,,,,,,,,,,2444.8739,2445.8632,,,2446.3632,2446.6129,,89,89,,,,,,,,,,,,,,,,bars/002.png,bars/mask001.png,,,,,,,,,,,,6,2,,,,,,,5,7,3,7,,,,,,,,,,,2445.8633,2446.3631,2446.6129,2452.0961,space,5.4741,,2452.0961,41,4,2453.0966,2453.0966,2453.107,,,,0,2,2,2,1,130,85,,,,,,,,
,,5c5493207f5e0c000143e96e,65af5575928510ff1336ce44,2024-01-23_07h00.53.074,bars,2023.2.3,Linux x86_64,59.88023952,657b66ea316d21385b68909f,,,,,,,,,,,2453.1072,2454.0967,,,2454.596,2454.8466,,87,87,,,,,,,,,,,,,,,,bars/046.png,bars/mask004.png,,,,,,,,,,,,6,2,,,,,,,7,5,6,6,,,,,,,,,,,2454.0967,2454.596,2454.8466,2459.43,space,4.5766,,2459.43,68,2,2460.4297,2460.4298,2460.4422,,,,0,3,3,3,1,155,85,,,,,,,,
,,5c5493207f5e0c000143e96e,65af5575928510ff1336ce44,2024-01-23_07h00.53.074,bars,2023.2.3,Linux x86_64,59.88023952,657b66ea316d21385b68909f,,,,,,,,,,,2460.4425,2461.4465,,,2461.9464,2462.1965,,166,-14,,,,,,,,,,,,,,,,bars/033.png,bars/mask009.png,,,,,,,,,,,,4,2,,,,,,,9,7,9,7,,,,,,,,,,,2461.4466,2461.9464,2462.1965,2468.5298,space,6.3165,,2468.5298,39,11,2469.5301,2469.5301,2469.5402,,,,0,4,4,4,1,25,155,,,,,,,,
,,5c5493207f5e0c000143e96e,65af5575928510ff1336ce44,2024-01-23_07h00.53.074,bars,2023.2.3,Linux x86_64,59.88023952,657b66ea316d21385b68909f,,,,,,,,,,,2469.5404,2470.5297,,,2471.03,2471.2798,,28,208,,,,,,,,,,,,,,,,bars/007.png,bars/mask002.png,,,,,,,,,,,,0,2,,,,,,,7,5,6,5,,,,,,,,,,,2470.5297,2471.03,2471.2799,2478.8798,space,7.586,,2478.8798,33,27,2479.88,2479.88,2479.8905,,,,0,5,5,5,1,175,55,,,,,,,,
,,5c5493207f5e0c000143e96e,65af5575928510ff1336ce44,2024-01-23_07h00.53.074,bars,2023.2.3,Linux x86_64,59.88023952,657b66ea316d21385b68909f,,,,,,,,,,,2479.8908,2480.8798,,,2481.3805,2481.6302,,156,-24,,,,,,,,,,,,,,,,bars/018.png,bars/mask008.png,,,,,,,,,,,,4,1,,,,,,,5,3,5,3,,,,,,,,,,,2480.8798,2481.3804,2481.6303,2488.0473,space,6.4109,,2488.0474,6,66,2489.0473,2489.0474,2489.0593,,,,0,6,6,6,1,150,90,,,,,,,,
,,5c5493207f5e0c000143e96e,65af5575928510ff1336ce44,2024-01-23_07h00.53.074,bars,2023.2.3,Linux x86_64,59.88023952,657b66ea316d21385b68909f,,,,,,,,,,,2489.0596,2490.0475,,,2490.5468,2490.7968,,143,143,,,,,,,,,,,,,,,,bars/042.png,bars/mask006.png,,,,,,,,,,,,7,1,,,,,,,7,1,7,2,,,,,,,,,,,2490.0476,2490.5468,2490.7968,2513.2482,space,22.4447,,2513.2482,2,68,2514.2475,2514.2476,2514.2584,,,,0,7,7,7,1,145,75,,,,,,,,
,,5c5493207f5e0c000143e96e,65af5575928510ff1336ce44,2024-01-23_07h00.53.074,bars,2023.2.3,Linux x86_64,59.88023952,657b66ea316d21385b68909f,,,,,,,,,,,2514.2586,2515.2482,,,2515.7474,2515.9978,,92,92,,,,,,,,,,,,,,,,bars/013.png,bars/mask000.png,,,,,,,,,,,,4,1,,,,,,,9,3,9,3,,,,,,,,,,,2515.2482,2515.7473,2515.9979,2520.8648,space,4.8469,,2520.8649,17,82,2521.8651,2521.8652,2521.8755,,,,0,8,8,8,1,75,10,,,,,,,,
,,5c5493207f5e0c000143e96e,65af5575928510ff1336ce44,2024-01-23_07h00.53.074,bars,2023.2.3,Linux x86_64,59.88023952,657b66ea316d21385b68909f,,,,,,,,,,,2521.8757,2522.8648,,,2523.3643,2523.6142,,13,193,,,,,,,,,,,,,,,,bars/040.png,bars/mask007.png,,,,,,,,,,,,6,2,,,,,,,10,5,10,8,,,,,,,,,,,2522.8649,2523.3642,2523.6143,2528.1981,space,4.5685,,2528.1981,53,8,2529.1975,2529.1976,2529.2095,,,,0,9,9,9,1,140,5,,,,,,,,
,,5c5493207f5e0c000143e96e,65af5575928510ff1336ce44,2024-01-23_07h00.53.074,bars,2023.2.3,Linux x86_64,59.88023952,657b66ea316d21385b68909f,,,,,,,,,,,2529.2098,2530.1983,,,2530.6986,2530.9484,,50,50,,,,,,,,,,,,,,,,bars/035.png,bars/mask000.png,,,,,,,,,,,,3,2,,,,,,,8,7,7,5,,,,,,,,,,,2530.1984,2530.6985,2530.9484,2536.9311,space,5.9646,,2536.9312,55,10,2537.9321,2537.9321,2537.944,,,,0,10,10,10,1,175,60,,,,,,,,
,,5c5493207f5e0c000143e96e,65af5575928510ff1336ce44,2024-01-23_07h00.53.074,bars,2023.2.3,Linux x86_64,59.88023952,657b66ea316d21385b68909f,,,,,,,,,,,2537.9442,2538.9484,,,2539.4484,2539.6988,,179,179,,,,,,,,,,,,,,,,bars/039.png,bars/mask002.png,,,,,,,,,,,,9,1,,,,,,,10,5,10,5,,,,,,,,,,,2538.9484,2539.4484,2539.6989,2544.5321,space,4.8207,,2544.5321,4,74,2545.5319,2545.532,2545.5432,,,,0,11,11,11,1,175,105,,,,,,,,
,,5c5493207f5e0c000143e96e,65af5575928510ff1336ce44,2024-01-23_07h00.53.074,bars,2023.2.3,Linux x86_64,59.88023952,657b66ea316d21385b68909f,,,,,,,,,,,2545.5435,2546.5313,,,2547.0315,2547.282,,46,226,,,,,,,,,,,,,,,,bars/016.png,bars/mask006.png,,,,,,,,,,,,6,1,,,,,,,10,3,8,2,,,,,,,,,,,2546.5314,2547.0315,2547.2821,2554.749,space,7.4498,,2554.7491,6,61,2555.7482,2555.7482,2555.7583,,,,0,12,12,12,1,40,165,,,,,,,,
,,5c5493207f5e0c000143e96e,65af5575928510ff1336ce44,2024-01-23_07h00.53.074,bars,2023.2.3,Linux x86_64,59.88023952,657b66ea316d21385b68909f,,,,,,,,,,,2555.7585,2556.7483,,,2557.2484,2557.4989,,48,48,,,,,,,,,,,,,,,,bars/043.png,bars/mask000.png,,,,,,,,,,,,3,1,,,,,,,8,5,7,5,,,,,,,,,,,2556.7483,2557.2483,2557.4989,2564.2493,space,6.7363,,2564.2493,18,82,2565.2492,2565.2492,2565.2602,,,,0,13,13,13,1,30,130,,,,,,,,
,,5c5493207f5e0c000143e96e,65af5575928510ff1336ce44,2024-01-23_07h00.53.074,bars,2023.2.3,Linux x86_64,59.88023952,657b66ea316d21385b68909f,,,,,,,,,,,2565.2604,2566.2488,,,2566.7492,2566.9983,,74,74,,,,,,,,,,,,,,,,bars/035.png,bars/mask006.png,,,,,,,,,,,,3,2,,,,,,,10,7,9,6,,,,,,,,,,,2566.2489,2566.7492,2566.9984,2573.8322,space,6.8165,,2573.8322,79,14,2574.8327,2574.8328,2574.846,,,,0,14,14,14,1,175,60,,,,,,,,
,,5c5493207f5e0c000143e96e,65af5575928510ff1336ce44,2024-01-23_07h00.53.074,bars,2023.2.3,Linux x86_64,59.88023952,657b66ea316d21385b68909f,,,,,,,,,,,2574.8463,2575.8495,,,2576.3492,2576.5987,,23,23,,,,,,,,,,,,,,,,bars/016.png,bars/mask000.png,,,,,,,,,,,,4,1,,,,,,,8,9,9,10,,,,,,,,,,,2575.8495,2576.3491,2576.5988,2584.9322,space,8.3199,0.0089,2584.9322,17,38,2585.9321,2585.9321,2585.9441,,,,0,15,15,15,1,40,165,,,,,,,,
,,5c5493207f5e0c000143e96e,65af5575928510ff1336ce44,2024-01-23_07h00.53.074,bars,2023.2.3,Linux x86_64,59.88023952,657b66ea316d21385b68909f,,,,,,,,,,,2585.9444,2586.9327,,,2587.4328,2587.6828,,114,114,,,,,,,,,,,,,,,,bars/002.png,bars/mask004.png,,,,,,,,,,,,3,1,,,,,,,6,10,6,10,,,,,,,,,,,2586.9328,2587.4328,2587.6828,2592.4994,space,4.801,,2592.4995,16,29,2593.4988,2593.4988,2593.5099,,,,0,16,16,16,1,130,85,,,,,,,,
,,5c5493207f5e0c000143e96e,65af5575928510ff1336ce44,2024-01-23_07h00.53.074,bars,2023.2.3,Linux x86_64,59.88023952,657b66ea316d21385b68909f,,,,,,,,,,,2593.5101,2594.4991,,,2594.9997,2595.2496,,97,97,,,,,,,,,,,,,,,,bars/022.png,bars/mask000.png,,,,,,,,,,,,7,1,,,,,,,8,10,8,8,,,,,,,,,,,2594.4991,2594.9997,2595.2496,2598.2997,space,3.0367,0.0002,2598.2997,2,77,2599.2999,2599.2999,2599.3105,,,,0,17,17,17,1,95,20,,,,,,,,
,,5c5493207f5e0c000143e96e,65af5575928510ff1336ce44,2024-01-23_07h00.53.074,bars,2023.2.3,Linux x86_64,59.88023952,657b66ea316d21385b68909f,,,,,,,,,,,2599.3107,2600.2999,,,2600.7992,2601.0496,,74,74,,,,,,,,,,,,,,,,bars/044.png,bars/mask006.png,,,,,,,,,,,,10,1,,,,,,,10,10,10,10,,,,,,,,,,,2600.3001,2600.7992,2601.0497,2607.7505,space,6.6932,,2607.7507,1,81,2608.7498,2608.7498,2608.7618,,,,0,18,18,18,1,75,155,,,,,,,,
,,5c5493207f5e0c000143e96e,65af5575928510ff1336ce44,2024-01-23_07h00.53.074,bars,2023.2.3,Linux x86_64,59.88023952,657b66ea316d21385b68909f,,,,,,,,,,,2608.7621,2609.7668,,,2610.2669,2610.5159,,127,127,,,,,,,,,,,,,,,,bars/042.png,bars/mask002.png,,,,,,,,,,,,3,1,,,,,,,8,10,8,10,,,,,,,,,,,2609.7668,2610.2668,2610.516,2618.1504,space,7.6195,,2618.1506,18,52,2619.1502,2619.1502,2619.1607,,,,0,19,19,19,1,145,75,,,,,,,,
,,5c5493207f5e0c000143e96e,65af5575928510ff1336ce44,2024-01-23_07h00.53.074,bars,2023.2.3,Linux x86_64,59.88023952,657b66ea316d21385b68909f,,,,,,,,,,,2619.1609,2620.1499,,,2620.6503,2620.9004,,1,181,,,,,,,,,,,,,,,,bars/008.png,bars/mask008.png,,,,,,,,,,,,10,2,,,,,,,6,10,6,10,,,,,,,,,,,2620.1499,2620.6503,2620.9005,2628.6334,space,7.7215,,2628.6335,71,1,2629.6334,2629.6335,2629.6452,,,,0,20,20,20,1,110,0,,,,,,,,
,,5c5493207f5e0c000143e96e,65af5575928510ff1336ce44,2024-01-23_07h00.53.074,bars,2023.2.3,Linux x86_64,59.88023952,657b66ea316d21385b68909f,,,,,,,,,,,2629.6455,2630.6332,,,2631.1338,2631.3841,,96,96,,,,,,,,,,,,,,,,bars/023.png,bars/mask003.png,,,,,,,,,,,,4,2,,,,,,,8,10,10,10,,,,,,,,,,,2630.6333,2631.1337,2631.3842,2635.1667,space,3.7632,,2635.1667,76,19,2636.1672,2636.1672,2636.1793,,,,0,21,21,21,1,20,115,,,,,,,,
,,5c5493207f5e0c000143e96e,65af5575928510ff1336ce44,2024-01-23_07h00.53.074,bars,2023.2.3,Linux x86_64,59.88023952,657b66ea316d21385b68909f,,,,,,,,,,,2636.1795,2637.1673,,,2637.6676,2637.9172,,26,26,,,,,,,,,,,,,,,,bars/036.png,bars/mask000.png,,,,,,,,,,,,6,2,,,,,,,6,8,8,8,,,,,,,,,,,2637.1673,2637.6674,2637.9173,2644.3011,space,6.365,,2644.3011,61,6,2645.3007,2645.3009,2645.3115,,,,0,22,22,22,1,145,20,,,,,,,,
,,5c5493207f5e0c000143e96e,65af5575928510ff1336ce44,2024-01-23_07h00.53.074,bars,2023.2.3,Linux x86_64,59.88023952,657b66ea316d21385b68909f,,,,,,,,,,,2645.3117,2646.301,,,2646.8005,2647.0507,,164,164,,,,,,,,,,,,,,,,bars/044.png,bars/mask002.png,,,,,,,,,,,,6,2,,,,,,,8,10,7,9,,,,,,,,,,,2646.3011,2646.8005,2647.0507,2652.0337,space,4.9729,,2652.0337,89,9,2653.0342,2653.0342,2653.0441,,,,0,23,23,23,1,75,155,,,,,,,,
,,5c5493207f5e0c000143e96e,65af5575928510ff1336ce44,2024-01-23_07h00.53.074,bars,2023.2.3,Linux x86_64,59.88023952,657b66ea316d21385b68909f,,,,,,,,,,,2653.0443,2654.0343,,,2654.5337,2654.7844,,142,142,,,,,,,,,,,,,,,,bars/017.png,bars/mask008.png,,,,,,,,,,,,6,1,,,,,,,6,10,7,10,,,,,,,,,,,2654.0344,2654.5337,2654.7844,2667.4508,space,12.6622,0.0003,2667.4508,3,83,2668.4513,2668.4513,2668.4635,,,,0,24,24,24,1,145,45,,,,,,,,
,,5c5493207f5e0c000143e96e,65af5575928510ff1336ce44,2024-01-23_07h00.53.074,bars,2023.2.3,Linux x86_64,59.88023952,657b66ea316d21385b68909f,,,,,,,,,,,2668.4637,2669.4679,,,2669.9681,2670.2174,,10,190,,,,,,,,,,,,,,,,bars/032.png,bars/mask009.png,,,,,,,,,,,,5,2,,,,,,,4,8,4,8,,,,,,,,,,,2669.468,2669.9681,2670.2175,2683.3513,space,13.1256,,2683.3514,65,10,2684.3513,2684.3514,2684.3632,,,,0,25,25,25,1,125,20,,,,,,,,
,,5c5493207f5e0c000143e96e,65af5575928510ff1336ce44,2024-01-23_07h00.53.074,bars,2023.2.3,Linux x86_64,59.88023952,657b66ea316d21385b68909f,,,,,,,,,,,2684.3634,2685.3513,,,2685.8513,2686.1013,,7,7,,,,,,,,,,,,,,,,bars/040.png,bars/mask004.png,,,,,,,,,,,,9,2,,,,,,,2,10,3,10,,,,,,,,,,,2685.3513,2685.8513,2686.1013,2691.5513,space,5.4314,,2691.5514,47,2,2692.5513,2692.5513,2692.563,,,,0,26,26,26,1,140,5,,,,,,,,
,,5c5493207f5e0c000143e96e,65af5575928510ff1336ce44,2024-01-23_07h00.53.074,bars,2023.2.3,Linux x86_64,59.88023952,657b66ea316d21385b68909f,,,,,,,,,,,2692.5632,2693.5518,,,2694.0523,2694.3017,,84,264,,,,,,,,,,,,,,,,bars/018.png,bars/mask007.png,,,,,,,,,,,,7,2,,,,,,,0,8,0,9,,,,,,,,,,,2693.5519,2694.0523,2694.3018,2704.7681,space,10.4582,0.004,2704.7682,66,6,2705.7685,2705.7685,2705.7803,,,,0,27,27,27,1,150,90,,,,,,,,
,,5c5493207f5e0c000143e96e,65af5575928510ff1336ce44,2024-01-23_07h00.53.074,bars,2023.2.3,Linux x86_64,59.88023952,657b66ea316d21385b68909f,,,,,,,,,,,2705.7805,2706.7695,,,2707.2693,2707.5189,,71,71,,,,,,,,,,,,,,,,bars/007.png,bars/mask008.png,,,,,,,,,,,,5,2,,,,,,,0,10,0,10,,,,,,,,,,,2706.7696,2707.2691,2707.5189,2713.6853,space,6.1534,,2713.6854,76,16,2714.6848,2714.6849,2714.6958,,,,0,28,28,28,1,175,55,,,,,,,,
,,5c5493207f5e0c000143e96e,65af5575928510ff1336ce44,2024-01-23_07h00.53.074,bars,2023.2.3,Linux x86_64,59.88023952,657b66ea316d21385b68909f,,,,,,,,,,,2714.6961,2715.6857,,,2716.1853,2716.4351,,97,97,,,,,,,,,,,,,,,,bars/049.png,bars/mask009.png,,,,,,,,,,,,4,2,,,,,,,2,10,2,9,,,,,,,,,,,2715.6857,2716.1852,2716.4352,2724.3021,space,7.8586,,2724.3021,63,18,2725.3022,2725.3022,2725.3146,,,,0,29,29,29,1,160,115,,,,,,,,
,,5c5493207f5e0c000143e96e,65af5575928510ff1336ce44,2024-01-23_07h00.53.074,bars,2023.2.3,Linux x86_64,59.88023952,657b66ea316d21385b68909f,,,,,,,,,,,2725.3148,2726.3191,,,2726.8186,2727.0684,,46,46,,,,,,,,,,,,,,,,bars/033.png,bars/mask005.png,,,,,,,,,,,,0,1,,,,,,,0,8,0,8,,,,,,,,,,,2726.3191,2726.8185,2727.0684,2732.9025,space,5.8214,,2732.9025,21,71,2733.9024,2733.9024,2733.9147,,,,0,30,30,30,1,25,155,,,,,,,,
,,5c5493207f5e0c000143e96e,65af5575928510ff1336ce44,2024-01-23_07h00.53.074,bars,2023.2.3,Linux x86_64,59.88023952,657b66ea316d21385b68909f,,,,,,,,,,,2733.915,2734.9188,,,2735.4193,2735.6694,,102,282,,,,,,,,,,,,,,,,bars/025.png,bars/mask004.png,,,,,,,,,,,,3,1,,,,,,,2,10,3,9,,,,,,,,,,,2734.9188,2735.4192,2735.6695,2746.3531,space,10.6724,,2746.3532,3,62,2747.3525,2747.3525,2747.3629,,,,0,31,31,31,1,105,40,,,,,,,,
,,5c5493207f5e0c000143e96e,65af5575928510ff1336ce44,2024-01-23_07h00.53.074,bars,2023.2.3,Linux x86_64,59.88023952,657b66ea316d21385b68909f,,,,,,,,,,,2747.3631,2748.3532,,,2748.8529,2749.1029,,103,103,,,,,,,,,,,,,,,,bars/019.png,bars/mask005.png,,,,,,,,,,,,9,2,,,,,,,4,10,3,10,,,,,,,,,,,2748.3533,2748.8529,2749.103,2757.2868,space,8.1747,,2757.2868,58,2,2758.2867,2758.2867,2758.299,,,,0,32,32,32,1,45,105,,,,,,,,
,,5c5493207f5e0c000143e96e,65af5575928510ff1336ce44,2024-01-23_07h00.53.074,bars,2023.2.3,Linux x86_64,59.88023952,657b66ea316d21385b68909f,,,,,,,,,,,2758.2992,2759.3029,,,2759.8029,2760.0527,,144,144,,,,,,,,,,,,,,,,bars/044.png,bars/mask001.png,,,,,,,,,,,,6,2,,,,,,,2,10,4,10,,,,,,,,,,,2759.3029,2759.8028,2760.0528,2766.9696,space,6.9014,,2766.9697,69,11,2767.9706,2767.9707,2767.9826,,,,0,33,33,33,1,75,155,,,,,,,,
,,5c5493207f5e0c000143e96e,65af5575928510ff1336ce44,2024-01-23_07h00.53.074,bars,2023.2.3,Linux x86_64,59.88023952,657b66ea316d21385b68909f,,,,,,,,,,,2767.9829,2768.9861,,,2769.4867,2769.7366,,83,83,,,,,,,,,,,,,,,,bars/001.png,bars/mask008.png,,,,,,,,,,,,7,2,,,,,,,0,8,0,8,,,,,,,,,,,2768.9862,2769.4867,2769.7366,2775.0698,space,5.3191,,2775.0699,47,2,2776.0702,2776.0703,2776.0822,,,,0,34,34,34,1,130,85,,,,,,,,
,,5c5493207f5e0c000143e96e,65af5575928510ff1336ce44,2024-01-23_07h00.53.074,bars,2023.2.3,Linux x86_64,59.88023952,657b66ea316d21385b68909f,,,,,,,,,,,2776.0824,2777.0865,,,2777.5868,2777.8367,,26,26,,,,,,,,,,,,,,,,bars/025.png,bars/mask009.png,,,,,,,,,,,,3,2,,,,,,,2,6,2,6,,,,,,,,,,,2777.0865,2777.5867,2777.8367,2784.7033,space,6.855,0.0003,2784.7033,79,14,2785.7031,2785.7032,2785.7135,,,,0,35,35,35,1,105,40,,,,,,,,
,,5c5493207f5e0c000143e96e,65af5575928510ff1336ce44,2024-01-23_07h00.53.074,bars,2023.2.3,Linux x86_64,59.88023952,657b66ea316d21385b68909f,,,,,,,,,,,2785.7137,2786.7034,,,2787.2033,2787.4541,,174,-6,,,,,,,,,,,,,,,,bars/036.png,bars/mask006.png,,,,,,,,,,,,1,2,,,,,,,4,4,4,4,,,,,,,,,,,2786.7035,2787.2033,2787.4541,2795.3543,space,7.8971,,2795.3545,29,26,2796.3534,2796.3534,2796.3644,,,,0,36,36,36,1,145,20,,,,,,,,
,,5c5493207f5e0c000143e96e,65af5575928510ff1336ce44,2024-01-23_07h00.53.074,bars,2023.2.3,Linux x86_64,59.88023952,657b66ea316d21385b68909f,,,,,,,,,,,2796.3647,2797.3539,,,2797.8544,2798.1037,,34,34,,,,,,,,,,,,,,,,bars/004.png,bars/mask001.png,,,,,,,,,,,,2,1,,,,,,,2,6,3,8,,,,,,,,,,,2797.3539,2797.8544,2798.1037,2803.2877,space,5.1693,,2803.2878,9,89,2804.2875,2804.2876,2804.2994,,,,0,37,37,37,1,25,125,,,,,,,,
,,5c5493207f5e0c000143e96e,65af5575928510ff1336ce44,2024-01-23_07h00.53.074,bars,2023.2.3,Linux x86_64,59.88023952,657b66ea316d21385b68909f,,,,,,,,,,,2804.2998,2805.2875,,,2805.7877,2806.0379,,48,48,,,,,,,,,,,,,,,,bars/017.png,bars/mask008.png,,,,,,,,,,,,6,2,,,,,,,4,8,4,7,,,,,,,,,,,2805.2876,2805.7877,2806.038,2814.3042,space,8.2578,,2814.3043,83,3,2815.3044,2815.3045,2815.3186,,,,0,38,38,38,1,145,45,,,,,,,,
,,5c5493207f5e0c000143e96e,65af5575928510ff1336ce44,2024-01-23_07h00.53.074,bars,2023.2.3,Linux x86_64,59.88023952,657b66ea316d21385b68909f,,,,,,,,,,,2815.3189,2816.3209,,,2816.8205,2817.071,,85,85,,,,,,,,,,,,,,,,bars/002.png,bars/mask002.png,,,,,,,,,,,,10,2,,,,,,,6,10,5,10,,,,,,,,,,,2816.3209,2816.8204,2817.071,2821.3207,space,4.2447,,2821.3208,45,0,2822.3214,2822.3215,2822.3333,,,,0,39,39,39,1,130,85,,,,,,,,
,,5c5493207f5e0c000143e96e,65af5575928510ff1336ce44,2024-01-23_07h00.53.074,bars,2023.2.3,Linux x86_64,59.88023952,657b66ea316d21385b68909f,,,,,,,,,,,2822.3336,2823.3379,,,2823.8384,2824.088,,87,87,,,,,,,,,,,,,,,,bars/026.png,bars/mask004.png,,,,,,,,,,,,7,2,,,,,,,8,8,6,8,,,,,,,,,,,2823.3379,2823.8383,2824.088,2831.055,space,6.9525,,2831.0551,52,2,2832.0543,2832.0543,2832.0647,,,,0,40,40,40,1,35,85,,,,,,,,
,,5c5493207f5e0c000143e96e,65af5575928510ff1336ce44,2024-01-23_07h00.53.074,bars,2023.2.3,Linux x86_64,59.88023952,657b66ea316d21385b68909f,,,,,,,,,,,2832.0649,2833.0542,,,2833.555,2833.8047,,107,107,,,,,,,,,,,,,,,,bars/049.png,bars/mask008.png,,,,,,,,,,,,4,2,,,,,,,6,6,5,6,,,,,,,,,,,2833.0543,2833.555,2833.8047,2840.5046,space,6.6861,,2840.5046,53,8,2841.5043,2841.5043,2841.5145,,,,0,41,41,41,1,160,115,,,,,,,,
,,5c5493207f5e0c000143e96e,65af5575928510ff1336ce44,2024-01-23_07h00.53.074,bars,2023.2.3,Linux x86_64,59.88023952,657b66ea316d21385b68909f,,,,,,,,,,,2841.5148,2842.5045,,,2843.0043,2843.2549,,128,128,,,,,,,,,,,,,,,,bars/017.png,bars/mask008.png,,,,,,,,,,,,3,1,,,,,,,4,8,6,7,,,,,,,,,,,2842.5046,2843.0043,2843.2549,2850.8886,space,7.6259,,2850.8887,17,83,2851.8881,2851.8882,2851.8995,,,,0,42,42,42,1,145,45,,,,,,,,
,,5c5493207f5e0c000143e96e,65af5575928510ff1336ce44,2024-01-23_07h00.53.074,bars,2023.2.3,Linux x86_64,59.88023952,657b66ea316d21385b68909f,,,,,,,,,,,2851.8999,2852.8889,,,2853.3879,2853.6384,,9,189,,,,,,,,,,,,,,,,bars/023.png,bars/mask001.png,,,,,,,,,,,,3,1,,,,,,,6,10,5,9,,,,,,,,,,,2852.889,2853.3878,2853.6384,2861.6889,space,8.0408,,2861.689,11,74,2862.6881,2862.6882,2862.699,,,,0,43,43,43,1,20,115,,,,,,,,
,,5c5493207f5e0c000143e96e,65af5575928510ff1336ce44,2024-01-23_07h00.53.074,bars,2023.2.3,Linux x86_64,59.88023952,657b66ea316d21385b68909f,,,,,,,,,,,2862.6992,2863.689,,,2864.1884,2864.4388,,25,25,,,,,,,,,,,,,,,,bars/016.png,bars/mask007.png,,,,,,,,,,,,2,1,,,,,,,4,8,4,6,,,,,,,,,,,2863.6891,2864.1882,2864.4388,2869.2059,space,4.7579,,2869.2059,15,40,2870.206,2870.206,2870.2165,,,,0,44,44,44,1,40,165,,,,,,,,
,,5c5493207f5e0c000143e96e,65af5575928510ff1336ce44,2024-01-23_07h00.53.074,bars,2023.2.3,Linux x86_64,59.88023952,657b66ea316d21385b68909f,,,,,,,,,,,2870.2167,2871.2051,,,2871.7051,2871.9557,,91,91,,,,,,,,,,,,,,,,bars/018.png,bars/mask006.png,,,,,,,,,,,,8,2,,,,,,,6,10,6,8,,,,,,,,,,,2871.2051,2871.7051,2871.9557,2879.0227,space,7.0524,,2879.0228,59,1,2880.0223,2880.0223,2880.0333,,,,0,45,45,45,1,150,90,,,,,,,,
,,5c5493207f5e0c000143e96e,65af5575928510ff1336ce44,2024-01-23_07h00.53.074,bars,2023.2.3,Linux x86_64,59.88023952,657b66ea316d21385b68909f,,,,,,,,,,,2880.0337,2881.0225,,,2881.5224,2881.7723,,9,9,,,,,,,,,,,,,,,,bars/040.png,bars/mask008.png,,,,,,,,,,,,9,2,,,,,,,8,10,9,10,,,,,,,,,,,2881.0225,2881.5223,2881.7723,2886.8895,space,5.1098,,2886.8896,49,4,2887.8896,2887.8897,2887.9004,,,,0,46,46,46,1,140,5,,,,,,,,
,,5c5493207f5e0c000143e96e,65af5575928510ff1336ce44,2024-01-23_07h00.53.074,bars,2023.2.3,Linux x86_64,59.88023952,657b66ea316d21385b68909f,,,,,,,,,,,2887.9006,2888.8887,,,2889.3888,2889.6388,,105,285,,,,,,,,,,,,,,,,bars/009.png,bars/mask008.png,,,,,,,,,,,,8,2,,,,,,,10,8,10,8,,,,,,,,,,,2888.8888,2889.3888,2889.6389,2898.0562,space,8.4021,,2898.0563,90,0,2899.056,2899.0561,2899.0673,,,,0,47,47,47,1,15,105,,,,,,,,
,,5c5493207f5e0c000143e96e,65af5575928510ff1336ce44,2024-01-23_07h00.53.074,bars,2023.2.3,Linux x86_64,59.88023952,657b66ea316d21385b68909f,,,,,,,,,,,2899.0676,2900.0569,,,2900.5561,2900.806,,78,78,,,,,,,,,,,,,,,,bars/038.png,bars/mask006.png,,,,,,,,,,,,5,2,,,,,,,10,6,10,7,,,,,,,,,,,2900.0569,2900.556,2900.806,2905.8399,space,5.0175,,2905.84,87,8,2906.8392,2906.8392,2906.852,,,,0,48,48,48,1,165,70,,,,,,,,
,,5c5493207f5e0c000143e96e,65af5575928510ff1336ce44,2024-01-23_07h00.53.074,bars,2023.2.3,Linux x86_64,59.88023952,657b66ea316d21385b68909f,,,,,,,,,,,2906.8522,2907.8399,,,2908.3401,2908.59,,95,95,,,,,,,,,,,,,,,,bars/041.png,bars/mask004.png,,,,,,,,,,,,5,2,,,,,,,8,8,8,7,,,,,,,,,,,2907.8401,2908.3401,2908.59,2917.1233,space,8.5221,0.0003,2917.1233,75,10,2918.1229,2918.123,2918.1364,,,,0,49,49,49,1,20,85,,,,,,,,
,,5c5493207f5e0c000143e96e,65af5575928510ff1336ce44,2024-01-23_07h00.53.074,bars,2023.2.3,Linux x86_64,59.88023952,657b66ea316d21385b68909f,,,,,,,,,,,,,,,,,,,,,,,,,,,,,,,,,,,,,,,,,,,,,,,,,,,,,,,,,,,,,,,,,,,,,,,,,,,,,,,,,,,,,,,,,,,,,2918.1366,2978.1247,0,3,3,4,1,sequence_tables/blk032.csv
,,5c5493207f5e0c000143e96e,65af5575928510ff1336ce44,2024-01-23_07h00.53.074,bars,2023.2.3,Linux x86_64,59.88023952,657b66ea316d21385b68909f,,,,,,,,,,,2980.1791,2981.1749,,,2981.6749,2981.925,,108,108,,,,,,,,,,,,,,,,bars/049.png,bars/mask001.png,,,,,,,,,,,,1,2,,,,,,,4,1,4,1,,,,,,2978.1358,2980.1744,space,2.0189,0.0002,2981.1749,2981.6749,2981.9251,2987.7909,space,5.8509,,2987.7909,52,7,2988.7909,2988.7909,2988.8021,,,,0,0,0,0,1,160,115,,,,,,,,
,,5c5493207f5e0c000143e96e,65af5575928510ff1336ce44,2024-01-23_07h00.53.074,bars,2023.2.3,Linux x86_64,59.88023952,657b66ea316d21385b68909f,,,,,,,,,,,2988.8023,2989.7916,,,2990.291,2990.5417,,111,111,,,,,,,,,,,,,,,,bars/002.png,bars/mask000.png,,,,,,,,,,,,3,1,,,,,,,6,0,8,0,,,,,,,,,,,2989.7916,2990.291,2990.5417,2996.5582,space,6.005,,2996.5583,19,26,2997.558,2997.558,2997.5704,,,,0,1,1,1,1,130,85,,,,,,,,
,,5c5493207f5e0c000143e96e,65af5575928510ff1336ce44,2024-01-23_07h00.53.074,bars,2023.2.3,Linux x86_64,59.88023952,657b66ea316d21385b68909f,,,,,,,,,,,2997.5706,2998.5584,,,2999.0587,2999.3083,,15,15,,,,,,,,,,,,,,,,bars/022.png,bars/mask006.png,,,,,,,,,,,,2,2,,,,,,,4,2,2,2,,,,,,,,,,,2998.5584,2999.0587,2999.3083,3002.8588,space,3.5383,,3002.8588,80,5,3003.8583,3003.8584,3003.869,,,,0,2,2,2,1,95,20,,,,,,,,
,,5c5493207f5e0c000143e96e,65af5575928510ff1336ce44,2024-01-23_07h00.53.074,bars,2023.2.3,Linux x86_64,59.88023952,657b66ea316d21385b68909f,,,,,,,,,,,3003.8692,3004.8586,,,3005.3587,3005.6077,,6,6,,,,,,,,,,,,,,,,bars/014.png,bars/mask002.png,,,,,,,,,,,,0,2,,,,,,,2,0,2,0,,,,,,,,,,,3004.8586,3005.3587,3005.6078,3012.4758,space,6.8591,0.0002,3012.4758,74,6,3013.4748,3013.4748,3013.4859,,,,0,3,3,3,1,80,0,,,,,,,,
,,5c5493207f5e0c000143e96e,65af5575928510ff1336ce44,2024-01-23_07h00.53.074,bars,2023.2.3,Linux x86_64,59.88023952,657b66ea316d21385b68909f,,,,,,,,,,,3013.4861,3014.4753,,,3014.975,3015.2249,,157,-23,,,,,,,,,,,,,,,,bars/018.png,bars/mask007.png,,,,,,,,,,,,3,1,,,,,,,4,0,4,0,,,,,,,,,,,3014.4753,3014.975,3015.225,3022.9754,space,7.7359,,3022.9754,7,67,3023.9758,3023.9758,3023.988,,,,0,4,4,4,1,150,90,,,,,,,,
,,5c5493207f5e0c000143e96e,65af5575928510ff1336ce44,2024-01-23_07h00.53.074,bars,2023.2.3,Linux x86_64,59.88023952,657b66ea316d21385b68909f,,,,,,,,,,,3023.9883,3024.9924,,,3025.4919,3025.7419,,28,28,,,,,,,,,,,,,,,,bars/000.png,bars/mask008.png,,,,,,,,,,,,2,1,,,,,,,2,2,3,1,,,,,,,,,,,3024.9924,3025.4919,3025.742,3030.393,space,4.6439,,3030.393,12,63,3031.392,3031.392,3031.4037,,,,0,5,5,5,1,40,145,,,,,,,,
