init_variables.started,init_variables.stopped,participant,session,date,expName,psychopyVersion,OS,frameRate,study_id,instruction_exp.started,instruction_exp.stopped,key_resp_8.keys,key_resp_8.rt,key_resp_8.duration,instruction_single.started,instruction_single.stopped,key_resp_2.keys,key_resp_2.rt,key_resp_2.duration,interval.started,interval.stopped,cue_single.started,cue_single.stopped,mask.started,mask.stopped,ori_response_single.started,res_ori,res,ori_response_single.stopped,key_resp_single.keys,key_resp_single.rt,key_resp_single.duration,disp_single.started,disp_single.stopped,key_resp.keys,key_resp.rt,key_resp.duration,single.thisRepN,single.thisTrialN,single.thisN,single.thisIndex,single.ran,ori,path,mask_path,instruction_bandit.started,instruction_bandit.stopped,key_resp_6.keys,key_resp_6.rt,key_resp_6.duration,cue_bandit.started,cue_bandit.stopped,bandit_res.keys,bandit_res.rt,bandit_res.duration,outcome_bandit.started,rew,action,outcome_bandit.stopped,bandit.thisRepN,bandit.thisTrialN,bandit.thisN,bandit.thisIndex,bandit.ran,actual_rew1,actual_rew2,rew1,rew2,instruction_task.started,instruction_task.stopped,key_resp_7.keys,key_resp_7.rt,key_resp_7.duration,wait_ready.started,wait_ready.stopped,key_resp_3.keys,key_resp_3.rt,key_resp_3.duration,cue.started,cue.stopped,ori_response.started,ori_response.stopped,key_resp_5.keys,key_resp_5.rt,key_resp_5.duration,outcome.started,diff1,diff2,outcome.stopped,disp_outcome_practice.started,disp_outcome_practice.stopped,key_resp_4.keys,key_resp_4.rt,key_resp_4.duration,trials.thisRepN,trials.thisTrialN,trials.thisN,trials.thisIndex,trials.ran,ori1,ori2,break_blk.started,break_blk.stopped,block.thisRepN,block.thisTrialN,block.thisN,block.thisIndex,block.ran,condition_file
0.001,0.001,611117d79c57e6744e059bc4,65af54b33f5fcc7f4ffca785,2024-01-23_07h56.30.199,bars,2023.2.3,Win32,8.474576271,657b66ea316d21385b68909f,,,,,,,,,,,,,,,,,,,,,,,,,,,,,,,,,,,,,,,,,,,,,,,,,,,,,,,,,,,,,,,,,,,,,,,,,,,,,,,,,,,,,,,,,,,,,,,,,,,,
,,611117d79c57e6744e059bc4,65af54b33f5fcc7f4ffca785,2024-01-23_07h56.30.199,bars,2023.2.3,Win32,8.474576271,657b66ea316d21385b68909f,0.001,12.313,y,12.178,,,,,,,,,,,,,,,,,,,,,,,,,,,,,,,,,,,,,,,,,,,,,,,,,,,,,,,,,,,,,,,,,,,,,,,,,,,,,,,,,,,,,,,,,,,,,,,,
,,611117d79c57e6744e059bc4,65af54b33f5fcc7f4ffca785,2024-01-23_07h56.30.199,bars,2023.2.3,Win32,8.474576271,657b66ea316d21385b68909f,,,,,,12.313,28.462,space,16.017,,,,,,,,,,,,,,,,,,,,,,,,,,,,,,,,,,,,,,,,,,,,,,,,,,,,,,,,,,,,,,,,,,,,,,,,,,,,,,,,,,,,,,,,,,,
,,611117d79c57e6744e059bc4,65af54b33f5fcc7f4ffca785,2024-01-23_07h56.30.199,bars,2023.2.3,Win32,8.474576271,657b66ea316d21385b68909f,,,,,,,,,,,28.466,29.416,29.416,29.887,29.887,30.025,30.025,6,186,37.587,space,7.406,,37.587,45.754,space,8.029,,0,0,0,3,1,20,bars/single003.png,bars/mask005.png,,,,,,,,,,,,,,,,,,,,,,,,,,,,,,,,,,,,,,,,,,,,,,,,,,,,,,,,,,,,,,,,
,,611117d79c57e6744e059bc4,65af54b33f5fcc7f4ffca785,2024-01-23_07h56.30.199,bars,2023.2.3,Win32,8.474576271,657b66ea316d21385b68909f,,,,,,,,,,,45.763,46.694,46.694,47.102,47.102,47.384,47.384,34,34,51.592,space,4.077,,51.592,53.998,space,2.269,,0,1,1,7,1,45,bars/single007.png,bars/mask009.png,,,,,,,,,,,,,,,,,,,,,,,,,,,,,,,,,,,,,,,,,,,,,,,,,,,,,,,,,,,,,,,,
,,611117d79c57e6744e059bc4,65af54b33f5fcc7f4ffca785,2024-01-23_07h56.30.199,bars,2023.2.3,Win32,8.474576271,657b66ea316d21385b68909f,,,,,,,,,,,53.998,54.933,54.933,55.347,55.347,55.485,55.485,162,-18,65.063,space,9.45,,65.063,67.048,space,1.853,,0,2,2,0,1,150,bars/single000.png,bars/mask006.png,,,,,,,,,,,,,,,,,,,,,,,,,,,,,,,,,,,,,,,,,,,,,,,,,,,,,,,,,,,,,,,,
,,611117d79c57e6744e059bc4,65af54b33f5fcc7f4ffca785,2024-01-23_07h56.30.199,bars,2023.2.3,Win32,8.474576271,657b66ea316d21385b68909f,,,,,,,,,,,67.049,68.045,68.045,68.454,68.454,68.732,68.732,1,1,76.611,space,7.751,,76.611,79.742,space,2.996,,0,3,3,2,1,145,bars/single002.png,bars/mask003.png,,,,,,,,,,,,,,,,,,,,,,,,,,,,,,,,,,,,,,,,,,,,,,,,,,,,,,,,,,,,,,,,
,,611117d79c57e6744e059bc4,65af54b33f5fcc7f4ffca785,2024-01-23_07h56.30.199,bars,2023.2.3,Win32,8.474576271,657b66ea316d21385b68909f,,,,,,,,,,,79.75,80.67,80.67,81.084,81.084,81.357,81.357,171,-9,87.531,space,6.041,0,87.531,92.484,space,4.82,,0,4,4,6,1,175,bars/single006.png,bars/mask005.png,,,,,,,,,,,,,,,,,,,,,,,,,,,,,,,,,,,,,,,,,,,,,,,,,,,,,,,,,,,,,,,,
,,611117d79c57e6744e059bc4,65af54b33f5fcc7f4ffca785,2024-01-23_07h56.30.199,bars,2023.2.3,Win32,8.474576271,657b66ea316d21385b68909f,,,,,,,,,,,92.493,93.419,93.419,93.835,93.835,94.106,94.106,47,47,96.057,space,1.823,,96.057,100.111,space,3.924,,0,5,5,9,1,20,bars/single009.png,bars/mask006.png,,,,,,,,,,,,,,,,,,,,,,,,,,,,,,,,,,,,,,,,,,,,,,,,,,,,,,,,,,,,,,,,
,,611117d79c57e6744e059bc4,65af54b33f5fcc7f4ffca785,2024-01-23_07h56.30.199,bars,2023.2.3,Win32,8.474576271,657b66ea316d21385b68909f,,,,,,,,,,,100.119,101.052,101.052,101.461,101.461,101.76,101.76,169,-11,108.137,space,6.246,,108.137,109.688,space,1.42,,0,6,6,8,1,160,bars/single008.png,bars/mask004.png,,,,,,,,,,,,,,,,,,,,,,,,,,,,,,,,,,,,,,,,,,,,,,,,,,,,,,,,,,,,,,,,
,,611117d79c57e6744e059bc4,65af54b33f5fcc7f4ffca785,2024-01-23_07h56.30.199,bars,2023.2.3,Win32,8.474576271,657b66ea316d21385b68909f,,,,,,,,,,,109.689,110.616,110.616,111.027,111.028,111.299,111.299,75,75,116.514,space,5.082,,116.514,119.779,space,3.133,,0,7,7,5,1,55,bars/single005.png,bars/mask008.png,,,,,,,,,,,,,,,,,,,,,,,,,,,,,,,,,,,,,,,,,,,,,,,,,,,,,,,,,,,,,,,,
,,611117d79c57e6744e059bc4,65af54b33f5fcc7f4ffca785,2024-01-23_07h56.30.199,bars,2023.2.3,Win32,8.474576271,657b66ea316d21385b68909f,,,,,,,,,,,119.779,120.717,120.717,121.125,121.125,121.397,121.397,84,84,127.044,space,5.515,,127.044,131.389,space,4.214,,0,8,8,4,1,95,bars/single004.png,bars/mask004.png,,,,,,,,,,,,,,,,,,,,,,,,,,,,,,,,,,,,,,,,,,,,,,,,,,,,,,,,,,,,,,,,
,,611117d79c57e6744e059bc4,65af54b33f5fcc7f4ffca785,2024-01-23_07h56.30.199,bars,2023.2.3,Win32,8.474576271,657b66ea316d21385b68909f,,,,,,,,,,,131.398,132.334,132.334,132.74,132.74,133.016,133.016,4,184,141.104,space,7.961,,141.104,142.997,space,1.762,,0,9,9,1,1,20,bars/single001.png,bars/mask006.png,,,,,,,,,,,,,,,,,,,,,,,,,,,,,,,,,,,,,,,,,,,,,,,,,,,,,,,,,,,,,,,,
,,611117d79c57e6744e059bc4,65af54b33f5fcc7f4ffca785,2024-01-23_07h56.30.199,bars,2023.2.3,Win32,8.474576271,657b66ea316d21385b68909f,,,,,,,,,,,,,,,,,,,,,,,,,,,,,,,,,,,,,142.998,156.544,space,13.412,,,,,,,,,,,,,,,,,,,,,,,,,,,,,,,,,,,,,,,,,,,,,,,,,,,,,,,,,,,,
,,611117d79c57e6744e059bc4,65af54b33f5fcc7f4ffca785,2024-01-23_07h56.30.199,bars,2023.2.3,Win32,8.474576271,657b66ea316d21385b68909f,,,,,,,,,,,,,,,,,,,,,,,,,,,,,,,,,,,,,,,,,,156.554,160.178,left,3.489,,160.178,9,1,161.111,0,0,0,0,1,9,1,9,2,,,,,,,,,,,,,,,,,,,,,,,,,,,,,,,,,,,,,,,,,
,,611117d79c57e6744e059bc4,65af54b33f5fcc7f4ffca785,2024-01-23_07h56.30.199,bars,2023.2.3,Win32,8.474576271,657b66ea316d21385b68909f,,,,,,,,,,,,,,,,,,,,,,,,,,,,,,,,,,,,,,,,,,161.112,163.058,right,1.815,,163.058,1,2,164.032,0,1,1,1,1,10,0,10,1,,,,,,,,,,,,,,,,,,,,,,,,,,,,,,,,,,,,,,,,,
,,611117d79c57e6744e059bc4,65af54b33f5fcc7f4ffca785,2024-01-23_07h56.30.199,bars,2023.2.3,Win32,8.474576271,657b66ea316d21385b68909f,,,,,,,,,,,,,,,,,,,,,,,,,,,,,,,,,,,,,,,,,,164.032,164.722,left,0.561,,164.722,10,1,165.654,0,2,2,2,1,10,2,10,2,,,,,,,,,,,,,,,,,,,,,,,,,,,,,,,,,,,,,,,,,
,,611117d79c57e6744e059bc4,65af54b33f5fcc7f4ffca785,2024-01-23_07h56.30.199,bars,2023.2.3,Win32,8.474576271,657b66ea316d21385b68909f,,,,,,,,,,,,,,,,,,,,,,,,,,,,,,,,,,,,,,,,,,165.655,166.342,left,0.557,,166.342,7,1,167.268,0,3,3,3,1,8,4,7,3,,,,,,,,,,,,,,,,,,,,,,,,,,,,,,,,,,,,,,,,,
,,611117d79c57e6744e059bc4,65af54b33f5fcc7f4ffca785,2024-01-23_07h56.30.199,bars,2023.2.3,Win32,8.474576271,657b66ea316d21385b68909f,,,,,,,,,,,,,,,,,,,,,,,,,,,,,,,,,,,,,,,,,,167.268,168.232,left,0.836,,168.232,5,1,169.163,0,4,4,4,1,6,2,5,1,,,,,,,,,,,,,,,,,,,,,,,,,,,,,,,,,,,,,,,,,
,,611117d79c57e6744e059bc4,65af54b33f5fcc7f4ffca785,2024-01-23_07h56.30.199,bars,2023.2.3,Win32,8.474576271,657b66ea316d21385b68909f,,,,,,,,,,,,,,,,,,,,,,,,,,,,,,,,,,,,,,,,,,169.164,169.855,right,0.563,,169.855,4,2,170.83,0,5,5,5,1,4,4,4,4,,,,,,,,,,,,,,,,,,,,,,,,,,,,,,,,,,,,,,,,,
,,611117d79c57e6744e059bc4,65af54b33f5fcc7f4ffca785,2024-01-23_07h56.30.199,bars,2023.2.3,Win32,8.474576271,657b66ea316d21385b68909f,,,,,,,,,,,,,,,,,,,,,,,,,,,,,,,,,,,,,,,,,,170.83,171.242,left,0.283,,171.242,1,1,172.177,0,6,6,6,1,2,2,1,2,,,,,,,,,,,,,,,,,,,,,,,,,,,,,,,,,,,,,,,,,
,,611117d79c57e6744e059bc4,65af54b33f5fcc7f4ffca785,2024-01-23_07h56.30.199,bars,2023.2.3,Win32,8.474576271,657b66ea316d21385b68909f,,,,,,,,,,,,,,,,,,,,,,,,,,,,,,,,,,,,,,,,,,172.177,172.873,left,0.564,,172.873,0,1,173.808,0,7,7,7,1,0,0,0,1,,,,,,,,,,,,,,,,,,,,,,,,,,,,,,,,,,,,,,,,,
,,611117d79c57e6744e059bc4,65af54b33f5fcc7f4ffca785,2024-01-23_07h56.30.199,bars,2023.2.3,Win32,8.474576271,657b66ea316d21385b68909f,,,,,,,,,,,,,,,,,,,,,,,,,,,,,,,,,,,,,,,,,,173.808,174.364,right,0.427,0,174.364,0,2,175.293,0,8,8,8,1,0,2,1,0,,,,,,,,,,,,,,,,,,,,,,,,,,,,,,,,,,,,,,,,,
,,611117d79c57e6744e059bc4,65af54b33f5fcc7f4ffca785,2024-01-23_07h56.30.199,bars,2023.2.3,Win32,8.474576271,657b66ea316d21385b68909f,,,,,,,,,,,,,,,,,,,,,,,,,,,,,,,,,,,,,,,,,,175.294,175.57,left,0.147,,175.57,2,1,176.495,0,9,9,9,1,2,4,2,3,,,,,,,,,,,,,,,,,,,,,,,,,,,,,,,,,,,,,,,,,
,,611117d79c57e6744e059bc4,65af54b33f5fcc7f4ffca785,2024-01-23_07h56.30.199,bars,2023.2.3,Win32,8.474576271,657b66ea316d21385b68909f,,,,,,,,,,,,,,,,,,,,,,,,,,,,,,,,,,,,,,,,,,176.495,176.633,right,0.009,,176.633,3,2,177.581,0,10,10,10,1,0,2,0,3,,,,,,,,,,,,,,,,,,,,,,,,,,,,,,,,,,,,,,,,,
,,611117d79c57e6744e059bc4,65af54b33f5fcc7f4ffca785,2024-01-23_07h56.30.199,bars,2023.2.3,Win32,8.474576271,657b66ea316d21385b68909f,,,,,,,,,,,,,,,,,,,,,,,,,,,,,,,,,,,,,,,,,,177.581,177.854,right,0.144,,177.854,3,2,178.774,0,11,11,11,1,0,4,0,3,,,,,,,,,,,,,,,,,,,,,,,,,,,,,,,,,,,,,,,,,
,,611117d79c57e6744e059bc4,65af54b33f5fcc7f4ffca785,2024-01-23_07h56.30.199,bars,2023.2.3,Win32,8.474576271,657b66ea316d21385b68909f,,,,,,,,,,,,,,,,,,,,,,,,,,,,,,,,,,,,,,,,,,178.775,180.45,left,1.546,,180.45,1,1,181.369,0,12,12,12,1,2,6,1,6,,,,,,,,,,,,,,,,,,,,,,,,,,,,,,,,,,,,,,,,,
,,611117d79c57e6744e059bc4,65af54b33f5fcc7f4ffca785,2024-01-23_07h56.30.199,bars,2023.2.3,Win32,8.474576271,657b66ea316d21385b68909f,,,,,,,,,,,,,,,,,,,,,,,,,,,,,,,,,,,,,,,,,,181.378,182.479,right,0.977,,182.479,3,2,183.422,0,13,13,13,1,0,4,1,3,,,,,,,,,,,,,,,,,,,,,,,,,,,,,,,,,,,,,,,,,
,,611117d79c57e6744e059bc4,65af54b33f5fcc7f4ffca785,2024-01-23_07h56.30.199,bars,2023.2.3,Win32,8.474576271,657b66ea316d21385b68909f,,,,,,,,,,,,,,,,,,,,,,,,,,,,,,,,,,,,,,,,,,183.422,185.522,right,1.973,,185.522,7,2,186.454,0,14,14,14,1,2,6,2,7,,,,,,,,,,,,,,,,,,,,,,,,,,,,,,,,,,,,,,,,,
,,611117d79c57e6744e059bc4,65af54b33f5fcc7f4ffca785,2024-01-23_07h56.30.199,bars,2023.2.3,Win32,8.474576271,657b66ea316d21385b68909f,,,,,,,,,,,,,,,,,,,,,,,,,,,,,,,,,,,,,,,,,,186.454,188.243,right,1.657,,188.244,9,2,189.183,0,15,15,15,1,4,8,3,9,,,,,,,,,,,,,,,,,,,,,,,,,,,,,,,,,,,,,,,,,
,,611117d79c57e6744e059bc4,65af54b33f5fcc7f4ffca785,2024-01-23_07h56.30.199,bars,2023.2.3,Win32,8.474576271,657b66ea316d21385b68909f,,,,,,,,,,,,,,,,,,,,,,,,,,,,,,,,,,,,,,,,,,189.183,189.878,left,0.559,,189.878,7,1,190.802,0,16,16,16,1,6,6,7,7,,,,,,,,,,,,,,,,,,,,,,,,,,,,,,,,,,,,,,,,,
,,611117d79c57e6744e059bc4,65af54b33f5fcc7f4ffca785,2024-01-23_07h56.30.199,bars,2023.2.3,Win32,8.474576271,657b66ea316d21385b68909f,,,,,,,,,,,,,,,,,,,,,,,,,,,,,,,,,,,,,,,,,,190.802,191.354,left,0.424,,191.354,9,1,192.311,0,17,17,17,1,8,4,9,5,,,,,,,,,,,,,,,,,,,,,,,,,,,,,,,,,,,,,,,,,
,,611117d79c57e6744e059bc4,65af54b33f5fcc7f4ffca785,2024-01-23_07h56.30.199,bars,2023.2.3,Win32,8.474576271,657b66ea316d21385b68909f,,,,,,,,,,,,,,,,,,,,,,,,,,,,,,,,,,,,,,,,,,192.311,193.005,right,0.566,,193.005,1,2,193.93,0,18,18,18,1,6,2,5,1,,,,,,,,,,,,,,,,,,,,,,,,,,,,,,,,,,,,,,,,,
,,611117d79c57e6744e059bc4,65af54b33f5fcc7f4ffca785,2024-01-23_07h56.30.199,bars,2023.2.3,Win32,8.474576271,657b66ea316d21385b68909f,,,,,,,,,,,,,,,,,,,,,,,,,,,,,,,,,,,,,,,,,,193.93,194.615,left,0.557,,194.615,7,1,195.57,0,19,19,19,1,8,0,7,0,,,,,,,,,,,,,,,,,,,,,,,,,,,,,,,,,,,,,,,,,
,,611117d79c57e6744e059bc4,65af54b33f5fcc7f4ffca785,2024-01-23_07h56.30.199,bars,2023.2.3,Win32,8.474576271,657b66ea316d21385b68909f,,,,,,,,,,,,,,,,,,,,,,,,,,,,,,,,,,,,,,,,,,,,,,,,,,,,,,,,,,,,195.571,208.203,space,12.487,,,,,,,,,,,,,,,,,,,,,,,,,,,,,,,,,,,,,
,,611117d79c57e6744e059bc4,65af54b33f5fcc7f4ffca785,2024-01-23_07h56.30.199,bars,2023.2.3,Win32,8.474576271,657b66ea316d21385b68909f,,,,,,,,,,,209.287,210.215,,,210.629,210.906,,158,-22,,,,,,,,,,,,,,,,bars/000.png,bars/mask009.png,,,,,,,,,,,,3,2,,,,,,,5,5,4,5,,,,,,208.214,209.284,space,0.95,,210.215,210.629,210.906,219.319,space,8.283,,219.319,62,13,220.268,220.268,224.579,space,4.172,,0,0,0,0,1,40,145,,,,,,,,
,,611117d79c57e6744e059bc4,65af54b33f5fcc7f4ffca785,2024-01-23_07h56.30.199,bars,2023.2.3,Win32,8.474576271,657b66ea316d21385b68909f,,,,,,,,,,,224.587,225.514,,,225.93,226.212,,147,-33,,,,,,,,,,,,,,,,bars/043.png,bars/mask007.png,,,,,,,,,,,,1,2,,,,,,,3,3,2,2,,,,,,,,,,,225.514,225.93,226.212,237.675,space,11.332,,237.675,63,17,238.613,238.613,242.801,space,4.044,,0,1,1,1,1,30,130,,,,,,,,
,,611117d79c57e6744e059bc4,65af54b33f5fcc7f4ffca785,2024-01-23_07h56.30.199,bars,2023.2.3,Win32,8.474576271,657b66ea316d21385b68909f,,,,,,,,,,,242.809,243.747,,,244.171,244.309,,139,-41,,,,,,,,,,,,,,,,bars/003.png,bars/mask008.png,,,,,,,,,,,,1,2,,,,,,,5,1,6,1,,,,,,,,,,,243.747,244.171,244.309,256.581,space,12.143,,256.581,66,1,257.555,257.555,263.13,space,5.429,,0,2,2,2,1,25,140,,,,,,,,
,,611117d79c57e6744e059bc4,65af54b33f5fcc7f4ffca785,2024-01-23_07h56.30.199,bars,2023.2.3,Win32,8.474576271,657b66ea316d21385b68909f,,,,,,,,,,,263.139,264.083,,,264.518,264.658,,22,202,,,,,,,,,,,,,,,,bars/023.png,bars/mask004.png,,,,,,,,,,,,5,1,,,,,,,3,3,5,4,,,,,,,,,,,264.083,264.518,264.658,281.168,space,16.371,,281.168,2,87,282.128,282.128,285.222,space,2.954,,0,3,3,3,1,20,115,,,,,,,,
,,611117d79c57e6744e059bc4,65af54b33f5fcc7f4ffca785,2024-01-23_07h56.30.199,bars,2023.2.3,Win32,8.474576271,657b66ea316d21385b68909f,,,,,,,,,,,285.223,286.173,,,286.589,286.87,,135,135,,,,,,,,,,,,,,,,bars/040.png,bars/mask008.png,,,,,,,,,,,,1,1,,,,,,,1,5,1,5,,,,,,,,,,,286.173,286.589,286.87,288.57,space,1.558,,288.57,5,50,289.546,289.546,290.644,space,0.963,,0,4,4,4,1,140,5,,,,,,,,
,,611117d79c57e6744e059bc4,65af54b33f5fcc7f4ffca785,2024-01-23_07h56.30.199,bars,2023.2.3,Win32,8.474576271,657b66ea316d21385b68909f,,,,,,,,,,,290.645,291.604,,,292.028,292.304,,132,-48,,,,,,,,,,,,,,,,bars/007.png,bars/mask001.png,,,,,,,,,,,,0,1,,,,,,,0,3,0,2,,,,,,,,,,,291.604,292.028,292.304,303.158,space,10.72,,303.158,43,77,304.124,304.124,306.691,space,2.415,,0,5,5,5,1,175,55,,,,,,,,
,,611117d79c57e6744e059bc4,65af54b33f5fcc7f4ffca785,2024-01-23_07h56.30.199,bars,2023.2.3,Win32,8.474576271,657b66ea316d21385b68909f,,,,,,,,,,,306.691,307.629,,,308.051,308.189,,67,67,,,,,,,,,,,,,,,,bars/013.png,bars/mask003.png,,,,,,,,,,,,2,1,,,,,,,2,1,3,1,,,,,,,,,,,307.629,308.051,308.189,314.545,space,6.228,,314.545,8,57,315.484,315.484,319.999,space,4.376,,0,6,6,6,1,75,10,,,,,,,,
,,611117d79c57e6744e059bc4,65af54b33f5fcc7f4ffca785,2024-01-23_07h56.30.199,bars,2023.2.3,Win32,8.474576271,657b66ea316d21385b68909f,,,,,,,,,,,320.007,320.938,,,321.347,321.622,,53,53,,,,,,,,,,,,,,,,bars/008.png,bars/mask001.png,,,,,,,,,,,,0,2,,,,,,,4,3,5,3,,,,,,,,,,,320.938,321.347,321.622,324.701,space,2.949,,324.701,57,53,325.635,325.635,327.529,space,1.758,,0,7,7,7,1,110,0,,,,,,,,
,,611117d79c57e6744e059bc4,65af54b33f5fcc7f4ffca785,2024-01-23_07h56.30.199,bars,2023.2.3,Win32,8.474576271,657b66ea316d21385b68909f,,,,,,,,,,,327.53,328.463,,,328.872,329.141,,96,96,,,,,,,,,,,,,,,,bars/012.png,bars/mask003.png,,,,,,,,,,,,1,1,,,,,,,2,5,1,6,,,,,,,,,,,328.463,328.872,329.141,340.972,space,11.7,,340.972,6,81,341.929,341.929,346.932,space,4.865,,0,8,8,8,1,90,15,,,,,,,,
,,611117d79c57e6744e059bc4,65af54b33f5fcc7f4ffca785,2024-01-23_07h56.30.199,bars,2023.2.3,Win32,8.474576271,657b66ea316d21385b68909f,,,,,,,,,,,346.941,347.892,,,348.324,348.606,,143,143,,,,,,,,,,,,,,,,bars/001.png,bars/mask008.png,,,,,,,,,,,,2,1,,,,,,,4,3,4,4,,,,,,,,,,,347.892,348.324,348.606,353.138,space,4.388,,353.138,13,58,354.077,354.077,358.012,space,3.8,,0,9,9,9,1,130,85,,,,,,,,
,,611117d79c57e6744e059bc4,65af54b33f5fcc7f4ffca785,2024-01-23_07h56.30.199,bars,2023.2.3,Win32,8.474576271,657b66ea316d21385b68909f,,,,,,,,,,,358.02,359.032,,,359.47,359.619,,153,-27,,,,,,,,,,,,,,,,bars/039.png,bars/mask000.png,,,,,,,,,,,,1,1,,,,,,,2,5,3,5,,,,,,,,,,,359.032,359.47,359.619,369.055,space,9.285,,369.055,22,48,370,370,371.907,space,1.769,,0,10,10,10,1,175,105,,,,,,,,
,,611117d79c57e6744e059bc4,65af54b33f5fcc7f4ffca785,2024-01-23_07h56.30.199,bars,2023.2.3,Win32,8.474576271,657b66ea316d21385b68909f,,,,,,,,,,,371.907,372.898,,,373.317,373.486,,89,89,,,,,,,,,,,,,,,,bars/025.png,bars/mask002.png,,,,,,,,,,,,0,1,,,,,,,0,7,0,6,,,,,,,,,,,372.898,373.317,373.486,378.094,space,4.471,,378.094,16,49,379.049,379.049,379.941,space,0.754,,0,11,11,11,1,105,40,,,,,,,,
,,611117d79c57e6744e059bc4,65af54b33f5fcc7f4ffca785,2024-01-23_07h56.30.199,bars,2023.2.3,Win32,8.474576271,657b66ea316d21385b68909f,,,,,,,,,,,379.941,380.879,,,381.296,381.577,,135,-45,,,,,,,,,,,,,,,,bars/035.png,bars/mask008.png,,,,,,,,,,,,0,1,,,,,,,0,9,0,8,,,,,,,,,,,380.879,381.296,381.577,398.664,space,16.956,,398.664,40,75,399.604,399.604,402.784,space,3.037,,0,12,12,12,1,175,60,,,,,,,,
,,611117d79c57e6744e059bc4,65af54b33f5fcc7f4ffca785,2024-01-23_07h56.30.199,bars,2023.2.3,Win32,8.474576271,657b66ea316d21385b68909f,,,,,,,,,,,402.784,403.748,,,404.156,404.426,,42,222,,,,,,,,,,,,,,,,bars/019.png,bars/mask000.png,,,,,,,,,,,,3,1,,,,,,,2,7,3,7,,,,,,,,,,,403.748,404.156,404.426,416.891,space,12.332,,416.891,3,63,417.837,417.837,420.588,space,2.613,,0,13,13,13,1,45,105,,,,,,,,
,,611117d79c57e6744e059bc4,65af54b33f5fcc7f4ffca785,2024-01-23_07h56.30.199,bars,2023.2.3,Win32,8.474576271,657b66ea316d21385b68909f,,,,,,,,,,,420.588,421.521,,,421.931,422.202,,67,67,,,,,,,,,,,,,,,,bars/035.png,bars/mask006.png,,,,,,,,,,,,8,2,,,,,,,0,9,0,10,,,,,,,,,,,421.521,421.931,422.202,432.444,space,10.111,,432.444,72,7,433.388,433.388,438.14,space,4.613,,0,14,14,14,1,175,60,,,,,,,,
,,611117d79c57e6744e059bc4,65af54b33f5fcc7f4ffca785,2024-01-23_07h56.30.199,bars,2023.2.3,Win32,8.474576271,657b66ea316d21385b68909f,,,,,,,,,,,438.149,439.08,,,439.487,439.772,,79,79,,,,,,,,,,,,,,,,bars/026.png,bars/mask008.png,,,,,,,,,,,,6,2,,,,,,,0,7,1,7,,,,,,,,,,,439.08,439.487,439.772,444.45,space,4.544,,444.45,44,6,445.374,445.374,446.374,space,0.857,,0,15,15,15,1,35,85,,,,,,,,
,,611117d79c57e6744e059bc4,65af54b33f5fcc7f4ffca785,2024-01-23_07h56.30.199,bars,2023.2.3,Win32,8.474576271,657b66ea316d21385b68909f,,,,,,,,,,,446.374,447.299,,,447.708,447.984,,76,76,,,,,,,,,,,,,,,,bars/035.png,bars/mask006.png,,,,,,,,,,,,3,2,,,,,,,0,9,2,6,,,,,,,,,,,447.299,447.708,447.984,459.632,space,11.518,,459.632,81,16,460.561,460.561,462.148,space,1.444,,0,16,16,16,1,175,60,,,,,,,,
,,611117d79c57e6744e059bc4,65af54b33f5fcc7f4ffca785,2024-01-23_07h56.30.199,bars,2023.2.3,Win32,8.474576271,657b66ea316d21385b68909f,,,,,,,,,,,462.148,463.08,,,463.484,463.76,,166,166,,,,,,,,,,,,,,,,bars/024.png,bars/mask006.png,,,,,,,,,,,,6,2,,,,,,,2,7,2,7,,,,,,,,,,,463.08,463.484,463.76,477.968,space,14.075,,477.968,46,4,478.912,478.912,488.119,space,9.07,,0,17,17,17,1,120,170,,,,,,,,
,,611117d79c57e6744e059bc4,65af54b33f5fcc7f4ffca785,2024-01-23_07h56.30.199,bars,2023.2.3,Win32,8.474576271,657b66ea316d21385b68909f,,,,,,,,,,,488.127,489.053,,,489.457,489.726,,87,87,,,,,,,,,,,,,,,,bars/026.png,bars/mask004.png,,,,,,,,,,,,4,2,,,,,,,0,5,0,4,,,,,,,,,,,489.053,489.457,489.726,501.085,space,11.229,,501.085,52,2,502.017,502.017,512.523,space,10.372,,0,18,18,18,1,35,85,,,,,,,,
,,611117d79c57e6744e059bc4,65af54b33f5fcc7f4ffca785,2024-01-23_07h56.30.199,bars,2023.2.3,Win32,8.474576271,657b66ea316d21385b68909f,,,,,,,,,,,512.532,513.459,,,513.879,514.151,,138,138,,,,,,,,,,,,,,,,bars/047.png,bars/mask002.png,,,,,,,,,,,,0,1,,,,,,,2,7,1,8,,,,,,,,,,,513.459,513.879,514.151,516.542,space,2.26,,516.542,57,68,517.485,517.486,520.231,space,2.608,,0,19,19,19,1,15,70,,,,,,,,
,,611117d79c57e6744e059bc4,65af54b33f5fcc7f4ffca785,2024-01-23_07h56.30.199,bars,2023.2.3,Win32,8.474576271,657b66ea316d21385b68909f,,,,,,,,,,,520.231,521.171,,,521.582,521.851,,111,111,,,,,,,,,,,,,,,,bars/038.png,bars/mask004.png,,,,,,,,,,,,0,2,,,,,,,0,5,0,5,,,,,,,,,,,521.171,521.582,521.851,532.76,space,10.77,,532.76,54,41,533.691,533.691,549.323,space,15.494,,0,20,20,20,1,165,70,,,,,,,,
,,611117d79c57e6744e059bc4,65af54b33f5fcc7f4ffca785,2024-01-23_07h56.30.199,bars,2023.2.3,Win32,8.474576271,657b66ea316d21385b68909f,,,,,,,,,,,549.332,550.257,,,550.667,550.808,,98,98,,,,,,,,,,,,,,,,bars/002.png,bars/mask009.png,,,,,,,,,,,,2,2,,,,,,,2,3,2,4,,,,,,,,,,,550.257,550.667,550.808,561.022,space,10.084,,561.022,32,13,561.955,561.955,564.095,space,2.004,,0,21,21,21,1,130,85,,,,,,,,
,,611117d79c57e6744e059bc4,65af54b33f5fcc7f4ffca785,2024-01-23_07h56.30.199,bars,2023.2.3,Win32,8.474576271,657b66ea316d21385b68909f,,,,,,,,,,,564.095,565.021,,,565.429,565.702,,99,99,,,,,,,,,,,,,,,,bars/026.png,bars/mask009.png,,,,,,,,,,,,2,2,,,,,,,4,5,3,4,,,,,,,,,,,565.021,565.429,565.702,571.64,space,5.812,,571.64,64,14,572.564,572.564,575.455,space,2.743,,0,22,22,22,1,35,85,,,,,,,,
,,611117d79c57e6744e059bc4,65af54b33f5fcc7f4ffca785,2024-01-23_07h56.30.199,bars,2023.2.3,Win32,8.474576271,657b66ea316d21385b68909f,,,,,,,,,,,575.455,576.382,,,576.834,577.107,,65,65,,,,,,,,,,,,,,,,bars/024.png,bars/mask001.png,,,,,,,,,,,,0,1,,,,,,,6,3,5,2,,,,,,,,,,,576.382,576.834,577.107,577.388,space,0.148,,577.388,55,75,578.337,578.337,579.048,space,0.583,,0,23,23,23,1,120,170,,,,,,,,
,,611117d79c57e6744e059bc4,65af54b33f5fcc7f4ffca785,2024-01-23_07h56.30.199,bars,2023.2.3,Win32,8.474576271,657b66ea316d21385b68909f,,,,,,,,,,,579.048,579.981,,,580.393,580.667,,91,91,,,,,,,,,,,,,,,,bars/037.png,bars/mask009.png,,,,,,,,,,,,2,2,,,,,,,4,1,4,3,,,,,,,,,,,579.981,580.393,580.667,584.529,space,3.733,,584.529,59,14,585.465,585.465,586.467,space,0.864,,0,24,24,24,1,150,105,,,,,,,,
,,611117d79c57e6744e059bc4,65af54b33f5fcc7f4ffca785,2024-01-23_07h56.30.199,bars,2023.2.3,Win32,8.474576271,657b66ea316d21385b68909f,,,,,,,,,,,586.468,587.394,,,587.8,588.074,,172,-8,,,,,,,,,,,,,,,,bars/036.png,bars/mask000.png,,,,,,,,,,,,0,1,,,,,,,2,0,1,0,,,,,,,,,,,587.394,587.8,588.074,600.622,space,12.419,,600.622,27,28,601.573,601.573,603.3,space,1.588,,0,25,25,25,1,145,20,,,,,,,,
,,611117d79c57e6744e059bc4,65af54b33f5fcc7f4ffca785,2024-01-23_07h56.30.199,bars,2023.2.3,Win32,8.474576271,657b66ea316d21385b68909f,,,,,,,,,,,603.3,604.233,,,604.656,604.926,,54,54,,,,,,,,,,,,,,,,bars/028.png,bars/mask004.png,,,,,,,,,,,,1,1,,,,,,,0,0,1,1,,,,,,,,,,,604.233,604.656,604.926,607.984,space,2.926,,607.984,9,66,608.922,608.922,610.641,space,1.582,0,0,26,26,26,1,45,120,,,,,,,,
,,611117d79c57e6744e059bc4,65af54b33f5fcc7f4ffca785,2024-01-23_07h56.30.199,bars,2023.2.3,Win32,8.474576271,657b66ea316d21385b68909f,,,,,,,,,,,610.641,611.584,,,611.989,612.26,,51,231,,,,,,,,,,,,,,,,bars/028.png,bars/mask009.png,,,,,,,,,,,,1,1,,,,,,,0,0,1,0,,,,,,,,,,,611.584,611.989,612.26,626.039,space,13.648,,626.039,6,69,626.969,626.969,628.983,space,1.867,,0,27,27,27,1,45,120,,,,,,,,
,,611117d79c57e6744e059bc4,65af54b33f5fcc7f4ffca785,2024-01-23_07h56.30.199,bars,2023.2.3,Win32,8.474576271,657b66ea316d21385b68909f,,,,,,,,,,,628.983,629.93,,,630.337,630.608,,178,-2,,,,,,,,,,,,,,,,bars/016.png,bars/mask001.png,,,,,,,,,,,,0,2,,,,,,,0,0,0,0,,,,,,,,,,,629.93,630.337,630.608,636.827,space,6.08,,636.827,42,13,637.75,637.75,638.761,space,0.875,,0,28,28,28,1,40,165,,,,,,,,
,,611117d79c57e6744e059bc4,65af54b33f5fcc7f4ffca785,2024-01-23_07h56.30.199,bars,2023.2.3,Win32,8.474576271,657b66ea316d21385b68909f,,,,,,,,,,,638.761,639.693,,,640.1,640.372,,173,-7,,,,,,,,,,,,,,,,bars/032.png,bars/mask001.png,,,,,,,,,,,,0,2,,,,,,,0,2,0,2,,,,,,,,,,,639.693,640.1,640.372,642.195,space,1.686,,642.195,48,27,643.131,643.131,643.991,space,0.725,,0,29,29,29,1,125,20,,,,,,,,
,,611117d79c57e6744e059bc4,65af54b33f5fcc7f4ffca785,2024-01-23_07h56.30.199,bars,2023.2.3,Win32,8.474576271,657b66ea316d21385b68909f,,,,,,,,,,,643.992,644.949,,,645.359,645.633,,165,-15,,,,,,,,,,,,,,,,bars/043.png,bars/mask005.png,,,,,,,,,,,,0,2,,,,,,,2,4,3,3,,,,,,,,,,,644.949,645.359,645.633,648.593,space,2.825,,648.593,45,35,649.53,649.53,650.962,space,1.297,,0,30,30,30,1,30,130,,,,,,,,
,,611117d79c57e6744e059bc4,65af54b33f5fcc7f4ffca785,2024-01-23_07h56.30.199,bars,2023.2.3,Win32,8.474576271,657b66ea316d21385b68909f,,,,,,,,,,,650.962,651.912,,,652.339,652.612,,17,197,,,,,,,,,,,,,,,,bars/012.png,bars/mask002.png,,,,,,,,,,,,2,2,,,,,,,4,2,4,2,,,,,,,,,,,651.912,652.339,652.612,660.156,space,7.412,,660.157,73,2,661.091,661.091,661.813,space,0.587,,0,31,31,31,1,90,15,,,,,,,,
,,611117d79c57e6744e059bc4,65af54b33f5fcc7f4ffca785,2024-01-23_07h56.30.199,bars,2023.2.3,Win32,8.474576271,657b66ea316d21385b68909f,,,,,,,,,,,661.813,662.764,,,663.181,663.456,,19,19,,,,,,,,,,,,,,,,bars/031.png,bars/mask001.png,,,,,,,,,,,,2,2,,,,,,,6,4,6,4,,,,,,,,,,,662.764,663.18,663.456,668.155,space,4.568,,668.155,79,16,669.097,669.097,669.956,space,0.725,,0,32,32,32,1,120,35,,,,,,,,
,,611117d79c57e6744e059bc4,65af54b33f5fcc7f4ffca785,2024-01-23_07h56.30.199,bars,2023.2.3,Win32,8.474576271,657b66ea316d21385b68909f,,,,,,,,,,,669.956,670.898,,,671.304,671.579,,82,82,,,,,,,,,,,,,,,,bars/002.png,bars/mask004.png,,,,,,,,,,,,5,2,,,,,,,8,6,7,5,,,,,,,,,,,670.898,671.304,671.579,674.914,space,3.194,,674.914,48,3,675.874,675.874,677.027,space,1.018,,0,33,33,33,1,130,85,,,,,,,,
,,611117d79c57e6744e059bc4,65af54b33f5fcc7f4ffca785,2024-01-23_07h56.30.199,bars,2023.2.3,Win32,8.474576271,657b66ea316d21385b68909f,,,,,,,,,,,677.027,677.962,,,678.373,678.646,,48,228,,,,,,,,,,,,,,,,bars/029.png,bars/mask002.png,,,,,,,,,,,,5,2,,,,,,,6,4,6,5,,,,,,,,,,,677.962,678.373,678.646,687.323,space,8.546,,687.323,42,3,688.302,688.302,689.462,space,1.022,,0,34,34,34,1,90,45,,,,,,,,
,,611117d79c57e6744e059bc4,65af54b33f5fcc7f4ffca785,2024-01-23_07h56.30.199,bars,2023.2.3,Win32,8.474576271,657b66ea316d21385b68909f,,,,,,,,,,,689.462,690.397,,,690.816,691.087,,47,47,,,,,,,,,,,,,,,,bars/007.png,bars/mask006.png,,,,,,,,,,,,2,2,,,,,,,8,2,7,3,,,,,,,,,,,690.397,690.816,691.087,693.466,space,2.242,,693.466,52,8,694.393,694.393,695.414,space,0.884,,0,35,35,35,1,175,55,,,,,,,,
,,611117d79c57e6744e059bc4,65af54b33f5fcc7f4ffca785,2024-01-23_07h56.30.199,bars,2023.2.3,Win32,8.474576271,657b66ea316d21385b68909f,,,,,,,,,,,695.414,696.362,,,696.778,697.06,,158,-22,,,,,,,,,,,,,,,,bars/005.png,bars/mask007.png,,,,,,,,,,,,0,2,,,,,,,6,0,7,0,,,,,,,,,,,696.362,696.778,697.06,702.308,space,5.121,,702.308,32,18,703.235,703.235,704.372,space,1.005,,0,36,36,36,1,10,140,,,,,,,,
,,611117d79c57e6744e059bc4,65af54b33f5fcc7f4ffca785,2024-01-23_07h56.30.199,bars,2023.2.3,Win32,8.474576271,657b66ea316d21385b68909f,,,,,,,,,,,704.372,705.308,,,705.714,705.986,,59,59,,,,,,,,,,,,,,,,bars/029.png,bars/mask009.png,,,,,,,,,,,,1,2,,,,,,,4,2,3,1,,,,,,,,,,,705.308,705.714,705.986,715.321,space,9.206,,715.321,31,14,716.251,716.251,717.253,space,0.866,,0,37,37,37,1,90,45,,,,,,,,
,,611117d79c57e6744e059bc4,65af54b33f5fcc7f4ffca785,2024-01-23_07h56.30.199,bars,2023.2.3,Win32,8.474576271,657b66ea316d21385b68909f,,,,,,,,,,,717.253,718.183,,,718.591,718.86,,162,-18,,,,,,,,,,,,,,,,bars/024.png,bars/mask008.png,,,,,,,,,,,,3,2,,,,,,,2,4,1,4,,,,,,,,,,,718.183,718.591,718.86,725.198,space,6.198,,725.198,42,8,726.143,726.143,727.006,space,0.729,,0,38,38,38,1,120,170,,,,,,,,
,,611117d79c57e6744e059bc4,65af54b33f5fcc7f4ffca785,2024-01-23_07h56.30.199,bars,2023.2.3,Win32,8.474576271,657b66ea316d21385b68909f,,,,,,,,,,,727.006,727.937,,,728.341,728.645,,148,148,,,,,,,,,,,,,,,,bars/020.png,bars/mask003.png,,,,,,,,,,,,2,2,,,,,,,4,6,4,6,,,,,,,,,,,727.937,728.341,728.645,733.37,space,4.578,,733.37,33,22,734.297,734.297,734.44,space,0.008,,0,39,39,39,1,115,170,,,,,,,,
,,611117d79c57e6744e059bc4,65af54b33f5fcc7f4ffca785,2024-01-23_07h56.30.199,bars,2023.2.3,Win32,8.474576271,657b66ea316d21385b68909f,,,,,,,,,,,734.441,735.368,,,735.81,736.087,,150,-30,,,,,,,,,,,,,,,,bars/043.png,bars/mask003.png,,,,,,,,,,,,1,2,,,,,,,2,4,2,2,,,,,,,,,,,735.368,735.81,736.087,741.517,space,5.295,,741.517,60,20,742.471,742.471,743.08,space,0.433,,0,40,40,40,1,30,130,,,,,,,,
,,611117d79c57e6744e059bc4,65af54b33f5fcc7f4ffca785,2024-01-23_07h56.30.199,bars,2023.2.3,Win32,8.474576271,657b66ea316d21385b68909f,,,,,,,,,,,743.08,744,,,744.413,744.687,,141,141,,,,,,,,,,,,,,,,bars/016.png,bars/mask003.png,,,,,,,,,,,,0,2,,,,,,,4,2,7,2,,,,,,,,,,,744,744.413,744.687,749.24,space,4.424,,749.24,79,24,750.213,750.213,751.211,space,0.862,,0,41,41,41,1,40,165,,,,,,,,
,,611117d79c57e6744e059bc4,65af54b33f5fcc7f4ffca785,2024-01-23_07h56.30.199,bars,2023.2.3,Win32,8.474576271,657b66ea316d21385b68909f,,,,,,,,,,,751.211,752.141,,,752.559,752.831,,106,106,,,,,,,,,,,,,,,,bars/028.png,bars/mask000.png,,,,,,,,,,,,3,2,,,,,,,6,4,7,5,,,,,,,,,,,752.142,752.559,752.831,762.686,space,9.728,,762.686,61,14,763.677,763.677,764.679,space,0.864,,0,42,42,42,1,45,120,,,,,,,,
,,611117d79c57e6744e059bc4,65af54b33f5fcc7f4ffca785,2024-01-23_07h56.30.199,bars,2023.2.3,Win32,8.474576271,657b66ea316d21385b68909f,,,,,,,,,,,764.679,765.609,,,766.013,766.287,,99,99,,,,,,,,,,,,,,,,bars/022.png,bars/mask008.png,,,,,,,,,,,,3,1,,,,,,,4,2,4,3,,,,,,,,,,,765.609,766.013,766.287,777.152,space,10.736,,777.152,4,79,778.096,778.096,779.101,space,0.867,,0,43,43,43,1,95,20,,,,,,,,
,,611117d79c57e6744e059bc4,65af54b33f5fcc7f4ffca785,2024-01-23_07h56.30.199,bars,2023.2.3,Win32,8.474576271,657b66ea316d21385b68909f,,,,,,,,,,,779.102,780.042,,,780.453,780.728,,98,98,,,,,,,,,,,,,,,,bars/023.png,bars/mask003.png,,,,,,,,,,,,0,2,,,,,,,6,0,5,1,,,,,,,,,,,780.042,780.453,780.728,781.419,space,0.558,,781.419,78,17,782.367,782.367,783.364,space,0.863,,0,44,44,44,1,20,115,,,,,,,,
,,611117d79c57e6744e059bc4,65af54b33f5fcc7f4ffca785,2024-01-23_07h56.30.199,bars,2023.2.3,Win32,8.474576271,657b66ea316d21385b68909f,,,,,,,,,,,783.364,784.278,,,784.711,784.981,,102,102,,,,,,,,,,,,,,,,bars/037.png,bars/mask000.png,,,,,,,,,,,,0,2,,,,,,,4,0,3,0,,,,,,,,,,,784.278,784.711,784.981,788.428,space,3.318,,788.428,48,3,789.376,789.376,791.368,space,1.855,,0,45,45,45,1,150,105,,,,,,,,
,,611117d79c57e6744e059bc4,65af54b33f5fcc7f4ffca785,2024-01-23_07h56.30.199,bars,2023.2.3,Win32,8.474576271,657b66ea316d21385b68909f,,,,,,,,,,,791.369,792.318,,,792.731,793.002,,163,163,,,,,,,,,,,,,,,,bars/005.png,bars/mask003.png,,,,,,,,,,,,0,2,,,,,,,6,2,6,1,,,,,,,,,,,792.318,792.731,793.002,797.325,space,4.195,,797.325,27,23,798.264,798.264,799.265,space,0.866,,0,46,46,46,1,10,140,,,,,,,,
,,611117d79c57e6744e059bc4,65af54b33f5fcc7f4ffca785,2024-01-23_07h56.30.199,bars,2023.2.3,Win32,8.474576271,657b66ea316d21385b68909f,,,,,,,,,,,799.265,800.191,,,800.598,800.87,,79,79,,,,,,,,,,,,,,,,bars/004.png,bars/mask006.png,,,,,,,,,,,,0,2,,,,,,,4,4,3,5,,,,,,,,,,,800.191,800.598,800.87,805.573,space,4.572,,805.573,54,46,806.501,806.501,807.778,space,1.146,,0,47,47,47,1,25,125,,,,,,,,
,,611117d79c57e6744e059bc4,65af54b33f5fcc7f4ffca785,2024-01-23_07h56.30.199,bars,2023.2.3,Win32,8.474576271,657b66ea316d21385b68909f,,,,,,,,,,,807.778,808.703,,,809.111,809.377,,53,53,,,,,,,,,,,,,,,,bars/022.png,bars/mask009.png,,,,,,,,,,,,0,2,,,,,,,2,2,2,3,,,,,,,,,,,808.703,809.111,809.377,818.517,space,9.009,,818.517,42,33,819.442,819.442,820.75,space,1.169,0,0,48,48,48,1,95,20,,,,,,,,
,,611117d79c57e6744e059bc4,65af54b33f5fcc7f4ffca785,2024-01-23_07h56.30.199,bars,2023.2.3,Win32,8.474576271,657b66ea316d21385b68909f,,,,,,,,,,,820.75,821.675,,,822.084,822.233,,77,77,,,,,,,,,,,,,,,,bars/019.png,bars/mask007.png,,,,,,,,,,,,0,2,,,,,,,0,0,0,0,,,,,,,,,,,821.675,822.084,822.233,834.991,space,12.63,,834.991,32,28,835.918,835.918,837.481,space,1.427,,0,49,49,49,1,45,105,,,,,,,,
,,611117d79c57e6744e059bc4,65af54b33f5fcc7f4ffca785,2024-01-23_07h56.30.199,bars,2023.2.3,Win32,8.474576271,657b66ea316d21385b68909f,,,,,,,,,,,,,,,,,,,,,,,,,,,,,,,,,,,,,,,,,,,,,,,,,,,,,,,,,,,,,,,,,,,,,,,,,,,,,,,,,,,,,,,,,,,,,837.481,897.496,0,0,0,0,1,sequence_tables/blk014.csv
,,611117d79c57e6744e059bc4,65af54b33f5fcc7f4ffca785,2024-01-23_07h56.30.199,bars,2023.2.3,Win32,8.474576271,657b66ea316d21385b68909f,,,,,,,,,,,904.911,905.836,,,906.238,906.509,,129,129,,,,,,,,,,,,,,,,bars/028.png,bars/mask003.png,,,,,,,,,,,,6,2,,,,,,,2,7,4,8,,,,,,897.506,904.9,space,7.276,,905.836,906.238,906.509,916.3,space,9.666,,916.3,84,9,917.227,917.227,917.228,,,,0,0,0,0,1,45,120,,,,,,,,
,,611117d79c57e6744e059bc4,65af54b33f5fcc7f4ffca785,2024-01-23_07h56.30.199,bars,2023.2.3,Win32,8.474576271,657b66ea316d21385b68909f,,,,,,,,,,,917.228,918.161,,,918.572,918.842,,1,181,,,,,,,,,,,,,,,,bars/044.png,bars/mask000.png,,,,,,,,,,,,1,2,,,,,,,4,5,3,5,,,,,,,,,,,918.161,918.572,918.842,924.725,space,5.76,,924.725,74,26,925.657,925.657,925.665,,,,0,1,1,1,1,75,155,,,,,,,,
,,611117d79c57e6744e059bc4,65af54b33f5fcc7f4ffca785,2024-01-23_07h56.30.199,bars,2023.2.3,Win32,8.474576271,657b66ea316d21385b68909f,,,,,,,,,,,925.665,926.586,,,926.997,927.269,,157,-23,,,,,,,,,,,,,,,,bars/020.png,bars/mask003.png,,,,,,,,,,,,5,2,,,,,,,6,7,7,8,,,,,,,,,,,926.586,926.997,927.269,938.366,space,10.968,,938.366,42,13,939.294,939.294,939.302,,,,0,2,2,2,1,115,170,,,,,,,,
,,611117d79c57e6744e059bc4,65af54b33f5fcc7f4ffca785,2024-01-23_07h56.30.199,bars,2023.2.3,Win32,8.474576271,657b66ea316d21385b68909f,,,,,,,,,,,939.302,940.23,,,940.66,940.93,,97,97,,,,,,,,,,,,,,,,bars/026.png,bars/mask002.png,,,,,,,,,,,,3,2,,,,,,,8,5,7,5,,,,,,,,,,,940.23,940.66,940.93,945.753,space,4.693,,945.753,62,12,946.693,946.693,946.693,,,,0,3,3,3,1,35,85,,,,,,,,
,,611117d79c57e6744e059bc4,65af54b33f5fcc7f4ffca785,2024-01-23_07h56.30.199,bars,2023.2.3,Win32,8.474576271,657b66ea316d21385b68909f,,,,,,,,,,,946.693,947.625,,,948.04,948.177,,75,75,,,,,,,,,,,,,,,,bars/002.png,bars/mask009.png,,,,,,,,,,,,1,2,,,,,,,6,3,6,2,,,,,,,,,,,947.625,948.04,948.177,959.395,space,11.093,,959.395,55,10,960.325,960.325,960.334,,,,0,4,4,4,1,130,85,,,,,,,,
,,611117d79c57e6744e059bc4,65af54b33f5fcc7f4ffca785,2024-01-23_07h56.30.199,bars,2023.2.3,Win32,8.474576271,657b66ea316d21385b68909f,,,,,,,,,,,960.334,961.262,,,961.681,961.82,,12,12,,,,,,,,,,,,,,,,bars/036.png,bars/mask009.png,,,,,,,,,,,,4,2,,,,,,,4,5,4,6,,,,,,,,,,,961.262,961.681,961.82,972.502,space,10.557,,972.503,47,8,973.454,973.454,973.455,,,,0,5,5,5,1,145,20,,,,,,,,
,,611117d79c57e6744e059bc4,65af54b33f5fcc7f4ffca785,2024-01-23_07h56.30.199,bars,2023.2.3,Win32,8.474576271,657b66ea316d21385b68909f,,,,,,,,,,,973.455,974.378,,,974.784,975.056,,122,122,,,,,,,,,,,,,,,,bars/013.png,bars/mask007.png,,,,,,,,,,,,0,1,,,,,,,2,3,3,3,,,,,,,,,,,974.378,974.784,975.056,985.561,space,10.378,,985.561,47,68,986.496,986.496,986.498,,,,0,6,6,6,1,75,10,,,,,,,,
,,611117d79c57e6744e059bc4,65af54b33f5fcc7f4ffca785,2024-01-23_07h56.30.199,bars,2023.2.3,Win32,8.474576271,657b66ea316d21385b68909f,,,,,,,,,,,986.498,987.426,,,987.835,988.104,,13,13,,,,,,,,,,,,,,,,bars/014.png,bars/mask002.png,,,,,,,,,,,,1,2,,,,,,,4,1,6,2,,,,,,,,,,,987.426,987.835,988.104,1001.43,space,13.202,,1001.43,67,13,1002.359,1002.359,1002.369,,,,0,7,7,7,1,80,0,,,,,,,,
,,611117d79c57e6744e059bc4,65af54b33f5fcc7f4ffca785,2024-01-23_07h56.30.199,bars,2023.2.3,Win32,8.474576271,657b66ea316d21385b68909f,,,,,,,,,,,1002.369,1003.28,,,1003.71,1003.977,,11,191,,,,,,,,,,,,,,,,bars/022.png,bars/mask005.png,,,,,,,,,,,,3,2,,,,,,,6,3,5,4,,,,,,,,,,,1003.28,1003.71,1003.977,1008.384,space,4.279,,1008.384,84,9,1009.301,1009.301,1009.302,,,,0,8,8,8,1,95,20,,,,,,,,
,,611117d79c57e6744e059bc4,65af54b33f5fcc7f4ffca785,2024-01-23_07h56.30.199,bars,2023.2.3,Win32,8.474576271,657b66ea316d21385b68909f,,,,,,,,,,,1009.302,1010.237,,,1010.67,1010.942,,73,73,,,,,,,,,,,,,,,,bars/047.png,bars/mask007.png,,,,,,,,,,,,5,2,,,,,,,8,5,7,5,,,,,,,,,,,1010.237,1010.67,1010.942,1016.273,space,5.201,,1016.274,58,3,1017.201,1017.201,1017.21,,,,0,9,9,9,1,15,70,,,,,,,,
,,611117d79c57e6744e059bc4,65af54b33f5fcc7f4ffca785,2024-01-23_07h56.30.199,bars,2023.2.3,Win32,8.474576271,657b66ea316d21385b68909f,,,,,,,,,,,1017.21,1018.152,,,1018.555,1018.825,,171,-9,,,,,,,,,,,,,,,,bars/014.png,bars/mask001.png,,,,,,,,,,,,3,2,,,,,,,10,3,10,4,,,,,,,,,,,1018.152,1018.555,1018.825,1033.589,space,14.636,,1033.589,89,9,1034.52,1034.52,1034.52,,,,0,10,10,10,1,80,0,,,,,,,,
,,611117d79c57e6744e059bc4,65af54b33f5fcc7f4ffca785,2024-01-23_07h56.30.199,bars,2023.2.3,Win32,8.474576271,657b66ea316d21385b68909f,,,,,,,,,,,1034.52,1035.465,,,1035.874,1036.161,,48,228,,,,,,,,,,,,,,,,bars/021.png,bars/mask006.png,,,,,,,,,,,,1,2,,,,,,,10,1,10,4,,,,,,,,,,,1035.465,1035.874,1036.161,1045.118,space,8.813,,1045.118,73,22,1046.054,1046.054,1046.063,,,,0,11,11,11,1,155,70,,,,,,,,
,,611117d79c57e6744e059bc4,65af54b33f5fcc7f4ffca785,2024-01-23_07h56.30.199,bars,2023.2.3,Win32,8.474576271,657b66ea316d21385b68909f,,,,,,,,,,,1046.063,1046.994,,,1047.404,1047.677,,122,-58,,,,,,,,,,,,,,,,bars/006.png,bars/mask001.png,,,,,,,,,,,,1,2,,,,,,,10,3,10,3,,,,,,,,,,,1046.994,1047.404,1047.677,1058.285,space,10.483,,1058.285,87,22,1059.249,1059.249,1059.258,,,,0,12,12,12,1,35,100,,,,,,,,
,,611117d79c57e6744e059bc4,65af54b33f5fcc7f4ffca785,2024-01-23_07h56.30.199,bars,2023.2.3,Win32,8.474576271,657b66ea316d21385b68909f,,,,,,,,,,,1059.258,1060.172,,,1060.598,1060.74,,96,96,,,,,,,,,,,,,,,,bars/025.png,bars/mask001.png,,,,,,,,,,,,4,1,,,,,,,8,5,6,3,,,,,,,,,,,1060.172,1060.598,1060.74,1075.932,space,15.071,,1075.932,9,56,1076.864,1076.864,1076.874,,,,0,13,13,13,1,105,40,,,,,,,,
,,611117d79c57e6744e059bc4,65af54b33f5fcc7f4ffca785,2024-01-23_07h56.30.199,bars,2023.2.3,Win32,8.474576271,657b66ea316d21385b68909f,,,,,,,,,,,1076.874,1077.798,,,1078.206,1078.478,,122,122,,,,,,,,,,,,,,,,bars/042.png,bars/mask009.png,,,,,,,,,,,,2,1,,,,,,,10,7,10,8,,,,,,,,,,,1077.798,1078.206,1078.478,1087.172,space,8.568,,1087.172,23,47,1088.117,1088.117,1088.126,,,,0,14,14,14,1,145,75,,,,,,,,
,,611117d79c57e6744e059bc4,65af54b33f5fcc7f4ffca785,2024-01-23_07h56.30.199,bars,2023.2.3,Win32,8.474576271,657b66ea316d21385b68909f,,,,,,,,,,,1088.126,1089.05,,,1089.461,1089.734,,67,67,,,,,,,,,,,,,,,,bars/024.png,bars/mask005.png,,,,,,,,,,,,0,1,,,,,,,8,5,7,4,,,,,,,,,,,1089.05,1089.461,1089.734,1101.199,space,11.337,,1101.199,53,77,1102.13,1102.13,1102.14,,,,0,15,15,15,1,120,170,,,,,,,,
,,611117d79c57e6744e059bc4,65af54b33f5fcc7f4ffca785,2024-01-23_07h56.30.199,bars,2023.2.3,Win32,8.474576271,657b66ea316d21385b68909f,,,,,,,,,,,1102.14,1103.095,,,1103.503,1103.773,,139,-41,,,,,,,,,,,,,,,,bars/013.png,bars/mask008.png,,,,,,,,,,,,0,2,,,,,,,6,3,5,5,,,,,,,,,,,1103.095,1103.503,1103.773,1110.823,space,6.922,,1110.823,64,51,1111.758,1111.758,1111.767,,,,0,16,16,16,1,75,10,,,,,,,,
,,611117d79c57e6744e059bc4,65af54b33f5fcc7f4ffca785,2024-01-23_07h56.30.199,bars,2023.2.3,Win32,8.474576271,657b66ea316d21385b68909f,,,,,,,,,,,1111.767,1112.686,,,1113.102,1113.373,,160,-20,,,,,,,,,,,,,,,,bars/015.png,bars/mask001.png,,,,,,,,,,,,5,2,,,,,,,8,5,8,5,,,,,,,,,,,1112.686,1113.102,1113.373,1125.291,space,11.792,,1125.291,50,0,1126.227,1126.227,1126.227,,,,0,17,17,17,1,110,160,,,,,,,,
,,611117d79c57e6744e059bc4,65af54b33f5fcc7f4ffca785,2024-01-23_07h56.30.199,bars,2023.2.3,Win32,8.474576271,657b66ea316d21385b68909f,,,,,,,,,,,1126.228,1127.169,,,1127.575,1127.847,,84,84,,,,,,,,,,,,,,,,bars/042.png,bars/mask006.png,,,,,,,,,,,,2,2,,,,,,,6,3,7,3,,,,,,,,,,,1127.169,1127.575,1127.847,1137.243,space,9.27,,1137.243,61,9,1138.234,1138.234,1138.243,,,,0,18,18,18,1,145,75,,,,,,,,
,,611117d79c57e6744e059bc4,65af54b33f5fcc7f4ffca785,2024-01-23_07h56.30.199,bars,2023.2.3,Win32,8.474576271,657b66ea316d21385b68909f,,,,,,,,,,,1138.243,1139.169,,,1139.58,1139.85,,82,82,,,,,,,,,,,,,,,,bars/016.png,bars/mask009.png,,,,,,,,,,,,0,1,,,,,,,8,1,9,1,,,,,,,,,,,1139.169,1139.58,1139.85,1151.659,space,11.685,,1151.659,42,83,1152.581,1152.581,1152.59,,,,0,19,19,19,1,40,165,,,,,,,,
,,611117d79c57e6744e059bc4,65af54b33f5fcc7f4ffca785,2024-01-23_07h56.30.199,bars,2023.2.3,Win32,8.474576271,657b66ea316d21385b68909f,,,,,,,,,,,1152.59,1153.514,,,1153.922,1154.195,,147,147,,,,,,,,,,,,,,,,bars/043.png,bars/mask004.png,,,,,,,,,,,,0,2,,,,,,,10,0,10,0,,,,,,,,,,,1153.514,1153.922,1154.195,1160.805,space,6.482,,1160.805,63,17,1161.739,1161.739,1161.748,,,,0,20,20,20,1,30,130,,,,,,,,
,,611117d79c57e6744e059bc4,65af54b33f5fcc7f4ffca785,2024-01-23_07h56.30.199,bars,2023.2.3,Win32,8.474576271,657b66ea316d21385b68909f,,,,,,,,,,,1161.748,1162.676,,,1163.086,1163.36,,146,-34,,,,,,,,,,,,,,,,bars/043.png,bars/mask002.png,,,,,,,,,,,,0,2,,,,,,,8,0,6,0,,,,,,,,,,,1162.676,1163.086,1163.36,1171.516,space,8.032,,1171.516,64,16,1172.442,1172.442,1172.451,,,,0,21,21,21,1,30,130,,,,,,,,
,,611117d79c57e6744e059bc4,65af54b33f5fcc7f4ffca785,2024-01-23_07h56.30.199,bars,2023.2.3,Win32,8.474576271,657b66ea316d21385b68909f,,,,,,,,,,,1172.451,1173.374,,,1173.791,1174.063,,117,117,,,,,,,,,,,,,,,,bars/045.png,bars/mask004.png,,,,,,,,,,,,3,1,,,,,,,6,0,7,0,,,,,,,,,,,1173.374,1173.791,1174.063,1181.519,space,7.327,,1181.519,17,73,1182.449,1182.449,1182.458,,,,0,22,22,22,1,100,10,,,,,,,,
,,611117d79c57e6744e059bc4,65af54b33f5fcc7f4ffca785,2024-01-23_07h56.30.199,bars,2023.2.3,Win32,8.474576271,657b66ea316d21385b68909f,,,,,,,,,,,1182.458,1183.378,,,1183.785,1184.057,,79,79,,,,,,,,,,,,,,,,bars/021.png,bars/mask001.png,,,,,,,,,,,,1,2,,,,,,,4,2,2,1,,,,,,,,,,,1183.378,1183.785,1184.057,1188.192,space,4.015,,1188.192,76,9,1189.125,1189.125,1189.135,,,,0,23,23,23,1,155,70,,,,,,,,
,,611117d79c57e6744e059bc4,65af54b33f5fcc7f4ffca785,2024-01-23_07h56.30.199,bars,2023.2.3,Win32,8.474576271,657b66ea316d21385b68909f,,,,,,,,,,,1189.135,1190.062,,,1190.469,1190.741,,82,82,,,,,,,,,,,,,,,,bars/018.png,bars/mask008.png,,,,,,,,,,,,3,2,,,,,,,2,4,0,4,,,,,,,,,,,1190.062,1190.469,1190.741,1193.012,space,2.144,,1193.012,68,8,1193.947,1193.947,1193.956,,,,0,24,24,24,1,150,90,,,,,,,,
,,611117d79c57e6744e059bc4,65af54b33f5fcc7f4ffca785,2024-01-23_07h56.30.199,bars,2023.2.3,Win32,8.474576271,657b66ea316d21385b68909f,,,,,,,,,,,1193.956,1194.878,,,1195.292,1195.563,,141,141,,,,,,,,,,,,,,,,bars/048.png,bars/mask004.png,,,,,,,,,,,,0,2,,,,,,,0,6,0,6,,,,,,,,,,,1194.878,1195.292,1195.563,1202.38,space,6.692,,1202.38,89,34,1203.317,1203.317,1203.317,,,,0,25,25,25,1,50,175,,,,,,,,
,,611117d79c57e6744e059bc4,65af54b33f5fcc7f4ffca785,2024-01-23_07h56.30.199,bars,2023.2.3,Win32,8.474576271,657b66ea316d21385b68909f,,,,,,,,,,,1203.317,1204.247,,,1204.663,1204.931,,148,-32,,,,,,,,,,,,,,,,bars/000.png,bars/mask006.png,,,,,,,,,,,,7,2,,,,,,,2,8,3,8,,,,,,,,,,,1204.247,1204.663,1204.931,1217.62,space,12.559,,1217.62,72,3,1218.553,1218.553,1218.561,,,,0,26,26,26,1,40,145,,,,,,,,
,,611117d79c57e6744e059bc4,65af54b33f5fcc7f4ffca785,2024-01-23_07h56.30.199,bars,2023.2.3,Win32,8.474576271,657b66ea316d21385b68909f,,,,,,,,,,,1218.561,1219.48,,,1219.885,1220.157,,108,108,,,,,,,,,,,,,,,,bars/011.png,bars/mask001.png,,,,,,,,,,,,1,2,,,,,,,0,6,0,6,,,,,,,,,,,1219.48,1219.885,1220.157,1232.481,space,12.199,,1232.481,52,23,1233.407,1233.407,1233.415,,,,0,27,27,27,1,160,85,,,,,,,,
,,611117d79c57e6744e059bc4,65af54b33f5fcc7f4ffca785,2024-01-23_07h56.30.199,bars,2023.2.3,Win32,8.474576271,657b66ea316d21385b68909f,,,,,,,,,,,1233.415,1234.328,,,1234.874,1235.146,,69,69,,,,,,,,,,,,,,,,bars/042.png,bars/mask005.png,,,,,,,,,,,,6,2,,,,,,,0,8,0,8,,,,,,,,,,,1234.328,1234.874,1235.146,1241.147,space,5.879,,1241.147,76,6,1242.073,1242.073,1242.074,,,,0,28,28,28,1,145,75,,,,,,,,
,,611117d79c57e6744e059bc4,65af54b33f5fcc7f4ffca785,2024-01-23_07h56.30.199,bars,2023.2.3,Win32,8.474576271,657b66ea316d21385b68909f,,,,,,,,,,,1242.074,1242.995,,,1243.43,1243.577,,122,122,,,,,,,,,,,,,,,,bars/018.png,bars/mask008.png,,,,,,,,,,,,0,1,,,,,,,2,6,2,7,,,,,,,,,,,1242.995,1243.43,1243.577,1250.952,space,7.232,,1250.952,28,32,1251.877,1251.877,1251.887,,,,0,29,29,29,1,150,90,,,,,,,,
,,611117d79c57e6744e059bc4,65af54b33f5fcc7f4ffca785,2024-01-23_07h56.30.199,bars,2023.2.3,Win32,8.474576271,657b66ea316d21385b68909f,,,,,,,,,,,1251.887,1252.808,,,1253.22,1253.508,,165,-15,,,,,,,,,,,,,,,,bars/023.png,bars/mask002.png,,,,,,,,,,,,0,1,,,,,,,0,8,0,10,,,,,,,,,,,1252.808,1253.22,1253.508,1258.358,space,4.72,,1258.358,35,50,1259.292,1259.292,1259.292,,,,0,30,30,30,1,20,115,,,,,,,,
,,611117d79c57e6744e059bc4,65af54b33f5fcc7f4ffca785,2024-01-23_07h56.30.199,bars,2023.2.3,Win32,8.474576271,657b66ea316d21385b68909f,,,,,,,,,,,1259.292,1260.216,,,1260.622,1260.895,,93,93,,,,,,,,,,,,,,,,bars/045.png,bars/mask005.png,,,,,,,,,,,,0,1,,,,,,,0,6,0,6,,,,,,,,,,,1260.216,1260.622,1260.895,1266.97,space,5.949,,1266.97,7,83,1267.895,1267.895,1267.904,,,,0,31,31,31,1,100,10,,,,,,,,
,,611117d79c57e6744e059bc4,65af54b33f5fcc7f4ffca785,2024-01-23_07h56.30.199,bars,2023.2.3,Win32,8.474576271,657b66ea316d21385b68909f,,,,,,,,,,,1267.904,1268.82,,,1269.226,1269.504,,0,180,,,,,,,,,,,,,,,,bars/033.png,bars/mask008.png,,,,,,,,,,,,1,2,,,,,,,2,8,3,7,,,,,,,,,,,1268.82,1269.226,1269.504,1274.464,space,4.834,,1274.464,25,25,1275.389,1275.389,1275.398,,,,0,32,32,32,1,25,155,,,,,,,,
,,611117d79c57e6744e059bc4,65af54b33f5fcc7f4ffca785,2024-01-23_07h56.30.199,bars,2023.2.3,Win32,8.474576271,657b66ea316d21385b68909f,,,,,,,,,,,1275.398,1276.351,,,1276.785,1277.056,,25,205,,,,,,,,,,,,,,,,bars/017.png,bars/mask003.png,,,,,,,,,,,,3,2,,,,,,,4,10,2,10,,,,,,,,,,,1276.351,1276.785,1277.056,1290.272,space,13.09,,1290.272,60,20,1291.206,1291.206,1291.215,,,,0,33,33,33,1,145,45,,,,,,,,
,,611117d79c57e6744e059bc4,65af54b33f5fcc7f4ffca785,2024-01-23_07h56.30.199,bars,2023.2.3,Win32,8.474576271,657b66ea316d21385b68909f,,,,,,,,,,,1291.215,1292.141,,,1292.544,1292.818,,83,83,,,,,,,,,,,,,,,,bars/014.png,bars/mask000.png,,,,,,,,,,,,6,1,,,,,,,6,10,7,8,,,,,,,,,,,1292.141,1292.544,1292.818,1303.105,space,10.166,,1303.105,3,83,1304.034,1304.034,1304.043,,,,0,34,34,34,1,80,0,,,,,,,,
,,611117d79c57e6744e059bc4,65af54b33f5fcc7f4ffca785,2024-01-23_07h56.30.199,bars,2023.2.3,Win32,8.474576271,657b66ea316d21385b68909f,,,,,,,,,,,1304.043,1304.966,,,1305.374,1305.646,,64,64,,,,,,,,,,,,,,,,bars/046.png,bars/mask005.png,,,,,,,,,,,,3,2,,,,,,,8,8,9,9,,,,,,,,,,,1304.966,1305.374,1305.646,1326.292,space,20.513,,1326.292,89,21,1327.226,1327.226,1327.236,,,,0,35,35,35,1,155,85,,,,,,,,
,,611117d79c57e6744e059bc4,65af54b33f5fcc7f4ffca785,2024-01-23_07h56.30.199,bars,2023.2.3,Win32,8.474576271,657b66ea316d21385b68909f,,,,,,,,,,,1327.236,1328.165,,,1328.583,1328.851,,101,101,,,,,,,,,,,,,,,,bars/027.png,bars/mask001.png,,,,,,,,,,,,5,1,,,,,,,6,10,7,10,,,,,,,,,,,1328.165,1328.583,1328.851,1333.937,space,4.958,,1333.937,9,51,1334.864,1334.864,1334.874,,,,0,36,36,36,1,110,50,,,,,,,,
,,611117d79c57e6744e059bc4,65af54b33f5fcc7f4ffca785,2024-01-23_07h56.30.199,bars,2023.2.3,Win32,8.474576271,657b66ea316d21385b68909f,,,,,,,,,,,1334.874,1335.825,,,1336.232,1336.398,,88,88,,,,,,,,,,,,,,,,bars/001.png,bars/mask004.png,,,,,,,,,,,,7,2,,,,,,,8,8,9,8,,,,,,,,,,,1335.825,1336.232,1336.398,1346.325,space,9.781,,1346.325,42,3,1347.248,1347.248,1347.249,,,,0,37,37,37,1,130,85,,,,,,,,
,,611117d79c57e6744e059bc4,65af54b33f5fcc7f4ffca785,2024-01-23_07h56.30.199,bars,2023.2.3,Win32,8.474576271,657b66ea316d21385b68909f,,,,,,,,,,,1347.249,1348.18,,,1348.59,1348.861,,108,108,,,,,,,,,,,,,,,,bars/006.png,bars/mask007.png,,,,,,,,,,,,7,2,,,,,,,10,10,10,10,,,,,,,,,,,1348.18,1348.59,1348.861,1360.356,space,11.375,,1360.356,73,8,1361.276,1361.276,1361.285,,,,0,38,38,38,1,35,100,,,,,,,,
,,611117d79c57e6744e059bc4,65af54b33f5fcc7f4ffca785,2024-01-23_07h56.30.199,bars,2023.2.3,Win32,8.474576271,657b66ea316d21385b68909f,,,,,,,,,,,1361.285,1362.206,,,1362.626,1362.907,,89,89,,,,,,,,,,,,,,,,bars/002.png,bars/mask005.png,,,,,,,,,,,,9,2,,,,,,,10,10,10,10,,,,,,,,,,,1362.206,1362.626,1362.907,1366.237,space,3.205,,1366.237,41,4,1367.177,1367.177,1367.177,,,,0,39,39,39,1,130,85,,,,,,,,
,,611117d79c57e6744e059bc4,65af54b33f5fcc7f4ffca785,2024-01-23_07h56.30.199,bars,2023.2.3,Win32,8.474576271,657b66ea316d21385b68909f,,,,,,,,,,,1367.178,1368.112,,,1368.524,1368.804,,164,164,,,,,,,,,,,,,,,,bars/020.png,bars/mask000.png,,,,,,,,,,,,6,2,,,,,,,8,8,7,7,,,,,,,,,,,1368.112,1368.524,1368.804,1376.827,space,7.9,,1376.827,49,6,1377.763,1377.763,1377.764,,,,0,40,40,40,1,115,170,,,,,,,,
,,611117d79c57e6744e059bc4,65af54b33f5fcc7f4ffca785,2024-01-23_07h56.30.199,bars,2023.2.3,Win32,8.474576271,657b66ea316d21385b68909f,,,,,,,,,,,1377.764,1378.699,,,1379.105,1379.392,,100,100,,,,,,,,,,,,,,,,bars/037.png,bars/mask007.png,,,,,,,,,,,,4,2,,,,,,,10,6,10,5,,,,,,,,,,,1378.699,1379.105,1379.392,1385.404,space,5.888,,1385.404,50,5,1386.352,1386.352,1386.361,,,,0,41,41,41,1,150,105,,,,,,,,
,,611117d79c57e6744e059bc4,65af54b33f5fcc7f4ffca785,2024-01-23_07h56.30.199,bars,2023.2.3,Win32,8.474576271,657b66ea316d21385b68909f,,,,,,,,,,,1386.361,1387.295,,,1387.705,1387.974,,107,-73,,,,,,,,,,,,,,,,bars/039.png,bars/mask002.png,,,,,,,,,,,,7,2,,,,,,,8,8,7,7,,,,,,,,,,,1387.295,1387.705,1387.974,1398.669,space,10.571,,1398.669,68,2,1399.597,1399.597,1399.597,,,,0,42,42,42,1,175,105,,,,,,,,
,,611117d79c57e6744e059bc4,65af54b33f5fcc7f4ffca785,2024-01-23_07h56.30.199,bars,2023.2.3,Win32,8.474576271,657b66ea316d21385b68909f,,,,,,,,,,,1399.597,1400.538,,,1400.946,1401.218,,67,67,,,,,,,,,,,,,,,,bars/035.png,bars/mask005.png,,,,,,,,,,,,4,2,,,,,,,6,6,4,5,,,,,,,,,,,1400.538,1400.946,1401.218,1412.857,space,11.516,,1412.857,72,7,1413.781,1413.781,1413.789,,,,0,43,43,43,1,175,60,,,,,,,,
,,611117d79c57e6744e059bc4,65af54b33f5fcc7f4ffca785,2024-01-23_07h56.30.199,bars,2023.2.3,Win32,8.474576271,657b66ea316d21385b68909f,,,,,,,,,,,1413.789,1414.71,,,1415.125,1415.393,,107,107,,,,,,,,,,,,,,,,bars/009.png,bars/mask003.png,,,,,,,,,,,,4,2,,,,,,,8,4,7,4,,,,,,,,,,,1414.71,1415.125,1415.393,1422.906,space,7.386,,1422.906,88,2,1423.838,1423.838,1423.846,,,,0,44,44,44,1,15,105,,,,,,,,
,,611117d79c57e6744e059bc4,65af54b33f5fcc7f4ffca785,2024-01-23_07h56.30.199,bars,2023.2.3,Win32,8.474576271,657b66ea316d21385b68909f,,,,,,,,,,,1423.847,1424.768,,,1425.176,1425.449,,159,-21,,,,,,,,,,,,,,,,bars/016.png,bars/mask002.png,,,,,,,,,,,,5,2,,,,,,,10,6,10,6,,,,,,,,,,,1424.768,1425.176,1425.449,1437.416,space,11.841,,1437.417,61,6,1438.344,1438.344,1438.345,,,,0,45,45,45,1,40,165,,,,,,,,
,,611117d79c57e6744e059bc4,65af54b33f5fcc7f4ffca785,2024-01-23_07h56.30.199,bars,2023.2.3,Win32,8.474576271,657b66ea316d21385b68909f,,,,,,,,,,,1438.345,1439.275,,,1439.689,1439.968,,169,-11,,,,,,,,,,,,,,,,bars/014.png,bars/mask001.png,,,,,,,,,,,,3,2,,,,,,,8,4,7,5,,,,,,,,,,,1439.275,1439.689,1439.968,1445.423,space,5.328,,1445.423,89,11,1446.351,1446.351,1446.36,,,,0,46,46,46,1,80,0,,,,,,,,
,,611117d79c57e6744e059bc4,65af54b33f5fcc7f4ffca785,2024-01-23_07h56.30.199,bars,2023.2.3,Win32,8.474576271,657b66ea316d21385b68909f,,,,,,,,,,,1446.36,1447.276,,,1447.688,1447.959,,158,158,,,,,,,,,,,,,,,,bars/015.png,bars/mask008.png,,,,,,,,,,,,5,2,,,,,,,10,6,10,5,,,,,,,,,,,1447.276,1447.688,1447.959,1451.431,space,3.343,,1451.431,48,2,1452.353,1452.353,1452.362,,,,0,47,47,47,1,110,160,,,,,,,,
,,611117d79c57e6744e059bc4,65af54b33f5fcc7f4ffca785,2024-01-23_07h56.30.199,bars,2023.2.3,Win32,8.474576271,657b66ea316d21385b68909f,,,,,,,,,,,1452.363,1453.293,,,1453.707,1453.977,,82,82,,,,,,,,,,,,,,,,bars/037.png,bars/mask009.png,,,,,,,,,,,,2,2,,,,,,,8,8,7,8,,,,,,,,,,,1453.293,1453.707,1453.977,1464.128,space,10.023,,1464.128,68,23,1465.057,1465.057,1465.058,,,,0,48,48,48,1,150,105,,,,,,,,
,,611117d79c57e6744e059bc4,65af54b33f5fcc7f4ffca785,2024-01-23_07h56.30.199,bars,2023.2.3,Win32,8.474576271,657b66ea316d21385b68909f,,,,,,,,,,,1465.058,1465.992,,,1466.401,1466.672,,161,-19,,,,,,,,,,,,,,,,bars/044.png,bars/mask009.png,,,,,,,,,,,,8,2,,,,,,,6,10,7,10,,,,,,,,,,,1465.992,1466.401,1466.672,1471.672,space,4.874,,1471.672,86,6,1472.6,1472.6,1472.608,,,,0,49,49,49,1,75,155,,,,,,,,
,,611117d79c57e6744e059bc4,65af54b33f5fcc7f4ffca785,2024-01-23_07h56.30.199,bars,2023.2.3,Win32,8.474576271,657b66ea316d21385b68909f,,,,,,,,,,,,,,,,,,,,,,,,,,,,,,,,,,,,,,,,,,,,,,,,,,,,,,,,,,,,,,,,,,,,,,,,,,,,,,,,,,,,,,,,,,,,,1472.608,1532.585,0,1,1,1,1,sequence_tables/blk009.csv
,,611117d79c57e6744e059bc4,65af54b33f5fcc7f4ffca785,2024-01-23_07h56.30.199,bars,2023.2.3,Win32,8.474576271,657b66ea316d21385b68909f,,,,,,,,,,,1556.497,1557.416,,,1557.826,1558.094,,18,198,,,,,,,,,,,,,,,,bars/012.png,bars/mask009.png,,,,,,,,,,,,3,2,,,,,,,3,3,2,3,,,,,,1532.594,1556.486,space,23.773,,1557.416,1557.826,1558.094,1564.482,space,6.262,,1564.482,72,3,1565.424,1565.424,1565.434,,,,0,0,0,0,1,90,15,,,,,,,,
,,611117d79c57e6744e059bc4,65af54b33f5fcc7f4ffca785,2024-01-23_07h56.30.199,bars,2023.2.3,Win32,8.474576271,657b66ea316d21385b68909f,,,,,,,,,,,1565.434,1566.37,,,1566.776,1567.048,,86,86,,,,,,,,,,,,,,,,bars/018.png,bars/mask005.png,,,,,,,,,,,,2,2,,,,,,,1,1,1,2,,,,,,,,,,,1566.37,1566.776,1567.048,1576.003,space,8.829,,1576.003,64,4,1576.937,1576.937,1576.945,,,,0,1,1,1,1,150,90,,,,,,,,
,,611117d79c57e6744e059bc4,65af54b33f5fcc7f4ffca785,2024-01-23_07h56.30.199,bars,2023.2.3,Win32,8.474576271,657b66ea316d21385b68909f,,,,,,,,,,,1576.946,1577.919,,,1578.328,1578.479,,176,176,,,,,,,,,,,,,,,,bars/048.png,bars/mask004.png,,,,,,,,,,,,0,2,,,,,,,3,0,4,0,,,,,,,,,,,1577.919,1578.328,1578.479,1589.891,space,11.285,,1589.891,54,1,1590.841,1590.841,1590.842,,,,0,2,2,2,1,50,175,,,,,,,,
,,611117d79c57e6744e059bc4,65af54b33f5fcc7f4ffca785,2024-01-23_07h56.30.199,bars,2023.2.3,Win32,8.474576271,657b66ea316d21385b68909f,,,,,,,,,,,1590.842,1591.769,,,1592.177,1592.446,,175,175,,,,,,,,,,,,,,,,bars/014.png,bars/mask009.png,,,,,,,,,,,,3,2,,,,,,,1,2,0,4,,,,,,,,,,,1591.769,1592.177,1592.446,1600.913,space,8.338,,1600.913,85,5,1601.844,1601.844,1601.844,,,,0,3,3,3,1,80,0,,,,,,,,
,,611117d79c57e6744e059bc4,65af54b33f5fcc7f4ffca785,2024-01-23_07h56.30.199,bars,2023.2.3,Win32,8.474576271,657b66ea316d21385b68909f,,,,,,,,,,,1601.845,1602.762,,,1603.174,1603.458,,151,-29,,,,,,,,,,,,,,,,bars/015.png,bars/mask002.png,,,,,,,,,,,,3,2,,,,,,,3,4,4,4,,,,,,,,,,,1602.762,1603.174,1603.458,1614.673,space,11.09,,1614.673,41,9,1615.6,1615.6,1615.609,,,,0,4,4,4,1,110,160,,,,,,,,
,,611117d79c57e6744e059bc4,65af54b33f5fcc7f4ffca785,2024-01-23_07h56.30.199,bars,2023.2.3,Win32,8.474576271,657b66ea316d21385b68909f,,,,,,,,,,,1615.609,1616.534,,,1616.942,1617.212,,45,225,,,,,,,,,,,,,,,,bars/025.png,bars/mask006.png,,,,,,,,,,,,5,2,,,,,,,1,6,2,6,,,,,,,,,,,1616.534,1616.942,1617.212,1671.704,space,54.359,,1671.704,60,5,1672.632,1672.632,1672.643,,,,0,5,5,5,1,105,40,,,,,,,,
,,611117d79c57e6744e059bc4,65af54b33f5fcc7f4ffca785,2024-01-23_07h56.30.199,bars,2023.2.3,Win32,8.474576271,657b66ea316d21385b68909f,,,,,,,,,,,1672.643,1673.565,,,1673.972,1674.243,,149,-31,,,,,,,,,,,,,,,,bars/039.png,bars/mask007.png,,,,,,,,,,,,0,1,,,,,,,0,8,0,6,,,,,,,,,,,1673.565,1673.972,1674.243,1683.175,space,8.805,,1683.175,26,44,1684.111,1684.111,1684.12,,,,0,6,6,6,1,175,105,,,,,,,,
,,611117d79c57e6744e059bc4,65af54b33f5fcc7f4ffca785,2024-01-23_07h56.30.199,bars,2023.2.3,Win32,8.474576271,657b66ea316d21385b68909f,,,,,,,,,,,1684.121,1685.037,,,1685.443,1685.717,,151,151,,,,,,,,,,,,,,,,bars/000.png,bars/mask001.png,,,,,,,,,,,,5,2,,,,,,,0,6,0,6,,,,,,,,,,,1685.037,1685.443,1685.717,1697.5,space,11.658,,1697.5,69,6,1698.427,1698.427,1698.436,,,,0,7,7,7,1,40,145,,,,,,,,
,,611117d79c57e6744e059bc4,65af54b33f5fcc7f4ffca785,2024-01-23_07h56.30.199,bars,2023.2.3,Win32,8.474576271,657b66ea316d21385b68909f,,,,,,,,,,,1698.436,1699.362,,,1699.769,1700.042,,6,186,,,,,,,,,,,,,,,,bars/040.png,bars/mask003.png,,,,,,,,,,,,4,2,,,,,,,2,4,1,4,,,,,,,,,,,1699.362,1699.769,1700.042,1706.748,space,6.58,,1706.748,46,1,1707.693,1707.693,1707.701,,,,0,8,8,8,1,140,5,,,,,,,,
,,611117d79c57e6744e059bc4,65af54b33f5fcc7f4ffca785,2024-01-23_07h56.30.199,bars,2023.2.3,Win32,8.474576271,657b66ea316d21385b68909f,,,,,,,,,,,1707.702,1708.621,,,1709.027,1709.298,,65,65,,,,,,,,,,,,,,,,bars/030.png,bars/mask005.png,,,,,,,,,,,,6,2,,,,,,,4,6,3,6,,,,,,,,,,,1708.621,1709.027,1709.298,1716.141,space,6.707,,1716.141,75,0,1717.029,1717.029,1717.029,,,,0,9,9,9,1,140,65,,,,,,,,
,,611117d79c57e6744e059bc4,65af54b33f5fcc7f4ffca785,2024-01-23_07h56.30.199,bars,2023.2.3,Win32,8.474576271,657b66ea316d21385b68909f,,,,,,,,,,,1717.029,1717.966,,,1718.37,1718.647,,74,74,,,,,,,,,,,,,,,,bars/022.png,bars/mask000.png,,,,,,,,,,,,2,1,,,,,,,6,8,7,9,,,,,,,,,,,1717.966,1718.37,1718.647,1736.54,space,17.766,,1736.54,21,54,1737.491,1737.491,1737.504,,,,0,10,10,10,1,95,20,,,,,,,,
,,611117d79c57e6744e059bc4,65af54b33f5fcc7f4ffca785,2024-01-23_07h56.30.199,bars,2023.2.3,Win32,8.474576271,657b66ea316d21385b68909f,,,,,,,,,,,1737.504,1738.453,,,1738.863,1739.134,,98,98,,,,,,,,,,,,,,,,bars/011.png,bars/mask005.png,,,,,,,,,,,,3,2,,,,,,,4,6,4,5,,,,,,,,,,,1738.453,1738.863,1739.134,1747.442,space,8.188,,1747.442,62,13,1748.399,1748.399,1748.409,,,,0,11,11,11,1,160,85,,,,,,,,
,,611117d79c57e6744e059bc4,65af54b33f5fcc7f4ffca785,2024-01-23_07h56.30.199,bars,2023.2.3,Win32,8.474576271,657b66ea316d21385b68909f,,,,,,,,,,,1748.409,1749.334,,,1749.751,1750.021,,76,76,,,,,,,,,,,,,,,,bars/029.png,bars/mask001.png,,,,,,,,,,,,1,1,,,,,,,2,8,2,9,,,,,,,,,,,1749.334,1749.751,1750.021,1756.228,space,6.073,,1756.228,14,31,1757.161,1757.161,1757.171,,,,0,12,12,12,1,90,45,,,,,,,,
,,611117d79c57e6744e059bc4,65af54b33f5fcc7f4ffca785,2024-01-23_07h56.30.199,bars,2023.2.3,Win32,8.474576271,657b66ea316d21385b68909f,,,,,,,,,,,1757.171,1758.09,,,1758.507,1758.782,,32,32,,,,,,,,,,,,,,,,bars/007.png,bars/mask000.png,,,,,,,,,,,,2,2,,,,,,,0,10,1,9,,,,,,,,,,,1758.09,1758.507,1758.782,1761.858,space,2.949,,1761.858,37,23,1762.785,1762.785,1762.786,,,,0,13,13,13,1,175,55,,,,,,,,
,,611117d79c57e6744e059bc4,65af54b33f5fcc7f4ffca785,2024-01-23_07h56.30.199,bars,2023.2.3,Win32,8.474576271,657b66ea316d21385b68909f,,,,,,,,,,,1762.786,1763.712,,,1764.121,1764.397,,138,138,,,,,,,,,,,,,,,,bars/005.png,bars/mask001.png,,,,,,,,,,,,9,2,,,,,,,2,10,1,10,,,,,,,,,,,1763.712,1764.12,1764.397,1769.904,space,5.38,,1769.904,52,2,1770.843,1770.843,1770.851,,,,0,14,14,14,1,10,140,,,,,,,,
,,611117d79c57e6744e059bc4,65af54b33f5fcc7f4ffca785,2024-01-23_07h56.30.199,bars,2023.2.3,Win32,8.474576271,657b66ea316d21385b68909f,,,,,,,,,,,1770.851,1771.796,,,1772.201,1772.477,,38,218,,,,,,,,,,,,,,,,bars/025.png,bars/mask009.png,,,,,,,,,,,,7,2,,,,,,,0,8,0,8,,,,,,,,,,,1771.796,1772.201,1772.477,1784.107,space,11.508,,1784.107,67,2,1785.025,1785.025,1785.026,,,,0,15,15,15,1,105,40,,,,,,,,
,,611117d79c57e6744e059bc4,65af54b33f5fcc7f4ffca785,2024-01-23_07h56.30.199,bars,2023.2.3,Win32,8.474576271,657b66ea316d21385b68909f,,,,,,,,,,,1785.026,1785.959,,,1786.369,1786.643,,171,171,,,,,,,,,,,,,,,,bars/024.png,bars/mask005.png,,,,,,,,,,,,8,2,,,,,,,0,10,1,8,,,,,,,,,,,1785.959,1786.369,1786.643,1790.247,space,3.479,,1790.247,51,1,1791.169,1791.169,1791.178,,,,0,16,16,16,1,120,170,,,,,,,,
,,611117d79c57e6744e059bc4,65af54b33f5fcc7f4ffca785,2024-01-23_07h56.30.199,bars,2023.2.3,Win32,8.474576271,657b66ea316d21385b68909f,,,,,,,,,,,1791.178,1792.1,,,1792.514,1792.787,,159,-21,,,,,,,,,,,,,,,,bars/040.png,bars/mask000.png,,,,,,,,,,,,0,1,,,,,,,0,10,0,9,,,,,,,,,,,1792.1,1792.514,1792.787,1805.592,space,12.684,,1805.592,19,26,1806.511,1806.511,1806.521,,,,0,17,17,17,1,140,5,,,,,,,,
,,611117d79c57e6744e059bc4,65af54b33f5fcc7f4ffca785,2024-01-23_07h56.30.199,bars,2023.2.3,Win32,8.474576271,657b66ea316d21385b68909f,,,,,,,,,,,1806.522,1807.461,,,1807.868,1808.144,,101,101,,,,,,,,,,,,,,,,bars/018.png,bars/mask003.png,,,,,,,,,,,,6,2,,,,,,,2,10,2,10,,,,,,,,,,,1807.461,1807.868,1808.144,1815.632,space,7.348,,1815.632,49,11,1816.537,1816.537,1816.539,,,,0,18,18,18,1,150,90,,,,,,,,
,,611117d79c57e6744e059bc4,65af54b33f5fcc7f4ffca785,2024-01-23_07h56.30.199,bars,2023.2.3,Win32,8.474576271,657b66ea316d21385b68909f,,,,,,,,,,,1816.539,1817.522,,,1817.937,1818.207,,83,83,,,,,,,,,,,,,,,,bars/027.png,bars/mask001.png,,,,,,,,,,,,0,1,,,,,,,4,8,5,8,,,,,,,,,,,1817.522,1817.937,1818.207,1825.904,space,7.569,,1825.904,27,33,1826.84,1826.84,1826.849,,,,0,19,19,19,1,110,50,,,,,,,,
,,611117d79c57e6744e059bc4,65af54b33f5fcc7f4ffca785,2024-01-23_07h56.30.199,bars,2023.2.3,Win32,8.474576271,657b66ea316d21385b68909f,,,,,,,,,,,1826.849,1827.774,,,1828.183,1828.457,,68,68,,,,,,,,,,,,,,,,bars/042.png,bars/mask007.png,,,,,,,,,,,,8,2,,,,,,,6,10,7,10,,,,,,,,,,,1827.774,1828.183,1828.457,1834.114,space,5.531,,1834.114,77,7,1835.04,1835.04,1835.049,,,,0,20,20,20,1,145,75,,,,,,,,
,,611117d79c57e6744e059bc4,65af54b33f5fcc7f4ffca785,2024-01-23_07h56.30.199,bars,2023.2.3,Win32,8.474576271,657b66ea316d21385b68909f,,,,,,,,,,,1835.049,1835.969,,,1836.378,1836.541,,92,92,,,,,,,,,,,,,,,,bars/041.png,bars/mask000.png,,,,,,,,,,,,5,2,,,,,,,8,8,7,7,,,,,,,,,,,1835.969,1836.378,1836.541,1842.178,space,5.509,,1842.178,72,7,1843.104,1843.104,1843.104,,,,0,21,21,21,1,20,85,,,,,,,,
,,611117d79c57e6744e059bc4,65af54b33f5fcc7f4ffca785,2024-01-23_07h56.30.199,bars,2023.2.3,Win32,8.474576271,657b66ea316d21385b68909f,,,,,,,,,,,1843.104,1844.095,,,1844.506,1844.779,,121,-59,,,,,,,,,,,,,,,,bars/012.png,bars/mask003.png,,,,,,,,,,,,0,1,,,,,,,6,10,6,10,,,,,,,,,,,1844.095,1844.506,1844.779,1858.067,space,13.159,,1858.067,31,74,1858.992,1858.992,1858.993,,,,0,22,22,22,1,90,15,,,,,,,,
,,611117d79c57e6744e059bc4,65af54b33f5fcc7f4ffca785,2024-01-23_07h56.30.199,bars,2023.2.3,Win32,8.474576271,657b66ea316d21385b68909f,,,,,,,,,,,1858.993,1859.923,,,1860.328,1860.599,,89,89,,,,,,,,,,,,,,,,bars/019.png,bars/mask006.png,,,,,,,,,,,,3,2,,,,,,,4,8,3,7,,,,,,,,,,,1859.923,1860.328,1860.599,1870.623,space,9.9,,1870.623,44,16,1871.572,1871.572,1871.58,,,,0,23,23,23,1,45,105,,,,,,,,
,,611117d79c57e6744e059bc4,65af54b33f5fcc7f4ffca785,2024-01-23_07h56.30.199,bars,2023.2.3,Win32,8.474576271,657b66ea316d21385b68909f,,,,,,,,,,,1871.581,1872.52,,,1872.936,1873.207,,64,64,,,,,,,,,,,,,,,,bars/035.png,bars/mask001.png,,,,,,,,,,,,9,2,,,,,,,6,10,6,10,,,,,,,,,,,1872.52,1872.936,1873.207,1874.947,space,1.616,,1874.947,69,4,1875.897,1875.897,1875.906,,,,0,24,24,24,1,175,60,,,,,,,,
,,611117d79c57e6744e059bc4,65af54b33f5fcc7f4ffca785,2024-01-23_07h56.30.199,bars,2023.2.3,Win32,8.474576271,657b66ea316d21385b68909f,,,,,,,,,,,1875.906,1876.828,,,1877.25,1877.4,,142,142,,,,,,,,,,,,,,,,bars/044.png,bars/mask009.png,,,,,,,,,,,,5,2,,,,,,,8,10,8,9,,,,,,,,,,,1876.828,1877.25,1877.4,1878.083,space,0.541,,1878.083,67,13,1879.014,1879.014,1879.015,,,,0,25,25,25,1,75,155,,,,,,,,
,,611117d79c57e6744e059bc4,65af54b33f5fcc7f4ffca785,2024-01-23_07h56.30.199,bars,2023.2.3,Win32,8.474576271,657b66ea316d21385b68909f,,,,,,,,,,,1879.015,1879.955,,,1880.362,1880.635,,43,43,,,,,,,,,,,,,,,,bars/024.png,bars/mask003.png,,,,,,,,,,,,0,2,,,,,,,10,8,10,8,,,,,,,,,,,1879.955,1880.362,1880.635,1881.453,space,0.691,,1881.453,77,53,1882.385,1882.385,1882.385,,,,0,26,26,26,1,120,170,,,,,,,,
,,611117d79c57e6744e059bc4,65af54b33f5fcc7f4ffca785,2024-01-23_07h56.30.199,bars,2023.2.3,Win32,8.474576271,657b66ea316d21385b68909f,,,,,,,,,,,1882.385,1883.319,,,1883.736,1884.005,,61,61,,,,,,,,,,,,,,,,bars/031.png,bars/mask004.png,,,,,,,,,,,,1,2,,,,,,,10,10,10,10,,,,,,,,,,,1883.319,1883.736,1884.006,1886.399,space,2.266,,1886.399,59,26,1887.331,1887.331,1887.339,,,,0,27,27,27,1,120,35,,,,,,,,
,,611117d79c57e6744e059bc4,65af54b33f5fcc7f4ffca785,2024-01-23_07h56.30.199,bars,2023.2.3,Win32,8.474576271,657b66ea316d21385b68909f,,,,,,,,,,,1887.339,1888.265,,,1888.68,1888.951,,70,70,,,,,,,,,,,,,,,,bars/042.png,bars/mask007.png,,,,,,,,,,,,8,2,,,,,,,8,10,8,10,,,,,,,,,,,1888.265,1888.68,1888.951,1898.45,space,9.377,,1898.45,75,5,1899.407,1899.407,1899.416,,,,0,28,28,28,1,145,75,,,,,,,,
,,611117d79c57e6744e059bc4,65af54b33f5fcc7f4ffca785,2024-01-23_07h56.30.199,bars,2023.2.3,Win32,8.474576271,657b66ea316d21385b68909f,,,,,,,,,,,1899.417,1900.342,,,1900.762,1901.038,,88,88,,,,,,,,,,,,,,,,bars/001.png,bars/mask005.png,,,,,,,,,,,,8,2,,,,,,,10,8,9,9,,,,,,,,,,,1900.342,1900.762,1901.038,1905.037,space,3.873,,1905.037,42,3,1905.966,1905.966,1905.974,,,,0,29,29,29,1,130,85,,,,,,,,
,,611117d79c57e6744e059bc4,65af54b33f5fcc7f4ffca785,2024-01-23_07h56.30.199,bars,2023.2.3,Win32,8.474576271,657b66ea316d21385b68909f,,,,,,,,,,,1905.975,1906.902,,,1907.308,1907.463,,115,-65,,,,,,,,,,,,,,,,bars/023.png,bars/mask005.png,,,,,,,,,,,,10,2,,,,,,,8,10,7,10,,,,,,,,,,,1906.902,1907.308,1907.463,1919.643,space,12.057,,1919.643,85,0,1920.574,1920.574,1920.583,,,,0,30,30,30,1,20,115,,,,,,,,
,,611117d79c57e6744e059bc4,65af54b33f5fcc7f4ffca785,2024-01-23_07h56.30.199,bars,2023.2.3,Win32,8.474576271,657b66ea316d21385b68909f,,,,,,,,,,,1920.583,1921.509,,,1921.913,1922.187,,46,46,,,,,,,,,,,,,,,,bars/022.png,bars/mask000.png,,,,,,,,,,,,1,2,,,,,,,6,10,5,10,,,,,,,,,,,1921.509,1921.913,1922.187,1927.265,space,4.954,,1927.265,49,26,1928.201,1928.201,1928.21,,,,0,31,31,31,1,95,20,,,,,,,,
,,611117d79c57e6744e059bc4,65af54b33f5fcc7f4ffca785,2024-01-23_07h56.30.199,bars,2023.2.3,Win32,8.474576271,657b66ea316d21385b68909f,,,,,,,,,,,1928.21,1929.141,,,1929.552,1929.823,,122,122,,,,,,,,,,,,,,,,bars/049.png,bars/mask003.png,,,,,,,,,,,,7,2,,,,,,,4,10,1,9,,,,,,,,,,,1929.141,1929.552,1929.823,1931.285,space,1.331,,1931.285,38,7,1932.211,1932.211,1932.221,,,,0,32,32,32,1,160,115,,,,,,,,
,,611117d79c57e6744e059bc4,65af54b33f5fcc7f4ffca785,2024-01-23_07h56.30.199,bars,2023.2.3,Win32,8.474576271,657b66ea316d21385b68909f,,,,,,,,,,,1932.221,1933.144,,,1933.557,1933.83,,130,130,,,,,,,,,,,,,,,,bars/012.png,bars/mask008.png,,,,,,,,,,,,0,1,,,,,,,2,8,2,8,,,,,,,,,,,1933.144,1933.557,1933.83,1934.906,space,0.936,,1934.906,40,65,1935.861,1935.861,1935.862,,,,0,33,33,33,1,90,15,,,,,,,,
,,611117d79c57e6744e059bc4,65af54b33f5fcc7f4ffca785,2024-01-23_07h56.30.199,bars,2023.2.3,Win32,8.474576271,657b66ea316d21385b68909f,,,,,,,,,,,1935.862,1936.831,,,1937.273,1937.423,,113,113,,,,,,,,,,,,,,,,bars/026.png,bars/mask009.png,,,,,,,,,,,,1,2,,,,,,,4,6,5,8,,,,,,,,,,,1936.831,1937.273,1937.423,1941.717,space,4.152,,1941.717,78,28,1942.682,1942.682,1942.691,,,,0,34,34,34,1,35,85,,,,,,,,
,,611117d79c57e6744e059bc4,65af54b33f5fcc7f4ffca785,2024-01-23_07h56.30.199,bars,2023.2.3,Win32,8.474576271,657b66ea316d21385b68909f,,,,,,,,,,,1942.691,1943.609,,,1944.013,1944.285,,109,109,,,,,,,,,,,,,,,,bars/043.png,bars/mask007.png,,,,,,,,,,,,3,2,,,,,,,6,8,5,9,,,,,,,,,,,1943.609,1944.013,1944.285,1949.243,space,4.833,,1949.243,79,21,1950.197,1950.197,1950.197,,,,0,35,35,35,1,30,130,,,,,,,,
,,611117d79c57e6744e059bc4,65af54b33f5fcc7f4ffca785,2024-01-23_07h56.30.199,bars,2023.2.3,Win32,8.474576271,657b66ea316d21385b68909f,,,,,,,,,,,1950.197,1951.131,,,1951.533,1951.804,,81,81,,,,,,,,,,,,,,,,bars/042.png,bars/mask006.png,,,,,,,,,,,,7,2,,,,,,,8,10,9,9,,,,,,,,,,,1951.131,1951.533,1951.804,1960.537,space,8.609,,1960.537,64,6,1961.471,1961.472,1961.472,,,,0,36,36,36,1,145,75,,,,,,,,
,,611117d79c57e6744e059bc4,65af54b33f5fcc7f4ffca785,2024-01-23_07h56.30.199,bars,2023.2.3,Win32,8.474576271,657b66ea316d21385b68909f,,,,,,,,,,,1961.472,1962.404,,,1962.813,1963.085,,136,-44,,,,,,,,,,,,,,,,bars/003.png,bars/mask007.png,,,,,,,,,,,,8,2,,,,,,,10,8,9,9,,,,,,,,,,,1962.404,1962.813,1963.085,1974.368,space,11.16,,1974.368,69,4,1975.29,1975.29,1975.298,,,,0,37,37,37,1,25,140,,,,,,,,
,,611117d79c57e6744e059bc4,65af54b33f5fcc7f4ffca785,2024-01-23_07h56.30.199,bars,2023.2.3,Win32,8.474576271,657b66ea316d21385b68909f,,,,,,,,,,,1975.298,1976.227,,,1976.637,1976.774,,111,111,,,,,,,,,,,,,,,,bars/026.png,bars/mask005.png,,,,,,,,,,,,1,2,,,,,,,10,10,10,10,,,,,,,,,,,1976.227,1976.637,1976.774,1982.435,space,5.535,,1982.435,76,26,1983.364,1983.364,1983.373,,,,0,38,38,38,1,35,85,,,,,,,,
,,611117d79c57e6744e059bc4,65af54b33f5fcc7f4ffca785,2024-01-23_07h56.30.199,bars,2023.2.3,Win32,8.474576271,657b66ea316d21385b68909f,,,,,,,,,,,1983.373,1984.305,,,1984.729,1984.999,,69,249,,,,,,,,,,,,,,,,bars/047.png,bars/mask009.png,,,,,,,,,,,,10,2,,,,,,,10,10,10,10,,,,,,,,,,,1984.305,1984.729,1984.999,1999.836,space,14.717,,1999.837,54,1,2000.767,2000.767,2000.775,,,,0,39,39,39,1,15,70,,,,,,,,
,,611117d79c57e6744e059bc4,65af54b33f5fcc7f4ffca785,2024-01-23_07h56.30.199,bars,2023.2.3,Win32,8.474576271,657b66ea316d21385b68909f,,,,,,,,,,,2000.775,2001.709,,,2002.118,2002.398,,171,171,,,,,,,,,,,,,,,,bars/048.png,bars/mask001.png,,,,,,,,,,,,6,2,,,,,,,8,8,7,7,,,,,,,,,,,2001.709,2002.118,2002.398,2013.9,space,11.372,,2013.9,59,4,2014.831,2014.831,2014.84,,,,0,40,40,40,1,50,175,,,,,,,,
,,611117d79c57e6744e059bc4,65af54b33f5fcc7f4ffca785,2024-01-23_07h56.30.199,bars,2023.2.3,Win32,8.474576271,657b66ea316d21385b68909f,,,,,,,,,,,2014.84,2015.76,,,2016.168,2016.437,,153,153,,,,,,,,,,,,,,,,bars/000.png,bars/mask007.png,,,,,,,,,,,,5,2,,,,,,,10,6,10,7,,,,,,,,,,,2015.76,2016.168,2016.437,2020.217,space,3.653,,2020.217,67,8,2021.197,2021.197,2021.198,,,,0,41,41,41,1,40,145,,,,,,,,
,,611117d79c57e6744e059bc4,65af54b33f5fcc7f4ffca785,2024-01-23_07h56.30.199,bars,2023.2.3,Win32,8.474576271,657b66ea316d21385b68909f,,,,,,,,,,,2021.198,2022.183,,,2022.607,2022.9,,136,136,,,,,,,,,,,,,,,,bars/049.png,bars/mask006.png,,,,,,,,,,,,1,2,,,,,,,10,4,10,4,,,,,,,,,,,2022.183,2022.607,2022.9,2034.631,space,11.608,,2034.631,24,21,2035.562,2035.562,2035.57,,,,0,42,42,42,1,160,115,,,,,,,,
,,611117d79c57e6744e059bc4,65af54b33f5fcc7f4ffca785,2024-01-23_07h56.30.199,bars,2023.2.3,Win32,8.474576271,657b66ea316d21385b68909f,,,,,,,,,,,2035.571,2036.486,,,2036.901,2037.173,,46,46,,,,,,,,,,,,,,,,bars/010.png,bars/mask008.png,,,,,,,,,,,,5,2,,,,,,,8,6,7,7,,,,,,,,,,,2036.486,2036.901,2037.174,2039.305,space,2.005,,2039.305,61,9,2040.242,2040.242,2040.243,,,,0,43,43,43,1,165,55,,,,,,,,
,,611117d79c57e6744e059bc4,65af54b33f5fcc7f4ffca785,2024-01-23_07h56.30.199,bars,2023.2.3,Win32,8.474576271,657b66ea316d21385b68909f,,,,,,,,,,,2040.243,2041.166,,,2041.574,2041.849,,137,137,,,,,,,,,,,,,,,,bars/005.png,bars/mask004.png,,,,,,,,,,,,8,2,,,,,,,10,8,10,9,,,,,,,,,,,2041.166,2041.574,2041.849,2046.39,space,4.415,,2046.39,53,3,2047.321,2047.321,2047.33,,,,0,44,44,44,1,10,140,,,,,,,,
,,611117d79c57e6744e059bc4,65af54b33f5fcc7f4ffca785,2024-01-23_07h56.30.199,bars,2023.2.3,Win32,8.474576271,657b66ea316d21385b68909f,,,,,,,,,,,2047.33,2048.259,,,2048.668,2048.938,,162,-18,,,,,,,,,,,,,,,,bars/013.png,bars/mask001.png,,,,,,,,,,,,1,2,,,,,,,10,10,10,10,,,,,,,,,,,2048.259,2048.668,2048.938,2057.712,space,8.649,,2057.712,87,28,2058.647,2058.647,2058.658,,,,0,45,45,45,1,75,10,,,,,,,,
,,611117d79c57e6744e059bc4,65af54b33f5fcc7f4ffca785,2024-01-23_07h56.30.199,bars,2023.2.3,Win32,8.474576271,657b66ea316d21385b68909f,,,,,,,,,,,2058.659,2059.585,,,2059.996,2060.269,,136,136,,,,,,,,,,,,,,,,bars/004.png,bars/mask009.png,,,,,,,,,,,,5,2,,,,,,,8,8,7,8,,,,,,,,,,,2059.585,2059.996,2060.269,2061.35,space,0.957,,2061.35,69,11,2062.282,2062.282,2062.282,,,,0,46,46,46,1,25,125,,,,,,,,
,,611117d79c57e6744e059bc4,65af54b33f5fcc7f4ffca785,2024-01-23_07h56.30.199,bars,2023.2.3,Win32,8.474576271,657b66ea316d21385b68909f,,,,,,,,,,,2062.282,2063.212,,,2063.619,2063.888,,33,33,,,,,,,,,,,,,,,,bars/022.png,bars/mask007.png,,,,,,,,,,,,6,2,,,,,,,10,10,10,10,,,,,,,,,,,2063.212,2063.619,2063.888,2067.353,space,3.343,,2067.353,62,13,2068.286,2068.286,2068.295,,,,0,47,47,47,1,95,20,,,,,,,,
,,611117d79c57e6744e059bc4,65af54b33f5fcc7f4ffca785,2024-01-23_07h56.30.199,bars,2023.2.3,Win32,8.474576271,657b66ea316d21385b68909f,,,,,,,,,,,2068.295,2069.215,,,2069.622,2069.778,,0,0,,,,,,,,,,,,,,,,bars/008.png,bars/mask009.png,,,,,,,,,,,,8,2,,,,,,,8,8,8,8,,,,,,,,,,,2069.215,2069.622,2069.778,2077.656,space,7.752,,2077.656,70,0,2078.579,2078.579,2078.579,,,,0,48,48,48,1,110,0,,,,,,,,
,,611117d79c57e6744e059bc4,65af54b33f5fcc7f4ffca785,2024-01-23_07h56.30.199,bars,2023.2.3,Win32,8.474576271,657b66ea316d21385b68909f,,,,,,,,,,,2078.58,2079.502,,,2079.914,2080.192,,171,-9,,,,,,,,,,,,,,,,bars/008.png,bars/mask004.png,,,,,,,,,,,,4,2,,,,,,,10,6,10,6,,,,,,,,,,,2079.502,2079.914,2080.192,2094.35,space,14.033,,2094.35,61,9,2095.277,2095.277,2095.286,,,,0,49,49,49,1,110,0,,,,,,,,
,,611117d79c57e6744e059bc4,65af54b33f5fcc7f4ffca785,2024-01-23_07h56.30.199,bars,2023.2.3,Win32,8.474576271,657b66ea316d21385b68909f,,,,,,,,,,,,,,,,,,,,,,,,,,,,,,,,,,,,,,,,,,,,,,,,,,,,,,,,,,,,,,,,,,,,,,,,,,,,,,,,,,,,,,,,,,,,,2095.286,2155.194,0,2,2,2,1,sequence_tables/blk029.csv
,,611117d79c57e6744e059bc4,65af54b33f5fcc7f4ffca785,2024-01-23_07h56.30.199,bars,2023.2.3,Win32,8.474576271,657b66ea316d21385b68909f,,,,,,,,,,,2161.261,2162.184,,,2162.591,2162.868,,97,97,,,,,,,,,,,,,,,,bars/019.png,bars/mask001.png,,,,,,,,,,,,5,2,,,,,,,7,6,8,7,,,,,,2155.203,2161.25,space,5.927,,2162.184,2162.591,2162.868,2170.861,space,7.871,,2170.861,52,8,2171.877,2171.877,2171.877,,,,0,0,0,0,1,45,105,,,,,,,,
,,611117d79c57e6744e059bc4,65af54b33f5fcc7f4ffca785,2024-01-23_07h56.30.199,bars,2023.2.3,Win32,8.474576271,657b66ea316d21385b68909f,,,,,,,,,,,2171.877,2172.839,,,2173.25,2173.525,,115,115,,,,,,,,,,,,,,,,bars/023.png,bars/mask009.png,,,,,,,,,,,,3,2,,,,,,,5,4,7,3,,,,,,,,,,,2172.839,2173.25,2173.525,2182.702,space,9.048,,2182.702,85,0,2183.625,2183.625,2183.635,,,,0,1,1,1,1,20,115,,,,,,,,
,,611117d79c57e6744e059bc4,65af54b33f5fcc7f4ffca785,2024-01-23_07h56.30.199,bars,2023.2.3,Win32,8.474576271,657b66ea316d21385b68909f,,,,,,,,,,,2183.635,2184.561,,,2184.969,2185.238,,41,41,,,,,,,,,,,,,,,,bars/021.png,bars/mask000.png,,,,,,,,,,,,0,2,,,,,,,3,2,2,2,,,,,,,,,,,2184.561,2184.969,2185.238,2186.564,space,1.199,,2186.564,66,29,2187.49,2187.49,2187.49,,,,0,2,2,2,1,155,70,,,,,,,,
,,611117d79c57e6744e059bc4,65af54b33f5fcc7f4ffca785,2024-01-23_07h56.30.199,bars,2023.2.3,Win32,8.474576271,657b66ea316d21385b68909f,,,,,,,,,,,2187.49,2188.405,,,2188.811,2189.083,,173,173,,,,,,,,,,,,,,,,bars/044.png,bars/mask009.png,,,,,,,,,,,,0,2,,,,,,,1,0,0,0,,,,,,,,,,,2188.405,2188.811,2189.083,2195.643,space,6.43,,2195.643,82,18,2196.63,2196.63,2196.642,,,,0,3,3,3,1,75,155,,,,,,,,
,,611117d79c57e6744e059bc4,65af54b33f5fcc7f4ffca785,2024-01-23_07h56.30.199,bars,2023.2.3,Win32,8.474576271,657b66ea316d21385b68909f,,,,,,,,,,,2196.642,2197.59,,,2198.007,2198.276,,113,113,,,,,,,,,,,,,,,,bars/046.png,bars/mask000.png,,,,,,,,,,,,0,2,,,,,,,3,0,4,0,,,,,,,,,,,2197.59,2198.007,2198.276,2212.554,space,14.153,,2212.554,42,28,2213.475,2213.475,2213.484,,,,0,4,4,4,1,155,85,,,,,,,,
,,611117d79c57e6744e059bc4,65af54b33f5fcc7f4ffca785,2024-01-23_07h56.30.199,bars,2023.2.3,Win32,8.474576271,657b66ea316d21385b68909f,,,,,,,,,,,2213.484,2214.41,,,2214.826,2215.105,,10,190,,,,,,,,,,,,,,,,bars/036.png,bars/mask006.png,,,,,,,,,,,,1,2,,,,,,,1,2,2,1,,,,,,,,,,,2214.41,2214.826,2215.105,2233.687,space,18.458,,2233.687,45,10,2234.609,2234.609,2234.618,,,,0,5,5,5,1,145,20,,,,,,,,
,,611117d79c57e6744e059bc4,65af54b33f5fcc7f4ffca785,2024-01-23_07h56.30.199,bars,2023.2.3,Win32,8.474576271,657b66ea316d21385b68909f,,,,,,,,,,,2234.618,2235.574,,,2235.985,2236.254,,93,93,,,,,,,,,,,,,,,,bars/038.png,bars/mask008.png,,,,,,,,,,,,1,2,,,,,,,0,4,0,5,,,,,,,,,,,2235.574,2235.985,2236.254,2243.387,space,7.003,,2243.387,72,23,2244.312,2244.312,2244.313,,,,0,6,6,6,1,165,70,,,,,,,,
,,611117d79c57e6744e059bc4,65af54b33f5fcc7f4ffca785,2024-01-23_07h56.30.199,bars,2023.2.3,Win32,8.474576271,657b66ea316d21385b68909f,,,,,,,,,,,2244.313,2245.243,,,2245.656,2245.935,,98,98,,,,,,,,,,,,,,,,bars/041.png,bars/mask006.png,,,,,,,,,,,,3,2,,,,,,,2,6,1,5,,,,,,,,,,,2245.243,2245.656,2245.935,2257.906,space,11.846,,2257.906,78,13,2258.851,2258.851,2258.863,,,,0,7,7,7,1,20,85,,,,,,,,
,,611117d79c57e6744e059bc4,65af54b33f5fcc7f4ffca785,2024-01-23_07h56.30.199,bars,2023.2.3,Win32,8.474576271,657b66ea316d21385b68909f,,,,,,,,,,,2258.864,2259.813,,,2260.221,2260.498,,143,143,,,,,,,,,,,,,,,,bars/041.png,bars/mask006.png,,,,,,,,,,,,0,1,,,,,,,4,4,3,2,,,,,,,,,,,2259.813,2260.221,2260.498,2267.203,space,6.576,,2267.203,57,58,2268.134,2268.134,2268.144,,,,0,8,8,8,1,20,85,,,,,,,,
,,611117d79c57e6744e059bc4,65af54b33f5fcc7f4ffca785,2024-01-23_07h56.30.199,bars,2023.2.3,Win32,8.474576271,657b66ea316d21385b68909f,,,,,,,,,,,2268.144,2269.071,,,2269.481,2269.761,,152,-28,,,,,,,,,,,,,,,,bars/043.png,bars/mask006.png,,,,,,,,,,,,0,2,,,,,,,2,2,2,1,,,,,,,,,,,2269.071,2269.481,2269.761,2279.099,space,9.215,,2279.099,58,22,2280.045,2280.045,2280.046,,,,0,9,9,9,1,30,130,,,,,,,,
,,611117d79c57e6744e059bc4,65af54b33f5fcc7f4ffca785,2024-01-23_07h56.30.199,bars,2023.2.3,Win32,8.474576271,657b66ea316d21385b68909f,,,,,,,,,,,2280.046,2280.97,,,2281.38,2281.655,,62,62,,,,,,,,,,,,,,,,bars/006.png,bars/mask006.png,,,,,,,,,,,,0,1,,,,,,,0,4,0,3,,,,,,,,,,,2280.97,2281.38,2281.655,2282.447,space,0.666,,2282.447,27,38,2283.395,2283.395,2283.396,,,,0,10,10,10,1,35,100,,,,,,,,
,,611117d79c57e6744e059bc4,65af54b33f5fcc7f4ffca785,2024-01-23_07h56.30.199,bars,2023.2.3,Win32,8.474576271,657b66ea316d21385b68909f,,,,,,,,,,,2283.396,2284.317,,,2284.74,2285.01,,63,63,,,,,,,,,,,,,,,,bars/049.png,bars/mask004.png,,,,,,,,,,,,0,2,,,,,,,0,6,1,6,,,,,,,,,,,2284.317,2284.74,2285.01,2285.543,space,0.408,,2285.543,83,52,2286.471,2286.471,2286.472,,,,0,11,11,11,1,160,115,,,,,,,,
,,611117d79c57e6744e059bc4,65af54b33f5fcc7f4ffca785,2024-01-23_07h56.30.199,bars,2023.2.3,Win32,8.474576271,657b66ea316d21385b68909f,,,,,,,,,,,2286.472,2287.388,,,2287.797,2288.066,,157,157,,,,,,,,,,,,,,,,bars/016.png,bars/mask009.png,,,,,,,,,,,,2,2,,,,,,,0,4,2,3,,,,,,,,,,,2287.388,2287.797,2288.066,2289.949,space,1.749,,2289.949,63,8,2290.883,2290.883,2290.893,,,,0,12,12,12,1,40,165,,,,,,,,
,,611117d79c57e6744e059bc4,65af54b33f5fcc7f4ffca785,2024-01-23_07h56.30.199,bars,2023.2.3,Win32,8.474576271,657b66ea316d21385b68909f,,,,,,,,,,,2290.893,2291.827,,,2292.364,2292.637,,95,95,,,,,,,,,,,,,,,,bars/018.png,bars/mask009.png,,,,,,,,,,,,4,2,,,,,,,0,6,0,5,,,,,,,,,,,2291.827,2292.364,2292.637,2296.165,space,3.402,,2296.165,55,5,2297.167,2297.167,2297.176,,,,0,13,13,13,1,150,90,,,,,,,,
,,611117d79c57e6744e059bc4,65af54b33f5fcc7f4ffca785,2024-01-23_07h56.30.199,bars,2023.2.3,Win32,8.474576271,657b66ea316d21385b68909f,,,,,,,,,,,2297.176,2298.098,,,2298.512,2298.784,,160,160,,,,,,,,,,,,,,,,bars/048.png,bars/mask007.png,,,,,,,,,,,,4,2,,,,,,,2,8,1,8,,,,,,,,,,,2298.098,2298.512,2298.784,2305.752,space,6.842,,2305.752,70,15,2306.688,2306.688,2306.689,,,,0,14,14,14,1,50,175,,,,,,,,
,,611117d79c57e6744e059bc4,65af54b33f5fcc7f4ffca785,2024-01-23_07h56.30.199,bars,2023.2.3,Win32,8.474576271,657b66ea316d21385b68909f,,,,,,,,,,,2306.689,2307.618,,,2308.032,2308.297,,171,-9,,,,,,,,,,,,,,,,bars/003.png,bars/mask000.png,,,,,,,,,,,,0,2,,,,,,,0,6,1,5,,,,,,,,,,,2307.618,2308.032,2308.297,2315.772,space,7.337,,2315.773,34,31,2316.765,2316.765,2316.766,,,,0,15,15,15,1,25,140,,,,,,,,
,,611117d79c57e6744e059bc4,65af54b33f5fcc7f4ffca785,2024-01-23_07h56.30.199,bars,2023.2.3,Win32,8.474576271,657b66ea316d21385b68909f,,,,,,,,,,,2316.766,2317.696,,,2318.11,2318.39,,92,92,,,,,,,,,,,,,,,,bars/028.png,bars/mask003.png,,,,,,,,,,,,1,2,,,,,,,0,8,1,9,,,,,,,,,,,2317.697,2318.11,2318.39,2319.063,space,0.55,,2319.063,47,28,2320.005,2320.005,2320.005,,,,0,16,16,16,1,45,120,,,,,,,,
,,611117d79c57e6744e059bc4,65af54b33f5fcc7f4ffca785,2024-01-23_07h56.30.199,bars,2023.2.3,Win32,8.474576271,657b66ea316d21385b68909f,,,,,,,,,,,2320.005,2320.934,,,2321.342,2321.617,,17,17,,,,,,,,,,,,,,,,bars/028.png,bars/mask006.png,,,,,,,,,,,,0,1,,,,,,,2,10,1,10,,,,,,,,,,,2320.934,2321.342,2321.617,2324.418,space,2.679,,2324.418,28,77,2325.343,2325.343,2325.352,,,,0,17,17,17,1,45,120,,,,,,,,
,,611117d79c57e6744e059bc4,65af54b33f5fcc7f4ffca785,2024-01-23_07h56.30.199,bars,2023.2.3,Win32,8.474576271,657b66ea316d21385b68909f,,,,,,,,,,,2325.352,2326.273,,,2326.682,2326.821,,159,159,,,,,,,,,,,,,,,,bars/014.png,bars/mask006.png,,,,,,,,,,,,3,2,,,,,,,4,10,2,9,,,,,,,,,,,2326.273,2326.682,2326.821,2335.495,space,8.549,,2335.495,79,21,2336.418,2336.418,2336.427,,,,0,18,18,18,1,80,0,,,,,,,,
,,611117d79c57e6744e059bc4,65af54b33f5fcc7f4ffca785,2024-01-23_07h56.30.199,bars,2023.2.3,Win32,8.474576271,657b66ea316d21385b68909f,,,,,,,,,,,2336.427,2337.351,,,2337.777,2338.044,,77,77,,,,,,,,,,,,,,,,bars/038.png,bars/mask007.png,,,,,,,,,,,,8,2,,,,,,,2,10,3,10,,,,,,,,,,,2337.351,2337.777,2338.045,2342.199,space,4.03,,2342.199,88,7,2343.136,2343.136,2343.136,,,,0,19,19,19,1,165,70,,,,,,,,
,,611117d79c57e6744e059bc4,65af54b33f5fcc7f4ffca785,2024-01-23_07h56.30.199,bars,2023.2.3,Win32,8.474576271,657b66ea316d21385b68909f,,,,,,,,,,,2343.136,2344.062,,,2344.49,2344.767,,32,32,,,,,,,,,,,,,,,,bars/025.png,bars/mask008.png,,,,,,,,,,,,6,2,,,,,,,0,8,0,8,,,,,,,,,,,2344.062,2344.49,2344.767,2347.565,space,2.673,,2347.565,73,8,2348.495,2348.495,2348.503,,,,0,20,20,20,1,105,40,,,,,,,,
,,611117d79c57e6744e059bc4,65af54b33f5fcc7f4ffca785,2024-01-23_07h56.30.199,bars,2023.2.3,Win32,8.474576271,657b66ea316d21385b68909f,,,,,,,,,,,2348.503,2349.434,,,2349.844,2350.111,,56,236,,,,,,,,,,,,,,,,bars/034.png,bars/mask004.png,,,,,,,,,,,,7,2,,,,,,,0,10,3,10,,,,,,,,,,,2349.434,2349.844,2350.111,2358.996,space,8.755,,2358.996,69,9,2359.918,2359.918,2359.927,,,,0,21,21,21,1,125,65,,,,,,,,
,,611117d79c57e6744e059bc4,65af54b33f5fcc7f4ffca785,2024-01-23_07h56.30.199,bars,2023.2.3,Win32,8.474576271,657b66ea316d21385b68909f,,,,,,,,,,,2359.927,2360.839,,,2361.25,2361.528,,102,102,,,,,,,,,,,,,,,,bars/001.png,bars/mask003.png,,,,,,,,,,,,4,2,,,,,,,2,10,3,9,,,,,,,,,,,2360.84,2361.25,2361.528,2369.061,space,7.403,,2369.061,28,17,2370.002,2370.002,2370.011,,,,0,22,22,22,1,130,85,,,,,,,,
,,611117d79c57e6744e059bc4,65af54b33f5fcc7f4ffca785,2024-01-23_07h56.30.199,bars,2023.2.3,Win32,8.474576271,657b66ea316d21385b68909f,,,,,,,,,,,2370.011,2370.926,,,2371.337,2371.613,,96,96,,,,,,,,,,,,,,,,bars/011.png,bars/mask009.png,,,,,,,,,,,,5,2,,,,,,,0,8,0,8,,,,,,,,,,,2370.926,2371.337,2371.613,2379.762,space,8.01,,2379.762,64,11,2380.688,2380.688,2380.688,,,,0,23,23,23,1,160,85,,,,,,,,
,,611117d79c57e6744e059bc4,65af54b33f5fcc7f4ffca785,2024-01-23_07h56.30.199,bars,2023.2.3,Win32,8.474576271,657b66ea316d21385b68909f,,,,,,,,,,,2380.688,2381.622,,,2382.031,2382.299,,40,40,,,,,,,,,,,,,,,,bars/022.png,bars/mask007.png,,,,,,,,,,,,3,2,,,,,,,2,10,1,10,,,,,,,,,,,2381.622,2382.031,2382.299,2383.092,space,0.669,,2383.092,55,20,2384.023,2384.023,2384.023,,,,0,24,24,24,1,95,20,,,,,,,,
,,611117d79c57e6744e059bc4,65af54b33f5fcc7f4ffca785,2024-01-23_07h56.30.199,bars,2023.2.3,Win32,8.474576271,657b66ea316d21385b68909f,,,,,,,,,,,2384.023,2384.946,,,2385.355,2385.627,,106,106,,,,,,,,,,,,,,,,bars/017.png,bars/mask004.png,,,,,,,,,,,,0,1,,,,,,,4,8,3,8,,,,,,,,,,,2384.946,2385.355,2385.627,2386.426,space,0.669,,2386.426,39,61,2387.358,2387.358,2387.359,,,,0,25,25,25,1,145,45,,,,,,,,
,,611117d79c57e6744e059bc4,65af54b33f5fcc7f4ffca785,2024-01-23_07h56.30.199,bars,2023.2.3,Win32,8.474576271,657b66ea316d21385b68909f,,,,,,,,,,,2387.359,2388.295,,,2388.707,2388.977,,123,123,,,,,,,,,,,,,,,,bars/037.png,bars/mask000.png,,,,,,,,,,,,4,2,,,,,,,6,10,6,9,,,,,,,,,,,2388.295,2388.707,2388.977,2404.339,space,15.235,,2404.339,27,18,2405.275,2405.275,2405.284,,,,0,26,26,26,1,150,105,,,,,,,,
,,611117d79c57e6744e059bc4,65af54b33f5fcc7f4ffca785,2024-01-23_07h56.30.199,bars,2023.2.3,Win32,8.474576271,657b66ea316d21385b68909f,,,,,,,,,,,2405.284,2406.217,,,2406.632,2406.903,,108,108,,,,,,,,,,,,,,,,bars/021.png,bars/mask008.png,,,,,,,,,,,,0,2,,,,,,,4,10,5,10,,,,,,,,,,,2406.217,2406.632,2406.903,2420.076,space,13.049,,2420.076,47,38,2421.018,2421.018,2421.019,,,,0,27,27,27,1,155,70,,,,,,,,
,,611117d79c57e6744e059bc4,65af54b33f5fcc7f4ffca785,2024-01-23_07h56.30.199,bars,2023.2.3,Win32,8.474576271,657b66ea316d21385b68909f,,,,,,,,,,,2421.019,2421.948,,,2422.36,2422.524,,165,165,,,,,,,,,,,,,,,,bars/044.png,bars/mask003.png,,,,,,,,,,,,7,2,,,,,,,6,10,7,10,,,,,,,,,,,2421.948,2422.36,2422.524,2424.827,space,2.16,,2424.827,90,10,2425.761,2425.761,2425.77,,,,0,28,28,28,1,75,155,,,,,,,,
,,611117d79c57e6744e059bc4,65af54b33f5fcc7f4ffca785,2024-01-23_07h56.30.199,bars,2023.2.3,Win32,8.474576271,657b66ea316d21385b68909f,,,,,,,,,,,2425.77,2426.7,,,2427.11,2427.382,,31,31,,,,,,,,,,,,,,,,bars/036.png,bars/mask007.png,,,,,,,,,,,,6,2,,,,,,,4,10,4,9,,,,,,,,,,,2426.7,2427.11,2427.382,2429.803,space,2.292,,2429.803,66,11,2430.739,2430.739,2430.748,,,,0,29,29,29,1,145,20,,,,,,,,
,,611117d79c57e6744e059bc4,65af54b33f5fcc7f4ffca785,2024-01-23_07h56.30.199,bars,2023.2.3,Win32,8.474576271,657b66ea316d21385b68909f,,,,,,,,,,,2430.748,2431.666,,,2432.071,2432.343,,57,57,,,,,,,,,,,,,,,,bars/034.png,bars/mask008.png,,,,,,,,,,,,6,2,,,,,,,6,8,6,8,,,,,,,,,,,2431.666,2432.071,2432.343,2434.729,space,2.26,,2434.729,68,8,2435.657,2435.657,2435.666,,,,0,30,30,30,1,125,65,,,,,,,,
,,611117d79c57e6744e059bc4,65af54b33f5fcc7f4ffca785,2024-01-23_07h56.30.199,bars,2023.2.3,Win32,8.474576271,657b66ea316d21385b68909f,,,,,,,,,,,2435.666,2436.632,,,2437.039,2437.314,,18,18,,,,,,,,,,,,,,,,bars/049.png,bars/mask003.png,,,,,,,,,,,,0,1,,,,,,,4,6,5,6,,,,,,,,,,,2436.632,2437.039,2437.314,2441.844,space,4.401,,2441.844,38,83,2442.779,2442.779,2442.78,,,,0,31,31,31,1,160,115,,,,,,,,
,,611117d79c57e6744e059bc4,65af54b33f5fcc7f4ffca785,2024-01-23_07h56.30.199,bars,2023.2.3,Win32,8.474576271,657b66ea316d21385b68909f,,,,,,,,,,,2442.78,2443.734,,,2444.14,2444.41,,42,42,,,,,,,,,,,,,,,,bars/031.png,bars/mask008.png,,,,,,,,,,,,5,2,,,,,,,2,8,1,6,,,,,,,,,,,2443.734,2444.14,2444.41,2446.536,space,2.004,,2446.536,78,7,2447.501,2447.501,2447.51,,,,0,32,32,32,1,120,35,,,,,,,,
,,611117d79c57e6744e059bc4,65af54b33f5fcc7f4ffca785,2024-01-23_07h56.30.199,bars,2023.2.3,Win32,8.474576271,657b66ea316d21385b68909f,,,,,,,,,,,2447.51,2448.486,,,2448.946,2449.095,,134,134,,,,,,,,,,,,,,,,bars/023.png,bars/mask005.png,,,,,,,,,,,,2,2,,,,,,,0,6,0,6,,,,,,,,,,,2448.486,2448.946,2449.095,2451.232,space,1.993,,2451.232,66,19,2452.164,2452.164,2452.164,,,,0,33,33,33,1,20,115,,,,,,,,
,,611117d79c57e6744e059bc4,65af54b33f5fcc7f4ffca785,2024-01-23_07h56.30.199,bars,2023.2.3,Win32,8.474576271,657b66ea316d21385b68909f,,,,,,,,,,,2452.165,2453.092,,,2453.52,2453.802,,46,46,,,,,,,,,,,,,,,,bars/029.png,bars/mask001.png,,,,,,,,,,,,9,2,,,,,,,2,8,3,9,,,,,,,,,,,2453.092,2453.52,2453.802,2458.396,space,4.469,,2458.396,44,1,2459.316,2459.316,2459.325,,,,0,34,34,34,1,90,45,,,,,,,,
,,611117d79c57e6744e059bc4,65af54b33f5fcc7f4ffca785,2024-01-23_07h56.30.199,bars,2023.2.3,Win32,8.474576271,657b66ea316d21385b68909f,,,,,,,,,,,2459.325,2460.243,,,2460.657,2460.926,,87,87,,,,,,,,,,,,,,,,bars/010.png,bars/mask008.png,,,,,,,,,,,,0,2,,,,,,,0,10,0,9,,,,,,,,,,,2460.243,2460.656,2460.926,2470.165,space,9.113,,2470.165,78,32,2471.094,2471.094,2471.103,,,,0,35,35,35,1,165,55,,,,,,,,
,,611117d79c57e6744e059bc4,65af54b33f5fcc7f4ffca785,2024-01-23_07h56.30.199,bars,2023.2.3,Win32,8.474576271,657b66ea316d21385b68909f,,,,,,,,,,,2471.104,2472.041,,,2472.453,2472.733,,156,156,,,,,,,,,,,,,,,,bars/000.png,bars/mask006.png,,,,,,,,,,,,6,2,,,,,,,0,8,0,9,,,,,,,,,,,2472.041,2472.453,2472.733,2473.966,space,1.107,,2473.966,64,11,2474.905,2474.905,2474.905,,,,0,36,36,36,1,40,145,,,,,,,,
,,611117d79c57e6744e059bc4,65af54b33f5fcc7f4ffca785,2024-01-23_07h56.30.199,bars,2023.2.3,Win32,8.474576271,657b66ea316d21385b68909f,,,,,,,,,,,2474.905,2475.876,,,2476.289,2476.564,,148,148,,,,,,,,,,,,,,,,bars/011.png,bars/mask005.png,,,,,,,,,,,,2,1,,,,,,,2,6,3,6,,,,,,,,,,,2475.876,2476.289,2476.565,2479.636,space,2.944,,2479.636,12,63,2480.569,2480.569,2480.581,,,,0,37,37,37,1,160,85,,,,,,,,
,,611117d79c57e6744e059bc4,65af54b33f5fcc7f4ffca785,2024-01-23_07h56.30.199,bars,2023.2.3,Win32,8.474576271,657b66ea316d21385b68909f,,,,,,,,,,,2480.582,2481.512,,,2481.921,2482.193,,65,65,,,,,,,,,,,,,,,,bars/040.png,bars/mask004.png,,,,,,,,,,,,0,2,,,,,,,4,8,4,7,,,,,,,,,,,2481.512,2481.921,2482.193,2489.423,space,7.104,,2489.423,75,60,2490.371,2490.371,2490.38,,,,0,38,38,38,1,140,5,,,,,,,,
,,611117d79c57e6744e059bc4,65af54b33f5fcc7f4ffca785,2024-01-23_07h56.30.199,bars,2023.2.3,Win32,8.474576271,657b66ea316d21385b68909f,,,,,,,,,,,2490.38,2491.304,,,2491.713,2491.981,,116,116,,,,,,,,,,,,,,,,bars/004.png,bars/mask005.png,,,,,,,,,,,,4,2,,,,,,,2,6,1,6,,,,,,,,,,,2491.304,2491.713,2491.981,2494.106,space,1.997,,2494.106,89,9,2495.03,2495.03,2495.03,,,,0,39,39,39,1,25,125,,,,,,,,
,,611117d79c57e6744e059bc4,65af54b33f5fcc7f4ffca785,2024-01-23_07h56.30.199,bars,2023.2.3,Win32,8.474576271,657b66ea316d21385b68909f,,,,,,,,,,,2495.031,2495.969,,,2496.376,2496.65,,177,177,,,,,,,,,,,,,,,,bars/023.png,bars/mask006.png,,,,,,,,,,,,0,1,,,,,,,0,4,0,3,,,,,,,,,,,2495.969,2496.376,2496.65,2498.641,space,1.868,,2498.642,23,62,2499.589,2499.589,2499.59,,,,0,40,40,40,1,20,115,,,,,,,,
,,611117d79c57e6744e059bc4,65af54b33f5fcc7f4ffca785,2024-01-23_07h56.30.199,bars,2023.2.3,Win32,8.474576271,657b66ea316d21385b68909f,,,,,,,,,,,2499.59,2500.51,,,2501.054,2501.327,,178,-2,,,,,,,,,,,,,,,,bars/011.png,bars/mask000.png,,,,,,,,,,,,0,1,,,,,,,2,6,1,5,,,,,,,,,,,2500.51,2501.054,2501.327,2506.145,space,4.682,,2506.145,18,87,2507.068,2507.068,2507.076,,,,0,41,41,41,1,160,85,,,,,,,,
,,611117d79c57e6744e059bc4,65af54b33f5fcc7f4ffca785,2024-01-23_07h56.30.199,bars,2023.2.3,Win32,8.474576271,657b66ea316d21385b68909f,,,,,,,,,,,2507.076,2508.004,,,2508.413,2508.685,,153,153,,,,,,,,,,,,,,,,bars/003.png,bars/mask008.png,,,,,,,,,,,,4,2,,,,,,,4,8,4,7,,,,,,,,,,,2508.004,2508.413,2508.685,2515.518,space,6.708,,2515.518,52,13,2516.455,2516.455,2516.457,,,,0,42,42,42,1,25,140,,,,,,,,
,,611117d79c57e6744e059bc4,65af54b33f5fcc7f4ffca785,2024-01-23_07h56.30.199,bars,2023.2.3,Win32,8.474576271,657b66ea316d21385b68909f,,,,,,,,,,,2516.457,2517.386,,,2517.803,2518.076,,112,112,,,,,,,,,,,,,,,,bars/006.png,bars/mask001.png,,,,,,,,,,,,3,2,,,,,,,2,6,3,5,,,,,,,,,,,2517.386,2517.803,2518.076,2523.159,space,4.957,,2523.159,77,12,2524.091,2524.091,2524.092,,,,0,43,43,43,1,35,100,,,,,,,,
,,611117d79c57e6744e059bc4,65af54b33f5fcc7f4ffca785,2024-01-23_07h56.30.199,bars,2023.2.3,Win32,8.474576271,657b66ea316d21385b68909f,,,,,,,,,,,2524.092,2525.034,,,2525.439,2525.715,,79,79,,,,,,,,,,,,,,,,bars/044.png,bars/mask000.png,,,,,,,,,,,,5,1,,,,,,,4,8,6,9,,,,,,,,,,,2525.034,2525.439,2525.715,2528.503,space,2.659,,2528.503,4,76,2529.433,2529.433,2529.434,,,,0,44,44,44,1,75,155,,,,,,,,
,,611117d79c57e6744e059bc4,65af54b33f5fcc7f4ffca785,2024-01-23_07h56.30.199,bars,2023.2.3,Win32,8.474576271,657b66ea316d21385b68909f,,,,,,,,,,,2529.435,2530.352,,,2530.769,2531.043,,175,175,,,,,,,,,,,,,,,,bars/021.png,bars/mask006.png,,,,,,,,,,,,0,1,,,,,,,2,6,1,6,,,,,,,,,,,2530.352,2530.769,2531.043,2532.82,space,1.65,,2532.82,20,75,2533.754,2533.754,2533.754,,,,0,45,45,45,1,155,70,,,,,,,,
,,611117d79c57e6744e059bc4,65af54b33f5fcc7f4ffca785,2024-01-23_07h56.30.199,bars,2023.2.3,Win32,8.474576271,657b66ea316d21385b68909f,,,,,,,,,,,2533.754,2534.679,,,2535.089,2535.368,,72,72,,,,,,,,,,,,,,,,bars/026.png,bars/mask002.png,,,,,,,,,,,,4,2,,,,,,,4,8,4,7,,,,,,,,,,,2534.679,2535.089,2535.368,2536.982,space,1.475,,2536.983,37,13,2537.909,2537.909,2537.91,,,,0,46,46,46,1,35,85,,,,,,,,
,,611117d79c57e6744e059bc4,65af54b33f5fcc7f4ffca785,2024-01-23_07h56.30.199,bars,2023.2.3,Win32,8.474576271,657b66ea316d21385b68909f,,,,,,,,,,,2537.91,2538.872,,,2539.327,2539.618,,62,62,,,,,,,,,,,,,,,,bars/011.png,bars/mask006.png,,,,,,,,,,,,1,2,,,,,,,6,6,7,5,,,,,,,,,,,2538.872,2539.327,2539.618,2540.29,space,0.538,,2540.29,82,23,2541.228,2541.228,2541.229,,,,0,47,47,47,1,160,85,,,,,,,,
,,611117d79c57e6744e059bc4,65af54b33f5fcc7f4ffca785,2024-01-23_07h56.30.199,bars,2023.2.3,Win32,8.474576271,657b66ea316d21385b68909f,,,,,,,,,,,2541.229,2542.163,,,2542.594,2542.874,,142,142,,,,,,,,,,,,,,,,bars/009.png,bars/mask006.png,,,,,,,,,,,,0,2,,,,,,,8,8,7,10,,,,,,,,,,,2542.163,2542.594,2542.874,2546.33,space,3.335,,2546.33,53,37,2547.252,2547.252,2547.26,,,,0,48,48,48,1,15,105,,,,,,,,
,,611117d79c57e6744e059bc4,65af54b33f5fcc7f4ffca785,2024-01-23_07h56.30.199,bars,2023.2.3,Win32,8.474576271,657b66ea316d21385b68909f,,,,,,,,,,,2547.26,2548.18,,,2548.587,2548.864,,10,190,,,,,,,,,,,,,,,,bars/022.png,bars/mask006.png,,,,,,,,,,,,4,2,,,,,,,10,6,10,6,,,,,,,,,,,2548.18,2548.587,2548.864,2558.461,space,9.468,,2558.461,85,10,2559.414,2559.414,2559.423,,,,0,49,49,49,1,95,20,,,,,,,,
,,611117d79c57e6744e059bc4,65af54b33f5fcc7f4ffca785,2024-01-23_07h56.30.199,bars,2023.2.3,Win32,8.474576271,657b66ea316d21385b68909f,,,,,,,,,,,,,,,,,,,,,,,,,,,,,,,,,,,,,,,,,,,,,,,,,,,,,,,,,,,,,,,,,,,,,,,,,,,,,,,,,,,,,,,,,,,,,2559.423,2619.415,0,3,3,4,1,sequence_tables/blk049.csv
,,611117d79c57e6744e059bc4,65af54b33f5fcc7f4ffca785,2024-01-23_07h56.30.199,bars,2023.2.3,Win32,8.474576271,657b66ea316d21385b68909f,,,,,,,,,,,2621.035,2621.967,,,2622.388,2622.671,,0,180,,,,,,,,,,,,,,,,bars/012.png,bars/mask001.png,,,,,,,,,,,,4,2,,,,,,,5,8,5,7,,,,,,2619.424,2621.033,space,1.49,,2621.967,2622.388,2622.671,2627.227,space,4.422,,2627.227,90,15,2628.165,2628.165,2628.174,,,,0,0,0,0,1,90,15,,,,,,,,
,,611117d79c57e6744e059bc4,65af54b33f5fcc7f4ffca785,2024-01-23_07h56.30.199,bars,2023.2.3,Win32,8.474576271,657b66ea316d21385b68909f,,,,,,,,,,,2628.174,2629.089,,,2629.501,2629.776,,79,79,,,,,,,,,,,,,,,,bars/034.png,bars/mask001.png,,,,,,,,,,,,4,2,,,,,,,3,6,4,8,,,,,,,,,,,2629.089,2629.501,2629.776,2634.876,space,4.969,,2634.876,46,14,2635.807,2635.807,2635.815,,,,0,1,1,1,1,125,65,,,,,,,,
,,611117d79c57e6744e059bc4,65af54b33f5fcc7f4ffca785,2024-01-23_07h56.30.199,bars,2023.2.3,Win32,8.474576271,657b66ea316d21385b68909f,,,,,,,,,,,2635.815,2636.732,,,2637.142,2637.439,,153,153,,,,,,,,,,,,,,,,bars/013.png,bars/mask002.png,,,,,,,,,,,,0,2,,,,,,,5,8,5,9,,,,,,,,,,,2636.732,2637.142,2637.439,2641.17,space,3.604,,2641.17,78,37,2642.11,2642.11,2642.119,,,,0,2,2,2,1,75,10,,,,,,,,
,,611117d79c57e6744e059bc4,65af54b33f5fcc7f4ffca785,2024-01-23_07h56.30.199,bars,2023.2.3,Win32,8.474576271,657b66ea316d21385b68909f,,,,,,,,,,,2642.119,2643.04,,,2643.447,2643.719,,120,120,,,,,,,,,,,,,,,,bars/049.png,bars/mask009.png,,,,,,,,,,,,4,2,,,,,,,7,6,7,5,,,,,,,,,,,2643.04,2643.447,2643.719,2647.082,space,3.24,,2647.082,40,5,2648.016,2648.016,2648.024,,,,0,3,3,3,1,160,115,,,,,,,,
,,611117d79c57e6744e059bc4,65af54b33f5fcc7f4ffca785,2024-01-23_07h56.30.199,bars,2023.2.3,Win32,8.474576271,657b66ea316d21385b68909f,,,,,,,,,,,2648.024,2648.957,,,2649.367,2649.639,,99,99,,,,,,,,,,,,,,,,bars/046.png,bars/mask000.png,,,,,,,,,,,,1,2,,,,,,,9,4,8,2,,,,,,,,,,,2648.957,2649.367,2649.639,2653.114,space,3.347,,2653.115,56,14,2654.06,2654.06,2654.069,,,,0,4,4,4,1,155,85,,,,,,,,
,,611117d79c57e6744e059bc4,65af54b33f5fcc7f4ffca785,2024-01-23_07h56.30.199,bars,2023.2.3,Win32,8.474576271,657b66ea316d21385b68909f,,,,,,,,,,,2654.069,2654.995,,,2655.414,2655.575,,171,-9,,,,,,,,,,,,,,,,bars/016.png,bars/mask006.png,,,,,,,,,,,,3,2,,,,,,,7,6,8,4,,,,,,,,,,,2654.995,2655.414,2655.575,2663.149,space,7.445,,2663.149,49,6,2664.09,2664.09,2664.099,,,,0,5,5,5,1,40,165,,,,,,,,
,,611117d79c57e6744e059bc4,65af54b33f5fcc7f4ffca785,2024-01-23_07h56.30.199,bars,2023.2.3,Win32,8.474576271,657b66ea316d21385b68909f,,,,,,,,,,,2664.099,2665.021,,,2665.431,2665.701,,58,58,,,,,,,,,,,,,,,,bars/027.png,bars/mask006.png,,,,,,,,,,,,5,2,,,,,,,9,8,9,7,,,,,,,,,,,2665.021,2665.431,2665.701,2671.832,space,6.01,,2671.832,52,8,2672.761,2672.761,2672.77,,,,0,6,6,6,1,110,50,,,,,,,,
,,611117d79c57e6744e059bc4,65af54b33f5fcc7f4ffca785,2024-01-23_07h56.30.199,bars,2023.2.3,Win32,8.474576271,657b66ea316d21385b68909f,,,,,,,,,,,2672.771,2673.69,,,2674.1,2674.369,,155,-25,,,,,,,,,,,,,,,,bars/015.png,bars/mask006.png,,,,,,,,,,,,8,2,,,,,,,7,10,7,10,,,,,,,,,,,2673.69,2674.1,2674.369,2679.194,space,4.695,,2679.194,45,5,2680.134,2680.134,2680.135,,,,0,7,7,7,1,110,160,,,,,,,,
,,611117d79c57e6744e059bc4,65af54b33f5fcc7f4ffca785,2024-01-23_07h56.30.199,bars,2023.2.3,Win32,8.474576271,657b66ea316d21385b68909f,,,,,,,,,,,2680.135,2681.056,,,2681.461,2681.749,,38,38,,,,,,,,,,,,,,,,bars/046.png,bars/mask006.png,,,,,,,,,,,,0,2,,,,,,,5,10,4,9,,,,,,,,,,,2681.056,2681.461,2681.749,2688.164,space,6.29,,2688.164,63,47,2689.089,2689.089,2689.097,,,,0,8,8,8,1,155,85,,,,,,,,
,,611117d79c57e6744e059bc4,65af54b33f5fcc7f4ffca785,2024-01-23_07h56.30.199,bars,2023.2.3,Win32,8.474576271,657b66ea316d21385b68909f,,,,,,,,,,,2689.097,2690.034,,,2690.478,2690.63,,173,173,,,,,,,,,,,,,,,,bars/022.png,bars/mask007.png,,,,,,,,,,,,1,2,,,,,,,7,8,7,8,,,,,,,,,,,2690.034,2690.478,2690.63,2691.824,space,1.068,,2691.824,78,27,2692.763,2692.763,2692.764,,,,0,9,9,9,1,95,20,,,,,,,,
,,611117d79c57e6744e059bc4,65af54b33f5fcc7f4ffca785,2024-01-23_07h56.30.199,bars,2023.2.3,Win32,8.474576271,657b66ea316d21385b68909f,,,,,,,,,,,2692.764,2693.708,,,2694.114,2694.381,,171,-9,,,,,,,,,,,,,,,,bars/020.png,bars/mask001.png,,,,,,,,,,,,6,2,,,,,,,9,6,10,6,,,,,,,,,,,2693.708,2694.114,2694.381,2702.649,space,8.139,,2702.649,56,1,2703.575,2703.575,2703.584,,,,0,10,10,10,1,115,170,,,,,,,,
,,611117d79c57e6744e059bc4,65af54b33f5fcc7f4ffca785,2024-01-23_07h56.30.199,bars,2023.2.3,Win32,8.474576271,657b66ea316d21385b68909f,,,,,,,,,,,2703.584,2704.519,,,2704.925,2705.197,,157,157,,,,,,,,,,,,,,,,bars/043.png,bars/mask001.png,,,,,,,,,,,,1,2,,,,,,,10,8,10,7,,,,,,,,,,,2704.519,2704.925,2705.198,2712.85,space,7.527,,2712.85,53,27,2713.775,2713.775,2713.785,,,,0,11,11,11,1,30,130,,,,,,,,
,,611117d79c57e6744e059bc4,65af54b33f5fcc7f4ffca785,2024-01-23_07h56.30.199,bars,2023.2.3,Win32,8.474576271,657b66ea316d21385b68909f,,,,,,,,,,,2713.785,2714.711,,,2715.115,2715.408,,139,139,,,,,,,,,,,,,,,,bars/004.png,bars/mask005.png,,,,,,,,,,,,5,2,,,,,,,8,10,10,10,,,,,,,,,,,2714.711,2715.115,2715.408,2718.623,space,3.085,,2718.623,66,14,2719.585,2719.585,2719.594,,,,0,12,12,12,1,25,125,,,,,,,,
,,611117d79c57e6744e059bc4,65af54b33f5fcc7f4ffca785,2024-01-23_07h56.30.199,bars,2023.2.3,Win32,8.474576271,657b66ea316d21385b68909f,,,,,,,,,,,2719.594,2720.513,,,2720.928,2721.201,,74,74,,,,,,,,,,,,,,,,bars/002.png,bars/mask001.png,,,,,,,,,,,,5,2,,,,,,,6,8,7,8,,,,,,,,,,,2720.513,2720.928,2721.201,2734.291,space,12.966,,2734.291,56,11,2735.215,2735.215,2735.224,,,,0,13,13,13,1,130,85,,,,,,,,
,,611117d79c57e6744e059bc4,65af54b33f5fcc7f4ffca785,2024-01-23_07h56.30.199,bars,2023.2.3,Win32,8.474576271,657b66ea316d21385b68909f,,,,,,,,,,,2735.224,2736.145,,,2736.562,2736.834,,73,73,,,,,,,,,,,,,,,,bars/046.png,bars/mask003.png,,,,,,,,,,,,6,2,,,,,,,4,10,1,10,,,,,,,,,,,2736.145,2736.562,2736.834,2747.894,space,10.935,,2747.894,82,12,2748.824,2748.824,2748.834,,,,0,14,14,14,1,155,85,,,,,,,,
,,611117d79c57e6744e059bc4,65af54b33f5fcc7f4ffca785,2024-01-23_07h56.30.199,bars,2023.2.3,Win32,8.474576271,657b66ea316d21385b68909f,,,,,,,,,,,2748.834,2749.761,,,2750.164,2750.439,,167,-13,,,,,,,,,,,,,,,,bars/048.png,bars/mask000.png,,,,,,,,,,,,5,2,,,,,,,6,8,7,7,,,,,,,,,,,2749.761,2750.164,2750.44,2753.954,space,3.377,0,2753.954,63,8,2754.865,2754.865,2754.873,,,,0,15,15,15,1,50,175,,,,,,,,
,,611117d79c57e6744e059bc4,65af54b33f5fcc7f4ffca785,2024-01-23_07h56.30.199,bars,2023.2.3,Win32,8.474576271,657b66ea316d21385b68909f,,,,,,,,,,,2754.874,2755.796,,,2756.201,2756.476,,82,82,,,,,,,,,,,,,,,,bars/026.png,bars/mask007.png,,,,,,,,,,,,5,2,,,,,,,4,6,3,5,,,,,,,,,,,2755.796,2756.201,2756.476,2763.35,space,6.751,,2763.35,47,3,2764.284,2764.284,2764.293,,,,0,16,16,16,1,35,85,,,,,,,,
,,611117d79c57e6744e059bc4,65af54b33f5fcc7f4ffca785,2024-01-23_07h56.30.199,bars,2023.2.3,Win32,8.474576271,657b66ea316d21385b68909f,,,,,,,,,,,2764.293,2765.217,,,2765.641,2765.917,,89,89,,,,,,,,,,,,,,,,bars/038.png,bars/mask001.png,,,,,,,,,,,,3,2,,,,,,,6,8,6,8,,,,,,,,,,,2765.217,2765.641,2765.917,2769.499,space,3.456,,2769.499,76,19,2770.42,2770.42,2770.428,,,,0,17,17,17,1,165,70,,,,,,,,
,,611117d79c57e6744e059bc4,65af54b33f5fcc7f4ffca785,2024-01-23_07h56.30.199,bars,2023.2.3,Win32,8.474576271,657b66ea316d21385b68909f,,,,,,,,,,,2770.428,2771.347,,,2771.775,2772.048,,97,97,,,,,,,,,,,,,,,,bars/009.png,bars/mask008.png,,,,,,,,,,,,6,2,,,,,,,8,10,6,8,,,,,,,,,,,2771.347,2771.774,2772.049,2784.6,space,12.423,,2784.6,82,8,2785.53,2785.53,2785.539,,,,0,18,18,18,1,15,105,,,,,,,,
