init_variables.started,init_variables.stopped,participant,session,date,expName,psychopyVersion,OS,frameRate,study_id,instruction_exp.started,instruction_exp.stopped,key_resp_8.keys,key_resp_8.rt,key_resp_8.duration,instruction_single.started,instruction_single.stopped,key_resp_2.keys,key_resp_2.rt,key_resp_2.duration,interval.started,interval.stopped,cue_single.started,cue_single.stopped,mask.started,mask.stopped,ori_response_single.started,res_ori,res,ori_response_single.stopped,key_resp_single.keys,key_resp_single.rt,key_resp_single.duration,disp_single.started,disp_single.stopped,key_resp.keys,key_resp.rt,key_resp.duration,single.thisRepN,single.thisTrialN,single.thisN,single.thisIndex,single.ran,ori,path,mask_path,instruction_bandit.started,instruction_bandit.stopped,key_resp_6.keys,key_resp_6.rt,key_resp_6.duration,cue_bandit.started,cue_bandit.stopped,bandit_res.keys,bandit_res.rt,bandit_res.duration,outcome_bandit.started,rew,action,outcome_bandit.stopped,bandit.thisRepN,bandit.thisTrialN,bandit.thisN,bandit.thisIndex,bandit.ran,actual_rew1,actual_rew2,rew1,rew2,instruction_task.started,instruction_task.stopped,key_resp_7.keys,key_resp_7.rt,key_resp_7.duration,wait_ready.started,wait_ready.stopped,key_resp_3.keys,key_resp_3.rt,key_resp_3.duration,cue.started,cue.stopped,ori_response.started,ori_response.stopped,key_resp_5.keys,key_resp_5.rt,key_resp_5.duration,outcome.started,diff1,diff2,outcome.stopped,disp_outcome_practice.started,disp_outcome_practice.stopped,key_resp_4.keys,key_resp_4.rt,key_resp_4.duration,trials.thisRepN,trials.thisTrialN,trials.thisN,trials.thisIndex,trials.ran,ori1,ori2,break_blk.started,break_blk.stopped,block.thisRepN,block.thisTrialN,block.thisN,block.thisIndex,block.ran,condition_file
0.0012,0.0017,64c667536acb78c502d01089,65af55b0dc8991f4776b9f02,2024-01-23_08h39.34.260,bars,2023.2.3,Win32,55.55555556,657b66ea316d21385b68909f,,,,,,,,,,,,,,,,,,,,,,,,,,,,,,,,,,,,,,,,,,,,,,,,,,,,,,,,,,,,,,,,,,,,,,,,,,,,,,,,,,,,,,,,,,,,,,,,,,,,
,,64c667536acb78c502d01089,65af55b0dc8991f4776b9f02,2024-01-23_08h39.34.260,bars,2023.2.3,Win32,55.55555556,657b66ea316d21385b68909f,0.0023,10.0164,y,9.8659,0.0011,,,,,,,,,,,,,,,,,,,,,,,,,,,,,,,,,,,,,,,,,,,,,,,,,,,,,,,,,,,,,,,,,,,,,,,,,,,,,,,,,,,,,,,,,,,,,,,
,,64c667536acb78c502d01089,65af55b0dc8991f4776b9f02,2024-01-23_08h39.34.260,bars,2023.2.3,Win32,55.55555556,657b66ea316d21385b68909f,,,,,,10.0167,31.881,space,21.8302,,,,,,,,,,,,,,,,,,,,,,,,,,,,,,,,,,,,,,,,,,,,,,,,,,,,,,,,,,,,,,,,,,,,,,,,,,,,,,,,,,,,,,,,,,,
,,64c667536acb78c502d01089,65af55b0dc8991f4776b9f02,2024-01-23_08h39.34.260,bars,2023.2.3,Win32,55.55555556,657b66ea316d21385b68909f,,,,,,,,,,,31.8961,32.8886,32.8888,33.2015,33.2017,33.448,33.4483,138,138,42.5343,space,8.984,,42.5347,43.4823,space,0.8753,,0,0,0,9,1,20,bars/single009.png,bars/mask006.png,,,,,,,,,,,,,,,,,,,,,,,,,,,,,,,,,,,,,,,,,,,,,,,,,,,,,,,,,,,,,,,,
,,64c667536acb78c502d01089,65af55b0dc8991f4776b9f02,2024-01-23_08h39.34.260,bars,2023.2.3,Win32,55.55555556,657b66ea316d21385b68909f,,,,,,,,,,,43.4834,44.4854,44.4855,44.9764,44.9765,45.2303,45.2304,20,20,47.1134,space,1.859,,47.1136,58.534,space,11.3904,,0,1,1,0,1,150,bars/single000.png,bars/mask006.png,,,,,,,,,,,,,,,,,,,,,,,,,,,,,,,,,,,,,,,,,,,,,,,,,,,,,,,,,,,,,,,,
,,64c667536acb78c502d01089,65af55b0dc8991f4776b9f02,2024-01-23_08h39.34.260,bars,2023.2.3,Win32,55.55555556,657b66ea316d21385b68909f,,,,,,,,,,,58.558,59.5438,59.5438,60.048,60.048,60.2734,60.2734,130,130,67.8455,space,7.5521,,67.8455,73.8598,space,5.9775,,0,2,2,5,1,55,bars/single005.png,bars/mask008.png,,,,,,,,,,,,,,,,,,,,,,,,,,,,,,,,,,,,,,,,,,,,,,,,,,,,,,,,,,,,,,,,
,,64c667536acb78c502d01089,65af55b0dc8991f4776b9f02,2024-01-23_08h39.34.260,bars,2023.2.3,Win32,55.55555556,657b66ea316d21385b68909f,,,,,,,,,,,73.8803,74.8724,74.8725,75.3738,75.3738,75.6389,75.639,6,6,77.908,space,2.2486,,77.9081,78.5244,space,0.5856,,0,3,3,8,1,160,bars/single008.png,bars/mask004.png,,,,,,,,,,,,,,,,,,,,,,,,,,,,,,,,,,,,,,,,,,,,,,,,,,,,,,,,,,,,,,,,
,,64c667536acb78c502d01089,65af55b0dc8991f4776b9f02,2024-01-23_08h39.34.260,bars,2023.2.3,Win32,55.55555556,657b66ea316d21385b68909f,,,,,,,,,,,78.5251,79.5259,79.5259,80.0223,80.0223,80.2611,80.2611,116,116,81.6913,space,1.4177,,81.6914,83.095,space,1.3711,,0,4,4,7,1,45,bars/single007.png,bars/mask009.png,,,,,,,,,,,,,,,,,,,,,,,,,,,,,,,,,,,,,,,,,,,,,,,,,,,,,,,,,,,,,,,,
,,64c667536acb78c502d01089,65af55b0dc8991f4776b9f02,2024-01-23_08h39.34.260,bars,2023.2.3,Win32,55.55555556,657b66ea316d21385b68909f,,,,,,,,,,,83.0958,84.091,84.0911,84.5905,84.5906,84.8408,84.8408,179,179,102.2769,space,17.4204,,102.2772,114.5893,space,12.2457,,0,5,5,4,1,95,bars/single004.png,bars/mask004.png,,,,,,,,,,,,,,,,,,,,,,,,,,,,,,,,,,,,,,,,,,,,,,,,,,,,,,,,,,,,,,,,
,,64c667536acb78c502d01089,65af55b0dc8991f4776b9f02,2024-01-23_08h39.34.260,bars,2023.2.3,Win32,55.55555556,657b66ea316d21385b68909f,,,,,,,,,,,114.6253,115.6017,115.6019,116.0921,116.0921,116.3379,116.3379,0,180,125.1859,space,8.8289,,125.186,131.2383,space,5.9855,,0,6,6,1,1,20,bars/single001.png,bars/mask006.png,,,,,,,,,,,,,,,,,,,,,,,,,,,,,,,,,,,,,,,,,,,,,,,,,,,,,,,,,,,,,,,,
,,64c667536acb78c502d01089,65af55b0dc8991f4776b9f02,2024-01-23_08h39.34.260,bars,2023.2.3,Win32,55.55555556,657b66ea316d21385b68909f,,,,,,,,,,,131.2696,132.249,132.249,132.7571,132.7572,133.0062,133.0063,0,180,138.378,space,5.3541,,138.3783,139.7887,space,1.3491,,0,7,7,2,1,145,bars/single002.png,bars/mask003.png,,,,,,,,,,,,,,,,,,,,,,,,,,,,,,,,,,,,,,,,,,,,,,,,,,,,,,,,,,,,,,,,
,,64c667536acb78c502d01089,65af55b0dc8991f4776b9f02,2024-01-23_08h39.34.260,bars,2023.2.3,Win32,55.55555556,657b66ea316d21385b68909f,,,,,,,,,,,139.7896,140.7855,140.7856,141.28,141.28,141.5308,141.5309,91,91,150.4182,space,8.8621,,150.4183,155.3657,space,4.8706,,0,8,8,3,1,20,bars/single003.png,bars/mask005.png,,,,,,,,,,,,,,,,,,,,,,,,,,,,,,,,,,,,,,,,,,,,,,,,,,,,,,,,,,,,,,,,
,,64c667536acb78c502d01089,65af55b0dc8991f4776b9f02,2024-01-23_08h39.34.260,bars,2023.2.3,Win32,55.55555556,657b66ea316d21385b68909f,,,,,,,,,,,155.3954,156.3674,156.3674,156.8606,156.8607,157.0937,157.0937,0,180,171.6855,space,14.5759,,171.6857,174.3762,space,2.6207,,0,9,9,6,1,175,bars/single006.png,bars/mask005.png,,,,,,,,,,,,,,,,,,,,,,,,,,,,,,,,,,,,,,,,,,,,,,,,,,,,,,,,,,,,,,,,
,,64c667536acb78c502d01089,65af55b0dc8991f4776b9f02,2024-01-23_08h39.34.260,bars,2023.2.3,Win32,55.55555556,657b66ea316d21385b68909f,,,,,,,,,,,,,,,,,,,,,,,,,,,,,,,,,,,,,174.3796,186.7393,space,12.3003,,,,,,,,,,,,,,,,,,,,,,,,,,,,,,,,,,,,,,,,,,,,,,,,,,,,,,,,,,,,
,,64c667536acb78c502d01089,65af55b0dc8991f4776b9f02,2024-01-23_08h39.34.260,bars,2023.2.3,Win32,55.55555556,657b66ea316d21385b68909f,,,,,,,,,,,,,,,,,,,,,,,,,,,,,,,,,,,,,,,,,,186.7774,193.3124,left,6.474,,193.3131,9,1,194.2956,0,0,0,0,1,9,1,9,2,,,,,,,,,,,,,,,,,,,,,,,,,,,,,,,,,,,,,,,,,
,,64c667536acb78c502d01089,65af55b0dc8991f4776b9f02,2024-01-23_08h39.34.260,bars,2023.2.3,Win32,55.55555556,657b66ea316d21385b68909f,,,,,,,,,,,,,,,,,,,,,,,,,,,,,,,,,,,,,,,,,,194.2969,197.3451,right,3.0302,,197.3451,1,2,198.3389,0,1,1,1,1,10,0,10,1,,,,,,,,,,,,,,,,,,,,,,,,,,,,,,,,,,,,,,,,,
,,64c667536acb78c502d01089,65af55b0dc8991f4776b9f02,2024-01-23_08h39.34.260,bars,2023.2.3,Win32,55.55555556,657b66ea316d21385b68909f,,,,,,,,,,,,,,,,,,,,,,,,,,,,,,,,,,,,,,,,,,198.3674,201.4401,right,3.0602,,201.4402,2,2,202.4436,0,2,2,2,1,10,2,10,2,,,,,,,,,,,,,,,,,,,,,,,,,,,,,,,,,,,,,,,,,
,,64c667536acb78c502d01089,65af55b0dc8991f4776b9f02,2024-01-23_08h39.34.260,bars,2023.2.3,Win32,55.55555556,657b66ea316d21385b68909f,,,,,,,,,,,,,,,,,,,,,,,,,,,,,,,,,,,,,,,,,,202.4751,205.69,left,3.203,,205.69,7,1,206.6864,0,3,3,3,1,8,4,7,3,,,,,,,,,,,,,,,,,,,,,,,,,,,,,,,,,,,,,,,,,
,,64c667536acb78c502d01089,65af55b0dc8991f4776b9f02,2024-01-23_08h39.34.260,bars,2023.2.3,Win32,55.55555556,657b66ea316d21385b68909f,,,,,,,,,,,,,,,,,,,,,,,,,,,,,,,,,,,,,,,,,,206.7056,207.7268,left,1.0097,,207.727,5,1,208.7181,0,4,4,4,1,6,2,5,1,,,,,,,,,,,,,,,,,,,,,,,,,,,,,,,,,,,,,,,,,
,,64c667536acb78c502d01089,65af55b0dc8991f4776b9f02,2024-01-23_08h39.34.260,bars,2023.2.3,Win32,55.55555556,657b66ea316d21385b68909f,,,,,,,,,,,,,,,,,,,,,,,,,,,,,,,,,,,,,,,,,,208.7189,209.9042,right,1.1603,,209.9043,4,2,210.9183,0,5,5,5,1,4,4,4,4,,,,,,,,,,,,,,,,,,,,,,,,,,,,,,,,,,,,,,,,,
,,64c667536acb78c502d01089,65af55b0dc8991f4776b9f02,2024-01-23_08h39.34.260,bars,2023.2.3,Win32,55.55555556,657b66ea316d21385b68909f,,,,,,,,,,,,,,,,,,,,,,,,,,,,,,,,,,,,,,,,,,210.9378,212.4701,right,1.5181,,212.4702,2,2,213.4589,0,6,6,6,1,2,2,1,2,,,,,,,,,,,,,,,,,,,,,,,,,,,,,,,,,,,,,,,,,
,,64c667536acb78c502d01089,65af55b0dc8991f4776b9f02,2024-01-23_08h39.34.260,bars,2023.2.3,Win32,55.55555556,657b66ea316d21385b68909f,,,,,,,,,,,,,,,,,,,,,,,,,,,,,,,,,,,,,,,,,,213.4595,214.0582,left,0.5881,,214.0583,0,1,215.0518,0,7,7,7,1,0,0,0,1,,,,,,,,,,,,,,,,,,,,,,,,,,,,,,,,,,,,,,,,,
,,64c667536acb78c502d01089,65af55b0dc8991f4776b9f02,2024-01-23_08h39.34.260,bars,2023.2.3,Win32,55.55555556,657b66ea316d21385b68909f,,,,,,,,,,,,,,,,,,,,,,,,,,,,,,,,,,,,,,,,,,215.0526,215.7853,right,0.7047,,215.7854,0,2,216.7931,0,8,8,8,1,0,2,1,0,,,,,,,,,,,,,,,,,,,,,,,,,,,,,,,,,,,,,,,,,
,,64c667536acb78c502d01089,65af55b0dc8991f4776b9f02,2024-01-23_08h39.34.260,bars,2023.2.3,Win32,55.55555556,657b66ea316d21385b68909f,,,,,,,,,,,,,,,,,,,,,,,,,,,,,,,,,,,,,,,,,,216.794,217.2376,right,0.4324,,217.2377,3,2,218.2436,0,9,9,9,1,2,4,2,3,,,,,,,,,,,,,,,,,,,,,,,,,,,,,,,,,,,,,,,,,
,,64c667536acb78c502d01089,65af55b0dc8991f4776b9f02,2024-01-23_08h39.34.260,bars,2023.2.3,Win32,55.55555556,657b66ea316d21385b68909f,,,,,,,,,,,,,,,,,,,,,,,,,,,,,,,,,,,,,,,,,,218.2444,220.0348,right,1.7783,,220.0349,3,2,221.0339,0,10,10,10,1,0,2,0,3,,,,,,,,,,,,,,,,,,,,,,,,,,,,,,,,,,,,,,,,,
,,64c667536acb78c502d01089,65af55b0dc8991f4776b9f02,2024-01-23_08h39.34.260,bars,2023.2.3,Win32,55.55555556,657b66ea316d21385b68909f,,,,,,,,,,,,,,,,,,,,,,,,,,,,,,,,,,,,,,,,,,221.0573,221.8072,left,0.7394,,221.8072,0,1,222.8063,0,11,11,11,1,0,4,0,3,,,,,,,,,,,,,,,,,,,,,,,,,,,,,,,,,,,,,,,,,
,,64c667536acb78c502d01089,65af55b0dc8991f4776b9f02,2024-01-23_08h39.34.260,bars,2023.2.3,Win32,55.55555556,657b66ea316d21385b68909f,,,,,,,,,,,,,,,,,,,,,,,,,,,,,,,,,,,,,,,,,,222.8072,223.1213,left,0.298,,223.1213,1,1,224.1235,0,12,12,12,1,2,6,1,6,,,,,,,,,,,,,,,,,,,,,,,,,,,,,,,,,,,,,,,,,
,,64c667536acb78c502d01089,65af55b0dc8991f4776b9f02,2024-01-23_08h39.34.260,bars,2023.2.3,Win32,55.55555556,657b66ea316d21385b68909f,,,,,,,,,,,,,,,,,,,,,,,,,,,,,,,,,,,,,,,,,,224.1241,224.6557,left,0.519,,224.6559,1,1,225.6484,0,13,13,13,1,0,4,1,3,,,,,,,,,,,,,,,,,,,,,,,,,,,,,,,,,,,,,,,,,
,,64c667536acb78c502d01089,65af55b0dc8991f4776b9f02,2024-01-23_08h39.34.260,bars,2023.2.3,Win32,55.55555556,657b66ea316d21385b68909f,,,,,,,,,,,,,,,,,,,,,,,,,,,,,,,,,,,,,,,,,,225.6494,226.1825,left,0.4893,,226.1826,2,1,227.1823,0,14,14,14,1,2,6,2,7,,,,,,,,,,,,,,,,,,,,,,,,,,,,,,,,,,,,,,,,,
,,64c667536acb78c502d01089,65af55b0dc8991f4776b9f02,2024-01-23_08h39.34.260,bars,2023.2.3,Win32,55.55555556,657b66ea316d21385b68909f,,,,,,,,,,,,,,,,,,,,,,,,,,,,,,,,,,,,,,,,,,227.1834,227.6911,right,0.4948,,227.6911,9,2,228.6853,0,15,15,15,1,4,8,3,9,,,,,,,,,,,,,,,,,,,,,,,,,,,,,,,,,,,,,,,,,
,,64c667536acb78c502d01089,65af55b0dc8991f4776b9f02,2024-01-23_08h39.34.260,bars,2023.2.3,Win32,55.55555556,657b66ea316d21385b68909f,,,,,,,,,,,,,,,,,,,,,,,,,,,,,,,,,,,,,,,,,,228.6863,229.1561,right,0.4511,,229.1562,7,2,230.1502,0,16,16,16,1,6,6,7,7,,,,,,,,,,,,,,,,,,,,,,,,,,,,,,,,,,,,,,,,,
,,64c667536acb78c502d01089,65af55b0dc8991f4776b9f02,2024-01-23_08h39.34.260,bars,2023.2.3,Win32,55.55555556,657b66ea316d21385b68909f,,,,,,,,,,,,,,,,,,,,,,,,,,,,,,,,,,,,,,,,,,230.1507,230.5734,right,0.401,,230.5735,5,2,231.5647,0,17,17,17,1,8,4,9,5,,,,,,,,,,,,,,,,,,,,,,,,,,,,,,,,,,,,,,,,,
,,64c667536acb78c502d01089,65af55b0dc8991f4776b9f02,2024-01-23_08h39.34.260,bars,2023.2.3,Win32,55.55555556,657b66ea316d21385b68909f,,,,,,,,,,,,,,,,,,,,,,,,,,,,,,,,,,,,,,,,,,231.5664,231.8884,right,0.3093,,231.8885,1,2,232.8881,0,18,18,18,1,6,2,5,1,,,,,,,,,,,,,,,,,,,,,,,,,,,,,,,,,,,,,,,,,
,,64c667536acb78c502d01089,65af55b0dc8991f4776b9f02,2024-01-23_08h39.34.260,bars,2023.2.3,Win32,55.55555556,657b66ea316d21385b68909f,,,,,,,,,,,,,,,,,,,,,,,,,,,,,,,,,,,,,,,,,,232.889,233.3191,left,0.4136,,233.3191,7,1,234.3146,0,19,19,19,1,8,0,7,0,,,,,,,,,,,,,,,,,,,,,,,,,,,,,,,,,,,,,,,,,
,,64c667536acb78c502d01089,65af55b0dc8991f4776b9f02,2024-01-23_08h39.34.260,bars,2023.2.3,Win32,55.55555556,657b66ea316d21385b68909f,,,,,,,,,,,,,,,,,,,,,,,,,,,,,,,,,,,,,,,,,,,,,,,,,,,,,,,,,,,,234.3166,253.5987,space,19.2495,,,,,,,,,,,,,,,,,,,,,,,,,,,,,,,,,,,,,
,,64c667536acb78c502d01089,65af55b0dc8991f4776b9f02,2024-01-23_08h39.34.260,bars,2023.2.3,Win32,55.55555556,657b66ea316d21385b68909f,,,,,,,,,,,255.2711,256.2646,,,256.7643,257.0013,,33,33,,,,,,,,,,,,,,,,bars/012.png,bars/mask004.png,,,,,,,,,,,,0,2,,,,,,,8,2,9,1,,,,,,253.6253,255.2528,space,1.606,,256.2656,256.7642,257.002,267.8907,space,10.8553,,267.8913,57,18,268.892,268.8926,273.5424,space,4.5839,,0,0,0,0,1,90,15,,,,,,,,
,,64c667536acb78c502d01089,65af55b0dc8991f4776b9f02,2024-01-23_08h39.34.260,bars,2023.2.3,Win32,55.55555556,657b66ea316d21385b68909f,,,,,,,,,,,273.5726,274.5434,,,275.0196,275.2725,,164,164,,,,,,,,,,,,,,,,bars/026.png,bars/mask000.png,,,,,,,,,,,,0,1,,,,,,,6,4,6,4,,,,,,,,,,,274.5435,275.0195,275.2727,284.2925,space,8.9969,,284.293,51,79,285.2887,285.2888,291.246,space,5.8758,,0,1,1,1,1,35,85,,,,,,,,
,,64c667536acb78c502d01089,65af55b0dc8991f4776b9f02,2024-01-23_08h39.34.260,bars,2023.2.3,Win32,55.55555556,657b66ea316d21385b68909f,,,,,,,,,,,291.2744,292.255,,,292.7435,292.9764,,101,101,,,,,,,,,,,,,,,,bars/034.png,bars/mask003.png,,,,,,,,,,,,2,1,,,,,,,8,2,8,2,,,,,,,,,,,292.2552,292.7434,292.9765,298.1285,space,5.1367,,298.1286,24,36,299.1289,299.129,302.7555,space,3.5592,,0,2,2,2,1,125,65,,,,,,,,
,,64c667536acb78c502d01089,65af55b0dc8991f4776b9f02,2024-01-23_08h39.34.260,bars,2023.2.3,Win32,55.55555556,657b66ea316d21385b68909f,,,,,,,,,,,302.7836,303.7561,,,304.2578,304.5181,,144,-36,,,,,,,,,,,,,,,,bars/028.png,bars/mask004.png,,,,,,,,,,,,1,2,,,,,,,6,4,5,5,,,,,,,,,,,303.7562,304.2576,304.5183,307.8786,space,3.3335,,307.8787,81,24,308.874,308.8741,310.2054,space,1.2521,,0,3,3,3,1,45,120,,,,,,,,
,,64c667536acb78c502d01089,65af55b0dc8991f4776b9f02,2024-01-23_08h39.34.260,bars,2023.2.3,Win32,55.55555556,657b66ea316d21385b68909f,,,,,,,,,,,310.2068,311.2247,,,311.727,311.9713,,51,51,,,,,,,,,,,,,,,,bars/023.png,bars/mask004.png,,,,,,,,,,,,0,1,,,,,,,4,2,5,1,,,,,,,,,,,311.2248,311.727,311.9714,318.6481,space,6.6559,,318.6481,31,64,319.6368,319.6369,322.1939,space,2.4798,,0,4,4,4,1,20,115,,,,,,,,
,,64c667536acb78c502d01089,65af55b0dc8991f4776b9f02,2024-01-23_08h39.34.260,bars,2023.2.3,Win32,55.55555556,657b66ea316d21385b68909f,,,,,,,,,,,322.1949,323.1864,,,323.6743,323.9217,,178,-2,,,,,,,,,,,,,,,,bars/017.png,bars/mask000.png,,,,,,,,,,,,0,1,,,,,,,2,0,3,2,,,,,,,,,,,323.1865,323.6742,323.9218,330.136,space,6.2013,,330.1361,33,47,331.1558,331.1559,331.2843,space,0.0225,,0,5,5,5,1,145,45,,,,,,,,
,,64c667536acb78c502d01089,65af55b0dc8991f4776b9f02,2024-01-23_08h39.34.260,bars,2023.2.3,Win32,55.55555556,657b66ea316d21385b68909f,,,,,,,,,,,331.285,332.2876,,,332.7842,333.0353,,30,30,,,,,,,,,,,,,,,,bars/049.png,bars/mask009.png,,,,,,,,,,,,0,1,,,,,,,0,2,1,3,,,,,,,,,,,332.2877,332.7842,333.0354,337.7022,space,4.6514,,337.7024,50,85,338.7016,338.7017,338.8238,space,0.0588,,0,6,6,6,1,160,115,,,,,,,,
,,64c667536acb78c502d01089,65af55b0dc8991f4776b9f02,2024-01-23_08h39.34.260,bars,2023.2.3,Win32,55.55555556,657b66ea316d21385b68909f,,,,,,,,,,,338.8246,339.8183,,,340.3168,340.5549,,87,87,,,,,,,,,,,,,,,,bars/023.png,bars/mask007.png,,,,,,,,,,,,0,2,,,,,,,2,0,2,0,,,,,,,,,,,339.8185,340.3167,340.555,344.8667,space,4.2924,,344.8668,67,28,345.8654,345.8656,347.6058,space,1.6625,,0,7,7,7,1,20,115,,,,,,,,
,,64c667536acb78c502d01089,65af55b0dc8991f4776b9f02,2024-01-23_08h39.34.260,bars,2023.2.3,Win32,55.55555556,657b66ea316d21385b68909f,,,,,,,,,,,347.6066,348.6004,,,349.1003,349.3491,,83,83,,,,,,,,,,,,,,,,bars/037.png,bars/mask007.png,,,,,,,,,,,,1,2,,,,,,,0,2,0,2,,,,,,,,,,,348.6006,349.1002,349.3492,352.3558,space,2.9894,,352.356,67,22,353.3486,353.3487,353.5895,space,0.1722,,0,8,8,8,1,150,105,,,,,,,,
,,64c667536acb78c502d01089,65af55b0dc8991f4776b9f02,2024-01-23_08h39.34.260,bars,2023.2.3,Win32,55.55555556,657b66ea316d21385b68909f,,,,,,,,,,,353.5902,354.5804,,,355.0833,355.3383,,119,119,,,,,,,,,,,,,,,,bars/007.png,bars/mask002.png,,,,,,,,,,,,0,1,,,,,,,0,4,0,4,,,,,,,,,,,354.5806,355.0832,355.3383,357.4175,space,2.0629,,357.4177,56,64,358.4169,358.4171,360.6689,space,2.1521,,0,9,9,9,1,175,55,,,,,,,,
,,64c667536acb78c502d01089,65af55b0dc8991f4776b9f02,2024-01-23_08h39.34.260,bars,2023.2.3,Win32,55.55555556,657b66ea316d21385b68909f,,,,,,,,,,,360.6697,361.6644,,,362.1628,362.4118,,3,3,,,,,,,,,,,,,,,,bars/040.png,bars/mask005.png,,,,,,,,,,,,5,2,,,,,,,0,6,3,5,,,,,,,,,,,361.6644,362.1627,362.4118,367.2977,space,4.8568,,367.2979,43,2,368.2959,368.2959,368.4467,space,0.0789,,0,10,10,10,1,140,5,,,,,,,,
,,64c667536acb78c502d01089,65af55b0dc8991f4776b9f02,2024-01-23_08h39.34.260,bars,2023.2.3,Win32,55.55555556,657b66ea316d21385b68909f,,,,,,,,,,,368.4475,369.4443,,,369.9331,370.1778,,117,117,,,,,,,,,,,,,,,,bars/010.png,bars/mask004.png,,,,,,,,,,,,0,1,,,,,,,2,4,3,5,,,,,,,,,,,369.4445,369.9331,370.1778,374.6683,space,4.4679,,374.6684,48,62,375.661,375.661,375.8477,space,0.1015,,0,11,11,11,1,165,55,,,,,,,,
,,64c667536acb78c502d01089,65af55b0dc8991f4776b9f02,2024-01-23_08h39.34.260,bars,2023.2.3,Win32,55.55555556,657b66ea316d21385b68909f,,,,,,,,,,,375.8494,376.8485,,,377.3361,377.5821,,159,159,,,,,,,,,,,,,,,,bars/010.png,bars/mask004.png,,,,,,,,,,,,0,1,,,,,,,0,6,0,5,,,,,,,,,,,376.8486,377.336,377.5821,381.3388,space,3.7397,,381.3388,6,76,382.3479,382.3481,384.3286,space,1.9353,,0,12,12,12,1,165,55,,,,,,,,
,,64c667536acb78c502d01089,65af55b0dc8991f4776b9f02,2024-01-23_08h39.34.260,bars,2023.2.3,Win32,55.55555556,657b66ea316d21385b68909f,,,,,,,,,,,384.3298,385.3142,,,385.8106,386.0568,,28,28,,,,,,,,,,,,,,,,bars/006.png,bars/mask006.png,,,,,,,,,,,,2,1,,,,,,,2,4,2,4,,,,,,,,,,,385.3143,385.8105,386.0568,394.2942,space,8.2129,,394.2943,7,72,395.2954,395.2958,395.3646,space,0.0024,,0,13,13,13,1,35,100,,,,,,,,
,,64c667536acb78c502d01089,65af55b0dc8991f4776b9f02,2024-01-23_08h39.34.260,bars,2023.2.3,Win32,55.55555556,657b66ea316d21385b68909f,,,,,,,,,,,395.3655,396.3654,,,396.8574,397.1084,,90,90,,,,,,,,,,,,,,,,bars/036.png,bars/mask003.png,,,,,,,,,,,,0,1,,,,,,,0,6,0,6,,,,,,,,,,,396.3656,396.8573,397.1085,403.132,space,6.0038,,403.1321,55,70,404.1246,404.1248,407.3587,space,3.1692,,0,14,14,14,1,145,20,,,,,,,,
,,64c667536acb78c502d01089,65af55b0dc8991f4776b9f02,2024-01-23_08h39.34.260,bars,2023.2.3,Win32,55.55555556,657b66ea316d21385b68909f,,,,,,,,,,,407.3595,408.3622,,,408.8642,409.1088,,138,138,,,,,,,,,,,,,,,,bars/044.png,bars/mask006.png,,,,,,,,,,,,3,2,,,,,,,2,8,1,8,,,,,,,,,,,408.3622,408.8641,409.1089,412.213,space,3.087,,412.2131,63,17,413.2117,413.2118,414.0628,space,0.7756,,0,15,15,15,1,75,155,,,,,,,,
,,64c667536acb78c502d01089,65af55b0dc8991f4776b9f02,2024-01-23_08h39.34.260,bars,2023.2.3,Win32,55.55555556,657b66ea316d21385b68909f,,,,,,,,,,,414.064,415.053,,,415.5433,415.7878,,62,62,,,,,,,,,,,,,,,,bars/041.png,bars/mask004.png,,,,,,,,,,,,2,2,,,,,,,0,10,0,9,,,,,,,,,,,415.0531,415.5433,415.7882,420.9441,space,5.13,,420.9442,42,23,421.9365,421.9365,422.0104,space,0.0043,,0,16,16,16,1,20,85,,,,,,,,
,,64c667536acb78c502d01089,65af55b0dc8991f4776b9f02,2024-01-23_08h39.34.260,bars,2023.2.3,Win32,55.55555556,657b66ea316d21385b68909f,,,,,,,,,,,422.011,423.0013,,,423.5029,423.7586,,21,21,,,,,,,,,,,,,,,,bars/040.png,bars/mask000.png,,,,,,,,,,,,5,2,,,,,,,0,10,0,10,,,,,,,,,,,423.0014,423.5028,423.7586,430.2685,space,6.4937,,430.2685,61,16,431.2525,431.2527,433.3433,space,2.0245,,0,17,17,17,1,140,5,,,,,,,,
,,64c667536acb78c502d01089,65af55b0dc8991f4776b9f02,2024-01-23_08h39.34.260,bars,2023.2.3,Win32,55.55555556,657b66ea316d21385b68909f,,,,,,,,,,,433.3441,434.3374,,,434.8361,435.0855,,177,177,,,,,,,,,,,,,,,,bars/018.png,bars/mask000.png,,,,,,,,,,,,0,1,,,,,,,0,10,0,9,,,,,,,,,,,434.3376,434.836,435.0857,440.2472,space,5.1091,,440.2472,27,87,441.2307,441.2308,446.1052,space,4.8167,,0,18,18,18,1,150,90,,,,,,,,
,,64c667536acb78c502d01089,65af55b0dc8991f4776b9f02,2024-01-23_08h39.34.260,bars,2023.2.3,Win32,55.55555556,657b66ea316d21385b68909f,,,,,,,,,,,446.1468,447.1286,,,447.6182,447.8666,,106,106,,,,,,,,,,,,,,,,bars/020.png,bars/mask005.png,,,,,,,,,,,,1,1,,,,,,,2,8,2,8,,,,,,,,,,,447.1286,447.6181,447.8667,454.0005,space,6.1156,,454.0009,9,64,455.0117,455.0119,456.7713,space,1.6896,,0,19,19,19,1,115,170,,,,,,,,
,,64c667536acb78c502d01089,65af55b0dc8991f4776b9f02,2024-01-23_08h39.34.260,bars,2023.2.3,Win32,55.55555556,657b66ea316d21385b68909f,,,,,,,,,,,456.7721,457.7645,,,458.2639,458.5022,,52,52,,,,,,,,,,,,,,,,bars/019.png,bars/mask006.png,,,,,,,,,,,,1,1,,,,,,,0,6,1,6,,,,,,,,,,,457.7646,458.2632,458.5022,464.3037,space,5.7901,,464.3038,7,53,465.304,465.3041,466.405,space,1.0381,,0,20,20,20,1,45,105,,,,,,,,
,,64c667536acb78c502d01089,65af55b0dc8991f4776b9f02,2024-01-23_08h39.34.260,bars,2023.2.3,Win32,55.55555556,657b66ea316d21385b68909f,,,,,,,,,,,466.4059,467.3994,,,467.8972,468.1519,,140,-40,,,,,,,,,,,,,,,,bars/044.png,bars/mask000.png,,,,,,,,,,,,3,2,,,,,,,2,8,2,5,,,,,,,,,,,467.3995,467.8971,468.1522,473.2335,space,5.0688,,473.2336,65,15,474.2095,474.2097,476.491,space,2.1924,,0,21,21,21,1,75,155,,,,,,,,
,,64c667536acb78c502d01089,65af55b0dc8991f4776b9f02,2024-01-23_08h39.34.260,bars,2023.2.3,Win32,55.55555556,657b66ea316d21385b68909f,,,,,,,,,,,476.4921,477.4803,,,477.9797,478.2346,,117,117,,,,,,,,,,,,,,,,bars/048.png,bars/mask008.png,,,,,,,,,,,,0,2,,,,,,,4,6,4,7,,,,,,,,,,,477.4805,477.9796,478.2347,483.1332,space,4.8868,,483.1333,67,58,484.1247,484.1248,484.8458,space,0.6733,,0,22,22,22,1,50,175,,,,,,,,
,,64c667536acb78c502d01089,65af55b0dc8991f4776b9f02,2024-01-23_08h39.34.260,bars,2023.2.3,Win32,55.55555556,657b66ea316d21385b68909f,,,,,,,,,,,484.8464,485.8471,,,486.7885,486.7902,,176,176,,,,,,,,,,,,,,,,bars/042.png,bars/mask000.png,,,,,,,,,,,,0,1,,,,,,,2,4,3,4,,,,,,,,,,,485.8472,486.7883,486.7902,491.1602,space,4.3576,,491.1602,31,79,492.1565,492.1566,494.7385,space,2.4495,0.0723,0,23,23,23,1,145,75,,,,,,,,
,,64c667536acb78c502d01089,65af55b0dc8991f4776b9f02,2024-01-23_08h39.34.260,bars,2023.2.3,Win32,55.55555556,657b66ea316d21385b68909f,,,,,,,,,,,494.7394,495.7304,,,496.2303,496.4723,,134,134,,,,,,,,,,,,,,,,bars/020.png,bars/mask002.png,,,,,,,,,,,,0,1,,,,,,,0,2,1,3,,,,,,,,,,,495.7305,496.2302,496.4724,500.1739,space,3.6903,,500.1739,19,36,501.1704,501.1705,502.9045,space,1.6628,,0,24,24,24,1,115,170,,,,,,,,
,,64c667536acb78c502d01089,65af55b0dc8991f4776b9f02,2024-01-23_08h39.34.260,bars,2023.2.3,Win32,55.55555556,657b66ea316d21385b68909f,,,,,,,,,,,502.9054,503.9059,,,504.4056,504.6541,,167,167,,,,,,,,,,,,,,,,bars/032.png,bars/mask008.png,,,,,,,,,,,,0,2,,,,,,,0,0,2,0,,,,,,,,,,,503.906,504.4056,504.6542,505.2781,space,0.5978,,505.2782,42,33,506.2548,506.2549,507.2023,space,0.892,,0,25,25,25,1,125,20,,,,,,,,
,,64c667536acb78c502d01089,65af55b0dc8991f4776b9f02,2024-01-23_08h39.34.260,bars,2023.2.3,Win32,55.55555556,657b66ea316d21385b68909f,,,,,,,,,,,507.2035,508.2025,,,508.7056,508.859,,75,75,,,,,,,,,,,,,,,,bars/022.png,bars/mask001.png,,,,,,,,,,,,0,1,,,,,,,2,0,1,0,,,,,,,,,,,508.2026,508.7055,508.859,509.9404,space,1.0618,,509.9405,20,55,510.9249,510.925,512.7181,space,1.7297,,0,26,26,26,1,95,20,,,,,,,,
,,64c667536acb78c502d01089,65af55b0dc8991f4776b9f02,2024-01-23_08h39.34.260,bars,2023.2.3,Win32,55.55555556,657b66ea316d21385b68909f,,,,,,,,,,,512.7189,513.7211,,,514.2268,514.4717,,13,13,,,,,,,,,,,,,,,,bars/000.png,bars/mask000.png,,,,,,,,,,,,0,1,,,,,,,0,2,0,2,,,,,,,,,,,513.7212,514.2267,514.4717,517.5374,space,3.0484,,517.5374,27,48,518.5366,518.5367,518.5871,space,0.0019,,0,27,27,27,1,40,145,,,,,,,,
,,64c667536acb78c502d01089,65af55b0dc8991f4776b9f02,2024-01-23_08h39.34.260,bars,2023.2.3,Win32,55.55555556,657b66ea316d21385b68909f,,,,,,,,,,,518.5877,519.5923,,,520.0934,520.3369,,118,118,,,,,,,,,,,,,,,,bars/049.png,bars/mask003.png,,,,,,,,,,,,1,2,,,,,,,0,0,0,1,,,,,,,,,,,519.5924,520.0932,520.3371,523.7437,space,3.3956,,523.7437,42,3,524.7341,524.7342,526.1871,space,1.3923,,0,28,28,28,1,160,115,,,,,,,,
,,64c667536acb78c502d01089,65af55b0dc8991f4776b9f02,2024-01-23_08h39.34.260,bars,2023.2.3,Win32,55.55555556,657b66ea316d21385b68909f,,,,,,,,,,,526.1877,527.1842,,,527.676,527.9255,,134,-46,,,,,,,,,,,,,,,,bars/038.png,bars/mask009.png,,,,,,,,,,,,0,1,,,,,,,2,0,2,0,,,,,,,,,,,527.1844,527.6757,527.9256,531.5523,space,3.6081,,531.5525,31,64,532.5403,532.5405,534.4368,space,1.8394,,0,29,29,29,1,165,70,,,,,,,,
,,64c667536acb78c502d01089,65af55b0dc8991f4776b9f02,2024-01-23_08h39.34.260,bars,2023.2.3,Win32,55.55555556,657b66ea316d21385b68909f,,,,,,,,,,,534.4376,535.4352,,,535.9325,536.1828,,15,195,,,,,,,,,,,,,,,,bars/022.png,bars/mask000.png,,,,,,,,,,,,2,2,,,,,,,0,2,0,2,,,,,,,,,,,535.4354,535.9325,536.1829,539.4064,space,3.199,,539.4065,80,5,540.4222,540.4222,541.3214,space,0.8183,,0,30,30,30,1,95,20,,,,,,,,
,,64c667536acb78c502d01089,65af55b0dc8991f4776b9f02,2024-01-23_08h39.34.260,bars,2023.2.3,Win32,55.55555556,657b66ea316d21385b68909f,,,,,,,,,,,541.3221,542.316,,,542.8185,543.0667,,82,82,,,,,,,,,,,,,,,,bars/000.png,bars/mask005.png,,,,,,,,,,,,0,1,,,,,,,2,0,1,0,,,,,,,,,,,542.316,542.8185,543.067,547.1004,space,4.0094,,547.1005,42,63,548.0964,548.0965,563.1556,space,14.984,,0,31,31,31,1,40,145,,,,,,,,
,,64c667536acb78c502d01089,65af55b0dc8991f4776b9f02,2024-01-23_08h39.34.260,bars,2023.2.3,Win32,55.55555556,657b66ea316d21385b68909f,,,,,,,,,,,563.2347,564.1768,,,564.6592,564.9022,,152,152,,,,,,,,,,,,,,,,bars/007.png,bars/mask000.png,,,,,,,,,,,,1,1,,,,,,,4,2,5,2,,,,,,,,,,,564.1768,564.6591,564.9022,568.6655,space,3.7471,,568.6657,23,83,569.6561,569.6561,571.0601,space,1.3371,,0,32,32,32,1,175,55,,,,,,,,
,,64c667536acb78c502d01089,65af55b0dc8991f4776b9f02,2024-01-23_08h39.34.260,bars,2023.2.3,Win32,55.55555556,657b66ea316d21385b68909f,,,,,,,,,,,571.0615,572.065,,,572.5651,572.8083,,99,99,,,,,,,,,,,,,,,,bars/023.png,bars/mask001.png,,,,,,,,,,,,0,2,,,,,,,2,0,3,1,,,,,,,,,,,572.0651,572.5649,572.8084,577.0361,space,4.2124,,577.0361,79,16,578.0304,578.0305,580.9636,space,2.8578,,0,33,33,33,1,20,115,,,,,,,,
,,64c667536acb78c502d01089,65af55b0dc8991f4776b9f02,2024-01-23_08h39.34.260,bars,2023.2.3,Win32,55.55555556,657b66ea316d21385b68909f,,,,,,,,,,,580.9644,581.9408,,,582.4298,582.6792,,32,32,,,,,,,,,,,,,,,,bars/042.png,bars/mask002.png,,,,,,,,,,,,0,2,,,,,,,0,0,0,0,,,,,,,,,,,581.9409,582.4297,582.6792,587.2162,space,4.5226,,587.2163,67,43,588.2072,588.2073,589.8178,space,1.5473,,0,34,34,34,1,145,75,,,,,,,,
,,64c667536acb78c502d01089,65af55b0dc8991f4776b9f02,2024-01-23_08h39.34.260,bars,2023.2.3,Win32,55.55555556,657b66ea316d21385b68909f,,,,,,,,,,,589.8189,590.8114,,,591.3155,591.5631,,43,43,,,,,,,,,,,,,,,,bars/031.png,bars/mask002.png,,,,,,,,,,,,1,2,,,,,,,0,2,1,1,,,,,,,,,,,590.8116,591.3155,591.5634,595.5117,space,3.9371,,595.5118,77,8,596.5111,596.5111,598.6475,space,2.0729,0.0009,0,35,35,35,1,120,35,,,,,,,,
,,64c667536acb78c502d01089,65af55b0dc8991f4776b9f02,2024-01-23_08h39.34.260,bars,2023.2.3,Win32,55.55555556,657b66ea316d21385b68909f,,,,,,,,,,,598.6483,599.6409,,,600.1308,600.3775,,44,44,,,,,,,,,,,,,,,,bars/039.png,bars/mask006.png,,,,,,,,,,,,0,1,,,,,,,0,0,0,0,,,,,,,,,,,599.6411,600.1308,600.3776,604.5943,space,4.1992,,604.5945,49,61,605.5908,605.5909,606.6793,space,1.0119,,0,36,36,36,1,175,105,,,,,,,,
,,64c667536acb78c502d01089,65af55b0dc8991f4776b9f02,2024-01-23_08h39.34.260,bars,2023.2.3,Win32,55.55555556,657b66ea316d21385b68909f,,,,,,,,,,,606.6801,607.6753,,,608.1753,608.4228,,66,66,,,,,,,,,,,,,,,,bars/009.png,bars/mask006.png,,,,,,,,,,,,0,2,,,,,,,0,0,0,0,,,,,,,,,,,607.6754,608.1752,608.423,612.3294,space,3.8905,,612.3295,51,39,613.3205,613.3206,613.4473,space,0.0495,,0,37,37,37,1,15,105,,,,,,,,
,,64c667536acb78c502d01089,65af55b0dc8991f4776b9f02,2024-01-23_08h39.34.260,bars,2023.2.3,Win32,55.55555556,657b66ea316d21385b68909f,,,,,,,,,,,613.448,614.4463,,,614.9419,615.1873,,16,16,,,,,,,,,,,,,,,,bars/025.png,bars/mask001.png,,,,,,,,,,,,0,2,,,,,,,0,0,0,1,,,,,,,,,,,614.4463,614.9419,615.1873,620.2281,space,5.0254,,620.2282,89,24,621.2211,621.2211,622.3877,space,1.1047,,0,38,38,38,1,105,40,,,,,,,,
,,64c667536acb78c502d01089,65af55b0dc8991f4776b9f02,2024-01-23_08h39.34.260,bars,2023.2.3,Win32,55.55555556,657b66ea316d21385b68909f,,,,,,,,,,,622.3885,623.3884,,,623.886,624.1396,,114,114,,,,,,,,,,,,,,,,bars/046.png,bars/mask002.png,,,,,,,,,,,,0,2,,,,,,,2,0,3,0,,,,,,,,,,,623.3885,623.8859,624.1397,628.6073,space,4.4504,,628.6075,41,29,629.6063,629.6064,630.9111,space,1.2357,,0,39,39,39,1,155,85,,,,,,,,
,,64c667536acb78c502d01089,65af55b0dc8991f4776b9f02,2024-01-23_08h39.34.260,bars,2023.2.3,Win32,55.55555556,657b66ea316d21385b68909f,,,,,,,,,,,630.912,631.904,,,632.3999,632.6483,,177,-3,,,,,,,,,,,,,,,,bars/037.png,bars/mask001.png,,,,,,,,,,,,0,1,,,,,,,4,0,4,1,,,,,,,,,,,631.9041,632.3998,632.6483,636.0381,space,3.3726,,636.0381,27,72,637.0364,637.0365,639.4318,space,2.284,,0,40,40,40,1,150,105,,,,,,,,
,,64c667536acb78c502d01089,65af55b0dc8991f4776b9f02,2024-01-23_08h39.34.260,bars,2023.2.3,Win32,55.55555556,657b66ea316d21385b68909f,,,,,,,,,,,639.4329,640.4209,,,640.9165,641.1665,,10,190,,,,,,,,,,,,,,,,bars/033.png,bars/mask005.png,,,,,,,,,,,,2,1,,,,,,,6,0,4,0,,,,,,,,,,,640.421,640.9164,641.1666,643.9008,space,2.7154,,643.9009,15,35,644.8916,644.8917,645.6503,space,0.705,,0,41,41,41,1,25,155,,,,,,,,
,,64c667536acb78c502d01089,65af55b0dc8991f4776b9f02,2024-01-23_08h39.34.260,bars,2023.2.3,Win32,55.55555556,657b66ea316d21385b68909f,,,,,,,,,,,645.6513,646.6489,,,647.1502,647.4013,,40,220,,,,,,,,,,,,,,,,bars/023.png,bars/mask004.png,,,,,,,,,,,,2,1,,,,,,,4,2,5,2,,,,,,,,,,,646.649,647.1501,647.4013,651.9236,space,4.5075,,651.9236,20,75,652.9178,652.9178,654.6693,space,1.6877,,0,42,42,42,1,20,115,,,,,,,,
,,64c667536acb78c502d01089,65af55b0dc8991f4776b9f02,2024-01-23_08h39.34.260,bars,2023.2.3,Win32,55.55555556,657b66ea316d21385b68909f,,,,,,,,,,,654.6701,655.6656,,,656.1635,656.4042,,145,145,,,,,,,,,,,,,,,,bars/036.png,bars/mask002.png,,,,,,,,,,,,7,1,,,,,,,6,0,7,1,,,,,,,,,,,655.6656,656.1634,656.4043,658.538,space,2.1175,,658.5381,0,55,659.5333,659.5334,662.929,space,3.3681,,0,43,43,43,1,145,20,,,,,,,,
,,64c667536acb78c502d01089,65af55b0dc8991f4776b9f02,2024-01-23_08h39.34.260,bars,2023.2.3,Win32,55.55555556,657b66ea316d21385b68909f,,,,,,,,,,,662.9555,663.9362,,,664.4317,664.6836,,108,108,,,,,,,,,,,,,,,,bars/000.png,bars/mask006.png,,,,,,,,,,,,0,2,,,,,,,4,2,6,2,,,,,,,,,,,663.9364,664.4316,664.6836,668.9327,space,4.2291,,668.9327,68,37,669.9314,669.9314,672.0333,space,2.0276,,0,44,44,44,1,40,145,,,,,,,,
,,64c667536acb78c502d01089,65af55b0dc8991f4776b9f02,2024-01-23_08h39.34.260,bars,2023.2.3,Win32,55.55555556,657b66ea316d21385b68909f,,,,,,,,,,,672.0342,673.0309,,,673.5356,673.7819,,61,61,,,,,,,,,,,,,,,,bars/020.png,bars/mask002.png,,,,,,,,,,,,0,1,,,,,,,2,4,3,4,,,,,,,,,,,673.0309,673.5353,673.782,677.1974,space,3.3955,,677.1975,54,71,678.1966,678.1967,679.417,space,1.1423,,0,45,45,45,1,115,170,,,,,,,,
,,64c667536acb78c502d01089,65af55b0dc8991f4776b9f02,2024-01-23_08h39.34.260,bars,2023.2.3,Win32,55.55555556,657b66ea316d21385b68909f,,,,,,,,,,,679.4177,680.4129,,,680.9125,681.1579,,145,145,,,,,,,,,,,,,,,,bars/035.png,bars/mask001.png,,,,,,,,,,,,0,1,,,,,,,4,2,4,1,,,,,,,,,,,680.4129,680.9124,681.158,684.2345,space,3.0591,,684.2345,30,85,685.2299,685.23,687.4741,space,2.1743,,0,46,46,46,1,175,60,,,,,,,,
,,64c667536acb78c502d01089,65af55b0dc8991f4776b9f02,2024-01-23_08h39.34.260,bars,2023.2.3,Win32,55.55555556,657b66ea316d21385b68909f,,,,,,,,,,,687.4751,688.4628,,,688.9616,689.2131,,16,196,,,,,,,,,,,,,,,,bars/048.png,bars/mask002.png,,,,,,,,,,,,0,2,,,,,,,6,0,6,0,,,,,,,,,,,688.4628,688.9615,689.2132,693.274,space,4.0405,,693.2741,34,21,694.2692,694.2694,696.0494,space,1.7018,,0,47,47,47,1,50,175,,,,,,,,
,,64c667536acb78c502d01089,65af55b0dc8991f4776b9f02,2024-01-23_08h39.34.260,bars,2023.2.3,Win32,55.55555556,657b66ea316d21385b68909f,,,,,,,,,,,696.0503,697.0423,,,697.5425,697.7988,,178,178,,,,,,,,,,,,,,,,bars/017.png,bars/mask007.png,,,,,,,,,,,,0,1,,,,,,,4,2,5,2,,,,,,,,,,,697.0424,697.5424,697.7989,702.6644,space,4.8543,,702.6644,33,47,703.6653,703.6654,703.7631,space,0.0031,,0,48,48,48,1,145,45,,,,,,,,
,,64c667536acb78c502d01089,65af55b0dc8991f4776b9f02,2024-01-23_08h39.34.260,bars,2023.2.3,Win32,55.55555556,657b66ea316d21385b68909f,,,,,,,,,,,703.7639,704.756,,,705.2598,705.4978,,0,0,,,,,,,,,,,,,,,,bars/003.png,bars/mask001.png,,,,,,,,,,,,1,1,,,,,,,2,4,4,3,,,,,,,,,,,704.7561,705.2597,705.4978,713.7917,space,8.2798,,713.7919,25,40,714.7947,714.7948,717.4208,space,2.5575,,0,49,49,49,1,25,140,,,,,,,,
,,64c667536acb78c502d01089,65af55b0dc8991f4776b9f02,2024-01-23_08h39.34.260,bars,2023.2.3,Win32,55.55555556,657b66ea316d21385b68909f,,,,,,,,,,,,,,,,,,,,,,,,,,,,,,,,,,,,,,,,,,,,,,,,,,,,,,,,,,,,,,,,,,,,,,,,,,,,,,,,,,,,,,,,,,,,,717.5273,777.4437,0,0,0,1,1,sequence_tables/blk015.csv
,,64c667536acb78c502d01089,65af55b0dc8991f4776b9f02,2024-01-23_08h39.34.260,bars,2023.2.3,Win32,55.55555556,657b66ea316d21385b68909f,,,,,,,,,,,788.8999,789.8372,,,790.3303,790.5849,,56,56,,,,,,,,,,,,,,,,bars/000.png,bars/mask009.png,,,,,,,,,,,,2,1,,,,,,,5,5,4,5,,,,,,777.4731,788.8503,space,11.362,,789.8374,790.3302,790.585,797.3632,space,6.7604,,797.3633,16,89,798.3606,798.3606,798.3948,,,,0,0,0,0,1,40,145,,,,,,,,
,,64c667536acb78c502d01089,65af55b0dc8991f4776b9f02,2024-01-23_08h39.34.260,bars,2023.2.3,Win32,55.55555556,657b66ea316d21385b68909f,,,,,,,,,,,798.3957,799.3911,,,799.9487,800.1608,,32,32,,,,,,,,,,,,,,,,bars/043.png,bars/mask007.png,,,,,,,,,,,,2,1,,,,,,,3,3,2,2,,,,,,,,,,,799.3912,799.9487,800.1608,806.4972,space,6.3167,,806.4973,2,82,807.4953,807.4953,807.527,,,,0,1,1,1,1,30,130,,,,,,,,
,,64c667536acb78c502d01089,65af55b0dc8991f4776b9f02,2024-01-23_08h39.34.260,bars,2023.2.3,Win32,55.55555556,657b66ea316d21385b68909f,,,,,,,,,,,807.5277,808.5258,,,809.0331,809.2797,,43,223,,,,,,,,,,,,,,,,bars/003.png,bars/mask008.png,,,,,,,,,,,,2,1,,,,,,,5,1,6,1,,,,,,,,,,,808.5258,809.033,809.2797,814.6497,space,5.3578,,814.6498,18,83,815.6408,815.6408,815.6721,,,,0,2,2,2,1,25,140,,,,,,,,
,,64c667536acb78c502d01089,65af55b0dc8991f4776b9f02,2024-01-23_08h39.34.260,bars,2023.2.3,Win32,55.55555556,657b66ea316d21385b68909f,,,,,,,,,,,815.6728,816.6625,,,817.1636,817.4086,,82,82,,,,,,,,,,,,,,,,bars/023.png,bars/mask004.png,,,,,,,,,,,,0,2,,,,,,,3,3,5,4,,,,,,,,,,,816.6629,817.1636,817.4087,822.4585,space,5.035,,822.4586,62,33,823.4535,823.4536,823.4892,,,,0,3,3,3,1,20,115,,,,,,,,
,,64c667536acb78c502d01089,65af55b0dc8991f4776b9f02,2024-01-23_08h39.34.260,bars,2023.2.3,Win32,55.55555556,657b66ea316d21385b68909f,,,,,,,,,,,823.4899,824.4813,,,824.972,825.2284,,0,180,,,,,,,,,,,,,,,,bars/040.png,bars/mask008.png,,,,,,,,,,,,4,2,,,,,,,1,5,1,5,,,,,,,,,,,824.4814,824.9719,825.2285,827.66,space,2.4167,,827.6601,40,5,828.6604,828.6605,828.6899,,,,0,4,4,4,1,140,5,,,,,,,,
,,64c667536acb78c502d01089,65af55b0dc8991f4776b9f02,2024-01-23_08h39.34.260,bars,2023.2.3,Win32,55.55555556,657b66ea316d21385b68909f,,,,,,,,,,,828.6906,829.6881,,,830.1937,830.4435,,171,171,,,,,,,,,,,,,,,,bars/007.png,bars/mask001.png,,,,,,,,,,,,0,1,,,,,,,0,3,0,2,,,,,,,,,,,829.6882,830.1933,830.4437,833.7254,space,3.2615,,833.7256,4,64,834.7197,834.7198,834.752,,,,0,5,5,5,1,175,55,,,,,,,,
,,64c667536acb78c502d01089,65af55b0dc8991f4776b9f02,2024-01-23_08h39.34.260,bars,2023.2.3,Win32,55.55555556,657b66ea316d21385b68909f,,,,,,,,,,,834.7527,835.7411,,,836.2375,836.4874,,20,20,,,,,,,,,,,,,,,,bars/013.png,bars/mask003.png,,,,,,,,,,,,1,2,,,,,,,2,1,3,1,,,,,,,,,,,835.7412,836.2374,836.4875,839.907,space,3.3968,,839.9071,55,10,840.906,840.9061,840.9418,,,,0,6,6,6,1,75,10,,,,,,,,
,,64c667536acb78c502d01089,65af55b0dc8991f4776b9f02,2024-01-23_08h39.34.260,bars,2023.2.3,Win32,55.55555556,657b66ea316d21385b68909f,,,,,,,,,,,840.9426,841.9383,,,842.4376,842.6926,,20,20,,,,,,,,,,,,,,,,bars/008.png,bars/mask001.png,,,,,,,,,,,,1,2,,,,,,,4,3,5,3,,,,,,,,,,,841.9383,842.4376,842.6926,846.7713,space,4.0571,,846.7716,90,20,847.7688,847.7688,847.8003,,,,0,7,7,7,1,110,0,,,,,,,,
,,64c667536acb78c502d01089,65af55b0dc8991f4776b9f02,2024-01-23_08h39.34.260,bars,2023.2.3,Win32,55.55555556,657b66ea316d21385b68909f,,,,,,,,,,,847.801,848.8075,,,849.3031,849.5544,,92,92,,,,,,,,,,,,,,,,bars/012.png,bars/mask003.png,,,,,,,,,,,,1,1,,,,,,,2,5,1,6,,,,,,,,,,,848.8076,849.303,849.5545,853.9203,space,4.3505,,853.9204,2,77,854.9178,854.9179,854.9542,,,,0,8,8,8,1,90,15,,,,,,,,
,,64c667536acb78c502d01089,65af55b0dc8991f4776b9f02,2024-01-23_08h39.34.260,bars,2023.2.3,Win32,55.55555556,657b66ea316d21385b68909f,,,,,,,,,,,854.9548,855.9513,,,856.4389,856.6849,,1,181,,,,,,,,,,,,,,,,bars/001.png,bars/mask008.png,,,,,,,,,,,,0,1,,,,,,,4,3,4,4,,,,,,,,,,,855.9514,856.4388,856.685,858.3025,space,1.589,,858.3026,51,84,859.3016,859.3017,859.3033,,,,0,9,9,9,1,130,85,,,,,,,,
,,64c667536acb78c502d01089,65af55b0dc8991f4776b9f02,2024-01-23_08h39.34.260,bars,2023.2.3,Win32,55.55555556,657b66ea316d21385b68909f,,,,,,,,,,,859.304,860.2989,,,860.8013,861.0665,,36,216,,,,,,,,,,,,,,,,bars/039.png,bars/mask000.png,,,,,,,,,,,,0,1,,,,,,,2,5,3,5,,,,,,,,,,,860.299,860.8011,861.0666,864.5904,space,3.5062,,864.5906,41,69,865.5922,865.5923,865.6229,,,,0,10,10,10,1,175,105,,,,,,,,
,,64c667536acb78c502d01089,65af55b0dc8991f4776b9f02,2024-01-23_08h39.34.260,bars,2023.2.3,Win32,55.55555556,657b66ea316d21385b68909f,,,,,,,,,,,865.6236,866.6164,,,867.1169,867.3655,,168,-12,,,,,,,,,,,,,,,,bars/025.png,bars/mask002.png,,,,,,,,,,,,0,2,,,,,,,0,7,0,6,,,,,,,,,,,866.6165,867.1167,867.3656,871.3344,space,3.9466,,871.3345,63,52,872.3178,872.3179,872.3537,,,,0,11,11,11,1,105,40,,,,,,,,
,,64c667536acb78c502d01089,65af55b0dc8991f4776b9f02,2024-01-23_08h39.34.260,bars,2023.2.3,Win32,55.55555556,657b66ea316d21385b68909f,,,,,,,,,,,872.3544,873.3485,,,873.8371,874.0807,,0,0,,,,,,,,,,,,,,,,bars/035.png,bars/mask008.png,,,,,,,,,,,,0,1,,,,,,,0,9,0,8,,,,,,,,,,,873.3485,873.8369,874.0809,875.7168,space,1.6233,,875.7168,5,60,876.7157,876.7158,876.749,,,,0,12,12,12,1,175,60,,,,,,,,
,,64c667536acb78c502d01089,65af55b0dc8991f4776b9f02,2024-01-23_08h39.34.260,bars,2023.2.3,Win32,55.55555556,657b66ea316d21385b68909f,,,,,,,,,,,876.7498,877.7446,,,878.2536,878.512,,39,39,,,,,,,,,,,,,,,,bars/019.png,bars/mask000.png,,,,,,,,,,,,2,1,,,,,,,2,7,3,7,,,,,,,,,,,877.7447,878.2535,878.512,880.8267,space,2.2888,,880.8267,6,66,881.8193,881.8195,881.8212,,,,0,13,13,13,1,45,105,,,,,,,,
,,64c667536acb78c502d01089,65af55b0dc8991f4776b9f02,2024-01-23_08h39.34.260,bars,2023.2.3,Win32,55.55555556,657b66ea316d21385b68909f,,,,,,,,,,,881.8223,882.8152,,,883.315,883.5683,,156,156,,,,,,,,,,,,,,,,bars/035.png,bars/mask006.png,,,,,,,,,,,,0,1,,,,,,,0,9,0,10,,,,,,,,,,,882.8157,883.3148,883.5684,886.5955,space,3.0104,,886.5956,19,84,887.5881,887.5882,887.6188,,,,0,14,14,14,1,175,60,,,,,,,,
,,64c667536acb78c502d01089,65af55b0dc8991f4776b9f02,2024-01-23_08h39.34.260,bars,2023.2.3,Win32,55.55555556,657b66ea316d21385b68909f,,,,,,,,,,,887.6196,888.6149,,,889.1133,889.362,,88,88,,,,,,,,,,,,,,,,bars/026.png,bars/mask008.png,,,,,,,,,,,,6,2,,,,,,,0,7,1,7,,,,,,,,,,,888.615,889.1132,889.3621,903.2147,space,13.8326,,903.2148,53,3,904.2157,904.2159,904.2601,,,,0,15,15,15,1,35,85,,,,,,,,
,,64c667536acb78c502d01089,65af55b0dc8991f4776b9f02,2024-01-23_08h39.34.260,bars,2023.2.3,Win32,55.55555556,657b66ea316d21385b68909f,,,,,,,,,,,904.261,905.2724,,,905.769,906.0134,,70,70,,,,,,,,,,,,,,,,bars/035.png,bars/mask006.png,,,,,,,,,,,,4,2,,,,,,,0,9,2,6,,,,,,,,,,,905.2724,905.7689,906.0135,910.9083,space,4.8783,,910.9084,75,10,911.9091,911.9092,911.94,,,,0,16,16,16,1,175,60,,,,,,,,
,,64c667536acb78c502d01089,65af55b0dc8991f4776b9f02,2024-01-23_08h39.34.260,bars,2023.2.3,Win32,55.55555556,657b66ea316d21385b68909f,,,,,,,,,,,911.9407,912.9406,,,913.4464,913.693,,134,-46,,,,,,,,,,,,,,,,bars/024.png,bars/mask006.png,,,,,,,,,,,,1,1,,,,,,,2,7,2,7,,,,,,,,,,,912.9407,913.4463,913.693,920.6302,space,6.9213,,920.6305,14,36,921.6134,921.6135,921.6558,,,,0,17,17,17,1,120,170,,,,,,,,
,,64c667536acb78c502d01089,65af55b0dc8991f4776b9f02,2024-01-23_08h39.34.260,bars,2023.2.3,Win32,55.55555556,657b66ea316d21385b68909f,,,,,,,,,,,921.6567,922.6723,,,923.1607,923.4135,,92,92,,,,,,,,,,,,,,,,bars/026.png,bars/mask004.png,,,,,,,,,,,,3,2,,,,,,,0,5,0,4,,,,,,,,,,,922.6725,923.1606,923.4136,925.6314,space,2.1985,,925.6314,57,7,926.6281,926.6283,926.6615,,,,0,18,18,18,1,35,85,,,,,,,,
,,64c667536acb78c502d01089,65af55b0dc8991f4776b9f02,2024-01-23_08h39.34.260,bars,2023.2.3,Win32,55.55555556,657b66ea316d21385b68909f,,,,,,,,,,,926.6624,927.6573,,,928.1577,928.4197,,179,-1,,,,,,,,,,,,,,,,bars/047.png,bars/mask002.png,,,,,,,,,,,,0,1,,,,,,,2,7,1,8,,,,,,,,,,,927.6573,928.1576,928.4198,935.6802,space,7.2467,,935.6803,16,71,936.6849,936.6849,936.7204,,,,0,19,19,19,1,15,70,,,,,,,,
,,64c667536acb78c502d01089,65af55b0dc8991f4776b9f02,2024-01-23_08h39.34.260,bars,2023.2.3,Win32,55.55555556,657b66ea316d21385b68909f,,,,,,,,,,,936.7212,937.709,,,938.2062,938.4604,,76,76,,,,,,,,,,,,,,,,bars/038.png,bars/mask004.png,,,,,,,,,,,,4,2,,,,,,,0,5,0,5,,,,,,,,,,,937.709,938.2062,938.4604,939.1566,space,0.6735,,939.1566,89,6,940.1545,940.1546,940.1589,,,,0,20,20,20,1,165,70,,,,,,,,
,,64c667536acb78c502d01089,65af55b0dc8991f4776b9f02,2024-01-23_08h39.34.260,bars,2023.2.3,Win32,55.55555556,657b66ea316d21385b68909f,,,,,,,,,,,940.1596,941.1548,,,941.6547,941.9045,,69,69,,,,,,,,,,,,,,,,bars/002.png,bars/mask009.png,,,,,,,,,,,,2,2,,,,,,,2,3,2,4,,,,,,,,,,,941.1549,941.6546,941.9047,944.9251,space,3.003,,944.9252,61,16,945.9197,945.9198,945.9411,,,,0,21,21,21,1,130,85,,,,,,,,
,,64c667536acb78c502d01089,65af55b0dc8991f4776b9f02,2024-01-23_08h39.34.260,bars,2023.2.3,Win32,55.55555556,657b66ea316d21385b68909f,,,,,,,,,,,945.9417,946.9322,,,947.4355,947.6857,,15,15,,,,,,,,,,,,,,,,bars/026.png,bars/mask009.png,,,,,,,,,,,,1,1,,,,,,,4,5,3,4,,,,,,,,,,,946.9323,947.4354,947.6858,952.8709,space,5.1742,,952.871,20,70,953.8595,953.8595,953.8874,,,,0,22,22,22,1,35,85,,,,,,,,
,,64c667536acb78c502d01089,65af55b0dc8991f4776b9f02,2024-01-23_08h39.34.260,bars,2023.2.3,Win32,55.55555556,657b66ea316d21385b68909f,,,,,,,,,,,953.8879,954.8884,,,955.3819,955.6251,,162,162,,,,,,,,,,,,,,,,bars/024.png,bars/mask001.png,,,,,,,,,,,,1,2,,,,,,,6,3,5,2,,,,,,,,,,,954.8884,955.3819,955.6251,960.7032,space,5.0609,,960.7033,42,8,961.6992,961.6995,961.7218,,,,0,23,23,23,1,120,170,,,,,,,,
,,64c667536acb78c502d01089,65af55b0dc8991f4776b9f02,2024-01-23_08h39.34.260,bars,2023.2.3,Win32,55.55555556,657b66ea316d21385b68909f,,,,,,,,,,,961.7224,962.7227,,,963.2224,963.465,,149,149,,,,,,,,,,,,,,,,bars/037.png,bars/mask009.png,,,,,,,,,,,,4,1,,,,,,,4,1,4,3,,,,,,,,,,,962.7228,963.2222,963.465,965.8835,space,2.3975,,965.8836,1,44,966.8738,966.8739,966.8976,,,,0,24,24,24,1,150,105,,,,,,,,
,,64c667536acb78c502d01089,65af55b0dc8991f4776b9f02,2024-01-23_08h39.34.260,bars,2023.2.3,Win32,55.55555556,657b66ea316d21385b68909f,,,,,,,,,,,966.8982,967.8889,,,968.3834,968.6314,,9,9,,,,,,,,,,,,,,,,bars/036.png,bars/mask000.png,,,,,,,,,,,,0,2,,,,,,,2,0,1,0,,,,,,,,,,,967.889,968.3834,968.6315,971.4019,space,2.7561,,971.4019,44,11,972.3969,972.397,972.4215,,,,0,25,25,25,1,145,20,,,,,,,,
,,64c667536acb78c502d01089,65af55b0dc8991f4776b9f02,2024-01-23_08h39.34.260,bars,2023.2.3,Win32,55.55555556,657b66ea316d21385b68909f,,,,,,,,,,,972.4221,973.4211,,,973.9143,974.1634,,156,-24,,,,,,,,,,,,,,,,bars/028.png,bars/mask004.png,,,,,,,,,,,,0,2,,,,,,,0,0,1,1,,,,,,,,,,,973.4213,973.9142,974.1635,978.5025,space,4.3284,,978.5026,69,36,979.4956,979.4957,979.5163,,,,0,26,26,26,1,45,120,,,,,,,,
,,64c667536acb78c502d01089,65af55b0dc8991f4776b9f02,2024-01-23_08h39.34.260,bars,2023.2.3,Win32,55.55555556,657b66ea316d21385b68909f,,,,,,,,,,,979.5169,980.5153,,,981.0204,981.2666,,125,125,,,,,,,,,,,,,,,,bars/028.png,bars/mask009.png,,,,,,,,,,,,0,2,,,,,,,0,0,1,0,,,,,,,,,,,980.5154,981.0203,981.2666,998.9175,space,17.6299,,998.9176,80,5,999.9068,999.907,999.9348,,,,0,27,27,27,1,45,120,,,,,,,,
,,64c667536acb78c502d01089,65af55b0dc8991f4776b9f02,2024-01-23_08h39.34.260,bars,2023.2.3,Win32,55.55555556,657b66ea316d21385b68909f,,,,,,,,,,,999.9355,1000.9253,,,1001.4297,1001.6668,,143,143,,,,,,,,,,,,,,,,bars/016.png,bars/mask001.png,,,,,,,,,,,,0,2,,,,,,,0,0,0,0,,,,,,,,,,,1000.9254,1001.4295,1001.6668,1009.579,space,7.8991,,1009.5791,77,22,1010.5813,1010.5814,1010.6147,,,,0,28,28,28,1,40,165,,,,,,,,
,,64c667536acb78c502d01089,65af55b0dc8991f4776b9f02,2024-01-23_08h39.34.260,bars,2023.2.3,Win32,55.55555556,657b66ea316d21385b68909f,,,,,,,,,,,1010.6157,1011.6092,,,1012.1102,1012.3645,,147,-33,,,,,,,,,,,,,,,,bars/032.png,bars/mask001.png,,,,,,,,,,,,0,1,,,,,,,0,2,0,2,,,,,,,,,,,1011.6093,1012.1102,1012.3645,1024.7106,space,12.3347,,1024.7106,22,53,1025.7088,1025.7089,1025.7445,,,,0,29,29,29,1,125,20,,,,,,,,
,,64c667536acb78c502d01089,65af55b0dc8991f4776b9f02,2024-01-23_08h39.34.260,bars,2023.2.3,Win32,55.55555556,657b66ea316d21385b68909f,,,,,,,,,,,1025.7455,1026.7428,,,1027.2402,1027.4809,,158,158,,,,,,,,,,,,,,,,bars/043.png,bars/mask005.png,,,,,,,,,,,,0,2,,,,,,,2,4,3,3,,,,,,,,,,,1026.7429,1027.2402,1027.4809,1029.3269,space,1.8321,,1029.3271,52,28,1030.3035,1030.3036,1030.3349,,,,0,30,30,30,1,30,130,,,,,,,,
,,64c667536acb78c502d01089,65af55b0dc8991f4776b9f02,2024-01-23_08h39.34.260,bars,2023.2.3,Win32,55.55555556,657b66ea316d21385b68909f,,,,,,,,,,,1030.3359,1031.3393,,,1031.8441,1032.0886,,47,47,,,,,,,,,,,,,,,,bars/012.png,bars/mask002.png,,,,,,,,,,,,0,2,,,,,,,4,2,4,2,,,,,,,,,,,1031.3394,1031.844,1032.0887,1044.1206,space,12.0158,,1044.1207,43,32,1045.1271,1045.1272,1045.1573,,,,0,31,31,31,1,90,15,,,,,,,,
,,64c667536acb78c502d01089,65af55b0dc8991f4776b9f02,2024-01-23_08h39.34.260,bars,2023.2.3,Win32,55.55555556,657b66ea316d21385b68909f,,,,,,,,,,,1045.1581,1046.1546,,,1046.6546,1046.914,,115,-65,,,,,,,,,,,,,,,,bars/031.png,bars/mask001.png,,,,,,,,,,,,5,1,,,,,,,6,4,6,4,,,,,,,,,,,1046.1547,1046.6545,1046.914,1051.7603,space,4.8301,,1051.7604,5,80,1052.7538,1052.7544,1052.7898,,,,0,32,32,32,1,120,35,,,,,,,,
,,64c667536acb78c502d01089,65af55b0dc8991f4776b9f02,2024-01-23_08h39.34.260,bars,2023.2.3,Win32,55.55555556,657b66ea316d21385b68909f,,,,,,,,,,,1052.7905,1053.7875,,,1054.2877,1054.5363,,18,18,,,,,,,,,,,,,,,,bars/002.png,bars/mask004.png,,,,,,,,,,,,0,2,,,,,,,8,6,7,5,,,,,,,,,,,1053.7875,1054.2876,1054.5364,1061.4867,space,6.9335,,1061.4868,68,67,1062.466,1062.4661,1062.5008,,,,0,33,33,33,1,130,85,,,,,,,,
,,64c667536acb78c502d01089,65af55b0dc8991f4776b9f02,2024-01-23_08h39.34.260,bars,2023.2.3,Win32,55.55555556,657b66ea316d21385b68909f,,,,,,,,,,,1062.5019,1063.5014,,,1063.9906,1064.2352,,124,124,,,,,,,,,,,,,,,,bars/029.png,bars/mask002.png,,,,,,,,,,,,0,1,,,,,,,6,4,6,5,,,,,,,,,,,1063.5015,1063.9904,1064.2353,1069.967,space,5.7105,,1069.9672,34,79,1070.9675,1070.9676,1071.0012,,,,0,34,34,34,1,90,45,,,,,,,,
,,64c667536acb78c502d01089,65af55b0dc8991f4776b9f02,2024-01-23_08h39.34.260,bars,2023.2.3,Win32,55.55555556,657b66ea316d21385b68909f,,,,,,,,,,,1071.0021,1072.0032,,,1072.508,1072.7506,,126,-54,,,,,,,,,,,,,,,,bars/007.png,bars/mask006.png,,,,,,,,,,,,0,1,,,,,,,8,2,7,3,,,,,,,,,,,1072.0036,1072.5078,1072.7506,1077.538,space,4.7708,,1077.5381,49,71,1078.5339,1078.5344,1078.5643,,,,0,35,35,35,1,175,55,,,,,,,,
,,64c667536acb78c502d01089,65af55b0dc8991f4776b9f02,2024-01-23_08h39.34.260,bars,2023.2.3,Win32,55.55555556,657b66ea316d21385b68909f,,,,,,,,,,,1078.5651,1079.5712,,,1080.0661,1080.3188,,60,240,,,,,,,,,,,,,,,,bars/005.png,bars/mask007.png,,,,,,,,,,,,0,1,,,,,,,6,0,7,0,,,,,,,,,,,1079.5715,1080.066,1080.3189,1084.355,space,4.0243,,1084.3551,50,80,1085.3475,1085.3475,1085.3779,,,,0,36,36,36,1,10,140,,,,,,,,
,,64c667536acb78c502d01089,65af55b0dc8991f4776b9f02,2024-01-23_08h39.34.260,bars,2023.2.3,Win32,55.55555556,657b66ea316d21385b68909f,,,,,,,,,,,1085.3795,1086.3684,,,1086.8868,1087.1297,,147,-33,,,,,,,,,,,,,,,,bars/029.png,bars/mask009.png,,,,,,,,,,,,0,1,,,,,,,4,2,3,1,,,,,,,,,,,1086.3685,1086.8867,1087.1299,1092.5884,space,5.4329,,1092.5886,57,78,1093.5822,1093.5822,1093.6142,,,,0,37,37,37,1,90,45,,,,,,,,
,,64c667536acb78c502d01089,65af55b0dc8991f4776b9f02,2024-01-23_08h39.34.260,bars,2023.2.3,Win32,55.55555556,657b66ea316d21385b68909f,,,,,,,,,,,1093.6149,1094.6109,,,1095.1037,1095.3477,,94,94,,,,,,,,,,,,,,,,bars/024.png,bars/mask008.png,,,,,,,,,,,,0,1,,,,,,,2,4,1,4,,,,,,,,,,,1094.6109,1095.1036,1095.3477,1100.9157,space,5.5437,,1100.9159,26,76,1101.9182,1101.9183,1101.953,,,,0,38,38,38,1,120,170,,,,,,,,
,,64c667536acb78c502d01089,65af55b0dc8991f4776b9f02,2024-01-23_08h39.34.260,bars,2023.2.3,Win32,55.55555556,657b66ea316d21385b68909f,,,,,,,,,,,1101.9537,1102.9472,,,1103.4328,1103.685,,76,76,,,,,,,,,,,,,,,,bars/020.png,bars/mask003.png,,,,,,,,,,,,0,1,,,,,,,4,6,4,6,,,,,,,,,,,1102.9472,1103.4327,1103.6851,1104.299,space,0.6013,,1104.2991,39,86,1105.3028,1105.3028,1105.3044,,,,0,39,39,39,1,115,170,,,,,,,,
,,64c667536acb78c502d01089,65af55b0dc8991f4776b9f02,2024-01-23_08h39.34.260,bars,2023.2.3,Win32,55.55555556,657b66ea316d21385b68909f,,,,,,,,,,,1105.305,1106.305,,,1106.7996,1107.0455,,152,-28,,,,,,,,,,,,,,,,bars/043.png,bars/mask003.png,,,,,,,,,,,,1,2,,,,,,,2,4,2,2,,,,,,,,,,,1106.305,1106.7995,1107.0456,1112.474,space,5.4059,,1112.4741,58,22,1113.4782,1113.4783,1113.5116,,,,0,40,40,40,1,30,130,,,,,,,,
,,64c667536acb78c502d01089,65af55b0dc8991f4776b9f02,2024-01-23_08h39.34.260,bars,2023.2.3,Win32,55.55555556,657b66ea316d21385b68909f,,,,,,,,,,,1113.5126,1114.5162,,,1115.0104,1115.248,,4,4,,,,,,,,,,,,,,,,bars/016.png,bars/mask003.png,,,,,,,,,,,,1,2,,,,,,,4,2,7,2,,,,,,,,,,,1114.5162,1115.0103,1115.2481,1123.3082,space,8.0467,,1123.3083,36,19,1124.3094,1124.3094,1124.3434,,,,0,41,41,41,1,40,165,,,,,,,,
,,64c667536acb78c502d01089,65af55b0dc8991f4776b9f02,2024-01-23_08h39.34.260,bars,2023.2.3,Win32,55.55555556,657b66ea316d21385b68909f,,,,,,,,,,,1124.3441,1125.3433,,,1125.8446,1126.0913,,109,109,,,,,,,,,,,,,,,,bars/028.png,bars/mask000.png,,,,,,,,,,,,3,2,,,,,,,6,4,7,5,,,,,,,,,,,1125.3434,1125.8445,1126.0914,1127.3448,space,1.2303,,1127.3449,64,11,1128.3407,1128.3407,1128.3427,,,,0,42,42,42,1,45,120,,,,,,,,
,,64c667536acb78c502d01089,65af55b0dc8991f4776b9f02,2024-01-23_08h39.34.260,bars,2023.2.3,Win32,55.55555556,657b66ea316d21385b68909f,,,,,,,,,,,1128.3438,1129.3442,,,1129.8418,1130.0904,,76,76,,,,,,,,,,,,,,,,bars/022.png,bars/mask008.png,,,,,,,,,,,,1,1,,,,,,,4,2,4,3,,,,,,,,,,,1129.3443,1129.8417,1130.0905,1132.2945,space,2.1922,,1132.2946,19,56,1133.292,1133.292,1133.3257,,,,0,43,43,43,1,95,20,,,,,,,,
,,64c667536acb78c502d01089,65af55b0dc8991f4776b9f02,2024-01-23_08h39.34.260,bars,2023.2.3,Win32,55.55555556,657b66ea316d21385b68909f,,,,,,,,,,,1133.3265,1134.3248,,,1134.8288,1135.0784,,159,159,,,,,,,,,,,,,,,,bars/023.png,bars/mask003.png,,,,,,,,,,,,0,1,,,,,,,6,0,5,1,,,,,,,,,,,1134.3248,1134.8287,1135.0786,1136.9577,space,1.8569,,1136.9579,41,44,1137.955,1137.955,1137.9572,,,,0,44,44,44,1,20,115,,,,,,,,
,,64c667536acb78c502d01089,65af55b0dc8991f4776b9f02,2024-01-23_08h39.34.260,bars,2023.2.3,Win32,55.55555556,657b66ea316d21385b68909f,,,,,,,,,,,1137.9579,1138.9535,,,1139.4566,1139.6941,,152,152,,,,,,,,,,,,,,,,bars/037.png,bars/mask000.png,,,,,,,,,,,,3,1,,,,,,,4,0,3,0,,,,,,,,,,,1138.9536,1139.4564,1139.6942,1140.5798,space,0.8739,,1140.5799,2,47,1141.5771,1141.5773,1141.5789,,,,0,45,45,45,1,150,105,,,,,,,,
,,64c667536acb78c502d01089,65af55b0dc8991f4776b9f02,2024-01-23_08h39.34.260,bars,2023.2.3,Win32,55.55555556,657b66ea316d21385b68909f,,,,,,,,,,,1141.5796,1142.5725,,,1143.0534,1143.3057,,11,11,,,,,,,,,,,,,,,,bars/005.png,bars/mask003.png,,,,,,,,,,,,6,1,,,,,,,6,2,6,1,,,,,,,,,,,1142.5725,1143.0534,1143.3057,1144.3958,space,1.0783,,1144.3959,1,51,1145.3932,1145.3932,1145.3947,,,,0,46,46,46,1,10,140,,,,,,,,
,,64c667536acb78c502d01089,65af55b0dc8991f4776b9f02,2024-01-23_08h39.34.260,bars,2023.2.3,Win32,55.55555556,657b66ea316d21385b68909f,,,,,,,,,,,1145.3954,1146.3878,,,1146.8778,1147.1274,,114,114,,,,,,,,,,,,,,,,bars/004.png,bars/mask006.png,,,,,,,,,,,,3,2,,,,,,,4,4,3,5,,,,,,,,,,,1146.3878,1146.8778,1147.1275,1147.6323,space,0.4855,,1147.6324,89,11,1148.6213,1148.6214,1148.6262,,,,0,47,47,47,1,25,125,,,,,,,,
,,64c667536acb78c502d01089,65af55b0dc8991f4776b9f02,2024-01-23_08h39.34.260,bars,2023.2.3,Win32,55.55555556,657b66ea316d21385b68909f,,,,,,,,,,,1148.6269,1149.6219,,,1150.1103,1150.3597,,88,88,,,,,,,,,,,,,,,,bars/022.png,bars/mask009.png,,,,,,,,,,,,2,1,,,,,,,2,2,2,3,,,,,,,,,,,1149.6221,1150.1102,1150.3599,1151.2089,space,0.8367,,1151.2089,7,68,1152.2055,1152.206,1152.2109,,,,0,48,48,48,1,95,20,,,,,,,,
,,64c667536acb78c502d01089,65af55b0dc8991f4776b9f02,2024-01-23_08h39.34.260,bars,2023.2.3,Win32,55.55555556,657b66ea316d21385b68909f,,,,,,,,,,,1152.2117,1153.2047,,,1153.6926,1153.9353,,92,92,,,,,,,,,,,,,,,,bars/019.png,bars/mask007.png,,,,,,,,,,,,0,2,,,,,,,0,0,0,0,,,,,,,,,,,1153.2047,1153.6926,1153.9354,1154.0977,space,0.1288,,1154.0978,47,13,1155.103,1155.1031,1155.1095,,,,0,49,49,49,1,45,105,,,,,,,,
,,64c667536acb78c502d01089,65af55b0dc8991f4776b9f02,2024-01-23_08h39.34.260,bars,2023.2.3,Win32,55.55555556,657b66ea316d21385b68909f,,,,,,,,,,,,,,,,,,,,,,,,,,,,,,,,,,,,,,,,,,,,,,,,,,,,,,,,,,,,,,,,,,,,,,,,,,,,,,,,,,,,,,,,,,,,,1155.11,1215.111,0,1,1,4,1,sequence_tables/blk014.csv
,,64c667536acb78c502d01089,65af55b0dc8991f4776b9f02,2024-01-23_08h39.34.260,bars,2023.2.3,Win32,55.55555556,657b66ea316d21385b68909f,,,,,,,,,,,1220.0788,1221.0306,,,1221.5362,1221.7667,,42,42,,,,,,,,,,,,,,,,bars/030.png,bars/mask007.png,,,,,,,,,,,,1,2,,,,,,,3,6,4,4,,,,,,1215.1425,1220.0303,space,4.8621,,1221.0308,1221.5362,1221.7667,1223.6635,space,1.8826,,1223.6636,82,23,1224.6638,1224.664,1224.6657,,,,0,0,0,0,1,140,65,,,,,,,,
,,64c667536acb78c502d01089,65af55b0dc8991f4776b9f02,2024-01-23_08h39.34.260,bars,2023.2.3,Win32,55.55555556,657b66ea316d21385b68909f,,,,,,,,,,,1224.6668,1225.6658,,,1226.1559,1226.3904,,55,55,,,,,,,,,,,,,,,,bars/034.png,bars/mask005.png,,,,,,,,,,,,1,2,,,,,,,1,4,1,2,,,,,,,,,,,1225.6659,1226.1558,1226.3904,1227.2061,space,0.7843,,1227.2062,70,10,1228.1972,1228.1974,1228.1993,,,,0,1,1,1,1,125,65,,,,,,,,
,,64c667536acb78c502d01089,65af55b0dc8991f4776b9f02,2024-01-23_08h39.34.260,bars,2023.2.3,Win32,55.55555556,657b66ea316d21385b68909f,,,,,,,,,,,1228.2003,1229.1927,,,1229.693,1229.942,,31,31,,,,,,,,,,,,,,,,bars/039.png,bars/mask003.png,,,,,,,,,,,,0,1,,,,,,,0,2,0,3,,,,,,,,,,,1229.1928,1229.6927,1229.942,1230.9598,space,1.0017,,1230.9599,36,74,1231.9566,1231.9566,1231.9619,,,,0,2,2,2,1,175,105,,,,,,,,
,,64c667536acb78c502d01089,65af55b0dc8991f4776b9f02,2024-01-23_08h39.34.260,bars,2023.2.3,Win32,55.55555556,657b66ea316d21385b68909f,,,,,,,,,,,1231.9627,1232.9725,,,1233.4644,1233.6994,,119,119,,,,,,,,,,,,,,,,bars/012.png,bars/mask001.png,,,,,,,,,,,,0,1,,,,,,,2,0,1,1,,,,,,,,,,,1232.9725,1233.4643,1233.6994,1234.8302,space,1.1188,,1234.8303,29,76,1235.8261,1235.8261,1235.8276,,,,0,3,3,3,1,90,15,,,,,,,,
,,64c667536acb78c502d01089,65af55b0dc8991f4776b9f02,2024-01-23_08h39.34.260,bars,2023.2.3,Win32,55.55555556,657b66ea316d21385b68909f,,,,,,,,,,,1235.8284,1236.8246,,,1237.3265,1237.5699,,22,22,,,,,,,,,,,,,,,,bars/048.png,bars/mask001.png,,,,,,,,,,,,0,2,,,,,,,0,0,0,1,,,,,,,,,,,1236.8248,1237.3264,1237.5699,1238.1769,space,0.561,,1238.177,28,27,1239.172,1239.1722,1239.1797,,,,0,4,4,4,1,50,175,,,,,,,,
,,64c667536acb78c502d01089,65af55b0dc8991f4776b9f02,2024-01-23_08h39.34.260,bars,2023.2.3,Win32,55.55555556,657b66ea316d21385b68909f,,,,,,,,,,,1239.1807,1240.1764,,,1240.6902,1240.9456,,103,103,,,,,,,,,,,,,,,,bars/037.png,bars/mask005.png,,,,,,,,,,,,0,2,,,,,,,0,0,0,0,,,,,,,,,,,1240.1768,1240.6902,1240.9457,1243.0775,space,2.1118,,1243.0776,47,2,1244.0688,1244.069,1244.096,,,,0,5,5,5,1,150,105,,,,,,,,
,,64c667536acb78c502d01089,65af55b0dc8991f4776b9f02,2024-01-23_08h39.34.260,bars,2023.2.3,Win32,55.55555556,657b66ea316d21385b68909f,,,,,,,,,,,1244.0967,1245.0894,,,1245.5949,1245.8402,,130,130,,,,,,,,,,,,,,,,bars/020.png,bars/mask007.png,,,,,,,,,,,,1,1,,,,,,,0,2,2,3,,,,,,,,,,,1245.0895,1245.5947,1245.8403,1247.1126,space,1.2569,,1247.1127,15,40,1248.1138,1248.1139,1248.1209,,,,0,6,6,6,1,115,170,,,,,,,,
,,64c667536acb78c502d01089,65af55b0dc8991f4776b9f02,2024-01-23_08h39.34.260,bars,2023.2.3,Win32,55.55555556,657b66ea316d21385b68909f,,,,,,,,,,,1248.1218,1249.1254,,,1249.6239,1249.8613,,145,145,,,,,,,,,,,,,,,,bars/010.png,bars/mask006.png,,,,,,,,,,,,0,1,,,,,,,2,0,1,0,,,,,,,,,,,1249.1254,1249.6239,1249.8613,1250.4458,space,0.5693,,1250.4458,20,90,1251.4442,1251.4443,1251.4458,,,,0,7,7,7,1,165,55,,,,,,,,
,,64c667536acb78c502d01089,65af55b0dc8991f4776b9f02,2024-01-23_08h39.34.260,bars,2023.2.3,Win32,55.55555556,657b66ea316d21385b68909f,,,,,,,,,,,1251.4464,1252.4413,,,1252.9539,1253.1964,,59,59,,,,,,,,,,,,,,,,bars/037.png,bars/mask000.png,,,,,,,,,,,,0,2,,,,,,,4,2,4,1,,,,,,,,,,,1252.4413,1252.9538,1253.1965,1253.9243,space,0.7115,,1253.9244,89,46,1256.1462,1256.1464,1256.1801,,,,0,8,8,8,1,150,105,,,,,,,,
,,64c667536acb78c502d01089,65af55b0dc8991f4776b9f02,2024-01-23_08h39.34.260,bars,2023.2.3,Win32,55.55555556,657b66ea316d21385b68909f,,,,,,,,,,,1256.1809,1256.2035,,,1256.2053,1256.2073,,12,12,,,,,,,,,,,,,,,,bars/034.png,bars/mask003.png,,,,,,,,,,,,0,2,,,,,,,2,0,2,0,,,,,,,,,,,1256.2036,1256.2052,1256.2074,1256.8899,space,0.6694,,1256.8899,67,53,1257.8792,1257.8793,1257.8815,,,,0,9,9,9,1,125,65,,,,,,,,
,,64c667536acb78c502d01089,65af55b0dc8991f4776b9f02,2024-01-23_08h39.34.260,bars,2023.2.3,Win32,55.55555556,657b66ea316d21385b68909f,,,,,,,,,,,1257.8823,1258.8715,,,1259.3699,1259.6194,,27,27,,,,,,,,,,,,,,,,bars/017.png,bars/mask008.png,,,,,,,,,,,,0,2,,,,,,,4,0,4,0,,,,,,,,,,,1258.8716,1259.3695,1259.6195,1260.2066,space,0.5576,,1260.2068,62,18,1261.2071,1261.2073,1261.2087,,,,0,10,10,10,1,145,45,,,,,,,,
,,64c667536acb78c502d01089,65af55b0dc8991f4776b9f02,2024-01-23_08h39.34.260,bars,2023.2.3,Win32,55.55555556,657b66ea316d21385b68909f,,,,,,,,,,,1261.2095,1262.2087,,,1262.6876,1262.9261,,95,95,,,,,,,,,,,,,,,,bars/027.png,bars/mask008.png,,,,,,,,,,,,3,1,,,,,,,6,0,6,0,,,,,,,,,,,1262.2088,1262.6875,1262.9261,1263.6963,space,0.6996,,1263.6964,15,45,1264.6905,1264.6905,1264.6958,,,,0,11,11,11,1,110,50,,,,,,,,
,,64c667536acb78c502d01089,65af55b0dc8991f4776b9f02,2024-01-23_08h39.34.260,bars,2023.2.3,Win32,55.55555556,657b66ea316d21385b68909f,,,,,,,,,,,1264.6965,1265.7016,,,1266.2005,1266.4508,,47,47,,,,,,,,,,,,,,,,bars/017.png,bars/mask007.png,,,,,,,,,,,,1,2,,,,,,,4,0,5,1,,,,,,,,,,,1265.7017,1266.2005,1266.4513,1266.9931,space,0.5298,,1266.9932,82,2,1267.9915,1267.9916,1268.0022,,,,0,12,12,12,1,145,45,,,,,,,,
,,64c667536acb78c502d01089,65af55b0dc8991f4776b9f02,2024-01-23_08h39.34.260,bars,2023.2.3,Win32,55.55555556,657b66ea316d21385b68909f,,,,,,,,,,,1268.003,1269.0165,,,1269.5159,1269.7531,,89,89,,,,,,,,,,,,,,,,bars/048.png,bars/mask004.png,,,,,,,,,,,,0,1,,,,,,,6,0,6,0,,,,,,,,,,,1269.0165,1269.5158,1269.7531,1270.4254,space,0.6522,,1270.4255,39,86,1271.4362,1271.4363,1271.4491,,,,0,13,13,13,1,50,175,,,,,,,,
,,64c667536acb78c502d01089,65af55b0dc8991f4776b9f02,2024-01-23_08h39.34.260,bars,2023.2.3,Win32,55.55555556,657b66ea316d21385b68909f,,,,,,,,,,,1271.4502,1272.4517,,,1272.952,1273.2045,,112,112,,,,,,,,,,,,,,,,bars/014.png,bars/mask004.png,,,,,,,,,,,,0,1,,,,,,,4,0,4,0,,,,,,,,,,,1272.4518,1272.9516,1273.2046,1273.8419,space,0.6151,,1273.8421,32,68,1274.8332,1274.8333,1274.8356,,,,0,14,14,14,1,80,0,,,,,,,,
,,64c667536acb78c502d01089,65af55b0dc8991f4776b9f02,2024-01-23_08h39.34.260,bars,2023.2.3,Win32,55.55555556,657b66ea316d21385b68909f,,,,,,,,,,,1274.8364,1275.8227,,,1276.3153,1276.5676,,59,59,,,,,,,,,,,,,,,,bars/014.png,bars/mask007.png,,,,,,,,,,,,0,1,,,,,,,2,2,1,3,,,,,,,,,,,1275.8227,1276.3152,1276.5678,1277.4653,space,0.8783,,1277.4654,21,59,1278.4754,1278.4755,1278.477,,,,0,15,15,15,1,80,0,,,,,,,,
,,64c667536acb78c502d01089,65af55b0dc8991f4776b9f02,2024-01-23_08h39.34.260,bars,2023.2.3,Win32,55.55555556,657b66ea316d21385b68909f,,,,,,,,,,,1278.4822,1279.4892,,,1279.9871,1280.2331,,141,141,,,,,,,,,,,,,,,,bars/042.png,bars/mask005.png,,,,,,,,,,,,4,1,,,,,,,4,4,5,5,,,,,,,,,,,1279.4896,1279.987,1280.2332,1281.1285,space,0.8683,,1281.1285,4,66,1282.1088,1282.1089,1282.111,,,,0,16,16,16,1,145,75,,,,,,,,
,,64c667536acb78c502d01089,65af55b0dc8991f4776b9f02,2024-01-23_08h39.34.260,bars,2023.2.3,Win32,55.55555556,657b66ea316d21385b68909f,,,,,,,,,,,1282.1117,1283.1026,,,1283.6027,1283.8587,,62,62,,,,,,,,,,,,,,,,bars/046.png,bars/mask006.png,,,,,,,,,,,,1,2,,,,,,,6,6,4,6,,,,,,,,,,,1283.1028,1283.6025,1283.8589,1284.5563,space,0.6799,,1284.5563,87,23,1285.5627,1285.5628,1285.5698,,,,0,17,17,17,1,155,85,,,,,,,,
,,64c667536acb78c502d01089,65af55b0dc8991f4776b9f02,2024-01-23_08h39.34.260,bars,2023.2.3,Win32,55.55555556,657b66ea316d21385b68909f,,,,,,,,,,,1285.5705,1286.571,,,1287.0665,1287.3159,,111,111,,,,,,,,,,,,,,,,bars/046.png,bars/mask009.png,,,,,,,,,,,,1,2,,,,,,,8,4,9,4,,,,,,,,,,,1286.5711,1287.0664,1287.316,1289.6191,space,2.2928,,1289.6192,44,26,1290.6131,1290.6132,1290.641,,,,0,18,18,18,1,155,85,,,,,,,,
,,64c667536acb78c502d01089,65af55b0dc8991f4776b9f02,2024-01-23_08h39.34.260,bars,2023.2.3,Win32,55.55555556,657b66ea316d21385b68909f,,,,,,,,,,,1290.6415,1291.6445,,,1292.1366,1292.3836,,6,6,,,,,,,,,,,,,,,,bars/019.png,bars/mask008.png,,,,,,,,,,,,0,1,,,,,,,6,6,6,7,,,,,,,,,,,1291.6446,1292.1363,1292.3837,1293.0173,space,0.6137,,1293.0174,39,81,1294.0193,1294.0195,1294.0236,,,,0,19,19,19,1,45,105,,,,,,,,
,,64c667536acb78c502d01089,65af55b0dc8991f4776b9f02,2024-01-23_08h39.34.260,bars,2023.2.3,Win32,55.55555556,657b66ea316d21385b68909f,,,,,,,,,,,1294.0249,1295.0558,,,1295.5295,1295.783,,170,170,,,,,,,,,,,,,,,,bars/007.png,bars/mask003.png,,,,,,,,,,,,3,1,,,,,,,4,8,4,6,,,,,,,,,,,1295.0558,1295.5295,1295.783,1295.9665,space,0.1639,,1295.9665,5,65,1296.9659,1296.9659,1296.9675,,,,0,20,20,20,1,175,55,,,,,,,,
,,64c667536acb78c502d01089,65af55b0dc8991f4776b9f02,2024-01-23_08h39.34.260,bars,2023.2.3,Win32,55.55555556,657b66ea316d21385b68909f,,,,,,,,,,,1296.9681,1297.9453,,,1298.4481,1298.6974,,128,128,,,,,,,,,,,,,,,,bars/020.png,bars/mask008.png,,,,,,,,,,,,1,1,,,,,,,2,10,2,10,,,,,,,,,,,1297.9454,1298.4479,1298.6974,1299.2451,space,0.5211,,1299.2453,13,42,1300.2539,1300.2539,1300.2556,,,,0,21,21,21,1,115,170,,,,,,,,
,,64c667536acb78c502d01089,65af55b0dc8991f4776b9f02,2024-01-23_08h39.34.260,bars,2023.2.3,Win32,55.55555556,657b66ea316d21385b68909f,,,,,,,,,,,1300.2568,1301.2514,,,1301.7493,1301.9974,,136,136,,,,,,,,,,,,,,,,bars/024.png,bars/mask007.png,,,,,,,,,,,,0,1,,,,,,,0,8,0,8,,,,,,,,,,,1301.2514,1301.7493,1301.9975,1302.8307,space,0.818,,1302.8308,16,34,1303.8368,1303.8369,1303.8384,,,,0,22,22,22,1,120,170,,,,,,,,
,,64c667536acb78c502d01089,65af55b0dc8991f4776b9f02,2024-01-23_08h39.34.260,bars,2023.2.3,Win32,55.55555556,657b66ea316d21385b68909f,,,,,,,,,,,1303.8391,1304.8275,,,1305.3304,1305.5809,,127,127,,,,,,,,,,,,,,,,bars/037.png,bars/mask005.png,,,,,,,,,,,,3,2,,,,,,,0,10,0,10,,,,,,,,,,,1304.8275,1305.3302,1305.581,1306.4524,space,0.848,,1306.4524,23,22,1307.4464,1307.4464,1307.4507,,,,0,23,23,23,1,150,105,,,,,,,,
,,64c667536acb78c502d01089,65af55b0dc8991f4776b9f02,2024-01-23_08h39.34.260,bars,2023.2.3,Win32,55.55555556,657b66ea316d21385b68909f,,,,,,,,,,,1307.4515,1308.4475,,,1308.9464,1309.1947,,71,71,,,,,,,,,,,,,,,,bars/023.png,bars/mask001.png,,,,,,,,,,,,0,2,,,,,,,0,10,0,10,,,,,,,,,,,1308.4476,1308.9459,1309.1947,1309.9,space,0.686,,1309.9001,51,44,1310.8946,1310.8946,1310.8967,,,,0,24,24,24,1,20,115,,,,,,,,
,,64c667536acb78c502d01089,65af55b0dc8991f4776b9f02,2024-01-23_08h39.34.260,bars,2023.2.3,Win32,55.55555556,657b66ea316d21385b68909f,,,,,,,,,,,1310.898,1311.898,,,1312.4099,1312.6497,,65,65,,,,,,,,,,,,,,,,bars/030.png,bars/mask002.png,,,,,,,,,,,,7,2,,,,,,,2,8,3,7,,,,,,,,,,,1311.8981,1312.4098,1312.6498,1314.418,space,1.7559,,1314.418,75,0,1315.4169,1315.417,1315.4508,,,,0,25,25,25,1,140,65,,,,,,,,
,,64c667536acb78c502d01089,65af55b0dc8991f4776b9f02,2024-01-23_08h39.34.260,bars,2023.2.3,Win32,55.55555556,657b66ea316d21385b68909f,,,,,,,,,,,1315.4516,1316.4451,,,1316.9308,1317.1777,,169,169,,,,,,,,,,,,,,,,bars/025.png,bars/mask006.png,,,,,,,,,,,,0,2,,,,,,,0,6,0,6,,,,,,,,,,,1316.4451,1316.9308,1317.1778,1317.8673,space,0.6675,,1317.8674,64,51,1318.8612,1318.8612,1318.8639,,,,0,26,26,26,1,105,40,,,,,,,,
,,64c667536acb78c502d01089,65af55b0dc8991f4776b9f02,2024-01-23_08h39.34.260,bars,2023.2.3,Win32,55.55555556,657b66ea316d21385b68909f,,,,,,,,,,,1318.8647,1319.8332,,,1320.3373,1320.5832,,49,49,,,,,,,,,,,,,,,,bars/012.png,bars/mask003.png,,,,,,,,,,,,0,2,,,,,,,2,8,1,6,,,,,,,,,,,1319.8334,1320.3372,1320.5832,1325.56,space,4.9604,,1325.5601,41,34,1326.5626,1326.5627,1326.5924,,,,0,27,27,27,1,90,15,,,,,,,,
,,64c667536acb78c502d01089,65af55b0dc8991f4776b9f02,2024-01-23_08h39.34.260,bars,2023.2.3,Win32,55.55555556,657b66ea316d21385b68909f,,,,,,,,,,,1326.5931,1327.5823,,,1328.1248,1328.3353,,85,85,,,,,,,,,,,,,,,,bars/001.png,bars/mask000.png,,,,,,,,,,,,5,2,,,,,,,4,6,3,5,,,,,,,,,,,1327.5824,1328.1247,1328.3353,1329.7112,space,1.3308,,1329.7112,45,0,1330.7147,1330.7149,1330.7465,,,,0,28,28,28,1,130,85,,,,,,,,
,,64c667536acb78c502d01089,65af55b0dc8991f4776b9f02,2024-01-23_08h39.34.260,bars,2023.2.3,Win32,55.55555556,657b66ea316d21385b68909f,,,,,,,,,,,1330.7471,1331.7465,,,1332.248,1332.5063,,51,51,,,,,,,,,,,,,,,,bars/029.png,bars/mask004.png,,,,,,,,,,,,6,2,,,,,,,2,8,2,7,,,,,,,,,,,1331.7466,1332.248,1332.5063,1333.7216,space,1.1937,,1333.7218,39,6,1334.7085,1334.7087,1334.7374,,,,0,29,29,29,1,90,45,,,,,,,,
,,64c667536acb78c502d01089,65af55b0dc8991f4776b9f02,2024-01-23_08h39.34.260,bars,2023.2.3,Win32,55.55555556,657b66ea316d21385b68909f,,,,,,,,,,,1334.7389,1335.743,,,1336.2313,1336.4753,,102,102,,,,,,,,,,,,,,,,bars/007.png,bars/mask009.png,,,,,,,,,,,,0,2,,,,,,,0,10,1,10,,,,,,,,,,,1335.7432,1336.2312,1336.4754,1337.3936,space,0.9052,,1337.3938,73,47,1338.4004,1338.4005,1338.4028,,,,0,30,30,30,1,175,55,,,,,,,,
,,64c667536acb78c502d01089,65af55b0dc8991f4776b9f02,2024-01-23_08h39.34.260,bars,2023.2.3,Win32,55.55555556,657b66ea316d21385b68909f,,,,,,,,,,,1338.4034,1339.3935,,,1339.8723,1340.1266,,137,137,,,,,,,,,,,,,,,,bars/010.png,bars/mask005.png,,,,,,,,,,,,0,1,,,,,,,2,8,1,7,,,,,,,,,,,1339.3936,1339.8722,1340.1266,1340.4819,space,0.3406,,1340.4821,28,82,1341.4639,1341.464,1341.4687,,,,0,31,31,31,1,165,55,,,,,,,,
,,64c667536acb78c502d01089,65af55b0dc8991f4776b9f02,2024-01-23_08h39.34.260,bars,2023.2.3,Win32,55.55555556,657b66ea316d21385b68909f,,,,,,,,,,,1341.4695,1342.4604,,,1342.9577,1343.1964,,88,88,,,,,,,,,,,,,,,,bars/027.png,bars/mask000.png,,,,,,,,,,,,0,1,,,,,,,0,6,0,6,,,,,,,,,,,1342.4605,1342.9577,1343.1964,1343.8164,space,0.6058,,1343.8165,22,38,1344.8045,1344.8046,1344.8061,,,,0,32,32,32,1,110,50,,,,,,,,
,,64c667536acb78c502d01089,65af55b0dc8991f4776b9f02,2024-01-23_08h39.34.260,bars,2023.2.3,Win32,55.55555556,657b66ea316d21385b68909f,,,,,,,,,,,1344.8068,1345.8089,,,1346.3077,1346.5572,,78,78,,,,,,,,,,,,,,,,bars/032.png,bars/mask000.png,,,,,,,,,,,,0,1,,,,,,,2,8,4,8,,,,,,,,,,,1345.809,1346.3074,1346.5573,1347.7281,space,1.158,,1347.7283,47,58,1348.723,1348.723,1348.7256,,,,0,33,33,33,1,125,20,,,,,,,,
,,64c667536acb78c502d01089,65af55b0dc8991f4776b9f02,2024-01-23_08h39.34.260,bars,2023.2.3,Win32,55.55555556,657b66ea316d21385b68909f,,,,,,,,,,,1348.7264,1349.7354,,,1350.2427,1350.4912,,61,61,,,,,,,,,,,,,,,,bars/035.png,bars/mask004.png,,,,,,,,,,,,10,2,,,,,,,0,10,0,10,,,,,,,,,,,1349.7355,1350.2427,1350.4914,1353.1586,space,2.6521,,1353.1587,66,1,1354.1605,1354.1605,1354.1937,,,,0,34,34,34,1,175,60,,,,,,,,
,,64c667536acb78c502d01089,65af55b0dc8991f4776b9f02,2024-01-23_08h39.34.260,bars,2023.2.3,Win32,55.55555556,657b66ea316d21385b68909f,,,,,,,,,,,1354.1945,1355.1944,,,1355.6901,1355.9352,,146,146,,,,,,,,,,,,,,,,bars/013.png,bars/mask009.png,,,,,,,,,,,,0,2,,,,,,,0,10,0,8,,,,,,,,,,,1355.1944,1355.69,1355.9354,1356.1952,space,0.2357,,1356.1953,71,44,1357.188,1357.1881,1357.1903,,,,0,35,35,35,1,75,10,,,,,,,,
,,64c667536acb78c502d01089,65af55b0dc8991f4776b9f02,2024-01-23_08h39.34.260,bars,2023.2.3,Win32,55.55555556,657b66ea316d21385b68909f,,,,,,,,,,,1357.1911,1358.1892,,,1358.6944,1358.9404,,140,140,,,,,,,,,,,,,,,,bars/048.png,bars/mask000.png,,,,,,,,,,,,0,2,,,,,,,0,10,0,9,,,,,,,,,,,1358.1893,1358.6944,1358.9407,1359.6192,space,0.6577,,1359.6192,90,35,1360.6203,1360.6204,1360.6225,,,,0,36,36,36,1,50,175,,,,,,,,
,,64c667536acb78c502d01089,65af55b0dc8991f4776b9f02,2024-01-23_08h39.34.260,bars,2023.2.3,Win32,55.55555556,657b66ea316d21385b68909f,,,,,,,,,,,1360.6234,1361.6141,,,1362.1022,1362.3599,,123,123,,,,,,,,,,,,,,,,bars/032.png,bars/mask006.png,,,,,,,,,,,,2,1,,,,,,,2,8,2,8,,,,,,,,,,,1361.6142,1362.102,1362.36,1364.8963,space,2.5231,,1364.8965,2,77,1365.8889,1365.889,1365.9213,,,,0,37,37,37,1,125,20,,,,,,,,
,,64c667536acb78c502d01089,65af55b0dc8991f4776b9f02,2024-01-23_08h39.34.260,bars,2023.2.3,Win32,55.55555556,657b66ea316d21385b68909f,,,,,,,,,,,1365.922,1366.9325,,,1367.4232,1367.6686,,112,112,,,,,,,,,,,,,,,,bars/048.png,bars/mask000.png,,,,,,,,,,,,0,1,,,,,,,0,6,0,7,,,,,,,,,,,1366.9325,1367.4232,1367.6686,1368.4389,space,0.7463,,1368.439,62,63,1369.4393,1369.4394,1369.4414,,,,0,38,38,38,1,50,175,,,,,,,,
,,64c667536acb78c502d01089,65af55b0dc8991f4776b9f02,2024-01-23_08h39.34.260,bars,2023.2.3,Win32,55.55555556,657b66ea316d21385b68909f,,,,,,,,,,,1369.4422,1370.438,,,1370.9393,1371.1866,,146,146,,,,,,,,,,,,,,,,bars/046.png,bars/mask006.png,,,,,,,,,,,,1,1,,,,,,,0,4,1,3,,,,,,,,,,,1370.438,1370.9392,1371.1867,1372.8563,space,1.6457,,1372.8568,9,61,1373.8358,1373.8358,1373.864,,,,0,39,39,39,1,155,85,,,,,,,,
,,64c667536acb78c502d01089,65af55b0dc8991f4776b9f02,2024-01-23_08h39.34.260,bars,2023.2.3,Win32,55.55555556,657b66ea316d21385b68909f,,,,,,,,,,,1373.8649,1374.8531,,,1375.3485,1375.586,,52,52,,,,,,,,,,,,,,,,bars/009.png,bars/mask009.png,,,,,,,,,,,,0,1,,,,,,,0,6,1,6,,,,,,,,,,,1374.8531,1375.3484,1375.586,1377.4556,space,1.8542,,1377.4557,37,53,1378.4648,1378.4649,1378.4669,,,,0,40,40,40,1,15,105,,,,,,,,
,,64c667536acb78c502d01089,65af55b0dc8991f4776b9f02,2024-01-23_08h39.34.260,bars,2023.2.3,Win32,55.55555556,657b66ea316d21385b68909f,,,,,,,,,,,1378.4676,1379.4701,,,1379.9748,1380.2177,,151,-29,,,,,,,,,,,,,,,,bars/040.png,bars/mask001.png,,,,,,,,,,,,1,1,,,,,,,2,4,2,3,,,,,,,,,,,1379.4701,1379.9748,1380.2178,1381.1922,space,0.9587,,1381.1922,11,34,1382.1903,1382.1903,1382.1921,,,,0,41,41,41,1,140,5,,,,,,,,
,,64c667536acb78c502d01089,65af55b0dc8991f4776b9f02,2024-01-23_08h39.34.260,bars,2023.2.3,Win32,55.55555556,657b66ea316d21385b68909f,,,,,,,,,,,1382.1926,1383.1858,,,1383.6823,1383.929,,4,4,,,,,,,,,,,,,,,,bars/014.png,bars/mask006.png,,,,,,,,,,,,6,2,,,,,,,4,6,3,7,,,,,,,,,,,1383.1858,1383.6823,1383.9291,1384.3724,space,0.4311,,1384.3725,76,4,1385.3502,1385.3503,1385.3569,,,,0,42,42,42,1,80,0,,,,,,,,
,,64c667536acb78c502d01089,65af55b0dc8991f4776b9f02,2024-01-23_08h39.34.260,bars,2023.2.3,Win32,55.55555556,657b66ea316d21385b68909f,,,,,,,,,,,1385.3577,1386.3512,,,1386.8564,1387.1047,,160,160,,,,,,,,,,,,,,,,bars/010.png,bars/mask007.png,,,,,,,,,,,,3,1,,,,,,,2,4,3,4,,,,,,,,,,,1386.3512,1386.8561,1387.1048,1388.0177,space,0.8902,,1388.0179,5,75,1389.0055,1389.0055,1389.0115,,,,0,43,43,43,1,165,55,,,,,,,,
,,64c667536acb78c502d01089,65af55b0dc8991f4776b9f02,2024-01-23_08h39.34.260,bars,2023.2.3,Win32,55.55555556,657b66ea316d21385b68909f,,,,,,,,,,,1389.0123,1389.9999,,,1390.5019,1390.7513,,140,140,,,,,,,,,,,,,,,,bars/028.png,bars/mask001.png,,,,,,,,,,,,0,2,,,,,,,0,2,0,0,,,,,,,,,,,1390.0001,1390.5019,1390.7514,1391.4065,space,0.6421,,1391.4065,85,20,1392.4089,1392.4091,1392.4154,,,,0,44,44,44,1,45,120,,,,,,,,
,,64c667536acb78c502d01089,65af55b0dc8991f4776b9f02,2024-01-23_08h39.34.260,bars,2023.2.3,Win32,55.55555556,657b66ea316d21385b68909f,,,,,,,,,,,1392.4164,1393.4056,,,1393.8998,1394.1635,,133,133,,,,,,,,,,,,,,,,bars/018.png,bars/mask004.png,,,,,,,,,,,,1,1,,,,,,,2,4,2,3,,,,,,,,,,,1393.4056,1393.8997,1394.1635,1395.6518,space,1.4704,,1395.6519,17,43,1396.6493,1396.6493,1396.6534,,,,0,45,45,45,1,150,90,,,,,,,,
,,64c667536acb78c502d01089,65af55b0dc8991f4776b9f02,2024-01-23_08h39.34.260,bars,2023.2.3,Win32,55.55555556,657b66ea316d21385b68909f,,,,,,,,,,,1396.6541,1397.6492,,,1398.1488,1398.4015,,42,42,,,,,,,,,,,,,,,,bars/045.png,bars/mask009.png,,,,,,,,,,,,0,2,,,,,,,4,6,4,6,,,,,,,,,,,1397.6493,1398.1487,1398.4016,1400.1486,space,1.7283,,1400.1487,58,32,1401.1534,1401.1535,1401.1619,,,,0,46,46,46,1,100,10,,,,,,,,
,,64c667536acb78c502d01089,65af55b0dc8991f4776b9f02,2024-01-23_08h39.34.260,bars,2023.2.3,Win32,55.55555556,657b66ea316d21385b68909f,,,,,,,,,,,1401.1635,1402.1527,,,1402.6462,1402.8998,,173,-7,,,,,,,,,,,,,,,,bars/001.png,bars/mask005.png,,,,,,,,,,,,0,1,,,,,,,2,8,2,7,,,,,,,,,,,1402.1529,1402.6461,1402.8998,1407.7417,space,4.822,,1407.7418,43,88,1408.7315,1408.7315,1408.7631,,,,0,47,47,47,1,130,85,,,,,,,,
,,64c667536acb78c502d01089,65af55b0dc8991f4776b9f02,2024-01-23_08h39.34.260,bars,2023.2.3,Win32,55.55555556,657b66ea316d21385b68909f,,,,,,,,,,,1408.7642,1409.7635,,,1410.2429,1410.4766,,138,-42,,,,,,,,,,,,,,,,bars/012.png,bars/mask002.png,,,,,,,,,,,,0,1,,,,,,,4,6,2,5,,,,,,,,,,,1409.7636,1410.2429,1410.4766,1412.1799,space,1.6892,,1412.1801,48,57,1413.1798,1413.1799,1413.182,,,,0,48,48,48,1,90,15,,,,,,,,
,,64c667536acb78c502d01089,65af55b0dc8991f4776b9f02,2024-01-23_08h39.34.260,bars,2023.2.3,Win32,55.55555556,657b66ea316d21385b68909f,,,,,,,,,,,1413.1827,1414.1833,,,1414.6853,1414.9347,,55,55,,,,,,,,,,,,,,,,bars/007.png,bars/mask004.png,,,,,,,,,,,,8,2,,,,,,,2,8,1,8,,,,,,,,,,,1414.1834,1414.6852,1414.9349,1416.836,space,1.8861,,1416.836,60,0,1417.8294,1417.8295,1417.8626,,,,0,49,49,49,1,175,55,,,,,,,,
,,64c667536acb78c502d01089,65af55b0dc8991f4776b9f02,2024-01-23_08h39.34.260,bars,2023.2.3,Win32,55.55555556,657b66ea316d21385b68909f,,,,,,,,,,,,,,,,,,,,,,,,,,,,,,,,,,,,,,,,,,,,,,,,,,,,,,,,,,,,,,,,,,,,,,,,,,,,,,,,,,,,,,,,,,,,,1417.8627,1477.8525,0,2,2,3,1,sequence_tables/blk042.csv
,,64c667536acb78c502d01089,65af55b0dc8991f4776b9f02,2024-01-23_08h39.34.260,bars,2023.2.3,Win32,55.55555556,657b66ea316d21385b68909f,,,,,,,,,,,1481.1428,1482.1371,,,1482.6409,1482.8867,,17,17,,,,,,,,,,,,,,,,bars/007.png,bars/mask002.png,,,,,,,,,,,,0,1,,,,,,,2,9,1,9,,,,,,1477.8861,1481.1256,space,3.2239,,1482.1376,1482.6408,1482.8868,1485.7873,space,2.8855,,1485.7874,22,38,1486.7855,1486.7856,1486.8159,,,,0,0,0,0,1,175,55,,,,,,,,
,,64c667536acb78c502d01089,65af55b0dc8991f4776b9f02,2024-01-23_08h39.34.260,bars,2023.2.3,Win32,55.55555556,657b66ea316d21385b68909f,,,,,,,,,,,1486.817,1487.8068,,,1488.3038,1488.5535,,153,153,,,,,,,,,,,,,,,,bars/043.png,bars/mask004.png,,,,,,,,,,,,1,2,,,,,,,4,7,7,6,,,,,,,,,,,1487.8069,1488.3038,1488.5536,1489.5572,space,0.99,,1489.5573,57,23,1490.5504,1490.5506,1490.5563,,,,0,1,1,1,1,30,130,,,,,,,,
,,64c667536acb78c502d01089,65af55b0dc8991f4776b9f02,2024-01-23_08h39.34.260,bars,2023.2.3,Win32,55.55555556,657b66ea316d21385b68909f,,,,,,,,,,,1490.5571,1491.5404,,,1492.0358,1492.2849,,179,179,,,,,,,,,,,,,,,,bars/032.png,bars/mask002.png,,,,,,,,,,,,2,2,,,,,,,6,9,6,8,,,,,,,,,,,1491.5405,1492.0357,1492.2849,1495.0896,space,2.785,,1495.0897,54,21,1496.0695,1496.0695,1496.0977,,,,0,2,2,2,1,125,20,,,,,,,,
,,64c667536acb78c502d01089,65af55b0dc8991f4776b9f02,2024-01-23_08h39.34.260,bars,2023.2.3,Win32,55.55555556,657b66ea316d21385b68909f,,,,,,,,,,,1496.0985,1497.0987,,,1497.5962,1497.847,,133,-47,,,,,,,,,,,,,,,,bars/039.png,bars/mask004.png,,,,,,,,,,,,1,2,,,,,,,8,7,6,8,,,,,,,,,,,1497.0987,1497.5961,1497.8471,1501.5681,space,3.6978,,1501.5682,42,28,1502.5711,1502.5712,1502.6039,,,,0,3,3,3,1,175,105,,,,,,,,
,,64c667536acb78c502d01089,65af55b0dc8991f4776b9f02,2024-01-23_08h39.34.260,bars,2023.2.3,Win32,55.55555556,657b66ea316d21385b68909f,,,,,,,,,,,1502.6046,1503.6013,,,1504.0988,1504.3494,,8,8,,,,,,,,,,,,,,,,bars/004.png,bars/mask000.png,,,,,,,,,,,,2,1,,,,,,,6,9,5,9,,,,,,,,,,,1503.6014,1504.0987,1504.3495,1510.7689,space,6.3945,,1510.769,17,63,1511.7627,1511.7627,1511.7966,,,,0,4,4,4,1,25,125,,,,,,,,
,,64c667536acb78c502d01089,65af55b0dc8991f4776b9f02,2024-01-23_08h39.34.260,bars,2023.2.3,Win32,55.55555556,657b66ea316d21385b68909f,,,,,,,,,,,1511.7974,1512.7857,,,1513.2815,1513.535,,85,85,,,,,,,,,,,,,,,,bars/025.png,bars/mask004.png,,,,,,,,,,,,3,1,,,,,,,8,7,8,8,,,,,,,,,,,1512.7859,1513.2814,1513.5352,1517.8832,space,4.3337,,1517.8832,20,45,1518.8586,1518.8587,1518.8871,,,,0,5,5,5,1,105,40,,,,,,,,
,,64c667536acb78c502d01089,65af55b0dc8991f4776b9f02,2024-01-23_08h39.34.260,bars,2023.2.3,Win32,55.55555556,657b66ea316d21385b68909f,,,,,,,,,,,1518.8878,1519.8794,,,1520.3821,1520.6393,,119,119,,,,,,,,,,,,,,,,bars/019.png,bars/mask000.png,,,,,,,,,,,,4,2,,,,,,,6,5,6,7,,,,,,,,,,,1519.8797,1520.382,1520.6393,1523.536,space,2.8741,,1523.5361,74,14,1524.5175,1524.5176,1524.5497,,,,0,6,6,6,1,45,105,,,,,,,,
,,64c667536acb78c502d01089,65af55b0dc8991f4776b9f02,2024-01-23_08h39.34.260,bars,2023.2.3,Win32,55.55555556,657b66ea316d21385b68909f,,,,,,,,,,,1524.5506,1525.5466,,,1526.0478,1526.2971,,160,-20,,,,,,,,,,,,,,,,bars/043.png,bars/mask007.png,,,,,,,,,,,,0,2,,,,,,,4,7,2,6,,,,,,,,,,,1525.5468,1526.0478,1526.2972,1530.2803,space,3.9661,,1530.2805,50,30,1531.2793,1531.2793,1531.3078,,,,0,7,7,7,1,30,130,,,,,,,,
,,64c667536acb78c502d01089,65af55b0dc8991f4776b9f02,2024-01-23_08h39.34.260,bars,2023.2.3,Win32,55.55555556,657b66ea316d21385b68909f,,,,,,,,,,,1531.3088,1532.3107,,,1532.8155,1533.0607,,0,0,,,,,,,,,,,,,,,,bars/038.png,bars/mask008.png,,,,,,,,,,,,1,1,,,,,,,2,9,2,8,,,,,,,,,,,1532.3109,1532.8152,1533.0609,1538.4338,space,5.3626,,1538.4339,15,70,1539.4242,1539.4244,1539.458,,,,0,8,8,8,1,165,70,,,,,,,,
,,64c667536acb78c502d01089,65af55b0dc8991f4776b9f02,2024-01-23_08h39.34.260,bars,2023.2.3,Win32,55.55555556,657b66ea316d21385b68909f,,,,,,,,,,,1539.459,1540.4476,,,1540.9433,1541.1829,,117,117,,,,,,,,,,,,,,,,bars/028.png,bars/mask009.png,,,,,,,,,,,,9,2,,,,,,,0,10,1,10,,,,,,,,,,,1540.4477,1540.9432,1541.1829,1542.6159,space,1.418,,1542.616,72,3,1543.6092,1543.6093,1543.6139,,,,0,9,9,9,1,45,120,,,,,,,,
,,64c667536acb78c502d01089,65af55b0dc8991f4776b9f02,2024-01-23_08h39.34.260,bars,2023.2.3,Win32,55.55555556,657b66ea316d21385b68909f,,,,,,,,,,,1543.6152,1544.6129,,,1545.1129,1545.3607,,49,49,,,,,,,,,,,,,,,,bars/009.png,bars/mask001.png,,,,,,,,,,,,0,1,,,,,,,2,8,3,7,,,,,,,,,,,1544.6129,1545.1129,1545.3609,1548.3776,space,3.0022,,1548.3777,34,56,1549.3748,1549.375,1549.4094,,,,0,10,10,10,1,15,105,,,,,,,,
,,64c667536acb78c502d01089,65af55b0dc8991f4776b9f02,2024-01-23_08h39.34.260,bars,2023.2.3,Win32,55.55555556,657b66ea316d21385b68909f,,,,,,,,,,,1549.4102,1550.4096,,,1550.9096,1551.161,,121,121,,,,,,,,,,,,,,,,bars/004.png,bars/mask006.png,,,,,,,,,,,,9,2,,,,,,,0,10,0,10,,,,,,,,,,,1550.4097,1550.9095,1551.161,1552.0999,space,0.927,,1552.0999,84,4,1553.091,1553.091,1553.0975,,,,0,11,11,11,1,25,125,,,,,,,,
,,64c667536acb78c502d01089,65af55b0dc8991f4776b9f02,2024-01-23_08h39.34.260,bars,2023.2.3,Win32,55.55555556,657b66ea316d21385b68909f,,,,,,,,,,,1553.0982,1554.0889,,,1554.5962,1554.8415,,177,-3,,,,,,,,,,,,,,,,bars/003.png,bars/mask004.png,,,,,,,,,,,,0,1,,,,,,,2,8,2,6,,,,,,,,,,,1554.0889,1554.5961,1554.8416,1558.3803,space,3.5228,,1558.3804,28,37,1559.3724,1559.3725,1559.4051,,,,0,12,12,12,1,25,140,,,,,,,,
,,64c667536acb78c502d01089,65af55b0dc8991f4776b9f02,2024-01-23_08h39.34.260,bars,2023.2.3,Win32,55.55555556,657b66ea316d21385b68909f,,,,,,,,,,,1559.406,1560.4385,,,1560.9124,1561.1554,,44,44,,,,,,,,,,,,,,,,bars/016.png,bars/mask000.png,,,,,,,,,,,,4,1,,,,,,,4,10,5,9,,,,,,,,,,,1560.4386,1560.9121,1561.1555,1564.8921,space,3.7141,,1564.8922,4,59,1565.8891,1565.8892,1565.9197,,,,0,13,13,13,1,40,165,,,,,,,,
,,64c667536acb78c502d01089,65af55b0dc8991f4776b9f02,2024-01-23_08h39.34.260,bars,2023.2.3,Win32,55.55555556,657b66ea316d21385b68909f,,,,,,,,,,,1565.9204,1566.9223,,,1567.4111,1567.6596,,151,-29,,,,,,,,,,,,,,,,bars/041.png,bars/mask001.png,,,,,,,,,,,,0,1,,,,,,,2,10,2,10,,,,,,,,,,,1566.9223,1567.4111,1567.6596,1572.0896,space,4.4144,,1572.0897,49,66,1573.0928,1573.0929,1573.1201,,,,0,14,14,14,1,20,85,,,,,,,,
,,64c667536acb78c502d01089,65af55b0dc8991f4776b9f02,2024-01-23_08h39.34.260,bars,2023.2.3,Win32,55.55555556,657b66ea316d21385b68909f,,,,,,,,,,,1573.1207,1574.1109,,,1574.606,1574.8596,,18,18,,,,,,,,,,,,,,,,bars/030.png,bars/mask007.png,,,,,,,,,,,,0,2,,,,,,,0,10,0,10,,,,,,,,,,,1574.1109,1574.6059,1574.8597,1576.3055,space,1.4255,,1576.3056,58,47,1577.3025,1577.3027,1577.3087,,,,0,15,15,15,1,140,65,,,,,,,,
,,64c667536acb78c502d01089,65af55b0dc8991f4776b9f02,2024-01-23_08h39.34.260,bars,2023.2.3,Win32,55.55555556,657b66ea316d21385b68909f,,,,,,,,,,,1577.3099,1578.3041,,,1578.8078,1579.0369,,82,82,,,,,,,,,,,,,,,,bars/004.png,bars/mask006.png,,,,,,,,,,,,0,2,,,,,,,2,10,2,10,,,,,,,,,,,1578.3042,1578.8077,1579.037,1580.0765,space,1.0243,,1580.0766,57,43,1581.0691,1581.0693,1581.071,,,,0,16,16,16,1,25,125,,,,,,,,
,,64c667536acb78c502d01089,65af55b0dc8991f4776b9f02,2024-01-23_08h39.34.260,bars,2023.2.3,Win32,55.55555556,657b66ea316d21385b68909f,,,,,,,,,,,1581.0718,1582.0718,,,1582.5586,1582.8038,,18,198,,,,,,,,,,,,,,,,bars/030.png,bars/mask004.png,,,,,,,,,,,,0,2,,,,,,,0,10,0,8,,,,,,,,,,,1582.0718,1582.5585,1582.804,1584.2933,space,1.4734,,1584.2934,58,47,1585.2852,1585.2854,1585.287,,,,0,17,17,17,1,140,65,,,,,,,,
,,64c667536acb78c502d01089,65af55b0dc8991f4776b9f02,2024-01-23_08h39.34.260,bars,2023.2.3,Win32,55.55555556,657b66ea316d21385b68909f,,,,,,,,,,,1585.2883,1586.2853,,,1586.7878,1587.0478,,74,74,,,,,,,,,,,,,,,,bars/013.png,bars/mask008.png,,,,,,,,,,,,2,1,,,,,,,2,10,2,10,,,,,,,,,,,1586.2853,1586.7877,1587.0481,1588.722,space,1.6527,,1588.722,1,64,1589.7234,1589.7235,1589.7322,,,,0,18,18,18,1,75,10,,,,,,,,
,,64c667536acb78c502d01089,65af55b0dc8991f4776b9f02,2024-01-23_08h39.34.260,bars,2023.2.3,Win32,55.55555556,657b66ea316d21385b68909f,,,,,,,,,,,1589.7333,1590.7243,,,1591.2207,1591.4683,,29,29,,,,,,,,,,,,,,,,bars/018.png,bars/mask001.png,,,,,,,,,,,,0,1,,,,,,,0,10,1,10,,,,,,,,,,,1590.7243,1591.2206,1591.4686,1592.187,space,0.6987,,1592.1871,59,61,1593.182,1593.182,1593.1835,,,,0,19,19,19,1,150,90,,,,,,,,
,,64c667536acb78c502d01089,65af55b0dc8991f4776b9f02,2024-01-23_08h39.34.260,bars,2023.2.3,Win32,55.55555556,657b66ea316d21385b68909f,,,,,,,,,,,1593.184,1594.1843,,,1594.6602,1594.8923,,36,36,,,,,,,,,,,,,,,,bars/045.png,bars/mask009.png,,,,,,,,,,,,1,2,,,,,,,2,10,1,8,,,,,,,,,,,1594.1843,1594.6602,1594.8924,1598.3571,space,3.4385,,1598.3575,64,26,1599.3588,1599.3589,1599.3922,,,,0,20,20,20,1,100,10,,,,,,,,
,,64c667536acb78c502d01089,65af55b0dc8991f4776b9f02,2024-01-23_08h39.34.260,bars,2023.2.3,Win32,55.55555556,657b66ea316d21385b68909f,,,,,,,,,,,1599.3933,1600.3849,,,1600.8885,1601.1332,,173,-7,,,,,,,,,,,,,,,,bars/043.png,bars/mask005.png,,,,,,,,,,,,0,1,,,,,,,4,8,3,8,,,,,,,,,,,1600.385,1600.8884,1601.1333,1603.9501,space,2.7922,,1603.9502,37,43,1604.98,1604.9802,1605.0101,,,,0,21,21,21,1,30,130,,,,,,,,
,,64c667536acb78c502d01089,65af55b0dc8991f4776b9f02,2024-01-23_08h39.34.260,bars,2023.2.3,Win32,55.55555556,657b66ea316d21385b68909f,,,,,,,,,,,1605.011,1605.9999,,,1606.4977,1606.7531,,83,83,,,,,,,,,,,,,,,,bars/024.png,bars/mask003.png,,,,,,,,,,,,0,1,,,,,,,6,10,7,10,,,,,,,,,,,1605.9999,1606.4977,1606.7532,1608.8206,space,2.0543,,1608.8208,37,87,1609.8161,1609.8162,1609.8471,,,,0,22,22,22,1,120,170,,,,,,,,
,,64c667536acb78c502d01089,65af55b0dc8991f4776b9f02,2024-01-23_08h39.34.260,bars,2023.2.3,Win32,55.55555556,657b66ea316d21385b68909f,,,,,,,,,,,1609.8478,1610.8483,,,1611.3359,1611.5815,,138,138,,,,,,,,,,,,,,,,bars/049.png,bars/mask003.png,,,,,,,,,,,,1,1,,,,,,,4,10,4,10,,,,,,,,,,,1610.8483,1611.3359,1611.5817,1613.9227,space,2.3262,,1613.9229,22,23,1614.8841,1614.8843,1614.9347,,,,0,23,23,23,1,160,115,,,,,,,,
,,64c667536acb78c502d01089,65af55b0dc8991f4776b9f02,2024-01-23_08h39.34.260,bars,2023.2.3,Win32,55.55555556,657b66ea316d21385b68909f,,,,,,,,,,,1614.9353,1615.931,,,1616.4347,1616.6942,,85,85,,,,,,,,,,,,,,,,bars/046.png,bars/mask008.png,,,,,,,,,,,,9,2,,,,,,,6,8,5,9,,,,,,,,,,,1615.931,1616.4346,1616.6943,1618.0064,space,1.2989,,1618.0065,70,0,1618.9943,1618.9945,1619.0259,,,,0,24,24,24,1,155,85,,,,,,,,
,,64c667536acb78c502d01089,65af55b0dc8991f4776b9f02,2024-01-23_08h39.34.260,bars,2023.2.3,Win32,55.55555556,657b66ea316d21385b68909f,,,,,,,,,,,1619.0274,1620.0263,,,1620.5138,1620.7643,,54,54,,,,,,,,,,,,,,,,bars/021.png,bars/mask009.png,,,,,,,,,,,,3,2,,,,,,,4,6,4,7,,,,,,,,,,,1620.0265,1620.5137,1620.7644,1622.1329,space,1.3481,,1622.1329,79,16,1623.1298,1623.13,1623.1573,,,,0,25,25,25,1,155,70,,,,,,,,
,,64c667536acb78c502d01089,65af55b0dc8991f4776b9f02,2024-01-23_08h39.34.260,bars,2023.2.3,Win32,55.55555556,657b66ea316d21385b68909f,,,,,,,,,,,1623.1582,1624.1464,,,1624.6121,1624.8519,,145,145,,,,,,,,,,,,,,,,bars/034.png,bars/mask005.png,,,,,,,,,,,,0,1,,,,,,,2,8,1,8,,,,,,,,,,,1624.1464,1624.6121,1624.8519,1627.516,space,2.6486,,1627.5161,20,80,1628.5049,1628.505,1628.5396,,,,0,26,26,26,1,125,65,,,,,,,,
,,64c667536acb78c502d01089,65af55b0dc8991f4776b9f02,2024-01-23_08h39.34.260,bars,2023.2.3,Win32,55.55555556,657b66ea316d21385b68909f,,,,,,,,,,,1628.5404,1629.53,,,1630.0296,1630.2658,,73,73,,,,,,,,,,,,,,,,bars/012.png,bars/mask008.png,,,,,,,,,,,,2,1,,,,,,,4,10,5,9,,,,,,,,,,,1629.53,1630.0295,1630.2659,1631.899,space,1.62,,1631.8991,17,58,1632.8993,1632.8995,1632.9013,,,,0,27,27,27,1,90,15,,,,,,,,
,,64c667536acb78c502d01089,65af55b0dc8991f4776b9f02,2024-01-23_08h39.34.260,bars,2023.2.3,Win32,55.55555556,657b66ea316d21385b68909f,,,,,,,,,,,1632.9022,1633.8953,,,1634.3998,1634.6437,,55,55,,,,,,,,,,,,,,,,bars/015.png,bars/mask009.png,,,,,,,,,,,,0,1,,,,,,,2,10,2,9,,,,,,,,,,,1633.8958,1634.3997,1634.6437,1646.0278,space,11.3727,,1646.0279,55,75,1647.0261,1647.0263,1647.0583,,,,0,28,28,28,1,110,160,,,,,,,,
,,64c667536acb78c502d01089,65af55b0dc8991f4776b9f02,2024-01-23_08h39.34.260,bars,2023.2.3,Win32,55.55555556,657b66ea316d21385b68909f,,,,,,,,,,,1647.059,1648.0596,,,1648.5517,1648.7968,,121,121,,,,,,,,,,,,,,,,bars/015.png,bars/mask000.png,,,,,,,,,,,,0,1,,,,,,,0,8,0,8,,,,,,,,,,,1648.0597,1648.5516,1648.7969,1650.5391,space,1.7203,,1650.5393,11,39,1651.5253,1651.5253,1651.5538,,,,0,29,29,29,1,110,160,,,,,,,,
,,64c667536acb78c502d01089,65af55b0dc8991f4776b9f02,2024-01-23_08h39.34.260,bars,2023.2.3,Win32,55.55555556,657b66ea316d21385b68909f,,,,,,,,,,,1651.5545,1652.5433,,,1653.0632,1653.3206,,31,31,,,,,,,,,,,,,,,,bars/035.png,bars/mask000.png,,,,,,,,,,,,0,2,,,,,,,2,10,2,9,,,,,,,,,,,1652.5435,1653.0632,1653.3207,1654.4616,space,1.1247,,1654.4617,36,29,1655.4581,1655.4581,1655.4892,,,,0,30,30,30,1,175,60,,,,,,,,
,,64c667536acb78c502d01089,65af55b0dc8991f4776b9f02,2024-01-23_08h39.34.260,bars,2023.2.3,Win32,55.55555556,657b66ea316d21385b68909f,,,,,,,,,,,1655.4901,1656.4616,,,1656.9589,1657.2101,,46,46,,,,,,,,,,,,,,,,bars/019.png,bars/mask008.png,,,,,,,,,,,,0,1,,,,,,,0,8,0,8,,,,,,,,,,,1656.4617,1656.9588,1657.2102,1659.2935,space,2.0691,,1659.2936,1,59,1660.2899,1660.29,1660.3211,,,,0,31,31,31,1,45,105,,,,,,,,
,,64c667536acb78c502d01089,65af55b0dc8991f4776b9f02,2024-01-23_08h39.34.260,bars,2023.2.3,Win32,55.55555556,657b66ea316d21385b68909f,,,,,,,,,,,1660.3219,1661.3207,,,1661.8238,1662.0737,,142,142,,,,,,,,,,,,,,,,bars/048.png,bars/mask007.png,,,,,,,,,,,,0,2,,,,,,,0,6,0,5,,,,,,,,,,,1661.3208,1661.8238,1662.0738,1663.2313,space,1.1354,,1663.2313,88,33,1664.2223,1664.2223,1664.2271,,,,0,32,32,32,1,50,175,,,,,,,,
,,64c667536acb78c502d01089,65af55b0dc8991f4776b9f02,2024-01-23_08h39.34.260,bars,2023.2.3,Win32,55.55555556,657b66ea316d21385b68909f,,,,,,,,,,,1664.2279,1665.2374,,,1665.7264,1665.9742,,51,51,,,,,,,,,,,,,,,,bars/016.png,bars/mask003.png,,,,,,,,,,,,1,1,,,,,,,0,4,1,4,,,,,,,,,,,1665.2379,1665.7263,1665.9742,1667.1615,space,1.1708,,1667.1616,11,66,1668.1553,1668.1553,1668.1597,,,,0,33,33,33,1,40,165,,,,,,,,
,,64c667536acb78c502d01089,65af55b0dc8991f4776b9f02,2024-01-23_08h39.34.260,bars,2023.2.3,Win32,55.55555556,657b66ea316d21385b68909f,,,,,,,,,,,1668.1604,1669.1544,,,1669.6565,1669.9113,,57,57,,,,,,,,,,,,,,,,bars/027.png,bars/mask000.png,,,,,,,,,,,,5,2,,,,,,,0,6,1,6,,,,,,,,,,,1669.1545,1669.6564,1669.9114,1671.2462,space,1.3218,,1671.2463,53,7,1672.2386,1672.2387,1672.2443,,,,0,34,34,34,1,110,50,,,,,,,,
,,64c667536acb78c502d01089,65af55b0dc8991f4776b9f02,2024-01-23_08h39.34.260,bars,2023.2.3,Win32,55.55555556,657b66ea316d21385b68909f,,,,,,,,,,,1672.2451,1673.2378,,,1673.7537,1674.0066,,69,69,,,,,,,,,,,,,,,,bars/022.png,bars/mask003.png,,,,,,,,,,,,0,1,,,,,,,2,8,2,7,,,,,,,,,,,1673.238,1673.7536,1674.0067,1675.4401,space,1.4203,,1675.4402,26,49,1676.4395,1676.4396,1676.4439,,,,0,35,35,35,1,95,20,,,,,,,,
,,64c667536acb78c502d01089,65af55b0dc8991f4776b9f02,2024-01-23_08h39.34.260,bars,2023.2.3,Win32,55.55555556,657b66ea316d21385b68909f,,,,,,,,,,,1676.4447,1677.4364,,,1677.9265,1678.1697,,103,103,,,,,,,,,,,,,,,,bars/012.png,bars/mask000.png,,,,,,,,,,,,2,1,,,,,,,4,6,4,6,,,,,,,,,,,1677.4365,1677.9265,1678.1699,1679.625,space,1.4369,,1679.6251,13,88,1680.621,1680.6211,1680.6227,,,,0,36,36,36,1,90,15,,,,,,,,
,,64c667536acb78c502d01089,65af55b0dc8991f4776b9f02,2024-01-23_08h39.34.260,bars,2023.2.3,Win32,55.55555556,657b66ea316d21385b68909f,,,,,,,,,,,1680.6234,1681.603,,,1682.1034,1682.3411,,138,138,,,,,,,,,,,,,,,,bars/035.png,bars/mask000.png,,,,,,,,,,,,0,1,,,,,,,6,8,6,8,,,,,,,,,,,1681.6031,1682.1034,1682.3412,1683.0764,space,0.7227,,1683.0764,37,78,1684.0688,1684.0689,1684.0709,,,,0,37,37,37,1,175,60,,,,,,,,
,,64c667536acb78c502d01089,65af55b0dc8991f4776b9f02,2024-01-23_08h39.34.260,bars,2023.2.3,Win32,55.55555556,657b66ea316d21385b68909f,,,,,,,,,,,1684.0715,1685.0691,,,1685.552,1685.7879,,149,149,,,,,,,,,,,,,,,,bars/026.png,bars/mask007.png,,,,,,,,,,,,0,2,,,,,,,8,6,8,6,,,,,,,,,,,1685.0693,1685.552,1685.788,1687.4562,space,1.6464,,1687.4562,66,64,1688.4538,1688.4539,1688.4591,,,,0,38,38,38,1,35,85,,,,,,,,
,,64c667536acb78c502d01089,65af55b0dc8991f4776b9f02,2024-01-23_08h39.34.260,bars,2023.2.3,Win32,55.55555556,657b66ea316d21385b68909f,,,,,,,,,,,1688.4598,1689.4499,,,1689.9491,1690.1909,,100,100,,,,,,,,,,,,,,,,bars/018.png,bars/mask004.png,,,,,,,,,,,,3,2,,,,,,,6,4,4,4,,,,,,,,,,,1689.4503,1689.949,1690.1911,1691.8214,space,1.6106,,1691.8215,50,10,1692.8203,1692.8203,1692.8222,,,,0,39,39,39,1,150,90,,,,,,,,
,,64c667536acb78c502d01089,65af55b0dc8991f4776b9f02,2024-01-23_08h39.34.260,bars,2023.2.3,Win32,55.55555556,657b66ea316d21385b68909f,,,,,,,,,,,1692.8231,1693.8219,,,1694.3227,1694.569,,61,61,,,,,,,,,,,,,,,,bars/008.png,bars/mask007.png,,,,,,,,,,,,0,1,,,,,,,4,6,5,5,,,,,,,,,,,1693.822,1694.3225,1694.569,1696.0347,space,1.4524,,1696.0348,49,61,1697.0391,1697.0393,1697.0435,,,,0,40,40,40,1,110,0,,,,,,,,
,,64c667536acb78c502d01089,65af55b0dc8991f4776b9f02,2024-01-23_08h39.34.260,bars,2023.2.3,Win32,55.55555556,657b66ea316d21385b68909f,,,,,,,,,,,1697.0441,1698.049,,,1698.5385,1698.7816,,150,-30,,,,,,,,,,,,,,,,bars/019.png,bars/mask008.png,,,,,,,,,,,,0,2,,,,,,,6,8,8,8,,,,,,,,,,,1698.049,1698.5384,1698.7817,1699.9019,space,1.1087,,1699.902,75,45,1700.8994,1700.8995,1700.9097,,,,0,41,41,41,1,45,105,,,,,,,,
,,64c667536acb78c502d01089,65af55b0dc8991f4776b9f02,2024-01-23_08h39.34.260,bars,2023.2.3,Win32,55.55555556,657b66ea316d21385b68909f,,,,,,,,,,,1700.9104,1701.9244,,,1702.4187,1702.6708,,39,219,,,,,,,,,,,,,,,,bars/002.png,bars/mask003.png,,,,,,,,,,,,0,2,,,,,,,8,6,7,7,,,,,,,,,,,1701.9245,1702.4185,1702.6709,1704.5693,space,1.8801,,1704.5694,89,46,1705.5664,1705.5665,1705.5681,,,,0,42,42,42,1,130,85,,,,,,,,
,,64c667536acb78c502d01089,65af55b0dc8991f4776b9f02,2024-01-23_08h39.34.260,bars,2023.2.3,Win32,55.55555556,657b66ea316d21385b68909f,,,,,,,,,,,1705.5688,1706.5683,,,1707.0674,1707.3185,,94,94,,,,,,,,,,,,,,,,bars/023.png,bars/mask008.png,,,,,,,,,,,,2,2,,,,,,,6,4,6,5,,,,,,,,,,,1706.5689,1707.0672,1707.3186,1708.6167,space,1.2757,,1708.617,74,21,1709.6198,1709.62,1709.6222,,,,0,43,43,43,1,20,115,,,,,,,,
,,64c667536acb78c502d01089,65af55b0dc8991f4776b9f02,2024-01-23_08h39.34.260,bars,2023.2.3,Win32,55.55555556,657b66ea316d21385b68909f,,,,,,,,,,,1709.6232,1710.617,,,1711.0969,1711.3385,,69,69,,,,,,,,,,,,,,,,bars/037.png,bars/mask009.png,,,,,,,,,,,,0,2,,,,,,,4,2,5,2,,,,,,,,,,,1710.617,1711.0968,1711.3386,1711.8692,space,0.5138,,1711.8693,81,36,1712.866,1712.8662,1712.8676,,,,0,44,44,44,1,150,105,,,,,,,,
,,64c667536acb78c502d01089,65af55b0dc8991f4776b9f02,2024-01-23_08h39.34.260,bars,2023.2.3,Win32,55.55555556,657b66ea316d21385b68909f,,,,,,,,,,,1712.8683,1713.8657,,,1714.3709,1714.6167,,29,29,,,,,,,,,,,,,,,,bars/032.png,bars/mask001.png,,,,,,,,,,,,0,2,,,,,,,2,0,4,0,,,,,,,,,,,1713.8658,1714.3708,1714.6168,1715.4659,space,0.8332,,1715.466,84,9,1716.466,1716.4661,1716.4692,,,,0,45,45,45,1,125,20,,,,,,,,
,,64c667536acb78c502d01089,65af55b0dc8991f4776b9f02,2024-01-23_08h39.34.260,bars,2023.2.3,Win32,55.55555556,657b66ea316d21385b68909f,,,,,,,,,,,1716.4699,1717.4549,,,1717.9644,1718.2157,,43,223,,,,,,,,,,,,,,,,bars/002.png,bars/mask002.png,,,,,,,,,,,,0,2,,,,,,,4,0,2,0,,,,,,,,,,,1717.455,1717.9641,1718.2158,1720.1854,space,1.9515,,1720.1855,87,42,1721.1851,1721.1851,1721.187,,,,0,46,46,46,1,130,85,,,,,,,,
,,64c667536acb78c502d01089,65af55b0dc8991f4776b9f02,2024-01-23_08h39.34.260,bars,2023.2.3,Win32,55.55555556,657b66ea316d21385b68909f,,,,,,,,,,,1721.1877,1722.1879,,,1722.6704,1722.9167,,101,101,,,,,,,,,,,,,,,,bars/019.png,bars/mask000.png,,,,,,,,,,,,1,2,,,,,,,2,2,1,1,,,,,,,,,,,1722.1879,1722.6703,1722.9168,1724.0285,space,1.0907,,1724.0285,56,4,1725.0304,1725.0304,1725.032,,,,0,47,47,47,1,45,105,,,,,,,,
,,64c667536acb78c502d01089,65af55b0dc8991f4776b9f02,2024-01-23_08h39.34.260,bars,2023.2.3,Win32,55.55555556,657b66ea316d21385b68909f,,,,,,,,,,,1725.0329,1726.0303,,,1726.5161,1726.7543,,152,152,,,,,,,,,,,,,,,,bars/009.png,bars/mask004.png,,,,,,,,,,,,0,1,,,,,,,4,0,4,0,,,,,,,,,,,1726.0304,1726.5161,1726.7543,1727.6176,space,0.8467,,1727.6177,43,47,1728.5944,1728.5946,1728.5987,,,,0,48,48,48,1,15,105,,,,,,,,
,,64c667536acb78c502d01089,65af55b0dc8991f4776b9f02,2024-01-23_08h39.34.260,bars,2023.2.3,Win32,55.55555556,657b66ea316d21385b68909f,,,,,,,,,,,1728.5994,1729.5967,,,1730.0938,1730.3488,,162,-18,,,,,,,,,,,,,,,,bars/000.png,bars/mask008.png,,,,,,,,,,,,0,2,,,,,,,6,0,6,1,,,,,,,,,,,1729.5968,1730.0938,1730.3489,1731.7197,space,1.359,,1731.7198,58,17,1732.7008,1732.7009,1732.7079,,,,0,49,49,49,1,40,145,,,,,,,,
,,64c667536acb78c502d01089,65af55b0dc8991f4776b9f02,2024-01-23_08h39.34.260,bars,2023.2.3,Win32,55.55555556,657b66ea316d21385b68909f,,,,,,,,,,,,,,,,,,,,,,,,,,,,,,,,,,,,,,,,,,,,,,,,,,,,,,,,,,,,,,,,,,,,,,,,,,,,,,,,,,,,,,,,,,,,,1732.7083,1792.7022,0,3,3,0,1,sequence_tables/blk030.csv
,,64c667536acb78c502d01089,65af55b0dc8991f4776b9f02,2024-01-23_08h39.34.260,bars,2023.2.3,Win32,55.55555556,657b66ea316d21385b68909f,,,,,,,,,,,1796.0073,1797.0024,,,1797.5068,1797.7516,,119,119,,,,,,,,,,,,,,,,bars/015.png,bars/mask001.png,,,,,,,,,,,,5,1,,,,,,,7,5,7,6,,,,,,1792.7341,1795.9919,space,3.2452,,1797.0025,1797.5067,1797.7517,1799.5187,space,1.7463,,1799.5188,9,41,1800.5069,1800.5073,1800.5181,,,,0,0,0,0,1,110,160,,,,,,,,
,,64c667536acb78c502d01089,65af55b0dc8991f4776b9f02,2024-01-23_08h39.34.260,bars,2023.2.3,Win32,55.55555556,657b66ea316d21385b68909f,,,,,,,,,,,1800.5189,1801.5234,,,1802.0193,1802.2691,,126,126,,,,,,,,,,,,,,,,bars/000.png,bars/mask009.png,,,,,,,,,,,,1,2,,,,,,,9,3,10,2,,,,,,,,,,,1801.5234,1802.0192,1802.2691,1804.8192,space,2.5355,,1804.8193,86,19,1805.8163,1805.8164,1805.849,,,,0,1,1,1,1,40,145,,,,,,,,
,,64c667536acb78c502d01089,65af55b0dc8991f4776b9f02,2024-01-23_08h39.34.260,bars,2023.2.3,Win32,55.55555556,657b66ea316d21385b68909f,,,,,,,,,,,1805.8498,1806.8524,,,1807.342,1807.5861,,47,47,,,,,,,,,,,,,,,,bars/043.png,bars/mask003.png,,,,,,,,,,,,3,1,,,,,,,7,1,6,2,,,,,,,,,,,1806.8525,1807.3419,1807.5861,1808.834,space,1.2318,,1808.8341,17,83,1809.8323,1809.8324,1809.8376,,,,0,2,2,2,1,30,130,,,,,,,,
,,64c667536acb78c502d01089,65af55b0dc8991f4776b9f02,2024-01-23_08h39.34.260,bars,2023.2.3,Win32,55.55555556,657b66ea316d21385b68909f,,,,,,,,,,,1809.8393,1810.8336,,,1811.3328,1811.5798,,136,136,,,,,,,,,,,,,,,,bars/042.png,bars/mask001.png,,,,,,,,,,,,4,1,,,,,,,5,3,5,2,,,,,,,,,,,1810.8336,1811.3326,1811.5799,1812.5408,space,0.9445,,1812.5409,9,61,1813.5348,1813.535,1813.5368,,,,0,3,3,3,1,145,75,,,,,,,,
,,64c667536acb78c502d01089,65af55b0dc8991f4776b9f02,2024-01-23_08h39.34.260,bars,2023.2.3,Win32,55.55555556,657b66ea316d21385b68909f,,,,,,,,,,,1813.5374,1814.5356,,,1815.0346,1815.2844,,143,143,,,,,,,,,,,,,,,,bars/042.png,bars/mask002.png,,,,,,,,,,,,6,1,,,,,,,7,1,6,2,,,,,,,,,,,1814.5358,1815.0346,1815.2845,1816.6841,space,1.386,,1816.6842,2,68,1817.6756,1817.6779,1817.6791,,,,0,4,4,4,1,145,75,,,,,,,,
,,64c667536acb78c502d01089,65af55b0dc8991f4776b9f02,2024-01-23_08h39.34.260,bars,2023.2.3,Win32,55.55555556,657b66ea316d21385b68909f,,,,,,,,,,,1817.6797,1818.6813,,,1819.1825,1819.386,,71,71,,,,,,,,,,,,,,,,bars/029.png,bars/mask004.png,,,,,,,,,,,,2,1,,,,,,,5,0,5,0,,,,,,,,,,,1818.6814,1819.1824,1819.3861,1821.1002,space,1.703,,1821.1002,19,26,1822.0988,1822.0989,1822.1003,,,,0,5,5,5,1,90,45,,,,,,,,
,,64c667536acb78c502d01089,65af55b0dc8991f4776b9f02,2024-01-23_08h39.34.260,bars,2023.2.3,Win32,55.55555556,657b66ea316d21385b68909f,,,,,,,,,,,1822.1011,1823.1033,,,1823.5835,1823.8382,,58,58,,,,,,,,,,,,,,,,bars/045.png,bars/mask004.png,,,,,,,,,,,,0,1,,,,,,,7,2,8,3,,,,,,,,,,,1823.1033,1823.583,1823.8382,1824.9687,space,1.1078,,1824.9689,42,48,1825.9804,1825.9805,1825.9826,,,,0,6,6,6,1,100,10,,,,,,,,
,,64c667536acb78c502d01089,65af55b0dc8991f4776b9f02,2024-01-23_08h39.34.260,bars,2023.2.3,Win32,55.55555556,657b66ea316d21385b68909f,,,,,,,,,,,1825.9833,1826.9819,,,1827.4837,1827.7296,,69,69,,,,,,,,,,,,,,,,bars/044.png,bars/mask000.png,,,,,,,,,,,,8,1,,,,,,,9,0,10,1,,,,,,,,,,,1826.9821,1827.4836,1827.7297,1829.1844,space,1.4383,,1829.1846,6,86,1830.1766,1830.1767,1830.1788,,,,0,7,7,7,1,75,155,,,,,,,,
,,64c667536acb78c502d01089,65af55b0dc8991f4776b9f02,2024-01-23_08h39.34.260,bars,2023.2.3,Win32,55.55555556,657b66ea316d21385b68909f,,,,,,,,,,,1830.1795,1831.1841,,,1831.6808,1831.9484,,28,208,,,,,,,,,,,,,,,,bars/012.png,bars/mask009.png,,,,,,,,,,,,0,2,,,,,,,7,0,6,0,,,,,,,,,,,1831.1842,1831.6806,1831.9484,1833.1665,space,1.1976,,1833.1665,62,13,1834.1616,1834.1616,1834.167,,,,0,8,8,8,1,90,15,,,,,,,,
,,64c667536acb78c502d01089,65af55b0dc8991f4776b9f02,2024-01-23_08h39.34.260,bars,2023.2.3,Win32,55.55555556,657b66ea316d21385b68909f,,,,,,,,,,,1834.1678,1835.1663,,,1835.6675,1835.9091,,128,128,,,,,,,,,,,,,,,,bars/029.png,bars/mask004.png,,,,,,,,,,,,0,1,,,,,,,5,2,4,1,,,,,,,,,,,1835.1664,1835.6674,1835.9091,1836.7523,space,0.823,,1836.7525,38,83,1837.7309,1837.7311,1837.7359,,,,0,9,9,9,1,90,45,,,,,,,,
,,64c667536acb78c502d01089,65af55b0dc8991f4776b9f02,2024-01-23_08h39.34.260,bars,2023.2.3,Win32,55.55555556,657b66ea316d21385b68909f,,,,,,,,,,,1837.737,1838.7306,,,1839.2291,1839.465,,126,126,,,,,,,,,,,,,,,,bars/037.png,bars/mask001.png,,,,,,,,,,,,0,2,,,,,,,3,0,4,0,,,,,,,,,,,1838.7306,1839.229,1839.4651,1840.7732,space,1.2922,,1840.7734,24,21,1841.775,1841.7751,1841.7857,,,,0,10,10,10,1,150,105,,,,,,,,
,,64c667536acb78c502d01089,65af55b0dc8991f4776b9f02,2024-01-23_08h39.34.260,bars,2023.2.3,Win32,55.55555556,657b66ea316d21385b68909f,,,,,,,,,,,1841.7864,1842.7794,,,1843.2796,1843.5304,,178,-2,,,,,,,,,,,,,,,,bars/041.png,bars/mask003.png,,,,,,,,,,,,0,1,,,,,,,1,0,1,0,,,,,,,,,,,1842.7794,1843.2796,1843.5305,1845.7808,space,2.2281,,1845.7808,22,87,1846.7784,1846.7784,1846.7826,,,,0,11,11,11,1,20,85,,,,,,,,
