init_variables.started,init_variables.stopped,participant,session,date,expName,psychopyVersion,OS,frameRate,study_id,instruction_exp.started,instruction_exp.stopped,key_resp_8.keys,key_resp_8.rt,key_resp_8.duration,instruction_single.started,instruction_single.stopped,key_resp_2.keys,key_resp_2.rt,key_resp_2.duration,interval.started,interval.stopped,cue_single.started,cue_single.stopped,mask.started,mask.stopped,ori_response_single.started,res_ori,res,ori_response_single.stopped,key_resp_single.keys,key_resp_single.rt,key_resp_single.duration,disp_single.started,disp_single.stopped,key_resp.keys,key_resp.rt,key_resp.duration,single.thisRepN,single.thisTrialN,single.thisN,single.thisIndex,single.ran,ori,path,mask_path,instruction_bandit.started,instruction_bandit.stopped,key_resp_6.keys,key_resp_6.rt,key_resp_6.duration,cue_bandit.started,cue_bandit.stopped,bandit_res.keys,bandit_res.rt,bandit_res.duration,outcome_bandit.started,rew,action,outcome_bandit.stopped,bandit.thisRepN,bandit.thisTrialN,bandit.thisN,bandit.thisIndex,bandit.ran,actual_rew1,actual_rew2,rew1,rew2,instruction_task.started,instruction_task.stopped,key_resp_7.keys,key_resp_7.rt,key_resp_7.duration,wait_ready.started,wait_ready.stopped,key_resp_3.keys,key_resp_3.rt,key_resp_3.duration,cue.started,cue.stopped,ori_response.started,ori_response.stopped,key_resp_5.keys,key_resp_5.rt,key_resp_5.duration,outcome.started,diff1,diff2,outcome.stopped,disp_outcome_practice.started,disp_outcome_practice.stopped,key_resp_4.keys,key_resp_4.rt,key_resp_4.duration,trials.thisRepN,trials.thisTrialN,trials.thisN,trials.thisIndex,trials.ran,ori1,ori2,break_blk.started,break_blk.stopped,block.thisRepN,block.thisTrialN,block.thisN,block.thisIndex,block.ran,condition_file
0.0002,0.0003,608c349d8e7f57e8f84d3a27,65b1a112572ddd00311d4d5e,2024-01-24_23h48.09.561,bars,2023.2.3,Win32,59.88023952,657b66ea316d21385b68909f,,,,,,,,,,,,,,,,,,,,,,,,,,,,,,,,,,,,,,,,,,,,,,,,,,,,,,,,,,,,,,,,,,,,,,,,,,,,,,,,,,,,,,,,,,,,,,,,,,,,
,,608c349d8e7f57e8f84d3a27,65b1a112572ddd00311d4d5e,2024-01-24_23h48.09.561,bars,2023.2.3,Win32,59.88023952,657b66ea316d21385b68909f,0.0004,6.3049,y,6.2812,,,,,,,,,,,,,,,,,,,,,,,,,,,,,,,,,,,,,,,,,,,,,,,,,,,,,,,,,,,,,,,,,,,,,,,,,,,,,,,,,,,,,,,,,,,,,,,,
,,608c349d8e7f57e8f84d3a27,65b1a112572ddd00311d4d5e,2024-01-24_23h48.09.561,bars,2023.2.3,Win32,59.88023952,657b66ea316d21385b68909f,,,,,,6.3052,14.5308,space,8.202,,,,,,,,,,,,,,,,,,,,,,,,,,,,,,,,,,,,,,,,,,,,,,,,,,,,,,,,,,,,,,,,,,,,,,,,,,,,,,,,,,,,,,,,,,,
,,608c349d8e7f57e8f84d3a27,65b1a112572ddd00311d4d5e,2024-01-24_23h48.09.561,bars,2023.2.3,Win32,59.88023952,657b66ea316d21385b68909f,,,,,,,,,,,14.5345,15.5303,15.5308,16.0297,16.0299,16.2803,16.2806,5,5,22.4467,space,6.1366,,22.4468,26.5707,space,4.1068,,0,0,0,6,1,175,bars/single006.png,bars/mask005.png,,,,,,,,,,,,,,,,,,,,,,,,,,,,,,,,,,,,,,,,,,,,,,,,,,,,,,,,,,,,,,,,
,,608c349d8e7f57e8f84d3a27,65b1a112572ddd00311d4d5e,2024-01-24_23h48.09.561,bars,2023.2.3,Win32,59.88023952,657b66ea316d21385b68909f,,,,,,,,,,,26.5721,27.5693,27.5695,28.0696,28.0698,28.3191,28.3192,28,28,31.4173,space,3.0676,,31.4176,33.832,space,2.3882,,0,1,1,9,1,20,bars/single009.png,bars/mask006.png,,,,,,,,,,,,,,,,,,,,,,,,,,,,,,,,,,,,,,,,,,,,,,,,,,,,,,,,,,,,,,,,
,,608c349d8e7f57e8f84d3a27,65b1a112572ddd00311d4d5e,2024-01-24_23h48.09.561,bars,2023.2.3,Win32,59.88023952,657b66ea316d21385b68909f,,,,,,,,,,,33.8327,34.8305,34.8307,35.3303,35.3305,35.5799,35.58,91,91,40.3433,space,4.7302,,40.3435,41.6592,space,1.2833,,0,2,2,4,1,95,bars/single004.png,bars/mask004.png,,,,,,,,,,,,,,,,,,,,,,,,,,,,,,,,,,,,,,,,,,,,,,,,,,,,,,,,,,,,,,,,
,,608c349d8e7f57e8f84d3a27,65b1a112572ddd00311d4d5e,2024-01-24_23h48.09.561,bars,2023.2.3,Win32,59.88023952,657b66ea316d21385b68909f,,,,,,,,,,,41.66,42.6569,42.657,43.1616,43.1616,43.4068,43.4068,156,156,45.9052,space,2.4685,,45.9054,47.6042,space,1.6667,,0,3,3,2,1,145,bars/single002.png,bars/mask003.png,,,,,,,,,,,,,,,,,,,,,,,,,,,,,,,,,,,,,,,,,,,,,,,,,,,,,,,,,,,,,,,,
,,608c349d8e7f57e8f84d3a27,65b1a112572ddd00311d4d5e,2024-01-24_23h48.09.561,bars,2023.2.3,Win32,59.88023952,657b66ea316d21385b68909f,,,,,,,,,,,47.605,48.6025,48.6026,49.1023,49.1025,49.3521,49.3521,137,137,52.7497,space,3.365,,52.7499,54.0318,space,1.2561,,0,4,4,0,1,150,bars/single000.png,bars/mask006.png,,,,,,,,,,,,,,,,,,,,,,,,,,,,,,,,,,,,,,,,,,,,,,,,,,,,,,,,,,,,,,,,
,,608c349d8e7f57e8f84d3a27,65b1a112572ddd00311d4d5e,2024-01-24_23h48.09.561,bars,2023.2.3,Win32,59.88023952,657b66ea316d21385b68909f,,,,,,,,,,,54.033,55.0306,55.0308,55.5302,55.5303,55.7856,55.7856,1,181,59.7794,space,3.9777,,59.7795,61.1588,space,1.3596,,0,5,5,1,1,20,bars/single001.png,bars/mask006.png,,,,,,,,,,,,,,,,,,,,,,,,,,,,,,,,,,,,,,,,,,,,,,,,,,,,,,,,,,,,,,,,
,,608c349d8e7f57e8f84d3a27,65b1a112572ddd00311d4d5e,2024-01-24_23h48.09.561,bars,2023.2.3,Win32,59.88023952,657b66ea316d21385b68909f,,,,,,,,,,,61.16,62.1581,62.1582,62.6577,62.6578,62.9073,62.9075,146,146,68.0926,space,5.1634,,68.0927,69.1366,space,1.0171,,0,6,6,8,1,160,bars/single008.png,bars/mask004.png,,,,,,,,,,,,,,,,,,,,,,,,,,,,,,,,,,,,,,,,,,,,,,,,,,,,,,,,,,,,,,,,
,,608c349d8e7f57e8f84d3a27,65b1a112572ddd00311d4d5e,2024-01-24_23h48.09.561,bars,2023.2.3,Win32,59.88023952,657b66ea316d21385b68909f,,,,,,,,,,,69.1372,70.1351,70.1352,70.6346,70.6347,70.884,70.8842,48,48,72.2497,space,1.3366,,72.2498,73.2822,space,1.0089,,0,7,7,7,1,45,bars/single007.png,bars/mask009.png,,,,,,,,,,,,,,,,,,,,,,,,,,,,,,,,,,,,,,,,,,,,,,,,,,,,,,,,,,,,,,,,
,,608c349d8e7f57e8f84d3a27,65b1a112572ddd00311d4d5e,2024-01-24_23h48.09.561,bars,2023.2.3,Win32,59.88023952,657b66ea316d21385b68909f,,,,,,,,,,,73.2835,74.2811,74.2812,74.7805,74.7806,75.0308,75.0309,177,177,78.3339,space,3.2813,,78.3339,79.128,space,0.772,,0,8,8,3,1,20,bars/single003.png,bars/mask005.png,,,,,,,,,,,,,,,,,,,,,,,,,,,,,,,,,,,,,,,,,,,,,,,,,,,,,,,,,,,,,,,,
,,608c349d8e7f57e8f84d3a27,65b1a112572ddd00311d4d5e,2024-01-24_23h48.09.561,bars,2023.2.3,Win32,59.88023952,657b66ea316d21385b68909f,,,,,,,,,,,79.1291,80.127,80.1271,80.6262,80.6263,80.8647,80.8647,87,87,82.0752,space,1.2017,,82.0754,82.8248,space,0.7185,,0,9,9,5,1,55,bars/single005.png,bars/mask008.png,,,,,,,,,,,,,,,,,,,,,,,,,,,,,,,,,,,,,,,,,,,,,,,,,,,,,,,,,,,,,,,,
,,608c349d8e7f57e8f84d3a27,65b1a112572ddd00311d4d5e,2024-01-24_23h48.09.561,bars,2023.2.3,Win32,59.88023952,657b66ea316d21385b68909f,,,,,,,,,,,,,,,,,,,,,,,,,,,,,,,,,,,,,82.8264,92.951,space,10.0929,,,,,,,,,,,,,,,,,,,,,,,,,,,,,,,,,,,,,,,,,,,,,,,,,,,,,,,,,,,,
,,608c349d8e7f57e8f84d3a27,65b1a112572ddd00311d4d5e,2024-01-24_23h48.09.561,bars,2023.2.3,Win32,59.88023952,657b66ea316d21385b68909f,,,,,,,,,,,,,,,,,,,,,,,,,,,,,,,,,,,,,,,,,,92.958,97.4635,right,4.4884,,97.4639,2,2,98.4618,0,0,0,0,1,9,1,9,2,,,,,,,,,,,,,,,,,,,,,,,,,,,,,,,,,,,,,,,,,
,,608c349d8e7f57e8f84d3a27,65b1a112572ddd00311d4d5e,2024-01-24_23h48.09.561,bars,2023.2.3,Win32,59.88023952,657b66ea316d21385b68909f,,,,,,,,,,,,,,,,,,,,,,,,,,,,,,,,,,,,,,,,,,98.463,101.0924,right,2.608,,101.0925,1,2,102.0918,0,1,1,1,1,10,0,10,1,,,,,,,,,,,,,,,,,,,,,,,,,,,,,,,,,,,,,,,,,
,,608c349d8e7f57e8f84d3a27,65b1a112572ddd00311d4d5e,2024-01-24_23h48.09.561,bars,2023.2.3,Win32,59.88023952,657b66ea316d21385b68909f,,,,,,,,,,,,,,,,,,,,,,,,,,,,,,,,,,,,,,,,,,102.0993,106.6389,right,4.5139,,106.6391,2,2,107.6379,0,2,2,2,1,10,2,10,2,,,,,,,,,,,,,,,,,,,,,,,,,,,,,,,,,,,,,,,,,
,,608c349d8e7f57e8f84d3a27,65b1a112572ddd00311d4d5e,2024-01-24_23h48.09.561,bars,2023.2.3,Win32,59.88023952,657b66ea316d21385b68909f,,,,,,,,,,,,,,,,,,,,,,,,,,,,,,,,,,,,,,,,,,107.6462,108.9533,left,1.2878,,108.9536,7,1,109.9521,0,3,3,3,1,8,4,7,3,,,,,,,,,,,,,,,,,,,,,,,,,,,,,,,,,,,,,,,,,
,,608c349d8e7f57e8f84d3a27,65b1a112572ddd00311d4d5e,2024-01-24_23h48.09.561,bars,2023.2.3,Win32,59.88023952,657b66ea316d21385b68909f,,,,,,,,,,,,,,,,,,,,,,,,,,,,,,,,,,,,,,,,,,109.9534,110.8176,left,0.8428,,110.8177,5,1,111.8169,0,4,4,4,1,6,2,5,1,,,,,,,,,,,,,,,,,,,,,,,,,,,,,,,,,,,,,,,,,
,,608c349d8e7f57e8f84d3a27,65b1a112572ddd00311d4d5e,2024-01-24_23h48.09.561,bars,2023.2.3,Win32,59.88023952,657b66ea316d21385b68909f,,,,,,,,,,,,,,,,,,,,,,,,,,,,,,,,,,,,,,,,,,111.818,112.451,left,0.6054,,112.4512,4,1,113.4487,0,5,5,5,1,4,4,4,4,,,,,,,,,,,,,,,,,,,,,,,,,,,,,,,,,,,,,,,,,
,,608c349d8e7f57e8f84d3a27,65b1a112572ddd00311d4d5e,2024-01-24_23h48.09.561,bars,2023.2.3,Win32,59.88023952,657b66ea316d21385b68909f,,,,,,,,,,,,,,,,,,,,,,,,,,,,,,,,,,,,,,,,,,113.4498,115.7308,left,2.2569,,115.731,1,1,116.73,0,6,6,6,1,2,2,1,2,,,,,,,,,,,,,,,,,,,,,,,,,,,,,,,,,,,,,,,,,
,,608c349d8e7f57e8f84d3a27,65b1a112572ddd00311d4d5e,2024-01-24_23h48.09.561,bars,2023.2.3,Win32,59.88023952,657b66ea316d21385b68909f,,,,,,,,,,,,,,,,,,,,,,,,,,,,,,,,,,,,,,,,,,116.7314,117.1135,right,0.3552,,117.1135,1,2,118.1121,0,7,7,7,1,0,0,0,1,,,,,,,,,,,,,,,,,,,,,,,,,,,,,,,,,,,,,,,,,
,,608c349d8e7f57e8f84d3a27,65b1a112572ddd00311d4d5e,2024-01-24_23h48.09.561,bars,2023.2.3,Win32,59.88023952,657b66ea316d21385b68909f,,,,,,,,,,,,,,,,,,,,,,,,,,,,,,,,,,,,,,,,,,118.1133,118.429,right,0.2876,,118.4294,0,2,119.428,0,8,8,8,1,0,2,1,0,,,,,,,,,,,,,,,,,,,,,,,,,,,,,,,,,,,,,,,,,
,,608c349d8e7f57e8f84d3a27,65b1a112572ddd00311d4d5e,2024-01-24_23h48.09.561,bars,2023.2.3,Win32,59.88023952,657b66ea316d21385b68909f,,,,,,,,,,,,,,,,,,,,,,,,,,,,,,,,,,,,,,,,,,119.4293,119.9616,left,0.5105,,119.9617,2,1,120.9599,0,9,9,9,1,2,4,2,3,,,,,,,,,,,,,,,,,,,,,,,,,,,,,,,,,,,,,,,,,
,,608c349d8e7f57e8f84d3a27,65b1a112572ddd00311d4d5e,2024-01-24_23h48.09.561,bars,2023.2.3,Win32,59.88023952,657b66ea316d21385b68909f,,,,,,,,,,,,,,,,,,,,,,,,,,,,,,,,,,,,,,,,,,120.9613,121.2931,left,0.3004,,121.2933,0,1,122.292,0,10,10,10,1,0,2,0,3,,,,,,,,,,,,,,,,,,,,,,,,,,,,,,,,,,,,,,,,,
,,608c349d8e7f57e8f84d3a27,65b1a112572ddd00311d4d5e,2024-01-24_23h48.09.561,bars,2023.2.3,Win32,59.88023952,657b66ea316d21385b68909f,,,,,,,,,,,,,,,,,,,,,,,,,,,,,,,,,,,,,,,,,,122.2933,122.5923,left,0.2696,,122.5924,0,1,123.5906,0,11,11,11,1,0,4,0,3,,,,,,,,,,,,,,,,,,,,,,,,,,,,,,,,,,,,,,,,,
,,608c349d8e7f57e8f84d3a27,65b1a112572ddd00311d4d5e,2024-01-24_23h48.09.561,bars,2023.2.3,Win32,59.88023952,657b66ea316d21385b68909f,,,,,,,,,,,,,,,,,,,,,,,,,,,,,,,,,,,,,,,,,,123.5918,123.8907,right,0.2688,,123.8909,6,2,124.8899,0,12,12,12,1,2,6,1,6,,,,,,,,,,,,,,,,,,,,,,,,,,,,,,,,,,,,,,,,,
,,608c349d8e7f57e8f84d3a27,65b1a112572ddd00311d4d5e,2024-01-24_23h48.09.561,bars,2023.2.3,Win32,59.88023952,657b66ea316d21385b68909f,,,,,,,,,,,,,,,,,,,,,,,,,,,,,,,,,,,,,,,,,,124.891,125.7563,right,0.8381,,125.7563,3,2,126.7547,0,13,13,13,1,0,4,1,3,,,,,,,,,,,,,,,,,,,,,,,,,,,,,,,,,,,,,,,,,
,,608c349d8e7f57e8f84d3a27,65b1a112572ddd00311d4d5e,2024-01-24_23h48.09.561,bars,2023.2.3,Win32,59.88023952,657b66ea316d21385b68909f,,,,,,,,,,,,,,,,,,,,,,,,,,,,,,,,,,,,,,,,,,126.7557,127.0551,left,0.2679,,127.0553,2,1,128.0542,0,14,14,14,1,2,6,2,7,,,,,,,,,,,,,,,,,,,,,,,,,,,,,,,,,,,,,,,,,
,,608c349d8e7f57e8f84d3a27,65b1a112572ddd00311d4d5e,2024-01-24_23h48.09.561,bars,2023.2.3,Win32,59.88023952,657b66ea316d21385b68909f,,,,,,,,,,,,,,,,,,,,,,,,,,,,,,,,,,,,,,,,,,128.0556,128.1541,right,0.068,,128.1543,9,2,129.153,0,15,15,15,1,4,8,3,9,,,,,,,,,,,,,,,,,,,,,,,,,,,,,,,,,,,,,,,,,
,,608c349d8e7f57e8f84d3a27,65b1a112572ddd00311d4d5e,2024-01-24_23h48.09.561,bars,2023.2.3,Win32,59.88023952,657b66ea316d21385b68909f,,,,,,,,,,,,,,,,,,,,,,,,,,,,,,,,,,,,,,,,,,129.1542,129.4535,left,0.2682,,129.4537,7,1,130.4515,0,16,16,16,1,6,6,7,7,,,,,,,,,,,,,,,,,,,,,,,,,,,,,,,,,,,,,,,,,
,,608c349d8e7f57e8f84d3a27,65b1a112572ddd00311d4d5e,2024-01-24_23h48.09.561,bars,2023.2.3,Win32,59.88023952,657b66ea316d21385b68909f,,,,,,,,,,,,,,,,,,,,,,,,,,,,,,,,,,,,,,,,,,130.4526,130.6521,right,0.1675,,130.6523,5,2,131.6508,0,17,17,17,1,8,4,9,5,,,,,,,,,,,,,,,,,,,,,,,,,,,,,,,,,,,,,,,,,
,,608c349d8e7f57e8f84d3a27,65b1a112572ddd00311d4d5e,2024-01-24_23h48.09.561,bars,2023.2.3,Win32,59.88023952,657b66ea316d21385b68909f,,,,,,,,,,,,,,,,,,,,,,,,,,,,,,,,,,,,,,,,,,131.6519,131.9012,left,0.2175,,131.9014,5,1,132.9002,0,18,18,18,1,6,2,5,1,,,,,,,,,,,,,,,,,,,,,,,,,,,,,,,,,,,,,,,,,
,,608c349d8e7f57e8f84d3a27,65b1a112572ddd00311d4d5e,2024-01-24_23h48.09.561,bars,2023.2.3,Win32,59.88023952,657b66ea316d21385b68909f,,,,,,,,,,,,,,,,,,,,,,,,,,,,,,,,,,,,,,,,,,132.9014,133.1498,right,0.2241,,133.1499,0,2,134.149,0,19,19,19,1,8,0,7,0,,,,,,,,,,,,,,,,,,,,,,,,,,,,,,,,,,,,,,,,,
,,608c349d8e7f57e8f84d3a27,65b1a112572ddd00311d4d5e,2024-01-24_23h48.09.561,bars,2023.2.3,Win32,59.88023952,657b66ea316d21385b68909f,,,,,,,,,,,,,,,,,,,,,,,,,,,,,,,,,,,,,,,,,,,,,,,,,,,,,,,,,,,,134.1507,143.5093,space,9.3261,,,,,,,,,,,,,,,,,,,,,,,,,,,,,,,,,,,,,
,,608c349d8e7f57e8f84d3a27,65b1a112572ddd00311d4d5e,2024-01-24_23h48.09.561,bars,2023.2.3,Win32,59.88023952,657b66ea316d21385b68909f,,,,,,,,,,,144.1953,145.19,,,145.6905,145.9393,,93,93,,,,,,,,,,,,,,,,bars/002.png,bars/mask000.png,,,,,,,,,,,,0,2,,,,,,,10,1,8,0,,,,,,143.5158,144.1919,space,0.6564,,145.1908,145.6903,145.9402,149.9542,space,3.9855,,149.9543,37,8,150.9523,150.9528,153.5675,space,2.5821,,0,0,0,0,1,130,85,,,,,,,,
,,608c349d8e7f57e8f84d3a27,65b1a112572ddd00311d4d5e,2024-01-24_23h48.09.561,bars,2023.2.3,Win32,59.88023952,657b66ea316d21385b68909f,,,,,,,,,,,153.5681,154.5657,,,155.0656,155.315,,164,164,,,,,,,,,,,,,,,,bars/024.png,bars/mask000.png,,,,,,,,,,,,0,2,,,,,,,8,0,8,0,,,,,,,,,,,154.5661,155.0655,155.3151,160.9777,space,5.6353,,160.9781,44,6,161.976,161.9762,163.5918,space,1.5833,,0,1,1,1,1,120,170,,,,,,,,
,,608c349d8e7f57e8f84d3a27,65b1a112572ddd00311d4d5e,2024-01-24_23h48.09.561,bars,2023.2.3,Win32,59.88023952,657b66ea316d21385b68909f,,,,,,,,,,,163.5929,164.5903,,,165.0905,165.3401,,123,-57,,,,,,,,,,,,,,,,bars/043.png,bars/mask006.png,,,,,,,,,,,,0,2,,,,,,,6,0,5,0,,,,,,,,,,,164.5904,165.0904,165.3403,170.8854,space,5.5223,,170.8855,87,7,171.8849,171.8851,172.9842,space,1.0672,,0,2,2,2,1,30,130,,,,,,,,
,,608c349d8e7f57e8f84d3a27,65b1a112572ddd00311d4d5e,2024-01-24_23h48.09.561,bars,2023.2.3,Win32,59.88023952,657b66ea316d21385b68909f,,,,,,,,,,,172.9852,173.9828,,,174.4825,174.7314,,36,36,,,,,,,,,,,,,,,,bars/031.png,bars/mask003.png,,,,,,,,,,,,0,2,,,,,,,4,2,3,0,,,,,,,,,,,173.983,174.4823,174.7315,177.1962,space,2.4579,,177.1964,84,1,178.1963,178.1965,178.9462,space,0.717,,0,3,3,3,1,120,35,,,,,,,,
,,608c349d8e7f57e8f84d3a27,65b1a112572ddd00311d4d5e,2024-01-24_23h48.09.561,bars,2023.2.3,Win32,59.88023952,657b66ea316d21385b68909f,,,,,,,,,,,178.9471,179.9448,,,180.444,180.6941,,131,131,,,,,,,,,,,,,,,,bars/024.png,bars/mask000.png,,,,,,,,,,,,3,1,,,,,,,6,0,5,0,,,,,,,,,,,179.945,180.4439,180.6942,185.7074,space,4.9806,,185.7076,11,39,186.706,186.7061,187.7717,space,1.0335,,0,4,4,4,1,120,170,,,,,,,,
,,608c349d8e7f57e8f84d3a27,65b1a112572ddd00311d4d5e,2024-01-24_23h48.09.561,bars,2023.2.3,Win32,59.88023952,657b66ea316d21385b68909f,,,,,,,,,,,187.7731,188.7704,,,189.2706,189.52,,127,127,,,,,,,,,,,,,,,,bars/024.png,bars/mask001.png,,,,,,,,,,,,8,1,,,,,,,8,2,10,5,,,,,,,,,,,188.7705,189.2705,189.5202,191.0193,space,1.4694,,191.0194,7,43,192.0183,192.0185,192.6182,space,0.5694,,0,5,5,5,1,120,170,,,,,,,,
,,608c349d8e7f57e8f84d3a27,65b1a112572ddd00311d4d5e,2024-01-24_23h48.09.561,bars,2023.2.3,Win32,59.88023952,657b66ea316d21385b68909f,,,,,,,,,,,192.6193,193.6168,,,194.1168,194.366,,52,52,,,,,,,,,,,,,,,,bars/028.png,bars/mask000.png,,,,,,,,,,,,8,1,,,,,,,10,0,10,1,,,,,,,,,,,193.6169,194.1166,194.3662,199.6958,space,5.3006,,199.696,7,68,200.6942,200.6943,201.2277,space,0.501,,0,6,6,6,1,45,120,,,,,,,,
,,608c349d8e7f57e8f84d3a27,65b1a112572ddd00311d4d5e,2024-01-24_23h48.09.561,bars,2023.2.3,Win32,59.88023952,657b66ea316d21385b68909f,,,,,,,,,,,201.2289,202.2264,,,202.7261,202.9753,,35,35,,,,,,,,,,,,,,,,bars/033.png,bars/mask000.png,,,,,,,,,,,,7,1,,,,,,,10,0,10,0,,,,,,,,,,,202.2267,202.726,202.9754,206.5734,space,3.5812,,206.5736,10,60,207.5722,207.5723,208.122,space,0.5172,,0,7,7,7,1,25,155,,,,,,,,
,,608c349d8e7f57e8f84d3a27,65b1a112572ddd00311d4d5e,2024-01-24_23h48.09.561,bars,2023.2.3,Win32,59.88023952,657b66ea316d21385b68909f,,,,,,,,,,,208.1231,209.1204,,,209.6207,209.8703,,77,77,,,,,,,,,,,,,,,,bars/044.png,bars/mask002.png,,,,,,,,,,,,7,1,,,,,,,10,0,8,0,,,,,,,,,,,209.1205,209.6206,209.8703,211.636,space,1.7427,,211.6361,2,78,212.6345,212.6347,213.167,space,0.5095,,0,8,8,8,1,75,155,,,,,,,,
,,608c349d8e7f57e8f84d3a27,65b1a112572ddd00311d4d5e,2024-01-24_23h48.09.561,bars,2023.2.3,Win32,59.88023952,657b66ea316d21385b68909f,,,,,,,,,,,213.1682,214.166,,,214.6664,214.9163,,154,-26,,,,,,,,,,,,,,,,bars/007.png,bars/mask005.png,,,,,,,,,,,,3,1,,,,,,,8,0,9,0,,,,,,,,,,,214.1661,214.6664,214.9165,219.0294,space,4.0889,,219.0297,21,81,220.0278,220.0279,220.6118,space,0.551,,0,9,9,9,1,175,55,,,,,,,,
,,608c349d8e7f57e8f84d3a27,65b1a112572ddd00311d4d5e,2024-01-24_23h48.09.561,bars,2023.2.3,Win32,59.88023952,657b66ea316d21385b68909f,,,,,,,,,,,220.613,221.6103,,,222.1101,222.3604,,169,-11,,,,,,,,,,,,,,,,bars/035.png,bars/mask005.png,,,,,,,,,,,,6,1,,,,,,,10,2,7,4,,,,,,,,,,,221.6104,222.11,222.3605,224.6085,space,2.2214,,224.6086,6,71,225.6071,225.6072,226.1565,space,0.5172,,0,10,10,10,1,175,60,,,,,,,,
,,608c349d8e7f57e8f84d3a27,65b1a112572ddd00311d4d5e,2024-01-24_23h48.09.561,bars,2023.2.3,Win32,59.88023952,657b66ea316d21385b68909f,,,,,,,,,,,226.1578,227.1559,,,227.6556,227.9053,,167,-13,,,,,,,,,,,,,,,,bars/049.png,bars/mask000.png,,,,,,,,,,,,8,1,,,,,,,10,4,10,4,,,,,,,,,,,227.156,227.6555,227.9054,229.7431,space,1.8161,,229.7431,7,52,230.7363,230.7364,231.137,space,0.373,,0,11,11,11,1,160,115,,,,,,,,
,,608c349d8e7f57e8f84d3a27,65b1a112572ddd00311d4d5e,2024-01-24_23h48.09.561,bars,2023.2.3,Win32,59.88023952,657b66ea316d21385b68909f,,,,,,,,,,,231.1377,232.135,,,232.6344,232.8848,,132,132,,,,,,,,,,,,,,,,bars/017.png,bars/mask008.png,,,,,,,,,,,,4,1,,,,,,,8,6,7,8,,,,,,,,,,,232.1351,232.6344,232.8849,233.8511,space,0.9388,,233.8513,13,87,234.8493,234.8494,235.1665,space,0.2842,,0,12,12,12,1,145,45,,,,,,,,
,,608c349d8e7f57e8f84d3a27,65b1a112572ddd00311d4d5e,2024-01-24_23h48.09.561,bars,2023.2.3,Win32,59.88023952,657b66ea316d21385b68909f,,,,,,,,,,,235.1677,236.1649,,,236.6647,236.9147,,87,87,,,,,,,,,,,,,,,,bars/022.png,bars/mask007.png,,,,,,,,,,,,4,1,,,,,,,6,4,6,2,,,,,,,,,,,236.165,236.6647,236.9148,238.6467,space,1.7054,,238.6468,8,67,239.6459,239.646,240.0128,space,0.3342,,0,13,13,13,1,95,20,,,,,,,,
,,608c349d8e7f57e8f84d3a27,65b1a112572ddd00311d4d5e,2024-01-24_23h48.09.561,bars,2023.2.3,Win32,59.88023952,657b66ea316d21385b68909f,,,,,,,,,,,240.0138,241.0105,,,241.5109,241.76,,6,186,,,,,,,,,,,,,,,,bars/005.png,bars/mask006.png,,,,,,,,,,,,3,1,,,,,,,4,6,4,6,,,,,,,,,,,241.0106,241.5108,241.7602,244.7617,space,2.9791,,244.7617,4,46,245.7577,245.7578,246.2408,space,0.4509,,0,14,14,14,1,10,140,,,,,,,,
,,608c349d8e7f57e8f84d3a27,65b1a112572ddd00311d4d5e,2024-01-24_23h48.09.561,bars,2023.2.3,Win32,59.88023952,657b66ea316d21385b68909f,,,,,,,,,,,246.2419,247.2394,,,247.7393,247.9905,,173,-7,,,,,,,,,,,,,,,,bars/010.png,bars/mask006.png,,,,,,,,,,,,4,1,,,,,,,6,4,5,3,,,,,,,,,,,247.2396,247.7392,247.9906,249.4206,space,1.4213,,249.4207,8,62,250.4202,250.4203,250.8369,space,0.3837,,0,15,15,15,1,165,55,,,,,,,,
,,608c349d8e7f57e8f84d3a27,65b1a112572ddd00311d4d5e,2024-01-24_23h48.09.561,bars,2023.2.3,Win32,59.88023952,657b66ea316d21385b68909f,,,,,,,,,,,250.8381,251.8357,,,252.3354,252.5851,,17,197,,,,,,,,,,,,,,,,bars/016.png,bars/mask003.png,,,,,,,,,,,,1,1,,,,,,,4,2,3,3,,,,,,,,,,,251.8358,252.3352,252.5851,255.5828,space,2.9659,,255.583,23,32,256.5817,256.5818,257.1313,space,0.5216,,0,16,16,16,1,40,165,,,,,,,,
,,608c349d8e7f57e8f84d3a27,65b1a112572ddd00311d4d5e,2024-01-24_23h48.09.561,bars,2023.2.3,Win32,59.88023952,657b66ea316d21385b68909f,,,,,,,,,,,257.1322,258.1302,,,258.6303,258.8799,,128,-52,,,,,,,,,,,,,,,,bars/002.png,bars/mask002.png,,,,,,,,,,,,2,1,,,,,,,2,4,2,4,,,,,,,,,,,258.1304,258.6302,258.88,262.3609,space,3.4642,,262.3611,2,43,263.3595,263.3596,263.7931,space,0.4006,,0,17,17,17,1,130,85,,,,,,,,
,,608c349d8e7f57e8f84d3a27,65b1a112572ddd00311d4d5e,2024-01-24_23h48.09.561,bars,2023.2.3,Win32,59.88023952,657b66ea316d21385b68909f,,,,,,,,,,,263.7942,264.7917,,,265.2913,265.5408,,18,198,,,,,,,,,,,,,,,,bars/016.png,bars/mask004.png,,,,,,,,,,,,0,1,,,,,,,0,2,0,2,,,,,,,,,,,264.7919,265.2912,265.5409,267.923,space,2.3537,,267.9231,22,33,268.9213,268.9214,269.4379,space,0.4837,,0,18,18,18,1,40,165,,,,,,,,
,,608c349d8e7f57e8f84d3a27,65b1a112572ddd00311d4d5e,2024-01-24_23h48.09.561,bars,2023.2.3,Win32,59.88023952,657b66ea316d21385b68909f,,,,,,,,,,,269.4392,270.437,,,270.9368,271.1864,,155,-25,,,,,,,,,,,,,,,,bars/011.png,bars/mask007.png,,,,,,,,,,,,0,1,,,,,,,0,4,0,4,,,,,,,,,,,270.4371,270.9367,271.1865,274.5509,space,3.3344,,274.5511,5,70,275.5498,275.5499,276.1328,space,0.5587,,0,19,19,19,1,160,85,,,,,,,,
,,608c349d8e7f57e8f84d3a27,65b1a112572ddd00311d4d5e,2024-01-24_23h48.09.561,bars,2023.2.3,Win32,59.88023952,657b66ea316d21385b68909f,,,,,,,,,,,276.1341,277.1315,,,277.6316,277.8808,,74,74,,,,,,,,,,,,,,,,bars/047.png,bars/mask000.png,,,,,,,,,,,,3,2,,,,,,,2,2,1,3,,,,,,,,,,,277.1317,277.6315,277.881,279.9789,space,2.0747,,279.979,59,4,280.9784,280.9786,281.317,space,0.3167,,0,20,20,20,1,15,70,,,,,,,,
,,608c349d8e7f57e8f84d3a27,65b1a112572ddd00311d4d5e,2024-01-24_23h48.09.561,bars,2023.2.3,Win32,59.88023952,657b66ea316d21385b68909f,,,,,,,,,,,281.3172,282.3104,,,282.8103,283.0602,,5,185,,,,,,,,,,,,,,,,bars/032.png,bars/mask007.png,,,,,,,,,,,,3,2,,,,,,,0,4,0,5,,,,,,,,,,,282.3105,282.8102,283.0603,286.791,space,3.6977,,286.7913,60,15,287.7897,287.7898,288.1286,space,0.3169,,0,21,21,21,1,125,20,,,,,,,,
,,608c349d8e7f57e8f84d3a27,65b1a112572ddd00311d4d5e,2024-01-24_23h48.09.561,bars,2023.2.3,Win32,59.88023952,657b66ea316d21385b68909f,,,,,,,,,,,288.1288,289.1218,,,289.6211,289.8709,,85,-95,,,,,,,,,,,,,,,,bars/001.png,bars/mask003.png,,,,,,,,,,,,2,2,,,,,,,2,2,2,2,,,,,,,,,,,289.1219,289.6209,289.871,294.3346,space,4.44,,294.3347,45,0,295.3332,295.3333,295.6673,space,0.301,,0,22,22,22,1,130,85,,,,,,,,
,,608c349d8e7f57e8f84d3a27,65b1a112572ddd00311d4d5e,2024-01-24_23h48.09.561,bars,2023.2.3,Win32,59.88023952,657b66ea316d21385b68909f,,,,,,,,,,,295.6681,296.6656,,,297.165,297.415,,91,91,,,,,,,,,,,,,,,,bars/021.png,bars/mask007.png,,,,,,,,,,,,1,2,,,,,,,0,4,0,2,,,,,,,,,,,296.6657,297.1649,297.4151,299.2469,space,1.8,,299.2471,64,21,300.2458,300.246,300.6129,space,0.3393,,0,23,23,23,1,155,70,,,,,,,,
,,608c349d8e7f57e8f84d3a27,65b1a112572ddd00311d4d5e,2024-01-24_23h48.09.561,bars,2023.2.3,Win32,59.88023952,657b66ea316d21385b68909f,,,,,,,,,,,300.6139,301.6111,,,302.1108,302.3601,,3,3,,,,,,,,,,,,,,,,bars/014.png,bars/mask002.png,,,,,,,,,,,,1,2,,,,,,,2,2,2,1,,,,,,,,,,,301.6112,302.1106,302.3602,305.1413,space,2.7537,,305.1415,77,3,306.1405,306.1406,306.5074,space,0.334,,0,24,24,24,1,80,0,,,,,,,,
,,608c349d8e7f57e8f84d3a27,65b1a112572ddd00311d4d5e,2024-01-24_23h48.09.561,bars,2023.2.3,Win32,59.88023952,657b66ea316d21385b68909f,,,,,,,,,,,306.5087,307.5066,,,308.0063,308.256,,53,233,,,,,,,,,,,,,,,,bars/010.png,bars/mask001.png,,,,,,,,,,,,5,2,,,,,,,4,4,3,5,,,,,,,,,,,307.5067,308.0062,308.2561,311.093,space,2.8152,,311.0931,68,2,312.0861,312.0862,312.4199,space,0.3089,,0,25,25,25,1,165,55,,,,,,,,
,,608c349d8e7f57e8f84d3a27,65b1a112572ddd00311d4d5e,2024-01-24_23h48.09.561,bars,2023.2.3,Win32,59.88023952,657b66ea316d21385b68909f,,,,,,,,,,,312.421,313.4186,,,313.9181,314.1677,,7,187,,,,,,,,,,,,,,,,bars/036.png,bars/mask002.png,,,,,,,,,,,,2,2,,,,,,,6,2,6,3,,,,,,,,,,,313.4187,313.918,314.1678,317.5648,space,3.3809,,317.5649,42,13,318.5641,318.5642,319.1329,space,0.5468,,0,26,26,26,1,145,20,,,,,,,,
,,608c349d8e7f57e8f84d3a27,65b1a112572ddd00311d4d5e,2024-01-24_23h48.09.561,bars,2023.2.3,Win32,59.88023952,657b66ea316d21385b68909f,,,,,,,,,,,319.1331,320.1297,,,320.6296,320.8791,,50,50,,,,,,,,,,,,,,,,bars/035.png,bars/mask005.png,,,,,,,,,,,,3,2,,,,,,,8,4,7,4,,,,,,,,,,,320.1298,320.6295,320.8791,323,space,2.099,,323.0001,55,10,323.993,323.9931,324.3262,space,0.3009,,0,27,27,27,1,175,60,,,,,,,,
,,608c349d8e7f57e8f84d3a27,65b1a112572ddd00311d4d5e,2024-01-24_23h48.09.561,bars,2023.2.3,Win32,59.88023952,657b66ea316d21385b68909f,,,,,,,,,,,324.3275,325.3253,,,325.8253,326.0748,,74,74,,,,,,,,,,,,,,,,bars/027.png,bars/mask008.png,,,,,,,,,,,,1,2,,,,,,,10,6,10,5,,,,,,,,,,,325.3254,325.8252,326.075,327.6568,space,1.56,,327.6569,36,24,328.6559,328.6561,329.0062,space,0.3179,,0,28,28,28,1,110,50,,,,,,,,
,,608c349d8e7f57e8f84d3a27,65b1a112572ddd00311d4d5e,2024-01-24_23h48.09.561,bars,2023.2.3,Win32,59.88023952,657b66ea316d21385b68909f,,,,,,,,,,,329.0071,330.0049,,,330.5046,330.7542,,22,22,,,,,,,,,,,,,,,,bars/031.png,bars/mask000.png,,,,,,,,,,,,2,2,,,,,,,10,4,10,4,,,,,,,,,,,330.005,330.5044,330.7542,332.3253,space,1.5504,,332.3253,82,13,333.3188,333.3191,333.6184,space,0.2773,,0,29,29,29,1,120,35,,,,,,,,
,,608c349d8e7f57e8f84d3a27,65b1a112572ddd00311d4d5e,2024-01-24_23h48.09.561,bars,2023.2.3,Win32,59.88023952,657b66ea316d21385b68909f,,,,,,,,,,,333.6193,334.6181,,,335.1175,335.3672,,13,193,,,,,,,,,,,,,,,,bars/013.png,bars/mask008.png,,,,,,,,,,,,5,2,,,,,,,8,6,7,5,,,,,,,,,,,334.6181,335.1174,335.3673,339.1477,space,3.7485,,339.1478,62,3,340.1465,340.1466,340.4796,space,0.3008,,0,30,30,30,1,75,10,,,,,,,,
,,608c349d8e7f57e8f84d3a27,65b1a112572ddd00311d4d5e,2024-01-24_23h48.09.561,bars,2023.2.3,Win32,59.88023952,657b66ea316d21385b68909f,,,,,,,,,,,340.4809,341.479,,,341.9786,342.2287,,108,108,,,,,,,,,,,,,,,,bars/039.png,bars/mask001.png,,,,,,,,,,,,9,2,,,,,,,6,8,6,10,,,,,,,,,,,341.4792,341.9785,342.2288,344.0603,space,1.8078,,344.0604,67,3,345.059,345.0592,345.4091,space,0.3211,,0,31,31,31,1,175,105,,,,,,,,
,,608c349d8e7f57e8f84d3a27,65b1a112572ddd00311d4d5e,2024-01-24_23h48.09.561,bars,2023.2.3,Win32,59.88023952,657b66ea316d21385b68909f,,,,,,,,,,,345.4105,346.4076,,,346.9066,347.1564,,1,1,,,,,,,,,,,,,,,,bars/008.png,bars/mask002.png,,,,,,,,,,,,10,2,,,,,,,4,10,4,10,,,,,,,,,,,346.4079,346.9066,347.1565,350.8261,space,3.6475,,350.8262,71,1,351.8192,351.8193,352.2208,space,0.3673,,0,32,32,32,1,110,0,,,,,,,,
,,608c349d8e7f57e8f84d3a27,65b1a112572ddd00311d4d5e,2024-01-24_23h48.09.561,bars,2023.2.3,Win32,59.88023952,657b66ea316d21385b68909f,,,,,,,,,,,352.2217,353.2193,,,353.7189,353.9685,,94,94,,,,,,,,,,,,,,,,bars/019.png,bars/mask007.png,,,,,,,,,,,,6,2,,,,,,,2,10,2,9,,,,,,,,,,,353.2193,353.7187,353.9685,356.9153,space,2.9259,,356.9154,49,11,357.9154,357.9155,358.2656,space,0.3244,,0,33,33,33,1,45,105,,,,,,,,
,,608c349d8e7f57e8f84d3a27,65b1a112572ddd00311d4d5e,2024-01-24_23h48.09.561,bars,2023.2.3,Win32,59.88023952,657b66ea316d21385b68909f,,,,,,,,,,,358.2665,359.2641,,,359.7642,360.0136,,4,4,,,,,,,,,,,,,,,,bars/045.png,bars/mask005.png,,,,,,,,,,,,6,2,,,,,,,0,8,1,7,,,,,,,,,,,359.2643,359.7641,360.0137,363.3444,space,3.3018,,363.3446,84,6,364.3433,364.3435,364.8101,space,0.4342,,0,34,34,34,1,100,10,,,,,,,,
,,608c349d8e7f57e8f84d3a27,65b1a112572ddd00311d4d5e,2024-01-24_23h48.09.561,bars,2023.2.3,Win32,59.88023952,657b66ea316d21385b68909f,,,,,,,,,,,364.8112,365.8138,,,366.3086,366.5581,,18,18,,,,,,,,,,,,,,,,bars/035.png,bars/mask009.png,,,,,,,,,,,,0,1,,,,,,,0,10,0,9,,,,,,,,,,,365.8138,366.3084,366.5582,367.6132,space,1.0361,,367.6132,23,42,368.6063,368.6064,369.0567,space,0.4176,,0,35,35,35,1,175,60,,,,,,,,
,,608c349d8e7f57e8f84d3a27,65b1a112572ddd00311d4d5e,2024-01-24_23h48.09.561,bars,2023.2.3,Win32,59.88023952,657b66ea316d21385b68909f,,,,,,,,,,,369.0578,370.0548,,,370.5546,370.8047,,165,-15,,,,,,,,,,,,,,,,bars/033.png,bars/mask008.png,,,,,,,,,,,,5,2,,,,,,,2,8,4,7,,,,,,,,,,,370.0551,370.5544,370.8049,373.8352,space,3.0043,,373.8353,40,10,374.8349,374.8351,375.2684,space,0.4009,,0,36,36,36,1,25,155,,,,,,,,
,,608c349d8e7f57e8f84d3a27,65b1a112572ddd00311d4d5e,2024-01-24_23h48.09.561,bars,2023.2.3,Win32,59.88023952,657b66ea316d21385b68909f,,,,,,,,,,,375.2694,376.2669,,,376.7666,377.0163,,169,169,,,,,,,,,,,,,,,,bars/008.png,bars/mask009.png,,,,,,,,,,,,3,2,,,,,,,0,6,0,5,,,,,,,,,,,376.267,376.7665,377.0164,380.2474,space,3.2027,,380.2476,59,11,381.2464,381.2465,381.53,space,0.2508,,0,37,37,37,1,110,0,,,,,,,,
,,608c349d8e7f57e8f84d3a27,65b1a112572ddd00311d4d5e,2024-01-24_23h48.09.561,bars,2023.2.3,Win32,59.88023952,657b66ea316d21385b68909f,,,,,,,,,,,381.531,382.5283,,,383.0283,383.2774,,92,92,,,,,,,,,,,,,,,,bars/001.png,bars/mask002.png,,,,,,,,,,,,6,2,,,,,,,2,8,2,8,,,,,,,,,,,382.5284,383.0282,383.2775,386.3427,space,3.0478,,386.3429,38,7,387.341,387.3413,387.991,space,0.6236,,0,38,38,38,1,130,85,,,,,,,,
,,608c349d8e7f57e8f84d3a27,65b1a112572ddd00311d4d5e,2024-01-24_23h48.09.561,bars,2023.2.3,Win32,59.88023952,657b66ea316d21385b68909f,,,,,,,,,,,387.9921,388.9895,,,389.4892,389.7393,,79,79,,,,,,,,,,,,,,,,bars/038.png,bars/mask003.png,,,,,,,,,,,,7,2,,,,,,,4,10,5,10,,,,,,,,,,,388.9897,389.4891,389.7394,393.2367,space,3.465,,393.237,86,9,394.2355,394.2356,394.6355,space,0.3733,,0,39,39,39,1,165,70,,,,,,,,
,,608c349d8e7f57e8f84d3a27,65b1a112572ddd00311d4d5e,2024-01-24_23h48.09.561,bars,2023.2.3,Win32,59.88023952,657b66ea316d21385b68909f,,,,,,,,,,,394.6368,395.6339,,,396.1338,396.3837,,86,86,,,,,,,,,,,,,,,,bars/042.png,bars/mask008.png,,,,,,,,,,,,6,2,,,,,,,6,10,5,10,,,,,,,,,,,395.6341,396.1336,396.3838,398.7155,space,2.2994,,398.7157,59,11,399.7142,399.7143,400.098,space,0.3598,,0,40,40,40,1,145,75,,,,,,,,
,,608c349d8e7f57e8f84d3a27,65b1a112572ddd00311d4d5e,2024-01-24_23h48.09.561,bars,2023.2.3,Win32,59.88023952,657b66ea316d21385b68909f,,,,,,,,,,,400.0991,401.0962,,,401.5961,401.8461,,96,96,,,,,,,,,,,,,,,,bars/002.png,bars/mask008.png,,,,,,,,,,,,4,2,,,,,,,8,8,8,6,,,,,,,,,,,401.0962,401.5959,401.8463,404.211,space,2.3368,,404.2112,34,11,405.2099,405.21,405.5599,space,0.3227,,0,41,41,41,1,130,85,,,,,,,,
,,608c349d8e7f57e8f84d3a27,65b1a112572ddd00311d4d5e,2024-01-24_23h48.09.561,bars,2023.2.3,Win32,59.88023952,657b66ea316d21385b68909f,,,,,,,,,,,405.5613,406.5588,,,407.0585,407.3081,,81,81,,,,,,,,,,,,,,,,bars/021.png,bars/mask001.png,,,,,,,,,,,,6,2,,,,,,,6,10,5,10,,,,,,,,,,,406.5589,407.0584,407.3081,408.8128,space,1.4829,,408.8129,74,11,409.806,409.806,410.1728,space,0.3399,,0,42,42,42,1,155,70,,,,,,,,
,,608c349d8e7f57e8f84d3a27,65b1a112572ddd00311d4d5e,2024-01-24_23h48.09.561,bars,2023.2.3,Win32,59.88023952,657b66ea316d21385b68909f,,,,,,,,,,,410.174,411.1713,,,411.671,411.9208,,88,88,,,,,,,,,,,,,,,,bars/019.png,bars/mask005.png,,,,,,,,,,,,4,2,,,,,,,8,10,9,10,,,,,,,,,,,411.1714,411.6709,411.9208,416.0348,space,4.0812,,416.035,43,17,417.0336,417.0339,417.4169,space,0.3512,,0,43,43,43,1,45,105,,,,,,,,
,,608c349d8e7f57e8f84d3a27,65b1a112572ddd00311d4d5e,2024-01-24_23h48.09.561,bars,2023.2.3,Win32,59.88023952,657b66ea316d21385b68909f,,,,,,,,,,,417.418,418.4157,,,418.9149,419.1702,,166,-14,,,,,,,,,,,,,,,,bars/033.png,bars/mask001.png,,,,,,,,,,,,6,2,,,,,,,10,10,10,10,,,,,,,,,,,418.4157,418.9148,419.1702,422.6844,space,3.5097,,422.6844,39,11,423.6778,423.6779,424.1446,space,0.4343,,0,44,44,44,1,25,155,,,,,,,,
,,608c349d8e7f57e8f84d3a27,65b1a112572ddd00311d4d5e,2024-01-24_23h48.09.561,bars,2023.2.3,Win32,59.88023952,657b66ea316d21385b68909f,,,,,,,,,,,424.1457,425.1435,,,425.6432,425.893,,138,138,,,,,,,,,,,,,,,,bars/023.png,bars/mask003.png,,,,,,,,,,,,2,2,,,,,,,10,8,10,8,,,,,,,,,,,425.1437,425.6431,425.8931,427.7085,space,1.7859,,427.7087,62,23,428.7073,428.7074,429.024,space,0.2842,,0,45,45,45,1,20,115,,,,,,,,
,,608c349d8e7f57e8f84d3a27,65b1a112572ddd00311d4d5e,2024-01-24_23h48.09.561,bars,2023.2.3,Win32,59.88023952,657b66ea316d21385b68909f,,,,,,,,,,,429.0252,430.0227,,,430.5226,430.7722,,43,43,,,,,,,,,,,,,,,,bars/010.png,bars/mask001.png,,,,,,,,,,,,6,2,,,,,,,10,10,10,10,,,,,,,,,,,430.0228,430.5225,430.7722,432.5705,space,1.7755,,432.5706,58,12,433.5698,433.57,433.9701,space,0.3695,,0,46,46,46,1,165,55,,,,,,,,
,,608c349d8e7f57e8f84d3a27,65b1a112572ddd00311d4d5e,2024-01-24_23h48.09.561,bars,2023.2.3,Win32,59.88023952,657b66ea316d21385b68909f,,,,,,,,,,,433.9712,434.9687,,,435.4684,435.7177,,49,49,,,,,,,,,,,,,,,,bars/029.png,bars/mask009.png,,,,,,,,,,,,9,2,,,,,,,10,10,10,10,,,,,,,,,,,434.9688,435.4684,435.7177,436.6009,space,0.851,,436.601,41,4,437.5996,437.5997,437.8834,space,0.2508,,0,47,47,47,1,90,45,,,,,,,,
,,608c349d8e7f57e8f84d3a27,65b1a112572ddd00311d4d5e,2024-01-24_23h48.09.561,bars,2023.2.3,Win32,59.88023952,657b66ea316d21385b68909f,,,,,,,,,,,437.8846,438.8822,,,439.3818,439.6312,,21,201,,,,,,,,,,,,,,,,bars/029.png,bars/mask004.png,,,,,,,,,,,,2,2,,,,,,,10,10,10,10,,,,,,,,,,,438.8822,439.3817,439.6312,442.33,space,2.69,,442.3302,69,24,443.3285,443.3286,443.6452,space,0.2867,,0,48,48,48,1,90,45,,,,,,,,
,,608c349d8e7f57e8f84d3a27,65b1a112572ddd00311d4d5e,2024-01-24_23h48.09.561,bars,2023.2.3,Win32,59.88023952,657b66ea316d21385b68909f,,,,,,,,,,,443.6466,444.6435,,,445.1322,445.3769,,67,67,,,,,,,,,,,,,,,,bars/030.png,bars/mask009.png,,,,,,,,,,,,6,2,,,,,,,8,8,6,6,,,,,,,,,,,444.6435,445.1322,445.3769,446.9978,space,1.5992,,446.9978,73,2,447.9913,447.9914,448.3413,space,0.3178,,0,49,49,49,1,140,65,,,,,,,,
,,608c349d8e7f57e8f84d3a27,65b1a112572ddd00311d4d5e,2024-01-24_23h48.09.561,bars,2023.2.3,Win32,59.88023952,657b66ea316d21385b68909f,,,,,,,,,,,,,,,,,,,,,,,,,,,,,,,,,,,,,,,,,,,,,,,,,,,,,,,,,,,,,,,,,,,,,,,,,,,,,,,,,,,,,,,,,,,,,448.3426,508.3432,0,0,0,1,1,sequence_tables/blk041.csv
,,608c349d8e7f57e8f84d3a27,65b1a112572ddd00311d4d5e,2024-01-24_23h48.09.561,bars,2023.2.3,Win32,59.88023952,657b66ea316d21385b68909f,,,,,,,,,,,516.8111,517.8005,,,518.3005,518.5503,,103,103,,,,,,,,,,,,,,,,bars/018.png,bars/mask005.png,,,,,,,,,,,,4,2,,,,,,,9,7,10,7,,,,,,508.3495,516.8017,space,8.4342,,517.8006,518.3004,518.5505,520.6486,space,2.0665,,520.6489,47,13,521.6474,521.6475,521.6564,,,,0,0,0,0,1,150,90,,,,,,,,
,,608c349d8e7f57e8f84d3a27,65b1a112572ddd00311d4d5e,2024-01-24_23h48.09.561,bars,2023.2.3,Win32,59.88023952,657b66ea316d21385b68909f,,,,,,,,,,,521.6566,522.6467,,,523.1468,523.3959,,76,256,,,,,,,,,,,,,,,,bars/038.png,bars/mask001.png,,,,,,,,,,,,3,2,,,,,,,7,5,7,4,,,,,,,,,,,522.6468,523.1467,523.396,528.5926,space,5.1794,,528.5928,89,6,529.5911,529.5912,529.5994,,,,0,1,1,1,1,165,70,,,,,,,,
,,608c349d8e7f57e8f84d3a27,65b1a112572ddd00311d4d5e,2024-01-24_23h48.09.561,bars,2023.2.3,Win32,59.88023952,657b66ea316d21385b68909f,,,,,,,,,,,529.5995,530.5898,,,531.0784,531.323,,113,113,,,,,,,,,,,,,,,,bars/002.png,bars/mask001.png,,,,,,,,,,,,1,1,,,,,,,5,7,3,7,,,,,,,,,,,530.5899,531.0784,531.3231,533.9211,space,2.5658,,533.9213,17,28,534.9201,534.9202,534.9269,,,,0,2,2,2,1,130,85,,,,,,,,
,,608c349d8e7f57e8f84d3a27,65b1a112572ddd00311d4d5e,2024-01-24_23h48.09.561,bars,2023.2.3,Win32,59.88023952,657b66ea316d21385b68909f,,,,,,,,,,,534.9271,535.9196,,,536.4189,536.6686,,70,70,,,,,,,,,,,,,,,,bars/046.png,bars/mask004.png,,,,,,,,,,,,3,2,,,,,,,7,5,6,6,,,,,,,,,,,535.9197,536.4188,536.6687,538.4228,space,1.7326,,538.4229,85,15,539.4163,539.4164,539.4249,,,,0,3,3,3,1,155,85,,,,,,,,
,,608c349d8e7f57e8f84d3a27,65b1a112572ddd00311d4d5e,2024-01-24_23h48.09.561,bars,2023.2.3,Win32,59.88023952,657b66ea316d21385b68909f,,,,,,,,,,,539.425,540.4155,,,540.9148,541.165,,161,161,,,,,,,,,,,,,,,,bars/033.png,bars/mask009.png,,,,,,,,,,,,6,2,,,,,,,9,7,9,7,,,,,,,,,,,540.4155,540.9147,541.1651,545.2677,space,4.0808,,545.2677,44,6,546.2607,546.2609,546.2684,,,,0,4,4,4,1,25,155,,,,,,,,
,,608c349d8e7f57e8f84d3a27,65b1a112572ddd00311d4d5e,2024-01-24_23h48.09.561,bars,2023.2.3,Win32,59.88023952,657b66ea316d21385b68909f,,,,,,,,,,,546.2686,547.2599,,,547.7596,548.0091,,49,49,,,,,,,,,,,,,,,,bars/007.png,bars/mask002.png,,,,,,,,,,,,4,2,,,,,,,7,5,6,5,,,,,,,,,,,547.2599,547.7595,548.0093,552.2051,space,4.1765,,552.2052,54,6,553.205,553.205,553.2131,,,,0,5,5,5,1,175,55,,,,,,,,
,,608c349d8e7f57e8f84d3a27,65b1a112572ddd00311d4d5e,2024-01-24_23h48.09.561,bars,2023.2.3,Win32,59.88023952,657b66ea316d21385b68909f,,,,,,,,,,,553.2132,554.2042,,,554.7037,554.9533,,103,103,,,,,,,,,,,,,,,,bars/018.png,bars/mask008.png,,,,,,,,,,,,2,2,,,,,,,5,3,5,3,,,,,,,,,,,554.2043,554.7035,554.9535,559.0006,space,4.0148,,559.0007,47,13,559.9994,559.9995,560.0067,,,,0,6,6,6,1,150,90,,,,,,,,
,,608c349d8e7f57e8f84d3a27,65b1a112572ddd00311d4d5e,2024-01-24_23h48.09.561,bars,2023.2.3,Win32,59.88023952,657b66ea316d21385b68909f,,,,,,,,,,,560.0068,560.9985,,,561.4981,561.7481,,75,75,,,,,,,,,,,,,,,,bars/042.png,bars/mask006.png,,,,,,,,,,,,2,2,,,,,,,7,1,7,2,,,,,,,,,,,560.9985,561.498,561.7483,565.412,space,3.6381,,565.4121,70,0,566.4109,566.411,566.4173,,,,0,7,7,7,1,145,75,,,,,,,,
,,608c349d8e7f57e8f84d3a27,65b1a112572ddd00311d4d5e,2024-01-24_23h48.09.561,bars,2023.2.3,Win32,59.88023952,657b66ea316d21385b68909f,,,,,,,,,,,566.4174,567.4098,,,567.9097,568.1597,,174,-6,,,,,,,,,,,,,,,,bars/013.png,bars/mask000.png,,,,,,,,,,,,1,2,,,,,,,9,3,9,3,,,,,,,,,,,567.4099,567.9095,568.1598,569.9583,space,1.7703,,569.9585,81,16,570.957,570.9571,570.9589,,,,0,8,8,8,1,75,10,,,,,,,,
,,608c349d8e7f57e8f84d3a27,65b1a112572ddd00311d4d5e,2024-01-24_23h48.09.561,bars,2023.2.3,Win32,59.88023952,657b66ea316d21385b68909f,,,,,,,,,,,570.959,571.9563,,,572.4556,572.7057,,6,6,,,,,,,,,,,,,,,,bars/040.png,bars/mask007.png,,,,,,,,,,,,8,2,,,,,,,10,5,10,8,,,,,,,,,,,571.9564,572.4555,572.7058,575.6748,space,2.9481,,575.6748,46,1,576.6694,576.6696,576.6777,,,,0,9,9,9,1,140,5,,,,,,,,
,,608c349d8e7f57e8f84d3a27,65b1a112572ddd00311d4d5e,2024-01-24_23h48.09.561,bars,2023.2.3,Win32,59.88023952,657b66ea316d21385b68909f,,,,,,,,,,,576.6778,577.6684,,,578.1679,578.4177,,21,21,,,,,,,,,,,,,,,,bars/035.png,bars/mask000.png,,,,,,,,,,,,1,1,,,,,,,8,7,7,5,,,,,,,,,,,577.6685,578.1678,578.4177,582.2311,space,3.7815,,582.2312,26,39,583.2303,583.2305,583.2388,,,,0,10,10,10,1,175,60,,,,,,,,
,,608c349d8e7f57e8f84d3a27,65b1a112572ddd00311d4d5e,2024-01-24_23h48.09.561,bars,2023.2.3,Win32,59.88023952,657b66ea316d21385b68909f,,,,,,,,,,,583.2389,584.2291,,,584.7294,584.9679,,106,106,,,,,,,,,,,,,,,,bars/039.png,bars/mask002.png,,,,,,,,,,,,5,2,,,,,,,10,5,10,5,,,,,,,,,,,584.2292,584.7293,584.9679,587.5767,space,2.5939,,587.5768,69,1,588.5759,588.576,588.5848,,,,0,11,11,11,1,175,105,,,,,,,,
,,608c349d8e7f57e8f84d3a27,65b1a112572ddd00311d4d5e,2024-01-24_23h48.09.561,bars,2023.2.3,Win32,59.88023952,657b66ea316d21385b68909f,,,,,,,,,,,588.5849,589.5749,,,590.0748,590.3241,,4,4,,,,,,,,,,,,,,,,bars/016.png,bars/mask006.png,,,,,,,,,,,,1,2,,,,,,,10,3,8,2,,,,,,,,,,,589.575,590.0748,590.3241,592.09,space,1.7335,,592.0902,36,19,593.0891,593.0892,593.0958,,,,0,12,12,12,1,40,165,,,,,,,,
,,608c349d8e7f57e8f84d3a27,65b1a112572ddd00311d4d5e,2024-01-24_23h48.09.561,bars,2023.2.3,Win32,59.88023952,657b66ea316d21385b68909f,,,,,,,,,,,593.0959,594.0882,,,594.5874,594.8375,,111,111,,,,,,,,,,,,,,,,bars/043.png,bars/mask000.png,,,,,,,,,,,,2,2,,,,,,,8,5,7,5,,,,,,,,,,,594.0884,594.5873,594.8376,598.0516,space,3.1852,,598.0518,81,19,599.0511,599.0512,599.0578,,,,0,13,13,13,1,30,130,,,,,,,,
,,608c349d8e7f57e8f84d3a27,65b1a112572ddd00311d4d5e,2024-01-24_23h48.09.561,bars,2023.2.3,Win32,59.88023952,657b66ea316d21385b68909f,,,,,,,,,,,599.058,600.0497,,,600.5495,600.7993,,44,44,,,,,,,,,,,,,,,,bars/035.png,bars/mask006.png,,,,,,,,,,,,3,2,,,,,,,10,7,9,6,,,,,,,,,,,600.0498,600.5495,600.7993,604.613,space,3.7859,,604.6132,49,16,605.6113,605.6113,605.6176,,,,0,14,14,14,1,175,60,,,,,,,,
,,608c349d8e7f57e8f84d3a27,65b1a112572ddd00311d4d5e,2024-01-24_23h48.09.561,bars,2023.2.3,Win32,59.88023952,657b66ea316d21385b68909f,,,,,,,,,,,605.6178,606.6107,,,607.1109,607.3606,,170,170,,,,,,,,,,,,,,,,bars/016.png,bars/mask000.png,,,,,,,,,,,,8,2,,,,,,,8,9,9,10,,,,,,,,,,,606.6108,607.1107,607.3606,610.3414,space,2.9516,,610.3415,50,5,611.3401,611.3401,611.3465,,,,0,15,15,15,1,40,165,,,,,,,,
,,608c349d8e7f57e8f84d3a27,65b1a112572ddd00311d4d5e,2024-01-24_23h48.09.561,bars,2023.2.3,Win32,59.88023952,657b66ea316d21385b68909f,,,,,,,,,,,611.3467,612.3398,,,612.8397,613.0893,,96,96,,,,,,,,,,,,,,,,bars/002.png,bars/mask004.png,,,,,,,,,,,,6,2,,,,,,,6,10,6,10,,,,,,,,,,,612.3399,612.8395,613.0893,614.7546,space,1.635,,614.7547,34,11,615.7537,615.7538,615.7619,,,,0,16,16,16,1,130,85,,,,,,,,
,,608c349d8e7f57e8f84d3a27,65b1a112572ddd00311d4d5e,2024-01-24_23h48.09.561,bars,2023.2.3,Win32,59.88023952,657b66ea316d21385b68909f,,,,,,,,,,,615.7619,616.753,,,617.2523,617.5024,,10,10,,,,,,,,,,,,,,,,bars/022.png,bars/mask000.png,,,,,,,,,,,,5,2,,,,,,,8,10,8,8,,,,,,,,,,,616.7532,617.2522,617.5024,618.9512,space,1.4188,,618.9513,85,10,619.9501,619.9501,619.9518,,,,0,17,17,17,1,95,20,,,,,,,,
,,608c349d8e7f57e8f84d3a27,65b1a112572ddd00311d4d5e,2024-01-24_23h48.09.561,bars,2023.2.3,Win32,59.88023952,657b66ea316d21385b68909f,,,,,,,,,,,619.9521,620.9492,,,621.4489,621.6989,,176,-4,,,,,,,,,,,,,,,,bars/044.png,bars/mask006.png,,,,,,,,,,,,3,2,,,,,,,10,10,10,10,,,,,,,,,,,620.9493,621.4488,621.699,623.3976,space,1.676,,623.3977,79,21,624.3966,624.3967,624.3984,,,,0,18,18,18,1,75,155,,,,,,,,
,,608c349d8e7f57e8f84d3a27,65b1a112572ddd00311d4d5e,2024-01-24_23h48.09.561,bars,2023.2.3,Win32,59.88023952,657b66ea316d21385b68909f,,,,,,,,,,,624.3987,625.3959,,,625.8954,626.1455,,83,83,,,,,,,,,,,,,,,,bars/042.png,bars/mask002.png,,,,,,,,,,,,7,2,,,,,,,8,10,8,10,,,,,,,,,,,625.396,625.8953,626.1456,628.999,space,2.832,,628.9991,62,8,629.992,629.992,630.0006,,,,0,19,19,19,1,145,75,,,,,,,,
,,608c349d8e7f57e8f84d3a27,65b1a112572ddd00311d4d5e,2024-01-24_23h48.09.561,bars,2023.2.3,Win32,59.88023952,657b66ea316d21385b68909f,,,,,,,,,,,630.0007,630.9911,,,631.4904,631.7404,,174,-6,,,,,,,,,,,,,,,,bars/008.png,bars/mask008.png,,,,,,,,,,,,8,2,,,,,,,6,10,6,10,,,,,,,,,,,630.9911,631.4903,631.7404,634.755,space,2.9881,,634.7552,64,6,635.7533,635.7534,635.7598,,,,0,20,20,20,1,110,0,,,,,,,,
,,608c349d8e7f57e8f84d3a27,65b1a112572ddd00311d4d5e,2024-01-24_23h48.09.561,bars,2023.2.3,Win32,59.88023952,657b66ea316d21385b68909f,,,,,,,,,,,635.7599,636.7531,,,637.2523,637.4904,,111,111,,,,,,,,,,,,,,,,bars/023.png,bars/mask003.png,,,,,,,,,,,,9,2,,,,,,,8,10,10,10,,,,,,,,,,,636.7532,637.2523,637.4904,640.7837,space,3.2646,,640.7838,89,4,641.7824,641.7825,641.7903,,,,0,21,21,21,1,20,115,,,,,,,,
,,608c349d8e7f57e8f84d3a27,65b1a112572ddd00311d4d5e,2024-01-24_23h48.09.561,bars,2023.2.3,Win32,59.88023952,657b66ea316d21385b68909f,,,,,,,,,,,641.7904,642.7811,,,643.2811,643.5306,,14,14,,,,,,,,,,,,,,,,bars/036.png,bars/mask000.png,,,,,,,,,,,,6,2,,,,,,,6,8,8,8,,,,,,,,,,,642.7812,643.281,643.5307,647.2939,space,3.7314,,647.294,49,6,648.2936,648.2938,648.3002,,,,0,22,22,22,1,145,20,,,,,,,,
,,608c349d8e7f57e8f84d3a27,65b1a112572ddd00311d4d5e,2024-01-24_23h48.09.561,bars,2023.2.3,Win32,59.88023952,657b66ea316d21385b68909f,,,,,,,,,,,648.3004,649.2929,,,649.7924,650.0411,,0,0,,,,,,,,,,,,,,,,bars/044.png,bars/mask002.png,,,,,,,,,,,,1,2,,,,,,,8,10,7,9,,,,,,,,,,,649.293,649.7923,650.0412,651.741,space,1.6764,,651.741,75,25,652.74,652.7402,652.7418,,,,0,23,23,23,1,75,155,,,,,,,,
,,608c349d8e7f57e8f84d3a27,65b1a112572ddd00311d4d5e,2024-01-24_23h48.09.561,bars,2023.2.3,Win32,59.88023952,657b66ea316d21385b68909f,,,,,,,,,,,652.7419,653.7392,,,654.2388,654.4885,,26,206,,,,,,,,,,,,,,,,bars/017.png,bars/mask008.png,,,,,,,,,,,,4,2,,,,,,,6,10,7,10,,,,,,,,,,,653.7393,654.2387,654.4886,656.3766,space,1.8661,,656.3766,61,19,657.3695,657.3697,657.3774,,,,0,24,24,24,1,145,45,,,,,,,,
,,608c349d8e7f57e8f84d3a27,65b1a112572ddd00311d4d5e,2024-01-24_23h48.09.561,bars,2023.2.3,Win32,59.88023952,657b66ea316d21385b68909f,,,,,,,,,,,657.3774,658.3688,,,658.8678,659.1179,,2,2,,,,,,,,,,,,,,,,bars/032.png,bars/mask009.png,,,,,,,,,,,,3,2,,,,,,,4,8,4,8,,,,,,,,,,,658.3689,658.8677,659.1179,662.7155,space,3.5878,,662.7157,57,18,663.7143,663.7144,663.7228,,,,0,25,25,25,1,125,20,,,,,,,,
,,608c349d8e7f57e8f84d3a27,65b1a112572ddd00311d4d5e,2024-01-24_23h48.09.561,bars,2023.2.3,Win32,59.88023952,657b66ea316d21385b68909f,,,,,,,,,,,663.7229,664.7132,,,665.213,665.4629,,1,181,,,,,,,,,,,,,,,,bars/040.png,bars/mask004.png,,,,,,,,,,,,9,2,,,,,,,2,10,3,10,,,,,,,,,,,664.7134,665.213,665.4629,669.2272,space,3.7368,,669.2274,41,4,670.2256,670.2257,670.232,,,,0,26,26,26,1,140,5,,,,,,,,
,,608c349d8e7f57e8f84d3a27,65b1a112572ddd00311d4d5e,2024-01-24_23h48.09.561,bars,2023.2.3,Win32,59.88023952,657b66ea316d21385b68909f,,,,,,,,,,,670.2322,671.2248,,,671.7244,671.9741,,106,106,,,,,,,,,,,,,,,,bars/018.png,bars/mask007.png,,,,,,,,,,,,4,2,,,,,,,0,8,0,9,,,,,,,,,,,671.2249,671.7242,671.9741,675.8432,space,3.8482,,675.8432,44,16,676.8369,676.837,676.8449,,,,0,27,27,27,1,150,90,,,,,,,,
,,608c349d8e7f57e8f84d3a27,65b1a112572ddd00311d4d5e,2024-01-24_23h48.09.561,bars,2023.2.3,Win32,59.88023952,657b66ea316d21385b68909f,,,,,,,,,,,676.8449,677.8356,,,678.3359,678.5855,,59,59,,,,,,,,,,,,,,,,bars/007.png,bars/mask008.png,,,,,,,,,,,,9,2,,,,,,,0,10,0,10,,,,,,,,,,,677.8358,678.3358,678.5855,681.0062,space,2.3988,,681.0063,64,4,681.9993,681.9994,682.0075,,,,0,28,28,28,1,175,55,,,,,,,,
,,608c349d8e7f57e8f84d3a27,65b1a112572ddd00311d4d5e,2024-01-24_23h48.09.561,bars,2023.2.3,Win32,59.88023952,657b66ea316d21385b68909f,,,,,,,,,,,682.0077,682.9985,,,683.4982,683.7478,,120,120,,,,,,,,,,,,,,,,bars/049.png,bars/mask009.png,,,,,,,,,,,,8,2,,,,,,,2,10,2,9,,,,,,,,,,,682.9986,683.4982,683.748,685.9626,space,2.1986,,685.9627,40,5,686.9616,686.9617,686.9634,,,,0,29,29,29,1,160,115,,,,,,,,
,,608c349d8e7f57e8f84d3a27,65b1a112572ddd00311d4d5e,2024-01-24_23h48.09.561,bars,2023.2.3,Win32,59.88023952,657b66ea316d21385b68909f,,,,,,,,,,,686.9636,687.9603,,,688.4602,688.71,,174,-6,,,,,,,,,,,,,,,,bars/033.png,bars/mask005.png,,,,,,,,,,,,3,2,,,,,,,0,8,0,8,,,,,,,,,,,687.9604,688.4601,688.71,690.4431,space,1.7217,,690.4432,31,19,691.4413,691.4414,691.4505,,,,0,30,30,30,1,25,155,,,,,,,,
,,608c349d8e7f57e8f84d3a27,65b1a112572ddd00311d4d5e,2024-01-24_23h48.09.561,bars,2023.2.3,Win32,59.88023952,657b66ea316d21385b68909f,,,,,,,,,,,691.4506,692.4406,,,692.9399,693.1903,,68,68,,,,,,,,,,,,,,,,bars/025.png,bars/mask004.png,,,,,,,,,,,,1,2,,,,,,,2,10,3,9,,,,,,,,,,,692.4406,692.9397,693.1904,695.8706,space,2.6581,,695.8707,37,28,696.8706,696.8706,696.8787,,,,0,31,31,31,1,105,40,,,,,,,,
,,608c349d8e7f57e8f84d3a27,65b1a112572ddd00311d4d5e,2024-01-24_23h48.09.561,bars,2023.2.3,Win32,59.88023952,657b66ea316d21385b68909f,,,,,,,,,,,696.8788,697.8696,,,698.3693,698.619,,97,97,,,,,,,,,,,,,,,,bars/019.png,bars/mask005.png,,,,,,,,,,,,7,2,,,,,,,4,10,3,10,,,,,,,,,,,697.8697,698.3693,698.6191,702.5497,space,3.9041,,702.55,52,8,703.5475,703.5476,703.5545,,,,0,32,32,32,1,45,105,,,,,,,,
,,608c349d8e7f57e8f84d3a27,65b1a112572ddd00311d4d5e,2024-01-24_23h48.09.561,bars,2023.2.3,Win32,59.88023952,657b66ea316d21385b68909f,,,,,,,,,,,703.5546,704.5492,,,705.0467,705.297,,164,-16,,,,,,,,,,,,,,,,bars/044.png,bars/mask001.png,,,,,,,,,,,,7,2,,,,,,,2,10,4,10,,,,,,,,,,,704.5492,705.0466,705.2971,707.9941,space,2.6752,,707.9942,89,9,708.9939,708.994,709.0019,,,,0,33,33,33,1,75,155,,,,,,,,
,,608c349d8e7f57e8f84d3a27,65b1a112572ddd00311d4d5e,2024-01-24_23h48.09.561,bars,2023.2.3,Win32,59.88023952,657b66ea316d21385b68909f,,,,,,,,,,,709.002,709.9933,,,710.4927,710.7424,,95,95,,,,,,,,,,,,,,,,bars/001.png,bars/mask008.png,,,,,,,,,,,,5,2,,,,,,,0,8,0,8,,,,,,,,,,,709.9934,710.4926,710.7424,712.4801,space,1.7162,,712.4801,35,10,713.4736,713.4737,713.4812,,,,0,34,34,34,1,130,85,,,,,,,,
,,608c349d8e7f57e8f84d3a27,65b1a112572ddd00311d4d5e,2024-01-24_23h48.09.561,bars,2023.2.3,Win32,59.88023952,657b66ea316d21385b68909f,,,,,,,,,,,713.4813,714.4726,,,714.9726,715.2216,,59,59,,,,,,,,,,,,,,,,bars/025.png,bars/mask009.png,,,,,,,,,,,,2,2,,,,,,,2,6,2,6,,,,,,,,,,,714.4728,714.9724,715.2217,717.3597,space,2.1159,,717.3598,46,19,718.3528,718.3529,718.3597,,,,0,35,35,35,1,105,40,,,,,,,,
,,608c349d8e7f57e8f84d3a27,65b1a112572ddd00311d4d5e,2024-01-24_23h48.09.561,bars,2023.2.3,Win32,59.88023952,657b66ea316d21385b68909f,,,,,,,,,,,718.3599,719.3573,,,719.8515,720.0903,,16,196,,,,,,,,,,,,,,,,bars/036.png,bars/mask006.png,,,,,,,,,,,,3,2,,,,,,,4,4,4,4,,,,,,,,,,,719.3573,719.8515,720.0903,723.7988,space,3.6919,,723.7989,51,4,724.7975,724.7976,724.8068,,,,0,36,36,36,1,145,20,,,,,,,,
,,608c349d8e7f57e8f84d3a27,65b1a112572ddd00311d4d5e,2024-01-24_23h48.09.561,bars,2023.2.3,Win32,59.88023952,657b66ea316d21385b68909f,,,,,,,,,,,724.807,725.7969,,,726.2963,726.5462,,127,127,,,,,,,,,,,,,,,,bars/004.png,bars/mask001.png,,,,,,,,,,,,7,2,,,,,,,2,6,3,8,,,,,,,,,,,725.797,726.2962,726.5463,728.2009,space,1.633,,728.201,78,2,729.194,729.1941,729.1956,,,,0,37,37,37,1,25,125,,,,,,,,
,,608c349d8e7f57e8f84d3a27,65b1a112572ddd00311d4d5e,2024-01-24_23h48.09.561,bars,2023.2.3,Win32,59.88023952,657b66ea316d21385b68909f,,,,,,,,,,,729.1958,730.1929,,,730.6929,730.9425,,39,39,,,,,,,,,,,,,,,,bars/017.png,bars/mask008.png,,,,,,,,,,,,6,2,,,,,,,4,8,4,7,,,,,,,,,,,730.193,730.6929,730.9426,732.5083,space,1.5385,,732.5084,74,6,733.5067,733.5068,733.5087,,,,0,38,38,38,1,145,45,,,,,,,,
,,608c349d8e7f57e8f84d3a27,65b1a112572ddd00311d4d5e,2024-01-24_23h48.09.561,bars,2023.2.3,Win32,59.88023952,657b66ea316d21385b68909f,,,,,,,,,,,733.5087,734.5061,,,735.0059,735.2553,,99,-81,,,,,,,,,,,,,,,,bars/002.png,bars/mask002.png,,,,,,,,,,,,5,2,,,,,,,6,10,5,10,,,,,,,,,,,734.5062,735.0058,735.2554,739.3691,space,4.0814,,739.3692,31,14,740.368,740.3681,740.3762,,,,0,39,39,39,1,130,85,,,,,,,,
,,608c349d8e7f57e8f84d3a27,65b1a112572ddd00311d4d5e,2024-01-24_23h48.09.561,bars,2023.2.3,Win32,59.88023952,657b66ea316d21385b68909f,,,,,,,,,,,740.3764,741.3668,,,741.8672,742.1166,,78,78,,,,,,,,,,,,,,,,bars/026.png,bars/mask004.png,,,,,,,,,,,,6,2,,,,,,,8,8,6,8,,,,,,,,,,,741.367,741.867,742.1168,743.5214,space,1.383,,743.5214,43,7,744.514,744.5141,744.5163,,,,0,40,40,40,1,35,85,,,,,,,,
,,608c349d8e7f57e8f84d3a27,65b1a112572ddd00311d4d5e,2024-01-24_23h48.09.561,bars,2023.2.3,Win32,59.88023952,657b66ea316d21385b68909f,,,,,,,,,,,744.5165,745.5135,,,746.0132,746.2638,,125,125,,,,,,,,,,,,,,,,bars/049.png,bars/mask008.png,,,,,,,,,,,,4,2,,,,,,,6,6,5,6,,,,,,,,,,,745.5137,746.0131,746.2638,748.112,space,1.8236,,748.112,35,10,749.1105,749.1106,749.1125,,,,0,41,41,41,1,160,115,,,,,,,,
,,608c349d8e7f57e8f84d3a27,65b1a112572ddd00311d4d5e,2024-01-24_23h48.09.561,bars,2023.2.3,Win32,59.88023952,657b66ea316d21385b68909f,,,,,,,,,,,749.1127,750.11,,,750.6097,750.8592,,56,56,,,,,,,,,,,,,,,,bars/017.png,bars/mask008.png,,,,,,,,,,,,4,2,,,,,,,4,8,6,7,,,,,,,,,,,750.11,750.6097,750.8593,752.3755,space,1.5067,,752.3756,89,11,753.3741,753.3742,753.376,,,,0,42,42,42,1,145,45,,,,,,,,
,,608c349d8e7f57e8f84d3a27,65b1a112572ddd00311d4d5e,2024-01-24_23h48.09.561,bars,2023.2.3,Win32,59.88023952,657b66ea316d21385b68909f,,,,,,,,,,,753.3761,754.3732,,,754.8729,755.1226,,118,118,,,,,,,,,,,,,,,,bars/023.png,bars/mask001.png,,,,,,,,,,,,8,2,,,,,,,6,10,5,9,,,,,,,,,,,754.3733,754.8727,755.1227,756.2945,space,1.15,,756.2945,82,3,757.2874,757.2875,757.2893,,,,0,43,43,43,1,20,115,,,,,,,,
,,608c349d8e7f57e8f84d3a27,65b1a112572ddd00311d4d5e,2024-01-24_23h48.09.561,bars,2023.2.3,Win32,59.88023952,657b66ea316d21385b68909f,,,,,,,,,,,757.2894,758.2867,,,758.7862,759.0364,,8,188,,,,,,,,,,,,,,,,bars/016.png,bars/mask007.png,,,,,,,,,,,,1,2,,,,,,,4,8,4,6,,,,,,,,,,,758.2867,758.7861,759.0365,763.0822,space,4.0238,,763.0824,32,23,764.0822,764.0822,764.0905,,,,0,44,44,44,1,40,165,,,,,,,,
,,608c349d8e7f57e8f84d3a27,65b1a112572ddd00311d4d5e,2024-01-24_23h48.09.561,bars,2023.2.3,Win32,59.88023952,657b66ea316d21385b68909f,,,,,,,,,,,764.0906,765.0809,,,765.5806,765.8303,,102,102,,,,,,,,,,,,,,,,bars/018.png,bars/mask006.png,,,,,,,,,,,,5,2,,,,,,,6,10,6,8,,,,,,,,,,,765.0811,765.5805,765.8304,767.8015,space,1.9492,,767.8015,48,12,768.7948,768.7949,768.8014,,,,0,45,45,45,1,150,90,,,,,,,,
,,608c349d8e7f57e8f84d3a27,65b1a112572ddd00311d4d5e,2024-01-24_23h48.09.561,bars,2023.2.3,Win32,59.88023952,657b66ea316d21385b68909f,,,,,,,,,,,768.8014,769.7935,,,770.2937,770.5433,,3,183,,,,,,,,,,,,,,,,bars/040.png,bars/mask008.png,,,,,,,,,,,,9,2,,,,,,,8,10,9,10,,,,,,,,,,,769.7936,770.2936,770.5433,774.996,space,4.4306,,774.9961,43,2,775.9888,775.9889,775.9952,,,,0,46,46,46,1,140,5,,,,,,,,
,,608c349d8e7f57e8f84d3a27,65b1a112572ddd00311d4d5e,2024-01-24_23h48.09.561,bars,2023.2.3,Win32,59.88023952,657b66ea316d21385b68909f,,,,,,,,,,,775.9953,776.988,,,777.4876,777.7376,,108,108,,,,,,,,,,,,,,,,bars/009.png,bars/mask008.png,,,,,,,,,,,,7,2,,,,,,,10,8,10,8,,,,,,,,,,,776.9882,777.4875,777.7376,778.4374,space,0.675,,778.4377,87,3,779.4359,779.436,779.4376,,,,0,47,47,47,1,15,105,,,,,,,,
,,608c349d8e7f57e8f84d3a27,65b1a112572ddd00311d4d5e,2024-01-24_23h48.09.561,bars,2023.2.3,Win32,59.88023952,657b66ea316d21385b68909f,,,,,,,,,,,779.4379,780.4352,,,780.9349,781.1849,,70,70,,,,,,,,,,,,,,,,bars/038.png,bars/mask006.png,,,,,,,,,,,,7,2,,,,,,,10,6,10,7,,,,,,,,,,,780.4352,780.9349,781.1849,784.4822,space,3.272,,784.4823,85,0,785.4807,785.4809,785.4874,,,,0,48,48,48,1,165,70,,,,,,,,
,,608c349d8e7f57e8f84d3a27,65b1a112572ddd00311d4d5e,2024-01-24_23h48.09.561,bars,2023.2.3,Win32,59.88023952,657b66ea316d21385b68909f,,,,,,,,,,,785.4875,786.4798,,,786.9799,787.2296,,81,81,,,,,,,,,,,,,,,,bars/041.png,bars/mask004.png,,,,,,,,,,,,6,2,,,,,,,8,8,8,7,,,,,,,,,,,786.4799,786.9798,787.2297,788.6787,space,1.4192,,788.6789,61,4,789.6774,789.6775,789.6793,,,,0,49,49,49,1,20,85,,,,,,,,
,,608c349d8e7f57e8f84d3a27,65b1a112572ddd00311d4d5e,2024-01-24_23h48.09.561,bars,2023.2.3,Win32,59.88023952,657b66ea316d21385b68909f,,,,,,,,,,,,,,,,,,,,,,,,,,,,,,,,,,,,,,,,,,,,,,,,,,,,,,,,,,,,,,,,,,,,,,,,,,,,,,,,,,,,,,,,,,,,,789.6793,849.6782,0,1,1,4,1,sequence_tables/blk032.csv
,,608c349d8e7f57e8f84d3a27,65b1a112572ddd00311d4d5e,2024-01-24_23h48.09.561,bars,2023.2.3,Win32,59.88023952,657b66ea316d21385b68909f,,,,,,,,,,,886.275,887.2639,,,887.7635,888.0135,,14,194,,,,,,,,,,,,,,,,bars/012.png,bars/mask009.png,,,,,,,,,,,,3,2,,,,,,,3,3,2,3,,,,,,849.6853,886.2651,space,36.5548,,887.264,887.7634,888.0137,892.0606,space,4.0175,,892.0607,76,1,893.0588,893.0589,893.0668,,,,0,0,0,0,1,90,15,,,,,,,,
,,608c349d8e7f57e8f84d3a27,65b1a112572ddd00311d4d5e,2024-01-24_23h48.09.561,bars,2023.2.3,Win32,59.88023952,657b66ea316d21385b68909f,,,,,,,,,,,893.0669,894.0584,,,894.5583,894.8077,,110,-70,,,,,,,,,,,,,,,,bars/018.png,bars/mask005.png,,,,,,,,,,,,1,2,,,,,,,1,1,1,2,,,,,,,,,,,894.0585,894.5582,894.8077,899.3404,space,4.5105,,899.3404,40,20,900.3367,900.3369,900.3465,,,,0,1,1,1,1,150,90,,,,,,,,
,,608c349d8e7f57e8f84d3a27,65b1a112572ddd00311d4d5e,2024-01-24_23h48.09.561,bars,2023.2.3,Win32,59.88023952,657b66ea316d21385b68909f,,,,,,,,,,,900.3466,901.3357,,,901.8356,902.0855,,6,186,,,,,,,,,,,,,,,,bars/048.png,bars/mask004.png,,,,,,,,,,,,0,2,,,,,,,3,0,4,0,,,,,,,,,,,901.3358,901.8354,902.0856,906.6822,space,4.564,,906.6824,44,11,907.6804,907.6806,907.6889,,,,0,2,2,2,1,50,175,,,,,,,,
,,608c349d8e7f57e8f84d3a27,65b1a112572ddd00311d4d5e,2024-01-24_23h48.09.561,bars,2023.2.3,Win32,59.88023952,657b66ea316d21385b68909f,,,,,,,,,,,907.6891,908.6802,,,909.1796,909.4292,,171,-9,,,,,,,,,,,,,,,,bars/014.png,bars/mask009.png,,,,,,,,,,,,3,2,,,,,,,1,2,0,4,,,,,,,,,,,908.6803,909.1795,909.4294,911.4502,space,1.9991,,911.4502,89,9,912.4436,912.4437,912.4514,,,,0,3,3,3,1,80,0,,,,,,,,
,,608c349d8e7f57e8f84d3a27,65b1a112572ddd00311d4d5e,2024-01-24_23h48.09.561,bars,2023.2.3,Win32,59.88023952,657b66ea316d21385b68909f,,,,,,,,,,,912.4515,913.4426,,,913.9424,914.1806,,150,150,,,,,,,,,,,,,,,,bars/015.png,bars/mask002.png,,,,,,,,,,,,3,2,,,,,,,3,4,4,4,,,,,,,,,,,913.4427,913.9423,914.1806,915.3085,space,1.1001,,915.3087,40,10,916.3068,916.307,916.3087,,,,0,4,4,4,1,110,160,,,,,,,,
,,608c349d8e7f57e8f84d3a27,65b1a112572ddd00311d4d5e,2024-01-24_23h48.09.561,bars,2023.2.3,Win32,59.88023952,657b66ea316d21385b68909f,,,,,,,,,,,916.3089,917.3063,,,917.8056,918.0554,,42,42,,,,,,,,,,,,,,,,bars/025.png,bars/mask006.png,,,,,,,,,,,,6,2,,,,,,,1,6,2,6,,,,,,,,,,,917.3064,917.8055,918.0555,919.0554,space,0.9927,,919.0556,63,2,920.054,920.0541,920.0558,,,,0,5,5,5,1,105,40,,,,,,,,
,,608c349d8e7f57e8f84d3a27,65b1a112572ddd00311d4d5e,2024-01-24_23h48.09.561,bars,2023.2.3,Win32,59.88023952,657b66ea316d21385b68909f,,,,,,,,,,,920.056,921.0533,,,921.553,921.8027,,107,107,,,,,,,,,,,,,,,,bars/039.png,bars/mask007.png,,,,,,,,,,,,6,2,,,,,,,0,8,0,6,,,,,,,,,,,921.0533,921.553,921.8029,924.4173,space,2.5823,,924.4174,68,2,925.4161,925.4162,925.4232,,,,0,6,6,6,1,175,105,,,,,,,,
,,608c349d8e7f57e8f84d3a27,65b1a112572ddd00311d4d5e,2024-01-24_23h48.09.561,bars,2023.2.3,Win32,59.88023952,657b66ea316d21385b68909f,,,,,,,,,,,925.4233,926.4154,,,926.9151,927.1647,,152,-28,,,,,,,,,,,,,,,,bars/000.png,bars/mask001.png,,,,,,,,,,,,5,2,,,,,,,0,6,0,6,,,,,,,,,,,926.4155,926.915,927.1649,929.5299,space,2.3368,,929.53,68,7,930.5285,930.5285,930.5353,,,,0,7,7,7,1,40,145,,,,,,,,
,,608c349d8e7f57e8f84d3a27,65b1a112572ddd00311d4d5e,2024-01-24_23h48.09.561,bars,2023.2.3,Win32,59.88023952,657b66ea316d21385b68909f,,,,,,,,,,,930.5354,931.5278,,,932.0273,932.2772,,173,173,,,,,,,,,,,,,,,,bars/040.png,bars/mask003.png,,,,,,,,,,,,2,2,,,,,,,2,4,1,4,,,,,,,,,,,931.5279,932.0273,932.2773,933.4286,space,1.1296,,933.4286,33,12,934.4255,934.4256,934.4331,,,,0,8,8,8,1,140,5,,,,,,,,
,,608c349d8e7f57e8f84d3a27,65b1a112572ddd00311d4d5e,2024-01-24_23h48.09.561,bars,2023.2.3,Win32,59.88023952,657b66ea316d21385b68909f,,,,,,,,,,,934.4333,935.4247,,,935.9244,936.174,,68,68,,,,,,,,,,,,,,,,bars/030.png,bars/mask005.png,,,,,,,,,,,,5,2,,,,,,,4,6,3,6,,,,,,,,,,,935.4248,935.9243,936.1741,937.0401,space,0.8421,,937.0402,72,3,938.0388,938.0389,938.0407,,,,0,9,9,9,1,140,65,,,,,,,,
,,608c349d8e7f57e8f84d3a27,65b1a112572ddd00311d4d5e,2024-01-24_23h48.09.561,bars,2023.2.3,Win32,59.88023952,657b66ea316d21385b68909f,,,,,,,,,,,938.041,939.0383,,,939.538,939.7877,,25,205,,,,,,,,,,,,,,,,bars/022.png,bars/mask000.png,,,,,,,,,,,,8,2,,,,,,,6,8,7,9,,,,,,,,,,,939.0384,939.538,939.7878,942.6192,space,2.8163,,942.6194,70,5,943.6178,943.6179,943.625,,,,0,10,10,10,1,95,20,,,,,,,,
,,608c349d8e7f57e8f84d3a27,65b1a112572ddd00311d4d5e,2024-01-24_23h48.09.561,bars,2023.2.3,Win32,59.88023952,657b66ea316d21385b68909f,,,,,,,,,,,943.6251,944.6172,,,945.1168,945.3722,,100,100,,,,,,,,,,,,,,,,bars/011.png,bars/mask005.png,,,,,,,,,,,,3,2,,,,,,,4,6,4,5,,,,,,,,,,,944.6173,945.1166,945.3722,947.4974,space,2.1082,,947.4974,60,15,948.4852,948.4853,948.4911,,,,0,11,11,11,1,160,85,,,,,,,,
,,608c349d8e7f57e8f84d3a27,65b1a112572ddd00311d4d5e,2024-01-24_23h48.09.561,bars,2023.2.3,Win32,59.88023952,657b66ea316d21385b68909f,,,,,,,,,,,948.4912,949.4793,,,949.9791,950.2288,,63,63,,,,,,,,,,,,,,,,bars/029.png,bars/mask001.png,,,,,,,,,,,,4,2,,,,,,,2,8,2,9,,,,,,,,,,,949.4795,949.979,950.2289,951.8778,space,1.6265,,951.878,27,18,952.8771,952.8772,952.8849,,,,0,12,12,12,1,90,45,,,,,,,,
,,608c349d8e7f57e8f84d3a27,65b1a112572ddd00311d4d5e,2024-01-24_23h48.09.561,bars,2023.2.3,Win32,59.88023952,657b66ea316d21385b68909f,,,,,,,,,,,952.8849,953.8761,,,954.3758,954.6255,,61,61,,,,,,,,,,,,,,,,bars/007.png,bars/mask000.png,,,,,,,,,,,,7,2,,,,,,,0,10,1,9,,,,,,,,,,,953.8762,954.3757,954.6256,955.3583,space,0.7,,955.3585,66,6,956.3574,956.3575,956.3593,,,,0,13,13,13,1,175,55,,,,,,,,
,,608c349d8e7f57e8f84d3a27,65b1a112572ddd00311d4d5e,2024-01-24_23h48.09.561,bars,2023.2.3,Win32,59.88023952,657b66ea316d21385b68909f,,,,,,,,,,,956.3594,957.3566,,,957.8564,958.1059,,149,-31,,,,,,,,,,,,,,,,bars/005.png,bars/mask001.png,,,,,,,,,,,,7,2,,,,,,,2,10,1,10,,,,,,,,,,,957.3566,957.8562,958.1061,961.9915,space,3.8637,,961.9916,41,9,962.9853,962.9854,962.9934,,,,0,14,14,14,1,10,140,,,,,,,,
,,608c349d8e7f57e8f84d3a27,65b1a112572ddd00311d4d5e,2024-01-24_23h48.09.561,bars,2023.2.3,Win32,59.88023952,657b66ea316d21385b68909f,,,,,,,,,,,962.9935,963.9845,,,964.4843,964.7339,,50,50,,,,,,,,,,,,,,,,bars/025.png,bars/mask009.png,,,,,,,,,,,,5,2,,,,,,,0,8,0,8,,,,,,,,,,,963.9846,964.4843,964.7339,967.2479,space,2.492,,967.2481,55,10,968.2478,968.2479,968.2495,,,,0,15,15,15,1,105,40,,,,,,,,
,,608c349d8e7f57e8f84d3a27,65b1a112572ddd00311d4d5e,2024-01-24_23h48.09.561,bars,2023.2.3,Win32,59.88023952,657b66ea316d21385b68909f,,,,,,,,,,,968.2499,969.247,,,969.7488,969.9961,,170,170,,,,,,,,,,,,,,,,bars/024.png,bars/mask005.png,,,,,,,,,,,,8,2,,,,,,,0,10,1,8,,,,,,,,,,,969.2471,969.7488,969.9962,973.6104,space,3.5815,,973.6105,50,0,974.6092,974.6092,974.6175,,,,0,16,16,16,1,120,170,,,,,,,,
,,608c349d8e7f57e8f84d3a27,65b1a112572ddd00311d4d5e,2024-01-24_23h48.09.561,bars,2023.2.3,Win32,59.88023952,657b66ea316d21385b68909f,,,,,,,,,,,974.6177,975.6083,,,976.1077,976.3576,,179,179,,,,,,,,,,,,,,,,bars/040.png,bars/mask000.png,,,,,,,,,,,,7,2,,,,,,,0,10,0,9,,,,,,,,,,,975.6083,976.1076,976.3576,979.9878,space,3.6143,,979.9879,39,6,980.9872,980.9874,980.9944,,,,0,17,17,17,1,140,5,,,,,,,,
,,608c349d8e7f57e8f84d3a27,65b1a112572ddd00311d4d5e,2024-01-24_23h48.09.561,bars,2023.2.3,Win32,59.88023952,657b66ea316d21385b68909f,,,,,,,,,,,980.9946,981.9867,,,982.4859,982.7359,,101,101,,,,,,,,,,,,,,,,bars/018.png,bars/mask003.png,,,,,,,,,,,,6,2,,,,,,,2,10,2,10,,,,,,,,,,,981.9868,982.4858,982.736,985.7166,space,2.9486,,985.7168,49,11,986.7183,986.7183,986.7261,,,,0,18,18,18,1,150,90,,,,,,,,
,,608c349d8e7f57e8f84d3a27,65b1a112572ddd00311d4d5e,2024-01-24_23h48.09.561,bars,2023.2.3,Win32,59.88023952,657b66ea316d21385b68909f,,,,,,,,,,,986.7262,987.7151,,,988.2148,988.4645,,69,69,,,,,,,,,,,,,,,,bars/027.png,bars/mask001.png,,,,,,,,,,,,3,2,,,,,,,4,8,5,8,,,,,,,,,,,987.7152,988.2147,988.4646,990.7787,space,2.292,,990.7789,41,19,991.7783,991.7785,991.7848,,,,0,19,19,19,1,110,50,,,,,,,,
,,608c349d8e7f57e8f84d3a27,65b1a112572ddd00311d4d5e,2024-01-24_23h48.09.561,bars,2023.2.3,Win32,59.88023952,657b66ea316d21385b68909f,,,,,,,,,,,991.785,992.7777,,,993.2773,993.5273,,74,254,,,,,,,,,,,,,,,,bars/042.png,bars/mask007.png,,,,,,,,,,,,10,2,,,,,,,6,10,7,10,,,,,,,,,,,992.7779,993.2772,993.5274,997.0083,space,3.4589,,997.0084,71,1,998.0066,998.0066,998.013,,,,0,20,20,20,1,145,75,,,,,,,,
,,608c349d8e7f57e8f84d3a27,65b1a112572ddd00311d4d5e,2024-01-24_23h48.09.561,bars,2023.2.3,Win32,59.88023952,657b66ea316d21385b68909f,,,,,,,,,,,998.0132,999.0057,,,999.5053,999.7552,,93,93,,,,,,,,,,,,,,,,bars/041.png,bars/mask000.png,,,,,,,,,,,,5,2,,,,,,,8,8,7,7,,,,,,,,,,,999.0058,999.5053,999.7553,1000.494,space,0.7171,,1000.494,73,8,1001.4868,1001.4868,1001.4887,,,,0,21,21,21,1,20,85,,,,,,,,
,,608c349d8e7f57e8f84d3a27,65b1a112572ddd00311d4d5e,2024-01-24_23h48.09.561,bars,2023.2.3,Win32,59.88023952,657b66ea316d21385b68909f,,,,,,,,,,,1001.4889,1002.4861,,,1002.9852,1003.2353,,179,-1,,,,,,,,,,,,,,,,bars/012.png,bars/mask003.png,,,,,,,,,,,,5,2,,,,,,,6,10,6,10,,,,,,,,,,,1002.4862,1002.9852,1003.2353,1006.5166,space,3.2666,,1006.5167,89,16,1007.5154,1007.5155,1007.5238,,,,0,22,22,22,1,90,15,,,,,,,,
,,608c349d8e7f57e8f84d3a27,65b1a112572ddd00311d4d5e,2024-01-24_23h48.09.561,bars,2023.2.3,Win32,59.88023952,657b66ea316d21385b68909f,,,,,,,,,,,1007.5239,1008.5148,,,1009.0146,1009.2688,,103,103,,,,,,,,,,,,,,,,bars/019.png,bars/mask006.png,,,,,,,,,,,,7,2,,,,,,,4,8,3,7,,,,,,,,,,,1008.5148,1009.0144,1009.2688,1011.0963,space,1.8112,,1011.0964,58,2,1012.0951,1012.0951,1012.0969,,,,0,23,23,23,1,45,105,,,,,,,,
,,608c349d8e7f57e8f84d3a27,65b1a112572ddd00311d4d5e,2024-01-24_23h48.09.561,bars,2023.2.3,Win32,59.88023952,657b66ea316d21385b68909f,,,,,,,,,,,1012.0971,1013.0941,,,1013.594,1013.8436,,8,8,,,,,,,,,,,,,,,,bars/035.png,bars/mask001.png,,,,,,,,,,,,3,1,,,,,,,6,10,6,10,,,,,,,,,,,1013.0942,1013.5939,1013.8436,1016.4916,space,2.6165,,1016.4917,13,52,1017.4903,1017.4904,1017.4992,,,,0,24,24,24,1,175,60,,,,,,,,
,,608c349d8e7f57e8f84d3a27,65b1a112572ddd00311d4d5e,2024-01-24_23h48.09.561,bars,2023.2.3,Win32,59.88023952,657b66ea316d21385b68909f,,,,,,,,,,,1017.4993,1018.4894,,,1018.9896,1019.2393,,154,154,,,,,,,,,,,,,,,,bars/044.png,bars/mask009.png,,,,,,,,,,,,9,2,,,,,,,8,10,8,9,,,,,,,,,,,1018.4895,1018.9895,1019.2393,1023.919,space,4.6504,,1023.9191,79,1,1024.9181,1024.9182,1024.926,,,,0,25,25,25,1,75,155,,,,,,,,
,,608c349d8e7f57e8f84d3a27,65b1a112572ddd00311d4d5e,2024-01-24_23h48.09.561,bars,2023.2.3,Win32,59.88023952,657b66ea316d21385b68909f,,,,,,,,,,,1024.9262,1025.9223,,,1026.4167,1026.6663,,2,182,,,,,,,,,,,,,,,,bars/024.png,bars/mask003.png,,,,,,,,,,,,5,2,,,,,,,10,8,10,8,,,,,,,,,,,1025.9223,1026.4166,1026.6664,1030.3139,space,3.6206,,1030.3139,62,12,1031.3127,1031.3127,1031.3189,,,,0,26,26,26,1,120,170,,,,,,,,
,,608c349d8e7f57e8f84d3a27,65b1a112572ddd00311d4d5e,2024-01-24_23h48.09.561,bars,2023.2.3,Win32,59.88023952,657b66ea316d21385b68909f,,,,,,,,,,,1031.319,1032.3116,,,1032.8113,1033.0608,,65,65,,,,,,,,,,,,,,,,bars/031.png,bars/mask004.png,,,,,,,,,,,,0,2,,,,,,,10,10,10,10,,,,,,,,,,,1032.3117,1032.8111,1033.0609,1035.2097,space,2.1245,,1035.2098,55,30,1036.2086,1036.2088,1036.2105,,,,0,27,27,27,1,120,35,,,,,,,,
,,608c349d8e7f57e8f84d3a27,65b1a112572ddd00311d4d5e,2024-01-24_23h48.09.561,bars,2023.2.3,Win32,59.88023952,657b66ea316d21385b68909f,,,,,,,,,,,1036.2108,1037.2074,,,1037.7072,1037.9571,,78,78,,,,,,,,,,,,,,,,bars/042.png,bars/mask007.png,,,,,,,,,,,,9,2,,,,,,,8,10,8,10,,,,,,,,,,,1037.2075,1037.7072,1037.9571,1039.3614,space,1.3983,,1039.3615,67,3,1040.3553,1040.3553,1040.3571,,,,0,28,28,28,1,145,75,,,,,,,,
,,608c349d8e7f57e8f84d3a27,65b1a112572ddd00311d4d5e,2024-01-24_23h48.09.561,bars,2023.2.3,Win32,59.88023952,657b66ea316d21385b68909f,,,,,,,,,,,1040.3573,1041.3543,,,1041.8538,1042.1039,,84,84,,,,,,,,,,,,,,,,bars/001.png,bars/mask005.png,,,,,,,,,,,,9,2,,,,,,,10,8,9,9,,,,,,,,,,,1041.3544,1041.8536,1042.1041,1045.1682,space,3.0313,,1045.1683,46,1,1046.1671,1046.1672,1046.1769,,,,0,29,29,29,1,130,85,,,,,,,,
,,608c349d8e7f57e8f84d3a27,65b1a112572ddd00311d4d5e,2024-01-24_23h48.09.561,bars,2023.2.3,Win32,59.88023952,657b66ea316d21385b68909f,,,,,,,,,,,1046.177,1047.1663,,,1047.6658,1047.9209,,124,-56,,,,,,,,,,,,,,,,bars/023.png,bars/mask005.png,,,,,,,,,,,,7,2,,,,,,,8,10,7,10,,,,,,,,,,,1047.1663,1047.6656,1047.9209,1051.913,space,3.9648,,1051.9132,76,9,1052.9114,1052.9115,1052.9193,,,,0,30,30,30,1,20,115,,,,,,,,
,,608c349d8e7f57e8f84d3a27,65b1a112572ddd00311d4d5e,2024-01-24_23h48.09.561,bars,2023.2.3,Win32,59.88023952,657b66ea316d21385b68909f,,,,,,,,,,,1052.9195,1053.9107,,,1054.4104,1054.6599,,8,8,,,,,,,,,,,,,,,,bars/022.png,bars/mask000.png,,,,,,,,,,,,6,2,,,,,,,6,10,5,10,,,,,,,,,,,1053.9107,1054.4103,1054.66,1056.5757,space,1.8832,,1056.5759,87,12,1057.5743,1057.5744,1057.5812,,,,0,31,31,31,1,95,20,,,,,,,,
,,608c349d8e7f57e8f84d3a27,65b1a112572ddd00311d4d5e,2024-01-24_23h48.09.561,bars,2023.2.3,Win32,59.88023952,657b66ea316d21385b68909f,,,,,,,,,,,1057.5814,1058.5727,,,1059.0736,1059.3229,,130,130,,,,,,,,,,,,,,,,bars/049.png,bars/mask003.png,,,,,,,,,,,,5,2,,,,,,,4,10,1,9,,,,,,,,,,,1058.5727,1059.0735,1059.3231,1061.9375,space,2.6023,,1061.9377,30,15,1062.9368,1062.9368,1062.9432,,,,0,32,32,32,1,160,115,,,,,,,,
,,608c349d8e7f57e8f84d3a27,65b1a112572ddd00311d4d5e,2024-01-24_23h48.09.561,bars,2023.2.3,Win32,59.88023952,657b66ea316d21385b68909f,,,,,,,,,,,1062.9434,1063.9357,,,1064.435,1064.6858,,6,186,,,,,,,,,,,,,,,,bars/012.png,bars/mask008.png,,,,,,,,,,,,6,2,,,,,,,2,8,2,8,,,,,,,,,,,1063.9358,1064.4349,1064.686,1066.606,space,1.8991,,1066.6061,84,9,1067.5996,1067.5997,1067.6082,,,,0,33,33,33,1,90,15,,,,,,,,
,,608c349d8e7f57e8f84d3a27,65b1a112572ddd00311d4d5e,2024-01-24_23h48.09.561,bars,2023.2.3,Win32,59.88023952,657b66ea316d21385b68909f,,,,,,,,,,,1067.6084,1068.5985,,,1069.0981,1069.3478,,79,79,,,,,,,,,,,,,,,,bars/026.png,bars/mask009.png,,,,,,,,,,,,6,2,,,,,,,4,6,5,8,,,,,,,,,,,1068.5986,1069.0979,1069.3479,1071.4858,space,2.1158,,1071.4858,44,6,1072.4786,1072.4788,1072.4806,,,,0,34,34,34,1,35,85,,,,,,,,
,,608c349d8e7f57e8f84d3a27,65b1a112572ddd00311d4d5e,2024-01-24_23h48.09.561,bars,2023.2.3,Win32,59.88023952,657b66ea316d21385b68909f,,,,,,,,,,,1072.4807,1073.4781,,,1073.9778,1074.2276,,146,-34,,,,,,,,,,,,,,,,bars/043.png,bars/mask007.png,,,,,,,,,,,,4,2,,,,,,,6,8,5,9,,,,,,,,,,,1073.4782,1073.9777,1074.2277,1076.7429,space,2.4916,,1076.7431,64,16,1077.7408,1077.7409,1077.7488,,,,0,35,35,35,1,30,130,,,,,,,,
,,608c349d8e7f57e8f84d3a27,65b1a112572ddd00311d4d5e,2024-01-24_23h48.09.561,bars,2023.2.3,Win32,59.88023952,657b66ea316d21385b68909f,,,,,,,,,,,1077.7489,1078.74,,,1079.2399,1079.4899,,73,73,,,,,,,,,,,,,,,,bars/042.png,bars/mask006.png,,,,,,,,,,,,8,2,,,,,,,8,10,9,9,,,,,,,,,,,1078.74,1079.2398,1079.49,1082.7373,space,3.2157,,1082.7375,72,2,1083.7362,1083.7363,1083.7448,,,,0,36,36,36,1,145,75,,,,,,,,
,,608c349d8e7f57e8f84d3a27,65b1a112572ddd00311d4d5e,2024-01-24_23h48.09.561,bars,2023.2.3,Win32,59.88023952,657b66ea316d21385b68909f,,,,,,,,,,,1083.745,1084.7353,,,1085.235,1085.4846,,146,146,,,,,,,,,,,,,,,,bars/003.png,bars/mask007.png,,,,,,,,,,,,7,2,,,,,,,10,8,9,9,,,,,,,,,,,1084.7355,1085.235,1085.4847,1088.4829,space,2.9818,,1088.483,59,6,1089.4815,1089.4817,1089.4897,,,,0,37,37,37,1,25,140,,,,,,,,
,,608c349d8e7f57e8f84d3a27,65b1a112572ddd00311d4d5e,2024-01-24_23h48.09.561,bars,2023.2.3,Win32,59.88023952,657b66ea316d21385b68909f,,,,,,,,,,,1089.4898,1090.4809,,,1090.98,1091.2299,,71,71,,,,,,,,,,,,,,,,bars/026.png,bars/mask005.png,,,,,,,,,,,,5,2,,,,,,,10,10,10,10,,,,,,,,,,,1090.481,1090.98,1091.23,1093.2286,space,1.9687,,1093.2288,36,14,1094.2273,1094.2275,1094.2292,,,,0,38,38,38,1,35,85,,,,,,,,
,,608c349d8e7f57e8f84d3a27,65b1a112572ddd00311d4d5e,2024-01-24_23h48.09.561,bars,2023.2.3,Win32,59.88023952,657b66ea316d21385b68909f,,,,,,,,,,,1094.2294,1095.2272,,,1095.7266,1095.9764,,71,71,,,,,,,,,,,,,,,,bars/047.png,bars/mask009.png,,,,,,,,,,,,10,2,,,,,,,10,10,10,10,,,,,,,,,,,1095.2273,1095.7265,1095.9765,1096.7152,space,0.717,,1096.7152,56,1,1097.7081,1097.7083,1097.7099,,,,0,39,39,39,1,15,70,,,,,,,,
,,608c349d8e7f57e8f84d3a27,65b1a112572ddd00311d4d5e,2024-01-24_23h48.09.561,bars,2023.2.3,Win32,59.88023952,657b66ea316d21385b68909f,,,,,,,,,,,1097.7102,1098.7075,,,1099.2068,1099.4566,,178,-2,,,,,,,,,,,,,,,,bars/048.png,bars/mask001.png,,,,,,,,,,,,6,2,,,,,,,8,8,7,7,,,,,,,,,,,1098.7075,1099.2066,1099.4567,1102.2548,space,2.7811,,1102.2548,52,3,1103.2536,1103.2537,1103.2617,,,,0,40,40,40,1,50,175,,,,,,,,
,,608c349d8e7f57e8f84d3a27,65b1a112572ddd00311d4d5e,2024-01-24_23h48.09.561,bars,2023.2.3,Win32,59.88023952,657b66ea316d21385b68909f,,,,,,,,,,,1103.2618,1104.2528,,,1104.7525,1105.0025,,173,173,,,,,,,,,,,,,,,,bars/000.png,bars/mask007.png,,,,,,,,,,,,0,2,,,,,,,10,6,10,7,,,,,,,,,,,1104.2529,1104.7523,1105.0025,1107.9006,space,2.8672,,1107.9008,47,28,1108.899,1108.8991,1108.9079,,,,0,41,41,41,1,40,145,,,,,,,,
,,608c349d8e7f57e8f84d3a27,65b1a112572ddd00311d4d5e,2024-01-24_23h48.09.561,bars,2023.2.3,Win32,59.88023952,657b66ea316d21385b68909f,,,,,,,,,,,1108.9081,1109.8982,,,1110.3976,1110.647,,147,-33,,,,,,,,,,,,,,,,bars/049.png,bars/mask006.png,,,,,,,,,,,,6,1,,,,,,,10,4,10,4,,,,,,,,,,,1109.8983,1110.3974,1110.647,1114.2004,space,3.5474,,1114.2004,13,32,1115.1936,1115.1938,1115.2017,,,,0,42,42,42,1,160,115,,,,,,,,
,,608c349d8e7f57e8f84d3a27,65b1a112572ddd00311d4d5e,2024-01-24_23h48.09.561,bars,2023.2.3,Win32,59.88023952,657b66ea316d21385b68909f,,,,,,,,,,,1115.2019,1116.1928,,,1116.6926,1116.9423,,37,217,,,,,,,,,,,,,,,,bars/010.png,bars/mask008.png,,,,,,,,,,,,3,2,,,,,,,8,6,7,7,,,,,,,,,,,1116.1928,1116.6925,1116.9424,1119.4076,space,2.4534,,1119.4078,52,18,1120.4059,1120.406,1120.4143,,,,0,43,43,43,1,165,55,,,,,,,,
,,608c349d8e7f57e8f84d3a27,65b1a112572ddd00311d4d5e,2024-01-24_23h48.09.561,bars,2023.2.3,Win32,59.88023952,657b66ea316d21385b68909f,,,,,,,,,,,1120.4143,1121.4046,,,1121.9051,1122.1548,,156,-24,,,,,,,,,,,,,,,,bars/005.png,bars/mask004.png,,,,,,,,,,,,4,2,,,,,,,10,8,10,9,,,,,,,,,,,1121.4047,1121.9051,1122.1549,1124.2221,space,2.0459,,1124.2221,34,16,1125.2187,1125.2187,1125.2285,,,,0,44,44,44,1,10,140,,,,,,,,
,,608c349d8e7f57e8f84d3a27,65b1a112572ddd00311d4d5e,2024-01-24_23h48.09.561,bars,2023.2.3,Win32,59.88023952,657b66ea316d21385b68909f,,,,,,,,,,,1125.2286,1126.218,,,1126.7178,1126.9672,,13,193,,,,,,,,,,,,,,,,bars/013.png,bars/mask001.png,,,,,,,,,,,,9,2,,,,,,,10,10,10,10,,,,,,,,,,,1126.2181,1126.7176,1126.9673,1129.1156,space,2.1247,,1129.1157,62,3,1130.115,1130.115,1130.1235,,,,0,45,45,45,1,75,10,,,,,,,,
,,608c349d8e7f57e8f84d3a27,65b1a112572ddd00311d4d5e,2024-01-24_23h48.09.561,bars,2023.2.3,Win32,59.88023952,657b66ea316d21385b68909f,,,,,,,,,,,1130.1236,1131.1133,,,1131.6027,1131.8468,,150,-30,,,,,,,,,,,,,,,,bars/004.png,bars/mask009.png,,,,,,,,,,,,1,2,,,,,,,8,8,7,8,,,,,,,,,,,1131.1134,1131.6026,1131.847,1134.1622,space,2.3082,,1134.1625,55,25,1135.1608,1135.161,1135.1687,,,,0,46,46,46,1,25,125,,,,,,,,
,,608c349d8e7f57e8f84d3a27,65b1a112572ddd00311d4d5e,2024-01-24_23h48.09.561,bars,2023.2.3,Win32,59.88023952,657b66ea316d21385b68909f,,,,,,,,,,,1135.1688,1136.16,,,1136.6597,1136.9093,,38,38,,,,,,,,,,,,,,,,bars/022.png,bars/mask007.png,,,,,,,,,,,,4,2,,,,,,,10,10,10,10,,,,,,,,,,,1136.1601,1136.6595,1136.9094,1139.1077,space,2.1662,,1139.1079,57,18,1140.1069,1140.107,1140.1155,,,,0,47,47,47,1,95,20,,,,,,,,
,,608c349d8e7f57e8f84d3a27,65b1a112572ddd00311d4d5e,2024-01-24_23h48.09.561,bars,2023.2.3,Win32,59.88023952,657b66ea316d21385b68909f,,,,,,,,,,,1140.1155,1141.1061,,,1141.6056,1141.8545,,140,140,,,,,,,,,,,,,,,,bars/008.png,bars/mask009.png,,,,,,,,,,,,0,1,,,,,,,8,8,8,8,,,,,,,,,,,1141.1062,1141.6055,1141.8547,1144.3092,space,2.432,,1144.3092,30,40,1145.3025,1145.3026,1145.3105,,,,0,48,48,48,1,110,0,,,,,,,,
,,608c349d8e7f57e8f84d3a27,65b1a112572ddd00311d4d5e,2024-01-24_23h48.09.561,bars,2023.2.3,Win32,59.88023952,657b66ea316d21385b68909f,,,,,,,,,,,1145.3105,1146.3014,,,1146.8011,1147.0506,,174,174,,,,,,,,,,,,,,,,bars/008.png,bars/mask004.png,,,,,,,,,,,,5,2,,,,,,,10,6,10,6,,,,,,,,,,,1146.3015,1146.801,1147.0507,1149.5992,space,2.5342,,1149.5994,64,6,1150.5982,1150.5984,1150.6066,,,,0,49,49,49,1,110,0,,,,,,,,
,,608c349d8e7f57e8f84d3a27,65b1a112572ddd00311d4d5e,2024-01-24_23h48.09.561,bars,2023.2.3,Win32,59.88023952,657b66ea316d21385b68909f,,,,,,,,,,,,,,,,,,,,,,,,,,,,,,,,,,,,,,,,,,,,,,,,,,,,,,,,,,,,,,,,,,,,,,,,,,,,,,,,,,,,,,,,,,,,,1150.6066,1210.5983,0,2,2,3,1,sequence_tables/blk029.csv
,,608c349d8e7f57e8f84d3a27,65b1a112572ddd00311d4d5e,2024-01-24_23h48.09.561,bars,2023.2.3,Win32,59.88023952,657b66ea316d21385b68909f,,,,,,,,,,,1225.2851,1226.286,,,1226.7855,1227.0353,,67,67,,,,,,,,,,,,,,,,bars/047.png,bars/mask000.png,,,,,,,,,,,,5,2,,,,,,,5,5,5,6,,,,,,1210.6057,1225.2755,space,14.6548,,1226.2861,1226.7854,1227.0353,1231.3987,space,4.3307,,1231.3989,52,3,1232.3978,1232.3979,1232.4044,,,,0,0,0,0,1,15,70,,,,,,,,
,,608c349d8e7f57e8f84d3a27,65b1a112572ddd00311d4d5e,2024-01-24_23h48.09.561,bars,2023.2.3,Win32,59.88023952,657b66ea316d21385b68909f,,,,,,,,,,,1232.4046,1233.3968,,,1233.8968,1234.1461,,176,176,,,,,,,,,,,,,,,,bars/008.png,bars/mask006.png,,,,,,,,,,,,3,2,,,,,,,3,3,1,3,,,,,,,,,,,1233.3968,1233.8966,1234.1462,1236.944,space,2.7685,,1236.9443,66,4,1237.9427,1237.9428,1237.9497,,,,0,1,1,1,1,110,0,,,,,,,,
,,608c349d8e7f57e8f84d3a27,65b1a112572ddd00311d4d5e,2024-01-24_23h48.09.561,bars,2023.2.3,Win32,59.88023952,657b66ea316d21385b68909f,,,,,,,,,,,1237.9498,1238.942,,,1239.4416,1239.6912,,69,69,,,,,,,,,,,,,,,,bars/034.png,bars/mask007.png,,,,,,,,,,,,6,2,,,,,,,1,5,2,7,,,,,,,,,,,1238.9421,1239.4415,1239.6913,1240.6241,space,0.9258,,1240.6242,56,4,1241.6235,1241.6236,1241.6253,,,,0,2,2,2,1,125,65,,,,,,,,
,,608c349d8e7f57e8f84d3a27,65b1a112572ddd00311d4d5e,2024-01-24_23h48.09.561,bars,2023.2.3,Win32,59.88023952,657b66ea316d21385b68909f,,,,,,,,,,,1241.6257,1242.6224,,,1243.1227,1243.3717,,146,146,,,,,,,,,,,,,,,,bars/000.png,bars/mask008.png,,,,,,,,,,,,9,2,,,,,,,0,7,0,9,,,,,,,,,,,1242.6224,1243.1226,1243.3718,1245.4876,space,2.093,,1245.4878,74,1,1246.486,1246.4861,1246.493,,,,0,3,3,3,1,40,145,,,,,,,,
,,608c349d8e7f57e8f84d3a27,65b1a112572ddd00311d4d5e,2024-01-24_23h48.09.561,bars,2023.2.3,Win32,59.88023952,657b66ea316d21385b68909f,,,,,,,,,,,1246.4932,1247.4852,,,1247.9851,1248.2346,,117,117,,,,,,,,,,,,,,,,bars/041.png,bars/mask005.png,,,,,,,,,,,,0,2,,,,,,,0,5,2,4,,,,,,,,,,,1247.4853,1247.985,1248.2348,1252.3313,space,4.0651,,1252.3315,83,32,1253.3304,1253.3306,1253.3388,,,,0,4,4,4,1,20,85,,,,,,,,
,,608c349d8e7f57e8f84d3a27,65b1a112572ddd00311d4d5e,2024-01-24_23h48.09.561,bars,2023.2.3,Win32,59.88023952,657b66ea316d21385b68909f,,,,,,,,,,,1253.339,1254.3295,,,1254.8292,1255.0788,,27,207,,,,,,,,,,,,,,,,bars/022.png,bars/mask006.png,,,,,,,,,,,,6,2,,,,,,,2,7,3,8,,,,,,,,,,,1254.3296,1254.8291,1255.079,1257.5487,space,2.4637,,1257.5487,68,7,1258.5427,1258.5429,1258.5503,,,,0,5,5,5,1,95,20,,,,,,,,
,,608c349d8e7f57e8f84d3a27,65b1a112572ddd00311d4d5e,2024-01-24_23h48.09.561,bars,2023.2.3,Win32,59.88023952,657b66ea316d21385b68909f,,,,,,,,,,,1258.5504,1259.5419,,,1260.0412,1260.2911,,102,102,,,,,,,,,,,,,,,,bars/041.png,bars/mask005.png,,,,,,,,,,,,4,2,,,,,,,4,9,4,10,,,,,,,,,,,1259.542,1260.0411,1260.2912,1261.8904,space,1.5729,,1261.8905,82,17,1262.8891,1262.8892,1262.891,,,,0,6,6,6,1,20,85,,,,,,,,
,,608c349d8e7f57e8f84d3a27,65b1a112572ddd00311d4d5e,2024-01-24_23h48.09.561,bars,2023.2.3,Win32,59.88023952,657b66ea316d21385b68909f,,,,,,,,,,,1262.8911,1263.8881,,,1264.388,1264.6377,,173,173,,,,,,,,,,,,,,,,bars/043.png,bars/mask003.png,,,,,,,,,,,,0,1,,,,,,,2,10,1,9,,,,,,,,,,,1263.8882,1264.3879,1264.6378,1265.5595,space,0.9008,,1265.5596,37,43,1266.5528,1266.5529,1266.5555,,,,0,7,7,7,1,30,130,,,,,,,,
,,608c349d8e7f57e8f84d3a27,65b1a112572ddd00311d4d5e,2024-01-24_23h48.09.561,bars,2023.2.3,Win32,59.88023952,657b66ea316d21385b68909f,,,,,,,,,,,1266.5557,1267.5519,,,1268.0514,1268.3013,,30,30,,,,,,,,,,,,,,,,bars/013.png,bars/mask002.png,,,,,,,,,,,,3,2,,,,,,,4,8,2,8,,,,,,,,,,,1267.552,1268.0514,1268.3014,1271.3548,space,3.0473,,1271.3549,45,20,1272.3483,1272.3484,1272.3581,,,,0,8,8,8,1,75,10,,,,,,,,
,,608c349d8e7f57e8f84d3a27,65b1a112572ddd00311d4d5e,2024-01-24_23h48.09.561,bars,2023.2.3,Win32,59.88023952,657b66ea316d21385b68909f,,,,,,,,,,,1272.3583,1273.3472,,,1273.8463,1274.0967,,19,199,,,,,,,,,,,,,,,,bars/045.png,bars/mask005.png,,,,,,,,,,,,5,2,,,,,,,6,6,7,7,,,,,,,,,,,1273.3473,1273.8463,1274.0968,1275.7122,space,1.5871,,1275.7123,81,9,1276.7111,1276.7111,1276.7128,,,,0,9,9,9,1,100,10,,,,,,,,
,,608c349d8e7f57e8f84d3a27,65b1a112572ddd00311d4d5e,2024-01-24_23h48.09.561,bars,2023.2.3,Win32,59.88023952,657b66ea316d21385b68909f,,,,,,,,,,,1276.713,1277.7101,,,1278.2102,1278.4594,,144,144,,,,,,,,,,,,,,,,bars/005.png,bars/mask000.png,,,,,,,,,,,,5,2,,,,,,,4,4,3,6,,,,,,,,,,,1277.7102,1278.2101,1278.4595,1280.5965,space,2.1151,,1280.5965,46,4,1281.5903,1281.5904,1281.5989,,,,0,10,10,10,1,10,140,,,,,,,,
,,608c349d8e7f57e8f84d3a27,65b1a112572ddd00311d4d5e,2024-01-24_23h48.09.561,bars,2023.2.3,Win32,59.88023952,657b66ea316d21385b68909f,,,,,,,,,,,1281.599,1282.5898,,,1283.0893,1283.339,,95,95,,,,,,,,,,,,,,,,bars/019.png,bars/mask004.png,,,,,,,,,,,,5,2,,,,,,,6,6,6,8,,,,,,,,,,,1282.59,1283.0892,1283.339,1284.9546,space,1.5832,,1284.9547,50,10,1285.9536,1285.9537,1285.9611,,,,0,11,11,11,1,45,105,,,,,,,,
,,608c349d8e7f57e8f84d3a27,65b1a112572ddd00311d4d5e,2024-01-24_23h48.09.561,bars,2023.2.3,Win32,59.88023952,657b66ea316d21385b68909f,,,,,,,,,,,1285.9613,1286.9527,,,1287.4524,1287.7021,,25,25,,,,,,,,,,,,,,,,bars/022.png,bars/mask006.png,,,,,,,,,,,,6,2,,,,,,,8,8,8,7,,,,,,,,,,,1286.9528,1287.4523,1287.7022,1288.585,space,0.8581,,1288.5851,70,5,1289.5837,1289.5838,1289.59,,,,0,12,12,12,1,95,20,,,,,,,,
,,608c349d8e7f57e8f84d3a27,65b1a112572ddd00311d4d5e,2024-01-24_23h48.09.561,bars,2023.2.3,Win32,59.88023952,657b66ea316d21385b68909f,,,,,,,,,,,1289.5901,1290.5832,,,1291.0826,1291.3323,,165,165,,,,,,,,,,,,,,,,bars/020.png,bars/mask000.png,,,,,,,,,,,,3,2,,,,,,,10,6,10,3,,,,,,,,,,,1290.5833,1291.0826,1291.3324,1294.8191,space,3.4656,,1294.8192,50,5,1295.8123,1295.8123,1295.82,,,,0,13,13,13,1,115,170,,,,,,,,
,,608c349d8e7f57e8f84d3a27,65b1a112572ddd00311d4d5e,2024-01-24_23h48.09.561,bars,2023.2.3,Win32,59.88023952,657b66ea316d21385b68909f,,,,,,,,,,,1295.8202,1296.811,,,1297.3109,1297.5609,,9,9,,,,,,,,,,,,,,,,bars/045.png,bars/mask003.png,,,,,,,,,,,,5,2,,,,,,,10,4,8,5,,,,,,,,,,,1296.8111,1297.3108,1297.561,1300.3424,space,2.759,,1300.3426,89,1,1301.3407,1301.3408,1301.3471,,,,0,14,14,14,1,100,10,,,,,,,,
,,608c349d8e7f57e8f84d3a27,65b1a112572ddd00311d4d5e,2024-01-24_23h48.09.561,bars,2023.2.3,Win32,59.88023952,657b66ea316d21385b68909f,,,,,,,,,,,1301.3472,1302.3402,,,1302.8398,1303.0894,,7,7,,,,,,,,,,,,,,,,bars/048.png,bars/mask002.png,,,,,,,,,,,,3,2,,,,,,,10,6,10,5,,,,,,,,,,,1302.3403,1302.8397,1303.0895,1305.7878,space,2.665,,1305.7878,43,12,1306.7864,1306.7865,1306.7951,,,,0,15,15,15,1,50,175,,,,,,,,
,,608c349d8e7f57e8f84d3a27,65b1a112572ddd00311d4d5e,2024-01-24_23h48.09.561,bars,2023.2.3,Win32,59.88023952,657b66ea316d21385b68909f,,,,,,,,,,,1306.7952,1307.7858,,,1308.2854,1308.5353,,55,55,,,,,,,,,,,,,,,,bars/025.png,bars/mask005.png,,,,,,,,,,,,5,2,,,,,,,10,8,10,9,,,,,,,,,,,1307.7858,1308.2853,1308.5353,1310.9165,space,2.3513,,1310.9166,50,15,1311.9156,1311.9157,1311.9234,,,,0,16,16,16,1,105,40,,,,,,,,
,,608c349d8e7f57e8f84d3a27,65b1a112572ddd00311d4d5e,2024-01-24_23h48.09.561,bars,2023.2.3,Win32,59.88023952,657b66ea316d21385b68909f,,,,,,,,,,,1311.9235,1312.9146,,,1313.4142,1313.6642,,168,-12,,,,,,,,,,,,,,,,bars/020.png,bars/mask000.png,,,,,,,,,,,,7,2,,,,,,,8,10,8,8,,,,,,,,,,,1312.9147,1313.4141,1313.6643,1317.2617,space,3.5646,,1317.2618,53,2,1318.2605,1318.2606,1318.2683,,,,0,17,17,17,1,115,170,,,,,,,,
,,608c349d8e7f57e8f84d3a27,65b1a112572ddd00311d4d5e,2024-01-24_23h48.09.561,bars,2023.2.3,Win32,59.88023952,657b66ea316d21385b68909f,,,,,,,,,,,1318.2685,1319.2595,,,1319.7591,1320.0091,,67,67,,,,,,,,,,,,,,,,bars/025.png,bars/mask000.png,,,,,,,,,,,,1,2,,,,,,,6,8,4,9,,,,,,,,,,,1319.2595,1319.759,1320.0091,1322.1799,space,2.1489,,1322.18,38,27,1323.1727,1323.1728,1323.1746,,,,0,18,18,18,1,105,40,,,,,,,,
,,608c349d8e7f57e8f84d3a27,65b1a112572ddd00311d4d5e,2024-01-24_23h48.09.561,bars,2023.2.3,Win32,59.88023952,657b66ea316d21385b68909f,,,,,,,,,,,1323.1747,1324.1721,,,1324.6719,1324.9218,,4,184,,,,,,,,,,,,,,,,bars/014.png,bars/mask008.png,,,,,,,,,,,,4,2,,,,,,,4,6,5,5,,,,,,,,,,,1324.1722,1324.6719,1324.9219,1327.3924,space,2.4487,,1327.3924,76,4,1328.3854,1328.3855,1328.3933,,,,0,19,19,19,1,80,0,,,,,,,,
,,608c349d8e7f57e8f84d3a27,65b1a112572ddd00311d4d5e,2024-01-24_23h48.09.561,bars,2023.2.3,Win32,59.88023952,657b66ea316d21385b68909f,,,,,,,,,,,1328.3934,1329.3845,,,1329.8843,1330.1339,,84,84,,,,,,,,,,,,,,,,bars/046.png,bars/mask004.png,,,,,,,,,,,,9,2,,,,,,,6,8,7,9,,,,,,,,,,,1329.3846,1329.8842,1330.134,1331.9158,space,1.7754,,1331.916,71,1,1332.9152,1332.9154,1332.9171,,,,0,20,20,20,1,155,85,,,,,,,,
,,608c349d8e7f57e8f84d3a27,65b1a112572ddd00311d4d5e,2024-01-24_23h48.09.561,bars,2023.2.3,Win32,59.88023952,657b66ea316d21385b68909f,,,,,,,,,,,1332.9172,1333.9143,,,1334.414,1334.6636,,120,120,,,,,,,,,,,,,,,,bars/039.png,bars/mask006.png,,,,,,,,,,,,5,2,,,,,,,4,10,5,10,,,,,,,,,,,1333.9144,1334.4138,1334.6637,1337.645,space,2.9526,,1337.6452,55,15,1338.6439,1338.6439,1338.65,,,,0,21,21,21,1,175,105,,,,,,,,
,,608c349d8e7f57e8f84d3a27,65b1a112572ddd00311d4d5e,2024-01-24_23h48.09.561,bars,2023.2.3,Win32,59.88023952,657b66ea316d21385b68909f,,,,,,,,,,,1338.6501,1339.6428,,,1340.1428,1340.3923,,102,102,,,,,,,,,,,,,,,,bars/006.png,bars/mask000.png,,,,,,,,,,,,9,2,,,,,,,2,8,2,10,,,,,,,,,,,1339.6429,1340.1426,1340.3924,1343.1428,space,2.7289,,1343.1429,67,2,1344.1391,1344.1393,1344.1457,,,,0,22,22,22,1,35,100,,,,,,,,
,,608c349d8e7f57e8f84d3a27,65b1a112572ddd00311d4d5e,2024-01-24_23h48.09.561,bars,2023.2.3,Win32,59.88023952,657b66ea316d21385b68909f,,,,,,,,,,,1344.1458,1345.1382,,,1345.6379,1345.8875,,134,134,,,,,,,,,,,,,,,,bars/037.png,bars/mask002.png,,,,,,,,,,,,0,1,,,,,,,0,6,0,6,,,,,,,,,,,1345.1383,1345.6377,1345.8875,1348.8018,space,2.9076,,1348.802,16,29,1349.8006,1349.8008,1349.8078,,,,0,23,23,23,1,150,105,,,,,,,,
,,608c349d8e7f57e8f84d3a27,65b1a112572ddd00311d4d5e,2024-01-24_23h48.09.561,bars,2023.2.3,Win32,59.88023952,657b66ea316d21385b68909f,,,,,,,,,,,1349.8079,1350.8,,,1351.2999,1351.5498,,28,208,,,,,,,,,,,,,,,,bars/032.png,bars/mask003.png,,,,,,,,,,,,7,2,,,,,,,2,8,2,9,,,,,,,,,,,1350.8001,1351.2997,1351.5499,1356.7958,space,5.2154,,1356.7959,83,8,1357.7947,1357.7949,1357.8023,,,,0,24,24,24,1,125,20,,,,,,,,
,,608c349d8e7f57e8f84d3a27,65b1a112572ddd00311d4d5e,2024-01-24_23h48.09.561,bars,2023.2.3,Win32,59.88023952,657b66ea316d21385b68909f,,,,,,,,,,,1357.8025,1358.7935,,,1359.2935,1359.5433,,49,49,,,,,,,,,,,,,,,,bars/035.png,bars/mask003.png,,,,,,,,,,,,6,2,,,,,,,0,10,0,10,,,,,,,,,,,1358.7937,1359.2934,1359.5434,1360.3762,space,0.8082,,1360.3763,54,11,1361.375,1361.3751,1361.3768,,,,0,25,25,25,1,175,60,,,,,,,,
,,608c349d8e7f57e8f84d3a27,65b1a112572ddd00311d4d5e,2024-01-24_23h48.09.561,bars,2023.2.3,Win32,59.88023952,657b66ea316d21385b68909f,,,,,,,,,,,1361.3769,1362.3741,,,1362.8738,1363.1237,,171,171,,,,,,,,,,,,,,,,bars/033.png,bars/mask008.png,,,,,,,,,,,,4,2,,,,,,,0,8,0,9,,,,,,,,,,,1362.3743,1362.8738,1363.1238,1364.7606,space,1.6151,,1364.7607,34,16,1365.7549,1365.7551,1365.7566,,,,0,26,26,26,1,25,155,,,,,,,,
,,608c349d8e7f57e8f84d3a27,65b1a112572ddd00311d4d5e,2024-01-24_23h48.09.561,bars,2023.2.3,Win32,59.88023952,657b66ea316d21385b68909f,,,,,,,,,,,1365.7568,1366.7541,,,1367.2537,1367.5036,,136,136,,,,,,,,,,,,,,,,bars/005.png,bars/mask003.png,,,,,,,,,,,,4,2,,,,,,,0,6,3,5,,,,,,,,,,,1366.7541,1367.2536,1367.5036,1370.6511,space,3.1226,,1370.6512,54,4,1371.6501,1371.6502,1371.6583,,,,0,27,27,27,1,10,140,,,,,,,,
,,608c349d8e7f57e8f84d3a27,65b1a112572ddd00311d4d5e,2024-01-24_23h48.09.561,bars,2023.2.3,Win32,59.88023952,657b66ea316d21385b68909f,,,,,,,,,,,1371.6585,1372.6486,,,1373.1489,1373.3988,,74,74,,,,,,,,,,,,,,,,bars/030.png,bars/mask001.png,,,,,,,,,,,,6,2,,,,,,,0,8,1,8,,,,,,,,,,,1372.6487,1373.1488,1373.3988,1376.2458,space,2.8256,,1376.246,66,9,1377.2452,1377.2453,1377.2517,,,,0,28,28,28,1,140,65,,,,,,,,
,,608c349d8e7f57e8f84d3a27,65b1a112572ddd00311d4d5e,2024-01-24_23h48.09.561,bars,2023.2.3,Win32,59.88023952,657b66ea316d21385b68909f,,,,,,,,,,,1377.2518,1378.2446,,,1378.7443,1378.994,,107,107,,,,,,,,,,,,,,,,bars/023.png,bars/mask005.png,,,,,,,,,,,,6,2,,,,,,,0,6,2,8,,,,,,,,,,,1378.2448,1378.7442,1378.994,1381.2756,space,2.2497,,1381.2758,87,8,1382.2746,1382.2747,1382.2824,,,,0,29,29,29,1,20,115,,,,,,,,
,,608c349d8e7f57e8f84d3a27,65b1a112572ddd00311d4d5e,2024-01-24_23h48.09.561,bars,2023.2.3,Win32,59.88023952,657b66ea316d21385b68909f,,,,,,,,,,,1382.2825,1383.2736,,,1383.7733,1384.0231,,36,216,,,,,,,,,,,,,,,,bars/025.png,bars/mask007.png,,,,,,,,,,,,6,2,,,,,,,0,8,0,7,,,,,,,,,,,1383.2736,1383.7732,1384.0232,1386.8876,space,2.8327,,1386.8878,69,4,1387.8867,1387.8868,1387.8957,,,,0,30,30,30,1,105,40,,,,,,,,
,,608c349d8e7f57e8f84d3a27,65b1a112572ddd00311d4d5e,2024-01-24_23h48.09.561,bars,2023.2.3,Win32,59.88023952,657b66ea316d21385b68909f,,,,,,,,,,,1387.8958,1388.8858,,,1389.3856,1389.6351,,63,243,,,,,,,,,,,,,,,,bars/038.png,bars/mask002.png,,,,,,,,,,,,8,2,,,,,,,2,10,0,10,,,,,,,,,,,1388.8858,1389.3854,1389.6352,1393.7708,space,4.13,,1393.7709,78,7,1394.7642,1394.7643,1394.7707,,,,0,31,31,31,1,165,70,,,,,,,,
,,608c349d8e7f57e8f84d3a27,65b1a112572ddd00311d4d5e,2024-01-24_23h48.09.561,bars,2023.2.3,Win32,59.88023952,657b66ea316d21385b68909f,,,,,,,,,,,1394.7708,1395.7636,,,1396.2624,1396.5128,,96,96,,,,,,,,,,,,,,,,bars/002.png,bars/mask009.png,,,,,,,,,,,,6,2,,,,,,,4,10,5,9,,,,,,,,,,,1395.7636,1396.2623,1396.5128,1397.3296,space,0.7868,,1397.3298,34,11,1398.3303,1398.3303,1398.3307,,,,0,32,32,32,1,130,85,,,,,,,,
,,608c349d8e7f57e8f84d3a27,65b1a112572ddd00311d4d5e,2024-01-24_23h48.09.561,bars,2023.2.3,Win32,59.88023952,657b66ea316d21385b68909f,,,,,,,,,,,1398.3309,1399.3271,,,1399.8268,1400.0764,,79,79,,,,,,,,,,,,,,,,bars/047.png,bars/mask001.png,,,,,,,,,,,,6,2,,,,,,,6,8,7,8,,,,,,,,,,,1399.3272,1399.8268,1400.0766,1401.5646,space,1.467,,1401.5646,64,9,1402.5581,1402.5581,1402.5664,,,,0,33,33,33,1,15,70,,,,,,,,
,,608c349d8e7f57e8f84d3a27,65b1a112572ddd00311d4d5e,2024-01-24_23h48.09.561,bars,2023.2.3,Win32,59.88023952,657b66ea316d21385b68909f,,,,,,,,,,,1402.5664,1403.557,,,1404.0569,1404.3067,,103,103,,,,,,,,,,,,,,,,bars/023.png,bars/mask002.png,,,,,,,,,,,,4,2,,,,,,,4,6,4,7,,,,,,,,,,,1403.5571,1404.0569,1404.3068,1405.1062,space,0.7757,,1405.1063,83,12,1406.1047,1406.1048,1406.1064,,,,0,34,34,34,1,20,115,,,,,,,,
,,608c349d8e7f57e8f84d3a27,65b1a112572ddd00311d4d5e,2024-01-24_23h48.09.561,bars,2023.2.3,Win32,59.88023952,657b66ea316d21385b68909f,,,,,,,,,,,1406.1066,1407.104,,,1407.6036,1407.8536,,112,112,,,,,,,,,,,,,,,,bars/039.png,bars/mask000.png,,,,,,,,,,,,5,2,,,,,,,6,8,6,7,,,,,,,,,,,1407.1042,1407.6034,1407.8537,1411.1507,space,3.265,,1411.1509,63,7,1412.1498,1412.1499,1412.1578,,,,0,35,35,35,1,175,105,,,,,,,,
,,608c349d8e7f57e8f84d3a27,65b1a112572ddd00311d4d5e,2024-01-24_23h48.09.561,bars,2023.2.3,Win32,59.88023952,657b66ea316d21385b68909f,,,,,,,,,,,1412.158,1413.1492,,,1413.6489,1413.8986,,95,95,,,,,,,,,,,,,,,,bars/006.png,bars/mask008.png,,,,,,,,,,,,8,2,,,,,,,8,10,7,9,,,,,,,,,,,1413.1495,1413.6488,1413.8987,1417.6626,space,3.7343,,1417.6627,60,5,1418.6607,1418.6607,1418.6674,,,,0,36,36,36,1,35,100,,,,,,,,
,,608c349d8e7f57e8f84d3a27,65b1a112572ddd00311d4d5e,2024-01-24_23h48.09.561,bars,2023.2.3,Win32,59.88023952,657b66ea316d21385b68909f,,,,,,,,,,,1418.6675,1419.6603,,,1420.1603,1420.41,,176,176,,,,,,,,,,,,,,,,bars/033.png,bars/mask006.png,,,,,,,,,,,,3,2,,,,,,,10,10,9,10,,,,,,,,,,,1419.6604,1420.1602,1420.4101,1423.1908,space,2.7486,,1423.1909,29,21,1424.1905,1424.1906,1424.1984,,,,0,37,37,37,1,25,155,,,,,,,,
,,608c349d8e7f57e8f84d3a27,65b1a112572ddd00311d4d5e,2024-01-24_23h48.09.561,bars,2023.2.3,Win32,59.88023952,657b66ea316d21385b68909f,,,,,,,,,,,1424.1985,1425.1893,,,1425.6891,1425.9387,,1,181,,,,,,,,,,,,,,,,bars/000.png,bars/mask005.png,,,,,,,,,,,,0,2,,,,,,,10,8,10,8,,,,,,,,,,,1425.1893,1425.689,1425.9388,1429.657,space,3.7124,,1429.657,39,36,1430.6506,1430.6507,1430.6576,,,,0,38,38,38,1,40,145,,,,,,,,
,,608c349d8e7f57e8f84d3a27,65b1a112572ddd00311d4d5e,2024-01-24_23h48.09.561,bars,2023.2.3,Win32,59.88023952,657b66ea316d21385b68909f,,,,,,,,,,,1430.6577,1431.6505,,,1432.1503,1432.4003,,11,191,,,,,,,,,,,,,,,,bars/014.png,bars/mask005.png,,,,,,,,,,,,6,2,,,,,,,10,10,10,9,,,,,,,,,,,1431.6505,1432.1503,1432.4004,1434.8983,space,2.4663,,1434.8984,69,11,1435.897,1435.8971,1435.8991,,,,0,39,39,39,1,80,0,,,,,,,,
,,608c349d8e7f57e8f84d3a27,65b1a112572ddd00311d4d5e,2024-01-24_23h48.09.561,bars,2023.2.3,Win32,59.88023952,657b66ea316d21385b68909f,,,,,,,,,,,1435.8992,1436.8957,,,1437.3957,1437.6455,,107,107,,,,,,,,,,,,,,,,bars/046.png,bars/mask002.png,,,,,,,,,,,,2,2,,,,,,,10,8,9,8,,,,,,,,,,,1436.8958,1437.3956,1437.6456,1440.2941,space,2.6318,,1440.2941,48,22,1441.2928,1441.2928,1441.3003,,,,0,40,40,40,1,155,85,,,,,,,,
,,608c349d8e7f57e8f84d3a27,65b1a112572ddd00311d4d5e,2024-01-24_23h48.09.561,bars,2023.2.3,Win32,59.88023952,657b66ea316d21385b68909f,,,,,,,,,,,1441.3004,1442.2919,,,1442.7911,1443.041,,1,1,,,,,,,,,,,,,,,,bars/048.png,bars/mask000.png,,,,,,,,,,,,6,2,,,,,,,8,6,7,7,,,,,,,,,,,1442.292,1442.791,1443.0411,1445.3564,space,2.2989,,1445.3566,49,6,1446.3552,1446.3553,1446.3634,,,,0,41,41,41,1,50,175,,,,,,,,
,,608c349d8e7f57e8f84d3a27,65b1a112572ddd00311d4d5e,2024-01-24_23h48.09.561,bars,2023.2.3,Win32,59.88023952,657b66ea316d21385b68909f,,,,,,,,,,,1446.3635,1447.3545,,,1447.8539,1448.1038,,110,110,,,,,,,,,,,,,,,,bars/018.png,bars/mask007.png,,,,,,,,,,,,1,2,,,,,,,10,4,10,3,,,,,,,,,,,1447.3546,1447.8538,1448.1039,1449.1197,space,0.9899,,1449.1198,40,20,1450.1187,1450.1188,1450.1272,,,,0,42,42,42,1,150,90,,,,,,,,
,,608c349d8e7f57e8f84d3a27,65b1a112572ddd00311d4d5e,2024-01-24_23h48.09.561,bars,2023.2.3,Win32,59.88023952,657b66ea316d21385b68909f,,,,,,,,,,,1450.1273,1451.118,,,1451.6177,1451.8667,,113,113,,,,,,,,,,,,,,,,bars/025.png,bars/mask004.png,,,,,,,,,,,,7,1,,,,,,,10,6,10,6,,,,,,,,,,,1451.1181,1451.6176,1451.8667,1454.1818,space,2.285,,1454.1819,8,73,1455.1809,1455.181,1455.1878,,,,0,43,43,43,1,105,40,,,,,,,,
,,608c349d8e7f57e8f84d3a27,65b1a112572ddd00311d4d5e,2024-01-24_23h48.09.561,bars,2023.2.3,Win32,59.88023952,657b66ea316d21385b68909f,,,,,,,,,,,1455.1879,1456.18,,,1456.68,1456.9299,,6,186,,,,,,,,,,,,,,,,bars/016.png,bars/mask003.png,,,,,,,,,,,,2,2,,,,,,,10,4,9,5,,,,,,,,,,,1456.18,1456.6799,1456.93,1460.4331,space,3.4812,,1460.4331,34,21,1461.4262,1461.4264,1461.4337,,,,0,44,44,44,1,40,165,,,,,,,,
,,608c349d8e7f57e8f84d3a27,65b1a112572ddd00311d4d5e,2024-01-24_23h48.09.561,bars,2023.2.3,Win32,59.88023952,657b66ea316d21385b68909f,,,,,,,,,,,1461.4338,1462.4255,,,1462.925,1463.175,,30,210,,,,,,,,,,,,,,,,bars/007.png,bars/mask005.png,,,,,,,,,,,,0,2,,,,,,,8,2,7,0,,,,,,,,,,,1462.4256,1462.9249,1463.1751,1466.239,space,3.0416,,1466.239,35,25,1467.2381,1467.2382,1467.2459,,,,0,45,45,45,1,175,55,,,,,,,,
,,608c349d8e7f57e8f84d3a27,65b1a112572ddd00311d4d5e,2024-01-24_23h48.09.561,bars,2023.2.3,Win32,59.88023952,657b66ea316d21385b68909f,,,,,,,,,,,1467.2461,1468.2374,,,1468.7371,1468.9868,,122,122,,,,,,,,,,,,,,,,bars/037.png,bars/mask006.png,,,,,,,,,,,,2,2,,,,,,,6,4,4,4,,,,,,,,,,,1468.2374,1468.7369,1468.9869,1472.3844,space,3.3652,,1472.3845,28,17,1473.383,1473.3831,1473.391,,,,0,46,46,46,1,150,105,,,,,,,,
,,608c349d8e7f57e8f84d3a27,65b1a112572ddd00311d4d5e,2024-01-24_23h48.09.561,bars,2023.2.3,Win32,59.88023952,657b66ea316d21385b68909f,,,,,,,,,,,1473.3911,1474.382,,,1474.882,1475.1317,,65,65,,,,,,,,,,,,,,,,bars/030.png,bars/mask006.png,,,,,,,,,,,,1,2,,,,,,,8,2,9,1,,,,,,,,,,,1474.3821,1474.8819,1475.1318,1478.3015,space,3.1479,,1478.3016,75,0,1479.2948,1479.295,1479.3031,,,,0,47,47,47,1,140,65,,,,,,,,
,,608c349d8e7f57e8f84d3a27,65b1a112572ddd00311d4d5e,2024-01-24_23h48.09.561,bars,2023.2.3,Win32,59.88023952,657b66ea316d21385b68909f,,,,,,,,,,,1479.3032,1480.2941,,,1480.7939,1481.0436,,118,118,,,,,,,,,,,,,,,,bars/049.png,bars/mask007.png,,,,,,,,,,,,0,2,,,,,,,10,0,10,0,,,,,,,,,,,1480.2942,1480.7938,1481.0437,1483.5611,space,2.4972,,1483.5611,42,3,1484.557,1484.5571,1484.5653,,,,0,48,48,48,1,160,115,,,,,,,,
,,608c349d8e7f57e8f84d3a27,65b1a112572ddd00311d4d5e,2024-01-24_23h48.09.561,bars,2023.2.3,Win32,59.88023952,657b66ea316d21385b68909f,,,,,,,,,,,1484.5654,1485.5564,,,1486.056,1486.3057,,8,188,,,,,,,,,,,,,,,,bars/031.png,bars/mask005.png,,,,,,,,,,,,0,2,,,,,,,10,2,10,3,,,,,,,,,,,1485.5565,1486.0559,1486.3058,1488.7401,space,2.4285,,1488.7402,68,27,1489.7361,1489.7361,1489.7434,,,,0,49,49,49,1,120,35,,,,,,,,
,,608c349d8e7f57e8f84d3a27,65b1a112572ddd00311d4d5e,2024-01-24_23h48.09.561,bars,2023.2.3,Win32,59.88023952,657b66ea316d21385b68909f,,,,,,,,,,,,,,,,,,,,,,,,,,,,,,,,,,,,,,,,,,,,,,,,,,,,,,,,,,,,,,,,,,,,,,,,,,,,,,,,,,,,,,,,,,,,,1489.7436,1549.7373,0,3,3,0,1,sequence_tables/blk024.csv
,,608c349d8e7f57e8f84d3a27,65b1a112572ddd00311d4d5e,2024-01-24_23h48.09.561,bars,2023.2.3,Win32,59.88023952,657b66ea316d21385b68909f,,,,,,,,,,,1582.237,1583.2265,,,1583.7251,1583.9747,,123,123,,,,,,,,,,,,,,,,bars/004.png,bars/mask007.png,,,,,,,,,,,,7,2,,,,,,,1,9,1,7,,,,,,1549.7443,1582.2271,space,32.4579,,1583.2266,1583.725,1583.9748,1585.3807,space,1.383,,1585.3807,82,2,1586.3732,1586.3733,1586.3804,,,,0,0,0,0,1,25,125,,,,,,,,
,,608c349d8e7f57e8f84d3a27,65b1a112572ddd00311d4d5e,2024-01-24_23h48.09.561,bars,2023.2.3,Win32,59.88023952,657b66ea316d21385b68909f,,,,,,,,,,,1586.3807,1587.373,,,1587.8727,1588.1219,,7,187,,,,,,,,,,,,,,,,bars/008.png,bars/mask004.png,,,,,,,,,,,,5,2,,,,,,,3,7,5,6,,,,,,,,,,,1587.3731,1587.8726,1588.1221,1590.4704,space,2.3154,,1590.4705,77,7,1591.4694,1591.4695,1591.4772,,,,0,1,1,1,1,110,0,,,,,,,,
,,608c349d8e7f57e8f84d3a27,65b1a112572ddd00311d4d5e,2024-01-24_23h48.09.561,bars,2023.2.3,Win32,59.88023952,657b66ea316d21385b68909f,,,,,,,,,,,1591.4773,1592.4687,,,1592.9738,1593.2181,,12,192,,,,,,,,,,,,,,,,bars/032.png,bars/mask001.png,,,,,,,,,,,,7,2,,,,,,,5,9,4,9,,,,,,,,,,,1592.4688,1592.9737,1593.2182,1595.4832,space,2.2337,,1595.4833,67,8,1596.4822,1596.4823,1596.4903,,,,0,2,2,2,1,125,20,,,,,,,,
,,608c349d8e7f57e8f84d3a27,65b1a112572ddd00311d4d5e,2024-01-24_23h48.09.561,bars,2023.2.3,Win32,59.88023952,657b66ea316d21385b68909f,,,,,,,,,,,1596.4904,1597.4807,,,1597.9807,1598.2303,,13,193,,,,,,,,,,,,,,,,bars/036.png,bars/mask007.png,,,,,,,,,,,,8,2,,,,,,,3,7,5,10,,,,,,,,,,,1597.4808,1597.9806,1598.2304,1601.4615,space,3.1994,,1601.4617,48,7,1602.4604,1602.4605,1602.4684,,,,0,3,3,3,1,145,20,,,,,,,,
,,608c349d8e7f57e8f84d3a27,65b1a112572ddd00311d4d5e,2024-01-24_23h48.09.561,bars,2023.2.3,Win32,59.88023952,657b66ea316d21385b68909f,,,,,,,,,,,1602.4685,1603.4596,,,1603.9592,1604.2085,,78,78,,,,,,,,,,,,,,,,bars/034.png,bars/mask007.png,,,,,,,,,,,,2,2,,,,,,,1,5,1,4,,,,,,,,,,,1603.4596,1603.9591,1604.2086,1605.5588,space,1.3229,,1605.559,47,13,1606.5571,1606.5572,1606.5656,,,,0,4,4,4,1,125,65,,,,,,,,
,,608c349d8e7f57e8f84d3a27,65b1a112572ddd00311d4d5e,2024-01-24_23h48.09.561,bars,2023.2.3,Win32,59.88023952,657b66ea316d21385b68909f,,,,,,,,,,,1606.5657,1607.5566,,,1608.056,1608.3057,,4,4,,,,,,,,,,,,,,,,bars/023.png,bars/mask000.png,,,,,,,,,,,,2,1,,,,,,,3,3,5,1,,,,,,,,,,,1607.5566,1608.0559,1608.3057,1609.1889,space,0.8505,,1609.1891,16,69,1610.1875,1610.1876,1610.1902,,,,0,5,5,5,1,20,115,,,,,,,,
,,608c349d8e7f57e8f84d3a27,65b1a112572ddd00311d4d5e,2024-01-24_23h48.09.561,bars,2023.2.3,Win32,59.88023952,657b66ea316d21385b68909f,,,,,,,,,,,1610.1904,1611.1868,,,1611.6865,1611.9361,,102,102,,,,,,,,,,,,,,,,bars/001.png,bars/mask002.png,,,,,,,,,,,,1,2,,,,,,,5,1,7,2,,,,,,,,,,,1611.1869,1611.6864,1611.9361,1616.0549,space,4.0997,,1616.0549,28,17,1617.0485,1617.0487,1617.0571,,,,0,6,6,6,1,130,85,,,,,,,,
,,608c349d8e7f57e8f84d3a27,65b1a112572ddd00311d4d5e,2024-01-24_23h48.09.561,bars,2023.2.3,Win32,59.88023952,657b66ea316d21385b68909f,,,,,,,,,,,1617.0572,1618.0477,,,1618.5472,1618.797,,175,-5,,,,,,,,,,,,,,,,bars/003.png,bars/mask004.png,,,,,,,,,,,,0,1,,,,,,,3,3,3,3,,,,,,,,,,,1618.0477,1618.5471,1618.7972,1621.9948,space,3.1651,,1621.9949,30,35,1622.9937,1622.9939,1623.0025,,,,0,7,7,7,1,25,140,,,,,,,,
,,608c349d8e7f57e8f84d3a27,65b1a112572ddd00311d4d5e,2024-01-24_23h48.09.561,bars,2023.2.3,Win32,59.88023952,657b66ea316d21385b68909f,,,,,,,,,,,1623.0026,1623.9926,,,1624.4929,1624.7422,,34,214,,,,,,,,,,,,,,,,bars/007.png,bars/mask008.png,,,,,,,,,,,,0,2,,,,,,,5,1,3,1,,,,,,,,,,,1623.9927,1624.4928,1624.7422,1626.9076,space,2.1409,,1626.9078,39,21,1627.9063,1627.9064,1627.9092,,,,0,8,8,8,1,175,55,,,,,,,,
,,608c349d8e7f57e8f84d3a27,65b1a112572ddd00311d4d5e,2024-01-24_23h48.09.561,bars,2023.2.3,Win32,59.88023952,657b66ea316d21385b68909f,,,,,,,,,,,1627.9093,1628.9055,,,1629.405,1629.6549,,167,-13,,,,,,,,,,,,,,,,bars/020.png,bars/mask001.png,,,,,,,,,,,,5,2,,,,,,,3,3,2,5,,,,,,,,,,,1628.9056,1629.4049,1629.6551,1632.136,space,2.4502,,1632.1362,52,3,1633.1352,1633.1353,1633.1444,,,,0,9,9,9,1,115,170,,,,,,,,
,,608c349d8e7f57e8f84d3a27,65b1a112572ddd00311d4d5e,2024-01-24_23h48.09.561,bars,2023.2.3,Win32,59.88023952,657b66ea316d21385b68909f,,,,,,,,,,,1633.1445,1634.1346,,,1634.6341,1634.884,,4,184,,,,,,,,,,,,,,,,bars/005.png,bars/mask004.png,,,,,,,,,,,,0,1,,,,,,,1,1,0,0,,,,,,,,,,,1634.1347,1634.6341,1634.8841,1636.4164,space,1.5243,,1636.4166,6,44,1637.4153,1637.4154,1637.4176,,,,0,10,10,10,1,10,140,,,,,,,,
,,608c349d8e7f57e8f84d3a27,65b1a112572ddd00311d4d5e,2024-01-24_23h48.09.561,bars,2023.2.3,Win32,59.88023952,657b66ea316d21385b68909f,,,,,,,,,,,1637.4179,1638.4141,,,1638.914,1639.1632,,172,-8,,,,,,,,,,,,,,,,bars/000.png,bars/mask003.png,,,,,,,,,,,,0,2,,,,,,,3,0,3,0,,,,,,,,,,,1638.4142,1638.914,1639.1632,1640.4019,space,1.2326,,1640.4019,48,27,1641.3951,1641.3952,1641.3976,,,,0,11,11,11,1,40,145,,,,,,,,
,,608c349d8e7f57e8f84d3a27,65b1a112572ddd00311d4d5e,2024-01-24_23h48.09.561,bars,2023.2.3,Win32,59.88023952,657b66ea316d21385b68909f,,,,,,,,,,,1641.3978,1642.3943,,,1642.8942,1643.1442,,52,232,,,,,,,,,,,,,,,,bars/007.png,bars/mask009.png,,,,,,,,,,,,0,2,,,,,,,5,0,6,0,,,,,,,,,,,1642.3944,1642.894,1643.1442,1646.9075,space,3.7329,,1646.9077,57,3,1647.9065,1647.9066,1647.9153,,,,0,12,12,12,1,175,55,,,,,,,,
,,608c349d8e7f57e8f84d3a27,65b1a112572ddd00311d4d5e,2024-01-24_23h48.09.561,bars,2023.2.3,Win32,59.88023952,657b66ea316d21385b68909f,,,,,,,,,,,1647.9155,1648.9058,,,1649.4053,1649.655,,179,-1,,,,,,,,,,,,,,,,bars/048.png,bars/mask009.png,,,,,,,,,,,,2,2,,,,,,,7,2,7,2,,,,,,,,,,,1648.9058,1649.4052,1649.6551,1653.7741,space,4.1134,,1653.7741,51,4,1654.7666,1654.7666,1654.773,,,,0,13,13,13,1,50,175,,,,,,,,
