init_variables.started,init_variables.stopped,participant,session,date,expName,psychopyVersion,OS,frameRate,study_id,instruction_exp.started,instruction_exp.stopped,key_resp_8.keys,key_resp_8.rt,key_resp_8.duration,instruction_single.started,instruction_single.stopped,key_resp_2.keys,key_resp_2.rt,key_resp_2.duration,interval.started,interval.stopped,cue_single.started,cue_single.stopped,mask.started,mask.stopped,ori_response_single.started,res_ori,res,ori_response_single.stopped,key_resp_single.keys,key_resp_single.rt,key_resp_single.duration,disp_single.started,disp_single.stopped,key_resp.keys,key_resp.rt,key_resp.duration,single.thisRepN,single.thisTrialN,single.thisN,single.thisIndex,single.ran,ori,path,mask_path,instruction_bandit.started,instruction_bandit.stopped,key_resp_6.keys,key_resp_6.rt,key_resp_6.duration,cue_bandit.started,cue_bandit.stopped,bandit_res.keys,bandit_res.rt,bandit_res.duration,outcome_bandit.started,rew,action,outcome_bandit.stopped,bandit.thisRepN,bandit.thisTrialN,bandit.thisN,bandit.thisIndex,bandit.ran,actual_rew1,actual_rew2,rew1,rew2,instruction_task.started,instruction_task.stopped,key_resp_7.keys,key_resp_7.rt,key_resp_7.duration,wait_ready.started,wait_ready.stopped,key_resp_3.keys,key_resp_3.rt,key_resp_3.duration,cue.started,cue.stopped,ori_response.started,ori_response.stopped,key_resp_5.keys,key_resp_5.rt,key_resp_5.duration,outcome.started,diff1,diff2,outcome.stopped,disp_outcome_practice.started,disp_outcome_practice.stopped,key_resp_4.keys,key_resp_4.rt,key_resp_4.duration,trials.thisRepN,trials.thisTrialN,trials.thisN,trials.thisIndex,trials.ran,ori1,ori2,break_blk.started,break_blk.stopped,block.thisRepN,block.thisTrialN,block.thisN,block.thisIndex,block.ran,condition_file
0.0006,0.0009,61768a49d07402e9dc818469,65af5661db6f3bf0e8762320,2024-01-23_08h11.29.384,bars,2023.2.3,Win32,60.24096386,657b66ea316d21385b68909f,,,,,,,,,,,,,,,,,,,,,,,,,,,,,,,,,,,,,,,,,,,,,,,,,,,,,,,,,,,,,,,,,,,,,,,,,,,,,,,,,,,,,,,,,,,,,,,,,,,,
,,61768a49d07402e9dc818469,65af5661db6f3bf0e8762320,2024-01-23_08h11.29.384,bars,2023.2.3,Win32,60.24096386,657b66ea316d21385b68909f,0.0013,22.0982,y,21.8768,,,,,,,,,,,,,,,,,,,,,,,,,,,,,,,,,,,,,,,,,,,,,,,,,,,,,,,,,,,,,,,,,,,,,,,,,,,,,,,,,,,,,,,,,,,,,,,,
,,61768a49d07402e9dc818469,65af5661db6f3bf0e8762320,2024-01-23_08h11.29.384,bars,2023.2.3,Win32,60.24096386,657b66ea316d21385b68909f,,,,,,22.0985,47.9822,space,25.8262,,,,,,,,,,,,,,,,,,,,,,,,,,,,,,,,,,,,,,,,,,,,,,,,,,,,,,,,,,,,,,,,,,,,,,,,,,,,,,,,,,,,,,,,,,,
,,61768a49d07402e9dc818469,65af5661db6f3bf0e8762320,2024-01-23_08h11.29.384,bars,2023.2.3,Win32,60.24096386,657b66ea316d21385b68909f,,,,,,,,,,,47.9963,48.9964,48.9971,49.4957,49.4962,49.7385,49.7397,179,-1,91.3257,space,41.44,,91.3262,113.6068,space,22.2034,,0,0,0,9,1,20,bars/single009.png,bars/mask006.png,,,,,,,,,,,,,,,,,,,,,,,,,,,,,,,,,,,,,,,,,,,,,,,,,,,,,,,,,,,,,,,,
,,61768a49d07402e9dc818469,65af5661db6f3bf0e8762320,2024-01-23_08h11.29.384,bars,2023.2.3,Win32,60.24096386,657b66ea316d21385b68909f,,,,,,,,,,,113.6365,114.621,114.6212,115.1272,115.1275,115.3693,115.3694,28,28,123.3293,space,7.9405,,123.3294,132.9502,space,9.5677,,0,1,1,6,1,175,bars/single006.png,bars/mask005.png,,,,,,,,,,,,,,,,,,,,,,,,,,,,,,,,,,,,,,,,,,,,,,,,,,,,,,,,,,,,,,,,
,,61768a49d07402e9dc818469,65af5661db6f3bf0e8762320,2024-01-23_08h11.29.384,bars,2023.2.3,Win32,60.24096386,657b66ea316d21385b68909f,,,,,,,,,,,132.9704,133.9518,133.9518,134.4573,134.4573,134.7107,134.7108,21,201,142.9436,space,8.2121,,142.9446,152.628,space,9.6416,,0,2,2,4,1,95,bars/single004.png,bars/mask004.png,,,,,,,,,,,,,,,,,,,,,,,,,,,,,,,,,,,,,,,,,,,,,,,,,,,,,,,,,,,,,,,,
,,61768a49d07402e9dc818469,65af5661db6f3bf0e8762320,2024-01-23_08h11.29.384,bars,2023.2.3,Win32,60.24096386,657b66ea316d21385b68909f,,,,,,,,,,,152.6529,153.632,153.6324,154.1337,154.1338,154.3821,154.3825,88,88,166.7289,space,12.3288,,166.729,170.0993,space,3.3264,,0,3,3,5,1,55,bars/single005.png,bars/mask008.png,,,,,,,,,,,,,,,,,,,,,,,,,,,,,,,,,,,,,,,,,,,,,,,,,,,,,,,,,,,,,,,,
,,61768a49d07402e9dc818469,65af5661db6f3bf0e8762320,2024-01-23_08h11.29.384,bars,2023.2.3,Win32,60.24096386,657b66ea316d21385b68909f,,,,,,,,,,,170.1017,171.0908,171.0909,171.5812,171.5832,171.8404,171.8407,118,118,174.7282,space,2.8672,,174.7284,177.1092,space,2.3547,,0,4,4,7,1,45,bars/single007.png,bars/mask009.png,,,,,,,,,,,,,,,,,,,,,,,,,,,,,,,,,,,,,,,,,,,,,,,,,,,,,,,,,,,,,,,,
,,61768a49d07402e9dc818469,65af5661db6f3bf0e8762320,2024-01-23_08h11.29.384,bars,2023.2.3,Win32,60.24096386,657b66ea316d21385b68909f,,,,,,,,,,,177.1278,178.1118,178.112,178.6116,178.612,178.8629,178.863,37,37,193.3448,space,14.4622,,193.3448,195.5796,space,2.1898,,0,5,5,1,1,20,bars/single001.png,bars/mask006.png,,,,,,,,,,,,,,,,,,,,,,,,,,,,,,,,,,,,,,,,,,,,,,,,,,,,,,,,,,,,,,,,
,,61768a49d07402e9dc818469,65af5661db6f3bf0e8762320,2024-01-23_08h11.29.384,bars,2023.2.3,Win32,60.24096386,657b66ea316d21385b68909f,,,,,,,,,,,195.5817,196.5741,196.5743,197.0764,197.0766,197.3144,197.3146,34,34,207.9944,space,10.6606,,207.9945,211.8114,space,3.771,,0,6,6,3,1,20,bars/single003.png,bars/mask005.png,,,,,,,,,,,,,,,,,,,,,,,,,,,,,,,,,,,,,,,,,,,,,,,,,,,,,,,,,,,,,,,,
,,61768a49d07402e9dc818469,65af5661db6f3bf0e8762320,2024-01-23_08h11.29.384,bars,2023.2.3,Win32,60.24096386,657b66ea316d21385b68909f,,,,,,,,,,,211.8127,212.8111,212.8112,213.3115,213.3115,213.567,213.5671,24,204,222.821,space,9.2346,,222.8218,225.1438,space,2.28,,0,7,7,0,1,150,bars/single000.png,bars/mask006.png,,,,,,,,,,,,,,,,,,,,,,,,,,,,,,,,,,,,,,,,,,,,,,,,,,,,,,,,,,,,,,,,
,,61768a49d07402e9dc818469,65af5661db6f3bf0e8762320,2024-01-23_08h11.29.384,bars,2023.2.3,Win32,60.24096386,657b66ea316d21385b68909f,,,,,,,,,,,225.1461,226.1432,226.1432,226.6331,226.6332,226.8528,226.8545,120,120,231.4363,space,4.5652,,231.4367,232.4736,space,0.9916,,0,8,8,8,1,160,bars/single008.png,bars/mask004.png,,,,,,,,,,,,,,,,,,,,,,,,,,,,,,,,,,,,,,,,,,,,,,,,,,,,,,,,,,,,,,,,
,,61768a49d07402e9dc818469,65af5661db6f3bf0e8762320,2024-01-23_08h11.29.384,bars,2023.2.3,Win32,60.24096386,657b66ea316d21385b68909f,,,,,,,,,,,232.4772,233.4703,233.4706,233.9791,233.9792,234.2241,234.2244,87,87,239.5141,space,5.2701,,239.5143,239.94,space,0.3823,,0,9,9,2,1,145,bars/single002.png,bars/mask003.png,,,,,,,,,,,,,,,,,,,,,,,,,,,,,,,,,,,,,,,,,,,,,,,,,,,,,,,,,,,,,,,,
,,61768a49d07402e9dc818469,65af5661db6f3bf0e8762320,2024-01-23_08h11.29.384,bars,2023.2.3,Win32,60.24096386,657b66ea316d21385b68909f,,,,,,,,,,,,,,,,,,,,,,,,,,,,,,,,,,,,,239.9431,285.4717,space,45.47,,,,,,,,,,,,,,,,,,,,,,,,,,,,,,,,,,,,,,,,,,,,,,,,,,,,,,,,,,,,
,,61768a49d07402e9dc818469,65af5661db6f3bf0e8762320,2024-01-23_08h11.29.384,bars,2023.2.3,Win32,60.24096386,657b66ea316d21385b68909f,,,,,,,,,,,,,,,,,,,,,,,,,,,,,,,,,,,,,,,,,,285.4986,290.8904,right,5.339,,290.8915,2,2,291.8985,0,0,0,0,1,9,1,9,2,,,,,,,,,,,,,,,,,,,,,,,,,,,,,,,,,,,,,,,,,
,,61768a49d07402e9dc818469,65af5661db6f3bf0e8762320,2024-01-23_08h11.29.384,bars,2023.2.3,Win32,60.24096386,657b66ea316d21385b68909f,,,,,,,,,,,,,,,,,,,,,,,,,,,,,,,,,,,,,,,,,,291.9,295.8019,right,3.884,,295.8022,1,2,296.7999,0,1,1,1,1,10,0,10,1,,,,,,,,,,,,,,,,,,,,,,,,,,,,,,,,,,,,,,,,,
,,61768a49d07402e9dc818469,65af5661db6f3bf0e8762320,2024-01-23_08h11.29.384,bars,2023.2.3,Win32,60.24096386,657b66ea316d21385b68909f,,,,,,,,,,,,,,,,,,,,,,,,,,,,,,,,,,,,,,,,,,296.8187,300.6351,left,3.8008,,300.6352,10,1,301.6378,0,2,2,2,1,10,2,10,2,,,,,,,,,,,,,,,,,,,,,,,,,,,,,,,,,,,,,,,,,
,,61768a49d07402e9dc818469,65af5661db6f3bf0e8762320,2024-01-23_08h11.29.384,bars,2023.2.3,Win32,60.24096386,657b66ea316d21385b68909f,,,,,,,,,,,,,,,,,,,,,,,,,,,,,,,,,,,,,,,,,,301.6557,306.7725,right,5.1017,,306.7727,3,2,307.7831,0,3,3,3,1,8,4,7,3,,,,,,,,,,,,,,,,,,,,,,,,,,,,,,,,,,,,,,,,,
,,61768a49d07402e9dc818469,65af5661db6f3bf0e8762320,2024-01-23_08h11.29.384,bars,2023.2.3,Win32,60.24096386,657b66ea316d21385b68909f,,,,,,,,,,,,,,,,,,,,,,,,,,,,,,,,,,,,,,,,,,307.804,310.6291,left,2.811,,310.6293,5,1,311.6295,0,4,4,4,1,6,2,5,1,,,,,,,,,,,,,,,,,,,,,,,,,,,,,,,,,,,,,,,,,
,,61768a49d07402e9dc818469,65af5661db6f3bf0e8762320,2024-01-23_08h11.29.384,bars,2023.2.3,Win32,60.24096386,657b66ea316d21385b68909f,,,,,,,,,,,,,,,,,,,,,,,,,,,,,,,,,,,,,,,,,,311.6596,314.7894,left,3.1116,,314.79,4,1,315.7827,0,5,5,5,1,4,4,4,4,,,,,,,,,,,,,,,,,,,,,,,,,,,,,,,,,,,,,,,,,
,,61768a49d07402e9dc818469,65af5661db6f3bf0e8762320,2024-01-23_08h11.29.384,bars,2023.2.3,Win32,60.24096386,657b66ea316d21385b68909f,,,,,,,,,,,,,,,,,,,,,,,,,,,,,,,,,,,,,,,,,,315.8008,328.6699,left,12.8549,,328.67,1,1,329.6641,0,6,6,6,1,2,2,1,2,,,,,,,,,,,,,,,,,,,,,,,,,,,,,,,,,,,,,,,,,
,,61768a49d07402e9dc818469,65af5661db6f3bf0e8762320,2024-01-23_08h11.29.384,bars,2023.2.3,Win32,60.24096386,657b66ea316d21385b68909f,,,,,,,,,,,,,,,,,,,,,,,,,,,,,,,,,,,,,,,,,,329.685,340.4044,right,10.7051,,340.4048,1,2,341.4184,0,7,7,7,1,0,0,0,1,,,,,,,,,,,,,,,,,,,,,,,,,,,,,,,,,,,,,,,,,
,,61768a49d07402e9dc818469,65af5661db6f3bf0e8762320,2024-01-23_08h11.29.384,bars,2023.2.3,Win32,60.24096386,657b66ea316d21385b68909f,,,,,,,,,,,,,,,,,,,,,,,,,,,,,,,,,,,,,,,,,,341.4391,345.8969,left,4.4427,,345.8972,1,1,346.9031,0,8,8,8,1,0,2,1,0,,,,,,,,,,,,,,,,,,,,,,,,,,,,,,,,,,,,,,,,,
,,61768a49d07402e9dc818469,65af5661db6f3bf0e8762320,2024-01-23_08h11.29.384,bars,2023.2.3,Win32,60.24096386,657b66ea316d21385b68909f,,,,,,,,,,,,,,,,,,,,,,,,,,,,,,,,,,,,,,,,,,346.9252,349.6188,right,2.6784,,349.6193,3,2,350.6093,0,9,9,9,1,2,4,2,3,,,,,,,,,,,,,,,,,,,,,,,,,,,,,,,,,,,,,,,,,
,,61768a49d07402e9dc818469,65af5661db6f3bf0e8762320,2024-01-23_08h11.29.384,bars,2023.2.3,Win32,60.24096386,657b66ea316d21385b68909f,,,,,,,,,,,,,,,,,,,,,,,,,,,,,,,,,,,,,,,,,,350.6312,356.0507,right,5.4049,,356.0508,3,2,357.0515,0,10,10,10,1,0,2,0,3,,,,,,,,,,,,,,,,,,,,,,,,,,,,,,,,,,,,,,,,,
,,61768a49d07402e9dc818469,65af5661db6f3bf0e8762320,2024-01-23_08h11.29.384,bars,2023.2.3,Win32,60.24096386,657b66ea316d21385b68909f,,,,,,,,,,,,,,,,,,,,,,,,,,,,,,,,,,,,,,,,,,357.07,388.5385,right,31.4528,,388.5386,3,2,389.5412,0,11,11,11,1,0,4,0,3,,,,,,,,,,,,,,,,,,,,,,,,,,,,,,,,,,,,,,,,,
,,61768a49d07402e9dc818469,65af5661db6f3bf0e8762320,2024-01-23_08h11.29.384,bars,2023.2.3,Win32,60.24096386,657b66ea316d21385b68909f,,,,,,,,,,,,,,,,,,,,,,,,,,,,,,,,,,,,,,,,,,389.5615,392.7083,right,3.1311,,392.7085,6,2,393.6983,0,12,12,12,1,2,6,1,6,,,,,,,,,,,,,,,,,,,,,,,,,,,,,,,,,,,,,,,,,
,,61768a49d07402e9dc818469,65af5661db6f3bf0e8762320,2024-01-23_08h11.29.384,bars,2023.2.3,Win32,60.24096386,657b66ea316d21385b68909f,,,,,,,,,,,,,,,,,,,,,,,,,,,,,,,,,,,,,,,,,,393.7186,394.5609,right,0.8265,,394.561,3,2,395.5665,0,13,13,13,1,0,4,1,3,,,,,,,,,,,,,,,,,,,,,,,,,,,,,,,,,,,,,,,,,
,,61768a49d07402e9dc818469,65af5661db6f3bf0e8762320,2024-01-23_08h11.29.384,bars,2023.2.3,Win32,60.24096386,657b66ea316d21385b68909f,,,,,,,,,,,,,,,,,,,,,,,,,,,,,,,,,,,,,,,,,,395.5683,396.5448,left,0.9566,,396.545,2,1,397.5427,0,14,14,14,1,2,6,2,7,,,,,,,,,,,,,,,,,,,,,,,,,,,,,,,,,,,,,,,,,
,,61768a49d07402e9dc818469,65af5661db6f3bf0e8762320,2024-01-23_08h11.29.384,bars,2023.2.3,Win32,60.24096386,657b66ea316d21385b68909f,,,,,,,,,,,,,,,,,,,,,,,,,,,,,,,,,,,,,,,,,,397.5445,398.5802,right,1.0186,,398.5802,9,2,399.578,0,15,15,15,1,4,8,3,9,,,,,,,,,,,,,,,,,,,,,,,,,,,,,,,,,,,,,,,,,
,,61768a49d07402e9dc818469,65af5661db6f3bf0e8762320,2024-01-23_08h11.29.384,bars,2023.2.3,Win32,60.24096386,657b66ea316d21385b68909f,,,,,,,,,,,,,,,,,,,,,,,,,,,,,,,,,,,,,,,,,,399.5804,400.5826,right,0.9854,,400.5828,7,2,401.5849,0,16,16,16,1,6,6,7,7,,,,,,,,,,,,,,,,,,,,,,,,,,,,,,,,,,,,,,,,,
,,61768a49d07402e9dc818469,65af5661db6f3bf0e8762320,2024-01-23_08h11.29.384,bars,2023.2.3,Win32,60.24096386,657b66ea316d21385b68909f,,,,,,,,,,,,,,,,,,,,,,,,,,,,,,,,,,,,,,,,,,401.5867,402.2502,right,0.6403,,402.2502,5,2,403.2502,0,17,17,17,1,8,4,9,5,,,,,,,,,,,,,,,,,,,,,,,,,,,,,,,,,,,,,,,,,
,,61768a49d07402e9dc818469,65af5661db6f3bf0e8762320,2024-01-23_08h11.29.384,bars,2023.2.3,Win32,60.24096386,657b66ea316d21385b68909f,,,,,,,,,,,,,,,,,,,,,,,,,,,,,,,,,,,,,,,,,,403.2522,404.0014,left,0.7313,,404.0018,5,1,404.9968,0,18,18,18,1,6,2,5,1,,,,,,,,,,,,,,,,,,,,,,,,,,,,,,,,,,,,,,,,,
,,61768a49d07402e9dc818469,65af5661db6f3bf0e8762320,2024-01-23_08h11.29.384,bars,2023.2.3,Win32,60.24096386,657b66ea316d21385b68909f,,,,,,,,,,,,,,,,,,,,,,,,,,,,,,,,,,,,,,,,,,404.9993,405.8787,right,0.8608,,405.8791,0,2,406.8794,0,19,19,19,1,8,0,7,0,,,,,,,,,,,,,,,,,,,,,,,,,,,,,,,,,,,,,,,,,
,,61768a49d07402e9dc818469,65af5661db6f3bf0e8762320,2024-01-23_08h11.29.384,bars,2023.2.3,Win32,60.24096386,657b66ea316d21385b68909f,,,,,,,,,,,,,,,,,,,,,,,,,,,,,,,,,,,,,,,,,,,,,,,,,,,,,,,,,,,,406.8818,425.9312,space,19.0066,,,,,,,,,,,,,,,,,,,,,,,,,,,,,,,,,,,,,
,,61768a49d07402e9dc818469,65af5661db6f3bf0e8762320,2024-01-23_08h11.29.384,bars,2023.2.3,Win32,60.24096386,657b66ea316d21385b68909f,,,,,,,,,,,429.8976,430.897,,,431.3995,431.6414,,36,36,,,,,,,,,,,,,,,,bars/040.png,bars/mask001.png,,,,,,,,,,,,0,2,,,,,,,9,4,9,4,,,,,,425.9576,429.8819,space,3.8888,,430.8977,431.3992,431.6426,441.0636,space,9.3696,,441.0649,76,31,442.0535,442.0546,455.0209,space,12.9034,,0,0,0,0,1,140,5,,,,,,,,
,,61768a49d07402e9dc818469,65af5661db6f3bf0e8762320,2024-01-23_08h11.29.384,bars,2023.2.3,Win32,60.24096386,657b66ea316d21385b68909f,,,,,,,,,,,455.0389,456.0195,,,456.517,456.7668,,150,150,,,,,,,,,,,,,,,,bars/034.png,bars/mask005.png,,,,,,,,,,,,2,1,,,,,,,10,6,10,6,,,,,,,,,,,456.0197,456.5167,456.7669,467.2503,space,10.4636,,467.2507,25,85,468.2504,468.2507,471.1513,space,2.8425,,0,1,1,1,1,125,65,,,,,,,,
,,61768a49d07402e9dc818469,65af5661db6f3bf0e8762320,2024-01-23_08h11.29.384,bars,2023.2.3,Win32,60.24096386,657b66ea316d21385b68909f,,,,,,,,,,,471.1526,472.1466,,,472.647,472.9022,,165,-15,,,,,,,,,,,,,,,,bars/000.png,bars/mask009.png,,,,,,,,,,,,2,2,,,,,,,8,4,8,5,,,,,,,,,,,472.1468,472.6467,472.9024,479.7143,space,6.792,,479.7145,55,20,480.716,480.7162,483.0178,space,2.2282,,0,2,2,2,1,40,145,,,,,,,,
,,61768a49d07402e9dc818469,65af5661db6f3bf0e8762320,2024-01-23_08h11.29.384,bars,2023.2.3,Win32,60.24096386,657b66ea316d21385b68909f,,,,,,,,,,,483.0198,484.0147,,,484.504,484.7509,,58,58,,,,,,,,,,,,,,,,bars/035.png,bars/mask008.png,,,,,,,,,,,,7,2,,,,,,,6,6,6,7,,,,,,,,,,,484.0149,484.5038,484.751,490.6318,space,5.8619,,490.6335,63,2,491.6236,491.6237,494.0687,space,2.3879,,0,3,3,3,1,175,60,,,,,,,,
,,61768a49d07402e9dc818469,65af5661db6f3bf0e8762320,2024-01-23_08h11.29.384,bars,2023.2.3,Win32,60.24096386,657b66ea316d21385b68909f,,,,,,,,,,,494.0717,495.0611,,,495.5396,495.7981,,139,139,,,,,,,,,,,,,,,,bars/002.png,bars/mask005.png,,,,,,,,,,,,2,1,,,,,,,4,8,3,8,,,,,,,,,,,495.0612,495.5393,495.7982,501.3738,space,5.5576,,501.3739,9,54,502.3668,502.367,506.1532,space,3.7318,,0,4,4,4,1,130,85,,,,,,,,
,,61768a49d07402e9dc818469,65af5661db6f3bf0e8762320,2024-01-23_08h11.29.384,bars,2023.2.3,Win32,60.24096386,657b66ea316d21385b68909f,,,,,,,,,,,506.1556,507.1506,,,507.6444,507.9005,,43,43,,,,,,,,,,,,,,,,bars/018.png,bars/mask006.png,,,,,,,,,,,,0,2,,,,,,,2,10,1,10,,,,,,,,,,,507.1507,507.6443,507.9006,513.5645,space,5.645,,513.5647,73,47,514.5655,514.5657,516.587,space,1.9598,,0,5,5,5,1,150,90,,,,,,,,
,,61768a49d07402e9dc818469,65af5661db6f3bf0e8762320,2024-01-23_08h11.29.384,bars,2023.2.3,Win32,60.24096386,657b66ea316d21385b68909f,,,,,,,,,,,516.5887,517.5667,,,518.0673,518.3211,,16,196,,,,,,,,,,,,,,,,bars/033.png,bars/mask008.png,,,,,,,,,,,,3,1,,,,,,,4,8,4,8,,,,,,,,,,,517.567,518.0673,518.3214,524.0058,space,5.665,,524.0063,9,41,525.003,525.0032,527.028,space,1.9736,,0,6,6,6,1,25,155,,,,,,,,
,,61768a49d07402e9dc818469,65af5661db6f3bf0e8762320,2024-01-23_08h11.29.384,bars,2023.2.3,Win32,60.24096386,657b66ea316d21385b68909f,,,,,,,,,,,527.03,528.0272,,,528.5228,528.7884,,42,222,,,,,,,,,,,,,,,,bars/014.png,bars/mask001.png,,,,,,,,,,,,0,1,,,,,,,2,10,1,10,,,,,,,,,,,528.0274,528.5226,528.7885,535.2486,space,6.442,,535.2493,38,42,536.2331,536.2333,537.1182,space,0.8385,,0,7,7,7,1,80,0,,,,,,,,
,,61768a49d07402e9dc818469,65af5661db6f3bf0e8762320,2024-01-23_08h11.29.384,bars,2023.2.3,Win32,60.24096386,657b66ea316d21385b68909f,,,,,,,,,,,537.1204,538.0972,,,538.5953,538.8367,,122,122,,,,,,,,,,,,,,,,bars/027.png,bars/mask005.png,,,,,,,,,,,,2,1,,,,,,,4,8,4,7,,,,,,,,,,,538.0975,538.5953,538.8368,542.6722,space,3.8131,,542.6723,12,72,543.6599,543.66,545.0221,space,1.3193,,0,8,8,8,1,110,50,,,,,,,,
,,61768a49d07402e9dc818469,65af5661db6f3bf0e8762320,2024-01-23_08h11.29.384,bars,2023.2.3,Win32,60.24096386,657b66ea316d21385b68909f,,,,,,,,,,,545.0236,546.0306,,,546.5237,546.774,,138,138,,,,,,,,,,,,,,,,bars/003.png,bars/mask006.png,,,,,,,,,,,,7,2,,,,,,,2,6,2,7,,,,,,,,,,,546.0308,546.5235,546.7741,550.6531,space,3.8603,,550.6534,67,2,551.6301,551.6303,552.5125,space,0.8273,,0,9,9,9,1,25,140,,,,,,,,
,,61768a49d07402e9dc818469,65af5661db6f3bf0e8762320,2024-01-23_08h11.29.384,bars,2023.2.3,Win32,60.24096386,657b66ea316d21385b68909f,,,,,,,,,,,552.5141,553.5279,,,554.0327,554.0356,,35,35,,,,,,,,,,,,,,,,bars/045.png,bars/mask006.png,,,,,,,,,,,,1,2,,,,,,,4,8,3,7,,,,,,,,,,,553.5279,554.0326,554.0358,560.6309,space,6.5784,,560.6311,65,25,561.6237,561.6238,562.7608,space,1.094,,0,10,10,10,1,100,10,,,,,,,,
,,61768a49d07402e9dc818469,65af5661db6f3bf0e8762320,2024-01-23_08h11.29.384,bars,2023.2.3,Win32,60.24096386,657b66ea316d21385b68909f,,,,,,,,,,,562.7627,563.7595,,,564.2575,564.4979,,115,115,,,,,,,,,,,,,,,,bars/032.png,bars/mask003.png,,,,,,,,,,,,1,1,,,,,,,2,6,1,7,,,,,,,,,,,563.7599,564.2574,564.498,641.5083,space,76.9913,,641.5084,10,85,642.4921,642.4924,643.8506,space,1.2906,,0,11,11,11,1,125,20,,,,,,,,
,,61768a49d07402e9dc818469,65af5661db6f3bf0e8762320,2024-01-23_08h11.29.384,bars,2023.2.3,Win32,60.24096386,657b66ea316d21385b68909f,,,,,,,,,,,643.8546,644.843,,,645.3312,645.562,,53,53,,,,,,,,,,,,,,,,bars/019.png,bars/mask001.png,,,,,,,,,,,,3,1,,,,,,,4,4,4,6,,,,,,,,,,,644.843,645.3309,645.5623,652.5579,space,6.9775,,652.5583,8,52,653.5471,653.5473,655.8339,space,2.2417,,0,12,12,12,1,45,105,,,,,,,,
,,61768a49d07402e9dc818469,65af5661db6f3bf0e8762320,2024-01-23_08h11.29.384,bars,2023.2.3,Win32,60.24096386,657b66ea316d21385b68909f,,,,,,,,,,,655.8359,656.8356,,,657.3329,657.5856,,133,133,,,,,,,,,,,,,,,,bars/002.png,bars/mask003.png,,,,,,,,,,,,1,1,,,,,,,2,6,1,6,,,,,,,,,,,656.8359,657.3309,657.5859,662.749,space,5.1451,,662.7495,3,48,663.7389,663.7391,672.4927,space,8.6978,,0,13,13,13,1,130,85,,,,,,,,
,,61768a49d07402e9dc818469,65af5661db6f3bf0e8762320,2024-01-23_08h11.29.384,bars,2023.2.3,Win32,60.24096386,657b66ea316d21385b68909f,,,,,,,,,,,672.5148,673.5009,,,674.0009,674.267,,141,141,,,,,,,,,,,,,,,,bars/030.png,bars/mask007.png,,,,,,,,,,,,4,1,,,,,,,4,4,4,4,,,,,,,,,,,673.501,674.0008,674.267,678.4756,space,4.19,,678.4758,1,76,679.4583,679.4586,680.892,space,1.3915,,0,14,14,14,1,140,65,,,,,,,,
,,61768a49d07402e9dc818469,65af5661db6f3bf0e8762320,2024-01-23_08h11.29.384,bars,2023.2.3,Win32,60.24096386,657b66ea316d21385b68909f,,,,,,,,,,,680.8937,681.8814,,,682.3613,682.6096,,46,46,,,,,,,,,,,,,,,,bars/039.png,bars/mask006.png,,,,,,,,,,,,0,1,,,,,,,6,2,6,3,,,,,,,,,,,681.8814,682.3613,682.6096,691.709,space,9.0806,,691.7096,51,59,692.7045,692.7046,693.3815,space,0.6275,,0,15,15,15,1,175,105,,,,,,,,
,,61768a49d07402e9dc818469,65af5661db6f3bf0e8762320,2024-01-23_08h11.29.384,bars,2023.2.3,Win32,60.24096386,657b66ea316d21385b68909f,,,,,,,,,,,693.3827,694.3595,,,694.8555,695.0978,,143,143,,,,,,,,,,,,,,,,bars/002.png,bars/mask004.png,,,,,,,,,,,,5,1,,,,,,,8,0,8,0,,,,,,,,,,,694.3595,694.8554,695.0979,701.7409,space,6.6214,,701.7412,13,58,702.747,702.7472,704.2752,space,1.47,,0,16,16,16,1,130,85,,,,,,,,
,,61768a49d07402e9dc818469,65af5661db6f3bf0e8762320,2024-01-23_08h11.29.384,bars,2023.2.3,Win32,60.24096386,657b66ea316d21385b68909f,,,,,,,,,,,704.2792,705.2822,,,705.7675,706.0078,,152,-28,,,,,,,,,,,,,,,,bars/008.png,bars/mask002.png,,,,,,,,,,,,0,2,,,,,,,6,2,6,3,,,,,,,,,,,705.2823,705.7673,706.0081,718.785,space,12.7543,,718.7859,42,28,719.7678,719.768,720.6941,space,0.8544,,0,17,17,17,1,110,0,,,,,,,,
,,61768a49d07402e9dc818469,65af5661db6f3bf0e8762320,2024-01-23_08h11.29.384,bars,2023.2.3,Win32,60.24096386,657b66ea316d21385b68909f,,,,,,,,,,,720.6974,721.6856,,,722.1867,722.4321,,43,223,,,,,,,,,,,,,,,,bars/018.png,bars/mask007.png,,,,,,,,,,,,0,2,,,,,,,4,4,1,4,,,,,,,,,,,721.6858,722.1866,722.4326,728.1656,space,5.715,,728.1658,73,47,729.1723,729.1725,805.5979,space,76.3832,,0,18,18,18,1,150,90,,,,,,,,
,,61768a49d07402e9dc818469,65af5661db6f3bf0e8762320,2024-01-23_08h11.29.384,bars,2023.2.3,Win32,60.24096386,657b66ea316d21385b68909f,,,,,,,,,,,805.6177,806.6173,,,807.1018,807.3328,,161,161,,,,,,,,,,,,,,,,bars/037.png,bars/mask009.png,,,,,,,,,,,,2,1,,,,,,,2,2,3,3,,,,,,,,,,,806.6175,807.1017,807.3331,831.9521,space,24.6,,831.9524,11,56,832.9444,832.9445,834.4172,space,1.405,,0,19,19,19,1,150,105,,,,,,,,
,,61768a49d07402e9dc818469,65af5661db6f3bf0e8762320,2024-01-23_08h11.29.384,bars,2023.2.3,Win32,60.24096386,657b66ea316d21385b68909f,,,,,,,,,,,834.4194,835.3956,,,835.8865,836.1294,,157,-23,,,,,,,,,,,,,,,,bars/049.png,bars/mask006.png,,,,,,,,,,,,1,1,,,,,,,0,4,1,3,,,,,,,,,,,835.3958,835.8864,836.1295,847.2408,space,11.0893,,847.2418,3,42,848.2331,848.2332,877.8523,space,29.5639,,0,20,20,20,1,160,115,,,,,,,,
,,61768a49d07402e9dc818469,65af5661db6f3bf0e8762320,2024-01-23_08h11.29.384,bars,2023.2.3,Win32,60.24096386,657b66ea316d21385b68909f,,,,,,,,,,,877.8796,878.8703,,,879.3672,879.6068,,37,37,,,,,,,,,,,,,,,,bars/036.png,bars/mask009.png,,,,,,,,,,,,2,2,,,,,,,0,2,1,4,,,,,,,,,,,878.8705,879.3672,879.6071,885.8944,space,6.2695,,885.8944,72,17,886.8826,886.8828,887.391,space,0.4518,,0,21,21,21,1,145,20,,,,,,,,
,,61768a49d07402e9dc818469,65af5661db6f3bf0e8762320,2024-01-23_08h11.29.384,bars,2023.2.3,Win32,60.24096386,657b66ea316d21385b68909f,,,,,,,,,,,887.393,888.3946,,,888.9,889.1515,,140,140,,,,,,,,,,,,,,,,bars/049.png,bars/mask004.png,,,,,,,,,,,,1,1,,,,,,,2,0,3,1,,,,,,,,,,,888.3955,888.8999,889.1516,895.3953,space,6.2252,,895.3954,20,25,896.3956,896.3958,902.6395,space,6.1898,,0,22,22,22,1,160,115,,,,,,,,
,,61768a49d07402e9dc818469,65af5661db6f3bf0e8762320,2024-01-23_08h11.29.384,bars,2023.2.3,Win32,60.24096386,657b66ea316d21385b68909f,,,,,,,,,,,902.6565,903.6474,,,904.1376,904.3649,,135,-45,,,,,,,,,,,,,,,,bars/019.png,bars/mask006.png,,,,,,,,,,,,0,2,,,,,,,0,2,0,4,,,,,,,,,,,903.6476,904.1375,904.3649,910.0547,space,5.6713,,910.055,90,30,911.0492,911.0495,911.5461,space,0.4355,,0,23,23,23,1,45,105,,,,,,,,
,,61768a49d07402e9dc818469,65af5661db6f3bf0e8762320,2024-01-23_08h11.29.384,bars,2023.2.3,Win32,60.24096386,657b66ea316d21385b68909f,,,,,,,,,,,911.5486,912.5512,,,913.0406,913.2802,,154,154,,,,,,,,,,,,,,,,bars/027.png,bars/mask005.png,,,,,,,,,,,,0,1,,,,,,,2,4,2,4,,,,,,,,,,,912.5512,913.0406,913.2802,917.2349,space,3.9315,,917.2349,44,76,918.2239,918.224,919.7897,space,1.5121,,0,24,24,24,1,110,50,,,,,,,,
,,61768a49d07402e9dc818469,65af5661db6f3bf0e8762320,2024-01-23_08h11.29.384,bars,2023.2.3,Win32,60.24096386,657b66ea316d21385b68909f,,,,,,,,,,,919.7948,920.8007,,,921.2892,921.5321,,121,121,,,,,,,,,,,,,,,,bars/026.png,bars/mask008.png,,,,,,,,,,,,0,2,,,,,,,0,6,0,4,,,,,,,,,,,920.8009,921.289,921.5323,925.3955,space,3.8347,,925.3956,86,36,926.3861,926.3862,927.8939,space,1.4408,,0,25,25,25,1,35,85,,,,,,,,
,,61768a49d07402e9dc818469,65af5661db6f3bf0e8762320,2024-01-23_08h11.29.384,bars,2023.2.3,Win32,60.24096386,657b66ea316d21385b68909f,,,,,,,,,,,927.8961,928.8848,,,929.39,929.6226,,32,32,,,,,,,,,,,,,,,,bars/024.png,bars/mask003.png,,,,,,,,,,,,0,2,,,,,,,0,8,1,8,,,,,,,,,,,928.8848,929.39,929.6226,931.9571,space,2.3171,,931.9578,88,42,932.9646,932.9647,933.5611,space,0.5435,,0,26,26,26,1,120,170,,,,,,,,
,,61768a49d07402e9dc818469,65af5661db6f3bf0e8762320,2024-01-23_08h11.29.384,bars,2023.2.3,Win32,60.24096386,657b66ea316d21385b68909f,,,,,,,,,,,933.563,934.563,,,935.0763,935.3233,,153,-27,,,,,,,,,,,,,,,,bars/044.png,bars/mask009.png,,,,,,,,,,,,7,2,,,,,,,0,6,0,8,,,,,,,,,,,934.5632,935.0763,935.3234,938.3887,space,3.0444,,938.3891,78,2,939.3666,939.3668,943.7146,space,4.3089,,0,27,27,27,1,75,155,,,,,,,,
,,61768a49d07402e9dc818469,65af5661db6f3bf0e8762320,2024-01-23_08h11.29.384,bars,2023.2.3,Win32,60.24096386,657b66ea316d21385b68909f,,,,,,,,,,,943.7416,944.7261,,,945.2161,945.4564,,147,147,,,,,,,,,,,,,,,,bars/045.png,bars/mask009.png,,,,,,,,,,,,0,2,,,,,,,2,4,1,3,,,,,,,,,,,944.7262,945.2159,945.4564,946.7054,space,1.2287,,946.7056,47,43,947.7059,947.706,954.2095,space,6.46,,0,28,28,28,1,100,10,,,,,,,,
,,61768a49d07402e9dc818469,65af5661db6f3bf0e8762320,2024-01-23_08h11.29.384,bars,2023.2.3,Win32,60.24096386,657b66ea316d21385b68909f,,,,,,,,,,,954.2282,955.2229,,,955.7242,955.9709,,90,90,,,,,,,,,,,,,,,,bars/005.png,bars/mask009.png,,,,,,,,,,,,0,2,,,,,,,4,6,3,4,,,,,,,,,,,955.2231,955.7241,955.971,960.2797,space,4.2831,,960.2799,80,50,961.2692,961.2694,961.8614,space,0.5505,,0,29,29,29,1,10,140,,,,,,,,
,,61768a49d07402e9dc818469,65af5661db6f3bf0e8762320,2024-01-23_08h11.29.384,bars,2023.2.3,Win32,60.24096386,657b66ea316d21385b68909f,,,,,,,,,,,961.8629,962.8398,,,963.3389,963.5737,,21,21,,,,,,,,,,,,,,,,bars/009.png,bars/mask002.png,,,,,,,,,,,,1,1,,,,,,,2,4,1,5,,,,,,,,,,,962.8398,963.3388,963.5737,968.3643,space,4.7695,,968.3646,6,84,969.358,969.3581,969.8382,space,0.4231,,0,30,30,30,1,15,105,,,,,,,,
,,61768a49d07402e9dc818469,65af5661db6f3bf0e8762320,2024-01-23_08h11.29.384,bars,2023.2.3,Win32,60.24096386,657b66ea316d21385b68909f,,,,,,,,,,,969.8407,970.831,,,971.3219,971.5755,,71,71,,,,,,,,,,,,,,,,bars/038.png,bars/mask005.png,,,,,,,,,,,,6,2,,,,,,,4,6,4,6,,,,,,,,,,,970.8311,971.3218,971.5756,975.9649,space,4.3703,,975.9671,86,1,976.9556,976.9557,978.4049,space,1.3885,,0,31,31,31,1,165,70,,,,,,,,
,,61768a49d07402e9dc818469,65af5661db6f3bf0e8762320,2024-01-23_08h11.29.384,bars,2023.2.3,Win32,60.24096386,657b66ea316d21385b68909f,,,,,,,,,,,978.407,979.4069,,,979.9103,980.1559,,111,111,,,,,,,,,,,,,,,,bars/031.png,bars/mask001.png,,,,,,,,,,,,4,1,,,,,,,6,4,5,5,,,,,,,,,,,979.4074,979.9102,980.156,984.9279,space,4.7532,,984.928,9,76,985.927,985.927,988.3393,space,2.3629,,0,32,32,32,1,120,35,,,,,,,,
,,61768a49d07402e9dc818469,65af5661db6f3bf0e8762320,2024-01-23_08h11.29.384,bars,2023.2.3,Win32,60.24096386,657b66ea316d21385b68909f,,,,,,,,,,,988.366,989.3612,,,989.8453,990.1011,,128,128,,,,,,,,,,,,,,,,bars/012.png,bars/mask003.png,,,,,,,,,,,,0,1,,,,,,,8,6,9,8,,,,,,,,,,,989.3614,989.8452,990.1012,992.7458,space,2.6261,,992.746,38,67,993.7526,993.7527,994.2397,space,0.4423,,0,33,33,33,1,90,15,,,,,,,,
,,61768a49d07402e9dc818469,65af5661db6f3bf0e8762320,2024-01-23_08h11.29.384,bars,2023.2.3,Win32,60.24096386,657b66ea316d21385b68909f,,,,,,,,,,,994.2409,995.23,,,995.7378,995.9931,,154,154,,,,,,,,,,,,,,,,bars/036.png,bars/mask009.png,,,,,,,,,,,,4,1,,,,,,,6,8,6,7,,,,,,,,,,,995.2301,995.7376,995.9932,1001.4778,space,5.4648,,1001.4779,9,46,1002.4837,1002.4837,1004.0564,space,1.5275,,0,34,34,34,1,145,20,,,,,,,,
,,61768a49d07402e9dc818469,65af5661db6f3bf0e8762320,2024-01-23_08h11.29.384,bars,2023.2.3,Win32,60.24096386,657b66ea316d21385b68909f,,,,,,,,,,,1004.0586,1005.0577,,,1005.5498,1005.7943,,143,143,,,,,,,,,,,,,,,,bars/045.png,bars/mask003.png,,,,,,,,,,,,0,1,,,,,,,4,10,5,10,,,,,,,,,,,1005.0578,1005.5497,1005.7945,1006.8166,space,1.0026,,1006.8173,43,47,1007.8179,1007.818,1009.413,space,1.5656,,0,35,35,35,1,100,10,,,,,,,,
,,61768a49d07402e9dc818469,65af5661db6f3bf0e8762320,2024-01-23_08h11.29.384,bars,2023.2.3,Win32,60.24096386,657b66ea316d21385b68909f,,,,,,,,,,,1009.4143,1010.4051,,,1010.9036,1011.1397,,39,39,,,,,,,,,,,,,,,,bars/043.png,bars/mask004.png,,,,,,,,,,,,4,1,,,,,,,6,10,6,10,,,,,,,,,,,1010.4052,1010.9031,1011.1397,1017.7818,space,6.6226,,1017.7822,9,89,1018.7782,1018.7783,1019.4241,space,0.5993,,0,36,36,36,1,30,130,,,,,,,,
,,61768a49d07402e9dc818469,65af5661db6f3bf0e8762320,2024-01-23_08h11.29.384,bars,2023.2.3,Win32,60.24096386,657b66ea316d21385b68909f,,,,,,,,,,,1019.4275,1020.4329,,,1020.9378,1021.1906,,152,-28,,,,,,,,,,,,,,,,bars/045.png,bars/mask009.png,,,,,,,,,,,,0,2,,,,,,,8,8,8,7,,,,,,,,,,,1020.433,1020.9377,1021.1907,1027.228,space,6.0172,,1027.2281,52,38,1028.2044,1028.2046,1028.9417,space,0.684,,0,37,37,37,1,100,10,,,,,,,,
,,61768a49d07402e9dc818469,65af5661db6f3bf0e8762320,2024-01-23_08h11.29.384,bars,2023.2.3,Win32,60.24096386,657b66ea316d21385b68909f,,,,,,,,,,,1028.9437,1029.9561,,,1030.4471,1030.7064,,146,146,,,,,,,,,,,,,,,,bars/029.png,bars/mask001.png,,,,,,,,,,,,0,1,,,,,,,10,10,10,10,,,,,,,,,,,1029.9563,1030.4468,1030.7064,1036.5941,space,5.8662,,1036.5955,56,79,1037.5926,1037.5926,1039.1664,space,1.5138,,0,38,38,38,1,90,45,,,,,,,,
,,61768a49d07402e9dc818469,65af5661db6f3bf0e8762320,2024-01-23_08h11.29.384,bars,2023.2.3,Win32,60.24096386,657b66ea316d21385b68909f,,,,,,,,,,,1039.1687,1040.1654,,,1040.6694,1040.9212,,89,89,,,,,,,,,,,,,,,,bars/038.png,bars/mask000.png,,,,,,,,,,,,4,2,,,,,,,8,10,7,10,,,,,,,,,,,1040.1654,1040.6694,1040.9215,1046.5649,space,5.6253,,1046.5653,76,19,1047.5694,1047.5696,1048.1758,space,0.5533,,0,39,39,39,1,165,70,,,,,,,,
,,61768a49d07402e9dc818469,65af5661db6f3bf0e8762320,2024-01-23_08h11.29.384,bars,2023.2.3,Win32,60.24096386,657b66ea316d21385b68909f,,,,,,,,,,,1048.1774,1049.1803,,,1049.6776,1049.9337,,28,28,,,,,,,,,,,,,,,,bars/011.png,bars/mask005.png,,,,,,,,,,,,0,1,,,,,,,6,10,8,9,,,,,,,,,,,1049.1806,1049.6774,1049.9338,1053.8627,space,3.9052,,1053.8631,48,57,1054.8649,1054.865,1056.3313,space,1.4114,,0,40,40,40,1,160,85,,,,,,,,
,,61768a49d07402e9dc818469,65af5661db6f3bf0e8762320,2024-01-23_08h11.29.384,bars,2023.2.3,Win32,60.24096386,657b66ea316d21385b68909f,,,,,,,,,,,1056.333,1057.3197,,,1057.8082,1058.0492,,29,29,,,,,,,,,,,,,,,,bars/014.png,bars/mask007.png,,,,,,,,,,,,0,2,,,,,,,8,10,8,10,,,,,,,,,,,1057.3198,1057.8082,1058.0494,1062.056,space,3.9886,,1062.056,51,29,1063.0569,1063.0571,1063.8918,space,0.7741,,0,41,41,41,1,80,0,,,,,,,,
,,61768a49d07402e9dc818469,65af5661db6f3bf0e8762320,2024-01-23_08h11.29.384,bars,2023.2.3,Win32,60.24096386,657b66ea316d21385b68909f,,,,,,,,,,,1063.8932,1064.8967,,,1065.3871,1065.6257,,7,7,,,,,,,,,,,,,,,,bars/047.png,bars/mask002.png,,,,,,,,,,,,3,1,,,,,,,6,8,4,7,,,,,,,,,,,1064.8968,1065.387,1065.6257,1070.4881,space,4.8429,,1070.4882,8,63,1071.4876,1071.4878,1072.9901,space,1.4497,,0,42,42,42,1,15,70,,,,,,,,
,,61768a49d07402e9dc818469,65af5661db6f3bf0e8762320,2024-01-23_08h11.29.384,bars,2023.2.3,Win32,60.24096386,657b66ea316d21385b68909f,,,,,,,,,,,1072.992,1073.9957,,,1074.5016,1074.7392,,42,222,,,,,,,,,,,,,,,,bars/019.png,bars/mask006.png,,,,,,,,,,,,9,1,,,,,,,8,6,10,7,,,,,,,,,,,1073.9958,1074.5015,1074.7393,1081.5943,space,6.8368,,1081.5953,3,63,1082.5893,1082.5894,1083.8936,space,1.2494,,0,43,43,43,1,45,105,,,,,,,,
,,61768a49d07402e9dc818469,65af5661db6f3bf0e8762320,2024-01-23_08h11.29.384,bars,2023.2.3,Win32,60.24096386,657b66ea316d21385b68909f,,,,,,,,,,,1083.8949,1084.8813,,,1085.38,1085.6367,,23,23,,,,,,,,,,,,,,,,bars/005.png,bars/mask001.png,,,,,,,,,,,,6,1,,,,,,,10,4,10,3,,,,,,,,,,,1084.8814,1085.3797,1085.6368,1091.225,space,5.5673,,1091.2251,13,63,1092.2186,1092.2188,1092.8678,space,0.6066,,0,44,44,44,1,10,140,,,,,,,,
,,61768a49d07402e9dc818469,65af5661db6f3bf0e8762320,2024-01-23_08h11.29.384,bars,2023.2.3,Win32,60.24096386,657b66ea316d21385b68909f,,,,,,,,,,,1092.8704,1093.8709,,,1094.3696,1094.6199,,27,27,,,,,,,,,,,,,,,,bars/003.png,bars/mask003.png,,,,,,,,,,,,9,1,,,,,,,10,2,10,1,,,,,,,,,,,1093.871,1094.3695,1094.6199,1100.347,space,5.7084,,1100.3472,2,67,1101.3397,1101.3398,1102.1616,space,0.7719,,0,45,45,45,1,25,140,,,,,,,,
,,61768a49d07402e9dc818469,65af5661db6f3bf0e8762320,2024-01-23_08h11.29.384,bars,2023.2.3,Win32,60.24096386,657b66ea316d21385b68909f,,,,,,,,,,,1102.1627,1103.1581,,,1103.6532,1103.8809,,172,172,,,,,,,,,,,,,,,,bars/021.png,bars/mask005.png,,,,,,,,,,,,4,1,,,,,,,8,0,10,0,,,,,,,,,,,1103.1582,1103.6531,1103.8811,1108.5007,space,4.6005,,1108.5008,17,78,1109.4916,1109.4917,1110.2652,space,0.7159,,0,46,46,46,1,155,70,,,,,,,,
,,61768a49d07402e9dc818469,65af5661db6f3bf0e8762320,2024-01-23_08h11.29.384,bars,2023.2.3,Win32,60.24096386,657b66ea316d21385b68909f,,,,,,,,,,,1110.2694,1111.2624,,,1111.7702,1112.0312,,137,137,,,,,,,,,,,,,,,,bars/021.png,bars/mask005.png,,,,,,,,,,,,4,1,,,,,,,10,0,10,0,,,,,,,,,,,1111.2626,1111.7701,1112.0313,1139.4154,space,27.3622,,1139.416,18,67,1140.4113,1140.4115,1142.4024,space,1.9536,,0,47,47,47,1,155,70,,,,,,,,
,,61768a49d07402e9dc818469,65af5661db6f3bf0e8762320,2024-01-23_08h11.29.384,bars,2023.2.3,Win32,60.24096386,657b66ea316d21385b68909f,,,,,,,,,,,1142.4054,1143.3866,,,1143.8782,1144.1355,,132,132,,,,,,,,,,,,,,,,bars/018.png,bars/mask003.png,,,,,,,,,,,,4,1,,,,,,,10,0,10,0,,,,,,,,,,,1143.3866,1143.8782,1144.1359,1147.3805,space,3.2266,,1147.3805,18,42,1148.3782,1148.3783,1149.0342,space,0.6073,,0,48,48,48,1,150,90,,,,,,,,
,,61768a49d07402e9dc818469,65af5661db6f3bf0e8762320,2024-01-23_08h11.29.384,bars,2023.2.3,Win32,60.24096386,657b66ea316d21385b68909f,,,,,,,,,,,1149.036,1150.0285,,,1150.5398,1150.7981,,170,170,,,,,,,,,,,,,,,,bars/042.png,bars/mask004.png,,,,,,,,,,,,2,1,,,,,,,10,0,10,0,,,,,,,,,,,1150.0286,1150.5397,1150.7985,1175.0074,space,24.1909,,1175.0078,25,85,1175.9986,1175.9988,1177.7809,space,1.7291,,0,49,49,49,1,145,75,,,,,,,,
,,61768a49d07402e9dc818469,65af5661db6f3bf0e8762320,2024-01-23_08h11.29.384,bars,2023.2.3,Win32,60.24096386,657b66ea316d21385b68909f,,,,,,,,,,,,,,,,,,,,,,,,,,,,,,,,,,,,,,,,,,,,,,,,,,,,,,,,,,,,,,,,,,,,,,,,,,,,,,,,,,,,,,,,,,,,,1177.8103,1237.7902,0,0,0,2,1,sequence_tables/blk018.csv
,,61768a49d07402e9dc818469,65af5661db6f3bf0e8762320,2024-01-23_08h11.29.384,bars,2023.2.3,Win32,60.24096386,657b66ea316d21385b68909f,,,,,,,,,,,1319.111,1320.0863,,,1320.5885,1320.8287,,137,137,,,,,,,,,,,,,,,,bars/025.png,bars/mask008.png,,,,,,,,,,,,0,1,,,,,,,5,7,6,8,,,,,,1237.8081,1319.0803,space,81.2536,,1320.0864,1320.5884,1320.8291,1335.9619,space,15.1151,,1335.9624,32,83,1336.9635,1336.9636,1336.9839,,,,0,0,0,0,1,105,40,,,,,,,,
,,61768a49d07402e9dc818469,65af5661db6f3bf0e8762320,2024-01-23_08h11.29.384,bars,2023.2.3,Win32,60.24096386,657b66ea316d21385b68909f,,,,,,,,,,,1336.9845,1337.966,,,1338.4609,1338.7076,,152,-28,,,,,,,,,,,,,,,,bars/007.png,bars/mask000.png,,,,,,,,,,,,1,1,,,,,,,7,9,5,8,,,,,,,,,,,1337.9661,1338.4609,1338.7077,1348.0553,space,9.3282,,1348.0554,23,83,1349.0566,1349.0568,1349.0787,,,,0,1,1,1,1,175,55,,,,,,,,
,,61768a49d07402e9dc818469,65af5661db6f3bf0e8762320,2024-01-23_08h11.29.384,bars,2023.2.3,Win32,60.24096386,657b66ea316d21385b68909f,,,,,,,,,,,1349.0793,1350.0698,,,1350.5711,1350.8104,,129,129,,,,,,,,,,,,,,,,bars/010.png,bars/mask001.png,,,,,,,,,,,,0,1,,,,,,,5,10,4,10,,,,,,,,,,,1350.07,1350.571,1350.8106,1355.6136,space,4.7823,,1355.6139,36,74,1356.6181,1356.6182,1356.65,,,,0,2,2,2,1,165,55,,,,,,,,
,,61768a49d07402e9dc818469,65af5661db6f3bf0e8762320,2024-01-23_08h11.29.384,bars,2023.2.3,Win32,60.24096386,657b66ea316d21385b68909f,,,,,,,,,,,1356.6508,1357.6589,,,1358.166,1358.4152,,65,65,,,,,,,,,,,,,,,,bars/019.png,bars/mask006.png,,,,,,,,,,,,1,1,,,,,,,3,10,2,9,,,,,,,,,,,1357.659,1358.166,1358.4153,1368.81,space,10.3767,,1368.8105,20,40,1369.8105,1369.8105,1369.8334,,,,0,3,3,3,1,45,105,,,,,,,,
,,61768a49d07402e9dc818469,65af5661db6f3bf0e8762320,2024-01-23_08h11.29.384,bars,2023.2.3,Win32,60.24096386,657b66ea316d21385b68909f,,,,,,,,,,,1369.8339,1370.8128,,,1371.3028,1371.549,,42,42,,,,,,,,,,,,,,,,bars/039.png,bars/mask007.png,,,,,,,,,,,,0,1,,,,,,,1,10,0,10,,,,,,,,,,,1370.8129,1371.3028,1371.549,1386.058,space,14.4881,,1386.0585,47,63,1387.0757,1387.0757,1387.1084,,,,0,4,4,4,1,175,105,,,,,,,,
,,61768a49d07402e9dc818469,65af5661db6f3bf0e8762320,2024-01-23_08h11.29.384,bars,2023.2.3,Win32,60.24096386,657b66ea316d21385b68909f,,,,,,,,,,,1387.1097,1388.1108,,,1388.6131,1388.853,,144,144,,,,,,,,,,,,,,,,bars/049.png,bars/mask004.png,,,,,,,,,,,,0,1,,,,,,,0,10,1,10,,,,,,,,,,,1388.1109,1388.6131,1388.8533,1567.5801,space,178.7077,,1567.5804,16,29,1568.5859,1568.586,1568.6163,,,,0,5,5,5,1,160,115,,,,,,,,
,,61768a49d07402e9dc818469,65af5661db6f3bf0e8762320,2024-01-23_08h11.29.384,bars,2023.2.3,Win32,60.24096386,657b66ea316d21385b68909f,,,,,,,,,,,1568.6172,1569.6196,,,1570.1152,1570.3457,,52,52,,,,,,,,,,,,,,,,bars/032.png,bars/mask009.png,,,,,,,,,,,,0,2,,,,,,,2,8,1,10,,,,,,,,,,,1569.6197,1570.1151,1570.3458,1605.13,space,34.7558,,1605.1302,73,32,1606.1334,1606.1336,1606.1666,,,,0,6,6,6,1,125,20,,,,,,,,
,,61768a49d07402e9dc818469,65af5661db6f3bf0e8762320,2024-01-23_08h11.29.384,bars,2023.2.3,Win32,60.24096386,657b66ea316d21385b68909f,,,,,,,,,,,1606.1673,1607.1554,,,1607.6487,1607.8878,,138,138,,,,,,,,,,,,,,,,bars/036.png,bars/mask004.png,,,,,,,,,,,,0,1,,,,,,,0,6,0,5,,,,,,,,,,,1607.1555,1607.6485,1607.8879,1615.3434,space,7.4361,,1615.344,7,62,1616.3394,1616.3395,1616.3724,,,,0,7,7,7,1,145,20,,,,,,,,
,,61768a49d07402e9dc818469,65af5661db6f3bf0e8762320,2024-01-23_08h11.29.384,bars,2023.2.3,Win32,60.24096386,657b66ea316d21385b68909f,,,,,,,,,,,1616.3731,1617.3622,,,1617.843,1618.1,,137,137,,,,,,,,,,,,,,,,bars/016.png,bars/mask009.png,,,,,,,,,,,,0,2,,,,,,,0,8,1,7,,,,,,,,,,,1617.3624,1617.8429,1618.1,1635.7963,space,17.6745,,1635.7964,83,28,1636.7916,1636.7918,1636.8238,,,,0,8,8,8,1,40,165,,,,,,,,
,,61768a49d07402e9dc818469,65af5661db6f3bf0e8762320,2024-01-23_08h11.29.384,bars,2023.2.3,Win32,60.24096386,657b66ea316d21385b68909f,,,,,,,,,,,1636.8251,1637.8292,,,1638.3163,1638.562,,155,-25,,,,,,,,,,,,,,,,bars/045.png,bars/mask003.png,,,,,,,,,,,,0,2,,,,,,,0,6,0,5,,,,,,,,,,,1637.8294,1638.3162,1638.5621,1650.0183,space,11.439,,1650.0186,55,35,1651.0212,1651.0214,1651.0543,,,,0,9,9,9,1,100,10,,,,,,,,
,,61768a49d07402e9dc818469,65af5661db6f3bf0e8762320,2024-01-23_08h11.29.384,bars,2023.2.3,Win32,60.24096386,657b66ea316d21385b68909f,,,,,,,,,,,1651.0554,1652.0575,,,1652.5502,1652.8021,,143,143,,,,,,,,,,,,,,,,bars/003.png,bars/mask009.png,,,,,,,,,,,,7,2,,,,,,,0,8,1,8,,,,,,,,,,,1652.0575,1652.55,1652.8022,1657.3955,space,4.5737,,1657.3956,62,3,1658.4014,1658.4015,1658.4216,,,,0,10,10,10,1,25,140,,,,,,,,
,,61768a49d07402e9dc818469,65af5661db6f3bf0e8762320,2024-01-23_08h11.29.384,bars,2023.2.3,Win32,60.24096386,657b66ea316d21385b68909f,,,,,,,,,,,1658.4223,1659.4171,,,1659.9202,1660.1811,,142,142,,,,,,,,,,,,,,,,bars/013.png,bars/mask009.png,,,,,,,,,,,,0,2,,,,,,,0,10,0,10,,,,,,,,,,,1659.4172,1659.9201,1660.1811,1665.2222,space,5.0217,,1665.2223,67,48,1666.2232,1666.2232,1666.2438,,,,0,11,11,11,1,75,10,,,,,,,,
,,61768a49d07402e9dc818469,65af5661db6f3bf0e8762320,2024-01-23_08h11.29.384,bars,2023.2.3,Win32,60.24096386,657b66ea316d21385b68909f,,,,,,,,,,,1666.2447,1667.2463,,,1667.7398,1667.9906,,36,36,,,,,,,,,,,,,,,,bars/023.png,bars/mask005.png,,,,,,,,,,,,0,1,,,,,,,0,8,0,8,,,,,,,,,,,1667.2463,1667.7397,1667.9906,1680.3084,space,12.2974,,1680.3086,16,79,1681.3091,1681.3091,1681.3317,,,,0,12,12,12,1,20,115,,,,,,,,
,,61768a49d07402e9dc818469,65af5661db6f3bf0e8762320,2024-01-23_08h11.29.384,bars,2023.2.3,Win32,60.24096386,657b66ea316d21385b68909f,,,,,,,,,,,1681.3325,1682.3221,,,1682.8055,1683.0463,,27,207,,,,,,,,,,,,,,,,bars/023.png,bars/mask009.png,,,,,,,,,,,,2,1,,,,,,,2,6,2,5,,,,,,,,,,,1682.3222,1682.8048,1683.0465,1688.0952,space,5.0296,,1688.0954,7,88,1689.0913,1689.0926,1689.1098,,,,0,13,13,13,1,20,115,,,,,,,,
,,61768a49d07402e9dc818469,65af5661db6f3bf0e8762320,2024-01-23_08h11.29.384,bars,2023.2.3,Win32,60.24096386,657b66ea316d21385b68909f,,,,,,,,,,,1689.1104,1690.0997,,,1690.6116,1690.8658,,42,222,,,,,,,,,,,,,,,,bars/036.png,bars/mask009.png,,,,,,,,,,,,2,2,,,,,,,0,8,1,8,,,,,,,,,,,1690.0997,1690.6116,1690.8659,1718.6645,space,27.7788,,1718.6647,77,22,1719.6579,1719.658,1719.6827,,,,0,14,14,14,1,145,20,,,,,,,,
,,61768a49d07402e9dc818469,65af5661db6f3bf0e8762320,2024-01-23_08h11.29.384,bars,2023.2.3,Win32,60.24096386,657b66ea316d21385b68909f,,,,,,,,,,,1719.6832,1720.6723,,,1721.1748,1721.4282,,29,29,,,,,,,,,,,,,,,,bars/013.png,bars/mask002.png,,,,,,,,,,,,4,2,,,,,,,2,10,0,10,,,,,,,,,,,1720.6723,1721.1748,1721.4284,1754.1779,space,32.7175,,1754.178,46,19,1755.1756,1755.1757,1755.1967,,,,0,15,15,15,1,75,10,,,,,,,,
,,61768a49d07402e9dc818469,65af5661db6f3bf0e8762320,2024-01-23_08h11.29.384,bars,2023.2.3,Win32,60.24096386,657b66ea316d21385b68909f,,,,,,,,,,,1755.1972,1756.1771,,,1756.6778,1756.9112,,150,-30,,,,,,,,,,,,,,,,bars/012.png,bars/mask004.png,,,,,,,,,,,,0,2,,,,,,,4,10,2,10,,,,,,,,,,,1756.1772,1756.6777,1756.9112,1792.3306,space,35.3859,,1792.3308,60,45,1793.3303,1793.3303,1793.3526,,,,0,16,16,16,1,90,15,,,,,,,,
,,61768a49d07402e9dc818469,65af5661db6f3bf0e8762320,2024-01-23_08h11.29.384,bars,2023.2.3,Win32,60.24096386,657b66ea316d21385b68909f,,,,,,,,,,,1793.3542,1794.3317,,,1794.8356,1795.0649,,45,45,,,,,,,,,,,,,,,,bars/037.png,bars/mask001.png,,,,,,,,,,,,0,2,,,,,,,2,8,2,9,,,,,,,,,,,1794.332,1794.8355,1795.065,1801.8395,space,6.7423,,1801.8398,75,60,1802.8399,1802.8402,1802.8673,,,,0,17,17,17,1,150,105,,,,,,,,
,,61768a49d07402e9dc818469,65af5661db6f3bf0e8762320,2024-01-23_08h11.29.384,bars,2023.2.3,Win32,60.24096386,657b66ea316d21385b68909f,,,,,,,,,,,1802.8682,1803.8747,,,1804.3744,1804.6082,,40,40,,,,,,,,,,,,,,,,bars/037.png,bars/mask004.png,,,,,,,,,,,,0,2,,,,,,,0,6,0,7,,,,,,,,,,,1803.8748,1804.3742,1804.6083,2090.3938,space,285.7537,,2090.3939,70,65,2091.3946,2091.3947,2091.4216,,,,0,18,18,18,1,150,105,,,,,,,,
,,61768a49d07402e9dc818469,65af5661db6f3bf0e8762320,2024-01-23_08h11.29.384,bars,2023.2.3,Win32,60.24096386,657b66ea316d21385b68909f,,,,,,,,,,,2091.4224,2092.4294,,,2092.9301,2093.1632,,36,216,,,,,,,,,,,,,,,,bars/046.png,bars/mask009.png,,,,,,,,,,,,0,2,,,,,,,0,4,2,3,,,,,,,,,,,2092.4295,2092.9299,2093.1633,2095.198,space,2.0091,,2095.1981,61,49,2096.1989,2096.199,2096.2262,,,,0,19,19,19,1,155,85,,,,,,,,
,,61768a49d07402e9dc818469,65af5661db6f3bf0e8762320,2024-01-23_08h11.29.384,bars,2023.2.3,Win32,60.24096386,657b66ea316d21385b68909f,,,,,,,,,,,2096.2267,2097.2346,,,2097.7343,2097.9686,,15,15,,,,,,,,,,,,,,,,bars/019.png,bars/mask005.png,,,,,,,,,,,,0,1,,,,,,,2,2,1,1,,,,,,,,,,,2097.2346,2097.7341,2097.9687,2109.2454,space,11.2515,,2109.2455,30,90,2110.2461,2110.2461,2110.2702,,,,0,20,20,20,1,45,105,,,,,,,,
,,61768a49d07402e9dc818469,65af5661db6f3bf0e8762320,2024-01-23_08h11.29.384,bars,2023.2.3,Win32,60.24096386,657b66ea316d21385b68909f,,,,,,,,,,,2110.2711,2111.2465,,,2111.7479,2111.9816,,122,122,,,,,,,,,,,,,,,,bars/027.png,bars/mask006.png,,,,,,,,,,,,2,1,,,,,,,4,0,4,0,,,,,,,,,,,2111.2466,2111.7477,2111.9816,2121.3908,space,9.3796,,2121.3912,12,72,2122.391,2122.3913,2122.419,,,,0,21,21,21,1,110,50,,,,,,,,
,,61768a49d07402e9dc818469,65af5661db6f3bf0e8762320,2024-01-23_08h11.29.384,bars,2023.2.3,Win32,60.24096386,657b66ea316d21385b68909f,,,,,,,,,,,2122.4198,2123.4263,,,2123.9269,2124.1591,,143,-37,,,,,,,,,,,,,,,,bars/035.png,bars/mask009.png,,,,,,,,,,,,0,1,,,,,,,2,0,3,0,,,,,,,,,,,2123.4265,2123.9268,2124.1592,2129.0323,space,4.8486,,2129.0325,32,83,2130.0326,2130.0327,2130.0583,,,,0,22,22,22,1,175,60,,,,,,,,
,,61768a49d07402e9dc818469,65af5661db6f3bf0e8762320,2024-01-23_08h11.29.384,bars,2023.2.3,Win32,60.24096386,657b66ea316d21385b68909f,,,,,,,,,,,2130.059,2131.067,,,2131.5674,2131.8005,,54,54,,,,,,,,,,,,,,,,bars/013.png,bars/mask008.png,,,,,,,,,,,,0,1,,,,,,,0,0,1,0,,,,,,,,,,,2131.067,2131.5673,2131.8006,2137.7741,space,5.9441,,2137.7745,21,44,2138.7749,2138.775,2138.8024,,,,0,23,23,23,1,75,10,,,,,,,,
,,61768a49d07402e9dc818469,65af5661db6f3bf0e8762320,2024-01-23_08h11.29.384,bars,2023.2.3,Win32,60.24096386,657b66ea316d21385b68909f,,,,,,,,,,,2138.8029,2139.811,,,2140.3098,2140.5428,,125,125,,,,,,,,,,,,,,,,bars/026.png,bars/mask009.png,,,,,,,,,,,,0,2,,,,,,,2,2,2,1,,,,,,,,,,,2139.8111,2140.3097,2140.5429,2207.9772,space,67.4025,,2207.9773,90,40,2208.9776,2208.9777,2209.0075,,,,0,24,24,24,1,35,85,,,,,,,,
,,61768a49d07402e9dc818469,65af5661db6f3bf0e8762320,2024-01-23_08h11.29.384,bars,2023.2.3,Win32,60.24096386,657b66ea316d21385b68909f,,,,,,,,,,,2209.0083,2210.0126,,,2210.5127,2210.7463,,39,39,,,,,,,,,,,,,,,,bars/006.png,bars/mask000.png,,,,,,,,,,,,0,1,,,,,,,0,0,0,0,,,,,,,,,,,2210.0127,2210.5126,2210.7464,2215.6517,space,4.8865,,2215.6518,4,61,2216.6522,2216.6525,2216.6798,,,,0,25,25,25,1,35,100,,,,,,,,
,,61768a49d07402e9dc818469,65af5661db6f3bf0e8762320,2024-01-23_08h11.29.384,bars,2023.2.3,Win32,60.24096386,657b66ea316d21385b68909f,,,,,,,,,,,2216.6806,2217.6861,,,2218.187,2218.4205,,124,124,,,,,,,,,,,,,,,,bars/018.png,bars/mask002.png,,,,,,,,,,,,0,1,,,,,,,0,0,0,0,,,,,,,,,,,2217.6862,2218.1869,2218.4207,2254.5902,space,36.1472,,2254.5906,26,34,2255.5908,2255.5908,2255.6181,,,,0,26,26,26,1,150,90,,,,,,,,
,,61768a49d07402e9dc818469,65af5661db6f3bf0e8762320,2024-01-23_08h11.29.384,bars,2023.2.3,Win32,60.24096386,657b66ea316d21385b68909f,,,,,,,,,,,2255.6187,2256.6251,,,2257.1256,2257.3589,,28,28,,,,,,,,,,,,,,,,bars/009.png,bars/mask006.png,,,,,,,,,,,,1,1,,,,,,,2,0,2,1,,,,,,,,,,,2256.6252,2257.1256,2257.3591,2263.3988,space,6.0128,,2263.3989,13,77,2264.3987,2264.3988,2264.4192,,,,0,27,27,27,1,15,105,,,,,,,,
,,61768a49d07402e9dc818469,65af5661db6f3bf0e8762320,2024-01-23_08h11.29.384,bars,2023.2.3,Win32,60.24096386,657b66ea316d21385b68909f,,,,,,,,,,,2264.4198,2265.4004,,,2265.9022,2266.1378,,50,50,,,,,,,,,,,,,,,,bars/016.png,bars/mask006.png,,,,,,,,,,,,1,1,,,,,,,0,2,2,2,,,,,,,,,,,2265.4004,2265.9022,2266.1378,2278.7147,space,12.5469,,2278.715,10,65,2279.7151,2279.7151,2279.7421,,,,0,28,28,28,1,40,165,,,,,,,,
,,61768a49d07402e9dc818469,65af5661db6f3bf0e8762320,2024-01-23_08h11.29.384,bars,2023.2.3,Win32,60.24096386,657b66ea316d21385b68909f,,,,,,,,,,,2279.7427,2280.7491,,,2281.2498,2281.483,,45,45,,,,,,,,,,,,,,,,bars/039.png,bars/mask007.png,,,,,,,,,,,,0,1,,,,,,,2,0,1,0,,,,,,,,,,,2280.7492,2281.2497,2281.4832,2298,space,16.4903,,2298.0001,50,60,2299.0001,2299.0002,2299.0214,,,,0,29,29,29,1,175,105,,,,,,,,
,,61768a49d07402e9dc818469,65af5661db6f3bf0e8762320,2024-01-23_08h11.29.384,bars,2023.2.3,Win32,60.24096386,657b66ea316d21385b68909f,,,,,,,,,,,2299.0219,2300.0021,,,2300.5089,2300.7363,,20,200,,,,,,,,,,,,,,,,bars/024.png,bars/mask006.png,,,,,,,,,,,,0,2,,,,,,,0,2,1,3,,,,,,,,,,,2300.0024,2300.5088,2300.7366,2313.9493,space,13.1797,,2313.9494,80,30,2314.9498,2314.9499,2314.9821,,,,0,30,30,30,1,120,170,,,,,,,,
,,61768a49d07402e9dc818469,65af5661db6f3bf0e8762320,2024-01-23_08h11.29.384,bars,2023.2.3,Win32,60.24096386,657b66ea316d21385b68909f,,,,,,,,,,,2314.9835,2315.9841,,,2316.4844,2316.7226,,32,32,,,,,,,,,,,,,,,,bars/035.png,bars/mask000.png,,,,,,,,,,,,0,2,,,,,,,0,0,0,1,,,,,,,,,,,2315.9842,2316.4842,2316.7227,2318.921,space,2.1778,,2318.9213,37,28,2319.9214,2319.9215,2319.9469,,,,0,31,31,31,1,175,60,,,,,,,,
,,61768a49d07402e9dc818469,65af5661db6f3bf0e8762320,2024-01-23_08h11.29.384,bars,2023.2.3,Win32,60.24096386,657b66ea316d21385b68909f,,,,,,,,,,,2319.9475,2320.9556,,,2321.4568,2321.6895,,144,144,,,,,,,,,,,,,,,,bars/012.png,bars/mask005.png,,,,,,,,,,,,0,2,,,,,,,2,2,2,2,,,,,,,,,,,2320.9559,2321.4565,2321.6897,2526.8608,space,205.1506,,2526.861,54,51,2527.8606,2527.8607,2527.8856,,,,0,32,32,32,1,90,15,,,,,,,,
,,61768a49d07402e9dc818469,65af5661db6f3bf0e8762320,2024-01-23_08h11.29.384,bars,2023.2.3,Win32,60.24096386,657b66ea316d21385b68909f,,,,,,,,,,,2527.8863,2528.8783,,,2529.3808,2529.6292,,133,133,,,,,,,,,,,,,,,,bars/004.png,bars/mask003.png,,,,,,,,,,,,4,2,,,,,,,4,4,4,6,,,,,,,,,,,2528.8784,2529.3808,2529.6292,2533.3669,space,3.7282,,2533.367,72,8,2534.3567,2534.3568,2534.3778,,,,0,33,33,33,1,25,125,,,,,,,,
,,61768a49d07402e9dc818469,65af5661db6f3bf0e8762320,2024-01-23_08h11.29.384,bars,2023.2.3,Win32,60.24096386,657b66ea316d21385b68909f,,,,,,,,,,,2534.3783,2535.3682,,,2535.8689,2536.1188,,134,134,,,,,,,,,,,,,,,,bars/025.png,bars/mask006.png,,,,,,,,,,,,0,1,,,,,,,6,2,7,2,,,,,,,,,,,2535.3683,2535.8688,2536.1189,2545.0279,space,8.8931,,2545.028,29,86,2546.0287,2546.0287,2546.0516,,,,0,34,34,34,1,105,40,,,,,,,,
,,61768a49d07402e9dc818469,65af5661db6f3bf0e8762320,2024-01-23_08h11.29.384,bars,2023.2.3,Win32,60.24096386,657b66ea316d21385b68909f,,,,,,,,,,,2546.0522,2547.0528,,,2547.5558,2547.804,,131,131,,,,,,,,,,,,,,,,bars/035.png,bars/mask002.png,,,,,,,,,,,,0,1,,,,,,,4,4,4,4,,,,,,,,,,,2547.0529,2547.5557,2547.804,2564.8978,space,17.0711,,2564.8979,44,71,2565.9003,2565.9004,2565.9027,,,,0,35,35,35,1,175,60,,,,,,,,
,,61768a49d07402e9dc818469,65af5661db6f3bf0e8762320,2024-01-23_08h11.29.384,bars,2023.2.3,Win32,60.24096386,657b66ea316d21385b68909f,,,,,,,,,,,2565.9035,2566.8997,,,2567.4003,2567.6503,,46,46,,,,,,,,,,,,,,,,bars/012.png,bars/mask009.png,,,,,,,,,,,,0,2,,,,,,,2,6,3,5,,,,,,,,,,,2566.8998,2567.4001,2567.6503,2587.721,space,20.0552,,2587.7211,44,31,2588.7218,2588.7219,2588.7395,,,,0,36,36,36,1,90,15,,,,,,,,
,,61768a49d07402e9dc818469,65af5661db6f3bf0e8762320,2024-01-23_08h11.29.384,bars,2023.2.3,Win32,60.24096386,657b66ea316d21385b68909f,,,,,,,,,,,2588.7399,2589.7288,,,2590.2289,2590.4791,,159,-21,,,,,,,,,,,,,,,,bars/026.png,bars/mask000.png,,,,,,,,,,,,0,1,,,,,,,4,8,4,7,,,,,,,,,,,2589.7289,2590.2289,2590.4792,2597.7856,space,7.2899,,2597.7856,56,74,2598.7884,2598.7885,2598.809,,,,0,37,37,37,1,35,85,,,,,,,,
,,61768a49d07402e9dc818469,65af5661db6f3bf0e8762320,2024-01-23_08h11.29.384,bars,2023.2.3,Win32,60.24096386,657b66ea316d21385b68909f,,,,,,,,,,,2598.8094,2599.7992,,,2600.2997,2600.5499,,53,53,,,,,,,,,,,,,,,,bars/033.png,bars/mask006.png,,,,,,,,,,,,0,1,,,,,,,6,10,7,10,,,,,,,,,,,2599.7992,2600.2996,2600.55,2615.8995,space,15.3397,,2615.8996,28,78,2616.8995,2616.8996,2616.9161,,,,0,38,38,38,1,25,155,,,,,,,,
,,61768a49d07402e9dc818469,65af5661db6f3bf0e8762320,2024-01-23_08h11.29.384,bars,2023.2.3,Win32,60.24096386,657b66ea316d21385b68909f,,,,,,,,,,,2616.9169,2617.9171,,,2618.4073,2618.6568,,104,104,,,,,,,,,,,,,,,,bars/015.png,bars/mask005.png,,,,,,,,,,,,6,1,,,,,,,8,8,8,8,,,,,,,,,,,2617.9173,2618.4073,2618.6569,2633.9742,space,15.2998,,2633.9742,6,56,2634.9737,2634.9738,2634.9891,,,,0,39,39,39,1,110,160,,,,,,,,
,,61768a49d07402e9dc818469,65af5661db6f3bf0e8762320,2024-01-23_08h11.29.384,bars,2023.2.3,Win32,60.24096386,657b66ea316d21385b68909f,,,,,,,,,,,2634.9895,2635.987,,,2636.4755,2636.7247,,136,136,,,,,,,,,,,,,,,,bars/023.png,bars/mask006.png,,,,,,,,,,,,2,2,,,,,,,10,6,10,5,,,,,,,,,,,2635.9871,2636.4753,2636.7247,2645.4695,space,8.7269,,2645.4699,64,21,2646.4682,2646.4682,2646.4853,,,,0,40,40,40,1,20,115,,,,,,,,
,,61768a49d07402e9dc818469,65af5661db6f3bf0e8762320,2024-01-23_08h11.29.384,bars,2023.2.3,Win32,60.24096386,657b66ea316d21385b68909f,,,,,,,,,,,2646.486,2647.4864,,,2647.9814,2648.2202,,132,132,,,,,,,,,,,,,,,,bars/005.png,bars/mask003.png,,,,,,,,,,,,5,2,,,,,,,8,8,7,7,,,,,,,,,,,2647.4865,2647.9813,2648.2202,2672.5299,space,24.2923,,2672.53,58,8,2673.5286,2673.5286,2673.5441,,,,0,41,41,41,1,10,140,,,,,,,,
,,61768a49d07402e9dc818469,65af5661db6f3bf0e8762320,2024-01-23_08h11.29.384,bars,2023.2.3,Win32,60.24096386,657b66ea316d21385b68909f,,,,,,,,,,,2673.5445,2674.547,,,2675.0471,2675.2962,,131,131,,,,,,,,,,,,,,,,bars/016.png,bars/mask002.png,,,,,,,,,,,,0,2,,,,,,,10,10,10,10,,,,,,,,,,,2674.547,2675.0469,2675.2963,2684.1904,space,8.8761,,2684.1905,89,34,2685.186,2685.186,2685.2013,,,,0,42,42,42,1,40,165,,,,,,,,
,,61768a49d07402e9dc818469,65af5661db6f3bf0e8762320,2024-01-23_08h11.29.384,bars,2023.2.3,Win32,60.24096386,657b66ea316d21385b68909f,,,,,,,,,,,2685.2019,2686.2077,,,2686.7025,2686.9526,,156,-24,,,,,,,,,,,,,,,,bars/008.png,bars/mask005.png,,,,,,,,,,,,2,2,,,,,,,10,10,9,10,,,,,,,,,,,2686.2077,2686.7023,2686.9527,2697.0296,space,10.0615,,2697.0298,46,24,2698.0304,2698.0304,2698.0451,,,,0,43,43,43,1,110,0,,,,,,,,
,,61768a49d07402e9dc818469,65af5661db6f3bf0e8762320,2024-01-23_08h11.29.384,bars,2023.2.3,Win32,60.24096386,657b66ea316d21385b68909f,,,,,,,,,,,2698.0463,2699.0483,,,2699.5485,2699.7989,,54,54,,,,,,,,,,,,,,,,bars/035.png,bars/mask000.png,,,,,,,,,,,,8,2,,,,,,,10,10,10,10,,,,,,,,,,,2699.0484,2699.5484,2699.799,2776.2664,space,76.4571,,2776.2666,59,6,2777.2652,2777.2652,2777.2826,,,,0,44,44,44,1,175,60,,,,,,,,
,,61768a49d07402e9dc818469,65af5661db6f3bf0e8762320,2024-01-23_08h11.29.384,bars,2023.2.3,Win32,60.24096386,657b66ea316d21385b68909f,,,,,,,,,,,2777.2831,2778.2832,,,2778.7776,2779.0275,,155,-25,,,,,,,,,,,,,,,,bars/048.png,bars/mask006.png,,,,,,,,,,,,2,2,,,,,,,10,8,10,6,,,,,,,,,,,2778.2832,2778.7774,2779.0276,2792.5748,space,13.5323,,2792.5748,75,20,2793.5754,2793.5755,2793.5903,,,,0,45,45,45,1,50,175,,,,,,,,
,,61768a49d07402e9dc818469,65af5661db6f3bf0e8762320,2024-01-23_08h11.29.384,bars,2023.2.3,Win32,60.24096386,657b66ea316d21385b68909f,,,,,,,,,,,2793.5914,2794.5936,,,2795.0936,2795.3438,,124,124,,,,,,,,,,,,,,,,bars/000.png,bars/mask001.png,,,,,,,,,,,,2,2,,,,,,,8,6,6,6,,,,,,,,,,,2794.5937,2795.0936,2795.3439,2807.5231,space,12.1644,,2807.5232,84,21,2808.5237,2808.5239,2808.538,,,,0,46,46,46,1,40,145,,,,,,,,
,,61768a49d07402e9dc818469,65af5661db6f3bf0e8762320,2024-01-23_08h11.29.384,bars,2023.2.3,Win32,60.24096386,657b66ea316d21385b68909f,,,,,,,,,,,2808.5383,2809.5413,,,2810.042,2810.2919,,144,144,,,,,,,,,,,,,,,,bars/005.png,bars/mask002.png,,,,,,,,,,,,3,2,,,,,,,10,4,10,4,,,,,,,,,,,2809.5414,2810.042,2810.292,2812.9785,space,2.6715,,2812.9785,46,4,2813.982,2813.982,2813.9955,,,,0,47,47,47,1,10,140,,,,,,,,
,,61768a49d07402e9dc818469,65af5661db6f3bf0e8762320,2024-01-23_08h11.29.384,bars,2023.2.3,Win32,60.24096386,657b66ea316d21385b68909f,,,,,,,,,,,2813.996,2814.9971,,,2815.4972,2815.7474,,54,54,,,,,,,,,,,,,,,,bars/003.png,bars/mask006.png,,,,,,,,,,,,0,1,,,,,,,8,2,7,2,,,,,,,,,,,2814.9972,2815.4971,2815.7475,2821.8037,space,6.0407,,2821.8039,29,86,2822.8045,2822.8046,2822.8224,,,,0,48,48,48,1,25,140,,,,,,,,
,,61768a49d07402e9dc818469,65af5661db6f3bf0e8762320,2024-01-23_08h11.29.384,bars,2023.2.3,Win32,60.24096386,657b66ea316d21385b68909f,,,,,,,,,,,2822.8231,2823.8116,,,2824.3122,2824.5623,,131,131,,,,,,,,,,,,,,,,bars/024.png,bars/mask002.png,,,,,,,,,,,,6,1,,,,,,,10,0,10,0,,,,,,,,,,,2823.8118,2824.3121,2824.5624,2828.1514,space,3.5722,,2828.1514,11,39,2829.1503,2829.1504,2829.1647,,,,0,49,49,49,1,120,170,,,,,,,,
,,61768a49d07402e9dc818469,65af5661db6f3bf0e8762320,2024-01-23_08h11.29.384,bars,2023.2.3,Win32,60.24096386,657b66ea316d21385b68909f,,,,,,,,,,,,,,,,,,,,,,,,,,,,,,,,,,,,,,,,,,,,,,,,,,,,,,,,,,,,,,,,,,,,,,,,,,,,,,,,,,,,,,,,,,,,,2829.1648,2889.1602,0,1,1,4,1,sequence_tables/blk002.csv
,,61768a49d07402e9dc818469,65af5661db6f3bf0e8762320,2024-01-23_08h11.29.384,bars,2023.2.3,Win32,60.24096386,657b66ea316d21385b68909f,,,,,,,,,,,3485.5032,3486.4821,,,3486.9717,3487.2221,,123,123,,,,,,,,,,,,,,,,bars/019.png,bars/mask002.png,,,,,,,,,,,,3,2,,,,,,,10,7,10,8,,,,,,2889.1748,3485.4811,space,596.2911,,3486.4821,3486.9716,3487.2222,3493.2298,space,5.9913,,3493.2301,78,18,3494.2287,3494.2288,3494.2468,,,,0,0,0,0,1,45,105,,,,,,,,
,,61768a49d07402e9dc818469,65af5661db6f3bf0e8762320,2024-01-23_08h11.29.384,bars,2023.2.3,Win32,60.24096386,657b66ea316d21385b68909f,,,,,,,,,,,3494.2472,3495.2422,,,3495.743,3495.9933,,146,146,,,,,,,,,,,,,,,,bars/039.png,bars/mask008.png,,,,,,,,,,,,0,1,,,,,,,10,5,10,6,,,,,,,,,,,3495.2422,3495.7429,3495.9933,3500.2478,space,4.2391,,3500.2479,29,41,3501.2481,3501.2481,3501.2638,,,,0,1,1,1,1,175,105,,,,,,,,
,,61768a49d07402e9dc818469,65af5661db6f3bf0e8762320,2024-01-23_08h11.29.384,bars,2023.2.3,Win32,60.24096386,657b66ea316d21385b68909f,,,,,,,,,,,3501.2644,3502.2658,,,3502.7662,3503.0167,,57,57,,,,,,,,,,,,,,,,bars/009.png,bars/mask009.png,,,,,,,,,,,,0,1,,,,,,,10,3,9,3,,,,,,,,,,,3502.2658,3502.7661,3503.0167,3506.4197,space,3.3937,,3506.4198,42,48,3507.4204,3507.4205,3507.4329,,,,0,2,2,2,1,15,105,,,,,,,,
,,61768a49d07402e9dc818469,65af5661db6f3bf0e8762320,2024-01-23_08h11.29.384,bars,2023.2.3,Win32,60.24096386,657b66ea316d21385b68909f,,,,,,,,,,,3507.4332,3508.4212,,,3508.9204,3509.1708,,11,11,,,,,,,,,,,,,,,,bars/034.png,bars/mask009.png,,,,,,,,,,,,0,2,,,,,,,8,1,6,0,,,,,,,,,,,3508.4212,3508.9203,3509.1709,3520.0486,space,10.867,,3520.0487,66,54,3521.0491,3521.0491,3521.0667,,,,0,3,3,3,1,125,65,,,,,,,,
,,61768a49d07402e9dc818469,65af5661db6f3bf0e8762320,2024-01-23_08h11.29.384,bars,2023.2.3,Win32,60.24096386,657b66ea316d21385b68909f,,,,,,,,,,,3521.0671,3522.0735,,,3522.5738,3522.8241,,160,160,,,,,,,,,,,,,,,,bars/013.png,bars/mask005.png,,,,,,,,,,,,0,2,,,,,,,10,0,10,1,,,,,,,,,,,3522.0736,3522.5738,3522.8241,3533.5366,space,10.6953,,3533.5368,85,30,3534.5357,3534.5358,3534.5512,,,,0,4,4,4,1,75,10,,,,,,,,
,,61768a49d07402e9dc818469,65af5661db6f3bf0e8762320,2024-01-23_08h11.29.384,bars,2023.2.3,Win32,60.24096386,657b66ea316d21385b68909f,,,,,,,,,,,3534.5516,3535.5489,,,3536.0516,3536.3041,,39,39,,,,,,,,,,,,,,,,bars/018.png,bars/mask008.png,,,,,,,,,,,,0,2,,,,,,,8,0,9,1,,,,,,,,,,,3535.5489,3536.0514,3536.3042,3541.3778,space,5.0569,,3541.3779,69,51,3542.3721,3542.3722,3542.3846,,,,0,5,5,5,1,150,90,,,,,,,,
,,61768a49d07402e9dc818469,65af5661db6f3bf0e8762320,2024-01-23_08h11.29.384,bars,2023.2.3,Win32,60.24096386,657b66ea316d21385b68909f,,,,,,,,,,,3542.385,3543.3777,,,3543.8784,3544.1281,,156,156,,,,,,,,,,,,,,,,bars/003.png,bars/mask005.png,,,,,,,,,,,,1,2,,,,,,,6,2,7,2,,,,,,,,,,,3543.3778,3543.8784,3544.1282,3547.2828,space,3.1377,,3547.283,49,16,3548.2831,3548.2832,3548.2974,,,,0,6,6,6,1,25,140,,,,,,,,
,,61768a49d07402e9dc818469,65af5661db6f3bf0e8762320,2024-01-23_08h11.29.384,bars,2023.2.3,Win32,60.24096386,657b66ea316d21385b68909f,,,,,,,,,,,3548.2977,3549.3012,,,3549.8007,3550.0511,,156,156,,,,,,,,,,,,,,,,bars/021.png,bars/mask003.png,,,,,,,,,,,,9,1,,,,,,,8,0,9,0,,,,,,,,,,,3549.3012,3549.8007,3550.0512,3553.222,space,3.1545,,3553.2223,1,86,3554.217,3554.2171,3554.2332,,,,0,7,7,7,1,155,70,,,,,,,,
,,61768a49d07402e9dc818469,65af5661db6f3bf0e8762320,2024-01-23_08h11.29.384,bars,2023.2.3,Win32,60.24096386,657b66ea316d21385b68909f,,,,,,,,,,,3554.234,3555.2229,,,3555.7231,3555.9735,,167,-13,,,,,,,,,,,,,,,,bars/044.png,bars/mask008.png,,,,,,,,,,,,1,2,,,,,,,6,2,6,2,,,,,,,,,,,3555.2229,3555.7231,3555.9736,3590.1874,space,34.1884,,3590.1876,88,12,3591.1879,3591.188,3591.2069,,,,0,8,8,8,1,75,155,,,,,,,,
,,61768a49d07402e9dc818469,65af5661db6f3bf0e8762320,2024-01-23_08h11.29.384,bars,2023.2.3,Win32,60.24096386,657b66ea316d21385b68909f,,,,,,,,,,,3591.2074,3592.2055,,,3592.7056,3592.9563,,25,205,,,,,,,,,,,,,,,,bars/014.png,bars/mask001.png,,,,,,,,,,,,0,2,,,,,,,8,0,6,0,,,,,,,,,,,3592.2056,3592.7055,3592.9564,3604.453,space,11.4892,,3604.453,55,25,3605.4518,3605.4519,3605.4677,,,,0,9,9,9,1,80,0,,,,,,,,
,,61768a49d07402e9dc818469,65af5661db6f3bf0e8762320,2024-01-23_08h11.29.384,bars,2023.2.3,Win32,60.24096386,657b66ea316d21385b68909f,,,,,,,,,,,3605.4687,3606.4699,,,3606.9703,3607.2206,,149,149,,,,,,,,,,,,,,,,bars/001.png,bars/mask006.png,,,,,,,,,,,,4,1,,,,,,,10,2,10,1,,,,,,,,,,,3606.47,3606.9702,3607.2206,3614.5949,space,7.3592,,3614.595,19,64,3615.5954,3615.5955,3615.6146,,,,0,10,10,10,1,130,85,,,,,,,,
,,61768a49d07402e9dc818469,65af5661db6f3bf0e8762320,2024-01-23_08h11.29.384,bars,2023.2.3,Win32,60.24096386,657b66ea316d21385b68909f,,,,,,,,,,,3615.6149,3616.6133,,,3617.1133,3617.3637,,36,36,,,,,,,,,,,,,,,,bars/007.png,bars/mask006.png,,,,,,,,,,,,1,2,,,,,,,10,4,10,4,,,,,,,,,,,3616.6134,3617.1132,3617.3637,3623.1369,space,5.7655,,3623.1371,41,19,3624.1367,3624.1368,3624.1556,,,,0,11,11,11,1,175,55,,,,,,,,
,,61768a49d07402e9dc818469,65af5661db6f3bf0e8762320,2024-01-23_08h11.29.384,bars,2023.2.3,Win32,60.24096386,657b66ea316d21385b68909f,,,,,,,,,,,3624.1562,3625.1546,,,3625.6556,3625.9058,,144,144,,,,,,,,,,,,,,,,bars/044.png,bars/mask006.png,,,,,,,,,,,,1,2,,,,,,,10,2,8,2,,,,,,,,,,,3625.1547,3625.6555,3625.9059,3630.594,space,4.6715,,3630.594,69,11,3631.5945,3631.5946,3631.6067,,,,0,12,12,12,1,75,155,,,,,,,,
,,61768a49d07402e9dc818469,65af5661db6f3bf0e8762320,2024-01-23_08h11.29.384,bars,2023.2.3,Win32,60.24096386,657b66ea316d21385b68909f,,,,,,,,,,,3631.6071,3632.5956,,,3633.0967,3633.346,,155,-25,,,,,,,,,,,,,,,,bars/012.png,bars/mask000.png,,,,,,,,,,,,0,2,,,,,,,8,4,8,4,,,,,,,,,,,3632.5956,3633.0966,3633.3462,3638.0682,space,4.7069,,3638.0683,65,40,3639.0679,3639.068,3639.0811,,,,0,13,13,13,1,90,15,,,,,,,,
,,61768a49d07402e9dc818469,65af5661db6f3bf0e8762320,2024-01-23_08h11.29.384,bars,2023.2.3,Win32,60.24096386,657b66ea316d21385b68909f,,,,,,,,,,,3639.0817,3640.0708,,,3640.5694,3640.8193,,25,205,,,,,,,,,,,,,,,,bars/044.png,bars/mask002.png,,,,,,,,,,,,0,2,,,,,,,10,6,9,7,,,,,,,,,,,3640.0709,3640.5692,3640.8193,3644.458,space,3.6228,,3644.4582,50,50,3645.4589,3645.459,3645.4707,,,,0,14,14,14,1,75,155,,,,,,,,
,,61768a49d07402e9dc818469,65af5661db6f3bf0e8762320,2024-01-23_08h11.29.384,bars,2023.2.3,Win32,60.24096386,657b66ea316d21385b68909f,,,,,,,,,,,3645.4713,3646.4597,,,3646.9597,3647.2091,,110,110,,,,,,,,,,,,,,,,bars/005.png,bars/mask008.png,,,,,,,,,,,,0,2,,,,,,,8,8,9,8,,,,,,,,,,,3646.4597,3646.9597,3647.2091,3649.8965,space,2.6704,,3649.8966,80,30,3650.897,3650.897,3650.9091,,,,0,15,15,15,1,10,140,,,,,,,,
,,61768a49d07402e9dc818469,65af5661db6f3bf0e8762320,2024-01-23_08h11.29.384,bars,2023.2.3,Win32,60.24096386,657b66ea316d21385b68909f,,,,,,,,,,,3650.9096,3651.898,,,3652.3986,3652.6492,,150,150,,,,,,,,,,,,,,,,bars/033.png,bars/mask009.png,,,,,,,,,,,,8,2,,,,,,,6,10,8,9,,,,,,,,,,,3651.8981,3652.3985,3652.6492,3656.986,space,4.3294,,3656.9862,55,5,3657.9858,3657.986,3657.9994,,,,0,16,16,16,1,25,155,,,,,,,,
,,61768a49d07402e9dc818469,65af5661db6f3bf0e8762320,2024-01-23_08h11.29.384,bars,2023.2.3,Win32,60.24096386,657b66ea316d21385b68909f,,,,,,,,,,,3657.9999,3659.0036,,,3659.5039,3659.7539,,139,139,,,,,,,,,,,,,,,,bars/011.png,bars/mask007.png,,,,,,,,,,,,1,1,,,,,,,4,10,3,10,,,,,,,,,,,3659.0036,3659.5038,3659.7541,3670.9485,space,11.1839,,3670.9486,21,54,3671.9493,3671.9493,3671.9676,,,,0,17,17,17,1,160,85,,,,,,,,
,,61768a49d07402e9dc818469,65af5661db6f3bf0e8762320,2024-01-23_08h11.29.384,bars,2023.2.3,Win32,60.24096386,657b66ea316d21385b68909f,,,,,,,,,,,3671.9681,3672.971,,,3673.4764,3673.7269,,37,37,,,,,,,,,,,,,,,,bars/024.png,bars/mask008.png,,,,,,,,,,,,0,2,,,,,,,2,10,1,9,,,,,,,,,,,3672.9711,3673.4764,3673.7269,3676.8786,space,3.1378,,3676.8787,83,47,3677.8781,3677.8782,3677.8951,,,,0,18,18,18,1,120,170,,,,,,,,
,,61768a49d07402e9dc818469,65af5661db6f3bf0e8762320,2024-01-23_08h11.29.384,bars,2023.2.3,Win32,60.24096386,657b66ea316d21385b68909f,,,,,,,,,,,3677.8955,3678.8958,,,3679.3966,3679.6464,,157,157,,,,,,,,,,,,,,,,bars/045.png,bars/mask002.png,,,,,,,,,,,,0,2,,,,,,,0,8,0,8,,,,,,,,,,,3678.896,3679.3966,3679.6464,3685.0871,space,5.4237,,3685.0872,57,33,3686.0862,3686.0862,3686.101,,,,0,19,19,19,1,100,10,,,,,,,,
,,61768a49d07402e9dc818469,65af5661db6f3bf0e8762320,2024-01-23_08h11.29.384,bars,2023.2.3,Win32,60.24096386,657b66ea316d21385b68909f,,,,,,,,,,,3686.1013,3687.1033,,,3687.6048,3687.8556,,159,-21,,,,,,,,,,,,,,,,bars/003.png,bars/mask001.png,,,,,,,,,,,,4,2,,,,,,,0,10,1,10,,,,,,,,,,,3687.1033,3687.6047,3687.8556,3691.4437,space,3.572,,3691.4437,46,19,3692.4424,3692.4425,3692.4569,,,,0,20,20,20,1,25,140,,,,,,,,
,,61768a49d07402e9dc818469,65af5661db6f3bf0e8762320,2024-01-23_08h11.29.384,bars,2023.2.3,Win32,60.24096386,657b66ea316d21385b68909f,,,,,,,,,,,3692.4573,3693.461,,,3693.9608,3694.2111,,148,148,,,,,,,,,,,,,,,,bars/003.png,bars/mask006.png,,,,,,,,,,,,7,2,,,,,,,0,10,0,9,,,,,,,,,,,3693.461,3693.9608,3694.2112,3702.5301,space,8.2974,,3702.5302,57,8,3703.5309,3703.5309,3703.5455,,,,0,21,21,21,1,25,140,,,,,,,,
,,61768a49d07402e9dc818469,65af5661db6f3bf0e8762320,2024-01-23_08h11.29.384,bars,2023.2.3,Win32,60.24096386,657b66ea316d21385b68909f,,,,,,,,,,,3703.5469,3704.5484,,,3705.0485,3705.2989,,60,60,,,,,,,,,,,,,,,,bars/028.png,bars/mask008.png,,,,,,,,,,,,1,1,,,,,,,2,10,2,10,,,,,,,,,,,3704.5485,3705.0484,3705.2991,3709.6209,space,4.3091,,3709.6209,15,60,3710.6212,3710.6212,3710.6401,,,,0,22,22,22,1,45,120,,,,,,,,
,,61768a49d07402e9dc818469,65af5661db6f3bf0e8762320,2024-01-23_08h11.29.384,bars,2023.2.3,Win32,60.24096386,657b66ea316d21385b68909f,,,,,,,,,,,3710.6407,3711.6285,,,3712.1299,3712.3795,,171,171,,,,,,,,,,,,,,,,bars/015.png,bars/mask008.png,,,,,,,,,,,,6,2,,,,,,,4,10,3,9,,,,,,,,,,,3711.6285,3712.1299,3712.3796,3716.8181,space,4.4223,,3716.8182,61,11,3717.8178,3717.8179,3717.8346,,,,0,23,23,23,1,110,160,,,,,,,,
,,61768a49d07402e9dc818469,65af5661db6f3bf0e8762320,2024-01-23_08h11.29.384,bars,2023.2.3,Win32,60.24096386,657b66ea316d21385b68909f,,,,,,,,,,,3717.835,3718.8353,,,3719.337,3719.5862,,162,162,,,,,,,,,,,,,,,,bars/028.png,bars/mask001.png,,,,,,,,,,,,0,2,,,,,,,2,10,2,8,,,,,,,,,,,3718.8354,3719.3368,3719.5864,3724.8772,space,5.2739,,3724.8773,63,42,3725.877,3725.877,3725.8928,,,,0,24,24,24,1,45,120,,,,,,,,
,,61768a49d07402e9dc818469,65af5661db6f3bf0e8762320,2024-01-23_08h11.29.384,bars,2023.2.3,Win32,60.24096386,657b66ea316d21385b68909f,,,,,,,,,,,3725.8933,3726.8938,,,3727.3942,3727.6437,,116,116,,,,,,,,,,,,,,,,bars/012.png,bars/mask004.png,,,,,,,,,,,,0,1,,,,,,,0,10,0,10,,,,,,,,,,,3726.8939,3727.3941,3727.6438,3736.8399,space,9.1774,,3736.8399,26,79,3737.837,3737.8373,3737.8547,,,,0,25,25,25,1,90,15,,,,,,,,
,,61768a49d07402e9dc818469,65af5661db6f3bf0e8762320,2024-01-23_08h11.29.384,bars,2023.2.3,Win32,60.24096386,657b66ea316d21385b68909f,,,,,,,,,,,3737.8551,3738.8534,,,3739.3565,3739.6016,,137,137,,,,,,,,,,,,,,,,bars/034.png,bars/mask005.png,,,,,,,,,,,,0,1,,,,,,,0,10,0,10,,,,,,,,,,,3738.8534,3739.3564,3739.6016,3742.1264,space,2.5034,,3742.1268,12,72,3743.13,3743.13,3743.1448,,,,0,26,26,26,1,125,65,,,,,,,,
,,61768a49d07402e9dc818469,65af5661db6f3bf0e8762320,2024-01-23_08h11.29.384,bars,2023.2.3,Win32,60.24096386,657b66ea316d21385b68909f,,,,,,,,,,,3743.1453,3744.1436,,,3744.6394,3744.8789,,65,65,,,,,,,,,,,,,,,,bars/020.png,bars/mask002.png,,,,,,,,,,,,0,1,,,,,,,0,8,0,6,,,,,,,,,,,3744.1437,3744.6392,3744.8789,3749.5177,space,4.6226,,3749.5177,50,75,3750.522,3750.522,3750.5363,,,,0,27,27,27,1,115,170,,,,,,,,
,,61768a49d07402e9dc818469,65af5661db6f3bf0e8762320,2024-01-23_08h11.29.384,bars,2023.2.3,Win32,60.24096386,657b66ea316d21385b68909f,,,,,,,,,,,3750.5367,3751.5287,,,3752.0292,3752.2795,,26,26,,,,,,,,,,,,,,,,bars/011.png,bars/mask008.png,,,,,,,,,,,,0,1,,,,,,,2,6,2,5,,,,,,,,,,,3751.5288,3752.0291,3752.2795,3755.8239,space,3.5346,,3755.8239,46,59,3756.8209,3756.821,3756.8357,,,,0,28,28,28,1,160,85,,,,,,,,
,,61768a49d07402e9dc818469,65af5661db6f3bf0e8762320,2024-01-23_08h11.29.384,bars,2023.2.3,Win32,60.24096386,657b66ea316d21385b68909f,,,,,,,,,,,3756.8363,3757.8358,,,3758.3355,3758.5858,,50,50,,,,,,,,,,,,,,,,bars/040.png,bars/mask000.png,,,,,,,,,,,,0,2,,,,,,,0,8,0,8,,,,,,,,,,,3757.8359,3758.3354,3758.5859,3772.2659,space,13.6641,,3772.266,90,45,3773.2667,3773.2667,3773.284,,,,0,29,29,29,1,140,5,,,,,,,,
,,61768a49d07402e9dc818469,65af5661db6f3bf0e8762320,2024-01-23_08h11.29.384,bars,2023.2.3,Win32,60.24096386,657b66ea316d21385b68909f,,,,,,,,,,,3773.2844,3774.275,,,3774.772,3775.0252,,57,237,,,,,,,,,,,,,,,,bars/025.png,bars/mask004.png,,,,,,,,,,,,3,2,,,,,,,0,6,0,7,,,,,,,,,,,3774.275,3774.7719,3775.0253,3779.6141,space,4.5726,,3779.6141,48,17,3780.6138,3780.6139,3780.6302,,,,0,30,30,30,1,105,40,,,,,,,,
,,61768a49d07402e9dc818469,65af5661db6f3bf0e8762320,2024-01-23_08h11.29.384,bars,2023.2.3,Win32,60.24096386,657b66ea316d21385b68909f,,,,,,,,,,,3780.6306,3781.6318,,,3782.1318,3782.3823,,127,127,,,,,,,,,,,,,,,,bars/029.png,bars/mask009.png,,,,,,,,,,,,0,1,,,,,,,0,8,1,10,,,,,,,,,,,3781.6319,3782.1318,3782.3823,3786.2541,space,3.8554,,3786.2544,37,82,3787.2537,3787.2538,3787.2704,,,,0,31,31,31,1,90,45,,,,,,,,
,,61768a49d07402e9dc818469,65af5661db6f3bf0e8762320,2024-01-23_08h11.29.384,bars,2023.2.3,Win32,60.24096386,657b66ea316d21385b68909f,,,,,,,,,,,3787.2715,3788.2709,,,3788.7711,3789.0216,,36,36,,,,,,,,,,,,,,,,bars/010.png,bars/mask000.png,,,,,,,,,,,,4,2,,,,,,,0,10,0,10,,,,,,,,,,,3788.271,3788.771,3789.0217,3792.0603,space,3.021,,3792.0604,51,19,3793.0587,3793.0589,3793.0754,,,,0,32,32,32,1,165,55,,,,,,,,
,,61768a49d07402e9dc818469,65af5661db6f3bf0e8762320,2024-01-23_08h11.29.384,bars,2023.2.3,Win32,60.24096386,657b66ea316d21385b68909f,,,,,,,,,,,3793.0759,3794.0775,,,3794.5782,3794.8231,,29,29,,,,,,,,,,,,,,,,bars/010.png,bars/mask006.png,,,,,,,,,,,,1,2,,,,,,,0,10,0,9,,,,,,,,,,,3794.0776,3794.5781,3794.8232,3797.2658,space,2.4209,,3797.266,44,26,3798.2597,3798.2598,3798.2724,,,,0,33,33,33,1,165,55,,,,,,,,
,,61768a49d07402e9dc818469,65af5661db6f3bf0e8762320,2024-01-23_08h11.29.384,bars,2023.2.3,Win32,60.24096386,657b66ea316d21385b68909f,,,,,,,,,,,3798.2729,3799.2655,,,3799.7685,3800.0161,,120,120,,,,,,,,,,,,,,,,bars/046.png,bars/mask001.png,,,,,,,,,,,,0,2,,,,,,,2,8,1,7,,,,,,,,,,,3799.2657,3799.7684,3800.0161,3830.6823,space,30.649,,3830.6825,35,35,3831.6811,3831.6812,3831.6973,,,,0,34,34,34,1,155,85,,,,,,,,
,,61768a49d07402e9dc818469,65af5661db6f3bf0e8762320,2024-01-23_08h11.29.384,bars,2023.2.3,Win32,60.24096386,657b66ea316d21385b68909f,,,,,,,,,,,3831.6977,3832.6991,,,3833.1995,3833.4496,,29,29,,,,,,,,,,,,,,,,bars/027.png,bars/mask002.png,,,,,,,,,,,,2,2,,,,,,,0,6,0,7,,,,,,,,,,,3832.6992,3833.1995,3833.4498,3836.1845,space,2.7181,,3836.1846,81,21,3837.1865,3837.1866,3837.202,,,,0,35,35,35,1,110,50,,,,,,,,
,,61768a49d07402e9dc818469,65af5661db6f3bf0e8762320,2024-01-23_08h11.29.384,bars,2023.2.3,Win32,60.24096386,657b66ea316d21385b68909f,,,,,,,,,,,3837.2025,3838.2045,,,3838.704,3838.9551,,24,24,,,,,,,,,,,,,,,,bars/011.png,bars/mask006.png,,,,,,,,,,,,0,1,,,,,,,0,8,2,8,,,,,,,,,,,3838.2045,3838.704,3838.9552,3848.5105,space,9.5347,,3848.5107,44,61,3849.4988,3849.499,3849.5177,,,,0,36,36,36,1,160,85,,,,,,,,
,,61768a49d07402e9dc818469,65af5661db6f3bf0e8762320,2024-01-23_08h11.29.384,bars,2023.2.3,Win32,60.24096386,657b66ea316d21385b68909f,,,,,,,,,,,3849.5181,3850.5125,,,3851.0127,3851.2632,,152,152,,,,,,,,,,,,,,,,bars/028.png,bars/mask007.png,,,,,,,,,,,,0,2,,,,,,,0,6,0,7,,,,,,,,,,,3850.5125,3851.0126,3851.2633,3864.0256,space,12.7476,,3864.0257,73,32,3865.0269,3865.0269,3865.045,,,,0,37,37,37,1,45,120,,,,,,,,
,,61768a49d07402e9dc818469,65af5661db6f3bf0e8762320,2024-01-23_08h11.29.384,bars,2023.2.3,Win32,60.24096386,657b66ea316d21385b68909f,,,,,,,,,,,3865.0454,3866.0448,,,3866.5451,3866.7955,,28,28,,,,,,,,,,,,,,,,bars/049.png,bars/mask005.png,,,,,,,,,,,,0,1,,,,,,,0,8,1,9,,,,,,,,,,,3866.0449,3866.545,3866.7955,3873.486,space,6.6754,,3873.486,48,87,3874.4862,3874.4862,3874.5064,,,,0,38,38,38,1,160,115,,,,,,,,
,,61768a49d07402e9dc818469,65af5661db6f3bf0e8762320,2024-01-23_08h11.29.384,bars,2023.2.3,Win32,60.24096386,657b66ea316d21385b68909f,,,,,,,,,,,3874.5068,3875.502,,,3876.0023,3876.2524,,115,115,,,,,,,,,,,,,,,,bars/004.png,bars/mask001.png,,,,,,,,,,,,5,2,,,,,,,2,6,2,7,,,,,,,,,,,3875.5021,3876.0022,3876.2524,3880.0064,space,3.7422,,3880.0065,90,10,3881.0074,3881.0075,3881.0292,,,,0,39,39,39,1,25,125,,,,,,,,
,,61768a49d07402e9dc818469,65af5661db6f3bf0e8762320,2024-01-23_08h11.29.384,bars,2023.2.3,Win32,60.24096386,657b66ea316d21385b68909f,,,,,,,,,,,3881.0299,3882.0293,,,3882.5255,3882.7758,,37,217,,,,,,,,,,,,,,,,bars/041.png,bars/mask007.png,,,,,,,,,,,,2,1,,,,,,,4,4,5,3,,,,,,,,,,,3882.0295,3882.5254,3882.7758,3886.053,space,3.2676,,3886.0533,17,48,3887.0538,3887.054,3887.0697,,,,0,40,40,40,1,20,85,,,,,,,,
,,61768a49d07402e9dc818469,65af5661db6f3bf0e8762320,2024-01-23_08h11.29.384,bars,2023.2.3,Win32,60.24096386,657b66ea316d21385b68909f,,,,,,,,,,,3887.0702,3888.0707,,,3888.5712,3888.8216,,153,153,,,,,,,,,,,,,,,,bars/045.png,bars/mask002.png,,,,,,,,,,,,0,2,,,,,,,2,6,1,7,,,,,,,,,,,3888.0707,3888.571,3888.8217,3891.9932,space,3.1552,,3891.9935,53,37,3892.987,3892.9874,3893.0033,,,,0,41,41,41,1,100,10,,,,,,,,
,,61768a49d07402e9dc818469,65af5661db6f3bf0e8762320,2024-01-23_08h11.29.384,bars,2023.2.3,Win32,60.24096386,657b66ea316d21385b68909f,,,,,,,,,,,3893.0042,3894.0098,,,3894.5108,3894.761,,111,111,,,,,,,,,,,,,,,,bars/017.png,bars/mask005.png,,,,,,,,,,,,0,1,,,,,,,4,4,3,3,,,,,,,,,,,3894.0099,3894.5106,3894.761,3899.1997,space,4.4227,,3899.2,34,66,3900.1992,3900.1993,3900.2159,,,,0,42,42,42,1,145,45,,,,,,,,
,,61768a49d07402e9dc818469,65af5661db6f3bf0e8762320,2024-01-23_08h11.29.384,bars,2023.2.3,Win32,60.24096386,657b66ea316d21385b68909f,,,,,,,,,,,3900.2163,3901.2107,,,3901.7112,3901.9613,,56,56,,,,,,,,,,,,,,,,bars/019.png,bars/mask009.png,,,,,,,,,,,,3,1,,,,,,,2,6,4,6,,,,,,,,,,,3901.2107,3901.711,3901.9614,3905.5702,space,3.5996,,3905.5703,11,49,3906.5661,3906.5662,3906.5803,,,,0,43,43,43,1,45,105,,,,,,,,
,,61768a49d07402e9dc818469,65af5661db6f3bf0e8762320,2024-01-23_08h11.29.384,bars,2023.2.3,Win32,60.24096386,657b66ea316d21385b68909f,,,,,,,,,,,3906.5808,3907.5904,,,3908.0911,3908.3407,,119,119,,,,,,,,,,,,,,,,bars/024.png,bars/mask002.png,,,,,,,,,,,,0,1,,,,,,,0,8,0,8,,,,,,,,,,,3907.5904,3908.091,3908.3407,3913.9318,space,5.5742,,3913.9319,1,51,3914.931,3914.931,3914.9475,,,,0,44,44,44,1,120,170,,,,,,,,
,,61768a49d07402e9dc818469,65af5661db6f3bf0e8762320,2024-01-23_08h11.29.384,bars,2023.2.3,Win32,60.24096386,657b66ea316d21385b68909f,,,,,,,,,,,3914.9481,3915.9443,,,3916.449,3916.6992,,145,145,,,,,,,,,,,,,,,,bars/049.png,bars/mask008.png,,,,,,,,,,,,1,1,,,,,,,2,6,1,7,,,,,,,,,,,3915.9443,3916.4489,3916.6993,3923.1239,space,6.4078,,3923.1241,15,30,3924.1232,3924.1233,3924.1398,,,,0,45,45,45,1,160,115,,,,,,,,
,,61768a49d07402e9dc818469,65af5661db6f3bf0e8762320,2024-01-23_08h11.29.384,bars,2023.2.3,Win32,60.24096386,657b66ea316d21385b68909f,,,,,,,,,,,3924.1401,3925.1409,,,3925.6415,3925.8915,,168,-12,,,,,,,,,,,,,,,,bars/009.png,bars/mask003.png,,,,,,,,,,,,0,1,,,,,,,0,4,0,4,,,,,,,,,,,3925.1411,3925.6414,3925.8916,3936.1829,space,10.2742,,3936.183,27,63,3937.186,3937.186,3937.2029,,,,0,46,46,46,1,15,105,,,,,,,,
,,61768a49d07402e9dc818469,65af5661db6f3bf0e8762320,2024-01-23_08h11.29.384,bars,2023.2.3,Win32,60.24096386,657b66ea316d21385b68909f,,,,,,,,,,,3937.2032,3938.2037,,,3938.7046,3938.9552,,133,133,,,,,,,,,,,,,,,,bars/006.png,bars/mask000.png,,,,,,,,,,,,0,2,,,,,,,2,6,2,6,,,,,,,,,,,3938.2037,3938.7045,3938.9552,3941.6932,space,2.7212,,3941.6933,82,33,3942.6913,3942.6914,3942.7096,,,,0,47,47,47,1,35,100,,,,,,,,
,,61768a49d07402e9dc818469,65af5661db6f3bf0e8762320,2024-01-23_08h11.29.384,bars,2023.2.3,Win32,60.24096386,657b66ea316d21385b68909f,,,,,,,,,,,3942.7101,3943.7053,,,3944.206,3944.4558,,151,-29,,,,,,,,,,,,,,,,bars/000.png,bars/mask004.png,,,,,,,,,,,,2,2,,,,,,,0,4,0,3,,,,,,,,,,,3943.7054,3944.206,3944.4559,3946.9412,space,2.4721,,3946.9412,69,6,3947.9429,3947.943,3947.9587,,,,0,48,48,48,1,40,145,,,,,,,,
,,61768a49d07402e9dc818469,65af5661db6f3bf0e8762320,2024-01-23_08h11.29.384,bars,2023.2.3,Win32,60.24096386,657b66ea316d21385b68909f,,,,,,,,,,,3947.9595,3948.9607,,,3949.461,3949.7112,,66,66,,,,,,,,,,,,,,,,bars/025.png,bars/mask003.png,,,,,,,,,,,,0,2,,,,,,,2,2,2,3,,,,,,,,,,,3948.9607,3949.4609,3949.7113,3953.0323,space,3.3101,,3953.0324,39,26,3954.0322,3954.0323,3954.0463,,,,0,49,49,49,1,105,40,,,,,,,,
,,61768a49d07402e9dc818469,65af5661db6f3bf0e8762320,2024-01-23_08h11.29.384,bars,2023.2.3,Win32,60.24096386,657b66ea316d21385b68909f,,,,,,,,,,,,,,,,,,,,,,,,,,,,,,,,,,,,,,,,,,,,,,,,,,,,,,,,,,,,,,,,,,,,,,,,,,,,,,,,,,,,,,,,,,,,,3954.0472,4014.0438,0,2,2,3,1,sequence_tables/blk043.csv
,,61768a49d07402e9dc818469,65af5661db6f3bf0e8762320,2024-01-23_08h11.29.384,bars,2023.2.3,Win32,60.24096386,657b66ea316d21385b68909f,,,,,,,,,,,4020.0263,4021.0135,,,4021.5142,4021.7643,,140,140,,,,,,,,,,,,,,,,bars/047.png,bars/mask000.png,,,,,,,,,,,,0,1,,,,,,,5,5,5,6,,,,,,4014.0595,4020.0033,space,5.9353,,4021.0136,4021.514,4021.7644,4029.0719,space,7.2921,,4029.0722,55,70,4030.0725,4030.0725,4030.0791,,,,0,0,0,0,1,15,70,,,,,,,,
,,61768a49d07402e9dc818469,65af5661db6f3bf0e8762320,2024-01-23_08h11.29.384,bars,2023.2.3,Win32,60.24096386,657b66ea316d21385b68909f,,,,,,,,,,,4030.0795,4031.0742,,,4031.574,4031.8241,,174,174,,,,,,,,,,,,,,,,bars/008.png,bars/mask006.png,,,,,,,,,,,,2,2,,,,,,,3,3,1,3,,,,,,,,,,,4031.0746,4031.5739,4031.8242,4037.38,space,5.541,,4037.3802,64,6,4038.3809,4038.381,4038.3984,,,,0,1,1,1,1,110,0,,,,,,,,
,,61768a49d07402e9dc818469,65af5661db6f3bf0e8762320,2024-01-23_08h11.29.384,bars,2023.2.3,Win32,60.24096386,657b66ea316d21385b68909f,,,,,,,,,,,4038.3988,4039.3985,,,4039.8994,4040.1491,,3,3,,,,,,,,,,,,,,,,bars/034.png,bars/mask007.png,,,,,,,,,,,,0,1,,,,,,,1,5,2,7,,,,,,,,,,,4039.3985,4039.8993,4040.1492,4049.1427,space,8.9831,,4049.1428,58,62,4050.1424,4050.1425,4050.1613,,,,0,2,2,2,1,125,65,,,,,,,,
,,61768a49d07402e9dc818469,65af5661db6f3bf0e8762320,2024-01-23_08h11.29.384,bars,2023.2.3,Win32,60.24096386,657b66ea316d21385b68909f,,,,,,,,,,,4050.1617,4051.1602,,,4051.6605,4051.9108,,154,-26,,,,,,,,,,,,,,,,bars/000.png,bars/mask008.png,,,,,,,,,,,,6,2,,,,,,,0,7,0,9,,,,,,,,,,,4051.1602,4051.6604,4051.9109,4193.9861,space,142.0629,,4193.9863,66,9,4194.9866,4194.9868,4195.0052,,,,0,3,3,3,1,40,145,,,,,,,,
,,61768a49d07402e9dc818469,65af5661db6f3bf0e8762320,2024-01-23_08h11.29.384,bars,2023.2.3,Win32,60.24096386,657b66ea316d21385b68909f,,,,,,,,,,,4195.0057,4196.0099,,,4196.5111,4196.7615,,45,45,,,,,,,,,,,,,,,,bars/041.png,bars/mask005.png,,,,,,,,,,,,0,1,,,,,,,0,5,2,4,,,,,,,,,,,4196.01,4196.511,4196.7615,4199.2995,space,2.5216,,4199.2997,25,40,4200.2979,4200.298,4200.3142,,,,0,4,4,4,1,20,85,,,,,,,,
,,61768a49d07402e9dc818469,65af5661db6f3bf0e8762320,2024-01-23_08h11.29.384,bars,2023.2.3,Win32,60.24096386,657b66ea316d21385b68909f,,,,,,,,,,,4200.3146,4201.3106,,,4201.8102,4202.0604,,142,142,,,,,,,,,,,,,,,,bars/022.png,bars/mask006.png,,,,,,,,,,,,0,1,,,,,,,2,7,3,8,,,,,,,,,,,4201.3111,4201.8101,4202.0604,4204.2296,space,2.1531,,4204.2296,47,58,4205.2302,4205.2302,4205.2439,,,,0,5,5,5,1,95,20,,,,,,,,
,,61768a49d07402e9dc818469,65af5661db6f3bf0e8762320,2024-01-23_08h11.29.384,bars,2023.2.3,Win32,60.24096386,657b66ea316d21385b68909f,,,,,,,,,,,4205.2443,4206.2478,,,4206.7484,4206.9985,,147,147,,,,,,,,,,,,,,,,bars/041.png,bars/mask005.png,,,,,,,,,,,,0,1,,,,,,,4,9,4,10,,,,,,,,,,,4206.2479,4206.7483,4206.9985,4211.7702,space,4.7566,,4211.7702,53,62,4212.7709,4212.771,4212.7844,,,,0,6,6,6,1,20,85,,,,,,,,
,,61768a49d07402e9dc818469,65af5661db6f3bf0e8762320,2024-01-23_08h11.29.384,bars,2023.2.3,Win32,60.24096386,657b66ea316d21385b68909f,,,,,,,,,,,4212.7849,4213.7886,,,4214.289,4214.5393,,17,197,,,,,,,,,,,,,,,,bars/043.png,bars/mask003.png,,,,,,,,,,,,1,1,,,,,,,2,10,1,9,,,,,,,,,,,4213.7886,4214.289,4214.5394,4217.9598,space,3.4098,,4217.9599,13,67,4218.9605,4218.9607,4218.975,,,,0,7,7,7,1,30,130,,,,,,,,
,,61768a49d07402e9dc818469,65af5661db6f3bf0e8762320,2024-01-23_08h11.29.384,bars,2023.2.3,Win32,60.24096386,657b66ea316d21385b68909f,,,,,,,,,,,4218.9754,4219.9788,,,4220.4784,4220.7288,,153,-27,,,,,,,,,,,,,,,,bars/013.png,bars/mask002.png,,,,,,,,,,,,0,2,,,,,,,4,8,2,8,,,,,,,,,,,4219.979,4220.4783,4220.7289,4227.9694,space,7.2286,,4227.9694,78,37,4228.97,4228.9701,4228.9877,,,,0,8,8,8,1,75,10,,,,,,,,
,,61768a49d07402e9dc818469,65af5661db6f3bf0e8762320,2024-01-23_08h11.29.384,bars,2023.2.3,Win32,60.24096386,657b66ea316d21385b68909f,,,,,,,,,,,4228.9883,4229.9877,,,4230.4884,4230.7383,,130,130,,,,,,,,,,,,,,,,bars/045.png,bars/mask005.png,,,,,,,,,,,,0,1,,,,,,,6,6,7,7,,,,,,,,,,,4229.9877,4230.4883,4230.7384,4235.5772,space,4.8231,,4235.5773,30,60,4236.5781,4236.5782,4236.5946,,,,0,9,9,9,1,100,10,,,,,,,,
,,61768a49d07402e9dc818469,65af5661db6f3bf0e8762320,2024-01-23_08h11.29.384,bars,2023.2.3,Win32,60.24096386,657b66ea316d21385b68909f,,,,,,,,,,,4236.5949,4237.5849,,,4238.0813,4238.336,,63,63,,,,,,,,,,,,,,,,bars/005.png,bars/mask000.png,,,,,,,,,,,,0,1,,,,,,,4,4,3,6,,,,,,,,,,,4237.585,4238.0813,4238.3361,4242.6756,space,4.3229,,4242.6758,53,77,4243.6745,4243.6746,4243.6895,,,,0,10,10,10,1,10,140,,,,,,,,
,,61768a49d07402e9dc818469,65af5661db6f3bf0e8762320,2024-01-23_08h11.29.384,bars,2023.2.3,Win32,60.24096386,657b66ea316d21385b68909f,,,,,,,,,,,4243.69,4244.6924,,,4245.1927,4245.4384,,164,164,,,,,,,,,,,,,,,,bars/019.png,bars/mask004.png,,,,,,,,,,,,0,2,,,,,,,6,6,6,8,,,,,,,,,,,4244.6925,4245.1926,4245.4384,4250.0157,space,4.5563,,4250.016,61,59,4251.0177,4251.0177,4251.0328,,,,0,11,11,11,1,45,105,,,,,,,,
,,61768a49d07402e9dc818469,65af5661db6f3bf0e8762320,2024-01-23_08h11.29.384,bars,2023.2.3,Win32,60.24096386,657b66ea316d21385b68909f,,,,,,,,,,,4251.0332,4252.0266,,,4252.5272,4252.7775,,5,5,,,,,,,,,,,,,,,,bars/022.png,bars/mask006.png,,,,,,,,,,,,4,2,,,,,,,8,8,8,7,,,,,,,,,,,4252.0267,4252.5271,4252.7776,4262.0708,space,9.2835,,4262.071,90,15,4263.0748,4263.075,4263.0902,,,,0,12,12,12,1,95,20,,,,,,,,
,,61768a49d07402e9dc818469,65af5661db6f3bf0e8762320,2024-01-23_08h11.29.384,bars,2023.2.3,Win32,60.24096386,657b66ea316d21385b68909f,,,,,,,,,,,4263.0907,4264.089,,,4264.5897,4264.8394,,117,117,,,,,,,,,,,,,,,,bars/020.png,bars/mask000.png,,,,,,,,,,,,9,1,,,,,,,10,6,10,3,,,,,,,,,,,4264.0891,4264.5896,4264.8396,4269.1106,space,4.2568,,4269.1109,2,53,4270.1113,4270.1115,4270.1263,,,,0,13,13,13,1,115,170,,,,,,,,
,,61768a49d07402e9dc818469,65af5661db6f3bf0e8762320,2024-01-23_08h11.29.384,bars,2023.2.3,Win32,60.24096386,657b66ea316d21385b68909f,,,,,,,,,,,4270.1275,4271.1289,,,4271.6296,4271.8798,,172,-8,,,,,,,,,,,,,,,,bars/045.png,bars/mask003.png,,,,,,,,,,,,2,2,,,,,,,10,4,8,5,,,,,,,,,,,4271.129,4271.6295,4271.8798,4275.3333,space,3.4384,,4275.3335,72,18,4276.3348,4276.335,4276.3503,,,,0,14,14,14,1,100,10,,,,,,,,
,,61768a49d07402e9dc818469,65af5661db6f3bf0e8762320,2024-01-23_08h11.29.384,bars,2023.2.3,Win32,60.24096386,657b66ea316d21385b68909f,,,,,,,,,,,4276.3506,4277.3517,,,4277.8525,4278.1026,,151,151,,,,,,,,,,,,,,,,bars/048.png,bars/mask002.png,,,,,,,,,,,,1,2,,,,,,,10,6,10,5,,,,,,,,,,,4277.3518,4277.8524,4278.1027,4280.8559,space,2.7382,,4280.856,79,24,4281.8566,4281.8567,4281.8699,,,,0,15,15,15,1,50,175,,,,,,,,
,,61768a49d07402e9dc818469,65af5661db6f3bf0e8762320,2024-01-23_08h11.29.384,bars,2023.2.3,Win32,60.24096386,657b66ea316d21385b68909f,,,,,,,,,,,4281.8703,4282.8745,,,4283.3749,4283.6249,,75,75,,,,,,,,,,,,,,,,bars/025.png,bars/mask005.png,,,,,,,,,,,,0,1,,,,,,,10,8,10,9,,,,,,,,,,,4282.8746,4283.3748,4283.6251,4287.4958,space,3.8597,,4287.4959,30,35,4288.4963,4288.4964,4288.5128,,,,0,16,16,16,1,105,40,,,,,,,,
,,61768a49d07402e9dc818469,65af5661db6f3bf0e8762320,2024-01-23_08h11.29.384,bars,2023.2.3,Win32,60.24096386,657b66ea316d21385b68909f,,,,,,,,,,,4288.5132,4289.514,,,4290.0146,4290.2649,,37,217,,,,,,,,,,,,,,,,bars/020.png,bars/mask000.png,,,,,,,,,,,,0,2,,,,,,,8,10,8,8,,,,,,,,,,,4289.5141,4290.0144,4290.265,4297.0898,space,6.8114,,4297.0899,78,47,4298.0785,4298.0786,4298.0961,,,,0,17,17,17,1,115,170,,,,,,,,
,,61768a49d07402e9dc818469,65af5661db6f3bf0e8762320,2024-01-23_08h11.29.384,bars,2023.2.3,Win32,60.24096386,657b66ea316d21385b68909f,,,,,,,,,,,4298.0966,4299.0902,,,4299.5913,4299.8413,,152,-28,,,,,,,,,,,,,,,,bars/025.png,bars/mask000.png,,,,,,,,,,,,0,1,,,,,,,6,8,4,9,,,,,,,,,,,4299.0903,4299.5912,4299.8414,4302.0101,space,2.1569,,4302.0102,47,68,4303.0109,4303.011,4303.0271,,,,0,18,18,18,1,105,40,,,,,,,,
,,61768a49d07402e9dc818469,65af5661db6f3bf0e8762320,2024-01-23_08h11.29.384,bars,2023.2.3,Win32,60.24096386,657b66ea316d21385b68909f,,,,,,,,,,,4303.0276,4304.0179,,,4304.5123,4304.7626,,44,224,,,,,,,,,,,,,,,,bars/014.png,bars/mask008.png,,,,,,,,,,,,0,1,,,,,,,4,6,5,5,,,,,,,,,,,4304.018,4304.5122,4304.7626,4310.1349,space,5.3571,,4310.1351,36,44,4311.1353,4311.1355,4311.149,,,,0,19,19,19,1,80,0,,,,,,,,
,,61768a49d07402e9dc818469,65af5661db6f3bf0e8762320,2024-01-23_08h11.29.384,bars,2023.2.3,Win32,60.24096386,657b66ea316d21385b68909f,,,,,,,,,,,4311.1493,4312.1532,,,4312.654,4312.9039,,32,32,,,,,,,,,,,,,,,,bars/046.png,bars/mask004.png,,,,,,,,,,,,0,2,,,,,,,6,8,7,9,,,,,,,,,,,4312.1534,4312.6539,4312.904,4316.558,space,3.6386,,4316.5581,57,53,4317.5585,4317.5586,4317.575,,,,0,20,20,20,1,155,85,,,,,,,,
,,61768a49d07402e9dc818469,65af5661db6f3bf0e8762320,2024-01-23_08h11.29.384,bars,2023.2.3,Win32,60.24096386,657b66ea316d21385b68909f,,,,,,,,,,,4317.5756,4318.5822,,,4319.0768,4319.3287,,158,158,,,,,,,,,,,,,,,,bars/039.png,bars/mask006.png,,,,,,,,,,,,2,1,,,,,,,4,10,5,10,,,,,,,,,,,4318.5822,4319.0768,4319.3287,4321.931,space,2.5877,,4321.9311,17,53,4322.9316,4322.9316,4322.9481,,,,0,21,21,21,1,175,105,,,,,,,,
,,61768a49d07402e9dc818469,65af5661db6f3bf0e8762320,2024-01-23_08h11.29.384,bars,2023.2.3,Win32,60.24096386,657b66ea316d21385b68909f,,,,,,,,,,,4322.9489,4323.9498,,,4324.4509,4324.7002,,6,186,,,,,,,,,,,,,,,,bars/006.png,bars/mask000.png,,,,,,,,,,,,0,1,,,,,,,2,8,2,10,,,,,,,,,,,4323.95,4324.4508,4324.7002,4328.3549,space,3.6444,,4328.355,29,86,4329.3548,4329.355,4329.3726,,,,0,22,22,22,1,35,100,,,,,,,,
,,61768a49d07402e9dc818469,65af5661db6f3bf0e8762320,2024-01-23_08h11.29.384,bars,2023.2.3,Win32,60.24096386,657b66ea316d21385b68909f,,,,,,,,,,,4329.3736,4330.378,,,4330.8777,4331.1283,,11,11,,,,,,,,,,,,,,,,bars/037.png,bars/mask002.png,,,,,,,,,,,,0,1,,,,,,,0,6,0,6,,,,,,,,,,,4330.3782,4330.8776,4331.1285,4336.1839,space,5.0391,,4336.184,41,86,4337.1852,4337.1854,4337.2023,,,,0,23,23,23,1,150,105,,,,,,,,
,,61768a49d07402e9dc818469,65af5661db6f3bf0e8762320,2024-01-23_08h11.29.384,bars,2023.2.3,Win32,60.24096386,657b66ea316d21385b68909f,,,,,,,,,,,4337.2029,4338.2015,,,4338.7023,4338.953,,29,29,,,,,,,,,,,,,,,,bars/032.png,bars/mask003.png,,,,,,,,,,,,6,2,,,,,,,2,8,2,9,,,,,,,,,,,4338.2016,4338.7023,4338.9531,4341.571,space,2.6014,,4341.571,84,9,4342.5725,4342.5726,4342.5897,,,,0,24,24,24,1,125,20,,,,,,,,
,,61768a49d07402e9dc818469,65af5661db6f3bf0e8762320,2024-01-23_08h11.29.384,bars,2023.2.3,Win32,60.24096386,657b66ea316d21385b68909f,,,,,,,,,,,4342.5903,4343.5912,,,4344.0914,4344.3361,,4,184,,,,,,,,,,,,,,,,bars/035.png,bars/mask003.png,,,,,,,,,,,,0,1,,,,,,,0,10,0,10,,,,,,,,,,,4343.5912,4344.0913,4344.3363,4346.7118,space,2.3538,,4346.712,9,56,4347.7117,4347.7119,4347.7285,,,,0,25,25,25,1,175,60,,,,,,,,
,,61768a49d07402e9dc818469,65af5661db6f3bf0e8762320,2024-01-23_08h11.29.384,bars,2023.2.3,Win32,60.24096386,657b66ea316d21385b68909f,,,,,,,,,,,4347.729,4348.7293,,,4349.2299,4349.4796,,18,18,,,,,,,,,,,,,,,,bars/033.png,bars/mask008.png,,,,,,,,,,,,0,1,,,,,,,0,8,0,9,,,,,,,,,,,4348.7294,4349.2298,4349.4798,4355.4205,space,5.9239,,4355.4206,7,43,4356.4197,4356.4197,4356.4348,,,,0,26,26,26,1,25,155,,,,,,,,
,,61768a49d07402e9dc818469,65af5661db6f3bf0e8762320,2024-01-23_08h11.29.384,bars,2023.2.3,Win32,60.24096386,657b66ea316d21385b68909f,,,,,,,,,,,4356.4351,4357.4394,,,4357.9385,4358.1881,,39,219,,,,,,,,,,,,,,,,bars/005.png,bars/mask003.png,,,,,,,,,,,,0,1,,,,,,,0,6,3,5,,,,,,,,,,,4357.4395,4357.9383,4358.1882,4362.1769,space,3.972,,4362.1769,29,79,4363.1765,4363.1765,4363.191,,,,0,27,27,27,1,10,140,,,,,,,,
,,61768a49d07402e9dc818469,65af5661db6f3bf0e8762320,2024-01-23_08h11.29.384,bars,2023.2.3,Win32,60.24096386,657b66ea316d21385b68909f,,,,,,,,,,,4363.1914,4364.1948,,,4364.6952,4364.9402,,21,21,,,,,,,,,,,,,,,,bars/030.png,bars/mask001.png,,,,,,,,,,,,0,2,,,,,,,0,8,1,8,,,,,,,,,,,4364.1948,4364.6952,4364.9402,4377.8238,space,12.862,,4377.824,61,44,4378.825,4378.8252,4378.8426,,,,0,28,28,28,1,140,65,,,,,,,,
,,61768a49d07402e9dc818469,65af5661db6f3bf0e8762320,2024-01-23_08h11.29.384,bars,2023.2.3,Win32,60.24096386,657b66ea316d21385b68909f,,,,,,,,,,,4378.843,4379.8372,,,4380.3378,4380.5882,,137,137,,,,,,,,,,,,,,,,bars/023.png,bars/mask005.png,,,,,,,,,,,,2,2,,,,,,,0,6,2,8,,,,,,,,,,,4379.8372,4380.3376,4380.5882,4382.9405,space,2.3411,,4382.9406,63,22,4383.9415,4383.9415,4383.9551,,,,0,29,29,29,1,20,115,,,,,,,,
,,61768a49d07402e9dc818469,65af5661db6f3bf0e8762320,2024-01-23_08h11.29.384,bars,2023.2.3,Win32,60.24096386,657b66ea316d21385b68909f,,,,,,,,,,,4383.9556,4384.9591,,,4385.4595,4385.7098,,6,6,,,,,,,,,,,,,,,,bars/025.png,bars/mask007.png,,,,,,,,,,,,0,2,,,,,,,0,8,0,7,,,,,,,,,,,4384.9592,4385.4595,4385.7099,4386.6968,space,0.9716,,4386.697,81,34,4387.695,4387.6951,4387.698,,,,0,30,30,30,1,105,40,,,,,,,,
,,61768a49d07402e9dc818469,65af5661db6f3bf0e8762320,2024-01-23_08h11.29.384,bars,2023.2.3,Win32,60.24096386,657b66ea316d21385b68909f,,,,,,,,,,,4387.699,4388.696,,,4389.1967,4389.4465,,62,62,,,,,,,,,,,,,,,,bars/038.png,bars/mask002.png,,,,,,,,,,,,7,2,,,,,,,2,10,0,10,,,,,,,,,,,4388.6961,4389.1965,4389.4465,4391.6326,space,2.1719,,4391.6327,77,8,4392.623,4392.6231,4392.6257,,,,0,31,31,31,1,165,70,,,,,,,,
,,61768a49d07402e9dc818469,65af5661db6f3bf0e8762320,2024-01-23_08h11.29.384,bars,2023.2.3,Win32,60.24096386,657b66ea316d21385b68909f,,,,,,,,,,,4392.6263,4393.6239,,,4394.1181,4394.3684,,130,130,,,,,,,,,,,,,,,,bars/002.png,bars/mask009.png,,,,,,,,,,,,5,1,,,,,,,4,10,5,9,,,,,,,,,,,4393.6239,4394.1181,4394.3685,4397.2881,space,2.9046,,4397.2881,0,45,4398.2889,4398.2889,4398.3054,,,,0,32,32,32,1,130,85,,,,,,,,
,,61768a49d07402e9dc818469,65af5661db6f3bf0e8762320,2024-01-23_08h11.29.384,bars,2023.2.3,Win32,60.24096386,657b66ea316d21385b68909f,,,,,,,,,,,4398.3058,4399.3067,,,4399.8071,4400.0573,,125,125,,,,,,,,,,,,,,,,bars/047.png,bars/mask001.png,,,,,,,,,,,,0,2,,,,,,,6,8,7,8,,,,,,,,,,,4399.3067,4399.8071,4400.0574,4403.9283,space,3.8578,,4403.9284,70,55,4404.9288,4404.9289,4404.945,,,,0,33,33,33,1,15,70,,,,,,,,
,,61768a49d07402e9dc818469,65af5661db6f3bf0e8762320,2024-01-23_08h11.29.384,bars,2023.2.3,Win32,60.24096386,657b66ea316d21385b68909f,,,,,,,,,,,4404.9454,4405.9465,,,4406.447,4406.6976,,71,71,,,,,,,,,,,,,,,,bars/023.png,bars/mask002.png,,,,,,,,,,,,0,2,,,,,,,4,6,4,7,,,,,,,,,,,4405.9466,4406.447,4406.6977,4410.4346,space,3.7223,,4410.4347,51,44,4411.4354,4411.4354,4411.4489,,,,0,34,34,34,1,20,115,,,,,,,,
,,61768a49d07402e9dc818469,65af5661db6f3bf0e8762320,2024-01-23_08h11.29.384,bars,2023.2.3,Win32,60.24096386,657b66ea316d21385b68909f,,,,,,,,,,,4411.4493,4412.4546,,,4412.9535,4413.2034,,22,22,,,,,,,,,,,,,,,,bars/039.png,bars/mask000.png,,,,,,,,,,,,1,1,,,,,,,6,8,6,7,,,,,,,,,,,4412.4546,4412.9534,4413.2034,4419.3935,space,6.1722,,4419.3936,27,83,4420.3942,4420.3943,4420.4105,,,,0,35,35,35,1,175,105,,,,,,,,
,,61768a49d07402e9dc818469,65af5661db6f3bf0e8762320,2024-01-23_08h11.29.384,bars,2023.2.3,Win32,60.24096386,657b66ea316d21385b68909f,,,,,,,,,,,4420.4109,4421.412,,,4421.9124,4422.1627,,142,142,,,,,,,,,,,,,,,,bars/006.png,bars/mask008.png,,,,,,,,,,,,0,2,,,,,,,8,10,7,9,,,,,,,,,,,4421.412,4421.9124,4422.1628,4425.6493,space,3.4687,,4425.6494,73,42,4426.6504,4426.6505,4426.6667,,,,0,36,36,36,1,35,100,,,,,,,,
,,61768a49d07402e9dc818469,65af5661db6f3bf0e8762320,2024-01-23_08h11.29.384,bars,2023.2.3,Win32,60.24096386,657b66ea316d21385b68909f,,,,,,,,,,,4426.6672,4427.6679,,,4428.1683,4428.4187,,95,95,,,,,,,,,,,,,,,,bars/033.png,bars/mask006.png,,,,,,,,,,,,0,2,,,,,,,10,10,9,10,,,,,,,,,,,4427.6679,4428.1682,4428.4187,4440.4813,space,12.0476,,4440.4816,70,60,4441.4818,4441.4819,4441.4967,,,,0,37,37,37,1,25,155,,,,,,,,
,,61768a49d07402e9dc818469,65af5661db6f3bf0e8762320,2024-01-23_08h11.29.384,bars,2023.2.3,Win32,60.24096386,657b66ea316d21385b68909f,,,,,,,,,,,4441.4979,4442.4996,,,4443,4443.2505,,159,159,,,,,,,,,,,,,,,,bars/000.png,bars/mask005.png,,,,,,,,,,,,4,2,,,,,,,10,8,10,8,,,,,,,,,,,4442.4996,4442.9999,4443.2505,4450.7415,space,7.4777,,4450.7418,61,14,4451.742,4451.7421,4451.7582,,,,0,38,38,38,1,40,145,,,,,,,,
,,61768a49d07402e9dc818469,65af5661db6f3bf0e8762320,2024-01-23_08h11.29.384,bars,2023.2.3,Win32,60.24096386,657b66ea316d21385b68909f,,,,,,,,,,,4451.7586,4452.7598,,,4453.2606,4453.5109,,31,211,,,,,,,,,,,,,,,,bars/014.png,bars/mask005.png,,,,,,,,,,,,0,2,,,,,,,10,10,10,9,,,,,,,,,,,4452.7599,4453.2604,4453.5111,4456.4304,space,2.9046,,4456.4305,49,31,4457.4308,4457.4309,4457.4445,,,,0,39,39,39,1,80,0,,,,,,,,
,,61768a49d07402e9dc818469,65af5661db6f3bf0e8762320,2024-01-23_08h11.29.384,bars,2023.2.3,Win32,60.24096386,657b66ea316d21385b68909f,,,,,,,,,,,4457.4449,4458.4491,,,4458.9493,4459.1995,,85,85,,,,,,,,,,,,,,,,bars/046.png,bars/mask002.png,,,,,,,,,,,,8,2,,,,,,,10,8,9,8,,,,,,,,,,,4458.4491,4458.9493,4459.1996,4470.385,space,11.1757,,4470.3855,70,0,4471.3841,4471.3842,4471.3998,,,,0,40,40,40,1,155,85,,,,,,,,
,,61768a49d07402e9dc818469,65af5661db6f3bf0e8762320,2024-01-23_08h11.29.384,bars,2023.2.3,Win32,60.24096386,657b66ea316d21385b68909f,,,,,,,,,,,4471.4003,4472.4028,,,4472.9028,4473.1531,,1,1,,,,,,,,,,,,,,,,bars/048.png,bars/mask000.png,,,,,,,,,,,,6,2,,,,,,,8,6,7,7,,,,,,,,,,,4472.4031,4472.9027,4473.1533,4476.7751,space,3.6058,,4476.7751,49,6,4477.7693,4477.7693,4477.7822,,,,0,41,41,41,1,50,175,,,,,,,,
,,61768a49d07402e9dc818469,65af5661db6f3bf0e8762320,2024-01-23_08h11.29.384,bars,2023.2.3,Win32,60.24096386,657b66ea316d21385b68909f,,,,,,,,,,,4477.7827,4478.7749,,,4479.2759,4479.5266,,144,-36,,,,,,,,,,,,,,,,bars/018.png,bars/mask007.png,,,,,,,,,,,,8,1,,,,,,,10,4,10,3,,,,,,,,,,,4478.7749,4479.2759,4479.5266,4483.9489,space,4.4061,,4483.949,6,54,4484.9459,4484.9459,4484.9627,,,,0,42,42,42,1,150,90,,,,,,,,
,,61768a49d07402e9dc818469,65af5661db6f3bf0e8762320,2024-01-23_08h11.29.384,bars,2023.2.3,Win32,60.24096386,657b66ea316d21385b68909f,,,,,,,,,,,4484.963,4485.9653,,,4486.4663,4486.7174,,117,117,,,,,,,,,,,,,,,,bars/025.png,bars/mask004.png,,,,,,,,,,,,6,1,,,,,,,10,6,10,6,,,,,,,,,,,4485.9654,4486.4662,4486.7177,4490.8717,space,4.1391,,4490.8717,12,77,4491.8712,4491.8712,4491.8864,,,,0,43,43,43,1,105,40,,,,,,,,
,,61768a49d07402e9dc818469,65af5661db6f3bf0e8762320,2024-01-23_08h11.29.384,bars,2023.2.3,Win32,60.24096386,657b66ea316d21385b68909f,,,,,,,,,,,4491.8869,4492.8891,,,4493.3887,4493.6397,,9,189,,,,,,,,,,,,,,,,bars/016.png,bars/mask003.png,,,,,,,,,,,,1,2,,,,,,,10,4,9,5,,,,,,,,,,,4492.8891,4493.3885,4493.6398,4496.394,space,2.7376,,4496.3941,31,24,4497.389,4497.3891,4497.4056,,,,0,44,44,44,1,40,165,,,,,,,,
,,61768a49d07402e9dc818469,65af5661db6f3bf0e8762320,2024-01-23_08h11.29.384,bars,2023.2.3,Win32,60.24096386,657b66ea316d21385b68909f,,,,,,,,,,,4497.4065,4498.3946,,,4498.895,4499.1453,,39,39,,,,,,,,,,,,,,,,bars/007.png,bars/mask005.png,,,,,,,,,,,,0,2,,,,,,,8,2,7,0,,,,,,,,,,,4498.3947,4498.895,4499.1454,4505.2197,space,6.0577,,4505.2197,44,16,4506.2171,4506.2172,4506.2348,,,,0,45,45,45,1,175,55,,,,,,,,
,,61768a49d07402e9dc818469,65af5661db6f3bf0e8762320,2024-01-23_08h11.29.384,bars,2023.2.3,Win32,60.24096386,657b66ea316d21385b68909f,,,,,,,,,,,4506.2359,4507.2371,,,4507.7368,4507.9885,,134,134,,,,,,,,,,,,,,,,bars/037.png,bars/mask006.png,,,,,,,,,,,,2,1,,,,,,,6,4,4,4,,,,,,,,,,,4507.2371,4507.7367,4507.9885,4510.6106,space,2.6068,,4510.6106,16,29,4511.6076,4511.6076,4511.6245,,,,0,46,46,46,1,150,105,,,,,,,,
,,61768a49d07402e9dc818469,65af5661db6f3bf0e8762320,2024-01-23_08h11.29.384,bars,2023.2.3,Win32,60.24096386,657b66ea316d21385b68909f,,,,,,,,,,,4511.6248,4512.6125,,,4513.1097,4513.36,,67,67,,,,,,,,,,,,,,,,bars/030.png,bars/mask006.png,,,,,,,,,,,,1,2,,,,,,,8,2,9,1,,,,,,,,,,,4512.6127,4513.1097,4513.3601,4516.6477,space,3.2715,,4516.6478,73,2,4517.6472,4517.6473,4517.6634,,,,0,47,47,47,1,140,65,,,,,,,,
,,61768a49d07402e9dc818469,65af5661db6f3bf0e8762320,2024-01-23_08h11.29.384,bars,2023.2.3,Win32,60.24096386,657b66ea316d21385b68909f,,,,,,,,,,,4517.6638,4518.6651,,,4519.1657,4519.4153,,74,74,,,,,,,,,,,,,,,,bars/049.png,bars/mask007.png,,,,,,,,,,,,0,2,,,,,,,10,0,10,0,,,,,,,,,,,4518.6652,4519.1656,4519.4155,4521.8857,space,2.4536,,4521.8858,86,41,4522.8856,4522.8857,4522.9008,,,,0,48,48,48,1,160,115,,,,,,,,
,,61768a49d07402e9dc818469,65af5661db6f3bf0e8762320,2024-01-23_08h11.29.384,bars,2023.2.3,Win32,60.24096386,657b66ea316d21385b68909f,,,,,,,,,,,4522.9013,4523.9035,,,4524.4045,4524.6546,,20,20,,,,,,,,,,,,,,,,bars/031.png,bars/mask005.png,,,,,,,,,,,,2,2,,,,,,,10,2,10,3,,,,,,,,,,,4523.9036,4524.4045,4524.6549,4527.0248,space,2.354,,4527.0251,80,15,4528.0242,4528.0243,4528.0269,,,,0,49,49,49,1,120,35,,,,,,,,
,,61768a49d07402e9dc818469,65af5661db6f3bf0e8762320,2024-01-23_08h11.29.384,bars,2023.2.3,Win32,60.24096386,657b66ea316d21385b68909f,,,,,,,,,,,,,,,,,,,,,,,,,,,,,,,,,,,,,,,,,,,,,,,,,,,,,,,,,,,,,,,,,,,,,,,,,,,,,,,,,,,,,,,,,,,,,4528.0273,4588.0278,0,3,3,0,1,sequence_tables/blk024.csv
,,61768a49d07402e9dc818469,65af5661db6f3bf0e8762320,2024-01-23_08h11.29.384,bars,2023.2.3,Win32,60.24096386,657b66ea316d21385b68909f,,,,,,,,,,,4599.2123,4600.1955,,,4600.6967,4600.9463,,140,140,,,,,,,,,,,,,,,,bars/018.png,bars/mask005.png,,,,,,,,,,,,7,1,,,,,,,9,7,10,7,,,,,,4588.0425,4599.1916,space,11.139,,4600.1956,4600.6967,4600.9464,4604.9527,space,3.9891,,4604.9531,10,50,4605.952,4605.9521,4605.968,,,,0,0,0,0,1,150,90,,,,,,,,
,,61768a49d07402e9dc818469,65af5661db6f3bf0e8762320,2024-01-23_08h11.29.384,bars,2023.2.3,Win32,60.24096386,657b66ea316d21385b68909f,,,,,,,,,,,4605.9685,4606.9687,,,4607.47,4607.7203,,1,1,,,,,,,,,,,,,,,,bars/038.png,bars/mask001.png,,,,,,,,,,,,3,1,,,,,,,7,5,7,4,,,,,,,,,,,4606.969,4607.47,4607.7204,4609.9409,space,2.2042,,4609.9411,16,69,4610.939,4610.9391,4610.9416,,,,0,1,1,1,1,165,70,,,,,,,,
,,61768a49d07402e9dc818469,65af5661db6f3bf0e8762320,2024-01-23_08h11.29.384,bars,2023.2.3,Win32,60.24096386,657b66ea316d21385b68909f,,,,,,,,,,,4610.9421,4611.9409,,,4612.4372,4612.675,,27,207,,,,,,,,,,,,,,,,bars/002.png,bars/mask001.png,,,,,,,,,,,,0,2,,,,,,,5,7,3,7,,,,,,,,,,,4611.941,4612.4372,4612.6751,4614.928,space,2.2363,,4614.9283,77,58,4615.928,4615.9281,4615.945,,,,0,2,2,2,1,130,85,,,,,,,,
,,61768a49d07402e9dc818469,65af5661db6f3bf0e8762320,2024-01-23_08h11.29.384,bars,2023.2.3,Win32,60.24096386,657b66ea316d21385b68909f,,,,,,,,,,,4615.9455,4616.9461,,,4617.4461,4617.697,,107,107,,,,,,,,,,,,,,,,bars/046.png,bars/mask004.png,,,,,,,,,,,,2,2,,,,,,,7,5,6,6,,,,,,,,,,,4616.9463,4617.4461,4617.6971,4621.5693,space,3.8556,,4621.5694,48,22,4622.5683,4622.5685,4622.5828,,,,0,3,3,3,1,155,85,,,,,,,,
,,61768a49d07402e9dc818469,65af5661db6f3bf0e8762320,2024-01-23_08h11.29.384,bars,2023.2.3,Win32,60.24096386,657b66ea316d21385b68909f,,,,,,,,,,,4622.5832,4623.5858,,,4624.0807,4624.337,,146,146,,,,,,,,,,,,,,,,bars/033.png,bars/mask009.png,,,,,,,,,,,,5,2,,,,,,,9,7,9,7,,,,,,,,,,,4623.586,4624.0806,4624.3372,4660.6671,space,36.3082,,4660.6674,59,9,4661.6676,4661.6677,4661.6827,,,,0,4,4,4,1,25,155,,,,,,,,
,,61768a49d07402e9dc818469,65af5661db6f3bf0e8762320,2024-01-23_08h11.29.384,bars,2023.2.3,Win32,60.24096386,657b66ea316d21385b68909f,,,,,,,,,,,4661.6839,4662.6859,,,4663.1859,4663.4361,,57,57,,,,,,,,,,,,,,,,bars/007.png,bars/mask002.png,,,,,,,,,,,,5,2,,,,,,,7,5,6,5,,,,,,,,,,,4662.686,4663.1859,4663.4361,4665.0881,space,1.636,,4665.0883,62,2,4666.0888,4666.0889,4666.1031,,,,0,5,5,5,1,175,55,,,,,,,,
,,61768a49d07402e9dc818469,65af5661db6f3bf0e8762320,2024-01-23_08h11.29.384,bars,2023.2.3,Win32,60.24096386,657b66ea316d21385b68909f,,,,,,,,,,,4666.1036,4667.1065,,,4667.6068,4667.8569,,40,40,,,,,,,,,,,,,,,,bars/018.png,bars/mask008.png,,,,,,,,,,,,0,2,,,,,,,5,3,5,3,,,,,,,,,,,4667.1066,4667.6067,4667.8569,4671.1437,space,3.2708,,4671.1438,70,50,4672.1448,4672.1449,4672.1583,,,,0,6,6,6,1,150,90,,,,,,,,
,,61768a49d07402e9dc818469,65af5661db6f3bf0e8762320,2024-01-23_08h11.29.384,bars,2023.2.3,Win32,60.24096386,657b66ea316d21385b68909f,,,,,,,,,,,4672.1587,4673.163,,,4673.663,4673.9132,,59,59,,,,,,,,,,,,,,,,bars/042.png,bars/mask006.png,,,,,,,,,,,,1,2,,,,,,,7,1,7,2,,,,,,,,,,,4673.1632,4673.663,4673.9133,4680.6375,space,6.7142,,4680.6376,86,16,4681.6375,4681.6376,4681.6525,,,,0,7,7,7,1,145,75,,,,,,,,
,,61768a49d07402e9dc818469,65af5661db6f3bf0e8762320,2024-01-23_08h11.29.384,bars,2023.2.3,Win32,60.24096386,657b66ea316d21385b68909f,,,,,,,,,,,4681.6536,4682.656,,,4683.1558,4683.4061,,165,165,,,,,,,,,,,,,,,,bars/013.png,bars/mask000.png,,,,,,,,,,,,0,2,,,,,,,9,3,9,3,,,,,,,,,,,4682.6561,4683.1557,4683.4062,4695.3542,space,11.9379,,4695.3544,90,25,4696.3525,4696.3526,4696.3688,,,,0,8,8,8,1,75,10,,,,,,,,
,,61768a49d07402e9dc818469,65af5661db6f3bf0e8762320,2024-01-23_08h11.29.384,bars,2023.2.3,Win32,60.24096386,657b66ea316d21385b68909f,,,,,,,,,,,4696.3692,4697.3764,,,4697.8768,4698.1243,,53,53,,,,,,,,,,,,,,,,bars/040.png,bars/mask007.png,,,,,,,,,,,,0,2,,,,,,,10,5,10,8,,,,,,,,,,,4697.3765,4697.8767,4698.1244,4702.0487,space,3.9051,,4702.0492,87,48,4703.0434,4703.0435,4703.0578,,,,0,9,9,9,1,140,5,,,,,,,,
,,61768a49d07402e9dc818469,65af5661db6f3bf0e8762320,2024-01-23_08h11.29.384,bars,2023.2.3,Win32,60.24096386,657b66ea316d21385b68909f,,,,,,,,,,,4703.0588,4704.0494,,,4704.5498,4704.7995,,45,45,,,,,,,,,,,,,,,,bars/035.png,bars/mask000.png,,,,,,,,,,,,3,2,,,,,,,8,7,7,5,,,,,,,,,,,4704.0495,4704.5498,4704.7996,4707.4542,space,2.638,,4707.4543,50,15,4708.4482,4708.4484,4708.4512,,,,0,10,10,10,1,175,60,,,,,,,,
