init_variables.started,init_variables.stopped,participant,session,date,expName,psychopyVersion,OS,frameRate,study_id,instruction_exp.started,instruction_exp.stopped,key_resp_8.keys,key_resp_8.rt,key_resp_8.duration,instruction_single.started,instruction_single.stopped,key_resp_2.keys,key_resp_2.rt,key_resp_2.duration,interval.started,interval.stopped,cue_single.started,cue_single.stopped,mask.started,mask.stopped,ori_response_single.started,res_ori,res,ori_response_single.stopped,key_resp_single.keys,key_resp_single.rt,key_resp_single.duration,disp_single.started,disp_single.stopped,key_resp.keys,key_resp.rt,key_resp.duration,single.thisRepN,single.thisTrialN,single.thisN,single.thisIndex,single.ran,ori,path,mask_path,instruction_bandit.started,instruction_bandit.stopped,key_resp_6.keys,key_resp_6.rt,key_resp_6.duration,cue_bandit.started,cue_bandit.stopped,bandit_res.keys,bandit_res.rt,bandit_res.duration,outcome_bandit.started,rew,action,outcome_bandit.stopped,bandit.thisRepN,bandit.thisTrialN,bandit.thisN,bandit.thisIndex,bandit.ran,actual_rew1,actual_rew2,rew1,rew2,instruction_task.started,instruction_task.stopped,key_resp_7.keys,key_resp_7.rt,key_resp_7.duration,wait_ready.started,wait_ready.stopped,key_resp_3.keys,key_resp_3.rt,key_resp_3.duration,cue.started,cue.stopped,ori_response.started,ori_response.stopped,key_resp_5.keys,key_resp_5.rt,key_resp_5.duration,outcome.started,diff1,diff2,outcome.stopped,disp_outcome_practice.started,disp_outcome_practice.stopped,key_resp_4.keys,key_resp_4.rt,key_resp_4.duration,trials.thisRepN,trials.thisTrialN,trials.thisN,trials.thisIndex,trials.ran,ori1,ori2,break_blk.started,break_blk.stopped,block.thisRepN,block.thisTrialN,block.thisN,block.thisIndex,block.ran,condition_file
0,0,64afa022cb6d2497bf0a9950,65af625aebaa6ae4e2c757f8,2024-01-23_07h54.21.831,bars,2023.2.3,MacIntel,60.0240096,657b66ea316d21385b68909f,,,,,,,,,,,,,,,,,,,,,,,,,,,,,,,,,,,,,,,,,,,,,,,,,,,,,,,,,,,,,,,,,,,,,,,,,,,,,,,,,,,,,,,,,,,,,,,,,,,,
,,64afa022cb6d2497bf0a9950,65af625aebaa6ae4e2c757f8,2024-01-23_07h54.21.831,bars,2023.2.3,MacIntel,60.0240096,657b66ea316d21385b68909f,0,6.483,y,6.464,,,,,,,,,,,,,,,,,,,,,,,,,,,,,,,,,,,,,,,,,,,,,,,,,,,,,,,,,,,,,,,,,,,,,,,,,,,,,,,,,,,,,,,,,,,,,,,,
,,64afa022cb6d2497bf0a9950,65af625aebaa6ae4e2c757f8,2024-01-23_07h54.21.831,bars,2023.2.3,MacIntel,60.0240096,657b66ea316d21385b68909f,,,,,,6.483,20.198,space,13.673,,,,,,,,,,,,,,,,,,,,,,,,,,,,,,,,,,,,,,,,,,,,,,,,,,,,,,,,,,,,,,,,,,,,,,,,,,,,,,,,,,,,,,,,,,,
,,64afa022cb6d2497bf0a9950,65af625aebaa6ae4e2c757f8,2024-01-23_07h54.21.831,bars,2023.2.3,MacIntel,60.0240096,657b66ea316d21385b68909f,,,,,,,,,,,20.203,21.196,21.196,21.698,21.698,21.949,21.949,7,7,24.933,space,2.949,,24.933,29.867,space,4.902,,0,0,0,9,1,20,bars/single009.png,bars/mask006.png,,,,,,,,,,,,,,,,,,,,,,,,,,,,,,,,,,,,,,,,,,,,,,,,,,,,,,,,,,,,,,,,
,,64afa022cb6d2497bf0a9950,65af625aebaa6ae4e2c757f8,2024-01-23_07h54.21.831,bars,2023.2.3,MacIntel,60.0240096,657b66ea316d21385b68909f,,,,,,,,,,,29.87,30.867,30.867,31.366,31.366,31.616,31.616,165,-15,38.448,space,6.816,,38.448,41.682,space,3.218,,0,1,1,8,1,160,bars/single008.png,bars/mask004.png,,,,,,,,,,,,,,,,,,,,,,,,,,,,,,,,,,,,,,,,,,,,,,,,,,,,,,,,,,,,,,,,
,,64afa022cb6d2497bf0a9950,65af625aebaa6ae4e2c757f8,2024-01-23_07h54.21.831,bars,2023.2.3,MacIntel,60.0240096,657b66ea316d21385b68909f,,,,,,,,,,,41.682,42.68,42.68,43.182,43.182,43.432,43.433,41,41,47.714,space,4.266,,47.714,49.263,space,1.534,,0,2,2,7,1,45,bars/single007.png,bars/mask009.png,,,,,,,,,,,,,,,,,,,,,,,,,,,,,,,,,,,,,,,,,,,,,,,,,,,,,,,,,,,,,,,,
,,64afa022cb6d2497bf0a9950,65af625aebaa6ae4e2c757f8,2024-01-23_07h54.21.831,bars,2023.2.3,MacIntel,60.0240096,657b66ea316d21385b68909f,,,,,,,,,,,49.264,50.266,50.266,50.765,50.765,51.016,51.016,30,30,56.198,space,5.168,,56.198,57.7,space,1.484,,0,3,3,3,1,20,bars/single003.png,bars/mask005.png,,,,,,,,,,,,,,,,,,,,,,,,,,,,,,,,,,,,,,,,,,,,,,,,,,,,,,,,,,,,,,,,
,,64afa022cb6d2497bf0a9950,65af625aebaa6ae4e2c757f8,2024-01-23_07h54.21.831,bars,2023.2.3,MacIntel,60.0240096,657b66ea316d21385b68909f,,,,,,,,,,,57.701,58.698,58.698,59.199,59.2,59.449,59.449,0,180,66.932,space,7.466,,66.932,68.265,space,1.32,,0,4,4,6,1,175,bars/single006.png,bars/mask005.png,,,,,,,,,,,,,,,,,,,,,,,,,,,,,,,,,,,,,,,,,,,,,,,,,,,,,,,,,,,,,,,,
,,64afa022cb6d2497bf0a9950,65af625aebaa6ae4e2c757f8,2024-01-23_07h54.21.831,bars,2023.2.3,MacIntel,60.0240096,657b66ea316d21385b68909f,,,,,,,,,,,68.266,69.265,69.265,69.766,69.766,70.016,70.016,136,-44,78.012,space,7.984,,78.012,79.498,space,1.467,,0,5,5,0,1,150,bars/single000.png,bars/mask006.png,,,,,,,,,,,,,,,,,,,,,,,,,,,,,,,,,,,,,,,,,,,,,,,,,,,,,,,,,,,,,,,,
,,64afa022cb6d2497bf0a9950,65af625aebaa6ae4e2c757f8,2024-01-23_07h54.21.831,bars,2023.2.3,MacIntel,60.0240096,657b66ea316d21385b68909f,,,,,,,,,,,79.499,80.499,80.499,80.998,80.998,81.249,81.249,90,90,82.365,space,1.102,,82.365,83.283,space,0.899,,0,6,6,4,1,95,bars/single004.png,bars/mask004.png,,,,,,,,,,,,,,,,,,,,,,,,,,,,,,,,,,,,,,,,,,,,,,,,,,,,,,,,,,,,,,,,
,,64afa022cb6d2497bf0a9950,65af625aebaa6ae4e2c757f8,2024-01-23_07h54.21.831,bars,2023.2.3,MacIntel,60.0240096,657b66ea316d21385b68909f,,,,,,,,,,,83.283,84.282,84.282,84.781,84.781,85.032,85.032,45,45,86.648,space,1.604,,86.648,87.48,space,0.821,,0,7,7,5,1,55,bars/single005.png,bars/mask008.png,,,,,,,,,,,,,,,,,,,,,,,,,,,,,,,,,,,,,,,,,,,,,,,,,,,,,,,,,,,,,,,,
,,64afa022cb6d2497bf0a9950,65af625aebaa6ae4e2c757f8,2024-01-23_07h54.21.831,bars,2023.2.3,MacIntel,60.0240096,657b66ea316d21385b68909f,,,,,,,,,,,87.48,88.484,88.485,88.982,88.982,89.233,89.233,119,119,96.832,space,7.582,,96.832,97.549,space,0.7,,0,8,8,2,1,145,bars/single002.png,bars/mask003.png,,,,,,,,,,,,,,,,,,,,,,,,,,,,,,,,,,,,,,,,,,,,,,,,,,,,,,,,,,,,,,,,
,,64afa022cb6d2497bf0a9950,65af625aebaa6ae4e2c757f8,2024-01-23_07h54.21.831,bars,2023.2.3,MacIntel,60.0240096,657b66ea316d21385b68909f,,,,,,,,,,,97.55,98.55,98.55,99.046,99.046,99.299,99.3,5,185,104.948,space,5.634,,104.948,106.165,space,1.198,,0,9,9,1,1,20,bars/single001.png,bars/mask006.png,,,,,,,,,,,,,,,,,,,,,,,,,,,,,,,,,,,,,,,,,,,,,,,,,,,,,,,,,,,,,,,,
,,64afa022cb6d2497bf0a9950,65af625aebaa6ae4e2c757f8,2024-01-23_07h54.21.831,bars,2023.2.3,MacIntel,60.0240096,657b66ea316d21385b68909f,,,,,,,,,,,,,,,,,,,,,,,,,,,,,,,,,,,,,106.166,113.116,space,6.904,,,,,,,,,,,,,,,,,,,,,,,,,,,,,,,,,,,,,,,,,,,,,,,,,,,,,,,,,,,,
,,64afa022cb6d2497bf0a9950,65af625aebaa6ae4e2c757f8,2024-01-23_07h54.21.831,bars,2023.2.3,MacIntel,60.0240096,657b66ea316d21385b68909f,,,,,,,,,,,,,,,,,,,,,,,,,,,,,,,,,,,,,,,,,,113.119,118.398,right,5.253,,118.398,2,2,119.401,0,0,0,0,1,9,1,9,2,,,,,,,,,,,,,,,,,,,,,,,,,,,,,,,,,,,,,,,,,
,,64afa022cb6d2497bf0a9950,65af625aebaa6ae4e2c757f8,2024-01-23_07h54.21.831,bars,2023.2.3,MacIntel,60.0240096,657b66ea316d21385b68909f,,,,,,,,,,,,,,,,,,,,,,,,,,,,,,,,,,,,,,,,,,119.406,121.265,right,1.843,,121.265,1,2,122.266,0,1,1,1,1,10,0,10,1,,,,,,,,,,,,,,,,,,,,,,,,,,,,,,,,,,,,,,,,,
,,64afa022cb6d2497bf0a9950,65af625aebaa6ae4e2c757f8,2024-01-23_07h54.21.831,bars,2023.2.3,MacIntel,60.0240096,657b66ea316d21385b68909f,,,,,,,,,,,,,,,,,,,,,,,,,,,,,,,,,,,,,,,,,,122.267,122.764,left,0.485,,122.764,10,1,123.766,0,2,2,2,1,10,2,10,2,,,,,,,,,,,,,,,,,,,,,,,,,,,,,,,,,,,,,,,,,
,,64afa022cb6d2497bf0a9950,65af625aebaa6ae4e2c757f8,2024-01-23_07h54.21.831,bars,2023.2.3,MacIntel,60.0240096,657b66ea316d21385b68909f,,,,,,,,,,,,,,,,,,,,,,,,,,,,,,,,,,,,,,,,,,123.767,124.28,left,0.5,,124.28,7,1,125.28,0,3,3,3,1,8,4,7,3,,,,,,,,,,,,,,,,,,,,,,,,,,,,,,,,,,,,,,,,,
,,64afa022cb6d2497bf0a9950,65af625aebaa6ae4e2c757f8,2024-01-23_07h54.21.831,bars,2023.2.3,MacIntel,60.0240096,657b66ea316d21385b68909f,,,,,,,,,,,,,,,,,,,,,,,,,,,,,,,,,,,,,,,,,,125.281,125.632,right,0.332,,125.632,1,2,126.632,0,4,4,4,1,6,2,5,1,,,,,,,,,,,,,,,,,,,,,,,,,,,,,,,,,,,,,,,,,
,,64afa022cb6d2497bf0a9950,65af625aebaa6ae4e2c757f8,2024-01-23_07h54.21.831,bars,2023.2.3,MacIntel,60.0240096,657b66ea316d21385b68909f,,,,,,,,,,,,,,,,,,,,,,,,,,,,,,,,,,,,,,,,,,126.633,126.949,left,0.303,,126.949,4,1,127.949,0,5,5,5,1,4,4,4,4,,,,,,,,,,,,,,,,,,,,,,,,,,,,,,,,,,,,,,,,,
,,64afa022cb6d2497bf0a9950,65af625aebaa6ae4e2c757f8,2024-01-23_07h54.21.831,bars,2023.2.3,MacIntel,60.0240096,657b66ea316d21385b68909f,,,,,,,,,,,,,,,,,,,,,,,,,,,,,,,,,,,,,,,,,,127.949,128.213,left,0.251,,128.213,1,1,129.216,0,6,6,6,1,2,2,1,2,,,,,,,,,,,,,,,,,,,,,,,,,,,,,,,,,,,,,,,,,
,,64afa022cb6d2497bf0a9950,65af625aebaa6ae4e2c757f8,2024-01-23_07h54.21.831,bars,2023.2.3,MacIntel,60.0240096,657b66ea316d21385b68909f,,,,,,,,,,,,,,,,,,,,,,,,,,,,,,,,,,,,,,,,,,129.216,129.499,right,0.269,,129.499,1,2,130.5,0,7,7,7,1,0,0,0,1,,,,,,,,,,,,,,,,,,,,,,,,,,,,,,,,,,,,,,,,,
,,64afa022cb6d2497bf0a9950,65af625aebaa6ae4e2c757f8,2024-01-23_07h54.21.831,bars,2023.2.3,MacIntel,60.0240096,657b66ea316d21385b68909f,,,,,,,,,,,,,,,,,,,,,,,,,,,,,,,,,,,,,,,,,,130.5,130.716,right,0.2,,130.716,0,2,131.713,0,8,8,8,1,0,2,1,0,,,,,,,,,,,,,,,,,,,,,,,,,,,,,,,,,,,,,,,,,
,,64afa022cb6d2497bf0a9950,65af625aebaa6ae4e2c757f8,2024-01-23_07h54.21.831,bars,2023.2.3,MacIntel,60.0240096,657b66ea316d21385b68909f,,,,,,,,,,,,,,,,,,,,,,,,,,,,,,,,,,,,,,,,,,131.713,131.966,left,0.24,,131.966,2,1,132.962,0,9,9,9,1,2,4,2,3,,,,,,,,,,,,,,,,,,,,,,,,,,,,,,,,,,,,,,,,,
,,64afa022cb6d2497bf0a9950,65af625aebaa6ae4e2c757f8,2024-01-23_07h54.21.831,bars,2023.2.3,MacIntel,60.0240096,657b66ea316d21385b68909f,,,,,,,,,,,,,,,,,,,,,,,,,,,,,,,,,,,,,,,,,,132.962,133.147,right,0.169,,133.147,3,2,134.148,0,10,10,10,1,0,2,0,3,,,,,,,,,,,,,,,,,,,,,,,,,,,,,,,,,,,,,,,,,
,,64afa022cb6d2497bf0a9950,65af625aebaa6ae4e2c757f8,2024-01-23_07h54.21.831,bars,2023.2.3,MacIntel,60.0240096,657b66ea316d21385b68909f,,,,,,,,,,,,,,,,,,,,,,,,,,,,,,,,,,,,,,,,,,134.148,134.281,left,0.119,,134.281,0,1,135.282,0,11,11,11,1,0,4,0,3,,,,,,,,,,,,,,,,,,,,,,,,,,,,,,,,,,,,,,,,,
,,64afa022cb6d2497bf0a9950,65af625aebaa6ae4e2c757f8,2024-01-23_07h54.21.831,bars,2023.2.3,MacIntel,60.0240096,657b66ea316d21385b68909f,,,,,,,,,,,,,,,,,,,,,,,,,,,,,,,,,,,,,,,,,,135.282,135.717,left,0.415,,135.717,1,1,136.714,0,12,12,12,1,2,6,1,6,,,,,,,,,,,,,,,,,,,,,,,,,,,,,,,,,,,,,,,,,
,,64afa022cb6d2497bf0a9950,65af625aebaa6ae4e2c757f8,2024-01-23_07h54.21.831,bars,2023.2.3,MacIntel,60.0240096,657b66ea316d21385b68909f,,,,,,,,,,,,,,,,,,,,,,,,,,,,,,,,,,,,,,,,,,136.714,136.915,right,0.189,,136.915,3,2,137.915,0,13,13,13,1,0,4,1,3,,,,,,,,,,,,,,,,,,,,,,,,,,,,,,,,,,,,,,,,,
,,64afa022cb6d2497bf0a9950,65af625aebaa6ae4e2c757f8,2024-01-23_07h54.21.831,bars,2023.2.3,MacIntel,60.0240096,657b66ea316d21385b68909f,,,,,,,,,,,,,,,,,,,,,,,,,,,,,,,,,,,,,,,,,,137.915,138.033,right,0.101,,138.033,7,2,139.03,0,14,14,14,1,2,6,2,7,,,,,,,,,,,,,,,,,,,,,,,,,,,,,,,,,,,,,,,,,
,,64afa022cb6d2497bf0a9950,65af625aebaa6ae4e2c757f8,2024-01-23_07h54.21.831,bars,2023.2.3,MacIntel,60.0240096,657b66ea316d21385b68909f,,,,,,,,,,,,,,,,,,,,,,,,,,,,,,,,,,,,,,,,,,139.03,139.265,left,0.218,,139.265,3,1,140.265,0,15,15,15,1,4,8,3,9,,,,,,,,,,,,,,,,,,,,,,,,,,,,,,,,,,,,,,,,,
,,64afa022cb6d2497bf0a9950,65af625aebaa6ae4e2c757f8,2024-01-23_07h54.21.831,bars,2023.2.3,MacIntel,60.0240096,657b66ea316d21385b68909f,,,,,,,,,,,,,,,,,,,,,,,,,,,,,,,,,,,,,,,,,,140.266,140.499,right,0.217,,140.499,7,2,141.499,0,16,16,16,1,6,6,7,7,,,,,,,,,,,,,,,,,,,,,,,,,,,,,,,,,,,,,,,,,
,,64afa022cb6d2497bf0a9950,65af625aebaa6ae4e2c757f8,2024-01-23_07h54.21.831,bars,2023.2.3,MacIntel,60.0240096,657b66ea316d21385b68909f,,,,,,,,,,,,,,,,,,,,,,,,,,,,,,,,,,,,,,,,,,141.499,141.716,left,0.2,,141.716,9,1,142.716,0,17,17,17,1,8,4,9,5,,,,,,,,,,,,,,,,,,,,,,,,,,,,,,,,,,,,,,,,,
,,64afa022cb6d2497bf0a9950,65af625aebaa6ae4e2c757f8,2024-01-23_07h54.21.831,bars,2023.2.3,MacIntel,60.0240096,657b66ea316d21385b68909f,,,,,,,,,,,,,,,,,,,,,,,,,,,,,,,,,,,,,,,,,,142.717,142.929,right,0.199,,142.929,1,2,143.931,0,18,18,18,1,6,2,5,1,,,,,,,,,,,,,,,,,,,,,,,,,,,,,,,,,,,,,,,,,
,,64afa022cb6d2497bf0a9950,65af625aebaa6ae4e2c757f8,2024-01-23_07h54.21.831,bars,2023.2.3,MacIntel,60.0240096,657b66ea316d21385b68909f,,,,,,,,,,,,,,,,,,,,,,,,,,,,,,,,,,,,,,,,,,143.932,144.114,left,0.171,,144.114,7,1,145.115,0,19,19,19,1,8,0,7,0,,,,,,,,,,,,,,,,,,,,,,,,,,,,,,,,,,,,,,,,,
,,64afa022cb6d2497bf0a9950,65af625aebaa6ae4e2c757f8,2024-01-23_07h54.21.831,bars,2023.2.3,MacIntel,60.0240096,657b66ea316d21385b68909f,,,,,,,,,,,,,,,,,,,,,,,,,,,,,,,,,,,,,,,,,,,,,,,,,,,,,,,,,,,,145.116,157.333,space,12.171,,,,,,,,,,,,,,,,,,,,,,,,,,,,,,,,,,,,,
,,64afa022cb6d2497bf0a9950,65af625aebaa6ae4e2c757f8,2024-01-23_07h54.21.831,bars,2023.2.3,MacIntel,60.0240096,657b66ea316d21385b68909f,,,,,,,,,,,158.119,159.115,,,159.616,159.863,,63,63,,,,,,,,,,,,,,,,bars/006.png,bars/mask006.png,,,,,,,,,,,,0,1,,,,,,,4,7,3,7,,,,,,157.339,158.116,space,0.75,,159.115,159.616,159.863,167.933,space,8.033,,167.933,28,37,168.932,168.932,174.381,space,5.407,,0,0,0,0,1,35,100,,,,,,,,
,,64afa022cb6d2497bf0a9950,65af625aebaa6ae4e2c757f8,2024-01-23_07h54.21.831,bars,2023.2.3,MacIntel,60.0240096,657b66ea316d21385b68909f,,,,,,,,,,,174.382,175.382,,,175.883,176.132,,117,117,,,,,,,,,,,,,,,,bars/026.png,bars/mask009.png,,,,,,,,,,,,0,2,,,,,,,6,5,7,5,,,,,,,,,,,175.382,175.883,176.132,178.931,space,2.782,,178.932,82,32,179.932,179.932,181.065,space,1.11,,0,1,1,1,1,35,85,,,,,,,,
,,64afa022cb6d2497bf0a9950,65af625aebaa6ae4e2c757f8,2024-01-23_07h54.21.831,bars,2023.2.3,MacIntel,60.0240096,657b66ea316d21385b68909f,,,,,,,,,,,181.065,182.067,,,182.565,182.815,,50,50,,,,,,,,,,,,,,,,bars/025.png,bars/mask000.png,,,,,,,,,,,,3,2,,,,,,,4,3,4,4,,,,,,,,,,,182.068,182.565,182.815,186.063,space,3.235,,186.063,55,10,187.065,187.065,190.233,space,3.148,,0,2,2,2,1,105,40,,,,,,,,
,,64afa022cb6d2497bf0a9950,65af625aebaa6ae4e2c757f8,2024-01-23_07h54.21.831,bars,2023.2.3,MacIntel,60.0240096,657b66ea316d21385b68909f,,,,,,,,,,,190.234,191.229,,,191.732,191.98,,89,89,,,,,,,,,,,,,,,,bars/022.png,bars/mask001.png,,,,,,,,,,,,2,1,,,,,,,2,5,2,5,,,,,,,,,,,191.229,191.732,191.98,194.282,space,2.285,,194.282,6,69,195.282,195.282,197.496,space,2.194,,0,3,3,3,1,95,20,,,,,,,,
,,64afa022cb6d2497bf0a9950,65af625aebaa6ae4e2c757f8,2024-01-23_07h54.21.831,bars,2023.2.3,MacIntel,60.0240096,657b66ea316d21385b68909f,,,,,,,,,,,197.496,198.497,,,198.999,199.248,,173,-7,,,,,,,,,,,,,,,,bars/035.png,bars/mask006.png,,,,,,,,,,,,1,1,,,,,,,0,3,1,4,,,,,,,,,,,198.497,198.999,199.248,207.916,space,8.651,,207.916,2,67,208.916,208.916,211.764,space,2.832,,0,4,4,4,1,175,60,,,,,,,,
,,64afa022cb6d2497bf0a9950,65af625aebaa6ae4e2c757f8,2024-01-23_07h54.21.831,bars,2023.2.3,MacIntel,60.0240096,657b66ea316d21385b68909f,,,,,,,,,,,211.765,212.765,,,213.266,213.516,,1,181,,,,,,,,,,,,,,,,bars/014.png,bars/mask009.png,,,,,,,,,,,,2,2,,,,,,,0,5,0,2,,,,,,,,,,,212.765,213.266,213.516,221.734,space,8.198,,221.734,79,1,222.73,222.73,224.215,space,1.466,,0,5,5,5,1,80,0,,,,,,,,
,,64afa022cb6d2497bf0a9950,65af625aebaa6ae4e2c757f8,2024-01-23_07h54.21.831,bars,2023.2.3,MacIntel,60.0240096,657b66ea316d21385b68909f,,,,,,,,,,,224.216,225.216,,,225.716,225.963,,146,146,,,,,,,,,,,,,,,,bars/037.png,bars/mask002.png,,,,,,,,,,,,3,1,,,,,,,2,7,3,6,,,,,,,,,,,225.216,225.716,225.963,228.632,space,2.654,,228.632,4,41,229.632,229.632,230.946,space,1.298,,0,6,6,6,1,150,105,,,,,,,,
,,64afa022cb6d2497bf0a9950,65af625aebaa6ae4e2c757f8,2024-01-23_07h54.21.831,bars,2023.2.3,MacIntel,60.0240096,657b66ea316d21385b68909f,,,,,,,,,,,230.946,231.95,,,232.447,232.698,,130,130,,,,,,,,,,,,,,,,bars/031.png,bars/mask007.png,,,,,,,,,,,,0,1,,,,,,,0,9,0,9,,,,,,,,,,,231.95,232.447,232.698,234.997,space,2.284,,234.997,10,85,235.999,235.999,237.13,space,1.12,,0,7,7,7,1,120,35,,,,,,,,
,,64afa022cb6d2497bf0a9950,65af625aebaa6ae4e2c757f8,2024-01-23_07h54.21.831,bars,2023.2.3,MacIntel,60.0240096,657b66ea316d21385b68909f,,,,,,,,,,,237.131,238.132,,,238.632,238.882,,142,-38,,,,,,,,,,,,,,,,bars/002.png,bars/mask009.png,,,,,,,,,,,,0,1,,,,,,,0,10,0,10,,,,,,,,,,,238.132,238.632,238.882,243.782,space,4.885,,243.782,12,57,244.782,244.782,245.997,space,1.199,,0,8,8,8,1,130,85,,,,,,,,
,,64afa022cb6d2497bf0a9950,65af625aebaa6ae4e2c757f8,2024-01-23_07h54.21.831,bars,2023.2.3,MacIntel,60.0240096,657b66ea316d21385b68909f,,,,,,,,,,,245.997,247,,,247.498,247.749,,139,139,,,,,,,,,,,,,,,,bars/017.png,bars/mask007.png,,,,,,,,,,,,2,1,,,,,,,2,10,2,10,,,,,,,,,,,247.001,247.498,247.749,249.316,space,1.55,,249.316,6,86,250.316,250.316,251.082,space,0.754,,0,9,9,9,1,145,45,,,,,,,,
,,64afa022cb6d2497bf0a9950,65af625aebaa6ae4e2c757f8,2024-01-23_07h54.21.831,bars,2023.2.3,MacIntel,60.0240096,657b66ea316d21385b68909f,,,,,,,,,,,251.083,252.081,,,252.58,252.832,,75,75,,,,,,,,,,,,,,,,bars/012.png,bars/mask008.png,,,,,,,,,,,,2,1,,,,,,,4,10,4,10,,,,,,,,,,,252.081,252.58,252.832,255.515,space,2.665,,255.515,15,60,256.516,256.516,257.413,space,0.882,,0,10,10,10,1,90,15,,,,,,,,
,,64afa022cb6d2497bf0a9950,65af625aebaa6ae4e2c757f8,2024-01-23_07h54.21.831,bars,2023.2.3,MacIntel,60.0240096,657b66ea316d21385b68909f,,,,,,,,,,,257.414,258.415,,,258.915,259.164,,140,140,,,,,,,,,,,,,,,,bars/001.png,bars/mask004.png,,,,,,,,,,,,0,1,,,,,,,2,10,0,10,,,,,,,,,,,258.416,258.915,259.164,262.13,space,2.956,,262.13,10,55,263.132,263.132,263.782,space,0.634,,0,11,11,11,1,130,85,,,,,,,,
,,64afa022cb6d2497bf0a9950,65af625aebaa6ae4e2c757f8,2024-01-23_07h54.21.831,bars,2023.2.3,MacIntel,60.0240096,657b66ea316d21385b68909f,,,,,,,,,,,263.783,264.781,,,265.283,265.533,,49,49,,,,,,,,,,,,,,,,bars/004.png,bars/mask003.png,,,,,,,,,,,,1,1,,,,,,,4,10,4,10,,,,,,,,,,,264.782,265.283,265.533,273.313,space,7.764,,273.313,24,76,274.316,274.316,275.246,space,0.917,,0,12,12,12,1,25,125,,,,,,,,
,,64afa022cb6d2497bf0a9950,65af625aebaa6ae4e2c757f8,2024-01-23_07h54.21.831,bars,2023.2.3,MacIntel,60.0240096,657b66ea316d21385b68909f,,,,,,,,,,,275.247,276.247,,,276.747,276.999,,140,140,,,,,,,,,,,,,,,,bars/004.png,bars/mask002.png,,,,,,,,,,,,4,2,,,,,,,6,8,5,7,,,,,,,,,,,276.247,276.747,276.999,280.432,space,3.423,,280.432,65,15,281.432,281.432,282.564,space,1.113,,0,13,13,13,1,25,125,,,,,,,,
,,64afa022cb6d2497bf0a9950,65af625aebaa6ae4e2c757f8,2024-01-23_07h54.21.831,bars,2023.2.3,MacIntel,60.0240096,657b66ea316d21385b68909f,,,,,,,,,,,282.565,283.565,,,284.065,284.315,,58,58,,,,,,,,,,,,,,,,bars/047.png,bars/mask009.png,,,,,,,,,,,,6,2,,,,,,,4,10,4,10,,,,,,,,,,,283.565,284.065,284.315,285.799,space,1.47,,285.799,43,12,286.797,286.797,287.597,space,0.789,,0,14,14,14,1,15,70,,,,,,,,
,,64afa022cb6d2497bf0a9950,65af625aebaa6ae4e2c757f8,2024-01-23_07h54.21.831,bars,2023.2.3,MacIntel,60.0240096,657b66ea316d21385b68909f,,,,,,,,,,,287.598,288.598,,,289.099,289.349,,135,135,,,,,,,,,,,,,,,,bars/005.png,bars/mask003.png,,,,,,,,,,,,8,2,,,,,,,2,10,2,10,,,,,,,,,,,288.598,289.099,289.349,297.499,space,8.137,,297.499,55,5,298.498,298.498,299.55,space,1.035,,0,15,15,15,1,10,140,,,,,,,,
,,64afa022cb6d2497bf0a9950,65af625aebaa6ae4e2c757f8,2024-01-23_07h54.21.831,bars,2023.2.3,MacIntel,60.0240096,657b66ea316d21385b68909f,,,,,,,,,,,299.551,300.549,,,301.047,301.299,,87,87,,,,,,,,,,,,,,,,bars/041.png,bars/mask008.png,,,,,,,,,,,,7,2,,,,,,,4,10,5,8,,,,,,,,,,,300.549,301.047,301.299,304.584,space,3.277,,304.584,67,2,305.582,305.582,306.212,space,0.614,,0,16,16,16,1,20,85,,,,,,,,
,,64afa022cb6d2497bf0a9950,65af625aebaa6ae4e2c757f8,2024-01-23_07h54.21.831,bars,2023.2.3,MacIntel,60.0240096,657b66ea316d21385b68909f,,,,,,,,,,,306.213,307.214,,,307.716,307.965,,86,86,,,,,,,,,,,,,,,,bars/011.png,bars/mask005.png,,,,,,,,,,,,9,2,,,,,,,6,10,9,9,,,,,,,,,,,307.214,307.716,307.965,309.666,space,1.684,,309.666,74,1,310.665,310.665,311.413,space,0.734,,0,17,17,17,1,160,85,,,,,,,,
,,64afa022cb6d2497bf0a9950,65af625aebaa6ae4e2c757f8,2024-01-23_07h54.21.831,bars,2023.2.3,MacIntel,60.0240096,657b66ea316d21385b68909f,,,,,,,,,,,311.415,312.416,,,312.915,313.166,,92,92,,,,,,,,,,,,,,,,bars/001.png,bars/mask000.png,,,,,,,,,,,,7,2,,,,,,,8,8,7,9,,,,,,,,,,,312.416,312.915,313.166,318.696,space,5.517,,318.696,38,7,319.698,319.698,320.248,space,0.534,,0,18,18,18,1,130,85,,,,,,,,
,,64afa022cb6d2497bf0a9950,65af625aebaa6ae4e2c757f8,2024-01-23_07h54.21.831,bars,2023.2.3,MacIntel,60.0240096,657b66ea316d21385b68909f,,,,,,,,,,,320.249,321.249,,,321.749,321.997,,5,185,,,,,,,,,,,,,,,,bars/032.png,bars/mask008.png,,,,,,,,,,,,5,2,,,,,,,6,10,7,9,,,,,,,,,,,321.249,321.749,321.997,328.114,space,6.103,,328.114,60,15,329.116,329.116,329.732,space,0.596,,0,19,19,19,1,125,20,,,,,,,,
,,64afa022cb6d2497bf0a9950,65af625aebaa6ae4e2c757f8,2024-01-23_07h54.21.831,bars,2023.2.3,MacIntel,60.0240096,657b66ea316d21385b68909f,,,,,,,,,,,329.734,330.73,,,331.231,331.483,,37,217,,,,,,,,,,,,,,,,bars/010.png,bars/mask008.png,,,,,,,,,,,,4,2,,,,,,,4,8,4,9,,,,,,,,,,,330.73,331.231,331.483,335.532,space,4.033,,335.532,52,18,336.529,336.529,337.166,space,0.621,,0,20,20,20,1,165,55,,,,,,,,
,,64afa022cb6d2497bf0a9950,65af625aebaa6ae4e2c757f8,2024-01-23_07h54.21.831,bars,2023.2.3,MacIntel,60.0240096,657b66ea316d21385b68909f,,,,,,,,,,,337.166,338.166,,,338.666,338.915,,50,50,,,,,,,,,,,,,,,,bars/047.png,bars/mask000.png,,,,,,,,,,,,3,2,,,,,,,2,10,3,10,,,,,,,,,,,338.166,338.666,338.915,341.065,space,2.135,,341.065,35,20,342.065,342.066,342.949,space,0.871,,0,21,21,21,1,15,70,,,,,,,,
,,64afa022cb6d2497bf0a9950,65af625aebaa6ae4e2c757f8,2024-01-23_07h54.21.831,bars,2023.2.3,MacIntel,60.0240096,657b66ea316d21385b68909f,,,,,,,,,,,342.95,343.949,,,344.449,344.697,,54,54,,,,,,,,,,,,,,,,bars/047.png,bars/mask006.png,,,,,,,,,,,,4,2,,,,,,,4,10,4,9,,,,,,,,,,,343.949,344.449,344.697,347.5,space,2.784,,347.5,39,16,348.5,348.5,349.098,space,0.58,,0,22,22,22,1,15,70,,,,,,,,
,,64afa022cb6d2497bf0a9950,65af625aebaa6ae4e2c757f8,2024-01-23_07h54.21.831,bars,2023.2.3,MacIntel,60.0240096,657b66ea316d21385b68909f,,,,,,,,,,,349.098,350.099,,,350.599,350.848,,59,59,,,,,,,,,,,,,,,,bars/034.png,bars/mask007.png,,,,,,,,,,,,6,2,,,,,,,6,8,5,8,,,,,,,,,,,350.099,350.599,350.848,354.866,space,3.998,,354.866,66,6,355.864,355.864,356.496,space,0.615,,0,23,23,23,1,125,65,,,,,,,,
,,64afa022cb6d2497bf0a9950,65af625aebaa6ae4e2c757f8,2024-01-23_07h54.21.831,bars,2023.2.3,MacIntel,60.0240096,657b66ea316d21385b68909f,,,,,,,,,,,356.496,357.497,,,357.997,358.25,,178,-2,,,,,,,,,,,,,,,,bars/008.png,bars/mask006.png,,,,,,,,,,,,9,2,,,,,,,4,10,2,10,,,,,,,,,,,357.497,357.997,358.25,363.349,space,5.083,,363.349,68,2,364.347,364.347,365.033,space,0.664,,0,24,24,24,1,110,0,,,,,,,,
,,64afa022cb6d2497bf0a9950,65af625aebaa6ae4e2c757f8,2024-01-23_07h54.21.831,bars,2023.2.3,MacIntel,60.0240096,657b66ea316d21385b68909f,,,,,,,,,,,365.033,366.031,,,366.532,366.782,,0,0,,,,,,,,,,,,,,,,bars/033.png,bars/mask004.png,,,,,,,,,,,,1,2,,,,,,,2,8,2,9,,,,,,,,,,,366.031,366.532,366.782,367.933,space,1.133,,367.933,25,25,368.931,368.931,370.064,space,1.118,,0,25,25,25,1,25,155,,,,,,,,
,,64afa022cb6d2497bf0a9950,65af625aebaa6ae4e2c757f8,2024-01-23_07h54.21.831,bars,2023.2.3,MacIntel,60.0240096,657b66ea316d21385b68909f,,,,,,,,,,,370.064,371.066,,,371.565,371.813,,77,77,,,,,,,,,,,,,,,,bars/021.png,bars/mask008.png,,,,,,,,,,,,8,2,,,,,,,4,10,4,10,,,,,,,,,,,371.066,371.565,371.813,376.581,space,4.756,,376.582,78,7,377.583,377.583,378.081,space,0.478,,0,26,26,26,1,155,70,,,,,,,,
,,64afa022cb6d2497bf0a9950,65af625aebaa6ae4e2c757f8,2024-01-23_07h54.21.831,bars,2023.2.3,MacIntel,60.0240096,657b66ea316d21385b68909f,,,,,,,,,,,378.083,379.082,,,379.583,379.832,,144,144,,,,,,,,,,,,,,,,bars/043.png,bars/mask008.png,,,,,,,,,,,,4,2,,,,,,,6,8,5,7,,,,,,,,,,,379.082,379.583,379.832,384.513,space,4.666,,384.513,66,14,385.514,385.514,385.93,space,0.4,,0,27,27,27,1,30,130,,,,,,,,
,,64afa022cb6d2497bf0a9950,65af625aebaa6ae4e2c757f8,2024-01-23_07h54.21.831,bars,2023.2.3,MacIntel,60.0240096,657b66ea316d21385b68909f,,,,,,,,,,,385.931,386.932,,,387.434,387.682,,53,53,,,,,,,,,,,,,,,,bars/025.png,bars/mask002.png,,,,,,,,,,,,6,2,,,,,,,8,10,7,10,,,,,,,,,,,386.932,387.434,387.682,390.464,space,2.768,,390.465,52,13,391.466,391.466,391.899,space,0.417,,0,28,28,28,1,105,40,,,,,,,,
,,64afa022cb6d2497bf0a9950,65af625aebaa6ae4e2c757f8,2024-01-23_07h54.21.831,bars,2023.2.3,MacIntel,60.0240096,657b66ea316d21385b68909f,,,,,,,,,,,391.899,392.897,,,393.398,393.649,,132,132,,,,,,,,,,,,,,,,bars/023.png,bars/mask005.png,,,,,,,,,,,,3,2,,,,,,,10,8,10,7,,,,,,,,,,,392.897,393.398,393.649,396.183,space,2.517,,396.183,68,17,397.18,397.18,397.629,space,0.432,,0,29,29,29,1,20,115,,,,,,,,
,,64afa022cb6d2497bf0a9950,65af625aebaa6ae4e2c757f8,2024-01-23_07h54.21.831,bars,2023.2.3,MacIntel,60.0240096,657b66ea316d21385b68909f,,,,,,,,,,,397.629,398.633,,,399.132,399.38,,92,92,,,,,,,,,,,,,,,,bars/041.png,bars/mask002.png,,,,,,,,,,,,5,2,,,,,,,8,6,8,7,,,,,,,,,,,398.633,399.132,399.38,406.848,space,7.457,,406.849,72,7,407.848,407.848,408.433,space,0.566,,0,30,30,30,1,20,85,,,,,,,,
,,64afa022cb6d2497bf0a9950,65af625aebaa6ae4e2c757f8,2024-01-23_07h54.21.831,bars,2023.2.3,MacIntel,60.0240096,657b66ea316d21385b68909f,,,,,,,,,,,408.434,409.43,,,409.933,410.183,,90,90,,,,,,,,,,,,,,,,bars/019.png,bars/mask007.png,,,,,,,,,,,,3,2,,,,,,,10,4,10,5,,,,,,,,,,,409.43,409.933,410.183,416.448,space,6.248,,416.449,45,15,417.45,417.45,417.999,space,0.53,,0,31,31,31,1,45,105,,,,,,,,
,,64afa022cb6d2497bf0a9950,65af625aebaa6ae4e2c757f8,2024-01-23_07h54.21.831,bars,2023.2.3,MacIntel,60.0240096,657b66ea316d21385b68909f,,,,,,,,,,,418,418.999,,,419.499,419.749,,125,125,,,,,,,,,,,,,,,,bars/009.png,bars/mask003.png,,,,,,,,,,,,1,2,,,,,,,10,2,10,2,,,,,,,,,,,418.999,419.499,419.749,422.997,space,3.233,,422.998,70,20,423.998,423.998,424.831,space,0.814,,0,32,32,32,1,15,105,,,,,,,,
,,64afa022cb6d2497bf0a9950,65af625aebaa6ae4e2c757f8,2024-01-23_07h54.21.831,bars,2023.2.3,MacIntel,60.0240096,657b66ea316d21385b68909f,,,,,,,,,,,424.831,425.833,,,426.332,426.58,,122,122,,,,,,,,,,,,,,,,bars/005.png,bars/mask004.png,,,,,,,,,,,,2,2,,,,,,,10,4,10,6,,,,,,,,,,,425.833,426.332,426.58,433.416,space,6.826,,433.416,68,18,434.415,434.415,434.982,space,0.547,,0,33,33,33,1,10,140,,,,,,,,
,,64afa022cb6d2497bf0a9950,65af625aebaa6ae4e2c757f8,2024-01-23_07h54.21.831,bars,2023.2.3,MacIntel,60.0240096,657b66ea316d21385b68909f,,,,,,,,,,,434.982,435.983,,,436.482,436.732,,81,81,,,,,,,,,,,,,,,,bars/011.png,bars/mask009.png,,,,,,,,,,,,6,2,,,,,,,8,6,6,7,,,,,,,,,,,435.983,436.482,436.732,443.13,space,6.385,,443.13,79,4,444.132,444.132,444.697,space,0.555,,0,34,34,34,1,160,85,,,,,,,,
,,64afa022cb6d2497bf0a9950,65af625aebaa6ae4e2c757f8,2024-01-23_07h54.21.831,bars,2023.2.3,MacIntel,60.0240096,657b66ea316d21385b68909f,,,,,,,,,,,444.698,445.696,,,446.198,446.448,,76,76,,,,,,,,,,,,,,,,bars/021.png,bars/mask001.png,,,,,,,,,,,,6,2,,,,,,,6,8,7,7,,,,,,,,,,,445.696,446.198,446.448,454.432,space,7.968,,454.432,79,6,455.431,455.431,455.997,space,0.549,,0,35,35,35,1,155,70,,,,,,,,
,,64afa022cb6d2497bf0a9950,65af625aebaa6ae4e2c757f8,2024-01-23_07h54.21.831,bars,2023.2.3,MacIntel,60.0240096,657b66ea316d21385b68909f,,,,,,,,,,,455.998,456.999,,,457.498,457.75,,144,144,,,,,,,,,,,,,,,,bars/004.png,bars/mask006.png,,,,,,,,,,,,4,2,,,,,,,8,10,9,10,,,,,,,,,,,456.999,457.498,457.75,460.899,space,3.133,,460.9,61,19,461.898,461.898,462.516,space,0.604,,0,36,36,36,1,25,125,,,,,,,,
,,64afa022cb6d2497bf0a9950,65af625aebaa6ae4e2c757f8,2024-01-23_07h54.21.831,bars,2023.2.3,MacIntel,60.0240096,657b66ea316d21385b68909f,,,,,,,,,,,462.516,463.516,,,464.016,464.266,,92,92,,,,,,,,,,,,,,,,bars/002.png,bars/mask001.png,,,,,,,,,,,,6,2,,,,,,,10,8,10,8,,,,,,,,,,,463.516,464.016,464.266,466.796,space,2.515,,466.796,38,7,467.799,467.799,468.299,space,0.485,,0,37,37,37,1,130,85,,,,,,,,
,,64afa022cb6d2497bf0a9950,65af625aebaa6ae4e2c757f8,2024-01-23_07h54.21.831,bars,2023.2.3,MacIntel,60.0240096,657b66ea316d21385b68909f,,,,,,,,,,,468.3,469.301,,,469.799,470.049,,144,-36,,,,,,,,,,,,,,,,bars/005.png,bars/mask003.png,,,,,,,,,,,,9,2,,,,,,,8,10,9,10,,,,,,,,,,,469.301,469.799,470.049,475.516,space,5.452,,475.516,46,4,476.515,476.515,477.215,space,0.681,,0,38,38,38,1,10,140,,,,,,,,
,,64afa022cb6d2497bf0a9950,65af625aebaa6ae4e2c757f8,2024-01-23_07h54.21.831,bars,2023.2.3,MacIntel,60.0240096,657b66ea316d21385b68909f,,,,,,,,,,,477.215,478.216,,,478.716,478.966,,90,90,,,,,,,,,,,,,,,,bars/018.png,bars/mask007.png,,,,,,,,,,,,9,2,,,,,,,6,8,5,9,,,,,,,,,,,478.216,478.716,478.966,480.565,space,1.582,,480.565,60,0,481.567,481.567,483.565,space,1.982,,0,39,39,39,1,150,90,,,,,,,,
,,64afa022cb6d2497bf0a9950,65af625aebaa6ae4e2c757f8,2024-01-23_07h54.21.831,bars,2023.2.3,MacIntel,60.0240096,657b66ea316d21385b68909f,,,,,,,,,,,483.565,484.566,,,485.065,485.315,,179,179,,,,,,,,,,,,,,,,bars/040.png,bars/mask000.png,,,,,,,,,,,,5,2,,,,,,,4,6,4,6,,,,,,,,,,,484.566,485.065,485.315,489.166,space,3.84,,489.166,39,6,490.166,490.166,490.632,space,0.45,,0,40,40,40,1,140,5,,,,,,,,
,,64afa022cb6d2497bf0a9950,65af625aebaa6ae4e2c757f8,2024-01-23_07h54.21.831,bars,2023.2.3,MacIntel,60.0240096,657b66ea316d21385b68909f,,,,,,,,,,,490.633,491.632,,,492.132,492.382,,86,86,,,,,,,,,,,,,,,,bars/026.png,bars/mask005.png,,,,,,,,,,,,8,2,,,,,,,2,8,2,8,,,,,,,,,,,491.632,492.132,492.382,495.266,space,2.865,,495.266,51,1,496.266,496.266,496.65,space,0.371,,0,41,41,41,1,35,85,,,,,,,,
,,64afa022cb6d2497bf0a9950,65af625aebaa6ae4e2c757f8,2024-01-23_07h54.21.831,bars,2023.2.3,MacIntel,60.0240096,657b66ea316d21385b68909f,,,,,,,,,,,496.65,497.647,,,498.151,498.399,,3,3,,,,,,,,,,,,,,,,bars/045.png,bars/mask002.png,,,,,,,,,,,,8,2,,,,,,,4,10,2,10,,,,,,,,,,,497.647,498.15,498.399,500.613,space,2.198,,500.613,83,7,501.614,501.614,502.365,space,0.737,,0,42,42,42,1,100,10,,,,,,,,
,,64afa022cb6d2497bf0a9950,65af625aebaa6ae4e2c757f8,2024-01-23_07h54.21.831,bars,2023.2.3,MacIntel,60.0240096,657b66ea316d21385b68909f,,,,,,,,,,,502.366,503.365,,,503.865,504.114,,33,33,,,,,,,,,,,,,,,,bars/025.png,bars/mask006.png,,,,,,,,,,,,6,2,,,,,,,6,8,6,8,,,,,,,,,,,503.365,503.865,504.114,506.865,space,2.741,,506.865,72,7,507.865,507.865,508.284,space,0.396,,0,43,43,43,1,105,40,,,,,,,,
,,64afa022cb6d2497bf0a9950,65af625aebaa6ae4e2c757f8,2024-01-23_07h54.21.831,bars,2023.2.3,MacIntel,60.0240096,657b66ea316d21385b68909f,,,,,,,,,,,508.284,509.282,,,509.78,510.032,,88,-92,,,,,,,,,,,,,,,,bars/002.png,bars/mask002.png,,,,,,,,,,,,9,2,,,,,,,4,10,5,10,,,,,,,,,,,509.282,509.78,510.032,518.949,space,8.902,,518.949,42,3,519.949,519.949,520.433,space,0.471,,0,44,44,44,1,130,85,,,,,,,,
,,64afa022cb6d2497bf0a9950,65af625aebaa6ae4e2c757f8,2024-01-23_07h54.21.831,bars,2023.2.3,MacIntel,60.0240096,657b66ea316d21385b68909f,,,,,,,,,,,520.433,521.433,,,521.932,522.183,,27,27,,,,,,,,,,,,,,,,bars/031.png,bars/mask008.png,,,,,,,,,,,,6,2,,,,,,,2,8,2,8,,,,,,,,,,,521.433,521.932,522.183,523.982,space,1.78,,523.982,87,8,524.98,524.98,525.429,space,0.435,,0,45,45,45,1,120,35,,,,,,,,
,,64afa022cb6d2497bf0a9950,65af625aebaa6ae4e2c757f8,2024-01-23_07h54.21.831,bars,2023.2.3,MacIntel,60.0240096,657b66ea316d21385b68909f,,,,,,,,,,,525.43,526.43,,,526.932,527.182,,1,1,,,,,,,,,,,,,,,,bars/040.png,bars/mask002.png,,,,,,,,,,,,9,2,,,,,,,0,10,0,10,,,,,,,,,,,526.43,526.932,527.182,529.916,space,2.724,,529.916,41,4,530.916,530.916,531.366,space,0.434,,0,46,46,46,1,140,5,,,,,,,,
,,64afa022cb6d2497bf0a9950,65af625aebaa6ae4e2c757f8,2024-01-23_07h54.21.831,bars,2023.2.3,MacIntel,60.0240096,657b66ea316d21385b68909f,,,,,,,,,,,531.366,532.366,,,532.865,533.114,,20,200,,,,,,,,,,,,,,,,bars/031.png,bars/mask008.png,,,,,,,,,,,,4,2,,,,,,,0,8,0,7,,,,,,,,,,,532.366,532.865,533.114,536.213,space,3.085,,536.213,80,15,537.216,537.216,537.631,space,0.396,,0,47,47,47,1,120,35,,,,,,,,
,,64afa022cb6d2497bf0a9950,65af625aebaa6ae4e2c757f8,2024-01-23_07h54.21.831,bars,2023.2.3,MacIntel,60.0240096,657b66ea316d21385b68909f,,,,,,,,,,,537.632,538.632,,,539.132,539.382,,27,27,,,,,,,,,,,,,,,,bars/031.png,bars/mask008.png,,,,,,,,,,,,7,2,,,,,,,0,10,0,10,,,,,,,,,,,538.632,539.132,539.382,545.131,space,5.732,,545.131,87,8,546.133,546.133,546.499,space,0.35,,0,48,48,48,1,120,35,,,,,,,,
,,64afa022cb6d2497bf0a9950,65af625aebaa6ae4e2c757f8,2024-01-23_07h54.21.831,bars,2023.2.3,MacIntel,60.0240096,657b66ea316d21385b68909f,,,,,,,,,,,546.499,547.498,,,548,548.25,,124,124,,,,,,,,,,,,,,,,bars/004.png,bars/mask006.png,,,,,,,,,,,,10,2,,,,,,,2,8,2,10,,,,,,,,,,,547.498,548,548.25,551.5,space,3.242,,551.5,81,1,552.499,552.499,553.332,space,0.814,,0,49,49,49,1,25,125,,,,,,,,
,,64afa022cb6d2497bf0a9950,65af625aebaa6ae4e2c757f8,2024-01-23_07h54.21.831,bars,2023.2.3,MacIntel,60.0240096,657b66ea316d21385b68909f,,,,,,,,,,,,,,,,,,,,,,,,,,,,,,,,,,,,,,,,,,,,,,,,,,,,,,,,,,,,,,,,,,,,,,,,,,,,,,,,,,,,,,,,,,,,,553.332,613.332,0,0,0,1,1,sequence_tables/blk037.csv
,,64afa022cb6d2497bf0a9950,65af625aebaa6ae4e2c757f8,2024-01-23_07h54.21.831,bars,2023.2.3,MacIntel,60.0240096,657b66ea316d21385b68909f,,,,,,,,,,,615.238,616.229,,,616.733,616.982,,98,98,,,,,,,,,,,,,,,,bars/019.png,bars/mask002.png,,,,,,,,,,,,6,2,,,,,,,10,7,10,8,,,,,,613.336,615.231,space,1.879,,616.23,616.733,616.982,622.782,space,5.79,,622.782,53,7,623.782,623.782,623.785,,,,0,0,0,0,1,45,105,,,,,,,,
,,64afa022cb6d2497bf0a9950,65af625aebaa6ae4e2c757f8,2024-01-23_07h54.21.831,bars,2023.2.3,MacIntel,60.0240096,657b66ea316d21385b68909f,,,,,,,,,,,623.786,624.782,,,625.282,625.532,,92,92,,,,,,,,,,,,,,,,bars/039.png,bars/mask008.png,,,,,,,,,,,,3,2,,,,,,,10,5,10,6,,,,,,,,,,,624.782,625.282,625.532,629.683,space,4.131,,629.684,83,13,630.683,630.683,630.687,,,,0,1,1,1,1,175,105,,,,,,,,
,,64afa022cb6d2497bf0a9950,65af625aebaa6ae4e2c757f8,2024-01-23_07h54.21.831,bars,2023.2.3,MacIntel,60.0240096,657b66ea316d21385b68909f,,,,,,,,,,,630.688,631.679,,,632.18,632.433,,104,104,,,,,,,,,,,,,,,,bars/009.png,bars/mask009.png,,,,,,,,,,,,3,2,,,,,,,10,3,9,3,,,,,,,,,,,631.679,632.18,632.433,634.515,space,2.074,,634.515,89,1,635.515,635.515,635.517,,,,0,2,2,2,1,15,105,,,,,,,,
,,64afa022cb6d2497bf0a9950,65af625aebaa6ae4e2c757f8,2024-01-23_07h54.21.831,bars,2023.2.3,MacIntel,60.0240096,657b66ea316d21385b68909f,,,,,,,,,,,635.517,636.515,,,637.015,637.265,,67,67,,,,,,,,,,,,,,,,bars/034.png,bars/mask009.png,,,,,,,,,,,,0,2,,,,,,,8,1,6,0,,,,,,,,,,,636.515,637.015,637.265,639.713,space,2.436,,639.713,58,2,640.716,640.716,640.717,,,,0,3,3,3,1,125,65,,,,,,,,
,,64afa022cb6d2497bf0a9950,65af625aebaa6ae4e2c757f8,2024-01-23_07h54.21.831,bars,2023.2.3,MacIntel,60.0240096,657b66ea316d21385b68909f,,,,,,,,,,,640.717,641.716,,,642.213,642.465,,3,183,,,,,,,,,,,,,,,,bars/013.png,bars/mask005.png,,,,,,,,,,,,1,2,,,,,,,10,0,10,1,,,,,,,,,,,641.716,642.213,642.465,646.516,space,4.037,,646.516,72,7,647.515,647.515,647.516,,,,0,4,4,4,1,75,10,,,,,,,,
,,64afa022cb6d2497bf0a9950,65af625aebaa6ae4e2c757f8,2024-01-23_07h54.21.831,bars,2023.2.3,MacIntel,60.0240096,657b66ea316d21385b68909f,,,,,,,,,,,647.516,648.516,,,649.016,649.267,,92,92,,,,,,,,,,,,,,,,bars/018.png,bars/mask008.png,,,,,,,,,,,,1,2,,,,,,,8,0,9,1,,,,,,,,,,,648.516,649.016,649.267,656.296,space,7.016,,656.296,58,2,657.297,657.297,657.3,,,,0,5,5,5,1,150,90,,,,,,,,
,,64afa022cb6d2497bf0a9950,65af625aebaa6ae4e2c757f8,2024-01-23_07h54.21.831,bars,2023.2.3,MacIntel,60.0240096,657b66ea316d21385b68909f,,,,,,,,,,,657.3,658.298,,,658.799,659.049,,145,145,,,,,,,,,,,,,,,,bars/003.png,bars/mask005.png,,,,,,,,,,,,2,2,,,,,,,6,2,7,2,,,,,,,,,,,658.298,658.799,659.049,661.599,space,2.536,,661.599,60,5,662.599,662.599,662.6,,,,0,6,6,6,1,25,140,,,,,,,,
,,64afa022cb6d2497bf0a9950,65af625aebaa6ae4e2c757f8,2024-01-23_07h54.21.831,bars,2023.2.3,MacIntel,60.0240096,657b66ea316d21385b68909f,,,,,,,,,,,662.6,663.599,,,664.097,664.349,,146,146,,,,,,,,,,,,,,,,bars/021.png,bars/mask003.png,,,,,,,,,,,,6,1,,,,,,,8,0,9,0,,,,,,,,,,,663.599,664.097,664.349,670.614,space,6.249,,670.614,9,76,671.617,671.617,671.621,,,,0,7,7,7,1,155,70,,,,,,,,
,,64afa022cb6d2497bf0a9950,65af625aebaa6ae4e2c757f8,2024-01-23_07h54.21.831,bars,2023.2.3,MacIntel,60.0240096,657b66ea316d21385b68909f,,,,,,,,,,,671.622,672.614,,,673.113,673.364,,72,72,,,,,,,,,,,,,,,,bars/044.png,bars/mask008.png,,,,,,,,,,,,5,1,,,,,,,6,2,6,2,,,,,,,,,,,672.614,673.113,673.364,677.181,space,3.805,,677.181,3,83,678.183,678.183,678.184,,,,0,8,8,8,1,75,155,,,,,,,,
,,64afa022cb6d2497bf0a9950,65af625aebaa6ae4e2c757f8,2024-01-23_07h54.21.831,bars,2023.2.3,MacIntel,60.0240096,657b66ea316d21385b68909f,,,,,,,,,,,678.185,679.182,,,679.684,679.93,,77,77,,,,,,,,,,,,,,,,bars/014.png,bars/mask001.png,,,,,,,,,,,,5,1,,,,,,,8,0,6,0,,,,,,,,,,,679.182,679.684,679.93,683.83,space,3.889,,683.83,3,77,684.832,684.833,684.834,,,,0,9,9,9,1,80,0,,,,,,,,
,,64afa022cb6d2497bf0a9950,65af625aebaa6ae4e2c757f8,2024-01-23_07h54.21.831,bars,2023.2.3,MacIntel,60.0240096,657b66ea316d21385b68909f,,,,,,,,,,,684.834,685.834,,,686.332,686.582,,119,119,,,,,,,,,,,,,,,,bars/001.png,bars/mask006.png,,,,,,,,,,,,6,1,,,,,,,10,2,10,1,,,,,,,,,,,685.834,686.332,686.582,691.397,space,4.799,,691.397,11,34,692.399,692.399,692.4,,,,0,10,10,10,1,130,85,,,,,,,,
,,64afa022cb6d2497bf0a9950,65af625aebaa6ae4e2c757f8,2024-01-23_07h54.21.831,bars,2023.2.3,MacIntel,60.0240096,657b66ea316d21385b68909f,,,,,,,,,,,692.4,693.398,,,693.898,694.148,,2,182,,,,,,,,,,,,,,,,bars/007.png,bars/mask006.png,,,,,,,,,,,,8,1,,,,,,,10,4,10,4,,,,,,,,,,,693.398,693.898,694.148,703.682,space,9.527,,703.682,7,53,704.684,704.684,704.688,,,,0,11,11,11,1,175,55,,,,,,,,
,,64afa022cb6d2497bf0a9950,65af625aebaa6ae4e2c757f8,2024-01-23_07h54.21.831,bars,2023.2.3,MacIntel,60.0240096,657b66ea316d21385b68909f,,,,,,,,,,,704.688,705.681,,,706.182,706.432,,71,71,,,,,,,,,,,,,,,,bars/044.png,bars/mask006.png,,,,,,,,,,,,7,1,,,,,,,10,2,8,2,,,,,,,,,,,705.681,706.182,706.432,711.783,space,5.337,,711.783,4,84,712.781,712.781,712.783,,,,0,12,12,12,1,75,155,,,,,,,,
,,64afa022cb6d2497bf0a9950,65af625aebaa6ae4e2c757f8,2024-01-23_07h54.21.831,bars,2023.2.3,MacIntel,60.0240096,657b66ea316d21385b68909f,,,,,,,,,,,712.783,713.782,,,714.273,714.524,,89,89,,,,,,,,,,,,,,,,bars/012.png,bars/mask000.png,,,,,,,,,,,,8,1,,,,,,,8,4,8,4,,,,,,,,,,,713.782,714.273,714.524,719.989,space,5.45,,719.989,1,74,720.988,720.988,720.99,,,,0,13,13,13,1,90,15,,,,,,,,
,,64afa022cb6d2497bf0a9950,65af625aebaa6ae4e2c757f8,2024-01-23_07h54.21.831,bars,2023.2.3,MacIntel,60.0240096,657b66ea316d21385b68909f,,,,,,,,,,,720.991,721.989,,,722.486,722.739,,69,69,,,,,,,,,,,,,,,,bars/044.png,bars/mask002.png,,,,,,,,,,,,7,1,,,,,,,10,6,9,7,,,,,,,,,,,721.99,722.486,722.74,723.573,space,0.817,,723.573,6,86,724.571,724.571,724.572,,,,0,14,14,14,1,75,155,,,,,,,,
,,64afa022cb6d2497bf0a9950,65af625aebaa6ae4e2c757f8,2024-01-23_07h54.21.831,bars,2023.2.3,MacIntel,60.0240096,657b66ea316d21385b68909f,,,,,,,,,,,724.572,725.571,,,726.073,726.323,,179,179,,,,,,,,,,,,,,,,bars/005.png,bars/mask008.png,,,,,,,,,,,,6,1,,,,,,,8,8,9,8,,,,,,,,,,,725.571,726.073,726.323,727.987,space,1.648,,727.987,11,39,728.989,728.989,728.99,,,,0,15,15,15,1,10,140,,,,,,,,
,,64afa022cb6d2497bf0a9950,65af625aebaa6ae4e2c757f8,2024-01-23_07h54.21.831,bars,2023.2.3,MacIntel,60.0240096,657b66ea316d21385b68909f,,,,,,,,,,,728.99,729.986,,,730.475,730.72,,4,4,,,,,,,,,,,,,,,,bars/033.png,bars/mask009.png,,,,,,,,,,,,2,1,,,,,,,6,10,8,9,,,,,,,,,,,729.986,730.475,730.721,731.938,space,1.201,,731.938,21,29,732.939,732.939,732.943,,,,0,16,16,16,1,25,155,,,,,,,,
,,64afa022cb6d2497bf0a9950,65af625aebaa6ae4e2c757f8,2024-01-23_07h54.21.831,bars,2023.2.3,MacIntel,60.0240096,657b66ea316d21385b68909f,,,,,,,,,,,732.944,733.94,,,734.44,734.689,,155,155,,,,,,,,,,,,,,,,bars/011.png,bars/mask007.png,,,,,,,,,,,,3,1,,,,,,,4,10,3,10,,,,,,,,,,,733.94,734.44,734.689,740.073,space,5.369,,740.073,5,70,741.07,741.07,741.073,,,,0,17,17,17,1,160,85,,,,,,,,
,,64afa022cb6d2497bf0a9950,65af625aebaa6ae4e2c757f8,2024-01-23_07h54.21.831,bars,2023.2.3,MacIntel,60.0240096,657b66ea316d21385b68909f,,,,,,,,,,,741.074,742.072,,,742.573,742.823,,132,132,,,,,,,,,,,,,,,,bars/024.png,bars/mask008.png,,,,,,,,,,,,1,1,,,,,,,2,10,1,9,,,,,,,,,,,742.073,742.573,742.823,747.006,space,4.168,,747.006,12,38,748.005,748.005,748.008,,,,0,18,18,18,1,120,170,,,,,,,,
,,64afa022cb6d2497bf0a9950,65af625aebaa6ae4e2c757f8,2024-01-23_07h54.21.831,bars,2023.2.3,MacIntel,60.0240096,657b66ea316d21385b68909f,,,,,,,,,,,748.008,749.007,,,749.506,749.756,,114,114,,,,,,,,,,,,,,,,bars/045.png,bars/mask002.png,,,,,,,,,,,,0,1,,,,,,,0,8,0,8,,,,,,,,,,,749.007,749.506,749.756,752.506,space,2.734,,752.506,14,76,753.506,753.506,753.508,,,,0,19,19,19,1,100,10,,,,,,,,
,,64afa022cb6d2497bf0a9950,65af625aebaa6ae4e2c757f8,2024-01-23_07h54.21.831,bars,2023.2.3,MacIntel,60.0240096,657b66ea316d21385b68909f,,,,,,,,,,,753.508,754.506,,,755.007,755.256,,9,189,,,,,,,,,,,,,,,,bars/003.png,bars/mask001.png,,,,,,,,,,,,0,1,,,,,,,0,10,1,10,,,,,,,,,,,754.506,755.007,755.256,761.09,space,5.816,,761.09,16,49,762.089,762.089,762.091,,,,0,20,20,20,1,25,140,,,,,,,,
,,64afa022cb6d2497bf0a9950,65af625aebaa6ae4e2c757f8,2024-01-23_07h54.21.831,bars,2023.2.3,MacIntel,60.0240096,657b66ea316d21385b68909f,,,,,,,,,,,762.091,763.089,,,763.59,763.839,,144,144,,,,,,,,,,,,,,,,bars/003.png,bars/mask006.png,,,,,,,,,,,,8,2,,,,,,,0,10,0,9,,,,,,,,,,,763.089,763.59,763.839,765.341,space,1.483,,765.341,61,4,766.336,766.336,766.342,,,,0,21,21,21,1,25,140,,,,,,,,
,,64afa022cb6d2497bf0a9950,65af625aebaa6ae4e2c757f8,2024-01-23_07h54.21.831,bars,2023.2.3,MacIntel,60.0240096,657b66ea316d21385b68909f,,,,,,,,,,,766.343,767.337,,,767.839,768.09,,127,127,,,,,,,,,,,,,,,,bars/028.png,bars/mask008.png,,,,,,,,,,,,8,2,,,,,,,2,10,2,10,,,,,,,,,,,767.337,767.839,768.09,771.237,space,3.134,,771.237,82,7,772.238,772.238,772.24,,,,0,22,22,22,1,45,120,,,,,,,,
,,64afa022cb6d2497bf0a9950,65af625aebaa6ae4e2c757f8,2024-01-23_07h54.21.831,bars,2023.2.3,MacIntel,60.0240096,657b66ea316d21385b68909f,,,,,,,,,,,772.24,773.24,,,773.739,773.989,,179,-1,,,,,,,,,,,,,,,,bars/015.png,bars/mask008.png,,,,,,,,,,,,3,2,,,,,,,4,10,3,9,,,,,,,,,,,773.24,773.739,773.989,779.073,space,5.067,,779.073,69,19,780.072,780.072,780.073,,,,0,23,23,23,1,110,160,,,,,,,,
,,64afa022cb6d2497bf0a9950,65af625aebaa6ae4e2c757f8,2024-01-23_07h54.21.831,bars,2023.2.3,MacIntel,60.0240096,657b66ea316d21385b68909f,,,,,,,,,,,780.073,781.071,,,781.569,781.821,,115,115,,,,,,,,,,,,,,,,bars/028.png,bars/mask001.png,,,,,,,,,,,,7,2,,,,,,,2,10,2,8,,,,,,,,,,,781.071,781.569,781.821,785.39,space,3.55,,785.39,70,5,786.388,786.388,786.391,,,,0,24,24,24,1,45,120,,,,,,,,
,,64afa022cb6d2497bf0a9950,65af625aebaa6ae4e2c757f8,2024-01-23_07h54.21.831,bars,2023.2.3,MacIntel,60.0240096,657b66ea316d21385b68909f,,,,,,,,,,,786.391,787.389,,,787.887,788.139,,25,25,,,,,,,,,,,,,,,,bars/012.png,bars/mask004.png,,,,,,,,,,,,7,2,,,,,,,0,10,0,10,,,,,,,,,,,787.389,787.887,788.139,789.489,space,1.333,,789.489,65,10,790.49,790.49,790.491,,,,0,25,25,25,1,90,15,,,,,,,,
,,64afa022cb6d2497bf0a9950,65af625aebaa6ae4e2c757f8,2024-01-23_07h54.21.831,bars,2023.2.3,MacIntel,60.0240096,657b66ea316d21385b68909f,,,,,,,,,,,790.491,791.489,,,791.989,792.237,,50,50,,,,,,,,,,,,,,,,bars/034.png,bars/mask005.png,,,,,,,,,,,,5,2,,,,,,,0,10,0,10,,,,,,,,,,,791.489,791.989,792.237,793.836,space,1.583,,793.836,75,15,794.84,794.84,794.841,,,,0,26,26,26,1,125,65,,,,,,,,
,,64afa022cb6d2497bf0a9950,65af625aebaa6ae4e2c757f8,2024-01-23_07h54.21.831,bars,2023.2.3,MacIntel,60.0240096,657b66ea316d21385b68909f,,,,,,,,,,,794.841,795.84,,,796.339,796.589,,1,1,,,,,,,,,,,,,,,,bars/020.png,bars/mask002.png,,,,,,,,,,,,4,2,,,,,,,0,8,0,6,,,,,,,,,,,795.84,796.339,796.589,801.924,space,5.315,,801.924,66,11,802.923,802.923,802.927,,,,0,27,27,27,1,115,170,,,,,,,,
,,64afa022cb6d2497bf0a9950,65af625aebaa6ae4e2c757f8,2024-01-23_07h54.21.831,bars,2023.2.3,MacIntel,60.0240096,657b66ea316d21385b68909f,,,,,,,,,,,802.928,803.92,,,804.424,804.673,,78,78,,,,,,,,,,,,,,,,bars/011.png,bars/mask008.png,,,,,,,,,,,,4,2,,,,,,,2,6,2,5,,,,,,,,,,,803.92,804.424,804.673,808.49,space,3.8,,808.49,82,7,809.491,809.491,809.493,,,,0,28,28,28,1,160,85,,,,,,,,
,,64afa022cb6d2497bf0a9950,65af625aebaa6ae4e2c757f8,2024-01-23_07h54.21.831,bars,2023.2.3,MacIntel,60.0240096,657b66ea316d21385b68909f,,,,,,,,,,,809.493,810.488,,,810.99,811.24,,178,-2,,,,,,,,,,,,,,,,bars/040.png,bars/mask000.png,,,,,,,,,,,,6,2,,,,,,,0,8,0,8,,,,,,,,,,,810.488,810.99,811.24,818.373,space,7.119,,818.373,38,7,819.372,819.372,819.373,,,,0,29,29,29,1,140,5,,,,,,,,
,,64afa022cb6d2497bf0a9950,65af625aebaa6ae4e2c757f8,2024-01-23_07h54.21.831,bars,2023.2.3,MacIntel,60.0240096,657b66ea316d21385b68909f,,,,,,,,,,,819.373,820.369,,,820.871,821.122,,54,54,,,,,,,,,,,,,,,,bars/025.png,bars/mask004.png,,,,,,,,,,,,4,2,,,,,,,0,6,0,7,,,,,,,,,,,820.369,820.871,821.123,824.273,space,3.133,,824.273,51,14,825.273,825.273,825.274,,,,0,30,30,30,1,105,40,,,,,,,,
,,64afa022cb6d2497bf0a9950,65af625aebaa6ae4e2c757f8,2024-01-23_07h54.21.831,bars,2023.2.3,MacIntel,60.0240096,657b66ea316d21385b68909f,,,,,,,,,,,825.274,826.269,,,826.772,827.023,,84,84,,,,,,,,,,,,,,,,bars/029.png,bars/mask009.png,,,,,,,,,,,,1,1,,,,,,,0,8,1,10,,,,,,,,,,,826.269,826.772,827.023,831.104,space,4.067,,831.104,6,39,832.107,832.107,832.117,,,,0,31,31,31,1,90,45,,,,,,,,
,,64afa022cb6d2497bf0a9950,65af625aebaa6ae4e2c757f8,2024-01-23_07h54.21.831,bars,2023.2.3,MacIntel,60.0240096,657b66ea316d21385b68909f,,,,,,,,,,,832.118,833.107,,,833.606,833.856,,40,40,,,,,,,,,,,,,,,,bars/010.png,bars/mask000.png,,,,,,,,,,,,5,2,,,,,,,0,10,0,10,,,,,,,,,,,833.107,833.606,833.856,836.922,space,3.054,,836.922,55,15,837.923,837.923,837.928,,,,0,32,32,32,1,165,55,,,,,,,,
,,64afa022cb6d2497bf0a9950,65af625aebaa6ae4e2c757f8,2024-01-23_07h54.21.831,bars,2023.2.3,MacIntel,60.0240096,657b66ea316d21385b68909f,,,,,,,,,,,837.928,838.92,,,839.424,839.671,,49,49,,,,,,,,,,,,,,,,bars/010.png,bars/mask006.png,,,,,,,,,,,,7,2,,,,,,,0,10,0,9,,,,,,,,,,,838.92,839.424,839.671,846.64,space,6.951,,846.64,64,6,847.639,847.639,847.641,,,,0,33,33,33,1,165,55,,,,,,,,
,,64afa022cb6d2497bf0a9950,65af625aebaa6ae4e2c757f8,2024-01-23_07h54.21.831,bars,2023.2.3,MacIntel,60.0240096,657b66ea316d21385b68909f,,,,,,,,,,,847.642,848.639,,,849.14,849.388,,79,79,,,,,,,,,,,,,,,,bars/046.png,bars/mask001.png,,,,,,,,,,,,6,2,,,,,,,2,8,1,7,,,,,,,,,,,848.639,849.14,849.388,852.723,space,3.319,,852.723,76,6,853.724,853.724,853.726,,,,0,34,34,34,1,155,85,,,,,,,,
,,64afa022cb6d2497bf0a9950,65af625aebaa6ae4e2c757f8,2024-01-23_07h54.21.831,bars,2023.2.3,MacIntel,60.0240096,657b66ea316d21385b68909f,,,,,,,,,,,853.727,854.723,,,855.222,855.47,,61,61,,,,,,,,,,,,,,,,bars/027.png,bars/mask002.png,,,,,,,,,,,,4,2,,,,,,,0,6,0,7,,,,,,,,,,,854.723,855.222,855.47,857.94,space,2.451,,857.94,49,11,858.939,858.939,858.94,,,,0,35,35,35,1,110,50,,,,,,,,
,,64afa022cb6d2497bf0a9950,65af625aebaa6ae4e2c757f8,2024-01-23_07h54.21.831,bars,2023.2.3,MacIntel,60.0240096,657b66ea316d21385b68909f,,,,,,,,,,,858.941,859.939,,,860.44,860.687,,96,96,,,,,,,,,,,,,,,,bars/011.png,bars/mask006.png,,,,,,,,,,,,5,2,,,,,,,0,8,2,8,,,,,,,,,,,859.939,860.44,860.687,863.823,space,3.121,,863.823,64,11,864.823,864.823,864.825,,,,0,36,36,36,1,160,85,,,,,,,,
,,64afa022cb6d2497bf0a9950,65af625aebaa6ae4e2c757f8,2024-01-23_07h54.21.831,bars,2023.2.3,MacIntel,60.0240096,657b66ea316d21385b68909f,,,,,,,,,,,864.825,865.824,,,866.32,866.573,,52,52,,,,,,,,,,,,,,,,bars/028.png,bars/mask007.png,,,,,,,,,,,,0,1,,,,,,,0,6,0,7,,,,,,,,,,,865.824,866.32,866.573,868.569,space,1.984,,868.569,7,68,869.57,869.57,869.574,,,,0,37,37,37,1,45,120,,,,,,,,
,,64afa022cb6d2497bf0a9950,65af625aebaa6ae4e2c757f8,2024-01-23_07h54.21.831,bars,2023.2.3,MacIntel,60.0240096,657b66ea316d21385b68909f,,,,,,,,,,,869.575,870.572,,,871.071,871.323,,131,131,,,,,,,,,,,,,,,,bars/049.png,bars/mask005.png,,,,,,,,,,,,4,2,,,,,,,0,8,1,9,,,,,,,,,,,870.572,871.07,871.323,873.438,space,2.101,,873.438,29,16,874.439,874.439,874.443,,,,0,38,38,38,1,160,115,,,,,,,,
,,64afa022cb6d2497bf0a9950,65af625aebaa6ae4e2c757f8,2024-01-23_07h54.21.831,bars,2023.2.3,MacIntel,60.0240096,657b66ea316d21385b68909f,,,,,,,,,,,874.444,875.437,,,875.939,876.188,,171,171,,,,,,,,,,,,,,,,bars/004.png,bars/mask001.png,,,,,,,,,,,,0,1,,,,,,,2,6,2,7,,,,,,,,,,,875.438,875.939,876.188,879.706,space,3.503,,879.707,34,46,880.705,880.706,880.709,,,,0,39,39,39,1,25,125,,,,,,,,
,,64afa022cb6d2497bf0a9950,65af625aebaa6ae4e2c757f8,2024-01-23_07h54.21.831,bars,2023.2.3,MacIntel,60.0240096,657b66ea316d21385b68909f,,,,,,,,,,,880.709,881.705,,,882.204,882.457,,0,180,,,,,,,,,,,,,,,,bars/041.png,bars/mask007.png,,,,,,,,,,,,2,1,,,,,,,4,4,5,3,,,,,,,,,,,881.706,882.204,882.457,887.854,space,5.386,,887.854,20,85,888.856,888.856,888.858,,,,0,40,40,40,1,20,85,,,,,,,,
,,64afa022cb6d2497bf0a9950,65af625aebaa6ae4e2c757f8,2024-01-23_07h54.21.831,bars,2023.2.3,MacIntel,60.0240096,657b66ea316d21385b68909f,,,,,,,,,,,888.859,889.856,,,890.356,890.605,,4,4,,,,,,,,,,,,,,,,bars/045.png,bars/mask002.png,,,,,,,,,,,,6,2,,,,,,,2,6,1,7,,,,,,,,,,,889.856,890.356,890.606,894.907,space,4.292,,894.907,84,6,895.905,895.905,895.907,,,,0,41,41,41,1,100,10,,,,,,,,
,,64afa022cb6d2497bf0a9950,65af625aebaa6ae4e2c757f8,2024-01-23_07h54.21.831,bars,2023.2.3,MacIntel,60.0240096,657b66ea316d21385b68909f,,,,,,,,,,,895.907,896.905,,,897.407,897.656,,30,210,,,,,,,,,,,,,,,,bars/017.png,bars/mask005.png,,,,,,,,,,,,2,2,,,,,,,4,4,3,3,,,,,,,,,,,896.905,897.407,897.656,901.755,space,4.082,,901.755,65,15,902.758,902.758,902.763,,,,0,42,42,42,1,145,45,,,,,,,,
,,64afa022cb6d2497bf0a9950,65af625aebaa6ae4e2c757f8,2024-01-23_07h54.21.831,bars,2023.2.3,MacIntel,60.0240096,657b66ea316d21385b68909f,,,,,,,,,,,902.764,903.755,,,904.256,904.507,,90,90,,,,,,,,,,,,,,,,bars/019.png,bars/mask009.png,,,,,,,,,,,,3,2,,,,,,,2,6,4,6,,,,,,,,,,,903.755,904.256,904.507,911.586,space,7.067,,911.586,45,15,912.59,912.59,912.592,,,,0,43,43,43,1,45,105,,,,,,,,
,,64afa022cb6d2497bf0a9950,65af625aebaa6ae4e2c757f8,2024-01-23_07h54.21.831,bars,2023.2.3,MacIntel,60.0240096,657b66ea316d21385b68909f,,,,,,,,,,,912.592,913.587,,,914.089,914.34,,168,-12,,,,,,,,,,,,,,,,bars/024.png,bars/mask002.png,,,,,,,,,,,,7,2,,,,,,,0,8,0,8,,,,,,,,,,,913.587,914.089,914.34,921.837,space,7.488,,921.837,48,2,922.84,922.84,922.843,,,,0,44,44,44,1,120,170,,,,,,,,
,,64afa022cb6d2497bf0a9950,65af625aebaa6ae4e2c757f8,2024-01-23_07h54.21.831,bars,2023.2.3,MacIntel,60.0240096,657b66ea316d21385b68909f,,,,,,,,,,,922.843,923.839,,,924.34,924.589,,137,137,,,,,,,,,,,,,,,,bars/049.png,bars/mask008.png,,,,,,,,,,,,2,2,,,,,,,2,6,1,7,,,,,,,,,,,923.839,924.34,924.589,928.003,space,3.401,,928.003,23,22,929.006,929.006,929.008,,,,0,45,45,45,1,160,115,,,,,,,,
,,64afa022cb6d2497bf0a9950,65af625aebaa6ae4e2c757f8,2024-01-23_07h54.21.831,bars,2023.2.3,MacIntel,60.0240096,657b66ea316d21385b68909f,,,,,,,,,,,929.008,930.006,,,930.506,930.756,,111,111,,,,,,,,,,,,,,,,bars/009.png,bars/mask003.png,,,,,,,,,,,,3,2,,,,,,,0,4,0,4,,,,,,,,,,,930.006,930.506,930.756,933.34,space,2.567,,933.34,84,6,934.34,934.34,934.346,,,,0,46,46,46,1,15,105,,,,,,,,
,,64afa022cb6d2497bf0a9950,65af625aebaa6ae4e2c757f8,2024-01-23_07h54.21.831,bars,2023.2.3,MacIntel,60.0240096,657b66ea316d21385b68909f,,,,,,,,,,,934.346,935.337,,,935.84,936.087,,116,116,,,,,,,,,,,,,,,,bars/006.png,bars/mask000.png,,,,,,,,,,,,3,2,,,,,,,2,6,2,6,,,,,,,,,,,935.337,935.84,936.087,944.555,space,8.451,,944.556,81,16,945.556,945.556,945.559,,,,0,47,47,47,1,35,100,,,,,,,,
,,64afa022cb6d2497bf0a9950,65af625aebaa6ae4e2c757f8,2024-01-23_07h54.21.831,bars,2023.2.3,MacIntel,60.0240096,657b66ea316d21385b68909f,,,,,,,,,,,945.56,946.556,,,947.056,947.305,,154,154,,,,,,,,,,,,,,,,bars/000.png,bars/mask004.png,,,,,,,,,,,,2,2,,,,,,,0,4,0,3,,,,,,,,,,,946.556,947.056,947.305,949.156,space,1.833,,949.156,66,9,950.156,950.156,950.158,,,,0,48,48,48,1,40,145,,,,,,,,
,,64afa022cb6d2497bf0a9950,65af625aebaa6ae4e2c757f8,2024-01-23_07h54.21.831,bars,2023.2.3,MacIntel,60.0240096,657b66ea316d21385b68909f,,,,,,,,,,,950.159,951.157,,,951.657,951.907,,47,47,,,,,,,,,,,,,,,,bars/025.png,bars/mask003.png,,,,,,,,,,,,2,2,,,,,,,2,2,2,3,,,,,,,,,,,951.157,951.656,951.907,954.939,space,3.017,,954.939,58,7,955.94,955.94,955.942,,,,0,49,49,49,1,105,40,,,,,,,,
,,64afa022cb6d2497bf0a9950,65af625aebaa6ae4e2c757f8,2024-01-23_07h54.21.831,bars,2023.2.3,MacIntel,60.0240096,657b66ea316d21385b68909f,,,,,,,,,,,,,,,,,,,,,,,,,,,,,,,,,,,,,,,,,,,,,,,,,,,,,,,,,,,,,,,,,,,,,,,,,,,,,,,,,,,,,,,,,,,,,955.942,1015.94,0,1,1,4,1,sequence_tables/blk043.csv
,,64afa022cb6d2497bf0a9950,65af625aebaa6ae4e2c757f8,2024-01-23_07h54.21.831,bars,2023.2.3,MacIntel,60.0240096,657b66ea316d21385b68909f,,,,,,,,,,,1018.365,1019.357,,,1019.855,1020.106,,48,48,,,,,,,,,,,,,,,,bars/030.png,bars/mask007.png,,,,,,,,,,,,2,2,,,,,,,3,6,4,4,,,,,,1015.942,1018.358,space,2.395,,1019.357,1019.855,1020.106,1021.807,space,1.683,,1021.807,88,17,1022.803,1022.803,1022.807,,,,0,0,0,0,1,140,65,,,,,,,,
,,64afa022cb6d2497bf0a9950,65af625aebaa6ae4e2c757f8,2024-01-23_07h54.21.831,bars,2023.2.3,MacIntel,60.0240096,657b66ea316d21385b68909f,,,,,,,,,,,1022.808,1023.807,,,1024.307,1024.556,,82,82,,,,,,,,,,,,,,,,bars/034.png,bars/mask005.png,,,,,,,,,,,,1,2,,,,,,,1,4,1,2,,,,,,,,,,,1023.807,1024.307,1024.556,1030.737,space,6.171,,1030.737,43,17,1031.737,1031.737,1031.74,,,,0,1,1,1,1,125,65,,,,,,,,
,,64afa022cb6d2497bf0a9950,65af625aebaa6ae4e2c757f8,2024-01-23_07h54.21.831,bars,2023.2.3,MacIntel,60.0240096,657b66ea316d21385b68909f,,,,,,,,,,,1031.74,1032.739,,,1033.24,1033.487,,95,95,,,,,,,,,,,,,,,,bars/039.png,bars/mask003.png,,,,,,,,,,,,2,2,,,,,,,0,2,0,3,,,,,,,,,,,1032.739,1033.24,1033.487,1040.542,space,7.038,,1040.542,80,10,1041.54,1041.541,1041.546,,,,0,2,2,2,1,175,105,,,,,,,,
,,64afa022cb6d2497bf0a9950,65af625aebaa6ae4e2c757f8,2024-01-23_07h54.21.831,bars,2023.2.3,MacIntel,60.0240096,657b66ea316d21385b68909f,,,,,,,,,,,1041.547,1042.54,,,1043.039,1043.287,,1,181,,,,,,,,,,,,,,,,bars/012.png,bars/mask001.png,,,,,,,,,,,,1,2,,,,,,,2,0,1,1,,,,,,,,,,,1042.54,1043.039,1043.287,1048.707,space,5.4,,1048.707,89,14,1049.705,1049.705,1049.708,,,,0,3,3,3,1,90,15,,,,,,,,
,,64afa022cb6d2497bf0a9950,65af625aebaa6ae4e2c757f8,2024-01-23_07h54.21.831,bars,2023.2.3,MacIntel,60.0240096,657b66ea316d21385b68909f,,,,,,,,,,,1049.708,1050.705,,,1051.206,1051.456,,1,181,,,,,,,,,,,,,,,,bars/048.png,bars/mask001.png,,,,,,,,,,,,1,2,,,,,,,0,0,0,1,,,,,,,,,,,1050.705,1051.206,1051.456,1055.006,space,3.534,,1055.006,49,6,1056.004,1056.004,1056.007,,,,0,4,4,4,1,50,175,,,,,,,,
,,64afa022cb6d2497bf0a9950,65af625aebaa6ae4e2c757f8,2024-01-23_07h54.21.831,bars,2023.2.3,MacIntel,60.0240096,657b66ea316d21385b68909f,,,,,,,,,,,1056.008,1057.006,,,1057.505,1057.755,,148,148,,,,,,,,,,,,,,,,bars/037.png,bars/mask005.png,,,,,,,,,,,,0,1,,,,,,,0,0,0,0,,,,,,,,,,,1057.006,1057.505,1057.756,1058.639,space,0.866,,1058.639,2,43,1059.64,1059.64,1059.645,,,,0,5,5,5,1,150,105,,,,,,,,
,,64afa022cb6d2497bf0a9950,65af625aebaa6ae4e2c757f8,2024-01-23_07h54.21.831,bars,2023.2.3,MacIntel,60.0240096,657b66ea316d21385b68909f,,,,,,,,,,,1059.645,1060.639,,,1061.139,1061.39,,117,117,,,,,,,,,,,,,,,,bars/020.png,bars/mask007.png,,,,,,,,,,,,2,1,,,,,,,0,2,2,3,,,,,,,,,,,1060.639,1061.138,1061.39,1063.672,space,2.268,,1063.673,2,53,1064.673,1064.673,1064.674,,,,0,6,6,6,1,115,170,,,,,,,,
,,64afa022cb6d2497bf0a9950,65af625aebaa6ae4e2c757f8,2024-01-23_07h54.21.831,bars,2023.2.3,MacIntel,60.0240096,657b66ea316d21385b68909f,,,,,,,,,,,1064.674,1065.673,,,1066.172,1066.423,,3,3,,,,,,,,,,,,,,,,bars/010.png,bars/mask006.png,,,,,,,,,,,,0,1,,,,,,,2,0,1,0,,,,,,,,,,,1065.673,1066.172,1066.423,1070.455,space,4.018,,1070.456,18,52,1071.457,1071.457,1071.459,,,,0,7,7,7,1,165,55,,,,,,,,
,,64afa022cb6d2497bf0a9950,65af625aebaa6ae4e2c757f8,2024-01-23_07h54.21.831,bars,2023.2.3,MacIntel,60.0240096,657b66ea316d21385b68909f,,,,,,,,,,,1071.459,1072.456,,,1072.956,1073.207,,94,94,,,,,,,,,,,,,,,,bars/037.png,bars/mask000.png,,,,,,,,,,,,1,2,,,,,,,4,2,4,1,,,,,,,,,,,1072.456,1072.956,1073.207,1081.156,space,7.932,,1081.157,56,11,1082.155,1082.155,1082.16,,,,0,8,8,8,1,150,105,,,,,,,,
,,64afa022cb6d2497bf0a9950,65af625aebaa6ae4e2c757f8,2024-01-23_07h54.21.831,bars,2023.2.3,MacIntel,60.0240096,657b66ea316d21385b68909f,,,,,,,,,,,1082.16,1083.154,,,1083.657,1083.906,,53,233,,,,,,,,,,,,,,,,bars/034.png,bars/mask003.png,,,,,,,,,,,,0,2,,,,,,,2,0,2,0,,,,,,,,,,,1083.154,1083.656,1083.907,1091.889,space,7.968,,1091.889,72,12,1092.89,1092.89,1092.892,,,,0,9,9,9,1,125,65,,,,,,,,
,,64afa022cb6d2497bf0a9950,65af625aebaa6ae4e2c757f8,2024-01-23_07h54.21.831,bars,2023.2.3,MacIntel,60.0240096,657b66ea316d21385b68909f,,,,,,,,,,,1092.892,1093.889,,,1094.388,1094.64,,48,48,,,,,,,,,,,,,,,,bars/017.png,bars/mask008.png,,,,,,,,,,,,0,2,,,,,,,4,0,4,0,,,,,,,,,,,1093.889,1094.388,1094.64,1100.372,space,5.716,,1100.373,83,3,1101.373,1101.373,1101.374,,,,0,10,10,10,1,145,45,,,,,,,,
,,64afa022cb6d2497bf0a9950,65af625aebaa6ae4e2c757f8,2024-01-23_07h54.21.831,bars,2023.2.3,MacIntel,60.0240096,657b66ea316d21385b68909f,,,,,,,,,,,1101.375,1102.374,,,1102.873,1103.121,,70,70,,,,,,,,,,,,,,,,bars/027.png,bars/mask008.png,,,,,,,,,,,,0,2,,,,,,,6,0,6,0,,,,,,,,,,,1102.374,1102.873,1103.121,1104.573,space,1.432,,1104.573,40,20,1105.573,1105.573,1105.575,,,,0,11,11,11,1,110,50,,,,,,,,
,,64afa022cb6d2497bf0a9950,65af625aebaa6ae4e2c757f8,2024-01-23_07h54.21.831,bars,2023.2.3,MacIntel,60.0240096,657b66ea316d21385b68909f,,,,,,,,,,,1105.575,1106.571,,,1107.072,1107.322,,150,-30,,,,,,,,,,,,,,,,bars/017.png,bars/mask007.png,,,,,,,,,,,,4,1,,,,,,,4,0,5,1,,,,,,,,,,,1106.571,1107.072,1107.322,1113.92,space,6.587,,1113.92,5,75,1114.921,1114.921,1114.927,,,,0,12,12,12,1,145,45,,,,,,,,
,,64afa022cb6d2497bf0a9950,65af625aebaa6ae4e2c757f8,2024-01-23_07h54.21.831,bars,2023.2.3,MacIntel,60.0240096,657b66ea316d21385b68909f,,,,,,,,,,,1114.928,1115.923,,,1116.423,1116.672,,46,226,,,,,,,,,,,,,,,,bars/048.png,bars/mask004.png,,,,,,,,,,,,5,1,,,,,,,6,0,6,0,,,,,,,,,,,1115.923,1116.423,1116.672,1125.906,space,9.216,,1125.906,4,51,1126.906,1126.906,1126.91,,,,0,13,13,13,1,50,175,,,,,,,,
,,64afa022cb6d2497bf0a9950,65af625aebaa6ae4e2c757f8,2024-01-23_07h54.21.831,bars,2023.2.3,MacIntel,60.0240096,657b66ea316d21385b68909f,,,,,,,,,,,1126.91,1127.906,,,1128.407,1128.656,,70,70,,,,,,,,,,,,,,,,bars/014.png,bars/mask004.png,,,,,,,,,,,,3,1,,,,,,,4,0,4,0,,,,,,,,,,,1127.906,1128.407,1128.656,1134.656,space,5.986,,1134.656,10,70,1135.657,1135.657,1135.659,,,,0,14,14,14,1,80,0,,,,,,,,
,,64afa022cb6d2497bf0a9950,65af625aebaa6ae4e2c757f8,2024-01-23_07h54.21.831,bars,2023.2.3,MacIntel,60.0240096,657b66ea316d21385b68909f,,,,,,,,,,,1135.659,1136.658,,,1137.156,1137.406,,76,76,,,,,,,,,,,,,,,,bars/014.png,bars/mask007.png,,,,,,,,,,,,1,1,,,,,,,2,2,1,3,,,,,,,,,,,1136.658,1137.156,1137.406,1138.472,space,1.051,,1138.472,4,76,1139.474,1139.474,1139.475,,,,0,15,15,15,1,80,0,,,,,,,,
,,64afa022cb6d2497bf0a9950,65af625aebaa6ae4e2c757f8,2024-01-23_07h54.21.831,bars,2023.2.3,MacIntel,60.0240096,657b66ea316d21385b68909f,,,,,,,,,,,1139.477,1140.473,,,1140.974,1141.223,,146,146,,,,,,,,,,,,,,,,bars/042.png,bars/mask005.png,,,,,,,,,,,,5,1,,,,,,,4,4,5,5,,,,,,,,,,,1140.473,1140.974,1141.223,1149.223,space,7.984,,1149.223,1,71,1150.223,1150.223,1150.224,,,,0,16,16,16,1,145,75,,,,,,,,
,,64afa022cb6d2497bf0a9950,65af625aebaa6ae4e2c757f8,2024-01-23_07h54.21.831,bars,2023.2.3,MacIntel,60.0240096,657b66ea316d21385b68909f,,,,,,,,,,,1150.225,1151.221,,,1151.723,1151.97,,155,-25,,,,,,,,,,,,,,,,bars/046.png,bars/mask006.png,,,,,,,,,,,,4,1,,,,,,,6,6,4,6,,,,,,,,,,,1151.221,1151.723,1151.971,1157.572,space,5.585,,1157.572,0,70,1158.573,1158.573,1158.574,,,,0,17,17,17,1,155,85,,,,,,,,
,,64afa022cb6d2497bf0a9950,65af625aebaa6ae4e2c757f8,2024-01-23_07h54.21.831,bars,2023.2.3,MacIntel,60.0240096,657b66ea316d21385b68909f,,,,,,,,,,,1158.575,1159.572,,,1160.073,1160.323,,161,-19,,,,,,,,,,,,,,,,bars/046.png,bars/mask009.png,,,,,,,,,,,,7,1,,,,,,,8,4,9,4,,,,,,,,,,,1159.572,1160.073,1160.323,1168.206,space,7.87,,1168.206,6,76,1169.206,1169.206,1169.207,,,,0,18,18,18,1,155,85,,,,,,,,
,,64afa022cb6d2497bf0a9950,65af625aebaa6ae4e2c757f8,2024-01-23_07h54.21.831,bars,2023.2.3,MacIntel,60.0240096,657b66ea316d21385b68909f,,,,,,,,,,,1169.208,1170.207,,,1170.707,1170.957,,48,48,,,,,,,,,,,,,,,,bars/019.png,bars/mask008.png,,,,,,,,,,,,5,1,,,,,,,6,6,6,7,,,,,,,,,,,1170.207,1170.707,1170.957,1178.407,space,7.432,,1178.407,3,57,1179.404,1179.404,1179.407,,,,0,19,19,19,1,45,105,,,,,,,,
,,64afa022cb6d2497bf0a9950,65af625aebaa6ae4e2c757f8,2024-01-23_07h54.21.831,bars,2023.2.3,MacIntel,60.0240096,657b66ea316d21385b68909f,,,,,,,,,,,1179.408,1180.403,,,1180.906,1181.157,,0,0,,,,,,,,,,,,,,,,bars/007.png,bars/mask003.png,,,,,,,,,,,,3,1,,,,,,,4,8,4,6,,,,,,,,,,,1180.404,1180.906,1181.157,1185.173,space,4,,1185.173,5,55,1186.174,1186.174,1186.175,,,,0,20,20,20,1,175,55,,,,,,,,
,,64afa022cb6d2497bf0a9950,65af625aebaa6ae4e2c757f8,2024-01-23_07h54.21.831,bars,2023.2.3,MacIntel,60.0240096,657b66ea316d21385b68909f,,,,,,,,,,,1186.175,1187.173,,,1187.672,1187.923,,113,113,,,,,,,,,,,,,,,,bars/020.png,bars/mask008.png,,,,,,,,,,,,2,1,,,,,,,2,10,2,10,,,,,,,,,,,1187.173,1187.672,1187.923,1195.407,space,7.471,,1195.407,2,57,1196.405,1196.405,1196.406,,,,0,21,21,21,1,115,170,,,,,,,,
,,64afa022cb6d2497bf0a9950,65af625aebaa6ae4e2c757f8,2024-01-23_07h54.21.831,bars,2023.2.3,MacIntel,60.0240096,657b66ea316d21385b68909f,,,,,,,,,,,1196.407,1197.406,,,1197.906,1198.156,,133,133,,,,,,,,,,,,,,,,bars/024.png,bars/mask007.png,,,,,,,,,,,,0,1,,,,,,,0,8,0,8,,,,,,,,,,,1197.406,1197.906,1198.156,1207.99,space,9.816,,1207.99,13,37,1208.99,1208.99,1208.995,,,,0,22,22,22,1,120,170,,,,,,,,
,,64afa022cb6d2497bf0a9950,65af625aebaa6ae4e2c757f8,2024-01-23_07h54.21.831,bars,2023.2.3,MacIntel,60.0240096,657b66ea316d21385b68909f,,,,,,,,,,,1208.996,1209.989,,,1210.49,1210.736,,101,101,,,,,,,,,,,,,,,,bars/037.png,bars/mask005.png,,,,,,,,,,,,9,2,,,,,,,0,10,0,10,,,,,,,,,,,1209.989,1210.49,1210.737,1214.589,space,3.835,,1214.589,49,4,1215.59,1215.59,1215.595,,,,0,23,23,23,1,150,105,,,,,,,,
,,64afa022cb6d2497bf0a9950,65af625aebaa6ae4e2c757f8,2024-01-23_07h54.21.831,bars,2023.2.3,MacIntel,60.0240096,657b66ea316d21385b68909f,,,,,,,,,,,1215.595,1216.589,,,1217.089,1217.34,,113,113,,,,,,,,,,,,,,,,bars/023.png,bars/mask001.png,,,,,,,,,,,,9,2,,,,,,,0,10,0,10,,,,,,,,,,,1216.589,1217.089,1217.34,1219.423,space,2.067,,1219.423,87,2,1220.422,1220.422,1220.423,,,,0,24,24,24,1,20,115,,,,,,,,
,,64afa022cb6d2497bf0a9950,65af625aebaa6ae4e2c757f8,2024-01-23_07h54.21.831,bars,2023.2.3,MacIntel,60.0240096,657b66ea316d21385b68909f,,,,,,,,,,,1220.424,1221.42,,,1221.923,1222.173,,55,55,,,,,,,,,,,,,,,,bars/030.png,bars/mask002.png,,,,,,,,,,,,5,2,,,,,,,2,8,3,7,,,,,,,,,,,1221.42,1221.923,1222.173,1227.391,space,5.199,,1227.391,85,10,1228.39,1228.39,1228.391,,,,0,25,25,25,1,140,65,,,,,,,,
,,64afa022cb6d2497bf0a9950,65af625aebaa6ae4e2c757f8,2024-01-23_07h54.21.831,bars,2023.2.3,MacIntel,60.0240096,657b66ea316d21385b68909f,,,,,,,,,,,1228.391,1229.389,,,1229.889,1230.14,,39,219,,,,,,,,,,,,,,,,bars/025.png,bars/mask006.png,,,,,,,,,,,,6,2,,,,,,,0,6,0,6,,,,,,,,,,,1229.39,1229.889,1230.14,1236.99,space,6.836,,1236.99,66,1,1237.989,1237.989,1237.992,,,,0,26,26,26,1,105,40,,,,,,,,
,,64afa022cb6d2497bf0a9950,65af625aebaa6ae4e2c757f8,2024-01-23_07h54.21.831,bars,2023.2.3,MacIntel,60.0240096,657b66ea316d21385b68909f,,,,,,,,,,,1237.992,1238.99,,,1239.49,1239.74,,14,194,,,,,,,,,,,,,,,,bars/012.png,bars/mask003.png,,,,,,,,,,,,6,2,,,,,,,2,8,1,6,,,,,,,,,,,1238.99,1239.49,1239.74,1245.039,space,5.283,,1245.039,76,1,1246.038,1246.038,1246.039,,,,0,27,27,27,1,90,15,,,,,,,,
,,64afa022cb6d2497bf0a9950,65af625aebaa6ae4e2c757f8,2024-01-23_07h54.21.831,bars,2023.2.3,MacIntel,60.0240096,657b66ea316d21385b68909f,,,,,,,,,,,1246.039,1247.038,,,1247.54,1247.787,,92,92,,,,,,,,,,,,,,,,bars/001.png,bars/mask000.png,,,,,,,,,,,,4,2,,,,,,,4,6,3,5,,,,,,,,,,,1247.038,1247.54,1247.787,1250.973,space,3.17,,1250.973,38,7,1251.972,1251.973,1251.975,,,,0,28,28,28,1,130,85,,,,,,,,
,,64afa022cb6d2497bf0a9950,65af625aebaa6ae4e2c757f8,2024-01-23_07h54.21.831,bars,2023.2.3,MacIntel,60.0240096,657b66ea316d21385b68909f,,,,,,,,,,,1251.975,1252.973,,,1253.472,1253.723,,35,215,,,,,,,,,,,,,,,,bars/029.png,bars/mask004.png,,,,,,,,,,,,5,2,,,,,,,2,8,2,7,,,,,,,,,,,1252.973,1253.472,1253.723,1259.073,space,5.335,,1259.073,55,10,1260.072,1260.072,1260.073,,,,0,29,29,29,1,90,45,,,,,,,,
,,64afa022cb6d2497bf0a9950,65af625aebaa6ae4e2c757f8,2024-01-23_07h54.21.831,bars,2023.2.3,MacIntel,60.0240096,657b66ea316d21385b68909f,,,,,,,,,,,1260.073,1261.073,,,1261.573,1261.823,,42,222,,,,,,,,,,,,,,,,bars/007.png,bars/mask009.png,,,,,,,,,,,,6,2,,,,,,,0,10,1,10,,,,,,,,,,,1261.073,1261.573,1261.823,1266.623,space,4.783,,1266.623,47,13,1267.623,1267.623,1267.626,,,,0,30,30,30,1,175,55,,,,,,,,
,,64afa022cb6d2497bf0a9950,65af625aebaa6ae4e2c757f8,2024-01-23_07h54.21.831,bars,2023.2.3,MacIntel,60.0240096,657b66ea316d21385b68909f,,,,,,,,,,,1267.626,1268.622,,,1269.124,1269.373,,47,47,,,,,,,,,,,,,,,,bars/010.png,bars/mask005.png,,,,,,,,,,,,5,2,,,,,,,2,8,1,7,,,,,,,,,,,1268.622,1269.123,1269.373,1271.49,space,2.1,,1271.49,62,8,1272.488,1272.488,1272.491,,,,0,31,31,31,1,165,55,,,,,,,,
,,64afa022cb6d2497bf0a9950,65af625aebaa6ae4e2c757f8,2024-01-23_07h54.21.831,bars,2023.2.3,MacIntel,60.0240096,657b66ea316d21385b68909f,,,,,,,,,,,1272.492,1273.49,,,1273.99,1274.239,,54,54,,,,,,,,,,,,,,,,bars/027.png,bars/mask000.png,,,,,,,,,,,,5,2,,,,,,,0,6,0,6,,,,,,,,,,,1273.49,1273.989,1274.239,1278.972,space,4.716,,1278.972,56,4,1279.971,1279.971,1279.973,,,,0,32,32,32,1,110,50,,,,,,,,
,,64afa022cb6d2497bf0a9950,65af625aebaa6ae4e2c757f8,2024-01-23_07h54.21.831,bars,2023.2.3,MacIntel,60.0240096,657b66ea316d21385b68909f,,,,,,,,,,,1279.974,1280.973,,,1281.472,1281.724,,3,3,,,,,,,,,,,,,,,,bars/032.png,bars/mask000.png,,,,,,,,,,,,3,2,,,,,,,2,8,4,8,,,,,,,,,,,1280.973,1281.472,1281.724,1285.806,space,4.066,,1285.806,58,17,1286.807,1286.807,1286.809,,,,0,33,33,33,1,125,20,,,,,,,,
,,64afa022cb6d2497bf0a9950,65af625aebaa6ae4e2c757f8,2024-01-23_07h54.21.831,bars,2023.2.3,MacIntel,60.0240096,657b66ea316d21385b68909f,,,,,,,,,,,1286.809,1287.805,,,1288.305,1288.555,,44,44,,,,,,,,,,,,,,,,bars/035.png,bars/mask004.png,,,,,,,,,,,,5,2,,,,,,,0,10,0,10,,,,,,,,,,,1287.805,1288.305,1288.555,1289.923,space,1.348,,1289.923,49,16,1290.923,1290.923,1290.925,,,,0,34,34,34,1,175,60,,,,,,,,
,,64afa022cb6d2497bf0a9950,65af625aebaa6ae4e2c757f8,2024-01-23_07h54.21.831,bars,2023.2.3,MacIntel,60.0240096,657b66ea316d21385b68909f,,,,,,,,,,,1290.926,1291.923,,,1292.423,1292.673,,5,5,,,,,,,,,,,,,,,,bars/013.png,bars/mask009.png,,,,,,,,,,,,7,2,,,,,,,0,10,0,8,,,,,,,,,,,1291.923,1292.423,1292.673,1296.354,space,3.669,,1296.355,70,5,1297.355,1297.355,1297.357,,,,0,35,35,35,1,75,10,,,,,,,,
,,64afa022cb6d2497bf0a9950,65af625aebaa6ae4e2c757f8,2024-01-23_07h54.21.831,bars,2023.2.3,MacIntel,60.0240096,657b66ea316d21385b68909f,,,,,,,,,,,1297.357,1298.356,,,1298.857,1299.105,,4,184,,,,,,,,,,,,,,,,bars/048.png,bars/mask000.png,,,,,,,,,,,,6,2,,,,,,,0,10,0,9,,,,,,,,,,,1298.356,1298.857,1299.106,1306.172,space,7.055,,1306.172,46,9,1307.173,1307.173,1307.176,,,,0,36,36,36,1,50,175,,,,,,,,
,,64afa022cb6d2497bf0a9950,65af625aebaa6ae4e2c757f8,2024-01-23_07h54.21.831,bars,2023.2.3,MacIntel,60.0240096,657b66ea316d21385b68909f,,,,,,,,,,,1307.176,1308.173,,,1308.672,1308.923,,1,1,,,,,,,,,,,,,,,,bars/032.png,bars/mask006.png,,,,,,,,,,,,3,2,,,,,,,2,8,2,8,,,,,,,,,,,1308.173,1308.672,1308.923,1315.673,space,6.734,,1315.673,56,19,1316.67,1316.67,1316.672,,,,0,37,37,37,1,125,20,,,,,,,,
,,64afa022cb6d2497bf0a9950,65af625aebaa6ae4e2c757f8,2024-01-23_07h54.21.831,bars,2023.2.3,MacIntel,60.0240096,657b66ea316d21385b68909f,,,,,,,,,,,1316.672,1317.674,,,1318.173,1318.424,,179,179,,,,,,,,,,,,,,,,bars/048.png,bars/mask000.png,,,,,,,,,,,,6,2,,,,,,,0,6,0,7,,,,,,,,,,,1317.674,1318.173,1318.424,1320.789,space,2.349,,1320.789,51,4,1321.789,1321.789,1321.791,,,,0,38,38,38,1,50,175,,,,,,,,
,,64afa022cb6d2497bf0a9950,65af625aebaa6ae4e2c757f8,2024-01-23_07h54.21.831,bars,2023.2.3,MacIntel,60.0240096,657b66ea316d21385b68909f,,,,,,,,,,,1321.792,1322.79,,,1323.288,1323.54,,87,87,,,,,,,,,,,,,,,,bars/046.png,bars/mask006.png,,,,,,,,,,,,3,2,,,,,,,0,4,1,3,,,,,,,,,,,1322.79,1323.288,1323.54,1325.388,space,1.836,,1325.388,68,2,1326.389,1326.389,1326.394,,,,0,39,39,39,1,155,85,,,,,,,,
,,64afa022cb6d2497bf0a9950,65af625aebaa6ae4e2c757f8,2024-01-23_07h54.21.831,bars,2023.2.3,MacIntel,60.0240096,657b66ea316d21385b68909f,,,,,,,,,,,1326.396,1327.387,,,1327.89,1328.14,,102,-78,,,,,,,,,,,,,,,,bars/009.png,bars/mask009.png,,,,,,,,,,,,5,2,,,,,,,0,6,1,6,,,,,,,,,,,1327.387,1327.89,1328.14,1336.84,space,8.683,,1336.84,87,3,1337.839,1337.839,1337.842,,,,0,40,40,40,1,15,105,,,,,,,,
,,64afa022cb6d2497bf0a9950,65af625aebaa6ae4e2c757f8,2024-01-23_07h54.21.831,bars,2023.2.3,MacIntel,60.0240096,657b66ea316d21385b68909f,,,,,,,,,,,1337.842,1338.839,,,1339.341,1339.59,,5,185,,,,,,,,,,,,,,,,bars/040.png,bars/mask001.png,,,,,,,,,,,,3,2,,,,,,,2,4,2,3,,,,,,,,,,,1338.84,1339.341,1339.59,1347.889,space,8.289,,1347.889,45,0,1348.888,1348.888,1348.889,,,,0,41,41,41,1,140,5,,,,,,,,
,,64afa022cb6d2497bf0a9950,65af625aebaa6ae4e2c757f8,2024-01-23_07h54.21.831,bars,2023.2.3,MacIntel,60.0240096,657b66ea316d21385b68909f,,,,,,,,,,,1348.889,1349.89,,,1350.388,1350.638,,1,181,,,,,,,,,,,,,,,,bars/014.png,bars/mask006.png,,,,,,,,,,,,7,2,,,,,,,4,6,3,7,,,,,,,,,,,1349.89,1350.388,1350.638,1356.006,space,5.353,,1356.006,79,1,1357.004,1357.004,1357.011,,,,0,42,42,42,1,80,0,,,,,,,,
,,64afa022cb6d2497bf0a9950,65af625aebaa6ae4e2c757f8,2024-01-23_07h54.21.831,bars,2023.2.3,MacIntel,60.0240096,657b66ea316d21385b68909f,,,,,,,,,,,1357.012,1358.004,,,1358.507,1358.757,,54,54,,,,,,,,,,,,,,,,bars/010.png,bars/mask007.png,,,,,,,,,,,,4,2,,,,,,,2,4,3,4,,,,,,,,,,,1358.004,1358.507,1358.757,1364.054,space,5.288,,1364.054,69,1,1365.056,1365.056,1365.059,,,,0,43,43,43,1,165,55,,,,,,,,
,,64afa022cb6d2497bf0a9950,65af625aebaa6ae4e2c757f8,2024-01-23_07h54.21.831,bars,2023.2.3,MacIntel,60.0240096,657b66ea316d21385b68909f,,,,,,,,,,,1365.06,1366.053,,,1366.557,1366.805,,109,109,,,,,,,,,,,,,,,,bars/028.png,bars/mask001.png,,,,,,,,,,,,0,2,,,,,,,0,2,0,0,,,,,,,,,,,1366.053,1366.557,1366.805,1375.071,space,8.253,,1375.071,64,11,1376.072,1376.072,1376.074,,,,0,44,44,44,1,45,120,,,,,,,,
,,64afa022cb6d2497bf0a9950,65af625aebaa6ae4e2c757f8,2024-01-23_07h54.21.831,bars,2023.2.3,MacIntel,60.0240096,657b66ea316d21385b68909f,,,,,,,,,,,1376.074,1377.073,,,1377.572,1377.823,,93,-87,,,,,,,,,,,,,,,,bars/018.png,bars/mask004.png,,,,,,,,,,,,3,2,,,,,,,2,4,2,3,,,,,,,,,,,1377.073,1377.572,1377.824,1385.972,space,8.133,,1385.972,57,3,1386.973,1386.973,1386.975,,,,0,45,45,45,1,150,90,,,,,,,,
,,64afa022cb6d2497bf0a9950,65af625aebaa6ae4e2c757f8,2024-01-23_07h54.21.831,bars,2023.2.3,MacIntel,60.0240096,657b66ea316d21385b68909f,,,,,,,,,,,1386.975,1387.973,,,1388.473,1388.723,,2,182,,,,,,,,,,,,,,,,bars/045.png,bars/mask009.png,,,,,,,,,,,,4,2,,,,,,,4,6,4,6,,,,,,,,,,,1387.973,1388.473,1388.724,1394.053,space,5.316,,1394.054,82,8,1395.056,1395.057,1395.063,,,,0,46,46,46,1,100,10,,,,,,,,
,,64afa022cb6d2497bf0a9950,65af625aebaa6ae4e2c757f8,2024-01-23_07h54.21.831,bars,2023.2.3,MacIntel,60.0240096,657b66ea316d21385b68909f,,,,,,,,,,,1395.063,1396.057,,,1396.556,1396.805,,95,95,,,,,,,,,,,,,,,,bars/001.png,bars/mask005.png,,,,,,,,,,,,5,2,,,,,,,2,8,2,7,,,,,,,,,,,1396.057,1396.556,1396.805,1403.657,space,6.832,,1403.657,35,10,1404.656,1404.656,1404.657,,,,0,47,47,47,1,130,85,,,,,,,,
,,64afa022cb6d2497bf0a9950,65af625aebaa6ae4e2c757f8,2024-01-23_07h54.21.831,bars,2023.2.3,MacIntel,60.0240096,657b66ea316d21385b68909f,,,,,,,,,,,1404.657,1405.656,,,1406.157,1406.407,,11,191,,,,,,,,,,,,,,,,bars/012.png,bars/mask002.png,,,,,,,,,,,,4,2,,,,,,,4,6,2,5,,,,,,,,,,,1405.656,1406.156,1406.407,1408.238,space,1.817,,1408.238,79,4,1409.237,1409.237,1409.238,,,,0,48,48,48,1,90,15,,,,,,,,
,,64afa022cb6d2497bf0a9950,65af625aebaa6ae4e2c757f8,2024-01-23_07h54.21.831,bars,2023.2.3,MacIntel,60.0240096,657b66ea316d21385b68909f,,,,,,,,,,,1409.239,1410.239,,,1410.74,1410.987,,26,26,,,,,,,,,,,,,,,,bars/007.png,bars/mask004.png,,,,,,,,,,,,0,2,,,,,,,2,8,1,8,,,,,,,,,,,1410.239,1410.74,1410.987,1412.956,space,1.951,,1412.956,31,29,1413.956,1413.956,1413.958,,,,0,49,49,49,1,175,55,,,,,,,,
,,64afa022cb6d2497bf0a9950,65af625aebaa6ae4e2c757f8,2024-01-23_07h54.21.831,bars,2023.2.3,MacIntel,60.0240096,657b66ea316d21385b68909f,,,,,,,,,,,,,,,,,,,,,,,,,,,,,,,,,,,,,,,,,,,,,,,,,,,,,,,,,,,,,,,,,,,,,,,,,,,,,,,,,,,,,,,,,,,,,1413.958,1473.954,0,2,2,3,1,sequence_tables/blk042.csv
,,64afa022cb6d2497bf0a9950,65af625aebaa6ae4e2c757f8,2024-01-23_07h54.21.831,bars,2023.2.3,MacIntel,60.0240096,657b66ea316d21385b68909f,,,,,,,,,,,1475.56,1476.554,,,1477.057,1477.306,,67,67,,,,,,,,,,,,,,,,bars/042.png,bars/mask007.png,,,,,,,,,,,,4,2,,,,,,,10,7,10,6,,,,,,1473.957,1475.556,space,1.58,,1476.554,1477.057,1477.306,1479.989,space,2.667,,1479.989,78,8,1480.986,1480.986,1480.988,,,,0,0,0,0,1,145,75,,,,,,,,
,,64afa022cb6d2497bf0a9950,65af625aebaa6ae4e2c757f8,2024-01-23_07h54.21.831,bars,2023.2.3,MacIntel,60.0240096,657b66ea316d21385b68909f,,,,,,,,,,,1480.988,1481.989,,,1482.489,1482.739,,152,-28,,,,,,,,,,,,,,,,bars/015.png,bars/mask009.png,,,,,,,,,,,,4,2,,,,,,,8,5,5,5,,,,,,,,,,,1481.989,1482.489,1482.739,1487.257,space,4.503,,1487.258,42,8,1488.256,1488.256,1488.259,,,,0,1,1,1,1,110,160,,,,,,,,
,,64afa022cb6d2497bf0a9950,65af625aebaa6ae4e2c757f8,2024-01-23_07h54.21.831,bars,2023.2.3,MacIntel,60.0240096,657b66ea316d21385b68909f,,,,,,,,,,,1488.259,1489.257,,,1489.756,1490.003,,56,56,,,,,,,,,,,,,,,,bars/010.png,bars/mask007.png,,,,,,,,,,,,3,2,,,,,,,10,3,10,3,,,,,,,,,,,1489.257,1489.756,1490.003,1497.107,space,7.087,,1497.107,71,1,1498.107,1498.107,1498.11,,,,0,2,2,2,1,165,55,,,,,,,,
,,64afa022cb6d2497bf0a9950,65af625aebaa6ae4e2c757f8,2024-01-23_07h54.21.831,bars,2023.2.3,MacIntel,60.0240096,657b66ea316d21385b68909f,,,,,,,,,,,1498.11,1499.107,,,1499.606,1499.857,,93,93,,,,,,,,,,,,,,,,bars/041.png,bars/mask008.png,,,,,,,,,,,,1,2,,,,,,,10,1,10,1,,,,,,,,,,,1499.107,1499.606,1499.857,1502.77,space,2.899,,1502.77,73,8,1503.773,1503.773,1503.774,,,,0,3,3,3,1,20,85,,,,,,,,
,,64afa022cb6d2497bf0a9950,65af625aebaa6ae4e2c757f8,2024-01-23_07h54.21.831,bars,2023.2.3,MacIntel,60.0240096,657b66ea316d21385b68909f,,,,,,,,,,,1503.774,1504.773,,,1505.271,1505.522,,146,146,,,,,,,,,,,,,,,,bars/030.png,bars/mask007.png,,,,,,,,,,,,6,1,,,,,,,8,3,7,4,,,,,,,,,,,1504.773,1505.271,1505.522,1507.34,space,1.795,,1507.34,6,81,1508.339,1508.34,1508.343,,,,0,4,4,4,1,140,65,,,,,,,,
,,64afa022cb6d2497bf0a9950,65af625aebaa6ae4e2c757f8,2024-01-23_07h54.21.831,bars,2023.2.3,MacIntel,60.0240096,657b66ea316d21385b68909f,,,,,,,,,,,1508.343,1509.337,,,1509.839,1510.088,,130,130,,,,,,,,,,,,,,,,bars/034.png,bars/mask007.png,,,,,,,,,,,,8,1,,,,,,,10,5,9,4,,,,,,,,,,,1509.337,1509.838,1510.089,1512.806,space,2.705,,1512.806,5,65,1513.805,1513.806,1513.808,,,,0,5,5,5,1,125,65,,,,,,,,
,,64afa022cb6d2497bf0a9950,65af625aebaa6ae4e2c757f8,2024-01-23_07h54.21.831,bars,2023.2.3,MacIntel,60.0240096,657b66ea316d21385b68909f,,,,,,,,,,,1513.809,1514.807,,,1515.306,1515.554,,17,197,,,,,,,,,,,,,,,,bars/004.png,bars/mask008.png,,,,,,,,,,,,7,1,,,,,,,8,7,9,7,,,,,,,,,,,1514.807,1515.306,1515.554,1521.273,space,5.708,,1521.273,8,72,1522.273,1522.273,1522.276,,,,0,6,6,6,1,25,125,,,,,,,,
,,64afa022cb6d2497bf0a9950,65af625aebaa6ae4e2c757f8,2024-01-23_07h54.21.831,bars,2023.2.3,MacIntel,60.0240096,657b66ea316d21385b68909f,,,,,,,,,,,1522.276,1523.273,,,1523.771,1524.023,,114,-66,,,,,,,,,,,,,,,,bars/045.png,bars/mask000.png,,,,,,,,,,,,3,1,,,,,,,6,5,6,4,,,,,,,,,,,1523.273,1523.771,1524.023,1532.12,space,8.082,,1532.12,14,76,1533.122,1533.122,1533.125,,,,0,7,7,7,1,100,10,,,,,,,,
,,64afa022cb6d2497bf0a9950,65af625aebaa6ae4e2c757f8,2024-01-23_07h54.21.831,bars,2023.2.3,MacIntel,60.0240096,657b66ea316d21385b68909f,,,,,,,,,,,1533.125,1534.123,,,1534.622,1534.873,,134,134,,,,,,,,,,,,,,,,bars/034.png,bars/mask005.png,,,,,,,,,,,,6,1,,,,,,,8,7,9,9,,,,,,,,,,,1534.123,1534.622,1534.873,1537.403,space,2.519,,1537.403,9,69,1538.406,1538.406,1538.409,,,,0,8,8,8,1,125,65,,,,,,,,
,,64afa022cb6d2497bf0a9950,65af625aebaa6ae4e2c757f8,2024-01-23_07h54.21.831,bars,2023.2.3,MacIntel,60.0240096,657b66ea316d21385b68909f,,,,,,,,,,,1538.409,1539.404,,,1539.906,1540.154,,35,35,,,,,,,,,,,,,,,,bars/043.png,bars/mask001.png,,,,,,,,,,,,8,1,,,,,,,10,9,10,9,,,,,,,,,,,1539.404,1539.906,1540.154,1543.09,space,2.926,,1543.09,5,85,1544.09,1544.09,1544.091,,,,0,9,9,9,1,30,130,,,,,,,,
,,64afa022cb6d2497bf0a9950,65af625aebaa6ae4e2c757f8,2024-01-23_07h54.21.831,bars,2023.2.3,MacIntel,60.0240096,657b66ea316d21385b68909f,,,,,,,,,,,1544.091,1545.088,,,1545.589,1545.839,,1,181,,,,,,,,,,,,,,,,bars/023.png,bars/mask008.png,,,,,,,,,,,,4,1,,,,,,,10,10,10,10,,,,,,,,,,,1545.088,1545.589,1545.839,1549.639,space,3.782,,1549.639,19,66,1550.639,1550.64,1550.646,,,,0,10,10,10,1,20,115,,,,,,,,
,,64afa022cb6d2497bf0a9950,65af625aebaa6ae4e2c757f8,2024-01-23_07h54.21.831,bars,2023.2.3,MacIntel,60.0240096,657b66ea316d21385b68909f,,,,,,,,,,,1550.646,1551.638,,,1552.14,1552.39,,140,140,,,,,,,,,,,,,,,,bars/030.png,bars/mask001.png,,,,,,,,,,,,10,1,,,,,,,10,10,10,9,,,,,,,,,,,1551.638,1552.14,1552.39,1554.954,space,2.547,,1554.954,0,75,1555.956,1555.956,1555.96,,,,0,11,11,11,1,140,65,,,,,,,,
,,64afa022cb6d2497bf0a9950,65af625aebaa6ae4e2c757f8,2024-01-23_07h54.21.831,bars,2023.2.3,MacIntel,60.0240096,657b66ea316d21385b68909f,,,,,,,,,,,1555.96,1556.958,,,1557.457,1557.705,,136,136,,,,,,,,,,,,,,,,bars/034.png,bars/mask001.png,,,,,,,,,,,,4,1,,,,,,,8,8,7,9,,,,,,,,,,,1556.958,1557.456,1557.705,1559.572,space,1.852,,1559.572,11,71,1560.573,1560.573,1560.574,,,,0,12,12,12,1,125,65,,,,,,,,
,,64afa022cb6d2497bf0a9950,65af625aebaa6ae4e2c757f8,2024-01-23_07h54.21.831,bars,2023.2.3,MacIntel,60.0240096,657b66ea316d21385b68909f,,,,,,,,,,,1560.574,1561.572,,,1562.073,1562.323,,138,138,,,,,,,,,,,,,,,,bars/024.png,bars/mask003.png,,,,,,,,,,,,4,1,,,,,,,10,10,10,10,,,,,,,,,,,1561.572,1562.073,1562.323,1567.323,space,4.985,,1567.323,18,32,1568.322,1568.322,1568.325,,,,0,13,13,13,1,120,170,,,,,,,,
,,64afa022cb6d2497bf0a9950,65af625aebaa6ae4e2c757f8,2024-01-23_07h54.21.831,bars,2023.2.3,MacIntel,60.0240096,657b66ea316d21385b68909f,,,,,,,,,,,1568.325,1569.322,,,1569.823,1570.072,,49,49,,,,,,,,,,,,,,,,bars/028.png,bars/mask007.png,,,,,,,,,,,,9,1,,,,,,,10,10,10,10,,,,,,,,,,,1569.322,1569.823,1570.072,1579.372,space,9.284,,1579.373,4,71,1580.374,1580.374,1580.376,,,,0,14,14,14,1,45,120,,,,,,,,
,,64afa022cb6d2497bf0a9950,65af625aebaa6ae4e2c757f8,2024-01-23_07h54.21.831,bars,2023.2.3,MacIntel,60.0240096,657b66ea316d21385b68909f,,,,,,,,,,,1580.376,1581.373,,,1581.873,1582.121,,124,124,,,,,,,,,,,,,,,,bars/031.png,bars/mask001.png,,,,,,,,,,,,7,1,,,,,,,8,8,8,8,,,,,,,,,,,1581.373,1581.873,1582.121,1584.455,space,2.323,,1584.455,4,89,1585.456,1585.456,1585.458,,,,0,15,15,15,1,120,35,,,,,,,,
,,64afa022cb6d2497bf0a9950,65af625aebaa6ae4e2c757f8,2024-01-23_07h54.21.831,bars,2023.2.3,MacIntel,60.0240096,657b66ea316d21385b68909f,,,,,,,,,,,1585.458,1586.454,,,1586.954,1587.205,,73,73,,,,,,,,,,,,,,,,bars/014.png,bars/mask004.png,,,,,,,,,,,,4,1,,,,,,,6,10,5,8,,,,,,,,,,,1586.454,1586.954,1587.205,1588.406,space,1.187,,1588.406,7,73,1589.405,1589.405,1589.406,,,,0,16,16,16,1,80,0,,,,,,,,
,,64afa022cb6d2497bf0a9950,65af625aebaa6ae4e2c757f8,2024-01-23_07h54.21.831,bars,2023.2.3,MacIntel,60.0240096,657b66ea316d21385b68909f,,,,,,,,,,,1589.407,1590.406,,,1590.906,1591.155,,123,123,,,,,,,,,,,,,,,,bars/032.png,bars/mask000.png,,,,,,,,,,,,5,1,,,,,,,4,10,5,10,,,,,,,,,,,1590.406,1590.906,1591.155,1594.806,space,3.639,,1594.806,2,77,1595.806,1595.806,1595.807,,,,0,17,17,17,1,125,20,,,,,,,,
,,64afa022cb6d2497bf0a9950,65af625aebaa6ae4e2c757f8,2024-01-23_07h54.21.831,bars,2023.2.3,MacIntel,60.0240096,657b66ea316d21385b68909f,,,,,,,,,,,1595.807,1596.807,,,1597.306,1597.555,,122,122,,,,,,,,,,,,,,,,bars/008.png,bars/mask006.png,,,,,,,,,,,,3,1,,,,,,,6,8,5,9,,,,,,,,,,,1596.807,1597.306,1597.555,1599.823,space,2.251,,1599.823,12,58,1600.823,1600.823,1600.824,,,,0,18,18,18,1,110,0,,,,,,,,
,,64afa022cb6d2497bf0a9950,65af625aebaa6ae4e2c757f8,2024-01-23_07h54.21.831,bars,2023.2.3,MacIntel,60.0240096,657b66ea316d21385b68909f,,,,,,,,,,,1600.824,1601.823,,,1602.323,1602.573,,170,170,,,,,,,,,,,,,,,,bars/021.png,bars/mask009.png,,,,,,,,,,,,5,1,,,,,,,8,10,9,10,,,,,,,,,,,1601.823,1602.323,1602.573,1611.287,space,8.699,,1611.288,15,80,1612.289,1612.289,1612.289,,,,0,19,19,19,1,155,70,,,,,,,,
,,64afa022cb6d2497bf0a9950,65af625aebaa6ae4e2c757f8,2024-01-23_07h54.21.831,bars,2023.2.3,MacIntel,60.0240096,657b66ea316d21385b68909f,,,,,,,,,,,1612.29,1613.29,,,1613.788,1614.04,,1,181,,,,,,,,,,,,,,,,bars/005.png,bars/mask002.png,,,,,,,,,,,,7,1,,,,,,,10,10,10,9,,,,,,,,,,,1613.29,1613.787,1614.04,1622.239,space,8.183,,1622.239,9,41,1623.237,1623.237,1623.242,,,,0,20,20,20,1,10,140,,,,,,,,
,,64afa022cb6d2497bf0a9950,65af625aebaa6ae4e2c757f8,2024-01-23_07h54.21.831,bars,2023.2.3,MacIntel,60.0240096,657b66ea316d21385b68909f,,,,,,,,,,,1623.244,1624.239,,,1624.738,1624.988,,45,45,,,,,,,,,,,,,,,,bars/048.png,bars/mask006.png,,,,,,,,,,,,8,1,,,,,,,10,8,10,8,,,,,,,,,,,1624.239,1624.738,1624.988,1629.072,space,4.074,,1629.072,5,50,1630.073,1630.073,1630.074,,,,0,21,21,21,1,50,175,,,,,,,,
,,64afa022cb6d2497bf0a9950,65af625aebaa6ae4e2c757f8,2024-01-23_07h54.21.831,bars,2023.2.3,MacIntel,60.0240096,657b66ea316d21385b68909f,,,,,,,,,,,1630.074,1631.071,,,1631.571,1631.822,,156,-24,,,,,,,,,,,,,,,,bars/036.png,bars/mask002.png,,,,,,,,,,,,5,1,,,,,,,8,6,8,4,,,,,,,,,,,1631.071,1631.571,1631.822,1640.656,space,8.817,,1640.656,11,44,1641.656,1641.656,1641.656,,,,0,22,22,22,1,145,20,,,,,,,,
,,64afa022cb6d2497bf0a9950,65af625aebaa6ae4e2c757f8,2024-01-23_07h54.21.831,bars,2023.2.3,MacIntel,60.0240096,657b66ea316d21385b68909f,,,,,,,,,,,1641.656,1642.656,,,1643.156,1643.406,,153,153,,,,,,,,,,,,,,,,bars/017.png,bars/mask003.png,,,,,,,,,,,,4,1,,,,,,,6,4,5,4,,,,,,,,,,,1642.656,1643.156,1643.406,1645.92,space,2.502,,1645.92,8,72,1646.922,1646.922,1646.927,,,,0,23,23,23,1,145,45,,,,,,,,
,,64afa022cb6d2497bf0a9950,65af625aebaa6ae4e2c757f8,2024-01-23_07h54.21.831,bars,2023.2.3,MacIntel,60.0240096,657b66ea316d21385b68909f,,,,,,,,,,,1646.928,1647.923,,,1648.423,1648.672,,161,-19,,,,,,,,,,,,,,,,bars/021.png,bars/mask008.png,,,,,,,,,,,,6,1,,,,,,,8,6,8,7,,,,,,,,,,,1647.923,1648.423,1648.672,1655.656,space,6.966,,1655.656,6,89,1656.656,1656.656,1656.659,,,,0,24,24,24,1,155,70,,,,,,,,
,,64afa022cb6d2497bf0a9950,65af625aebaa6ae4e2c757f8,2024-01-23_07h54.21.831,bars,2023.2.3,MacIntel,60.0240096,657b66ea316d21385b68909f,,,,,,,,,,,1656.659,1657.657,,,1658.156,1658.407,,44,224,,,,,,,,,,,,,,,,bars/048.png,bars/mask006.png,,,,,,,,,,,,6,1,,,,,,,6,8,7,7,,,,,,,,,,,1657.657,1658.156,1658.407,1664.289,space,5.87,,1664.289,6,49,1665.287,1665.288,1665.29,,,,0,25,25,25,1,50,175,,,,,,,,
,,64afa022cb6d2497bf0a9950,65af625aebaa6ae4e2c757f8,2024-01-23_07h54.21.831,bars,2023.2.3,MacIntel,60.0240096,657b66ea316d21385b68909f,,,,,,,,,,,1665.29,1666.29,,,1666.789,1667.038,,151,-29,,,,,,,,,,,,,,,,bars/017.png,bars/mask001.png,,,,,,,,,,,,6,1,,,,,,,8,10,8,10,,,,,,,,,,,1666.29,1666.789,1667.038,1670.956,space,3.908,,1670.956,6,74,1671.955,1671.955,1671.957,,,,0,26,26,26,1,145,45,,,,,,,,
,,64afa022cb6d2497bf0a9950,65af625aebaa6ae4e2c757f8,2024-01-23_07h54.21.831,bars,2023.2.3,MacIntel,60.0240096,657b66ea316d21385b68909f,,,,,,,,,,,1671.957,1672.957,,,1673.456,1673.706,,140,140,,,,,,,,,,,,,,,,bars/040.png,bars/mask007.png,,,,,,,,,,,,6,1,,,,,,,6,10,6,10,,,,,,,,,,,1672.957,1673.455,1673.706,1675.923,space,2.204,,1675.923,0,45,1676.923,1676.923,1676.924,,,,0,27,27,27,1,140,5,,,,,,,,
,,64afa022cb6d2497bf0a9950,65af625aebaa6ae4e2c757f8,2024-01-23_07h54.21.831,bars,2023.2.3,MacIntel,60.0240096,657b66ea316d21385b68909f,,,,,,,,,,,1676.925,1677.925,,,1678.423,1678.67,,13,193,,,,,,,,,,,,,,,,bars/003.png,bars/mask002.png,,,,,,,,,,,,5,1,,,,,,,8,10,9,10,,,,,,,,,,,1677.925,1678.423,1678.67,1681.589,space,2.907,,1681.589,12,53,1682.589,1682.589,1682.59,,,,0,28,28,28,1,25,140,,,,,,,,
,,64afa022cb6d2497bf0a9950,65af625aebaa6ae4e2c757f8,2024-01-23_07h54.21.831,bars,2023.2.3,MacIntel,60.0240096,657b66ea316d21385b68909f,,,,,,,,,,,1682.591,1683.588,,,1684.09,1684.338,,103,-77,,,,,,,,,,,,,,,,bars/045.png,bars/mask004.png,,,,,,,,,,,,9,1,,,,,,,10,10,10,10,,,,,,,,,,,1683.588,1684.09,1684.338,1692.922,space,8.568,,1692.922,3,87,1693.923,1693.923,1693.925,,,,0,29,29,29,1,100,10,,,,,,,,
,,64afa022cb6d2497bf0a9950,65af625aebaa6ae4e2c757f8,2024-01-23_07h54.21.831,bars,2023.2.3,MacIntel,60.0240096,657b66ea316d21385b68909f,,,,,,,,,,,1693.926,1694.921,,,1695.422,1695.673,,125,125,,,,,,,,,,,,,,,,bars/024.png,bars/mask005.png,,,,,,,,,,,,8,1,,,,,,,8,8,9,7,,,,,,,,,,,1694.921,1695.422,1695.673,1703.756,space,8.065,,1703.756,5,45,1704.756,1704.756,1704.758,,,,0,30,30,30,1,120,170,,,,,,,,
,,64afa022cb6d2497bf0a9950,65af625aebaa6ae4e2c757f8,2024-01-23_07h54.21.831,bars,2023.2.3,MacIntel,60.0240096,657b66ea316d21385b68909f,,,,,,,,,,,1704.759,1705.757,,,1706.255,1706.507,,38,218,,,,,,,,,,,,,,,,bars/026.png,bars/mask008.png,,,,,,,,,,,,7,1,,,,,,,10,6,8,8,,,,,,,,,,,1705.757,1706.255,1706.507,1711.272,space,4.749,,1711.273,3,47,1712.272,1712.272,1712.274,,,,0,31,31,31,1,35,85,,,,,,,,
,,64afa022cb6d2497bf0a9950,65af625aebaa6ae4e2c757f8,2024-01-23_07h54.21.831,bars,2023.2.3,MacIntel,60.0240096,657b66ea316d21385b68909f,,,,,,,,,,,1712.274,1713.272,,,1713.773,1714.023,,30,30,,,,,,,,,,,,,,,,bars/004.png,bars/mask002.png,,,,,,,,,,,,8,1,,,,,,,10,8,10,9,,,,,,,,,,,1713.272,1713.773,1714.023,1716.523,space,2.485,,1716.523,5,85,1717.523,1717.523,1717.524,,,,0,32,32,32,1,25,125,,,,,,,,
,,64afa022cb6d2497bf0a9950,65af625aebaa6ae4e2c757f8,2024-01-23_07h54.21.831,bars,2023.2.3,MacIntel,60.0240096,657b66ea316d21385b68909f,,,,,,,,,,,1717.525,1718.524,,,1719.023,1719.272,,118,118,,,,,,,,,,,,,,,,bars/015.png,bars/mask001.png,,,,,,,,,,,,7,1,,,,,,,10,10,10,10,,,,,,,,,,,1718.524,1719.023,1719.272,1725.556,space,6.271,,1725.556,8,42,1726.556,1726.556,1726.558,,,,0,33,33,33,1,110,160,,,,,,,,
,,64afa022cb6d2497bf0a9950,65af625aebaa6ae4e2c757f8,2024-01-23_07h54.21.831,bars,2023.2.3,MacIntel,60.0240096,657b66ea316d21385b68909f,,,,,,,,,,,1726.558,1727.554,,,1728.057,1728.307,,134,134,,,,,,,,,,,,,,,,bars/040.png,bars/mask000.png,,,,,,,,,,,,6,1,,,,,,,8,8,7,9,,,,,,,,,,,1727.554,1728.057,1728.307,1732.006,space,3.683,,1732.006,6,51,1733.004,1733.004,1733.007,,,,0,34,34,34,1,140,5,,,,,,,,
,,64afa022cb6d2497bf0a9950,65af625aebaa6ae4e2c757f8,2024-01-23_07h54.21.831,bars,2023.2.3,MacIntel,60.0240096,657b66ea316d21385b68909f,,,,,,,,,,,1733.007,1734.007,,,1734.504,1734.756,,164,-16,,,,,,,,,,,,,,,,bars/036.png,bars/mask009.png,,,,,,,,,,,,2,1,,,,,,,6,10,6,9,,,,,,,,,,,1734.007,1734.504,1734.756,1740.655,space,5.881,,1740.655,19,36,1741.657,1741.657,1741.664,,,,0,35,35,35,1,145,20,,,,,,,,
,,64afa022cb6d2497bf0a9950,65af625aebaa6ae4e2c757f8,2024-01-23_07h54.21.831,bars,2023.2.3,MacIntel,60.0240096,657b66ea316d21385b68909f,,,,,,,,,,,1741.664,1742.654,,,1743.157,1743.407,,98,98,,,,,,,,,,,,,,,,bars/006.png,bars/mask002.png,,,,,,,,,,,,6,2,,,,,,,4,8,3,6,,,,,,,,,,,1742.654,1743.157,1743.408,1748.458,space,5.04,,1748.458,63,2,1749.456,1749.456,1749.461,,,,0,36,36,36,1,35,100,,,,,,,,
,,64afa022cb6d2497bf0a9950,65af625aebaa6ae4e2c757f8,2024-01-23_07h54.21.831,bars,2023.2.3,MacIntel,60.0240096,657b66ea316d21385b68909f,,,,,,,,,,,1749.461,1750.456,,,1750.956,1751.206,,62,62,,,,,,,,,,,,,,,,bars/010.png,bars/mask008.png,,,,,,,,,,,,8,2,,,,,,,6,10,6,10,,,,,,,,,,,1750.456,1750.956,1751.206,1759.473,space,8.261,,1759.473,77,7,1760.473,1760.473,1760.475,,,,0,37,37,37,1,165,55,,,,,,,,
,,64afa022cb6d2497bf0a9950,65af625aebaa6ae4e2c757f8,2024-01-23_07h54.21.831,bars,2023.2.3,MacIntel,60.0240096,657b66ea316d21385b68909f,,,,,,,,,,,1760.476,1761.472,,,1761.973,1762.222,,83,83,,,,,,,,,,,,,,,,bars/021.png,bars/mask008.png,,,,,,,,,,,,6,2,,,,,,,8,10,10,10,,,,,,,,,,,1761.472,1761.973,1762.222,1768.922,space,6.689,,1768.922,72,13,1769.92,1769.92,1769.922,,,,0,38,38,38,1,155,70,,,,,,,,
,,64afa022cb6d2497bf0a9950,65af625aebaa6ae4e2c757f8,2024-01-23_07h54.21.831,bars,2023.2.3,MacIntel,60.0240096,657b66ea316d21385b68909f,,,,,,,,,,,1769.922,1770.923,,,1771.42,1771.67,,1,181,,,,,,,,,,,,,,,,bars/008.png,bars/mask000.png,,,,,,,,,,,,7,2,,,,,,,10,8,9,7,,,,,,,,,,,1770.923,1771.42,1771.67,1777.19,space,5.512,,1777.19,71,1,1778.19,1778.19,1778.192,,,,0,39,39,39,1,110,0,,,,,,,,
,,64afa022cb6d2497bf0a9950,65af625aebaa6ae4e2c757f8,2024-01-23_07h54.21.831,bars,2023.2.3,MacIntel,60.0240096,657b66ea316d21385b68909f,,,,,,,,,,,1778.192,1779.19,,,1779.689,1779.94,,29,209,,,,,,,,,,,,,,,,bars/017.png,bars/mask007.png,,,,,,,,,,,,2,2,,,,,,,10,6,9,5,,,,,,,,,,,1779.19,1779.689,1779.94,1788.006,space,8.051,,1788.006,64,16,1789.006,1789.006,1789.008,,,,0,40,40,40,1,145,45,,,,,,,,
,,64afa022cb6d2497bf0a9950,65af625aebaa6ae4e2c757f8,2024-01-23_07h54.21.831,bars,2023.2.3,MacIntel,60.0240096,657b66ea316d21385b68909f,,,,,,,,,,,1789.008,1790.006,,,1790.506,1790.757,,145,-35,,,,,,,,,,,,,,,,bars/018.png,bars/mask008.png,,,,,,,,,,,,8,1,,,,,,,10,4,9,5,,,,,,,,,,,1790.006,1790.506,1790.757,1795.057,space,4.283,,1795.057,5,55,1796.056,1796.056,1796.061,,,,0,41,41,41,1,150,90,,,,,,,,
,,64afa022cb6d2497bf0a9950,65af625aebaa6ae4e2c757f8,2024-01-23_07h54.21.831,bars,2023.2.3,MacIntel,60.0240096,657b66ea316d21385b68909f,,,,,,,,,,,1796.061,1797.056,,,1797.557,1797.806,,172,-8,,,,,,,,,,,,,,,,bars/035.png,bars/mask003.png,,,,,,,,,,,,9,1,,,,,,,8,2,10,2,,,,,,,,,,,1797.056,1797.557,1797.806,1805.269,space,7.455,,1805.269,3,68,1806.273,1806.273,1806.276,,,,0,42,42,42,1,175,60,,,,,,,,
,,64afa022cb6d2497bf0a9950,65af625aebaa6ae4e2c757f8,2024-01-23_07h54.21.831,bars,2023.2.3,MacIntel,60.0240096,657b66ea316d21385b68909f,,,,,,,,,,,1806.277,1807.272,,,1807.773,1808.022,,52,52,,,,,,,,,,,,,,,,bars/019.png,bars/mask000.png,,,,,,,,,,,,5,1,,,,,,,6,4,6,3,,,,,,,,,,,1807.272,1807.773,1808.022,1810.173,space,2.134,,1810.174,7,53,1811.172,1811.172,1811.174,,,,0,43,43,43,1,45,105,,,,,,,,
,,64afa022cb6d2497bf0a9950,65af625aebaa6ae4e2c757f8,2024-01-23_07h54.21.831,bars,2023.2.3,MacIntel,60.0240096,657b66ea316d21385b68909f,,,,,,,,,,,1811.175,1812.173,,,1812.67,1812.922,,88,88,,,,,,,,,,,,,,,,bars/012.png,bars/mask006.png,,,,,,,,,,,,4,1,,,,,,,4,2,4,4,,,,,,,,,,,1812.173,1812.67,1812.922,1817.455,space,4.524,,1817.455,2,73,1818.457,1818.457,1818.458,,,,0,44,44,44,1,90,15,,,,,,,,
,,64afa022cb6d2497bf0a9950,65af625aebaa6ae4e2c757f8,2024-01-23_07h54.21.831,bars,2023.2.3,MacIntel,60.0240096,657b66ea316d21385b68909f,,,,,,,,,,,1818.458,1819.457,,,1819.954,1820.206,,102,102,,,,,,,,,,,,,,,,bars/025.png,bars/mask009.png,,,,,,,,,,,,2,1,,,,,,,2,0,2,2,,,,,,,,,,,1819.457,1819.954,1820.206,1826.94,space,6.726,,1826.94,3,62,1827.94,1827.94,1827.942,,,,0,45,45,45,1,105,40,,,,,,,,
,,64afa022cb6d2497bf0a9950,65af625aebaa6ae4e2c757f8,2024-01-23_07h54.21.831,bars,2023.2.3,MacIntel,60.0240096,657b66ea316d21385b68909f,,,,,,,,,,,1827.942,1828.94,,,1829.44,1829.689,,71,71,,,,,,,,,,,,,,,,bars/027.png,bars/mask004.png,,,,,,,,,,,,0,2,,,,,,,4,0,5,0,,,,,,,,,,,1828.94,1829.44,1829.689,1836.558,space,6.862,,1836.558,39,21,1837.555,1837.555,1837.563,,,,0,46,46,46,1,110,50,,,,,,,,
,,64afa022cb6d2497bf0a9950,65af625aebaa6ae4e2c757f8,2024-01-23_07h54.21.831,bars,2023.2.3,MacIntel,60.0240096,657b66ea316d21385b68909f,,,,,,,,,,,1837.563,1838.557,,,1839.057,1839.306,,83,83,,,,,,,,,,,,,,,,bars/022.png,bars/mask007.png,,,,,,,,,,,,2,1,,,,,,,2,2,3,3,,,,,,,,,,,1838.557,1839.057,1839.306,1842.756,space,3.432,,1842.756,12,63,1843.756,1843.756,1843.758,,,,0,47,47,47,1,95,20,,,,,,,,
,,64afa022cb6d2497bf0a9950,65af625aebaa6ae4e2c757f8,2024-01-23_07h54.21.831,bars,2023.2.3,MacIntel,60.0240096,657b66ea316d21385b68909f,,,,,,,,,,,1843.758,1844.755,,,1845.256,1845.506,,101,101,,,,,,,,,,,,,,,,bars/025.png,bars/mask002.png,,,,,,,,,,,,0,1,,,,,,,0,4,0,3,,,,,,,,,,,1844.755,1845.256,1845.506,1852.104,space,6.585,,1852.104,4,61,1853.105,1853.105,1853.108,,,,0,48,48,48,1,105,40,,,,,,,,
,,64afa022cb6d2497bf0a9950,65af625aebaa6ae4e2c757f8,2024-01-23_07h54.21.831,bars,2023.2.3,MacIntel,60.0240096,657b66ea316d21385b68909f,,,,,,,,,,,1853.108,1854.107,,,1854.605,1854.856,,104,104,,,,,,,,,,,,,,,,bars/039.png,bars/mask006.png,,,,,,,,,,,,2,2,,,,,,,0,2,1,2,,,,,,,,,,,1854.107,1854.605,1854.856,1855.539,space,0.669,,1855.54,71,1,1856.54,1856.54,1856.544,,,,0,49,49,49,1,175,105,,,,,,,,
,,64afa022cb6d2497bf0a9950,65af625aebaa6ae4e2c757f8,2024-01-23_07h54.21.831,bars,2023.2.3,MacIntel,60.0240096,657b66ea316d21385b68909f,,,,,,,,,,,,,,,,,,,,,,,,,,,,,,,,,,,,,,,,,,,,,,,,,,,,,,,,,,,,,,,,,,,,,,,,,,,,,,,,,,,,,,,,,,,,,1856.544,1916.541,0,3,3,0,1,sequence_tables/blk039.csv
,,64afa022cb6d2497bf0a9950,65af625aebaa6ae4e2c757f8,2024-01-23_07h54.21.831,bars,2023.2.3,MacIntel,60.0240096,657b66ea316d21385b68909f,,,,,,,,,,,1918.947,1919.939,,,1920.44,1920.689,,176,176,,,,,,,,,,,,,,,,bars/007.png,bars/mask006.png,,,,,,,,,,,,0,1,,,,,,,0,3,0,3,,,,,,1916.544,1918.941,space,2.378,,1919.939,1920.44,1920.689,1923.787,space,3.081,,1923.787,1,59,1924.788,1924.788,1924.79,,,,0,0,0,0,1,175,55,,,,,,,,
,,64afa022cb6d2497bf0a9950,65af625aebaa6ae4e2c757f8,2024-01-23_07h54.21.831,bars,2023.2.3,MacIntel,60.0240096,657b66ea316d21385b68909f,,,,,,,,,,,1924.791,1925.789,,,1926.289,1926.54,,123,-57,,,,,,,,,,,,,,,,bars/028.png,bars/mask004.png,,,,,,,,,,,,5,2,,,,,,,2,5,0,6,,,,,,,,,,,1925.789,1926.289,1926.54,1932.157,space,5.6,,1932.157,78,3,1933.155,1933.155,1933.165,,,,0,1,1,1,1,45,120,,,,,,,,
,,64afa022cb6d2497bf0a9950,65af625aebaa6ae4e2c757f8,2024-01-23_07h54.21.831,bars,2023.2.3,MacIntel,60.0240096,657b66ea316d21385b68909f,,,,,,,,,,,1933.166,1934.156,,,1934.656,1934.906,,176,176,,,,,,,,,,,,,,,,bars/024.png,bars/mask003.png,,,,,,,,,,,,5,2,,,,,,,0,7,0,6,,,,,,,,,,,1934.157,1934.656,1934.906,1936.505,space,1.581,,1936.505,56,6,1937.506,1937.506,1937.507,,,,0,2,2,2,1,120,170,,,,,,,,
,,64afa022cb6d2497bf0a9950,65af625aebaa6ae4e2c757f8,2024-01-23_07h54.21.831,bars,2023.2.3,MacIntel,60.0240096,657b66ea316d21385b68909f,,,,,,,,,,,1937.507,1938.506,,,1939.004,1939.242,,66,66,,,,,,,,,,,,,,,,bars/026.png,bars/mask005.png,,,,,,,,,,,,2,2,,,,,,,2,5,2,5,,,,,,,,,,,1938.506,1939.004,1939.242,1942.224,space,2.969,,1942.224,31,19,1943.219,1943.219,1943.222,,,,0,3,3,3,1,35,85,,,,,,,,
,,64afa022cb6d2497bf0a9950,65af625aebaa6ae4e2c757f8,2024-01-23_07h54.21.831,bars,2023.2.3,MacIntel,60.0240096,657b66ea316d21385b68909f,,,,,,,,,,,1943.222,1944.221,,,1944.722,1944.973,,149,149,,,,,,,,,,,,,,,,bars/005.png,bars/mask006.png,,,,,,,,,,,,5,2,,,,,,,0,7,0,7,,,,,,,,,,,1944.221,1944.722,1944.973,1947.973,space,2.984,,1947.973,41,9,1948.973,1948.973,1948.974,,,,0,4,4,4,1,10,140,,,,,,,,
,,64afa022cb6d2497bf0a9950,65af625aebaa6ae4e2c757f8,2024-01-23_07h54.21.831,bars,2023.2.3,MacIntel,60.0240096,657b66ea316d21385b68909f,,,,,,,,,,,1948.975,1949.973,,,1950.473,1950.723,,56,56,,,,,,,,,,,,,,,,bars/029.png,bars/mask007.png,,,,,,,,,,,,3,2,,,,,,,2,5,3,5,,,,,,,,,,,1949.973,1950.473,1950.723,1958.272,space,7.536,,1958.273,34,11,1959.273,1959.273,1959.275,,,,0,5,5,5,1,90,45,,,,,,,,
,,64afa022cb6d2497bf0a9950,65af625aebaa6ae4e2c757f8,2024-01-23_07h54.21.831,bars,2023.2.3,MacIntel,60.0240096,657b66ea316d21385b68909f,,,,,,,,,,,1959.275,1960.273,,,1960.773,1961.023,,164,164,,,,,,,,,,,,,,,,bars/033.png,bars/mask003.png,,,,,,,,,,,,1,2,,,,,,,0,3,0,2,,,,,,,,,,,1960.273,1960.773,1961.023,1962.172,space,1.137,,1962.172,41,9,1963.174,1963.174,1963.177,,,,0,6,6,6,1,25,155,,,,,,,,
,,64afa022cb6d2497bf0a9950,65af625aebaa6ae4e2c757f8,2024-01-23_07h54.21.831,bars,2023.2.3,MacIntel,60.0240096,657b66ea316d21385b68909f,,,,,,,,,,,1963.177,1964.173,,,1964.674,1964.923,,42,42,,,,,,,,,,,,,,,,bars/028.png,bars/mask006.png,,,,,,,,,,,,3,1,,,,,,,2,5,3,5,,,,,,,,,,,1964.173,1964.674,1964.923,1970.505,space,5.573,,1970.505,3,78,1971.503,1971.503,1971.511,,,,0,7,7,7,1,45,120,,,,,,,,
,,64afa022cb6d2497bf0a9950,65af625aebaa6ae4e2c757f8,2024-01-23_07h54.21.831,bars,2023.2.3,MacIntel,60.0240096,657b66ea316d21385b68909f,,,,,,,,,,,1971.512,1972.508,,,1973.007,1973.256,,158,-22,,,,,,,,,,,,,,,,bars/021.png,bars/mask005.png,,,,,,,,,,,,0,1,,,,,,,0,7,0,8,,,,,,,,,,,1972.508,1973.006,1973.256,1979.323,space,6.058,,1979.323,3,88,1980.323,1980.323,1980.325,,,,0,8,8,8,1,155,70,,,,,,,,
,,64afa022cb6d2497bf0a9950,65af625aebaa6ae4e2c757f8,2024-01-23_07h54.21.831,bars,2023.2.3,MacIntel,60.0240096,657b66ea316d21385b68909f,,,,,,,,,,,1980.325,1981.32,,,1981.822,1982.073,,177,177,,,,,,,,,,,,,,,,bars/033.png,bars/mask003.png,,,,,,,,,,,,1,2,,,,,,,2,5,3,5,,,,,,,,,,,1981.321,1981.822,1982.073,1986.423,space,4.334,,1986.423,28,22,1987.422,1987.422,1987.428,,,,0,9,9,9,1,25,155,,,,,,,,
,,64afa022cb6d2497bf0a9950,65af625aebaa6ae4e2c757f8,2024-01-23_07h54.21.831,bars,2023.2.3,MacIntel,60.0240096,657b66ea316d21385b68909f,,,,,,,,,,,1987.428,1988.423,,,1988.924,1989.172,,122,122,,,,,,,,,,,,,,,,bars/034.png,bars/mask002.png,,,,,,,,,,,,1,1,,,,,,,0,7,1,7,,,,,,,,,,,1988.423,1988.924,1989.172,1990.739,space,1.554,,1990.739,3,57,1991.74,1991.74,1991.741,,,,0,10,10,10,1,125,65,,,,,,,,
,,64afa022cb6d2497bf0a9950,65af625aebaa6ae4e2c757f8,2024-01-23_07h54.21.831,bars,2023.2.3,MacIntel,60.0240096,657b66ea316d21385b68909f,,,,,,,,,,,1991.741,1992.74,,,1993.24,1993.49,,66,66,,,,,,,,,,,,,,,,bars/013.png,bars/mask001.png,,,,,,,,,,,,1,1,,,,,,,0,9,1,10,,,,,,,,,,,1992.74,1993.24,1993.49,1994.839,space,1.337,,1994.84,9,56,1995.839,1995.839,1995.842,,,,0,11,11,11,1,75,10,,,,,,,,
,,64afa022cb6d2497bf0a9950,65af625aebaa6ae4e2c757f8,2024-01-23_07h54.21.831,bars,2023.2.3,MacIntel,60.0240096,657b66ea316d21385b68909f,,,,,,,,,,,1995.842,1996.839,,,1997.34,1997.589,,82,82,,,,,,,,,,,,,,,,bars/029.png,bars/mask007.png,,,,,,,,,,,,1,1,,,,,,,2,7,2,7,,,,,,,,,,,1996.839,1997.34,1997.589,2003.708,space,6.098,,2003.708,8,37,2004.706,2004.707,2004.709,,,,0,12,12,12,1,90,45,,,,,,,,
,,64afa022cb6d2497bf0a9950,65af625aebaa6ae4e2c757f8,2024-01-23_07h54.21.831,bars,2023.2.3,MacIntel,60.0240096,657b66ea316d21385b68909f,,,,,,,,,,,2004.71,2005.706,,,2006.205,2006.456,,90,90,,,,,,,,,,,,,,,,bars/022.png,bars/mask002.png,,,,,,,,,,,,3,1,,,,,,,4,5,3,5,,,,,,,,,,,2005.706,2006.205,2006.456,2011.106,space,4.638,,2011.106,5,70,2012.106,2012.106,2012.108,,,,0,13,13,13,1,95,20,,,,,,,,
,,64afa022cb6d2497bf0a9950,65af625aebaa6ae4e2c757f8,2024-01-23_07h54.21.831,bars,2023.2.3,MacIntel,60.0240096,657b66ea316d21385b68909f,,,,,,,,,,,2012.108,2013.108,,,2013.606,2013.857,,139,139,,,,,,,,,,,,,,,,bars/046.png,bars/mask003.png,,,,,,,,,,,,0,1,,,,,,,2,3,1,3,,,,,,,,,,,2013.108,2013.606,2013.857,2021.223,space,7.355,,2021.223,16,54,2022.223,2022.223,2022.225,,,,0,14,14,14,1,155,85,,,,,,,,
,,64afa022cb6d2497bf0a9950,65af625aebaa6ae4e2c757f8,2024-01-23_07h54.21.831,bars,2023.2.3,MacIntel,60.0240096,657b66ea316d21385b68909f,,,,,,,,,,,2022.226,2023.223,,,2023.721,2023.973,,53,53,,,,,,,,,,,,,,,,bars/035.png,bars/mask007.png,,,,,,,,,,,,2,2,,,,,,,4,1,3,3,,,,,,,,,,,2023.223,2023.721,2023.973,2029.24,space,5.251,,2029.24,58,7,2030.236,2030.236,2030.241,,,,0,15,15,15,1,175,60,,,,,,,,
,,64afa022cb6d2497bf0a9950,65af625aebaa6ae4e2c757f8,2024-01-23_07h54.21.831,bars,2023.2.3,MacIntel,60.0240096,657b66ea316d21385b68909f,,,,,,,,,,,2030.242,2031.237,,,2031.74,2031.989,,151,151,,,,,,,,,,,,,,,,bars/044.png,bars/mask001.png,,,,,,,,,,,,0,2,,,,,,,6,0,5,0,,,,,,,,,,,2031.237,2031.74,2031.989,2035.272,space,3.271,,2035.272,76,4,2036.273,2036.273,2036.279,,,,0,16,16,16,1,75,155,,,,,,,,
,,64afa022cb6d2497bf0a9950,65af625aebaa6ae4e2c757f8,2024-01-23_07h54.21.831,bars,2023.2.3,MacIntel,60.0240096,657b66ea316d21385b68909f,,,,,,,,,,,2036.28,2037.273,,,2037.772,2038.023,,46,46,,,,,,,,,,,,,,,,bars/029.png,bars/mask006.png,,,,,,,,,,,,2,2,,,,,,,4,2,5,2,,,,,,,,,,,2037.273,2037.772,2038.023,2042.39,space,4.35,,2042.39,44,1,2043.39,2043.39,2043.392,,,,0,17,17,17,1,90,45,,,,,,,,
,,64afa022cb6d2497bf0a9950,65af625aebaa6ae4e2c757f8,2024-01-23_07h54.21.831,bars,2023.2.3,MacIntel,60.0240096,657b66ea316d21385b68909f,,,,,,,,,,,2043.393,2044.388,,,2044.89,2045.139,,88,88,,,,,,,,,,,,,,,,bars/012.png,bars/mask009.png,,,,,,,,,,,,7,1,,,,,,,6,4,7,4,,,,,,,,,,,2044.388,2044.89,2045.139,2051.19,space,6.043,,2051.19,2,73,2052.188,2052.188,2052.194,,,,0,18,18,18,1,90,15,,,,,,,,
,,64afa022cb6d2497bf0a9950,65af625aebaa6ae4e2c757f8,2024-01-23_07h54.21.831,bars,2023.2.3,MacIntel,60.0240096,657b66ea316d21385b68909f,,,,,,,,,,,2052.194,2053.189,,,2053.686,2053.939,,144,-36,,,,,,,,,,,,,,,,bars/001.png,bars/mask008.png,,,,,,,,,,,,3,1,,,,,,,4,2,6,3,,,,,,,,,,,2053.189,2053.686,2053.939,2058.989,space,5.038,,2058.989,14,59,2059.99,2059.99,2059.992,,,,0,19,19,19,1,130,85,,,,,,,,
