init_variables.started,init_variables.stopped,participant,session,date,expName,psychopyVersion,OS,frameRate,study_id,instruction_exp.started,instruction_exp.stopped,key_resp_8.keys,key_resp_8.rt,key_resp_8.duration,instruction_single.started,instruction_single.stopped,key_resp_2.keys,key_resp_2.rt,key_resp_2.duration,interval.started,interval.stopped,cue_single.started,cue_single.stopped,mask.started,mask.stopped,ori_response_single.started,res_ori,res,ori_response_single.stopped,key_resp_single.keys,key_resp_single.rt,key_resp_single.duration,disp_single.started,disp_single.stopped,key_resp.keys,key_resp.rt,key_resp.duration,single.thisRepN,single.thisTrialN,single.thisN,single.thisIndex,single.ran,ori,path,mask_path,instruction_bandit.started,instruction_bandit.stopped,key_resp_6.keys,key_resp_6.rt,key_resp_6.duration,cue_bandit.started,cue_bandit.stopped,bandit_res.keys,bandit_res.rt,bandit_res.duration,outcome_bandit.started,rew,action,outcome_bandit.stopped,bandit.thisRepN,bandit.thisTrialN,bandit.thisN,bandit.thisIndex,bandit.ran,actual_rew1,actual_rew2,rew1,rew2,instruction_task.started,instruction_task.stopped,key_resp_7.keys,key_resp_7.rt,key_resp_7.duration,wait_ready.started,wait_ready.stopped,key_resp_3.keys,key_resp_3.rt,key_resp_3.duration,cue.started,cue.stopped,ori_response.started,ori_response.stopped,key_resp_5.keys,key_resp_5.rt,key_resp_5.duration,outcome.started,diff1,diff2,outcome.stopped,disp_outcome_practice.started,disp_outcome_practice.stopped,key_resp_4.keys,key_resp_4.rt,key_resp_4.duration,trials.thisRepN,trials.thisTrialN,trials.thisN,trials.thisIndex,trials.ran,ori1,ori2,break_blk.started,break_blk.stopped,block.thisRepN,block.thisTrialN,block.thisN,block.thisIndex,block.ran,condition_file
0.0002,0.0009,64c12183ab9cf635c69df81b,65af56c22cf40634cd5d70e3,2024-01-23_08h07.11.299,bars,2023.2.3,MacIntel,59.88023952,657b66ea316d21385b68909f,,,,,,,,,,,,,,,,,,,,,,,,,,,,,,,,,,,,,,,,,,,,,,,,,,,,,,,,,,,,,,,,,,,,,,,,,,,,,,,,,,,,,,,,,,,,,,,,,,,,
,,64c12183ab9cf635c69df81b,65af56c22cf40634cd5d70e3,2024-01-23_08h07.11.299,bars,2023.2.3,MacIntel,59.88023952,657b66ea316d21385b68909f,0.0014,7.9104,y,7.849,,,,,,,,,,,,,,,,,,,,,,,,,,,,,,,,,,,,,,,,,,,,,,,,,,,,,,,,,,,,,,,,,,,,,,,,,,,,,,,,,,,,,,,,,,,,,,,,
,,64c12183ab9cf635c69df81b,65af56c22cf40634cd5d70e3,2024-01-23_08h07.11.299,bars,2023.2.3,MacIntel,59.88023952,657b66ea316d21385b68909f,,,,,,7.9107,19.7606,space,11.8316,,,,,,,,,,,,,,,,,,,,,,,,,,,,,,,,,,,,,,,,,,,,,,,,,,,,,,,,,,,,,,,,,,,,,,,,,,,,,,,,,,,,,,,,,,,
,,64c12183ab9cf635c69df81b,65af56c22cf40634cd5d70e3,2024-01-23_08h07.11.299,bars,2023.2.3,MacIntel,59.88023952,657b66ea316d21385b68909f,,,,,,,,,,,19.7673,20.7677,20.7679,21.2685,21.2687,21.5194,21.5197,0,0,28.4319,space,6.8792,,28.432,34.2433,space,5.7691,,0,0,0,3,1,20,bars/single003.png,bars/mask005.png,,,,,,,,,,,,,,,,,,,,,,,,,,,,,,,,,,,,,,,,,,,,,,,,,,,,,,,,,,,,,,,,
,,64c12183ab9cf635c69df81b,65af56c22cf40634cd5d70e3,2024-01-23_08h07.11.299,bars,2023.2.3,MacIntel,59.88023952,657b66ea316d21385b68909f,,,,,,,,,,,34.2529,35.241,35.2412,35.7421,35.7422,35.9921,35.9922,13,193,47.1853,space,11.1751,,47.1854,51.0478,space,3.8292,,0,1,1,9,1,20,bars/single009.png,bars/mask006.png,,,,,,,,,,,,,,,,,,,,,,,,,,,,,,,,,,,,,,,,,,,,,,,,,,,,,,,,,,,,,,,,
,,64c12183ab9cf635c69df81b,65af56c22cf40634cd5d70e3,2024-01-23_08h07.11.299,bars,2023.2.3,MacIntel,59.88023952,657b66ea316d21385b68909f,,,,,,,,,,,51.0482,52.0493,52.0493,52.5473,52.5474,52.7968,52.7968,10,10,55.8109,space,3.0016,,55.811,61.3588,space,5.5151,,0,2,2,7,1,45,bars/single007.png,bars/mask009.png,,,,,,,,,,,,,,,,,,,,,,,,,,,,,,,,,,,,,,,,,,,,,,,,,,,,,,,,,,,,,,,,
,,64c12183ab9cf635c69df81b,65af56c22cf40634cd5d70e3,2024-01-23_08h07.11.299,bars,2023.2.3,MacIntel,59.88023952,657b66ea316d21385b68909f,,,,,,,,,,,61.376,62.374,62.374,62.8741,62.8741,63.1246,63.1246,13,13,74.6831,space,11.5477,,74.6832,84.5268,space,9.8133,,0,3,3,1,1,20,bars/single001.png,bars/mask006.png,,,,,,,,,,,,,,,,,,,,,,,,,,,,,,,,,,,,,,,,,,,,,,,,,,,,,,,,,,,,,,,,
,,64c12183ab9cf635c69df81b,65af56c22cf40634cd5d70e3,2024-01-23_08h07.11.299,bars,2023.2.3,MacIntel,59.88023952,657b66ea316d21385b68909f,,,,,,,,,,,84.5437,85.5422,85.5422,86.0271,86.0271,86.275,86.275,10,10,93.3383,space,7.0477,,93.3384,97.2515,space,3.8806,,0,4,4,4,1,95,bars/single004.png,bars/mask004.png,,,,,,,,,,,,,,,,,,,,,,,,,,,,,,,,,,,,,,,,,,,,,,,,,,,,,,,,,,,,,,,,
,,64c12183ab9cf635c69df81b,65af56c22cf40634cd5d70e3,2024-01-23_08h07.11.299,bars,2023.2.3,MacIntel,59.88023952,657b66ea316d21385b68909f,,,,,,,,,,,97.2522,98.2512,98.2513,98.7495,98.7495,99.0006,99.001,18,18,113.3316,space,14.3219,,113.3318,120.0344,space,6.679,,0,5,5,2,1,145,bars/single002.png,bars/mask003.png,,,,,,,,,,,,,,,,,,,,,,,,,,,,,,,,,,,,,,,,,,,,,,,,,,,,,,,,,,,,,,,,
,,64c12183ab9cf635c69df81b,65af56c22cf40634cd5d70e3,2024-01-23_08h07.11.299,bars,2023.2.3,MacIntel,59.88023952,657b66ea316d21385b68909f,,,,,,,,,,,120.0506,121.0376,121.0376,121.5393,121.5394,121.784,121.784,19,19,126.6398,space,4.8402,,126.6398,128.8991,space,2.2317,,0,6,6,8,1,160,bars/single008.png,bars/mask004.png,,,,,,,,,,,,,,,,,,,,,,,,,,,,,,,,,,,,,,,,,,,,,,,,,,,,,,,,,,,,,,,,
,,64c12183ab9cf635c69df81b,65af56c22cf40634cd5d70e3,2024-01-23_08h07.11.299,bars,2023.2.3,MacIntel,59.88023952,657b66ea316d21385b68909f,,,,,,,,,,,128.8995,129.899,129.8991,130.3978,130.3979,130.6403,130.6403,18,18,142.913,space,12.256,,142.9133,148.0942,space,5.1557,,0,7,7,6,1,175,bars/single006.png,bars/mask005.png,,,,,,,,,,,,,,,,,,,,,,,,,,,,,,,,,,,,,,,,,,,,,,,,,,,,,,,,,,,,,,,,
,,64c12183ab9cf635c69df81b,65af56c22cf40634cd5d70e3,2024-01-23_08h07.11.299,bars,2023.2.3,MacIntel,59.88023952,657b66ea316d21385b68909f,,,,,,,,,,,148.11,149.1014,149.1015,149.5982,149.5982,149.843,149.843,160,160,156.3318,space,6.4732,,156.3319,160.3569,space,3.9996,,0,8,8,5,1,55,bars/single005.png,bars/mask008.png,,,,,,,,,,,,,,,,,,,,,,,,,,,,,,,,,,,,,,,,,,,,,,,,,,,,,,,,,,,,,,,,
,,64c12183ab9cf635c69df81b,65af56c22cf40634cd5d70e3,2024-01-23_08h07.11.299,bars,2023.2.3,MacIntel,59.88023952,657b66ea316d21385b68909f,,,,,,,,,,,160.3734,161.365,161.3651,161.8638,161.8638,162.1135,162.1136,58,58,167.4312,space,5.3008,,167.4313,175.2533,space,7.7977,,0,9,9,0,1,150,bars/single000.png,bars/mask006.png,,,,,,,,,,,,,,,,,,,,,,,,,,,,,,,,,,,,,,,,,,,,,,,,,,,,,,,,,,,,,,,,
,,64c12183ab9cf635c69df81b,65af56c22cf40634cd5d70e3,2024-01-23_08h07.11.299,bars,2023.2.3,MacIntel,59.88023952,657b66ea316d21385b68909f,,,,,,,,,,,,,,,,,,,,,,,,,,,,,,,,,,,,,175.2703,202.0152,space,26.731,,,,,,,,,,,,,,,,,,,,,,,,,,,,,,,,,,,,,,,,,,,,,,,,,,,,,,,,,,,,
,,64c12183ab9cf635c69df81b,65af56c22cf40634cd5d70e3,2024-01-23_08h07.11.299,bars,2023.2.3,MacIntel,59.88023952,657b66ea316d21385b68909f,,,,,,,,,,,,,,,,,,,,,,,,,,,,,,,,,,,,,,,,,,202.0323,208.2308,right,6.1793,,208.2311,2,2,209.2339,0,0,0,0,1,9,1,9,2,,,,,,,,,,,,,,,,,,,,,,,,,,,,,,,,,,,,,,,,,
,,64c12183ab9cf635c69df81b,65af56c22cf40634cd5d70e3,2024-01-23_08h07.11.299,bars,2023.2.3,MacIntel,59.88023952,657b66ea316d21385b68909f,,,,,,,,,,,,,,,,,,,,,,,,,,,,,,,,,,,,,,,,,,209.2348,213.1283,left,3.8782,,213.1283,10,1,214.1264,0,1,1,1,1,10,0,10,1,,,,,,,,,,,,,,,,,,,,,,,,,,,,,,,,,,,,,,,,,
,,64c12183ab9cf635c69df81b,65af56c22cf40634cd5d70e3,2024-01-23_08h07.11.299,bars,2023.2.3,MacIntel,59.88023952,657b66ea316d21385b68909f,,,,,,,,,,,,,,,,,,,,,,,,,,,,,,,,,,,,,,,,,,214.1447,215.8481,left,1.6955,,215.8482,10,1,216.8511,0,2,2,2,1,10,2,10,2,,,,,,,,,,,,,,,,,,,,,,,,,,,,,,,,,,,,,,,,,
,,64c12183ab9cf635c69df81b,65af56c22cf40634cd5d70e3,2024-01-23_08h07.11.299,bars,2023.2.3,MacIntel,59.88023952,657b66ea316d21385b68909f,,,,,,,,,,,,,,,,,,,,,,,,,,,,,,,,,,,,,,,,,,216.8517,218.3125,right,1.4449,,218.3125,3,2,219.3041,0,3,3,3,1,8,4,7,3,,,,,,,,,,,,,,,,,,,,,,,,,,,,,,,,,,,,,,,,,
,,64c12183ab9cf635c69df81b,65af56c22cf40634cd5d70e3,2024-01-23_08h07.11.299,bars,2023.2.3,MacIntel,59.88023952,657b66ea316d21385b68909f,,,,,,,,,,,,,,,,,,,,,,,,,,,,,,,,,,,,,,,,,,219.3047,220.0093,left,0.6888,,220.0094,5,1,221.001,0,4,4,4,1,6,2,5,1,,,,,,,,,,,,,,,,,,,,,,,,,,,,,,,,,,,,,,,,,
,,64c12183ab9cf635c69df81b,65af56c22cf40634cd5d70e3,2024-01-23_08h07.11.299,bars,2023.2.3,MacIntel,59.88023952,657b66ea316d21385b68909f,,,,,,,,,,,,,,,,,,,,,,,,,,,,,,,,,,,,,,,,,,221.0015,221.9127,right,0.8945,,221.9128,4,2,222.908,0,5,5,5,1,4,4,4,4,,,,,,,,,,,,,,,,,,,,,,,,,,,,,,,,,,,,,,,,,
,,64c12183ab9cf635c69df81b,65af56c22cf40634cd5d70e3,2024-01-23_08h07.11.299,bars,2023.2.3,MacIntel,59.88023952,657b66ea316d21385b68909f,,,,,,,,,,,,,,,,,,,,,,,,,,,,,,,,,,,,,,,,,,222.9086,223.3279,left,0.4032,,223.328,1,1,224.3241,0,6,6,6,1,2,2,1,2,,,,,,,,,,,,,,,,,,,,,,,,,,,,,,,,,,,,,,,,,
,,64c12183ab9cf635c69df81b,65af56c22cf40634cd5d70e3,2024-01-23_08h07.11.299,bars,2023.2.3,MacIntel,59.88023952,657b66ea316d21385b68909f,,,,,,,,,,,,,,,,,,,,,,,,,,,,,,,,,,,,,,,,,,224.3247,225.0028,left,0.6609,,225.0028,0,1,225.9919,0,7,7,7,1,0,0,0,1,,,,,,,,,,,,,,,,,,,,,,,,,,,,,,,,,,,,,,,,,
,,64c12183ab9cf635c69df81b,65af56c22cf40634cd5d70e3,2024-01-23_08h07.11.299,bars,2023.2.3,MacIntel,59.88023952,657b66ea316d21385b68909f,,,,,,,,,,,,,,,,,,,,,,,,,,,,,,,,,,,,,,,,,,225.9925,226.5957,left,0.5852,,226.5957,1,1,227.5857,0,8,8,8,1,0,2,1,0,,,,,,,,,,,,,,,,,,,,,,,,,,,,,,,,,,,,,,,,,
,,64c12183ab9cf635c69df81b,65af56c22cf40634cd5d70e3,2024-01-23_08h07.11.299,bars,2023.2.3,MacIntel,59.88023952,657b66ea316d21385b68909f,,,,,,,,,,,,,,,,,,,,,,,,,,,,,,,,,,,,,,,,,,227.5869,228.1028,right,0.5006,,228.1029,3,2,229.0959,0,9,9,9,1,2,4,2,3,,,,,,,,,,,,,,,,,,,,,,,,,,,,,,,,,,,,,,,,,
,,64c12183ab9cf635c69df81b,65af56c22cf40634cd5d70e3,2024-01-23_08h07.11.299,bars,2023.2.3,MacIntel,59.88023952,657b66ea316d21385b68909f,,,,,,,,,,,,,,,,,,,,,,,,,,,,,,,,,,,,,,,,,,229.0965,229.6746,left,0.5622,,229.6747,0,1,230.6959,0,10,10,10,1,0,2,0,3,,,,,,,,,,,,,,,,,,,,,,,,,,,,,,,,,,,,,,,,,
,,64c12183ab9cf635c69df81b,65af56c22cf40634cd5d70e3,2024-01-23_08h07.11.299,bars,2023.2.3,MacIntel,59.88023952,657b66ea316d21385b68909f,,,,,,,,,,,,,,,,,,,,,,,,,,,,,,,,,,,,,,,,,,230.6963,231.0863,right,0.3228,,231.0863,3,2,232.0798,0,11,11,11,1,0,4,0,3,,,,,,,,,,,,,,,,,,,,,,,,,,,,,,,,,,,,,,,,,
,,64c12183ab9cf635c69df81b,65af56c22cf40634cd5d70e3,2024-01-23_08h07.11.299,bars,2023.2.3,MacIntel,59.88023952,657b66ea316d21385b68909f,,,,,,,,,,,,,,,,,,,,,,,,,,,,,,,,,,,,,,,,,,232.0805,232.4446,right,0.3475,,232.4447,6,2,233.4487,0,12,12,12,1,2,6,1,6,,,,,,,,,,,,,,,,,,,,,,,,,,,,,,,,,,,,,,,,,
,,64c12183ab9cf635c69df81b,65af56c22cf40634cd5d70e3,2024-01-23_08h07.11.299,bars,2023.2.3,MacIntel,59.88023952,657b66ea316d21385b68909f,,,,,,,,,,,,,,,,,,,,,,,,,,,,,,,,,,,,,,,,,,233.4492,234.0801,right,0.6145,,234.0802,3,2,235.0741,0,13,13,13,1,0,4,1,3,,,,,,,,,,,,,,,,,,,,,,,,,,,,,,,,,,,,,,,,,
,,64c12183ab9cf635c69df81b,65af56c22cf40634cd5d70e3,2024-01-23_08h07.11.299,bars,2023.2.3,MacIntel,59.88023952,657b66ea316d21385b68909f,,,,,,,,,,,,,,,,,,,,,,,,,,,,,,,,,,,,,,,,,,235.0747,235.4694,right,0.3789,,235.4694,7,2,236.4468,0,14,14,14,1,2,6,2,7,,,,,,,,,,,,,,,,,,,,,,,,,,,,,,,,,,,,,,,,,
,,64c12183ab9cf635c69df81b,65af56c22cf40634cd5d70e3,2024-01-23_08h07.11.299,bars,2023.2.3,MacIntel,59.88023952,657b66ea316d21385b68909f,,,,,,,,,,,,,,,,,,,,,,,,,,,,,,,,,,,,,,,,,,236.4474,236.8963,right,0.4336,,236.8964,9,2,237.8952,0,15,15,15,1,4,8,3,9,,,,,,,,,,,,,,,,,,,,,,,,,,,,,,,,,,,,,,,,,
,,64c12183ab9cf635c69df81b,65af56c22cf40634cd5d70e3,2024-01-23_08h07.11.299,bars,2023.2.3,MacIntel,59.88023952,657b66ea316d21385b68909f,,,,,,,,,,,,,,,,,,,,,,,,,,,,,,,,,,,,,,,,,,237.8962,238.5298,right,0.6183,,238.5298,7,2,239.5266,0,16,16,16,1,6,6,7,7,,,,,,,,,,,,,,,,,,,,,,,,,,,,,,,,,,,,,,,,,
,,64c12183ab9cf635c69df81b,65af56c22cf40634cd5d70e3,2024-01-23_08h07.11.299,bars,2023.2.3,MacIntel,59.88023952,657b66ea316d21385b68909f,,,,,,,,,,,,,,,,,,,,,,,,,,,,,,,,,,,,,,,,,,239.5272,239.8279,right,0.2836,,239.8279,5,2,240.8251,0,17,17,17,1,8,4,9,5,,,,,,,,,,,,,,,,,,,,,,,,,,,,,,,,,,,,,,,,,
,,64c12183ab9cf635c69df81b,65af56c22cf40634cd5d70e3,2024-01-23_08h07.11.299,bars,2023.2.3,MacIntel,59.88023952,657b66ea316d21385b68909f,,,,,,,,,,,,,,,,,,,,,,,,,,,,,,,,,,,,,,,,,,240.8255,241.2285,left,0.3876,,241.2285,5,1,242.2267,0,18,18,18,1,6,2,5,1,,,,,,,,,,,,,,,,,,,,,,,,,,,,,,,,,,,,,,,,,
,,64c12183ab9cf635c69df81b,65af56c22cf40634cd5d70e3,2024-01-23_08h07.11.299,bars,2023.2.3,MacIntel,59.88023952,657b66ea316d21385b68909f,,,,,,,,,,,,,,,,,,,,,,,,,,,,,,,,,,,,,,,,,,242.2273,242.6349,left,0.3914,,242.6349,7,1,243.6284,0,19,19,19,1,8,0,7,0,,,,,,,,,,,,,,,,,,,,,,,,,,,,,,,,,,,,,,,,,
,,64c12183ab9cf635c69df81b,65af56c22cf40634cd5d70e3,2024-01-23_08h07.11.299,bars,2023.2.3,MacIntel,59.88023952,657b66ea316d21385b68909f,,,,,,,,,,,,,,,,,,,,,,,,,,,,,,,,,,,,,,,,,,,,,,,,,,,,,,,,,,,,243.6292,256.6339,space,12.9863,,,,,,,,,,,,,,,,,,,,,,,,,,,,,,,,,,,,,
,,64c12183ab9cf635c69df81b,65af56c22cf40634cd5d70e3,2024-01-23_08h07.11.299,bars,2023.2.3,MacIntel,59.88023952,657b66ea316d21385b68909f,,,,,,,,,,,258.5778,259.5798,,,260.0737,260.3182,,0,0,,,,,,,,,,,,,,,,bars/047.png,bars/mask002.png,,,,,,,,,,,,3,1,,,,,,,5,1,6,1,,,,,,256.6529,258.5709,space,1.905,,259.58,260.0737,260.3186,273.1554,space,12.8189,,273.1557,15,70,274.1597,274.16,282.239,space,8.0515,,0,0,0,0,1,15,70,,,,,,,,
,,64c12183ab9cf635c69df81b,65af56c22cf40634cd5d70e3,2024-01-23_08h07.11.299,bars,2023.2.3,MacIntel,59.88023952,657b66ea316d21385b68909f,,,,,,,,,,,282.257,283.2556,,,283.7401,283.9909,,50,50,,,,,,,,,,,,,,,,bars/025.png,bars/mask002.png,,,,,,,,,,,,0,2,,,,,,,3,0,3,0,,,,,,,,,,,283.2556,283.7401,283.9911,292.53,space,8.5214,,292.5303,55,10,293.5222,293.5223,298.7229,space,5.1707,,0,1,1,1,1,105,40,,,,,,,,
,,64c12183ab9cf635c69df81b,65af56c22cf40634cd5d70e3,2024-01-23_08h07.11.299,bars,2023.2.3,MacIntel,59.88023952,657b66ea316d21385b68909f,,,,,,,,,,,298.7378,299.738,,,300.2328,300.4798,,52,52,,,,,,,,,,,,,,,,bars/012.png,bars/mask007.png,,,,,,,,,,,,0,2,,,,,,,5,0,4,1,,,,,,,,,,,299.7381,300.2328,300.4798,306.3305,space,5.834,,306.3306,38,37,307.3313,307.3313,317.1465,space,9.7875,,0,2,2,2,1,90,15,,,,,,,,
,,64c12183ab9cf635c69df81b,65af56c22cf40634cd5d70e3,2024-01-23_08h07.11.299,bars,2023.2.3,MacIntel,59.88023952,657b66ea316d21385b68909f,,,,,,,,,,,317.1618,318.1629,,,318.6586,318.9241,,23,23,,,,,,,,,,,,,,,,bars/045.png,bars/mask005.png,,,,,,,,,,,,1,2,,,,,,,3,0,3,2,,,,,,,,,,,318.1629,318.6586,318.9241,329.4152,space,10.4544,,329.4152,77,13,330.4151,330.4151,335.7598,space,5.3163,,0,3,3,3,1,100,10,,,,,,,,
,,64c12183ab9cf635c69df81b,65af56c22cf40634cd5d70e3,2024-01-23_08h07.11.299,bars,2023.2.3,MacIntel,59.88023952,657b66ea316d21385b68909f,,,,,,,,,,,335.778,336.7718,,,337.2744,337.5194,,19,19,,,,,,,,,,,,,,,,bars/034.png,bars/mask003.png,,,,,,,,,,,,0,2,,,,,,,1,0,2,1,,,,,,,,,,,336.7719,337.2744,337.5195,343.6752,space,6.1391,,343.6752,74,46,344.6664,344.6665,349.3557,space,4.6616,,0,4,4,4,1,125,65,,,,,,,,
,,64c12183ab9cf635c69df81b,65af56c22cf40634cd5d70e3,2024-01-23_08h07.11.299,bars,2023.2.3,MacIntel,59.88023952,657b66ea316d21385b68909f,,,,,,,,,,,349.3698,350.3621,,,350.8663,351.1141,,64,64,,,,,,,,,,,,,,,,bars/000.png,bars/mask005.png,,,,,,,,,,,,0,1,,,,,,,0,2,0,2,,,,,,,,,,,350.3621,350.8662,351.1142,360.2169,space,9.0855,,360.217,24,81,361.2104,361.2106,366.648,space,5.4049,,0,5,5,5,1,40,145,,,,,,,,
,,64c12183ab9cf635c69df81b,65af56c22cf40634cd5d70e3,2024-01-23_08h07.11.299,bars,2023.2.3,MacIntel,59.88023952,657b66ea316d21385b68909f,,,,,,,,,,,366.6657,367.6647,,,368.1574,368.4053,,49,229,,,,,,,,,,,,,,,,bars/024.png,bars/mask002.png,,,,,,,,,,,,0,2,,,,,,,0,0,2,0,,,,,,,,,,,367.6647,368.1573,368.4054,378.6274,space,10.2046,,378.6275,71,59,379.6195,379.6196,388.9054,space,9.255,,0,6,6,6,1,120,170,,,,,,,,
,,64c12183ab9cf635c69df81b,65af56c22cf40634cd5d70e3,2024-01-23_08h07.11.299,bars,2023.2.3,MacIntel,59.88023952,657b66ea316d21385b68909f,,,,,,,,,,,388.9241,389.9134,,,390.4061,390.6506,,56,56,,,,,,,,,,,,,,,,bars/049.png,bars/mask002.png,,,,,,,,,,,,0,2,,,,,,,0,2,0,3,,,,,,,,,,,389.9134,390.406,390.6506,396.1085,space,5.4423,,396.1088,76,59,397.1125,397.1126,401.8657,space,4.7252,,0,7,7,7,1,160,115,,,,,,,,
,,64c12183ab9cf635c69df81b,65af56c22cf40634cd5d70e3,2024-01-23_08h07.11.299,bars,2023.2.3,MacIntel,59.88023952,657b66ea316d21385b68909f,,,,,,,,,,,401.8816,402.8745,,,403.3741,403.6147,,116,116,,,,,,,,,,,,,,,,bars/017.png,bars/mask003.png,,,,,,,,,,,,0,1,,,,,,,0,0,1,0,,,,,,,,,,,402.8746,403.374,403.6147,412.1816,space,8.5503,,412.1817,29,71,413.1702,413.1703,422.9127,space,9.7106,,0,8,8,8,1,145,45,,,,,,,,
,,64c12183ab9cf635c69df81b,65af56c22cf40634cd5d70e3,2024-01-23_08h07.11.299,bars,2023.2.3,MacIntel,59.88023952,657b66ea316d21385b68909f,,,,,,,,,,,422.9287,423.9279,,,424.4273,424.6668,,3,183,,,,,,,,,,,,,,,,bars/037.png,bars/mask005.png,,,,,,,,,,,,0,1,,,,,,,2,0,4,1,,,,,,,,,,,423.9279,424.4273,424.6668,431.1823,space,6.4971,,431.1824,33,78,432.171,432.171,434.815,space,2.616,,0,9,9,9,1,150,105,,,,,,,,
,,64c12183ab9cf635c69df81b,65af56c22cf40634cd5d70e3,2024-01-23_08h07.11.299,bars,2023.2.3,MacIntel,59.88023952,657b66ea316d21385b68909f,,,,,,,,,,,434.8154,435.8099,,,436.3079,436.5485,,140,-40,,,,,,,,,,,,,,,,bars/007.png,bars/mask002.png,,,,,,,,,,,,0,1,,,,,,,4,0,3,0,,,,,,,,,,,435.81,436.3078,436.5486,447.0802,space,10.5148,,447.0803,35,85,448.0822,448.0823,453.5588,space,5.4493,,0,10,10,10,1,175,55,,,,,,,,
,,64c12183ab9cf635c69df81b,65af56c22cf40634cd5d70e3,2024-01-23_08h07.11.299,bars,2023.2.3,MacIntel,59.88023952,657b66ea316d21385b68909f,,,,,,,,,,,453.5764,454.5657,,,455.0607,455.3001,,161,-19,,,,,,,,,,,,,,,,bars/044.png,bars/mask005.png,,,,,,,,,,,,2,2,,,,,,,6,2,6,2,,,,,,,,,,,454.5658,455.0606,455.3001,460.8935,space,5.5772,,460.8936,86,6,461.8919,461.892,465.7791,space,3.8583,,0,11,11,11,1,75,155,,,,,,,,
,,64c12183ab9cf635c69df81b,65af56c22cf40634cd5d70e3,2024-01-23_08h07.11.299,bars,2023.2.3,MacIntel,59.88023952,657b66ea316d21385b68909f,,,,,,,,,,,465.7956,466.7936,,,467.2834,467.5212,,146,-34,,,,,,,,,,,,,,,,bars/014.png,bars/mask004.png,,,,,,,,,,,,0,2,,,,,,,8,0,7,0,,,,,,,,,,,466.7939,467.2834,467.5212,476.7337,space,9.1919,,476.7337,66,34,477.7256,477.7256,480.3446,space,2.5908,,0,12,12,12,1,80,0,,,,,,,,
,,64c12183ab9cf635c69df81b,65af56c22cf40634cd5d70e3,2024-01-23_08h07.11.299,bars,2023.2.3,MacIntel,59.88023952,657b66ea316d21385b68909f,,,,,,,,,,,480.3452,481.3471,,,481.8472,482.0851,,0,180,,,,,,,,,,,,,,,,bars/027.png,bars/mask001.png,,,,,,,,,,,,0,2,,,,,,,10,0,10,2,,,,,,,,,,,481.3472,481.847,482.0851,497.5725,space,15.4718,,497.5726,70,50,498.5655,498.5655,504.3139,space,5.7204,,0,13,13,13,1,110,50,,,,,,,,
,,64c12183ab9cf635c69df81b,65af56c22cf40634cd5d70e3,2024-01-23_08h07.11.299,bars,2023.2.3,MacIntel,59.88023952,657b66ea316d21385b68909f,,,,,,,,,,,504.3281,505.3268,,,505.8178,506.0602,,0,180,,,,,,,,,,,,,,,,bars/038.png,bars/mask002.png,,,,,,,,,,,,4,1,,,,,,,8,2,8,3,,,,,,,,,,,505.3269,505.8177,506.0603,514.1758,space,8.0996,,514.1759,15,70,515.178,515.178,519.0481,space,3.8397,,0,14,14,14,1,165,70,,,,,,,,
,,64c12183ab9cf635c69df81b,65af56c22cf40634cd5d70e3,2024-01-23_08h07.11.299,bars,2023.2.3,MacIntel,59.88023952,657b66ea316d21385b68909f,,,,,,,,,,,519.0483,520.0442,,,520.5401,520.7932,,0,180,,,,,,,,,,,,,,,,bars/022.png,bars/mask002.png,,,,,,,,,,,,0,2,,,,,,,10,0,10,0,,,,,,,,,,,520.0443,520.54,520.7933,532.6581,space,11.8477,,532.6582,85,20,533.6592,533.6593,539.2146,space,5.5279,,0,15,15,15,1,95,20,,,,,,,,
,,64c12183ab9cf635c69df81b,65af56c22cf40634cd5d70e3,2024-01-23_08h07.11.299,bars,2023.2.3,MacIntel,59.88023952,657b66ea316d21385b68909f,,,,,,,,,,,539.2298,540.2278,,,540.7245,540.9706,,24,204,,,,,,,,,,,,,,,,bars/034.png,bars/mask000.png,,,,,,,,,,,,0,2,,,,,,,8,0,8,1,,,,,,,,,,,540.2279,540.7245,540.9706,552.8355,space,11.8484,,552.8355,79,41,553.8309,553.8311,558.2166,space,4.3582,,0,16,16,16,1,125,65,,,,,,,,
,,64c12183ab9cf635c69df81b,65af56c22cf40634cd5d70e3,2024-01-23_08h07.11.299,bars,2023.2.3,MacIntel,59.88023952,657b66ea316d21385b68909f,,,,,,,,,,,558.2322,559.2308,,,559.7785,559.9676,,62,62,,,,,,,,,,,,,,,,bars/040.png,bars/mask003.png,,,,,,,,,,,,0,2,,,,,,,6,0,6,1,,,,,,,,,,,559.2308,559.7784,559.9676,563.3445,space,3.3481,,563.3446,78,57,564.3472,564.3472,571.5144,space,7.1395,,0,17,17,17,1,140,5,,,,,,,,
,,64c12183ab9cf635c69df81b,65af56c22cf40634cd5d70e3,2024-01-23_08h07.11.299,bars,2023.2.3,MacIntel,59.88023952,657b66ea316d21385b68909f,,,,,,,,,,,571.5308,572.5303,,,573.0259,573.2677,,10,10,,,,,,,,,,,,,,,,bars/024.png,bars/mask006.png,,,,,,,,,,,,1,2,,,,,,,8,2,8,2,,,,,,,,,,,572.5303,573.0259,573.2678,579.2264,space,5.944,,579.2265,70,20,580.2202,580.2202,587.7361,space,7.4887,,0,18,18,18,1,120,170,,,,,,,,
,,64c12183ab9cf635c69df81b,65af56c22cf40634cd5d70e3,2024-01-23_08h07.11.299,bars,2023.2.3,MacIntel,59.88023952,657b66ea316d21385b68909f,,,,,,,,,,,587.7514,588.7476,,,589.2415,589.4817,,170,-10,,,,,,,,,,,,,,,,bars/033.png,bars/mask002.png,,,,,,,,,,,,3,2,,,,,,,6,4,8,5,,,,,,,,,,,588.7476,589.2414,589.4818,601.1762,space,11.6789,,601.1762,35,15,602.1698,602.1698,607.3455,space,5.1481,,0,19,19,19,1,25,155,,,,,,,,
,,64c12183ab9cf635c69df81b,65af56c22cf40634cd5d70e3,2024-01-23_08h07.11.299,bars,2023.2.3,MacIntel,59.88023952,657b66ea316d21385b68909f,,,,,,,,,,,607.3612,608.3619,,,608.8475,609.087,,155,155,,,,,,,,,,,,,,,,bars/022.png,bars/mask003.png,,,,,,,,,,,,0,2,,,,,,,8,2,8,0,,,,,,,,,,,608.362,608.8475,609.0871,614.7926,space,5.6962,,614.7927,60,45,615.7952,615.7953,620.2641,space,4.4419,,0,20,20,20,1,95,20,,,,,,,,
,,64c12183ab9cf635c69df81b,65af56c22cf40634cd5d70e3,2024-01-23_08h07.11.299,bars,2023.2.3,MacIntel,59.88023952,657b66ea316d21385b68909f,,,,,,,,,,,620.2798,621.2752,,,621.7769,622.0202,,20,200,,,,,,,,,,,,,,,,bars/010.png,bars/mask006.png,,,,,,,,,,,,0,2,,,,,,,10,4,10,2,,,,,,,,,,,621.2753,621.7768,622.0202,632.294,space,10.2586,,632.2941,35,35,633.2959,633.2961,637.3004,space,3.9764,,0,21,21,21,1,165,55,,,,,,,,
,,64c12183ab9cf635c69df81b,65af56c22cf40634cd5d70e3,2024-01-23_08h07.11.299,bars,2023.2.3,MacIntel,59.88023952,657b66ea316d21385b68909f,,,,,,,,,,,637.3008,638.2909,,,638.7943,639.0455,,57,57,,,,,,,,,,,,,,,,bars/010.png,bars/mask007.png,,,,,,,,,,,,2,2,,,,,,,10,2,10,2,,,,,,,,,,,638.2909,638.7941,639.0456,649.0371,space,9.9747,,649.0373,72,2,650.0404,650.0405,654.646,space,4.5797,,0,22,22,22,1,165,55,,,,,,,,
,,64c12183ab9cf635c69df81b,65af56c22cf40634cd5d70e3,2024-01-23_08h07.11.299,bars,2023.2.3,MacIntel,59.88023952,657b66ea316d21385b68909f,,,,,,,,,,,654.6625,655.6474,,,656.1382,656.3917,,58,58,,,,,,,,,,,,,,,,bars/010.png,bars/mask002.png,,,,,,,,,,,,4,2,,,,,,,10,4,8,4,,,,,,,,,,,655.6475,656.1382,656.3918,662.8018,space,6.3937,,662.8019,73,3,663.8011,663.8011,668.3907,space,4.5634,,0,23,23,23,1,165,55,,,,,,,,
,,64c12183ab9cf635c69df81b,65af56c22cf40634cd5d70e3,2024-01-23_08h07.11.299,bars,2023.2.3,MacIntel,59.88023952,657b66ea316d21385b68909f,,,,,,,,,,,668.4093,669.3927,,,669.8917,670.13,,55,55,,,,,,,,,,,,,,,,bars/049.png,bars/mask007.png,,,,,,,,,,,,0,2,,,,,,,8,6,7,6,,,,,,,,,,,669.3927,669.8915,670.13,678.5674,space,8.42,,678.5675,75,60,679.557,679.5571,686.3445,space,6.7577,,0,24,24,24,1,160,115,,,,,,,,
,,64c12183ab9cf635c69df81b,65af56c22cf40634cd5d70e3,2024-01-23_08h07.11.299,bars,2023.2.3,MacIntel,59.88023952,657b66ea316d21385b68909f,,,,,,,,,,,686.3603,687.3621,,,687.8524,688.092,,114,114,,,,,,,,,,,,,,,,bars/036.png,bars/mask008.png,,,,,,,,,,,,0,1,,,,,,,6,8,4,8,,,,,,,,,,,687.3622,687.8524,688.092,694.2039,space,6.1008,,694.2039,31,86,695.1834,695.1835,699.1009,space,3.8856,,0,25,25,25,1,145,20,,,,,,,,
,,64c12183ab9cf635c69df81b,65af56c22cf40634cd5d70e3,2024-01-23_08h07.11.299,bars,2023.2.3,MacIntel,59.88023952,657b66ea316d21385b68909f,,,,,,,,,,,699.1189,700.1038,,,700.6005,700.8498,,143,-37,,,,,,,,,,,,,,,,bars/014.png,bars/mask008.png,,,,,,,,,,,,0,2,,,,,,,8,10,8,10,,,,,,,,,,,700.1039,700.6005,700.8498,710.2402,space,9.3749,,710.2403,63,37,711.2368,711.2369,713.2021,space,1.9333,,0,26,26,26,1,80,0,,,,,,,,
,,64c12183ab9cf635c69df81b,65af56c22cf40634cd5d70e3,2024-01-23_08h07.11.299,bars,2023.2.3,MacIntel,59.88023952,657b66ea316d21385b68909f,,,,,,,,,,,713.2027,714.1947,,,714.6885,714.9275,,0,180,,,,,,,,,,,,,,,,bars/015.png,bars/mask000.png,,,,,,,,,,,,3,2,,,,,,,10,10,10,9,,,,,,,,,,,714.1947,714.6885,714.9275,728.3361,space,13.3931,,728.3362,70,20,729.3264,729.3265,736.4116,space,7.0568,,0,27,27,27,1,110,160,,,,,,,,
,,64c12183ab9cf635c69df81b,65af56c22cf40634cd5d70e3,2024-01-23_08h07.11.299,bars,2023.2.3,MacIntel,59.88023952,657b66ea316d21385b68909f,,,,,,,,,,,736.4273,737.4146,,,737.9103,738.1635,,161,161,,,,,,,,,,,,,,,,bars/019.png,bars/mask009.png,,,,,,,,,,,,0,2,,,,,,,10,10,10,9,,,,,,,,,,,737.4147,737.9103,738.1636,745.5522,space,7.3721,,745.5523,64,56,746.5528,746.5528,751.0161,space,4.437,,0,28,28,28,1,45,105,,,,,,,,
,,64c12183ab9cf635c69df81b,65af56c22cf40634cd5d70e3,2024-01-23_08h07.11.299,bars,2023.2.3,MacIntel,59.88023952,657b66ea316d21385b68909f,,,,,,,,,,,751.0311,752.0225,,,752.5108,752.7502,,124,124,,,,,,,,,,,,,,,,bars/039.png,bars/mask008.png,,,,,,,,,,,,3,2,,,,,,,10,10,10,8,,,,,,,,,,,752.0226,752.5107,752.7503,756.1049,space,3.3384,,756.1049,51,19,757.0976,757.0977,759.3072,space,2.1828,,0,29,29,29,1,175,105,,,,,,,,
,,64c12183ab9cf635c69df81b,65af56c22cf40634cd5d70e3,2024-01-23_08h07.11.299,bars,2023.2.3,MacIntel,59.88023952,657b66ea316d21385b68909f,,,,,,,,,,,759.3078,760.2977,,,760.7926,761.0466,,107,107,,,,,,,,,,,,,,,,bars/019.png,bars/mask000.png,,,,,,,,,,,,7,2,,,,,,,8,8,9,8,,,,,,,,,,,760.2978,760.7924,761.0466,765.3381,space,4.2757,,765.3381,62,2,766.3018,766.3019,770.4814,space,4.1512,,0,30,30,30,1,45,105,,,,,,,,
,,64c12183ab9cf635c69df81b,65af56c22cf40634cd5d70e3,2024-01-23_08h07.11.299,bars,2023.2.3,MacIntel,59.88023952,657b66ea316d21385b68909f,,,,,,,,,,,770.4975,771.4828,,,771.9749,772.2151,,114,114,,,,,,,,,,,,,,,,bars/035.png,bars/mask006.png,,,,,,,,,,,,0,2,,,,,,,10,6,7,5,,,,,,,,,,,771.4828,771.9748,772.2153,777.5014,space,5.2697,,777.5015,61,54,778.4905,778.4905,783.1214,space,4.6039,,0,31,31,31,1,175,60,,,,,,,,
,,64c12183ab9cf635c69df81b,65af56c22cf40634cd5d70e3,2024-01-23_08h07.11.299,bars,2023.2.3,MacIntel,59.88023952,657b66ea316d21385b68909f,,,,,,,,,,,783.1375,784.1256,,,784.6276,784.8704,,58,58,,,,,,,,,,,,,,,,bars/016.png,bars/mask009.png,,,,,,,,,,,,4,1,,,,,,,10,4,10,6,,,,,,,,,,,784.1258,784.6276,784.8704,789.4522,space,4.5655,,789.4522,18,73,790.4467,790.4469,794.1424,space,3.6653,,0,32,32,32,1,40,165,,,,,,,,
,,64c12183ab9cf635c69df81b,65af56c22cf40634cd5d70e3,2024-01-23_08h07.11.299,bars,2023.2.3,MacIntel,59.88023952,657b66ea316d21385b68909f,,,,,,,,,,,794.1583,795.1473,,,795.645,795.8878,,40,40,,,,,,,,,,,,,,,,bars/004.png,bars/mask000.png,,,,,,,,,,,,4,1,,,,,,,8,6,8,8,,,,,,,,,,,795.1474,795.645,795.8878,805.8933,space,9.9896,,805.8934,15,85,806.9133,806.9135,813.4561,space,6.4993,,0,33,33,33,1,25,125,,,,,,,,
,,64c12183ab9cf635c69df81b,65af56c22cf40634cd5d70e3,2024-01-23_08h07.11.299,bars,2023.2.3,MacIntel,59.88023952,657b66ea316d21385b68909f,,,,,,,,,,,813.4735,814.4623,,,814.9442,815.1853,,25,25,,,,,,,,,,,,,,,,bars/010.png,bars/mask008.png,,,,,,,,,,,,0,2,,,,,,,10,4,9,3,,,,,,,,,,,814.4623,814.9441,815.1854,823.5993,space,8.3981,,823.5995,40,30,824.5923,824.5923,828.0958,space,3.4746,,0,34,34,34,1,165,55,,,,,,,,
,,64c12183ab9cf635c69df81b,65af56c22cf40634cd5d70e3,2024-01-23_08h07.11.299,bars,2023.2.3,MacIntel,59.88023952,657b66ea316d21385b68909f,,,,,,,,,,,828.0964,829.0852,,,829.5797,829.8327,,56,56,,,,,,,,,,,,,,,,bars/005.png,bars/mask001.png,,,,,,,,,,,,0,1,,,,,,,10,2,10,3,,,,,,,,,,,829.0853,829.5796,829.8328,840.0787,space,10.2301,,840.0788,46,84,841.0669,841.067,842.6183,space,1.5186,,0,35,35,35,1,10,140,,,,,,,,
,,64c12183ab9cf635c69df81b,65af56c22cf40634cd5d70e3,2024-01-23_08h07.11.299,bars,2023.2.3,MacIntel,59.88023952,657b66ea316d21385b68909f,,,,,,,,,,,842.6187,843.6091,,,844.1048,844.3455,,12,12,,,,,,,,,,,,,,,,bars/038.png,bars/mask004.png,,,,,,,,,,,,1,1,,,,,,,10,0,10,1,,,,,,,,,,,843.6091,844.1047,844.3456,848.6482,space,4.2862,,848.6482,27,58,849.6384,849.6384,851.0613,space,1.3957,,0,36,36,36,1,165,70,,,,,,,,
,,64c12183ab9cf635c69df81b,65af56c22cf40634cd5d70e3,2024-01-23_08h07.11.299,bars,2023.2.3,MacIntel,59.88023952,657b66ea316d21385b68909f,,,,,,,,,,,851.0619,852.0531,,,852.5364,852.7769,,78,78,,,,,,,,,,,,,,,,bars/012.png,bars/mask000.png,,,,,,,,,,,,6,1,,,,,,,10,2,10,3,,,,,,,,,,,852.0532,852.5363,852.7769,854.5199,space,1.7233,,854.52,12,63,855.5148,855.5148,856.8744,space,1.3327,,0,37,37,37,1,90,15,,,,,,,,
,,64c12183ab9cf635c69df81b,65af56c22cf40634cd5d70e3,2024-01-23_08h07.11.299,bars,2023.2.3,MacIntel,59.88023952,657b66ea316d21385b68909f,,,,,,,,,,,856.8751,857.8557,,,858.3585,858.596,,177,177,,,,,,,,,,,,,,,,bars/017.png,bars/mask005.png,,,,,,,,,,,,0,1,,,,,,,8,4,9,5,,,,,,,,,,,857.8557,858.3584,858.596,859.4073,space,0.7967,,859.4074,32,48,860.4097,860.4097,860.9145,space,0.4873,,0,38,38,38,1,145,45,,,,,,,,
,,64c12183ab9cf635c69df81b,65af56c22cf40634cd5d70e3,2024-01-23_08h07.11.299,bars,2023.2.3,MacIntel,59.88023952,657b66ea316d21385b68909f,,,,,,,,,,,860.9149,861.9092,,,862.3996,862.6536,,179,-1,,,,,,,,,,,,,,,,bars/026.png,bars/mask005.png,,,,,,,,,,,,0,1,,,,,,,10,6,10,6,,,,,,,,,,,861.9093,862.3996,862.6537,867.2723,space,4.6049,,867.2726,36,86,868.2774,868.2774,868.5608,space,0.2551,,0,39,39,39,1,35,85,,,,,,,,
,,64c12183ab9cf635c69df81b,65af56c22cf40634cd5d70e3,2024-01-23_08h07.11.299,bars,2023.2.3,MacIntel,59.88023952,657b66ea316d21385b68909f,,,,,,,,,,,868.5614,869.5568,,,870.0454,870.2891,,128,-52,,,,,,,,,,,,,,,,bars/045.png,bars/mask000.png,,,,,,,,,,,,1,1,,,,,,,10,8,10,8,,,,,,,,,,,869.5569,870.0454,870.2891,877.2129,space,6.9077,,877.2132,28,62,878.204,878.204,946.2918,space,68.0608,,0,40,40,40,1,100,10,,,,,,,,
,,64c12183ab9cf635c69df81b,65af56c22cf40634cd5d70e3,2024-01-23_08h07.11.299,bars,2023.2.3,MacIntel,59.88023952,657b66ea316d21385b68909f,,,,,,,,,,,946.2926,947.289,,,947.7972,948.0444,,115,-65,,,,,,,,,,,,,,,,bars/014.png,bars/mask004.png,,,,,,,,,,,,0,1,,,,,,,8,10,8,10,,,,,,,,,,,947.289,947.7972,948.0444,957.8967,space,9.8329,,957.8967,35,65,958.8888,958.8889,960.8747,space,1.9565,,0,41,41,41,1,80,0,,,,,,,,
,,64c12183ab9cf635c69df81b,65af56c22cf40634cd5d70e3,2024-01-23_08h07.11.299,bars,2023.2.3,MacIntel,59.88023952,657b66ea316d21385b68909f,,,,,,,,,,,960.8752,961.8719,,,962.3629,962.608,,65,65,,,,,,,,,,,,,,,,bars/004.png,bars/mask003.png,,,,,,,,,,,,0,1,,,,,,,10,8,9,7,,,,,,,,,,,961.8719,962.3628,962.6081,970.4623,space,7.8378,,970.4624,40,60,971.4553,971.4553,978.1894,space,6.7063,,0,42,42,42,1,25,125,,,,,,,,
,,64c12183ab9cf635c69df81b,65af56c22cf40634cd5d70e3,2024-01-23_08h07.11.299,bars,2023.2.3,MacIntel,59.88023952,657b66ea316d21385b68909f,,,,,,,,,,,978.2067,979.2046,,,979.7141,979.9481,,25,25,,,,,,,,,,,,,,,,bars/024.png,bars/mask002.png,,,,,,,,,,,,0,2,,,,,,,8,10,9,10,,,,,,,,,,,979.2046,979.7141,979.9482,986.3592,space,6.3995,,986.3592,85,35,987.3579,987.358,988.9038,space,1.5147,,0,43,43,43,1,120,170,,,,,,,,
,,64c12183ab9cf635c69df81b,65af56c22cf40634cd5d70e3,2024-01-23_08h07.11.299,bars,2023.2.3,MacIntel,59.88023952,657b66ea316d21385b68909f,,,,,,,,,,,988.9044,989.903,,,990.3943,990.6377,,150,150,,,,,,,,,,,,,,,,bars/034.png,bars/mask001.png,,,,,,,,,,,,1,1,,,,,,,6,8,6,5,,,,,,,,,,,989.903,990.3942,990.6377,991.3061,space,0.6518,,991.3062,25,85,992.3006,992.3007,993.1485,space,0.8238,,0,44,44,44,1,125,65,,,,,,,,
,,64c12183ab9cf635c69df81b,65af56c22cf40634cd5d70e3,2024-01-23_08h07.11.299,bars,2023.2.3,MacIntel,59.88023952,657b66ea316d21385b68909f,,,,,,,,,,,993.149,994.1262,,,994.6139,994.8539,,23,23,,,,,,,,,,,,,,,,bars/041.png,bars/mask002.png,,,,,,,,,,,,3,1,,,,,,,4,10,3,10,,,,,,,,,,,994.1262,994.6139,994.8539,995.7525,space,0.8804,,995.7525,3,62,996.7568,996.7568,998.0256,space,1.253,,0,45,45,45,1,20,85,,,,,,,,
,,64c12183ab9cf635c69df81b,65af56c22cf40634cd5d70e3,2024-01-23_08h07.11.299,bars,2023.2.3,MacIntel,59.88023952,657b66ea316d21385b68909f,,,,,,,,,,,998.0262,999.0238,,,999.5144,999.764,,77,77,,,,,,,,,,,,,,,,bars/002.png,bars/mask009.png,,,,,,,,,,,,7,2,,,,,,,6,10,6,10,,,,,,,,,,,999.0239,999.5144,999.7641,1000.2617,space,0.48,,1000.2618,53,8,1001.2514,1001.2515,1004.6415,space,3.371,,0,46,46,46,1,130,85,,,,,,,,
,,64c12183ab9cf635c69df81b,65af56c22cf40634cd5d70e3,2024-01-23_08h07.11.299,bars,2023.2.3,MacIntel,59.88023952,657b66ea316d21385b68909f,,,,,,,,,,,1004.659,1005.648,,,1006.1523,1006.4002,,178,178,,,,,,,,,,,,,,,,bars/015.png,bars/mask002.png,,,,,,,,,,,,3,2,,,,,,,8,8,7,8,,,,,,,,,,,1005.6481,1006.1523,1006.4003,1006.9086,space,0.4918,,1006.9086,68,18,1007.9059,1007.9059,1014.7704,space,6.8485,,0,47,47,47,1,110,160,,,,,,,,
,,64c12183ab9cf635c69df81b,65af56c22cf40634cd5d70e3,2024-01-23_08h07.11.299,bars,2023.2.3,MacIntel,59.88023952,657b66ea316d21385b68909f,,,,,,,,,,,1014.7848,1015.7786,,,1016.2676,1016.5145,,28,28,,,,,,,,,,,,,,,,bars/022.png,bars/mask000.png,,,,,,,,,,,,4,2,,,,,,,6,6,8,6,,,,,,,,,,,1015.7787,1016.2676,1016.5145,1017.9937,space,1.4618,,1017.9937,67,8,1018.9858,1018.9858,1020.967,space,1.9661,,0,48,48,48,1,95,20,,,,,,,,
,,64c12183ab9cf635c69df81b,65af56c22cf40634cd5d70e3,2024-01-23_08h07.11.299,bars,2023.2.3,MacIntel,59.88023952,657b66ea316d21385b68909f,,,,,,,,,,,1020.9674,1021.9668,,,1022.4634,1022.7062,,109,109,,,,,,,,,,,,,,,,bars/001.png,bars/mask000.png,,,,,,,,,,,,2,1,,,,,,,4,8,5,8,,,,,,,,,,,1021.9668,1022.4634,1022.7062,1024.2226,space,1.4999,,1024.2227,21,24,1025.2185,1025.2185,1030.9641,space,5.7293,,0,49,49,49,1,130,85,,,,,,,,
,,64c12183ab9cf635c69df81b,65af56c22cf40634cd5d70e3,2024-01-23_08h07.11.299,bars,2023.2.3,MacIntel,59.88023952,657b66ea316d21385b68909f,,,,,,,,,,,,,,,,,,,,,,,,,,,,,,,,,,,,,,,,,,,,,,,,,,,,,,,,,,,,,,,,,,,,,,,,,,,,,,,,,,,,,,,,,,,,,1030.9807,1090.9629,0,0,0,1,1,sequence_tables/blk035.csv
,,64c12183ab9cf635c69df81b,65af56c22cf40634cd5d70e3,2024-01-23_08h07.11.299,bars,2023.2.3,MacIntel,59.88023952,657b66ea316d21385b68909f,,,,,,,,,,,1093.0324,1094.0238,,,1094.5277,1094.7828,,61,61,,,,,,,,,,,,,,,,bars/028.png,bars/mask008.png,,,,,,,,,,,,4,1,,,,,,,9,4,9,4,,,,,,1090.9809,1093.0233,space,2.0339,,1094.0239,1094.5277,1094.7828,1102.151,space,7.3457,,1102.151,16,59,1103.1504,1103.1505,1103.1703,,,,0,0,0,0,1,45,120,,,,,,,,
,,64c12183ab9cf635c69df81b,65af56c22cf40634cd5d70e3,2024-01-23_08h07.11.299,bars,2023.2.3,MacIntel,59.88023952,657b66ea316d21385b68909f,,,,,,,,,,,1103.1706,1104.1739,,,1104.6721,1104.9034,,171,171,,,,,,,,,,,,,,,,bars/034.png,bars/mask000.png,,,,,,,,,,,,0,1,,,,,,,7,2,7,0,,,,,,,,,,,1104.174,1104.672,1104.9035,1106.7189,space,1.777,,1106.7189,46,74,1107.7111,1107.7111,1107.73,,,,0,1,1,1,1,125,65,,,,,,,,
,,64c12183ab9cf635c69df81b,65af56c22cf40634cd5d70e3,2024-01-23_08h07.11.299,bars,2023.2.3,MacIntel,59.88023952,657b66ea316d21385b68909f,,,,,,,,,,,1107.7303,1108.7217,,,1109.1976,1109.4442,,123,123,,,,,,,,,,,,,,,,bars/012.png,bars/mask005.png,,,,,,,,,,,,0,1,,,,,,,9,0,8,1,,,,,,,,,,,1108.7218,1109.1975,1109.4442,1113.8564,space,4.3956,,1113.8565,33,72,1114.8488,1114.8489,1114.8676,,,,0,2,2,2,1,90,15,,,,,,,,
,,64c12183ab9cf635c69df81b,65af56c22cf40634cd5d70e3,2024-01-23_08h07.11.299,bars,2023.2.3,MacIntel,59.88023952,657b66ea316d21385b68909f,,,,,,,,,,,1114.8679,1115.8472,,,1116.3368,1116.5881,,126,126,,,,,,,,,,,,,,,,bars/018.png,bars/mask003.png,,,,,,,,,,,,2,1,,,,,,,7,2,8,2,,,,,,,,,,,1115.8472,1116.3368,1116.5882,1117.065,space,0.4588,,1117.0651,24,36,1118.0664,1118.0664,1118.0676,,,,0,3,3,3,1,150,90,,,,,,,,
,,64c12183ab9cf635c69df81b,65af56c22cf40634cd5d70e3,2024-01-23_08h07.11.299,bars,2023.2.3,MacIntel,59.88023952,657b66ea316d21385b68909f,,,,,,,,,,,1118.0682,1119.0754,,,1119.5671,1119.8099,,73,73,,,,,,,,,,,,,,,,bars/003.png,bars/mask005.png,,,,,,,,,,,,0,1,,,,,,,9,4,9,4,,,,,,,,,,,1119.0754,1119.5671,1119.81,1120.0268,space,0.1993,,1120.0268,48,67,1121.0275,1121.0276,1121.0284,,,,0,4,4,4,1,25,140,,,,,,,,
,,64c12183ab9cf635c69df81b,65af56c22cf40634cd5d70e3,2024-01-23_08h07.11.299,bars,2023.2.3,MacIntel,59.88023952,657b66ea316d21385b68909f,,,,,,,,,,,1121.029,1122.0269,,,1122.5193,1122.7586,,67,67,,,,,,,,,,,,,,,,bars/037.png,bars/mask007.png,,,,,,,,,,,,0,2,,,,,,,10,6,10,6,,,,,,,,,,,1122.0269,1122.5193,1122.7588,1124.9148,space,2.1374,,1124.9148,83,38,1125.916,1125.916,1125.9338,,,,0,5,5,5,1,150,105,,,,,,,,
,,64c12183ab9cf635c69df81b,65af56c22cf40634cd5d70e3,2024-01-23_08h07.11.299,bars,2023.2.3,MacIntel,59.88023952,657b66ea316d21385b68909f,,,,,,,,,,,1125.934,1126.9326,,,1127.4275,1127.6719,,40,40,,,,,,,,,,,,,,,,bars/022.png,bars/mask005.png,,,,,,,,,,,,2,2,,,,,,,8,4,9,6,,,,,,,,,,,1126.9326,1127.4275,1127.6719,1128.1172,space,0.4332,,1128.1173,55,20,1129.1082,1129.1083,1129.1096,,,,0,6,6,6,1,95,20,,,,,,,,
,,64c12183ab9cf635c69df81b,65af56c22cf40634cd5d70e3,2024-01-23_08h07.11.299,bars,2023.2.3,MacIntel,59.88023952,657b66ea316d21385b68909f,,,,,,,,,,,1129.1099,1130.1047,,,1130.5955,1130.8459,,33,33,,,,,,,,,,,,,,,,bars/020.png,bars/mask002.png,,,,,,,,,,,,0,2,,,,,,,10,2,10,2,,,,,,,,,,,1130.1047,1130.5955,1130.846,1130.8974,space,0.0347,,1130.8974,82,43,1131.8862,1131.8863,1131.8875,,,,0,7,7,7,1,115,170,,,,,,,,
,,64c12183ab9cf635c69df81b,65af56c22cf40634cd5d70e3,2024-01-23_08h07.11.299,bars,2023.2.3,MacIntel,59.88023952,657b66ea316d21385b68909f,,,,,,,,,,,1131.8879,1132.8779,,,1133.3779,1133.6288,,16,196,,,,,,,,,,,,,,,,bars/043.png,bars/mask006.png,,,,,,,,,,,,5,1,,,,,,,10,4,10,4,,,,,,,,,,,1132.8779,1133.3777,1133.6288,1136.0412,space,2.3948,,1136.0412,14,66,1137.0365,1137.0365,1137.0401,,,,0,8,8,8,1,30,130,,,,,,,,
,,64c12183ab9cf635c69df81b,65af56c22cf40634cd5d70e3,2024-01-23_08h07.11.299,bars,2023.2.3,MacIntel,59.88023952,657b66ea316d21385b68909f,,,,,,,,,,,1137.0405,1138.0187,,,1138.521,1138.7729,,68,68,,,,,,,,,,,,,,,,bars/039.png,bars/mask001.png,,,,,,,,,,,,0,2,,,,,,,8,6,6,5,,,,,,,,,,,1138.0187,1138.521,1138.773,1140.6855,space,1.8961,,1140.6856,73,37,1141.6898,1141.6898,1141.709,,,,0,9,9,9,1,175,105,,,,,,,,
,,64c12183ab9cf635c69df81b,65af56c22cf40634cd5d70e3,2024-01-23_08h07.11.299,bars,2023.2.3,MacIntel,59.88023952,657b66ea316d21385b68909f,,,,,,,,,,,1141.7092,1142.7113,,,1143.1933,1143.4442,,35,35,,,,,,,,,,,,,,,,bars/022.png,bars/mask004.png,,,,,,,,,,,,3,2,,,,,,,6,4,6,5,,,,,,,,,,,1142.7114,1143.1932,1143.4443,1144.3742,space,0.9136,,1144.3742,60,15,1145.3746,1145.3746,1145.3933,,,,0,10,10,10,1,95,20,,,,,,,,
,,64c12183ab9cf635c69df81b,65af56c22cf40634cd5d70e3,2024-01-23_08h07.11.299,bars,2023.2.3,MacIntel,59.88023952,657b66ea316d21385b68909f,,,,,,,,,,,1145.3935,1146.3858,,,1146.8903,1147.1314,,109,109,,,,,,,,,,,,,,,,bars/007.png,bars/mask006.png,,,,,,,,,,,,0,2,,,,,,,4,2,3,2,,,,,,,,,,,1146.3858,1146.8902,1147.1315,1147.5732,space,0.426,,1147.5732,66,54,1148.5567,1148.5567,1148.5591,,,,0,11,11,11,1,175,55,,,,,,,,
,,64c12183ab9cf635c69df81b,65af56c22cf40634cd5d70e3,2024-01-23_08h07.11.299,bars,2023.2.3,MacIntel,59.88023952,657b66ea316d21385b68909f,,,,,,,,,,,1148.5595,1149.5478,,,1150.0466,1150.2927,,169,169,,,,,,,,,,,,,,,,bars/043.png,bars/mask005.png,,,,,,,,,,,,0,2,,,,,,,2,0,3,2,,,,,,,,,,,1149.5479,1150.0466,1150.2927,1150.9973,space,0.688,,1150.9977,41,39,1151.9953,1151.9954,1151.997,,,,0,12,12,12,1,30,130,,,,,,,,
,,64c12183ab9cf635c69df81b,65af56c22cf40634cd5d70e3,2024-01-23_08h07.11.299,bars,2023.2.3,MacIntel,59.88023952,657b66ea316d21385b68909f,,,,,,,,,,,1151.9974,1152.9969,,,1153.4859,1153.7277,,83,83,,,,,,,,,,,,,,,,bars/039.png,bars/mask007.png,,,,,,,,,,,,0,2,,,,,,,4,0,4,0,,,,,,,,,,,1152.9969,1153.4859,1153.7277,1155.3074,space,1.5609,,1155.3074,88,22,1156.3084,1156.3084,1156.3096,,,,0,13,13,13,1,175,105,,,,,,,,
,,64c12183ab9cf635c69df81b,65af56c22cf40634cd5d70e3,2024-01-23_08h07.11.299,bars,2023.2.3,MacIntel,59.88023952,657b66ea316d21385b68909f,,,,,,,,,,,1156.3101,1157.3003,,,1157.798,1158.0476,,23,23,,,,,,,,,,,,,,,,bars/004.png,bars/mask009.png,,,,,,,,,,,,5,1,,,,,,,6,2,5,2,,,,,,,,,,,1157.3003,1157.798,1158.0476,1161.2153,space,3.1522,,1161.2154,2,78,1162.2201,1162.2202,1162.2405,,,,0,14,14,14,1,25,125,,,,,,,,
,,64c12183ab9cf635c69df81b,65af56c22cf40634cd5d70e3,2024-01-23_08h07.11.299,bars,2023.2.3,MacIntel,59.88023952,657b66ea316d21385b68909f,,,,,,,,,,,1162.2408,1163.2345,,,1163.7287,1163.9816,,145,145,,,,,,,,,,,,,,,,bars/049.png,bars/mask004.png,,,,,,,,,,,,5,1,,,,,,,8,4,10,6,,,,,,,,,,,1163.2345,1163.7287,1163.9817,1166.6407,space,2.6431,,1166.6408,15,30,1167.6354,1167.6355,1167.6546,,,,0,15,15,15,1,160,115,,,,,,,,
,,64c12183ab9cf635c69df81b,65af56c22cf40634cd5d70e3,2024-01-23_08h07.11.299,bars,2023.2.3,MacIntel,59.88023952,657b66ea316d21385b68909f,,,,,,,,,,,1167.6548,1168.658,,,1169.1437,1169.3935,,163,163,,,,,,,,,,,,,,,,bars/034.png,bars/mask002.png,,,,,,,,,,,,0,1,,,,,,,10,6,10,7,,,,,,,,,,,1168.658,1169.1437,1169.3935,1172.43,space,3.0192,,1172.43,38,82,1173.4089,1173.409,1173.4286,,,,0,16,16,16,1,125,65,,,,,,,,
,,64c12183ab9cf635c69df81b,65af56c22cf40634cd5d70e3,2024-01-23_08h07.11.299,bars,2023.2.3,MacIntel,59.88023952,657b66ea316d21385b68909f,,,,,,,,,,,1173.429,1174.4245,,,1174.922,1175.1597,,15,195,,,,,,,,,,,,,,,,bars/011.png,bars/mask000.png,,,,,,,,,,,,0,1,,,,,,,8,4,8,5,,,,,,,,,,,1174.4245,1174.9219,1175.1599,1177.9906,space,2.8145,,1177.9906,35,70,1178.9902,1178.9902,1179.0097,,,,0,17,17,17,1,160,85,,,,,,,,
,,64c12183ab9cf635c69df81b,65af56c22cf40634cd5d70e3,2024-01-23_08h07.11.299,bars,2023.2.3,MacIntel,59.88023952,657b66ea316d21385b68909f,,,,,,,,,,,1179.01,1180.0107,,,1180.4997,1180.7477,,20,20,,,,,,,,,,,,,,,,bars/012.png,bars/mask004.png,,,,,,,,,,,,5,2,,,,,,,6,6,5,6,,,,,,,,,,,1180.0108,1180.4997,1180.7477,1183.2048,space,2.4392,,1183.2049,70,5,1184.1993,1184.1993,1184.2187,,,,0,18,18,18,1,90,15,,,,,,,,
,,64c12183ab9cf635c69df81b,65af56c22cf40634cd5d70e3,2024-01-23_08h07.11.299,bars,2023.2.3,MacIntel,59.88023952,657b66ea316d21385b68909f,,,,,,,,,,,1184.219,1185.2137,,,1185.7174,1185.9488,,151,151,,,,,,,,,,,,,,,,bars/007.png,bars/mask005.png,,,,,,,,,,,,2,1,,,,,,,8,8,8,8,,,,,,,,,,,1185.2137,1185.7174,1185.9488,1188.3578,space,2.3928,,1188.3579,24,84,1189.3626,1189.3627,1189.3659,,,,0,19,19,19,1,175,55,,,,,,,,
,,64c12183ab9cf635c69df81b,65af56c22cf40634cd5d70e3,2024-01-23_08h07.11.299,bars,2023.2.3,MacIntel,59.88023952,657b66ea316d21385b68909f,,,,,,,,,,,1189.3662,1190.3587,,,1190.8499,1191.1007,,66,66,,,,,,,,,,,,,,,,bars/037.png,bars/mask004.png,,,,,,,,,,,,0,2,,,,,,,10,6,10,5,,,,,,,,,,,1190.3587,1190.8498,1191.1008,1193.1878,space,2.0705,,1193.1878,84,39,1194.1759,1194.176,1194.1947,,,,0,20,20,20,1,150,105,,,,,,,,
,,64c12183ab9cf635c69df81b,65af56c22cf40634cd5d70e3,2024-01-23_08h07.11.299,bars,2023.2.3,MacIntel,59.88023952,657b66ea316d21385b68909f,,,,,,,,,,,1194.1949,1195.1981,,,1195.69,1195.9394,,34,34,,,,,,,,,,,,,,,,bars/030.png,bars/mask003.png,,,,,,,,,,,,0,2,,,,,,,8,8,8,8,,,,,,,,,,,1195.1982,1195.69,1195.9395,1199.3516,space,3.395,,1199.3517,74,31,1200.3477,1200.3477,1200.3662,,,,0,21,21,21,1,140,65,,,,,,,,
,,64c12183ab9cf635c69df81b,65af56c22cf40634cd5d70e3,2024-01-23_08h07.11.299,bars,2023.2.3,MacIntel,59.88023952,657b66ea316d21385b68909f,,,,,,,,,,,1200.3666,1201.3571,,,1201.8374,1202.0725,,86,86,,,,,,,,,,,,,,,,bars/010.png,bars/mask000.png,,,,,,,,,,,,0,2,,,,,,,6,10,4,10,,,,,,,,,,,1201.3571,1201.8374,1202.0725,1206.8313,space,4.7424,,1206.8314,79,31,1207.8222,1207.8223,1207.8402,,,,0,22,22,22,1,165,55,,,,,,,,
,,64c12183ab9cf635c69df81b,65af56c22cf40634cd5d70e3,2024-01-23_08h07.11.299,bars,2023.2.3,MacIntel,59.88023952,657b66ea316d21385b68909f,,,,,,,,,,,1207.8404,1208.8425,,,1209.3474,1209.5861,,146,146,,,,,,,,,,,,,,,,bars/033.png,bars/mask008.png,,,,,,,,,,,,6,2,,,,,,,4,10,4,9,,,,,,,,,,,1208.8425,1209.3474,1209.5861,1210.0674,space,0.4635,,1210.0674,59,9,1211.0614,1211.0614,1211.0629,,,,0,23,23,23,1,25,155,,,,,,,,
,,64c12183ab9cf635c69df81b,65af56c22cf40634cd5d70e3,2024-01-23_08h07.11.299,bars,2023.2.3,MacIntel,59.88023952,657b66ea316d21385b68909f,,,,,,,,,,,1211.0633,1212.0571,,,1212.5479,1212.798,,131,131,,,,,,,,,,,,,,,,bars/046.png,bars/mask002.png,,,,,,,,,,,,1,1,,,,,,,6,8,7,8,,,,,,,,,,,1212.0571,1212.5479,1212.798,1213.3714,space,0.5357,,1213.3714,24,46,1214.3742,1214.3742,1214.3774,,,,0,24,24,24,1,155,85,,,,,,,,
,,64c12183ab9cf635c69df81b,65af56c22cf40634cd5d70e3,2024-01-23_08h07.11.299,bars,2023.2.3,MacIntel,59.88023952,657b66ea316d21385b68909f,,,,,,,,,,,1214.3779,1215.3815,,,1215.8769,1216.1177,,51,51,,,,,,,,,,,,,,,,bars/045.png,bars/mask000.png,,,,,,,,,,,,0,2,,,,,,,8,6,9,4,,,,,,,,,,,1215.3816,1215.8768,1216.1177,1216.615,space,0.4805,,1216.615,49,41,1217.609,1217.6091,1217.612,,,,0,25,25,25,1,100,10,,,,,,,,
,,64c12183ab9cf635c69df81b,65af56c22cf40634cd5d70e3,2024-01-23_08h07.11.299,bars,2023.2.3,MacIntel,59.88023952,657b66ea316d21385b68909f,,,,,,,,,,,1217.6123,1218.6055,,,1219.0957,1219.3466,,15,15,,,,,,,,,,,,,,,,bars/022.png,bars/mask008.png,,,,,,,,,,,,4,2,,,,,,,10,4,10,5,,,,,,,,,,,1218.6056,1219.0956,1219.3467,1220.5637,space,1.1993,,1220.5637,80,5,1221.5522,1221.5522,1221.5533,,,,0,26,26,26,1,95,20,,,,,,,,
,,64c12183ab9cf635c69df81b,65af56c22cf40634cd5d70e3,2024-01-23_08h07.11.299,bars,2023.2.3,MacIntel,59.88023952,657b66ea316d21385b68909f,,,,,,,,,,,1221.5539,1222.5529,,,1223.0399,1223.2803,,19,19,,,,,,,,,,,,,,,,bars/031.png,bars/mask006.png,,,,,,,,,,,,2,2,,,,,,,8,6,9,5,,,,,,,,,,,1222.553,1223.0398,1223.2804,1224.0878,space,0.7896,,1224.0878,79,16,1225.0815,1225.0816,1225.0827,,,,0,27,27,27,1,120,35,,,,,,,,
,,64c12183ab9cf635c69df81b,65af56c22cf40634cd5d70e3,2024-01-23_08h07.11.299,bars,2023.2.3,MacIntel,59.88023952,657b66ea316d21385b68909f,,,,,,,,,,,1225.0833,1226.0745,,,1226.5803,1226.819,,141,141,,,,,,,,,,,,,,,,bars/038.png,bars/mask009.png,,,,,,,,,,,,2,1,,,,,,,10,8,10,10,,,,,,,,,,,1226.0746,1226.5803,1226.819,1227.5443,space,0.7079,,1227.5443,24,71,1228.5368,1228.5368,1228.5396,,,,0,28,28,28,1,165,70,,,,,,,,
,,64c12183ab9cf635c69df81b,65af56c22cf40634cd5d70e3,2024-01-23_08h07.11.299,bars,2023.2.3,MacIntel,59.88023952,657b66ea316d21385b68909f,,,,,,,,,,,1228.54,1229.5298,,,1230.0338,1230.2712,,108,108,,,,,,,,,,,,,,,,bars/036.png,bars/mask003.png,,,,,,,,,,,,0,1,,,,,,,8,6,10,6,,,,,,,,,,,1229.5302,1230.0337,1230.2712,1230.9893,space,0.7,,1230.9894,37,88,1231.9843,1231.9843,1231.9854,,,,0,29,29,29,1,145,20,,,,,,,,
,,64c12183ab9cf635c69df81b,65af56c22cf40634cd5d70e3,2024-01-23_08h07.11.299,bars,2023.2.3,MacIntel,59.88023952,657b66ea316d21385b68909f,,,,,,,,,,,1231.986,1232.976,,,1233.4528,1233.6839,,128,128,,,,,,,,,,,,,,,,bars/008.png,bars/mask001.png,,,,,,,,,,,,3,1,,,,,,,6,8,7,9,,,,,,,,,,,1232.976,1233.4528,1233.6839,1235.9894,space,2.2914,,1235.9894,18,52,1236.9843,1236.9844,1237.0023,,,,0,30,30,30,1,110,0,,,,,,,,
,,64c12183ab9cf635c69df81b,65af56c22cf40634cd5d70e3,2024-01-23_08h07.11.299,bars,2023.2.3,MacIntel,59.88023952,657b66ea316d21385b68909f,,,,,,,,,,,1237.0025,1237.9957,,,1238.4869,1238.7427,,135,135,,,,,,,,,,,,,,,,bars/012.png,bars/mask001.png,,,,,,,,,,,,0,1,,,,,,,4,6,3,6,,,,,,,,,,,1237.9957,1238.4868,1238.7427,1240.3802,space,1.6193,,1240.3802,45,60,1241.3853,1241.3853,1241.3868,,,,0,31,31,31,1,90,15,,,,,,,,
,,64c12183ab9cf635c69df81b,65af56c22cf40634cd5d70e3,2024-01-23_08h07.11.299,bars,2023.2.3,MacIntel,59.88023952,657b66ea316d21385b68909f,,,,,,,,,,,1241.3871,1242.3919,,,1242.8981,1243.1524,,99,99,,,,,,,,,,,,,,,,bars/043.png,bars/mask001.png,,,,,,,,,,,,0,2,,,,,,,6,4,5,3,,,,,,,,,,,1242.3919,1242.898,1243.1525,1245.3561,space,2.1856,,1245.3562,69,31,1246.3583,1246.3584,1246.3777,,,,0,32,32,32,1,30,130,,,,,,,,
,,64c12183ab9cf635c69df81b,65af56c22cf40634cd5d70e3,2024-01-23_08h07.11.299,bars,2023.2.3,MacIntel,59.88023952,657b66ea316d21385b68909f,,,,,,,,,,,1246.378,1247.3708,,,1247.8657,1248.1036,,74,74,,,,,,,,,,,,,,,,bars/016.png,bars/mask003.png,,,,,,,,,,,,0,1,,,,,,,8,2,10,2,,,,,,,,,,,1247.3708,1247.8657,1248.1036,1256.4015,space,8.2808,,1256.4015,34,89,1257.3908,1257.3909,1257.4127,,,,0,33,33,33,1,40,165,,,,,,,,
,,64c12183ab9cf635c69df81b,65af56c22cf40634cd5d70e3,2024-01-23_08h07.11.299,bars,2023.2.3,MacIntel,59.88023952,657b66ea316d21385b68909f,,,,,,,,,,,1257.413,1258.4105,,,1258.9065,1259.1458,,113,113,,,,,,,,,,,,,,,,bars/004.png,bars/mask004.png,,,,,,,,,,,,0,2,,,,,,,6,0,6,0,,,,,,,,,,,1258.4106,1258.9064,1259.1459,1259.5755,space,0.4105,,1259.5755,88,12,1260.5797,1260.5798,1260.5826,,,,0,34,34,34,1,25,125,,,,,,,,
,,64c12183ab9cf635c69df81b,65af56c22cf40634cd5d70e3,2024-01-23_08h07.11.299,bars,2023.2.3,MacIntel,59.88023952,657b66ea316d21385b68909f,,,,,,,,,,,1260.5829,1261.5845,,,1262.089,1262.3283,,22,22,,,,,,,,,,,,,,,,bars/006.png,bars/mask000.png,,,,,,,,,,,,1,1,,,,,,,4,0,1,0,,,,,,,,,,,1261.5845,1262.089,1262.3283,1263.0881,space,0.7405,,1263.0883,13,78,1264.0855,1264.0855,1264.0892,,,,0,35,35,35,1,35,100,,,,,,,,
,,64c12183ab9cf635c69df81b,65af56c22cf40634cd5d70e3,2024-01-23_08h07.11.299,bars,2023.2.3,MacIntel,59.88023952,657b66ea316d21385b68909f,,,,,,,,,,,1264.0897,1265.0957,,,1265.5902,1265.8372,,22,22,,,,,,,,,,,,,,,,bars/031.png,bars/mask001.png,,,,,,,,,,,,2,2,,,,,,,6,2,6,3,,,,,,,,,,,1265.0959,1265.5902,1265.8372,1267.866,space,2.0117,,1267.866,82,13,1268.8462,1268.8463,1268.849,,,,0,36,36,36,1,120,35,,,,,,,,
,,64c12183ab9cf635c69df81b,65af56c22cf40634cd5d70e3,2024-01-23_08h07.11.299,bars,2023.2.3,MacIntel,59.88023952,657b66ea316d21385b68909f,,,,,,,,,,,1268.8495,1269.8461,,,1270.327,1270.5657,,16,196,,,,,,,,,,,,,,,,bars/045.png,bars/mask001.png,,,,,,,,,,,,1,2,,,,,,,4,0,5,1,,,,,,,,,,,1269.8461,1270.3269,1270.5658,1273.5874,space,3.0044,,1273.5875,84,6,1274.5885,1274.5885,1274.6033,,,,0,37,37,37,1,100,10,,,,,,,,
,,64c12183ab9cf635c69df81b,65af56c22cf40634cd5d70e3,2024-01-23_08h07.11.299,bars,2023.2.3,MacIntel,59.88023952,657b66ea316d21385b68909f,,,,,,,,,,,1274.6035,1275.6032,,,1276.1048,1276.3444,,40,40,,,,,,,,,,,,,,,,bars/048.png,bars/mask001.png,,,,,,,,,,,,1,1,,,,,,,2,0,1,0,,,,,,,,,,,1275.6032,1276.1048,1276.3444,1278.3609,space,1.9999,,1278.361,10,45,1279.3518,1279.3518,1279.3552,,,,0,38,38,38,1,50,175,,,,,,,,
,,64c12183ab9cf635c69df81b,65af56c22cf40634cd5d70e3,2024-01-23_08h07.11.299,bars,2023.2.3,MacIntel,59.88023952,657b66ea316d21385b68909f,,,,,,,,,,,1279.3555,1280.3515,,,1280.8427,1281.0906,,38,38,,,,,,,,,,,,,,,,bars/017.png,bars/mask004.png,,,,,,,,,,,,2,2,,,,,,,0,2,0,2,,,,,,,,,,,1280.3516,1280.8425,1281.0907,1281.6248,space,0.5184,,1281.6249,73,7,1282.617,1282.6171,1282.6209,,,,0,39,39,39,1,145,45,,,,,,,,
,,64c12183ab9cf635c69df81b,65af56c22cf40634cd5d70e3,2024-01-23_08h07.11.299,bars,2023.2.3,MacIntel,59.88023952,657b66ea316d21385b68909f,,,,,,,,,,,1282.6212,1283.6127,,,1284.1126,1284.3671,,125,125,,,,,,,,,,,,,,,,bars/045.png,bars/mask002.png,,,,,,,,,,,,0,1,,,,,,,0,0,1,2,,,,,,,,,,,1283.6127,1284.1126,1284.3672,1285.0013,space,0.6156,,1285.0014,25,65,1285.9924,1285.9924,1285.9956,,,,0,40,40,40,1,100,10,,,,,,,,
,,64c12183ab9cf635c69df81b,65af56c22cf40634cd5d70e3,2024-01-23_08h07.11.299,bars,2023.2.3,MacIntel,59.88023952,657b66ea316d21385b68909f,,,,,,,,,,,1285.9961,1286.9971,,,1287.492,1287.7174,,13,13,,,,,,,,,,,,,,,,bars/023.png,bars/mask009.png,,,,,,,,,,,,0,1,,,,,,,0,0,0,0,,,,,,,,,,,1286.9972,1287.492,1287.7175,1288.3353,space,0.5997,,1288.3353,7,78,1289.3281,1289.3281,1289.3303,,,,0,41,41,41,1,20,115,,,,,,,,
,,64c12183ab9cf635c69df81b,65af56c22cf40634cd5d70e3,2024-01-23_08h07.11.299,bars,2023.2.3,MacIntel,59.88023952,657b66ea316d21385b68909f,,,,,,,,,,,1289.331,1290.3264,,,1290.8342,1291.0838,,84,84,,,,,,,,,,,,,,,,bars/014.png,bars/mask005.png,,,,,,,,,,,,1,1,,,,,,,2,0,1,1,,,,,,,,,,,1290.3265,1290.8342,1291.0838,1292.0021,space,0.902,,1292.0022,4,84,1293.005,1293.0051,1293.0069,,,,0,42,42,42,1,80,0,,,,,,,,
,,64c12183ab9cf635c69df81b,65af56c22cf40634cd5d70e3,2024-01-23_08h07.11.299,bars,2023.2.3,MacIntel,59.88023952,657b66ea316d21385b68909f,,,,,,,,,,,1293.0073,1294.0054,,,1294.506,1294.7427,,22,202,,,,,,,,,,,,,,,,bars/014.png,bars/mask003.png,,,,,,,,,,,,0,2,,,,,,,0,0,0,0,,,,,,,,,,,1294.0055,1294.506,1294.7428,1299.54,space,4.7817,,1299.54,58,22,1300.5324,1300.5325,1300.5535,,,,0,43,43,43,1,80,0,,,,,,,,
,,64c12183ab9cf635c69df81b,65af56c22cf40634cd5d70e3,2024-01-23_08h07.11.299,bars,2023.2.3,MacIntel,59.88023952,657b66ea316d21385b68909f,,,,,,,,,,,1300.5538,1301.5545,,,1302.045,1302.3011,,69,69,,,,,,,,,,,,,,,,bars/023.png,bars/mask006.png,,,,,,,,,,,,0,2,,,,,,,2,0,2,1,,,,,,,,,,,1301.5545,1302.045,1302.3012,1304.2144,space,1.8975,,1304.2145,49,46,1305.2184,1305.2184,1305.2191,,,,0,44,44,44,1,20,115,,,,,,,,
,,64c12183ab9cf635c69df81b,65af56c22cf40634cd5d70e3,2024-01-23_08h07.11.299,bars,2023.2.3,MacIntel,59.88023952,657b66ea316d21385b68909f,,,,,,,,,,,1305.2194,1306.2072,,,1306.703,1306.958,,62,62,,,,,,,,,,,,,,,,bars/007.png,bars/mask008.png,,,,,,,,,,,,2,2,,,,,,,4,2,4,2,,,,,,,,,,,1306.2072,1306.7029,1306.9581,1308.1393,space,1.1643,,1308.1393,67,7,1309.1405,1309.1406,1309.142,,,,0,45,45,45,1,175,55,,,,,,,,
,,64c12183ab9cf635c69df81b,65af56c22cf40634cd5d70e3,2024-01-23_08h07.11.299,bars,2023.2.3,MacIntel,59.88023952,657b66ea316d21385b68909f,,,,,,,,,,,1309.1424,1310.1439,,,1310.648,1310.8857,,125,125,,,,,,,,,,,,,,,,bars/021.png,bars/mask002.png,,,,,,,,,,,,0,1,,,,,,,2,4,2,4,,,,,,,,,,,1310.144,1310.648,1310.8857,1313.6668,space,2.7649,,1313.6668,30,55,1314.6691,1314.6691,1314.6884,,,,0,46,46,46,1,155,70,,,,,,,,
,,64c12183ab9cf635c69df81b,65af56c22cf40634cd5d70e3,2024-01-23_08h07.11.299,bars,2023.2.3,MacIntel,59.88023952,657b66ea316d21385b68909f,,,,,,,,,,,1314.6887,1315.6805,,,1316.1848,1316.4227,,101,101,,,,,,,,,,,,,,,,bars/044.png,bars/mask008.png,,,,,,,,,,,,1,1,,,,,,,4,2,4,2,,,,,,,,,,,1315.6805,1316.1847,1316.4228,1317.206,space,0.7654,,1317.206,26,54,1318.1956,1318.1956,1318.1968,,,,0,47,47,47,1,75,155,,,,,,,,
,,64c12183ab9cf635c69df81b,65af56c22cf40634cd5d70e3,2024-01-23_08h07.11.299,bars,2023.2.3,MacIntel,59.88023952,657b66ea316d21385b68909f,,,,,,,,,,,1318.1978,1319.1942,,,1319.6884,1319.9268,,141,141,,,,,,,,,,,,,,,,bars/023.png,bars/mask008.png,,,,,,,,,,,,0,2,,,,,,,6,0,5,0,,,,,,,,,,,1319.1943,1319.6884,1319.9268,1322.2371,space,2.2927,,1322.2371,59,26,1323.2332,1323.2332,1323.2534,,,,0,48,48,48,1,20,115,,,,,,,,
,,64c12183ab9cf635c69df81b,65af56c22cf40634cd5d70e3,2024-01-23_08h07.11.299,bars,2023.2.3,MacIntel,59.88023952,657b66ea316d21385b68909f,,,,,,,,,,,1323.2537,1324.2542,,,1324.7497,1324.9997,,63,63,,,,,,,,,,,,,,,,bars/046.png,bars/mask007.png,,,,,,,,,,,,0,2,,,,,,,4,0,6,0,,,,,,,,,,,1324.2542,1324.7497,1324.9998,1325.5926,space,0.5745,,1325.5926,88,22,1326.5871,1326.5872,1326.5884,,,,0,49,49,49,1,155,85,,,,,,,,
,,64c12183ab9cf635c69df81b,65af56c22cf40634cd5d70e3,2024-01-23_08h07.11.299,bars,2023.2.3,MacIntel,59.88023952,657b66ea316d21385b68909f,,,,,,,,,,,,,,,,,,,,,,,,,,,,,,,,,,,,,,,,,,,,,,,,,,,,,,,,,,,,,,,,,,,,,,,,,,,,,,,,,,,,,,,,,,,,,1326.5887,1386.5851,0,1,1,4,1,sequence_tables/blk027.csv
,,64c12183ab9cf635c69df81b,65af56c22cf40634cd5d70e3,2024-01-23_08h07.11.299,bars,2023.2.3,MacIntel,59.88023952,657b66ea316d21385b68909f,,,,,,,,,,,1388.6721,1389.6607,,,1390.1544,1390.3928,,38,38,,,,,,,,,,,,,,,,bars/034.png,bars/mask002.png,,,,,,,,,,,,0,2,,,,,,,7,2,8,3,,,,,,1386.6115,1388.6654,space,1.9599,,1389.6607,1390.1544,1390.3928,1395.8479,space,5.4381,,1395.848,87,27,1396.8303,1396.8303,1396.8575,,,,0,0,0,0,1,125,65,,,,,,,,
,,64c12183ab9cf635c69df81b,65af56c22cf40634cd5d70e3,2024-01-23_08h07.11.299,bars,2023.2.3,MacIntel,59.88023952,657b66ea316d21385b68909f,,,,,,,,,,,1396.8578,1397.8561,,,1398.346,1398.5897,,153,153,,,,,,,,,,,,,,,,bars/033.png,bars/mask008.png,,,,,,,,,,,,5,2,,,,,,,9,4,8,5,,,,,,,,,,,1397.8561,1398.346,1398.5897,1399.1631,space,0.5561,,1399.1631,52,2,1400.1527,1400.1528,1400.1539,,,,0,1,1,1,1,25,155,,,,,,,,
,,64c12183ab9cf635c69df81b,65af56c22cf40634cd5d70e3,2024-01-23_08h07.11.299,bars,2023.2.3,MacIntel,59.88023952,657b66ea316d21385b68909f,,,,,,,,,,,1400.1545,1401.1442,,,1401.6466,1401.9014,,115,115,,,,,,,,,,,,,,,,bars/032.png,bars/mask009.png,,,,,,,,,,,,4,1,,,,,,,7,6,6,6,,,,,,,,,,,1401.1443,1401.6465,1401.9015,1403.1543,space,1.2349,,1403.1544,10,85,1404.1355,1404.1355,1404.1378,,,,0,2,2,2,1,125,20,,,,,,,,
,,64c12183ab9cf635c69df81b,65af56c22cf40634cd5d70e3,2024-01-23_08h07.11.299,bars,2023.2.3,MacIntel,59.88023952,657b66ea316d21385b68909f,,,,,,,,,,,1404.138,1405.1306,,,1405.6214,1405.8702,,105,105,,,,,,,,,,,,,,,,bars/030.png,bars/mask004.png,,,,,,,,,,,,0,1,,,,,,,5,8,6,9,,,,,,,,,,,1405.1307,1405.6213,1405.8702,1406.6981,space,0.8097,,1406.6981,35,40,1407.6999,1407.6999,1407.7013,,,,0,3,3,3,1,140,65,,,,,,,,
,,64c12183ab9cf635c69df81b,65af56c22cf40634cd5d70e3,2024-01-23_08h07.11.299,bars,2023.2.3,MacIntel,59.88023952,657b66ea316d21385b68909f,,,,,,,,,,,1407.7019,1408.7028,,,1409.1984,1409.4403,,52,52,,,,,,,,,,,,,,,,bars/012.png,bars/mask003.png,,,,,,,,,,,,0,2,,,,,,,3,6,2,6,,,,,,,,,,,1408.703,1409.1984,1409.4404,1413.1232,space,3.6664,,1413.1233,38,37,1414.1267,1414.1268,1414.1465,,,,0,4,4,4,1,90,15,,,,,,,,
,,64c12183ab9cf635c69df81b,65af56c22cf40634cd5d70e3,2024-01-23_08h07.11.299,bars,2023.2.3,MacIntel,59.88023952,657b66ea316d21385b68909f,,,,,,,,,,,1414.1467,1415.1466,,,1415.6326,1415.8813,,121,121,,,,,,,,,,,,,,,,bars/015.png,bars/mask007.png,,,,,,,,,,,,3,1,,,,,,,5,4,4,5,,,,,,,,,,,1415.1467,1415.6326,1415.8814,1415.9164,space,0.0189,,1415.9165,11,39,1416.9126,1416.9126,1416.9157,,,,0,5,5,5,1,110,160,,,,,,,,
,,64c12183ab9cf635c69df81b,65af56c22cf40634cd5d70e3,2024-01-23_08h07.11.299,bars,2023.2.3,MacIntel,59.88023952,657b66ea316d21385b68909f,,,,,,,,,,,1416.916,1417.9223,,,1418.422,1418.661,,14,14,,,,,,,,,,,,,,,,bars/012.png,bars/mask003.png,,,,,,,,,,,,3,2,,,,,,,3,2,3,3,,,,,,,,,,,1417.9224,1418.422,1418.6611,1419.1667,space,0.4885,,1419.1668,76,1,1420.1662,1420.1662,1420.1691,,,,0,6,6,6,1,90,15,,,,,,,,
,,64c12183ab9cf635c69df81b,65af56c22cf40634cd5d70e3,2024-01-23_08h07.11.299,bars,2023.2.3,MacIntel,59.88023952,657b66ea316d21385b68909f,,,,,,,,,,,1420.1693,1421.1608,,,1421.6669,1421.9167,,138,138,,,,,,,,,,,,,,,,bars/014.png,bars/mask006.png,,,,,,,,,,,,0,2,,,,,,,1,4,2,3,,,,,,,,,,,1421.1609,1421.6669,1421.9167,1422.7244,space,0.7904,,1422.7244,58,42,1423.7289,1423.7289,1423.73,,,,0,7,7,7,1,80,0,,,,,,,,
,,64c12183ab9cf635c69df81b,65af56c22cf40634cd5d70e3,2024-01-23_08h07.11.299,bars,2023.2.3,MacIntel,59.88023952,657b66ea316d21385b68909f,,,,,,,,,,,1423.7308,1424.7345,,,1425.2376,1425.4833,,98,98,,,,,,,,,,,,,,,,bars/035.png,bars/mask000.png,,,,,,,,,,,,0,2,,,,,,,0,2,0,3,,,,,,,,,,,1424.7346,1425.2376,1425.4833,1426.0379,space,0.5366,,1426.0381,77,38,1427.0365,1427.0365,1427.038,,,,0,8,8,8,1,175,60,,,,,,,,
,,64c12183ab9cf635c69df81b,65af56c22cf40634cd5d70e3,2024-01-23_08h07.11.299,bars,2023.2.3,MacIntel,59.88023952,657b66ea316d21385b68909f,,,,,,,,,,,1427.0382,1428.044,,,1428.5348,1428.7886,,127,127,,,,,,,,,,,,,,,,bars/021.png,bars/mask000.png,,,,,,,,,,,,0,1,,,,,,,0,4,0,5,,,,,,,,,,,1428.0441,1428.5347,1428.7886,1429.5008,space,0.6941,,1429.5009,28,57,1430.4972,1430.4973,1430.5002,,,,0,9,9,9,1,155,70,,,,,,,,
,,64c12183ab9cf635c69df81b,65af56c22cf40634cd5d70e3,2024-01-23_08h07.11.299,bars,2023.2.3,MacIntel,59.88023952,657b66ea316d21385b68909f,,,,,,,,,,,1430.501,1431.5055,,,1432.0067,1432.26,,83,83,,,,,,,,,,,,,,,,bars/001.png,bars/mask001.png,,,,,,,,,,,,6,2,,,,,,,0,6,0,6,,,,,,,,,,,1431.5055,1432.0065,1432.26,1432.9431,space,0.6643,,1432.9431,47,2,1433.9429,1433.9429,1433.9461,,,,0,10,10,10,1,130,85,,,,,,,,
,,64c12183ab9cf635c69df81b,65af56c22cf40634cd5d70e3,2024-01-23_08h07.11.299,bars,2023.2.3,MacIntel,59.88023952,657b66ea316d21385b68909f,,,,,,,,,,,1433.9465,1434.939,,,1435.4315,1435.667,,16,16,,,,,,,,,,,,,,,,bars/018.png,bars/mask006.png,,,,,,,,,,,,0,1,,,,,,,2,8,2,8,,,,,,,,,,,1434.939,1435.4315,1435.667,1435.7885,space,0.1029,,1435.7885,46,74,1436.782,1436.782,1436.7851,,,,0,11,11,11,1,150,90,,,,,,,,
,,64c12183ab9cf635c69df81b,65af56c22cf40634cd5d70e3,2024-01-23_08h07.11.299,bars,2023.2.3,MacIntel,59.88023952,657b66ea316d21385b68909f,,,,,,,,,,,1436.7855,1437.7854,,,1438.2917,1438.5358,,169,169,,,,,,,,,,,,,,,,bars/033.png,bars/mask003.png,,,,,,,,,,,,3,2,,,,,,,4,6,5,6,,,,,,,,,,,1437.7855,1438.2916,1438.5358,1439.1425,space,0.5895,,1439.1425,36,14,1440.1475,1440.1475,1440.1508,,,,0,12,12,12,1,25,155,,,,,,,,
,,64c12183ab9cf635c69df81b,65af56c22cf40634cd5d70e3,2024-01-23_08h07.11.299,bars,2023.2.3,MacIntel,59.88023952,657b66ea316d21385b68909f,,,,,,,,,,,1440.1512,1441.1359,,,1441.6132,1441.8677,,178,178,,,,,,,,,,,,,,,,bars/015.png,bars/mask009.png,,,,,,,,,,,,3,2,,,,,,,2,8,1,8,,,,,,,,,,,1441.1359,1441.6131,1441.8678,1442.0243,space,0.1373,,1442.0243,68,18,1443.0236,1443.0236,1443.025,,,,0,13,13,13,1,110,160,,,,,,,,
,,64c12183ab9cf635c69df81b,65af56c22cf40634cd5d70e3,2024-01-23_08h07.11.299,bars,2023.2.3,MacIntel,59.88023952,657b66ea316d21385b68909f,,,,,,,,,,,1443.0254,1444.0294,,,1444.5249,1444.7684,,110,110,,,,,,,,,,,,,,,,bars/006.png,bars/mask005.png,,,,,,,,,,,,7,2,,,,,,,4,10,3,10,,,,,,,,,,,1444.0295,1444.5248,1444.7686,1445.1622,space,0.3764,,1445.1622,75,10,1446.1609,1446.1609,1446.1621,,,,0,14,14,14,1,35,100,,,,,,,,
,,64c12183ab9cf635c69df81b,65af56c22cf40634cd5d70e3,2024-01-23_08h07.11.299,bars,2023.2.3,MacIntel,59.88023952,657b66ea316d21385b68909f,,,,,,,,,,,1446.1626,1447.1528,,,1447.7041,1447.9248,,14,14,,,,,,,,,,,,,,,,bars/024.png,bars/mask009.png,,,,,,,,,,,,2,2,,,,,,,2,10,3,9,,,,,,,,,,,1447.1529,1447.7041,1447.925,1448.0729,space,0.1324,,1448.073,74,24,1449.0751,1449.0751,1449.0762,,,,0,15,15,15,1,120,170,,,,,,,,
,,64c12183ab9cf635c69df81b,65af56c22cf40634cd5d70e3,2024-01-23_08h07.11.299,bars,2023.2.3,MacIntel,59.88023952,657b66ea316d21385b68909f,,,,,,,,,,,1449.0767,1450.0809,,,1450.573,1450.8096,,132,132,,,,,,,,,,,,,,,,bars/026.png,bars/mask002.png,,,,,,,,,,,,0,2,,,,,,,0,10,0,8,,,,,,,,,,,1450.081,1450.573,1450.8096,1451.1936,space,0.366,,1451.1936,83,47,1452.1814,1452.1814,1452.1826,,,,0,16,16,16,1,35,85,,,,,,,,
,,64c12183ab9cf635c69df81b,65af56c22cf40634cd5d70e3,2024-01-23_08h07.11.299,bars,2023.2.3,MacIntel,59.88023952,657b66ea316d21385b68909f,,,,,,,,,,,1452.1834,1453.1816,,,1453.6771,1453.9179,,134,134,,,,,,,,,,,,,,,,bars/040.png,bars/mask004.png,,,,,,,,,,,,2,1,,,,,,,2,8,2,10,,,,,,,,,,,1453.1816,1453.6771,1453.9179,1454.2927,space,0.3582,,1454.2927,6,51,1455.293,1455.2931,1455.2963,,,,0,17,17,17,1,140,5,,,,,,,,
,,64c12183ab9cf635c69df81b,65af56c22cf40634cd5d70e3,2024-01-23_08h07.11.299,bars,2023.2.3,MacIntel,59.88023952,657b66ea316d21385b68909f,,,,,,,,,,,1455.2966,1456.2974,,,1456.7864,1457.0308,,151,151,,,,,,,,,,,,,,,,bars/016.png,bars/mask004.png,,,,,,,,,,,,5,2,,,,,,,4,10,5,10,,,,,,,,,,,1456.2975,1456.7864,1457.0309,1457.5103,space,0.4604,,1457.5104,69,14,1458.5101,1458.5102,1458.5135,,,,0,18,18,18,1,40,165,,,,,,,,
,,64c12183ab9cf635c69df81b,65af56c22cf40634cd5d70e3,2024-01-23_08h07.11.299,bars,2023.2.3,MacIntel,59.88023952,657b66ea316d21385b68909f,,,,,,,,,,,1458.5139,1459.5075,,,1460.0132,1460.2541,,108,108,,,,,,,,,,,,,,,,bars/011.png,bars/mask009.png,,,,,,,,,,,,2,2,,,,,,,6,10,5,10,,,,,,,,,,,1459.5075,1460.0131,1460.2543,1460.7186,space,0.4433,,1460.7187,52,23,1461.7246,1461.7246,1461.726,,,,0,19,19,19,1,160,85,,,,,,,,
,,64c12183ab9cf635c69df81b,65af56c22cf40634cd5d70e3,2024-01-23_08h07.11.299,bars,2023.2.3,MacIntel,59.88023952,657b66ea316d21385b68909f,,,,,,,,,,,1461.7266,1462.7186,,,1463.2109,1463.4524,,179,179,,,,,,,,,,,,,,,,bars/009.png,bars/mask002.png,,,,,,,,,,,,4,1,,,,,,,8,10,9,10,,,,,,,,,,,1462.7186,1463.2109,1463.4525,1463.879,space,0.4078,,1463.8791,16,74,1464.8745,1464.8745,1464.8779,,,,0,20,20,20,1,15,105,,,,,,,,
,,64c12183ab9cf635c69df81b,65af56c22cf40634cd5d70e3,2024-01-23_08h07.11.299,bars,2023.2.3,MacIntel,59.88023952,657b66ea316d21385b68909f,,,,,,,,,,,1464.8783,1465.8686,,,1466.3727,1466.6131,,91,91,,,,,,,,,,,,,,,,bars/040.png,bars/mask002.png,,,,,,,,,,,,0,1,,,,,,,6,8,6,10,,,,,,,,,,,1465.8686,1466.3725,1466.6132,1467.1814,space,0.5505,,1467.1814,49,86,1468.185,1468.185,1468.1861,,,,0,21,21,21,1,140,5,,,,,,,,
,,64c12183ab9cf635c69df81b,65af56c22cf40634cd5d70e3,2024-01-23_08h07.11.299,bars,2023.2.3,MacIntel,59.88023952,657b66ea316d21385b68909f,,,,,,,,,,,1468.1869,1469.1821,,,1469.6727,1469.9147,,24,24,,,,,,,,,,,,,,,,bars/011.png,bars/mask001.png,,,,,,,,,,,,0,1,,,,,,,4,6,6,5,,,,,,,,,,,1469.1821,1469.6727,1469.9148,1470.4111,space,0.478,,1470.4111,44,61,1471.3994,1471.3994,1471.4005,,,,0,22,22,22,1,160,85,,,,,,,,
,,64c12183ab9cf635c69df81b,65af56c22cf40634cd5d70e3,2024-01-23_08h07.11.299,bars,2023.2.3,MacIntel,59.88023952,657b66ea316d21385b68909f,,,,,,,,,,,1471.4012,1472.4057,,,1472.8916,1473.1299,,95,95,,,,,,,,,,,,,,,,bars/040.png,bars/mask008.png,,,,,,,,,,,,0,1,,,,,,,2,8,2,8,,,,,,,,,,,1472.4058,1472.8916,1473.1299,1473.8843,space,0.736,,1473.8843,45,90,1474.8789,1474.8789,1474.88,,,,0,23,23,23,1,140,5,,,,,,,,
,,64c12183ab9cf635c69df81b,65af56c22cf40634cd5d70e3,2024-01-23_08h07.11.299,bars,2023.2.3,MacIntel,59.88023952,657b66ea316d21385b68909f,,,,,,,,,,,1474.8807,1475.8686,,,1476.3724,1476.6166,,109,109,,,,,,,,,,,,,,,,bars/039.png,bars/mask008.png,,,,,,,,,,,,9,2,,,,,,,4,10,4,10,,,,,,,,,,,1475.8687,1476.3724,1476.6166,1477.3514,space,0.7173,,1477.3515,66,4,1478.3236,1478.3237,1478.327,,,,0,24,24,24,1,175,105,,,,,,,,
,,64c12183ab9cf635c69df81b,65af56c22cf40634cd5d70e3,2024-01-23_08h07.11.299,bars,2023.2.3,MacIntel,59.88023952,657b66ea316d21385b68909f,,,,,,,,,,,1478.3274,1479.3241,,,1479.8156,1480.068,,74,74,,,,,,,,,,,,,,,,bars/035.png,bars/mask003.png,,,,,,,,,,,,4,2,,,,,,,2,8,3,7,,,,,,,,,,,1479.3241,1479.8155,1480.0681,1480.4594,space,0.3731,,1480.4595,79,14,1481.4576,1481.4577,1481.4588,,,,0,25,25,25,1,175,60,,,,,,,,
,,64c12183ab9cf635c69df81b,65af56c22cf40634cd5d70e3,2024-01-23_08h07.11.299,bars,2023.2.3,MacIntel,59.88023952,657b66ea316d21385b68909f,,,,,,,,,,,1481.4594,1482.4628,,,1482.9587,1483.1967,,146,146,,,,,,,,,,,,,,,,bars/026.png,bars/mask000.png,,,,,,,,,,,,0,2,,,,,,,0,10,0,10,,,,,,,,,,,1482.4628,1482.9585,1483.1968,1483.9197,space,0.7062,,1483.9198,69,61,1484.9165,1484.9166,1484.9178,,,,0,26,26,26,1,35,85,,,,,,,,
,,64c12183ab9cf635c69df81b,65af56c22cf40634cd5d70e3,2024-01-23_08h07.11.299,bars,2023.2.3,MacIntel,59.88023952,657b66ea316d21385b68909f,,,,,,,,,,,1484.9185,1485.915,,,1486.4125,1486.6528,,57,57,,,,,,,,,,,,,,,,bars/020.png,bars/mask007.png,,,,,,,,,,,,0,1,,,,,,,2,10,2,10,,,,,,,,,,,1485.915,1486.4125,1486.6528,1487.4443,space,0.7746,,1487.4444,58,67,1488.4743,1488.4744,1488.4778,,,,0,27,27,27,1,115,170,,,,,,,,
,,64c12183ab9cf635c69df81b,65af56c22cf40634cd5d70e3,2024-01-23_08h07.11.299,bars,2023.2.3,MacIntel,59.88023952,657b66ea316d21385b68909f,,,,,,,,,,,1488.4782,1489.4823,,,1489.9809,1490.2325,,10,10,,,,,,,,,,,,,,,,bars/009.png,bars/mask009.png,,,,,,,,,,,,1,1,,,,,,,0,10,1,10,,,,,,,,,,,1489.4824,1489.9809,1490.2326,1490.9345,space,0.6847,,1490.9346,5,85,1491.9403,1491.9404,1491.9416,,,,0,28,28,28,1,15,105,,,,,,,,
,,64c12183ab9cf635c69df81b,65af56c22cf40634cd5d70e3,2024-01-23_08h07.11.299,bars,2023.2.3,MacIntel,59.88023952,657b66ea316d21385b68909f,,,,,,,,,,,1491.942,1492.9387,,,1493.4294,1493.6743,,42,42,,,,,,,,,,,,,,,,bars/026.png,bars/mask002.png,,,,,,,,,,,,2,1,,,,,,,0,8,2,8,,,,,,,,,,,1492.9387,1493.4294,1493.6743,1494.9965,space,1.3044,,1494.9965,7,43,1495.9998,1495.9998,1496.0013,,,,0,29,29,29,1,35,85,,,,,,,,
,,64c12183ab9cf635c69df81b,65af56c22cf40634cd5d70e3,2024-01-23_08h07.11.299,bars,2023.2.3,MacIntel,59.88023952,657b66ea316d21385b68909f,,,,,,,,,,,1496.0016,1496.992,,,1497.4801,1497.7332,,48,48,,,,,,,,,,,,,,,,bars/042.png,bars/mask000.png,,,,,,,,,,,,1,2,,,,,,,0,10,0,10,,,,,,,,,,,1496.9921,1497.4801,1497.7332,1498.3872,space,0.6368,,1498.3872,83,27,1499.3775,1499.3776,1499.3809,,,,0,30,30,30,1,145,75,,,,,,,,
,,64c12183ab9cf635c69df81b,65af56c22cf40634cd5d70e3,2024-01-23_08h07.11.299,bars,2023.2.3,MacIntel,59.88023952,657b66ea316d21385b68909f,,,,,,,,,,,1499.3813,1500.3575,,,1500.8553,1501.1092,,154,154,,,,,,,,,,,,,,,,bars/029.png,bars/mask006.png,,,,,,,,,,,,0,1,,,,,,,0,10,0,9,,,,,,,,,,,1500.3576,1500.8553,1501.1093,1501.4631,space,0.3366,,1501.4632,64,71,1502.4519,1502.4519,1502.455,,,,0,31,31,31,1,90,45,,,,,,,,
,,64c12183ab9cf635c69df81b,65af56c22cf40634cd5d70e3,2024-01-23_08h07.11.299,bars,2023.2.3,MacIntel,59.88023952,657b66ea316d21385b68909f,,,,,,,,,,,1502.4556,1503.445,,,1503.9452,1504.1875,,14,14,,,,,,,,,,,,,,,,bars/031.png,bars/mask001.png,,,,,,,,,,,,2,2,,,,,,,0,8,0,8,,,,,,,,,,,1503.445,1503.9451,1504.1876,1504.946,space,0.7411,,1504.946,74,21,1505.9527,1505.9529,1505.9559,,,,0,32,32,32,1,120,35,,,,,,,,
,,64c12183ab9cf635c69df81b,65af56c22cf40634cd5d70e3,2024-01-23_08h07.11.299,bars,2023.2.3,MacIntel,59.88023952,657b66ea316d21385b68909f,,,,,,,,,,,1505.9564,1506.9586,,,1507.4503,1507.6881,,96,96,,,,,,,,,,,,,,,,bars/030.png,bars/mask004.png,,,,,,,,,,,,0,2,,,,,,,0,6,0,6,,,,,,,,,,,1506.9587,1507.4502,1507.6881,1508.2844,space,0.5784,,1508.2845,44,31,1509.2768,1509.2769,1509.2785,,,,0,33,33,33,1,140,65,,,,,,,,
,,64c12183ab9cf635c69df81b,65af56c22cf40634cd5d70e3,2024-01-23_08h07.11.299,bars,2023.2.3,MacIntel,59.88023952,657b66ea316d21385b68909f,,,,,,,,,,,1509.2789,1510.284,,,1510.7874,1511.0346,,58,58,,,,,,,,,,,,,,,,bars/047.png,bars/mask002.png,,,,,,,,,,,,2,2,,,,,,,0,4,0,3,,,,,,,,,,,1510.284,1510.7873,1511.0347,1511.1453,space,0.0925,,1511.1454,43,12,1512.1342,1512.1342,1512.1354,,,,0,34,34,34,1,15,70,,,,,,,,
,,64c12183ab9cf635c69df81b,65af56c22cf40634cd5d70e3,2024-01-23_08h07.11.299,bars,2023.2.3,MacIntel,59.88023952,657b66ea316d21385b68909f,,,,,,,,,,,1512.1362,1513.1339,,,1513.6357,1513.8766,,69,69,,,,,,,,,,,,,,,,bars/007.png,bars/mask002.png,,,,,,,,,,,,1,2,,,,,,,2,2,4,1,,,,,,,,,,,1513.134,1513.6356,1513.8767,1513.8937,space,0.0015,,1513.8937,74,14,1514.8842,1514.8842,1514.8856,,,,0,35,35,35,1,175,55,,,,,,,,
,,64c12183ab9cf635c69df81b,65af56c22cf40634cd5d70e3,2024-01-23_08h07.11.299,bars,2023.2.3,MacIntel,59.88023952,657b66ea316d21385b68909f,,,,,,,,,,,1514.886,1515.8763,,,1516.3662,1516.6083,,39,39,,,,,,,,,,,,,,,,bars/025.png,bars/mask001.png,,,,,,,,,,,,0,2,,,,,,,0,0,2,0,,,,,,,,,,,1515.8764,1516.3662,1516.6083,1517.3413,space,0.7167,,1517.3414,66,1,1518.3466,1518.3467,1518.3478,,,,0,36,36,36,1,105,40,,,,,,,,
,,64c12183ab9cf635c69df81b,65af56c22cf40634cd5d70e3,2024-01-23_08h07.11.299,bars,2023.2.3,MacIntel,59.88023952,657b66ea316d21385b68909f,,,,,,,,,,,1518.3485,1519.3477,,,1519.8418,1520.0952,,124,124,,,,,,,,,,,,,,,,bars/026.png,bars/mask000.png,,,,,,,,,,,,0,2,,,,,,,0,2,0,1,,,,,,,,,,,1519.3479,1519.8418,1520.0955,1522.8452,space,2.7301,,1522.8455,89,39,1523.8421,1523.8422,1523.8609,,,,0,37,37,37,1,35,85,,,,,,,,
,,64c12183ab9cf635c69df81b,65af56c22cf40634cd5d70e3,2024-01-23_08h07.11.299,bars,2023.2.3,MacIntel,59.88023952,657b66ea316d21385b68909f,,,,,,,,,,,1523.8614,1524.8555,,,1525.349,1525.5892,,29,29,,,,,,,,,,,,,,,,bars/041.png,bars/mask009.png,,,,,,,,,,,,2,1,,,,,,,2,4,3,2,,,,,,,,,,,1524.8555,1525.349,1525.5893,1526.4727,space,0.8648,,1526.4727,9,56,1527.4667,1527.4668,1527.4847,,,,0,38,38,38,1,20,85,,,,,,,,
,,64c12183ab9cf635c69df81b,65af56c22cf40634cd5d70e3,2024-01-23_08h07.11.299,bars,2023.2.3,MacIntel,59.88023952,657b66ea316d21385b68909f,,,,,,,,,,,1527.485,1528.4838,,,1528.9713,1529.2212,,35,35,,,,,,,,,,,,,,,,bars/037.png,bars/mask000.png,,,,,,,,,,,,0,1,,,,,,,4,2,3,1,,,,,,,,,,,1528.4838,1528.9713,1529.2213,1529.7727,space,0.5258,,1529.7728,65,70,1530.7708,1530.7708,1530.7716,,,,0,39,39,39,1,150,105,,,,,,,,
,,64c12183ab9cf635c69df81b,65af56c22cf40634cd5d70e3,2024-01-23_08h07.11.299,bars,2023.2.3,MacIntel,59.88023952,657b66ea316d21385b68909f,,,,,,,,,,,1530.772,1531.7615,,,1532.2624,1532.5032,,56,56,,,,,,,,,,,,,,,,bars/005.png,bars/mask004.png,,,,,,,,,,,,0,1,,,,,,,6,0,5,0,,,,,,,,,,,1531.7615,1532.2624,1532.5032,1533.2136,space,0.6923,,1533.2136,46,84,1534.2051,1534.2051,1534.2064,,,,0,40,40,40,1,10,140,,,,,,,,
,,64c12183ab9cf635c69df81b,65af56c22cf40634cd5d70e3,2024-01-23_08h07.11.299,bars,2023.2.3,MacIntel,59.88023952,657b66ea316d21385b68909f,,,,,,,,,,,1534.2068,1535.196,,,1535.6929,1535.9358,,57,57,,,,,,,,,,,,,,,,bars/040.png,bars/mask009.png,,,,,,,,,,,,0,2,,,,,,,8,2,10,3,,,,,,,,,,,1535.1961,1535.6928,1535.9358,1536.6642,space,0.713,,1536.6643,83,52,1537.6536,1537.6537,1537.6568,,,,0,41,41,41,1,140,5,,,,,,,,
,,64c12183ab9cf635c69df81b,65af56c22cf40634cd5d70e3,2024-01-23_08h07.11.299,bars,2023.2.3,MacIntel,59.88023952,657b66ea316d21385b68909f,,,,,,,,,,,1537.6573,1538.6595,,,1539.1617,1539.3896,,46,46,,,,,,,,,,,,,,,,bars/045.png,bars/mask005.png,,,,,,,,,,,,0,2,,,,,,,6,4,7,4,,,,,,,,,,,1538.6595,1539.1617,1539.3896,1539.9182,space,0.4991,,1539.9182,54,36,1540.8979,1540.898,1540.899,,,,0,42,42,42,1,100,10,,,,,,,,
,,64c12183ab9cf635c69df81b,65af56c22cf40634cd5d70e3,2024-01-23_08h07.11.299,bars,2023.2.3,MacIntel,59.88023952,657b66ea316d21385b68909f,,,,,,,,,,,1540.8996,1541.8873,,,1542.3905,1542.6348,,93,93,,,,,,,,,,,,,,,,bars/028.png,bars/mask008.png,,,,,,,,,,,,1,2,,,,,,,4,6,4,6,,,,,,,,,,,1541.8874,1542.3905,1542.6349,1543.4497,space,0.7963,,1543.4498,48,27,1544.4444,1544.4445,1544.4455,,,,0,43,43,43,1,45,120,,,,,,,,
,,64c12183ab9cf635c69df81b,65af56c22cf40634cd5d70e3,2024-01-23_08h07.11.299,bars,2023.2.3,MacIntel,59.88023952,657b66ea316d21385b68909f,,,,,,,,,,,1544.4463,1545.4427,,,1545.9354,1546.1861,,166,166,,,,,,,,,,,,,,,,bars/023.png,bars/mask002.png,,,,,,,,,,,,0,1,,,,,,,6,8,5,9,,,,,,,,,,,1545.4427,1545.9354,1546.1861,1546.7573,space,0.5538,,1546.7573,34,51,1547.7444,1547.7445,1547.7475,,,,0,44,44,44,1,20,115,,,,,,,,
,,64c12183ab9cf635c69df81b,65af56c22cf40634cd5d70e3,2024-01-23_08h07.11.299,bars,2023.2.3,MacIntel,59.88023952,657b66ea316d21385b68909f,,,,,,,,,,,1547.7479,1548.7513,,,1549.2503,1549.5428,,121,121,,,,,,,,,,,,,,,,bars/032.png,bars/mask006.png,,,,,,,,,,,,6,1,,,,,,,8,10,7,10,,,,,,,,,,,1548.7514,1549.2502,1549.5428,1551.1686,space,1.5713,,1551.1686,4,79,1552.171,1552.1711,1552.1902,,,,0,45,45,45,1,125,20,,,,,,,,
,,64c12183ab9cf635c69df81b,65af56c22cf40634cd5d70e3,2024-01-23_08h07.11.299,bars,2023.2.3,MacIntel,59.88023952,657b66ea316d21385b68909f,,,,,,,,,,,1552.1905,1553.1882,,,1553.6734,1553.9189,,127,127,,,,,,,,,,,,,,,,bars/015.png,bars/mask009.png,,,,,,,,,,,,2,1,,,,,,,6,8,5,9,,,,,,,,,,,1553.1883,1553.6734,1553.919,1554.3804,space,0.4441,,1554.3805,17,33,1555.3838,1555.3838,1555.3849,,,,0,46,46,46,1,110,160,,,,,,,,
,,64c12183ab9cf635c69df81b,65af56c22cf40634cd5d70e3,2024-01-23_08h07.11.299,bars,2023.2.3,MacIntel,59.88023952,657b66ea316d21385b68909f,,,,,,,,,,,1555.3855,1556.3799,,,1556.8704,1557.1191,,94,94,,,,,,,,,,,,,,,,bars/029.png,bars/mask008.png,,,,,,,,,,,,3,1,,,,,,,4,6,3,7,,,,,,,,,,,1556.38,1556.8704,1557.1192,1558.3041,space,1.1682,,1558.3042,4,49,1559.2951,1559.2951,1559.2966,,,,0,47,47,47,1,90,45,,,,,,,,
,,64c12183ab9cf635c69df81b,65af56c22cf40634cd5d70e3,2024-01-23_08h07.11.299,bars,2023.2.3,MacIntel,59.88023952,657b66ea316d21385b68909f,,,,,,,,,,,1559.2969,1560.3011,,,1560.7919,1561.0473,,4,4,,,,,,,,,,,,,,,,bars/027.png,bars/mask001.png,,,,,,,,,,,,0,2,,,,,,,6,8,3,8,,,,,,,,,,,1560.3012,1560.7918,1561.0473,1561.8685,space,0.8031,,1561.8686,74,46,1562.8573,1562.8573,1562.8606,,,,0,48,48,48,1,110,50,,,,,,,,
,,64c12183ab9cf635c69df81b,65af56c22cf40634cd5d70e3,2024-01-23_08h07.11.299,bars,2023.2.3,MacIntel,59.88023952,657b66ea316d21385b68909f,,,,,,,,,,,1562.861,1563.8646,,,1564.3536,1564.5995,,140,140,,,,,,,,,,,,,,,,bars/029.png,bars/mask006.png,,,,,,,,,,,,0,1,,,,,,,4,10,4,10,,,,,,,,,,,1563.8646,1564.3536,1564.5995,1565.7706,space,1.1538,,1565.7707,50,85,1566.7485,1566.7486,1566.7517,,,,0,49,49,49,1,90,45,,,,,,,,
,,64c12183ab9cf635c69df81b,65af56c22cf40634cd5d70e3,2024-01-23_08h07.11.299,bars,2023.2.3,MacIntel,59.88023952,657b66ea316d21385b68909f,,,,,,,,,,,,,,,,,,,,,,,,,,,,,,,,,,,,,,,,,,,,,,,,,,,,,,,,,,,,,,,,,,,,,,,,,,,,,,,,,,,,,,,,,,,,,1566.7518,1626.7417,0,2,2,0,1,sequence_tables/blk010.csv
,,64c12183ab9cf635c69df81b,65af56c22cf40634cd5d70e3,2024-01-23_08h07.11.299,bars,2023.2.3,MacIntel,59.88023952,657b66ea316d21385b68909f,,,,,,,,,,,1630.0037,1631.0071,,,1631.5033,1631.7419,,56,56,,,,,,,,,,,,,,,,bars/006.png,bars/mask006.png,,,,,,,,,,,,1,1,,,,,,,4,7,3,7,,,,,,1626.7609,1629.9975,space,3.228,,1631.0071,1631.5032,1631.7419,1632.1813,space,0.421,,1632.1813,21,44,1633.1758,1633.1759,1633.177,,,,0,0,0,0,1,35,100,,,,,,,,
,,64c12183ab9cf635c69df81b,65af56c22cf40634cd5d70e3,2024-01-23_08h07.11.299,bars,2023.2.3,MacIntel,59.88023952,657b66ea316d21385b68909f,,,,,,,,,,,1633.1779,1634.1735,,,1634.6517,1634.8948,,67,67,,,,,,,,,,,,,,,,bars/026.png,bars/mask009.png,,,,,,,,,,,,2,2,,,,,,,6,5,7,5,,,,,,,,,,,1634.1736,1634.6517,1634.8948,1635.3469,space,0.4348,,1635.3469,32,18,1636.3409,1636.341,1636.3441,,,,0,1,1,1,1,35,85,,,,,,,,
,,64c12183ab9cf635c69df81b,65af56c22cf40634cd5d70e3,2024-01-23_08h07.11.299,bars,2023.2.3,MacIntel,59.88023952,657b66ea316d21385b68909f,,,,,,,,,,,1636.3446,1637.3429,,,1637.8432,1638.0958,,138,138,,,,,,,,,,,,,,,,bars/025.png,bars/mask000.png,,,,,,,,,,,,0,1,,,,,,,4,3,4,4,,,,,,,,,,,1637.343,1637.8432,1638.0959,1638.918,space,0.8047,,1638.918,33,82,1639.9087,1639.9088,1639.912,,,,0,2,2,2,1,105,40,,,,,,,,
,,64c12183ab9cf635c69df81b,65af56c22cf40634cd5d70e3,2024-01-23_08h07.11.299,bars,2023.2.3,MacIntel,59.88023952,657b66ea316d21385b68909f,,,,,,,,,,,1639.9123,1640.9121,,,1641.4101,1641.6542,,94,94,,,,,,,,,,,,,,,,bars/022.png,bars/mask001.png,,,,,,,,,,,,2,1,,,,,,,2,5,2,5,,,,,,,,,,,1640.9121,1641.41,1641.6544,1641.8415,space,0.169,,1641.8415,1,74,1642.8326,1642.8327,1642.8337,,,,0,3,3,3,1,95,20,,,,,,,,
,,64c12183ab9cf635c69df81b,65af56c22cf40634cd5d70e3,2024-01-23_08h07.11.299,bars,2023.2.3,MacIntel,59.88023952,657b66ea316d21385b68909f,,,,,,,,,,,1642.8344,1643.8114,,,1644.3058,1644.5523,,46,46,,,,,,,,,,,,,,,,bars/035.png,bars/mask006.png,,,,,,,,,,,,2,2,,,,,,,0,3,1,4,,,,,,,,,,,1643.8115,1644.3058,1644.5524,1645.2482,space,0.678,,1645.2482,51,14,1646.2417,1646.2417,1646.245,,,,0,4,4,4,1,175,60,,,,,,,,
,,64c12183ab9cf635c69df81b,65af56c22cf40634cd5d70e3,2024-01-23_08h07.11.299,bars,2023.2.3,MacIntel,59.88023952,657b66ea316d21385b68909f,,,,,,,,,,,1646.2453,1647.2401,,,1647.7291,1647.9765,,36,36,,,,,,,,,,,,,,,,bars/014.png,bars/mask009.png,,,,,,,,,,,,0,2,,,,,,,0,5,0,2,,,,,,,,,,,1647.2402,1647.7291,1647.9766,1648.451,space,0.4571,,1648.451,44,36,1649.4567,1649.4568,1649.4581,,,,0,5,5,5,1,80,0,,,,,,,,
,,64c12183ab9cf635c69df81b,65af56c22cf40634cd5d70e3,2024-01-23_08h07.11.299,bars,2023.2.3,MacIntel,59.88023952,657b66ea316d21385b68909f,,,,,,,,,,,1649.4586,1650.4442,,,1650.9238,1651.1647,,23,23,,,,,,,,,,,,,,,,bars/037.png,bars/mask002.png,,,,,,,,,,,,0,1,,,,,,,2,7,3,6,,,,,,,,,,,1650.4443,1650.9238,1651.1647,1651.5627,space,0.3676,,1651.5627,53,82,1652.553,1652.553,1652.5559,,,,0,6,6,6,1,150,105,,,,,,,,
,,64c12183ab9cf635c69df81b,65af56c22cf40634cd5d70e3,2024-01-23_08h07.11.299,bars,2023.2.3,MacIntel,59.88023952,657b66ea316d21385b68909f,,,,,,,,,,,1652.5566,1653.5627,,,1654.0583,1654.2993,,128,128,,,,,,,,,,,,,,,,bars/031.png,bars/mask007.png,,,,,,,,,,,,0,1,,,,,,,0,9,0,9,,,,,,,,,,,1653.5628,1654.0583,1654.2993,1654.7441,space,0.4278,,1654.7442,8,87,1655.7468,1655.7468,1655.7482,,,,0,7,7,7,1,120,35,,,,,,,,
,,64c12183ab9cf635c69df81b,65af56c22cf40634cd5d70e3,2024-01-23_08h07.11.299,bars,2023.2.3,MacIntel,59.88023952,657b66ea316d21385b68909f,,,,,,,,,,,1655.7485,1656.7481,,,1657.2372,1657.4833,,134,134,,,,,,,,,,,,,,,,bars/002.png,bars/mask009.png,,,,,,,,,,,,0,1,,,,,,,0,10,0,10,,,,,,,,,,,1656.7482,1657.2372,1657.4834,1657.5674,space,0.0706,,1657.5674,4,49,1658.5596,1658.5596,1658.5611,,,,0,8,8,8,1,130,85,,,,,,,,
,,64c12183ab9cf635c69df81b,65af56c22cf40634cd5d70e3,2024-01-23_08h07.11.299,bars,2023.2.3,MacIntel,59.88023952,657b66ea316d21385b68909f,,,,,,,,,,,1658.5615,1659.5585,,,1660.0564,1660.3,,148,148,,,,,,,,,,,,,,,,bars/017.png,bars/mask007.png,,,,,,,,,,,,2,1,,,,,,,2,10,2,10,,,,,,,,,,,1659.5586,1660.0563,1660.3001,1660.3404,space,0.0211,,1660.3405,3,77,1661.3299,1661.3299,1661.3305,,,,0,9,9,9,1,145,45,,,,,,,,
,,64c12183ab9cf635c69df81b,65af56c22cf40634cd5d70e3,2024-01-23_08h07.11.299,bars,2023.2.3,MacIntel,59.88023952,657b66ea316d21385b68909f,,,,,,,,,,,1661.3307,1662.3364,,,1662.8158,1663.0591,,141,141,,,,,,,,,,,,,,,,bars/012.png,bars/mask008.png,,,,,,,,,,,,0,1,,,,,,,4,10,4,10,,,,,,,,,,,1662.3364,1662.8158,1663.0592,1663.7465,space,0.6697,,1663.7465,51,54,1664.7459,1664.7459,1664.7471,,,,0,10,10,10,1,90,15,,,,,,,,
,,64c12183ab9cf635c69df81b,65af56c22cf40634cd5d70e3,2024-01-23_08h07.11.299,bars,2023.2.3,MacIntel,59.88023952,657b66ea316d21385b68909f,,,,,,,,,,,1664.7476,1665.7502,,,1666.2574,1666.5039,,75,75,,,,,,,,,,,,,,,,bars/001.png,bars/mask004.png,,,,,,,,,,,,7,2,,,,,,,2,10,0,10,,,,,,,,,,,1665.7503,1666.2574,1666.5039,1667.0372,space,0.516,,1667.0372,55,10,1668.0388,1668.0388,1668.042,,,,0,11,11,11,1,130,85,,,,,,,,
,,64c12183ab9cf635c69df81b,65af56c22cf40634cd5d70e3,2024-01-23_08h07.11.299,bars,2023.2.3,MacIntel,59.88023952,657b66ea316d21385b68909f,,,,,,,,,,,1668.0424,1669.0224,,,1669.5132,1669.7576,,139,139,,,,,,,,,,,,,,,,bars/004.png,bars/mask003.png,,,,,,,,,,,,5,2,,,,,,,4,10,4,10,,,,,,,,,,,1669.0224,1669.5131,1669.7577,1670.154,space,0.377,,1670.1541,66,14,1671.1601,1671.1602,1671.161,,,,0,12,12,12,1,25,125,,,,,,,,
,,64c12183ab9cf635c69df81b,65af56c22cf40634cd5d70e3,2024-01-23_08h07.11.299,bars,2023.2.3,MacIntel,59.88023952,657b66ea316d21385b68909f,,,,,,,,,,,1671.1612,1672.1504,,,1672.645,1672.8927,,12,12,,,,,,,,,,,,,,,,bars/004.png,bars/mask002.png,,,,,,,,,,,,3,1,,,,,,,6,8,5,7,,,,,,,,,,,1672.1504,1672.645,1672.8927,1674.3558,space,1.4451,,1674.356,13,67,1675.35,1675.35,1675.3699,,,,0,13,13,13,1,25,125,,,,,,,,
,,64c12183ab9cf635c69df81b,65af56c22cf40634cd5d70e3,2024-01-23_08h07.11.299,bars,2023.2.3,MacIntel,59.88023952,657b66ea316d21385b68909f,,,,,,,,,,,1675.3702,1676.369,,,1676.8729,1677.1156,,60,60,,,,,,,,,,,,,,,,bars/047.png,bars/mask009.png,,,,,,,,,,,,7,2,,,,,,,4,10,4,10,,,,,,,,,,,1676.369,1676.8729,1677.1157,1677.7211,space,0.585,,1677.7211,45,10,1678.73,1678.7301,1678.7334,,,,0,14,14,14,1,15,70,,,,,,,,
,,64c12183ab9cf635c69df81b,65af56c22cf40634cd5d70e3,2024-01-23_08h07.11.299,bars,2023.2.3,MacIntel,59.88023952,657b66ea316d21385b68909f,,,,,,,,,,,1678.7338,1679.7373,,,1680.2285,1680.4574,,167,167,,,,,,,,,,,,,,,,bars/005.png,bars/mask003.png,,,,,,,,,,,,0,1,,,,,,,2,10,2,10,,,,,,,,,,,1679.7374,1680.2285,1680.4575,1680.5362,space,0.0592,,1680.5362,23,27,1681.5345,1681.5346,1681.5377,,,,0,15,15,15,1,10,140,,,,,,,,
,,64c12183ab9cf635c69df81b,65af56c22cf40634cd5d70e3,2024-01-23_08h07.11.299,bars,2023.2.3,MacIntel,59.88023952,657b66ea316d21385b68909f,,,,,,,,,,,1681.5381,1682.5215,,,1683.0208,1683.2497,,157,157,,,,,,,,,,,,,,,,bars/041.png,bars/mask008.png,,,,,,,,,,,,0,1,,,,,,,4,10,5,8,,,,,,,,,,,1682.5215,1683.0207,1683.2497,1683.8743,space,0.6068,,1683.8743,43,72,1684.8698,1684.8698,1684.871,,,,0,16,16,16,1,20,85,,,,,,,,
,,64c12183ab9cf635c69df81b,65af56c22cf40634cd5d70e3,2024-01-23_08h07.11.299,bars,2023.2.3,MacIntel,59.88023952,657b66ea316d21385b68909f,,,,,,,,,,,1684.8715,1685.8846,,,1686.3848,1686.6232,,176,-4,,,,,,,,,,,,,,,,bars/011.png,bars/mask005.png,,,,,,,,,,,,4,1,,,,,,,6,10,9,9,,,,,,,,,,,1685.8847,1686.3848,1686.6232,1688.3462,space,1.7056,,1688.3463,16,89,1689.3419,1689.342,1689.3603,,,,0,17,17,17,1,160,85,,,,,,,,
,,64c12183ab9cf635c69df81b,65af56c22cf40634cd5d70e3,2024-01-23_08h07.11.299,bars,2023.2.3,MacIntel,59.88023952,657b66ea316d21385b68909f,,,,,,,,,,,1689.3606,1690.3623,,,1690.8547,1691.1025,,178,-2,,,,,,,,,,,,,,,,bars/001.png,bars/mask000.png,,,,,,,,,,,,0,1,,,,,,,8,8,7,9,,,,,,,,,,,1690.3624,1690.8546,1691.1025,1693.5445,space,2.4251,,1693.5446,48,87,1694.5328,1694.5328,1694.5516,,,,0,18,18,18,1,130,85,,,,,,,,
,,64c12183ab9cf635c69df81b,65af56c22cf40634cd5d70e3,2024-01-23_08h07.11.299,bars,2023.2.3,MacIntel,59.88023952,657b66ea316d21385b68909f,,,,,,,,,,,1694.5518,1695.5575,,,1696.0608,1696.3076,,135,135,,,,,,,,,,,,,,,,bars/032.png,bars/mask008.png,,,,,,,,,,,,5,1,,,,,,,6,10,7,9,,,,,,,,,,,1695.5576,1696.0607,1696.3076,1696.3257,space,0.0011,,1696.3258,10,65,1697.3221,1697.3221,1697.3232,,,,0,19,19,19,1,125,20,,,,,,,,
,,64c12183ab9cf635c69df81b,65af56c22cf40634cd5d70e3,2024-01-23_08h07.11.299,bars,2023.2.3,MacIntel,59.88023952,657b66ea316d21385b68909f,,,,,,,,,,,1697.324,1698.3124,,,1698.8184,1699.0732,,6,6,,,,,,,,,,,,,,,,bars/010.png,bars/mask008.png,,,,,,,,,,,,1,1,,,,,,,4,8,4,9,,,,,,,,,,,1698.3124,1698.8183,1699.0732,1699.1628,space,0.0722,,1699.163,21,49,1700.1463,1700.1464,1700.1475,,,,0,20,20,20,1,165,55,,,,,,,,
,,64c12183ab9cf635c69df81b,65af56c22cf40634cd5d70e3,2024-01-23_08h07.11.299,bars,2023.2.3,MacIntel,59.88023952,657b66ea316d21385b68909f,,,,,,,,,,,1700.1483,1701.1485,,,1701.6529,1701.8957,,64,64,,,,,,,,,,,,,,,,bars/047.png,bars/mask000.png,,,,,,,,,,,,8,2,,,,,,,2,10,3,10,,,,,,,,,,,1701.1485,1701.6529,1701.8957,1702.3034,space,0.3893,,1702.3035,49,6,1703.2952,1703.2952,1703.2985,,,,0,21,21,21,1,15,70,,,,,,,,
,,64c12183ab9cf635c69df81b,65af56c22cf40634cd5d70e3,2024-01-23_08h07.11.299,bars,2023.2.3,MacIntel,59.88023952,657b66ea316d21385b68909f,,,,,,,,,,,1703.2989,1704.2898,,,1704.7777,1705.0067,,120,120,,,,,,,,,,,,,,,,bars/047.png,bars/mask006.png,,,,,,,,,,,,0,2,,,,,,,4,10,4,9,,,,,,,,,,,1704.2898,1704.7776,1705.0067,1705.481,space,0.4562,,1705.4812,75,50,1706.4785,1706.4786,1706.4796,,,,0,22,22,22,1,15,70,,,,,,,,
,,64c12183ab9cf635c69df81b,65af56c22cf40634cd5d70e3,2024-01-23_08h07.11.299,bars,2023.2.3,MacIntel,59.88023952,657b66ea316d21385b68909f,,,,,,,,,,,1706.4799,1707.4678,,,1707.9612,1708.2126,,81,81,,,,,,,,,,,,,,,,bars/034.png,bars/mask007.png,,,,,,,,,,,,4,2,,,,,,,6,8,5,8,,,,,,,,,,,1707.4678,1707.9611,1708.2127,1709.2763,space,1.0455,,1709.2764,44,16,1710.2793,1710.2793,1710.2805,,,,0,23,23,23,1,125,65,,,,,,,,
,,64c12183ab9cf635c69df81b,65af56c22cf40634cd5d70e3,2024-01-23_08h07.11.299,bars,2023.2.3,MacIntel,59.88023952,657b66ea316d21385b68909f,,,,,,,,,,,1710.2812,1711.2782,,,1711.7668,1712.0186,,16,16,,,,,,,,,,,,,,,,bars/008.png,bars/mask006.png,,,,,,,,,,,,5,2,,,,,,,4,10,2,10,,,,,,,,,,,1711.2783,1711.7668,1712.0187,1712.425,space,0.3887,,1712.4251,86,16,1713.4004,1713.4005,1713.4015,,,,0,24,24,24,1,110,0,,,,,,,,
,,64c12183ab9cf635c69df81b,65af56c22cf40634cd5d70e3,2024-01-23_08h07.11.299,bars,2023.2.3,MacIntel,59.88023952,657b66ea316d21385b68909f,,,,,,,,,,,1713.4018,1714.3854,,,1714.8812,1715.1334,,179,-1,,,,,,,,,,,,,,,,bars/033.png,bars/mask004.png,,,,,,,,,,,,2,2,,,,,,,2,8,2,9,,,,,,,,,,,1714.3855,1714.8811,1715.1334,1715.8213,space,0.6704,,1715.8213,26,24,1716.819,1716.8191,1716.8201,,,,0,25,25,25,1,25,155,,,,,,,,
,,64c12183ab9cf635c69df81b,65af56c22cf40634cd5d70e3,2024-01-23_08h07.11.299,bars,2023.2.3,MacIntel,59.88023952,657b66ea316d21385b68909f,,,,,,,,,,,1716.8208,1717.8216,,,1718.3293,1718.5799,,122,122,,,,,,,,,,,,,,,,bars/021.png,bars/mask008.png,,,,,,,,,,,,0,1,,,,,,,4,10,4,10,,,,,,,,,,,1717.8217,1718.3292,1718.5799,1718.809,space,0.2104,,1718.8091,33,52,1719.8021,1719.8023,1719.8055,,,,0,26,26,26,1,155,70,,,,,,,,
,,64c12183ab9cf635c69df81b,65af56c22cf40634cd5d70e3,2024-01-23_08h07.11.299,bars,2023.2.3,MacIntel,59.88023952,657b66ea316d21385b68909f,,,,,,,,,,,1719.8059,1720.7951,,,1721.3011,1721.5511,,138,138,,,,,,,,,,,,,,,,bars/043.png,bars/mask008.png,,,,,,,,,,,,5,2,,,,,,,6,8,5,7,,,,,,,,,,,1720.7952,1721.3011,1721.5511,1721.6263,space,0.0572,,1721.6264,72,8,1722.5892,1722.5893,1722.5923,,,,0,27,27,27,1,30,130,,,,,,,,
,,64c12183ab9cf635c69df81b,65af56c22cf40634cd5d70e3,2024-01-23_08h07.11.299,bars,2023.2.3,MacIntel,59.88023952,657b66ea316d21385b68909f,,,,,,,,,,,1722.5928,1723.5836,,,1724.0777,1724.3167,,76,76,,,,,,,,,,,,,,,,bars/025.png,bars/mask002.png,,,,,,,,,,,,0,1,,,,,,,8,10,7,10,,,,,,,,,,,1723.5837,1724.0777,1724.3167,1726.2327,space,1.892,,1726.2328,29,36,1727.227,1727.2271,1727.2303,,,,0,28,28,28,1,105,40,,,,,,,,
,,64c12183ab9cf635c69df81b,65af56c22cf40634cd5d70e3,2024-01-23_08h07.11.299,bars,2023.2.3,MacIntel,59.88023952,657b66ea316d21385b68909f,,,,,,,,,,,1727.2307,1728.2308,,,1728.7229,1728.9754,,15,15,,,,,,,,,,,,,,,,bars/023.png,bars/mask005.png,,,,,,,,,,,,8,1,,,,,,,10,8,10,7,,,,,,,,,,,1728.231,1728.7229,1728.9754,1729.0484,space,0.0567,,1729.0485,5,80,1730.0731,1730.0733,1730.0743,,,,0,29,29,29,1,20,115,,,,,,,,
,,64c12183ab9cf635c69df81b,65af56c22cf40634cd5d70e3,2024-01-23_08h07.11.299,bars,2023.2.3,MacIntel,59.88023952,657b66ea316d21385b68909f,,,,,,,,,,,1730.075,1731.0646,,,1731.5599,1731.8154,,95,95,,,,,,,,,,,,,,,,bars/041.png,bars/mask002.png,,,,,,,,,,,,5,2,,,,,,,8,6,8,7,,,,,,,,,,,1731.0647,1731.5599,1731.8154,1732.381,space,0.548,,1732.381,75,10,1733.379,1733.3791,1733.3819,,,,0,30,30,30,1,20,85,,,,,,,,
,,64c12183ab9cf635c69df81b,65af56c22cf40634cd5d70e3,2024-01-23_08h07.11.299,bars,2023.2.3,MacIntel,59.88023952,657b66ea316d21385b68909f,,,,,,,,,,,1733.3824,1734.3676,,,1734.9018,1735.1476,,71,71,,,,,,,,,,,,,,,,bars/019.png,bars/mask007.png,,,,,,,,,,,,1,1,,,,,,,10,4,10,5,,,,,,,,,,,1734.3677,1734.9017,1735.1478,1735.3708,space,0.2082,,1735.3708,26,34,1736.3687,1736.3688,1736.3719,,,,0,31,31,31,1,45,105,,,,,,,,
,,64c12183ab9cf635c69df81b,65af56c22cf40634cd5d70e3,2024-01-23_08h07.11.299,bars,2023.2.3,MacIntel,59.88023952,657b66ea316d21385b68909f,,,,,,,,,,,1736.3723,1737.3714,,,1737.8702,1738.1166,,110,110,,,,,,,,,,,,,,,,bars/009.png,bars/mask003.png,,,,,,,,,,,,2,2,,,,,,,10,2,10,2,,,,,,,,,,,1737.3715,1737.8702,1738.1166,1740.2407,space,2.1068,,1740.2407,85,5,1741.2339,1741.234,1741.2368,,,,0,32,32,32,1,15,105,,,,,,,,
,,64c12183ab9cf635c69df81b,65af56c22cf40634cd5d70e3,2024-01-23_08h07.11.299,bars,2023.2.3,MacIntel,59.88023952,657b66ea316d21385b68909f,,,,,,,,,,,1741.2371,1742.2408,,,1742.7324,1742.9712,,130,130,,,,,,,,,,,,,,,,bars/005.png,bars/mask004.png,,,,,,,,,,,,4,2,,,,,,,10,4,10,6,,,,,,,,,,,1742.2409,1742.7324,1742.9712,1743.4616,space,0.4675,,1743.4616,60,10,1744.4531,1744.4531,1744.4551,,,,0,33,33,33,1,10,140,,,,,,,,
,,64c12183ab9cf635c69df81b,65af56c22cf40634cd5d70e3,2024-01-23_08h07.11.299,bars,2023.2.3,MacIntel,59.88023952,657b66ea316d21385b68909f,,,,,,,,,,,1744.4555,1745.4542,,,1745.9608,1746.2103,,42,42,,,,,,,,,,,,,,,,bars/011.png,bars/mask009.png,,,,,,,,,,,,0,2,,,,,,,8,6,6,7,,,,,,,,,,,1745.4543,1745.9608,1746.2103,1746.6681,space,0.4398,,1746.6682,62,43,1747.6589,1747.6589,1747.6599,,,,0,34,34,34,1,160,85,,,,,,,,
,,64c12183ab9cf635c69df81b,65af56c22cf40634cd5d70e3,2024-01-23_08h07.11.299,bars,2023.2.3,MacIntel,59.88023952,657b66ea316d21385b68909f,,,,,,,,,,,1747.6604,1748.6583,,,1749.1466,1749.3904,,77,77,,,,,,,,,,,,,,,,bars/021.png,bars/mask001.png,,,,,,,,,,,,5,2,,,,,,,6,8,7,7,,,,,,,,,,,1748.6583,1749.1465,1749.3905,1750.6629,space,1.2529,,1750.6629,78,7,1751.6627,1751.6627,1751.6813,,,,0,35,35,35,1,155,70,,,,,,,,
,,64c12183ab9cf635c69df81b,65af56c22cf40634cd5d70e3,2024-01-23_08h07.11.299,bars,2023.2.3,MacIntel,59.88023952,657b66ea316d21385b68909f,,,,,,,,,,,1751.6817,1752.6576,,,1753.1479,1753.4027,,143,143,,,,,,,,,,,,,,,,bars/004.png,bars/mask006.png,,,,,,,,,,,,4,2,,,,,,,8,10,9,10,,,,,,,,,,,1752.6576,1753.1478,1753.4027,1753.9968,space,0.5749,,1753.9969,62,18,1754.986,1754.986,1754.9874,,,,0,36,36,36,1,25,125,,,,,,,,
,,64c12183ab9cf635c69df81b,65af56c22cf40634cd5d70e3,2024-01-23_08h07.11.299,bars,2023.2.3,MacIntel,59.88023952,657b66ea316d21385b68909f,,,,,,,,,,,1754.9882,1755.9764,,,1756.4543,1756.6895,,139,139,,,,,,,,,,,,,,,,bars/002.png,bars/mask001.png,,,,,,,,,,,,7,1,,,,,,,10,8,10,8,,,,,,,,,,,1755.9765,1756.4542,1756.6895,1757.2193,space,0.5117,,1757.2194,9,54,1758.2098,1758.2099,1758.2125,,,,0,37,37,37,1,130,85,,,,,,,,
,,64c12183ab9cf635c69df81b,65af56c22cf40634cd5d70e3,2024-01-23_08h07.11.299,bars,2023.2.3,MacIntel,59.88023952,657b66ea316d21385b68909f,,,,,,,,,,,1758.2132,1759.2192,,,1759.7221,1759.966,,7,7,,,,,,,,,,,,,,,,bars/005.png,bars/mask003.png,,,,,,,,,,,,8,1,,,,,,,8,10,9,10,,,,,,,,,,,1759.2192,1759.7221,1759.966,1760.5615,space,0.5779,,1760.5615,3,47,1761.552,1761.5521,1761.5531,,,,0,38,38,38,1,10,140,,,,,,,,
,,64c12183ab9cf635c69df81b,65af56c22cf40634cd5d70e3,2024-01-23_08h07.11.299,bars,2023.2.3,MacIntel,59.88023952,657b66ea316d21385b68909f,,,,,,,,,,,1761.5539,1762.5453,,,1763.0431,1763.3113,,11,11,,,,,,,,,,,,,,,,bars/018.png,bars/mask007.png,,,,,,,,,,,,0,1,,,,,,,6,8,5,9,,,,,,,,,,,1762.5454,1763.043,1763.3114,1766.4493,space,3.1068,,1766.4494,41,79,1767.4389,1767.4389,1767.4578,,,,0,39,39,39,1,150,90,,,,,,,,
,,64c12183ab9cf635c69df81b,65af56c22cf40634cd5d70e3,2024-01-23_08h07.11.299,bars,2023.2.3,MacIntel,59.88023952,657b66ea316d21385b68909f,,,,,,,,,,,1767.458,1768.4547,,,1768.9594,1769.204,,20,20,,,,,,,,,,,,,,,,bars/040.png,bars/mask000.png,,,,,,,,,,,,3,2,,,,,,,4,6,4,6,,,,,,,,,,,1768.4547,1768.9594,1769.204,1769.7014,space,0.4775,,1769.7014,60,15,1770.6902,1770.6903,1770.6933,,,,0,40,40,40,1,140,5,,,,,,,,
,,64c12183ab9cf635c69df81b,65af56c22cf40634cd5d70e3,2024-01-23_08h07.11.299,bars,2023.2.3,MacIntel,59.88023952,657b66ea316d21385b68909f,,,,,,,,,,,1770.6937,1771.6925,,,1772.1761,1772.4227,,152,152,,,,,,,,,,,,,,,,bars/026.png,bars/mask005.png,,,,,,,,,,,,0,1,,,,,,,2,8,2,8,,,,,,,,,,,1771.6926,1772.1761,1772.4229,1772.8431,space,0.4008,,1772.8431,63,67,1773.8317,1773.8318,1773.8348,,,,0,41,41,41,1,35,85,,,,,,,,
,,64c12183ab9cf635c69df81b,65af56c22cf40634cd5d70e3,2024-01-23_08h07.11.299,bars,2023.2.3,MacIntel,59.88023952,657b66ea316d21385b68909f,,,,,,,,,,,1773.8352,1774.8403,,,1775.3378,1775.5849,,66,66,,,,,,,,,,,,,,,,bars/045.png,bars/mask002.png,,,,,,,,,,,,0,1,,,,,,,4,10,2,10,,,,,,,,,,,1774.8404,1775.3378,1775.5849,1776.0278,space,0.4235,,1776.028,34,56,1777.0257,1777.0257,1777.0268,,,,0,42,42,42,1,100,10,,,,,,,,
,,64c12183ab9cf635c69df81b,65af56c22cf40634cd5d70e3,2024-01-23_08h07.11.299,bars,2023.2.3,MacIntel,59.88023952,657b66ea316d21385b68909f,,,,,,,,,,,1777.0274,1778.0295,,,1778.5065,1778.7548,,172,172,,,,,,,,,,,,,,,,bars/025.png,bars/mask006.png,,,,,,,,,,,,0,2,,,,,,,6,8,6,8,,,,,,,,,,,1778.0295,1778.5065,1778.7549,1778.7767,space,0.001,,1778.7767,67,48,1779.7809,1779.7809,1779.7842,,,,0,43,43,43,1,105,40,,,,,,,,
,,64c12183ab9cf635c69df81b,65af56c22cf40634cd5d70e3,2024-01-23_08h07.11.299,bars,2023.2.3,MacIntel,59.88023952,657b66ea316d21385b68909f,,,,,,,,,,,1779.7845,1780.789,,,1781.2872,1781.5354,,167,167,,,,,,,,,,,,,,,,bars/002.png,bars/mask002.png,,,,,,,,,,,,0,1,,,,,,,4,10,5,10,,,,,,,,,,,1780.789,1781.2872,1781.5354,1783.6223,space,2.069,,1783.6223,37,82,1784.6127,1784.6127,1784.6323,,,,0,44,44,44,1,130,85,,,,,,,,
,,64c12183ab9cf635c69df81b,65af56c22cf40634cd5d70e3,2024-01-23_08h07.11.299,bars,2023.2.3,MacIntel,59.88023952,657b66ea316d21385b68909f,,,,,,,,,,,1784.6325,1785.6354,,,1786.13,1786.3685,,0,180,,,,,,,,,,,,,,,,bars/031.png,bars/mask008.png,,,,,,,,,,,,0,2,,,,,,,2,8,2,8,,,,,,,,,,,1785.6354,1786.13,1786.3686,1786.9411,space,0.5548,,1786.9411,60,35,1787.9341,1787.9341,1787.9369,,,,0,45,45,45,1,120,35,,,,,,,,
,,64c12183ab9cf635c69df81b,65af56c22cf40634cd5d70e3,2024-01-23_08h07.11.299,bars,2023.2.3,MacIntel,59.88023952,657b66ea316d21385b68909f,,,,,,,,,,,1787.9373,1788.9421,,,1789.4465,1789.6864,,87,87,,,,,,,,,,,,,,,,bars/040.png,bars/mask002.png,,,,,,,,,,,,0,1,,,,,,,0,10,0,10,,,,,,,,,,,1788.9422,1789.4464,1789.6865,1791.818,space,2.114,,1791.818,53,82,1792.8066,1792.8066,1792.8269,,,,0,46,46,46,1,140,5,,,,,,,,
,,64c12183ab9cf635c69df81b,65af56c22cf40634cd5d70e3,2024-01-23_08h07.11.299,bars,2023.2.3,MacIntel,59.88023952,657b66ea316d21385b68909f,,,,,,,,,,,1792.8272,1793.8178,,,1794.3139,1794.5621,,31,31,,,,,,,,,,,,,,,,bars/031.png,bars/mask008.png,,,,,,,,,,,,6,2,,,,,,,0,8,0,7,,,,,,,,,,,1793.8178,1794.3137,1794.5621,1795.34,space,0.7599,,1795.34,89,4,1796.3406,1796.3407,1796.3436,,,,0,47,47,47,1,120,35,,,,,,,,
,,64c12183ab9cf635c69df81b,65af56c22cf40634cd5d70e3,2024-01-23_08h07.11.299,bars,2023.2.3,MacIntel,59.88023952,657b66ea316d21385b68909f,,,,,,,,,,,1796.3444,1797.343,,,1797.8479,1798.0885,,113,113,,,,,,,,,,,,,,,,bars/031.png,bars/mask008.png,,,,,,,,,,,,0,1,,,,,,,0,10,0,10,,,,,,,,,,,1797.3431,1797.8478,1798.0885,1798.6054,space,0.4991,,1798.6054,7,78,1799.6068,1799.6069,1799.6097,,,,0,48,48,48,1,120,35,,,,,,,,
,,64c12183ab9cf635c69df81b,65af56c22cf40634cd5d70e3,2024-01-23_08h07.11.299,bars,2023.2.3,MacIntel,59.88023952,657b66ea316d21385b68909f,,,,,,,,,,,1799.6104,1800.6027,,,1801.0932,1801.3372,,38,38,,,,,,,,,,,,,,,,bars/004.png,bars/mask006.png,,,,,,,,,,,,1,1,,,,,,,2,8,2,10,,,,,,,,,,,1800.6028,1801.0931,1801.3373,1801.4137,space,0.0583,,1801.4137,13,87,1802.4162,1802.4162,1802.4174,,,,0,49,49,49,1,25,125,,,,,,,,
,,64c12183ab9cf635c69df81b,65af56c22cf40634cd5d70e3,2024-01-23_08h07.11.299,bars,2023.2.3,MacIntel,59.88023952,657b66ea316d21385b68909f,,,,,,,,,,,,,,,,,,,,,,,,,,,,,,,,,,,,,,,,,,,,,,,,,,,,,,,,,,,,,,,,,,,,,,,,,,,,,,,,,,,,,,,,,,,,,1802.4177,1862.413,0,3,3,2,1,sequence_tables/blk037.csv
,,64c12183ab9cf635c69df81b,65af56c22cf40634cd5d70e3,2024-01-23_08h07.11.299,bars,2023.2.3,MacIntel,59.88023952,657b66ea316d21385b68909f,,,,,,,,,,,1863.7627,1864.7653,,,1865.2489,1865.5011,,100,100,,,,,,,,,,,,,,,,bars/028.png,bars/mask003.png,,,,,,,,,,,,1,2,,,,,,,10,2,9,2,,,,,,1862.4321,1863.7578,space,1.3171,,1864.7654,1865.2488,1865.5012,1866.1283,space,0.6085,,1866.1285,55,20,1867.1292,1867.1293,1867.1325,,,,0,0,0,0,1,45,120,,,,,,,,
,,64c12183ab9cf635c69df81b,65af56c22cf40634cd5d70e3,2024-01-23_08h07.11.299,bars,2023.2.3,MacIntel,59.88023952,657b66ea316d21385b68909f,,,,,,,,,,,1867.133,1868.1381,,,1868.6291,1868.8798,,28,28,,,,,,,,,,,,,,,,bars/002.png,bars/mask000.png,,,,,,,,,,,,0,2,,,,,,,8,0,8,0,,,,,,,,,,,1868.1382,1868.629,1868.8798,1869.3877,space,0.491,,1869.3877,78,57,1870.384,1870.3841,1870.3852,,,,0,1,1,1,1,130,85,,,,,,,,
,,64c12183ab9cf635c69df81b,65af56c22cf40634cd5d70e3,2024-01-23_08h07.11.299,bars,2023.2.3,MacIntel,59.88023952,657b66ea316d21385b68909f,,,,,,,,,,,1870.386,1871.3843,,,1871.8815,1872.1141,,35,35,,,,,,,,,,,,,,,,bars/027.png,bars/mask003.png,,,,,,,,,,,,1,2,,,,,,,6,2,4,2,,,,,,,,,,,1871.3843,1871.8815,1872.1142,1874.3856,space,2.2529,,1874.3858,75,15,1875.3979,1875.398,1875.4168,,,,0,2,2,2,1,110,50,,,,,,,,
,,64c12183ab9cf635c69df81b,65af56c22cf40634cd5d70e3,2024-01-23_08h07.11.299,bars,2023.2.3,MacIntel,59.88023952,657b66ea316d21385b68909f,,,,,,,,,,,1875.4171,1876.4154,,,1876.9092,1877.1546,,66,66,,,,,,,,,,,,,,,,bars/031.png,bars/mask001.png,,,,,,,,,,,,0,2,,,,,,,8,0,6,1,,,,,,,,,,,1876.4154,1876.9091,1877.1547,1877.1931,space,0.0204,,1877.1932,54,31,1878.1869,1878.1869,1878.1884,,,,0,3,3,3,1,120,35,,,,,,,,
,,64c12183ab9cf635c69df81b,65af56c22cf40634cd5d70e3,2024-01-23_08h07.11.299,bars,2023.2.3,MacIntel,59.88023952,657b66ea316d21385b68909f,,,,,,,,,,,1878.1887,1879.187,,,1879.6948,1879.9502,,20,20,,,,,,,,,,,,,,,,bars/003.png,bars/mask001.png,,,,,,,,,,,,7,1,,,,,,,6,2,8,1,,,,,,,,,,,1879.187,1879.6948,1879.9502,1881.4434,space,1.4736,,1881.4434,5,60,1882.4231,1882.4232,1882.426,,,,0,4,4,4,1,25,140,,,,,,,,
,,64c12183ab9cf635c69df81b,65af56c22cf40634cd5d70e3,2024-01-23_08h07.11.299,bars,2023.2.3,MacIntel,59.88023952,657b66ea316d21385b68909f,,,,,,,,,,,1882.4264,1883.4283,,,1883.9056,1884.141,,111,111,,,,,,,,,,,,,,,,bars/008.png,bars/mask008.png,,,,,,,,,,,,6,1,,,,,,,4,0,6,0,,,,,,,,,,,1883.4283,1883.9055,1884.141,1884.5475,space,0.3876,,1884.5475,1,69,1885.5643,1885.5643,1885.5665,,,,0,5,5,5,1,110,0,,,,,,,,
,,64c12183ab9cf635c69df81b,65af56c22cf40634cd5d70e3,2024-01-23_08h07.11.299,bars,2023.2.3,MacIntel,59.88023952,657b66ea316d21385b68909f,,,,,,,,,,,1885.5669,1886.5569,,,1887.0517,1887.3057,,45,45,,,,,,,,,,,,,,,,bars/035.png,bars/mask003.png,,,,,,,,,,,,1,2,,,,,,,2,0,2,1,,,,,,,,,,,1886.557,1887.0517,1887.3057,1887.4739,space,0.149,,1887.474,50,15,1888.4756,1888.4757,1888.4787,,,,0,6,6,6,1,175,60,,,,,,,,
,,64c12183ab9cf635c69df81b,65af56c22cf40634cd5d70e3,2024-01-23_08h07.11.299,bars,2023.2.3,MacIntel,59.88023952,657b66ea316d21385b68909f,,,,,,,,,,,1888.4793,1889.471,,,1889.9708,1890.212,,50,50,,,,,,,,,,,,,,,,bars/028.png,bars/mask006.png,,,,,,,,,,,,3,1,,,,,,,4,2,4,1,,,,,,,,,,,1889.471,1889.9707,1890.212,1891.6487,space,1.4192,,1891.6487,5,70,1892.6543,1892.6544,1892.6743,,,,0,7,7,7,1,45,120,,,,,,,,
,,64c12183ab9cf635c69df81b,65af56c22cf40634cd5d70e3,2024-01-23_08h07.11.299,bars,2023.2.3,MacIntel,59.88023952,657b66ea316d21385b68909f,,,,,,,,,,,1892.6746,1893.6738,,,1894.174,1894.4166,,149,149,,,,,,,,,,,,,,,,bars/025.png,bars/mask000.png,,,,,,,,,,,,0,1,,,,,,,6,0,6,1,,,,,,,,,,,1893.6739,1894.174,1894.4167,1895.1991,space,0.763,,1895.1991,44,71,1896.1925,1896.1925,1896.1939,,,,0,8,8,8,1,105,40,,,,,,,,
