init_variables.started,init_variables.stopped,participant,session,date,expName,psychopyVersion,OS,frameRate,study_id,instruction_exp.started,instruction_exp.stopped,key_resp_8.keys,key_resp_8.rt,key_resp_8.duration,instruction_single.started,instruction_single.stopped,key_resp_2.keys,key_resp_2.rt,key_resp_2.duration,interval.started,interval.stopped,cue_single.started,cue_single.stopped,mask.started,mask.stopped,ori_response_single.started,res_ori,res,ori_response_single.stopped,key_resp_single.keys,key_resp_single.rt,key_resp_single.duration,disp_single.started,disp_single.stopped,key_resp.keys,key_resp.rt,key_resp.duration,single.thisRepN,single.thisTrialN,single.thisN,single.thisIndex,single.ran,ori,path,mask_path,instruction_bandit.started,instruction_bandit.stopped,key_resp_6.keys,key_resp_6.rt,key_resp_6.duration,cue_bandit.started,cue_bandit.stopped,bandit_res.keys,bandit_res.rt,bandit_res.duration,outcome_bandit.started,rew,action,outcome_bandit.stopped,bandit.thisRepN,bandit.thisTrialN,bandit.thisN,bandit.thisIndex,bandit.ran,actual_rew1,actual_rew2,rew1,rew2,instruction_task.started,instruction_task.stopped,key_resp_7.keys,key_resp_7.rt,key_resp_7.duration,wait_ready.started,wait_ready.stopped,key_resp_3.keys,key_resp_3.rt,key_resp_3.duration,cue.started,cue.stopped,ori_response.started,ori_response.stopped,key_resp_5.keys,key_resp_5.rt,key_resp_5.duration,outcome.started,diff1,diff2,outcome.stopped,disp_outcome_practice.started,disp_outcome_practice.stopped,key_resp_4.keys,key_resp_4.rt,key_resp_4.duration,trials.thisRepN,trials.thisTrialN,trials.thisN,trials.thisIndex,trials.ran,ori1,ori2,break_blk.started,break_blk.stopped,block.thisRepN,block.thisTrialN,block.thisN,block.thisIndex,block.ran,condition_file
0.0004,0.0005,5b04bbd4b98c410001adb8db,65af54fe2cf40634cd5d7095,2024-01-23_06h56.29.078,bars,2023.2.3,Win32,144.9275362,657b66ea316d21385b68909f,,,,,,,,,,,,,,,,,,,,,,,,,,,,,,,,,,,,,,,,,,,,,,,,,,,,,,,,,,,,,,,,,,,,,,,,,,,,,,,,,,,,,,,,,,,,,,,,,,,,
,,5b04bbd4b98c410001adb8db,65af54fe2cf40634cd5d7095,2024-01-23_06h56.29.078,bars,2023.2.3,Win32,144.9275362,657b66ea316d21385b68909f,0.0008,1148.2941,y,1148.2512,,,,,,,,,,,,,,,,,,,,,,,,,,,,,,,,,,,,,,,,,,,,,,,,,,,,,,,,,,,,,,,,,,,,,,,,,,,,,,,,,,,,,,,,,,,,,,,,
,,5b04bbd4b98c410001adb8db,65af54fe2cf40634cd5d7095,2024-01-23_06h56.29.078,bars,2023.2.3,Win32,144.9275362,657b66ea316d21385b68909f,,,,,,1148.2945,1161.1213,space,12.8111,,,,,,,,,,,,,,,,,,,,,,,,,,,,,,,,,,,,,,,,,,,,,,,,,,,,,,,,,,,,,,,,,,,,,,,,,,,,,,,,,,,,,,,,,,,
,,5b04bbd4b98c410001adb8db,65af54fe2cf40634cd5d7095,2024-01-23_06h56.29.078,bars,2023.2.3,Win32,144.9275362,657b66ea316d21385b68909f,,,,,,,,,,,1161.1289,1162.1267,1162.1269,1162.6266,1162.6268,1162.8766,1162.8768,163,-17,1172.8533,space,9.9515,,1172.8534,1180.8525,space,7.9665,,0,0,0,0,1,150,bars/single000.png,bars/mask006.png,,,,,,,,,,,,,,,,,,,,,,,,,,,,,,,,,,,,,,,,,,,,,,,,,,,,,,,,,,,,,,,,
,,5b04bbd4b98c410001adb8db,65af54fe2cf40634cd5d7095,2024-01-23_06h56.29.078,bars,2023.2.3,Win32,144.9275362,657b66ea316d21385b68909f,,,,,,,,,,,1180.8529,1181.849,1181.849,1182.3493,1182.3494,1182.5942,1182.5942,84,84,1186.7936,space,4.1884,,1186.7936,1190.9471,space,4.1356,,0,1,1,4,1,95,bars/single004.png,bars/mask004.png,,,,,,,,,,,,,,,,,,,,,,,,,,,,,,,,,,,,,,,,,,,,,,,,,,,,,,,,,,,,,,,,
,,5b04bbd4b98c410001adb8db,65af54fe2cf40634cd5d7095,2024-01-23_06h56.29.078,bars,2023.2.3,Win32,144.9275362,657b66ea316d21385b68909f,,,,,,,,,,,1190.9579,1191.9535,1191.9535,1192.4533,1192.4533,1192.7033,1192.7033,4,184,1197.2804,space,4.5707,,1197.2804,1200.3184,space,3.0196,,0,2,2,1,1,20,bars/single001.png,bars/mask006.png,,,,,,,,,,,,,,,,,,,,,,,,,,,,,,,,,,,,,,,,,,,,,,,,,,,,,,,,,,,,,,,,
,,5b04bbd4b98c410001adb8db,65af54fe2cf40634cd5d7095,2024-01-23_06h56.29.078,bars,2023.2.3,Win32,144.9275362,657b66ea316d21385b68909f,,,,,,,,,,,1200.3189,1201.3145,1201.3145,1201.8154,1201.8155,1202.0647,1202.0647,15,195,1205.9219,space,3.8485,,1205.922,1209.6001,space,3.6612,,0,3,3,6,1,175,bars/single006.png,bars/mask005.png,,,,,,,,,,,,,,,,,,,,,,,,,,,,,,,,,,,,,,,,,,,,,,,,,,,,,,,,,,,,,,,,
,,5b04bbd4b98c410001adb8db,65af54fe2cf40634cd5d7095,2024-01-23_06h56.29.078,bars,2023.2.3,Win32,144.9275362,657b66ea316d21385b68909f,,,,,,,,,,,1209.6098,1210.6065,1210.6065,1211.1085,1211.1086,1211.3587,1211.3587,10,10,1213.6,space,2.232,,1213.6,1216.3293,space,2.7096,,0,4,4,3,1,20,bars/single003.png,bars/mask005.png,,,,,,,,,,,,,,,,,,,,,,,,,,,,,,,,,,,,,,,,,,,,,,,,,,,,,,,,,,,,,,,,
,,5b04bbd4b98c410001adb8db,65af54fe2cf40634cd5d7095,2024-01-23_06h56.29.078,bars,2023.2.3,Win32,144.9275362,657b66ea316d21385b68909f,,,,,,,,,,,1216.3295,1217.329,1217.329,1217.8305,1217.8306,1218.0791,1218.0792,145,145,1221.0791,space,2.9911,,1221.0793,1224.1763,space,3.0857,,0,5,5,2,1,145,bars/single002.png,bars/mask003.png,,,,,,,,,,,,,,,,,,,,,,,,,,,,,,,,,,,,,,,,,,,,,,,,,,,,,,,,,,,,,,,,
,,5b04bbd4b98c410001adb8db,65af54fe2cf40634cd5d7095,2024-01-23_06h56.29.078,bars,2023.2.3,Win32,144.9275362,657b66ea316d21385b68909f,,,,,,,,,,,1224.1864,1225.1763,1225.1764,1225.6716,1225.6716,1225.921,1225.9211,139,139,1229.6786,space,3.751,,1229.6787,1233.1972,space,3.504,,0,6,6,8,1,160,bars/single008.png,bars/mask004.png,,,,,,,,,,,,,,,,,,,,,,,,,,,,,,,,,,,,,,,,,,,,,,,,,,,,,,,,,,,,,,,,
,,5b04bbd4b98c410001adb8db,65af54fe2cf40634cd5d7095,2024-01-23_06h56.29.078,bars,2023.2.3,Win32,144.9275362,657b66ea316d21385b68909f,,,,,,,,,,,1233.1984,1234.1972,1234.1972,1234.6972,1234.6972,1234.9476,1234.9476,23,23,1237.989,space,3.0351,,1237.9891,1244.2461,space,6.2403,,0,7,7,9,1,20,bars/single009.png,bars/mask006.png,,,,,,,,,,,,,,,,,,,,,,,,,,,,,,,,,,,,,,,,,,,,,,,,,,,,,,,,,,,,,,,,
,,5b04bbd4b98c410001adb8db,65af54fe2cf40634cd5d7095,2024-01-23_06h56.29.078,bars,2023.2.3,Win32,144.9275362,657b66ea316d21385b68909f,,,,,,,,,,,1244.2573,1245.2532,1245.2532,1245.7532,1245.7533,1246.0029,1246.0029,26,206,1271.6842,space,25.6754,,1271.6843,1273.3789,space,1.6712,,0,8,8,7,1,45,bars/single007.png,bars/mask009.png,,,,,,,,,,,,,,,,,,,,,,,,,,,,,,,,,,,,,,,,,,,,,,,,,,,,,,,,,,,,,,,,
,,5b04bbd4b98c410001adb8db,65af54fe2cf40634cd5d7095,2024-01-23_06h56.29.078,bars,2023.2.3,Win32,144.9275362,657b66ea316d21385b68909f,,,,,,,,,,,1273.38,1274.3788,1274.3788,1274.8784,1274.8784,1275.1286,1275.1288,72,72,1276.9209,space,1.7797,,1276.9209,1278.5522,space,1.6203,,0,9,9,5,1,55,bars/single005.png,bars/mask008.png,,,,,,,,,,,,,,,,,,,,,,,,,,,,,,,,,,,,,,,,,,,,,,,,,,,,,,,,,,,,,,,,
,,5b04bbd4b98c410001adb8db,65af54fe2cf40634cd5d7095,2024-01-23_06h56.29.078,bars,2023.2.3,Win32,144.9275362,657b66ea316d21385b68909f,,,,,,,,,,,,,,,,,,,,,,,,,,,,,,,,,,,,,1278.5531,1354.6522,space,76.0849,,,,,,,,,,,,,,,,,,,,,,,,,,,,,,,,,,,,,,,,,,,,,,,,,,,,,,,,,,,,
,,5b04bbd4b98c410001adb8db,65af54fe2cf40634cd5d7095,2024-01-23_06h56.29.078,bars,2023.2.3,Win32,144.9275362,657b66ea316d21385b68909f,,,,,,,,,,,,,,,,,,,,,,,,,,,,,,,,,,,,,,,,,,1354.6662,1359.6375,right,4.962,,1359.6376,2,2,1360.6368,0,0,0,0,1,9,1,9,2,,,,,,,,,,,,,,,,,,,,,,,,,,,,,,,,,,,,,,,,,
,,5b04bbd4b98c410001adb8db,65af54fe2cf40634cd5d7095,2024-01-23_06h56.29.078,bars,2023.2.3,Win32,144.9275362,657b66ea316d21385b68909f,,,,,,,,,,,,,,,,,,,,,,,,,,,,,,,,,,,,,,,,,,1360.6373,1361.6646,left,1.0213,,1361.6646,10,1,1362.6647,0,1,1,1,1,10,0,10,1,,,,,,,,,,,,,,,,,,,,,,,,,,,,,,,,,,,,,,,,,
,,5b04bbd4b98c410001adb8db,65af54fe2cf40634cd5d7095,2024-01-23_06h56.29.078,bars,2023.2.3,Win32,144.9275362,657b66ea316d21385b68909f,,,,,,,,,,,,,,,,,,,,,,,,,,,,,,,,,,,,,,,,,,1362.6652,1364.3046,left,1.6353,,1364.3047,10,1,1365.3038,0,2,2,2,1,10,2,10,2,,,,,,,,,,,,,,,,,,,,,,,,,,,,,,,,,,,,,,,,,
,,5b04bbd4b98c410001adb8db,65af54fe2cf40634cd5d7095,2024-01-23_06h56.29.078,bars,2023.2.3,Win32,144.9275362,657b66ea316d21385b68909f,,,,,,,,,,,,,,,,,,,,,,,,,,,,,,,,,,,,,,,,,,1365.3045,1366.5608,left,1.2504,,1366.5608,7,1,1367.5604,0,3,3,3,1,8,4,7,3,,,,,,,,,,,,,,,,,,,,,,,,,,,,,,,,,,,,,,,,,
,,5b04bbd4b98c410001adb8db,65af54fe2cf40634cd5d7095,2024-01-23_06h56.29.078,bars,2023.2.3,Win32,144.9275362,657b66ea316d21385b68909f,,,,,,,,,,,,,,,,,,,,,,,,,,,,,,,,,,,,,,,,,,1367.5608,1368.4985,right,0.9313,,1368.4985,1,2,1369.4983,0,4,4,4,1,6,2,5,1,,,,,,,,,,,,,,,,,,,,,,,,,,,,,,,,,,,,,,,,,
,,5b04bbd4b98c410001adb8db,65af54fe2cf40634cd5d7095,2024-01-23_06h56.29.078,bars,2023.2.3,Win32,144.9275362,657b66ea316d21385b68909f,,,,,,,,,,,,,,,,,,,,,,,,,,,,,,,,,,,,,,,,,,1369.4986,1370.2483,left,0.7442,,1370.2483,4,1,1371.2482,0,5,5,5,1,4,4,4,4,,,,,,,,,,,,,,,,,,,,,,,,,,,,,,,,,,,,,,,,,
,,5b04bbd4b98c410001adb8db,65af54fe2cf40634cd5d7095,2024-01-23_06h56.29.078,bars,2023.2.3,Win32,144.9275362,657b66ea316d21385b68909f,,,,,,,,,,,,,,,,,,,,,,,,,,,,,,,,,,,,,,,,,,1371.2485,1372.9153,left,1.6599,,1372.9154,1,1,1373.9147,0,6,6,6,1,2,2,1,2,,,,,,,,,,,,,,,,,,,,,,,,,,,,,,,,,,,,,,,,,
,,5b04bbd4b98c410001adb8db,65af54fe2cf40634cd5d7095,2024-01-23_06h56.29.078,bars,2023.2.3,Win32,144.9275362,657b66ea316d21385b68909f,,,,,,,,,,,,,,,,,,,,,,,,,,,,,,,,,,,,,,,,,,1373.915,1374.387,right,0.4653,,1374.3871,1,2,1375.3873,0,7,7,7,1,0,0,0,1,,,,,,,,,,,,,,,,,,,,,,,,,,,,,,,,,,,,,,,,,
,,5b04bbd4b98c410001adb8db,65af54fe2cf40634cd5d7095,2024-01-23_06h56.29.078,bars,2023.2.3,Win32,144.9275362,657b66ea316d21385b68909f,,,,,,,,,,,,,,,,,,,,,,,,,,,,,,,,,,,,,,,,,,1375.3878,1375.7292,left,0.3331,,1375.7292,1,1,1376.7314,0,8,8,8,1,0,2,1,0,,,,,,,,,,,,,,,,,,,,,,,,,,,,,,,,,,,,,,,,,
,,5b04bbd4b98c410001adb8db,65af54fe2cf40634cd5d7095,2024-01-23_06h56.29.078,bars,2023.2.3,Win32,144.9275362,657b66ea316d21385b68909f,,,,,,,,,,,,,,,,,,,,,,,,,,,,,,,,,,,,,,,,,,1376.732,1377.283,left,0.5438,,1377.283,2,1,1378.283,0,9,9,9,1,2,4,2,3,,,,,,,,,,,,,,,,,,,,,,,,,,,,,,,,,,,,,,,,,
,,5b04bbd4b98c410001adb8db,65af54fe2cf40634cd5d7095,2024-01-23_06h56.29.078,bars,2023.2.3,Win32,144.9275362,657b66ea316d21385b68909f,,,,,,,,,,,,,,,,,,,,,,,,,,,,,,,,,,,,,,,,,,1378.2833,1380.5766,right,2.2843,,1380.5766,3,2,1381.5746,0,10,10,10,1,0,2,0,3,,,,,,,,,,,,,,,,,,,,,,,,,,,,,,,,,,,,,,,,,
,,5b04bbd4b98c410001adb8db,65af54fe2cf40634cd5d7095,2024-01-23_06h56.29.078,bars,2023.2.3,Win32,144.9275362,657b66ea316d21385b68909f,,,,,,,,,,,,,,,,,,,,,,,,,,,,,,,,,,,,,,,,,,1381.5859,1382.6313,left,1.0434,,1382.6313,0,1,1383.6303,0,11,11,11,1,0,4,0,3,,,,,,,,,,,,,,,,,,,,,,,,,,,,,,,,,,,,,,,,,
,,5b04bbd4b98c410001adb8db,65af54fe2cf40634cd5d7095,2024-01-23_06h56.29.078,bars,2023.2.3,Win32,144.9275362,657b66ea316d21385b68909f,,,,,,,,,,,,,,,,,,,,,,,,,,,,,,,,,,,,,,,,,,1383.6307,1384.5199,left,0.8772,,1384.5199,1,1,1385.5192,0,12,12,12,1,2,6,1,6,,,,,,,,,,,,,,,,,,,,,,,,,,,,,,,,,,,,,,,,,
,,5b04bbd4b98c410001adb8db,65af54fe2cf40634cd5d7095,2024-01-23_06h56.29.078,bars,2023.2.3,Win32,144.9275362,657b66ea316d21385b68909f,,,,,,,,,,,,,,,,,,,,,,,,,,,,,,,,,,,,,,,,,,1385.5196,1386.9592,right,1.4312,,1386.9592,3,2,1387.9571,0,13,13,13,1,0,4,1,3,,,,,,,,,,,,,,,,,,,,,,,,,,,,,,,,,,,,,,,,,
,,5b04bbd4b98c410001adb8db,65af54fe2cf40634cd5d7095,2024-01-23_06h56.29.078,bars,2023.2.3,Win32,144.9275362,657b66ea316d21385b68909f,,,,,,,,,,,,,,,,,,,,,,,,,,,,,,,,,,,,,,,,,,1387.9578,1390.6814,right,2.7162,,1390.6814,7,2,1391.6795,0,14,14,14,1,2,6,2,7,,,,,,,,,,,,,,,,,,,,,,,,,,,,,,,,,,,,,,,,,
,,5b04bbd4b98c410001adb8db,65af54fe2cf40634cd5d7095,2024-01-23_06h56.29.078,bars,2023.2.3,Win32,144.9275362,657b66ea316d21385b68909f,,,,,,,,,,,,,,,,,,,,,,,,,,,,,,,,,,,,,,,,,,1391.6892,1392.409,right,0.7141,,1392.4091,9,2,1393.4082,0,15,15,15,1,4,8,3,9,,,,,,,,,,,,,,,,,,,,,,,,,,,,,,,,,,,,,,,,,
,,5b04bbd4b98c410001adb8db,65af54fe2cf40634cd5d7095,2024-01-23_06h56.29.078,bars,2023.2.3,Win32,144.9275362,657b66ea316d21385b68909f,,,,,,,,,,,,,,,,,,,,,,,,,,,,,,,,,,,,,,,,,,1393.4085,1394.3322,right,0.9097,,1394.3322,7,2,1395.3322,0,16,16,16,1,6,6,7,7,,,,,,,,,,,,,,,,,,,,,,,,,,,,,,,,,,,,,,,,,
,,5b04bbd4b98c410001adb8db,65af54fe2cf40634cd5d7095,2024-01-23_06h56.29.078,bars,2023.2.3,Win32,144.9275362,657b66ea316d21385b68909f,,,,,,,,,,,,,,,,,,,,,,,,,,,,,,,,,,,,,,,,,,1395.3326,1396.1388,left,0.795,,1396.139,9,1,1397.1374,0,17,17,17,1,8,4,9,5,,,,,,,,,,,,,,,,,,,,,,,,,,,,,,,,,,,,,,,,,
,,5b04bbd4b98c410001adb8db,65af54fe2cf40634cd5d7095,2024-01-23_06h56.29.078,bars,2023.2.3,Win32,144.9275362,657b66ea316d21385b68909f,,,,,,,,,,,,,,,,,,,,,,,,,,,,,,,,,,,,,,,,,,1397.1378,1398.6513,right,1.5001,,1398.6513,1,2,1399.6514,0,18,18,18,1,6,2,5,1,,,,,,,,,,,,,,,,,,,,,,,,,,,,,,,,,,,,,,,,,
,,5b04bbd4b98c410001adb8db,65af54fe2cf40634cd5d7095,2024-01-23_06h56.29.078,bars,2023.2.3,Win32,144.9275362,657b66ea316d21385b68909f,,,,,,,,,,,,,,,,,,,,,,,,,,,,,,,,,,,,,,,,,,1399.6517,1400.4731,left,0.8127,,1400.4731,7,1,1401.4708,0,19,19,19,1,8,0,7,0,,,,,,,,,,,,,,,,,,,,,,,,,,,,,,,,,,,,,,,,,
,,5b04bbd4b98c410001adb8db,65af54fe2cf40634cd5d7095,2024-01-23_06h56.29.078,bars,2023.2.3,Win32,144.9275362,657b66ea316d21385b68909f,,,,,,,,,,,,,,,,,,,,,,,,,,,,,,,,,,,,,,,,,,,,,,,,,,,,,,,,,,,,1401.4713,1413.5072,space,12.0243,,,,,,,,,,,,,,,,,,,,,,,,,,,,,,,,,,,,,
,,5b04bbd4b98c410001adb8db,65af54fe2cf40634cd5d7095,2024-01-23_06h56.29.078,bars,2023.2.3,Win32,144.9275362,657b66ea316d21385b68909f,,,,,,,,,,,1414.8379,1415.8392,,,1416.3393,1416.5896,,19,199,,,,,,,,,,,,,,,,bars/007.png,bars/mask006.png,,,,,,,,,,,,0,1,,,,,,,0,3,0,3,,,,,,1413.5193,1414.8325,space,1.3026,,1415.8394,1416.3392,1416.5898,1421.8699,space,5.2717,,1421.8701,24,36,1422.8673,1422.8674,1432.1827,space,9.304,,0,0,0,0,1,175,55,,,,,,,,
,,5b04bbd4b98c410001adb8db,65af54fe2cf40634cd5d7095,2024-01-23_06h56.29.078,bars,2023.2.3,Win32,144.9275362,657b66ea316d21385b68909f,,,,,,,,,,,1432.1927,1433.1869,,,1433.6869,1433.9374,,75,255,,,,,,,,,,,,,,,,bars/028.png,bars/mask004.png,,,,,,,,,,,,0,1,,,,,,,2,5,0,6,,,,,,,,,,,1433.187,1433.6868,1433.9375,1438.8887,space,4.9448,,1438.8887,30,45,1439.8884,1439.8885,1444.7357,space,4.8281,,0,1,1,1,1,45,120,,,,,,,,
,,5b04bbd4b98c410001adb8db,65af54fe2cf40634cd5d7095,2024-01-23_06h56.29.078,bars,2023.2.3,Win32,144.9275362,657b66ea316d21385b68909f,,,,,,,,,,,1444.7452,1445.7369,,,1446.2354,1446.4875,,110,290,,,,,,,,,,,,,,,,bars/024.png,bars/mask003.png,,,,,,,,,,,,0,1,,,,,,,0,7,0,6,,,,,,,,,,,1445.737,1446.2354,1446.4875,1454.4996,space,8.0009,,1454.4996,10,60,1455.4996,1455.4996,1462.0498,space,6.5299,,0,2,2,2,1,120,170,,,,,,,,
,,5b04bbd4b98c410001adb8db,65af54fe2cf40634cd5d7095,2024-01-23_06h56.29.078,bars,2023.2.3,Win32,144.9275362,657b66ea316d21385b68909f,,,,,,,,,,,1462.0596,1463.0581,,,1463.5557,1463.8002,,39,39,,,,,,,,,,,,,,,,bars/026.png,bars/mask005.png,,,,,,,,,,,,2,1,,,,,,,2,5,2,5,,,,,,,,,,,1463.0582,1463.5556,1463.8002,1467.2094,space,3.4031,,1467.2095,4,46,1468.2088,1468.2094,1474.7293,space,6.5025,,0,3,3,3,1,35,85,,,,,,,,
,,5b04bbd4b98c410001adb8db,65af54fe2cf40634cd5d7095,2024-01-23_06h56.29.078,bars,2023.2.3,Win32,144.9275362,657b66ea316d21385b68909f,,,,,,,,,,,1474.7395,1475.7297,,,1476.2311,1476.4809,,147,147,,,,,,,,,,,,,,,,bars/005.png,bars/mask006.png,,,,,,,,,,,,5,2,,,,,,,0,7,0,7,,,,,,,,,,,1475.7298,1476.231,1476.481,1482.5097,space,6.0224,,1482.5098,43,7,1483.5075,1483.5075,1486.891,space,3.3643,,0,4,4,4,1,10,140,,,,,,,,
,,5b04bbd4b98c410001adb8db,65af54fe2cf40634cd5d7095,2024-01-23_06h56.29.078,bars,2023.2.3,Win32,144.9275362,657b66ea316d21385b68909f,,,,,,,,,,,1486.9004,1487.8959,,,1488.3961,1488.6459,,36,36,,,,,,,,,,,,,,,,bars/029.png,bars/mask007.png,,,,,,,,,,,,4,2,,,,,,,2,5,3,5,,,,,,,,,,,1487.8959,1488.3961,1488.6459,1494.5975,space,5.9479,,1494.5976,54,9,1495.5974,1495.5975,1499.674,space,4.0573,,0,5,5,5,1,90,45,,,,,,,,
,,5b04bbd4b98c410001adb8db,65af54fe2cf40634cd5d7095,2024-01-23_06h56.29.078,bars,2023.2.3,Win32,144.9275362,657b66ea316d21385b68909f,,,,,,,,,,,1499.6858,1500.6808,,,1501.1814,1501.431,,145,145,,,,,,,,,,,,,,,,bars/033.png,bars/mask003.png,,,,,,,,,,,,1,2,,,,,,,0,3,0,2,,,,,,,,,,,1500.6808,1501.1813,1501.431,1504.0769,space,2.6401,,1504.077,60,10,1505.0766,1505.0767,1506.4032,space,1.3069,,0,6,6,6,1,25,155,,,,,,,,
,,5b04bbd4b98c410001adb8db,65af54fe2cf40634cd5d7095,2024-01-23_06h56.29.078,bars,2023.2.3,Win32,144.9275362,657b66ea316d21385b68909f,,,,,,,,,,,1506.4036,1507.4033,,,1507.9031,1508.1531,,43,43,,,,,,,,,,,,,,,,bars/028.png,bars/mask006.png,,,,,,,,,,,,3,1,,,,,,,2,5,3,5,,,,,,,,,,,1507.4033,1507.9031,1508.1532,1510.6811,space,2.5231,,1510.6811,2,77,1511.6814,1511.6814,1513.1953,space,1.4924,,0,7,7,7,1,45,120,,,,,,,,
,,5b04bbd4b98c410001adb8db,65af54fe2cf40634cd5d7095,2024-01-23_06h56.29.078,bars,2023.2.3,Win32,144.9275362,657b66ea316d21385b68909f,,,,,,,,,,,1513.1956,1514.1969,,,1514.6964,1514.9459,,73,73,,,,,,,,,,,,,,,,bars/021.png,bars/mask005.png,,,,,,,,,,,,7,2,,,,,,,0,7,0,8,,,,,,,,,,,1514.1969,1514.6964,1514.9459,1519.6399,space,4.6843,,1519.6399,82,3,1520.6395,1520.6396,1526.3068,space,5.647,,0,8,8,8,1,155,70,,,,,,,,
,,5b04bbd4b98c410001adb8db,65af54fe2cf40634cd5d7095,2024-01-23_06h56.29.078,bars,2023.2.3,Win32,144.9275362,657b66ea316d21385b68909f,,,,,,,,,,,1526.3161,1527.3084,,,1527.8078,1528.0587,,156,-24,,,,,,,,,,,,,,,,bars/033.png,bars/mask003.png,,,,,,,,,,,,5,2,,,,,,,2,5,3,5,,,,,,,,,,,1527.3085,1527.8078,1528.0587,1531.5082,space,3.4396,,1531.5083,49,1,1532.508,1532.508,1534.487,space,1.9632,,0,9,9,9,1,25,155,,,,,,,,
,,5b04bbd4b98c410001adb8db,65af54fe2cf40634cd5d7095,2024-01-23_06h56.29.078,bars,2023.2.3,Win32,144.9275362,657b66ea316d21385b68909f,,,,,,,,,,,1534.4873,1535.4871,,,1535.9895,1536.2372,,33,213,,,,,,,,,,,,,,,,bars/034.png,bars/mask002.png,,,,,,,,,,,,0,2,,,,,,,0,7,1,7,,,,,,,,,,,1535.4871,1535.9895,1536.2372,1540.9963,space,4.7507,,1540.9964,88,32,1541.9955,1541.9956,1543.154,space,1.1402,,0,10,10,10,1,125,65,,,,,,,,
,,5b04bbd4b98c410001adb8db,65af54fe2cf40634cd5d7095,2024-01-23_06h56.29.078,bars,2023.2.3,Win32,144.9275362,657b66ea316d21385b68909f,,,,,,,,,,,1543.1544,1544.1538,,,1544.6539,1544.9039,,62,242,,,,,,,,,,,,,,,,bars/013.png,bars/mask001.png,,,,,,,,,,,,1,1,,,,,,,0,9,1,10,,,,,,,,,,,1544.154,1544.6538,1544.904,1550.0847,space,5.1751,,1550.0847,13,52,1551.0847,1551.0847,1551.9111,space,0.8074,,0,11,11,11,1,75,10,,,,,,,,
,,5b04bbd4b98c410001adb8db,65af54fe2cf40634cd5d7095,2024-01-23_06h56.29.078,bars,2023.2.3,Win32,144.9275362,657b66ea316d21385b68909f,,,,,,,,,,,1551.9115,1552.9108,,,1553.4111,1553.661,,83,83,,,,,,,,,,,,,,,,bars/029.png,bars/mask007.png,,,,,,,,,,,,2,1,,,,,,,2,7,2,7,,,,,,,,,,,1552.9108,1553.411,1553.661,1557.3421,space,3.6766,,1557.3422,7,38,1558.3416,1558.3416,1559.5157,space,1.1551,,0,12,12,12,1,90,45,,,,,,,,
,,5b04bbd4b98c410001adb8db,65af54fe2cf40634cd5d7095,2024-01-23_06h56.29.078,bars,2023.2.3,Win32,144.9275362,657b66ea316d21385b68909f,,,,,,,,,,,1559.5162,1560.5155,,,1561.0155,1561.2657,,29,29,,,,,,,,,,,,,,,,bars/022.png,bars/mask002.png,,,,,,,,,,,,4,2,,,,,,,4,5,3,5,,,,,,,,,,,1560.5155,1561.0155,1561.2658,1564.2376,space,2.9677,,1564.2376,66,9,1565.2377,1565.2377,1566.2377,space,0.9805,,0,13,13,13,1,95,20,,,,,,,,
,,5b04bbd4b98c410001adb8db,65af54fe2cf40634cd5d7095,2024-01-23_06h56.29.078,bars,2023.2.3,Win32,144.9275362,657b66ea316d21385b68909f,,,,,,,,,,,1566.2379,1567.2332,,,1567.7358,1567.9811,,68,68,,,,,,,,,,,,,,,,bars/046.png,bars/mask003.png,,,,,,,,,,,,1,2,,,,,,,2,3,1,3,,,,,,,,,,,1567.2332,1567.7357,1567.9811,1570.3927,space,2.4034,,1570.3927,87,17,1571.3903,1571.3903,1572.53,space,1.1209,,0,14,14,14,1,155,85,,,,,,,,
,,5b04bbd4b98c410001adb8db,65af54fe2cf40634cd5d7095,2024-01-23_06h56.29.078,bars,2023.2.3,Win32,144.9275362,657b66ea316d21385b68909f,,,,,,,,,,,1572.5305,1573.5294,,,1574.0295,1574.2795,,13,13,,,,,,,,,,,,,,,,bars/035.png,bars/mask007.png,,,,,,,,,,,,1,1,,,,,,,4,1,3,3,,,,,,,,,,,1573.5294,1574.0295,1574.2795,1576.4252,space,2.1404,,1576.4253,18,47,1577.4254,1577.4255,1579.7619,space,2.3186,,0,15,15,15,1,175,60,,,,,,,,
,,5b04bbd4b98c410001adb8db,65af54fe2cf40634cd5d7095,2024-01-23_06h56.29.078,bars,2023.2.3,Win32,144.9275362,657b66ea316d21385b68909f,,,,,,,,,,,1579.7623,1580.7604,,,1581.2612,1581.5104,,43,43,,,,,,,,,,,,,,,,bars/044.png,bars/mask001.png,,,,,,,,,,,,0,1,,,,,,,6,0,5,0,,,,,,,,,,,1580.7605,1581.2611,1581.5104,1583.0717,space,1.5563,,1583.0718,32,68,1584.0711,1584.0712,1585.1627,space,1.0792,,0,16,16,16,1,75,155,,,,,,,,
,,5b04bbd4b98c410001adb8db,65af54fe2cf40634cd5d7095,2024-01-23_06h56.29.078,bars,2023.2.3,Win32,144.9275362,657b66ea316d21385b68909f,,,,,,,,,,,1585.1631,1586.1617,,,1586.6639,1586.912,,78,78,,,,,,,,,,,,,,,,bars/029.png,bars/mask006.png,,,,,,,,,,,,3,1,,,,,,,4,2,5,2,,,,,,,,,,,1586.1617,1586.6638,1586.9121,1589.4188,space,2.4933,,1589.4189,12,33,1590.4186,1590.4186,1592.7106,space,2.2756,,0,17,17,17,1,90,45,,,,,,,,
,,5b04bbd4b98c410001adb8db,65af54fe2cf40634cd5d7095,2024-01-23_06h56.29.078,bars,2023.2.3,Win32,144.9275362,657b66ea316d21385b68909f,,,,,,,,,,,1592.711,1593.7104,,,1594.2106,1594.4603,,12,12,,,,,,,,,,,,,,,,bars/012.png,bars/mask009.png,,,,,,,,,,,,4,2,,,,,,,6,4,7,4,,,,,,,,,,,1593.7104,1594.2106,1594.4603,1595.9953,space,1.529,,1595.9953,78,3,1596.9951,1596.9952,1598.6617,space,1.6436,,0,18,18,18,1,90,15,,,,,,,,
,,5b04bbd4b98c410001adb8db,65af54fe2cf40634cd5d7095,2024-01-23_06h56.29.078,bars,2023.2.3,Win32,144.9275362,657b66ea316d21385b68909f,,,,,,,,,,,1598.6621,1599.6631,,,1600.1618,1600.4119,,100,100,,,,,,,,,,,,,,,,bars/001.png,bars/mask008.png,,,,,,,,,,,,2,2,,,,,,,4,2,6,3,,,,,,,,,,,1599.6632,1600.1618,1600.412,1602.053,space,1.6327,,1602.053,30,15,1603.0522,1603.0523,1604.6994,space,1.6314,,0,19,19,19,1,130,85,,,,,,,,
,,5b04bbd4b98c410001adb8db,65af54fe2cf40634cd5d7095,2024-01-23_06h56.29.078,bars,2023.2.3,Win32,144.9275362,657b66ea316d21385b68909f,,,,,,,,,,,1604.6997,1605.6966,,,1606.1983,1606.4469,,136,-44,,,,,,,,,,,,,,,,bars/048.png,bars/mask004.png,,,,,,,,,,,,0,2,,,,,,,6,4,8,4,,,,,,,,,,,1605.6966,1606.1983,1606.447,1611.9537,space,5.4938,,1611.9538,86,39,1612.9545,1612.9545,1615.718,space,2.7429,,0,20,20,20,1,50,175,,,,,,,,
,,5b04bbd4b98c410001adb8db,65af54fe2cf40634cd5d7095,2024-01-23_06h56.29.078,bars,2023.2.3,Win32,144.9275362,657b66ea316d21385b68909f,,,,,,,,,,,1615.7186,1616.719,,,1617.218,1617.4698,,84,264,,,,,,,,,,,,,,,,bars/021.png,bars/mask009.png,,,,,,,,,,,,3,2,,,,,,,8,6,9,6,,,,,,,,,,,1616.719,1617.218,1617.4698,1621.7822,space,4.3109,,1621.7822,71,14,1622.7801,1622.7802,1623.7319,space,0.9334,,0,21,21,21,1,155,70,,,,,,,,
,,5b04bbd4b98c410001adb8db,65af54fe2cf40634cd5d7095,2024-01-23_06h56.29.078,bars,2023.2.3,Win32,144.9275362,657b66ea316d21385b68909f,,,,,,,,,,,1623.7322,1624.7318,,,1625.2317,1625.4815,,27,207,,,,,,,,,,,,,,,,bars/040.png,bars/mask006.png,,,,,,,,,,,,2,2,,,,,,,10,8,9,8,,,,,,,,,,,1624.7318,1625.2317,1625.4816,1628.3779,space,2.8888,,1628.3779,67,22,1629.3775,1629.3775,1630.0305,space,0.6374,,0,22,22,22,1,140,5,,,,,,,,
,,5b04bbd4b98c410001adb8db,65af54fe2cf40634cd5d7095,2024-01-23_06h56.29.078,bars,2023.2.3,Win32,144.9275362,657b66ea316d21385b68909f,,,,,,,,,,,1630.0308,1631.0302,,,1631.5305,1631.7804,,16,196,,,,,,,,,,,,,,,,bars/004.png,bars/mask003.png,,,,,,,,,,,,5,1,,,,,,,8,10,7,10,,,,,,,,,,,1631.0303,1631.5305,1631.7804,1635.2389,space,3.4537,,1635.2389,9,71,1636.2387,1636.2387,1637.5328,space,1.2758,,0,23,23,23,1,25,125,,,,,,,,
,,5b04bbd4b98c410001adb8db,65af54fe2cf40634cd5d7095,2024-01-23_06h56.29.078,bars,2023.2.3,Win32,144.9275362,657b66ea316d21385b68909f,,,,,,,,,,,1637.5331,1638.5332,,,1639.0306,1639.2757,,22,202,,,,,,,,,,,,,,,,bars/004.png,bars/mask007.png,,,,,,,,,,,,9,1,,,,,,,10,8,10,8,,,,,,,,,,,1638.5333,1639.0306,1639.2758,1642.5377,space,3.2542,,1642.5377,3,77,1643.5378,1643.5378,1644.553,space,1.0031,,0,24,24,24,1,25,125,,,,,,,,
,,5b04bbd4b98c410001adb8db,65af54fe2cf40634cd5d7095,2024-01-23_06h56.29.078,bars,2023.2.3,Win32,144.9275362,657b66ea316d21385b68909f,,,,,,,,,,,1644.5533,1645.5537,,,1646.0514,1646.3016,,81,81,,,,,,,,,,,,,,,,bars/029.png,bars/mask001.png,,,,,,,,,,,,7,1,,,,,,,8,6,10,6,,,,,,,,,,,1645.5538,1646.0514,1646.3017,1648.9915,space,2.6812,,1648.9916,9,36,1649.9893,1649.9895,1650.6007,space,0.5926,,0,25,25,25,1,90,45,,,,,,,,
,,5b04bbd4b98c410001adb8db,65af54fe2cf40634cd5d7095,2024-01-23_06h56.29.078,bars,2023.2.3,Win32,144.9275362,657b66ea316d21385b68909f,,,,,,,,,,,1650.6011,1651.6,,,1652.1001,1652.35,,68,68,,,,,,,,,,,,,,,,bars/038.png,bars/mask005.png,,,,,,,,,,,,4,2,,,,,,,6,4,6,4,,,,,,,,,,,1651.6,1652.1,1652.35,1656.4761,space,4.1195,,1656.4761,83,2,1657.4754,1657.4755,1658.5868,space,1.0902,,0,26,26,26,1,165,70,,,,,,,,
,,5b04bbd4b98c410001adb8db,65af54fe2cf40634cd5d7095,2024-01-23_06h56.29.078,bars,2023.2.3,Win32,144.9275362,657b66ea316d21385b68909f,,,,,,,,,,,1658.5886,1659.5867,,,1660.0864,1660.3364,,111,111,,,,,,,,,,,,,,,,bars/023.png,bars/mask001.png,,,,,,,,,,,,6,2,,,,,,,8,6,8,7,,,,,,,,,,,1659.5867,1660.0864,1660.3364,1663.9615,space,3.6184,,1663.9615,89,4,1664.9615,1664.9615,1665.8233,space,0.8452,,0,27,27,27,1,20,115,,,,,,,,
,,5b04bbd4b98c410001adb8db,65af54fe2cf40634cd5d7095,2024-01-23_06h56.29.078,bars,2023.2.3,Win32,144.9275362,657b66ea316d21385b68909f,,,,,,,,,,,1665.8236,1666.8225,,,1667.3226,1667.5728,,162,-18,,,,,,,,,,,,,,,,bars/036.png,bars/mask002.png,,,,,,,,,,,,3,1,,,,,,,6,8,8,10,,,,,,,,,,,1666.8225,1667.3226,1667.5728,1670.434,space,2.8552,,1670.434,17,38,1671.4339,1671.4339,1672.941,space,1.4896,,0,28,28,28,1,145,20,,,,,,,,
,,5b04bbd4b98c410001adb8db,65af54fe2cf40634cd5d7095,2024-01-23_06h56.29.078,bars,2023.2.3,Win32,144.9275362,657b66ea316d21385b68909f,,,,,,,,,,,1672.9414,1673.9414,,,1674.4416,1674.6909,,44,44,,,,,,,,,,,,,,,,bars/022.png,bars/mask009.png,,,,,,,,,,,,1,2,,,,,,,8,6,7,6,,,,,,,,,,,1673.9414,1674.4416,1674.691,1676.5803,space,1.8821,,1676.5805,51,24,1677.5797,1677.5798,1678.3511,space,0.7515,,0,29,29,29,1,95,20,,,,,,,,
,,5b04bbd4b98c410001adb8db,65af54fe2cf40634cd5d7095,2024-01-23_06h56.29.078,bars,2023.2.3,Win32,144.9275362,657b66ea316d21385b68909f,,,,,,,,,,,1678.3517,1679.3506,,,1679.8507,1680.1005,,118,-62,,,,,,,,,,,,,,,,bars/005.png,bars/mask008.png,,,,,,,,,,,,2,2,,,,,,,10,8,10,8,,,,,,,,,,,1679.3507,1679.8506,1680.1005,1683.9345,space,3.8318,,1683.9346,72,22,1684.934,1684.934,1685.9972,space,1.0428,,0,30,30,30,1,10,140,,,,,,,,
,,5b04bbd4b98c410001adb8db,65af54fe2cf40634cd5d7095,2024-01-23_06h56.29.078,bars,2023.2.3,Win32,144.9275362,657b66ea316d21385b68909f,,,,,,,,,,,1685.9975,1686.9968,,,1687.4966,1687.7473,,36,36,,,,,,,,,,,,,,,,bars/004.png,bars/mask009.png,,,,,,,,,,,,4,1,,,,,,,8,10,6,9,,,,,,,,,,,1686.9968,1687.4966,1687.7473,1689.4481,space,1.6942,,1689.4481,11,89,1690.4488,1690.4488,1692.0803,space,1.6208,,0,31,31,31,1,25,125,,,,,,,,
,,5b04bbd4b98c410001adb8db,65af54fe2cf40634cd5d7095,2024-01-23_06h56.29.078,bars,2023.2.3,Win32,144.9275362,657b66ea316d21385b68909f,,,,,,,,,,,1692.0807,1693.0801,,,1693.5803,1693.8302,,47,227,,,,,,,,,,,,,,,,bars/025.png,bars/mask006.png,,,,,,,,,,,,6,2,,,,,,,6,8,6,8,,,,,,,,,,,1693.0801,1693.5803,1693.8302,1697.8579,space,4.0202,,1697.858,58,7,1698.8579,1698.8579,1699.4205,space,0.5402,,0,32,32,32,1,105,40,,,,,,,,
,,5b04bbd4b98c410001adb8db,65af54fe2cf40634cd5d7095,2024-01-23_06h56.29.078,bars,2023.2.3,Win32,144.9275362,657b66ea316d21385b68909f,,,,,,,,,,,1699.4208,1700.4209,,,1700.9206,1701.1709,,36,36,,,,,,,,,,,,,,,,bars/006.png,bars/mask006.png,,,,,,,,,,,,8,1,,,,,,,8,10,8,10,,,,,,,,,,,1700.421,1700.9206,1701.1709,1705.1359,space,3.9537,,1705.1359,1,64,1706.1358,1706.1358,1707.3041,space,1.1507,,0,33,33,33,1,35,100,,,,,,,,
,,5b04bbd4b98c410001adb8db,65af54fe2cf40634cd5d7095,2024-01-23_06h56.29.078,bars,2023.2.3,Win32,144.9275362,657b66ea316d21385b68909f,,,,,,,,,,,1707.3044,1708.3043,,,1708.8026,1709.048,,171,171,,,,,,,,,,,,,,,,bars/036.png,bars/mask000.png,,,,,,,,,,,,1,1,,,,,,,6,8,6,10,,,,,,,,,,,1708.3043,1708.8026,1709.048,1713.4144,space,4.3581,,1713.4144,26,29,1714.4161,1714.4161,1715.4155,space,0.9827,,0,34,34,34,1,145,20,,,,,,,,
,,5b04bbd4b98c410001adb8db,65af54fe2cf40634cd5d7095,2024-01-23_06h56.29.078,bars,2023.2.3,Win32,144.9275362,657b66ea316d21385b68909f,,,,,,,,,,,1715.416,1716.4138,,,1716.9141,1717.1638,,165,165,,,,,,,,,,,,,,,,bars/036.png,bars/mask009.png,,,,,,,,,,,,1,1,,,,,,,4,6,4,6,,,,,,,,,,,1716.4138,1716.914,1717.1638,1718.546,space,1.3742,,1718.5461,20,35,1719.5462,1719.5462,1720.2128,space,0.6597,,0,35,35,35,1,145,20,,,,,,,,
,,5b04bbd4b98c410001adb8db,65af54fe2cf40634cd5d7095,2024-01-23_06h56.29.078,bars,2023.2.3,Win32,144.9275362,657b66ea316d21385b68909f,,,,,,,,,,,1720.213,1721.2124,,,1721.7126,1721.9626,,84,84,,,,,,,,,,,,,,,,bars/021.png,bars/mask000.png,,,,,,,,,,,,2,2,,,,,,,2,4,2,4,,,,,,,,,,,1721.2125,1721.7126,1721.9627,1724.9348,space,2.968,,1724.9348,71,14,1725.9347,1725.9347,1726.949,space,0.9968,,0,36,36,36,1,155,70,,,,,,,,
,,5b04bbd4b98c410001adb8db,65af54fe2cf40634cd5d7095,2024-01-23_06h56.29.078,bars,2023.2.3,Win32,144.9275362,657b66ea316d21385b68909f,,,,,,,,,,,1726.9496,1727.9487,,,1728.4491,1728.6987,,136,136,,,,,,,,,,,,,,,,bars/000.png,bars/mask002.png,,,,,,,,,,,,3,2,,,,,,,4,6,4,4,,,,,,,,,,,1727.9487,1728.449,1728.6988,1731.832,space,3.1297,,1731.8322,84,9,1732.8307,1732.8307,1733.4627,space,0.6145,,0,37,37,37,1,40,145,,,,,,,,
,,5b04bbd4b98c410001adb8db,65af54fe2cf40634cd5d7095,2024-01-23_06h56.29.078,bars,2023.2.3,Win32,144.9275362,657b66ea316d21385b68909f,,,,,,,,,,,1733.4631,1734.4626,,,1734.9628,1735.2126,,111,111,,,,,,,,,,,,,,,,bars/034.png,bars/mask003.png,,,,,,,,,,,,1,1,,,,,,,2,8,1,7,,,,,,,,,,,1734.4626,1734.9628,1735.2126,1737.7822,space,2.564,,1737.7822,14,46,1738.7822,1738.7822,1739.6646,space,0.8614,,0,38,38,38,1,125,65,,,,,,,,
,,5b04bbd4b98c410001adb8db,65af54fe2cf40634cd5d7095,2024-01-23_06h56.29.078,bars,2023.2.3,Win32,144.9275362,657b66ea316d21385b68909f,,,,,,,,,,,1739.6652,1740.6643,,,1741.1645,1741.4144,,139,139,,,,,,,,,,,,,,,,bars/005.png,bars/mask008.png,,,,,,,,,,,,10,2,,,,,,,4,10,5,10,,,,,,,,,,,1740.6643,1741.1643,1741.4144,1742.95,space,1.5319,,1742.95,51,1,1743.9491,1743.9491,1745.5601,space,1.6015,,0,39,39,39,1,10,140,,,,,,,,
,,5b04bbd4b98c410001adb8db,65af54fe2cf40634cd5d7095,2024-01-23_06h56.29.078,bars,2023.2.3,Win32,144.9275362,657b66ea316d21385b68909f,,,,,,,,,,,1745.5604,1746.5603,,,1747.06,1747.3102,,124,124,,,,,,,,,,,,,,,,bars/040.png,bars/mask006.png,,,,,,,,,,,,3,1,,,,,,,6,8,7,7,,,,,,,,,,,1746.5604,1747.06,1747.3102,1748.9699,space,1.6543,,1748.9699,16,61,1749.9698,1749.9698,1752.2894,space,2.3071,,0,40,40,40,1,140,5,,,,,,,,
,,5b04bbd4b98c410001adb8db,65af54fe2cf40634cd5d7095,2024-01-23_06h56.29.078,bars,2023.2.3,Win32,144.9275362,657b66ea316d21385b68909f,,,,,,,,,,,1752.2897,1753.2894,,,1753.7894,1754.0396,,151,-29,,,,,,,,,,,,,,,,bars/018.png,bars/mask002.png,,,,,,,,,,,,5,1,,,,,,,4,6,5,7,,,,,,,,,,,1753.2894,1753.7894,1754.0396,1759.5048,space,5.4579,,1759.5048,1,61,1760.5049,1760.5049,1761.3383,space,0.814,,0,41,41,41,1,150,90,,,,,,,,
,,5b04bbd4b98c410001adb8db,65af54fe2cf40634cd5d7095,2024-01-23_06h56.29.078,bars,2023.2.3,Win32,144.9275362,657b66ea316d21385b68909f,,,,,,,,,,,1761.3388,1762.3384,,,1762.8387,1763.0883,,13,13,,,,,,,,,,,,,,,,bars/035.png,bars/mask006.png,,,,,,,,,,,,2,1,,,,,,,6,8,6,9,,,,,,,,,,,1762.3384,1762.8386,1763.0883,1764.9148,space,1.819,,1764.9148,18,47,1765.9147,1765.9148,1766.6299,space,0.7081,,0,42,42,42,1,175,60,,,,,,,,
,,5b04bbd4b98c410001adb8db,65af54fe2cf40634cd5d7095,2024-01-23_06h56.29.078,bars,2023.2.3,Win32,144.9275362,657b66ea316d21385b68909f,,,,,,,,,,,1766.6303,1767.63,,,1768.1302,1768.3804,,46,226,,,,,,,,,,,,,,,,bars/028.png,bars/mask004.png,,,,,,,,,,,,9,1,,,,,,,8,6,9,7,,,,,,,,,,,1767.63,1768.1301,1768.3804,1774.4425,space,6.056,,1774.4425,1,74,1775.4426,1775.4427,1776.9427,space,1.4809,,0,43,43,43,1,45,120,,,,,,,,
,,5b04bbd4b98c410001adb8db,65af54fe2cf40634cd5d7095,2024-01-23_06h56.29.078,bars,2023.2.3,Win32,144.9275362,657b66ea316d21385b68909f,,,,,,,,,,,1776.9433,1777.943,,,1778.443,1778.6927,,43,43,,,,,,,,,,,,,,,,bars/023.png,bars/mask004.png,,,,,,,,,,,,1,1,,,,,,,6,8,5,10,,,,,,,,,,,1777.943,1778.443,1778.6928,1782.0068,space,3.3111,,1782.0069,23,72,1783.0077,1783.0078,1784.1519,space,1.1272,,0,44,44,44,1,20,115,,,,,,,,
,,5b04bbd4b98c410001adb8db,65af54fe2cf40634cd5d7095,2024-01-23_06h56.29.078,bars,2023.2.3,Win32,144.9275362,657b66ea316d21385b68909f,,,,,,,,,,,1784.1524,1785.1513,,,1785.6513,1785.9031,,177,-3,,,,,,,,,,,,,,,,bars/032.png,bars/mask004.png,,,,,,,,,,,,2,2,,,,,,,4,10,4,9,,,,,,,,,,,1785.1515,1785.6513,1785.9032,1790.1445,space,4.2319,,1790.1445,52,23,1791.1458,1791.1458,1791.7999,space,0.6366,,0,45,45,45,1,125,20,,,,,,,,
,,5b04bbd4b98c410001adb8db,65af54fe2cf40634cd5d7095,2024-01-23_06h56.29.078,bars,2023.2.3,Win32,144.9275362,657b66ea316d21385b68909f,,,,,,,,,,,1791.8002,1792.7972,,,1793.2924,1793.5418,,41,41,,,,,,,,,,,,,,,,bars/043.png,bars/mask004.png,,,,,,,,,,,,2,1,,,,,,,2,8,3,9,,,,,,,,,,,1792.7973,1793.2924,1793.5419,1796.1307,space,2.5761,,1796.1307,11,89,1797.1329,1797.1329,1799.0404,space,1.8869,,0,46,46,46,1,30,130,,,,,,,,
,,5b04bbd4b98c410001adb8db,65af54fe2cf40634cd5d7095,2024-01-23_06h56.29.078,bars,2023.2.3,Win32,144.9275362,657b66ea316d21385b68909f,,,,,,,,,,,1799.0407,1800.0407,,,1800.5404,1800.7902,,30,30,,,,,,,,,,,,,,,,bars/016.png,bars/mask002.png,,,,,,,,,,,,3,1,,,,,,,4,6,4,9,,,,,,,,,,,1800.0409,1800.5403,1800.7902,1803.1515,space,2.3567,,1803.1515,10,45,1804.1513,1804.1513,1805.4091,space,1.2411,,0,47,47,47,1,40,165,,,,,,,,
,,5b04bbd4b98c410001adb8db,65af54fe2cf40634cd5d7095,2024-01-23_06h56.29.078,bars,2023.2.3,Win32,144.9275362,657b66ea316d21385b68909f,,,,,,,,,,,1805.4094,1806.4084,,,1806.9084,1807.1586,,37,37,,,,,,,,,,,,,,,,bars/034.png,bars/mask006.png,,,,,,,,,,,,0,2,,,,,,,2,8,1,7,,,,,,,,,,,1806.4084,1806.9084,1807.1586,1809.9016,space,2.7399,,1809.9016,88,28,1810.9014,1810.9015,1811.5616,space,0.6401,,0,48,48,48,1,125,65,,,,,,,,
,,5b04bbd4b98c410001adb8db,65af54fe2cf40634cd5d7095,2024-01-23_06h56.29.078,bars,2023.2.3,Win32,144.9275362,657b66ea316d21385b68909f,,,,,,,,,,,1811.562,1812.5612,,,1813.0628,1813.3112,,69,69,,,,,,,,,,,,,,,,bars/047.png,bars/mask009.png,,,,,,,,,,,,6,2,,,,,,,0,6,0,6,,,,,,,,,,,1812.5613,1813.0628,1813.3112,1815.8252,space,2.5074,,1815.8252,54,1,1816.8253,1816.8254,1817.666,space,0.8222,,0,49,49,49,1,15,70,,,,,,,,
,,5b04bbd4b98c410001adb8db,65af54fe2cf40634cd5d7095,2024-01-23_06h56.29.078,bars,2023.2.3,Win32,144.9275362,657b66ea316d21385b68909f,,,,,,,,,,,,,,,,,,,,,,,,,,,,,,,,,,,,,,,,,,,,,,,,,,,,,,,,,,,,,,,,,,,,,,,,,,,,,,,,,,,,,,,,,,,,,1817.6669,1877.6682,0,0,0,2,1,sequence_tables/blk005.csv
,,5b04bbd4b98c410001adb8db,65af54fe2cf40634cd5d7095,2024-01-23_06h56.29.078,bars,2023.2.3,Win32,144.9275362,657b66ea316d21385b68909f,,,,,,,,,,,2239.2652,2240.2652,,,2240.7647,2241.013,,8,188,,,,,,,,,,,,,,,,bars/012.png,bars/mask001.png,,,,,,,,,,,,5,2,,,,,,,5,8,5,7,,,,,,1877.6822,2239.2589,space,361.5728,,2240.2652,2240.7646,2241.0131,2245.2578,space,4.2306,,2245.2578,82,7,2246.2565,2246.2566,2246.2572,,,,0,0,0,0,1,90,15,,,,,,,,
,,5b04bbd4b98c410001adb8db,65af54fe2cf40634cd5d7095,2024-01-23_06h56.29.078,bars,2023.2.3,Win32,144.9275362,657b66ea316d21385b68909f,,,,,,,,,,,2246.2574,2247.2565,,,2247.7566,2248.0064,,22,22,,,,,,,,,,,,,,,,bars/034.png,bars/mask001.png,,,,,,,,,,,,0,2,,,,,,,3,6,4,8,,,,,,,,,,,2247.2566,2247.7566,2248.0065,2250.8676,space,2.8555,,2250.8676,77,43,2251.8675,2251.8675,2251.8773,,,,0,1,1,1,1,125,65,,,,,,,,
,,5b04bbd4b98c410001adb8db,65af54fe2cf40634cd5d7095,2024-01-23_06h56.29.078,bars,2023.2.3,Win32,144.9275362,657b66ea316d21385b68909f,,,,,,,,,,,2251.8775,2252.8758,,,2253.3765,2253.6244,,32,212,,,,,,,,,,,,,,,,bars/013.png,bars/mask002.png,,,,,,,,,,,,2,2,,,,,,,5,8,5,9,,,,,,,,,,,2252.8758,2253.3765,2253.6244,2257.6801,space,4.0433,,2257.6801,43,22,2258.6815,2258.6815,2258.6917,,,,0,2,2,2,1,75,10,,,,,,,,
,,5b04bbd4b98c410001adb8db,65af54fe2cf40634cd5d7095,2024-01-23_06h56.29.078,bars,2023.2.3,Win32,144.9275362,657b66ea316d21385b68909f,,,,,,,,,,,2258.692,2259.687,,,2260.1871,2260.4371,,89,89,,,,,,,,,,,,,,,,bars/049.png,bars/mask009.png,,,,,,,,,,,,1,2,,,,,,,7,6,7,5,,,,,,,,,,,2259.687,2260.187,2260.4371,2263.6953,space,3.2523,,2263.6958,71,26,2264.6941,2264.6941,2264.7041,,,,0,3,3,3,1,160,115,,,,,,,,
,,5b04bbd4b98c410001adb8db,65af54fe2cf40634cd5d7095,2024-01-23_06h56.29.078,bars,2023.2.3,Win32,144.9275362,657b66ea316d21385b68909f,,,,,,,,,,,2264.7043,2265.701,,,2266.2012,2266.4512,,57,57,,,,,,,,,,,,,,,,bars/046.png,bars/mask000.png,,,,,,,,,,,,0,2,,,,,,,9,4,8,2,,,,,,,,,,,2265.701,2266.2011,2266.4512,2269.6737,space,3.2098,,2269.6739,82,28,2270.6733,2270.6733,2270.6832,,,,0,4,4,4,1,155,85,,,,,,,,
,,5b04bbd4b98c410001adb8db,65af54fe2cf40634cd5d7095,2024-01-23_06h56.29.078,bars,2023.2.3,Win32,144.9275362,657b66ea316d21385b68909f,,,,,,,,,,,2270.6834,2271.6809,,,2272.1824,2272.4326,,12,12,,,,,,,,,,,,,,,,bars/016.png,bars/mask006.png,,,,,,,,,,,,0,2,,,,,,,7,6,8,4,,,,,,,,,,,2271.6809,2272.1824,2272.4326,2277.2155,space,4.7734,,2277.2155,28,27,2278.2151,2278.2151,2278.2251,,,,0,5,5,5,1,40,165,,,,,,,,
,,5b04bbd4b98c410001adb8db,65af54fe2cf40634cd5d7095,2024-01-23_06h56.29.078,bars,2023.2.3,Win32,144.9275362,657b66ea316d21385b68909f,,,,,,,,,,,2278.2254,2279.222,,,2279.7225,2279.9722,,70,70,,,,,,,,,,,,,,,,bars/027.png,bars/mask006.png,,,,,,,,,,,,2,2,,,,,,,9,8,9,7,,,,,,,,,,,2279.222,2279.7225,2279.9723,2282.3158,space,2.3342,,2282.3158,40,20,2283.3125,2283.3125,2283.3231,,,,0,6,6,6,1,110,50,,,,,,,,
,,5b04bbd4b98c410001adb8db,65af54fe2cf40634cd5d7095,2024-01-23_06h56.29.078,bars,2023.2.3,Win32,144.9275362,657b66ea316d21385b68909f,,,,,,,,,,,2283.3233,2284.3193,,,2284.8202,2285.0699,,9,189,,,,,,,,,,,,,,,,bars/015.png,bars/mask006.png,,,,,,,,,,,,0,2,,,,,,,7,10,7,10,,,,,,,,,,,2284.3193,2284.8201,2285.0699,2287.2088,space,2.126,,2287.2088,79,29,2288.2089,2288.209,2288.2193,,,,0,7,7,7,1,110,160,,,,,,,,
,,5b04bbd4b98c410001adb8db,65af54fe2cf40634cd5d7095,2024-01-23_06h56.29.078,bars,2023.2.3,Win32,144.9275362,657b66ea316d21385b68909f,,,,,,,,,,,2288.2195,2289.2156,,,2289.7153,2289.9656,,11,11,,,,,,,,,,,,,,,,bars/046.png,bars/mask006.png,,,,,,,,,,,,0,1,,,,,,,5,10,4,9,,,,,,,,,,,2289.2156,2289.7152,2289.9657,2293.7229,space,3.7508,,2293.7229,36,74,2294.7223,2294.7223,2294.7338,,,,0,8,8,8,1,155,85,,,,,,,,
,,5b04bbd4b98c410001adb8db,65af54fe2cf40634cd5d7095,2024-01-23_06h56.29.078,bars,2023.2.3,Win32,144.9275362,657b66ea316d21385b68909f,,,,,,,,,,,2294.7341,2295.7292,,,2296.2293,2296.4796,,44,44,,,,,,,,,,,,,,,,bars/022.png,bars/mask007.png,,,,,,,,,,,,2,2,,,,,,,7,8,7,8,,,,,,,,,,,2295.7292,2296.2293,2296.4796,2298.6252,space,2.1399,,2298.6253,51,24,2299.6255,2299.6256,2299.6359,,,,0,9,9,9,1,95,20,,,,,,,,
,,5b04bbd4b98c410001adb8db,65af54fe2cf40634cd5d7095,2024-01-23_06h56.29.078,bars,2023.2.3,Win32,144.9275362,657b66ea316d21385b68909f,,,,,,,,,,,2299.6362,2300.6323,,,2301.1327,2301.3821,,161,161,,,,,,,,,,,,,,,,bars/020.png,bars/mask001.png,,,,,,,,,,,,4,2,,,,,,,9,6,10,6,,,,,,,,,,,2300.6323,2301.1326,2301.3822,2303.5211,space,2.1316,,2303.5212,46,9,2304.5219,2304.5219,2304.5228,,,,0,10,10,10,1,115,170,,,,,,,,
,,5b04bbd4b98c410001adb8db,65af54fe2cf40634cd5d7095,2024-01-23_06h56.29.078,bars,2023.2.3,Win32,144.9275362,657b66ea316d21385b68909f,,,,,,,,,,,2304.5231,2305.5211,,,2306.0213,2306.2721,,62,62,,,,,,,,,,,,,,,,bars/043.png,bars/mask001.png,,,,,,,,,,,,0,1,,,,,,,10,8,10,7,,,,,,,,,,,2305.5211,2306.0212,2306.2722,2309.2579,space,2.979,,2309.2579,32,68,2310.2575,2310.2575,2310.2678,,,,0,11,11,11,1,30,130,,,,,,,,
,,5b04bbd4b98c410001adb8db,65af54fe2cf40634cd5d7095,2024-01-23_06h56.29.078,bars,2023.2.3,Win32,144.9275362,657b66ea316d21385b68909f,,,,,,,,,,,2310.2679,2311.2643,,,2311.7643,2312.0143,,153,153,,,,,,,,,,,,,,,,bars/004.png,bars/mask005.png,,,,,,,,,,,,1,2,,,,,,,8,10,10,10,,,,,,,,,,,2311.2643,2311.7643,2312.0143,2316.6817,space,4.6601,,2316.6818,52,28,2317.6817,2317.6817,2317.6925,,,,0,12,12,12,1,25,125,,,,,,,,
,,5b04bbd4b98c410001adb8db,65af54fe2cf40634cd5d7095,2024-01-23_06h56.29.078,bars,2023.2.3,Win32,144.9275362,657b66ea316d21385b68909f,,,,,,,,,,,2317.6927,2318.6885,,,2319.1888,2319.4387,,102,282,,,,,,,,,,,,,,,,bars/002.png,bars/mask001.png,,,,,,,,,,,,3,2,,,,,,,6,8,7,8,,,,,,,,,,,2318.6886,2319.1887,2319.4387,2323.7185,space,4.2721,,2323.7186,28,17,2324.7173,2324.7174,2324.7272,,,,0,13,13,13,1,130,85,,,,,,,,
,,5b04bbd4b98c410001adb8db,65af54fe2cf40634cd5d7095,2024-01-23_06h56.29.078,bars,2023.2.3,Win32,144.9275362,657b66ea316d21385b68909f,,,,,,,,,,,2324.7274,2325.7228,,,2326.223,2326.4732,,157,-23,,,,,,,,,,,,,,,,bars/046.png,bars/mask003.png,,,,,,,,,,,,1,1,,,,,,,4,10,1,10,,,,,,,,,,,2325.7228,2326.223,2326.4734,2330.5377,space,4.0618,,2330.5378,2,72,2331.537,2331.537,2331.5478,,,,0,14,14,14,1,155,85,,,,,,,,
,,5b04bbd4b98c410001adb8db,65af54fe2cf40634cd5d7095,2024-01-23_06h56.29.078,bars,2023.2.3,Win32,144.9275362,657b66ea316d21385b68909f,,,,,,,,,,,2331.548,2332.5495,,,2333.0498,2333.2997,,176,176,,,,,,,,,,,,,,,,bars/048.png,bars/mask000.png,,,,,,,,,,,,7,2,,,,,,,6,8,7,7,,,,,,,,,,,2332.5495,2333.0497,2333.2997,2334.2301,space,0.9257,,2334.2302,54,1,2335.2301,2335.2301,2335.232,,,,0,15,15,15,1,50,175,,,,,,,,
,,5b04bbd4b98c410001adb8db,65af54fe2cf40634cd5d7095,2024-01-23_06h56.29.078,bars,2023.2.3,Win32,144.9275362,657b66ea316d21385b68909f,,,,,,,,,,,2335.2321,2336.23,,,2336.7317,2336.9808,,13,13,,,,,,,,,,,,,,,,bars/026.png,bars/mask007.png,,,,,,,,,,,,1,1,,,,,,,4,6,3,5,,,,,,,,,,,2336.23,2336.7316,2336.9808,2341.6897,space,4.7013,,2341.6898,22,72,2342.6886,2342.6887,2342.7001,,,,0,16,16,16,1,35,85,,,,,,,,
,,5b04bbd4b98c410001adb8db,65af54fe2cf40634cd5d7095,2024-01-23_06h56.29.078,bars,2023.2.3,Win32,144.9275362,657b66ea316d21385b68909f,,,,,,,,,,,2342.7003,2343.6957,,,2344.1954,2344.4454,,65,65,,,,,,,,,,,,,,,,bars/038.png,bars/mask001.png,,,,,,,,,,,,7,2,,,,,,,6,8,6,8,,,,,,,,,,,2343.6957,2344.1954,2344.4454,2353.654,space,9.2066,,2353.654,80,5,2354.6543,2354.6543,2354.6667,,,,0,17,17,17,1,165,70,,,,,,,,
,,5b04bbd4b98c410001adb8db,65af54fe2cf40634cd5d7095,2024-01-23_06h56.29.078,bars,2023.2.3,Win32,144.9275362,657b66ea316d21385b68909f,,,,,,,,,,,2354.6669,2355.6678,,,2356.1678,2356.4181,,77,77,,,,,,,,,,,,,,,,bars/009.png,bars/mask008.png,,,,,,,,,,,,1,2,,,,,,,8,10,6,8,,,,,,,,,,,2355.6679,2356.1678,2356.4181,2434.864,space,78.4395,,2434.864,62,28,2435.8638,2435.8639,2435.8649,,,,0,18,18,18,1,15,105,,,,,,,,
,,5b04bbd4b98c410001adb8db,65af54fe2cf40634cd5d7095,2024-01-23_06h56.29.078,bars,2023.2.3,Win32,144.9275362,657b66ea316d21385b68909f,,,,,,,,,,,2435.8651,2436.8638,,,2437.3638,2437.6136,,105,105,,,,,,,,,,,,,,,,bars/004.png,bars/mask003.png,,,,,,,,,,,,3,2,,,,,,,6,8,6,9,,,,,,,,,,,2436.8638,2437.3638,2437.6136,2439.8797,space,2.2643,,2439.8798,80,20,2440.8776,2440.8777,2440.8879,,,,0,19,19,19,1,25,125,,,,,,,,
,,5b04bbd4b98c410001adb8db,65af54fe2cf40634cd5d7095,2024-01-23_06h56.29.078,bars,2023.2.3,Win32,144.9275362,657b66ea316d21385b68909f,,,,,,,,,,,2440.8881,2441.8849,,,2442.3846,2442.6349,,165,-15,,,,,,,,,,,,,,,,bars/033.png,bars/mask006.png,,,,,,,,,,,,7,2,,,,,,,4,10,5,10,,,,,,,,,,,2441.885,2442.3846,2442.635,2445.6974,space,3.0521,,2445.6975,40,10,2446.6975,2446.6975,2446.7074,,,,0,20,20,20,1,25,155,,,,,,,,
,,5b04bbd4b98c410001adb8db,65af54fe2cf40634cd5d7095,2024-01-23_06h56.29.078,bars,2023.2.3,Win32,144.9275362,657b66ea316d21385b68909f,,,,,,,,,,,2446.7075,2447.7047,,,2448.2043,2448.4545,,163,-17,,,,,,,,,,,,,,,,bars/033.png,bars/mask001.png,,,,,,,,,,,,7,2,,,,,,,2,10,1,9,,,,,,,,,,,2447.7047,2448.2043,2448.4546,2452.5108,space,4.0476,,2452.5108,42,8,2453.512,2453.512,2453.5223,,,,0,21,21,21,1,25,155,,,,,,,,
,,5b04bbd4b98c410001adb8db,65af54fe2cf40634cd5d7095,2024-01-23_06h56.29.078,bars,2023.2.3,Win32,144.9275362,657b66ea316d21385b68909f,,,,,,,,,,,2453.5226,2454.5236,,,2455.0239,2455.2737,,26,206,,,,,,,,,,,,,,,,bars/043.png,bars/mask009.png,,,,,,,,,,,,3,1,,,,,,,4,8,4,8,,,,,,,,,,,2454.5237,2455.0238,2455.2738,2457.4962,space,2.2188,,2457.4962,4,76,2458.4961,2458.4963,2458.5067,,,,0,22,22,22,1,30,130,,,,,,,,
,,5b04bbd4b98c410001adb8db,65af54fe2cf40634cd5d7095,2024-01-23_06h56.29.078,bars,2023.2.3,Win32,144.9275362,657b66ea316d21385b68909f,,,,,,,,,,,2458.5069,2459.5045,,,2460.0031,2460.2553,,145,-35,,,,,,,,,,,,,,,,bars/013.png,bars/mask007.png,,,,,,,,,,,,0,2,,,,,,,6,6,5,6,,,,,,,,,,,2459.5046,2460.003,2460.2553,2466.2957,space,6.0313,,2466.2958,70,45,2467.2951,2467.2951,2467.3068,,,,0,23,23,23,1,75,10,,,,,,,,
,,5b04bbd4b98c410001adb8db,65af54fe2cf40634cd5d7095,2024-01-23_06h56.29.078,bars,2023.2.3,Win32,144.9275362,657b66ea316d21385b68909f,,,,,,,,,,,2467.3071,2468.3088,,,2468.8087,2469.0588,,100,100,,,,,,,,,,,,,,,,bars/049.png,bars/mask006.png,,,,,,,,,,,,5,2,,,,,,,4,8,2,10,,,,,,,,,,,2468.3088,2468.8086,2469.0588,2472.5245,space,3.4626,,2472.5245,60,15,2473.524,2473.524,2473.5339,,,,0,24,24,24,1,160,115,,,,,,,,
,,5b04bbd4b98c410001adb8db,65af54fe2cf40634cd5d7095,2024-01-23_06h56.29.078,bars,2023.2.3,Win32,144.9275362,657b66ea316d21385b68909f,,,,,,,,,,,2473.5341,2474.5314,,,2475.0328,2475.2809,,23,23,,,,,,,,,,,,,,,,bars/036.png,bars/mask007.png,,,,,,,,,,,,9,2,,,,,,,6,10,6,10,,,,,,,,,,,2474.5314,2475.0328,2475.2809,2477.9505,space,2.6677,,2477.9505,58,3,2478.9478,2478.9478,2478.9591,,,,0,25,25,25,1,145,20,,,,,,,,
,,5b04bbd4b98c410001adb8db,65af54fe2cf40634cd5d7095,2024-01-23_06h56.29.078,bars,2023.2.3,Win32,144.9275362,657b66ea316d21385b68909f,,,,,,,,,,,2478.9592,2479.9548,,,2480.4547,2480.7048,,169,-11,,,,,,,,,,,,,,,,bars/033.png,bars/mask002.png,,,,,,,,,,,,5,2,,,,,,,4,10,4,9,,,,,,,,,,,2479.9549,2480.4547,2480.705,2484.4143,space,3.7061,,2484.4143,36,14,2485.4135,2485.4135,2485.4233,,,,0,26,26,26,1,25,155,,,,,,,,
,,5b04bbd4b98c410001adb8db,65af54fe2cf40634cd5d7095,2024-01-23_06h56.29.078,bars,2023.2.3,Win32,144.9275362,657b66ea316d21385b68909f,,,,,,,,,,,2485.4235,2486.4201,,,2486.9217,2487.17,,74,74,,,,,,,,,,,,,,,,bars/035.png,bars/mask003.png,,,,,,,,,,,,4,2,,,,,,,6,8,6,8,,,,,,,,,,,2486.4201,2486.9216,2487.17,2489.9067,space,2.7225,,2489.9067,79,14,2490.9066,2490.9067,2490.9165,,,,0,27,27,27,1,175,60,,,,,,,,
,,5b04bbd4b98c410001adb8db,65af54fe2cf40634cd5d7095,2024-01-23_06h56.29.078,bars,2023.2.3,Win32,144.9275362,657b66ea316d21385b68909f,,,,,,,,,,,2490.9167,2491.9154,,,2492.4155,2492.6654,,51,51,,,,,,,,,,,,,,,,bars/030.png,bars/mask004.png,,,,,,,,,,,,4,2,,,,,,,8,6,9,7,,,,,,,,,,,2491.9155,2492.4155,2492.6654,2496.8197,space,4.1525,,2496.8197,89,14,2497.8164,2497.8165,2497.8268,,,,0,28,28,28,1,140,65,,,,,,,,
,,5b04bbd4b98c410001adb8db,65af54fe2cf40634cd5d7095,2024-01-23_06h56.29.078,bars,2023.2.3,Win32,144.9275362,657b66ea316d21385b68909f,,,,,,,,,,,2497.827,2498.825,,,2499.323,2499.573,,155,155,,,,,,,,,,,,,,,,bars/040.png,bars/mask009.png,,,,,,,,,,,,5,1,,,,,,,10,8,9,8,,,,,,,,,,,2498.825,2499.323,2499.5731,2504.1379,space,4.5631,,2504.1379,15,30,2505.136,2505.136,2505.1481,,,,0,29,29,29,1,140,5,,,,,,,,
,,5b04bbd4b98c410001adb8db,65af54fe2cf40634cd5d7095,2024-01-23_06h56.29.078,bars,2023.2.3,Win32,144.9275362,657b66ea316d21385b68909f,,,,,,,,,,,2505.1484,2506.1507,,,2506.6495,2506.9004,,147,147,,,,,,,,,,,,,,,,bars/043.png,bars/mask004.png,,,,,,,,,,,,4,2,,,,,,,8,10,7,10,,,,,,,,,,,2506.151,2506.6495,2506.9004,2509.06,space,2.153,,2509.0601,63,17,2510.0596,2510.0597,2510.062,,,,0,30,30,30,1,30,130,,,,,,,,
,,5b04bbd4b98c410001adb8db,65af54fe2cf40634cd5d7095,2024-01-23_06h56.29.078,bars,2023.2.3,Win32,144.9275362,657b66ea316d21385b68909f,,,,,,,,,,,2510.0622,2511.0595,,,2511.5594,2511.8094,,168,-12,,,,,,,,,,,,,,,,bars/008.png,bars/mask002.png,,,,,,,,,,,,6,2,,,,,,,10,10,9,10,,,,,,,,,,,2511.0595,2511.5594,2511.8094,2516.0804,space,4.2656,,2516.0804,58,12,2517.0804,2517.0806,2517.0906,,,,0,31,31,31,1,110,0,,,,,,,,
,,5b04bbd4b98c410001adb8db,65af54fe2cf40634cd5d7095,2024-01-23_06h56.29.078,bars,2023.2.3,Win32,144.9275362,657b66ea316d21385b68909f,,,,,,,,,,,2517.0907,2518.0875,,,2518.5892,2518.8393,,164,164,,,,,,,,,,,,,,,,bars/020.png,bars/mask003.png,,,,,,,,,,,,6,2,,,,,,,10,10,10,8,,,,,,,,,,,2518.0875,2518.5892,2518.8393,2522.597,space,3.7561,,2522.597,49,6,2523.5965,2523.5965,2523.6071,,,,0,32,32,32,1,115,170,,,,,,,,
,,5b04bbd4b98c410001adb8db,65af54fe2cf40634cd5d7095,2024-01-23_06h56.29.078,bars,2023.2.3,Win32,144.9275362,657b66ea316d21385b68909f,,,,,,,,,,,2523.6073,2524.6082,,,2525.1086,2525.3587,,59,59,,,,,,,,,,,,,,,,bars/044.png,bars/mask000.png,,,,,,,,,,,,3,1,,,,,,,8,8,7,10,,,,,,,,,,,2524.6082,2525.1086,2525.3588,2527.8033,space,2.4389,,2527.8034,16,84,2528.8028,2528.8028,2528.8145,,,,0,33,33,33,1,75,155,,,,,,,,
,,5b04bbd4b98c410001adb8db,65af54fe2cf40634cd5d7095,2024-01-23_06h56.29.078,bars,2023.2.3,Win32,144.9275362,657b66ea316d21385b68909f,,,,,,,,,,,2528.8147,2529.8098,,,2530.3098,2530.5597,,157,157,,,,,,,,,,,,,,,,bars/003.png,bars/mask004.png,,,,,,,,,,,,3,2,,,,,,,6,6,8,6,,,,,,,,,,,2529.8098,2530.3098,2530.5598,2531.9765,space,1.412,,2531.9766,48,17,2532.9764,2532.9765,2532.9779,,,,0,34,34,34,1,25,140,,,,,,,,
,,5b04bbd4b98c410001adb8db,65af54fe2cf40634cd5d7095,2024-01-23_06h56.29.078,bars,2023.2.3,Win32,144.9275362,657b66ea316d21385b68909f,,,,,,,,,,,2532.9781,2533.9765,,,2534.4764,2534.7265,,6,6,,,,,,,,,,,,,,,,bars/015.png,bars/mask000.png,,,,,,,,,,,,1,2,,,,,,,4,8,3,9,,,,,,,,,,,2533.9765,2534.4764,2534.7265,2537.5946,space,2.8629,,2537.5946,76,26,2538.5948,2538.5948,2538.6055,,,,0,35,35,35,1,110,160,,,,,,,,
,,5b04bbd4b98c410001adb8db,65af54fe2cf40634cd5d7095,2024-01-23_06h56.29.078,bars,2023.2.3,Win32,144.9275362,657b66ea316d21385b68909f,,,,,,,,,,,2538.6057,2539.6024,,,2540.1021,2540.3518,,97,-83,,,,,,,,,,,,,,,,bars/049.png,bars/mask006.png,,,,,,,,,,,,2,2,,,,,,,6,6,8,5,,,,,,,,,,,2539.6024,2540.1021,2540.3518,2544.845,space,4.4894,,2544.845,63,18,2545.8446,2545.8447,2545.8545,,,,0,36,36,36,1,160,115,,,,,,,,
,,5b04bbd4b98c410001adb8db,65af54fe2cf40634cd5d7095,2024-01-23_06h56.29.078,bars,2023.2.3,Win32,144.9275362,657b66ea316d21385b68909f,,,,,,,,,,,2545.8546,2546.8518,,,2547.352,2547.6025,,33,33,,,,,,,,,,,,,,,,bars/025.png,bars/mask004.png,,,,,,,,,,,,8,2,,,,,,,4,8,4,10,,,,,,,,,,,2546.8518,2547.352,2547.6026,2550.1506,space,2.5451,,2550.1506,72,7,2551.1504,2551.1505,2551.1611,,,,0,37,37,37,1,105,40,,,,,,,,
,,5b04bbd4b98c410001adb8db,65af54fe2cf40634cd5d7095,2024-01-23_06h56.29.078,bars,2023.2.3,Win32,144.9275362,657b66ea316d21385b68909f,,,,,,,,,,,2551.1613,2552.1574,,,2552.6575,2552.908,,95,95,,,,,,,,,,,,,,,,bars/041.png,bars/mask006.png,,,,,,,,,,,,3,2,,,,,,,2,6,3,5,,,,,,,,,,,2552.1574,2552.6574,2552.908,2554.2338,space,1.3201,,2554.2339,75,10,2555.2339,2555.234,2555.2348,,,,0,38,38,38,1,20,85,,,,,,,,
,,5b04bbd4b98c410001adb8db,65af54fe2cf40634cd5d7095,2024-01-23_06h56.29.078,bars,2023.2.3,Win32,144.9275362,657b66ea316d21385b68909f,,,,,,,,,,,2555.2349,2556.2338,,,2556.7339,2556.984,,97,97,,,,,,,,,,,,,,,,bars/004.png,bars/mask005.png,,,,,,,,,,,,0,2,,,,,,,0,4,0,3,,,,,,,,,,,2556.2338,2556.7339,2556.9841,2560.9492,space,3.9613,,2560.9493,72,28,2561.9494,2561.9496,2561.9595,,,,0,39,39,39,1,25,125,,,,,,,,
,,5b04bbd4b98c410001adb8db,65af54fe2cf40634cd5d7095,2024-01-23_06h56.29.078,bars,2023.2.3,Win32,144.9275362,657b66ea316d21385b68909f,,,,,,,,,,,2561.9596,2562.9565,,,2563.4561,2563.7064,,124,124,,,,,,,,,,,,,,,,bars/005.png,bars/mask007.png,,,,,,,,,,,,1,2,,,,,,,2,2,1,2,,,,,,,,,,,2562.9565,2563.4561,2563.7064,2566.491,space,2.7782,,2566.4911,66,16,2567.491,2567.4911,2567.5011,,,,0,40,40,40,1,10,140,,,,,,,,
,,5b04bbd4b98c410001adb8db,65af54fe2cf40634cd5d7095,2024-01-23_06h56.29.078,bars,2023.2.3,Win32,144.9275362,657b66ea316d21385b68909f,,,,,,,,,,,2567.5013,2568.498,,,2568.9981,2569.2481,,76,76,,,,,,,,,,,,,,,,bars/039.png,bars/mask004.png,,,,,,,,,,,,0,2,,,,,,,4,4,4,3,,,,,,,,,,,2568.4981,2568.9981,2569.2481,2573.3663,space,4.1141,,2573.3664,81,29,2574.3662,2574.3662,2574.3769,,,,0,41,41,41,1,175,105,,,,,,,,
,,5b04bbd4b98c410001adb8db,65af54fe2cf40634cd5d7095,2024-01-23_06h56.29.078,bars,2023.2.3,Win32,144.9275362,657b66ea316d21385b68909f,,,,,,,,,,,2574.377,2575.373,,,2575.873,2576.123,,79,79,,,,,,,,,,,,,,,,bars/011.png,bars/mask005.png,,,,,,,,,,,,4,2,,,,,,,2,6,3,5,,,,,,,,,,,2575.373,2575.873,2576.1231,2578.5988,space,2.4726,,2578.5988,81,6,2579.597,2579.5971,2579.6071,,,,0,42,42,42,1,160,85,,,,,,,,
,,5b04bbd4b98c410001adb8db,65af54fe2cf40634cd5d7095,2024-01-23_06h56.29.078,bars,2023.2.3,Win32,144.9275362,657b66ea316d21385b68909f,,,,,,,,,,,2579.6072,2580.6023,,,2581.1032,2581.3523,,81,81,,,,,,,,,,,,,,,,bars/010.png,bars/mask004.png,,,,,,,,,,,,0,2,,,,,,,0,4,0,3,,,,,,,,,,,2580.6023,2581.1031,2581.3523,2590.3809,space,9.0265,,2590.3809,84,26,2591.3804,2591.3804,2591.3916,,,,0,43,43,43,1,165,55,,,,,,,,
,,5b04bbd4b98c410001adb8db,65af54fe2cf40634cd5d7095,2024-01-23_06h56.29.078,bars,2023.2.3,Win32,144.9275362,657b66ea316d21385b68909f,,,,,,,,,,,2591.3919,2592.3871,,,2592.8872,2593.1378,,72,72,,,,,,,,,,,,,,,,bars/029.png,bars/mask002.png,,,,,,,,,,,,0,1,,,,,,,2,2,0,2,,,,,,,,,,,2592.3872,2592.8872,2593.138,2595.2765,space,2.136,,2595.2765,18,27,2596.2761,2596.2762,2596.2862,,,,0,44,44,44,1,90,45,,,,,,,,
,,5b04bbd4b98c410001adb8db,65af54fe2cf40634cd5d7095,2024-01-23_06h56.29.078,bars,2023.2.3,Win32,144.9275362,657b66ea316d21385b68909f,,,,,,,,,,,2596.2864,2597.2831,,,2597.783,2598.0334,,166,166,,,,,,,,,,,,,,,,bars/033.png,bars/mask001.png,,,,,,,,,,,,1,2,,,,,,,4,0,5,1,,,,,,,,,,,2597.2831,2597.783,2598.0334,2601.6119,space,3.5702,,2601.612,39,11,2602.6097,2602.6098,2602.6211,,,,0,45,45,45,1,25,155,,,,,,,,
,,5b04bbd4b98c410001adb8db,65af54fe2cf40634cd5d7095,2024-01-23_06h56.29.078,bars,2023.2.3,Win32,144.9275362,657b66ea316d21385b68909f,,,,,,,,,,,2602.6213,2603.6165,,,2604.1173,2604.3667,,170,170,,,,,,,,,,,,,,,,bars/039.png,bars/mask002.png,,,,,,,,,,,,2,1,,,,,,,2,0,2,1,,,,,,,,,,,2603.6166,2604.1172,2604.3668,2607.6445,space,3.2753,,2607.6445,5,65,2608.6443,2608.6444,2608.6547,,,,0,46,46,46,1,175,105,,,,,,,,
,,5b04bbd4b98c410001adb8db,65af54fe2cf40634cd5d7095,2024-01-23_06h56.29.078,bars,2023.2.3,Win32,144.9275362,657b66ea316d21385b68909f,,,,,,,,,,,2608.655,2609.6517,,,2610.1514,2610.4015,,74,74,,,,,,,,,,,,,,,,bars/041.png,bars/mask004.png,,,,,,,,,,,,1,2,,,,,,,0,2,1,2,,,,,,,,,,,2609.6517,2610.1513,2610.4016,2616.0899,space,5.6839,,2616.09,54,11,2617.0894,2617.0894,2617.1034,,,,0,47,47,47,1,20,85,,,,,,,,
,,5b04bbd4b98c410001adb8db,65af54fe2cf40634cd5d7095,2024-01-23_06h56.29.078,bars,2023.2.3,Win32,144.9275362,657b66ea316d21385b68909f,,,,,,,,,,,2617.1037,2618.1031,,,2618.603,2618.8528,,70,250,,,,,,,,,,,,,,,,bars/047.png,bars/mask003.png,,,,,,,,,,,,0,2,,,,,,,2,0,2,0,,,,,,,,,,,2618.1031,2618.6029,2618.8528,2624.0067,space,5.1517,,2624.0068,55,0,2625.006,2625.006,2625.0161,,,,0,48,48,48,1,15,70,,,,,,,,
,,5b04bbd4b98c410001adb8db,65af54fe2cf40634cd5d7095,2024-01-23_06h56.29.078,bars,2023.2.3,Win32,144.9275362,657b66ea316d21385b68909f,,,,,,,,,,,2625.0162,2626.0126,,,2626.5138,2626.7627,,171,171,,,,,,,,,,,,,,,,bars/023.png,bars/mask003.png,,,,,,,,,,,,0,1,,,,,,,4,0,4,0,,,,,,,,,,,2626.0127,2626.5137,2626.7627,2630.7777,space,4.0109,,2630.7782,29,56,2631.777,2631.777,2631.7902,,,,0,49,49,49,1,20,115,,,,,,,,
,,5b04bbd4b98c410001adb8db,65af54fe2cf40634cd5d7095,2024-01-23_06h56.29.078,bars,2023.2.3,Win32,144.9275362,657b66ea316d21385b68909f,,,,,,,,,,,,,,,,,,,,,,,,,,,,,,,,,,,,,,,,,,,,,,,,,,,,,,,,,,,,,,,,,,,,,,,,,,,,,,,,,,,,,,,,,,,,,2631.7908,2691.7948,0,1,1,0,1,sequence_tables/blk001.csv
,,5b04bbd4b98c410001adb8db,65af54fe2cf40634cd5d7095,2024-01-23_06h56.29.078,bars,2023.2.3,Win32,144.9275362,657b66ea316d21385b68909f,,,,,,,,,,,2868.584,2869.5798,,,2870.0804,2870.3297,,154,154,,,,,,,,,,,,,,,,bars/004.png,bars/mask002.png,,,,,,,,,,,,0,2,,,,,,,8,4,8,5,,,,,,2691.8078,2868.5753,space,176.7625,,2869.5798,2870.0801,2870.3298,2874.8021,space,4.4653,,2874.8022,51,29,2875.802,2875.8021,2875.8136,,,,0,0,0,0,1,25,125,,,,,,,,
,,5b04bbd4b98c410001adb8db,65af54fe2cf40634cd5d7095,2024-01-23_06h56.29.078,bars,2023.2.3,Win32,144.9275362,657b66ea316d21385b68909f,,,,,,,,,,,2875.8138,2876.8107,,,2877.3092,2877.5619,,169,-11,,,,,,,,,,,,,,,,bars/013.png,bars/mask008.png,,,,,,,,,,,,2,2,,,,,,,10,6,10,8,,,,,,,,,,,2876.8108,2877.3092,2877.5619,2887.1916,space,9.6218,,2887.1916,86,21,2888.1912,2888.1913,2888.2026,,,,0,1,1,1,1,75,10,,,,,,,,
,,5b04bbd4b98c410001adb8db,65af54fe2cf40634cd5d7095,2024-01-23_06h56.29.078,bars,2023.2.3,Win32,144.9275362,657b66ea316d21385b68909f,,,,,,,,,,,2888.2028,2889.1983,,,2889.6983,2889.948,,11,191,,,,,,,,,,,,,,,,bars/015.png,bars/mask009.png,,,,,,,,,,,,0,2,,,,,,,10,4,10,5,,,,,,,,,,,2889.1983,2889.6982,2889.948,2893.2889,space,3.3342,,2893.2889,81,31,2894.2885,2894.2885,2894.2988,,,,0,2,2,2,1,110,160,,,,,,,,
,,5b04bbd4b98c410001adb8db,65af54fe2cf40634cd5d7095,2024-01-23_06h56.29.078,bars,2023.2.3,Win32,144.9275362,657b66ea316d21385b68909f,,,,,,,,,,,2894.299,2895.2952,,,2895.7955,2896.0456,,171,171,,,,,,,,,,,,,,,,bars/024.png,bars/mask001.png,,,,,,,,,,,,5,2,,,,,,,8,6,8,5,,,,,,,,,,,2895.2952,2895.7955,2896.0456,2898.5256,space,2.4766,,2898.5256,51,1,2899.5248,2899.5249,2899.5352,,,,0,3,3,3,1,120,170,,,,,,,,
,,5b04bbd4b98c410001adb8db,65af54fe2cf40634cd5d7095,2024-01-23_06h56.29.078,bars,2023.2.3,Win32,144.9275362,657b66ea316d21385b68909f,,,,,,,,,,,2899.5354,2900.5319,,,2901.032,2901.2815,,77,-103,,,,,,,,,,,,,,,,bars/002.png,bars/mask003.png,,,,,,,,,,,,7,2,,,,,,,10,8,10,9,,,,,,,,,,,2900.5319,2901.032,2901.2816,2905.5108,space,4.2242,,2905.5108,53,8,2906.511,2906.511,2906.5213,,,,0,4,4,4,1,130,85,,,,,,,,
,,5b04bbd4b98c410001adb8db,65af54fe2cf40634cd5d7095,2024-01-23_06h56.29.078,bars,2023.2.3,Win32,144.9275362,657b66ea316d21385b68909f,,,,,,,,,,,2906.5215,2907.5183,,,2908.0176,2908.2678,,36,36,,,,,,,,,,,,,,,,bars/025.png,bars/mask005.png,,,,,,,,,,,,9,2,,,,,,,8,10,8,10,,,,,,,,,,,2907.5183,2908.0176,2908.2678,2910.0316,space,1.7579,,2910.0316,69,4,2911.0316,2911.0317,2911.0414,,,,0,5,5,5,1,105,40,,,,,,,,
,,5b04bbd4b98c410001adb8db,65af54fe2cf40634cd5d7095,2024-01-23_06h56.29.078,bars,2023.2.3,Win32,144.9275362,657b66ea316d21385b68909f,,,,,,,,,,,2911.0416,2912.0391,,,2912.5404,2912.7891,,32,212,,,,,,,,,,,,,,,,bars/007.png,bars/mask002.png,,,,,,,,,,,,2,2,,,,,,,10,10,10,10,,,,,,,,,,,2912.0391,2912.5403,2912.7891,2916.2888,space,3.4869,,2916.2888,37,23,2917.2888,2917.2889,2917.2983,,,,0,6,6,6,1,175,55,,,,,,,,
,,5b04bbd4b98c410001adb8db,65af54fe2cf40634cd5d7095,2024-01-23_06h56.29.078,bars,2023.2.3,Win32,144.9275362,657b66ea316d21385b68909f,,,,,,,,,,,2917.2985,2918.2957,,,2918.7971,2919.0463,,5,5,,,,,,,,,,,,,,,,bars/016.png,bars/mask007.png,,,,,,,,,,,,3,2,,,,,,,8,10,7,10,,,,,,,,,,,2918.2957,2918.7971,2919.0466,2924.5667,space,5.512,,2924.5668,35,20,2925.5619,2925.5619,2925.5715,,,,0,7,7,7,1,40,165,,,,,,,,
,,5b04bbd4b98c410001adb8db,65af54fe2cf40634cd5d7095,2024-01-23_06h56.29.078,bars,2023.2.3,Win32,144.9275362,657b66ea316d21385b68909f,,,,,,,,,,,2925.5717,2926.5668,,,2927.0665,2927.3166,,85,85,,,,,,,,,,,,,,,,bars/018.png,bars/mask008.png,,,,,,,,,,,,8,2,,,,,,,6,10,6,10,,,,,,,,,,,2926.5668,2927.0665,2927.3166,2931.1155,space,3.7934,,2931.1156,65,5,2932.1156,2932.1156,2932.1258,,,,0,8,8,8,1,150,90,,,,,,,,
,,5b04bbd4b98c410001adb8db,65af54fe2cf40634cd5d7095,2024-01-23_06h56.29.078,bars,2023.2.3,Win32,144.9275362,657b66ea316d21385b68909f,,,,,,,,,,,2932.1261,2933.1222,,,2933.6221,2933.8725,,101,101,,,,,,,,,,,,,,,,bars/019.png,bars/mask003.png,,,,,,,,,,,,7,2,,,,,,,8,8,8,8,,,,,,,,,,,2933.1223,2933.6221,2933.8725,2936.1918,space,2.3126,,2936.1918,56,4,2937.1916,2937.1917,2937.2017,,,,0,9,9,9,1,45,105,,,,,,,,
,,5b04bbd4b98c410001adb8db,65af54fe2cf40634cd5d7095,2024-01-23_06h56.29.078,bars,2023.2.3,Win32,144.9275362,657b66ea316d21385b68909f,,,,,,,,,,,2937.2019,2938.2002,,,2938.6987,2938.949,,11,11,,,,,,,,,,,,,,,,bars/024.png,bars/mask000.png,,,,,,,,,,,,3,2,,,,,,,6,10,4,10,,,,,,,,,,,2938.2002,2938.6987,2938.949,2942.5,space,3.5421,,2942.5001,71,21,2943.4991,2943.4991,2943.5105,,,,0,10,10,10,1,120,170,,,,,,,,
,,5b04bbd4b98c410001adb8db,65af54fe2cf40634cd5d7095,2024-01-23_06h56.29.078,bars,2023.2.3,Win32,144.9275362,657b66ea316d21385b68909f,,,,,,,,,,,2943.5107,2944.5113,,,2945.0114,2945.2613,,156,156,,,,,,,,,,,,,,,,bars/020.png,bars/mask005.png,,,,,,,,,,,,5,2,,,,,,,4,8,3,10,,,,,,,,,,,2944.5113,2945.0113,2945.2613,2948.5183,space,3.2517,,2948.5183,41,14,2949.5189,2949.5189,2949.5292,,,,0,11,11,11,1,115,170,,,,,,,,
,,5b04bbd4b98c410001adb8db,65af54fe2cf40634cd5d7095,2024-01-23_06h56.29.078,bars,2023.2.3,Win32,144.9275362,657b66ea316d21385b68909f,,,,,,,,,,,2949.5294,2950.5255,,,2951.0257,2951.2909,,46,226,,,,,,,,,,,,,,,,bars/007.png,bars/mask006.png,,,,,,,,,,,,4,2,,,,,,,6,6,6,5,,,,,,,,,,,2950.5257,2951.0257,2951.2909,2954.9234,space,3.6287,,2954.9235,51,9,2955.9231,2955.9231,2955.934,,,,0,12,12,12,1,175,55,,,,,,,,
,,5b04bbd4b98c410001adb8db,65af54fe2cf40634cd5d7095,2024-01-23_06h56.29.078,bars,2023.2.3,Win32,144.9275362,657b66ea316d21385b68909f,,,,,,,,,,,2955.9342,2956.9351,,,2957.4351,2957.6852,,88,88,,,,,,,,,,,,,,,,bars/011.png,bars/mask006.png,,,,,,,,,,,,6,2,,,,,,,8,8,7,7,,,,,,,,,,,2956.9351,2957.4351,2957.6853,2959.317,space,1.6281,,2959.3171,72,3,2960.3171,2960.3171,2960.3272,,,,0,13,13,13,1,160,85,,,,,,,,
,,5b04bbd4b98c410001adb8db,65af54fe2cf40634cd5d7095,2024-01-23_06h56.29.078,bars,2023.2.3,Win32,144.9275362,657b66ea316d21385b68909f,,,,,,,,,,,2960.3275,2961.3256,,,2961.8241,2962.0742,,95,95,,,,,,,,,,,,,,,,bars/011.png,bars/mask007.png,,,,,,,,,,,,7,2,,,,,,,6,10,6,10,,,,,,,,,,,2961.3256,2961.8241,2962.0742,2964.814,space,2.7304,,2964.814,65,10,2965.8103,2965.8104,2965.8206,,,,0,14,14,14,1,160,85,,,,,,,,
,,5b04bbd4b98c410001adb8db,65af54fe2cf40634cd5d7095,2024-01-23_06h56.29.078,bars,2023.2.3,Win32,144.9275362,657b66ea316d21385b68909f,,,,,,,,,,,2965.8207,2966.8195,,,2967.3176,2967.5679,,46,46,,,,,,,,,,,,,,,,bars/029.png,bars/mask000.png,,,,,,,,,,,,10,2,,,,,,,4,10,5,10,,,,,,,,,,,2966.8195,2967.3176,2967.568,2969.5904,space,2.0139,,2969.5904,44,1,2970.5895,2970.5896,2970.6003,,,,0,15,15,15,1,90,45,,,,,,,,
,,5b04bbd4b98c410001adb8db,65af54fe2cf40634cd5d7095,2024-01-23_06h56.29.078,bars,2023.2.3,Win32,144.9275362,657b66ea316d21385b68909f,,,,,,,,,,,2970.6005,2971.6024,,,2972.1026,2972.3522,,151,151,,,,,,,,,,,,,,,,bars/000.png,bars/mask003.png,,,,,,,,,,,,6,2,,,,,,,2,8,3,7,,,,,,,,,,,2971.6025,2972.1026,2972.3523,2974.8663,space,2.5071,,2974.8664,69,6,2975.866,2975.866,2975.8755,,,,0,16,16,16,1,40,145,,,,,,,,
,,5b04bbd4b98c410001adb8db,65af54fe2cf40634cd5d7095,2024-01-23_06h56.29.078,bars,2023.2.3,Win32,144.9275362,657b66ea316d21385b68909f,,,,,,,,,,,2975.8757,2976.873,,,2977.3737,2977.6232,,82,82,,,,,,,,,,,,,,,,bars/023.png,bars/mask009.png,,,,,,,,,,,,0,2,,,,,,,4,6,4,7,,,,,,,,,,,2976.873,2977.3736,2977.6232,2979.7082,space,2.0764,,2979.7083,62,33,2980.7063,2980.7064,2980.7161,,,,0,17,17,17,1,20,115,,,,,,,,
,,5b04bbd4b98c410001adb8db,65af54fe2cf40634cd5d7095,2024-01-23_06h56.29.078,bars,2023.2.3,Win32,144.9275362,657b66ea316d21385b68909f,,,,,,,,,,,2980.7163,2981.7134,,,2982.2133,2982.4634,,38,218,,,,,,,,,,,,,,,,bars/036.png,bars/mask006.png,,,,,,,,,,,,2,2,,,,,,,6,4,6,5,,,,,,,,,,,2981.7135,2982.2133,2982.4634,2986.9981,space,4.5234,,2986.9982,73,18,2987.9982,2987.9982,2988.0086,,,,0,18,18,18,1,145,20,,,,,,,,
,,5b04bbd4b98c410001adb8db,65af54fe2cf40634cd5d7095,2024-01-23_06h56.29.078,bars,2023.2.3,Win32,144.9275362,657b66ea316d21385b68909f,,,,,,,,,,,2988.0087,2989.0054,,,2989.5054,2989.7555,,160,-20,,,,,,,,,,,,,,,,bars/048.png,bars/mask006.png,,,,,,,,,,,,2,2,,,,,,,4,2,3,3,,,,,,,,,,,2989.0055,2989.5054,2989.7555,2991.936,space,2.1745,,2991.9362,70,15,2992.9365,2992.9376,2992.9489,,,,0,19,19,19,1,50,175,,,,,,,,
,,5b04bbd4b98c410001adb8db,65af54fe2cf40634cd5d7095,2024-01-23_06h56.29.078,bars,2023.2.3,Win32,144.9275362,657b66ea316d21385b68909f,,,,,,,,,,,2992.9491,2993.9496,,,2994.4497,2994.6998,,81,81,,,,,,,,,,,,,,,,bars/021.png,bars/mask007.png,,,,,,,,,,,,0,2,,,,,,,2,0,1,0,,,,,,,,,,,2993.9496,2994.4497,2994.6998,2997.7276,space,3.0211,,2997.7276,74,11,2998.7276,2998.7276,2998.7372,,,,0,20,20,20,1,155,70,,,,,,,,
,,5b04bbd4b98c410001adb8db,65af54fe2cf40634cd5d7095,2024-01-23_06h56.29.078,bars,2023.2.3,Win32,144.9275362,657b66ea316d21385b68909f,,,,,,,,,,,2998.7375,2999.7349,,,3000.235,3000.4845,,92,92,,,,,,,,,,,,,,,,bars/002.png,bars/mask009.png,,,,,,,,,,,,0,2,,,,,,,4,0,5,0,,,,,,,,,,,2999.7353,3000.235,3000.4846,3003.3463,space,2.8556,,3003.3463,38,7,3004.3479,3004.3479,3004.3579,,,,0,21,21,21,1,130,85,,,,,,,,
,,5b04bbd4b98c410001adb8db,65af54fe2cf40634cd5d7095,2024-01-23_06h56.29.078,bars,2023.2.3,Win32,144.9275362,657b66ea316d21385b68909f,,,,,,,,,,,3004.3581,3005.3595,,,3005.8597,3006.1097,,164,-16,,,,,,,,,,,,,,,,bars/008.png,bars/mask005.png,,,,,,,,,,,,0,2,,,,,,,6,0,5,0,,,,,,,,,,,3005.3596,3005.8597,3006.1097,3007.7976,space,1.6839,,3007.7977,54,16,3008.797,3008.7971,3008.8073,,,,0,22,22,22,1,110,0,,,,,,,,
,,5b04bbd4b98c410001adb8db,65af54fe2cf40634cd5d7095,2024-01-23_06h56.29.078,bars,2023.2.3,Win32,144.9275362,657b66ea316d21385b68909f,,,,,,,,,,,3008.8074,3009.8042,,,3010.3044,3010.5546,,101,-79,,,,,,,,,,,,,,,,bars/049.png,bars/mask000.png,,,,,,,,,,,,0,2,,,,,,,8,0,8,0,,,,,,,,,,,3009.8042,3010.3043,3010.5546,3014.1544,space,3.5909,,3014.1545,59,14,3015.1524,3015.1524,3015.1637,,,,0,23,23,23,1,160,115,,,,,,,,
,,5b04bbd4b98c410001adb8db,65af54fe2cf40634cd5d7095,2024-01-23_06h56.29.078,bars,2023.2.3,Win32,144.9275362,657b66ea316d21385b68909f,,,,,,,,,,,3015.164,3016.1589,,,3016.6585,3016.9085,,171,171,,,,,,,,,,,,,,,,bars/048.png,bars/mask004.png,,,,,,,,,,,,2,2,,,,,,,10,0,10,2,,,,,,,,,,,3016.159,3016.6585,3016.9085,3022.0199,space,5.1088,,3022.02,59,4,3023.0196,3023.0196,3023.0293,,,,0,24,24,24,1,50,175,,,,,,,,
,,5b04bbd4b98c410001adb8db,65af54fe2cf40634cd5d7095,2024-01-23_06h56.29.078,bars,2023.2.3,Win32,144.9275362,657b66ea316d21385b68909f,,,,,,,,,,,3023.0295,3024.0279,,,3024.5266,3024.7765,,15,15,,,,,,,,,,,,,,,,bars/016.png,bars/mask007.png,,,,,,,,,,,,2,1,,,,,,,10,2,10,3,,,,,,,,,,,3024.0279,3024.5266,3024.7766,3026.4297,space,1.6489,,3026.4297,25,30,3027.4308,3027.4309,3027.4323,,,,0,25,25,25,1,40,165,,,,,,,,
,,5b04bbd4b98c410001adb8db,65af54fe2cf40634cd5d7095,2024-01-23_06h56.29.078,bars,2023.2.3,Win32,144.9275362,657b66ea316d21385b68909f,,,,,,,,,,,3027.4325,3028.4295,,,3028.9299,3029.1795,,17,17,,,,,,,,,,,,,,,,bars/025.png,bars/mask005.png,,,,,,,,,,,,1,2,,,,,,,8,4,7,3,,,,,,,,,,,3028.4295,3028.9299,3029.1796,3035.4111,space,6.2231,,3035.4111,88,23,3036.4087,3036.4087,3036.42,,,,0,26,26,26,1,105,40,,,,,,,,
,,5b04bbd4b98c410001adb8db,65af54fe2cf40634cd5d7095,2024-01-23_06h56.29.078,bars,2023.2.3,Win32,144.9275362,657b66ea316d21385b68909f,,,,,,,,,,,3036.4203,3037.4155,,,3037.9156,3038.1656,,121,-59,,,,,,,,,,,,,,,,bars/049.png,bars/mask004.png,,,,,,,,,,,,2,2,,,,,,,6,2,7,2,,,,,,,,,,,3037.4155,3037.9156,3038.1657,3043.2636,space,5.0936,,3043.2636,39,6,3044.2629,3044.263,3044.274,,,,0,27,27,27,1,160,115,,,,,,,,
,,5b04bbd4b98c410001adb8db,65af54fe2cf40634cd5d7095,2024-01-23_06h56.29.078,bars,2023.2.3,Win32,144.9275362,657b66ea316d21385b68909f,,,,,,,,,,,3044.2742,3045.27,,,3045.77,3046.0199,,63,63,,,,,,,,,,,,,,,,bars/038.png,bars/mask005.png,,,,,,,,,,,,1,2,,,,,,,4,0,3,1,,,,,,,,,,,3045.2701,3045.77,3046.0199,3050.1945,space,4.1666,,3050.1946,78,7,3051.1937,3051.1937,3051.2044,,,,0,28,28,28,1,165,70,,,,,,,,
,,5b04bbd4b98c410001adb8db,65af54fe2cf40634cd5d7095,2024-01-23_06h56.29.078,bars,2023.2.3,Win32,144.9275362,657b66ea316d21385b68909f,,,,,,,,,,,3051.2047,3052.2009,,,3052.7007,3052.9509,,156,-24,,,,,,,,,,,,,,,,bars/020.png,bars/mask008.png,,,,,,,,,,,,1,2,,,,,,,6,2,6,1,,,,,,,,,,,3052.2011,3052.7007,3052.9509,3056.1104,space,3.1544,,3056.1105,41,14,3057.1108,3057.1108,3057.1221,,,,0,29,29,29,1,115,170,,,,,,,,
,,5b04bbd4b98c410001adb8db,65af54fe2cf40634cd5d7095,2024-01-23_06h56.29.078,bars,2023.2.3,Win32,144.9275362,657b66ea316d21385b68909f,,,,,,,,,,,3057.1223,3058.1179,,,3058.6177,3058.8676,,154,154,,,,,,,,,,,,,,,,bars/003.png,bars/mask006.png,,,,,,,,,,,,1,2,,,,,,,4,0,2,1,,,,,,,,,,,3058.1179,3058.6176,3058.8676,3063.3817,space,4.5099,,3063.3817,51,14,3064.3814,3064.3814,3064.391,,,,0,30,30,30,1,25,140,,,,,,,,
,,5b04bbd4b98c410001adb8db,65af54fe2cf40634cd5d7095,2024-01-23_06h56.29.078,bars,2023.2.3,Win32,144.9275362,657b66ea316d21385b68909f,,,,,,,,,,,3064.3912,3065.4144,,,3065.8954,3066.1454,,96,96,,,,,,,,,,,,,,,,bars/019.png,bars/mask005.png,,,,,,,,,,,,2,2,,,,,,,2,2,1,3,,,,,,,,,,,3065.4144,3065.8954,3066.1454,3071.4371,space,5.2883,,3071.4372,51,9,3072.4371,3072.4371,3072.4486,,,,0,31,31,31,1,45,105,,,,,,,,
,,5b04bbd4b98c410001adb8db,65af54fe2cf40634cd5d7095,2024-01-23_06h56.29.078,bars,2023.2.3,Win32,144.9275362,657b66ea316d21385b68909f,,,,,,,,,,,3072.4489,3073.444,,,3073.9441,3074.1941,,165,165,,,,,,,,,,,,,,,,bars/032.png,bars/mask004.png,,,,,,,,,,,,0,2,,,,,,,4,4,3,4,,,,,,,,,,,3073.444,3073.9441,3074.1942,3088.0071,space,13.8093,,3088.0071,40,35,3089.0069,3089.0069,3089.0181,,,,0,32,32,32,1,125,20,,,,,,,,
,,5b04bbd4b98c410001adb8db,65af54fe2cf40634cd5d7095,2024-01-23_06h56.29.078,bars,2023.2.3,Win32,144.9275362,657b66ea316d21385b68909f,,,,,,,,,,,3089.0183,3090.0139,,,3090.5138,3090.7639,,168,-12,,,,,,,,,,,,,,,,bars/024.png,bars/mask005.png,,,,,,,,,,,,4,2,,,,,,,6,6,4,4,,,,,,,,,,,3090.0139,3090.5138,3090.7639,3094.7364,space,3.9664,,3094.7364,48,2,3095.7362,3095.7362,3095.7467,,,,0,33,33,33,1,120,170,,,,,,,,
,,5b04bbd4b98c410001adb8db,65af54fe2cf40634cd5d7095,2024-01-23_06h56.29.078,bars,2023.2.3,Win32,144.9275362,657b66ea316d21385b68909f,,,,,,,,,,,3095.7469,3096.7431,,,3097.2431,3097.4933,,158,158,,,,,,,,,,,,,,,,bars/020.png,bars/mask006.png,,,,,,,,,,,,5,2,,,,,,,4,8,4,8,,,,,,,,,,,3096.7431,3097.2431,3097.4933,3100.278,space,2.7802,,3100.2781,43,12,3101.2779,3101.2779,3101.2878,,,,0,34,34,34,1,115,170,,,,,,,,
,,5b04bbd4b98c410001adb8db,65af54fe2cf40634cd5d7095,2024-01-23_06h56.29.078,bars,2023.2.3,Win32,144.9275362,657b66ea316d21385b68909f,,,,,,,,,,,3101.288,3102.2851,,,3102.7868,3103.0348,,34,214,,,,,,,,,,,,,,,,bars/013.png,bars/mask004.png,,,,,,,,,,,,2,2,,,,,,,2,10,1,9,,,,,,,,,,,3102.2851,3102.7868,3103.0348,3105.181,space,2.1431,,3105.181,41,24,3106.1825,3106.1825,3106.1939,,,,0,35,35,35,1,75,10,,,,,,,,
,,5b04bbd4b98c410001adb8db,65af54fe2cf40634cd5d7095,2024-01-23_06h56.29.078,bars,2023.2.3,Win32,144.9275362,657b66ea316d21385b68909f,,,,,,,,,,,3106.1941,3107.1955,,,3107.6949,3107.9449,,170,-10,,,,,,,,,,,,,,,,bars/033.png,bars/mask000.png,,,,,,,,,,,,4,2,,,,,,,4,8,3,8,,,,,,,,,,,3107.1956,3107.6948,3107.945,3113.3898,space,5.4415,,3113.3899,35,15,3114.3894,3114.3896,3114.4004,,,,0,36,36,36,1,25,155,,,,,,,,
,,5b04bbd4b98c410001adb8db,65af54fe2cf40634cd5d7095,2024-01-23_06h56.29.078,bars,2023.2.3,Win32,144.9275362,657b66ea316d21385b68909f,,,,,,,,,,,3114.4006,3115.3964,,,3115.8966,3116.147,,64,64,,,,,,,,,,,,,,,,bars/034.png,bars/mask009.png,,,,,,,,,,,,5,2,,,,,,,2,6,2,5,,,,,,,,,,,3115.3964,3115.8965,3116.147,3117.9196,space,1.7705,,3117.9197,61,1,3118.9172,3118.9173,3118.9183,,,,0,37,37,37,1,125,65,,,,,,,,
,,5b04bbd4b98c410001adb8db,65af54fe2cf40634cd5d7095,2024-01-23_06h56.29.078,bars,2023.2.3,Win32,144.9275362,657b66ea316d21385b68909f,,,,,,,,,,,3118.9185,3119.9188,,,3120.4171,3120.6674,,76,76,,,,,,,,,,,,,,,,bars/018.png,bars/mask002.png,,,,,,,,,,,,5,2,,,,,,,4,8,4,10,,,,,,,,,,,3119.9188,3120.4171,3120.6675,3124.8569,space,4.1807,,3124.8569,74,14,3125.8561,3125.8561,3125.8662,,,,0,38,38,38,1,150,90,,,,,,,,
,,5b04bbd4b98c410001adb8db,65af54fe2cf40634cd5d7095,2024-01-23_06h56.29.078,bars,2023.2.3,Win32,144.9275362,657b66ea316d21385b68909f,,,,,,,,,,,3125.8664,3126.8616,,,3127.3617,3127.612,,167,-13,,,,,,,,,,,,,,,,bars/015.png,bars/mask002.png,,,,,,,,,,,,4,2,,,,,,,2,6,2,5,,,,,,,,,,,3126.8616,3127.3617,3127.612,3130.4174,space,2.7995,,3130.4174,57,7,3131.4177,3131.4177,3131.4277,,,,0,39,39,39,1,110,160,,,,,,,,
,,5b04bbd4b98c410001adb8db,65af54fe2cf40634cd5d7095,2024-01-23_06h56.29.078,bars,2023.2.3,Win32,144.9275362,657b66ea316d21385b68909f,,,,,,,,,,,3131.4279,3132.4242,,,3132.9243,3133.1753,,81,81,,,,,,,,,,,,,,,,bars/046.png,bars/mask001.png,,,,,,,,,,,,6,2,,,,,,,4,8,2,7,,,,,,,,,,,3132.4242,3132.9242,3133.1753,3135.5017,space,2.3244,,3135.5017,74,4,3136.501,3136.5011,3136.5113,,,,0,40,40,40,1,155,85,,,,,,,,
,,5b04bbd4b98c410001adb8db,65af54fe2cf40634cd5d7095,2024-01-23_06h56.29.078,bars,2023.2.3,Win32,144.9275362,657b66ea316d21385b68909f,,,,,,,,,,,3136.5115,3137.5079,,,3138.0082,3138.2581,,76,76,,,,,,,,,,,,,,,,bars/041.png,bars/mask004.png,,,,,,,,,,,,7,2,,,,,,,6,10,5,10,,,,,,,,,,,3137.5079,3138.0081,3138.2581,3150.9127,space,12.6526,,3150.9127,56,9,3151.9129,3151.913,3151.9239,,,,0,41,41,41,1,20,85,,,,,,,,
,,5b04bbd4b98c410001adb8db,65af54fe2cf40634cd5d7095,2024-01-23_06h56.29.078,bars,2023.2.3,Win32,144.9275362,657b66ea316d21385b68909f,,,,,,,,,,,3151.9241,3152.9245,,,3153.4247,3153.6746,,18,18,,,,,,,,,,,,,,,,bars/022.png,bars/mask004.png,,,,,,,,,,,,9,2,,,,,,,8,8,8,10,,,,,,,,,,,3152.9246,3153.4247,3153.6746,3158.4879,space,4.8053,,3158.488,77,2,3159.4873,3159.4874,3159.4968,,,,0,42,42,42,1,95,20,,,,,,,,
,,5b04bbd4b98c410001adb8db,65af54fe2cf40634cd5d7095,2024-01-23_06h56.29.078,bars,2023.2.3,Win32,144.9275362,657b66ea316d21385b68909f,,,,,,,,,,,3159.497,3160.4943,,,3160.9945,3161.2458,,104,104,,,,,,,,,,,,,,,,bars/042.png,bars/mask002.png,,,,,,,,,,,,0,2,,,,,,,10,6,10,6,,,,,,,,,,,3160.4943,3160.9945,3161.2459,3170.668,space,9.4196,,3170.668,41,29,3171.6679,3171.6679,3171.6788,,,,0,43,43,43,1,145,75,,,,,,,,
,,5b04bbd4b98c410001adb8db,65af54fe2cf40634cd5d7095,2024-01-23_06h56.29.078,bars,2023.2.3,Win32,144.9275362,657b66ea316d21385b68909f,,,,,,,,,,,3171.6791,3172.675,,,3173.1753,3173.4252,,18,198,,,,,,,,,,,,,,,,bars/015.png,bars/mask007.png,,,,,,,,,,,,0,2,,,,,,,8,4,10,5,,,,,,,,,,,3172.675,3173.1753,3173.4252,3177.6548,space,4.226,,3177.6548,88,38,3178.6548,3178.6549,3178.6654,,,,0,44,44,44,1,110,160,,,,,,,,
,,5b04bbd4b98c410001adb8db,65af54fe2cf40634cd5d7095,2024-01-23_06h56.29.078,bars,2023.2.3,Win32,144.9275362,657b66ea316d21385b68909f,,,,,,,,,,,3178.6657,3179.6611,,,3180.1619,3180.4113,,175,175,,,,,,,,,,,,,,,,bars/044.png,bars/mask007.png,,,,,,,,,,,,1,2,,,,,,,6,2,7,2,,,,,,,,,,,3179.6611,3180.1619,3180.4114,3185.2133,space,4.7995,,3185.2133,80,20,3186.2122,3186.2122,3186.2218,,,,0,45,45,45,1,75,155,,,,,,,,
,,5b04bbd4b98c410001adb8db,65af54fe2cf40634cd5d7095,2024-01-23_06h56.29.078,bars,2023.2.3,Win32,144.9275362,657b66ea316d21385b68909f,,,,,,,,,,,3186.222,3187.2173,,,3187.7171,3187.967,,89,89,,,,,,,,,,,,,,,,bars/037.png,bars/mask007.png,,,,,,,,,,,,0,2,,,,,,,4,0,5,0,,,,,,,,,,,3187.2173,3187.7171,3187.9671,3191.1686,space,3.1948,,3191.1686,61,16,3192.1682,3192.1683,3192.1787,,,,0,46,46,46,1,150,105,,,,,,,,
,,5b04bbd4b98c410001adb8db,65af54fe2cf40634cd5d7095,2024-01-23_06h56.29.078,bars,2023.2.3,Win32,144.9275362,657b66ea316d21385b68909f,,,,,,,,,,,3192.1789,3193.1768,,,3193.677,3193.9277,,83,83,,,,,,,,,,,,,,,,bars/044.png,bars/mask005.png,,,,,,,,,,,,1,1,,,,,,,2,2,2,2,,,,,,,,,,,3193.1768,3193.677,3193.9277,3198.9535,space,5.0173,,3198.9535,8,72,3199.9531,3199.9531,3199.9654,,,,0,47,47,47,1,75,155,,,,,,,,
,,5b04bbd4b98c410001adb8db,65af54fe2cf40634cd5d7095,2024-01-23_06h56.29.078,bars,2023.2.3,Win32,144.9275362,657b66ea316d21385b68909f,,,,,,,,,,,3199.9656,3200.9672,,,3201.4671,3201.717,,58,58,,,,,,,,,,,,,,,,bars/017.png,bars/mask004.png,,,,,,,,,,,,3,2,,,,,,,0,4,1,5,,,,,,,,,,,3200.9672,3201.467,3201.717,3206.3214,space,4.5983,,3206.3215,87,13,3207.3216,3207.3216,3207.3316,,,,0,48,48,48,1,145,45,,,,,,,,
,,5b04bbd4b98c410001adb8db,65af54fe2cf40634cd5d7095,2024-01-23_06h56.29.078,bars,2023.2.3,Win32,144.9275362,657b66ea316d21385b68909f,,,,,,,,,,,3207.3317,3208.3283,,,3208.8286,3209.0794,,79,259,,,,,,,,,,,,,,,,bars/029.png,bars/mask004.png,,,,,,,,,,,,2,1,,,,,,,2,2,3,2,,,,,,,,,,,3208.3283,3208.8286,3209.0794,3216.1773,space,7.0931,,3216.1773,11,34,3217.1763,3217.1764,3217.1902,,,,0,49,49,49,1,90,45,,,,,,,,
,,5b04bbd4b98c410001adb8db,65af54fe2cf40634cd5d7095,2024-01-23_06h56.29.078,bars,2023.2.3,Win32,144.9275362,657b66ea316d21385b68909f,,,,,,,,,,,,,,,,,,,,,,,,,,,,,,,,,,,,,,,,,,,,,,,,,,,,,,,,,,,,,,,,,,,,,,,,,,,,,,,,,,,,,,,,,,,,,3217.1904,3277.1858,0,2,2,3,1,sequence_tables/blk028.csv
,,5b04bbd4b98c410001adb8db,65af54fe2cf40634cd5d7095,2024-01-23_06h56.29.078,bars,2023.2.3,Win32,144.9275362,657b66ea316d21385b68909f,,,,,,,,,,,3281.1064,3282.1075,,,3282.6008,3282.8504,,149,149,,,,,,,,,,,,,,,,bars/028.png,bars/mask008.png,,,,,,,,,,,,0,2,,,,,,,9,4,9,4,,,,,,3277.1969,3281.1005,space,3.8985,,3282.1076,3282.6006,3282.8505,3287.5177,space,4.6641,,3287.5177,76,29,3288.5175,3288.5175,3288.5284,,,,0,0,0,0,1,45,120,,,,,,,,
,,5b04bbd4b98c410001adb8db,65af54fe2cf40634cd5d7095,2024-01-23_06h56.29.078,bars,2023.2.3,Win32,144.9275362,657b66ea316d21385b68909f,,,,,,,,,,,3288.5286,3289.5247,,,3290.0245,3290.2754,,56,56,,,,,,,,,,,,,,,,bars/034.png,bars/mask000.png,,,,,,,,,,,,0,2,,,,,,,7,2,7,0,,,,,,,,,,,3289.5248,3290.0244,3290.2754,3292.4689,space,2.1902,,3292.469,69,9,3293.4689,3293.4689,3293.4791,,,,0,1,1,1,1,125,65,,,,,,,,
,,5b04bbd4b98c410001adb8db,65af54fe2cf40634cd5d7095,2024-01-23_06h56.29.078,bars,2023.2.3,Win32,144.9275362,657b66ea316d21385b68909f,,,,,,,,,,,3293.4793,3294.4761,,,3294.9764,3295.2265,,175,-5,,,,,,,,,,,,,,,,bars/012.png,bars/mask005.png,,,,,,,,,,,,0,2,,,,,,,9,0,8,1,,,,,,,,,,,3294.4761,3294.9764,3295.2265,3299.2771,space,4.0484,,3299.2772,85,20,3300.2767,3300.2767,3300.2864,,,,0,2,2,2,1,90,15,,,,,,,,
,,5b04bbd4b98c410001adb8db,65af54fe2cf40634cd5d7095,2024-01-23_06h56.29.078,bars,2023.2.3,Win32,144.9275362,657b66ea316d21385b68909f,,,,,,,,,,,3300.2866,3301.2885,,,3301.7883,3302.0384,,80,80,,,,,,,,,,,,,,,,bars/018.png,bars/mask003.png,,,,,,,,,,,,1,2,,,,,,,7,2,8,2,,,,,,,,,,,3301.2885,3301.7883,3302.0384,3305.3439,space,3.2993,,3305.3439,70,10,3306.344,3306.3441,3306.3542,,,,0,3,3,3,1,150,90,,,,,,,,
,,5b04bbd4b98c410001adb8db,65af54fe2cf40634cd5d7095,2024-01-23_06h56.29.078,bars,2023.2.3,Win32,144.9275362,657b66ea316d21385b68909f,,,,,,,,,,,3306.3544,3307.3508,,,3307.8513,3308.1012,,13,193,,,,,,,,,,,,,,,,bars/003.png,bars/mask005.png,,,,,,,,,,,,5,1,,,,,,,9,4,9,4,,,,,,,,,,,3307.3508,3307.8513,3308.1013,3316.7842,space,8.6742,,3316.7843,12,53,3317.7821,3317.7821,3317.7935,,,,0,4,4,4,1,25,140,,,,,,,,
,,5b04bbd4b98c410001adb8db,65af54fe2cf40634cd5d7095,2024-01-23_06h56.29.078,bars,2023.2.3,Win32,144.9275362,657b66ea316d21385b68909f,,,,,,,,,,,3317.7937,3318.7885,,,3319.2886,3319.5387,,6,186,,,,,,,,,,,,,,,,bars/037.png,bars/mask007.png,,,,,,,,,,,,0,1,,,,,,,10,6,10,6,,,,,,,,,,,3318.7885,3319.2885,3319.5387,3358.5488,space,39.0082,,3358.5488,36,81,3359.5464,3359.5464,3359.5575,,,,0,5,5,5,1,150,105,,,,,,,,
,,5b04bbd4b98c410001adb8db,65af54fe2cf40634cd5d7095,2024-01-23_06h56.29.078,bars,2023.2.3,Win32,144.9275362,657b66ea316d21385b68909f,,,,,,,,,,,3359.5577,3360.5533,,,3361.0535,3361.3033,,22,22,,,,,,,,,,,,,,,,bars/022.png,bars/mask005.png,,,,,,,,,,,,6,2,,,,,,,8,4,9,6,,,,,,,,,,,3360.5533,3361.0535,3361.3035,3366.0054,space,4.6983,,3366.0054,73,2,3367.005,3367.005,3367.0166,,,,0,6,6,6,1,95,20,,,,,,,,
,,5b04bbd4b98c410001adb8db,65af54fe2cf40634cd5d7095,2024-01-23_06h56.29.078,bars,2023.2.3,Win32,144.9275362,657b66ea316d21385b68909f,,,,,,,,,,,3367.0168,3368.0188,,,3368.5187,3368.7688,,163,163,,,,,,,,,,,,,,,,bars/020.png,bars/mask002.png,,,,,,,,,,,,2,2,,,,,,,10,2,10,2,,,,,,,,,,,3368.0189,3368.5187,3368.7688,3375.2483,space,6.4722,,3375.2484,48,7,3376.2482,3376.2487,3376.2622,,,,0,7,7,7,1,115,170,,,,,,,,
,,5b04bbd4b98c410001adb8db,65af54fe2cf40634cd5d7095,2024-01-23_06h56.29.078,bars,2023.2.3,Win32,144.9275362,657b66ea316d21385b68909f,,,,,,,,,,,3376.2628,3377.2628,,,3377.7653,3378.0118,,162,-18,,,,,,,,,,,,,,,,bars/043.png,bars/mask006.png,,,,,,,,,,,,0,2,,,,,,,10,4,10,4,,,,,,,,,,,3377.2629,3377.7653,3378.0118,3382.047,space,4.0227,,3382.047,48,32,3383.0469,3383.047,3383.0579,,,,0,8,8,8,1,30,130,,,,,,,,
,,5b04bbd4b98c410001adb8db,65af54fe2cf40634cd5d7095,2024-01-23_06h56.29.078,bars,2023.2.3,Win32,144.9275362,657b66ea316d21385b68909f,,,,,,,,,,,3383.058,3384.0536,,,3384.554,3384.8036,,166,-14,,,,,,,,,,,,,,,,bars/039.png,bars/mask001.png,,,,,,,,,,,,4,1,,,,,,,8,6,6,5,,,,,,,,,,,3384.0536,3384.5539,3384.8037,3403.4219,space,18.6135,,3403.422,9,61,3404.422,3404.4221,3404.4332,,,,0,9,9,9,1,175,105,,,,,,,,
,,5b04bbd4b98c410001adb8db,65af54fe2cf40634cd5d7095,2024-01-23_06h56.29.078,bars,2023.2.3,Win32,144.9275362,657b66ea316d21385b68909f,,,,,,,,,,,3404.4334,3405.4295,,,3405.929,3406.1798,,48,48,,,,,,,,,,,,,,,,bars/022.png,bars/mask004.png,,,,,,,,,,,,0,2,,,,,,,6,4,6,5,,,,,,,,,,,3405.4295,3405.9289,3406.1798,3409.1669,space,2.9849,,3409.1669,47,28,3410.1652,3410.1652,3410.1778,,,,0,10,10,10,1,95,20,,,,,,,,
,,5b04bbd4b98c410001adb8db,65af54fe2cf40634cd5d7095,2024-01-23_06h56.29.078,bars,2023.2.3,Win32,144.9275362,657b66ea316d21385b68909f,,,,,,,,,,,3410.1781,3411.1793,,,3411.6794,3411.9292,,31,31,,,,,,,,,,,,,,,,bars/007.png,bars/mask006.png,,,,,,,,,,,,0,2,,,,,,,4,2,3,2,,,,,,,,,,,3411.1793,3411.6794,3411.9293,3417.2697,space,5.3356,,3417.2698,36,24,3418.2695,3418.2695,3418.2797,,,,0,11,11,11,1,175,55,,,,,,,,
,,5b04bbd4b98c410001adb8db,65af54fe2cf40634cd5d7095,2024-01-23_06h56.29.078,bars,2023.2.3,Win32,144.9275362,657b66ea316d21385b68909f,,,,,,,,,,,3418.2799,3419.2767,,,3419.7765,3420.0285,,92,92,,,,,,,,,,,,,,,,bars/043.png,bars/mask005.png,,,,,,,,,,,,0,2,,,,,,,2,0,3,2,,,,,,,,,,,3419.2768,3419.7764,3420.0285,3478.4797,space,58.4421,,3478.4797,62,38,3479.4791,3479.4791,3479.4893,,,,0,12,12,12,1,30,130,,,,,,,,
,,5b04bbd4b98c410001adb8db,65af54fe2cf40634cd5d7095,2024-01-23_06h56.29.078,bars,2023.2.3,Win32,144.9275362,657b66ea316d21385b68909f,,,,,,,,,,,3479.4895,3480.4863,,,3480.9868,3481.236,,61,61,,,,,,,,,,,,,,,,bars/039.png,bars/mask007.png,,,,,,,,,,,,0,2,,,,,,,4,0,4,0,,,,,,,,,,,3480.4864,3480.9868,3481.236,3485.0277,space,3.7854,,3485.0277,66,44,3486.0275,3486.0275,3486.037,,,,0,13,13,13,1,175,105,,,,,,,,
,,5b04bbd4b98c410001adb8db,65af54fe2cf40634cd5d7095,2024-01-23_06h56.29.078,bars,2023.2.3,Win32,144.9275362,657b66ea316d21385b68909f,,,,,,,,,,,3486.0375,3487.0346,,,3487.5346,3487.7862,,103,103,,,,,,,,,,,,,,,,bars/004.png,bars/mask009.png,,,,,,,,,,,,1,2,,,,,,,6,2,5,2,,,,,,,,,,,3487.0346,3487.5346,3487.7862,3491.8403,space,4.0462,,3491.8403,78,22,3492.8403,3492.8403,3492.8499,,,,0,14,14,14,1,25,125,,,,,,,,
,,5b04bbd4b98c410001adb8db,65af54fe2cf40634cd5d7095,2024-01-23_06h56.29.078,bars,2023.2.3,Win32,144.9275362,657b66ea316d21385b68909f,,,,,,,,,,,3492.8501,3493.8476,,,3494.3472,3494.5987,,94,94,,,,,,,,,,,,,,,,bars/049.png,bars/mask004.png,,,,,,,,,,,,2,2,,,,,,,8,4,10,6,,,,,,,,,,,3493.8476,3494.3471,3494.5987,3497.9377,space,3.3326,,3497.9378,66,21,3498.9377,3498.9377,3498.9486,,,,0,15,15,15,1,160,115,,,,,,,,
,,5b04bbd4b98c410001adb8db,65af54fe2cf40634cd5d7095,2024-01-23_06h56.29.078,bars,2023.2.3,Win32,144.9275362,657b66ea316d21385b68909f,,,,,,,,,,,3498.9488,3499.9445,,,3500.4445,3500.6944,,58,58,,,,,,,,,,,,,,,,bars/034.png,bars/mask002.png,,,,,,,,,,,,5,2,,,,,,,10,6,10,7,,,,,,,,,,,3499.9445,3500.4445,3500.6944,3504.1115,space,3.4112,,3504.1115,67,7,3505.1113,3505.1114,3505.1218,,,,0,16,16,16,1,125,65,,,,,,,,
,,5b04bbd4b98c410001adb8db,65af54fe2cf40634cd5d7095,2024-01-23_06h56.29.078,bars,2023.2.3,Win32,144.9275362,657b66ea316d21385b68909f,,,,,,,,,,,3505.1219,3506.1204,,,3506.6182,3506.8683,,92,92,,,,,,,,,,,,,,,,bars/011.png,bars/mask000.png,,,,,,,,,,,,4,2,,,,,,,8,4,8,5,,,,,,,,,,,3506.1204,3506.6182,3506.8683,3511.0438,space,4.1738,,3511.0438,68,7,3512.042,3512.042,3512.0542,,,,0,17,17,17,1,160,85,,,,,,,,
,,5b04bbd4b98c410001adb8db,65af54fe2cf40634cd5d7095,2024-01-23_06h56.29.078,bars,2023.2.3,Win32,144.9275362,657b66ea316d21385b68909f,,,,,,,,,,,3512.0545,3513.0556,,,3513.5558,3513.806,,11,191,,,,,,,,,,,,,,,,bars/012.png,bars/mask004.png,,,,,,,,,,,,5,2,,,,,,,6,6,5,6,,,,,,,,,,,3513.0558,3513.5557,3513.806,3518.3621,space,4.5481,,3518.3621,79,4,3519.3619,3519.3619,3519.3726,,,,0,18,18,18,1,90,15,,,,,,,,
,,5b04bbd4b98c410001adb8db,65af54fe2cf40634cd5d7095,2024-01-23_06h56.29.078,bars,2023.2.3,Win32,144.9275362,657b66ea316d21385b68909f,,,,,,,,,,,3519.3728,3520.3684,,,3520.8688,3521.1209,,34,34,,,,,,,,,,,,,,,,bars/007.png,bars/mask005.png,,,,,,,,,,,,2,2,,,,,,,8,8,8,8,,,,,,,,,,,3520.3685,3520.8688,3521.1209,3523.4276,space,2.3006,,3523.4276,39,21,3524.4257,3524.4257,3524.4353,,,,0,19,19,19,1,175,55,,,,,,,,
,,5b04bbd4b98c410001adb8db,65af54fe2cf40634cd5d7095,2024-01-23_06h56.29.078,bars,2023.2.3,Win32,144.9275362,657b66ea316d21385b68909f,,,,,,,,,,,3524.4355,3525.433,,,3525.9311,3526.1831,,103,103,,,,,,,,,,,,,,,,bars/037.png,bars/mask004.png,,,,,,,,,,,,5,2,,,,,,,10,6,10,5,,,,,,,,,,,3525.4331,3525.9311,3526.1831,3528.9114,space,2.7176,,3528.9114,47,2,3529.9111,3529.9113,3529.9208,,,,0,20,20,20,1,150,105,,,,,,,,
,,5b04bbd4b98c410001adb8db,65af54fe2cf40634cd5d7095,2024-01-23_06h56.29.078,bars,2023.2.3,Win32,144.9275362,657b66ea316d21385b68909f,,,,,,,,,,,3529.9209,3530.9176,,,3531.4189,3531.6676,,54,54,,,,,,,,,,,,,,,,bars/030.png,bars/mask003.png,,,,,,,,,,,,5,2,,,,,,,8,8,8,8,,,,,,,,,,,3530.9176,3531.4189,3531.6676,3532.973,space,1.2957,,3532.973,86,11,3533.9683,3533.9684,3533.9787,,,,0,21,21,21,1,140,65,,,,,,,,
,,5b04bbd4b98c410001adb8db,65af54fe2cf40634cd5d7095,2024-01-23_06h56.29.078,bars,2023.2.3,Win32,144.9275362,657b66ea316d21385b68909f,,,,,,,,,,,3533.9789,3534.9797,,,3535.4798,3535.7297,,42,42,,,,,,,,,,,,,,,,bars/010.png,bars/mask000.png,,,,,,,,,,,,6,2,,,,,,,6,10,4,10,,,,,,,,,,,3534.9798,3535.4798,3535.7297,3538.5012,space,2.7689,,3538.5012,57,13,3539.5011,3539.5012,3539.512,,,,0,22,22,22,1,165,55,,,,,,,,
,,5b04bbd4b98c410001adb8db,65af54fe2cf40634cd5d7095,2024-01-23_06h56.29.078,bars,2023.2.3,Win32,144.9275362,657b66ea316d21385b68909f,,,,,,,,,,,3539.5121,3540.5082,,,3541.0082,3541.2579,,159,-21,,,,,,,,,,,,,,,,bars/033.png,bars/mask008.png,,,,,,,,,,,,8,2,,,,,,,4,10,4,9,,,,,,,,,,,3540.5083,3541.0082,3541.2579,3545.932,space,4.6707,,3545.932,46,4,3546.9316,3546.9316,3546.9427,,,,0,23,23,23,1,25,155,,,,,,,,
,,5b04bbd4b98c410001adb8db,65af54fe2cf40634cd5d7095,2024-01-23_06h56.29.078,bars,2023.2.3,Win32,144.9275362,657b66ea316d21385b68909f,,,,,,,,,,,3546.9432,3547.9383,,,3548.4385,3548.6883,,156,516,,,,,,,,,,,,,,,,bars/046.png,bars/mask002.png,,,,,,,,,,,,7,1,,,,,,,6,8,7,8,,,,,,,,,,,3547.9384,3548.4383,3548.6883,3562.8489,space,14.1525,,3562.849,1,71,3563.849,3563.8492,3563.8604,,,,0,24,24,24,1,155,85,,,,,,,,
,,5b04bbd4b98c410001adb8db,65af54fe2cf40634cd5d7095,2024-01-23_06h56.29.078,bars,2023.2.3,Win32,144.9275362,657b66ea316d21385b68909f,,,,,,,,,,,3563.8606,3564.8625,,,3565.3626,3565.6127,,175,-5,,,,,,,,,,,,,,,,bars/045.png,bars/mask000.png,,,,,,,,,,,,2,2,,,,,,,8,6,9,4,,,,,,,,,,,3564.8625,3565.3626,3565.6127,3569.2443,space,3.628,,3569.2444,75,15,3570.2447,3570.2447,3570.259,,,,0,25,25,25,1,100,10,,,,,,,,
,,5b04bbd4b98c410001adb8db,65af54fe2cf40634cd5d7095,2024-01-23_06h56.29.078,bars,2023.2.3,Win32,144.9275362,657b66ea316d21385b68909f,,,,,,,,,,,3570.2592,3571.2585,,,3571.7586,3572.0082,,37,217,,,,,,,,,,,,,,,,bars/022.png,bars/mask008.png,,,,,,,,,,,,2,2,,,,,,,10,4,10,5,,,,,,,,,,,3571.2585,3571.7586,3572.0082,3575.0294,space,3.0175,,3575.0295,58,17,3576.0291,3576.0291,3576.0384,,,,0,26,26,26,1,95,20,,,,,,,,
,,5b04bbd4b98c410001adb8db,65af54fe2cf40634cd5d7095,2024-01-23_06h56.29.078,bars,2023.2.3,Win32,144.9275362,657b66ea316d21385b68909f,,,,,,,,,,,3576.0386,3577.0365,,,3577.5378,3577.7866,,17,17,,,,,,,,,,,,,,,,bars/031.png,bars/mask006.png,,,,,,,,,,,,2,2,,,,,,,8,6,9,5,,,,,,,,,,,3577.0365,3577.5377,3577.7869,3581.231,space,3.4334,,3581.231,77,18,3582.231,3582.231,3582.2425,,,,0,27,27,27,1,120,35,,,,,,,,
,,5b04bbd4b98c410001adb8db,65af54fe2cf40634cd5d7095,2024-01-23_06h56.29.078,bars,2023.2.3,Win32,144.9275362,657b66ea316d21385b68909f,,,,,,,,,,,3582.2428,3583.2444,,,3583.7447,3583.9947,,75,75,,,,,,,,,,,,,,,,bars/038.png,bars/mask009.png,,,,,,,,,,,,8,2,,,,,,,10,8,10,10,,,,,,,,,,,3583.2445,3583.7446,3583.9947,3586.9322,space,2.9344,,3586.9322,90,5,3587.9323,3587.9323,3587.9428,,,,0,28,28,28,1,165,70,,,,,,,,
,,5b04bbd4b98c410001adb8db,65af54fe2cf40634cd5d7095,2024-01-23_06h56.29.078,bars,2023.2.3,Win32,144.9275362,657b66ea316d21385b68909f,,,,,,,,,,,3587.943,3588.9395,,,3589.4391,3589.6893,,104,-76,,,,,,,,,,,,,,,,bars/036.png,bars/mask003.png,,,,,,,,,,,,0,1,,,,,,,8,6,10,6,,,,,,,,,,,3588.9395,3589.4391,3589.6893,3596.4624,space,6.7665,,3596.4625,41,84,3597.4622,3597.4622,3597.4747,,,,0,29,29,29,1,145,20,,,,,,,,
,,5b04bbd4b98c410001adb8db,65af54fe2cf40634cd5d7095,2024-01-23_06h56.29.078,bars,2023.2.3,Win32,144.9275362,657b66ea316d21385b68909f,,,,,,,,,,,3597.475,3598.474,,,3598.974,3599.2258,,6,186,,,,,,,,,,,,,,,,bars/008.png,bars/mask001.png,,,,,,,,,,,,7,2,,,,,,,6,8,7,9,,,,,,,,,,,3598.4741,3598.974,3599.226,3615.5091,space,16.2741,,3615.5093,76,6,3616.5094,3616.5094,3616.5206,,,,0,30,30,30,1,110,0,,,,,,,,
,,5b04bbd4b98c410001adb8db,65af54fe2cf40634cd5d7095,2024-01-23_06h56.29.078,bars,2023.2.3,Win32,144.9275362,657b66ea316d21385b68909f,,,,,,,,,,,3616.5207,3617.5161,,,3618.0161,3618.2658,,22,202,,,,,,,,,,,,,,,,bars/012.png,bars/mask001.png,,,,,,,,,,,,5,2,,,,,,,4,6,3,6,,,,,,,,,,,3617.5162,3618.0161,3618.2658,3623.2732,space,5.0026,,3623.2732,68,7,3624.273,3624.2731,3624.2846,,,,0,31,31,31,1,90,15,,,,,,,,
,,5b04bbd4b98c410001adb8db,65af54fe2cf40634cd5d7095,2024-01-23_06h56.29.078,bars,2023.2.3,Win32,144.9275362,657b66ea316d21385b68909f,,,,,,,,,,,3624.2848,3625.2801,,,3625.7801,3626.0301,,152,152,,,,,,,,,,,,,,,,bars/043.png,bars/mask001.png,,,,,,,,,,,,1,2,,,,,,,6,4,5,3,,,,,,,,,,,3625.2803,3625.7801,3626.0301,3627.5235,space,1.49,,3627.5236,58,22,3628.5231,3628.5232,3628.5238,,,,0,32,32,32,1,30,130,,,,,,,,
,,5b04bbd4b98c410001adb8db,65af54fe2cf40634cd5d7095,2024-01-23_06h56.29.078,bars,2023.2.3,Win32,144.9275362,657b66ea316d21385b68909f,,,,,,,,,,,3628.5241,3629.5231,,,3630.023,3630.273,,10,10,,,,,,,,,,,,,,,,bars/016.png,bars/mask003.png,,,,,,,,,,,,0,2,,,,,,,8,2,10,2,,,,,,,,,,,3629.5232,3630.023,3630.2731,3632.9748,space,2.6986,,3632.9749,30,25,3633.9746,3633.9747,3633.9846,,,,0,33,33,33,1,40,165,,,,,,,,
,,5b04bbd4b98c410001adb8db,65af54fe2cf40634cd5d7095,2024-01-23_06h56.29.078,bars,2023.2.3,Win32,144.9275362,657b66ea316d21385b68909f,,,,,,,,,,,3633.9848,3634.9817,,,3635.482,3635.7319,,175,175,,,,,,,,,,,,,,,,bars/004.png,bars/mask004.png,,,,,,,,,,,,0,1,,,,,,,6,0,6,0,,,,,,,,,,,3634.9818,3635.4819,3635.732,3650.6646,space,14.9248,,3650.6647,30,50,3651.6623,3651.6624,3651.6748,,,,0,34,34,34,1,25,125,,,,,,,,
,,5b04bbd4b98c410001adb8db,65af54fe2cf40634cd5d7095,2024-01-23_06h56.29.078,bars,2023.2.3,Win32,144.9275362,657b66ea316d21385b68909f,,,,,,,,,,,3651.6749,3652.6762,,,3653.1764,3653.4263,,94,94,,,,,,,,,,,,,,,,bars/006.png,bars/mask000.png,,,,,,,,,,,,0,2,,,,,,,4,0,1,0,,,,,,,,,,,3652.6762,3653.1763,3653.4263,3657.2741,space,3.8394,,3657.2744,59,6,3658.2736,3658.2736,3658.2838,,,,0,35,35,35,1,35,100,,,,,,,,
,,5b04bbd4b98c410001adb8db,65af54fe2cf40634cd5d7095,2024-01-23_06h56.29.078,bars,2023.2.3,Win32,144.9275362,657b66ea316d21385b68909f,,,,,,,,,,,3658.2841,3659.2805,,,3659.7808,3660.0307,,36,36,,,,,,,,,,,,,,,,bars/031.png,bars/mask001.png,,,,,,,,,,,,3,2,,,,,,,6,2,6,3,,,,,,,,,,,3659.2806,3659.7807,3660.0307,3662.8025,space,2.7659,,3662.8025,84,1,3663.8015,3663.8015,3663.8111,,,,0,36,36,36,1,120,35,,,,,,,,
,,5b04bbd4b98c410001adb8db,65af54fe2cf40634cd5d7095,2024-01-23_06h56.29.078,bars,2023.2.3,Win32,144.9275362,657b66ea316d21385b68909f,,,,,,,,,,,3663.8113,3664.8084,,,3665.3085,3665.5585,,10,190,,,,,,,,,,,,,,,,bars/045.png,bars/mask001.png,,,,,,,,,,,,1,2,,,,,,,4,0,5,1,,,,,,,,,,,3664.8084,3665.3085,3665.5585,3678.4623,space,12.8923,,3678.4623,90,0,3679.4622,3679.4623,3679.4748,,,,0,37,37,37,1,100,10,,,,,,,,
,,5b04bbd4b98c410001adb8db,65af54fe2cf40634cd5d7095,2024-01-23_06h56.29.078,bars,2023.2.3,Win32,144.9275362,657b66ea316d21385b68909f,,,,,,,,,,,3679.4757,3680.4754,,,3680.9754,3681.2253,,175,175,,,,,,,,,,,,,,,,bars/048.png,bars/mask001.png,,,,,,,,,,,,0,2,,,,,,,2,0,1,0,,,,,,,,,,,3680.4754,3680.9754,3681.2254,3683.6772,space,2.4484,,3683.6773,55,0,3684.6771,3684.6771,3684.6863,,,,0,38,38,38,1,50,175,,,,,,,,
,,5b04bbd4b98c410001adb8db,65af54fe2cf40634cd5d7095,2024-01-23_06h56.29.078,bars,2023.2.3,Win32,144.9275362,657b66ea316d21385b68909f,,,,,,,,,,,3684.6865,3685.6856,,,3686.1844,3686.4292,,74,74,,,,,,,,,,,,,,,,bars/017.png,bars/mask004.png,,,,,,,,,,,,0,2,,,,,,,0,2,0,2,,,,,,,,,,,3685.6856,3686.1843,3686.4292,3691.3022,space,4.8689,,3691.3022,71,29,3692.3022,3692.3022,3692.3127,,,,0,39,39,39,1,145,45,,,,,,,,
,,5b04bbd4b98c410001adb8db,65af54fe2cf40634cd5d7095,2024-01-23_06h56.29.078,bars,2023.2.3,Win32,144.9275362,657b66ea316d21385b68909f,,,,,,,,,,,3692.3129,3693.3088,,,3693.8093,3694.059,,172,172,,,,,,,,,,,,,,,,bars/045.png,bars/mask002.png,,,,,,,,,,,,1,2,,,,,,,0,0,1,2,,,,,,,,,,,3693.3088,3693.8093,3694.059,3697.6151,space,3.5516,,3697.6152,72,18,3698.6161,3698.6161,3698.6255,,,,0,40,40,40,1,100,10,,,,,,,,
,,5b04bbd4b98c410001adb8db,65af54fe2cf40634cd5d7095,2024-01-23_06h56.29.078,bars,2023.2.3,Win32,144.9275362,657b66ea316d21385b68909f,,,,,,,,,,,3698.6257,3699.6217,,,3700.1216,3700.3715,,95,95,,,,,,,,,,,,,,,,bars/023.png,bars/mask009.png,,,,,,,,,,,,0,2,,,,,,,0,0,0,0,,,,,,,,,,,3699.6218,3700.1216,3700.3716,3704.3513,space,3.9747,,3704.3514,75,20,3705.351,3705.3511,3705.3616,,,,0,41,41,41,1,20,115,,,,,,,,
,,5b04bbd4b98c410001adb8db,65af54fe2cf40634cd5d7095,2024-01-23_06h56.29.078,bars,2023.2.3,Win32,144.9275362,657b66ea316d21385b68909f,,,,,,,,,,,3705.3619,3706.3578,,,3706.8579,3707.1079,,17,197,,,,,,,,,,,,,,,,bars/014.png,bars/mask005.png,,,,,,,,,,,,0,2,,,,,,,2,0,1,1,,,,,,,,,,,3706.3579,3706.8578,3707.1079,3711.9713,space,4.8543,,3711.9713,63,17,3712.9693,3712.9694,3712.9796,,,,0,42,42,42,1,80,0,,,,,,,,
,,5b04bbd4b98c410001adb8db,65af54fe2cf40634cd5d7095,2024-01-23_06h56.29.078,bars,2023.2.3,Win32,144.9275362,657b66ea316d21385b68909f,,,,,,,,,,,3712.9798,3713.9759,,,3714.4762,3714.726,,177,-3,,,,,,,,,,,,,,,,bars/014.png,bars/mask003.png,,,,,,,,,,,,0,2,,,,,,,0,0,0,0,,,,,,,,,,,3713.9759,3714.4762,3714.726,3716.2497,space,1.5148,,3716.2498,83,3,3717.247,3717.247,3717.2483,,,,0,43,43,43,1,80,0,,,,,,,,
,,5b04bbd4b98c410001adb8db,65af54fe2cf40634cd5d7095,2024-01-23_06h56.29.078,bars,2023.2.3,Win32,144.9275362,657b66ea316d21385b68909f,,,,,,,,,,,3717.2486,3718.2476,,,3718.7467,3718.9969,,179,179,,,,,,,,,,,,,,,,bars/023.png,bars/mask006.png,,,,,,,,,,,,1,1,,,,,,,2,0,2,1,,,,,,,,,,,3718.2476,3718.7467,3718.9969,3724.2143,space,5.2156,,3724.2144,21,64,3725.2123,3725.2123,3725.2233,,,,0,44,44,44,1,20,115,,,,,,,,
,,5b04bbd4b98c410001adb8db,65af54fe2cf40634cd5d7095,2024-01-23_06h56.29.078,bars,2023.2.3,Win32,144.9275362,657b66ea316d21385b68909f,,,,,,,,,,,3725.2235,3726.2192,,,3726.7192,3726.9693,,67,67,,,,,,,,,,,,,,,,bars/007.png,bars/mask008.png,,,,,,,,,,,,1,2,,,,,,,4,2,4,2,,,,,,,,,,,3726.2193,3726.7192,3726.9693,3728.7961,space,1.8237,,3728.7961,72,12,3729.7957,3729.7957,3729.808,,,,0,45,45,45,1,175,55,,,,,,,,
,,5b04bbd4b98c410001adb8db,65af54fe2cf40634cd5d7095,2024-01-23_06h56.29.078,bars,2023.2.3,Win32,144.9275362,657b66ea316d21385b68909f,,,,,,,,,,,3729.8083,3730.8095,,,3731.3097,3731.5598,,71,71,,,,,,,,,,,,,,,,bars/021.png,bars/mask002.png,,,,,,,,,,,,4,2,,,,,,,2,4,2,4,,,,,,,,,,,3730.8095,3731.3097,3731.5599,3739.8861,space,8.3214,,3739.8861,84,1,3740.8863,3740.8863,3740.8966,,,,0,46,46,46,1,155,70,,,,,,,,
,,5b04bbd4b98c410001adb8db,65af54fe2cf40634cd5d7095,2024-01-23_06h56.29.078,bars,2023.2.3,Win32,144.9275362,657b66ea316d21385b68909f,,,,,,,,,,,3740.8968,3741.893,,,3742.3931,3742.6438,,43,43,,,,,,,,,,,,,,,,bars/044.png,bars/mask008.png,,,,,,,,,,,,0,1,,,,,,,4,2,4,2,,,,,,,,,,,3741.893,3742.3931,3742.6439,3744.0277,space,1.3757,,3744.0277,32,68,3745.0252,3745.0252,3745.036,,,,0,47,47,47,1,75,155,,,,,,,,
,,5b04bbd4b98c410001adb8db,65af54fe2cf40634cd5d7095,2024-01-23_06h56.29.078,bars,2023.2.3,Win32,144.9275362,657b66ea316d21385b68909f,,,,,,,,,,,3745.0363,3746.0323,,,3746.5339,3746.7821,,117,117,,,,,,,,,,,,,,,,bars/023.png,bars/mask008.png,,,,,,,,,,,,0,2,,,,,,,6,0,5,0,,,,,,,,,,,3746.0323,3746.5339,3746.7821,3750.8308,space,4.0445,,3750.8308,83,2,3751.8308,3751.8309,3751.8419,,,,0,48,48,48,1,20,115,,,,,,,,
,,5b04bbd4b98c410001adb8db,65af54fe2cf40634cd5d7095,2024-01-23_06h56.29.078,bars,2023.2.3,Win32,144.9275362,657b66ea316d21385b68909f,,,,,,,,,,,3751.8421,3752.838,,,3753.3383,3753.5878,,64,64,,,,,,,,,,,,,,,,bars/046.png,bars/mask007.png,,,,,,,,,,,,0,2,,,,,,,4,0,6,0,,,,,,,,,,,3752.8381,3753.3383,3753.5878,3757.1157,space,3.5247,,3757.1158,89,21,3758.1158,3758.1159,3758.1258,,,,0,49,49,49,1,155,85,,,,,,,,
,,5b04bbd4b98c410001adb8db,65af54fe2cf40634cd5d7095,2024-01-23_06h56.29.078,bars,2023.2.3,Win32,144.9275362,657b66ea316d21385b68909f,,,,,,,,,,,,,,,,,,,,,,,,,,,,,,,,,,,,,,,,,,,,,,,,,,,,,,,,,,,,,,,,,,,,,,,,,,,,,,,,,,,,,,,,,,,,,3758.126,3818.1236,0,3,3,1,1,sequence_tables/blk027.csv
,,5b04bbd4b98c410001adb8db,65af54fe2cf40634cd5d7095,2024-01-23_06h56.29.078,bars,2023.2.3,Win32,144.9275362,657b66ea316d21385b68909f,,,,,,,,,,,3822.472,3823.4724,,,3823.9709,3824.2224,,109,109,,,,,,,,,,,,,,,,bars/049.png,bars/mask001.png,,,,,,,,,,,,1,2,,,,,,,4,1,4,1,,,,,,3818.1355,3822.4671,space,4.3279,,3823.4725,3823.9708,3824.2224,3826.3676,space,2.1387,,3826.3677,51,6,3827.3672,3827.3673,3827.3777,,,,0,0,0,0,1,160,115,,,,,,,,
,,5b04bbd4b98c410001adb8db,65af54fe2cf40634cd5d7095,2024-01-23_06h56.29.078,bars,2023.2.3,Win32,144.9275362,657b66ea316d21385b68909f,,,,,,,,,,,3827.378,3828.3738,,,3828.8742,3829.1253,,106,106,,,,,,,,,,,,,,,,bars/002.png,bars/mask000.png,,,,,,,,,,,,0,2,,,,,,,6,0,8,0,,,,,,,,,,,3828.3738,3828.8741,3829.1254,3833.3603,space,4.2279,,3833.3604,24,21,3834.3601,3834.3605,3834.3708,,,,0,1,1,1,1,130,85,,,,,,,,
,,5b04bbd4b98c410001adb8db,65af54fe2cf40634cd5d7095,2024-01-23_06h56.29.078,bars,2023.2.3,Win32,144.9275362,657b66ea316d21385b68909f,,,,,,,,,,,3834.371,3835.3688,,,3835.8684,3836.1192,,32,32,,,,,,,,,,,,,,,,bars/022.png,bars/mask006.png,,,,,,,,,,,,1,2,,,,,,,4,2,2,2,,,,,,,,,,,3835.3688,3835.8684,3836.1192,3838.3558,space,2.2305,,3838.3558,63,12,3839.3533,3839.3534,3839.3649,,,,0,2,2,2,1,95,20,,,,,,,,
,,5b04bbd4b98c410001adb8db,65af54fe2cf40634cd5d7095,2024-01-23_06h56.29.078,bars,2023.2.3,Win32,144.9275362,657b66ea316d21385b68909f,,,,,,,,,,,3839.3651,3840.3602,,,3840.8602,3841.1102,,16,16,,,,,,,,,,,,,,,,bars/014.png,bars/mask002.png,,,,,,,,,,,,0,2,,,,,,,2,0,2,0,,,,,,,,,,,3840.3603,3840.8602,3841.1102,3845.4367,space,4.3229,,3845.4368,64,16,3846.4369,3846.4369,3846.4472,,,,0,3,3,3,1,80,0,,,,,,,,
,,5b04bbd4b98c410001adb8db,65af54fe2cf40634cd5d7095,2024-01-23_06h56.29.078,bars,2023.2.3,Win32,144.9275362,657b66ea316d21385b68909f,,,,,,,,,,,3846.4474,3847.4456,,,3847.9436,3848.1929,,78,78,,,,,,,,,,,,,,,,bars/018.png,bars/mask007.png,,,,,,,,,,,,0,2,,,,,,,4,0,4,0,,,,,,,,,,,3847.4456,3847.9435,3848.1929,3855.4228,space,7.2228,,3855.4229,72,12,3856.4229,3856.4229,3856.4333,,,,0,4,4,4,1,150,90,,,,,,,,
,,5b04bbd4b98c410001adb8db,65af54fe2cf40634cd5d7095,2024-01-23_06h56.29.078,bars,2023.2.3,Win32,144.9275362,657b66ea316d21385b68909f,,,,,,,,,,,3856.4335,3857.4313,,,3857.9317,3858.1815,,152,152,,,,,,,,,,,,,,,,bars/000.png,bars/mask008.png,,,,,,,,,,,,1,2,,,,,,,2,2,3,1,,,,,,,,,,,3857.4313,3857.9316,3858.1815,3862.4716,space,4.2779,,3862.4716,68,7,3863.4681,3863.4681,3863.4787,,,,0,5,5,5,1,40,145,,,,,,,,
,,5b04bbd4b98c410001adb8db,65af54fe2cf40634cd5d7095,2024-01-23_06h56.29.078,bars,2023.2.3,Win32,144.9275362,657b66ea316d21385b68909f,,,,,,,,,,,3863.4789,3864.4788,,,3864.9786,3865.2292,,81,-279,,,,,,,,,,,,,,,,bars/018.png,bars/mask009.png,,,,,,,,,,,,2,2,,,,,,,0,4,1,3,,,,,,,,,,,3864.479,3864.9786,3865.2294,3879.9027,space,14.667,,3879.9027,69,9,3880.9027,3880.9027,3880.9133,,,,0,6,6,6,1,150,90,,,,,,,,
,,5b04bbd4b98c410001adb8db,65af54fe2cf40634cd5d7095,2024-01-23_06h56.29.078,bars,2023.2.3,Win32,144.9275362,657b66ea316d21385b68909f,,,,,,,,,,,3880.9134,3881.9111,,,3882.4094,3882.6546,,3,3,,,,,,,,,,,,,,,,bars/035.png,bars/mask002.png,,,,,,,,,,,,0,1,,,,,,,0,6,0,7,,,,,,,,,,,3881.9111,3882.4094,3882.6546,3889.9026,space,7.243,,3889.9027,8,57,3890.9028,3890.9028,3890.9147,,,,0,7,7,7,1,175,60,,,,,,,,
,,5b04bbd4b98c410001adb8db,65af54fe2cf40634cd5d7095,2024-01-23_06h56.29.078,bars,2023.2.3,Win32,144.9275362,657b66ea316d21385b68909f,,,,,,,,,,,3890.9149,3891.9165,,,3892.4165,3892.6665,,41,41,,,,,,,,,,,,,,,,bars/025.png,bars/mask005.png,,,,,,,,,,,,8,2,,,,,,,2,8,2,8,,,,,,,,,,,3891.9165,3892.4165,3892.6666,3895.7916,space,3.1209,,3895.7917,64,1,3896.7925,3896.7929,3896.8066,,,,0,8,8,8,1,105,40,,,,,,,,
