init_variables.started,init_variables.stopped,participant,session,date,expName,psychopyVersion,OS,frameRate,study_id,instruction_exp.started,instruction_exp.stopped,key_resp_8.keys,key_resp_8.rt,key_resp_8.duration,instruction_single.started,instruction_single.stopped,key_resp_2.keys,key_resp_2.rt,key_resp_2.duration,interval.started,interval.stopped,cue_single.started,cue_single.stopped,mask.started,mask.stopped,ori_response_single.started,res_ori,res,ori_response_single.stopped,key_resp_single.keys,key_resp_single.rt,key_resp_single.duration,disp_single.started,disp_single.stopped,key_resp.keys,key_resp.rt,key_resp.duration,single.thisRepN,single.thisTrialN,single.thisN,single.thisIndex,single.ran,ori,path,mask_path,instruction_bandit.started,instruction_bandit.stopped,key_resp_6.keys,key_resp_6.rt,key_resp_6.duration,cue_bandit.started,cue_bandit.stopped,bandit_res.keys,bandit_res.rt,bandit_res.duration,outcome_bandit.started,rew,action,outcome_bandit.stopped,bandit.thisRepN,bandit.thisTrialN,bandit.thisN,bandit.thisIndex,bandit.ran,actual_rew1,actual_rew2,rew1,rew2,instruction_task.started,instruction_task.stopped,key_resp_7.keys,key_resp_7.rt,key_resp_7.duration,wait_ready.started,wait_ready.stopped,key_resp_3.keys,key_resp_3.rt,key_resp_3.duration,cue.started,cue.stopped,ori_response.started,ori_response.stopped,key_resp_5.keys,key_resp_5.rt,key_resp_5.duration,outcome.started,diff1,diff2,outcome.stopped,disp_outcome_practice.started,disp_outcome_practice.stopped,key_resp_4.keys,key_resp_4.rt,key_resp_4.duration,trials.thisRepN,trials.thisTrialN,trials.thisN,trials.thisIndex,trials.ran,ori1,ori2,break_blk.started,break_blk.stopped,block.thisRepN,block.thisTrialN,block.thisN,block.thisIndex,block.ran,condition_file
0.0001,0.0002,5f7aea5d4f022a1f0fe49dc4,65af55873a9969d2d2611718,2024-01-23_07h03.26.844,bars,2023.2.3,Win32,29.94011976,657b66ea316d21385b68909f,,,,,,,,,,,,,,,,,,,,,,,,,,,,,,,,,,,,,,,,,,,,,,,,,,,,,,,,,,,,,,,,,,,,,,,,,,,,,,,,,,,,,,,,,,,,,,,,,,,,
,,5f7aea5d4f022a1f0fe49dc4,65af55873a9969d2d2611718,2024-01-23_07h03.26.844,bars,2023.2.3,Win32,29.94011976,657b66ea316d21385b68909f,0.0003,31.6541,y,31.6113,,,,,,,,,,,,,,,,,,,,,,,,,,,,,,,,,,,,,,,,,,,,,,,,,,,,,,,,,,,,,,,,,,,,,,,,,,,,,,,,,,,,,,,,,,,,,,,,
,,5f7aea5d4f022a1f0fe49dc4,65af55873a9969d2d2611718,2024-01-23_07h03.26.844,bars,2023.2.3,Win32,29.94011976,657b66ea316d21385b68909f,,,,,,31.6542,46.2592,space,14.5626,,,,,,,,,,,,,,,,,,,,,,,,,,,,,,,,,,,,,,,,,,,,,,,,,,,,,,,,,,,,,,,,,,,,,,,,,,,,,,,,,,,,,,,,,,,
,,5f7aea5d4f022a1f0fe49dc4,65af55873a9969d2d2611718,2024-01-23_07h03.26.844,bars,2023.2.3,Win32,29.94011976,657b66ea316d21385b68909f,,,,,,,,,,,46.2676,47.265,47.2651,47.745,47.745,47.9834,47.9835,169,169,53.1472,space,5.1152,,53.1474,57.0348,space,3.8386,,0,0,0,3,1,20,bars/single003.png,bars/mask005.png,,,,,,,,,,,,,,,,,,,,,,,,,,,,,,,,,,,,,,,,,,,,,,,,,,,,,,,,,,,,,,,,
,,5f7aea5d4f022a1f0fe49dc4,65af55873a9969d2d2611718,2024-01-23_07h03.26.844,bars,2023.2.3,Win32,29.94011976,657b66ea316d21385b68909f,,,,,,,,,,,57.0392,58.0205,58.0206,58.4933,58.4934,58.7266,58.7267,6,6,61.096,space,2.3208,,61.096,62.1283,space,0.9848,,0,1,1,2,1,145,bars/single002.png,bars/mask003.png,,,,,,,,,,,,,,,,,,,,,,,,,,,,,,,,,,,,,,,,,,,,,,,,,,,,,,,,,,,,,,,,
,,5f7aea5d4f022a1f0fe49dc4,65af55873a9969d2d2611718,2024-01-23_07h03.26.844,bars,2023.2.3,Win32,29.94011976,657b66ea316d21385b68909f,,,,,,,,,,,62.1285,63.1255,63.1255,63.6244,63.6244,63.863,63.863,11,11,65.9708,space,2.0653,,65.9708,66.9007,space,0.8839,,0,2,2,0,1,150,bars/single000.png,bars/mask006.png,,,,,,,,,,,,,,,,,,,,,,,,,,,,,,,,,,,,,,,,,,,,,,,,,,,,,,,,,,,,,,,,
,,5f7aea5d4f022a1f0fe49dc4,65af55873a9969d2d2611718,2024-01-23_07h03.26.844,bars,2023.2.3,Win32,29.94011976,657b66ea316d21385b68909f,,,,,,,,,,,66.9009,67.8712,67.8713,68.3471,68.3471,68.5882,68.5882,144,144,68.6812,space,0.0504,,68.6812,68.8736,space,0.1485,,0,3,3,5,1,55,bars/single005.png,bars/mask008.png,,,,,,,,,,,,,,,,,,,,,,,,,,,,,,,,,,,,,,,,,,,,,,,,,,,,,,,,,,,,,,,,
,,5f7aea5d4f022a1f0fe49dc4,65af55873a9969d2d2611718,2024-01-23_07h03.26.844,bars,2023.2.3,Win32,29.94011976,657b66ea316d21385b68909f,,,,,,,,,,,68.8739,69.8959,69.8959,70.387,70.387,70.6269,70.627,89,89,72.2512,space,1.579,,72.2512,75.5291,space,3.2299,,0,4,4,6,1,175,bars/single006.png,bars/mask005.png,,,,,,,,,,,,,,,,,,,,,,,,,,,,,,,,,,,,,,,,,,,,,,,,,,,,,,,,,,,,,,,,
,,5f7aea5d4f022a1f0fe49dc4,65af55873a9969d2d2611718,2024-01-23_07h03.26.844,bars,2023.2.3,Win32,29.94011976,657b66ea316d21385b68909f,,,,,,,,,,,75.5335,76.5441,76.5441,77.0169,77.017,77.2508,77.2508,113,113,80.855,space,3.5604,,80.8551,85.9752,space,5.072,,0,5,5,4,1,95,bars/single004.png,bars/mask004.png,,,,,,,,,,,,,,,,,,,,,,,,,,,,,,,,,,,,,,,,,,,,,,,,,,,,,,,,,,,,,,,,
,,5f7aea5d4f022a1f0fe49dc4,65af55873a9969d2d2611718,2024-01-23_07h03.26.844,bars,2023.2.3,Win32,29.94011976,657b66ea316d21385b68909f,,,,,,,,,,,85.9799,86.946,86.9461,87.4281,87.4281,87.6798,87.6798,78,78,91.4392,space,3.7154,,91.4392,94.1102,space,2.6224,,0,6,6,8,1,160,bars/single008.png,bars/mask004.png,,,,,,,,,,,,,,,,,,,,,,,,,,,,,,,,,,,,,,,,,,,,,,,,,,,,,,,,,,,,,,,,
,,5f7aea5d4f022a1f0fe49dc4,65af55873a9969d2d2611718,2024-01-23_07h03.26.844,bars,2023.2.3,Win32,29.94011976,657b66ea316d21385b68909f,,,,,,,,,,,94.1146,95.083,95.083,95.5686,95.5686,95.8103,95.8103,139,139,98.1168,space,2.2626,,98.1168,104.4612,space,6.2973,,0,7,7,9,1,20,bars/single009.png,bars/mask006.png,,,,,,,,,,,,,,,,,,,,,,,,,,,,,,,,,,,,,,,,,,,,,,,,,,,,,,,,,,,,,,,,
,,5f7aea5d4f022a1f0fe49dc4,65af55873a9969d2d2611718,2024-01-23_07h03.26.844,bars,2023.2.3,Win32,29.94011976,657b66ea316d21385b68909f,,,,,,,,,,,104.4658,105.4726,105.4726,105.9528,105.9529,106.2101,106.2101,110,110,120.5858,space,14.3318,,120.5858,126.0231,space,5.3859,,0,8,8,1,1,20,bars/single001.png,bars/mask006.png,,,,,,,,,,,,,,,,,,,,,,,,,,,,,,,,,,,,,,,,,,,,,,,,,,,,,,,,,,,,,,,,
,,5f7aea5d4f022a1f0fe49dc4,65af55873a9969d2d2611718,2024-01-23_07h03.26.844,bars,2023.2.3,Win32,29.94011976,657b66ea316d21385b68909f,,,,,,,,,,,126.0275,127.0293,127.0294,127.5012,127.5012,127.751,127.751,137,137,135.0058,space,7.2066,,135.0059,137.2043,space,2.15,,0,9,9,7,1,45,bars/single007.png,bars/mask009.png,,,,,,,,,,,,,,,,,,,,,,,,,,,,,,,,,,,,,,,,,,,,,,,,,,,,,,,,,,,,,,,,
,,5f7aea5d4f022a1f0fe49dc4,65af55873a9969d2d2611718,2024-01-23_07h03.26.844,bars,2023.2.3,Win32,29.94011976,657b66ea316d21385b68909f,,,,,,,,,,,,,,,,,,,,,,,,,,,,,,,,,,,,,137.2048,145.9915,space,8.7357,,,,,,,,,,,,,,,,,,,,,,,,,,,,,,,,,,,,,,,,,,,,,,,,,,,,,,,,,,,,
,,5f7aea5d4f022a1f0fe49dc4,65af55873a9969d2d2611718,2024-01-23_07h03.26.844,bars,2023.2.3,Win32,29.94011976,657b66ea316d21385b68909f,,,,,,,,,,,,,,,,,,,,,,,,,,,,,,,,,,,,,,,,,,145.9971,149.706,left,3.6582,,149.7061,9,1,150.6851,0,0,0,0,1,9,1,9,2,,,,,,,,,,,,,,,,,,,,,,,,,,,,,,,,,,,,,,,,,
,,5f7aea5d4f022a1f0fe49dc4,65af55873a9969d2d2611718,2024-01-23_07h03.26.844,bars,2023.2.3,Win32,29.94011976,657b66ea316d21385b68909f,,,,,,,,,,,,,,,,,,,,,,,,,,,,,,,,,,,,,,,,,,150.6854,153.5397,left,2.8068,,153.5397,10,1,154.531,0,1,1,1,1,10,0,10,1,,,,,,,,,,,,,,,,,,,,,,,,,,,,,,,,,,,,,,,,,
,,5f7aea5d4f022a1f0fe49dc4,65af55873a9969d2d2611718,2024-01-23_07h03.26.844,bars,2023.2.3,Win32,29.94011976,657b66ea316d21385b68909f,,,,,,,,,,,,,,,,,,,,,,,,,,,,,,,,,,,,,,,,,,154.5354,155.7236,left,1.1458,,155.7237,10,1,156.7384,0,2,2,2,1,10,2,10,2,,,,,,,,,,,,,,,,,,,,,,,,,,,,,,,,,,,,,,,,,
,,5f7aea5d4f022a1f0fe49dc4,65af55873a9969d2d2611718,2024-01-23_07h03.26.844,bars,2023.2.3,Win32,29.94011976,657b66ea316d21385b68909f,,,,,,,,,,,,,,,,,,,,,,,,,,,,,,,,,,,,,,,,,,156.7387,157.2717,right,0.4908,,157.2718,3,2,158.2369,0,3,3,3,1,8,4,7,3,,,,,,,,,,,,,,,,,,,,,,,,,,,,,,,,,,,,,,,,,
,,5f7aea5d4f022a1f0fe49dc4,65af55873a9969d2d2611718,2024-01-23_07h03.26.844,bars,2023.2.3,Win32,29.94011976,657b66ea316d21385b68909f,,,,,,,,,,,,,,,,,,,,,,,,,,,,,,,,,,,,,,,,,,158.2371,158.9533,left,0.6744,,158.9534,5,1,159.9586,0,4,4,4,1,6,2,5,1,,,,,,,,,,,,,,,,,,,,,,,,,,,,,,,,,,,,,,,,,
,,5f7aea5d4f022a1f0fe49dc4,65af55873a9969d2d2611718,2024-01-23_07h03.26.844,bars,2023.2.3,Win32,29.94011976,657b66ea316d21385b68909f,,,,,,,,,,,,,,,,,,,,,,,,,,,,,,,,,,,,,,,,,,159.9587,161.1276,right,1.1271,,161.1276,4,2,162.1207,0,5,5,5,1,4,4,4,4,,,,,,,,,,,,,,,,,,,,,,,,,,,,,,,,,,,,,,,,,
,,5f7aea5d4f022a1f0fe49dc4,65af55873a9969d2d2611718,2024-01-23_07h03.26.844,bars,2023.2.3,Win32,29.94011976,657b66ea316d21385b68909f,,,,,,,,,,,,,,,,,,,,,,,,,,,,,,,,,,,,,,,,,,162.121,164.0371,left,1.8675,,164.0372,1,1,165.0351,0,6,6,6,1,2,2,1,2,,,,,,,,,,,,,,,,,,,,,,,,,,,,,,,,,,,,,,,,,
,,5f7aea5d4f022a1f0fe49dc4,65af55873a9969d2d2611718,2024-01-23_07h03.26.844,bars,2023.2.3,Win32,29.94011976,657b66ea316d21385b68909f,,,,,,,,,,,,,,,,,,,,,,,,,,,,,,,,,,,,,,,,,,165.0397,165.5146,right,0.4323,,165.5146,1,2,166.5026,0,7,7,7,1,0,0,0,1,,,,,,,,,,,,,,,,,,,,,,,,,,,,,,,,,,,,,,,,,
,,5f7aea5d4f022a1f0fe49dc4,65af55873a9969d2d2611718,2024-01-23_07h03.26.844,bars,2023.2.3,Win32,29.94011976,657b66ea316d21385b68909f,,,,,,,,,,,,,,,,,,,,,,,,,,,,,,,,,,,,,,,,,,166.5029,166.8811,left,0.3369,,166.8812,1,1,167.8736,0,8,8,8,1,0,2,1,0,,,,,,,,,,,,,,,,,,,,,,,,,,,,,,,,,,,,,,,,,
,,5f7aea5d4f022a1f0fe49dc4,65af55873a9969d2d2611718,2024-01-23_07h03.26.844,bars,2023.2.3,Win32,29.94011976,657b66ea316d21385b68909f,,,,,,,,,,,,,,,,,,,,,,,,,,,,,,,,,,,,,,,,,,167.8738,168.4002,right,0.4837,,168.4003,3,2,169.3799,0,9,9,9,1,2,4,2,3,,,,,,,,,,,,,,,,,,,,,,,,,,,,,,,,,,,,,,,,,
,,5f7aea5d4f022a1f0fe49dc4,65af55873a9969d2d2611718,2024-01-23_07h03.26.844,bars,2023.2.3,Win32,29.94011976,657b66ea316d21385b68909f,,,,,,,,,,,,,,,,,,,,,,,,,,,,,,,,,,,,,,,,,,169.3801,169.7086,right,0.2831,,169.7086,3,2,170.7046,0,10,10,10,1,0,2,0,3,,,,,,,,,,,,,,,,,,,,,,,,,,,,,,,,,,,,,,,,,
,,5f7aea5d4f022a1f0fe49dc4,65af55873a9969d2d2611718,2024-01-23_07h03.26.844,bars,2023.2.3,Win32,29.94011976,657b66ea316d21385b68909f,,,,,,,,,,,,,,,,,,,,,,,,,,,,,,,,,,,,,,,,,,170.7049,171.0319,right,0.2837,,171.0319,3,2,172.0361,0,11,11,11,1,0,4,0,3,,,,,,,,,,,,,,,,,,,,,,,,,,,,,,,,,,,,,,,,,
,,5f7aea5d4f022a1f0fe49dc4,65af55873a9969d2d2611718,2024-01-23_07h03.26.844,bars,2023.2.3,Win32,29.94011976,657b66ea316d21385b68909f,,,,,,,,,,,,,,,,,,,,,,,,,,,,,,,,,,,,,,,,,,172.0363,172.2669,right,0.1902,,172.2669,6,2,173.2404,0,12,12,12,1,2,6,1,6,,,,,,,,,,,,,,,,,,,,,,,,,,,,,,,,,,,,,,,,,
,,5f7aea5d4f022a1f0fe49dc4,65af55873a9969d2d2611718,2024-01-23_07h03.26.844,bars,2023.2.3,Win32,29.94011976,657b66ea316d21385b68909f,,,,,,,,,,,,,,,,,,,,,,,,,,,,,,,,,,,,,,,,,,173.2406,173.5348,right,0.2521,,173.535,3,2,174.5413,0,13,13,13,1,0,4,1,3,,,,,,,,,,,,,,,,,,,,,,,,,,,,,,,,,,,,,,,,,
,,5f7aea5d4f022a1f0fe49dc4,65af55873a9969d2d2611718,2024-01-23_07h03.26.844,bars,2023.2.3,Win32,29.94011976,657b66ea316d21385b68909f,,,,,,,,,,,,,,,,,,,,,,,,,,,,,,,,,,,,,,,,,,174.5414,174.8712,right,0.2895,,174.8713,7,2,175.8302,0,14,14,14,1,2,6,2,7,,,,,,,,,,,,,,,,,,,,,,,,,,,,,,,,,,,,,,,,,
,,5f7aea5d4f022a1f0fe49dc4,65af55873a9969d2d2611718,2024-01-23_07h03.26.844,bars,2023.2.3,Win32,29.94011976,657b66ea316d21385b68909f,,,,,,,,,,,,,,,,,,,,,,,,,,,,,,,,,,,,,,,,,,175.8304,176.3546,left,0.484,,176.3547,3,1,177.3589,0,15,15,15,1,4,8,3,9,,,,,,,,,,,,,,,,,,,,,,,,,,,,,,,,,,,,,,,,,
,,5f7aea5d4f022a1f0fe49dc4,65af55873a9969d2d2611718,2024-01-23_07h03.26.844,bars,2023.2.3,Win32,29.94011976,657b66ea316d21385b68909f,,,,,,,,,,,,,,,,,,,,,,,,,,,,,,,,,,,,,,,,,,177.359,177.5914,right,0.1918,,177.5914,7,2,178.5969,0,16,16,16,1,6,6,7,7,,,,,,,,,,,,,,,,,,,,,,,,,,,,,,,,,,,,,,,,,
,,5f7aea5d4f022a1f0fe49dc4,65af55873a9969d2d2611718,2024-01-23_07h03.26.844,bars,2023.2.3,Win32,29.94011976,657b66ea316d21385b68909f,,,,,,,,,,,,,,,,,,,,,,,,,,,,,,,,,,,,,,,,,,178.597,179.012,left,0.3745,,179.012,9,1,180.0062,0,17,17,17,1,8,4,9,5,,,,,,,,,,,,,,,,,,,,,,,,,,,,,,,,,,,,,,,,,
,,5f7aea5d4f022a1f0fe49dc4,65af55873a9969d2d2611718,2024-01-23_07h03.26.844,bars,2023.2.3,Win32,29.94011976,657b66ea316d21385b68909f,,,,,,,,,,,,,,,,,,,,,,,,,,,,,,,,,,,,,,,,,,180.0064,180.3786,right,0.3301,,180.3786,1,2,181.3876,0,18,18,18,1,6,2,5,1,,,,,,,,,,,,,,,,,,,,,,,,,,,,,,,,,,,,,,,,,
,,5f7aea5d4f022a1f0fe49dc4,65af55873a9969d2d2611718,2024-01-23_07h03.26.844,bars,2023.2.3,Win32,29.94011976,657b66ea316d21385b68909f,,,,,,,,,,,,,,,,,,,,,,,,,,,,,,,,,,,,,,,,,,181.3879,181.621,left,0.1914,,181.621,7,1,182.6222,0,19,19,19,1,8,0,7,0,,,,,,,,,,,,,,,,,,,,,,,,,,,,,,,,,,,,,,,,,
,,5f7aea5d4f022a1f0fe49dc4,65af55873a9969d2d2611718,2024-01-23_07h03.26.844,bars,2023.2.3,Win32,29.94011976,657b66ea316d21385b68909f,,,,,,,,,,,,,,,,,,,,,,,,,,,,,,,,,,,,,,,,,,,,,,,,,,,,,,,,,,,,182.6225,194.3377,space,11.6711,,,,,,,,,,,,,,,,,,,,,,,,,,,,,,,,,,,,,
,,5f7aea5d4f022a1f0fe49dc4,65af55873a9969d2d2611718,2024-01-23_07h03.26.844,bars,2023.2.3,Win32,29.94011976,657b66ea316d21385b68909f,,,,,,,,,,,196.2241,197.2108,,,197.6809,197.9139,,51,231,,,,,,,,,,,,,,,,bars/008.png,bars/mask004.png,,,,,,,,,,,,0,2,,,,,,,2,8,2,9,,,,,,194.3433,196.2226,space,1.8382,,197.211,197.6809,197.914,205.521,space,7.5635,,205.5212,59,51,206.5384,206.5384,216.0395,space,9.4545,,0,0,0,0,1,110,0,,,,,,,,
,,5f7aea5d4f022a1f0fe49dc4,65af55873a9969d2d2611718,2024-01-23_07h03.26.844,bars,2023.2.3,Win32,29.94011976,657b66ea316d21385b68909f,,,,,,,,,,,216.0442,217.0552,,,217.5211,217.7546,,56,236,,,,,,,,,,,,,,,,bars/031.png,bars/mask006.png,,,,,,,,,,,,3,2,,,,,,,4,10,5,10,,,,,,,,,,,217.0552,217.5211,217.7547,225.3467,space,7.5522,,225.3468,64,21,226.3409,226.341,231.3536,space,4.9579,,0,1,1,1,1,120,35,,,,,,,,
,,5f7aea5d4f022a1f0fe49dc4,65af55873a9969d2d2611718,2024-01-23_07h03.26.844,bars,2023.2.3,Win32,29.94011976,657b66ea316d21385b68909f,,,,,,,,,,,231.358,232.3488,,,232.8408,233.0698,,61,61,,,,,,,,,,,,,,,,bars/011.png,bars/mask003.png,,,,,,,,,,,,1,2,,,,,,,6,8,7,7,,,,,,,,,,,232.3488,232.8407,233.0698,243.0197,space,9.8993,,243.0198,81,24,244.0217,244.0217,248.3798,space,4.3086,,0,2,2,2,1,160,85,,,,,,,,
,,5f7aea5d4f022a1f0fe49dc4,65af55873a9969d2d2611718,2024-01-23_07h03.26.844,bars,2023.2.3,Win32,29.94011976,657b66ea316d21385b68909f,,,,,,,,,,,248.3842,249.3762,,,249.8883,250.1209,,62,62,,,,,,,,,,,,,,,,bars/006.png,bars/mask001.png,,,,,,,,,,,,1,1,,,,,,,8,10,7,9,,,,,,,,,,,249.3762,249.8883,250.121,253.3511,space,3.1834,,253.3511,27,38,254.3605,254.3605,264.2164,space,9.8077,,0,3,3,3,1,35,100,,,,,,,,
,,5f7aea5d4f022a1f0fe49dc4,65af55873a9969d2d2611718,2024-01-23_07h03.26.844,bars,2023.2.3,Win32,29.94011976,657b66ea316d21385b68909f,,,,,,,,,,,264.2224,265.1793,,,265.6511,265.8941,,21,21,,,,,,,,,,,,,,,,bars/043.png,bars/mask005.png,,,,,,,,,,,,7,1,,,,,,,10,8,10,7,,,,,,,,,,,265.1793,265.6511,265.8941,269.2197,space,3.2827,,269.2197,9,71,270.211,270.211,274.5526,space,4.2922,,0,4,4,4,1,30,130,,,,,,,,
,,5f7aea5d4f022a1f0fe49dc4,65af55873a9969d2d2611718,2024-01-23_07h03.26.844,bars,2023.2.3,Win32,29.94011976,657b66ea316d21385b68909f,,,,,,,,,,,274.557,275.5543,,,276.0407,276.2691,,37,37,,,,,,,,,,,,,,,,bars/019.png,bars/mask006.png,,,,,,,,,,,,7,1,,,,,,,8,6,9,5,,,,,,,,,,,275.5543,276.0406,276.2692,280.6866,space,4.3736,,280.6867,8,68,281.6895,281.6895,284.3252,space,2.5878,,0,5,5,5,1,45,105,,,,,,,,
,,5f7aea5d4f022a1f0fe49dc4,65af55873a9969d2d2611718,2024-01-23_07h03.26.844,bars,2023.2.3,Win32,29.94011976,657b66ea316d21385b68909f,,,,,,,,,,,284.3255,285.2978,,,285.7733,286.0018,,44,44,,,,,,,,,,,,,,,,bars/007.png,bars/mask009.png,,,,,,,,,,,,3,2,,,,,,,6,4,5,5,,,,,,,,,,,285.2978,285.7733,286.0019,293.4065,space,7.362,,293.4065,49,11,294.3952,294.3953,297.7169,space,3.2705,,0,6,6,6,1,175,55,,,,,,,,
,,5f7aea5d4f022a1f0fe49dc4,65af55873a9969d2d2611718,2024-01-23_07h03.26.844,bars,2023.2.3,Win32,29.94011976,657b66ea316d21385b68909f,,,,,,,,,,,297.7214,298.7068,,,299.178,299.4204,,54,54,,,,,,,,,,,,,,,,bars/006.png,bars/mask006.png,,,,,,,,,,,,3,1,,,,,,,8,2,7,1,,,,,,,,,,,298.7069,299.1779,299.4205,304.3791,space,4.9164,,304.3792,19,46,305.3797,305.3798,417.9787,space,112.5504,,0,7,7,7,1,35,100,,,,,,,,
,,5f7aea5d4f022a1f0fe49dc4,65af55873a9969d2d2611718,2024-01-23_07h03.26.844,bars,2023.2.3,Win32,29.94011976,657b66ea316d21385b68909f,,,,,,,,,,,417.9836,418.9473,,,419.464,419.6896,,58,238,,,,,,,,,,,,,,,,bars/007.png,bars/mask007.png,,,,,,,,,,,,0,2,,,,,,,6,0,6,0,,,,,,,,,,,418.9473,419.464,419.6896,426.1762,space,6.4392,,426.1762,63,3,427.1794,427.1795,431.6929,space,4.4654,,0,8,8,8,1,175,55,,,,,,,,
,,5f7aea5d4f022a1f0fe49dc4,65af55873a9969d2d2611718,2024-01-23_07h03.26.844,bars,2023.2.3,Win32,29.94011976,657b66ea316d21385b68909f,,,,,,,,,,,431.6974,432.6865,,,433.1973,433.4352,,48,48,,,,,,,,,,,,,,,,bars/047.png,bars/mask000.png,,,,,,,,,,,,0,2,,,,,,,4,2,4,0,,,,,,,,,,,432.6865,433.1973,433.4353,438.6702,space,5.1883,,438.6702,33,22,439.6719,439.672,444.5704,space,4.8513,,0,9,9,9,1,15,70,,,,,,,,
,,5f7aea5d4f022a1f0fe49dc4,65af55873a9969d2d2611718,2024-01-23_07h03.26.844,bars,2023.2.3,Win32,29.94011976,657b66ea316d21385b68909f,,,,,,,,,,,444.5747,445.5425,,,445.9979,446.2245,,66,66,,,,,,,,,,,,,,,,bars/032.png,bars/mask009.png,,,,,,,,,,,,0,2,,,,,,,2,4,3,4,,,,,,,,,,,445.5425,445.9979,446.2246,450.1317,space,3.8654,,450.1317,59,46,451.1405,451.1405,457.8334,space,6.6446,,0,10,10,10,1,125,20,,,,,,,,
,,5f7aea5d4f022a1f0fe49dc4,65af55873a9969d2d2611718,2024-01-23_07h03.26.844,bars,2023.2.3,Win32,29.94011976,657b66ea316d21385b68909f,,,,,,,,,,,457.8381,458.823,,,459.3106,459.545,,177,-3,,,,,,,,,,,,,,,,bars/036.png,bars/mask005.png,,,,,,,,,,,,1,2,,,,,,,4,6,5,6,,,,,,,,,,,458.823,459.3106,459.545,464.6293,space,5.0403,,464.6293,32,23,465.6247,465.6247,473.9084,space,8.2361,,0,11,11,11,1,145,20,,,,,,,,
,,5f7aea5d4f022a1f0fe49dc4,65af55873a9969d2d2611718,2024-01-23_07h03.26.844,bars,2023.2.3,Win32,29.94011976,657b66ea316d21385b68909f,,,,,,,,,,,473.9131,474.8797,,,475.3874,475.62,,19,19,,,,,,,,,,,,,,,,bars/045.png,bars/mask006.png,,,,,,,,,,,,2,2,,,,,,,2,4,3,3,,,,,,,,,,,474.8797,475.3874,475.62,482.4738,space,6.8096,,482.4738,81,9,483.4527,483.4527,497.3328,space,13.8324,,0,12,12,12,1,100,10,,,,,,,,
,,5f7aea5d4f022a1f0fe49dc4,65af55873a9969d2d2611718,2024-01-23_07h03.26.844,bars,2023.2.3,Win32,29.94011976,657b66ea316d21385b68909f,,,,,,,,,,,497.3375,498.3382,,,498.8088,499.0434,,9,9,,,,,,,,,,,,,,,,bars/048.png,bars/mask004.png,,,,,,,,,,,,3,2,,,,,,,4,6,2,5,,,,,,,,,,,498.3383,498.8087,499.0435,505.4405,space,6.3534,,505.4405,41,14,506.4415,506.4415,510.7271,space,4.237,,0,13,13,13,1,50,175,,,,,,,,
,,5f7aea5d4f022a1f0fe49dc4,65af55873a9969d2d2611718,2024-01-23_07h03.26.844,bars,2023.2.3,Win32,29.94011976,657b66ea316d21385b68909f,,,,,,,,,,,510.7315,511.704,,,512.1794,512.4101,,165,-15,,,,,,,,,,,,,,,,bars/039.png,bars/mask001.png,,,,,,,,,,,,1,1,,,,,,,2,8,2,10,,,,,,,,,,,511.704,512.1793,512.4102,519.4661,space,7.0108,,519.4661,10,60,520.4598,520.4598,530.5748,space,10.0674,,0,14,14,14,1,175,105,,,,,,,,
,,5f7aea5d4f022a1f0fe49dc4,65af55873a9969d2d2611718,2024-01-23_07h03.26.844,bars,2023.2.3,Win32,29.94011976,657b66ea316d21385b68909f,,,,,,,,,,,530.5795,531.5525,,,532.0596,532.3106,,2,182,,,,,,,,,,,,,,,,bars/013.png,bars/mask004.png,,,,,,,,,,,,4,2,,,,,,,0,6,0,5,,,,,,,,,,,531.5525,532.0595,532.3106,537.6536,space,5.2998,,537.6536,73,8,538.6462,538.6462,542.789,space,4.0933,,0,15,15,15,1,75,10,,,,,,,,
,,5f7aea5d4f022a1f0fe49dc4,65af55873a9969d2d2611718,2024-01-23_07h03.26.844,bars,2023.2.3,Win32,29.94011976,657b66ea316d21385b68909f,,,,,,,,,,,542.7935,543.7731,,,544.2435,544.4716,,20,200,,,,,,,,,,,,,,,,bars/033.png,bars/mask007.png,,,,,,,,,,,,1,1,,,,,,,2,4,1,3,,,,,,,,,,,543.7732,544.2435,544.4716,550.6551,space,6.1408,,550.6551,5,45,551.6454,551.6455,555.3833,space,3.6952,,0,16,16,16,1,25,155,,,,,,,,
,,5f7aea5d4f022a1f0fe49dc4,65af55873a9969d2d2611718,2024-01-23_07h03.26.844,bars,2023.2.3,Win32,29.94011976,657b66ea316d21385b68909f,,,,,,,,,,,555.3879,556.392,,,556.8732,557.1096,,29,209,,,,,,,,,,,,,,,,bars/002.png,bars/mask007.png,,,,,,,,,,,,0,2,,,,,,,4,6,3,5,,,,,,,,,,,556.392,556.8732,557.1096,562.7434,space,5.5921,,562.7435,79,56,563.728,563.728,579.3474,space,15.5684,,0,17,17,17,1,130,85,,,,,,,,
,,5f7aea5d4f022a1f0fe49dc4,65af55873a9969d2d2611718,2024-01-23_07h03.26.844,bars,2023.2.3,Win32,29.94011976,657b66ea316d21385b68909f,,,,,,,,,,,579.3524,580.3464,,,580.8483,581.0874,,72,72,,,,,,,,,,,,,,,,bars/008.png,bars/mask009.png,,,,,,,,,,,,0,1,,,,,,,2,4,2,3,,,,,,,,,,,580.3464,580.8483,581.0874,584.034,space,2.9043,,584.034,38,72,585.002,585.0021,589.7413,space,4.6879,,0,18,18,18,1,110,0,,,,,,,,
,,5f7aea5d4f022a1f0fe49dc4,65af55873a9969d2d2611718,2024-01-23_07h03.26.844,bars,2023.2.3,Win32,29.94011976,657b66ea316d21385b68909f,,,,,,,,,,,589.7459,590.7441,,,591.2606,591.4917,,123,123,,,,,,,,,,,,,,,,bars/011.png,bars/mask006.png,,,,,,,,,,,,0,1,,,,,,,0,2,0,1,,,,,,,,,,,590.7441,591.2606,591.4917,594.9307,space,3.4013,,594.9308,37,38,595.9215,595.9216,612.9402,space,16.9703,,0,19,19,19,1,160,85,,,,,,,,
,,5f7aea5d4f022a1f0fe49dc4,65af55873a9969d2d2611718,2024-01-23_07h03.26.844,bars,2023.2.3,Win32,29.94011976,657b66ea316d21385b68909f,,,,,,,,,,,612.9453,613.9571,,,614.4261,614.6635,,122,122,,,,,,,,,,,,,,,,bars/027.png,bars/mask002.png,,,,,,,,,,,,1,1,,,,,,,2,0,1,0,,,,,,,,,,,613.9572,614.4261,614.6636,616.3655,space,1.6512,,616.3655,12,72,617.3687,617.3687,628.4225,space,11.0063,,0,20,20,20,1,110,50,,,,,,,,
,,5f7aea5d4f022a1f0fe49dc4,65af55873a9969d2d2611718,2024-01-23_07h03.26.844,bars,2023.2.3,Win32,29.94011976,657b66ea316d21385b68909f,,,,,,,,,,,628.428,629.4366,,,629.9098,630.1517,,115,115,,,,,,,,,,,,,,,,bars/042.png,bars/mask009.png,,,,,,,,,,,,0,1,,,,,,,0,2,0,3,,,,,,,,,,,629.4367,629.9098,630.1518,633.8121,space,3.619,,633.8121,30,40,634.7892,634.7893,641.8667,space,7.0309,,0,21,21,21,1,145,75,,,,,,,,
,,5f7aea5d4f022a1f0fe49dc4,65af55873a9969d2d2611718,2024-01-23_07h03.26.844,bars,2023.2.3,Win32,29.94011976,657b66ea316d21385b68909f,,,,,,,,,,,641.8713,642.8771,,,643.3501,643.584,,135,135,,,,,,,,,,,,,,,,bars/001.png,bars/mask002.png,,,,,,,,,,,,0,1,,,,,,,0,0,0,2,,,,,,,,,,,642.8771,643.3501,643.584,648.7341,space,5.1065,,648.7342,5,50,649.7292,649.7292,655.4744,space,5.6947,,0,22,22,22,1,130,85,,,,,,,,
,,5f7aea5d4f022a1f0fe49dc4,65af55873a9969d2d2611718,2024-01-23_07h03.26.844,bars,2023.2.3,Win32,29.94011976,657b66ea316d21385b68909f,,,,,,,,,,,655.4788,656.4884,,,656.9597,657.1852,,73,253,,,,,,,,,,,,,,,,bars/014.png,bars/mask001.png,,,,,,,,,,,,2,1,,,,,,,0,0,2,1,,,,,,,,,,,656.4884,656.9596,657.1852,664.0886,space,6.8556,,664.0887,7,73,665.0622,665.0622,673.3626,space,8.2506,,0,23,23,23,1,80,0,,,,,,,,
,,5f7aea5d4f022a1f0fe49dc4,65af55873a9969d2d2611718,2024-01-23_07h03.26.844,bars,2023.2.3,Win32,29.94011976,657b66ea316d21385b68909f,,,,,,,,,,,673.3676,674.3386,,,674.802,675.0367,,59,59,,,,,,,,,,,,,,,,bars/025.png,bars/mask002.png,,,,,,,,,,,,1,2,,,,,,,0,0,0,2,,,,,,,,,,,674.3387,674.8019,675.0367,678.7174,space,3.6372,,678.7174,46,19,679.7224,679.7224,694.8726,space,15.1009,,0,24,24,24,1,105,40,,,,,,,,
,,5f7aea5d4f022a1f0fe49dc4,65af55873a9969d2d2611718,2024-01-23_07h03.26.844,bars,2023.2.3,Win32,29.94011976,657b66ea316d21385b68909f,,,,,,,,,,,694.8773,695.8842,,,696.3695,696.6106,,109,109,,,,,,,,,,,,,,,,bars/014.png,bars/mask002.png,,,,,,,,,,,,0,1,,,,,,,0,0,0,0,,,,,,,,,,,695.8843,696.3694,696.6106,699.6105,space,2.9552,,699.6105,29,71,700.6101,700.6102,706.1687,space,5.51,,0,25,25,25,1,80,0,,,,,,,,
,,5f7aea5d4f022a1f0fe49dc4,65af55873a9969d2d2611718,2024-01-23_07h03.26.844,bars,2023.2.3,Win32,29.94011976,657b66ea316d21385b68909f,,,,,,,,,,,706.1731,707.1658,,,707.645,707.8851,,122,122,,,,,,,,,,,,,,,,bars/036.png,bars/mask001.png,,,,,,,,,,,,1,1,,,,,,,2,0,3,0,,,,,,,,,,,707.1658,707.645,707.8852,713.5324,space,5.6039,,713.5324,23,78,714.5036,714.5036,720.5376,space,5.9842,,0,26,26,26,1,145,20,,,,,,,,
,,5f7aea5d4f022a1f0fe49dc4,65af55873a9969d2d2611718,2024-01-23_07h03.26.844,bars,2023.2.3,Win32,29.94011976,657b66ea316d21385b68909f,,,,,,,,,,,720.5419,721.5348,,,722.0154,722.254,,53,53,,,,,,,,,,,,,,,,bars/014.png,bars/mask004.png,,,,,,,,,,,,0,1,,,,,,,4,2,5,1,,,,,,,,,,,721.5349,722.0153,722.254,724.1078,space,1.8121,,724.1079,27,53,725.1138,725.1138,727.0616,space,1.8914,,0,27,27,27,1,80,0,,,,,,,,
,,5f7aea5d4f022a1f0fe49dc4,65af55873a9969d2d2611718,2024-01-23_07h03.26.844,bars,2023.2.3,Win32,29.94011976,657b66ea316d21385b68909f,,,,,,,,,,,727.0618,728.032,,,728.5002,728.7256,,63,63,,,,,,,,,,,,,,,,bars/009.png,bars/mask004.png,,,,,,,,,,,,0,2,,,,,,,6,4,7,4,,,,,,,,,,,728.032,728.5001,728.7256,732.7423,space,3.972,,732.7423,48,42,733.734,733.734,734.8373,space,1.0559,,0,28,28,28,1,15,105,,,,,,,,
,,5f7aea5d4f022a1f0fe49dc4,65af55873a9969d2d2611718,2024-01-23_07h03.26.844,bars,2023.2.3,Win32,29.94011976,657b66ea316d21385b68909f,,,,,,,,,,,734.8375,735.822,,,736.3304,736.585,,11,11,,,,,,,,,,,,,,,,bars/049.png,bars/mask005.png,,,,,,,,,,,,0,1,,,,,,,4,2,4,3,,,,,,,,,,,735.822,736.3304,736.5851,737.2879,space,0.6604,,737.2879,31,76,738.267,738.267,741.5307,space,3.2192,,0,29,29,29,1,160,115,,,,,,,,
,,5f7aea5d4f022a1f0fe49dc4,65af55873a9969d2d2611718,2024-01-23_07h03.26.844,bars,2023.2.3,Win32,29.94011976,657b66ea316d21385b68909f,,,,,,,,,,,741.5351,742.5236,,,743.0131,743.2522,,179,179,,,,,,,,,,,,,,,,bars/015.png,bars/mask002.png,,,,,,,,,,,,0,2,,,,,,,6,0,8,0,,,,,,,,,,,742.5236,743.0131,743.2523,745.8947,space,2.5924,,745.8947,69,19,746.8611,746.8611,747.6982,space,0.7933,,0,30,30,30,1,110,160,,,,,,,,
,,5f7aea5d4f022a1f0fe49dc4,65af55873a9969d2d2611718,2024-01-23_07h03.26.844,bars,2023.2.3,Win32,29.94011976,657b66ea316d21385b68909f,,,,,,,,,,,747.6985,748.6804,,,749.1685,749.4049,,165,165,,,,,,,,,,,,,,,,bars/046.png,bars/mask008.png,,,,,,,,,,,,3,1,,,,,,,4,2,5,3,,,,,,,,,,,748.6804,749.1685,749.4049,754.4546,space,5.0067,,754.4547,10,80,755.4582,755.4583,756.2156,space,0.7093,,0,31,31,31,1,155,85,,,,,,,,
,,5f7aea5d4f022a1f0fe49dc4,65af55873a9969d2d2611718,2024-01-23_07h03.26.844,bars,2023.2.3,Win32,29.94011976,657b66ea316d21385b68909f,,,,,,,,,,,756.216,757.209,,,757.6844,757.912,,78,78,,,,,,,,,,,,,,,,bars/017.png,bars/mask000.png,,,,,,,,,,,,0,2,,,,,,,2,4,1,4,,,,,,,,,,,757.209,757.6844,757.9121,760.3116,space,2.3574,,760.3117,67,33,761.3114,761.3115,762.1757,space,0.8191,,0,32,32,32,1,145,45,,,,,,,,
,,5f7aea5d4f022a1f0fe49dc4,65af55873a9969d2d2611718,2024-01-23_07h03.26.844,bars,2023.2.3,Win32,29.94011976,657b66ea316d21385b68909f,,,,,,,,,,,762.176,763.1656,,,763.6693,763.9007,,156,156,,,,,,,,,,,,,,,,bars/038.png,bars/mask009.png,,,,,,,,,,,,3,1,,,,,,,4,2,4,1,,,,,,,,,,,763.1656,763.6693,763.9007,770.0937,space,6.14,,770.0938,9,86,771.0954,771.0954,772.775,space,1.6315,,0,33,33,33,1,165,70,,,,,,,,
,,5f7aea5d4f022a1f0fe49dc4,65af55873a9969d2d2611718,2024-01-23_07h03.26.844,bars,2023.2.3,Win32,29.94011976,657b66ea316d21385b68909f,,,,,,,,,,,772.7752,773.7638,,,774.2682,774.4991,,21,201,,,,,,,,,,,,,,,,bars/000.png,bars/mask000.png,,,,,,,,,,,,1,1,,,,,,,2,4,4,5,,,,,,,,,,,773.7638,774.2682,774.4991,779.002,space,4.4597,,779.002,19,56,779.9892,779.9892,782.3845,space,2.3526,,0,34,34,34,1,40,145,,,,,,,,
,,5f7aea5d4f022a1f0fe49dc4,65af55873a9969d2d2611718,2024-01-23_07h03.26.844,bars,2023.2.3,Win32,29.94011976,657b66ea316d21385b68909f,,,,,,,,,,,782.3848,783.3745,,,783.8743,784.107,,141,141,,,,,,,,,,,,,,,,bars/049.png,bars/mask008.png,,,,,,,,,,,,2,1,,,,,,,4,6,5,6,,,,,,,,,,,783.3746,783.8742,784.107,788.4392,space,4.288,,788.4393,19,26,789.4261,789.4261,790.7792,space,1.3025,,0,35,35,35,1,160,115,,,,,,,,
,,5f7aea5d4f022a1f0fe49dc4,65af55873a9969d2d2611718,2024-01-23_07h03.26.844,bars,2023.2.3,Win32,29.94011976,657b66ea316d21385b68909f,,,,,,,,,,,790.7794,791.7665,,,792.2854,792.5165,,68,248,,,,,,,,,,,,,,,,bars/037.png,bars/mask008.png,,,,,,,,,,,,0,2,,,,,,,6,4,6,4,,,,,,,,,,,791.7666,792.2854,792.5165,798.3815,space,5.8202,,798.3815,82,37,799.358,799.358,800.3408,space,0.9346,,0,36,36,36,1,150,105,,,,,,,,
,,5f7aea5d4f022a1f0fe49dc4,65af55873a9969d2d2611718,2024-01-23_07h03.26.844,bars,2023.2.3,Win32,29.94011976,657b66ea316d21385b68909f,,,,,,,,,,,800.341,801.3373,,,801.849,802.0928,,41,41,,,,,,,,,,,,,,,,bars/020.png,bars/mask002.png,,,,,,,,,,,,0,2,,,,,,,8,2,9,2,,,,,,,,,,,801.3373,801.849,802.0928,805.2968,space,3.1622,,805.2968,74,51,806.2925,806.2926,808.1216,space,1.7798,,0,37,37,37,1,115,170,,,,,,,,
,,5f7aea5d4f022a1f0fe49dc4,65af55873a9969d2d2611718,2024-01-23_07h03.26.844,bars,2023.2.3,Win32,29.94011976,657b66ea316d21385b68909f,,,,,,,,,,,808.1219,809.1114,,,809.5797,809.8133,,41,221,,,,,,,,,,,,,,,,bars/016.png,bars/mask009.png,,,,,,,,,,,,7,1,,,,,,,10,4,7,4,,,,,,,,,,,809.1114,809.5797,809.8133,814.542,space,4.6858,,814.542,1,56,815.5374,815.5374,819.7582,space,4.1763,,0,38,38,38,1,40,165,,,,,,,,
,,5f7aea5d4f022a1f0fe49dc4,65af55873a9969d2d2611718,2024-01-23_07h03.26.844,bars,2023.2.3,Win32,29.94011976,657b66ea316d21385b68909f,,,,,,,,,,,819.7627,820.7417,,,821.2174,821.4576,,160,160,,,,,,,,,,,,,,,,bars/045.png,bars/mask006.png,,,,,,,,,,,,0,2,,,,,,,10,6,10,5,,,,,,,,,,,820.7417,821.2174,821.4576,825.9413,space,4.4402,,825.9413,60,30,826.9311,826.9311,828.3802,space,1.4053,,0,39,39,39,1,100,10,,,,,,,,
,,5f7aea5d4f022a1f0fe49dc4,65af55873a9969d2d2611718,2024-01-23_07h03.26.844,bars,2023.2.3,Win32,29.94011976,657b66ea316d21385b68909f,,,,,,,,,,,828.3805,829.376,,,829.8775,830.1073,,124,124,,,,,,,,,,,,,,,,bars/016.png,bars/mask000.png,,,,,,,,,,,,0,2,,,,,,,8,4,10,4,,,,,,,,,,,829.376,829.8774,830.1073,833.4978,space,3.3449,,833.4979,84,41,834.5026,834.5027,836.4966,space,1.9396,,0,40,40,40,1,40,165,,,,,,,,
,,5f7aea5d4f022a1f0fe49dc4,65af55873a9969d2d2611718,2024-01-23_07h03.26.844,bars,2023.2.3,Win32,29.94011976,657b66ea316d21385b68909f,,,,,,,,,,,836.4969,837.482,,,837.9942,838.2251,,58,238,,,,,,,,,,,,,,,,bars/005.png,bars/mask001.png,,,,,,,,,,,,0,1,,,,,,,10,2,10,2,,,,,,,,,,,837.482,837.9942,838.2251,843.9496,space,5.6813,,843.9496,48,82,844.9423,844.9423,850.7629,space,5.7728,,0,41,41,41,1,10,140,,,,,,,,
,,5f7aea5d4f022a1f0fe49dc4,65af55873a9969d2d2611718,2024-01-23_07h03.26.844,bars,2023.2.3,Win32,29.94011976,657b66ea316d21385b68909f,,,,,,,,,,,850.7674,851.7385,,,852.2022,852.4336,,143,143,,,,,,,,,,,,,,,,bars/016.png,bars/mask003.png,,,,,,,,,,,,0,2,,,,,,,10,0,10,0,,,,,,,,,,,851.7385,852.2022,852.4336,857.7409,space,5.2643,,857.7409,77,22,858.7242,858.7242,861.4926,space,2.72,,0,42,42,42,1,40,165,,,,,,,,
,,5f7aea5d4f022a1f0fe49dc4,65af55873a9969d2d2611718,2024-01-23_07h03.26.844,bars,2023.2.3,Win32,29.94011976,657b66ea316d21385b68909f,,,,,,,,,,,861.4928,862.4967,,,862.9604,863.2302,,165,165,,,,,,,,,,,,,,,,bars/037.png,bars/mask000.png,,,,,,,,,,,,4,1,,,,,,,8,0,8,1,,,,,,,,,,,862.4967,862.9604,863.2303,865.1598,space,1.8808,,865.1598,15,60,866.1659,866.1659,868.3432,space,2.1273,,0,43,43,43,1,150,105,,,,,,,,
,,5f7aea5d4f022a1f0fe49dc4,65af55873a9969d2d2611718,2024-01-23_07h03.26.844,bars,2023.2.3,Win32,29.94011976,657b66ea316d21385b68909f,,,,,,,,,,,868.3433,869.3368,,,869.8225,870.0778,,178,178,,,,,,,,,,,,,,,,bars/000.png,bars/mask004.png,,,,,,,,,,,,0,2,,,,,,,10,2,10,0,,,,,,,,,,,869.3368,869.8225,870.0778,870.8375,space,0.7174,,870.8375,42,33,871.8404,871.8404,873.2406,space,1.3557,,0,44,44,44,1,40,145,,,,,,,,
,,5f7aea5d4f022a1f0fe49dc4,65af55873a9969d2d2611718,2024-01-23_07h03.26.844,bars,2023.2.3,Win32,29.94011976,657b66ea316d21385b68909f,,,,,,,,,,,873.2409,874.2447,,,874.7222,874.9632,,178,-2,,,,,,,,,,,,,,,,bars/049.png,bars/mask004.png,,,,,,,,,,,,4,1,,,,,,,10,4,10,4,,,,,,,,,,,874.2448,874.7222,874.9632,879.1288,space,4.124,,879.1288,18,63,880.13,880.13,882.7112,space,2.5338,,0,45,45,45,1,160,115,,,,,,,,
,,5f7aea5d4f022a1f0fe49dc4,65af55873a9969d2d2611718,2024-01-23_07h03.26.844,bars,2023.2.3,Win32,29.94011976,657b66ea316d21385b68909f,,,,,,,,,,,882.7114,883.7115,,,884.2128,884.4442,,22,22,,,,,,,,,,,,,,,,bars/030.png,bars/mask000.png,,,,,,,,,,,,0,2,,,,,,,8,6,9,5,,,,,,,,,,,883.7115,884.2128,884.4442,887.5948,space,3.107,,887.5948,62,43,888.5998,888.5998,889.525,space,0.8822,,0,46,46,46,1,140,65,,,,,,,,
,,5f7aea5d4f022a1f0fe49dc4,65af55873a9969d2d2611718,2024-01-23_07h03.26.844,bars,2023.2.3,Win32,29.94011976,657b66ea316d21385b68909f,,,,,,,,,,,889.5253,890.5277,,,891.0013,891.2452,,147,147,,,,,,,,,,,,,,,,bars/048.png,bars/mask001.png,,,,,,,,,,,,1,2,,,,,,,10,8,9,8,,,,,,,,,,,890.5277,891.0013,891.2452,894.1692,space,2.8814,,894.1693,83,28,895.1752,895.1752,897.1601,space,1.9367,,0,47,47,47,1,50,175,,,,,,,,
,,5f7aea5d4f022a1f0fe49dc4,65af55873a9969d2d2611718,2024-01-23_07h03.26.844,bars,2023.2.3,Win32,29.94011976,657b66ea316d21385b68909f,,,,,,,,,,,897.1603,898.1394,,,898.6098,898.8474,,67,67,,,,,,,,,,,,,,,,bars/025.png,bars/mask000.png,,,,,,,,,,,,1,2,,,,,,,10,6,10,7,,,,,,,,,,,898.1394,898.6097,898.8474,901.3977,space,2.5068,,901.3978,38,27,902.3705,902.3705,906.1475,space,3.7307,,0,48,48,48,1,105,40,,,,,,,,
,,5f7aea5d4f022a1f0fe49dc4,65af55873a9969d2d2611718,2024-01-23_07h03.26.844,bars,2023.2.3,Win32,29.94011976,657b66ea316d21385b68909f,,,,,,,,,,,906.1477,907.1488,,,907.6262,907.8725,,133,133,,,,,,,,,,,,,,,,bars/011.png,bars/mask009.png,,,,,,,,,,,,1,1,,,,,,,8,8,9,9,,,,,,,,,,,907.1489,907.6262,907.8725,911.2945,space,3.3768,,911.2945,27,48,912.2837,912.2837,913.8377,space,1.504,,0,49,49,49,1,160,85,,,,,,,,
,,5f7aea5d4f022a1f0fe49dc4,65af55873a9969d2d2611718,2024-01-23_07h03.26.844,bars,2023.2.3,Win32,29.94011976,657b66ea316d21385b68909f,,,,,,,,,,,,,,,,,,,,,,,,,,,,,,,,,,,,,,,,,,,,,,,,,,,,,,,,,,,,,,,,,,,,,,,,,,,,,,,,,,,,,,,,,,,,,913.838,973.8551,0,0,0,3,1,sequence_tables/blk038.csv
,,5f7aea5d4f022a1f0fe49dc4,65af55873a9969d2d2611718,2024-01-23_07h03.26.844,bars,2023.2.3,Win32,29.94011976,657b66ea316d21385b68909f,,,,,,,,,,,986.7601,987.7361,,,988.1999,988.4324,,156,156,,,,,,,,,,,,,,,,bars/038.png,bars/mask001.png,,,,,,,,,,,,3,1,,,,,,,3,6,4,7,,,,,,973.8601,986.7528,space,12.8518,,987.7362,988.1998,988.4325,991.9434,space,3.4695,,991.9434,9,86,992.9516,992.9516,992.9563,,,,0,0,0,0,1,165,70,,,,,,,,
,,5f7aea5d4f022a1f0fe49dc4,65af55873a9969d2d2611718,2024-01-23_07h03.26.844,bars,2023.2.3,Win32,29.94011976,657b66ea316d21385b68909f,,,,,,,,,,,992.9565,993.9707,,,994.4496,994.6777,,125,-55,,,,,,,,,,,,,,,,bars/042.png,bars/mask005.png,,,,,,,,,,,,1,1,,,,,,,5,8,3,7,,,,,,,,,,,993.9707,994.4495,994.6777,999.3864,space,4.6559,,999.3864,20,50,1000.3531,1000.3531,1000.3577,,,,0,1,1,1,1,145,75,,,,,,,,
,,5f7aea5d4f022a1f0fe49dc4,65af55873a9969d2d2611718,2024-01-23_07h03.26.844,bars,2023.2.3,Win32,29.94011976,657b66ea316d21385b68909f,,,,,,,,,,,1000.3578,1001.3219,,,1001.8015,1002.0351,,47,227,,,,,,,,,,,,,,,,bars/014.png,bars/mask007.png,,,,,,,,,,,,0,1,,,,,,,7,10,8,10,,,,,,,,,,,1001.3219,1001.8015,1002.0351,1007.6825,space,5.6067,,1007.6825,33,47,1008.6863,1008.6863,1008.6908,,,,0,2,2,2,1,80,0,,,,,,,,
,,5f7aea5d4f022a1f0fe49dc4,65af55873a9969d2d2611718,2024-01-23_07h03.26.844,bars,2023.2.3,Win32,29.94011976,657b66ea316d21385b68909f,,,,,,,,,,,1008.6909,1009.696,,,1010.203,1010.4389,,103,103,,,,,,,,,,,,,,,,bars/049.png,bars/mask003.png,,,,,,,,,,,,6,2,,,,,,,5,10,5,10,,,,,,,,,,,1009.696,1010.203,1010.4389,1014.779,space,4.2919,,1014.779,57,12,1015.7815,1015.7815,1015.7825,,,,0,3,3,3,1,160,115,,,,,,,,
,,5f7aea5d4f022a1f0fe49dc4,65af55873a9969d2d2611718,2024-01-23_07h03.26.844,bars,2023.2.3,Win32,29.94011976,657b66ea316d21385b68909f,,,,,,,,,,,1015.7827,1016.7485,,,1017.2225,1017.4529,,71,71,,,,,,,,,,,,,,,,bars/008.png,bars/mask008.png,,,,,,,,,,,,0,1,,,,,,,3,10,2,8,,,,,,,,,,,1016.7485,1017.2225,1017.453,1020.6507,space,3.1552,,1020.6507,39,71,1021.6499,1021.6499,1021.6509,,,,0,4,4,4,1,110,0,,,,,,,,
,,5f7aea5d4f022a1f0fe49dc4,65af55873a9969d2d2611718,2024-01-23_07h03.26.844,bars,2023.2.3,Win32,29.94011976,657b66ea316d21385b68909f,,,,,,,,,,,1021.6511,1022.6451,,,1023.1535,1023.3967,,23,23,,,,,,,,,,,,,,,,bars/007.png,bars/mask004.png,,,,,,,,,,,,0,1,,,,,,,1,10,1,9,,,,,,,,,,,1022.6452,1023.1535,1023.3967,1026.0192,space,2.5813,,1026.0192,28,32,1026.9999,1026.9999,1027.0003,,,,0,5,5,5,1,175,55,,,,,,,,
,,5f7aea5d4f022a1f0fe49dc4,65af55873a9969d2d2611718,2024-01-23_07h03.26.844,bars,2023.2.3,Win32,29.94011976,657b66ea316d21385b68909f,,,,,,,,,,,1027.0004,1027.9906,,,1028.5071,1028.7482,,121,121,,,,,,,,,,,,,,,,bars/044.png,bars/mask000.png,,,,,,,,,,,,0,2,,,,,,,3,10,1,10,,,,,,,,,,,1027.9906,1028.5071,1028.7482,1030.014,space,1.2235,,1030.0141,46,34,1031.0115,1031.0116,1031.0124,,,,0,6,6,6,1,75,155,,,,,,,,
,,5f7aea5d4f022a1f0fe49dc4,65af55873a9969d2d2611718,2024-01-23_07h03.26.844,bars,2023.2.3,Win32,29.94011976,657b66ea316d21385b68909f,,,,,,,,,,,1031.0126,1032.0083,,,1032.4747,1032.7197,,39,39,,,,,,,,,,,,,,,,bars/018.png,bars/mask007.png,,,,,,,,,,,,0,2,,,,,,,5,10,5,10,,,,,,,,,,,1032.0083,1032.4747,1032.7197,1035.1975,space,2.4363,,1035.1975,69,51,1036.1833,1036.1834,1036.1837,,,,0,7,7,7,1,150,90,,,,,,,,
,,5f7aea5d4f022a1f0fe49dc4,65af55873a9969d2d2611718,2024-01-23_07h03.26.844,bars,2023.2.3,Win32,29.94011976,657b66ea316d21385b68909f,,,,,,,,,,,1036.1839,1037.1674,,,1037.6558,1037.8569,,112,112,,,,,,,,,,,,,,,,bars/038.png,bars/mask000.png,,,,,,,,,,,,0,2,,,,,,,7,8,7,9,,,,,,,,,,,1037.1675,1037.6558,1037.857,1039.4702,space,1.5696,,1039.4702,53,42,1040.4364,1040.4364,1040.4368,,,,0,8,8,8,1,165,70,,,,,,,,
,,5f7aea5d4f022a1f0fe49dc4,65af55873a9969d2d2611718,2024-01-23_07h03.26.844,bars,2023.2.3,Win32,29.94011976,657b66ea316d21385b68909f,,,,,,,,,,,1040.4369,1041.4324,,,1041.9321,1042.1692,,26,26,,,,,,,,,,,,,,,,bars/023.png,bars/mask008.png,,,,,,,,,,,,6,1,,,,,,,5,6,7,5,,,,,,,,,,,1041.4324,1041.9321,1042.1693,1044.89,space,2.6783,,1044.89,6,89,1045.8785,1045.8785,1045.8794,,,,0,9,9,9,1,20,115,,,,,,,,
,,5f7aea5d4f022a1f0fe49dc4,65af55873a9969d2d2611718,2024-01-23_07h03.26.844,bars,2023.2.3,Win32,29.94011976,657b66ea316d21385b68909f,,,,,,,,,,,1045.8795,1046.8768,,,1047.3515,1047.5813,,23,23,,,,,,,,,,,,,,,,bars/020.png,bars/mask004.png,,,,,,,,,,,,0,2,,,,,,,7,8,7,10,,,,,,,,,,,1046.8768,1047.3515,1047.5813,1049.5952,space,1.973,,1049.5952,88,33,1050.587,1050.5871,1050.5883,,,,0,10,10,10,1,115,170,,,,,,,,
,,5f7aea5d4f022a1f0fe49dc4,65af55873a9969d2d2611718,2024-01-23_07h03.26.844,bars,2023.2.3,Win32,29.94011976,657b66ea316d21385b68909f,,,,,,,,,,,1050.5885,1051.607,,,1052.0696,1052.2994,,158,-22,,,,,,,,,,,,,,,,bars/023.png,bars/mask000.png,,,,,,,,,,,,0,1,,,,,,,9,10,8,9,,,,,,,,,,,1051.607,1052.0696,1052.2994,1056.5334,space,4.1922,,1056.5334,42,43,1057.5343,1057.5343,1057.5354,,,,0,11,11,11,1,20,115,,,,,,,,
,,5f7aea5d4f022a1f0fe49dc4,65af55873a9969d2d2611718,2024-01-23_07h03.26.844,bars,2023.2.3,Win32,29.94011976,657b66ea316d21385b68909f,,,,,,,,,,,1057.5355,1058.5326,,,1059.039,1059.2781,,37,37,,,,,,,,,,,,,,,,bars/043.png,bars/mask008.png,,,,,,,,,,,,7,1,,,,,,,10,10,9,10,,,,,,,,,,,1058.5326,1059.039,1059.2781,1061.4244,space,2.1058,,1061.4244,7,87,1062.4152,1062.4152,1062.4158,,,,0,12,12,12,1,30,130,,,,,,,,
,,5f7aea5d4f022a1f0fe49dc4,65af55873a9969d2d2611718,2024-01-23_07h03.26.844,bars,2023.2.3,Win32,29.94011976,657b66ea316d21385b68909f,,,,,,,,,,,1062.416,1063.3994,,,1063.8843,1064.1134,,103,103,,,,,,,,,,,,,,,,bars/039.png,bars/mask005.png,,,,,,,,,,,,7,2,,,,,,,8,8,8,8,,,,,,,,,,,1063.3994,1063.8843,1064.1134,1066.2405,space,2.0863,,1066.2406,72,2,1067.2386,1067.2387,1067.2397,,,,0,13,13,13,1,175,105,,,,,,,,
,,5f7aea5d4f022a1f0fe49dc4,65af55873a9969d2d2611718,2024-01-23_07h03.26.844,bars,2023.2.3,Win32,29.94011976,657b66ea316d21385b68909f,,,,,,,,,,,1067.2398,1068.2397,,,1068.7221,1068.9504,,160,-20,,,,,,,,,,,,,,,,bars/004.png,bars/mask006.png,,,,,,,,,,,,0,2,,,,,,,10,10,10,10,,,,,,,,,,,1068.2397,1068.7221,1068.9504,1070.5734,space,1.5758,,1070.5734,45,35,1071.5391,1071.5391,1071.5395,,,,0,14,14,14,1,25,125,,,,,,,,
,,5f7aea5d4f022a1f0fe49dc4,65af55873a9969d2d2611718,2024-01-23_07h03.26.844,bars,2023.2.3,Win32,29.94011976,657b66ea316d21385b68909f,,,,,,,,,,,1071.5396,1072.5324,,,1073.0356,1073.2689,,126,126,,,,,,,,,,,,,,,,bars/045.png,bars/mask001.png,,,,,,,,,,,,1,1,,,,,,,8,10,6,10,,,,,,,,,,,1072.5324,1073.0356,1073.2689,1075.7593,space,2.4489,,1075.7593,26,64,1076.7434,1076.7434,1076.7443,,,,0,15,15,15,1,100,10,,,,,,,,
,,5f7aea5d4f022a1f0fe49dc4,65af55873a9969d2d2611718,2024-01-23_07h03.26.844,bars,2023.2.3,Win32,29.94011976,657b66ea316d21385b68909f,,,,,,,,,,,1076.7444,1077.7397,,,1078.2182,1078.445,,51,51,,,,,,,,,,,,,,,,bars/012.png,bars/mask009.png,,,,,,,,,,,,0,2,,,,,,,10,10,10,9,,,,,,,,,,,1077.7397,1078.2182,1078.445,1081.104,space,2.6174,,1081.1041,39,36,1082.099,1082.0991,1082.1001,,,,0,16,16,16,1,90,15,,,,,,,,
,,5f7aea5d4f022a1f0fe49dc4,65af55873a9969d2d2611718,2024-01-23_07h03.26.844,bars,2023.2.3,Win32,29.94011976,657b66ea316d21385b68909f,,,,,,,,,,,1082.1002,1083.0661,,,1083.5479,1083.7866,,132,132,,,,,,,,,,,,,,,,bars/042.png,bars/mask004.png,,,,,,,,,,,,6,1,,,,,,,10,10,10,10,,,,,,,,,,,1083.0661,1083.5479,1083.7866,1085.6887,space,1.8589,,1085.6887,13,57,1086.6821,1086.6822,1086.6837,,,,0,17,17,17,1,145,75,,,,,,,,
,,5f7aea5d4f022a1f0fe49dc4,65af55873a9969d2d2611718,2024-01-23_07h03.26.844,bars,2023.2.3,Win32,29.94011976,657b66ea316d21385b68909f,,,,,,,,,,,1086.6838,1087.6536,,,1088.1175,1088.3504,,29,29,,,,,,,,,,,,,,,,bars/021.png,bars/mask000.png,,,,,,,,,,,,0,2,,,,,,,10,10,9,10,,,,,,,,,,,1087.6536,1088.1175,1088.3504,1091.2688,space,2.8761,,1091.2688,54,41,1092.2675,1092.2675,1092.2685,,,,0,18,18,18,1,155,70,,,,,,,,
,,5f7aea5d4f022a1f0fe49dc4,65af55873a9969d2d2611718,2024-01-23_07h03.26.844,bars,2023.2.3,Win32,29.94011976,657b66ea316d21385b68909f,,,,,,,,,,,1092.2686,1093.2314,,,1093.7304,1093.9677,,10,10,,,,,,,,,,,,,,,,bars/014.png,bars/mask001.png,,,,,,,,,,,,5,2,,,,,,,8,8,10,8,,,,,,,,,,,1093.2314,1093.7304,1093.9677,1096.4674,space,2.4595,,1096.4674,70,10,1097.4571,1097.4572,1097.4575,,,,0,19,19,19,1,80,0,,,,,,,,
,,5f7aea5d4f022a1f0fe49dc4,65af55873a9969d2d2611718,2024-01-23_07h03.26.844,bars,2023.2.3,Win32,29.94011976,657b66ea316d21385b68909f,,,,,,,,,,,1097.4576,1098.4526,,,1098.9219,1099.1534,,103,103,,,,,,,,,,,,,,,,bars/005.png,bars/mask003.png,,,,,,,,,,,,0,2,,,,,,,10,6,10,5,,,,,,,,,,,1098.4527,1098.9219,1099.1534,1102.6774,space,3.4798,,1102.6774,87,37,1103.6719,1103.6719,1103.6723,,,,0,20,20,20,1,10,140,,,,,,,,
,,5f7aea5d4f022a1f0fe49dc4,65af55873a9969d2d2611718,2024-01-23_07h03.26.844,bars,2023.2.3,Win32,29.94011976,657b66ea316d21385b68909f,,,,,,,,,,,1103.6725,1104.6698,,,1105.1409,1105.3668,,8,8,,,,,,,,,,,,,,,,bars/006.png,bars/mask008.png,,,,,,,,,,,,1,1,,,,,,,10,4,10,5,,,,,,,,,,,1104.6698,1105.1409,1105.3668,1107.5432,space,2.1359,,1107.5433,27,88,1108.5424,1108.5424,1108.5432,,,,0,21,21,21,1,35,100,,,,,,,,
,,5f7aea5d4f022a1f0fe49dc4,65af55873a9969d2d2611718,2024-01-23_07h03.26.844,bars,2023.2.3,Win32,29.94011976,657b66ea316d21385b68909f,,,,,,,,,,,1108.5433,1109.5186,,,1109.9882,1110.2311,,13,13,,,,,,,,,,,,,,,,bars/042.png,bars/mask003.png,,,,,,,,,,,,0,1,,,,,,,8,2,9,0,,,,,,,,,,,1109.5186,1109.9882,1110.2312,1114.7444,space,4.4732,,1114.7444,48,62,1115.7142,1115.7142,1115.719,,,,0,22,22,22,1,145,75,,,,,,,,
,,5f7aea5d4f022a1f0fe49dc4,65af55873a9969d2d2611718,2024-01-23_07h03.26.844,bars,2023.2.3,Win32,29.94011976,657b66ea316d21385b68909f,,,,,,,,,,,1115.7191,1116.7162,,,1117.1872,1117.4243,,130,-50,,,,,,,,,,,,,,,,bars/013.png,bars/mask005.png,,,,,,,,,,,,0,1,,,,,,,6,4,6,3,,,,,,,,,,,1116.7162,1117.1872,1117.4244,1120.2902,space,2.824,,1120.2902,55,60,1121.3007,1121.3007,1121.3011,,,,0,23,23,23,1,75,10,,,,,,,,
,,5f7aea5d4f022a1f0fe49dc4,65af55873a9969d2d2611718,2024-01-23_07h03.26.844,bars,2023.2.3,Win32,29.94011976,657b66ea316d21385b68909f,,,,,,,,,,,1121.3012,1122.3194,,,1122.7875,1123.0236,,135,135,,,,,,,,,,,,,,,,bars/044.png,bars/mask008.png,,,,,,,,,,,,2,2,,,,,,,8,6,8,6,,,,,,,,,,,1122.3194,1122.7875,1123.0236,1126.2489,space,3.1841,,1126.249,60,20,1127.2267,1127.2267,1127.2277,,,,0,24,24,24,1,75,155,,,,,,,,
,,5f7aea5d4f022a1f0fe49dc4,65af55873a9969d2d2611718,2024-01-23_07h03.26.844,bars,2023.2.3,Win32,29.94011976,657b66ea316d21385b68909f,,,,,,,,,,,1127.2278,1128.231,,,1128.7376,1128.9712,,129,-51,,,,,,,,,,,,,,,,bars/039.png,bars/mask001.png,,,,,,,,,,,,1,2,,,,,,,10,4,10,5,,,,,,,,,,,1128.231,1128.7376,1128.9712,1132.8601,space,3.8472,,1132.8601,46,24,1133.8391,1133.8391,1133.8395,,,,0,25,25,25,1,175,105,,,,,,,,
,,5f7aea5d4f022a1f0fe49dc4,65af55873a9969d2d2611718,2024-01-23_07h03.26.844,bars,2023.2.3,Win32,29.94011976,657b66ea316d21385b68909f,,,,,,,,,,,1133.8396,1134.8319,,,1135.303,1135.5362,,14,14,,,,,,,,,,,,,,,,bars/044.png,bars/mask008.png,,,,,,,,,,,,0,2,,,,,,,10,2,10,2,,,,,,,,,,,1134.832,1135.303,1135.5362,1139.1187,space,3.5409,,1139.1188,61,39,1140.1209,1140.121,1140.1212,,,,0,26,26,26,1,75,155,,,,,,,,
,,5f7aea5d4f022a1f0fe49dc4,65af55873a9969d2d2611718,2024-01-23_07h03.26.844,bars,2023.2.3,Win32,29.94011976,657b66ea316d21385b68909f,,,,,,,,,,,1140.1213,1141.1134,,,1141.577,1141.8102,,141,-39,,,,,,,,,,,,,,,,bars/029.png,bars/mask004.png,,,,,,,,,,,,0,1,,,,,,,8,4,7,4,,,,,,,,,,,1141.1134,1141.577,1141.8103,1145.3078,space,3.4567,,1145.3078,51,84,1146.2749,1146.2749,1146.276,,,,0,27,27,27,1,90,45,,,,,,,,
,,5f7aea5d4f022a1f0fe49dc4,65af55873a9969d2d2611718,2024-01-23_07h03.26.844,bars,2023.2.3,Win32,29.94011976,657b66ea316d21385b68909f,,,,,,,,,,,1146.2761,1147.2801,,,1147.7497,1147.9829,,129,-51,,,,,,,,,,,,,,,,bars/029.png,bars/mask000.png,,,,,,,,,,,,0,1,,,,,,,6,6,4,7,,,,,,,,,,,1147.2801,1147.7497,1147.9829,1151.3275,space,3.3025,,1151.3276,39,84,1152.3145,1152.3146,1152.315,,,,0,28,28,28,1,90,45,,,,,,,,
,,5f7aea5d4f022a1f0fe49dc4,65af55873a9969d2d2611718,2024-01-23_07h03.26.844,bars,2023.2.3,Win32,29.94011976,657b66ea316d21385b68909f,,,,,,,,,,,1152.3151,1153.287,,,1153.7983,1154.0344,,178,-2,,,,,,,,,,,,,,,,bars/014.png,bars/mask004.png,,,,,,,,,,,,4,2,,,,,,,4,4,3,4,,,,,,,,,,,1153.2871,1153.7983,1154.0344,1155.4138,space,1.3381,,1155.4138,82,2,1156.4091,1156.4091,1156.41,,,,0,29,29,29,1,80,0,,,,,,,,
,,5f7aea5d4f022a1f0fe49dc4,65af55873a9969d2d2611718,2024-01-23_07h03.26.844,bars,2023.2.3,Win32,29.94011976,657b66ea316d21385b68909f,,,,,,,,,,,1156.4101,1157.4144,,,1157.886,1158.1315,,88,88,,,,,,,,,,,,,,,,bars/044.png,bars/mask001.png,,,,,,,,,,,,3,1,,,,,,,6,2,6,3,,,,,,,,,,,1157.4144,1157.886,1158.1316,1160.1263,space,1.9474,,1160.1264,13,67,1161.1149,1161.115,1161.1164,,,,0,30,30,30,1,75,155,,,,,,,,
,,5f7aea5d4f022a1f0fe49dc4,65af55873a9969d2d2611718,2024-01-23_07h03.26.844,bars,2023.2.3,Win32,29.94011976,657b66ea316d21385b68909f,,,,,,,,,,,1161.1164,1162.1206,,,1162.5989,1162.8246,,133,133,,,,,,,,,,,,,,,,bars/043.png,bars/mask000.png,,,,,,,,,,,,0,2,,,,,,,4,0,5,0,,,,,,,,,,,1162.1206,1162.5989,1162.8246,1165.0122,space,2.1463,,1165.0122,77,3,1166.0189,1166.019,1166.02,,,,0,31,31,31,1,30,130,,,,,,,,
,,5f7aea5d4f022a1f0fe49dc4,65af55873a9969d2d2611718,2024-01-23_07h03.26.844,bars,2023.2.3,Win32,29.94011976,657b66ea316d21385b68909f,,,,,,,,,,,1166.02,1167.0249,,,1167.4989,1167.7303,,144,-36,,,,,,,,,,,,,,,,bars/007.png,bars/mask001.png,,,,,,,,,,,,0,1,,,,,,,6,2,6,2,,,,,,,,,,,1167.0249,1167.4989,1167.7304,1171.9924,space,4.2197,,1171.9924,31,89,1172.9809,1172.9809,1172.986,,,,0,32,32,32,1,175,55,,,,,,,,
,,5f7aea5d4f022a1f0fe49dc4,65af55873a9969d2d2611718,2024-01-23_07h03.26.844,bars,2023.2.3,Win32,29.94011976,657b66ea316d21385b68909f,,,,,,,,,,,1172.986,1173.9761,,,1174.4863,1174.7204,,18,198,,,,,,,,,,,,,,,,bars/036.png,bars/mask004.png,,,,,,,,,,,,5,2,,,,,,,8,4,10,5,,,,,,,,,,,1173.9761,1174.4863,1174.7204,1177.5566,space,2.7953,,1177.5566,53,2,1178.5491,1178.5491,1178.5541,,,,0,33,33,33,1,145,20,,,,,,,,
,,5f7aea5d4f022a1f0fe49dc4,65af55873a9969d2d2611718,2024-01-23_07h03.26.844,bars,2023.2.3,Win32,29.94011976,657b66ea316d21385b68909f,,,,,,,,,,,1178.5541,1179.5197,,,1180.019,1180.2586,,165,165,,,,,,,,,,,,,,,,bars/030.png,bars/mask000.png,,,,,,,,,,,,1,1,,,,,,,10,6,8,5,,,,,,,,,,,1179.5197,1180.0189,1180.2586,1184.5363,space,4.2301,,1184.5363,25,80,1185.5036,1185.5036,1185.5085,,,,0,34,34,34,1,140,65,,,,,,,,
,,5f7aea5d4f022a1f0fe49dc4,65af55873a9969d2d2611718,2024-01-23_07h03.26.844,bars,2023.2.3,Win32,29.94011976,657b66ea316d21385b68909f,,,,,,,,,,,1185.5086,1186.5067,,,1187.0112,1187.2435,,129,129,,,,,,,,,,,,,,,,bars/042.png,bars/mask000.png,,,,,,,,,,,,5,1,,,,,,,10,8,10,8,,,,,,,,,,,1186.5067,1187.0112,1187.2435,1191.3537,space,4.0604,,1191.3537,16,54,1192.3367,1192.3368,1192.3371,,,,0,35,35,35,1,145,75,,,,,,,,
,,5f7aea5d4f022a1f0fe49dc4,65af55873a9969d2d2611718,2024-01-23_07h03.26.844,bars,2023.2.3,Win32,29.94011976,657b66ea316d21385b68909f,,,,,,,,,,,1192.3371,1193.3182,,,1193.8196,1194.0502,,34,214,,,,,,,,,,,,,,,,bars/040.png,bars/mask005.png,,,,,,,,,,,,0,2,,,,,,,8,10,8,10,,,,,,,,,,,1193.3182,1193.8195,1194.0502,1197.7017,space,3.6114,,1197.7017,74,29,1198.6794,1198.6794,1198.6805,,,,0,36,36,36,1,140,5,,,,,,,,
,,5f7aea5d4f022a1f0fe49dc4,65af55873a9969d2d2611718,2024-01-23_07h03.26.844,bars,2023.2.3,Win32,29.94011976,657b66ea316d21385b68909f,,,,,,,,,,,1198.6805,1199.6832,,,1200.1598,1200.3948,,151,151,,,,,,,,,,,,,,,,bars/005.png,bars/mask002.png,,,,,,,,,,,,6,2,,,,,,,6,10,5,9,,,,,,,,,,,1199.6832,1200.1598,1200.3948,1202.8892,space,2.4478,,1202.8893,39,11,1203.8811,1203.8811,1203.8814,,,,0,37,37,37,1,10,140,,,,,,,,
,,5f7aea5d4f022a1f0fe49dc4,65af55873a9969d2d2611718,2024-01-23_07h03.26.844,bars,2023.2.3,Win32,29.94011976,657b66ea316d21385b68909f,,,,,,,,,,,1203.8816,1204.8843,,,1205.399,1205.6335,,139,139,,,,,,,,,,,,,,,,bars/019.png,bars/mask007.png,,,,,,,,,,,,0,2,,,,,,,4,8,4,8,,,,,,,,,,,1204.8843,1205.399,1205.6336,1208.6102,space,2.9343,,1208.6102,86,34,1209.5852,1209.5852,1209.5856,,,,0,38,38,38,1,45,105,,,,,,,,
,,5f7aea5d4f022a1f0fe49dc4,65af55873a9969d2d2611718,2024-01-23_07h03.26.844,bars,2023.2.3,Win32,29.94011976,657b66ea316d21385b68909f,,,,,,,,,,,1209.5857,1210.5843,,,1211.0487,1211.2853,,61,61,,,,,,,,,,,,,,,,bars/024.png,bars/mask008.png,,,,,,,,,,,,0,1,,,,,,,2,6,2,5,,,,,,,,,,,1210.5843,1211.0487,1211.2853,1214.0243,space,2.6981,,1214.0243,59,71,1215.0265,1215.0265,1215.0274,,,,0,39,39,39,1,120,170,,,,,,,,
,,5f7aea5d4f022a1f0fe49dc4,65af55873a9969d2d2611718,2024-01-23_07h03.26.844,bars,2023.2.3,Win32,29.94011976,657b66ea316d21385b68909f,,,,,,,,,,,1215.0275,1216.0131,,,1216.5169,1216.7459,,48,228,,,,,,,,,,,,,,,,bars/029.png,bars/mask003.png,,,,,,,,,,,,6,2,,,,,,,4,8,5,7,,,,,,,,,,,1216.0131,1216.5168,1216.7459,1219.7901,space,3.0021,,1219.7901,42,3,1220.7921,1220.7921,1220.793,,,,0,40,40,40,1,90,45,,,,,,,,
,,5f7aea5d4f022a1f0fe49dc4,65af55873a9969d2d2611718,2024-01-23_07h03.26.844,bars,2023.2.3,Win32,29.94011976,657b66ea316d21385b68909f,,,,,,,,,,,1220.7931,1221.7859,,,1222.2617,1222.5012,,68,68,,,,,,,,,,,,,,,,bars/011.png,bars/mask006.png,,,,,,,,,,,,2,2,,,,,,,2,6,2,5,,,,,,,,,,,1221.786,1222.2617,1222.5012,1225.7171,space,3.1737,,1225.7172,88,17,1226.7275,1226.7275,1226.7321,,,,0,41,41,41,1,160,85,,,,,,,,
,,5f7aea5d4f022a1f0fe49dc4,65af55873a9969d2d2611718,2024-01-23_07h03.26.844,bars,2023.2.3,Win32,29.94011976,657b66ea316d21385b68909f,,,,,,,,,,,1226.7322,1227.7344,,,1228.2198,1228.4629,,27,207,,,,,,,,,,,,,,,,bars/048.png,bars/mask005.png,,,,,,,,,,,,0,1,,,,,,,0,4,0,3,,,,,,,,,,,1227.7344,1228.2198,1228.463,1231.1383,space,2.6317,,1231.1383,23,32,1232.1103,1232.1103,1232.1159,,,,0,42,42,42,1,50,175,,,,,,,,
,,5f7aea5d4f022a1f0fe49dc4,65af55873a9969d2d2611718,2024-01-23_07h03.26.844,bars,2023.2.3,Win32,29.94011976,657b66ea316d21385b68909f,,,,,,,,,,,1232.116,1233.1184,,,1233.6064,1233.8447,,82,82,,,,,,,,,,,,,,,,bars/017.png,bars/mask006.png,,,,,,,,,,,,0,2,,,,,,,2,2,1,3,,,,,,,,,,,1233.1184,1233.6064,1233.8448,1237.6748,space,3.7854,,1237.6749,63,37,1238.6868,1238.6868,1238.6919,,,,0,43,43,43,1,145,45,,,,,,,,
,,5f7aea5d4f022a1f0fe49dc4,65af55873a9969d2d2611718,2024-01-23_07h03.26.844,bars,2023.2.3,Win32,29.94011976,657b66ea316d21385b68909f,,,,,,,,,,,1238.692,1239.707,,,1240.173,1240.4005,,5,185,,,,,,,,,,,,,,,,bars/038.png,bars/mask004.png,,,,,,,,,,,,2,1,,,,,,,4,4,5,4,,,,,,,,,,,1239.707,1240.173,1240.4005,1243.2921,space,2.8513,,1243.2921,20,65,1244.2987,1244.2987,1244.3039,,,,0,44,44,44,1,165,70,,,,,,,,
,,5f7aea5d4f022a1f0fe49dc4,65af55873a9969d2d2611718,2024-01-23_07h03.26.844,bars,2023.2.3,Win32,29.94011976,657b66ea316d21385b68909f,,,,,,,,,,,1244.304,1245.3117,,,1245.7837,1246.0145,,64,244,,,,,,,,,,,,,,,,bars/017.png,bars/mask004.png,,,,,,,,,,,,1,2,,,,,,,6,2,5,2,,,,,,,,,,,1245.3117,1245.7837,1246.0145,1249.4869,space,3.4309,,1249.487,81,19,1250.4813,1250.4813,1250.4823,,,,0,45,45,45,1,145,45,,,,,,,,
,,5f7aea5d4f022a1f0fe49dc4,65af55873a9969d2d2611718,2024-01-23_07h03.26.844,bars,2023.2.3,Win32,29.94011976,657b66ea316d21385b68909f,,,,,,,,,,,1250.4825,1251.4725,,,1251.9764,1252.2106,,157,157,,,,,,,,,,,,,,,,bars/043.png,bars/mask006.png,,,,,,,,,,,,0,2,,,,,,,4,4,5,2,,,,,,,,,,,1251.4725,1251.9764,1252.2106,1256.5848,space,4.332,,1256.5848,53,27,1257.5691,1257.5691,1257.5695,,,,0,46,46,46,1,30,130,,,,,,,,
,,5f7aea5d4f022a1f0fe49dc4,65af55873a9969d2d2611718,2024-01-23_07h03.26.844,bars,2023.2.3,Win32,29.94011976,657b66ea316d21385b68909f,,,,,,,,,,,1257.5695,1258.5714,,,1259.0397,1259.2699,,167,167,,,,,,,,,,,,,,,,bars/009.png,bars/mask006.png,,,,,,,,,,,,0,1,,,,,,,6,2,7,2,,,,,,,,,,,1258.5714,1259.0397,1259.2699,1262.4992,space,3.1882,,1262.4992,28,62,1263.4914,1263.4914,1263.4924,,,,0,47,47,47,1,15,105,,,,,,,,
,,5f7aea5d4f022a1f0fe49dc4,65af55873a9969d2d2611718,2024-01-23_07h03.26.844,bars,2023.2.3,Win32,29.94011976,657b66ea316d21385b68909f,,,,,,,,,,,1263.4925,1264.4927,,,1264.9754,1265.2135,,108,108,,,,,,,,,,,,,,,,bars/033.png,bars/mask009.png,,,,,,,,,,,,0,2,,,,,,,4,4,3,3,,,,,,,,,,,1264.4927,1264.9753,1265.2135,1267.5456,space,2.2898,,1267.5456,83,47,1268.5326,1268.5326,1268.5335,,,,0,48,48,48,1,25,155,,,,,,,,
,,5f7aea5d4f022a1f0fe49dc4,65af55873a9969d2d2611718,2024-01-23_07h03.26.844,bars,2023.2.3,Win32,29.94011976,657b66ea316d21385b68909f,,,,,,,,,,,1268.5336,1269.5461,,,1270.0105,1270.2402,,63,63,,,,,,,,,,,,,,,,bars/017.png,bars/mask008.png,,,,,,,,,,,,1,2,,,,,,,2,2,1,2,,,,,,,,,,,1269.5462,1270.0105,1270.2402,1272.7385,space,2.4574,,1272.7385,82,18,1273.7142,1273.7142,1273.7147,,,,0,49,49,49,1,145,45,,,,,,,,
,,5f7aea5d4f022a1f0fe49dc4,65af55873a9969d2d2611718,2024-01-23_07h03.26.844,bars,2023.2.3,Win32,29.94011976,657b66ea316d21385b68909f,,,,,,,,,,,,,,,,,,,,,,,,,,,,,,,,,,,,,,,,,,,,,,,,,,,,,,,,,,,,,,,,,,,,,,,,,,,,,,,,,,,,,,,,,,,,,1273.7148,1333.7175,0,1,1,0,1,sequence_tables/blk020.csv
,,5f7aea5d4f022a1f0fe49dc4,65af55873a9969d2d2611718,2024-01-23_07h03.26.844,bars,2023.2.3,Win32,29.94011976,657b66ea316d21385b68909f,,,,,,,,,,,1365.6435,1366.6419,,,1367.1262,1367.3511,,41,221,,,,,,,,,,,,,,,,bars/032.png,bars/mask004.png,,,,,,,,,,,,3,2,,,,,,,9,8,9,9,,,,,,1333.7223,1365.6372,space,31.8748,,1366.6419,1367.1262,1367.3512,1371.392,space,3.9964,,1371.392,84,21,1372.3753,1372.3754,1372.38,,,,0,0,0,0,1,125,20,,,,,,,,
,,5f7aea5d4f022a1f0fe49dc4,65af55873a9969d2d2611718,2024-01-23_07h03.26.844,bars,2023.2.3,Win32,29.94011976,657b66ea316d21385b68909f,,,,,,,,,,,1372.38,1373.3745,,,1373.8485,1374.076,,168,168,,,,,,,,,,,,,,,,bars/049.png,bars/mask000.png,,,,,,,,,,,,5,1,,,,,,,7,10,7,10,,,,,,,,,,,1373.3745,1373.8485,1374.076,1377.7221,space,3.5971,,1377.7221,8,53,1378.7183,1378.7183,1378.7234,,,,0,1,1,1,1,160,115,,,,,,,,
,,5f7aea5d4f022a1f0fe49dc4,65af55873a9969d2d2611718,2024-01-23_07h03.26.844,bars,2023.2.3,Win32,29.94011976,657b66ea316d21385b68909f,,,,,,,,,,,1378.7235,1379.7114,,,1380.176,1380.4146,,65,65,,,,,,,,,,,,,,,,bars/020.png,bars/mask006.png,,,,,,,,,,,,0,1,,,,,,,9,10,9,10,,,,,,,,,,,1379.7114,1380.176,1380.4146,1382.9263,space,2.4652,,1382.9263,50,75,1383.9309,1383.9309,1383.9353,,,,0,2,2,2,1,115,170,,,,,,,,
,,5f7aea5d4f022a1f0fe49dc4,65af55873a9969d2d2611718,2024-01-23_07h03.26.844,bars,2023.2.3,Win32,29.94011976,657b66ea316d21385b68909f,,,,,,,,,,,1383.9355,1384.9309,,,1385.4043,1385.6357,,150,150,,,,,,,,,,,,,,,,bars/009.png,bars/mask006.png,,,,,,,,,,,,0,2,,,,,,,7,8,8,6,,,,,,,,,,,1384.9309,1385.4042,1385.6357,1388.3081,space,2.6308,,1388.3081,45,45,1389.2982,1389.2982,1389.2991,,,,0,3,3,3,1,15,105,,,,,,,,
,,5f7aea5d4f022a1f0fe49dc4,65af55873a9969d2d2611718,2024-01-23_07h03.26.844,bars,2023.2.3,Win32,29.94011976,657b66ea316d21385b68909f,,,,,,,,,,,1389.2991,1390.2986,,,1390.7707,1391.0051,,61,61,,,,,,,,,,,,,,,,bars/047.png,bars/mask003.png,,,,,,,,,,,,7,2,,,,,,,5,10,6,10,,,,,,,,,,,1390.2986,1390.7707,1391.0051,1393.9381,space,2.8854,,1393.9381,46,9,1394.9412,1394.9413,1394.9416,,,,0,4,4,4,1,15,70,,,,,,,,
,,5f7aea5d4f022a1f0fe49dc4,65af55873a9969d2d2611718,2024-01-23_07h03.26.844,bars,2023.2.3,Win32,29.94011976,657b66ea316d21385b68909f,,,,,,,,,,,1394.9417,1395.9332,,,1396.4406,1396.6744,,137,137,,,,,,,,,,,,,,,,bars/020.png,bars/mask006.png,,,,,,,,,,,,2,1,,,,,,,7,8,7,8,,,,,,,,,,,1395.9332,1396.4406,1396.6744,1400.1838,space,3.4679,,1400.1839,22,33,1401.1536,1401.1536,1401.1587,,,,0,5,5,5,1,115,170,,,,,,,,
,,5f7aea5d4f022a1f0fe49dc4,65af55873a9969d2d2611718,2024-01-23_07h03.26.844,bars,2023.2.3,Win32,29.94011976,657b66ea316d21385b68909f,,,,,,,,,,,1401.1588,1402.1404,,,1402.6437,1402.8699,,145,145,,,,,,,,,,,,,,,,bars/006.png,bars/mask007.png,,,,,,,,,,,,0,2,,,,,,,9,6,9,5,,,,,,,,,,,1402.1404,1402.6437,1402.87,1406.2016,space,3.2898,,1406.2016,70,45,1407.1666,1407.1666,1407.1716,,,,0,6,6,6,1,35,100,,,,,,,,
,,5f7aea5d4f022a1f0fe49dc4,65af55873a9969d2d2611718,2024-01-23_07h03.26.844,bars,2023.2.3,Win32,29.94011976,657b66ea316d21385b68909f,,,,,,,,,,,1407.1717,1408.1701,,,1408.6676,1408.8956,,162,162,,,,,,,,,,,,,,,,bars/031.png,bars/mask007.png,,,,,,,,,,,,0,1,,,,,,,7,4,7,2,,,,,,,,,,,1408.1701,1408.6676,1408.8957,1412.1332,space,3.1951,,1412.1333,42,53,1413.1017,1413.1017,1413.1025,,,,0,7,7,7,1,120,35,,,,,,,,
,,5f7aea5d4f022a1f0fe49dc4,65af55873a9969d2d2611718,2024-01-23_07h03.26.844,bars,2023.2.3,Win32,29.94011976,657b66ea316d21385b68909f,,,,,,,,,,,1413.1026,1414.0919,,,1414.5958,1414.8366,,5,185,,,,,,,,,,,,,,,,bars/047.png,bars/mask000.png,,,,,,,,,,,,4,1,,,,,,,5,2,6,3,,,,,,,,,,,1414.0919,1414.5958,1414.8367,1417.7974,space,2.9179,,1417.7974,10,65,1418.7844,1418.7845,1418.7891,,,,0,8,8,8,1,15,70,,,,,,,,
,,5f7aea5d4f022a1f0fe49dc4,65af55873a9969d2d2611718,2024-01-23_07h03.26.844,bars,2023.2.3,Win32,29.94011976,657b66ea316d21385b68909f,,,,,,,,,,,1418.7891,1419.7859,,,1420.2577,1420.4912,,6,186,,,,,,,,,,,,,,,,bars/039.png,bars/mask002.png,,,,,,,,,,,,5,1,,,,,,,7,4,8,4,,,,,,,,,,,1419.7859,1420.2577,1420.4912,1424.2243,space,3.6894,,1424.2243,11,81,1425.2078,1425.2078,1425.2081,,,,0,9,9,9,1,175,105,,,,,,,,
,,5f7aea5d4f022a1f0fe49dc4,65af55873a9969d2d2611718,2024-01-23_07h03.26.844,bars,2023.2.3,Win32,29.94011976,657b66ea316d21385b68909f,,,,,,,,,,,1425.2083,1426.1762,,,1426.683,1426.9181,,22,202,,,,,,,,,,,,,,,,bars/046.png,bars/mask004.png,,,,,,,,,,,,0,1,,,,,,,9,2,10,2,,,,,,,,,,,1426.1762,1426.6829,1426.9181,1431.8393,space,4.8807,,1431.8394,47,63,1432.8301,1432.8302,1432.8346,,,,0,10,10,10,1,155,85,,,,,,,,
,,5f7aea5d4f022a1f0fe49dc4,65af55873a9969d2d2611718,2024-01-23_07h03.26.844,bars,2023.2.3,Win32,29.94011976,657b66ea316d21385b68909f,,,,,,,,,,,1432.8346,1433.8189,,,1434.2825,1434.5167,,157,157,,,,,,,,,,,,,,,,bars/003.png,bars/mask009.png,,,,,,,,,,,,0,2,,,,,,,7,0,7,0,,,,,,,,,,,1433.8189,1434.2825,1434.5167,1438.2024,space,3.6424,,1438.2025,48,17,1439.1917,1439.1918,1439.1927,,,,0,11,11,11,1,25,140,,,,,,,,
,,5f7aea5d4f022a1f0fe49dc4,65af55873a9969d2d2611718,2024-01-23_07h03.26.844,bars,2023.2.3,Win32,29.94011976,657b66ea316d21385b68909f,,,,,,,,,,,1439.1928,1440.1898,,,1440.6695,1440.9468,,119,119,,,,,,,,,,,,,,,,bars/022.png,bars/mask008.png,,,,,,,,,,,,2,1,,,,,,,9,0,9,0,,,,,,,,,,,1440.1898,1440.6695,1440.9468,1443.9841,space,2.9962,,1443.9841,24,81,1444.9756,1444.9756,1444.9765,,,,0,12,12,12,1,95,20,,,,,,,,
,,5f7aea5d4f022a1f0fe49dc4,65af55873a9969d2d2611718,2024-01-23_07h03.26.844,bars,2023.2.3,Win32,29.94011976,657b66ea316d21385b68909f,,,,,,,,,,,1444.9766,1445.9619,,,1446.4251,1446.6473,,56,56,,,,,,,,,,,,,,,,bars/037.png,bars/mask002.png,,,,,,,,,,,,0,2,,,,,,,10,0,10,2,,,,,,,,,,,1445.9619,1446.4251,1446.6474,1450.2191,space,3.5319,,1450.2191,86,49,1451.1795,1451.1796,1451.1844,,,,0,13,13,13,1,150,105,,,,,,,,
,,5f7aea5d4f022a1f0fe49dc4,65af55873a9969d2d2611718,2024-01-23_07h03.26.844,bars,2023.2.3,Win32,29.94011976,657b66ea316d21385b68909f,,,,,,,,,,,1451.1845,1452.1842,,,1452.66,1452.8896,,172,172,,,,,,,,,,,,,,,,bars/028.png,bars/mask005.png,,,,,,,,,,,,0,2,,,,,,,10,2,8,0,,,,,,,,,,,1452.1843,1452.66,1452.8896,1457.5005,space,4.5657,,1457.5005,53,52,1458.4947,1458.4947,1458.4993,,,,0,14,14,14,1,45,120,,,,,,,,
,,5f7aea5d4f022a1f0fe49dc4,65af55873a9969d2d2611718,2024-01-23_07h03.26.844,bars,2023.2.3,Win32,29.94011976,657b66ea316d21385b68909f,,,,,,,,,,,1458.4993,1459.4939,,,1459.9976,1460.2211,,61,61,,,,,,,,,,,,,,,,bars/018.png,bars/mask004.png,,,,,,,,,,,,0,2,,,,,,,8,4,8,4,,,,,,,,,,,1459.4939,1459.9976,1460.2212,1466.1559,space,5.8925,,1466.1559,89,29,1467.1521,1467.1521,1467.1568,,,,0,15,15,15,1,150,90,,,,,,,,
,,5f7aea5d4f022a1f0fe49dc4,65af55873a9969d2d2611718,2024-01-23_07h03.26.844,bars,2023.2.3,Win32,29.94011976,657b66ea316d21385b68909f,,,,,,,,,,,1467.1569,1468.1465,,,1468.6555,1468.8869,,79,79,,,,,,,,,,,,,,,,bars/039.png,bars/mask002.png,,,,,,,,,,,,0,2,,,,,,,10,2,10,2,,,,,,,,,,,1468.1465,1468.6555,1468.8869,1471.6489,space,2.721,,1471.6489,84,26,1472.6287,1472.6287,1472.6291,,,,0,16,16,16,1,175,105,,,,,,,,
,,5f7aea5d4f022a1f0fe49dc4,65af55873a9969d2d2611718,2024-01-23_07h03.26.844,bars,2023.2.3,Win32,29.94011976,657b66ea316d21385b68909f,,,,,,,,,,,1472.6292,1473.6241,,,1474.0899,1474.3221,,178,178,,,,,,,,,,,,,,,,bars/021.png,bars/mask003.png,,,,,,,,,,,,2,1,,,,,,,8,0,8,1,,,,,,,,,,,1473.6241,1474.0898,1474.3221,1476.6407,space,2.2777,,1476.6408,23,72,1477.6292,1477.6293,1477.6301,,,,0,17,17,17,1,155,70,,,,,,,,
,,5f7aea5d4f022a1f0fe49dc4,65af55873a9969d2d2611718,2024-01-23_07h03.26.844,bars,2023.2.3,Win32,29.94011976,657b66ea316d21385b68909f,,,,,,,,,,,1477.6303,1478.6374,,,1479.104,1479.3318,,83,83,,,,,,,,,,,,,,,,bars/002.png,bars/mask002.png,,,,,,,,,,,,0,2,,,,,,,6,0,5,0,,,,,,,,,,,1478.6374,1479.104,1479.3318,1483.168,space,3.7945,,1483.168,47,2,1484.1392,1484.1392,1484.144,,,,0,18,18,18,1,130,85,,,,,,,,
,,5f7aea5d4f022a1f0fe49dc4,65af55873a9969d2d2611718,2024-01-23_07h03.26.844,bars,2023.2.3,Win32,29.94011976,657b66ea316d21385b68909f,,,,,,,,,,,1484.1441,1485.1349,,,1485.6554,1485.8944,,156,156,,,,,,,,,,,,,,,,bars/000.png,bars/mask000.png,,,,,,,,,,,,0,2,,,,,,,8,0,9,0,,,,,,,,,,,1485.135,1485.6554,1485.8944,1490.1724,space,4.238,,1490.1724,64,11,1491.1661,1491.1661,1491.1707,,,,0,19,19,19,1,40,145,,,,,,,,
,,5f7aea5d4f022a1f0fe49dc4,65af55873a9969d2d2611718,2024-01-23_07h03.26.844,bars,2023.2.3,Win32,29.94011976,657b66ea316d21385b68909f,,,,,,,,,,,1491.1709,1492.1762,,,1492.6389,1492.8736,,168,168,,,,,,,,,,,,,,,,bars/008.png,bars/mask002.png,,,,,,,,,,,,1,2,,,,,,,6,2,5,1,,,,,,,,,,,1492.1762,1492.6389,1492.8737,1494.6843,space,1.7688,,1494.6844,58,12,1495.6769,1495.6769,1495.6772,,,,0,20,20,20,1,110,0,,,,,,,,
,,5f7aea5d4f022a1f0fe49dc4,65af55873a9969d2d2611718,2024-01-23_07h03.26.844,bars,2023.2.3,Win32,29.94011976,657b66ea316d21385b68909f,,,,,,,,,,,1495.6774,1496.666,,,1497.1738,1497.4003,,35,215,,,,,,,,,,,,,,,,bars/028.png,bars/mask001.png,,,,,,,,,,,,3,1,,,,,,,4,0,4,0,,,,,,,,,,,1496.666,1497.1738,1497.4004,1499.686,space,2.2459,,1499.6861,10,85,1500.6593,1500.6593,1500.6601,,,,0,21,21,21,1,45,120,,,,,,,,
,,5f7aea5d4f022a1f0fe49dc4,65af55873a9969d2d2611718,2024-01-23_07h03.26.844,bars,2023.2.3,Win32,29.94011976,657b66ea316d21385b68909f,,,,,,,,,,,1500.6602,1501.6584,,,1502.1611,1502.3941,,165,165,,,,,,,,,,,,,,,,bars/029.png,bars/mask000.png,,,,,,,,,,,,0,2,,,,,,,6,0,5,0,,,,,,,,,,,1501.6584,1502.161,1502.3941,1505.141,space,2.7061,,1505.141,75,60,1506.1373,1506.1373,1506.1383,,,,0,22,22,22,1,90,45,,,,,,,,
,,5f7aea5d4f022a1f0fe49dc4,65af55873a9969d2d2611718,2024-01-23_07h03.26.844,bars,2023.2.3,Win32,29.94011976,657b66ea316d21385b68909f,,,,,,,,,,,1506.1385,1507.1156,,,1507.5828,1507.8151,,71,71,,,,,,,,,,,,,,,,bars/040.png,bars/mask009.png,,,,,,,,,,,,0,2,,,,,,,4,0,4,0,,,,,,,,,,,1507.1156,1507.5828,1507.8151,1511.0156,space,3.1495,,1511.0156,69,66,1511.9802,1511.9803,1511.9807,,,,0,23,23,23,1,140,5,,,,,,,,
,,5f7aea5d4f022a1f0fe49dc4,65af55873a9969d2d2611718,2024-01-23_07h03.26.844,bars,2023.2.3,Win32,29.94011976,657b66ea316d21385b68909f,,,,,,,,,,,1511.9808,1512.9854,,,1513.494,1513.7208,,157,157,,,,,,,,,,,,,,,,bars/038.png,bars/mask008.png,,,,,,,,,,,,4,1,,,,,,,6,0,5,0,,,,,,,,,,,1512.9854,1513.494,1513.7208,1517.7549,space,3.9934,,1517.7549,8,87,1518.7541,1518.7541,1518.7551,,,,0,24,24,24,1,165,70,,,,,,,,
,,5f7aea5d4f022a1f0fe49dc4,65af55873a9969d2d2611718,2024-01-23_07h03.26.844,bars,2023.2.3,Win32,29.94011976,657b66ea316d21385b68909f,,,,,,,,,,,1518.7552,1519.7506,,,1520.2502,1520.4774,,165,165,,,,,,,,,,,,,,,,bars/038.png,bars/mask000.png,,,,,,,,,,,,7,1,,,,,,,8,2,7,2,,,,,,,,,,,1519.7506,1520.2501,1520.4774,1526.2095,space,5.6881,,1526.2095,0,85,1527.1934,1527.1934,1527.1979,,,,0,25,25,25,1,165,70,,,,,,,,
,,5f7aea5d4f022a1f0fe49dc4,65af55873a9969d2d2611718,2024-01-23_07h03.26.844,bars,2023.2.3,Win32,29.94011976,657b66ea316d21385b68909f,,,,,,,,,,,1527.198,1528.1896,,,1528.6814,1528.8908,,164,164,,,,,,,,,,,,,,,,bars/028.png,bars/mask008.png,,,,,,,,,,,,0,2,,,,,,,10,4,10,4,,,,,,,,,,,1528.1897,1528.6813,1528.8908,1533.4442,space,4.5123,,1533.4442,61,44,1534.4338,1534.4338,1534.4348,,,,0,26,26,26,1,45,120,,,,,,,,
,,5f7aea5d4f022a1f0fe49dc4,65af55873a9969d2d2611718,2024-01-23_07h03.26.844,bars,2023.2.3,Win32,29.94011976,657b66ea316d21385b68909f,,,,,,,,,,,1534.4349,1535.4144,,,1535.8817,1536.1565,,110,110,,,,,,,,,,,,,,,,bars/021.png,bars/mask003.png,,,,,,,,,,,,0,2,,,,,,,10,6,9,8,,,,,,,,,,,1535.4144,1535.8817,1536.1566,1540.1373,space,3.9397,,1540.1373,45,40,1541.1276,1541.1276,1541.132,,,,0,27,27,27,1,155,70,,,,,,,,
,,5f7aea5d4f022a1f0fe49dc4,65af55873a9969d2d2611718,2024-01-23_07h03.26.844,bars,2023.2.3,Win32,29.94011976,657b66ea316d21385b68909f,,,,,,,,,,,1541.132,1542.1134,,,1542.6096,1542.8505,,144,144,,,,,,,,,,,,,,,,bars/041.png,bars/mask009.png,,,,,,,,,,,,0,1,,,,,,,8,4,6,5,,,,,,,,,,,1542.1134,1542.6096,1542.8505,1547.2879,space,4.3889,,1547.2879,56,59,1548.3033,1548.3034,1548.3044,,,,0,28,28,28,1,20,85,,,,,,,,
,,5f7aea5d4f022a1f0fe49dc4,65af55873a9969d2d2611718,2024-01-23_07h03.26.844,bars,2023.2.3,Win32,29.94011976,657b66ea316d21385b68909f,,,,,,,,,,,1548.3044,1549.3092,,,1549.8068,1550.0369,,14,194,,,,,,,,,,,,,,,,bars/045.png,bars/mask005.png,,,,,,,,,,,,2,2,,,,,,,10,2,10,2,,,,,,,,,,,1549.3092,1549.8068,1550.0369,1552.3742,space,2.2921,,1552.3742,86,4,1553.3583,1553.3583,1553.359,,,,0,29,29,29,1,100,10,,,,,,,,
,,5f7aea5d4f022a1f0fe49dc4,65af55873a9969d2d2611718,2024-01-23_07h03.26.844,bars,2023.2.3,Win32,29.94011976,657b66ea316d21385b68909f,,,,,,,,,,,1553.3592,1554.3579,,,1554.8208,1555.0563,,0,180,,,,,,,,,,,,,,,,bars/031.png,bars/mask008.png,,,,,,,,,,,,0,2,,,,,,,10,0,10,0,,,,,,,,,,,1554.3579,1554.8208,1555.0563,1559.0807,space,3.9797,,1559.0807,60,35,1560.0629,1560.0629,1560.0633,,,,0,30,30,30,1,120,35,,,,,,,,
,,5f7aea5d4f022a1f0fe49dc4,65af55873a9969d2d2611718,2024-01-23_07h03.26.844,bars,2023.2.3,Win32,29.94011976,657b66ea316d21385b68909f,,,,,,,,,,,1560.0637,1561.0466,,,1561.5126,1561.7485,,3,183,,,,,,,,,,,,,,,,bars/029.png,bars/mask009.png,,,,,,,,,,,,0,2,,,,,,,8,0,7,0,,,,,,,,,,,1561.0466,1561.5126,1561.7485,1566.0824,space,4.2875,,1566.0824,87,42,1567.072,1567.072,1567.0724,,,,0,31,31,31,1,90,45,,,,,,,,
,,5f7aea5d4f022a1f0fe49dc4,65af55873a9969d2d2611718,2024-01-23_07h03.26.844,bars,2023.2.3,Win32,29.94011976,657b66ea316d21385b68909f,,,,,,,,,,,1567.0724,1568.0717,,,1568.5821,1568.8075,,127,127,,,,,,,,,,,,,,,,bars/039.png,bars/mask007.png,,,,,,,,,,,,1,2,,,,,,,6,2,6,4,,,,,,,,,,,1568.0717,1568.5821,1568.8075,1573.1534,space,4.3041,,1573.1535,48,22,1574.1528,1574.1528,1574.1573,,,,0,32,32,32,1,175,105,,,,,,,,
,,5f7aea5d4f022a1f0fe49dc4,65af55873a9969d2d2611718,2024-01-23_07h03.26.844,bars,2023.2.3,Win32,29.94011976,657b66ea316d21385b68909f,,,,,,,,,,,1574.1574,1575.1471,,,1575.6523,1575.8822,,158,158,,,,,,,,,,,,,,,,bars/040.png,bars/mask005.png,,,,,,,,,,,,2,1,,,,,,,4,4,5,5,,,,,,,,,,,1575.1471,1575.6522,1575.8823,1579.9252,space,4.0021,,1579.9252,18,27,1580.8888,1580.8888,1580.8943,,,,0,33,33,33,1,140,5,,,,,,,,
,,5f7aea5d4f022a1f0fe49dc4,65af55873a9969d2d2611718,2024-01-23_07h03.26.844,bars,2023.2.3,Win32,29.94011976,657b66ea316d21385b68909f,,,,,,,,,,,1580.8944,1581.8813,,,1582.3442,1582.5849,,64,64,,,,,,,,,,,,,,,,bars/006.png,bars/mask005.png,,,,,,,,,,,,0,1,,,,,,,6,2,7,3,,,,,,,,,,,1581.8814,1582.3442,1582.5849,1611.4019,space,28.7759,,1611.402,29,36,1612.3956,1612.3957,1612.4008,,,,0,34,34,34,1,35,100,,,,,,,,
,,5f7aea5d4f022a1f0fe49dc4,65af55873a9969d2d2611718,2024-01-23_07h03.26.844,bars,2023.2.3,Win32,29.94011976,657b66ea316d21385b68909f,,,,,,,,,,,1612.401,1613.3638,,,1613.8482,1614.0839,,98,98,,,,,,,,,,,,,,,,bars/028.png,bars/mask008.png,,,,,,,,,,,,0,2,,,,,,,4,0,3,0,,,,,,,,,,,1613.3638,1613.8481,1614.0839,1617.723,space,3.5984,,1617.723,53,22,1618.7179,1618.718,1618.719,,,,0,35,35,35,1,45,120,,,,,,,,
,,5f7aea5d4f022a1f0fe49dc4,65af55873a9969d2d2611718,2024-01-23_07h03.26.844,bars,2023.2.3,Win32,29.94011976,657b66ea316d21385b68909f,,,,,,,,,,,1618.7192,1619.7136,,,1620.18,1620.4179,,161,161,,,,,,,,,,,,,,,,bars/004.png,bars/mask000.png,,,,,,,,,,,,0,2,,,,,,,6,0,6,1,,,,,,,,,,,1619.7136,1620.18,1620.4179,1624.1621,space,3.7031,,1624.1621,44,36,1625.1542,1625.1543,1625.1546,,,,0,36,36,36,1,25,125,,,,,,,,
,,5f7aea5d4f022a1f0fe49dc4,65af55873a9969d2d2611718,2024-01-23_07h03.26.844,bars,2023.2.3,Win32,29.94011976,657b66ea316d21385b68909f,,,,,,,,,,,1625.1547,1626.1283,,,1626.6057,1626.8318,,42,222,,,,,,,,,,,,,,,,bars/015.png,bars/mask001.png,,,,,,,,,,,,0,2,,,,,,,4,2,3,4,,,,,,,,,,,1626.1283,1626.6057,1626.8318,1630.9833,space,4.1108,,1630.9833,68,62,1631.9767,1631.9767,1631.977,,,,0,37,37,37,1,110,160,,,,,,,,
,,5f7aea5d4f022a1f0fe49dc4,65af55873a9969d2d2611718,2024-01-23_07h03.26.844,bars,2023.2.3,Win32,29.94011976,657b66ea316d21385b68909f,,,,,,,,,,,1631.9771,1632.9831,,,1633.4536,1633.6854,,69,69,,,,,,,,,,,,,,,,bars/030.png,bars/mask008.png,,,,,,,,,,,,3,2,,,,,,,2,4,2,4,,,,,,,,,,,1632.9831,1633.4536,1633.6854,1635.391,space,1.6621,,1635.391,71,4,1636.3674,1636.3675,1636.3678,,,,0,38,38,38,1,140,65,,,,,,,,
,,5f7aea5d4f022a1f0fe49dc4,65af55873a9969d2d2611718,2024-01-23_07h03.26.844,bars,2023.2.3,Win32,29.94011976,657b66ea316d21385b68909f,,,,,,,,,,,1636.3679,1637.3618,,,1637.8417,1638.0715,,41,221,,,,,,,,,,,,,,,,bars/023.png,bars/mask004.png,,,,,,,,,,,,0,1,,,,,,,0,2,0,2,,,,,,,,,,,1637.3618,1637.8417,1638.0715,1644.0886,space,5.9791,,1644.0886,21,74,1645.0855,1645.0855,1645.0904,,,,0,39,39,39,1,20,115,,,,,,,,
,,5f7aea5d4f022a1f0fe49dc4,65af55873a9969d2d2611718,2024-01-23_07h03.26.844,bars,2023.2.3,Win32,29.94011976,657b66ea316d21385b68909f,,,,,,,,,,,1645.0905,1646.0542,,,1646.5176,1646.747,,170,170,,,,,,,,,,,,,,,,bars/024.png,bars/mask002.png,,,,,,,,,,,,5,2,,,,,,,2,4,3,5,,,,,,,,,,,1646.0542,1646.5175,1646.747,1676.5586,space,29.768,,1676.5587,50,0,1677.5521,1677.5521,1677.5574,,,,0,40,40,40,1,120,170,,,,,,,,
,,5f7aea5d4f022a1f0fe49dc4,65af55873a9969d2d2611718,2024-01-23_07h03.26.844,bars,2023.2.3,Win32,29.94011976,657b66ea316d21385b68909f,,,,,,,,,,,1677.5575,1678.5502,,,1679.0561,1679.2918,,117,117,,,,,,,,,,,,,,,,bars/047.png,bars/mask008.png,,,,,,,,,,,,0,2,,,,,,,4,2,2,2,,,,,,,,,,,1678.5503,1679.0561,1679.2918,1682.855,space,3.5209,,1682.8551,78,47,1683.8523,1683.8523,1683.8568,,,,0,41,41,41,1,15,70,,,,,,,,
,,5f7aea5d4f022a1f0fe49dc4,65af55873a9969d2d2611718,2024-01-23_07h03.26.844,bars,2023.2.3,Win32,29.94011976,657b66ea316d21385b68909f,,,,,,,,,,,1683.8569,1684.8321,,,1685.2967,1685.5249,,58,58,,,,,,,,,,,,,,,,bars/020.png,bars/mask006.png,,,,,,,,,,,,0,1,,,,,,,6,0,5,0,,,,,,,,,,,1684.8321,1685.2967,1685.5249,1689.9735,space,4.4054,,1689.9735,57,68,1690.9759,1690.976,1690.981,,,,0,42,42,42,1,115,170,,,,,,,,
,,5f7aea5d4f022a1f0fe49dc4,65af55873a9969d2d2611718,2024-01-23_07h03.26.844,bars,2023.2.3,Win32,29.94011976,657b66ea316d21385b68909f,,,,,,,,,,,1690.9811,1691.9839,,,1692.4979,1692.7229,,53,53,,,,,,,,,,,,,,,,bars/045.png,bars/mask009.png,,,,,,,,,,,,0,2,,,,,,,8,0,8,0,,,,,,,,,,,1691.9839,1692.4979,1692.7229,1698.2458,space,5.48,,1698.2458,47,43,1699.2637,1699.2637,1699.2686,,,,0,43,43,43,1,100,10,,,,,,,,
,,5f7aea5d4f022a1f0fe49dc4,65af55873a9969d2d2611718,2024-01-23_07h03.26.844,bars,2023.2.3,Win32,29.94011976,657b66ea316d21385b68909f,,,,,,,,,,,1699.2687,1700.262,,,1700.7302,1700.9651,,76,76,,,,,,,,,,,,,,,,bars/043.png,bars/mask007.png,,,,,,,,,,,,0,1,,,,,,,6,0,7,0,,,,,,,,,,,1700.262,1700.7302,1700.9651,1706.7148,space,5.7083,,1706.7148,46,54,1707.6781,1707.6781,1707.6834,,,,0,44,44,44,1,30,130,,,,,,,,
,,5f7aea5d4f022a1f0fe49dc4,65af55873a9969d2d2611718,2024-01-23_07h03.26.844,bars,2023.2.3,Win32,29.94011976,657b66ea316d21385b68909f,,,,,,,,,,,1707.6836,1708.6741,,,1709.1752,1709.4117,,163,163,,,,,,,,,,,,,,,,bars/041.png,bars/mask001.png,,,,,,,,,,,,0,1,,,,,,,8,0,9,0,,,,,,,,,,,1708.6741,1709.1752,1709.4118,1715.1411,space,5.6821,,1715.1411,37,78,1716.1246,1716.1246,1716.1292,,,,0,45,45,45,1,20,85,,,,,,,,
,,5f7aea5d4f022a1f0fe49dc4,65af55873a9969d2d2611718,2024-01-23_07h03.26.844,bars,2023.2.3,Win32,29.94011976,657b66ea316d21385b68909f,,,,,,,,,,,1716.1293,1717.1217,,,1717.5953,1717.8287,,119,119,,,,,,,,,,,,,,,,bars/039.png,bars/mask001.png,,,,,,,,,,,,1,2,,,,,,,10,2,8,2,,,,,,,,,,,1717.1217,1717.5953,1717.8287,1726.6292,space,8.7574,,1726.6292,56,14,1727.6207,1727.6207,1727.6266,,,,0,46,46,46,1,175,105,,,,,,,,
,,5f7aea5d4f022a1f0fe49dc4,65af55873a9969d2d2611718,2024-01-23_07h03.26.844,bars,2023.2.3,Win32,29.94011976,657b66ea316d21385b68909f,,,,,,,,,,,1727.6267,1728.6245,,,1729.1027,1729.3368,,92,92,,,,,,,,,,,,,,,,bars/005.png,bars/mask008.png,,,,,,,,,,,,0,2,,,,,,,8,4,7,4,,,,,,,,,,,1728.6246,1729.1027,1729.3368,1734.1721,space,4.7933,,1734.1721,82,48,1735.1633,1735.1634,1735.1677,,,,0,47,47,47,1,10,140,,,,,,,,
,,5f7aea5d4f022a1f0fe49dc4,65af55873a9969d2d2611718,2024-01-23_07h03.26.844,bars,2023.2.3,Win32,29.94011976,657b66ea316d21385b68909f,,,,,,,,,,,1735.1679,1736.1713,,,1736.6445,1736.8805,,164,164,,,,,,,,,,,,,,,,bars/023.png,bars/mask002.png,,,,,,,,,,,,0,1,,,,,,,6,6,5,5,,,,,,,,,,,1736.1713,1736.6445,1736.8806,1739.5312,space,2.6085,,1739.5312,36,49,1740.5352,1740.5352,1740.5402,,,,0,48,48,48,1,20,115,,,,,,,,
,,5f7aea5d4f022a1f0fe49dc4,65af55873a9969d2d2611718,2024-01-23_07h03.26.844,bars,2023.2.3,Win32,29.94011976,657b66ea316d21385b68909f,,,,,,,,,,,1740.5403,1741.5416,,,1742.0126,1742.2493,,85,85,,,,,,,,,,,,,,,,bars/021.png,bars/mask005.png,,,,,,,,,,,,3,2,,,,,,,4,4,4,5,,,,,,,,,,,1741.5416,1742.0125,1742.2494,1746.8421,space,4.5492,,1746.8422,70,15,1747.8391,1747.8391,1747.8441,,,,0,49,49,49,1,155,70,,,,,,,,
,,5f7aea5d4f022a1f0fe49dc4,65af55873a9969d2d2611718,2024-01-23_07h03.26.844,bars,2023.2.3,Win32,29.94011976,657b66ea316d21385b68909f,,,,,,,,,,,,,,,,,,,,,,,,,,,,,,,,,,,,,,,,,,,,,,,,,,,,,,,,,,,,,,,,,,,,,,,,,,,,,,,,,,,,,,,,,,,,,1747.8441,1807.8095,0,2,2,1,1,sequence_tables/blk000.csv
,,5f7aea5d4f022a1f0fe49dc4,65af55873a9969d2d2611718,2024-01-23_07h03.26.844,bars,2023.2.3,Win32,29.94011976,657b66ea316d21385b68909f,,,,,,,,,,,1812.0463,1813.0479,,,1813.5626,1813.7875,,145,-35,,,,,,,,,,,,,,,,bars/018.png,bars/mask001.png,,,,,,,,,,,,6,1,,,,,,,7,5,7,6,,,,,,1807.8143,1812.0406,space,4.1862,,1813.0479,1813.5626,1813.7875,1816.8811,space,3.0535,,1816.8811,5,55,1817.8571,1817.8571,1817.8622,,,,0,0,0,0,1,150,90,,,,,,,,
,,5f7aea5d4f022a1f0fe49dc4,65af55873a9969d2d2611718,2024-01-23_07h03.26.844,bars,2023.2.3,Win32,29.94011976,657b66ea316d21385b68909f,,,,,,,,,,,1817.8624,1818.8532,,,1819.3194,1819.5468,,121,121,,,,,,,,,,,,,,,,bars/010.png,bars/mask009.png,,,,,,,,,,,,0,1,,,,,,,5,7,5,7,,,,,,,,,,,1818.8532,1819.3193,1819.5468,1822.2246,space,2.6371,,1822.2247,44,66,1823.2305,1823.2305,1823.2308,,,,0,1,1,1,1,165,55,,,,,,,,
,,5f7aea5d4f022a1f0fe49dc4,65af55873a9969d2d2611718,2024-01-23_07h03.26.844,bars,2023.2.3,Win32,29.94011976,657b66ea316d21385b68909f,,,,,,,,,,,1823.2309,1824.2337,,,1824.7146,1824.9412,,46,46,,,,,,,,,,,,,,,,bars/034.png,bars/mask002.png,,,,,,,,,,,,1,2,,,,,,,3,5,4,4,,,,,,,,,,,1824.2337,1824.7146,1824.9412,1826.7525,space,1.7674,,1826.7525,79,19,1827.7496,1827.7496,1827.7505,,,,0,2,2,2,1,125,65,,,,,,,,
,,5f7aea5d4f022a1f0fe49dc4,65af55873a9969d2d2611718,2024-01-23_07h03.26.844,bars,2023.2.3,Win32,29.94011976,657b66ea316d21385b68909f,,,,,,,,,,,1827.7505,1828.7529,,,1829.271,1829.5284,,1,1,,,,,,,,,,,,,,,,bars/040.png,bars/mask003.png,,,,,,,,,,,,3,2,,,,,,,1,3,2,3,,,,,,,,,,,1828.753,1829.2709,1829.5284,1831.1837,space,1.615,,1831.1837,41,4,1832.1748,1832.1748,1832.1752,,,,0,3,3,3,1,140,5,,,,,,,,
,,5f7aea5d4f022a1f0fe49dc4,65af55873a9969d2d2611718,2024-01-23_07h03.26.844,bars,2023.2.3,Win32,29.94011976,657b66ea316d21385b68909f,,,,,,,,,,,1832.1753,1833.1878,,,1833.658,1833.8993,,162,-18,,,,,,,,,,,,,,,,bars/029.png,bars/mask002.png,,,,,,,,,,,,0,2,,,,,,,3,5,2,6,,,,,,,,,,,1833.1878,1833.658,1833.8993,1835.709,space,1.7672,,1835.709,72,63,1836.7036,1836.7036,1836.704,,,,0,4,4,4,1,90,45,,,,,,,,
,,5f7aea5d4f022a1f0fe49dc4,65af55873a9969d2d2611718,2024-01-23_07h03.26.844,bars,2023.2.3,Win32,29.94011976,657b66ea316d21385b68909f,,,,,,,,,,,1836.7041,1837.7082,,,1838.2253,1838.4516,,13,13,,,,,,,,,,,,,,,,bars/030.png,bars/mask005.png,,,,,,,,,,,,0,2,,,,,,,1,3,3,2,,,,,,,,,,,1837.7082,1838.2253,1838.4516,1844.7529,space,6.2565,,1844.7529,53,52,1845.7619,1845.762,1845.7665,,,,0,5,5,5,1,140,65,,,,,,,,
,,5f7aea5d4f022a1f0fe49dc4,65af55873a9969d2d2611718,2024-01-23_07h03.26.844,bars,2023.2.3,Win32,29.94011976,657b66ea316d21385b68909f,,,,,,,,,,,1845.7666,1846.74,,,1847.2076,1847.4391,,11,11,,,,,,,,,,,,,,,,bars/010.png,bars/mask008.png,,,,,,,,,,,,0,1,,,,,,,3,1,2,1,,,,,,,,,,,1846.74,1847.2076,1847.4391,1849.9945,space,2.5117,,1849.9946,26,44,1850.9892,1850.9892,1850.9901,,,,0,6,6,6,1,165,55,,,,,,,,
,,5f7aea5d4f022a1f0fe49dc4,65af55873a9969d2d2611718,2024-01-23_07h03.26.844,bars,2023.2.3,Win32,29.94011976,657b66ea316d21385b68909f,,,,,,,,,,,1850.9903,1851.9908,,,1852.4709,1852.7015,,7,7,,,,,,,,,,,,,,,,bars/022.png,bars/mask007.png,,,,,,,,,,,,0,2,,,,,,,5,0,6,0,,,,,,,,,,,1851.9908,1852.4709,1852.7015,1857.7487,space,5.0038,,1857.7488,88,13,1858.7367,1858.7367,1858.7417,,,,0,7,7,7,1,95,20,,,,,,,,
,,5f7aea5d4f022a1f0fe49dc4,65af55873a9969d2d2611718,2024-01-23_07h03.26.844,bars,2023.2.3,Win32,29.94011976,657b66ea316d21385b68909f,,,,,,,,,,,1858.7418,1859.7429,,,1860.2491,1860.4801,,31,31,,,,,,,,,,,,,,,,bars/035.png,bars/mask001.png,,,,,,,,,,,,0,2,,,,,,,7,0,7,0,,,,,,,,,,,1859.7429,1860.2491,1860.4801,1862.2659,space,1.7447,,1862.2659,36,29,1863.2694,1863.2696,1863.2699,,,,0,8,8,8,1,175,60,,,,,,,,
,,5f7aea5d4f022a1f0fe49dc4,65af55873a9969d2d2611718,2024-01-23_07h03.26.844,bars,2023.2.3,Win32,29.94011976,657b66ea316d21385b68909f,,,,,,,,,,,1863.27,1864.2364,,,1864.7064,1864.9396,,23,23,,,,,,,,,,,,,,,,bars/005.png,bars/mask004.png,,,,,,,,,,,,5,1,,,,,,,9,0,9,1,,,,,,,,,,,1864.2364,1864.7063,1864.9396,1869.0326,space,4.0426,,1869.0327,13,63,1870.022,1870.022,1870.0228,,,,0,9,9,9,1,10,140,,,,,,,,
,,5f7aea5d4f022a1f0fe49dc4,65af55873a9969d2d2611718,2024-01-23_07h03.26.844,bars,2023.2.3,Win32,29.94011976,657b66ea316d21385b68909f,,,,,,,,,,,1870.023,1871.0093,,,1871.4771,1871.708,,139,-41,,,,,,,,,,,,,,,,bars/002.png,bars/mask001.png,,,,,,,,,,,,6,1,,,,,,,10,2,9,1,,,,,,,,,,,1871.0093,1871.4771,1871.708,1879.4496,space,7.7007,,1879.4496,9,54,1880.4453,1880.4453,1880.45,,,,0,10,10,10,1,130,85,,,,,,,,
,,5f7aea5d4f022a1f0fe49dc4,65af55873a9969d2d2611718,2024-01-23_07h03.26.844,bars,2023.2.3,Win32,29.94011976,657b66ea316d21385b68909f,,,,,,,,,,,1880.4501,1881.4541,,,1881.9502,1882.1764,,174,-6,,,,,,,,,,,,,,,,bars/047.png,bars/mask002.png,,,,,,,,,,,,2,1,,,,,,,8,4,8,4,,,,,,,,,,,1881.4541,1881.9502,1882.1764,1888.1944,space,5.9771,,1888.1944,21,76,1889.1874,1889.1874,1889.192,,,,0,11,11,11,1,15,70,,,,,,,,
,,5f7aea5d4f022a1f0fe49dc4,65af55873a9969d2d2611718,2024-01-23_07h03.26.844,bars,2023.2.3,Win32,29.94011976,657b66ea316d21385b68909f,,,,,,,,,,,1889.1921,1890.188,,,1890.6577,1890.8862,,43,43,,,,,,,,,,,,,,,,bars/003.png,bars/mask006.png,,,,,,,,,,,,2,1,,,,,,,6,6,6,7,,,,,,,,,,,1890.188,1890.6577,1890.8862,1893.5121,space,2.5852,,1893.5121,18,83,1894.5034,1894.5034,1894.5038,,,,0,12,12,12,1,25,140,,,,,,,,
,,5f7aea5d4f022a1f0fe49dc4,65af55873a9969d2d2611718,2024-01-23_07h03.26.844,bars,2023.2.3,Win32,29.94011976,657b66ea316d21385b68909f,,,,,,,,,,,1894.504,1895.5086,,,1895.9874,1896.2218,,11,11,,,,,,,,,,,,,,,,bars/007.png,bars/mask005.png,,,,,,,,,,,,4,1,,,,,,,8,8,8,9,,,,,,,,,,,1895.5086,1895.9874,1896.2218,1899.0546,space,2.79,,1899.0547,16,44,1900.0343,1900.0344,1900.035,,,,0,13,13,13,1,175,55,,,,,,,,
,,5f7aea5d4f022a1f0fe49dc4,65af55873a9969d2d2611718,2024-01-23_07h03.26.844,bars,2023.2.3,Win32,29.94011976,657b66ea316d21385b68909f,,,,,,,,,,,1900.0351,1901.0065,,,1901.4744,1901.7021,,175,-5,,,,,,,,,,,,,,,,bars/045.png,bars/mask005.png,,,,,,,,,,,,3,2,,,,,,,10,6,9,6,,,,,,,,,,,1901.0065,1901.4744,1901.7021,1907.9725,space,6.2269,,1907.9725,75,15,1908.973,1908.973,1908.9782,,,,0,14,14,14,1,100,10,,,,,,,,
,,5f7aea5d4f022a1f0fe49dc4,65af55873a9969d2d2611718,2024-01-23_07h03.26.844,bars,2023.2.3,Win32,29.94011976,657b66ea316d21385b68909f,,,,,,,,,,,1908.9783,1909.9739,,,1910.4801,1910.7025,,29,29,,,,,,,,,,,,,,,,bars/027.png,bars/mask002.png,,,,,,,,,,,,1,2,,,,,,,10,4,10,3,,,,,,,,,,,1909.9739,1910.4801,1910.7025,1921.0383,space,10.2935,,1921.0383,81,21,1922.0319,1922.0319,1922.037,,,,0,15,15,15,1,110,50,,,,,,,,
,,5f7aea5d4f022a1f0fe49dc4,65af55873a9969d2d2611718,2024-01-23_07h03.26.844,bars,2023.2.3,Win32,29.94011976,657b66ea316d21385b68909f,,,,,,,,,,,1922.0371,1923.0334,,,1923.54,1923.7774,,110,110,,,,,,,,,,,,,,,,bars/047.png,bars/mask000.png,,,,,,,,,,,,0,2,,,,,,,10,6,10,5,,,,,,,,,,,1923.0335,1923.54,1923.7774,1928.7173,space,4.8982,,1928.7174,85,40,1929.7045,1929.7045,1929.7091,,,,0,16,16,16,1,15,70,,,,,,,,
,,5f7aea5d4f022a1f0fe49dc4,65af55873a9969d2d2611718,2024-01-23_07h03.26.844,bars,2023.2.3,Win32,29.94011976,657b66ea316d21385b68909f,,,,,,,,,,,1929.7092,1930.7149,,,1931.2212,1931.4699,,24,24,,,,,,,,,,,,,,,,bars/010.png,bars/mask002.png,,,,,,,,,,,,0,2,,,,,,,10,4,10,5,,,,,,,,,,,1930.7149,1931.2212,1931.4699,1935.0662,space,3.5558,,1935.0663,39,31,1936.0477,1936.0477,1936.0481,,,,0,17,17,17,1,165,55,,,,,,,,
,,5f7aea5d4f022a1f0fe49dc4,65af55873a9969d2d2611718,2024-01-23_07h03.26.844,bars,2023.2.3,Win32,29.94011976,657b66ea316d21385b68909f,,,,,,,,,,,1936.0481,1937.0464,,,1937.5563,1937.7872,,36,36,,,,,,,,,,,,,,,,bars/013.png,bars/mask004.png,,,,,,,,,,,,1,2,,,,,,,10,6,10,7,,,,,,,,,,,1937.0464,1937.5562,1937.7872,1942.1371,space,4.309,,1942.1371,39,26,1943.1018,1943.1018,1943.1021,,,,0,18,18,18,1,75,10,,,,,,,,
,,5f7aea5d4f022a1f0fe49dc4,65af55873a9969d2d2611718,2024-01-23_07h03.26.844,bars,2023.2.3,Win32,29.94011976,657b66ea316d21385b68909f,,,,,,,,,,,1943.1022,1944.0705,,,1944.5775,1944.8095,,12,12,,,,,,,,,,,,,,,,bars/005.png,bars/mask000.png,,,,,,,,,,,,9,1,,,,,,,10,8,10,9,,,,,,,,,,,1944.0705,1944.5775,1944.8095,1946.5461,space,1.6955,,1946.5461,2,52,1947.529,1947.529,1947.5298,,,,0,19,19,19,1,10,140,,,,,,,,
,,5f7aea5d4f022a1f0fe49dc4,65af55873a9969d2d2611718,2024-01-23_07h03.26.844,bars,2023.2.3,Win32,29.94011976,657b66ea316d21385b68909f,,,,,,,,,,,1947.5299,1948.5315,,,1949.0333,1949.2747,,55,55,,,,,,,,,,,,,,,,bars/006.png,bars/mask004.png,,,,,,,,,,,,2,1,,,,,,,8,10,6,9,,,,,,,,,,,1948.5315,1949.0333,1949.2747,1951.6001,space,2.2845,,1951.6002,20,45,1952.5679,1952.5679,1952.5683,,,,0,20,20,20,1,35,100,,,,,,,,
,,5f7aea5d4f022a1f0fe49dc4,65af55873a9969d2d2611718,2024-01-23_07h03.26.844,bars,2023.2.3,Win32,29.94011976,657b66ea316d21385b68909f,,,,,,,,,,,1952.5684,1953.5835,,,1954.0653,1954.2992,,138,-42,,,,,,,,,,,,,,,,bars/006.png,bars/mask003.png,,,,,,,,,,,,0,2,,,,,,,6,10,6,9,,,,,,,,,,,1953.5835,1954.0653,1954.2992,1962.4692,space,8.1262,,1962.4693,77,38,1963.4628,1963.4628,1963.4681,,,,0,21,21,21,1,35,100,,,,,,,,
,,5f7aea5d4f022a1f0fe49dc4,65af55873a9969d2d2611718,2024-01-23_07h03.26.844,bars,2023.2.3,Win32,29.94011976,657b66ea316d21385b68909f,,,,,,,,,,,1963.4682,1964.463,,,1964.9758,1965.2048,,161,-19,,,,,,,,,,,,,,,,bars/038.png,bars/mask005.png,,,,,,,,,,,,3,1,,,,,,,4,8,3,9,,,,,,,,,,,1964.463,1964.9758,1965.2048,1968.2124,space,2.9664,,1968.2124,4,89,1969.2007,1969.2007,1969.2016,,,,0,22,22,22,1,165,70,,,,,,,,
,,5f7aea5d4f022a1f0fe49dc4,65af55873a9969d2d2611718,2024-01-23_07h03.26.844,bars,2023.2.3,Win32,29.94011976,657b66ea316d21385b68909f,,,,,,,,,,,1969.2017,1970.1752,,,1970.6757,1970.91,,171,-9,,,,,,,,,,,,,,,,bars/029.png,bars/mask000.png,,,,,,,,,,,,0,2,,,,,,,6,10,5,10,,,,,,,,,,,1970.1752,1970.6757,1970.91,1991.0042,space,20.0529,,1991.0042,81,54,1992.001,1992.001,1992.0062,,,,0,23,23,23,1,90,45,,,,,,,,
,,5f7aea5d4f022a1f0fe49dc4,65af55873a9969d2d2611718,2024-01-23_07h03.26.844,bars,2023.2.3,Win32,29.94011976,657b66ea316d21385b68909f,,,,,,,,,,,1992.0064,1992.9875,,,1993.4552,1993.6983,,33,33,,,,,,,,,,,,,,,,bars/012.png,bars/mask009.png,,,,,,,,,,,,4,2,,,,,,,8,10,8,10,,,,,,,,,,,1992.9876,1993.4551,1993.6984,2001.7647,space,8.0257,,2001.7647,57,18,2002.7723,2002.7723,2002.7769,,,,0,24,24,24,1,90,15,,,,,,,,
,,5f7aea5d4f022a1f0fe49dc4,65af55873a9969d2d2611718,2024-01-23_07h03.26.844,bars,2023.2.3,Win32,29.94011976,657b66ea316d21385b68909f,,,,,,,,,,,2002.777,2003.7785,,,2004.2829,2004.5175,,148,-32,,,,,,,,,,,,,,,,bars/018.png,bars/mask009.png,,,,,,,,,,,,7,1,,,,,,,6,8,7,7,,,,,,,,,,,2003.7786,2004.2829,2004.5175,2006.3924,space,1.8318,,2006.3924,2,58,2007.3843,2007.3843,2007.3851,,,,0,25,25,25,1,150,90,,,,,,,,
,,5f7aea5d4f022a1f0fe49dc4,65af55873a9969d2d2611718,2024-01-23_07h03.26.844,bars,2023.2.3,Win32,29.94011976,657b66ea316d21385b68909f,,,,,,,,,,,2007.3853,2008.3847,,,2008.863,2009.1093,,43,43,,,,,,,,,,,,,,,,bars/013.png,bars/mask007.png,,,,,,,,,,,,0,1,,,,,,,4,6,4,6,,,,,,,,,,,2008.3847,2008.8629,2009.1094,2012.207,space,3.0581,,2012.207,32,33,2013.1961,2013.1961,2013.2006,,,,0,26,26,26,1,75,10,,,,,,,,
,,5f7aea5d4f022a1f0fe49dc4,65af55873a9969d2d2611718,2024-01-23_07h03.26.844,bars,2023.2.3,Win32,29.94011976,657b66ea316d21385b68909f,,,,,,,,,,,2013.2007,2014.1896,,,2014.6589,2014.8998,,160,-20,,,,,,,,,,,,,,,,bars/008.png,bars/mask000.png,,,,,,,,,,,,2,2,,,,,,,2,8,3,7,,,,,,,,,,,2014.1896,2014.6589,2014.8999,2029.9151,space,14.9752,,2029.9151,50,20,2030.8803,2030.8803,2030.8857,,,,0,27,27,27,1,110,0,,,,,,,,
,,5f7aea5d4f022a1f0fe49dc4,65af55873a9969d2d2611718,2024-01-23_07h03.26.844,bars,2023.2.3,Win32,29.94011976,657b66ea316d21385b68909f,,,,,,,,,,,2030.8859,2031.8665,,,2032.3567,2032.5918,,36,36,,,,,,,,,,,,,,,,bars/034.png,bars/mask002.png,,,,,,,,,,,,0,2,,,,,,,0,10,0,10,,,,,,,,,,,2031.8665,2032.3567,2032.5918,2037.4973,space,4.8656,,2037.4973,89,29,2038.4845,2038.4846,2038.489,,,,0,28,28,28,1,125,65,,,,,,,,
,,5f7aea5d4f022a1f0fe49dc4,65af55873a9969d2d2611718,2024-01-23_07h03.26.844,bars,2023.2.3,Win32,29.94011976,657b66ea316d21385b68909f,,,,,,,,,,,2038.4891,2039.4806,,,2039.9832,2040.2214,,36,36,,,,,,,,,,,,,,,,bars/036.png,bars/mask009.png,,,,,,,,,,,,4,2,,,,,,,0,8,1,9,,,,,,,,,,,2039.4806,2039.9832,2040.2214,2054.1537,space,13.89,,2054.1538,71,16,2055.1518,2055.1519,2055.1569,,,,0,29,29,29,1,145,20,,,,,,,,
,,5f7aea5d4f022a1f0fe49dc4,65af55873a9969d2d2611718,2024-01-23_07h03.26.844,bars,2023.2.3,Win32,29.94011976,657b66ea316d21385b68909f,,,,,,,,,,,2055.157,2056.1451,,,2056.6443,2056.876,,98,98,,,,,,,,,,,,,,,,bars/017.png,bars/mask001.png,,,,,,,,,,,,0,1,,,,,,,0,6,0,5,,,,,,,,,,,2056.1451,2056.6442,2056.876,2099.6928,space,42.7724,,2099.6928,47,53,2100.6775,2100.6775,2100.6834,,,,0,30,30,30,1,145,45,,,,,,,,
,,5f7aea5d4f022a1f0fe49dc4,65af55873a9969d2d2611718,2024-01-23_07h03.26.844,bars,2023.2.3,Win32,29.94011976,657b66ea316d21385b68909f,,,,,,,,,,,2100.6836,2101.6728,,,2102.181,2102.4217,,144,-36,,,,,,,,,,,,,,,,bars/049.png,bars/mask006.png,,,,,,,,,,,,1,1,,,,,,,2,8,3,9,,,,,,,,,,,2101.6728,2102.181,2102.4217,2104.8815,space,2.4194,,2104.8816,16,29,2105.8711,2105.8712,2105.8755,,,,0,31,31,31,1,160,115,,,,,,,,
,,5f7aea5d4f022a1f0fe49dc4,65af55873a9969d2d2611718,2024-01-23_07h03.26.844,bars,2023.2.3,Win32,29.94011976,657b66ea316d21385b68909f,,,,,,,,,,,2105.8757,2106.8558,,,2107.3253,2107.5514,,7,7,,,,,,,,,,,,,,,,bars/045.png,bars/mask009.png,,,,,,,,,,,,8,2,,,,,,,0,10,0,9,,,,,,,,,,,2106.8559,2107.3253,2107.5514,2110.5732,space,2.9804,,2110.5732,87,3,2111.5745,2111.5745,2111.5753,,,,0,32,32,32,1,100,10,,,,,,,,
,,5f7aea5d4f022a1f0fe49dc4,65af55873a9969d2d2611718,2024-01-23_07h03.26.844,bars,2023.2.3,Win32,29.94011976,657b66ea316d21385b68909f,,,,,,,,,,,2111.5754,2112.5466,,,2113.0553,2113.2825,,106,106,,,,,,,,,,,,,,,,bars/014.png,bars/mask007.png,,,,,,,,,,,,0,1,,,,,,,2,10,3,10,,,,,,,,,,,2112.5466,2113.0553,2113.2825,2116.6303,space,3.3058,,2116.6303,26,74,2117.5892,2117.5892,2117.5942,,,,0,33,33,33,1,80,0,,,,,,,,
,,5f7aea5d4f022a1f0fe49dc4,65af55873a9969d2d2611718,2024-01-23_07h03.26.844,bars,2023.2.3,Win32,29.94011976,657b66ea316d21385b68909f,,,,,,,,,,,2117.5943,2118.6115,,,2119.1145,2119.3431,,25,25,,,,,,,,,,,,,,,,bars/047.png,bars/mask009.png,,,,,,,,,,,,0,1,,,,,,,0,10,0,10,,,,,,,,,,,2118.6116,2119.1145,2119.3432,2122.2869,space,2.9029,,2122.2869,10,45,2123.2695,2123.2695,2123.2698,,,,0,34,34,34,1,15,70,,,,,,,,
,,5f7aea5d4f022a1f0fe49dc4,65af55873a9969d2d2611718,2024-01-23_07h03.26.844,bars,2023.2.3,Win32,29.94011976,657b66ea316d21385b68909f,,,,,,,,,,,2123.2699,2124.258,,,2124.7697,2125.0052,,141,-39,,,,,,,,,,,,,,,,bars/000.png,bars/mask004.png,,,,,,,,,,,,9,2,,,,,,,2,10,2,10,,,,,,,,,,,2124.258,2124.7697,2125.0052,2129.5688,space,4.524,,2129.5689,79,4,2130.5671,2130.5672,2130.5719,,,,0,35,35,35,1,40,145,,,,,,,,
,,5f7aea5d4f022a1f0fe49dc4,65af55873a9969d2d2611718,2024-01-23_07h03.26.844,bars,2023.2.3,Win32,29.94011976,657b66ea316d21385b68909f,,,,,,,,,,,2130.572,2131.535,,,2132.0364,2132.2737,,14,14,,,,,,,,,,,,,,,,bars/022.png,bars/mask008.png,,,,,,,,,,,,8,2,,,,,,,0,10,0,10,,,,,,,,,,,2131.535,2132.0364,2132.2737,2134.853,space,2.5295,,2134.853,81,6,2135.8528,2135.8528,2135.853,,,,0,36,36,36,1,95,20,,,,,,,,
,,5f7aea5d4f022a1f0fe49dc4,65af55873a9969d2d2611718,2024-01-23_07h03.26.844,bars,2023.2.3,Win32,29.94011976,657b66ea316d21385b68909f,,,,,,,,,,,2135.8531,2136.8552,,,2137.3227,2137.5564,,7,7,,,,,,,,,,,,,,,,bars/036.png,bars/mask001.png,,,,,,,,,,,,6,2,,,,,,,0,10,1,10,,,,,,,,,,,2136.8553,2137.3227,2137.5565,2140.1293,space,2.5306,,2140.1294,42,13,2141.1192,2141.1192,2141.1196,,,,0,37,37,37,1,145,20,,,,,,,,
,,5f7aea5d4f022a1f0fe49dc4,65af55873a9969d2d2611718,2024-01-23_07h03.26.844,bars,2023.2.3,Win32,29.94011976,657b66ea316d21385b68909f,,,,,,,,,,,2141.1197,2142.1378,,,2142.6049,2142.8382,,58,58,,,,,,,,,,,,,,,,bars/003.png,bars/mask000.png,,,,,,,,,,,,0,1,,,,,,,2,8,1,9,,,,,,,,,,,2142.1378,2142.6049,2142.8383,2144.6434,space,1.7654,,2144.6434,33,82,2145.6558,2145.6558,2145.6569,,,,0,38,38,38,1,25,140,,,,,,,,
,,5f7aea5d4f022a1f0fe49dc4,65af55873a9969d2d2611718,2024-01-23_07h03.26.844,bars,2023.2.3,Win32,29.94011976,657b66ea316d21385b68909f,,,,,,,,,,,2145.6569,2146.6304,,,2147.0955,2147.34,,28,28,,,,,,,,,,,,,,,,bars/030.png,bars/mask006.png,,,,,,,,,,,,0,2,,,,,,,4,10,4,10,,,,,,,,,,,2146.6304,2147.0955,2147.34,2150.492,space,3.1048,,2150.492,68,37,2151.4791,2151.4792,2151.4841,,,,0,39,39,39,1,140,65,,,,,,,,
,,5f7aea5d4f022a1f0fe49dc4,65af55873a9969d2d2611718,2024-01-23_07h03.26.844,bars,2023.2.3,Win32,29.94011976,657b66ea316d21385b68909f,,,,,,,,,,,2151.4842,2152.4962,,,2152.9621,2153.1937,,103,103,,,,,,,,,,,,,,,,bars/042.png,bars/mask008.png,,,,,,,,,,,,1,2,,,,,,,6,10,6,10,,,,,,,,,,,2152.4962,2152.962,2153.1937,2156.6695,space,3.4349,,2156.6695,42,28,2157.6659,2157.6659,2157.6704,,,,0,40,40,40,1,145,75,,,,,,,,
,,5f7aea5d4f022a1f0fe49dc4,65af55873a9969d2d2611718,2024-01-23_07h03.26.844,bars,2023.2.3,Win32,29.94011976,657b66ea316d21385b68909f,,,,,,,,,,,2157.6705,2158.6595,,,2159.1293,2159.3591,,178,-2,,,,,,,,,,,,,,,,bars/019.png,bars/mask004.png,,,,,,,,,,,,0,1,,,,,,,8,10,9,10,,,,,,,,,,,2158.6596,2159.1293,2159.3591,2180.5827,space,21.1758,,2180.5827,47,73,2181.5864,2181.5864,2181.5927,,,,0,41,41,41,1,45,105,,,,,,,,
,,5f7aea5d4f022a1f0fe49dc4,65af55873a9969d2d2611718,2024-01-23_07h03.26.844,bars,2023.2.3,Win32,29.94011976,657b66ea316d21385b68909f,,,,,,,,,,,2181.5928,2182.5949,,,2183.0622,2183.287,,45,45,,,,,,,,,,,,,,,,bars/031.png,bars/mask008.png,,,,,,,,,,,,7,2,,,,,,,6,10,4,10,,,,,,,,,,,2182.5949,2183.0622,2183.287,2186.0344,space,2.7064,,2186.0344,75,10,2187.0332,2187.0332,2187.038,,,,0,42,42,42,1,120,35,,,,,,,,
,,5f7aea5d4f022a1f0fe49dc4,65af55873a9969d2d2611718,2024-01-23_07h03.26.844,bars,2023.2.3,Win32,29.94011976,657b66ea316d21385b68909f,,,,,,,,,,,2187.0381,2188.0172,,,2188.521,2188.7541,,29,29,,,,,,,,,,,,,,,,bars/028.png,bars/mask004.png,,,,,,,,,,,,3,1,,,,,,,8,8,6,8,,,,,,,,,,,2188.0172,2188.521,2188.7542,2192.2129,space,3.4165,,2192.2129,16,89,2193.1992,2193.1993,2193.2,,,,0,43,43,43,1,45,120,,,,,,,,
,,5f7aea5d4f022a1f0fe49dc4,65af55873a9969d2d2611718,2024-01-23_07h03.26.844,bars,2023.2.3,Win32,29.94011976,657b66ea316d21385b68909f,,,,,,,,,,,2193.2001,2194.1754,,,2194.644,2194.8767,,106,-74,,,,,,,,,,,,,,,,bars/044.png,bars/mask006.png,,,,,,,,,,,,0,1,,,,,,,6,10,5,9,,,,,,,,,,,2194.1754,2194.644,2194.8767,2199.0768,space,4.158,,2199.0768,31,49,2200.0727,2200.0728,2200.0732,,,,0,44,44,44,1,75,155,,,,,,,,
,,5f7aea5d4f022a1f0fe49dc4,65af55873a9969d2d2611718,2024-01-23_07h03.26.844,bars,2023.2.3,Win32,29.94011976,657b66ea316d21385b68909f,,,,,,,,,,,2200.0734,2201.0778,,,2201.5405,2201.7706,,54,54,,,,,,,,,,,,,,,,bars/014.png,bars/mask007.png,,,,,,,,,,,,0,1,,,,,,,4,8,3,8,,,,,,,,,,,2201.0778,2201.5405,2201.7706,2206.6898,space,4.8703,,2206.6899,26,54,2207.7024,2207.7024,2207.7028,,,,0,45,45,45,1,80,0,,,,,,,,
,,5f7aea5d4f022a1f0fe49dc4,65af55873a9969d2d2611718,2024-01-23_07h03.26.844,bars,2023.2.3,Win32,29.94011976,657b66ea316d21385b68909f,,,,,,,,,,,2207.7029,2208.7027,,,2209.2085,2209.4398,,6,6,,,,,,,,,,,,,,,,bars/048.png,bars/mask005.png,,,,,,,,,,,,4,2,,,,,,,2,6,3,7,,,,,,,,,,,2208.7027,2209.2085,2209.4398,2211.4244,space,1.9449,,2211.4244,44,11,2212.4151,2212.4151,2212.4163,,,,0,46,46,46,1,50,175,,,,,,,,
,,5f7aea5d4f022a1f0fe49dc4,65af55873a9969d2d2611718,2024-01-23_07h03.26.844,bars,2023.2.3,Win32,29.94011976,657b66ea316d21385b68909f,,,,,,,,,,,2212.4165,2213.3874,,,2213.8894,2214.1224,,118,-62,,,,,,,,,,,,,,,,bars/039.png,bars/mask003.png,,,,,,,,,,,,2,2,,,,,,,4,4,4,4,,,,,,,,,,,2213.3874,2213.8894,2214.1224,2217.3714,space,3.2035,,2217.3715,57,13,2218.3365,2218.3366,2218.337,,,,0,47,47,47,1,175,105,,,,,,,,
,,5f7aea5d4f022a1f0fe49dc4,65af55873a9969d2d2611718,2024-01-23_07h03.26.844,bars,2023.2.3,Win32,29.94011976,657b66ea316d21385b68909f,,,,,,,,,,,2218.337,2219.3435,,,2219.8491,2220.0862,,34,34,,,,,,,,,,,,,,,,bars/023.png,bars/mask005.png,,,,,,,,,,,,2,1,,,,,,,2,2,3,3,,,,,,,,,,,2219.3435,2219.849,2220.0862,2223.543,space,3.4142,,2223.543,14,81,2224.55,2224.55,2224.5509,,,,0,48,48,48,1,20,115,,,,,,,,
,,5f7aea5d4f022a1f0fe49dc4,65af55873a9969d2d2611718,2024-01-23_07h03.26.844,bars,2023.2.3,Win32,29.94011976,657b66ea316d21385b68909f,,,,,,,,,,,2224.5511,2225.5543,,,2226.0389,2226.2738,,88,88,,,,,,,,,,,,,,,,bars/012.png,bars/mask003.png,,,,,,,,,,,,3,1,,,,,,,4,0,3,0,,,,,,,,,,,2225.5543,2226.0389,2226.2738,2230.7591,space,4.445,,2230.7592,2,73,2231.7494,2231.7494,2231.7539,,,,0,49,49,49,1,90,15,,,,,,,,
,,5f7aea5d4f022a1f0fe49dc4,65af55873a9969d2d2611718,2024-01-23_07h03.26.844,bars,2023.2.3,Win32,29.94011976,657b66ea316d21385b68909f,,,,,,,,,,,,,,,,,,,,,,,,,,,,,,,,,,,,,,,,,,,,,,,,,,,,,,,,,,,,,,,,,,,,,,,,,,,,,,,,,,,,,,,,,,,,,2231.754,2291.7528,0,3,3,2,1,sequence_tables/blk007.csv
,,5f7aea5d4f022a1f0fe49dc4,65af55873a9969d2d2611718,2024-01-23_07h03.26.844,bars,2023.2.3,Win32,29.94011976,657b66ea316d21385b68909f,,,,,,,,,,,2345.3936,2346.3945,,,2346.9048,2347.1369,,13,13,,,,,,,,,,,,,,,,bars/028.png,bars/mask003.png,,,,,,,,,,,,0,1,,,,,,,2,7,4,8,,,,,,2291.7577,2345.3871,space,53.5879,,2346.3945,2346.9048,2347.1369,2350.0089,space,2.8308,,2350.009,32,73,2351.0023,2351.0023,2351.0068,,,,0,0,0,0,1,45,120,,,,,,,,
,,5f7aea5d4f022a1f0fe49dc4,65af55873a9969d2d2611718,2024-01-23_07h03.26.844,bars,2023.2.3,Win32,29.94011976,657b66ea316d21385b68909f,,,,,,,,,,,2351.007,2351.9957,,,2352.4634,2352.7013,,113,113,,,,,,,,,,,,,,,,bars/044.png,bars/mask000.png,,,,,,,,,,,,0,1,,,,,,,4,5,3,5,,,,,,,,,,,2351.9957,2352.4634,2352.7014,2356.5345,space,3.7924,,2356.5345,38,42,2357.5066,2357.5066,2357.507,,,,0,1,1,1,1,75,155,,,,,,,,
,,5f7aea5d4f022a1f0fe49dc4,65af55873a9969d2d2611718,2024-01-23_07h03.26.844,bars,2023.2.3,Win32,29.94011976,657b66ea316d21385b68909f,,,,,,,,,,,2357.5071,2358.5131,,,2359.0119,2359.2527,,172,-8,,,,,,,,,,,,,,,,bars/020.png,bars/mask003.png,,,,,,,,,,,,7,2,,,,,,,6,7,7,8,,,,,,,,,,,2358.5131,2359.0119,2359.2527,2361.3471,space,2.0477,,2361.3471,57,2,2362.3406,2362.3406,2362.3414,,,,0,2,2,2,1,115,170,,,,,,,,
,,5f7aea5d4f022a1f0fe49dc4,65af55873a9969d2d2611718,2024-01-23_07h03.26.844,bars,2023.2.3,Win32,29.94011976,657b66ea316d21385b68909f,,,,,,,,,,,2362.3415,2363.3046,,,2363.8142,2364.0539,,135,135,,,,,,,,,,,,,,,,bars/026.png,bars/mask002.png,,,,,,,,,,,,0,2,,,,,,,8,5,7,5,,,,,,,,,,,2363.3046,2363.8142,2364.0539,2365.5383,space,1.4424,,2365.5383,80,50,2366.5466,2366.5466,2366.547,,,,0,3,3,3,1,35,85,,,,,,,,
,,5f7aea5d4f022a1f0fe49dc4,65af55873a9969d2d2611718,2024-01-23_07h03.26.844,bars,2023.2.3,Win32,29.94011976,657b66ea316d21385b68909f,,,,,,,,,,,2366.547,2367.5504,,,2368.029,2368.2636,,15,15,,,,,,,,,,,,,,,,bars/002.png,bars/mask009.png,,,,,,,,,,,,0,1,,,,,,,6,3,6,2,,,,,,,,,,,2367.5504,2368.029,2368.2636,2371.4506,space,3.1439,,2371.4507,65,70,2372.4543,2372.4544,2372.4593,,,,0,4,4,4,1,130,85,,,,,,,,
,,5f7aea5d4f022a1f0fe49dc4,65af55873a9969d2d2611718,2024-01-23_07h03.26.844,bars,2023.2.3,Win32,29.94011976,657b66ea316d21385b68909f,,,,,,,,,,,2372.4595,2373.4579,,,2373.9322,2374.1619,,176,-4,,,,,,,,,,,,,,,,bars/036.png,bars/mask009.png,,,,,,,,,,,,1,2,,,,,,,4,5,4,6,,,,,,,,,,,2373.4579,2373.9322,2374.162,2376.0828,space,1.8793,,2376.0829,31,24,2377.0549,2377.0549,2377.0559,,,,0,5,5,5,1,145,20,,,,,,,,
,,5f7aea5d4f022a1f0fe49dc4,65af55873a9969d2d2611718,2024-01-23_07h03.26.844,bars,2023.2.3,Win32,29.94011976,657b66ea316d21385b68909f,,,,,,,,,,,2377.056,2378.0633,,,2378.5771,2378.8104,,40,40,,,,,,,,,,,,,,,,bars/013.png,bars/mask007.png,,,,,,,,,,,,0,2,,,,,,,2,3,3,3,,,,,,,,,,,2378.0633,2378.5771,2378.8104,2381.0811,space,2.2205,,2381.0811,35,30,2382.0767,2382.0767,2382.077,,,,0,6,6,6,1,75,10,,,,,,,,
,,5f7aea5d4f022a1f0fe49dc4,65af55873a9969d2d2611718,2024-01-23_07h03.26.844,bars,2023.2.3,Win32,29.94011976,657b66ea316d21385b68909f,,,,,,,,,,,2382.0771,2383.0766,,,2383.5826,2383.8133,,58,58,,,,,,,,,,,,,,,,bars/014.png,bars/mask002.png,,,,,,,,,,,,2,1,,,,,,,4,1,6,2,,,,,,,,,,,2383.0766,2383.5826,2383.8134,2386.52,space,2.6632,,2386.52,22,58,2387.5144,2387.5144,2387.5156,,,,0,7,7,7,1,80,0,,,,,,,,
,,5f7aea5d4f022a1f0fe49dc4,65af55873a9969d2d2611718,2024-01-23_07h03.26.844,bars,2023.2.3,Win32,29.94011976,657b66ea316d21385b68909f,,,,,,,,,,,2387.5157,2388.486,,,2388.9913,2389.2284,,175,-5,,,,,,,,,,,,,,,,bars/022.png,bars/mask005.png,,,,,,,,,,,,1,2,,,,,,,6,3,5,4,,,,,,,,,,,2388.4861,2388.9913,2389.2284,2391.6627,space,2.3919,,2391.6627,80,25,2392.6537,2392.6537,2392.6547,,,,0,8,8,8,1,95,20,,,,,,,,
,,5f7aea5d4f022a1f0fe49dc4,65af55873a9969d2d2611718,2024-01-23_07h03.26.844,bars,2023.2.3,Win32,29.94011976,657b66ea316d21385b68909f,,,,,,,,,,,2392.6548,2393.6593,,,2394.1786,2394.4153,,10,10,,,,,,,,,,,,,,,,bars/047.png,bars/mask007.png,,,,,,,,,,,,6,1,,,,,,,8,5,7,5,,,,,,,,,,,2393.6593,2394.1786,2394.4153,2397.0387,space,2.5779,,2397.0387,5,60,2398.0256,2398.0256,2398.0265,,,,0,9,9,9,1,15,70,,,,,,,,
,,5f7aea5d4f022a1f0fe49dc4,65af55873a9969d2d2611718,2024-01-23_07h03.26.844,bars,2023.2.3,Win32,29.94011976,657b66ea316d21385b68909f,,,,,,,,,,,2398.0265,2399.0222,,,2399.5046,2399.7393,,151,-29,,,,,,,,,,,,,,,,bars/014.png,bars/mask001.png,,,,,,,,,,,,0,2,,,,,,,10,3,10,4,,,,,,,,,,,2399.0222,2399.5046,2399.7394,2401.9996,space,2.2156,,2401.9996,71,29,2402.9991,2402.9991,2403.0041,,,,0,10,10,10,1,80,0,,,,,,,,
