init_variables.started,init_variables.stopped,participant,session,date,expName,psychopyVersion,OS,frameRate,study_id,instruction_exp.started,instruction_exp.stopped,key_resp_8.keys,key_resp_8.rt,key_resp_8.duration,instruction_single.started,instruction_single.stopped,key_resp_2.keys,key_resp_2.rt,key_resp_2.duration,interval.started,interval.stopped,cue_single.started,cue_single.stopped,mask.started,mask.stopped,ori_response_single.started,res_ori,res,ori_response_single.stopped,key_resp_single.keys,key_resp_single.rt,key_resp_single.duration,disp_single.started,disp_single.stopped,key_resp.keys,key_resp.rt,key_resp.duration,single.thisRepN,single.thisTrialN,single.thisN,single.thisIndex,single.ran,ori,path,mask_path,instruction_bandit.started,instruction_bandit.stopped,key_resp_6.keys,key_resp_6.rt,key_resp_6.duration,cue_bandit.started,cue_bandit.stopped,bandit_res.keys,bandit_res.rt,bandit_res.duration,outcome_bandit.started,rew,action,outcome_bandit.stopped,bandit.thisRepN,bandit.thisTrialN,bandit.thisN,bandit.thisIndex,bandit.ran,actual_rew1,actual_rew2,rew1,rew2,instruction_task.started,instruction_task.stopped,key_resp_7.keys,key_resp_7.rt,key_resp_7.duration,wait_ready.started,wait_ready.stopped,key_resp_3.keys,key_resp_3.rt,key_resp_3.duration,cue.started,cue.stopped,ori_response.started,ori_response.stopped,key_resp_5.keys,key_resp_5.rt,key_resp_5.duration,outcome.started,diff1,diff2,outcome.stopped,disp_outcome_practice.started,disp_outcome_practice.stopped,key_resp_4.keys,key_resp_4.rt,key_resp_4.duration,trials.thisRepN,trials.thisTrialN,trials.thisN,trials.thisIndex,trials.ran,ori1,ori2,break_blk.started,break_blk.stopped,block.thisRepN,block.thisTrialN,block.thisN,block.thisIndex,block.ran,condition_file
0.0013,0.0015,5e9133f704391d46ee2bcb31,65af57c0e8cf4b3e6d33359c,2024-01-23_03h08.49.571,bars,2023.2.3,Win32,60.24096386,657b66ea316d21385b68909f,,,,,,,,,,,,,,,,,,,,,,,,,,,,,,,,,,,,,,,,,,,,,,,,,,,,,,,,,,,,,,,,,,,,,,,,,,,,,,,,,,,,,,,,,,,,,,,,,,,,
,,5e9133f704391d46ee2bcb31,65af57c0e8cf4b3e6d33359c,2024-01-23_03h08.49.571,bars,2023.2.3,Win32,60.24096386,657b66ea316d21385b68909f,0.0018,8.5768,y,8.5557,,,,,,,,,,,,,,,,,,,,,,,,,,,,,,,,,,,,,,,,,,,,,,,,,,,,,,,,,,,,,,,,,,,,,,,,,,,,,,,,,,,,,,,,,,,,,,,,
,,5e9133f704391d46ee2bcb31,65af57c0e8cf4b3e6d33359c,2024-01-23_03h08.49.571,bars,2023.2.3,Win32,60.24096386,657b66ea316d21385b68909f,,,,,,8.5774,15.5882,space,6.9884,,,,,,,,,,,,,,,,,,,,,,,,,,,,,,,,,,,,,,,,,,,,,,,,,,,,,,,,,,,,,,,,,,,,,,,,,,,,,,,,,,,,,,,,,,,
,,5e9133f704391d46ee2bcb31,65af57c0e8cf4b3e6d33359c,2024-01-23_03h08.49.571,bars,2023.2.3,Win32,60.24096386,657b66ea316d21385b68909f,,,,,,,,,,,15.5998,16.6067,16.6069,17.0897,17.09,17.3351,17.3358,144,144,21.6971,space,4.3202,,21.6973,27.0751,space,5.3266,,0,0,0,2,1,145,bars/single002.png,bars/mask003.png,,,,,,,,,,,,,,,,,,,,,,,,,,,,,,,,,,,,,,,,,,,,,,,,,,,,,,,,,,,,,,,,
,,5e9133f704391d46ee2bcb31,65af57c0e8cf4b3e6d33359c,2024-01-23_03h08.49.571,bars,2023.2.3,Win32,60.24096386,657b66ea316d21385b68909f,,,,,,,,,,,27.0921,28.0901,28.0902,28.5894,28.5894,28.8393,28.8394,9,9,36.8484,space,7.9965,,36.8484,43.776,space,6.8875,,0,1,1,1,1,20,bars/single001.png,bars/mask006.png,,,,,,,,,,,,,,,,,,,,,,,,,,,,,,,,,,,,,,,,,,,,,,,,,,,,,,,,,,,,,,,,
,,5e9133f704391d46ee2bcb31,65af57c0e8cf4b3e6d33359c,2024-01-23_03h08.49.571,bars,2023.2.3,Win32,60.24096386,657b66ea316d21385b68909f,,,,,,,,,,,43.7943,44.7784,44.7784,45.2734,45.2736,45.5114,45.5114,99,279,52.3163,space,6.7783,,52.3164,54.5703,space,2.2324,,0,2,2,4,1,95,bars/single004.png,bars/mask004.png,,,,,,,,,,,,,,,,,,,,,,,,,,,,,,,,,,,,,,,,,,,,,,,,,,,,,,,,,,,,,,,,
,,5e9133f704391d46ee2bcb31,65af57c0e8cf4b3e6d33359c,2024-01-23_03h08.49.571,bars,2023.2.3,Win32,60.24096386,657b66ea316d21385b68909f,,,,,,,,,,,54.5709,55.5632,55.5633,56.0626,56.0626,56.3126,56.3126,176,-4,59.5936,space,3.2662,,59.5937,61.5912,space,1.956,,0,3,3,6,1,175,bars/single006.png,bars/mask005.png,,,,,,,,,,,,,,,,,,,,,,,,,,,,,,,,,,,,,,,,,,,,,,,,,,,,,,,,,,,,,,,,
,,5e9133f704391d46ee2bcb31,65af57c0e8cf4b3e6d33359c,2024-01-23_03h08.49.571,bars,2023.2.3,Win32,60.24096386,657b66ea316d21385b68909f,,,,,,,,,,,61.5925,62.59,62.59,63.0903,63.0903,63.3393,63.3393,1,1,68.5843,space,5.2292,,68.5844,71.4819,space,2.8589,,0,4,4,0,1,150,bars/single000.png,bars/mask006.png,,,,,,,,,,,,,,,,,,,,,,,,,,,,,,,,,,,,,,,,,,,,,,,,,,,,,,,,,,,,,,,,
,,5e9133f704391d46ee2bcb31,65af57c0e8cf4b3e6d33359c,2024-01-23_03h08.49.571,bars,2023.2.3,Win32,60.24096386,657b66ea316d21385b68909f,,,,,,,,,,,71.4975,72.4966,72.4967,72.9962,72.9964,73.2463,73.2464,22,22,76.7934,space,3.5146,,76.7939,78.5241,space,1.709,,0,5,5,3,1,20,bars/single003.png,bars/mask005.png,,,,,,,,,,,,,,,,,,,,,,,,,,,,,,,,,,,,,,,,,,,,,,,,,,,,,,,,,,,,,,,,
,,5e9133f704391d46ee2bcb31,65af57c0e8cf4b3e6d33359c,2024-01-23_03h08.49.571,bars,2023.2.3,Win32,60.24096386,657b66ea316d21385b68909f,,,,,,,,,,,78.5252,79.5233,79.5234,80.0228,80.0229,80.2726,80.2726,34,34,84.7185,space,4.4355,,84.7186,87.1489,space,2.4044,,0,6,6,5,1,55,bars/single005.png,bars/mask008.png,,,,,,,,,,,,,,,,,,,,,,,,,,,,,,,,,,,,,,,,,,,,,,,,,,,,,,,,,,,,,,,,
,,5e9133f704391d46ee2bcb31,65af57c0e8cf4b3e6d33359c,2024-01-23_03h08.49.571,bars,2023.2.3,Win32,60.24096386,657b66ea316d21385b68909f,,,,,,,,,,,87.1656,88.1646,88.1646,88.6644,88.6644,88.914,88.9141,155,-25,93.6433,space,4.7139,,93.6434,95.2245,space,1.5458,,0,7,7,8,1,160,bars/single008.png,bars/mask004.png,,,,,,,,,,,,,,,,,,,,,,,,,,,,,,,,,,,,,,,,,,,,,,,,,,,,,,,,,,,,,,,,
,,5e9133f704391d46ee2bcb31,65af57c0e8cf4b3e6d33359c,2024-01-23_03h08.49.571,bars,2023.2.3,Win32,60.24096386,657b66ea316d21385b68909f,,,,,,,,,,,95.2249,96.2239,96.224,96.7235,96.7235,96.9734,96.9734,61,241,102.8171,space,5.8301,,102.8171,105.082,space,2.228,,0,8,8,7,1,45,bars/single007.png,bars/mask009.png,,,,,,,,,,,,,,,,,,,,,,,,,,,,,,,,,,,,,,,,,,,,,,,,,,,,,,,,,,,,,,,,
,,5e9133f704391d46ee2bcb31,65af57c0e8cf4b3e6d33359c,2024-01-23_03h08.49.571,bars,2023.2.3,Win32,60.24096386,657b66ea316d21385b68909f,,,,,,,,,,,105.0977,106.0969,106.0969,106.602,106.602,106.8465,106.8466,16,16,112.4242,space,5.5613,,112.4244,113.5905,space,1.1321,,0,9,9,9,1,20,bars/single009.png,bars/mask006.png,,,,,,,,,,,,,,,,,,,,,,,,,,,,,,,,,,,,,,,,,,,,,,,,,,,,,,,,,,,,,,,,
,,5e9133f704391d46ee2bcb31,65af57c0e8cf4b3e6d33359c,2024-01-23_03h08.49.571,bars,2023.2.3,Win32,60.24096386,657b66ea316d21385b68909f,,,,,,,,,,,,,,,,,,,,,,,,,,,,,,,,,,,,,113.5957,124.3809,space,10.7599,,,,,,,,,,,,,,,,,,,,,,,,,,,,,,,,,,,,,,,,,,,,,,,,,,,,,,,,,,,,
,,5e9133f704391d46ee2bcb31,65af57c0e8cf4b3e6d33359c,2024-01-23_03h08.49.571,bars,2023.2.3,Win32,60.24096386,657b66ea316d21385b68909f,,,,,,,,,,,,,,,,,,,,,,,,,,,,,,,,,,,,,,,,,,124.3902,126.3126,left,1.9003,,126.3131,9,1,127.3103,0,0,0,0,1,9,1,9,2,,,,,,,,,,,,,,,,,,,,,,,,,,,,,,,,,,,,,,,,,
,,5e9133f704391d46ee2bcb31,65af57c0e8cf4b3e6d33359c,2024-01-23_03h08.49.571,bars,2023.2.3,Win32,60.24096386,657b66ea316d21385b68909f,,,,,,,,,,,,,,,,,,,,,,,,,,,,,,,,,,,,,,,,,,127.3113,128.959,right,1.6217,,128.9591,1,2,129.9629,0,1,1,1,1,10,0,10,1,,,,,,,,,,,,,,,,,,,,,,,,,,,,,,,,,,,,,,,,,
,,5e9133f704391d46ee2bcb31,65af57c0e8cf4b3e6d33359c,2024-01-23_03h08.49.571,bars,2023.2.3,Win32,60.24096386,657b66ea316d21385b68909f,,,,,,,,,,,,,,,,,,,,,,,,,,,,,,,,,,,,,,,,,,129.9633,130.5405,left,0.5518,,130.5408,10,1,131.5387,0,2,2,2,1,10,2,10,2,,,,,,,,,,,,,,,,,,,,,,,,,,,,,,,,,,,,,,,,,
,,5e9133f704391d46ee2bcb31,65af57c0e8cf4b3e6d33359c,2024-01-23_03h08.49.571,bars,2023.2.3,Win32,60.24096386,657b66ea316d21385b68909f,,,,,,,,,,,,,,,,,,,,,,,,,,,,,,,,,,,,,,,,,,131.5399,132.1052,left,0.5365,,132.1053,7,1,133.104,0,3,3,3,1,8,4,7,3,,,,,,,,,,,,,,,,,,,,,,,,,,,,,,,,,,,,,,,,,
,,5e9133f704391d46ee2bcb31,65af57c0e8cf4b3e6d33359c,2024-01-23_03h08.49.571,bars,2023.2.3,Win32,60.24096386,657b66ea316d21385b68909f,,,,,,,,,,,,,,,,,,,,,,,,,,,,,,,,,,,,,,,,,,133.1052,133.7542,left,0.6276,,133.7546,5,1,134.7529,0,4,4,4,1,6,2,5,1,,,,,,,,,,,,,,,,,,,,,,,,,,,,,,,,,,,,,,,,,
,,5e9133f704391d46ee2bcb31,65af57c0e8cf4b3e6d33359c,2024-01-23_03h08.49.571,bars,2023.2.3,Win32,60.24096386,657b66ea316d21385b68909f,,,,,,,,,,,,,,,,,,,,,,,,,,,,,,,,,,,,,,,,,,134.7538,135.3911,right,0.616,,135.3911,4,2,136.3843,0,5,5,5,1,4,4,4,4,,,,,,,,,,,,,,,,,,,,,,,,,,,,,,,,,,,,,,,,,
,,5e9133f704391d46ee2bcb31,65af57c0e8cf4b3e6d33359c,2024-01-23_03h08.49.571,bars,2023.2.3,Win32,60.24096386,657b66ea316d21385b68909f,,,,,,,,,,,,,,,,,,,,,,,,,,,,,,,,,,,,,,,,,,136.3845,136.8506,right,0.4428,,136.8507,2,2,137.8496,0,6,6,6,1,2,2,1,2,,,,,,,,,,,,,,,,,,,,,,,,,,,,,,,,,,,,,,,,,
,,5e9133f704391d46ee2bcb31,65af57c0e8cf4b3e6d33359c,2024-01-23_03h08.49.571,bars,2023.2.3,Win32,60.24096386,657b66ea316d21385b68909f,,,,,,,,,,,,,,,,,,,,,,,,,,,,,,,,,,,,,,,,,,137.8503,139.4858,right,1.6141,,139.4859,1,2,140.4805,0,7,7,7,1,0,0,0,1,,,,,,,,,,,,,,,,,,,,,,,,,,,,,,,,,,,,,,,,,
,,5e9133f704391d46ee2bcb31,65af57c0e8cf4b3e6d33359c,2024-01-23_03h08.49.571,bars,2023.2.3,Win32,60.24096386,657b66ea316d21385b68909f,,,,,,,,,,,,,,,,,,,,,,,,,,,,,,,,,,,,,,,,,,140.4979,140.9631,left,0.4588,,140.9634,1,1,141.9624,0,8,8,8,1,0,2,1,0,,,,,,,,,,,,,,,,,,,,,,,,,,,,,,,,,,,,,,,,,
,,5e9133f704391d46ee2bcb31,65af57c0e8cf4b3e6d33359c,2024-01-23_03h08.49.571,bars,2023.2.3,Win32,60.24096386,657b66ea316d21385b68909f,,,,,,,,,,,,,,,,,,,,,,,,,,,,,,,,,,,,,,,,,,141.9638,142.3618,right,0.3699,,142.362,3,2,143.3607,0,9,9,9,1,2,4,2,3,,,,,,,,,,,,,,,,,,,,,,,,,,,,,,,,,,,,,,,,,
,,5e9133f704391d46ee2bcb31,65af57c0e8cf4b3e6d33359c,2024-01-23_03h08.49.571,bars,2023.2.3,Win32,60.24096386,657b66ea316d21385b68909f,,,,,,,,,,,,,,,,,,,,,,,,,,,,,,,,,,,,,,,,,,143.3617,143.8493,right,0.4674,,143.8493,3,2,144.8433,0,10,10,10,1,0,2,0,3,,,,,,,,,,,,,,,,,,,,,,,,,,,,,,,,,,,,,,,,,
,,5e9133f704391d46ee2bcb31,65af57c0e8cf4b3e6d33359c,2024-01-23_03h08.49.571,bars,2023.2.3,Win32,60.24096386,657b66ea316d21385b68909f,,,,,,,,,,,,,,,,,,,,,,,,,,,,,,,,,,,,,,,,,,144.8448,145.3923,right,0.5214,,145.3925,3,2,146.3911,0,11,11,11,1,0,4,0,3,,,,,,,,,,,,,,,,,,,,,,,,,,,,,,,,,,,,,,,,,
,,5e9133f704391d46ee2bcb31,65af57c0e8cf4b3e6d33359c,2024-01-23_03h08.49.571,bars,2023.2.3,Win32,60.24096386,657b66ea316d21385b68909f,,,,,,,,,,,,,,,,,,,,,,,,,,,,,,,,,,,,,,,,,,146.3922,146.7243,left,0.3093,,146.7245,1,1,147.7229,0,12,12,12,1,2,6,1,6,,,,,,,,,,,,,,,,,,,,,,,,,,,,,,,,,,,,,,,,,
,,5e9133f704391d46ee2bcb31,65af57c0e8cf4b3e6d33359c,2024-01-23_03h08.49.571,bars,2023.2.3,Win32,60.24096386,657b66ea316d21385b68909f,,,,,,,,,,,,,,,,,,,,,,,,,,,,,,,,,,,,,,,,,,147.7242,148.0614,right,0.317,,148.0615,3,2,149.0549,0,13,13,13,1,0,4,1,3,,,,,,,,,,,,,,,,,,,,,,,,,,,,,,,,,,,,,,,,,
,,5e9133f704391d46ee2bcb31,65af57c0e8cf4b3e6d33359c,2024-01-23_03h08.49.571,bars,2023.2.3,Win32,60.24096386,657b66ea316d21385b68909f,,,,,,,,,,,,,,,,,,,,,,,,,,,,,,,,,,,,,,,,,,149.0558,149.3551,right,0.2684,,149.3554,7,2,150.3536,0,14,14,14,1,2,6,2,7,,,,,,,,,,,,,,,,,,,,,,,,,,,,,,,,,,,,,,,,,
,,5e9133f704391d46ee2bcb31,65af57c0e8cf4b3e6d33359c,2024-01-23_03h08.49.571,bars,2023.2.3,Win32,60.24096386,657b66ea316d21385b68909f,,,,,,,,,,,,,,,,,,,,,,,,,,,,,,,,,,,,,,,,,,150.3542,150.7539,right,0.3666,,150.754,9,2,151.7521,0,15,15,15,1,4,8,3,9,,,,,,,,,,,,,,,,,,,,,,,,,,,,,,,,,,,,,,,,,
,,5e9133f704391d46ee2bcb31,65af57c0e8cf4b3e6d33359c,2024-01-23_03h08.49.571,bars,2023.2.3,Win32,60.24096386,657b66ea316d21385b68909f,,,,,,,,,,,,,,,,,,,,,,,,,,,,,,,,,,,,,,,,,,151.7529,152.2082,right,0.4345,,152.2083,7,2,153.201,0,16,16,16,1,6,6,7,7,,,,,,,,,,,,,,,,,,,,,,,,,,,,,,,,,,,,,,,,,
,,5e9133f704391d46ee2bcb31,65af57c0e8cf4b3e6d33359c,2024-01-23_03h08.49.571,bars,2023.2.3,Win32,60.24096386,657b66ea316d21385b68909f,,,,,,,,,,,,,,,,,,,,,,,,,,,,,,,,,,,,,,,,,,153.2013,153.5506,right,0.3181,,153.5506,5,2,154.5498,0,17,17,17,1,8,4,9,5,,,,,,,,,,,,,,,,,,,,,,,,,,,,,,,,,,,,,,,,,
,,5e9133f704391d46ee2bcb31,65af57c0e8cf4b3e6d33359c,2024-01-23_03h08.49.571,bars,2023.2.3,Win32,60.24096386,657b66ea316d21385b68909f,,,,,,,,,,,,,,,,,,,,,,,,,,,,,,,,,,,,,,,,,,154.5509,155.2489,right,0.6693,,155.249,1,2,156.2482,0,18,18,18,1,6,2,5,1,,,,,,,,,,,,,,,,,,,,,,,,,,,,,,,,,,,,,,,,,
,,5e9133f704391d46ee2bcb31,65af57c0e8cf4b3e6d33359c,2024-01-23_03h08.49.571,bars,2023.2.3,Win32,60.24096386,657b66ea316d21385b68909f,,,,,,,,,,,,,,,,,,,,,,,,,,,,,,,,,,,,,,,,,,156.2493,156.3816,left,0.1013,,156.3816,7,1,157.3801,0,19,19,19,1,8,0,7,0,,,,,,,,,,,,,,,,,,,,,,,,,,,,,,,,,,,,,,,,,
,,5e9133f704391d46ee2bcb31,65af57c0e8cf4b3e6d33359c,2024-01-23_03h08.49.571,bars,2023.2.3,Win32,60.24096386,657b66ea316d21385b68909f,,,,,,,,,,,,,,,,,,,,,,,,,,,,,,,,,,,,,,,,,,,,,,,,,,,,,,,,,,,,157.3818,174.6164,space,17.2012,,,,,,,,,,,,,,,,,,,,,,,,,,,,,,,,,,,,,
,,5e9133f704391d46ee2bcb31,65af57c0e8cf4b3e6d33359c,2024-01-23_03h08.49.571,bars,2023.2.3,Win32,60.24096386,657b66ea316d21385b68909f,,,,,,,,,,,176.0704,177.0609,,,177.5616,177.8101,,31,31,,,,,,,,,,,,,,,,bars/006.png,bars/mask006.png,,,,,,,,,,,,3,1,,,,,,,4,7,3,7,,,,,,174.6357,176.0625,space,1.4084,,177.0617,177.5614,177.8102,183.9556,space,6.1209,,183.9561,4,69,184.9534,184.954,191.4537,space,6.4779,,0,0,0,0,1,35,100,,,,,,,,
,,5e9133f704391d46ee2bcb31,65af57c0e8cf4b3e6d33359c,2024-01-23_03h08.49.571,bars,2023.2.3,Win32,60.24096386,657b66ea316d21385b68909f,,,,,,,,,,,191.4691,192.4624,,,192.9628,193.2123,,29,209,,,,,,,,,,,,,,,,bars/026.png,bars/mask009.png,,,,,,,,,,,,6,1,,,,,,,6,5,7,5,,,,,,,,,,,192.4626,192.9625,193.2124,197.8905,space,4.6557,,197.8909,6,56,198.8896,198.8899,200.994,space,2.0789,,0,1,1,1,1,35,85,,,,,,,,
,,5e9133f704391d46ee2bcb31,65af57c0e8cf4b3e6d33359c,2024-01-23_03h08.49.571,bars,2023.2.3,Win32,60.24096386,657b66ea316d21385b68909f,,,,,,,,,,,200.9944,201.9868,,,202.4865,202.7367,,126,126,,,,,,,,,,,,,,,,bars/025.png,bars/mask000.png,,,,,,,,,,,,1,1,,,,,,,4,3,4,4,,,,,,,,,,,201.9869,202.4865,202.7369,206.6652,space,3.9065,,206.6654,21,86,207.6644,207.6644,210.4115,space,2.7208,,0,2,2,2,1,105,40,,,,,,,,
,,5e9133f704391d46ee2bcb31,65af57c0e8cf4b3e6d33359c,2024-01-23_03h08.49.571,bars,2023.2.3,Win32,60.24096386,657b66ea316d21385b68909f,,,,,,,,,,,210.4127,211.4107,,,211.9106,212.16,,19,199,,,,,,,,,,,,,,,,bars/022.png,bars/mask001.png,,,,,,,,,,,,5,2,,,,,,,2,5,2,5,,,,,,,,,,,211.4108,211.9106,212.16,217.9545,space,5.7811,,217.9546,76,1,218.9537,218.9538,220.4526,space,1.4678,,0,3,3,3,1,95,20,,,,,,,,
,,5e9133f704391d46ee2bcb31,65af57c0e8cf4b3e6d33359c,2024-01-23_03h08.49.571,bars,2023.2.3,Win32,60.24096386,657b66ea316d21385b68909f,,,,,,,,,,,220.454,221.4507,,,221.9508,222.2002,,51,51,,,,,,,,,,,,,,,,bars/035.png,bars/mask006.png,,,,,,,,,,,,3,2,,,,,,,0,3,1,4,,,,,,,,,,,221.4507,221.9507,222.2002,224.1484,space,1.9339,,224.1485,56,9,225.1472,225.1472,226.7801,space,1.6005,,0,4,4,4,1,175,60,,,,,,,,
,,5e9133f704391d46ee2bcb31,65af57c0e8cf4b3e6d33359c,2024-01-23_03h08.49.571,bars,2023.2.3,Win32,60.24096386,657b66ea316d21385b68909f,,,,,,,,,,,226.781,227.778,,,228.2774,228.5272,,174,-6,,,,,,,,,,,,,,,,bars/014.png,bars/mask009.png,,,,,,,,,,,,2,2,,,,,,,0,5,0,2,,,,,,,,,,,227.7781,228.2774,228.5272,231.7076,space,3.1726,,231.7078,86,6,232.707,232.7072,233.6896,space,0.9479,,0,5,5,5,1,80,0,,,,,,,,
,,5e9133f704391d46ee2bcb31,65af57c0e8cf4b3e6d33359c,2024-01-23_03h08.49.571,bars,2023.2.3,Win32,60.24096386,657b66ea316d21385b68909f,,,,,,,,,,,233.6906,234.6877,,,235.1873,235.437,,140,-40,,,,,,,,,,,,,,,,bars/037.png,bars/mask002.png,,,,,,,,,,,,2,1,,,,,,,2,7,3,6,,,,,,,,,,,234.6878,235.1873,235.437,239.7661,space,4.3184,,239.7663,10,35,240.7657,240.7658,242.8304,space,2.0222,,0,6,6,6,1,150,105,,,,,,,,
,,5e9133f704391d46ee2bcb31,65af57c0e8cf4b3e6d33359c,2024-01-23_03h08.49.571,bars,2023.2.3,Win32,60.24096386,657b66ea316d21385b68909f,,,,,,,,,,,242.8308,243.829,,,244.3285,244.5783,,140,-40,,,,,,,,,,,,,,,,bars/031.png,bars/mask007.png,,,,,,,,,,,,0,1,,,,,,,0,9,0,9,,,,,,,,,,,243.8291,244.3285,244.5783,249.8734,space,5.2826,,249.8734,20,75,250.8726,250.8726,253.1538,space,2.2557,,0,7,7,7,1,120,35,,,,,,,,
,,5e9133f704391d46ee2bcb31,65af57c0e8cf4b3e6d33359c,2024-01-23_03h08.49.571,bars,2023.2.3,Win32,60.24096386,657b66ea316d21385b68909f,,,,,,,,,,,253.1544,254.1525,,,254.652,254.9017,,127,127,,,,,,,,,,,,,,,,bars/002.png,bars/mask009.png,,,,,,,,,,,,0,1,,,,,,,0,10,0,10,,,,,,,,,,,254.1526,254.6519,254.9017,257.3493,space,2.4384,,257.3494,3,42,258.3479,258.348,260.0798,space,1.7011,,0,8,8,8,1,130,85,,,,,,,,
,,5e9133f704391d46ee2bcb31,65af57c0e8cf4b3e6d33359c,2024-01-23_03h08.49.571,bars,2023.2.3,Win32,60.24096386,657b66ea316d21385b68909f,,,,,,,,,,,260.0803,261.0786,,,261.5782,261.828,,57,57,,,,,,,,,,,,,,,,bars/017.png,bars/mask007.png,,,,,,,,,,,,6,2,,,,,,,2,10,2,10,,,,,,,,,,,261.0787,261.5781,261.828,263.6595,space,1.8231,,263.6596,88,12,264.6586,264.6586,266.174,space,1.4936,,0,9,9,9,1,145,45,,,,,,,,
,,5e9133f704391d46ee2bcb31,65af57c0e8cf4b3e6d33359c,2024-01-23_03h08.49.571,bars,2023.2.3,Win32,60.24096386,657b66ea316d21385b68909f,,,,,,,,,,,266.1747,267.1728,,,267.6722,267.9221,,0,0,,,,,,,,,,,,,,,,bars/012.png,bars/mask008.png,,,,,,,,,,,,5,2,,,,,,,4,10,4,10,,,,,,,,,,,267.1728,267.6722,267.9222,270.5698,space,2.6424,,270.5699,90,15,271.5684,271.5685,272.6507,space,1.0551,,0,10,10,10,1,90,15,,,,,,,,
,,5e9133f704391d46ee2bcb31,65af57c0e8cf4b3e6d33359c,2024-01-23_03h08.49.571,bars,2023.2.3,Win32,60.24096386,657b66ea316d21385b68909f,,,,,,,,,,,272.6511,273.6498,,,274.1493,274.399,,108,108,,,,,,,,,,,,,,,,bars/001.png,bars/mask004.png,,,,,,,,,,,,0,1,,,,,,,2,10,0,10,,,,,,,,,,,273.6498,274.1492,274.399,277.3462,space,2.9332,,277.3463,22,23,278.3451,278.3452,280.7095,space,2.3321,,0,11,11,11,1,130,85,,,,,,,,
,,5e9133f704391d46ee2bcb31,65af57c0e8cf4b3e6d33359c,2024-01-23_03h08.49.571,bars,2023.2.3,Win32,60.24096386,657b66ea316d21385b68909f,,,,,,,,,,,280.71,281.7085,,,282.2081,282.4578,,136,136,,,,,,,,,,,,,,,,bars/004.png,bars/mask003.png,,,,,,,,,,,,6,2,,,,,,,4,10,4,10,,,,,,,,,,,281.7086,282.2081,282.4579,284.2726,space,1.8022,,284.2727,69,11,285.2716,285.2716,286.5039,space,1.1926,,0,12,12,12,1,25,125,,,,,,,,
,,5e9133f704391d46ee2bcb31,65af57c0e8cf4b3e6d33359c,2024-01-23_03h08.49.571,bars,2023.2.3,Win32,60.24096386,657b66ea316d21385b68909f,,,,,,,,,,,286.5045,287.5028,,,288.0027,288.2521,,129,129,,,,,,,,,,,,,,,,bars/004.png,bars/mask002.png,,,,,,,,,,,,6,2,,,,,,,6,8,5,7,,,,,,,,,,,287.5028,288.0026,288.2522,291.8653,space,3.5971,,291.8654,76,4,292.8643,292.8644,293.8634,space,0.9657,,0,13,13,13,1,25,125,,,,,,,,
,,5e9133f704391d46ee2bcb31,65af57c0e8cf4b3e6d33359c,2024-01-23_03h08.49.571,bars,2023.2.3,Win32,60.24096386,657b66ea316d21385b68909f,,,,,,,,,,,293.864,294.8624,,,295.362,295.6116,,73,73,,,,,,,,,,,,,,,,bars/047.png,bars/mask009.png,,,,,,,,,,,,9,2,,,,,,,4,10,4,10,,,,,,,,,,,294.8624,295.3619,295.6117,300.4401,space,4.8133,,300.4402,58,3,301.4392,301.4392,303.0709,space,1.6003,,0,14,14,14,1,15,70,,,,,,,,
,,5e9133f704391d46ee2bcb31,65af57c0e8cf4b3e6d33359c,2024-01-23_03h08.49.571,bars,2023.2.3,Win32,60.24096386,657b66ea316d21385b68909f,,,,,,,,,,,303.0713,304.0699,,,304.5696,304.8192,,134,134,,,,,,,,,,,,,,,,bars/005.png,bars/mask003.png,,,,,,,,,,,,8,2,,,,,,,2,10,2,10,,,,,,,,,,,304.07,304.5696,304.8192,308.782,space,3.9525,,308.7821,56,6,309.7811,309.7811,310.7805,space,0.9591,,0,15,15,15,1,10,140,,,,,,,,
,,5e9133f704391d46ee2bcb31,65af57c0e8cf4b3e6d33359c,2024-01-23_03h08.49.571,bars,2023.2.3,Win32,60.24096386,657b66ea316d21385b68909f,,,,,,,,,,,310.781,311.7792,,,312.2787,312.5283,,92,92,,,,,,,,,,,,,,,,bars/041.png,bars/mask008.png,,,,,,,,,,,,6,2,,,,,,,4,10,5,8,,,,,,,,,,,311.7792,312.2786,312.5284,314.3775,space,1.8324,,314.3775,72,7,315.3754,315.3755,316.9074,space,1.4963,,0,16,16,16,1,20,85,,,,,,,,
,,5e9133f704391d46ee2bcb31,65af57c0e8cf4b3e6d33359c,2024-01-23_03h08.49.571,bars,2023.2.3,Win32,60.24096386,657b66ea316d21385b68909f,,,,,,,,,,,316.908,317.9069,,,318.4065,318.6564,,82,82,,,,,,,,,,,,,,,,bars/011.png,bars/mask005.png,,,,,,,,,,,,8,2,,,,,,,6,10,9,9,,,,,,,,,,,317.9069,318.4065,318.6564,322.1027,space,3.4308,,322.1027,78,3,323.1018,323.1018,325.4326,space,2.2955,,0,17,17,17,1,160,85,,,,,,,,
,,5e9133f704391d46ee2bcb31,65af57c0e8cf4b3e6d33359c,2024-01-23_03h08.49.571,bars,2023.2.3,Win32,60.24096386,657b66ea316d21385b68909f,,,,,,,,,,,325.433,326.4321,,,326.9309,327.1811,,71,71,,,,,,,,,,,,,,,,bars/001.png,bars/mask000.png,,,,,,,,,,,,5,2,,,,,,,8,8,7,9,,,,,,,,,,,326.4321,326.9309,327.1812,331.3437,space,4.1506,,331.3439,59,14,332.3425,332.3425,333.6419,space,1.2742,,0,18,18,18,1,130,85,,,,,,,,
,,5e9133f704391d46ee2bcb31,65af57c0e8cf4b3e6d33359c,2024-01-23_03h08.49.571,bars,2023.2.3,Win32,60.24096386,657b66ea316d21385b68909f,,,,,,,,,,,333.6425,334.6403,,,335.1397,335.3896,,6,6,,,,,,,,,,,,,,,,bars/032.png,bars/mask008.png,,,,,,,,,,,,5,2,,,,,,,6,10,7,9,,,,,,,,,,,334.6403,335.1397,335.3897,339.3024,space,3.8967,,339.3025,61,14,340.3014,340.3014,342.283,space,1.9468,,0,19,19,19,1,125,20,,,,,,,,
,,5e9133f704391d46ee2bcb31,65af57c0e8cf4b3e6d33359c,2024-01-23_03h08.49.571,bars,2023.2.3,Win32,60.24096386,657b66ea316d21385b68909f,,,,,,,,,,,342.2834,343.2817,,,343.7814,344.0311,,47,227,,,,,,,,,,,,,,,,bars/010.png,bars/mask008.png,,,,,,,,,,,,7,2,,,,,,,4,8,4,9,,,,,,,,,,,343.2817,343.7813,344.0311,347.6937,space,3.6473,,347.6938,62,8,348.6933,348.6933,349.5927,space,0.8751,,0,20,20,20,1,165,55,,,,,,,,
,,5e9133f704391d46ee2bcb31,65af57c0e8cf4b3e6d33359c,2024-01-23_03h08.49.571,bars,2023.2.3,Win32,60.24096386,657b66ea316d21385b68909f,,,,,,,,,,,349.593,350.5916,,,351.091,351.3406,,63,63,,,,,,,,,,,,,,,,bars/047.png,bars/mask000.png,,,,,,,,,,,,8,2,,,,,,,2,10,3,10,,,,,,,,,,,350.5917,351.0909,351.3407,355.8027,space,4.4552,,355.8028,48,7,356.802,356.802,357.6682,space,0.8313,,0,21,21,21,1,15,70,,,,,,,,
,,5e9133f704391d46ee2bcb31,65af57c0e8cf4b3e6d33359c,2024-01-23_03h08.49.571,bars,2023.2.3,Win32,60.24096386,657b66ea316d21385b68909f,,,,,,,,,,,357.6687,358.6667,,,359.1661,359.4161,,74,74,,,,,,,,,,,,,,,,bars/047.png,bars/mask006.png,,,,,,,,,,,,8,2,,,,,,,4,10,4,9,,,,,,,,,,,358.6668,359.166,359.4161,362.7962,space,3.364,,362.7962,59,4,363.7953,363.7953,365.0934,space,1.276,,0,22,22,22,1,15,70,,,,,,,,
,,5e9133f704391d46ee2bcb31,65af57c0e8cf4b3e6d33359c,2024-01-23_03h08.49.571,bars,2023.2.3,Win32,60.24096386,657b66ea316d21385b68909f,,,,,,,,,,,365.0938,366.0926,,,366.5919,366.8418,,77,257,,,,,,,,,,,,,,,,bars/034.png,bars/mask007.png,,,,,,,,,,,,5,2,,,,,,,6,8,5,8,,,,,,,,,,,366.0927,366.5918,366.8418,371.138,space,4.2799,,371.1381,48,12,372.1368,372.1368,372.9034,space,0.7306,,0,23,23,23,1,125,65,,,,,,,,
,,5e9133f704391d46ee2bcb31,65af57c0e8cf4b3e6d33359c,2024-01-23_03h08.49.571,bars,2023.2.3,Win32,60.24096386,657b66ea316d21385b68909f,,,,,,,,,,,372.9038,373.9018,,,374.4017,374.651,,175,-5,,,,,,,,,,,,,,,,bars/008.png,bars/mask006.png,,,,,,,,,,,,8,2,,,,,,,4,10,2,10,,,,,,,,,,,373.9019,374.4016,374.6511,376.6663,space,2.001,,376.6663,65,5,377.6647,377.6647,378.4479,space,0.7524,,0,24,24,24,1,110,0,,,,,,,,
,,5e9133f704391d46ee2bcb31,65af57c0e8cf4b3e6d33359c,2024-01-23_03h08.49.571,bars,2023.2.3,Win32,60.24096386,657b66ea316d21385b68909f,,,,,,,,,,,378.4484,379.4466,,,379.9459,380.1959,,160,160,,,,,,,,,,,,,,,,bars/033.png,bars/mask004.png,,,,,,,,,,,,8,2,,,,,,,2,8,2,9,,,,,,,,,,,379.4467,379.9458,380.1959,383.1092,space,2.9047,,383.1092,45,5,384.1081,384.1081,385.0079,space,0.8564,,0,25,25,25,1,25,155,,,,,,,,
,,5e9133f704391d46ee2bcb31,65af57c0e8cf4b3e6d33359c,2024-01-23_03h08.49.571,bars,2023.2.3,Win32,60.24096386,657b66ea316d21385b68909f,,,,,,,,,,,385.0081,386.0062,,,386.506,386.7557,,83,83,,,,,,,,,,,,,,,,bars/021.png,bars/mask008.png,,,,,,,,,,,,6,2,,,,,,,4,10,4,10,,,,,,,,,,,386.0063,386.506,386.7558,389.9859,space,3.2162,,389.9861,72,13,390.9847,390.9848,392.6338,space,1.6165,,0,26,26,26,1,155,70,,,,,,,,
,,5e9133f704391d46ee2bcb31,65af57c0e8cf4b3e6d33359c,2024-01-23_03h08.49.571,bars,2023.2.3,Win32,60.24096386,657b66ea316d21385b68909f,,,,,,,,,,,392.6348,393.6325,,,394.1318,394.3815,,140,140,,,,,,,,,,,,,,,,bars/043.png,bars/mask008.png,,,,,,,,,,,,5,2,,,,,,,6,8,5,7,,,,,,,,,,,393.6327,394.1318,394.3815,398.0282,space,3.6375,,398.0284,70,10,399.0275,399.0276,401.2252,space,2.1623,,0,27,27,27,1,30,130,,,,,,,,
,,5e9133f704391d46ee2bcb31,65af57c0e8cf4b3e6d33359c,2024-01-23_03h08.49.571,bars,2023.2.3,Win32,60.24096386,657b66ea316d21385b68909f,,,,,,,,,,,401.2257,402.224,,,402.7238,402.9732,,37,217,,,,,,,,,,,,,,,,bars/025.png,bars/mask002.png,,,,,,,,,,,,9,2,,,,,,,8,10,7,10,,,,,,,,,,,402.224,402.7237,402.9732,407.0536,space,4.0636,,407.0536,68,3,408.0514,408.0515,409.5505,space,1.4685,,0,28,28,28,1,105,40,,,,,,,,
,,5e9133f704391d46ee2bcb31,65af57c0e8cf4b3e6d33359c,2024-01-23_03h08.49.571,bars,2023.2.3,Win32,60.24096386,657b66ea316d21385b68909f,,,,,,,,,,,409.5508,410.5494,,,411.0486,411.2989,,134,-46,,,,,,,,,,,,,,,,bars/023.png,bars/mask005.png,,,,,,,,,,,,3,2,,,,,,,10,8,10,7,,,,,,,,,,,410.5494,411.0486,411.299,415.3945,space,4.0888,,415.3945,66,19,416.3936,416.3937,417.2097,space,0.783,,0,29,29,29,1,20,115,,,,,,,,
,,5e9133f704391d46ee2bcb31,65af57c0e8cf4b3e6d33359c,2024-01-23_03h08.49.571,bars,2023.2.3,Win32,60.24096386,657b66ea316d21385b68909f,,,,,,,,,,,417.2101,418.2084,,,418.7081,418.9577,,91,91,,,,,,,,,,,,,,,,bars/041.png,bars/mask002.png,,,,,,,,,,,,6,2,,,,,,,8,6,8,7,,,,,,,,,,,418.2085,418.7081,418.9577,420.9889,space,2.0219,,420.9889,71,6,421.9882,421.9882,422.6707,space,0.6631,,0,30,30,30,1,20,85,,,,,,,,
,,5e9133f704391d46ee2bcb31,65af57c0e8cf4b3e6d33359c,2024-01-23_03h08.49.571,bars,2023.2.3,Win32,60.24096386,657b66ea316d21385b68909f,,,,,,,,,,,422.6711,423.67,,,424.1697,424.4194,,133,133,,,,,,,,,,,,,,,,bars/019.png,bars/mask007.png,,,,,,,,,,,,0,2,,,,,,,10,4,10,5,,,,,,,,,,,423.6701,424.1697,424.4195,426.5506,space,2.1205,,426.5507,88,28,427.5495,427.5496,428.7318,space,1.1582,,0,31,31,31,1,45,105,,,,,,,,
,,5e9133f704391d46ee2bcb31,65af57c0e8cf4b3e6d33359c,2024-01-23_03h08.49.571,bars,2023.2.3,Win32,60.24096386,657b66ea316d21385b68909f,,,,,,,,,,,428.732,429.73,,,430.2307,430.4804,,93,93,,,,,,,,,,,,,,,,bars/009.png,bars/mask003.png,,,,,,,,,,,,1,2,,,,,,,10,2,10,2,,,,,,,,,,,429.7301,430.2306,430.4804,435.2918,space,4.7954,,435.292,78,12,436.2906,436.2906,438.3887,space,2.0625,,0,32,32,32,1,15,105,,,,,,,,
,,5e9133f704391d46ee2bcb31,65af57c0e8cf4b3e6d33359c,2024-01-23_03h08.49.571,bars,2023.2.3,Win32,60.24096386,657b66ea316d21385b68909f,,,,,,,,,,,438.3892,439.3874,,,439.887,440.1373,,139,139,,,,,,,,,,,,,,,,bars/005.png,bars/mask004.png,,,,,,,,,,,,6,2,,,,,,,10,4,10,6,,,,,,,,,,,439.3875,439.8869,440.1374,442.7509,space,2.5974,,442.751,51,1,443.75,443.75,444.8657,space,1.0905,,0,33,33,33,1,10,140,,,,,,,,
,,5e9133f704391d46ee2bcb31,65af57c0e8cf4b3e6d33359c,2024-01-23_03h08.49.571,bars,2023.2.3,Win32,60.24096386,657b66ea316d21385b68909f,,,,,,,,,,,444.8663,445.8646,,,446.3644,446.6139,,101,101,,,,,,,,,,,,,,,,bars/011.png,bars/mask009.png,,,,,,,,,,,,3,2,,,,,,,8,6,6,7,,,,,,,,,,,445.8647,446.3643,446.614,450.1109,space,3.4848,,450.111,59,16,451.1093,451.1094,451.8257,space,0.6896,,0,34,34,34,1,160,85,,,,,,,,
,,5e9133f704391d46ee2bcb31,65af57c0e8cf4b3e6d33359c,2024-01-23_03h08.49.571,bars,2023.2.3,Win32,60.24096386,657b66ea316d21385b68909f,,,,,,,,,,,451.8259,452.8246,,,453.324,453.5736,,84,84,,,,,,,,,,,,,,,,bars/021.png,bars/mask001.png,,,,,,,,,,,,4,2,,,,,,,6,8,7,7,,,,,,,,,,,452.8247,453.3239,453.5737,455.888,space,2.2988,,455.8881,71,14,456.8871,456.8871,457.5369,space,0.6305,,0,35,35,35,1,155,70,,,,,,,,
,,5e9133f704391d46ee2bcb31,65af57c0e8cf4b3e6d33359c,2024-01-23_03h08.49.571,bars,2023.2.3,Win32,60.24096386,657b66ea316d21385b68909f,,,,,,,,,,,457.5373,458.5354,,,459.0354,459.285,,131,131,,,,,,,,,,,,,,,,bars/004.png,bars/mask006.png,,,,,,,,,,,,8,2,,,,,,,8,10,9,10,,,,,,,,,,,458.5355,459.0354,459.2851,463.0312,space,3.7341,,463.0313,74,6,464.0307,464.0307,464.68,space,0.6184,,0,36,36,36,1,25,125,,,,,,,,
,,5e9133f704391d46ee2bcb31,65af57c0e8cf4b3e6d33359c,2024-01-23_03h08.49.571,bars,2023.2.3,Win32,60.24096386,657b66ea316d21385b68909f,,,,,,,,,,,464.6805,465.6787,,,466.1782,466.4282,,75,75,,,,,,,,,,,,,,,,bars/002.png,bars/mask001.png,,,,,,,,,,,,5,2,,,,,,,10,8,10,8,,,,,,,,,,,465.6788,466.1781,466.4282,470.0741,space,3.6315,,470.0742,55,10,471.0733,471.0733,472.1388,space,1.0403,,0,37,37,37,1,130,85,,,,,,,,
,,5e9133f704391d46ee2bcb31,65af57c0e8cf4b3e6d33359c,2024-01-23_03h08.49.571,bars,2023.2.3,Win32,60.24096386,657b66ea316d21385b68909f,,,,,,,,,,,472.1392,473.1384,,,473.6377,473.887,,144,144,,,,,,,,,,,,,,,,bars/005.png,bars/mask003.png,,,,,,,,,,,,9,2,,,,,,,8,10,9,10,,,,,,,,,,,473.1386,473.6376,473.8871,476.1016,space,2.1982,,476.1016,46,4,477.101,477.101,478.2003,space,1.0655,,0,38,38,38,1,10,140,,,,,,,,
,,5e9133f704391d46ee2bcb31,65af57c0e8cf4b3e6d33359c,2024-01-23_03h08.49.571,bars,2023.2.3,Win32,60.24096386,657b66ea316d21385b68909f,,,,,,,,,,,478.2007,479.1987,,,479.6983,479.9479,,83,83,,,,,,,,,,,,,,,,bars/018.png,bars/mask007.png,,,,,,,,,,,,7,2,,,,,,,6,8,5,9,,,,,,,,,,,479.1988,479.6983,479.948,483.1287,space,3.1647,,483.1288,67,7,484.1274,484.1274,485.6097,space,1.4569,,0,39,39,39,1,150,90,,,,,,,,
,,5e9133f704391d46ee2bcb31,65af57c0e8cf4b3e6d33359c,2024-01-23_03h08.49.571,bars,2023.2.3,Win32,60.24096386,657b66ea316d21385b68909f,,,,,,,,,,,485.6101,486.6084,,,487.1075,487.3572,,176,-4,,,,,,,,,,,,,,,,bars/040.png,bars/mask000.png,,,,,,,,,,,,4,2,,,,,,,4,6,4,6,,,,,,,,,,,486.6084,487.1075,487.3572,491.8029,space,4.438,,491.8029,36,9,492.8023,492.8023,493.7845,space,0.9479,,0,40,40,40,1,140,5,,,,,,,,
,,5e9133f704391d46ee2bcb31,65af57c0e8cf4b3e6d33359c,2024-01-23_03h08.49.571,bars,2023.2.3,Win32,60.24096386,657b66ea316d21385b68909f,,,,,,,,,,,493.7851,494.7837,,,495.2833,495.5328,,89,89,,,,,,,,,,,,,,,,bars/026.png,bars/mask005.png,,,,,,,,,,,,7,2,,,,,,,2,8,2,8,,,,,,,,,,,494.7838,495.2833,495.5328,499.296,space,3.7512,,499.296,54,4,500.2949,500.295,501.4937,space,1.1636,,0,41,41,41,1,35,85,,,,,,,,
,,5e9133f704391d46ee2bcb31,65af57c0e8cf4b3e6d33359c,2024-01-23_03h08.49.571,bars,2023.2.3,Win32,60.24096386,657b66ea316d21385b68909f,,,,,,,,,,,501.4942,502.4925,,,502.992,503.2421,,177,-3,,,,,,,,,,,,,,,,bars/045.png,bars/mask002.png,,,,,,,,,,,,6,2,,,,,,,4,10,2,10,,,,,,,,,,,502.4925,502.992,503.2422,505.6565,space,2.4011,,505.6565,77,13,506.6556,506.6556,510.4685,space,3.7882,,0,42,42,42,1,100,10,,,,,,,,
,,5e9133f704391d46ee2bcb31,65af57c0e8cf4b3e6d33359c,2024-01-23_03h08.49.571,bars,2023.2.3,Win32,60.24096386,657b66ea316d21385b68909f,,,,,,,,,,,510.4845,511.4836,,,511.9832,512.2334,,37,217,,,,,,,,,,,,,,,,bars/025.png,bars/mask006.png,,,,,,,,,,,,7,2,,,,,,,6,8,6,8,,,,,,,,,,,511.4837,511.9832,512.2335,515.3636,space,3.1147,,515.3637,68,3,516.3627,516.3627,517.1281,space,0.7311,,0,43,43,43,1,105,40,,,,,,,,
,,5e9133f704391d46ee2bcb31,65af57c0e8cf4b3e6d33359c,2024-01-23_03h08.49.571,bars,2023.2.3,Win32,60.24096386,657b66ea316d21385b68909f,,,,,,,,,,,517.1284,518.1277,,,518.6266,518.8771,,82,82,,,,,,,,,,,,,,,,bars/002.png,bars/mask002.png,,,,,,,,,,,,9,2,,,,,,,4,10,5,10,,,,,,,,,,,518.1278,518.6266,518.8771,521.7569,space,2.8635,,521.7569,48,3,522.7562,522.7564,523.7054,space,0.9249,,0,44,44,44,1,130,85,,,,,,,,
,,5e9133f704391d46ee2bcb31,65af57c0e8cf4b3e6d33359c,2024-01-23_03h08.49.571,bars,2023.2.3,Win32,60.24096386,657b66ea316d21385b68909f,,,,,,,,,,,523.7058,524.7041,,,525.2039,525.4535,,17,17,,,,,,,,,,,,,,,,bars/031.png,bars/mask008.png,,,,,,,,,,,,3,2,,,,,,,2,8,2,8,,,,,,,,,,,524.7041,525.2039,525.4535,527.0357,space,1.5663,,527.0358,77,18,528.0343,528.0343,528.5672,space,0.5181,,0,45,45,45,1,120,35,,,,,,,,
,,5e9133f704391d46ee2bcb31,65af57c0e8cf4b3e6d33359c,2024-01-23_03h08.49.571,bars,2023.2.3,Win32,60.24096386,657b66ea316d21385b68909f,,,,,,,,,,,528.5676,529.5661,,,530.0654,530.3155,,2,182,,,,,,,,,,,,,,,,bars/040.png,bars/mask002.png,,,,,,,,,,,,9,2,,,,,,,0,10,0,10,,,,,,,,,,,529.5663,530.0654,530.3156,534.2446,space,3.9205,,534.2446,42,3,535.244,535.2441,536.9927,space,1.7238,,0,46,46,46,1,140,5,,,,,,,,
,,5e9133f704391d46ee2bcb31,65af57c0e8cf4b3e6d33359c,2024-01-23_03h08.49.571,bars,2023.2.3,Win32,60.24096386,657b66ea316d21385b68909f,,,,,,,,,,,536.9932,537.9916,,,538.4907,538.7406,,15,15,,,,,,,,,,,,,,,,bars/031.png,bars/mask008.png,,,,,,,,,,,,2,2,,,,,,,0,8,0,7,,,,,,,,,,,537.9917,538.4907,538.7406,539.9892,space,1.2398,,539.9892,75,20,540.9882,540.9882,541.5714,space,0.5653,,0,47,47,47,1,120,35,,,,,,,,
,,5e9133f704391d46ee2bcb31,65af57c0e8cf4b3e6d33359c,2024-01-23_03h08.49.571,bars,2023.2.3,Win32,60.24096386,657b66ea316d21385b68909f,,,,,,,,,,,541.5719,542.5699,,,543.0699,543.3192,,18,198,,,,,,,,,,,,,,,,bars/031.png,bars/mask008.png,,,,,,,,,,,,4,2,,,,,,,0,10,0,10,,,,,,,,,,,542.57,543.0698,543.3192,547.4321,space,4.1005,,547.4322,78,17,548.4318,548.4318,548.514,space,0.0438,,0,48,48,48,1,120,35,,,,,,,,
,,5e9133f704391d46ee2bcb31,65af57c0e8cf4b3e6d33359c,2024-01-23_03h08.49.571,bars,2023.2.3,Win32,60.24096386,657b66ea316d21385b68909f,,,,,,,,,,,548.5144,549.5135,,,550.0128,550.2625,,129,129,,,,,,,,,,,,,,,,bars/004.png,bars/mask006.png,,,,,,,,,,,,9,2,,,,,,,2,8,2,10,,,,,,,,,,,549.5135,550.0128,550.2625,552.0106,space,1.7411,,552.0106,76,4,553.0096,553.0096,553.9423,space,0.9195,,0,49,49,49,1,25,125,,,,,,,,
,,5e9133f704391d46ee2bcb31,65af57c0e8cf4b3e6d33359c,2024-01-23_03h08.49.571,bars,2023.2.3,Win32,60.24096386,657b66ea316d21385b68909f,,,,,,,,,,,,,,,,,,,,,,,,,,,,,,,,,,,,,,,,,,,,,,,,,,,,,,,,,,,,,,,,,,,,,,,,,,,,,,,,,,,,,,,,,,,,,553.9443,613.9348,0,0,0,1,1,sequence_tables/blk037.csv
,,5e9133f704391d46ee2bcb31,65af57c0e8cf4b3e6d33359c,2024-01-23_03h08.49.571,bars,2023.2.3,Win32,60.24096386,657b66ea316d21385b68909f,,,,,,,,,,,670.4577,671.4436,,,671.9433,672.1975,,87,87,,,,,,,,,,,,,,,,bars/018.png,bars/mask009.png,,,,,,,,,,,,0,2,,,,,,,8,1,8,0,,,,,,613.9582,670.4342,space,56.4715,,671.4439,671.9433,672.1976,674.2423,space,2.0287,,674.2425,63,3,675.2455,675.2455,675.2622,,,,0,0,0,0,1,150,90,,,,,,,,
,,5e9133f704391d46ee2bcb31,65af57c0e8cf4b3e6d33359c,2024-01-23_03h08.49.571,bars,2023.2.3,Win32,60.24096386,657b66ea316d21385b68909f,,,,,,,,,,,675.2625,676.2557,,,676.7553,677.0053,,86,86,,,,,,,,,,,,,,,,bars/014.png,bars/mask008.png,,,,,,,,,,,,4,1,,,,,,,6,3,5,3,,,,,,,,,,,676.2559,676.7553,677.0054,680.6354,space,3.5995,,680.6356,6,86,681.6341,681.6341,681.6532,,,,0,1,1,1,1,80,0,,,,,,,,
,,5e9133f704391d46ee2bcb31,65af57c0e8cf4b3e6d33359c,2024-01-23_03h08.49.571,bars,2023.2.3,Win32,60.24096386,657b66ea316d21385b68909f,,,,,,,,,,,681.6536,682.6498,,,683.1492,683.3993,,2,182,,,,,,,,,,,,,,,,bars/007.png,bars/mask003.png,,,,,,,,,,,,4,1,,,,,,,4,5,5,6,,,,,,,,,,,682.6498,683.1491,683.3993,685.0475,space,1.6315,,685.0475,7,53,686.0464,686.0465,686.047,,,,0,2,2,2,1,175,55,,,,,,,,
,,5e9133f704391d46ee2bcb31,65af57c0e8cf4b3e6d33359c,2024-01-23_03h08.49.571,bars,2023.2.3,Win32,60.24096386,657b66ea316d21385b68909f,,,,,,,,,,,686.0472,687.0448,,,687.545,687.7943,,171,-9,,,,,,,,,,,,,,,,bars/007.png,bars/mask008.png,,,,,,,,,,,,5,1,,,,,,,6,3,6,2,,,,,,,,,,,687.0449,687.545,687.7943,692.6402,space,4.8335,,692.6403,4,64,693.6388,693.6389,693.6578,,,,0,3,3,3,1,175,55,,,,,,,,
,,5e9133f704391d46ee2bcb31,65af57c0e8cf4b3e6d33359c,2024-01-23_03h08.49.571,bars,2023.2.3,Win32,60.24096386,657b66ea316d21385b68909f,,,,,,,,,,,693.6581,694.6543,,,695.1541,695.4038,,82,82,,,,,,,,,,,,,,,,bars/014.png,bars/mask003.png,,,,,,,,,,,,6,1,,,,,,,8,1,6,0,,,,,,,,,,,694.6543,695.1541,695.4038,699.3502,space,3.9305,,699.3502,2,82,700.35,700.35,700.3679,,,,0,4,4,4,1,80,0,,,,,,,,
,,5e9133f704391d46ee2bcb31,65af57c0e8cf4b3e6d33359c,2024-01-23_03h08.49.571,bars,2023.2.3,Win32,60.24096386,657b66ea316d21385b68909f,,,,,,,,,,,700.3687,701.3646,,,701.864,702.1141,,113,113,,,,,,,,,,,,,,,,bars/027.png,bars/mask000.png,,,,,,,,,,,,9,1,,,,,,,10,3,10,3,,,,,,,,,,,701.3646,701.864,702.1141,704.8615,space,2.7377,,704.8616,3,63,705.8606,705.8607,705.8685,,,,0,5,5,5,1,110,50,,,,,,,,
,,5e9133f704391d46ee2bcb31,65af57c0e8cf4b3e6d33359c,2024-01-23_03h08.49.571,bars,2023.2.3,Win32,60.24096386,657b66ea316d21385b68909f,,,,,,,,,,,705.8687,706.859,,,707.3592,707.6084,,127,-53,,,,,,,,,,,,,,,,bars/032.png,bars/mask005.png,,,,,,,,,,,,7,1,,,,,,,8,1,8,0,,,,,,,,,,,706.8591,707.3591,707.6084,711.8213,space,4.2031,,711.8213,2,73,712.8199,712.8201,712.8362,,,,0,6,6,6,1,125,20,,,,,,,,
,,5e9133f704391d46ee2bcb31,65af57c0e8cf4b3e6d33359c,2024-01-23_03h08.49.571,bars,2023.2.3,Win32,60.24096386,657b66ea316d21385b68909f,,,,,,,,,,,712.8365,713.8361,,,714.3354,714.585,,113,113,,,,,,,,,,,,,,,,bars/015.png,bars/mask005.png,,,,,,,,,,,,5,1,,,,,,,6,0,6,0,,,,,,,,,,,713.8362,714.3353,714.5851,717.0164,space,2.4151,,717.0164,3,47,718.015,718.0151,718.0305,,,,0,7,7,7,1,110,160,,,,,,,,
,,5e9133f704391d46ee2bcb31,65af57c0e8cf4b3e6d33359c,2024-01-23_03h08.49.571,bars,2023.2.3,Win32,60.24096386,657b66ea316d21385b68909f,,,,,,,,,,,718.0307,719.0305,,,719.5301,719.78,,53,233,,,,,,,,,,,,,,,,bars/026.png,bars/mask008.png,,,,,,,,,,,,2,1,,,,,,,4,0,6,0,,,,,,,,,,,719.0305,719.53,719.78,723.6265,space,3.8315,,723.6266,18,32,724.6246,724.6246,724.6344,,,,0,8,8,8,1,35,85,,,,,,,,
,,5e9133f704391d46ee2bcb31,65af57c0e8cf4b3e6d33359c,2024-01-23_03h08.49.571,bars,2023.2.3,Win32,60.24096386,657b66ea316d21385b68909f,,,,,,,,,,,724.6346,725.624,,,726.1237,726.3731,,98,98,,,,,,,,,,,,,,,,bars/041.png,bars/mask005.png,,,,,,,,,,,,0,2,,,,,,,6,0,6,0,,,,,,,,,,,725.6241,726.1237,726.3732,730.9355,space,4.5504,,730.9355,78,13,731.9344,731.9344,731.9545,,,,0,9,9,9,1,20,85,,,,,,,,
,,5e9133f704391d46ee2bcb31,65af57c0e8cf4b3e6d33359c,2024-01-23_03h08.49.571,bars,2023.2.3,Win32,60.24096386,657b66ea316d21385b68909f,,,,,,,,,,,731.9548,732.9501,,,733.4498,733.6994,,165,165,,,,,,,,,,,,,,,,bars/038.png,bars/mask000.png,,,,,,,,,,,,8,1,,,,,,,8,2,8,3,,,,,,,,,,,732.9502,733.4498,733.6995,741.7587,space,8.0429,,741.7588,0,85,742.7574,742.7574,742.7777,,,,0,10,10,10,1,165,70,,,,,,,,
,,5e9133f704391d46ee2bcb31,65af57c0e8cf4b3e6d33359c,2024-01-23_03h08.49.571,bars,2023.2.3,Win32,60.24096386,657b66ea316d21385b68909f,,,,,,,,,,,742.7779,743.7729,,,744.2728,744.5221,,130,130,,,,,,,,,,,,,,,,bars/024.png,bars/mask008.png,,,,,,,,,,,,5,1,,,,,,,6,0,7,0,,,,,,,,,,,743.7729,744.2727,744.5221,747.7861,space,3.2494,,747.7861,10,40,748.7848,748.7848,748.8011,,,,0,11,11,11,1,120,170,,,,,,,,
,,5e9133f704391d46ee2bcb31,65af57c0e8cf4b3e6d33359c,2024-01-23_03h08.49.571,bars,2023.2.3,Win32,60.24096386,657b66ea316d21385b68909f,,,,,,,,,,,748.8015,749.8011,,,750.3005,750.5501,,147,-33,,,,,,,,,,,,,,,,bars/021.png,bars/mask000.png,,,,,,,,,,,,4,1,,,,,,,4,2,5,2,,,,,,,,,,,749.8012,750.3004,750.5501,753.9296,space,3.3738,,753.9297,8,77,754.9286,754.9287,754.9443,,,,0,12,12,12,1,155,70,,,,,,,,
,,5e9133f704391d46ee2bcb31,65af57c0e8cf4b3e6d33359c,2024-01-23_03h08.49.571,bars,2023.2.3,Win32,60.24096386,657b66ea316d21385b68909f,,,,,,,,,,,754.9445,755.9449,,,756.4441,756.6938,,158,158,,,,,,,,,,,,,,,,bars/002.png,bars/mask003.png,,,,,,,,,,,,0,1,,,,,,,6,0,7,0,,,,,,,,,,,755.9449,756.4441,756.6938,762.0391,space,5.328,,762.0391,28,73,763.0372,763.0372,763.0543,,,,0,13,13,13,1,130,85,,,,,,,,
,,5e9133f704391d46ee2bcb31,65af57c0e8cf4b3e6d33359c,2024-01-23_03h08.49.571,bars,2023.2.3,Win32,60.24096386,657b66ea316d21385b68909f,,,,,,,,,,,763.0546,764.0531,,,764.5528,764.8025,,12,12,,,,,,,,,,,,,,,,bars/041.png,bars/mask000.png,,,,,,,,,,,,5,1,,,,,,,8,2,7,2,,,,,,,,,,,764.0532,764.5527,764.8025,768.1324,space,3.3219,,768.1325,8,73,769.1317,769.1317,769.1475,,,,0,14,14,14,1,20,85,,,,,,,,
,,5e9133f704391d46ee2bcb31,65af57c0e8cf4b3e6d33359c,2024-01-23_03h08.49.571,bars,2023.2.3,Win32,60.24096386,657b66ea316d21385b68909f,,,,,,,,,,,769.1478,770.1477,,,770.6469,770.8965,,135,135,,,,,,,,,,,,,,,,bars/002.png,bars/mask007.png,,,,,,,,,,,,8,1,,,,,,,10,4,10,6,,,,,,,,,,,770.1478,770.6468,770.8965,773.3777,space,2.4668,,773.3777,5,50,774.3765,774.3765,774.392,,,,0,15,15,15,1,130,85,,,,,,,,
,,5e9133f704391d46ee2bcb31,65af57c0e8cf4b3e6d33359c,2024-01-23_03h08.49.571,bars,2023.2.3,Win32,60.24096386,657b66ea316d21385b68909f,,,,,,,,,,,774.3923,775.3921,,,775.8914,776.1411,,170,170,,,,,,,,,,,,,,,,bars/038.png,bars/mask000.png,,,,,,,,,,,,8,1,,,,,,,10,2,10,2,,,,,,,,,,,775.3922,775.8914,776.1412,778.2227,space,2.0662,,778.2228,5,80,779.2219,779.222,779.2299,,,,0,16,16,16,1,165,70,,,,,,,,
,,5e9133f704391d46ee2bcb31,65af57c0e8cf4b3e6d33359c,2024-01-23_03h08.49.571,bars,2023.2.3,Win32,60.24096386,657b66ea316d21385b68909f,,,,,,,,,,,779.2301,780.2211,,,780.721,780.9698,,30,30,,,,,,,,,,,,,,,,bars/026.png,bars/mask009.png,,,,,,,,,,,,5,1,,,,,,,8,0,6,0,,,,,,,,,,,780.2211,780.721,780.9698,786.1653,space,5.1856,,786.1653,5,55,787.1639,787.1639,787.1804,,,,0,17,17,17,1,35,85,,,,,,,,
,,5e9133f704391d46ee2bcb31,65af57c0e8cf4b3e6d33359c,2024-01-23_03h08.49.571,bars,2023.2.3,Win32,60.24096386,657b66ea316d21385b68909f,,,,,,,,,,,787.1806,788.1797,,,788.6796,788.9288,,150,150,,,,,,,,,,,,,,,,bars/002.png,bars/mask008.png,,,,,,,,,,,,3,1,,,,,,,10,2,10,3,,,,,,,,,,,788.1797,788.6795,788.9289,794.0739,space,5.13,,794.074,20,65,795.0732,795.0732,795.0916,,,,0,18,18,18,1,130,85,,,,,,,,
,,5e9133f704391d46ee2bcb31,65af57c0e8cf4b3e6d33359c,2024-01-23_03h08.49.571,bars,2023.2.3,Win32,60.24096386,657b66ea316d21385b68909f,,,,,,,,,,,795.0922,796.0886,,,796.5882,796.8379,,104,104,,,,,,,,,,,,,,,,bars/008.png,bars/mask008.png,,,,,,,,,,,,8,1,,,,,,,10,4,10,7,,,,,,,,,,,796.0887,796.5882,796.8379,800.0184,space,3.175,,800.0184,6,76,801.0168,801.0169,801.0327,,,,0,19,19,19,1,110,0,,,,,,,,
,,5e9133f704391d46ee2bcb31,65af57c0e8cf4b3e6d33359c,2024-01-23_03h08.49.571,bars,2023.2.3,Win32,60.24096386,657b66ea316d21385b68909f,,,,,,,,,,,801.0331,802.0333,,,802.5329,802.7821,,128,128,,,,,,,,,,,,,,,,bars/034.png,bars/mask007.png,,,,,,,,,,,,7,1,,,,,,,8,6,8,5,,,,,,,,,,,802.0335,802.5328,802.7822,805.6627,space,2.8694,,805.6627,3,63,806.6614,806.6614,806.6776,,,,0,20,20,20,1,125,65,,,,,,,,
,,5e9133f704391d46ee2bcb31,65af57c0e8cf4b3e6d33359c,2024-01-23_03h08.49.571,bars,2023.2.3,Win32,60.24096386,657b66ea316d21385b68909f,,,,,,,,,,,806.6779,807.6772,,,808.1769,808.4269,,89,89,,,,,,,,,,,,,,,,bars/029.png,bars/mask006.png,,,,,,,,,,,,6,1,,,,,,,6,8,6,8,,,,,,,,,,,807.6772,808.1769,808.427,812.2063,space,3.7629,,812.2064,1,44,813.2052,813.2053,813.2208,,,,0,21,21,21,1,90,45,,,,,,,,
,,5e9133f704391d46ee2bcb31,65af57c0e8cf4b3e6d33359c,2024-01-23_03h08.49.571,bars,2023.2.3,Win32,60.24096386,657b66ea316d21385b68909f,,,,,,,,,,,813.2211,814.2209,,,814.7201,814.9701,,167,167,,,,,,,,,,,,,,,,bars/007.png,bars/mask005.png,,,,,,,,,,,,3,1,,,,,,,4,6,4,7,,,,,,,,,,,814.221,814.7201,814.9701,819.7656,space,4.7854,,819.7656,8,68,820.7645,820.7645,820.7803,,,,0,22,22,22,1,175,55,,,,,,,,
,,5e9133f704391d46ee2bcb31,65af57c0e8cf4b3e6d33359c,2024-01-23_03h08.49.571,bars,2023.2.3,Win32,60.24096386,657b66ea316d21385b68909f,,,,,,,,,,,820.7805,821.7799,,,822.2797,822.5295,,98,98,,,,,,,,,,,,,,,,bars/025.png,bars/mask002.png,,,,,,,,,,,,5,1,,,,,,,6,4,7,4,,,,,,,,,,,821.7801,822.2796,822.5295,824.5273,space,1.9829,,824.5274,7,58,825.5267,825.5268,825.5352,,,,0,23,23,23,1,105,40,,,,,,,,
,,5e9133f704391d46ee2bcb31,65af57c0e8cf4b3e6d33359c,2024-01-23_03h08.49.571,bars,2023.2.3,Win32,60.24096386,657b66ea316d21385b68909f,,,,,,,,,,,825.5353,826.5256,,,827.025,827.2743,,155,-25,,,,,,,,,,,,,,,,bars/010.png,bars/mask009.png,,,,,,,,,,,,3,1,,,,,,,4,6,4,5,,,,,,,,,,,826.5256,827.025,827.2744,832.4869,space,5.1967,,832.487,10,80,833.485,833.4851,833.5008,,,,0,24,24,24,1,165,55,,,,,,,,
,,5e9133f704391d46ee2bcb31,65af57c0e8cf4b3e6d33359c,2024-01-23_03h08.49.571,bars,2023.2.3,Win32,60.24096386,657b66ea316d21385b68909f,,,,,,,,,,,833.5011,834.5012,,,835.0005,835.2502,,175,175,,,,,,,,,,,,,,,,bars/049.png,bars/mask008.png,,,,,,,,,,,,3,1,,,,,,,6,8,5,7,,,,,,,,,,,834.5012,835.0005,835.2502,837.5984,space,2.3315,,837.5985,15,60,838.5972,838.5973,838.5984,,,,0,25,25,25,1,160,115,,,,,,,,
,,5e9133f704391d46ee2bcb31,65af57c0e8cf4b3e6d33359c,2024-01-23_03h08.49.571,bars,2023.2.3,Win32,60.24096386,657b66ea316d21385b68909f,,,,,,,,,,,838.599,839.5959,,,840.0965,840.3453,,97,97,,,,,,,,,,,,,,,,bars/029.png,bars/mask003.png,,,,,,,,,,,,3,1,,,,,,,4,10,4,9,,,,,,,,,,,839.5959,840.0964,840.3454,843.3754,space,3.0152,,843.3755,7,52,844.3743,844.3743,844.3908,,,,0,26,26,26,1,90,45,,,,,,,,
,,5e9133f704391d46ee2bcb31,65af57c0e8cf4b3e6d33359c,2024-01-23_03h08.49.571,bars,2023.2.3,Win32,60.24096386,657b66ea316d21385b68909f,,,,,,,,,,,844.3911,845.3901,,,845.8897,846.1395,,93,93,,,,,,,,,,,,,,,,bars/046.png,bars/mask007.png,,,,,,,,,,,,7,2,,,,,,,6,10,6,10,,,,,,,,,,,845.3901,845.8897,846.1395,849.5027,space,3.3522,,849.5028,62,8,850.5017,850.5018,850.5217,,,,0,27,27,27,1,155,85,,,,,,,,
,,5e9133f704391d46ee2bcb31,65af57c0e8cf4b3e6d33359c,2024-01-23_03h08.49.571,bars,2023.2.3,Win32,60.24096386,657b66ea316d21385b68909f,,,,,,,,,,,850.522,851.5174,,,852.017,852.2666,,74,74,,,,,,,,,,,,,,,,bars/030.png,bars/mask001.png,,,,,,,,,,,,6,2,,,,,,,4,8,4,9,,,,,,,,,,,851.5174,852.017,852.2667,855.8468,space,3.5688,,855.8468,66,9,856.846,856.846,856.8695,,,,0,28,28,28,1,140,65,,,,,,,,
,,5e9133f704391d46ee2bcb31,65af57c0e8cf4b3e6d33359c,2024-01-23_03h08.49.571,bars,2023.2.3,Win32,60.24096386,657b66ea316d21385b68909f,,,,,,,,,,,856.8699,857.8612,,,858.3607,858.6105,,87,87,,,,,,,,,,,,,,,,bars/018.png,bars/mask003.png,,,,,,,,,,,,9,2,,,,,,,6,10,6,10,,,,,,,,,,,857.8612,858.3607,858.6105,861.3744,space,2.7532,,861.3745,63,3,862.3736,862.3737,862.3911,,,,0,29,29,29,1,150,90,,,,,,,,
,,5e9133f704391d46ee2bcb31,65af57c0e8cf4b3e6d33359c,2024-01-23_03h08.49.571,bars,2023.2.3,Win32,60.24096386,657b66ea316d21385b68909f,,,,,,,,,,,862.3918,863.3891,,,863.8888,864.1384,,140,140,,,,,,,,,,,,,,,,bars/023.png,bars/mask006.png,,,,,,,,,,,,1,2,,,,,,,8,8,7,7,,,,,,,,,,,863.3892,863.8887,864.1385,867.7183,space,3.5637,,867.7183,60,25,868.7173,868.7173,868.7343,,,,0,30,30,30,1,20,115,,,,,,,,
,,5e9133f704391d46ee2bcb31,65af57c0e8cf4b3e6d33359c,2024-01-23_03h08.49.571,bars,2023.2.3,Win32,60.24096386,657b66ea316d21385b68909f,,,,,,,,,,,868.7347,869.7331,,,870.2325,870.4823,,143,143,,,,,,,,,,,,,,,,bars/023.png,bars/mask006.png,,,,,,,,,,,,1,2,,,,,,,10,6,10,8,,,,,,,,,,,869.7331,870.2324,870.4823,876.3265,space,5.8333,,876.3266,57,28,877.3256,877.3256,877.3457,,,,0,31,31,31,1,20,115,,,,,,,,
,,5e9133f704391d46ee2bcb31,65af57c0e8cf4b3e6d33359c,2024-01-23_03h08.49.571,bars,2023.2.3,Win32,60.24096386,657b66ea316d21385b68909f,,,,,,,,,,,877.3461,878.3412,,,878.8408,879.0903,,48,48,,,,,,,,,,,,,,,,bars/034.png,bars/mask002.png,,,,,,,,,,,,3,2,,,,,,,8,8,8,8,,,,,,,,,,,878.3412,878.8408,879.0904,881.6379,space,2.5328,,881.638,77,17,882.6371,882.6371,882.6583,,,,0,32,32,32,1,125,65,,,,,,,,
,,5e9133f704391d46ee2bcb31,65af57c0e8cf4b3e6d33359c,2024-01-23_03h08.49.571,bars,2023.2.3,Win32,60.24096386,657b66ea316d21385b68909f,,,,,,,,,,,882.6588,883.6528,,,884.1525,884.402,,169,169,,,,,,,,,,,,,,,,bars/033.png,bars/mask008.png,,,,,,,,,,,,4,2,,,,,,,6,10,6,8,,,,,,,,,,,883.6529,884.1524,884.402,886.4999,space,2.0826,,886.5,36,14,887.4989,887.499,887.5208,,,,0,33,33,33,1,25,155,,,,,,,,
,,5e9133f704391d46ee2bcb31,65af57c0e8cf4b3e6d33359c,2024-01-23_03h08.49.571,bars,2023.2.3,Win32,60.24096386,657b66ea316d21385b68909f,,,,,,,,,,,887.521,888.5145,,,889.0142,889.2638,,90,90,,,,,,,,,,,,,,,,bars/041.png,bars/mask007.png,,,,,,,,,,,,7,2,,,,,,,4,10,3,8,,,,,,,,,,,888.5146,889.0141,889.2638,891.6281,space,2.3559,,891.6281,70,5,892.6275,892.6275,892.6285,,,,0,34,34,34,1,20,85,,,,,,,,
,,5e9133f704391d46ee2bcb31,65af57c0e8cf4b3e6d33359c,2024-01-23_03h08.49.571,bars,2023.2.3,Win32,60.24096386,657b66ea316d21385b68909f,,,,,,,,,,,892.6289,893.6267,,,894.126,894.3754,,45,225,,,,,,,,,,,,,,,,bars/043.png,bars/mask004.png,,,,,,,,,,,,3,1,,,,,,,6,8,5,8,,,,,,,,,,,893.6268,894.126,894.3755,897.8893,space,3.498,,897.8893,15,85,898.888,898.888,898.9049,,,,0,35,35,35,1,30,130,,,,,,,,
,,5e9133f704391d46ee2bcb31,65af57c0e8cf4b3e6d33359c,2024-01-23_03h08.49.571,bars,2023.2.3,Win32,60.24096386,657b66ea316d21385b68909f,,,,,,,,,,,898.9052,899.9035,,,900.4032,900.6532,,145,145,,,,,,,,,,,,,,,,bars/031.png,bars/mask006.png,,,,,,,,,,,,1,1,,,,,,,8,10,9,10,,,,,,,,,,,899.9035,900.4032,900.6532,902.7842,space,2.115,,902.7843,25,70,903.7834,903.7835,903.7997,,,,0,36,36,36,1,120,35,,,,,,,,
,,5e9133f704391d46ee2bcb31,65af57c0e8cf4b3e6d33359c,2024-01-23_03h08.49.571,bars,2023.2.3,Win32,60.24096386,657b66ea316d21385b68909f,,,,,,,,,,,903.8,904.7991,,,905.2984,905.5484,,41,41,,,,,,,,,,,,,,,,bars/043.png,bars/mask009.png,,,,,,,,,,,,6,1,,,,,,,10,10,10,10,,,,,,,,,,,904.7992,905.2984,905.5484,909.1115,space,3.5524,,909.1117,11,89,910.1102,910.1102,910.1265,,,,0,37,37,37,1,30,130,,,,,,,,
,,5e9133f704391d46ee2bcb31,65af57c0e8cf4b3e6d33359c,2024-01-23_03h08.49.571,bars,2023.2.3,Win32,60.24096386,657b66ea316d21385b68909f,,,,,,,,,,,910.1269,911.1262,,,911.6254,911.8753,,144,144,,,,,,,,,,,,,,,,bars/004.png,bars/mask005.png,,,,,,,,,,,,4,2,,,,,,,8,10,7,10,,,,,,,,,,,911.1262,911.6254,911.8755,914.5558,space,2.6722,,914.5558,61,19,915.5551,915.5552,915.5739,,,,0,38,38,38,1,25,125,,,,,,,,
,,5e9133f704391d46ee2bcb31,65af57c0e8cf4b3e6d33359c,2024-01-23_03h08.49.571,bars,2023.2.3,Win32,60.24096386,657b66ea316d21385b68909f,,,,,,,,,,,915.5745,916.5706,,,917.0699,917.3201,,124,124,,,,,,,,,,,,,,,,bars/037.png,bars/mask007.png,,,,,,,,,,,,3,2,,,,,,,10,8,9,9,,,,,,,,,,,916.5707,917.0699,917.3201,924.0136,space,6.683,,924.0137,26,19,925.0126,925.0127,925.0308,,,,0,39,39,39,1,150,105,,,,,,,,
,,5e9133f704391d46ee2bcb31,65af57c0e8cf4b3e6d33359c,2024-01-23_03h08.49.571,bars,2023.2.3,Win32,60.24096386,657b66ea316d21385b68909f,,,,,,,,,,,925.0315,926.0279,,,926.5281,926.7776,,146,146,,,,,,,,,,,,,,,,bars/005.png,bars/mask005.png,,,,,,,,,,,,5,2,,,,,,,8,6,7,6,,,,,,,,,,,926.0279,926.5281,926.7777,933.438,space,6.6439,,933.438,44,6,934.437,934.437,934.456,,,,0,40,40,40,1,10,140,,,,,,,,
,,5e9133f704391d46ee2bcb31,65af57c0e8cf4b3e6d33359c,2024-01-23_03h08.49.571,bars,2023.2.3,Win32,60.24096386,657b66ea316d21385b68909f,,,,,,,,,,,934.4563,935.4521,,,935.9516,936.2018,,55,55,,,,,,,,,,,,,,,,bars/034.png,bars/mask001.png,,,,,,,,,,,,3,2,,,,,,,6,4,6,4,,,,,,,,,,,935.4521,935.9515,936.2019,938.433,space,2.2178,,938.4331,70,10,939.4317,939.4317,939.4476,,,,0,41,41,41,1,125,65,,,,,,,,
,,5e9133f704391d46ee2bcb31,65af57c0e8cf4b3e6d33359c,2024-01-23_03h08.49.571,bars,2023.2.3,Win32,60.24096386,657b66ea316d21385b68909f,,,,,,,,,,,939.448,940.4472,,,940.9474,941.1967,,91,91,,,,,,,,,,,,,,,,bars/011.png,bars/mask006.png,,,,,,,,,,,,2,2,,,,,,,4,2,3,3,,,,,,,,,,,940.4472,940.9473,941.1968,943.6776,space,2.4706,,943.6776,69,6,944.6766,944.6766,944.6923,,,,0,42,42,42,1,160,85,,,,,,,,
,,5e9133f704391d46ee2bcb31,65af57c0e8cf4b3e6d33359c,2024-01-23_03h08.49.571,bars,2023.2.3,Win32,60.24096386,657b66ea316d21385b68909f,,,,,,,,,,,944.6927,945.6922,,,946.1917,946.4418,,19,19,,,,,,,,,,,,,,,,bars/041.png,bars/mask007.png,,,,,,,,,,,,6,1,,,,,,,6,0,6,0,,,,,,,,,,,945.6922,946.1917,946.4418,951.7203,space,5.2626,,951.7203,1,66,952.7186,952.7186,952.7358,,,,0,43,43,43,1,20,85,,,,,,,,
,,5e9133f704391d46ee2bcb31,65af57c0e8cf4b3e6d33359c,2024-01-23_03h08.49.571,bars,2023.2.3,Win32,60.24096386,657b66ea316d21385b68909f,,,,,,,,,,,952.7363,953.7341,,,954.2336,954.4834,,36,36,,,,,,,,,,,,,,,,bars/005.png,bars/mask009.png,,,,,,,,,,,,0,1,,,,,,,4,2,2,2,,,,,,,,,,,953.7342,954.2336,954.4834,957.2974,space,2.8005,,957.2974,26,76,958.2962,958.2962,958.3135,,,,0,44,44,44,1,10,140,,,,,,,,
,,5e9133f704391d46ee2bcb31,65af57c0e8cf4b3e6d33359c,2024-01-23_03h08.49.571,bars,2023.2.3,Win32,60.24096386,657b66ea316d21385b68909f,,,,,,,,,,,958.3138,959.312,,,959.8115,960.0612,,111,111,,,,,,,,,,,,,,,,bars/020.png,bars/mask005.png,,,,,,,,,,,,1,1,,,,,,,2,0,1,1,,,,,,,,,,,959.312,959.8115,960.0613,964.6902,space,4.6224,,964.6902,4,59,965.6891,965.6892,965.7089,,,,0,45,45,45,1,115,170,,,,,,,,
,,5e9133f704391d46ee2bcb31,65af57c0e8cf4b3e6d33359c,2024-01-23_03h08.49.571,bars,2023.2.3,Win32,60.24096386,657b66ea316d21385b68909f,,,,,,,,,,,965.7093,966.7047,,,967.2043,967.4539,,0,0,,,,,,,,,,,,,,,,bars/014.png,bars/mask008.png,,,,,,,,,,,,2,2,,,,,,,0,2,0,2,,,,,,,,,,,966.7048,967.2043,967.454,972.6494,space,5.1823,,972.6494,80,0,973.648,973.648,973.667,,,,0,46,46,46,1,80,0,,,,,,,,
,,5e9133f704391d46ee2bcb31,65af57c0e8cf4b3e6d33359c,2024-01-23_03h08.49.571,bars,2023.2.3,Win32,60.24096386,657b66ea316d21385b68909f,,,,,,,,,,,973.6676,974.6634,,,975.1631,975.4127,,82,82,,,,,,,,,,,,,,,,bars/046.png,bars/mask005.png,,,,,,,,,,,,4,2,,,,,,,2,4,3,4,,,,,,,,,,,974.6635,975.1631,975.4128,979.6094,space,4.1788,,979.6095,73,3,980.6081,980.6082,980.6251,,,,0,47,47,47,1,155,85,,,,,,,,
,,5e9133f704391d46ee2bcb31,65af57c0e8cf4b3e6d33359c,2024-01-23_03h08.49.571,bars,2023.2.3,Win32,60.24096386,657b66ea316d21385b68909f,,,,,,,,,,,980.6254,981.624,,,982.1231,982.3735,,173,173,,,,,,,,,,,,,,,,bars/014.png,bars/mask007.png,,,,,,,,,,,,3,2,,,,,,,4,2,4,4,,,,,,,,,,,981.624,982.1231,982.3735,984.4043,space,2.0149,,984.4044,87,7,985.4034,985.4035,985.4198,,,,0,48,48,48,1,80,0,,,,,,,,
,,5e9133f704391d46ee2bcb31,65af57c0e8cf4b3e6d33359c,2024-01-23_03h08.49.571,bars,2023.2.3,Win32,60.24096386,657b66ea316d21385b68909f,,,,,,,,,,,985.4201,986.419,,,986.9183,987.1679,,15,15,,,,,,,,,,,,,,,,bars/008.png,bars/mask009.png,,,,,,,,,,,,2,2,,,,,,,6,4,7,3,,,,,,,,,,,986.419,986.9183,987.1679,989.0833,space,1.8998,,989.0833,85,15,990.0822,990.0822,990.0981,,,,0,49,49,49,1,110,0,,,,,,,,
,,5e9133f704391d46ee2bcb31,65af57c0e8cf4b3e6d33359c,2024-01-23_03h08.49.571,bars,2023.2.3,Win32,60.24096386,657b66ea316d21385b68909f,,,,,,,,,,,,,,,,,,,,,,,,,,,,,,,,,,,,,,,,,,,,,,,,,,,,,,,,,,,,,,,,,,,,,,,,,,,,,,,,,,,,,,,,,,,,,990.0984,1050.09,0,1,1,2,1,sequence_tables/blk025.csv
,,5e9133f704391d46ee2bcb31,65af57c0e8cf4b3e6d33359c,2024-01-23_03h08.49.571,bars,2023.2.3,Win32,60.24096386,657b66ea316d21385b68909f,,,,,,,,,,,1058.9074,1059.8973,,,1060.3964,1060.6465,,88,88,,,,,,,,,,,,,,,,bars/002.png,bars/mask000.png,,,,,,,,,,,,0,2,,,,,,,10,1,8,0,,,,,,1050.1071,1058.8815,space,8.7643,,1059.8973,1060.3964,1060.6466,1063.3605,space,2.7011,,1063.3605,42,3,1064.3593,1064.3593,1064.3752,,,,0,0,0,0,1,130,85,,,,,,,,
,,5e9133f704391d46ee2bcb31,65af57c0e8cf4b3e6d33359c,2024-01-23_03h08.49.571,bars,2023.2.3,Win32,60.24096386,657b66ea316d21385b68909f,,,,,,,,,,,1064.3756,1065.375,,,1065.8743,1066.1243,,116,116,,,,,,,,,,,,,,,,bars/024.png,bars/mask000.png,,,,,,,,,,,,7,1,,,,,,,8,0,8,0,,,,,,,,,,,1065.375,1065.8743,1066.1243,1068.7212,space,2.5908,,1068.7212,4,54,1069.7204,1069.7204,1069.7287,,,,0,1,1,1,1,120,170,,,,,,,,
,,5e9133f704391d46ee2bcb31,65af57c0e8cf4b3e6d33359c,2024-01-23_03h08.49.571,bars,2023.2.3,Win32,60.24096386,657b66ea316d21385b68909f,,,,,,,,,,,1069.7289,1070.7201,,,1071.2197,1071.4693,,32,32,,,,,,,,,,,,,,,,bars/043.png,bars/mask006.png,,,,,,,,,,,,5,1,,,,,,,6,0,5,0,,,,,,,,,,,1070.7201,1071.2196,1071.4693,1075.1151,space,3.6385,,1075.1151,2,82,1076.1142,1076.1143,1076.13,,,,0,2,2,2,1,30,130,,,,,,,,
,,5e9133f704391d46ee2bcb31,65af57c0e8cf4b3e6d33359c,2024-01-23_03h08.49.571,bars,2023.2.3,Win32,60.24096386,657b66ea316d21385b68909f,,,,,,,,,,,1076.1305,1077.1305,,,1077.63,1077.8796,,135,135,,,,,,,,,,,,,,,,bars/031.png,bars/mask003.png,,,,,,,,,,,,2,1,,,,,,,4,2,3,0,,,,,,,,,,,1077.1306,1077.6299,1077.8796,1079.2949,space,1.3989,,1079.2949,15,80,1080.2934,1080.2935,1080.31,,,,0,3,3,3,1,120,35,,,,,,,,
,,5e9133f704391d46ee2bcb31,65af57c0e8cf4b3e6d33359c,2024-01-23_03h08.49.571,bars,2023.2.3,Win32,60.24096386,657b66ea316d21385b68909f,,,,,,,,,,,1080.3103,1081.3093,,,1081.809,1082.0589,,109,109,,,,,,,,,,,,,,,,bars/024.png,bars/mask000.png,,,,,,,,,,,,3,1,,,,,,,6,0,5,0,,,,,,,,,,,1081.3094,1081.809,1082.0589,1088.669,space,6.6007,,1088.6692,11,61,1089.668,1089.6681,1089.6848,,,,0,4,4,4,1,120,170,,,,,,,,
,,5e9133f704391d46ee2bcb31,65af57c0e8cf4b3e6d33359c,2024-01-23_03h08.49.571,bars,2023.2.3,Win32,60.24096386,657b66ea316d21385b68909f,,,,,,,,,,,1089.685,1090.6838,,,1091.183,1091.4333,,126,126,,,,,,,,,,,,,,,,bars/024.png,bars/mask001.png,,,,,,,,,,,,8,1,,,,,,,8,2,10,5,,,,,,,,,,,1090.6838,1091.1829,1091.4334,1093.0479,space,1.5998,,1093.0479,6,44,1094.0466,1094.0466,1094.047,,,,0,5,5,5,1,120,170,,,,,,,,
,,5e9133f704391d46ee2bcb31,65af57c0e8cf4b3e6d33359c,2024-01-23_03h08.49.571,bars,2023.2.3,Win32,60.24096386,657b66ea316d21385b68909f,,,,,,,,,,,1094.0473,1095.046,,,1095.5458,1095.7956,,39,219,,,,,,,,,,,,,,,,bars/028.png,bars/mask000.png,,,,,,,,,,,,8,1,,,,,,,10,0,10,1,,,,,,,,,,,1095.0461,1095.5458,1095.7957,1099.4251,space,3.6132,,1099.4252,6,81,1100.4241,1100.4241,1100.4402,,,,0,6,6,6,1,45,120,,,,,,,,
,,5e9133f704391d46ee2bcb31,65af57c0e8cf4b3e6d33359c,2024-01-23_03h08.49.571,bars,2023.2.3,Win32,60.24096386,657b66ea316d21385b68909f,,,,,,,,,,,1100.4405,1101.4396,,,1101.9392,1102.189,,28,28,,,,,,,,,,,,,,,,bars/033.png,bars/mask000.png,,,,,,,,,,,,9,1,,,,,,,10,0,10,0,,,,,,,,,,,1101.4396,1101.9392,1102.1891,1107.9668,space,5.7666,,1107.9669,3,53,1108.9659,1108.9659,1108.985,,,,0,7,7,7,1,25,155,,,,,,,,
,,5e9133f704391d46ee2bcb31,65af57c0e8cf4b3e6d33359c,2024-01-23_03h08.49.571,bars,2023.2.3,Win32,60.24096386,657b66ea316d21385b68909f,,,,,,,,,,,1108.9853,1109.9815,,,1110.4813,1110.7306,,50,50,,,,,,,,,,,,,,,,bars/044.png,bars/mask002.png,,,,,,,,,,,,1,1,,,,,,,10,0,8,0,,,,,,,,,,,1109.9815,1110.4813,1110.7306,1115.1599,space,4.4136,,1115.1599,25,75,1116.1589,1116.1589,1116.1667,,,,0,8,8,8,1,75,155,,,,,,,,
,,5e9133f704391d46ee2bcb31,65af57c0e8cf4b3e6d33359c,2024-01-23_03h08.49.571,bars,2023.2.3,Win32,60.24096386,657b66ea316d21385b68909f,,,,,,,,,,,1116.1668,1117.1577,,,1117.6573,1117.9073,,170,170,,,,,,,,,,,,,,,,bars/007.png,bars/mask005.png,,,,,,,,,,,,8,1,,,,,,,8,0,9,0,,,,,,,,,,,1117.1577,1117.6572,1117.9074,1119.3892,space,1.4648,,1119.3893,5,65,1120.3876,1120.3877,1120.4042,,,,0,9,9,9,1,175,55,,,,,,,,
,,5e9133f704391d46ee2bcb31,65af57c0e8cf4b3e6d33359c,2024-01-23_03h08.49.571,bars,2023.2.3,Win32,60.24096386,657b66ea316d21385b68909f,,,,,,,,,,,1120.4045,1121.4037,,,1121.903,1122.1528,,167,167,,,,,,,,,,,,,,,,bars/035.png,bars/mask005.png,,,,,,,,,,,,5,1,,,,,,,10,2,7,4,,,,,,,,,,,1121.4038,1121.9029,1122.1529,1125.0498,space,2.8828,,1125.0498,8,73,1126.0486,1126.0486,1126.0644,,,,0,10,10,10,1,175,60,,,,,,,,
,,5e9133f704391d46ee2bcb31,65af57c0e8cf4b3e6d33359c,2024-01-23_03h08.49.571,bars,2023.2.3,Win32,60.24096386,657b66ea316d21385b68909f,,,,,,,,,,,1126.0646,1127.0643,,,1127.5639,1127.8137,,163,163,,,,,,,,,,,,,,,,bars/049.png,bars/mask000.png,,,,,,,,,,,,9,1,,,,,,,10,4,10,4,,,,,,,,,,,1127.0643,1127.5639,1127.8138,1131.1275,space,3.3018,,1131.1276,3,48,1132.126,1132.1261,1132.1338,,,,0,11,11,11,1,160,115,,,,,,,,
,,5e9133f704391d46ee2bcb31,65af57c0e8cf4b3e6d33359c,2024-01-23_03h08.49.571,bars,2023.2.3,Win32,60.24096386,657b66ea316d21385b68909f,,,,,,,,,,,1132.134,1133.1251,,,1133.6251,1133.8742,,155,155,,,,,,,,,,,,,,,,bars/017.png,bars/mask008.png,,,,,,,,,,,,5,1,,,,,,,8,6,7,8,,,,,,,,,,,1133.1251,1133.6251,1133.8742,1136.9721,space,3.0825,,1136.9721,10,70,1137.9708,1137.9709,1137.9869,,,,0,12,12,12,1,145,45,,,,,,,,
,,5e9133f704391d46ee2bcb31,65af57c0e8cf4b3e6d33359c,2024-01-23_03h08.49.571,bars,2023.2.3,Win32,60.24096386,657b66ea316d21385b68909f,,,,,,,,,,,1137.9873,1138.9863,,,1139.4863,1139.7356,,97,97,,,,,,,,,,,,,,,,bars/022.png,bars/mask007.png,,,,,,,,,,,,6,1,,,,,,,6,4,6,2,,,,,,,,,,,1138.9863,1139.4863,1139.7356,1141.6174,space,1.866,,1141.6174,2,77,1142.6161,1142.6161,1142.632,,,,0,13,13,13,1,95,20,,,,,,,,
,,5e9133f704391d46ee2bcb31,65af57c0e8cf4b3e6d33359c,2024-01-23_03h08.49.571,bars,2023.2.3,Win32,60.24096386,657b66ea316d21385b68909f,,,,,,,,,,,1142.6322,1143.6323,,,1144.1314,1144.3814,,21,21,,,,,,,,,,,,,,,,bars/005.png,bars/mask006.png,,,,,,,,,,,,3,1,,,,,,,4,6,4,6,,,,,,,,,,,1143.6324,1144.1313,1144.3815,1147.6108,space,3.222,,1147.6109,11,61,1148.6104,1148.6104,1148.6265,,,,0,14,14,14,1,10,140,,,,,,,,
,,5e9133f704391d46ee2bcb31,65af57c0e8cf4b3e6d33359c,2024-01-23_03h08.49.571,bars,2023.2.3,Win32,60.24096386,657b66ea316d21385b68909f,,,,,,,,,,,1148.6267,1149.6262,,,1150.1258,1150.3753,,160,-20,,,,,,,,,,,,,,,,bars/010.png,bars/mask006.png,,,,,,,,,,,,4,1,,,,,,,6,4,5,3,,,,,,,,,,,1149.6262,1150.1258,1150.3753,1153.8884,space,3.501,,1153.8885,5,75,1154.8875,1154.8876,1154.9035,,,,0,15,15,15,1,165,55,,,,,,,,
,,5e9133f704391d46ee2bcb31,65af57c0e8cf4b3e6d33359c,2024-01-23_03h08.49.571,bars,2023.2.3,Win32,60.24096386,657b66ea316d21385b68909f,,,,,,,,,,,1154.9038,1155.903,,,1156.4029,1156.6521,,24,24,,,,,,,,,,,,,,,,bars/016.png,bars/mask003.png,,,,,,,,,,,,1,1,,,,,,,4,2,3,3,,,,,,,,,,,1155.903,1156.4028,1156.6521,1159.3334,space,2.6716,,1159.3335,16,39,1160.3323,1160.3324,1160.3406,,,,0,16,16,16,1,40,165,,,,,,,,
,,5e9133f704391d46ee2bcb31,65af57c0e8cf4b3e6d33359c,2024-01-23_03h08.49.571,bars,2023.2.3,Win32,60.24096386,657b66ea316d21385b68909f,,,,,,,,,,,1160.3408,1161.3315,,,1161.8311,1162.0807,,82,82,,,,,,,,,,,,,,,,bars/002.png,bars/mask002.png,,,,,,,,,,,,4,2,,,,,,,2,4,2,4,,,,,,,,,,,1161.3316,1161.8311,1162.0808,1163.2292,space,1.138,,1163.2293,48,3,1164.2283,1164.2283,1164.2452,,,,0,17,17,17,1,130,85,,,,,,,,
,,5e9133f704391d46ee2bcb31,65af57c0e8cf4b3e6d33359c,2024-01-23_03h08.49.571,bars,2023.2.3,Win32,60.24096386,657b66ea316d21385b68909f,,,,,,,,,,,1164.2455,1165.2437,,,1165.7439,1165.9933,,170,170,,,,,,,,,,,,,,,,bars/016.png,bars/mask004.png,,,,,,,,,,,,2,2,,,,,,,0,2,0,2,,,,,,,,,,,1165.2437,1165.7439,1165.9933,1169.4729,space,3.4661,,1169.4729,50,5,1170.4721,1170.4721,1170.4883,,,,0,18,18,18,1,40,165,,,,,,,,
,,5e9133f704391d46ee2bcb31,65af57c0e8cf4b3e6d33359c,2024-01-23_03h08.49.571,bars,2023.2.3,Win32,60.24096386,657b66ea316d21385b68909f,,,,,,,,,,,1170.4886,1171.4883,,,1171.9872,1172.2371,,163,163,,,,,,,,,,,,,,,,bars/011.png,bars/mask007.png,,,,,,,,,,,,0,1,,,,,,,0,4,0,4,,,,,,,,,,,1171.4884,1171.9872,1172.2371,1174.7682,space,2.5148,,1174.7683,3,78,1175.7666,1175.7667,1175.784,,,,0,19,19,19,1,160,85,,,,,,,,
,,5e9133f704391d46ee2bcb31,65af57c0e8cf4b3e6d33359c,2024-01-23_03h08.49.571,bars,2023.2.3,Win32,60.24096386,657b66ea316d21385b68909f,,,,,,,,,,,1175.7842,1176.7826,,,1177.2821,1177.5321,,80,80,,,,,,,,,,,,,,,,bars/047.png,bars/mask000.png,,,,,,,,,,,,2,2,,,,,,,2,2,1,3,,,,,,,,,,,1176.7827,1177.2821,1177.5321,1180.1962,space,2.6551,,1180.1963,65,10,1181.1952,1181.1952,1181.2035,,,,0,20,20,20,1,15,70,,,,,,,,
,,5e9133f704391d46ee2bcb31,65af57c0e8cf4b3e6d33359c,2024-01-23_03h08.49.571,bars,2023.2.3,Win32,60.24096386,657b66ea316d21385b68909f,,,,,,,,,,,1181.2037,1182.1938,,,1182.6937,1182.9435,,1,181,,,,,,,,,,,,,,,,bars/032.png,bars/mask007.png,,,,,,,,,,,,2,2,,,,,,,0,4,0,5,,,,,,,,,,,1182.1938,1182.6937,1182.9436,1187.5719,space,4.6205,,1187.5719,56,19,1188.5706,1188.5706,1188.5788,,,,0,21,21,21,1,125,20,,,,,,,,
,,5e9133f704391d46ee2bcb31,65af57c0e8cf4b3e6d33359c,2024-01-23_03h08.49.571,bars,2023.2.3,Win32,60.24096386,657b66ea316d21385b68909f,,,,,,,,,,,1188.579,1189.5705,,,1190.07,1190.3195,,100,100,,,,,,,,,,,,,,,,bars/001.png,bars/mask003.png,,,,,,,,,,,,1,2,,,,,,,2,2,2,2,,,,,,,,,,,1189.5705,1190.07,1190.3195,1193.9495,space,3.6148,,1193.9496,30,15,1194.948,1194.9481,1194.9636,,,,0,22,22,22,1,130,85,,,,,,,,
,,5e9133f704391d46ee2bcb31,65af57c0e8cf4b3e6d33359c,2024-01-23_03h08.49.571,bars,2023.2.3,Win32,60.24096386,657b66ea316d21385b68909f,,,,,,,,,,,1194.9638,1195.9639,,,1196.4634,1196.7131,,144,144,,,,,,,,,,,,,,,,bars/021.png,bars/mask007.png,,,,,,,,,,,,0,1,,,,,,,0,4,0,2,,,,,,,,,,,1195.9641,1196.4633,1196.7131,1200.6764,space,3.947,,1200.6764,11,74,1201.6747,1201.6748,1201.6917,,,,0,23,23,23,1,155,70,,,,,,,,
,,5e9133f704391d46ee2bcb31,65af57c0e8cf4b3e6d33359c,2024-01-23_03h08.49.571,bars,2023.2.3,Win32,60.24096386,657b66ea316d21385b68909f,,,,,,,,,,,1201.6919,1202.6907,,,1203.1902,1203.4403,,84,84,,,,,,,,,,,,,,,,bars/014.png,bars/mask002.png,,,,,,,,,,,,2,1,,,,,,,2,2,2,1,,,,,,,,,,,1202.6907,1203.1901,1203.4403,1205.6876,space,2.2343,,1205.6876,4,84,1206.6864,1206.6865,1206.6943,,,,0,24,24,24,1,80,0,,,,,,,,
,,5e9133f704391d46ee2bcb31,65af57c0e8cf4b3e6d33359c,2024-01-23_03h08.49.571,bars,2023.2.3,Win32,60.24096386,657b66ea316d21385b68909f,,,,,,,,,,,1206.6944,1207.6855,,,1208.1854,1208.4351,,80,80,,,,,,,,,,,,,,,,bars/010.png,bars/mask001.png,,,,,,,,,,,,1,2,,,,,,,4,4,3,5,,,,,,,,,,,1207.6855,1208.1854,1208.4352,1210.9988,space,2.5486,,1210.9989,85,25,1211.9983,1211.9984,1212.0152,,,,0,25,25,25,1,165,55,,,,,,,,
,,5e9133f704391d46ee2bcb31,65af57c0e8cf4b3e6d33359c,2024-01-23_03h08.49.571,bars,2023.2.3,Win32,60.24096386,657b66ea316d21385b68909f,,,,,,,,,,,1212.0154,1213.0137,,,1213.5134,1213.7635,,16,196,,,,,,,,,,,,,,,,bars/036.png,bars/mask002.png,,,,,,,,,,,,3,2,,,,,,,6,2,6,3,,,,,,,,,,,1213.0138,1213.5133,1213.7636,1217.2765,space,3.5045,,1217.2765,51,4,1218.2748,1218.2749,1218.2841,,,,0,26,26,26,1,145,20,,,,,,,,
,,5e9133f704391d46ee2bcb31,65af57c0e8cf4b3e6d33359c,2024-01-23_03h08.49.571,bars,2023.2.3,Win32,60.24096386,657b66ea316d21385b68909f,,,,,,,,,,,1218.2842,1219.274,,,1219.7737,1220.0233,,172,-8,,,,,,,,,,,,,,,,bars/035.png,bars/mask005.png,,,,,,,,,,,,6,1,,,,,,,8,4,7,4,,,,,,,,,,,1219.274,1219.7737,1220.0234,1222.9873,space,2.9574,,1222.9873,3,68,1223.9863,1223.9863,1224.0051,,,,0,27,27,27,1,175,60,,,,,,,,
,,5e9133f704391d46ee2bcb31,65af57c0e8cf4b3e6d33359c,2024-01-23_03h08.49.571,bars,2023.2.3,Win32,60.24096386,657b66ea316d21385b68909f,,,,,,,,,,,1224.0056,1225.0021,,,1225.5019,1225.7513,,127,127,,,,,,,,,,,,,,,,bars/027.png,bars/mask008.png,,,,,,,,,,,,4,1,,,,,,,10,6,10,5,,,,,,,,,,,1225.0022,1225.5018,1225.7514,1231.346,space,5.5892,,1231.3462,17,77,1232.3449,1232.345,1232.3624,,,,0,28,28,28,1,110,50,,,,,,,,
,,5e9133f704391d46ee2bcb31,65af57c0e8cf4b3e6d33359c,2024-01-23_03h08.49.571,bars,2023.2.3,Win32,60.24096386,657b66ea316d21385b68909f,,,,,,,,,,,1232.363,1233.3608,,,1233.8601,1234.1098,,112,112,,,,,,,,,,,,,,,,bars/031.png,bars/mask000.png,,,,,,,,,,,,7,1,,,,,,,10,4,10,4,,,,,,,,,,,1233.3608,1233.8601,1234.1099,1236.4572,space,2.3412,,1236.4572,8,77,1237.4563,1237.4563,1237.464,,,,0,29,29,29,1,120,35,,,,,,,,
,,5e9133f704391d46ee2bcb31,65af57c0e8cf4b3e6d33359c,2024-01-23_03h08.49.571,bars,2023.2.3,Win32,60.24096386,657b66ea316d21385b68909f,,,,,,,,,,,1237.4642,1238.4557,,,1238.9547,1239.2048,,87,87,,,,,,,,,,,,,,,,bars/013.png,bars/mask008.png,,,,,,,,,,,,4,1,,,,,,,8,6,7,5,,,,,,,,,,,1238.4558,1238.9546,1239.2049,1241.8197,space,2.599,,1241.8197,12,77,1242.818,1242.818,1242.8336,,,,0,30,30,30,1,75,10,,,,,,,,
,,5e9133f704391d46ee2bcb31,65af57c0e8cf4b3e6d33359c,2024-01-23_03h08.49.571,bars,2023.2.3,Win32,60.24096386,657b66ea316d21385b68909f,,,,,,,,,,,1242.834,1243.8338,,,1244.3335,1244.5829,,176,-4,,,,,,,,,,,,,,,,bars/039.png,bars/mask001.png,,,,,,,,,,,,6,1,,,,,,,6,8,6,10,,,,,,,,,,,1243.8338,1244.3335,1244.5829,1246.9205,space,2.3316,,1246.9205,1,71,1247.9178,1247.9178,1247.9188,,,,0,31,31,31,1,175,105,,,,,,,,
,,5e9133f704391d46ee2bcb31,65af57c0e8cf4b3e6d33359c,2024-01-23_03h08.49.571,bars,2023.2.3,Win32,60.24096386,657b66ea316d21385b68909f,,,,,,,,,,,1247.9192,1248.9171,,,1249.4169,1249.6658,,106,106,,,,,,,,,,,,,,,,bars/008.png,bars/mask002.png,,,,,,,,,,,,3,1,,,,,,,4,10,4,10,,,,,,,,,,,1248.9171,1249.4168,1249.6658,1253.8619,space,4.1796,,1253.8619,4,74,1254.8604,1254.8604,1254.8675,,,,0,32,32,32,1,110,0,,,,,,,,
,,5e9133f704391d46ee2bcb31,65af57c0e8cf4b3e6d33359c,2024-01-23_03h08.49.571,bars,2023.2.3,Win32,60.24096386,657b66ea316d21385b68909f,,,,,,,,,,,1254.8676,1255.8597,,,1256.3601,1256.6103,,47,47,,,,,,,,,,,,,,,,bars/019.png,bars/mask007.png,,,,,,,,,,,,2,1,,,,,,,2,10,2,9,,,,,,,,,,,1255.8597,1256.3601,1256.6103,1260.3564,space,3.7294,,1260.3565,2,58,1261.3551,1261.3552,1261.3719,,,,0,33,33,33,1,45,105,,,,,,,,
,,5e9133f704391d46ee2bcb31,65af57c0e8cf4b3e6d33359c,2024-01-23_03h08.49.571,bars,2023.2.3,Win32,60.24096386,657b66ea316d21385b68909f,,,,,,,,,,,1261.3721,1262.3651,,,1262.8649,1263.1153,,19,19,,,,,,,,,,,,,,,,bars/045.png,bars/mask005.png,,,,,,,,,,,,5,2,,,,,,,0,8,1,7,,,,,,,,,,,1262.3652,1262.8649,1263.1155,1265.479,space,2.3331,,1265.4791,81,9,1266.4779,1266.4779,1266.4805,,,,0,34,34,34,1,100,10,,,,,,,,
,,5e9133f704391d46ee2bcb31,65af57c0e8cf4b3e6d33359c,2024-01-23_03h08.49.571,bars,2023.2.3,Win32,60.24096386,657b66ea316d21385b68909f,,,,,,,,,,,1266.4807,1267.4776,,,1267.9769,1268.2264,,40,40,,,,,,,,,,,,,,,,bars/035.png,bars/mask009.png,,,,,,,,,,,,3,2,,,,,,,0,10,0,9,,,,,,,,,,,1267.4776,1267.9769,1268.2265,1271.3575,space,3.1141,,1271.3577,45,20,1272.3557,1272.3559,1272.3729,,,,0,35,35,35,1,175,60,,,,,,,,
,,5e9133f704391d46ee2bcb31,65af57c0e8cf4b3e6d33359c,2024-01-23_03h08.49.571,bars,2023.2.3,Win32,60.24096386,657b66ea316d21385b68909f,,,,,,,,,,,1272.374,1273.3718,,,1273.8708,1274.1215,,163,163,,,,,,,,,,,,,,,,bars/033.png,bars/mask008.png,,,,,,,,,,,,5,2,,,,,,,2,8,4,7,,,,,,,,,,,1273.3719,1273.8708,1274.1218,1277.1677,space,3.0185,,1277.1679,42,8,1278.1663,1278.1664,1278.1836,,,,0,36,36,36,1,25,155,,,,,,,,
,,5e9133f704391d46ee2bcb31,65af57c0e8cf4b3e6d33359c,2024-01-23_03h08.49.571,bars,2023.2.3,Win32,60.24096386,657b66ea316d21385b68909f,,,,,,,,,,,1278.1846,1279.1823,,,1279.6818,1279.9316,,0,0,,,,,,,,,,,,,,,,bars/008.png,bars/mask009.png,,,,,,,,,,,,5,2,,,,,,,0,6,0,5,,,,,,,,,,,1279.1823,1279.6818,1279.9316,1283.9274,space,3.984,,1283.9274,70,0,1284.9267,1284.9267,1284.943,,,,0,37,37,37,1,110,0,,,,,,,,
,,5e9133f704391d46ee2bcb31,65af57c0e8cf4b3e6d33359c,2024-01-23_03h08.49.571,bars,2023.2.3,Win32,60.24096386,657b66ea316d21385b68909f,,,,,,,,,,,1284.9435,1285.9423,,,1286.4417,1286.6919,,93,93,,,,,,,,,,,,,,,,bars/001.png,bars/mask002.png,,,,,,,,,,,,6,2,,,,,,,2,8,2,8,,,,,,,,,,,1285.9425,1286.4417,1286.692,1290.1049,space,3.3989,,1290.105,37,8,1291.0925,1291.0926,1291.1087,,,,0,38,38,38,1,130,85,,,,,,,,
,,5e9133f704391d46ee2bcb31,65af57c0e8cf4b3e6d33359c,2024-01-23_03h08.49.571,bars,2023.2.3,Win32,60.24096386,657b66ea316d21385b68909f,,,,,,,,,,,1291.109,1292.1033,,,1292.6026,1292.8527,,76,76,,,,,,,,,,,,,,,,bars/038.png,bars/mask003.png,,,,,,,,,,,,8,2,,,,,,,4,10,5,10,,,,,,,,,,,1292.1034,1292.6024,1292.853,1295.1672,space,2.2835,,1295.1673,89,6,1296.1655,1296.1656,1296.1682,,,,0,39,39,39,1,165,70,,,,,,,,
,,5e9133f704391d46ee2bcb31,65af57c0e8cf4b3e6d33359c,2024-01-23_03h08.49.571,bars,2023.2.3,Win32,60.24096386,657b66ea316d21385b68909f,,,,,,,,,,,1296.1685,1297.1645,,,1297.6646,1297.9192,,86,86,,,,,,,,,,,,,,,,bars/042.png,bars/mask008.png,,,,,,,,,,,,6,2,,,,,,,6,10,5,10,,,,,,,,,,,1297.1645,1297.6645,1297.9192,1302.227,space,4.2933,,1302.2272,59,11,1303.2258,1303.2259,1303.243,,,,0,40,40,40,1,145,75,,,,,,,,
,,5e9133f704391d46ee2bcb31,65af57c0e8cf4b3e6d33359c,2024-01-23_03h08.49.571,bars,2023.2.3,Win32,60.24096386,657b66ea316d21385b68909f,,,,,,,,,,,1303.244,1304.2412,,,1304.7406,1304.9797,,92,272,,,,,,,,,,,,,,,,bars/002.png,bars/mask008.png,,,,,,,,,,,,5,2,,,,,,,8,8,8,6,,,,,,,,,,,1304.2414,1304.7406,1304.9797,1309.1198,space,4.1193,,1309.12,38,7,1310.1194,1310.1196,1310.1374,,,,0,41,41,41,1,130,85,,,,,,,,
,,5e9133f704391d46ee2bcb31,65af57c0e8cf4b3e6d33359c,2024-01-23_03h08.49.571,bars,2023.2.3,Win32,60.24096386,657b66ea316d21385b68909f,,,,,,,,,,,1310.1376,1311.1344,,,1311.6337,1311.8836,,89,269,,,,,,,,,,,,,,,,bars/021.png,bars/mask001.png,,,,,,,,,,,,4,2,,,,,,,6,10,5,10,,,,,,,,,,,1311.1345,1311.6337,1311.8837,1316.013,space,4.1189,,1316.0131,66,19,1317.0118,1317.0118,1317.02,,,,0,42,42,42,1,155,70,,,,,,,,
,,5e9133f704391d46ee2bcb31,65af57c0e8cf4b3e6d33359c,2024-01-23_03h08.49.571,bars,2023.2.3,Win32,60.24096386,657b66ea316d21385b68909f,,,,,,,,,,,1317.0201,1318.0111,,,1318.5111,1318.7601,,102,102,,,,,,,,,,,,,,,,bars/019.png,bars/mask005.png,,,,,,,,,,,,9,2,,,,,,,8,10,9,10,,,,,,,,,,,1318.0112,1318.5108,1318.7601,1321.5298,space,2.7642,,1321.5298,57,3,1322.523,1322.5231,1322.5385,,,,0,43,43,43,1,45,105,,,,,,,,
,,5e9133f704391d46ee2bcb31,65af57c0e8cf4b3e6d33359c,2024-01-23_03h08.49.571,bars,2023.2.3,Win32,60.24096386,657b66ea316d21385b68909f,,,,,,,,,,,1322.5387,1323.5392,,,1324.0387,1324.2881,,168,-12,,,,,,,,,,,,,,,,bars/033.png,bars/mask001.png,,,,,,,,,,,,6,2,,,,,,,10,10,10,10,,,,,,,,,,,1323.5392,1324.0387,1324.2881,1328.3512,space,4.0522,,1328.3514,37,13,1329.3495,1329.3496,1329.3705,,,,0,44,44,44,1,25,155,,,,,,,,
,,5e9133f704391d46ee2bcb31,65af57c0e8cf4b3e6d33359c,2024-01-23_03h08.49.571,bars,2023.2.3,Win32,60.24096386,657b66ea316d21385b68909f,,,,,,,,,,,1329.3712,1330.3652,,,1330.8658,1331.1153,,126,126,,,,,,,,,,,,,,,,bars/023.png,bars/mask003.png,,,,,,,,,,,,5,2,,,,,,,10,8,10,8,,,,,,,,,,,1330.3652,1330.8656,1331.1154,1334.0287,space,2.8888,,1334.0288,74,11,1335.0277,1335.0277,1335.0364,,,,0,45,45,45,1,20,115,,,,,,,,
,,5e9133f704391d46ee2bcb31,65af57c0e8cf4b3e6d33359c,2024-01-23_03h08.49.571,bars,2023.2.3,Win32,60.24096386,657b66ea316d21385b68909f,,,,,,,,,,,1335.0366,1336.0267,,,1336.5266,1336.7761,,56,56,,,,,,,,,,,,,,,,bars/010.png,bars/mask001.png,,,,,,,,,,,,10,2,,,,,,,10,10,10,10,,,,,,,,,,,1336.0267,1336.5266,1336.7761,1340.3728,space,3.5812,,1340.3729,71,1,1341.3712,1341.3712,1341.387,,,,0,46,46,46,1,165,55,,,,,,,,
,,5e9133f704391d46ee2bcb31,65af57c0e8cf4b3e6d33359c,2024-01-23_03h08.49.571,bars,2023.2.3,Win32,60.24096386,657b66ea316d21385b68909f,,,,,,,,,,,1341.3873,1342.392,,,1342.8871,1343.1364,,33,33,,,,,,,,,,,,,,,,bars/029.png,bars/mask009.png,,,,,,,,,,,,6,2,,,,,,,10,10,10,10,,,,,,,,,,,1342.392,1342.887,1343.1365,1346.8327,space,3.6805,,1346.8327,57,12,1347.8318,1347.8319,1347.8478,,,,0,47,47,47,1,90,45,,,,,,,,
,,5e9133f704391d46ee2bcb31,65af57c0e8cf4b3e6d33359c,2024-01-23_03h08.49.571,bars,2023.2.3,Win32,60.24096386,657b66ea316d21385b68909f,,,,,,,,,,,1347.848,1348.8529,,,1349.3471,1349.5967,,45,225,,,,,,,,,,,,,,,,bars/029.png,bars/mask004.png,,,,,,,,,,,,10,2,,,,,,,10,10,10,10,,,,,,,,,,,1348.853,1349.347,1349.5967,1353.2437,space,3.6161,,1353.2438,45,0,1354.2421,1354.2421,1354.2576,,,,0,48,48,48,1,90,45,,,,,,,,
,,5e9133f704391d46ee2bcb31,65af57c0e8cf4b3e6d33359c,2024-01-23_03h08.49.571,bars,2023.2.3,Win32,60.24096386,657b66ea316d21385b68909f,,,,,,,,,,,1354.258,1355.2577,,,1355.758,1356.0075,,43,43,,,,,,,,,,,,,,,,bars/030.png,bars/mask009.png,,,,,,,,,,,,2,2,,,,,,,8,8,6,6,,,,,,,,,,,1355.2578,1355.7579,1356.0075,1361.3852,space,5.3639,,1361.3852,83,22,1362.3839,1362.384,1362.3994,,,,0,49,49,49,1,140,65,,,,,,,,
,,5e9133f704391d46ee2bcb31,65af57c0e8cf4b3e6d33359c,2024-01-23_03h08.49.571,bars,2023.2.3,Win32,60.24096386,657b66ea316d21385b68909f,,,,,,,,,,,,,,,,,,,,,,,,,,,,,,,,,,,,,,,,,,,,,,,,,,,,,,,,,,,,,,,,,,,,,,,,,,,,,,,,,,,,,,,,,,,,,1362.3996,1422.3923,0,2,2,0,1,sequence_tables/blk041.csv
,,5e9133f704391d46ee2bcb31,65af57c0e8cf4b3e6d33359c,2024-01-23_03h08.49.571,bars,2023.2.3,Win32,60.24096386,657b66ea316d21385b68909f,,,,,,,,,,,1474.5338,1475.5235,,,1476.023,1476.2779,,69,69,,,,,,,,,,,,,,,,bars/042.png,bars/mask007.png,,,,,,,,,,,,5,2,,,,,,,10,7,10,6,,,,,,1422.4118,1474.508,space,52.0847,,1475.5236,1476.023,1476.2781,1479.47,space,3.1649,,1479.4701,76,6,1480.4688,1480.4689,1480.4845,,,,0,0,0,0,1,145,75,,,,,,,,
,,5e9133f704391d46ee2bcb31,65af57c0e8cf4b3e6d33359c,2024-01-23_03h08.49.571,bars,2023.2.3,Win32,60.24096386,657b66ea316d21385b68909f,,,,,,,,,,,1480.4847,1481.4842,,,1481.9836,1482.235,,162,162,,,,,,,,,,,,,,,,bars/015.png,bars/mask009.png,,,,,,,,,,,,5,2,,,,,,,8,5,5,5,,,,,,,,,,,1481.4842,1481.9836,1482.235,1484.1989,space,1.9527,,1484.1991,52,2,1485.2025,1485.2025,1485.2187,,,,0,1,1,1,1,110,160,,,,,,,,
,,5e9133f704391d46ee2bcb31,65af57c0e8cf4b3e6d33359c,2024-01-23_03h08.49.571,bars,2023.2.3,Win32,60.24096386,657b66ea316d21385b68909f,,,,,,,,,,,1485.219,1486.2132,,,1486.713,1486.9621,,72,72,,,,,,,,,,,,,,,,bars/010.png,bars/mask007.png,,,,,,,,,,,,1,2,,,,,,,10,3,10,3,,,,,,,,,,,1486.2133,1486.7128,1486.9623,1489.3602,space,2.3816,,1489.3602,87,17,1490.3588,1490.3589,1490.3606,,,,0,2,2,2,1,165,55,,,,,,,,
,,5e9133f704391d46ee2bcb31,65af57c0e8cf4b3e6d33359c,2024-01-23_03h08.49.571,bars,2023.2.3,Win32,60.24096386,657b66ea316d21385b68909f,,,,,,,,,,,1490.3609,1491.358,,,1491.8576,1492.107,,9,9,,,,,,,,,,,,,,,,bars/041.png,bars/mask008.png,,,,,,,,,,,,6,1,,,,,,,10,1,10,1,,,,,,,,,,,1491.3583,1491.8575,1492.1071,1494.976,space,2.8632,,1494.9761,11,76,1495.9744,1495.9744,1495.9923,,,,0,3,3,3,1,20,85,,,,,,,,
,,5e9133f704391d46ee2bcb31,65af57c0e8cf4b3e6d33359c,2024-01-23_03h08.49.571,bars,2023.2.3,Win32,60.24096386,657b66ea316d21385b68909f,,,,,,,,,,,1495.9926,1496.9865,,,1497.4906,1497.7352,,144,144,,,,,,,,,,,,,,,,bars/030.png,bars/mask007.png,,,,,,,,,,,,6,1,,,,,,,8,3,7,4,,,,,,,,,,,1496.9867,1497.4905,1497.7352,1504.096,space,6.3445,,1504.0962,4,79,1505.0947,1505.0948,1505.1138,,,,0,4,4,4,1,140,65,,,,,,,,
,,5e9133f704391d46ee2bcb31,65af57c0e8cf4b3e6d33359c,2024-01-23_03h08.49.571,bars,2023.2.3,Win32,60.24096386,657b66ea316d21385b68909f,,,,,,,,,,,1505.114,1506.1101,,,1506.6102,1506.8593,,128,128,,,,,,,,,,,,,,,,bars/034.png,bars/mask007.png,,,,,,,,,,,,8,1,,,,,,,10,5,9,4,,,,,,,,,,,1506.1101,1506.61,1506.8594,1511.0887,space,4.2143,,1511.0888,3,63,1512.0879,1512.088,1512.1046,,,,0,5,5,5,1,125,65,,,,,,,,
,,5e9133f704391d46ee2bcb31,65af57c0e8cf4b3e6d33359c,2024-01-23_03h08.49.571,bars,2023.2.3,Win32,60.24096386,657b66ea316d21385b68909f,,,,,,,,,,,1512.1055,1513.1035,,,1513.6031,1513.8526,,34,34,,,,,,,,,,,,,,,,bars/004.png,bars/mask008.png,,,,,,,,,,,,6,1,,,,,,,8,7,9,7,,,,,,,,,,,1513.1036,1513.6031,1513.8527,1515.6506,space,1.7906,,1515.6506,9,89,1516.6499,1516.65,1516.6588,,,,0,6,6,6,1,25,125,,,,,,,,
,,5e9133f704391d46ee2bcb31,65af57c0e8cf4b3e6d33359c,2024-01-23_03h08.49.571,bars,2023.2.3,Win32,60.24096386,657b66ea316d21385b68909f,,,,,,,,,,,1516.659,1517.6493,,,1518.1489,1518.3979,,100,100,,,,,,,,,,,,,,,,bars/045.png,bars/mask000.png,,,,,,,,,,,,6,1,,,,,,,6,5,6,4,,,,,,,,,,,1517.6493,1518.1489,1518.3979,1522.4946,space,4.0796,,1522.4946,0,90,1523.4936,1523.4937,1523.5106,,,,0,7,7,7,1,100,10,,,,,,,,
,,5e9133f704391d46ee2bcb31,65af57c0e8cf4b3e6d33359c,2024-01-23_03h08.49.571,bars,2023.2.3,Win32,60.24096386,657b66ea316d21385b68909f,,,,,,,,,,,1523.5112,1524.5091,,,1525.0083,1525.258,,139,139,,,,,,,,,,,,,,,,bars/034.png,bars/mask005.png,,,,,,,,,,,,5,1,,,,,,,8,7,9,9,,,,,,,,,,,1524.5091,1525.0083,1525.258,1530.3035,space,5.0336,,1530.3039,14,74,1531.3024,1531.3024,1531.3104,,,,0,8,8,8,1,125,65,,,,,,,,
,,5e9133f704391d46ee2bcb31,65af57c0e8cf4b3e6d33359c,2024-01-23_03h08.49.571,bars,2023.2.3,Win32,60.24096386,657b66ea316d21385b68909f,,,,,,,,,,,1531.3106,1532.3013,,,1532.8007,1533.0507,,40,40,,,,,,,,,,,,,,,,bars/043.png,bars/mask001.png,,,,,,,,,,,,7,1,,,,,,,10,9,10,9,,,,,,,,,,,1532.3013,1532.8007,1533.0507,1536.6137,space,3.5538,,1536.6137,10,90,1537.613,1537.6131,1537.6292,,,,0,9,9,9,1,30,130,,,,,,,,
,,5e9133f704391d46ee2bcb31,65af57c0e8cf4b3e6d33359c,2024-01-23_03h08.49.571,bars,2023.2.3,Win32,60.24096386,657b66ea316d21385b68909f,,,,,,,,,,,1537.6299,1538.6282,,,1539.1279,1539.3776,,20,200,,,,,,,,,,,,,,,,bars/023.png,bars/mask008.png,,,,,,,,,,,,10,1,,,,,,,10,10,10,10,,,,,,,,,,,1538.6282,1539.1278,1539.3776,1541.8918,space,2.498,,1541.8921,0,85,1542.8908,1542.8908,1542.9064,,,,0,10,10,10,1,20,115,,,,,,,,
,,5e9133f704391d46ee2bcb31,65af57c0e8cf4b3e6d33359c,2024-01-23_03h08.49.571,bars,2023.2.3,Win32,60.24096386,657b66ea316d21385b68909f,,,,,,,,,,,1542.9067,1543.9116,,,1544.4059,1544.6558,,147,-33,,,,,,,,,,,,,,,,bars/030.png,bars/mask001.png,,,,,,,,,,,,8,1,,,,,,,10,10,10,9,,,,,,,,,,,1543.9116,1544.4059,1544.6559,1549.9345,space,5.2681,,1549.9346,7,82,1550.9332,1550.9333,1550.9522,,,,0,11,11,11,1,140,65,,,,,,,,
,,5e9133f704391d46ee2bcb31,65af57c0e8cf4b3e6d33359c,2024-01-23_03h08.49.571,bars,2023.2.3,Win32,60.24096386,657b66ea316d21385b68909f,,,,,,,,,,,1550.9525,1551.9486,,,1552.4485,1552.6981,,137,-43,,,,,,,,,,,,,,,,bars/034.png,bars/mask001.png,,,,,,,,,,,,4,1,,,,,,,8,8,7,9,,,,,,,,,,,1551.9488,1552.4485,1552.6981,1556.1782,space,3.4657,,1556.1782,12,72,1557.1771,1557.1772,1557.1855,,,,0,12,12,12,1,125,65,,,,,,,,
,,5e9133f704391d46ee2bcb31,65af57c0e8cf4b3e6d33359c,2024-01-23_03h08.49.571,bars,2023.2.3,Win32,60.24096386,657b66ea316d21385b68909f,,,,,,,,,,,1557.1857,1558.1757,,,1558.6754,1558.925,,124,124,,,,,,,,,,,,,,,,bars/024.png,bars/mask003.png,,,,,,,,,,,,9,1,,,,,,,10,10,10,10,,,,,,,,,,,1558.1757,1558.6754,1558.9252,1561.8725,space,2.932,,1561.8726,4,46,1562.8713,1562.8713,1562.8887,,,,0,13,13,13,1,120,170,,,,,,,,
,,5e9133f704391d46ee2bcb31,65af57c0e8cf4b3e6d33359c,2024-01-23_03h08.49.571,bars,2023.2.3,Win32,60.24096386,657b66ea316d21385b68909f,,,,,,,,,,,1562.8892,1563.887,,,1564.3873,1564.6362,,35,35,,,,,,,,,,,,,,,,bars/028.png,bars/mask007.png,,,,,,,,,,,,7,1,,,,,,,10,10,10,10,,,,,,,,,,,1563.887,1564.3868,1564.6362,1566.5185,space,1.8716,,1566.5187,10,85,1567.5171,1567.5171,1567.5252,,,,0,14,14,14,1,45,120,,,,,,,,
,,5e9133f704391d46ee2bcb31,65af57c0e8cf4b3e6d33359c,2024-01-23_03h08.49.571,bars,2023.2.3,Win32,60.24096386,657b66ea316d21385b68909f,,,,,,,,,,,1567.5252,1568.5159,,,1569.0151,1569.2647,,120,120,,,,,,,,,,,,,,,,bars/031.png,bars/mask001.png,,,,,,,,,,,,8,1,,,,,,,8,8,8,8,,,,,,,,,,,1568.5159,1569.015,1569.2647,1571.0464,space,1.7546,,1571.0465,0,85,1572.0453,1572.0453,1572.048,,,,0,15,15,15,1,120,35,,,,,,,,
,,5e9133f704391d46ee2bcb31,65af57c0e8cf4b3e6d33359c,2024-01-23_03h08.49.571,bars,2023.2.3,Win32,60.24096386,657b66ea316d21385b68909f,,,,,,,,,,,1572.0485,1573.0444,,,1573.544,1573.7938,,82,82,,,,,,,,,,,,,,,,bars/014.png,bars/mask004.png,,,,,,,,,,,,5,1,,,,,,,6,10,5,8,,,,,,,,,,,1573.0444,1573.544,1573.7941,1577.2621,space,3.4472,,1577.2621,2,82,1578.2559,1578.256,1578.275,,,,0,16,16,16,1,80,0,,,,,,,,
,,5e9133f704391d46ee2bcb31,65af57c0e8cf4b3e6d33359c,2024-01-23_03h08.49.571,bars,2023.2.3,Win32,60.24096386,657b66ea316d21385b68909f,,,,,,,,,,,1578.2753,1579.2717,,,1579.7711,1580.0209,,118,118,,,,,,,,,,,,,,,,bars/032.png,bars/mask000.png,,,,,,,,,,,,4,1,,,,,,,4,10,5,10,,,,,,,,,,,1579.2717,1579.7711,1580.0209,1581.553,space,1.5185,,1581.5532,7,82,1582.5518,1582.5518,1582.5543,,,,0,17,17,17,1,125,20,,,,,,,,
,,5e9133f704391d46ee2bcb31,65af57c0e8cf4b3e6d33359c,2024-01-23_03h08.49.571,bars,2023.2.3,Win32,60.24096386,657b66ea316d21385b68909f,,,,,,,,,,,1582.5547,1583.5513,,,1584.0504,1584.3,,119,-61,,,,,,,,,,,,,,,,bars/008.png,bars/mask006.png,,,,,,,,,,,,4,1,,,,,,,6,8,5,9,,,,,,,,,,,1583.5516,1584.0503,1584.3,1589.0787,space,4.7682,,1589.0787,9,61,1590.0777,1590.0777,1590.0972,,,,0,18,18,18,1,110,0,,,,,,,,
,,5e9133f704391d46ee2bcb31,65af57c0e8cf4b3e6d33359c,2024-01-23_03h08.49.571,bars,2023.2.3,Win32,60.24096386,657b66ea316d21385b68909f,,,,,,,,,,,1590.0975,1591.0935,,,1591.5931,1591.8427,,163,163,,,,,,,,,,,,,,,,bars/021.png,bars/mask009.png,,,,,,,,,,,,7,1,,,,,,,8,10,9,10,,,,,,,,,,,1591.0935,1591.5931,1591.8427,1593.4079,space,1.553,,1593.4079,8,87,1594.4068,1594.4069,1594.4101,,,,0,19,19,19,1,155,70,,,,,,,,
,,5e9133f704391d46ee2bcb31,65af57c0e8cf4b3e6d33359c,2024-01-23_03h08.49.571,bars,2023.2.3,Win32,60.24096386,657b66ea316d21385b68909f,,,,,,,,,,,1594.4106,1595.4059,,,1595.9055,1596.155,,21,201,,,,,,,,,,,,,,,,bars/005.png,bars/mask002.png,,,,,,,,,,,,6,1,,,,,,,10,10,10,9,,,,,,,,,,,1595.4059,1595.9054,1596.1551,1598.0877,space,1.9208,,1598.0878,11,61,1599.0856,1599.0857,1599.1085,,,,0,20,20,20,1,10,140,,,,,,,,
,,5e9133f704391d46ee2bcb31,65af57c0e8cf4b3e6d33359c,2024-01-23_03h08.49.571,bars,2023.2.3,Win32,60.24096386,657b66ea316d21385b68909f,,,,,,,,,,,1599.1088,1600.1013,,,1600.6007,1600.8506,,38,218,,,,,,,,,,,,,,,,bars/048.png,bars/mask006.png,,,,,,,,,,,,6,1,,,,,,,10,8,10,8,,,,,,,,,,,1600.1013,1600.6007,1600.8506,1604.1973,space,3.3213,,1604.1973,12,43,1605.1963,1605.1964,1605.2152,,,,0,21,21,21,1,50,175,,,,,,,,
,,5e9133f704391d46ee2bcb31,65af57c0e8cf4b3e6d33359c,2024-01-23_03h08.49.571,bars,2023.2.3,Win32,60.24096386,657b66ea316d21385b68909f,,,,,,,,,,,1605.2155,1606.2118,,,1606.7115,1606.9614,,154,-26,,,,,,,,,,,,,,,,bars/036.png,bars/mask002.png,,,,,,,,,,,,6,1,,,,,,,8,6,8,4,,,,,,,,,,,1606.2118,1606.7114,1606.9614,1609.3922,space,2.4181,,1609.3922,9,46,1610.3912,1610.3912,1610.411,,,,0,22,22,22,1,145,20,,,,,,,,
,,5e9133f704391d46ee2bcb31,65af57c0e8cf4b3e6d33359c,2024-01-23_03h08.49.571,bars,2023.2.3,Win32,60.24096386,657b66ea316d21385b68909f,,,,,,,,,,,1610.4113,1611.4069,,,1611.9064,1612.1604,,147,147,,,,,,,,,,,,,,,,bars/017.png,bars/mask003.png,,,,,,,,,,,,5,1,,,,,,,6,4,5,4,,,,,,,,,,,1611.4069,1611.9064,1612.1605,1615.8035,space,3.6291,,1615.8038,2,78,1616.8016,1616.8016,1616.8223,,,,0,23,23,23,1,145,45,,,,,,,,
,,5e9133f704391d46ee2bcb31,65af57c0e8cf4b3e6d33359c,2024-01-23_03h08.49.571,bars,2023.2.3,Win32,60.24096386,657b66ea316d21385b68909f,,,,,,,,,,,1616.8225,1617.8174,,,1618.3168,1618.5665,,157,-23,,,,,,,,,,,,,,,,bars/021.png,bars/mask008.png,,,,,,,,,,,,7,1,,,,,,,8,6,8,7,,,,,,,,,,,1617.8176,1618.3168,1618.5665,1620.7981,space,2.1994,,1620.7982,2,87,1621.7973,1621.7975,1621.8145,,,,0,24,24,24,1,155,70,,,,,,,,
,,5e9133f704391d46ee2bcb31,65af57c0e8cf4b3e6d33359c,2024-01-23_03h08.49.571,bars,2023.2.3,Win32,60.24096386,657b66ea316d21385b68909f,,,,,,,,,,,1621.8153,1622.8134,,,1623.317,1623.5622,,66,66,,,,,,,,,,,,,,,,bars/048.png,bars/mask006.png,,,,,,,,,,,,3,1,,,,,,,6,8,7,7,,,,,,,,,,,1622.8135,1623.3169,1623.5623,1626.0264,space,2.4418,,1626.0265,16,71,1627.025,1627.025,1627.0406,,,,0,25,25,25,1,50,175,,,,,,,,
,,5e9133f704391d46ee2bcb31,65af57c0e8cf4b3e6d33359c,2024-01-23_03h08.49.571,bars,2023.2.3,Win32,60.24096386,657b66ea316d21385b68909f,,,,,,,,,,,1627.0407,1628.0407,,,1628.5447,1628.7906,,32,32,,,,,,,,,,,,,,,,bars/017.png,bars/mask001.png,,,,,,,,,,,,6,2,,,,,,,8,10,8,10,,,,,,,,,,,1628.0407,1628.5447,1628.7907,1630.1619,space,1.352,,1630.1619,67,13,1631.1544,1631.1544,1631.1737,,,,0,26,26,26,1,145,45,,,,,,,,
,,5e9133f704391d46ee2bcb31,65af57c0e8cf4b3e6d33359c,2024-01-23_03h08.49.571,bars,2023.2.3,Win32,60.24096386,657b66ea316d21385b68909f,,,,,,,,,,,1631.1741,1632.1745,,,1632.6698,1632.9196,,10,10,,,,,,,,,,,,,,,,bars/040.png,bars/mask007.png,,,,,,,,,,,,8,2,,,,,,,6,10,6,10,,,,,,,,,,,1632.1745,1632.6698,1632.9196,1635.9666,space,3.0374,,1635.9667,50,5,1636.9652,1636.9653,1636.9809,,,,0,27,27,27,1,140,5,,,,,,,,
,,5e9133f704391d46ee2bcb31,65af57c0e8cf4b3e6d33359c,2024-01-23_03h08.49.571,bars,2023.2.3,Win32,60.24096386,657b66ea316d21385b68909f,,,,,,,,,,,1636.9813,1637.981,,,1638.4806,1638.7304,,161,161,,,,,,,,,,,,,,,,bars/003.png,bars/mask002.png,,,,,,,,,,,,3,2,,,,,,,8,10,9,10,,,,,,,,,,,1637.9812,1638.4806,1638.7304,1641.0948,space,2.3527,,1641.0949,44,21,1642.0935,1642.0936,1642.1093,,,,0,28,28,28,1,25,140,,,,,,,,
,,5e9133f704391d46ee2bcb31,65af57c0e8cf4b3e6d33359c,2024-01-23_03h08.49.571,bars,2023.2.3,Win32,60.24096386,657b66ea316d21385b68909f,,,,,,,,,,,1642.1096,1643.1097,,,1643.5976,1643.8419,,5,185,,,,,,,,,,,,,,,,bars/045.png,bars/mask004.png,,,,,,,,,,,,8,2,,,,,,,10,10,10,10,,,,,,,,,,,1643.1098,1643.5976,1643.842,1647.7554,space,3.898,,1647.7554,85,5,1648.7536,1648.7536,1648.77,,,,0,29,29,29,1,100,10,,,,,,,,
,,5e9133f704391d46ee2bcb31,65af57c0e8cf4b3e6d33359c,2024-01-23_03h08.49.571,bars,2023.2.3,Win32,60.24096386,657b66ea316d21385b68909f,,,,,,,,,,,1648.7703,1649.7694,,,1650.273,1650.5187,,175,-5,,,,,,,,,,,,,,,,bars/024.png,bars/mask005.png,,,,,,,,,,,,6,2,,,,,,,8,8,9,7,,,,,,,,,,,1649.7694,1650.273,1650.5187,1654.5818,space,4.0521,,1654.5819,55,5,1655.581,1655.581,1655.5892,,,,0,30,30,30,1,120,170,,,,,,,,
,,5e9133f704391d46ee2bcb31,65af57c0e8cf4b3e6d33359c,2024-01-23_03h08.49.571,bars,2023.2.3,Win32,60.24096386,657b66ea316d21385b68909f,,,,,,,,,,,1655.5894,1656.5797,,,1657.0789,1657.3286,,96,96,,,,,,,,,,,,,,,,bars/026.png,bars/mask008.png,,,,,,,,,,,,5,2,,,,,,,10,6,8,8,,,,,,,,,,,1656.5797,1657.0788,1657.3287,1659.8767,space,2.5389,,1659.8768,61,11,1660.8758,1660.876,1660.8934,,,,0,31,31,31,1,35,85,,,,,,,,
,,5e9133f704391d46ee2bcb31,65af57c0e8cf4b3e6d33359c,2024-01-23_03h08.49.571,bars,2023.2.3,Win32,60.24096386,657b66ea316d21385b68909f,,,,,,,,,,,1660.8939,1661.8908,,,1662.3902,1662.64,,125,125,,,,,,,,,,,,,,,,bars/004.png,bars/mask002.png,,,,,,,,,,,,9,2,,,,,,,10,8,10,9,,,,,,,,,,,1661.8911,1662.3902,1662.6401,1666.8037,space,4.147,,1666.8039,80,0,1667.8016,1667.8016,1667.8176,,,,0,32,32,32,1,25,125,,,,,,,,
,,5e9133f704391d46ee2bcb31,65af57c0e8cf4b3e6d33359c,2024-01-23_03h08.49.571,bars,2023.2.3,Win32,60.24096386,657b66ea316d21385b68909f,,,,,,,,,,,1667.8179,1668.8175,,,1669.3169,1669.5664,,174,-6,,,,,,,,,,,,,,,,bars/015.png,bars/mask001.png,,,,,,,,,,,,5,2,,,,,,,10,10,10,10,,,,,,,,,,,1668.8175,1669.3169,1669.5665,1671.5706,space,1.9981,,1671.5706,64,14,1672.5638,1672.5639,1672.5658,,,,0,33,33,33,1,110,160,,,,,,,,
,,5e9133f704391d46ee2bcb31,65af57c0e8cf4b3e6d33359c,2024-01-23_03h08.49.571,bars,2023.2.3,Win32,60.24096386,657b66ea316d21385b68909f,,,,,,,,,,,1672.5662,1673.5628,,,1674.0623,1674.3121,,2,182,,,,,,,,,,,,,,,,bars/040.png,bars/mask000.png,,,,,,,,,,,,8,2,,,,,,,8,8,7,9,,,,,,,,,,,1673.5628,1674.0623,1674.3121,1678.592,space,4.2643,,1678.5921,42,3,1679.5913,1679.5915,1679.6101,,,,0,34,34,34,1,140,5,,,,,,,,
,,5e9133f704391d46ee2bcb31,65af57c0e8cf4b3e6d33359c,2024-01-23_03h08.49.571,bars,2023.2.3,Win32,60.24096386,657b66ea316d21385b68909f,,,,,,,,,,,1679.6103,1680.6057,,,1681.1053,1681.355,,9,9,,,,,,,,,,,,,,,,bars/036.png,bars/mask009.png,,,,,,,,,,,,6,2,,,,,,,6,10,6,9,,,,,,,,,,,1680.6057,1681.1053,1681.3551,1684.0524,space,2.6724,,1684.0525,44,11,1685.0516,1685.0516,1685.0705,,,,0,35,35,35,1,145,20,,,,,,,,
,,5e9133f704391d46ee2bcb31,65af57c0e8cf4b3e6d33359c,2024-01-23_03h08.49.571,bars,2023.2.3,Win32,60.24096386,657b66ea316d21385b68909f,,,,,,,,,,,1685.0709,1686.0672,,,1686.5666,1686.8219,,96,96,,,,,,,,,,,,,,,,bars/006.png,bars/mask002.png,,,,,,,,,,,,5,2,,,,,,,4,8,3,6,,,,,,,,,,,1686.0672,1686.5665,1686.8219,1690.9797,space,4.1323,,1690.9798,61,4,1691.9781,1691.9781,1691.9945,,,,0,36,36,36,1,35,100,,,,,,,,
,,5e9133f704391d46ee2bcb31,65af57c0e8cf4b3e6d33359c,2024-01-23_03h08.49.571,bars,2023.2.3,Win32,60.24096386,657b66ea316d21385b68909f,,,,,,,,,,,1691.995,1692.9938,,,1693.4935,1693.7431,,69,69,,,,,,,,,,,,,,,,bars/010.png,bars/mask008.png,,,,,,,,,,,,5,2,,,,,,,6,10,6,10,,,,,,,,,,,1692.9938,1693.4934,1693.7434,1696.1248,space,2.3647,,1696.1249,84,14,1697.1235,1697.1235,1697.1342,,,,0,37,37,37,1,165,55,,,,,,,,
,,5e9133f704391d46ee2bcb31,65af57c0e8cf4b3e6d33359c,2024-01-23_03h08.49.571,bars,2023.2.3,Win32,60.24096386,657b66ea316d21385b68909f,,,,,,,,,,,1697.1343,1698.1219,,,1698.6215,1698.8718,,83,83,,,,,,,,,,,,,,,,bars/021.png,bars/mask008.png,,,,,,,,,,,,6,2,,,,,,,8,10,10,10,,,,,,,,,,,1698.1219,1698.6215,1698.8719,1702.8071,space,3.9294,,1702.8071,72,13,1703.8002,1703.8002,1703.8186,,,,0,38,38,38,1,155,70,,,,,,,,
,,5e9133f704391d46ee2bcb31,65af57c0e8cf4b3e6d33359c,2024-01-23_03h08.49.571,bars,2023.2.3,Win32,60.24096386,657b66ea316d21385b68909f,,,,,,,,,,,1703.8189,1704.8157,,,1705.3179,1705.565,,178,178,,,,,,,,,,,,,,,,bars/008.png,bars/mask000.png,,,,,,,,,,,,7,2,,,,,,,10,8,9,7,,,,,,,,,,,1704.8159,1705.3179,1705.565,1707.8461,space,2.2699,,1707.8461,68,2,1708.845,1708.845,1708.8475,,,,0,39,39,39,1,110,0,,,,,,,,
,,5e9133f704391d46ee2bcb31,65af57c0e8cf4b3e6d33359c,2024-01-23_03h08.49.571,bars,2023.2.3,Win32,60.24096386,657b66ea316d21385b68909f,,,,,,,,,,,1708.8479,1709.8436,,,1710.3435,1710.5931,,41,221,,,,,,,,,,,,,,,,bars/017.png,bars/mask007.png,,,,,,,,,,,,4,2,,,,,,,10,6,9,5,,,,,,,,,,,1709.8436,1710.3435,1710.5931,1713.4623,space,2.8475,,1713.4624,76,4,1714.4566,1714.4568,1714.473,,,,0,40,40,40,1,145,45,,,,,,,,
,,5e9133f704391d46ee2bcb31,65af57c0e8cf4b3e6d33359c,2024-01-23_03h08.49.571,bars,2023.2.3,Win32,60.24096386,657b66ea316d21385b68909f,,,,,,,,,,,1714.4738,1715.477,,,1715.9722,1716.2215,,91,91,,,,,,,,,,,,,,,,bars/018.png,bars/mask008.png,,,,,,,,,,,,5,2,,,,,,,10,4,9,5,,,,,,,,,,,1715.477,1715.972,1716.2216,1720.2673,space,4.0309,,1720.2673,59,1,1721.2663,1721.2664,1721.282,,,,0,41,41,41,1,150,90,,,,,,,,
,,5e9133f704391d46ee2bcb31,65af57c0e8cf4b3e6d33359c,2024-01-23_03h08.49.571,bars,2023.2.3,Win32,60.24096386,657b66ea316d21385b68909f,,,,,,,,,,,1721.2824,1722.282,,,1722.782,1723.031,,69,249,,,,,,,,,,,,,,,,bars/035.png,bars/mask003.png,,,,,,,,,,,,1,2,,,,,,,8,2,10,2,,,,,,,,,,,1722.2821,1722.7819,1723.031,1727.4768,space,4.437,,1727.4769,74,9,1728.4756,1728.4757,1728.4943,,,,0,42,42,42,1,175,60,,,,,,,,
,,5e9133f704391d46ee2bcb31,65af57c0e8cf4b3e6d33359c,2024-01-23_03h08.49.571,bars,2023.2.3,Win32,60.24096386,657b66ea316d21385b68909f,,,,,,,,,,,1728.4947,1729.4912,,,1729.9907,1730.2405,,47,227,,,,,,,,,,,,,,,,bars/019.png,bars/mask000.png,,,,,,,,,,,,6,1,,,,,,,6,4,6,3,,,,,,,,,,,1729.4913,1729.9907,1730.2406,1733.9041,space,3.6503,,1733.9042,2,58,1734.8917,1734.8917,1734.9098,,,,0,43,43,43,1,45,105,,,,,,,,
,,5e9133f704391d46ee2bcb31,65af57c0e8cf4b3e6d33359c,2024-01-23_03h08.49.571,bars,2023.2.3,Win32,60.24096386,657b66ea316d21385b68909f,,,,,,,,,,,1734.9101,1735.9024,,,1736.4022,1736.651,,104,104,,,,,,,,,,,,,,,,bars/012.png,bars/mask006.png,,,,,,,,,,,,2,1,,,,,,,4,2,4,4,,,,,,,,,,,1735.9025,1736.4021,1736.651,1738.1002,space,1.4343,,1738.1005,14,89,1739.0991,1739.0992,1739.1173,,,,0,44,44,44,1,90,15,,,,,,,,
,,5e9133f704391d46ee2bcb31,65af57c0e8cf4b3e6d33359c,2024-01-23_03h08.49.571,bars,2023.2.3,Win32,60.24096386,657b66ea316d21385b68909f,,,,,,,,,,,1739.1176,1740.1178,,,1740.6139,1740.8516,,115,115,,,,,,,,,,,,,,,,bars/025.png,bars/mask009.png,,,,,,,,,,,,1,1,,,,,,,2,0,2,2,,,,,,,,,,,1740.1178,1740.6139,1740.8517,1744.9102,space,4.0324,,1744.9103,10,75,1745.9091,1745.9091,1745.9172,,,,0,45,45,45,1,105,40,,,,,,,,
,,5e9133f704391d46ee2bcb31,65af57c0e8cf4b3e6d33359c,2024-01-23_03h08.49.571,bars,2023.2.3,Win32,60.24096386,657b66ea316d21385b68909f,,,,,,,,,,,1745.9175,1746.9081,,,1747.4069,1747.657,,112,112,,,,,,,,,,,,,,,,bars/027.png,bars/mask004.png,,,,,,,,,,,,5,1,,,,,,,4,0,5,0,,,,,,,,,,,1746.9081,1747.4069,1747.657,1750.2218,space,2.5543,,1750.222,2,62,1751.2206,1751.2207,1751.239,,,,0,46,46,46,1,110,50,,,,,,,,
,,5e9133f704391d46ee2bcb31,65af57c0e8cf4b3e6d33359c,2024-01-23_03h08.49.571,bars,2023.2.3,Win32,60.24096386,657b66ea316d21385b68909f,,,,,,,,,,,1751.2393,1752.2408,,,1752.7358,1752.9849,,97,97,,,,,,,,,,,,,,,,bars/022.png,bars/mask007.png,,,,,,,,,,,,3,1,,,,,,,2,2,3,3,,,,,,,,,,,1752.2408,1752.7358,1752.9849,1755.4002,space,2.3983,,1755.4004,2,77,1756.3986,1756.3988,1756.4142,,,,0,47,47,47,1,95,20,,,,,,,,
,,5e9133f704391d46ee2bcb31,65af57c0e8cf4b3e6d33359c,2024-01-23_03h08.49.571,bars,2023.2.3,Win32,60.24096386,657b66ea316d21385b68909f,,,,,,,,,,,1756.4147,1757.4142,,,1757.9136,1758.1638,,33,33,,,,,,,,,,,,,,,,bars/025.png,bars/mask002.png,,,,,,,,,,,,2,2,,,,,,,0,4,0,3,,,,,,,,,,,1757.4143,1757.9136,1758.1638,1760.0125,space,1.8322,,1760.0127,72,7,1761.011,1761.0111,1761.014,,,,0,48,48,48,1,105,40,,,,,,,,
,,5e9133f704391d46ee2bcb31,65af57c0e8cf4b3e6d33359c,2024-01-23_03h08.49.571,bars,2023.2.3,Win32,60.24096386,657b66ea316d21385b68909f,,,,,,,,,,,1761.0143,1762.0099,,,1762.5096,1762.7588,,106,106,,,,,,,,,,,,,,,,bars/039.png,bars/mask006.png,,,,,,,,,,,,2,2,,,,,,,0,2,1,2,,,,,,,,,,,1762.01,1762.5096,1762.7588,1765.1404,space,2.3658,,1765.1404,69,1,1766.1393,1766.1393,1766.1552,,,,0,49,49,49,1,175,105,,,,,,,,
,,5e9133f704391d46ee2bcb31,65af57c0e8cf4b3e6d33359c,2024-01-23_03h08.49.571,bars,2023.2.3,Win32,60.24096386,657b66ea316d21385b68909f,,,,,,,,,,,,,,,,,,,,,,,,,,,,,,,,,,,,,,,,,,,,,,,,,,,,,,,,,,,,,,,,,,,,,,,,,,,,,,,,,,,,,,,,,,,,,1766.1554,1826.1468,0,3,3,3,1,sequence_tables/blk039.csv
,,5e9133f704391d46ee2bcb31,65af57c0e8cf4b3e6d33359c,2024-01-23_03h08.49.571,bars,2023.2.3,Win32,60.24096386,657b66ea316d21385b68909f,,,,,,,,,,,1828.701,1829.6933,,,1830.1931,1830.4426,,45,45,,,,,,,,,,,,,,,,bars/025.png,bars/mask008.png,,,,,,,,,,,,7,2,,,,,,,5,7,6,8,,,,,,1826.1666,1828.6946,space,2.512,,1829.6934,1830.1929,1830.4428,1832.3799,space,1.9153,,1832.38,60,5,1833.3733,1833.3734,1833.3751,,,,0,0,0,0,1,105,40,,,,,,,,
,,5e9133f704391d46ee2bcb31,65af57c0e8cf4b3e6d33359c,2024-01-23_03h08.49.571,bars,2023.2.3,Win32,60.24096386,657b66ea316d21385b68909f,,,,,,,,,,,1833.3754,1834.3719,,,1834.8715,1835.1223,,32,32,,,,,,,,,,,,,,,,bars/007.png,bars/mask000.png,,,,,,,,,,,,2,2,,,,,,,7,9,5,8,,,,,,,,,,,1834.372,1834.8715,1835.1225,1836.9362,space,1.7857,,1836.9362,37,23,1837.9355,1837.9357,1837.9377,,,,0,1,1,1,1,175,55,,,,,,,,
,,5e9133f704391d46ee2bcb31,65af57c0e8cf4b3e6d33359c,2024-01-23_03h08.49.571,bars,2023.2.3,Win32,60.24096386,657b66ea316d21385b68909f,,,,,,,,,,,1837.938,1838.9341,,,1839.4346,1839.684,,32,32,,,,,,,,,,,,,,,,bars/010.png,bars/mask001.png,,,,,,,,,,,,2,2,,,,,,,5,10,4,10,,,,,,,,,,,1838.9342,1839.4346,1839.684,1841.4818,space,1.7912,,1841.4818,47,23,1842.4808,1842.4808,1842.4969,,,,0,2,2,2,1,165,55,,,,,,,,
,,5e9133f704391d46ee2bcb31,65af57c0e8cf4b3e6d33359c,2024-01-23_03h08.49.571,bars,2023.2.3,Win32,60.24096386,657b66ea316d21385b68909f,,,,,,,,,,,1842.4971,1843.4964,,,1843.9962,1844.2511,,60,60,,,,,,,,,,,,,,,,bars/019.png,bars/mask006.png,,,,,,,,,,,,1,1,,,,,,,3,10,2,9,,,,,,,,,,,1843.4966,1843.9962,1844.2511,1845.6782,space,1.4172,,1845.6783,15,45,1846.6819,1846.6819,1846.699,,,,0,3,3,3,1,45,105,,,,,,,,
,,5e9133f704391d46ee2bcb31,65af57c0e8cf4b3e6d33359c,2024-01-23_03h08.49.571,bars,2023.2.3,Win32,60.24096386,657b66ea316d21385b68909f,,,,,,,,,,,1846.6992,1847.6925,,,1848.1924,1848.4303,,124,124,,,,,,,,,,,,,,,,bars/039.png,bars/mask007.png,,,,,,,,,,,,4,2,,,,,,,1,10,0,10,,,,,,,,,,,1847.6925,1848.1922,1848.4303,1851.4391,space,2.9982,,1851.4393,51,19,1852.4377,1852.4377,1852.4548,,,,0,4,4,4,1,175,105,,,,,,,,
,,5e9133f704391d46ee2bcb31,65af57c0e8cf4b3e6d33359c,2024-01-23_03h08.49.571,bars,2023.2.3,Win32,60.24096386,657b66ea316d21385b68909f,,,,,,,,,,,1852.4555,1853.4535,,,1853.953,1854.2026,,118,118,,,,,,,,,,,,,,,,bars/049.png,bars/mask004.png,,,,,,,,,,,,9,2,,,,,,,0,10,1,10,,,,,,,,,,,1853.4535,1853.953,1854.2027,1855.7684,space,1.5494,,1855.7684,42,3,1856.7667,1856.7667,1856.7747,,,,0,5,5,5,1,160,115,,,,,,,,
,,5e9133f704391d46ee2bcb31,65af57c0e8cf4b3e6d33359c,2024-01-23_03h08.49.571,bars,2023.2.3,Win32,60.24096386,657b66ea316d21385b68909f,,,,,,,,,,,1856.7749,1857.7657,,,1858.2658,1858.5154,,15,195,,,,,,,,,,,,,,,,bars/032.png,bars/mask009.png,,,,,,,,,,,,8,2,,,,,,,2,8,1,10,,,,,,,,,,,1857.7657,1858.2658,1858.5155,1861.0354,space,2.5136,,1861.0354,70,5,1862.0281,1862.0282,1862.0308,,,,0,6,6,6,1,125,20,,,,,,,,
,,5e9133f704391d46ee2bcb31,65af57c0e8cf4b3e6d33359c,2024-01-23_03h08.49.571,bars,2023.2.3,Win32,60.24096386,657b66ea316d21385b68909f,,,,,,,,,,,1862.0312,1863.0273,,,1863.5268,1863.7766,,15,195,,,,,,,,,,,,,,,,bars/036.png,bars/mask004.png,,,,,,,,,,,,4,2,,,,,,,0,6,0,5,,,,,,,,,,,1863.0273,1863.5268,1863.7766,1868.6219,space,4.8289,,1868.622,50,5,1869.6209,1869.6209,1869.6405,,,,0,7,7,7,1,145,20,,,,,,,,
,,5e9133f704391d46ee2bcb31,65af57c0e8cf4b3e6d33359c,2024-01-23_03h08.49.571,bars,2023.2.3,Win32,60.24096386,657b66ea316d21385b68909f,,,,,,,,,,,1869.641,1870.6365,,,1871.1361,1871.3858,,165,165,,,,,,,,,,,,,,,,bars/016.png,bars/mask009.png,,,,,,,,,,,,7,2,,,,,,,0,8,1,7,,,,,,,,,,,1870.6365,1871.136,1871.3858,1872.9343,space,1.5333,,1872.9344,55,0,1873.9332,1873.9333,1873.9359,,,,0,8,8,8,1,40,165,,,,,,,,
,,5e9133f704391d46ee2bcb31,65af57c0e8cf4b3e6d33359c,2024-01-23_03h08.49.571,bars,2023.2.3,Win32,60.24096386,657b66ea316d21385b68909f,,,,,,,,,,,1873.9362,1874.9323,,,1875.4317,1875.6817,,178,-2,,,,,,,,,,,,,,,,bars/045.png,bars/mask003.png,,,,,,,,,,,,3,2,,,,,,,0,6,0,5,,,,,,,,,,,1874.9323,1875.4317,1875.6819,1878.329,space,2.6182,,1878.3291,78,12,1879.3279,1879.328,1879.3485,,,,0,9,9,9,1,100,10,,,,,,,,
,,5e9133f704391d46ee2bcb31,65af57c0e8cf4b3e6d33359c,2024-01-23_03h08.49.571,bars,2023.2.3,Win32,60.24096386,657b66ea316d21385b68909f,,,,,,,,,,,1879.3488,1880.3437,,,1880.843,1881.0929,,163,-17,,,,,,,,,,,,,,,,bars/003.png,bars/mask009.png,,,,,,,,,,,,2,2,,,,,,,0,8,1,8,,,,,,,,,,,1880.3437,1880.843,1881.0929,1883.7078,space,2.5994,,1883.708,42,23,1884.706,1884.706,1884.7258,,,,0,10,10,10,1,25,140,,,,,,,,
,,5e9133f704391d46ee2bcb31,65af57c0e8cf4b3e6d33359c,2024-01-23_03h08.49.571,bars,2023.2.3,Win32,60.24096386,657b66ea316d21385b68909f,,,,,,,,,,,1884.7261,1885.7217,,,1886.2212,1886.471,,20,20,,,,,,,,,,,,,,,,bars/013.png,bars/mask009.png,,,,,,,,,,,,7,2,,,,,,,0,10,0,10,,,,,,,,,,,1885.7218,1886.2212,1886.471,1889.3237,space,2.8472,,1889.3238,55,10,1890.3172,1890.3173,1890.3372,,,,0,11,11,11,1,75,10,,,,,,,,
,,5e9133f704391d46ee2bcb31,65af57c0e8cf4b3e6d33359c,2024-01-23_03h08.49.571,bars,2023.2.3,Win32,60.24096386,657b66ea316d21385b68909f,,,,,,,,,,,1890.3375,1891.333,,,1891.8323,1892.0822,,151,-29,,,,,,,,,,,,,,,,bars/023.png,bars/mask005.png,,,,,,,,,,,,0,2,,,,,,,0,8,0,8,,,,,,,,,,,1891.3333,1891.8323,1892.0822,1895.0459,space,2.9476,,1895.0462,49,36,1896.0449,1896.0449,1896.0642,,,,0,12,12,12,1,20,115,,,,,,,,
