init_variables.started,init_variables.stopped,participant,session,date,expName,psychopyVersion,OS,frameRate,study_id,instruction_exp.started,instruction_exp.stopped,key_resp_8.keys,key_resp_8.rt,key_resp_8.duration,instruction_single.started,instruction_single.stopped,key_resp_2.keys,key_resp_2.rt,key_resp_2.duration,interval.started,interval.stopped,cue_single.started,cue_single.stopped,mask.started,mask.stopped,ori_response_single.started,res_ori,res,ori_response_single.stopped,key_resp_single.keys,key_resp_single.rt,key_resp_single.duration,disp_single.started,disp_single.stopped,key_resp.keys,key_resp.rt,key_resp.duration,single.thisRepN,single.thisTrialN,single.thisN,single.thisIndex,single.ran,ori,path,mask_path,instruction_bandit.started,instruction_bandit.stopped,key_resp_6.keys,key_resp_6.rt,key_resp_6.duration,cue_bandit.started,cue_bandit.stopped,bandit_res.keys,bandit_res.rt,bandit_res.duration,outcome_bandit.started,rew,action,outcome_bandit.stopped,bandit.thisRepN,bandit.thisTrialN,bandit.thisN,bandit.thisIndex,bandit.ran,actual_rew1,actual_rew2,rew1,rew2,instruction_task.started,instruction_task.stopped,key_resp_7.keys,key_resp_7.rt,key_resp_7.duration,wait_ready.started,wait_ready.stopped,key_resp_3.keys,key_resp_3.rt,key_resp_3.duration,cue.started,cue.stopped,ori_response.started,ori_response.stopped,key_resp_5.keys,key_resp_5.rt,key_resp_5.duration,outcome.started,diff1,diff2,outcome.stopped,disp_outcome_practice.started,disp_outcome_practice.stopped,key_resp_4.keys,key_resp_4.rt,key_resp_4.duration,trials.thisRepN,trials.thisTrialN,trials.thisN,trials.thisIndex,trials.ran,ori1,ori2,break_blk.started,break_blk.stopped,block.thisRepN,block.thisTrialN,block.thisN,block.thisIndex,block.ran,condition_file
0.0004,0.0006,6164bf85b5dfa5ddff6da08d,65af55118f4b972623180b73,2024-01-23_07h58.18.694,bars,2023.2.3,MacIntel,29.94011976,657b66ea316d21385b68909f,,,,,,,,,,,,,,,,,,,,,,,,,,,,,,,,,,,,,,,,,,,,,,,,,,,,,,,,,,,,,,,,,,,,,,,,,,,,,,,,,,,,,,,,,,,,,,,,,,,,
,,6164bf85b5dfa5ddff6da08d,65af55118f4b972623180b73,2024-01-23_07h58.18.694,bars,2023.2.3,MacIntel,29.94011976,657b66ea316d21385b68909f,0.0007,7.6288,y,7.6195,,,,,,,,,,,,,,,,,,,,,,,,,,,,,,,,,,,,,,,,,,,,,,,,,,,,,,,,,,,,,,,,,,,,,,,,,,,,,,,,,,,,,,,,,,,,,,,,
,,6164bf85b5dfa5ddff6da08d,65af55118f4b972623180b73,2024-01-23_07h58.18.694,bars,2023.2.3,MacIntel,29.94011976,657b66ea316d21385b68909f,,,,,,7.6289,128.926,space,121.2832,,,,,,,,,,,,,,,,,,,,,,,,,,,,,,,,,,,,,,,,,,,,,,,,,,,,,,,,,,,,,,,,,,,,,,,,,,,,,,,,,,,,,,,,,,,
,,6164bf85b5dfa5ddff6da08d,65af55118f4b972623180b73,2024-01-23_07h58.18.694,bars,2023.2.3,MacIntel,29.94011976,657b66ea316d21385b68909f,,,,,,,,,,,128.9321,129.9285,129.9287,130.4268,130.4269,130.6601,130.6605,150,150,138.8962,space,8.1889,,138.8966,147.397,space,8.4447,,0,0,0,1,1,20,bars/single001.png,bars/mask006.png,,,,,,,,,,,,,,,,,,,,,,,,,,,,,,,,,,,,,,,,,,,,,,,,,,,,,,,,,,,,,,,,
,,6164bf85b5dfa5ddff6da08d,65af55118f4b972623180b73,2024-01-23_07h58.18.694,bars,2023.2.3,MacIntel,29.94011976,657b66ea316d21385b68909f,,,,,,,,,,,147.4109,148.3956,148.3957,148.894,148.8941,149.1293,149.1293,56,56,151.5606,space,2.3995,,151.5607,163.9295,space,12.3324,,0,1,1,8,1,160,bars/single008.png,bars/mask004.png,,,,,,,,,,,,,,,,,,,,,,,,,,,,,,,,,,,,,,,,,,,,,,,,,,,,,,,,,,,,,,,,
,,6164bf85b5dfa5ddff6da08d,65af55118f4b972623180b73,2024-01-23_07h58.18.694,bars,2023.2.3,MacIntel,29.94011976,657b66ea316d21385b68909f,,,,,,,,,,,163.9419,164.9293,164.9293,165.4288,165.4289,165.6605,165.6606,89,89,171.0632,space,5.3693,,171.0633,181.8262,space,10.7172,,0,2,2,9,1,20,bars/single009.png,bars/mask006.png,,,,,,,,,,,,,,,,,,,,,,,,,,,,,,,,,,,,,,,,,,,,,,,,,,,,,,,,,,,,,,,,
,,6164bf85b5dfa5ddff6da08d,65af55118f4b972623180b73,2024-01-23_07h58.18.694,bars,2023.2.3,MacIntel,29.94011976,657b66ea316d21385b68909f,,,,,,,,,,,181.8399,182.8284,182.8285,183.3306,183.3306,183.5637,183.5638,12,12,186.1629,space,2.5677,,186.163,188.3288,space,2.1169,,0,3,3,7,1,45,bars/single007.png,bars/mask009.png,,,,,,,,,,,,,,,,,,,,,,,,,,,,,,,,,,,,,,,,,,,,,,,,,,,,,,,,,,,,,,,,
,,6164bf85b5dfa5ddff6da08d,65af55118f4b972623180b73,2024-01-23_07h58.18.694,bars,2023.2.3,MacIntel,29.94011976,657b66ea316d21385b68909f,,,,,,,,,,,188.3296,189.3271,189.3271,189.829,189.8291,190.0626,190.0627,168,168,192.9939,space,2.9028,,192.9939,196.0627,space,3.0456,,0,4,4,6,1,175,bars/single006.png,bars/mask005.png,,,,,,,,,,,,,,,,,,,,,,,,,,,,,,,,,,,,,,,,,,,,,,,,,,,,,,,,,,,,,,,,
,,6164bf85b5dfa5ddff6da08d,65af55118f4b972623180b73,2024-01-23_07h58.18.694,bars,2023.2.3,MacIntel,29.94011976,657b66ea316d21385b68909f,,,,,,,,,,,196.0753,197.063,197.063,197.5633,197.5635,197.7967,197.7967,4,4,199.8965,space,2.0883,,199.8966,201.2633,space,1.3365,,0,5,5,0,1,150,bars/single000.png,bars/mask006.png,,,,,,,,,,,,,,,,,,,,,,,,,,,,,,,,,,,,,,,,,,,,,,,,,,,,,,,,,,,,,,,,
,,6164bf85b5dfa5ddff6da08d,65af55118f4b972623180b73,2024-01-23_07h58.18.694,bars,2023.2.3,MacIntel,29.94011976,657b66ea316d21385b68909f,,,,,,,,,,,201.264,202.2628,202.2628,202.7627,202.7628,202.9959,202.9959,89,89,205.5638,space,2.5557,,205.5638,208.1641,space,2.5688,,0,6,6,5,1,55,bars/single005.png,bars/mask008.png,,,,,,,,,,,,,,,,,,,,,,,,,,,,,,,,,,,,,,,,,,,,,,,,,,,,,,,,,,,,,,,,
,,6164bf85b5dfa5ddff6da08d,65af55118f4b972623180b73,2024-01-23_07h58.18.694,bars,2023.2.3,MacIntel,29.94011976,657b66ea316d21385b68909f,,,,,,,,,,,208.1768,209.1637,209.1638,209.6597,209.6597,209.8934,209.8935,91,91,210.7285,space,0.8032,,210.7285,212.8291,space,2.0698,,0,7,7,4,1,95,bars/single004.png,bars/mask004.png,,,,,,,,,,,,,,,,,,,,,,,,,,,,,,,,,,,,,,,,,,,,,,,,,,,,,,,,,,,,,,,,
,,6164bf85b5dfa5ddff6da08d,65af55118f4b972623180b73,2024-01-23_07h58.18.694,bars,2023.2.3,MacIntel,29.94011976,657b66ea316d21385b68909f,,,,,,,,,,,212.8298,213.8307,213.8307,214.3314,214.3314,214.5632,214.5633,107,107,216.198,space,1.6169,,216.1981,220.4302,space,4.1977,,0,8,8,2,1,145,bars/single002.png,bars/mask003.png,,,,,,,,,,,,,,,,,,,,,,,,,,,,,,,,,,,,,,,,,,,,,,,,,,,,,,,,,,,,,,,,
,,6164bf85b5dfa5ddff6da08d,65af55118f4b972623180b73,2024-01-23_07h58.18.694,bars,2023.2.3,MacIntel,29.94011976,657b66ea316d21385b68909f,,,,,,,,,,,220.4429,221.4309,221.4309,221.9303,221.9304,222.1614,222.1614,80,80,223.5967,space,1.4282,,223.5967,225.3307,space,1.7083,,0,9,9,3,1,20,bars/single003.png,bars/mask005.png,,,,,,,,,,,,,,,,,,,,,,,,,,,,,,,,,,,,,,,,,,,,,,,,,,,,,,,,,,,,,,,,
,,6164bf85b5dfa5ddff6da08d,65af55118f4b972623180b73,2024-01-23_07h58.18.694,bars,2023.2.3,MacIntel,29.94011976,657b66ea316d21385b68909f,,,,,,,,,,,,,,,,,,,,,,,,,,,,,,,,,,,,,225.3313,238.3978,space,13.0439,,,,,,,,,,,,,,,,,,,,,,,,,,,,,,,,,,,,,,,,,,,,,,,,,,,,,,,,,,,,
,,6164bf85b5dfa5ddff6da08d,65af55118f4b972623180b73,2024-01-23_07h58.18.694,bars,2023.2.3,MacIntel,29.94011976,657b66ea316d21385b68909f,,,,,,,,,,,,,,,,,,,,,,,,,,,,,,,,,,,,,,,,,,238.4123,244.632,right,6.1827,,244.6322,2,2,245.6309,0,0,0,0,1,9,1,9,2,,,,,,,,,,,,,,,,,,,,,,,,,,,,,,,,,,,,,,,,,
,,6164bf85b5dfa5ddff6da08d,65af55118f4b972623180b73,2024-01-23_07h58.18.694,bars,2023.2.3,MacIntel,29.94011976,657b66ea316d21385b68909f,,,,,,,,,,,,,,,,,,,,,,,,,,,,,,,,,,,,,,,,,,245.6317,247.628,left,1.9858,,247.628,10,1,248.6305,0,1,1,1,1,10,0,10,1,,,,,,,,,,,,,,,,,,,,,,,,,,,,,,,,,,,,,,,,,
,,6164bf85b5dfa5ddff6da08d,65af55118f4b972623180b73,2024-01-23_07h58.18.694,bars,2023.2.3,MacIntel,29.94011976,657b66ea316d21385b68909f,,,,,,,,,,,,,,,,,,,,,,,,,,,,,,,,,,,,,,,,,,248.6424,250.8638,left,2.2106,,250.8638,10,1,251.8625,0,2,2,2,1,10,2,10,2,,,,,,,,,,,,,,,,,,,,,,,,,,,,,,,,,,,,,,,,,
,,6164bf85b5dfa5ddff6da08d,65af55118f4b972623180b73,2024-01-23_07h58.18.694,bars,2023.2.3,MacIntel,29.94011976,657b66ea316d21385b68909f,,,,,,,,,,,,,,,,,,,,,,,,,,,,,,,,,,,,,,,,,,251.863,252.8971,left,1.0256,,252.8971,7,1,253.897,0,3,3,3,1,8,4,7,3,,,,,,,,,,,,,,,,,,,,,,,,,,,,,,,,,,,,,,,,,
,,6164bf85b5dfa5ddff6da08d,65af55118f4b972623180b73,2024-01-23_07h58.18.694,bars,2023.2.3,MacIntel,29.94011976,657b66ea316d21385b68909f,,,,,,,,,,,,,,,,,,,,,,,,,,,,,,,,,,,,,,,,,,253.8976,254.5319,right,0.6228,,254.532,1,2,255.5315,0,4,4,4,1,6,2,5,1,,,,,,,,,,,,,,,,,,,,,,,,,,,,,,,,,,,,,,,,,
,,6164bf85b5dfa5ddff6da08d,65af55118f4b972623180b73,2024-01-23_07h58.18.694,bars,2023.2.3,MacIntel,29.94011976,657b66ea316d21385b68909f,,,,,,,,,,,,,,,,,,,,,,,,,,,,,,,,,,,,,,,,,,255.5319,256.0986,left,0.5387,,256.0988,4,1,257.0944,0,5,5,5,1,4,4,4,4,,,,,,,,,,,,,,,,,,,,,,,,,,,,,,,,,,,,,,,,,
,,6164bf85b5dfa5ddff6da08d,65af55118f4b972623180b73,2024-01-23_07h58.18.694,bars,2023.2.3,MacIntel,29.94011976,657b66ea316d21385b68909f,,,,,,,,,,,,,,,,,,,,,,,,,,,,,,,,,,,,,,,,,,257.0951,257.9973,right,0.8734,,257.9974,2,2,258.9977,0,6,6,6,1,2,2,1,2,,,,,,,,,,,,,,,,,,,,,,,,,,,,,,,,,,,,,,,,,
,,6164bf85b5dfa5ddff6da08d,65af55118f4b972623180b73,2024-01-23_07h58.18.694,bars,2023.2.3,MacIntel,29.94011976,657b66ea316d21385b68909f,,,,,,,,,,,,,,,,,,,,,,,,,,,,,,,,,,,,,,,,,,258.9983,259.5305,left,0.5198,,259.5306,0,1,260.5311,0,7,7,7,1,0,0,0,1,,,,,,,,,,,,,,,,,,,,,,,,,,,,,,,,,,,,,,,,,
,,6164bf85b5dfa5ddff6da08d,65af55118f4b972623180b73,2024-01-23_07h58.18.694,bars,2023.2.3,MacIntel,29.94011976,657b66ea316d21385b68909f,,,,,,,,,,,,,,,,,,,,,,,,,,,,,,,,,,,,,,,,,,260.5317,261.1307,right,0.5856,,261.1308,0,2,262.1277,0,8,8,8,1,0,2,1,0,,,,,,,,,,,,,,,,,,,,,,,,,,,,,,,,,,,,,,,,,
,,6164bf85b5dfa5ddff6da08d,65af55118f4b972623180b73,2024-01-23_07h58.18.694,bars,2023.2.3,MacIntel,29.94011976,657b66ea316d21385b68909f,,,,,,,,,,,,,,,,,,,,,,,,,,,,,,,,,,,,,,,,,,262.1279,263.0301,left,0.8974,,263.0301,2,1,264.0282,0,9,9,9,1,2,4,2,3,,,,,,,,,,,,,,,,,,,,,,,,,,,,,,,,,,,,,,,,,
,,6164bf85b5dfa5ddff6da08d,65af55118f4b972623180b73,2024-01-23_07h58.18.694,bars,2023.2.3,MacIntel,29.94011976,657b66ea316d21385b68909f,,,,,,,,,,,,,,,,,,,,,,,,,,,,,,,,,,,,,,,,,,264.0288,265.028,left,0.9882,,265.0281,0,1,266.032,0,10,10,10,1,0,2,0,3,,,,,,,,,,,,,,,,,,,,,,,,,,,,,,,,,,,,,,,,,
,,6164bf85b5dfa5ddff6da08d,65af55118f4b972623180b73,2024-01-23_07h58.18.694,bars,2023.2.3,MacIntel,29.94011976,657b66ea316d21385b68909f,,,,,,,,,,,,,,,,,,,,,,,,,,,,,,,,,,,,,,,,,,266.0326,266.6319,right,0.5655,,266.632,3,2,267.6311,0,11,11,11,1,0,4,0,3,,,,,,,,,,,,,,,,,,,,,,,,,,,,,,,,,,,,,,,,,
,,6164bf85b5dfa5ddff6da08d,65af55118f4b972623180b73,2024-01-23_07h58.18.694,bars,2023.2.3,MacIntel,29.94011976,657b66ea316d21385b68909f,,,,,,,,,,,,,,,,,,,,,,,,,,,,,,,,,,,,,,,,,,267.6316,268.231,right,0.5856,,268.231,6,2,269.2312,0,12,12,12,1,2,6,1,6,,,,,,,,,,,,,,,,,,,,,,,,,,,,,,,,,,,,,,,,,
,,6164bf85b5dfa5ddff6da08d,65af55118f4b972623180b73,2024-01-23_07h58.18.694,bars,2023.2.3,MacIntel,29.94011976,657b66ea316d21385b68909f,,,,,,,,,,,,,,,,,,,,,,,,,,,,,,,,,,,,,,,,,,269.2318,269.7619,right,0.4998,,269.762,3,2,270.7633,0,13,13,13,1,0,4,1,3,,,,,,,,,,,,,,,,,,,,,,,,,,,,,,,,,,,,,,,,,
,,6164bf85b5dfa5ddff6da08d,65af55118f4b972623180b73,2024-01-23_07h58.18.694,bars,2023.2.3,MacIntel,29.94011976,657b66ea316d21385b68909f,,,,,,,,,,,,,,,,,,,,,,,,,,,,,,,,,,,,,,,,,,270.764,271.3288,left,0.5507,,271.3289,2,1,272.3302,0,14,14,14,1,2,6,2,7,,,,,,,,,,,,,,,,,,,,,,,,,,,,,,,,,,,,,,,,,
,,6164bf85b5dfa5ddff6da08d,65af55118f4b972623180b73,2024-01-23_07h58.18.694,bars,2023.2.3,MacIntel,29.94011976,657b66ea316d21385b68909f,,,,,,,,,,,,,,,,,,,,,,,,,,,,,,,,,,,,,,,,,,272.3308,272.7635,right,0.4219,,272.7635,9,2,273.7654,0,15,15,15,1,4,8,3,9,,,,,,,,,,,,,,,,,,,,,,,,,,,,,,,,,,,,,,,,,
,,6164bf85b5dfa5ddff6da08d,65af55118f4b972623180b73,2024-01-23_07h58.18.694,bars,2023.2.3,MacIntel,29.94011976,657b66ea316d21385b68909f,,,,,,,,,,,,,,,,,,,,,,,,,,,,,,,,,,,,,,,,,,273.766,274.5987,right,0.7989,,274.5988,7,2,275.5984,0,16,16,16,1,6,6,7,7,,,,,,,,,,,,,,,,,,,,,,,,,,,,,,,,,,,,,,,,,
,,6164bf85b5dfa5ddff6da08d,65af55118f4b972623180b73,2024-01-23_07h58.18.694,bars,2023.2.3,MacIntel,29.94011976,657b66ea316d21385b68909f,,,,,,,,,,,,,,,,,,,,,,,,,,,,,,,,,,,,,,,,,,275.599,276.3652,right,0.7354,,276.3653,5,2,277.3639,0,17,17,17,1,8,4,9,5,,,,,,,,,,,,,,,,,,,,,,,,,,,,,,,,,,,,,,,,,
,,6164bf85b5dfa5ddff6da08d,65af55118f4b972623180b73,2024-01-23_07h58.18.694,bars,2023.2.3,MacIntel,29.94011976,657b66ea316d21385b68909f,,,,,,,,,,,,,,,,,,,,,,,,,,,,,,,,,,,,,,,,,,277.3645,278.529,right,1.1529,,278.5291,1,2,279.5315,0,18,18,18,1,6,2,5,1,,,,,,,,,,,,,,,,,,,,,,,,,,,,,,,,,,,,,,,,,
,,6164bf85b5dfa5ddff6da08d,65af55118f4b972623180b73,2024-01-23_07h58.18.694,bars,2023.2.3,MacIntel,29.94011976,657b66ea316d21385b68909f,,,,,,,,,,,,,,,,,,,,,,,,,,,,,,,,,,,,,,,,,,279.532,279.8984,left,0.3309,,279.8985,7,1,280.8983,0,19,19,19,1,8,0,7,0,,,,,,,,,,,,,,,,,,,,,,,,,,,,,,,,,,,,,,,,,
,,6164bf85b5dfa5ddff6da08d,65af55118f4b972623180b73,2024-01-23_07h58.18.694,bars,2023.2.3,MacIntel,29.94011976,657b66ea316d21385b68909f,,,,,,,,,,,,,,,,,,,,,,,,,,,,,,,,,,,,,,,,,,,,,,,,,,,,,,,,,,,,280.8993,301.3663,space,20.4364,,,,,,,,,,,,,,,,,,,,,,,,,,,,,,,,,,,,,
,,6164bf85b5dfa5ddff6da08d,65af55118f4b972623180b73,2024-01-23_07h58.18.694,bars,2023.2.3,MacIntel,29.94011976,657b66ea316d21385b68909f,,,,,,,,,,,302.7013,303.6985,,,304.1973,304.4323,,170,170,,,,,,,,,,,,,,,,bars/049.png,bars/mask001.png,,,,,,,,,,,,3,1,,,,,,,4,1,4,1,,,,,,301.381,302.6958,space,1.2801,,303.6989,304.1972,304.4327,310.4332,space,5.9578,,310.4335,10,55,311.4292,311.4296,329.4972,space,18.0465,,0,0,0,0,1,160,115,,,,,,,,
,,6164bf85b5dfa5ddff6da08d,65af55118f4b972623180b73,2024-01-23_07h58.18.694,bars,2023.2.3,MacIntel,29.94011976,657b66ea316d21385b68909f,,,,,,,,,,,329.5102,330.4989,,,330.9981,331.2324,,42,42,,,,,,,,,,,,,,,,bars/002.png,bars/mask000.png,,,,,,,,,,,,0,2,,,,,,,6,0,8,0,,,,,,,,,,,330.499,330.998,331.2325,342.4986,space,11.2577,,342.4987,88,43,343.4995,343.4996,349.6662,space,6.1317,,0,1,1,1,1,130,85,,,,,,,,
,,6164bf85b5dfa5ddff6da08d,65af55118f4b972623180b73,2024-01-23_07h58.18.694,bars,2023.2.3,MacIntel,29.94011976,657b66ea316d21385b68909f,,,,,,,,,,,349.6791,350.666,,,351.1653,351.3992,,179,179,,,,,,,,,,,,,,,,bars/022.png,bars/mask006.png,,,,,,,,,,,,1,2,,,,,,,4,2,2,2,,,,,,,,,,,350.666,351.1652,351.3992,359.5653,space,8.1589,,359.5654,84,21,360.5659,360.566,365.4005,space,4.7845,,0,2,2,2,1,95,20,,,,,,,,
,,6164bf85b5dfa5ddff6da08d,65af55118f4b972623180b73,2024-01-23_07h58.18.694,bars,2023.2.3,MacIntel,29.94011976,657b66ea316d21385b68909f,,,,,,,,,,,365.4127,366.3995,,,366.8995,367.1314,,52,52,,,,,,,,,,,,,,,,bars/014.png,bars/mask002.png,,,,,,,,,,,,0,1,,,,,,,2,0,2,0,,,,,,,,,,,366.3995,366.8995,367.1315,371.233,space,4.0863,,371.2331,28,52,372.2331,372.2331,384.5335,space,12.2665,,0,3,3,3,1,80,0,,,,,,,,
,,6164bf85b5dfa5ddff6da08d,65af55118f4b972623180b73,2024-01-23_07h58.18.694,bars,2023.2.3,MacIntel,29.94011976,657b66ea316d21385b68909f,,,,,,,,,,,384.5475,385.5335,,,386.0334,386.2654,,135,135,,,,,,,,,,,,,,,,bars/018.png,bars/mask007.png,,,,,,,,,,,,2,1,,,,,,,4,0,4,0,,,,,,,,,,,385.5336,386.0333,386.2656,393.3337,space,7.051,,393.3338,15,45,394.3333,394.3334,400.4678,space,6.1006,,0,4,4,4,1,150,90,,,,,,,,
,,6164bf85b5dfa5ddff6da08d,65af55118f4b972623180b73,2024-01-23_07h58.18.694,bars,2023.2.3,MacIntel,29.94011976,657b66ea316d21385b68909f,,,,,,,,,,,400.4807,401.4664,,,401.9671,402.1978,,37,37,,,,,,,,,,,,,,,,bars/000.png,bars/mask008.png,,,,,,,,,,,,3,1,,,,,,,2,2,3,1,,,,,,,,,,,401.4665,401.9671,402.1979,406.8669,space,4.6365,,406.8671,3,72,407.8672,407.8674,411.667,space,3.7766,,0,5,5,5,1,40,145,,,,,,,,
,,6164bf85b5dfa5ddff6da08d,65af55118f4b972623180b73,2024-01-23_07h58.18.694,bars,2023.2.3,MacIntel,29.94011976,657b66ea316d21385b68909f,,,,,,,,,,,411.6786,412.6637,,,413.164,413.4,,36,36,,,,,,,,,,,,,,,,bars/018.png,bars/mask009.png,,,,,,,,,,,,0,2,,,,,,,0,4,1,3,,,,,,,,,,,412.6637,413.1639,413.4001,427.7343,space,14.3158,,427.7344,66,54,428.7336,428.7336,433.2664,space,4.4856,,0,6,6,6,1,150,90,,,,,,,,
,,6164bf85b5dfa5ddff6da08d,65af55118f4b972623180b73,2024-01-23_07h58.18.694,bars,2023.2.3,MacIntel,29.94011976,657b66ea316d21385b68909f,,,,,,,,,,,433.2799,434.2677,,,434.7665,435.0015,,55,55,,,,,,,,,,,,,,,,bars/035.png,bars/mask002.png,,,,,,,,,,,,6,2,,,,,,,0,6,0,7,,,,,,,,,,,434.2677,434.7665,435.0016,443.2977,space,8.273,,443.2977,60,5,444.2992,444.2993,450.1992,space,5.8574,,0,7,7,7,1,175,60,,,,,,,,
,,6164bf85b5dfa5ddff6da08d,65af55118f4b972623180b73,2024-01-23_07h58.18.694,bars,2023.2.3,MacIntel,29.94011976,657b66ea316d21385b68909f,,,,,,,,,,,450.2,451.2008,,,451.7011,451.9332,,177,177,,,,,,,,,,,,,,,,bars/025.png,bars/mask005.png,,,,,,,,,,,,0,2,,,,,,,2,8,2,8,,,,,,,,,,,451.2009,451.701,451.9334,453.9683,space,2.0199,,453.9685,72,43,454.9674,454.9674,461.6335,space,6.6242,,0,8,8,8,1,105,40,,,,,,,,
,,6164bf85b5dfa5ddff6da08d,65af55118f4b972623180b73,2024-01-23_07h58.18.694,bars,2023.2.3,MacIntel,29.94011976,657b66ea316d21385b68909f,,,,,,,,,,,461.6449,462.6344,,,463.1315,463.3687,,0,0,,,,,,,,,,,,,,,,bars/045.png,bars/mask007.png,,,,,,,,,,,,5,2,,,,,,,4,6,4,7,,,,,,,,,,,462.6344,463.1313,463.3688,467.0328,space,3.6493,,467.0328,80,10,468.0333,468.0333,471.4366,space,3.3788,,0,9,9,9,1,100,10,,,,,,,,
,,6164bf85b5dfa5ddff6da08d,65af55118f4b972623180b73,2024-01-23_07h58.18.694,bars,2023.2.3,MacIntel,29.94011976,657b66ea316d21385b68909f,,,,,,,,,,,471.4515,472.4341,,,472.9351,473.1686,,115,115,,,,,,,,,,,,,,,,bars/049.png,bars/mask008.png,,,,,,,,,,,,8,2,,,,,,,2,8,0,8,,,,,,,,,,,472.4342,472.935,473.1687,476.301,space,3.1157,,476.301,45,0,477.3001,477.3002,483.4654,space,6.1233,,0,10,10,10,1,160,115,,,,,,,,
,,6164bf85b5dfa5ddff6da08d,65af55118f4b972623180b73,2024-01-23_07h58.18.694,bars,2023.2.3,MacIntel,29.94011976,657b66ea316d21385b68909f,,,,,,,,,,,483.479,484.4678,,,484.9672,485.1985,,174,174,,,,,,,,,,,,,,,,bars/048.png,bars/mask001.png,,,,,,,,,,,,8,2,,,,,,,4,10,4,8,,,,,,,,,,,484.4679,484.9672,485.1986,488.7688,space,3.552,,488.7689,56,1,489.7674,489.7675,499.533,space,9.7251,,0,11,11,11,1,50,175,,,,,,,,
,,6164bf85b5dfa5ddff6da08d,65af55118f4b972623180b73,2024-01-23_07h58.18.694,bars,2023.2.3,MacIntel,29.94011976,657b66ea316d21385b68909f,,,,,,,,,,,499.5422,500.5354,,,501.034,501.2687,,90,90,,,,,,,,,,,,,,,,bars/006.png,bars/mask009.png,,,,,,,,,,,,7,2,,,,,,,2,8,3,10,,,,,,,,,,,500.5354,501.034,501.2688,508.7692,space,7.4676,,508.7693,55,10,509.7693,509.7693,515.6694,space,5.8509,,0,12,12,12,1,35,100,,,,,,,,
,,6164bf85b5dfa5ddff6da08d,65af55118f4b972623180b73,2024-01-23_07h58.18.694,bars,2023.2.3,MacIntel,29.94011976,657b66ea316d21385b68909f,,,,,,,,,,,515.6817,516.6688,,,517.1662,517.4029,,23,23,,,,,,,,,,,,,,,,bars/035.png,bars/mask008.png,,,,,,,,,,,,0,1,,,,,,,0,10,0,9,,,,,,,,,,,516.6688,517.1661,517.4029,518.7691,space,1.357,,518.7691,28,37,519.7689,519.769,848.5739,space,328.7764,,0,13,13,13,1,175,60,,,,,,,,
,,6164bf85b5dfa5ddff6da08d,65af55118f4b972623180b73,2024-01-23_07h58.18.694,bars,2023.2.3,MacIntel,29.94011976,657b66ea316d21385b68909f,,,,,,,,,,,848.5876,849.5727,,,850.0763,850.3089,,41,221,,,,,,,,,,,,,,,,bars/033.png,bars/mask003.png,,,,,,,,,,,,0,1,,,,,,,2,10,1,10,,,,,,,,,,,849.5729,850.0763,850.309,863.8759,space,13.5573,,863.876,16,66,864.8755,864.8756,870.4426,space,5.5246,,0,14,14,14,1,25,155,,,,,,,,
,,6164bf85b5dfa5ddff6da08d,65af55118f4b972623180b73,2024-01-23_07h58.18.694,bars,2023.2.3,MacIntel,29.94011976,657b66ea316d21385b68909f,,,,,,,,,,,870.456,871.441,,,871.9427,872.1754,,100,100,,,,,,,,,,,,,,,,bars/028.png,bars/mask002.png,,,,,,,,,,,,2,2,,,,,,,0,8,0,6,,,,,,,,,,,871.441,871.9426,872.1754,874.3754,space,2.1927,,874.3755,55,20,875.376,875.3761,878.6727,space,3.2506,,0,15,15,15,1,45,120,,,,,,,,
,,6164bf85b5dfa5ddff6da08d,65af55118f4b972623180b73,2024-01-23_07h58.18.694,bars,2023.2.3,MacIntel,29.94011976,657b66ea316d21385b68909f,,,,,,,,,,,878.6733,879.6756,,,880.1759,880.4092,,160,160,,,,,,,,,,,,,,,,bars/025.png,bars/mask001.png,,,,,,,,,,,,0,1,,,,,,,0,6,1,5,,,,,,,,,,,879.6757,880.1758,880.4093,883.4428,space,3.0052,,883.4429,55,60,884.4423,884.4423,886.7763,space,2.2829,,0,16,16,16,1,105,40,,,,,,,,
,,6164bf85b5dfa5ddff6da08d,65af55118f4b972623180b73,2024-01-23_07h58.18.694,bars,2023.2.3,MacIntel,29.94011976,657b66ea316d21385b68909f,,,,,,,,,,,886.7769,887.7766,,,888.2725,888.5079,,153,153,,,,,,,,,,,,,,,,bars/039.png,bars/mask005.png,,,,,,,,,,,,0,1,,,,,,,0,8,0,8,,,,,,,,,,,887.7767,888.2724,888.508,889.506,space,0.9891,,889.506,22,48,890.5091,890.5093,892.5081,space,1.9838,,0,17,17,17,1,175,105,,,,,,,,
,,6164bf85b5dfa5ddff6da08d,65af55118f4b972623180b73,2024-01-23_07h58.18.694,bars,2023.2.3,MacIntel,29.94011976,657b66ea316d21385b68909f,,,,,,,,,,,892.5087,893.5093,,,894.0092,894.243,,81,81,,,,,,,,,,,,,,,,bars/026.png,bars/mask007.png,,,,,,,,,,,,9,2,,,,,,,0,10,0,10,,,,,,,,,,,893.5093,894.0091,894.2431,899.5093,space,5.2319,,899.5095,46,4,900.5097,900.5098,901.6096,space,1.0762,,0,18,18,18,1,35,85,,,,,,,,
,,6164bf85b5dfa5ddff6da08d,65af55118f4b972623180b73,2024-01-23_07h58.18.694,bars,2023.2.3,MacIntel,29.94011976,657b66ea316d21385b68909f,,,,,,,,,,,901.6101,902.61,,,903.1093,903.3434,,153,153,,,,,,,,,,,,,,,,bars/033.png,bars/mask007.png,,,,,,,,,,,,8,2,,,,,,,2,8,2,9,,,,,,,,,,,902.6101,903.1092,903.3435,907.1778,space,3.8005,,907.1779,52,2,908.1768,908.1769,912.9106,space,4.7104,,0,19,19,19,1,25,155,,,,,,,,
,,6164bf85b5dfa5ddff6da08d,65af55118f4b972623180b73,2024-01-23_07h58.18.694,bars,2023.2.3,MacIntel,29.94011976,657b66ea316d21385b68909f,,,,,,,,,,,912.922,913.91,,,914.4106,914.6426,,57,57,,,,,,,,,,,,,,,,bars/027.png,bars/mask003.png,,,,,,,,,,,,5,2,,,,,,,4,6,4,7,,,,,,,,,,,913.91,914.4104,914.6427,917.3101,space,2.652,,917.3101,53,7,918.3099,918.31,921.7068,space,3.3705,,0,20,20,20,1,110,50,,,,,,,,
,,6164bf85b5dfa5ddff6da08d,65af55118f4b972623180b73,2024-01-23_07h58.18.694,bars,2023.2.3,MacIntel,29.94011976,657b66ea316d21385b68909f,,,,,,,,,,,921.7183,922.7101,,,923.21,923.4437,,164,-16,,,,,,,,,,,,,,,,bars/020.png,bars/mask007.png,,,,,,,,,,,,6,2,,,,,,,6,8,7,7,,,,,,,,,,,922.7101,923.21,923.4438,931.1096,space,7.6354,,931.1096,49,6,932.1107,932.1108,935.7101,space,3.5494,,0,21,21,21,1,115,170,,,,,,,,
,,6164bf85b5dfa5ddff6da08d,65af55118f4b972623180b73,2024-01-23_07h58.18.694,bars,2023.2.3,MacIntel,29.94011976,657b66ea316d21385b68909f,,,,,,,,,,,935.723,936.7112,,,937.2106,937.4438,,168,168,,,,,,,,,,,,,,,,bars/016.png,bars/mask006.png,,,,,,,,,,,,9,2,,,,,,,4,10,5,10,,,,,,,,,,,936.7112,937.2105,937.4438,940.6419,space,3.175,,940.642,52,3,941.6426,941.6427,944.4106,space,2.7343,,0,22,22,22,1,40,165,,,,,,,,
,,6164bf85b5dfa5ddff6da08d,65af55118f4b972623180b73,2024-01-23_07h58.18.694,bars,2023.2.3,MacIntel,29.94011976,657b66ea316d21385b68909f,,,,,,,,,,,944.4111,945.41,,,945.9108,946.1448,,107,107,,,,,,,,,,,,,,,,bars/004.png,bars/mask006.png,,,,,,,,,,,,4,2,,,,,,,6,8,7,9,,,,,,,,,,,945.4101,945.9108,946.1448,948.7769,space,2.6159,,948.7769,82,18,949.7768,949.7769,955.0767,space,5.2771,,0,23,23,23,1,25,125,,,,,,,,
,,6164bf85b5dfa5ddff6da08d,65af55118f4b972623180b73,2024-01-23_07h58.18.694,bars,2023.2.3,MacIntel,29.94011976,657b66ea316d21385b68909f,,,,,,,,,,,955.09,956.078,,,956.5757,956.8111,,162,-18,,,,,,,,,,,,,,,,bars/033.png,bars/mask008.png,,,,,,,,,,,,8,2,,,,,,,8,10,9,10,,,,,,,,,,,956.078,956.5757,956.8111,959.9422,space,3.1101,,959.9422,43,7,960.944,960.9441,962.2111,space,1.2262,,0,24,24,24,1,25,155,,,,,,,,
,,6164bf85b5dfa5ddff6da08d,65af55118f4b972623180b73,2024-01-23_07h58.18.694,bars,2023.2.3,MacIntel,29.94011976,657b66ea316d21385b68909f,,,,,,,,,,,962.2119,963.211,,,963.7101,963.9418,,60,60,,,,,,,,,,,,,,,,bars/034.png,bars/mask004.png,,,,,,,,,,,,8,2,,,,,,,10,8,10,9,,,,,,,,,,,963.2111,963.71,963.9419,971.7445,space,7.7892,,971.7446,65,5,972.7444,972.7445,974.5437,space,1.7476,,0,25,25,25,1,125,65,,,,,,,,
,,6164bf85b5dfa5ddff6da08d,65af55118f4b972623180b73,2024-01-23_07h58.18.694,bars,2023.2.3,MacIntel,29.94011976,657b66ea316d21385b68909f,,,,,,,,,,,974.5441,975.5443,,,976.0438,976.2785,,101,101,,,,,,,,,,,,,,,,bars/049.png,bars/mask007.png,,,,,,,,,,,,5,2,,,,,,,10,10,10,10,,,,,,,,,,,975.5444,976.0437,976.2785,978.0116,space,1.7054,,978.0117,59,14,979.0109,979.011,980.746,space,1.6959,,0,26,26,26,1,160,115,,,,,,,,
,,6164bf85b5dfa5ddff6da08d,65af55118f4b972623180b73,2024-01-23_07h58.18.694,bars,2023.2.3,MacIntel,29.94011976,657b66ea316d21385b68909f,,,,,,,,,,,980.7467,981.7446,,,982.244,982.4753,,64,64,,,,,,,,,,,,,,,,bars/030.png,bars/mask002.png,,,,,,,,,,,,10,2,,,,,,,8,10,7,10,,,,,,,,,,,981.7447,982.244,982.4753,988.7782,space,6.2888,,988.7782,76,1,989.7773,989.7774,992.3111,space,2.5116,,0,27,27,27,1,140,65,,,,,,,,
,,6164bf85b5dfa5ddff6da08d,65af55118f4b972623180b73,2024-01-23_07h58.18.694,bars,2023.2.3,MacIntel,29.94011976,657b66ea316d21385b68909f,,,,,,,,,,,992.3117,993.3102,,,993.8118,994.0439,,42,42,,,,,,,,,,,,,,,,bars/025.png,bars/mask003.png,,,,,,,,,,,,7,2,,,,,,,10,8,10,7,,,,,,,,,,,993.3102,993.8118,994.0441,1000.2109,space,6.1537,,1000.211,63,2,1001.2116,1001.2117,1002.4762,space,1.2147,,0,28,28,28,1,105,40,,,,,,,,
,,6164bf85b5dfa5ddff6da08d,65af55118f4b972623180b73,2024-01-23_07h58.18.694,bars,2023.2.3,MacIntel,29.94011976,657b66ea316d21385b68909f,,,,,,,,,,,1002.4769,1003.4757,,,1003.978,1004.2103,,139,139,,,,,,,,,,,,,,,,bars/043.png,bars/mask008.png,,,,,,,,,,,,4,2,,,,,,,10,6,10,5,,,,,,,,,,,1003.4757,1003.9779,1004.2104,1011.412,space,7.1706,,1011.412,71,9,1012.409,1012.409,1016.4438,space,4.0154,,0,29,29,29,1,30,130,,,,,,,,
,,6164bf85b5dfa5ddff6da08d,65af55118f4b972623180b73,2024-01-23_07h58.18.694,bars,2023.2.3,MacIntel,29.94011976,657b66ea316d21385b68909f,,,,,,,,,,,1016.4553,1017.4461,,,1017.9454,1018.179,,113,113,,,,,,,,,,,,,,,,bars/043.png,bars/mask009.png,,,,,,,,,,,,3,2,,,,,,,8,8,7,8,,,,,,,,,,,1017.4461,1017.9453,1018.179,1023.0786,space,4.8828,,1023.0787,83,17,1024.0748,1024.0748,1025.7797,space,1.683,,0,30,30,30,1,30,130,,,,,,,,
,,6164bf85b5dfa5ddff6da08d,65af55118f4b972623180b73,2024-01-23_07h58.18.694,bars,2023.2.3,MacIntel,29.94011976,657b66ea316d21385b68909f,,,,,,,,,,,1025.7802,1026.7795,,,1027.2761,1027.5105,,51,51,,,,,,,,,,,,,,,,bars/034.png,bars/mask008.png,,,,,,,,,,,,5,2,,,,,,,6,10,5,10,,,,,,,,,,,1026.7796,1027.2761,1027.5105,1031.9112,space,4.3691,,1031.9112,74,14,1032.9119,1032.912,1036.1794,space,3.2277,,0,31,31,31,1,125,65,,,,,,,,
,,6164bf85b5dfa5ddff6da08d,65af55118f4b972623180b73,2024-01-23_07h58.18.694,bars,2023.2.3,MacIntel,29.94011976,657b66ea316d21385b68909f,,,,,,,,,,,1036.1925,1037.1787,,,1037.6761,1037.9124,,85,85,,,,,,,,,,,,,,,,bars/025.png,bars/mask006.png,,,,,,,,,,,,1,1,,,,,,,4,10,4,10,,,,,,,,,,,1037.1787,1037.676,1037.9125,1047.4463,space,9.4985,,1047.4463,20,45,1048.4459,1048.446,1054.7756,space,6.2994,,0,32,32,32,1,105,40,,,,,,,,
,,6164bf85b5dfa5ddff6da08d,65af55118f4b972623180b73,2024-01-23_07h58.18.694,bars,2023.2.3,MacIntel,29.94011976,657b66ea316d21385b68909f,,,,,,,,,,,1054.7883,1055.7784,,,1056.2793,1056.5125,,61,61,,,,,,,,,,,,,,,,bars/042.png,bars/mask009.png,,,,,,,,,,,,5,2,,,,,,,6,10,5,10,,,,,,,,,,,1055.7785,1056.2791,1056.5126,1058.6447,space,2.1188,,1058.6448,84,14,1059.646,1059.646,1060.8794,space,1.1919,,0,33,33,33,1,145,75,,,,,,,,
,,6164bf85b5dfa5ddff6da08d,65af55118f4b972623180b73,2024-01-23_07h58.18.694,bars,2023.2.3,MacIntel,29.94011976,657b66ea316d21385b68909f,,,,,,,,,,,1060.8798,1061.8795,,,1062.3806,1062.6124,,170,170,,,,,,,,,,,,,,,,bars/048.png,bars/mask009.png,,,,,,,,,,,,8,2,,,,,,,4,10,3,10,,,,,,,,,,,1061.8795,1062.3805,1062.6125,1066.3805,space,3.7622,,1066.3806,60,5,1067.3795,1067.3795,1069.3804,space,1.9509,,0,34,34,34,1,50,175,,,,,,,,
,,6164bf85b5dfa5ddff6da08d,65af55118f4b972623180b73,2024-01-23_07h58.18.694,bars,2023.2.3,MacIntel,29.94011976,657b66ea316d21385b68909f,,,,,,,,,,,1069.381,1070.3795,,,1070.8791,1071.1124,,57,57,,,,,,,,,,,,,,,,bars/017.png,bars/mask004.png,,,,,,,,,,,,4,2,,,,,,,6,8,6,7,,,,,,,,,,,1070.3795,1070.879,1071.1124,1078.3126,space,7.1715,,1078.3127,88,12,1079.3132,1079.3133,1080.6437,space,1.2833,,0,35,35,35,1,145,45,,,,,,,,
,,6164bf85b5dfa5ddff6da08d,65af55118f4b972623180b73,2024-01-23_07h58.18.694,bars,2023.2.3,MacIntel,29.94011976,657b66ea316d21385b68909f,,,,,,,,,,,1080.6444,1081.6429,,,1082.1461,1082.3779,,129,129,,,,,,,,,,,,,,,,bars/019.png,bars/mask002.png,,,,,,,,,,,,2,2,,,,,,,8,10,9,10,,,,,,,,,,,1081.643,1082.146,1082.3779,1091.2784,space,8.8717,,1091.2784,84,24,1092.2777,1092.2778,1096.0801,space,3.7813,,0,36,36,36,1,45,105,,,,,,,,
,,6164bf85b5dfa5ddff6da08d,65af55118f4b972623180b73,2024-01-23_07h58.18.694,bars,2023.2.3,MacIntel,29.94011976,657b66ea316d21385b68909f,,,,,,,,,,,1096.0806,1097.0795,,,1097.581,1097.8131,,148,-32,,,,,,,,,,,,,,,,bars/044.png,bars/mask001.png,,,,,,,,,,,,7,2,,,,,,,10,8,10,9,,,,,,,,,,,1097.0795,1097.5809,1097.8132,1102.7467,space,4.9188,,1102.7467,73,7,1103.747,1103.747,1107.2441,space,3.4701,,0,37,37,37,1,75,155,,,,,,,,
,,6164bf85b5dfa5ddff6da08d,65af55118f4b972623180b73,2024-01-23_07h58.18.694,bars,2023.2.3,MacIntel,29.94011976,657b66ea316d21385b68909f,,,,,,,,,,,1107.2558,1108.247,,,1108.7466,1108.9795,,170,-10,,,,,,,,,,,,,,,,bars/012.png,bars/mask001.png,,,,,,,,,,,,2,2,,,,,,,8,10,7,10,,,,,,,,,,,1108.2471,1108.7465,1108.9796,1116.4472,space,7.4526,,1116.4474,80,25,1117.4453,1117.4454,1119.1472,space,1.6838,,0,38,38,38,1,90,15,,,,,,,,
,,6164bf85b5dfa5ddff6da08d,65af55118f4b972623180b73,2024-01-23_07h58.18.694,bars,2023.2.3,MacIntel,29.94011976,657b66ea316d21385b68909f,,,,,,,,,,,1119.1478,1120.1469,,,1120.647,1120.8806,,92,92,,,,,,,,,,,,,,,,bars/041.png,bars/mask000.png,,,,,,,,,,,,8,2,,,,,,,6,10,5,10,,,,,,,,,,,1120.147,1120.6469,1120.8807,1129.2462,space,8.3371,,1129.2463,72,7,1130.2471,1130.2473,1131.8107,space,1.5346,,0,39,39,39,1,20,85,,,,,,,,
,,6164bf85b5dfa5ddff6da08d,65af55118f4b972623180b73,2024-01-23_07h58.18.694,bars,2023.2.3,MacIntel,29.94011976,657b66ea316d21385b68909f,,,,,,,,,,,1131.8114,1132.8121,,,1133.3131,1133.547,,34,214,,,,,,,,,,,,,,,,bars/036.png,bars/mask000.png,,,,,,,,,,,,5,2,,,,,,,4,10,2,10,,,,,,,,,,,1132.8122,1133.3131,1133.5471,1138.8141,space,5.2513,,1138.8142,69,14,1139.8146,1139.8146,1144.1805,space,4.3355,,0,40,40,40,1,145,20,,,,,,,,
,,6164bf85b5dfa5ddff6da08d,65af55118f4b972623180b73,2024-01-23_07h58.18.694,bars,2023.2.3,MacIntel,29.94011976,657b66ea316d21385b68909f,,,,,,,,,,,1144.1925,1145.1807,,,1145.681,1145.9132,,154,-26,,,,,,,,,,,,,,,,bars/016.png,bars/mask006.png,,,,,,,,,,,,6,2,,,,,,,6,10,5,10,,,,,,,,,,,1145.1808,1145.681,1145.9132,1153.546,space,7.6055,,1153.546,66,11,1154.5466,1154.5467,1156.9451,space,2.3752,,0,41,41,41,1,40,165,,,,,,,,
,,6164bf85b5dfa5ddff6da08d,65af55118f4b972623180b73,2024-01-23_07h58.18.694,bars,2023.2.3,MacIntel,29.94011976,657b66ea316d21385b68909f,,,,,,,,,,,1156.9457,1157.9444,,,1158.4482,1158.6813,,175,-5,,,,,,,,,,,,,,,,bars/048.png,bars/mask000.png,,,,,,,,,,,,10,2,,,,,,,4,10,4,10,,,,,,,,,,,1157.9445,1158.4482,1158.6813,1163.6811,space,4.9828,,1163.6812,55,0,1164.6817,1164.6818,1191.2134,space,26.5066,,0,42,42,42,1,50,175,,,,,,,,
,,6164bf85b5dfa5ddff6da08d,65af55118f4b972623180b73,2024-01-23_07h58.18.694,bars,2023.2.3,MacIntel,29.94011976,657b66ea316d21385b68909f,,,,,,,,,,,1191.2264,1192.2143,,,1192.7147,1192.9461,,34,34,,,,,,,,,,,,,,,,bars/035.png,bars/mask000.png,,,,,,,,,,,,1,2,,,,,,,2,10,1,9,,,,,,,,,,,1192.2144,1192.7147,1192.9461,1195.0809,space,2.122,,1195.081,39,26,1196.0817,1196.0818,1199.8796,space,3.7694,,0,43,43,43,1,175,60,,,,,,,,
,,6164bf85b5dfa5ddff6da08d,65af55118f4b972623180b73,2024-01-23_07h58.18.694,bars,2023.2.3,MacIntel,29.94011976,657b66ea316d21385b68909f,,,,,,,,,,,1199.8915,1200.881,,,1201.382,1201.6115,,117,117,,,,,,,,,,,,,,,,bars/004.png,bars/mask005.png,,,,,,,,,,,,4,2,,,,,,,0,8,0,6,,,,,,,,,,,1200.8811,1201.3819,1201.6116,1211.4128,space,9.7722,,1211.4128,88,8,1212.4152,1212.4152,1215.582,space,3.1178,,0,44,44,44,1,25,125,,,,,,,,
,,6164bf85b5dfa5ddff6da08d,65af55118f4b972623180b73,2024-01-23_07h58.18.694,bars,2023.2.3,MacIntel,29.94011976,657b66ea316d21385b68909f,,,,,,,,,,,1215.5826,1216.5814,,,1217.0824,1217.3163,,179,179,,,,,,,,,,,,,,,,bars/032.png,bars/mask005.png,,,,,,,,,,,,3,2,,,,,,,0,10,1,10,,,,,,,,,,,1216.5815,1217.0824,1217.3163,1219.5158,space,2.188,,1219.5158,54,21,1220.5126,1220.5126,1225.9488,space,5.4182,,0,45,45,45,1,125,20,,,,,,,,
,,6164bf85b5dfa5ddff6da08d,65af55118f4b972623180b73,2024-01-23_07h58.18.694,bars,2023.2.3,MacIntel,29.94011976,657b66ea316d21385b68909f,,,,,,,,,,,1225.9603,1226.9484,,,1227.4482,1227.6828,,155,155,,,,,,,,,,,,,,,,bars/004.png,bars/mask005.png,,,,,,,,,,,,0,2,,,,,,,2,10,2,10,,,,,,,,,,,1226.9484,1227.4481,1227.6829,1231.5135,space,3.815,,1231.5135,50,30,1232.5153,1232.5154,1240.5164,space,7.9548,,0,46,46,46,1,25,125,,,,,,,,
,,6164bf85b5dfa5ddff6da08d,65af55118f4b972623180b73,2024-01-23_07h58.18.694,bars,2023.2.3,MacIntel,29.94011976,657b66ea316d21385b68909f,,,,,,,,,,,1240.5306,1241.516,,,1242.0161,1242.2496,,66,66,,,,,,,,,,,,,,,,bars/027.png,bars/mask002.png,,,,,,,,,,,,5,2,,,,,,,0,10,1,10,,,,,,,,,,,1241.5161,1242.0161,1242.2497,1243.3824,space,1.1054,,1243.3825,44,16,1244.3806,1244.3807,1289.4474,space,45.0531,,0,47,47,47,1,110,50,,,,,,,,
,,6164bf85b5dfa5ddff6da08d,65af55118f4b972623180b73,2024-01-23_07h58.18.694,bars,2023.2.3,MacIntel,29.94011976,657b66ea316d21385b68909f,,,,,,,,,,,1289.4608,1290.4503,,,1290.9504,1291.1832,,179,-1,,,,,,,,,,,,,,,,bars/044.png,bars/mask003.png,,,,,,,,,,,,2,2,,,,,,,2,10,2,10,,,,,,,,,,,1290.4504,1290.9504,1291.1833,1294.9497,space,3.752,,1294.9497,76,24,1295.9509,1295.9511,1299.5511,space,3.5514,,0,48,48,48,1,75,155,,,,,,,,
,,6164bf85b5dfa5ddff6da08d,65af55118f4b972623180b73,2024-01-23_07h58.18.694,bars,2023.2.3,MacIntel,29.94011976,657b66ea316d21385b68909f,,,,,,,,,,,1299.5633,1300.5509,,,1301.0502,1301.282,,168,-12,,,,,,,,,,,,,,,,bars/045.png,bars/mask008.png,,,,,,,,,,,,2,2,,,,,,,0,10,0,8,,,,,,,,,,,1300.5509,1301.0502,1301.282,1311.15,space,9.8554,,1311.1501,68,22,1312.1489,1312.149,1314.4512,space,2.2714,,0,49,49,49,1,100,10,,,,,,,,
,,6164bf85b5dfa5ddff6da08d,65af55118f4b972623180b73,2024-01-23_07h58.18.694,bars,2023.2.3,MacIntel,29.94011976,657b66ea316d21385b68909f,,,,,,,,,,,,,,,,,,,,,,,,,,,,,,,,,,,,,,,,,,,,,,,,,,,,,,,,,,,,,,,,,,,,,,,,,,,,,,,,,,,,,,,,,,,,,1314.4521,1374.4519,0,0,0,4,1,sequence_tables/blk031.csv
,,6164bf85b5dfa5ddff6da08d,65af55118f4b972623180b73,2024-01-23_07h58.18.694,bars,2023.2.3,MacIntel,29.94011976,657b66ea316d21385b68909f,,,,,,,,,,,1386.4703,1387.4491,,,1387.9525,1388.1854,,102,102,,,,,,,,,,,,,,,,bars/019.png,bars/mask002.png,,,,,,,,,,,,7,2,,,,,,,10,7,10,8,,,,,,1374.4651,1386.4525,space,11.9679,,1387.4491,1387.9525,1388.1855,1393.0188,space,4.822,,1393.0188,57,3,1394.0183,1394.0183,1394.0304,,,,0,0,0,0,1,45,105,,,,,,,,
,,6164bf85b5dfa5ddff6da08d,65af55118f4b972623180b73,2024-01-23_07h58.18.694,bars,2023.2.3,MacIntel,29.94011976,657b66ea316d21385b68909f,,,,,,,,,,,1394.0305,1395.0158,,,1395.5183,1395.7515,,126,126,,,,,,,,,,,,,,,,bars/039.png,bars/mask008.png,,,,,,,,,,,,2,2,,,,,,,10,5,10,6,,,,,,,,,,,1395.0159,1395.5183,1395.7516,1435.5525,space,39.7899,,1435.5526,49,21,1436.5522,1436.5522,1436.5661,,,,0,1,1,1,1,175,105,,,,,,,,
,,6164bf85b5dfa5ddff6da08d,65af55118f4b972623180b73,2024-01-23_07h58.18.694,bars,2023.2.3,MacIntel,29.94011976,657b66ea316d21385b68909f,,,,,,,,,,,1436.5663,1437.567,,,1438.0677,1438.3197,,121,121,,,,,,,,,,,,,,,,bars/009.png,bars/mask009.png,,,,,,,,,,,,1,2,,,,,,,10,3,9,3,,,,,,,,,,,1437.567,1438.0676,1438.3198,1442.7519,space,4.418,,1442.7521,74,16,1443.7524,1443.7525,1443.766,,,,0,2,2,2,1,15,105,,,,,,,,
,,6164bf85b5dfa5ddff6da08d,65af55118f4b972623180b73,2024-01-23_07h58.18.694,bars,2023.2.3,MacIntel,29.94011976,657b66ea316d21385b68909f,,,,,,,,,,,1443.7663,1444.7667,,,1445.2689,1445.5167,,42,42,,,,,,,,,,,,,,,,bars/034.png,bars/mask009.png,,,,,,,,,,,,0,2,,,,,,,8,1,6,0,,,,,,,,,,,1444.7668,1445.2689,1445.5168,1448.5682,space,3.0356,,1448.5682,83,23,1449.5678,1449.5678,1449.5791,,,,0,3,3,3,1,125,65,,,,,,,,
,,6164bf85b5dfa5ddff6da08d,65af55118f4b972623180b73,2024-01-23_07h58.18.694,bars,2023.2.3,MacIntel,29.94011976,657b66ea316d21385b68909f,,,,,,,,,,,1449.5793,1450.5672,,,1451.0695,1451.3183,,56,56,,,,,,,,,,,,,,,,bars/013.png,bars/mask005.png,,,,,,,,,,,,4,1,,,,,,,10,0,10,1,,,,,,,,,,,1450.5673,1451.0695,1451.3183,1457.5864,space,6.2509,,1457.5864,19,46,1458.585,1458.585,1458.5984,,,,0,4,4,4,1,75,10,,,,,,,,
,,6164bf85b5dfa5ddff6da08d,65af55118f4b972623180b73,2024-01-23_07h58.18.694,bars,2023.2.3,MacIntel,29.94011976,657b66ea316d21385b68909f,,,,,,,,,,,1458.5986,1459.6,,,1460.1,1460.3502,,74,254,,,,,,,,,,,,,,,,bars/018.png,bars/mask008.png,,,,,,,,,,,,0,2,,,,,,,8,0,9,1,,,,,,,,,,,1459.6001,1460.1,1460.3503,1468.8337,space,8.4687,,1468.8337,76,16,1469.8348,1469.8349,1469.8485,,,,0,5,5,5,1,150,90,,,,,,,,
,,6164bf85b5dfa5ddff6da08d,65af55118f4b972623180b73,2024-01-23_07h58.18.694,bars,2023.2.3,MacIntel,29.94011976,657b66ea316d21385b68909f,,,,,,,,,,,1469.8486,1470.853,,,1471.3533,1471.6016,,138,138,,,,,,,,,,,,,,,,bars/003.png,bars/mask005.png,,,,,,,,,,,,2,2,,,,,,,6,2,7,2,,,,,,,,,,,1470.853,1471.3532,1471.6016,1476.8847,space,5.2679,,1476.8847,67,2,1477.8839,1477.8839,1477.8957,,,,0,6,6,6,1,25,140,,,,,,,,
,,6164bf85b5dfa5ddff6da08d,65af55118f4b972623180b73,2024-01-23_07h58.18.694,bars,2023.2.3,MacIntel,29.94011976,657b66ea316d21385b68909f,,,,,,,,,,,1477.896,1478.8852,,,1479.3838,1479.6347,,57,57,,,,,,,,,,,,,,,,bars/021.png,bars/mask003.png,,,,,,,,,,,,0,2,,,,,,,8,0,9,0,,,,,,,,,,,1478.8852,1479.3838,1479.6347,1497.1852,space,17.5333,,1497.1853,82,13,1498.1855,1498.1856,1498.1982,,,,0,7,7,7,1,155,70,,,,,,,,
,,6164bf85b5dfa5ddff6da08d,65af55118f4b972623180b73,2024-01-23_07h58.18.694,bars,2023.2.3,MacIntel,29.94011976,657b66ea316d21385b68909f,,,,,,,,,,,1498.1984,1499.2019,,,1499.7007,1499.9522,,7,187,,,,,,,,,,,,,,,,bars/044.png,bars/mask008.png,,,,,,,,,,,,0,2,,,,,,,6,2,6,2,,,,,,,,,,,1499.202,1499.7007,1499.9523,1508.7354,space,8.7662,,1508.7356,68,32,1509.7353,1509.7354,1509.7494,,,,0,8,8,8,1,75,155,,,,,,,,
,,6164bf85b5dfa5ddff6da08d,65af55118f4b972623180b73,2024-01-23_07h58.18.694,bars,2023.2.3,MacIntel,29.94011976,657b66ea316d21385b68909f,,,,,,,,,,,1509.7497,1510.7509,,,1511.2537,1511.5019,,85,85,,,,,,,,,,,,,,,,bars/014.png,bars/mask001.png,,,,,,,,,,,,5,1,,,,,,,8,0,6,0,,,,,,,,,,,1510.7509,1511.2536,1511.5019,1515.268,space,3.7506,,1515.268,5,85,1516.2697,1516.2697,1516.2828,,,,0,9,9,9,1,80,0,,,,,,,,
,,6164bf85b5dfa5ddff6da08d,65af55118f4b972623180b73,2024-01-23_07h58.18.694,bars,2023.2.3,MacIntel,29.94011976,657b66ea316d21385b68909f,,,,,,,,,,,1516.283,1517.2849,,,1517.7862,1518.0362,,127,127,,,,,,,,,,,,,,,,bars/001.png,bars/mask006.png,,,,,,,,,,,,9,1,,,,,,,10,2,10,1,,,,,,,,,,,1517.2849,1517.7861,1518.0363,1521.7885,space,3.7331,,1521.7886,3,42,1522.7877,1522.7877,1522.8012,,,,0,10,10,10,1,130,85,,,,,,,,
,,6164bf85b5dfa5ddff6da08d,65af55118f4b972623180b73,2024-01-23_07h58.18.694,bars,2023.2.3,MacIntel,29.94011976,657b66ea316d21385b68909f,,,,,,,,,,,1522.8014,1523.8028,,,1524.3039,1524.5525,,158,158,,,,,,,,,,,,,,,,bars/007.png,bars/mask006.png,,,,,,,,,,,,4,1,,,,,,,10,4,10,4,,,,,,,,,,,1523.8028,1524.3038,1524.5526,1532.0192,space,7.4509,,1532.0193,17,77,1533.0188,1533.0189,1533.0312,,,,0,11,11,11,1,175,55,,,,,,,,
,,6164bf85b5dfa5ddff6da08d,65af55118f4b972623180b73,2024-01-23_07h58.18.694,bars,2023.2.3,MacIntel,29.94011976,657b66ea316d21385b68909f,,,,,,,,,,,1533.0314,1534.0377,,,1534.5356,1534.7863,,74,74,,,,,,,,,,,,,,,,bars/044.png,bars/mask006.png,,,,,,,,,,,,8,1,,,,,,,10,2,8,2,,,,,,,,,,,1534.0377,1534.5356,1534.7864,1538.8191,space,4.0167,,1538.8192,1,81,1539.8193,1539.8194,1539.8327,,,,0,12,12,12,1,75,155,,,,,,,,
,,6164bf85b5dfa5ddff6da08d,65af55118f4b972623180b73,2024-01-23_07h58.18.694,bars,2023.2.3,MacIntel,29.94011976,657b66ea316d21385b68909f,,,,,,,,,,,1539.8329,1540.8211,,,1541.3211,1541.5709,,102,102,,,,,,,,,,,,,,,,bars/012.png,bars/mask000.png,,,,,,,,,,,,5,1,,,,,,,8,4,8,4,,,,,,,,,,,1540.8211,1541.3211,1541.5709,1544.87,space,3.2821,,1544.8701,12,87,1545.8689,1545.8689,1545.882,,,,0,13,13,13,1,90,15,,,,,,,,
,,6164bf85b5dfa5ddff6da08d,65af55118f4b972623180b73,2024-01-23_07h58.18.694,bars,2023.2.3,MacIntel,29.94011976,657b66ea316d21385b68909f,,,,,,,,,,,1545.8822,1546.8707,,,1547.3687,1547.6204,,63,243,,,,,,,,,,,,,,,,bars/044.png,bars/mask002.png,,,,,,,,,,,,5,1,,,,,,,10,6,9,7,,,,,,,,,,,1546.8707,1547.3686,1547.6204,1555.4209,space,7.784,,1555.421,12,88,1556.4193,1556.4193,1556.4319,,,,0,14,14,14,1,75,155,,,,,,,,
,,6164bf85b5dfa5ddff6da08d,65af55118f4b972623180b73,2024-01-23_07h58.18.694,bars,2023.2.3,MacIntel,29.94011976,657b66ea316d21385b68909f,,,,,,,,,,,1556.432,1557.4352,,,1557.9385,1558.1862,,50,230,,,,,,,,,,,,,,,,bars/005.png,bars/mask008.png,,,,,,,,,,,,0,1,,,,,,,8,8,9,8,,,,,,,,,,,1557.4352,1557.9385,1558.1862,1564.6532,space,6.4496,,1564.6532,40,90,1565.6517,1565.6518,1565.6658,,,,0,15,15,15,1,10,140,,,,,,,,
,,6164bf85b5dfa5ddff6da08d,65af55118f4b972623180b73,2024-01-23_07h58.18.694,bars,2023.2.3,MacIntel,29.94011976,657b66ea316d21385b68909f,,,,,,,,,,,1565.666,1566.6687,,,1567.1685,1567.4207,,24,24,,,,,,,,,,,,,,,,bars/033.png,bars/mask009.png,,,,,,,,,,,,8,1,,,,,,,6,10,8,9,,,,,,,,,,,1566.6687,1567.1684,1567.4207,1574.486,space,7.056,,1574.4861,1,49,1575.4878,1575.4878,1575.5012,,,,0,16,16,16,1,25,155,,,,,,,,
,,6164bf85b5dfa5ddff6da08d,65af55118f4b972623180b73,2024-01-23_07h58.18.694,bars,2023.2.3,MacIntel,29.94011976,657b66ea316d21385b68909f,,,,,,,,,,,1575.5014,1576.502,,,1577.0038,1577.2543,,145,145,,,,,,,,,,,,,,,,bars/011.png,bars/mask007.png,,,,,,,,,,,,2,1,,,,,,,4,10,3,10,,,,,,,,,,,1576.5021,1577.0037,1577.2543,1580.9859,space,3.7218,,1580.9861,15,60,1581.9856,1581.9856,1581.9976,,,,0,17,17,17,1,160,85,,,,,,,,
,,6164bf85b5dfa5ddff6da08d,65af55118f4b972623180b73,2024-01-23_07h58.18.694,bars,2023.2.3,MacIntel,29.94011976,657b66ea316d21385b68909f,,,,,,,,,,,1581.9978,1582.9882,,,1583.4865,1583.7353,,101,101,,,,,,,,,,,,,,,,bars/024.png,bars/mask008.png,,,,,,,,,,,,0,1,,,,,,,2,10,1,9,,,,,,,,,,,1582.9883,1583.4865,1583.7354,1584.9025,space,1.1511,,1584.9026,19,69,1585.9045,1585.9045,1585.906,,,,0,18,18,18,1,120,170,,,,,,,,
,,6164bf85b5dfa5ddff6da08d,65af55118f4b972623180b73,2024-01-23_07h58.18.694,bars,2023.2.3,MacIntel,29.94011976,657b66ea316d21385b68909f,,,,,,,,,,,1585.9064,1586.9023,,,1587.4024,1587.6522,,28,208,,,,,,,,,,,,,,,,bars/045.png,bars/mask002.png,,,,,,,,,,,,3,2,,,,,,,0,8,0,8,,,,,,,,,,,1586.9024,1587.4023,1587.6523,1592.937,space,5.2702,,1592.9371,72,18,1593.9369,1593.9369,1593.9496,,,,0,19,19,19,1,100,10,,,,,,,,
,,6164bf85b5dfa5ddff6da08d,65af55118f4b972623180b73,2024-01-23_07h58.18.694,bars,2023.2.3,MacIntel,29.94011976,657b66ea316d21385b68909f,,,,,,,,,,,1593.9497,1594.9379,,,1595.437,1595.6882,,29,209,,,,,,,,,,,,,,,,bars/003.png,bars/mask001.png,,,,,,,,,,,,1,1,,,,,,,0,10,1,10,,,,,,,,,,,1594.9379,1595.4369,1595.6882,1599.6204,space,3.9231,,1599.6204,4,69,1600.6218,1600.6218,1600.6353,,,,0,20,20,20,1,25,140,,,,,,,,
,,6164bf85b5dfa5ddff6da08d,65af55118f4b972623180b73,2024-01-23_07h58.18.694,bars,2023.2.3,MacIntel,29.94011976,657b66ea316d21385b68909f,,,,,,,,,,,1600.6355,1601.6364,,,1602.1367,1602.3868,,111,111,,,,,,,,,,,,,,,,bars/003.png,bars/mask006.png,,,,,,,,,,,,0,2,,,,,,,0,10,0,9,,,,,,,,,,,1601.6364,1602.1367,1602.3869,1603.6703,space,1.2695,,1603.6704,86,29,1604.6719,1604.6719,1604.6858,,,,0,21,21,21,1,25,140,,,,,,,,
,,6164bf85b5dfa5ddff6da08d,65af55118f4b972623180b73,2024-01-23_07h58.18.694,bars,2023.2.3,MacIntel,29.94011976,657b66ea316d21385b68909f,,,,,,,,,,,1604.686,1605.6884,,,1606.1887,1606.4359,,41,221,,,,,,,,,,,,,,,,bars/028.png,bars/mask008.png,,,,,,,,,,,,2,1,,,,,,,2,10,2,10,,,,,,,,,,,1605.6885,1606.1887,1606.4361,1612.5228,space,6.0682,,1612.5229,4,79,1613.5214,1613.5215,1613.5343,,,,0,22,22,22,1,45,120,,,,,,,,
,,6164bf85b5dfa5ddff6da08d,65af55118f4b972623180b73,2024-01-23_07h58.18.694,bars,2023.2.3,MacIntel,29.94011976,657b66ea316d21385b68909f,,,,,,,,,,,1613.5345,1614.5224,,,1615.0207,1615.2711,,133,133,,,,,,,,,,,,,,,,bars/015.png,bars/mask008.png,,,,,,,,,,,,1,1,,,,,,,4,10,3,9,,,,,,,,,,,1614.5225,1615.0207,1615.2711,1616.6197,space,1.3365,,1616.6197,23,27,1617.6194,1617.6195,1617.6209,,,,0,23,23,23,1,110,160,,,,,,,,
,,6164bf85b5dfa5ddff6da08d,65af55118f4b972623180b73,2024-01-23_07h58.18.694,bars,2023.2.3,MacIntel,29.94011976,657b66ea316d21385b68909f,,,,,,,,,,,1617.6213,1618.6235,,,1619.1201,1619.373,,48,228,,,,,,,,,,,,,,,,bars/028.png,bars/mask001.png,,,,,,,,,,,,2,1,,,,,,,2,10,2,8,,,,,,,,,,,1618.6236,1619.12,1619.3731,1624.8384,space,5.4516,,1624.8384,3,72,1625.8362,1625.8362,1625.8494,,,,0,24,24,24,1,45,120,,,,,,,,
,,6164bf85b5dfa5ddff6da08d,65af55118f4b972623180b73,2024-01-23_07h58.18.694,bars,2023.2.3,MacIntel,29.94011976,657b66ea316d21385b68909f,,,,,,,,,,,1625.8495,1626.854,,,1627.353,1627.6032,,120,-60,,,,,,,,,,,,,,,,bars/012.png,bars/mask004.png,,,,,,,,,,,,0,1,,,,,,,0,10,0,10,,,,,,,,,,,1626.8541,1627.3529,1627.6033,1634.5198,space,6.901,,1634.5199,30,75,1635.5231,1635.5231,1635.536,,,,0,25,25,25,1,90,15,,,,,,,,
,,6164bf85b5dfa5ddff6da08d,65af55118f4b972623180b73,2024-01-23_07h58.18.694,bars,2023.2.3,MacIntel,29.94011976,657b66ea316d21385b68909f,,,,,,,,,,,1635.5362,1636.5364,,,1637.0373,1637.2877,,134,134,,,,,,,,,,,,,,,,bars/034.png,bars/mask005.png,,,,,,,,,,,,0,1,,,,,,,0,10,0,10,,,,,,,,,,,1636.5364,1637.0372,1637.2877,1641.6701,space,4.3705,,1641.6702,9,69,1642.6722,1642.6722,1642.6863,,,,0,26,26,26,1,125,65,,,,,,,,
,,6164bf85b5dfa5ddff6da08d,65af55118f4b972623180b73,2024-01-23_07h58.18.694,bars,2023.2.3,MacIntel,29.94011976,657b66ea316d21385b68909f,,,,,,,,,,,1642.6865,1643.688,,,1644.1877,1644.4365,,124,124,,,,,,,,,,,,,,,,bars/020.png,bars/mask002.png,,,,,,,,,,,,0,1,,,,,,,0,8,0,6,,,,,,,,,,,1643.6881,1644.1877,1644.4366,1648.4875,space,4.0404,,1648.4876,9,46,1649.488,1649.4881,1649.5008,,,,0,27,27,27,1,115,170,,,,,,,,
,,6164bf85b5dfa5ddff6da08d,65af55118f4b972623180b73,2024-01-23_07h58.18.694,bars,2023.2.3,MacIntel,29.94011976,657b66ea316d21385b68909f,,,,,,,,,,,1649.5009,1650.4894,,,1650.9878,1651.2375,,143,143,,,,,,,,,,,,,,,,bars/011.png,bars/mask008.png,,,,,,,,,,,,1,1,,,,,,,2,6,2,5,,,,,,,,,,,1650.4895,1650.9877,1651.2375,1659.0562,space,7.8023,,1659.0564,17,58,1660.0568,1660.0569,1660.0706,,,,0,28,28,28,1,160,85,,,,,,,,
,,6164bf85b5dfa5ddff6da08d,65af55118f4b972623180b73,2024-01-23_07h58.18.694,bars,2023.2.3,MacIntel,29.94011976,657b66ea316d21385b68909f,,,,,,,,,,,1660.0709,1661.0701,,,1661.5738,1661.8214,,110,110,,,,,,,,,,,,,,,,bars/040.png,bars/mask000.png,,,,,,,,,,,,0,1,,,,,,,0,8,0,8,,,,,,,,,,,1661.0702,1661.5737,1661.8215,1665.3245,space,3.4827,,1665.3245,30,75,1666.3216,1666.3216,1666.3303,,,,0,29,29,29,1,140,5,,,,,,,,
,,6164bf85b5dfa5ddff6da08d,65af55118f4b972623180b73,2024-01-23_07h58.18.694,bars,2023.2.3,MacIntel,29.94011976,657b66ea316d21385b68909f,,,,,,,,,,,1666.3307,1667.3227,,,1667.823,1668.0712,,92,92,,,,,,,,,,,,,,,,bars/025.png,bars/mask004.png,,,,,,,,,,,,0,1,,,,,,,0,6,0,7,,,,,,,,,,,1667.3228,1667.823,1668.0712,1670.6399,space,2.5478,,1670.64,13,52,1671.6398,1671.6399,1671.6527,,,,0,30,30,30,1,105,40,,,,,,,,
,,6164bf85b5dfa5ddff6da08d,65af55118f4b972623180b73,2024-01-23_07h58.18.694,bars,2023.2.3,MacIntel,29.94011976,657b66ea316d21385b68909f,,,,,,,,,,,1671.6529,1672.6535,,,1673.1551,1673.4074,,79,79,,,,,,,,,,,,,,,,bars/029.png,bars/mask009.png,,,,,,,,,,,,1,1,,,,,,,0,8,1,10,,,,,,,,,,,1672.6536,1673.155,1673.4075,1677.5204,space,4.1001,,1677.5204,11,34,1678.5232,1678.5232,1678.5354,,,,0,31,31,31,1,90,45,,,,,,,,
,,6164bf85b5dfa5ddff6da08d,65af55118f4b972623180b73,2024-01-23_07h58.18.694,bars,2023.2.3,MacIntel,29.94011976,657b66ea316d21385b68909f,,,,,,,,,,,1678.5357,1679.5382,,,1680.0385,1680.2877,,20,20,,,,,,,,,,,,,,,,bars/010.png,bars/mask000.png,,,,,,,,,,,,0,2,,,,,,,0,10,0,10,,,,,,,,,,,1679.5383,1680.0384,1680.2878,1684.34,space,4.0343,,1684.34,35,35,1685.3378,1685.3378,1685.3517,,,,0,32,32,32,1,165,55,,,,,,,,
,,6164bf85b5dfa5ddff6da08d,65af55118f4b972623180b73,2024-01-23_07h58.18.694,bars,2023.2.3,MacIntel,29.94011976,657b66ea316d21385b68909f,,,,,,,,,,,1685.3519,1686.3399,,,1686.8375,1687.0882,,47,227,,,,,,,,,,,,,,,,bars/010.png,bars/mask006.png,,,,,,,,,,,,7,2,,,,,,,0,10,0,9,,,,,,,,,,,1686.3399,1686.8374,1687.0883,1692.4735,space,5.3678,,1692.4736,62,8,1693.4714,1693.4715,1693.4832,,,,0,33,33,33,1,165,55,,,,,,,,
,,6164bf85b5dfa5ddff6da08d,65af55118f4b972623180b73,2024-01-23_07h58.18.694,bars,2023.2.3,MacIntel,29.94011976,657b66ea316d21385b68909f,,,,,,,,,,,1693.4833,1694.4729,,,1694.9707,1695.2226,,37,217,,,,,,,,,,,,,,,,bars/046.png,bars/mask001.png,,,,,,,,,,,,0,2,,,,,,,2,8,1,7,,,,,,,,,,,1694.4729,1694.9707,1695.2227,1701.3905,space,6.1501,,1701.3906,62,48,1702.3888,1702.3888,1702.4025,,,,0,34,34,34,1,155,85,,,,,,,,
,,6164bf85b5dfa5ddff6da08d,65af55118f4b972623180b73,2024-01-23_07h58.18.694,bars,2023.2.3,MacIntel,29.94011976,657b66ea316d21385b68909f,,,,,,,,,,,1702.4026,1703.4059,,,1703.9069,1704.1556,,68,68,,,,,,,,,,,,,,,,bars/027.png,bars/mask002.png,,,,,,,,,,,,3,2,,,,,,,0,6,0,7,,,,,,,,,,,1703.4059,1703.9069,1704.1557,1708.1906,space,4.0174,,1708.1906,42,18,1709.1903,1709.1904,1709.2029,,,,0,35,35,35,1,110,50,,,,,,,,
,,6164bf85b5dfa5ddff6da08d,65af55118f4b972623180b73,2024-01-23_07h58.18.694,bars,2023.2.3,MacIntel,29.94011976,657b66ea316d21385b68909f,,,,,,,,,,,1709.2031,1710.2066,,,1710.7057,1710.9578,,77,77,,,,,,,,,,,,,,,,bars/011.png,bars/mask006.png,,,,,,,,,,,,6,2,,,,,,,0,8,2,8,,,,,,,,,,,1710.2067,1710.7057,1710.9578,1719.8558,space,8.8829,,1719.8558,83,8,1720.8556,1720.8557,1720.8677,,,,0,36,36,36,1,160,85,,,,,,,,
,,6164bf85b5dfa5ddff6da08d,65af55118f4b972623180b73,2024-01-23_07h58.18.694,bars,2023.2.3,MacIntel,29.94011976,657b66ea316d21385b68909f,,,,,,,,,,,1720.8679,1721.8725,,,1722.3709,1722.6245,,104,104,,,,,,,,,,,,,,,,bars/028.png,bars/mask007.png,,,,,,,,,,,,3,2,,,,,,,0,6,0,7,,,,,,,,,,,1721.8726,1722.3709,1722.6245,1730.6232,space,7.9817,,1730.6232,59,16,1731.6222,1731.6222,1731.636,,,,0,37,37,37,1,45,120,,,,,,,,
,,6164bf85b5dfa5ddff6da08d,65af55118f4b972623180b73,2024-01-23_07h58.18.694,bars,2023.2.3,MacIntel,29.94011976,657b66ea316d21385b68909f,,,,,,,,,,,1731.6361,1732.6408,,,1733.138,1733.3902,,139,139,,,,,,,,,,,,,,,,bars/049.png,bars/mask005.png,,,,,,,,,,,,0,1,,,,,,,0,8,1,9,,,,,,,,,,,1732.6409,1733.1378,1733.3903,1734.3556,space,0.9487,,1734.3557,21,24,1735.3555,1735.3556,1735.359,,,,0,38,38,38,1,160,115,,,,,,,,
,,6164bf85b5dfa5ddff6da08d,65af55118f4b972623180b73,2024-01-23_07h58.18.694,bars,2023.2.3,MacIntel,29.94011976,657b66ea316d21385b68909f,,,,,,,,,,,1735.3594,1736.3549,,,1736.8557,1737.1072,,61,61,,,,,,,,,,,,,,,,bars/004.png,bars/mask001.png,,,,,,,,,,,,0,1,,,,,,,2,6,2,7,,,,,,,,,,,1736.355,1736.8557,1737.1072,1741.5729,space,4.4506,,1741.5729,36,64,1742.5743,1742.5743,1742.5874,,,,0,39,39,39,1,25,125,,,,,,,,
,,6164bf85b5dfa5ddff6da08d,65af55118f4b972623180b73,2024-01-23_07h58.18.694,bars,2023.2.3,MacIntel,29.94011976,657b66ea316d21385b68909f,,,,,,,,,,,1742.5877,1743.5905,,,1744.0883,1744.3403,,24,24,,,,,,,,,,,,,,,,bars/041.png,bars/mask007.png,,,,,,,,,,,,4,1,,,,,,,4,4,5,3,,,,,,,,,,,1743.5905,1744.0883,1744.3403,1757.5907,space,13.2334,,1757.5908,4,61,1758.5896,1758.5896,1758.6035,,,,0,40,40,40,1,20,85,,,,,,,,
,,6164bf85b5dfa5ddff6da08d,65af55118f4b972623180b73,2024-01-23_07h58.18.694,bars,2023.2.3,MacIntel,29.94011976,657b66ea316d21385b68909f,,,,,,,,,,,1758.6036,1759.6064,,,1760.1071,1760.3569,,132,132,,,,,,,,,,,,,,,,bars/045.png,bars/mask002.png,,,,,,,,,,,,0,1,,,,,,,2,6,1,7,,,,,,,,,,,1759.6064,1760.1071,1760.357,1764.1902,space,3.8177,,1764.1903,32,58,1765.1891,1765.1892,1765.2014,,,,0,41,41,41,1,100,10,,,,,,,,
,,6164bf85b5dfa5ddff6da08d,65af55118f4b972623180b73,2024-01-23_07h58.18.694,bars,2023.2.3,MacIntel,29.94011976,657b66ea316d21385b68909f,,,,,,,,,,,1765.2015,1766.1893,,,1766.6891,1766.9385,,139,139,,,,,,,,,,,,,,,,bars/017.png,bars/mask005.png,,,,,,,,,,,,2,1,,,,,,,4,4,3,3,,,,,,,,,,,1766.1894,1766.6891,1766.9385,1774.5408,space,7.5844,,1774.5409,6,86,1775.5389,1775.5389,1775.5529,,,,0,42,42,42,1,145,45,,,,,,,,
,,6164bf85b5dfa5ddff6da08d,65af55118f4b972623180b73,2024-01-23_07h58.18.694,bars,2023.2.3,MacIntel,29.94011976,657b66ea316d21385b68909f,,,,,,,,,,,1775.5531,1776.5567,,,1777.0557,1777.3057,,68,68,,,,,,,,,,,,,,,,bars/019.png,bars/mask009.png,,,,,,,,,,,,1,1,,,,,,,2,6,4,6,,,,,,,,,,,1776.5567,1777.0556,1777.3057,1782.9723,space,5.6529,,1782.9726,23,37,1783.9756,1783.9757,1783.9892,,,,0,43,43,43,1,45,105,,,,,,,,
,,6164bf85b5dfa5ddff6da08d,65af55118f4b972623180b73,2024-01-23_07h58.18.694,bars,2023.2.3,MacIntel,29.94011976,657b66ea316d21385b68909f,,,,,,,,,,,1783.9895,1784.9904,,,1785.4896,1785.7414,,136,136,,,,,,,,,,,,,,,,bars/024.png,bars/mask002.png,,,,,,,,,,,,0,1,,,,,,,0,8,0,8,,,,,,,,,,,1784.9905,1785.4895,1785.7415,1788.9905,space,3.2343,,1788.9906,16,34,1789.9899,1789.9899,1790.0016,,,,0,44,44,44,1,120,170,,,,,,,,
,,6164bf85b5dfa5ddff6da08d,65af55118f4b972623180b73,2024-01-23_07h58.18.694,bars,2023.2.3,MacIntel,29.94011976,657b66ea316d21385b68909f,,,,,,,,,,,1790.0019,1790.9924,,,1791.4904,1791.7399,,68,68,,,,,,,,,,,,,,,,bars/049.png,bars/mask008.png,,,,,,,,,,,,0,2,,,,,,,2,6,1,7,,,,,,,,,,,1790.9924,1791.4903,1791.74,1795.8249,space,4.0692,,1795.8249,88,47,1796.8237,1796.8237,1796.8336,,,,0,45,45,45,1,160,115,,,,,,,,
,,6164bf85b5dfa5ddff6da08d,65af55118f4b972623180b73,2024-01-23_07h58.18.694,bars,2023.2.3,MacIntel,29.94011976,657b66ea316d21385b68909f,,,,,,,,,,,1796.8338,1797.823,,,1798.3234,1798.5735,,23,203,,,,,,,,,,,,,,,,bars/009.png,bars/mask003.png,,,,,,,,,,,,0,1,,,,,,,0,4,0,4,,,,,,,,,,,1797.8231,1798.3233,1798.5736,1804.5917,space,6.0025,,1804.5917,8,82,1805.5891,1805.5892,1805.6023,,,,0,46,46,46,1,15,105,,,,,,,,
,,6164bf85b5dfa5ddff6da08d,65af55118f4b972623180b73,2024-01-23_07h58.18.694,bars,2023.2.3,MacIntel,29.94011976,657b66ea316d21385b68909f,,,,,,,,,,,1805.6024,1806.5901,,,1807.0903,1807.3391,,57,57,,,,,,,,,,,,,,,,bars/006.png,bars/mask000.png,,,,,,,,,,,,1,1,,,,,,,2,6,2,6,,,,,,,,,,,1806.5902,1807.0902,1807.3392,1815.2893,space,7.934,,1815.2895,22,43,1816.2916,1816.2916,1816.3064,,,,0,47,47,47,1,35,100,,,,,,,,
,,6164bf85b5dfa5ddff6da08d,65af55118f4b972623180b73,2024-01-23_07h58.18.694,bars,2023.2.3,MacIntel,29.94011976,657b66ea316d21385b68909f,,,,,,,,,,,1816.3067,1817.3075,,,1817.8093,1818.0562,,65,65,,,,,,,,,,,,,,,,bars/000.png,bars/mask004.png,,,,,,,,,,,,0,1,,,,,,,0,4,0,3,,,,,,,,,,,1817.3076,1817.8092,1818.0562,1825.4564,space,7.384,,1825.4564,25,80,1826.4564,1826.4565,1826.4685,,,,0,48,48,48,1,40,145,,,,,,,,
,,6164bf85b5dfa5ddff6da08d,65af55118f4b972623180b73,2024-01-23_07h58.18.694,bars,2023.2.3,MacIntel,29.94011976,657b66ea316d21385b68909f,,,,,,,,,,,1826.4687,1827.4571,,,1827.9561,1828.209,,28,28,,,,,,,,,,,,,,,,bars/025.png,bars/mask003.png,,,,,,,,,,,,2,2,,,,,,,2,2,2,3,,,,,,,,,,,1827.4572,1827.9561,1828.2091,1831.523,space,3.2994,,1831.5231,77,12,1832.5238,1832.5238,1832.5384,,,,0,49,49,49,1,105,40,,,,,,,,
,,6164bf85b5dfa5ddff6da08d,65af55118f4b972623180b73,2024-01-23_07h58.18.694,bars,2023.2.3,MacIntel,29.94011976,657b66ea316d21385b68909f,,,,,,,,,,,,,,,,,,,,,,,,,,,,,,,,,,,,,,,,,,,,,,,,,,,,,,,,,,,,,,,,,,,,,,,,,,,,,,,,,,,,,,,,,,,,,1832.5387,1892.527,0,1,1,3,1,sequence_tables/blk043.csv
,,6164bf85b5dfa5ddff6da08d,65af55118f4b972623180b73,2024-01-23_07h58.18.694,bars,2023.2.3,MacIntel,29.94011976,657b66ea316d21385b68909f,,,,,,,,,,,1939.1927,1940.1769,,,1940.677,1940.9273,,62,62,,,,,,,,,,,,,,,,bars/000.png,bars/mask001.png,,,,,,,,,,,,3,1,,,,,,,10,7,10,7,,,,,,1892.5405,1939.176,space,46.6195,,1940.1769,1940.677,1940.9275,1944.8258,space,3.8874,,1944.826,22,83,1945.8265,1945.8265,1945.8411,,,,0,0,0,0,1,40,145,,,,,,,,
,,6164bf85b5dfa5ddff6da08d,65af55118f4b972623180b73,2024-01-23_07h58.18.694,bars,2023.2.3,MacIntel,29.94011976,657b66ea316d21385b68909f,,,,,,,,,,,1945.8413,1946.8416,,,1947.3414,1947.5914,,148,148,,,,,,,,,,,,,,,,bars/047.png,bars/mask004.png,,,,,,,,,,,,0,1,,,,,,,8,9,8,8,,,,,,,,,,,1946.8416,1947.3413,1947.5914,1949.8606,space,2.254,,1949.8606,47,78,1950.8607,1950.8608,1950.8623,,,,0,1,1,1,1,15,70,,,,,,,,
,,6164bf85b5dfa5ddff6da08d,65af55118f4b972623180b73,2024-01-23_07h58.18.694,bars,2023.2.3,MacIntel,29.94011976,657b66ea316d21385b68909f,,,,,,,,,,,1950.8629,1951.8601,,,1952.3619,1952.6102,,96,96,,,,,,,,,,,,,,,,bars/026.png,bars/mask008.png,,,,,,,,,,,,4,2,,,,,,,6,7,4,7,,,,,,,,,,,1951.8601,1952.3619,1952.6102,1957.4755,space,4.8502,,1957.4756,61,11,1958.4748,1958.4748,1958.4893,,,,0,2,2,2,1,35,85,,,,,,,,
,,6164bf85b5dfa5ddff6da08d,65af55118f4b972623180b73,2024-01-23_07h58.18.694,bars,2023.2.3,MacIntel,29.94011976,657b66ea316d21385b68909f,,,,,,,,,,,1958.4893,1959.4929,,,1959.9946,1960.2415,,155,-25,,,,,,,,,,,,,,,,bars/036.png,bars/mask001.png,,,,,,,,,,,,5,1,,,,,,,8,9,8,10,,,,,,,,,,,1959.493,1959.9946,1960.2415,1971.3601,space,11.102,,1971.3601,10,45,1972.3613,1972.3614,1972.3757,,,,0,3,3,3,1,145,20,,,,,,,,
,,6164bf85b5dfa5ddff6da08d,65af55118f4b972623180b73,2024-01-23_07h58.18.694,bars,2023.2.3,MacIntel,29.94011976,657b66ea316d21385b68909f,,,,,,,,,,,1972.3759,1973.3769,,,1973.8765,1974.1265,,7,187,,,,,,,,,,,,,,,,bars/043.png,bars/mask006.png,,,,,,,,,,,,2,1,,,,,,,10,7,9,7,,,,,,,,,,,1973.3769,1973.8765,1974.1265,1981.5265,space,7.3851,,1981.5266,23,57,1982.5261,1982.5261,1982.5388,,,,0,4,4,4,1,30,130,,,,,,,,
,,6164bf85b5dfa5ddff6da08d,65af55118f4b972623180b73,2024-01-23_07h58.18.694,bars,2023.2.3,MacIntel,29.94011976,657b66ea316d21385b68909f,,,,,,,,,,,1982.5389,1983.5448,,,1984.0437,1984.2936,,77,77,,,,,,,,,,,,,,,,bars/001.png,bars/mask000.png,,,,,,,,,,,,5,2,,,,,,,8,5,8,7,,,,,,,,,,,1983.5448,1984.0436,1984.2937,1985.3948,space,1.0836,,1985.3948,53,8,1986.3938,1986.3939,1986.3969,,,,0,5,5,5,1,130,85,,,,,,,,
,,6164bf85b5dfa5ddff6da08d,65af55118f4b972623180b73,2024-01-23_07h58.18.694,bars,2023.2.3,MacIntel,29.94011976,657b66ea316d21385b68909f,,,,,,,,,,,1986.3974,1987.392,,,1987.8969,1988.1433,,44,44,,,,,,,,,,,,,,,,bars/033.png,bars/mask007.png,,,,,,,,,,,,4,1,,,,,,,10,3,10,3,,,,,,,,,,,1987.3921,1987.8969,1988.1434,1993.4102,space,5.2505,,1993.4103,19,69,1994.4116,1994.4117,1994.4261,,,,0,6,6,6,1,25,155,,,,,,,,
,,6164bf85b5dfa5ddff6da08d,65af55118f4b972623180b73,2024-01-23_07h58.18.694,bars,2023.2.3,MacIntel,29.94011976,657b66ea316d21385b68909f,,,,,,,,,,,1994.4264,1995.4268,,,1995.9258,1996.1775,,28,28,,,,,,,,,,,,,,,,bars/012.png,bars/mask001.png,,,,,,,,,,,,1,2,,,,,,,8,5,6,2,,,,,,,,,,,1995.4269,1995.9257,1996.1775,1999.8371,space,3.6505,,1999.8372,62,13,2000.8271,2000.8271,2000.8416,,,,0,7,7,7,1,90,15,,,,,,,,
,,6164bf85b5dfa5ddff6da08d,65af55118f4b972623180b73,2024-01-23_07h58.18.694,bars,2023.2.3,MacIntel,29.94011976,657b66ea316d21385b68909f,,,,,,,,,,,2000.8418,2001.8442,,,2002.3448,2002.5935,,17,17,,,,,,,,,,,,,,,,bars/024.png,bars/mask003.png,,,,,,,,,,,,0,2,,,,,,,10,3,10,2,,,,,,,,,,,2001.8443,2002.3447,2002.5935,2011.2277,space,8.6174,,2011.2278,77,27,2012.227,2012.227,2012.2409,,,,0,8,8,8,1,120,170,,,,,,,,
,,6164bf85b5dfa5ddff6da08d,65af55118f4b972623180b73,2024-01-23_07h58.18.694,bars,2023.2.3,MacIntel,29.94011976,657b66ea316d21385b68909f,,,,,,,,,,,2012.2411,2013.2291,,,2013.7257,2013.9791,,33,213,,,,,,,,,,,,,,,,bars/018.png,bars/mask008.png,,,,,,,,,,,,0,2,,,,,,,10,1,10,3,,,,,,,,,,,2013.2291,2013.7257,2013.9792,2023.0759,space,9.0853,,2023.076,63,57,2024.0758,2024.0759,2024.0878,,,,0,9,9,9,1,150,90,,,,,,,,
,,6164bf85b5dfa5ddff6da08d,65af55118f4b972623180b73,2024-01-23_07h58.18.694,bars,2023.2.3,MacIntel,29.94011976,657b66ea316d21385b68909f,,,,,,,,,,,2024.088,2025.0773,,,2025.5775,2025.8262,,117,117,,,,,,,,,,,,,,,,bars/000.png,bars/mask005.png,,,,,,,,,,,,0,2,,,,,,,8,0,9,0,,,,,,,,,,,2025.0774,2025.5774,2025.8262,2031.0598,space,5.2239,,2031.0598,77,28,2032.0592,2032.0593,2032.0704,,,,0,10,10,10,1,40,145,,,,,,,,
,,6164bf85b5dfa5ddff6da08d,65af55118f4b972623180b73,2024-01-23_07h58.18.694,bars,2023.2.3,MacIntel,29.94011976,657b66ea316d21385b68909f,,,,,,,,,,,2032.0707,2033.061,,,2033.5595,2033.8103,,40,40,,,,,,,,,,,,,,,,bars/017.png,bars/mask008.png,,,,,,,,,,,,2,2,,,,,,,6,2,7,2,,,,,,,,,,,2033.061,2033.5595,2033.8104,2037.9442,space,4.1187,,2037.9442,75,5,2038.9428,2038.9428,2038.9549,,,,0,11,11,11,1,145,45,,,,,,,,
,,6164bf85b5dfa5ddff6da08d,65af55118f4b972623180b73,2024-01-23_07h58.18.694,bars,2023.2.3,MacIntel,29.94011976,657b66ea316d21385b68909f,,,,,,,,,,,2038.9551,2039.9444,,,2040.4447,2040.6928,,114,114,,,,,,,,,,,,,,,,bars/036.png,bars/mask007.png,,,,,,,,,,,,0,1,,,,,,,8,0,9,0,,,,,,,,,,,2039.9444,2040.4446,2040.6928,2045.0461,space,4.3357,,2045.0462,31,86,2046.043,2046.043,2046.0559,,,,0,12,12,12,1,145,20,,,,,,,,
,,6164bf85b5dfa5ddff6da08d,65af55118f4b972623180b73,2024-01-23_07h58.18.694,bars,2023.2.3,MacIntel,29.94011976,657b66ea316d21385b68909f,,,,,,,,,,,2046.0562,2047.0461,,,2047.5428,2047.7956,,145,-35,,,,,,,,,,,,,,,,bars/021.png,bars/mask009.png,,,,,,,,,,,,6,1,,,,,,,10,2,9,0,,,,,,,,,,,2047.0462,2047.5428,2047.7956,2054.4435,space,6.6323,,2054.4436,10,75,2055.4442,2055.4442,2055.4579,,,,0,13,13,13,1,155,70,,,,,,,,
,,6164bf85b5dfa5ddff6da08d,65af55118f4b972623180b73,2024-01-23_07h58.18.694,bars,2023.2.3,MacIntel,29.94011976,657b66ea316d21385b68909f,,,,,,,,,,,2055.4581,2056.4599,,,2056.9604,2057.2111,,146,-34,,,,,,,,,,,,,,,,bars/046.png,bars/mask002.png,,,,,,,,,,,,7,1,,,,,,,8,4,10,6,,,,,,,,,,,2056.46,2056.9602,2057.2111,2064.7764,space,7.5516,,2064.7765,9,61,2065.7778,2065.7779,2065.7901,,,,0,14,14,14,1,155,85,,,,,,,,
,,6164bf85b5dfa5ddff6da08d,65af55118f4b972623180b73,2024-01-23_07h58.18.694,bars,2023.2.3,MacIntel,29.94011976,657b66ea316d21385b68909f,,,,,,,,,,,2065.7904,2066.7795,,,2067.2795,2067.5281,,8,188,,,,,,,,,,,,,,,,bars/023.png,bars/mask000.png,,,,,,,,,,,,6,1,,,,,,,10,2,10,3,,,,,,,,,,,2066.7795,2067.2794,2067.5281,2076.0811,space,8.538,,2076.0811,12,73,2077.0794,2077.0796,2077.0927,,,,0,15,15,15,1,20,115,,,,,,,,
,,6164bf85b5dfa5ddff6da08d,65af55118f4b972623180b73,2024-01-23_07h58.18.694,bars,2023.2.3,MacIntel,29.94011976,657b66ea316d21385b68909f,,,,,,,,,,,2077.0929,2078.0945,,,2078.594,2078.8444,,152,152,,,,,,,,,,,,,,,,bars/022.png,bars/mask002.png,,,,,,,,,,,,0,2,,,,,,,8,0,7,0,,,,,,,,,,,2078.0946,2078.594,2078.8445,2103.9296,space,25.0716,,2103.9297,57,48,2104.93,2104.9301,2104.9436,,,,0,16,16,16,1,95,20,,,,,,,,
,,6164bf85b5dfa5ddff6da08d,65af55118f4b972623180b73,2024-01-23_07h58.18.694,bars,2023.2.3,MacIntel,29.94011976,657b66ea316d21385b68909f,,,,,,,,,,,2104.9437,2105.9461,,,2106.4464,2106.6948,,29,209,,,,,,,,,,,,,,,,bars/043.png,bars/mask000.png,,,,,,,,,,,,10,1,,,,,,,10,0,10,0,,,,,,,,,,,2105.9461,2106.4464,2106.6948,2114.1966,space,7.4906,,2114.1966,1,79,2115.1946,2115.1947,2115.2077,,,,0,17,17,17,1,30,130,,,,,,,,
,,6164bf85b5dfa5ddff6da08d,65af55118f4b972623180b73,2024-01-23_07h58.18.694,bars,2023.2.3,MacIntel,29.94011976,657b66ea316d21385b68909f,,,,,,,,,,,2115.208,2116.2129,,,2116.7124,2116.9615,,178,178,,,,,,,,,,,,,,,,bars/010.png,bars/mask005.png,,,,,,,,,,,,5,1,,,,,,,10,2,9,4,,,,,,,,,,,2116.213,2116.7124,2116.9615,2119.7802,space,2.8006,,2119.7802,13,57,2120.7787,2120.7788,2120.7903,,,,0,18,18,18,1,165,55,,,,,,,,
,,6164bf85b5dfa5ddff6da08d,65af55118f4b972623180b73,2024-01-23_07h58.18.694,bars,2023.2.3,MacIntel,29.94011976,657b66ea316d21385b68909f,,,,,,,,,,,2120.7905,2121.7788,,,2122.2804,2122.5286,,142,-38,,,,,,,,,,,,,,,,bars/005.png,bars/mask006.png,,,,,,,,,,,,4,2,,,,,,,10,4,10,4,,,,,,,,,,,2121.7788,2122.2804,2122.5287,2129.4621,space,6.9184,,2129.4621,48,2,2130.4618,2130.4618,2130.4746,,,,0,19,19,19,1,10,140,,,,,,,,
,,6164bf85b5dfa5ddff6da08d,65af55118f4b972623180b73,2024-01-23_07h58.18.694,bars,2023.2.3,MacIntel,29.94011976,657b66ea316d21385b68909f,,,,,,,,,,,2130.4747,2131.4784,,,2131.9781,2132.2296,,22,22,,,,,,,,,,,,,,,,bars/040.png,bars/mask003.png,,,,,,,,,,,,3,2,,,,,,,10,6,9,6,,,,,,,,,,,2131.4784,2131.978,2132.2297,2133.7459,space,1.5031,,2133.7459,62,17,2134.7467,2134.7468,2134.7485,,,,0,20,20,20,1,140,5,,,,,,,,
,,6164bf85b5dfa5ddff6da08d,65af55118f4b972623180b73,2024-01-23_07h58.18.694,bars,2023.2.3,MacIntel,29.94011976,657b66ea316d21385b68909f,,,,,,,,,,,2134.7489,2135.7473,,,2136.2454,2136.4978,,33,213,,,,,,,,,,,,,,,,bars/013.png,bars/mask005.png,,,,,,,,,,,,0,2,,,,,,,8,4,7,2,,,,,,,,,,,2135.7474,2136.2454,2136.4978,2143.5983,space,7.0888,,2143.5984,42,23,2144.5956,2144.5956,2144.6101,,,,0,21,21,21,1,75,10,,,,,,,,
,,6164bf85b5dfa5ddff6da08d,65af55118f4b972623180b73,2024-01-23_07h58.18.694,bars,2023.2.3,MacIntel,29.94011976,657b66ea316d21385b68909f,,,,,,,,,,,2144.6103,2145.6115,,,2146.1125,2146.364,,156,156,,,,,,,,,,,,,,,,bars/045.png,bars/mask008.png,,,,,,,,,,,,0,2,,,,,,,10,6,9,8,,,,,,,,,,,2145.6116,2146.1124,2146.364,2147.3972,space,1.0178,,2147.3973,56,34,2148.3954,2148.3954,2148.3967,,,,0,22,22,22,1,100,10,,,,,,,,
,,6164bf85b5dfa5ddff6da08d,65af55118f4b972623180b73,2024-01-23_07h58.18.694,bars,2023.2.3,MacIntel,29.94011976,657b66ea316d21385b68909f,,,,,,,,,,,2148.3971,2149.3945,,,2149.8973,2150.1462,,158,158,,,,,,,,,,,,,,,,bars/049.png,bars/mask007.png,,,,,,,,,,,,9,1,,,,,,,10,4,10,2,,,,,,,,,,,2149.3945,2149.8973,2150.1462,2160.6131,space,10.4509,,2160.6131,2,43,2161.612,2161.6121,2161.6267,,,,0,23,23,23,1,160,115,,,,,,,,
,,6164bf85b5dfa5ddff6da08d,65af55118f4b972623180b73,2024-01-23_07h58.18.694,bars,2023.2.3,MacIntel,29.94011976,657b66ea316d21385b68909f,,,,,,,,,,,2161.6269,2162.6288,,,2163.1311,2163.3793,,145,145,,,,,,,,,,,,,,,,bars/017.png,bars/mask005.png,,,,,,,,,,,,10,1,,,,,,,10,2,10,2,,,,,,,,,,,2162.6288,2163.1311,2163.3793,2164.8136,space,1.4181,,2164.8137,0,80,2165.8112,2165.8113,2165.8248,,,,0,24,24,24,1,145,45,,,,,,,,
,,6164bf85b5dfa5ddff6da08d,65af55118f4b972623180b73,2024-01-23_07h58.18.694,bars,2023.2.3,MacIntel,29.94011976,657b66ea316d21385b68909f,,,,,,,,,,,2165.8249,2166.8136,,,2167.313,2167.5619,,29,209,,,,,,,,,,,,,,,,bars/003.png,bars/mask006.png,,,,,,,,,,,,6,1,,,,,,,8,4,7,4,,,,,,,,,,,2166.8136,2167.3129,2167.562,2174.5799,space,7.0021,,2174.58,4,69,2175.5809,2175.5809,2175.5936,,,,0,25,25,25,1,25,140,,,,,,,,
,,6164bf85b5dfa5ddff6da08d,65af55118f4b972623180b73,2024-01-23_07h58.18.694,bars,2023.2.3,MacIntel,29.94011976,657b66ea316d21385b68909f,,,,,,,,,,,2175.5938,2176.5961,,,2177.0957,2177.3459,,165,165,,,,,,,,,,,,,,,,bars/036.png,bars/mask000.png,,,,,,,,,,,,3,1,,,,,,,10,6,10,6,,,,,,,,,,,2176.5961,2177.0957,2177.3459,2181.0795,space,3.7196,,2181.0796,20,35,2182.0792,2182.0792,2182.0935,,,,0,26,26,26,1,145,20,,,,,,,,
,,6164bf85b5dfa5ddff6da08d,65af55118f4b972623180b73,2024-01-23_07h58.18.694,bars,2023.2.3,MacIntel,29.94011976,657b66ea316d21385b68909f,,,,,,,,,,,2182.0937,2183.0977,,,2183.5957,2183.8478,,170,-10,,,,,,,,,,,,,,,,bars/029.png,bars/mask000.png,,,,,,,,,,,,0,2,,,,,,,10,8,10,8,,,,,,,,,,,2183.0977,2183.5957,2183.8479,2186.9131,space,3.0496,,2186.9132,80,55,2187.915,2187.915,2187.9283,,,,0,27,27,27,1,90,45,,,,,,,,
,,6164bf85b5dfa5ddff6da08d,65af55118f4b972623180b73,2024-01-23_07h58.18.694,bars,2023.2.3,MacIntel,29.94011976,657b66ea316d21385b68909f,,,,,,,,,,,2187.9284,2188.9292,,,2189.4294,2189.6783,,153,153,,,,,,,,,,,,,,,,bars/037.png,bars/mask009.png,,,,,,,,,,,,9,1,,,,,,,8,10,10,9,,,,,,,,,,,2188.9293,2189.4294,2189.6783,2196.6811,space,6.9864,,2196.6811,3,48,2197.6797,2197.6798,2197.6946,,,,0,28,28,28,1,150,105,,,,,,,,
,,6164bf85b5dfa5ddff6da08d,65af55118f4b972623180b73,2024-01-23_07h58.18.694,bars,2023.2.3,MacIntel,29.94011976,657b66ea316d21385b68909f,,,,,,,,,,,2197.6948,2198.6963,,,2199.1952,2199.4473,,96,96,,,,,,,,,,,,,,,,bars/045.png,bars/mask003.png,,,,,,,,,,,,9,1,,,,,,,10,10,10,10,,,,,,,,,,,2198.6963,2199.1951,2199.4473,2205.3457,space,5.8846,,2205.3457,4,86,2206.3461,2206.3462,2206.3589,,,,0,29,29,29,1,100,10,,,,,,,,
,,6164bf85b5dfa5ddff6da08d,65af55118f4b972623180b73,2024-01-23_07h58.18.694,bars,2023.2.3,MacIntel,29.94011976,657b66ea316d21385b68909f,,,,,,,,,,,2206.3591,2207.3632,,,2207.8631,2208.1145,,175,175,,,,,,,,,,,,,,,,bars/018.png,bars/mask008.png,,,,,,,,,,,,1,1,,,,,,,8,10,6,10,,,,,,,,,,,2207.3632,2207.8631,2208.1146,2212.0468,space,3.9166,,2212.0469,25,85,2213.0473,2213.0474,2213.0607,,,,0,30,30,30,1,150,90,,,,,,,,
,,6164bf85b5dfa5ddff6da08d,65af55118f4b972623180b73,2024-01-23_07h58.18.694,bars,2023.2.3,MacIntel,29.94011976,657b66ea316d21385b68909f,,,,,,,,,,,2213.0609,2214.0618,,,2214.562,2214.8134,,46,46,,,,,,,,,,,,,,,,bars/044.png,bars/mask009.png,,,,,,,,,,,,0,1,,,,,,,6,8,8,9,,,,,,,,,,,2214.0618,2214.562,2214.8134,2219.6124,space,4.7836,,2219.6125,29,71,2220.6135,2220.6136,2220.6272,,,,0,31,31,31,1,75,155,,,,,,,,
,,6164bf85b5dfa5ddff6da08d,65af55118f4b972623180b73,2024-01-23_07h58.18.694,bars,2023.2.3,MacIntel,29.94011976,657b66ea316d21385b68909f,,,,,,,,,,,2220.6274,2221.6287,,,2222.1321,2222.379,,124,124,,,,,,,,,,,,,,,,bars/015.png,bars/mask006.png,,,,,,,,,,,,2,1,,,,,,,4,10,4,10,,,,,,,,,,,2221.6287,2222.1321,2222.379,2227.3966,space,5.0081,,2227.3967,14,36,2228.3947,2228.3947,2228.406,,,,0,32,32,32,1,110,160,,,,,,,,
,,6164bf85b5dfa5ddff6da08d,65af55118f4b972623180b73,2024-01-23_07h58.18.694,bars,2023.2.3,MacIntel,29.94011976,657b66ea316d21385b68909f,,,,,,,,,,,2228.4062,2229.3956,,,2229.899,2230.1476,,107,107,,,,,,,,,,,,,,,,bars/025.png,bars/mask003.png,,,,,,,,,,,,2,1,,,,,,,2,8,2,8,,,,,,,,,,,2229.3957,2229.899,2230.1477,2237.964,space,7.8002,,2237.9641,2,67,2238.9624,2238.9624,2238.9766,,,,0,33,33,33,1,105,40,,,,,,,,
,,6164bf85b5dfa5ddff6da08d,65af55118f4b972623180b73,2024-01-23_07h58.18.694,bars,2023.2.3,MacIntel,29.94011976,657b66ea316d21385b68909f,,,,,,,,,,,2238.9768,2239.9644,,,2240.4643,2240.7131,,173,173,,,,,,,,,,,,,,,,bars/046.png,bars/mask006.png,,,,,,,,,,,,2,1,,,,,,,4,6,5,6,,,,,,,,,,,2239.9644,2240.4642,2240.7132,2243.8624,space,3.138,,2243.8625,18,88,2244.8649,2244.865,2244.8784,,,,0,34,34,34,1,155,85,,,,,,,,
,,6164bf85b5dfa5ddff6da08d,65af55118f4b972623180b73,2024-01-23_07h58.18.694,bars,2023.2.3,MacIntel,29.94011976,657b66ea316d21385b68909f,,,,,,,,,,,2244.8786,2245.8827,,,2246.38,2246.6322,,45,225,,,,,,,,,,,,,,,,bars/033.png,bars/mask000.png,,,,,,,,,,,,1,1,,,,,,,2,4,2,4,,,,,,,,,,,2245.8828,2246.3799,2246.6322,2254.497,space,7.8509,,2254.4971,20,70,2255.4976,2255.4976,2255.5097,,,,0,35,35,35,1,25,155,,,,,,,,
,,6164bf85b5dfa5ddff6da08d,65af55118f4b972623180b73,2024-01-23_07h58.18.694,bars,2023.2.3,MacIntel,29.94011976,657b66ea316d21385b68909f,,,,,,,,,,,2255.5098,2256.4982,,,2256.9973,2257.2461,,68,68,,,,,,,,,,,,,,,,bars/000.png,bars/mask001.png,,,,,,,,,,,,0,1,,,,,,,4,2,4,1,,,,,,,,,,,2256.4983,2256.9972,2257.2462,2258.3645,space,1.1082,,2258.3645,28,77,2259.3641,2259.3641,2259.3656,,,,0,36,36,36,1,40,145,,,,,,,,
,,6164bf85b5dfa5ddff6da08d,65af55118f4b972623180b73,2024-01-23_07h58.18.694,bars,2023.2.3,MacIntel,29.94011976,657b66ea316d21385b68909f,,,,,,,,,,,2259.3661,2260.3637,,,2260.866,2261.1142,,145,-35,,,,,,,,,,,,,,,,bars/042.png,bars/mask002.png,,,,,,,,,,,,0,1,,,,,,,2,0,0,0,,,,,,,,,,,2260.3638,2260.866,2261.1143,2267.8642,space,6.7328,,2267.8643,0,70,2268.8638,2268.8639,2268.8759,,,,0,37,37,37,1,145,75,,,,,,,,
,,6164bf85b5dfa5ddff6da08d,65af55118f4b972623180b73,2024-01-23_07h58.18.694,bars,2023.2.3,MacIntel,29.94011976,657b66ea316d21385b68909f,,,,,,,,,,,2268.8761,2269.8655,,,2270.364,2270.6144,,10,10,,,,,,,,,,,,,,,,bars/004.png,bars/mask008.png,,,,,,,,,,,,0,1,,,,,,,0,0,0,2,,,,,,,,,,,2269.8655,2270.3639,2270.6145,2420.0988,space,149.4755,,2420.0989,15,65,2421.0999,2421.0999,2421.1125,,,,0,38,38,38,1,25,125,,,,,,,,
,,6164bf85b5dfa5ddff6da08d,65af55118f4b972623180b73,2024-01-23_07h58.18.694,bars,2023.2.3,MacIntel,29.94011976,657b66ea316d21385b68909f,,,,,,,,,,,2421.1127,2422.1014,,,2422.599,2422.8515,,59,59,,,,,,,,,,,,,,,,bars/028.png,bars/mask001.png,,,,,,,,,,,,1,1,,,,,,,2,0,2,0,,,,,,,,,,,2422.1015,2422.5989,2422.8515,2429.2178,space,6.3513,,2429.2179,14,61,2430.2166,2430.2166,2430.2293,,,,0,39,39,39,1,45,120,,,,,,,,
,,6164bf85b5dfa5ddff6da08d,65af55118f4b972623180b73,2024-01-23_07h58.18.694,bars,2023.2.3,MacIntel,29.94011976,657b66ea316d21385b68909f,,,,,,,,,,,2430.2295,2431.2183,,,2431.7163,2431.9686,,131,131,,,,,,,,,,,,,,,,bars/010.png,bars/mask007.png,,,,,,,,,,,,0,1,,,,,,,4,0,3,0,,,,,,,,,,,2431.2183,2431.7163,2431.9686,2440.0494,space,8.0698,,2440.0494,34,76,2441.052,2441.0521,2441.0658,,,,0,40,40,40,1,165,55,,,,,,,,
,,6164bf85b5dfa5ddff6da08d,65af55118f4b972623180b73,2024-01-23_07h58.18.694,bars,2023.2.3,MacIntel,29.94011976,657b66ea316d21385b68909f,,,,,,,,,,,2441.0659,2442.0667,,,2442.5668,2442.8163,,96,96,,,,,,,,,,,,,,,,bars/038.png,bars/mask006.png,,,,,,,,,,,,0,2,,,,,,,2,0,3,0,,,,,,,,,,,2442.0667,2442.5667,2442.8163,2456.1682,space,13.3352,,2456.1683,69,26,2457.1682,2457.1682,2457.1811,,,,0,41,41,41,1,165,70,,,,,,,,
,,6164bf85b5dfa5ddff6da08d,65af55118f4b972623180b73,2024-01-23_07h58.18.694,bars,2023.2.3,MacIntel,29.94011976,657b66ea316d21385b68909f,,,,,,,,,,,2457.1813,2458.1854,,,2458.6828,2458.933,,44,44,,,,,,,,,,,,,,,,bars/034.png,bars/mask000.png,,,,,,,,,,,,0,2,,,,,,,0,0,1,0,,,,,,,,,,,2458.1855,2458.6827,2458.9331,2461.0524,space,2.1003,,2461.0524,81,21,2462.0524,2462.0526,2462.0659,,,,0,42,42,42,1,125,65,,,,,,,,
,,6164bf85b5dfa5ddff6da08d,65af55118f4b972623180b73,2024-01-23_07h58.18.694,bars,2023.2.3,MacIntel,29.94011976,657b66ea316d21385b68909f,,,,,,,,,,,2462.066,2463.0693,,,2463.5686,2463.8158,,140,-40,,,,,,,,,,,,,,,,bars/046.png,bars/mask004.png,,,,,,,,,,,,1,1,,,,,,,2,2,1,2,,,,,,,,,,,2463.0693,2463.5685,2463.8159,2473.4371,space,9.601,,2473.4372,15,55,2474.4355,2474.4356,2474.4493,,,,0,43,43,43,1,155,85,,,,,,,,
,,6164bf85b5dfa5ddff6da08d,65af55118f4b972623180b73,2024-01-23_07h58.18.694,bars,2023.2.3,MacIntel,29.94011976,657b66ea316d21385b68909f,,,,,,,,,,,2474.4495,2475.4517,,,2475.9494,2476.1994,,31,31,,,,,,,,,,,,,,,,bars/033.png,bars/mask001.png,,,,,,,,,,,,3,1,,,,,,,4,4,4,3,,,,,,,,,,,2475.4517,2475.9494,2476.1997,2483.7832,space,7.5684,,2483.7834,6,56,2484.7851,2484.7851,2484.7972,,,,0,44,44,44,1,25,155,,,,,,,,
,,6164bf85b5dfa5ddff6da08d,65af55118f4b972623180b73,2024-01-23_07h58.18.694,bars,2023.2.3,MacIntel,29.94011976,657b66ea316d21385b68909f,,,,,,,,,,,2484.7974,2485.786,,,2486.2853,2486.5332,,111,111,,,,,,,,,,,,,,,,bars/022.png,bars/mask001.png,,,,,,,,,,,,3,1,,,,,,,6,2,6,2,,,,,,,,,,,2485.7861,2486.2852,2486.5332,2490.7523,space,4.2015,,2490.7523,16,89,2491.752,2491.7521,2491.7649,,,,0,45,45,45,1,95,20,,,,,,,,
,,6164bf85b5dfa5ddff6da08d,65af55118f4b972623180b73,2024-01-23_07h58.18.694,bars,2023.2.3,MacIntel,29.94011976,657b66ea316d21385b68909f,,,,,,,,,,,2491.765,2492.7527,,,2493.2532,2493.5033,,41,41,,,,,,,,,,,,,,,,bars/028.png,bars/mask007.png,,,,,,,,,,,,7,1,,,,,,,8,0,8,0,,,,,,,,,,,2492.7527,2493.2532,2493.5034,2498.4025,space,4.8835,,2498.4025,4,79,2499.3996,2499.3997,2499.412,,,,0,46,46,46,1,45,120,,,,,,,,
,,6164bf85b5dfa5ddff6da08d,65af55118f4b972623180b73,2024-01-23_07h58.18.694,bars,2023.2.3,MacIntel,29.94011976,657b66ea316d21385b68909f,,,,,,,,,,,2499.4122,2500.4016,,,2500.9025,2501.1523,,149,149,,,,,,,,,,,,,,,,bars/011.png,bars/mask003.png,,,,,,,,,,,,6,1,,,,,,,10,2,9,2,,,,,,,,,,,2500.4016,2500.9024,2501.1524,2504.153,space,2.9821,,2504.1531,11,64,2505.1529,2505.153,2505.166,,,,0,47,47,47,1,160,85,,,,,,,,
,,6164bf85b5dfa5ddff6da08d,65af55118f4b972623180b73,2024-01-23_07h58.18.694,bars,2023.2.3,MacIntel,29.94011976,657b66ea316d21385b68909f,,,,,,,,,,,2505.1661,2506.1689,,,2506.6677,2506.9184,,105,105,,,,,,,,,,,,,,,,bars/008.png,bars/mask009.png,,,,,,,,,,,,8,1,,,,,,,8,0,9,0,,,,,,,,,,,2506.169,2506.6677,2506.9184,2511.9031,space,4.966,,2511.9032,5,75,2512.9049,2512.9049,2512.9182,,,,0,48,48,48,1,110,0,,,,,,,,
,,6164bf85b5dfa5ddff6da08d,65af55118f4b972623180b73,2024-01-23_07h58.18.694,bars,2023.2.3,MacIntel,29.94011976,657b66ea316d21385b68909f,,,,,,,,,,,2512.9183,2513.9201,,,2514.4196,2514.6689,,140,140,,,,,,,,,,,,,,,,bars/001.png,bars/mask008.png,,,,,,,,,,,,6,1,,,,,,,10,2,9,1,,,,,,,,,,,2513.9201,2514.4196,2514.669,2518.8693,space,4.1829,,2518.8695,10,55,2519.8682,2519.8683,2519.8808,,,,0,49,49,49,1,130,85,,,,,,,,
,,6164bf85b5dfa5ddff6da08d,65af55118f4b972623180b73,2024-01-23_07h58.18.694,bars,2023.2.3,MacIntel,29.94011976,657b66ea316d21385b68909f,,,,,,,,,,,,,,,,,,,,,,,,,,,,,,,,,,,,,,,,,,,,,,,,,,,,,,,,,,,,,,,,,,,,,,,,,,,,,,,,,,,,,,,,,,,,,2519.8811,2579.8703,0,2,2,1,1,sequence_tables/blk006.csv
,,6164bf85b5dfa5ddff6da08d,65af55118f4b972623180b73,2024-01-23_07h58.18.694,bars,2023.2.3,MacIntel,29.94011976,657b66ea316d21385b68909f,,,,,,,,,,,2587.0843,2588.0698,,,2588.57,2588.8176,,151,151,,,,,,,,,,,,,,,,bars/024.png,bars/mask003.png,,,,,,,,,,,,1,2,,,,,,,1,3,2,3,,,,,,2579.885,2587.0684,space,7.1689,,2588.0698,2588.5699,2588.8178,2592.5872,space,3.7554,,2592.5875,31,19,2593.5876,2593.5878,2593.6012,,,,0,0,0,0,1,120,170,,,,,,,,
,,6164bf85b5dfa5ddff6da08d,65af55118f4b972623180b73,2024-01-23_07h58.18.694,bars,2023.2.3,MacIntel,29.94011976,657b66ea316d21385b68909f,,,,,,,,,,,2593.6014,2594.6034,,,2595.1039,2595.3522,,179,179,,,,,,,,,,,,,,,,bars/047.png,bars/mask000.png,,,,,,,,,,,,2,1,,,,,,,3,5,4,6,,,,,,,,,,,2594.6035,2595.1039,2595.3524,2601.7179,space,6.3513,,2601.7179,16,71,2602.7209,2602.721,2602.7305,,,,0,1,1,1,1,15,70,,,,,,,,
,,6164bf85b5dfa5ddff6da08d,65af55118f4b972623180b73,2024-01-23_07h58.18.694,bars,2023.2.3,MacIntel,29.94011976,657b66ea316d21385b68909f,,,,,,,,,,,2602.7306,2603.7202,,,2604.2188,2604.4709,,54,54,,,,,,,,,,,,,,,,bars/046.png,bars/mask000.png,,,,,,,,,,,,0,2,,,,,,,1,3,2,3,,,,,,,,,,,2603.7202,2604.2187,2604.4709,2609.2525,space,4.7693,,2609.2525,79,31,2610.2534,2610.2535,2610.2682,,,,0,2,2,2,1,155,85,,,,,,,,
,,6164bf85b5dfa5ddff6da08d,65af55118f4b972623180b73,2024-01-23_07h58.18.694,bars,2023.2.3,MacIntel,29.94011976,657b66ea316d21385b68909f,,,,,,,,,,,2610.2684,2611.2696,,,2611.7708,2612.019,,9,9,,,,,,,,,,,,,,,,bars/032.png,bars/mask001.png,,,,,,,,,,,,1,2,,,,,,,0,1,1,1,,,,,,,,,,,2611.2697,2611.7708,2612.019,2613.1529,space,1.122,,2613.1529,64,11,2614.1536,2614.1536,2614.1657,,,,0,3,3,3,1,125,20,,,,,,,,
,,6164bf85b5dfa5ddff6da08d,65af55118f4b972623180b73,2024-01-23_07h58.18.694,bars,2023.2.3,MacIntel,29.94011976,657b66ea316d21385b68909f,,,,,,,,,,,2614.1658,2615.1715,,,2615.6706,2615.9202,,151,151,,,,,,,,,,,,,,,,bars/007.png,bars/mask002.png,,,,,,,,,,,,0,1,,,,,,,2,3,1,3,,,,,,,,,,,2615.1716,2615.6706,2615.9203,2768.6055,space,152.675,,2768.6055,24,84,2769.6041,2769.6042,2769.6208,,,,0,4,4,4,1,175,55,,,,,,,,
,,6164bf85b5dfa5ddff6da08d,65af55118f4b972623180b73,2024-01-23_07h58.18.694,bars,2023.2.3,MacIntel,29.94011976,657b66ea316d21385b68909f,,,,,,,,,,,2769.621,2770.6201,,,2771.1209,2771.3716,,47,47,,,,,,,,,,,,,,,,bars/001.png,bars/mask001.png,,,,,,,,,,,,0,2,,,,,,,4,1,3,1,,,,,,,,,,,2770.6202,2771.1208,2771.3717,2776.9401,space,5.5551,,2776.9406,83,38,2777.9397,2777.9399,2777.9541,,,,0,5,5,5,1,130,85,,,,,,,,
,,6164bf85b5dfa5ddff6da08d,65af55118f4b972623180b73,2024-01-23_07h58.18.694,bars,2023.2.3,MacIntel,29.94011976,657b66ea316d21385b68909f,,,,,,,,,,,2777.9543,2778.9559,,,2779.4535,2779.7064,,57,57,,,,,,,,,,,,,,,,bars/038.png,bars/mask004.png,,,,,,,,,,,,1,2,,,,,,,6,3,5,2,,,,,,,,,,,2778.956,2779.4534,2779.7064,2786.5579,space,6.8339,,2786.5581,72,13,2787.5562,2787.5563,2787.5691,,,,0,6,6,6,1,165,70,,,,,,,,
,,6164bf85b5dfa5ddff6da08d,65af55118f4b972623180b73,2024-01-23_07h58.18.694,bars,2023.2.3,MacIntel,29.94011976,657b66ea316d21385b68909f,,,,,,,,,,,2787.5693,2788.5727,,,2789.0726,2789.3205,,30,30,,,,,,,,,,,,,,,,bars/048.png,bars/mask007.png,,,,,,,,,,,,2,1,,,,,,,4,5,5,4,,,,,,,,,,,2788.5728,2789.0725,2789.3205,2792.0896,space,2.7526,,2792.0896,20,35,2793.0891,2793.0893,2793.1019,,,,0,7,7,7,1,50,175,,,,,,,,
,,6164bf85b5dfa5ddff6da08d,65af55118f4b972623180b73,2024-01-23_07h58.18.694,bars,2023.2.3,MacIntel,29.94011976,657b66ea316d21385b68909f,,,,,,,,,,,2793.1021,2794.1061,,,2794.6068,2794.8575,,131,-49,,,,,,,,,,,,,,,,bars/031.png,bars/mask004.png,,,,,,,,,,,,4,1,,,,,,,6,7,7,8,,,,,,,,,,,2794.1061,2794.6068,2794.8576,2800.1877,space,5.3198,,2800.1877,11,84,2801.1902,2801.1903,2801.2037,,,,0,8,8,8,1,120,35,,,,,,,,
,,6164bf85b5dfa5ddff6da08d,65af55118f4b972623180b73,2024-01-23_07h58.18.694,bars,2023.2.3,MacIntel,29.94011976,657b66ea316d21385b68909f,,,,,,,,,,,2801.2038,2802.2074,,,2802.7069,2802.9564,,49,49,,,,,,,,,,,,,,,,bars/026.png,bars/mask003.png,,,,,,,,,,,,3,1,,,,,,,4,9,5,8,,,,,,,,,,,2802.2074,2802.7068,2802.9565,2808.1394,space,5.1636,,2808.1395,14,36,2809.1379,2809.138,2809.151,,,,0,9,9,9,1,35,85,,,,,,,,
,,6164bf85b5dfa5ddff6da08d,65af55118f4b972623180b73,2024-01-23_07h58.18.694,bars,2023.2.3,MacIntel,29.94011976,657b66ea316d21385b68909f,,,,,,,,,,,2809.1512,2810.1396,,,2810.6405,2810.889,,133,133,,,,,,,,,,,,,,,,bars/042.png,bars/mask006.png,,,,,,,,,,,,4,1,,,,,,,6,10,6,10,,,,,,,,,,,2810.1396,2810.6404,2810.889,2816.0065,space,5.1011,,2816.0067,12,58,2817.0077,2817.0077,2817.0197,,,,0,10,10,10,1,145,75,,,,,,,,
,,6164bf85b5dfa5ddff6da08d,65af55118f4b972623180b73,2024-01-23_07h58.18.694,bars,2023.2.3,MacIntel,29.94011976,657b66ea316d21385b68909f,,,,,,,,,,,2817.0198,2818.0234,,,2818.5224,2818.7725,,123,123,,,,,,,,,,,,,,,,bars/040.png,bars/mask007.png,,,,,,,,,,,,4,1,,,,,,,8,8,9,9,,,,,,,,,,,2818.0235,2818.5223,2818.7725,2822.2227,space,3.4344,,2822.2228,17,62,2823.2241,2823.2242,2823.2377,,,,0,11,11,11,1,140,5,,,,,,,,
,,6164bf85b5dfa5ddff6da08d,65af55118f4b972623180b73,2024-01-23_07h58.18.694,bars,2023.2.3,MacIntel,29.94011976,657b66ea316d21385b68909f,,,,,,,,,,,2823.2378,2824.2374,,,2824.7408,2824.9905,,63,63,,,,,,,,,,,,,,,,bars/029.png,bars/mask004.png,,,,,,,,,,,,3,2,,,,,,,6,6,5,8,,,,,,,,,,,2824.2375,2824.7407,2824.9906,2829.089,space,4.0838,,2829.089,27,18,2830.0876,2830.0876,2830.1004,,,,0,12,12,12,1,90,45,,,,,,,,
,,6164bf85b5dfa5ddff6da08d,65af55118f4b972623180b73,2024-01-23_07h58.18.694,bars,2023.2.3,MacIntel,29.94011976,657b66ea316d21385b68909f,,,,,,,,,,,2830.1006,2831.0894,,,2831.5877,2831.8388,,39,219,,,,,,,,,,,,,,,,bars/045.png,bars/mask001.png,,,,,,,,,,,,0,2,,,,,,,4,4,4,5,,,,,,,,,,,2831.0895,2831.5877,2831.8389,2840.0712,space,8.2179,,2840.0713,61,29,2841.0709,2841.071,2841.0833,,,,0,13,13,13,1,100,10,,,,,,,,
,,6164bf85b5dfa5ddff6da08d,65af55118f4b972623180b73,2024-01-23_07h58.18.694,bars,2023.2.3,MacIntel,29.94011976,657b66ea316d21385b68909f,,,,,,,,,,,2841.0834,2842.0711,,,2842.5717,2842.8246,,141,141,,,,,,,,,,,,,,,,bars/028.png,bars/mask008.png,,,,,,,,,,,,2,2,,,,,,,6,6,6,7,,,,,,,,,,,2842.0712,2842.5717,2842.8247,2846.99,space,4.1549,,2846.9901,84,21,2847.9902,2847.9903,2848.0043,,,,0,14,14,14,1,45,120,,,,,,,,
,,6164bf85b5dfa5ddff6da08d,65af55118f4b972623180b73,2024-01-23_07h58.18.694,bars,2023.2.3,MacIntel,29.94011976,657b66ea316d21385b68909f,,,,,,,,,,,2848.0044,2849.0054,,,2849.5071,2849.7567,,108,108,,,,,,,,,,,,,,,,bars/047.png,bars/mask008.png,,,,,,,,,,,,0,2,,,,,,,8,4,8,3,,,,,,,,,,,2849.0054,2849.507,2849.7567,2850.9573,space,1.1908,,2850.9575,87,38,2851.9567,2851.9567,2851.9579,,,,0,15,15,15,1,15,70,,,,,,,,
,,6164bf85b5dfa5ddff6da08d,65af55118f4b972623180b73,2024-01-23_07h58.18.694,bars,2023.2.3,MacIntel,29.94011976,657b66ea316d21385b68909f,,,,,,,,,,,2851.9583,2852.9577,,,2853.4572,2853.7044,,58,58,,,,,,,,,,,,,,,,bars/010.png,bars/mask006.png,,,,,,,,,,,,4,2,,,,,,,10,6,10,4,,,,,,,,,,,2852.9578,2853.4572,2853.7044,2857.3748,space,3.652,,2857.3749,73,3,2858.3744,2858.3744,2858.3879,,,,0,16,16,16,1,165,55,,,,,,,,
,,6164bf85b5dfa5ddff6da08d,65af55118f4b972623180b73,2024-01-23_07h58.18.694,bars,2023.2.3,MacIntel,29.94011976,657b66ea316d21385b68909f,,,,,,,,,,,2858.388,2859.3907,,,2859.8895,2860.1382,,73,73,,,,,,,,,,,,,,,,bars/027.png,bars/mask004.png,,,,,,,,,,,,1,2,,,,,,,10,4,10,5,,,,,,,,,,,2859.3909,2859.8894,2860.1383,2865.2062,space,5.0526,,2865.2063,37,23,2866.2077,2866.2078,2866.2203,,,,0,17,17,17,1,110,50,,,,,,,,
,,6164bf85b5dfa5ddff6da08d,65af55118f4b972623180b73,2024-01-23_07h58.18.694,bars,2023.2.3,MacIntel,29.94011976,657b66ea316d21385b68909f,,,,,,,,,,,2866.2205,2867.2237,,,2867.7237,2867.9735,,98,98,,,,,,,,,,,,,,,,bars/002.png,bars/mask008.png,,,,,,,,,,,,5,2,,,,,,,10,6,9,8,,,,,,,,,,,2867.2238,2867.7237,2867.9735,2876.689,space,8.7054,,2876.6893,32,13,2877.6881,2877.6882,2877.7022,,,,0,18,18,18,1,130,85,,,,,,,,
,,6164bf85b5dfa5ddff6da08d,65af55118f4b972623180b73,2024-01-23_07h58.18.694,bars,2023.2.3,MacIntel,29.94011976,657b66ea316d21385b68909f,,,,,,,,,,,2877.7023,2878.6916,,,2879.1908,2879.4411,,122,-58,,,,,,,,,,,,,,,,bars/006.png,bars/mask009.png,,,,,,,,,,,,2,2,,,,,,,10,8,10,8,,,,,,,,,,,2878.6916,2879.1907,2879.4411,2886.6586,space,7.1986,,2886.6587,87,22,2887.6573,2887.6574,2887.6693,,,,0,19,19,19,1,35,100,,,,,,,,
,,6164bf85b5dfa5ddff6da08d,65af55118f4b972623180b73,2024-01-23_07h58.18.694,bars,2023.2.3,MacIntel,29.94011976,657b66ea316d21385b68909f,,,,,,,,,,,2887.6695,2888.6574,,,2889.157,2889.4082,,87,87,,,,,,,,,,,,,,,,bars/022.png,bars/mask004.png,,,,,,,,,,,,7,1,,,,,,,10,6,10,6,,,,,,,,,,,2888.6575,2889.157,2889.4083,2898.0419,space,8.6159,,2898.0423,8,67,2899.0384,2899.0385,2899.0526,,,,0,20,20,20,1,95,20,,,,,,,,
,,6164bf85b5dfa5ddff6da08d,65af55118f4b972623180b73,2024-01-23_07h58.18.694,bars,2023.2.3,MacIntel,29.94011976,657b66ea316d21385b68909f,,,,,,,,,,,2899.0528,2900.0579,,,2900.5584,2900.8073,,67,67,,,,,,,,,,,,,,,,bars/014.png,bars/mask004.png,,,,,,,,,,,,4,1,,,,,,,8,4,7,7,,,,,,,,,,,2900.058,2900.5584,2900.8073,2906.8755,space,6.0529,,2906.8755,13,67,2907.8746,2907.8746,2907.8889,,,,0,21,21,21,1,80,0,,,,,,,,
,,6164bf85b5dfa5ddff6da08d,65af55118f4b972623180b73,2024-01-23_07h58.18.694,bars,2023.2.3,MacIntel,29.94011976,657b66ea316d21385b68909f,,,,,,,,,,,2907.8892,2908.8911,,,2909.3915,2909.6396,,128,128,,,,,,,,,,,,,,,,bars/021.png,bars/mask001.png,,,,,,,,,,,,1,1,,,,,,,10,2,10,2,,,,,,,,,,,2908.8911,2909.3915,2909.6397,2915.9225,space,6.2681,,2915.9225,27,58,2916.9219,2916.922,2916.9335,,,,0,22,22,22,1,155,70,,,,,,,,
,,6164bf85b5dfa5ddff6da08d,65af55118f4b972623180b73,2024-01-23_07h58.18.694,bars,2023.2.3,MacIntel,29.94011976,657b66ea316d21385b68909f,,,,,,,,,,,2916.9336,2917.9249,,,2918.425,2918.6744,,165,-15,,,,,,,,,,,,,,,,bars/039.png,bars/mask000.png,,,,,,,,,,,,6,1,,,,,,,10,0,9,0,,,,,,,,,,,2917.925,2918.425,2918.6744,2923.1763,space,4.4881,,2923.1764,10,60,2924.1739,2924.1739,2924.1872,,,,0,23,23,23,1,175,105,,,,,,,,
,,6164bf85b5dfa5ddff6da08d,65af55118f4b972623180b73,2024-01-23_07h58.18.694,bars,2023.2.3,MacIntel,29.94011976,657b66ea316d21385b68909f,,,,,,,,,,,2924.1873,2925.1757,,,2925.6747,2925.9255,,86,86,,,,,,,,,,,,,,,,bars/019.png,bars/mask009.png,,,,,,,,,,,,1,2,,,,,,,8,2,8,2,,,,,,,,,,,2925.1757,2925.6747,2925.9255,2926.9566,space,1.0171,,2926.9567,41,19,2927.9569,2927.957,2927.9602,,,,0,24,24,24,1,45,105,,,,,,,,
,,6164bf85b5dfa5ddff6da08d,65af55118f4b972623180b73,2024-01-23_07h58.18.694,bars,2023.2.3,MacIntel,29.94011976,657b66ea316d21385b68909f,,,,,,,,,,,2927.9606,2928.9578,,,2929.4589,2929.7057,,54,234,,,,,,,,,,,,,,,,bars/019.png,bars/mask007.png,,,,,,,,,,,,7,1,,,,,,,10,4,10,3,,,,,,,,,,,2928.9579,2929.4588,2929.706,2936.807,space,7.085,,2936.8071,9,51,2937.8064,2937.8065,2937.8188,,,,0,25,25,25,1,45,105,,,,,,,,
,,6164bf85b5dfa5ddff6da08d,65af55118f4b972623180b73,2024-01-23_07h58.18.694,bars,2023.2.3,MacIntel,29.94011976,657b66ea316d21385b68909f,,,,,,,,,,,2937.819,2938.8097,,,2939.3083,2939.5581,,132,132,,,,,,,,,,,,,,,,bars/018.png,bars/mask000.png,,,,,,,,,,,,3,1,,,,,,,8,6,8,6,,,,,,,,,,,2938.8097,2939.3082,2939.5581,2941.9905,space,2.4179,,2941.9908,18,42,2942.9923,2942.9923,2942.9938,,,,0,26,26,26,1,150,90,,,,,,,,
,,6164bf85b5dfa5ddff6da08d,65af55118f4b972623180b73,2024-01-23_07h58.18.694,bars,2023.2.3,MacIntel,29.94011976,657b66ea316d21385b68909f,,,,,,,,,,,2942.9943,2943.9922,,,2944.4912,2944.7429,,124,124,,,,,,,,,,,,,,,,bars/030.png,bars/mask000.png,,,,,,,,,,,,3,1,,,,,,,6,4,7,4,,,,,,,,,,,2943.9923,2944.4911,2944.743,2950.025,space,5.2665,,2950.0252,16,59,2951.026,2951.0261,2951.0379,,,,0,27,27,27,1,140,65,,,,,,,,
,,6164bf85b5dfa5ddff6da08d,65af55118f4b972623180b73,2024-01-23_07h58.18.694,bars,2023.2.3,MacIntel,29.94011976,657b66ea316d21385b68909f,,,,,,,,,,,2951.0382,2952.0392,,,2952.5426,2952.7911,,125,125,,,,,,,,,,,,,,,,bars/015.png,bars/mask000.png,,,,,,,,,,,,4,1,,,,,,,8,6,7,7,,,,,,,,,,,2952.0393,2952.5426,2952.7912,2962.4915,space,9.6836,,2962.4915,15,35,2963.4916,2963.4916,2963.5057,,,,0,28,28,28,1,110,160,,,,,,,,
,,6164bf85b5dfa5ddff6da08d,65af55118f4b972623180b73,2024-01-23_07h58.18.694,bars,2023.2.3,MacIntel,29.94011976,657b66ea316d21385b68909f,,,,,,,,,,,2963.5059,2964.507,,,2965.009,2965.2578,,68,68,,,,,,,,,,,,,,,,bars/017.png,bars/mask008.png,,,,,,,,,,,,1,2,,,,,,,10,4,9,5,,,,,,,,,,,2964.5071,2965.009,2965.2578,2971.6592,space,6.3906,,2971.6592,77,23,2972.6598,2972.6598,2972.6748,,,,0,29,29,29,1,145,45,,,,,,,,
,,6164bf85b5dfa5ddff6da08d,65af55118f4b972623180b73,2024-01-23_07h58.18.694,bars,2023.2.3,MacIntel,29.94011976,657b66ea316d21385b68909f,,,,,,,,,,,2972.675,2973.675,,,2974.1756,2974.4262,,33,33,,,,,,,,,,,,,,,,bars/005.png,bars/mask001.png,,,,,,,,,,,,2,1,,,,,,,8,2,8,0,,,,,,,,,,,2973.6751,2974.1755,2974.4263,2982.0746,space,7.6349,,2982.0747,23,73,2983.0759,2983.076,2983.0902,,,,0,30,30,30,1,10,140,,,,,,,,
,,6164bf85b5dfa5ddff6da08d,65af55118f4b972623180b73,2024-01-23_07h58.18.694,bars,2023.2.3,MacIntel,29.94011976,657b66ea316d21385b68909f,,,,,,,,,,,2983.0903,2984.0918,,,2984.5897,2984.8397,,153,153,,,,,,,,,,,,,,,,bars/034.png,bars/mask004.png,,,,,,,,,,,,1,1,,,,,,,10,4,10,4,,,,,,,,,,,2984.0919,2984.5897,2984.8397,2987.3257,space,2.4692,,2987.3257,28,88,2988.3262,2988.3263,2988.3397,,,,0,31,31,31,1,125,65,,,,,,,,
,,6164bf85b5dfa5ddff6da08d,65af55118f4b972623180b73,2024-01-23_07h58.18.694,bars,2023.2.3,MacIntel,29.94011976,657b66ea316d21385b68909f,,,,,,,,,,,2988.3399,2989.3425,,,2989.8411,2990.0916,,40,40,,,,,,,,,,,,,,,,bars/003.png,bars/mask002.png,,,,,,,,,,,,4,1,,,,,,,8,2,7,2,,,,,,,,,,,2989.3427,2989.841,2990.0916,2992.9601,space,2.8502,,2992.9602,15,80,2993.9587,2993.9588,2993.9718,,,,0,32,32,32,1,25,140,,,,,,,,
,,6164bf85b5dfa5ddff6da08d,65af55118f4b972623180b73,2024-01-23_07h58.18.694,bars,2023.2.3,MacIntel,29.94011976,657b66ea316d21385b68909f,,,,,,,,,,,2993.972,2994.9735,,,2995.474,2995.7232,,153,153,,,,,,,,,,,,,,,,bars/030.png,bars/mask005.png,,,,,,,,,,,,6,1,,,,,,,10,0,10,1,,,,,,,,,,,2994.9736,2995.474,2995.7232,3004.7406,space,9.0087,,3004.7407,13,88,3005.7422,3005.7424,3005.7543,,,,0,33,33,33,1,140,65,,,,,,,,
,,6164bf85b5dfa5ddff6da08d,65af55118f4b972623180b73,2024-01-23_07h58.18.694,bars,2023.2.3,MacIntel,29.94011976,657b66ea316d21385b68909f,,,,,,,,,,,3005.7544,3006.7437,,,3007.2436,3007.4928,,158,158,,,,,,,,,,,,,,,,bars/016.png,bars/mask002.png,,,,,,,,,,,,1,2,,,,,,,10,0,10,1,,,,,,,,,,,3006.7439,3007.2436,3007.4928,3009.7438,space,2.2366,,3009.7439,62,7,3010.7424,3010.7425,3010.7552,,,,0,34,34,34,1,40,165,,,,,,,,
,,6164bf85b5dfa5ddff6da08d,65af55118f4b972623180b73,2024-01-23_07h58.18.694,bars,2023.2.3,MacIntel,29.94011976,657b66ea316d21385b68909f,,,,,,,,,,,3010.7554,3011.7604,,,3012.2602,3012.5089,,130,130,,,,,,,,,,,,,,,,bars/001.png,bars/mask000.png,,,,,,,,,,,,8,1,,,,,,,8,2,8,2,,,,,,,,,,,3011.7604,3012.2601,3012.5089,3016.8101,space,4.2816,,3016.8102,0,45,3017.8096,3017.8097,3017.8243,,,,0,35,35,35,1,130,85,,,,,,,,
,,6164bf85b5dfa5ddff6da08d,65af55118f4b972623180b73,2024-01-23_07h58.18.694,bars,2023.2.3,MacIntel,29.94011976,657b66ea316d21385b68909f,,,,,,,,,,,3017.8245,3018.8252,,,3019.3272,3019.5736,,18,18,,,,,,,,,,,,,,,,bars/005.png,bars/mask002.png,,,,,,,,,,,,4,1,,,,,,,6,0,6,1,,,,,,,,,,,3018.8253,3019.3271,3019.5736,3025.6269,space,6.0393,,3025.6272,8,58,3026.6256,3026.6257,3026.639,,,,0,36,36,36,1,10,140,,,,,,,,
,,6164bf85b5dfa5ddff6da08d,65af55118f4b972623180b73,2024-01-23_07h58.18.694,bars,2023.2.3,MacIntel,29.94011976,657b66ea316d21385b68909f,,,,,,,,,,,3026.6392,3027.643,,,3028.1403,3028.3936,,112,112,,,,,,,,,,,,,,,,bars/036.png,bars/mask007.png,,,,,,,,,,,,0,1,,,,,,,8,2,9,2,,,,,,,,,,,3027.643,3028.1402,3028.3936,3035.6081,space,7.2041,,3035.6082,33,88,3036.6087,3036.6088,3036.6195,,,,0,37,37,37,1,145,20,,,,,,,,
,,6164bf85b5dfa5ddff6da08d,65af55118f4b972623180b73,2024-01-23_07h58.18.694,bars,2023.2.3,MacIntel,29.94011976,657b66ea316d21385b68909f,,,,,,,,,,,3036.6196,3037.6104,,,3038.1096,3038.3599,,55,235,,,,,,,,,,,,,,,,bars/044.png,bars/mask005.png,,,,,,,,,,,,3,1,,,,,,,10,4,10,6,,,,,,,,,,,3037.6104,3038.1096,3038.36,3045.2433,space,6.8671,,3045.2434,20,80,3046.2429,3046.243,3046.2523,,,,0,38,38,38,1,75,155,,,,,,,,
,,6164bf85b5dfa5ddff6da08d,65af55118f4b972623180b73,2024-01-23_07h58.18.694,bars,2023.2.3,MacIntel,29.94011976,657b66ea316d21385b68909f,,,,,,,,,,,3046.2526,3047.2427,,,3047.7439,3047.9931,,83,83,,,,,,,,,,,,,,,,bars/012.png,bars/mask002.png,,,,,,,,,,,,7,1,,,,,,,10,6,9,5,,,,,,,,,,,3047.2428,3047.7439,3047.9931,3056.9091,space,8.9037,,3056.9092,7,68,3057.9104,3057.9106,3057.9237,,,,0,39,39,39,1,90,15,,,,,,,,
,,6164bf85b5dfa5ddff6da08d,65af55118f4b972623180b73,2024-01-23_07h58.18.694,bars,2023.2.3,MacIntel,29.94011976,657b66ea316d21385b68909f,,,,,,,,,,,3057.9239,3058.9248,,,3059.4252,3059.6767,,19,199,,,,,,,,,,,,,,,,bars/018.png,bars/mask005.png,,,,,,,,,,,,0,1,,,,,,,10,4,10,3,,,,,,,,,,,3058.9249,3059.4252,3059.6768,3064.9414,space,5.2507,,3064.9415,49,71,3065.9423,3065.9424,3065.9558,,,,0,40,40,40,1,150,90,,,,,,,,
,,6164bf85b5dfa5ddff6da08d,65af55118f4b972623180b73,2024-01-23_07h58.18.694,bars,2023.2.3,MacIntel,29.94011976,657b66ea316d21385b68909f,,,,,,,,,,,3065.9559,3066.9599,,,3067.46,3067.7079,,152,152,,,,,,,,,,,,,,,,bars/039.png,bars/mask000.png,,,,,,,,,,,,2,1,,,,,,,10,2,10,2,,,,,,,,,,,3066.9599,3067.4599,3067.7079,3069.2916,space,1.568,,3069.2916,23,47,3070.2918,3070.2918,3070.3051,,,,0,41,41,41,1,175,105,,,,,,,,
,,6164bf85b5dfa5ddff6da08d,65af55118f4b972623180b73,2024-01-23_07h58.18.694,bars,2023.2.3,MacIntel,29.94011976,657b66ea316d21385b68909f,,,,,,,,,,,3070.3053,3071.2932,,,3071.7932,3072.0411,,141,141,,,,,,,,,,,,,,,,bars/038.png,bars/mask003.png,,,,,,,,,,,,1,1,,,,,,,8,0,7,0,,,,,,,,,,,3071.2932,3071.7931,3072.0412,3076.6409,space,4.5867,,3076.6409,24,71,3077.6421,3077.6421,3077.6478,,,,0,42,42,42,1,165,70,,,,,,,,
,,6164bf85b5dfa5ddff6da08d,65af55118f4b972623180b73,2024-01-23_07h58.18.694,bars,2023.2.3,MacIntel,29.94011976,657b66ea316d21385b68909f,,,,,,,,,,,3077.6478,3078.6443,,,3079.1443,3079.3932,,89,89,,,,,,,,,,,,,,,,bars/037.png,bars/mask005.png,,,,,,,,,,,,0,2,,,,,,,6,0,5,1,,,,,,,,,,,3078.6444,3079.1441,3079.3933,3080.9604,space,1.5489,,3080.9605,61,16,3081.9601,3081.9601,3081.9742,,,,0,43,43,43,1,150,105,,,,,,,,
,,6164bf85b5dfa5ddff6da08d,65af55118f4b972623180b73,2024-01-23_07h58.18.694,bars,2023.2.3,MacIntel,29.94011976,657b66ea316d21385b68909f,,,,,,,,,,,3081.9743,3082.9748,,,3083.4775,3083.7275,,33,213,,,,,,,,,,,,,,,,bars/043.png,bars/mask008.png,,,,,,,,,,,,8,1,,,,,,,8,0,9,0,,,,,,,,,,,3082.9748,3083.4775,3083.7275,3088.6765,space,4.9338,,3088.6766,3,83,3089.6758,3089.676,3089.6886,,,,0,44,44,44,1,30,130,,,,,,,,
,,6164bf85b5dfa5ddff6da08d,65af55118f4b972623180b73,2024-01-23_07h58.18.694,bars,2023.2.3,MacIntel,29.94011976,657b66ea316d21385b68909f,,,,,,,,,,,3089.6888,3090.6942,,,3091.1943,3091.4443,,42,222,,,,,,,,,,,,,,,,bars/048.png,bars/mask004.png,,,,,,,,,,,,7,1,,,,,,,10,0,10,0,,,,,,,,,,,3090.6943,3091.1942,3091.4444,3098.9439,space,7.4827,,3098.9439,8,47,3099.9437,3099.9437,3099.9566,,,,0,45,45,45,1,50,175,,,,,,,,
,,6164bf85b5dfa5ddff6da08d,65af55118f4b972623180b73,2024-01-23_07h58.18.694,bars,2023.2.3,MacIntel,29.94011976,657b66ea316d21385b68909f,,,,,,,,,,,3099.9568,3100.9604,,,3101.4581,3101.7094,,148,148,,,,,,,,,,,,,,,,bars/011.png,bars/mask007.png,,,,,,,,,,,,4,1,,,,,,,8,2,7,3,,,,,,,,,,,3100.9605,3101.4579,3101.7096,3104.5772,space,2.8526,,3104.5773,12,63,3105.5768,3105.5768,3105.5868,,,,0,46,46,46,1,160,85,,,,,,,,
,,6164bf85b5dfa5ddff6da08d,65af55118f4b972623180b73,2024-01-23_07h58.18.694,bars,2023.2.3,MacIntel,29.94011976,657b66ea316d21385b68909f,,,,,,,,,,,3105.5869,3106.5775,,,3107.0749,3107.3274,,10,10,,,,,,,,,,,,,,,,bars/041.png,bars/mask002.png,,,,,,,,,,,,7,1,,,,,,,10,0,10,0,,,,,,,,,,,3106.5776,3107.0748,3107.3274,3109.4108,space,2.0692,,3109.4109,10,75,3110.4102,3110.4104,3110.4236,,,,0,47,47,47,1,20,85,,,,,,,,
,,6164bf85b5dfa5ddff6da08d,65af55118f4b972623180b73,2024-01-23_07h58.18.694,bars,2023.2.3,MacIntel,29.94011976,657b66ea316d21385b68909f,,,,,,,,,,,3110.4237,3111.425,,,3111.9274,3112.1774,,99,99,,,,,,,,,,,,,,,,bars/001.png,bars/mask000.png,,,,,,,,,,,,1,2,,,,,,,8,2,6,2,,,,,,,,,,,3111.425,3111.9273,3112.1775,3113.4099,space,1.223,,3113.4099,31,14,3114.4105,3114.4105,3114.4249,,,,0,48,48,48,1,130,85,,,,,,,,
,,6164bf85b5dfa5ddff6da08d,65af55118f4b972623180b73,2024-01-23_07h58.18.694,bars,2023.2.3,MacIntel,29.94011976,657b66ea316d21385b68909f,,,,,,,,,,,3114.425,3115.4274,,,3115.9278,3116.1769,,141,141,,,,,,,,,,,,,,,,bars/046.png,bars/mask004.png,,,,,,,,,,,,5,1,,,,,,,10,4,9,4,,,,,,,,,,,3115.4274,3115.9277,3116.177,3121.9104,space,5.7176,,3121.9105,14,56,3122.9111,3122.9111,3122.9253,,,,0,49,49,49,1,155,85,,,,,,,,
,,6164bf85b5dfa5ddff6da08d,65af55118f4b972623180b73,2024-01-23_07h58.18.694,bars,2023.2.3,MacIntel,29.94011976,657b66ea316d21385b68909f,,,,,,,,,,,,,,,,,,,,,,,,,,,,,,,,,,,,,,,,,,,,,,,,,,,,,,,,,,,,,,,,,,,,,,,,,,,,,,,,,,,,,,,,,,,,,3122.9255,3182.928,0,3,3,0,1,sequence_tables/blk036.csv
,,6164bf85b5dfa5ddff6da08d,65af55118f4b972623180b73,2024-01-23_07h58.18.694,bars,2023.2.3,MacIntel,29.94011976,657b66ea316d21385b68909f,,,,,,,,,,,3467.8668,3468.8493,,,3469.3496,3469.5966,,58,58,,,,,,,,,,,,,,,,bars/034.png,bars/mask002.png,,,,,,,,,,,,2,2,,,,,,,7,2,8,3,,,,,,3182.94,3467.8488,space,284.9001,,3468.8496,3469.3494,3469.5968,3479.4965,space,9.8875,,3479.4965,67,7,3480.5,3480.5001,3480.5153,,,,0,0,0,0,1,125,65,,,,,,,,
,,6164bf85b5dfa5ddff6da08d,65af55118f4b972623180b73,2024-01-23_07h58.18.694,bars,2023.2.3,MacIntel,29.94011976,657b66ea316d21385b68909f,,,,,,,,,,,3480.5155,3481.5155,,,3482.0152,3482.2665,,132,132,,,,,,,,,,,,,,,,bars/033.png,bars/mask008.png,,,,,,,,,,,,1,2,,,,,,,9,4,8,5,,,,,,,,,,,3481.5156,3482.0151,3482.2666,3483.6995,space,1.4232,,3483.6997,73,23,3484.6991,3484.6993,3484.7125,,,,0,1,1,1,1,25,155,,,,,,,,
,,6164bf85b5dfa5ddff6da08d,65af55118f4b972623180b73,2024-01-23_07h58.18.694,bars,2023.2.3,MacIntel,29.94011976,657b66ea316d21385b68909f,,,,,,,,,,,3484.7126,3485.7013,,,3486.1997,3486.45,,83,83,,,,,,,,,,,,,,,,bars/032.png,bars/mask009.png,,,,,,,,,,,,0,1,,,,,,,7,6,6,6,,,,,,,,,,,3485.7016,3486.1997,3486.45,3493.2296,space,6.7652,,3493.2296,42,63,3494.2311,3494.2311,3494.2438,,,,0,2,2,2,1,125,20,,,,,,,,
,,6164bf85b5dfa5ddff6da08d,65af55118f4b972623180b73,2024-01-23_07h58.18.694,bars,2023.2.3,MacIntel,29.94011976,657b66ea316d21385b68909f,,,,,,,,,,,3494.244,3495.2321,,,3495.7302,3495.9832,,136,136,,,,,,,,,,,,,,,,bars/030.png,bars/mask004.png,,,,,,,,,,,,5,1,,,,,,,5,8,6,9,,,,,,,,,,,3495.2322,3495.7301,3495.9832,3502.7974,space,6.8036,,3502.7975,4,71,3503.7988,3503.7989,3503.8111,,,,0,3,3,3,1,140,65,,,,,,,,
,,6164bf85b5dfa5ddff6da08d,65af55118f4b972623180b73,2024-01-23_07h58.18.694,bars,2023.2.3,MacIntel,29.94011976,657b66ea316d21385b68909f,,,,,,,,,,,3503.8113,3504.8006,,,3505.3004,3505.5491,,81,81,,,,,,,,,,,,,,,,bars/012.png,bars/mask003.png,,,,,,,,,,,,1,1,,,,,,,3,6,2,6,,,,,,,,,,,3504.8007,3505.3004,3505.5491,3511.6654,space,6.1019,,3511.6654,9,66,3512.6656,3512.6657,3512.6776,,,,0,4,4,4,1,90,15,,,,,,,,
,,6164bf85b5dfa5ddff6da08d,65af55118f4b972623180b73,2024-01-23_07h58.18.694,bars,2023.2.3,MacIntel,29.94011976,657b66ea316d21385b68909f,,,,,,,,,,,3512.6778,3513.6663,,,3514.1667,3514.4169,,132,-48,,,,,,,,,,,,,,,,bars/015.png,bars/mask007.png,,,,,,,,,,,,1,1,,,,,,,5,4,4,5,,,,,,,,,,,3513.6663,3514.1666,3514.4169,3521.5662,space,7.1341,,3521.5663,22,28,3522.5661,3522.5662,3522.5805,,,,0,5,5,5,1,110,160,,,,,,,,
,,6164bf85b5dfa5ddff6da08d,65af55118f4b972623180b73,2024-01-23_07h58.18.694,bars,2023.2.3,MacIntel,29.94011976,657b66ea316d21385b68909f,,,,,,,,,,,3522.5807,3523.5831,,,3524.083,3524.3317,,2,2,,,,,,,,,,,,,,,,bars/012.png,bars/mask003.png,,,,,,,,,,,,2,2,,,,,,,3,2,3,3,,,,,,,,,,,3523.5831,3524.083,3524.3318,3529.5501,space,5.2057,,3529.5502,88,13,3530.5495,3530.5496,3530.5623,,,,0,6,6,6,1,90,15,,,,,,,,
,,6164bf85b5dfa5ddff6da08d,65af55118f4b972623180b73,2024-01-23_07h58.18.694,bars,2023.2.3,MacIntel,29.94011976,657b66ea316d21385b68909f,,,,,,,,,,,3530.5625,3531.5661,,,3532.0669,3532.3161,,48,48,,,,,,,,,,,,,,,,bars/014.png,bars/mask006.png,,,,,,,,,,,,0,1,,,,,,,1,4,2,3,,,,,,,,,,,3531.5662,3532.0668,3532.3161,3535.6169,space,3.2832,,3535.6169,32,48,3536.6162,3536.6162,3536.6307,,,,0,7,7,7,1,80,0,,,,,,,,
,,6164bf85b5dfa5ddff6da08d,65af55118f4b972623180b73,2024-01-23_07h58.18.694,bars,2023.2.3,MacIntel,29.94011976,657b66ea316d21385b68909f,,,,,,,,,,,3536.6309,3537.6333,,,3538.1324,3538.3805,,149,149,,,,,,,,,,,,,,,,bars/035.png,bars/mask000.png,,,,,,,,,,,,0,1,,,,,,,0,2,0,3,,,,,,,,,,,3537.6333,3538.1324,3538.3806,3540.2492,space,1.8522,,3540.2492,26,89,3541.2506,3541.2507,3541.2627,,,,0,8,8,8,1,175,60,,,,,,,,
