init_variables.started,init_variables.stopped,participant,session,date,expName,psychopyVersion,OS,frameRate,study_id,instruction_exp.started,instruction_exp.stopped,key_resp_8.keys,key_resp_8.rt,key_resp_8.duration,instruction_single.started,instruction_single.stopped,key_resp_2.keys,key_resp_2.rt,key_resp_2.duration,interval.started,interval.stopped,cue_single.started,cue_single.stopped,mask.started,mask.stopped,ori_response_single.started,res_ori,res,ori_response_single.stopped,key_resp_single.keys,key_resp_single.rt,key_resp_single.duration,disp_single.started,disp_single.stopped,key_resp.keys,key_resp.rt,key_resp.duration,single.thisRepN,single.thisTrialN,single.thisN,single.thisIndex,single.ran,ori,path,mask_path,instruction_bandit.started,instruction_bandit.stopped,key_resp_6.keys,key_resp_6.rt,key_resp_6.duration,cue_bandit.started,cue_bandit.stopped,bandit_res.keys,bandit_res.rt,bandit_res.duration,outcome_bandit.started,rew,action,outcome_bandit.stopped,bandit.thisRepN,bandit.thisTrialN,bandit.thisN,bandit.thisIndex,bandit.ran,actual_rew1,actual_rew2,rew1,rew2,instruction_task.started,instruction_task.stopped,key_resp_7.keys,key_resp_7.rt,key_resp_7.duration,wait_ready.started,wait_ready.stopped,key_resp_3.keys,key_resp_3.rt,key_resp_3.duration,cue.started,cue.stopped,ori_response.started,ori_response.stopped,key_resp_5.keys,key_resp_5.rt,key_resp_5.duration,outcome.started,diff1,diff2,outcome.stopped,disp_outcome_practice.started,disp_outcome_practice.stopped,key_resp_4.keys,key_resp_4.rt,key_resp_4.duration,trials.thisRepN,trials.thisTrialN,trials.thisN,trials.thisIndex,trials.ran,ori1,ori2,break_blk.started,break_blk.stopped,block.thisRepN,block.thisTrialN,block.thisN,block.thisIndex,block.ran,condition_file
0.0003,0.0003,615fdd9674ec001e9d325841,65af55eb988ae06a9240104e,2024-01-23_08h01.34.845,bars,2023.2.3,Win32,71.42857143,657b66ea316d21385b68909f,,,,,,,,,,,,,,,,,,,,,,,,,,,,,,,,,,,,,,,,,,,,,,,,,,,,,,,,,,,,,,,,,,,,,,,,,,,,,,,,,,,,,,,,,,,,,,,,,,,,
,,615fdd9674ec001e9d325841,65af55eb988ae06a9240104e,2024-01-23_08h01.34.845,bars,2023.2.3,Win32,71.42857143,657b66ea316d21385b68909f,0.0004,10.953,y,10.9466,,,,,,,,,,,,,,,,,,,,,,,,,,,,,,,,,,,,,,,,,,,,,,,,,,,,,,,,,,,,,,,,,,,,,,,,,,,,,,,,,,,,,,,,,,,,,,,,
,,615fdd9674ec001e9d325841,65af55eb988ae06a9240104e,2024-01-23_08h01.34.845,bars,2023.2.3,Win32,71.42857143,657b66ea316d21385b68909f,,,,,,10.953,34.9273,space,23.9471,,,,,,,,,,,,,,,,,,,,,,,,,,,,,,,,,,,,,,,,,,,,,,,,,,,,,,,,,,,,,,,,,,,,,,,,,,,,,,,,,,,,,,,,,,,
,,615fdd9674ec001e9d325841,65af55eb988ae06a9240104e,2024-01-23_08h01.34.845,bars,2023.2.3,Win32,71.42857143,657b66ea316d21385b68909f,,,,,,,,,,,34.9301,35.9053,35.9054,36.4064,36.4064,36.6561,36.6562,13,13,59.4454,space,22.7486,,59.4454,63.584,space,4.1056,,0,0,0,7,1,45,bars/single007.png,bars/mask009.png,,,,,,,,,,,,,,,,,,,,,,,,,,,,,,,,,,,,,,,,,,,,,,,,,,,,,,,,,,,,,,,,
,,615fdd9674ec001e9d325841,65af55eb988ae06a9240104e,2024-01-23_08h01.34.845,bars,2023.2.3,Win32,71.42857143,657b66ea316d21385b68909f,,,,,,,,,,,63.5892,64.5836,64.5836,65.0838,65.0838,65.3341,65.3341,53,53,69.389,space,4.0215,,69.389,72.108,space,2.7034,,0,1,1,6,1,175,bars/single006.png,bars/mask005.png,,,,,,,,,,,,,,,,,,,,,,,,,,,,,,,,,,,,,,,,,,,,,,,,,,,,,,,,,,,,,,,,
,,615fdd9674ec001e9d325841,65af55eb988ae06a9240104e,2024-01-23_08h01.34.845,bars,2023.2.3,Win32,71.42857143,657b66ea316d21385b68909f,,,,,,,,,,,72.1131,73.1087,73.1088,73.6092,73.6093,73.8595,73.8595,136,136,77.8634,space,3.97,,77.8634,80.9165,space,3.0196,,0,2,2,1,1,20,bars/single001.png,bars/mask006.png,,,,,,,,,,,,,,,,,,,,,,,,,,,,,,,,,,,,,,,,,,,,,,,,,,,,,,,,,,,,,,,,
,,615fdd9674ec001e9d325841,65af55eb988ae06a9240104e,2024-01-23_08h01.34.845,bars,2023.2.3,Win32,71.42857143,657b66ea316d21385b68909f,,,,,,,,,,,80.9166,81.9176,81.9176,82.4178,82.4178,82.6684,82.6684,127,127,86.2885,space,3.5872,,86.2886,89.9254,space,3.6039,,0,3,3,3,1,20,bars/single003.png,bars/mask005.png,,,,,,,,,,,,,,,,,,,,,,,,,,,,,,,,,,,,,,,,,,,,,,,,,,,,,,,,,,,,,,,,
,,615fdd9674ec001e9d325841,65af55eb988ae06a9240104e,2024-01-23_08h01.34.845,bars,2023.2.3,Win32,71.42857143,657b66ea316d21385b68909f,,,,,,,,,,,89.9303,90.9268,90.9268,91.4272,91.4272,91.6773,91.6774,139,139,95.5651,space,3.8548,,95.5651,98.2173,space,2.6196,,0,4,4,0,1,150,bars/single000.png,bars/mask006.png,,,,,,,,,,,,,,,,,,,,,,,,,,,,,,,,,,,,,,,,,,,,,,,,,,,,,,,,,,,,,,,,
,,615fdd9674ec001e9d325841,65af55eb988ae06a9240104e,2024-01-23_08h01.34.845,bars,2023.2.3,Win32,71.42857143,657b66ea316d21385b68909f,,,,,,,,,,,98.2222,99.2182,99.2183,99.7187,99.7188,99.9692,99.9693,136,136,104.9249,space,4.9227,,104.925,107.3266,space,2.3697,,0,5,5,8,1,160,bars/single008.png,bars/mask004.png,,,,,,,,,,,,,,,,,,,,,,,,,,,,,,,,,,,,,,,,,,,,,,,,,,,,,,,,,,,,,,,,
,,615fdd9674ec001e9d325841,65af55eb988ae06a9240104e,2024-01-23_08h01.34.845,bars,2023.2.3,Win32,71.42857143,657b66ea316d21385b68909f,,,,,,,,,,,107.3267,108.3271,108.3271,108.8278,108.8279,109.0781,109.0781,136,136,114.1998,space,5.0888,,114.1998,117.6535,space,3.4207,,0,6,6,2,1,145,bars/single002.png,bars/mask003.png,,,,,,,,,,,,,,,,,,,,,,,,,,,,,,,,,,,,,,,,,,,,,,,,,,,,,,,,,,,,,,,,
,,615fdd9674ec001e9d325841,65af55eb988ae06a9240104e,2024-01-23_08h01.34.845,bars,2023.2.3,Win32,71.42857143,657b66ea316d21385b68909f,,,,,,,,,,,117.6538,118.6544,118.6545,119.1549,119.1549,119.4048,119.4048,157,-23,125.7111,space,6.289,,125.7111,128.314,space,2.5697,,0,7,7,9,1,20,bars/single009.png,bars/mask006.png,,,,,,,,,,,,,,,,,,,,,,,,,,,,,,,,,,,,,,,,,,,,,,,,,,,,,,,,,,,,,,,,
,,615fdd9674ec001e9d325841,65af55eb988ae06a9240104e,2024-01-23_08h01.34.845,bars,2023.2.3,Win32,71.42857143,657b66ea316d21385b68909f,,,,,,,,,,,128.3193,129.3148,129.3148,129.8147,129.8148,130.0654,130.0655,35,35,133.2184,space,3.1197,,133.2185,135.3381,space,2.0862,,0,8,8,4,1,95,bars/single004.png,bars/mask004.png,,,,,,,,,,,,,,,,,,,,,,,,,,,,,,,,,,,,,,,,,,,,,,,,,,,,,,,,,,,,,,,,
,,615fdd9674ec001e9d325841,65af55eb988ae06a9240104e,2024-01-23_08h01.34.845,bars,2023.2.3,Win32,71.42857143,657b66ea316d21385b68909f,,,,,,,,,,,135.3384,136.3386,136.3386,136.8401,136.8401,137.0892,137.0893,69,69,141.0602,space,3.9377,,141.0602,143.8795,space,2.7866,,0,9,9,5,1,55,bars/single005.png,bars/mask008.png,,,,,,,,,,,,,,,,,,,,,,,,,,,,,,,,,,,,,,,,,,,,,,,,,,,,,,,,,,,,,,,,
,,615fdd9674ec001e9d325841,65af55eb988ae06a9240104e,2024-01-23_08h01.34.845,bars,2023.2.3,Win32,71.42857143,657b66ea316d21385b68909f,,,,,,,,,,,,,,,,,,,,,,,,,,,,,,,,,,,,,143.8798,160.6632,space,16.7506,,,,,,,,,,,,,,,,,,,,,,,,,,,,,,,,,,,,,,,,,,,,,,,,,,,,,,,,,,,,
,,615fdd9674ec001e9d325841,65af55eb988ae06a9240104e,2024-01-23_08h01.34.845,bars,2023.2.3,Win32,71.42857143,657b66ea316d21385b68909f,,,,,,,,,,,,,,,,,,,,,,,,,,,,,,,,,,,,,,,,,,160.6695,162.4312,right,1.7352,,162.4313,2,2,163.4327,0,0,0,0,1,9,1,9,2,,,,,,,,,,,,,,,,,,,,,,,,,,,,,,,,,,,,,,,,,
,,615fdd9674ec001e9d325841,65af55eb988ae06a9240104e,2024-01-23_08h01.34.845,bars,2023.2.3,Win32,71.42857143,657b66ea316d21385b68909f,,,,,,,,,,,,,,,,,,,,,,,,,,,,,,,,,,,,,,,,,,163.433,165.0342,right,1.5693,,165.0342,1,2,166.0348,0,1,1,1,1,10,0,10,1,,,,,,,,,,,,,,,,,,,,,,,,,,,,,,,,,,,,,,,,,
,,615fdd9674ec001e9d325841,65af55eb988ae06a9240104e,2024-01-23_08h01.34.845,bars,2023.2.3,Win32,71.42857143,657b66ea316d21385b68909f,,,,,,,,,,,,,,,,,,,,,,,,,,,,,,,,,,,,,,,,,,166.0351,167.1022,left,1.0332,,167.1022,10,1,168.103,0,2,2,2,1,10,2,10,2,,,,,,,,,,,,,,,,,,,,,,,,,,,,,,,,,,,,,,,,,
,,615fdd9674ec001e9d325841,65af55eb988ae06a9240104e,2024-01-23_08h01.34.845,bars,2023.2.3,Win32,71.42857143,657b66ea316d21385b68909f,,,,,,,,,,,,,,,,,,,,,,,,,,,,,,,,,,,,,,,,,,168.1032,169.204,left,1.0672,,169.204,7,1,170.2057,0,3,3,3,1,8,4,7,3,,,,,,,,,,,,,,,,,,,,,,,,,,,,,,,,,,,,,,,,,
,,615fdd9674ec001e9d325841,65af55eb988ae06a9240104e,2024-01-23_08h01.34.845,bars,2023.2.3,Win32,71.42857143,657b66ea316d21385b68909f,,,,,,,,,,,,,,,,,,,,,,,,,,,,,,,,,,,,,,,,,,170.2059,170.8233,right,0.5846,,170.8234,1,2,171.8246,0,4,4,4,1,6,2,5,1,,,,,,,,,,,,,,,,,,,,,,,,,,,,,,,,,,,,,,,,,
,,615fdd9674ec001e9d325841,65af55eb988ae06a9240104e,2024-01-23_08h01.34.845,bars,2023.2.3,Win32,71.42857143,657b66ea316d21385b68909f,,,,,,,,,,,,,,,,,,,,,,,,,,,,,,,,,,,,,,,,,,171.825,172.442,left,0.5851,,172.4421,4,1,173.442,0,5,5,5,1,4,4,4,4,,,,,,,,,,,,,,,,,,,,,,,,,,,,,,,,,,,,,,,,,
,,615fdd9674ec001e9d325841,65af55eb988ae06a9240104e,2024-01-23_08h01.34.845,bars,2023.2.3,Win32,71.42857143,657b66ea316d21385b68909f,,,,,,,,,,,,,,,,,,,,,,,,,,,,,,,,,,,,,,,,,,173.4422,177.0454,left,3.5694,,177.0455,1,1,178.0474,0,6,6,6,1,2,2,1,2,,,,,,,,,,,,,,,,,,,,,,,,,,,,,,,,,,,,,,,,,
,,615fdd9674ec001e9d325841,65af55eb988ae06a9240104e,2024-01-23_08h01.34.845,bars,2023.2.3,Win32,71.42857143,657b66ea316d21385b68909f,,,,,,,,,,,,,,,,,,,,,,,,,,,,,,,,,,,,,,,,,,178.0527,179.1813,left,1.1007,,179.1813,0,1,180.182,0,7,7,7,1,0,0,0,1,,,,,,,,,,,,,,,,,,,,,,,,,,,,,,,,,,,,,,,,,
,,615fdd9674ec001e9d325841,65af55eb988ae06a9240104e,2024-01-23_08h01.34.845,bars,2023.2.3,Win32,71.42857143,657b66ea316d21385b68909f,,,,,,,,,,,,,,,,,,,,,,,,,,,,,,,,,,,,,,,,,,180.1822,180.8827,right,0.6679,,180.8828,0,2,181.8833,0,8,8,8,1,0,2,1,0,,,,,,,,,,,,,,,,,,,,,,,,,,,,,,,,,,,,,,,,,
,,615fdd9674ec001e9d325841,65af55eb988ae06a9240104e,2024-01-23_08h01.34.845,bars,2023.2.3,Win32,71.42857143,657b66ea316d21385b68909f,,,,,,,,,,,,,,,,,,,,,,,,,,,,,,,,,,,,,,,,,,181.8834,183.2512,right,1.3333,,183.2512,3,2,184.2539,0,9,9,9,1,2,4,2,3,,,,,,,,,,,,,,,,,,,,,,,,,,,,,,,,,,,,,,,,,
,,615fdd9674ec001e9d325841,65af55eb988ae06a9240104e,2024-01-23_08h01.34.845,bars,2023.2.3,Win32,71.42857143,657b66ea316d21385b68909f,,,,,,,,,,,,,,,,,,,,,,,,,,,,,,,,,,,,,,,,,,184.2541,185.4213,right,1.1355,,185.4213,3,2,186.4217,0,10,10,10,1,0,2,0,3,,,,,,,,,,,,,,,,,,,,,,,,,,,,,,,,,,,,,,,,,
,,615fdd9674ec001e9d325841,65af55eb988ae06a9240104e,2024-01-23_08h01.34.845,bars,2023.2.3,Win32,71.42857143,657b66ea316d21385b68909f,,,,,,,,,,,,,,,,,,,,,,,,,,,,,,,,,,,,,,,,,,186.4219,187.5892,left,1.1346,,187.5892,0,1,188.5739,0,11,11,11,1,0,4,0,3,,,,,,,,,,,,,,,,,,,,,,,,,,,,,,,,,,,,,,,,,
,,615fdd9674ec001e9d325841,65af55eb988ae06a9240104e,2024-01-23_08h01.34.845,bars,2023.2.3,Win32,71.42857143,657b66ea316d21385b68909f,,,,,,,,,,,,,,,,,,,,,,,,,,,,,,,,,,,,,,,,,,188.574,190.2591,left,1.6514,,190.2591,1,1,191.2592,0,12,12,12,1,2,6,1,6,,,,,,,,,,,,,,,,,,,,,,,,,,,,,,,,,,,,,,,,,
,,615fdd9674ec001e9d325841,65af55eb988ae06a9240104e,2024-01-23_08h01.34.845,bars,2023.2.3,Win32,71.42857143,657b66ea316d21385b68909f,,,,,,,,,,,,,,,,,,,,,,,,,,,,,,,,,,,,,,,,,,191.2643,192.0269,left,0.7332,,192.0269,1,1,193.0286,0,13,13,13,1,0,4,1,3,,,,,,,,,,,,,,,,,,,,,,,,,,,,,,,,,,,,,,,,,
,,615fdd9674ec001e9d325841,65af55eb988ae06a9240104e,2024-01-23_08h01.34.845,bars,2023.2.3,Win32,71.42857143,657b66ea316d21385b68909f,,,,,,,,,,,,,,,,,,,,,,,,,,,,,,,,,,,,,,,,,,193.0287,194.0295,right,0.9683,,194.0296,7,2,195.0302,0,14,14,14,1,2,6,2,7,,,,,,,,,,,,,,,,,,,,,,,,,,,,,,,,,,,,,,,,,
,,615fdd9674ec001e9d325841,65af55eb988ae06a9240104e,2024-01-23_08h01.34.845,bars,2023.2.3,Win32,71.42857143,657b66ea316d21385b68909f,,,,,,,,,,,,,,,,,,,,,,,,,,,,,,,,,,,,,,,,,,195.0304,195.9981,right,0.9346,,195.9981,9,2,196.9989,0,15,15,15,1,4,8,3,9,,,,,,,,,,,,,,,,,,,,,,,,,,,,,,,,,,,,,,,,,
,,615fdd9674ec001e9d325841,65af55eb988ae06a9240104e,2024-01-23_08h01.34.845,bars,2023.2.3,Win32,71.42857143,657b66ea316d21385b68909f,,,,,,,,,,,,,,,,,,,,,,,,,,,,,,,,,,,,,,,,,,196.9992,197.7497,right,0.7169,,197.7498,7,2,198.7506,0,16,16,16,1,6,6,7,7,,,,,,,,,,,,,,,,,,,,,,,,,,,,,,,,,,,,,,,,,
,,615fdd9674ec001e9d325841,65af55eb988ae06a9240104e,2024-01-23_08h01.34.845,bars,2023.2.3,Win32,71.42857143,657b66ea316d21385b68909f,,,,,,,,,,,,,,,,,,,,,,,,,,,,,,,,,,,,,,,,,,198.7508,199.3509,left,0.5674,,199.3509,9,1,200.3523,0,17,17,17,1,8,4,9,5,,,,,,,,,,,,,,,,,,,,,,,,,,,,,,,,,,,,,,,,,
,,615fdd9674ec001e9d325841,65af55eb988ae06a9240104e,2024-01-23_08h01.34.845,bars,2023.2.3,Win32,71.42857143,657b66ea316d21385b68909f,,,,,,,,,,,,,,,,,,,,,,,,,,,,,,,,,,,,,,,,,,200.3525,200.9028,right,0.5171,,200.9028,1,2,201.8873,0,18,18,18,1,6,2,5,1,,,,,,,,,,,,,,,,,,,,,,,,,,,,,,,,,,,,,,,,,
,,615fdd9674ec001e9d325841,65af55eb988ae06a9240104e,2024-01-23_08h01.34.845,bars,2023.2.3,Win32,71.42857143,657b66ea316d21385b68909f,,,,,,,,,,,,,,,,,,,,,,,,,,,,,,,,,,,,,,,,,,201.8877,203.0718,right,1.1513,,203.0718,0,2,204.0728,0,19,19,19,1,8,0,7,0,,,,,,,,,,,,,,,,,,,,,,,,,,,,,,,,,,,,,,,,,
,,615fdd9674ec001e9d325841,65af55eb988ae06a9240104e,2024-01-23_08h01.34.845,bars,2023.2.3,Win32,71.42857143,657b66ea316d21385b68909f,,,,,,,,,,,,,,,,,,,,,,,,,,,,,,,,,,,,,,,,,,,,,,,,,,,,,,,,,,,,204.0732,235.2378,space,31.1317,,,,,,,,,,,,,,,,,,,,,,,,,,,,,,,,,,,,,
,,615fdd9674ec001e9d325841,65af55eb988ae06a9240104e,2024-01-23_08h01.34.845,bars,2023.2.3,Win32,71.42857143,657b66ea316d21385b68909f,,,,,,,,,,,236.5908,237.59,,,238.09,238.3402,,25,25,,,,,,,,,,,,,,,,bars/007.png,bars/mask002.png,,,,,,,,,,,,0,2,,,,,,,2,9,1,9,,,,,,235.2442,236.5884,space,1.3182,,237.5902,238.09,238.3403,246.4652,space,8.0916,,246.4653,30,30,247.4657,247.4658,263.9499,space,16.4496,,0,0,0,0,1,175,55,,,,,,,,
,,615fdd9674ec001e9d325841,65af55eb988ae06a9240104e,2024-01-23_08h01.34.845,bars,2023.2.3,Win32,71.42857143,657b66ea316d21385b68909f,,,,,,,,,,,263.9552,264.9493,,,265.4338,265.6836,,25,205,,,,,,,,,,,,,,,,bars/043.png,bars/mask004.png,,,,,,,,,,,,6,1,,,,,,,4,7,7,6,,,,,,,,,,,264.9493,265.4337,265.6837,270.673,space,4.9569,,270.6732,5,75,271.6733,271.6733,278.213,space,6.5067,,0,1,1,1,1,30,130,,,,,,,,
,,615fdd9674ec001e9d325841,65af55eb988ae06a9240104e,2024-01-23_08h01.34.845,bars,2023.2.3,Win32,71.42857143,657b66ea316d21385b68909f,,,,,,,,,,,278.2182,279.2137,,,279.7144,279.9657,,6,186,,,,,,,,,,,,,,,,bars/032.png,bars/mask002.png,,,,,,,,,,,,4,2,,,,,,,6,9,6,8,,,,,,,,,,,279.2137,279.7144,279.9657,284.2523,space,4.2544,,284.2523,61,14,285.2535,285.2535,288.3563,space,3.0693,,0,2,2,2,1,125,20,,,,,,,,
,,615fdd9674ec001e9d325841,65af55eb988ae06a9240104e,2024-01-23_08h01.34.845,bars,2023.2.3,Win32,71.42857143,657b66ea316d21385b68909f,,,,,,,,,,,288.3613,289.3578,,,289.8584,290.1084,,6,6,,,,,,,,,,,,,,,,bars/039.png,bars/mask004.png,,,,,,,,,,,,4,1,,,,,,,8,7,6,8,,,,,,,,,,,289.3578,289.8584,290.1084,296.1481,space,6.0067,,296.1481,11,81,297.1486,297.1487,300.5858,space,3.4039,,0,3,3,3,1,175,105,,,,,,,,
,,615fdd9674ec001e9d325841,65af55eb988ae06a9240104e,2024-01-23_08h01.34.845,bars,2023.2.3,Win32,71.42857143,657b66ea316d21385b68909f,,,,,,,,,,,300.586,301.5861,,,302.0865,302.3368,,69,69,,,,,,,,,,,,,,,,bars/004.png,bars/mask000.png,,,,,,,,,,,,0,1,,,,,,,6,9,5,9,,,,,,,,,,,301.5861,302.0865,302.3369,306.425,space,4.0544,,306.425,44,56,307.426,307.426,310.8632,space,3.4039,,0,4,4,4,1,25,125,,,,,,,,
,,615fdd9674ec001e9d325841,65af55eb988ae06a9240104e,2024-01-23_08h01.34.845,bars,2023.2.3,Win32,71.42857143,657b66ea316d21385b68909f,,,,,,,,,,,310.8634,311.863,,,312.3479,312.5975,,144,-36,,,,,,,,,,,,,,,,bars/025.png,bars/mask004.png,,,,,,,,,,,,0,1,,,,,,,8,7,8,8,,,,,,,,,,,311.8631,312.3478,312.5975,317.2696,space,4.6393,,317.2697,39,76,318.2702,318.2702,321.7234,space,3.4202,,0,5,5,5,1,105,40,,,,,,,,
,,615fdd9674ec001e9d325841,65af55eb988ae06a9240104e,2024-01-23_08h01.34.845,bars,2023.2.3,Win32,71.42857143,657b66ea316d21385b68909f,,,,,,,,,,,321.7284,322.7251,,,323.2248,323.4744,,139,139,,,,,,,,,,,,,,,,bars/019.png,bars/mask000.png,,,,,,,,,,,,0,2,,,,,,,6,5,6,7,,,,,,,,,,,322.7251,323.2248,323.4744,325.844,space,2.3351,,325.844,86,34,326.8286,326.8286,329.5974,space,2.7359,,0,6,6,6,1,45,105,,,,,,,,
,,615fdd9674ec001e9d325841,65af55eb988ae06a9240104e,2024-01-23_08h01.34.845,bars,2023.2.3,Win32,71.42857143,657b66ea316d21385b68909f,,,,,,,,,,,329.6026,330.5988,,,331.099,331.3503,,33,33,,,,,,,,,,,,,,,,bars/043.png,bars/mask007.png,,,,,,,,,,,,2,1,,,,,,,4,7,2,6,,,,,,,,,,,330.5988,331.0989,331.3504,337.9062,space,6.5408,,337.9062,3,83,338.9069,338.9069,341.6594,space,2.7196,,0,7,7,7,1,30,130,,,,,,,,
,,615fdd9674ec001e9d325841,65af55eb988ae06a9240104e,2024-01-23_08h01.34.845,bars,2023.2.3,Win32,71.42857143,657b66ea316d21385b68909f,,,,,,,,,,,341.6595,342.6611,,,343.1615,343.4113,,135,-45,,,,,,,,,,,,,,,,bars/038.png,bars/mask008.png,,,,,,,,,,,,0,1,,,,,,,2,9,2,8,,,,,,,,,,,342.6611,343.1615,343.4113,348.0659,space,4.6213,,348.066,30,65,349.0504,349.0504,353.0712,space,3.9875,,0,8,8,8,1,165,70,,,,,,,,
,,615fdd9674ec001e9d325841,65af55eb988ae06a9240104e,2024-01-23_08h01.34.845,bars,2023.2.3,Win32,71.42857143,657b66ea316d21385b68909f,,,,,,,,,,,353.0761,354.0717,,,354.5721,354.8068,,77,77,,,,,,,,,,,,,,,,bars/028.png,bars/mask009.png,,,,,,,,,,,,0,1,,,,,,,0,10,1,10,,,,,,,,,,,354.0717,354.5721,354.8069,358.6932,space,3.8532,,358.6932,32,43,359.6944,359.6944,364.2833,space,4.5559,,0,9,9,9,1,45,120,,,,,,,,
,,615fdd9674ec001e9d325841,65af55eb988ae06a9240104e,2024-01-23_08h01.34.845,bars,2023.2.3,Win32,71.42857143,657b66ea316d21385b68909f,,,,,,,,,,,364.2884,365.2832,,,365.7834,366.0338,,173,-7,,,,,,,,,,,,,,,,bars/009.png,bars/mask001.png,,,,,,,,,,,,1,1,,,,,,,2,8,3,7,,,,,,,,,,,365.2833,365.7833,366.0338,370.5886,space,4.5209,,370.5887,22,68,371.5901,371.5901,374.3265,space,2.7034,,0,10,10,10,1,15,105,,,,,,,,
,,615fdd9674ec001e9d325841,65af55eb988ae06a9240104e,2024-01-23_08h01.34.845,bars,2023.2.3,Win32,71.42857143,657b66ea316d21385b68909f,,,,,,,,,,,374.3268,375.3271,,,375.8266,376.077,,128,128,,,,,,,,,,,,,,,,bars/004.png,bars/mask006.png,,,,,,,,,,,,9,2,,,,,,,0,10,0,10,,,,,,,,,,,375.3271,375.8266,376.077,379.8142,space,3.7205,,379.8143,77,3,380.815,380.815,384.3692,space,3.521,,0,11,11,11,1,25,125,,,,,,,,
,,615fdd9674ec001e9d325841,65af55eb988ae06a9240104e,2024-01-23_08h01.34.845,bars,2023.2.3,Win32,71.42857143,657b66ea316d21385b68909f,,,,,,,,,,,384.3743,385.3697,,,385.8706,386.121,,64,64,,,,,,,,,,,,,,,,bars/003.png,bars/mask004.png,,,,,,,,,,,,0,1,,,,,,,2,8,2,6,,,,,,,,,,,385.3697,385.8706,386.121,389.1744,space,3.0201,,389.1745,39,76,390.1748,390.1748,391.7434,space,1.5351,,0,12,12,12,1,25,140,,,,,,,,
,,615fdd9674ec001e9d325841,65af55eb988ae06a9240104e,2024-01-23_08h01.34.845,bars,2023.2.3,Win32,71.42857143,657b66ea316d21385b68909f,,,,,,,,,,,391.7436,392.7447,,,393.2442,393.4944,,161,-19,,,,,,,,,,,,,,,,bars/016.png,bars/mask000.png,,,,,,,,,,,,8,2,,,,,,,4,10,5,9,,,,,,,,,,,392.7447,393.2442,393.4944,399.3005,space,5.7889,,399.3005,59,4,400.3022,400.3022,403.8716,space,3.5371,,0,13,13,13,1,40,165,,,,,,,,
,,615fdd9674ec001e9d325841,65af55eb988ae06a9240104e,2024-01-23_08h01.34.845,bars,2023.2.3,Win32,71.42857143,657b66ea316d21385b68909f,,,,,,,,,,,403.8768,404.8728,,,405.3735,405.6242,,33,33,,,,,,,,,,,,,,,,bars/041.png,bars/mask001.png,,,,,,,,,,,,1,1,,,,,,,2,10,2,10,,,,,,,,,,,404.8729,405.3735,405.6242,407.7757,space,2.1195,,407.7758,13,52,408.7765,408.7765,410.7958,space,1.9861,,0,14,14,14,1,20,85,,,,,,,,
,,615fdd9674ec001e9d325841,65af55eb988ae06a9240104e,2024-01-23_08h01.34.845,bars,2023.2.3,Win32,71.42857143,657b66ea316d21385b68909f,,,,,,,,,,,410.7961,411.7974,,,412.2971,412.5479,,22,22,,,,,,,,,,,,,,,,bars/030.png,bars/mask007.png,,,,,,,,,,,,0,2,,,,,,,0,10,0,10,,,,,,,,,,,411.7974,412.2971,412.5479,415.0331,space,2.4532,,415.0332,62,43,416.0335,416.0336,418.9535,space,2.8862,,0,15,15,15,1,140,65,,,,,,,,
,,615fdd9674ec001e9d325841,65af55eb988ae06a9240104e,2024-01-23_08h01.34.845,bars,2023.2.3,Win32,71.42857143,657b66ea316d21385b68909f,,,,,,,,,,,418.9536,419.9541,,,420.4388,420.6891,,42,42,,,,,,,,,,,,,,,,bars/004.png,bars/mask006.png,,,,,,,,,,,,1,1,,,,,,,2,10,2,10,,,,,,,,,,,419.9541,420.4387,420.6891,425.6269,space,4.9049,,425.627,17,83,426.6275,426.6276,427.7453,space,1.0846,,0,16,16,16,1,25,125,,,,,,,,
,,615fdd9674ec001e9d325841,65af55eb988ae06a9240104e,2024-01-23_08h01.34.845,bars,2023.2.3,Win32,71.42857143,657b66ea316d21385b68909f,,,,,,,,,,,427.7455,428.73,,,429.2299,429.4803,,15,15,,,,,,,,,,,,,,,,bars/030.png,bars/mask004.png,,,,,,,,,,,,0,2,,,,,,,0,10,0,8,,,,,,,,,,,428.73,429.2299,429.4803,435.6532,space,6.1561,,435.6532,55,50,436.6546,436.6547,438.2726,space,1.5855,,0,17,17,17,1,140,65,,,,,,,,
,,615fdd9674ec001e9d325841,65af55eb988ae06a9240104e,2024-01-23_08h01.34.845,bars,2023.2.3,Win32,71.42857143,657b66ea316d21385b68909f,,,,,,,,,,,438.2728,439.2739,,,439.774,440.0244,,33,33,,,,,,,,,,,,,,,,bars/013.png,bars/mask008.png,,,,,,,,,,,,2,2,,,,,,,2,10,2,10,,,,,,,,,,,439.2739,439.774,440.0244,445.0127,space,4.9721,,445.0127,42,23,446.0138,446.0138,447.4819,space,1.4352,,0,18,18,18,1,75,10,,,,,,,,
,,615fdd9674ec001e9d325841,65af55eb988ae06a9240104e,2024-01-23_08h01.34.845,bars,2023.2.3,Win32,71.42857143,657b66ea316d21385b68909f,,,,,,,,,,,447.4822,448.4827,,,448.9829,449.2331,,139,139,,,,,,,,,,,,,,,,bars/018.png,bars/mask001.png,,,,,,,,,,,,1,1,,,,,,,0,10,1,10,,,,,,,,,,,448.4827,448.9829,449.2332,456.5744,space,7.3246,,456.5745,11,49,457.5749,457.5749,459.0933,space,1.4851,,0,19,19,19,1,150,90,,,,,,,,
,,615fdd9674ec001e9d325841,65af55eb988ae06a9240104e,2024-01-23_08h01.34.845,bars,2023.2.3,Win32,71.42857143,657b66ea316d21385b68909f,,,,,,,,,,,459.0936,460.094,,,460.5955,460.8447,,24,204,,,,,,,,,,,,,,,,bars/045.png,bars/mask009.png,,,,,,,,,,,,4,2,,,,,,,2,10,1,8,,,,,,,,,,,460.094,460.5955,460.8447,465.2838,space,4.4053,,465.2838,76,14,466.2838,466.2839,468.0362,space,1.719,,0,20,20,20,1,100,10,,,,,,,,
,,615fdd9674ec001e9d325841,65af55eb988ae06a9240104e,2024-01-23_08h01.34.845,bars,2023.2.3,Win32,71.42857143,657b66ea316d21385b68909f,,,,,,,,,,,468.0364,469.0368,,,469.5374,469.7876,,16,196,,,,,,,,,,,,,,,,bars/043.png,bars/mask005.png,,,,,,,,,,,,2,1,,,,,,,4,8,3,8,,,,,,,,,,,469.0369,469.5374,469.7876,472.4899,space,2.6689,,472.4899,14,66,473.4912,473.4912,475.6267,space,2.1023,,0,21,21,21,1,30,130,,,,,,,,
,,615fdd9674ec001e9d325841,65af55eb988ae06a9240104e,2024-01-23_08h01.34.845,bars,2023.2.3,Win32,71.42857143,657b66ea316d21385b68909f,,,,,,,,,,,475.6269,476.6281,,,477.1278,477.378,,32,212,,,,,,,,,,,,,,,,bars/024.png,bars/mask003.png,,,,,,,,,,,,0,2,,,,,,,6,10,7,10,,,,,,,,,,,476.6281,477.1278,477.3781,484.6699,space,7.275,,484.6699,88,42,485.6696,485.6697,487.1879,space,1.4852,,0,22,22,22,1,120,170,,,,,,,,
,,615fdd9674ec001e9d325841,65af55eb988ae06a9240104e,2024-01-23_08h01.34.845,bars,2023.2.3,Win32,71.42857143,657b66ea316d21385b68909f,,,,,,,,,,,487.1881,488.1894,,,488.6902,488.9394,,11,191,,,,,,,,,,,,,,,,bars/049.png,bars/mask003.png,,,,,,,,,,,,0,1,,,,,,,4,10,4,10,,,,,,,,,,,488.1895,488.6902,488.9394,493.3947,space,4.4384,,493.3949,31,76,494.3945,494.3945,495.6802,space,1.2517,,0,23,23,23,1,160,115,,,,,,,,
,,615fdd9674ec001e9d325841,65af55eb988ae06a9240104e,2024-01-23_08h01.34.845,bars,2023.2.3,Win32,71.42857143,657b66ea316d21385b68909f,,,,,,,,,,,495.6803,496.6818,,,497.1816,497.4322,,106,106,,,,,,,,,,,,,,,,bars/046.png,bars/mask008.png,,,,,,,,,,,,3,2,,,,,,,6,8,5,9,,,,,,,,,,,496.6819,497.1814,497.4322,500.1677,space,2.7025,,500.1677,49,21,501.1683,501.1683,504.7725,space,3.5708,,0,24,24,24,1,155,85,,,,,,,,
,,615fdd9674ec001e9d325841,65af55eb988ae06a9240104e,2024-01-23_08h01.34.845,bars,2023.2.3,Win32,71.42857143,657b66ea316d21385b68909f,,,,,,,,,,,504.7777,505.7733,,,506.2735,506.5237,,141,-39,,,,,,,,,,,,,,,,bars/021.png,bars/mask009.png,,,,,,,,,,,,2,1,,,,,,,4,6,4,7,,,,,,,,,,,505.7733,506.2735,506.5237,512.697,space,6.1565,,512.697,14,71,513.6981,513.6981,552.4198,space,38.689,,0,25,25,25,1,155,70,,,,,,,,
,,615fdd9674ec001e9d325841,65af55eb988ae06a9240104e,2024-01-23_08h01.34.845,bars,2023.2.3,Win32,71.42857143,657b66ea316d21385b68909f,,,,,,,,,,,552.4251,553.4207,,,553.9217,554.1711,,21,201,,,,,,,,,,,,,,,,bars/034.png,bars/mask005.png,,,,,,,,,,,,0,2,,,,,,,2,8,1,8,,,,,,,,,,,553.4207,553.9217,554.1711,557.5748,space,3.3707,,557.5749,76,44,558.5596,558.5596,559.5111,space,0.918,,0,26,26,26,1,125,65,,,,,,,,
,,615fdd9674ec001e9d325841,65af55eb988ae06a9240104e,2024-01-23_08h01.34.845,bars,2023.2.3,Win32,71.42857143,657b66ea316d21385b68909f,,,,,,,,,,,559.5113,560.5112,,,561.0112,561.2616,,20,200,,,,,,,,,,,,,,,,bars/012.png,bars/mask008.png,,,,,,,,,,,,8,2,,,,,,,4,10,5,9,,,,,,,,,,,560.5112,561.0111,561.2616,565.1827,space,3.8881,,565.1827,70,5,566.1839,566.1839,567.3514,space,1.1352,,0,27,27,27,1,90,15,,,,,,,,
,,615fdd9674ec001e9d325841,65af55eb988ae06a9240104e,2024-01-23_08h01.34.845,bars,2023.2.3,Win32,71.42857143,657b66ea316d21385b68909f,,,,,,,,,,,567.3516,568.3523,,,568.8528,569.1028,,20,200,,,,,,,,,,,,,,,,bars/015.png,bars/mask009.png,,,,,,,,,,,,0,2,,,,,,,2,10,2,9,,,,,,,,,,,568.3523,568.8528,569.1028,572.0226,space,2.9033,,572.0227,90,40,573.0231,573.0232,573.874,space,0.8175,,0,28,28,28,1,110,160,,,,,,,,
,,615fdd9674ec001e9d325841,65af55eb988ae06a9240104e,2024-01-23_08h01.34.845,bars,2023.2.3,Win32,71.42857143,657b66ea316d21385b68909f,,,,,,,,,,,573.8742,574.8754,,,575.376,575.627,,80,80,,,,,,,,,,,,,,,,bars/015.png,bars/mask000.png,,,,,,,,,,,,0,1,,,,,,,0,8,0,8,,,,,,,,,,,574.8755,575.3759,575.627,578.512,space,2.8521,,578.512,30,80,579.4968,579.4968,580.9815,space,1.452,,0,29,29,29,1,110,160,,,,,,,,
,,615fdd9674ec001e9d325841,65af55eb988ae06a9240104e,2024-01-23_08h01.34.845,bars,2023.2.3,Win32,71.42857143,657b66ea316d21385b68909f,,,,,,,,,,,580.9817,581.9824,,,582.483,582.7328,,18,198,,,,,,,,,,,,,,,,bars/035.png,bars/mask000.png,,,,,,,,,,,,0,1,,,,,,,2,10,2,9,,,,,,,,,,,581.9825,582.483,582.7328,586.1541,space,3.4045,,586.1542,23,42,587.1542,587.1542,587.955,space,0.7679,,0,30,30,30,1,175,60,,,,,,,,
,,615fdd9674ec001e9d325841,65af55eb988ae06a9240104e,2024-01-23_08h01.34.845,bars,2023.2.3,Win32,71.42857143,657b66ea316d21385b68909f,,,,,,,,,,,587.9552,588.9556,,,589.4572,589.708,,78,78,,,,,,,,,,,,,,,,bars/019.png,bars/mask008.png,,,,,,,,,,,,1,2,,,,,,,0,8,0,8,,,,,,,,,,,588.9556,589.4572,589.7081,592.8433,space,3.1189,,592.8434,33,27,593.8447,593.8447,594.5618,space,0.6841,,0,31,31,31,1,45,105,,,,,,,,
,,615fdd9674ec001e9d325841,65af55eb988ae06a9240104e,2024-01-23_08h01.34.845,bars,2023.2.3,Win32,71.42857143,657b66ea316d21385b68909f,,,,,,,,,,,594.562,595.5624,,,596.0637,596.313,,37,37,,,,,,,,,,,,,,,,bars/048.png,bars/mask007.png,,,,,,,,,,,,0,1,,,,,,,0,6,0,5,,,,,,,,,,,595.5624,596.0636,596.3131,600.1341,space,3.7865,,600.1342,13,42,601.1348,601.1348,602.7533,space,1.5853,,0,32,32,32,1,50,175,,,,,,,,
,,615fdd9674ec001e9d325841,65af55eb988ae06a9240104e,2024-01-23_08h01.34.845,bars,2023.2.3,Win32,71.42857143,657b66ea316d21385b68909f,,,,,,,,,,,602.7534,603.7549,,,604.2547,604.5045,,52,52,,,,,,,,,,,,,,,,bars/016.png,bars/mask003.png,,,,,,,,,,,,1,1,,,,,,,0,4,1,4,,,,,,,,,,,603.7549,604.2547,604.5045,607.0413,space,2.5032,,607.0413,12,67,608.0412,608.0412,609.2596,space,1.1837,,0,33,33,33,1,40,165,,,,,,,,
,,615fdd9674ec001e9d325841,65af55eb988ae06a9240104e,2024-01-23_08h01.34.845,bars,2023.2.3,Win32,71.42857143,657b66ea316d21385b68909f,,,,,,,,,,,609.2598,610.2603,,,610.7612,611.0279,,73,73,,,,,,,,,,,,,,,,bars/027.png,bars/mask000.png,,,,,,,,,,,,1,2,,,,,,,0,6,1,6,,,,,,,,,,,610.2603,610.7612,611.0279,613.4475,space,2.4029,,613.4476,37,23,614.4482,614.4482,615.0821,space,0.6009,,0,34,34,34,1,110,50,,,,,,,,
,,615fdd9674ec001e9d325841,65af55eb988ae06a9240104e,2024-01-23_08h01.34.845,bars,2023.2.3,Win32,71.42857143,657b66ea316d21385b68909f,,,,,,,,,,,615.0823,616.0669,,,616.5667,616.8168,,141,-39,,,,,,,,,,,,,,,,bars/022.png,bars/mask003.png,,,,,,,,,,,,0,1,,,,,,,2,8,2,7,,,,,,,,,,,616.0669,616.5667,616.8169,621.7564,space,4.9062,,621.7565,46,59,622.7563,622.7564,623.4242,space,0.635,,0,35,35,35,1,95,20,,,,,,,,
,,615fdd9674ec001e9d325841,65af55eb988ae06a9240104e,2024-01-23_08h01.34.845,bars,2023.2.3,Win32,71.42857143,657b66ea316d21385b68909f,,,,,,,,,,,623.4244,624.4247,,,624.9256,625.1758,,60,60,,,,,,,,,,,,,,,,bars/012.png,bars/mask000.png,,,,,,,,,,,,0,1,,,,,,,4,6,4,6,,,,,,,,,,,624.4247,624.9256,625.1758,630.5306,space,5.3215,,630.5306,30,45,631.5331,631.5331,633.0664,space,1.5014,,0,36,36,36,1,90,15,,,,,,,,
,,615fdd9674ec001e9d325841,65af55eb988ae06a9240104e,2024-01-23_08h01.34.845,bars,2023.2.3,Win32,71.42857143,657b66ea316d21385b68909f,,,,,,,,,,,633.0666,634.0511,,,634.5526,634.8017,,78,78,,,,,,,,,,,,,,,,bars/035.png,bars/mask000.png,,,,,,,,,,,,3,2,,,,,,,6,8,6,8,,,,,,,,,,,634.0512,634.5525,634.8018,637.6549,space,2.8199,,637.6549,83,18,638.6561,638.6562,640.2743,space,1.5845,,0,37,37,37,1,175,60,,,,,,,,
,,615fdd9674ec001e9d325841,65af55eb988ae06a9240104e,2024-01-23_08h01.34.845,bars,2023.2.3,Win32,71.42857143,657b66ea316d21385b68909f,,,,,,,,,,,640.2745,641.2621,,,641.7596,642.0097,,70,70,,,,,,,,,,,,,,,,bars/026.png,bars/mask007.png,,,,,,,,,,,,3,2,,,,,,,8,6,8,6,,,,,,,,,,,641.2621,641.7595,642.0097,644.7786,space,2.7537,,644.7786,35,15,645.7793,645.7793,647.3651,space,1.5522,,0,38,38,38,1,35,85,,,,,,,,
,,615fdd9674ec001e9d325841,65af55eb988ae06a9240104e,2024-01-23_08h01.34.845,bars,2023.2.3,Win32,71.42857143,657b66ea316d21385b68909f,,,,,,,,,,,647.3653,648.3652,,,648.8501,649.0988,,163,-17,,,,,,,,,,,,,,,,bars/018.png,bars/mask004.png,,,,,,,,,,,,2,1,,,,,,,6,4,4,4,,,,,,,,,,,648.3653,648.8501,649.0989,653.0534,space,3.9379,,653.0535,13,73,654.0552,654.0552,655.1217,space,1.0343,,0,39,39,39,1,150,90,,,,,,,,
,,615fdd9674ec001e9d325841,65af55eb988ae06a9240104e,2024-01-23_08h01.34.845,bars,2023.2.3,Win32,71.42857143,657b66ea316d21385b68909f,,,,,,,,,,,655.1218,656.123,,,656.6231,656.874,,64,64,,,,,,,,,,,,,,,,bars/008.png,bars/mask007.png,,,,,,,,,,,,0,1,,,,,,,4,6,5,5,,,,,,,,,,,656.1231,656.6231,656.874,658.6753,space,1.7685,,658.6753,46,64,659.6599,659.6599,661.3783,space,1.6853,,0,40,40,40,1,110,0,,,,,,,,
,,615fdd9674ec001e9d325841,65af55eb988ae06a9240104e,2024-01-23_08h01.34.845,bars,2023.2.3,Win32,71.42857143,657b66ea316d21385b68909f,,,,,,,,,,,661.3786,662.379,,,662.8799,663.1297,,67,67,,,,,,,,,,,,,,,,bars/019.png,bars/mask008.png,,,,,,,,,,,,2,1,,,,,,,6,8,8,8,,,,,,,,,,,662.3791,662.8799,663.1297,667.1336,space,3.9708,,667.1336,22,38,668.1182,668.1183,669.3528,space,1.2009,,0,41,41,41,1,45,105,,,,,,,,
,,615fdd9674ec001e9d325841,65af55eb988ae06a9240104e,2024-01-23_08h01.34.845,bars,2023.2.3,Win32,71.42857143,657b66ea316d21385b68909f,,,,,,,,,,,669.353,670.3534,,,670.8543,671.105,,118,118,,,,,,,,,,,,,,,,bars/002.png,bars/mask003.png,,,,,,,,,,,,4,1,,,,,,,8,6,7,7,,,,,,,,,,,670.3535,670.8543,671.105,674.9417,space,3.8038,,674.9417,12,33,675.9266,675.9266,677.5614,space,1.6024,,0,42,42,42,1,130,85,,,,,,,,
,,615fdd9674ec001e9d325841,65af55eb988ae06a9240104e,2024-01-23_08h01.34.845,bars,2023.2.3,Win32,71.42857143,657b66ea316d21385b68909f,,,,,,,,,,,677.5617,678.5622,,,679.0628,679.3124,,157,-23,,,,,,,,,,,,,,,,bars/023.png,bars/mask008.png,,,,,,,,,,,,0,2,,,,,,,6,4,6,5,,,,,,,,,,,678.5622,679.0628,679.3125,847.6141,space,168.2675,,847.6141,43,42,848.6146,848.6146,849.633,space,0.9851,,0,43,43,43,1,20,115,,,,,,,,
,,615fdd9674ec001e9d325841,65af55eb988ae06a9240104e,2024-01-23_08h01.34.845,bars,2023.2.3,Win32,71.42857143,657b66ea316d21385b68909f,,,,,,,,,,,849.6333,850.6335,,,851.1345,851.3842,,31,211,,,,,,,,,,,,,,,,bars/037.png,bars/mask009.png,,,,,,,,,,,,0,1,,,,,,,4,2,5,2,,,,,,,,,,,850.6335,851.1345,851.3842,853.5364,space,2.1357,,853.5364,61,74,854.5378,854.5378,854.9881,space,0.4178,,0,44,44,44,1,150,105,,,,,,,,
,,615fdd9674ec001e9d325841,65af55eb988ae06a9240104e,2024-01-23_08h01.34.845,bars,2023.2.3,Win32,71.42857143,657b66ea316d21385b68909f,,,,,,,,,,,854.9882,855.9887,,,856.4896,856.7408,,151,-29,,,,,,,,,,,,,,,,bars/032.png,bars/mask001.png,,,,,,,,,,,,1,1,,,,,,,2,0,4,0,,,,,,,,,,,855.9887,856.4896,856.7409,860.1599,space,3.387,,860.16,26,49,861.1606,861.1606,861.9619,space,0.768,,0,45,45,45,1,125,20,,,,,,,,
,,615fdd9674ec001e9d325841,65af55eb988ae06a9240104e,2024-01-23_08h01.34.845,bars,2023.2.3,Win32,71.42857143,657b66ea316d21385b68909f,,,,,,,,,,,861.9622,862.9623,,,863.4623,863.7127,,15,195,,,,,,,,,,,,,,,,bars/002.png,bars/mask002.png,,,,,,,,,,,,0,1,,,,,,,4,0,2,0,,,,,,,,,,,862.9623,863.4623,863.7128,866.1154,space,2.3859,,866.1154,65,70,867.1001,867.1001,867.5333,space,0.3992,,0,46,46,46,1,130,85,,,,,,,,
,,615fdd9674ec001e9d325841,65af55eb988ae06a9240104e,2024-01-23_08h01.34.845,bars,2023.2.3,Win32,71.42857143,657b66ea316d21385b68909f,,,,,,,,,,,867.5334,868.5181,,,869.0184,869.2688,,177,177,,,,,,,,,,,,,,,,bars/019.png,bars/mask000.png,,,,,,,,,,,,0,1,,,,,,,2,2,1,1,,,,,,,,,,,868.5181,869.0184,869.2688,871.6888,space,2.3867,,871.6888,48,72,872.6886,872.6886,873.4229,space,0.7009,,0,47,47,47,1,45,105,,,,,,,,
,,615fdd9674ec001e9d325841,65af55eb988ae06a9240104e,2024-01-23_08h01.34.845,bars,2023.2.3,Win32,71.42857143,657b66ea316d21385b68909f,,,,,,,,,,,873.4231,874.408,,,874.9074,875.1579,,25,25,,,,,,,,,,,,,,,,bars/009.png,bars/mask004.png,,,,,,,,,,,,3,1,,,,,,,4,0,4,0,,,,,,,,,,,874.408,874.9073,875.1579,877.7608,space,2.5686,,877.7608,10,80,878.7622,878.7622,880.1795,space,1.385,,0,48,48,48,1,15,105,,,,,,,,
,,615fdd9674ec001e9d325841,65af55eb988ae06a9240104e,2024-01-23_08h01.34.845,bars,2023.2.3,Win32,71.42857143,657b66ea316d21385b68909f,,,,,,,,,,,880.1797,881.1805,,,881.6817,881.9317,,164,164,,,,,,,,,,,,,,,,bars/000.png,bars/mask008.png,,,,,,,,,,,,0,2,,,,,,,6,0,6,1,,,,,,,,,,,881.1805,881.6817,881.9317,888.1214,space,6.1571,,888.1215,56,19,889.1214,889.1215,889.6064,space,0.4511,,0,49,49,49,1,40,145,,,,,,,,
,,615fdd9674ec001e9d325841,65af55eb988ae06a9240104e,2024-01-23_08h01.34.845,bars,2023.2.3,Win32,71.42857143,657b66ea316d21385b68909f,,,,,,,,,,,,,,,,,,,,,,,,,,,,,,,,,,,,,,,,,,,,,,,,,,,,,,,,,,,,,,,,,,,,,,,,,,,,,,,,,,,,,,,,,,,,,889.6069,949.6003,0,0,0,1,1,sequence_tables/blk030.csv
,,615fdd9674ec001e9d325841,65af55eb988ae06a9240104e,2024-01-23_08h01.34.845,bars,2023.2.3,Win32,71.42857143,657b66ea316d21385b68909f,,,,,,,,,,,1101.1691,1102.168,,,1102.6675,1102.9179,,29,209,,,,,,,,,,,,,,,,bars/001.png,bars/mask001.png,,,,,,,,,,,,0,2,,,,,,,1,9,1,9,,,,,,949.6061,1101.1665,space,151.5345,,1102.1681,1102.6675,1102.9179,1105.671,space,2.7195,,1105.671,79,56,1106.6716,1106.6717,1106.6769,,,,0,0,0,0,1,130,85,,,,,,,,
,,615fdd9674ec001e9d325841,65af55eb988ae06a9240104e,2024-01-23_08h01.34.845,bars,2023.2.3,Win32,71.42857143,657b66ea316d21385b68909f,,,,,,,,,,,1106.6769,1107.6735,,,1108.1731,1108.4235,,22,202,,,,,,,,,,,,,,,,bars/004.png,bars/mask006.png,,,,,,,,,,,,1,1,,,,,,,0,10,1,10,,,,,,,,,,,1107.6735,1108.1731,1108.4236,1111.4433,space,2.9863,,1111.4433,3,77,1112.4279,1112.428,1112.4336,,,,0,1,1,1,1,25,125,,,,,,,,
,,615fdd9674ec001e9d325841,65af55eb988ae06a9240104e,2024-01-23_08h01.34.845,bars,2023.2.3,Win32,71.42857143,657b66ea316d21385b68909f,,,,,,,,,,,1112.4338,1113.4286,,,1113.9288,1114.1793,,65,245,,,,,,,,,,,,,,,,bars/030.png,bars/mask002.png,,,,,,,,,,,,8,2,,,,,,,0,8,0,8,,,,,,,,,,,1113.4287,1113.9288,1114.1793,1120.3198,space,6.1238,,1120.3199,75,0,1121.3205,1121.3206,1121.327,,,,0,2,2,2,1,140,65,,,,,,,,
,,615fdd9674ec001e9d325841,65af55eb988ae06a9240104e,2024-01-23_08h01.34.845,bars,2023.2.3,Win32,71.42857143,657b66ea316d21385b68909f,,,,,,,,,,,1121.3271,1122.3214,,,1122.8215,1123.0718,,114,114,,,,,,,,,,,,,,,,bars/011.png,bars/mask006.png,,,,,,,,,,,,0,2,,,,,,,2,10,1,9,,,,,,,,,,,1122.3214,1122.8215,1123.0718,1131.6637,space,8.5588,,1131.6639,46,29,1132.6644,1132.6644,1132.6699,,,,0,3,3,3,1,160,85,,,,,,,,
,,615fdd9674ec001e9d325841,65af55eb988ae06a9240104e,2024-01-23_08h01.34.845,bars,2023.2.3,Win32,71.42857143,657b66ea316d21385b68909f,,,,,,,,,,,1132.6701,1133.6653,,,1134.1505,1134.3998,,158,-22,,,,,,,,,,,,,,,,bars/044.png,bars/mask007.png,,,,,,,,,,,,9,2,,,,,,,0,10,0,10,,,,,,,,,,,1133.6653,1134.1505,1134.3998,1139.2547,space,4.8388,,1139.2547,83,3,1140.2555,1140.2556,1140.2608,,,,0,4,4,4,1,75,155,,,,,,,,
,,615fdd9674ec001e9d325841,65af55eb988ae06a9240104e,2024-01-23_08h01.34.845,bars,2023.2.3,Win32,71.42857143,657b66ea316d21385b68909f,,,,,,,,,,,1140.2609,1141.2569,,,1141.7574,1142.0069,,23,203,,,,,,,,,,,,,,,,bars/041.png,bars/mask007.png,,,,,,,,,,,,1,1,,,,,,,0,10,1,9,,,,,,,,,,,1141.2569,1141.7574,1142.0069,1144.8932,space,2.8522,,1144.8932,3,62,1145.8778,1145.8778,1145.8839,,,,0,5,5,5,1,20,85,,,,,,,,
,,615fdd9674ec001e9d325841,65af55eb988ae06a9240104e,2024-01-23_08h01.34.845,bars,2023.2.3,Win32,71.42857143,657b66ea316d21385b68909f,,,,,,,,,,,1145.884,1146.8785,,,1147.3788,1147.6291,,40,220,,,,,,,,,,,,,,,,bars/015.png,bars/mask009.png,,,,,,,,,,,,0,2,,,,,,,2,10,2,9,,,,,,,,,,,1146.8785,1147.3788,1147.6291,1151.4174,space,3.7547,,1151.4175,70,60,1152.4176,1152.4177,1152.4237,,,,0,6,6,6,1,110,160,,,,,,,,
,,615fdd9674ec001e9d325841,65af55eb988ae06a9240104e,2024-01-23_08h01.34.845,bars,2023.2.3,Win32,71.42857143,657b66ea316d21385b68909f,,,,,,,,,,,1152.4239,1153.4187,,,1153.9191,1154.1689,,21,201,,,,,,,,,,,,,,,,bars/015.png,bars/mask004.png,,,,,,,,,,,,0,2,,,,,,,0,8,0,8,,,,,,,,,,,1153.4188,1153.9191,1154.169,1158.2738,space,4.0874,,1158.2738,89,41,1159.2743,1159.2743,1159.2796,,,,0,7,7,7,1,110,160,,,,,,,,
,,615fdd9674ec001e9d325841,65af55eb988ae06a9240104e,2024-01-23_08h01.34.845,bars,2023.2.3,Win32,71.42857143,657b66ea316d21385b68909f,,,,,,,,,,,1159.2796,1160.2753,,,1160.7762,1161.0267,,29,209,,,,,,,,,,,,,,,,bars/031.png,bars/mask006.png,,,,,,,,,,,,7,2,,,,,,,0,10,0,9,,,,,,,,,,,1160.2753,1160.7761,1161.0267,1166.2814,space,5.2387,,1166.2814,89,6,1167.282,1167.282,1167.2873,,,,0,8,8,8,1,120,35,,,,,,,,
,,615fdd9674ec001e9d325841,65af55eb988ae06a9240104e,2024-01-23_08h01.34.845,bars,2023.2.3,Win32,71.42857143,657b66ea316d21385b68909f,,,,,,,,,,,1167.2875,1168.2828,,,1168.7839,1169.0353,,18,198,,,,,,,,,,,,,,,,bars/037.png,bars/mask008.png,,,,,,,,,,,,0,1,,,,,,,2,10,3,10,,,,,,,,,,,1168.2829,1168.7838,1169.0353,1172.9713,space,3.9033,,1172.9713,48,87,1173.972,1173.972,1173.9779,,,,0,9,9,9,1,150,105,,,,,,,,
,,615fdd9674ec001e9d325841,65af55eb988ae06a9240104e,2024-01-23_08h01.34.845,bars,2023.2.3,Win32,71.42857143,657b66ea316d21385b68909f,,,,,,,,,,,1173.978,1174.9735,,,1175.4738,1175.7248,,48,48,,,,,,,,,,,,,,,,bars/011.png,bars/mask009.png,,,,,,,,,,,,0,2,,,,,,,4,10,4,10,,,,,,,,,,,1174.9735,1175.4738,1175.7248,1179.2941,space,3.5363,,1179.2941,68,37,1180.2955,1180.2955,1180.3016,,,,0,10,10,10,1,160,85,,,,,,,,
,,615fdd9674ec001e9d325841,65af55eb988ae06a9240104e,2024-01-23_08h01.34.845,bars,2023.2.3,Win32,71.42857143,657b66ea316d21385b68909f,,,,,,,,,,,1180.3017,1181.2959,,,1181.7805,1182.0303,,139,139,,,,,,,,,,,,,,,,bars/018.png,bars/mask001.png,,,,,,,,,,,,2,1,,,,,,,2,10,3,10,,,,,,,,,,,1181.2959,1181.7804,1182.0303,1185.1512,space,3.1034,,1185.1512,11,49,1186.1518,1186.1519,1186.1576,,,,0,11,11,11,1,150,90,,,,,,,,
,,615fdd9674ec001e9d325841,65af55eb988ae06a9240104e,2024-01-23_08h01.34.845,bars,2023.2.3,Win32,71.42857143,657b66ea316d21385b68909f,,,,,,,,,,,1186.1578,1187.1518,,,1187.6526,1187.9045,,123,123,,,,,,,,,,,,,,,,bars/047.png,bars/mask004.png,,,,,,,,,,,,0,2,,,,,,,4,8,4,8,,,,,,,,,,,1187.1519,1187.6526,1187.9046,1190.7722,space,2.8362,,1190.7723,72,53,1191.7733,1191.7733,1191.7791,,,,0,12,12,12,1,15,70,,,,,,,,
,,615fdd9674ec001e9d325841,65af55eb988ae06a9240104e,2024-01-23_08h01.34.845,bars,2023.2.3,Win32,71.42857143,657b66ea316d21385b68909f,,,,,,,,,,,1191.7792,1192.7751,,,1193.2748,1193.5259,,16,196,,,,,,,,,,,,,,,,bars/004.png,bars/mask008.png,,,,,,,,,,,,1,1,,,,,,,2,10,2,9,,,,,,,,,,,1192.7751,1193.2748,1193.5259,1197.5959,space,4.0547,,1197.596,9,71,1198.5978,1198.5978,1198.6038,,,,0,13,13,13,1,25,125,,,,,,,,
,,615fdd9674ec001e9d325841,65af55eb988ae06a9240104e,2024-01-23_08h01.34.845,bars,2023.2.3,Win32,71.42857143,657b66ea316d21385b68909f,,,,,,,,,,,1198.6039,1199.598,,,1200.0984,1200.3482,,115,115,,,,,,,,,,,,,,,,bars/009.png,bars/mask007.png,,,,,,,,,,,,7,2,,,,,,,4,10,5,10,,,,,,,,,,,1199.598,1200.0984,1200.3482,1202.7341,space,2.3691,,1202.7341,80,10,1203.735,1203.7351,1203.7409,,,,0,14,14,14,1,15,105,,,,,,,,
,,615fdd9674ec001e9d325841,65af55eb988ae06a9240104e,2024-01-23_08h01.34.845,bars,2023.2.3,Win32,71.42857143,657b66ea316d21385b68909f,,,,,,,,,,,1203.741,1204.7356,,,1205.2365,1205.4879,,28,208,,,,,,,,,,,,,,,,bars/021.png,bars/mask002.png,,,,,,,,,,,,0,2,,,,,,,6,8,6,9,,,,,,,,,,,1204.7356,1205.2365,1205.4879,1207.9566,space,2.4351,,1207.9566,53,42,1208.9571,1208.9572,1208.9625,,,,0,15,15,15,1,155,70,,,,,,,,
,,615fdd9674ec001e9d325841,65af55eb988ae06a9240104e,2024-01-23_08h01.34.845,bars,2023.2.3,Win32,71.42857143,657b66ea316d21385b68909f,,,,,,,,,,,1208.9627,1209.9576,,,1210.4588,1210.7091,,160,160,,,,,,,,,,,,,,,,bars/028.png,bars/mask000.png,,,,,,,,,,,,0,2,,,,,,,4,6,3,7,,,,,,,,,,,1209.9577,1210.4588,1210.7091,1217.9838,space,7.2588,,1217.9838,65,40,1218.9837,1218.9837,1218.9892,,,,0,16,16,16,1,45,120,,,,,,,,
,,615fdd9674ec001e9d325841,65af55eb988ae06a9240104e,2024-01-23_08h01.34.845,bars,2023.2.3,Win32,71.42857143,657b66ea316d21385b68909f,,,,,,,,,,,1218.9893,1219.9847,,,1220.4849,1220.7356,,163,-17,,,,,,,,,,,,,,,,bars/040.png,bars/mask003.png,,,,,,,,,,,,2,2,,,,,,,6,4,7,6,,,,,,,,,,,1219.9847,1220.4849,1220.7356,1226.3244,space,5.5559,,1226.3244,23,22,1227.309,1227.3091,1227.3146,,,,0,17,17,17,1,140,5,,,,,,,,
,,615fdd9674ec001e9d325841,65af55eb988ae06a9240104e,2024-01-23_08h01.34.845,bars,2023.2.3,Win32,71.42857143,657b66ea316d21385b68909f,,,,,,,,,,,1227.3147,1228.3099,,,1228.8101,1229.0604,,151,151,,,,,,,,,,,,,,,,bars/018.png,bars/mask005.png,,,,,,,,,,,,8,1,,,,,,,8,2,8,2,,,,,,,,,,,1228.3099,1228.8101,1229.0604,1233.6985,space,4.6215,,1233.6985,1,61,1234.6993,1234.6993,1234.7053,,,,0,18,18,18,1,150,90,,,,,,,,
,,615fdd9674ec001e9d325841,65af55eb988ae06a9240104e,2024-01-23_08h01.34.845,bars,2023.2.3,Win32,71.42857143,657b66ea316d21385b68909f,,,,,,,,,,,1234.7054,1235.7007,,,1236.2009,1236.4523,,108,108,,,,,,,,,,,,,,,,bars/048.png,bars/mask004.png,,,,,,,,,,,,0,1,,,,,,,10,4,10,3,,,,,,,,,,,1235.7008,1236.2009,1236.4524,1238.4705,space,1.9854,,1238.4705,58,67,1239.4709,1239.4709,1239.4762,,,,0,19,19,19,1,50,175,,,,,,,,
,,615fdd9674ec001e9d325841,65af55eb988ae06a9240104e,2024-01-23_08h01.34.845,bars,2023.2.3,Win32,71.42857143,657b66ea316d21385b68909f,,,,,,,,,,,1239.4763,1240.4719,,,1240.9726,1241.2232,,26,206,,,,,,,,,,,,,,,,bars/015.png,bars/mask008.png,,,,,,,,,,,,0,2,,,,,,,10,6,10,6,,,,,,,,,,,1240.472,1240.9726,1241.2233,1244.2937,space,3.0379,,1244.2937,84,46,1245.2934,1245.2934,1245.299,,,,0,20,20,20,1,110,160,,,,,,,,
,,615fdd9674ec001e9d325841,65af55eb988ae06a9240104e,2024-01-23_08h01.34.845,bars,2023.2.3,Win32,71.42857143,657b66ea316d21385b68909f,,,,,,,,,,,1245.2992,1246.2949,,,1246.7944,1247.0449,,161,-19,,,,,,,,,,,,,,,,bars/001.png,bars/mask007.png,,,,,,,,,,,,0,1,,,,,,,10,4,9,4,,,,,,,,,,,1246.2949,1246.7943,1247.0449,1249.9314,space,2.8697,,1249.9314,31,76,1250.9322,1250.9322,1250.9379,,,,0,21,21,21,1,130,85,,,,,,,,
,,615fdd9674ec001e9d325841,65af55eb988ae06a9240104e,2024-01-23_08h01.34.845,bars,2023.2.3,Win32,71.42857143,657b66ea316d21385b68909f,,,,,,,,,,,1250.938,1251.9329,,,1252.4338,1252.6838,,18,198,,,,,,,,,,,,,,,,bars/023.png,bars/mask008.png,,,,,,,,,,,,9,1,,,,,,,10,6,10,7,,,,,,,,,,,1251.9329,1252.4338,1252.6839,1256.7714,space,4.0543,,1256.7714,2,83,1257.773,1257.773,1257.7782,,,,0,22,22,22,1,20,115,,,,,,,,
,,615fdd9674ec001e9d325841,65af55eb988ae06a9240104e,2024-01-23_08h01.34.845,bars,2023.2.3,Win32,71.42857143,657b66ea316d21385b68909f,,,,,,,,,,,1257.7784,1258.7736,,,1259.274,1259.5244,,164,164,,,,,,,,,,,,,,,,bars/048.png,bars/mask006.png,,,,,,,,,,,,3,2,,,,,,,8,4,7,4,,,,,,,,,,,1258.7736,1259.2739,1259.5244,1262.9775,space,3.42,,1262.9775,66,11,1263.9787,1263.9788,1263.9846,,,,0,23,23,23,1,50,175,,,,,,,,
,,615fdd9674ec001e9d325841,65af55eb988ae06a9240104e,2024-01-23_08h01.34.845,bars,2023.2.3,Win32,71.42857143,657b66ea316d21385b68909f,,,,,,,,,,,1263.9848,1264.9798,,,1265.4804,1265.7305,,165,-15,,,,,,,,,,,,,,,,bars/010.png,bars/mask000.png,,,,,,,,,,,,6,1,,,,,,,6,6,6,6,,,,,,,,,,,1264.9798,1265.4803,1265.7305,1269.7011,space,3.9544,,1269.7011,0,70,1270.7026,1270.7026,1270.7083,,,,0,24,24,24,1,165,55,,,,,,,,
,,615fdd9674ec001e9d325841,65af55eb988ae06a9240104e,2024-01-23_08h01.34.845,bars,2023.2.3,Win32,71.42857143,657b66ea316d21385b68909f,,,,,,,,,,,1270.7084,1271.7034,,,1272.2037,1272.4534,,21,201,,,,,,,,,,,,,,,,bars/006.png,bars/mask007.png,,,,,,,,,,,,2,1,,,,,,,4,8,4,8,,,,,,,,,,,1271.7034,1272.2037,1272.4534,1276.9589,space,4.4708,,1276.9589,14,79,1277.9588,1277.9588,1277.964,,,,0,25,25,25,1,35,100,,,,,,,,
,,615fdd9674ec001e9d325841,65af55eb988ae06a9240104e,2024-01-23_08h01.34.845,bars,2023.2.3,Win32,71.42857143,657b66ea316d21385b68909f,,,,,,,,,,,1277.9641,1278.9606,,,1279.4619,1279.7109,,17,197,,,,,,,,,,,,,,,,bars/042.png,bars/mask002.png,,,,,,,,,,,,0,1,,,,,,,6,6,4,6,,,,,,,,,,,1278.9607,1279.4618,1279.7109,1282.6474,space,2.9196,,1282.6474,52,58,1283.6478,1283.6478,1283.6529,,,,0,26,26,26,1,145,75,,,,,,,,
,,615fdd9674ec001e9d325841,65af55eb988ae06a9240104e,2024-01-23_08h01.34.845,bars,2023.2.3,Win32,71.42857143,657b66ea316d21385b68909f,,,,,,,,,,,1283.653,1284.6493,,,1285.1497,1285.4013,,21,201,,,,,,,,,,,,,,,,bars/028.png,bars/mask002.png,,,,,,,,,,,,1,1,,,,,,,4,8,3,8,,,,,,,,,,,1284.6493,1285.1496,1285.4013,1288.5035,space,3.0697,,1288.5035,24,81,1289.504,1289.504,1289.5092,,,,0,27,27,27,1,45,120,,,,,,,,
,,615fdd9674ec001e9d325841,65af55eb988ae06a9240104e,2024-01-23_08h01.34.845,bars,2023.2.3,Win32,71.42857143,657b66ea316d21385b68909f,,,,,,,,,,,1289.5093,1290.5048,,,1291.0057,1291.2554,,25,205,,,,,,,,,,,,,,,,bars/015.png,bars/mask008.png,,,,,,,,,,,,0,2,,,,,,,6,6,7,5,,,,,,,,,,,1290.5048,1291.0057,1291.2554,1295.0604,space,3.7713,,1295.0605,85,45,1296.0612,1296.0613,1296.0671,,,,0,28,28,28,1,110,160,,,,,,,,
,,615fdd9674ec001e9d325841,65af55eb988ae06a9240104e,2024-01-23_08h01.34.845,bars,2023.2.3,Win32,71.42857143,657b66ea316d21385b68909f,,,,,,,,,,,1296.0672,1297.0612,,,1297.5622,1297.8128,,152,-28,,,,,,,,,,,,,,,,bars/024.png,bars/mask001.png,,,,,,,,,,,,4,2,,,,,,,4,8,5,9,,,,,,,,,,,1297.0612,1297.5622,1297.8128,1301.8667,space,4.02,,1301.8667,32,18,1302.8673,1302.8673,1302.8725,,,,0,29,29,29,1,120,170,,,,,,,,
,,615fdd9674ec001e9d325841,65af55eb988ae06a9240104e,2024-01-23_08h01.34.845,bars,2023.2.3,Win32,71.42857143,657b66ea316d21385b68909f,,,,,,,,,,,1302.8726,1303.8684,,,1304.3686,1304.6188,,135,-45,,,,,,,,,,,,,,,,bars/025.png,bars/mask007.png,,,,,,,,,,,,0,1,,,,,,,6,6,5,5,,,,,,,,,,,1303.8684,1304.3686,1304.6188,1308.74,space,4.0874,,1308.74,30,85,1309.7245,1309.7245,1309.7302,,,,0,30,30,30,1,105,40,,,,,,,,
,,615fdd9674ec001e9d325841,65af55eb988ae06a9240104e,2024-01-23_08h01.34.845,bars,2023.2.3,Win32,71.42857143,657b66ea316d21385b68909f,,,,,,,,,,,1309.7304,1310.7246,,,1311.2261,1311.4758,,130,-50,,,,,,,,,,,,,,,,bars/027.png,bars/mask003.png,,,,,,,,,,,,1,1,,,,,,,4,8,3,10,,,,,,,,,,,1310.7246,1311.2261,1311.4759,1314.9135,space,3.4203,,1314.9135,20,80,1315.9142,1315.9142,1315.9195,,,,0,31,31,31,1,110,50,,,,,,,,
,,615fdd9674ec001e9d325841,65af55eb988ae06a9240104e,2024-01-23_08h01.34.845,bars,2023.2.3,Win32,71.42857143,657b66ea316d21385b68909f,,,,,,,,,,,1315.9196,1316.9145,,,1317.4151,1317.6656,,25,205,,,,,,,,,,,,,,,,bars/028.png,bars/mask008.png,,,,,,,,,,,,1,1,,,,,,,2,6,4,7,,,,,,,,,,,1316.9145,1317.4151,1317.6656,1325.7911,space,8.0925,,1325.7911,20,85,1326.791,1326.7911,1326.7966,,,,0,32,32,32,1,45,120,,,,,,,,
,,615fdd9674ec001e9d325841,65af55eb988ae06a9240104e,2024-01-23_08h01.34.845,bars,2023.2.3,Win32,71.42857143,657b66ea316d21385b68909f,,,,,,,,,,,1326.7967,1327.7921,,,1328.2923,1328.5428,,170,-10,,,,,,,,,,,,,,,,bars/046.png,bars/mask002.png,,,,,,,,,,,,0,1,,,,,,,0,8,0,8,,,,,,,,,,,1327.7922,1328.2922,1328.5428,1333.1145,space,4.5545,,1333.1145,15,85,1334.1164,1334.1164,1334.1215,,,,0,33,33,33,1,155,85,,,,,,,,
,,615fdd9674ec001e9d325841,65af55eb988ae06a9240104e,2024-01-23_08h01.34.845,bars,2023.2.3,Win32,71.42857143,657b66ea316d21385b68909f,,,,,,,,,,,1334.1217,1335.1169,,,1335.6164,1335.8666,,158,-22,,,,,,,,,,,,,,,,bars/014.png,bars/mask009.png,,,,,,,,,,,,2,2,,,,,,,2,6,2,7,,,,,,,,,,,1335.1169,1335.6164,1335.8666,1340.1884,space,4.3039,,1340.1884,78,22,1341.173,1341.173,1341.1786,,,,0,34,34,34,1,80,0,,,,,,,,
,,615fdd9674ec001e9d325841,65af55eb988ae06a9240104e,2024-01-23_08h01.34.845,bars,2023.2.3,Win32,71.42857143,657b66ea316d21385b68909f,,,,,,,,,,,1341.1788,1342.1736,,,1342.6583,1342.9083,,144,-36,,,,,,,,,,,,,,,,bars/002.png,bars/mask004.png,,,,,,,,,,,,1,1,,,,,,,0,4,1,4,,,,,,,,,,,1342.1737,1342.6583,1342.9083,1346.5776,space,3.6373,,1346.5776,14,59,1347.5783,1347.5783,1347.5842,,,,0,35,35,35,1,130,85,,,,,,,,
,,615fdd9674ec001e9d325841,65af55eb988ae06a9240104e,2024-01-23_08h01.34.845,bars,2023.2.3,Win32,71.42857143,657b66ea316d21385b68909f,,,,,,,,,,,1347.5843,1348.5793,,,1349.08,1349.331,,18,198,,,,,,,,,,,,,,,,bars/046.png,bars/mask008.png,,,,,,,,,,,,0,1,,,,,,,0,6,0,4,,,,,,,,,,,1348.5793,1349.0799,1349.331,1353.9689,space,4.6222,,1353.9689,43,67,1354.9698,1354.9698,1354.9751,,,,0,36,36,36,1,155,85,,,,,,,,
,,615fdd9674ec001e9d325841,65af55eb988ae06a9240104e,2024-01-23_08h01.34.845,bars,2023.2.3,Win32,71.42857143,657b66ea316d21385b68909f,,,,,,,,,,,1354.9753,1355.9701,,,1356.4709,1356.7207,,154,-26,,,,,,,,,,,,,,,,bars/044.png,bars/mask001.png,,,,,,,,,,,,5,2,,,,,,,2,4,2,5,,,,,,,,,,,1355.9701,1356.4709,1356.7207,1360.3585,space,3.6206,,1360.3585,79,1,1361.3587,1361.3587,1361.3647,,,,0,37,37,37,1,75,155,,,,,,,,
,,615fdd9674ec001e9d325841,65af55eb988ae06a9240104e,2024-01-23_08h01.34.845,bars,2023.2.3,Win32,71.42857143,657b66ea316d21385b68909f,,,,,,,,,,,1361.3649,1362.3595,,,1362.8603,1363.1109,,40,220,,,,,,,,,,,,,,,,bars/038.png,bars/mask007.png,,,,,,,,,,,,0,2,,,,,,,4,6,5,6,,,,,,,,,,,1362.3595,1362.8603,1363.1109,1366.5144,space,3.3877,,1366.5144,55,30,1367.5153,1367.5154,1367.5206,,,,0,38,38,38,1,165,70,,,,,,,,
,,615fdd9674ec001e9d325841,65af55eb988ae06a9240104e,2024-01-23_08h01.34.845,bars,2023.2.3,Win32,71.42857143,657b66ea316d21385b68909f,,,,,,,,,,,1367.5207,1368.5167,,,1369.0171,1369.2665,,61,241,,,,,,,,,,,,,,,,bars/006.png,bars/mask003.png,,,,,,,,,,,,0,1,,,,,,,2,8,1,8,,,,,,,,,,,1368.5167,1369.0171,1369.2665,1373.4212,space,4.138,,1373.4212,26,39,1374.4225,1374.4225,1374.4282,,,,0,39,39,39,1,35,100,,,,,,,,
,,615fdd9674ec001e9d325841,65af55eb988ae06a9240104e,2024-01-23_08h01.34.845,bars,2023.2.3,Win32,71.42857143,657b66ea316d21385b68909f,,,,,,,,,,,1374.4283,1375.4233,,,1375.9235,1376.1746,,22,202,,,,,,,,,,,,,,,,bars/004.png,bars/mask003.png,,,,,,,,,,,,0,1,,,,,,,0,10,0,10,,,,,,,,,,,1375.4233,1375.9234,1376.1746,1379.7609,space,3.5708,,1379.7609,3,77,1380.7616,1380.7617,1380.7668,,,,0,40,40,40,1,25,125,,,,,,,,
,,615fdd9674ec001e9d325841,65af55eb988ae06a9240104e,2024-01-23_08h01.34.845,bars,2023.2.3,Win32,71.42857143,657b66ea316d21385b68909f,,,,,,,,,,,1380.7669,1381.7624,,,1382.2626,1382.5136,,85,85,,,,,,,,,,,,,,,,bars/028.png,bars/mask009.png,,,,,,,,,,,,0,2,,,,,,,0,8,1,10,,,,,,,,,,,1381.7624,1382.2625,1382.5137,1384.6322,space,2.0847,,1384.6322,40,35,1385.6329,1385.6329,1385.6392,,,,0,41,41,41,1,45,120,,,,,,,,
,,615fdd9674ec001e9d325841,65af55eb988ae06a9240104e,2024-01-23_08h01.34.845,bars,2023.2.3,Win32,71.42857143,657b66ea316d21385b68909f,,,,,,,,,,,1385.6393,1386.6339,,,1387.1347,1387.3693,,156,156,,,,,,,,,,,,,,,,bars/012.png,bars/mask008.png,,,,,,,,,,,,0,2,,,,,,,0,10,0,10,,,,,,,,,,,1386.634,1387.1346,1387.3693,1392.4564,space,5.0551,,1392.4564,66,39,1393.4416,1393.4416,1393.4475,,,,0,42,42,42,1,90,15,,,,,,,,
,,615fdd9674ec001e9d325841,65af55eb988ae06a9240104e,2024-01-23_08h01.34.845,bars,2023.2.3,Win32,71.42857143,657b66ea316d21385b68909f,,,,,,,,,,,1393.4476,1394.4417,,,1394.9427,1395.1928,,57,57,,,,,,,,,,,,,,,,bars/019.png,bars/mask002.png,,,,,,,,,,,,1,1,,,,,,,2,10,2,10,,,,,,,,,,,1394.4417,1394.9427,1395.1928,1399.2634,space,4.0365,,1399.2634,12,48,1400.248,1400.2481,1400.2538,,,,0,43,43,43,1,45,105,,,,,,,,
,,615fdd9674ec001e9d325841,65af55eb988ae06a9240104e,2024-01-23_08h01.34.845,bars,2023.2.3,Win32,71.42857143,657b66ea316d21385b68909f,,,,,,,,,,,1400.2539,1401.2496,,,1401.7489,1402.0002,,109,109,,,,,,,,,,,,,,,,bars/009.png,bars/mask008.png,,,,,,,,,,,,8,2,,,,,,,0,8,1,9,,,,,,,,,,,1401.2496,1401.7489,1402.0002,1404.8699,space,2.8375,,1404.87,86,4,1405.8699,1405.8699,1405.8758,,,,0,44,44,44,1,15,105,,,,,,,,
,,615fdd9674ec001e9d325841,65af55eb988ae06a9240104e,2024-01-23_08h01.34.845,bars,2023.2.3,Win32,71.42857143,657b66ea316d21385b68909f,,,,,,,,,,,1405.8759,1406.8706,,,1407.3715,1407.622,,69,69,,,,,,,,,,,,,,,,bars/045.png,bars/mask006.png,,,,,,,,,,,,0,1,,,,,,,0,10,0,10,,,,,,,,,,,1406.8706,1407.3715,1407.622,1410.3914,space,2.7366,,1410.3914,31,59,1411.3925,1411.3926,1411.3983,,,,0,45,45,45,1,100,10,,,,,,,,
,,615fdd9674ec001e9d325841,65af55eb988ae06a9240104e,2024-01-23_08h01.34.845,bars,2023.2.3,Win32,71.42857143,657b66ea316d21385b68909f,,,,,,,,,,,1411.3984,1412.3933,,,1412.8932,1413.1435,,59,59,,,,,,,,,,,,,,,,bars/025.png,bars/mask005.png,,,,,,,,,,,,4,2,,,,,,,0,10,0,10,,,,,,,,,,,1412.3933,1412.8932,1413.1435,1465.6974,space,52.537,,1465.6975,46,19,1466.6975,1466.6976,1466.7035,,,,0,46,46,46,1,105,40,,,,,,,,
,,615fdd9674ec001e9d325841,65af55eb988ae06a9240104e,2024-01-23_08h01.34.845,bars,2023.2.3,Win32,71.42857143,657b66ea316d21385b68909f,,,,,,,,,,,1466.7036,1467.6985,,,1468.2003,1468.4492,,25,205,,,,,,,,,,,,,,,,bars/011.png,bars/mask004.png,,,,,,,,,,,,0,1,,,,,,,0,8,0,8,,,,,,,,,,,1467.6985,1468.2003,1468.4492,1558.1429,space,89.6595,,1558.1429,45,60,1559.1395,1559.1395,1559.1458,,,,0,47,47,47,1,160,85,,,,,,,,
,,615fdd9674ec001e9d325841,65af55eb988ae06a9240104e,2024-01-23_08h01.34.845,bars,2023.2.3,Win32,71.42857143,657b66ea316d21385b68909f,,,,,,,,,,,1559.1459,1560.141,,,1560.6408,1560.8908,,47,227,,,,,,,,,,,,,,,,bars/028.png,bars/mask004.png,,,,,,,,,,,,0,1,,,,,,,0,6,0,7,,,,,,,,,,,1560.141,1560.6408,1560.8909,1565.6457,space,4.7384,,1565.6458,2,73,1566.647,1566.647,1566.6521,,,,0,48,48,48,1,45,120,,,,,,,,
,,615fdd9674ec001e9d325841,65af55eb988ae06a9240104e,2024-01-23_08h01.34.845,bars,2023.2.3,Win32,71.42857143,657b66ea316d21385b68909f,,,,,,,,,,,1566.6523,1567.6477,,,1568.1498,1568.3987,,132,-48,,,,,,,,,,,,,,,,bars/046.png,bars/mask006.png,,,,,,,,,,,,1,1,,,,,,,2,4,3,5,,,,,,,,,,,1567.6477,1568.1498,1568.3987,1574.5717,space,6.1568,,1574.5718,23,47,1575.5725,1575.5726,1575.5785,,,,0,49,49,49,1,155,85,,,,,,,,
,,615fdd9674ec001e9d325841,65af55eb988ae06a9240104e,2024-01-23_08h01.34.845,bars,2023.2.3,Win32,71.42857143,657b66ea316d21385b68909f,,,,,,,,,,,,,,,,,,,,,,,,,,,,,,,,,,,,,,,,,,,,,,,,,,,,,,,,,,,,,,,,,,,,,,,,,,,,,,,,,,,,,,,,,,,,,1575.5785,1635.5824,0,1,1,4,1,sequence_tables/blk003.csv
,,615fdd9674ec001e9d325841,65af55eb988ae06a9240104e,2024-01-23_08h01.34.845,bars,2023.2.3,Win32,71.42857143,657b66ea316d21385b68909f,,,,,,,,,,,3483.631,3484.6417,,,3485.1248,3485.3759,,17,197,,,,,,,,,,,,,,,,bars/018.png,bars/mask001.png,,,,,,,,,,,,0,1,,,,,,,7,5,7,6,,,,,,1635.588,3483.6232,space,1848.0068,,3484.6417,3485.1248,3485.3759,3486.9436,space,1.5347,,3486.9436,47,73,3487.9279,3487.928,3487.9334,,,,0,0,0,0,1,150,90,,,,,,,,
,,615fdd9674ec001e9d325841,65af55eb988ae06a9240104e,2024-01-23_08h01.34.845,bars,2023.2.3,Win32,71.42857143,657b66ea316d21385b68909f,,,,,,,,,,,3487.9336,3488.929,,,3489.4295,3489.68,,141,141,,,,,,,,,,,,,,,,bars/010.png,bars/mask009.png,,,,,,,,,,,,1,1,,,,,,,5,7,5,7,,,,,,,,,,,3488.929,3489.4295,3489.68,3493.8344,space,4.122,,3493.8344,24,86,3494.8344,3494.8345,3494.8397,,,,0,1,1,1,1,165,55,,,,,,,,
,,615fdd9674ec001e9d325841,65af55eb988ae06a9240104e,2024-01-23_08h01.34.845,bars,2023.2.3,Win32,71.42857143,657b66ea316d21385b68909f,,,,,,,,,,,3494.8398,3495.8354,,,3496.3364,3496.5866,,8,188,,,,,,,,,,,,,,,,bars/034.png,bars/mask002.png,,,,,,,,,,,,0,2,,,,,,,3,5,4,4,,,,,,,,,,,3495.8354,3496.3364,3496.5866,3500.6739,space,4.0713,,3500.6739,63,57,3501.6744,3501.6745,3501.6802,,,,0,2,2,2,1,125,65,,,,,,,,
,,615fdd9674ec001e9d325841,65af55eb988ae06a9240104e,2024-01-23_08h01.34.845,bars,2023.2.3,Win32,71.42857143,657b66ea316d21385b68909f,,,,,,,,,,,3501.6804,3502.6755,,,3503.1763,3503.4268,,159,-21,,,,,,,,,,,,,,,,bars/040.png,bars/mask003.png,,,,,,,,,,,,1,1,,,,,,,1,3,2,3,,,,,,,,,,,3502.6755,3503.1763,3503.4268,3507.2351,space,3.7898,,3507.2351,19,26,3508.2311,3508.2312,3508.2368,,,,0,3,3,3,1,140,5,,,,,,,,
,,615fdd9674ec001e9d325841,65af55eb988ae06a9240104e,2024-01-23_08h01.34.845,bars,2023.2.3,Win32,71.42857143,657b66ea316d21385b68909f,,,,,,,,,,,3508.2369,3509.232,,,3509.7329,3509.9832,,126,126,,,,,,,,,,,,,,,,bars/029.png,bars/mask002.png,,,,,,,,,,,,0,1,,,,,,,3,5,2,6,,,,,,,,,,,3509.2321,3509.7328,3509.9832,3514.3377,space,4.3384,,3514.3378,36,81,3515.3385,3515.3385,3515.3439,,,,0,4,4,4,1,90,45,,,,,,,,
,,615fdd9674ec001e9d325841,65af55eb988ae06a9240104e,2024-01-23_08h01.34.845,bars,2023.2.3,Win32,71.42857143,657b66ea316d21385b68909f,,,,,,,,,,,3515.344,3516.3397,,,3516.8399,3517.09,,172,172,,,,,,,,,,,,,,,,bars/030.png,bars/mask005.png,,,,,,,,,,,,0,1,,,,,,,1,3,3,2,,,,,,,,,,,3516.3397,3516.8399,3517.09,3517.8246,space,0.7004,,3517.8246,32,73,3518.8254,3518.8254,3518.826,,,,0,5,5,5,1,140,65,,,,,,,,
,,615fdd9674ec001e9d325841,65af55eb988ae06a9240104e,2024-01-23_08h01.34.845,bars,2023.2.3,Win32,71.42857143,657b66ea316d21385b68909f,,,,,,,,,,,3518.826,3519.8261,,,3520.3269,3520.5772,,125,125,,,,,,,,,,,,,,,,bars/010.png,bars/mask008.png,,,,,,,,,,,,0,1,,,,,,,3,1,2,1,,,,,,,,,,,3519.8261,3520.3269,3520.5772,3524.5153,space,3.9053,,3524.5153,40,70,3525.5154,3525.5154,3525.5208,,,,0,6,6,6,1,165,55,,,,,,,,
,,615fdd9674ec001e9d325841,65af55eb988ae06a9240104e,2024-01-23_08h01.34.845,bars,2023.2.3,Win32,71.42857143,657b66ea316d21385b68909f,,,,,,,,,,,3525.5209,3526.5163,,,3527.0173,3527.2673,,30,210,,,,,,,,,,,,,,,,bars/022.png,bars/mask007.png,,,,,,,,,,,,0,2,,,,,,,5,0,6,0,,,,,,,,,,,3526.5164,3527.0173,3527.2673,3531.4887,space,4.2052,,3531.4887,65,10,3532.4885,3532.4885,3532.4942,,,,0,7,7,7,1,95,20,,,,,,,,
,,615fdd9674ec001e9d325841,65af55eb988ae06a9240104e,2024-01-23_08h01.34.845,bars,2023.2.3,Win32,71.42857143,657b66ea316d21385b68909f,,,,,,,,,,,3532.4943,3533.4903,,,3533.9913,3534.2408,,17,197,,,,,,,,,,,,,,,,bars/035.png,bars/mask001.png,,,,,,,,,,,,2,1,,,,,,,7,0,7,0,,,,,,,,,,,3533.4903,3533.9912,3534.2408,3538.4786,space,4.2217,,3538.4786,22,43,3539.479,3539.479,3539.4846,,,,0,8,8,8,1,175,60,,,,,,,,
,,615fdd9674ec001e9d325841,65af55eb988ae06a9240104e,2024-01-23_08h01.34.845,bars,2023.2.3,Win32,71.42857143,657b66ea316d21385b68909f,,,,,,,,,,,3539.4848,3540.4806,,,3540.9807,3541.2311,,37,217,,,,,,,,,,,,,,,,bars/005.png,bars/mask004.png,,,,,,,,,,,,1,1,,,,,,,9,0,9,1,,,,,,,,,,,3540.4806,3540.9807,3541.2311,3546.2693,space,5.0046,,3546.2693,27,77,3547.2708,3547.2708,3547.2764,,,,0,9,9,9,1,10,140,,,,,,,,
,,615fdd9674ec001e9d325841,65af55eb988ae06a9240104e,2024-01-23_08h01.34.845,bars,2023.2.3,Win32,71.42857143,657b66ea316d21385b68909f,,,,,,,,,,,3547.2764,3548.271,,,3548.7719,3549.0226,,133,133,,,,,,,,,,,,,,,,bars/002.png,bars/mask001.png,,,,,,,,,,,,8,1,,,,,,,10,2,9,1,,,,,,,,,,,3548.271,3548.7718,3549.0226,3552.0422,space,3.0031,,3552.0423,3,48,3553.0427,3553.0427,3553.048,,,,0,10,10,10,1,130,85,,,,,,,,
,,615fdd9674ec001e9d325841,65af55eb988ae06a9240104e,2024-01-23_08h01.34.845,bars,2023.2.3,Win32,71.42857143,657b66ea316d21385b68909f,,,,,,,,,,,3553.0482,3554.0436,,,3554.5445,3554.7944,,139,139,,,,,,,,,,,,,,,,bars/047.png,bars/mask002.png,,,,,,,,,,,,0,1,,,,,,,8,4,8,4,,,,,,,,,,,3554.0436,3554.5445,3554.7944,3559.6329,space,4.8219,,3559.6329,56,69,3560.6333,3560.6333,3560.6386,,,,0,11,11,11,1,15,70,,,,,,,,
,,615fdd9674ec001e9d325841,65af55eb988ae06a9240104e,2024-01-23_08h01.34.845,bars,2023.2.3,Win32,71.42857143,657b66ea316d21385b68909f,,,,,,,,,,,3560.6386,3561.6343,,,3562.1352,3562.385,,137,137,,,,,,,,,,,,,,,,bars/003.png,bars/mask006.png,,,,,,,,,,,,6,2,,,,,,,6,6,6,7,,,,,,,,,,,3561.6344,3562.1351,3562.3851,3565.3884,space,2.9697,,3565.3885,68,3,3566.3895,3566.3895,3566.3951,,,,0,12,12,12,1,25,140,,,,,,,,
,,615fdd9674ec001e9d325841,65af55eb988ae06a9240104e,2024-01-23_08h01.34.845,bars,2023.2.3,Win32,71.42857143,657b66ea316d21385b68909f,,,,,,,,,,,3566.3953,3567.3904,,,3567.8912,3568.1408,,154,154,,,,,,,,,,,,,,,,bars/007.png,bars/mask005.png,,,,,,,,,,,,2,1,,,,,,,8,8,8,9,,,,,,,,,,,3567.3904,3567.8912,3568.1408,3571.7451,space,3.5871,,3571.7451,21,81,3572.7464,3572.7465,3572.7526,,,,0,13,13,13,1,175,55,,,,,,,,
,,615fdd9674ec001e9d325841,65af55eb988ae06a9240104e,2024-01-23_08h01.34.845,bars,2023.2.3,Win32,71.42857143,657b66ea316d21385b68909f,,,,,,,,,,,3572.7527,3573.7473,,,3574.2484,3574.4976,,156,-24,,,,,,,,,,,,,,,,bars/045.png,bars/mask005.png,,,,,,,,,,,,0,2,,,,,,,10,6,9,6,,,,,,,,,,,3573.7474,3574.2482,3574.4976,3578.4351,space,3.9045,,3578.4351,56,34,3579.4361,3579.4362,3579.4419,,,,0,14,14,14,1,100,10,,,,,,,,
,,615fdd9674ec001e9d325841,65af55eb988ae06a9240104e,2024-01-23_08h01.34.845,bars,2023.2.3,Win32,71.42857143,657b66ea316d21385b68909f,,,,,,,,,,,3579.4421,3580.4364,,,3580.9381,3581.1875,,114,114,,,,,,,,,,,,,,,,bars/027.png,bars/mask002.png,,,,,,,,,,,,9,1,,,,,,,10,4,10,3,,,,,,,,,,,3580.4364,3580.938,3581.1875,3584.2578,space,3.0539,,3584.2579,4,64,3585.2577,3585.2577,3585.2636,,,,0,15,15,15,1,110,50,,,,,,,,
,,615fdd9674ec001e9d325841,65af55eb988ae06a9240104e,2024-01-23_08h01.34.845,bars,2023.2.3,Win32,71.42857143,657b66ea316d21385b68909f,,,,,,,,,,,3585.2637,3586.2586,,,3586.7596,3587.0109,,42,222,,,,,,,,,,,,,,,,bars/047.png,bars/mask000.png,,,,,,,,,,,,1,1,,,,,,,10,6,10,5,,,,,,,,,,,3586.2587,3586.7596,3587.0109,3591.7142,space,4.6874,,3591.7142,27,28,3592.7159,3592.7159,3592.7211,,,,0,16,16,16,1,15,70,,,,,,,,
,,615fdd9674ec001e9d325841,65af55eb988ae06a9240104e,2024-01-23_08h01.34.845,bars,2023.2.3,Win32,71.42857143,657b66ea316d21385b68909f,,,,,,,,,,,3592.7212,3593.7176,,,3594.217,3594.4675,,102,102,,,,,,,,,,,,,,,,bars/010.png,bars/mask002.png,,,,,,,,,,,,0,2,,,,,,,10,4,10,5,,,,,,,,,,,3593.7176,3594.2169,3594.4675,3596.3027,space,1.8189,,3596.3027,63,47,3597.3037,3597.3037,3597.3093,,,,0,17,17,17,1,165,55,,,,,,,,
,,615fdd9674ec001e9d325841,65af55eb988ae06a9240104e,2024-01-23_08h01.34.845,bars,2023.2.3,Win32,71.42857143,657b66ea316d21385b68909f,,,,,,,,,,,3597.3096,3598.3049,,,3598.8054,3599.0561,,136,136,,,,,,,,,,,,,,,,bars/013.png,bars/mask004.png,,,,,,,,,,,,0,2,,,,,,,10,6,10,7,,,,,,,,,,,3598.305,3598.8054,3599.0562,3602.9427,space,3.8709,,3602.9427,61,54,3603.9432,3603.9432,3603.9484,,,,0,18,18,18,1,75,10,,,,,,,,
,,615fdd9674ec001e9d325841,65af55eb988ae06a9240104e,2024-01-23_08h01.34.845,bars,2023.2.3,Win32,71.42857143,657b66ea316d21385b68909f,,,,,,,,,,,3603.9485,3604.9443,,,3605.445,3605.6956,,104,104,,,,,,,,,,,,,,,,bars/005.png,bars/mask000.png,,,,,,,,,,,,0,2,,,,,,,10,8,10,9,,,,,,,,,,,3604.9443,3605.445,3605.6956,3608.0312,space,2.3026,,3608.0312,86,36,3609.0327,3609.0327,3609.038,,,,0,19,19,19,1,10,140,,,,,,,,
,,615fdd9674ec001e9d325841,65af55eb988ae06a9240104e,2024-01-23_08h01.34.845,bars,2023.2.3,Win32,71.42857143,657b66ea316d21385b68909f,,,,,,,,,,,3609.0381,3610.0328,,,3610.5331,3610.7836,,151,151,,,,,,,,,,,,,,,,bars/006.png,bars/mask004.png,,,,,,,,,,,,0,2,,,,,,,8,10,6,9,,,,,,,,,,,3610.0328,3610.5331,3610.7836,3615.1711,space,4.3711,,3615.1711,64,51,3616.1717,3616.1717,3616.177,,,,0,20,20,20,1,35,100,,,,,,,,
,,615fdd9674ec001e9d325841,65af55eb988ae06a9240104e,2024-01-23_08h01.34.845,bars,2023.2.3,Win32,71.42857143,657b66ea316d21385b68909f,,,,,,,,,,,3616.1771,3617.1735,,,3617.6737,3617.9241,,30,30,,,,,,,,,,,,,,,,bars/006.png,bars/mask003.png,,,,,,,,,,,,5,1,,,,,,,6,10,6,9,,,,,,,,,,,3617.1735,3617.6737,3617.9241,3624.03,space,6.0718,,3624.0301,5,70,3625.0303,3625.0304,3625.037,,,,0,21,21,21,1,35,100,,,,,,,,
,,615fdd9674ec001e9d325841,65af55eb988ae06a9240104e,2024-01-23_08h01.34.845,bars,2023.2.3,Win32,71.42857143,657b66ea316d21385b68909f,,,,,,,,,,,3625.0372,3626.0326,,,3626.5328,3626.7831,,162,162,,,,,,,,,,,,,,,,bars/038.png,bars/mask005.png,,,,,,,,,,,,3,1,,,,,,,4,8,3,9,,,,,,,,,,,3626.0327,3626.5328,3626.7831,3630.42,space,3.6207,,3630.42,3,88,3631.4208,3631.4208,3631.4262,,,,0,22,22,22,1,165,70,,,,,,,,
,,615fdd9674ec001e9d325841,65af55eb988ae06a9240104e,2024-01-23_08h01.34.845,bars,2023.2.3,Win32,71.42857143,657b66ea316d21385b68909f,,,,,,,,,,,3631.4263,3632.4218,,,3632.9219,3633.1731,,142,142,,,,,,,,,,,,,,,,bars/029.png,bars/mask000.png,,,,,,,,,,,,0,1,,,,,,,6,10,5,10,,,,,,,,,,,3632.4218,3632.9219,3633.1731,3636.9095,space,3.7027,,3636.9096,52,83,3637.8942,3637.8942,3637.8994,,,,0,23,23,23,1,90,45,,,,,,,,
,,615fdd9674ec001e9d325841,65af55eb988ae06a9240104e,2024-01-23_08h01.34.845,bars,2023.2.3,Win32,71.42857143,657b66ea316d21385b68909f,,,,,,,,,,,3637.8995,3638.8952,,,3639.3951,3639.6467,,156,-24,,,,,,,,,,,,,,,,bars/012.png,bars/mask009.png,,,,,,,,,,,,0,2,,,,,,,8,10,8,10,,,,,,,,,,,3638.8952,3639.3951,3639.6467,3642.3483,space,2.6697,,3642.3483,66,39,3643.3492,3643.3492,3643.355,,,,0,24,24,24,1,90,15,,,,,,,,
,,615fdd9674ec001e9d325841,65af55eb988ae06a9240104e,2024-01-23_08h01.34.845,bars,2023.2.3,Win32,71.42857143,657b66ea316d21385b68909f,,,,,,,,,,,3643.355,3644.3505,,,3644.8506,3645.1022,,158,-22,,,,,,,,,,,,,,,,bars/018.png,bars/mask009.png,,,,,,,,,,,,5,1,,,,,,,6,8,7,7,,,,,,,,,,,3644.3505,3644.8506,3645.1022,3649.5387,space,4.4209,,3649.5388,8,68,3650.5395,3650.5395,3650.5452,,,,0,25,25,25,1,150,90,,,,,,,,
,,615fdd9674ec001e9d325841,65af55eb988ae06a9240104e,2024-01-23_08h01.34.845,bars,2023.2.3,Win32,71.42857143,657b66ea316d21385b68909f,,,,,,,,,,,3650.5452,3651.5405,,,3652.0413,3652.2917,,18,198,,,,,,,,,,,,,,,,bars/013.png,bars/mask007.png,,,,,,,,,,,,4,2,,,,,,,4,6,4,6,,,,,,,,,,,3651.5405,3652.0412,3652.2918,3655.512,space,3.1871,,3655.512,57,8,3656.5128,3656.5128,3656.5186,,,,0,26,26,26,1,75,10,,,,,,,,
,,615fdd9674ec001e9d325841,65af55eb988ae06a9240104e,2024-01-23_08h01.34.845,bars,2023.2.3,Win32,71.42857143,657b66ea316d21385b68909f,,,,,,,,,,,3656.5187,3657.513,,,3658.0138,3658.2651,,162,-18,,,,,,,,,,,,,,,,bars/008.png,bars/mask000.png,,,,,,,,,,,,3,2,,,,,,,2,8,3,7,,,,,,,,,,,3657.513,3658.0137,3658.2651,3662.6518,space,4.3714,,3662.6519,52,18,3663.6525,3663.6526,3663.6579,,,,0,27,27,27,1,110,0,,,,,,,,
,,615fdd9674ec001e9d325841,65af55eb988ae06a9240104e,2024-01-23_08h01.34.845,bars,2023.2.3,Win32,71.42857143,657b66ea316d21385b68909f,,,,,,,,,,,3663.6579,3664.6537,,,3665.1546,3665.405,,22,202,,,,,,,,,,,,,,,,bars/034.png,bars/mask002.png,,,,,,,,,,,,0,2,,,,,,,0,10,0,10,,,,,,,,,,,3664.6537,3665.1546,3665.4051,3667.8407,space,2.4195,,3667.8407,77,43,3668.8416,3668.8417,3668.8469,,,,0,28,28,28,1,125,65,,,,,,,,
,,615fdd9674ec001e9d325841,65af55eb988ae06a9240104e,2024-01-23_08h01.34.845,bars,2023.2.3,Win32,71.42857143,657b66ea316d21385b68909f,,,,,,,,,,,3668.847,3669.8431,,,3670.3425,3670.593,,22,202,,,,,,,,,,,,,,,,bars/036.png,bars/mask009.png,,,,,,,,,,,,8,2,,,,,,,0,8,1,9,,,,,,,,,,,3669.8431,3670.3425,3670.593,3674.0301,space,3.404,,3674.0301,57,2,3675.0311,3675.0311,3675.0365,,,,0,29,29,29,1,145,20,,,,,,,,
,,615fdd9674ec001e9d325841,65af55eb988ae06a9240104e,2024-01-23_08h01.34.845,bars,2023.2.3,Win32,71.42857143,657b66ea316d21385b68909f,,,,,,,,,,,3675.0366,3676.0323,,,3676.5331,3676.783,,163,-17,,,,,,,,,,,,,,,,bars/017.png,bars/mask001.png,,,,,,,,,,,,0,1,,,,,,,0,6,0,5,,,,,,,,,,,3676.0323,3676.5331,3676.783,3680.8199,space,4.0205,,3680.8199,18,62,3681.8042,3681.8042,3681.8099,,,,0,30,30,30,1,145,45,,,,,,,,
,,615fdd9674ec001e9d325841,65af55eb988ae06a9240104e,2024-01-23_08h01.34.845,bars,2023.2.3,Win32,71.42857143,657b66ea316d21385b68909f,,,,,,,,,,,3681.8101,3682.8052,,,3683.3062,3683.556,,32,212,,,,,,,,,,,,,,,,bars/049.png,bars/mask006.png,,,,,,,,,,,,0,1,,,,,,,2,8,3,9,,,,,,,,,,,3682.8052,3683.3062,3683.556,3686.1927,space,2.6202,,3686.1927,52,83,3687.1934,3687.1934,3687.1988,,,,0,31,31,31,1,160,115,,,,,,,,
,,615fdd9674ec001e9d325841,65af55eb988ae06a9240104e,2024-01-23_08h01.34.845,bars,2023.2.3,Win32,71.42857143,657b66ea316d21385b68909f,,,,,,,,,,,3687.1989,3688.1936,,,3688.6956,3688.9449,,22,202,,,,,,,,,,,,,,,,bars/045.png,bars/mask009.png,,,,,,,,,,,,5,2,,,,,,,0,10,0,9,,,,,,,,,,,3688.1937,3688.6956,3688.9449,3692.0481,space,3.0869,,3692.0481,78,12,3693.0323,3693.0323,3693.0383,,,,0,32,32,32,1,100,10,,,,,,,,
,,615fdd9674ec001e9d325841,65af55eb988ae06a9240104e,2024-01-23_08h01.34.845,bars,2023.2.3,Win32,71.42857143,657b66ea316d21385b68909f,,,,,,,,,,,3693.0384,3694.0334,,,3694.5335,3694.7841,,24,204,,,,,,,,,,,,,,,,bars/014.png,bars/mask007.png,,,,,,,,,,,,2,2,,,,,,,2,10,3,10,,,,,,,,,,,3694.0334,3694.5335,3694.7841,3698.2881,space,3.4702,,3698.2882,56,24,3699.2888,3699.2889,3699.2939,,,,0,33,33,33,1,80,0,,,,,,,,
,,615fdd9674ec001e9d325841,65af55eb988ae06a9240104e,2024-01-23_08h01.34.845,bars,2023.2.3,Win32,71.42857143,657b66ea316d21385b68909f,,,,,,,,,,,3699.294,3700.2898,,,3700.7899,3701.0403,,68,68,,,,,,,,,,,,,,,,bars/047.png,bars/mask009.png,,,,,,,,,,,,9,2,,,,,,,0,10,0,10,,,,,,,,,,,3700.2898,3700.7899,3701.0403,3703.2267,space,2.1703,,3703.2268,53,2,3704.2266,3704.2267,3704.232,,,,0,34,34,34,1,15,70,,,,,,,,
,,615fdd9674ec001e9d325841,65af55eb988ae06a9240104e,2024-01-23_08h01.34.845,bars,2023.2.3,Win32,71.42857143,657b66ea316d21385b68909f,,,,,,,,,,,3704.2321,3705.2274,,,3705.729,3705.9787,,87,87,,,,,,,,,,,,,,,,bars/000.png,bars/mask004.png,,,,,,,,,,,,0,1,,,,,,,2,10,2,10,,,,,,,,,,,3705.2274,3705.729,3705.9788,3708.4975,space,2.4856,,3708.4976,47,58,3709.4983,3709.4983,3709.4992,,,,0,35,35,35,1,40,145,,,,,,,,
,,615fdd9674ec001e9d325841,65af55eb988ae06a9240104e,2024-01-23_08h01.34.845,bars,2023.2.3,Win32,71.42857143,657b66ea316d21385b68909f,,,,,,,,,,,3709.4993,3710.4994,,,3710.984,3711.2337,,153,153,,,,,,,,,,,,,,,,bars/022.png,bars/mask008.png,,,,,,,,,,,,0,2,,,,,,,0,10,0,10,,,,,,,,,,,3710.4994,3710.984,3711.2337,3717.19,space,5.9402,,3717.19,58,47,3718.1913,3718.1913,3718.1973,,,,0,36,36,36,1,95,20,,,,,,,,
,,615fdd9674ec001e9d325841,65af55eb988ae06a9240104e,2024-01-23_08h01.34.845,bars,2023.2.3,Win32,71.42857143,657b66ea316d21385b68909f,,,,,,,,,,,3718.1974,3719.1918,,,3719.6921,3719.9424,,146,146,,,,,,,,,,,,,,,,bars/036.png,bars/mask001.png,,,,,,,,,,,,1,1,,,,,,,0,10,1,10,,,,,,,,,,,3719.1919,3719.6921,3719.9425,3726.0152,space,6.0389,,3726.0152,1,54,3727.0159,3727.0159,3727.0219,,,,0,37,37,37,1,145,20,,,,,,,,
,,615fdd9674ec001e9d325841,65af55eb988ae06a9240104e,2024-01-23_08h01.34.845,bars,2023.2.3,Win32,71.42857143,657b66ea316d21385b68909f,,,,,,,,,,,3727.022,3728.0178,,,3728.5179,3728.7676,,127,127,,,,,,,,,,,,,,,,bars/003.png,bars/mask000.png,,,,,,,,,,,,5,2,,,,,,,2,8,1,9,,,,,,,,,,,3728.0178,3728.5179,3728.7676,3732.5726,space,3.7884,,3732.5726,78,13,3733.5724,3733.5724,3733.5781,,,,0,38,38,38,1,25,140,,,,,,,,
,,615fdd9674ec001e9d325841,65af55eb988ae06a9240104e,2024-01-23_08h01.34.845,bars,2023.2.3,Win32,71.42857143,657b66ea316d21385b68909f,,,,,,,,,,,3733.5782,3734.5734,,,3735.0743,3735.3241,,128,128,,,,,,,,,,,,,,,,bars/030.png,bars/mask006.png,,,,,,,,,,,,2,1,,,,,,,4,10,4,10,,,,,,,,,,,3734.5734,3735.0743,3735.3241,3738.0772,space,2.7356,,3738.0772,12,63,3739.0791,3739.0791,3739.0847,,,,0,39,39,39,1,140,65,,,,,,,,
,,615fdd9674ec001e9d325841,65af55eb988ae06a9240104e,2024-01-23_08h01.34.845,bars,2023.2.3,Win32,71.42857143,657b66ea316d21385b68909f,,,,,,,,,,,3739.0849,3740.0793,,,3740.5797,3740.8302,,9,9,,,,,,,,,,,,,,,,bars/042.png,bars/mask008.png,,,,,,,,,,,,0,1,,,,,,,6,10,6,10,,,,,,,,,,,3740.0793,3740.5797,3740.8303,3743.783,space,2.9362,,3743.7831,44,66,3744.7836,3744.7837,3744.789,,,,0,40,40,40,1,145,75,,,,,,,,
,,615fdd9674ec001e9d325841,65af55eb988ae06a9240104e,2024-01-23_08h01.34.845,bars,2023.2.3,Win32,71.42857143,657b66ea316d21385b68909f,,,,,,,,,,,3744.7891,3745.7848,,,3746.2851,3746.5363,,14,14,,,,,,,,,,,,,,,,bars/019.png,bars/mask004.png,,,,,,,,,,,,0,1,,,,,,,8,10,9,10,,,,,,,,,,,3745.7848,3746.2851,3746.5363,3748.9214,space,2.3692,,3748.9214,31,89,3749.9221,3749.9221,3749.9275,,,,0,41,41,41,1,45,105,,,,,,,,
,,615fdd9674ec001e9d325841,65af55eb988ae06a9240104e,2024-01-23_08h01.34.845,bars,2023.2.3,Win32,71.42857143,657b66ea316d21385b68909f,,,,,,,,,,,3749.9276,3750.9232,,,3751.4236,3751.6742,,151,151,,,,,,,,,,,,,,,,bars/031.png,bars/mask008.png,,,,,,,,,,,,0,1,,,,,,,6,10,4,10,,,,,,,,,,,3750.9233,3751.4236,3751.6742,3754.3433,space,2.6525,,3754.3433,31,64,3755.3442,3755.3442,3755.3493,,,,0,42,42,42,1,120,35,,,,,,,,
,,615fdd9674ec001e9d325841,65af55eb988ae06a9240104e,2024-01-23_08h01.34.845,bars,2023.2.3,Win32,71.42857143,657b66ea316d21385b68909f,,,,,,,,,,,3755.3494,3756.3454,,,3756.8457,3757.0956,,145,145,,,,,,,,,,,,,,,,bars/028.png,bars/mask004.png,,,,,,,,,,,,1,2,,,,,,,8,8,6,8,,,,,,,,,,,3756.3454,3756.8457,3757.0956,3762.6852,space,5.5724,,3762.6852,80,25,3763.6871,3763.6871,3763.6931,,,,0,43,43,43,1,45,120,,,,,,,,
,,615fdd9674ec001e9d325841,65af55eb988ae06a9240104e,2024-01-23_08h01.34.845,bars,2023.2.3,Win32,71.42857143,657b66ea316d21385b68909f,,,,,,,,,,,3763.6932,3764.6869,,,3765.1881,3765.4378,,123,123,,,,,,,,,,,,,,,,bars/044.png,bars/mask006.png,,,,,,,,,,,,0,2,,,,,,,6,10,5,9,,,,,,,,,,,3764.6869,3765.188,3765.4378,3771.5937,space,6.1394,,3771.5938,48,32,3772.5955,3772.5955,3772.6012,,,,0,44,44,44,1,75,155,,,,,,,,
,,615fdd9674ec001e9d325841,65af55eb988ae06a9240104e,2024-01-23_08h01.34.845,bars,2023.2.3,Win32,71.42857143,657b66ea316d21385b68909f,,,,,,,,,,,3772.6013,3773.5954,,,3774.0971,3774.3467,,131,131,,,,,,,,,,,,,,,,bars/014.png,bars/mask007.png,,,,,,,,,,,,0,2,,,,,,,4,8,3,8,,,,,,,,,,,3773.5954,3774.0971,3774.3467,3777.8164,space,3.4372,,3777.8165,51,49,3778.8013,3778.8013,3778.8067,,,,0,45,45,45,1,80,0,,,,,,,,
,,615fdd9674ec001e9d325841,65af55eb988ae06a9240104e,2024-01-23_08h01.34.845,bars,2023.2.3,Win32,71.42857143,657b66ea316d21385b68909f,,,,,,,,,,,3778.8068,3779.8022,,,3780.3025,3780.5525,,133,133,,,,,,,,,,,,,,,,bars/048.png,bars/mask005.png,,,,,,,,,,,,0,2,,,,,,,2,6,3,7,,,,,,,,,,,3779.8022,3780.3025,3780.5526,3786.1251,space,5.539,,3786.1251,83,42,3787.126,3787.126,3787.1315,,,,0,46,46,46,1,50,175,,,,,,,,
,,615fdd9674ec001e9d325841,65af55eb988ae06a9240104e,2024-01-23_08h01.34.845,bars,2023.2.3,Win32,71.42857143,657b66ea316d21385b68909f,,,,,,,,,,,3787.1316,3788.1268,,,3788.627,3788.8777,,48,48,,,,,,,,,,,,,,,,bars/039.png,bars/mask003.png,,,,,,,,,,,,0,1,,,,,,,4,4,4,4,,,,,,,,,,,3788.1268,3788.627,3788.8777,3793.883,space,4.9886,,3793.8831,53,57,3794.8838,3794.8838,3794.8896,,,,0,47,47,47,1,175,105,,,,,,,,
,,615fdd9674ec001e9d325841,65af55eb988ae06a9240104e,2024-01-23_08h01.34.845,bars,2023.2.3,Win32,71.42857143,657b66ea316d21385b68909f,,,,,,,,,,,3794.8896,3795.8846,,,3796.3849,3796.6359,,145,145,,,,,,,,,,,,,,,,bars/023.png,bars/mask005.png,,,,,,,,,,,,0,2,,,,,,,2,2,3,3,,,,,,,,,,,3795.8847,3796.3849,3796.6359,3802.3086,space,5.6403,,3802.3086,55,30,3803.309,3803.309,3803.315,,,,0,48,48,48,1,20,115,,,,,,,,
,,615fdd9674ec001e9d325841,65af55eb988ae06a9240104e,2024-01-23_08h01.34.845,bars,2023.2.3,Win32,71.42857143,657b66ea316d21385b68909f,,,,,,,,,,,3803.3152,3804.3098,,,3804.7943,3805.0435,,145,145,,,,,,,,,,,,,,,,bars/012.png,bars/mask003.png,,,,,,,,,,,,0,2,,,,,,,4,0,3,0,,,,,,,,,,,3804.3098,3804.7943,3805.0435,3809.1822,space,4.1213,,3809.1823,55,50,3810.1821,3810.1821,3810.1874,,,,0,49,49,49,1,90,15,,,,,,,,
,,615fdd9674ec001e9d325841,65af55eb988ae06a9240104e,2024-01-23_08h01.34.845,bars,2023.2.3,Win32,71.42857143,657b66ea316d21385b68909f,,,,,,,,,,,,,,,,,,,,,,,,,,,,,,,,,,,,,,,,,,,,,,,,,,,,,,,,,,,,,,,,,,,,,,,,,,,,,,,,,,,,,,,,,,,,,3810.1874,3870.1921,0,2,2,2,1,sequence_tables/blk007.csv
,,615fdd9674ec001e9d325841,65af55eb988ae06a9240104e,2024-01-23_08h01.34.845,bars,2023.2.3,Win32,71.42857143,657b66ea316d21385b68909f,,,,,,,,,,,3897.6221,3898.6216,,,3899.1207,3899.3711,,123,123,,,,,,,,,,,,,,,,bars/007.png,bars/mask006.png,,,,,,,,,,,,0,1,,,,,,,0,3,0,3,,,,,,3870.1977,3897.6197,space,27.3942,,3898.6217,3899.1206,3899.3711,3902.8418,space,3.4538,,3902.8418,52,68,3903.8424,3903.8424,3903.8481,,,,0,0,0,0,1,175,55,,,,,,,,
,,615fdd9674ec001e9d325841,65af55eb988ae06a9240104e,2024-01-23_08h01.34.845,bars,2023.2.3,Win32,71.42857143,657b66ea316d21385b68909f,,,,,,,,,,,3903.8482,3904.8436,,,3905.3437,3905.5942,,45,45,,,,,,,,,,,,,,,,bars/028.png,bars/mask004.png,,,,,,,,,,,,0,1,,,,,,,2,5,0,6,,,,,,,,,,,3904.8437,3905.3437,3905.5943,3911.3332,space,5.7225,,3911.3332,0,75,3912.3177,3912.3177,3912.3231,,,,0,1,1,1,1,45,120,,,,,,,,
,,615fdd9674ec001e9d325841,65af55eb988ae06a9240104e,2024-01-23_08h01.34.845,bars,2023.2.3,Win32,71.42857143,657b66ea316d21385b68909f,,,,,,,,,,,3912.3232,3913.3185,,,3913.8187,3914.069,,135,135,,,,,,,,,,,,,,,,bars/024.png,bars/mask003.png,,,,,,,,,,,,0,1,,,,,,,0,7,0,6,,,,,,,,,,,3913.3185,3913.8187,3914.069,3917.5736,space,3.4882,,3917.5737,15,35,3918.5738,3918.5738,3918.579,,,,0,2,2,2,1,120,170,,,,,,,,
,,615fdd9674ec001e9d325841,65af55eb988ae06a9240104e,2024-01-23_08h01.34.845,bars,2023.2.3,Win32,71.42857143,657b66ea316d21385b68909f,,,,,,,,,,,3918.5791,3919.5751,,,3920.0758,3920.3097,,57,57,,,,,,,,,,,,,,,,bars/026.png,bars/mask005.png,,,,,,,,,,,,1,1,,,,,,,2,5,2,5,,,,,,,,,,,3919.5751,3920.0758,3920.3097,3925.3307,space,5.0056,,3925.3307,22,28,3926.3317,3926.3318,3926.337,,,,0,3,3,3,1,35,85,,,,,,,,
,,615fdd9674ec001e9d325841,65af55eb988ae06a9240104e,2024-01-23_08h01.34.845,bars,2023.2.3,Win32,71.42857143,657b66ea316d21385b68909f,,,,,,,,,,,3926.3372,3927.3323,,,3927.8326,3928.083,,56,56,,,,,,,,,,,,,,,,bars/005.png,bars/mask006.png,,,,,,,,,,,,0,1,,,,,,,0,7,0,7,,,,,,,,,,,3927.3323,3927.8326,3928.083,3932.0537,space,3.9379,,3932.0538,46,84,3933.0544,3933.0544,3933.0596,,,,0,4,4,4,1,10,140,,,,,,,,
,,615fdd9674ec001e9d325841,65af55eb988ae06a9240104e,2024-01-23_08h01.34.845,bars,2023.2.3,Win32,71.42857143,657b66ea316d21385b68909f,,,,,,,,,,,3933.0597,3934.0555,,,3934.5563,3934.8059,,151,151,,,,,,,,,,,,,,,,bars/029.png,bars/mask007.png,,,,,,,,,,,,0,1,,,,,,,2,5,3,5,,,,,,,,,,,3934.0555,3934.5563,3934.8059,3940.4117,space,5.5891,,3940.4117,61,74,3941.4131,3941.4131,3941.4188,,,,0,5,5,5,1,90,45,,,,,,,,
,,615fdd9674ec001e9d325841,65af55eb988ae06a9240104e,2024-01-23_08h01.34.845,bars,2023.2.3,Win32,71.42857143,657b66ea316d21385b68909f,,,,,,,,,,,3941.4188,3942.4144,,,3942.9146,3943.1646,,153,153,,,,,,,,,,,,,,,,bars/033.png,bars/mask003.png,,,,,,,,,,,,2,2,,,,,,,0,3,0,2,,,,,,,,,,,3942.4144,3942.9145,3943.1646,3948.6366,space,5.4556,,3948.6366,52,2,3949.6379,3949.638,3949.6444,,,,0,6,6,6,1,25,155,,,,,,,,
,,615fdd9674ec001e9d325841,65af55eb988ae06a9240104e,2024-01-23_08h01.34.845,bars,2023.2.3,Win32,71.42857143,657b66ea316d21385b68909f,,,,,,,,,,,3949.6445,3950.639,,,3951.1392,3951.3903,,128,128,,,,,,,,,,,,,,,,bars/028.png,bars/mask006.png,,,,,,,,,,,,4,2,,,,,,,2,5,3,5,,,,,,,,,,,3950.639,3951.1391,3951.3903,3955.6609,space,4.2545,,3955.661,83,8,3956.6619,3956.6619,3956.667,,,,0,7,7,7,1,45,120,,,,,,,,
,,615fdd9674ec001e9d325841,65af55eb988ae06a9240104e,2024-01-23_08h01.34.845,bars,2023.2.3,Win32,71.42857143,657b66ea316d21385b68909f,,,,,,,,,,,3956.6671,3957.6626,,,3958.1636,3958.4131,,42,42,,,,,,,,,,,,,,,,bars/021.png,bars/mask005.png,,,,,,,,,,,,1,2,,,,,,,0,7,0,8,,,,,,,,,,,3957.6626,3958.1635,3958.4132,3961.0996,space,2.6692,,3961.0996,67,28,3962.101,3962.101,3962.1062,,,,0,8,8,8,1,155,70,,,,,,,,
,,615fdd9674ec001e9d325841,65af55eb988ae06a9240104e,2024-01-23_08h01.34.845,bars,2023.2.3,Win32,71.42857143,657b66ea316d21385b68909f,,,,,,,,,,,3962.1064,3963.1012,,,3963.6018,3963.8529,,52,232,,,,,,,,,,,,,,,,bars/033.png,bars/mask003.png,,,,,,,,,,,,0,1,,,,,,,2,5,3,5,,,,,,,,,,,3963.1013,3963.6017,3963.8529,3966.8716,space,3.0025,,3966.8716,27,77,3967.8734,3967.8735,3967.8793,,,,0,9,9,9,1,25,155,,,,,,,,
,,615fdd9674ec001e9d325841,65af55eb988ae06a9240104e,2024-01-23_08h01.34.845,bars,2023.2.3,Win32,71.42857143,657b66ea316d21385b68909f,,,,,,,,,,,3967.8795,3968.8739,,,3969.3741,3969.6244,,108,108,,,,,,,,,,,,,,,,bars/034.png,bars/mask002.png,,,,,,,,,,,,0,1,,,,,,,0,7,1,7,,,,,,,,,,,3968.8739,3969.3741,3969.6244,3971.293,space,1.6356,,3971.293,17,43,3972.2775,3972.2776,3972.2829,,,,0,10,10,10,1,125,65,,,,,,,,
,,615fdd9674ec001e9d325841,65af55eb988ae06a9240104e,2024-01-23_08h01.34.845,bars,2023.2.3,Win32,71.42857143,657b66ea316d21385b68909f,,,,,,,,,,,3972.283,3973.278,,,3973.7784,3974.0289,,122,122,,,,,,,,,,,,,,,,bars/013.png,bars/mask001.png,,,,,,,,,,,,0,1,,,,,,,0,9,1,10,,,,,,,,,,,3973.278,3973.7784,3974.0289,3977.8163,space,3.7542,,3977.8163,47,68,3978.8172,3978.8172,3978.8226,,,,0,11,11,11,1,75,10,,,,,,,,
,,615fdd9674ec001e9d325841,65af55eb988ae06a9240104e,2024-01-23_08h01.34.845,bars,2023.2.3,Win32,71.42857143,657b66ea316d21385b68909f,,,,,,,,,,,3978.8227,3979.8199,,,3980.3189,3980.5692,,117,117,,,,,,,,,,,,,,,,bars/029.png,bars/mask007.png,,,,,,,,,,,,0,1,,,,,,,2,7,2,7,,,,,,,,,,,3979.8199,3980.3189,3980.5693,3986.025,space,5.4234,,3986.0251,27,72,3987.0246,3987.0247,3987.0299,,,,0,12,12,12,1,90,45,,,,,,,,
,,615fdd9674ec001e9d325841,65af55eb988ae06a9240104e,2024-01-23_08h01.34.845,bars,2023.2.3,Win32,71.42857143,657b66ea316d21385b68909f,,,,,,,,,,,3987.03,3988.0258,,,3988.5265,3988.7769,,39,39,,,,,,,,,,,,,,,,bars/022.png,bars/mask002.png,,,,,,,,,,,,2,2,,,,,,,4,5,3,5,,,,,,,,,,,3988.0258,3988.5265,3988.7769,3992.5474,space,3.7369,,3992.5474,56,19,3993.5495,3993.5495,3993.5552,,,,0,13,13,13,1,95,20,,,,,,,,
,,615fdd9674ec001e9d325841,65af55eb988ae06a9240104e,2024-01-23_08h01.34.845,bars,2023.2.3,Win32,71.42857143,657b66ea316d21385b68909f,,,,,,,,,,,3993.5553,3994.5501,,,3995.05,3995.2999,,18,18,,,,,,,,,,,,,,,,bars/046.png,bars/mask003.png,,,,,,,,,,,,0,1,,,,,,,2,3,1,3,,,,,,,,,,,3994.5502,3995.0499,3995.2999,4001.274,space,5.9406,,4001.274,43,67,4002.2744,4002.2744,4002.2805,,,,0,14,14,14,1,155,85,,,,,,,,
,,615fdd9674ec001e9d325841,65af55eb988ae06a9240104e,2024-01-23_08h01.34.845,bars,2023.2.3,Win32,71.42857143,657b66ea316d21385b68909f,,,,,,,,,,,4002.2806,4003.2747,,,4003.7749,4004.0252,,156,156,,,,,,,,,,,,,,,,bars/035.png,bars/mask007.png,,,,,,,,,,,,1,1,,,,,,,4,1,3,3,,,,,,,,,,,4003.2748,4003.7749,4004.0252,4008.8307,space,4.7886,,4008.8307,19,84,4009.8312,4009.8312,4009.8367,,,,0,15,15,15,1,175,60,,,,,,,,
,,615fdd9674ec001e9d325841,65af55eb988ae06a9240104e,2024-01-23_08h01.34.845,bars,2023.2.3,Win32,71.42857143,657b66ea316d21385b68909f,,,,,,,,,,,4009.8368,4010.8322,,,4011.3164,4011.5658,,168,168,,,,,,,,,,,,,,,,bars/044.png,bars/mask001.png,,,,,,,,,,,,0,2,,,,,,,6,0,5,0,,,,,,,,,,,4010.8322,4011.3164,4011.5659,4015.7551,space,4.1555,,4015.7552,87,13,4016.7554,4016.7554,4016.7612,,,,0,16,16,16,1,75,155,,,,,,,,
,,615fdd9674ec001e9d325841,65af55eb988ae06a9240104e,2024-01-23_08h01.34.845,bars,2023.2.3,Win32,71.42857143,657b66ea316d21385b68909f,,,,,,,,,,,4016.7613,4017.7556,,,4018.2403,4018.4904,,71,71,,,,,,,,,,,,,,,,bars/029.png,bars/mask006.png,,,,,,,,,,,,2,1,,,,,,,4,2,5,2,,,,,,,,,,,4017.7556,4018.2402,4018.4904,4021.6766,space,3.1534,,4021.6766,19,26,4022.6771,4022.6772,4022.6827,,,,0,17,17,17,1,90,45,,,,,,,,
,,615fdd9674ec001e9d325841,65af55eb988ae06a9240104e,2024-01-23_08h01.34.845,bars,2023.2.3,Win32,71.42857143,657b66ea316d21385b68909f,,,,,,,,,,,4022.6828,4023.6781,,,4024.1801,4024.4297,,32,32,,,,,,,,,,,,,,,,bars/012.png,bars/mask009.png,,,,,,,,,,,,2,2,,,,,,,6,4,7,4,,,,,,,,,,,4023.6781,4024.18,4024.4298,4029.9513,space,5.4889,,4029.9514,58,17,4030.9356,4030.9356,4030.942,,,,0,18,18,18,1,90,15,,,,,,,,
,,615fdd9674ec001e9d325841,65af55eb988ae06a9240104e,2024-01-23_08h01.34.845,bars,2023.2.3,Win32,71.42857143,657b66ea316d21385b68909f,,,,,,,,,,,4030.9421,4031.9377,,,4032.437,4032.6734,,156,156,,,,,,,,,,,,,,,,bars/001.png,bars/mask008.png,,,,,,,,,,,,1,1,,,,,,,4,2,6,3,,,,,,,,,,,4031.9377,4032.437,4032.6735,4037.1588,space,4.4717,,4037.1588,26,71,4038.1606,4038.1606,4038.1664,,,,0,19,19,19,1,130,85,,,,,,,,
,,615fdd9674ec001e9d325841,65af55eb988ae06a9240104e,2024-01-23_08h01.34.845,bars,2023.2.3,Win32,71.42857143,657b66ea316d21385b68909f,,,,,,,,,,,4038.1665,4039.1606,,,4039.6612,4039.9118,,42,42,,,,,,,,,,,,,,,,bars/048.png,bars/mask004.png,,,,,,,,,,,,6,1,,,,,,,6,4,8,4,,,,,,,,,,,4039.1607,4039.6612,4039.9118,4043.5814,space,3.6537,,4043.5815,8,47,4044.5664,4044.5664,4044.5717,,,,0,20,20,20,1,50,175,,,,,,,,
,,615fdd9674ec001e9d325841,65af55eb988ae06a9240104e,2024-01-23_08h01.34.845,bars,2023.2.3,Win32,71.42857143,657b66ea316d21385b68909f,,,,,,,,,,,4044.5718,4045.5667,,,4046.0681,4046.3183,,74,74,,,,,,,,,,,,,,,,bars/021.png,bars/mask009.png,,,,,,,,,,,,5,2,,,,,,,8,6,9,6,,,,,,,,,,,4045.5667,4046.0681,4046.3183,4049.5046,space,3.1704,,4049.5046,81,4,4050.5052,4050.5052,4050.5109,,,,0,21,21,21,1,155,70,,,,,,,,
,,615fdd9674ec001e9d325841,65af55eb988ae06a9240104e,2024-01-23_08h01.34.845,bars,2023.2.3,Win32,71.42857143,657b66ea316d21385b68909f,,,,,,,,,,,4050.5111,4051.5062,,,4052.0062,4052.2574,,27,27,,,,,,,,,,,,,,,,bars/040.png,bars/mask006.png,,,,,,,,,,,,2,2,,,,,,,10,8,9,8,,,,,,,,,,,4051.5062,4052.0062,4052.2575,4056.5279,space,4.2545,,4056.5279,67,22,4057.5287,4057.5287,4057.5339,,,,0,22,22,22,1,140,5,,,,,,,,
,,615fdd9674ec001e9d325841,65af55eb988ae06a9240104e,2024-01-23_08h01.34.845,bars,2023.2.3,Win32,71.42857143,657b66ea316d21385b68909f,,,,,,,,,,,4057.534,4058.5303,,,4059.0305,4059.2802,,33,33,,,,,,,,,,,,,,,,bars/004.png,bars/mask003.png,,,,,,,,,,,,5,1,,,,,,,8,10,7,10,,,,,,,,,,,4058.5303,4059.0305,4059.2803,4064.8041,space,5.5063,,4064.8041,8,88,4065.8034,4065.8034,4065.8094,,,,0,23,23,23,1,25,125,,,,,,,,
,,615fdd9674ec001e9d325841,65af55eb988ae06a9240104e,2024-01-23_08h01.34.845,bars,2023.2.3,Win32,71.42857143,657b66ea316d21385b68909f,,,,,,,,,,,4065.8095,4066.8047,,,4067.3048,4067.5552,,140,140,,,,,,,,,,,,,,,,bars/004.png,bars/mask007.png,,,,,,,,,,,,4,2,,,,,,,10,8,10,8,,,,,,,,,,,4066.8047,4067.3048,4067.5553,4073.5959,space,6.006,,4073.5959,65,15,4074.5954,4074.5954,4074.6013,,,,0,24,24,24,1,25,125,,,,,,,,
,,615fdd9674ec001e9d325841,65af55eb988ae06a9240104e,2024-01-23_08h01.34.845,bars,2023.2.3,Win32,71.42857143,657b66ea316d21385b68909f,,,,,,,,,,,4074.6015,4075.5968,,,4076.0972,4076.3485,,172,172,,,,,,,,,,,,,,,,bars/029.png,bars/mask001.png,,,,,,,,,,,,0,2,,,,,,,8,6,10,6,,,,,,,,,,,4075.5969,4076.0972,4076.3486,4083.0541,space,6.6727,,4083.0541,82,53,4084.0554,4084.0554,4084.0612,,,,0,25,25,25,1,90,45,,,,,,,,
,,615fdd9674ec001e9d325841,65af55eb988ae06a9240104e,2024-01-23_08h01.34.845,bars,2023.2.3,Win32,71.42857143,657b66ea316d21385b68909f,,,,,,,,,,,4084.0613,4085.0562,,,4085.5572,4085.8076,,129,-51,,,,,,,,,,,,,,,,bars/038.png,bars/mask005.png,,,,,,,,,,,,0,1,,,,,,,6,4,6,4,,,,,,,,,,,4085.0562,4085.5572,4085.8076,4090.0783,space,4.2552,,4090.0784,36,59,4091.0788,4091.0788,4091.0846,,,,0,26,26,26,1,165,70,,,,,,,,
,,615fdd9674ec001e9d325841,65af55eb988ae06a9240104e,2024-01-23_08h01.34.845,bars,2023.2.3,Win32,71.42857143,657b66ea316d21385b68909f,,,,,,,,,,,4091.0847,4092.0797,,,4092.5801,4092.8313,,124,124,,,,,,,,,,,,,,,,bars/023.png,bars/mask001.png,,,,,,,,,,,,5,2,,,,,,,8,6,8,7,,,,,,,,,,,4092.0798,4092.5801,4092.8313,4098.737,space,5.8902,,4098.737,76,9,4099.7375,4099.7375,4099.7432,,,,0,27,27,27,1,20,115,,,,,,,,
,,615fdd9674ec001e9d325841,65af55eb988ae06a9240104e,2024-01-23_08h01.34.845,bars,2023.2.3,Win32,71.42857143,657b66ea316d21385b68909f,,,,,,,,,,,4099.7433,4100.7386,,,4101.2394,4101.4893,,36,36,,,,,,,,,,,,,,,,bars/036.png,bars/mask002.png,,,,,,,,,,,,5,2,,,,,,,6,8,8,10,,,,,,,,,,,4100.7386,4101.2394,4101.4893,4105.6269,space,4.1212,,4105.627,71,16,4106.6277,4106.6277,4106.633,,,,0,28,28,28,1,145,20,,,,,,,,
,,615fdd9674ec001e9d325841,65af55eb988ae06a9240104e,2024-01-23_08h01.34.845,bars,2023.2.3,Win32,71.42857143,657b66ea316d21385b68909f,,,,,,,,,,,4106.6331,4107.6285,,,4108.1289,4108.38,,56,56,,,,,,,,,,,,,,,,bars/022.png,bars/mask009.png,,,,,,,,,,,,0,2,,,,,,,8,6,7,6,,,,,,,,,,,4107.6285,4108.1289,4108.38,4113.2344,space,4.8216,,4113.2345,39,36,4114.2193,4114.2193,4114.2244,,,,0,29,29,29,1,95,20,,,,,,,,
,,615fdd9674ec001e9d325841,65af55eb988ae06a9240104e,2024-01-23_08h01.34.845,bars,2023.2.3,Win32,71.42857143,657b66ea316d21385b68909f,,,,,,,,,,,4114.2246,4115.2198,,,4115.7211,4115.9705,,38,38,,,,,,,,,,,,,,,,bars/005.png,bars/mask008.png,,,,,,,,,,,,1,1,,,,,,,10,8,10,8,,,,,,,,,,,4115.2198,4115.7211,4115.9706,4118.64,space,2.6366,,4118.64,28,78,4119.6405,4119.6406,4119.6463,,,,0,30,30,30,1,10,140,,,,,,,,
,,615fdd9674ec001e9d325841,65af55eb988ae06a9240104e,2024-01-23_08h01.34.845,bars,2023.2.3,Win32,71.42857143,657b66ea316d21385b68909f,,,,,,,,,,,4119.6464,4120.6415,,,4121.1422,4121.392,,47,47,,,,,,,,,,,,,,,,bars/004.png,bars/mask009.png,,,,,,,,,,,,2,1,,,,,,,8,10,6,9,,,,,,,,,,,4120.6415,4121.1422,4121.392,4124.5122,space,3.103,,4124.5122,22,78,4125.5135,4125.5136,4125.5189,,,,0,31,31,31,1,25,125,,,,,,,,
,,615fdd9674ec001e9d325841,65af55eb988ae06a9240104e,2024-01-23_08h01.34.845,bars,2023.2.3,Win32,71.42857143,657b66ea316d21385b68909f,,,,,,,,,,,4125.519,4126.5147,,,4127.0147,4127.2653,,35,35,,,,,,,,,,,,,,,,bars/025.png,bars/mask006.png,,,,,,,,,,,,7,2,,,,,,,6,8,6,8,,,,,,,,,,,4126.5147,4127.0147,4127.2654,4132.5706,space,5.2724,,4132.5707,70,5,4133.572,4133.572,4133.5782,,,,0,32,32,32,1,105,40,,,,,,,,
,,615fdd9674ec001e9d325841,65af55eb988ae06a9240104e,2024-01-23_08h01.34.845,bars,2023.2.3,Win32,71.42857143,657b66ea316d21385b68909f,,,,,,,,,,,4133.5782,4134.5729,,,4135.0724,4135.3227,,161,-19,,,,,,,,,,,,,,,,bars/006.png,bars/mask006.png,,,,,,,,,,,,0,1,,,,,,,8,10,8,10,,,,,,,,,,,4134.5729,4135.0724,4135.3227,4139.1772,space,3.8377,,4139.1772,54,61,4140.1772,4140.1772,4140.1832,,,,0,33,33,33,1,35,100,,,,,,,,
,,615fdd9674ec001e9d325841,65af55eb988ae06a9240104e,2024-01-23_08h01.34.845,bars,2023.2.3,Win32,71.42857143,657b66ea316d21385b68909f,,,,,,,,,,,4140.1834,4141.1786,,,4141.6797,4141.9298,,39,39,,,,,,,,,,,,,,,,bars/036.png,bars/mask000.png,,,,,,,,,,,,4,2,,,,,,,6,8,6,10,,,,,,,,,,,4141.1786,4141.6797,4141.9298,4147.2515,space,5.3055,,4147.2515,74,19,4148.2525,4148.2525,4148.2582,,,,0,34,34,34,1,145,20,,,,,,,,
,,615fdd9674ec001e9d325841,65af55eb988ae06a9240104e,2024-01-23_08h01.34.845,bars,2023.2.3,Win32,71.42857143,657b66ea316d21385b68909f,,,,,,,,,,,4148.2584,4149.2534,,,4149.7384,4149.9886,,43,43,,,,,,,,,,,,,,,,bars/036.png,bars/mask009.png,,,,,,,,,,,,1,2,,,,,,,4,6,4,6,,,,,,,,,,,4149.2534,4149.7383,4149.9886,4154.0085,space,4.0045,,4154.0085,78,23,4155.0092,4155.0092,4155.0144,,,,0,35,35,35,1,145,20,,,,,,,,
,,615fdd9674ec001e9d325841,65af55eb988ae06a9240104e,2024-01-23_08h01.34.845,bars,2023.2.3,Win32,71.42857143,657b66ea316d21385b68909f,,,,,,,,,,,4155.0145,4156.0102,,,4156.5112,4156.7609,,164,164,,,,,,,,,,,,,,,,bars/021.png,bars/mask000.png,,,,,,,,,,,,1,1,,,,,,,2,4,2,4,,,,,,,,,,,4156.0102,4156.5112,4156.7609,4161.7504,space,4.9726,,4161.7505,9,86,4162.7501,4162.7501,4162.7561,,,,0,36,36,36,1,155,70,,,,,,,,
,,615fdd9674ec001e9d325841,65af55eb988ae06a9240104e,2024-01-23_08h01.34.845,bars,2023.2.3,Win32,71.42857143,657b66ea316d21385b68909f,,,,,,,,,,,4162.7562,4163.7515,,,4164.2512,4164.5017,,143,143,,,,,,,,,,,,,,,,bars/000.png,bars/mask002.png,,,,,,,,,,,,4,2,,,,,,,4,6,4,4,,,,,,,,,,,4163.7515,4164.2512,4164.5017,4169.8071,space,5.2886,,4169.8071,77,2,4170.808,4170.808,4170.8138,,,,0,37,37,37,1,40,145,,,,,,,,
,,615fdd9674ec001e9d325841,65af55eb988ae06a9240104e,2024-01-23_08h01.34.845,bars,2023.2.3,Win32,71.42857143,657b66ea316d21385b68909f,,,,,,,,,,,4170.814,4171.8095,,,4172.3098,4172.5603,,143,-37,,,,,,,,,,,,,,,,bars/034.png,bars/mask003.png,,,,,,,,,,,,0,1,,,,,,,2,8,1,7,,,,,,,,,,,4171.8095,4172.3098,4172.5603,4175.3803,space,2.7867,,4175.3804,18,78,4176.3802,4176.3803,4176.3859,,,,0,38,38,38,1,125,65,,,,,,,,
,,615fdd9674ec001e9d325841,65af55eb988ae06a9240104e,2024-01-23_08h01.34.845,bars,2023.2.3,Win32,71.42857143,657b66ea316d21385b68909f,,,,,,,,,,,4176.3861,4177.3819,,,4177.8821,4178.1318,,20,200,,,,,,,,,,,,,,,,bars/005.png,bars/mask008.png,,,,,,,,,,,,3,1,,,,,,,4,10,5,10,,,,,,,,,,,4177.3819,4177.8821,4178.1319,4181.6861,space,3.5374,,4181.6861,10,60,4182.6865,4182.6865,4182.6917,,,,0,39,39,39,1,10,140,,,,,,,,
,,615fdd9674ec001e9d325841,65af55eb988ae06a9240104e,2024-01-23_08h01.34.845,bars,2023.2.3,Win32,71.42857143,657b66ea316d21385b68909f,,,,,,,,,,,4182.6918,4183.6876,,,4184.1885,4184.4385,,49,49,,,,,,,,,,,,,,,,bars/040.png,bars/mask006.png,,,,,,,,,,,,0,2,,,,,,,6,8,7,7,,,,,,,,,,,4183.6876,4184.1885,4184.4386,4189.3603,space,4.8885,,4189.3603,89,44,4190.361,4190.3611,4190.3667,,,,0,40,40,40,1,140,5,,,,,,,,
,,615fdd9674ec001e9d325841,65af55eb988ae06a9240104e,2024-01-23_08h01.34.845,bars,2023.2.3,Win32,71.42857143,657b66ea316d21385b68909f,,,,,,,,,,,4190.3669,4191.3623,,,4191.8631,4192.1123,,137,137,,,,,,,,,,,,,,,,bars/018.png,bars/mask002.png,,,,,,,,,,,,3,1,,,,,,,4,6,5,7,,,,,,,,,,,4191.3623,4191.863,4192.1123,4196.2836,space,4.1697,,4196.2836,13,47,4197.2847,4197.2847,4197.2906,,,,0,41,41,41,1,150,90,,,,,,,,
,,615fdd9674ec001e9d325841,65af55eb988ae06a9240104e,2024-01-23_08h01.34.845,bars,2023.2.3,Win32,71.42857143,657b66ea316d21385b68909f,,,,,,,,,,,4197.2907,4198.2855,,,4198.7869,4199.0366,,32,32,,,,,,,,,,,,,,,,bars/035.png,bars/mask006.png,,,,,,,,,,,,1,2,,,,,,,6,8,6,9,,,,,,,,,,,4198.2855,4198.7869,4199.0366,4206.227,space,7.1737,,4206.227,37,28,4207.2275,4207.2275,4207.2334,,,,0,42,42,42,1,175,60,,,,,,,,
,,615fdd9674ec001e9d325841,65af55eb988ae06a9240104e,2024-01-23_08h01.34.845,bars,2023.2.3,Win32,71.42857143,657b66ea316d21385b68909f,,,,,,,,,,,4207.2336,4208.2285,,,4208.73,4208.9796,,2,2,,,,,,,,,,,,,,,,bars/028.png,bars/mask004.png,,,,,,,,,,,,0,1,,,,,,,8,6,9,7,,,,,,,,,,,4208.2285,4208.73,4208.9796,4215.303,space,6.3071,,4215.303,43,62,4216.3034,4216.3035,4216.3095,,,,0,43,43,43,1,45,120,,,,,,,,
,,615fdd9674ec001e9d325841,65af55eb988ae06a9240104e,2024-01-23_08h01.34.845,bars,2023.2.3,Win32,71.42857143,657b66ea316d21385b68909f,,,,,,,,,,,4216.3096,4217.3046,,,4217.8056,4218.0553,,2,2,,,,,,,,,,,,,,,,bars/023.png,bars/mask004.png,,,,,,,,,,,,2,1,,,,,,,6,8,5,10,,,,,,,,,,,4217.3046,4217.8056,4218.0553,4222.8938,space,4.8051,,4222.8938,18,67,4223.8942,4223.8942,4223.8996,,,,0,44,44,44,1,20,115,,,,,,,,
,,615fdd9674ec001e9d325841,65af55eb988ae06a9240104e,2024-01-23_08h01.34.845,bars,2023.2.3,Win32,71.42857143,657b66ea316d21385b68909f,,,,,,,,,,,4223.8997,4224.8952,,,4225.3969,4225.6458,,14,14,,,,,,,,,,,,,,,,bars/032.png,bars/mask004.png,,,,,,,,,,,,7,2,,,,,,,4,10,4,9,,,,,,,,,,,4224.8953,4225.3969,4225.6458,4231.435,space,5.7716,,4231.435,69,6,4232.4364,4232.4364,4232.4424,,,,0,45,45,45,1,125,20,,,,,,,,
,,615fdd9674ec001e9d325841,65af55eb988ae06a9240104e,2024-01-23_08h01.34.845,bars,2023.2.3,Win32,71.42857143,657b66ea316d21385b68909f,,,,,,,,,,,4232.4425,4233.4373,,,4233.9378,4234.1886,,10,10,,,,,,,,,,,,,,,,bars/043.png,bars/mask004.png,,,,,,,,,,,,1,1,,,,,,,2,8,3,9,,,,,,,,,,,4233.4374,4233.9377,4234.1886,4237.2911,space,3.0863,,4237.2911,20,60,4238.2921,4238.2921,4238.298,,,,0,46,46,46,1,30,130,,,,,,,,
,,615fdd9674ec001e9d325841,65af55eb988ae06a9240104e,2024-01-23_08h01.34.845,bars,2023.2.3,Win32,71.42857143,657b66ea316d21385b68909f,,,,,,,,,,,4238.298,4239.2936,,,4239.7945,4240.0441,,5,5,,,,,,,,,,,,,,,,bars/016.png,bars/mask002.png,,,,,,,,,,,,3,2,,,,,,,4,6,4,9,,,,,,,,,,,4239.2936,4239.7945,4240.0442,4244.3485,space,4.2713,,4244.3485,35,20,4245.3333,4245.3333,4245.339,,,,0,47,47,47,1,40,165,,,,,,,,
,,615fdd9674ec001e9d325841,65af55eb988ae06a9240104e,2024-01-23_08h01.34.845,bars,2023.2.3,Win32,71.42857143,657b66ea316d21385b68909f,,,,,,,,,,,4245.3392,4246.3342,,,4246.8341,4247.0844,,9,9,,,,,,,,,,,,,,,,bars/034.png,bars/mask006.png,,,,,,,,,,,,0,2,,,,,,,2,8,1,7,,,,,,,,,,,4246.3342,4246.8341,4247.0844,4251.0889,space,3.9706,,4251.0889,64,56,4252.0912,4252.0912,4252.0966,,,,0,48,48,48,1,125,65,,,,,,,,
,,615fdd9674ec001e9d325841,65af55eb988ae06a9240104e,2024-01-23_08h01.34.845,bars,2023.2.3,Win32,71.42857143,657b66ea316d21385b68909f,,,,,,,,,,,4252.0967,4253.0901,,,4253.5754,4253.8245,,12,192,,,,,,,,,,,,,,,,bars/047.png,bars/mask009.png,,,,,,,,,,,,0,1,,,,,,,0,6,0,6,,,,,,,,,,,4253.0901,4253.5753,4253.8245,4257.7451,space,3.9046,,4257.7452,3,58,4258.7466,4258.7467,4258.7524,,,,0,49,49,49,1,15,70,,,,,,,,
,,615fdd9674ec001e9d325841,65af55eb988ae06a9240104e,2024-01-23_08h01.34.845,bars,2023.2.3,Win32,71.42857143,657b66ea316d21385b68909f,,,,,,,,,,,,,,,,,,,,,,,,,,,,,,,,,,,,,,,,,,,,,,,,,,,,,,,,,,,,,,,,,,,,,,,,,,,,,,,,,,,,,,,,,,,,,4258.7525,4318.7559,0,3,3,0,1,sequence_tables/blk005.csv
,,615fdd9674ec001e9d325841,65af55eb988ae06a9240104e,2024-01-23_08h01.34.845,bars,2023.2.3,Win32,71.42857143,657b66ea316d21385b68909f,,,,,,,,,,,4350.9903,4351.9886,,,4352.4902,4352.742,,41,221,,,,,,,,,,,,,,,,bars/015.png,bars/mask001.png,,,,,,,,,,,,0,2,,,,,,,7,5,7,6,,,,,,4318.7561,4350.988,space,32.199,,4351.9886,4352.4902,4352.7421,4358.1287,space,5.3559,,4358.1287,69,61,4359.1301,4359.1301,4359.1361,,,,0,0,0,0,1,110,160,,,,,,,,
,,615fdd9674ec001e9d325841,65af55eb988ae06a9240104e,2024-01-23_08h01.34.845,bars,2023.2.3,Win32,71.42857143,657b66ea316d21385b68909f,,,,,,,,,,,4359.1362,4360.1303,,,4360.6303,4360.8644,,142,142,,,,,,,,,,,,,,,,bars/000.png,bars/mask009.png,,,,,,,,,,,,2,2,,,,,,,9,3,10,2,,,,,,,,,,,4360.1303,4360.6303,4360.8644,4364.4344,space,3.5536,,4364.4344,78,3,4365.4352,4365.4352,4365.4405,,,,0,1,1,1,1,40,145,,,,,,,,
,,615fdd9674ec001e9d325841,65af55eb988ae06a9240104e,2024-01-23_08h01.34.845,bars,2023.2.3,Win32,71.42857143,657b66ea316d21385b68909f,,,,,,,,,,,4365.4405,4366.4362,,,4366.9371,4367.1868,,152,-28,,,,,,,,,,,,,,,,bars/043.png,bars/mask003.png,,,,,,,,,,,,1,2,,,,,,,7,1,6,2,,,,,,,,,,,4366.4362,4366.9371,4367.1868,4370.5737,space,3.37,,4370.5737,58,22,4371.5584,4371.5584,4371.5637,,,,0,2,2,2,1,30,130,,,,,,,,
,,615fdd9674ec001e9d325841,65af55eb988ae06a9240104e,2024-01-23_08h01.34.845,bars,2023.2.3,Win32,71.42857143,657b66ea316d21385b68909f,,,,,,,,,,,4371.5638,4372.5588,,,4373.0436,4373.2934,,24,204,,,,,,,,,,,,,,,,bars/042.png,bars/mask001.png,,,,,,,,,,,,0,2,,,,,,,5,3,5,2,,,,,,,,,,,4372.5588,4373.0436,4373.2934,4375.479,space,2.1695,,4375.479,59,51,4376.4803,4376.4803,4376.486,,,,0,3,3,3,1,145,75,,,,,,,,
,,615fdd9674ec001e9d325841,65af55eb988ae06a9240104e,2024-01-23_08h01.34.845,bars,2023.2.3,Win32,71.42857143,657b66ea316d21385b68909f,,,,,,,,,,,4376.4861,4377.4806,,,4377.9814,4378.2319,,132,132,,,,,,,,,,,,,,,,bars/042.png,bars/mask002.png,,,,,,,,,,,,3,1,,,,,,,7,1,6,2,,,,,,,,,,,4377.4806,4377.9813,4378.2319,4383.4532,space,5.1886,,4383.4532,13,57,4384.4554,4384.4555,4384.4611,,,,0,4,4,4,1,145,75,,,,,,,,
,,615fdd9674ec001e9d325841,65af55eb988ae06a9240104e,2024-01-23_08h01.34.845,bars,2023.2.3,Win32,71.42857143,657b66ea316d21385b68909f,,,,,,,,,,,4384.4613,4385.4554,,,4385.9557,4386.2063,,161,-19,,,,,,,,,,,,,,,,bars/029.png,bars/mask004.png,,,,,,,,,,,,0,2,,,,,,,5,0,5,0,,,,,,,,,,,4385.4555,4385.9557,4386.2063,4389.6598,space,3.42,,4389.6598,71,64,4390.6608,4390.6608,4390.6666,,,,0,5,5,5,1,90,45,,,,,,,,
,,615fdd9674ec001e9d325841,65af55eb988ae06a9240104e,2024-01-23_08h01.34.845,bars,2023.2.3,Win32,71.42857143,657b66ea316d21385b68909f,,,,,,,,,,,4390.6667,4391.6616,,,4392.1623,4392.4129,,25,205,,,,,,,,,,,,,,,,bars/045.png,bars/mask004.png,,,,,,,,,,,,2,2,,,,,,,7,2,8,3,,,,,,,,,,,4391.6616,4392.1623,4392.4129,4394.9649,space,2.5193,,4394.965,75,15,4395.9659,4395.966,4395.9715,,,,0,6,6,6,1,100,10,,,,,,,,
,,615fdd9674ec001e9d325841,65af55eb988ae06a9240104e,2024-01-23_08h01.34.845,bars,2023.2.3,Win32,71.42857143,657b66ea316d21385b68909f,,,,,,,,,,,4395.9716,4396.9669,,,4397.4566,4397.7017,,158,-22,,,,,,,,,,,,,,,,bars/044.png,bars/mask000.png,,,,,,,,,,,,1,2,,,,,,,9,0,10,1,,,,,,,,,,,4396.967,4397.4566,4397.7018,4402.723,space,5.0058,,4402.7231,83,3,4403.7236,4403.7236,4403.7288,,,,0,7,7,7,1,75,155,,,,,,,,
,,615fdd9674ec001e9d325841,65af55eb988ae06a9240104e,2024-01-23_08h01.34.845,bars,2023.2.3,Win32,71.42857143,657b66ea316d21385b68909f,,,,,,,,,,,4403.7289,4404.7252,,,4405.2246,4405.4751,,148,148,,,,,,,,,,,,,,,,bars/012.png,bars/mask009.png,,,,,,,,,,,,0,2,,,,,,,7,0,6,0,,,,,,,,,,,4404.7252,4405.2246,4405.4751,4410.6651,space,5.1563,,4410.6652,58,47,4411.6647,4411.6648,4411.6703,,,,0,8,8,8,1,90,15,,,,,,,,
,,615fdd9674ec001e9d325841,65af55eb988ae06a9240104e,2024-01-23_08h01.34.845,bars,2023.2.3,Win32,71.42857143,657b66ea316d21385b68909f,,,,,,,,,,,4411.6704,4412.6656,,,4413.1666,4413.4172,,12,192,,,,,,,,,,,,,,,,bars/029.png,bars/mask004.png,,,,,,,,,,,,0,2,,,,,,,5,2,4,1,,,,,,,,,,,4412.6657,4413.1666,4413.4172,4417.8887,space,4.4544,,4417.8887,78,33,4418.889,4418.889,4418.8946,,,,0,9,9,9,1,90,45,,,,,,,,
,,615fdd9674ec001e9d325841,65af55eb988ae06a9240104e,2024-01-23_08h01.34.845,bars,2023.2.3,Win32,71.42857143,657b66ea316d21385b68909f,,,,,,,,,,,4418.8947,4419.8895,,,4420.3905,4420.6403,,168,-12,,,,,,,,,,,,,,,,bars/037.png,bars/mask001.png,,,,,,,,,,,,2,1,,,,,,,3,0,4,0,,,,,,,,,,,4419.8895,4420.3905,4420.6403,4424.1778,space,3.52,,4424.1778,18,63,4425.1781,4425.1781,4425.1842,,,,0,10,10,10,1,150,105,,,,,,,,
