init_variables.started,init_variables.stopped,participant,session,date,expName,psychopyVersion,OS,frameRate,study_id,instruction_exp.started,instruction_exp.stopped,key_resp_8.keys,key_resp_8.rt,key_resp_8.duration,instruction_single.started,instruction_single.stopped,key_resp_2.keys,key_resp_2.rt,key_resp_2.duration,interval.started,interval.stopped,cue_single.started,cue_single.stopped,mask.started,mask.stopped,ori_response_single.started,res_ori,res,ori_response_single.stopped,key_resp_single.keys,key_resp_single.rt,key_resp_single.duration,disp_single.started,disp_single.stopped,key_resp.keys,key_resp.rt,key_resp.duration,single.thisRepN,single.thisTrialN,single.thisN,single.thisIndex,single.ran,ori,path,mask_path,instruction_bandit.started,instruction_bandit.stopped,key_resp_6.keys,key_resp_6.rt,key_resp_6.duration,cue_bandit.started,cue_bandit.stopped,bandit_res.keys,bandit_res.rt,bandit_res.duration,outcome_bandit.started,rew,action,outcome_bandit.stopped,bandit.thisRepN,bandit.thisTrialN,bandit.thisN,bandit.thisIndex,bandit.ran,actual_rew1,actual_rew2,rew1,rew2,instruction_task.started,instruction_task.stopped,key_resp_7.keys,key_resp_7.rt,key_resp_7.duration,wait_ready.started,wait_ready.stopped,key_resp_3.keys,key_resp_3.rt,key_resp_3.duration,cue.started,cue.stopped,ori_response.started,ori_response.stopped,key_resp_5.keys,key_resp_5.rt,key_resp_5.duration,outcome.started,diff1,diff2,outcome.stopped,disp_outcome_practice.started,disp_outcome_practice.stopped,key_resp_4.keys,key_resp_4.rt,key_resp_4.duration,trials.thisRepN,trials.thisTrialN,trials.thisN,trials.thisIndex,trials.ran,ori1,ori2,break_blk.started,break_blk.stopped,block.thisRepN,block.thisTrialN,block.thisN,block.thisIndex,block.ran,condition_file
0,0,65a6c690858ba02d51bf8905,65af53c796282ee5a07620b6,2024-01-22_23h08.26.664,bars,2023.2.3,Win32,59.95203837,657b66ea316d21385b68909f,,,,,,,,,,,,,,,,,,,,,,,,,,,,,,,,,,,,,,,,,,,,,,,,,,,,,,,,,,,,,,,,,,,,,,,,,,,,,,,,,,,,,,,,,,,,,,,,,,,,
,,65a6c690858ba02d51bf8905,65af53c796282ee5a07620b6,2024-01-22_23h08.26.664,bars,2023.2.3,Win32,59.95203837,657b66ea316d21385b68909f,0,20.074,y,20.046,,,,,,,,,,,,,,,,,,,,,,,,,,,,,,,,,,,,,,,,,,,,,,,,,,,,,,,,,,,,,,,,,,,,,,,,,,,,,,,,,,,,,,,,,,,,,,,,
,,65a6c690858ba02d51bf8905,65af53c796282ee5a07620b6,2024-01-22_23h08.26.664,bars,2023.2.3,Win32,59.95203837,657b66ea316d21385b68909f,,,,,,20.074,60.782,space,40.67,,,,,,,,,,,,,,,,,,,,,,,,,,,,,,,,,,,,,,,,,,,,,,,,,,,,,,,,,,,,,,,,,,,,,,,,,,,,,,,,,,,,,,,,,,,
,,65a6c690858ba02d51bf8905,65af53c796282ee5a07620b6,2024-01-22_23h08.26.664,bars,2023.2.3,Win32,59.95203837,657b66ea316d21385b68909f,,,,,,,,,,,60.787,61.79,61.79,62.291,62.291,62.54,62.54,102,102,76.241,space,13.654,,76.241,99.275,space,22.995,,0,0,0,4,1,95,bars/single004.png,bars/mask004.png,,,,,,,,,,,,,,,,,,,,,,,,,,,,,,,,,,,,,,,,,,,,,,,,,,,,,,,,,,,,,,,,
,,65a6c690858ba02d51bf8905,65af53c796282ee5a07620b6,2024-01-22_23h08.26.664,bars,2023.2.3,Win32,59.95203837,657b66ea316d21385b68909f,,,,,,,,,,,99.279,100.274,100.274,100.773,100.773,101.023,101.023,36,36,116.424,space,15.39,,116.424,128.341,space,11.898,,0,1,1,5,1,55,bars/single005.png,bars/mask008.png,,,,,,,,,,,,,,,,,,,,,,,,,,,,,,,,,,,,,,,,,,,,,,,,,,,,,,,,,,,,,,,,
,,65a6c690858ba02d51bf8905,65af53c796282ee5a07620b6,2024-01-22_23h08.26.664,bars,2023.2.3,Win32,59.95203837,657b66ea316d21385b68909f,,,,,,,,,,,128.345,129.34,129.34,129.84,129.84,130.091,130.091,121,121,137.924,space,7.817,,137.924,154.625,space,16.682,,0,2,2,8,1,160,bars/single008.png,bars/mask004.png,,,,,,,,,,,,,,,,,,,,,,,,,,,,,,,,,,,,,,,,,,,,,,,,,,,,,,,,,,,,,,,,
,,65a6c690858ba02d51bf8905,65af53c796282ee5a07620b6,2024-01-22_23h08.26.664,bars,2023.2.3,Win32,59.95203837,657b66ea316d21385b68909f,,,,,,,,,,,154.629,155.624,155.624,156.123,156.124,156.374,156.374,57,57,165.707,space,9.322,,165.707,179.374,space,13.652,,0,3,3,0,1,150,bars/single000.png,bars/mask006.png,,,,,,,,,,,,,,,,,,,,,,,,,,,,,,,,,,,,,,,,,,,,,,,,,,,,,,,,,,,,,,,,
,,65a6c690858ba02d51bf8905,65af53c796282ee5a07620b6,2024-01-22_23h08.26.664,bars,2023.2.3,Win32,59.95203837,657b66ea316d21385b68909f,,,,,,,,,,,179.375,180.374,180.374,180.874,180.874,181.123,181.124,116,116,188.894,space,7.752,,188.894,192.841,space,3.927,,0,4,4,1,1,20,bars/single001.png,bars/mask006.png,,,,,,,,,,,,,,,,,,,,,,,,,,,,,,,,,,,,,,,,,,,,,,,,,,,,,,,,,,,,,,,,
,,65a6c690858ba02d51bf8905,65af53c796282ee5a07620b6,2024-01-22_23h08.26.664,bars,2023.2.3,Win32,59.95203837,657b66ea316d21385b68909f,,,,,,,,,,,192.842,193.84,193.84,194.34,194.34,194.59,194.591,88,88,200.557,space,5.949,,200.557,205.174,space,4.599,,0,5,5,9,1,20,bars/single009.png,bars/mask006.png,,,,,,,,,,,,,,,,,,,,,,,,,,,,,,,,,,,,,,,,,,,,,,,,,,,,,,,,,,,,,,,,
,,65a6c690858ba02d51bf8905,65af53c796282ee5a07620b6,2024-01-22_23h08.26.664,bars,2023.2.3,Win32,59.95203837,657b66ea316d21385b68909f,,,,,,,,,,,205.175,206.173,206.173,206.674,206.674,206.923,206.923,0,180,213.639,space,6.705,,213.64,221.191,space,7.532,,0,6,6,3,1,20,bars/single003.png,bars/mask005.png,,,,,,,,,,,,,,,,,,,,,,,,,,,,,,,,,,,,,,,,,,,,,,,,,,,,,,,,,,,,,,,,
,,65a6c690858ba02d51bf8905,65af53c796282ee5a07620b6,2024-01-22_23h08.26.664,bars,2023.2.3,Win32,59.95203837,657b66ea316d21385b68909f,,,,,,,,,,,221.196,222.19,222.191,222.69,222.69,222.94,222.94,15,15,228.823,space,5.866,,228.823,236.923,space,8.086,,0,7,7,7,1,45,bars/single007.png,bars/mask009.png,,,,,,,,,,,,,,,,,,,,,,,,,,,,,,,,,,,,,,,,,,,,,,,,,,,,,,,,,,,,,,,,
,,65a6c690858ba02d51bf8905,65af53c796282ee5a07620b6,2024-01-22_23h08.26.664,bars,2023.2.3,Win32,59.95203837,657b66ea316d21385b68909f,,,,,,,,,,,236.925,237.923,237.923,238.423,238.423,238.673,238.673,44,44,243.84,space,5.151,,243.84,248.174,space,4.315,,0,8,8,6,1,175,bars/single006.png,bars/mask005.png,,,,,,,,,,,,,,,,,,,,,,,,,,,,,,,,,,,,,,,,,,,,,,,,,,,,,,,,,,,,,,,,
,,65a6c690858ba02d51bf8905,65af53c796282ee5a07620b6,2024-01-22_23h08.26.664,bars,2023.2.3,Win32,59.95203837,657b66ea316d21385b68909f,,,,,,,,,,,248.178,249.173,249.173,249.673,249.674,249.923,249.923,87,87,256.057,space,6.117,,256.057,261.09,space,5.015,,0,9,9,2,1,145,bars/single002.png,bars/mask003.png,,,,,,,,,,,,,,,,,,,,,,,,,,,,,,,,,,,,,,,,,,,,,,,,,,,,,,,,,,,,,,,,
,,65a6c690858ba02d51bf8905,65af53c796282ee5a07620b6,2024-01-22_23h08.26.664,bars,2023.2.3,Win32,59.95203837,657b66ea316d21385b68909f,,,,,,,,,,,,,,,,,,,,,,,,,,,,,,,,,,,,,261.09,300.29,space,39.168,,,,,,,,,,,,,,,,,,,,,,,,,,,,,,,,,,,,,,,,,,,,,,,,,,,,,,,,,,,,
,,65a6c690858ba02d51bf8905,65af53c796282ee5a07620b6,2024-01-22_23h08.26.664,bars,2023.2.3,Win32,59.95203837,657b66ea316d21385b68909f,,,,,,,,,,,,,,,,,,,,,,,,,,,,,,,,,,,,,,,,,,300.299,309.691,left,9.358,,309.691,9,1,310.689,0,0,0,0,1,9,1,9,2,,,,,,,,,,,,,,,,,,,,,,,,,,,,,,,,,,,,,,,,,
,,65a6c690858ba02d51bf8905,65af53c796282ee5a07620b6,2024-01-22_23h08.26.664,bars,2023.2.3,Win32,59.95203837,657b66ea316d21385b68909f,,,,,,,,,,,,,,,,,,,,,,,,,,,,,,,,,,,,,,,,,,310.693,314.273,left,3.567,,314.273,10,1,315.273,0,1,1,1,1,10,0,10,1,,,,,,,,,,,,,,,,,,,,,,,,,,,,,,,,,,,,,,,,,
,,65a6c690858ba02d51bf8905,65af53c796282ee5a07620b6,2024-01-22_23h08.26.664,bars,2023.2.3,Win32,59.95203837,657b66ea316d21385b68909f,,,,,,,,,,,,,,,,,,,,,,,,,,,,,,,,,,,,,,,,,,315.275,319.39,right,4.104,,319.39,2,2,320.39,0,2,2,2,1,10,2,10,2,,,,,,,,,,,,,,,,,,,,,,,,,,,,,,,,,,,,,,,,,
,,65a6c690858ba02d51bf8905,65af53c796282ee5a07620b6,2024-01-22_23h08.26.664,bars,2023.2.3,Win32,59.95203837,657b66ea316d21385b68909f,,,,,,,,,,,,,,,,,,,,,,,,,,,,,,,,,,,,,,,,,,320.39,323.723,left,3.317,,323.724,7,1,324.723,0,3,3,3,1,8,4,7,3,,,,,,,,,,,,,,,,,,,,,,,,,,,,,,,,,,,,,,,,,
,,65a6c690858ba02d51bf8905,65af53c796282ee5a07620b6,2024-01-22_23h08.26.664,bars,2023.2.3,Win32,59.95203837,657b66ea316d21385b68909f,,,,,,,,,,,,,,,,,,,,,,,,,,,,,,,,,,,,,,,,,,324.724,326.524,left,1.787,,326.524,5,1,327.524,0,4,4,4,1,6,2,5,1,,,,,,,,,,,,,,,,,,,,,,,,,,,,,,,,,,,,,,,,,
,,65a6c690858ba02d51bf8905,65af53c796282ee5a07620b6,2024-01-22_23h08.26.664,bars,2023.2.3,Win32,59.95203837,657b66ea316d21385b68909f,,,,,,,,,,,,,,,,,,,,,,,,,,,,,,,,,,,,,,,,,,327.524,329.706,left,2.173,,329.706,4,1,330.706,0,5,5,5,1,4,4,4,4,,,,,,,,,,,,,,,,,,,,,,,,,,,,,,,,,,,,,,,,,
,,65a6c690858ba02d51bf8905,65af53c796282ee5a07620b6,2024-01-22_23h08.26.664,bars,2023.2.3,Win32,59.95203837,657b66ea316d21385b68909f,,,,,,,,,,,,,,,,,,,,,,,,,,,,,,,,,,,,,,,,,,330.707,331.323,right,0.601,,331.323,2,2,332.323,0,6,6,6,1,2,2,1,2,,,,,,,,,,,,,,,,,,,,,,,,,,,,,,,,,,,,,,,,,
,,65a6c690858ba02d51bf8905,65af53c796282ee5a07620b6,2024-01-22_23h08.26.664,bars,2023.2.3,Win32,59.95203837,657b66ea316d21385b68909f,,,,,,,,,,,,,,,,,,,,,,,,,,,,,,,,,,,,,,,,,,332.324,333.707,left,1.368,,333.707,0,1,334.706,0,7,7,7,1,0,0,0,1,,,,,,,,,,,,,,,,,,,,,,,,,,,,,,,,,,,,,,,,,
,,65a6c690858ba02d51bf8905,65af53c796282ee5a07620b6,2024-01-22_23h08.26.664,bars,2023.2.3,Win32,59.95203837,657b66ea316d21385b68909f,,,,,,,,,,,,,,,,,,,,,,,,,,,,,,,,,,,,,,,,,,334.707,335.723,right,1,,335.723,0,2,336.723,0,8,8,8,1,0,2,1,0,,,,,,,,,,,,,,,,,,,,,,,,,,,,,,,,,,,,,,,,,
,,65a6c690858ba02d51bf8905,65af53c796282ee5a07620b6,2024-01-22_23h08.26.664,bars,2023.2.3,Win32,59.95203837,657b66ea316d21385b68909f,,,,,,,,,,,,,,,,,,,,,,,,,,,,,,,,,,,,,,,,,,336.724,337.923,right,1.184,,337.923,3,2,338.923,0,9,9,9,1,2,4,2,3,,,,,,,,,,,,,,,,,,,,,,,,,,,,,,,,,,,,,,,,,
,,65a6c690858ba02d51bf8905,65af53c796282ee5a07620b6,2024-01-22_23h08.26.664,bars,2023.2.3,Win32,59.95203837,657b66ea316d21385b68909f,,,,,,,,,,,,,,,,,,,,,,,,,,,,,,,,,,,,,,,,,,338.924,341.141,right,2.201,,341.142,3,2,342.14,0,10,10,10,1,0,2,0,3,,,,,,,,,,,,,,,,,,,,,,,,,,,,,,,,,,,,,,,,,
,,65a6c690858ba02d51bf8905,65af53c796282ee5a07620b6,2024-01-22_23h08.26.664,bars,2023.2.3,Win32,59.95203837,657b66ea316d21385b68909f,,,,,,,,,,,,,,,,,,,,,,,,,,,,,,,,,,,,,,,,,,342.146,342.64,right,0.485,,342.64,3,2,343.64,0,11,11,11,1,0,4,0,3,,,,,,,,,,,,,,,,,,,,,,,,,,,,,,,,,,,,,,,,,
,,65a6c690858ba02d51bf8905,65af53c796282ee5a07620b6,2024-01-22_23h08.26.664,bars,2023.2.3,Win32,59.95203837,657b66ea316d21385b68909f,,,,,,,,,,,,,,,,,,,,,,,,,,,,,,,,,,,,,,,,,,343.641,344.307,left,0.653,,344.307,1,1,345.306,0,12,12,12,1,2,6,1,6,,,,,,,,,,,,,,,,,,,,,,,,,,,,,,,,,,,,,,,,,
,,65a6c690858ba02d51bf8905,65af53c796282ee5a07620b6,2024-01-22_23h08.26.664,bars,2023.2.3,Win32,59.95203837,657b66ea316d21385b68909f,,,,,,,,,,,,,,,,,,,,,,,,,,,,,,,,,,,,,,,,,,345.307,346.107,right,0.783,,346.107,3,2,347.107,0,13,13,13,1,0,4,1,3,,,,,,,,,,,,,,,,,,,,,,,,,,,,,,,,,,,,,,,,,
,,65a6c690858ba02d51bf8905,65af53c796282ee5a07620b6,2024-01-22_23h08.26.664,bars,2023.2.3,Win32,59.95203837,657b66ea316d21385b68909f,,,,,,,,,,,,,,,,,,,,,,,,,,,,,,,,,,,,,,,,,,347.108,347.606,left,0.485,,347.606,2,1,348.607,0,14,14,14,1,2,6,2,7,,,,,,,,,,,,,,,,,,,,,,,,,,,,,,,,,,,,,,,,,
,,65a6c690858ba02d51bf8905,65af53c796282ee5a07620b6,2024-01-22_23h08.26.664,bars,2023.2.3,Win32,59.95203837,657b66ea316d21385b68909f,,,,,,,,,,,,,,,,,,,,,,,,,,,,,,,,,,,,,,,,,,348.607,349.407,left,0.784,,349.407,3,1,350.407,0,15,15,15,1,4,8,3,9,,,,,,,,,,,,,,,,,,,,,,,,,,,,,,,,,,,,,,,,,
,,65a6c690858ba02d51bf8905,65af53c796282ee5a07620b6,2024-01-22_23h08.26.664,bars,2023.2.3,Win32,59.95203837,657b66ea316d21385b68909f,,,,,,,,,,,,,,,,,,,,,,,,,,,,,,,,,,,,,,,,,,350.407,351.106,right,0.689,,351.107,7,2,352.107,0,16,16,16,1,6,6,7,7,,,,,,,,,,,,,,,,,,,,,,,,,,,,,,,,,,,,,,,,,
,,65a6c690858ba02d51bf8905,65af53c796282ee5a07620b6,2024-01-22_23h08.26.664,bars,2023.2.3,Win32,59.95203837,657b66ea316d21385b68909f,,,,,,,,,,,,,,,,,,,,,,,,,,,,,,,,,,,,,,,,,,352.108,352.474,right,0.351,,352.474,5,2,353.473,0,17,17,17,1,8,4,9,5,,,,,,,,,,,,,,,,,,,,,,,,,,,,,,,,,,,,,,,,,
,,65a6c690858ba02d51bf8905,65af53c796282ee5a07620b6,2024-01-22_23h08.26.664,bars,2023.2.3,Win32,59.95203837,657b66ea316d21385b68909f,,,,,,,,,,,,,,,,,,,,,,,,,,,,,,,,,,,,,,,,,,353.473,353.873,right,0.382,,353.873,1,2,354.873,0,18,18,18,1,6,2,5,1,,,,,,,,,,,,,,,,,,,,,,,,,,,,,,,,,,,,,,,,,
,,65a6c690858ba02d51bf8905,65af53c796282ee5a07620b6,2024-01-22_23h08.26.664,bars,2023.2.3,Win32,59.95203837,657b66ea316d21385b68909f,,,,,,,,,,,,,,,,,,,,,,,,,,,,,,,,,,,,,,,,,,354.874,355.389,left,0.5,,355.389,7,1,356.39,0,19,19,19,1,8,0,7,0,,,,,,,,,,,,,,,,,,,,,,,,,,,,,,,,,,,,,,,,,
,,65a6c690858ba02d51bf8905,65af53c796282ee5a07620b6,2024-01-22_23h08.26.664,bars,2023.2.3,Win32,59.95203837,657b66ea316d21385b68909f,,,,,,,,,,,,,,,,,,,,,,,,,,,,,,,,,,,,,,,,,,,,,,,,,,,,,,,,,,,,356.39,418.057,space,61.643,,,,,,,,,,,,,,,,,,,,,,,,,,,,,,,,,,,,,
,,65a6c690858ba02d51bf8905,65af53c796282ee5a07620b6,2024-01-22_23h08.26.664,bars,2023.2.3,Win32,59.95203837,657b66ea316d21385b68909f,,,,,,,,,,,420.666,421.657,,,422.156,422.406,,64,64,,,,,,,,,,,,,,,,bars/029.png,bars/mask002.png,,,,,,,,,,,,1,2,,,,,,,2,3,5,3,,,,,,418.065,420.656,space,2.575,,421.657,422.156,422.407,428.407,space,5.975,,428.407,26,19,429.406,429.406,438.941,space,9.5,,0,0,0,0,1,90,45,,,,,,,,
,,65a6c690858ba02d51bf8905,65af53c796282ee5a07620b6,2024-01-22_23h08.26.664,bars,2023.2.3,Win32,59.95203837,657b66ea316d21385b68909f,,,,,,,,,,,438.945,439.94,,,440.44,440.689,,19,19,,,,,,,,,,,,,,,,bars/023.png,bars/mask009.png,,,,,,,,,,,,3,1,,,,,,,4,1,3,1,,,,,,,,,,,439.94,440.44,440.689,445.79,space,5.083,,445.79,1,84,446.789,446.789,454.756,space,7.941,,0,1,1,1,1,20,115,,,,,,,,
,,65a6c690858ba02d51bf8905,65af53c796282ee5a07620b6,2024-01-22_23h08.26.664,bars,2023.2.3,Win32,59.95203837,657b66ea316d21385b68909f,,,,,,,,,,,454.758,455.756,,,456.257,456.507,,116,116,,,,,,,,,,,,,,,,bars/031.png,bars/mask008.png,,,,,,,,,,,,4,1,,,,,,,6,0,5,0,,,,,,,,,,,455.756,456.256,456.507,462.023,space,5.502,,462.023,4,81,463.023,463.023,470.841,space,7.797,,0,2,2,2,1,120,35,,,,,,,,
,,65a6c690858ba02d51bf8905,65af53c796282ee5a07620b6,2024-01-22_23h08.26.664,bars,2023.2.3,Win32,59.95203837,657b66ea316d21385b68909f,,,,,,,,,,,470.845,471.84,,,472.34,472.59,,18,18,,,,,,,,,,,,,,,,bars/028.png,bars/mask008.png,,,,,,,,,,,,0,1,,,,,,,4,2,4,2,,,,,,,,,,,471.84,472.34,472.59,474.857,space,2.25,,474.857,27,78,475.857,475.857,481.063,space,5.193,,0,3,3,3,1,45,120,,,,,,,,
,,65a6c690858ba02d51bf8905,65af53c796282ee5a07620b6,2024-01-22_23h08.26.664,bars,2023.2.3,Win32,59.95203837,657b66ea316d21385b68909f,,,,,,,,,,,481.063,482.057,,,482.556,482.806,,125,125,,,,,,,,,,,,,,,,bars/009.png,bars/mask005.png,,,,,,,,,,,,1,2,,,,,,,6,4,6,4,,,,,,,,,,,482.057,482.556,482.806,486.69,space,3.868,,486.69,70,20,487.69,487.69,494.007,space,6.292,,0,4,4,4,1,15,105,,,,,,,,
,,65a6c690858ba02d51bf8905,65af53c796282ee5a07620b6,2024-01-22_23h08.26.664,bars,2023.2.3,Win32,59.95203837,657b66ea316d21385b68909f,,,,,,,,,,,494.008,495.006,,,495.506,495.757,,141,141,,,,,,,,,,,,,,,,bars/014.png,bars/mask001.png,,,,,,,,,,,,0,2,,,,,,,4,2,3,2,,,,,,,,,,,495.006,495.506,495.758,497.807,space,2.034,,497.807,61,39,498.806,498.807,504.124,space,5.297,,0,5,5,5,1,80,0,,,,,,,,
,,65a6c690858ba02d51bf8905,65af53c796282ee5a07620b6,2024-01-22_23h08.26.664,bars,2023.2.3,Win32,59.95203837,657b66ea316d21385b68909f,,,,,,,,,,,504.126,505.123,,,505.624,505.873,,96,96,,,,,,,,,,,,,,,,bars/007.png,bars/mask004.png,,,,,,,,,,,,0,2,,,,,,,2,4,2,5,,,,,,,,,,,505.123,505.624,505.873,508.957,space,3.068,,508.957,79,41,509.956,509.956,514.623,space,4.648,,0,6,6,6,1,175,55,,,,,,,,
,,65a6c690858ba02d51bf8905,65af53c796282ee5a07620b6,2024-01-22_23h08.26.664,bars,2023.2.3,Win32,59.95203837,657b66ea316d21385b68909f,,,,,,,,,,,514.625,515.623,,,516.123,516.373,,80,80,,,,,,,,,,,,,,,,bars/034.png,bars/mask002.png,,,,,,,,,,,,1,2,,,,,,,4,2,5,2,,,,,,,,,,,515.623,516.122,516.374,518.406,space,2.023,,518.406,45,15,519.406,519.406,523.256,space,3.834,,0,7,7,7,1,125,65,,,,,,,,
,,65a6c690858ba02d51bf8905,65af53c796282ee5a07620b6,2024-01-22_23h08.26.664,bars,2023.2.3,Win32,59.95203837,657b66ea316d21385b68909f,,,,,,,,,,,523.257,524.256,,,524.757,525.006,,139,139,,,,,,,,,,,,,,,,bars/004.png,bars/mask004.png,,,,,,,,,,,,3,2,,,,,,,2,4,2,6,,,,,,,,,,,524.256,524.757,525.006,527.456,space,2.439,,527.457,66,14,528.458,528.458,530.407,space,1.93,,0,8,8,8,1,25,125,,,,,,,,
,,65a6c690858ba02d51bf8905,65af53c796282ee5a07620b6,2024-01-22_23h08.26.664,bars,2023.2.3,Win32,59.95203837,657b66ea316d21385b68909f,,,,,,,,,,,530.41,531.407,,,531.906,532.156,,173,173,,,,,,,,,,,,,,,,bars/040.png,bars/mask005.png,,,,,,,,,,,,1,2,,,,,,,0,2,0,2,,,,,,,,,,,531.407,531.906,532.156,534.023,space,1.851,,534.023,33,12,535.023,535.023,538.506,space,3.466,,0,9,9,9,1,140,5,,,,,,,,
,,65a6c690858ba02d51bf8905,65af53c796282ee5a07620b6,2024-01-22_23h08.26.664,bars,2023.2.3,Win32,59.95203837,657b66ea316d21385b68909f,,,,,,,,,,,538.507,539.506,,,540.006,540.256,,150,150,,,,,,,,,,,,,,,,bars/001.png,bars/mask004.png,,,,,,,,,,,,0,1,,,,,,,0,4,0,5,,,,,,,,,,,539.506,540.006,540.256,541.773,space,1.505,,541.773,20,65,542.773,542.773,549.973,space,7.181,,0,10,10,10,1,130,85,,,,,,,,
,,65a6c690858ba02d51bf8905,65af53c796282ee5a07620b6,2024-01-22_23h08.26.664,bars,2023.2.3,Win32,59.95203837,657b66ea316d21385b68909f,,,,,,,,,,,549.974,550.972,,,551.473,551.723,,82,82,,,,,,,,,,,,,,,,bars/002.png,bars/mask008.png,,,,,,,,,,,,0,2,,,,,,,2,2,1,0,,,,,,,,,,,550.972,551.473,551.723,553.24,space,1.501,,553.24,48,3,554.24,554.24,558.573,space,4.316,,0,11,11,11,1,130,85,,,,,,,,
,,65a6c690858ba02d51bf8905,65af53c796282ee5a07620b6,2024-01-22_23h08.26.664,bars,2023.2.3,Win32,59.95203837,657b66ea316d21385b68909f,,,,,,,,,,,558.574,559.574,,,560.078,560.322,,140,140,,,,,,,,,,,,,,,,bars/037.png,bars/mask005.png,,,,,,,,,,,,3,1,,,,,,,4,4,5,5,,,,,,,,,,,559.575,560.077,560.323,564.907,space,4.567,,564.907,10,35,565.906,565.906,569.906,space,3.971,,0,12,12,12,1,150,105,,,,,,,,
,,65a6c690858ba02d51bf8905,65af53c796282ee5a07620b6,2024-01-22_23h08.26.664,bars,2023.2.3,Win32,59.95203837,657b66ea316d21385b68909f,,,,,,,,,,,569.907,570.906,,,571.406,571.657,,3,3,,,,,,,,,,,,,,,,bars/039.png,bars/mask004.png,,,,,,,,,,,,0,1,,,,,,,2,2,0,3,,,,,,,,,,,570.906,571.406,571.657,573.115,space,1.449,,573.115,8,78,574.106,574.106,577.589,space,3.462,,0,13,13,13,1,175,105,,,,,,,,
,,65a6c690858ba02d51bf8905,65af53c796282ee5a07620b6,2024-01-22_23h08.26.664,bars,2023.2.3,Win32,59.95203837,657b66ea316d21385b68909f,,,,,,,,,,,577.591,578.59,,,579.089,579.339,,178,178,,,,,,,,,,,,,,,,bars/039.png,bars/mask006.png,,,,,,,,,,,,5,1,,,,,,,4,4,5,4,,,,,,,,,,,578.59,579.089,579.339,581.14,space,1.784,,581.14,3,73,582.14,582.14,583.59,space,1.433,,0,14,14,14,1,175,105,,,,,,,,
,,65a6c690858ba02d51bf8905,65af53c796282ee5a07620b6,2024-01-22_23h08.26.664,bars,2023.2.3,Win32,59.95203837,657b66ea316d21385b68909f,,,,,,,,,,,583.591,584.589,,,585.09,585.34,,90,90,,,,,,,,,,,,,,,,bars/022.png,bars/mask002.png,,,,,,,,,,,,1,1,,,,,,,2,6,1,7,,,,,,,,,,,584.589,585.09,585.34,589.823,space,4.468,,589.823,5,70,590.823,590.823,592.573,space,1.73,,0,15,15,15,1,95,20,,,,,,,,
,,65a6c690858ba02d51bf8905,65af53c796282ee5a07620b6,2024-01-22_23h08.26.664,bars,2023.2.3,Win32,59.95203837,657b66ea316d21385b68909f,,,,,,,,,,,592.574,593.574,,,594.073,594.323,,172,172,,,,,,,,,,,,,,,,bars/000.png,bars/mask006.png,,,,,,,,,,,,0,2,,,,,,,4,4,2,5,,,,,,,,,,,593.575,594.073,594.323,596.273,space,1.935,,596.273,48,27,597.273,597.273,599.157,space,1.857,,0,16,16,16,1,40,145,,,,,,,,
,,65a6c690858ba02d51bf8905,65af53c796282ee5a07620b6,2024-01-22_23h08.26.664,bars,2023.2.3,Win32,59.95203837,657b66ea316d21385b68909f,,,,,,,,,,,599.159,600.157,,,600.656,600.906,,113,113,,,,,,,,,,,,,,,,bars/032.png,bars/mask005.png,,,,,,,,,,,,3,1,,,,,,,6,2,5,2,,,,,,,,,,,600.157,600.656,600.906,603.272,space,2.359,,603.273,12,87,604.272,604.273,606.157,space,1.86,,0,17,17,17,1,125,20,,,,,,,,
,,65a6c690858ba02d51bf8905,65af53c796282ee5a07620b6,2024-01-22_23h08.26.664,bars,2023.2.3,Win32,59.95203837,657b66ea316d21385b68909f,,,,,,,,,,,606.158,607.156,,,607.657,607.906,,39,39,,,,,,,,,,,,,,,,bars/012.png,bars/mask009.png,,,,,,,,,,,,1,2,,,,,,,8,4,7,3,,,,,,,,,,,607.156,607.657,607.907,609.706,space,1.782,,609.707,51,24,610.706,610.706,612.022,space,1.297,,0,18,18,18,1,90,15,,,,,,,,
,,65a6c690858ba02d51bf8905,65af53c796282ee5a07620b6,2024-01-22_23h08.26.664,bars,2023.2.3,Win32,59.95203837,657b66ea316d21385b68909f,,,,,,,,,,,612.023,613.023,,,613.523,613.772,,100,100,,,,,,,,,,,,,,,,bars/027.png,bars/mask003.png,,,,,,,,,,,,3,1,,,,,,,6,2,5,3,,,,,,,,,,,613.023,613.523,613.773,615.29,space,1.501,,615.29,10,50,616.289,616.289,619.339,space,3.026,,0,19,19,19,1,110,50,,,,,,,,
,,65a6c690858ba02d51bf8905,65af53c796282ee5a07620b6,2024-01-22_23h08.26.664,bars,2023.2.3,Win32,59.95203837,657b66ea316d21385b68909f,,,,,,,,,,,619.341,620.34,,,620.84,621.089,,122,122,,,,,,,,,,,,,,,,bars/039.png,bars/mask004.png,,,,,,,,,,,,1,2,,,,,,,8,4,8,2,,,,,,,,,,,620.34,620.84,621.089,622.423,space,1.316,,622.423,53,17,623.423,623.423,624.858,space,1.415,,0,20,20,20,1,175,105,,,,,,,,
,,65a6c690858ba02d51bf8905,65af53c796282ee5a07620b6,2024-01-22_23h08.26.664,bars,2023.2.3,Win32,59.95203837,657b66ea316d21385b68909f,,,,,,,,,,,624.865,625.857,,,626.356,626.606,,36,36,,,,,,,,,,,,,,,,bars/008.png,bars/mask005.png,,,,,,,,,,,,0,2,,,,,,,6,6,5,6,,,,,,,,,,,625.857,626.356,626.606,628.006,space,1.386,,628.007,74,36,629.006,629.006,630.706,space,1.681,,0,21,21,21,1,110,0,,,,,,,,
,,65a6c690858ba02d51bf8905,65af53c796282ee5a07620b6,2024-01-22_23h08.26.664,bars,2023.2.3,Win32,59.95203837,657b66ea316d21385b68909f,,,,,,,,,,,630.707,631.706,,,632.206,632.456,,61,61,,,,,,,,,,,,,,,,bars/000.png,bars/mask001.png,,,,,,,,,,,,3,1,,,,,,,8,4,9,4,,,,,,,,,,,631.706,632.206,632.456,633.506,space,1.039,,633.507,21,84,634.506,634.506,635.589,space,1.055,,0,22,22,22,1,40,145,,,,,,,,
,,65a6c690858ba02d51bf8905,65af53c796282ee5a07620b6,2024-01-22_23h08.26.664,bars,2023.2.3,Win32,59.95203837,657b66ea316d21385b68909f,,,,,,,,,,,635.59,636.589,,,637.089,637.339,,91,91,,,,,,,,,,,,,,,,bars/028.png,bars/mask002.png,,,,,,,,,,,,0,2,,,,,,,10,2,10,2,,,,,,,,,,,636.589,637.089,637.339,638.707,space,1.353,,638.707,46,29,639.707,639.707,640.906,space,1.177,,0,23,23,23,1,45,120,,,,,,,,
,,65a6c690858ba02d51bf8905,65af53c796282ee5a07620b6,2024-01-22_23h08.26.664,bars,2023.2.3,Win32,59.95203837,657b66ea316d21385b68909f,,,,,,,,,,,640.907,641.906,,,642.406,642.656,,89,89,,,,,,,,,,,,,,,,bars/020.png,bars/mask009.png,,,,,,,,,,,,1,1,,,,,,,10,4,10,6,,,,,,,,,,,641.906,642.406,642.656,643.823,space,1.151,,643.823,26,81,644.823,644.823,645.906,space,1.064,,0,24,24,24,1,115,170,,,,,,,,
,,65a6c690858ba02d51bf8905,65af53c796282ee5a07620b6,2024-01-22_23h08.26.664,bars,2023.2.3,Win32,59.95203837,657b66ea316d21385b68909f,,,,,,,,,,,645.906,646.906,,,647.406,647.656,,178,178,,,,,,,,,,,,,,,,bars/007.png,bars/mask009.png,,,,,,,,,,,,8,1,,,,,,,10,6,9,7,,,,,,,,,,,646.906,647.406,647.656,649.656,space,1.987,,649.656,3,57,650.657,650.657,652.339,space,1.665,,0,25,25,25,1,175,55,,,,,,,,
,,65a6c690858ba02d51bf8905,65af53c796282ee5a07620b6,2024-01-22_23h08.26.664,bars,2023.2.3,Win32,59.95203837,657b66ea316d21385b68909f,,,,,,,,,,,652.34,653.339,,,653.84,654.089,,5,5,,,,,,,,,,,,,,,,bars/035.png,bars/mask005.png,,,,,,,,,,,,7,1,,,,,,,10,8,10,8,,,,,,,,,,,653.34,653.84,654.09,656.023,space,1.915,,656.024,10,55,657.023,657.024,658.873,space,1.829,,0,26,26,26,1,175,60,,,,,,,,
,,65a6c690858ba02d51bf8905,65af53c796282ee5a07620b6,2024-01-22_23h08.26.664,bars,2023.2.3,Win32,59.95203837,657b66ea316d21385b68909f,,,,,,,,,,,658.875,659.872,,,660.373,660.623,,107,107,,,,,,,,,,,,,,,,bars/037.png,bars/mask008.png,,,,,,,,,,,,9,2,,,,,,,10,10,10,10,,,,,,,,,,,659.873,660.373,660.623,662.956,space,2.317,,662.956,43,2,663.956,663.956,665.406,space,1.428,,0,27,27,27,1,150,105,,,,,,,,
,,65a6c690858ba02d51bf8905,65af53c796282ee5a07620b6,2024-01-22_23h08.26.664,bars,2023.2.3,Win32,59.95203837,657b66ea316d21385b68909f,,,,,,,,,,,665.407,666.406,,,666.907,667.156,,148,148,,,,,,,,,,,,,,,,bars/027.png,bars/mask009.png,,,,,,,,,,,,0,1,,,,,,,10,8,10,8,,,,,,,,,,,666.406,666.906,667.156,668.69,space,1.517,,668.69,38,82,669.689,669.69,670.84,space,1.124,,0,28,28,28,1,110,50,,,,,,,,
,,65a6c690858ba02d51bf8905,65af53c796282ee5a07620b6,2024-01-22_23h08.26.664,bars,2023.2.3,Win32,59.95203837,657b66ea316d21385b68909f,,,,,,,,,,,670.841,671.84,,,672.339,672.589,,102,102,,,,,,,,,,,,,,,,bars/034.png,bars/mask000.png,,,,,,,,,,,,2,1,,,,,,,8,10,8,10,,,,,,,,,,,671.84,672.339,672.59,674.389,space,1.785,,674.389,23,37,675.39,675.39,676.289,space,0.881,,0,29,29,29,1,125,65,,,,,,,,
,,65a6c690858ba02d51bf8905,65af53c796282ee5a07620b6,2024-01-22_23h08.26.664,bars,2023.2.3,Win32,59.95203837,657b66ea316d21385b68909f,,,,,,,,,,,676.29,677.289,,,677.789,678.04,,128,128,,,,,,,,,,,,,,,,bars/025.png,bars/mask007.png,,,,,,,,,,,,2,1,,,,,,,6,10,7,10,,,,,,,,,,,677.289,677.789,678.04,679.623,space,1.573,,679.623,23,88,680.622,680.623,682.44,space,1.797,,0,30,30,30,1,105,40,,,,,,,,
,,65a6c690858ba02d51bf8905,65af53c796282ee5a07620b6,2024-01-22_23h08.26.664,bars,2023.2.3,Win32,59.95203837,657b66ea316d21385b68909f,,,,,,,,,,,682.44,683.44,,,683.939,684.189,,139,139,,,,,,,,,,,,,,,,bars/011.png,bars/mask009.png,,,,,,,,,,,,1,1,,,,,,,4,10,3,10,,,,,,,,,,,683.44,683.939,684.189,685.356,space,1.152,,685.356,21,54,686.357,686.357,687.44,space,1.062,,0,31,31,31,1,160,85,,,,,,,,
,,65a6c690858ba02d51bf8905,65af53c796282ee5a07620b6,2024-01-22_23h08.26.664,bars,2023.2.3,Win32,59.95203837,657b66ea316d21385b68909f,,,,,,,,,,,687.443,688.439,,,688.94,689.19,,28,28,,,,,,,,,,,,,,,,bars/004.png,bars/mask006.png,,,,,,,,,,,,6,1,,,,,,,6,10,7,10,,,,,,,,,,,688.439,688.94,689.19,690.389,space,1.185,,690.389,3,83,691.389,691.39,692.456,space,1.047,,0,32,32,32,1,25,125,,,,,,,,
,,65a6c690858ba02d51bf8905,65af53c796282ee5a07620b6,2024-01-22_23h08.26.664,bars,2023.2.3,Win32,59.95203837,657b66ea316d21385b68909f,,,,,,,,,,,692.458,693.456,,,693.956,694.206,,123,123,,,,,,,,,,,,,,,,bars/039.png,bars/mask003.png,,,,,,,,,,,,4,2,,,,,,,4,10,3,9,,,,,,,,,,,693.456,693.956,694.206,696.473,space,2.252,,696.473,52,18,697.472,697.473,698.81,space,1.307,,0,33,33,33,1,175,105,,,,,,,,
,,65a6c690858ba02d51bf8905,65af53c796282ee5a07620b6,2024-01-22_23h08.26.664,bars,2023.2.3,Win32,59.95203837,657b66ea316d21385b68909f,,,,,,,,,,,698.811,699.806,,,700.307,700.556,,156,156,,,,,,,,,,,,,,,,bars/036.png,bars/mask000.png,,,,,,,,,,,,5,1,,,,,,,6,8,8,8,,,,,,,,,,,699.806,700.306,700.556,702.374,space,1.801,,702.374,11,44,703.373,703.373,704.323,space,0.926,,0,34,34,34,1,145,20,,,,,,,,
,,65a6c690858ba02d51bf8905,65af53c796282ee5a07620b6,2024-01-22_23h08.26.664,bars,2023.2.3,Win32,59.95203837,657b66ea316d21385b68909f,,,,,,,,,,,704.325,705.322,,,705.823,706.073,,88,88,,,,,,,,,,,,,,,,bars/026.png,bars/mask004.png,,,,,,,,,,,,5,2,,,,,,,4,6,4,6,,,,,,,,,,,705.323,705.823,706.073,707.84,space,1.75,,707.84,53,3,708.84,708.84,710.057,space,1.196,,0,35,35,35,1,35,85,,,,,,,,
,,65a6c690858ba02d51bf8905,65af53c796282ee5a07620b6,2024-01-22_23h08.26.664,bars,2023.2.3,Win32,59.95203837,657b66ea316d21385b68909f,,,,,,,,,,,710.057,711.056,,,711.556,711.806,,39,39,,,,,,,,,,,,,,,,bars/003.png,bars/mask003.png,,,,,,,,,,,,1,1,,,,,,,2,4,1,4,,,,,,,,,,,711.056,711.556,711.806,713.39,space,1.573,,713.39,14,79,714.39,714.39,715.856,space,1.444,,0,36,36,36,1,25,140,,,,,,,,
,,65a6c690858ba02d51bf8905,65af53c796282ee5a07620b6,2024-01-22_23h08.26.664,bars,2023.2.3,Win32,59.95203837,657b66ea316d21385b68909f,,,,,,,,,,,715.857,716.856,,,717.356,717.606,,96,96,,,,,,,,,,,,,,,,bars/041.png,bars/mask003.png,,,,,,,,,,,,0,2,,,,,,,0,2,1,0,,,,,,,,,,,716.857,717.356,717.606,719.157,space,1.535,,719.157,76,11,720.156,720.156,721.056,space,0.877,,0,37,37,37,1,20,85,,,,,,,,
,,65a6c690858ba02d51bf8905,65af53c796282ee5a07620b6,2024-01-22_23h08.26.664,bars,2023.2.3,Win32,59.95203837,657b66ea316d21385b68909f,,,,,,,,,,,721.057,722.056,,,722.556,722.807,,97,97,,,,,,,,,,,,,,,,bars/041.png,bars/mask005.png,,,,,,,,,,,,1,2,,,,,,,2,0,2,1,,,,,,,,,,,722.056,722.556,722.807,724.14,space,1.317,,724.14,77,12,725.139,725.139,726.09,space,0.933,,0,38,38,38,1,20,85,,,,,,,,
,,65a6c690858ba02d51bf8905,65af53c796282ee5a07620b6,2024-01-22_23h08.26.664,bars,2023.2.3,Win32,59.95203837,657b66ea316d21385b68909f,,,,,,,,,,,726.091,727.089,,,727.59,727.839,,42,42,,,,,,,,,,,,,,,,bars/032.png,bars/mask007.png,,,,,,,,,,,,1,2,,,,,,,4,2,5,2,,,,,,,,,,,727.089,727.59,727.839,728.94,space,1.085,,728.94,83,22,729.939,729.939,731.023,space,1.069,,0,39,39,39,1,125,20,,,,,,,,
,,65a6c690858ba02d51bf8905,65af53c796282ee5a07620b6,2024-01-22_23h08.26.664,bars,2023.2.3,Win32,59.95203837,657b66ea316d21385b68909f,,,,,,,,,,,731.024,732.022,,,732.523,732.773,,117,117,,,,,,,,,,,,,,,,bars/001.png,bars/mask000.png,,,,,,,,,,,,4,1,,,,,,,6,0,7,1,,,,,,,,,,,732.023,732.523,732.773,735.173,space,2.383,,735.173,13,32,736.173,736.173,737.289,space,1.091,,0,40,40,40,1,130,85,,,,,,,,
,,65a6c690858ba02d51bf8905,65af53c796282ee5a07620b6,2024-01-22_23h08.26.664,bars,2023.2.3,Win32,59.95203837,657b66ea316d21385b68909f,,,,,,,,,,,737.29,738.289,,,738.789,739.039,,66,66,,,,,,,,,,,,,,,,bars/020.png,bars/mask007.png,,,,,,,,,,,,0,1,,,,,,,4,2,4,2,,,,,,,,,,,738.289,738.789,739.039,740.573,space,1.52,,740.573,49,76,741.573,741.573,742.489,space,0.897,,0,41,41,41,1,115,170,,,,,,,,
,,65a6c690858ba02d51bf8905,65af53c796282ee5a07620b6,2024-01-22_23h08.26.664,bars,2023.2.3,Win32,59.95203837,657b66ea316d21385b68909f,,,,,,,,,,,742.49,743.49,,,743.989,744.24,,9,9,,,,,,,,,,,,,,,,bars/028.png,bars/mask003.png,,,,,,,,,,,,0,1,,,,,,,2,4,1,3,,,,,,,,,,,743.49,743.989,744.24,745.79,space,1.535,,745.79,36,69,746.789,746.789,747.49,space,0.686,,0,42,42,42,1,45,120,,,,,,,,
,,65a6c690858ba02d51bf8905,65af53c796282ee5a07620b6,2024-01-22_23h08.26.664,bars,2023.2.3,Win32,59.95203837,657b66ea316d21385b68909f,,,,,,,,,,,747.49,748.489,,,748.99,749.239,,97,97,,,,,,,,,,,,,,,,bars/049.png,bars/mask000.png,,,,,,,,,,,,0,2,,,,,,,0,2,1,1,,,,,,,,,,,748.489,748.99,749.239,750.623,space,1.37,,750.624,63,18,751.622,751.622,752.323,space,0.669,,0,43,43,43,1,160,115,,,,,,,,
,,65a6c690858ba02d51bf8905,65af53c796282ee5a07620b6,2024-01-22_23h08.26.664,bars,2023.2.3,Win32,59.95203837,657b66ea316d21385b68909f,,,,,,,,,,,752.325,753.323,,,753.823,754.073,,72,72,,,,,,,,,,,,,,,,bars/015.png,bars/mask000.png,,,,,,,,,,,,0,1,,,,,,,0,4,0,4,,,,,,,,,,,753.323,753.823,754.073,756.389,space,2.299,,756.39,38,88,757.39,757.39,758.172,space,0.758,,0,44,44,44,1,110,160,,,,,,,,
,,65a6c690858ba02d51bf8905,65af53c796282ee5a07620b6,2024-01-22_23h08.26.664,bars,2023.2.3,Win32,59.95203837,657b66ea316d21385b68909f,,,,,,,,,,,758.173,759.173,,,759.673,759.923,,82,82,,,,,,,,,,,,,,,,bars/014.png,bars/mask006.png,,,,,,,,,,,,0,1,,,,,,,0,6,0,9,,,,,,,,,,,759.173,759.673,759.923,764.173,space,4.233,,764.173,2,82,765.173,765.173,772.558,space,7.372,,0,45,45,45,1,80,0,,,,,,,,
,,65a6c690858ba02d51bf8905,65af53c796282ee5a07620b6,2024-01-22_23h08.26.664,bars,2023.2.3,Win32,59.95203837,657b66ea316d21385b68909f,,,,,,,,,,,772.56,773.556,,,774.056,774.306,,158,158,,,,,,,,,,,,,,,,bars/024.png,bars/mask004.png,,,,,,,,,,,,2,2,,,,,,,2,4,2,3,,,,,,,,,,,773.556,774.056,774.306,776.706,space,2.384,,776.706,38,12,777.706,777.706,778.622,space,0.894,,0,46,46,46,1,120,170,,,,,,,,
,,65a6c690858ba02d51bf8905,65af53c796282ee5a07620b6,2024-01-22_23h08.26.664,bars,2023.2.3,Win32,59.95203837,657b66ea316d21385b68909f,,,,,,,,,,,778.623,779.622,,,780.122,780.372,,41,41,,,,,,,,,,,,,,,,bars/047.png,bars/mask002.png,,,,,,,,,,,,0,1,,,,,,,0,2,1,2,,,,,,,,,,,779.622,780.122,780.372,783.041,space,2.651,,783.041,26,29,784.04,784.04,784.589,space,0.519,,0,47,47,47,1,15,70,,,,,,,,
,,65a6c690858ba02d51bf8905,65af53c796282ee5a07620b6,2024-01-22_23h08.26.664,bars,2023.2.3,Win32,59.95203837,657b66ea316d21385b68909f,,,,,,,,,,,784.591,785.589,,,786.089,786.339,,63,63,,,,,,,,,,,,,,,,bars/000.png,bars/mask006.png,,,,,,,,,,,,0,1,,,,,,,0,4,2,5,,,,,,,,,,,785.589,786.089,786.339,787.49,space,1.134,,787.49,23,82,788.489,788.489,789.123,space,0.613,,0,48,48,48,1,40,145,,,,,,,,
,,65a6c690858ba02d51bf8905,65af53c796282ee5a07620b6,2024-01-22_23h08.26.664,bars,2023.2.3,Win32,59.95203837,657b66ea316d21385b68909f,,,,,,,,,,,789.124,790.123,,,790.623,790.873,,54,54,,,,,,,,,,,,,,,,bars/025.png,bars/mask008.png,,,,,,,,,,,,2,2,,,,,,,2,2,1,3,,,,,,,,,,,790.123,790.623,790.873,791.956,space,1.069,,791.956,51,14,792.956,792.956,793.689,space,0.709,,0,49,49,49,1,105,40,,,,,,,,
,,65a6c690858ba02d51bf8905,65af53c796282ee5a07620b6,2024-01-22_23h08.26.664,bars,2023.2.3,Win32,59.95203837,657b66ea316d21385b68909f,,,,,,,,,,,,,,,,,,,,,,,,,,,,,,,,,,,,,,,,,,,,,,,,,,,,,,,,,,,,,,,,,,,,,,,,,,,,,,,,,,,,,,,,,,,,,793.69,853.69,0,0,0,2,1,sequence_tables/blk016.csv
,,65a6c690858ba02d51bf8905,65af53c796282ee5a07620b6,2024-01-22_23h08.26.664,bars,2023.2.3,Win32,59.95203837,657b66ea316d21385b68909f,,,,,,,,,,,856.851,857.839,,,858.339,858.589,,145,145,,,,,,,,,,,,,,,,bars/002.png,bars/mask008.png,,,,,,,,,,,,2,1,,,,,,,4,1,3,0,,,,,,853.694,856.839,space,3.134,,857.839,858.339,858.589,862.906,space,4.302,,862.906,15,60,863.906,863.906,863.916,,,,0,0,0,0,1,130,85,,,,,,,,
,,65a6c690858ba02d51bf8905,65af53c796282ee5a07620b6,2024-01-22_23h08.26.664,bars,2023.2.3,Win32,59.95203837,657b66ea316d21385b68909f,,,,,,,,,,,863.917,864.906,,,865.406,865.656,,100,100,,,,,,,,,,,,,,,,bars/034.png,bars/mask002.png,,,,,,,,,,,,1,1,,,,,,,6,0,5,0,,,,,,,,,,,864.906,865.406,865.656,867.689,space,2.02,,867.69,25,35,868.689,868.689,868.692,,,,0,1,1,1,1,125,65,,,,,,,,
,,65a6c690858ba02d51bf8905,65af53c796282ee5a07620b6,2024-01-22_23h08.26.664,bars,2023.2.3,Win32,59.95203837,657b66ea316d21385b68909f,,,,,,,,,,,868.693,869.689,,,870.189,870.439,,45,45,,,,,,,,,,,,,,,,bars/007.png,bars/mask004.png,,,,,,,,,,,,2,2,,,,,,,4,0,4,3,,,,,,,,,,,869.689,870.189,870.439,872.005,space,1.551,,872.006,50,10,873.006,873.006,873.015,,,,0,2,2,2,1,175,55,,,,,,,,
,,65a6c690858ba02d51bf8905,65af53c796282ee5a07620b6,2024-01-22_23h08.26.664,bars,2023.2.3,Win32,59.95203837,657b66ea316d21385b68909f,,,,,,,,,,,873.015,874.006,,,874.506,874.756,,31,31,,,,,,,,,,,,,,,,bars/030.png,bars/mask009.png,,,,,,,,,,,,0,2,,,,,,,2,2,3,1,,,,,,,,,,,874.006,874.506,874.756,875.889,space,1.123,,875.889,71,34,876.889,876.889,876.891,,,,0,3,3,3,1,140,65,,,,,,,,
,,65a6c690858ba02d51bf8905,65af53c796282ee5a07620b6,2024-01-22_23h08.26.664,bars,2023.2.3,Win32,59.95203837,657b66ea316d21385b68909f,,,,,,,,,,,876.893,877.89,,,878.39,878.64,,71,71,,,,,,,,,,,,,,,,bars/028.png,bars/mask006.png,,,,,,,,,,,,1,1,,,,,,,4,4,4,4,,,,,,,,,,,877.89,878.389,878.64,879.973,space,1.317,,879.973,26,49,880.972,880.972,880.982,,,,0,4,4,4,1,45,120,,,,,,,,
,,65a6c690858ba02d51bf8905,65af53c796282ee5a07620b6,2024-01-22_23h08.26.664,bars,2023.2.3,Win32,59.95203837,657b66ea316d21385b68909f,,,,,,,,,,,880.982,881.973,,,882.472,882.723,,57,57,,,,,,,,,,,,,,,,bars/009.png,bars/mask004.png,,,,,,,,,,,,0,1,,,,,,,2,6,2,6,,,,,,,,,,,881.973,882.472,882.723,884.606,space,1.868,,884.606,42,48,885.606,885.606,885.612,,,,0,5,5,5,1,15,105,,,,,,,,
,,65a6c690858ba02d51bf8905,65af53c796282ee5a07620b6,2024-01-22_23h08.26.664,bars,2023.2.3,Win32,59.95203837,657b66ea316d21385b68909f,,,,,,,,,,,885.614,886.606,,,887.106,887.356,,82,82,,,,,,,,,,,,,,,,bars/009.png,bars/mask009.png,,,,,,,,,,,,1,2,,,,,,,4,4,5,4,,,,,,,,,,,886.606,887.106,887.356,888.639,space,1.273,,888.639,67,23,889.639,889.639,889.649,,,,0,6,6,6,1,15,105,,,,,,,,
,,65a6c690858ba02d51bf8905,65af53c796282ee5a07620b6,2024-01-22_23h08.26.664,bars,2023.2.3,Win32,59.95203837,657b66ea316d21385b68909f,,,,,,,,,,,889.65,890.639,,,891.14,891.389,,73,73,,,,,,,,,,,,,,,,bars/016.png,bars/mask002.png,,,,,,,,,,,,0,1,,,,,,,2,6,1,5,,,,,,,,,,,890.639,891.139,891.389,892.856,space,1.45,,892.856,33,88,893.856,893.856,893.864,,,,0,7,7,7,1,40,165,,,,,,,,
,,65a6c690858ba02d51bf8905,65af53c796282ee5a07620b6,2024-01-22_23h08.26.664,bars,2023.2.3,Win32,59.95203837,657b66ea316d21385b68909f,,,,,,,,,,,893.864,894.856,,,895.356,895.606,,166,166,,,,,,,,,,,,,,,,bars/002.png,bars/mask000.png,,,,,,,,,,,,0,1,,,,,,,0,4,0,5,,,,,,,,,,,894.856,895.356,895.606,896.806,space,1.185,,896.806,36,81,897.806,897.806,897.809,,,,0,8,8,8,1,130,85,,,,,,,,
,,65a6c690858ba02d51bf8905,65af53c796282ee5a07620b6,2024-01-22_23h08.26.664,bars,2023.2.3,Win32,59.95203837,657b66ea316d21385b68909f,,,,,,,,,,,897.811,898.805,,,899.305,899.556,,95,95,,,,,,,,,,,,,,,,bars/039.png,bars/mask009.png,,,,,,,,,,,,3,2,,,,,,,2,6,3,5,,,,,,,,,,,898.806,899.305,899.556,901.123,space,1.553,,901.123,80,10,902.122,902.122,902.131,,,,0,9,9,9,1,175,105,,,,,,,,
,,65a6c690858ba02d51bf8905,65af53c796282ee5a07620b6,2024-01-22_23h08.26.664,bars,2023.2.3,Win32,59.95203837,657b66ea316d21385b68909f,,,,,,,,,,,902.131,903.122,,,903.623,903.872,,70,70,,,,,,,,,,,,,,,,bars/016.png,bars/mask008.png,,,,,,,,,,,,0,1,,,,,,,4,8,7,8,,,,,,,,,,,903.122,903.623,903.872,905.173,space,1.291,,905.173,30,85,906.173,906.173,906.181,,,,0,10,10,10,1,40,165,,,,,,,,
,,65a6c690858ba02d51bf8905,65af53c796282ee5a07620b6,2024-01-22_23h08.26.664,bars,2023.2.3,Win32,59.95203837,657b66ea316d21385b68909f,,,,,,,,,,,906.181,907.172,,,907.673,907.922,,57,57,,,,,,,,,,,,,,,,bars/002.png,bars/mask001.png,,,,,,,,,,,,1,2,,,,,,,2,10,3,8,,,,,,,,,,,907.172,907.673,907.922,909.09,space,1.152,,909.091,73,28,910.089,910.09,910.1,,,,0,11,11,11,1,130,85,,,,,,,,
,,65a6c690858ba02d51bf8905,65af53c796282ee5a07620b6,2024-01-22_23h08.26.664,bars,2023.2.3,Win32,59.95203837,657b66ea316d21385b68909f,,,,,,,,,,,910.101,911.089,,,911.589,911.84,,2,2,,,,,,,,,,,,,,,,bars/015.png,bars/mask006.png,,,,,,,,,,,,3,2,,,,,,,0,10,2,10,,,,,,,,,,,911.089,911.589,911.84,912.923,space,1.067,,912.923,72,22,913.922,913.922,913.926,,,,0,12,12,12,1,110,160,,,,,,,,
,,65a6c690858ba02d51bf8905,65af53c796282ee5a07620b6,2024-01-22_23h08.26.664,bars,2023.2.3,Win32,59.95203837,657b66ea316d21385b68909f,,,,,,,,,,,913.928,914.923,,,915.422,915.673,,58,58,,,,,,,,,,,,,,,,bars/019.png,bars/mask002.png,,,,,,,,,,,,1,1,,,,,,,2,8,2,8,,,,,,,,,,,914.923,915.422,915.673,917.106,space,1.42,,917.106,13,47,918.106,918.106,918.116,,,,0,13,13,13,1,45,105,,,,,,,,
,,65a6c690858ba02d51bf8905,65af53c796282ee5a07620b6,2024-01-22_23h08.26.664,bars,2023.2.3,Win32,59.95203837,657b66ea316d21385b68909f,,,,,,,,,,,918.116,919.105,,,919.606,919.856,,32,32,,,,,,,,,,,,,,,,bars/020.png,bars/mask008.png,,,,,,,,,,,,0,2,,,,,,,4,6,5,5,,,,,,,,,,,919.106,919.606,919.856,920.989,space,1.119,,920.989,83,42,921.989,921.989,921.998,,,,0,14,14,14,1,115,170,,,,,,,,
,,65a6c690858ba02d51bf8905,65af53c796282ee5a07620b6,2024-01-22_23h08.26.664,bars,2023.2.3,Win32,59.95203837,657b66ea316d21385b68909f,,,,,,,,,,,921.998,922.989,,,923.49,923.739,,130,130,,,,,,,,,,,,,,,,bars/001.png,bars/mask008.png,,,,,,,,,,,,5,1,,,,,,,6,8,5,8,,,,,,,,,,,922.989,923.49,923.739,924.706,space,0.951,,924.706,0,45,925.706,925.706,925.714,,,,0,15,15,15,1,130,85,,,,,,,,
,,65a6c690858ba02d51bf8905,65af53c796282ee5a07620b6,2024-01-22_23h08.26.664,bars,2023.2.3,Win32,59.95203837,657b66ea316d21385b68909f,,,,,,,,,,,925.714,926.705,,,927.206,927.456,,115,115,,,,,,,,,,,,,,,,bars/049.png,bars/mask001.png,,,,,,,,,,,,7,2,,,,,,,8,6,8,7,,,,,,,,,,,926.705,927.206,927.456,928.273,space,0.805,,928.273,45,0,929.272,929.272,929.28,,,,0,16,16,16,1,160,115,,,,,,,,
,,65a6c690858ba02d51bf8905,65af53c796282ee5a07620b6,2024-01-22_23h08.26.664,bars,2023.2.3,Win32,59.95203837,657b66ea316d21385b68909f,,,,,,,,,,,929.28,930.272,,,930.772,931.023,,12,12,,,,,,,,,,,,,,,,bars/023.png,bars/mask002.png,,,,,,,,,,,,7,1,,,,,,,10,4,10,3,,,,,,,,,,,930.272,930.772,931.023,931.99,space,0.95,,931.99,8,77,932.989,932.989,932.997,,,,0,17,17,17,1,20,115,,,,,,,,
,,65a6c690858ba02d51bf8905,65af53c796282ee5a07620b6,2024-01-22_23h08.26.664,bars,2023.2.3,Win32,59.95203837,657b66ea316d21385b68909f,,,,,,,,,,,932.998,933.989,,,934.489,934.739,,166,166,,,,,,,,,,,,,,,,bars/044.png,bars/mask001.png,,,,,,,,,,,,1,2,,,,,,,10,2,10,2,,,,,,,,,,,933.989,934.489,934.739,935.923,space,1.171,,935.923,89,11,936.922,936.922,936.931,,,,0,18,18,18,1,75,155,,,,,,,,
,,65a6c690858ba02d51bf8905,65af53c796282ee5a07620b6,2024-01-22_23h08.26.664,bars,2023.2.3,Win32,59.95203837,657b66ea316d21385b68909f,,,,,,,,,,,936.932,937.923,,,938.422,938.672,,64,64,,,,,,,,,,,,,,,,bars/027.png,bars/mask005.png,,,,,,,,,,,,2,2,,,,,,,8,4,9,4,,,,,,,,,,,937.923,938.422,938.672,939.706,space,1.017,,939.706,46,14,940.707,940.707,940.714,,,,0,19,19,19,1,110,50,,,,,,,,
,,65a6c690858ba02d51bf8905,65af53c796282ee5a07620b6,2024-01-22_23h08.26.664,bars,2023.2.3,Win32,59.95203837,657b66ea316d21385b68909f,,,,,,,,,,,940.715,941.706,,,942.206,942.456,,163,163,,,,,,,,,,,,,,,,bars/041.png,bars/mask001.png,,,,,,,,,,,,0,1,,,,,,,10,2,10,3,,,,,,,,,,,941.707,942.206,942.456,943.456,space,0.988,,943.457,37,78,944.456,944.456,944.465,,,,0,20,20,20,1,20,85,,,,,,,,
,,65a6c690858ba02d51bf8905,65af53c796282ee5a07620b6,2024-01-22_23h08.26.664,bars,2023.2.3,Win32,59.95203837,657b66ea316d21385b68909f,,,,,,,,,,,944.466,945.456,,,945.956,946.206,,104,104,,,,,,,,,,,,,,,,bars/017.png,bars/mask001.png,,,,,,,,,,,,0,1,,,,,,,10,0,9,0,,,,,,,,,,,945.456,945.956,946.207,947.023,space,0.8,,947.023,41,59,948.022,948.022,948.028,,,,0,21,21,21,1,145,45,,,,,,,,
,,65a6c690858ba02d51bf8905,65af53c796282ee5a07620b6,2024-01-22_23h08.26.664,bars,2023.2.3,Win32,59.95203837,657b66ea316d21385b68909f,,,,,,,,,,,948.03,949.023,,,949.522,949.773,,62,62,,,,,,,,,,,,,,,,bars/043.png,bars/mask007.png,,,,,,,,,,,,0,1,,,,,,,8,0,7,0,,,,,,,,,,,949.023,949.522,949.773,950.855,space,1.067,,950.855,32,68,951.855,951.856,951.86,,,,0,22,22,22,1,30,130,,,,,,,,
,,65a6c690858ba02d51bf8905,65af53c796282ee5a07620b6,2024-01-22_23h08.26.664,bars,2023.2.3,Win32,59.95203837,657b66ea316d21385b68909f,,,,,,,,,,,951.863,952.856,,,953.356,953.605,,130,130,,,,,,,,,,,,,,,,bars/012.png,bars/mask003.png,,,,,,,,,,,,0,1,,,,,,,6,0,4,0,,,,,,,,,,,952.856,953.356,953.606,954.606,space,0.984,,954.606,40,65,955.606,955.606,955.607,,,,0,23,23,23,1,90,15,,,,,,,,
,,65a6c690858ba02d51bf8905,65af53c796282ee5a07620b6,2024-01-22_23h08.26.664,bars,2023.2.3,Win32,59.95203837,657b66ea316d21385b68909f,,,,,,,,,,,955.608,956.606,,,957.106,957.356,,10,10,,,,,,,,,,,,,,,,bars/039.png,bars/mask004.png,,,,,,,,,,,,4,1,,,,,,,8,0,8,0,,,,,,,,,,,956.606,957.106,957.356,958.173,space,0.8,,958.173,15,85,959.173,959.173,959.175,,,,0,24,24,24,1,175,105,,,,,,,,
,,65a6c690858ba02d51bf8905,65af53c796282ee5a07620b6,2024-01-22_23h08.26.664,bars,2023.2.3,Win32,59.95203837,657b66ea316d21385b68909f,,,,,,,,,,,959.177,960.172,,,960.673,960.923,,74,74,,,,,,,,,,,,,,,,bars/032.png,bars/mask007.png,,,,,,,,,,,,0,1,,,,,,,6,0,5,0,,,,,,,,,,,960.173,960.673,960.923,961.772,space,0.833,,961.772,51,54,962.773,962.773,962.774,,,,0,25,25,25,1,125,20,,,,,,,,
,,65a6c690858ba02d51bf8905,65af53c796282ee5a07620b6,2024-01-22_23h08.26.664,bars,2023.2.3,Win32,59.95203837,657b66ea316d21385b68909f,,,,,,,,,,,962.776,963.772,,,964.272,964.522,,120,120,,,,,,,,,,,,,,,,bars/008.png,bars/mask001.png,,,,,,,,,,,,5,1,,,,,,,8,2,7,4,,,,,,,,,,,963.772,964.272,964.522,965.54,space,1,,965.54,10,60,966.539,966.539,966.542,,,,0,26,26,26,1,110,0,,,,,,,,
,,65a6c690858ba02d51bf8905,65af53c796282ee5a07620b6,2024-01-22_23h08.26.664,bars,2023.2.3,Win32,59.95203837,657b66ea316d21385b68909f,,,,,,,,,,,966.543,967.538,,,968.039,968.289,,129,129,,,,,,,,,,,,,,,,bars/036.png,bars/mask002.png,,,,,,,,,,,,3,1,,,,,,,6,0,6,1,,,,,,,,,,,967.538,968.039,968.289,970.139,space,1.835,,970.14,16,71,971.139,971.14,971.149,,,,0,27,27,27,1,145,20,,,,,,,,
,,65a6c690858ba02d51bf8905,65af53c796282ee5a07620b6,2024-01-22_23h08.26.664,bars,2023.2.3,Win32,59.95203837,657b66ea316d21385b68909f,,,,,,,,,,,971.149,972.139,,,972.639,972.889,,58,58,,,,,,,,,,,,,,,,bars/012.png,bars/mask003.png,,,,,,,,,,,,0,1,,,,,,,4,2,4,3,,,,,,,,,,,972.139,972.639,972.889,973.773,space,0.867,,973.774,32,43,974.772,974.772,974.776,,,,0,28,28,28,1,90,15,,,,,,,,
,,65a6c690858ba02d51bf8905,65af53c796282ee5a07620b6,2024-01-22_23h08.26.664,bars,2023.2.3,Win32,59.95203837,657b66ea316d21385b68909f,,,,,,,,,,,974.777,975.773,,,976.273,976.523,,95,95,,,,,,,,,,,,,,,,bars/040.png,bars/mask009.png,,,,,,,,,,,,0,1,,,,,,,2,0,2,0,,,,,,,,,,,975.773,976.272,976.523,977.472,space,0.941,,977.472,45,90,978.473,978.473,978.477,,,,0,29,29,29,1,140,5,,,,,,,,
,,65a6c690858ba02d51bf8905,65af53c796282ee5a07620b6,2024-01-22_23h08.26.664,bars,2023.2.3,Win32,59.95203837,657b66ea316d21385b68909f,,,,,,,,,,,978.478,979.473,,,979.973,980.223,,14,14,,,,,,,,,,,,,,,,bars/047.png,bars/mask007.png,,,,,,,,,,,,4,1,,,,,,,4,0,4,0,,,,,,,,,,,979.473,979.973,980.223,981.189,space,0.956,,981.189,1,56,982.189,982.189,982.195,,,,0,30,30,30,1,15,70,,,,,,,,
,,65a6c690858ba02d51bf8905,65af53c796282ee5a07620b6,2024-01-22_23h08.26.664,bars,2023.2.3,Win32,59.95203837,657b66ea316d21385b68909f,,,,,,,,,,,982.195,983.189,,,983.69,983.939,,174,174,,,,,,,,,,,,,,,,bars/035.png,bars/mask005.png,,,,,,,,,,,,0,1,,,,,,,2,0,0,0,,,,,,,,,,,983.189,983.69,983.939,984.857,space,0.909,,984.858,1,66,985.856,985.856,985.858,,,,0,31,31,31,1,175,60,,,,,,,,
,,65a6c690858ba02d51bf8905,65af53c796282ee5a07620b6,2024-01-22_23h08.26.664,bars,2023.2.3,Win32,59.95203837,657b66ea316d21385b68909f,,,,,,,,,,,985.859,986.856,,,987.355,987.605,,131,131,,,,,,,,,,,,,,,,bars/026.png,bars/mask009.png,,,,,,,,,,,,0,2,,,,,,,0,0,0,0,,,,,,,,,,,986.856,987.355,987.605,988.189,space,0.568,,988.189,84,46,989.189,989.189,989.197,,,,0,32,32,32,1,35,85,,,,,,,,
,,65a6c690858ba02d51bf8905,65af53c796282ee5a07620b6,2024-01-22_23h08.26.664,bars,2023.2.3,Win32,59.95203837,657b66ea316d21385b68909f,,,,,,,,,,,989.198,990.189,,,990.689,990.938,,107,107,,,,,,,,,,,,,,,,bars/000.png,bars/mask004.png,,,,,,,,,,,,0,2,,,,,,,0,2,0,3,,,,,,,,,,,990.189,990.689,990.938,991.889,space,0.936,,991.889,67,38,992.889,992.889,992.893,,,,0,33,33,33,1,40,145,,,,,,,,
,,65a6c690858ba02d51bf8905,65af53c796282ee5a07620b6,2024-01-22_23h08.26.664,bars,2023.2.3,Win32,59.95203837,657b66ea316d21385b68909f,,,,,,,,,,,992.894,993.889,,,994.389,994.639,,137,137,,,,,,,,,,,,,,,,bars/010.png,bars/mask003.png,,,,,,,,,,,,0,1,,,,,,,2,4,0,4,,,,,,,,,,,993.889,994.389,994.639,996.839,space,2.183,,996.839,28,82,997.842,997.842,997.849,,,,0,34,34,34,1,165,55,,,,,,,,
,,65a6c690858ba02d51bf8905,65af53c796282ee5a07620b6,2024-01-22_23h08.26.664,bars,2023.2.3,Win32,59.95203837,657b66ea316d21385b68909f,,,,,,,,,,,997.85,998.839,,,999.339,999.589,,123,123,,,,,,,,,,,,,,,,bars/012.png,bars/mask003.png,,,,,,,,,,,,0,1,,,,,,,4,6,5,5,,,,,,,,,,,998.839,999.339,999.589,1001.139,space,1.537,,1001.139,33,72,1002.14,1002.14,1002.148,,,,0,35,35,35,1,90,15,,,,,,,,
,,65a6c690858ba02d51bf8905,65af53c796282ee5a07620b6,2024-01-22_23h08.26.664,bars,2023.2.3,Win32,59.95203837,657b66ea316d21385b68909f,,,,,,,,,,,1002.149,1003.139,,,1003.639,1003.889,,54,54,,,,,,,,,,,,,,,,bars/032.png,bars/mask003.png,,,,,,,,,,,,0,2,,,,,,,6,4,6,3,,,,,,,,,,,1003.139,1003.639,1003.889,1005.022,space,1.124,,1005.023,71,34,1006.022,1006.022,1006.034,,,,0,36,36,36,1,125,20,,,,,,,,
,,65a6c690858ba02d51bf8905,65af53c796282ee5a07620b6,2024-01-22_23h08.26.664,bars,2023.2.3,Win32,59.95203837,657b66ea316d21385b68909f,,,,,,,,,,,1006.035,1007.023,,,1007.522,1007.773,,115,115,,,,,,,,,,,,,,,,bars/023.png,bars/mask005.png,,,,,,,,,,,,6,2,,,,,,,4,6,4,6,,,,,,,,,,,1007.023,1007.522,1007.773,1009.056,space,1.269,,1009.056,85,0,1010.056,1010.056,1010.06,,,,0,37,37,37,1,20,115,,,,,,,,
,,65a6c690858ba02d51bf8905,65af53c796282ee5a07620b6,2024-01-22_23h08.26.664,bars,2023.2.3,Win32,59.95203837,657b66ea316d21385b68909f,,,,,,,,,,,1010.061,1011.055,,,1011.556,1011.806,,145,145,,,,,,,,,,,,,,,,bars/025.png,bars/mask002.png,,,,,,,,,,,,0,1,,,,,,,2,8,2,8,,,,,,,,,,,1011.055,1011.556,1011.806,1013.139,space,1.319,,1013.139,40,75,1014.139,1014.139,1014.149,,,,0,38,38,38,1,105,40,,,,,,,,
,,65a6c690858ba02d51bf8905,65af53c796282ee5a07620b6,2024-01-22_23h08.26.664,bars,2023.2.3,Win32,59.95203837,657b66ea316d21385b68909f,,,,,,,,,,,1014.149,1015.139,,,1015.64,1015.889,,57,57,,,,,,,,,,,,,,,,bars/049.png,bars/mask009.png,,,,,,,,,,,,0,2,,,,,,,4,10,4,10,,,,,,,,,,,1015.139,1015.639,1015.889,1016.989,space,1.085,,1016.989,77,58,1017.989,1017.989,1017.997,,,,0,39,39,39,1,160,115,,,,,,,,
,,65a6c690858ba02d51bf8905,65af53c796282ee5a07620b6,2024-01-22_23h08.26.664,bars,2023.2.3,Win32,59.95203837,657b66ea316d21385b68909f,,,,,,,,,,,1017.998,1018.989,,,1019.488,1019.739,,126,126,,,,,,,,,,,,,,,,bars/047.png,bars/mask007.png,,,,,,,,,,,,0,2,,,,,,,2,8,3,8,,,,,,,,,,,1018.989,1019.488,1019.739,1021.122,space,1.374,,1021.122,69,56,1022.122,1022.122,1022.126,,,,0,40,40,40,1,15,70,,,,,,,,
,,65a6c690858ba02d51bf8905,65af53c796282ee5a07620b6,2024-01-22_23h08.26.664,bars,2023.2.3,Win32,59.95203837,657b66ea316d21385b68909f,,,,,,,,,,,1022.13,1023.122,,,1023.622,1023.872,,137,137,,,,,,,,,,,,,,,,bars/048.png,bars/mask005.png,,,,,,,,,,,,0,2,,,,,,,4,6,4,6,,,,,,,,,,,1023.122,1023.622,1023.872,1025.022,space,1.133,,1025.023,87,38,1026.022,1026.022,1026.025,,,,0,41,41,41,1,50,175,,,,,,,,
,,65a6c690858ba02d51bf8905,65af53c796282ee5a07620b6,2024-01-22_23h08.26.664,bars,2023.2.3,Win32,59.95203837,657b66ea316d21385b68909f,,,,,,,,,,,1026.026,1027.023,,,1027.523,1027.772,,147,147,,,,,,,,,,,,,,,,bars/003.png,bars/mask008.png,,,,,,,,,,,,8,2,,,,,,,6,8,4,10,,,,,,,,,,,1027.023,1027.523,1027.772,1029.139,space,1.358,,1029.139,58,7,1030.139,1030.139,1030.142,,,,0,42,42,42,1,25,140,,,,,,,,
,,65a6c690858ba02d51bf8905,65af53c796282ee5a07620b6,2024-01-22_23h08.26.664,bars,2023.2.3,Win32,59.95203837,657b66ea316d21385b68909f,,,,,,,,,,,1030.143,1031.138,,,1031.639,1031.889,,39,39,,,,,,,,,,,,,,,,bars/037.png,bars/mask004.png,,,,,,,,,,,,0,2,,,,,,,8,10,8,10,,,,,,,,,,,1031.139,1031.639,1031.889,1033.022,space,1.118,,1033.022,69,66,1034.023,1034.023,1034.031,,,,0,43,43,43,1,150,105,,,,,,,,
,,65a6c690858ba02d51bf8905,65af53c796282ee5a07620b6,2024-01-22_23h08.26.664,bars,2023.2.3,Win32,59.95203837,657b66ea316d21385b68909f,,,,,,,,,,,1034.031,1035.022,,,1035.523,1035.773,,56,56,,,,,,,,,,,,,,,,bars/038.png,bars/mask000.png,,,,,,,,,,,,5,2,,,,,,,6,10,5,10,,,,,,,,,,,1035.022,1035.523,1035.773,1036.989,space,1.206,,1036.989,71,14,1037.989,1037.989,1037.993,,,,0,44,44,44,1,165,70,,,,,,,,
,,65a6c690858ba02d51bf8905,65af53c796282ee5a07620b6,2024-01-22_23h08.26.664,bars,2023.2.3,Win32,59.95203837,657b66ea316d21385b68909f,,,,,,,,,,,1037.995,1038.989,,,1039.489,1039.739,,155,155,,,,,,,,,,,,,,,,bars/041.png,bars/mask008.png,,,,,,,,,,,,0,1,,,,,,,4,10,4,10,,,,,,,,,,,1038.989,1039.489,1039.739,1041.322,space,1.568,,1041.323,45,70,1042.322,1042.322,1042.332,,,,0,45,45,45,1,20,85,,,,,,,,
,,65a6c690858ba02d51bf8905,65af53c796282ee5a07620b6,2024-01-22_23h08.26.664,bars,2023.2.3,Win32,59.95203837,657b66ea316d21385b68909f,,,,,,,,,,,1042.333,1043.322,,,1043.823,1044.072,,0,180,,,,,,,,,,,,,,,,bars/017.png,bars/mask001.png,,,,,,,,,,,,0,1,,,,,,,6,10,6,9,,,,,,,,,,,1043.322,1043.823,1044.072,1045.489,space,1.402,,1045.489,35,45,1046.489,1046.489,1046.493,,,,0,46,46,46,1,145,45,,,,,,,,
,,65a6c690858ba02d51bf8905,65af53c796282ee5a07620b6,2024-01-22_23h08.26.664,bars,2023.2.3,Win32,59.95203837,657b66ea316d21385b68909f,,,,,,,,,,,1046.494,1047.489,,,1047.989,1048.239,,173,173,,,,,,,,,,,,,,,,bars/004.png,bars/mask006.png,,,,,,,,,,,,0,1,,,,,,,4,8,2,8,,,,,,,,,,,1047.489,1047.989,1048.239,1049.706,space,1.453,,1049.706,32,48,1050.706,1050.706,1050.709,,,,0,47,47,47,1,25,125,,,,,,,,
,,65a6c690858ba02d51bf8905,65af53c796282ee5a07620b6,2024-01-22_23h08.26.664,bars,2023.2.3,Win32,59.95203837,657b66ea316d21385b68909f,,,,,,,,,,,1050.712,1051.705,,,1052.205,1052.455,,168,168,,,,,,,,,,,,,,,,bars/029.png,bars/mask002.png,,,,,,,,,,,,0,2,,,,,,,6,10,6,10,,,,,,,,,,,1051.706,1052.205,1052.455,1054.423,space,1.949,,1054.423,78,57,1055.422,1055.422,1055.431,,,,0,48,48,48,1,90,45,,,,,,,,
,,65a6c690858ba02d51bf8905,65af53c796282ee5a07620b6,2024-01-22_23h08.26.664,bars,2023.2.3,Win32,59.95203837,657b66ea316d21385b68909f,,,,,,,,,,,1055.431,1056.423,,,1056.922,1057.172,,31,31,,,,,,,,,,,,,,,,bars/034.png,bars/mask001.png,,,,,,,,,,,,0,2,,,,,,,4,10,6,10,,,,,,,,,,,1056.423,1056.922,1057.172,1058.456,space,1.266,,1058.456,86,34,1059.456,1059.456,1059.459,,,,0,49,49,49,1,125,65,,,,,,,,
,,65a6c690858ba02d51bf8905,65af53c796282ee5a07620b6,2024-01-22_23h08.26.664,bars,2023.2.3,Win32,59.95203837,657b66ea316d21385b68909f,,,,,,,,,,,,,,,,,,,,,,,,,,,,,,,,,,,,,,,,,,,,,,,,,,,,,,,,,,,,,,,,,,,,,,,,,,,,,,,,,,,,,,,,,,,,,1059.459,1119.456,0,1,1,1,1,sequence_tables/blk008.csv
,,65a6c690858ba02d51bf8905,65af53c796282ee5a07620b6,2024-01-22_23h08.26.664,bars,2023.2.3,Win32,59.95203837,657b66ea316d21385b68909f,,,,,,,,,,,1123.799,1124.789,,,1125.289,1125.538,,137,137,,,,,,,,,,,,,,,,bars/019.png,bars/mask002.png,,,,,,,,,,,,0,2,,,,,,,10,7,10,8,,,,,,1119.461,1123.789,space,4.316,,1124.789,1125.288,1125.539,1127.89,space,2.34,,1127.89,88,32,1128.889,1128.889,1128.898,,,,0,0,0,0,1,45,105,,,,,,,,
,,65a6c690858ba02d51bf8905,65af53c796282ee5a07620b6,2024-01-22_23h08.26.664,bars,2023.2.3,Win32,59.95203837,657b66ea316d21385b68909f,,,,,,,,,,,1128.898,1129.889,,,1130.389,1130.639,,91,91,,,,,,,,,,,,,,,,bars/039.png,bars/mask008.png,,,,,,,,,,,,3,2,,,,,,,10,5,10,6,,,,,,,,,,,1129.889,1130.389,1130.639,1132.322,space,1.673,,1132.323,84,14,1133.322,1133.323,1133.327,,,,0,1,1,1,1,175,105,,,,,,,,
,,65a6c690858ba02d51bf8905,65af53c796282ee5a07620b6,2024-01-22_23h08.26.664,bars,2023.2.3,Win32,59.95203837,657b66ea316d21385b68909f,,,,,,,,,,,1133.33,1134.322,,,1134.822,1135.072,,128,128,,,,,,,,,,,,,,,,bars/009.png,bars/mask009.png,,,,,,,,,,,,1,2,,,,,,,10,3,9,3,,,,,,,,,,,1134.322,1134.822,1135.073,1136.039,space,0.949,,1136.039,67,23,1137.039,1137.039,1137.043,,,,0,2,2,2,1,15,105,,,,,,,,
,,65a6c690858ba02d51bf8905,65af53c796282ee5a07620b6,2024-01-22_23h08.26.664,bars,2023.2.3,Win32,59.95203837,657b66ea316d21385b68909f,,,,,,,,,,,1137.044,1138.039,,,1138.539,1138.788,,48,48,,,,,,,,,,,,,,,,bars/034.png,bars/mask009.png,,,,,,,,,,,,0,2,,,,,,,8,1,6,0,,,,,,,,,,,1138.039,1138.539,1138.789,1139.722,space,0.917,,1139.722,77,17,1140.722,1140.722,1140.725,,,,0,3,3,3,1,125,65,,,,,,,,
,,65a6c690858ba02d51bf8905,65af53c796282ee5a07620b6,2024-01-22_23h08.26.664,bars,2023.2.3,Win32,59.95203837,657b66ea316d21385b68909f,,,,,,,,,,,1140.726,1141.722,,,1142.223,1142.473,,94,94,,,,,,,,,,,,,,,,bars/013.png,bars/mask005.png,,,,,,,,,,,,4,1,,,,,,,10,0,10,1,,,,,,,,,,,1141.722,1142.222,1142.473,1143.706,space,1.222,,1143.706,19,84,1144.705,1144.705,1144.714,,,,0,4,4,4,1,75,10,,,,,,,,
,,65a6c690858ba02d51bf8905,65af53c796282ee5a07620b6,2024-01-22_23h08.26.664,bars,2023.2.3,Win32,59.95203837,657b66ea316d21385b68909f,,,,,,,,,,,1144.714,1145.705,,,1146.206,1146.456,,85,85,,,,,,,,,,,,,,,,bars/018.png,bars/mask008.png,,,,,,,,,,,,1,2,,,,,,,8,0,9,1,,,,,,,,,,,1145.705,1146.206,1146.456,1147.856,space,1.385,,1147.856,65,5,1148.855,1148.855,1148.863,,,,0,5,5,5,1,150,90,,,,,,,,
,,65a6c690858ba02d51bf8905,65af53c796282ee5a07620b6,2024-01-22_23h08.26.664,bars,2023.2.3,Win32,59.95203837,657b66ea316d21385b68909f,,,,,,,,,,,1148.863,1149.856,,,1150.356,1150.605,,45,45,,,,,,,,,,,,,,,,bars/003.png,bars/mask005.png,,,,,,,,,,,,2,1,,,,,,,6,2,7,2,,,,,,,,,,,1149.856,1150.356,1150.605,1151.888,space,1.267,,1151.888,20,85,1152.888,1152.889,1152.897,,,,0,6,6,6,1,25,140,,,,,,,,
,,65a6c690858ba02d51bf8905,65af53c796282ee5a07620b6,2024-01-22_23h08.26.664,bars,2023.2.3,Win32,59.95203837,657b66ea316d21385b68909f,,,,,,,,,,,1152.897,1153.889,,,1154.389,1154.639,,109,109,,,,,,,,,,,,,,,,bars/021.png,bars/mask003.png,,,,,,,,,,,,0,2,,,,,,,8,0,9,0,,,,,,,,,,,1153.889,1154.389,1154.639,1155.89,space,1.234,,1155.89,46,39,1156.889,1156.889,1156.897,,,,0,7,7,7,1,155,70,,,,,,,,
,,65a6c690858ba02d51bf8905,65af53c796282ee5a07620b6,2024-01-22_23h08.26.664,bars,2023.2.3,Win32,59.95203837,657b66ea316d21385b68909f,,,,,,,,,,,1156.897,1157.89,,,1158.391,1158.639,,100,100,,,,,,,,,,,,,,,,bars/044.png,bars/mask008.png,,,,,,,,,,,,1,1,,,,,,,6,2,6,2,,,,,,,,,,,1157.89,1158.39,1158.64,1160.106,space,1.452,,1160.107,25,55,1161.105,1161.105,1161.115,,,,0,8,8,8,1,75,155,,,,,,,,
,,65a6c690858ba02d51bf8905,65af53c796282ee5a07620b6,2024-01-22_23h08.26.664,bars,2023.2.3,Win32,59.95203837,657b66ea316d21385b68909f,,,,,,,,,,,1161.116,1162.105,,,1162.606,1162.856,,113,113,,,,,,,,,,,,,,,,bars/014.png,bars/mask001.png,,,,,,,,,,,,0,1,,,,,,,8,0,6,0,,,,,,,,,,,1162.105,1162.606,1162.856,1164.306,space,1.435,,1164.306,33,67,1165.306,1165.306,1165.31,,,,0,9,9,9,1,80,0,,,,,,,,
,,65a6c690858ba02d51bf8905,65af53c796282ee5a07620b6,2024-01-22_23h08.26.664,bars,2023.2.3,Win32,59.95203837,657b66ea316d21385b68909f,,,,,,,,,,,1165.311,1166.305,,,1166.805,1167.056,,130,130,,,,,,,,,,,,,,,,bars/001.png,bars/mask006.png,,,,,,,,,,,,10,1,,,,,,,10,2,10,1,,,,,,,,,,,1166.306,1166.805,1167.056,1168.323,space,1.251,,1168.323,0,45,1169.322,1169.322,1169.326,,,,0,10,10,10,1,130,85,,,,,,,,
,,65a6c690858ba02d51bf8905,65af53c796282ee5a07620b6,2024-01-22_23h08.26.664,bars,2023.2.3,Win32,59.95203837,657b66ea316d21385b68909f,,,,,,,,,,,1169.327,1170.322,,,1170.822,1171.072,,120,120,,,,,,,,,,,,,,,,bars/007.png,bars/mask006.png,,,,,,,,,,,,0,1,,,,,,,10,4,10,4,,,,,,,,,,,1170.322,1170.822,1171.072,1172.355,space,1.272,,1172.355,55,65,1173.355,1173.355,1173.359,,,,0,11,11,11,1,175,55,,,,,,,,
,,65a6c690858ba02d51bf8905,65af53c796282ee5a07620b6,2024-01-22_23h08.26.664,bars,2023.2.3,Win32,59.95203837,657b66ea316d21385b68909f,,,,,,,,,,,1173.36,1174.355,,,1174.855,1175.106,,126,126,,,,,,,,,,,,,,,,bars/044.png,bars/mask006.png,,,,,,,,,,,,0,2,,,,,,,10,2,8,2,,,,,,,,,,,1174.356,1174.855,1175.106,1176.105,space,0.984,,1176.106,51,29,1177.106,1177.106,1177.113,,,,0,12,12,12,1,75,155,,,,,,,,
,,65a6c690858ba02d51bf8905,65af53c796282ee5a07620b6,2024-01-22_23h08.26.664,bars,2023.2.3,Win32,59.95203837,657b66ea316d21385b68909f,,,,,,,,,,,1177.114,1178.106,,,1178.605,1178.856,,30,30,,,,,,,,,,,,,,,,bars/012.png,bars/mask000.png,,,,,,,,,,,,2,2,,,,,,,8,4,8,4,,,,,,,,,,,1178.106,1178.605,1178.856,1179.889,space,1.021,,1179.889,60,15,1180.889,1180.889,1180.89,,,,0,13,13,13,1,90,15,,,,,,,,
,,65a6c690858ba02d51bf8905,65af53c796282ee5a07620b6,2024-01-22_23h08.26.664,bars,2023.2.3,Win32,59.95203837,657b66ea316d21385b68909f,,,,,,,,,,,1180.892,1181.888,,,1182.388,1182.639,,99,99,,,,,,,,,,,,,,,,bars/044.png,bars/mask002.png,,,,,,,,,,,,2,1,,,,,,,10,6,9,7,,,,,,,,,,,1181.889,1182.388,1182.639,1183.589,space,0.936,,1183.589,24,56,1184.589,1184.589,1184.598,,,,0,14,14,14,1,75,155,,,,,,,,
,,65a6c690858ba02d51bf8905,65af53c796282ee5a07620b6,2024-01-22_23h08.26.664,bars,2023.2.3,Win32,59.95203837,657b66ea316d21385b68909f,,,,,,,,,,,1184.598,1185.589,,,1186.089,1186.339,,160,160,,,,,,,,,,,,,,,,bars/005.png,bars/mask008.png,,,,,,,,,,,,3,2,,,,,,,8,8,9,8,,,,,,,,,,,1185.589,1186.089,1186.339,1187.273,space,0.924,,1187.273,30,20,1188.272,1188.272,1188.28,,,,0,15,15,15,1,10,140,,,,,,,,
,,65a6c690858ba02d51bf8905,65af53c796282ee5a07620b6,2024-01-22_23h08.26.664,bars,2023.2.3,Win32,59.95203837,657b66ea316d21385b68909f,,,,,,,,,,,1188.28,1189.272,,,1189.774,1190.022,,35,35,,,,,,,,,,,,,,,,bars/033.png,bars/mask009.png,,,,,,,,,,,,5,1,,,,,,,6,10,8,9,,,,,,,,,,,1189.273,1189.773,1190.022,1190.988,space,0.957,,1190.988,10,60,1191.989,1191.989,1191.999,,,,0,16,16,16,1,25,155,,,,,,,,
,,65a6c690858ba02d51bf8905,65af53c796282ee5a07620b6,2024-01-22_23h08.26.664,bars,2023.2.3,Win32,59.95203837,657b66ea316d21385b68909f,,,,,,,,,,,1191.999,1192.989,,,1193.489,1193.739,,109,109,,,,,,,,,,,,,,,,bars/011.png,bars/mask007.png,,,,,,,,,,,,2,2,,,,,,,4,10,3,10,,,,,,,,,,,1192.989,1193.488,1193.739,1194.689,space,0.934,,1194.689,51,24,1195.689,1195.689,1195.699,,,,0,17,17,17,1,160,85,,,,,,,,
,,65a6c690858ba02d51bf8905,65af53c796282ee5a07620b6,2024-01-22_23h08.26.664,bars,2023.2.3,Win32,59.95203837,657b66ea316d21385b68909f,,,,,,,,,,,1195.699,1196.689,,,1197.189,1197.439,,118,118,,,,,,,,,,,,,,,,bars/024.png,bars/mask008.png,,,,,,,,,,,,1,1,,,,,,,2,10,1,9,,,,,,,,,,,1196.689,1197.188,1197.439,1198.372,space,0.922,,1198.373,2,52,1199.373,1199.373,1199.381,,,,0,18,18,18,1,120,170,,,,,,,,
,,65a6c690858ba02d51bf8905,65af53c796282ee5a07620b6,2024-01-22_23h08.26.664,bars,2023.2.3,Win32,59.95203837,657b66ea316d21385b68909f,,,,,,,,,,,1199.381,1200.372,,,1200.872,1201.122,,17,17,,,,,,,,,,,,,,,,bars/045.png,bars/mask002.png,,,,,,,,,,,,6,2,,,,,,,0,8,0,8,,,,,,,,,,,1200.372,1200.872,1201.122,1201.973,space,0.835,,1201.973,83,7,1202.973,1202.973,1202.98,,,,0,19,19,19,1,100,10,,,,,,,,
,,65a6c690858ba02d51bf8905,65af53c796282ee5a07620b6,2024-01-22_23h08.26.664,bars,2023.2.3,Win32,59.95203837,657b66ea316d21385b68909f,,,,,,,,,,,1202.98,1203.973,,,1204.473,1204.722,,90,90,,,,,,,,,,,,,,,,bars/003.png,bars/mask001.png,,,,,,,,,,,,0,2,,,,,,,0,10,1,10,,,,,,,,,,,1203.973,1204.473,1204.722,1205.889,space,1.158,,1205.889,65,50,1206.889,1206.889,1206.892,,,,0,20,20,20,1,25,140,,,,,,,,
,,65a6c690858ba02d51bf8905,65af53c796282ee5a07620b6,2024-01-22_23h08.26.664,bars,2023.2.3,Win32,59.95203837,657b66ea316d21385b68909f,,,,,,,,,,,1206.893,1207.889,,,1208.389,1208.639,,155,155,,,,,,,,,,,,,,,,bars/003.png,bars/mask006.png,,,,,,,,,,,,5,2,,,,,,,0,10,0,9,,,,,,,,,,,1207.889,1208.389,1208.639,1209.489,space,0.833,,1209.489,50,15,1210.489,1210.489,1210.49,,,,0,21,21,21,1,25,140,,,,,,,,
,,65a6c690858ba02d51bf8905,65af53c796282ee5a07620b6,2024-01-22_23h08.26.664,bars,2023.2.3,Win32,59.95203837,657b66ea316d21385b68909f,,,,,,,,,,,1210.491,1211.489,,,1211.989,1212.239,,19,19,,,,,,,,,,,,,,,,bars/028.png,bars/mask008.png,,,,,,,,,,,,0,1,,,,,,,2,10,2,10,,,,,,,,,,,1211.489,1211.989,1212.239,1213.389,space,1.135,,1213.389,26,79,1214.389,1214.389,1214.396,,,,0,22,22,22,1,45,120,,,,,,,,
,,65a6c690858ba02d51bf8905,65af53c796282ee5a07620b6,2024-01-22_23h08.26.664,bars,2023.2.3,Win32,59.95203837,657b66ea316d21385b68909f,,,,,,,,,,,1214.397,1215.389,,,1215.889,1216.139,,69,69,,,,,,,,,,,,,,,,bars/015.png,bars/mask008.png,,,,,,,,,,,,0,1,,,,,,,4,10,3,9,,,,,,,,,,,1215.389,1215.889,1216.139,1217.072,space,0.917,,1217.072,41,89,1218.072,1218.072,1218.075,,,,0,23,23,23,1,110,160,,,,,,,,
,,65a6c690858ba02d51bf8905,65af53c796282ee5a07620b6,2024-01-22_23h08.26.664,bars,2023.2.3,Win32,59.95203837,657b66ea316d21385b68909f,,,,,,,,,,,1218.076,1219.072,,,1219.572,1219.822,,97,97,,,,,,,,,,,,,,,,bars/028.png,bars/mask001.png,,,,,,,,,,,,2,2,,,,,,,2,10,2,8,,,,,,,,,,,1219.072,1219.572,1219.822,1220.705,space,0.867,,1220.706,52,23,1221.706,1221.706,1221.713,,,,0,24,24,24,1,45,120,,,,,,,,
,,65a6c690858ba02d51bf8905,65af53c796282ee5a07620b6,2024-01-22_23h08.26.664,bars,2023.2.3,Win32,59.95203837,657b66ea316d21385b68909f,,,,,,,,,,,1221.714,1222.707,,,1223.205,1223.456,,105,105,,,,,,,,,,,,,,,,bars/012.png,bars/mask004.png,,,,,,,,,,,,0,1,,,,,,,0,10,0,10,,,,,,,,,,,1222.707,1223.205,1223.456,1224.688,space,1.216,,1224.688,15,90,1225.689,1225.689,1225.698,,,,0,25,25,25,1,90,15,,,,,,,,
,,65a6c690858ba02d51bf8905,65af53c796282ee5a07620b6,2024-01-22_23h08.26.664,bars,2023.2.3,Win32,59.95203837,657b66ea316d21385b68909f,,,,,,,,,,,1225.699,1226.689,,,1227.189,1227.439,,81,81,,,,,,,,,,,,,,,,bars/034.png,bars/mask005.png,,,,,,,,,,,,5,2,,,,,,,0,10,0,10,,,,,,,,,,,1226.689,1227.189,1227.439,1228.389,space,0.936,,1228.389,44,16,1229.389,1229.389,1229.398,,,,0,26,26,26,1,125,65,,,,,,,,
,,65a6c690858ba02d51bf8905,65af53c796282ee5a07620b6,2024-01-22_23h08.26.664,bars,2023.2.3,Win32,59.95203837,657b66ea316d21385b68909f,,,,,,,,,,,1229.399,1230.389,,,1230.889,1231.139,,29,29,,,,,,,,,,,,,,,,bars/020.png,bars/mask002.png,,,,,,,,,,,,0,2,,,,,,,0,8,0,6,,,,,,,,,,,1230.389,1230.889,1231.139,1232.339,space,1.184,,1232.339,86,39,1233.338,1233.338,1233.342,,,,0,27,27,27,1,115,170,,,,,,,,
,,65a6c690858ba02d51bf8905,65af53c796282ee5a07620b6,2024-01-22_23h08.26.664,bars,2023.2.3,Win32,59.95203837,657b66ea316d21385b68909f,,,,,,,,,,,1233.344,1234.339,,,1234.839,1235.089,,55,55,,,,,,,,,,,,,,,,bars/011.png,bars/mask008.png,,,,,,,,,,,,0,2,,,,,,,2,6,2,5,,,,,,,,,,,1234.339,1234.839,1235.089,1236.255,space,1.151,,1236.255,75,30,1237.255,1237.255,1237.257,,,,0,28,28,28,1,160,85,,,,,,,,
,,65a6c690858ba02d51bf8905,65af53c796282ee5a07620b6,2024-01-22_23h08.26.664,bars,2023.2.3,Win32,59.95203837,657b66ea316d21385b68909f,,,,,,,,,,,1237.259,1238.255,,,1238.756,1239.005,,68,68,,,,,,,,,,,,,,,,bars/040.png,bars/mask000.png,,,,,,,,,,,,0,2,,,,,,,0,8,0,8,,,,,,,,,,,1238.255,1238.756,1239.005,1239.739,space,0.718,,1239.739,72,63,1240.739,1240.74,1240.742,,,,0,29,29,29,1,140,5,,,,,,,,
,,65a6c690858ba02d51bf8905,65af53c796282ee5a07620b6,2024-01-22_23h08.26.664,bars,2023.2.3,Win32,59.95203837,657b66ea316d21385b68909f,,,,,,,,,,,1240.743,1241.738,,,1242.238,1242.489,,130,130,,,,,,,,,,,,,,,,bars/025.png,bars/mask004.png,,,,,,,,,,,,0,1,,,,,,,0,6,0,7,,,,,,,,,,,1241.738,1242.238,1242.489,1243.489,space,0.986,,1243.489,25,90,1244.489,1244.489,1244.497,,,,0,30,30,30,1,105,40,,,,,,,,
,,65a6c690858ba02d51bf8905,65af53c796282ee5a07620b6,2024-01-22_23h08.26.664,bars,2023.2.3,Win32,59.95203837,657b66ea316d21385b68909f,,,,,,,,,,,1244.498,1245.489,,,1245.988,1246.238,,145,145,,,,,,,,,,,,,,,,bars/029.png,bars/mask009.png,,,,,,,,,,,,0,1,,,,,,,0,8,1,10,,,,,,,,,,,1245.489,1245.988,1246.239,1247.055,space,0.801,,1247.055,55,80,1248.056,1248.056,1248.06,,,,0,31,31,31,1,90,45,,,,,,,,
,,65a6c690858ba02d51bf8905,65af53c796282ee5a07620b6,2024-01-22_23h08.26.664,bars,2023.2.3,Win32,59.95203837,657b66ea316d21385b68909f,,,,,,,,,,,1248.06,1249.055,,,1249.556,1249.805,,94,94,,,,,,,,,,,,,,,,bars/010.png,bars/mask000.png,,,,,,,,,,,,0,2,,,,,,,0,10,0,10,,,,,,,,,,,1249.055,1249.555,1249.805,1250.572,space,0.75,,1250.572,71,39,1251.572,1251.572,1251.578,,,,0,32,32,32,1,165,55,,,,,,,,
,,65a6c690858ba02d51bf8905,65af53c796282ee5a07620b6,2024-01-22_23h08.26.664,bars,2023.2.3,Win32,59.95203837,657b66ea316d21385b68909f,,,,,,,,,,,1251.58,1252.573,,,1253.072,1253.324,,13,13,,,,,,,,,,,,,,,,bars/010.png,bars/mask006.png,,,,,,,,,,,,0,1,,,,,,,0,10,0,9,,,,,,,,,,,1252.574,1253.072,1253.324,1254.088,space,0.757,,1254.089,28,42,1255.088,1255.088,1255.099,,,,0,33,33,33,1,165,55,,,,,,,,
,,65a6c690858ba02d51bf8905,65af53c796282ee5a07620b6,2024-01-22_23h08.26.664,bars,2023.2.3,Win32,59.95203837,657b66ea316d21385b68909f,,,,,,,,,,,1255.1,1256.089,,,1256.589,1256.839,,3,3,,,,,,,,,,,,,,,,bars/046.png,bars/mask001.png,,,,,,,,,,,,0,1,,,,,,,2,8,1,7,,,,,,,,,,,1256.089,1256.589,1256.839,1257.655,space,0.801,,1257.655,28,82,1258.656,1258.656,1258.66,,,,0,34,34,34,1,155,85,,,,,,,,
,,65a6c690858ba02d51bf8905,65af53c796282ee5a07620b6,2024-01-22_23h08.26.664,bars,2023.2.3,Win32,59.95203837,657b66ea316d21385b68909f,,,,,,,,,,,1258.662,1259.656,,,1260.155,1260.406,,152,152,,,,,,,,,,,,,,,,bars/027.png,bars/mask002.png,,,,,,,,,,,,0,1,,,,,,,0,6,0,7,,,,,,,,,,,1259.656,1260.155,1260.406,1262.672,space,2.25,,1262.672,42,78,1263.673,1263.673,1263.677,,,,0,35,35,35,1,110,50,,,,,,,,
,,65a6c690858ba02d51bf8905,65af53c796282ee5a07620b6,2024-01-22_23h08.26.664,bars,2023.2.3,Win32,59.95203837,657b66ea316d21385b68909f,,,,,,,,,,,1263.679,1264.672,,,1265.172,1265.422,,55,55,,,,,,,,,,,,,,,,bars/011.png,bars/mask006.png,,,,,,,,,,,,0,2,,,,,,,0,8,2,8,,,,,,,,,,,1264.672,1265.172,1265.423,1266.288,space,0.85,,1266.289,75,30,1267.288,1267.289,1267.298,,,,0,36,36,36,1,160,85,,,,,,,,
,,65a6c690858ba02d51bf8905,65af53c796282ee5a07620b6,2024-01-22_23h08.26.664,bars,2023.2.3,Win32,59.95203837,657b66ea316d21385b68909f,,,,,,,,,,,1267.298,1268.288,,,1268.789,1269.039,,71,71,,,,,,,,,,,,,,,,bars/028.png,bars/mask007.png,,,,,,,,,,,,0,1,,,,,,,0,6,0,7,,,,,,,,,,,1268.289,1268.789,1269.039,1269.956,space,0.903,,1269.956,26,49,1270.956,1270.956,1270.965,,,,0,37,37,37,1,45,120,,,,,,,,
,,65a6c690858ba02d51bf8905,65af53c796282ee5a07620b6,2024-01-22_23h08.26.664,bars,2023.2.3,Win32,59.95203837,657b66ea316d21385b68909f,,,,,,,,,,,1270.966,1271.955,,,1272.456,1272.705,,49,49,,,,,,,,,,,,,,,,bars/049.png,bars/mask005.png,,,,,,,,,,,,0,2,,,,,,,0,8,1,9,,,,,,,,,,,1271.955,1272.456,1272.705,1273.539,space,0.816,,1273.539,69,66,1274.539,1274.539,1274.546,,,,0,38,38,38,1,160,115,,,,,,,,
,,65a6c690858ba02d51bf8905,65af53c796282ee5a07620b6,2024-01-22_23h08.26.664,bars,2023.2.3,Win32,59.95203837,657b66ea316d21385b68909f,,,,,,,,,,,1274.547,1275.538,,,1276.039,1276.289,,149,149,,,,,,,,,,,,,,,,bars/004.png,bars/mask001.png,,,,,,,,,,,,1,2,,,,,,,2,6,2,7,,,,,,,,,,,1275.539,1276.039,1276.289,1277.205,space,0.9,,1277.205,56,24,1278.205,1278.205,1278.208,,,,0,39,39,39,1,25,125,,,,,,,,
,,65a6c690858ba02d51bf8905,65af53c796282ee5a07620b6,2024-01-22_23h08.26.664,bars,2023.2.3,Win32,59.95203837,657b66ea316d21385b68909f,,,,,,,,,,,1278.209,1279.205,,,1279.705,1279.956,,161,161,,,,,,,,,,,,,,,,bars/041.png,bars/mask007.png,,,,,,,,,,,,0,1,,,,,,,4,4,5,3,,,,,,,,,,,1279.205,1279.705,1279.956,1281.189,space,1.218,,1281.189,39,76,1282.189,1282.189,1282.195,,,,0,40,40,40,1,20,85,,,,,,,,
,,65a6c690858ba02d51bf8905,65af53c796282ee5a07620b6,2024-01-22_23h08.26.664,bars,2023.2.3,Win32,59.95203837,657b66ea316d21385b68909f,,,,,,,,,,,1282.196,1283.189,,,1283.689,1283.938,,16,16,,,,,,,,,,,,,,,,bars/045.png,bars/mask002.png,,,,,,,,,,,,6,2,,,,,,,2,6,1,7,,,,,,,,,,,1283.189,1283.688,1283.938,1284.873,space,0.918,,1284.873,84,6,1285.872,1285.872,1285.879,,,,0,41,41,41,1,100,10,,,,,,,,
,,65a6c690858ba02d51bf8905,65af53c796282ee5a07620b6,2024-01-22_23h08.26.664,bars,2023.2.3,Win32,59.95203837,657b66ea316d21385b68909f,,,,,,,,,,,1285.88,1286.871,,,1287.372,1287.622,,37,37,,,,,,,,,,,,,,,,bars/017.png,bars/mask005.png,,,,,,,,,,,,2,2,,,,,,,4,4,3,3,,,,,,,,,,,1286.871,1287.372,1287.622,1288.788,space,1.155,,1288.788,72,8,1289.789,1289.79,1289.798,,,,0,42,42,42,1,145,45,,,,,,,,
,,65a6c690858ba02d51bf8905,65af53c796282ee5a07620b6,2024-01-22_23h08.26.664,bars,2023.2.3,Win32,59.95203837,657b66ea316d21385b68909f,,,,,,,,,,,1289.799,1290.788,,,1291.289,1291.539,,133,133,,,,,,,,,,,,,,,,bars/019.png,bars/mask009.png,,,,,,,,,,,,0,2,,,,,,,2,6,4,6,,,,,,,,,,,1290.789,1291.289,1291.539,1292.772,space,1.219,,1292.772,88,28,1293.772,1293.772,1293.777,,,,0,43,43,43,1,45,105,,,,,,,,
,,65a6c690858ba02d51bf8905,65af53c796282ee5a07620b6,2024-01-22_23h08.26.664,bars,2023.2.3,Win32,59.95203837,657b66ea316d21385b68909f,,,,,,,,,,,1293.779,1294.773,,,1295.272,1295.522,,29,29,,,,,,,,,,,,,,,,bars/024.png,bars/mask002.png,,,,,,,,,,,,0,2,,,,,,,0,8,0,8,,,,,,,,,,,1294.773,1295.272,1295.523,1296.522,space,0.984,,1296.522,89,39,1297.522,1297.522,1297.525,,,,0,44,44,44,1,120,170,,,,,,,,
,,65a6c690858ba02d51bf8905,65af53c796282ee5a07620b6,2024-01-22_23h08.26.664,bars,2023.2.3,Win32,59.95203837,657b66ea316d21385b68909f,,,,,,,,,,,1297.526,1298.522,,,1299.023,1299.272,,122,122,,,,,,,,,,,,,,,,bars/049.png,bars/mask008.png,,,,,,,,,,,,5,2,,,,,,,2,6,1,7,,,,,,,,,,,1298.522,1299.022,1299.273,1300.905,space,1.618,,1300.905,38,7,1301.905,1301.905,1301.909,,,,0,45,45,45,1,160,115,,,,,,,,
,,65a6c690858ba02d51bf8905,65af53c796282ee5a07620b6,2024-01-22_23h08.26.664,bars,2023.2.3,Win32,59.95203837,657b66ea316d21385b68909f,,,,,,,,,,,1301.911,1302.905,,,1303.406,1303.655,,65,65,,,,,,,,,,,,,,,,bars/009.png,bars/mask003.png,,,,,,,,,,,,0,2,,,,,,,0,4,0,4,,,,,,,,,,,1302.905,1303.405,1303.655,1304.822,space,1.152,,1304.822,50,40,1305.822,1305.822,1305.825,,,,0,46,46,46,1,15,105,,,,,,,,
,,65a6c690858ba02d51bf8905,65af53c796282ee5a07620b6,2024-01-22_23h08.26.664,bars,2023.2.3,Win32,59.95203837,657b66ea316d21385b68909f,,,,,,,,,,,1305.827,1306.822,,,1307.322,1307.571,,165,165,,,,,,,,,,,,,,,,bars/006.png,bars/mask000.png,,,,,,,,,,,,0,1,,,,,,,2,6,2,6,,,,,,,,,,,1306.822,1307.322,1307.571,1308.472,space,0.89,,1308.472,50,65,1309.472,1309.472,1309.48,,,,0,47,47,47,1,35,100,,,,,,,,
,,65a6c690858ba02d51bf8905,65af53c796282ee5a07620b6,2024-01-22_23h08.26.664,bars,2023.2.3,Win32,59.95203837,657b66ea316d21385b68909f,,,,,,,,,,,1309.481,1310.472,,,1310.972,1311.221,,49,49,,,,,,,,,,,,,,,,bars/000.png,bars/mask004.png,,,,,,,,,,,,0,1,,,,,,,0,4,0,3,,,,,,,,,,,1310.472,1310.972,1311.221,1312.588,space,1.351,,1312.588,9,84,1313.589,1313.589,1313.592,,,,0,48,48,48,1,40,145,,,,,,,,
,,65a6c690858ba02d51bf8905,65af53c796282ee5a07620b6,2024-01-22_23h08.26.664,bars,2023.2.3,Win32,59.95203837,657b66ea316d21385b68909f,,,,,,,,,,,1313.594,1314.588,,,1315.088,1315.338,,171,171,,,,,,,,,,,,,,,,bars/025.png,bars/mask003.png,,,,,,,,,,,,0,2,,,,,,,2,2,2,3,,,,,,,,,,,1314.588,1315.088,1315.338,1316.605,space,1.254,,1316.605,66,49,1317.605,1317.605,1317.612,,,,0,49,49,49,1,105,40,,,,,,,,
,,65a6c690858ba02d51bf8905,65af53c796282ee5a07620b6,2024-01-22_23h08.26.664,bars,2023.2.3,Win32,59.95203837,657b66ea316d21385b68909f,,,,,,,,,,,,,,,,,,,,,,,,,,,,,,,,,,,,,,,,,,,,,,,,,,,,,,,,,,,,,,,,,,,,,,,,,,,,,,,,,,,,,,,,,,,,,1317.613,1377.606,0,2,2,0,1,sequence_tables/blk043.csv
,,65a6c690858ba02d51bf8905,65af53c796282ee5a07620b6,2024-01-22_23h08.26.664,bars,2023.2.3,Win32,59.95203837,657b66ea316d21385b68909f,,,,,,,,,,,1380.317,1381.305,,,1381.806,1382.055,,124,124,,,,,,,,,,,,,,,,bars/006.png,bars/mask006.png,,,,,,,,,,,,1,2,,,,,,,4,7,3,7,,,,,,1377.611,1380.306,space,2.684,,1381.305,1381.806,1382.055,1384.706,space,2.633,,1384.706,89,24,1385.705,1385.705,1385.714,,,,0,0,0,0,1,35,100,,,,,,,,
,,65a6c690858ba02d51bf8905,65af53c796282ee5a07620b6,2024-01-22_23h08.26.664,bars,2023.2.3,Win32,59.95203837,657b66ea316d21385b68909f,,,,,,,,,,,1385.714,1386.705,,,1387.206,1387.455,,86,86,,,,,,,,,,,,,,,,bars/026.png,bars/mask009.png,,,,,,,,,,,,5,2,,,,,,,6,5,7,5,,,,,,,,,,,1386.705,1387.206,1387.455,1388.289,space,0.823,,1388.289,51,1,1389.289,1389.289,1389.293,,,,0,1,1,1,1,35,85,,,,,,,,
,,65a6c690858ba02d51bf8905,65af53c796282ee5a07620b6,2024-01-22_23h08.26.664,bars,2023.2.3,Win32,59.95203837,657b66ea316d21385b68909f,,,,,,,,,,,1389.295,1390.288,,,1390.789,1391.039,,31,31,,,,,,,,,,,,,,,,bars/025.png,bars/mask000.png,,,,,,,,,,,,3,2,,,,,,,4,3,4,4,,,,,,,,,,,1390.288,1390.788,1391.039,1391.789,space,0.734,,1391.789,74,9,1392.788,1392.788,1392.791,,,,0,2,2,2,1,105,40,,,,,,,,
,,65a6c690858ba02d51bf8905,65af53c796282ee5a07620b6,2024-01-22_23h08.26.664,bars,2023.2.3,Win32,59.95203837,657b66ea316d21385b68909f,,,,,,,,,,,1392.793,1393.789,,,1394.288,1394.539,,15,15,,,,,,,,,,,,,,,,bars/022.png,bars/mask001.png,,,,,,,,,,,,4,2,,,,,,,2,5,2,5,,,,,,,,,,,1393.789,1394.288,1394.539,1395.439,space,0.884,,1395.439,80,5,1396.439,1396.439,1396.444,,,,0,3,3,3,1,95,20,,,,,,,,
,,65a6c690858ba02d51bf8905,65af53c796282ee5a07620b6,2024-01-22_23h08.26.664,bars,2023.2.3,Win32,59.95203837,657b66ea316d21385b68909f,,,,,,,,,,,1396.446,1397.439,,,1397.938,1398.189,,39,39,,,,,,,,,,,,,,,,bars/035.png,bars/mask006.png,,,,,,,,,,,,1,2,,,,,,,0,3,1,4,,,,,,,,,,,1397.439,1397.938,1398.189,1398.872,space,0.669,,1398.872,44,21,1399.872,1399.873,1399.875,,,,0,4,4,4,1,175,60,,,,,,,,
,,65a6c690858ba02d51bf8905,65af53c796282ee5a07620b6,2024-01-22_23h08.26.664,bars,2023.2.3,Win32,59.95203837,657b66ea316d21385b68909f,,,,,,,,,,,1399.877,1400.872,,,1401.372,1401.622,,149,149,,,,,,,,,,,,,,,,bars/014.png,bars/mask009.png,,,,,,,,,,,,0,2,,,,,,,0,5,0,2,,,,,,,,,,,1400.872,1401.371,1401.622,1402.288,space,0.651,,1402.288,69,31,1403.289,1403.289,1403.29,,,,0,5,5,5,1,80,0,,,,,,,,
,,65a6c690858ba02d51bf8905,65af53c796282ee5a07620b6,2024-01-22_23h08.26.664,bars,2023.2.3,Win32,59.95203837,657b66ea316d21385b68909f,,,,,,,,,,,1403.291,1404.289,,,1404.788,1405.039,,46,46,,,,,,,,,,,,,,,,bars/037.png,bars/mask002.png,,,,,,,,,,,,0,2,,,,,,,2,7,3,6,,,,,,,,,,,1404.289,1404.788,1405.039,1405.722,space,0.666,,1405.722,76,59,1406.722,1406.722,1406.726,,,,0,6,6,6,1,150,105,,,,,,,,
,,65a6c690858ba02d51bf8905,65af53c796282ee5a07620b6,2024-01-22_23h08.26.664,bars,2023.2.3,Win32,59.95203837,657b66ea316d21385b68909f,,,,,,,,,,,1406.727,1407.722,,,1408.222,1408.472,,24,24,,,,,,,,,,,,,,,,bars/031.png,bars/mask007.png,,,,,,,,,,,,6,2,,,,,,,0,9,0,9,,,,,,,,,,,1407.722,1408.222,1408.472,1409.139,space,0.651,,1409.139,84,11,1410.139,1410.139,1410.143,,,,0,7,7,7,1,120,35,,,,,,,,
,,65a6c690858ba02d51bf8905,65af53c796282ee5a07620b6,2024-01-22_23h08.26.664,bars,2023.2.3,Win32,59.95203837,657b66ea316d21385b68909f,,,,,,,,,,,1410.143,1411.138,,,1411.639,1411.889,,164,164,,,,,,,,,,,,,,,,bars/002.png,bars/mask009.png,,,,,,,,,,,,0,1,,,,,,,0,10,0,10,,,,,,,,,,,1411.138,1411.639,1411.889,1412.606,space,0.705,,1412.606,34,79,1413.605,1413.605,1413.613,,,,0,8,8,8,1,130,85,,,,,,,,
,,65a6c690858ba02d51bf8905,65af53c796282ee5a07620b6,2024-01-22_23h08.26.664,bars,2023.2.3,Win32,59.95203837,657b66ea316d21385b68909f,,,,,,,,,,,1413.614,1414.606,,,1415.105,1415.355,,52,52,,,,,,,,,,,,,,,,bars/017.png,bars/mask007.png,,,,,,,,,,,,8,2,,,,,,,2,10,2,10,,,,,,,,,,,1414.607,1415.105,1415.355,1416.003,space,0.622,,1416.003,87,7,1417.005,1417.005,1417.015,,,,0,9,9,9,1,145,45,,,,,,,,
,,65a6c690858ba02d51bf8905,65af53c796282ee5a07620b6,2024-01-22_23h08.26.664,bars,2023.2.3,Win32,59.95203837,657b66ea316d21385b68909f,,,,,,,,,,,1417.016,1418.005,,,1418.505,1418.755,,87,87,,,,,,,,,,,,,,,,bars/012.png,bars/mask008.png,,,,,,,,,,,,4,1,,,,,,,4,10,4,10,,,,,,,,,,,1418.005,1418.505,1418.755,1419.439,space,0.67,,1419.439,3,72,1420.439,1420.439,1420.447,,,,0,10,10,10,1,90,15,,,,,,,,
,,65a6c690858ba02d51bf8905,65af53c796282ee5a07620b6,2024-01-22_23h08.26.664,bars,2023.2.3,Win32,59.95203837,657b66ea316d21385b68909f,,,,,,,,,,,1420.448,1421.438,,,1421.939,1422.19,,151,151,,,,,,,,,,,,,,,,bars/001.png,bars/mask004.png,,,,,,,,,,,,0,1,,,,,,,2,10,0,10,,,,,,,,,,,1421.438,1421.939,1422.19,1423.572,space,1.367,,1423.572,21,66,1424.572,1424.572,1424.576,,,,0,11,11,11,1,130,85,,,,,,,,
,,65a6c690858ba02d51bf8905,65af53c796282ee5a07620b6,2024-01-22_23h08.26.664,bars,2023.2.3,Win32,59.95203837,657b66ea316d21385b68909f,,,,,,,,,,,1424.577,1425.572,,,1426.072,1426.322,,178,178,,,,,,,,,,,,,,,,bars/004.png,bars/mask003.png,,,,,,,,,,,,0,1,,,,,,,4,10,4,10,,,,,,,,,,,1425.572,1426.072,1426.322,1427.489,space,1.15,,1427.489,27,53,1428.489,1428.489,1428.492,,,,0,12,12,12,1,25,125,,,,,,,,
,,65a6c690858ba02d51bf8905,65af53c796282ee5a07620b6,2024-01-22_23h08.26.664,bars,2023.2.3,Win32,59.95203837,657b66ea316d21385b68909f,,,,,,,,,,,1428.494,1429.489,,,1429.988,1430.238,,123,123,,,,,,,,,,,,,,,,bars/004.png,bars/mask002.png,,,,,,,,,,,,7,2,,,,,,,6,8,5,7,,,,,,,,,,,1429.489,1429.988,1430.238,1431.706,space,1.45,,1431.706,82,2,1432.705,1432.705,1432.714,,,,0,13,13,13,1,25,125,,,,,,,,
,,65a6c690858ba02d51bf8905,65af53c796282ee5a07620b6,2024-01-22_23h08.26.664,bars,2023.2.3,Win32,59.95203837,657b66ea316d21385b68909f,,,,,,,,,,,1432.714,1433.705,,,1434.205,1434.455,,162,162,,,,,,,,,,,,,,,,bars/047.png,bars/mask009.png,,,,,,,,,,,,0,1,,,,,,,4,10,4,10,,,,,,,,,,,1433.705,1434.205,1434.455,1435.139,space,0.67,,1435.139,33,88,1436.138,1436.138,1436.148,,,,0,14,14,14,1,15,70,,,,,,,,
,,65a6c690858ba02d51bf8905,65af53c796282ee5a07620b6,2024-01-22_23h08.26.664,bars,2023.2.3,Win32,59.95203837,657b66ea316d21385b68909f,,,,,,,,,,,1436.148,1437.139,,,1437.638,1437.888,,173,173,,,,,,,,,,,,,,,,bars/005.png,bars/mask003.png,,,,,,,,,,,,1,1,,,,,,,2,10,2,10,,,,,,,,,,,1437.139,1437.638,1437.888,1438.622,space,0.719,,1438.622,17,33,1439.622,1439.622,1439.624,,,,0,15,15,15,1,10,140,,,,,,,,
,,65a6c690858ba02d51bf8905,65af53c796282ee5a07620b6,2024-01-22_23h08.26.664,bars,2023.2.3,Win32,59.95203837,657b66ea316d21385b68909f,,,,,,,,,,,1439.625,1440.622,,,1441.122,1441.371,,63,63,,,,,,,,,,,,,,,,bars/041.png,bars/mask008.png,,,,,,,,,,,,2,2,,,,,,,4,10,5,8,,,,,,,,,,,1440.622,1441.122,1441.372,1442.072,space,0.686,,1442.072,43,22,1443.072,1443.072,1443.08,,,,0,16,16,16,1,20,85,,,,,,,,
,,65a6c690858ba02d51bf8905,65af53c796282ee5a07620b6,2024-01-22_23h08.26.664,bars,2023.2.3,Win32,59.95203837,657b66ea316d21385b68909f,,,,,,,,,,,1443.081,1444.071,,,1444.571,1444.823,,124,124,,,,,,,,,,,,,,,,bars/011.png,bars/mask005.png,,,,,,,,,,,,0,1,,,,,,,6,10,9,9,,,,,,,,,,,1444.072,1444.571,1444.823,1446.092,space,1.259,,1446.092,36,39,1447.089,1447.089,1447.1,,,,0,17,17,17,1,160,85,,,,,,,,
,,65a6c690858ba02d51bf8905,65af53c796282ee5a07620b6,2024-01-22_23h08.26.664,bars,2023.2.3,Win32,59.95203837,657b66ea316d21385b68909f,,,,,,,,,,,1447.101,1448.105,,,1448.613,1448.855,,106,106,,,,,,,,,,,,,,,,bars/001.png,bars/mask000.png,,,,,,,,,,,,3,2,,,,,,,8,8,7,9,,,,,,,,,,,1448.105,1448.613,1448.855,1449.505,space,0.637,,1449.505,24,21,1450.505,1450.506,1450.514,,,,0,18,18,18,1,130,85,,,,,,,,
,,65a6c690858ba02d51bf8905,65af53c796282ee5a07620b6,2024-01-22_23h08.26.664,bars,2023.2.3,Win32,59.95203837,657b66ea316d21385b68909f,,,,,,,,,,,1450.515,1451.505,,,1452.005,1452.256,,128,128,,,,,,,,,,,,,,,,bars/032.png,bars/mask008.png,,,,,,,,,,,,6,1,,,,,,,6,10,7,9,,,,,,,,,,,1451.505,1452.005,1452.256,1452.921,space,0.656,,1452.922,3,72,1453.922,1453.922,1453.93,,,,0,19,19,19,1,125,20,,,,,,,,
,,65a6c690858ba02d51bf8905,65af53c796282ee5a07620b6,2024-01-22_23h08.26.664,bars,2023.2.3,Win32,59.95203837,657b66ea316d21385b68909f,,,,,,,,,,,1453.931,1454.922,,,1455.422,1455.672,,150,150,,,,,,,,,,,,,,,,bars/010.png,bars/mask008.png,,,,,,,,,,,,2,1,,,,,,,4,8,4,9,,,,,,,,,,,1454.922,1455.422,1455.672,1456.405,space,0.719,,1456.406,15,85,1457.405,1457.405,1457.408,,,,0,20,20,20,1,165,55,,,,,,,,
,,65a6c690858ba02d51bf8905,65af53c796282ee5a07620b6,2024-01-22_23h08.26.664,bars,2023.2.3,Win32,59.95203837,657b66ea316d21385b68909f,,,,,,,,,,,1457.41,1458.406,,,1458.905,1459.155,,120,120,,,,,,,,,,,,,,,,bars/047.png,bars/mask000.png,,,,,,,,,,,,0,2,,,,,,,2,10,3,10,,,,,,,,,,,1458.406,1458.905,1459.155,1459.855,space,0.684,,1459.855,75,50,1460.855,1460.855,1460.864,,,,0,21,21,21,1,15,70,,,,,,,,
,,65a6c690858ba02d51bf8905,65af53c796282ee5a07620b6,2024-01-22_23h08.26.664,bars,2023.2.3,Win32,59.95203837,657b66ea316d21385b68909f,,,,,,,,,,,1460.864,1461.855,,,1462.355,1462.605,,70,70,,,,,,,,,,,,,,,,bars/047.png,bars/mask006.png,,,,,,,,,,,,9,2,,,,,,,4,10,4,9,,,,,,,,,,,1461.855,1462.355,1462.605,1463.322,space,0.701,,1463.322,55,0,1464.322,1464.322,1464.326,,,,0,22,22,22,1,15,70,,,,,,,,
,,65a6c690858ba02d51bf8905,65af53c796282ee5a07620b6,2024-01-22_23h08.26.664,bars,2023.2.3,Win32,59.95203837,657b66ea316d21385b68909f,,,,,,,,,,,1464.327,1465.322,,,1465.821,1466.071,,33,33,,,,,,,,,,,,,,,,bars/034.png,bars/mask007.png,,,,,,,,,,,,0,2,,,,,,,6,8,5,8,,,,,,,,,,,1465.322,1465.821,1466.072,1466.755,space,0.669,,1466.755,88,32,1467.755,1467.755,1467.757,,,,0,23,23,23,1,125,65,,,,,,,,
,,65a6c690858ba02d51bf8905,65af53c796282ee5a07620b6,2024-01-22_23h08.26.664,bars,2023.2.3,Win32,59.95203837,657b66ea316d21385b68909f,,,,,,,,,,,1467.757,1468.756,,,1469.255,1469.506,,58,58,,,,,,,,,,,,,,,,bars/008.png,bars/mask006.png,,,,,,,,,,,,0,1,,,,,,,4,10,2,10,,,,,,,,,,,1468.756,1469.255,1469.506,1470.155,space,0.633,,1470.155,52,58,1471.155,1471.155,1471.163,,,,0,24,24,24,1,110,0,,,,,,,,
,,65a6c690858ba02d51bf8905,65af53c796282ee5a07620b6,2024-01-22_23h08.26.664,bars,2023.2.3,Win32,59.95203837,657b66ea316d21385b68909f,,,,,,,,,,,1471.164,1472.155,,,1472.655,1472.905,,132,132,,,,,,,,,,,,,,,,bars/033.png,bars/mask004.png,,,,,,,,,,,,2,2,,,,,,,2,8,2,9,,,,,,,,,,,1472.155,1472.655,1472.905,1473.705,space,0.785,,1473.705,73,23,1474.705,1474.706,1474.714,,,,0,25,25,25,1,25,155,,,,,,,,
,,65a6c690858ba02d51bf8905,65af53c796282ee5a07620b6,2024-01-22_23h08.26.664,bars,2023.2.3,Win32,59.95203837,657b66ea316d21385b68909f,,,,,,,,,,,1474.714,1475.705,,,1476.205,1476.455,,140,140,,,,,,,,,,,,,,,,bars/021.png,bars/mask008.png,,,,,,,,,,,,2,1,,,,,,,4,10,4,10,,,,,,,,,,,1475.705,1476.205,1476.455,1477.105,space,0.635,,1477.105,15,70,1478.106,1478.106,1478.118,,,,0,26,26,26,1,155,70,,,,,,,,
,,65a6c690858ba02d51bf8905,65af53c796282ee5a07620b6,2024-01-22_23h08.26.664,bars,2023.2.3,Win32,59.95203837,657b66ea316d21385b68909f,,,,,,,,,,,1478.119,1479.123,,,1479.622,1479.872,,178,178,,,,,,,,,,,,,,,,bars/043.png,bars/mask008.png,,,,,,,,,,,,0,1,,,,,,,6,8,5,7,,,,,,,,,,,1479.123,1479.622,1479.872,1480.557,space,0.675,,1480.557,32,48,1481.555,1481.555,1481.56,,,,0,27,27,27,1,30,130,,,,,,,,
,,65a6c690858ba02d51bf8905,65af53c796282ee5a07620b6,2024-01-22_23h08.26.664,bars,2023.2.3,Win32,59.95203837,657b66ea316d21385b68909f,,,,,,,,,,,1481.563,1482.555,,,1483.055,1483.305,,93,93,,,,,,,,,,,,,,,,bars/025.png,bars/mask002.png,,,,,,,,,,,,4,1,,,,,,,8,10,7,10,,,,,,,,,,,1482.555,1483.055,1483.305,1484.065,space,0.733,,1484.065,12,53,1485.055,1485.056,1485.06,,,,0,28,28,28,1,105,40,,,,,,,,
,,65a6c690858ba02d51bf8905,65af53c796282ee5a07620b6,2024-01-22_23h08.26.664,bars,2023.2.3,Win32,59.95203837,657b66ea316d21385b68909f,,,,,,,,,,,1485.061,1486.055,,,1486.555,1486.805,,81,81,,,,,,,,,,,,,,,,bars/023.png,bars/mask005.png,,,,,,,,,,,,0,2,,,,,,,10,8,10,7,,,,,,,,,,,1486.055,1486.555,1486.805,1487.538,space,0.718,,1487.539,61,34,1488.539,1488.539,1488.545,,,,0,29,29,29,1,20,115,,,,,,,,
,,65a6c690858ba02d51bf8905,65af53c796282ee5a07620b6,2024-01-22_23h08.26.664,bars,2023.2.3,Win32,59.95203837,657b66ea316d21385b68909f,,,,,,,,,,,1488.546,1489.539,,,1490.038,1490.29,,54,54,,,,,,,,,,,,,,,,bars/041.png,bars/mask002.png,,,,,,,,,,,,0,2,,,,,,,8,6,8,7,,,,,,,,,,,1489.539,1490.038,1490.29,1490.972,space,0.673,,1490.972,34,31,1491.971,1491.971,1491.975,,,,0,30,30,30,1,20,85,,,,,,,,
,,65a6c690858ba02d51bf8905,65af53c796282ee5a07620b6,2024-01-22_23h08.26.664,bars,2023.2.3,Win32,59.95203837,657b66ea316d21385b68909f,,,,,,,,,,,1491.975,1492.972,,,1493.471,1493.722,,112,112,,,,,,,,,,,,,,,,bars/019.png,bars/mask007.png,,,,,,,,,,,,4,2,,,,,,,10,4,10,5,,,,,,,,,,,1492.972,1493.471,1493.722,1494.555,space,0.819,,1494.555,67,7,1495.558,1495.558,1495.562,,,,0,31,31,31,1,45,105,,,,,,,,
,,65a6c690858ba02d51bf8905,65af53c796282ee5a07620b6,2024-01-22_23h08.26.664,bars,2023.2.3,Win32,59.95203837,657b66ea316d21385b68909f,,,,,,,,,,,1495.563,1496.556,,,1497.056,1497.305,,133,133,,,,,,,,,,,,,,,,bars/009.png,bars/mask003.png,,,,,,,,,,,,0,2,,,,,,,10,2,10,2,,,,,,,,,,,1496.556,1497.056,1497.305,1497.972,space,0.653,,1497.972,62,28,1498.972,1498.972,1498.973,,,,0,32,32,32,1,15,105,,,,,,,,
,,65a6c690858ba02d51bf8905,65af53c796282ee5a07620b6,2024-01-22_23h08.26.664,bars,2023.2.3,Win32,59.95203837,657b66ea316d21385b68909f,,,,,,,,,,,1498.974,1499.972,,,1500.471,1500.723,,99,99,,,,,,,,,,,,,,,,bars/005.png,bars/mask004.png,,,,,,,,,,,,0,2,,,,,,,10,4,10,6,,,,,,,,,,,1499.972,1500.471,1500.723,1501.655,space,0.917,,1501.655,89,41,1502.655,1502.655,1502.657,,,,0,33,33,33,1,10,140,,,,,,,,
,,65a6c690858ba02d51bf8905,65af53c796282ee5a07620b6,2024-01-22_23h08.26.664,bars,2023.2.3,Win32,59.95203837,657b66ea316d21385b68909f,,,,,,,,,,,1502.658,1503.655,,,1504.155,1504.405,,19,19,,,,,,,,,,,,,,,,bars/011.png,bars/mask009.png,,,,,,,,,,,,0,1,,,,,,,8,6,6,7,,,,,,,,,,,1503.655,1504.155,1504.406,1505.139,space,0.717,,1505.139,39,66,1506.139,1506.139,1506.147,,,,0,34,34,34,1,160,85,,,,,,,,
,,65a6c690858ba02d51bf8905,65af53c796282ee5a07620b6,2024-01-22_23h08.26.664,bars,2023.2.3,Win32,59.95203837,657b66ea316d21385b68909f,,,,,,,,,,,1506.148,1507.139,,,1507.639,1507.888,,165,165,,,,,,,,,,,,,,,,bars/021.png,bars/mask001.png,,,,,,,,,,,,5,1,,,,,,,6,8,7,7,,,,,,,,,,,1507.139,1507.639,1507.888,1508.655,space,0.75,,1508.655,10,85,1509.655,1509.655,1509.658,,,,0,35,35,35,1,155,70,,,,,,,,
,,65a6c690858ba02d51bf8905,65af53c796282ee5a07620b6,2024-01-22_23h08.26.664,bars,2023.2.3,Win32,59.95203837,657b66ea316d21385b68909f,,,,,,,,,,,1509.66,1510.656,,,1511.155,1511.405,,38,38,,,,,,,,,,,,,,,,bars/004.png,bars/mask006.png,,,,,,,,,,,,5,1,,,,,,,8,10,9,10,,,,,,,,,,,1510.656,1511.155,1511.405,1512.172,space,0.75,,1512.172,13,87,1513.172,1513.172,1513.181,,,,0,36,36,36,1,25,125,,,,,,,,
,,65a6c690858ba02d51bf8905,65af53c796282ee5a07620b6,2024-01-22_23h08.26.664,bars,2023.2.3,Win32,59.95203837,657b66ea316d21385b68909f,,,,,,,,,,,1513.182,1514.172,,,1514.672,1514.922,,170,170,,,,,,,,,,,,,,,,bars/002.png,bars/mask001.png,,,,,,,,,,,,0,1,,,,,,,10,8,10,8,,,,,,,,,,,1514.172,1514.672,1514.922,1515.888,space,0.952,,1515.888,40,85,1516.888,1516.889,1516.893,,,,0,37,37,37,1,130,85,,,,,,,,
,,65a6c690858ba02d51bf8905,65af53c796282ee5a07620b6,2024-01-22_23h08.26.664,bars,2023.2.3,Win32,59.95203837,657b66ea316d21385b68909f,,,,,,,,,,,1516.894,1517.888,,,1518.388,1518.639,,179,-1,,,,,,,,,,,,,,,,bars/005.png,bars/mask003.png,,,,,,,,,,,,6,1,,,,,,,8,10,9,10,,,,,,,,,,,1517.888,1518.388,1518.639,1519.489,space,0.834,,1519.489,11,39,1520.489,1520.489,1520.495,,,,0,38,38,38,1,10,140,,,,,,,,
,,65a6c690858ba02d51bf8905,65af53c796282ee5a07620b6,2024-01-22_23h08.26.664,bars,2023.2.3,Win32,59.95203837,657b66ea316d21385b68909f,,,,,,,,,,,1520.496,1521.488,,,1521.989,1522.239,,65,65,,,,,,,,,,,,,,,,bars/018.png,bars/mask007.png,,,,,,,,,,,,1,2,,,,,,,6,8,5,9,,,,,,,,,,,1521.488,1521.989,1522.239,1523.588,space,1.341,,1523.588,85,25,1524.588,1524.588,1524.598,,,,0,39,39,39,1,150,90,,,,,,,,
,,65a6c690858ba02d51bf8905,65af53c796282ee5a07620b6,2024-01-22_23h08.26.664,bars,2023.2.3,Win32,59.95203837,657b66ea316d21385b68909f,,,,,,,,,,,1524.598,1525.588,,,1526.089,1526.338,,95,95,,,,,,,,,,,,,,,,bars/040.png,bars/mask000.png,,,,,,,,,,,,0,1,,,,,,,4,6,4,6,,,,,,,,,,,1525.588,1526.089,1526.338,1527.472,space,1.117,,1527.472,45,90,1528.472,1528.472,1528.48,,,,0,40,40,40,1,140,5,,,,,,,,
,,65a6c690858ba02d51bf8905,65af53c796282ee5a07620b6,2024-01-22_23h08.26.664,bars,2023.2.3,Win32,59.95203837,657b66ea316d21385b68909f,,,,,,,,,,,1528.481,1529.472,,,1529.972,1530.222,,50,50,,,,,,,,,,,,,,,,bars/026.png,bars/mask005.png,,,,,,,,,,,,1,1,,,,,,,2,8,2,8,,,,,,,,,,,1529.472,1529.972,1530.222,1531.622,space,1.384,,1531.622,15,35,1532.622,1532.622,1532.625,,,,0,41,41,41,1,35,85,,,,,,,,
,,65a6c690858ba02d51bf8905,65af53c796282ee5a07620b6,2024-01-22_23h08.26.664,bars,2023.2.3,Win32,59.95203837,657b66ea316d21385b68909f,,,,,,,,,,,1532.627,1533.622,,,1534.122,1534.371,,140,140,,,,,,,,,,,,,,,,bars/045.png,bars/mask002.png,,,,,,,,,,,,0,1,,,,,,,4,10,2,10,,,,,,,,,,,1533.622,1534.122,1534.371,1535.455,space,1.067,,1535.455,40,50,1536.454,1536.455,1536.458,,,,0,42,42,42,1,100,10,,,,,,,,
,,65a6c690858ba02d51bf8905,65af53c796282ee5a07620b6,2024-01-22_23h08.26.664,bars,2023.2.3,Win32,59.95203837,657b66ea316d21385b68909f,,,,,,,,,,,1536.459,1537.455,,,1537.956,1538.205,,10,10,,,,,,,,,,,,,,,,bars/025.png,bars/mask006.png,,,,,,,,,,,,0,2,,,,,,,6,8,6,8,,,,,,,,,,,1537.455,1537.956,1538.205,1539.239,space,1.018,,1539.239,85,30,1540.239,1540.239,1540.246,,,,0,43,43,43,1,105,40,,,,,,,,
,,65a6c690858ba02d51bf8905,65af53c796282ee5a07620b6,2024-01-22_23h08.26.664,bars,2023.2.3,Win32,59.95203837,657b66ea316d21385b68909f,,,,,,,,,,,1540.247,1541.238,,,1541.738,1541.988,,77,77,,,,,,,,,,,,,,,,bars/002.png,bars/mask002.png,,,,,,,,,,,,7,2,,,,,,,4,10,5,10,,,,,,,,,,,1541.238,1541.738,1541.988,1543.189,space,1.183,,1543.189,53,8,1544.188,1544.188,1544.19,,,,0,44,44,44,1,130,85,,,,,,,,
,,65a6c690858ba02d51bf8905,65af53c796282ee5a07620b6,2024-01-22_23h08.26.664,bars,2023.2.3,Win32,59.95203837,657b66ea316d21385b68909f,,,,,,,,,,,1544.191,1545.19,,,1545.688,1545.939,,85,85,,,,,,,,,,,,,,,,bars/031.png,bars/mask008.png,,,,,,,,,,,,0,1,,,,,,,2,8,2,8,,,,,,,,,,,1545.19,1545.688,1545.939,1547.122,space,1.173,,1547.122,35,50,1548.122,1548.122,1548.131,,,,0,45,45,45,1,120,35,,,,,,,,
,,65a6c690858ba02d51bf8905,65af53c796282ee5a07620b6,2024-01-22_23h08.26.664,bars,2023.2.3,Win32,59.95203837,657b66ea316d21385b68909f,,,,,,,,,,,1548.132,1549.122,,,1549.622,1549.871,,104,104,,,,,,,,,,,,,,,,bars/040.png,bars/mask002.png,,,,,,,,,,,,0,1,,,,,,,0,10,0,10,,,,,,,,,,,1549.122,1549.622,1549.871,1550.989,space,1.103,,1550.989,36,81,1551.989,1551.989,1551.993,,,,0,46,46,46,1,140,5,,,,,,,,
,,65a6c690858ba02d51bf8905,65af53c796282ee5a07620b6,2024-01-22_23h08.26.664,bars,2023.2.3,Win32,59.95203837,657b66ea316d21385b68909f,,,,,,,,,,,1551.995,1552.988,,,1553.488,1553.738,,69,69,,,,,,,,,,,,,,,,bars/031.png,bars/mask008.png,,,,,,,,,,,,0,2,,,,,,,0,8,0,7,,,,,,,,,,,1552.988,1553.488,1553.738,1554.923,space,1.167,,1554.923,51,34,1555.922,1555.922,1555.931,,,,0,47,47,47,1,120,35,,,,,,,,
,,65a6c690858ba02d51bf8905,65af53c796282ee5a07620b6,2024-01-22_23h08.26.664,bars,2023.2.3,Win32,59.95203837,657b66ea316d21385b68909f,,,,,,,,,,,1555.931,1556.921,,,1557.422,1557.671,,75,75,,,,,,,,,,,,,,,,bars/031.png,bars/mask008.png,,,,,,,,,,,,0,2,,,,,,,0,10,0,10,,,,,,,,,,,1556.921,1557.422,1557.672,1558.955,space,1.272,,1558.955,45,40,1559.955,1559.955,1559.957,,,,0,48,48,48,1,120,35,,,,,,,,
,,65a6c690858ba02d51bf8905,65af53c796282ee5a07620b6,2024-01-22_23h08.26.664,bars,2023.2.3,Win32,59.95203837,657b66ea316d21385b68909f,,,,,,,,,,,1559.958,1560.955,,,1561.455,1561.705,,56,56,,,,,,,,,,,,,,,,bars/004.png,bars/mask006.png,,,,,,,,,,,,0,1,,,,,,,2,8,2,10,,,,,,,,,,,1560.955,1561.455,1561.705,1563.088,space,1.369,,1563.088,31,69,1564.088,1564.088,1564.097,,,,0,49,49,49,1,25,125,,,,,,,,
,,65a6c690858ba02d51bf8905,65af53c796282ee5a07620b6,2024-01-22_23h08.26.664,bars,2023.2.3,Win32,59.95203837,657b66ea316d21385b68909f,,,,,,,,,,,,,,,,,,,,,,,,,,,,,,,,,,,,,,,,,,,,,,,,,,,,,,,,,,,,,,,,,,,,,,,,,,,,,,,,,,,,,,,,,,,,,1564.097,1624.089,0,3,3,3,1,sequence_tables/blk037.csv
,,65a6c690858ba02d51bf8905,65af53c796282ee5a07620b6,2024-01-22_23h08.26.664,bars,2023.2.3,Win32,59.95203837,657b66ea316d21385b68909f,,,,,,,,,,,1626.234,1627.221,,,1627.722,1627.972,,10,10,,,,,,,,,,,,,,,,bars/000.png,bars/mask009.png,,,,,,,,,,,,0,1,,,,,,,5,5,4,5,,,,,,1624.096,1626.222,space,2.114,,1627.221,1627.722,1627.972,1630.589,space,2.6,,1630.589,30,45,1631.589,1631.589,1631.593,,,,0,0,0,0,1,40,145,,,,,,,,
,,65a6c690858ba02d51bf8905,65af53c796282ee5a07620b6,2024-01-22_23h08.26.664,bars,2023.2.3,Win32,59.95203837,657b66ea316d21385b68909f,,,,,,,,,,,1631.594,1632.588,,,1633.088,1633.338,,11,11,,,,,,,,,,,,,,,,bars/043.png,bars/mask007.png,,,,,,,,,,,,1,1,,,,,,,3,3,2,2,,,,,,,,,,,1632.588,1633.088,1633.338,1633.989,space,0.632,,1633.989,19,61,1634.989,1634.989,1634.992,,,,0,1,1,1,1,30,130,,,,,,,,
,,65a6c690858ba02d51bf8905,65af53c796282ee5a07620b6,2024-01-22_23h08.26.664,bars,2023.2.3,Win32,59.95203837,657b66ea316d21385b68909f,,,,,,,,,,,1634.993,1635.988,,,1636.488,1636.739,,45,45,,,,,,,,,,,,,,,,bars/003.png,bars/mask008.png,,,,,,,,,,,,2,1,,,,,,,5,1,6,1,,,,,,,,,,,1635.988,1636.488,1636.739,1637.422,space,0.672,,1637.423,20,85,1638.421,1638.421,1638.426,,,,0,2,2,2,1,25,140,,,,,,,,
,,65a6c690858ba02d51bf8905,65af53c796282ee5a07620b6,2024-01-22_23h08.26.664,bars,2023.2.3,Win32,59.95203837,657b66ea316d21385b68909f,,,,,,,,,,,1638.428,1639.422,,,1639.922,1640.172,,97,97,,,,,,,,,,,,,,,,bars/023.png,bars/mask004.png,,,,,,,,,,,,2,2,,,,,,,3,3,5,4,,,,,,,,,,,1639.422,1639.922,1640.172,1640.905,space,0.718,,1640.906,77,18,1641.905,1641.905,1641.916,,,,0,3,3,3,1,20,115,,,,,,,,
,,65a6c690858ba02d51bf8905,65af53c796282ee5a07620b6,2024-01-22_23h08.26.664,bars,2023.2.3,Win32,59.95203837,657b66ea316d21385b68909f,,,,,,,,,,,1641.916,1642.905,,,1643.405,1643.655,,22,22,,,,,,,,,,,,,,,,bars/040.png,bars/mask008.png,,,,,,,,,,,,2,2,,,,,,,1,5,1,5,,,,,,,,,,,1642.905,1643.405,1643.655,1644.305,space,0.637,,1644.305,62,17,1645.305,1645.306,1645.309,,,,0,4,4,4,1,140,5,,,,,,,,
,,65a6c690858ba02d51bf8905,65af53c796282ee5a07620b6,2024-01-22_23h08.26.664,bars,2023.2.3,Win32,59.95203837,657b66ea316d21385b68909f,,,,,,,,,,,1645.31,1646.305,,,1646.805,1647.055,,97,97,,,,,,,,,,,,,,,,bars/007.png,bars/mask001.png,,,,,,,,,,,,0,2,,,,,,,0,3,0,2,,,,,,,,,,,1646.305,1646.805,1647.055,1647.689,space,0.618,,1647.689,78,42,1648.688,1648.688,1648.691,,,,0,5,5,5,1,175,55,,,,,,,,
,,65a6c690858ba02d51bf8905,65af53c796282ee5a07620b6,2024-01-22_23h08.26.664,bars,2023.2.3,Win32,59.95203837,657b66ea316d21385b68909f,,,,,,,,,,,1648.692,1649.689,,,1650.188,1650.439,,164,164,,,,,,,,,,,,,,,,bars/013.png,bars/mask003.png,,,,,,,,,,,,0,2,,,,,,,2,1,3,1,,,,,,,,,,,1649.689,1650.188,1650.439,1651.139,space,0.685,,1651.139,89,26,1652.139,1652.139,1652.146,,,,0,6,6,6,1,75,10,,,,,,,,
,,65a6c690858ba02d51bf8905,65af53c796282ee5a07620b6,2024-01-22_23h08.26.664,bars,2023.2.3,Win32,59.95203837,657b66ea316d21385b68909f,,,,,,,,,,,1652.146,1653.138,,,1653.639,1653.889,,11,11,,,,,,,,,,,,,,,,bars/008.png,bars/mask001.png,,,,,,,,,,,,2,2,,,,,,,4,3,5,3,,,,,,,,,,,1653.138,1653.639,1653.889,1654.905,space,1,,1654.905,81,11,1655.905,1655.905,1655.91,,,,0,7,7,7,1,110,0,,,,,,,,
,,65a6c690858ba02d51bf8905,65af53c796282ee5a07620b6,2024-01-22_23h08.26.664,bars,2023.2.3,Win32,59.95203837,657b66ea316d21385b68909f,,,,,,,,,,,1655.911,1656.908,,,1657.404,1657.655,,70,70,,,,,,,,,,,,,,,,bars/012.png,bars/mask003.png,,,,,,,,,,,,0,1,,,,,,,2,5,1,6,,,,,,,,,,,1656.908,1657.404,1657.655,1658.322,space,0.65,,1658.322,20,55,1659.321,1659.321,1659.33,,,,0,8,8,8,1,90,15,,,,,,,,
,,65a6c690858ba02d51bf8905,65af53c796282ee5a07620b6,2024-01-22_23h08.26.664,bars,2023.2.3,Win32,59.95203837,657b66ea316d21385b68909f,,,,,,,,,,,1659.33,1660.322,,,1660.822,1661.072,,26,26,,,,,,,,,,,,,,,,bars/001.png,bars/mask008.png,,,,,,,,,,,,0,2,,,,,,,4,3,4,4,,,,,,,,,,,1660.322,1660.822,1661.072,1661.722,space,0.635,,1661.722,76,59,1662.722,1662.722,1662.73,,,,0,9,9,9,1,130,85,,,,,,,,
,,65a6c690858ba02d51bf8905,65af53c796282ee5a07620b6,2024-01-22_23h08.26.664,bars,2023.2.3,Win32,59.95203837,657b66ea316d21385b68909f,,,,,,,,,,,1662.73,1663.721,,,1664.222,1664.471,,25,25,,,,,,,,,,,,,,,,bars/039.png,bars/mask000.png,,,,,,,,,,,,0,1,,,,,,,2,5,3,5,,,,,,,,,,,1663.721,1664.222,1664.471,1665.039,space,0.552,,1665.039,30,80,1666.038,1666.038,1666.045,,,,0,10,10,10,1,175,105,,,,,,,,
,,65a6c690858ba02d51bf8905,65af53c796282ee5a07620b6,2024-01-22_23h08.26.664,bars,2023.2.3,Win32,59.95203837,657b66ea316d21385b68909f,,,,,,,,,,,1666.046,1667.038,,,1667.538,1667.788,,133,133,,,,,,,,,,,,,,,,bars/025.png,bars/mask002.png,,,,,,,,,,,,0,1,,,,,,,0,7,0,6,,,,,,,,,,,1667.038,1667.538,1667.788,1668.438,space,0.633,,1668.438,28,87,1669.438,1669.438,1669.442,,,,0,11,11,11,1,105,40,,,,,,,,
,,65a6c690858ba02d51bf8905,65af53c796282ee5a07620b6,2024-01-22_23h08.26.664,bars,2023.2.3,Win32,59.95203837,657b66ea316d21385b68909f,,,,,,,,,,,1669.444,1670.438,,,1670.938,1671.188,,45,45,,,,,,,,,,,,,,,,bars/035.png,bars/mask008.png,,,,,,,,,,,,4,2,,,,,,,0,9,0,8,,,,,,,,,,,1670.438,1670.938,1671.188,1671.888,space,0.682,,1671.888,50,15,1672.89,1672.891,1672.901,,,,0,12,12,12,1,175,60,,,,,,,,
,,65a6c690858ba02d51bf8905,65af53c796282ee5a07620b6,2024-01-22_23h08.26.664,bars,2023.2.3,Win32,59.95203837,657b66ea316d21385b68909f,,,,,,,,,,,1672.902,1673.904,,,1674.405,1674.655,,93,93,,,,,,,,,,,,,,,,bars/019.png,bars/mask000.png,,,,,,,,,,,,4,2,,,,,,,2,7,3,7,,,,,,,,,,,1673.905,1674.405,1674.655,1675.273,space,0.607,,1675.273,48,12,1676.271,1676.271,1676.273,,,,0,13,13,13,1,45,105,,,,,,,,
,,65a6c690858ba02d51bf8905,65af53c796282ee5a07620b6,2024-01-22_23h08.26.664,bars,2023.2.3,Win32,59.95203837,657b66ea316d21385b68909f,,,,,,,,,,,1676.275,1677.272,,,1677.772,1678.021,,44,44,,,,,,,,,,,,,,,,bars/035.png,bars/mask006.png,,,,,,,,,,,,5,2,,,,,,,0,9,0,10,,,,,,,,,,,1677.272,1677.772,1678.021,1678.638,space,0.602,,1678.638,49,16,1679.638,1679.638,1679.642,,,,0,14,14,14,1,175,60,,,,,,,,
,,65a6c690858ba02d51bf8905,65af53c796282ee5a07620b6,2024-01-22_23h08.26.664,bars,2023.2.3,Win32,59.95203837,657b66ea316d21385b68909f,,,,,,,,,,,1679.643,1680.638,,,1681.139,1681.388,,114,114,,,,,,,,,,,,,,,,bars/026.png,bars/mask008.png,,,,,,,,,,,,0,2,,,,,,,0,7,1,7,,,,,,,,,,,1680.638,1681.139,1681.388,1682.304,space,0.899,,1682.305,79,29,1683.305,1683.305,1683.309,,,,0,15,15,15,1,35,85,,,,,,,,
,,65a6c690858ba02d51bf8905,65af53c796282ee5a07620b6,2024-01-22_23h08.26.664,bars,2023.2.3,Win32,59.95203837,657b66ea316d21385b68909f,,,,,,,,,,,1683.31,1684.305,,,1684.804,1685.055,,55,55,,,,,,,,,,,,,,,,bars/035.png,bars/mask006.png,,,,,,,,,,,,5,2,,,,,,,0,9,2,6,,,,,,,,,,,1684.305,1684.804,1685.055,1685.622,space,0.552,,1685.622,60,5,1686.621,1686.622,1686.625,,,,0,16,16,16,1,175,60,,,,,,,,
,,65a6c690858ba02d51bf8905,65af53c796282ee5a07620b6,2024-01-22_23h08.26.664,bars,2023.2.3,Win32,59.95203837,657b66ea316d21385b68909f,,,,,,,,,,,1686.626,1687.621,,,1688.122,1688.371,,60,60,,,,,,,,,,,,,,,,bars/024.png,bars/mask006.png,,,,,,,,,,,,0,1,,,,,,,2,7,2,7,,,,,,,,,,,1687.621,1688.122,1688.371,1689.055,space,0.674,,1689.055,60,70,1690.055,1690.055,1690.064,,,,0,17,17,17,1,120,170,,,,,,,,
,,65a6c690858ba02d51bf8905,65af53c796282ee5a07620b6,2024-01-22_23h08.26.664,bars,2023.2.3,Win32,59.95203837,657b66ea316d21385b68909f,,,,,,,,,,,1690.064,1691.054,,,1691.555,1691.805,,83,83,,,,,,,,,,,,,,,,bars/026.png,bars/mask004.png,,,,,,,,,,,,4,2,,,,,,,0,5,0,4,,,,,,,,,,,1691.054,1691.555,1691.805,1692.772,space,0.952,,1692.772,48,2,1693.772,1693.772,1693.779,,,,0,18,18,18,1,35,85,,,,,,,,
,,65a6c690858ba02d51bf8905,65af53c796282ee5a07620b6,2024-01-22_23h08.26.664,bars,2023.2.3,Win32,59.95203837,657b66ea316d21385b68909f,,,,,,,,,,,1693.78,1694.772,,,1695.271,1695.521,,5,5,,,,,,,,,,,,,,,,bars/047.png,bars/mask002.png,,,,,,,,,,,,1,1,,,,,,,2,7,1,8,,,,,,,,,,,1694.772,1695.271,1695.521,1696.172,space,0.634,,1696.172,10,65,1697.172,1697.172,1697.179,,,,0,19,19,19,1,15,70,,,,,,,,
