init_variables.started,init_variables.stopped,participant,session,date,expName,psychopyVersion,OS,frameRate,study_id,instruction_exp.started,instruction_exp.stopped,key_resp_8.keys,key_resp_8.rt,key_resp_8.duration,instruction_single.started,instruction_single.stopped,key_resp_2.keys,key_resp_2.rt,key_resp_2.duration,interval.started,interval.stopped,cue_single.started,cue_single.stopped,mask.started,mask.stopped,ori_response_single.started,res_ori,res,ori_response_single.stopped,key_resp_single.keys,key_resp_single.rt,key_resp_single.duration,disp_single.started,disp_single.stopped,key_resp.keys,key_resp.rt,key_resp.duration,single.thisRepN,single.thisTrialN,single.thisN,single.thisIndex,single.ran,ori,path,mask_path,instruction_bandit.started,instruction_bandit.stopped,key_resp_6.keys,key_resp_6.rt,key_resp_6.duration,cue_bandit.started,cue_bandit.stopped,bandit_res.keys,bandit_res.rt,bandit_res.duration,outcome_bandit.started,rew,action,outcome_bandit.stopped,bandit.thisRepN,bandit.thisTrialN,bandit.thisN,bandit.thisIndex,bandit.ran,actual_rew1,actual_rew2,rew1,rew2,instruction_task.started,instruction_task.stopped,key_resp_7.keys,key_resp_7.rt,key_resp_7.duration,wait_ready.started,wait_ready.stopped,key_resp_3.keys,key_resp_3.rt,key_resp_3.duration,cue.started,cue.stopped,ori_response.started,ori_response.stopped,key_resp_5.keys,key_resp_5.rt,key_resp_5.duration,outcome.started,diff1,diff2,outcome.stopped,disp_outcome_practice.started,disp_outcome_practice.stopped,key_resp_4.keys,key_resp_4.rt,key_resp_4.duration,trials.thisRepN,trials.thisTrialN,trials.thisN,trials.thisIndex,trials.ran,ori1,ori2,break_blk.started,break_blk.stopped,block.thisRepN,block.thisTrialN,block.thisN,block.thisIndex,block.ran,condition_file
0.0003,0.0005,614e0a7aef8a6dd9107fb1c6,65af563cec02af7510459cf7,2024-01-23_24h03.11.078,bars,2023.2.3,MacIntel,60.14675809,657b66ea316d21385b68909f,,,,,,,,,,,,,,,,,,,,,,,,,,,,,,,,,,,,,,,,,,,,,,,,,,,,,,,,,,,,,,,,,,,,,,,,,,,,,,,,,,,,,,,,,,,,,,,,,,,,
,,614e0a7aef8a6dd9107fb1c6,65af563cec02af7510459cf7,2024-01-23_24h03.11.078,bars,2023.2.3,MacIntel,60.14675809,657b66ea316d21385b68909f,0.0007,6.2679,y,6.2412,,,,,,,,,,,,,,,,,,,,,,,,,,,,,,,,,,,,,,,,,,,,,,,,,,,,,,,,,,,,,,,,,,,,,,,,,,,,,,,,,,,,,,,,,,,,,,,,
,,614e0a7aef8a6dd9107fb1c6,65af563cec02af7510459cf7,2024-01-23_24h03.11.078,bars,2023.2.3,MacIntel,60.14675809,657b66ea316d21385b68909f,,,,,,6.2682,16.9429,space,10.6521,,,,,,,,,,,,,,,,,,,,,,,,,,,,,,,,,,,,,,,,,,,,,,,,,,,,,,,,,,,,,,,,,,,,,,,,,,,,,,,,,,,,,,,,,,,
,,614e0a7aef8a6dd9107fb1c6,65af563cec02af7510459cf7,2024-01-23_24h03.11.078,bars,2023.2.3,MacIntel,60.14675809,657b66ea316d21385b68909f,,,,,,,,,,,16.9494,17.9381,17.9383,18.4405,18.4407,18.6902,18.6905,126,126,24.1246,space,5.4058,,24.1247,28.7155,space,4.5651,,0,0,0,8,1,160,bars/single008.png,bars/mask004.png,,,,,,,,,,,,,,,,,,,,,,,,,,,,,,,,,,,,,,,,,,,,,,,,,,,,,,,,,,,,,,,,
,,614e0a7aef8a6dd9107fb1c6,65af563cec02af7510459cf7,2024-01-23_24h03.11.078,bars,2023.2.3,MacIntel,60.14675809,657b66ea316d21385b68909f,,,,,,,,,,,28.7161,29.7103,29.7103,30.2105,30.2106,30.46,30.46,92,92,34.2331,space,3.7528,,34.2332,37.925,space,3.6795,,0,1,1,4,1,95,bars/single004.png,bars/mask004.png,,,,,,,,,,,,,,,,,,,,,,,,,,,,,,,,,,,,,,,,,,,,,,,,,,,,,,,,,,,,,,,,
,,614e0a7aef8a6dd9107fb1c6,65af563cec02af7510459cf7,2024-01-23_24h03.11.078,bars,2023.2.3,MacIntel,60.14675809,657b66ea316d21385b68909f,,,,,,,,,,,37.9255,38.9235,38.9235,39.4207,39.4209,39.6704,39.6704,140,140,43.0137,space,3.3255,,43.0138,45.0077,space,1.9734,,0,2,2,2,1,145,bars/single002.png,bars/mask003.png,,,,,,,,,,,,,,,,,,,,,,,,,,,,,,,,,,,,,,,,,,,,,,,,,,,,,,,,,,,,,,,,
,,614e0a7aef8a6dd9107fb1c6,65af563cec02af7510459cf7,2024-01-23_24h03.11.078,bars,2023.2.3,MacIntel,60.14675809,657b66ea316d21385b68909f,,,,,,,,,,,45.008,46.0066,46.0067,46.5047,46.5047,46.7548,46.7549,158,158,54.3187,space,7.5441,,54.3187,56.814,space,2.4831,,0,3,3,0,1,150,bars/single000.png,bars/mask006.png,,,,,,,,,,,,,,,,,,,,,,,,,,,,,,,,,,,,,,,,,,,,,,,,,,,,,,,,,,,,,,,,
,,614e0a7aef8a6dd9107fb1c6,65af563cec02af7510459cf7,2024-01-23_24h03.11.078,bars,2023.2.3,MacIntel,60.14675809,657b66ea316d21385b68909f,,,,,,,,,,,56.8147,57.8109,57.8109,58.311,58.3111,58.5602,58.5602,21,201,64.595,space,6.0198,,64.595,66.4234,space,1.8137,,0,4,4,1,1,20,bars/single001.png,bars/mask006.png,,,,,,,,,,,,,,,,,,,,,,,,,,,,,,,,,,,,,,,,,,,,,,,,,,,,,,,,,,,,,,,,
,,614e0a7aef8a6dd9107fb1c6,65af563cec02af7510459cf7,2024-01-23_24h03.11.078,bars,2023.2.3,MacIntel,60.14675809,657b66ea316d21385b68909f,,,,,,,,,,,66.4237,67.4243,67.4244,67.9222,67.9223,68.1728,68.1729,59,59,74.9378,space,6.7513,,74.9379,75.9181,space,0.9676,,0,5,5,5,1,55,bars/single005.png,bars/mask008.png,,,,,,,,,,,,,,,,,,,,,,,,,,,,,,,,,,,,,,,,,,,,,,,,,,,,,,,,,,,,,,,,
,,614e0a7aef8a6dd9107fb1c6,65af563cec02af7510459cf7,2024-01-23_24h03.11.078,bars,2023.2.3,MacIntel,60.14675809,657b66ea316d21385b68909f,,,,,,,,,,,75.9183,76.9158,76.9158,77.4157,77.4157,77.6644,77.6645,179,179,86.5947,space,8.913,,86.5947,88.2079,space,1.6015,,0,6,6,6,1,175,bars/single006.png,bars/mask005.png,,,,,,,,,,,,,,,,,,,,,,,,,,,,,,,,,,,,,,,,,,,,,,,,,,,,,,,,,,,,,,,,
,,614e0a7aef8a6dd9107fb1c6,65af563cec02af7510459cf7,2024-01-23_24h03.11.078,bars,2023.2.3,MacIntel,60.14675809,657b66ea316d21385b68909f,,,,,,,,,,,88.2083,89.2036,89.2037,89.7039,89.7039,89.9517,89.9518,8,8,98.2658,space,8.2962,,98.2659,99.5644,space,1.2828,,0,7,7,9,1,20,bars/single009.png,bars/mask006.png,,,,,,,,,,,,,,,,,,,,,,,,,,,,,,,,,,,,,,,,,,,,,,,,,,,,,,,,,,,,,,,,
,,614e0a7aef8a6dd9107fb1c6,65af563cec02af7510459cf7,2024-01-23_24h03.11.078,bars,2023.2.3,MacIntel,60.14675809,657b66ea316d21385b68909f,,,,,,,,,,,99.5647,100.5598,100.5599,101.0591,101.0591,101.3081,101.3081,42,42,105.6487,space,4.3296,,105.6488,106.6807,space,1.0176,,0,8,8,3,1,20,bars/single003.png,bars/mask005.png,,,,,,,,,,,,,,,,,,,,,,,,,,,,,,,,,,,,,,,,,,,,,,,,,,,,,,,,,,,,,,,,
,,614e0a7aef8a6dd9107fb1c6,65af563cec02af7510459cf7,2024-01-23_24h03.11.078,bars,2023.2.3,MacIntel,60.14675809,657b66ea316d21385b68909f,,,,,,,,,,,106.681,107.6774,107.6775,108.1756,108.1756,108.4248,108.4248,17,17,110.3204,space,1.8854,,110.3206,111.2037,space,0.8654,,0,9,9,7,1,45,bars/single007.png,bars/mask009.png,,,,,,,,,,,,,,,,,,,,,,,,,,,,,,,,,,,,,,,,,,,,,,,,,,,,,,,,,,,,,,,,
,,614e0a7aef8a6dd9107fb1c6,65af563cec02af7510459cf7,2024-01-23_24h03.11.078,bars,2023.2.3,MacIntel,60.14675809,657b66ea316d21385b68909f,,,,,,,,,,,,,,,,,,,,,,,,,,,,,,,,,,,,,111.2047,129.4596,space,18.2361,,,,,,,,,,,,,,,,,,,,,,,,,,,,,,,,,,,,,,,,,,,,,,,,,,,,,,,,,,,,
,,614e0a7aef8a6dd9107fb1c6,65af563cec02af7510459cf7,2024-01-23_24h03.11.078,bars,2023.2.3,MacIntel,60.14675809,657b66ea316d21385b68909f,,,,,,,,,,,,,,,,,,,,,,,,,,,,,,,,,,,,,,,,,,129.462,134.3151,right,4.8246,,134.3153,2,2,135.3111,0,0,0,0,1,9,1,9,2,,,,,,,,,,,,,,,,,,,,,,,,,,,,,,,,,,,,,,,,,
,,614e0a7aef8a6dd9107fb1c6,65af563cec02af7510459cf7,2024-01-23_24h03.11.078,bars,2023.2.3,MacIntel,60.14675809,657b66ea316d21385b68909f,,,,,,,,,,,,,,,,,,,,,,,,,,,,,,,,,,,,,,,,,,135.3116,137.6572,right,2.3327,,137.6573,1,2,138.6554,0,1,1,1,1,10,0,10,1,,,,,,,,,,,,,,,,,,,,,,,,,,,,,,,,,,,,,,,,,
,,614e0a7aef8a6dd9107fb1c6,65af563cec02af7510459cf7,2024-01-23_24h03.11.078,bars,2023.2.3,MacIntel,60.14675809,657b66ea316d21385b68909f,,,,,,,,,,,,,,,,,,,,,,,,,,,,,,,,,,,,,,,,,,138.6559,140.0003,right,1.334,,140.0004,2,2,140.9979,0,2,2,2,1,10,2,10,2,,,,,,,,,,,,,,,,,,,,,,,,,,,,,,,,,,,,,,,,,
,,614e0a7aef8a6dd9107fb1c6,65af563cec02af7510459cf7,2024-01-23_24h03.11.078,bars,2023.2.3,MacIntel,60.14675809,657b66ea316d21385b68909f,,,,,,,,,,,,,,,,,,,,,,,,,,,,,,,,,,,,,,,,,,140.9982,144.0079,right,2.9972,,144.008,3,2,145.0051,0,3,3,3,1,8,4,7,3,,,,,,,,,,,,,,,,,,,,,,,,,,,,,,,,,,,,,,,,,
,,614e0a7aef8a6dd9107fb1c6,65af563cec02af7510459cf7,2024-01-23_24h03.11.078,bars,2023.2.3,MacIntel,60.14675809,657b66ea316d21385b68909f,,,,,,,,,,,,,,,,,,,,,,,,,,,,,,,,,,,,,,,,,,145.0054,146.8019,right,1.78,,146.8019,1,2,147.8003,0,4,4,4,1,6,2,5,1,,,,,,,,,,,,,,,,,,,,,,,,,,,,,,,,,,,,,,,,,
,,614e0a7aef8a6dd9107fb1c6,65af563cec02af7510459cf7,2024-01-23_24h03.11.078,bars,2023.2.3,MacIntel,60.14675809,657b66ea316d21385b68909f,,,,,,,,,,,,,,,,,,,,,,,,,,,,,,,,,,,,,,,,,,147.8007,148.4309,left,0.6147,,148.431,4,1,149.4276,0,5,5,5,1,4,4,4,4,,,,,,,,,,,,,,,,,,,,,,,,,,,,,,,,,,,,,,,,,
,,614e0a7aef8a6dd9107fb1c6,65af563cec02af7510459cf7,2024-01-23_24h03.11.078,bars,2023.2.3,MacIntel,60.14675809,657b66ea316d21385b68909f,,,,,,,,,,,,,,,,,,,,,,,,,,,,,,,,,,,,,,,,,,149.4279,150.559,right,1.119,,150.559,2,2,151.556,0,6,6,6,1,2,2,1,2,,,,,,,,,,,,,,,,,,,,,,,,,,,,,,,,,,,,,,,,,
,,614e0a7aef8a6dd9107fb1c6,65af563cec02af7510459cf7,2024-01-23_24h03.11.078,bars,2023.2.3,MacIntel,60.14675809,657b66ea316d21385b68909f,,,,,,,,,,,,,,,,,,,,,,,,,,,,,,,,,,,,,,,,,,151.5563,152.305,left,0.737,,152.3051,0,1,153.3037,0,7,7,7,1,0,0,0,1,,,,,,,,,,,,,,,,,,,,,,,,,,,,,,,,,,,,,,,,,
,,614e0a7aef8a6dd9107fb1c6,65af563cec02af7510459cf7,2024-01-23_24h03.11.078,bars,2023.2.3,MacIntel,60.14675809,657b66ea316d21385b68909f,,,,,,,,,,,,,,,,,,,,,,,,,,,,,,,,,,,,,,,,,,153.3042,153.9007,right,0.5777,,153.9008,0,2,154.8988,0,8,8,8,1,0,2,1,0,,,,,,,,,,,,,,,,,,,,,,,,,,,,,,,,,,,,,,,,,
,,614e0a7aef8a6dd9107fb1c6,65af563cec02af7510459cf7,2024-01-23_24h03.11.078,bars,2023.2.3,MacIntel,60.14675809,657b66ea316d21385b68909f,,,,,,,,,,,,,,,,,,,,,,,,,,,,,,,,,,,,,,,,,,154.8991,155.33,left,0.4126,,155.33,2,1,156.3276,0,9,9,9,1,2,4,2,3,,,,,,,,,,,,,,,,,,,,,,,,,,,,,,,,,,,,,,,,,
,,614e0a7aef8a6dd9107fb1c6,65af563cec02af7510459cf7,2024-01-23_24h03.11.078,bars,2023.2.3,MacIntel,60.14675809,657b66ea316d21385b68909f,,,,,,,,,,,,,,,,,,,,,,,,,,,,,,,,,,,,,,,,,,156.328,156.779,right,0.4428,,156.779,3,2,157.7749,0,10,10,10,1,0,2,0,3,,,,,,,,,,,,,,,,,,,,,,,,,,,,,,,,,,,,,,,,,
,,614e0a7aef8a6dd9107fb1c6,65af563cec02af7510459cf7,2024-01-23_24h03.11.078,bars,2023.2.3,MacIntel,60.14675809,657b66ea316d21385b68909f,,,,,,,,,,,,,,,,,,,,,,,,,,,,,,,,,,,,,,,,,,157.7753,158.1586,left,0.3724,,158.1586,0,1,159.1551,0,11,11,11,1,0,4,0,3,,,,,,,,,,,,,,,,,,,,,,,,,,,,,,,,,,,,,,,,,
,,614e0a7aef8a6dd9107fb1c6,65af563cec02af7510459cf7,2024-01-23_24h03.11.078,bars,2023.2.3,MacIntel,60.14675809,657b66ea316d21385b68909f,,,,,,,,,,,,,,,,,,,,,,,,,,,,,,,,,,,,,,,,,,159.1555,160.785,right,1.6151,,160.7851,6,2,161.7835,0,12,12,12,1,2,6,1,6,,,,,,,,,,,,,,,,,,,,,,,,,,,,,,,,,,,,,,,,,
,,614e0a7aef8a6dd9107fb1c6,65af563cec02af7510459cf7,2024-01-23_24h03.11.078,bars,2023.2.3,MacIntel,60.14675809,657b66ea316d21385b68909f,,,,,,,,,,,,,,,,,,,,,,,,,,,,,,,,,,,,,,,,,,161.784,164.5257,right,2.7263,,164.5258,3,2,165.5232,0,13,13,13,1,0,4,1,3,,,,,,,,,,,,,,,,,,,,,,,,,,,,,,,,,,,,,,,,,
,,614e0a7aef8a6dd9107fb1c6,65af563cec02af7510459cf7,2024-01-23_24h03.11.078,bars,2023.2.3,MacIntel,60.14675809,657b66ea316d21385b68909f,,,,,,,,,,,,,,,,,,,,,,,,,,,,,,,,,,,,,,,,,,165.5236,165.9733,left,0.4277,,165.9733,2,1,166.97,0,14,14,14,1,2,6,2,7,,,,,,,,,,,,,,,,,,,,,,,,,,,,,,,,,,,,,,,,,
,,614e0a7aef8a6dd9107fb1c6,65af563cec02af7510459cf7,2024-01-23_24h03.11.078,bars,2023.2.3,MacIntel,60.14675809,657b66ea316d21385b68909f,,,,,,,,,,,,,,,,,,,,,,,,,,,,,,,,,,,,,,,,,,166.9703,167.4034,right,0.4237,,167.4035,9,2,168.4021,0,15,15,15,1,4,8,3,9,,,,,,,,,,,,,,,,,,,,,,,,,,,,,,,,,,,,,,,,,
,,614e0a7aef8a6dd9107fb1c6,65af563cec02af7510459cf7,2024-01-23_24h03.11.078,bars,2023.2.3,MacIntel,60.14675809,657b66ea316d21385b68909f,,,,,,,,,,,,,,,,,,,,,,,,,,,,,,,,,,,,,,,,,,168.4026,169.2312,left,0.8133,,169.2313,7,1,170.2288,0,16,16,16,1,6,6,7,7,,,,,,,,,,,,,,,,,,,,,,,,,,,,,,,,,,,,,,,,,
,,614e0a7aef8a6dd9107fb1c6,65af563cec02af7510459cf7,2024-01-23_24h03.11.078,bars,2023.2.3,MacIntel,60.14675809,657b66ea316d21385b68909f,,,,,,,,,,,,,,,,,,,,,,,,,,,,,,,,,,,,,,,,,,170.2292,170.6117,right,0.3732,,170.6118,5,2,171.609,0,17,17,17,1,8,4,9,5,,,,,,,,,,,,,,,,,,,,,,,,,,,,,,,,,,,,,,,,,
,,614e0a7aef8a6dd9107fb1c6,65af563cec02af7510459cf7,2024-01-23_24h03.11.078,bars,2023.2.3,MacIntel,60.14675809,657b66ea316d21385b68909f,,,,,,,,,,,,,,,,,,,,,,,,,,,,,,,,,,,,,,,,,,171.6094,172.008,left,0.3847,,172.008,5,1,173.0081,0,18,18,18,1,6,2,5,1,,,,,,,,,,,,,,,,,,,,,,,,,,,,,,,,,,,,,,,,,
,,614e0a7aef8a6dd9107fb1c6,65af563cec02af7510459cf7,2024-01-23_24h03.11.078,bars,2023.2.3,MacIntel,60.14675809,657b66ea316d21385b68909f,,,,,,,,,,,,,,,,,,,,,,,,,,,,,,,,,,,,,,,,,,173.0086,173.5226,right,0.4951,,173.5226,0,2,174.5201,0,19,19,19,1,8,0,7,0,,,,,,,,,,,,,,,,,,,,,,,,,,,,,,,,,,,,,,,,,
,,614e0a7aef8a6dd9107fb1c6,65af563cec02af7510459cf7,2024-01-23_24h03.11.078,bars,2023.2.3,MacIntel,60.14675809,657b66ea316d21385b68909f,,,,,,,,,,,,,,,,,,,,,,,,,,,,,,,,,,,,,,,,,,,,,,,,,,,,,,,,,,,,174.521,185.5768,space,11.0375,,,,,,,,,,,,,,,,,,,,,,,,,,,,,,,,,,,,,
,,614e0a7aef8a6dd9107fb1c6,65af563cec02af7510459cf7,2024-01-23_24h03.11.078,bars,2023.2.3,MacIntel,60.14675809,657b66ea316d21385b68909f,,,,,,,,,,,186.7449,187.738,,,188.2384,188.4874,,164,164,,,,,,,,,,,,,,,,bars/029.png,bars/mask002.png,,,,,,,,,,,,0,2,,,,,,,2,3,5,3,,,,,,185.5796,186.7408,space,1.1398,,187.7382,188.2384,188.4878,194.5559,space,6.0534,,194.5562,74,61,195.5528,195.553,203.5342,space,7.9531,,0,0,0,0,1,90,45,,,,,,,,
,,614e0a7aef8a6dd9107fb1c6,65af563cec02af7510459cf7,2024-01-23_24h03.11.078,bars,2023.2.3,MacIntel,60.14675809,657b66ea316d21385b68909f,,,,,,,,,,,203.5348,204.5316,,,205.0308,205.2801,,93,93,,,,,,,,,,,,,,,,bars/023.png,bars/mask009.png,,,,,,,,,,,,0,2,,,,,,,4,1,3,1,,,,,,,,,,,204.5316,205.0307,205.2803,210.9673,space,5.6747,,210.9674,73,22,211.9641,211.9641,213.826,space,1.8464,,0,1,1,1,1,20,115,,,,,,,,
,,614e0a7aef8a6dd9107fb1c6,65af563cec02af7510459cf7,2024-01-23_24h03.11.078,bars,2023.2.3,MacIntel,60.14675809,657b66ea316d21385b68909f,,,,,,,,,,,213.8263,214.8238,,,215.3243,215.5721,,20,20,,,,,,,,,,,,,,,,bars/031.png,bars/mask008.png,,,,,,,,,,,,0,2,,,,,,,6,0,5,0,,,,,,,,,,,214.8239,215.3242,215.5722,217.4194,space,1.8307,,217.4196,80,15,218.417,218.4171,219.4808,space,1.0509,,0,2,2,2,1,120,35,,,,,,,,
,,614e0a7aef8a6dd9107fb1c6,65af563cec02af7510459cf7,2024-01-23_24h03.11.078,bars,2023.2.3,MacIntel,60.14675809,657b66ea316d21385b68909f,,,,,,,,,,,219.4812,220.4787,,,220.9775,221.2274,,48,48,,,,,,,,,,,,,,,,bars/028.png,bars/mask008.png,,,,,,,,,,,,4,1,,,,,,,4,2,4,2,,,,,,,,,,,220.4787,220.9775,221.2275,227.0626,space,5.8191,,227.0628,3,72,228.0606,228.0606,230.2387,space,2.1562,,0,3,3,3,1,45,120,,,,,,,,
,,614e0a7aef8a6dd9107fb1c6,65af563cec02af7510459cf7,2024-01-23_24h03.11.078,bars,2023.2.3,MacIntel,60.14675809,657b66ea316d21385b68909f,,,,,,,,,,,230.239,231.2353,,,231.7343,231.9838,,122,122,,,,,,,,,,,,,,,,bars/009.png,bars/mask005.png,,,,,,,,,,,,2,2,,,,,,,6,4,6,4,,,,,,,,,,,231.2353,231.7342,231.9838,234.3789,space,2.3833,,234.379,73,17,235.3767,235.3767,236.1239,space,0.7296,,0,4,4,4,1,15,105,,,,,,,,
,,614e0a7aef8a6dd9107fb1c6,65af563cec02af7510459cf7,2024-01-23_24h03.11.078,bars,2023.2.3,MacIntel,60.14675809,657b66ea316d21385b68909f,,,,,,,,,,,236.1241,237.1234,,,237.6205,237.8699,,0,0,,,,,,,,,,,,,,,,bars/014.png,bars/mask001.png,,,,,,,,,,,,2,2,,,,,,,4,2,3,2,,,,,,,,,,,237.1235,237.6204,237.87,242.9577,space,5.0715,,242.9578,80,0,243.9559,243.9559,246.3661,space,2.3932,,0,5,5,5,1,80,0,,,,,,,,
,,614e0a7aef8a6dd9107fb1c6,65af563cec02af7510459cf7,2024-01-23_24h03.11.078,bars,2023.2.3,MacIntel,60.14675809,657b66ea316d21385b68909f,,,,,,,,,,,246.3666,247.3651,,,247.8628,248.1121,,156,-24,,,,,,,,,,,,,,,,bars/007.png,bars/mask004.png,,,,,,,,,,,,1,1,,,,,,,2,4,2,5,,,,,,,,,,,247.3651,247.8627,248.1122,253.6163,space,5.4891,,253.6165,19,79,254.6147,254.6147,255.6124,space,0.9729,,0,6,6,6,1,175,55,,,,,,,,
,,614e0a7aef8a6dd9107fb1c6,65af563cec02af7510459cf7,2024-01-23_24h03.11.078,bars,2023.2.3,MacIntel,60.14675809,657b66ea316d21385b68909f,,,,,,,,,,,255.6128,256.6098,,,257.1098,257.3578,,28,28,,,,,,,,,,,,,,,,bars/034.png,bars/mask002.png,,,,,,,,,,,,0,2,,,,,,,4,2,5,2,,,,,,,,,,,256.6099,257.1098,257.3578,262.0134,space,4.6387,,262.0136,83,37,263.012,263.0121,263.7593,space,0.7323,,0,7,7,7,1,125,65,,,,,,,,
,,614e0a7aef8a6dd9107fb1c6,65af563cec02af7510459cf7,2024-01-23_24h03.11.078,bars,2023.2.3,MacIntel,60.14675809,657b66ea316d21385b68909f,,,,,,,,,,,263.7598,264.7583,,,265.2551,265.5044,,62,62,,,,,,,,,,,,,,,,bars/004.png,bars/mask004.png,,,,,,,,,,,,0,1,,,,,,,2,4,2,6,,,,,,,,,,,264.7584,265.255,265.5044,268.8479,space,3.3348,,268.848,37,63,269.8444,269.8445,270.6589,space,0.7954,,0,8,8,8,1,25,125,,,,,,,,
,,614e0a7aef8a6dd9107fb1c6,65af563cec02af7510459cf7,2024-01-23_24h03.11.078,bars,2023.2.3,MacIntel,60.14675809,657b66ea316d21385b68909f,,,,,,,,,,,270.6593,271.6575,,,272.1554,272.4048,,158,158,,,,,,,,,,,,,,,,bars/040.png,bars/mask005.png,,,,,,,,,,,,0,1,,,,,,,0,2,0,2,,,,,,,,,,,271.6576,272.1554,272.4049,276.1462,space,3.73,,276.1462,18,27,277.145,277.1451,278.0255,space,0.8648,,0,9,9,9,1,140,5,,,,,,,,
,,614e0a7aef8a6dd9107fb1c6,65af563cec02af7510459cf7,2024-01-23_24h03.11.078,bars,2023.2.3,MacIntel,60.14675809,657b66ea316d21385b68909f,,,,,,,,,,,278.026,279.0239,,,279.5226,279.7709,,83,83,,,,,,,,,,,,,,,,bars/001.png,bars/mask004.png,,,,,,,,,,,,5,2,,,,,,,0,4,0,5,,,,,,,,,,,279.0239,279.5225,279.7709,287.4874,space,7.7045,,287.4875,47,2,288.4841,288.4842,288.8833,space,0.381,,0,10,10,10,1,130,85,,,,,,,,
,,614e0a7aef8a6dd9107fb1c6,65af563cec02af7510459cf7,2024-01-23_24h03.11.078,bars,2023.2.3,MacIntel,60.14675809,657b66ea316d21385b68909f,,,,,,,,,,,288.8839,289.8803,,,290.3814,290.6286,,81,81,,,,,,,,,,,,,,,,bars/002.png,bars/mask008.png,,,,,,,,,,,,0,2,,,,,,,2,2,1,0,,,,,,,,,,,289.8803,290.3814,290.6287,298.4977,space,7.8599,,298.4978,49,4,299.4921,299.4921,301.2373,space,1.7296,,0,11,11,11,1,130,85,,,,,,,,
,,614e0a7aef8a6dd9107fb1c6,65af563cec02af7510459cf7,2024-01-23_24h03.11.078,bars,2023.2.3,MacIntel,60.14675809,657b66ea316d21385b68909f,,,,,,,,,,,301.2378,302.2352,,,302.7349,302.983,,100,100,,,,,,,,,,,,,,,,bars/037.png,bars/mask005.png,,,,,,,,,,,,4,2,,,,,,,4,4,5,5,,,,,,,,,,,302.2352,302.7348,302.983,310.0159,space,7.019,,310.016,50,5,311.0139,311.014,311.6634,space,0.6367,,0,12,12,12,1,150,105,,,,,,,,
,,614e0a7aef8a6dd9107fb1c6,65af563cec02af7510459cf7,2024-01-23_24h03.11.078,bars,2023.2.3,MacIntel,60.14675809,657b66ea316d21385b68909f,,,,,,,,,,,311.6639,312.6613,,,313.16,313.4083,,96,96,,,,,,,,,,,,,,,,bars/039.png,bars/mask004.png,,,,,,,,,,,,2,2,,,,,,,2,2,0,3,,,,,,,,,,,312.6614,313.16,313.4083,318.565,space,5.1373,,318.565,79,9,319.5603,319.5603,319.7938,space,0.2183,,0,13,13,13,1,175,105,,,,,,,,
,,614e0a7aef8a6dd9107fb1c6,65af563cec02af7510459cf7,2024-01-23_24h03.11.078,bars,2023.2.3,MacIntel,60.14675809,657b66ea316d21385b68909f,,,,,,,,,,,319.7944,320.7905,,,321.2897,321.539,,98,98,,,,,,,,,,,,,,,,bars/039.png,bars/mask006.png,,,,,,,,,,,,3,2,,,,,,,4,4,5,4,,,,,,,,,,,320.7906,321.2897,321.539,326.3111,space,4.765,,326.3112,77,7,327.3106,327.3108,327.9576,space,0.6319,,0,14,14,14,1,175,105,,,,,,,,
,,614e0a7aef8a6dd9107fb1c6,65af563cec02af7510459cf7,2024-01-23_24h03.11.078,bars,2023.2.3,MacIntel,60.14675809,657b66ea316d21385b68909f,,,,,,,,,,,327.9579,328.9557,,,329.4544,329.7033,,19,19,,,,,,,,,,,,,,,,bars/022.png,bars/mask002.png,,,,,,,,,,,,7,2,,,,,,,2,6,1,7,,,,,,,,,,,328.9558,329.4544,329.7033,331.1665,space,1.4478,,331.1666,76,1,332.165,332.165,332.7297,space,0.5439,,0,15,15,15,1,95,20,,,,,,,,
,,614e0a7aef8a6dd9107fb1c6,65af563cec02af7510459cf7,2024-01-23_24h03.11.078,bars,2023.2.3,MacIntel,60.14675809,657b66ea316d21385b68909f,,,,,,,,,,,332.7303,333.7271,,,334.2261,334.4751,,136,136,,,,,,,,,,,,,,,,bars/000.png,bars/mask006.png,,,,,,,,,,,,4,2,,,,,,,4,4,2,5,,,,,,,,,,,333.7271,334.226,334.4751,340.8606,space,6.3757,,340.8606,84,9,341.8578,341.8578,342.2576,space,0.3848,,0,16,16,16,1,40,145,,,,,,,,
,,614e0a7aef8a6dd9107fb1c6,65af563cec02af7510459cf7,2024-01-23_24h03.11.078,bars,2023.2.3,MacIntel,60.14675809,657b66ea316d21385b68909f,,,,,,,,,,,342.2579,343.2544,,,343.7536,344.0029,,179,-1,,,,,,,,,,,,,,,,bars/032.png,bars/mask005.png,,,,,,,,,,,,1,2,,,,,,,6,2,5,2,,,,,,,,,,,343.2544,343.7536,344.003,347.8605,space,3.8426,,347.8605,54,21,348.8592,348.8592,349.2753,space,0.3988,,0,17,17,17,1,125,20,,,,,,,,
,,614e0a7aef8a6dd9107fb1c6,65af563cec02af7510459cf7,2024-01-23_24h03.11.078,bars,2023.2.3,MacIntel,60.14675809,657b66ea316d21385b68909f,,,,,,,,,,,349.2757,350.2715,,,350.7716,351.0195,,175,-5,,,,,,,,,,,,,,,,bars/012.png,bars/mask009.png,,,,,,,,,,,,1,2,,,,,,,8,4,7,3,,,,,,,,,,,350.2716,350.7716,351.0195,355.1267,space,4.0903,,355.1267,85,20,356.124,356.124,356.8567,space,0.7185,,0,18,18,18,1,90,15,,,,,,,,
,,614e0a7aef8a6dd9107fb1c6,65af563cec02af7510459cf7,2024-01-23_24h03.11.078,bars,2023.2.3,MacIntel,60.14675809,657b66ea316d21385b68909f,,,,,,,,,,,356.8573,357.8548,,,358.3533,358.6026,,36,36,,,,,,,,,,,,,,,,bars/027.png,bars/mask003.png,,,,,,,,,,,,2,2,,,,,,,6,2,5,3,,,,,,,,,,,357.8548,358.3533,358.6026,362.1273,space,3.5046,,362.1274,74,14,363.126,363.1261,363.4736,space,0.3341,,0,19,19,19,1,110,50,,,,,,,,
,,614e0a7aef8a6dd9107fb1c6,65af563cec02af7510459cf7,2024-01-23_24h03.11.078,bars,2023.2.3,MacIntel,60.14675809,657b66ea316d21385b68909f,,,,,,,,,,,363.4739,364.4712,,,364.9703,365.2197,,109,109,,,,,,,,,,,,,,,,bars/039.png,bars/mask004.png,,,,,,,,,,,,2,2,,,,,,,8,4,8,2,,,,,,,,,,,364.4713,364.9703,365.2197,371.6557,space,6.4188,,371.6557,66,4,372.6534,372.6534,372.7021,space,0.0302,,0,20,20,20,1,175,105,,,,,,,,
,,614e0a7aef8a6dd9107fb1c6,65af563cec02af7510459cf7,2024-01-23_24h03.11.078,bars,2023.2.3,MacIntel,60.14675809,657b66ea316d21385b68909f,,,,,,,,,,,372.7025,373.7003,,,374.1986,374.447,,163,-17,,,,,,,,,,,,,,,,bars/008.png,bars/mask005.png,,,,,,,,,,,,3,2,,,,,,,6,6,5,6,,,,,,,,,,,373.7003,374.1986,374.447,378.755,space,4.2959,,378.755,53,17,379.7531,379.7532,380.0531,space,0.2825,,0,21,21,21,1,110,0,,,,,,,,
,,614e0a7aef8a6dd9107fb1c6,65af563cec02af7510459cf7,2024-01-23_24h03.11.078,bars,2023.2.3,MacIntel,60.14675809,657b66ea316d21385b68909f,,,,,,,,,,,380.0534,381.0503,,,381.5477,381.7986,,154,-26,,,,,,,,,,,,,,,,bars/000.png,bars/mask001.png,,,,,,,,,,,,3,2,,,,,,,8,4,9,4,,,,,,,,,,,381.0504,381.5476,381.7986,386.7685,space,4.9545,,386.7687,66,9,387.7677,387.7677,388.1498,space,0.3659,,0,22,22,22,1,40,145,,,,,,,,
,,614e0a7aef8a6dd9107fb1c6,65af563cec02af7510459cf7,2024-01-23_24h03.11.078,bars,2023.2.3,MacIntel,60.14675809,657b66ea316d21385b68909f,,,,,,,,,,,388.1503,389.1477,,,389.6469,389.8966,,63,63,,,,,,,,,,,,,,,,bars/028.png,bars/mask002.png,,,,,,,,,,,,4,1,,,,,,,10,2,10,2,,,,,,,,,,,389.1478,389.6467,389.8967,390.7761,space,0.8682,,390.7762,18,57,391.7734,391.7735,392.2567,space,0.4582,,0,23,23,23,1,45,120,,,,,,,,
,,614e0a7aef8a6dd9107fb1c6,65af563cec02af7510459cf7,2024-01-23_24h03.11.078,bars,2023.2.3,MacIntel,60.14675809,657b66ea316d21385b68909f,,,,,,,,,,,392.2573,393.2534,,,393.7537,394.0034,,146,-34,,,,,,,,,,,,,,,,bars/020.png,bars/mask009.png,,,,,,,,,,,,1,2,,,,,,,10,4,10,6,,,,,,,,,,,393.2535,393.7537,394.0035,400.6859,space,6.6674,,400.6859,31,24,401.6834,401.6835,402.0004,space,0.2964,,0,24,24,24,1,115,170,,,,,,,,
,,614e0a7aef8a6dd9107fb1c6,65af563cec02af7510459cf7,2024-01-23_24h03.11.078,bars,2023.2.3,MacIntel,60.14675809,657b66ea316d21385b68909f,,,,,,,,,,,402.0007,402.9972,,,403.4958,403.7453,,36,216,,,,,,,,,,,,,,,,bars/007.png,bars/mask009.png,,,,,,,,,,,,3,2,,,,,,,10,6,9,7,,,,,,,,,,,402.9972,403.4958,403.7453,411.261,space,7.4986,,411.2611,41,19,412.2581,412.2581,412.7245,space,0.4432,,0,25,25,25,1,175,55,,,,,,,,
,,614e0a7aef8a6dd9107fb1c6,65af563cec02af7510459cf7,2024-01-23_24h03.11.078,bars,2023.2.3,MacIntel,60.14675809,657b66ea316d21385b68909f,,,,,,,,,,,412.7249,413.7218,,,414.2215,414.47,,121,121,,,,,,,,,,,,,,,,bars/035.png,bars/mask005.png,,,,,,,,,,,,0,1,,,,,,,10,8,10,8,,,,,,,,,,,413.7218,414.2214,414.4701,417.6632,space,3.1823,,417.6632,54,61,418.6623,418.6623,419.8079,space,1.1294,,0,26,26,26,1,175,60,,,,,,,,
,,614e0a7aef8a6dd9107fb1c6,65af563cec02af7510459cf7,2024-01-23_24h03.11.078,bars,2023.2.3,MacIntel,60.14675809,657b66ea316d21385b68909f,,,,,,,,,,,419.8083,420.8047,,,421.3046,421.554,,94,94,,,,,,,,,,,,,,,,bars/037.png,bars/mask008.png,,,,,,,,,,,,6,2,,,,,,,10,10,10,10,,,,,,,,,,,420.8047,421.3046,421.554,428.1058,space,6.5381,,428.1059,56,11,429.1042,429.1042,429.7371,space,0.6175,,0,27,27,27,1,150,105,,,,,,,,
,,614e0a7aef8a6dd9107fb1c6,65af563cec02af7510459cf7,2024-01-23_24h03.11.078,bars,2023.2.3,MacIntel,60.14675809,657b66ea316d21385b68909f,,,,,,,,,,,429.7375,430.7317,,,431.2319,431.4841,,64,64,,,,,,,,,,,,,,,,bars/027.png,bars/mask009.png,,,,,,,,,,,,4,2,,,,,,,10,8,10,8,,,,,,,,,,,430.7318,431.2319,431.4842,437.8855,space,6.3848,,437.8862,46,14,438.8792,438.8792,439.2807,space,0.3825,,0,28,28,28,1,110,50,,,,,,,,
,,614e0a7aef8a6dd9107fb1c6,65af563cec02af7510459cf7,2024-01-23_24h03.11.078,bars,2023.2.3,MacIntel,60.14675809,657b66ea316d21385b68909f,,,,,,,,,,,439.281,440.2782,,,440.7748,441.0242,,29,209,,,,,,,,,,,,,,,,bars/034.png,bars/mask000.png,,,,,,,,,,,,0,2,,,,,,,8,10,8,10,,,,,,,,,,,440.2782,440.7748,441.0242,446.247,space,5.2045,,446.247,84,36,447.2442,447.2443,447.6601,space,0.398,,0,29,29,29,1,125,65,,,,,,,,
,,614e0a7aef8a6dd9107fb1c6,65af563cec02af7510459cf7,2024-01-23_24h03.11.078,bars,2023.2.3,MacIntel,60.14675809,657b66ea316d21385b68909f,,,,,,,,,,,447.6605,448.657,,,449.1563,449.4065,,47,47,,,,,,,,,,,,,,,,bars/025.png,bars/mask007.png,,,,,,,,,,,,8,2,,,,,,,6,10,7,10,,,,,,,,,,,448.6571,449.1563,449.4065,458.8669,space,9.4444,,458.867,58,7,459.8647,459.8647,460.3638,space,0.4837,,0,30,30,30,1,105,40,,,,,,,,
,,614e0a7aef8a6dd9107fb1c6,65af563cec02af7510459cf7,2024-01-23_24h03.11.078,bars,2023.2.3,MacIntel,60.14675809,657b66ea316d21385b68909f,,,,,,,,,,,460.3643,461.3596,,,461.858,462.1079,,95,95,,,,,,,,,,,,,,,,bars/011.png,bars/mask009.png,,,,,,,,,,,,7,2,,,,,,,4,10,3,10,,,,,,,,,,,461.3596,461.858,462.1079,470.9713,space,8.8505,,470.9713,65,10,471.9701,471.9701,472.3173,space,0.3326,,0,31,31,31,1,160,85,,,,,,,,
,,614e0a7aef8a6dd9107fb1c6,65af563cec02af7510459cf7,2024-01-23_24h03.11.078,bars,2023.2.3,MacIntel,60.14675809,657b66ea316d21385b68909f,,,,,,,,,,,472.3177,473.3151,,,473.8144,474.0633,,137,137,,,,,,,,,,,,,,,,bars/004.png,bars/mask006.png,,,,,,,,,,,,6,2,,,,,,,6,10,7,10,,,,,,,,,,,473.3151,473.8143,474.0633,479.5335,space,5.4582,,479.5335,68,12,480.5322,480.5323,480.6168,space,0.0714,,0,32,32,32,1,25,125,,,,,,,,
,,614e0a7aef8a6dd9107fb1c6,65af563cec02af7510459cf7,2024-01-23_24h03.11.078,bars,2023.2.3,MacIntel,60.14675809,657b66ea316d21385b68909f,,,,,,,,,,,480.6172,481.6118,,,482.1152,482.3609,,117,117,,,,,,,,,,,,,,,,bars/039.png,bars/mask003.png,,,,,,,,,,,,5,2,,,,,,,4,10,3,9,,,,,,,,,,,481.6119,482.1151,482.361,487.9324,space,5.5589,,487.9324,58,12,488.9299,488.93,489.528,space,0.579,,0,33,33,33,1,175,105,,,,,,,,
,,614e0a7aef8a6dd9107fb1c6,65af563cec02af7510459cf7,2024-01-23_24h03.11.078,bars,2023.2.3,MacIntel,60.14675809,657b66ea316d21385b68909f,,,,,,,,,,,489.5284,490.5261,,,491.0249,491.2724,,12,12,,,,,,,,,,,,,,,,bars/036.png,bars/mask000.png,,,,,,,,,,,,6,2,,,,,,,6,8,8,8,,,,,,,,,,,490.5262,491.0248,491.2725,502.596,space,11.311,,502.596,47,8,503.5935,503.5936,504.2917,space,0.6813,,0,34,34,34,1,145,20,,,,,,,,
,,614e0a7aef8a6dd9107fb1c6,65af563cec02af7510459cf7,2024-01-23_24h03.11.078,bars,2023.2.3,MacIntel,60.14675809,657b66ea316d21385b68909f,,,,,,,,,,,504.2919,505.2934,,,505.7898,506.038,,79,79,,,,,,,,,,,,,,,,bars/026.png,bars/mask004.png,,,,,,,,,,,,5,2,,,,,,,4,6,4,6,,,,,,,,,,,505.2936,505.7898,506.038,512.274,space,6.2186,,512.2741,44,6,513.2705,513.2706,513.6042,space,0.3167,,0,35,35,35,1,35,85,,,,,,,,
,,614e0a7aef8a6dd9107fb1c6,65af563cec02af7510459cf7,2024-01-23_24h03.11.078,bars,2023.2.3,MacIntel,60.14675809,657b66ea316d21385b68909f,,,,,,,,,,,513.6046,514.6041,,,515.0998,515.3493,,140,140,,,,,,,,,,,,,,,,bars/003.png,bars/mask003.png,,,,,,,,,,,,4,2,,,,,,,2,4,1,4,,,,,,,,,,,514.6041,515.0996,515.3494,522.4676,space,7.0985,,522.4678,65,0,523.464,523.4641,523.7957,space,0.3146,,0,36,36,36,1,25,140,,,,,,,,
,,614e0a7aef8a6dd9107fb1c6,65af563cec02af7510459cf7,2024-01-23_24h03.11.078,bars,2023.2.3,MacIntel,60.14675809,657b66ea316d21385b68909f,,,,,,,,,,,523.796,524.7945,,,525.2925,525.5416,,74,74,,,,,,,,,,,,,,,,bars/041.png,bars/mask003.png,,,,,,,,,,,,0,2,,,,,,,0,2,1,0,,,,,,,,,,,524.7946,525.2924,525.5416,529.2017,space,3.6467,,529.2017,54,11,530.1986,530.1987,530.464,space,0.2551,,0,37,37,37,1,20,85,,,,,,,,
,,614e0a7aef8a6dd9107fb1c6,65af563cec02af7510459cf7,2024-01-23_24h03.11.078,bars,2023.2.3,MacIntel,60.14675809,657b66ea316d21385b68909f,,,,,,,,,,,530.4644,531.4626,,,531.9618,532.2113,,77,77,,,,,,,,,,,,,,,,bars/041.png,bars/mask005.png,,,,,,,,,,,,1,2,,,,,,,2,0,2,1,,,,,,,,,,,531.4627,531.9617,532.2114,537.8314,space,5.6057,,537.8314,57,8,538.829,538.8291,539.0939,space,0.2489,,0,38,38,38,1,20,85,,,,,,,,
,,614e0a7aef8a6dd9107fb1c6,65af563cec02af7510459cf7,2024-01-23_24h03.11.078,bars,2023.2.3,MacIntel,60.14675809,657b66ea316d21385b68909f,,,,,,,,,,,539.0943,540.0906,,,540.5907,540.84,,179,-1,,,,,,,,,,,,,,,,bars/032.png,bars/mask007.png,,,,,,,,,,,,1,2,,,,,,,4,2,5,2,,,,,,,,,,,540.0906,540.5907,540.84,548.5719,space,7.7143,,548.572,54,21,549.5686,549.5686,550.9162,space,1.3315,,0,39,39,39,1,125,20,,,,,,,,
,,614e0a7aef8a6dd9107fb1c6,65af563cec02af7510459cf7,2024-01-23_24h03.11.078,bars,2023.2.3,MacIntel,60.14675809,657b66ea316d21385b68909f,,,,,,,,,,,550.9167,551.9143,,,552.4131,552.6629,,64,64,,,,,,,,,,,,,,,,bars/001.png,bars/mask000.png,,,,,,,,,,,,0,2,,,,,,,6,0,7,1,,,,,,,,,,,551.9143,552.4131,552.663,559.264,space,6.5827,,559.2641,66,21,560.2621,560.2622,560.3934,space,0.1172,,0,40,40,40,1,130,85,,,,,,,,
,,614e0a7aef8a6dd9107fb1c6,65af563cec02af7510459cf7,2024-01-23_24h03.11.078,bars,2023.2.3,MacIntel,60.14675809,657b66ea316d21385b68909f,,,,,,,,,,,560.3938,561.3932,,,561.8933,562.1388,,147,147,,,,,,,,,,,,,,,,bars/020.png,bars/mask007.png,,,,,,,,,,,,0,2,,,,,,,4,2,4,2,,,,,,,,,,,561.3932,561.8932,562.1388,566.9277,space,4.7665,,566.9279,32,23,567.9269,567.927,568.3095,space,0.365,,0,41,41,41,1,115,170,,,,,,,,
,,614e0a7aef8a6dd9107fb1c6,65af563cec02af7510459cf7,2024-01-23_24h03.11.078,bars,2023.2.3,MacIntel,60.14675809,657b66ea316d21385b68909f,,,,,,,,,,,568.3098,569.3056,,,569.8054,570.0536,,103,103,,,,,,,,,,,,,,,,bars/028.png,bars/mask003.png,,,,,,,,,,,,1,2,,,,,,,2,4,1,3,,,,,,,,,,,569.3056,569.8053,570.0536,572.1838,space,2.1116,,572.1839,58,17,573.1805,573.1806,573.5141,space,0.3198,,0,42,42,42,1,45,120,,,,,,,,
,,614e0a7aef8a6dd9107fb1c6,65af563cec02af7510459cf7,2024-01-23_24h03.11.078,bars,2023.2.3,MacIntel,60.14675809,657b66ea316d21385b68909f,,,,,,,,,,,573.5146,574.5095,,,575.0081,575.2577,,134,134,,,,,,,,,,,,,,,,bars/049.png,bars/mask000.png,,,,,,,,,,,,0,2,,,,,,,0,2,1,1,,,,,,,,,,,574.5096,575.008,575.2577,581.0783,space,5.809,,581.0784,26,19,582.0771,582.0771,582.3753,space,0.286,,0,43,43,43,1,160,115,,,,,,,,
,,614e0a7aef8a6dd9107fb1c6,65af563cec02af7510459cf7,2024-01-23_24h03.11.078,bars,2023.2.3,MacIntel,60.14675809,657b66ea316d21385b68909f,,,,,,,,,,,582.3756,583.372,,,583.871,584.1204,,149,-31,,,,,,,,,,,,,,,,bars/015.png,bars/mask000.png,,,,,,,,,,,,3,2,,,,,,,0,4,0,4,,,,,,,,,,,583.3721,583.871,584.1204,588.3613,space,4.2264,,588.3614,39,11,589.3577,589.3578,589.6914,space,0.3165,,0,44,44,44,1,110,160,,,,,,,,
,,614e0a7aef8a6dd9107fb1c6,65af563cec02af7510459cf7,2024-01-23_24h03.11.078,bars,2023.2.3,MacIntel,60.14675809,657b66ea316d21385b68909f,,,,,,,,,,,589.6918,590.6889,,,591.1869,591.4377,,177,177,,,,,,,,,,,,,,,,bars/014.png,bars/mask006.png,,,,,,,,,,,,8,2,,,,,,,0,6,0,9,,,,,,,,,,,590.6889,591.1869,591.4378,594.4141,space,2.9584,,594.4142,83,3,595.4104,595.4105,595.7767,space,0.3477,,0,45,45,45,1,80,0,,,,,,,,
,,614e0a7aef8a6dd9107fb1c6,65af563cec02af7510459cf7,2024-01-23_24h03.11.078,bars,2023.2.3,MacIntel,60.14675809,657b66ea316d21385b68909f,,,,,,,,,,,595.7771,596.7738,,,597.2725,597.5219,,0,180,,,,,,,,,,,,,,,,bars/024.png,bars/mask004.png,,,,,,,,,,,,2,2,,,,,,,2,4,2,3,,,,,,,,,,,596.7738,597.2724,597.5219,603.2268,space,5.6823,,603.2269,60,10,604.2229,604.223,604.5385,space,0.2984,,0,46,46,46,1,120,170,,,,,,,,
,,614e0a7aef8a6dd9107fb1c6,65af563cec02af7510459cf7,2024-01-23_24h03.11.078,bars,2023.2.3,MacIntel,60.14675809,657b66ea316d21385b68909f,,,,,,,,,,,604.5389,605.5364,,,606.0351,606.2842,,33,213,,,,,,,,,,,,,,,,bars/047.png,bars/mask002.png,,,,,,,,,,,,0,1,,,,,,,0,2,1,2,,,,,,,,,,,605.5364,606.035,606.2843,613.8685,space,7.5713,,613.8685,18,37,614.8647,614.8648,615.9466,space,1.0576,,0,47,47,47,1,15,70,,,,,,,,
,,614e0a7aef8a6dd9107fb1c6,65af563cec02af7510459cf7,2024-01-23_24h03.11.078,bars,2023.2.3,MacIntel,60.14675809,657b66ea316d21385b68909f,,,,,,,,,,,615.947,616.944,,,617.4411,617.6911,,142,142,,,,,,,,,,,,,,,,bars/000.png,bars/mask006.png,,,,,,,,,,,,5,2,,,,,,,0,4,2,5,,,,,,,,,,,616.944,617.4411,617.6911,621.0665,space,3.36,,621.0666,78,3,622.064,622.0641,622.347,space,0.2637,,0,48,48,48,1,40,145,,,,,,,,
,,614e0a7aef8a6dd9107fb1c6,65af563cec02af7510459cf7,2024-01-23_24h03.11.078,bars,2023.2.3,MacIntel,60.14675809,657b66ea316d21385b68909f,,,,,,,,,,,622.3474,623.3445,,,623.8435,624.0929,,31,31,,,,,,,,,,,,,,,,bars/025.png,bars/mask008.png,,,,,,,,,,,,2,2,,,,,,,2,2,1,3,,,,,,,,,,,623.3446,623.8434,624.0929,630.8603,space,6.7528,,630.8605,74,9,631.8575,631.8575,632.0074,space,0.1333,,0,49,49,49,1,105,40,,,,,,,,
,,614e0a7aef8a6dd9107fb1c6,65af563cec02af7510459cf7,2024-01-23_24h03.11.078,bars,2023.2.3,MacIntel,60.14675809,657b66ea316d21385b68909f,,,,,,,,,,,,,,,,,,,,,,,,,,,,,,,,,,,,,,,,,,,,,,,,,,,,,,,,,,,,,,,,,,,,,,,,,,,,,,,,,,,,,,,,,,,,,632.0079,692.1657,0,0,0,1,1,sequence_tables/blk016.csv
,,614e0a7aef8a6dd9107fb1c6,65af563cec02af7510459cf7,2024-01-23_24h03.11.078,bars,2023.2.3,MacIntel,60.14675809,657b66ea316d21385b68909f,,,,,,,,,,,704.5254,705.5173,,,706.0162,706.2657,,42,42,,,,,,,,,,,,,,,,bars/007.png,bars/mask006.png,,,,,,,,,,,,2,2,,,,,,,0,3,0,3,,,,,,692.1663,704.5199,space,12.3414,,705.5173,706.0161,706.2657,709.577,space,3.2984,,709.577,47,13,710.572,710.5721,710.5731,,,,0,0,0,0,1,175,55,,,,,,,,
,,614e0a7aef8a6dd9107fb1c6,65af563cec02af7510459cf7,2024-01-23_24h03.11.078,bars,2023.2.3,MacIntel,60.14675809,657b66ea316d21385b68909f,,,,,,,,,,,710.5734,711.5708,,,712.0683,712.3179,,61,61,,,,,,,,,,,,,,,,bars/028.png,bars/mask004.png,,,,,,,,,,,,0,1,,,,,,,2,5,0,6,,,,,,,,,,,711.5709,712.0682,712.3179,715.0463,space,2.7151,,715.0465,16,59,716.044,716.0441,716.0487,,,,0,1,1,1,1,45,120,,,,,,,,
,,614e0a7aef8a6dd9107fb1c6,65af563cec02af7510459cf7,2024-01-23_24h03.11.078,bars,2023.2.3,MacIntel,60.14675809,657b66ea316d21385b68909f,,,,,,,,,,,716.0491,717.0422,,,717.5388,717.7882,,144,144,,,,,,,,,,,,,,,,bars/024.png,bars/mask003.png,,,,,,,,,,,,0,1,,,,,,,0,7,0,6,,,,,,,,,,,717.0422,717.5388,717.7883,725.1052,space,7.3095,,725.1054,24,26,726.1019,726.1019,726.1027,,,,0,2,2,2,1,120,170,,,,,,,,
,,614e0a7aef8a6dd9107fb1c6,65af563cec02af7510459cf7,2024-01-23_24h03.11.078,bars,2023.2.3,MacIntel,60.14675809,657b66ea316d21385b68909f,,,,,,,,,,,726.1031,727.1019,,,727.5984,727.848,,37,217,,,,,,,,,,,,,,,,bars/026.png,bars/mask005.png,,,,,,,,,,,,2,1,,,,,,,2,5,2,5,,,,,,,,,,,727.1019,727.5983,727.8481,734.3832,space,6.5181,,734.3832,2,48,735.38,735.3801,735.3809,,,,0,3,3,3,1,35,85,,,,,,,,
,,614e0a7aef8a6dd9107fb1c6,65af563cec02af7510459cf7,2024-01-23_24h03.11.078,bars,2023.2.3,MacIntel,60.14675809,657b66ea316d21385b68909f,,,,,,,,,,,735.3811,736.3779,,,736.8769,737.128,,150,-30,,,,,,,,,,,,,,,,bars/005.png,bars/mask006.png,,,,,,,,,,,,5,2,,,,,,,0,7,0,7,,,,,,,,,,,736.3779,736.8768,737.128,741.9511,space,4.8063,,741.9512,40,10,742.9457,742.9457,742.9524,,,,0,4,4,4,1,10,140,,,,,,,,
,,614e0a7aef8a6dd9107fb1c6,65af563cec02af7510459cf7,2024-01-23_24h03.11.078,bars,2023.2.3,MacIntel,60.14675809,657b66ea316d21385b68909f,,,,,,,,,,,742.9528,743.9431,,,744.4426,744.6916,,58,58,,,,,,,,,,,,,,,,bars/029.png,bars/mask007.png,,,,,,,,,,,,3,2,,,,,,,2,5,3,5,,,,,,,,,,,743.9431,744.4426,744.6916,750.1141,space,5.4084,,750.1142,32,13,751.1107,751.1108,751.1118,,,,0,5,5,5,1,90,45,,,,,,,,
,,614e0a7aef8a6dd9107fb1c6,65af563cec02af7510459cf7,2024-01-23_24h03.11.078,bars,2023.2.3,MacIntel,60.14675809,657b66ea316d21385b68909f,,,,,,,,,,,751.1121,752.1075,,,752.6065,752.8559,,150,150,,,,,,,,,,,,,,,,bars/033.png,bars/mask003.png,,,,,,,,,,,,2,2,,,,,,,0,3,0,2,,,,,,,,,,,752.1075,752.6065,752.856,759.1118,space,6.2399,,759.1118,55,5,760.1097,760.1097,760.1103,,,,0,6,6,6,1,25,155,,,,,,,,
,,614e0a7aef8a6dd9107fb1c6,65af563cec02af7510459cf7,2024-01-23_24h03.11.078,bars,2023.2.3,MacIntel,60.14675809,657b66ea316d21385b68909f,,,,,,,,,,,760.1106,761.1044,,,761.6033,761.8516,,103,103,,,,,,,,,,,,,,,,bars/028.png,bars/mask006.png,,,,,,,,,,,,2,2,,,,,,,2,5,3,5,,,,,,,,,,,761.1045,761.6031,761.8516,768.7719,space,6.903,,768.772,58,17,769.7688,769.7688,769.7695,,,,0,7,7,7,1,45,120,,,,,,,,
,,614e0a7aef8a6dd9107fb1c6,65af563cec02af7510459cf7,2024-01-23_24h03.11.078,bars,2023.2.3,MacIntel,60.14675809,657b66ea316d21385b68909f,,,,,,,,,,,769.7698,770.7645,,,771.267,771.5163,,74,74,,,,,,,,,,,,,,,,bars/021.png,bars/mask005.png,,,,,,,,,,,,7,2,,,,,,,0,7,0,8,,,,,,,,,,,770.7646,771.2669,771.5164,778.5639,space,7.0352,,778.564,81,4,779.5595,779.5595,779.5602,,,,0,8,8,8,1,155,70,,,,,,,,
,,614e0a7aef8a6dd9107fb1c6,65af563cec02af7510459cf7,2024-01-23_24h03.11.078,bars,2023.2.3,MacIntel,60.14675809,657b66ea316d21385b68909f,,,,,,,,,,,779.5606,780.5589,,,781.0594,781.3057,,155,-25,,,,,,,,,,,,,,,,bars/033.png,bars/mask003.png,,,,,,,,,,,,5,2,,,,,,,2,5,3,5,,,,,,,,,,,780.5589,781.0594,781.3058,784.7643,space,3.4441,,784.7643,50,0,785.7631,785.7631,785.7641,,,,0,9,9,9,1,25,155,,,,,,,,
,,614e0a7aef8a6dd9107fb1c6,65af563cec02af7510459cf7,2024-01-23_24h03.11.078,bars,2023.2.3,MacIntel,60.14675809,657b66ea316d21385b68909f,,,,,,,,,,,785.7645,786.7607,,,787.2596,787.51,,46,46,,,,,,,,,,,,,,,,bars/034.png,bars/mask002.png,,,,,,,,,,,,3,2,,,,,,,0,7,1,7,,,,,,,,,,,786.7607,787.2595,787.51,790.7378,space,3.2097,,790.7379,79,19,791.7308,791.7309,791.7316,,,,0,10,10,10,1,125,65,,,,,,,,
,,614e0a7aef8a6dd9107fb1c6,65af563cec02af7510459cf7,2024-01-23_24h03.11.078,bars,2023.2.3,MacIntel,60.14675809,657b66ea316d21385b68909f,,,,,,,,,,,791.732,792.7303,,,793.2288,793.4796,,14,14,,,,,,,,,,,,,,,,bars/013.png,bars/mask001.png,,,,,,,,,,,,9,2,,,,,,,0,9,1,10,,,,,,,,,,,792.7303,793.2287,793.4796,801.9447,space,8.4429,,801.9448,61,4,802.9392,802.9393,802.9401,,,,0,11,11,11,1,75,10,,,,,,,,
,,614e0a7aef8a6dd9107fb1c6,65af563cec02af7510459cf7,2024-01-23_24h03.11.078,bars,2023.2.3,MacIntel,60.14675809,657b66ea316d21385b68909f,,,,,,,,,,,802.9403,803.937,,,804.4343,804.6837,,67,67,,,,,,,,,,,,,,,,bars/029.png,bars/mask007.png,,,,,,,,,,,,2,2,,,,,,,2,7,2,7,,,,,,,,,,,803.937,804.4343,804.6837,810.5699,space,5.8696,,810.57,23,22,811.5673,811.5673,811.5682,,,,0,12,12,12,1,90,45,,,,,,,,
,,614e0a7aef8a6dd9107fb1c6,65af563cec02af7510459cf7,2024-01-23_24h03.11.078,bars,2023.2.3,MacIntel,60.14675809,657b66ea316d21385b68909f,,,,,,,,,,,811.5684,812.5662,,,813.0653,813.3133,,41,41,,,,,,,,,,,,,,,,bars/022.png,bars/mask002.png,,,,,,,,,,,,2,2,,,,,,,4,5,3,5,,,,,,,,,,,812.5664,813.0652,813.3134,818.069,space,4.7464,,818.0691,54,21,819.0674,819.0674,819.0683,,,,0,13,13,13,1,95,20,,,,,,,,
,,614e0a7aef8a6dd9107fb1c6,65af563cec02af7510459cf7,2024-01-23_24h03.11.078,bars,2023.2.3,MacIntel,60.14675809,657b66ea316d21385b68909f,,,,,,,,,,,819.0686,820.0646,,,820.5634,820.8159,,88,88,,,,,,,,,,,,,,,,bars/046.png,bars/mask003.png,,,,,,,,,,,,3,2,,,,,,,2,3,1,3,,,,,,,,,,,820.0647,820.5633,820.8159,824.5226,space,3.6932,,824.5227,67,3,825.5195,825.5196,825.5206,,,,0,14,14,14,1,155,85,,,,,,,,
,,614e0a7aef8a6dd9107fb1c6,65af563cec02af7510459cf7,2024-01-23_24h03.11.078,bars,2023.2.3,MacIntel,60.14675809,657b66ea316d21385b68909f,,,,,,,,,,,825.5211,826.5155,,,827.0157,827.2637,,49,229,,,,,,,,,,,,,,,,bars/035.png,bars/mask007.png,,,,,,,,,,,,2,2,,,,,,,4,1,3,3,,,,,,,,,,,826.5156,827.0156,827.2637,833.75,space,6.4733,,833.7502,54,11,834.746,834.7461,834.7469,,,,0,15,15,15,1,175,60,,,,,,,,
,,614e0a7aef8a6dd9107fb1c6,65af563cec02af7510459cf7,2024-01-23_24h03.11.078,bars,2023.2.3,MacIntel,60.14675809,657b66ea316d21385b68909f,,,,,,,,,,,834.7472,835.7438,,,836.2429,836.4922,,154,-26,,,,,,,,,,,,,,,,bars/044.png,bars/mask001.png,,,,,,,,,,,,0,2,,,,,,,6,0,5,0,,,,,,,,,,,835.7439,836.2429,836.4922,841.6338,space,5.1213,,841.6338,79,1,842.6278,842.6279,842.6288,,,,0,16,16,16,1,75,155,,,,,,,,
,,614e0a7aef8a6dd9107fb1c6,65af563cec02af7510459cf7,2024-01-23_24h03.11.078,bars,2023.2.3,MacIntel,60.14675809,657b66ea316d21385b68909f,,,,,,,,,,,842.6292,843.6265,,,844.1266,844.3756,,70,70,,,,,,,,,,,,,,,,bars/029.png,bars/mask006.png,,,,,,,,,,,,2,1,,,,,,,4,2,5,2,,,,,,,,,,,843.6266,844.1264,844.3757,850.2785,space,5.8856,,850.2785,20,25,851.2776,851.2777,851.2811,,,,0,17,17,17,1,90,45,,,,,,,,
,,614e0a7aef8a6dd9107fb1c6,65af563cec02af7510459cf7,2024-01-23_24h03.11.078,bars,2023.2.3,MacIntel,60.14675809,657b66ea316d21385b68909f,,,,,,,,,,,851.2814,852.2713,,,852.7716,853.0195,,1,1,,,,,,,,,,,,,,,,bars/012.png,bars/mask009.png,,,,,,,,,,,,2,2,,,,,,,6,4,7,4,,,,,,,,,,,852.2713,852.7715,853.0195,859.157,space,6.1258,,859.1572,89,14,860.153,860.153,860.1593,,,,0,18,18,18,1,90,15,,,,,,,,
,,614e0a7aef8a6dd9107fb1c6,65af563cec02af7510459cf7,2024-01-23_24h03.11.078,bars,2023.2.3,MacIntel,60.14675809,657b66ea316d21385b68909f,,,,,,,,,,,860.1596,861.154,,,861.6514,861.9001,,86,86,,,,,,,,,,,,,,,,bars/001.png,bars/mask008.png,,,,,,,,,,,,3,2,,,,,,,4,2,6,3,,,,,,,,,,,861.1542,861.6513,861.9002,863.2499,space,1.3305,,863.2499,44,1,864.2454,864.2454,864.2463,,,,0,19,19,19,1,130,85,,,,,,,,
,,614e0a7aef8a6dd9107fb1c6,65af563cec02af7510459cf7,2024-01-23_24h03.11.078,bars,2023.2.3,MacIntel,60.14675809,657b66ea316d21385b68909f,,,,,,,,,,,864.2466,865.2437,,,865.7396,865.9891,,0,180,,,,,,,,,,,,,,,,bars/048.png,bars/mask004.png,,,,,,,,,,,,3,2,,,,,,,6,4,8,4,,,,,,,,,,,865.2437,865.7396,865.9891,871.5605,space,5.5591,,871.5608,50,5,872.5588,872.5589,872.56,,,,0,20,20,20,1,50,175,,,,,,,,
,,614e0a7aef8a6dd9107fb1c6,65af563cec02af7510459cf7,2024-01-23_24h03.11.078,bars,2023.2.3,MacIntel,60.14675809,657b66ea316d21385b68909f,,,,,,,,,,,872.5603,873.5547,,,874.0545,874.3041,,85,85,,,,,,,,,,,,,,,,bars/021.png,bars/mask009.png,,,,,,,,,,,,3,2,,,,,,,8,6,9,6,,,,,,,,,,,873.5547,874.0545,874.3041,880.6383,space,6.3206,,880.6383,70,15,881.6364,881.6364,881.6374,,,,0,21,21,21,1,155,70,,,,,,,,
,,614e0a7aef8a6dd9107fb1c6,65af563cec02af7510459cf7,2024-01-23_24h03.11.078,bars,2023.2.3,MacIntel,60.14675809,657b66ea316d21385b68909f,,,,,,,,,,,881.6376,882.634,,,883.1319,883.3833,,176,176,,,,,,,,,,,,,,,,bars/040.png,bars/mask006.png,,,,,,,,,,,,6,2,,,,,,,10,8,9,8,,,,,,,,,,,882.634,883.1319,883.3833,884.429,space,1.0325,,884.4291,36,9,885.4267,885.4267,885.4277,,,,0,22,22,22,1,140,5,,,,,,,,
,,614e0a7aef8a6dd9107fb1c6,65af563cec02af7510459cf7,2024-01-23_24h03.11.078,bars,2023.2.3,MacIntel,60.14675809,657b66ea316d21385b68909f,,,,,,,,,,,885.428,886.4241,,,886.9231,887.1756,,140,140,,,,,,,,,,,,,,,,bars/004.png,bars/mask003.png,,,,,,,,,,,,5,2,,,,,,,8,10,7,10,,,,,,,,,,,886.4242,886.9231,887.1757,891.4961,space,4.3056,,891.4962,65,15,892.4931,892.4931,892.4939,,,,0,23,23,23,1,25,125,,,,,,,,
,,614e0a7aef8a6dd9107fb1c6,65af563cec02af7510459cf7,2024-01-23_24h03.11.078,bars,2023.2.3,MacIntel,60.14675809,657b66ea316d21385b68909f,,,,,,,,,,,892.4941,893.4911,,,893.9899,894.2408,,146,146,,,,,,,,,,,,,,,,bars/004.png,bars/mask007.png,,,,,,,,,,,,2,2,,,,,,,10,8,10,8,,,,,,,,,,,893.4911,893.9899,894.2408,897.515,space,3.2633,,897.515,59,21,898.5125,898.5126,898.5132,,,,0,24,24,24,1,25,125,,,,,,,,
,,614e0a7aef8a6dd9107fb1c6,65af563cec02af7510459cf7,2024-01-23_24h03.11.078,bars,2023.2.3,MacIntel,60.14675809,657b66ea316d21385b68909f,,,,,,,,,,,898.5136,899.5103,,,900.0104,900.2583,,30,210,,,,,,,,,,,,,,,,bars/029.png,bars/mask001.png,,,,,,,,,,,,3,2,,,,,,,8,6,10,6,,,,,,,,,,,899.5103,900.0104,900.2583,907.4913,space,7.2176,,907.4914,60,15,908.4889,908.4889,908.4899,,,,0,25,25,25,1,90,45,,,,,,,,
,,614e0a7aef8a6dd9107fb1c6,65af563cec02af7510459cf7,2024-01-23_24h03.11.078,bars,2023.2.3,MacIntel,60.14675809,657b66ea316d21385b68909f,,,,,,,,,,,908.4903,909.4864,,,909.9853,910.2358,,56,56,,,,,,,,,,,,,,,,bars/038.png,bars/mask005.png,,,,,,,,,,,,2,2,,,,,,,6,4,6,4,,,,,,,,,,,909.4865,909.9853,910.2358,913.311,space,3.0591,,913.311,71,14,914.3085,914.3086,914.3096,,,,0,26,26,26,1,165,70,,,,,,,,
,,614e0a7aef8a6dd9107fb1c6,65af563cec02af7510459cf7,2024-01-23_24h03.11.078,bars,2023.2.3,MacIntel,60.14675809,657b66ea316d21385b68909f,,,,,,,,,,,914.3099,915.3069,,,915.8059,916.0557,,109,109,,,,,,,,,,,,,,,,bars/023.png,bars/mask001.png,,,,,,,,,,,,6,2,,,,,,,8,6,8,7,,,,,,,,,,,915.3069,915.8058,916.0557,917.9001,space,1.8295,,917.9002,89,6,918.899,918.899,918.9,,,,0,27,27,27,1,20,115,,,,,,,,
,,614e0a7aef8a6dd9107fb1c6,65af563cec02af7510459cf7,2024-01-23_24h03.11.078,bars,2023.2.3,MacIntel,60.14675809,657b66ea316d21385b68909f,,,,,,,,,,,918.9003,919.8953,,,920.3949,920.6435,,20,200,,,,,,,,,,,,,,,,bars/036.png,bars/mask002.png,,,,,,,,,,,,10,2,,,,,,,6,8,8,10,,,,,,,,,,,919.8953,920.3949,920.6435,924.7852,space,4.1281,,924.7853,55,0,925.7813,925.7814,925.7821,,,,0,28,28,28,1,145,20,,,,,,,,
,,614e0a7aef8a6dd9107fb1c6,65af563cec02af7510459cf7,2024-01-23_24h03.11.078,bars,2023.2.3,MacIntel,60.14675809,657b66ea316d21385b68909f,,,,,,,,,,,925.7824,926.7789,,,927.2778,927.5274,,32,32,,,,,,,,,,,,,,,,bars/022.png,bars/mask009.png,,,,,,,,,,,,4,2,,,,,,,8,6,7,6,,,,,,,,,,,926.7789,927.2778,927.5274,930.9396,space,3.3955,,930.9396,63,12,931.9336,931.9336,931.9346,,,,0,29,29,29,1,95,20,,,,,,,,
,,614e0a7aef8a6dd9107fb1c6,65af563cec02af7510459cf7,2024-01-23_24h03.11.078,bars,2023.2.3,MacIntel,60.14675809,657b66ea316d21385b68909f,,,,,,,,,,,931.9349,932.9318,,,933.4313,933.6797,,139,139,,,,,,,,,,,,,,,,bars/005.png,bars/mask008.png,,,,,,,,,,,,8,2,,,,,,,10,8,10,8,,,,,,,,,,,932.9318,933.4312,933.6797,935.2925,space,1.5982,,935.2925,51,1,936.2915,936.2916,936.2926,,,,0,30,30,30,1,10,140,,,,,,,,
,,614e0a7aef8a6dd9107fb1c6,65af563cec02af7510459cf7,2024-01-23_24h03.11.078,bars,2023.2.3,MacIntel,60.14675809,657b66ea316d21385b68909f,,,,,,,,,,,936.2928,937.2877,,,937.7865,938.0358,,134,134,,,,,,,,,,,,,,,,bars/004.png,bars/mask009.png,,,,,,,,,,,,6,2,,,,,,,8,10,6,9,,,,,,,,,,,937.2877,937.7865,938.0359,938.8338,space,0.79,,938.8339,71,9,939.833,939.8331,939.8344,,,,0,31,31,31,1,25,125,,,,,,,,
,,614e0a7aef8a6dd9107fb1c6,65af563cec02af7510459cf7,2024-01-23_24h03.11.078,bars,2023.2.3,MacIntel,60.14675809,657b66ea316d21385b68909f,,,,,,,,,,,939.8347,940.8296,,,941.3293,941.5787,,25,205,,,,,,,,,,,,,,,,bars/025.png,bars/mask006.png,,,,,,,,,,,,4,2,,,,,,,6,8,6,8,,,,,,,,,,,940.8297,941.3293,941.5788,947.1644,space,5.5706,,947.1645,80,15,948.1623,948.1623,948.1633,,,,0,32,32,32,1,105,40,,,,,,,,
,,614e0a7aef8a6dd9107fb1c6,65af563cec02af7510459cf7,2024-01-23_24h03.11.078,bars,2023.2.3,MacIntel,60.14675809,657b66ea316d21385b68909f,,,,,,,,,,,948.1637,949.1609,,,949.6603,949.9093,,101,101,,,,,,,,,,,,,,,,bars/006.png,bars/mask006.png,,,,,,,,,,,,10,2,,,,,,,8,10,8,10,,,,,,,,,,,949.161,949.6602,949.9094,958.1387,space,8.2151,,958.1388,66,1,959.1362,959.1362,959.1371,,,,0,33,33,33,1,35,100,,,,,,,,
,,614e0a7aef8a6dd9107fb1c6,65af563cec02af7510459cf7,2024-01-23_24h03.11.078,bars,2023.2.3,MacIntel,60.14675809,657b66ea316d21385b68909f,,,,,,,,,,,959.1374,960.1338,,,960.6335,960.8832,,22,22,,,,,,,,,,,,,,,,bars/036.png,bars/mask000.png,,,,,,,,,,,,9,2,,,,,,,6,8,6,10,,,,,,,,,,,960.1339,960.6334,960.8833,966.1197,space,5.2211,,966.1197,57,2,967.1168,967.1168,967.1177,,,,0,34,34,34,1,145,20,,,,,,,,
,,614e0a7aef8a6dd9107fb1c6,65af563cec02af7510459cf7,2024-01-23_24h03.11.078,bars,2023.2.3,MacIntel,60.14675809,657b66ea316d21385b68909f,,,,,,,,,,,967.118,968.1148,,,968.6142,968.8635,,28,28,,,,,,,,,,,,,,,,bars/036.png,bars/mask009.png,,,,,,,,,,,,4,2,,,,,,,4,6,4,6,,,,,,,,,,,968.1148,968.6141,968.8635,971.6571,space,2.7816,,971.6572,63,8,972.6543,972.6544,972.6551,,,,0,35,35,35,1,145,20,,,,,,,,
,,614e0a7aef8a6dd9107fb1c6,65af563cec02af7510459cf7,2024-01-23_24h03.11.078,bars,2023.2.3,MacIntel,60.14675809,657b66ea316d21385b68909f,,,,,,,,,,,972.6555,973.6521,,,974.1519,974.4017,,75,75,,,,,,,,,,,,,,,,bars/021.png,bars/mask000.png,,,,,,,,,,,,3,2,,,,,,,2,4,2,4,,,,,,,,,,,973.6521,974.1518,974.4017,981.5676,space,7.1532,,981.5676,80,5,982.5642,982.5642,982.5649,,,,0,36,36,36,1,155,70,,,,,,,,
,,614e0a7aef8a6dd9107fb1c6,65af563cec02af7510459cf7,2024-01-23_24h03.11.078,bars,2023.2.3,MacIntel,60.14675809,657b66ea316d21385b68909f,,,,,,,,,,,982.5651,983.5617,,,984.0609,984.3105,,146,-34,,,,,,,,,,,,,,,,bars/000.png,bars/mask002.png,,,,,,,,,,,,4,2,,,,,,,4,6,4,4,,,,,,,,,,,983.5618,984.0609,984.3105,989.7327,space,5.4059,,989.7327,74,1,990.729,990.7291,990.73,,,,0,37,37,37,1,40,145,,,,,,,,
,,614e0a7aef8a6dd9107fb1c6,65af563cec02af7510459cf7,2024-01-23_24h03.11.078,bars,2023.2.3,MacIntel,60.14675809,657b66ea316d21385b68909f,,,,,,,,,,,990.7303,991.726,,,992.2258,992.4741,,37,217,,,,,,,,,,,,,,,,bars/034.png,bars/mask003.png,,,,,,,,,,,,0,2,,,,,,,2,8,1,7,,,,,,,,,,,991.7261,992.2257,992.4742,996.7978,space,4.3084,,996.7978,88,28,997.7953,997.7953,997.7963,,,,0,38,38,38,1,125,65,,,,,,,,
,,614e0a7aef8a6dd9107fb1c6,65af563cec02af7510459cf7,2024-01-23_24h03.11.078,bars,2023.2.3,MacIntel,60.14675809,657b66ea316d21385b68909f,,,,,,,,,,,997.7967,998.7926,,,999.2926,999.5424,,144,-36,,,,,,,,,,,,,,,,bars/005.png,bars/mask008.png,,,,,,,,,,,,9,2,,,,,,,4,10,5,10,,,,,,,,,,,998.7927,999.2926,999.5424,1006.841,space,7.2875,,1006.841,46,4,1007.8382,1007.8383,1007.8393,,,,0,39,39,39,1,10,140,,,,,,,,
,,614e0a7aef8a6dd9107fb1c6,65af563cec02af7510459cf7,2024-01-23_24h03.11.078,bars,2023.2.3,MacIntel,60.14675809,657b66ea316d21385b68909f,,,,,,,,,,,1007.8398,1008.8356,,,1009.3361,1009.5854,,167,-13,,,,,,,,,,,,,,,,bars/040.png,bars/mask006.png,,,,,,,,,,,,3,2,,,,,,,6,8,7,7,,,,,,,,,,,1008.8357,1009.336,1009.5854,1012.6788,space,3.0768,,1012.6788,27,18,1013.6743,1013.6743,1013.6753,,,,0,40,40,40,1,140,5,,,,,,,,
,,614e0a7aef8a6dd9107fb1c6,65af563cec02af7510459cf7,2024-01-23_24h03.11.078,bars,2023.2.3,MacIntel,60.14675809,657b66ea316d21385b68909f,,,,,,,,,,,1013.6755,1014.674,,,1015.1709,1015.4212,,90,90,,,,,,,,,,,,,,,,bars/018.png,bars/mask002.png,,,,,,,,,,,,7,2,,,,,,,4,6,5,7,,,,,,,,,,,1014.674,1015.1709,1015.4213,1018.3801,space,2.9359,,1018.3803,60,0,1019.3795,1019.3797,1019.3807,,,,0,41,41,41,1,150,90,,,,,,,,
,,614e0a7aef8a6dd9107fb1c6,65af563cec02af7510459cf7,2024-01-23_24h03.11.078,bars,2023.2.3,MacIntel,60.14675809,657b66ea316d21385b68909f,,,,,,,,,,,1019.381,1020.3768,,,1020.8753,1021.1253,,39,39,,,,,,,,,,,,,,,,bars/035.png,bars/mask006.png,,,,,,,,,,,,3,2,,,,,,,6,8,6,9,,,,,,,,,,,1020.3769,1020.8753,1021.1253,1022.0226,space,0.8824,,1022.0227,44,21,1023.0186,1023.0186,1023.0193,,,,0,42,42,42,1,175,60,,,,,,,,
,,614e0a7aef8a6dd9107fb1c6,65af563cec02af7510459cf7,2024-01-23_24h03.11.078,bars,2023.2.3,MacIntel,60.14675809,657b66ea316d21385b68909f,,,,,,,,,,,1023.0196,1024.0168,,,1024.517,1024.7649,,102,102,,,,,,,,,,,,,,,,bars/028.png,bars/mask004.png,,,,,,,,,,,,3,2,,,,,,,8,6,9,7,,,,,,,,,,,1024.0169,1024.517,1024.7649,1032.3477,space,7.5715,,1032.3478,57,18,1033.3443,1033.3444,1033.3454,,,,0,43,43,43,1,45,120,,,,,,,,
,,614e0a7aef8a6dd9107fb1c6,65af563cec02af7510459cf7,2024-01-23_24h03.11.078,bars,2023.2.3,MacIntel,60.14675809,657b66ea316d21385b68909f,,,,,,,,,,,1033.3458,1034.3421,,,1034.8428,1035.0925,,97,97,,,,,,,,,,,,,,,,bars/023.png,bars/mask004.png,,,,,,,,,,,,4,2,,,,,,,6,8,5,10,,,,,,,,,,,1034.3421,1034.8427,1035.0927,1040.5286,space,5.42,,1040.5287,77,18,1041.5252,1041.5253,1041.5259,,,,0,44,44,44,1,20,115,,,,,,,,
,,614e0a7aef8a6dd9107fb1c6,65af563cec02af7510459cf7,2024-01-23_24h03.11.078,bars,2023.2.3,MacIntel,60.14675809,657b66ea316d21385b68909f,,,,,,,,,,,1041.5262,1042.5252,,,1043.0222,1043.2723,,174,-6,,,,,,,,,,,,,,,,bars/032.png,bars/mask004.png,,,,,,,,,,,,1,2,,,,,,,4,10,4,9,,,,,,,,,,,1042.5252,1043.0222,1043.2723,1046.9466,space,3.658,,1046.9466,49,26,1047.9439,1047.944,1047.9453,,,,0,45,45,45,1,125,20,,,,,,,,
,,614e0a7aef8a6dd9107fb1c6,65af563cec02af7510459cf7,2024-01-23_24h03.11.078,bars,2023.2.3,MacIntel,60.14675809,657b66ea316d21385b68909f,,,,,,,,,,,1047.9459,1048.9414,,,1049.4419,1049.6911,,149,149,,,,,,,,,,,,,,,,bars/043.png,bars/mask004.png,,,,,,,,,,,,3,2,,,,,,,2,8,3,9,,,,,,,,,,,1048.9414,1049.4419,1049.6911,1051.3368,space,1.6313,,1051.3368,61,19,1052.3341,1052.3343,1052.3352,,,,0,46,46,46,1,30,130,,,,,,,,
,,614e0a7aef8a6dd9107fb1c6,65af563cec02af7510459cf7,2024-01-23_24h03.11.078,bars,2023.2.3,MacIntel,60.14675809,657b66ea316d21385b68909f,,,,,,,,,,,1052.3355,1053.3308,,,1053.831,1054.0809,,155,155,,,,,,,,,,,,,,,,bars/016.png,bars/mask002.png,,,,,,,,,,,,6,2,,,,,,,4,6,4,9,,,,,,,,,,,1053.3308,1053.831,1054.081,1058.3529,space,4.2611,,1058.353,65,10,1059.3518,1059.352,1059.3528,,,,0,47,47,47,1,40,165,,,,,,,,
,,614e0a7aef8a6dd9107fb1c6,65af563cec02af7510459cf7,2024-01-23_24h03.11.078,bars,2023.2.3,MacIntel,60.14675809,657b66ea316d21385b68909f,,,,,,,,,,,1059.3533,1060.3494,,,1060.8481,1061.0957,,31,31,,,,,,,,,,,,,,,,bars/034.png,bars/mask006.png,,,,,,,,,,,,0,2,,,,,,,2,8,1,7,,,,,,,,,,,1060.3495,1060.848,1061.0958,1064.2734,space,3.1634,,1064.2735,86,34,1065.2706,1065.2706,1065.2715,,,,0,48,48,48,1,125,65,,,,,,,,
,,614e0a7aef8a6dd9107fb1c6,65af563cec02af7510459cf7,2024-01-23_24h03.11.078,bars,2023.2.3,MacIntel,60.14675809,657b66ea316d21385b68909f,,,,,,,,,,,1065.2718,1066.2669,,,1066.7659,1067.0166,,43,43,,,,,,,,,,,,,,,,bars/047.png,bars/mask009.png,,,,,,,,,,,,1,2,,,,,,,0,6,0,6,,,,,,,,,,,1066.267,1066.7659,1067.0166,1073.1515,space,6.1196,,1073.1515,28,27,1074.1489,1074.149,1074.1503,,,,0,49,49,49,1,15,70,,,,,,,,
,,614e0a7aef8a6dd9107fb1c6,65af563cec02af7510459cf7,2024-01-23_24h03.11.078,bars,2023.2.3,MacIntel,60.14675809,657b66ea316d21385b68909f,,,,,,,,,,,,,,,,,,,,,,,,,,,,,,,,,,,,,,,,,,,,,,,,,,,,,,,,,,,,,,,,,,,,,,,,,,,,,,,,,,,,,,,,,,,,,1074.1505,1134.1405,0,1,1,0,1,sequence_tables/blk005.csv
,,614e0a7aef8a6dd9107fb1c6,65af563cec02af7510459cf7,2024-01-23_24h03.11.078,bars,2023.2.3,MacIntel,60.14675809,657b66ea316d21385b68909f,,,,,,,,,,,1136.772,1137.7655,,,1138.2642,1138.5148,,12,12,,,,,,,,,,,,,,,,bars/025.png,bars/mask008.png,,,,,,,,,,,,1,2,,,,,,,5,7,6,8,,,,,,1134.1408,1136.7669,space,2.3431,,1137.7655,1138.2642,1138.5149,1140.094,space,1.5625,,1140.094,87,28,1141.0917,1141.0918,1141.0928,,,,0,0,0,0,1,105,40,,,,,,,,
,,614e0a7aef8a6dd9107fb1c6,65af563cec02af7510459cf7,2024-01-23_24h03.11.078,bars,2023.2.3,MacIntel,60.14675809,657b66ea316d21385b68909f,,,,,,,,,,,1141.0934,1142.0901,,,1142.5882,1142.8364,,145,145,,,,,,,,,,,,,,,,bars/007.png,bars/mask000.png,,,,,,,,,,,,0,1,,,,,,,7,9,5,8,,,,,,,,,,,1142.0901,1142.5882,1142.8365,1144.0534,space,1.2057,,1144.0535,30,90,1145.0486,1145.0487,1145.0542,,,,0,1,1,1,1,175,55,,,,,,,,
,,614e0a7aef8a6dd9107fb1c6,65af563cec02af7510459cf7,2024-01-23_24h03.11.078,bars,2023.2.3,MacIntel,60.14675809,657b66ea316d21385b68909f,,,,,,,,,,,1145.0545,1146.0456,,,1146.5446,1146.794,,78,78,,,,,,,,,,,,,,,,bars/010.png,bars/mask001.png,,,,,,,,,,,,2,2,,,,,,,5,10,4,10,,,,,,,,,,,1146.0456,1146.5445,1146.7941,1147.8592,space,1.0434,,1147.8592,87,23,1148.8587,1148.8587,1148.8616,,,,0,2,2,2,1,165,55,,,,,,,,
,,614e0a7aef8a6dd9107fb1c6,65af563cec02af7510459cf7,2024-01-23_24h03.11.078,bars,2023.2.3,MacIntel,60.14675809,657b66ea316d21385b68909f,,,,,,,,,,,1148.8619,1149.8532,,,1150.3565,1150.6015,,174,174,,,,,,,,,,,,,,,,bars/019.png,bars/mask006.png,,,,,,,,,,,,0,1,,,,,,,3,10,2,9,,,,,,,,,,,1149.8532,1150.3565,1150.6016,1151.018,space,0.4048,,1151.018,51,69,1152.0167,1152.0168,1152.0214,,,,0,3,3,3,1,45,105,,,,,,,,
,,614e0a7aef8a6dd9107fb1c6,65af563cec02af7510459cf7,2024-01-23_24h03.11.078,bars,2023.2.3,MacIntel,60.14675809,657b66ea316d21385b68909f,,,,,,,,,,,1152.0217,1153.0149,,,1153.5134,1153.761,,39,39,,,,,,,,,,,,,,,,bars/039.png,bars/mask007.png,,,,,,,,,,,,0,1,,,,,,,1,10,0,10,,,,,,,,,,,1153.015,1153.5134,1153.761,1154.4121,space,0.6274,,1154.4121,44,66,1155.4071,1155.4072,1155.4083,,,,0,4,4,4,1,175,105,,,,,,,,
,,614e0a7aef8a6dd9107fb1c6,65af563cec02af7510459cf7,2024-01-23_24h03.11.078,bars,2023.2.3,MacIntel,60.14675809,657b66ea316d21385b68909f,,,,,,,,,,,1155.4087,1156.4041,,,1156.9043,1157.1542,,147,147,,,,,,,,,,,,,,,,bars/049.png,bars/mask004.png,,,,,,,,,,,,1,1,,,,,,,0,10,1,10,,,,,,,,,,,1156.4042,1156.9042,1157.1542,1157.8368,space,0.6686,,1157.8369,13,32,1158.832,1158.8321,1158.8331,,,,0,5,5,5,1,160,115,,,,,,,,
,,614e0a7aef8a6dd9107fb1c6,65af563cec02af7510459cf7,2024-01-23_24h03.11.078,bars,2023.2.3,MacIntel,60.14675809,657b66ea316d21385b68909f,,,,,,,,,,,1158.8334,1159.8304,,,1160.3283,1160.5793,,173,-7,,,,,,,,,,,,,,,,bars/032.png,bars/mask009.png,,,,,,,,,,,,1,2,,,,,,,2,8,1,10,,,,,,,,,,,1159.8304,1160.3283,1160.5793,1164.5034,space,3.9028,,1164.5034,48,27,1165.4997,1165.4997,1165.5063,,,,0,6,6,6,1,125,20,,,,,,,,
,,614e0a7aef8a6dd9107fb1c6,65af563cec02af7510459cf7,2024-01-23_24h03.11.078,bars,2023.2.3,MacIntel,60.14675809,657b66ea316d21385b68909f,,,,,,,,,,,1165.5066,1166.4973,,,1166.9962,1167.2457,,11,11,,,,,,,,,,,,,,,,bars/036.png,bars/mask004.png,,,,,,,,,,,,4,2,,,,,,,0,6,0,5,,,,,,,,,,,1166.4973,1166.9962,1167.2457,1167.8123,space,0.5569,,1167.8123,46,9,1168.8085,1168.8086,1168.8094,,,,0,7,7,7,1,145,20,,,,,,,,
,,614e0a7aef8a6dd9107fb1c6,65af563cec02af7510459cf7,2024-01-23_24h03.11.078,bars,2023.2.3,MacIntel,60.14675809,657b66ea316d21385b68909f,,,,,,,,,,,1168.8097,1169.8071,,,1170.305,1170.5554,,141,141,,,,,,,,,,,,,,,,bars/016.png,bars/mask009.png,,,,,,,,,,,,1,2,,,,,,,0,8,1,7,,,,,,,,,,,1169.8072,1170.305,1170.5554,1177.0228,space,6.4512,,1177.0228,79,24,1178.0199,1178.02,1178.0209,,,,0,8,8,8,1,40,165,,,,,,,,
,,614e0a7aef8a6dd9107fb1c6,65af563cec02af7510459cf7,2024-01-23_24h03.11.078,bars,2023.2.3,MacIntel,60.14675809,657b66ea316d21385b68909f,,,,,,,,,,,1178.0212,1179.0178,,,1179.5174,1179.7675,,173,173,,,,,,,,,,,,,,,,bars/045.png,bars/mask003.png,,,,,,,,,,,,2,2,,,,,,,0,6,0,5,,,,,,,,,,,1179.0178,1179.5174,1179.7675,1185.5367,space,5.7551,,1185.5368,73,17,1186.5348,1186.5349,1186.5361,,,,0,9,9,9,1,100,10,,,,,,,,
,,614e0a7aef8a6dd9107fb1c6,65af563cec02af7510459cf7,2024-01-23_24h03.11.078,bars,2023.2.3,MacIntel,60.14675809,657b66ea316d21385b68909f,,,,,,,,,,,1186.5364,1187.5314,,,1188.0302,1188.2796,,138,138,,,,,,,,,,,,,,,,bars/003.png,bars/mask009.png,,,,,,,,,,,,7,2,,,,,,,0,8,1,8,,,,,,,,,,,1187.5314,1188.0302,1188.2796,1192.471,space,4.1744,,1192.4711,67,2,1193.4684,1193.4684,1193.4694,,,,0,10,10,10,1,25,140,,,,,,,,
,,614e0a7aef8a6dd9107fb1c6,65af563cec02af7510459cf7,2024-01-23_24h03.11.078,bars,2023.2.3,MacIntel,60.14675809,657b66ea316d21385b68909f,,,,,,,,,,,1193.4698,1194.4658,,,1194.9638,1195.213,,1,1,,,,,,,,,,,,,,,,bars/013.png,bars/mask009.png,,,,,,,,,,,,7,2,,,,,,,0,10,0,10,,,,,,,,,,,1194.4658,1194.9637,1195.213,1200.7849,space,5.557,,1200.785,74,9,1201.7823,1201.7823,1201.7835,,,,0,11,11,11,1,75,10,,,,,,,,
,,614e0a7aef8a6dd9107fb1c6,65af563cec02af7510459cf7,2024-01-23_24h03.11.078,bars,2023.2.3,MacIntel,60.14675809,657b66ea316d21385b68909f,,,,,,,,,,,1201.784,1202.7791,,,1203.2774,1203.5278,,115,115,,,,,,,,,,,,,,,,bars/023.png,bars/mask005.png,,,,,,,,,,,,8,2,,,,,,,0,8,0,8,,,,,,,,,,,1202.7791,1203.2773,1203.5278,1207.0034,space,3.4539,,1207.0036,85,0,1208.0001,1208.0002,1208.0013,,,,0,12,12,12,1,20,115,,,,,,,,
,,614e0a7aef8a6dd9107fb1c6,65af563cec02af7510459cf7,2024-01-23_24h03.11.078,bars,2023.2.3,MacIntel,60.14675809,657b66ea316d21385b68909f,,,,,,,,,,,1208.0016,1208.9987,,,1209.496,1209.7468,,120,120,,,,,,,,,,,,,,,,bars/023.png,bars/mask009.png,,,,,,,,,,,,4,2,,,,,,,2,6,2,5,,,,,,,,,,,1208.9988,1209.496,1209.7468,1214.5531,space,4.7879,,1214.5531,80,5,1215.5494,1215.5494,1215.55,,,,0,13,13,13,1,20,115,,,,,,,,
,,614e0a7aef8a6dd9107fb1c6,65af563cec02af7510459cf7,2024-01-23_24h03.11.078,bars,2023.2.3,MacIntel,60.14675809,657b66ea316d21385b68909f,,,,,,,,,,,1215.5504,1216.5461,,,1217.0462,1217.2956,,8,188,,,,,,,,,,,,,,,,bars/036.png,bars/mask009.png,,,,,,,,,,,,5,2,,,,,,,0,8,1,8,,,,,,,,,,,1216.5462,1217.0461,1217.2958,1221.9846,space,4.6682,,1221.9846,43,12,1222.9816,1222.9816,1222.9827,,,,0,14,14,14,1,145,20,,,,,,,,
,,614e0a7aef8a6dd9107fb1c6,65af563cec02af7510459cf7,2024-01-23_24h03.11.078,bars,2023.2.3,MacIntel,60.14675809,657b66ea316d21385b68909f,,,,,,,,,,,1222.9833,1223.9785,,,1224.4775,1224.7285,,31,31,,,,,,,,,,,,,,,,bars/013.png,bars/mask002.png,,,,,,,,,,,,3,2,,,,,,,2,10,0,10,,,,,,,,,,,1223.9786,1224.4774,1224.7286,1228.1524,space,3.4084,,1228.1525,44,21,1229.1497,1229.1497,1229.1505,,,,0,15,15,15,1,75,10,,,,,,,,
,,614e0a7aef8a6dd9107fb1c6,65af563cec02af7510459cf7,2024-01-23_24h03.11.078,bars,2023.2.3,MacIntel,60.14675809,657b66ea316d21385b68909f,,,,,,,,,,,1229.1508,1230.1473,,,1230.6462,1230.8971,,10,10,,,,,,,,,,,,,,,,bars/012.png,bars/mask004.png,,,,,,,,,,,,8,2,,,,,,,4,10,2,10,,,,,,,,,,,1230.1473,1230.6462,1230.8971,1234.338,space,3.4254,,1234.3382,80,5,1235.3354,1235.3354,1235.3367,,,,0,16,16,16,1,90,15,,,,,,,,
,,614e0a7aef8a6dd9107fb1c6,65af563cec02af7510459cf7,2024-01-23_24h03.11.078,bars,2023.2.3,MacIntel,60.14675809,657b66ea316d21385b68909f,,,,,,,,,,,1235.3371,1236.3344,,,1236.8333,1237.0811,,67,67,,,,,,,,,,,,,,,,bars/037.png,bars/mask001.png,,,,,,,,,,,,0,2,,,,,,,2,8,2,9,,,,,,,,,,,1236.3344,1236.8332,1237.0812,1241.5883,space,4.4915,,1241.5884,83,38,1242.5863,1242.5864,1242.5874,,,,0,17,17,17,1,150,105,,,,,,,,
,,614e0a7aef8a6dd9107fb1c6,65af563cec02af7510459cf7,2024-01-23_24h03.11.078,bars,2023.2.3,MacIntel,60.14675809,657b66ea316d21385b68909f,,,,,,,,,,,1242.5879,1243.5826,,,1244.0823,1244.3307,,85,85,,,,,,,,,,,,,,,,bars/037.png,bars/mask004.png,,,,,,,,,,,,2,2,,,,,,,0,6,0,7,,,,,,,,,,,1243.5827,1244.0823,1244.3308,1249.1361,space,4.7912,,1249.1362,65,20,1250.1348,1250.1348,1250.1358,,,,0,18,18,18,1,150,105,,,,,,,,
,,614e0a7aef8a6dd9107fb1c6,65af563cec02af7510459cf7,2024-01-23_24h03.11.078,bars,2023.2.3,MacIntel,60.14675809,657b66ea316d21385b68909f,,,,,,,,,,,1250.1362,1251.1315,,,1251.6306,1251.8796,,74,74,,,,,,,,,,,,,,,,bars/046.png,bars/mask009.png,,,,,,,,,,,,2,2,,,,,,,0,4,2,3,,,,,,,,,,,1251.1316,1251.6305,1251.8796,1255.9201,space,4.0248,,1255.9202,81,11,1256.9176,1256.9176,1256.9185,,,,0,19,19,19,1,155,85,,,,,,,,
,,614e0a7aef8a6dd9107fb1c6,65af563cec02af7510459cf7,2024-01-23_24h03.11.078,bars,2023.2.3,MacIntel,60.14675809,657b66ea316d21385b68909f,,,,,,,,,,,1256.9188,1257.9152,,,1258.4141,1258.6637,,97,97,,,,,,,,,,,,,,,,bars/019.png,bars/mask005.png,,,,,,,,,,,,1,2,,,,,,,2,2,1,1,,,,,,,,,,,1257.9153,1258.4141,1258.6637,1262.0737,space,3.3916,,1262.0738,52,8,1263.0697,1263.0697,1263.0706,,,,0,20,20,20,1,45,105,,,,,,,,
,,614e0a7aef8a6dd9107fb1c6,65af563cec02af7510459cf7,2024-01-23_24h03.11.078,bars,2023.2.3,MacIntel,60.14675809,657b66ea316d21385b68909f,,,,,,,,,,,1263.071,1264.0687,,,1264.5662,1264.8163,,62,62,,,,,,,,,,,,,,,,bars/027.png,bars/mask006.png,,,,,,,,,,,,0,2,,,,,,,4,0,4,0,,,,,,,,,,,1264.0688,1264.5662,1264.8164,1266.1312,space,1.2958,,1266.1312,48,12,1267.1268,1267.1269,1267.1277,,,,0,21,21,21,1,110,50,,,,,,,,
,,614e0a7aef8a6dd9107fb1c6,65af563cec02af7510459cf7,2024-01-23_24h03.11.078,bars,2023.2.3,MacIntel,60.14675809,657b66ea316d21385b68909f,,,,,,,,,,,1267.128,1268.1243,,,1268.6234,1268.8726,,56,56,,,,,,,,,,,,,,,,bars/035.png,bars/mask009.png,,,,,,,,,,,,0,2,,,,,,,2,0,3,0,,,,,,,,,,,1268.1243,1268.6234,1268.8726,1272.4646,space,3.578,,1272.4647,61,4,1273.4622,1273.4622,1273.4633,,,,0,22,22,22,1,175,60,,,,,,,,
,,614e0a7aef8a6dd9107fb1c6,65af563cec02af7510459cf7,2024-01-23_24h03.11.078,bars,2023.2.3,MacIntel,60.14675809,657b66ea316d21385b68909f,,,,,,,,,,,1273.4636,1274.4605,,,1274.9595,1275.2096,,30,30,,,,,,,,,,,,,,,,bars/013.png,bars/mask008.png,,,,,,,,,,,,0,2,,,,,,,0,0,1,0,,,,,,,,,,,1274.4605,1274.9594,1275.2096,1275.8082,space,0.5824,,1275.8082,45,20,1276.8044,1276.8044,1276.8054,,,,0,23,23,23,1,75,10,,,,,,,,
,,614e0a7aef8a6dd9107fb1c6,65af563cec02af7510459cf7,2024-01-23_24h03.11.078,bars,2023.2.3,MacIntel,60.14675809,657b66ea316d21385b68909f,,,,,,,,,,,1276.8057,1277.8016,,,1278.3006,1278.55,,172,172,,,,,,,,,,,,,,,,bars/026.png,bars/mask009.png,,,,,,,,,,,,0,1,,,,,,,2,2,2,1,,,,,,,,,,,1277.8016,1278.3005,1278.55,1280.7627,space,2.2055,,1280.7628,43,87,1281.7598,1281.7599,1281.7653,,,,0,24,24,24,1,35,85,,,,,,,,
,,614e0a7aef8a6dd9107fb1c6,65af563cec02af7510459cf7,2024-01-23_24h03.11.078,bars,2023.2.3,MacIntel,60.14675809,657b66ea316d21385b68909f,,,,,,,,,,,1281.7656,1282.7581,,,1283.2556,1283.505,,110,110,,,,,,,,,,,,,,,,bars/006.png,bars/mask000.png,,,,,,,,,,,,0,2,,,,,,,0,0,0,0,,,,,,,,,,,1282.7582,1283.2555,1283.505,1284.4194,space,0.8982,,1284.4195,75,10,1285.418,1285.418,1285.4236,,,,0,25,25,25,1,35,100,,,,,,,,
,,614e0a7aef8a6dd9107fb1c6,65af563cec02af7510459cf7,2024-01-23_24h03.11.078,bars,2023.2.3,MacIntel,60.14675809,657b66ea316d21385b68909f,,,,,,,,,,,1285.4239,1286.4148,,,1286.9149,1287.1643,,15,15,,,,,,,,,,,,,,,,bars/018.png,bars/mask002.png,,,,,,,,,,,,0,1,,,,,,,0,0,0,0,,,,,,,,,,,1286.4148,1286.9149,1287.1644,1287.6452,space,0.4613,,1287.6453,45,75,1288.643,1288.6431,1288.6498,,,,0,26,26,26,1,150,90,,,,,,,,
,,614e0a7aef8a6dd9107fb1c6,65af563cec02af7510459cf7,2024-01-23_24h03.11.078,bars,2023.2.3,MacIntel,60.14675809,657b66ea316d21385b68909f,,,,,,,,,,,1288.6501,1289.6405,,,1290.14,1290.3905,,146,146,,,,,,,,,,,,,,,,bars/009.png,bars/mask006.png,,,,,,,,,,,,0,2,,,,,,,2,0,2,1,,,,,,,,,,,1289.6405,1290.1398,1290.3905,1290.8888,space,0.4823,,1290.8888,49,41,1291.886,1291.886,1291.8916,,,,0,27,27,27,1,15,105,,,,,,,,
,,614e0a7aef8a6dd9107fb1c6,65af563cec02af7510459cf7,2024-01-23_24h03.11.078,bars,2023.2.3,MacIntel,60.14675809,657b66ea316d21385b68909f,,,,,,,,,,,1291.8918,1292.8862,,,1293.3821,1293.6318,,149,149,,,,,,,,,,,,,,,,bars/016.png,bars/mask006.png,,,,,,,,,,,,1,2,,,,,,,0,2,2,2,,,,,,,,,,,1292.8862,1293.3821,1293.6319,1294.114,space,0.4709,,1294.1141,71,16,1295.1111,1295.1111,1295.1124,,,,0,28,28,28,1,40,165,,,,,,,,
,,614e0a7aef8a6dd9107fb1c6,65af563cec02af7510459cf7,2024-01-23_24h03.11.078,bars,2023.2.3,MacIntel,60.14675809,657b66ea316d21385b68909f,,,,,,,,,,,1295.113,1296.1082,,,1296.6083,1296.8571,,136,136,,,,,,,,,,,,,,,,bars/039.png,bars/mask007.png,,,,,,,,,,,,0,2,,,,,,,2,0,1,0,,,,,,,,,,,1296.1082,1296.6083,1296.8571,1297.3056,space,0.4306,,1297.3056,39,31,1298.3034,1298.3034,1298.3048,,,,0,29,29,29,1,175,105,,,,,,,,
,,614e0a7aef8a6dd9107fb1c6,65af563cec02af7510459cf7,2024-01-23_24h03.11.078,bars,2023.2.3,MacIntel,60.14675809,657b66ea316d21385b68909f,,,,,,,,,,,1298.3053,1299.3031,,,1299.7999,1300.0503,,103,103,,,,,,,,,,,,,,,,bars/024.png,bars/mask006.png,,,,,,,,,,,,0,1,,,,,,,0,2,1,3,,,,,,,,,,,1299.3031,1299.7998,1300.0504,1300.3663,space,0.2943,,1300.3663,17,67,1301.3627,1301.3628,1301.3692,,,,0,30,30,30,1,120,170,,,,,,,,
,,614e0a7aef8a6dd9107fb1c6,65af563cec02af7510459cf7,2024-01-23_24h03.11.078,bars,2023.2.3,MacIntel,60.14675809,657b66ea316d21385b68909f,,,,,,,,,,,1301.3695,1302.3608,,,1302.8597,1303.1108,,39,39,,,,,,,,,,,,,,,,bars/035.png,bars/mask000.png,,,,,,,,,,,,0,2,,,,,,,0,0,0,1,,,,,,,,,,,1302.3608,1302.8596,1303.1108,1303.5242,space,0.4012,,1303.5243,44,21,1304.522,1304.522,1304.5284,,,,0,31,31,31,1,175,60,,,,,,,,
,,614e0a7aef8a6dd9107fb1c6,65af563cec02af7510459cf7,2024-01-23_24h03.11.078,bars,2023.2.3,MacIntel,60.14675809,657b66ea316d21385b68909f,,,,,,,,,,,1304.5286,1305.5215,,,1306.0187,1306.2686,,61,61,,,,,,,,,,,,,,,,bars/012.png,bars/mask005.png,,,,,,,,,,,,0,1,,,,,,,2,2,2,2,,,,,,,,,,,1305.5215,1306.0187,1306.2686,1306.6667,space,0.3859,,1306.6668,29,46,1307.6659,1307.666,1307.6713,,,,0,32,32,32,1,90,15,,,,,,,,
,,614e0a7aef8a6dd9107fb1c6,65af563cec02af7510459cf7,2024-01-23_24h03.11.078,bars,2023.2.3,MacIntel,60.14675809,657b66ea316d21385b68909f,,,,,,,,,,,1307.6716,1308.6624,,,1309.1613,1309.4105,,111,111,,,,,,,,,,,,,,,,bars/004.png,bars/mask003.png,,,,,,,,,,,,3,2,,,,,,,4,4,4,6,,,,,,,,,,,1308.6625,1309.1612,1309.4106,1310.7914,space,1.3637,,1310.7914,86,14,1311.7893,1311.7894,1311.7946,,,,0,33,33,33,1,25,125,,,,,,,,
,,614e0a7aef8a6dd9107fb1c6,65af563cec02af7510459cf7,2024-01-23_24h03.11.078,bars,2023.2.3,MacIntel,60.14675809,657b66ea316d21385b68909f,,,,,,,,,,,1311.7949,1312.7863,,,1313.2861,1313.5349,,178,178,,,,,,,,,,,,,,,,bars/025.png,bars/mask006.png,,,,,,,,,,,,0,2,,,,,,,6,2,7,2,,,,,,,,,,,1312.7864,1313.2861,1313.5349,1314.0161,space,0.4665,,1314.0161,73,42,1315.0155,1315.0155,1315.0165,,,,0,34,34,34,1,105,40,,,,,,,,
,,614e0a7aef8a6dd9107fb1c6,65af563cec02af7510459cf7,2024-01-23_24h03.11.078,bars,2023.2.3,MacIntel,60.14675809,657b66ea316d21385b68909f,,,,,,,,,,,1315.0167,1316.0131,,,1316.5124,1316.7597,,57,57,,,,,,,,,,,,,,,,bars/035.png,bars/mask002.png,,,,,,,,,,,,4,2,,,,,,,4,4,4,4,,,,,,,,,,,1316.0132,1316.5124,1316.7597,1317.1933,space,0.4194,,1317.1933,62,3,1318.19,1318.19,1318.1921,,,,0,35,35,35,1,175,60,,,,,,,,
,,614e0a7aef8a6dd9107fb1c6,65af563cec02af7510459cf7,2024-01-23_24h03.11.078,bars,2023.2.3,MacIntel,60.14675809,657b66ea316d21385b68909f,,,,,,,,,,,1318.1924,1319.1875,,,1319.6879,1319.9373,,161,161,,,,,,,,,,,,,,,,bars/012.png,bars/mask009.png,,,,,,,,,,,,0,2,,,,,,,2,6,3,5,,,,,,,,,,,1319.1875,1319.6878,1319.9373,1320.3689,space,0.415,,1320.3691,71,34,1321.3659,1321.3659,1321.3671,,,,0,36,36,36,1,90,15,,,,,,,,
,,614e0a7aef8a6dd9107fb1c6,65af563cec02af7510459cf7,2024-01-23_24h03.11.078,bars,2023.2.3,MacIntel,60.14675809,657b66ea316d21385b68909f,,,,,,,,,,,1321.3674,1322.3654,,,1322.8638,1323.113,,59,59,,,,,,,,,,,,,,,,bars/026.png,bars/mask000.png,,,,,,,,,,,,1,1,,,,,,,4,8,4,7,,,,,,,,,,,1322.3655,1322.8637,1323.113,1323.5771,space,0.4487,,1323.5771,24,26,1324.5749,1324.5749,1324.5814,,,,0,37,37,37,1,35,85,,,,,,,,
,,614e0a7aef8a6dd9107fb1c6,65af563cec02af7510459cf7,2024-01-23_24h03.11.078,bars,2023.2.3,MacIntel,60.14675809,657b66ea316d21385b68909f,,,,,,,,,,,1324.5817,1325.5726,,,1326.0713,1326.3229,,64,64,,,,,,,,,,,,,,,,bars/033.png,bars/mask006.png,,,,,,,,,,,,0,1,,,,,,,6,10,7,10,,,,,,,,,,,1325.5727,1326.0712,1326.3229,1326.6872,space,0.3497,,1326.6872,39,89,1327.685,1327.685,1327.6859,,,,0,38,38,38,1,25,155,,,,,,,,
,,614e0a7aef8a6dd9107fb1c6,65af563cec02af7510459cf7,2024-01-23_24h03.11.078,bars,2023.2.3,MacIntel,60.14675809,657b66ea316d21385b68909f,,,,,,,,,,,1327.6863,1328.6818,,,1329.1806,1329.4315,,57,57,,,,,,,,,,,,,,,,bars/015.png,bars/mask005.png,,,,,,,,,,,,0,1,,,,,,,8,8,8,8,,,,,,,,,,,1328.6818,1329.1805,1329.4317,1329.9296,space,0.4869,,1329.9297,53,77,1330.9279,1330.928,1330.929,,,,0,39,39,39,1,110,160,,,,,,,,
,,614e0a7aef8a6dd9107fb1c6,65af563cec02af7510459cf7,2024-01-23_24h03.11.078,bars,2023.2.3,MacIntel,60.14675809,657b66ea316d21385b68909f,,,,,,,,,,,1330.9293,1331.9255,,,1332.4233,1332.674,,100,100,,,,,,,,,,,,,,,,bars/023.png,bars/mask006.png,,,,,,,,,,,,3,2,,,,,,,10,6,10,5,,,,,,,,,,,1331.9255,1332.4232,1332.674,1332.7553,space,0.0611,,1332.7554,80,15,1333.7534,1333.7534,1333.76,,,,0,40,40,40,1,20,115,,,,,,,,
,,614e0a7aef8a6dd9107fb1c6,65af563cec02af7510459cf7,2024-01-23_24h03.11.078,bars,2023.2.3,MacIntel,60.14675809,657b66ea316d21385b68909f,,,,,,,,,,,1333.7603,1334.7511,,,1335.2496,1335.4998,,179,179,,,,,,,,,,,,,,,,bars/005.png,bars/mask003.png,,,,,,,,,,,,4,1,,,,,,,8,8,7,7,,,,,,,,,,,1334.7512,1335.2496,1335.4998,1336.0179,space,0.4993,,1336.018,11,39,1337.012,1337.0121,1337.0188,,,,0,41,41,41,1,10,140,,,,,,,,
,,614e0a7aef8a6dd9107fb1c6,65af563cec02af7510459cf7,2024-01-23_24h03.11.078,bars,2023.2.3,MacIntel,60.14675809,657b66ea316d21385b68909f,,,,,,,,,,,1337.0191,1338.0091,,,1338.5087,1338.7574,,14,14,,,,,,,,,,,,,,,,bars/016.png,bars/mask002.png,,,,,,,,,,,,1,1,,,,,,,10,10,10,10,,,,,,,,,,,1338.0092,1338.5086,1338.7574,1339.3398,space,0.5734,,1339.3399,26,29,1340.3384,1340.3384,1340.3395,,,,0,42,42,42,1,40,165,,,,,,,,
,,614e0a7aef8a6dd9107fb1c6,65af563cec02af7510459cf7,2024-01-23_24h03.11.078,bars,2023.2.3,MacIntel,60.14675809,657b66ea316d21385b68909f,,,,,,,,,,,1340.3398,1341.3364,,,1341.8344,1342.0847,,128,128,,,,,,,,,,,,,,,,bars/008.png,bars/mask005.png,,,,,,,,,,,,4,1,,,,,,,10,10,9,10,,,,,,,,,,,1341.3364,1341.8344,1342.0847,1342.6332,space,0.5315,,1342.6333,18,52,1343.6307,1343.6307,1343.6317,,,,0,43,43,43,1,110,0,,,,,,,,
,,614e0a7aef8a6dd9107fb1c6,65af563cec02af7510459cf7,2024-01-23_24h03.11.078,bars,2023.2.3,MacIntel,60.14675809,657b66ea316d21385b68909f,,,,,,,,,,,1343.6319,1344.6276,,,1345.1268,1345.377,,11,11,,,,,,,,,,,,,,,,bars/035.png,bars/mask000.png,,,,,,,,,,,,5,1,,,,,,,10,10,10,10,,,,,,,,,,,1344.6276,1345.1268,1345.377,1345.9259,space,0.5346,,1345.926,16,49,1346.922,1346.922,1346.9229,,,,0,44,44,44,1,175,60,,,,,,,,
,,614e0a7aef8a6dd9107fb1c6,65af563cec02af7510459cf7,2024-01-23_24h03.11.078,bars,2023.2.3,MacIntel,60.14675809,657b66ea316d21385b68909f,,,,,,,,,,,1346.9232,1347.9196,,,1348.4184,1348.668,,42,42,,,,,,,,,,,,,,,,bars/048.png,bars/mask006.png,,,,,,,,,,,,7,1,,,,,,,10,8,10,6,,,,,,,,,,,1347.9197,1348.4184,1348.668,1349.5007,space,0.8223,,1349.5007,8,47,1350.4982,1350.4982,1350.4992,,,,0,45,45,45,1,50,175,,,,,,,,
,,614e0a7aef8a6dd9107fb1c6,65af563cec02af7510459cf7,2024-01-23_24h03.11.078,bars,2023.2.3,MacIntel,60.14675809,657b66ea316d21385b68909f,,,,,,,,,,,1350.4995,1351.4947,,,1351.995,1352.2429,,128,128,,,,,,,,,,,,,,,,bars/000.png,bars/mask001.png,,,,,,,,,,,,3,2,,,,,,,8,6,6,6,,,,,,,,,,,1351.4947,1351.995,1352.2429,1352.8754,space,0.616,,1352.8755,88,17,1353.8726,1353.8726,1353.8791,,,,0,46,46,46,1,40,145,,,,,,,,
,,614e0a7aef8a6dd9107fb1c6,65af563cec02af7510459cf7,2024-01-23_24h03.11.078,bars,2023.2.3,MacIntel,60.14675809,657b66ea316d21385b68909f,,,,,,,,,,,1353.8794,1354.8703,,,1355.3709,1355.6183,,99,99,,,,,,,,,,,,,,,,bars/005.png,bars/mask002.png,,,,,,,,,,,,0,2,,,,,,,10,4,10,4,,,,,,,,,,,1354.8703,1355.3708,1355.6184,1356.1018,space,0.4658,,1356.1019,89,41,1357.0981,1357.0981,1357.0988,,,,0,47,47,47,1,10,140,,,,,,,,
,,614e0a7aef8a6dd9107fb1c6,65af563cec02af7510459cf7,2024-01-23_24h03.11.078,bars,2023.2.3,MacIntel,60.14675809,657b66ea316d21385b68909f,,,,,,,,,,,1357.0991,1358.0957,,,1358.5947,1358.8444,,146,146,,,,,,,,,,,,,,,,bars/003.png,bars/mask006.png,,,,,,,,,,,,2,2,,,,,,,8,2,7,2,,,,,,,,,,,1358.0958,1358.5947,1358.8444,1359.51,space,0.6483,,1359.5102,59,6,1360.5081,1360.5081,1360.509,,,,0,48,48,48,1,25,140,,,,,,,,
,,614e0a7aef8a6dd9107fb1c6,65af563cec02af7510459cf7,2024-01-23_24h03.11.078,bars,2023.2.3,MacIntel,60.14675809,657b66ea316d21385b68909f,,,,,,,,,,,1360.5095,1361.5062,,,1362.0036,1362.2534,,89,89,,,,,,,,,,,,,,,,bars/024.png,bars/mask002.png,,,,,,,,,,,,0,1,,,,,,,10,0,10,0,,,,,,,,,,,1361.5062,1362.0035,1362.2535,1362.7202,space,0.4499,,1362.7202,31,81,1363.7171,1363.7172,1363.7227,,,,0,49,49,49,1,120,170,,,,,,,,
,,614e0a7aef8a6dd9107fb1c6,65af563cec02af7510459cf7,2024-01-23_24h03.11.078,bars,2023.2.3,MacIntel,60.14675809,657b66ea316d21385b68909f,,,,,,,,,,,,,,,,,,,,,,,,,,,,,,,,,,,,,,,,,,,,,,,,,,,,,,,,,,,,,,,,,,,,,,,,,,,,,,,,,,,,,,,,,,,,,1363.7228,1423.7251,0,2,2,4,1,sequence_tables/blk002.csv
,,614e0a7aef8a6dd9107fb1c6,65af563cec02af7510459cf7,2024-01-23_24h03.11.078,bars,2023.2.3,MacIntel,60.14675809,657b66ea316d21385b68909f,,,,,,,,,,,1425.4264,1426.4183,,,1426.9173,1427.1682,,97,97,,,,,,,,,,,,,,,,bars/030.png,bars/mask007.png,,,,,,,,,,,,0,2,,,,,,,3,6,4,4,,,,,,1423.7256,1425.421,space,1.6785,,1426.4183,1426.9173,1427.1683,1427.9975,space,0.8151,,1427.9975,43,32,1428.9955,1428.9956,1429.0017,,,,0,0,0,0,1,140,65,,,,,,,,
,,614e0a7aef8a6dd9107fb1c6,65af563cec02af7510459cf7,2024-01-23_24h03.11.078,bars,2023.2.3,MacIntel,60.14675809,657b66ea316d21385b68909f,,,,,,,,,,,1429.0019,1429.9933,,,1430.493,1430.7425,,41,41,,,,,,,,,,,,,,,,bars/034.png,bars/mask005.png,,,,,,,,,,,,0,2,,,,,,,1,4,1,2,,,,,,,,,,,1429.9933,1430.4929,1430.7425,1431.1566,space,0.4015,,1431.1567,84,24,1432.1543,1432.1543,1432.155,,,,0,1,1,1,1,125,65,,,,,,,,
,,614e0a7aef8a6dd9107fb1c6,65af563cec02af7510459cf7,2024-01-23_24h03.11.078,bars,2023.2.3,MacIntel,60.14675809,657b66ea316d21385b68909f,,,,,,,,,,,1432.1555,1433.1524,,,1433.6513,1433.9029,,141,141,,,,,,,,,,,,,,,,bars/039.png,bars/mask003.png,,,,,,,,,,,,0,1,,,,,,,0,2,0,3,,,,,,,,,,,1433.1525,1433.6513,1433.903,1434.2827,space,0.3721,,1434.2828,34,36,1435.2805,1435.2805,1435.287,,,,0,2,2,2,1,175,105,,,,,,,,
,,614e0a7aef8a6dd9107fb1c6,65af563cec02af7510459cf7,2024-01-23_24h03.11.078,bars,2023.2.3,MacIntel,60.14675809,657b66ea316d21385b68909f,,,,,,,,,,,1435.2873,1436.2802,,,1436.7771,1437.0263,,138,138,,,,,,,,,,,,,,,,bars/012.png,bars/mask001.png,,,,,,,,,,,,0,1,,,,,,,2,0,1,1,,,,,,,,,,,1436.2803,1436.777,1437.0264,1437.3925,space,0.3527,,1437.3925,48,57,1438.3896,1438.3897,1438.3905,,,,0,3,3,3,1,90,15,,,,,,,,
,,614e0a7aef8a6dd9107fb1c6,65af563cec02af7510459cf7,2024-01-23_24h03.11.078,bars,2023.2.3,MacIntel,60.14675809,657b66ea316d21385b68909f,,,,,,,,,,,1438.3907,1439.3873,,,1439.8864,1440.1359,,118,118,,,,,,,,,,,,,,,,bars/048.png,bars/mask001.png,,,,,,,,,,,,0,2,,,,,,,0,0,0,1,,,,,,,,,,,1439.3873,1439.8863,1440.136,1440.6344,space,0.4871,,1440.6345,68,57,1441.6322,1441.6323,1441.6387,,,,0,4,4,4,1,50,175,,,,,,,,
,,614e0a7aef8a6dd9107fb1c6,65af563cec02af7510459cf7,2024-01-23_24h03.11.078,bars,2023.2.3,MacIntel,60.14675809,657b66ea316d21385b68909f,,,,,,,,,,,1441.639,1442.6297,,,1443.1288,1443.3783,,50,50,,,,,,,,,,,,,,,,bars/037.png,bars/mask005.png,,,,,,,,,,,,0,2,,,,,,,0,0,0,0,,,,,,,,,,,1442.6299,1443.1288,1443.3784,1443.7109,space,0.3175,,1443.711,80,55,1444.7096,1444.7096,1444.7105,,,,0,5,5,5,1,150,105,,,,,,,,
,,614e0a7aef8a6dd9107fb1c6,65af563cec02af7510459cf7,2024-01-23_24h03.11.078,bars,2023.2.3,MacIntel,60.14675809,657b66ea316d21385b68909f,,,,,,,,,,,1444.7108,1445.707,,,1446.2041,1446.454,,23,23,,,,,,,,,,,,,,,,bars/020.png,bars/mask007.png,,,,,,,,,,,,0,2,,,,,,,0,2,2,3,,,,,,,,,,,1445.7072,1446.204,1446.454,1447.103,space,0.6372,,1447.103,88,33,1448.1003,1448.1004,1448.1011,,,,0,6,6,6,1,115,170,,,,,,,,
,,614e0a7aef8a6dd9107fb1c6,65af563cec02af7510459cf7,2024-01-23_24h03.11.078,bars,2023.2.3,MacIntel,60.14675809,657b66ea316d21385b68909f,,,,,,,,,,,1448.1014,1449.0983,,,1449.597,1449.8465,,67,67,,,,,,,,,,,,,,,,bars/010.png,bars/mask006.png,,,,,,,,,,,,0,2,,,,,,,2,0,1,0,,,,,,,,,,,1449.0983,1449.5969,1449.8465,1450.5785,space,0.7153,,1450.5785,82,12,1451.577,1451.5771,1451.5782,,,,0,7,7,7,1,165,55,,,,,,,,
,,614e0a7aef8a6dd9107fb1c6,65af563cec02af7510459cf7,2024-01-23_24h03.11.078,bars,2023.2.3,MacIntel,60.14675809,657b66ea316d21385b68909f,,,,,,,,,,,1451.5786,1452.5743,,,1453.0719,1453.3235,,54,54,,,,,,,,,,,,,,,,bars/037.png,bars/mask000.png,,,,,,,,,,,,0,2,,,,,,,4,2,4,1,,,,,,,,,,,1452.5744,1453.0719,1453.3236,1453.4712,space,0.1324,,1453.4713,84,51,1454.4683,1454.4683,1454.4691,,,,0,8,8,8,1,150,105,,,,,,,,
,,614e0a7aef8a6dd9107fb1c6,65af563cec02af7510459cf7,2024-01-23_24h03.11.078,bars,2023.2.3,MacIntel,60.14675809,657b66ea316d21385b68909f,,,,,,,,,,,1454.4694,1455.467,,,1455.9653,1456.2147,,123,123,,,,,,,,,,,,,,,,bars/034.png,bars/mask003.png,,,,,,,,,,,,2,1,,,,,,,2,0,2,0,,,,,,,,,,,1455.467,1455.9653,1456.2147,1457.1294,space,0.8988,,1457.1296,2,58,1458.1266,1458.1266,1458.1331,,,,0,9,9,9,1,125,65,,,,,,,,
,,614e0a7aef8a6dd9107fb1c6,65af563cec02af7510459cf7,2024-01-23_24h03.11.078,bars,2023.2.3,MacIntel,60.14675809,657b66ea316d21385b68909f,,,,,,,,,,,1458.1333,1459.1241,,,1459.6234,1459.873,,72,72,,,,,,,,,,,,,,,,bars/017.png,bars/mask008.png,,,,,,,,,,,,0,2,,,,,,,4,0,4,0,,,,,,,,,,,1459.1241,1459.6234,1459.873,1460.3555,space,0.4737,,1460.3556,73,27,1461.3541,1461.3542,1461.3598,,,,0,10,10,10,1,145,45,,,,,,,,
,,614e0a7aef8a6dd9107fb1c6,65af563cec02af7510459cf7,2024-01-23_24h03.11.078,bars,2023.2.3,MacIntel,60.14675809,657b66ea316d21385b68909f,,,,,,,,,,,1461.36,1462.3513,,,1462.8504,1463.0998,,56,56,,,,,,,,,,,,,,,,bars/027.png,bars/mask008.png,,,,,,,,,,,,0,2,,,,,,,6,0,6,0,,,,,,,,,,,1462.3514,1462.8504,1463.0998,1463.5143,space,0.3955,,1463.5144,54,6,1464.5113,1464.5113,1464.5124,,,,0,11,11,11,1,110,50,,,,,,,,
,,614e0a7aef8a6dd9107fb1c6,65af563cec02af7510459cf7,2024-01-23_24h03.11.078,bars,2023.2.3,MacIntel,60.14675809,657b66ea316d21385b68909f,,,,,,,,,,,1464.5128,1465.5094,,,1466.0084,1466.2578,,158,158,,,,,,,,,,,,,,,,bars/017.png,bars/mask007.png,,,,,,,,,,,,3,1,,,,,,,4,0,5,1,,,,,,,,,,,1465.5095,1466.0083,1466.2578,1466.6897,space,0.4182,,1466.6897,13,67,1467.6874,1467.6875,1467.6941,,,,0,12,12,12,1,145,45,,,,,,,,
,,614e0a7aef8a6dd9107fb1c6,65af563cec02af7510459cf7,2024-01-23_24h03.11.078,bars,2023.2.3,MacIntel,60.14675809,657b66ea316d21385b68909f,,,,,,,,,,,1467.6944,1468.6849,,,1469.1834,1469.4327,,66,66,,,,,,,,,,,,,,,,bars/048.png,bars/mask004.png,,,,,,,,,,,,3,1,,,,,,,6,0,6,0,,,,,,,,,,,1468.685,1469.1834,1469.4327,1469.7325,space,0.2816,,1469.7325,16,71,1470.7302,1470.7303,1470.731,,,,0,13,13,13,1,50,175,,,,,,,,
,,614e0a7aef8a6dd9107fb1c6,65af563cec02af7510459cf7,2024-01-23_24h03.11.078,bars,2023.2.3,MacIntel,60.14675809,657b66ea316d21385b68909f,,,,,,,,,,,1470.7312,1471.7281,,,1472.2267,1472.4775,,95,95,,,,,,,,,,,,,,,,bars/014.png,bars/mask004.png,,,,,,,,,,,,2,1,,,,,,,4,0,4,0,,,,,,,,,,,1471.7281,1472.2266,1472.4776,1472.8924,space,0.4003,,1472.8925,15,85,1473.8897,1473.8898,1473.8907,,,,0,14,14,14,1,80,0,,,,,,,,
,,614e0a7aef8a6dd9107fb1c6,65af563cec02af7510459cf7,2024-01-23_24h03.11.078,bars,2023.2.3,MacIntel,60.14675809,657b66ea316d21385b68909f,,,,,,,,,,,1473.8911,1474.8871,,,1475.3872,1475.6357,,8,8,,,,,,,,,,,,,,,,bars/014.png,bars/mask007.png,,,,,,,,,,,,2,2,,,,,,,2,2,1,3,,,,,,,,,,,1474.8871,1475.3872,1475.6358,1476.0676,space,0.4124,,1476.0677,72,8,1477.0669,1477.067,1477.0724,,,,0,15,15,15,1,80,0,,,,,,,,
,,614e0a7aef8a6dd9107fb1c6,65af563cec02af7510459cf7,2024-01-23_24h03.11.078,bars,2023.2.3,MacIntel,60.14675809,657b66ea316d21385b68909f,,,,,,,,,,,1477.0727,1478.0629,,,1478.5619,1478.8113,,9,9,,,,,,,,,,,,,,,,bars/042.png,bars/mask005.png,,,,,,,,,,,,0,1,,,,,,,4,4,5,5,,,,,,,,,,,1478.0629,1478.5619,1478.8113,1479.2264,space,0.4075,,1479.2266,44,66,1480.2248,1480.2248,1480.2315,,,,0,16,16,16,1,145,75,,,,,,,,
,,614e0a7aef8a6dd9107fb1c6,65af563cec02af7510459cf7,2024-01-23_24h03.11.078,bars,2023.2.3,MacIntel,60.14675809,657b66ea316d21385b68909f,,,,,,,,,,,1480.2319,1481.2233,,,1481.7212,1481.9717,,128,128,,,,,,,,,,,,,,,,bars/046.png,bars/mask006.png,,,,,,,,,,,,0,1,,,,,,,6,6,4,6,,,,,,,,,,,1481.2233,1481.7212,1481.9717,1482.3706,space,0.3877,,1482.3706,27,43,1483.3679,1483.368,1483.3688,,,,0,17,17,17,1,155,85,,,,,,,,
,,614e0a7aef8a6dd9107fb1c6,65af563cec02af7510459cf7,2024-01-23_24h03.11.078,bars,2023.2.3,MacIntel,60.14675809,657b66ea316d21385b68909f,,,,,,,,,,,1483.3691,1484.3667,,,1484.8634,1485.1131,,12,12,,,,,,,,,,,,,,,,bars/046.png,bars/mask009.png,,,,,,,,,,,,0,1,,,,,,,8,4,9,4,,,,,,,,,,,1484.3667,1484.8634,1485.1131,1485.4787,space,0.3541,,1485.4787,37,73,1486.4767,1486.4767,1486.4774,,,,0,18,18,18,1,155,85,,,,,,,,
,,614e0a7aef8a6dd9107fb1c6,65af563cec02af7510459cf7,2024-01-23_24h03.11.078,bars,2023.2.3,MacIntel,60.14675809,657b66ea316d21385b68909f,,,,,,,,,,,1486.4778,1487.4744,,,1487.9745,1488.2223,,17,17,,,,,,,,,,,,,,,,bars/019.png,bars/mask008.png,,,,,,,,,,,,0,1,,,,,,,6,6,6,7,,,,,,,,,,,1487.4744,1487.9745,1488.2223,1488.6545,space,0.4169,,1488.6545,28,88,1489.6525,1489.6525,1489.6537,,,,0,19,19,19,1,45,105,,,,,,,,
,,614e0a7aef8a6dd9107fb1c6,65af563cec02af7510459cf7,2024-01-23_24h03.11.078,bars,2023.2.3,MacIntel,60.14675809,657b66ea316d21385b68909f,,,,,,,,,,,1489.6541,1490.6511,,,1491.1491,1491.3998,,171,171,,,,,,,,,,,,,,,,bars/007.png,bars/mask003.png,,,,,,,,,,,,3,1,,,,,,,4,8,4,6,,,,,,,,,,,1490.6512,1491.1491,1491.3998,1491.7819,space,0.3603,,1491.7821,4,64,1492.7794,1492.7795,1492.7802,,,,0,20,20,20,1,175,55,,,,,,,,
,,614e0a7aef8a6dd9107fb1c6,65af563cec02af7510459cf7,2024-01-23_24h03.11.078,bars,2023.2.3,MacIntel,60.14675809,657b66ea316d21385b68909f,,,,,,,,,,,1492.7806,1493.7759,,,1494.2748,1494.5242,,7,7,,,,,,,,,,,,,,,,bars/020.png,bars/mask008.png,,,,,,,,,,,,4,2,,,,,,,2,10,2,10,,,,,,,,,,,1493.776,1494.2747,1494.5243,1495.0564,space,0.5211,,1495.0565,72,17,1496.0541,1496.0542,1496.0605,,,,0,21,21,21,1,115,170,,,,,,,,
,,614e0a7aef8a6dd9107fb1c6,65af563cec02af7510459cf7,2024-01-23_24h03.11.078,bars,2023.2.3,MacIntel,60.14675809,657b66ea316d21385b68909f,,,,,,,,,,,1496.0607,1497.0514,,,1497.5517,1497.8,,47,47,,,,,,,,,,,,,,,,bars/024.png,bars/mask007.png,,,,,,,,,,,,0,2,,,,,,,0,8,0,8,,,,,,,,,,,1497.0514,1497.5516,1497.8001,1498.2651,space,0.4476,,1498.2651,73,57,1499.2631,1499.2631,1499.2641,,,,0,22,22,22,1,120,170,,,,,,,,
,,614e0a7aef8a6dd9107fb1c6,65af563cec02af7510459cf7,2024-01-23_24h03.11.078,bars,2023.2.3,MacIntel,60.14675809,657b66ea316d21385b68909f,,,,,,,,,,,1499.2644,1500.2607,,,1500.7596,1501.0101,,159,159,,,,,,,,,,,,,,,,bars/037.png,bars/mask005.png,,,,,,,,,,,,0,1,,,,,,,0,10,0,10,,,,,,,,,,,1500.2609,1500.7595,1501.0102,1501.4587,space,0.436,,1501.4587,9,54,1502.4569,1502.4569,1502.4623,,,,0,23,23,23,1,150,105,,,,,,,,
,,614e0a7aef8a6dd9107fb1c6,65af563cec02af7510459cf7,2024-01-23_24h03.11.078,bars,2023.2.3,MacIntel,60.14675809,657b66ea316d21385b68909f,,,,,,,,,,,1502.4626,1503.454,,,1503.954,1504.2011,,144,144,,,,,,,,,,,,,,,,bars/023.png,bars/mask001.png,,,,,,,,,,,,0,2,,,,,,,0,10,0,10,,,,,,,,,,,1503.454,1503.9539,1504.2011,1504.5676,space,0.3502,,1504.5676,56,29,1505.565,1505.565,1505.5717,,,,0,24,24,24,1,20,115,,,,,,,,
,,614e0a7aef8a6dd9107fb1c6,65af563cec02af7510459cf7,2024-01-23_24h03.11.078,bars,2023.2.3,MacIntel,60.14675809,657b66ea316d21385b68909f,,,,,,,,,,,1505.5721,1506.5624,,,1507.0615,1507.3139,,13,13,,,,,,,,,,,,,,,,bars/030.png,bars/mask002.png,,,,,,,,,,,,0,2,,,,,,,2,8,3,7,,,,,,,,,,,1506.5625,1507.0615,1507.3139,1507.7926,space,0.4657,,1507.7927,53,52,1508.7906,1508.7906,1508.7918,,,,0,25,25,25,1,140,65,,,,,,,,
,,614e0a7aef8a6dd9107fb1c6,65af563cec02af7510459cf7,2024-01-23_24h03.11.078,bars,2023.2.3,MacIntel,60.14675809,657b66ea316d21385b68909f,,,,,,,,,,,1508.7921,1509.7898,,,1510.2872,1510.5379,,160,160,,,,,,,,,,,,,,,,bars/025.png,bars/mask006.png,,,,,,,,,,,,0,1,,,,,,,0,6,0,6,,,,,,,,,,,1509.7899,1510.2872,1510.5379,1510.9531,space,0.3995,,1510.9532,55,60,1511.9498,1511.9499,1511.9566,,,,0,26,26,26,1,105,40,,,,,,,,
,,614e0a7aef8a6dd9107fb1c6,65af563cec02af7510459cf7,2024-01-23_24h03.11.078,bars,2023.2.3,MacIntel,60.14675809,657b66ea316d21385b68909f,,,,,,,,,,,1511.9568,1512.9494,,,1513.4466,1513.6959,,110,110,,,,,,,,,,,,,,,,bars/012.png,bars/mask003.png,,,,,,,,,,,,0,1,,,,,,,2,8,1,6,,,,,,,,,,,1512.9494,1513.4465,1513.696,1514.0789,space,0.3668,,1514.079,20,85,1515.0754,1515.0754,1515.0762,,,,0,27,27,27,1,90,15,,,,,,,,
,,614e0a7aef8a6dd9107fb1c6,65af563cec02af7510459cf7,2024-01-23_24h03.11.078,bars,2023.2.3,MacIntel,60.14675809,657b66ea316d21385b68909f,,,,,,,,,,,1515.0765,1516.0733,,,1516.5722,1516.8215,,18,18,,,,,,,,,,,,,,,,bars/001.png,bars/mask000.png,,,,,,,,,,,,0,2,,,,,,,4,6,3,5,,,,,,,,,,,1516.0733,1516.5721,1516.8216,1516.8721,space,0.0381,,1516.8722,68,67,1517.8701,1517.8702,1517.8754,,,,0,28,28,28,1,130,85,,,,,,,,
,,614e0a7aef8a6dd9107fb1c6,65af563cec02af7510459cf7,2024-01-23_24h03.11.078,bars,2023.2.3,MacIntel,60.14675809,657b66ea316d21385b68909f,,,,,,,,,,,1517.8757,1518.8668,,,1519.3657,1519.6148,,150,150,,,,,,,,,,,,,,,,bars/029.png,bars/mask004.png,,,,,,,,,,,,0,1,,,,,,,2,8,2,7,,,,,,,,,,,1518.8668,1519.3656,1519.6148,1520.0971,space,0.4723,,1520.0971,60,75,1521.0949,1521.0949,1521.1015,,,,0,29,29,29,1,90,45,,,,,,,,
,,614e0a7aef8a6dd9107fb1c6,65af563cec02af7510459cf7,2024-01-23_24h03.11.078,bars,2023.2.3,MacIntel,60.14675809,657b66ea316d21385b68909f,,,,,,,,,,,1521.1017,1522.0924,,,1522.5957,1522.8409,,39,39,,,,,,,,,,,,,,,,bars/007.png,bars/mask009.png,,,,,,,,,,,,5,2,,,,,,,0,10,1,10,,,,,,,,,,,1522.0925,1522.5957,1522.8409,1523.2231,space,0.3612,,1523.2231,44,16,1524.2212,1524.2213,1524.2277,,,,0,30,30,30,1,175,55,,,,,,,,
,,614e0a7aef8a6dd9107fb1c6,65af563cec02af7510459cf7,2024-01-23_24h03.11.078,bars,2023.2.3,MacIntel,60.14675809,657b66ea316d21385b68909f,,,,,,,,,,,1524.228,1525.2186,,,1525.7174,1525.9668,,85,85,,,,,,,,,,,,,,,,bars/010.png,bars/mask005.png,,,,,,,,,,,,0,2,,,,,,,2,8,1,7,,,,,,,,,,,1525.2186,1525.7173,1525.9668,1526.4321,space,0.4495,,1526.4322,80,30,1527.4303,1527.4303,1527.4314,,,,0,31,31,31,1,165,55,,,,,,,,
,,614e0a7aef8a6dd9107fb1c6,65af563cec02af7510459cf7,2024-01-23_24h03.11.078,bars,2023.2.3,MacIntel,60.14675809,657b66ea316d21385b68909f,,,,,,,,,,,1527.4319,1528.4294,,,1528.9264,1529.1758,,163,163,,,,,,,,,,,,,,,,bars/027.png,bars/mask000.png,,,,,,,,,,,,0,1,,,,,,,0,6,0,6,,,,,,,,,,,1528.4295,1528.9264,1529.1759,1529.5747,space,0.3876,,1529.5748,53,67,1530.5732,1530.5732,1530.5789,,,,0,32,32,32,1,110,50,,,,,,,,
,,614e0a7aef8a6dd9107fb1c6,65af563cec02af7510459cf7,2024-01-23_24h03.11.078,bars,2023.2.3,MacIntel,60.14675809,657b66ea316d21385b68909f,,,,,,,,,,,1530.5791,1531.5724,,,1532.0706,1532.3186,,152,152,,,,,,,,,,,,,,,,bars/032.png,bars/mask000.png,,,,,,,,,,,,0,1,,,,,,,2,8,4,8,,,,,,,,,,,1531.5724,1532.0705,1532.3187,1532.7683,space,0.4317,,1532.7683,27,48,1533.7657,1533.7657,1533.7671,,,,0,33,33,33,1,125,20,,,,,,,,
,,614e0a7aef8a6dd9107fb1c6,65af563cec02af7510459cf7,2024-01-23_24h03.11.078,bars,2023.2.3,MacIntel,60.14675809,657b66ea316d21385b68909f,,,,,,,,,,,1533.7674,1534.763,,,1535.2629,1535.5112,,56,56,,,,,,,,,,,,,,,,bars/035.png,bars/mask004.png,,,,,,,,,,,,9,2,,,,,,,0,10,0,10,,,,,,,,,,,1534.763,1535.2628,1535.5113,1535.9442,space,0.4152,,1535.9443,61,4,1536.9422,1536.9422,1536.9479,,,,0,34,34,34,1,175,60,,,,,,,,
,,614e0a7aef8a6dd9107fb1c6,65af563cec02af7510459cf7,2024-01-23_24h03.11.078,bars,2023.2.3,MacIntel,60.14675809,657b66ea316d21385b68909f,,,,,,,,,,,1536.9482,1537.9384,,,1538.4374,1538.687,,152,152,,,,,,,,,,,,,,,,bars/013.png,bars/mask009.png,,,,,,,,,,,,0,2,,,,,,,0,10,0,8,,,,,,,,,,,1537.9385,1538.4374,1538.687,1539.0868,space,0.3779,,1539.0869,77,38,1540.0834,1540.0835,1540.0842,,,,0,35,35,35,1,75,10,,,,,,,,
,,614e0a7aef8a6dd9107fb1c6,65af563cec02af7510459cf7,2024-01-23_24h03.11.078,bars,2023.2.3,MacIntel,60.14675809,657b66ea316d21385b68909f,,,,,,,,,,,1540.0844,1541.0817,,,1541.5799,1541.8322,,131,131,,,,,,,,,,,,,,,,bars/048.png,bars/mask000.png,,,,,,,,,,,,0,2,,,,,,,0,10,0,9,,,,,,,,,,,1541.0818,1541.5799,1541.8323,1542.4275,space,0.585,,1542.4277,81,44,1543.4258,1543.4259,1543.427,,,,0,36,36,36,1,50,175,,,,,,,,
,,614e0a7aef8a6dd9107fb1c6,65af563cec02af7510459cf7,2024-01-23_24h03.11.078,bars,2023.2.3,MacIntel,60.14675809,657b66ea316d21385b68909f,,,,,,,,,,,1543.4274,1544.4254,,,1544.9221,1545.1717,,92,92,,,,,,,,,,,,,,,,bars/032.png,bars/mask006.png,,,,,,,,,,,,0,1,,,,,,,2,8,2,8,,,,,,,,,,,1544.4256,1544.9221,1545.1717,1546.1854,space,1.0021,,1546.1854,33,72,1547.1847,1547.1848,1547.1904,,,,0,37,37,37,1,125,20,,,,,,,,
,,614e0a7aef8a6dd9107fb1c6,65af563cec02af7510459cf7,2024-01-23_24h03.11.078,bars,2023.2.3,MacIntel,60.14675809,657b66ea316d21385b68909f,,,,,,,,,,,1547.1907,1548.181,,,1548.6799,1548.929,,79,79,,,,,,,,,,,,,,,,bars/048.png,bars/mask000.png,,,,,,,,,,,,0,1,,,,,,,0,6,0,7,,,,,,,,,,,1548.181,1548.6798,1548.929,1549.579,space,0.6321,,1549.579,29,84,1550.5774,1550.5774,1550.5784,,,,0,38,38,38,1,50,175,,,,,,,,
,,614e0a7aef8a6dd9107fb1c6,65af563cec02af7510459cf7,2024-01-23_24h03.11.078,bars,2023.2.3,MacIntel,60.14675809,657b66ea316d21385b68909f,,,,,,,,,,,1550.5788,1551.5733,,,1552.0734,1552.3228,,175,175,,,,,,,,,,,,,,,,bars/046.png,bars/mask006.png,,,,,,,,,,,,0,1,,,,,,,0,4,1,3,,,,,,,,,,,1551.5735,1552.0734,1552.3229,1552.9703,space,0.6315,,1552.9704,20,90,1553.9673,1553.9674,1553.9685,,,,0,39,39,39,1,155,85,,,,,,,,
,,614e0a7aef8a6dd9107fb1c6,65af563cec02af7510459cf7,2024-01-23_24h03.11.078,bars,2023.2.3,MacIntel,60.14675809,657b66ea316d21385b68909f,,,,,,,,,,,1553.9688,1554.9649,,,1555.4642,1555.7131,,49,49,,,,,,,,,,,,,,,,bars/009.png,bars/mask009.png,,,,,,,,,,,,0,1,,,,,,,0,6,1,6,,,,,,,,,,,1554.9649,1555.4641,1555.7131,1556.1134,space,0.3871,,1556.1135,34,56,1557.1103,1557.1104,1557.1115,,,,0,40,40,40,1,15,105,,,,,,,,
,,614e0a7aef8a6dd9107fb1c6,65af563cec02af7510459cf7,2024-01-23_24h03.11.078,bars,2023.2.3,MacIntel,60.14675809,657b66ea316d21385b68909f,,,,,,,,,,,1557.112,1558.1075,,,1558.6065,1558.8559,,16,16,,,,,,,,,,,,,,,,bars/040.png,bars/mask001.png,,,,,,,,,,,,2,2,,,,,,,2,4,2,3,,,,,,,,,,,1558.1076,1558.6064,1558.8559,1559.2376,space,0.3703,,1559.2377,56,11,1560.2351,1560.2351,1560.2417,,,,0,41,41,41,1,140,5,,,,,,,,
,,614e0a7aef8a6dd9107fb1c6,65af563cec02af7510459cf7,2024-01-23_24h03.11.078,bars,2023.2.3,MacIntel,60.14675809,657b66ea316d21385b68909f,,,,,,,,,,,1560.242,1561.234,,,1561.734,1561.9824,,1,1,,,,,,,,,,,,,,,,bars/014.png,bars/mask006.png,,,,,,,,,,,,7,2,,,,,,,4,6,3,7,,,,,,,,,,,1561.2341,1561.7339,1561.9825,1563.8107,space,1.8166,,1563.8107,79,1,1564.809,1564.8091,1564.8099,,,,0,42,42,42,1,80,0,,,,,,,,
,,614e0a7aef8a6dd9107fb1c6,65af563cec02af7510459cf7,2024-01-23_24h03.11.078,bars,2023.2.3,MacIntel,60.14675809,657b66ea316d21385b68909f,,,,,,,,,,,1564.8104,1565.8063,,,1566.3051,1566.5551,,12,12,,,,,,,,,,,,,,,,bars/010.png,bars/mask007.png,,,,,,,,,,,,0,1,,,,,,,2,4,3,4,,,,,,,,,,,1565.8063,1566.305,1566.5552,1567.7866,space,1.2129,,1567.7867,27,43,1568.7828,1568.7829,1568.7894,,,,0,43,43,43,1,165,55,,,,,,,,
,,614e0a7aef8a6dd9107fb1c6,65af563cec02af7510459cf7,2024-01-23_24h03.11.078,bars,2023.2.3,MacIntel,60.14675809,657b66ea316d21385b68909f,,,,,,,,,,,1568.7898,1569.7802,,,1570.2794,1570.5305,,82,82,,,,,,,,,,,,,,,,bars/028.png,bars/mask001.png,,,,,,,,,,,,0,1,,,,,,,0,2,0,0,,,,,,,,,,,1569.7802,1570.2793,1570.5306,1571.0104,space,0.464,,1571.0104,37,38,1572.0082,1572.0082,1572.009,,,,0,44,44,44,1,45,120,,,,,,,,
,,614e0a7aef8a6dd9107fb1c6,65af563cec02af7510459cf7,2024-01-23_24h03.11.078,bars,2023.2.3,MacIntel,60.14675809,657b66ea316d21385b68909f,,,,,,,,,,,1572.0094,1573.0059,,,1573.5043,1573.7552,,11,11,,,,,,,,,,,,,,,,bars/018.png,bars/mask004.png,,,,,,,,,,,,0,1,,,,,,,2,4,2,3,,,,,,,,,,,1573.0059,1573.5042,1573.7552,1574.254,space,0.4776,,1574.2541,41,79,1575.2503,1575.2504,1575.2513,,,,0,45,45,45,1,150,90,,,,,,,,
,,614e0a7aef8a6dd9107fb1c6,65af563cec02af7510459cf7,2024-01-23_24h03.11.078,bars,2023.2.3,MacIntel,60.14675809,657b66ea316d21385b68909f,,,,,,,,,,,1575.2514,1576.2481,,,1576.747,1576.9973,,129,129,,,,,,,,,,,,,,,,bars/045.png,bars/mask009.png,,,,,,,,,,,,0,1,,,,,,,4,6,4,6,,,,,,,,,,,1576.2482,1576.747,1576.9974,1577.3786,space,0.3664,,1577.3787,29,61,1578.3764,1578.3764,1578.3774,,,,0,46,46,46,1,100,10,,,,,,,,
,,614e0a7aef8a6dd9107fb1c6,65af563cec02af7510459cf7,2024-01-23_24h03.11.078,bars,2023.2.3,MacIntel,60.14675809,657b66ea316d21385b68909f,,,,,,,,,,,1578.3778,1579.3744,,,1579.8733,1580.1226,,129,129,,,,,,,,,,,,,,,,bars/001.png,bars/mask005.png,,,,,,,,,,,,2,1,,,,,,,2,8,2,7,,,,,,,,,,,1579.3744,1579.8733,1580.1226,1580.655,space,0.5182,,1580.655,1,44,1581.6522,1581.6522,1581.653,,,,0,47,47,47,1,130,85,,,,,,,,
,,614e0a7aef8a6dd9107fb1c6,65af563cec02af7510459cf7,2024-01-23_24h03.11.078,bars,2023.2.3,MacIntel,60.14675809,657b66ea316d21385b68909f,,,,,,,,,,,1581.6534,1582.6497,,,1583.1505,1583.3979,,84,84,,,,,,,,,,,,,,,,bars/012.png,bars/mask002.png,,,,,,,,,,,,2,1,,,,,,,4,6,2,5,,,,,,,,,,,1582.6498,1583.1505,1583.398,1583.9963,space,0.5907,,1583.9964,6,69,1584.9956,1584.9957,1584.9969,,,,0,48,48,48,1,90,15,,,,,,,,
,,614e0a7aef8a6dd9107fb1c6,65af563cec02af7510459cf7,2024-01-23_24h03.11.078,bars,2023.2.3,MacIntel,60.14675809,657b66ea316d21385b68909f,,,,,,,,,,,1584.9972,1585.9922,,,1586.491,1586.7404,,110,110,,,,,,,,,,,,,,,,bars/007.png,bars/mask004.png,,,,,,,,,,,,0,2,,,,,,,2,8,1,8,,,,,,,,,,,1585.9923,1586.491,1586.7404,1587.1227,space,0.3655,,1587.1228,65,55,1588.1201,1588.1202,1588.1269,,,,0,49,49,49,1,175,55,,,,,,,,
,,614e0a7aef8a6dd9107fb1c6,65af563cec02af7510459cf7,2024-01-23_24h03.11.078,bars,2023.2.3,MacIntel,60.14675809,657b66ea316d21385b68909f,,,,,,,,,,,,,,,,,,,,,,,,,,,,,,,,,,,,,,,,,,,,,,,,,,,,,,,,,,,,,,,,,,,,,,,,,,,,,,,,,,,,,,,,,,,,,1588.127,1648.1298,0,3,3,2,1,sequence_tables/blk042.csv
,,614e0a7aef8a6dd9107fb1c6,65af563cec02af7510459cf7,2024-01-23_24h03.11.078,bars,2023.2.3,MacIntel,60.14675809,657b66ea316d21385b68909f,,,,,,,,,,,1648.7016,1649.692,,,1650.1908,1650.4401,,80,80,,,,,,,,,,,,,,,,bars/000.png,bars/mask009.png,,,,,,,,,,,,0,1,,,,,,,5,5,4,5,,,,,,1648.1304,1648.6968,space,0.5519,,1649.692,1650.1907,1650.4401,1650.891,space,0.4338,,1650.8911,40,65,1651.8889,1651.889,1651.894,,,,0,0,0,0,1,40,145,,,,,,,,
,,614e0a7aef8a6dd9107fb1c6,65af563cec02af7510459cf7,2024-01-23_24h03.11.078,bars,2023.2.3,MacIntel,60.14675809,657b66ea316d21385b68909f,,,,,,,,,,,1651.8942,1652.8881,,,1653.3845,1653.6346,,126,126,,,,,,,,,,,,,,,,bars/043.png,bars/mask007.png,,,,,,,,,,,,2,2,,,,,,,3,3,2,2,,,,,,,,,,,1652.8881,1653.3843,1653.6347,1653.9988,space,0.3525,,1653.9989,84,4,1654.9973,1654.9973,1655.0038,,,,0,1,1,1,1,30,130,,,,,,,,
,,614e0a7aef8a6dd9107fb1c6,65af563cec02af7510459cf7,2024-01-23_24h03.11.078,bars,2023.2.3,MacIntel,60.14675809,657b66ea316d21385b68909f,,,,,,,,,,,1655.004,1655.9936,,,1656.4929,1656.7422,,67,67,,,,,,,,,,,,,,,,bars/003.png,bars/mask008.png,,,,,,,,,,,,0,1,,,,,,,5,1,6,1,,,,,,,,,,,1655.9936,1656.4929,1656.7424,1657.7416,space,0.9865,,1657.7417,42,73,1658.7392,1658.7393,1658.7444,,,,0,2,2,2,1,25,140,,,,,,,,
,,614e0a7aef8a6dd9107fb1c6,65af563cec02af7510459cf7,2024-01-23_24h03.11.078,bars,2023.2.3,MacIntel,60.14675809,657b66ea316d21385b68909f,,,,,,,,,,,1658.7447,1659.7349,,,1660.2337,1660.4831,,89,89,,,,,,,,,,,,,,,,bars/023.png,bars/mask004.png,,,,,,,,,,,,1,2,,,,,,,3,3,5,4,,,,,,,,,,,1659.7349,1660.2337,1660.4831,1660.8821,space,0.3824,,1660.8821,69,26,1661.8802,1661.8803,1661.8843,,,,0,3,3,3,1,20,115,,,,,,,,
,,614e0a7aef8a6dd9107fb1c6,65af563cec02af7510459cf7,2024-01-23_24h03.11.078,bars,2023.2.3,MacIntel,60.14675809,657b66ea316d21385b68909f,,,,,,,,,,,1661.8847,1662.8788,,,1663.3785,1663.6279,,63,63,,,,,,,,,,,,,,,,bars/040.png,bars/mask008.png,,,,,,,,,,,,0,2,,,,,,,1,5,1,5,,,,,,,,,,,1662.8789,1663.3783,1663.628,1663.9931,space,0.3501,,1663.9932,77,58,1664.9918,1664.9918,1664.9928,,,,0,4,4,4,1,140,5,,,,,,,,
,,614e0a7aef8a6dd9107fb1c6,65af563cec02af7510459cf7,2024-01-23_24h03.11.078,bars,2023.2.3,MacIntel,60.14675809,657b66ea316d21385b68909f,,,,,,,,,,,1664.9931,1665.988,,,1666.4859,1666.7362,,102,102,,,,,,,,,,,,,,,,bars/007.png,bars/mask001.png,,,,,,,,,,,,0,2,,,,,,,0,3,0,2,,,,,,,,,,,1665.9881,1666.4858,1666.7363,1667.1335,space,0.3867,,1667.1335,73,47,1668.1319,1668.132,1668.1329,,,,0,5,5,5,1,175,55,,,,,,,,
,,614e0a7aef8a6dd9107fb1c6,65af563cec02af7510459cf7,2024-01-23_24h03.11.078,bars,2023.2.3,MacIntel,60.14675809,657b66ea316d21385b68909f,,,,,,,,,,,1668.1333,1669.1296,,,1669.6297,1669.8791,,154,154,,,,,,,,,,,,,,,,bars/013.png,bars/mask003.png,,,,,,,,,,,,0,2,,,,,,,2,1,3,1,,,,,,,,,,,1669.1298,1669.6296,1669.8791,1670.2433,space,0.3521,,1670.2434,79,36,1671.2411,1671.2411,1671.242,,,,0,6,6,6,1,75,10,,,,,,,,
,,614e0a7aef8a6dd9107fb1c6,65af563cec02af7510459cf7,2024-01-23_24h03.11.078,bars,2023.2.3,MacIntel,60.14675809,657b66ea316d21385b68909f,,,,,,,,,,,1671.2423,1672.2427,,,1672.7417,1672.9884,,152,152,,,,,,,,,,,,,,,,bars/008.png,bars/mask001.png,,,,,,,,,,,,0,2,,,,,,,4,3,5,3,,,,,,,,,,,1672.2428,1672.7416,1672.9884,1673.7543,space,0.7464,,1673.7544,42,28,1674.7517,1674.7518,1674.7526,,,,0,7,7,7,1,110,0,,,,,,,,
,,614e0a7aef8a6dd9107fb1c6,65af563cec02af7510459cf7,2024-01-23_24h03.11.078,bars,2023.2.3,MacIntel,60.14675809,657b66ea316d21385b68909f,,,,,,,,,,,1674.7528,1675.7487,,,1676.2479,1676.4976,,88,88,,,,,,,,,,,,,,,,bars/012.png,bars/mask003.png,,,,,,,,,,,,1,1,,,,,,,2,5,1,6,,,,,,,,,,,1675.7489,1676.2479,1676.4976,1677.2105,space,0.7021,,1677.2106,2,73,1678.2092,1678.2093,1678.2132,,,,0,8,8,8,1,90,15,,,,,,,,
,,614e0a7aef8a6dd9107fb1c6,65af563cec02af7510459cf7,2024-01-23_24h03.11.078,bars,2023.2.3,MacIntel,60.14675809,657b66ea316d21385b68909f,,,,,,,,,,,1678.2135,1679.2068,,,1679.7042,1679.9538,,3,3,,,,,,,,,,,,,,,,bars/001.png,bars/mask008.png,,,,,,,,,,,,0,1,,,,,,,4,3,4,4,,,,,,,,,,,1679.2068,1679.7042,1679.9539,1680.038,space,0.0671,,1680.0381,53,82,1681.0346,1681.0346,1681.0355,,,,0,9,9,9,1,130,85,,,,,,,,
,,614e0a7aef8a6dd9107fb1c6,65af563cec02af7510459cf7,2024-01-23_24h03.11.078,bars,2023.2.3,MacIntel,60.14675809,657b66ea316d21385b68909f,,,,,,,,,,,1681.0358,1682.0344,,,1682.5335,1682.7806,,178,178,,,,,,,,,,,,,,,,bars/039.png,bars/mask000.png,,,,,,,,,,,,3,1,,,,,,,2,5,3,5,,,,,,,,,,,1682.0344,1682.5335,1682.7806,1683.2794,space,0.4883,,1683.2794,3,73,1684.2782,1684.2782,1684.2789,,,,0,10,10,10,1,175,105,,,,,,,,
