init_variables.started,init_variables.stopped,participant,session,date,expName,psychopyVersion,OS,frameRate,study_id,instruction_exp.started,instruction_exp.stopped,key_resp_8.keys,key_resp_8.rt,key_resp_8.duration,instruction_single.started,instruction_single.stopped,key_resp_2.keys,key_resp_2.rt,key_resp_2.duration,interval.started,interval.stopped,cue_single.started,cue_single.stopped,mask.started,mask.stopped,ori_response_single.started,res_ori,res,ori_response_single.stopped,key_resp_single.keys,key_resp_single.rt,key_resp_single.duration,disp_single.started,disp_single.stopped,key_resp.keys,key_resp.rt,key_resp.duration,single.thisRepN,single.thisTrialN,single.thisN,single.thisIndex,single.ran,ori,path,mask_path,instruction_bandit.started,instruction_bandit.stopped,key_resp_6.keys,key_resp_6.rt,key_resp_6.duration,cue_bandit.started,cue_bandit.stopped,bandit_res.keys,bandit_res.rt,bandit_res.duration,outcome_bandit.started,rew,action,outcome_bandit.stopped,bandit.thisRepN,bandit.thisTrialN,bandit.thisN,bandit.thisIndex,bandit.ran,actual_rew1,actual_rew2,rew1,rew2,instruction_task.started,instruction_task.stopped,key_resp_7.keys,key_resp_7.rt,key_resp_7.duration,wait_ready.started,wait_ready.stopped,key_resp_3.keys,key_resp_3.rt,key_resp_3.duration,cue.started,cue.stopped,ori_response.started,ori_response.stopped,key_resp_5.keys,key_resp_5.rt,key_resp_5.duration,outcome.started,diff1,diff2,outcome.stopped,disp_outcome_practice.started,disp_outcome_practice.stopped,key_resp_4.keys,key_resp_4.rt,key_resp_4.duration,trials.thisRepN,trials.thisTrialN,trials.thisN,trials.thisIndex,trials.ran,ori1,ori2,break_blk.started,break_blk.stopped,block.thisRepN,block.thisTrialN,block.thisN,block.thisIndex,block.ran,condition_file
0,0,5f2ef7740f87702b99055397,65af542fcbfd19b26dc0c3b9,2024-01-22_23h53.41.145,bars,2023.2.3,MacIntel,59.80861244,657b66ea316d21385b68909f,,,,,,,,,,,,,,,,,,,,,,,,,,,,,,,,,,,,,,,,,,,,,,,,,,,,,,,,,,,,,,,,,,,,,,,,,,,,,,,,,,,,,,,,,,,,,,,,,,,,
,,5f2ef7740f87702b99055397,65af542fcbfd19b26dc0c3b9,2024-01-22_23h53.41.145,bars,2023.2.3,MacIntel,59.80861244,657b66ea316d21385b68909f,0,90.085,y,90.014,,,,,,,,,,,,,,,,,,,,,,,,,,,,,,,,,,,,,,,,,,,,,,,,,,,,,,,,,,,,,,,,,,,,,,,,,,,,,,,,,,,,,,,,,,,,,,,,
,,5f2ef7740f87702b99055397,65af542fcbfd19b26dc0c3b9,2024-01-22_23h53.41.145,bars,2023.2.3,MacIntel,59.80861244,657b66ea316d21385b68909f,,,,,,90.085,98.276,space,8.161,,,,,,,,,,,,,,,,,,,,,,,,,,,,,,,,,,,,,,,,,,,,,,,,,,,,,,,,,,,,,,,,,,,,,,,,,,,,,,,,,,,,,,,,,,,
,,5f2ef7740f87702b99055397,65af542fcbfd19b26dc0c3b9,2024-01-22_23h53.41.145,bars,2023.2.3,MacIntel,59.80861244,657b66ea316d21385b68909f,,,,,,,,,,,98.282,99.275,99.276,99.775,99.776,100.026,100.026,124,124,109.985,space,9.926,,109.985,113.199,space,3.182,,0,0,0,2,1,145,bars/single002.png,bars/mask003.png,,,,,,,,,,,,,,,,,,,,,,,,,,,,,,,,,,,,,,,,,,,,,,,,,,,,,,,,,,,,,,,,
,,5f2ef7740f87702b99055397,65af542fcbfd19b26dc0c3b9,2024-01-22_23h53.41.145,bars,2023.2.3,MacIntel,59.80861244,657b66ea316d21385b68909f,,,,,,,,,,,113.2,114.199,114.199,114.697,114.698,114.949,114.949,4,184,120.195,space,5.231,,120.196,123.659,space,3.446,,0,1,1,0,1,150,bars/single000.png,bars/mask006.png,,,,,,,,,,,,,,,,,,,,,,,,,,,,,,,,,,,,,,,,,,,,,,,,,,,,,,,,,,,,,,,,
,,5f2ef7740f87702b99055397,65af542fcbfd19b26dc0c3b9,2024-01-22_23h53.41.145,bars,2023.2.3,MacIntel,59.80861244,657b66ea316d21385b68909f,,,,,,,,,,,123.66,124.658,124.658,125.159,125.159,125.407,125.407,76,76,131.237,space,5.816,,131.237,134.902,space,3.651,,0,2,2,5,1,55,bars/single005.png,bars/mask008.png,,,,,,,,,,,,,,,,,,,,,,,,,,,,,,,,,,,,,,,,,,,,,,,,,,,,,,,,,,,,,,,,
,,5f2ef7740f87702b99055397,65af542fcbfd19b26dc0c3b9,2024-01-22_23h53.41.145,bars,2023.2.3,MacIntel,59.80861244,657b66ea316d21385b68909f,,,,,,,,,,,134.903,135.901,135.901,136.401,136.401,136.651,136.651,82,82,156.505,space,19.84,,156.505,163.483,space,6.965,,0,3,3,7,1,45,bars/single007.png,bars/mask009.png,,,,,,,,,,,,,,,,,,,,,,,,,,,,,,,,,,,,,,,,,,,,,,,,,,,,,,,,,,,,,,,,
,,5f2ef7740f87702b99055397,65af542fcbfd19b26dc0c3b9,2024-01-22_23h53.41.145,bars,2023.2.3,MacIntel,59.80861244,657b66ea316d21385b68909f,,,,,,,,,,,163.485,164.486,164.488,164.982,164.983,165.232,165.232,89,89,169.047,space,3.804,,169.048,171.294,space,2.228,,0,4,4,4,1,95,bars/single004.png,bars/mask004.png,,,,,,,,,,,,,,,,,,,,,,,,,,,,,,,,,,,,,,,,,,,,,,,,,,,,,,,,,,,,,,,,
,,5f2ef7740f87702b99055397,65af542fcbfd19b26dc0c3b9,2024-01-22_23h53.41.145,bars,2023.2.3,MacIntel,59.80861244,657b66ea316d21385b68909f,,,,,,,,,,,171.295,172.294,172.294,172.793,172.793,173.043,173.043,175,-5,183.653,space,10.594,,183.653,187.4,space,3.729,,0,5,5,1,1,20,bars/single001.png,bars/mask006.png,,,,,,,,,,,,,,,,,,,,,,,,,,,,,,,,,,,,,,,,,,,,,,,,,,,,,,,,,,,,,,,,
,,5f2ef7740f87702b99055397,65af542fcbfd19b26dc0c3b9,2024-01-22_23h53.41.145,bars,2023.2.3,MacIntel,59.80861244,657b66ea316d21385b68909f,,,,,,,,,,,187.401,188.4,188.4,188.899,188.9,189.148,189.148,19,19,195.812,space,6.65,,195.812,198.876,space,3.043,,0,6,6,3,1,20,bars/single003.png,bars/mask005.png,,,,,,,,,,,,,,,,,,,,,,,,,,,,,,,,,,,,,,,,,,,,,,,,,,,,,,,,,,,,,,,,
,,5f2ef7740f87702b99055397,65af542fcbfd19b26dc0c3b9,2024-01-22_23h53.41.145,bars,2023.2.3,MacIntel,59.80861244,657b66ea316d21385b68909f,,,,,,,,,,,198.876,199.876,199.876,200.376,200.376,200.625,200.626,18,18,205.721,space,5.086,,205.721,207.404,space,1.664,,0,7,7,9,1,20,bars/single009.png,bars/mask006.png,,,,,,,,,,,,,,,,,,,,,,,,,,,,,,,,,,,,,,,,,,,,,,,,,,,,,,,,,,,,,,,,
,,5f2ef7740f87702b99055397,65af542fcbfd19b26dc0c3b9,2024-01-22_23h53.41.145,bars,2023.2.3,MacIntel,59.80861244,657b66ea316d21385b68909f,,,,,,,,,,,207.405,208.403,208.403,208.903,208.903,209.153,209.153,162,-18,215.449,space,6.282,,215.449,216.747,space,1.278,,0,8,8,8,1,160,bars/single008.png,bars/mask004.png,,,,,,,,,,,,,,,,,,,,,,,,,,,,,,,,,,,,,,,,,,,,,,,,,,,,,,,,,,,,,,,,
,,5f2ef7740f87702b99055397,65af542fcbfd19b26dc0c3b9,2024-01-22_23h53.41.145,bars,2023.2.3,MacIntel,59.80861244,657b66ea316d21385b68909f,,,,,,,,,,,216.749,217.747,217.747,218.246,218.246,218.497,218.497,6,186,221.828,space,3.315,,221.829,223.078,space,1.225,,0,9,9,6,1,175,bars/single006.png,bars/mask005.png,,,,,,,,,,,,,,,,,,,,,,,,,,,,,,,,,,,,,,,,,,,,,,,,,,,,,,,,,,,,,,,,
,,5f2ef7740f87702b99055397,65af542fcbfd19b26dc0c3b9,2024-01-22_23h53.41.145,bars,2023.2.3,MacIntel,59.80861244,657b66ea316d21385b68909f,,,,,,,,,,,,,,,,,,,,,,,,,,,,,,,,,,,,,223.078,234.289,space,11.171,,,,,,,,,,,,,,,,,,,,,,,,,,,,,,,,,,,,,,,,,,,,,,,,,,,,,,,,,,,,
,,5f2ef7740f87702b99055397,65af542fcbfd19b26dc0c3b9,2024-01-22_23h53.41.145,bars,2023.2.3,MacIntel,59.80861244,657b66ea316d21385b68909f,,,,,,,,,,,,,,,,,,,,,,,,,,,,,,,,,,,,,,,,,,234.293,240.216,right,5.89,,240.216,2,2,241.215,0,0,0,0,1,9,1,9,2,,,,,,,,,,,,,,,,,,,,,,,,,,,,,,,,,,,,,,,,,
,,5f2ef7740f87702b99055397,65af542fcbfd19b26dc0c3b9,2024-01-22_23h53.41.145,bars,2023.2.3,MacIntel,59.80861244,657b66ea316d21385b68909f,,,,,,,,,,,,,,,,,,,,,,,,,,,,,,,,,,,,,,,,,,241.216,245.58,right,4.346,,245.581,1,2,246.578,0,1,1,1,1,10,0,10,1,,,,,,,,,,,,,,,,,,,,,,,,,,,,,,,,,,,,,,,,,
,,5f2ef7740f87702b99055397,65af542fcbfd19b26dc0c3b9,2024-01-22_23h53.41.145,bars,2023.2.3,MacIntel,59.80861244,657b66ea316d21385b68909f,,,,,,,,,,,,,,,,,,,,,,,,,,,,,,,,,,,,,,,,,,246.581,248.793,right,2.194,,248.793,2,2,249.791,0,2,2,2,1,10,2,10,2,,,,,,,,,,,,,,,,,,,,,,,,,,,,,,,,,,,,,,,,,
,,5f2ef7740f87702b99055397,65af542fcbfd19b26dc0c3b9,2024-01-22_23h53.41.145,bars,2023.2.3,MacIntel,59.80861244,657b66ea316d21385b68909f,,,,,,,,,,,,,,,,,,,,,,,,,,,,,,,,,,,,,,,,,,249.792,253.09,right,3.284,,253.09,3,2,254.089,0,3,3,3,1,8,4,7,3,,,,,,,,,,,,,,,,,,,,,,,,,,,,,,,,,,,,,,,,,
,,5f2ef7740f87702b99055397,65af542fcbfd19b26dc0c3b9,2024-01-22_23h53.41.145,bars,2023.2.3,MacIntel,59.80861244,657b66ea316d21385b68909f,,,,,,,,,,,,,,,,,,,,,,,,,,,,,,,,,,,,,,,,,,254.091,260.485,right,6.375,,260.485,1,2,261.484,0,4,4,4,1,6,2,5,1,,,,,,,,,,,,,,,,,,,,,,,,,,,,,,,,,,,,,,,,,
,,5f2ef7740f87702b99055397,65af542fcbfd19b26dc0c3b9,2024-01-22_23h53.41.145,bars,2023.2.3,MacIntel,59.80861244,657b66ea316d21385b68909f,,,,,,,,,,,,,,,,,,,,,,,,,,,,,,,,,,,,,,,,,,261.484,262.784,right,1.282,,262.784,4,2,263.783,0,5,5,5,1,4,4,4,4,,,,,,,,,,,,,,,,,,,,,,,,,,,,,,,,,,,,,,,,,
,,5f2ef7740f87702b99055397,65af542fcbfd19b26dc0c3b9,2024-01-22_23h53.41.145,bars,2023.2.3,MacIntel,59.80861244,657b66ea316d21385b68909f,,,,,,,,,,,,,,,,,,,,,,,,,,,,,,,,,,,,,,,,,,263.784,266.266,right,2.464,,266.266,2,2,267.263,0,6,6,6,1,2,2,1,2,,,,,,,,,,,,,,,,,,,,,,,,,,,,,,,,,,,,,,,,,
,,5f2ef7740f87702b99055397,65af542fcbfd19b26dc0c3b9,2024-01-22_23h53.41.145,bars,2023.2.3,MacIntel,59.80861244,657b66ea316d21385b68909f,,,,,,,,,,,,,,,,,,,,,,,,,,,,,,,,,,,,,,,,,,267.264,270.045,right,2.767,,270.045,1,2,271.045,0,7,7,7,1,0,0,0,1,,,,,,,,,,,,,,,,,,,,,,,,,,,,,,,,,,,,,,,,,
,,5f2ef7740f87702b99055397,65af542fcbfd19b26dc0c3b9,2024-01-22_23h53.41.145,bars,2023.2.3,MacIntel,59.80861244,657b66ea316d21385b68909f,,,,,,,,,,,,,,,,,,,,,,,,,,,,,,,,,,,,,,,,,,271.046,272.227,right,1.17,,272.227,0,2,273.227,0,8,8,8,1,0,2,1,0,,,,,,,,,,,,,,,,,,,,,,,,,,,,,,,,,,,,,,,,,
,,5f2ef7740f87702b99055397,65af542fcbfd19b26dc0c3b9,2024-01-22_23h53.41.145,bars,2023.2.3,MacIntel,59.80861244,657b66ea316d21385b68909f,,,,,,,,,,,,,,,,,,,,,,,,,,,,,,,,,,,,,,,,,,273.228,276.444,right,3.201,,276.444,3,2,277.442,0,9,9,9,1,2,4,2,3,,,,,,,,,,,,,,,,,,,,,,,,,,,,,,,,,,,,,,,,,
,,5f2ef7740f87702b99055397,65af542fcbfd19b26dc0c3b9,2024-01-22_23h53.41.145,bars,2023.2.3,MacIntel,59.80861244,657b66ea316d21385b68909f,,,,,,,,,,,,,,,,,,,,,,,,,,,,,,,,,,,,,,,,,,277.446,299.228,right,21.766,,299.228,3,2,300.226,0,10,10,10,1,0,2,0,3,,,,,,,,,,,,,,,,,,,,,,,,,,,,,,,,,,,,,,,,,
,,5f2ef7740f87702b99055397,65af542fcbfd19b26dc0c3b9,2024-01-22_23h53.41.145,bars,2023.2.3,MacIntel,59.80861244,657b66ea316d21385b68909f,,,,,,,,,,,,,,,,,,,,,,,,,,,,,,,,,,,,,,,,,,300.23,300.958,right,0.716,,300.959,3,2,301.958,0,11,11,11,1,0,4,0,3,,,,,,,,,,,,,,,,,,,,,,,,,,,,,,,,,,,,,,,,,
,,5f2ef7740f87702b99055397,65af542fcbfd19b26dc0c3b9,2024-01-22_23h53.41.145,bars,2023.2.3,MacIntel,59.80861244,657b66ea316d21385b68909f,,,,,,,,,,,,,,,,,,,,,,,,,,,,,,,,,,,,,,,,,,301.959,302.59,right,0.62,,302.59,6,2,303.589,0,12,12,12,1,2,6,1,6,,,,,,,,,,,,,,,,,,,,,,,,,,,,,,,,,,,,,,,,,
,,5f2ef7740f87702b99055397,65af542fcbfd19b26dc0c3b9,2024-01-22_23h53.41.145,bars,2023.2.3,MacIntel,59.80861244,657b66ea316d21385b68909f,,,,,,,,,,,,,,,,,,,,,,,,,,,,,,,,,,,,,,,,,,303.59,304.355,right,0.748,,304.355,3,2,305.355,0,13,13,13,1,0,4,1,3,,,,,,,,,,,,,,,,,,,,,,,,,,,,,,,,,,,,,,,,,
,,5f2ef7740f87702b99055397,65af542fcbfd19b26dc0c3b9,2024-01-22_23h53.41.145,bars,2023.2.3,MacIntel,59.80861244,657b66ea316d21385b68909f,,,,,,,,,,,,,,,,,,,,,,,,,,,,,,,,,,,,,,,,,,305.356,305.755,right,0.385,,305.755,7,2,306.754,0,14,14,14,1,2,6,2,7,,,,,,,,,,,,,,,,,,,,,,,,,,,,,,,,,,,,,,,,,
,,5f2ef7740f87702b99055397,65af542fcbfd19b26dc0c3b9,2024-01-22_23h53.41.145,bars,2023.2.3,MacIntel,59.80861244,657b66ea316d21385b68909f,,,,,,,,,,,,,,,,,,,,,,,,,,,,,,,,,,,,,,,,,,306.754,307.32,right,0.553,,307.321,9,2,308.32,0,15,15,15,1,4,8,3,9,,,,,,,,,,,,,,,,,,,,,,,,,,,,,,,,,,,,,,,,,
,,5f2ef7740f87702b99055397,65af542fcbfd19b26dc0c3b9,2024-01-22_23h53.41.145,bars,2023.2.3,MacIntel,59.80861244,657b66ea316d21385b68909f,,,,,,,,,,,,,,,,,,,,,,,,,,,,,,,,,,,,,,,,,,308.32,308.703,right,0.366,,308.703,7,2,309.703,0,16,16,16,1,6,6,7,7,,,,,,,,,,,,,,,,,,,,,,,,,,,,,,,,,,,,,,,,,
,,5f2ef7740f87702b99055397,65af542fcbfd19b26dc0c3b9,2024-01-22_23h53.41.145,bars,2023.2.3,MacIntel,59.80861244,657b66ea316d21385b68909f,,,,,,,,,,,,,,,,,,,,,,,,,,,,,,,,,,,,,,,,,,309.704,310.136,right,0.423,,310.136,5,2,311.134,0,17,17,17,1,8,4,9,5,,,,,,,,,,,,,,,,,,,,,,,,,,,,,,,,,,,,,,,,,
,,5f2ef7740f87702b99055397,65af542fcbfd19b26dc0c3b9,2024-01-22_23h53.41.145,bars,2023.2.3,MacIntel,59.80861244,657b66ea316d21385b68909f,,,,,,,,,,,,,,,,,,,,,,,,,,,,,,,,,,,,,,,,,,311.135,311.868,right,0.718,,311.868,1,2,312.867,0,18,18,18,1,6,2,5,1,,,,,,,,,,,,,,,,,,,,,,,,,,,,,,,,,,,,,,,,,
,,5f2ef7740f87702b99055397,65af542fcbfd19b26dc0c3b9,2024-01-22_23h53.41.145,bars,2023.2.3,MacIntel,59.80861244,657b66ea316d21385b68909f,,,,,,,,,,,,,,,,,,,,,,,,,,,,,,,,,,,,,,,,,,312.868,313.251,right,0.369,,313.251,0,2,314.248,0,19,19,19,1,8,0,7,0,,,,,,,,,,,,,,,,,,,,,,,,,,,,,,,,,,,,,,,,,
,,5f2ef7740f87702b99055397,65af542fcbfd19b26dc0c3b9,2024-01-22_23h53.41.145,bars,2023.2.3,MacIntel,59.80861244,657b66ea316d21385b68909f,,,,,,,,,,,,,,,,,,,,,,,,,,,,,,,,,,,,,,,,,,,,,,,,,,,,,,,,,,,,314.249,325.443,space,11.159,,,,,,,,,,,,,,,,,,,,,,,,,,,,,,,,,,,,,
,,5f2ef7740f87702b99055397,65af542fcbfd19b26dc0c3b9,2024-01-22_23h53.41.145,bars,2023.2.3,MacIntel,59.80861244,657b66ea316d21385b68909f,,,,,,,,,,,326.552,327.541,,,328.04,328.291,,82,82,,,,,,,,,,,,,,,,bars/001.png,bars/mask001.png,,,,,,,,,,,,8,2,,,,,,,1,9,1,9,,,,,,325.449,326.541,space,1.07,,327.541,328.04,328.291,335.236,space,6.914,,335.236,48,3,336.236,336.236,341.247,space,4.968,,0,0,0,0,1,130,85,,,,,,,,
,,5f2ef7740f87702b99055397,65af542fcbfd19b26dc0c3b9,2024-01-22_23h53.41.145,bars,2023.2.3,MacIntel,59.80861244,657b66ea316d21385b68909f,,,,,,,,,,,341.249,342.247,,,342.747,342.997,,129,129,,,,,,,,,,,,,,,,bars/004.png,bars/mask006.png,,,,,,,,,,,,9,2,,,,,,,0,10,1,10,,,,,,,,,,,342.247,342.747,342.998,350.258,space,7.253,,350.259,76,4,351.258,351.258,354.173,space,2.901,,0,1,1,1,1,25,125,,,,,,,,
,,5f2ef7740f87702b99055397,65af542fcbfd19b26dc0c3b9,2024-01-22_23h53.41.145,bars,2023.2.3,MacIntel,59.80861244,657b66ea316d21385b68909f,,,,,,,,,,,354.174,355.172,,,355.673,355.922,,92,92,,,,,,,,,,,,,,,,bars/030.png,bars/mask002.png,,,,,,,,,,,,1,2,,,,,,,0,8,0,8,,,,,,,,,,,355.173,355.672,355.922,365.017,space,9.077,,365.017,48,27,366.016,366.016,368.198,space,2.163,,0,2,2,2,1,140,65,,,,,,,,
,,5f2ef7740f87702b99055397,65af542fcbfd19b26dc0c3b9,2024-01-22_23h53.41.145,bars,2023.2.3,MacIntel,59.80861244,657b66ea316d21385b68909f,,,,,,,,,,,368.2,369.197,,,369.697,369.946,,77,77,,,,,,,,,,,,,,,,bars/011.png,bars/mask006.png,,,,,,,,,,,,7,2,,,,,,,2,10,1,9,,,,,,,,,,,369.197,369.697,369.946,376.024,space,6.065,,376.024,83,8,377.025,377.025,378.74,space,1.69,,0,3,3,3,1,160,85,,,,,,,,
,,5f2ef7740f87702b99055397,65af542fcbfd19b26dc0c3b9,2024-01-22_23h53.41.145,bars,2023.2.3,MacIntel,59.80861244,657b66ea316d21385b68909f,,,,,,,,,,,378.742,379.74,,,380.24,380.489,,5,185,,,,,,,,,,,,,,,,bars/044.png,bars/mask007.png,,,,,,,,,,,,0,2,,,,,,,0,10,0,10,,,,,,,,,,,379.74,380.24,380.489,390.531,space,10.032,,390.532,70,30,391.531,391.531,393.347,space,1.802,,0,4,4,4,1,75,155,,,,,,,,
,,5f2ef7740f87702b99055397,65af542fcbfd19b26dc0c3b9,2024-01-22_23h53.41.145,bars,2023.2.3,MacIntel,59.80861244,657b66ea316d21385b68909f,,,,,,,,,,,393.348,394.347,,,394.846,395.096,,76,76,,,,,,,,,,,,,,,,bars/041.png,bars/mask007.png,,,,,,,,,,,,6,2,,,,,,,0,10,1,9,,,,,,,,,,,394.347,394.846,395.096,403.591,space,8.486,,403.592,56,9,404.59,404.59,406.189,space,1.567,,0,5,5,5,1,20,85,,,,,,,,
,,5f2ef7740f87702b99055397,65af542fcbfd19b26dc0c3b9,2024-01-22_23h53.41.145,bars,2023.2.3,MacIntel,59.80861244,657b66ea316d21385b68909f,,,,,,,,,,,406.19,407.188,,,407.689,407.938,,167,167,,,,,,,,,,,,,,,,bars/015.png,bars/mask009.png,,,,,,,,,,,,7,2,,,,,,,2,10,2,9,,,,,,,,,,,407.188,407.688,407.938,416.482,space,8.531,,416.483,57,7,417.48,417.481,437.906,space,20.408,,0,6,6,6,1,110,160,,,,,,,,
,,5f2ef7740f87702b99055397,65af542fcbfd19b26dc0c3b9,2024-01-22_23h53.41.145,bars,2023.2.3,MacIntel,59.80861244,657b66ea316d21385b68909f,,,,,,,,,,,437.911,438.901,,,439.4,439.65,,7,187,,,,,,,,,,,,,,,,bars/015.png,bars/mask004.png,,,,,,,,,,,,1,2,,,,,,,0,8,0,8,,,,,,,,,,,438.901,439.4,439.65,442.265,space,2.601,,442.265,77,27,443.265,443.265,444.013,space,0.738,,0,7,7,7,1,110,160,,,,,,,,
,,5f2ef7740f87702b99055397,65af542fcbfd19b26dc0c3b9,2024-01-22_23h53.41.145,bars,2023.2.3,MacIntel,59.80861244,657b66ea316d21385b68909f,,,,,,,,,,,444.014,445.014,,,445.512,445.762,,67,67,,,,,,,,,,,,,,,,bars/031.png,bars/mask006.png,,,,,,,,,,,,0,2,,,,,,,0,10,0,9,,,,,,,,,,,445.014,445.512,445.762,451.276,space,5.502,,451.276,53,32,452.276,452.276,453.607,space,1.309,,0,8,8,8,1,120,35,,,,,,,,
,,5f2ef7740f87702b99055397,65af542fcbfd19b26dc0c3b9,2024-01-22_23h53.41.145,bars,2023.2.3,MacIntel,59.80861244,657b66ea316d21385b68909f,,,,,,,,,,,453.608,454.606,,,455.106,455.355,,105,105,,,,,,,,,,,,,,,,bars/037.png,bars/mask008.png,,,,,,,,,,,,10,2,,,,,,,2,10,3,10,,,,,,,,,,,454.606,455.106,455.355,459.871,space,4.5,,459.871,45,0,460.869,460.869,462.436,space,1.545,,0,9,9,9,1,150,105,,,,,,,,
,,5f2ef7740f87702b99055397,65af542fcbfd19b26dc0c3b9,2024-01-22_23h53.41.145,bars,2023.2.3,MacIntel,59.80861244,657b66ea316d21385b68909f,,,,,,,,,,,462.436,463.434,,,463.933,464.184,,78,78,,,,,,,,,,,,,,,,bars/011.png,bars/mask009.png,,,,,,,,,,,,8,2,,,,,,,4,10,4,10,,,,,,,,,,,463.435,463.933,464.184,466.365,space,2.168,,466.365,82,7,467.366,467.367,468.232,space,0.837,,0,10,10,10,1,160,85,,,,,,,,
,,5f2ef7740f87702b99055397,65af542fcbfd19b26dc0c3b9,2024-01-22_23h53.41.145,bars,2023.2.3,MacIntel,59.80861244,657b66ea316d21385b68909f,,,,,,,,,,,468.234,469.23,,,469.73,469.98,,76,76,,,,,,,,,,,,,,,,bars/018.png,bars/mask001.png,,,,,,,,,,,,5,2,,,,,,,2,10,3,10,,,,,,,,,,,469.23,469.73,469.98,476.709,space,6.711,,476.709,74,14,477.707,477.707,479.057,space,1.331,,0,11,11,11,1,150,90,,,,,,,,
,,5f2ef7740f87702b99055397,65af542fcbfd19b26dc0c3b9,2024-01-22_23h53.41.145,bars,2023.2.3,MacIntel,59.80861244,657b66ea316d21385b68909f,,,,,,,,,,,479.058,480.056,,,480.556,480.807,,46,46,,,,,,,,,,,,,,,,bars/047.png,bars/mask004.png,,,,,,,,,,,,2,2,,,,,,,4,8,4,8,,,,,,,,,,,480.056,480.556,480.807,483.487,space,2.669,,483.487,31,24,484.486,484.487,484.985,space,0.479,,0,12,12,12,1,15,70,,,,,,,,
,,5f2ef7740f87702b99055397,65af542fcbfd19b26dc0c3b9,2024-01-22_23h53.41.145,bars,2023.2.3,MacIntel,59.80861244,657b66ea316d21385b68909f,,,,,,,,,,,484.986,485.986,,,486.485,486.735,,104,104,,,,,,,,,,,,,,,,bars/004.png,bars/mask008.png,,,,,,,,,,,,3,2,,,,,,,2,10,2,9,,,,,,,,,,,485.986,486.485,486.735,496.095,space,9.352,,496.095,79,21,497.096,497.096,498.377,space,1.258,,0,13,13,13,1,25,125,,,,,,,,
,,5f2ef7740f87702b99055397,65af542fcbfd19b26dc0c3b9,2024-01-22_23h53.41.145,bars,2023.2.3,MacIntel,59.80861244,657b66ea316d21385b68909f,,,,,,,,,,,498.379,499.379,,,499.877,500.126,,71,71,,,,,,,,,,,,,,,,bars/009.png,bars/mask007.png,,,,,,,,,,,,0,2,,,,,,,4,10,5,10,,,,,,,,,,,499.379,499.877,500.127,502.608,space,2.468,,502.609,56,34,503.606,503.607,504.158,space,0.53,,0,14,14,14,1,15,105,,,,,,,,
,,5f2ef7740f87702b99055397,65af542fcbfd19b26dc0c3b9,2024-01-22_23h53.41.145,bars,2023.2.3,MacIntel,59.80861244,657b66ea316d21385b68909f,,,,,,,,,,,504.158,505.156,,,505.657,505.907,,94,94,,,,,,,,,,,,,,,,bars/021.png,bars/mask002.png,,,,,,,,,,,,2,2,,,,,,,6,8,6,9,,,,,,,,,,,505.156,505.657,505.907,507.604,space,1.684,,507.605,61,24,508.603,508.603,509.138,space,0.515,,0,15,15,15,1,155,70,,,,,,,,
,,5f2ef7740f87702b99055397,65af542fcbfd19b26dc0c3b9,2024-01-22_23h53.41.145,bars,2023.2.3,MacIntel,59.80861244,657b66ea316d21385b68909f,,,,,,,,,,,509.138,510.137,,,510.635,510.885,,119,119,,,,,,,,,,,,,,,,bars/028.png,bars/mask000.png,,,,,,,,,,,,7,2,,,,,,,4,6,3,7,,,,,,,,,,,510.137,510.635,510.885,516.832,space,5.936,,516.832,74,1,517.832,517.832,518.58,space,0.732,,0,16,16,16,1,45,120,,,,,,,,
,,5f2ef7740f87702b99055397,65af542fcbfd19b26dc0c3b9,2024-01-22_23h53.41.145,bars,2023.2.3,MacIntel,59.80861244,657b66ea316d21385b68909f,,,,,,,,,,,518.581,519.581,,,520.079,520.328,,147,147,,,,,,,,,,,,,,,,bars/040.png,bars/mask003.png,,,,,,,,,,,,5,1,,,,,,,6,4,7,6,,,,,,,,,,,519.582,520.079,520.329,527.158,space,6.814,,527.159,7,38,528.157,528.157,539.751,space,11.568,,0,17,17,17,1,140,5,,,,,,,,
,,5f2ef7740f87702b99055397,65af542fcbfd19b26dc0c3b9,2024-01-22_23h53.41.145,bars,2023.2.3,MacIntel,59.80861244,657b66ea316d21385b68909f,,,,,,,,,,,539.754,540.749,,,541.249,541.5,,82,82,,,,,,,,,,,,,,,,bars/018.png,bars/mask005.png,,,,,,,,,,,,1,2,,,,,,,8,2,8,2,,,,,,,,,,,540.749,541.249,541.5,549.62,space,8.111,,549.62,68,8,550.609,550.609,551.476,space,0.85,,0,18,18,18,1,150,90,,,,,,,,
,,5f2ef7740f87702b99055397,65af542fcbfd19b26dc0c3b9,2024-01-22_23h53.41.145,bars,2023.2.3,MacIntel,59.80861244,657b66ea316d21385b68909f,,,,,,,,,,,551.477,552.475,,,552.975,553.224,,172,-8,,,,,,,,,,,,,,,,bars/048.png,bars/mask004.png,,,,,,,,,,,,3,2,,,,,,,10,4,10,3,,,,,,,,,,,552.475,552.975,553.225,560.47,space,7.228,,560.47,58,3,561.469,561.469,562.984,space,1.496,,0,19,19,19,1,50,175,,,,,,,,
,,5f2ef7740f87702b99055397,65af542fcbfd19b26dc0c3b9,2024-01-22_23h53.41.145,bars,2023.2.3,MacIntel,59.80861244,657b66ea316d21385b68909f,,,,,,,,,,,562.985,563.986,,,564.485,564.733,,165,165,,,,,,,,,,,,,,,,bars/015.png,bars/mask008.png,,,,,,,,,,,,5,2,,,,,,,10,6,10,6,,,,,,,,,,,563.987,564.484,564.733,570.996,space,6.25,,570.996,55,5,571.996,571.996,572.479,space,0.462,,0,20,20,20,1,110,160,,,,,,,,
,,5f2ef7740f87702b99055397,65af542fcbfd19b26dc0c3b9,2024-01-22_23h53.41.145,bars,2023.2.3,MacIntel,59.80861244,657b66ea316d21385b68909f,,,,,,,,,,,572.48,573.479,,,573.978,574.228,,101,101,,,,,,,,,,,,,,,,bars/001.png,bars/mask007.png,,,,,,,,,,,,2,2,,,,,,,10,4,9,4,,,,,,,,,,,573.479,573.978,574.228,576.792,space,2.551,,576.792,29,16,577.791,577.791,578.324,space,0.511,,0,21,21,21,1,130,85,,,,,,,,
,,5f2ef7740f87702b99055397,65af542fcbfd19b26dc0c3b9,2024-01-22_23h53.41.145,bars,2023.2.3,MacIntel,59.80861244,657b66ea316d21385b68909f,,,,,,,,,,,578.324,579.323,,,579.824,580.073,,127,127,,,,,,,,,,,,,,,,bars/023.png,bars/mask008.png,,,,,,,,,,,,4,2,,,,,,,10,6,10,7,,,,,,,,,,,579.323,579.824,580.073,583.304,space,3.215,,583.304,73,12,584.303,584.304,584.887,space,0.57,,0,22,22,22,1,20,115,,,,,,,,
,,5f2ef7740f87702b99055397,65af542fcbfd19b26dc0c3b9,2024-01-22_23h53.41.145,bars,2023.2.3,MacIntel,59.80861244,657b66ea316d21385b68909f,,,,,,,,,,,584.888,585.886,,,586.385,586.636,,156,156,,,,,,,,,,,,,,,,bars/048.png,bars/mask006.png,,,,,,,,,,,,1,2,,,,,,,8,4,7,4,,,,,,,,,,,585.886,586.385,586.636,591.149,space,4.496,,591.149,74,19,592.149,592.149,592.849,space,0.68,,0,23,23,23,1,50,175,,,,,,,,
,,5f2ef7740f87702b99055397,65af542fcbfd19b26dc0c3b9,2024-01-22_23h53.41.145,bars,2023.2.3,MacIntel,59.80861244,657b66ea316d21385b68909f,,,,,,,,,,,592.849,593.847,,,594.342,594.58,,45,45,,,,,,,,,,,,,,,,bars/010.png,bars/mask000.png,,,,,,,,,,,,4,2,,,,,,,6,6,6,6,,,,,,,,,,,593.847,594.342,594.58,598.528,space,3.936,,598.529,60,10,599.527,599.527,600.028,space,0.475,,0,24,24,24,1,165,55,,,,,,,,
,,5f2ef7740f87702b99055397,65af542fcbfd19b26dc0c3b9,2024-01-22_23h53.41.145,bars,2023.2.3,MacIntel,59.80861244,657b66ea316d21385b68909f,,,,,,,,,,,600.03,601.027,,,601.526,601.776,,107,107,,,,,,,,,,,,,,,,bars/006.png,bars/mask007.png,,,,,,,,,,,,6,2,,,,,,,4,8,4,8,,,,,,,,,,,601.027,601.526,601.776,602.726,space,0.932,,602.726,72,7,603.724,603.724,604.374,space,0.629,,0,25,25,25,1,35,100,,,,,,,,
,,5f2ef7740f87702b99055397,65af542fcbfd19b26dc0c3b9,2024-01-22_23h53.41.145,bars,2023.2.3,MacIntel,59.80861244,657b66ea316d21385b68909f,,,,,,,,,,,604.375,605.373,,,605.873,606.123,,69,69,,,,,,,,,,,,,,,,bars/042.png,bars/mask002.png,,,,,,,,,,,,5,2,,,,,,,6,6,4,6,,,,,,,,,,,605.373,605.873,606.123,606.672,space,0.533,,606.672,76,6,607.672,607.672,609.657,space,1.972,,0,26,26,26,1,145,75,,,,,,,,
,,5f2ef7740f87702b99055397,65af542fcbfd19b26dc0c3b9,2024-01-22_23h53.41.145,bars,2023.2.3,MacIntel,59.80861244,657b66ea316d21385b68909f,,,,,,,,,,,609.658,610.653,,,611.153,611.403,,12,12,,,,,,,,,,,,,,,,bars/028.png,bars/mask002.png,,,,,,,,,,,,0,1,,,,,,,4,8,3,8,,,,,,,,,,,610.653,611.153,611.403,613.151,space,1.732,,613.151,33,72,614.15,614.15,614.966,space,0.799,,0,27,27,27,1,45,120,,,,,,,,
,,5f2ef7740f87702b99055397,65af542fcbfd19b26dc0c3b9,2024-01-22_23h53.41.145,bars,2023.2.3,MacIntel,59.80861244,657b66ea316d21385b68909f,,,,,,,,,,,614.967,615.966,,,616.465,616.716,,115,115,,,,,,,,,,,,,,,,bars/015.png,bars/mask008.png,,,,,,,,,,,,6,1,,,,,,,6,6,7,5,,,,,,,,,,,615.967,616.465,616.716,623.728,space,7.001,,623.728,5,45,624.727,624.727,626.059,space,1.312,,0,28,28,28,1,110,160,,,,,,,,
,,5f2ef7740f87702b99055397,65af542fcbfd19b26dc0c3b9,2024-01-22_23h53.41.145,bars,2023.2.3,MacIntel,59.80861244,657b66ea316d21385b68909f,,,,,,,,,,,626.06,627.06,,,627.559,627.809,,157,157,,,,,,,,,,,,,,,,bars/024.png,bars/mask001.png,,,,,,,,,,,,5,2,,,,,,,4,8,5,9,,,,,,,,,,,627.06,627.559,627.809,631.873,space,4.047,,631.873,37,13,632.871,632.871,633.406,space,0.512,,0,29,29,29,1,120,170,,,,,,,,
,,5f2ef7740f87702b99055397,65af542fcbfd19b26dc0c3b9,2024-01-22_23h53.41.145,bars,2023.2.3,MacIntel,59.80861244,657b66ea316d21385b68909f,,,,,,,,,,,633.406,634.404,,,634.903,635.154,,31,31,,,,,,,,,,,,,,,,bars/025.png,bars/mask007.png,,,,,,,,,,,,4,2,,,,,,,6,6,5,5,,,,,,,,,,,634.404,634.903,635.154,637.685,space,2.515,,637.685,74,9,638.684,638.684,639.416,space,0.714,,0,30,30,30,1,105,40,,,,,,,,
,,5f2ef7740f87702b99055397,65af542fcbfd19b26dc0c3b9,2024-01-22_23h53.41.145,bars,2023.2.3,MacIntel,59.80861244,657b66ea316d21385b68909f,,,,,,,,,,,639.417,640.416,,,640.916,641.167,,70,70,,,,,,,,,,,,,,,,bars/027.png,bars/mask003.png,,,,,,,,,,,,3,2,,,,,,,4,8,3,10,,,,,,,,,,,640.416,640.916,641.167,647.761,space,6.583,,647.761,40,20,648.761,648.761,679.692,space,30.913,,0,31,31,31,1,110,50,,,,,,,,
,,5f2ef7740f87702b99055397,65af542fcbfd19b26dc0c3b9,2024-01-22_23h53.41.145,bars,2023.2.3,MacIntel,59.80861244,657b66ea316d21385b68909f,,,,,,,,,,,679.695,680.689,,,681.189,681.44,,143,143,,,,,,,,,,,,,,,,bars/028.png,bars/mask008.png,,,,,,,,,,,,2,2,,,,,,,2,6,4,7,,,,,,,,,,,680.69,681.189,681.44,682.505,space,1.044,,682.505,82,23,683.504,683.504,683.871,space,0.35,,0,32,32,32,1,45,120,,,,,,,,
,,5f2ef7740f87702b99055397,65af542fcbfd19b26dc0c3b9,2024-01-22_23h53.41.145,bars,2023.2.3,MacIntel,59.80861244,657b66ea316d21385b68909f,,,,,,,,,,,683.872,684.871,,,685.371,685.621,,32,32,,,,,,,,,,,,,,,,bars/046.png,bars/mask002.png,,,,,,,,,,,,0,2,,,,,,,0,8,0,8,,,,,,,,,,,684.871,685.37,685.621,691.266,space,5.627,,691.267,57,53,692.265,692.265,694.03,space,1.747,,0,33,33,33,1,155,85,,,,,,,,
,,5f2ef7740f87702b99055397,65af542fcbfd19b26dc0c3b9,2024-01-22_23h53.41.145,bars,2023.2.3,MacIntel,59.80861244,657b66ea316d21385b68909f,,,,,,,,,,,694.031,695.03,,,695.531,695.78,,7,7,,,,,,,,,,,,,,,,bars/014.png,bars/mask009.png,,,,,,,,,,,,5,2,,,,,,,2,6,2,7,,,,,,,,,,,695.03,695.531,695.781,701.726,space,5.932,,701.726,73,7,702.726,702.726,703.608,space,0.862,,0,34,34,34,1,80,0,,,,,,,,
,,5f2ef7740f87702b99055397,65af542fcbfd19b26dc0c3b9,2024-01-22_23h53.41.145,bars,2023.2.3,MacIntel,59.80861244,657b66ea316d21385b68909f,,,,,,,,,,,703.608,704.608,,,705.108,705.357,,68,68,,,,,,,,,,,,,,,,bars/002.png,bars/mask004.png,,,,,,,,,,,,2,2,,,,,,,0,4,1,4,,,,,,,,,,,704.608,705.108,705.357,708.773,space,3.399,,708.774,62,17,709.771,709.772,710.637,space,0.848,,0,35,35,35,1,130,85,,,,,,,,
,,5f2ef7740f87702b99055397,65af542fcbfd19b26dc0c3b9,2024-01-22_23h53.41.145,bars,2023.2.3,MacIntel,59.80861244,657b66ea316d21385b68909f,,,,,,,,,,,710.64,711.636,,,712.136,712.386,,75,75,,,,,,,,,,,,,,,,bars/046.png,bars/mask008.png,,,,,,,,,,,,3,2,,,,,,,0,6,0,4,,,,,,,,,,,711.636,712.136,712.387,719.814,space,7.411,,719.814,80,10,720.814,720.814,721.312,space,0.482,,0,36,36,36,1,155,85,,,,,,,,
,,5f2ef7740f87702b99055397,65af542fcbfd19b26dc0c3b9,2024-01-22_23h53.41.145,bars,2023.2.3,MacIntel,59.80861244,657b66ea316d21385b68909f,,,,,,,,,,,721.313,722.313,,,722.812,723.062,,165,-15,,,,,,,,,,,,,,,,bars/044.png,bars/mask001.png,,,,,,,,,,,,3,2,,,,,,,2,4,2,5,,,,,,,,,,,722.313,722.812,723.062,727.809,space,4.729,,727.809,90,10,728.808,728.808,730.124,space,1.298,,0,37,37,37,1,75,155,,,,,,,,
,,5f2ef7740f87702b99055397,65af542fcbfd19b26dc0c3b9,2024-01-22_23h53.41.145,bars,2023.2.3,MacIntel,59.80861244,657b66ea316d21385b68909f,,,,,,,,,,,730.125,731.124,,,731.623,731.872,,82,82,,,,,,,,,,,,,,,,bars/038.png,bars/mask007.png,,,,,,,,,,,,4,2,,,,,,,4,6,5,6,,,,,,,,,,,731.124,731.623,731.872,732.739,space,0.852,,732.739,83,12,733.739,733.739,734.054,space,0.296,,0,38,38,38,1,165,70,,,,,,,,
,,5f2ef7740f87702b99055397,65af542fcbfd19b26dc0c3b9,2024-01-22_23h53.41.145,bars,2023.2.3,MacIntel,59.80861244,657b66ea316d21385b68909f,,,,,,,,,,,734.055,735.055,,,735.553,735.803,,132,132,,,,,,,,,,,,,,,,bars/006.png,bars/mask003.png,,,,,,,,,,,,0,2,,,,,,,2,8,1,8,,,,,,,,,,,735.055,735.553,735.803,740.667,space,4.844,,740.667,83,32,741.667,741.667,742.718,space,1.03,,0,39,39,39,1,35,100,,,,,,,,
,,5f2ef7740f87702b99055397,65af542fcbfd19b26dc0c3b9,2024-01-22_23h53.41.145,bars,2023.2.3,MacIntel,59.80861244,657b66ea316d21385b68909f,,,,,,,,,,,742.72,743.715,,,744.215,744.464,,129,129,,,,,,,,,,,,,,,,bars/004.png,bars/mask003.png,,,,,,,,,,,,9,2,,,,,,,0,10,0,10,,,,,,,,,,,743.715,744.215,744.464,752.076,space,7.593,,752.076,76,4,753.075,753.075,753.741,space,0.646,,0,40,40,40,1,25,125,,,,,,,,
,,5f2ef7740f87702b99055397,65af542fcbfd19b26dc0c3b9,2024-01-22_23h53.41.145,bars,2023.2.3,MacIntel,59.80861244,657b66ea316d21385b68909f,,,,,,,,,,,753.742,754.74,,,755.24,755.49,,156,156,,,,,,,,,,,,,,,,bars/028.png,bars/mask009.png,,,,,,,,,,,,0,2,,,,,,,0,8,1,10,,,,,,,,,,,754.74,755.24,755.49,756.406,space,0.901,,756.407,69,36,757.406,757.406,757.855,space,0.434,,0,41,41,41,1,45,120,,,,,,,,
,,5f2ef7740f87702b99055397,65af542fcbfd19b26dc0c3b9,2024-01-22_23h53.41.145,bars,2023.2.3,MacIntel,59.80861244,657b66ea316d21385b68909f,,,,,,,,,,,757.856,758.856,,,759.353,759.604,,11,191,,,,,,,,,,,,,,,,bars/012.png,bars/mask008.png,,,,,,,,,,,,9,2,,,,,,,0,10,0,10,,,,,,,,,,,758.856,759.353,759.604,766.883,space,7.266,,766.883,79,4,767.882,767.882,768.182,space,0.279,,0,42,42,42,1,90,15,,,,,,,,
,,5f2ef7740f87702b99055397,65af542fcbfd19b26dc0c3b9,2024-01-22_23h53.41.145,bars,2023.2.3,MacIntel,59.80861244,657b66ea316d21385b68909f,,,,,,,,,,,768.183,769.181,,,769.681,769.93,,74,74,,,,,,,,,,,,,,,,bars/019.png,bars/mask002.png,,,,,,,,,,,,0,1,,,,,,,2,10,2,10,,,,,,,,,,,769.181,769.681,769.93,774.279,space,4.335,,774.279,29,31,775.279,775.279,775.993,space,0.687,,0,43,43,43,1,45,105,,,,,,,,
,,5f2ef7740f87702b99055397,65af542fcbfd19b26dc0c3b9,2024-01-22_23h53.41.145,bars,2023.2.3,MacIntel,59.80861244,657b66ea316d21385b68909f,,,,,,,,,,,775.995,776.992,,,777.493,777.742,,101,101,,,,,,,,,,,,,,,,bars/009.png,bars/mask008.png,,,,,,,,,,,,8,2,,,,,,,0,8,1,9,,,,,,,,,,,776.992,777.493,777.742,781.123,space,3.365,,781.123,86,4,782.122,782.122,782.356,space,0.214,,0,44,44,44,1,15,105,,,,,,,,
,,5f2ef7740f87702b99055397,65af542fcbfd19b26dc0c3b9,2024-01-22_23h53.41.145,bars,2023.2.3,MacIntel,59.80861244,657b66ea316d21385b68909f,,,,,,,,,,,782.356,783.356,,,783.855,784.105,,19,19,,,,,,,,,,,,,,,,bars/045.png,bars/mask006.png,,,,,,,,,,,,7,2,,,,,,,0,10,0,10,,,,,,,,,,,783.356,783.855,784.105,786.753,space,2.631,,786.753,81,9,787.752,787.752,788.019,space,0.248,,0,45,45,45,1,100,10,,,,,,,,
,,5f2ef7740f87702b99055397,65af542fcbfd19b26dc0c3b9,2024-01-22_23h53.41.145,bars,2023.2.3,MacIntel,59.80861244,657b66ea316d21385b68909f,,,,,,,,,,,788.02,789.018,,,789.518,789.757,,29,29,,,,,,,,,,,,,,,,bars/025.png,bars/mask005.png,,,,,,,,,,,,6,2,,,,,,,0,10,0,10,,,,,,,,,,,789.018,789.518,789.757,792.099,space,2.329,,792.1,76,11,793.098,793.099,793.165,space,0.052,,0,46,46,46,1,105,40,,,,,,,,
,,5f2ef7740f87702b99055397,65af542fcbfd19b26dc0c3b9,2024-01-22_23h53.41.145,bars,2023.2.3,MacIntel,59.80861244,657b66ea316d21385b68909f,,,,,,,,,,,793.166,794.164,,,794.663,794.914,,71,71,,,,,,,,,,,,,,,,bars/011.png,bars/mask004.png,,,,,,,,,,,,4,2,,,,,,,0,8,0,8,,,,,,,,,,,794.164,794.663,794.914,799.695,space,4.768,,799.695,89,14,800.694,800.694,800.811,space,0.097,,0,47,47,47,1,160,85,,,,,,,,
,,5f2ef7740f87702b99055397,65af542fcbfd19b26dc0c3b9,2024-01-22_23h53.41.145,bars,2023.2.3,MacIntel,59.80861244,657b66ea316d21385b68909f,,,,,,,,,,,800.811,801.81,,,802.309,802.559,,110,110,,,,,,,,,,,,,,,,bars/028.png,bars/mask004.png,,,,,,,,,,,,5,2,,,,,,,0,6,0,7,,,,,,,,,,,801.81,802.308,802.559,807.374,space,4.799,,807.375,65,10,808.373,808.373,808.506,space,0.11,,0,48,48,48,1,45,120,,,,,,,,
,,5f2ef7740f87702b99055397,65af542fcbfd19b26dc0c3b9,2024-01-22_23h53.41.145,bars,2023.2.3,MacIntel,59.80861244,657b66ea316d21385b68909f,,,,,,,,,,,808.507,809.504,,,810.004,810.253,,86,86,,,,,,,,,,,,,,,,bars/046.png,bars/mask006.png,,,,,,,,,,,,5,2,,,,,,,2,4,3,5,,,,,,,,,,,809.504,810.004,810.253,812.22,space,1.95,,812.22,69,1,813.218,813.218,813.602,space,0.365,,0,49,49,49,1,155,85,,,,,,,,
,,5f2ef7740f87702b99055397,65af542fcbfd19b26dc0c3b9,2024-01-22_23h53.41.145,bars,2023.2.3,MacIntel,59.80861244,657b66ea316d21385b68909f,,,,,,,,,,,,,,,,,,,,,,,,,,,,,,,,,,,,,,,,,,,,,,,,,,,,,,,,,,,,,,,,,,,,,,,,,,,,,,,,,,,,,,,,,,,,,813.603,873.597,0,0,0,4,1,sequence_tables/blk003.csv
,,5f2ef7740f87702b99055397,65af542fcbfd19b26dc0c3b9,2024-01-22_23h53.41.145,bars,2023.2.3,MacIntel,59.80861244,657b66ea316d21385b68909f,,,,,,,,,,,918.794,919.784,,,920.281,920.531,,102,102,,,,,,,,,,,,,,,,bars/028.png,bars/mask003.png,,,,,,,,,,,,1,2,,,,,,,10,2,9,2,,,,,,873.601,918.785,space,45.172,,919.784,920.281,920.531,928.177,space,7.631,,928.178,57,18,929.175,929.175,929.181,,,,0,0,0,0,1,45,120,,,,,,,,
,,5f2ef7740f87702b99055397,65af542fcbfd19b26dc0c3b9,2024-01-22_23h53.41.145,bars,2023.2.3,MacIntel,59.80861244,657b66ea316d21385b68909f,,,,,,,,,,,929.182,930.175,,,930.674,930.924,,110,110,,,,,,,,,,,,,,,,bars/002.png,bars/mask000.png,,,,,,,,,,,,3,1,,,,,,,8,0,8,0,,,,,,,,,,,930.175,930.674,930.924,935.923,space,4.979,,935.923,20,25,936.921,936.921,936.927,,,,0,1,1,1,1,130,85,,,,,,,,
,,5f2ef7740f87702b99055397,65af542fcbfd19b26dc0c3b9,2024-01-22_23h53.41.145,bars,2023.2.3,MacIntel,59.80861244,657b66ea316d21385b68909f,,,,,,,,,,,936.928,937.919,,,938.419,938.669,,50,50,,,,,,,,,,,,,,,,bars/027.png,bars/mask003.png,,,,,,,,,,,,2,2,,,,,,,6,2,4,2,,,,,,,,,,,937.919,938.419,938.669,944.364,space,5.681,,944.364,60,0,945.366,945.366,945.369,,,,0,2,2,2,1,110,50,,,,,,,,
,,5f2ef7740f87702b99055397,65af542fcbfd19b26dc0c3b9,2024-01-22_23h53.41.145,bars,2023.2.3,MacIntel,59.80861244,657b66ea316d21385b68909f,,,,,,,,,,,945.37,946.364,,,946.864,947.114,,18,198,,,,,,,,,,,,,,,,bars/031.png,bars/mask001.png,,,,,,,,,,,,0,2,,,,,,,8,0,6,1,,,,,,,,,,,946.364,946.864,947.114,953.093,space,5.967,,953.093,78,17,954.092,954.092,954.095,,,,0,3,3,3,1,120,35,,,,,,,,
,,5f2ef7740f87702b99055397,65af542fcbfd19b26dc0c3b9,2024-01-22_23h53.41.145,bars,2023.2.3,MacIntel,59.80861244,657b66ea316d21385b68909f,,,,,,,,,,,954.095,955.093,,,955.591,955.841,,9,189,,,,,,,,,,,,,,,,bars/003.png,bars/mask001.png,,,,,,,,,,,,4,1,,,,,,,6,2,8,1,,,,,,,,,,,955.094,955.591,955.841,965.418,space,9.56,,965.419,16,49,966.417,966.417,966.424,,,,0,4,4,4,1,25,140,,,,,,,,
,,5f2ef7740f87702b99055397,65af542fcbfd19b26dc0c3b9,2024-01-22_23h53.41.145,bars,2023.2.3,MacIntel,59.80861244,657b66ea316d21385b68909f,,,,,,,,,,,966.425,967.417,,,967.916,968.166,,169,-11,,,,,,,,,,,,,,,,bars/008.png,bars/mask008.png,,,,,,,,,,,,0,2,,,,,,,4,0,6,0,,,,,,,,,,,967.417,967.916,968.166,971.198,space,3.018,,971.198,59,11,972.197,972.197,972.205,,,,0,5,5,5,1,110,0,,,,,,,,
,,5f2ef7740f87702b99055397,65af542fcbfd19b26dc0c3b9,2024-01-22_23h53.41.145,bars,2023.2.3,MacIntel,59.80861244,657b66ea316d21385b68909f,,,,,,,,,,,972.206,973.196,,,973.696,973.946,,20,20,,,,,,,,,,,,,,,,bars/035.png,bars/mask003.png,,,,,,,,,,,,0,1,,,,,,,2,0,2,1,,,,,,,,,,,973.196,973.696,973.946,983.372,space,9.413,,983.372,25,40,984.372,984.372,984.378,,,,0,6,6,6,1,175,60,,,,,,,,
,,5f2ef7740f87702b99055397,65af542fcbfd19b26dc0c3b9,2024-01-22_23h53.41.145,bars,2023.2.3,MacIntel,59.80861244,657b66ea316d21385b68909f,,,,,,,,,,,984.378,985.372,,,985.872,986.121,,28,208,,,,,,,,,,,,,,,,bars/028.png,bars/mask006.png,,,,,,,,,,,,2,1,,,,,,,4,2,4,1,,,,,,,,,,,985.372,985.871,986.121,989.935,space,3.802,,989.935,17,88,990.933,990.934,990.939,,,,0,7,7,7,1,45,120,,,,,,,,
,,5f2ef7740f87702b99055397,65af542fcbfd19b26dc0c3b9,2024-01-22_23h53.41.145,bars,2023.2.3,MacIntel,59.80861244,657b66ea316d21385b68909f,,,,,,,,,,,990.94,991.933,,,992.434,992.684,,131,-49,,,,,,,,,,,,,,,,bars/025.png,bars/mask000.png,,,,,,,,,,,,1,1,,,,,,,6,0,6,1,,,,,,,,,,,991.933,992.434,992.684,1003.577,space,10.881,,1003.577,26,89,1004.575,1004.575,1004.579,,,,0,8,8,8,1,105,40,,,,,,,,
,,5f2ef7740f87702b99055397,65af542fcbfd19b26dc0c3b9,2024-01-22_23h53.41.145,bars,2023.2.3,MacIntel,59.80861244,657b66ea316d21385b68909f,,,,,,,,,,,1004.579,1005.574,,,1006.075,1006.326,,50,230,,,,,,,,,,,,,,,,bars/044.png,bars/mask001.png,,,,,,,,,,,,1,1,,,,,,,4,2,5,2,,,,,,,,,,,1005.574,1006.075,1006.326,1015.902,space,9.56,,1015.902,25,75,1016.901,1016.901,1016.905,,,,0,9,9,9,1,75,155,,,,,,,,
,,5f2ef7740f87702b99055397,65af542fcbfd19b26dc0c3b9,2024-01-22_23h53.41.145,bars,2023.2.3,MacIntel,59.80861244,657b66ea316d21385b68909f,,,,,,,,,,,1016.905,1017.903,,,1018.402,1018.649,,11,191,,,,,,,,,,,,,,,,bars/010.png,bars/mask008.png,,,,,,,,,,,,0,1,,,,,,,2,0,2,0,,,,,,,,,,,1017.903,1018.402,1018.649,1023.646,space,4.975,,1023.646,26,44,1024.646,1024.646,1024.653,,,,0,10,10,10,1,165,55,,,,,,,,
,,5f2ef7740f87702b99055397,65af542fcbfd19b26dc0c3b9,2024-01-22_23h53.41.145,bars,2023.2.3,MacIntel,59.80861244,657b66ea316d21385b68909f,,,,,,,,,,,1024.654,1025.644,,,1026.145,1026.395,,17,17,,,,,,,,,,,,,,,,bars/004.png,bars/mask002.png,,,,,,,,,,,,1,1,,,,,,,0,2,1,4,,,,,,,,,,,1025.644,1026.145,1026.395,1031.127,space,4.722,,1031.127,8,72,1032.123,1032.123,1032.127,,,,0,11,11,11,1,25,125,,,,,,,,
,,5f2ef7740f87702b99055397,65af542fcbfd19b26dc0c3b9,2024-01-22_23h53.41.145,bars,2023.2.3,MacIntel,59.80861244,657b66ea316d21385b68909f,,,,,,,,,,,1032.127,1033.123,,,1033.624,1033.873,,110,110,,,,,,,,,,,,,,,,bars/001.png,bars/mask002.png,,,,,,,,,,,,1,1,,,,,,,2,0,2,0,,,,,,,,,,,1033.123,1033.624,1033.874,1038.703,space,4.816,,1038.703,20,25,1039.702,1039.702,1039.705,,,,0,12,12,12,1,130,85,,,,,,,,
,,5f2ef7740f87702b99055397,65af542fcbfd19b26dc0c3b9,2024-01-22_23h53.41.145,bars,2023.2.3,MacIntel,59.80861244,657b66ea316d21385b68909f,,,,,,,,,,,1039.705,1040.685,,,1041.17,1041.419,,120,120,,,,,,,,,,,,,,,,bars/023.png,bars/mask001.png,,,,,,,,,,,,1,2,,,,,,,0,2,1,1,,,,,,,,,,,1040.685,1041.17,1041.419,1050.645,space,9.207,,1050.646,80,5,1051.645,1051.645,1051.657,,,,0,13,13,13,1,20,115,,,,,,,,
,,5f2ef7740f87702b99055397,65af542fcbfd19b26dc0c3b9,2024-01-22_23h53.41.145,bars,2023.2.3,MacIntel,59.80861244,657b66ea316d21385b68909f,,,,,,,,,,,1051.658,1052.661,,,1053.16,1053.41,,76,76,,,,,,,,,,,,,,,,bars/019.png,bars/mask003.png,,,,,,,,,,,,0,2,,,,,,,2,0,1,0,,,,,,,,,,,1052.661,1053.16,1053.41,1070.583,space,17.156,,1070.583,31,29,1071.58,1071.58,1071.584,,,,0,14,14,14,1,45,105,,,,,,,,
,,5f2ef7740f87702b99055397,65af542fcbfd19b26dc0c3b9,2024-01-22_23h53.41.145,bars,2023.2.3,MacIntel,59.80861244,657b66ea316d21385b68909f,,,,,,,,,,,1071.585,1072.58,,,1073.08,1073.33,,158,-22,,,,,,,,,,,,,,,,bars/036.png,bars/mask004.png,,,,,,,,,,,,2,1,,,,,,,4,2,4,3,,,,,,,,,,,1072.58,1073.08,1073.33,1082.474,space,9.123,,1082.475,13,42,1083.474,1083.474,1083.483,,,,0,15,15,15,1,145,20,,,,,,,,
,,5f2ef7740f87702b99055397,65af542fcbfd19b26dc0c3b9,2024-01-22_23h53.41.145,bars,2023.2.3,MacIntel,59.80861244,657b66ea316d21385b68909f,,,,,,,,,,,1083.484,1084.49,,,1084.989,1085.239,,60,240,,,,,,,,,,,,,,,,bars/037.png,bars/mask004.png,,,,,,,,,,,,0,2,,,,,,,2,4,2,3,,,,,,,,,,,1084.49,1084.989,1085.239,1093.084,space,7.831,,1093.084,90,45,1094.082,1094.083,1094.088,,,,0,16,16,16,1,150,105,,,,,,,,
,,5f2ef7740f87702b99055397,65af542fcbfd19b26dc0c3b9,2024-01-22_23h53.41.145,bars,2023.2.3,MacIntel,59.80861244,657b66ea316d21385b68909f,,,,,,,,,,,1094.089,1095.082,,,1095.582,1095.832,,32,212,,,,,,,,,,,,,,,,bars/031.png,bars/mask006.png,,,,,,,,,,,,4,2,,,,,,,4,2,7,4,,,,,,,,,,,1095.082,1095.582,1095.832,1101.662,space,5.816,,1101.662,88,3,1102.661,1102.661,1102.664,,,,0,17,17,17,1,120,35,,,,,,,,
,,5f2ef7740f87702b99055397,65af542fcbfd19b26dc0c3b9,2024-01-22_23h53.41.145,bars,2023.2.3,MacIntel,59.80861244,657b66ea316d21385b68909f,,,,,,,,,,,1102.664,1103.66,,,1104.159,1104.409,,162,162,,,,,,,,,,,,,,,,bars/036.png,bars/mask006.png,,,,,,,,,,,,3,1,,,,,,,6,4,6,4,,,,,,,,,,,1103.66,1104.159,1104.409,1111.689,space,7.267,,1111.689,17,38,1112.687,1112.689,1112.699,,,,0,18,18,18,1,145,20,,,,,,,,
,,5f2ef7740f87702b99055397,65af542fcbfd19b26dc0c3b9,2024-01-22_23h53.41.145,bars,2023.2.3,MacIntel,59.80861244,657b66ea316d21385b68909f,,,,,,,,,,,1112.699,1113.702,,,1114.204,1114.453,,144,-36,,,,,,,,,,,,,,,,bars/008.png,bars/mask000.png,,,,,,,,,,,,0,1,,,,,,,4,6,1,6,,,,,,,,,,,1113.702,1114.204,1114.453,1122.481,space,8.009,,1122.481,34,36,1123.479,1123.479,1123.483,,,,0,19,19,19,1,110,0,,,,,,,,
,,5f2ef7740f87702b99055397,65af542fcbfd19b26dc0c3b9,2024-01-22_23h53.41.145,bars,2023.2.3,MacIntel,59.80861244,657b66ea316d21385b68909f,,,,,,,,,,,1123.483,1124.479,,,1124.979,1125.229,,73,73,,,,,,,,,,,,,,,,bars/042.png,bars/mask008.png,,,,,,,,,,,,5,2,,,,,,,6,4,5,5,,,,,,,,,,,1124.479,1124.979,1125.229,1129.392,space,4.145,,1129.392,72,2,1130.392,1130.392,1130.399,,,,0,20,20,20,1,145,75,,,,,,,,
,,5f2ef7740f87702b99055397,65af542fcbfd19b26dc0c3b9,2024-01-22_23h53.41.145,bars,2023.2.3,MacIntel,59.80861244,657b66ea316d21385b68909f,,,,,,,,,,,1130.4,1131.392,,,1131.891,1132.142,,172,172,,,,,,,,,,,,,,,,bars/046.png,bars/mask007.png,,,,,,,,,,,,3,1,,,,,,,8,2,8,3,,,,,,,,,,,1131.392,1131.891,1132.142,1136.355,space,4.202,,1136.355,17,87,1137.354,1137.355,1137.359,,,,0,21,21,21,1,155,85,,,,,,,,
,,5f2ef7740f87702b99055397,65af542fcbfd19b26dc0c3b9,2024-01-22_23h53.41.145,bars,2023.2.3,MacIntel,59.80861244,657b66ea316d21385b68909f,,,,,,,,,,,1137.36,1138.355,,,1138.854,1139.102,,4,4,,,,,,,,,,,,,,,,bars/049.png,bars/mask008.png,,,,,,,,,,,,1,1,,,,,,,6,4,6,5,,,,,,,,,,,1138.355,1138.853,1139.102,1142.101,space,2.989,,1142.101,24,69,1143.1,1143.1,1143.108,,,,0,22,22,22,1,160,115,,,,,,,,
,,5f2ef7740f87702b99055397,65af542fcbfd19b26dc0c3b9,2024-01-22_23h53.41.145,bars,2023.2.3,MacIntel,59.80861244,657b66ea316d21385b68909f,,,,,,,,,,,1143.109,1144.1,,,1144.599,1144.848,,57,57,,,,,,,,,,,,,,,,bars/042.png,bars/mask003.png,,,,,,,,,,,,0,2,,,,,,,8,2,7,0,,,,,,,,,,,1144.1,1144.599,1144.849,1145.451,space,0.593,,1145.451,88,18,1146.448,1146.448,1146.454,,,,0,23,23,23,1,145,75,,,,,,,,
,,5f2ef7740f87702b99055397,65af542fcbfd19b26dc0c3b9,2024-01-22_23h53.41.145,bars,2023.2.3,MacIntel,59.80861244,657b66ea316d21385b68909f,,,,,,,,,,,1146.455,1147.447,,,1147.947,1148.196,,154,154,,,,,,,,,,,,,,,,bars/040.png,bars/mask009.png,,,,,,,,,,,,4,1,,,,,,,6,0,7,0,,,,,,,,,,,1147.447,1147.947,1148.196,1156.325,space,8.111,,1156.325,14,31,1157.324,1157.324,1157.329,,,,0,24,24,24,1,140,5,,,,,,,,
,,5f2ef7740f87702b99055397,65af542fcbfd19b26dc0c3b9,2024-01-22_23h53.41.145,bars,2023.2.3,MacIntel,59.80861244,657b66ea316d21385b68909f,,,,,,,,,,,1157.33,1158.323,,,1158.824,1159.073,,120,120,,,,,,,,,,,,,,,,bars/008.png,bars/mask002.png,,,,,,,,,,,,3,1,,,,,,,4,0,5,1,,,,,,,,,,,1158.324,1158.824,1159.073,1161.855,space,2.768,,1161.855,10,60,1162.853,1162.853,1162.857,,,,0,25,25,25,1,110,0,,,,,,,,
,,5f2ef7740f87702b99055397,65af542fcbfd19b26dc0c3b9,2024-01-22_23h53.41.145,bars,2023.2.3,MacIntel,59.80861244,657b66ea316d21385b68909f,,,,,,,,,,,1162.857,1163.853,,,1164.353,1164.603,,66,66,,,,,,,,,,,,,,,,bars/025.png,bars/mask005.png,,,,,,,,,,,,0,2,,,,,,,6,2,7,2,,,,,,,,,,,1163.853,1164.353,1164.603,1167.451,space,2.833,,1167.451,39,26,1168.45,1168.45,1168.456,,,,0,26,26,26,1,105,40,,,,,,,,
,,5f2ef7740f87702b99055397,65af542fcbfd19b26dc0c3b9,2024-01-22_23h53.41.145,bars,2023.2.3,MacIntel,59.80861244,657b66ea316d21385b68909f,,,,,,,,,,,1168.456,1169.449,,,1169.95,1170.199,,10,190,,,,,,,,,,,,,,,,bars/012.png,bars/mask000.png,,,,,,,,,,,,0,2,,,,,,,8,0,8,0,,,,,,,,,,,1169.449,1169.95,1170.199,1172.698,space,2.489,,1172.698,80,5,1173.696,1173.696,1173.703,,,,0,27,27,27,1,90,15,,,,,,,,
,,5f2ef7740f87702b99055397,65af542fcbfd19b26dc0c3b9,2024-01-22_23h53.41.145,bars,2023.2.3,MacIntel,59.80861244,657b66ea316d21385b68909f,,,,,,,,,,,1173.704,1174.696,,,1175.196,1175.445,,9,189,,,,,,,,,,,,,,,,bars/003.png,bars/mask006.png,,,,,,,,,,,,3,1,,,,,,,6,2,7,0,,,,,,,,,,,1174.696,1175.196,1175.445,1183.806,space,8.351,,1183.806,16,49,1184.805,1184.805,1184.811,,,,0,28,28,28,1,25,140,,,,,,,,
,,5f2ef7740f87702b99055397,65af542fcbfd19b26dc0c3b9,2024-01-22_23h53.41.145,bars,2023.2.3,MacIntel,59.80861244,657b66ea316d21385b68909f,,,,,,,,,,,1184.811,1185.804,,,1186.305,1186.554,,18,18,,,,,,,,,,,,,,,,bars/023.png,bars/mask002.png,,,,,,,,,,,,7,1,,,,,,,8,4,7,4,,,,,,,,,,,1185.805,1186.304,1186.554,1192.286,space,5.723,,1192.287,2,83,1193.283,1193.284,1193.287,,,,0,29,29,29,1,20,115,,,,,,,,
,,5f2ef7740f87702b99055397,65af542fcbfd19b26dc0c3b9,2024-01-22_23h53.41.145,bars,2023.2.3,MacIntel,59.80861244,657b66ea316d21385b68909f,,,,,,,,,,,1193.288,1194.283,,,1194.782,1195.033,,12,12,,,,,,,,,,,,,,,,bars/044.png,bars/mask003.png,,,,,,,,,,,,0,2,,,,,,,10,6,10,6,,,,,,,,,,,1194.283,1194.782,1195.033,1196.665,space,1.618,,1196.665,63,37,1197.664,1197.664,1197.669,,,,0,30,30,30,1,75,155,,,,,,,,
,,5f2ef7740f87702b99055397,65af542fcbfd19b26dc0c3b9,2024-01-22_23h53.41.145,bars,2023.2.3,MacIntel,59.80861244,657b66ea316d21385b68909f,,,,,,,,,,,1197.669,1198.662,,,1199.164,1199.413,,155,-25,,,,,,,,,,,,,,,,bars/008.png,bars/mask002.png,,,,,,,,,,,,1,2,,,,,,,10,8,10,9,,,,,,,,,,,1198.663,1199.164,1199.413,1204.228,space,4.801,,1204.228,45,25,1205.226,1205.226,1205.232,,,,0,31,31,31,1,110,0,,,,,,,,
,,5f2ef7740f87702b99055397,65af542fcbfd19b26dc0c3b9,2024-01-22_23h53.41.145,bars,2023.2.3,MacIntel,59.80861244,657b66ea316d21385b68909f,,,,,,,,,,,1205.233,1206.226,,,1206.725,1206.975,,36,36,,,,,,,,,,,,,,,,bars/027.png,bars/mask006.png,,,,,,,,,,,,5,2,,,,,,,10,10,9,9,,,,,,,,,,,1206.226,1206.725,1206.975,1212.187,space,5.198,,1212.188,74,14,1213.187,1213.187,1213.191,,,,0,32,32,32,1,110,50,,,,,,,,
,,5f2ef7740f87702b99055397,65af542fcbfd19b26dc0c3b9,2024-01-22_23h53.41.145,bars,2023.2.3,MacIntel,59.80861244,657b66ea316d21385b68909f,,,,,,,,,,,1213.192,1214.185,,,1214.686,1214.937,,7,7,,,,,,,,,,,,,,,,bars/035.png,bars/mask001.png,,,,,,,,,,,,5,1,,,,,,,8,10,9,10,,,,,,,,,,,1214.186,1214.686,1214.937,1216.284,space,1.33,,1216.284,12,53,1217.284,1217.284,1217.29,,,,0,33,33,33,1,175,60,,,,,,,,
,,5f2ef7740f87702b99055397,65af542fcbfd19b26dc0c3b9,2024-01-22_23h53.41.145,bars,2023.2.3,MacIntel,59.80861244,657b66ea316d21385b68909f,,,,,,,,,,,1217.29,1218.282,,,1218.783,1219.034,,161,161,,,,,,,,,,,,,,,,bars/007.png,bars/mask007.png,,,,,,,,,,,,5,1,,,,,,,10,8,10,8,,,,,,,,,,,1218.283,1218.783,1219.034,1222.298,space,3.249,,1222.298,14,74,1223.296,1223.297,1223.3,,,,0,34,34,34,1,175,55,,,,,,,,
,,5f2ef7740f87702b99055397,65af542fcbfd19b26dc0c3b9,2024-01-22_23h53.41.145,bars,2023.2.3,MacIntel,59.80861244,657b66ea316d21385b68909f,,,,,,,,,,,1223.301,1224.296,,,1224.796,1225.046,,12,192,,,,,,,,,,,,,,,,bars/022.png,bars/mask007.png,,,,,,,,,,,,5,2,,,,,,,10,6,10,7,,,,,,,,,,,1224.296,1224.796,1225.046,1233.074,space,8.014,,1233.075,83,8,1234.073,1234.073,1234.085,,,,0,35,35,35,1,95,20,,,,,,,,
,,5f2ef7740f87702b99055397,65af542fcbfd19b26dc0c3b9,2024-01-22_23h53.41.145,bars,2023.2.3,MacIntel,59.80861244,657b66ea316d21385b68909f,,,,,,,,,,,1234.086,1235.09,,,1235.591,1235.838,,167,167,,,,,,,,,,,,,,,,bars/009.png,bars/mask006.png,,,,,,,,,,,,1,1,,,,,,,8,8,8,6,,,,,,,,,,,1235.09,1235.591,1235.838,1237.756,space,1.904,,1237.756,28,62,1238.753,1238.753,1238.76,,,,0,36,36,36,1,15,105,,,,,,,,
,,5f2ef7740f87702b99055397,65af542fcbfd19b26dc0c3b9,2024-01-22_23h53.41.145,bars,2023.2.3,MacIntel,59.80861244,657b66ea316d21385b68909f,,,,,,,,,,,1238.761,1239.753,,,1240.252,1240.502,,167,167,,,,,,,,,,,,,,,,bars/025.png,bars/mask003.png,,,,,,,,,,,,0,2,,,,,,,10,10,9,10,,,,,,,,,,,1239.753,1240.252,1240.502,1244.317,space,3.8,,1244.317,62,53,1245.315,1245.315,1245.32,,,,0,37,37,37,1,105,40,,,,,,,,
,,5f2ef7740f87702b99055397,65af542fcbfd19b26dc0c3b9,2024-01-22_23h53.41.145,bars,2023.2.3,MacIntel,59.80861244,657b66ea316d21385b68909f,,,,,,,,,,,1245.321,1246.315,,,1246.815,1247.063,,8,188,,,,,,,,,,,,,,,,bars/035.png,bars/mask005.png,,,,,,,,,,,,5,1,,,,,,,10,10,8,10,,,,,,,,,,,1246.315,1246.815,1247.063,1255.908,space,8.826,,1255.908,13,52,1256.908,1256.909,1256.914,,,,0,38,38,38,1,175,60,,,,,,,,
,,5f2ef7740f87702b99055397,65af542fcbfd19b26dc0c3b9,2024-01-22_23h53.41.145,bars,2023.2.3,MacIntel,59.80861244,657b66ea316d21385b68909f,,,,,,,,,,,1256.914,1257.907,,,1258.407,1258.657,,173,173,,,,,,,,,,,,,,,,bars/017.png,bars/mask007.png,,,,,,,,,,,,1,1,,,,,,,10,10,8,9,,,,,,,,,,,1257.907,1258.407,1258.657,1263.887,space,5.213,,1263.887,28,52,1264.886,1264.886,1264.89,,,,0,39,39,39,1,145,45,,,,,,,,
,,5f2ef7740f87702b99055397,65af542fcbfd19b26dc0c3b9,2024-01-22_23h53.41.145,bars,2023.2.3,MacIntel,59.80861244,657b66ea316d21385b68909f,,,,,,,,,,,1264.891,1265.885,,,1266.384,1266.634,,77,77,,,,,,,,,,,,,,,,bars/002.png,bars/mask001.png,,,,,,,,,,,,7,2,,,,,,,8,10,10,10,,,,,,,,,,,1265.885,1266.384,1266.635,1268.801,space,2.152,,1268.801,53,8,1269.8,1269.8,1269.807,,,,0,40,40,40,1,130,85,,,,,,,,
,,5f2ef7740f87702b99055397,65af542fcbfd19b26dc0c3b9,2024-01-22_23h53.41.145,bars,2023.2.3,MacIntel,59.80861244,657b66ea316d21385b68909f,,,,,,,,,,,1269.807,1270.799,,,1271.299,1271.548,,67,67,,,,,,,,,,,,,,,,bars/043.png,bars/mask003.png,,,,,,,,,,,,0,1,,,,,,,10,10,10,10,,,,,,,,,,,1270.799,1271.299,1271.548,1277.262,space,5.697,,1277.262,37,63,1278.26,1278.26,1278.265,,,,0,41,41,41,1,30,130,,,,,,,,
,,5f2ef7740f87702b99055397,65af542fcbfd19b26dc0c3b9,2024-01-22_23h53.41.145,bars,2023.2.3,MacIntel,59.80861244,657b66ea316d21385b68909f,,,,,,,,,,,1278.265,1279.229,,,1279.726,1279.975,,72,72,,,,,,,,,,,,,,,,bars/031.png,bars/mask003.png,,,,,,,,,,,,0,2,,,,,,,10,10,9,10,,,,,,,,,,,1279.229,1279.725,1279.975,1286.921,space,6.93,,1286.921,48,37,1287.921,1287.921,1287.925,,,,0,42,42,42,1,120,35,,,,,,,,
,,5f2ef7740f87702b99055397,65af542fcbfd19b26dc0c3b9,2024-01-22_23h53.41.145,bars,2023.2.3,MacIntel,59.80861244,657b66ea316d21385b68909f,,,,,,,,,,,1287.926,1288.92,,,1289.42,1289.67,,157,-23,,,,,,,,,,,,,,,,bars/046.png,bars/mask002.png,,,,,,,,,,,,7,1,,,,,,,8,10,8,10,,,,,,,,,,,1288.92,1289.42,1289.67,1295.833,space,6.145,,1295.833,2,72,1296.832,1296.832,1296.841,,,,0,43,43,43,1,155,85,,,,,,,,
,,5f2ef7740f87702b99055397,65af542fcbfd19b26dc0c3b9,2024-01-22_23h53.41.145,bars,2023.2.3,MacIntel,59.80861244,657b66ea316d21385b68909f,,,,,,,,,,,1296.842,1297.831,,,1298.331,1298.581,,161,161,,,,,,,,,,,,,,,,bars/044.png,bars/mask001.png,,,,,,,,,,,,7,2,,,,,,,6,8,6,9,,,,,,,,,,,1297.831,1298.331,1298.581,1305.926,space,7.323,,1305.926,86,6,1306.925,1306.925,1306.931,,,,0,44,44,44,1,75,155,,,,,,,,
,,5f2ef7740f87702b99055397,65af542fcbfd19b26dc0c3b9,2024-01-22_23h53.41.145,bars,2023.2.3,MacIntel,59.80861244,657b66ea316d21385b68909f,,,,,,,,,,,1306.932,1307.923,,,1308.424,1308.674,,14,14,,,,,,,,,,,,,,,,bars/007.png,bars/mask004.png,,,,,,,,,,,,1,1,,,,,,,4,6,3,7,,,,,,,,,,,1307.923,1308.424,1308.674,1313.819,space,5.132,,1313.819,19,41,1314.82,1314.82,1314.826,,,,0,45,45,45,1,175,55,,,,,,,,
,,5f2ef7740f87702b99055397,65af542fcbfd19b26dc0c3b9,2024-01-22_23h53.41.145,bars,2023.2.3,MacIntel,59.80861244,657b66ea316d21385b68909f,,,,,,,,,,,1314.827,1315.819,,,1316.319,1316.569,,18,18,,,,,,,,,,,,,,,,bars/028.png,bars/mask000.png,,,,,,,,,,,,0,1,,,,,,,6,4,5,4,,,,,,,,,,,1315.819,1316.319,1316.569,1324.263,space,7.679,,1324.263,27,78,1325.264,1325.265,1325.27,,,,0,46,46,46,1,45,120,,,,,,,,
,,5f2ef7740f87702b99055397,65af542fcbfd19b26dc0c3b9,2024-01-22_23h53.41.145,bars,2023.2.3,MacIntel,59.80861244,657b66ea316d21385b68909f,,,,,,,,,,,1325.271,1326.262,,,1326.761,1327.012,,55,55,,,,,,,,,,,,,,,,bars/019.png,bars/mask005.png,,,,,,,,,,,,5,1,,,,,,,8,2,7,1,,,,,,,,,,,1326.262,1326.761,1327.012,1328.777,space,1.75,,1328.777,10,50,1329.776,1329.776,1329.78,,,,0,47,47,47,1,45,105,,,,,,,,
,,5f2ef7740f87702b99055397,65af542fcbfd19b26dc0c3b9,2024-01-22_23h53.41.145,bars,2023.2.3,MacIntel,59.80861244,657b66ea316d21385b68909f,,,,,,,,,,,1329.781,1330.775,,,1331.275,1331.525,,155,-25,,,,,,,,,,,,,,,,bars/024.png,bars/mask002.png,,,,,,,,,,,,2,2,,,,,,,6,4,6,4,,,,,,,,,,,1330.775,1331.275,1331.525,1340.07,space,8.532,,1340.07,35,15,1341.068,1341.068,1341.074,,,,0,48,48,48,1,120,170,,,,,,,,
,,5f2ef7740f87702b99055397,65af542fcbfd19b26dc0c3b9,2024-01-22_23h53.41.145,bars,2023.2.3,MacIntel,59.80861244,657b66ea316d21385b68909f,,,,,,,,,,,1341.074,1342.068,,,1342.568,1342.819,,168,-12,,,,,,,,,,,,,,,,bars/049.png,bars/mask005.png,,,,,,,,,,,,3,1,,,,,,,4,6,4,5,,,,,,,,,,,1342.068,1342.568,1342.819,1350.146,space,7.313,,1350.146,8,53,1351.145,1351.145,1351.151,,,,0,49,49,49,1,160,115,,,,,,,,
,,5f2ef7740f87702b99055397,65af542fcbfd19b26dc0c3b9,2024-01-22_23h53.41.145,bars,2023.2.3,MacIntel,59.80861244,657b66ea316d21385b68909f,,,,,,,,,,,,,,,,,,,,,,,,,,,,,,,,,,,,,,,,,,,,,,,,,,,,,,,,,,,,,,,,,,,,,,,,,,,,,,,,,,,,,,,,,,,,,1351.151,1411.14,0,1,1,3,1,sequence_tables/blk033.csv
,,5f2ef7740f87702b99055397,65af542fcbfd19b26dc0c3b9,2024-01-22_23h53.41.145,bars,2023.2.3,MacIntel,59.80861244,657b66ea316d21385b68909f,,,,,,,,,,,1513.165,1514.156,,,1514.655,1514.904,,153,153,,,,,,,,,,,,,,,,bars/038.png,bars/mask001.png,,,,,,,,,,,,2,1,,,,,,,3,6,4,7,,,,,,1411.145,1513.155,space,101.994,,1514.157,1514.655,1514.905,1516.336,space,1.421,,1516.336,12,83,1517.335,1517.335,1517.339,,,,0,0,0,0,1,165,70,,,,,,,,
,,5f2ef7740f87702b99055397,65af542fcbfd19b26dc0c3b9,2024-01-22_23h53.41.145,bars,2023.2.3,MacIntel,59.80861244,657b66ea316d21385b68909f,,,,,,,,,,,1517.341,1518.335,,,1518.834,1519.084,,59,59,,,,,,,,,,,,,,,,bars/042.png,bars/mask005.png,,,,,,,,,,,,3,2,,,,,,,5,8,3,7,,,,,,,,,,,1518.335,1518.834,1519.085,1521.284,space,2.189,,1521.284,86,16,1522.282,1522.282,1522.288,,,,0,1,1,1,1,145,75,,,,,,,,
,,5f2ef7740f87702b99055397,65af542fcbfd19b26dc0c3b9,2024-01-22_23h53.41.145,bars,2023.2.3,MacIntel,59.80861244,657b66ea316d21385b68909f,,,,,,,,,,,1522.289,1523.281,,,1523.781,1524.031,,22,22,,,,,,,,,,,,,,,,bars/014.png,bars/mask007.png,,,,,,,,,,,,3,2,,,,,,,7,10,8,10,,,,,,,,,,,1523.281,1523.781,1524.031,1528.061,space,4.016,,1528.061,58,22,1529.061,1529.061,1529.064,,,,0,2,2,2,1,80,0,,,,,,,,
,,5f2ef7740f87702b99055397,65af542fcbfd19b26dc0c3b9,2024-01-22_23h53.41.145,bars,2023.2.3,MacIntel,59.80861244,657b66ea316d21385b68909f,,,,,,,,,,,1529.064,1530.061,,,1530.56,1530.81,,148,148,,,,,,,,,,,,,,,,bars/049.png,bars/mask003.png,,,,,,,,,,,,3,1,,,,,,,5,10,5,10,,,,,,,,,,,1530.061,1530.56,1530.81,1533.924,space,3.101,,1533.924,12,33,1534.925,1534.925,1534.931,,,,0,3,3,3,1,160,115,,,,,,,,
,,5f2ef7740f87702b99055397,65af542fcbfd19b26dc0c3b9,2024-01-22_23h53.41.145,bars,2023.2.3,MacIntel,59.80861244,657b66ea316d21385b68909f,,,,,,,,,,,1534.931,1535.924,,,1536.423,1536.673,,135,135,,,,,,,,,,,,,,,,bars/008.png,bars/mask008.png,,,,,,,,,,,,0,1,,,,,,,3,10,2,8,,,,,,,,,,,1535.924,1536.423,1536.673,1538.354,space,1.674,,1538.354,25,45,1539.355,1539.355,1539.358,,,,0,4,4,4,1,110,0,,,,,,,,
,,5f2ef7740f87702b99055397,65af542fcbfd19b26dc0c3b9,2024-01-22_23h53.41.145,bars,2023.2.3,MacIntel,59.80861244,657b66ea316d21385b68909f,,,,,,,,,,,1539.359,1540.354,,,1540.852,1541.103,,14,14,,,,,,,,,,,,,,,,bars/007.png,bars/mask004.png,,,,,,,,,,,,0,1,,,,,,,1,10,1,9,,,,,,,,,,,1540.354,1540.852,1541.104,1541.686,space,0.569,,1541.686,19,41,1542.686,1542.686,1542.687,,,,0,5,5,5,1,175,55,,,,,,,,
,,5f2ef7740f87702b99055397,65af542fcbfd19b26dc0c3b9,2024-01-22_23h53.41.145,bars,2023.2.3,MacIntel,59.80861244,657b66ea316d21385b68909f,,,,,,,,,,,1542.688,1543.686,,,1544.185,1544.434,,161,-19,,,,,,,,,,,,,,,,bars/044.png,bars/mask000.png,,,,,,,,,,,,8,2,,,,,,,3,10,1,10,,,,,,,,,,,1543.687,1544.185,1544.434,1549.581,space,5.13,,1549.581,86,6,1550.58,1550.58,1550.587,,,,0,6,6,6,1,75,155,,,,,,,,
,,5f2ef7740f87702b99055397,65af542fcbfd19b26dc0c3b9,2024-01-22_23h53.41.145,bars,2023.2.3,MacIntel,59.80861244,657b66ea316d21385b68909f,,,,,,,,,,,1550.587,1551.579,,,1552.078,1552.329,,5,5,,,,,,,,,,,,,,,,bars/018.png,bars/mask007.png,,,,,,,,,,,,0,1,,,,,,,5,10,5,10,,,,,,,,,,,1551.58,1552.078,1552.329,1554.495,space,2.15,,1554.495,35,85,1555.493,1555.494,1555.501,,,,0,7,7,7,1,150,90,,,,,,,,
,,5f2ef7740f87702b99055397,65af542fcbfd19b26dc0c3b9,2024-01-22_23h53.41.145,bars,2023.2.3,MacIntel,59.80861244,657b66ea316d21385b68909f,,,,,,,,,,,1555.502,1556.492,,,1556.994,1557.243,,169,-11,,,,,,,,,,,,,,,,bars/038.png,bars/mask000.png,,,,,,,,,,,,6,1,,,,,,,7,8,7,9,,,,,,,,,,,1556.492,1556.994,1557.243,1560.076,space,2.821,,1560.076,4,81,1561.073,1561.073,1561.077,,,,0,8,8,8,1,165,70,,,,,,,,
,,5f2ef7740f87702b99055397,65af542fcbfd19b26dc0c3b9,2024-01-22_23h53.41.145,bars,2023.2.3,MacIntel,59.80861244,657b66ea316d21385b68909f,,,,,,,,,,,1561.078,1562.073,,,1562.572,1562.823,,7,187,,,,,,,,,,,,,,,,bars/023.png,bars/mask008.png,,,,,,,,,,,,4,1,,,,,,,5,6,7,5,,,,,,,,,,,1562.073,1562.572,1562.823,1565.62,space,2.783,,1565.62,13,72,1566.618,1566.618,1566.622,,,,0,9,9,9,1,20,115,,,,,,,,
,,5f2ef7740f87702b99055397,65af542fcbfd19b26dc0c3b9,2024-01-22_23h53.41.145,bars,2023.2.3,MacIntel,59.80861244,657b66ea316d21385b68909f,,,,,,,,,,,1566.622,1567.619,,,1568.118,1568.369,,158,158,,,,,,,,,,,,,,,,bars/020.png,bars/mask004.png,,,,,,,,,,,,6,2,,,,,,,7,8,7,10,,,,,,,,,,,1567.619,1568.118,1568.369,1573.714,space,5.333,,1573.715,43,12,1574.716,1574.716,1574.725,,,,0,10,10,10,1,115,170,,,,,,,,
,,5f2ef7740f87702b99055397,65af542fcbfd19b26dc0c3b9,2024-01-22_23h53.41.145,bars,2023.2.3,MacIntel,59.80861244,657b66ea316d21385b68909f,,,,,,,,,,,1574.726,1575.73,,,1576.229,1576.481,,8,8,,,,,,,,,,,,,,,,bars/023.png,bars/mask000.png,,,,,,,,,,,,5,1,,,,,,,9,10,8,9,,,,,,,,,,,1575.73,1576.229,1576.481,1577.563,space,1.065,,1577.563,12,73,1578.561,1578.561,1578.566,,,,0,11,11,11,1,20,115,,,,,,,,
,,5f2ef7740f87702b99055397,65af542fcbfd19b26dc0c3b9,2024-01-22_23h53.41.145,bars,2023.2.3,MacIntel,59.80861244,657b66ea316d21385b68909f,,,,,,,,,,,1578.566,1579.56,,,1580.06,1580.31,,10,10,,,,,,,,,,,,,,,,bars/043.png,bars/mask008.png,,,,,,,,,,,,3,1,,,,,,,10,10,9,10,,,,,,,,,,,1579.56,1580.06,1580.31,1583.724,space,3.399,,1583.725,20,60,1584.724,1584.724,1584.729,,,,0,12,12,12,1,30,130,,,,,,,,
,,5f2ef7740f87702b99055397,65af542fcbfd19b26dc0c3b9,2024-01-22_23h53.41.145,bars,2023.2.3,MacIntel,59.80861244,657b66ea316d21385b68909f,,,,,,,,,,,1584.73,1585.724,,,1586.223,1586.473,,14,14,,,,,,,,,,,,,,,,bars/039.png,bars/mask005.png,,,,,,,,,,,,3,1,,,,,,,8,8,8,8,,,,,,,,,,,1585.724,1586.223,1586.473,1588.655,space,2.16,,1588.655,19,89,1589.654,1589.654,1589.657,,,,0,13,13,13,1,175,105,,,,,,,,
,,5f2ef7740f87702b99055397,65af542fcbfd19b26dc0c3b9,2024-01-22_23h53.41.145,bars,2023.2.3,MacIntel,59.80861244,657b66ea316d21385b68909f,,,,,,,,,,,1589.658,1590.654,,,1591.154,1591.402,,27,27,,,,,,,,,,,,,,,,bars/004.png,bars/mask006.png,,,,,,,,,,,,9,1,,,,,,,10,10,10,10,,,,,,,,,,,1590.654,1591.154,1591.402,1592.47,space,1.056,,1592.47,2,82,1593.468,1593.469,1593.472,,,,0,14,14,14,1,25,125,,,,,,,,
,,5f2ef7740f87702b99055397,65af542fcbfd19b26dc0c3b9,2024-01-22_23h53.41.145,bars,2023.2.3,MacIntel,59.80861244,657b66ea316d21385b68909f,,,,,,,,,,,1593.473,1594.468,,,1594.968,1595.217,,136,136,,,,,,,,,,,,,,,,bars/045.png,bars/mask001.png,,,,,,,,,,,,0,1,,,,,,,8,10,6,10,,,,,,,,,,,1594.468,1594.968,1595.217,1599.713,space,4.484,,1599.713,36,54,1600.713,1600.713,1600.716,,,,0,15,15,15,1,100,10,,,,,,,,
,,5f2ef7740f87702b99055397,65af542fcbfd19b26dc0c3b9,2024-01-22_23h53.41.145,bars,2023.2.3,MacIntel,59.80861244,657b66ea316d21385b68909f,,,,,,,,,,,1600.716,1601.712,,,1602.212,1602.462,,19,19,,,,,,,,,,,,,,,,bars/012.png,bars/mask009.png,,,,,,,,,,,,8,2,,,,,,,10,10,10,9,,,,,,,,,,,1601.712,1602.212,1602.462,1603.461,space,0.986,,1603.461,71,4,1604.461,1604.461,1604.465,,,,0,16,16,16,1,90,15,,,,,,,,
,,5f2ef7740f87702b99055397,65af542fcbfd19b26dc0c3b9,2024-01-22_23h53.41.145,bars,2023.2.3,MacIntel,59.80861244,657b66ea316d21385b68909f,,,,,,,,,,,1604.466,1605.463,,,1605.961,1606.21,,90,90,,,,,,,,,,,,,,,,bars/042.png,bars/mask004.png,,,,,,,,,,,,5,2,,,,,,,10,10,10,10,,,,,,,,,,,1605.463,1605.961,1606.21,1612.872,space,6.649,,1612.872,55,15,1613.871,1613.871,1613.875,,,,0,17,17,17,1,145,75,,,,,,,,
,,5f2ef7740f87702b99055397,65af542fcbfd19b26dc0c3b9,2024-01-22_23h53.41.145,bars,2023.2.3,MacIntel,59.80861244,657b66ea316d21385b68909f,,,,,,,,,,,1613.876,1614.871,,,1615.37,1615.621,,64,64,,,,,,,,,,,,,,,,bars/021.png,bars/mask000.png,,,,,,,,,,,,8,2,,,,,,,10,10,9,10,,,,,,,,,,,1614.872,1615.37,1615.621,1617.386,space,1.748,,1617.386,89,6,1618.385,1618.385,1618.389,,,,0,18,18,18,1,155,70,,,,,,,,
,,5f2ef7740f87702b99055397,65af542fcbfd19b26dc0c3b9,2024-01-22_23h53.41.145,bars,2023.2.3,MacIntel,59.80861244,657b66ea316d21385b68909f,,,,,,,,,,,1618.389,1619.385,,,1619.884,1620.134,,43,43,,,,,,,,,,,,,,,,bars/014.png,bars/mask001.png,,,,,,,,,,,,0,1,,,,,,,8,8,10,8,,,,,,,,,,,1619.385,1619.884,1620.134,1620.9,space,0.749,,1620.9,37,43,1621.9,1621.9,1621.905,,,,0,19,19,19,1,80,0,,,,,,,,
,,5f2ef7740f87702b99055397,65af542fcbfd19b26dc0c3b9,2024-01-22_23h53.41.145,bars,2023.2.3,MacIntel,59.80861244,657b66ea316d21385b68909f,,,,,,,,,,,1621.905,1622.899,,,1623.398,1623.648,,30,30,,,,,,,,,,,,,,,,bars/005.png,bars/mask003.png,,,,,,,,,,,,3,1,,,,,,,10,6,10,5,,,,,,,,,,,1622.899,1623.398,1623.648,1627.079,space,3.415,,1627.079,20,70,1628.079,1628.079,1628.082,,,,0,20,20,20,1,10,140,,,,,,,,
,,5f2ef7740f87702b99055397,65af542fcbfd19b26dc0c3b9,2024-01-22_23h53.41.145,bars,2023.2.3,MacIntel,59.80861244,657b66ea316d21385b68909f,,,,,,,,,,,1628.082,1629.078,,,1629.579,1629.828,,70,70,,,,,,,,,,,,,,,,bars/006.png,bars/mask008.png,,,,,,,,,,,,0,2,,,,,,,10,4,10,5,,,,,,,,,,,1629.078,1629.579,1629.828,1631.159,space,1.322,,1631.159,35,30,1632.158,1632.158,1632.164,,,,0,21,21,21,1,35,100,,,,,,,,
,,5f2ef7740f87702b99055397,65af542fcbfd19b26dc0c3b9,2024-01-22_23h53.41.145,bars,2023.2.3,MacIntel,59.80861244,657b66ea316d21385b68909f,,,,,,,,,,,1632.164,1633.159,,,1633.658,1633.909,,63,63,,,,,,,,,,,,,,,,bars/042.png,bars/mask003.png,,,,,,,,,,,,0,2,,,,,,,8,2,9,0,,,,,,,,,,,1633.159,1633.658,1633.909,1639.506,space,5.582,,1639.506,82,12,1640.502,1640.502,1640.505,,,,0,22,22,22,1,145,75,,,,,,,,
,,5f2ef7740f87702b99055397,65af542fcbfd19b26dc0c3b9,2024-01-22_23h53.41.145,bars,2023.2.3,MacIntel,59.80861244,657b66ea316d21385b68909f,,,,,,,,,,,1640.506,1641.504,,,1642.004,1642.244,,75,75,,,,,,,,,,,,,,,,bars/013.png,bars/mask005.png,,,,,,,,,,,,6,1,,,,,,,6,4,6,3,,,,,,,,,,,1641.504,1642.003,1642.244,1646.1,space,3.839,,1646.101,0,65,1647.1,1647.1,1647.106,,,,0,23,23,23,1,75,10,,,,,,,,
,,5f2ef7740f87702b99055397,65af542fcbfd19b26dc0c3b9,2024-01-22_23h53.41.145,bars,2023.2.3,MacIntel,59.80861244,657b66ea316d21385b68909f,,,,,,,,,,,1647.107,1648.098,,,1648.599,1648.847,,92,92,,,,,,,,,,,,,,,,bars/044.png,bars/mask008.png,,,,,,,,,,,,3,1,,,,,,,8,6,8,6,,,,,,,,,,,1648.099,1648.599,1648.847,1654.294,space,5.434,,1654.294,17,63,1655.293,1655.293,1655.298,,,,0,24,24,24,1,75,155,,,,,,,,
,,5f2ef7740f87702b99055397,65af542fcbfd19b26dc0c3b9,2024-01-22_23h53.41.145,bars,2023.2.3,MacIntel,59.80861244,657b66ea316d21385b68909f,,,,,,,,,,,1655.298,1656.294,,,1656.793,1657.042,,96,96,,,,,,,,,,,,,,,,bars/039.png,bars/mask001.png,,,,,,,,,,,,4,2,,,,,,,10,4,10,5,,,,,,,,,,,1656.294,1656.793,1657.043,1665.004,space,7.946,,1665.004,79,9,1666.005,1666.007,1666.015,,,,0,25,25,25,1,175,105,,,,,,,,
,,5f2ef7740f87702b99055397,65af542fcbfd19b26dc0c3b9,2024-01-22_23h53.41.145,bars,2023.2.3,MacIntel,59.80861244,657b66ea316d21385b68909f,,,,,,,,,,,1666.016,1667.021,,,1667.52,1667.769,,64,64,,,,,,,,,,,,,,,,bars/044.png,bars/mask008.png,,,,,,,,,,,,6,1,,,,,,,10,2,10,2,,,,,,,,,,,1667.021,1667.52,1667.769,1670.218,space,2.433,,1670.218,11,89,1671.216,1671.218,1671.226,,,,0,26,26,26,1,75,155,,,,,,,,
,,5f2ef7740f87702b99055397,65af542fcbfd19b26dc0c3b9,2024-01-22_23h53.41.145,bars,2023.2.3,MacIntel,59.80861244,657b66ea316d21385b68909f,,,,,,,,,,,1671.226,1672.216,,,1672.715,1672.965,,84,84,,,,,,,,,,,,,,,,bars/029.png,bars/mask004.png,,,,,,,,,,,,6,1,,,,,,,8,4,7,4,,,,,,,,,,,1672.216,1672.715,1672.965,1680.045,space,7.063,,1680.045,6,39,1681.045,1681.046,1681.05,,,,0,27,27,27,1,90,45,,,,,,,,
,,5f2ef7740f87702b99055397,65af542fcbfd19b26dc0c3b9,2024-01-22_23h53.41.145,bars,2023.2.3,MacIntel,59.80861244,657b66ea316d21385b68909f,,,,,,,,,,,1681.051,1682.044,,,1682.542,1682.794,,62,62,,,,,,,,,,,,,,,,bars/029.png,bars/mask000.png,,,,,,,,,,,,3,2,,,,,,,6,6,4,7,,,,,,,,,,,1682.044,1682.542,1682.794,1685.407,space,2.601,,1685.407,28,17,1686.407,1686.407,1686.411,,,,0,28,28,28,1,90,45,,,,,,,,
,,5f2ef7740f87702b99055397,65af542fcbfd19b26dc0c3b9,2024-01-22_23h53.41.145,bars,2023.2.3,MacIntel,59.80861244,657b66ea316d21385b68909f,,,,,,,,,,,1686.412,1687.405,,,1687.905,1688.155,,10,10,,,,,,,,,,,,,,,,bars/014.png,bars/mask004.png,,,,,,,,,,,,3,2,,,,,,,4,4,3,4,,,,,,,,,,,1687.405,1687.905,1688.155,1696.551,space,8.379,,1696.552,70,10,1697.549,1697.549,1697.557,,,,0,29,29,29,1,80,0,,,,,,,,
,,5f2ef7740f87702b99055397,65af542fcbfd19b26dc0c3b9,2024-01-22_23h53.41.145,bars,2023.2.3,MacIntel,59.80861244,657b66ea316d21385b68909f,,,,,,,,,,,1697.558,1698.548,,,1699.048,1699.298,,2,2,,,,,,,,,,,,,,,,bars/044.png,bars/mask001.png,,,,,,,,,,,,0,2,,,,,,,6,2,6,3,,,,,,,,,,,1698.548,1699.048,1699.298,1703.995,space,4.683,,1703.996,73,27,1704.995,1704.995,1704.999,,,,0,30,30,30,1,75,155,,,,,,,,
,,5f2ef7740f87702b99055397,65af542fcbfd19b26dc0c3b9,2024-01-22_23h53.41.145,bars,2023.2.3,MacIntel,59.80861244,657b66ea316d21385b68909f,,,,,,,,,,,1705,1705.993,,,1706.494,1706.744,,143,143,,,,,,,,,,,,,,,,bars/043.png,bars/mask000.png,,,,,,,,,,,,0,2,,,,,,,4,0,5,0,,,,,,,,,,,1705.993,1706.494,1706.744,1711.673,space,4.915,,1711.673,67,13,1712.673,1712.673,1712.676,,,,0,31,31,31,1,30,130,,,,,,,,
,,5f2ef7740f87702b99055397,65af542fcbfd19b26dc0c3b9,2024-01-22_23h53.41.145,bars,2023.2.3,MacIntel,59.80861244,657b66ea316d21385b68909f,,,,,,,,,,,1712.677,1713.673,,,1714.172,1714.422,,27,27,,,,,,,,,,,,,,,,bars/007.png,bars/mask001.png,,,,,,,,,,,,0,2,,,,,,,6,2,6,2,,,,,,,,,,,1713.673,1714.172,1714.422,1715.587,space,1.15,,1715.587,32,28,1716.586,1716.586,1716.589,,,,0,32,32,32,1,175,55,,,,,,,,
,,5f2ef7740f87702b99055397,65af542fcbfd19b26dc0c3b9,2024-01-22_23h53.41.145,bars,2023.2.3,MacIntel,59.80861244,657b66ea316d21385b68909f,,,,,,,,,,,1716.59,1717.585,,,1718.086,1718.336,,47,47,,,,,,,,,,,,,,,,bars/036.png,bars/mask004.png,,,,,,,,,,,,0,2,,,,,,,8,4,10,5,,,,,,,,,,,1717.585,1718.086,1718.336,1719.534,space,1.184,,1719.534,82,27,1720.534,1720.534,1720.537,,,,0,33,33,33,1,145,20,,,,,,,,
,,5f2ef7740f87702b99055397,65af542fcbfd19b26dc0c3b9,2024-01-22_23h53.41.145,bars,2023.2.3,MacIntel,59.80861244,657b66ea316d21385b68909f,,,,,,,,,,,1720.537,1721.535,,,1722.032,1722.283,,55,55,,,,,,,,,,,,,,,,bars/030.png,bars/mask000.png,,,,,,,,,,,,3,2,,,,,,,10,6,8,5,,,,,,,,,,,1721.535,1722.032,1722.283,1724.731,space,2.437,,1724.731,85,10,1725.731,1725.731,1725.734,,,,0,34,34,34,1,140,65,,,,,,,,
,,5f2ef7740f87702b99055397,65af542fcbfd19b26dc0c3b9,2024-01-22_23h53.41.145,bars,2023.2.3,MacIntel,59.80861244,657b66ea316d21385b68909f,,,,,,,,,,,1725.735,1726.732,,,1727.23,1727.48,,67,67,,,,,,,,,,,,,,,,bars/042.png,bars/mask000.png,,,,,,,,,,,,6,2,,,,,,,10,8,10,8,,,,,,,,,,,1726.732,1727.23,1727.48,1732.543,space,5.047,,1732.543,78,8,1733.541,1733.542,1733.545,,,,0,35,35,35,1,145,75,,,,,,,,
,,5f2ef7740f87702b99055397,65af542fcbfd19b26dc0c3b9,2024-01-22_23h53.41.145,bars,2023.2.3,MacIntel,59.80861244,657b66ea316d21385b68909f,,,,,,,,,,,1733.545,1734.541,,,1735.042,1735.291,,41,41,,,,,,,,,,,,,,,,bars/040.png,bars/mask005.png,,,,,,,,,,,,0,2,,,,,,,8,10,8,10,,,,,,,,,,,1734.541,1735.041,1735.291,1738.372,space,3.063,,1738.372,81,36,1739.372,1739.372,1739.376,,,,0,36,36,36,1,140,5,,,,,,,,
,,5f2ef7740f87702b99055397,65af542fcbfd19b26dc0c3b9,2024-01-22_23h53.41.145,bars,2023.2.3,MacIntel,59.80861244,657b66ea316d21385b68909f,,,,,,,,,,,1739.377,1740.371,,,1740.871,1741.121,,176,176,,,,,,,,,,,,,,,,bars/005.png,bars/mask002.png,,,,,,,,,,,,3,1,,,,,,,6,10,5,9,,,,,,,,,,,1740.371,1740.871,1741.121,1742.803,space,1.664,,1742.803,14,36,1743.802,1743.802,1743.808,,,,0,37,37,37,1,10,140,,,,,,,,
,,5f2ef7740f87702b99055397,65af542fcbfd19b26dc0c3b9,2024-01-22_23h53.41.145,bars,2023.2.3,MacIntel,59.80861244,657b66ea316d21385b68909f,,,,,,,,,,,1743.809,1744.801,,,1745.301,1745.551,,63,63,,,,,,,,,,,,,,,,bars/019.png,bars/mask007.png,,,,,,,,,,,,2,1,,,,,,,4,8,4,8,,,,,,,,,,,1744.801,1745.301,1745.551,1748.383,space,2.825,,1748.383,18,42,1749.381,1749.381,1749.385,,,,0,38,38,38,1,45,105,,,,,,,,
,,5f2ef7740f87702b99055397,65af542fcbfd19b26dc0c3b9,2024-01-22_23h53.41.145,bars,2023.2.3,MacIntel,59.80861244,657b66ea316d21385b68909f,,,,,,,,,,,1749.385,1750.381,,,1750.88,1751.13,,113,113,,,,,,,,,,,,,,,,bars/024.png,bars/mask008.png,,,,,,,,,,,,2,1,,,,,,,2,6,2,5,,,,,,,,,,,1750.381,1750.88,1751.13,1758.627,space,7.483,,1758.628,7,57,1759.625,1759.625,1759.632,,,,0,39,39,39,1,120,170,,,,,,,,
,,5f2ef7740f87702b99055397,65af542fcbfd19b26dc0c3b9,2024-01-22_23h53.41.145,bars,2023.2.3,MacIntel,59.80861244,657b66ea316d21385b68909f,,,,,,,,,,,1759.633,1760.624,,,1761.125,1761.373,,72,72,,,,,,,,,,,,,,,,bars/029.png,bars/mask003.png,,,,,,,,,,,,2,1,,,,,,,4,8,5,7,,,,,,,,,,,1760.624,1761.125,1761.373,1767.154,space,5.762,,1767.154,18,27,1768.152,1768.152,1768.155,,,,0,40,40,40,1,90,45,,,,,,,,
,,5f2ef7740f87702b99055397,65af542fcbfd19b26dc0c3b9,2024-01-22_23h53.41.145,bars,2023.2.3,MacIntel,59.80861244,657b66ea316d21385b68909f,,,,,,,,,,,1768.156,1769.152,,,1769.652,1769.902,,70,70,,,,,,,,,,,,,,,,bars/011.png,bars/mask006.png,,,,,,,,,,,,3,2,,,,,,,2,6,2,5,,,,,,,,,,,1769.152,1769.652,1769.902,1773.266,space,3.348,,1773.267,90,15,1774.265,1774.265,1774.269,,,,0,41,41,41,1,160,85,,,,,,,,
,,5f2ef7740f87702b99055397,65af542fcbfd19b26dc0c3b9,2024-01-22_23h53.41.145,bars,2023.2.3,MacIntel,59.80861244,657b66ea316d21385b68909f,,,,,,,,,,,1774.269,1775.265,,,1775.765,1776.013,,61,61,,,,,,,,,,,,,,,,bars/048.png,bars/mask005.png,,,,,,,,,,,,0,1,,,,,,,0,4,0,3,,,,,,,,,,,1775.265,1775.765,1776.013,1782.826,space,6.798,,1782.826,11,66,1783.826,1783.826,1783.831,,,,0,42,42,42,1,50,175,,,,,,,,
,,5f2ef7740f87702b99055397,65af542fcbfd19b26dc0c3b9,2024-01-22_23h53.41.145,bars,2023.2.3,MacIntel,59.80861244,657b66ea316d21385b68909f,,,,,,,,,,,1783.831,1784.825,,,1785.323,1785.574,,161,161,,,,,,,,,,,,,,,,bars/017.png,bars/mask006.png,,,,,,,,,,,,0,1,,,,,,,2,2,1,3,,,,,,,,,,,1784.825,1785.323,1785.574,1788.256,space,2.665,,1788.257,16,64,1789.255,1789.255,1789.261,,,,0,43,43,43,1,145,45,,,,,,,,
,,5f2ef7740f87702b99055397,65af542fcbfd19b26dc0c3b9,2024-01-22_23h53.41.145,bars,2023.2.3,MacIntel,59.80861244,657b66ea316d21385b68909f,,,,,,,,,,,1789.261,1790.254,,,1790.755,1791.005,,71,251,,,,,,,,,,,,,,,,bars/038.png,bars/mask004.png,,,,,,,,,,,,4,2,,,,,,,4,4,5,4,,,,,,,,,,,1790.255,1790.755,1791.005,1797.367,space,6.349,,1797.368,86,1,1798.366,1798.366,1798.372,,,,0,44,44,44,1,165,70,,,,,,,,
,,5f2ef7740f87702b99055397,65af542fcbfd19b26dc0c3b9,2024-01-22_23h53.41.145,bars,2023.2.3,MacIntel,59.80861244,657b66ea316d21385b68909f,,,,,,,,,,,1798.373,1799.364,,,1799.865,1800.115,,13,193,,,,,,,,,,,,,,,,bars/017.png,bars/mask004.png,,,,,,,,,,,,0,2,,,,,,,6,2,5,2,,,,,,,,,,,1799.364,1799.864,1800.115,1802.398,space,2.274,,1802.398,48,32,1803.396,1803.396,1803.401,,,,0,45,45,45,1,145,45,,,,,,,,
,,5f2ef7740f87702b99055397,65af542fcbfd19b26dc0c3b9,2024-01-22_23h53.41.145,bars,2023.2.3,MacIntel,59.80861244,657b66ea316d21385b68909f,,,,,,,,,,,1803.402,1804.395,,,1804.895,1805.145,,81,81,,,,,,,,,,,,,,,,bars/043.png,bars/mask006.png,,,,,,,,,,,,0,2,,,,,,,4,4,5,2,,,,,,,,,,,1804.395,1804.895,1805.145,1812.656,space,7.495,,1812.656,51,49,1813.656,1813.656,1813.659,,,,0,46,46,46,1,30,130,,,,,,,,
,,5f2ef7740f87702b99055397,65af542fcbfd19b26dc0c3b9,2024-01-22_23h53.41.145,bars,2023.2.3,MacIntel,59.80861244,657b66ea316d21385b68909f,,,,,,,,,,,1813.659,1814.655,,,1815.155,1815.404,,10,190,,,,,,,,,,,,,,,,bars/009.png,bars/mask006.png,,,,,,,,,,,,6,1,,,,,,,6,2,7,2,,,,,,,,,,,1814.655,1815.155,1815.404,1817.836,space,2.415,,1817.836,5,85,1818.835,1818.835,1818.842,,,,0,47,47,47,1,15,105,,,,,,,,
,,5f2ef7740f87702b99055397,65af542fcbfd19b26dc0c3b9,2024-01-22_23h53.41.145,bars,2023.2.3,MacIntel,59.80861244,657b66ea316d21385b68909f,,,,,,,,,,,1818.842,1819.836,,,1820.335,1820.585,,19,199,,,,,,,,,,,,,,,,bars/033.png,bars/mask009.png,,,,,,,,,,,,2,1,,,,,,,4,4,3,3,,,,,,,,,,,1819.836,1820.334,1820.585,1826.73,space,6.135,,1826.73,6,44,1827.73,1827.73,1827.733,,,,0,48,48,48,1,25,155,,,,,,,,
,,5f2ef7740f87702b99055397,65af542fcbfd19b26dc0c3b9,2024-01-22_23h53.41.145,bars,2023.2.3,MacIntel,59.80861244,657b66ea316d21385b68909f,,,,,,,,,,,1827.734,1828.73,,,1829.229,1829.479,,158,-22,,,,,,,,,,,,,,,,bars/017.png,bars/mask008.png,,,,,,,,,,,,1,1,,,,,,,2,2,1,2,,,,,,,,,,,1828.73,1829.229,1829.479,1835.093,space,5.597,,1835.093,13,67,1836.092,1836.092,1836.098,,,,0,49,49,49,1,145,45,,,,,,,,
,,5f2ef7740f87702b99055397,65af542fcbfd19b26dc0c3b9,2024-01-22_23h53.41.145,bars,2023.2.3,MacIntel,59.80861244,657b66ea316d21385b68909f,,,,,,,,,,,,,,,,,,,,,,,,,,,,,,,,,,,,,,,,,,,,,,,,,,,,,,,,,,,,,,,,,,,,,,,,,,,,,,,,,,,,,,,,,,,,,1836.098,1893.236,0,2,2,2,1,sequence_tables/blk020.csv
,,5f2ef7740f87702b99055397,65af542fcbfd19b26dc0c3b9,2024-01-22_23h53.41.145,bars,2023.2.3,MacIntel,59.80861244,657b66ea316d21385b68909f,,,,,,,,,,,2048.096,2049.099,,,2049.599,2049.849,,144,144,,,,,,,,,,,,,,,,bars/038.png,bars/mask000.png,,,,,,,,,,,,0,1,,,,,,,2,7,0,6,,,,,,1893.24,2048.085,space,154.816,,2049.1,2049.599,2049.849,2052.23,space,2.365,,2052.23,21,74,2053.229,2053.23,2053.235,,,,0,0,0,0,1,165,70,,,,,,,,
,,5f2ef7740f87702b99055397,65af542fcbfd19b26dc0c3b9,2024-01-22_23h53.41.145,bars,2023.2.3,MacIntel,59.80861244,657b66ea316d21385b68909f,,,,,,,,,,,2053.235,2054.229,,,2054.73,2054.978,,178,178,,,,,,,,,,,,,,,,bars/049.png,bars/mask005.png,,,,,,,,,,,,0,1,,,,,,,0,9,1,10,,,,,,,,,,,2054.229,2054.73,2054.979,2062.24,space,7.251,,2062.241,18,63,2063.241,2063.241,2063.245,,,,0,1,1,1,1,160,115,,,,,,,,
,,5f2ef7740f87702b99055397,65af542fcbfd19b26dc0c3b9,2024-01-22_23h53.41.145,bars,2023.2.3,MacIntel,59.80861244,657b66ea316d21385b68909f,,,,,,,,,,,2063.246,2064.239,,,2064.738,2064.988,,23,203,,,,,,,,,,,,,,,,bars/026.png,bars/mask009.png,,,,,,,,,,,,1,1,,,,,,,0,7,1,7,,,,,,,,,,,2064.239,2064.738,2064.988,2068.171,space,3.173,,2068.171,12,62,2069.169,2069.17,2069.173,,,,0,2,2,2,1,35,85,,,,,,,,
,,5f2ef7740f87702b99055397,65af542fcbfd19b26dc0c3b9,2024-01-22_23h53.41.145,bars,2023.2.3,MacIntel,59.80861244,657b66ea316d21385b68909f,,,,,,,,,,,2069.173,2070.169,,,2070.67,2070.918,,58,58,,,,,,,,,,,,,,,,bars/041.png,bars/mask009.png,,,,,,,,,,,,1,2,,,,,,,2,9,1,9,,,,,,,,,,,2070.169,2070.67,2070.918,2073.898,space,2.975,,2073.9,38,27,2074.9,2074.901,2074.911,,,,0,3,3,3,1,20,85,,,,,,,,
,,5f2ef7740f87702b99055397,65af542fcbfd19b26dc0c3b9,2024-01-22_23h53.41.145,bars,2023.2.3,MacIntel,59.80861244,657b66ea316d21385b68909f,,,,,,,,,,,2074.912,2075.915,,,2076.414,2076.665,,87,87,,,,,,,,,,,,,,,,bars/024.png,bars/mask000.png,,,,,,,,,,,,0,1,,,,,,,4,10,4,10,,,,,,,,,,,2075.915,2076.414,2076.665,2077.231,space,0.555,,2077.231,33,83,2078.23,2078.23,2078.236,,,,0,4,4,4,1,120,170,,,,,,,,
,,5f2ef7740f87702b99055397,65af542fcbfd19b26dc0c3b9,2024-01-22_23h53.41.145,bars,2023.2.3,MacIntel,59.80861244,657b66ea316d21385b68909f,,,,,,,,,,,2078.236,2079.229,,,2079.729,2079.978,,107,107,,,,,,,,,,,,,,,,bars/028.png,bars/mask003.png,,,,,,,,,,,,6,2,,,,,,,2,10,0,10,,,,,,,,,,,2079.229,2079.729,2079.978,2083.427,space,3.438,,2083.427,62,13,2084.426,2084.426,2084.434,,,,0,5,5,5,1,45,120,,,,,,,,
,,5f2ef7740f87702b99055397,65af542fcbfd19b26dc0c3b9,2024-01-22_23h53.41.145,bars,2023.2.3,MacIntel,59.80861244,657b66ea316d21385b68909f,,,,,,,,,,,2084.434,2085.426,,,2085.925,2086.175,,49,229,,,,,,,,,,,,,,,,bars/035.png,bars/mask007.png,,,,,,,,,,,,6,2,,,,,,,4,10,5,9,,,,,,,,,,,2085.426,2085.925,2086.175,2091.372,space,5.177,,2091.372,54,11,2092.37,2092.37,2092.372,,,,0,6,6,6,1,175,60,,,,,,,,
,,5f2ef7740f87702b99055397,65af542fcbfd19b26dc0c3b9,2024-01-22_23h53.41.145,bars,2023.2.3,MacIntel,59.80861244,657b66ea316d21385b68909f,,,,,,,,,,,2092.373,2093.369,,,2093.87,2094.119,,76,76,,,,,,,,,,,,,,,,bars/038.png,bars/mask006.png,,,,,,,,,,,,6,2,,,,,,,2,8,2,8,,,,,,,,,,,2093.369,2093.87,2094.119,2107.178,space,13.043,,2107.178,89,6,2108.176,2108.176,2108.183,,,,0,7,7,7,1,165,70,,,,,,,,
,,5f2ef7740f87702b99055397,65af542fcbfd19b26dc0c3b9,2024-01-22_23h53.41.145,bars,2023.2.3,MacIntel,59.80861244,657b66ea316d21385b68909f,,,,,,,,,,,2108.184,2109.176,,,2109.676,2109.926,,67,67,,,,,,,,,,,,,,,,bars/029.png,bars/mask009.png,,,,,,,,,,,,3,2,,,,,,,0,10,0,10,,,,,,,,,,,2109.176,2109.676,2109.926,2117.288,space,7.354,,2117.289,23,22,2118.287,2118.287,2118.29,,,,0,8,8,8,1,90,45,,,,,,,,
,,5f2ef7740f87702b99055397,65af542fcbfd19b26dc0c3b9,2024-01-22_23h53.41.145,bars,2023.2.3,MacIntel,59.80861244,657b66ea316d21385b68909f,,,,,,,,,,,2118.291,2119.286,,,2119.787,2120.036,,166,166,,,,,,,,,,,,,,,,bars/016.png,bars/mask005.png,,,,,,,,,,,,8,2,,,,,,,2,8,2,8,,,,,,,,,,,2119.287,2119.787,2120.036,2124.916,space,4.864,,2124.917,54,1,2125.915,2125.915,2125.919,,,,0,9,9,9,1,40,165,,,,,,,,
,,5f2ef7740f87702b99055397,65af542fcbfd19b26dc0c3b9,2024-01-22_23h53.41.145,bars,2023.2.3,MacIntel,59.80861244,657b66ea316d21385b68909f,,,,,,,,,,,2125.919,2126.915,,,2127.415,2127.663,,41,221,,,,,,,,,,,,,,,,bars/035.png,bars/mask003.png,,,,,,,,,,,,4,2,,,,,,,0,10,0,10,,,,,,,,,,,2126.916,2127.415,2127.663,2216.323,space,88.643,,2216.323,46,19,2217.321,2217.322,2217.328,,,,0,10,10,10,1,175,60,,,,,,,,
,,5f2ef7740f87702b99055397,65af542fcbfd19b26dc0c3b9,2024-01-22_23h53.41.145,bars,2023.2.3,MacIntel,59.80861244,657b66ea316d21385b68909f,,,,,,,,,,,2217.328,2218.321,,,2218.821,2219.07,,18,198,,,,,,,,,,,,,,,,bars/006.png,bars/mask002.png,,,,,,,,,,,,0,1,,,,,,,0,8,1,8,,,,,,,,,,,2218.321,2218.821,2219.07,2225.766,space,6.679,,2225.766,17,82,2226.765,2226.765,2226.771,,,,0,11,11,11,1,35,100,,,,,,,,
,,5f2ef7740f87702b99055397,65af542fcbfd19b26dc0c3b9,2024-01-22_23h53.41.145,bars,2023.2.3,MacIntel,59.80861244,657b66ea316d21385b68909f,,,,,,,,,,,2226.772,2227.764,,,2228.264,2228.514,,74,74,,,,,,,,,,,,,,,,bars/010.png,bars/mask001.png,,,,,,,,,,,,2,2,,,,,,,0,6,1,5,,,,,,,,,,,2227.764,2228.263,2228.514,2232.195,space,3.672,,2232.195,89,19,2233.193,2233.194,2233.2,,,,0,12,12,12,1,165,55,,,,,,,,
,,5f2ef7740f87702b99055397,65af542fcbfd19b26dc0c3b9,2024-01-22_23h53.41.145,bars,2023.2.3,MacIntel,59.80861244,657b66ea316d21385b68909f,,,,,,,,,,,2233.2,2234.194,,,2234.693,2234.943,,35,35,,,,,,,,,,,,,,,,bars/009.png,bars/mask005.png,,,,,,,,,,,,1,1,,,,,,,2,4,3,2,,,,,,,,,,,2234.194,2234.693,2234.943,2236.325,space,1.372,,2236.326,20,70,2237.326,2237.326,2237.331,,,,0,13,13,13,1,15,105,,,,,,,,
,,5f2ef7740f87702b99055397,65af542fcbfd19b26dc0c3b9,2024-01-22_23h53.41.145,bars,2023.2.3,MacIntel,59.80861244,657b66ea316d21385b68909f,,,,,,,,,,,2237.331,2238.324,,,2238.824,2239.074,,54,54,,,,,,,,,,,,,,,,bars/026.png,bars/mask000.png,,,,,,,,,,,,0,1,,,,,,,0,2,0,1,,,,,,,,,,,2238.324,2238.824,2239.074,2241.839,space,2.749,,2241.839,19,31,2242.838,2242.838,2242.839,,,,0,14,14,14,1,35,85,,,,,,,,
,,5f2ef7740f87702b99055397,65af542fcbfd19b26dc0c3b9,2024-01-22_23h53.41.145,bars,2023.2.3,MacIntel,59.80861244,657b66ea316d21385b68909f,,,,,,,,,,,2242.84,2243.836,,,2244.338,2244.588,,17,197,,,,,,,,,,,,,,,,bars/016.png,bars/mask006.png,,,,,,,,,,,,0,1,,,,,,,2,0,2,1,,,,,,,,,,,2243.836,2244.338,2244.588,2247.268,space,2.663,,2247.268,23,32,2248.267,2248.267,2248.27,,,,0,15,15,15,1,40,165,,,,,,,,
,,5f2ef7740f87702b99055397,65af542fcbfd19b26dc0c3b9,2024-01-22_23h53.41.145,bars,2023.2.3,MacIntel,59.80861244,657b66ea316d21385b68909f,,,,,,,,,,,2248.271,2249.266,,,2249.766,2250.016,,21,201,,,,,,,,,,,,,,,,bars/003.png,bars/mask001.png,,,,,,,,,,,,0,1,,,,,,,0,2,0,3,,,,,,,,,,,2249.267,2249.766,2250.016,2254.796,space,4.767,,2254.796,4,61,2255.797,2255.797,2255.801,,,,0,16,16,16,1,25,140,,,,,,,,
,,5f2ef7740f87702b99055397,65af542fcbfd19b26dc0c3b9,2024-01-22_23h53.41.145,bars,2023.2.3,MacIntel,59.80861244,657b66ea316d21385b68909f,,,,,,,,,,,2255.802,2256.795,,,2257.295,2257.545,,15,15,,,,,,,,,,,,,,,,bars/026.png,bars/mask003.png,,,,,,,,,,,,1,1,,,,,,,2,0,2,0,,,,,,,,,,,2256.795,2257.295,2257.545,2258.594,space,1.036,,2258.594,20,70,2259.593,2259.593,2259.597,,,,0,17,17,17,1,35,85,,,,,,,,
,,5f2ef7740f87702b99055397,65af542fcbfd19b26dc0c3b9,2024-01-22_23h53.41.145,bars,2023.2.3,MacIntel,59.80861244,657b66ea316d21385b68909f,,,,,,,,,,,2259.598,2260.592,,,2261.093,2261.343,,164,164,,,,,,,,,,,,,,,,bars/044.png,bars/mask001.png,,,,,,,,,,,,1,2,,,,,,,4,2,5,1,,,,,,,,,,,2260.592,2261.093,2261.343,2263.491,space,2.128,,2263.491,89,9,2264.489,2264.49,2264.499,,,,0,18,18,18,1,75,155,,,,,,,,
,,5f2ef7740f87702b99055397,65af542fcbfd19b26dc0c3b9,2024-01-22_23h53.41.145,bars,2023.2.3,MacIntel,59.80861244,657b66ea316d21385b68909f,,,,,,,,,,,2264.501,2265.49,,,2265.989,2266.239,,30,30,,,,,,,,,,,,,,,,bars/017.png,bars/mask002.png,,,,,,,,,,,,3,2,,,,,,,2,4,3,5,,,,,,,,,,,2265.49,2265.989,2266.239,2268.27,space,2.024,,2268.27,65,15,2269.27,2269.27,2269.272,,,,0,19,19,19,1,145,45,,,,,,,,
,,5f2ef7740f87702b99055397,65af542fcbfd19b26dc0c3b9,2024-01-22_23h53.41.145,bars,2023.2.3,MacIntel,59.80861244,657b66ea316d21385b68909f,,,,,,,,,,,2269.273,2270.269,,,2270.77,2271.02,,96,96,,,,,,,,,,,,,,,,bars/037.png,bars/mask009.png,,,,,,,,,,,,6,2,,,,,,,4,6,4,8,,,,,,,,,,,2270.27,2270.77,2271.02,2274.15,space,3.118,,2274.15,54,9,2275.152,2275.153,2275.159,,,,0,20,20,20,1,150,105,,,,,,,,
,,5f2ef7740f87702b99055397,65af542fcbfd19b26dc0c3b9,2024-01-22_23h53.41.145,bars,2023.2.3,MacIntel,59.80861244,657b66ea316d21385b68909f,,,,,,,,,,,2275.159,2276.148,,,2276.649,2276.898,,177,177,,,,,,,,,,,,,,,,bars/032.png,bars/mask009.png,,,,,,,,,,,,1,2,,,,,,,2,4,3,4,,,,,,,,,,,2276.148,2276.649,2276.898,2281.097,space,4.178,,2281.097,52,23,2282.101,2282.101,2282.105,,,,0,21,21,21,1,125,20,,,,,,,,
,,5f2ef7740f87702b99055397,65af542fcbfd19b26dc0c3b9,2024-01-22_23h53.41.145,bars,2023.2.3,MacIntel,59.80861244,657b66ea316d21385b68909f,,,,,,,,,,,2282.106,2283.095,,,2283.594,2283.843,,14,194,,,,,,,,,,,,,,,,bars/025.png,bars/mask002.png,,,,,,,,,,,,0,2,,,,,,,4,2,3,2,,,,,,,,,,,2283.095,2283.594,2283.843,2289.191,space,5.327,,2289.191,89,26,2290.189,2290.189,2290.192,,,,0,22,22,22,1,105,40,,,,,,,,
,,5f2ef7740f87702b99055397,65af542fcbfd19b26dc0c3b9,2024-01-22_23h53.41.145,bars,2023.2.3,MacIntel,59.80861244,657b66ea316d21385b68909f,,,,,,,,,,,2290.192,2291.189,,,2291.689,2291.939,,74,74,,,,,,,,,,,,,,,,bars/030.png,bars/mask003.png,,,,,,,,,,,,2,2,,,,,,,2,4,1,3,,,,,,,,,,,2291.189,2291.689,2291.939,2295.852,space,3.896,,2295.852,66,9,2296.851,2296.851,2296.854,,,,0,23,23,23,1,140,65,,,,,,,,
,,5f2ef7740f87702b99055397,65af542fcbfd19b26dc0c3b9,2024-01-22_23h53.41.145,bars,2023.2.3,MacIntel,59.80861244,657b66ea316d21385b68909f,,,,,,,,,,,2296.855,2297.851,,,2298.351,2298.602,,176,176,,,,,,,,,,,,,,,,bars/016.png,bars/mask003.png,,,,,,,,,,,,2,2,,,,,,,0,2,0,3,,,,,,,,,,,2297.851,2298.351,2298.602,2300.699,space,2.083,,2300.699,44,11,2301.698,2301.698,2301.7,,,,0,24,24,24,1,40,165,,,,,,,,
,,5f2ef7740f87702b99055397,65af542fcbfd19b26dc0c3b9,2024-01-22_23h53.41.145,bars,2023.2.3,MacIntel,59.80861244,657b66ea316d21385b68909f,,,,,,,,,,,2301.701,2302.698,,,2303.198,2303.448,,48,48,,,,,,,,,,,,,,,,bars/029.png,bars/mask003.png,,,,,,,,,,,,0,2,,,,,,,2,0,4,0,,,,,,,,,,,2302.698,2303.198,2303.448,2304.18,space,0.716,,2304.18,42,3,2305.179,2305.179,2305.18,,,,0,25,25,25,1,90,45,,,,,,,,
,,5f2ef7740f87702b99055397,65af542fcbfd19b26dc0c3b9,2024-01-22_23h53.41.145,bars,2023.2.3,MacIntel,59.80861244,657b66ea316d21385b68909f,,,,,,,,,,,2305.181,2306.201,,,2306.827,2307.008,,121,121,,,,,,,,,,,,,,,,bars/021.png,bars/mask009.png,,,,,,,,,,,,0,1,,,,,,,0,0,1,1,,,,,,,,,,,2306.202,2306.827,2307.009,2315.49,space,8.461,,2315.49,34,51,2316.489,2316.489,2316.503,,,,0,26,26,26,1,155,70,,,,,,,,
,,5f2ef7740f87702b99055397,65af542fcbfd19b26dc0c3b9,2024-01-22_23h53.41.145,bars,2023.2.3,MacIntel,59.80861244,657b66ea316d21385b68909f,,,,,,,,,,,2316.504,2317.506,,,2318.005,2318.255,,168,168,,,,,,,,,,,,,,,,bars/009.png,bars/mask002.png,,,,,,,,,,,,0,1,,,,,,,2,0,3,0,,,,,,,,,,,2317.507,2318.005,2318.255,2322.201,space,3.935,,2322.201,27,63,2323.201,2323.201,2323.204,,,,0,27,27,27,1,15,105,,,,,,,,
,,5f2ef7740f87702b99055397,65af542fcbfd19b26dc0c3b9,2024-01-22_23h53.41.145,bars,2023.2.3,MacIntel,59.80861244,657b66ea316d21385b68909f,,,,,,,,,,,2323.204,2324.2,,,2324.7,2324.951,,45,45,,,,,,,,,,,,,,,,bars/003.png,bars/mask004.png,,,,,,,,,,,,0,1,,,,,,,0,2,0,2,,,,,,,,,,,2324.2,2324.7,2324.951,2327.634,space,2.669,,2327.634,20,85,2328.631,2328.631,2328.634,,,,0,28,28,28,1,25,140,,,,,,,,
,,5f2ef7740f87702b99055397,65af542fcbfd19b26dc0c3b9,2024-01-22_23h53.41.145,bars,2023.2.3,MacIntel,59.80861244,657b66ea316d21385b68909f,,,,,,,,,,,2328.635,2329.63,,,2330.131,2330.38,,140,140,,,,,,,,,,,,,,,,bars/007.png,bars/mask003.png,,,,,,,,,,,,0,1,,,,,,,0,0,0,0,,,,,,,,,,,2329.63,2330.131,2330.38,2331.312,space,0.917,,2331.312,35,85,2332.311,2332.311,2332.314,,,,0,29,29,29,1,175,55,,,,,,,,
,,5f2ef7740f87702b99055397,65af542fcbfd19b26dc0c3b9,2024-01-22_23h53.41.145,bars,2023.2.3,MacIntel,59.80861244,657b66ea316d21385b68909f,,,,,,,,,,,2332.315,2333.311,,,2333.811,2334.061,,19,199,,,,,,,,,,,,,,,,bars/036.png,bars/mask009.png,,,,,,,,,,,,0,2,,,,,,,0,0,1,0,,,,,,,,,,,2333.311,2333.811,2334.062,2337.742,space,3.665,,2337.742,54,1,2338.74,2338.741,2338.754,,,,0,30,30,30,1,145,20,,,,,,,,
,,5f2ef7740f87702b99055397,65af542fcbfd19b26dc0c3b9,2024-01-22_23h53.41.145,bars,2023.2.3,MacIntel,59.80861244,657b66ea316d21385b68909f,,,,,,,,,,,2338.755,2339.757,,,2340.257,2340.506,,63,63,,,,,,,,,,,,,,,,bars/018.png,bars/mask004.png,,,,,,,,,,,,0,2,,,,,,,2,0,2,2,,,,,,,,,,,2339.757,2340.257,2340.506,2343.005,space,2.478,,2343.005,87,27,2344.003,2344.003,2344.007,,,,0,31,31,31,1,150,90,,,,,,,,
,,5f2ef7740f87702b99055397,65af542fcbfd19b26dc0c3b9,2024-01-22_23h53.41.145,bars,2023.2.3,MacIntel,59.80861244,657b66ea316d21385b68909f,,,,,,,,,,,2344.007,2345.003,,,2345.503,2345.753,,145,145,,,,,,,,,,,,,,,,bars/033.png,bars/mask000.png,,,,,,,,,,,,1,2,,,,,,,4,2,4,1,,,,,,,,,,,2345.003,2345.503,2345.753,2347.436,space,1.664,,2347.436,60,10,2348.435,2348.435,2348.439,,,,0,32,32,32,1,25,155,,,,,,,,
,,5f2ef7740f87702b99055397,65af542fcbfd19b26dc0c3b9,2024-01-22_23h53.41.145,bars,2023.2.3,MacIntel,59.80861244,657b66ea316d21385b68909f,,,,,,,,,,,2348.439,2349.434,,,2349.934,2350.183,,14,194,,,,,,,,,,,,,,,,bars/035.png,bars/mask003.png,,,,,,,,,,,,3,1,,,,,,,6,4,7,4,,,,,,,,,,,2349.434,2349.934,2350.184,2358.444,space,8.244,,2358.445,19,46,2359.444,2359.444,2359.449,,,,0,33,33,33,1,175,60,,,,,,,,
,,5f2ef7740f87702b99055397,65af542fcbfd19b26dc0c3b9,2024-01-22_23h53.41.145,bars,2023.2.3,MacIntel,59.80861244,657b66ea316d21385b68909f,,,,,,,,,,,2359.449,2360.443,,,2360.942,2361.193,,119,119,,,,,,,,,,,,,,,,bars/043.png,bars/mask000.png,,,,,,,,,,,,1,2,,,,,,,8,2,8,2,,,,,,,,,,,2360.443,2360.942,2361.193,2364.807,space,3.6,,2364.807,89,11,2365.806,2365.806,2365.812,,,,0,34,34,34,1,30,130,,,,,,,,
,,5f2ef7740f87702b99055397,65af542fcbfd19b26dc0c3b9,2024-01-22_23h53.41.145,bars,2023.2.3,MacIntel,59.80861244,657b66ea316d21385b68909f,,,,,,,,,,,2365.812,2366.806,,,2367.305,2367.555,,30,210,,,,,,,,,,,,,,,,bars/028.png,bars/mask001.png,,,,,,,,,,,,5,1,,,,,,,10,0,10,0,,,,,,,,,,,2366.806,2367.305,2367.555,2371.486,space,3.913,,2371.487,15,90,2372.485,2372.485,2372.494,,,,0,35,35,35,1,45,120,,,,,,,,
,,5f2ef7740f87702b99055397,65af542fcbfd19b26dc0c3b9,2024-01-22_23h53.41.145,bars,2023.2.3,MacIntel,59.80861244,657b66ea316d21385b68909f,,,,,,,,,,,2372.5,2373.501,,,2374.001,2374.25,,80,80,,,,,,,,,,,,,,,,bars/047.png,bars/mask005.png,,,,,,,,,,,,0,2,,,,,,,8,0,9,0,,,,,,,,,,,2373.501,2374.001,2374.25,2379.197,space,4.93,,2379.198,65,10,2380.196,2380.196,2380.202,,,,0,36,36,36,1,15,70,,,,,,,,
,,5f2ef7740f87702b99055397,65af542fcbfd19b26dc0c3b9,2024-01-22_23h53.41.145,bars,2023.2.3,MacIntel,59.80861244,657b66ea316d21385b68909f,,,,,,,,,,,2380.203,2381.195,,,2381.696,2381.945,,79,79,,,,,,,,,,,,,,,,bars/017.png,bars/mask001.png,,,,,,,,,,,,0,2,,,,,,,10,2,9,3,,,,,,,,,,,2381.195,2381.696,2381.945,2386.992,space,5.03,,2386.992,66,34,2387.991,2387.991,2387.996,,,,0,37,37,37,1,145,45,,,,,,,,
,,5f2ef7740f87702b99055397,65af542fcbfd19b26dc0c3b9,2024-01-22_23h53.41.145,bars,2023.2.3,MacIntel,59.80861244,657b66ea316d21385b68909f,,,,,,,,,,,2387.997,2388.992,,,2389.492,2389.74,,66,66,,,,,,,,,,,,,,,,bars/002.png,bars/mask003.png,,,,,,,,,,,,0,2,,,,,,,8,0,9,0,,,,,,,,,,,2388.992,2389.491,2389.741,2393.705,space,3.954,,2393.706,64,19,2394.704,2394.704,2394.708,,,,0,38,38,38,1,130,85,,,,,,,,
,,5f2ef7740f87702b99055397,65af542fcbfd19b26dc0c3b9,2024-01-22_23h53.41.145,bars,2023.2.3,MacIntel,59.80861244,657b66ea316d21385b68909f,,,,,,,,,,,2394.708,2395.703,,,2396.203,2396.452,,97,97,,,,,,,,,,,,,,,,bars/042.png,bars/mask006.png,,,,,,,,,,,,0,2,,,,,,,10,0,10,0,,,,,,,,,,,2395.703,2396.202,2396.452,2402.201,space,5.739,,2402.202,48,22,2403.198,2403.198,2403.204,,,,0,39,39,39,1,145,75,,,,,,,,
,,5f2ef7740f87702b99055397,65af542fcbfd19b26dc0c3b9,2024-01-22_23h53.41.145,bars,2023.2.3,MacIntel,59.80861244,657b66ea316d21385b68909f,,,,,,,,,,,2403.206,2404.197,,,2404.698,2404.947,,160,-20,,,,,,,,,,,,,,,,bars/015.png,bars/mask005.png,,,,,,,,,,,,0,2,,,,,,,10,0,10,0,,,,,,,,,,,2404.197,2404.698,2404.947,2407.862,space,2.901,,2407.862,50,0,2408.861,2408.861,2408.864,,,,0,40,40,40,1,110,160,,,,,,,,
,,5f2ef7740f87702b99055397,65af542fcbfd19b26dc0c3b9,2024-01-22_23h53.41.145,bars,2023.2.3,MacIntel,59.80861244,657b66ea316d21385b68909f,,,,,,,,,,,2408.864,2409.861,,,2410.361,2410.61,,78,78,,,,,,,,,,,,,,,,bars/018.png,bars/mask004.png,,,,,,,,,,,,0,2,,,,,,,8,0,6,0,,,,,,,,,,,2409.861,2410.361,2410.61,2414.773,space,4.145,,2414.773,72,12,2415.773,2415.774,2415.777,,,,0,41,41,41,1,150,90,,,,,,,,
,,5f2ef7740f87702b99055397,65af542fcbfd19b26dc0c3b9,2024-01-22_23h53.41.145,bars,2023.2.3,MacIntel,59.80861244,657b66ea316d21385b68909f,,,,,,,,,,,2415.777,2416.772,,,2417.273,2417.521,,68,248,,,,,,,,,,,,,,,,bars/023.png,bars/mask005.png,,,,,,,,,,,,0,2,,,,,,,10,2,10,3,,,,,,,,,,,2416.772,2417.273,2417.521,2423.469,space,5.929,,2423.469,48,47,2424.468,2424.468,2424.47,,,,0,42,42,42,1,20,115,,,,,,,,
,,5f2ef7740f87702b99055397,65af542fcbfd19b26dc0c3b9,2024-01-22_23h53.41.145,bars,2023.2.3,MacIntel,59.80861244,657b66ea316d21385b68909f,,,,,,,,,,,2424.471,2425.466,,,2425.967,2426.216,,130,130,,,,,,,,,,,,,,,,bars/004.png,bars/mask008.png,,,,,,,,,,,,3,2,,,,,,,8,4,9,4,,,,,,,,,,,2425.466,2425.967,2426.216,2427.632,space,1.403,,2427.632,75,5,2428.631,2428.632,2428.634,,,,0,43,43,43,1,25,125,,,,,,,,
,,5f2ef7740f87702b99055397,65af542fcbfd19b26dc0c3b9,2024-01-22_23h53.41.145,bars,2023.2.3,MacIntel,59.80861244,657b66ea316d21385b68909f,,,,,,,,,,,2428.635,2429.631,,,2430.13,2430.38,,37,37,,,,,,,,,,,,,,,,bars/031.png,bars/mask004.png,,,,,,,,,,,,1,2,,,,,,,10,2,9,1,,,,,,,,,,,2429.631,2430.13,2430.38,2437.277,space,6.875,,2437.278,83,2,2438.275,2438.275,2438.282,,,,0,44,44,44,1,120,35,,,,,,,,
,,5f2ef7740f87702b99055397,65af542fcbfd19b26dc0c3b9,2024-01-22_23h53.41.145,bars,2023.2.3,MacIntel,59.80861244,657b66ea316d21385b68909f,,,,,,,,,,,2438.283,2439.274,,,2439.774,2440.025,,174,-6,,,,,,,,,,,,,,,,bars/032.png,bars/mask003.png,,,,,,,,,,,,0,2,,,,,,,8,0,8,0,,,,,,,,,,,2439.274,2439.774,2440.025,2445.803,space,5.763,,2445.803,49,26,2446.802,2446.802,2446.806,,,,0,45,45,45,1,125,20,,,,,,,,
,,5f2ef7740f87702b99055397,65af542fcbfd19b26dc0c3b9,2024-01-22_23h53.41.145,bars,2023.2.3,MacIntel,59.80861244,657b66ea316d21385b68909f,,,,,,,,,,,2446.806,2447.801,,,2448.301,2448.552,,18,198,,,,,,,,,,,,,,,,bars/031.png,bars/mask005.png,,,,,,,,,,,,0,2,,,,,,,6,0,8,1,,,,,,,,,,,2447.802,2448.301,2448.552,2456.213,space,7.644,,2456.213,78,17,2457.212,2457.212,2457.215,,,,0,46,46,46,1,120,35,,,,,,,,
,,5f2ef7740f87702b99055397,65af542fcbfd19b26dc0c3b9,2024-01-22_23h53.41.145,bars,2023.2.3,MacIntel,59.80861244,657b66ea316d21385b68909f,,,,,,,,,,,2457.216,2458.212,,,2458.711,2458.961,,57,237,,,,,,,,,,,,,,,,bars/003.png,bars/mask006.png,,,,,,,,,,,,0,1,,,,,,,8,0,7,0,,,,,,,,,,,2458.212,2458.711,2458.962,2465.84,space,6.867,,2465.841,32,83,2466.839,2466.839,2466.855,,,,0,47,47,47,1,25,140,,,,,,,,
,,5f2ef7740f87702b99055397,65af542fcbfd19b26dc0c3b9,2024-01-22_23h53.41.145,bars,2023.2.3,MacIntel,59.80861244,657b66ea316d21385b68909f,,,,,,,,,,,2466.856,2467.856,,,2468.356,2468.604,,177,-3,,,,,,,,,,,,,,,,bars/040.png,bars/mask000.png,,,,,,,,,,,,2,2,,,,,,,6,2,6,3,,,,,,,,,,,2467.856,2468.356,2468.604,2475.901,space,7.286,,2475.901,37,8,2476.899,2476.9,2476.904,,,,0,48,48,48,1,140,5,,,,,,,,
,,5f2ef7740f87702b99055397,65af542fcbfd19b26dc0c3b9,2024-01-22_23h53.41.145,bars,2023.2.3,MacIntel,59.80861244,657b66ea316d21385b68909f,,,,,,,,,,,2476.905,2477.898,,,2478.398,2478.649,,160,160,,,,,,,,,,,,,,,,bars/005.png,bars/mask000.png,,,,,,,,,,,,1,2,,,,,,,4,4,4,3,,,,,,,,,,,2477.898,2478.398,2478.649,2483.862,space,5.199,,2483.862,30,20,2484.861,2484.861,2484.863,,,,0,49,49,49,1,10,140,,,,,,,,
,,5f2ef7740f87702b99055397,65af542fcbfd19b26dc0c3b9,2024-01-22_23h53.41.145,bars,2023.2.3,MacIntel,59.80861244,657b66ea316d21385b68909f,,,,,,,,,,,,,,,,,,,,,,,,,,,,,,,,,,,,,,,,,,,,,,,,,,,,,,,,,,,,,,,,,,,,,,,,,,,,,,,,,,,,,,,,,,,,,2484.863,2552.008,0,3,3,1,1,sequence_tables/blk019.csv
,,5f2ef7740f87702b99055397,65af542fcbfd19b26dc0c3b9,2024-01-22_23h53.41.145,bars,2023.2.3,MacIntel,59.80861244,657b66ea316d21385b68909f,,,,,,,,,,,2579.926,2580.93,,,2581.431,2581.68,,18,198,,,,,,,,,,,,,,,,bars/012.png,bars/mask009.png,,,,,,,,,,,,3,2,,,,,,,3,3,2,3,,,,,,2552.011,2579.916,space,27.876,,2580.931,2581.431,2581.68,2588.591,space,6.895,,2588.591,72,3,2589.591,2589.591,2589.596,,,,0,0,0,0,1,90,15,,,,,,,,
,,5f2ef7740f87702b99055397,65af542fcbfd19b26dc0c3b9,2024-01-22_23h53.41.145,bars,2023.2.3,MacIntel,59.80861244,657b66ea316d21385b68909f,,,,,,,,,,,2589.597,2590.59,,,2591.09,2591.341,,110,110,,,,,,,,,,,,,,,,bars/018.png,bars/mask005.png,,,,,,,,,,,,1,2,,,,,,,1,1,1,2,,,,,,,,,,,2590.59,2591.09,2591.341,2596.369,space,5.014,,2596.369,40,20,2597.369,2597.369,2597.372,,,,0,1,1,1,1,150,90,,,,,,,,
,,5f2ef7740f87702b99055397,65af542fcbfd19b26dc0c3b9,2024-01-22_23h53.41.145,bars,2023.2.3,MacIntel,59.80861244,657b66ea316d21385b68909f,,,,,,,,,,,2597.373,2598.369,,,2598.868,2599.119,,11,191,,,,,,,,,,,,,,,,bars/048.png,bars/mask004.png,,,,,,,,,,,,0,2,,,,,,,3,0,4,0,,,,,,,,,,,2598.369,2598.868,2599.119,2602.265,space,3.131,,2602.266,39,16,2603.267,2603.268,2603.272,,,,0,2,2,2,1,50,175,,,,,,,,
,,5f2ef7740f87702b99055397,65af542fcbfd19b26dc0c3b9,2024-01-22_23h53.41.145,bars,2023.2.3,MacIntel,59.80861244,657b66ea316d21385b68909f,,,,,,,,,,,2603.273,2604.266,,,2604.765,2605.014,,9,9,,,,,,,,,,,,,,,,bars/014.png,bars/mask009.png,,,,,,,,,,,,3,2,,,,,,,1,2,0,4,,,,,,,,,,,2604.267,2604.765,2605.014,2606.096,space,1.064,,2606.097,71,9,2607.096,2607.096,2607.1,,,,0,3,3,3,1,80,0,,,,,,,,
,,5f2ef7740f87702b99055397,65af542fcbfd19b26dc0c3b9,2024-01-22_23h53.41.145,bars,2023.2.3,MacIntel,59.80861244,657b66ea316d21385b68909f,,,,,,,,,,,2607.101,2608.097,,,2608.595,2608.845,,25,25,,,,,,,,,,,,,,,,bars/015.png,bars/mask002.png,,,,,,,,,,,,0,2,,,,,,,3,4,4,4,,,,,,,,,,,2608.097,2608.595,2608.845,2612.843,space,3.987,,2612.843,85,45,2613.841,2613.842,2613.846,,,,0,4,4,4,1,110,160,,,,,,,,
,,5f2ef7740f87702b99055397,65af542fcbfd19b26dc0c3b9,2024-01-22_23h53.41.145,bars,2023.2.3,MacIntel,59.80861244,657b66ea316d21385b68909f,,,,,,,,,,,2613.846,2614.842,,,2615.341,2615.591,,33,213,,,,,,,,,,,,,,,,bars/025.png,bars/mask006.png,,,,,,,,,,,,5,2,,,,,,,1,6,2,6,,,,,,,,,,,2614.842,2615.341,2615.591,2825.251,space,209.647,,2825.253,72,7,2826.251,2826.251,2826.257,,,,0,5,5,5,1,105,40,,,,,,,,
,,5f2ef7740f87702b99055397,65af542fcbfd19b26dc0c3b9,2024-01-22_23h53.41.145,bars,2023.2.3,MacIntel,59.80861244,657b66ea316d21385b68909f,,,,,,,,,,,2826.258,2827.25,,,2827.75,2828,,99,99,,,,,,,,,,,,,,,,bars/039.png,bars/mask007.png,,,,,,,,,,,,5,2,,,,,,,0,8,0,6,,,,,,,,,,,2827.25,2827.75,2828,2831.116,space,3.105,,2831.116,76,6,2832.115,2832.115,2832.118,,,,0,6,6,6,1,175,105,,,,,,,,
,,5f2ef7740f87702b99055397,65af542fcbfd19b26dc0c3b9,2024-01-22_23h53.41.145,bars,2023.2.3,MacIntel,59.80861244,657b66ea316d21385b68909f,,,,,,,,,,,2832.119,2833.114,,,2833.613,2833.862,,5,5,,,,,,,,,,,,,,,,bars/000.png,bars/mask001.png,,,,,,,,,,,,0,1,,,,,,,0,6,0,6,,,,,,,,,,,2833.114,2833.613,2833.862,2838.592,space,4.714,,2838.592,35,40,2839.593,2839.593,2839.602,,,,0,7,7,7,1,40,145,,,,,,,,
,,5f2ef7740f87702b99055397,65af542fcbfd19b26dc0c3b9,2024-01-22_23h53.41.145,bars,2023.2.3,MacIntel,59.80861244,657b66ea316d21385b68909f,,,,,,,,,,,2839.602,2840.593,,,2841.091,2841.34,,7,187,,,,,,,,,,,,,,,,bars/040.png,bars/mask003.png,,,,,,,,,,,,4,2,,,,,,,2,4,1,4,,,,,,,,,,,2840.593,2841.091,2841.341,2844.322,space,2.965,,2844.322,47,2,2845.322,2845.322,2845.327,,,,0,8,8,8,1,140,5,,,,,,,,
,,5f2ef7740f87702b99055397,65af542fcbfd19b26dc0c3b9,2024-01-22_23h53.41.145,bars,2023.2.3,MacIntel,59.80861244,657b66ea316d21385b68909f,,,,,,,,,,,2845.328,2846.321,,,2846.821,2847.071,,64,64,,,,,,,,,,,,,,,,bars/030.png,bars/mask005.png,,,,,,,,,,,,6,2,,,,,,,4,6,3,6,,,,,,,,,,,2846.321,2846.821,2847.071,2848.67,space,1.584,,2848.67,76,1,2849.679,2849.679,2849.68,,,,0,9,9,9,1,140,65,,,,,,,,
,,5f2ef7740f87702b99055397,65af542fcbfd19b26dc0c3b9,2024-01-22_23h53.41.145,bars,2023.2.3,MacIntel,59.80861244,657b66ea316d21385b68909f,,,,,,,,,,,2849.68,2850.671,,,2851.17,2851.418,,29,29,,,,,,,,,,,,,,,,bars/022.png,bars/mask000.png,,,,,,,,,,,,6,2,,,,,,,6,8,7,9,,,,,,,,,,,2850.671,2851.17,2851.418,2856.449,space,5.015,,2856.449,66,9,2857.447,2857.447,2857.451,,,,0,10,10,10,1,95,20,,,,,,,,
,,5f2ef7740f87702b99055397,65af542fcbfd19b26dc0c3b9,2024-01-22_23h53.41.145,bars,2023.2.3,MacIntel,59.80861244,657b66ea316d21385b68909f,,,,,,,,,,,2857.452,2858.445,,,2858.946,2859.196,,72,72,,,,,,,,,,,,,,,,bars/011.png,bars/mask005.png,,,,,,,,,,,,3,2,,,,,,,4,6,4,5,,,,,,,,,,,2858.445,2858.945,2859.196,2864.942,space,5.731,,2864.942,88,13,2865.941,2865.941,2865.945,,,,0,11,11,11,1,160,85,,,,,,,,
,,5f2ef7740f87702b99055397,65af542fcbfd19b26dc0c3b9,2024-01-22_23h53.41.145,bars,2023.2.3,MacIntel,59.80861244,657b66ea316d21385b68909f,,,,,,,,,,,2865.946,2866.94,,,2867.441,2867.69,,66,66,,,,,,,,,,,,,,,,bars/029.png,bars/mask001.png,,,,,,,,,,,,3,2,,,,,,,2,8,2,9,,,,,,,,,,,2866.941,2867.44,2867.69,2876.586,space,8.883,,2876.586,24,21,2877.584,2877.584,2877.586,,,,0,12,12,12,1,90,45,,,,,,,,
,,5f2ef7740f87702b99055397,65af542fcbfd19b26dc0c3b9,2024-01-22_23h53.41.145,bars,2023.2.3,MacIntel,59.80861244,657b66ea316d21385b68909f,,,,,,,,,,,2877.588,2878.583,,,2879.082,2879.331,,59,59,,,,,,,,,,,,,,,,bars/007.png,bars/mask000.png,,,,,,,,,,,,8,2,,,,,,,0,10,1,9,,,,,,,,,,,2878.583,2879.082,2879.331,2885.663,space,6.313,,2885.664,64,4,2886.66,2886.661,2886.666,,,,0,13,13,13,1,175,55,,,,,,,,
,,5f2ef7740f87702b99055397,65af542fcbfd19b26dc0c3b9,2024-01-22_23h53.41.145,bars,2023.2.3,MacIntel,59.80861244,657b66ea316d21385b68909f,,,,,,,,,,,2886.667,2887.66,,,2888.16,2888.41,,13,193,,,,,,,,,,,,,,,,bars/005.png,bars/mask001.png,,,,,,,,,,,,1,1,,,,,,,2,10,1,10,,,,,,,,,,,2887.66,2888.16,2888.41,2901.151,space,12.725,,2901.151,3,53,2902.15,2902.15,2902.157,,,,0,14,14,14,1,10,140,,,,,,,,
,,5f2ef7740f87702b99055397,65af542fcbfd19b26dc0c3b9,2024-01-22_23h53.41.145,bars,2023.2.3,MacIntel,59.80861244,657b66ea316d21385b68909f,,,,,,,,,,,2902.157,2903.15,,,2903.649,2903.899,,48,48,,,,,,,,,,,,,,,,bars/025.png,bars/mask009.png,,,,,,,,,,,,6,2,,,,,,,0,8,0,8,,,,,,,,,,,2903.15,2903.649,2903.899,2909.129,space,5.216,,2909.129,57,8,2910.129,2910.129,2910.138,,,,0,15,15,15,1,105,40,,,,,,,,
,,5f2ef7740f87702b99055397,65af542fcbfd19b26dc0c3b9,2024-01-22_23h53.41.145,bars,2023.2.3,MacIntel,59.80861244,657b66ea316d21385b68909f,,,,,,,,,,,2910.138,2911.127,,,2911.629,2911.877,,16,196,,,,,,,,,,,,,,,,bars/024.png,bars/mask005.png,,,,,,,,,,,,1,2,,,,,,,0,10,1,8,,,,,,,,,,,2911.127,2911.629,2911.877,2915.011,space,3.123,,2915.012,76,26,2916.01,2916.01,2916.014,,,,0,16,16,16,1,120,170,,,,,,,,
