init_variables.started,init_variables.stopped,participant,session,date,expName,psychopyVersion,OS,frameRate,study_id,instruction_exp.started,instruction_exp.stopped,key_resp_8.keys,key_resp_8.rt,key_resp_8.duration,instruction_single.started,instruction_single.stopped,key_resp_2.keys,key_resp_2.rt,key_resp_2.duration,interval.started,interval.stopped,cue_single.started,cue_single.stopped,mask.started,mask.stopped,ori_response_single.started,res_ori,res,ori_response_single.stopped,key_resp_single.keys,key_resp_single.rt,key_resp_single.duration,disp_single.started,disp_single.stopped,key_resp.keys,key_resp.rt,key_resp.duration,single.thisRepN,single.thisTrialN,single.thisN,single.thisIndex,single.ran,ori,path,mask_path,instruction_bandit.started,instruction_bandit.stopped,key_resp_6.keys,key_resp_6.rt,key_resp_6.duration,cue_bandit.started,cue_bandit.stopped,bandit_res.keys,bandit_res.rt,bandit_res.duration,outcome_bandit.started,rew,action,outcome_bandit.stopped,bandit.thisRepN,bandit.thisTrialN,bandit.thisN,bandit.thisIndex,bandit.ran,actual_rew1,actual_rew2,rew1,rew2,instruction_task.started,instruction_task.stopped,key_resp_7.keys,key_resp_7.rt,key_resp_7.duration,wait_ready.started,wait_ready.stopped,key_resp_3.keys,key_resp_3.rt,key_resp_3.duration,cue.started,cue.stopped,ori_response.started,ori_response.stopped,key_resp_5.keys,key_resp_5.rt,key_resp_5.duration,outcome.started,diff1,diff2,outcome.stopped,disp_outcome_practice.started,disp_outcome_practice.stopped,key_resp_4.keys,key_resp_4.rt,key_resp_4.duration,trials.thisRepN,trials.thisTrialN,trials.thisN,trials.thisIndex,trials.ran,ori1,ori2,break_blk.started,break_blk.stopped,block.thisRepN,block.thisTrialN,block.thisN,block.thisIndex,block.ran,condition_file
0,0,5f13b5cb93d2ed02c439577f,65af54492b7145c5d8c7598f,2024-01-22_23h53.52.469,bars,2023.2.3,Win32,60.0240096,657b66ea316d21385b68909f,,,,,,,,,,,,,,,,,,,,,,,,,,,,,,,,,,,,,,,,,,,,,,,,,,,,,,,,,,,,,,,,,,,,,,,,,,,,,,,,,,,,,,,,,,,,,,,,,,,,
,,5f13b5cb93d2ed02c439577f,65af54492b7145c5d8c7598f,2024-01-22_23h53.52.469,bars,2023.2.3,Win32,60.0240096,657b66ea316d21385b68909f,0,1310.991,y,1310.968,,,,,,,,,,,,,,,,,,,,,,,,,,,,,,,,,,,,,,,,,,,,,,,,,,,,,,,,,,,,,,,,,,,,,,,,,,,,,,,,,,,,,,,,,,,,,,,,
,,5f13b5cb93d2ed02c439577f,65af54492b7145c5d8c7598f,2024-01-22_23h53.52.469,bars,2023.2.3,Win32,60.0240096,657b66ea316d21385b68909f,,,,,,1310.991,1314.036,space,3.016,,,,,,,,,,,,,,,,,,,,,,,,,,,,,,,,,,,,,,,,,,,,,,,,,,,,,,,,,,,,,,,,,,,,,,,,,,,,,,,,,,,,,,,,,,,
,,5f13b5cb93d2ed02c439577f,65af54492b7145c5d8c7598f,2024-01-22_23h53.52.469,bars,2023.2.3,Win32,60.0240096,657b66ea316d21385b68909f,,,,,,,,,,,1314.05,1315.038,1315.038,1315.539,1315.539,1315.786,1315.786,56,56,1322.203,space,6.401,,1322.203,1325.02,space,2.782,,0,0,0,3,1,20,bars/single003.png,bars/mask005.png,,,,,,,,,,,,,,,,,,,,,,,,,,,,,,,,,,,,,,,,,,,,,,,,,,,,,,,,,,,,,,,,
,,5f13b5cb93d2ed02c439577f,65af54492b7145c5d8c7598f,2024-01-22_23h53.52.469,bars,2023.2.3,Win32,60.0240096,657b66ea316d21385b68909f,,,,,,,,,,,1325.022,1326.02,1326.02,1326.521,1326.521,1326.77,1326.77,40,40,1329.503,space,2.722,,1329.504,1331.155,space,1.629,,0,1,1,5,1,55,bars/single005.png,bars/mask008.png,,,,,,,,,,,,,,,,,,,,,,,,,,,,,,,,,,,,,,,,,,,,,,,,,,,,,,,,,,,,,,,,
,,5f13b5cb93d2ed02c439577f,65af54492b7145c5d8c7598f,2024-01-22_23h53.52.469,bars,2023.2.3,Win32,60.0240096,657b66ea316d21385b68909f,,,,,,,,,,,1331.155,1332.153,1332.153,1332.652,1332.653,1332.904,1332.905,49,49,1336.687,space,3.772,,1336.687,1339.238,space,2.522,,0,2,2,7,1,45,bars/single007.png,bars/mask009.png,,,,,,,,,,,,,,,,,,,,,,,,,,,,,,,,,,,,,,,,,,,,,,,,,,,,,,,,,,,,,,,,
,,5f13b5cb93d2ed02c439577f,65af54492b7145c5d8c7598f,2024-01-22_23h53.52.469,bars,2023.2.3,Win32,60.0240096,657b66ea316d21385b68909f,,,,,,,,,,,1339.24,1340.237,1340.238,1340.738,1340.738,1340.987,1340.987,17,197,1343.503,space,2.506,,1343.504,1344.904,space,1.382,,0,3,3,9,1,20,bars/single009.png,bars/mask006.png,,,,,,,,,,,,,,,,,,,,,,,,,,,,,,,,,,,,,,,,,,,,,,,,,,,,,,,,,,,,,,,,
,,5f13b5cb93d2ed02c439577f,65af54492b7145c5d8c7598f,2024-01-22_23h53.52.469,bars,2023.2.3,Win32,60.0240096,657b66ea316d21385b68909f,,,,,,,,,,,1344.904,1345.903,1345.903,1346.403,1346.404,1346.653,1346.653,98,98,1350.837,space,4.174,,1350.837,1351.92,space,1.06,,0,4,4,4,1,95,bars/single004.png,bars/mask004.png,,,,,,,,,,,,,,,,,,,,,,,,,,,,,,,,,,,,,,,,,,,,,,,,,,,,,,,,,,,,,,,,
,,5f13b5cb93d2ed02c439577f,65af54492b7145c5d8c7598f,2024-01-22_23h53.52.469,bars,2023.2.3,Win32,60.0240096,657b66ea316d21385b68909f,,,,,,,,,,,1351.921,1352.919,1352.92,1353.42,1353.42,1353.67,1353.67,152,152,1356.504,space,2.825,,1356.504,1357.336,space,0.814,,0,5,5,2,1,145,bars/single002.png,bars/mask003.png,,,,,,,,,,,,,,,,,,,,,,,,,,,,,,,,,,,,,,,,,,,,,,,,,,,,,,,,,,,,,,,,
,,5f13b5cb93d2ed02c439577f,65af54492b7145c5d8c7598f,2024-01-22_23h53.52.469,bars,2023.2.3,Win32,60.0240096,657b66ea316d21385b68909f,,,,,,,,,,,1357.337,1358.336,1358.336,1358.837,1358.837,1359.087,1359.089,165,165,1360.837,space,1.734,,1360.837,1361.553,space,0.697,,0,6,6,6,1,175,bars/single006.png,bars/mask005.png,,,,,,,,,,,,,,,,,,,,,,,,,,,,,,,,,,,,,,,,,,,,,,,,,,,,,,,,,,,,,,,,
,,5f13b5cb93d2ed02c439577f,65af54492b7145c5d8c7598f,2024-01-22_23h53.52.469,bars,2023.2.3,Win32,60.0240096,657b66ea316d21385b68909f,,,,,,,,,,,1361.554,1362.554,1362.554,1363.054,1363.054,1363.304,1363.304,172,-8,1367.355,space,4.036,,1367.355,1368.022,space,0.636,,0,7,7,0,1,150,bars/single000.png,bars/mask006.png,,,,,,,,,,,,,,,,,,,,,,,,,,,,,,,,,,,,,,,,,,,,,,,,,,,,,,,,,,,,,,,,
,,5f13b5cb93d2ed02c439577f,65af54492b7145c5d8c7598f,2024-01-22_23h53.52.469,bars,2023.2.3,Win32,60.0240096,657b66ea316d21385b68909f,,,,,,,,,,,1368.023,1369.02,1369.02,1369.521,1369.521,1369.77,1369.77,16,196,1373.904,space,4.119,,1373.904,1374.903,space,0.973,,0,8,8,1,1,20,bars/single001.png,bars/mask006.png,,,,,,,,,,,,,,,,,,,,,,,,,,,,,,,,,,,,,,,,,,,,,,,,,,,,,,,,,,,,,,,,
,,5f13b5cb93d2ed02c439577f,65af54492b7145c5d8c7598f,2024-01-22_23h53.52.469,bars,2023.2.3,Win32,60.0240096,657b66ea316d21385b68909f,,,,,,,,,,,1374.903,1375.904,1375.904,1376.403,1376.404,1376.654,1376.654,169,-11,1378.703,space,2.038,,1378.703,1380.754,space,2.027,,0,9,9,8,1,160,bars/single008.png,bars/mask004.png,,,,,,,,,,,,,,,,,,,,,,,,,,,,,,,,,,,,,,,,,,,,,,,,,,,,,,,,,,,,,,,,
,,5f13b5cb93d2ed02c439577f,65af54492b7145c5d8c7598f,2024-01-22_23h53.52.469,bars,2023.2.3,Win32,60.0240096,657b66ea316d21385b68909f,,,,,,,,,,,,,,,,,,,,,,,,,,,,,,,,,,,,,1380.754,1394.103,space,13.315,,,,,,,,,,,,,,,,,,,,,,,,,,,,,,,,,,,,,,,,,,,,,,,,,,,,,,,,,,,,
,,5f13b5cb93d2ed02c439577f,65af54492b7145c5d8c7598f,2024-01-22_23h53.52.469,bars,2023.2.3,Win32,60.0240096,657b66ea316d21385b68909f,,,,,,,,,,,,,,,,,,,,,,,,,,,,,,,,,,,,,,,,,,1394.108,1396.159,right,2.031,,1396.159,2,2,1397.154,0,0,0,0,1,9,1,9,2,,,,,,,,,,,,,,,,,,,,,,,,,,,,,,,,,,,,,,,,,
,,5f13b5cb93d2ed02c439577f,65af54492b7145c5d8c7598f,2024-01-22_23h53.52.469,bars,2023.2.3,Win32,60.0240096,657b66ea316d21385b68909f,,,,,,,,,,,,,,,,,,,,,,,,,,,,,,,,,,,,,,,,,,1397.158,1399.055,left,1.886,,1399.055,10,1,1400.054,0,1,1,1,1,10,0,10,1,,,,,,,,,,,,,,,,,,,,,,,,,,,,,,,,,,,,,,,,,
,,5f13b5cb93d2ed02c439577f,65af54492b7145c5d8c7598f,2024-01-22_23h53.52.469,bars,2023.2.3,Win32,60.0240096,657b66ea316d21385b68909f,,,,,,,,,,,,,,,,,,,,,,,,,,,,,,,,,,,,,,,,,,1400.056,1406.104,left,6.036,,1406.104,10,1,1407.104,0,2,2,2,1,10,2,10,2,,,,,,,,,,,,,,,,,,,,,,,,,,,,,,,,,,,,,,,,,
,,5f13b5cb93d2ed02c439577f,65af54492b7145c5d8c7598f,2024-01-22_23h53.52.469,bars,2023.2.3,Win32,60.0240096,657b66ea316d21385b68909f,,,,,,,,,,,,,,,,,,,,,,,,,,,,,,,,,,,,,,,,,,1407.105,1407.957,left,0.845,,1407.957,7,1,1408.954,0,3,3,3,1,8,4,7,3,,,,,,,,,,,,,,,,,,,,,,,,,,,,,,,,,,,,,,,,,
,,5f13b5cb93d2ed02c439577f,65af54492b7145c5d8c7598f,2024-01-22_23h53.52.469,bars,2023.2.3,Win32,60.0240096,657b66ea316d21385b68909f,,,,,,,,,,,,,,,,,,,,,,,,,,,,,,,,,,,,,,,,,,1408.955,1409.67,left,0.699,,1409.67,5,1,1410.671,0,4,4,4,1,6,2,5,1,,,,,,,,,,,,,,,,,,,,,,,,,,,,,,,,,,,,,,,,,
,,5f13b5cb93d2ed02c439577f,65af54492b7145c5d8c7598f,2024-01-22_23h53.52.469,bars,2023.2.3,Win32,60.0240096,657b66ea316d21385b68909f,,,,,,,,,,,,,,,,,,,,,,,,,,,,,,,,,,,,,,,,,,1410.671,1412.271,right,1.588,,1412.271,4,2,1413.27,0,5,5,5,1,4,4,4,4,,,,,,,,,,,,,,,,,,,,,,,,,,,,,,,,,,,,,,,,,
,,5f13b5cb93d2ed02c439577f,65af54492b7145c5d8c7598f,2024-01-22_23h53.52.469,bars,2023.2.3,Win32,60.0240096,657b66ea316d21385b68909f,,,,,,,,,,,,,,,,,,,,,,,,,,,,,,,,,,,,,,,,,,1413.271,1414.004,left,0.725,,1414.004,1,1,1415.003,0,6,6,6,1,2,2,1,2,,,,,,,,,,,,,,,,,,,,,,,,,,,,,,,,,,,,,,,,,
,,5f13b5cb93d2ed02c439577f,65af54492b7145c5d8c7598f,2024-01-22_23h53.52.469,bars,2023.2.3,Win32,60.0240096,657b66ea316d21385b68909f,,,,,,,,,,,,,,,,,,,,,,,,,,,,,,,,,,,,,,,,,,1415.004,1416.738,right,1.72,,1416.738,1,2,1417.738,0,7,7,7,1,0,0,0,1,,,,,,,,,,,,,,,,,,,,,,,,,,,,,,,,,,,,,,,,,
,,5f13b5cb93d2ed02c439577f,65af54492b7145c5d8c7598f,2024-01-22_23h53.52.469,bars,2023.2.3,Win32,60.0240096,657b66ea316d21385b68909f,,,,,,,,,,,,,,,,,,,,,,,,,,,,,,,,,,,,,,,,,,1417.739,1418.222,left,0.467,,1418.222,1,1,1419.22,0,8,8,8,1,0,2,1,0,,,,,,,,,,,,,,,,,,,,,,,,,,,,,,,,,,,,,,,,,
,,5f13b5cb93d2ed02c439577f,65af54492b7145c5d8c7598f,2024-01-22_23h53.52.469,bars,2023.2.3,Win32,60.0240096,657b66ea316d21385b68909f,,,,,,,,,,,,,,,,,,,,,,,,,,,,,,,,,,,,,,,,,,1419.221,1419.356,left,0.117,,1419.356,2,1,1420.354,0,9,9,9,1,2,4,2,3,,,,,,,,,,,,,,,,,,,,,,,,,,,,,,,,,,,,,,,,,
,,5f13b5cb93d2ed02c439577f,65af54492b7145c5d8c7598f,2024-01-22_23h53.52.469,bars,2023.2.3,Win32,60.0240096,657b66ea316d21385b68909f,,,,,,,,,,,,,,,,,,,,,,,,,,,,,,,,,,,,,,,,,,1420.355,1420.989,left,0.627,,1420.989,0,1,1421.987,0,10,10,10,1,0,2,0,3,,,,,,,,,,,,,,,,,,,,,,,,,,,,,,,,,,,,,,,,,
,,5f13b5cb93d2ed02c439577f,65af54492b7145c5d8c7598f,2024-01-22_23h53.52.469,bars,2023.2.3,Win32,60.0240096,657b66ea316d21385b68909f,,,,,,,,,,,,,,,,,,,,,,,,,,,,,,,,,,,,,,,,,,1421.989,1422.221,left,0.218,,1422.221,0,1,1423.22,0,11,11,11,1,0,4,0,3,,,,,,,,,,,,,,,,,,,,,,,,,,,,,,,,,,,,,,,,,
,,5f13b5cb93d2ed02c439577f,65af54492b7145c5d8c7598f,2024-01-22_23h53.52.469,bars,2023.2.3,Win32,60.0240096,657b66ea316d21385b68909f,,,,,,,,,,,,,,,,,,,,,,,,,,,,,,,,,,,,,,,,,,1423.222,1423.32,right,0.085,,1423.321,6,2,1424.321,0,12,12,12,1,2,6,1,6,,,,,,,,,,,,,,,,,,,,,,,,,,,,,,,,,,,,,,,,,
,,5f13b5cb93d2ed02c439577f,65af54492b7145c5d8c7598f,2024-01-22_23h53.52.469,bars,2023.2.3,Win32,60.0240096,657b66ea316d21385b68909f,,,,,,,,,,,,,,,,,,,,,,,,,,,,,,,,,,,,,,,,,,1424.321,1424.788,right,0.458,,1424.788,3,2,1425.788,0,13,13,13,1,0,4,1,3,,,,,,,,,,,,,,,,,,,,,,,,,,,,,,,,,,,,,,,,,
,,5f13b5cb93d2ed02c439577f,65af54492b7145c5d8c7598f,2024-01-22_23h53.52.469,bars,2023.2.3,Win32,60.0240096,657b66ea316d21385b68909f,,,,,,,,,,,,,,,,,,,,,,,,,,,,,,,,,,,,,,,,,,1425.789,1426.171,right,0.368,,1426.171,7,2,1427.171,0,14,14,14,1,2,6,2,7,,,,,,,,,,,,,,,,,,,,,,,,,,,,,,,,,,,,,,,,,
,,5f13b5cb93d2ed02c439577f,65af54492b7145c5d8c7598f,2024-01-22_23h53.52.469,bars,2023.2.3,Win32,60.0240096,657b66ea316d21385b68909f,,,,,,,,,,,,,,,,,,,,,,,,,,,,,,,,,,,,,,,,,,1427.171,1427.554,right,0.37,,1427.554,9,2,1428.554,0,15,15,15,1,4,8,3,9,,,,,,,,,,,,,,,,,,,,,,,,,,,,,,,,,,,,,,,,,
,,5f13b5cb93d2ed02c439577f,65af54492b7145c5d8c7598f,2024-01-22_23h53.52.469,bars,2023.2.3,Win32,60.0240096,657b66ea316d21385b68909f,,,,,,,,,,,,,,,,,,,,,,,,,,,,,,,,,,,,,,,,,,1428.555,1428.74,right,0.179,,1428.74,7,2,1429.74,0,16,16,16,1,6,6,7,7,,,,,,,,,,,,,,,,,,,,,,,,,,,,,,,,,,,,,,,,,
,,5f13b5cb93d2ed02c439577f,65af54492b7145c5d8c7598f,2024-01-22_23h53.52.469,bars,2023.2.3,Win32,60.0240096,657b66ea316d21385b68909f,,,,,,,,,,,,,,,,,,,,,,,,,,,,,,,,,,,,,,,,,,1429.744,1430.056,right,0.295,,1430.056,5,2,1431.054,0,17,17,17,1,8,4,9,5,,,,,,,,,,,,,,,,,,,,,,,,,,,,,,,,,,,,,,,,,
,,5f13b5cb93d2ed02c439577f,65af54492b7145c5d8c7598f,2024-01-22_23h53.52.469,bars,2023.2.3,Win32,60.0240096,657b66ea316d21385b68909f,,,,,,,,,,,,,,,,,,,,,,,,,,,,,,,,,,,,,,,,,,1431.058,1431.355,right,0.29,,1431.355,1,2,1432.354,0,18,18,18,1,6,2,5,1,,,,,,,,,,,,,,,,,,,,,,,,,,,,,,,,,,,,,,,,,
,,5f13b5cb93d2ed02c439577f,65af54492b7145c5d8c7598f,2024-01-22_23h53.52.469,bars,2023.2.3,Win32,60.0240096,657b66ea316d21385b68909f,,,,,,,,,,,,,,,,,,,,,,,,,,,,,,,,,,,,,,,,,,1432.355,1432.655,left,0.284,,1432.655,7,1,1433.655,0,19,19,19,1,8,0,7,0,,,,,,,,,,,,,,,,,,,,,,,,,,,,,,,,,,,,,,,,,
,,5f13b5cb93d2ed02c439577f,65af54492b7145c5d8c7598f,2024-01-22_23h53.52.469,bars,2023.2.3,Win32,60.0240096,657b66ea316d21385b68909f,,,,,,,,,,,,,,,,,,,,,,,,,,,,,,,,,,,,,,,,,,,,,,,,,,,,,,,,,,,,1433.655,1435.755,space,2.068,,,,,,,,,,,,,,,,,,,,,,,,,,,,,,,,,,,,,
,,5f13b5cb93d2ed02c439577f,65af54492b7145c5d8c7598f,2024-01-22_23h53.52.469,bars,2023.2.3,Win32,60.0240096,657b66ea316d21385b68909f,,,,,,,,,,,1436.984,1437.988,,,1438.489,1438.739,,168,-12,,,,,,,,,,,,,,,,bars/048.png,bars/mask008.png,,,,,,,,,,,,5,2,,,,,,,5,9,5,7,,,,,,1435.762,1436.973,space,1.201,,1437.988,1438.488,1438.739,1442.855,space,4.093,,1442.855,62,7,1443.854,1443.854,1447.837,space,3.934,,0,0,0,0,1,50,175,,,,,,,,
,,5f13b5cb93d2ed02c439577f,65af54492b7145c5d8c7598f,2024-01-22_23h53.52.469,bars,2023.2.3,Win32,60.0240096,657b66ea316d21385b68909f,,,,,,,,,,,1447.839,1448.838,,,1449.338,1449.587,,57,237,,,,,,,,,,,,,,,,bars/035.png,bars/mask003.png,,,,,,,,,,,,5,2,,,,,,,7,7,10,5,,,,,,,,,,,1448.838,1449.338,1449.588,1454.038,space,4.442,,1454.039,62,3,1455.038,1455.038,1456.004,space,0.944,,0,1,1,1,1,175,60,,,,,,,,
,,5f13b5cb93d2ed02c439577f,65af54492b7145c5d8c7598f,2024-01-22_23h53.52.469,bars,2023.2.3,Win32,60.0240096,657b66ea316d21385b68909f,,,,,,,,,,,1456.005,1457.004,,,1457.505,1457.755,,165,-15,,,,,,,,,,,,,,,,bars/018.png,bars/mask001.png,,,,,,,,,,,,3,1,,,,,,,5,5,6,3,,,,,,,,,,,1457.004,1457.505,1457.755,1460.206,space,2.442,,1460.207,15,75,1461.204,1461.204,1462.157,space,0.923,,0,2,2,2,1,150,90,,,,,,,,
,,5f13b5cb93d2ed02c439577f,65af54492b7145c5d8c7598f,2024-01-22_23h53.52.469,bars,2023.2.3,Win32,60.0240096,657b66ea316d21385b68909f,,,,,,,,,,,1462.158,1463.155,,,1463.655,1463.906,,69,69,,,,,,,,,,,,,,,,bars/031.png,bars/mask008.png,,,,,,,,,,,,0,2,,,,,,,7,3,6,6,,,,,,,,,,,1463.155,1463.655,1463.906,1467.439,space,3.517,,1467.439,51,34,1468.438,1468.438,1469.438,space,0.969,,0,3,3,3,1,120,35,,,,,,,,
,,5f13b5cb93d2ed02c439577f,65af54492b7145c5d8c7598f,2024-01-22_23h53.52.469,bars,2023.2.3,Win32,60.0240096,657b66ea316d21385b68909f,,,,,,,,,,,1469.44,1470.438,,,1470.939,1471.188,,139,139,,,,,,,,,,,,,,,,bars/040.png,bars/mask007.png,,,,,,,,,,,,9,1,,,,,,,9,5,9,6,,,,,,,,,,,1470.438,1470.939,1471.188,1473.421,space,2.219,,1473.421,1,46,1474.422,1474.422,1475.671,space,1.221,,0,4,4,4,1,140,5,,,,,,,,
,,5f13b5cb93d2ed02c439577f,65af54492b7145c5d8c7598f,2024-01-22_23h53.52.469,bars,2023.2.3,Win32,60.0240096,657b66ea316d21385b68909f,,,,,,,,,,,1475.672,1476.671,,,1477.172,1477.421,,20,200,,,,,,,,,,,,,,,,bars/005.png,bars/mask005.png,,,,,,,,,,,,6,1,,,,,,,10,7,9,6,,,,,,,,,,,1476.671,1477.172,1477.421,1479.322,space,1.888,,1479.322,10,60,1480.321,1480.321,1481.207,space,0.867,,0,5,5,5,1,10,140,,,,,,,,
,,5f13b5cb93d2ed02c439577f,65af54492b7145c5d8c7598f,2024-01-22_23h53.52.469,bars,2023.2.3,Win32,60.0240096,657b66ea316d21385b68909f,,,,,,,,,,,1481.207,1482.205,,,1482.705,1482.955,,59,59,,,,,,,,,,,,,,,,bars/019.png,bars/mask004.png,,,,,,,,,,,,4,1,,,,,,,8,5,7,4,,,,,,,,,,,1482.205,1482.705,1482.955,1485.238,space,2.269,,1485.238,14,46,1486.238,1486.238,1486.871,space,0.61,,0,6,6,6,1,45,105,,,,,,,,
,,5f13b5cb93d2ed02c439577f,65af54492b7145c5d8c7598f,2024-01-22_23h53.52.469,bars,2023.2.3,Win32,60.0240096,657b66ea316d21385b68909f,,,,,,,,,,,1486.872,1487.872,,,1488.372,1488.622,,141,141,,,,,,,,,,,,,,,,bars/040.png,bars/mask007.png,,,,,,,,,,,,6,1,,,,,,,6,7,6,8,,,,,,,,,,,1487.872,1488.371,1488.622,1491.04,space,2.401,,1491.041,1,44,1492.038,1492.038,1492.141,space,0.069,,0,7,7,7,1,140,5,,,,,,,,
,,5f13b5cb93d2ed02c439577f,65af54492b7145c5d8c7598f,2024-01-22_23h53.52.469,bars,2023.2.3,Win32,60.0240096,657b66ea316d21385b68909f,,,,,,,,,,,1492.142,1493.138,,,1493.639,1493.888,,154,-26,,,,,,,,,,,,,,,,bars/007.png,bars/mask009.png,,,,,,,,,,,,3,1,,,,,,,8,5,9,6,,,,,,,,,,,1493.138,1493.639,1493.888,1495.905,space,2.007,,1495.906,21,81,1496.905,1496.905,1497.488,space,0.555,,0,8,8,8,1,175,55,,,,,,,,
,,5f13b5cb93d2ed02c439577f,65af54492b7145c5d8c7598f,2024-01-22_23h53.52.469,bars,2023.2.3,Win32,60.0240096,657b66ea316d21385b68909f,,,,,,,,,,,1497.489,1498.488,,,1498.988,1499.239,,9,9,,,,,,,,,,,,,,,,bars/035.png,bars/mask002.png,,,,,,,,,,,,5,1,,,,,,,10,7,10,8,,,,,,,,,,,1498.489,1498.988,1499.239,1500.739,space,1.484,,1500.739,14,51,1501.739,1501.739,1502.388,space,0.628,,0,9,9,9,1,175,60,,,,,,,,
,,5f13b5cb93d2ed02c439577f,65af54492b7145c5d8c7598f,2024-01-22_23h53.52.469,bars,2023.2.3,Win32,60.0240096,657b66ea316d21385b68909f,,,,,,,,,,,1502.389,1503.388,,,1503.889,1504.139,,146,146,,,,,,,,,,,,,,,,bars/016.png,bars/mask000.png,,,,,,,,,,,,3,2,,,,,,,8,9,8,9,,,,,,,,,,,1503.388,1503.889,1504.139,1505.855,space,1.705,,1505.855,74,19,1506.854,1506.854,1506.922,space,0.058,,0,10,10,10,1,40,165,,,,,,,,
,,5f13b5cb93d2ed02c439577f,65af54492b7145c5d8c7598f,2024-01-22_23h53.52.469,bars,2023.2.3,Win32,60.0240096,657b66ea316d21385b68909f,,,,,,,,,,,1506.923,1507.922,,,1508.421,1508.672,,145,145,,,,,,,,,,,,,,,,bars/038.png,bars/mask008.png,,,,,,,,,,,,2,1,,,,,,,6,10,5,10,,,,,,,,,,,1507.922,1508.421,1508.672,1510.722,space,2.035,,1510.722,20,75,1511.722,1511.722,1512.406,space,0.66,,0,11,11,11,1,165,70,,,,,,,,
,,5f13b5cb93d2ed02c439577f,65af54492b7145c5d8c7598f,2024-01-22_23h53.52.469,bars,2023.2.3,Win32,60.0240096,657b66ea316d21385b68909f,,,,,,,,,,,1512.408,1513.405,,,1513.905,1514.155,,58,58,,,,,,,,,,,,,,,,bars/040.png,bars/mask004.png,,,,,,,,,,,,0,2,,,,,,,8,10,10,8,,,,,,,,,,,1513.405,1513.905,1514.155,1516.356,space,2.192,,1516.357,82,53,1517.356,1517.356,1518.055,space,0.672,,0,12,12,12,1,140,5,,,,,,,,
,,5f13b5cb93d2ed02c439577f,65af54492b7145c5d8c7598f,2024-01-22_23h53.52.469,bars,2023.2.3,Win32,60.0240096,657b66ea316d21385b68909f,,,,,,,,,,,1518.056,1519.055,,,1519.556,1519.805,,123,123,,,,,,,,,,,,,,,,bars/046.png,bars/mask008.png,,,,,,,,,,,,0,1,,,,,,,10,10,10,8,,,,,,,,,,,1519.056,1519.555,1519.806,1521.44,space,1.618,,1521.441,32,38,1522.439,1522.439,1525.007,space,2.527,,0,13,13,13,1,155,85,,,,,,,,
,,5f13b5cb93d2ed02c439577f,65af54492b7145c5d8c7598f,2024-01-22_23h53.52.469,bars,2023.2.3,Win32,60.0240096,657b66ea316d21385b68909f,,,,,,,,,,,1525.01,1526.006,,,1526.505,1526.755,,173,173,,,,,,,,,,,,,,,,bars/041.png,bars/mask000.png,,,,,,,,,,,,1,1,,,,,,,8,8,7,8,,,,,,,,,,,1526.006,1526.505,1526.755,1529.007,space,2.232,,1529.007,27,88,1530.006,1530.006,1530.64,space,0.607,,0,14,14,14,1,20,85,,,,,,,,
,,5f13b5cb93d2ed02c439577f,65af54492b7145c5d8c7598f,2024-01-22_23h53.52.469,bars,2023.2.3,Win32,60.0240096,657b66ea316d21385b68909f,,,,,,,,,,,1530.642,1531.639,,,1532.139,1532.388,,122,-58,,,,,,,,,,,,,,,,bars/000.png,bars/mask009.png,,,,,,,,,,,,1,2,,,,,,,6,6,7,6,,,,,,,,,,,1531.639,1532.139,1532.388,1535.522,space,3.12,,1535.522,82,23,1536.522,1536.522,1536.989,space,0.441,,0,15,15,15,1,40,145,,,,,,,,
,,5f13b5cb93d2ed02c439577f,65af54492b7145c5d8c7598f,2024-01-22_23h53.52.469,bars,2023.2.3,Win32,60.0240096,657b66ea316d21385b68909f,,,,,,,,,,,1536.99,1537.988,,,1538.489,1538.738,,50,50,,,,,,,,,,,,,,,,bars/034.png,bars/mask007.png,,,,,,,,,,,,1,2,,,,,,,8,4,7,2,,,,,,,,,,,1537.989,1538.489,1538.739,1541.125,space,2.379,,1541.125,75,15,1542.122,1542.122,1542.889,space,0.742,,0,16,16,16,1,125,65,,,,,,,,
,,5f13b5cb93d2ed02c439577f,65af54492b7145c5d8c7598f,2024-01-22_23h53.52.469,bars,2023.2.3,Win32,60.0240096,657b66ea316d21385b68909f,,,,,,,,,,,1542.89,1543.888,,,1544.389,1544.639,,48,48,,,,,,,,,,,,,,,,bars/007.png,bars/mask004.png,,,,,,,,,,,,2,2,,,,,,,10,2,9,2,,,,,,,,,,,1543.888,1544.389,1544.639,1547.839,space,3.185,,1547.839,53,7,1548.84,1548.84,1549.706,space,0.844,,0,17,17,17,1,175,55,,,,,,,,
,,5f13b5cb93d2ed02c439577f,65af54492b7145c5d8c7598f,2024-01-22_23h53.52.469,bars,2023.2.3,Win32,60.0240096,657b66ea316d21385b68909f,,,,,,,,,,,1549.707,1550.706,,,1551.209,1551.455,,161,161,,,,,,,,,,,,,,,,bars/035.png,bars/mask009.png,,,,,,,,,,,,3,1,,,,,,,8,0,6,0,,,,,,,,,,,1550.706,1551.208,1551.455,1554.173,space,2.71,,1554.174,14,79,1555.172,1555.172,1555.723,space,0.52,,0,18,18,18,1,175,60,,,,,,,,
,,5f13b5cb93d2ed02c439577f,65af54492b7145c5d8c7598f,2024-01-22_23h53.52.469,bars,2023.2.3,Win32,60.0240096,657b66ea316d21385b68909f,,,,,,,,,,,1555.724,1556.723,,,1557.223,1557.473,,120,120,,,,,,,,,,,,,,,,bars/006.png,bars/mask005.png,,,,,,,,,,,,1,2,,,,,,,10,0,10,2,,,,,,,,,,,1556.723,1557.223,1557.473,1560.839,space,3.355,,1560.839,85,20,1561.839,1561.839,1562.659,space,0.789,,0,19,19,19,1,35,100,,,,,,,,
,,5f13b5cb93d2ed02c439577f,65af54492b7145c5d8c7598f,2024-01-22_23h53.52.469,bars,2023.2.3,Win32,60.0240096,657b66ea316d21385b68909f,,,,,,,,,,,1562.66,1563.656,,,1564.156,1564.406,,144,144,,,,,,,,,,,,,,,,bars/048.png,bars/mask001.png,,,,,,,,,,,,0,2,,,,,,,10,0,10,0,,,,,,,,,,,1563.656,1564.156,1564.406,1568.224,space,3.8,,1568.224,86,31,1569.222,1569.222,1569.806,space,0.562,,0,20,20,20,1,50,175,,,,,,,,
,,5f13b5cb93d2ed02c439577f,65af54492b7145c5d8c7598f,2024-01-22_23h53.52.469,bars,2023.2.3,Win32,60.0240096,657b66ea316d21385b68909f,,,,,,,,,,,1569.807,1570.806,,,1571.305,1571.556,,121,121,,,,,,,,,,,,,,,,bars/006.png,bars/mask003.png,,,,,,,,,,,,0,2,,,,,,,8,0,5,0,,,,,,,,,,,1570.806,1571.305,1571.556,1573.69,space,2.119,,1573.69,86,21,1574.689,1574.689,1575.423,space,0.71,,0,21,21,21,1,35,100,,,,,,,,
,,5f13b5cb93d2ed02c439577f,65af54492b7145c5d8c7598f,2024-01-22_23h53.52.469,bars,2023.2.3,Win32,60.0240096,657b66ea316d21385b68909f,,,,,,,,,,,1575.424,1576.424,,,1576.922,1577.173,,35,35,,,,,,,,,,,,,,,,bars/034.png,bars/mask001.png,,,,,,,,,,,,0,2,,,,,,,10,0,9,0,,,,,,,,,,,1576.424,1576.922,1577.173,1579.923,space,2.737,,1579.923,90,30,1580.924,1580.924,1581.544,space,0.605,,0,22,22,22,1,125,65,,,,,,,,
,,5f13b5cb93d2ed02c439577f,65af54492b7145c5d8c7598f,2024-01-22_23h53.52.469,bars,2023.2.3,Win32,60.0240096,657b66ea316d21385b68909f,,,,,,,,,,,1581.545,1582.54,,,1583.039,1583.291,,82,82,,,,,,,,,,,,,,,,bars/030.png,bars/mask007.png,,,,,,,,,,,,0,2,,,,,,,10,2,9,1,,,,,,,,,,,1582.54,1583.039,1583.291,1585.473,space,2.169,,1585.473,58,17,1586.472,1586.472,1587.189,space,0.692,,0,23,23,23,1,140,65,,,,,,,,
,,5f13b5cb93d2ed02c439577f,65af54492b7145c5d8c7598f,2024-01-22_23h53.52.469,bars,2023.2.3,Win32,60.0240096,657b66ea316d21385b68909f,,,,,,,,,,,1587.192,1588.189,,,1588.69,1588.939,,125,125,,,,,,,,,,,,,,,,bars/001.png,bars/mask001.png,,,,,,,,,,,,7,1,,,,,,,8,0,8,0,,,,,,,,,,,1588.189,1588.69,1588.939,1590.524,space,1.577,,1590.524,5,40,1591.522,1591.522,1593.609,space,2.052,,0,24,24,24,1,130,85,,,,,,,,
,,5f13b5cb93d2ed02c439577f,65af54492b7145c5d8c7598f,2024-01-22_23h53.52.469,bars,2023.2.3,Win32,60.0240096,657b66ea316d21385b68909f,,,,,,,,,,,1593.609,1594.608,,,1595.106,1595.357,,42,42,,,,,,,,,,,,,,,,bars/034.png,bars/mask009.png,,,,,,,,,,,,0,2,,,,,,,6,0,4,0,,,,,,,,,,,1594.608,1595.106,1595.358,1597.273,space,1.903,,1597.273,83,23,1598.275,1598.275,1598.925,space,0.628,,0,25,25,25,1,125,65,,,,,,,,
,,5f13b5cb93d2ed02c439577f,65af54492b7145c5d8c7598f,2024-01-22_23h53.52.469,bars,2023.2.3,Win32,60.0240096,657b66ea316d21385b68909f,,,,,,,,,,,1598.925,1599.923,,,1600.423,1600.673,,41,221,,,,,,,,,,,,,,,,bars/004.png,bars/mask003.png,,,,,,,,,,,,1,1,,,,,,,4,2,3,1,,,,,,,,,,,1599.923,1600.423,1600.674,1604.257,space,3.568,,1604.257,16,84,1605.257,1605.257,1606.141,space,0.859,,0,26,26,26,1,25,125,,,,,,,,
,,5f13b5cb93d2ed02c439577f,65af54492b7145c5d8c7598f,2024-01-22_23h53.52.469,bars,2023.2.3,Win32,60.0240096,657b66ea316d21385b68909f,,,,,,,,,,,1606.142,1607.14,,,1607.64,1607.89,,144,144,,,,,,,,,,,,,,,,bars/039.png,bars/mask006.png,,,,,,,,,,,,0,1,,,,,,,2,0,2,0,,,,,,,,,,,1607.14,1607.64,1607.89,1610.823,space,2.922,,1610.823,31,39,1611.825,1611.826,1613.959,space,2.1,,0,27,27,27,1,175,105,,,,,,,,
,,5f13b5cb93d2ed02c439577f,65af54492b7145c5d8c7598f,2024-01-22_23h53.52.469,bars,2023.2.3,Win32,60.0240096,657b66ea316d21385b68909f,,,,,,,,,,,1613.961,1614.956,,,1615.459,1615.708,,177,-3,,,,,,,,,,,,,,,,bars/023.png,bars/mask000.png,,,,,,,,,,,,0,1,,,,,,,0,2,1,1,,,,,,,,,,,1614.956,1615.459,1615.708,1640.791,space,25.069,,1640.791,23,62,1641.79,1641.79,1642.373,space,0.563,,0,28,28,28,1,20,115,,,,,,,,
,,5f13b5cb93d2ed02c439577f,65af54492b7145c5d8c7598f,2024-01-22_23h53.52.469,bars,2023.2.3,Win32,60.0240096,657b66ea316d21385b68909f,,,,,,,,,,,1642.378,1643.374,,,1643.873,1644.125,,138,-42,,,,,,,,,,,,,,,,bars/004.png,bars/mask008.png,,,,,,,,,,,,0,2,,,,,,,2,0,3,0,,,,,,,,,,,1643.375,1643.873,1644.126,1646.176,space,2.039,,1646.176,67,13,1647.173,1647.173,1648.093,space,0.888,,0,29,29,29,1,25,125,,,,,,,,
,,5f13b5cb93d2ed02c439577f,65af54492b7145c5d8c7598f,2024-01-22_23h53.52.469,bars,2023.2.3,Win32,60.0240096,657b66ea316d21385b68909f,,,,,,,,,,,1648.094,1649.092,,,1649.591,1649.84,,108,108,,,,,,,,,,,,,,,,bars/045.png,bars/mask008.png,,,,,,,,,,,,2,1,,,,,,,4,2,3,1,,,,,,,,,,,1649.092,1649.591,1649.84,1664.614,space,14.769,,1664.614,8,82,1665.608,1665.608,1666.275,space,0.645,,0,30,30,30,1,100,10,,,,,,,,
,,5f13b5cb93d2ed02c439577f,65af54492b7145c5d8c7598f,2024-01-22_23h53.52.469,bars,2023.2.3,Win32,60.0240096,657b66ea316d21385b68909f,,,,,,,,,,,1666.275,1667.274,,,1667.774,1668.026,,12,192,,,,,,,,,,,,,,,,bars/045.png,bars/mask004.png,,,,,,,,,,,,5,2,,,,,,,2,4,4,5,,,,,,,,,,,1667.274,1667.774,1668.026,1670.524,space,2.483,,1670.524,88,2,1671.524,1671.524,1672.525,space,0.985,,0,31,31,31,1,100,10,,,,,,,,
,,5f13b5cb93d2ed02c439577f,65af54492b7145c5d8c7598f,2024-01-22_23h53.52.469,bars,2023.2.3,Win32,60.0240096,657b66ea316d21385b68909f,,,,,,,,,,,1672.525,1673.524,,,1674.025,1674.274,,26,206,,,,,,,,,,,,,,,,bars/025.png,bars/mask008.png,,,,,,,,,,,,3,2,,,,,,,0,6,1,5,,,,,,,,,,,1673.525,1674.025,1674.274,1679.108,space,4.818,,1679.108,79,14,1680.108,1680.108,1681.258,space,1.142,,0,32,32,32,1,105,40,,,,,,,,
,,5f13b5cb93d2ed02c439577f,65af54492b7145c5d8c7598f,2024-01-22_23h53.52.469,bars,2023.2.3,Win32,60.0240096,657b66ea316d21385b68909f,,,,,,,,,,,1681.259,1682.258,,,1682.758,1683.008,,132,132,,,,,,,,,,,,,,,,bars/037.png,bars/mask000.png,,,,,,,,,,,,0,1,,,,,,,0,8,0,8,,,,,,,,,,,1682.258,1682.758,1683.008,1684.808,space,1.783,,1684.808,18,27,1685.807,1685.807,1687.474,space,1.65,,0,33,33,33,1,150,105,,,,,,,,
,,5f13b5cb93d2ed02c439577f,65af54492b7145c5d8c7598f,2024-01-22_23h53.52.469,bars,2023.2.3,Win32,60.0240096,657b66ea316d21385b68909f,,,,,,,,,,,1687.475,1688.473,,,1688.975,1689.223,,130,130,,,,,,,,,,,,,,,,bars/040.png,bars/mask006.png,,,,,,,,,,,,0,1,,,,,,,0,6,0,6,,,,,,,,,,,1688.474,1688.975,1689.224,1690.907,space,1.668,,1690.907,10,55,1691.908,1691.908,1692.491,space,0.573,,0,34,34,34,1,140,5,,,,,,,,
,,5f13b5cb93d2ed02c439577f,65af54492b7145c5d8c7598f,2024-01-22_23h53.52.469,bars,2023.2.3,Win32,60.0240096,657b66ea316d21385b68909f,,,,,,,,,,,1692.491,1693.492,,,1693.991,1694.23,,38,218,,,,,,,,,,,,,,,,bars/025.png,bars/mask007.png,,,,,,,,,,,,7,2,,,,,,,0,8,0,7,,,,,,,,,,,1693.492,1693.991,1694.23,1697.79,space,3.55,,1697.79,67,2,1698.79,1698.79,1699.507,space,0.695,,0,35,35,35,1,105,40,,,,,,,,
,,5f13b5cb93d2ed02c439577f,65af54492b7145c5d8c7598f,2024-01-22_23h53.52.469,bars,2023.2.3,Win32,60.0240096,657b66ea316d21385b68909f,,,,,,,,,,,1699.508,1700.508,,,1701.007,1701.258,,51,51,,,,,,,,,,,,,,,,bars/029.png,bars/mask000.png,,,,,,,,,,,,5,2,,,,,,,2,6,2,6,,,,,,,,,,,1700.508,1701.007,1701.258,1703.025,space,1.753,,1703.025,39,6,1704.024,1704.024,1704.991,space,0.948,,0,36,36,36,1,90,45,,,,,,,,
,,5f13b5cb93d2ed02c439577f,65af54492b7145c5d8c7598f,2024-01-22_23h53.52.469,bars,2023.2.3,Win32,60.0240096,657b66ea316d21385b68909f,,,,,,,,,,,1704.992,1705.992,,,1706.491,1706.742,,58,238,,,,,,,,,,,,,,,,bars/029.png,bars/mask007.png,,,,,,,,,,,,4,2,,,,,,,0,8,1,7,,,,,,,,,,,1705.992,1706.491,1706.742,1710.958,space,4.205,,1710.958,32,13,1711.958,1711.958,1712.658,space,0.688,,0,37,37,37,1,90,45,,,,,,,,
,,5f13b5cb93d2ed02c439577f,65af54492b7145c5d8c7598f,2024-01-22_23h53.52.469,bars,2023.2.3,Win32,60.0240096,657b66ea316d21385b68909f,,,,,,,,,,,1712.658,1713.659,,,1714.158,1714.409,,149,-31,,,,,,,,,,,,,,,,bars/005.png,bars/mask001.png,,,,,,,,,,,,6,2,,,,,,,2,10,5,9,,,,,,,,,,,1713.659,1714.158,1714.409,1718.442,space,4.028,,1718.442,41,9,1719.441,1719.441,1720.844,space,1.384,,0,38,38,38,1,10,140,,,,,,,,
,,5f13b5cb93d2ed02c439577f,65af54492b7145c5d8c7598f,2024-01-22_23h53.52.469,bars,2023.2.3,Win32,60.0240096,657b66ea316d21385b68909f,,,,,,,,,,,1720.885,1721.857,,,1722.358,1722.608,,14,194,,,,,,,,,,,,,,,,bars/016.png,bars/mask001.png,,,,,,,,,,,,0,1,,,,,,,0,10,0,10,,,,,,,,,,,1721.857,1722.358,1722.608,1725.225,space,2.598,,1725.225,26,29,1726.224,1726.224,1727.042,space,0.794,,0,39,39,39,1,40,165,,,,,,,,
,,5f13b5cb93d2ed02c439577f,65af54492b7145c5d8c7598f,2024-01-22_23h53.52.469,bars,2023.2.3,Win32,60.0240096,657b66ea316d21385b68909f,,,,,,,,,,,1727.043,1728.042,,,1728.541,1728.79,,21,21,,,,,,,,,,,,,,,,bars/025.png,bars/mask003.png,,,,,,,,,,,,4,2,,,,,,,2,10,3,10,,,,,,,,,,,1728.042,1728.541,1728.791,1729.725,space,0.915,,1729.725,84,19,1730.724,1730.724,1731.341,space,0.597,,0,40,40,40,1,105,40,,,,,,,,
,,5f13b5cb93d2ed02c439577f,65af54492b7145c5d8c7598f,2024-01-22_23h53.52.469,bars,2023.2.3,Win32,60.0240096,657b66ea316d21385b68909f,,,,,,,,,,,1731.342,1732.341,,,1732.842,1733.095,,49,49,,,,,,,,,,,,,,,,bars/007.png,bars/mask000.png,,,,,,,,,,,,8,2,,,,,,,4,10,6,10,,,,,,,,,,,1732.341,1732.842,1733.095,1735.542,space,2.429,,1735.542,54,6,1736.541,1736.541,1737.975,space,1.419,,0,41,41,41,1,175,55,,,,,,,,
,,5f13b5cb93d2ed02c439577f,65af54492b7145c5d8c7598f,2024-01-22_23h53.52.469,bars,2023.2.3,Win32,60.0240096,657b66ea316d21385b68909f,,,,,,,,,,,1737.975,1738.974,,,1739.475,1739.725,,167,-13,,,,,,,,,,,,,,,,bars/040.png,bars/mask006.png,,,,,,,,,,,,4,2,,,,,,,2,10,2,10,,,,,,,,,,,1738.974,1739.475,1739.725,1743.246,space,3.516,,1743.246,27,18,1744.242,1744.242,1745.227,space,0.976,,0,42,42,42,1,140,5,,,,,,,,
,,5f13b5cb93d2ed02c439577f,65af54492b7145c5d8c7598f,2024-01-22_23h53.52.469,bars,2023.2.3,Win32,60.0240096,657b66ea316d21385b68909f,,,,,,,,,,,1745.227,1746.225,,,1746.726,1746.975,,121,121,,,,,,,,,,,,,,,,bars/011.png,bars/mask004.png,,,,,,,,,,,,0,2,,,,,,,4,10,4,9,,,,,,,,,,,1746.225,1746.726,1746.975,1748.875,space,1.885,,1748.875,39,36,1749.875,1749.875,1750.508,space,0.617,,0,43,43,43,1,160,85,,,,,,,,
,,5f13b5cb93d2ed02c439577f,65af54492b7145c5d8c7598f,2024-01-22_23h53.52.469,bars,2023.2.3,Win32,60.0240096,657b66ea316d21385b68909f,,,,,,,,,,,1750.509,1751.509,,,1752.008,1752.258,,85,85,,,,,,,,,,,,,,,,bars/037.png,bars/mask003.png,,,,,,,,,,,,3,2,,,,,,,6,8,7,8,,,,,,,,,,,1751.509,1752.008,1752.258,1754.459,space,2.194,,1754.459,65,20,1755.458,1755.458,1756.743,space,1.27,,0,44,44,44,1,150,105,,,,,,,,
,,5f13b5cb93d2ed02c439577f,65af54492b7145c5d8c7598f,2024-01-22_23h53.52.469,bars,2023.2.3,Win32,60.0240096,657b66ea316d21385b68909f,,,,,,,,,,,1756.744,1757.741,,,1758.242,1758.492,,36,36,,,,,,,,,,,,,,,,bars/031.png,bars/mask005.png,,,,,,,,,,,,10,2,,,,,,,4,10,2,10,,,,,,,,,,,1757.741,1758.242,1758.492,1760.026,space,1.529,,1760.026,84,1,1761.026,1761.026,1763.008,space,1.967,,0,45,45,45,1,120,35,,,,,,,,
,,5f13b5cb93d2ed02c439577f,65af54492b7145c5d8c7598f,2024-01-22_23h53.52.469,bars,2023.2.3,Win32,60.0240096,657b66ea316d21385b68909f,,,,,,,,,,,1763.01,1764.008,,,1764.508,1764.759,,51,51,,,,,,,,,,,,,,,,bars/013.png,bars/mask009.png,,,,,,,,,,,,0,1,,,,,,,2,8,2,6,,,,,,,,,,,1764.008,1764.508,1764.759,1767.358,space,2.583,,1767.358,24,41,1768.358,1768.358,1768.924,space,0.547,,0,46,46,46,1,75,10,,,,,,,,
,,5f13b5cb93d2ed02c439577f,65af54492b7145c5d8c7598f,2024-01-22_23h53.52.469,bars,2023.2.3,Win32,60.0240096,657b66ea316d21385b68909f,,,,,,,,,,,1768.925,1769.925,,,1770.424,1770.675,,49,49,,,,,,,,,,,,,,,,bars/028.png,bars/mask009.png,,,,,,,,,,,,3,1,,,,,,,4,6,4,7,,,,,,,,,,,1769.925,1770.424,1770.675,1772.875,space,2.191,,1772.876,4,71,1773.875,1773.875,1774.725,space,0.831,,0,47,47,47,1,45,120,,,,,,,,
,,5f13b5cb93d2ed02c439577f,65af54492b7145c5d8c7598f,2024-01-22_23h53.52.469,bars,2023.2.3,Win32,60.0240096,657b66ea316d21385b68909f,,,,,,,,,,,1774.726,1775.725,,,1776.225,1776.475,,43,43,,,,,,,,,,,,,,,,bars/013.png,bars/mask000.png,,,,,,,,,,,,0,1,,,,,,,2,8,2,7,,,,,,,,,,,1775.725,1776.225,1776.475,1779.092,space,2.607,,1779.092,32,33,1780.091,1780.091,1781.959,space,1.855,,0,48,48,48,1,75,10,,,,,,,,
,,5f13b5cb93d2ed02c439577f,65af54492b7145c5d8c7598f,2024-01-22_23h53.52.469,bars,2023.2.3,Win32,60.0240096,657b66ea316d21385b68909f,,,,,,,,,,,1781.961,1782.958,,,1783.458,1783.709,,87,87,,,,,,,,,,,,,,,,bars/023.png,bars/mask005.png,,,,,,,,,,,,1,2,,,,,,,0,10,0,10,,,,,,,,,,,1782.958,1783.458,1783.709,1786.076,space,2.36,,1786.076,67,28,1787.075,1787.075,1787.98,space,0.886,,0,49,49,49,1,20,115,,,,,,,,
,,5f13b5cb93d2ed02c439577f,65af54492b7145c5d8c7598f,2024-01-22_23h53.52.469,bars,2023.2.3,Win32,60.0240096,657b66ea316d21385b68909f,,,,,,,,,,,,,,,,,,,,,,,,,,,,,,,,,,,,,,,,,,,,,,,,,,,,,,,,,,,,,,,,,,,,,,,,,,,,,,,,,,,,,,,,,,,,,1787.98,1847.977,0,0,0,0,1,sequence_tables/blk026.csv
,,5f13b5cb93d2ed02c439577f,65af54492b7145c5d8c7598f,2024-01-22_23h53.52.469,bars,2023.2.3,Win32,60.0240096,657b66ea316d21385b68909f,,,,,,,,,,,1913.652,1914.644,,,1915.144,1915.397,,166,166,,,,,,,,,,,,,,,,bars/024.png,bars/mask003.png,,,,,,,,,,,,3,2,,,,,,,1,3,2,3,,,,,,1847.98,1913.644,space,65.657,,1914.644,1915.144,1915.397,1916.979,space,1.574,,1916.979,46,4,1917.977,1917.977,1917.982,,,,0,0,0,0,1,120,170,,,,,,,,
,,5f13b5cb93d2ed02c439577f,65af54492b7145c5d8c7598f,2024-01-22_23h53.52.469,bars,2023.2.3,Win32,60.0240096,657b66ea316d21385b68909f,,,,,,,,,,,1917.982,1918.977,,,1919.477,1919.727,,61,61,,,,,,,,,,,,,,,,bars/047.png,bars/mask000.png,,,,,,,,,,,,4,2,,,,,,,3,5,4,6,,,,,,,,,,,1918.977,1919.476,1919.727,1921.894,space,2.158,,1921.894,46,9,1922.895,1922.895,1922.895,,,,0,1,1,1,1,15,70,,,,,,,,
,,5f13b5cb93d2ed02c439577f,65af54492b7145c5d8c7598f,2024-01-22_23h53.52.469,bars,2023.2.3,Win32,60.0240096,657b66ea316d21385b68909f,,,,,,,,,,,1922.896,1923.894,,,1924.395,1924.644,,82,82,,,,,,,,,,,,,,,,bars/046.png,bars/mask000.png,,,,,,,,,,,,3,2,,,,,,,1,3,2,3,,,,,,,,,,,1923.895,1924.395,1924.644,1928.927,space,4.268,,1928.927,73,3,1929.928,1929.928,1929.929,,,,0,2,2,2,1,155,85,,,,,,,,
,,5f13b5cb93d2ed02c439577f,65af54492b7145c5d8c7598f,2024-01-22_23h53.52.469,bars,2023.2.3,Win32,60.0240096,657b66ea316d21385b68909f,,,,,,,,,,,1929.929,1930.927,,,1931.427,1931.678,,14,194,,,,,,,,,,,,,,,,bars/032.png,bars/mask001.png,,,,,,,,,,,,1,2,,,,,,,0,1,1,1,,,,,,,,,,,1930.927,1931.427,1931.678,1936.244,space,4.558,,1936.244,69,6,1937.244,1937.244,1937.246,,,,0,3,3,3,1,125,20,,,,,,,,
,,5f13b5cb93d2ed02c439577f,65af54492b7145c5d8c7598f,2024-01-22_23h53.52.469,bars,2023.2.3,Win32,60.0240096,657b66ea316d21385b68909f,,,,,,,,,,,1937.247,1938.244,,,1938.744,1938.994,,149,149,,,,,,,,,,,,,,,,bars/007.png,bars/mask002.png,,,,,,,,,,,,0,1,,,,,,,2,3,1,3,,,,,,,,,,,1938.244,1938.744,1938.994,1941.527,space,2.518,,1941.527,26,86,1942.527,1942.527,1942.531,,,,0,4,4,4,1,175,55,,,,,,,,
,,5f13b5cb93d2ed02c439577f,65af54492b7145c5d8c7598f,2024-01-22_23h53.52.469,bars,2023.2.3,Win32,60.0240096,657b66ea316d21385b68909f,,,,,,,,,,,1942.531,1943.527,,,1944.027,1944.277,,67,67,,,,,,,,,,,,,,,,bars/001.png,bars/mask001.png,,,,,,,,,,,,0,2,,,,,,,4,1,3,1,,,,,,,,,,,1943.527,1944.027,1944.277,1946.611,space,2.329,,1946.611,63,18,1947.611,1947.611,1947.615,,,,0,5,5,5,1,130,85,,,,,,,,
,,5f13b5cb93d2ed02c439577f,65af54492b7145c5d8c7598f,2024-01-22_23h53.52.469,bars,2023.2.3,Win32,60.0240096,657b66ea316d21385b68909f,,,,,,,,,,,1947.616,1948.61,,,1949.111,1949.361,,55,55,,,,,,,,,,,,,,,,bars/038.png,bars/mask004.png,,,,,,,,,,,,1,2,,,,,,,6,3,5,2,,,,,,,,,,,1948.61,1949.111,1949.362,1951.445,space,2.065,,1951.445,70,15,1952.444,1952.444,1952.448,,,,0,6,6,6,1,165,70,,,,,,,,
,,5f13b5cb93d2ed02c439577f,65af54492b7145c5d8c7598f,2024-01-22_23h53.52.469,bars,2023.2.3,Win32,60.0240096,657b66ea316d21385b68909f,,,,,,,,,,,1952.448,1953.443,,,1953.944,1954.195,,89,89,,,,,,,,,,,,,,,,bars/048.png,bars/mask007.png,,,,,,,,,,,,0,1,,,,,,,4,5,5,4,,,,,,,,,,,1953.444,1953.944,1954.195,1959.078,space,4.87,,1959.079,39,86,1960.078,1960.078,1960.082,,,,0,7,7,7,1,50,175,,,,,,,,
,,5f13b5cb93d2ed02c439577f,65af54492b7145c5d8c7598f,2024-01-22_23h53.52.469,bars,2023.2.3,Win32,60.0240096,657b66ea316d21385b68909f,,,,,,,,,,,1960.083,1961.077,,,1961.578,1961.827,,123,123,,,,,,,,,,,,,,,,bars/031.png,bars/mask004.png,,,,,,,,,,,,6,1,,,,,,,6,7,7,8,,,,,,,,,,,1961.077,1961.578,1961.827,1964.961,space,3.115,,1964.961,3,88,1965.961,1965.961,1965.962,,,,0,8,8,8,1,120,35,,,,,,,,
,,5f13b5cb93d2ed02c439577f,65af54492b7145c5d8c7598f,2024-01-22_23h53.52.469,bars,2023.2.3,Win32,60.0240096,657b66ea316d21385b68909f,,,,,,,,,,,1965.963,1966.961,,,1967.462,1967.712,,59,59,,,,,,,,,,,,,,,,bars/026.png,bars/mask003.png,,,,,,,,,,,,1,1,,,,,,,4,9,5,8,,,,,,,,,,,1966.961,1967.462,1967.712,1970.111,space,2.389,,1970.111,24,26,1971.11,1971.11,1971.112,,,,0,9,9,9,1,35,85,,,,,,,,
,,5f13b5cb93d2ed02c439577f,65af54492b7145c5d8c7598f,2024-01-22_23h53.52.469,bars,2023.2.3,Win32,60.0240096,657b66ea316d21385b68909f,,,,,,,,,,,1971.112,1972.111,,,1972.611,1972.86,,135,135,,,,,,,,,,,,,,,,bars/042.png,bars/mask006.png,,,,,,,,,,,,4,1,,,,,,,6,10,6,10,,,,,,,,,,,1972.111,1972.611,1972.86,1975.061,space,2.186,,1975.062,10,60,1976.061,1976.062,1976.067,,,,0,10,10,10,1,145,75,,,,,,,,
,,5f13b5cb93d2ed02c439577f,65af54492b7145c5d8c7598f,2024-01-22_23h53.52.469,bars,2023.2.3,Win32,60.0240096,657b66ea316d21385b68909f,,,,,,,,,,,1976.068,1977.061,,,1977.561,1977.811,,134,134,,,,,,,,,,,,,,,,bars/040.png,bars/mask007.png,,,,,,,,,,,,7,1,,,,,,,8,8,9,9,,,,,,,,,,,1977.061,1977.561,1977.811,1979.878,space,2.057,,1979.878,6,51,1980.878,1980.878,1980.879,,,,0,11,11,11,1,140,5,,,,,,,,
,,5f13b5cb93d2ed02c439577f,65af54492b7145c5d8c7598f,2024-01-22_23h53.52.469,bars,2023.2.3,Win32,60.0240096,657b66ea316d21385b68909f,,,,,,,,,,,1980.879,1981.877,,,1982.377,1982.628,,57,57,,,,,,,,,,,,,,,,bars/029.png,bars/mask004.png,,,,,,,,,,,,5,2,,,,,,,6,6,5,8,,,,,,,,,,,1981.877,1982.377,1982.628,1984.963,space,2.33,,1984.963,33,12,1985.961,1985.961,1985.967,,,,0,12,12,12,1,90,45,,,,,,,,
,,5f13b5cb93d2ed02c439577f,65af54492b7145c5d8c7598f,2024-01-22_23h53.52.469,bars,2023.2.3,Win32,60.0240096,657b66ea316d21385b68909f,,,,,,,,,,,1985.968,1986.961,,,1987.461,1987.711,,100,100,,,,,,,,,,,,,,,,bars/045.png,bars/mask001.png,,,,,,,,,,,,4,1,,,,,,,4,4,4,5,,,,,,,,,,,1986.961,1987.461,1987.711,1991.895,space,4.166,,1991.895,0,90,1992.894,1992.894,1992.898,,,,0,13,13,13,1,100,10,,,,,,,,
,,5f13b5cb93d2ed02c439577f,65af54492b7145c5d8c7598f,2024-01-22_23h53.52.469,bars,2023.2.3,Win32,60.0240096,657b66ea316d21385b68909f,,,,,,,,,,,1992.898,1993.895,,,1994.395,1994.644,,55,55,,,,,,,,,,,,,,,,bars/028.png,bars/mask008.png,,,,,,,,,,,,4,1,,,,,,,6,6,6,7,,,,,,,,,,,1993.895,1994.395,1994.644,1996.245,space,1.593,,1996.245,10,65,1997.245,1997.245,1997.248,,,,0,14,14,14,1,45,120,,,,,,,,
,,5f13b5cb93d2ed02c439577f,65af54492b7145c5d8c7598f,2024-01-22_23h53.52.469,bars,2023.2.3,Win32,60.0240096,657b66ea316d21385b68909f,,,,,,,,,,,1997.248,1998.246,,,1998.746,1998.995,,17,17,,,,,,,,,,,,,,,,bars/047.png,bars/mask008.png,,,,,,,,,,,,7,1,,,,,,,8,4,8,3,,,,,,,,,,,1998.246,1998.746,1998.995,2002.094,space,3.089,,2002.094,2,53,2003.095,2003.095,2003.097,,,,0,15,15,15,1,15,70,,,,,,,,
,,5f13b5cb93d2ed02c439577f,65af54492b7145c5d8c7598f,2024-01-22_23h53.52.469,bars,2023.2.3,Win32,60.0240096,657b66ea316d21385b68909f,,,,,,,,,,,2003.097,2004.094,,,2004.594,2004.845,,116,116,,,,,,,,,,,,,,,,bars/010.png,bars/mask006.png,,,,,,,,,,,,0,1,,,,,,,10,6,10,4,,,,,,,,,,,2004.094,2004.594,2004.845,2008.928,space,4.074,,2008.929,49,61,2009.928,2009.928,2009.929,,,,0,16,16,16,1,165,55,,,,,,,,
,,5f13b5cb93d2ed02c439577f,65af54492b7145c5d8c7598f,2024-01-22_23h53.52.469,bars,2023.2.3,Win32,60.0240096,657b66ea316d21385b68909f,,,,,,,,,,,2009.929,2010.928,,,2011.428,2011.678,,94,94,,,,,,,,,,,,,,,,bars/027.png,bars/mask004.png,,,,,,,,,,,,5,1,,,,,,,10,4,10,5,,,,,,,,,,,2010.928,2011.428,2011.678,2016.18,space,4.495,,2016.183,16,44,2017.178,2017.178,2017.184,,,,0,17,17,17,1,110,50,,,,,,,,
,,5f13b5cb93d2ed02c439577f,65af54492b7145c5d8c7598f,2024-01-22_23h53.52.469,bars,2023.2.3,Win32,60.0240096,657b66ea316d21385b68909f,,,,,,,,,,,2017.185,2018.178,,,2018.679,2018.928,,107,-73,,,,,,,,,,,,,,,,bars/002.png,bars/mask008.png,,,,,,,,,,,,2,2,,,,,,,10,6,9,8,,,,,,,,,,,2018.178,2018.679,2018.928,2022.546,space,3.606,,2022.546,23,22,2023.545,2023.545,2023.549,,,,0,18,18,18,1,130,85,,,,,,,,
,,5f13b5cb93d2ed02c439577f,65af54492b7145c5d8c7598f,2024-01-22_23h53.52.469,bars,2023.2.3,Win32,60.0240096,657b66ea316d21385b68909f,,,,,,,,,,,2023.549,2024.545,,,2025.045,2025.294,,103,103,,,,,,,,,,,,,,,,bars/006.png,bars/mask009.png,,,,,,,,,,,,7,2,,,,,,,10,8,10,8,,,,,,,,,,,2024.545,2025.044,2025.294,2028.247,space,2.936,,2028.247,68,3,2029.247,2029.247,2029.249,,,,0,19,19,19,1,35,100,,,,,,,,
,,5f13b5cb93d2ed02c439577f,65af54492b7145c5d8c7598f,2024-01-22_23h53.52.469,bars,2023.2.3,Win32,60.0240096,657b66ea316d21385b68909f,,,,,,,,,,,2029.25,2030.247,,,2030.745,2030.995,,37,37,,,,,,,,,,,,,,,,bars/022.png,bars/mask004.png,,,,,,,,,,,,3,2,,,,,,,10,6,10,6,,,,,,,,,,,2030.247,2030.745,2030.995,2032.745,space,1.736,,2032.745,58,17,2033.745,2033.745,2033.746,,,,0,20,20,20,1,95,20,,,,,,,,
,,5f13b5cb93d2ed02c439577f,65af54492b7145c5d8c7598f,2024-01-22_23h53.52.469,bars,2023.2.3,Win32,60.0240096,657b66ea316d21385b68909f,,,,,,,,,,,2033.747,2034.745,,,2035.245,2035.496,,147,147,,,,,,,,,,,,,,,,bars/014.png,bars/mask004.png,,,,,,,,,,,,0,2,,,,,,,8,4,7,7,,,,,,,,,,,2034.745,2035.245,2035.496,2037.095,space,1.591,,2037.095,67,33,2038.095,2038.095,2038.097,,,,0,21,21,21,1,80,0,,,,,,,,
,,5f13b5cb93d2ed02c439577f,65af54492b7145c5d8c7598f,2024-01-22_23h53.52.469,bars,2023.2.3,Win32,60.0240096,657b66ea316d21385b68909f,,,,,,,,,,,2038.098,2039.096,,,2039.596,2039.846,,91,91,,,,,,,,,,,,,,,,bars/021.png,bars/mask001.png,,,,,,,,,,,,1,2,,,,,,,10,2,10,2,,,,,,,,,,,2039.096,2039.596,2039.846,2043.88,space,4.021,,2043.88,64,21,2044.878,2044.879,2044.88,,,,0,22,22,22,1,155,70,,,,,,,,
,,5f13b5cb93d2ed02c439577f,65af54492b7145c5d8c7598f,2024-01-22_23h53.52.469,bars,2023.2.3,Win32,60.0240096,657b66ea316d21385b68909f,,,,,,,,,,,2044.881,2045.878,,,2046.379,2046.628,,135,135,,,,,,,,,,,,,,,,bars/039.png,bars/mask000.png,,,,,,,,,,,,0,2,,,,,,,10,0,9,0,,,,,,,,,,,2045.878,2046.379,2046.628,2049.547,space,2.914,,2049.547,40,30,2050.547,2050.547,2050.551,,,,0,23,23,23,1,175,105,,,,,,,,
,,5f13b5cb93d2ed02c439577f,65af54492b7145c5d8c7598f,2024-01-22_23h53.52.469,bars,2023.2.3,Win32,60.0240096,657b66ea316d21385b68909f,,,,,,,,,,,2050.552,2051.545,,,2052.045,2052.295,,60,60,,,,,,,,,,,,,,,,bars/019.png,bars/mask009.png,,,,,,,,,,,,4,1,,,,,,,8,2,8,2,,,,,,,,,,,2051.545,2052.045,2052.295,2055.079,space,2.771,,2055.079,15,45,2056.079,2056.079,2056.085,,,,0,24,24,24,1,45,105,,,,,,,,
,,5f13b5cb93d2ed02c439577f,65af54492b7145c5d8c7598f,2024-01-22_23h53.52.469,bars,2023.2.3,Win32,60.0240096,657b66ea316d21385b68909f,,,,,,,,,,,2056.086,2057.079,,,2057.579,2057.83,,50,230,,,,,,,,,,,,,,,,bars/019.png,bars/mask007.png,,,,,,,,,,,,8,1,,,,,,,10,4,10,3,,,,,,,,,,,2057.079,2057.579,2057.83,2061.996,space,4.157,,2061.996,5,55,2062.997,2062.997,2062.998,,,,0,25,25,25,1,45,105,,,,,,,,
,,5f13b5cb93d2ed02c439577f,65af54492b7145c5d8c7598f,2024-01-22_23h53.52.469,bars,2023.2.3,Win32,60.0240096,657b66ea316d21385b68909f,,,,,,,,,,,2062.998,2063.996,,,2064.495,2064.747,,172,172,,,,,,,,,,,,,,,,bars/018.png,bars/mask000.png,,,,,,,,,,,,2,1,,,,,,,8,6,8,6,,,,,,,,,,,2063.996,2064.495,2064.747,2066.045,space,1.283,,2066.045,22,82,2067.045,2067.045,2067.048,,,,0,26,26,26,1,150,90,,,,,,,,
,,5f13b5cb93d2ed02c439577f,65af54492b7145c5d8c7598f,2024-01-22_23h53.52.469,bars,2023.2.3,Win32,60.0240096,657b66ea316d21385b68909f,,,,,,,,,,,2067.049,2068.045,,,2068.546,2068.796,,128,128,,,,,,,,,,,,,,,,bars/030.png,bars/mask000.png,,,,,,,,,,,,4,1,,,,,,,6,4,7,4,,,,,,,,,,,2068.046,2068.545,2068.796,2071.113,space,2.3,,2071.113,12,63,2072.113,2072.113,2072.113,,,,0,27,27,27,1,140,65,,,,,,,,
,,5f13b5cb93d2ed02c439577f,65af54492b7145c5d8c7598f,2024-01-22_23h53.52.469,bars,2023.2.3,Win32,60.0240096,657b66ea316d21385b68909f,,,,,,,,,,,2072.113,2073.113,,,2073.614,2073.862,,90,90,,,,,,,,,,,,,,,,bars/015.png,bars/mask000.png,,,,,,,,,,,,2,1,,,,,,,8,6,7,7,,,,,,,,,,,2073.113,2073.614,2073.862,2077.462,space,3.591,,2077.462,20,70,2078.463,2078.463,2078.464,,,,0,28,28,28,1,110,160,,,,,,,,
,,5f13b5cb93d2ed02c439577f,65af54492b7145c5d8c7598f,2024-01-22_23h53.52.469,bars,2023.2.3,Win32,60.0240096,657b66ea316d21385b68909f,,,,,,,,,,,2078.465,2079.462,,,2079.962,2080.212,,122,122,,,,,,,,,,,,,,,,bars/017.png,bars/mask008.png,,,,,,,,,,,,2,1,,,,,,,10,4,9,5,,,,,,,,,,,2079.462,2079.962,2080.212,2082.295,space,2.071,,2082.295,23,77,2083.298,2083.298,2083.303,,,,0,29,29,29,1,145,45,,,,,,,,
,,5f13b5cb93d2ed02c439577f,65af54492b7145c5d8c7598f,2024-01-22_23h53.52.469,bars,2023.2.3,Win32,60.0240096,657b66ea316d21385b68909f,,,,,,,,,,,2083.304,2084.295,,,2084.797,2085.045,,110,110,,,,,,,,,,,,,,,,bars/005.png,bars/mask001.png,,,,,,,,,,,,0,2,,,,,,,8,2,8,0,,,,,,,,,,,2084.295,2084.797,2085.045,2088.03,space,2.966,,2088.03,80,30,2089.029,2089.029,2089.034,,,,0,30,30,30,1,10,140,,,,,,,,
,,5f13b5cb93d2ed02c439577f,65af54492b7145c5d8c7598f,2024-01-22_23h53.52.469,bars,2023.2.3,Win32,60.0240096,657b66ea316d21385b68909f,,,,,,,,,,,2089.035,2090.029,,,2090.53,2090.784,,139,139,,,,,,,,,,,,,,,,bars/034.png,bars/mask004.png,,,,,,,,,,,,5,1,,,,,,,10,4,10,4,,,,,,,,,,,2090.029,2090.53,2090.784,2092.779,space,1.99,,2092.779,14,74,2093.779,2093.779,2093.783,,,,0,31,31,31,1,125,65,,,,,,,,
,,5f13b5cb93d2ed02c439577f,65af54492b7145c5d8c7598f,2024-01-22_23h53.52.469,bars,2023.2.3,Win32,60.0240096,657b66ea316d21385b68909f,,,,,,,,,,,2093.783,2094.778,,,2095.28,2095.529,,83,83,,,,,,,,,,,,,,,,bars/003.png,bars/mask002.png,,,,,,,,,,,,0,2,,,,,,,8,2,7,2,,,,,,,,,,,2094.778,2095.28,2095.53,2097.58,space,2.042,,2097.58,58,57,2098.58,2098.58,2098.583,,,,0,32,32,32,1,25,140,,,,,,,,
,,5f13b5cb93d2ed02c439577f,65af54492b7145c5d8c7598f,2024-01-22_23h53.52.469,bars,2023.2.3,Win32,60.0240096,657b66ea316d21385b68909f,,,,,,,,,,,2098.583,2099.579,,,2100.08,2100.329,,147,147,,,,,,,,,,,,,,,,bars/030.png,bars/mask005.png,,,,,,,,,,,,8,1,,,,,,,10,0,10,1,,,,,,,,,,,2099.579,2100.08,2100.329,2103.712,space,3.371,,2103.712,7,82,2104.712,2104.712,2104.716,,,,0,33,33,33,1,140,65,,,,,,,,
,,5f13b5cb93d2ed02c439577f,65af54492b7145c5d8c7598f,2024-01-22_23h53.52.469,bars,2023.2.3,Win32,60.0240096,657b66ea316d21385b68909f,,,,,,,,,,,2104.716,2105.714,,,2106.212,2106.462,,142,142,,,,,,,,,,,,,,,,bars/016.png,bars/mask002.png,,,,,,,,,,,,0,2,,,,,,,10,0,10,1,,,,,,,,,,,2105.715,2106.212,2106.462,2110.53,space,4.063,,2110.53,78,23,2111.529,2111.529,2111.532,,,,0,34,34,34,1,40,165,,,,,,,,
,,5f13b5cb93d2ed02c439577f,65af54492b7145c5d8c7598f,2024-01-22_23h53.52.469,bars,2023.2.3,Win32,60.0240096,657b66ea316d21385b68909f,,,,,,,,,,,2111.532,2112.529,,,2113.03,2113.279,,164,-16,,,,,,,,,,,,,,,,bars/001.png,bars/mask000.png,,,,,,,,,,,,0,1,,,,,,,8,2,8,2,,,,,,,,,,,2112.529,2113.03,2113.279,2115.863,space,2.565,,2115.863,34,79,2116.872,2116.872,2116.881,,,,0,35,35,35,1,130,85,,,,,,,,
,,5f13b5cb93d2ed02c439577f,65af54492b7145c5d8c7598f,2024-01-22_23h53.52.469,bars,2023.2.3,Win32,60.0240096,657b66ea316d21385b68909f,,,,,,,,,,,2116.882,2117.879,,,2118.38,2118.63,,115,115,,,,,,,,,,,,,,,,bars/005.png,bars/mask002.png,,,,,,,,,,,,0,2,,,,,,,6,0,6,1,,,,,,,,,,,2117.879,2118.38,2118.63,2119.697,space,1.055,,2119.698,75,25,2120.696,2120.696,2120.701,,,,0,36,36,36,1,10,140,,,,,,,,
,,5f13b5cb93d2ed02c439577f,65af54492b7145c5d8c7598f,2024-01-22_23h53.52.469,bars,2023.2.3,Win32,60.0240096,657b66ea316d21385b68909f,,,,,,,,,,,2120.702,2121.696,,,2122.196,2122.447,,38,38,,,,,,,,,,,,,,,,bars/036.png,bars/mask007.png,,,,,,,,,,,,1,2,,,,,,,8,2,9,2,,,,,,,,,,,2121.696,2122.196,2122.447,2124.563,space,2.11,,2124.563,73,18,2125.564,2125.564,2125.566,,,,0,37,37,37,1,145,20,,,,,,,,
,,5f13b5cb93d2ed02c439577f,65af54492b7145c5d8c7598f,2024-01-22_23h53.52.469,bars,2023.2.3,Win32,60.0240096,657b66ea316d21385b68909f,,,,,,,,,,,2125.566,2126.563,,,2127.064,2127.314,,4,4,,,,,,,,,,,,,,,,bars/044.png,bars/mask005.png,,,,,,,,,,,,0,2,,,,,,,10,4,10,6,,,,,,,,,,,2126.563,2127.064,2127.314,2131.113,space,3.786,,2131.114,71,29,2132.113,2132.113,2132.114,,,,0,38,38,38,1,75,155,,,,,,,,
,,5f13b5cb93d2ed02c439577f,65af54492b7145c5d8c7598f,2024-01-22_23h53.52.469,bars,2023.2.3,Win32,60.0240096,657b66ea316d21385b68909f,,,,,,,,,,,2132.115,2133.113,,,2133.612,2133.863,,158,158,,,,,,,,,,,,,,,,bars/012.png,bars/mask002.png,,,,,,,,,,,,0,2,,,,,,,10,6,9,5,,,,,,,,,,,2133.113,2133.612,2133.863,2135.88,space,2.001,,2135.88,68,37,2136.879,2136.879,2136.882,,,,0,39,39,39,1,90,15,,,,,,,,
,,5f13b5cb93d2ed02c439577f,65af54492b7145c5d8c7598f,2024-01-22_23h53.52.469,bars,2023.2.3,Win32,60.0240096,657b66ea316d21385b68909f,,,,,,,,,,,2136.883,2137.88,,,2138.38,2138.63,,170,170,,,,,,,,,,,,,,,,bars/018.png,bars/mask005.png,,,,,,,,,,,,3,1,,,,,,,10,4,10,3,,,,,,,,,,,2137.88,2138.38,2138.63,2141.229,space,2.585,,2141.229,20,80,2142.23,2142.23,2142.233,,,,0,40,40,40,1,150,90,,,,,,,,
,,5f13b5cb93d2ed02c439577f,65af54492b7145c5d8c7598f,2024-01-22_23h53.52.469,bars,2023.2.3,Win32,60.0240096,657b66ea316d21385b68909f,,,,,,,,,,,2142.233,2143.229,,,2143.73,2143.979,,37,37,,,,,,,,,,,,,,,,bars/039.png,bars/mask000.png,,,,,,,,,,,,0,1,,,,,,,10,2,10,2,,,,,,,,,,,2143.229,2143.73,2143.98,2145.947,space,1.962,,2145.947,42,68,2146.946,2146.946,2146.947,,,,0,41,41,41,1,175,105,,,,,,,,
,,5f13b5cb93d2ed02c439577f,65af54492b7145c5d8c7598f,2024-01-22_23h53.52.469,bars,2023.2.3,Win32,60.0240096,657b66ea316d21385b68909f,,,,,,,,,,,2146.947,2147.947,,,2148.448,2148.697,,142,142,,,,,,,,,,,,,,,,bars/038.png,bars/mask003.png,,,,,,,,,,,,2,1,,,,,,,8,0,7,0,,,,,,,,,,,2147.947,2148.448,2148.697,2150.731,space,2.019,,2150.731,23,72,2151.73,2151.73,2151.735,,,,0,42,42,42,1,165,70,,,,,,,,
,,5f13b5cb93d2ed02c439577f,65af54492b7145c5d8c7598f,2024-01-22_23h53.52.469,bars,2023.2.3,Win32,60.0240096,657b66ea316d21385b68909f,,,,,,,,,,,2151.736,2152.73,,,2153.23,2153.481,,98,98,,,,,,,,,,,,,,,,bars/037.png,bars/mask005.png,,,,,,,,,,,,1,2,,,,,,,6,0,5,1,,,,,,,,,,,2152.73,2153.23,2153.481,2156.13,space,2.635,,2156.13,52,7,2157.13,2157.13,2157.137,,,,0,43,43,43,1,150,105,,,,,,,,
,,5f13b5cb93d2ed02c439577f,65af54492b7145c5d8c7598f,2024-01-22_23h53.52.469,bars,2023.2.3,Win32,60.0240096,657b66ea316d21385b68909f,,,,,,,,,,,2157.138,2158.129,,,2158.631,2158.88,,45,45,,,,,,,,,,,,,,,,bars/043.png,bars/mask008.png,,,,,,,,,,,,5,1,,,,,,,8,0,9,0,,,,,,,,,,,2158.129,2158.63,2158.88,2161.397,space,2.507,,2161.397,15,85,2162.397,2162.397,2162.401,,,,0,44,44,44,1,30,130,,,,,,,,
,,5f13b5cb93d2ed02c439577f,65af54492b7145c5d8c7598f,2024-01-22_23h53.52.469,bars,2023.2.3,Win32,60.0240096,657b66ea316d21385b68909f,,,,,,,,,,,2162.401,2163.397,,,2163.898,2164.147,,88,88,,,,,,,,,,,,,,,,bars/048.png,bars/mask004.png,,,,,,,,,,,,0,1,,,,,,,10,0,10,0,,,,,,,,,,,2163.397,2163.898,2164.147,2167.747,space,3.595,,2167.747,38,87,2168.747,2168.747,2168.75,,,,0,45,45,45,1,50,175,,,,,,,,
,,5f13b5cb93d2ed02c439577f,65af54492b7145c5d8c7598f,2024-01-22_23h53.52.469,bars,2023.2.3,Win32,60.0240096,657b66ea316d21385b68909f,,,,,,,,,,,2168.75,2169.747,,,2170.247,2170.497,,147,147,,,,,,,,,,,,,,,,bars/011.png,bars/mask007.png,,,,,,,,,,,,4,1,,,,,,,8,2,7,3,,,,,,,,,,,2169.747,2170.247,2170.497,2172.347,space,1.844,,2172.347,13,62,2173.347,2173.347,2173.348,,,,0,46,46,46,1,160,85,,,,,,,,
,,5f13b5cb93d2ed02c439577f,65af54492b7145c5d8c7598f,2024-01-22_23h53.52.469,bars,2023.2.3,Win32,60.0240096,657b66ea316d21385b68909f,,,,,,,,,,,2173.348,2174.346,,,2174.847,2175.101,,42,222,,,,,,,,,,,,,,,,bars/041.png,bars/mask002.png,,,,,,,,,,,,3,1,,,,,,,10,0,10,0,,,,,,,,,,,2174.346,2174.847,2175.101,2179.369,space,4.265,,2179.369,22,43,2180.364,2180.364,2180.401,,,,0,47,47,47,1,20,85,,,,,,,,
,,5f13b5cb93d2ed02c439577f,65af54492b7145c5d8c7598f,2024-01-22_23h53.52.469,bars,2023.2.3,Win32,60.0240096,657b66ea316d21385b68909f,,,,,,,,,,,2180.401,2181.397,,,2181.897,2182.148,,149,149,,,,,,,,,,,,,,,,bars/001.png,bars/mask000.png,,,,,,,,,,,,2,1,,,,,,,8,2,6,2,,,,,,,,,,,2181.397,2181.897,2182.148,2184.353,space,2.191,,2184.353,19,64,2185.346,2185.346,2185.349,,,,0,48,48,48,1,130,85,,,,,,,,
,,5f13b5cb93d2ed02c439577f,65af54492b7145c5d8c7598f,2024-01-22_23h53.52.469,bars,2023.2.3,Win32,60.0240096,657b66ea316d21385b68909f,,,,,,,,,,,2185.35,2186.347,,,2186.849,2187.097,,159,159,,,,,,,,,,,,,,,,bars/046.png,bars/mask004.png,,,,,,,,,,,,8,1,,,,,,,10,4,9,4,,,,,,,,,,,2186.347,2186.849,2187.097,2189.214,space,2.101,,2189.214,4,74,2190.214,2190.214,2190.216,,,,0,49,49,49,1,155,85,,,,,,,,
,,5f13b5cb93d2ed02c439577f,65af54492b7145c5d8c7598f,2024-01-22_23h53.52.469,bars,2023.2.3,Win32,60.0240096,657b66ea316d21385b68909f,,,,,,,,,,,,,,,,,,,,,,,,,,,,,,,,,,,,,,,,,,,,,,,,,,,,,,,,,,,,,,,,,,,,,,,,,,,,,,,,,,,,,,,,,,,,,2190.216,2250.216,0,1,1,1,1,sequence_tables/blk036.csv
,,5f13b5cb93d2ed02c439577f,65af54492b7145c5d8c7598f,2024-01-22_23h53.52.469,bars,2023.2.3,Win32,60.0240096,657b66ea316d21385b68909f,,,,,,,,,,,2252.289,2253.282,,,2253.781,2254.031,,79,79,,,,,,,,,,,,,,,,bars/029.png,bars/mask002.png,,,,,,,,,,,,3,1,,,,,,,2,3,5,3,,,,,,2250.22,2252.283,space,2.047,,2253.282,2253.78,2254.031,2256.931,space,2.892,,2256.931,11,34,2257.931,2257.931,2257.934,,,,0,0,0,0,1,90,45,,,,,,,,
,,5f13b5cb93d2ed02c439577f,65af54492b7145c5d8c7598f,2024-01-22_23h53.52.469,bars,2023.2.3,Win32,60.0240096,657b66ea316d21385b68909f,,,,,,,,,,,2257.935,2258.931,,,2259.431,2259.682,,163,-17,,,,,,,,,,,,,,,,bars/023.png,bars/mask009.png,,,,,,,,,,,,0,1,,,,,,,4,1,3,1,,,,,,,,,,,2258.931,2259.431,2259.682,2263.282,space,3.592,,2263.283,37,48,2264.281,2264.281,2264.283,,,,0,1,1,1,1,20,115,,,,,,,,
,,5f13b5cb93d2ed02c439577f,65af54492b7145c5d8c7598f,2024-01-22_23h53.52.469,bars,2023.2.3,Win32,60.0240096,657b66ea316d21385b68909f,,,,,,,,,,,2264.283,2265.281,,,2265.782,2266.031,,47,47,,,,,,,,,,,,,,,,bars/031.png,bars/mask008.png,,,,,,,,,,,,0,2,,,,,,,6,0,5,0,,,,,,,,,,,2265.281,2265.782,2266.032,2268.566,space,2.519,,2268.566,73,12,2269.566,2269.566,2269.57,,,,0,2,2,2,1,120,35,,,,,,,,
,,5f13b5cb93d2ed02c439577f,65af54492b7145c5d8c7598f,2024-01-22_23h53.52.469,bars,2023.2.3,Win32,60.0240096,657b66ea316d21385b68909f,,,,,,,,,,,2269.571,2270.565,,,2271.065,2271.314,,110,110,,,,,,,,,,,,,,,,bars/028.png,bars/mask008.png,,,,,,,,,,,,1,2,,,,,,,4,2,4,2,,,,,,,,,,,2270.565,2271.065,2271.314,2273.915,space,2.586,,2273.915,65,10,2274.914,2274.914,2274.916,,,,0,3,3,3,1,45,120,,,,,,,,
,,5f13b5cb93d2ed02c439577f,65af54492b7145c5d8c7598f,2024-01-22_23h53.52.469,bars,2023.2.3,Win32,60.0240096,657b66ea316d21385b68909f,,,,,,,,,,,2274.916,2275.914,,,2276.415,2276.665,,78,78,,,,,,,,,,,,,,,,bars/009.png,bars/mask005.png,,,,,,,,,,,,0,2,,,,,,,6,4,6,4,,,,,,,,,,,2275.914,2276.415,2276.665,2278.099,space,1.417,,2278.099,63,27,2279.098,2279.098,2279.1,,,,0,4,4,4,1,15,105,,,,,,,,
,,5f13b5cb93d2ed02c439577f,65af54492b7145c5d8c7598f,2024-01-22_23h53.52.469,bars,2023.2.3,Win32,60.0240096,657b66ea316d21385b68909f,,,,,,,,,,,2279.101,2280.098,,,2280.598,2280.849,,82,82,,,,,,,,,,,,,,,,bars/014.png,bars/mask001.png,,,,,,,,,,,,3,1,,,,,,,4,2,3,2,,,,,,,,,,,2280.098,2280.598,2280.849,2283.697,space,2.844,,2283.697,2,82,2284.698,2284.699,2284.704,,,,0,5,5,5,1,80,0,,,,,,,,
,,5f13b5cb93d2ed02c439577f,65af54492b7145c5d8c7598f,2024-01-22_23h53.52.469,bars,2023.2.3,Win32,60.0240096,657b66ea316d21385b68909f,,,,,,,,,,,2284.705,2285.698,,,2286.198,2286.448,,149,149,,,,,,,,,,,,,,,,bars/007.png,bars/mask004.png,,,,,,,,,,,,0,1,,,,,,,2,4,2,5,,,,,,,,,,,2285.698,2286.197,2286.448,2289.332,space,2.878,,2289.332,26,86,2290.332,2290.332,2290.335,,,,0,6,6,6,1,175,55,,,,,,,,
,,5f13b5cb93d2ed02c439577f,65af54492b7145c5d8c7598f,2024-01-22_23h53.52.469,bars,2023.2.3,Win32,60.0240096,657b66ea316d21385b68909f,,,,,,,,,,,2290.335,2291.332,,,2291.832,2292.082,,145,145,,,,,,,,,,,,,,,,bars/034.png,bars/mask002.png,,,,,,,,,,,,2,1,,,,,,,4,2,5,2,,,,,,,,,,,2291.332,2291.832,2292.082,2294.181,space,2.083,,2294.181,20,80,2295.182,2295.182,2295.184,,,,0,7,7,7,1,125,65,,,,,,,,
,,5f13b5cb93d2ed02c439577f,65af54492b7145c5d8c7598f,2024-01-22_23h53.52.469,bars,2023.2.3,Win32,60.0240096,657b66ea316d21385b68909f,,,,,,,,,,,2295.184,2296.182,,,2296.681,2296.931,,89,-91,,,,,,,,,,,,,,,,bars/004.png,bars/mask004.png,,,,,,,,,,,,0,2,,,,,,,2,4,2,6,,,,,,,,,,,2296.182,2296.681,2296.931,2301.032,space,4.087,,2301.032,64,36,2302.032,2302.032,2302.038,,,,0,8,8,8,1,25,125,,,,,,,,
,,5f13b5cb93d2ed02c439577f,65af54492b7145c5d8c7598f,2024-01-22_23h53.52.469,bars,2023.2.3,Win32,60.0240096,657b66ea316d21385b68909f,,,,,,,,,,,2302.038,2303.032,,,2303.533,2303.782,,111,111,,,,,,,,,,,,,,,,bars/040.png,bars/mask005.png,,,,,,,,,,,,0,1,,,,,,,0,2,0,2,,,,,,,,,,,2303.032,2303.533,2303.782,2306.065,space,2.276,,2306.065,29,74,2307.065,2307.065,2307.068,,,,0,9,9,9,1,140,5,,,,,,,,
,,5f13b5cb93d2ed02c439577f,65af54492b7145c5d8c7598f,2024-01-22_23h53.52.469,bars,2023.2.3,Win32,60.0240096,657b66ea316d21385b68909f,,,,,,,,,,,2307.068,2308.064,,,2308.566,2308.816,,103,103,,,,,,,,,,,,,,,,bars/001.png,bars/mask004.png,,,,,,,,,,,,2,2,,,,,,,0,4,0,5,,,,,,,,,,,2308.065,2308.566,2308.816,2310.248,space,1.416,,2310.248,27,18,2311.249,2311.249,2311.253,,,,0,10,10,10,1,130,85,,,,,,,,
,,5f13b5cb93d2ed02c439577f,65af54492b7145c5d8c7598f,2024-01-22_23h53.52.469,bars,2023.2.3,Win32,60.0240096,657b66ea316d21385b68909f,,,,,,,,,,,2311.254,2312.248,,,2312.749,2312.998,,75,75,,,,,,,,,,,,,,,,bars/002.png,bars/mask008.png,,,,,,,,,,,,0,2,,,,,,,2,2,1,0,,,,,,,,,,,2312.248,2312.749,2312.999,2316.735,space,3.727,,2316.735,55,10,2317.732,2317.732,2317.734,,,,0,11,11,11,1,130,85,,,,,,,,
,,5f13b5cb93d2ed02c439577f,65af54492b7145c5d8c7598f,2024-01-22_23h53.52.469,bars,2023.2.3,Win32,60.0240096,657b66ea316d21385b68909f,,,,,,,,,,,2317.735,2318.733,,,2319.231,2319.482,,163,163,,,,,,,,,,,,,,,,bars/037.png,bars/mask005.png,,,,,,,,,,,,3,1,,,,,,,4,4,5,5,,,,,,,,,,,2318.733,2319.231,2319.482,2321.215,space,1.716,,2321.215,13,58,2322.216,2322.216,2322.227,,,,0,12,12,12,1,150,105,,,,,,,,
,,5f13b5cb93d2ed02c439577f,65af54492b7145c5d8c7598f,2024-01-22_23h53.52.469,bars,2023.2.3,Win32,60.0240096,657b66ea316d21385b68909f,,,,,,,,,,,2322.229,2323.232,,,2323.731,2323.983,,140,140,,,,,,,,,,,,,,,,bars/039.png,bars/mask004.png,,,,,,,,,,,,0,2,,,,,,,2,2,0,3,,,,,,,,,,,2323.232,2323.731,2323.983,2326.432,space,2.435,,2326.432,35,35,2327.431,2327.431,2327.437,,,,0,13,13,13,1,175,105,,,,,,,,
,,5f13b5cb93d2ed02c439577f,65af54492b7145c5d8c7598f,2024-01-22_23h53.52.469,bars,2023.2.3,Win32,60.0240096,657b66ea316d21385b68909f,,,,,,,,,,,2327.438,2328.435,,,2328.932,2329.184,,156,156,,,,,,,,,,,,,,,,bars/039.png,bars/mask006.png,,,,,,,,,,,,2,1,,,,,,,4,4,5,4,,,,,,,,,,,2328.435,2328.932,2329.184,2330.45,space,1.261,,2330.45,19,51,2331.449,2331.449,2331.452,,,,0,14,14,14,1,175,105,,,,,,,,
,,5f13b5cb93d2ed02c439577f,65af54492b7145c5d8c7598f,2024-01-22_23h53.52.469,bars,2023.2.3,Win32,60.0240096,657b66ea316d21385b68909f,,,,,,,,,,,2331.453,2332.449,,,2332.948,2333.199,,91,91,,,,,,,,,,,,,,,,bars/022.png,bars/mask002.png,,,,,,,,,,,,1,1,,,,,,,2,6,1,7,,,,,,,,,,,2332.449,2332.948,2333.199,2336.715,space,3.502,,2336.719,4,71,2337.715,2337.715,2337.717,,,,0,15,15,15,1,95,20,,,,,,,,
,,5f13b5cb93d2ed02c439577f,65af54492b7145c5d8c7598f,2024-01-22_23h53.52.469,bars,2023.2.3,Win32,60.0240096,657b66ea316d21385b68909f,,,,,,,,,,,2337.718,2338.716,,,2339.22,2339.466,,57,57,,,,,,,,,,,,,,,,bars/000.png,bars/mask006.png,,,,,,,,,,,,1,1,,,,,,,4,4,2,5,,,,,,,,,,,2338.716,2339.22,2339.466,2341.482,space,2.011,,2341.482,17,88,2342.483,2342.483,2342.484,,,,0,16,16,16,1,40,145,,,,,,,,
,,5f13b5cb93d2ed02c439577f,65af54492b7145c5d8c7598f,2024-01-22_23h53.52.469,bars,2023.2.3,Win32,60.0240096,657b66ea316d21385b68909f,,,,,,,,,,,2342.484,2343.483,,,2343.982,2344.232,,179,179,,,,,,,,,,,,,,,,bars/032.png,bars/mask005.png,,,,,,,,,,,,1,2,,,,,,,6,2,5,2,,,,,,,,,,,2343.483,2343.982,2344.232,2346.798,space,2.551,,2346.798,54,21,2347.803,2347.803,2347.804,,,,0,17,17,17,1,125,20,,,,,,,,
,,5f13b5cb93d2ed02c439577f,65af54492b7145c5d8c7598f,2024-01-22_23h53.52.469,bars,2023.2.3,Win32,60.0240096,657b66ea316d21385b68909f,,,,,,,,,,,2347.805,2348.799,,,2349.299,2349.549,,74,74,,,,,,,,,,,,,,,,bars/012.png,bars/mask009.png,,,,,,,,,,,,3,1,,,,,,,8,4,7,3,,,,,,,,,,,2348.799,2349.299,2349.549,2352.617,space,3.05,,2352.618,16,59,2353.615,2353.615,2353.62,,,,0,18,18,18,1,90,15,,,,,,,,
,,5f13b5cb93d2ed02c439577f,65af54492b7145c5d8c7598f,2024-01-22_23h53.52.469,bars,2023.2.3,Win32,60.0240096,657b66ea316d21385b68909f,,,,,,,,,,,2353.621,2354.617,,,2355.116,2355.366,,46,226,,,,,,,,,,,,,,,,bars/027.png,bars/mask003.png,,,,,,,,,,,,3,2,,,,,,,6,2,5,3,,,,,,,,,,,2354.617,2355.115,2355.366,2359.399,space,4.017,,2359.4,64,4,2360.403,2360.403,2360.408,,,,0,19,19,19,1,110,50,,,,,,,,
,,5f13b5cb93d2ed02c439577f,65af54492b7145c5d8c7598f,2024-01-22_23h53.52.469,bars,2023.2.3,Win32,60.0240096,657b66ea316d21385b68909f,,,,,,,,,,,2360.408,2361.4,,,2361.9,2362.149,,169,-11,,,,,,,,,,,,,,,,bars/039.png,bars/mask004.png,,,,,,,,,,,,6,1,,,,,,,8,4,8,2,,,,,,,,,,,2361.4,2361.9,2362.149,2367.182,space,5.017,,2367.182,6,64,2368.183,2368.183,2368.187,,,,0,20,20,20,1,175,105,,,,,,,,
,,5f13b5cb93d2ed02c439577f,65af54492b7145c5d8c7598f,2024-01-22_23h53.52.469,bars,2023.2.3,Win32,60.0240096,657b66ea316d21385b68909f,,,,,,,,,,,2368.187,2369.182,,,2369.683,2369.932,,135,-45,,,,,,,,,,,,,,,,bars/008.png,bars/mask005.png,,,,,,,,,,,,1,1,,,,,,,6,6,5,6,,,,,,,,,,,2369.182,2369.683,2369.932,2373.716,space,3.776,,2373.716,25,45,2374.716,2374.716,2374.718,,,,0,21,21,21,1,110,0,,,,,,,,
,,5f13b5cb93d2ed02c439577f,65af54492b7145c5d8c7598f,2024-01-22_23h53.52.469,bars,2023.2.3,Win32,60.0240096,657b66ea316d21385b68909f,,,,,,,,,,,2374.718,2375.717,,,2376.215,2376.466,,129,129,,,,,,,,,,,,,,,,bars/000.png,bars/mask001.png,,,,,,,,,,,,2,2,,,,,,,8,4,9,4,,,,,,,,,,,2375.717,2376.215,2376.466,2379.85,space,3.378,,2379.85,89,16,2380.849,2380.849,2380.853,,,,0,22,22,22,1,40,145,,,,,,,,
,,5f13b5cb93d2ed02c439577f,65af54492b7145c5d8c7598f,2024-01-22_23h53.52.469,bars,2023.2.3,Win32,60.0240096,657b66ea316d21385b68909f,,,,,,,,,,,2380.853,2381.85,,,2382.349,2382.599,,64,64,,,,,,,,,,,,,,,,bars/028.png,bars/mask002.png,,,,,,,,,,,,4,1,,,,,,,10,2,10,2,,,,,,,,,,,2381.85,2382.349,2382.599,2384.732,space,2.116,,2384.732,19,56,2385.734,2385.734,2385.738,,,,0,23,23,23,1,45,120,,,,,,,,
,,5f13b5cb93d2ed02c439577f,65af54492b7145c5d8c7598f,2024-01-22_23h53.52.469,bars,2023.2.3,Win32,60.0240096,657b66ea316d21385b68909f,,,,,,,,,,,2385.739,2386.733,,,2387.232,2387.483,,82,82,,,,,,,,,,,,,,,,bars/020.png,bars/mask009.png,,,,,,,,,,,,0,1,,,,,,,10,4,10,6,,,,,,,,,,,2386.733,2387.232,2387.483,2390.117,space,2.621,,2390.117,33,88,2391.117,2391.117,2391.12,,,,0,24,24,24,1,115,170,,,,,,,,
,,5f13b5cb93d2ed02c439577f,65af54492b7145c5d8c7598f,2024-01-22_23h53.52.469,bars,2023.2.3,Win32,60.0240096,657b66ea316d21385b68909f,,,,,,,,,,,2391.121,2392.117,,,2392.617,2392.866,,157,157,,,,,,,,,,,,,,,,bars/007.png,bars/mask009.png,,,,,,,,,,,,4,1,,,,,,,10,6,9,7,,,,,,,,,,,2392.117,2392.616,2392.866,2395.583,space,2.706,,2395.583,18,78,2396.583,2396.583,2396.585,,,,0,25,25,25,1,175,55,,,,,,,,
,,5f13b5cb93d2ed02c439577f,65af54492b7145c5d8c7598f,2024-01-22_23h53.52.469,bars,2023.2.3,Win32,60.0240096,657b66ea316d21385b68909f,,,,,,,,,,,2396.585,2397.584,,,2398.082,2398.334,,72,72,,,,,,,,,,,,,,,,bars/035.png,bars/mask005.png,,,,,,,,,,,,5,2,,,,,,,10,8,10,8,,,,,,,,,,,2397.584,2398.082,2398.334,2400.867,space,2.52,,2400.867,77,12,2401.866,2401.866,2401.869,,,,0,26,26,26,1,175,60,,,,,,,,
,,5f13b5cb93d2ed02c439577f,65af54492b7145c5d8c7598f,2024-01-22_23h53.52.469,bars,2023.2.3,Win32,60.0240096,657b66ea316d21385b68909f,,,,,,,,,,,2401.869,2402.867,,,2403.367,2403.617,,120,120,,,,,,,,,,,,,,,,bars/037.png,bars/mask008.png,,,,,,,,,,,,5,2,,,,,,,10,10,10,10,,,,,,,,,,,2402.867,2403.367,2403.617,2407.816,space,4.181,,2407.816,30,15,2408.816,2408.816,2408.818,,,,0,27,27,27,1,150,105,,,,,,,,
,,5f13b5cb93d2ed02c439577f,65af54492b7145c5d8c7598f,2024-01-22_23h53.52.469,bars,2023.2.3,Win32,60.0240096,657b66ea316d21385b68909f,,,,,,,,,,,2408.818,2409.818,,,2410.318,2410.567,,55,55,,,,,,,,,,,,,,,,bars/027.png,bars/mask009.png,,,,,,,,,,,,7,2,,,,,,,10,8,10,8,,,,,,,,,,,2409.818,2410.317,2410.567,2413.133,space,2.55,,2413.133,55,5,2414.133,2414.133,2414.134,,,,0,28,28,28,1,110,50,,,,,,,,
,,5f13b5cb93d2ed02c439577f,65af54492b7145c5d8c7598f,2024-01-22_23h53.52.469,bars,2023.2.3,Win32,60.0240096,657b66ea316d21385b68909f,,,,,,,,,,,2414.135,2415.133,,,2415.634,2415.883,,38,38,,,,,,,,,,,,,,,,bars/034.png,bars/mask000.png,,,,,,,,,,,,1,2,,,,,,,8,10,8,10,,,,,,,,,,,2415.133,2415.634,2415.883,2418.399,space,2.5,,2418.399,87,27,2419.4,2419.4,2419.403,,,,0,29,29,29,1,125,65,,,,,,,,
,,5f13b5cb93d2ed02c439577f,65af54492b7145c5d8c7598f,2024-01-22_23h53.52.469,bars,2023.2.3,Win32,60.0240096,657b66ea316d21385b68909f,,,,,,,,,,,2419.404,2420.402,,,2420.903,2421.149,,9,9,,,,,,,,,,,,,,,,bars/025.png,bars/mask007.png,,,,,,,,,,,,0,2,,,,,,,6,10,7,10,,,,,,,,,,,2420.402,2420.903,2421.15,2422.35,space,1.185,,2422.35,84,31,2423.35,2423.35,2423.353,,,,0,30,30,30,1,105,40,,,,,,,,
,,5f13b5cb93d2ed02c439577f,65af54492b7145c5d8c7598f,2024-01-22_23h53.52.469,bars,2023.2.3,Win32,60.0240096,657b66ea316d21385b68909f,,,,,,,,,,,2423.353,2424.349,,,2424.85,2425.103,,77,77,,,,,,,,,,,,,,,,bars/011.png,bars/mask009.png,,,,,,,,,,,,7,2,,,,,,,4,10,3,10,,,,,,,,,,,2424.35,2424.85,2425.103,2427.883,space,2.766,,2427.883,83,8,2428.883,2428.883,2428.885,,,,0,31,31,31,1,160,85,,,,,,,,
,,5f13b5cb93d2ed02c439577f,65af54492b7145c5d8c7598f,2024-01-22_23h53.52.469,bars,2023.2.3,Win32,60.0240096,657b66ea316d21385b68909f,,,,,,,,,,,2428.885,2429.883,,,2430.383,2430.633,,110,110,,,,,,,,,,,,,,,,bars/004.png,bars/mask006.png,,,,,,,,,,,,5,2,,,,,,,6,10,7,10,,,,,,,,,,,2429.883,2430.383,2430.633,2435.683,space,5.034,,2435.684,85,15,2436.686,2436.686,2436.686,,,,0,32,32,32,1,25,125,,,,,,,,
,,5f13b5cb93d2ed02c439577f,65af54492b7145c5d8c7598f,2024-01-22_23h53.52.469,bars,2023.2.3,Win32,60.0240096,657b66ea316d21385b68909f,,,,,,,,,,,2436.687,2437.684,,,2438.183,2438.433,,152,-28,,,,,,,,,,,,,,,,bars/039.png,bars/mask003.png,,,,,,,,,,,,1,1,,,,,,,4,10,3,9,,,,,,,,,,,2437.684,2438.183,2438.433,2440.734,space,2.292,,2440.734,23,47,2441.734,2441.734,2441.738,,,,0,33,33,33,1,175,105,,,,,,,,
,,5f13b5cb93d2ed02c439577f,65af54492b7145c5d8c7598f,2024-01-22_23h53.52.469,bars,2023.2.3,Win32,60.0240096,657b66ea316d21385b68909f,,,,,,,,,,,2441.738,2442.733,,,2443.233,2443.483,,147,-33,,,,,,,,,,,,,,,,bars/036.png,bars/mask000.png,,,,,,,,,,,,7,1,,,,,,,6,8,8,8,,,,,,,,,,,2442.734,2443.233,2443.484,2446.584,space,3.089,,2446.584,2,53,2447.584,2447.584,2447.585,,,,0,34,34,34,1,145,20,,,,,,,,
,,5f13b5cb93d2ed02c439577f,65af54492b7145c5d8c7598f,2024-01-22_23h53.52.469,bars,2023.2.3,Win32,60.0240096,657b66ea316d21385b68909f,,,,,,,,,,,2447.585,2448.583,,,2449.084,2449.333,,113,113,,,,,,,,,,,,,,,,bars/026.png,bars/mask004.png,,,,,,,,,,,,0,2,,,,,,,4,6,4,6,,,,,,,,,,,2448.583,2449.084,2449.333,2453.85,space,4.51,,2453.851,78,28,2454.851,2454.851,2454.854,,,,0,35,35,35,1,35,85,,,,,,,,
,,5f13b5cb93d2ed02c439577f,65af54492b7145c5d8c7598f,2024-01-22_23h53.52.469,bars,2023.2.3,Win32,60.0240096,657b66ea316d21385b68909f,,,,,,,,,,,2454.855,2455.849,,,2456.35,2456.6,,151,-29,,,,,,,,,,,,,,,,bars/003.png,bars/mask003.png,,,,,,,,,,,,3,2,,,,,,,2,4,1,4,,,,,,,,,,,2455.849,2456.35,2456.6,2458.785,space,2.173,,2458.786,54,11,2459.784,2459.784,2459.787,,,,0,36,36,36,1,25,140,,,,,,,,
,,5f13b5cb93d2ed02c439577f,65af54492b7145c5d8c7598f,2024-01-22_23h53.52.469,bars,2023.2.3,Win32,60.0240096,657b66ea316d21385b68909f,,,,,,,,,,,2459.788,2460.784,,,2461.283,2461.538,,68,68,,,,,,,,,,,,,,,,bars/041.png,bars/mask003.png,,,,,,,,,,,,0,2,,,,,,,0,2,1,0,,,,,,,,,,,2460.784,2461.283,2461.538,2463.534,space,1.987,,2463.535,48,17,2464.534,2464.534,2464.537,,,,0,37,37,37,1,20,85,,,,,,,,
,,5f13b5cb93d2ed02c439577f,65af54492b7145c5d8c7598f,2024-01-22_23h53.52.469,bars,2023.2.3,Win32,60.0240096,657b66ea316d21385b68909f,,,,,,,,,,,2464.537,2465.533,,,2466.034,2466.284,,79,79,,,,,,,,,,,,,,,,bars/041.png,bars/mask005.png,,,,,,,,,,,,1,2,,,,,,,2,0,2,1,,,,,,,,,,,2465.534,2466.034,2466.284,2468.267,space,1.969,,2468.267,59,6,2469.268,2469.268,2469.269,,,,0,38,38,38,1,20,85,,,,,,,,
,,5f13b5cb93d2ed02c439577f,65af54492b7145c5d8c7598f,2024-01-22_23h53.52.469,bars,2023.2.3,Win32,60.0240096,657b66ea316d21385b68909f,,,,,,,,,,,2469.269,2470.267,,,2470.767,2471.017,,146,-34,,,,,,,,,,,,,,,,bars/032.png,bars/mask007.png,,,,,,,,,,,,2,1,,,,,,,4,2,5,2,,,,,,,,,,,2470.267,2470.767,2471.017,2475.266,space,4.232,,2475.267,21,54,2476.266,2476.266,2476.271,,,,0,39,39,39,1,125,20,,,,,,,,
,,5f13b5cb93d2ed02c439577f,65af54492b7145c5d8c7598f,2024-01-22_23h53.52.469,bars,2023.2.3,Win32,60.0240096,657b66ea316d21385b68909f,,,,,,,,,,,2476.271,2477.267,,,2477.767,2478.017,,151,151,,,,,,,,,,,,,,,,bars/001.png,bars/mask000.png,,,,,,,,,,,,2,1,,,,,,,6,0,7,1,,,,,,,,,,,2477.267,2477.767,2478.018,2479.734,space,1.701,,2479.734,21,66,2480.734,2480.734,2480.736,,,,0,40,40,40,1,130,85,,,,,,,,
,,5f13b5cb93d2ed02c439577f,65af54492b7145c5d8c7598f,2024-01-22_23h53.52.469,bars,2023.2.3,Win32,60.0240096,657b66ea316d21385b68909f,,,,,,,,,,,2480.737,2481.733,,,2482.233,2482.484,,123,123,,,,,,,,,,,,,,,,bars/020.png,bars/mask007.png,,,,,,,,,,,,3,1,,,,,,,4,2,4,2,,,,,,,,,,,2481.733,2482.233,2482.484,2484.402,space,1.904,,2484.402,8,47,2485.4,2485.4,2485.402,,,,0,41,41,41,1,115,170,,,,,,,,
,,5f13b5cb93d2ed02c439577f,65af54492b7145c5d8c7598f,2024-01-22_23h53.52.469,bars,2023.2.3,Win32,60.0240096,657b66ea316d21385b68909f,,,,,,,,,,,2485.402,2486.401,,,2486.9,2487.15,,48,228,,,,,,,,,,,,,,,,bars/028.png,bars/mask003.png,,,,,,,,,,,,1,1,,,,,,,2,4,1,3,,,,,,,,,,,2486.402,2486.9,2487.15,2490.934,space,3.765,,2490.934,3,72,2491.933,2491.933,2491.935,,,,0,42,42,42,1,45,120,,,,,,,,
,,5f13b5cb93d2ed02c439577f,65af54492b7145c5d8c7598f,2024-01-22_23h53.52.469,bars,2023.2.3,Win32,60.0240096,657b66ea316d21385b68909f,,,,,,,,,,,2491.936,2492.934,,,2493.424,2493.667,,164,164,,,,,,,,,,,,,,,,bars/049.png,bars/mask000.png,,,,,,,,,,,,1,1,,,,,,,0,2,1,1,,,,,,,,,,,2492.934,2493.424,2493.667,2496.421,space,2.749,,2496.421,4,49,2497.417,2497.417,2497.419,,,,0,43,43,43,1,160,115,,,,,,,,
,,5f13b5cb93d2ed02c439577f,65af54492b7145c5d8c7598f,2024-01-22_23h53.52.469,bars,2023.2.3,Win32,60.0240096,657b66ea316d21385b68909f,,,,,,,,,,,2497.419,2498.417,,,2498.917,2499.168,,94,94,,,,,,,,,,,,,,,,bars/015.png,bars/mask000.png,,,,,,,,,,,,0,1,,,,,,,0,4,0,4,,,,,,,,,,,2498.417,2498.917,2499.168,2501.601,space,2.42,,2501.602,16,66,2502.6,2502.601,2502.604,,,,0,44,44,44,1,110,160,,,,,,,,
,,5f13b5cb93d2ed02c439577f,65af54492b7145c5d8c7598f,2024-01-22_23h53.52.469,bars,2023.2.3,Win32,60.0240096,657b66ea316d21385b68909f,,,,,,,,,,,2502.604,2503.601,,,2504.1,2504.351,,19,199,,,,,,,,,,,,,,,,bars/014.png,bars/mask006.png,,,,,,,,,,,,3,2,,,,,,,0,6,0,9,,,,,,,,,,,2503.601,2504.1,2504.351,2506.351,space,1.988,,2506.351,61,19,2507.351,2507.351,2507.355,,,,0,45,45,45,1,80,0,,,,,,,,
,,5f13b5cb93d2ed02c439577f,65af54492b7145c5d8c7598f,2024-01-22_23h53.52.469,bars,2023.2.3,Win32,60.0240096,657b66ea316d21385b68909f,,,,,,,,,,,2507.355,2508.35,,,2508.851,2509.101,,167,-13,,,,,,,,,,,,,,,,bars/024.png,bars/mask004.png,,,,,,,,,,,,3,2,,,,,,,2,4,2,3,,,,,,,,,,,2508.35,2508.851,2509.101,2511.5,space,2.393,,2511.501,47,3,2512.501,2512.501,2512.503,,,,0,46,46,46,1,120,170,,,,,,,,
,,5f13b5cb93d2ed02c439577f,65af54492b7145c5d8c7598f,2024-01-22_23h53.52.469,bars,2023.2.3,Win32,60.0240096,657b66ea316d21385b68909f,,,,,,,,,,,2512.503,2513.501,,,2514.001,2514.255,,59,239,,,,,,,,,,,,,,,,bars/047.png,bars/mask002.png,,,,,,,,,,,,1,2,,,,,,,0,2,1,2,,,,,,,,,,,2513.501,2514.001,2514.255,2517.119,space,2.85,,2517.119,44,11,2518.117,2518.117,2518.118,,,,0,47,47,47,1,15,70,,,,,,,,
,,5f13b5cb93d2ed02c439577f,65af54492b7145c5d8c7598f,2024-01-22_23h53.52.469,bars,2023.2.3,Win32,60.0240096,657b66ea316d21385b68909f,,,,,,,,,,,2518.119,2519.118,,,2519.618,2519.868,,152,-28,,,,,,,,,,,,,,,,bars/000.png,bars/mask006.png,,,,,,,,,,,,4,2,,,,,,,0,4,2,5,,,,,,,,,,,2519.118,2519.618,2519.868,2522.72,space,2.839,,2522.72,68,7,2523.717,2523.717,2523.723,,,,0,48,48,48,1,40,145,,,,,,,,
,,5f13b5cb93d2ed02c439577f,65af54492b7145c5d8c7598f,2024-01-22_23h53.52.469,bars,2023.2.3,Win32,60.0240096,657b66ea316d21385b68909f,,,,,,,,,,,2523.724,2524.717,,,2525.217,2525.468,,80,80,,,,,,,,,,,,,,,,bars/025.png,bars/mask008.png,,,,,,,,,,,,0,1,,,,,,,2,2,1,3,,,,,,,,,,,2524.717,2525.217,2525.469,2527.919,space,2.439,,2527.919,25,40,2528.918,2528.918,2528.921,,,,0,49,49,49,1,105,40,,,,,,,,
,,5f13b5cb93d2ed02c439577f,65af54492b7145c5d8c7598f,2024-01-22_23h53.52.469,bars,2023.2.3,Win32,60.0240096,657b66ea316d21385b68909f,,,,,,,,,,,,,,,,,,,,,,,,,,,,,,,,,,,,,,,,,,,,,,,,,,,,,,,,,,,,,,,,,,,,,,,,,,,,,,,,,,,,,,,,,,,,,2528.921,2588.918,0,2,2,4,1,sequence_tables/blk016.csv
,,5f13b5cb93d2ed02c439577f,65af54492b7145c5d8c7598f,2024-01-22_23h53.52.469,bars,2023.2.3,Win32,60.0240096,657b66ea316d21385b68909f,,,,,,,,,,,2590.142,2591.135,,,2591.636,2591.886,,69,69,,,,,,,,,,,,,,,,bars/038.png,bars/mask000.png,,,,,,,,,,,,6,2,,,,,,,2,7,0,6,,,,,,2588.92,2590.137,space,1.202,,2591.135,2591.635,2591.886,2594.07,space,2.17,,2594.07,84,1,2595.07,2595.07,2595.073,,,,0,0,0,0,1,165,70,,,,,,,,
,,5f13b5cb93d2ed02c439577f,65af54492b7145c5d8c7598f,2024-01-22_23h53.52.469,bars,2023.2.3,Win32,60.0240096,657b66ea316d21385b68909f,,,,,,,,,,,2595.073,2596.068,,,2596.568,2596.82,,111,111,,,,,,,,,,,,,,,,bars/049.png,bars/mask005.png,,,,,,,,,,,,9,2,,,,,,,0,9,1,10,,,,,,,,,,,2596.069,2596.568,2596.82,2600.952,space,4.121,,2600.953,49,4,2601.952,2601.953,2601.954,,,,0,1,1,1,1,160,115,,,,,,,,
,,5f13b5cb93d2ed02c439577f,65af54492b7145c5d8c7598f,2024-01-22_23h53.52.469,bars,2023.2.3,Win32,60.0240096,657b66ea316d21385b68909f,,,,,,,,,,,2601.954,2602.952,,,2603.453,2603.702,,79,79,,,,,,,,,,,,,,,,bars/026.png,bars/mask009.png,,,,,,,,,,,,6,2,,,,,,,0,7,1,7,,,,,,,,,,,2602.953,2603.453,2603.703,2607.718,space,4.005,,2607.718,44,6,2608.718,2608.718,2608.721,,,,0,2,2,2,1,35,85,,,,,,,,
,,5f13b5cb93d2ed02c439577f,65af54492b7145c5d8c7598f,2024-01-22_23h53.52.469,bars,2023.2.3,Win32,60.0240096,657b66ea316d21385b68909f,,,,,,,,,,,2608.721,2609.719,,,2610.218,2610.469,,112,112,,,,,,,,,,,,,,,,bars/041.png,bars/mask009.png,,,,,,,,,,,,1,2,,,,,,,2,9,1,9,,,,,,,,,,,2609.719,2610.218,2610.469,2613.753,space,3.269,,2613.753,88,27,2614.753,2614.753,2614.755,,,,0,3,3,3,1,20,85,,,,,,,,
,,5f13b5cb93d2ed02c439577f,65af54492b7145c5d8c7598f,2024-01-22_23h53.52.469,bars,2023.2.3,Win32,60.0240096,657b66ea316d21385b68909f,,,,,,,,,,,2614.756,2615.752,,,2616.252,2616.503,,157,-23,,,,,,,,,,,,,,,,bars/024.png,bars/mask000.png,,,,,,,,,,,,6,2,,,,,,,4,10,4,10,,,,,,,,,,,2615.752,2616.252,2616.503,2619.103,space,2.588,,2619.103,37,13,2620.102,2620.102,2620.104,,,,0,4,4,4,1,120,170,,,,,,,,
,,5f13b5cb93d2ed02c439577f,65af54492b7145c5d8c7598f,2024-01-22_23h53.52.469,bars,2023.2.3,Win32,60.0240096,657b66ea316d21385b68909f,,,,,,,,,,,2620.104,2621.104,,,2621.603,2621.853,,6,186,,,,,,,,,,,,,,,,bars/028.png,bars/mask003.png,,,,,,,,,,,,0,1,,,,,,,2,10,0,10,,,,,,,,,,,2621.105,2621.603,2621.853,2624.786,space,2.926,,2624.786,39,66,2625.786,2625.786,2625.79,,,,0,5,5,5,1,45,120,,,,,,,,
,,5f13b5cb93d2ed02c439577f,65af54492b7145c5d8c7598f,2024-01-22_23h53.52.469,bars,2023.2.3,Win32,60.0240096,657b66ea316d21385b68909f,,,,,,,,,,,2625.79,2626.786,,,2627.286,2627.535,,64,64,,,,,,,,,,,,,,,,bars/035.png,bars/mask007.png,,,,,,,,,,,,8,2,,,,,,,4,10,5,9,,,,,,,,,,,2626.786,2627.286,2627.535,2630.486,space,2.939,,2630.486,69,4,2631.486,2631.486,2631.493,,,,0,6,6,6,1,175,60,,,,,,,,
,,5f13b5cb93d2ed02c439577f,65af54492b7145c5d8c7598f,2024-01-22_23h53.52.469,bars,2023.2.3,Win32,60.0240096,657b66ea316d21385b68909f,,,,,,,,,,,2631.494,2632.486,,,2632.986,2633.236,,71,71,,,,,,,,,,,,,,,,bars/038.png,bars/mask006.png,,,,,,,,,,,,8,2,,,,,,,2,8,2,8,,,,,,,,,,,2632.486,2632.986,2633.236,2635.636,space,2.386,,2635.637,86,1,2636.636,2636.636,2636.639,,,,0,7,7,7,1,165,70,,,,,,,,
,,5f13b5cb93d2ed02c439577f,65af54492b7145c5d8c7598f,2024-01-22_23h53.52.469,bars,2023.2.3,Win32,60.0240096,657b66ea316d21385b68909f,,,,,,,,,,,2636.639,2637.637,,,2638.136,2638.386,,41,41,,,,,,,,,,,,,,,,bars/029.png,bars/mask009.png,,,,,,,,,,,,9,2,,,,,,,0,10,0,10,,,,,,,,,,,2637.637,2638.136,2638.386,2640.369,space,1.969,,2640.369,49,4,2641.37,2641.37,2641.372,,,,0,8,8,8,1,90,45,,,,,,,,
,,5f13b5cb93d2ed02c439577f,65af54492b7145c5d8c7598f,2024-01-22_23h53.52.469,bars,2023.2.3,Win32,60.0240096,657b66ea316d21385b68909f,,,,,,,,,,,2641.373,2642.368,,,2642.87,2643.119,,141,-39,,,,,,,,,,,,,,,,bars/016.png,bars/mask005.png,,,,,,,,,,,,2,2,,,,,,,2,8,2,8,,,,,,,,,,,2642.368,2642.87,2643.119,2646.337,space,3.212,,2646.337,79,24,2647.336,2647.336,2647.337,,,,0,9,9,9,1,40,165,,,,,,,,
,,5f13b5cb93d2ed02c439577f,65af54492b7145c5d8c7598f,2024-01-22_23h53.52.469,bars,2023.2.3,Win32,60.0240096,657b66ea316d21385b68909f,,,,,,,,,,,2647.338,2648.336,,,2648.836,2649.087,,67,67,,,,,,,,,,,,,,,,bars/035.png,bars/mask003.png,,,,,,,,,,,,8,2,,,,,,,0,10,0,10,,,,,,,,,,,2648.336,2648.836,2649.087,2651.519,space,2.417,,2651.519,72,7,2652.52,2652.521,2652.525,,,,0,10,10,10,1,175,60,,,,,,,,
,,5f13b5cb93d2ed02c439577f,65af54492b7145c5d8c7598f,2024-01-22_23h53.52.469,bars,2023.2.3,Win32,60.0240096,657b66ea316d21385b68909f,,,,,,,,,,,2652.525,2653.519,,,2654.02,2654.27,,117,117,,,,,,,,,,,,,,,,bars/006.png,bars/mask002.png,,,,,,,,,,,,3,2,,,,,,,0,8,1,8,,,,,,,,,,,2653.52,2654.02,2654.27,2656.521,space,2.235,,2656.521,82,17,2657.519,2657.519,2657.523,,,,0,11,11,11,1,35,100,,,,,,,,
,,5f13b5cb93d2ed02c439577f,65af54492b7145c5d8c7598f,2024-01-22_23h53.52.469,bars,2023.2.3,Win32,60.0240096,657b66ea316d21385b68909f,,,,,,,,,,,2657.524,2658.519,,,2659.019,2659.27,,161,161,,,,,,,,,,,,,,,,bars/010.png,bars/mask001.png,,,,,,,,,,,,1,1,,,,,,,0,6,1,5,,,,,,,,,,,2658.519,2659.019,2659.27,2661.719,space,2.434,,2661.719,4,74,2662.719,2662.719,2662.724,,,,0,12,12,12,1,165,55,,,,,,,,
,,5f13b5cb93d2ed02c439577f,65af54492b7145c5d8c7598f,2024-01-22_23h53.52.469,bars,2023.2.3,Win32,60.0240096,657b66ea316d21385b68909f,,,,,,,,,,,2662.725,2663.72,,,2664.22,2664.469,,161,-19,,,,,,,,,,,,,,,,bars/009.png,bars/mask005.png,,,,,,,,,,,,0,1,,,,,,,2,4,3,2,,,,,,,,,,,2663.72,2664.219,2664.469,2667.652,space,3.174,,2667.652,34,56,2668.653,2668.653,2668.654,,,,0,13,13,13,1,15,105,,,,,,,,
,,5f13b5cb93d2ed02c439577f,65af54492b7145c5d8c7598f,2024-01-22_23h53.52.469,bars,2023.2.3,Win32,60.0240096,657b66ea316d21385b68909f,,,,,,,,,,,2668.655,2669.652,,,2670.153,2670.403,,28,208,,,,,,,,,,,,,,,,bars/026.png,bars/mask000.png,,,,,,,,,,,,0,1,,,,,,,0,2,0,1,,,,,,,,,,,2669.652,2670.152,2670.403,2672.353,space,1.937,,2672.353,7,57,2673.354,2673.354,2673.357,,,,0,14,14,14,1,35,85,,,,,,,,
,,5f13b5cb93d2ed02c439577f,65af54492b7145c5d8c7598f,2024-01-22_23h53.52.469,bars,2023.2.3,Win32,60.0240096,657b66ea316d21385b68909f,,,,,,,,,,,2673.357,2674.353,,,2674.853,2675.102,,152,-28,,,,,,,,,,,,,,,,bars/016.png,bars/mask006.png,,,,,,,,,,,,1,2,,,,,,,2,0,2,1,,,,,,,,,,,2674.353,2674.852,2675.103,2677.503,space,2.384,,2677.503,68,13,2678.502,2678.503,2678.506,,,,0,15,15,15,1,40,165,,,,,,,,
,,5f13b5cb93d2ed02c439577f,65af54492b7145c5d8c7598f,2024-01-22_23h53.52.469,bars,2023.2.3,Win32,60.0240096,657b66ea316d21385b68909f,,,,,,,,,,,2678.507,2679.502,,,2680.004,2680.253,,136,136,,,,,,,,,,,,,,,,bars/003.png,bars/mask001.png,,,,,,,,,,,,3,2,,,,,,,0,2,0,3,,,,,,,,,,,2679.502,2680.004,2680.253,2683.069,space,2.803,,2683.07,69,4,2684.069,2684.07,2684.072,,,,0,16,16,16,1,25,140,,,,,,,,
,,5f13b5cb93d2ed02c439577f,65af54492b7145c5d8c7598f,2024-01-22_23h53.52.469,bars,2023.2.3,Win32,60.0240096,657b66ea316d21385b68909f,,,,,,,,,,,2684.073,2685.07,,,2685.57,2685.82,,94,94,,,,,,,,,,,,,,,,bars/026.png,bars/mask003.png,,,,,,,,,,,,0,2,,,,,,,2,0,2,0,,,,,,,,,,,2685.07,2685.57,2685.82,2688.922,space,3.095,,2688.922,59,9,2689.92,2689.92,2689.923,,,,0,17,17,17,1,35,85,,,,,,,,
,,5f13b5cb93d2ed02c439577f,65af54492b7145c5d8c7598f,2024-01-22_23h53.52.469,bars,2023.2.3,Win32,60.0240096,657b66ea316d21385b68909f,,,,,,,,,,,2689.924,2690.92,,,2691.42,2691.67,,177,177,,,,,,,,,,,,,,,,bars/044.png,bars/mask001.png,,,,,,,,,,,,0,2,,,,,,,4,2,5,1,,,,,,,,,,,2690.92,2691.42,2691.67,2693.52,space,1.835,,2693.52,78,22,2694.519,2694.519,2694.521,,,,0,18,18,18,1,75,155,,,,,,,,
,,5f13b5cb93d2ed02c439577f,65af54492b7145c5d8c7598f,2024-01-22_23h53.52.469,bars,2023.2.3,Win32,60.0240096,657b66ea316d21385b68909f,,,,,,,,,,,2694.522,2695.52,,,2696.02,2696.27,,147,147,,,,,,,,,,,,,,,,bars/017.png,bars/mask002.png,,,,,,,,,,,,3,1,,,,,,,2,4,3,5,,,,,,,,,,,2695.52,2696.02,2696.27,2698.603,space,2.324,,2698.603,2,78,2699.604,2699.604,2699.607,,,,0,19,19,19,1,145,45,,,,,,,,
,,5f13b5cb93d2ed02c439577f,65af54492b7145c5d8c7598f,2024-01-22_23h53.52.469,bars,2023.2.3,Win32,60.0240096,657b66ea316d21385b68909f,,,,,,,,,,,2699.607,2700.602,,,2701.104,2701.353,,137,-43,,,,,,,,,,,,,,,,bars/037.png,bars/mask009.png,,,,,,,,,,,,2,1,,,,,,,4,6,4,8,,,,,,,,,,,2700.603,2701.104,2701.353,2705.904,space,4.538,,2705.904,13,32,2706.903,2706.903,2706.906,,,,0,20,20,20,1,150,105,,,,,,,,
,,5f13b5cb93d2ed02c439577f,65af54492b7145c5d8c7598f,2024-01-22_23h53.52.469,bars,2023.2.3,Win32,60.0240096,657b66ea316d21385b68909f,,,,,,,,,,,2706.907,2707.904,,,2708.404,2708.653,,150,-30,,,,,,,,,,,,,,,,bars/032.png,bars/mask009.png,,,,,,,,,,,,0,1,,,,,,,2,4,3,4,,,,,,,,,,,2707.904,2708.404,2708.653,2712.637,space,3.976,,2712.638,25,50,2713.636,2713.636,2713.638,,,,0,21,21,21,1,125,20,,,,,,,,
,,5f13b5cb93d2ed02c439577f,65af54492b7145c5d8c7598f,2024-01-22_23h53.52.469,bars,2023.2.3,Win32,60.0240096,657b66ea316d21385b68909f,,,,,,,,,,,2713.639,2714.644,,,2715.137,2715.387,,53,53,,,,,,,,,,,,,,,,bars/025.png,bars/mask002.png,,,,,,,,,,,,1,2,,,,,,,4,2,3,2,,,,,,,,,,,2714.644,2715.137,2715.387,2717.587,space,2.185,,2717.587,52,13,2718.586,2718.586,2718.589,,,,0,22,22,22,1,105,40,,,,,,,,
,,5f13b5cb93d2ed02c439577f,65af54492b7145c5d8c7598f,2024-01-22_23h53.52.469,bars,2023.2.3,Win32,60.0240096,657b66ea316d21385b68909f,,,,,,,,,,,2718.59,2719.587,,,2720.086,2720.337,,60,60,,,,,,,,,,,,,,,,bars/030.png,bars/mask003.png,,,,,,,,,,,,3,2,,,,,,,2,4,1,3,,,,,,,,,,,2719.587,2720.086,2720.337,2722.554,space,2.205,,2722.555,80,5,2723.553,2723.554,2723.559,,,,0,23,23,23,1,140,65,,,,,,,,
,,5f13b5cb93d2ed02c439577f,65af54492b7145c5d8c7598f,2024-01-22_23h53.52.469,bars,2023.2.3,Win32,60.0240096,657b66ea316d21385b68909f,,,,,,,,,,,2723.56,2724.554,,,2725.053,2725.305,,178,-2,,,,,,,,,,,,,,,,bars/016.png,bars/mask003.png,,,,,,,,,,,,2,2,,,,,,,0,2,0,3,,,,,,,,,,,2724.554,2725.053,2725.305,2729.353,space,4.043,,2729.354,42,13,2730.354,2730.354,2730.356,,,,0,24,24,24,1,40,165,,,,,,,,
,,5f13b5cb93d2ed02c439577f,65af54492b7145c5d8c7598f,2024-01-22_23h53.52.469,bars,2023.2.3,Win32,60.0240096,657b66ea316d21385b68909f,,,,,,,,,,,2730.357,2731.354,,,2731.854,2732.104,,57,57,,,,,,,,,,,,,,,,bars/029.png,bars/mask003.png,,,,,,,,,,,,0,2,,,,,,,2,0,4,0,,,,,,,,,,,2731.354,2731.854,2732.104,2736.604,space,4.49,,2736.604,33,12,2737.603,2737.603,2737.606,,,,0,25,25,25,1,90,45,,,,,,,,
,,5f13b5cb93d2ed02c439577f,65af54492b7145c5d8c7598f,2024-01-22_23h53.52.469,bars,2023.2.3,Win32,60.0240096,657b66ea316d21385b68909f,,,,,,,,,,,2737.606,2738.603,,,2739.104,2739.354,,68,68,,,,,,,,,,,,,,,,bars/021.png,bars/mask009.png,,,,,,,,,,,,1,2,,,,,,,0,0,1,1,,,,,,,,,,,2738.603,2739.104,2739.354,2742.504,space,3.135,,2742.504,87,2,2743.508,2743.508,2743.509,,,,0,26,26,26,1,155,70,,,,,,,,
,,5f13b5cb93d2ed02c439577f,65af54492b7145c5d8c7598f,2024-01-22_23h53.52.469,bars,2023.2.3,Win32,60.0240096,657b66ea316d21385b68909f,,,,,,,,,,,2743.509,2744.503,,,2745.004,2745.254,,16,16,,,,,,,,,,,,,,,,bars/009.png,bars/mask002.png,,,,,,,,,,,,3,1,,,,,,,2,0,3,0,,,,,,,,,,,2744.503,2745.004,2745.254,2746.579,space,1.302,,2746.579,1,89,2747.57,2747.57,2747.574,,,,0,27,27,27,1,15,105,,,,,,,,
,,5f13b5cb93d2ed02c439577f,65af54492b7145c5d8c7598f,2024-01-22_23h53.52.469,bars,2023.2.3,Win32,60.0240096,657b66ea316d21385b68909f,,,,,,,,,,,2747.574,2748.57,,,2749.06,2749.304,,22,202,,,,,,,,,,,,,,,,bars/003.png,bars/mask004.png,,,,,,,,,,,,0,1,,,,,,,0,2,0,2,,,,,,,,,,,2748.57,2749.06,2749.304,2752.188,space,2.876,,2752.188,3,62,2753.188,2753.188,2753.189,,,,0,28,28,28,1,25,140,,,,,,,,
,,5f13b5cb93d2ed02c439577f,65af54492b7145c5d8c7598f,2024-01-22_23h53.52.469,bars,2023.2.3,Win32,60.0240096,657b66ea316d21385b68909f,,,,,,,,,,,2753.189,2754.199,,,2754.704,2754.954,,170,-10,,,,,,,,,,,,,,,,bars/007.png,bars/mask003.png,,,,,,,,,,,,0,1,,,,,,,0,0,0,0,,,,,,,,,,,2754.2,2754.704,2754.954,2757.24,space,2.267,,2757.241,5,65,2758.237,2758.237,2758.24,,,,0,29,29,29,1,175,55,,,,,,,,
,,5f13b5cb93d2ed02c439577f,65af54492b7145c5d8c7598f,2024-01-22_23h53.52.469,bars,2023.2.3,Win32,60.0240096,657b66ea316d21385b68909f,,,,,,,,,,,2758.241,2759.237,,,2759.736,2759.987,,117,117,,,,,,,,,,,,,,,,bars/036.png,bars/mask009.png,,,,,,,,,,,,0,1,,,,,,,0,0,1,0,,,,,,,,,,,2759.237,2759.736,2759.987,2763.67,space,3.665,,2763.671,28,83,2764.67,2764.67,2764.673,,,,0,30,30,30,1,145,20,,,,,,,,
,,5f13b5cb93d2ed02c439577f,65af54492b7145c5d8c7598f,2024-01-22_23h53.52.469,bars,2023.2.3,Win32,60.0240096,657b66ea316d21385b68909f,,,,,,,,,,,2764.674,2765.67,,,2766.171,2766.42,,177,177,,,,,,,,,,,,,,,,bars/018.png,bars/mask004.png,,,,,,,,,,,,0,1,,,,,,,2,0,2,2,,,,,,,,,,,2765.671,2766.171,2766.42,2768.137,space,1.704,,2768.137,27,87,2769.138,2769.138,2769.138,,,,0,31,31,31,1,150,90,,,,,,,,
,,5f13b5cb93d2ed02c439577f,65af54492b7145c5d8c7598f,2024-01-22_23h53.52.469,bars,2023.2.3,Win32,60.0240096,657b66ea316d21385b68909f,,,,,,,,,,,2769.139,2770.138,,,2770.637,2770.887,,67,67,,,,,,,,,,,,,,,,bars/033.png,bars/mask000.png,,,,,,,,,,,,0,1,,,,,,,4,2,4,1,,,,,,,,,,,2770.138,2770.637,2770.887,2774.371,space,3.468,,2774.371,42,88,2775.371,2775.371,2775.374,,,,0,32,32,32,1,25,155,,,,,,,,
,,5f13b5cb93d2ed02c439577f,65af54492b7145c5d8c7598f,2024-01-22_23h53.52.469,bars,2023.2.3,Win32,60.0240096,657b66ea316d21385b68909f,,,,,,,,,,,2775.374,2776.371,,,2776.87,2777.123,,143,143,,,,,,,,,,,,,,,,bars/035.png,bars/mask003.png,,,,,,,,,,,,0,1,,,,,,,6,4,7,4,,,,,,,,,,,2776.371,2776.87,2777.123,2780.34,space,3.213,,2780.34,32,83,2781.337,2781.337,2781.339,,,,0,33,33,33,1,175,60,,,,,,,,
,,5f13b5cb93d2ed02c439577f,65af54492b7145c5d8c7598f,2024-01-22_23h53.52.469,bars,2023.2.3,Win32,60.0240096,657b66ea316d21385b68909f,,,,,,,,,,,2781.339,2782.337,,,2782.837,2783.087,,67,67,,,,,,,,,,,,,,,,bars/043.png,bars/mask000.png,,,,,,,,,,,,0,1,,,,,,,8,2,8,2,,,,,,,,,,,2782.337,2782.837,2783.088,2787.307,space,4.208,,2787.307,37,63,2788.303,2788.303,2788.307,,,,0,34,34,34,1,30,130,,,,,,,,
,,5f13b5cb93d2ed02c439577f,65af54492b7145c5d8c7598f,2024-01-22_23h53.52.469,bars,2023.2.3,Win32,60.0240096,657b66ea316d21385b68909f,,,,,,,,,,,2788.307,2789.305,,,2789.805,2790.054,,51,51,,,,,,,,,,,,,,,,bars/028.png,bars/mask001.png,,,,,,,,,,,,8,1,,,,,,,10,0,10,0,,,,,,,,,,,2789.306,2789.804,2790.054,2792.454,space,2.382,,2792.454,6,69,2793.455,2793.455,2793.457,,,,0,35,35,35,1,45,120,,,,,,,,
,,5f13b5cb93d2ed02c439577f,65af54492b7145c5d8c7598f,2024-01-22_23h53.52.469,bars,2023.2.3,Win32,60.0240096,657b66ea316d21385b68909f,,,,,,,,,,,2793.458,2794.454,,,2794.955,2795.205,,55,55,,,,,,,,,,,,,,,,bars/047.png,bars/mask005.png,,,,,,,,,,,,0,2,,,,,,,8,0,9,0,,,,,,,,,,,2794.455,2794.954,2795.205,2796.887,space,1.669,,2796.888,40,15,2797.888,2797.888,2797.892,,,,0,36,36,36,1,15,70,,,,,,,,
,,5f13b5cb93d2ed02c439577f,65af54492b7145c5d8c7598f,2024-01-22_23h53.52.469,bars,2023.2.3,Win32,60.0240096,657b66ea316d21385b68909f,,,,,,,,,,,2797.892,2798.887,,,2799.388,2799.638,,179,179,,,,,,,,,,,,,,,,bars/017.png,bars/mask001.png,,,,,,,,,,,,0,1,,,,,,,10,2,9,3,,,,,,,,,,,2798.887,2799.388,2799.638,2803.321,space,3.67,,2803.321,34,46,2804.31,2804.31,2804.315,,,,0,37,37,37,1,145,45,,,,,,,,
,,5f13b5cb93d2ed02c439577f,65af54492b7145c5d8c7598f,2024-01-22_23h53.52.469,bars,2023.2.3,Win32,60.0240096,657b66ea316d21385b68909f,,,,,,,,,,,2804.316,2805.304,,,2805.805,2806.055,,84,84,,,,,,,,,,,,,,,,bars/002.png,bars/mask003.png,,,,,,,,,,,,0,2,,,,,,,8,0,9,0,,,,,,,,,,,2805.304,2805.805,2806.055,2810.421,space,4.351,,2810.421,46,1,2811.421,2811.421,2811.424,,,,0,38,38,38,1,130,85,,,,,,,,
,,5f13b5cb93d2ed02c439577f,65af54492b7145c5d8c7598f,2024-01-22_23h53.52.469,bars,2023.2.3,Win32,60.0240096,657b66ea316d21385b68909f,,,,,,,,,,,2811.425,2812.421,,,2812.921,2813.172,,66,66,,,,,,,,,,,,,,,,bars/042.png,bars/mask006.png,,,,,,,,,,,,0,2,,,,,,,10,0,10,0,,,,,,,,,,,2812.421,2812.921,2813.172,2815.655,space,2.466,,2815.655,79,9,2816.655,2816.655,2816.657,,,,0,39,39,39,1,145,75,,,,,,,,
,,5f13b5cb93d2ed02c439577f,65af54492b7145c5d8c7598f,2024-01-22_23h53.52.469,bars,2023.2.3,Win32,60.0240096,657b66ea316d21385b68909f,,,,,,,,,,,2816.658,2817.654,,,2818.154,2818.405,,149,-31,,,,,,,,,,,,,,,,bars/015.png,bars/mask005.png,,,,,,,,,,,,0,2,,,,,,,10,0,10,0,,,,,,,,,,,2817.654,2818.154,2818.405,2821.554,space,3.143,,2821.554,39,11,2822.557,2822.558,2822.565,,,,0,40,40,40,1,110,160,,,,,,,,
,,5f13b5cb93d2ed02c439577f,65af54492b7145c5d8c7598f,2024-01-22_23h53.52.469,bars,2023.2.3,Win32,60.0240096,657b66ea316d21385b68909f,,,,,,,,,,,2822.566,2823.556,,,2824.045,2824.289,,160,-20,,,,,,,,,,,,,,,,bars/018.png,bars/mask004.png,,,,,,,,,,,,4,1,,,,,,,8,0,6,0,,,,,,,,,,,2823.556,2824.045,2824.289,2826.422,space,2.124,,2826.422,10,70,2827.421,2827.422,2827.427,,,,0,41,41,41,1,150,90,,,,,,,,
,,5f13b5cb93d2ed02c439577f,65af54492b7145c5d8c7598f,2024-01-22_23h53.52.469,bars,2023.2.3,Win32,60.0240096,657b66ea316d21385b68909f,,,,,,,,,,,2827.427,2828.42,,,2828.921,2829.171,,161,-19,,,,,,,,,,,,,,,,bars/023.png,bars/mask005.png,,,,,,,,,,,,0,1,,,,,,,10,2,10,3,,,,,,,,,,,2828.42,2828.921,2829.171,2832.738,space,3.552,,2832.738,39,46,2833.738,2833.738,2833.74,,,,0,42,42,42,1,20,115,,,,,,,,
,,5f13b5cb93d2ed02c439577f,65af54492b7145c5d8c7598f,2024-01-22_23h53.52.469,bars,2023.2.3,Win32,60.0240096,657b66ea316d21385b68909f,,,,,,,,,,,2833.74,2834.738,,,2835.239,2835.489,,45,225,,,,,,,,,,,,,,,,bars/004.png,bars/mask008.png,,,,,,,,,,,,3,1,,,,,,,8,4,9,4,,,,,,,,,,,2834.738,2835.239,2835.489,2839.389,space,3.884,,2839.389,20,80,2840.388,2840.388,2840.39,,,,0,43,43,43,1,25,125,,,,,,,,
,,5f13b5cb93d2ed02c439577f,65af54492b7145c5d8c7598f,2024-01-22_23h53.52.469,bars,2023.2.3,Win32,60.0240096,657b66ea316d21385b68909f,,,,,,,,,,,2840.391,2841.388,,,2841.887,2842.138,,147,-33,,,,,,,,,,,,,,,,bars/031.png,bars/mask004.png,,,,,,,,,,,,1,1,,,,,,,10,2,9,1,,,,,,,,,,,2841.388,2841.887,2842.138,2844.64,space,2.486,,2844.641,27,68,2845.638,2845.639,2845.643,,,,0,44,44,44,1,120,35,,,,,,,,
,,5f13b5cb93d2ed02c439577f,65af54492b7145c5d8c7598f,2024-01-22_23h53.52.469,bars,2023.2.3,Win32,60.0240096,657b66ea316d21385b68909f,,,,,,,,,,,2845.643,2846.639,,,2847.139,2847.389,,143,-37,,,,,,,,,,,,,,,,bars/032.png,bars/mask003.png,,,,,,,,,,,,3,1,,,,,,,8,0,8,0,,,,,,,,,,,2846.639,2847.139,2847.389,2850.657,space,3.253,,2850.657,18,57,2851.655,2851.655,2851.657,,,,0,45,45,45,1,125,20,,,,,,,,
,,5f13b5cb93d2ed02c439577f,65af54492b7145c5d8c7598f,2024-01-22_23h53.52.469,bars,2023.2.3,Win32,60.0240096,657b66ea316d21385b68909f,,,,,,,,,,,2851.658,2852.655,,,2853.156,2853.406,,137,-43,,,,,,,,,,,,,,,,bars/031.png,bars/mask005.png,,,,,,,,,,,,3,1,,,,,,,6,0,8,1,,,,,,,,,,,2852.655,2853.156,2853.406,2856.275,space,2.864,,2856.276,17,78,2857.272,2857.273,2857.278,,,,0,46,46,46,1,120,35,,,,,,,,
,,5f13b5cb93d2ed02c439577f,65af54492b7145c5d8c7598f,2024-01-22_23h53.52.469,bars,2023.2.3,Win32,60.0240096,657b66ea316d21385b68909f,,,,,,,,,,,2857.279,2858.272,,,2858.773,2859.022,,22,22,,,,,,,,,,,,,,,,bars/003.png,bars/mask006.png,,,,,,,,,,,,6,1,,,,,,,8,0,7,0,,,,,,,,,,,2858.272,2858.773,2859.022,2860.955,space,1.926,,2860.955,3,62,2861.956,2861.956,2861.958,,,,0,47,47,47,1,25,140,,,,,,,,
,,5f13b5cb93d2ed02c439577f,65af54492b7145c5d8c7598f,2024-01-22_23h53.52.469,bars,2023.2.3,Win32,60.0240096,657b66ea316d21385b68909f,,,,,,,,,,,2861.958,2862.955,,,2863.457,2863.706,,145,145,,,,,,,,,,,,,,,,bars/040.png,bars/mask000.png,,,,,,,,,,,,5,1,,,,,,,6,2,6,3,,,,,,,,,,,2862.955,2863.457,2863.706,2866.508,space,2.795,,2866.508,5,40,2867.505,2867.505,2867.509,,,,0,48,48,48,1,140,5,,,,,,,,
,,5f13b5cb93d2ed02c439577f,65af54492b7145c5d8c7598f,2024-01-22_23h53.52.469,bars,2023.2.3,Win32,60.0240096,657b66ea316d21385b68909f,,,,,,,,,,,2867.509,2868.506,,,2869.006,2869.254,,164,-16,,,,,,,,,,,,,,,,bars/005.png,bars/mask000.png,,,,,,,,,,,,1,2,,,,,,,4,4,4,3,,,,,,,,,,,2868.506,2869.006,2869.254,2872.673,space,3.4,,2872.673,26,24,2873.673,2873.673,2873.679,,,,0,49,49,49,1,10,140,,,,,,,,
,,5f13b5cb93d2ed02c439577f,65af54492b7145c5d8c7598f,2024-01-22_23h53.52.469,bars,2023.2.3,Win32,60.0240096,657b66ea316d21385b68909f,,,,,,,,,,,,,,,,,,,,,,,,,,,,,,,,,,,,,,,,,,,,,,,,,,,,,,,,,,,,,,,,,,,,,,,,,,,,,,,,,,,,,,,,,,,,,2873.679,2933.673,0,3,3,2,1,sequence_tables/blk019.csv
,,5f13b5cb93d2ed02c439577f,65af54492b7145c5d8c7598f,2024-01-22_23h53.52.469,bars,2023.2.3,Win32,60.0240096,657b66ea316d21385b68909f,,,,,,,,,,,2936.298,2937.289,,,2937.789,2938.04,,58,238,,,,,,,,,,,,,,,,bars/030.png,bars/mask007.png,,,,,,,,,,,,3,2,,,,,,,3,6,4,4,,,,,,2933.674,2936.29,space,2.601,,2937.289,2937.789,2938.04,2943.892,space,5.845,,2943.892,82,7,2944.889,2944.889,2944.892,,,,0,0,0,0,1,140,65,,,,,,,,
,,5f13b5cb93d2ed02c439577f,65af54492b7145c5d8c7598f,2024-01-22_23h53.52.469,bars,2023.2.3,Win32,60.0240096,657b66ea316d21385b68909f,,,,,,,,,,,2944.892,2945.89,,,2946.389,2946.639,,30,30,,,,,,,,,,,,,,,,bars/034.png,bars/mask005.png,,,,,,,,,,,,0,2,,,,,,,1,4,1,2,,,,,,,,,,,2945.89,2946.389,2946.639,2948.64,space,1.99,,2948.64,85,35,2949.64,2949.641,2949.642,,,,0,1,1,1,1,125,65,,,,,,,,
,,5f13b5cb93d2ed02c439577f,65af54492b7145c5d8c7598f,2024-01-22_23h53.52.469,bars,2023.2.3,Win32,60.0240096,657b66ea316d21385b68909f,,,,,,,,,,,2949.643,2950.64,,,2951.14,2951.39,,118,118,,,,,,,,,,,,,,,,bars/039.png,bars/mask003.png,,,,,,,,,,,,2,2,,,,,,,0,2,0,3,,,,,,,,,,,2950.64,2951.14,2951.39,2955.106,space,3.704,,2955.107,57,13,2956.106,2956.107,2956.107,,,,0,2,2,2,1,175,105,,,,,,,,
,,5f13b5cb93d2ed02c439577f,65af54492b7145c5d8c7598f,2024-01-22_23h53.52.469,bars,2023.2.3,Win32,60.0240096,657b66ea316d21385b68909f,,,,,,,,,,,2956.107,2957.107,,,2957.608,2957.856,,20,200,,,,,,,,,,,,,,,,bars/012.png,bars/mask001.png,,,,,,,,,,,,1,2,,,,,,,2,0,1,1,,,,,,,,,,,2957.107,2957.608,2957.857,2960.506,space,2.633,,2960.507,70,5,2961.508,2961.508,2961.509,,,,0,3,3,3,1,90,15,,,,,,,,
,,5f13b5cb93d2ed02c439577f,65af54492b7145c5d8c7598f,2024-01-22_23h53.52.469,bars,2023.2.3,Win32,60.0240096,657b66ea316d21385b68909f,,,,,,,,,,,2961.509,2962.506,,,2963.006,2963.257,,152,-28,,,,,,,,,,,,,,,,bars/048.png,bars/mask001.png,,,,,,,,,,,,0,2,,,,,,,0,0,0,1,,,,,,,,,,,2962.506,2963.006,2963.257,2965.459,space,2.197,,2965.46,78,23,2966.456,2966.456,2966.46,,,,0,4,4,4,1,50,175,,,,,,,,
,,5f13b5cb93d2ed02c439577f,65af54492b7145c5d8c7598f,2024-01-22_23h53.52.469,bars,2023.2.3,Win32,60.0240096,657b66ea316d21385b68909f,,,,,,,,,,,2966.46,2967.457,,,2967.957,2968.195,,139,139,,,,,,,,,,,,,,,,bars/037.png,bars/mask005.png,,,,,,,,,,,,0,1,,,,,,,0,0,0,0,,,,,,,,,,,2967.457,2967.956,2968.195,2970.39,space,2.182,,2970.39,11,34,2971.39,2971.39,2971.393,,,,0,5,5,5,1,150,105,,,,,,,,
,,5f13b5cb93d2ed02c439577f,65af54492b7145c5d8c7598f,2024-01-22_23h53.52.469,bars,2023.2.3,Win32,60.0240096,657b66ea316d21385b68909f,,,,,,,,,,,2971.394,2972.39,,,2972.89,2973.142,,117,117,,,,,,,,,,,,,,,,bars/020.png,bars/mask007.png,,,,,,,,,,,,2,1,,,,,,,0,2,2,3,,,,,,,,,,,2972.39,2972.89,2973.142,2976.007,space,2.854,,2976.007,2,53,2977.006,2977.007,2977.008,,,,0,6,6,6,1,115,170,,,,,,,,
,,5f13b5cb93d2ed02c439577f,65af54492b7145c5d8c7598f,2024-01-22_23h53.52.469,bars,2023.2.3,Win32,60.0240096,657b66ea316d21385b68909f,,,,,,,,,,,2977.009,2978.007,,,2978.506,2978.756,,117,117,,,,,,,,,,,,,,,,bars/010.png,bars/mask006.png,,,,,,,,,,,,0,1,,,,,,,2,0,1,0,,,,,,,,,,,2978.007,2978.506,2978.756,2981.422,space,2.649,,2981.423,48,62,2982.423,2982.423,2982.424,,,,0,7,7,7,1,165,55,,,,,,,,
,,5f13b5cb93d2ed02c439577f,65af54492b7145c5d8c7598f,2024-01-22_23h53.52.469,bars,2023.2.3,Win32,60.0240096,657b66ea316d21385b68909f,,,,,,,,,,,2982.425,2983.423,,,2983.924,2984.174,,133,133,,,,,,,,,,,,,,,,bars/037.png,bars/mask000.png,,,,,,,,,,,,2,1,,,,,,,4,2,4,1,,,,,,,,,,,2983.423,2983.924,2984.174,2986.224,space,2.048,,2986.224,17,28,2987.223,2987.223,2987.225,,,,0,8,8,8,1,150,105,,,,,,,,
,,5f13b5cb93d2ed02c439577f,65af54492b7145c5d8c7598f,2024-01-22_23h53.52.469,bars,2023.2.3,Win32,60.0240096,657b66ea316d21385b68909f,,,,,,,,,,,2987.225,2988.224,,,2988.723,2988.974,,48,48,,,,,,,,,,,,,,,,bars/034.png,bars/mask003.png,,,,,,,,,,,,0,2,,,,,,,2,0,2,0,,,,,,,,,,,2988.224,2988.723,2988.974,2991.241,space,2.264,,2991.242,77,17,2992.24,2992.24,2992.244,,,,0,9,9,9,1,125,65,,,,,,,,
,,5f13b5cb93d2ed02c439577f,65af54492b7145c5d8c7598f,2024-01-22_23h53.52.469,bars,2023.2.3,Win32,60.0240096,657b66ea316d21385b68909f,,,,,,,,,,,2992.245,2993.24,,,2993.741,2993.99,,41,221,,,,,,,,,,,,,,,,bars/017.png,bars/mask008.png,,,,,,,,,,,,0,2,,,,,,,4,0,4,0,,,,,,,,,,,2993.24,2993.741,2993.991,2997.374,space,3.375,,2997.374,76,4,2998.374,2998.374,2998.378,,,,0,10,10,10,1,145,45,,,,,,,,
,,5f13b5cb93d2ed02c439577f,65af54492b7145c5d8c7598f,2024-01-22_23h53.52.469,bars,2023.2.3,Win32,60.0240096,657b66ea316d21385b68909f,,,,,,,,,,,2998.378,2999.373,,,2999.874,3000.123,,24,24,,,,,,,,,,,,,,,,bars/027.png,bars/mask008.png,,,,,,,,,,,,0,2,,,,,,,6,0,6,0,,,,,,,,,,,2999.373,2999.874,3000.123,3002.207,space,2.072,,3002.207,86,26,3003.208,3003.208,3003.209,,,,0,11,11,11,1,110,50,,,,,,,,
,,5f13b5cb93d2ed02c439577f,65af54492b7145c5d8c7598f,2024-01-22_23h53.52.469,bars,2023.2.3,Win32,60.0240096,657b66ea316d21385b68909f,,,,,,,,,,,3003.21,3004.206,,,3004.707,3004.958,,53,53,,,,,,,,,,,,,,,,bars/017.png,bars/mask007.png,,,,,,,,,,,,1,2,,,,,,,4,0,5,1,,,,,,,,,,,3004.206,3004.707,3004.958,3007.657,space,2.694,,3007.657,88,8,3008.657,3008.657,3008.658,,,,0,12,12,12,1,145,45,,,,,,,,
,,5f13b5cb93d2ed02c439577f,65af54492b7145c5d8c7598f,2024-01-22_23h53.52.469,bars,2023.2.3,Win32,60.0240096,657b66ea316d21385b68909f,,,,,,,,,,,3008.659,3009.657,,,3010.157,3010.408,,172,-8,,,,,,,,,,,,,,,,bars/048.png,bars/mask004.png,,,,,,,,,,,,0,2,,,,,,,6,0,6,0,,,,,,,,,,,3009.657,3010.157,3010.408,3013.791,space,3.368,,3013.791,58,3,3014.792,3014.792,3014.793,,,,0,13,13,13,1,50,175,,,,,,,,
,,5f13b5cb93d2ed02c439577f,65af54492b7145c5d8c7598f,2024-01-22_23h53.52.469,bars,2023.2.3,Win32,60.0240096,657b66ea316d21385b68909f,,,,,,,,,,,3014.794,3015.791,,,3016.291,3016.54,,171,-9,,,,,,,,,,,,,,,,bars/014.png,bars/mask004.png,,,,,,,,,,,,0,2,,,,,,,4,0,4,0,,,,,,,,,,,3015.791,3016.291,3016.54,3019.724,space,3.168,,3019.724,89,9,3020.724,3020.724,3020.725,,,,0,14,14,14,1,80,0,,,,,,,,
,,5f13b5cb93d2ed02c439577f,65af54492b7145c5d8c7598f,2024-01-22_23h53.52.469,bars,2023.2.3,Win32,60.0240096,657b66ea316d21385b68909f,,,,,,,,,,,3020.726,3021.723,,,3022.224,3022.473,,23,203,,,,,,,,,,,,,,,,bars/014.png,bars/mask007.png,,,,,,,,,,,,1,2,,,,,,,2,2,1,3,,,,,,,,,,,3021.723,3022.224,3022.473,3027.592,space,5.106,,3027.592,57,23,3028.59,3028.59,3028.594,,,,0,15,15,15,1,80,0,,,,,,,,
,,5f13b5cb93d2ed02c439577f,65af54492b7145c5d8c7598f,2024-01-22_23h53.52.469,bars,2023.2.3,Win32,60.0240096,657b66ea316d21385b68909f,,,,,,,,,,,3028.595,3029.591,,,3030.089,3030.34,,75,75,,,,,,,,,,,,,,,,bars/042.png,bars/mask005.png,,,,,,,,,,,,5,2,,,,,,,4,4,5,5,,,,,,,,,,,3029.591,3030.089,3030.34,3033.773,space,3.423,,3033.773,70,0,3034.774,3034.775,3034.777,,,,0,16,16,16,1,145,75,,,,,,,,
,,5f13b5cb93d2ed02c439577f,65af54492b7145c5d8c7598f,2024-01-22_23h53.52.469,bars,2023.2.3,Win32,60.0240096,657b66ea316d21385b68909f,,,,,,,,,,,3034.777,3035.774,,,3036.274,3036.525,,82,82,,,,,,,,,,,,,,,,bars/046.png,bars/mask006.png,,,,,,,,,,,,5,2,,,,,,,6,6,4,6,,,,,,,,,,,3035.774,3036.274,3036.525,3040.424,space,3.886,,3040.424,73,3,3041.424,3041.424,3041.426,,,,0,17,17,17,1,155,85,,,,,,,,
