init_variables.started,init_variables.stopped,participant,session,date,expName,psychopyVersion,OS,frameRate,study_id,instruction_exp.started,instruction_exp.stopped,key_resp_8.keys,key_resp_8.rt,key_resp_8.duration,instruction_single.started,instruction_single.stopped,key_resp_2.keys,key_resp_2.rt,key_resp_2.duration,interval.started,interval.stopped,cue_single.started,cue_single.stopped,mask.started,mask.stopped,ori_response_single.started,res_ori,res,ori_response_single.stopped,key_resp_single.keys,key_resp_single.rt,key_resp_single.duration,disp_single.started,disp_single.stopped,key_resp.keys,key_resp.rt,key_resp.duration,single.thisRepN,single.thisTrialN,single.thisN,single.thisIndex,single.ran,ori,path,mask_path,instruction_bandit.started,instruction_bandit.stopped,key_resp_6.keys,key_resp_6.rt,key_resp_6.duration,cue_bandit.started,cue_bandit.stopped,bandit_res.keys,bandit_res.rt,bandit_res.duration,outcome_bandit.started,rew,action,outcome_bandit.stopped,bandit.thisRepN,bandit.thisTrialN,bandit.thisN,bandit.thisIndex,bandit.ran,actual_rew1,actual_rew2,rew1,rew2,instruction_task.started,instruction_task.stopped,key_resp_7.keys,key_resp_7.rt,key_resp_7.duration,wait_ready.started,wait_ready.stopped,key_resp_3.keys,key_resp_3.rt,key_resp_3.duration,cue.started,cue.stopped,ori_response.started,ori_response.stopped,key_resp_5.keys,key_resp_5.rt,key_resp_5.duration,outcome.started,diff1,diff2,outcome.stopped,disp_outcome_practice.started,disp_outcome_practice.stopped,key_resp_4.keys,key_resp_4.rt,key_resp_4.duration,trials.thisRepN,trials.thisTrialN,trials.thisN,trials.thisIndex,trials.ran,ori1,ori2,break_blk.started,break_blk.stopped,block.thisRepN,block.thisTrialN,block.thisN,block.thisIndex,block.ran,condition_file
0.0005,0.0008,654136e5219cc073c4b7795c,65af56b9304b05200d92089d,2024-01-23_08h09.30.152,bars,2023.2.3,Win32,60.24096386,657b66ea316d21385b68909f,,,,,,,,,,,,,,,,,,,,,,,,,,,,,,,,,,,,,,,,,,,,,,,,,,,,,,,,,,,,,,,,,,,,,,,,,,,,,,,,,,,,,,,,,,,,,,,,,,,,
,,654136e5219cc073c4b7795c,65af56b9304b05200d92089d,2024-01-23_08h09.30.152,bars,2023.2.3,Win32,60.24096386,657b66ea316d21385b68909f,0.0012,1.6409,y,1.58,,,,,,,,,,,,,,,,,,,,,,,,,,,,,,,,,,,,,,,,,,,,,,,,,,,,,,,,,,,,,,,,,,,,,,,,,,,,,,,,,,,,,,,,,,,,,,,,
,,654136e5219cc073c4b7795c,65af56b9304b05200d92089d,2024-01-23_08h09.30.152,bars,2023.2.3,Win32,60.24096386,657b66ea316d21385b68909f,,,,,,1.6414,19.9209,space,18.2572,,,,,,,,,,,,,,,,,,,,,,,,,,,,,,,,,,,,,,,,,,,,,,,,,,,,,,,,,,,,,,,,,,,,,,,,,,,,,,,,,,,,,,,,,,,
,,654136e5219cc073c4b7795c,65af56b9304b05200d92089d,2024-01-23_08h09.30.152,bars,2023.2.3,Win32,60.24096386,657b66ea316d21385b68909f,,,,,,,,,,,19.9305,20.9211,20.9214,21.4213,21.4215,21.6704,21.6705,0,180,38.0033,space,16.3057,,38.0035,50.5517,space,12.5085,,0,0,0,7,1,45,bars/single007.png,bars/mask009.png,,,,,,,,,,,,,,,,,,,,,,,,,,,,,,,,,,,,,,,,,,,,,,,,,,,,,,,,,,,,,,,,
,,654136e5219cc073c4b7795c,65af56b9304b05200d92089d,2024-01-23_08h09.30.152,bars,2023.2.3,Win32,60.24096386,657b66ea316d21385b68909f,,,,,,,,,,,50.5685,51.5667,51.5668,52.0666,52.0667,52.3167,52.3168,0,180,66.3149,space,13.9871,,66.315,71.5642,space,5.2233,,0,1,1,2,1,145,bars/single002.png,bars/mask003.png,,,,,,,,,,,,,,,,,,,,,,,,,,,,,,,,,,,,,,,,,,,,,,,,,,,,,,,,,,,,,,,,
,,654136e5219cc073c4b7795c,65af56b9304b05200d92089d,2024-01-23_08h09.30.152,bars,2023.2.3,Win32,60.24096386,657b66ea316d21385b68909f,,,,,,,,,,,71.5805,72.581,72.581,73.0808,73.0809,73.3309,73.3309,0,180,80.7134,space,7.3706,,80.7135,87.4958,space,6.7472,,0,2,2,3,1,20,bars/single003.png,bars/mask005.png,,,,,,,,,,,,,,,,,,,,,,,,,,,,,,,,,,,,,,,,,,,,,,,,,,,,,,,,,,,,,,,,
,,654136e5219cc073c4b7795c,65af56b9304b05200d92089d,2024-01-23_08h09.30.152,bars,2023.2.3,Win32,60.24096386,657b66ea316d21385b68909f,,,,,,,,,,,87.5121,88.5124,88.5126,89.0122,89.0122,89.2621,89.2622,0,180,93.2952,space,4.015,,93.2953,95.1618,space,1.838,,0,3,3,8,1,160,bars/single008.png,bars/mask004.png,,,,,,,,,,,,,,,,,,,,,,,,,,,,,,,,,,,,,,,,,,,,,,,,,,,,,,,,,,,,,,,,
,,654136e5219cc073c4b7795c,65af56b9304b05200d92089d,2024-01-23_08h09.30.152,bars,2023.2.3,Win32,60.24096386,657b66ea316d21385b68909f,,,,,,,,,,,95.1628,96.1614,96.1615,96.6612,96.6612,96.9004,96.9005,0,180,103.2663,space,6.3495,,103.2664,105.6762,space,2.3798,,0,4,4,0,1,150,bars/single000.png,bars/mask006.png,,,,,,,,,,,,,,,,,,,,,,,,,,,,,,,,,,,,,,,,,,,,,,,,,,,,,,,,,,,,,,,,
,,654136e5219cc073c4b7795c,65af56b9304b05200d92089d,2024-01-23_08h09.30.152,bars,2023.2.3,Win32,60.24096386,657b66ea316d21385b68909f,,,,,,,,,,,105.6769,106.6807,106.6807,107.1811,107.1817,107.4313,107.4314,0,180,114.1921,space,6.733,,114.1922,119.0752,space,4.8514,,0,5,5,4,1,95,bars/single004.png,bars/mask004.png,,,,,,,,,,,,,,,,,,,,,,,,,,,,,,,,,,,,,,,,,,,,,,,,,,,,,,,,,,,,,,,,
,,654136e5219cc073c4b7795c,65af56b9304b05200d92089d,2024-01-23_08h09.30.152,bars,2023.2.3,Win32,60.24096386,657b66ea316d21385b68909f,,,,,,,,,,,119.0963,120.0793,120.0794,120.5746,120.5746,120.8247,120.8247,0,0,127.2084,space,6.361,,127.2085,130.4471,space,3.2126,,0,6,6,5,1,55,bars/single005.png,bars/mask008.png,,,,,,,,,,,,,,,,,,,,,,,,,,,,,,,,,,,,,,,,,,,,,,,,,,,,,,,,,,,,,,,,
,,654136e5219cc073c4b7795c,65af56b9304b05200d92089d,2024-01-23_08h09.30.152,bars,2023.2.3,Win32,60.24096386,657b66ea316d21385b68909f,,,,,,,,,,,130.4639,131.4565,131.4566,131.9567,131.9567,132.2124,132.2124,0,0,137.5228,space,5.2843,,137.5229,140.3615,space,2.8087,,0,7,7,6,1,175,bars/single006.png,bars/mask005.png,,,,,,,,,,,,,,,,,,,,,,,,,,,,,,,,,,,,,,,,,,,,,,,,,,,,,,,,,,,,,,,,
,,654136e5219cc073c4b7795c,65af56b9304b05200d92089d,2024-01-23_08h09.30.152,bars,2023.2.3,Win32,60.24096386,657b66ea316d21385b68909f,,,,,,,,,,,140.362,141.3557,141.3557,141.8549,141.855,142.1049,142.105,0,0,148.2549,space,6.12,,148.2551,153.9542,space,5.67,,0,8,8,1,1,20,bars/single001.png,bars/mask006.png,,,,,,,,,,,,,,,,,,,,,,,,,,,,,,,,,,,,,,,,,,,,,,,,,,,,,,,,,,,,,,,,
,,654136e5219cc073c4b7795c,65af56b9304b05200d92089d,2024-01-23_08h09.30.152,bars,2023.2.3,Win32,60.24096386,657b66ea316d21385b68909f,,,,,,,,,,,153.9724,154.9586,154.9587,155.4594,155.4595,155.7037,155.7038,0,180,159.6867,space,3.9594,,159.6867,161.7856,space,2.068,,0,9,9,9,1,20,bars/single009.png,bars/mask006.png,,,,,,,,,,,,,,,,,,,,,,,,,,,,,,,,,,,,,,,,,,,,,,,,,,,,,,,,,,,,,,,,
,,654136e5219cc073c4b7795c,65af56b9304b05200d92089d,2024-01-23_08h09.30.152,bars,2023.2.3,Win32,60.24096386,657b66ea316d21385b68909f,,,,,,,,,,,,,,,,,,,,,,,,,,,,,,,,,,,,,161.7865,178.9687,space,17.1498,,,,,,,,,,,,,,,,,,,,,,,,,,,,,,,,,,,,,,,,,,,,,,,,,,,,,,,,,,,,
,,654136e5219cc073c4b7795c,65af56b9304b05200d92089d,2024-01-23_08h09.30.152,bars,2023.2.3,Win32,60.24096386,657b66ea316d21385b68909f,,,,,,,,,,,,,,,,,,,,,,,,,,,,,,,,,,,,,,,,,,178.9885,185.9338,right,6.9184,,185.934,2,2,186.9333,0,0,0,0,1,9,1,9,2,,,,,,,,,,,,,,,,,,,,,,,,,,,,,,,,,,,,,,,,,
,,654136e5219cc073c4b7795c,65af56b9304b05200d92089d,2024-01-23_08h09.30.152,bars,2023.2.3,Win32,60.24096386,657b66ea316d21385b68909f,,,,,,,,,,,,,,,,,,,,,,,,,,,,,,,,,,,,,,,,,,186.9345,191.9491,right,4.9862,,191.9493,1,2,192.9382,0,1,1,1,1,10,0,10,1,,,,,,,,,,,,,,,,,,,,,,,,,,,,,,,,,,,,,,,,,
,,654136e5219cc073c4b7795c,65af56b9304b05200d92089d,2024-01-23_08h09.30.152,bars,2023.2.3,Win32,60.24096386,657b66ea316d21385b68909f,,,,,,,,,,,,,,,,,,,,,,,,,,,,,,,,,,,,,,,,,,192.9549,196.9825,left,4.0215,,196.9827,10,1,197.9815,0,2,2,2,1,10,2,10,2,,,,,,,,,,,,,,,,,,,,,,,,,,,,,,,,,,,,,,,,,
,,654136e5219cc073c4b7795c,65af56b9304b05200d92089d,2024-01-23_08h09.30.152,bars,2023.2.3,Win32,60.24096386,657b66ea316d21385b68909f,,,,,,,,,,,,,,,,,,,,,,,,,,,,,,,,,,,,,,,,,,197.9988,201.0147,left,2.9997,,201.0149,7,1,202.0142,0,3,3,3,1,8,4,7,3,,,,,,,,,,,,,,,,,,,,,,,,,,,,,,,,,,,,,,,,,
,,654136e5219cc073c4b7795c,65af56b9304b05200d92089d,2024-01-23_08h09.30.152,bars,2023.2.3,Win32,60.24096386,657b66ea316d21385b68909f,,,,,,,,,,,,,,,,,,,,,,,,,,,,,,,,,,,,,,,,,,202.0304,205.2846,right,3.2473,,205.2847,1,2,206.2805,0,4,4,4,1,6,2,5,1,,,,,,,,,,,,,,,,,,,,,,,,,,,,,,,,,,,,,,,,,
,,654136e5219cc073c4b7795c,65af56b9304b05200d92089d,2024-01-23_08h09.30.152,bars,2023.2.3,Win32,60.24096386,657b66ea316d21385b68909f,,,,,,,,,,,,,,,,,,,,,,,,,,,,,,,,,,,,,,,,,,206.2977,208.7704,right,2.4661,,208.7705,4,2,209.7631,0,5,5,5,1,4,4,4,4,,,,,,,,,,,,,,,,,,,,,,,,,,,,,,,,,,,,,,,,,
,,654136e5219cc073c4b7795c,65af56b9304b05200d92089d,2024-01-23_08h09.30.152,bars,2023.2.3,Win32,60.24096386,657b66ea316d21385b68909f,,,,,,,,,,,,,,,,,,,,,,,,,,,,,,,,,,,,,,,,,,209.778,212.4361,right,2.65,,212.4362,2,2,213.4299,0,6,6,6,1,2,2,1,2,,,,,,,,,,,,,,,,,,,,,,,,,,,,,,,,,,,,,,,,,
,,654136e5219cc073c4b7795c,65af56b9304b05200d92089d,2024-01-23_08h09.30.152,bars,2023.2.3,Win32,60.24096386,657b66ea316d21385b68909f,,,,,,,,,,,,,,,,,,,,,,,,,,,,,,,,,,,,,,,,,,213.4472,216.3959,right,2.9386,,216.3961,1,2,217.3957,0,7,7,7,1,0,0,0,1,,,,,,,,,,,,,,,,,,,,,,,,,,,,,,,,,,,,,,,,,
,,654136e5219cc073c4b7795c,65af56b9304b05200d92089d,2024-01-23_08h09.30.152,bars,2023.2.3,Win32,60.24096386,657b66ea316d21385b68909f,,,,,,,,,,,,,,,,,,,,,,,,,,,,,,,,,,,,,,,,,,217.412,219.8454,right,2.4262,,219.8455,0,2,220.834,0,8,8,8,1,0,2,1,0,,,,,,,,,,,,,,,,,,,,,,,,,,,,,,,,,,,,,,,,,
,,654136e5219cc073c4b7795c,65af56b9304b05200d92089d,2024-01-23_08h09.30.152,bars,2023.2.3,Win32,60.24096386,657b66ea316d21385b68909f,,,,,,,,,,,,,,,,,,,,,,,,,,,,,,,,,,,,,,,,,,220.8345,223.1786,left,2.3189,,223.1787,2,1,224.178,0,9,9,9,1,2,4,2,3,,,,,,,,,,,,,,,,,,,,,,,,,,,,,,,,,,,,,,,,,
,,654136e5219cc073c4b7795c,65af56b9304b05200d92089d,2024-01-23_08h09.30.152,bars,2023.2.3,Win32,60.24096386,657b66ea316d21385b68909f,,,,,,,,,,,,,,,,,,,,,,,,,,,,,,,,,,,,,,,,,,224.1965,226.3821,right,2.1798,,226.3822,3,2,227.3773,0,10,10,10,1,0,2,0,3,,,,,,,,,,,,,,,,,,,,,,,,,,,,,,,,,,,,,,,,,
,,654136e5219cc073c4b7795c,65af56b9304b05200d92089d,2024-01-23_08h09.30.152,bars,2023.2.3,Win32,60.24096386,657b66ea316d21385b68909f,,,,,,,,,,,,,,,,,,,,,,,,,,,,,,,,,,,,,,,,,,227.3928,229.8273,right,2.4258,,229.8273,3,2,230.8268,0,11,11,11,1,0,4,0,3,,,,,,,,,,,,,,,,,,,,,,,,,,,,,,,,,,,,,,,,,
,,654136e5219cc073c4b7795c,65af56b9304b05200d92089d,2024-01-23_08h09.30.152,bars,2023.2.3,Win32,60.24096386,657b66ea316d21385b68909f,,,,,,,,,,,,,,,,,,,,,,,,,,,,,,,,,,,,,,,,,,230.8273,233.2768,right,2.4232,,233.2769,6,2,234.2767,0,12,12,12,1,2,6,1,6,,,,,,,,,,,,,,,,,,,,,,,,,,,,,,,,,,,,,,,,,
,,654136e5219cc073c4b7795c,65af56b9304b05200d92089d,2024-01-23_08h09.30.152,bars,2023.2.3,Win32,60.24096386,657b66ea316d21385b68909f,,,,,,,,,,,,,,,,,,,,,,,,,,,,,,,,,,,,,,,,,,234.293,236.3767,left,2.0757,,236.3767,1,1,237.3815,0,13,13,13,1,0,4,1,3,,,,,,,,,,,,,,,,,,,,,,,,,,,,,,,,,,,,,,,,,
,,654136e5219cc073c4b7795c,65af56b9304b05200d92089d,2024-01-23_08h09.30.152,bars,2023.2.3,Win32,60.24096386,657b66ea316d21385b68909f,,,,,,,,,,,,,,,,,,,,,,,,,,,,,,,,,,,,,,,,,,237.3983,239.6165,right,2.2123,,239.6166,7,2,240.6095,0,14,14,14,1,2,6,2,7,,,,,,,,,,,,,,,,,,,,,,,,,,,,,,,,,,,,,,,,,
,,654136e5219cc073c4b7795c,65af56b9304b05200d92089d,2024-01-23_08h09.30.152,bars,2023.2.3,Win32,60.24096386,657b66ea316d21385b68909f,,,,,,,,,,,,,,,,,,,,,,,,,,,,,,,,,,,,,,,,,,240.6101,243.0593,left,2.4205,,243.0593,3,1,244.062,0,15,15,15,1,4,8,3,9,,,,,,,,,,,,,,,,,,,,,,,,,,,,,,,,,,,,,,,,,
,,654136e5219cc073c4b7795c,65af56b9304b05200d92089d,2024-01-23_08h09.30.152,bars,2023.2.3,Win32,60.24096386,657b66ea316d21385b68909f,,,,,,,,,,,,,,,,,,,,,,,,,,,,,,,,,,,,,,,,,,244.0787,245.999,right,1.9143,,245.9991,7,2,246.9919,0,16,16,16,1,6,6,7,7,,,,,,,,,,,,,,,,,,,,,,,,,,,,,,,,,,,,,,,,,
,,654136e5219cc073c4b7795c,65af56b9304b05200d92089d,2024-01-23_08h09.30.152,bars,2023.2.3,Win32,60.24096386,657b66ea316d21385b68909f,,,,,,,,,,,,,,,,,,,,,,,,,,,,,,,,,,,,,,,,,,246.9924,249.2921,left,2.2675,,249.2922,9,1,250.2916,0,17,17,17,1,8,4,9,5,,,,,,,,,,,,,,,,,,,,,,,,,,,,,,,,,,,,,,,,,
,,654136e5219cc073c4b7795c,65af56b9304b05200d92089d,2024-01-23_08h09.30.152,bars,2023.2.3,Win32,60.24096386,657b66ea316d21385b68909f,,,,,,,,,,,,,,,,,,,,,,,,,,,,,,,,,,,,,,,,,,250.3086,252.5584,left,2.2399,,252.5586,5,1,253.5578,0,18,18,18,1,6,2,5,1,,,,,,,,,,,,,,,,,,,,,,,,,,,,,,,,,,,,,,,,,
,,654136e5219cc073c4b7795c,65af56b9304b05200d92089d,2024-01-23_08h09.30.152,bars,2023.2.3,Win32,60.24096386,657b66ea316d21385b68909f,,,,,,,,,,,,,,,,,,,,,,,,,,,,,,,,,,,,,,,,,,253.5745,255.5746,right,1.9838,,255.5747,0,2,256.574,0,19,19,19,1,8,0,7,0,,,,,,,,,,,,,,,,,,,,,,,,,,,,,,,,,,,,,,,,,
,,654136e5219cc073c4b7795c,65af56b9304b05200d92089d,2024-01-23_08h09.30.152,bars,2023.2.3,Win32,60.24096386,657b66ea316d21385b68909f,,,,,,,,,,,,,,,,,,,,,,,,,,,,,,,,,,,,,,,,,,,,,,,,,,,,,,,,,,,,256.5752,275.8566,space,19.2583,,,,,,,,,,,,,,,,,,,,,,,,,,,,,,,,,,,,,
,,654136e5219cc073c4b7795c,65af56b9304b05200d92089d,2024-01-23_08h09.30.152,bars,2023.2.3,Win32,60.24096386,657b66ea316d21385b68909f,,,,,,,,,,,277.7615,278.7547,,,279.2549,279.5045,,0,180,,,,,,,,,,,,,,,,bars/012.png,bars/mask004.png,,,,,,,,,,,,1,2,,,,,,,8,2,9,1,,,,,,275.8766,277.7554,space,1.8592,,278.7552,279.2548,279.5049,285.6883,space,6.1621,,285.6886,90,15,286.6869,286.6873,295.3866,space,8.6718,,0,0,0,0,1,90,15,,,,,,,,
,,654136e5219cc073c4b7795c,65af56b9304b05200d92089d,2024-01-23_08h09.30.152,bars,2023.2.3,Win32,60.24096386,657b66ea316d21385b68909f,,,,,,,,,,,295.4036,296.4024,,,296.9023,297.1522,,0,180,,,,,,,,,,,,,,,,bars/026.png,bars/mask000.png,,,,,,,,,,,,0,1,,,,,,,6,4,6,4,,,,,,,,,,,296.4025,296.9022,297.1523,303.8516,space,6.6811,,303.8519,35,85,304.851,304.8511,313.4007,space,8.5148,,0,1,1,1,1,35,85,,,,,,,,
,,654136e5219cc073c4b7795c,65af56b9304b05200d92089d,2024-01-23_08h09.30.152,bars,2023.2.3,Win32,60.24096386,657b66ea316d21385b68909f,,,,,,,,,,,313.4182,314.4169,,,314.9168,315.1666,,90,90,,,,,,,,,,,,,,,,bars/034.png,bars/mask003.png,,,,,,,,,,,,0,2,,,,,,,8,2,8,2,,,,,,,,,,,314.4169,314.9168,315.1668,332.5157,space,17.3341,,332.5158,35,25,333.5155,333.5155,339.2473,space,5.6916,,0,2,2,2,1,125,65,,,,,,,,
,,654136e5219cc073c4b7795c,65af56b9304b05200d92089d,2024-01-23_08h09.30.152,bars,2023.2.3,Win32,60.24096386,657b66ea316d21385b68909f,,,,,,,,,,,339.2665,340.2634,,,340.7636,341.0133,,90,90,,,,,,,,,,,,,,,,bars/028.png,bars/mask004.png,,,,,,,,,,,,0,2,,,,,,,6,4,5,5,,,,,,,,,,,340.2635,340.7634,341.0133,345.3527,space,4.3167,,345.3527,45,30,346.3461,346.3461,348.7294,space,2.3487,,0,3,3,3,1,45,120,,,,,,,,
,,654136e5219cc073c4b7795c,65af56b9304b05200d92089d,2024-01-23_08h09.30.152,bars,2023.2.3,Win32,60.24096386,657b66ea316d21385b68909f,,,,,,,,,,,348.7306,349.7345,,,350.2341,350.4788,,90,90,,,,,,,,,,,,,,,,bars/023.png,bars/mask004.png,,,,,,,,,,,,0,2,,,,,,,4,2,5,1,,,,,,,,,,,349.7346,350.2341,350.4788,363.7677,space,13.2666,,363.7678,70,25,364.7659,364.7661,367.5094,space,2.7152,,0,4,4,4,1,20,115,,,,,,,,
,,654136e5219cc073c4b7795c,65af56b9304b05200d92089d,2024-01-23_08h09.30.152,bars,2023.2.3,Win32,60.24096386,657b66ea316d21385b68909f,,,,,,,,,,,367.5101,368.5098,,,369.0102,369.2597,,90,90,,,,,,,,,,,,,,,,bars/017.png,bars/mask000.png,,,,,,,,,,,,0,2,,,,,,,2,0,3,2,,,,,,,,,,,368.5098,369.0101,369.2598,375.5091,space,6.2312,,375.5092,55,45,376.5087,376.5088,378.792,space,2.2508,,0,5,5,5,1,145,45,,,,,,,,
,,654136e5219cc073c4b7795c,65af56b9304b05200d92089d,2024-01-23_08h09.30.152,bars,2023.2.3,Win32,60.24096386,657b66ea316d21385b68909f,,,,,,,,,,,378.7927,379.7917,,,380.2916,380.5417,,0,180,,,,,,,,,,,,,,,,bars/049.png,bars/mask009.png,,,,,,,,,,,,0,1,,,,,,,0,2,1,3,,,,,,,,,,,379.7918,380.2915,380.5419,386.2909,space,5.7338,,386.291,20,65,387.2907,387.2907,392.8305,space,5.5099,,0,6,6,6,1,160,115,,,,,,,,
,,654136e5219cc073c4b7795c,65af56b9304b05200d92089d,2024-01-23_08h09.30.152,bars,2023.2.3,Win32,60.24096386,657b66ea316d21385b68909f,,,,,,,,,,,392.8474,393.8449,,,394.34,394.5898,,0,180,,,,,,,,,,,,,,,,bars/023.png,bars/mask007.png,,,,,,,,,,,,1,1,,,,,,,2,0,2,0,,,,,,,,,,,393.845,394.34,394.5898,399.2791,space,4.6666,,399.2792,20,65,400.2786,400.2786,402.3552,space,2.0421,,0,7,7,7,1,20,115,,,,,,,,
,,654136e5219cc073c4b7795c,65af56b9304b05200d92089d,2024-01-23_08h09.30.152,bars,2023.2.3,Win32,60.24096386,657b66ea316d21385b68909f,,,,,,,,,,,402.3562,403.3443,,,403.8389,404.0778,,0,0,,,,,,,,,,,,,,,,bars/037.png,bars/mask007.png,,,,,,,,,,,,0,1,,,,,,,0,2,0,2,,,,,,,,,,,403.3443,403.8387,404.0779,410.7548,space,6.6507,,410.755,30,75,411.7544,411.7544,413.4775,space,1.6956,,0,8,8,8,1,150,105,,,,,,,,
,,654136e5219cc073c4b7795c,65af56b9304b05200d92089d,2024-01-23_08h09.30.152,bars,2023.2.3,Win32,60.24096386,657b66ea316d21385b68909f,,,,,,,,,,,413.478,414.4707,,,414.959,415.2036,,90,90,,,,,,,,,,,,,,,,bars/007.png,bars/mask002.png,,,,,,,,,,,,0,2,,,,,,,0,4,0,4,,,,,,,,,,,414.4707,414.959,415.2036,421.7197,space,6.5002,,421.7198,85,35,422.7195,422.7196,424.6361,space,1.8796,,0,9,9,9,1,175,55,,,,,,,,
,,654136e5219cc073c4b7795c,65af56b9304b05200d92089d,2024-01-23_08h09.30.152,bars,2023.2.3,Win32,60.24096386,657b66ea316d21385b68909f,,,,,,,,,,,424.6372,425.6358,,,426.1251,426.3691,,90,90,,,,,,,,,,,,,,,,bars/040.png,bars/mask005.png,,,,,,,,,,,,0,1,,,,,,,0,6,3,5,,,,,,,,,,,425.636,426.1251,426.3692,433.0253,space,6.6335,,433.0254,50,85,434.0179,434.018,436.5735,space,2.5253,,0,10,10,10,1,140,5,,,,,,,,
,,654136e5219cc073c4b7795c,65af56b9304b05200d92089d,2024-01-23_08h09.30.152,bars,2023.2.3,Win32,60.24096386,657b66ea316d21385b68909f,,,,,,,,,,,436.5743,437.5676,,,438.0674,438.3172,,0,0,,,,,,,,,,,,,,,,bars/010.png,bars/mask004.png,,,,,,,,,,,,2,1,,,,,,,2,4,3,5,,,,,,,,,,,437.5677,438.0673,438.3173,443.6409,space,5.3009,,443.6409,15,55,444.6334,444.6335,446.1903,space,1.5313,,0,11,11,11,1,165,55,,,,,,,,
,,654136e5219cc073c4b7795c,65af56b9304b05200d92089d,2024-01-23_08h09.30.152,bars,2023.2.3,Win32,60.24096386,657b66ea316d21385b68909f,,,,,,,,,,,446.1909,447.1828,,,447.683,447.933,,90,90,,,,,,,,,,,,,,,,bars/010.png,bars/mask004.png,,,,,,,,,,,,0,2,,,,,,,0,6,0,5,,,,,,,,,,,447.1828,447.683,447.933,454.4326,space,6.4679,,454.4327,75,35,455.4208,455.4209,456.9152,space,1.4569,,0,12,12,12,1,165,55,,,,,,,,
,,654136e5219cc073c4b7795c,65af56b9304b05200d92089d,2024-01-23_08h09.30.152,bars,2023.2.3,Win32,60.24096386,657b66ea316d21385b68909f,,,,,,,,,,,456.9158,457.9151,,,458.415,458.665,,0,180,,,,,,,,,,,,,,,,bars/006.png,bars/mask006.png,,,,,,,,,,,,0,1,,,,,,,2,4,2,4,,,,,,,,,,,457.9151,458.4149,458.6653,462.331,space,3.6501,,462.3311,35,80,463.331,463.3311,464.3142,space,0.9461,,0,13,13,13,1,35,100,,,,,,,,
,,654136e5219cc073c4b7795c,65af56b9304b05200d92089d,2024-01-23_08h09.30.152,bars,2023.2.3,Win32,60.24096386,657b66ea316d21385b68909f,,,,,,,,,,,464.3149,465.314,,,465.8141,466.0638,,90,90,,,,,,,,,,,,,,,,bars/036.png,bars/mask003.png,,,,,,,,,,,,0,1,,,,,,,0,6,0,6,,,,,,,,,,,465.314,465.8141,466.0639,471.6134,space,5.5346,,471.6134,55,70,472.6131,472.6133,475.813,space,3.1676,,0,14,14,14,1,145,20,,,,,,,,
,,654136e5219cc073c4b7795c,65af56b9304b05200d92089d,2024-01-23_08h09.30.152,bars,2023.2.3,Win32,60.24096386,657b66ea316d21385b68909f,,,,,,,,,,,475.8287,476.8294,,,477.3293,477.5793,,90,90,,,,,,,,,,,,,,,,bars/044.png,bars/mask006.png,,,,,,,,,,,,1,1,,,,,,,2,8,1,8,,,,,,,,,,,476.8294,477.3292,477.5793,483.3787,space,5.7895,,483.3789,15,65,484.3782,484.3782,485.3451,space,0.9319,,0,15,15,15,1,75,155,,,,,,,,
,,654136e5219cc073c4b7795c,65af56b9304b05200d92089d,2024-01-23_08h09.30.152,bars,2023.2.3,Win32,60.24096386,657b66ea316d21385b68909f,,,,,,,,,,,485.3464,486.3447,,,486.8448,487.0947,,0,0,,,,,,,,,,,,,,,,bars/041.png,bars/mask004.png,,,,,,,,,,,,0,1,,,,,,,0,10,0,9,,,,,,,,,,,486.3448,486.8448,487.0947,491.1773,space,4.072,,491.1773,20,85,492.1775,492.1775,494.6938,space,2.4796,,0,16,16,16,1,20,85,,,,,,,,
,,654136e5219cc073c4b7795c,65af56b9304b05200d92089d,2024-01-23_08h09.30.152,bars,2023.2.3,Win32,60.24096386,657b66ea316d21385b68909f,,,,,,,,,,,494.71,495.7102,,,496.2101,496.4602,,90,90,,,,,,,,,,,,,,,,bars/040.png,bars/mask000.png,,,,,,,,,,,,0,1,,,,,,,0,10,0,10,,,,,,,,,,,495.7102,496.2101,496.4602,501.7763,space,5.2997,,501.7763,50,85,502.776,502.7761,503.5427,space,0.7364,,0,17,17,17,1,140,5,,,,,,,,
,,654136e5219cc073c4b7795c,65af56b9304b05200d92089d,2024-01-23_08h09.30.152,bars,2023.2.3,Win32,60.24096386,657b66ea316d21385b68909f,,,,,,,,,,,503.5441,504.5423,,,505.0421,505.2923,,0,0,,,,,,,,,,,,,,,,bars/018.png,bars/mask000.png,,,,,,,,,,,,0,1,,,,,,,0,10,0,9,,,,,,,,,,,504.5423,505.042,505.2923,511.3751,space,6.0665,,511.3751,30,90,512.3749,512.3749,513.0582,space,0.6502,,0,18,18,18,1,150,90,,,,,,,,
,,654136e5219cc073c4b7795c,65af56b9304b05200d92089d,2024-01-23_08h09.30.152,bars,2023.2.3,Win32,60.24096386,657b66ea316d21385b68909f,,,,,,,,,,,513.0589,514.0577,,,514.5579,514.8076,,0,0,,,,,,,,,,,,,,,,bars/020.png,bars/mask005.png,,,,,,,,,,,,5,2,,,,,,,2,8,2,8,,,,,,,,,,,514.0577,514.5579,514.8077,519.0908,space,4.2743,,519.0908,65,10,520.0903,520.0905,520.9304,space,0.81,,0,19,19,19,1,115,170,,,,,,,,
,,654136e5219cc073c4b7795c,65af56b9304b05200d92089d,2024-01-23_08h09.30.152,bars,2023.2.3,Win32,60.24096386,657b66ea316d21385b68909f,,,,,,,,,,,520.9315,521.9236,,,522.4236,522.6735,,90,90,,,,,,,,,,,,,,,,bars/019.png,bars/mask006.png,,,,,,,,,,,,3,2,,,,,,,0,6,1,6,,,,,,,,,,,521.9236,522.4235,522.6735,528.0563,space,5.3507,,528.0563,45,15,529.0557,529.0557,529.7624,space,0.6799,,0,20,20,20,1,45,105,,,,,,,,
,,654136e5219cc073c4b7795c,65af56b9304b05200d92089d,2024-01-23_08h09.30.152,bars,2023.2.3,Win32,60.24096386,657b66ea316d21385b68909f,,,,,,,,,,,529.7634,530.7554,,,531.2558,531.4951,,90,90,,,,,,,,,,,,,,,,bars/044.png,bars/mask000.png,,,,,,,,,,,,1,1,,,,,,,2,8,2,5,,,,,,,,,,,530.7555,531.2557,531.4951,534.8054,space,3.2871,,534.8056,15,65,535.8049,535.8049,536.7112,space,0.877,,0,21,21,21,1,75,155,,,,,,,,
,,654136e5219cc073c4b7795c,65af56b9304b05200d92089d,2024-01-23_08h09.30.152,bars,2023.2.3,Win32,60.24096386,657b66ea316d21385b68909f,,,,,,,,,,,536.7116,537.7106,,,538.2048,538.4597,,0,180,,,,,,,,,,,,,,,,bars/048.png,bars/mask008.png,,,,,,,,,,,,6,2,,,,,,,4,6,4,7,,,,,,,,,,,537.7106,538.2048,538.4598,541.9877,space,3.5048,,541.9879,50,5,542.9872,542.9872,544.4775,space,1.4602,,0,22,22,22,1,50,175,,,,,,,,
,,654136e5219cc073c4b7795c,65af56b9304b05200d92089d,2024-01-23_08h09.30.152,bars,2023.2.3,Win32,60.24096386,657b66ea316d21385b68909f,,,,,,,,,,,544.478,545.4704,,,545.9705,546.2096,,0,180,,,,,,,,,,,,,,,,bars/042.png,bars/mask000.png,,,,,,,,,,,,0,1,,,,,,,2,4,3,4,,,,,,,,,,,545.4704,545.9704,546.2096,551.6934,space,5.4669,,551.6934,35,75,552.6863,552.6864,553.5695,space,0.8534,,0,23,23,23,1,145,75,,,,,,,,
,,654136e5219cc073c4b7795c,65af56b9304b05200d92089d,2024-01-23_08h09.30.152,bars,2023.2.3,Win32,60.24096386,657b66ea316d21385b68909f,,,,,,,,,,,553.5702,554.5694,,,555.0693,555.3192,,0,180,,,,,,,,,,,,,,,,bars/020.png,bars/mask002.png,,,,,,,,,,,,2,2,,,,,,,0,2,1,3,,,,,,,,,,,554.5695,555.0692,555.3193,559.4357,space,4.0846,,559.4359,65,10,560.4353,560.4353,561.7091,space,1.2442,,0,24,24,24,1,115,170,,,,,,,,
,,654136e5219cc073c4b7795c,65af56b9304b05200d92089d,2024-01-23_08h09.30.152,bars,2023.2.3,Win32,60.24096386,657b66ea316d21385b68909f,,,,,,,,,,,561.71,562.7017,,,563.1908,563.4346,,0,180,,,,,,,,,,,,,,,,bars/032.png,bars/mask008.png,,,,,,,,,,,,0,2,,,,,,,0,0,2,0,,,,,,,,,,,562.7017,563.1907,563.4347,568.0412,space,4.5835,,568.0412,55,20,569.034,569.0341,569.9173,space,0.8489,,0,25,25,25,1,125,20,,,,,,,,
,,654136e5219cc073c4b7795c,65af56b9304b05200d92089d,2024-01-23_08h09.30.152,bars,2023.2.3,Win32,60.24096386,657b66ea316d21385b68909f,,,,,,,,,,,569.9184,570.9172,,,571.4172,571.6565,,90,90,,,,,,,,,,,,,,,,bars/022.png,bars/mask001.png,,,,,,,,,,,,1,1,,,,,,,2,0,1,0,,,,,,,,,,,570.9172,571.4171,571.6566,573.2068,space,1.5338,,573.207,5,70,574.2002,574.2002,575.8835,space,1.652,,0,26,26,26,1,95,20,,,,,,,,
,,654136e5219cc073c4b7795c,65af56b9304b05200d92089d,2024-01-23_08h09.30.152,bars,2023.2.3,Win32,60.24096386,657b66ea316d21385b68909f,,,,,,,,,,,575.8844,576.889,,,577.3833,577.633,,90,90,,,,,,,,,,,,,,,,bars/000.png,bars/mask000.png,,,,,,,,,,,,0,1,,,,,,,0,2,0,2,,,,,,,,,,,576.8891,577.3832,577.633,581.9222,space,4.2673,,581.9222,50,55,582.9214,582.9214,584.1723,space,1.2253,,0,27,27,27,1,40,145,,,,,,,,
,,654136e5219cc073c4b7795c,65af56b9304b05200d92089d,2024-01-23_08h09.30.152,bars,2023.2.3,Win32,60.24096386,657b66ea316d21385b68909f,,,,,,,,,,,584.1728,585.1653,,,585.6558,585.8986,,90,90,,,,,,,,,,,,,,,,bars/049.png,bars/mask003.png,,,,,,,,,,,,0,2,,,,,,,0,0,0,1,,,,,,,,,,,585.1654,585.6558,585.8986,593.4704,space,7.5493,,593.4705,70,25,594.4642,594.4643,595.1707,space,0.6751,,0,28,28,28,1,160,115,,,,,,,,
,,654136e5219cc073c4b7795c,65af56b9304b05200d92089d,2024-01-23_08h09.30.152,bars,2023.2.3,Win32,60.24096386,657b66ea316d21385b68909f,,,,,,,,,,,595.1712,596.1639,,,596.6698,596.9137,,90,90,,,,,,,,,,,,,,,,bars/038.png,bars/mask009.png,,,,,,,,,,,,0,2,,,,,,,2,0,2,0,,,,,,,,,,,596.1639,596.6698,596.9137,601.887,space,4.9504,,601.8871,75,20,602.8798,602.8798,603.6172,space,0.7124,,0,29,29,29,1,165,70,,,,,,,,
,,654136e5219cc073c4b7795c,65af56b9304b05200d92089d,2024-01-23_08h09.30.152,bars,2023.2.3,Win32,60.24096386,657b66ea316d21385b68909f,,,,,,,,,,,603.6177,604.6188,,,605.1128,605.363,,90,90,,,,,,,,,,,,,,,,bars/022.png,bars/mask000.png,,,,,,,,,,,,0,1,,,,,,,0,2,0,2,,,,,,,,,,,604.6188,605.1127,605.363,610.8457,space,5.4576,,610.8459,5,70,611.8453,611.8454,612.6687,space,0.792,,0,30,30,30,1,95,20,,,,,,,,
,,654136e5219cc073c4b7795c,65af56b9304b05200d92089d,2024-01-23_08h09.30.152,bars,2023.2.3,Win32,60.24096386,657b66ea316d21385b68909f,,,,,,,,,,,612.6691,613.6618,,,614.1618,614.4118,,0,180,,,,,,,,,,,,,,,,bars/000.png,bars/mask005.png,,,,,,,,,,,,0,2,,,,,,,2,0,1,0,,,,,,,,,,,613.6618,614.1618,614.4119,618.8017,space,4.3673,,618.8017,40,35,619.7993,619.7994,621.511,space,1.6783,,0,31,31,31,1,40,145,,,,,,,,
,,654136e5219cc073c4b7795c,65af56b9304b05200d92089d,2024-01-23_08h09.30.152,bars,2023.2.3,Win32,60.24096386,657b66ea316d21385b68909f,,,,,,,,,,,621.5117,622.5107,,,623.0108,623.2605,,90,90,,,,,,,,,,,,,,,,bars/007.png,bars/mask000.png,,,,,,,,,,,,0,2,,,,,,,4,2,5,2,,,,,,,,,,,622.5107,623.0107,623.2605,628.0434,space,4.7667,,628.0435,85,35,629.043,629.0431,629.9764,space,0.9013,,0,32,32,32,1,175,55,,,,,,,,
,,654136e5219cc073c4b7795c,65af56b9304b05200d92089d,2024-01-23_08h09.30.152,bars,2023.2.3,Win32,60.24096386,657b66ea316d21385b68909f,,,,,,,,,,,629.9771,630.9757,,,631.4763,631.7262,,0,180,,,,,,,,,,,,,,,,bars/023.png,bars/mask001.png,,,,,,,,,,,,1,1,,,,,,,2,0,3,1,,,,,,,,,,,630.9758,631.4762,631.7262,636.7258,space,4.9836,,636.7258,20,65,637.7255,637.7256,638.8254,space,1.0639,,0,33,33,33,1,20,115,,,,,,,,
,,654136e5219cc073c4b7795c,65af56b9304b05200d92089d,2024-01-23_08h09.30.152,bars,2023.2.3,Win32,60.24096386,657b66ea316d21385b68909f,,,,,,,,,,,638.826,639.825,,,640.325,640.5747,,90,90,,,,,,,,,,,,,,,,bars/042.png,bars/mask002.png,,,,,,,,,,,,0,2,,,,,,,0,0,0,0,,,,,,,,,,,639.825,640.325,640.5747,646.2415,space,5.6583,,646.2417,55,15,647.2405,647.2405,648.9131,space,1.6417,,0,34,34,34,1,145,75,,,,,,,,
,,654136e5219cc073c4b7795c,65af56b9304b05200d92089d,2024-01-23_08h09.30.152,bars,2023.2.3,Win32,60.24096386,657b66ea316d21385b68909f,,,,,,,,,,,648.9135,649.9071,,,650.407,650.6462,,90,90,,,,,,,,,,,,,,,,bars/031.png,bars/mask002.png,,,,,,,,,,,,0,1,,,,,,,0,2,1,1,,,,,,,,,,,649.9072,650.4069,650.6462,656.0564,space,5.385,,656.0565,30,55,657.0564,657.0564,657.8132,space,0.7261,,0,35,35,35,1,120,35,,,,,,,,
,,654136e5219cc073c4b7795c,65af56b9304b05200d92089d,2024-01-23_08h09.30.152,bars,2023.2.3,Win32,60.24096386,657b66ea316d21385b68909f,,,,,,,,,,,657.8138,658.806,,,659.3061,659.5559,,90,90,,,,,,,,,,,,,,,,bars/039.png,bars/mask006.png,,,,,,,,,,,,0,2,,,,,,,0,0,0,0,,,,,,,,,,,658.8061,659.3061,659.556,664.8111,space,5.2332,,664.8111,85,15,665.8106,665.8107,666.5219,space,0.6722,,0,36,36,36,1,175,105,,,,,,,,
,,654136e5219cc073c4b7795c,65af56b9304b05200d92089d,2024-01-23_08h09.30.152,bars,2023.2.3,Win32,60.24096386,657b66ea316d21385b68909f,,,,,,,,,,,666.5232,667.5216,,,668.0213,668.2712,,90,90,,,,,,,,,,,,,,,,bars/009.png,bars/mask006.png,,,,,,,,,,,,0,2,,,,,,,0,0,0,0,,,,,,,,,,,667.5216,668.0213,668.2713,673.2374,space,4.9491,,673.2376,75,15,674.2371,674.2372,674.9873,space,0.7161,,0,37,37,37,1,15,105,,,,,,,,
,,654136e5219cc073c4b7795c,65af56b9304b05200d92089d,2024-01-23_08h09.30.152,bars,2023.2.3,Win32,60.24096386,657b66ea316d21385b68909f,,,,,,,,,,,674.9879,675.987,,,676.4869,676.7371,,90,90,,,,,,,,,,,,,,,,bars/025.png,bars/mask001.png,,,,,,,,,,,,0,1,,,,,,,0,0,0,1,,,,,,,,,,,675.987,676.4869,676.7371,683.1697,space,6.4187,,683.1698,15,50,684.1695,684.1696,692.135,space,7.937,,0,38,38,38,1,105,40,,,,,,,,
,,654136e5219cc073c4b7795c,65af56b9304b05200d92089d,2024-01-23_08h09.30.152,bars,2023.2.3,Win32,60.24096386,657b66ea316d21385b68909f,,,,,,,,,,,692.1514,693.1516,,,693.6516,693.9016,,0,0,,,,,,,,,,,,,,,,bars/046.png,bars/mask002.png,,,,,,,,,,,,0,1,,,,,,,2,0,3,0,,,,,,,,,,,693.1517,693.6516,693.9017,699.9674,space,6.0493,,699.9674,25,85,700.9672,700.9672,702.0506,space,1.0477,,0,39,39,39,1,155,85,,,,,,,,
,,654136e5219cc073c4b7795c,65af56b9304b05200d92089d,2024-01-23_08h09.30.152,bars,2023.2.3,Win32,60.24096386,657b66ea316d21385b68909f,,,,,,,,,,,702.0514,703.0503,,,703.5504,703.8054,,0,0,,,,,,,,,,,,,,,,bars/037.png,bars/mask001.png,,,,,,,,,,,,0,1,,,,,,,4,0,4,1,,,,,,,,,,,703.0503,703.5504,703.8055,709.1332,space,5.3055,,709.1333,30,75,710.1329,710.1329,710.8396,space,0.6801,,0,40,40,40,1,150,105,,,,,,,,
,,654136e5219cc073c4b7795c,65af56b9304b05200d92089d,2024-01-23_08h09.30.152,bars,2023.2.3,Win32,60.24096386,657b66ea316d21385b68909f,,,,,,,,,,,710.8403,711.8384,,,712.3325,712.5718,,90,90,,,,,,,,,,,,,,,,bars/033.png,bars/mask005.png,,,,,,,,,,,,0,2,,,,,,,6,0,4,0,,,,,,,,,,,711.8386,712.3325,712.5719,719.1985,space,6.6006,,719.1985,65,65,720.1868,720.1868,720.9813,space,0.7629,,0,41,41,41,1,25,155,,,,,,,,
,,654136e5219cc073c4b7795c,65af56b9304b05200d92089d,2024-01-23_08h09.30.152,bars,2023.2.3,Win32,60.24096386,657b66ea316d21385b68909f,,,,,,,,,,,720.9821,721.9811,,,722.4814,722.7313,,90,90,,,,,,,,,,,,,,,,bars/023.png,bars/mask004.png,,,,,,,,,,,,0,2,,,,,,,4,2,5,2,,,,,,,,,,,721.9811,722.4814,722.7314,726.3308,space,3.5847,,726.3308,70,25,727.3305,727.3305,727.9976,space,0.6366,,0,42,42,42,1,20,115,,,,,,,,
,,654136e5219cc073c4b7795c,65af56b9304b05200d92089d,2024-01-23_08h09.30.152,bars,2023.2.3,Win32,60.24096386,657b66ea316d21385b68909f,,,,,,,,,,,727.9989,728.9971,,,729.4976,729.7471,,90,90,,,,,,,,,,,,,,,,bars/036.png,bars/mask002.png,,,,,,,,,,,,0,1,,,,,,,6,0,7,1,,,,,,,,,,,728.9971,729.4975,729.7471,735.3129,space,5.5498,,735.3131,55,70,736.3127,736.3127,737.0793,space,0.7348,,0,43,43,43,1,145,20,,,,,,,,
,,654136e5219cc073c4b7795c,65af56b9304b05200d92089d,2024-01-23_08h09.30.152,bars,2023.2.3,Win32,60.24096386,657b66ea316d21385b68909f,,,,,,,,,,,737.0799,738.0793,,,738.5787,738.8293,,90,90,,,,,,,,,,,,,,,,bars/000.png,bars/mask006.png,,,,,,,,,,,,0,1,,,,,,,4,2,6,2,,,,,,,,,,,738.0793,738.5787,738.8294,743.2448,space,4.388,,743.2449,50,55,744.2448,744.2448,744.9279,space,0.6553,,0,44,44,44,1,40,145,,,,,,,,
,,654136e5219cc073c4b7795c,65af56b9304b05200d92089d,2024-01-23_08h09.30.152,bars,2023.2.3,Win32,60.24096386,657b66ea316d21385b68909f,,,,,,,,,,,744.9285,745.9278,,,746.4278,746.6778,,90,90,,,,,,,,,,,,,,,,bars/020.png,bars/mask002.png,,,,,,,,,,,,0,1,,,,,,,2,4,3,4,,,,,,,,,,,745.9278,746.4277,746.6778,751.6672,space,4.9671,,751.6672,25,80,752.6607,752.6607,753.5608,space,0.8698,,0,45,45,45,1,115,170,,,,,,,,
,,654136e5219cc073c4b7795c,65af56b9304b05200d92089d,2024-01-23_08h09.30.152,bars,2023.2.3,Win32,60.24096386,657b66ea316d21385b68909f,,,,,,,,,,,753.5615,754.5605,,,755.0602,755.3103,,90,90,,,,,,,,,,,,,,,,bars/035.png,bars/mask001.png,,,,,,,,,,,,0,2,,,,,,,4,2,4,1,,,,,,,,,,,754.5605,755.0602,755.3104,758.6668,space,3.3338,,758.6668,85,30,759.6598,759.6598,760.3767,space,0.6779,,0,46,46,46,1,175,60,,,,,,,,
,,654136e5219cc073c4b7795c,65af56b9304b05200d92089d,2024-01-23_08h09.30.152,bars,2023.2.3,Win32,60.24096386,657b66ea316d21385b68909f,,,,,,,,,,,760.3776,761.3761,,,761.8774,762.1261,,90,90,,,,,,,,,,,,,,,,bars/048.png,bars/mask002.png,,,,,,,,,,,,0,1,,,,,,,6,0,6,0,,,,,,,,,,,761.3761,761.8773,762.1262,768.9922,space,6.84,,768.9924,40,85,769.9918,769.9919,770.6587,space,0.6267,,0,47,47,47,1,50,175,,,,,,,,
,,654136e5219cc073c4b7795c,65af56b9304b05200d92089d,2024-01-23_08h09.30.152,bars,2023.2.3,Win32,60.24096386,657b66ea316d21385b68909f,,,,,,,,,,,770.6598,771.6583,,,772.1635,772.4132,,90,90,,,,,,,,,,,,,,,,bars/017.png,bars/mask007.png,,,,,,,,,,,,0,2,,,,,,,4,2,5,2,,,,,,,,,,,771.6584,772.1635,772.4132,782.5569,space,10.1174,,782.557,55,45,783.5565,783.5565,784.307,space,0.7148,,0,48,48,48,1,145,45,,,,,,,,
,,654136e5219cc073c4b7795c,65af56b9304b05200d92089d,2024-01-23_08h09.30.152,bars,2023.2.3,Win32,60.24096386,657b66ea316d21385b68909f,,,,,,,,,,,784.3079,785.3067,,,785.7956,786.0399,,0,180,,,,,,,,,,,,,,,,bars/003.png,bars/mask001.png,,,,,,,,,,,,1,1,,,,,,,2,4,4,3,,,,,,,,,,,785.3067,785.7955,786.0399,789.6561,space,3.5902,,789.6563,25,40,790.6558,790.6558,791.3225,space,0.6281,,0,49,49,49,1,25,140,,,,,,,,
,,654136e5219cc073c4b7795c,65af56b9304b05200d92089d,2024-01-23_08h09.30.152,bars,2023.2.3,Win32,60.24096386,657b66ea316d21385b68909f,,,,,,,,,,,,,,,,,,,,,,,,,,,,,,,,,,,,,,,,,,,,,,,,,,,,,,,,,,,,,,,,,,,,,,,,,,,,,,,,,,,,,,,,,,,,,791.3242,851.3214,0,0,0,4,1,sequence_tables/blk015.csv
,,654136e5219cc073c4b7795c,65af56b9304b05200d92089d,2024-01-23_08h09.30.152,bars,2023.2.3,Win32,60.24096386,657b66ea316d21385b68909f,,,,,,,,,,,863.3549,864.3464,,,864.8358,865.0797,,0,0,,,,,,,,,,,,,,,,bars/028.png,bars/mask008.png,,,,,,,,,,,,0,1,,,,,,,9,4,9,4,,,,,,851.3389,863.3299,space,11.9799,,864.3465,864.8356,865.0798,868.0959,space,2.9844,,868.096,45,60,869.0957,869.0957,869.1134,,,,0,0,0,0,1,45,120,,,,,,,,
,,654136e5219cc073c4b7795c,65af56b9304b05200d92089d,2024-01-23_08h09.30.152,bars,2023.2.3,Win32,60.24096386,657b66ea316d21385b68909f,,,,,,,,,,,869.114,870.1124,,,870.6122,870.8622,,90,90,,,,,,,,,,,,,,,,bars/034.png,bars/mask000.png,,,,,,,,,,,,0,2,,,,,,,7,2,7,0,,,,,,,,,,,870.1125,870.6122,870.8623,881.9278,space,11.0412,,881.928,35,25,882.9272,882.9272,882.9482,,,,0,1,1,1,1,125,65,,,,,,,,
,,654136e5219cc073c4b7795c,65af56b9304b05200d92089d,2024-01-23_08h09.30.152,bars,2023.2.3,Win32,60.24096386,657b66ea316d21385b68909f,,,,,,,,,,,882.9485,883.9491,,,884.444,884.6938,,90,90,,,,,,,,,,,,,,,,bars/012.png,bars/mask005.png,,,,,,,,,,,,8,1,,,,,,,9,0,8,1,,,,,,,,,,,883.9491,884.4438,884.6939,888.96,space,4.2352,,888.9601,0,75,889.9596,889.9597,889.9786,,,,0,2,2,2,1,90,15,,,,,,,,
,,654136e5219cc073c4b7795c,65af56b9304b05200d92089d,2024-01-23_08h09.30.152,bars,2023.2.3,Win32,60.24096386,657b66ea316d21385b68909f,,,,,,,,,,,889.9788,890.9763,,,891.4659,891.7094,,90,90,,,,,,,,,,,,,,,,bars/018.png,bars/mask003.png,,,,,,,,,,,,2,2,,,,,,,7,2,8,2,,,,,,,,,,,890.9763,891.4659,891.7094,895.7426,space,4.0091,,895.7427,60,0,896.7422,896.7422,896.7619,,,,0,3,3,3,1,150,90,,,,,,,,
,,654136e5219cc073c4b7795c,65af56b9304b05200d92089d,2024-01-23_08h09.30.152,bars,2023.2.3,Win32,60.24096386,657b66ea316d21385b68909f,,,,,,,,,,,896.7622,897.7588,,,898.2628,898.5089,,90,90,,,,,,,,,,,,,,,,bars/003.png,bars/mask005.png,,,,,,,,,,,,0,2,,,,,,,9,4,9,4,,,,,,,,,,,897.7589,898.2627,898.509,902.8915,space,4.3723,,902.8915,65,50,903.8913,903.8913,903.9098,,,,0,4,4,4,1,25,140,,,,,,,,
,,654136e5219cc073c4b7795c,65af56b9304b05200d92089d,2024-01-23_08h09.30.152,bars,2023.2.3,Win32,60.24096386,657b66ea316d21385b68909f,,,,,,,,,,,903.9101,904.9079,,,905.3968,905.6411,,90,90,,,,,,,,,,,,,,,,bars/037.png,bars/mask007.png,,,,,,,,,,,,3,2,,,,,,,10,6,10,6,,,,,,,,,,,904.908,905.3968,905.6412,909.0112,space,3.348,,909.0113,60,15,910.0072,910.0072,910.0253,,,,0,5,5,5,1,150,105,,,,,,,,
,,654136e5219cc073c4b7795c,65af56b9304b05200d92089d,2024-01-23_08h09.30.152,bars,2023.2.3,Win32,60.24096386,657b66ea316d21385b68909f,,,,,,,,,,,910.0256,911.0239,,,911.5131,911.7583,,90,90,,,,,,,,,,,,,,,,bars/022.png,bars/mask005.png,,,,,,,,,,,,8,1,,,,,,,8,4,9,6,,,,,,,,,,,911.0239,911.5129,911.7583,916.3285,space,4.5489,,916.3285,5,70,917.323,917.3231,917.3426,,,,0,6,6,6,1,95,20,,,,,,,,
,,654136e5219cc073c4b7795c,65af56b9304b05200d92089d,2024-01-23_08h09.30.152,bars,2023.2.3,Win32,60.24096386,657b66ea316d21385b68909f,,,,,,,,,,,917.343,918.3395,,,918.8288,919.0726,,90,90,,,,,,,,,,,,,,,,bars/020.png,bars/mask002.png,,,,,,,,,,,,2,1,,,,,,,10,2,10,2,,,,,,,,,,,918.3395,918.8288,919.0727,925.8617,space,6.7664,,925.8617,25,80,926.8605,926.8605,926.8794,,,,0,7,7,7,1,115,170,,,,,,,,
,,654136e5219cc073c4b7795c,65af56b9304b05200d92089d,2024-01-23_08h09.30.152,bars,2023.2.3,Win32,60.24096386,657b66ea316d21385b68909f,,,,,,,,,,,926.8796,927.8716,,,928.3716,928.6215,,90,90,,,,,,,,,,,,,,,,bars/043.png,bars/mask006.png,,,,,,,,,,,,0,2,,,,,,,10,4,10,4,,,,,,,,,,,927.8717,928.3716,928.6216,933.5605,space,4.9324,,933.5606,60,40,934.557,934.557,934.5754,,,,0,8,8,8,1,30,130,,,,,,,,
,,654136e5219cc073c4b7795c,65af56b9304b05200d92089d,2024-01-23_08h09.30.152,bars,2023.2.3,Win32,60.24096386,657b66ea316d21385b68909f,,,,,,,,,,,934.5756,935.5707,,,936.0708,936.3206,,90,90,,,,,,,,,,,,,,,,bars/039.png,bars/mask001.png,,,,,,,,,,,,3,2,,,,,,,8,6,6,5,,,,,,,,,,,935.5708,936.0708,936.3206,941.4573,space,5.1301,,941.4573,85,15,942.4533,942.4534,942.472,,,,0,9,9,9,1,175,105,,,,,,,,
,,654136e5219cc073c4b7795c,65af56b9304b05200d92089d,2024-01-23_08h09.30.152,bars,2023.2.3,Win32,60.24096386,657b66ea316d21385b68909f,,,,,,,,,,,942.4725,943.4697,,,943.9697,944.2196,,90,90,,,,,,,,,,,,,,,,bars/022.png,bars/mask004.png,,,,,,,,,,,,5,1,,,,,,,6,4,6,5,,,,,,,,,,,943.4697,943.9696,944.2197,947.7369,space,3.494,,947.737,5,70,948.7357,948.7357,948.755,,,,0,10,10,10,1,95,20,,,,,,,,
,,654136e5219cc073c4b7795c,65af56b9304b05200d92089d,2024-01-23_08h09.30.152,bars,2023.2.3,Win32,60.24096386,657b66ea316d21385b68909f,,,,,,,,,,,948.7553,949.7578,,,950.2521,950.5054,,90,90,,,,,,,,,,,,,,,,bars/007.png,bars/mask006.png,,,,,,,,,,,,0,2,,,,,,,4,2,3,2,,,,,,,,,,,949.7578,950.2521,950.5054,953.9577,space,3.4336,,953.9578,85,35,954.9514,954.9515,954.9708,,,,0,11,11,11,1,175,55,,,,,,,,
,,654136e5219cc073c4b7795c,65af56b9304b05200d92089d,2024-01-23_08h09.30.152,bars,2023.2.3,Win32,60.24096386,657b66ea316d21385b68909f,,,,,,,,,,,954.9711,955.9681,,,956.4681,956.718,,90,90,,,,,,,,,,,,,,,,bars/043.png,bars/mask005.png,,,,,,,,,,,,0,2,,,,,,,2,0,3,2,,,,,,,,,,,955.9681,956.4681,956.7181,961.974,space,5.2335,,961.974,60,40,962.9672,962.9673,962.9842,,,,0,12,12,12,1,30,130,,,,,,,,
,,654136e5219cc073c4b7795c,65af56b9304b05200d92089d,2024-01-23_08h09.30.152,bars,2023.2.3,Win32,60.24096386,657b66ea316d21385b68909f,,,,,,,,,,,962.9848,963.9834,,,964.4837,964.7337,,90,90,,,,,,,,,,,,,,,,bars/039.png,bars/mask007.png,,,,,,,,,,,,0,2,,,,,,,4,0,4,0,,,,,,,,,,,963.9834,964.4837,964.7338,970.9833,space,6.217,,970.9833,85,15,971.9827,971.9827,972.0017,,,,0,13,13,13,1,175,105,,,,,,,,
,,654136e5219cc073c4b7795c,65af56b9304b05200d92089d,2024-01-23_08h09.30.152,bars,2023.2.3,Win32,60.24096386,657b66ea316d21385b68909f,,,,,,,,,,,972.002,972.9993,,,973.4876,973.7323,,90,90,,,,,,,,,,,,,,,,bars/004.png,bars/mask009.png,,,,,,,,,,,,0,2,,,,,,,6,2,5,2,,,,,,,,,,,972.9993,973.4875,973.7323,977.6986,space,3.938,,977.6986,65,35,978.6874,978.6875,978.7054,,,,0,14,14,14,1,25,125,,,,,,,,
,,654136e5219cc073c4b7795c,65af56b9304b05200d92089d,2024-01-23_08h09.30.152,bars,2023.2.3,Win32,60.24096386,657b66ea316d21385b68909f,,,,,,,,,,,978.7058,979.7039,,,980.1982,980.4374,,90,90,,,,,,,,,,,,,,,,bars/049.png,bars/mask004.png,,,,,,,,,,,,1,2,,,,,,,8,4,10,6,,,,,,,,,,,979.704,980.1982,980.4375,985.3878,space,4.9338,,985.3879,70,25,986.3808,986.3808,986.3988,,,,0,15,15,15,1,160,115,,,,,,,,
,,654136e5219cc073c4b7795c,65af56b9304b05200d92089d,2024-01-23_08h09.30.152,bars,2023.2.3,Win32,60.24096386,657b66ea316d21385b68909f,,,,,,,,,,,986.3992,987.3973,,,987.897,988.1366,,90,90,,,,,,,,,,,,,,,,bars/034.png,bars/mask002.png,,,,,,,,,,,,1,2,,,,,,,10,6,10,7,,,,,,,,,,,987.3974,987.897,988.1367,991.2135,space,3.0573,,991.2136,35,25,992.2023,992.2023,992.2207,,,,0,16,16,16,1,125,65,,,,,,,,
,,654136e5219cc073c4b7795c,65af56b9304b05200d92089d,2024-01-23_08h09.30.152,bars,2023.2.3,Win32,60.24096386,657b66ea316d21385b68909f,,,,,,,,,,,992.221,993.2132,,,993.7132,993.9633,,90,90,,,,,,,,,,,,,,,,bars/011.png,bars/mask000.png,,,,,,,,,,,,4,2,,,,,,,8,4,8,5,,,,,,,,,,,993.2132,993.7132,993.9633,998.6959,space,4.7012,,998.696,70,5,999.6957,999.6957,999.7133,,,,0,17,17,17,1,160,85,,,,,,,,
,,654136e5219cc073c4b7795c,65af56b9304b05200d92089d,2024-01-23_08h09.30.152,bars,2023.2.3,Win32,60.24096386,657b66ea316d21385b68909f,,,,,,,,,,,999.7138,1000.7181,,,1001.2123,1001.4622,,90,90,,,,,,,,,,,,,,,,bars/012.png,bars/mask004.png,,,,,,,,,,,,5,1,,,,,,,6,6,5,6,,,,,,,,,,,1000.7182,1001.2122,1001.4622,1005.3781,space,3.8845,,1005.3782,0,75,1006.3783,1006.3784,1006.3983,,,,0,18,18,18,1,90,15,,,,,,,,
,,654136e5219cc073c4b7795c,65af56b9304b05200d92089d,2024-01-23_08h09.30.152,bars,2023.2.3,Win32,60.24096386,657b66ea316d21385b68909f,,,,,,,,,,,1006.3987,1007.3945,,,1007.8948,1008.1447,,90,90,,,,,,,,,,,,,,,,bars/007.png,bars/mask005.png,,,,,,,,,,,,0,2,,,,,,,8,8,8,8,,,,,,,,,,,1007.3946,1007.8948,1008.1447,1012.5776,space,4.4177,,1012.5777,85,35,1013.5771,1013.5772,1013.5965,,,,0,19,19,19,1,175,55,,,,,,,,
,,654136e5219cc073c4b7795c,65af56b9304b05200d92089d,2024-01-23_08h09.30.152,bars,2023.2.3,Win32,60.24096386,657b66ea316d21385b68909f,,,,,,,,,,,1013.5969,1014.5939,,,1015.0829,1015.3329,,90,90,,,,,,,,,,,,,,,,bars/037.png,bars/mask004.png,,,,,,,,,,,,3,2,,,,,,,10,6,10,5,,,,,,,,,,,1014.5939,1015.0829,1015.333,1021.4435,space,6.0892,,1021.4436,60,15,1022.4429,1022.4429,1022.4626,,,,0,20,20,20,1,150,105,,,,,,,,
,,654136e5219cc073c4b7795c,65af56b9304b05200d92089d,2024-01-23_08h09.30.152,bars,2023.2.3,Win32,60.24096386,657b66ea316d21385b68909f,,,,,,,,,,,1022.4629,1023.4594,,,1023.9647,1024.2094,,90,90,,,,,,,,,,,,,,,,bars/030.png,bars/mask003.png,,,,,,,,,,,,1,2,,,,,,,8,8,8,8,,,,,,,,,,,1023.4594,1023.9647,1024.2095,1029.3825,space,5.1506,,1029.3825,50,25,1030.3753,1030.3753,1030.3944,,,,0,21,21,21,1,140,65,,,,,,,,
,,654136e5219cc073c4b7795c,65af56b9304b05200d92089d,2024-01-23_08h09.30.152,bars,2023.2.3,Win32,60.24096386,657b66ea316d21385b68909f,,,,,,,,,,,1030.3947,1031.3976,,,1031.8975,1032.1416,,0,0,,,,,,,,,,,,,,,,bars/010.png,bars/mask000.png,,,,,,,,,,,,2,1,,,,,,,6,10,4,10,,,,,,,,,,,1031.3976,1031.8975,1032.1417,1034.3915,space,2.2337,,1034.3916,15,55,1035.3913,1035.3913,1035.4103,,,,0,22,22,22,1,165,55,,,,,,,,
,,654136e5219cc073c4b7795c,65af56b9304b05200d92089d,2024-01-23_08h09.30.152,bars,2023.2.3,Win32,60.24096386,657b66ea316d21385b68909f,,,,,,,,,,,1035.4106,1036.4077,,,1036.913,1037.1574,,0,0,,,,,,,,,,,,,,,,bars/033.png,bars/mask008.png,,,,,,,,,,,,1,2,,,,,,,4,10,4,9,,,,,,,,,,,1036.4077,1036.9129,1037.1575,1040.2907,space,3.1041,,1040.2908,25,25,1041.2795,1041.2795,1041.2989,,,,0,23,23,23,1,25,155,,,,,,,,
,,654136e5219cc073c4b7795c,65af56b9304b05200d92089d,2024-01-23_08h09.30.152,bars,2023.2.3,Win32,60.24096386,657b66ea316d21385b68909f,,,,,,,,,,,1041.2992,1042.2959,,,1042.7961,1043.046,,0,180,,,,,,,,,,,,,,,,bars/046.png,bars/mask002.png,,,,,,,,,,,,1,1,,,,,,,6,8,7,8,,,,,,,,,,,1042.2959,1042.7961,1043.046,1044.8233,space,1.7519,,1044.8233,25,85,1045.823,1045.823,1045.8262,,,,0,24,24,24,1,155,85,,,,,,,,
,,654136e5219cc073c4b7795c,65af56b9304b05200d92089d,2024-01-23_08h09.30.152,bars,2023.2.3,Win32,60.24096386,657b66ea316d21385b68909f,,,,,,,,,,,1045.8265,1046.8227,,,1047.3225,1047.5781,,90,90,,,,,,,,,,,,,,,,bars/045.png,bars/mask000.png,,,,,,,,,,,,6,1,,,,,,,8,6,9,4,,,,,,,,,,,1046.8227,1047.3225,1047.5781,1050.7392,space,3.143,,1050.7392,10,80,1051.7387,1051.7388,1051.7597,,,,0,25,25,25,1,100,10,,,,,,,,
,,654136e5219cc073c4b7795c,65af56b9304b05200d92089d,2024-01-23_08h09.30.152,bars,2023.2.3,Win32,60.24096386,657b66ea316d21385b68909f,,,,,,,,,,,1051.7602,1052.7551,,,1053.2441,1053.4883,,90,90,,,,,,,,,,,,,,,,bars/022.png,bars/mask008.png,,,,,,,,,,,,8,1,,,,,,,10,4,10,5,,,,,,,,,,,1052.7551,1053.2441,1053.4883,1058.1442,space,4.6339,,1058.1442,5,70,1059.1377,1059.1377,1059.1571,,,,0,26,26,26,1,95,20,,,,,,,,
,,654136e5219cc073c4b7795c,65af56b9304b05200d92089d,2024-01-23_08h09.30.152,bars,2023.2.3,Win32,60.24096386,657b66ea316d21385b68909f,,,,,,,,,,,1059.1574,1060.1544,,,1060.6436,1060.888,,90,90,,,,,,,,,,,,,,,,bars/031.png,bars/mask006.png,,,,,,,,,,,,0,1,,,,,,,8,6,9,5,,,,,,,,,,,1060.1545,1060.6435,1060.8881,1062.8606,space,1.9503,,1062.8607,30,55,1063.8543,1063.8543,1063.878,,,,0,27,27,27,1,120,35,,,,,,,,
,,654136e5219cc073c4b7795c,65af56b9304b05200d92089d,2024-01-23_08h09.30.152,bars,2023.2.3,Win32,60.24096386,657b66ea316d21385b68909f,,,,,,,,,,,1063.8784,1064.8708,,,1065.3708,1065.6262,,0,180,,,,,,,,,,,,,,,,bars/038.png,bars/mask009.png,,,,,,,,,,,,5,1,,,,,,,10,8,10,10,,,,,,,,,,,1064.8708,1065.3708,1065.6262,1069.6534,space,4.0098,,1069.6534,15,70,1070.6536,1070.6537,1070.6719,,,,0,28,28,28,1,165,70,,,,,,,,
,,654136e5219cc073c4b7795c,65af56b9304b05200d92089d,2024-01-23_08h09.30.152,bars,2023.2.3,Win32,60.24096386,657b66ea316d21385b68909f,,,,,,,,,,,1070.6722,1071.67,,,1072.1749,1072.4229,,90,90,,,,,,,,,,,,,,,,bars/036.png,bars/mask003.png,,,,,,,,,,,,0,1,,,,,,,8,6,10,6,,,,,,,,,,,1071.67,1072.1749,1072.423,1075.4362,space,2.9845,,1075.4362,55,70,1076.4359,1076.4359,1076.4537,,,,0,29,29,29,1,145,20,,,,,,,,
,,654136e5219cc073c4b7795c,65af56b9304b05200d92089d,2024-01-23_08h09.30.152,bars,2023.2.3,Win32,60.24096386,657b66ea316d21385b68909f,,,,,,,,,,,1076.4543,1077.4525,,,1077.9415,1078.1857,,0,180,,,,,,,,,,,,,,,,bars/008.png,bars/mask001.png,,,,,,,,,,,,9,2,,,,,,,6,8,7,9,,,,,,,,,,,1077.4525,1077.9415,1078.1857,1081.4242,space,3.216,,1081.4242,70,0,1082.4184,1082.4186,1082.4377,,,,0,30,30,30,1,110,0,,,,,,,,
,,654136e5219cc073c4b7795c,65af56b9304b05200d92089d,2024-01-23_08h09.30.152,bars,2023.2.3,Win32,60.24096386,657b66ea316d21385b68909f,,,,,,,,,,,1082.438,1083.435,,,1083.935,1084.185,,0,0,,,,,,,,,,,,,,,,bars/012.png,bars/mask001.png,,,,,,,,,,,,3,2,,,,,,,4,6,3,6,,,,,,,,,,,1083.435,1083.9349,1084.1851,1087.8179,space,3.6023,,1087.8181,90,15,1088.8175,1088.8175,1088.8346,,,,0,31,31,31,1,90,15,,,,,,,,
,,654136e5219cc073c4b7795c,65af56b9304b05200d92089d,2024-01-23_08h09.30.152,bars,2023.2.3,Win32,60.24096386,657b66ea316d21385b68909f,,,,,,,,,,,1088.835,1089.8336,,,1090.3403,1090.59,,90,90,,,,,,,,,,,,,,,,bars/043.png,bars/mask001.png,,,,,,,,,,,,0,2,,,,,,,6,4,5,3,,,,,,,,,,,1089.8336,1090.3402,1090.59,1094.4399,space,3.8338,,1094.44,60,40,1095.4333,1095.4333,1095.4499,,,,0,32,32,32,1,30,130,,,,,,,,
,,654136e5219cc073c4b7795c,65af56b9304b05200d92089d,2024-01-23_08h09.30.152,bars,2023.2.3,Win32,60.24096386,657b66ea316d21385b68909f,,,,,,,,,,,1095.4503,1096.4501,,,1096.9387,1097.1833,,0,180,,,,,,,,,,,,,,,,bars/016.png,bars/mask003.png,,,,,,,,,,,,1,2,,,,,,,8,2,10,2,,,,,,,,,,,1096.4501,1096.9387,1097.1833,1099.6496,space,2.4376,,1099.6497,40,15,1100.6495,1100.6495,1100.6513,,,,0,33,33,33,1,40,165,,,,,,,,
,,654136e5219cc073c4b7795c,65af56b9304b05200d92089d,2024-01-23_08h09.30.152,bars,2023.2.3,Win32,60.24096386,657b66ea316d21385b68909f,,,,,,,,,,,1100.6518,1101.6493,,,1102.1494,1102.3994,,90,90,,,,,,,,,,,,,,,,bars/004.png,bars/mask004.png,,,,,,,,,,,,0,2,,,,,,,6,0,6,0,,,,,,,,,,,1101.6494,1102.1494,1102.3994,1105.5559,space,3.15,,1105.556,65,35,1106.5488,1106.5488,1106.5659,,,,0,34,34,34,1,25,125,,,,,,,,
,,654136e5219cc073c4b7795c,65af56b9304b05200d92089d,2024-01-23_08h09.30.152,bars,2023.2.3,Win32,60.24096386,657b66ea316d21385b68909f,,,,,,,,,,,1106.5663,1107.5652,,,1108.0653,1108.3153,,90,90,,,,,,,,,,,,,,,,bars/006.png,bars/mask000.png,,,,,,,,,,,,0,2,,,,,,,4,0,1,0,,,,,,,,,,,1107.5652,1108.0653,1108.3154,1111.2212,space,2.8835,,1111.2212,55,10,1112.2143,1112.2144,1112.2297,,,,0,35,35,35,1,35,100,,,,,,,,
,,654136e5219cc073c4b7795c,65af56b9304b05200d92089d,2024-01-23_08h09.30.152,bars,2023.2.3,Win32,60.24096386,657b66ea316d21385b68909f,,,,,,,,,,,1112.23,1113.2313,,,1113.7313,1113.9811,,0,0,,,,,,,,,,,,,,,,bars/031.png,bars/mask001.png,,,,,,,,,,,,0,2,,,,,,,6,2,6,3,,,,,,,,,,,1113.2314,1113.7313,1113.9812,1118.3141,space,4.3171,,1118.3143,60,35,1119.314,1119.314,1119.3315,,,,0,36,36,36,1,120,35,,,,,,,,
,,654136e5219cc073c4b7795c,65af56b9304b05200d92089d,2024-01-23_08h09.30.152,bars,2023.2.3,Win32,60.24096386,657b66ea316d21385b68909f,,,,,,,,,,,1119.332,1120.3301,,,1120.8302,1121.0694,,0,0,,,,,,,,,,,,,,,,bars/045.png,bars/mask001.png,,,,,,,,,,,,1,2,,,,,,,4,0,5,1,,,,,,,,,,,1120.3302,1120.8302,1121.0694,1125.636,space,4.5505,,1125.636,80,10,1126.6353,1126.6354,1126.6532,,,,0,37,37,37,1,100,10,,,,,,,,
,,654136e5219cc073c4b7795c,65af56b9304b05200d92089d,2024-01-23_08h09.30.152,bars,2023.2.3,Win32,60.24096386,657b66ea316d21385b68909f,,,,,,,,,,,1126.6535,1127.6459,,,1128.1461,1128.3959,,0,180,,,,,,,,,,,,,,,,bars/048.png,bars/mask001.png,,,,,,,,,,,,0,2,,,,,,,2,0,1,0,,,,,,,,,,,1127.6459,1128.1461,1128.3959,1132.3023,space,3.8839,,1132.3023,50,5,1133.3015,1133.3015,1133.3195,,,,0,38,38,38,1,50,175,,,,,,,,
,,654136e5219cc073c4b7795c,65af56b9304b05200d92089d,2024-01-23_08h09.30.152,bars,2023.2.3,Win32,60.24096386,657b66ea316d21385b68909f,,,,,,,,,,,1133.3198,1134.3115,,,1134.812,1135.0618,,90,90,,,,,,,,,,,,,,,,bars/017.png,bars/mask004.png,,,,,,,,,,,,0,2,,,,,,,0,2,0,2,,,,,,,,,,,1134.3116,1134.812,1135.0619,1139.6524,space,4.5676,,1139.6524,55,45,1140.6445,1140.6445,1140.6616,,,,0,39,39,39,1,145,45,,,,,,,,
,,654136e5219cc073c4b7795c,65af56b9304b05200d92089d,2024-01-23_08h09.30.152,bars,2023.2.3,Win32,60.24096386,657b66ea316d21385b68909f,,,,,,,,,,,1140.662,1141.6609,,,1142.1609,1142.411,,90,90,,,,,,,,,,,,,,,,bars/045.png,bars/mask002.png,,,,,,,,,,,,1,1,,,,,,,0,0,1,2,,,,,,,,,,,1141.661,1142.1609,1142.411,1146.6938,space,4.2507,,1146.694,10,80,1147.6935,1147.6935,1147.7127,,,,0,40,40,40,1,100,10,,,,,,,,
,,654136e5219cc073c4b7795c,65af56b9304b05200d92089d,2024-01-23_08h09.30.152,bars,2023.2.3,Win32,60.24096386,657b66ea316d21385b68909f,,,,,,,,,,,1147.7132,1148.7159,,,1149.2101,1149.4597,,0,180,,,,,,,,,,,,,,,,bars/023.png,bars/mask009.png,,,,,,,,,,,,0,1,,,,,,,0,0,0,0,,,,,,,,,,,1148.7159,1149.2101,1149.4598,1154.0496,space,4.5684,,1154.0496,20,65,1155.0426,1155.0426,1155.0609,,,,0,41,41,41,1,20,115,,,,,,,,
,,654136e5219cc073c4b7795c,65af56b9304b05200d92089d,2024-01-23_08h09.30.152,bars,2023.2.3,Win32,60.24096386,657b66ea316d21385b68909f,,,,,,,,,,,1155.0612,1156.0593,,,1156.559,1156.7978,,90,90,,,,,,,,,,,,,,,,bars/014.png,bars/mask005.png,,,,,,,,,,,,1,1,,,,,,,2,0,1,1,,,,,,,,,,,1156.0594,1156.5589,1156.7979,1160.3987,space,3.5845,,1160.3988,10,90,1161.3915,1161.3915,1161.4091,,,,0,42,42,42,1,80,0,,,,,,,,
,,654136e5219cc073c4b7795c,65af56b9304b05200d92089d,2024-01-23_08h09.30.152,bars,2023.2.3,Win32,60.24096386,657b66ea316d21385b68909f,,,,,,,,,,,1161.4097,1162.4131,,,1162.9083,1163.1581,,90,90,,,,,,,,,,,,,,,,bars/014.png,bars/mask003.png,,,,,,,,,,,,0,1,,,,,,,0,0,0,0,,,,,,,,,,,1162.4132,1162.9082,1163.1581,1167.8637,space,4.6838,,1167.8637,10,90,1168.8574,1168.8575,1168.8742,,,,0,43,43,43,1,80,0,,,,,,,,
,,654136e5219cc073c4b7795c,65af56b9304b05200d92089d,2024-01-23_08h09.30.152,bars,2023.2.3,Win32,60.24096386,657b66ea316d21385b68909f,,,,,,,,,,,1168.8746,1169.8739,,,1170.3631,1170.6072,,90,90,,,,,,,,,,,,,,,,bars/023.png,bars/mask006.png,,,,,,,,,,,,0,2,,,,,,,2,0,2,1,,,,,,,,,,,1169.8739,1170.363,1170.6072,1174.5303,space,3.9004,,1174.5304,70,25,1175.5234,1175.5234,1175.5427,,,,0,44,44,44,1,20,115,,,,,,,,
,,654136e5219cc073c4b7795c,65af56b9304b05200d92089d,2024-01-23_08h09.30.152,bars,2023.2.3,Win32,60.24096386,657b66ea316d21385b68909f,,,,,,,,,,,1175.543,1176.5398,,,1177.0398,1177.295,,90,90,,,,,,,,,,,,,,,,bars/007.png,bars/mask008.png,,,,,,,,,,,,0,2,,,,,,,4,2,4,2,,,,,,,,,,,1176.5398,1177.0398,1177.295,1181.8397,space,4.5279,,1181.84,85,35,1182.839,1182.839,1182.8566,,,,0,45,45,45,1,175,55,,,,,,,,
,,654136e5219cc073c4b7795c,65af56b9304b05200d92089d,2024-01-23_08h09.30.152,bars,2023.2.3,Win32,60.24096386,657b66ea316d21385b68909f,,,,,,,,,,,1182.8571,1183.8556,,,1184.3446,1184.5947,,0,180,,,,,,,,,,,,,,,,bars/021.png,bars/mask002.png,,,,,,,,,,,,0,1,,,,,,,2,4,2,4,,,,,,,,,,,1183.8556,1184.3446,1184.5948,1187.8553,space,3.2386,,1187.8554,25,70,1188.8549,1188.855,1188.8742,,,,0,46,46,46,1,155,70,,,,,,,,
,,654136e5219cc073c4b7795c,65af56b9304b05200d92089d,2024-01-23_08h09.30.152,bars,2023.2.3,Win32,60.24096386,657b66ea316d21385b68909f,,,,,,,,,,,1188.8746,1189.8715,,,1190.3605,1190.6099,,90,90,,,,,,,,,,,,,,,,bars/044.png,bars/mask008.png,,,,,,,,,,,,2,1,,,,,,,4,2,4,2,,,,,,,,,,,1189.8716,1190.3603,1190.61,1194.8209,space,4.1901,,1194.8209,15,65,1195.8208,1195.8208,1195.8402,,,,0,47,47,47,1,75,155,,,,,,,,
,,654136e5219cc073c4b7795c,65af56b9304b05200d92089d,2024-01-23_08h09.30.152,bars,2023.2.3,Win32,60.24096386,657b66ea316d21385b68909f,,,,,,,,,,,1195.8407,1196.8372,,,1197.337,1197.5761,,90,90,,,,,,,,,,,,,,,,bars/023.png,bars/mask008.png,,,,,,,,,,,,0,2,,,,,,,6,0,5,0,,,,,,,,,,,1196.8372,1197.337,1197.5762,1201.8269,space,4.234,,1201.827,70,25,1202.8198,1202.8199,1202.8394,,,,0,48,48,48,1,20,115,,,,,,,,
,,654136e5219cc073c4b7795c,65af56b9304b05200d92089d,2024-01-23_08h09.30.152,bars,2023.2.3,Win32,60.24096386,657b66ea316d21385b68909f,,,,,,,,,,,1202.8397,1203.8362,,,1204.3255,1204.5758,,90,90,,,,,,,,,,,,,,,,bars/046.png,bars/mask007.png,,,,,,,,,,,,0,2,,,,,,,4,0,6,0,,,,,,,,,,,1203.8362,1204.3255,1204.5758,1209.6191,space,5.0245,,1209.6192,65,5,1210.6189,1210.6189,1210.6365,,,,0,49,49,49,1,155,85,,,,,,,,
,,654136e5219cc073c4b7795c,65af56b9304b05200d92089d,2024-01-23_08h09.30.152,bars,2023.2.3,Win32,60.24096386,657b66ea316d21385b68909f,,,,,,,,,,,,,,,,,,,,,,,,,,,,,,,,,,,,,,,,,,,,,,,,,,,,,,,,,,,,,,,,,,,,,,,,,,,,,,,,,,,,,,,,,,,,,1210.6369,1270.6274,0,1,1,2,1,sequence_tables/blk027.csv
,,654136e5219cc073c4b7795c,65af56b9304b05200d92089d,2024-01-23_08h09.30.152,bars,2023.2.3,Win32,60.24096386,657b66ea316d21385b68909f,,,,,,,,,,,1278.0561,1279.0433,,,1279.5434,1279.793,,0,180,,,,,,,,,,,,,,,,bars/002.png,bars/mask008.png,,,,,,,,,,,,0,1,,,,,,,4,1,3,0,,,,,,1270.6476,1278.0329,space,7.3787,,1279.0433,1279.5434,1279.793,1284.7431,space,4.9333,,1284.7434,50,85,1285.7424,1285.7424,1285.7602,,,,0,0,0,0,1,130,85,,,,,,,,
,,654136e5219cc073c4b7795c,65af56b9304b05200d92089d,2024-01-23_08h09.30.152,bars,2023.2.3,Win32,60.24096386,657b66ea316d21385b68909f,,,,,,,,,,,1285.7606,1286.7591,,,1287.259,1287.5091,,90,90,,,,,,,,,,,,,,,,bars/034.png,bars/mask002.png,,,,,,,,,,,,0,2,,,,,,,6,0,5,0,,,,,,,,,,,1286.7591,1287.259,1287.5092,1290.7087,space,3.1841,,1290.7088,35,25,1291.7086,1291.7086,1291.726,,,,0,1,1,1,1,125,65,,,,,,,,
,,654136e5219cc073c4b7795c,65af56b9304b05200d92089d,2024-01-23_08h09.30.152,bars,2023.2.3,Win32,60.24096386,657b66ea316d21385b68909f,,,,,,,,,,,1291.7263,1292.7247,,,1293.2249,1293.4749,,90,90,,,,,,,,,,,,,,,,bars/007.png,bars/mask004.png,,,,,,,,,,,,0,2,,,,,,,4,0,4,3,,,,,,,,,,,1292.7248,1293.2249,1293.4749,1298.9909,space,5.5002,,1298.991,85,35,1299.9904,1299.9905,1300.0088,,,,0,2,2,2,1,175,55,,,,,,,,
,,654136e5219cc073c4b7795c,65af56b9304b05200d92089d,2024-01-23_08h09.30.152,bars,2023.2.3,Win32,60.24096386,657b66ea316d21385b68909f,,,,,,,,,,,1300.0091,1301.0072,,,1301.5071,1301.7569,,90,90,,,,,,,,,,,,,,,,bars/030.png,bars/mask009.png,,,,,,,,,,,,0,2,,,,,,,2,2,3,1,,,,,,,,,,,1301.0073,1301.507,1301.757,1307.9399,space,6.1682,,1307.94,50,25,1308.9396,1308.9396,1308.9564,,,,0,3,3,3,1,140,65,,,,,,,,
,,654136e5219cc073c4b7795c,65af56b9304b05200d92089d,2024-01-23_08h09.30.152,bars,2023.2.3,Win32,60.24096386,657b66ea316d21385b68909f,,,,,,,,,,,1308.9567,1309.956,,,1310.4556,1310.7061,,90,90,,,,,,,,,,,,,,,,bars/028.png,bars/mask006.png,,,,,,,,,,,,0,2,,,,,,,4,4,4,4,,,,,,,,,,,1309.956,1310.4556,1310.7061,1314.8557,space,4.1361,,1314.8557,45,30,1315.8551,1315.8551,1315.8715,,,,0,4,4,4,1,45,120,,,,,,,,
,,654136e5219cc073c4b7795c,65af56b9304b05200d92089d,2024-01-23_08h09.30.152,bars,2023.2.3,Win32,60.24096386,657b66ea316d21385b68909f,,,,,,,,,,,1315.8719,1316.8719,,,1317.3719,1317.6219,,90,90,,,,,,,,,,,,,,,,bars/009.png,bars/mask004.png,,,,,,,,,,,,3,2,,,,,,,2,6,2,6,,,,,,,,,,,1316.872,1317.3719,1317.6219,1323.3877,space,5.7552,,1323.3878,75,15,1324.3875,1324.3875,1324.4039,,,,0,5,5,5,1,15,105,,,,,,,,
,,654136e5219cc073c4b7795c,65af56b9304b05200d92089d,2024-01-23_08h09.30.152,bars,2023.2.3,Win32,60.24096386,657b66ea316d21385b68909f,,,,,,,,,,,1324.4042,1325.4043,,,1325.9039,1326.1538,,90,90,,,,,,,,,,,,,,,,bars/009.png,bars/mask009.png,,,,,,,,,,,,2,2,,,,,,,4,4,5,4,,,,,,,,,,,1325.4044,1325.9039,1326.1538,1332.0535,space,5.8908,,1332.0535,75,15,1333.0531,1333.0531,1333.0698,,,,0,6,6,6,1,15,105,,,,,,,,
,,654136e5219cc073c4b7795c,65af56b9304b05200d92089d,2024-01-23_08h09.30.152,bars,2023.2.3,Win32,60.24096386,657b66ea316d21385b68909f,,,,,,,,,,,1333.0702,1334.0699,,,1334.5697,1334.8196,,90,90,,,,,,,,,,,,,,,,bars/016.png,bars/mask002.png,,,,,,,,,,,,0,1,,,,,,,2,6,1,5,,,,,,,,,,,1334.07,1334.5697,1334.8196,1340.2858,space,5.4541,,1340.2858,50,75,1341.285,1341.285,1341.3033,,,,0,7,7,7,1,40,165,,,,,,,,
,,654136e5219cc073c4b7795c,65af56b9304b05200d92089d,2024-01-23_08h09.30.152,bars,2023.2.3,Win32,60.24096386,657b66ea316d21385b68909f,,,,,,,,,,,1341.3035,1342.3017,,,1342.8019,1343.0518,,0,0,,,,,,,,,,,,,,,,bars/002.png,bars/mask000.png,,,,,,,,,,,,0,1,,,,,,,0,4,0,5,,,,,,,,,,,1342.3017,1342.8019,1343.0518,1347.7194,space,4.6601,,1347.7194,50,85,1348.7177,1348.7178,1348.7363,,,,0,8,8,8,1,130,85,,,,,,,,
,,654136e5219cc073c4b7795c,65af56b9304b05200d92089d,2024-01-23_08h09.30.152,bars,2023.2.3,Win32,60.24096386,657b66ea316d21385b68909f,,,,,,,,,,,1348.7366,1349.734,,,1350.2343,1350.4842,,0,180,,,,,,,,,,,,,,,,bars/039.png,bars/mask009.png,,,,,,,,,,,,3,1,,,,,,,2,6,3,5,,,,,,,,,,,1349.734,1350.2343,1350.4843,1353.7343,space,3.2321,,1353.7344,5,75,1354.7337,1354.7338,1354.7501,,,,0,9,9,9,1,175,105,,,,,,,,
,,654136e5219cc073c4b7795c,65af56b9304b05200d92089d,2024-01-23_08h09.30.152,bars,2023.2.3,Win32,60.24096386,657b66ea316d21385b68909f,,,,,,,,,,,1354.7505,1355.7506,,,1356.2503,1356.4999,,90,90,,,,,,,,,,,,,,,,bars/016.png,bars/mask008.png,,,,,,,,,,,,0,1,,,,,,,4,8,7,8,,,,,,,,,,,1355.7507,1356.2501,1356.5,1361.4326,space,4.9194,,1361.4326,50,75,1362.4327,1362.4327,1362.4488,,,,0,10,10,10,1,40,165,,,,,,,,
,,654136e5219cc073c4b7795c,65af56b9304b05200d92089d,2024-01-23_08h09.30.152,bars,2023.2.3,Win32,60.24096386,657b66ea316d21385b68909f,,,,,,,,,,,1362.4491,1363.4497,,,1363.9495,1364.1993,,90,90,,,,,,,,,,,,,,,,bars/002.png,bars/mask001.png,,,,,,,,,,,,7,2,,,,,,,2,10,3,8,,,,,,,,,,,1363.4498,1363.9494,1364.1993,1366.8825,space,2.6683,,1366.8825,40,5,1367.8819,1367.8819,1367.8997,,,,0,11,11,11,1,130,85,,,,,,,,
,,654136e5219cc073c4b7795c,65af56b9304b05200d92089d,2024-01-23_08h09.30.152,bars,2023.2.3,Win32,60.24096386,657b66ea316d21385b68909f,,,,,,,,,,,1367.9001,1368.8983,,,1369.3985,1369.6485,,90,90,,,,,,,,,,,,,,,,bars/015.png,bars/mask006.png,,,,,,,,,,,,1,1,,,,,,,0,10,2,10,,,,,,,,,,,1368.8983,1369.3985,1369.6486,1373.5312,space,3.8655,,1373.5313,20,70,1374.5311,1374.5312,1374.5486,,,,0,12,12,12,1,110,160,,,,,,,,
,,654136e5219cc073c4b7795c,65af56b9304b05200d92089d,2024-01-23_08h09.30.152,bars,2023.2.3,Win32,60.24096386,657b66ea316d21385b68909f,,,,,,,,,,,1374.5489,1375.5475,,,1376.0476,1376.2974,,90,90,,,,,,,,,,,,,,,,bars/019.png,bars/mask002.png,,,,,,,,,,,,4,2,,,,,,,2,8,2,8,,,,,,,,,,,1375.5475,1376.0476,1376.2975,1380.2972,space,3.984,,1380.2973,45,15,1381.2969,1381.297,1381.3149,,,,0,13,13,13,1,45,105,,,,,,,,
,,654136e5219cc073c4b7795c,65af56b9304b05200d92089d,2024-01-23_08h09.30.152,bars,2023.2.3,Win32,60.24096386,657b66ea316d21385b68909f,,,,,,,,,,,1381.3152,1382.3136,,,1382.8136,1383.0635,,90,90,,,,,,,,,,,,,,,,bars/020.png,bars/mask008.png,,,,,,,,,,,,1,1,,,,,,,4,6,5,5,,,,,,,,,,,1382.3137,1382.8134,1383.0635,1387.3965,space,4.3173,,1387.3965,25,80,1388.3958,1388.3958,1388.416,,,,0,14,14,14,1,115,170,,,,,,,,
,,654136e5219cc073c4b7795c,65af56b9304b05200d92089d,2024-01-23_08h09.30.152,bars,2023.2.3,Win32,60.24096386,657b66ea316d21385b68909f,,,,,,,,,,,1388.4164,1389.4126,,,1389.9125,1390.1625,,0,0,,,,,,,,,,,,,,,,bars/001.png,bars/mask008.png,,,,,,,,,,,,0,1,,,,,,,6,8,5,8,,,,,,,,,,,1389.4127,1389.9125,1390.1626,1393.779,space,3.6005,,1393.7791,50,85,1394.7787,1394.7787,1394.7989,,,,0,15,15,15,1,130,85,,,,,,,,
,,654136e5219cc073c4b7795c,65af56b9304b05200d92089d,2024-01-23_08h09.30.152,bars,2023.2.3,Win32,60.24096386,657b66ea316d21385b68909f,,,,,,,,,,,1394.7993,1395.7953,,,1396.2844,1396.5285,,90,90,,,,,,,,,,,,,,,,bars/049.png,bars/mask001.png,,,,,,,,,,,,1,2,,,,,,,8,6,8,7,,,,,,,,,,,1395.7953,1396.2843,1396.5285,1399.9115,space,3.3511,,1399.9117,70,25,1400.9112,1400.9112,1400.9319,,,,0,16,16,16,1,160,115,,,,,,,,
,,654136e5219cc073c4b7795c,65af56b9304b05200d92089d,2024-01-23_08h09.30.152,bars,2023.2.3,Win32,60.24096386,657b66ea316d21385b68909f,,,,,,,,,,,1400.9323,1401.9276,,,1402.4275,1402.6663,,90,90,,,,,,,,,,,,,,,,bars/023.png,bars/mask002.png,,,,,,,,,,,,0,2,,,,,,,10,4,10,3,,,,,,,,,,,1401.9277,1402.4275,1402.6663,1405.8489,space,3.1654,,1405.849,70,25,1406.8492,1406.8492,1406.8668,,,,0,17,17,17,1,20,115,,,,,,,,
,,654136e5219cc073c4b7795c,65af56b9304b05200d92089d,2024-01-23_08h09.30.152,bars,2023.2.3,Win32,60.24096386,657b66ea316d21385b68909f,,,,,,,,,,,1406.8671,1407.8602,,,1408.3603,1408.6102,,0,180,,,,,,,,,,,,,,,,bars/044.png,bars/mask001.png,,,,,,,,,,,,0,2,,,,,,,10,2,10,2,,,,,,,,,,,1407.8603,1408.3603,1408.6103,1411.1602,space,2.5208,,1411.1604,75,25,1412.1597,1412.1598,1412.1772,,,,0,18,18,18,1,75,155,,,,,,,,
,,654136e5219cc073c4b7795c,65af56b9304b05200d92089d,2024-01-23_08h09.30.152,bars,2023.2.3,Win32,60.24096386,657b66ea316d21385b68909f,,,,,,,,,,,1412.1778,1413.1763,,,1413.6654,1413.9095,,90,90,,,,,,,,,,,,,,,,bars/027.png,bars/mask005.png,,,,,,,,,,,,3,1,,,,,,,8,4,9,4,,,,,,,,,,,1413.1764,1413.6653,1413.9096,1418.2927,space,4.3537,,1418.2928,20,40,1419.2922,1419.2923,1419.3108,,,,0,19,19,19,1,110,50,,,,,,,,
,,654136e5219cc073c4b7795c,65af56b9304b05200d92089d,2024-01-23_08h09.30.152,bars,2023.2.3,Win32,60.24096386,657b66ea316d21385b68909f,,,,,,,,,,,1419.3111,1420.3085,,,1420.8087,1421.0583,,90,90,,,,,,,,,,,,,,,,bars/041.png,bars/mask001.png,,,,,,,,,,,,3,2,,,,,,,10,2,10,3,,,,,,,,,,,1420.3085,1420.8087,1421.0584,1427.1414,space,6.0514,,1427.1415,70,5,1428.1408,1428.1408,1428.1611,,,,0,20,20,20,1,20,85,,,,,,,,
,,654136e5219cc073c4b7795c,65af56b9304b05200d92089d,2024-01-23_08h09.30.152,bars,2023.2.3,Win32,60.24096386,657b66ea316d21385b68909f,,,,,,,,,,,1428.1615,1429.1627,,,1429.6576,1429.8966,,0,180,,,,,,,,,,,,,,,,bars/017.png,bars/mask001.png,,,,,,,,,,,,0,1,,,,,,,10,0,9,0,,,,,,,,,,,1429.1628,1429.6575,1429.8966,1433.7965,space,3.8835,,1433.7966,35,45,1434.7902,1434.7902,1434.8093,,,,0,21,21,21,1,145,45,,,,,,,,
,,654136e5219cc073c4b7795c,65af56b9304b05200d92089d,2024-01-23_08h09.30.152,bars,2023.2.3,Win32,60.24096386,657b66ea316d21385b68909f,,,,,,,,,,,1434.8097,1435.8067,,,1436.3067,1436.5565,,0,180,,,,,,,,,,,,,,,,bars/043.png,bars/mask007.png,,,,,,,,,,,,0,1,,,,,,,8,0,7,0,,,,,,,,,,,1435.8067,1436.3067,1436.5565,1439.7629,space,3.2002,,1439.763,30,50,1440.7556,1440.7557,1440.773,,,,0,22,22,22,1,30,130,,,,,,,,
,,654136e5219cc073c4b7795c,65af56b9304b05200d92089d,2024-01-23_08h09.30.152,bars,2023.2.3,Win32,60.24096386,657b66ea316d21385b68909f,,,,,,,,,,,1440.7733,1441.7725,,,1442.2726,1442.5225,,90,90,,,,,,,,,,,,,,,,bars/012.png,bars/mask003.png,,,,,,,,,,,,4,1,,,,,,,6,0,4,0,,,,,,,,,,,1441.7726,1442.2725,1442.5225,1445.029,space,2.4865,,1445.0291,0,75,1446.0221,1446.0222,1446.024,,,,0,23,23,23,1,90,15,,,,,,,,
,,654136e5219cc073c4b7795c,65af56b9304b05200d92089d,2024-01-23_08h09.30.152,bars,2023.2.3,Win32,60.24096386,657b66ea316d21385b68909f,,,,,,,,,,,1446.0246,1447.0221,,,1447.5111,1447.7611,,90,90,,,,,,,,,,,,,,,,bars/039.png,bars/mask004.png,,,,,,,,,,,,0,2,,,,,,,8,0,8,0,,,,,,,,,,,1447.0221,1447.5111,1447.7611,1451.1618,space,3.3846,,1451.1618,85,15,1452.1547,1452.1547,1452.1736,,,,0,24,24,24,1,175,105,,,,,,,,
,,654136e5219cc073c4b7795c,65af56b9304b05200d92089d,2024-01-23_08h09.30.152,bars,2023.2.3,Win32,60.24096386,657b66ea316d21385b68909f,,,,,,,,,,,1452.174,1453.1768,,,1453.6767,1453.9212,,90,90,,,,,,,,,,,,,,,,bars/032.png,bars/mask007.png,,,,,,,,,,,,0,1,,,,,,,6,0,5,0,,,,,,,,,,,1453.1769,1453.6766,1453.9212,1459.0276,space,5.0841,,1459.0276,35,70,1460.0202,1460.0203,1460.0391,,,,0,25,25,25,1,125,20,,,,,,,,
,,654136e5219cc073c4b7795c,65af56b9304b05200d92089d,2024-01-23_08h09.30.152,bars,2023.2.3,Win32,60.24096386,657b66ea316d21385b68909f,,,,,,,,,,,1460.0393,1461.0426,,,1461.5427,1461.7925,,90,90,,,,,,,,,,,,,,,,bars/008.png,bars/mask001.png,,,,,,,,,,,,2,1,,,,,,,8,2,7,4,,,,,,,,,,,1461.0426,1461.5426,1461.7925,1465.7697,space,3.9507,,1465.7699,20,90,1466.7694,1466.7695,1466.7863,,,,0,26,26,26,1,110,0,,,,,,,,
,,654136e5219cc073c4b7795c,65af56b9304b05200d92089d,2024-01-23_08h09.30.152,bars,2023.2.3,Win32,60.24096386,657b66ea316d21385b68909f,,,,,,,,,,,1466.7868,1467.7859,,,1468.286,1468.536,,90,90,,,,,,,,,,,,,,,,bars/036.png,bars/mask002.png,,,,,,,,,,,,0,1,,,,,,,6,0,6,1,,,,,,,,,,,1467.7859,1468.2859,1468.536,1471.5425,space,2.9836,,1471.5425,55,70,1472.5408,1472.541,1472.5607,,,,0,27,27,27,1,145,20,,,,,,,,
,,654136e5219cc073c4b7795c,65af56b9304b05200d92089d,2024-01-23_08h09.30.152,bars,2023.2.3,Win32,60.24096386,657b66ea316d21385b68909f,,,,,,,,,,,1472.561,1473.5518,,,1474.0518,1474.3069,,0,0,,,,,,,,,,,,,,,,bars/012.png,bars/mask003.png,,,,,,,,,,,,2,2,,,,,,,4,2,4,3,,,,,,,,,,,1473.5519,1474.0518,1474.3069,1476.3683,space,2.0426,,1476.3684,90,15,1477.3573,1477.3573,1477.3768,,,,0,28,28,28,1,90,15,,,,,,,,
,,654136e5219cc073c4b7795c,65af56b9304b05200d92089d,2024-01-23_08h09.30.152,bars,2023.2.3,Win32,60.24096386,657b66ea316d21385b68909f,,,,,,,,,,,1477.3771,1478.368,,,1478.8678,1479.1177,,90,90,,,,,,,,,,,,,,,,bars/040.png,bars/mask009.png,,,,,,,,,,,,0,1,,,,,,,2,0,2,0,,,,,,,,,,,1478.368,1478.8678,1479.1177,1482.7177,space,3.5838,,1482.7178,50,85,1483.7172,1483.7172,1483.7362,,,,0,29,29,29,1,140,5,,,,,,,,
,,654136e5219cc073c4b7795c,65af56b9304b05200d92089d,2024-01-23_08h09.30.152,bars,2023.2.3,Win32,60.24096386,657b66ea316d21385b68909f,,,,,,,,,,,1483.7364,1484.7339,,,1485.2338,1485.4729,,90,90,,,,,,,,,,,,,,,,bars/047.png,bars/mask007.png,,,,,,,,,,,,0,2,,,,,,,4,0,4,0,,,,,,,,,,,1484.7341,1485.2337,1485.473,1489.9064,space,4.4174,,1489.9065,75,20,1490.8998,1490.8998,1490.9189,,,,0,30,30,30,1,15,70,,,,,,,,
,,654136e5219cc073c4b7795c,65af56b9304b05200d92089d,2024-01-23_08h09.30.152,bars,2023.2.3,Win32,60.24096386,657b66ea316d21385b68909f,,,,,,,,,,,1490.9192,1491.9161,,,1492.4162,1492.6659,,0,0,,,,,,,,,,,,,,,,bars/035.png,bars/mask005.png,,,,,,,,,,,,0,1,,,,,,,2,0,0,0,,,,,,,,,,,1491.9162,1492.4162,1492.666,1494.0885,space,1.4025,,1494.0885,5,60,1495.0826,1495.0826,1495.1021,,,,0,31,31,31,1,175,60,,,,,,,,
,,654136e5219cc073c4b7795c,65af56b9304b05200d92089d,2024-01-23_08h09.30.152,bars,2023.2.3,Win32,60.24096386,657b66ea316d21385b68909f,,,,,,,,,,,1495.1025,1496.0989,,,1496.5882,1496.8322,,0,0,,,,,,,,,,,,,,,,bars/026.png,bars/mask009.png,,,,,,,,,,,,0,1,,,,,,,0,0,0,0,,,,,,,,,,,1496.099,1496.5882,1496.8322,1497.999,space,1.1342,,1497.9991,35,85,1498.9985,1498.9986,1499.0154,,,,0,32,32,32,1,35,85,,,,,,,,
,,654136e5219cc073c4b7795c,65af56b9304b05200d92089d,2024-01-23_08h09.30.152,bars,2023.2.3,Win32,60.24096386,657b66ea316d21385b68909f,,,,,,,,,,,1499.0157,1500.021,,,1500.5152,1500.7711,,90,90,,,,,,,,,,,,,,,,bars/000.png,bars/mask004.png,,,,,,,,,,,,0,1,,,,,,,0,2,0,3,,,,,,,,,,,1500.021,1500.5151,1500.7711,1503.1816,space,2.3848,,1503.1817,50,55,1504.1812,1504.1812,1504.199,,,,0,33,33,33,1,40,145,,,,,,,,
,,654136e5219cc073c4b7795c,65af56b9304b05200d92089d,2024-01-23_08h09.30.152,bars,2023.2.3,Win32,60.24096386,657b66ea316d21385b68909f,,,,,,,,,,,1504.1994,1505.1978,,,1505.6979,1505.9477,,0,0,,,,,,,,,,,,,,,,bars/010.png,bars/mask003.png,,,,,,,,,,,,0,1,,,,,,,2,4,0,4,,,,,,,,,,,1505.1978,1505.6979,1505.9478,1507.4642,space,1.4928,,1507.4643,15,55,1508.4698,1508.4699,1508.4709,,,,0,34,34,34,1,165,55,,,,,,,,
,,654136e5219cc073c4b7795c,65af56b9304b05200d92089d,2024-01-23_08h09.30.152,bars,2023.2.3,Win32,60.24096386,657b66ea316d21385b68909f,,,,,,,,,,,1508.4712,1509.4639,,,1509.9639,1510.2199,,90,90,,,,,,,,,,,,,,,,bars/012.png,bars/mask003.png,,,,,,,,,,,,5,1,,,,,,,4,6,5,5,,,,,,,,,,,1509.464,1509.9639,1510.22,1513.7802,space,3.5344,,1513.7803,0,75,1514.7799,1514.7799,1514.7979,,,,0,35,35,35,1,90,15,,,,,,,,
,,654136e5219cc073c4b7795c,65af56b9304b05200d92089d,2024-01-23_08h09.30.152,bars,2023.2.3,Win32,60.24096386,657b66ea316d21385b68909f,,,,,,,,,,,1514.7983,1515.7965,,,1516.2964,1516.5462,,90,90,,,,,,,,,,,,,,,,bars/032.png,bars/mask003.png,,,,,,,,,,,,0,1,,,,,,,6,4,6,3,,,,,,,,,,,1515.7965,1516.2963,1516.5463,1521.4128,space,4.8341,,1521.4129,35,70,1522.4013,1522.4013,1522.4205,,,,0,36,36,36,1,125,20,,,,,,,,
,,654136e5219cc073c4b7795c,65af56b9304b05200d92089d,2024-01-23_08h09.30.152,bars,2023.2.3,Win32,60.24096386,657b66ea316d21385b68909f,,,,,,,,,,,1522.4208,1523.4121,,,1523.9173,1524.1621,,90,90,,,,,,,,,,,,,,,,bars/023.png,bars/mask005.png,,,,,,,,,,,,1,2,,,,,,,4,6,4,6,,,,,,,,,,,1523.4121,1523.9173,1524.1622,1527.8987,space,3.7142,,1527.8988,70,25,1528.8947,1528.8948,1528.9135,,,,0,37,37,37,1,20,115,,,,,,,,
,,654136e5219cc073c4b7795c,65af56b9304b05200d92089d,2024-01-23_08h09.30.152,bars,2023.2.3,Win32,60.24096386,657b66ea316d21385b68909f,,,,,,,,,,,1528.9138,1529.9113,,,1530.4114,1530.6611,,0,0,,,,,,,,,,,,,,,,bars/025.png,bars/mask002.png,,,,,,,,,,,,0,2,,,,,,,2,8,2,8,,,,,,,,,,,1529.9113,1530.4114,1530.6611,1534.6505,space,3.9675,,1534.6505,75,40,1535.644,1535.644,1535.6617,,,,0,38,38,38,1,105,40,,,,,,,,
,,654136e5219cc073c4b7795c,65af56b9304b05200d92089d,2024-01-23_08h09.30.152,bars,2023.2.3,Win32,60.24096386,657b66ea316d21385b68909f,,,,,,,,,,,1535.6622,1536.6607,,,1537.1498,1537.3993,,90,90,,,,,,,,,,,,,,,,bars/049.png,bars/mask009.png,,,,,,,,,,,,2,2,,,,,,,4,10,4,10,,,,,,,,,,,1536.6607,1537.1496,1537.3994,1542.1666,space,4.7507,,1542.1666,70,25,1543.1627,1543.1627,1543.1792,,,,0,39,39,39,1,160,115,,,,,,,,
,,654136e5219cc073c4b7795c,65af56b9304b05200d92089d,2024-01-23_08h09.30.152,bars,2023.2.3,Win32,60.24096386,657b66ea316d21385b68909f,,,,,,,,,,,1543.1796,1544.1819,,,1544.6794,1544.9335,,90,90,,,,,,,,,,,,,,,,bars/047.png,bars/mask007.png,,,,,,,,,,,,3,2,,,,,,,2,8,3,8,,,,,,,,,,,1544.182,1544.6793,1544.9336,1550.1139,space,5.1655,,1550.1139,75,20,1551.1087,1551.1087,1551.1279,,,,0,40,40,40,1,15,70,,,,,,,,
,,654136e5219cc073c4b7795c,65af56b9304b05200d92089d,2024-01-23_08h09.30.152,bars,2023.2.3,Win32,60.24096386,657b66ea316d21385b68909f,,,,,,,,,,,1551.1283,1552.1249,,,1552.6146,1552.8634,,0,0,,,,,,,,,,,,,,,,bars/048.png,bars/mask005.png,,,,,,,,,,,,5,2,,,,,,,4,6,4,6,,,,,,,,,,,1552.125,1552.6146,1552.8635,1556.1415,space,3.2593,,1556.1416,50,5,1557.1305,1557.1305,1557.1471,,,,0,41,41,41,1,50,175,,,,,,,,
,,654136e5219cc073c4b7795c,65af56b9304b05200d92089d,2024-01-23_08h09.30.152,bars,2023.2.3,Win32,60.24096386,657b66ea316d21385b68909f,,,,,,,,,,,1557.1474,1558.1412,,,1558.6408,1558.8907,,0,180,,,,,,,,,,,,,,,,bars/003.png,bars/mask008.png,,,,,,,,,,,,1,1,,,,,,,6,8,4,10,,,,,,,,,,,1558.1412,1558.6407,1558.8907,1561.6799,space,2.783,,1561.6799,25,40,1562.6796,1562.6796,1562.699,,,,0,42,42,42,1,25,140,,,,,,,,
,,654136e5219cc073c4b7795c,65af56b9304b05200d92089d,2024-01-23_08h09.30.152,bars,2023.2.3,Win32,60.24096386,657b66ea316d21385b68909f,,,,,,,,,,,1562.6995,1563.6903,,,1564.1904,1564.4294,,90,90,,,,,,,,,,,,,,,,bars/037.png,bars/mask004.png,,,,,,,,,,,,5,2,,,,,,,8,10,8,10,,,,,,,,,,,1563.6903,1564.1903,1564.4294,1567.2568,space,2.8028,,1567.2569,60,15,1568.2563,1568.2563,1568.275,,,,0,43,43,43,1,150,105,,,,,,,,
,,654136e5219cc073c4b7795c,65af56b9304b05200d92089d,2024-01-23_08h09.30.152,bars,2023.2.3,Win32,60.24096386,657b66ea316d21385b68909f,,,,,,,,,,,1568.2753,1569.273,,,1569.7639,1570.012,,90,90,,,,,,,,,,,,,,,,bars/038.png,bars/mask000.png,,,,,,,,,,,,3,2,,,,,,,6,10,5,10,,,,,,,,,,,1569.273,1569.7639,1570.012,1573.6226,space,3.5847,,1573.6227,75,20,1574.6223,1574.6223,1574.6391,,,,0,44,44,44,1,165,70,,,,,,,,
,,654136e5219cc073c4b7795c,65af56b9304b05200d92089d,2024-01-23_08h09.30.152,bars,2023.2.3,Win32,60.24096386,657b66ea316d21385b68909f,,,,,,,,,,,1574.6395,1575.6279,,,1576.1273,1576.3721,,90,90,,,,,,,,,,,,,,,,bars/041.png,bars/mask008.png,,,,,,,,,,,,8,2,,,,,,,4,10,4,10,,,,,,,,,,,1575.628,1576.1272,1576.3721,1580.8714,space,4.4675,,1580.8715,70,5,1581.8596,1581.8596,1581.902,,,,0,45,45,45,1,20,85,,,,,,,,
,,654136e5219cc073c4b7795c,65af56b9304b05200d92089d,2024-01-23_08h09.30.152,bars,2023.2.3,Win32,60.24096386,657b66ea316d21385b68909f,,,,,,,,,,,1581.9022,1582.9042,,,1583.4046,1583.6545,,90,90,,,,,,,,,,,,,,,,bars/017.png,bars/mask001.png,,,,,,,,,,,,0,2,,,,,,,6,10,6,9,,,,,,,,,,,1582.9042,1583.4046,1583.6545,1589.7205,space,6.0478,,1589.7206,55,45,1590.7204,1590.7204,1590.7373,,,,0,46,46,46,1,145,45,,,,,,,,
,,654136e5219cc073c4b7795c,65af56b9304b05200d92089d,2024-01-23_08h09.30.152,bars,2023.2.3,Win32,60.24096386,657b66ea316d21385b68909f,,,,,,,,,,,1590.7376,1591.7366,,,1592.2366,1592.4865,,90,90,,,,,,,,,,,,,,,,bars/004.png,bars/mask006.png,,,,,,,,,,,,0,2,,,,,,,4,8,2,8,,,,,,,,,,,1591.7367,1592.2365,1592.4865,1596.4032,space,3.9029,,1596.4032,65,35,1597.4026,1597.4026,1597.4197,,,,0,47,47,47,1,25,125,,,,,,,,
,,654136e5219cc073c4b7795c,65af56b9304b05200d92089d,2024-01-23_08h09.30.152,bars,2023.2.3,Win32,60.24096386,657b66ea316d21385b68909f,,,,,,,,,,,1597.4201,1598.4194,,,1598.9189,1599.1693,,90,90,,,,,,,,,,,,,,,,bars/029.png,bars/mask002.png,,,,,,,,,,,,6,1,,,,,,,6,10,6,10,,,,,,,,,,,1598.4194,1598.9189,1599.1693,1604.8682,space,5.691,,1604.8682,0,45,1605.8684,1605.8685,1605.8873,,,,0,48,48,48,1,90,45,,,,,,,,
,,654136e5219cc073c4b7795c,65af56b9304b05200d92089d,2024-01-23_08h09.30.152,bars,2023.2.3,Win32,60.24096386,657b66ea316d21385b68909f,,,,,,,,,,,1605.8877,1606.8847,,,1607.3848,1607.6347,,90,90,,,,,,,,,,,,,,,,bars/034.png,bars/mask001.png,,,,,,,,,,,,2,2,,,,,,,4,10,6,10,,,,,,,,,,,1606.8847,1607.3848,1607.6348,1612.2512,space,4.6013,,1612.2513,35,25,1613.2507,1613.2507,1613.2713,,,,0,49,49,49,1,125,65,,,,,,,,
,,654136e5219cc073c4b7795c,65af56b9304b05200d92089d,2024-01-23_08h09.30.152,bars,2023.2.3,Win32,60.24096386,657b66ea316d21385b68909f,,,,,,,,,,,,,,,,,,,,,,,,,,,,,,,,,,,,,,,,,,,,,,,,,,,,,,,,,,,,,,,,,,,,,,,,,,,,,,,,,,,,,,,,,,,,,1613.2716,1673.26,0,2,2,1,1,sequence_tables/blk008.csv
,,654136e5219cc073c4b7795c,65af56b9304b05200d92089d,2024-01-23_08h09.30.152,bars,2023.2.3,Win32,60.24096386,657b66ea316d21385b68909f,,,,,,,,,,,1677.4876,1678.4756,,,1678.9756,1679.2257,,90,90,,,,,,,,,,,,,,,,bars/002.png,bars/mask004.png,,,,,,,,,,,,3,2,,,,,,,3,2,6,4,,,,,,1673.2806,1677.4651,space,4.1772,,1678.4756,1678.9756,1679.2257,1683.0421,space,3.8043,,1683.0422,40,5,1684.0414,1684.0414,1684.0584,,,,0,0,0,0,1,130,85,,,,,,,,
,,654136e5219cc073c4b7795c,65af56b9304b05200d92089d,2024-01-23_08h09.30.152,bars,2023.2.3,Win32,60.24096386,657b66ea316d21385b68909f,,,,,,,,,,,1684.0587,1685.0581,,,1685.5581,1685.8082,,90,90,,,,,,,,,,,,,,,,bars/042.png,bars/mask004.png,,,,,,,,,,,,2,2,,,,,,,1,4,1,4,,,,,,,,,,,1685.0583,1685.5581,1685.8082,1689.7244,space,3.9006,,1689.7246,55,15,1690.7239,1690.724,1690.7429,,,,0,1,1,1,1,145,75,,,,,,,,
,,654136e5219cc073c4b7795c,65af56b9304b05200d92089d,2024-01-23_08h09.30.152,bars,2023.2.3,Win32,60.24096386,657b66ea316d21385b68909f,,,,,,,,,,,1690.7432,1691.7407,,,1692.2408,1692.4905,,90,90,,,,,,,,,,,,,,,,bars/000.png,bars/mask005.png,,,,,,,,,,,,0,1,,,,,,,3,6,4,5,,,,,,,,,,,1691.7408,1692.2407,1692.4905,1695.5403,space,3.0379,,1695.5405,50,55,1696.5402,1696.5403,1696.56,,,,0,2,2,2,1,40,145,,,,,,,,
,,654136e5219cc073c4b7795c,65af56b9304b05200d92089d,2024-01-23_08h09.30.152,bars,2023.2.3,Win32,60.24096386,657b66ea316d21385b68909f,,,,,,,,,,,1696.5605,1697.5563,,,1698.0566,1698.3066,,0,0,,,,,,,,,,,,,,,,bars/041.png,bars/mask004.png,,,,,,,,,,,,2,1,,,,,,,5,4,5,4,,,,,,,,,,,1697.5563,1698.0566,1698.3066,1702.1061,space,3.7812,,1702.1062,20,85,1703.1059,1703.106,1703.1225,,,,0,3,3,3,1,20,85,,,,,,,,
,,654136e5219cc073c4b7795c,65af56b9304b05200d92089d,2024-01-23_08h09.30.152,bars,2023.2.3,Win32,60.24096386,657b66ea316d21385b68909f,,,,,,,,,,,1703.1229,1704.1223,,,1704.6222,1704.8723,,0,0,,,,,,,,,,,,,,,,bars/017.png,bars/mask000.png,,,,,,,,,,,,0,1,,,,,,,3,6,3,6,,,,,,,,,,,1704.1223,1704.6222,1704.8723,1708.9053,space,4.0155,,1708.9054,35,45,1709.905,1709.9051,1709.9216,,,,0,4,4,4,1,145,45,,,,,,,,
,,654136e5219cc073c4b7795c,65af56b9304b05200d92089d,2024-01-23_08h09.30.152,bars,2023.2.3,Win32,60.24096386,657b66ea316d21385b68909f,,,,,,,,,,,1709.9218,1710.9218,,,1711.4215,1711.6715,,0,0,,,,,,,,,,,,,,,,bars/033.png,bars/mask009.png,,,,,,,,,,,,1,2,,,,,,,5,8,4,8,,,,,,,,,,,1710.9218,1711.4215,1711.6715,1715.1376,space,3.4535,,1715.1377,25,25,1716.1375,1716.1375,1716.1553,,,,0,5,5,5,1,25,155,,,,,,,,
,,654136e5219cc073c4b7795c,65af56b9304b05200d92089d,2024-01-23_08h09.30.152,bars,2023.2.3,Win32,60.24096386,657b66ea316d21385b68909f,,,,,,,,,,,1716.1557,1717.1541,,,1717.6543,1717.9041,,0,180,,,,,,,,,,,,,,,,bars/031.png,bars/mask004.png,,,,,,,,,,,,0,2,,,,,,,3,6,2,6,,,,,,,,,,,1717.1541,1717.6542,1717.9042,1720.9705,space,3.0507,,1720.9706,60,35,1721.9701,1721.9701,1721.9867,,,,0,6,6,6,1,120,35,,,,,,,,
,,654136e5219cc073c4b7795c,65af56b9304b05200d92089d,2024-01-23_08h09.30.152,bars,2023.2.3,Win32,60.24096386,657b66ea316d21385b68909f,,,,,,,,,,,1721.987,1722.9866,,,1723.4865,1723.7363,,0,0,,,,,,,,,,,,,,,,bars/026.png,bars/mask000.png,,,,,,,,,,,,0,1,,,,,,,1,4,2,4,,,,,,,,,,,1722.9867,1723.4865,1723.7363,1727.0864,space,3.3355,,1727.0864,35,85,1728.0861,1728.0861,1728.104,,,,0,7,7,7,1,35,85,,,,,,,,
,,654136e5219cc073c4b7795c,65af56b9304b05200d92089d,2024-01-23_08h09.30.152,bars,2023.2.3,Win32,60.24096386,657b66ea316d21385b68909f,,,,,,,,,,,1728.1043,1729.1025,,,1729.6023,1729.8521,,0,0,,,,,,,,,,,,,,,,bars/027.png,bars/mask005.png,,,,,,,,,,,,0,2,,,,,,,0,2,0,2,,,,,,,,,,,1729.1025,1729.6023,1729.8521,1734.5022,space,4.6424,,1734.5023,70,50,1735.5017,1735.5017,1735.5233,,,,0,8,8,8,1,110,50,,,,,,,,
,,654136e5219cc073c4b7795c,65af56b9304b05200d92089d,2024-01-23_08h09.30.152,bars,2023.2.3,Win32,60.24096386,657b66ea316d21385b68909f,,,,,,,,,,,1735.5236,1736.5183,,,1737.0181,1737.2575,,90,90,,,,,,,,,,,,,,,,bars/013.png,bars/mask003.png,,,,,,,,,,,,0,1,,,,,,,0,4,0,3,,,,,,,,,,,1736.5183,1737.0181,1737.2576,1742.9076,space,5.6338,,1742.9076,15,80,1743.9065,1743.9065,1743.9252,,,,0,9,9,9,1,75,10,,,,,,,,
,,654136e5219cc073c4b7795c,65af56b9304b05200d92089d,2024-01-23_08h09.30.152,bars,2023.2.3,Win32,60.24096386,657b66ea316d21385b68909f,,,,,,,,,,,1743.9255,1744.9184,,,1745.4173,1745.6669,,90,90,,,,,,,,,,,,,,,,bars/039.png,bars/mask007.png,,,,,,,,,,,,3,2,,,,,,,0,6,0,5,,,,,,,,,,,1744.9184,1745.4173,1745.6669,1750.8336,space,5.1503,,1750.8337,85,15,1751.8329,1751.8329,1751.8524,,,,0,10,10,10,1,175,105,,,,,,,,
,,654136e5219cc073c4b7795c,65af56b9304b05200d92089d,2024-01-23_08h09.30.152,bars,2023.2.3,Win32,60.24096386,657b66ea316d21385b68909f,,,,,,,,,,,1751.8527,1752.8508,,,1753.3506,1753.6005,,0,0,,,,,,,,,,,,,,,,bars/035.png,bars/mask005.png,,,,,,,,,,,,0,1,,,,,,,0,8,0,9,,,,,,,,,,,1752.8508,1753.3505,1753.6005,1757.216,space,3.6045,,1757.2162,5,60,1758.2157,1758.2158,1758.2359,,,,0,11,11,11,1,175,60,,,,,,,,
,,654136e5219cc073c4b7795c,65af56b9304b05200d92089d,2024-01-23_08h09.30.152,bars,2023.2.3,Win32,60.24096386,657b66ea316d21385b68909f,,,,,,,,,,,1758.2362,1759.2321,,,1759.7331,1759.9831,,0,0,,,,,,,,,,,,,,,,bars/010.png,bars/mask005.png,,,,,,,,,,,,1,1,,,,,,,2,10,2,9,,,,,,,,,,,1759.2321,1759.7331,1759.9831,1765.1982,space,5.2003,,1765.1982,15,55,1766.1979,1766.198,1766.2151,,,,0,12,12,12,1,165,55,,,,,,,,
,,654136e5219cc073c4b7795c,65af56b9304b05200d92089d,2024-01-23_08h09.30.152,bars,2023.2.3,Win32,60.24096386,657b66ea316d21385b68909f,,,,,,,,,,,1766.2155,1767.2157,,,1767.7144,1767.9645,,90,90,,,,,,,,,,,,,,,,bars/043.png,bars/mask005.png,,,,,,,,,,,,0,2,,,,,,,0,10,0,10,,,,,,,,,,,1767.2159,1767.7144,1767.9645,1771.1313,space,3.1596,,1771.1314,60,40,1772.1304,1772.1305,1772.1486,,,,0,13,13,13,1,30,130,,,,,,,,
,,654136e5219cc073c4b7795c,65af56b9304b05200d92089d,2024-01-23_08h09.30.152,bars,2023.2.3,Win32,60.24096386,657b66ea316d21385b68909f,,,,,,,,,,,1772.1493,1773.1469,,,1773.6468,1773.8967,,0,180,,,,,,,,,,,,,,,,bars/010.png,bars/mask002.png,,,,,,,,,,,,0,1,,,,,,,0,10,0,10,,,,,,,,,,,1773.1469,1773.6467,1773.8967,1778.1298,space,4.2168,,1778.1298,15,55,1779.1294,1779.1294,1779.1482,,,,0,14,14,14,1,165,55,,,,,,,,
,,654136e5219cc073c4b7795c,65af56b9304b05200d92089d,2024-01-23_08h09.30.152,bars,2023.2.3,Win32,60.24096386,657b66ea316d21385b68909f,,,,,,,,,,,1779.1487,1780.1461,,,1780.6458,1780.896,,0,0,,,,,,,,,,,,,,,,bars/044.png,bars/mask007.png,,,,,,,,,,,,1,2,,,,,,,2,8,3,8,,,,,,,,,,,1780.1461,1780.6458,1780.896,1783.0128,space,2.1008,,1783.0129,75,25,1784.0136,1784.0136,1784.0169,,,,0,15,15,15,1,75,155,,,,,,,,
,,654136e5219cc073c4b7795c,65af56b9304b05200d92089d,2024-01-23_08h09.30.152,bars,2023.2.3,Win32,60.24096386,657b66ea316d21385b68909f,,,,,,,,,,,1784.0173,1785.0121,,,1785.5119,1785.7621,,90,90,,,,,,,,,,,,,,,,bars/025.png,bars/mask000.png,,,,,,,,,,,,0,1,,,,,,,0,6,0,5,,,,,,,,,,,1785.0122,1785.5119,1785.7622,1789.445,space,3.6673,,1789.4451,15,50,1790.4449,1790.4449,1790.4634,,,,0,16,16,16,1,105,40,,,,,,,,
,,654136e5219cc073c4b7795c,65af56b9304b05200d92089d,2024-01-23_08h09.30.152,bars,2023.2.3,Win32,60.24096386,657b66ea316d21385b68909f,,,,,,,,,,,1790.4639,1791.4612,,,1791.9612,1792.2107,,90,90,,,,,,,,,,,,,,,,bars/027.png,bars/mask004.png,,,,,,,,,,,,1,1,,,,,,,2,4,2,3,,,,,,,,,,,1791.4612,1791.9612,1792.2107,1802.8101,space,10.5851,,1802.8102,20,40,1803.8095,1803.8095,1803.8269,,,,0,17,17,17,1,110,50,,,,,,,,
,,654136e5219cc073c4b7795c,65af56b9304b05200d92089d,2024-01-23_08h09.30.152,bars,2023.2.3,Win32,60.24096386,657b66ea316d21385b68909f,,,,,,,,,,,1803.8273,1804.8262,,,1805.3263,1805.5763,,0,0,,,,,,,,,,,,,,,,bars/018.png,bars/mask009.png,,,,,,,,,,,,0,1,,,,,,,0,6,1,7,,,,,,,,,,,1804.8262,1805.3263,1805.5763,1806.9259,space,1.3424,,1806.9259,30,90,1807.9256,1807.9257,1807.9454,,,,0,18,18,18,1,150,90,,,,,,,,
,,654136e5219cc073c4b7795c,65af56b9304b05200d92089d,2024-01-23_08h09.30.152,bars,2023.2.3,Win32,60.24096386,657b66ea316d21385b68909f,,,,,,,,,,,1807.9458,1808.9423,,,1809.4422,1809.6924,,0,180,,,,,,,,,,,,,,,,bars/011.png,bars/mask000.png,,,,,,,,,,,,1,1,,,,,,,2,8,2,8,,,,,,,,,,,1808.9423,1809.4421,1809.6925,1813.1589,space,3.4563,,1813.1591,20,85,1814.1594,1814.1594,1814.1783,,,,0,19,19,19,1,160,85,,,,,,,,
,,654136e5219cc073c4b7795c,65af56b9304b05200d92089d,2024-01-23_08h09.30.152,bars,2023.2.3,Win32,60.24096386,657b66ea316d21385b68909f,,,,,,,,,,,1814.1787,1815.1758,,,1815.676,1815.9259,,90,90,,,,,,,,,,,,,,,,bars/023.png,bars/mask003.png,,,,,,,,,,,,1,2,,,,,,,4,6,4,8,,,,,,,,,,,1815.1759,1815.6759,1815.9259,1818.5578,space,2.6169,,1818.5579,70,25,1819.5576,1819.5577,1819.578,,,,0,20,20,20,1,20,115,,,,,,,,
,,654136e5219cc073c4b7795c,65af56b9304b05200d92089d,2024-01-23_08h09.30.152,bars,2023.2.3,Win32,60.24096386,657b66ea316d21385b68909f,,,,,,,,,,,1819.5783,1820.5741,,,1821.074,1821.324,,90,90,,,,,,,,,,,,,,,,bars/045.png,bars/mask007.png,,,,,,,,,,,,4,1,,,,,,,6,4,6,4,,,,,,,,,,,1820.5741,1821.074,1821.324,1825.874,space,4.534,,1825.874,10,80,1826.8744,1826.8745,1826.8946,,,,0,21,21,21,1,100,10,,,,,,,,
,,654136e5219cc073c4b7795c,65af56b9304b05200d92089d,2024-01-23_08h09.30.152,bars,2023.2.3,Win32,60.24096386,657b66ea316d21385b68909f,,,,,,,,,,,1826.895,1827.8909,,,1828.39,1828.6398,,0,0,,,,,,,,,,,,,,,,bars/027.png,bars/mask003.png,,,,,,,,,,,,0,2,,,,,,,8,2,8,2,,,,,,,,,,,1827.891,1828.39,1828.6399,1831.6587,space,3.0113,,1831.6588,70,50,1832.6561,1832.6561,1832.6761,,,,0,22,22,22,1,110,50,,,,,,,,
,,654136e5219cc073c4b7795c,65af56b9304b05200d92089d,2024-01-23_08h09.30.152,bars,2023.2.3,Win32,60.24096386,657b66ea316d21385b68909f,,,,,,,,,,,1832.6765,1833.6738,,,1834.1724,1834.4225,,0,0,,,,,,,,,,,,,,,,bars/044.png,bars/mask004.png,,,,,,,,,,,,1,2,,,,,,,6,4,6,6,,,,,,,,,,,1833.6739,1834.1724,1834.4225,1838.6056,space,4.1664,,1838.6056,75,25,1839.6051,1839.6051,1839.622,,,,0,23,23,23,1,75,155,,,,,,,,
,,654136e5219cc073c4b7795c,65af56b9304b05200d92089d,2024-01-23_08h09.30.152,bars,2023.2.3,Win32,60.24096386,657b66ea316d21385b68909f,,,,,,,,,,,1839.6225,1840.6217,,,1841.1217,1841.3727,,0,0,,,,,,,,,,,,,,,,bars/009.png,bars/mask006.png,,,,,,,,,,,,2,1,,,,,,,4,2,3,1,,,,,,,,,,,1840.6217,1841.1216,1841.3727,1843.9236,space,2.5444,,1843.9237,15,75,1844.9209,1844.921,1844.9396,,,,0,24,24,24,1,15,105,,,,,,,,
,,654136e5219cc073c4b7795c,65af56b9304b05200d92089d,2024-01-23_08h09.30.152,bars,2023.2.3,Win32,60.24096386,657b66ea316d21385b68909f,,,,,,,,,,,1844.9402,1845.9385,,,1846.4375,1846.6876,,0,180,,,,,,,,,,,,,,,,bars/033.png,bars/mask004.png,,,,,,,,,,,,0,2,,,,,,,2,4,2,2,,,,,,,,,,,1845.9385,1846.4375,1846.6877,1849.6874,space,2.9908,,1849.6876,25,25,1850.687,1850.6871,1850.7059,,,,0,25,25,25,1,25,155,,,,,,,,
,,654136e5219cc073c4b7795c,65af56b9304b05200d92089d,2024-01-23_08h09.30.152,bars,2023.2.3,Win32,60.24096386,657b66ea316d21385b68909f,,,,,,,,,,,1850.7063,1851.7036,,,1852.2038,1852.4536,,90,90,,,,,,,,,,,,,,,,bars/046.png,bars/mask009.png,,,,,,,,,,,,5,2,,,,,,,4,6,4,6,,,,,,,,,,,1851.7037,1852.2037,1852.4536,1855.9534,space,3.4883,,1855.9535,65,5,1856.954,1856.9541,1856.973,,,,0,26,26,26,1,155,85,,,,,,,,
,,654136e5219cc073c4b7795c,65af56b9304b05200d92089d,2024-01-23_08h09.30.152,bars,2023.2.3,Win32,60.24096386,657b66ea316d21385b68909f,,,,,,,,,,,1856.9733,1857.9694,,,1858.4693,1858.7193,,90,90,,,,,,,,,,,,,,,,bars/007.png,bars/mask006.png,,,,,,,,,,,,0,2,,,,,,,2,4,1,1,,,,,,,,,,,1857.9694,1858.4693,1858.7194,1861.3859,space,2.6506,,1861.386,85,35,1862.3855,1862.3856,1862.4043,,,,0,27,27,27,1,175,55,,,,,,,,
,,654136e5219cc073c4b7795c,65af56b9304b05200d92089d,2024-01-23_08h09.30.152,bars,2023.2.3,Win32,60.24096386,657b66ea316d21385b68909f,,,,,,,,,,,1862.4046,1863.4024,,,1863.9021,1864.1522,,90,90,,,,,,,,,,,,,,,,bars/026.png,bars/mask002.png,,,,,,,,,,,,3,2,,,,,,,4,2,5,3,,,,,,,,,,,1863.4025,1863.902,1864.1522,1869.8181,space,5.6497,,1869.8182,55,5,1870.8179,1870.8179,1870.836,,,,0,28,28,28,1,35,85,,,,,,,,
,,654136e5219cc073c4b7795c,65af56b9304b05200d92089d,2024-01-23_08h09.30.152,bars,2023.2.3,Win32,60.24096386,657b66ea316d21385b68909f,,,,,,,,,,,1870.8367,1871.8338,,,1872.3337,1872.5837,,0,180,,,,,,,,,,,,,,,,bars/035.png,bars/mask008.png,,,,,,,,,,,,3,1,,,,,,,2,0,3,0,,,,,,,,,,,1871.8339,1872.3337,1872.5838,1879.467,space,6.8676,,1879.4671,5,60,1880.4666,1880.4667,1880.486,,,,0,29,29,29,1,175,60,,,,,,,,
,,654136e5219cc073c4b7795c,65af56b9304b05200d92089d,2024-01-23_08h09.30.152,bars,2023.2.3,Win32,60.24096386,657b66ea316d21385b68909f,,,,,,,,,,,1880.4863,1881.4831,,,1881.9832,1882.2331,,0,0,,,,,,,,,,,,,,,,bars/001.png,bars/mask002.png,,,,,,,,,,,,0,1,,,,,,,0,0,2,0,,,,,,,,,,,1881.4832,1881.9832,1882.2331,1885.4168,space,3.1691,,1885.4169,50,85,1886.4159,1886.416,1886.4329,,,,0,30,30,30,1,130,85,,,,,,,,
,,654136e5219cc073c4b7795c,65af56b9304b05200d92089d,2024-01-23_08h09.30.152,bars,2023.2.3,Win32,60.24096386,657b66ea316d21385b68909f,,,,,,,,,,,1886.4333,1887.4321,,,1887.9324,1888.1824,,90,90,,,,,,,,,,,,,,,,bars/023.png,bars/mask007.png,,,,,,,,,,,,0,2,,,,,,,2,0,1,0,,,,,,,,,,,1887.4321,1887.9324,1888.1824,1895.1024,space,6.9122,,1895.1024,70,25,1896.098,1896.0981,1896.1181,,,,0,31,31,31,1,20,115,,,,,,,,
,,654136e5219cc073c4b7795c,65af56b9304b05200d92089d,2024-01-23_08h09.30.152,bars,2023.2.3,Win32,60.24096386,657b66ea316d21385b68909f,,,,,,,,,,,1896.1185,1897.1144,,,1897.6141,1897.8644,,90,90,,,,,,,,,,,,,,,,bars/033.png,bars/mask005.png,,,,,,,,,,,,0,2,,,,,,,0,0,0,0,,,,,,,,,,,1897.1144,1897.614,1897.8644,1900.2988,space,2.4264,,1900.2988,65,65,1901.2972,1901.2974,1901.314,,,,0,32,32,32,1,25,155,,,,,,,,
,,654136e5219cc073c4b7795c,65af56b9304b05200d92089d,2024-01-23_08h09.30.152,bars,2023.2.3,Win32,60.24096386,657b66ea316d21385b68909f,,,,,,,,,,,1901.3146,1902.3139,,,1902.814,1903.0637,,90,90,,,,,,,,,,,,,,,,bars/009.png,bars/mask001.png,,,,,,,,,,,,1,2,,,,,,,0,2,0,2,,,,,,,,,,,1902.314,1902.8139,1903.0638,1913.3295,space,10.2562,,1913.3296,75,15,1914.3289,1914.3289,1914.3463,,,,0,33,33,33,1,15,105,,,,,,,,
,,654136e5219cc073c4b7795c,65af56b9304b05200d92089d,2024-01-23_08h09.30.152,bars,2023.2.3,Win32,60.24096386,657b66ea316d21385b68909f,,,,,,,,,,,1914.3468,1915.3452,,,1915.8453,1916.0954,,90,90,,,,,,,,,,,,,,,,bars/006.png,bars/mask002.png,,,,,,,,,,,,1,2,,,,,,,2,0,2,1,,,,,,,,,,,1915.3453,1915.8452,1916.0954,1920.2283,space,4.1192,,1920.2283,55,10,1921.2277,1921.2278,1921.2445,,,,0,34,34,34,1,35,100,,,,,,,,
,,654136e5219cc073c4b7795c,65af56b9304b05200d92089d,2024-01-23_08h09.30.152,bars,2023.2.3,Win32,60.24096386,657b66ea316d21385b68909f,,,,,,,,,,,1921.2449,1922.2445,,,1922.7444,1922.9946,,0,180,,,,,,,,,,,,,,,,bars/049.png,bars/mask004.png,,,,,,,,,,,,0,1,,,,,,,0,2,0,1,,,,,,,,,,,1922.2445,1922.7443,1922.9946,1928.1939,space,5.1838,,1928.194,20,65,1929.1938,1929.1938,1929.2118,,,,0,35,35,35,1,160,115,,,,,,,,
,,654136e5219cc073c4b7795c,65af56b9304b05200d92089d,2024-01-23_08h09.30.152,bars,2023.2.3,Win32,60.24096386,657b66ea316d21385b68909f,,,,,,,,,,,1929.2123,1930.2101,,,1930.7103,1930.9603,,90,90,,,,,,,,,,,,,,,,bars/049.png,bars/mask001.png,,,,,,,,,,,,0,2,,,,,,,2,0,3,0,,,,,,,,,,,1930.2102,1930.7103,1930.9604,1936.2597,space,5.2839,,1936.2598,70,25,1937.2591,1937.2591,1937.2683,,,,0,36,36,36,1,160,115,,,,,,,,
,,654136e5219cc073c4b7795c,65af56b9304b05200d92089d,2024-01-23_08h09.30.152,bars,2023.2.3,Win32,60.24096386,657b66ea316d21385b68909f,,,,,,,,,,,1937.2685,1938.2593,,,1938.7594,1939.0092,,0,0,,,,,,,,,,,,,,,,bars/030.png,bars/mask006.png,,,,,,,,,,,,0,1,,,,,,,4,2,5,1,,,,,,,,,,,1938.2593,1938.7594,1939.0092,1942.9421,space,3.9168,,1942.9424,40,65,1943.9418,1943.9419,1943.9612,,,,0,37,37,37,1,140,65,,,,,,,,
,,654136e5219cc073c4b7795c,65af56b9304b05200d92089d,2024-01-23_08h09.30.152,bars,2023.2.3,Win32,60.24096386,657b66ea316d21385b68909f,,,,,,,,,,,1943.9615,1944.9581,,,1945.4583,1945.7083,,90,90,,,,,,,,,,,,,,,,bars/022.png,bars/mask000.png,,,,,,,,,,,,2,1,,,,,,,2,4,2,5,,,,,,,,,,,1944.9581,1945.4582,1945.7084,1949.4413,space,3.7172,,1949.4415,5,70,1950.441,1950.4411,1950.4578,,,,0,38,38,38,1,95,20,,,,,,,,
,,654136e5219cc073c4b7795c,65af56b9304b05200d92089d,2024-01-23_08h09.30.152,bars,2023.2.3,Win32,60.24096386,657b66ea316d21385b68909f,,,,,,,,,,,1950.4583,1951.4577,,,1951.9574,1952.2074,,90,90,,,,,,,,,,,,,,,,bars/023.png,bars/mask006.png,,,,,,,,,,,,1,2,,,,,,,4,6,3,6,,,,,,,,,,,1951.4577,1951.9573,1952.2075,1957.7902,space,5.57,,1957.7903,70,25,1958.7896,1958.7897,1958.81,,,,0,39,39,39,1,20,115,,,,,,,,
,,654136e5219cc073c4b7795c,65af56b9304b05200d92089d,2024-01-23_08h09.30.152,bars,2023.2.3,Win32,60.24096386,657b66ea316d21385b68909f,,,,,,,,,,,1958.8103,1959.8064,,,1960.3065,1960.5565,,0,0,,,,,,,,,,,,,,,,bars/047.png,bars/mask002.png,,,,,,,,,,,,1,1,,,,,,,2,4,1,3,,,,,,,,,,,1959.8064,1960.3065,1960.5565,1964.2895,space,3.7233,,1964.2895,15,70,1965.2892,1965.2892,1965.3084,,,,0,40,40,40,1,15,70,,,,,,,,
,,654136e5219cc073c4b7795c,65af56b9304b05200d92089d,2024-01-23_08h09.30.152,bars,2023.2.3,Win32,60.24096386,657b66ea316d21385b68909f,,,,,,,,,,,1965.3088,1966.3057,,,1966.8055,1967.0556,,0,180,,,,,,,,,,,,,,,,bars/007.png,bars/mask008.png,,,,,,,,,,,,3,1,,,,,,,4,2,3,2,,,,,,,,,,,1966.3057,1966.8055,1967.0556,1969.8554,space,2.7838,,1969.8555,5,55,1970.856,1970.856,1970.875,,,,0,41,41,41,1,175,55,,,,,,,,
,,654136e5219cc073c4b7795c,65af56b9304b05200d92089d,2024-01-23_08h09.30.152,bars,2023.2.3,Win32,60.24096386,657b66ea316d21385b68909f,,,,,,,,,,,1970.8753,1971.8723,,,1972.3745,1972.6214,,0,0,,,,,,,,,,,,,,,,bars/029.png,bars/mask009.png,,,,,,,,,,,,0,2,,,,,,,6,0,7,1,,,,,,,,,,,1971.8724,1972.3744,1972.6215,1976.2889,space,3.6588,,1976.289,90,45,1977.2875,1977.2876,1977.3057,,,,0,42,42,42,1,90,45,,,,,,,,
,,654136e5219cc073c4b7795c,65af56b9304b05200d92089d,2024-01-23_08h09.30.152,bars,2023.2.3,Win32,60.24096386,657b66ea316d21385b68909f,,,,,,,,,,,1977.3065,1978.3042,,,1978.8051,1979.0541,,90,90,,,,,,,,,,,,,,,,bars/012.png,bars/mask003.png,,,,,,,,,,,,6,1,,,,,,,4,0,6,0,,,,,,,,,,,1978.3042,1978.8051,1979.0541,1984.5367,space,5.4732,,1984.5369,0,75,1985.5365,1985.5365,1985.5559,,,,0,43,43,43,1,90,15,,,,,,,,
,,654136e5219cc073c4b7795c,65af56b9304b05200d92089d,2024-01-23_08h09.30.152,bars,2023.2.3,Win32,60.24096386,657b66ea316d21385b68909f,,,,,,,,,,,1985.5561,1986.553,,,1987.0531,1987.3029,,0,0,,,,,,,,,,,,,,,,bars/018.png,bars/mask003.png,,,,,,,,,,,,0,1,,,,,,,2,0,2,0,,,,,,,,,,,1986.5531,1987.053,1987.303,1990.5538,space,3.2388,,1990.5539,30,90,1991.5525,1991.5526,1991.5692,,,,0,44,44,44,1,150,90,,,,,,,,
,,654136e5219cc073c4b7795c,65af56b9304b05200d92089d,2024-01-23_08h09.30.152,bars,2023.2.3,Win32,60.24096386,657b66ea316d21385b68909f,,,,,,,,,,,1991.5697,1992.5689,,,1993.069,1993.3204,,90,90,,,,,,,,,,,,,,,,bars/013.png,bars/mask001.png,,,,,,,,,,,,0,1,,,,,,,0,0,0,2,,,,,,,,,,,1992.569,1993.0689,1993.3204,1995.8687,space,2.5357,,1995.8689,15,80,1996.8695,1996.8696,1996.8886,,,,0,45,45,45,1,75,10,,,,,,,,
,,654136e5219cc073c4b7795c,65af56b9304b05200d92089d,2024-01-23_08h09.30.152,bars,2023.2.3,Win32,60.24096386,657b66ea316d21385b68909f,,,,,,,,,,,1996.8889,1997.8859,,,1998.3847,1998.6346,,0,0,,,,,,,,,,,,,,,,bars/047.png,bars/mask008.png,,,,,,,,,,,,1,1,,,,,,,2,2,2,1,,,,,,,,,,,1997.8859,1998.3845,1998.6346,2000.7857,space,2.1376,,2000.7857,15,70,2001.7844,2001.7844,2001.8012,,,,0,46,46,46,1,15,70,,,,,,,,
,,654136e5219cc073c4b7795c,65af56b9304b05200d92089d,2024-01-23_08h09.30.152,bars,2023.2.3,Win32,60.24096386,657b66ea316d21385b68909f,,,,,,,,,,,2001.8017,2002.8012,,,2003.302,2003.5507,,90,90,,,,,,,,,,,,,,,,bars/031.png,bars/mask005.png,,,,,,,,,,,,0,1,,,,,,,4,0,5,1,,,,,,,,,,,2002.8013,2003.3019,2003.5507,2006.6341,space,3.0742,,2006.6341,30,55,2007.6336,2007.6337,2007.65,,,,0,47,47,47,1,120,35,,,,,,,,
,,654136e5219cc073c4b7795c,65af56b9304b05200d92089d,2024-01-23_08h09.30.152,bars,2023.2.3,Win32,60.24096386,657b66ea316d21385b68909f,,,,,,,,,,,2007.6504,2008.6505,,,2009.1499,2009.4,,90,90,,,,,,,,,,,,,,,,bars/022.png,bars/mask006.png,,,,,,,,,,,,6,1,,,,,,,6,2,7,3,,,,,,,,,,,2008.6506,2009.1499,2009.4,2013.6832,space,4.2674,,2013.6832,5,70,2014.6828,2014.6829,2014.7004,,,,0,48,48,48,1,95,20,,,,,,,,
,,654136e5219cc073c4b7795c,65af56b9304b05200d92089d,2024-01-23_08h09.30.152,bars,2023.2.3,Win32,60.24096386,657b66ea316d21385b68909f,,,,,,,,,,,2014.7007,2015.6996,,,2016.1992,2016.4491,,90,90,,,,,,,,,,,,,,,,bars/025.png,bars/mask003.png,,,,,,,,,,,,2,1,,,,,,,4,4,3,4,,,,,,,,,,,2015.6996,2016.1992,2016.4492,2022.4483,space,5.9914,,2022.4483,15,50,2023.4482,2023.4482,2023.4649,,,,0,49,49,49,1,105,40,,,,,,,,
,,654136e5219cc073c4b7795c,65af56b9304b05200d92089d,2024-01-23_08h09.30.152,bars,2023.2.3,Win32,60.24096386,657b66ea316d21385b68909f,,,,,,,,,,,,,,,,,,,,,,,,,,,,,,,,,,,,,,,,,,,,,,,,,,,,,,,,,,,,,,,,,,,,,,,,,,,,,,,,,,,,,,,,,,,,,2023.4654,2083.4573,0,3,3,3,1,sequence_tables/blk023.csv
,,654136e5219cc073c4b7795c,65af56b9304b05200d92089d,2024-01-23_08h09.30.152,bars,2023.2.3,Win32,60.24096386,657b66ea316d21385b68909f,,,,,,,,,,,2145.5896,2146.567,,,2147.0668,2147.3169,,90,90,,,,,,,,,,,,,,,,bars/037.png,bars/mask003.png,,,,,,,,,,,,5,2,,,,,,,8,8,9,9,,,,,,2083.4747,2145.5659,space,62.083,,2146.567,2147.0667,2147.317,2151.8655,space,4.54,,2151.8657,60,15,2152.8649,2152.865,2152.8833,,,,0,0,0,0,1,150,105,,,,,,,,
,,654136e5219cc073c4b7795c,65af56b9304b05200d92089d,2024-01-23_08h09.30.152,bars,2023.2.3,Win32,60.24096386,657b66ea316d21385b68909f,,,,,,,,,,,2152.8841,2153.8814,,,2154.3815,2154.6315,,90,90,,,,,,,,,,,,,,,,bars/011.png,bars/mask007.png,,,,,,,,,,,,5,2,,,,,,,10,6,8,6,,,,,,,,,,,2153.8815,2154.3815,2154.6316,2158.9648,space,4.3221,,2158.9649,70,5,2159.9642,2159.9642,2159.9811,,,,0,1,1,1,1,160,85,,,,,,,,
,,654136e5219cc073c4b7795c,65af56b9304b05200d92089d,2024-01-23_08h09.30.152,bars,2023.2.3,Win32,60.24096386,657b66ea316d21385b68909f,,,,,,,,,,,2159.9815,2160.9811,,,2161.4808,2161.7304,,0,0,,,,,,,,,,,,,,,,bars/039.png,bars/mask006.png,,,,,,,,,,,,8,1,,,,,,,8,8,10,8,,,,,,,,,,,2160.9811,2161.4807,2161.7305,2165.3303,space,3.5922,,2165.3303,5,75,2166.33,2166.3301,2166.3484,,,,0,2,2,2,1,175,105,,,,,,,,
,,654136e5219cc073c4b7795c,65af56b9304b05200d92089d,2024-01-23_08h09.30.152,bars,2023.2.3,Win32,60.24096386,657b66ea316d21385b68909f,,,,,,,,,,,2166.3489,2167.3466,,,2167.8465,2168.0965,,0,0,,,,,,,,,,,,,,,,bars/041.png,bars/mask001.png,,,,,,,,,,,,1,1,,,,,,,6,6,4,7,,,,,,,,,,,2167.3466,2167.8464,2168.0966,2172.0128,space,3.9072,,2172.0129,20,85,2173.0125,2173.0125,2173.0294,,,,0,3,3,3,1,20,85,,,,,,,,
,,654136e5219cc073c4b7795c,65af56b9304b05200d92089d,2024-01-23_08h09.30.152,bars,2023.2.3,Win32,60.24096386,657b66ea316d21385b68909f,,,,,,,,,,,2173.0299,2174.0286,,,2174.5289,2174.779,,0,180,,,,,,,,,,,,,,,,bars/001.png,bars/mask006.png,,,,,,,,,,,,0,1,,,,,,,4,8,5,7,,,,,,,,,,,2174.0286,2174.5289,2174.7791,2179.6119,space,4.8212,,2179.612,50,85,2180.6117,2180.6118,2180.6281,,,,0,4,4,4,1,130,85,,,,,,,,
,,654136e5219cc073c4b7795c,65af56b9304b05200d92089d,2024-01-23_08h09.30.152,bars,2023.2.3,Win32,60.24096386,657b66ea316d21385b68909f,,,,,,,,,,,2180.6286,2181.6284,,,2182.1281,2182.378,,0,180,,,,,,,,,,,,,,,,bars/046.png,bars/mask003.png,,,,,,,,,,,,0,1,,,,,,,2,6,1,6,,,,,,,,,,,2181.6284,2182.128,2182.378,2185.9108,space,3.5172,,2185.9109,25,85,2186.9107,2186.9107,2186.9281,,,,0,5,5,5,1,155,85,,,,,,,,
,,654136e5219cc073c4b7795c,65af56b9304b05200d92089d,2024-01-23_08h09.30.152,bars,2023.2.3,Win32,60.24096386,657b66ea316d21385b68909f,,,,,,,,,,,2186.9285,2187.9269,,,2188.4271,2188.677,,0,180,,,,,,,,,,,,,,,,bars/022.png,bars/mask000.png,,,,,,,,,,,,2,2,,,,,,,4,4,3,6,,,,,,,,,,,2187.927,2188.4271,2188.6772,2192.1269,space,3.4339,,2192.127,85,20,2193.1265,2193.1265,2193.1447,,,,0,6,6,6,1,95,20,,,,,,,,
,,654136e5219cc073c4b7795c,65af56b9304b05200d92089d,2024-01-23_08h09.30.152,bars,2023.2.3,Win32,60.24096386,657b66ea316d21385b68909f,,,,,,,,,,,2193.1454,2194.1431,,,2194.6432,2194.893,,90,90,,,,,,,,,,,,,,,,bars/045.png,bars/mask004.png,,,,,,,,,,,,1,1,,,,,,,2,2,1,1,,,,,,,,,,,2194.1432,2194.6431,2194.893,2198.2428,space,3.3406,,2198.2429,10,80,2199.2421,2199.2423,2199.2602,,,,0,7,7,7,1,100,10,,,,,,,,
,,654136e5219cc073c4b7795c,65af56b9304b05200d92089d,2024-01-23_08h09.30.152,bars,2023.2.3,Win32,60.24096386,657b66ea316d21385b68909f,,,,,,,,,,,2199.2605,2200.2589,,,2200.7599,2201.0101,,90,90,,,,,,,,,,,,,,,,bars/041.png,bars/mask006.png,,,,,,,,,,,,3,2,,,,,,,4,4,3,3,,,,,,,,,,,2200.2589,2200.7598,2201.0101,2203.6089,space,2.5838,,2203.609,70,5,2204.6085,2204.6086,2204.6283,,,,0,8,8,8,1,20,85,,,,,,,,
,,654136e5219cc073c4b7795c,65af56b9304b05200d92089d,2024-01-23_08h09.30.152,bars,2023.2.3,Win32,60.24096386,657b66ea316d21385b68909f,,,,,,,,,,,2204.6286,2205.625,,,2206.125,2206.3747,,90,90,,,,,,,,,,,,,,,,bars/031.png,bars/mask005.png,,,,,,,,,,,,0,1,,,,,,,2,6,3,7,,,,,,,,,,,2205.625,2206.125,2206.3748,2210.4748,space,4.0867,,2210.4748,30,55,2211.4741,2211.4742,2211.4928,,,,0,9,9,9,1,120,35,,,,,,,,
,,654136e5219cc073c4b7795c,65af56b9304b05200d92089d,2024-01-23_08h09.30.152,bars,2023.2.3,Win32,60.24096386,657b66ea316d21385b68909f,,,,,,,,,,,2211.4936,2212.4908,,,2212.9906,2213.2408,,0,180,,,,,,,,,,,,,,,,bars/036.png,bars/mask009.png,,,,,,,,,,,,3,2,,,,,,,4,8,4,8,,,,,,,,,,,2212.4908,2212.9906,2213.2408,2215.8404,space,2.5917,,2215.8404,35,20,2216.8404,2216.8404,2216.8592,,,,0,10,10,10,1,145,20,,,,,,,,
,,654136e5219cc073c4b7795c,65af56b9304b05200d92089d,2024-01-23_08h09.30.152,bars,2023.2.3,Win32,60.24096386,657b66ea316d21385b68909f,,,,,,,,,,,2216.8595,2217.8568,,,2218.3578,2218.6078,,0,0,,,,,,,,,,,,,,,,bars/034.png,bars/mask007.png,,,,,,,,,,,,0,1,,,,,,,6,6,6,6,,,,,,,,,,,2217.8568,2218.3578,2218.6079,2222.6894,space,4.0753,,2222.6895,55,65,2223.6893,2223.6894,2223.7077,,,,0,11,11,11,1,125,65,,,,,,,,
,,654136e5219cc073c4b7795c,65af56b9304b05200d92089d,2024-01-23_08h09.30.152,bars,2023.2.3,Win32,60.24096386,657b66ea316d21385b68909f,,,,,,,,,,,2223.7084,2224.706,,,2225.2057,2225.4558,,90,90,,,,,,,,,,,,,,,,bars/031.png,bars/mask004.png,,,,,,,,,,,,0,1,,,,,,,4,4,3,3,,,,,,,,,,,2224.706,2225.2056,2225.4558,2230.2231,space,4.755,,2230.2231,30,55,2231.2226,2231.2226,2231.242,,,,0,12,12,12,1,120,35,,,,,,,,
