init_variables.started,init_variables.stopped,participant,session,date,expName,psychopyVersion,OS,frameRate,study_id,instruction_exp.started,instruction_exp.stopped,key_resp_8.keys,key_resp_8.rt,key_resp_8.duration,instruction_single.started,instruction_single.stopped,key_resp_2.keys,key_resp_2.rt,key_resp_2.duration,interval.started,interval.stopped,cue_single.started,cue_single.stopped,mask.started,mask.stopped,ori_response_single.started,res_ori,res,ori_response_single.stopped,key_resp_single.keys,key_resp_single.rt,key_resp_single.duration,disp_single.started,disp_single.stopped,key_resp.keys,key_resp.rt,key_resp.duration,single.thisRepN,single.thisTrialN,single.thisN,single.thisIndex,single.ran,ori,path,mask_path,instruction_bandit.started,instruction_bandit.stopped,key_resp_6.keys,key_resp_6.rt,key_resp_6.duration,cue_bandit.started,cue_bandit.stopped,bandit_res.keys,bandit_res.rt,bandit_res.duration,outcome_bandit.started,rew,action,outcome_bandit.stopped,bandit.thisRepN,bandit.thisTrialN,bandit.thisN,bandit.thisIndex,bandit.ran,actual_rew1,actual_rew2,rew1,rew2,instruction_task.started,instruction_task.stopped,key_resp_7.keys,key_resp_7.rt,key_resp_7.duration,wait_ready.started,wait_ready.stopped,key_resp_3.keys,key_resp_3.rt,key_resp_3.duration,cue.started,cue.stopped,ori_response.started,ori_response.stopped,key_resp_5.keys,key_resp_5.rt,key_resp_5.duration,outcome.started,diff1,diff2,outcome.stopped,disp_outcome_practice.started,disp_outcome_practice.stopped,key_resp_4.keys,key_resp_4.rt,key_resp_4.duration,trials.thisRepN,trials.thisTrialN,trials.thisN,trials.thisIndex,trials.ran,ori1,ori2,break_blk.started,break_blk.stopped,block.thisRepN,block.thisTrialN,block.thisN,block.thisIndex,block.ran,condition_file
0.0004,0.0006,5ec53b28be5c9d2fd7d624f4,65af545bba3c4b3e6931706e,2024-01-23_05h54.00.317,bars,2023.2.3,Win32,142.8571429,657b66ea316d21385b68909f,,,,,,,,,,,,,,,,,,,,,,,,,,,,,,,,,,,,,,,,,,,,,,,,,,,,,,,,,,,,,,,,,,,,,,,,,,,,,,,,,,,,,,,,,,,,,,,,,,,,
,,5ec53b28be5c9d2fd7d624f4,65af545bba3c4b3e6931706e,2024-01-23_05h54.00.317,bars,2023.2.3,Win32,142.8571429,657b66ea316d21385b68909f,0.0009,8.1731,y,8.1631,,,,,,,,,,,,,,,,,,,,,,,,,,,,,,,,,,,,,,,,,,,,,,,,,,,,,,,,,,,,,,,,,,,,,,,,,,,,,,,,,,,,,,,,,,,,,,,,
,,5ec53b28be5c9d2fd7d624f4,65af545bba3c4b3e6931706e,2024-01-23_05h54.00.317,bars,2023.2.3,Win32,142.8571429,657b66ea316d21385b68909f,,,,,,8.1733,16.6246,space,8.4434,,,,,,,,,,,,,,,,,,,,,,,,,,,,,,,,,,,,,,,,,,,,,,,,,,,,,,,,,,,,,,,,,,,,,,,,,,,,,,,,,,,,,,,,,,,
,,5ec53b28be5c9d2fd7d624f4,65af545bba3c4b3e6931706e,2024-01-23_05h54.00.317,bars,2023.2.3,Win32,142.8571429,657b66ea316d21385b68909f,,,,,,,,,,,16.628,17.6244,17.6245,18.1248,18.125,18.3747,18.3749,90,90,25.354,space,6.965,,25.3541,31.9304,space,6.5634,,0,0,0,1,1,20,bars/single001.png,bars/mask006.png,,,,,,,,,,,,,,,,,,,,,,,,,,,,,,,,,,,,,,,,,,,,,,,,,,,,,,,,,,,,,,,,
,,5ec53b28be5c9d2fd7d624f4,65af545bba3c4b3e6931706e,2024-01-23_05h54.00.317,bars,2023.2.3,Win32,142.8571429,657b66ea316d21385b68909f,,,,,,,,,,,31.9309,32.9299,32.93,33.4303,33.4304,33.68,33.68,47,47,38.187,space,4.5014,,38.1871,42.7354,space,4.5399,,0,1,1,9,1,20,bars/single009.png,bars/mask006.png,,,,,,,,,,,,,,,,,,,,,,,,,,,,,,,,,,,,,,,,,,,,,,,,,,,,,,,,,,,,,,,,
,,5ec53b28be5c9d2fd7d624f4,65af545bba3c4b3e6931706e,2024-01-23_05h54.00.317,bars,2023.2.3,Win32,142.8571429,657b66ea316d21385b68909f,,,,,,,,,,,42.7358,43.7357,43.7357,44.2358,44.2359,44.486,44.486,96,96,46.3746,space,1.8823,,46.3746,50.8265,space,4.4433,,0,2,2,4,1,95,bars/single004.png,bars/mask004.png,,,,,,,,,,,,,,,,,,,,,,,,,,,,,,,,,,,,,,,,,,,,,,,,,,,,,,,,,,,,,,,,
,,5ec53b28be5c9d2fd7d624f4,65af545bba3c4b3e6931706e,2024-01-23_05h54.00.317,bars,2023.2.3,Win32,142.8571429,657b66ea316d21385b68909f,,,,,,,,,,,50.8335,51.8333,51.8333,52.3331,52.3332,52.5832,52.5832,16,196,55.6873,space,3.0982,,55.6873,57.0274,space,1.3229,,0,3,3,7,1,45,bars/single007.png,bars/mask009.png,,,,,,,,,,,,,,,,,,,,,,,,,,,,,,,,,,,,,,,,,,,,,,,,,,,,,,,,,,,,,,,,
,,5ec53b28be5c9d2fd7d624f4,65af545bba3c4b3e6931706e,2024-01-23_05h54.00.317,bars,2023.2.3,Win32,142.8571429,657b66ea316d21385b68909f,,,,,,,,,,,57.0277,58.0274,58.0274,58.5272,58.5273,58.7779,58.778,152,152,61.458,space,2.6768,,61.458,63.111,space,1.6391,,0,4,4,0,1,150,bars/single000.png,bars/mask006.png,,,,,,,,,,,,,,,,,,,,,,,,,,,,,,,,,,,,,,,,,,,,,,,,,,,,,,,,,,,,,,,,
,,5ec53b28be5c9d2fd7d624f4,65af545bba3c4b3e6931706e,2024-01-23_05h54.00.317,bars,2023.2.3,Win32,142.8571429,657b66ea316d21385b68909f,,,,,,,,,,,63.1112,64.1112,64.1112,64.6112,64.6113,64.8612,64.8613,11,191,66.6739,space,1.8065,,66.674,67.285,space,0.5976,,0,5,5,3,1,20,bars/single003.png,bars/mask005.png,,,,,,,,,,,,,,,,,,,,,,,,,,,,,,,,,,,,,,,,,,,,,,,,,,,,,,,,,,,,,,,,
,,5ec53b28be5c9d2fd7d624f4,65af545bba3c4b3e6931706e,2024-01-23_05h54.00.317,bars,2023.2.3,Win32,142.8571429,657b66ea316d21385b68909f,,,,,,,,,,,67.2854,68.2847,68.2848,68.7849,68.7849,69.0345,69.0345,170,170,70.4514,space,1.4132,,70.4514,71.2088,space,0.7517,,0,6,6,6,1,175,bars/single006.png,bars/mask005.png,,,,,,,,,,,,,,,,,,,,,,,,,,,,,,,,,,,,,,,,,,,,,,,,,,,,,,,,,,,,,,,,
,,5ec53b28be5c9d2fd7d624f4,65af545bba3c4b3e6931706e,2024-01-23_05h54.00.317,bars,2023.2.3,Win32,142.8571429,657b66ea316d21385b68909f,,,,,,,,,,,71.2091,72.2082,72.2083,72.7082,72.7082,72.9581,72.9582,164,-16,76.1804,space,3.2167,,76.1804,77.2221,space,1.0367,,0,7,7,8,1,160,bars/single008.png,bars/mask004.png,,,,,,,,,,,,,,,,,,,,,,,,,,,,,,,,,,,,,,,,,,,,,,,,,,,,,,,,,,,,,,,,
,,5ec53b28be5c9d2fd7d624f4,65af545bba3c4b3e6931706e,2024-01-23_05h54.00.317,bars,2023.2.3,Win32,142.8571429,657b66ea316d21385b68909f,,,,,,,,,,,77.2225,78.222,78.2221,78.7225,78.7225,78.9722,78.9722,144,-36,82.563,space,3.5839,,82.563,84.0076,space,1.436,,0,8,8,2,1,145,bars/single002.png,bars/mask003.png,,,,,,,,,,,,,,,,,,,,,,,,,,,,,,,,,,,,,,,,,,,,,,,,,,,,,,,,,,,,,,,,
,,5ec53b28be5c9d2fd7d624f4,65af545bba3c4b3e6931706e,2024-01-23_05h54.00.317,bars,2023.2.3,Win32,142.8571429,657b66ea316d21385b68909f,,,,,,,,,,,84.0078,85.0071,85.0072,85.5068,85.5068,85.7571,85.7571,57,57,87.6046,space,1.8408,,87.6047,89.9723,space,2.3613,,0,9,9,5,1,55,bars/single005.png,bars/mask008.png,,,,,,,,,,,,,,,,,,,,,,,,,,,,,,,,,,,,,,,,,,,,,,,,,,,,,,,,,,,,,,,,
,,5ec53b28be5c9d2fd7d624f4,65af545bba3c4b3e6931706e,2024-01-23_05h54.00.317,bars,2023.2.3,Win32,142.8571429,657b66ea316d21385b68909f,,,,,,,,,,,,,,,,,,,,,,,,,,,,,,,,,,,,,89.9729,99.8894,space,9.9083,,,,,,,,,,,,,,,,,,,,,,,,,,,,,,,,,,,,,,,,,,,,,,,,,,,,,,,,,,,,
,,5ec53b28be5c9d2fd7d624f4,65af545bba3c4b3e6931706e,2024-01-23_05h54.00.317,bars,2023.2.3,Win32,142.8571429,657b66ea316d21385b68909f,,,,,,,,,,,,,,,,,,,,,,,,,,,,,,,,,,,,,,,,,,99.8983,101.0349,right,1.1294,,101.035,2,2,102.0348,0,0,0,0,1,9,1,9,2,,,,,,,,,,,,,,,,,,,,,,,,,,,,,,,,,,,,,,,,,
,,5ec53b28be5c9d2fd7d624f4,65af545bba3c4b3e6931706e,2024-01-23_05h54.00.317,bars,2023.2.3,Win32,142.8571429,657b66ea316d21385b68909f,,,,,,,,,,,,,,,,,,,,,,,,,,,,,,,,,,,,,,,,,,102.0351,102.6882,left,0.6472,,102.6883,10,1,103.6879,0,1,1,1,1,10,0,10,1,,,,,,,,,,,,,,,,,,,,,,,,,,,,,,,,,,,,,,,,,
,,5ec53b28be5c9d2fd7d624f4,65af545bba3c4b3e6931706e,2024-01-23_05h54.00.317,bars,2023.2.3,Win32,142.8571429,657b66ea316d21385b68909f,,,,,,,,,,,,,,,,,,,,,,,,,,,,,,,,,,,,,,,,,,103.6885,104.0839,right,0.3897,,104.0841,2,2,105.0835,0,2,2,2,1,10,2,10,2,,,,,,,,,,,,,,,,,,,,,,,,,,,,,,,,,,,,,,,,,
,,5ec53b28be5c9d2fd7d624f4,65af545bba3c4b3e6931706e,2024-01-23_05h54.00.317,bars,2023.2.3,Win32,142.8571429,657b66ea316d21385b68909f,,,,,,,,,,,,,,,,,,,,,,,,,,,,,,,,,,,,,,,,,,105.0837,105.4238,right,0.3351,,105.4238,3,2,106.4237,0,3,3,3,1,8,4,7,3,,,,,,,,,,,,,,,,,,,,,,,,,,,,,,,,,,,,,,,,,
,,5ec53b28be5c9d2fd7d624f4,65af545bba3c4b3e6931706e,2024-01-23_05h54.00.317,bars,2023.2.3,Win32,142.8571429,657b66ea316d21385b68909f,,,,,,,,,,,,,,,,,,,,,,,,,,,,,,,,,,,,,,,,,,106.424,106.7021,left,0.2763,,106.7023,5,1,107.7018,0,4,4,4,1,6,2,5,1,,,,,,,,,,,,,,,,,,,,,,,,,,,,,,,,,,,,,,,,,
,,5ec53b28be5c9d2fd7d624f4,65af545bba3c4b3e6931706e,2024-01-23_05h54.00.317,bars,2023.2.3,Win32,142.8571429,657b66ea316d21385b68909f,,,,,,,,,,,,,,,,,,,,,,,,,,,,,,,,,,,,,,,,,,107.7021,107.9865,left,0.2778,,107.9866,4,1,108.9863,0,5,5,5,1,4,4,4,4,,,,,,,,,,,,,,,,,,,,,,,,,,,,,,,,,,,,,,,,,
,,5ec53b28be5c9d2fd7d624f4,65af545bba3c4b3e6931706e,2024-01-23_05h54.00.317,bars,2023.2.3,Win32,142.8571429,657b66ea316d21385b68909f,,,,,,,,,,,,,,,,,,,,,,,,,,,,,,,,,,,,,,,,,,108.9866,109.2502,right,0.2575,,109.2502,2,2,110.2502,0,6,6,6,1,2,2,1,2,,,,,,,,,,,,,,,,,,,,,,,,,,,,,,,,,,,,,,,,,
,,5ec53b28be5c9d2fd7d624f4,65af545bba3c4b3e6931706e,2024-01-23_05h54.00.317,bars,2023.2.3,Win32,142.8571429,657b66ea316d21385b68909f,,,,,,,,,,,,,,,,,,,,,,,,,,,,,,,,,,,,,,,,,,110.2505,112.4376,left,2.184,,112.4377,0,1,113.4377,0,7,7,7,1,0,0,0,1,,,,,,,,,,,,,,,,,,,,,,,,,,,,,,,,,,,,,,,,,
,,5ec53b28be5c9d2fd7d624f4,65af545bba3c4b3e6931706e,2024-01-23_05h54.00.317,bars,2023.2.3,Win32,142.8571429,657b66ea316d21385b68909f,,,,,,,,,,,,,,,,,,,,,,,,,,,,,,,,,,,,,,,,,,113.4379,113.8753,right,0.4311,,113.8753,0,2,114.8757,0,8,8,8,1,0,2,1,0,,,,,,,,,,,,,,,,,,,,,,,,,,,,,,,,,,,,,,,,,
,,5ec53b28be5c9d2fd7d624f4,65af545bba3c4b3e6931706e,2024-01-23_05h54.00.317,bars,2023.2.3,Win32,142.8571429,657b66ea316d21385b68909f,,,,,,,,,,,,,,,,,,,,,,,,,,,,,,,,,,,,,,,,,,114.876,115.1604,right,0.2785,,115.1605,3,2,116.16,0,9,9,9,1,2,4,2,3,,,,,,,,,,,,,,,,,,,,,,,,,,,,,,,,,,,,,,,,,
,,5ec53b28be5c9d2fd7d624f4,65af545bba3c4b3e6931706e,2024-01-23_05h54.00.317,bars,2023.2.3,Win32,142.8571429,657b66ea316d21385b68909f,,,,,,,,,,,,,,,,,,,,,,,,,,,,,,,,,,,,,,,,,,116.1604,116.4451,right,0.2769,,116.4452,3,2,117.4446,0,10,10,10,1,0,2,0,3,,,,,,,,,,,,,,,,,,,,,,,,,,,,,,,,,,,,,,,,,
,,5ec53b28be5c9d2fd7d624f4,65af545bba3c4b3e6931706e,2024-01-23_05h54.00.317,bars,2023.2.3,Win32,142.8571429,657b66ea316d21385b68909f,,,,,,,,,,,,,,,,,,,,,,,,,,,,,,,,,,,,,,,,,,117.445,117.6671,left,0.2149,,117.6671,0,1,118.6672,0,11,11,11,1,0,4,0,3,,,,,,,,,,,,,,,,,,,,,,,,,,,,,,,,,,,,,,,,,
,,5ec53b28be5c9d2fd7d624f4,65af545bba3c4b3e6931706e,2024-01-23_05h54.00.317,bars,2023.2.3,Win32,142.8571429,657b66ea316d21385b68909f,,,,,,,,,,,,,,,,,,,,,,,,,,,,,,,,,,,,,,,,,,118.6678,118.8897,right,0.2178,,118.8897,6,2,119.8893,0,12,12,12,1,2,6,1,6,,,,,,,,,,,,,,,,,,,,,,,,,,,,,,,,,,,,,,,,,
,,5ec53b28be5c9d2fd7d624f4,65af545bba3c4b3e6931706e,2024-01-23_05h54.00.317,bars,2023.2.3,Win32,142.8571429,657b66ea316d21385b68909f,,,,,,,,,,,,,,,,,,,,,,,,,,,,,,,,,,,,,,,,,,119.8899,120.1392,left,0.2445,,120.1392,1,1,121.1391,0,13,13,13,1,0,4,1,3,,,,,,,,,,,,,,,,,,,,,,,,,,,,,,,,,,,,,,,,,
,,5ec53b28be5c9d2fd7d624f4,65af545bba3c4b3e6931706e,2024-01-23_05h54.00.317,bars,2023.2.3,Win32,142.8571429,657b66ea316d21385b68909f,,,,,,,,,,,,,,,,,,,,,,,,,,,,,,,,,,,,,,,,,,121.1394,121.3546,right,0.2088,,121.3546,7,2,122.3545,0,14,14,14,1,2,6,2,7,,,,,,,,,,,,,,,,,,,,,,,,,,,,,,,,,,,,,,,,,
,,5ec53b28be5c9d2fd7d624f4,65af545bba3c4b3e6931706e,2024-01-23_05h54.00.317,bars,2023.2.3,Win32,142.8571429,657b66ea316d21385b68909f,,,,,,,,,,,,,,,,,,,,,,,,,,,,,,,,,,,,,,,,,,122.3548,122.6812,right,0.3199,,122.6812,9,2,123.681,0,15,15,15,1,4,8,3,9,,,,,,,,,,,,,,,,,,,,,,,,,,,,,,,,,,,,,,,,,
,,5ec53b28be5c9d2fd7d624f4,65af545bba3c4b3e6931706e,2024-01-23_05h54.00.317,bars,2023.2.3,Win32,142.8571429,657b66ea316d21385b68909f,,,,,,,,,,,,,,,,,,,,,,,,,,,,,,,,,,,,,,,,,,123.6815,123.98,right,0.2947,,123.9801,7,2,124.9797,0,16,16,16,1,6,6,7,7,,,,,,,,,,,,,,,,,,,,,,,,,,,,,,,,,,,,,,,,,
,,5ec53b28be5c9d2fd7d624f4,65af545bba3c4b3e6931706e,2024-01-23_05h54.00.317,bars,2023.2.3,Win32,142.8571429,657b66ea316d21385b68909f,,,,,,,,,,,,,,,,,,,,,,,,,,,,,,,,,,,,,,,,,,124.9799,125.2087,right,0.2266,,125.2088,5,2,126.2086,0,17,17,17,1,8,4,9,5,,,,,,,,,,,,,,,,,,,,,,,,,,,,,,,,,,,,,,,,,
,,5ec53b28be5c9d2fd7d624f4,65af545bba3c4b3e6931706e,2024-01-23_05h54.00.317,bars,2023.2.3,Win32,142.8571429,657b66ea316d21385b68909f,,,,,,,,,,,,,,,,,,,,,,,,,,,,,,,,,,,,,,,,,,126.2088,126.5143,left,0.3019,,126.5143,5,1,127.5143,0,18,18,18,1,6,2,5,1,,,,,,,,,,,,,,,,,,,,,,,,,,,,,,,,,,,,,,,,,
,,5ec53b28be5c9d2fd7d624f4,65af545bba3c4b3e6931706e,2024-01-23_05h54.00.317,bars,2023.2.3,Win32,142.8571429,657b66ea316d21385b68909f,,,,,,,,,,,,,,,,,,,,,,,,,,,,,,,,,,,,,,,,,,127.5145,127.7575,left,0.2357,,127.7575,7,1,128.7577,0,19,19,19,1,8,0,7,0,,,,,,,,,,,,,,,,,,,,,,,,,,,,,,,,,,,,,,,,,
,,5ec53b28be5c9d2fd7d624f4,65af545bba3c4b3e6931706e,2024-01-23_05h54.00.317,bars,2023.2.3,Win32,142.8571429,657b66ea316d21385b68909f,,,,,,,,,,,,,,,,,,,,,,,,,,,,,,,,,,,,,,,,,,,,,,,,,,,,,,,,,,,,128.7583,142.39,space,13.6223,,,,,,,,,,,,,,,,,,,,,,,,,,,,,,,,,,,,,
,,5ec53b28be5c9d2fd7d624f4,65af545bba3c4b3e6931706e,2024-01-23_05h54.00.317,bars,2023.2.3,Win32,142.8571429,657b66ea316d21385b68909f,,,,,,,,,,,143.2535,144.2509,,,144.751,145.0005,,113,113,,,,,,,,,,,,,,,,bars/008.png,bars/mask004.png,,,,,,,,,,,,2,1,,,,,,,2,8,2,9,,,,,,142.3985,143.2507,space,0.8486,,144.2512,144.7509,145.0007,147.3972,space,2.3905,,147.3973,3,67,148.3971,148.3973,153.8414,space,5.4326,,0,0,0,0,1,110,0,,,,,,,,
,,5ec53b28be5c9d2fd7d624f4,65af545bba3c4b3e6931706e,2024-01-23_05h54.00.317,bars,2023.2.3,Win32,142.8571429,657b66ea316d21385b68909f,,,,,,,,,,,153.8483,154.8482,,,155.3483,155.598,,19,199,,,,,,,,,,,,,,,,bars/031.png,bars/mask006.png,,,,,,,,,,,,5,2,,,,,,,4,10,5,10,,,,,,,,,,,154.8482,155.3482,155.598,157.8618,space,2.2587,,157.862,79,16,158.8618,158.8618,159.8412,space,0.9662,,0,1,1,1,1,120,35,,,,,,,,
,,5ec53b28be5c9d2fd7d624f4,65af545bba3c4b3e6931706e,2024-01-23_05h54.00.317,bars,2023.2.3,Win32,142.8571429,657b66ea316d21385b68909f,,,,,,,,,,,159.8415,160.8413,,,161.3411,161.591,,81,81,,,,,,,,,,,,,,,,bars/011.png,bars/mask003.png,,,,,,,,,,,,6,2,,,,,,,6,8,7,7,,,,,,,,,,,160.8414,161.341,161.5911,162.7368,space,1.1407,,162.7369,79,4,163.7371,163.7371,164.4525,space,0.7079,,0,2,2,2,1,160,85,,,,,,,,
,,5ec53b28be5c9d2fd7d624f4,65af545bba3c4b3e6931706e,2024-01-23_05h54.00.317,bars,2023.2.3,Win32,142.8571429,657b66ea316d21385b68909f,,,,,,,,,,,164.4527,165.4522,,,165.9521,166.2022,,100,100,,,,,,,,,,,,,,,,bars/006.png,bars/mask001.png,,,,,,,,,,,,9,2,,,,,,,8,10,7,9,,,,,,,,,,,165.4522,165.9521,166.2022,166.9181,space,0.7095,,166.9182,65,0,167.9179,167.9181,168.5568,space,0.6303,,0,3,3,3,1,35,100,,,,,,,,
,,5ec53b28be5c9d2fd7d624f4,65af545bba3c4b3e6931706e,2024-01-23_05h54.00.317,bars,2023.2.3,Win32,142.8571429,657b66ea316d21385b68909f,,,,,,,,,,,168.5571,169.5563,,,170.0563,170.3064,,161,161,,,,,,,,,,,,,,,,bars/043.png,bars/mask005.png,,,,,,,,,,,,0,2,,,,,,,10,8,10,7,,,,,,,,,,,169.5563,170.0563,170.3064,172.0079,space,1.6969,,172.0079,49,31,173.0081,173.0082,173.6955,space,0.6744,,0,4,4,4,1,30,130,,,,,,,,
,,5ec53b28be5c9d2fd7d624f4,65af545bba3c4b3e6931706e,2024-01-23_05h54.00.317,bars,2023.2.3,Win32,142.8571429,657b66ea316d21385b68909f,,,,,,,,,,,173.6957,174.6953,,,175.1953,175.4457,,98,98,,,,,,,,,,,,,,,,bars/019.png,bars/mask006.png,,,,,,,,,,,,4,2,,,,,,,8,6,9,5,,,,,,,,,,,174.6953,175.1953,175.4458,177.64,space,2.1881,,177.64,53,7,178.64,178.6401,178.9594,space,0.3065,,0,5,5,5,1,45,105,,,,,,,,
,,5ec53b28be5c9d2fd7d624f4,65af545bba3c4b3e6931706e,2024-01-23_05h54.00.317,bars,2023.2.3,Win32,142.8571429,657b66ea316d21385b68909f,,,,,,,,,,,178.9598,179.9595,,,180.4597,180.7096,,73,73,,,,,,,,,,,,,,,,bars/007.png,bars/mask009.png,,,,,,,,,,,,2,2,,,,,,,6,4,5,5,,,,,,,,,,,179.9596,180.4596,180.7097,184.3139,space,3.5988,,184.3139,78,18,185.3135,185.3135,185.9385,space,0.6134,,0,6,6,6,1,175,55,,,,,,,,
,,5ec53b28be5c9d2fd7d624f4,65af545bba3c4b3e6931706e,2024-01-23_05h54.00.317,bars,2023.2.3,Win32,142.8571429,657b66ea316d21385b68909f,,,,,,,,,,,185.9388,186.9388,,,187.439,187.6888,,99,99,,,,,,,,,,,,,,,,bars/006.png,bars/mask006.png,,,,,,,,,,,,1,2,,,,,,,8,2,7,1,,,,,,,,,,,186.9389,187.439,187.6889,192.2794,space,4.5863,,192.2795,64,1,193.2789,193.279,195.3696,space,2.0792,,0,7,7,7,1,35,100,,,,,,,,
,,5ec53b28be5c9d2fd7d624f4,65af545bba3c4b3e6931706e,2024-01-23_05h54.00.317,bars,2023.2.3,Win32,142.8571429,657b66ea316d21385b68909f,,,,,,,,,,,195.37,196.3694,,,196.8695,197.1193,,37,217,,,,,,,,,,,,,,,,bars/007.png,bars/mask007.png,,,,,,,,,,,,0,2,,,,,,,6,0,6,0,,,,,,,,,,,196.3694,196.8693,197.1194,201.7026,space,4.5794,,201.7026,42,18,202.7028,202.703,205.5992,space,2.8848,,0,8,8,8,1,175,55,,,,,,,,
,,5ec53b28be5c9d2fd7d624f4,65af545bba3c4b3e6931706e,2024-01-23_05h54.00.317,bars,2023.2.3,Win32,142.8571429,657b66ea316d21385b68909f,,,,,,,,,,,205.5996,206.5985,,,207.0991,207.3489,,21,21,,,,,,,,,,,,,,,,bars/047.png,bars/mask000.png,,,,,,,,,,,,3,1,,,,,,,4,2,4,0,,,,,,,,,,,206.5985,207.099,207.349,209.0713,space,1.7154,,209.0713,6,49,210.0706,210.0706,210.6957,space,0.6182,,0,9,9,9,1,15,70,,,,,,,,
,,5ec53b28be5c9d2fd7d624f4,65af545bba3c4b3e6931706e,2024-01-23_05h54.00.317,bars,2023.2.3,Win32,142.8571429,657b66ea316d21385b68909f,,,,,,,,,,,210.696,211.6959,,,212.1957,212.4461,,145,-35,,,,,,,,,,,,,,,,bars/032.png,bars/mask009.png,,,,,,,,,,,,1,1,,,,,,,2,4,3,4,,,,,,,,,,,211.696,212.1957,212.4462,216.2028,space,3.7502,,216.2028,20,55,217.2026,217.2026,217.7237,space,0.506,,0,10,10,10,1,125,20,,,,,,,,
,,5ec53b28be5c9d2fd7d624f4,65af545bba3c4b3e6931706e,2024-01-23_05h54.00.317,bars,2023.2.3,Win32,142.8571429,657b66ea316d21385b68909f,,,,,,,,,,,217.724,218.7236,,,219.2238,219.4736,,26,206,,,,,,,,,,,,,,,,bars/036.png,bars/mask005.png,,,,,,,,,,,,5,2,,,,,,,4,6,5,6,,,,,,,,,,,218.7236,219.2238,219.4737,224.2378,space,4.7571,,224.2379,61,6,225.2375,225.2375,225.814,space,0.5607,,0,11,11,11,1,145,20,,,,,,,,
,,5ec53b28be5c9d2fd7d624f4,65af545bba3c4b3e6931706e,2024-01-23_05h54.00.317,bars,2023.2.3,Win32,142.8571429,657b66ea316d21385b68909f,,,,,,,,,,,225.8144,226.8139,,,227.3145,227.5641,,4,184,,,,,,,,,,,,,,,,bars/045.png,bars/mask006.png,,,,,,,,,,,,2,2,,,,,,,2,4,3,3,,,,,,,,,,,226.8139,227.3144,227.5641,230.9945,space,3.4248,,230.9946,84,6,231.9947,231.9948,232.5712,space,0.5641,,0,12,12,12,1,100,10,,,,,,,,
,,5ec53b28be5c9d2fd7d624f4,65af545bba3c4b3e6931706e,2024-01-23_05h54.00.317,bars,2023.2.3,Win32,142.8571429,657b66ea316d21385b68909f,,,,,,,,,,,232.5715,233.5709,,,234.071,234.3212,,165,-15,,,,,,,,,,,,,,,,bars/048.png,bars/mask004.png,,,,,,,,,,,,3,2,,,,,,,4,6,2,5,,,,,,,,,,,233.571,234.071,234.3212,236.0433,space,1.7188,,236.0434,65,10,237.0436,237.0436,237.6335,space,0.5758,,0,13,13,13,1,50,175,,,,,,,,
,,5ec53b28be5c9d2fd7d624f4,65af545bba3c4b3e6931706e,2024-01-23_05h54.00.317,bars,2023.2.3,Win32,142.8571429,657b66ea316d21385b68909f,,,,,,,,,,,237.6338,238.634,,,239.1341,239.3838,,97,97,,,,,,,,,,,,,,,,bars/039.png,bars/mask001.png,,,,,,,,,,,,7,2,,,,,,,2,8,2,10,,,,,,,,,,,238.6341,239.134,239.3839,242.217,space,2.8267,,242.217,78,8,243.2172,243.2172,243.537,space,0.3055,,0,14,14,14,1,175,105,,,,,,,,
,,5ec53b28be5c9d2fd7d624f4,65af545bba3c4b3e6931706e,2024-01-23_05h54.00.317,bars,2023.2.3,Win32,142.8571429,657b66ea316d21385b68909f,,,,,,,,,,,243.5375,244.5364,,,245.0364,245.2868,,9,9,,,,,,,,,,,,,,,,bars/013.png,bars/mask004.png,,,,,,,,,,,,5,2,,,,,,,0,6,0,5,,,,,,,,,,,244.5365,245.0364,245.2868,246.9257,space,1.6323,,246.9258,66,1,247.9256,247.9256,248.4184,space,0.4874,,0,15,15,15,1,75,10,,,,,,,,
,,5ec53b28be5c9d2fd7d624f4,65af545bba3c4b3e6931706e,2024-01-23_05h54.00.317,bars,2023.2.3,Win32,142.8571429,657b66ea316d21385b68909f,,,,,,,,,,,248.4187,249.4187,,,249.9183,250.1683,,171,171,,,,,,,,,,,,,,,,bars/033.png,bars/mask007.png,,,,,,,,,,,,1,2,,,,,,,2,4,1,3,,,,,,,,,,,249.4188,249.9183,250.1684,252.4114,space,2.2398,,252.4115,34,16,253.4117,253.4118,253.9324,space,0.5069,,0,16,16,16,1,25,155,,,,,,,,
,,5ec53b28be5c9d2fd7d624f4,65af545bba3c4b3e6931706e,2024-01-23_05h54.00.317,bars,2023.2.3,Win32,142.8571429,657b66ea316d21385b68909f,,,,,,,,,,,253.9327,254.9323,,,255.4328,255.6822,,99,99,,,,,,,,,,,,,,,,bars/002.png,bars/mask007.png,,,,,,,,,,,,3,2,,,,,,,4,6,3,5,,,,,,,,,,,254.9323,255.4328,255.6822,259.9954,space,4.308,,259.9954,31,14,260.995,260.995,262.1201,space,1.11,,0,17,17,17,1,130,85,,,,,,,,
,,5ec53b28be5c9d2fd7d624f4,65af545bba3c4b3e6931706e,2024-01-23_05h54.00.317,bars,2023.2.3,Win32,142.8571429,657b66ea316d21385b68909f,,,,,,,,,,,262.1203,263.1202,,,263.6199,263.8702,,179,179,,,,,,,,,,,,,,,,bars/008.png,bars/mask009.png,,,,,,,,,,,,3,2,,,,,,,2,4,2,3,,,,,,,,,,,263.1202,263.6198,263.8702,265.1899,space,1.3138,,265.19,69,1,266.1893,266.1894,266.4881,space,0.2916,,0,18,18,18,1,110,0,,,,,,,,
,,5ec53b28be5c9d2fd7d624f4,65af545bba3c4b3e6931706e,2024-01-23_05h54.00.317,bars,2023.2.3,Win32,142.8571429,657b66ea316d21385b68909f,,,,,,,,,,,266.4883,267.4882,,,267.9882,268.238,,131,131,,,,,,,,,,,,,,,,bars/011.png,bars/mask006.png,,,,,,,,,,,,0,1,,,,,,,0,2,0,1,,,,,,,,,,,267.4883,267.9882,268.238,271.8427,space,3.5993,,271.8427,29,46,272.8423,272.8423,273.6688,space,0.8125,,0,19,19,19,1,160,85,,,,,,,,
,,5ec53b28be5c9d2fd7d624f4,65af545bba3c4b3e6931706e,2024-01-23_05h54.00.317,bars,2023.2.3,Win32,142.8571429,657b66ea316d21385b68909f,,,,,,,,,,,273.669,274.6687,,,275.1687,275.4191,,94,94,,,,,,,,,,,,,,,,bars/027.png,bars/mask002.png,,,,,,,,,,,,0,1,,,,,,,2,0,1,0,,,,,,,,,,,274.6687,275.1687,275.4191,278.4952,space,3.0712,,278.4952,16,44,279.4952,279.4953,280.1549,space,0.6465,,0,20,20,20,1,110,50,,,,,,,,
,,5ec53b28be5c9d2fd7d624f4,65af545bba3c4b3e6931706e,2024-01-23_05h54.00.317,bars,2023.2.3,Win32,142.8571429,657b66ea316d21385b68909f,,,,,,,,,,,280.1553,281.155,,,281.6547,281.9047,,143,143,,,,,,,,,,,,,,,,bars/042.png,bars/mask009.png,,,,,,,,,,,,0,1,,,,,,,0,2,0,3,,,,,,,,,,,281.1551,281.6547,281.9047,284.0302,space,2.118,,284.0303,2,68,285.0302,285.0303,286.6758,space,1.6328,,0,21,21,21,1,145,75,,,,,,,,
,,5ec53b28be5c9d2fd7d624f4,65af545bba3c4b3e6931706e,2024-01-23_05h54.00.317,bars,2023.2.3,Win32,142.8571429,657b66ea316d21385b68909f,,,,,,,,,,,286.6761,287.6759,,,288.1763,288.4262,,94,94,,,,,,,,,,,,,,,,bars/001.png,bars/mask002.png,,,,,,,,,,,,1,2,,,,,,,0,0,0,2,,,,,,,,,,,287.6759,288.1762,288.4263,290.1273,space,1.6943,,290.1273,36,9,291.1274,291.1275,291.7042,space,0.5628,,0,22,22,22,1,130,85,,,,,,,,
,,5ec53b28be5c9d2fd7d624f4,65af545bba3c4b3e6931706e,2024-01-23_05h54.00.317,bars,2023.2.3,Win32,142.8571429,657b66ea316d21385b68909f,,,,,,,,,,,291.7046,292.7049,,,293.2049,293.4542,,8,188,,,,,,,,,,,,,,,,bars/014.png,bars/mask001.png,,,,,,,,,,,,1,2,,,,,,,0,0,2,1,,,,,,,,,,,292.7049,293.2049,293.4542,298.0312,space,4.5751,,298.0312,72,8,299.0308,299.0308,299.5308,space,0.489,,0,23,23,23,1,80,0,,,,,,,,
,,5ec53b28be5c9d2fd7d624f4,65af545bba3c4b3e6931706e,2024-01-23_05h54.00.317,bars,2023.2.3,Win32,142.8571429,657b66ea316d21385b68909f,,,,,,,,,,,299.5311,300.5311,,,301.0304,301.2803,,43,43,,,,,,,,,,,,,,,,bars/025.png,bars/mask002.png,,,,,,,,,,,,2,2,,,,,,,0,0,0,2,,,,,,,,,,,300.5311,301.0303,301.2803,302.5162,space,1.2334,,302.5163,62,3,303.5166,303.5166,303.8566,space,0.3357,,0,24,24,24,1,105,40,,,,,,,,
,,5ec53b28be5c9d2fd7d624f4,65af545bba3c4b3e6931706e,2024-01-23_05h54.00.317,bars,2023.2.3,Win32,142.8571429,657b66ea316d21385b68909f,,,,,,,,,,,303.8569,304.8567,,,305.357,305.6064,,15,195,,,,,,,,,,,,,,,,bars/014.png,bars/mask002.png,,,,,,,,,,,,0,2,,,,,,,0,0,0,0,,,,,,,,,,,304.8568,305.3569,305.6064,308.9121,space,3.304,,308.9121,65,15,309.9121,309.9121,310.4607,space,0.5364,,0,25,25,25,1,80,0,,,,,,,,
,,5ec53b28be5c9d2fd7d624f4,65af545bba3c4b3e6931706e,2024-01-23_05h54.00.317,bars,2023.2.3,Win32,142.8571429,657b66ea316d21385b68909f,,,,,,,,,,,310.461,311.4611,,,311.9608,312.2106,,156,156,,,,,,,,,,,,,,,,bars/036.png,bars/mask001.png,,,,,,,,,,,,2,1,,,,,,,2,0,3,0,,,,,,,,,,,311.4612,311.9607,312.2106,316.7391,space,4.5207,,316.7391,11,44,317.7386,317.7387,318.315,space,0.56,,0,26,26,26,1,145,20,,,,,,,,
,,5ec53b28be5c9d2fd7d624f4,65af545bba3c4b3e6931706e,2024-01-23_05h54.00.317,bars,2023.2.3,Win32,142.8571429,657b66ea316d21385b68909f,,,,,,,,,,,318.3153,319.3154,,,319.8153,320.0653,,9,9,,,,,,,,,,,,,,,,bars/014.png,bars/mask004.png,,,,,,,,,,,,1,2,,,,,,,4,2,5,1,,,,,,,,,,,319.3154,319.8152,320.0654,321.4471,space,1.3778,,321.4471,71,9,322.4469,322.4469,322.8776,space,0.422,,0,27,27,27,1,80,0,,,,,,,,
,,5ec53b28be5c9d2fd7d624f4,65af545bba3c4b3e6931706e,2024-01-23_05h54.00.317,bars,2023.2.3,Win32,142.8571429,657b66ea316d21385b68909f,,,,,,,,,,,322.8779,323.8777,,,324.3781,324.628,,171,171,,,,,,,,,,,,,,,,bars/009.png,bars/mask004.png,,,,,,,,,,,,1,1,,,,,,,6,4,7,4,,,,,,,,,,,323.8778,324.378,324.6281,327.4956,space,2.8603,,327.4956,24,66,328.496,328.496,328.9961,space,0.4794,,0,28,28,28,1,15,105,,,,,,,,
,,5ec53b28be5c9d2fd7d624f4,65af545bba3c4b3e6931706e,2024-01-23_05h54.00.317,bars,2023.2.3,Win32,142.8571429,657b66ea316d21385b68909f,,,,,,,,,,,328.9966,329.9956,,,330.4964,330.746,,163,163,,,,,,,,,,,,,,,,bars/049.png,bars/mask005.png,,,,,,,,,,,,4,1,,,,,,,4,2,4,3,,,,,,,,,,,329.9956,330.4963,330.7461,335.8568,space,5.1049,,335.8568,3,48,336.8572,336.8573,337.3226,space,0.4507,,0,29,29,29,1,160,115,,,,,,,,
,,5ec53b28be5c9d2fd7d624f4,65af545bba3c4b3e6931706e,2024-01-23_05h54.00.317,bars,2023.2.3,Win32,142.8571429,657b66ea316d21385b68909f,,,,,,,,,,,337.323,338.3221,,,338.8224,339.072,,101,101,,,,,,,,,,,,,,,,bars/015.png,bars/mask002.png,,,,,,,,,,,,6,1,,,,,,,6,0,8,0,,,,,,,,,,,338.3221,338.8223,339.0721,340.8361,space,1.7578,,340.8362,9,59,341.8359,341.836,342.2805,space,0.4372,,0,30,30,30,1,110,160,,,,,,,,
,,5ec53b28be5c9d2fd7d624f4,65af545bba3c4b3e6931706e,2024-01-23_05h54.00.317,bars,2023.2.3,Win32,142.8571429,657b66ea316d21385b68909f,,,,,,,,,,,342.2807,343.2805,,,343.7807,344.0309,,162,162,,,,,,,,,,,,,,,,bars/046.png,bars/mask008.png,,,,,,,,,,,,4,1,,,,,,,4,2,5,3,,,,,,,,,,,343.2805,343.7807,344.0309,347.093,space,3.0549,,347.0931,7,77,348.0934,348.0934,348.6768,space,0.5671,,0,31,31,31,1,155,85,,,,,,,,
,,5ec53b28be5c9d2fd7d624f4,65af545bba3c4b3e6931706e,2024-01-23_05h54.00.317,bars,2023.2.3,Win32,142.8571429,657b66ea316d21385b68909f,,,,,,,,,,,348.6773,349.6765,,,350.1766,350.4264,,123,123,,,,,,,,,,,,,,,,bars/017.png,bars/mask000.png,,,,,,,,,,,,0,1,,,,,,,2,4,1,4,,,,,,,,,,,349.6765,350.1766,350.4265,353.3575,space,2.9291,,353.3576,22,78,354.357,354.357,354.6349,space,0.2663,,0,32,32,32,1,145,45,,,,,,,,
,,5ec53b28be5c9d2fd7d624f4,65af545bba3c4b3e6931706e,2024-01-23_05h54.00.317,bars,2023.2.3,Win32,142.8571429,657b66ea316d21385b68909f,,,,,,,,,,,354.6351,355.6352,,,356.135,356.3848,,144,144,,,,,,,,,,,,,,,,bars/038.png,bars/mask009.png,,,,,,,,,,,,1,1,,,,,,,4,2,4,1,,,,,,,,,,,355.6352,356.135,356.3848,360.35,space,3.9632,,360.3501,21,74,361.3506,361.3506,361.8015,space,0.4379,,0,33,33,33,1,165,70,,,,,,,,
,,5ec53b28be5c9d2fd7d624f4,65af545bba3c4b3e6931706e,2024-01-23_05h54.00.317,bars,2023.2.3,Win32,142.8571429,657b66ea316d21385b68909f,,,,,,,,,,,361.8017,362.8015,,,363.3019,363.5518,,36,36,,,,,,,,,,,,,,,,bars/000.png,bars/mask000.png,,,,,,,,,,,,3,1,,,,,,,2,4,4,5,,,,,,,,,,,362.8015,363.3019,363.5518,365.5867,space,2.0306,,365.5868,4,71,366.5867,366.5868,367.2741,space,0.6734,,0,34,34,34,1,40,145,,,,,,,,
,,5ec53b28be5c9d2fd7d624f4,65af545bba3c4b3e6931706e,2024-01-23_05h54.00.317,bars,2023.2.3,Win32,142.8571429,657b66ea316d21385b68909f,,,,,,,,,,,367.2743,368.2741,,,368.7738,369.0242,,167,167,,,,,,,,,,,,,,,,bars/049.png,bars/mask008.png,,,,,,,,,,,,4,1,,,,,,,4,6,5,6,,,,,,,,,,,368.2742,368.7737,369.0242,371.399,space,2.3678,,371.399,7,52,372.399,372.3991,372.6147,space,0.2077,,0,35,35,35,1,160,115,,,,,,,,
,,5ec53b28be5c9d2fd7d624f4,65af545bba3c4b3e6931706e,2024-01-23_05h54.00.317,bars,2023.2.3,Win32,142.8571429,657b66ea316d21385b68909f,,,,,,,,,,,372.6151,373.6141,,,374.1142,374.3641,,115,115,,,,,,,,,,,,,,,,bars/037.png,bars/mask008.png,,,,,,,,,,,,3,2,,,,,,,6,4,6,4,,,,,,,,,,,373.6141,374.1141,374.3641,376.6007,space,2.2307,,376.6007,35,10,377.6007,377.6007,377.892,space,0.2772,,0,36,36,36,1,150,105,,,,,,,,
,,5ec53b28be5c9d2fd7d624f4,65af545bba3c4b3e6931706e,2024-01-23_05h54.00.317,bars,2023.2.3,Win32,142.8571429,657b66ea316d21385b68909f,,,,,,,,,,,377.8923,378.892,,,379.3923,379.6422,,129,129,,,,,,,,,,,,,,,,bars/020.png,bars/mask002.png,,,,,,,,,,,,5,1,,,,,,,8,2,9,2,,,,,,,,,,,378.892,379.3923,379.6423,379.8088,space,0.1613,,379.8088,14,41,380.809,380.8091,380.9616,space,0.1429,,0,37,37,37,1,115,170,,,,,,,,
,,5ec53b28be5c9d2fd7d624f4,65af545bba3c4b3e6931706e,2024-01-23_05h54.00.317,bars,2023.2.3,Win32,142.8571429,657b66ea316d21385b68909f,,,,,,,,,,,380.962,381.9615,,,382.4614,382.7115,,79,79,,,,,,,,,,,,,,,,bars/016.png,bars/mask009.png,,,,,,,,,,,,0,1,,,,,,,10,4,7,4,,,,,,,,,,,381.9615,382.4614,382.7115,382.8435,space,0.1294,,382.8435,39,86,383.8435,383.8436,383.9546,space,0.1043,,0,38,38,38,1,40,165,,,,,,,,
,,5ec53b28be5c9d2fd7d624f4,65af545bba3c4b3e6931706e,2024-01-23_05h54.00.317,bars,2023.2.3,Win32,142.8571429,657b66ea316d21385b68909f,,,,,,,,,,,383.9548,384.9548,,,385.4549,385.7045,,91,91,,,,,,,,,,,,,,,,bars/045.png,bars/mask006.png,,,,,,,,,,,,7,1,,,,,,,10,6,10,5,,,,,,,,,,,384.9549,385.4549,385.7045,385.8781,space,0.169,,385.8782,9,81,386.8789,386.879,387.3513,space,0.4652,,0,39,39,39,1,100,10,,,,,,,,
,,5ec53b28be5c9d2fd7d624f4,65af545bba3c4b3e6931706e,2024-01-23_05h54.00.317,bars,2023.2.3,Win32,142.8571429,657b66ea316d21385b68909f,,,,,,,,,,,387.3516,388.3513,,,388.8515,389.1014,,41,41,,,,,,,,,,,,,,,,bars/016.png,bars/mask000.png,,,,,,,,,,,,10,1,,,,,,,8,4,10,4,,,,,,,,,,,388.3513,388.8515,389.1014,389.1787,space,0.0737,,389.1787,1,56,390.1844,390.1844,391.2052,space,1.0137,,0,40,40,40,1,40,165,,,,,,,,
,,5ec53b28be5c9d2fd7d624f4,65af545bba3c4b3e6931706e,2024-01-23_05h54.00.317,bars,2023.2.3,Win32,142.8571429,657b66ea316d21385b68909f,,,,,,,,,,,391.2056,392.2047,,,392.705,392.955,,16,16,,,,,,,,,,,,,,,,bars/005.png,bars/mask001.png,,,,,,,,,,,,8,1,,,,,,,10,2,10,2,,,,,,,,,,,392.2047,392.705,392.9551,393.212,space,0.2503,,393.2121,6,56,394.2116,394.2116,394.6146,space,0.3979,,0,41,41,41,1,10,140,,,,,,,,
,,5ec53b28be5c9d2fd7d624f4,65af545bba3c4b3e6931706e,2024-01-23_05h54.00.317,bars,2023.2.3,Win32,142.8571429,657b66ea316d21385b68909f,,,,,,,,,,,394.6149,395.6144,,,396.1149,396.3648,,8,8,,,,,,,,,,,,,,,,bars/016.png,bars/mask003.png,,,,,,,,,,,,0,2,,,,,,,10,0,10,0,,,,,,,,,,,395.6144,396.1149,396.3648,396.7398,space,0.3685,,396.7399,32,23,397.7398,397.7399,397.9686,space,0.2188,,0,42,42,42,1,40,165,,,,,,,,
,,5ec53b28be5c9d2fd7d624f4,65af545bba3c4b3e6931706e,2024-01-23_05h54.00.317,bars,2023.2.3,Win32,142.8571429,657b66ea316d21385b68909f,,,,,,,,,,,397.9688,398.9689,,,399.4689,399.719,,80,80,,,,,,,,,,,,,,,,bars/037.png,bars/mask000.png,,,,,,,,,,,,0,2,,,,,,,8,0,8,1,,,,,,,,,,,398.9689,399.4689,399.719,399.9201,space,0.1979,,399.9201,70,25,400.9204,400.9204,401.4622,space,0.5333,,0,43,43,43,1,150,105,,,,,,,,
,,5ec53b28be5c9d2fd7d624f4,65af545bba3c4b3e6931706e,2024-01-23_05h54.00.317,bars,2023.2.3,Win32,142.8571429,657b66ea316d21385b68909f,,,,,,,,,,,401.4627,402.4616,,,402.9621,403.2119,,167,167,,,,,,,,,,,,,,,,bars/000.png,bars/mask004.png,,,,,,,,,,,,0,2,,,,,,,10,2,10,0,,,,,,,,,,,402.4617,402.962,403.2119,404.0796,space,0.8632,,404.0796,53,22,405.0799,405.08,405.3304,space,0.2417,,0,44,44,44,1,40,145,,,,,,,,
,,5ec53b28be5c9d2fd7d624f4,65af545bba3c4b3e6931706e,2024-01-23_05h54.00.317,bars,2023.2.3,Win32,142.8571429,657b66ea316d21385b68909f,,,,,,,,,,,405.3308,406.3297,,,406.8298,407.0798,,153,153,,,,,,,,,,,,,,,,bars/049.png,bars/mask004.png,,,,,,,,,,,,8,1,,,,,,,10,4,10,4,,,,,,,,,,,406.3297,406.8298,407.0798,408.4343,space,1.3492,,408.4343,7,38,409.4343,409.4344,409.6701,space,0.2312,,0,45,45,45,1,160,115,,,,,,,,
,,5ec53b28be5c9d2fd7d624f4,65af545bba3c4b3e6931706e,2024-01-23_05h54.00.317,bars,2023.2.3,Win32,142.8571429,657b66ea316d21385b68909f,,,,,,,,,,,409.6704,410.6701,,,411.17,411.4207,,99,99,,,,,,,,,,,,,,,,bars/030.png,bars/mask000.png,,,,,,,,,,,,0,2,,,,,,,8,6,9,5,,,,,,,,,,,410.6701,411.17,411.4207,412.0525,space,0.6278,,412.0527,41,34,413.0523,413.0524,413.2674,space,0.2094,,0,46,46,46,1,140,65,,,,,,,,
,,5ec53b28be5c9d2fd7d624f4,65af545bba3c4b3e6931706e,2024-01-23_05h54.00.317,bars,2023.2.3,Win32,142.8571429,657b66ea316d21385b68909f,,,,,,,,,,,413.2676,414.2674,,,414.7674,415.0175,,19,19,,,,,,,,,,,,,,,,bars/048.png,bars/mask001.png,,,,,,,,,,,,2,2,,,,,,,10,8,9,8,,,,,,,,,,,414.2674,414.7673,415.0175,416.0176,space,0.9937,,416.0176,31,24,417.0174,417.0174,417.3439,space,0.3185,,0,47,47,47,1,50,175,,,,,,,,
,,5ec53b28be5c9d2fd7d624f4,65af545bba3c4b3e6931706e,2024-01-23_05h54.00.317,bars,2023.2.3,Win32,142.8571429,657b66ea316d21385b68909f,,,,,,,,,,,417.3442,418.3438,,,418.8437,419.0938,,9,9,,,,,,,,,,,,,,,,bars/025.png,bars/mask000.png,,,,,,,,,,,,0,2,,,,,,,10,6,10,7,,,,,,,,,,,418.3438,418.8437,419.0938,419.7402,space,0.6405,,419.7402,84,31,420.7395,420.7395,421.0736,space,0.3273,,0,48,48,48,1,105,40,,,,,,,,
,,5ec53b28be5c9d2fd7d624f4,65af545bba3c4b3e6931706e,2024-01-23_05h54.00.317,bars,2023.2.3,Win32,142.8571429,657b66ea316d21385b68909f,,,,,,,,,,,421.0738,422.0728,,,422.5731,422.823,,67,67,,,,,,,,,,,,,,,,bars/011.png,bars/mask009.png,,,,,,,,,,,,4,2,,,,,,,8,8,9,9,,,,,,,,,,,422.0728,422.5731,422.8231,424.136,space,1.3065,,424.1362,87,18,425.1359,425.1359,425.3446,space,0.2,,0,49,49,49,1,160,85,,,,,,,,
,,5ec53b28be5c9d2fd7d624f4,65af545bba3c4b3e6931706e,2024-01-23_05h54.00.317,bars,2023.2.3,Win32,142.8571429,657b66ea316d21385b68909f,,,,,,,,,,,,,,,,,,,,,,,,,,,,,,,,,,,,,,,,,,,,,,,,,,,,,,,,,,,,,,,,,,,,,,,,,,,,,,,,,,,,,,,,,,,,,425.3452,488.8274,0,0,0,2,1,sequence_tables/blk038.csv
,,5ec53b28be5c9d2fd7d624f4,65af545bba3c4b3e6931706e,2024-01-23_05h54.00.317,bars,2023.2.3,Win32,142.8571429,657b66ea316d21385b68909f,,,,,,,,,,,489.7036,490.6988,,,491.1991,491.4488,,118,118,,,,,,,,,,,,,,,,bars/004.png,bars/mask002.png,,,,,,,,,,,,4,2,,,,,,,8,4,8,5,,,,,,488.8426,489.6989,space,0.8311,,490.6989,491.1991,491.449,491.9908,space,0.5356,,491.9909,87,7,492.9908,492.9908,492.9916,,,,0,0,0,0,1,25,125,,,,,,,,
,,5ec53b28be5c9d2fd7d624f4,65af545bba3c4b3e6931706e,2024-01-23_05h54.00.317,bars,2023.2.3,Win32,142.8571429,657b66ea316d21385b68909f,,,,,,,,,,,492.992,493.9907,,,494.4909,494.7404,,18,18,,,,,,,,,,,,,,,,bars/013.png,bars/mask008.png,,,,,,,,,,,,6,2,,,,,,,10,6,10,8,,,,,,,,,,,493.9909,494.4908,494.7404,499.2062,space,4.4594,,499.2062,57,8,500.2061,500.2061,500.2165,,,,0,1,1,1,1,75,10,,,,,,,,
,,5ec53b28be5c9d2fd7d624f4,65af545bba3c4b3e6931706e,2024-01-23_05h54.00.317,bars,2023.2.3,Win32,142.8571429,657b66ea316d21385b68909f,,,,,,,,,,,500.2167,501.2131,,,501.7127,501.9631,,79,79,,,,,,,,,,,,,,,,bars/015.png,bars/mask009.png,,,,,,,,,,,,0,1,,,,,,,10,4,10,5,,,,,,,,,,,501.2132,501.7127,501.9631,503.0951,space,1.1251,,503.0951,31,81,504.095,504.095,504.0966,,,,0,2,2,2,1,110,160,,,,,,,,
,,5ec53b28be5c9d2fd7d624f4,65af545bba3c4b3e6931706e,2024-01-23_05h54.00.317,bars,2023.2.3,Win32,142.8571429,657b66ea316d21385b68909f,,,,,,,,,,,504.0967,505.0948,,,505.5949,505.845,,121,121,,,,,,,,,,,,,,,,bars/024.png,bars/mask001.png,,,,,,,,,,,,8,1,,,,,,,8,6,8,5,,,,,,,,,,,505.0949,505.5949,505.8451,508.0323,space,2.1837,,508.0323,1,49,509.0325,509.0326,509.0393,,,,0,3,3,3,1,120,170,,,,,,,,
,,5ec53b28be5c9d2fd7d624f4,65af545bba3c4b3e6931706e,2024-01-23_05h54.00.317,bars,2023.2.3,Win32,142.8571429,657b66ea316d21385b68909f,,,,,,,,,,,509.0393,510.0395,,,510.5394,510.7893,,50,50,,,,,,,,,,,,,,,,bars/002.png,bars/mask003.png,,,,,,,,,,,,0,2,,,,,,,10,8,10,9,,,,,,,,,,,510.0395,510.5394,510.7893,511.3036,space,0.508,,511.3036,80,35,512.3032,512.3032,512.3045,,,,0,4,4,4,1,130,85,,,,,,,,
,,5ec53b28be5c9d2fd7d624f4,65af545bba3c4b3e6931706e,2024-01-23_05h54.00.317,bars,2023.2.3,Win32,142.8571429,657b66ea316d21385b68909f,,,,,,,,,,,512.3046,513.3031,,,513.8034,514.0534,,135,135,,,,,,,,,,,,,,,,bars/025.png,bars/mask005.png,,,,,,,,,,,,0,1,,,,,,,8,10,8,10,,,,,,,,,,,513.3031,513.8033,514.0534,514.2753,space,0.2156,,514.2754,30,85,515.2754,515.2754,515.2765,,,,0,5,5,5,1,105,40,,,,,,,,
,,5ec53b28be5c9d2fd7d624f4,65af545bba3c4b3e6931706e,2024-01-23_05h54.00.317,bars,2023.2.3,Win32,142.8571429,657b66ea316d21385b68909f,,,,,,,,,,,515.2767,516.2757,,,516.7757,517.0257,,78,78,,,,,,,,,,,,,,,,bars/007.png,bars/mask002.png,,,,,,,,,,,,2,2,,,,,,,10,10,10,10,,,,,,,,,,,516.2757,516.7757,517.0258,517.1508,space,0.1184,,517.1508,83,23,518.1506,518.1506,518.1521,,,,0,6,6,6,1,175,55,,,,,,,,
,,5ec53b28be5c9d2fd7d624f4,65af545bba3c4b3e6931706e,2024-01-23_05h54.00.317,bars,2023.2.3,Win32,142.8571429,657b66ea316d21385b68909f,,,,,,,,,,,518.1521,519.1504,,,519.6503,519.9007,,43,43,,,,,,,,,,,,,,,,bars/016.png,bars/mask007.png,,,,,,,,,,,,6,1,,,,,,,8,10,7,10,,,,,,,,,,,519.1504,519.6503,519.9007,519.9911,space,0.0864,,519.9911,3,58,520.991,520.991,520.9924,,,,0,7,7,7,1,40,165,,,,,,,,
,,5ec53b28be5c9d2fd7d624f4,65af545bba3c4b3e6931706e,2024-01-23_05h54.00.317,bars,2023.2.3,Win32,142.8571429,657b66ea316d21385b68909f,,,,,,,,,,,520.9925,521.991,,,522.491,522.7407,,84,84,,,,,,,,,,,,,,,,bars/018.png,bars/mask008.png,,,,,,,,,,,,8,2,,,,,,,6,10,6,10,,,,,,,,,,,521.991,522.4909,522.7407,522.9494,space,0.2026,,522.9494,66,6,523.9493,523.9493,523.9506,,,,0,8,8,8,1,150,90,,,,,,,,
,,5ec53b28be5c9d2fd7d624f4,65af545bba3c4b3e6931706e,2024-01-23_05h54.00.317,bars,2023.2.3,Win32,142.8571429,657b66ea316d21385b68909f,,,,,,,,,,,523.9508,524.9493,,,525.4493,525.6994,,112,112,,,,,,,,,,,,,,,,bars/019.png,bars/mask003.png,,,,,,,,,,,,6,2,,,,,,,8,8,8,8,,,,,,,,,,,524.9493,525.4493,525.6994,525.7758,space,0.0732,,525.7758,67,7,526.7755,526.7755,526.776,,,,0,9,9,9,1,45,105,,,,,,,,
,,5ec53b28be5c9d2fd7d624f4,65af545bba3c4b3e6931706e,2024-01-23_05h54.00.317,bars,2023.2.3,Win32,142.8571429,657b66ea316d21385b68909f,,,,,,,,,,,526.7762,527.7755,,,528.2759,528.5258,,109,109,,,,,,,,,,,,,,,,bars/024.png,bars/mask000.png,,,,,,,,,,,,3,1,,,,,,,6,10,4,10,,,,,,,,,,,527.7755,528.2758,528.5259,528.6023,space,0.07,,528.6023,11,61,529.6019,529.6019,529.6031,,,,0,10,10,10,1,120,170,,,,,,,,
,,5ec53b28be5c9d2fd7d624f4,65af545bba3c4b3e6931706e,2024-01-23_05h54.00.317,bars,2023.2.3,Win32,142.8571429,657b66ea316d21385b68909f,,,,,,,,,,,529.6032,530.6019,,,531.1019,531.352,,152,152,,,,,,,,,,,,,,,,bars/020.png,bars/mask005.png,,,,,,,,,,,,4,2,,,,,,,4,8,3,10,,,,,,,,,,,530.6019,531.1019,531.352,531.4145,space,0.0558,,531.4145,37,18,532.4143,532.4143,532.4158,,,,0,11,11,11,1,115,170,,,,,,,,
,,5ec53b28be5c9d2fd7d624f4,65af545bba3c4b3e6931706e,2024-01-23_05h54.00.317,bars,2023.2.3,Win32,142.8571429,657b66ea316d21385b68909f,,,,,,,,,,,532.4159,533.4146,,,533.9147,534.1647,,107,107,,,,,,,,,,,,,,,,bars/007.png,bars/mask006.png,,,,,,,,,,,,0,2,,,,,,,6,6,6,5,,,,,,,,,,,533.4146,533.9147,534.1647,534.1993,space,0.0282,,534.1993,68,52,535.1991,535.1992,535.1996,,,,0,12,12,12,1,175,55,,,,,,,,
,,5ec53b28be5c9d2fd7d624f4,65af545bba3c4b3e6931706e,2024-01-23_05h54.00.317,bars,2023.2.3,Win32,142.8571429,657b66ea316d21385b68909f,,,,,,,,,,,535.1998,536.1994,,,536.6993,536.9493,,133,133,,,,,,,,,,,,,,,,bars/011.png,bars/mask006.png,,,,,,,,,,,,1,1,,,,,,,8,8,7,7,,,,,,,,,,,536.1994,536.6993,536.9493,537.1439,space,0.1904,,537.1439,27,48,538.144,538.144,538.1455,,,,0,13,13,13,1,160,85,,,,,,,,
,,5ec53b28be5c9d2fd7d624f4,65af545bba3c4b3e6931706e,2024-01-23_05h54.00.317,bars,2023.2.3,Win32,142.8571429,657b66ea316d21385b68909f,,,,,,,,,,,538.1457,539.1436,,,539.6437,539.894,,80,80,,,,,,,,,,,,,,,,bars/011.png,bars/mask007.png,,,,,,,,,,,,8,2,,,,,,,6,10,6,10,,,,,,,,,,,539.1437,539.6437,539.8941,539.9843,space,0.0837,,539.9843,80,5,540.9842,540.9842,540.9855,,,,0,14,14,14,1,160,85,,,,,,,,
,,5ec53b28be5c9d2fd7d624f4,65af545bba3c4b3e6931706e,2024-01-23_05h54.00.317,bars,2023.2.3,Win32,142.8571429,657b66ea316d21385b68909f,,,,,,,,,,,540.9857,541.984,,,542.4839,542.734,,136,136,,,,,,,,,,,,,,,,bars/029.png,bars/mask000.png,,,,,,,,,,,,0,1,,,,,,,4,10,5,10,,,,,,,,,,,541.984,542.4839,542.734,542.9006,space,0.1599,,542.9006,46,89,543.901,543.901,543.9024,,,,0,15,15,15,1,90,45,,,,,,,,
,,5ec53b28be5c9d2fd7d624f4,65af545bba3c4b3e6931706e,2024-01-23_05h54.00.317,bars,2023.2.3,Win32,142.8571429,657b66ea316d21385b68909f,,,,,,,,,,,543.9026,544.901,,,545.4008,545.651,,13,13,,,,,,,,,,,,,,,,bars/000.png,bars/mask003.png,,,,,,,,,,,,0,1,,,,,,,2,8,3,7,,,,,,,,,,,544.901,545.4008,545.651,545.7136,space,0.0559,,545.7136,27,48,546.7132,546.7132,546.7136,,,,0,16,16,16,1,40,145,,,,,,,,
,,5ec53b28be5c9d2fd7d624f4,65af545bba3c4b3e6931706e,2024-01-23_05h54.00.317,bars,2023.2.3,Win32,142.8571429,657b66ea316d21385b68909f,,,,,,,,,,,546.7138,547.7131,,,548.2134,548.4636,,161,161,,,,,,,,,,,,,,,,bars/023.png,bars/mask009.png,,,,,,,,,,,,0,1,,,,,,,4,6,4,7,,,,,,,,,,,547.7132,548.2134,548.4636,548.6299,space,0.16,,548.63,39,46,549.6301,549.6301,549.6309,,,,0,17,17,17,1,20,115,,,,,,,,
,,5ec53b28be5c9d2fd7d624f4,65af545bba3c4b3e6931706e,2024-01-23_05h54.00.317,bars,2023.2.3,Win32,142.8571429,657b66ea316d21385b68909f,,,,,,,,,,,549.6311,550.6299,,,551.1299,551.3799,,13,13,,,,,,,,,,,,,,,,bars/036.png,bars/mask006.png,,,,,,,,,,,,4,2,,,,,,,6,4,6,5,,,,,,,,,,,550.6299,551.1299,551.3799,551.5814,space,0.195,,551.5814,48,7,552.5816,552.5816,552.583,,,,0,18,18,18,1,145,20,,,,,,,,
,,5ec53b28be5c9d2fd7d624f4,65af545bba3c4b3e6931706e,2024-01-23_05h54.00.317,bars,2023.2.3,Win32,142.8571429,657b66ea316d21385b68909f,,,,,,,,,,,552.5832,553.5816,,,554.0817,554.3315,,31,31,,,,,,,,,,,,,,,,bars/048.png,bars/mask006.png,,,,,,,,,,,,1,1,,,,,,,4,2,3,3,,,,,,,,,,,553.5816,554.0817,554.3315,554.4702,space,0.1328,,554.4704,19,36,555.4703,555.4703,555.4714,,,,0,19,19,19,1,50,175,,,,,,,,
,,5ec53b28be5c9d2fd7d624f4,65af545bba3c4b3e6931706e,2024-01-23_05h54.00.317,bars,2023.2.3,Win32,142.8571429,657b66ea316d21385b68909f,,,,,,,,,,,555.4715,556.4702,,,556.9703,557.2202,,59,59,,,,,,,,,,,,,,,,bars/021.png,bars/mask007.png,,,,,,,,,,,,0,2,,,,,,,2,0,1,0,,,,,,,,,,,556.4702,556.9702,557.2202,557.2341,space,0.0074,,557.2341,84,11,558.2344,558.2345,558.236,,,,0,20,20,20,1,155,70,,,,,,,,
,,5ec53b28be5c9d2fd7d624f4,65af545bba3c4b3e6931706e,2024-01-23_05h54.00.317,bars,2023.2.3,Win32,142.8571429,657b66ea316d21385b68909f,,,,,,,,,,,558.2362,559.2342,,,559.7352,559.9841,,54,54,,,,,,,,,,,,,,,,bars/002.png,bars/mask009.png,,,,,,,,,,,,0,2,,,,,,,4,0,5,0,,,,,,,,,,,559.2342,559.7352,559.9841,560.1443,space,0.1537,,560.1443,76,31,561.1441,561.1441,561.1446,,,,0,21,21,21,1,130,85,,,,,,,,
,,5ec53b28be5c9d2fd7d624f4,65af545bba3c4b3e6931706e,2024-01-23_05h54.00.317,bars,2023.2.3,Win32,142.8571429,657b66ea316d21385b68909f,,,,,,,,,,,561.1448,562.1441,,,562.644,562.8939,,78,78,,,,,,,,,,,,,,,,bars/008.png,bars/mask005.png,,,,,,,,,,,,0,1,,,,,,,6,0,5,0,,,,,,,,,,,562.1443,562.644,562.8939,562.9843,space,0.0887,,562.9843,32,78,563.9841,563.9842,563.9854,,,,0,22,22,22,1,110,0,,,,,,,,
,,5ec53b28be5c9d2fd7d624f4,65af545bba3c4b3e6931706e,2024-01-23_05h54.00.317,bars,2023.2.3,Win32,142.8571429,657b66ea316d21385b68909f,,,,,,,,,,,563.9855,564.9842,,,565.4846,565.7345,,40,40,,,,,,,,,,,,,,,,bars/049.png,bars/mask000.png,,,,,,,,,,,,0,1,,,,,,,8,0,8,0,,,,,,,,,,,564.9842,565.4845,565.7345,565.9152,space,0.1756,,565.9152,60,75,566.9147,566.9147,566.9153,,,,0,23,23,23,1,160,115,,,,,,,,
,,5ec53b28be5c9d2fd7d624f4,65af545bba3c4b3e6931706e,2024-01-23_05h54.00.317,bars,2023.2.3,Win32,142.8571429,657b66ea316d21385b68909f,,,,,,,,,,,566.9155,567.9148,,,568.4151,568.6651,,108,108,,,,,,,,,,,,,,,,bars/048.png,bars/mask004.png,,,,,,,,,,,,0,1,,,,,,,10,0,10,2,,,,,,,,,,,567.9148,568.4151,568.6651,568.7204,space,0.0535,,568.7205,58,67,569.7206,569.7206,569.7213,,,,0,24,24,24,1,50,175,,,,,,,,
,,5ec53b28be5c9d2fd7d624f4,65af545bba3c4b3e6931706e,2024-01-23_05h54.00.317,bars,2023.2.3,Win32,142.8571429,657b66ea316d21385b68909f,,,,,,,,,,,569.7216,570.7204,,,571.2204,571.4704,,127,127,,,,,,,,,,,,,,,,bars/016.png,bars/mask007.png,,,,,,,,,,,,0,2,,,,,,,10,2,10,3,,,,,,,,,,,570.7204,571.2204,571.4704,571.6719,space,0.1948,,571.6719,87,38,572.6718,572.6718,572.6731,,,,0,25,25,25,1,40,165,,,,,,,,
,,5ec53b28be5c9d2fd7d624f4,65af545bba3c4b3e6931706e,2024-01-23_05h54.00.317,bars,2023.2.3,Win32,142.8571429,657b66ea316d21385b68909f,,,,,,,,,,,572.6733,573.672,,,574.1722,574.4217,,105,105,,,,,,,,,,,,,,,,bars/025.png,bars/mask005.png,,,,,,,,,,,,7,1,,,,,,,8,4,7,3,,,,,,,,,,,573.672,574.1721,574.4218,578.5052,space,4.0812,,578.5052,0,65,579.5052,579.5052,579.5122,,,,0,26,26,26,1,105,40,,,,,,,,
,,5ec53b28be5c9d2fd7d624f4,65af545bba3c4b3e6931706e,2024-01-23_05h54.00.317,bars,2023.2.3,Win32,142.8571429,657b66ea316d21385b68909f,,,,,,,,,,,579.5123,580.5122,,,581.0125,581.2625,,161,-19,,,,,,,,,,,,,,,,bars/049.png,bars/mask004.png,,,,,,,,,,,,7,1,,,,,,,6,2,7,2,,,,,,,,,,,580.5123,581.0125,581.2626,584.0956,space,2.8268,,584.0956,1,46,585.0955,585.0955,585.1018,,,,0,27,27,27,1,160,115,,,,,,,,
,,5ec53b28be5c9d2fd7d624f4,65af545bba3c4b3e6931706e,2024-01-23_05h54.00.317,bars,2023.2.3,Win32,142.8571429,657b66ea316d21385b68909f,,,,,,,,,,,585.102,586.1028,,,586.6026,586.8525,,156,-24,,,,,,,,,,,,,,,,bars/038.png,bars/mask005.png,,,,,,,,,,,,2,1,,,,,,,4,0,3,1,,,,,,,,,,,586.1028,586.6026,586.8525,589.2205,space,2.3664,,589.2205,9,86,590.2205,590.2206,590.227,,,,0,28,28,28,1,165,70,,,,,,,,
,,5ec53b28be5c9d2fd7d624f4,65af545bba3c4b3e6931706e,2024-01-23_05h54.00.317,bars,2023.2.3,Win32,142.8571429,657b66ea316d21385b68909f,,,,,,,,,,,590.2271,591.2276,,,591.7279,591.9775,,131,-49,,,,,,,,,,,,,,,,bars/020.png,bars/mask008.png,,,,,,,,,,,,3,1,,,,,,,6,2,6,1,,,,,,,,,,,591.2276,591.7278,591.9776,594.6514,space,2.6714,,594.6514,16,39,595.6512,595.6512,595.6577,,,,0,29,29,29,1,115,170,,,,,,,,
,,5ec53b28be5c9d2fd7d624f4,65af545bba3c4b3e6931706e,2024-01-23_05h54.00.317,bars,2023.2.3,Win32,142.8571429,657b66ea316d21385b68909f,,,,,,,,,,,595.6578,596.6583,,,597.1582,597.4082,,25,205,,,,,,,,,,,,,,,,bars/003.png,bars/mask006.png,,,,,,,,,,,,2,1,,,,,,,4,0,2,1,,,,,,,,,,,596.6583,597.1582,597.4082,600.2905,space,2.8806,,600.2905,0,65,601.2904,601.2904,601.2972,,,,0,30,30,30,1,25,140,,,,,,,,
,,5ec53b28be5c9d2fd7d624f4,65af545bba3c4b3e6931706e,2024-01-23_05h54.00.317,bars,2023.2.3,Win32,142.8571429,657b66ea316d21385b68909f,,,,,,,,,,,601.2973,602.2974,,,602.7972,603.0474,,91,91,,,,,,,,,,,,,,,,bars/019.png,bars/mask005.png,,,,,,,,,,,,2,2,,,,,,,2,2,1,3,,,,,,,,,,,602.2975,602.7971,603.0474,603.1513,space,0.0988,,603.1514,46,14,604.1512,604.1513,604.1523,,,,0,31,31,31,1,45,105,,,,,,,,
,,5ec53b28be5c9d2fd7d624f4,65af545bba3c4b3e6931706e,2024-01-23_05h54.00.317,bars,2023.2.3,Win32,142.8571429,657b66ea316d21385b68909f,,,,,,,,,,,604.1525,605.1516,,,605.6516,605.9013,,30,30,,,,,,,,,,,,,,,,bars/032.png,bars/mask004.png,,,,,,,,,,,,3,2,,,,,,,4,4,3,4,,,,,,,,,,,605.1516,605.6515,605.9013,606.0194,space,0.1135,,606.0195,85,10,607.0194,607.0194,607.02,,,,0,32,32,32,1,125,20,,,,,,,,
,,5ec53b28be5c9d2fd7d624f4,65af545bba3c4b3e6931706e,2024-01-23_05h54.00.317,bars,2023.2.3,Win32,142.8571429,657b66ea316d21385b68909f,,,,,,,,,,,607.0201,608.0194,,,608.5196,608.7697,,20,20,,,,,,,,,,,,,,,,bars/024.png,bars/mask005.png,,,,,,,,,,,,0,2,,,,,,,6,6,4,4,,,,,,,,,,,608.0194,608.5196,608.7697,608.8253,space,0.0535,,608.8254,80,30,609.8253,609.8253,609.826,,,,0,33,33,33,1,120,170,,,,,,,,
,,5ec53b28be5c9d2fd7d624f4,65af545bba3c4b3e6931706e,2024-01-23_05h54.00.317,bars,2023.2.3,Win32,142.8571429,657b66ea316d21385b68909f,,,,,,,,,,,609.8263,610.8254,,,611.325,611.575,,77,77,,,,,,,,,,,,,,,,bars/020.png,bars/mask006.png,,,,,,,,,,,,0,1,,,,,,,4,8,4,8,,,,,,,,,,,610.8254,611.325,611.5751,611.6445,space,0.0663,,611.6445,38,87,612.6443,612.6444,612.6457,,,,0,34,34,34,1,115,170,,,,,,,,
,,5ec53b28be5c9d2fd7d624f4,65af545bba3c4b3e6931706e,2024-01-23_05h54.00.317,bars,2023.2.3,Win32,142.8571429,657b66ea316d21385b68909f,,,,,,,,,,,612.6458,613.6445,,,614.1448,614.3948,,13,13,,,,,,,,,,,,,,,,bars/013.png,bars/mask004.png,,,,,,,,,,,,8,2,,,,,,,2,10,1,9,,,,,,,,,,,613.6445,614.1448,614.3948,617.2834,space,2.8821,,617.2834,62,3,618.2834,618.2835,618.2905,,,,0,35,35,35,1,75,10,,,,,,,,
,,5ec53b28be5c9d2fd7d624f4,65af545bba3c4b3e6931706e,2024-01-23_05h54.00.317,bars,2023.2.3,Win32,142.8571429,657b66ea316d21385b68909f,,,,,,,,,,,618.2907,619.2903,,,619.7904,620.0404,,172,172,,,,,,,,,,,,,,,,bars/033.png,bars/mask000.png,,,,,,,,,,,,3,2,,,,,,,4,8,3,8,,,,,,,,,,,619.2904,619.7904,620.0404,621.3741,space,1.3273,,621.3741,33,17,622.374,622.374,622.3748,,,,0,36,36,36,1,25,155,,,,,,,,
,,5ec53b28be5c9d2fd7d624f4,65af545bba3c4b3e6931706e,2024-01-23_05h54.00.317,bars,2023.2.3,Win32,142.8571429,657b66ea316d21385b68909f,,,,,,,,,,,622.3749,623.3738,,,623.8738,624.1237,,63,63,,,,,,,,,,,,,,,,bars/034.png,bars/mask009.png,,,,,,,,,,,,5,2,,,,,,,2,6,2,5,,,,,,,,,,,623.3738,623.8738,624.1238,626.7908,space,2.6617,,626.7908,62,2,627.7904,627.7904,627.7968,,,,0,37,37,37,1,125,65,,,,,,,,
,,5ec53b28be5c9d2fd7d624f4,65af545bba3c4b3e6931706e,2024-01-23_05h54.00.317,bars,2023.2.3,Win32,142.8571429,657b66ea316d21385b68909f,,,,,,,,,,,627.797,628.7977,,,629.2977,629.5477,,94,94,,,,,,,,,,,,,,,,bars/018.png,bars/mask002.png,,,,,,,,,,,,9,2,,,,,,,4,8,4,10,,,,,,,,,,,628.7977,629.2977,629.5477,633.3461,space,3.7924,,633.3462,56,4,634.3464,634.3464,634.3537,,,,0,38,38,38,1,150,90,,,,,,,,
,,5ec53b28be5c9d2fd7d624f4,65af545bba3c4b3e6931706e,2024-01-23_05h54.00.317,bars,2023.2.3,Win32,142.8571429,657b66ea316d21385b68909f,,,,,,,,,,,634.354,635.353,,,635.8533,636.1036,,151,151,,,,,,,,,,,,,,,,bars/015.png,bars/mask002.png,,,,,,,,,,,,4,2,,,,,,,2,6,2,5,,,,,,,,,,,635.353,635.8533,636.1037,636.7701,space,0.6603,,636.7701,41,9,637.77,637.77,637.7708,,,,0,39,39,39,1,110,160,,,,,,,,
,,5ec53b28be5c9d2fd7d624f4,65af545bba3c4b3e6931706e,2024-01-23_05h54.00.317,bars,2023.2.3,Win32,142.8571429,657b66ea316d21385b68909f,,,,,,,,,,,637.771,638.77,,,639.2698,639.5197,,91,91,,,,,,,,,,,,,,,,bars/046.png,bars/mask001.png,,,,,,,,,,,,6,2,,,,,,,4,8,2,7,,,,,,,,,,,638.77,639.2697,639.5197,639.6239,space,0.0987,,639.6239,64,6,640.6242,640.6242,640.6249,,,,0,40,40,40,1,155,85,,,,,,,,
,,5ec53b28be5c9d2fd7d624f4,65af545bba3c4b3e6931706e,2024-01-23_05h54.00.317,bars,2023.2.3,Win32,142.8571429,657b66ea316d21385b68909f,,,,,,,,,,,640.6252,641.6245,,,642.1243,642.374,,150,150,,,,,,,,,,,,,,,,bars/041.png,bars/mask004.png,,,,,,,,,,,,0,1,,,,,,,6,10,5,10,,,,,,,,,,,641.6246,642.1243,642.374,642.4369,space,0.0571,,642.437,50,65,643.4364,643.4364,643.4376,,,,0,41,41,41,1,20,85,,,,,,,,
,,5ec53b28be5c9d2fd7d624f4,65af545bba3c4b3e6931706e,2024-01-23_05h54.00.317,bars,2023.2.3,Win32,142.8571429,657b66ea316d21385b68909f,,,,,,,,,,,643.4378,644.4366,,,644.9367,645.1867,,105,105,,,,,,,,,,,,,,,,bars/022.png,bars/mask004.png,,,,,,,,,,,,5,1,,,,,,,8,8,8,10,,,,,,,,,,,644.4366,644.9367,645.1867,645.4508,space,0.2574,,645.4508,10,85,646.4507,646.4507,646.4514,,,,0,42,42,42,1,95,20,,,,,,,,
,,5ec53b28be5c9d2fd7d624f4,65af545bba3c4b3e6931706e,2024-01-23_05h54.00.317,bars,2023.2.3,Win32,142.8571429,657b66ea316d21385b68909f,,,,,,,,,,,646.4516,647.4504,,,647.9504,648.2004,,78,78,,,,,,,,,,,,,,,,bars/042.png,bars/mask002.png,,,,,,,,,,,,5,2,,,,,,,10,6,10,6,,,,,,,,,,,647.4504,647.9504,648.2004,650.909,space,2.704,,650.909,67,3,651.9087,651.9088,651.9159,,,,0,43,43,43,1,145,75,,,,,,,,
,,5ec53b28be5c9d2fd7d624f4,65af545bba3c4b3e6931706e,2024-01-23_05h54.00.317,bars,2023.2.3,Win32,142.8571429,657b66ea316d21385b68909f,,,,,,,,,,,651.916,652.916,,,653.4158,653.666,,163,163,,,,,,,,,,,,,,,,bars/015.png,bars/mask007.png,,,,,,,,,,,,5,2,,,,,,,8,4,10,5,,,,,,,,,,,652.916,653.4158,653.666,655.0825,space,1.4102,,655.0825,53,3,656.0824,656.0824,656.0829,,,,0,44,44,44,1,110,160,,,,,,,,
,,5ec53b28be5c9d2fd7d624f4,65af545bba3c4b3e6931706e,2024-01-23_05h54.00.317,bars,2023.2.3,Win32,142.8571429,657b66ea316d21385b68909f,,,,,,,,,,,656.0831,657.0827,,,657.5826,657.8327,,161,161,,,,,,,,,,,,,,,,bars/044.png,bars/mask007.png,,,,,,,,,,,,2,2,,,,,,,6,2,7,2,,,,,,,,,,,657.0827,657.5826,657.8328,658.3952,space,0.5605,,658.3952,86,6,659.395,659.395,659.3956,,,,0,45,45,45,1,75,155,,,,,,,,
,,5ec53b28be5c9d2fd7d624f4,65af545bba3c4b3e6931706e,2024-01-23_05h54.00.317,bars,2023.2.3,Win32,142.8571429,657b66ea316d21385b68909f,,,,,,,,,,,659.3959,660.3949,,,660.8952,661.1453,,95,95,,,,,,,,,,,,,,,,bars/037.png,bars/mask007.png,,,,,,,,,,,,0,2,,,,,,,4,0,5,0,,,,,,,,,,,660.3949,660.8952,661.1453,663.1176,space,1.9657,,663.1177,55,10,664.1172,664.1172,664.1237,,,,0,46,46,46,1,150,105,,,,,,,,
,,5ec53b28be5c9d2fd7d624f4,65af545bba3c4b3e6931706e,2024-01-23_05h54.00.317,bars,2023.2.3,Win32,142.8571429,657b66ea316d21385b68909f,,,,,,,,,,,664.1239,665.1244,,,665.6245,665.8745,,161,161,,,,,,,,,,,,,,,,bars/044.png,bars/mask005.png,,,,,,,,,,,,2,2,,,,,,,2,2,2,2,,,,,,,,,,,665.1245,665.6244,665.8745,668.5756,space,2.6973,,668.5757,86,6,669.576,669.576,669.5829,,,,0,47,47,47,1,75,155,,,,,,,,
,,5ec53b28be5c9d2fd7d624f4,65af545bba3c4b3e6931706e,2024-01-23_05h54.00.317,bars,2023.2.3,Win32,142.8571429,657b66ea316d21385b68909f,,,,,,,,,,,669.583,670.5828,,,671.0829,671.3326,,46,46,,,,,,,,,,,,,,,,bars/017.png,bars/mask004.png,,,,,,,,,,,,5,2,,,,,,,0,4,1,5,,,,,,,,,,,670.5828,671.0829,671.3326,671.3812,space,0.0426,,671.3812,81,1,672.3812,672.3813,672.3817,,,,0,48,48,48,1,145,45,,,,,,,,
,,5ec53b28be5c9d2fd7d624f4,65af545bba3c4b3e6931706e,2024-01-23_05h54.00.317,bars,2023.2.3,Win32,142.8571429,657b66ea316d21385b68909f,,,,,,,,,,,672.3818,673.3815,,,673.8816,674.1316,,178,178,,,,,,,,,,,,,,,,bars/029.png,bars/mask004.png,,,,,,,,,,,,0,2,,,,,,,2,2,3,2,,,,,,,,,,,673.3815,673.8816,674.1316,674.2842,space,0.1486,,674.2842,88,47,675.284,675.284,675.2846,,,,0,49,49,49,1,90,45,,,,,,,,
,,5ec53b28be5c9d2fd7d624f4,65af545bba3c4b3e6931706e,2024-01-23_05h54.00.317,bars,2023.2.3,Win32,142.8571429,657b66ea316d21385b68909f,,,,,,,,,,,,,,,,,,,,,,,,,,,,,,,,,,,,,,,,,,,,,,,,,,,,,,,,,,,,,,,,,,,,,,,,,,,,,,,,,,,,,,,,,,,,,675.2847,735.2847,0,1,1,3,1,sequence_tables/blk028.csv
,,5ec53b28be5c9d2fd7d624f4,65af545bba3c4b3e6931706e,2024-01-23_05h54.00.317,bars,2023.2.3,Win32,142.8571429,657b66ea316d21385b68909f,,,,,,,,,,,988.0568,989.0514,,,989.5515,989.8014,,92,92,,,,,,,,,,,,,,,,bars/021.png,bars/mask007.png,,,,,,,,,,,,1,2,,,,,,,2,4,2,5,,,,,,735.2918,988.0446,space,252.7402,,989.0515,989.5514,989.8014,991.4958,space,1.6873,,991.4958,63,22,992.4957,992.4957,992.5024,,,,0,0,0,0,1,155,70,,,,,,,,
,,5ec53b28be5c9d2fd7d624f4,65af545bba3c4b3e6931706e,2024-01-23_05h54.00.317,bars,2023.2.3,Win32,142.8571429,657b66ea316d21385b68909f,,,,,,,,,,,992.5026,993.5027,,,994.0029,994.2527,,168,168,,,,,,,,,,,,,,,,bars/024.png,bars/mask006.png,,,,,,,,,,,,7,2,,,,,,,4,6,4,7,,,,,,,,,,,993.5027,994.0028,994.2528,996.1139,space,1.855,,996.114,48,2,997.1139,997.1139,997.1207,,,,0,1,1,1,1,120,170,,,,,,,,
,,5ec53b28be5c9d2fd7d624f4,65af545bba3c4b3e6931706e,2024-01-23_05h54.00.317,bars,2023.2.3,Win32,142.8571429,657b66ea316d21385b68909f,,,,,,,,,,,997.1208,998.1211,,,998.6209,998.871,,168,-12,,,,,,,,,,,,,,,,bars/003.png,bars/mask000.png,,,,,,,,,,,,1,2,,,,,,,6,8,5,8,,,,,,,,,,,998.1211,998.6209,998.871,1000.2671,space,1.3927,,1000.2671,37,28,1001.2668,1001.2668,1001.2674,,,,0,2,2,2,1,25,140,,,,,,,,
,,5ec53b28be5c9d2fd7d624f4,65af545bba3c4b3e6931706e,2024-01-23_05h54.00.317,bars,2023.2.3,Win32,142.8571429,657b66ea316d21385b68909f,,,,,,,,,,,1001.2676,1002.2669,,,1002.7671,1003.0167,,3,3,,,,,,,,,,,,,,,,bars/032.png,bars/mask003.png,,,,,,,,,,,,3,2,,,,,,,4,6,2,7,,,,,,,,,,,1002.2669,1002.767,1003.0167,1003.857,space,0.8339,,1003.8571,58,17,1004.857,1004.8571,1004.8576,,,,0,3,3,3,1,125,20,,,,,,,,
,,5ec53b28be5c9d2fd7d624f4,65af545bba3c4b3e6931706e,2024-01-23_05h54.00.317,bars,2023.2.3,Win32,142.8571429,657b66ea316d21385b68909f,,,,,,,,,,,1004.8577,1005.8572,,,1006.357,1006.6071,,159,159,,,,,,,,,,,,,,,,bars/031.png,bars/mask008.png,,,,,,,,,,,,0,1,,,,,,,6,4,6,4,,,,,,,,,,,1005.8572,1006.357,1006.6071,1007.7459,space,1.1369,,1007.7459,39,56,1008.746,1008.746,1008.7473,,,,0,4,4,4,1,120,35,,,,,,,,
,,5ec53b28be5c9d2fd7d624f4,65af545bba3c4b3e6931706e,2024-01-23_05h54.00.317,bars,2023.2.3,Win32,142.8571429,657b66ea316d21385b68909f,,,,,,,,,,,1008.7475,1009.7461,,,1010.2461,1010.4961,,104,104,,,,,,,,,,,,,,,,bars/009.png,bars/mask003.png,,,,,,,,,,,,3,2,,,,,,,8,2,9,3,,,,,,,,,,,1009.7461,1010.246,1010.4961,1011.8016,space,1.3002,,1011.8017,89,1,1012.8016,1012.8016,1012.8032,,,,0,5,5,5,1,15,105,,,,,,,,
,,5ec53b28be5c9d2fd7d624f4,65af545bba3c4b3e6931706e,2024-01-23_05h54.00.317,bars,2023.2.3,Win32,142.8571429,657b66ea316d21385b68909f,,,,,,,,,,,1012.8034,1013.8016,,,1014.3017,1014.5517,,117,-63,,,,,,,,,,,,,,,,bars/049.png,bars/mask006.png,,,,,,,,,,,,0,2,,,,,,,6,0,7,0,,,,,,,,,,,1013.8016,1014.3017,1014.5517,1017.1419,space,2.5877,,1017.1419,43,2,1018.1419,1018.1419,1018.149,,,,0,6,6,6,1,160,115,,,,,,,,
,,5ec53b28be5c9d2fd7d624f4,65af545bba3c4b3e6931706e,2024-01-23_05h54.00.317,bars,2023.2.3,Win32,142.8571429,657b66ea316d21385b68909f,,,,,,,,,,,1018.1491,1019.1488,,,1019.6489,1019.899,,82,82,,,,,,,,,,,,,,,,bars/047.png,bars/mask005.png,,,,,,,,,,,,1,2,,,,,,,4,2,4,2,,,,,,,,,,,1019.1488,1019.6488,1019.899,1020.6352,space,0.732,,1020.6352,67,12,1021.6352,1021.6353,1021.636,,,,0,7,7,7,1,15,70,,,,,,,,
,,5ec53b28be5c9d2fd7d624f4,65af545bba3c4b3e6931706e,2024-01-23_05h54.00.317,bars,2023.2.3,Win32,142.8571429,657b66ea316d21385b68909f,,,,,,,,,,,1021.6361,1022.6353,,,1023.1353,1023.3853,,179,-1,,,,,,,,,,,,,,,,bars/016.png,bars/mask003.png,,,,,,,,,,,,3,2,,,,,,,2,4,2,5,,,,,,,,,,,1022.6354,1023.1353,1023.3854,1035.1146,space,11.7213,,1035.1146,41,14,1036.1146,1036.1146,1036.1216,,,,0,8,8,8,1,40,165,,,,,,,,
,,5ec53b28be5c9d2fd7d624f4,65af545bba3c4b3e6931706e,2024-01-23_05h54.00.317,bars,2023.2.3,Win32,142.8571429,657b66ea316d21385b68909f,,,,,,,,,,,1036.1217,1037.1211,,,1037.6219,1037.8714,,57,57,,,,,,,,,,,,,,,,bars/019.png,bars/mask005.png,,,,,,,,,,,,3,1,,,,,,,4,2,5,2,,,,,,,,,,,1037.1211,1037.6218,1037.8714,1041.8993,space,4.0213,,1041.8994,12,48,1042.8993,1042.8994,1042.9066,,,,0,9,9,9,1,45,105,,,,,,,,
,,5ec53b28be5c9d2fd7d624f4,65af545bba3c4b3e6931706e,2024-01-23_05h54.00.317,bars,2023.2.3,Win32,142.8571429,657b66ea316d21385b68909f,,,,,,,,,,,1042.9066,1043.9063,,,1044.4064,1044.6563,,166,166,,,,,,,,,,,,,,,,bars/025.png,bars/mask001.png,,,,,,,,,,,,0,2,,,,,,,6,4,9,4,,,,,,,,,,,1043.9064,1044.4064,1044.6563,1044.7814,space,0.1206,,1044.7814,61,54,1045.7815,1045.7815,1045.7828,,,,0,10,10,10,1,105,40,,,,,,,,
,,5ec53b28be5c9d2fd7d624f4,65af545bba3c4b3e6931706e,2024-01-23_05h54.00.317,bars,2023.2.3,Win32,142.8571429,657b66ea316d21385b68909f,,,,,,,,,,,1045.7829,1046.7815,,,1047.2812,1047.5315,,92,92,,,,,,,,,,,,,,,,bars/014.png,bars/mask004.png,,,,,,,,,,,,5,1,,,,,,,8,2,8,0,,,,,,,,,,,1046.7815,1047.2812,1047.5315,1047.8713,space,0.3376,,1047.8714,12,88,1048.8717,1048.8717,1048.8731,,,,0,11,11,11,1,80,0,,,,,,,,
,,5ec53b28be5c9d2fd7d624f4,65af545bba3c4b3e6931706e,2024-01-23_05h54.00.317,bars,2023.2.3,Win32,142.8571429,657b66ea316d21385b68909f,,,,,,,,,,,1048.8733,1049.8718,,,1050.3719,1050.6215,,45,45,,,,,,,,,,,,,,,,bars/031.png,bars/mask003.png,,,,,,,,,,,,3,2,,,,,,,10,4,10,4,,,,,,,,,,,1049.8718,1050.3718,1050.6215,1051.8093,space,1.1815,,1051.8093,75,10,1052.8091,1052.8091,1052.8107,,,,0,12,12,12,1,120,35,,,,,,,,
,,5ec53b28be5c9d2fd7d624f4,65af545bba3c4b3e6931706e,2024-01-23_05h54.00.317,bars,2023.2.3,Win32,142.8571429,657b66ea316d21385b68909f,,,,,,,,,,,1052.8108,1053.8093,,,1054.3094,1054.559,,92,92,,,,,,,,,,,,,,,,bars/001.png,bars/mask002.png,,,,,,,,,,,,1,2,,,,,,,8,2,8,1,,,,,,,,,,,1053.8093,1054.3094,1054.559,1058.2468,space,3.6812,,1058.2469,38,7,1059.247,1059.247,1059.2543,,,,0,13,13,13,1,130,85,,,,,,,,
,,5ec53b28be5c9d2fd7d624f4,65af545bba3c4b3e6931706e,2024-01-23_05h54.00.317,bars,2023.2.3,Win32,142.8571429,657b66ea316d21385b68909f,,,,,,,,,,,1059.2545,1060.2538,,,1060.7536,1061.0038,,174,174,,,,,,,,,,,,,,,,bars/030.png,bars/mask003.png,,,,,,,,,,,,0,1,,,,,,,10,4,10,4,,,,,,,,,,,1060.2538,1060.7535,1061.0038,1062.0868,space,1.0764,,1062.0869,34,71,1063.0872,1063.0872,1063.0887,,,,0,14,14,14,1,140,65,,,,,,,,
,,5ec53b28be5c9d2fd7d624f4,65af545bba3c4b3e6931706e,2024-01-23_05h54.00.317,bars,2023.2.3,Win32,142.8571429,657b66ea316d21385b68909f,,,,,,,,,,,1063.0888,1064.0871,,,1064.5868,1064.8371,,54,54,,,,,,,,,,,,,,,,bars/028.png,bars/mask007.png,,,,,,,,,,,,4,1,,,,,,,8,6,6,5,,,,,,,,,,,1064.0871,1064.5868,1064.8371,1065.6979,space,0.8587,,1065.6979,9,66,1066.698,1066.698,1066.6986,,,,0,15,15,15,1,45,120,,,,,,,,
,,5ec53b28be5c9d2fd7d624f4,65af545bba3c4b3e6931706e,2024-01-23_05h54.00.317,bars,2023.2.3,Win32,142.8571429,657b66ea316d21385b68909f,,,,,,,,,,,1066.6987,1067.6985,,,1068.1982,1068.4484,,128,128,,,,,,,,,,,,,,,,bars/022.png,bars/mask009.png,,,,,,,,,,,,0,1,,,,,,,6,8,6,6,,,,,,,,,,,1067.6985,1068.1982,1068.4484,1068.865,space,0.4114,,1068.865,33,72,1069.865,1069.8651,1069.8657,,,,0,16,16,16,1,95,20,,,,,,,,
,,5ec53b28be5c9d2fd7d624f4,65af545bba3c4b3e6931706e,2024-01-23_05h54.00.317,bars,2023.2.3,Win32,142.8571429,657b66ea316d21385b68909f,,,,,,,,,,,1069.8659,1070.865,,,1071.3651,1071.6149,,30,30,,,,,,,,,,,,,,,,bars/016.png,bars/mask002.png,,,,,,,,,,,,3,1,,,,,,,4,6,4,6,,,,,,,,,,,1070.8651,1071.3651,1071.615,1073.3165,space,1.6951,,1073.3165,10,45,1074.3162,1074.3162,1074.3226,,,,0,17,17,17,1,40,165,,,,,,,,
,,5ec53b28be5c9d2fd7d624f4,65af545bba3c4b3e6931706e,2024-01-23_05h54.00.317,bars,2023.2.3,Win32,142.8571429,657b66ea316d21385b68909f,,,,,,,,,,,1074.3227,1075.3231,,,1075.8234,1076.0734,,102,102,,,,,,,,,,,,,,,,bars/002.png,bars/mask000.png,,,,,,,,,,,,2,2,,,,,,,2,4,2,5,,,,,,,,,,,1075.3231,1075.8234,1076.0734,1077.0801,space,0.9996,,1077.0801,28,17,1078.0804,1078.0804,1078.0817,,,,0,18,18,18,1,130,85,,,,,,,,
,,5ec53b28be5c9d2fd7d624f4,65af545bba3c4b3e6931706e,2024-01-23_05h54.00.317,bars,2023.2.3,Win32,142.8571429,657b66ea316d21385b68909f,,,,,,,,,,,1078.0818,1079.0804,,,1079.5801,1079.8303,,95,95,,,,,,,,,,,,,,,,bars/018.png,bars/mask005.png,,,,,,,,,,,,3,2,,,,,,,0,2,0,3,,,,,,,,,,,1079.0804,1079.5801,1079.8303,1080.0666,space,0.2299,,1080.0666,55,5,1081.0662,1081.0663,1081.0667,,,,0,19,19,19,1,150,90,,,,,,,,
,,5ec53b28be5c9d2fd7d624f4,65af545bba3c4b3e6931706e,2024-01-23_05h54.00.317,bars,2023.2.3,Win32,142.8571429,657b66ea316d21385b68909f,,,,,,,,,,,1081.0668,1082.0664,,,1082.5666,1082.8163,,179,179,,,,,,,,,,,,,,,,bars/016.png,bars/mask008.png,,,,,,,,,,,,1,2,,,,,,,2,0,0,1,,,,,,,,,,,1082.0664,1082.5666,1082.8163,1087.115,space,4.2924,,1087.115,41,14,1088.1151,1088.1151,1088.1217,,,,0,20,20,20,1,40,165,,,,,,,,
,,5ec53b28be5c9d2fd7d624f4,65af545bba3c4b3e6931706e,2024-01-23_05h54.00.317,bars,2023.2.3,Win32,142.8571429,657b66ea316d21385b68909f,,,,,,,,,,,1088.1218,1089.122,,,1089.6222,1089.8722,,17,17,,,,,,,,,,,,,,,,bars/027.png,bars/mask006.png,,,,,,,,,,,,0,2,,,,,,,4,2,7,2,,,,,,,,,,,1089.122,1089.6222,1089.8722,1093.504,space,3.63,,1093.504,87,33,1094.5042,1094.5043,1094.5108,,,,0,21,21,21,1,110,50,,,,,,,,
,,5ec53b28be5c9d2fd7d624f4,65af545bba3c4b3e6931706e,2024-01-23_05h54.00.317,bars,2023.2.3,Win32,142.8571429,657b66ea316d21385b68909f,,,,,,,,,,,1094.511,1095.5111,,,1096.011,1096.2612,,43,43,,,,,,,,,,,,,,,,bars/046.png,bars/mask008.png,,,,,,,,,,,,0,2,,,,,,,2,0,1,0,,,,,,,,,,,1095.5111,1096.011,1096.2612,1098.1987,space,1.9337,,1098.1987,68,42,1099.1987,1099.1987,1099.2054,,,,0,22,22,22,1,155,85,,,,,,,,
,,5ec53b28be5c9d2fd7d624f4,65af545bba3c4b3e6931706e,2024-01-23_05h54.00.317,bars,2023.2.3,Win32,142.8571429,657b66ea316d21385b68909f,,,,,,,,,,,1099.2055,1100.2054,,,1100.7056,1100.9557,,156,156,,,,,,,,,,,,,,,,bars/036.png,bars/mask006.png,,,,,,,,,,,,0,1,,,,,,,0,0,0,3,,,,,,,,,,,1100.2054,1100.7055,1100.9557,1101.6499,space,0.6871,,1101.65,11,44,1102.6502,1102.6502,1102.6515,,,,0,23,23,23,1,145,20,,,,,,,,
,,5ec53b28be5c9d2fd7d624f4,65af545bba3c4b3e6931706e,2024-01-23_05h54.00.317,bars,2023.2.3,Win32,142.8571429,657b66ea316d21385b68909f,,,,,,,,,,,1102.6516,1103.65,,,1104.1498,1104.4001,,95,95,,,,,,,,,,,,,,,,bars/014.png,bars/mask008.png,,,,,,,,,,,,1,1,,,,,,,2,2,2,2,,,,,,,,,,,1103.6501,1104.1498,1104.4001,1104.7472,space,0.3393,,1104.7472,15,85,1105.7473,1105.7473,1105.748,,,,0,24,24,24,1,80,0,,,,,,,,
,,5ec53b28be5c9d2fd7d624f4,65af545bba3c4b3e6931706e,2024-01-23_05h54.00.317,bars,2023.2.3,Win32,142.8571429,657b66ea316d21385b68909f,,,,,,,,,,,1105.7482,1106.747,,,1107.2473,1107.497,,63,63,,,,,,,,,,,,,,,,bars/013.png,bars/mask001.png,,,,,,,,,,,,1,1,,,,,,,4,0,2,0,,,,,,,,,,,1106.747,1107.2473,1107.497,1107.6433,space,0.1401,,1107.6433,12,53,1108.6432,1108.6432,1108.6438,,,,0,25,25,25,1,75,10,,,,,,,,
,,5ec53b28be5c9d2fd7d624f4,65af545bba3c4b3e6931706e,2024-01-23_05h54.00.317,bars,2023.2.3,Win32,142.8571429,657b66ea316d21385b68909f,,,,,,,,,,,1108.6441,1109.6429,,,1110.1431,1110.3931,,11,11,,,,,,,,,,,,,,,,bars/029.png,bars/mask008.png,,,,,,,,,,,,0,2,,,,,,,2,2,2,2,,,,,,,,,,,1109.6429,1110.1431,1110.3931,1110.8515,space,0.4524,,1110.8515,79,34,1111.8516,1111.8516,1111.853,,,,0,26,26,26,1,90,45,,,,,,,,
,,5ec53b28be5c9d2fd7d624f4,65af545bba3c4b3e6931706e,2024-01-23_05h54.00.317,bars,2023.2.3,Win32,142.8571429,657b66ea316d21385b68909f,,,,,,,,,,,1111.8532,1112.8515,,,1113.3516,1113.6016,,70,70,,,,,,,,,,,,,,,,bars/025.png,bars/mask003.png,,,,,,,,,,,,0,2,,,,,,,0,4,0,6,,,,,,,,,,,1112.8515,1113.3516,1113.6017,1116.8513,space,3.2469,,1116.8513,35,30,1117.8514,1117.8514,1117.8577,,,,0,27,27,27,1,105,40,,,,,,,,
,,5ec53b28be5c9d2fd7d624f4,65af545bba3c4b3e6931706e,2024-01-23_05h54.00.317,bars,2023.2.3,Win32,142.8571429,657b66ea316d21385b68909f,,,,,,,,,,,1117.8578,1118.8583,,,1119.3582,1119.6086,,103,103,,,,,,,,,,,,,,,,bars/009.png,bars/mask006.png,,,,,,,,,,,,3,2,,,,,,,2,2,1,3,,,,,,,,,,,1118.8584,1119.3582,1119.6087,1121.9209,space,2.3064,,1121.9209,88,2,1122.9209,1122.9209,1122.9273,,,,0,28,28,28,1,15,105,,,,,,,,
,,5ec53b28be5c9d2fd7d624f4,65af545bba3c4b3e6931706e,2024-01-23_05h54.00.317,bars,2023.2.3,Win32,142.8571429,657b66ea316d21385b68909f,,,,,,,,,,,1122.9274,1123.9278,,,1124.428,1124.6779,,39,39,,,,,,,,,,,,,,,,bars/007.png,bars/mask001.png,,,,,,,,,,,,0,2,,,,,,,0,0,0,1,,,,,,,,,,,1123.9278,1124.428,1124.6779,1126.935,space,2.2508,,1126.935,44,16,1127.935,1127.935,1127.9356,,,,0,29,29,29,1,175,55,,,,,,,,
,,5ec53b28be5c9d2fd7d624f4,65af545bba3c4b3e6931706e,2024-01-23_05h54.00.317,bars,2023.2.3,Win32,142.8571429,657b66ea316d21385b68909f,,,,,,,,,,,1127.9359,1128.9352,,,1129.4348,1129.685,,169,-11,,,,,,,,,,,,,,,,bars/033.png,bars/mask002.png,,,,,,,,,,,,1,2,,,,,,,2,2,3,1,,,,,,,,,,,1128.9352,1129.4348,1129.685,1131.2823,space,1.591,,1131.2824,36,14,1132.2824,1132.2824,1132.289,,,,0,30,30,30,1,25,155,,,,,,,,
,,5ec53b28be5c9d2fd7d624f4,65af545bba3c4b3e6931706e,2024-01-23_05h54.00.317,bars,2023.2.3,Win32,142.8571429,657b66ea316d21385b68909f,,,,,,,,,,,1132.2892,1133.2892,,,1133.7894,1134.0393,,146,146,,,,,,,,,,,,,,,,bars/000.png,bars/mask004.png,,,,,,,,,,,,0,2,,,,,,,0,0,0,0,,,,,,,,,,,1133.2892,1133.7894,1134.0393,1135.8379,space,1.7945,,1135.8379,74,1,1136.838,1136.838,1136.8446,,,,0,31,31,31,1,40,145,,,,,,,,
,,5ec53b28be5c9d2fd7d624f4,65af545bba3c4b3e6931706e,2024-01-23_05h54.00.317,bars,2023.2.3,Win32,142.8571429,657b66ea316d21385b68909f,,,,,,,,,,,1136.8447,1137.8449,,,1138.345,1138.5947,,151,151,,,,,,,,,,,,,,,,bars/003.png,bars/mask008.png,,,,,,,,,,,,0,2,,,,,,,0,0,1,0,,,,,,,,,,,1137.8449,1138.3449,1138.5948,1142.2964,space,3.6948,,1142.2964,54,11,1143.2964,1143.2964,1143.3038,,,,0,32,32,32,1,25,140,,,,,,,,
,,5ec53b28be5c9d2fd7d624f4,65af545bba3c4b3e6931706e,2024-01-23_05h54.00.317,bars,2023.2.3,Win32,142.8571429,657b66ea316d21385b68909f,,,,,,,,,,,1143.3039,1144.3033,,,1144.8033,1145.0533,,134,134,,,,,,,,,,,,,,,,bars/012.png,bars/mask005.png,,,,,,,,,,,,0,1,,,,,,,2,0,1,2,,,,,,,,,,,1144.3033,1144.8033,1145.0534,1145.3451,space,0.2853,,1145.3451,44,61,1146.3448,1146.3448,1146.3461,,,,0,33,33,33,1,90,15,,,,,,,,
,,5ec53b28be5c9d2fd7d624f4,65af545bba3c4b3e6931706e,2024-01-23_05h54.00.317,bars,2023.2.3,Win32,142.8571429,657b66ea316d21385b68909f,,,,,,,,,,,1146.3462,1147.3447,,,1147.845,1148.095,,175,175,,,,,,,,,,,,,,,,bars/044.png,bars/mask007.png,,,,,,,,,,,,0,2,,,,,,,0,0,0,0,,,,,,,,,,,1147.3448,1147.845,1148.095,1150.4631,space,2.3615,,1150.4632,80,20,1151.463,1151.4631,1151.4703,,,,0,34,34,34,1,75,155,,,,,,,,
,,5ec53b28be5c9d2fd7d624f4,65af545bba3c4b3e6931706e,2024-01-23_05h54.00.317,bars,2023.2.3,Win32,142.8571429,657b66ea316d21385b68909f,,,,,,,,,,,1151.4705,1152.47,,,1152.9701,1153.2199,,75,75,,,,,,,,,,,,,,,,bars/002.png,bars/mask000.png,,,,,,,,,,,,1,2,,,,,,,2,2,2,2,,,,,,,,,,,1152.4701,1152.9701,1153.22,1156.6018,space,3.3796,,1156.6018,55,10,1157.602,1157.602,1157.6088,,,,0,35,35,35,1,130,85,,,,,,,,
,,5ec53b28be5c9d2fd7d624f4,65af545bba3c4b3e6931706e,2024-01-23_05h54.00.317,bars,2023.2.3,Win32,142.8571429,657b66ea316d21385b68909f,,,,,,,,,,,1157.6089,1158.6091,,,1159.109,1159.359,,107,107,,,,,,,,,,,,,,,,bars/037.png,bars/mask006.png,,,,,,,,,,,,0,2,,,,,,,0,0,0,0,,,,,,,,,,,1158.6091,1159.1089,1159.359,1160.713,space,1.3487,,1160.713,43,2,1161.713,1161.713,1161.7135,,,,0,36,36,36,1,150,105,,,,,,,,
,,5ec53b28be5c9d2fd7d624f4,65af545bba3c4b3e6931706e,2024-01-23_05h54.00.317,bars,2023.2.3,Win32,142.8571429,657b66ea316d21385b68909f,,,,,,,,,,,1161.7138,1162.713,,,1163.2133,1163.4632,,127,127,,,,,,,,,,,,,,,,bars/032.png,bars/mask007.png,,,,,,,,,,,,0,1,,,,,,,0,0,0,0,,,,,,,,,,,1162.713,1163.2132,1163.4632,1164.5741,space,1.1063,,1164.5741,2,73,1165.5744,1165.5744,1165.5758,,,,0,37,37,37,1,125,20,,,,,,,,
,,5ec53b28be5c9d2fd7d624f4,65af545bba3c4b3e6931706e,2024-01-23_05h54.00.317,bars,2023.2.3,Win32,142.8571429,657b66ea316d21385b68909f,,,,,,,,,,,1165.576,1166.5741,,,1167.0741,1167.3241,,39,39,,,,,,,,,,,,,,,,bars/023.png,bars/mask007.png,,,,,,,,,,,,0,1,,,,,,,0,0,0,0,,,,,,,,,,,1166.5741,1167.0741,1167.3241,1170.9769,space,3.6477,,1170.9769,19,76,1171.9771,1171.9772,1171.9841,,,,0,38,38,38,1,20,115,,,,,,,,
,,5ec53b28be5c9d2fd7d624f4,65af545bba3c4b3e6931706e,2024-01-23_05h54.00.317,bars,2023.2.3,Win32,142.8571429,657b66ea316d21385b68909f,,,,,,,,,,,1171.9843,1172.9843,,,1173.484,1173.734,,1,181,,,,,,,,,,,,,,,,bars/008.png,bars/mask004.png,,,,,,,,,,,,3,2,,,,,,,0,2,0,3,,,,,,,,,,,1172.9843,1173.484,1173.7341,1175.0325,space,1.2942,,1175.0326,71,1,1176.0325,1176.0326,1176.0339,,,,0,39,39,39,1,110,0,,,,,,,,
,,5ec53b28be5c9d2fd7d624f4,65af545bba3c4b3e6931706e,2024-01-23_05h54.00.317,bars,2023.2.3,Win32,142.8571429,657b66ea316d21385b68909f,,,,,,,,,,,1176.034,1177.0328,,,1177.5328,1177.7827,,77,77,,,,,,,,,,,,,,,,bars/042.png,bars/mask009.png,,,,,,,,,,,,1,2,,,,,,,2,0,1,1,,,,,,,,,,,1177.0329,1177.5328,1177.7827,1178.4565,space,0.6672,,1178.4565,68,2,1179.4562,1179.4562,1179.4566,,,,0,40,40,40,1,145,75,,,,,,,,
,,5ec53b28be5c9d2fd7d624f4,65af545bba3c4b3e6931706e,2024-01-23_05h54.00.317,bars,2023.2.3,Win32,142.8571429,657b66ea316d21385b68909f,,,,,,,,,,,1179.4567,1180.4564,,,1180.9565,1181.2062,,58,238,,,,,,,,,,,,,,,,bars/034.png,bars/mask007.png,,,,,,,,,,,,2,2,,,,,,,4,2,5,3,,,,,,,,,,,1180.4564,1180.9565,1181.2062,1184.6719,space,3.4594,,1184.6719,67,7,1185.6718,1185.6718,1185.6787,,,,0,41,41,41,1,125,65,,,,,,,,
,,5ec53b28be5c9d2fd7d624f4,65af545bba3c4b3e6931706e,2024-01-23_05h54.00.317,bars,2023.2.3,Win32,142.8571429,657b66ea316d21385b68909f,,,,,,,,,,,1185.6789,1186.6786,,,1187.1784,1187.4285,,8,188,,,,,,,,,,,,,,,,bars/040.png,bars/mask005.png,,,,,,,,,,,,5,2,,,,,,,2,4,2,5,,,,,,,,,,,1186.6786,1187.1784,1187.4285,1191.2827,space,3.849,,1191.2828,48,3,1192.2828,1192.2828,1192.2895,,,,0,42,42,42,1,140,5,,,,,,,,
,,5ec53b28be5c9d2fd7d624f4,65af545bba3c4b3e6931706e,2024-01-23_05h54.00.317,bars,2023.2.3,Win32,142.8571429,657b66ea316d21385b68909f,,,,,,,,,,,1192.2896,1193.2899,,,1193.79,1194.04,,22,202,,,,,,,,,,,,,,,,bars/014.png,bars/mask006.png,,,,,,,,,,,,1,2,,,,,,,4,2,3,2,,,,,,,,,,,1193.2899,1193.79,1194.04,1196.7414,space,2.6949,,1196.7414,58,22,1197.7414,1197.7414,1197.7483,,,,0,43,43,43,1,80,0,,,,,,,,
,,5ec53b28be5c9d2fd7d624f4,65af545bba3c4b3e6931706e,2024-01-23_05h54.00.317,bars,2023.2.3,Win32,142.8571429,657b66ea316d21385b68909f,,,,,,,,,,,1197.7485,1198.7481,,,1199.2481,1199.4981,,133,133,,,,,,,,,,,,,,,,bars/043.png,bars/mask007.png,,,,,,,,,,,,0,2,,,,,,,2,0,1,0,,,,,,,,,,,1198.7481,1199.2481,1199.4981,1202.7204,space,3.2177,,1202.7204,77,3,1203.7202,1203.7203,1203.7268,,,,0,44,44,44,1,30,130,,,,,,,,
,,5ec53b28be5c9d2fd7d624f4,65af545bba3c4b3e6931706e,2024-01-23_05h54.00.317,bars,2023.2.3,Win32,142.8571429,657b66ea316d21385b68909f,,,,,,,,,,,1203.727,1204.7273,,,1205.2277,1205.4776,,116,-64,,,,,,,,,,,,,,,,bars/020.png,bars/mask006.png,,,,,,,,,,,,0,1,,,,,,,0,2,0,2,,,,,,,,,,,1204.7273,1205.2277,1205.4776,1208.4983,space,3.0141,,1208.4984,1,54,1209.4984,1209.4984,1209.5057,,,,0,45,45,45,1,115,170,,,,,,,,
,,5ec53b28be5c9d2fd7d624f4,65af545bba3c4b3e6931706e,2024-01-23_05h54.00.317,bars,2023.2.3,Win32,142.8571429,657b66ea316d21385b68909f,,,,,,,,,,,1209.5059,1210.5052,,,1211.0052,1211.255,,163,163,,,,,,,,,,,,,,,,bars/011.png,bars/mask009.png,,,,,,,,,,,,2,1,,,,,,,2,0,2,0,,,,,,,,,,,1210.5052,1211.0052,1211.255,1212.8178,space,1.5586,,1212.8178,3,78,1213.8178,1213.8178,1213.8185,,,,0,46,46,46,1,160,85,,,,,,,,
,,5ec53b28be5c9d2fd7d624f4,65af545bba3c4b3e6931706e,2024-01-23_05h54.00.317,bars,2023.2.3,Win32,142.8571429,657b66ea316d21385b68909f,,,,,,,,,,,1213.8187,1214.8175,,,1215.3176,1215.5677,,100,100,,,,,,,,,,,,,,,,bars/001.png,bars/mask008.png,,,,,,,,,,,,1,2,,,,,,,4,2,3,2,,,,,,,,,,,1214.8175,1215.3176,1215.5677,1217.7,space,2.126,,1217.7001,30,15,1218.7,1218.7,1218.7073,,,,0,47,47,47,1,130,85,,,,,,,,
,,5ec53b28be5c9d2fd7d624f4,65af545bba3c4b3e6931706e,2024-01-23_05h54.00.317,bars,2023.2.3,Win32,142.8571429,657b66ea316d21385b68909f,,,,,,,,,,,1218.7073,1219.7066,,,1220.2066,1220.4569,,105,105,,,,,,,,,,,,,,,,bars/028.png,bars/mask004.png,,,,,,,,,,,,1,2,,,,,,,6,0,5,2,,,,,,,,,,,1219.7066,1220.2066,1220.4569,1221.582,space,1.1206,,1221.582,60,15,1222.582,1222.582,1222.5827,,,,0,48,48,48,1,45,120,,,,,,,,
,,5ec53b28be5c9d2fd7d624f4,65af545bba3c4b3e6931706e,2024-01-23_05h54.00.317,bars,2023.2.3,Win32,142.8571429,657b66ea316d21385b68909f,,,,,,,,,,,1222.583,1223.5816,,,1224.0817,1224.3318,,146,146,,,,,,,,,,,,,,,,bars/043.png,bars/mask006.png,,,,,,,,,,,,0,2,,,,,,,4,0,4,1,,,,,,,,,,,1223.5816,1224.0816,1224.3318,1225.1928,space,0.8566,,1225.1928,64,16,1226.193,1226.1931,1226.1936,,,,0,49,49,49,1,30,130,,,,,,,,
,,5ec53b28be5c9d2fd7d624f4,65af545bba3c4b3e6931706e,2024-01-23_05h54.00.317,bars,2023.2.3,Win32,142.8571429,657b66ea316d21385b68909f,,,,,,,,,,,,,,,,,,,,,,,,,,,,,,,,,,,,,,,,,,,,,,,,,,,,,,,,,,,,,,,,,,,,,,,,,,,,,,,,,,,,,,,,,,,,,1226.1939,1286.4291,0,2,2,1,1,sequence_tables/blk040.csv
,,5ec53b28be5c9d2fd7d624f4,65af545bba3c4b3e6931706e,2024-01-23_05h54.00.317,bars,2023.2.3,Win32,142.8571429,657b66ea316d21385b68909f,,,,,,,,,,,1296.4036,1297.3955,,,1297.8953,1298.1454,,75,75,,,,,,,,,,,,,,,,bars/038.png,bars/mask001.png,,,,,,,,,,,,6,2,,,,,,,3,6,4,7,,,,,,1286.4443,1296.3952,space,9.9107,,1297.3955,1297.8953,1298.1454,1299.2494,space,1.1009,,1299.2494,90,5,1300.2494,1300.2494,1300.2501,,,,0,0,0,0,1,165,70,,,,,,,,
,,5ec53b28be5c9d2fd7d624f4,65af545bba3c4b3e6931706e,2024-01-23_05h54.00.317,bars,2023.2.3,Win32,142.8571429,657b66ea316d21385b68909f,,,,,,,,,,,1300.2504,1301.2494,,,1301.7518,1302.0006,,73,73,,,,,,,,,,,,,,,,bars/042.png,bars/mask005.png,,,,,,,,,,,,7,2,,,,,,,5,8,3,7,,,,,,,,,,,1301.2495,1301.7497,1302.0007,1305.528,space,3.522,,1305.5281,72,2,1306.5273,1306.5273,1306.5341,,,,0,1,1,1,1,145,75,,,,,,,,
,,5ec53b28be5c9d2fd7d624f4,65af545bba3c4b3e6931706e,2024-01-23_05h54.00.317,bars,2023.2.3,Win32,142.8571429,657b66ea316d21385b68909f,,,,,,,,,,,1306.5342,1307.5339,,,1308.0339,1308.284,,7,187,,,,,,,,,,,,,,,,bars/014.png,bars/mask007.png,,,,,,,,,,,,8,2,,,,,,,7,10,8,10,,,,,,,,,,,1307.5339,1308.0339,1308.284,1309.4437,space,1.1562,,1309.4437,73,7,1310.444,1310.4441,1310.4448,,,,0,2,2,2,1,80,0,,,,,,,,
,,5ec53b28be5c9d2fd7d624f4,65af545bba3c4b3e6931706e,2024-01-23_05h54.00.317,bars,2023.2.3,Win32,142.8571429,657b66ea316d21385b68909f,,,,,,,,,,,1310.445,1311.444,,,1311.9438,1312.1938,,112,112,,,,,,,,,,,,,,,,bars/049.png,bars/mask003.png,,,,,,,,,,,,9,2,,,,,,,5,10,5,10,,,,,,,,,,,1311.444,1311.9437,1312.1938,1313.8743,space,1.6787,,1313.8743,48,3,1314.8744,1314.8744,1314.8748,,,,0,3,3,3,1,160,115,,,,,,,,
,,5ec53b28be5c9d2fd7d624f4,65af545bba3c4b3e6931706e,2024-01-23_05h54.00.317,bars,2023.2.3,Win32,142.8571429,657b66ea316d21385b68909f,,,,,,,,,,,1314.8749,1320.8728,,,1320.8838,1320.8841,,31,31,,,,,,,,,,,,,,,,bars/008.png,bars/mask008.png,,,,,,,,,,,,0,2,,,,,,,3,10,2,8,,,,,,,,,,,1320.8728,1320.8838,1320.8841,1321.798,space,0.903,,1321.7981,79,31,1322.7983,1322.7983,1322.799,,,,0,4,4,4,1,110,0,,,,,,,,
,,5ec53b28be5c9d2fd7d624f4,65af545bba3c4b3e6931706e,2024-01-23_05h54.00.317,bars,2023.2.3,Win32,142.8571429,657b66ea316d21385b68909f,,,,,,,,,,,1322.7992,1323.7979,,,1324.298,1324.5479,,23,203,,,,,,,,,,,,,,,,bars/007.png,bars/mask004.png,,,,,,,,,,,,0,1,,,,,,,1,10,1,9,,,,,,,,,,,1323.798,1324.298,1324.548,1326.4859,space,1.9317,,1326.486,28,32,1327.4856,1327.4856,1327.4928,,,,0,5,5,5,1,175,55,,,,,,,,
,,5ec53b28be5c9d2fd7d624f4,65af545bba3c4b3e6931706e,2024-01-23_05h54.00.317,bars,2023.2.3,Win32,142.8571429,657b66ea316d21385b68909f,,,,,,,,,,,1327.493,1328.4926,,,1328.9928,1329.2429,,72,72,,,,,,,,,,,,,,,,bars/044.png,bars/mask000.png,,,,,,,,,,,,1,1,,,,,,,3,10,1,10,,,,,,,,,,,1328.4927,1328.9928,1329.2429,1333.2427,space,3.9932,,1333.2427,3,83,1334.2429,1334.2429,1334.2496,,,,0,6,6,6,1,75,155,,,,,,,,
,,5ec53b28be5c9d2fd7d624f4,65af545bba3c4b3e6931706e,2024-01-23_05h54.00.317,bars,2023.2.3,Win32,142.8571429,657b66ea316d21385b68909f,,,,,,,,,,,1334.2497,1335.2498,,,1335.7496,1335.9996,,101,101,,,,,,,,,,,,,,,,bars/018.png,bars/mask007.png,,,,,,,,,,,,6,2,,,,,,,5,10,5,10,,,,,,,,,,,1335.2498,1335.7496,1335.9996,1338.0835,space,2.0808,,1338.0835,49,11,1339.0832,1339.0832,1339.0907,,,,0,7,7,7,1,150,90,,,,,,,,
,,5ec53b28be5c9d2fd7d624f4,65af545bba3c4b3e6931706e,2024-01-23_05h54.00.317,bars,2023.2.3,Win32,142.8571429,657b66ea316d21385b68909f,,,,,,,,,,,1339.0909,1340.0899,,,1340.5898,1340.8399,,68,68,,,,,,,,,,,,,,,,bars/038.png,bars/mask000.png,,,,,,,,,,,,8,2,,,,,,,7,8,7,9,,,,,,,,,,,1340.0899,1340.5898,1340.84,1342.9233,space,2.0777,,1342.9233,83,2,1343.9233,1343.9233,1343.9239,,,,0,8,8,8,1,165,70,,,,,,,,
,,5ec53b28be5c9d2fd7d624f4,65af545bba3c4b3e6931706e,2024-01-23_05h54.00.317,bars,2023.2.3,Win32,142.8571429,657b66ea316d21385b68909f,,,,,,,,,,,1343.9242,1344.9232,,,1345.4235,1345.6733,,106,106,,,,,,,,,,,,,,,,bars/023.png,bars/mask008.png,,,,,,,,,,,,4,2,,,,,,,5,6,7,5,,,,,,,,,,,1344.9232,1345.4235,1345.6733,1347.0344,space,1.3591,,1347.0344,86,9,1348.0346,1348.0346,1348.0354,,,,0,9,9,9,1,20,115,,,,,,,,
,,5ec53b28be5c9d2fd7d624f4,65af545bba3c4b3e6931706e,2024-01-23_05h54.00.317,bars,2023.2.3,Win32,142.8571429,657b66ea316d21385b68909f,,,,,,,,,,,1348.0356,1349.0347,,,1349.5348,1349.7846,,163,163,,,,,,,,,,,,,,,,bars/020.png,bars/mask004.png,,,,,,,,,,,,8,2,,,,,,,7,8,7,10,,,,,,,,,,,1349.0347,1349.5348,1349.7847,1352.3261,space,2.5362,,1352.3261,48,7,1353.326,1353.3261,1353.3332,,,,0,10,10,10,1,115,170,,,,,,,,
,,5ec53b28be5c9d2fd7d624f4,65af545bba3c4b3e6931706e,2024-01-23_05h54.00.317,bars,2023.2.3,Win32,142.8571429,657b66ea316d21385b68909f,,,,,,,,,,,1353.3334,1354.3333,,,1354.8332,1355.0834,,107,107,,,,,,,,,,,,,,,,bars/023.png,bars/mask000.png,,,,,,,,,,,,7,2,,,,,,,9,10,8,9,,,,,,,,,,,1354.3334,1354.8332,1355.0834,1358.8612,space,3.7713,,1358.8612,87,8,1359.8609,1359.861,1359.8674,,,,0,11,11,11,1,20,115,,,,,,,,
,,5ec53b28be5c9d2fd7d624f4,65af545bba3c4b3e6931706e,2024-01-23_05h54.00.317,bars,2023.2.3,Win32,142.8571429,657b66ea316d21385b68909f,,,,,,,,,,,1359.8674,1360.8679,,,1361.3682,1361.6179,,144,144,,,,,,,,,,,,,,,,bars/043.png,bars/mask008.png,,,,,,,,,,,,5,2,,,,,,,10,10,9,10,,,,,,,,,,,1360.8679,1361.3682,1361.6179,1363.2919,space,1.6677,,1363.2919,66,14,1364.2915,1364.2915,1364.2919,,,,0,12,12,12,1,30,130,,,,,,,,
,,5ec53b28be5c9d2fd7d624f4,65af545bba3c4b3e6931706e,2024-01-23_05h54.00.317,bars,2023.2.3,Win32,142.8571429,657b66ea316d21385b68909f,,,,,,,,,,,1364.292,1365.2918,,,1365.7918,1366.0419,,101,101,,,,,,,,,,,,,,,,bars/039.png,bars/mask005.png,,,,,,,,,,,,7,2,,,,,,,8,8,8,8,,,,,,,,,,,1365.2919,1365.7918,1366.0419,1369.2364,space,3.188,,1369.2365,74,4,1370.2363,1370.2363,1370.2429,,,,0,13,13,13,1,175,105,,,,,,,,
,,5ec53b28be5c9d2fd7d624f4,65af545bba3c4b3e6931706e,2024-01-23_05h54.00.317,bars,2023.2.3,Win32,142.8571429,657b66ea316d21385b68909f,,,,,,,,,,,1370.2433,1371.2429,,,1371.7431,1371.993,,122,122,,,,,,,,,,,,,,,,bars/004.png,bars/mask006.png,,,,,,,,,,,,9,2,,,,,,,10,10,10,10,,,,,,,,,,,1371.2429,1371.743,1371.993,1375.6737,space,3.6744,,1375.6737,83,3,1376.6736,1376.6737,1376.6809,,,,0,14,14,14,1,25,125,,,,,,,,
,,5ec53b28be5c9d2fd7d624f4,65af545bba3c4b3e6931706e,2024-01-23_05h54.00.317,bars,2023.2.3,Win32,142.8571429,657b66ea316d21385b68909f,,,,,,,,,,,1376.681,1377.6809,,,1378.1809,1378.4306,,16,16,,,,,,,,,,,,,,,,bars/045.png,bars/mask001.png,,,,,,,,,,,,8,2,,,,,,,8,10,6,10,,,,,,,,,,,1377.6809,1378.1808,1378.4306,1379.4029,space,0.9704,,1379.4029,84,6,1380.4027,1380.4028,1380.4034,,,,0,15,15,15,1,100,10,,,,,,,,
,,5ec53b28be5c9d2fd7d624f4,65af545bba3c4b3e6931706e,2024-01-23_05h54.00.317,bars,2023.2.3,Win32,142.8571429,657b66ea316d21385b68909f,,,,,,,,,,,1380.4037,1381.4029,,,1381.9032,1382.1531,,6,6,,,,,,,,,,,,,,,,bars/012.png,bars/mask009.png,,,,,,,,,,,,6,2,,,,,,,10,10,10,9,,,,,,,,,,,1381.403,1381.9031,1382.1531,1385.882,space,3.7224,,1385.882,84,9,1386.8823,1386.8823,1386.889,,,,0,16,16,16,1,90,15,,,,,,,,
,,5ec53b28be5c9d2fd7d624f4,65af545bba3c4b3e6931706e,2024-01-23_05h54.00.317,bars,2023.2.3,Win32,142.8571429,657b66ea316d21385b68909f,,,,,,,,,,,1386.8891,1387.889,,,1388.3889,1388.639,,74,74,,,,,,,,,,,,,,,,bars/042.png,bars/mask004.png,,,,,,,,,,,,10,2,,,,,,,10,10,10,10,,,,,,,,,,,1387.889,1388.3889,1388.639,1391.0702,space,2.4248,,1391.0703,71,1,1392.0695,1392.0696,1392.0761,,,,0,17,17,17,1,145,75,,,,,,,,
,,5ec53b28be5c9d2fd7d624f4,65af545bba3c4b3e6931706e,2024-01-23_05h54.00.317,bars,2023.2.3,Win32,142.8571429,657b66ea316d21385b68909f,,,,,,,,,,,1392.0763,1393.0766,,,1393.5769,1393.8268,,72,72,,,,,,,,,,,,,,,,bars/021.png,bars/mask000.png,,,,,,,,,,,,9,2,,,,,,,10,10,9,10,,,,,,,,,,,1393.0766,1393.5768,1393.8269,1396.5003,space,2.6701,,1396.5003,83,2,1397.5002,1397.5002,1397.5066,,,,0,18,18,18,1,155,70,,,,,,,,
,,5ec53b28be5c9d2fd7d624f4,65af545bba3c4b3e6931706e,2024-01-23_05h54.00.317,bars,2023.2.3,Win32,142.8571429,657b66ea316d21385b68909f,,,,,,,,,,,1397.5067,1398.5074,,,1399.0072,1399.2574,,8,188,,,,,,,,,,,,,,,,bars/014.png,bars/mask001.png,,,,,,,,,,,,6,2,,,,,,,8,8,10,8,,,,,,,,,,,1398.5074,1399.0072,1399.2575,1401.4381,space,2.1731,,1401.4382,72,8,1402.438,1402.438,1402.4386,,,,0,19,19,19,1,80,0,,,,,,,,
,,5ec53b28be5c9d2fd7d624f4,65af545bba3c4b3e6931706e,2024-01-23_05h54.00.317,bars,2023.2.3,Win32,142.8571429,657b66ea316d21385b68909f,,,,,,,,,,,1402.4388,1403.438,,,1403.9378,1404.1879,,135,135,,,,,,,,,,,,,,,,bars/005.png,bars/mask003.png,,,,,,,,,,,,4,2,,,,,,,10,6,10,5,,,,,,,,,,,1403.438,1403.9378,1404.188,1406.1392,space,1.9465,,1406.1392,55,5,1407.1396,1407.1396,1407.1463,,,,0,20,20,20,1,10,140,,,,,,,,
,,5ec53b28be5c9d2fd7d624f4,65af545bba3c4b3e6931706e,2024-01-23_05h54.00.317,bars,2023.2.3,Win32,142.8571429,657b66ea316d21385b68909f,,,,,,,,,,,1407.1465,1408.1461,,,1408.6462,1408.8961,,98,98,,,,,,,,,,,,,,,,bars/006.png,bars/mask008.png,,,,,,,,,,,,5,2,,,,,,,10,4,10,5,,,,,,,,,,,1408.1462,1408.6462,1408.8961,1410.5908,space,1.6931,,1410.5908,63,2,1411.5909,1411.5909,1411.5915,,,,0,21,21,21,1,35,100,,,,,,,,
,,5ec53b28be5c9d2fd7d624f4,65af545bba3c4b3e6931706e,2024-01-23_05h54.00.317,bars,2023.2.3,Win32,142.8571429,657b66ea316d21385b68909f,,,,,,,,,,,1411.5917,1412.5907,,,1413.0907,1413.3406,,76,76,,,,,,,,,,,,,,,,bars/042.png,bars/mask003.png,,,,,,,,,,,,0,2,,,,,,,8,2,9,0,,,,,,,,,,,1412.5907,1413.0906,1413.3407,1414.8479,space,1.5015,,1414.848,69,1,1415.8478,1415.8478,1415.8486,,,,0,22,22,22,1,145,75,,,,,,,,
,,5ec53b28be5c9d2fd7d624f4,65af545bba3c4b3e6931706e,2024-01-23_05h54.00.317,bars,2023.2.3,Win32,142.8571429,657b66ea316d21385b68909f,,,,,,,,,,,1415.8487,1416.8477,,,1417.348,1417.5976,,10,10,,,,,,,,,,,,,,,,bars/013.png,bars/mask005.png,,,,,,,,,,,,3,2,,,,,,,6,4,6,3,,,,,,,,,,,1416.8477,1417.348,1417.5977,1418.6394,space,1.0372,,1418.6394,65,0,1419.6393,1419.6393,1419.6397,,,,0,23,23,23,1,75,10,,,,,,,,
,,5ec53b28be5c9d2fd7d624f4,65af545bba3c4b3e6931706e,2024-01-23_05h54.00.317,bars,2023.2.3,Win32,142.8571429,657b66ea316d21385b68909f,,,,,,,,,,,1419.6399,1420.6393,,,1421.1394,1421.3894,,161,161,,,,,,,,,,,,,,,,bars/044.png,bars/mask008.png,,,,,,,,,,,,5,2,,,,,,,8,6,8,6,,,,,,,,,,,1420.6394,1421.1393,1421.3894,1425.1186,space,3.7232,,1425.1188,86,6,1426.1188,1426.1188,1426.1273,,,,0,24,24,24,1,75,155,,,,,,,,
,,5ec53b28be5c9d2fd7d624f4,65af545bba3c4b3e6931706e,2024-01-23_05h54.00.317,bars,2023.2.3,Win32,142.8571429,657b66ea316d21385b68909f,,,,,,,,,,,1426.1274,1427.1258,,,1427.6255,1427.8756,,108,108,,,,,,,,,,,,,,,,bars/039.png,bars/mask001.png,,,,,,,,,,,,5,2,,,,,,,10,4,10,5,,,,,,,,,,,1427.1258,1427.6255,1427.8757,1431.8409,space,3.9589,,1431.8409,67,3,1432.8409,1432.8409,1432.8482,,,,0,25,25,25,1,175,105,,,,,,,,
,,5ec53b28be5c9d2fd7d624f4,65af545bba3c4b3e6931706e,2024-01-23_05h54.00.317,bars,2023.2.3,Win32,142.8571429,657b66ea316d21385b68909f,,,,,,,,,,,1432.8483,1433.8477,,,1434.348,1434.5979,,163,163,,,,,,,,,,,,,,,,bars/044.png,bars/mask008.png,,,,,,,,,,,,1,2,,,,,,,10,2,10,2,,,,,,,,,,,1433.8477,1434.3479,1434.5979,1438.848,space,4.2444,,1438.848,88,8,1439.8482,1439.8482,1439.855,,,,0,26,26,26,1,75,155,,,,,,,,
,,5ec53b28be5c9d2fd7d624f4,65af545bba3c4b3e6931706e,2024-01-23_05h54.00.317,bars,2023.2.3,Win32,142.8571429,657b66ea316d21385b68909f,,,,,,,,,,,1439.8551,1440.8548,,,1441.3549,1441.6051,,75,75,,,,,,,,,,,,,,,,bars/029.png,bars/mask004.png,,,,,,,,,,,,4,1,,,,,,,8,4,7,4,,,,,,,,,,,1440.8548,1441.3549,1441.6051,1443.2024,space,1.5928,,1443.2025,15,30,1444.2021,1444.2021,1444.2032,,,,0,27,27,27,1,90,45,,,,,,,,
,,5ec53b28be5c9d2fd7d624f4,65af545bba3c4b3e6931706e,2024-01-23_05h54.00.317,bars,2023.2.3,Win32,142.8571429,657b66ea316d21385b68909f,,,,,,,,,,,1444.2033,1445.202,,,1445.7024,1445.9522,,84,84,,,,,,,,,,,,,,,,bars/029.png,bars/mask000.png,,,,,,,,,,,,3,1,,,,,,,6,6,4,7,,,,,,,,,,,1445.2021,1445.7024,1445.9523,1449.4245,space,3.468,,1449.4245,6,39,1450.4247,1450.4248,1450.4313,,,,0,28,28,28,1,90,45,,,,,,,,
,,5ec53b28be5c9d2fd7d624f4,65af545bba3c4b3e6931706e,2024-01-23_05h54.00.317,bars,2023.2.3,Win32,142.8571429,657b66ea316d21385b68909f,,,,,,,,,,,1450.4314,1451.4315,,,1451.9317,1452.1814,,89,89,,,,,,,,,,,,,,,,bars/014.png,bars/mask004.png,,,,,,,,,,,,2,1,,,,,,,4,4,3,4,,,,,,,,,,,1451.4315,1451.9317,1452.1814,1452.8621,space,0.6768,,1452.8621,9,89,1453.8623,1453.8623,1453.863,,,,0,29,29,29,1,80,0,,,,,,,,
,,5ec53b28be5c9d2fd7d624f4,65af545bba3c4b3e6931706e,2024-01-23_05h54.00.317,bars,2023.2.3,Win32,142.8571429,657b66ea316d21385b68909f,,,,,,,,,,,1453.8631,1454.8622,,,1455.3623,1455.6123,,58,58,,,,,,,,,,,,,,,,bars/044.png,bars/mask001.png,,,,,,,,,,,,3,1,,,,,,,6,2,6,3,,,,,,,,,,,1454.8622,1455.3623,1455.6123,1457.8277,space,2.209,,1457.8277,17,83,1458.8276,1458.8276,1458.8342,,,,0,30,30,30,1,75,155,,,,,,,,
,,5ec53b28be5c9d2fd7d624f4,65af545bba3c4b3e6931706e,2024-01-23_05h54.00.317,bars,2023.2.3,Win32,142.8571429,657b66ea316d21385b68909f,,,,,,,,,,,1458.8344,1459.8345,,,1460.3342,1460.5842,,139,139,,,,,,,,,,,,,,,,bars/043.png,bars/mask000.png,,,,,,,,,,,,0,2,,,,,,,4,0,5,0,,,,,,,,,,,1459.8346,1460.3342,1460.5842,1463.3483,space,2.7572,,1463.3484,71,9,1464.3482,1464.3483,1464.3552,,,,0,31,31,31,1,30,130,,,,,,,,
,,5ec53b28be5c9d2fd7d624f4,65af545bba3c4b3e6931706e,2024-01-23_05h54.00.317,bars,2023.2.3,Win32,142.8571429,657b66ea316d21385b68909f,,,,,,,,,,,1464.3554,1465.3551,,,1465.8552,1466.1055,,40,40,,,,,,,,,,,,,,,,bars/007.png,bars/mask001.png,,,,,,,,,,,,1,2,,,,,,,6,2,6,2,,,,,,,,,,,1465.3551,1465.8551,1466.1055,1466.8136,space,0.7041,,1466.8136,45,15,1467.8137,1467.8137,1467.8143,,,,0,32,32,32,1,175,55,,,,,,,,
,,5ec53b28be5c9d2fd7d624f4,65af545bba3c4b3e6931706e,2024-01-23_05h54.00.317,bars,2023.2.3,Win32,142.8571429,657b66ea316d21385b68909f,,,,,,,,,,,1467.8146,1468.8135,,,1469.3134,1469.5635,,27,207,,,,,,,,,,,,,,,,bars/036.png,bars/mask004.png,,,,,,,,,,,,4,2,,,,,,,8,4,10,5,,,,,,,,,,,1468.8135,1469.3134,1469.5636,1474.015,space,4.4492,,1474.015,62,7,1475.0152,1475.0153,1475.0225,,,,0,33,33,33,1,145,20,,,,,,,,
,,5ec53b28be5c9d2fd7d624f4,65af545bba3c4b3e6931706e,2024-01-23_05h54.00.317,bars,2023.2.3,Win32,142.8571429,657b66ea316d21385b68909f,,,,,,,,,,,1475.0227,1476.0223,,,1476.522,1476.772,,75,75,,,,,,,,,,,,,,,,bars/030.png,bars/mask000.png,,,,,,,,,,,,3,2,,,,,,,10,6,8,5,,,,,,,,,,,1476.0223,1476.522,1476.772,1478.7927,space,2.0191,,1478.7927,65,10,1479.793,1479.793,1479.7998,,,,0,34,34,34,1,140,65,,,,,,,,
,,5ec53b28be5c9d2fd7d624f4,65af545bba3c4b3e6931706e,2024-01-23_05h54.00.317,bars,2023.2.3,Win32,142.8571429,657b66ea316d21385b68909f,,,,,,,,,,,1479.7998,1480.7997,,,1481.2997,1481.5498,,85,265,,,,,,,,,,,,,,,,bars/042.png,bars/mask000.png,,,,,,,,,,,,5,2,,,,,,,10,8,10,8,,,,,,,,,,,1480.7998,1481.2997,1481.5498,1485.1888,space,3.6357,,1485.1888,60,10,1486.1891,1486.1891,1486.1963,,,,0,35,35,35,1,145,75,,,,,,,,
,,5ec53b28be5c9d2fd7d624f4,65af545bba3c4b3e6931706e,2024-01-23_05h54.00.317,bars,2023.2.3,Win32,142.8571429,657b66ea316d21385b68909f,,,,,,,,,,,1486.1965,1487.1959,,,1487.6957,1487.9459,,6,186,,,,,,,,,,,,,,,,bars/040.png,bars/mask005.png,,,,,,,,,,,,10,2,,,,,,,8,10,8,10,,,,,,,,,,,1487.1959,1487.6957,1487.9459,1489.6471,space,1.6975,,1489.6471,46,1,1490.6474,1490.6474,1490.6541,,,,0,36,36,36,1,140,5,,,,,,,,
,,5ec53b28be5c9d2fd7d624f4,65af545bba3c4b3e6931706e,2024-01-23_05h54.00.317,bars,2023.2.3,Win32,142.8571429,657b66ea316d21385b68909f,,,,,,,,,,,1490.6543,1491.6543,,,1492.1543,1492.4043,,158,158,,,,,,,,,,,,,,,,bars/005.png,bars/mask002.png,,,,,,,,,,,,4,2,,,,,,,6,10,5,9,,,,,,,,,,,1491.6543,1492.1543,1492.4043,1493.0568,space,0.6481,,1493.0569,32,18,1494.057,1494.0571,1494.0577,,,,0,37,37,37,1,10,140,,,,,,,,
,,5ec53b28be5c9d2fd7d624f4,65af545bba3c4b3e6931706e,2024-01-23_05h54.00.317,bars,2023.2.3,Win32,142.8571429,657b66ea316d21385b68909f,,,,,,,,,,,1494.0579,1495.0569,,,1495.5571,1495.8072,,87,87,,,,,,,,,,,,,,,,bars/019.png,bars/mask007.png,,,,,,,,,,,,3,2,,,,,,,4,8,4,8,,,,,,,,,,,1495.057,1495.5571,1495.8072,1498.8211,space,3.0075,,1498.8211,42,18,1499.8209,1499.821,1499.8275,,,,0,38,38,38,1,45,105,,,,,,,,
,,5ec53b28be5c9d2fd7d624f4,65af545bba3c4b3e6931706e,2024-01-23_05h54.00.317,bars,2023.2.3,Win32,142.8571429,657b66ea316d21385b68909f,,,,,,,,,,,1499.8277,1500.8277,,,1501.3277,1501.5777,,174,174,,,,,,,,,,,,,,,,bars/024.png,bars/mask008.png,,,,,,,,,,,,4,2,,,,,,,2,6,2,5,,,,,,,,,,,1500.8277,1501.3277,1501.5778,1502.4181,space,0.837,,1502.4182,54,4,1503.4182,1503.4182,1503.4187,,,,0,39,39,39,1,120,170,,,,,,,,
,,5ec53b28be5c9d2fd7d624f4,65af545bba3c4b3e6931706e,2024-01-23_05h54.00.317,bars,2023.2.3,Win32,142.8571429,657b66ea316d21385b68909f,,,,,,,,,,,1503.4189,1504.4179,,,1504.918,1505.168,,62,62,,,,,,,,,,,,,,,,bars/029.png,bars/mask003.png,,,,,,,,,,,,3,2,,,,,,,4,8,5,7,,,,,,,,,,,1504.4179,1504.9179,1505.168,1507.9115,space,2.7374,,1507.9115,28,17,1508.9115,1508.9115,1508.9185,,,,0,40,40,40,1,90,45,,,,,,,,
,,5ec53b28be5c9d2fd7d624f4,65af545bba3c4b3e6931706e,2024-01-23_05h54.00.317,bars,2023.2.3,Win32,142.8571429,657b66ea316d21385b68909f,,,,,,,,,,,1508.9186,1509.9184,,,1510.4186,1510.6682,,92,92,,,,,,,,,,,,,,,,bars/011.png,bars/mask006.png,,,,,,,,,,,,4,2,,,,,,,2,6,2,5,,,,,,,,,,,1509.9185,1510.4186,1510.6682,1511.3418,space,0.6683,,1511.3419,68,7,1512.3417,1512.3417,1512.3423,,,,0,41,41,41,1,160,85,,,,,,,,
,,5ec53b28be5c9d2fd7d624f4,65af545bba3c4b3e6931706e,2024-01-23_05h54.00.317,bars,2023.2.3,Win32,142.8571429,657b66ea316d21385b68909f,,,,,,,,,,,1512.3424,1513.342,,,1513.8418,1514.092,,170,170,,,,,,,,,,,,,,,,bars/048.png,bars/mask005.png,,,,,,,,,,,,3,2,,,,,,,0,4,0,3,,,,,,,,,,,1513.342,1513.8418,1514.0921,1515.8626,space,1.7633,,1515.8626,60,5,1516.8629,1516.863,1516.8698,,,,0,42,42,42,1,50,175,,,,,,,,
,,5ec53b28be5c9d2fd7d624f4,65af545bba3c4b3e6931706e,2024-01-23_05h54.00.317,bars,2023.2.3,Win32,142.8571429,657b66ea316d21385b68909f,,,,,,,,,,,1516.87,1517.8699,,,1518.3696,1518.6196,,26,26,,,,,,,,,,,,,,,,bars/017.png,bars/mask006.png,,,,,,,,,,,,1,2,,,,,,,2,2,1,3,,,,,,,,,,,1517.87,1518.3696,1518.6196,1520.6753,space,2.0539,,1520.6754,61,19,1521.6755,1521.6755,1521.6823,,,,0,43,43,43,1,145,45,,,,,,,,
,,5ec53b28be5c9d2fd7d624f4,65af545bba3c4b3e6931706e,2024-01-23_05h54.00.317,bars,2023.2.3,Win32,142.8571429,657b66ea316d21385b68909f,,,,,,,,,,,1521.6824,1522.6825,,,1523.1823,1523.4323,,67,67,,,,,,,,,,,,,,,,bars/038.png,bars/mask004.png,,,,,,,,,,,,4,2,,,,,,,4,4,5,4,,,,,,,,,,,1522.6825,1523.1822,1523.4323,1525.4743,space,2.0362,,1525.4743,82,3,1526.4741,1526.4742,1526.4749,,,,0,44,44,44,1,165,70,,,,,,,,
,,5ec53b28be5c9d2fd7d624f4,65af545bba3c4b3e6931706e,2024-01-23_05h54.00.317,bars,2023.2.3,Win32,142.8571429,657b66ea316d21385b68909f,,,,,,,,,,,1526.475,1527.4739,,,1527.9738,1528.2239,,77,77,,,,,,,,,,,,,,,,bars/017.png,bars/mask004.png,,,,,,,,,,,,0,2,,,,,,,6,2,5,2,,,,,,,,,,,1527.4739,1527.9738,1528.2239,1529.1063,space,0.8756,,1529.1063,68,32,1530.1061,1530.1062,1530.1068,,,,0,45,45,45,1,145,45,,,,,,,,
,,5ec53b28be5c9d2fd7d624f4,65af545bba3c4b3e6931706e,2024-01-23_05h54.00.317,bars,2023.2.3,Win32,142.8571429,657b66ea316d21385b68909f,,,,,,,,,,,1530.107,1531.1061,,,1531.6059,1531.8558,,131,131,,,,,,,,,,,,,,,,bars/043.png,bars/mask006.png,,,,,,,,,,,,2,2,,,,,,,4,4,5,2,,,,,,,,,,,1531.1061,1531.6058,1531.8559,1534.648,space,2.7866,,1534.6481,79,1,1535.6475,1535.6475,1535.654,,,,0,46,46,46,1,30,130,,,,,,,,
,,5ec53b28be5c9d2fd7d624f4,65af545bba3c4b3e6931706e,2024-01-23_05h54.00.317,bars,2023.2.3,Win32,142.8571429,657b66ea316d21385b68909f,,,,,,,,,,,1535.654,1536.6547,,,1537.1548,1537.4045,,91,91,,,,,,,,,,,,,,,,bars/009.png,bars/mask006.png,,,,,,,,,,,,1,2,,,,,,,6,2,7,2,,,,,,,,,,,1536.6547,1537.1548,1537.4045,1538.4879,space,1.0808,,1538.488,76,14,1539.488,1539.488,1539.4885,,,,0,47,47,47,1,15,105,,,,,,,,
,,5ec53b28be5c9d2fd7d624f4,65af545bba3c4b3e6931706e,2024-01-23_05h54.00.317,bars,2023.2.3,Win32,142.8571429,657b66ea316d21385b68909f,,,,,,,,,,,1539.4887,1540.4879,,,1540.9879,1541.2382,,171,171,,,,,,,,,,,,,,,,bars/033.png,bars/mask009.png,,,,,,,,,,,,1,2,,,,,,,4,4,3,3,,,,,,,,,,,1540.4879,1540.9878,1541.2383,1542.9184,space,1.6741,,1542.9185,34,16,1543.9184,1543.9184,1543.9188,,,,0,48,48,48,1,25,155,,,,,,,,
,,5ec53b28be5c9d2fd7d624f4,65af545bba3c4b3e6931706e,2024-01-23_05h54.00.317,bars,2023.2.3,Win32,142.8571429,657b66ea316d21385b68909f,,,,,,,,,,,1543.9189,1544.9184,,,1545.4189,1545.6686,,42,42,,,,,,,,,,,,,,,,bars/017.png,bars/mask008.png,,,,,,,,,,,,2,2,,,,,,,2,2,1,2,,,,,,,,,,,1544.9184,1545.4189,1545.6686,1546.9949,space,1.3236,,1546.9949,77,3,1547.9949,1547.995,1547.9955,,,,0,49,49,49,1,145,45,,,,,,,,
,,5ec53b28be5c9d2fd7d624f4,65af545bba3c4b3e6931706e,2024-01-23_05h54.00.317,bars,2023.2.3,Win32,142.8571429,657b66ea316d21385b68909f,,,,,,,,,,,,,,,,,,,,,,,,,,,,,,,,,,,,,,,,,,,,,,,,,,,,,,,,,,,,,,,,,,,,,,,,,,,,,,,,,,,,,,,,,,,,,1547.9956,1607.9957,0,3,3,4,1,sequence_tables/blk020.csv
,,5ec53b28be5c9d2fd7d624f4,65af545bba3c4b3e6931706e,2024-01-23_05h54.00.317,bars,2023.2.3,Win32,142.8571429,657b66ea316d21385b68909f,,,,,,,,,,,1612.1776,1613.1695,,,1613.6754,1613.9209,,149,-31,,,,,,,,,,,,,,,,bars/000.png,bars/mask001.png,,,,,,,,,,,,6,2,,,,,,,10,7,10,7,,,,,,1608.0066,1612.1694,space,4.1592,,1613.1695,1613.6754,1613.9209,1616.4333,space,2.5093,,1616.4334,71,4,1617.4333,1617.4334,1617.4474,,,,0,0,0,0,1,40,145,,,,,,,,
,,5ec53b28be5c9d2fd7d624f4,65af545bba3c4b3e6931706e,2024-01-23_05h54.00.317,bars,2023.2.3,Win32,142.8571429,657b66ea316d21385b68909f,,,,,,,,,,,1617.4477,1618.4472,,,1618.9472,1619.1971,,70,70,,,,,,,,,,,,,,,,bars/047.png,bars/mask004.png,,,,,,,,,,,,8,2,,,,,,,8,9,8,8,,,,,,,,,,,1618.4472,1618.9472,1619.1971,1621.35,space,2.1489,,1621.3502,55,0,1622.3507,1622.3508,1622.3631,,,,0,1,1,1,1,15,70,,,,,,,,
,,5ec53b28be5c9d2fd7d624f4,65af545bba3c4b3e6931706e,2024-01-23_05h54.00.317,bars,2023.2.3,Win32,142.8571429,657b66ea316d21385b68909f,,,,,,,,,,,1622.3633,1623.3638,,,1623.8638,1624.1139,,85,85,,,,,,,,,,,,,,,,bars/026.png,bars/mask008.png,,,,,,,,,,,,7,2,,,,,,,6,7,4,7,,,,,,,,,,,1623.3639,1623.8638,1624.1139,1626.0925,space,1.9764,,1626.0925,50,0,1627.0933,1627.0934,1627.1084,,,,0,2,2,2,1,35,85,,,,,,,,
,,5ec53b28be5c9d2fd7d624f4,65af545bba3c4b3e6931706e,2024-01-23_05h54.00.317,bars,2023.2.3,Win32,142.8571429,657b66ea316d21385b68909f,,,,,,,,,,,1627.1088,1628.1069,,,1628.607,1628.8529,,70,70,,,,,,,,,,,,,,,,bars/036.png,bars/mask001.png,,,,,,,,,,,,0,2,,,,,,,8,9,8,10,,,,,,,,,,,1628.1071,1628.607,1628.853,1629.7612,space,0.9057,,1629.7612,75,50,1630.7585,1630.7585,1630.7598,,,,0,3,3,3,1,145,20,,,,,,,,
,,5ec53b28be5c9d2fd7d624f4,65af545bba3c4b3e6931706e,2024-01-23_05h54.00.317,bars,2023.2.3,Win32,142.8571429,657b66ea316d21385b68909f,,,,,,,,,,,1630.7602,1631.7608,,,1632.2611,1632.5111,,139,139,,,,,,,,,,,,,,,,bars/043.png,bars/mask006.png,,,,,,,,,,,,5,2,,,,,,,10,7,9,7,,,,,,,,,,,1631.7608,1632.2611,1632.5111,1634.6697,space,2.1525,,1634.6698,71,9,1635.6695,1635.6697,1635.6707,,,,0,4,4,4,1,30,130,,,,,,,,
,,5ec53b28be5c9d2fd7d624f4,65af545bba3c4b3e6931706e,2024-01-23_05h54.00.317,bars,2023.2.3,Win32,142.8571429,657b66ea316d21385b68909f,,,,,,,,,,,1635.6711,1636.6697,,,1637.1696,1637.4197,,93,93,,,,,,,,,,,,,,,,bars/001.png,bars/mask000.png,,,,,,,,,,,,5,2,,,,,,,8,5,8,7,,,,,,,,,,,1636.6697,1637.1696,1637.4197,1639.5033,space,2.0815,,1639.5034,37,8,1640.503,1640.503,1640.5128,,,,0,5,5,5,1,130,85,,,,,,,,
,,5ec53b28be5c9d2fd7d624f4,65af545bba3c4b3e6931706e,2024-01-23_05h54.00.317,bars,2023.2.3,Win32,142.8571429,657b66ea316d21385b68909f,,,,,,,,,,,1640.5129,1641.5098,,,1642.0101,1642.2601,,170,170,,,,,,,,,,,,,,,,bars/033.png,bars/mask007.png,,,,,,,,,,,,2,2,,,,,,,10,3,10,3,,,,,,,,,,,1641.5098,1642.01,1642.2601,1643.1349,space,0.8704,,1643.1349,35,15,1644.1349,1644.1349,1644.1471,,,,0,6,6,6,1,25,155,,,,,,,,
,,5ec53b28be5c9d2fd7d624f4,65af545bba3c4b3e6931706e,2024-01-23_05h54.00.317,bars,2023.2.3,Win32,142.8571429,657b66ea316d21385b68909f,,,,,,,,,,,1644.1473,1645.1491,,,1645.6499,1645.8988,,16,16,,,,,,,,,,,,,,,,bars/012.png,bars/mask001.png,,,,,,,,,,,,2,2,,,,,,,8,5,6,2,,,,,,,,,,,1645.1491,1645.6499,1645.8989,1648.5657,space,2.6621,,1648.5658,74,1,1649.5656,1649.5658,1649.5791,,,,0,7,7,7,1,90,15,,,,,,,,
,,5ec53b28be5c9d2fd7d624f4,65af545bba3c4b3e6931706e,2024-01-23_05h54.00.317,bars,2023.2.3,Win32,142.8571429,657b66ea316d21385b68909f,,,,,,,,,,,1649.5794,1650.5795,,,1651.0796,1651.3295,,173,173,,,,,,,,,,,,,,,,bars/024.png,bars/mask003.png,,,,,,,,,,,,2,2,,,,,,,10,3,10,2,,,,,,,,,,,1650.5795,1651.0795,1651.3296,1652.1073,space,0.7732,,1652.1074,53,3,1653.1074,1653.1075,1653.1083,,,,0,8,8,8,1,120,170,,,,,,,,
,,5ec53b28be5c9d2fd7d624f4,65af545bba3c4b3e6931706e,2024-01-23_05h54.00.317,bars,2023.2.3,Win32,142.8571429,657b66ea316d21385b68909f,,,,,,,,,,,1653.1087,1654.1074,,,1654.6073,1654.8583,,90,90,,,,,,,,,,,,,,,,bars/018.png,bars/mask008.png,,,,,,,,,,,,3,2,,,,,,,10,1,10,3,,,,,,,,,,,1654.1074,1654.6073,1654.8584,1657.3506,space,2.4865,,1657.3506,60,0,1658.3509,1658.351,1658.3599,,,,0,9,9,9,1,150,90,,,,,,,,
,,5ec53b28be5c9d2fd7d624f4,65af545bba3c4b3e6931706e,2024-01-23_05h54.00.317,bars,2023.2.3,Win32,142.8571429,657b66ea316d21385b68909f,,,,,,,,,,,1658.3602,1659.3573,,,1659.8574,1660.1073,,152,152,,,,,,,,,,,,,,,,bars/000.png,bars/mask005.png,,,,,,,,,,,,0,2,,,,,,,8,0,9,0,,,,,,,,,,,1659.3574,1659.8573,1660.1074,1660.8091,space,0.6976,,1660.8092,68,7,1661.8094,1661.8094,1661.8105,,,,0,10,10,10,1,40,145,,,,,,,,
,,5ec53b28be5c9d2fd7d624f4,65af545bba3c4b3e6931706e,2024-01-23_05h54.00.317,bars,2023.2.3,Win32,142.8571429,657b66ea316d21385b68909f,,,,,,,,,,,1661.8109,1662.8086,,,1663.3112,1663.5599,,33,213,,,,,,,,,,,,,,,,bars/017.png,bars/mask008.png,,,,,,,,,,,,1,2,,,,,,,6,2,7,2,,,,,,,,,,,1662.8087,1663.3111,1663.56,1666.052,space,2.4856,,1666.052,68,12,1667.0518,1667.0519,1667.06,,,,0,11,11,11,1,145,45,,,,,,,,
,,5ec53b28be5c9d2fd7d624f4,65af545bba3c4b3e6931706e,2024-01-23_05h54.00.317,bars,2023.2.3,Win32,142.8571429,657b66ea316d21385b68909f,,,,,,,,,,,1667.0606,1668.0597,,,1668.5597,1668.8087,,14,14,,,,,,,,,,,,,,,,bars/036.png,bars/mask007.png,,,,,,,,,,,,0,2,,,,,,,8,0,9,0,,,,,,,,,,,1668.0597,1668.5597,1668.8088,1671.3383,space,2.5221,,1671.3383,49,6,1672.3374,1672.3375,1672.3459,,,,0,12,12,12,1,145,20,,,,,,,,
