init_variables.started,init_variables.stopped,participant,session,date,expName,psychopyVersion,OS,frameRate,study_id,instruction_exp.started,instruction_exp.stopped,key_resp_8.keys,key_resp_8.rt,key_resp_8.duration,instruction_single.started,instruction_single.stopped,key_resp_2.keys,key_resp_2.rt,key_resp_2.duration,interval.started,interval.stopped,cue_single.started,cue_single.stopped,mask.started,mask.stopped,ori_response_single.started,res_ori,res,ori_response_single.stopped,key_resp_single.keys,key_resp_single.rt,key_resp_single.duration,disp_single.started,disp_single.stopped,key_resp.keys,key_resp.rt,key_resp.duration,single.thisRepN,single.thisTrialN,single.thisN,single.thisIndex,single.ran,ori,path,mask_path,instruction_bandit.started,instruction_bandit.stopped,key_resp_6.keys,key_resp_6.rt,key_resp_6.duration,cue_bandit.started,cue_bandit.stopped,bandit_res.keys,bandit_res.rt,bandit_res.duration,outcome_bandit.started,rew,action,outcome_bandit.stopped,bandit.thisRepN,bandit.thisTrialN,bandit.thisN,bandit.thisIndex,bandit.ran,actual_rew1,actual_rew2,rew1,rew2,instruction_task.started,instruction_task.stopped,key_resp_7.keys,key_resp_7.rt,key_resp_7.duration,wait_ready.started,wait_ready.stopped,key_resp_3.keys,key_resp_3.rt,key_resp_3.duration,cue.started,cue.stopped,ori_response.started,ori_response.stopped,key_resp_5.keys,key_resp_5.rt,key_resp_5.duration,outcome.started,diff1,diff2,outcome.stopped,disp_outcome_practice.started,disp_outcome_practice.stopped,key_resp_4.keys,key_resp_4.rt,key_resp_4.duration,trials.thisRepN,trials.thisTrialN,trials.thisN,trials.thisIndex,trials.ran,ori1,ori2,break_blk.started,break_blk.stopped,block.thisRepN,block.thisTrialN,block.thisN,block.thisIndex,block.ran,condition_file
0.0002,0.0002,615da9ee365ab7d547b98979,65af55ead5e28191f76a94e3,2024-01-23_08h01.03.368,bars,2023.2.3,Win32,59.88023952,657b66ea316d21385b68909f,,,,,,,,,,,,,,,,,,,,,,,,,,,,,,,,,,,,,,,,,,,,,,,,,,,,,,,,,,,,,,,,,,,,,,,,,,,,,,,,,,,,,,,,,,,,,,,,,,,,
,,615da9ee365ab7d547b98979,65af55ead5e28191f76a94e3,2024-01-23_08h01.03.368,bars,2023.2.3,Win32,59.88023952,657b66ea316d21385b68909f,0.0004,106.3954,y,106.3882,,,,,,,,,,,,,,,,,,,,,,,,,,,,,,,,,,,,,,,,,,,,,,,,,,,,,,,,,,,,,,,,,,,,,,,,,,,,,,,,,,,,,,,,,,,,,,,,
,,615da9ee365ab7d547b98979,65af55ead5e28191f76a94e3,2024-01-23_08h01.03.368,bars,2023.2.3,Win32,59.88023952,657b66ea316d21385b68909f,,,,,,106.3955,164.4503,space,58.0228,,,,,,,,,,,,,,,,,,,,,,,,,,,,,,,,,,,,,,,,,,,,,,,,,,,,,,,,,,,,,,,,,,,,,,,,,,,,,,,,,,,,,,,,,,,
,,615da9ee365ab7d547b98979,65af55ead5e28191f76a94e3,2024-01-23_08h01.03.368,bars,2023.2.3,Win32,59.88023952,657b66ea316d21385b68909f,,,,,,,,,,,164.4536,165.4522,165.4523,165.961,165.961,166.2015,166.2016,139,139,181.4285,space,15.1939,,181.4287,189.7807,space,8.3373,,0,0,0,3,1,20,bars/single003.png,bars/mask005.png,,,,,,,,,,,,,,,,,,,,,,,,,,,,,,,,,,,,,,,,,,,,,,,,,,,,,,,,,,,,,,,,
,,615da9ee365ab7d547b98979,65af55ead5e28191f76a94e3,2024-01-23_08h01.03.368,bars,2023.2.3,Win32,59.88023952,657b66ea316d21385b68909f,,,,,,,,,,,189.7884,190.7785,190.7785,191.2782,191.2783,191.5282,191.5282,49,49,195.9629,space,4.4161,,195.9629,201.7356,space,5.7308,,0,1,1,9,1,20,bars/single009.png,bars/mask006.png,,,,,,,,,,,,,,,,,,,,,,,,,,,,,,,,,,,,,,,,,,,,,,,,,,,,,,,,,,,,,,,,
,,615da9ee365ab7d547b98979,65af55ead5e28191f76a94e3,2024-01-23_08h01.03.368,bars,2023.2.3,Win32,59.88023952,657b66ea316d21385b68909f,,,,,,,,,,,201.7425,202.7348,202.7348,203.2277,203.2277,203.4682,203.4682,164,164,208.6993,space,5.1987,,208.6993,214.2131,space,5.4826,,0,2,2,0,1,150,bars/single000.png,bars/mask006.png,,,,,,,,,,,,,,,,,,,,,,,,,,,,,,,,,,,,,,,,,,,,,,,,,,,,,,,,,,,,,,,,
,,615da9ee365ab7d547b98979,65af55ead5e28191f76a94e3,2024-01-23_08h01.03.368,bars,2023.2.3,Win32,59.88023952,657b66ea316d21385b68909f,,,,,,,,,,,214.2194,215.2127,215.2127,215.7271,215.7271,215.979,215.979,39,39,220.0772,space,4.0836,,220.0772,231.9945,space,11.8987,,0,3,3,7,1,45,bars/single007.png,bars/mask009.png,,,,,,,,,,,,,,,,,,,,,,,,,,,,,,,,,,,,,,,,,,,,,,,,,,,,,,,,,,,,,,,,
,,615da9ee365ab7d547b98979,65af55ead5e28191f76a94e3,2024-01-23_08h01.03.368,bars,2023.2.3,Win32,59.88023952,657b66ea316d21385b68909f,,,,,,,,,,,232.0001,232.9885,232.9885,233.4878,233.4878,233.744,233.744,166,-14,239.0019,space,5.2388,,239.0019,271.1874,space,32.1538,,0,4,4,8,1,160,bars/single008.png,bars/mask004.png,,,,,,,,,,,,,,,,,,,,,,,,,,,,,,,,,,,,,,,,,,,,,,,,,,,,,,,,,,,,,,,,
,,615da9ee365ab7d547b98979,65af55ead5e28191f76a94e3,2024-01-23_08h01.03.368,bars,2023.2.3,Win32,59.88023952,657b66ea316d21385b68909f,,,,,,,,,,,271.1947,272.187,272.187,272.6867,272.6867,272.9366,272.9366,135,-45,278.8007,space,5.8382,,278.8008,282.699,space,3.8819,,0,5,5,2,1,145,bars/single002.png,bars/mask003.png,,,,,,,,,,,,,,,,,,,,,,,,,,,,,,,,,,,,,,,,,,,,,,,,,,,,,,,,,,,,,,,,
,,615da9ee365ab7d547b98979,65af55ead5e28191f76a94e3,2024-01-23_08h01.03.368,bars,2023.2.3,Win32,59.88023952,657b66ea316d21385b68909f,,,,,,,,,,,282.7078,283.6983,283.6983,284.1982,284.1982,284.448,284.448,4,4,286.5805,space,2.1203,,286.5805,288.9628,space,2.3615,,0,6,6,6,1,175,bars/single006.png,bars/mask005.png,,,,,,,,,,,,,,,,,,,,,,,,,,,,,,,,,,,,,,,,,,,,,,,,,,,,,,,,,,,,,,,,
,,615da9ee365ab7d547b98979,65af55ead5e28191f76a94e3,2024-01-23_08h01.03.368,bars,2023.2.3,Win32,59.88023952,657b66ea316d21385b68909f,,,,,,,,,,,288.963,289.9622,289.9622,290.4619,290.4619,290.7118,290.7118,42,222,295.2432,space,4.5064,,295.2432,298.5417,space,3.269,,0,7,7,5,1,55,bars/single005.png,bars/mask008.png,,,,,,,,,,,,,,,,,,,,,,,,,,,,,,,,,,,,,,,,,,,,,,,,,,,,,,,,,,,,,,,,
,,615da9ee365ab7d547b98979,65af55ead5e28191f76a94e3,2024-01-23_08h01.03.368,bars,2023.2.3,Win32,59.88023952,657b66ea316d21385b68909f,,,,,,,,,,,298.5498,299.5413,299.5413,300.0409,300.041,300.2909,300.2909,10,190,304.4391,space,4.1173,,304.4392,310.6075,space,6.144,,0,8,8,1,1,20,bars/single001.png,bars/mask006.png,,,,,,,,,,,,,,,,,,,,,,,,,,,,,,,,,,,,,,,,,,,,,,,,,,,,,,,,,,,,,,,,
,,615da9ee365ab7d547b98979,65af55ead5e28191f76a94e3,2024-01-23_08h01.03.368,bars,2023.2.3,Win32,59.88023952,657b66ea316d21385b68909f,,,,,,,,,,,310.6136,311.6025,311.6025,312.0932,312.0932,312.3354,312.3354,94,94,318.0263,space,5.6686,,318.0263,333.5799,space,15.5369,,0,9,9,4,1,95,bars/single004.png,bars/mask004.png,,,,,,,,,,,,,,,,,,,,,,,,,,,,,,,,,,,,,,,,,,,,,,,,,,,,,,,,,,,,,,,,
,,615da9ee365ab7d547b98979,65af55ead5e28191f76a94e3,2024-01-23_08h01.03.368,bars,2023.2.3,Win32,59.88023952,657b66ea316d21385b68909f,,,,,,,,,,,,,,,,,,,,,,,,,,,,,,,,,,,,,333.5857,368.6106,space,35.0139,,,,,,,,,,,,,,,,,,,,,,,,,,,,,,,,,,,,,,,,,,,,,,,,,,,,,,,,,,,,
,,615da9ee365ab7d547b98979,65af55ead5e28191f76a94e3,2024-01-23_08h01.03.368,bars,2023.2.3,Win32,59.88023952,657b66ea316d21385b68909f,,,,,,,,,,,,,,,,,,,,,,,,,,,,,,,,,,,,,,,,,,368.6173,374.5277,right,5.8876,,374.5279,2,2,375.5251,0,0,0,0,1,9,1,9,2,,,,,,,,,,,,,,,,,,,,,,,,,,,,,,,,,,,,,,,,,
,,615da9ee365ab7d547b98979,65af55ead5e28191f76a94e3,2024-01-23_08h01.03.368,bars,2023.2.3,Win32,59.88023952,657b66ea316d21385b68909f,,,,,,,,,,,,,,,,,,,,,,,,,,,,,,,,,,,,,,,,,,375.5253,379.059,right,3.5149,,379.0591,1,2,380.0634,0,1,1,1,1,10,0,10,1,,,,,,,,,,,,,,,,,,,,,,,,,,,,,,,,,,,,,,,,,
,,615da9ee365ab7d547b98979,65af55ead5e28191f76a94e3,2024-01-23_08h01.03.368,bars,2023.2.3,Win32,59.88023952,657b66ea316d21385b68909f,,,,,,,,,,,,,,,,,,,,,,,,,,,,,,,,,,,,,,,,,,380.0688,384.7776,right,4.6988,,384.7776,2,2,385.7774,0,2,2,2,1,10,2,10,2,,,,,,,,,,,,,,,,,,,,,,,,,,,,,,,,,,,,,,,,,
,,615da9ee365ab7d547b98979,65af55ead5e28191f76a94e3,2024-01-23_08h01.03.368,bars,2023.2.3,Win32,59.88023952,657b66ea316d21385b68909f,,,,,,,,,,,,,,,,,,,,,,,,,,,,,,,,,,,,,,,,,,385.7837,390.6589,left,4.8649,,390.659,7,1,391.6596,0,3,3,3,1,8,4,7,3,,,,,,,,,,,,,,,,,,,,,,,,,,,,,,,,,,,,,,,,,
,,615da9ee365ab7d547b98979,65af55ead5e28191f76a94e3,2024-01-23_08h01.03.368,bars,2023.2.3,Win32,59.88023952,657b66ea316d21385b68909f,,,,,,,,,,,,,,,,,,,,,,,,,,,,,,,,,,,,,,,,,,391.665,397.7921,right,6.1151,,397.7921,1,2,398.792,0,4,4,4,1,6,2,5,1,,,,,,,,,,,,,,,,,,,,,,,,,,,,,,,,,,,,,,,,,
,,615da9ee365ab7d547b98979,65af55ead5e28191f76a94e3,2024-01-23_08h01.03.368,bars,2023.2.3,Win32,59.88023952,657b66ea316d21385b68909f,,,,,,,,,,,,,,,,,,,,,,,,,,,,,,,,,,,,,,,,,,398.7975,400.0794,left,1.2495,,400.0794,4,1,401.079,0,5,5,5,1,4,4,4,4,,,,,,,,,,,,,,,,,,,,,,,,,,,,,,,,,,,,,,,,,
,,615da9ee365ab7d547b98979,65af55ead5e28191f76a94e3,2024-01-23_08h01.03.368,bars,2023.2.3,Win32,59.88023952,657b66ea316d21385b68909f,,,,,,,,,,,,,,,,,,,,,,,,,,,,,,,,,,,,,,,,,,401.0843,402.2452,left,1.1313,,402.2452,1,1,403.2451,0,6,6,6,1,2,2,1,2,,,,,,,,,,,,,,,,,,,,,,,,,,,,,,,,,,,,,,,,,
,,615da9ee365ab7d547b98979,65af55ead5e28191f76a94e3,2024-01-23_08h01.03.368,bars,2023.2.3,Win32,59.88023952,657b66ea316d21385b68909f,,,,,,,,,,,,,,,,,,,,,,,,,,,,,,,,,,,,,,,,,,403.2457,405.3271,right,2.0644,,405.3271,1,2,406.3265,0,7,7,7,1,0,0,0,1,,,,,,,,,,,,,,,,,,,,,,,,,,,,,,,,,,,,,,,,,
,,615da9ee365ab7d547b98979,65af55ead5e28191f76a94e3,2024-01-23_08h01.03.368,bars,2023.2.3,Win32,59.88023952,657b66ea316d21385b68909f,,,,,,,,,,,,,,,,,,,,,,,,,,,,,,,,,,,,,,,,,,406.3267,408.3256,right,1.9835,,408.3257,0,2,409.3251,0,8,8,8,1,0,2,1,0,,,,,,,,,,,,,,,,,,,,,,,,,,,,,,,,,,,,,,,,,
,,615da9ee365ab7d547b98979,65af55ead5e28191f76a94e3,2024-01-23_08h01.03.368,bars,2023.2.3,Win32,59.88023952,657b66ea316d21385b68909f,,,,,,,,,,,,,,,,,,,,,,,,,,,,,,,,,,,,,,,,,,409.3308,410.6613,left,1.3197,,410.6613,2,1,411.6608,0,9,9,9,1,2,4,2,3,,,,,,,,,,,,,,,,,,,,,,,,,,,,,,,,,,,,,,,,,
,,615da9ee365ab7d547b98979,65af55ead5e28191f76a94e3,2024-01-23_08h01.03.368,bars,2023.2.3,Win32,59.88023952,657b66ea316d21385b68909f,,,,,,,,,,,,,,,,,,,,,,,,,,,,,,,,,,,,,,,,,,411.661,413.7445,left,2.0659,,413.7445,0,1,414.7442,0,10,10,10,1,0,2,0,3,,,,,,,,,,,,,,,,,,,,,,,,,,,,,,,,,,,,,,,,,
,,615da9ee365ab7d547b98979,65af55ead5e28191f76a94e3,2024-01-23_08h01.03.368,bars,2023.2.3,Win32,59.88023952,657b66ea316d21385b68909f,,,,,,,,,,,,,,,,,,,,,,,,,,,,,,,,,,,,,,,,,,414.7443,415.5963,right,0.8332,,415.5963,3,2,416.5958,0,11,11,11,1,0,4,0,3,,,,,,,,,,,,,,,,,,,,,,,,,,,,,,,,,,,,,,,,,
,,615da9ee365ab7d547b98979,65af55ead5e28191f76a94e3,2024-01-23_08h01.03.368,bars,2023.2.3,Win32,59.88023952,657b66ea316d21385b68909f,,,,,,,,,,,,,,,,,,,,,,,,,,,,,,,,,,,,,,,,,,416.5959,417.9301,right,1.3215,,417.9302,6,2,418.929,0,12,12,12,1,2,6,1,6,,,,,,,,,,,,,,,,,,,,,,,,,,,,,,,,,,,,,,,,,
,,615da9ee365ab7d547b98979,65af55ead5e28191f76a94e3,2024-01-23_08h01.03.368,bars,2023.2.3,Win32,59.88023952,657b66ea316d21385b68909f,,,,,,,,,,,,,,,,,,,,,,,,,,,,,,,,,,,,,,,,,,418.9291,420.0799,right,1.1377,,420.0799,3,2,421.0781,0,13,13,13,1,0,4,1,3,,,,,,,,,,,,,,,,,,,,,,,,,,,,,,,,,,,,,,,,,
,,615da9ee365ab7d547b98979,65af55ead5e28191f76a94e3,2024-01-23_08h01.03.368,bars,2023.2.3,Win32,59.88023952,657b66ea316d21385b68909f,,,,,,,,,,,,,,,,,,,,,,,,,,,,,,,,,,,,,,,,,,421.0782,422.4441,right,1.3504,,422.4442,7,2,423.4442,0,14,14,14,1,2,6,2,7,,,,,,,,,,,,,,,,,,,,,,,,,,,,,,,,,,,,,,,,,
,,615da9ee365ab7d547b98979,65af55ead5e28191f76a94e3,2024-01-23_08h01.03.368,bars,2023.2.3,Win32,59.88023952,657b66ea316d21385b68909f,,,,,,,,,,,,,,,,,,,,,,,,,,,,,,,,,,,,,,,,,,423.4495,424.509,right,1.0493,,424.5091,9,2,425.5083,0,15,15,15,1,4,8,3,9,,,,,,,,,,,,,,,,,,,,,,,,,,,,,,,,,,,,,,,,,
,,615da9ee365ab7d547b98979,65af55ead5e28191f76a94e3,2024-01-23_08h01.03.368,bars,2023.2.3,Win32,59.88023952,657b66ea316d21385b68909f,,,,,,,,,,,,,,,,,,,,,,,,,,,,,,,,,,,,,,,,,,425.5084,426.4921,right,0.9651,,426.4921,7,2,427.4928,0,16,16,16,1,6,6,7,7,,,,,,,,,,,,,,,,,,,,,,,,,,,,,,,,,,,,,,,,,
,,615da9ee365ab7d547b98979,65af55ead5e28191f76a94e3,2024-01-23_08h01.03.368,bars,2023.2.3,Win32,59.88023952,657b66ea316d21385b68909f,,,,,,,,,,,,,,,,,,,,,,,,,,,,,,,,,,,,,,,,,,427.493,428.5085,right,1.0004,,428.5085,5,2,429.5084,0,17,17,17,1,8,4,9,5,,,,,,,,,,,,,,,,,,,,,,,,,,,,,,,,,,,,,,,,,
,,615da9ee365ab7d547b98979,65af55ead5e28191f76a94e3,2024-01-23_08h01.03.368,bars,2023.2.3,Win32,59.88023952,657b66ea316d21385b68909f,,,,,,,,,,,,,,,,,,,,,,,,,,,,,,,,,,,,,,,,,,429.5086,432.227,right,2.7,,432.227,1,2,433.227,0,18,18,18,1,6,2,5,1,,,,,,,,,,,,,,,,,,,,,,,,,,,,,,,,,,,,,,,,,
,,615da9ee365ab7d547b98979,65af55ead5e28191f76a94e3,2024-01-23_08h01.03.368,bars,2023.2.3,Win32,59.88023952,657b66ea316d21385b68909f,,,,,,,,,,,,,,,,,,,,,,,,,,,,,,,,,,,,,,,,,,433.2271,434.9439,right,1.702,,434.944,0,2,435.9438,0,19,19,19,1,8,0,7,0,,,,,,,,,,,,,,,,,,,,,,,,,,,,,,,,,,,,,,,,,
,,615da9ee365ab7d547b98979,65af55ead5e28191f76a94e3,2024-01-23_08h01.03.368,bars,2023.2.3,Win32,59.88023952,657b66ea316d21385b68909f,,,,,,,,,,,,,,,,,,,,,,,,,,,,,,,,,,,,,,,,,,,,,,,,,,,,,,,,,,,,435.9441,769.9433,space,333.9843,,,,,,,,,,,,,,,,,,,,,,,,,,,,,,,,,,,,,
,,615da9ee365ab7d547b98979,65af55ead5e28191f76a94e3,2024-01-23_08h01.03.368,bars,2023.2.3,Win32,59.88023952,657b66ea316d21385b68909f,,,,,,,,,,,771.5373,772.5303,,,773.0338,773.28,,23,203,,,,,,,,,,,,,,,,bars/007.png,bars/mask002.png,,,,,,,,,,,,0,1,,,,,,,2,9,1,9,,,,,,769.95,771.5353,space,1.5583,,772.5305,773.0338,773.2801,776.6486,space,3.3415,,776.6487,28,32,777.6469,777.6471,788.2398,space,10.5726,,0,0,0,0,1,175,55,,,,,,,,
,,615da9ee365ab7d547b98979,65af55ead5e28191f76a94e3,2024-01-23_08h01.03.368,bars,2023.2.3,Win32,59.88023952,657b66ea316d21385b68909f,,,,,,,,,,,788.2465,789.2435,,,789.7415,789.9933,,143,143,,,,,,,,,,,,,,,,bars/043.png,bars/mask004.png,,,,,,,,,,,,3,2,,,,,,,4,7,7,6,,,,,,,,,,,789.2435,789.7415,789.9933,793.8236,space,3.8156,,793.8237,67,13,794.8207,794.8207,804.1995,space,9.357,,0,1,1,1,1,30,130,,,,,,,,
,,615da9ee365ab7d547b98979,65af55ead5e28191f76a94e3,2024-01-23_08h01.03.368,bars,2023.2.3,Win32,59.88023952,657b66ea316d21385b68909f,,,,,,,,,,,804.2051,805.1985,,,805.6987,805.9485,,42,222,,,,,,,,,,,,,,,,bars/032.png,bars/mask002.png,,,,,,,,,,,,2,2,,,,,,,6,9,6,8,,,,,,,,,,,805.1986,805.6986,805.9485,811.1891,space,5.2217,,811.1891,83,22,812.183,812.183,829.6805,space,17.473,,0,2,2,2,1,125,20,,,,,,,,
,,615da9ee365ab7d547b98979,65af55ead5e28191f76a94e3,2024-01-23_08h01.03.368,bars,2023.2.3,Win32,59.88023952,657b66ea316d21385b68909f,,,,,,,,,,,829.6994,830.6877,,,831.1876,831.4268,,113,113,,,,,,,,,,,,,,,,bars/039.png,bars/mask004.png,,,,,,,,,,,,6,2,,,,,,,8,7,6,8,,,,,,,,,,,830.6877,831.1876,831.4268,836.1708,space,4.7338,,836.1708,62,8,837.1704,837.1704,848.3817,space,11.1916,,0,3,3,3,1,175,105,,,,,,,,
,,615da9ee365ab7d547b98979,65af55ead5e28191f76a94e3,2024-01-23_08h01.03.368,bars,2023.2.3,Win32,59.88023952,657b66ea316d21385b68909f,,,,,,,,,,,848.3876,849.3818,,,849.8846,850.1309,,119,119,,,,,,,,,,,,,,,,bars/004.png,bars/mask000.png,,,,,,,,,,,,7,2,,,,,,,6,9,5,9,,,,,,,,,,,849.3818,849.8846,850.1309,852.9388,space,2.7903,,852.9388,86,6,853.9291,853.9291,857.378,space,3.429,,0,4,4,4,1,25,125,,,,,,,,
,,615da9ee365ab7d547b98979,65af55ead5e28191f76a94e3,2024-01-23_08h01.03.368,bars,2023.2.3,Win32,59.88023952,657b66ea316d21385b68909f,,,,,,,,,,,857.3834,858.3789,,,858.88,859.125,,71,71,,,,,,,,,,,,,,,,bars/025.png,bars/mask004.png,,,,,,,,,,,,0,2,,,,,,,8,7,8,8,,,,,,,,,,,858.379,858.88,859.125,863.8286,space,4.6833,,863.8287,34,31,864.825,864.8251,871.9733,space,7.1286,,0,5,5,5,1,105,40,,,,,,,,
,,615da9ee365ab7d547b98979,65af55ead5e28191f76a94e3,2024-01-23_08h01.03.368,bars,2023.2.3,Win32,59.88023952,657b66ea316d21385b68909f,,,,,,,,,,,871.9789,872.9684,,,873.4726,873.721,,81,81,,,,,,,,,,,,,,,,bars/019.png,bars/mask000.png,,,,,,,,,,,,1,2,,,,,,,6,5,6,7,,,,,,,,,,,872.9684,873.4725,873.721,876.2026,space,2.4638,,876.2026,36,24,877.203,877.203,879.6332,space,2.4099,,0,6,6,6,1,45,105,,,,,,,,
,,615da9ee365ab7d547b98979,65af55ead5e28191f76a94e3,2024-01-23_08h01.03.368,bars,2023.2.3,Win32,59.88023952,657b66ea316d21385b68909f,,,,,,,,,,,879.6335,880.6397,,,881.1337,881.3855,,163,163,,,,,,,,,,,,,,,,bars/043.png,bars/mask007.png,,,,,,,,,,,,0,2,,,,,,,4,7,2,6,,,,,,,,,,,880.6397,881.1337,881.3855,883.9007,space,2.5027,,883.9007,47,33,884.9055,884.9055,887.7144,space,2.7912,,0,7,7,7,1,30,130,,,,,,,,
,,615da9ee365ab7d547b98979,65af55ead5e28191f76a94e3,2024-01-23_08h01.03.368,bars,2023.2.3,Win32,59.88023952,657b66ea316d21385b68909f,,,,,,,,,,,887.7198,888.7133,,,889.2147,889.4632,,61,61,,,,,,,,,,,,,,,,bars/038.png,bars/mask008.png,,,,,,,,,,,,6,2,,,,,,,2,9,2,8,,,,,,,,,,,888.7133,889.2147,889.4632,891.1897,space,1.7002,,891.1897,76,9,892.1789,892.1789,895.6953,space,3.4889,,0,8,8,8,1,165,70,,,,,,,,
,,615da9ee365ab7d547b98979,65af55ead5e28191f76a94e3,2024-01-23_08h01.03.368,bars,2023.2.3,Win32,59.88023952,657b66ea316d21385b68909f,,,,,,,,,,,895.7009,896.6948,,,897.1941,897.4453,,113,113,,,,,,,,,,,,,,,,bars/028.png,bars/mask009.png,,,,,,,,,,,,8,2,,,,,,,0,10,1,10,,,,,,,,,,,896.6948,897.1941,897.4453,902.1105,space,4.6501,,902.1106,68,7,903.1103,903.1103,910.7425,space,7.6145,,0,9,9,9,1,45,120,,,,,,,,
,,615da9ee365ab7d547b98979,65af55ead5e28191f76a94e3,2024-01-23_08h01.03.368,bars,2023.2.3,Win32,59.88023952,657b66ea316d21385b68909f,,,,,,,,,,,910.7491,911.7422,,,912.2423,912.492,,114,114,,,,,,,,,,,,,,,,bars/009.png,bars/mask001.png,,,,,,,,,,,,5,2,,,,,,,2,8,3,7,,,,,,,,,,,911.7422,912.2423,912.4921,915.2434,space,2.737,,915.2434,81,9,916.2398,916.2398,919.5485,space,3.2738,,0,10,10,10,1,15,105,,,,,,,,
,,615da9ee365ab7d547b98979,65af55ead5e28191f76a94e3,2024-01-23_08h01.03.368,bars,2023.2.3,Win32,59.88023952,657b66ea316d21385b68909f,,,,,,,,,,,919.5554,920.5471,,,921.051,921.3008,,113,113,,,,,,,,,,,,,,,,bars/004.png,bars/mask006.png,,,,,,,,,,,,6,2,,,,,,,0,10,0,10,,,,,,,,,,,920.5471,921.051,921.3008,924.2978,space,2.9843,,924.2978,88,12,925.2975,925.2975,940.1926,space,14.8693,,0,11,11,11,1,25,125,,,,,,,,
,,615da9ee365ab7d547b98979,65af55ead5e28191f76a94e3,2024-01-23_08h01.03.368,bars,2023.2.3,Win32,59.88023952,657b66ea316d21385b68909f,,,,,,,,,,,940.1987,941.1923,,,941.6923,941.9424,,115,115,,,,,,,,,,,,,,,,bars/003.png,bars/mask004.png,,,,,,,,,,,,1,2,,,,,,,2,8,2,6,,,,,,,,,,,941.1923,941.6923,941.9424,945.9101,space,3.95,,945.9101,90,25,946.9088,946.9088,965.0944,space,18.1689,,0,12,12,12,1,25,140,,,,,,,,
,,615da9ee365ab7d547b98979,65af55ead5e28191f76a94e3,2024-01-23_08h01.03.368,bars,2023.2.3,Win32,59.88023952,657b66ea316d21385b68909f,,,,,,,,,,,965.1005,966.0931,,,966.5933,966.8463,,164,164,,,,,,,,,,,,,,,,bars/016.png,bars/mask000.png,,,,,,,,,,,,9,2,,,,,,,4,10,5,9,,,,,,,,,,,966.0931,966.5933,966.8463,970.0103,space,3.1381,,970.0104,56,1,971.0092,971.0092,974.9439,space,3.9161,,0,13,13,13,1,40,165,,,,,,,,
,,615da9ee365ab7d547b98979,65af55ead5e28191f76a94e3,2024-01-23_08h01.03.368,bars,2023.2.3,Win32,59.88023952,657b66ea316d21385b68909f,,,,,,,,,,,974.9493,975.9433,,,976.4433,976.6932,,75,75,,,,,,,,,,,,,,,,bars/041.png,bars/mask001.png,,,,,,,,,,,,7,2,,,,,,,2,10,2,10,,,,,,,,,,,975.9434,976.4433,976.6933,980.1276,space,3.4215,,980.1276,55,10,981.1259,981.1259,990.9087,space,9.7663,,0,14,14,14,1,20,85,,,,,,,,
,,615da9ee365ab7d547b98979,65af55ead5e28191f76a94e3,2024-01-23_08h01.03.368,bars,2023.2.3,Win32,59.88023952,657b66ea316d21385b68909f,,,,,,,,,,,990.9157,991.9193,,,992.4148,992.6688,,94,94,,,,,,,,,,,,,,,,bars/030.png,bars/mask007.png,,,,,,,,,,,,0,2,,,,,,,0,10,0,10,,,,,,,,,,,991.9193,992.4148,992.6688,995.7324,space,3.0434,,995.7324,46,29,996.7385,996.7385,1004.1549,space,7.3923,,0,15,15,15,1,140,65,,,,,,,,
,,615da9ee365ab7d547b98979,65af55ead5e28191f76a94e3,2024-01-23_08h01.03.368,bars,2023.2.3,Win32,59.88023952,657b66ea316d21385b68909f,,,,,,,,,,,1004.1616,1005.1623,,,1005.6612,1005.911,,119,119,,,,,,,,,,,,,,,,bars/004.png,bars/mask006.png,,,,,,,,,,,,8,2,,,,,,,2,10,2,10,,,,,,,,,,,1005.1623,1005.6612,1005.911,1012.1269,space,6.197,,1012.1269,86,6,1013.1265,1013.1265,1016.3252,space,3.1838,,0,16,16,16,1,25,125,,,,,,,,
,,615da9ee365ab7d547b98979,65af55ead5e28191f76a94e3,2024-01-23_08h01.03.368,bars,2023.2.3,Win32,59.88023952,657b66ea316d21385b68909f,,,,,,,,,,,1016.3306,1017.3267,,,1017.8207,1018.071,,75,75,,,,,,,,,,,,,,,,bars/030.png,bars/mask004.png,,,,,,,,,,,,5,2,,,,,,,0,10,0,8,,,,,,,,,,,1017.3267,1017.8207,1018.0711,1021.0231,space,2.9323,,1021.0232,65,10,1022.0206,1022.0206,1025.6212,space,3.5807,,0,17,17,17,1,140,65,,,,,,,,
,,615da9ee365ab7d547b98979,65af55ead5e28191f76a94e3,2024-01-23_08h01.03.368,bars,2023.2.3,Win32,59.88023952,657b66ea316d21385b68909f,,,,,,,,,,,1025.6265,1026.6159,,,1027.1158,1027.3714,,25,25,,,,,,,,,,,,,,,,bars/013.png,bars/mask008.png,,,,,,,,,,,,5,2,,,,,,,2,10,2,10,,,,,,,,,,,1026.6159,1027.1157,1027.3714,1031.1643,space,3.7754,,1031.1643,50,15,1032.1671,1032.1672,1040.9125,space,8.7232,,0,18,18,18,1,75,10,,,,,,,,
,,615da9ee365ab7d547b98979,65af55ead5e28191f76a94e3,2024-01-23_08h01.03.368,bars,2023.2.3,Win32,59.88023952,657b66ea316d21385b68909f,,,,,,,,,,,1040.9212,1041.9116,,,1042.4117,1042.6612,,98,98,,,,,,,,,,,,,,,,bars/018.png,bars/mask001.png,,,,,,,,,,,,7,2,,,,,,,0,10,1,10,,,,,,,,,,,1041.9116,1042.4117,1042.6612,1047.8926,space,5.2139,,1047.8927,52,8,1048.8927,1048.8927,1052.5917,space,3.6853,,0,19,19,19,1,150,90,,,,,,,,
,,615da9ee365ab7d547b98979,65af55ead5e28191f76a94e3,2024-01-23_08h01.03.368,bars,2023.2.3,Win32,59.88023952,657b66ea316d21385b68909f,,,,,,,,,,,1052.5971,1053.5932,,,1054.0909,1054.3416,,7,7,,,,,,,,,,,,,,,,bars/045.png,bars/mask009.png,,,,,,,,,,,,7,2,,,,,,,2,10,1,8,,,,,,,,,,,1053.5933,1054.0908,1054.3416,1058.0059,space,3.65,,1058.006,87,3,1059.005,1059.0051,1066.668,space,7.6457,,0,20,20,20,1,100,10,,,,,,,,
,,615da9ee365ab7d547b98979,65af55ead5e28191f76a94e3,2024-01-23_08h01.03.368,bars,2023.2.3,Win32,59.88023952,657b66ea316d21385b68909f,,,,,,,,,,,1066.6737,1067.6677,,,1068.1677,1068.4173,,3,183,,,,,,,,,,,,,,,,bars/043.png,bars/mask005.png,,,,,,,,,,,,0,1,,,,,,,4,8,3,8,,,,,,,,,,,1067.6678,1068.1677,1068.4173,1077.1724,space,8.7335,,1077.1724,27,53,1078.1633,1078.1633,1080.7084,space,2.5323,,0,21,21,21,1,30,130,,,,,,,,
,,615da9ee365ab7d547b98979,65af55ead5e28191f76a94e3,2024-01-23_08h01.03.368,bars,2023.2.3,Win32,59.88023952,657b66ea316d21385b68909f,,,,,,,,,,,1080.7086,1081.7112,,,1082.2116,1082.461,,169,169,,,,,,,,,,,,,,,,bars/024.png,bars/mask003.png,,,,,,,,,,,,10,2,,,,,,,6,10,7,10,,,,,,,,,,,1081.7112,1082.2116,1082.461,1086.8752,space,4.4011,,1086.8752,49,1,1087.8749,1087.8749,1090.6565,space,2.7629,,0,22,22,22,1,120,170,,,,,,,,
,,615da9ee365ab7d547b98979,65af55ead5e28191f76a94e3,2024-01-23_08h01.03.368,bars,2023.2.3,Win32,59.88023952,657b66ea316d21385b68909f,,,,,,,,,,,1090.6618,1091.6585,,,1092.1561,1092.4061,,131,131,,,,,,,,,,,,,,,,bars/049.png,bars/mask003.png,,,,,,,,,,,,5,2,,,,,,,4,10,4,10,,,,,,,,,,,1091.6585,1092.1561,1092.4062,1094.2891,space,1.8642,,1094.2891,29,16,1095.289,1095.289,1097.5919,space,2.2835,,0,23,23,23,1,160,115,,,,,,,,
,,615da9ee365ab7d547b98979,65af55ead5e28191f76a94e3,2024-01-23_08h01.03.368,bars,2023.2.3,Win32,59.88023952,657b66ea316d21385b68909f,,,,,,,,,,,1097.592,1098.5915,,,1099.0916,1099.3315,,67,67,,,,,,,,,,,,,,,,bars/046.png,bars/mask008.png,,,,,,,,,,,,4,2,,,,,,,6,8,5,9,,,,,,,,,,,1098.5915,1099.0915,1099.3315,1102.1197,space,2.764,,1102.1197,88,18,1103.1199,1103.1199,1162.276,space,59.1386,,0,24,24,24,1,155,85,,,,,,,,
,,615da9ee365ab7d547b98979,65af55ead5e28191f76a94e3,2024-01-23_08h01.03.368,bars,2023.2.3,Win32,59.88023952,657b66ea316d21385b68909f,,,,,,,,,,,1162.2765,1163.2726,,,1163.7725,1164.0239,,132,-48,,,,,,,,,,,,,,,,bars/021.png,bars/mask009.png,,,,,,,,,,,,1,1,,,,,,,4,6,4,7,,,,,,,,,,,1163.2726,1163.7725,1164.0239,1167.789,space,3.7481,,1167.789,23,62,1168.7885,1168.7885,1170.6408,space,1.832,,0,25,25,25,1,155,70,,,,,,,,
,,615da9ee365ab7d547b98979,65af55ead5e28191f76a94e3,2024-01-23_08h01.03.368,bars,2023.2.3,Win32,59.88023952,657b66ea316d21385b68909f,,,,,,,,,,,1170.6409,1171.634,,,1172.1397,1172.3873,,45,45,,,,,,,,,,,,,,,,bars/034.png,bars/mask005.png,,,,,,,,,,,,3,2,,,,,,,2,8,1,8,,,,,,,,,,,1171.634,1172.1397,1172.3873,1174.4559,space,2.0507,,1174.4559,80,20,1175.4489,1175.4489,1180.5994,space,5.1273,,0,26,26,26,1,125,65,,,,,,,,
,,615da9ee365ab7d547b98979,65af55ead5e28191f76a94e3,2024-01-23_08h01.03.368,bars,2023.2.3,Win32,59.88023952,657b66ea316d21385b68909f,,,,,,,,,,,1180.6054,1181.5985,,,1182.1044,1182.3493,,170,-10,,,,,,,,,,,,,,,,bars/012.png,bars/mask008.png,,,,,,,,,,,,1,2,,,,,,,4,10,5,9,,,,,,,,,,,1181.5986,1182.1044,1182.3493,1186.6798,space,4.3174,,1186.6799,80,25,1187.6803,1187.6804,1190.0794,space,2.374,,0,27,27,27,1,90,15,,,,,,,,
,,615da9ee365ab7d547b98979,65af55ead5e28191f76a94e3,2024-01-23_08h01.03.368,bars,2023.2.3,Win32,59.88023952,657b66ea316d21385b68909f,,,,,,,,,,,1190.0796,1191.0707,,,1191.5625,1191.8109,,159,-21,,,,,,,,,,,,,,,,bars/015.png,bars/mask009.png,,,,,,,,,,,,9,2,,,,,,,2,10,2,9,,,,,,,,,,,1191.0707,1191.5625,1191.8109,1194.4446,space,2.6147,,1194.4446,49,1,1195.443,1195.4431,1197.3969,space,1.938,,0,28,28,28,1,110,160,,,,,,,,
,,615da9ee365ab7d547b98979,65af55ead5e28191f76a94e3,2024-01-23_08h01.03.368,bars,2023.2.3,Win32,59.88023952,657b66ea316d21385b68909f,,,,,,,,,,,1197.397,1198.389,,,1198.8903,1199.1387,,157,157,,,,,,,,,,,,,,,,bars/015.png,bars/mask000.png,,,,,,,,,,,,7,2,,,,,,,0,8,0,8,,,,,,,,,,,1198.389,1198.8902,1199.1387,1202.01,space,2.8501,,1202.0101,47,3,1203.008,1203.008,1205.7054,space,2.6793,,0,29,29,29,1,110,160,,,,,,,,
,,615da9ee365ab7d547b98979,65af55ead5e28191f76a94e3,2024-01-23_08h01.03.368,bars,2023.2.3,Win32,59.88023952,657b66ea316d21385b68909f,,,,,,,,,,,1205.7056,1206.7044,,,1207.2041,1207.4542,,147,147,,,,,,,,,,,,,,,,bars/035.png,bars/mask000.png,,,,,,,,,,,,0,1,,,,,,,2,10,2,9,,,,,,,,,,,1206.7044,1207.2041,1207.4542,1213.9632,space,6.481,,1213.9632,28,87,1214.9634,1214.9635,1220.0771,space,5.078,,0,30,30,30,1,175,60,,,,,,,,
,,615da9ee365ab7d547b98979,65af55ead5e28191f76a94e3,2024-01-23_08h01.03.368,bars,2023.2.3,Win32,59.88023952,657b66ea316d21385b68909f,,,,,,,,,,,1220.0852,1221.0767,,,1221.5764,1221.8354,,103,103,,,,,,,,,,,,,,,,bars/019.png,bars/mask008.png,,,,,,,,,,,,7,2,,,,,,,0,8,0,8,,,,,,,,,,,1221.0768,1221.5764,1221.8354,1224.8374,space,2.9853,,1224.8374,58,2,1225.8412,1225.8412,1230.4557,space,4.5713,,0,31,31,31,1,45,105,,,,,,,,
,,615da9ee365ab7d547b98979,65af55ead5e28191f76a94e3,2024-01-23_08h01.03.368,bars,2023.2.3,Win32,59.88023952,657b66ea316d21385b68909f,,,,,,,,,,,1230.4623,1231.4552,,,1231.9552,1232.2049,,170,-10,,,,,,,,,,,,,,,,bars/048.png,bars/mask007.png,,,,,,,,,,,,4,2,,,,,,,0,6,0,5,,,,,,,,,,,1231.4552,1231.9551,1232.2049,1235.8035,space,3.5777,,1235.8035,60,5,1236.8029,1236.8029,1239.9848,space,3.1518,,0,32,32,32,1,50,175,,,,,,,,
,,615da9ee365ab7d547b98979,65af55ead5e28191f76a94e3,2024-01-23_08h01.03.368,bars,2023.2.3,Win32,59.88023952,657b66ea316d21385b68909f,,,,,,,,,,,1239.9927,1240.9844,,,1241.4858,1241.7342,,135,135,,,,,,,,,,,,,,,,bars/016.png,bars/mask003.png,,,,,,,,,,,,0,2,,,,,,,0,4,1,4,,,,,,,,,,,1240.9845,1241.4858,1241.7342,1245.8155,space,4.0578,,1245.8156,85,30,1246.8151,1246.8152,1248.3022,space,1.4668,,0,33,33,33,1,40,165,,,,,,,,
,,615da9ee365ab7d547b98979,65af55ead5e28191f76a94e3,2024-01-23_08h01.03.368,bars,2023.2.3,Win32,59.88023952,657b66ea316d21385b68909f,,,,,,,,,,,1248.3023,1249.2974,,,1249.7969,1250.0468,,48,48,,,,,,,,,,,,,,,,bars/027.png,bars/mask000.png,,,,,,,,,,,,6,2,,,,,,,0,6,1,6,,,,,,,,,,,1249.2974,1249.7969,1250.0468,1252.6538,space,2.585,,1252.6538,62,2,1253.6534,1253.6534,1259.9926,space,6.3182,,0,34,34,34,1,110,50,,,,,,,,
,,615da9ee365ab7d547b98979,65af55ead5e28191f76a94e3,2024-01-23_08h01.03.368,bars,2023.2.3,Win32,59.88023952,657b66ea316d21385b68909f,,,,,,,,,,,1259.9984,1260.992,,,1261.492,1261.742,,35,35,,,,,,,,,,,,,,,,bars/022.png,bars/mask003.png,,,,,,,,,,,,4,2,,,,,,,2,8,2,7,,,,,,,,,,,1260.992,1261.4919,1261.742,1266.3897,space,4.6229,,1266.3898,60,15,1267.3901,1267.3901,1272.77,space,5.3511,,0,35,35,35,1,95,20,,,,,,,,
,,615da9ee365ab7d547b98979,65af55ead5e28191f76a94e3,2024-01-23_08h01.03.368,bars,2023.2.3,Win32,59.88023952,657b66ea316d21385b68909f,,,,,,,,,,,1272.7788,1273.7699,,,1274.2693,1274.5198,,34,214,,,,,,,,,,,,,,,,bars/012.png,bars/mask000.png,,,,,,,,,,,,2,2,,,,,,,4,6,4,6,,,,,,,,,,,1273.7699,1274.2692,1274.5198,1279.5004,space,4.9556,,1279.5004,56,19,1280.4999,1280.5,1282.9322,space,2.4028,,0,36,36,36,1,90,15,,,,,,,,
,,615da9ee365ab7d547b98979,65af55ead5e28191f76a94e3,2024-01-23_08h01.03.368,bars,2023.2.3,Win32,59.88023952,657b66ea316d21385b68909f,,,,,,,,,,,1282.9324,1283.9317,,,1284.4371,1284.6813,,53,53,,,,,,,,,,,,,,,,bars/035.png,bars/mask000.png,,,,,,,,,,,,6,2,,,,,,,6,8,6,8,,,,,,,,,,,1283.9318,1284.437,1284.6813,1288.5296,space,3.8231,,1288.5296,58,7,1289.5291,1289.5292,1296.0929,space,6.5383,,0,37,37,37,1,175,60,,,,,,,,
,,615da9ee365ab7d547b98979,65af55ead5e28191f76a94e3,2024-01-23_08h01.03.368,bars,2023.2.3,Win32,59.88023952,657b66ea316d21385b68909f,,,,,,,,,,,1296.0986,1297.0927,,,1297.5921,1297.8423,,67,67,,,,,,,,,,,,,,,,bars/026.png,bars/mask007.png,,,,,,,,,,,,2,2,,,,,,,8,6,8,6,,,,,,,,,,,1297.0929,1297.5921,1297.8423,1301.2574,space,3.3834,,1301.2574,32,18,1302.2571,1302.2571,1304.7065,space,2.4164,,0,38,38,38,1,35,85,,,,,,,,
,,615da9ee365ab7d547b98979,65af55ead5e28191f76a94e3,2024-01-23_08h01.03.368,bars,2023.2.3,Win32,59.88023952,657b66ea316d21385b68909f,,,,,,,,,,,1304.707,1305.7052,,,1306.2049,1306.4547,,108,108,,,,,,,,,,,,,,,,bars/018.png,bars/mask004.png,,,,,,,,,,,,2,2,,,,,,,6,4,4,4,,,,,,,,,,,1305.7052,1306.2049,1306.4547,1311.4527,space,4.9734,,1311.4527,42,18,1312.4522,1312.4522,1315.5009,space,3.0162,,0,39,39,39,1,150,90,,,,,,,,
,,615da9ee365ab7d547b98979,65af55ead5e28191f76a94e3,2024-01-23_08h01.03.368,bars,2023.2.3,Win32,59.88023952,657b66ea316d21385b68909f,,,,,,,,,,,1315.5011,1316.5004,,,1317,1317.2505,,165,165,,,,,,,,,,,,,,,,bars/008.png,bars/mask007.png,,,,,,,,,,,,3,2,,,,,,,4,6,5,5,,,,,,,,,,,1316.5004,1317,1317.2506,1319.6824,space,2.4173,,1319.6824,55,15,1320.6817,1320.6817,1322.7233,space,2.0188,,0,40,40,40,1,110,0,,,,,,,,
,,615da9ee365ab7d547b98979,65af55ead5e28191f76a94e3,2024-01-23_08h01.03.368,bars,2023.2.3,Win32,59.88023952,657b66ea316d21385b68909f,,,,,,,,,,,1322.7235,1323.7137,,,1324.2136,1324.4728,,87,87,,,,,,,,,,,,,,,,bars/019.png,bars/mask008.png,,,,,,,,,,,,3,2,,,,,,,6,8,8,8,,,,,,,,,,,1323.7137,1324.2136,1324.4728,1328.5282,space,4.0337,,1328.5282,42,18,1329.5276,1329.5277,1331.1437,space,1.5826,,0,41,41,41,1,45,105,,,,,,,,
,,615da9ee365ab7d547b98979,65af55ead5e28191f76a94e3,2024-01-23_08h01.03.368,bars,2023.2.3,Win32,59.88023952,657b66ea316d21385b68909f,,,,,,,,,,,1331.1439,1332.1432,,,1332.6433,1332.8929,,117,117,,,,,,,,,,,,,,,,bars/002.png,bars/mask003.png,,,,,,,,,,,,4,1,,,,,,,8,6,7,7,,,,,,,,,,,1332.1432,1332.6433,1332.8929,1337.8575,space,4.9326,,1337.8575,13,32,1338.857,1338.857,1341.0893,space,2.2168,,0,42,42,42,1,130,85,,,,,,,,
,,615da9ee365ab7d547b98979,65af55ead5e28191f76a94e3,2024-01-23_08h01.03.368,bars,2023.2.3,Win32,59.88023952,657b66ea316d21385b68909f,,,,,,,,,,,1341.0895,1342.0888,,,1342.5885,1342.8385,,157,157,,,,,,,,,,,,,,,,bars/023.png,bars/mask008.png,,,,,,,,,,,,0,2,,,,,,,6,4,6,5,,,,,,,,,,,1342.0888,1342.5885,1342.8385,1345.204,space,2.3473,,1345.2041,43,42,1346.2035,1346.2035,1347.453,space,1.2232,,0,43,43,43,1,20,115,,,,,,,,
,,615da9ee365ab7d547b98979,65af55ead5e28191f76a94e3,2024-01-23_08h01.03.368,bars,2023.2.3,Win32,59.88023952,657b66ea316d21385b68909f,,,,,,,,,,,1347.4532,1348.4525,,,1348.9523,1349.2022,,121,121,,,,,,,,,,,,,,,,bars/037.png,bars/mask009.png,,,,,,,,,,,,1,2,,,,,,,4,2,5,2,,,,,,,,,,,1348.4525,1348.9523,1349.2022,1351.5179,space,2.3048,,1351.5179,29,16,1352.5267,1352.5267,1355.433,space,2.8886,,0,44,44,44,1,150,105,,,,,,,,
,,615da9ee365ab7d547b98979,65af55ead5e28191f76a94e3,2024-01-23_08h01.03.368,bars,2023.2.3,Win32,59.88023952,657b66ea316d21385b68909f,,,,,,,,,,,1355.4332,1356.4326,,,1356.9231,1357.1654,,18,198,,,,,,,,,,,,,,,,bars/032.png,bars/mask001.png,,,,,,,,,,,,0,2,,,,,,,2,0,4,0,,,,,,,,,,,1356.4326,1356.9231,1357.1654,1359.631,space,2.4488,,1359.631,73,2,1360.6305,1360.6305,1364.3726,space,3.7163,,0,45,45,45,1,125,20,,,,,,,,
,,615da9ee365ab7d547b98979,65af55ead5e28191f76a94e3,2024-01-23_08h01.03.368,bars,2023.2.3,Win32,59.88023952,657b66ea316d21385b68909f,,,,,,,,,,,1364.3781,1365.3784,,,1365.8779,1366.1226,,90,90,,,,,,,,,,,,,,,,bars/002.png,bars/mask002.png,,,,,,,,,,,,0,2,,,,,,,4,0,2,0,,,,,,,,,,,1365.3784,1365.8779,1366.1226,1369.2768,space,3.1352,,1369.2768,40,5,1370.2761,1370.2761,1375.0579,space,4.7503,,0,46,46,46,1,130,85,,,,,,,,
,,615da9ee365ab7d547b98979,65af55ead5e28191f76a94e3,2024-01-23_08h01.03.368,bars,2023.2.3,Win32,59.88023952,657b66ea316d21385b68909f,,,,,,,,,,,1375.0632,1376.0571,,,1376.5569,1376.8066,,104,104,,,,,,,,,,,,,,,,bars/019.png,bars/mask000.png,,,,,,,,,,,,1,2,,,,,,,2,2,1,1,,,,,,,,,,,1376.0571,1376.5569,1376.8066,1381.5407,space,4.7193,,1381.5407,59,1,1382.5408,1382.5408,1441.6054,space,59.0471,,0,47,47,47,1,45,105,,,,,,,,
,,615da9ee365ab7d547b98979,65af55ead5e28191f76a94e3,2024-01-23_08h01.03.368,bars,2023.2.3,Win32,59.88023952,657b66ea316d21385b68909f,,,,,,,,,,,1441.6122,1442.6102,,,1443.11,1443.3719,,84,84,,,,,,,,,,,,,,,,bars/009.png,bars/mask004.png,,,,,,,,,,,,0,2,,,,,,,4,0,4,0,,,,,,,,,,,1442.6102,1443.11,1443.372,1448.0723,space,4.696,,1448.0723,69,21,1449.0607,1449.0607,1451.7387,space,2.6496,,0,48,48,48,1,15,105,,,,,,,,
,,615da9ee365ab7d547b98979,65af55ead5e28191f76a94e3,2024-01-23_08h01.03.368,bars,2023.2.3,Win32,59.88023952,657b66ea316d21385b68909f,,,,,,,,,,,1451.7441,1452.7389,,,1453.2387,1453.4886,,150,150,,,,,,,,,,,,,,,,bars/000.png,bars/mask008.png,,,,,,,,,,,,1,2,,,,,,,6,0,6,1,,,,,,,,,,,1452.7389,1453.2387,1453.4886,1456.6047,space,3.1003,,1456.6048,70,5,1457.5947,1457.5947,1458.9413,space,1.3337,,0,49,49,49,1,40,145,,,,,,,,
,,615da9ee365ab7d547b98979,65af55ead5e28191f76a94e3,2024-01-23_08h01.03.368,bars,2023.2.3,Win32,59.88023952,657b66ea316d21385b68909f,,,,,,,,,,,,,,,,,,,,,,,,,,,,,,,,,,,,,,,,,,,,,,,,,,,,,,,,,,,,,,,,,,,,,,,,,,,,,,,,,,,,,,,,,,,,,1458.9418,1518.9382,0,0,0,3,1,sequence_tables/blk030.csv
,,615da9ee365ab7d547b98979,65af55ead5e28191f76a94e3,2024-01-23_08h01.03.368,bars,2023.2.3,Win32,59.88023952,657b66ea316d21385b68909f,,,,,,,,,,,2082.0971,2083.0885,,,2083.5882,2083.8381,,128,128,,,,,,,,,,,,,,,,bars/037.png,bars/mask003.png,,,,,,,,,,,,2,1,,,,,,,8,8,9,9,,,,,,1518.9439,2082.0891,space,563.1134,,2083.0885,2083.5882,2083.8382,2086.6701,space,2.8182,,2086.6701,22,23,2087.67,2087.67,2087.6716,,,,0,0,0,0,1,150,105,,,,,,,,
,,615da9ee365ab7d547b98979,65af55ead5e28191f76a94e3,2024-01-23_08h01.03.368,bars,2023.2.3,Win32,59.88023952,657b66ea316d21385b68909f,,,,,,,,,,,2087.6718,2088.6695,,,2089.1691,2089.419,,78,78,,,,,,,,,,,,,,,,bars/011.png,bars/mask007.png,,,,,,,,,,,,5,2,,,,,,,10,6,8,6,,,,,,,,,,,2088.6696,2089.1691,2089.419,2094.1187,space,4.6826,,2094.1187,82,7,2095.1189,2095.1189,2095.1248,,,,0,1,1,1,1,160,85,,,,,,,,
,,615da9ee365ab7d547b98979,65af55ead5e28191f76a94e3,2024-01-23_08h01.03.368,bars,2023.2.3,Win32,59.88023952,657b66ea316d21385b68909f,,,,,,,,,,,2095.1249,2096.119,,,2096.6193,2096.8694,,113,113,,,,,,,,,,,,,,,,bars/039.png,bars/mask006.png,,,,,,,,,,,,6,2,,,,,,,8,8,10,8,,,,,,,,,,,2096.119,2096.6193,2096.8695,2102.5026,space,5.615,,2102.5026,62,8,2103.5021,2103.5021,2103.5076,,,,0,2,2,2,1,175,105,,,,,,,,
,,615da9ee365ab7d547b98979,65af55ead5e28191f76a94e3,2024-01-23_08h01.03.368,bars,2023.2.3,Win32,59.88023952,657b66ea316d21385b68909f,,,,,,,,,,,2103.5077,2104.5018,,,2105.0024,2105.2526,,61,61,,,,,,,,,,,,,,,,bars/041.png,bars/mask001.png,,,,,,,,,,,,1,2,,,,,,,6,6,4,7,,,,,,,,,,,2104.5018,2105.0023,2105.2526,2108.6524,space,3.3839,,2108.6525,41,24,2109.6522,2109.6522,2109.6578,,,,0,3,3,3,1,20,85,,,,,,,,
,,615da9ee365ab7d547b98979,65af55ead5e28191f76a94e3,2024-01-23_08h01.03.368,bars,2023.2.3,Win32,59.88023952,657b66ea316d21385b68909f,,,,,,,,,,,2109.6578,2110.6535,,,2111.1528,2111.4036,,76,76,,,,,,,,,,,,,,,,bars/001.png,bars/mask006.png,,,,,,,,,,,,5,2,,,,,,,4,8,5,7,,,,,,,,,,,2110.6535,2111.1528,2111.4036,2114.9024,space,3.4823,,2114.9024,54,9,2115.9024,2115.9024,2115.908,,,,0,4,4,4,1,130,85,,,,,,,,
,,615da9ee365ab7d547b98979,65af55ead5e28191f76a94e3,2024-01-23_08h01.03.368,bars,2023.2.3,Win32,59.88023952,657b66ea316d21385b68909f,,,,,,,,,,,2115.9081,2116.9201,,,2117.423,2117.6692,,78,78,,,,,,,,,,,,,,,,bars/046.png,bars/mask003.png,,,,,,,,,,,,5,2,,,,,,,2,6,1,6,,,,,,,,,,,2116.9201,2117.423,2117.6692,2121.1554,space,3.4684,,2121.1555,77,7,2122.1545,2122.1545,2122.16,,,,0,5,5,5,1,155,85,,,,,,,,
,,615da9ee365ab7d547b98979,65af55ead5e28191f76a94e3,2024-01-23_08h01.03.368,bars,2023.2.3,Win32,59.88023952,657b66ea316d21385b68909f,,,,,,,,,,,2122.16,2123.1538,,,2123.6537,2123.9034,,31,31,,,,,,,,,,,,,,,,bars/022.png,bars/mask000.png,,,,,,,,,,,,4,2,,,,,,,4,4,3,6,,,,,,,,,,,2123.1539,2123.6537,2123.9035,2127.5356,space,3.6166,,2127.5356,64,11,2128.5354,2128.5354,2128.5412,,,,0,6,6,6,1,95,20,,,,,,,,
,,615da9ee365ab7d547b98979,65af55ead5e28191f76a94e3,2024-01-23_08h01.03.368,bars,2023.2.3,Win32,59.88023952,657b66ea316d21385b68909f,,,,,,,,,,,2128.5413,2129.5355,,,2130.037,2130.2857,,158,-22,,,,,,,,,,,,,,,,bars/045.png,bars/mask004.png,,,,,,,,,,,,0,2,,,,,,,2,2,1,1,,,,,,,,,,,2129.5356,2130.037,2130.2858,2136.1197,space,5.8175,,2136.1197,58,32,2137.1196,2137.1196,2137.1255,,,,0,7,7,7,1,100,10,,,,,,,,
,,615da9ee365ab7d547b98979,65af55ead5e28191f76a94e3,2024-01-23_08h01.03.368,bars,2023.2.3,Win32,59.88023952,657b66ea316d21385b68909f,,,,,,,,,,,2137.1256,2138.1196,,,2138.6192,2138.869,,121,121,,,,,,,,,,,,,,,,bars/041.png,bars/mask006.png,,,,,,,,,,,,0,2,,,,,,,4,4,3,3,,,,,,,,,,,2138.1196,2138.6192,2138.869,2144.6027,space,5.7173,,2144.6028,79,36,2145.6026,2145.6026,2145.6084,,,,0,8,8,8,1,20,85,,,,,,,,
,,615da9ee365ab7d547b98979,65af55ead5e28191f76a94e3,2024-01-23_08h01.03.368,bars,2023.2.3,Win32,59.88023952,657b66ea316d21385b68909f,,,,,,,,,,,2145.6085,2146.6023,,,2147.1022,2147.3524,,46,46,,,,,,,,,,,,,,,,bars/031.png,bars/mask005.png,,,,,,,,,,,,4,2,,,,,,,2,6,3,7,,,,,,,,,,,2146.6023,2147.1022,2147.3524,2150.7867,space,3.4175,,2150.7867,74,11,2151.7857,2151.7857,2151.7938,,,,0,9,9,9,1,120,35,,,,,,,,
,,615da9ee365ab7d547b98979,65af55ead5e28191f76a94e3,2024-01-23_08h01.03.368,bars,2023.2.3,Win32,59.88023952,657b66ea316d21385b68909f,,,,,,,,,,,2151.794,2152.803,,,2153.3188,2153.5569,,69,69,,,,,,,,,,,,,,,,bars/036.png,bars/mask009.png,,,,,,,,,,,,0,2,,,,,,,4,8,4,8,,,,,,,,,,,2152.803,2153.3187,2153.5569,2163.2357,space,9.6494,,2163.2357,76,49,2164.2353,2164.2353,2164.2412,,,,0,10,10,10,1,145,20,,,,,,,,
,,615da9ee365ab7d547b98979,65af55ead5e28191f76a94e3,2024-01-23_08h01.03.368,bars,2023.2.3,Win32,59.88023952,657b66ea316d21385b68909f,,,,,,,,,,,2164.2414,2165.2352,,,2165.7348,2165.9853,,44,224,,,,,,,,,,,,,,,,bars/034.png,bars/mask007.png,,,,,,,,,,,,2,2,,,,,,,6,6,6,6,,,,,,,,,,,2165.2353,2165.7348,2165.9854,2170.2994,space,4.2837,,2170.2994,81,21,2171.2989,2171.2989,2171.3045,,,,0,11,11,11,1,125,65,,,,,,,,
,,615da9ee365ab7d547b98979,65af55ead5e28191f76a94e3,2024-01-23_08h01.03.368,bars,2023.2.3,Win32,59.88023952,657b66ea316d21385b68909f,,,,,,,,,,,2171.3046,2172.2984,,,2172.8036,2173.048,,41,41,,,,,,,,,,,,,,,,bars/031.png,bars/mask004.png,,,,,,,,,,,,2,2,,,,,,,4,4,3,3,,,,,,,,,,,2172.2985,2172.8036,2173.048,2178.879,space,5.8203,,2178.879,79,6,2179.8783,2179.8783,2179.8839,,,,0,12,12,12,1,120,35,,,,,,,,
,,615da9ee365ab7d547b98979,65af55ead5e28191f76a94e3,2024-01-23_08h01.03.368,bars,2023.2.3,Win32,59.88023952,657b66ea316d21385b68909f,,,,,,,,,,,2179.884,2180.8866,,,2181.3782,2181.6277,,40,40,,,,,,,,,,,,,,,,bars/034.png,bars/mask002.png,,,,,,,,,,,,1,2,,,,,,,2,6,1,6,,,,,,,,,,,2180.8866,2181.3782,2181.6277,2184.9599,space,3.3247,,2184.9599,85,25,2185.9588,2185.9588,2185.9644,,,,0,13,13,13,1,125,65,,,,,,,,
,,615da9ee365ab7d547b98979,65af55ead5e28191f76a94e3,2024-01-23_08h01.03.368,bars,2023.2.3,Win32,59.88023952,657b66ea316d21385b68909f,,,,,,,,,,,2185.9645,2186.9532,,,2187.4416,2187.6866,,7,187,,,,,,,,,,,,,,,,bars/032.png,bars/mask002.png,,,,,,,,,,,,5,2,,,,,,,0,8,0,8,,,,,,,,,,,2186.9533,2187.4416,2187.6866,2191.6233,space,3.9158,,2191.6233,62,13,2192.6227,2192.6228,2192.6283,,,,0,14,14,14,1,125,20,,,,,,,,
,,615da9ee365ab7d547b98979,65af55ead5e28191f76a94e3,2024-01-23_08h01.03.368,bars,2023.2.3,Win32,59.88023952,657b66ea316d21385b68909f,,,,,,,,,,,2192.6284,2193.6352,,,2194.1385,2194.3863,,161,-19,,,,,,,,,,,,,,,,bars/020.png,bars/mask008.png,,,,,,,,,,,,4,2,,,,,,,0,6,0,6,,,,,,,,,,,2193.6352,2194.1385,2194.3863,2196.804,space,2.4142,,2196.804,46,9,2197.8037,2197.8037,2197.8093,,,,0,15,15,15,1,115,170,,,,,,,,
,,615da9ee365ab7d547b98979,65af55ead5e28191f76a94e3,2024-01-23_08h01.03.368,bars,2023.2.3,Win32,59.88023952,657b66ea316d21385b68909f,,,,,,,,,,,2197.8094,2198.8031,,,2199.303,2199.553,,40,40,,,,,,,,,,,,,,,,bars/010.png,bars/mask007.png,,,,,,,,,,,,5,2,,,,,,,2,8,3,9,,,,,,,,,,,2198.8031,2199.303,2199.553,2203.9191,space,4.3507,,2203.9191,55,15,2204.9185,2204.9185,2204.924,,,,0,16,16,16,1,165,55,,,,,,,,
,,615da9ee365ab7d547b98979,65af55ead5e28191f76a94e3,2024-01-23_08h01.03.368,bars,2023.2.3,Win32,59.88023952,657b66ea316d21385b68909f,,,,,,,,,,,2204.924,2205.9218,,,2206.4189,2206.6687,,40,40,,,,,,,,,,,,,,,,bars/034.png,bars/mask007.png,,,,,,,,,,,,2,2,,,,,,,0,10,1,10,,,,,,,,,,,2205.9218,2206.4189,2206.6687,2210.5023,space,3.8174,,2210.5023,85,25,2211.5024,2211.5025,2211.5079,,,,0,17,17,17,1,125,65,,,,,,,,
,,615da9ee365ab7d547b98979,65af55ead5e28191f76a94e3,2024-01-23_08h01.03.368,bars,2023.2.3,Win32,59.88023952,657b66ea316d21385b68909f,,,,,,,,,,,2211.5081,2212.5022,,,2213.0024,2213.2523,,99,99,,,,,,,,,,,,,,,,bars/018.png,bars/mask006.png,,,,,,,,,,,,5,2,,,,,,,2,8,1,7,,,,,,,,,,,2212.5023,2213.0024,2213.2523,2216.8354,space,3.5669,,2216.8354,51,9,2217.8355,2217.8355,2217.8411,,,,0,18,18,18,1,150,90,,,,,,,,
,,615da9ee365ab7d547b98979,65af55ead5e28191f76a94e3,2024-01-23_08h01.03.368,bars,2023.2.3,Win32,59.88023952,657b66ea316d21385b68909f,,,,,,,,,,,2217.8411,2218.8355,,,2219.3354,2219.5853,,65,65,,,,,,,,,,,,,,,,bars/003.png,bars/mask004.png,,,,,,,,,,,,0,1,,,,,,,0,6,0,5,,,,,,,,,,,2218.8355,2219.3353,2219.5853,2222.5196,space,2.9171,,2222.5196,40,75,2223.5188,2223.5188,2223.5247,,,,0,19,19,19,1,25,140,,,,,,,,
,,615da9ee365ab7d547b98979,65af55ead5e28191f76a94e3,2024-01-23_08h01.03.368,bars,2023.2.3,Win32,59.88023952,657b66ea316d21385b68909f,,,,,,,,,,,2223.5248,2224.5194,,,2225.0081,2225.253,,143,143,,,,,,,,,,,,,,,,bars/016.png,bars/mask006.png,,,,,,,,,,,,2,2,,,,,,,2,8,2,8,,,,,,,,,,,2224.5194,2225.0081,2225.253,2231.303,space,6.048,,2231.303,77,22,2232.3195,2232.3195,2232.3254,,,,0,20,20,20,1,40,165,,,,,,,,
,,615da9ee365ab7d547b98979,65af55ead5e28191f76a94e3,2024-01-23_08h01.03.368,bars,2023.2.3,Win32,59.88023952,657b66ea316d21385b68909f,,,,,,,,,,,2232.3255,2233.3361,,,2233.8374,2234.1029,,45,225,,,,,,,,,,,,,,,,bars/022.png,bars/mask001.png,,,,,,,,,,,,2,2,,,,,,,4,10,5,10,,,,,,,,,,,2233.3361,2233.8374,2234.1029,2238.7023,space,4.5828,,2238.7023,50,25,2239.7054,2239.7054,2239.7109,,,,0,21,21,21,1,95,20,,,,,,,,
,,615da9ee365ab7d547b98979,65af55ead5e28191f76a94e3,2024-01-23_08h01.03.368,bars,2023.2.3,Win32,59.88023952,657b66ea316d21385b68909f,,,,,,,,,,,2239.7111,2240.7017,,,2241.2019,2241.4524,,130,130,,,,,,,,,,,,,,,,bars/044.png,bars/mask002.png,,,,,,,,,,,,1,2,,,,,,,6,8,6,8,,,,,,,,,,,2240.7017,2241.2018,2241.4524,2248.2856,space,6.8161,,2248.2857,55,25,2249.2854,2249.2854,2249.2917,,,,0,22,22,22,1,75,155,,,,,,,,
,,615da9ee365ab7d547b98979,65af55ead5e28191f76a94e3,2024-01-23_08h01.03.368,bars,2023.2.3,Win32,59.88023952,657b66ea316d21385b68909f,,,,,,,,,,,2249.2919,2250.2858,,,2250.7855,2251.0355,,75,75,,,,,,,,,,,,,,,,bars/001.png,bars/mask002.png,,,,,,,,,,,,7,2,,,,,,,8,10,7,10,,,,,,,,,,,2250.2858,2250.7855,2251.0355,2254.5523,space,3.5003,,2254.5524,55,10,2255.5522,2255.5522,2255.5612,,,,0,23,23,23,1,130,85,,,,,,,,
,,615da9ee365ab7d547b98979,65af55ead5e28191f76a94e3,2024-01-23_08h01.03.368,bars,2023.2.3,Win32,59.88023952,657b66ea316d21385b68909f,,,,,,,,,,,2255.5613,2256.553,,,2257.053,2257.3031,,115,115,,,,,,,,,,,,,,,,bars/041.png,bars/mask004.png,,,,,,,,,,,,0,2,,,,,,,10,10,10,9,,,,,,,,,,,2256.5531,2257.053,2257.3032,2261.7696,space,4.4642,,2261.7696,85,30,2262.7576,2262.7576,2262.7632,,,,0,24,24,24,1,20,85,,,,,,,,
,,615da9ee365ab7d547b98979,65af55ead5e28191f76a94e3,2024-01-23_08h01.03.368,bars,2023.2.3,Win32,59.88023952,657b66ea316d21385b68909f,,,,,,,,,,,2262.7634,2263.7695,,,2264.2737,2264.5235,,25,205,,,,,,,,,,,,,,,,bars/048.png,bars/mask006.png,,,,,,,,,,,,1,1,,,,,,,10,10,9,9,,,,,,,,,,,2263.7695,2264.2737,2264.5235,2267.3697,space,2.8167,,2267.3697,25,30,2268.3857,2268.3857,2268.3918,,,,0,25,25,25,1,50,175,,,,,,,,
,,615da9ee365ab7d547b98979,65af55ead5e28191f76a94e3,2024-01-23_08h01.03.368,bars,2023.2.3,Win32,59.88023952,657b66ea316d21385b68909f,,,,,,,,,,,2268.3919,2269.388,,,2269.8879,2270.1377,,136,-44,,,,,,,,,,,,,,,,bars/037.png,bars/mask004.png,,,,,,,,,,,,4,1,,,,,,,8,10,8,10,,,,,,,,,,,2269.3881,2269.8879,2270.1377,2274.9189,space,4.7511,,2274.919,14,31,2275.9184,2275.9185,2275.924,,,,0,26,26,26,1,150,105,,,,,,,,
,,615da9ee365ab7d547b98979,65af55ead5e28191f76a94e3,2024-01-23_08h01.03.368,bars,2023.2.3,Win32,59.88023952,657b66ea316d21385b68909f,,,,,,,,,,,2275.9241,2276.9187,,,2277.4184,2277.6685,,124,124,,,,,,,,,,,,,,,,bars/037.png,bars/mask002.png,,,,,,,,,,,,3,2,,,,,,,6,8,7,8,,,,,,,,,,,2276.9188,2277.4184,2277.6685,2282.4019,space,4.7169,,2282.402,26,19,2283.4023,2283.4023,2283.4081,,,,0,27,27,27,1,150,105,,,,,,,,
,,615da9ee365ab7d547b98979,65af55ead5e28191f76a94e3,2024-01-23_08h01.03.368,bars,2023.2.3,Win32,59.88023952,657b66ea316d21385b68909f,,,,,,,,,,,2283.4082,2284.4033,,,2284.9032,2285.1523,,39,39,,,,,,,,,,,,,,,,bars/025.png,bars/mask004.png,,,,,,,,,,,,6,2,,,,,,,4,6,4,6,,,,,,,,,,,2284.4033,2284.9032,2285.1523,2289.1853,space,4.0165,,2289.1853,66,1,2290.185,2290.185,2290.1905,,,,0,28,28,28,1,105,40,,,,,,,,
,,615da9ee365ab7d547b98979,65af55ead5e28191f76a94e3,2024-01-23_08h01.03.368,bars,2023.2.3,Win32,59.88023952,657b66ea316d21385b68909f,,,,,,,,,,,2290.1906,2291.1853,,,2291.6852,2291.9353,,126,126,,,,,,,,,,,,,,,,bars/039.png,bars/mask004.png,,,,,,,,,,,,1,2,,,,,,,6,4,6,4,,,,,,,,,,,2291.1853,2291.6852,2291.9353,2298.0197,space,6.0683,,2298.0198,49,21,2299.0187,2299.0187,2299.0241,,,,0,29,29,29,1,175,105,,,,,,,,
,,615da9ee365ab7d547b98979,65af55ead5e28191f76a94e3,2024-01-23_08h01.03.368,bars,2023.2.3,Win32,59.88023952,657b66ea316d21385b68909f,,,,,,,,,,,2299.0243,2300.0185,,,2300.5183,2300.7684,,38,38,,,,,,,,,,,,,,,,bars/035.png,bars/mask004.png,,,,,,,,,,,,2,2,,,,,,,8,6,10,7,,,,,,,,,,,2300.0185,2300.5182,2300.7684,2303.8688,space,3.0839,,2303.8689,43,22,2304.868,2304.868,2304.8735,,,,0,30,30,30,1,175,60,,,,,,,,
,,615da9ee365ab7d547b98979,65af55ead5e28191f76a94e3,2024-01-23_08h01.03.368,bars,2023.2.3,Win32,59.88023952,657b66ea316d21385b68909f,,,,,,,,,,,2304.8736,2305.8858,,,2306.3882,2306.6378,,142,142,,,,,,,,,,,,,,,,bars/016.png,bars/mask006.png,,,,,,,,,,,,1,2,,,,,,,6,4,6,4,,,,,,,,,,,2305.8858,2306.3881,2306.6379,2312.6853,space,6.016,,2312.6853,78,23,2313.6854,2313.6855,2313.6914,,,,0,31,31,31,1,40,165,,,,,,,,
,,615da9ee365ab7d547b98979,65af55ead5e28191f76a94e3,2024-01-23_08h01.03.368,bars,2023.2.3,Win32,59.88023952,657b66ea316d21385b68909f,,,,,,,,,,,2313.6914,2314.6847,,,2315.1848,2315.4349,,126,126,,,,,,,,,,,,,,,,bars/037.png,bars/mask008.png,,,,,,,,,,,,1,2,,,,,,,8,2,7,3,,,,,,,,,,,2314.6847,2315.1848,2315.435,2319.4354,space,3.9839,,2319.4354,24,21,2320.4352,2320.4353,2320.4408,,,,0,32,32,32,1,150,105,,,,,,,,
,,615da9ee365ab7d547b98979,65af55ead5e28191f76a94e3,2024-01-23_08h01.03.368,bars,2023.2.3,Win32,59.88023952,657b66ea316d21385b68909f,,,,,,,,,,,2320.4409,2321.4352,,,2321.9354,2322.1854,,116,116,,,,,,,,,,,,,,,,bars/023.png,bars/mask003.png,,,,,,,,,,,,5,2,,,,,,,10,4,9,5,,,,,,,,,,,2321.4353,2321.9354,2322.1854,2324.5186,space,2.3169,,2324.5186,84,1,2325.5183,2325.5183,2325.5186,,,,0,33,33,33,1,20,115,,,,,,,,
,,615da9ee365ab7d547b98979,65af55ead5e28191f76a94e3,2024-01-23_08h01.03.368,bars,2023.2.3,Win32,59.88023952,657b66ea316d21385b68909f,,,,,,,,,,,2325.5187,2326.5181,,,2327.0183,2327.2684,,75,75,,,,,,,,,,,,,,,,bars/009.png,bars/mask002.png,,,,,,,,,,,,0,2,,,,,,,10,6,10,7,,,,,,,,,,,2326.5181,2327.0183,2327.2684,2330.0351,space,2.7503,,2330.0351,60,30,2331.0351,2331.0351,2331.0406,,,,0,34,34,34,1,15,105,,,,,,,,
,,615da9ee365ab7d547b98979,65af55ead5e28191f76a94e3,2024-01-23_08h01.03.368,bars,2023.2.3,Win32,59.88023952,657b66ea316d21385b68909f,,,,,,,,,,,2331.0407,2332.0354,,,2332.5354,2332.7853,,120,120,,,,,,,,,,,,,,,,bars/003.png,bars/mask008.png,,,,,,,,,,,,3,2,,,,,,,8,8,9,9,,,,,,,,,,,2332.0354,2332.5354,2332.7853,2335.0023,space,2.2003,,2335.0023,85,20,2336.0018,2336.0018,2336.0073,,,,0,35,35,35,1,25,140,,,,,,,,
,,615da9ee365ab7d547b98979,65af55ead5e28191f76a94e3,2024-01-23_08h01.03.368,bars,2023.2.3,Win32,59.88023952,657b66ea316d21385b68909f,,,,,,,,,,,2336.0074,2337.0016,,,2337.5016,2337.7518,,105,105,,,,,,,,,,,,,,,,bars/006.png,bars/mask006.png,,,,,,,,,,,,5,2,,,,,,,10,6,10,6,,,,,,,,,,,2337.0016,2337.5016,2337.7518,2341.268,space,3.4986,,2341.268,70,5,2342.2681,2342.2682,2342.2736,,,,0,36,36,36,1,35,100,,,,,,,,
,,615da9ee365ab7d547b98979,65af55ead5e28191f76a94e3,2024-01-23_08h01.03.368,bars,2023.2.3,Win32,59.88023952,657b66ea316d21385b68909f,,,,,,,,,,,2342.2737,2343.2691,,,2343.7714,2344.0358,,77,77,,,,,,,,,,,,,,,,bars/039.png,bars/mask003.png,,,,,,,,,,,,1,2,,,,,,,10,8,10,8,,,,,,,,,,,2343.2691,2343.7714,2344.0358,2348.8529,space,4.7999,,2348.853,82,28,2349.8518,2349.8518,2349.8574,,,,0,37,37,37,1,175,105,,,,,,,,
,,615da9ee365ab7d547b98979,65af55ead5e28191f76a94e3,2024-01-23_08h01.03.368,bars,2023.2.3,Win32,59.88023952,657b66ea316d21385b68909f,,,,,,,,,,,2349.8575,2350.8513,,,2351.3515,2351.6016,,144,144,,,,,,,,,,,,,,,,bars/003.png,bars/mask006.png,,,,,,,,,,,,9,2,,,,,,,8,10,8,10,,,,,,,,,,,2350.8513,2351.3515,2351.6016,2357.5385,space,5.9181,,2357.5385,61,4,2358.5354,2358.5354,2358.5411,,,,0,38,38,38,1,25,140,,,,,,,,
,,615da9ee365ab7d547b98979,65af55ead5e28191f76a94e3,2024-01-23_08h01.03.368,bars,2023.2.3,Win32,59.88023952,657b66ea316d21385b68909f,,,,,,,,,,,2358.5413,2359.5352,,,2360.0361,2360.2856,,99,99,,,,,,,,,,,,,,,,bars/021.png,bars/mask000.png,,,,,,,,,,,,0,2,,,,,,,10,8,10,9,,,,,,,,,,,2359.5352,2360.036,2360.2856,2366.1181,space,5.8161,,2366.1182,56,29,2367.1185,2367.1185,2367.1242,,,,0,39,39,39,1,155,70,,,,,,,,
,,615da9ee365ab7d547b98979,65af55ead5e28191f76a94e3,2024-01-23_08h01.03.368,bars,2023.2.3,Win32,59.88023952,657b66ea316d21385b68909f,,,,,,,,,,,2367.1243,2368.1183,,,2368.6184,2368.8687,,123,123,,,,,,,,,,,,,,,,bars/011.png,bars/mask003.png,,,,,,,,,,,,0,1,,,,,,,10,6,9,6,,,,,,,,,,,2368.1183,2368.6183,2368.8687,2374.3182,space,5.4331,,2374.3182,37,38,2375.3181,2375.3181,2375.3241,,,,0,40,40,40,1,160,85,,,,,,,,
,,615da9ee365ab7d547b98979,65af55ead5e28191f76a94e3,2024-01-23_08h01.03.368,bars,2023.2.3,Win32,59.88023952,657b66ea316d21385b68909f,,,,,,,,,,,2375.3243,2376.3232,,,2376.819,2377.0693,,140,140,,,,,,,,,,,,,,,,bars/049.png,bars/mask009.png,,,,,,,,,,,,3,1,,,,,,,10,8,10,7,,,,,,,,,,,2376.3232,2376.819,2377.0693,2380.6379,space,3.5503,,2380.6379,20,25,2381.6522,2381.6522,2381.6578,,,,0,41,41,41,1,160,115,,,,,,,,
,,615da9ee365ab7d547b98979,65af55ead5e28191f76a94e3,2024-01-23_08h01.03.368,bars,2023.2.3,Win32,59.88023952,657b66ea316d21385b68909f,,,,,,,,,,,2381.6578,2382.6538,,,2383.1535,2383.4033,,121,121,,,,,,,,,,,,,,,,bars/037.png,bars/mask009.png,,,,,,,,,,,,5,2,,,,,,,8,10,8,10,,,,,,,,,,,2382.6538,2383.1534,2383.4033,2387.1517,space,3.7171,,2387.1518,29,16,2388.1566,2388.1566,2388.1625,,,,0,42,42,42,1,150,105,,,,,,,,
,,615da9ee365ab7d547b98979,65af55ead5e28191f76a94e3,2024-01-23_08h01.03.368,bars,2023.2.3,Win32,59.88023952,657b66ea316d21385b68909f,,,,,,,,,,,2388.1626,2389.1521,,,2389.6523,2389.9031,,164,164,,,,,,,,,,,,,,,,bars/013.png,bars/mask002.png,,,,,,,,,,,,1,2,,,,,,,6,8,5,8,,,,,,,,,,,2389.1522,2389.6523,2389.9031,2392.9848,space,3.0663,,2392.9848,89,26,2393.9848,2393.9848,2393.9903,,,,0,43,43,43,1,75,10,,,,,,,,
,,615da9ee365ab7d547b98979,65af55ead5e28191f76a94e3,2024-01-23_08h01.03.368,bars,2023.2.3,Win32,59.88023952,657b66ea316d21385b68909f,,,,,,,,,,,2393.9904,2394.9848,,,2395.4861,2395.7352,,43,223,,,,,,,,,,,,,,,,bars/032.png,bars/mask003.png,,,,,,,,,,,,2,2,,,,,,,4,10,3,10,,,,,,,,,,,2394.9848,2395.4861,2395.7353,2399.9184,space,4.1664,,2399.9185,82,23,2400.9182,2400.9182,2400.9237,,,,0,44,44,44,1,125,20,,,,,,,,
,,615da9ee365ab7d547b98979,65af55ead5e28191f76a94e3,2024-01-23_08h01.03.368,bars,2023.2.3,Win32,59.88023952,657b66ea316d21385b68909f,,,,,,,,,,,2400.9238,2401.9181,,,2402.4181,2402.6687,,155,-25,,,,,,,,,,,,,,,,bars/043.png,bars/mask001.png,,,,,,,,,,,,1,2,,,,,,,6,8,7,8,,,,,,,,,,,2401.9181,2402.418,2402.6688,2406.9014,space,4.2166,,2406.9014,55,25,2407.9014,2407.9014,2407.9069,,,,0,45,45,45,1,30,130,,,,,,,,
,,615da9ee365ab7d547b98979,65af55ead5e28191f76a94e3,2024-01-23_08h01.03.368,bars,2023.2.3,Win32,59.88023952,657b66ea316d21385b68909f,,,,,,,,,,,2407.907,2408.9017,,,2409.4014,2409.6516,,36,36,,,,,,,,,,,,,,,,bars/008.png,bars/mask002.png,,,,,,,,,,,,0,2,,,,,,,4,6,4,5,,,,,,,,,,,2408.9018,2409.4014,2409.6516,2412.6186,space,2.9502,,2412.6186,74,36,2413.618,2413.618,2413.6235,,,,0,46,46,46,1,110,0,,,,,,,,
,,615da9ee365ab7d547b98979,65af55ead5e28191f76a94e3,2024-01-23_08h01.03.368,bars,2023.2.3,Win32,59.88023952,657b66ea316d21385b68909f,,,,,,,,,,,2413.6236,2414.6227,,,2415.1365,2415.3889,,164,-16,,,,,,,,,,,,,,,,bars/036.png,bars/mask008.png,,,,,,,,,,,,1,1,,,,,,,2,4,3,4,,,,,,,,,,,2414.6227,2415.1365,2415.3889,2421.4522,space,6.0513,,2421.4522,19,36,2422.4526,2422.4526,2422.4588,,,,0,47,47,47,1,145,20,,,,,,,,
,,615da9ee365ab7d547b98979,65af55ead5e28191f76a94e3,2024-01-23_08h01.03.368,bars,2023.2.3,Win32,59.88023952,657b66ea316d21385b68909f,,,,,,,,,,,2422.4589,2423.452,,,2423.9517,2424.2015,,55,235,,,,,,,,,,,,,,,,bars/029.png,bars/mask003.png,,,,,,,,,,,,1,2,,,,,,,0,2,0,1,,,,,,,,,,,2423.452,2423.9516,2424.2016,2431.8518,space,7.634,,2431.8519,35,10,2432.8518,2432.8518,2432.8583,,,,0,48,48,48,1,90,45,,,,,,,,
,,615da9ee365ab7d547b98979,65af55ead5e28191f76a94e3,2024-01-23_08h01.03.368,bars,2023.2.3,Win32,59.88023952,657b66ea316d21385b68909f,,,,,,,,,,,2432.8583,2433.8517,,,2434.3519,2434.6019,,26,206,,,,,,,,,,,,,,,,bars/016.png,bars/mask006.png,,,,,,,,,,,,0,1,,,,,,,0,4,0,5,,,,,,,,,,,2433.8517,2434.3519,2434.6019,2439.9356,space,5.3169,,2439.9356,14,41,2440.9346,2440.9346,2440.9405,,,,0,49,49,49,1,40,165,,,,,,,,
,,615da9ee365ab7d547b98979,65af55ead5e28191f76a94e3,2024-01-23_08h01.03.368,bars,2023.2.3,Win32,59.88023952,657b66ea316d21385b68909f,,,,,,,,,,,,,,,,,,,,,,,,,,,,,,,,,,,,,,,,,,,,,,,,,,,,,,,,,,,,,,,,,,,,,,,,,,,,,,,,,,,,,,,,,,,,,2440.9406,2500.9343,0,1,1,2,1,sequence_tables/blk047.csv
,,615da9ee365ab7d547b98979,65af55ead5e28191f76a94e3,2024-01-23_08h01.03.368,bars,2023.2.3,Win32,59.88023952,657b66ea316d21385b68909f,,,,,,,,,,,2535.4763,2536.4678,,,2536.9677,2537.2175,,66,66,,,,,,,,,,,,,,,,bars/029.png,bars/mask002.png,,,,,,,,,,,,1,2,,,,,,,2,3,5,3,,,,,,2500.9399,2535.4683,space,34.5168,,2536.4678,2536.9676,2537.2175,2540.0685,space,2.8348,,2540.0685,24,21,2541.0685,2541.0685,2541.0745,,,,0,0,0,0,1,90,45,,,,,,,,
,,615da9ee365ab7d547b98979,65af55ead5e28191f76a94e3,2024-01-23_08h01.03.368,bars,2023.2.3,Win32,59.88023952,657b66ea316d21385b68909f,,,,,,,,,,,2541.0747,2542.0697,,,2542.5678,2542.8192,,128,128,,,,,,,,,,,,,,,,bars/023.png,bars/mask009.png,,,,,,,,,,,,1,2,,,,,,,4,1,3,1,,,,,,,,,,,2542.0697,2542.5678,2542.8193,2549.352,space,6.5159,,2549.352,72,13,2550.3517,2550.3517,2550.3576,,,,0,1,1,1,1,20,115,,,,,,,,
,,615da9ee365ab7d547b98979,65af55ead5e28191f76a94e3,2024-01-23_08h01.03.368,bars,2023.2.3,Win32,59.88023952,657b66ea316d21385b68909f,,,,,,,,,,,2550.3577,2551.3611,,,2551.8608,2552.1108,,47,227,,,,,,,,,,,,,,,,bars/031.png,bars/mask008.png,,,,,,,,,,,,0,2,,,,,,,6,0,5,0,,,,,,,,,,,2551.3611,2551.8608,2552.1108,2556.2922,space,4.1518,,2556.2922,73,12,2557.2853,2557.2854,2557.2909,,,,0,2,2,2,1,120,35,,,,,,,,
,,615da9ee365ab7d547b98979,65af55ead5e28191f76a94e3,2024-01-23_08h01.03.368,bars,2023.2.3,Win32,59.88023952,657b66ea316d21385b68909f,,,,,,,,,,,2557.291,2558.302,,,2558.7919,2559.052,,116,116,,,,,,,,,,,,,,,,bars/028.png,bars/mask008.png,,,,,,,,,,,,2,2,,,,,,,4,2,4,2,,,,,,,,,,,2558.302,2558.7918,2559.052,2567.4041,space,8.3473,,2567.4041,71,4,2568.4034,2568.4034,2568.4092,,,,0,3,3,3,1,45,120,,,,,,,,
,,615da9ee365ab7d547b98979,65af55ead5e28191f76a94e3,2024-01-23_08h01.03.368,bars,2023.2.3,Win32,59.88023952,657b66ea316d21385b68909f,,,,,,,,,,,2568.4093,2569.403,,,2569.9029,2570.1528,,111,111,,,,,,,,,,,,,,,,bars/009.png,bars/mask005.png,,,,,,,,,,,,3,2,,,,,,,6,4,6,4,,,,,,,,,,,2569.403,2569.9029,2570.1528,2575.9674,space,5.8001,,2575.9674,84,6,2576.9673,2576.9673,2576.9732,,,,0,4,4,4,1,15,105,,,,,,,,
,,615da9ee365ab7d547b98979,65af55ead5e28191f76a94e3,2024-01-23_08h01.03.368,bars,2023.2.3,Win32,59.88023952,657b66ea316d21385b68909f,,,,,,,,,,,2576.9733,2577.9675,,,2578.4675,2578.7176,,20,200,,,,,,,,,,,,,,,,bars/014.png,bars/mask001.png,,,,,,,,,,,,1,2,,,,,,,4,2,3,2,,,,,,,,,,,2577.9675,2578.4675,2578.7177,2585.0177,space,6.2837,,2585.0177,60,20,2586.0172,2586.0172,2586.0228,,,,0,5,5,5,1,80,0,,,,,,,,
,,615da9ee365ab7d547b98979,65af55ead5e28191f76a94e3,2024-01-23_08h01.03.368,bars,2023.2.3,Win32,59.88023952,657b66ea316d21385b68909f,,,,,,,,,,,2586.0228,2587.0172,,,2587.5173,2587.7675,,45,45,,,,,,,,,,,,,,,,bars/007.png,bars/mask004.png,,,,,,,,,,,,3,2,,,,,,,2,4,2,5,,,,,,,,,,,2587.0172,2587.5173,2587.7676,2597.0511,space,9.267,,2597.0511,50,10,2598.0507,2598.0507,2598.0565,,,,0,6,6,6,1,175,55,,,,,,,,
,,615da9ee365ab7d547b98979,65af55ead5e28191f76a94e3,2024-01-23_08h01.03.368,bars,2023.2.3,Win32,59.88023952,657b66ea316d21385b68909f,,,,,,,,,,,2598.0566,2599.0563,,,2599.5561,2599.806,,126,126,,,,,,,,,,,,,,,,bars/034.png,bars/mask002.png,,,,,,,,,,,,5,1,,,,,,,4,2,5,2,,,,,,,,,,,2599.0563,2599.5561,2599.806,2602.1217,space,2.3014,,2602.1217,1,61,2603.1212,2603.1212,2603.1272,,,,0,7,7,7,1,125,65,,,,,,,,
,,615da9ee365ab7d547b98979,65af55ead5e28191f76a94e3,2024-01-23_08h01.03.368,bars,2023.2.3,Win32,59.88023952,657b66ea316d21385b68909f,,,,,,,,,,,2603.1274,2604.1207,,,2604.6347,2604.8871,,129,129,,,,,,,,,,,,,,,,bars/004.png,bars/mask004.png,,,,,,,,,,,,5,2,,,,,,,2,4,2,6,,,,,,,,,,,2604.1207,2604.6346,2604.8871,2607.5359,space,2.6168,,2607.5359,76,4,2608.5356,2608.5356,2608.5414,,,,0,8,8,8,1,25,125,,,,,,,,
,,615da9ee365ab7d547b98979,65af55ead5e28191f76a94e3,2024-01-23_08h01.03.368,bars,2023.2.3,Win32,59.88023952,657b66ea316d21385b68909f,,,,,,,,,,,2608.5415,2609.5349,,,2610.0349,2610.2847,,36,216,,,,,,,,,,,,,,,,bars/040.png,bars/mask005.png,,,,,,,,,,,,0,2,,,,,,,0,2,0,2,,,,,,,,,,,2609.5349,2610.0349,2610.2847,2615.6339,space,5.3338,,2615.6339,76,31,2616.6338,2616.6338,2616.6396,,,,0,9,9,9,1,140,5,,,,,,,,
,,615da9ee365ab7d547b98979,65af55ead5e28191f76a94e3,2024-01-23_08h01.03.368,bars,2023.2.3,Win32,59.88023952,657b66ea316d21385b68909f,,,,,,,,,,,2616.6397,2617.634,,,2618.1341,2618.3842,,62,62,,,,,,,,,,,,,,,,bars/001.png,bars/mask004.png,,,,,,,,,,,,1,2,,,,,,,0,4,0,5,,,,,,,,,,,2617.634,2618.1341,2618.3842,2624.5839,space,6.1834,,2624.5839,68,23,2625.5839,2625.5839,2625.5897,,,,0,10,10,10,1,130,85,,,,,,,,
,,615da9ee365ab7d547b98979,65af55ead5e28191f76a94e3,2024-01-23_08h01.03.368,bars,2023.2.3,Win32,59.88023952,657b66ea316d21385b68909f,,,,,,,,,,,2625.5898,2626.5836,,,2627.0843,2627.3339,,79,79,,,,,,,,,,,,,,,,bars/002.png,bars/mask008.png,,,,,,,,,,,,0,2,,,,,,,2,2,1,0,,,,,,,,,,,2626.5837,2627.0843,2627.334,2632.6181,space,5.2679,,2632.6181,51,6,2633.6181,2633.6182,2633.6237,,,,0,11,11,11,1,130,85,,,,,,,,
,,615da9ee365ab7d547b98979,65af55ead5e28191f76a94e3,2024-01-23_08h01.03.368,bars,2023.2.3,Win32,59.88023952,657b66ea316d21385b68909f,,,,,,,,,,,2633.6238,2634.6235,,,2635.1347,2635.3852,,121,121,,,,,,,,,,,,,,,,bars/037.png,bars/mask005.png,,,,,,,,,,,,2,2,,,,,,,4,4,5,5,,,,,,,,,,,2634.6235,2635.1346,2635.3852,2638.422,space,3.0329,,2638.422,29,16,2639.4217,2639.4217,2639.4274,,,,0,12,12,12,1,150,105,,,,,,,,
,,615da9ee365ab7d547b98979,65af55ead5e28191f76a94e3,2024-01-23_08h01.03.368,bars,2023.2.3,Win32,59.88023952,657b66ea316d21385b68909f,,,,,,,,,,,2639.4275,2640.4345,,,2640.9376,2641.1874,,125,125,,,,,,,,,,,,,,,,bars/039.png,bars/mask004.png,,,,,,,,,,,,1,2,,,,,,,2,2,0,3,,,,,,,,,,,2640.4345,2640.9375,2641.1874,2644.5015,space,3.2837,,2644.5015,50,20,2645.5021,2645.5021,2645.5079,,,,0,13,13,13,1,175,105,,,,,,,,
,,615da9ee365ab7d547b98979,65af55ead5e28191f76a94e3,2024-01-23_08h01.03.368,bars,2023.2.3,Win32,59.88023952,657b66ea316d21385b68909f,,,,,,,,,,,2645.5079,2646.5016,,,2647.0015,2647.2512,,109,109,,,,,,,,,,,,,,,,bars/039.png,bars/mask006.png,,,,,,,,,,,,3,2,,,,,,,4,4,5,4,,,,,,,,,,,2646.5016,2647.0014,2647.2512,2653.5339,space,6.267,,2653.5339,66,4,2654.5339,2654.5339,2654.5396,,,,0,14,14,14,1,175,105,,,,,,,,
,,615da9ee365ab7d547b98979,65af55ead5e28191f76a94e3,2024-01-23_08h01.03.368,bars,2023.2.3,Win32,59.88023952,657b66ea316d21385b68909f,,,,,,,,,,,2654.5396,2655.5343,,,2656.0342,2656.2839,,172,172,,,,,,,,,,,,,,,,bars/022.png,bars/mask002.png,,,,,,,,,,,,0,2,,,,,,,2,6,1,7,,,,,,,,,,,2655.5343,2656.0342,2656.2839,2660.4842,space,4.1835,,2660.4842,77,28,2661.4836,2661.4837,2661.4892,,,,0,15,15,15,1,95,20,,,,,,,,
,,615da9ee365ab7d547b98979,65af55ead5e28191f76a94e3,2024-01-23_08h01.03.368,bars,2023.2.3,Win32,59.88023952,657b66ea316d21385b68909f,,,,,,,,,,,2661.4894,2662.4835,,,2662.9836,2663.2337,,126,-54,,,,,,,,,,,,,,,,bars/000.png,bars/mask006.png,,,,,,,,,,,,2,2,,,,,,,4,4,2,5,,,,,,,,,,,2662.4835,2662.9836,2663.2337,2668.1007,space,4.8494,,2668.1007,86,19,2669.1005,2669.1005,2669.1062,,,,0,16,16,16,1,40,145,,,,,,,,
,,615da9ee365ab7d547b98979,65af55ead5e28191f76a94e3,2024-01-23_08h01.03.368,bars,2023.2.3,Win32,59.88023952,657b66ea316d21385b68909f,,,,,,,,,,,2669.1062,2670.1005,,,2670.6006,2670.851,,24,24,,,,,,,,,,,,,,,,bars/032.png,bars/mask005.png,,,,,,,,,,,,2,2,,,,,,,6,2,5,2,,,,,,,,,,,2670.1005,2670.6006,2670.851,2673.6011,space,2.7337,,2673.6011,79,4,2674.6002,2674.6002,2674.6057,,,,0,17,17,17,1,125,20,,,,,,,,
,,615da9ee365ab7d547b98979,65af55ead5e28191f76a94e3,2024-01-23_08h01.03.368,bars,2023.2.3,Win32,59.88023952,657b66ea316d21385b68909f,,,,,,,,,,,2674.6058,2675.6178,,,2676.1219,2676.3715,,32,32,,,,,,,,,,,,,,,,bars/012.png,bars/mask009.png,,,,,,,,,,,,1,2,,,,,,,8,4,7,3,,,,,,,,,,,2675.6178,2676.1219,2676.3715,2678.4016,space,2.0005,,2678.4017,58,17,2679.4011,2679.4011,2679.4067,,,,0,18,18,18,1,90,15,,,,,,,,
,,615da9ee365ab7d547b98979,65af55ead5e28191f76a94e3,2024-01-23_08h01.03.368,bars,2023.2.3,Win32,59.88023952,657b66ea316d21385b68909f,,,,,,,,,,,2679.4068,2680.403,,,2680.9001,2681.1513,,35,35,,,,,,,,,,,,,,,,bars/027.png,bars/mask003.png,,,,,,,,,,,,2,2,,,,,,,6,2,5,3,,,,,,,,,,,2680.403,2680.9,2681.1513,2688.867,space,7.7133,,2688.867,75,15,2689.8666,2689.8666,2689.8734,,,,0,19,19,19,1,110,50,,,,,,,,
,,615da9ee365ab7d547b98979,65af55ead5e28191f76a94e3,2024-01-23_08h01.03.368,bars,2023.2.3,Win32,59.88023952,657b66ea316d21385b68909f,,,,,,,,,,,2689.8736,2690.8668,,,2691.367,2691.6176,,131,131,,,,,,,,,,,,,,,,bars/039.png,bars/mask004.png,,,,,,,,,,,,0,2,,,,,,,8,4,8,2,,,,,,,,,,,2690.8668,2691.367,2691.6176,2698.0344,space,6.4003,,2698.0344,44,26,2699.0336,2699.0336,2699.0394,,,,0,20,20,20,1,175,105,,,,,,,,
,,615da9ee365ab7d547b98979,65af55ead5e28191f76a94e3,2024-01-23_08h01.03.368,bars,2023.2.3,Win32,59.88023952,657b66ea316d21385b68909f,,,,,,,,,,,2699.0395,2700.0338,,,2700.5336,2700.7837,,89,89,,,,,,,,,,,,,,,,bars/008.png,bars/mask005.png,,,,,,,,,,,,2,1,,,,,,,6,6,5,6,,,,,,,,,,,2700.0338,2700.5335,2700.7837,2703.5004,space,2.6999,,2703.5004,21,89,2704.5017,2704.5017,2704.5077,,,,0,21,21,21,1,110,0,,,,,,,,
,,615da9ee365ab7d547b98979,65af55ead5e28191f76a94e3,2024-01-23_08h01.03.368,bars,2023.2.3,Win32,59.88023952,657b66ea316d21385b68909f,,,,,,,,,,,2704.5079,2705.5001,,,2706.0006,2706.2505,,113,113,,,,,,,,,,,,,,,,bars/000.png,bars/mask001.png,,,,,,,,,,,,0,2,,,,,,,8,4,9,4,,,,,,,,,,,2705.5001,2706.0006,2706.2505,2709.6338,space,3.3661,,2709.6338,73,32,2710.6337,2710.6337,2710.64,,,,0,22,22,22,1,40,145,,,,,,,,
,,615da9ee365ab7d547b98979,65af55ead5e28191f76a94e3,2024-01-23_08h01.03.368,bars,2023.2.3,Win32,59.88023952,657b66ea316d21385b68909f,,,,,,,,,,,2710.6402,2711.6388,,,2712.1388,2712.3836,,46,46,,,,,,,,,,,,,,,,bars/028.png,bars/mask002.png,,,,,,,,,,,,10,1,,,,,,,10,2,10,2,,,,,,,,,,,2711.6388,2712.1388,2712.3836,2714.8711,space,2.4666,,2714.8711,1,74,2715.8676,2715.8676,2715.8734,,,,0,23,23,23,1,45,120,,,,,,,,
,,615da9ee365ab7d547b98979,65af55ead5e28191f76a94e3,2024-01-23_08h01.03.368,bars,2023.2.3,Win32,59.88023952,657b66ea316d21385b68909f,,,,,,,,,,,2715.8736,2716.8842,,,2717.3866,2717.6364,,157,-23,,,,,,,,,,,,,,,,bars/020.png,bars/mask009.png,,,,,,,,,,,,3,2,,,,,,,10,4,10,6,,,,,,,,,,,2716.8843,2717.3866,2717.6365,2720.3685,space,2.6991,,2720.3686,42,13,2721.3681,2721.3681,2721.374,,,,0,24,24,24,1,115,170,,,,,,,,
,,615da9ee365ab7d547b98979,65af55ead5e28191f76a94e3,2024-01-23_08h01.03.368,bars,2023.2.3,Win32,59.88023952,657b66ea316d21385b68909f,,,,,,,,,,,2721.3741,2722.3675,,,2722.8673,2723.1172,,46,46,,,,,,,,,,,,,,,,bars/007.png,bars/mask009.png,,,,,,,,,,,,5,2,,,,,,,10,6,9,7,,,,,,,,,,,2722.3675,2722.8673,2723.1172,2726.7337,space,3.6005,,2726.7337,51,9,2727.7332,2727.7333,2727.7388,,,,0,25,25,25,1,175,55,,,,,,,,
,,615da9ee365ab7d547b98979,65af55ead5e28191f76a94e3,2024-01-23_08h01.03.368,bars,2023.2.3,Win32,59.88023952,657b66ea316d21385b68909f,,,,,,,,,,,2727.7388,2728.7334,,,2729.2338,2729.4836,,43,43,,,,,,,,,,,,,,,,bars/035.png,bars/mask005.png,,,,,,,,,,,,3,2,,,,,,,10,8,10,8,,,,,,,,,,,2728.7334,2729.2338,2729.4836,2731.4176,space,1.9174,,2731.4176,48,17,2732.4172,2732.4172,2732.4227,,,,0,26,26,26,1,175,60,,,,,,,,
,,615da9ee365ab7d547b98979,65af55ead5e28191f76a94e3,2024-01-23_08h01.03.368,bars,2023.2.3,Win32,59.88023952,657b66ea316d21385b68909f,,,,,,,,,,,2732.4228,2733.4172,,,2733.9178,2734.1683,,131,131,,,,,,,,,,,,,,,,bars/037.png,bars/mask008.png,,,,,,,,,,,,4,1,,,,,,,10,10,10,10,,,,,,,,,,,2733.4172,2733.9178,2734.1683,2739.4671,space,5.2834,,2739.4671,19,26,2740.4682,2740.4682,2740.4743,,,,0,27,27,27,1,150,105,,,,,,,,
,,615da9ee365ab7d547b98979,65af55ead5e28191f76a94e3,2024-01-23_08h01.03.368,bars,2023.2.3,Win32,59.88023952,657b66ea316d21385b68909f,,,,,,,,,,,2740.4744,2741.469,,,2741.9675,2742.217,,135,135,,,,,,,,,,,,,,,,bars/027.png,bars/mask009.png,,,,,,,,,,,,2,1,,,,,,,10,8,10,8,,,,,,,,,,,2741.469,2741.9675,2742.217,2745.568,space,3.3344,,2745.568,25,85,2746.5669,2746.5669,2746.5725,,,,0,28,28,28,1,110,50,,,,,,,,
,,615da9ee365ab7d547b98979,65af55ead5e28191f76a94e3,2024-01-23_08h01.03.368,bars,2023.2.3,Win32,59.88023952,657b66ea316d21385b68909f,,,,,,,,,,,2746.5725,2747.5665,,,2748.0669,2748.3167,,47,47,,,,,,,,,,,,,,,,bars/034.png,bars/mask000.png,,,,,,,,,,,,4,2,,,,,,,8,10,8,10,,,,,,,,,,,2747.5665,2748.0669,2748.3167,2751.83,space,3.4968,,2751.83,78,18,2752.8335,2752.8335,2752.8394,,,,0,29,29,29,1,125,65,,,,,,,,
,,615da9ee365ab7d547b98979,65af55ead5e28191f76a94e3,2024-01-23_08h01.03.368,bars,2023.2.3,Win32,59.88023952,657b66ea316d21385b68909f,,,,,,,,,,,2752.8395,2753.8366,,,2754.3498,2754.6031,,34,34,,,,,,,,,,,,,,,,bars/025.png,bars/mask007.png,,,,,,,,,,,,8,2,,,,,,,6,10,7,10,,,,,,,,,,,2753.8366,2754.3498,2754.6031,2760.8668,space,6.25,,2760.8668,71,6,2761.8673,2761.8674,2761.882,,,,0,30,30,30,1,105,40,,,,,,,,
,,615da9ee365ab7d547b98979,65af55ead5e28191f76a94e3,2024-01-23_08h01.03.368,bars,2023.2.3,Win32,59.88023952,657b66ea316d21385b68909f,,,,,,,,,,,2761.8821,2762.883,,,2763.3833,2763.6329,,120,120,,,,,,,,,,,,,,,,bars/011.png,bars/mask009.png,,,,,,,,,,,,0,2,,,,,,,4,10,3,10,,,,,,,,,,,2762.883,2763.3833,2763.6329,2769.0343,space,5.3849,,2769.0344,40,35,2770.0342,2770.0343,2770.0398,,,,0,31,31,31,1,160,85,,,,,,,,
,,615da9ee365ab7d547b98979,65af55ead5e28191f76a94e3,2024-01-23_08h01.03.368,bars,2023.2.3,Win32,59.88023952,657b66ea316d21385b68909f,,,,,,,,,,,2770.0399,2771.0338,,,2771.5336,2771.7836,,131,131,,,,,,,,,,,,,,,,bars/004.png,bars/mask006.png,,,,,,,,,,,,8,2,,,,,,,6,10,7,10,,,,,,,,,,,2771.0338,2771.5336,2771.7836,2775.3176,space,3.5172,,2775.3177,74,6,2776.3169,2776.3169,2776.3224,,,,0,32,32,32,1,25,125,,,,,,,,
,,615da9ee365ab7d547b98979,65af55ead5e28191f76a94e3,2024-01-23_08h01.03.368,bars,2023.2.3,Win32,59.88023952,657b66ea316d21385b68909f,,,,,,,,,,,2776.3224,2777.3163,,,2777.8169,2778.0679,,114,114,,,,,,,,,,,,,,,,bars/039.png,bars/mask003.png,,,,,,,,,,,,6,2,,,,,,,4,10,3,9,,,,,,,,,,,2777.3163,2777.8169,2778.0679,2783.5668,space,5.4828,,2783.5669,61,9,2784.5666,2784.5666,2784.5722,,,,0,33,33,33,1,175,105,,,,,,,,
,,615da9ee365ab7d547b98979,65af55ead5e28191f76a94e3,2024-01-23_08h01.03.368,bars,2023.2.3,Win32,59.88023952,657b66ea316d21385b68909f,,,,,,,,,,,2784.5722,2785.5666,,,2786.068,2786.3167,,32,32,,,,,,,,,,,,,,,,bars/036.png,bars/mask000.png,,,,,,,,,,,,5,2,,,,,,,6,8,8,8,,,,,,,,,,,2785.5666,2786.068,2786.3168,2791.1997,space,4.8666,,2791.1997,67,12,2792.1998,2792.1998,2792.2053,,,,0,34,34,34,1,145,20,,,,,,,,
,,615da9ee365ab7d547b98979,65af55ead5e28191f76a94e3,2024-01-23_08h01.03.368,bars,2023.2.3,Win32,59.88023952,657b66ea316d21385b68909f,,,,,,,,,,,2792.2054,2793.2022,,,2793.702,2793.9518,,47,227,,,,,,,,,,,,,,,,bars/026.png,bars/mask004.png,,,,,,,,,,,,2,1,,,,,,,4,6,4,6,,,,,,,,,,,2793.2022,2793.702,2793.9518,2804.8012,space,10.817,,2804.8013,12,38,2805.8004,2805.8004,2805.8066,,,,0,35,35,35,1,35,85,,,,,,,,
,,615da9ee365ab7d547b98979,65af55ead5e28191f76a94e3,2024-01-23_08h01.03.368,bars,2023.2.3,Win32,59.88023952,657b66ea316d21385b68909f,,,,,,,,,,,2805.8067,2806.8002,,,2807.3007,2807.5502,,55,55,,,,,,,,,,,,,,,,bars/003.png,bars/mask003.png,,,,,,,,,,,,0,1,,,,,,,2,4,1,4,,,,,,,,,,,2806.8003,2807.3007,2807.5502,2815.8834,space,8.3167,,2815.8834,30,85,2816.8833,2816.8833,2816.8891,,,,0,36,36,36,1,25,140,,,,,,,,
,,615da9ee365ab7d547b98979,65af55ead5e28191f76a94e3,2024-01-23_08h01.03.368,bars,2023.2.3,Win32,59.88023952,657b66ea316d21385b68909f,,,,,,,,,,,2816.8892,2817.8841,,,2818.3835,2818.6352,,117,117,,,,,,,,,,,,,,,,bars/041.png,bars/mask003.png,,,,,,,,,,,,0,2,,,,,,,0,2,1,0,,,,,,,,,,,2817.8841,2818.3835,2818.6352,2832.5337,space,13.8832,,2832.5337,83,32,2833.5329,2833.5329,2833.5391,,,,0,37,37,37,1,20,85,,,,,,,,
,,615da9ee365ab7d547b98979,65af55ead5e28191f76a94e3,2024-01-23_08h01.03.368,bars,2023.2.3,Win32,59.88023952,657b66ea316d21385b68909f,,,,,,,,,,,2833.5393,2834.5336,,,2835.034,2835.2835,,134,134,,,,,,,,,,,,,,,,bars/041.png,bars/mask005.png,,,,,,,,,,,,0,2,,,,,,,2,0,2,1,,,,,,,,,,,2834.5336,2835.0339,2835.2836,2840.1996,space,4.9003,,2840.1996,66,49,2841.2005,2841.2005,2841.2059,,,,0,38,38,38,1,20,85,,,,,,,,
,,615da9ee365ab7d547b98979,65af55ead5e28191f76a94e3,2024-01-23_08h01.03.368,bars,2023.2.3,Win32,59.88023952,657b66ea316d21385b68909f,,,,,,,,,,,2841.206,2842.2004,,,2842.7003,2842.9511,,7,7,,,,,,,,,,,,,,,,bars/032.png,bars/mask007.png,,,,,,,,,,,,1,2,,,,,,,4,2,5,2,,,,,,,,,,,2842.2004,2842.7003,2842.9512,2848.2997,space,5.3318,,2848.2997,62,13,2849.3007,2849.3007,2849.3066,,,,0,39,39,39,1,125,20,,,,,,,,
,,615da9ee365ab7d547b98979,65af55ead5e28191f76a94e3,2024-01-23_08h01.03.368,bars,2023.2.3,Win32,59.88023952,657b66ea316d21385b68909f,,,,,,,,,,,2849.3067,2850.2997,,,2850.8,2851.0496,,68,68,,,,,,,,,,,,,,,,bars/001.png,bars/mask000.png,,,,,,,,,,,,0,2,,,,,,,6,0,7,1,,,,,,,,,,,2850.2997,2850.8,2851.0497,2854.1167,space,3.0505,,2854.1167,62,17,2855.1171,2855.1171,2855.1232,,,,0,40,40,40,1,130,85,,,,,,,,
,,615da9ee365ab7d547b98979,65af55ead5e28191f76a94e3,2024-01-23_08h01.03.368,bars,2023.2.3,Win32,59.88023952,657b66ea316d21385b68909f,,,,,,,,,,,2855.1233,2856.1177,,,2856.6168,2856.867,,146,146,,,,,,,,,,,,,,,,bars/020.png,bars/mask007.png,,,,,,,,,,,,0,2,,,,,,,4,2,4,2,,,,,,,,,,,2856.1177,2856.6168,2856.867,2862.4509,space,5.5676,,2862.4509,31,24,2863.4497,2863.4497,2863.4552,,,,0,41,41,41,1,115,170,,,,,,,,
,,615da9ee365ab7d547b98979,65af55ead5e28191f76a94e3,2024-01-23_08h01.03.368,bars,2023.2.3,Win32,59.88023952,657b66ea316d21385b68909f,,,,,,,,,,,2863.4554,2864.4535,,,2864.9681,2865.2198,,126,126,,,,,,,,,,,,,,,,bars/028.png,bars/mask003.png,,,,,,,,,,,,2,2,,,,,,,2,4,1,3,,,,,,,,,,,2864.4535,2864.9681,2865.2198,2874.1163,space,8.8833,,2874.1163,81,6,2875.1166,2875.1167,2875.117,,,,0,42,42,42,1,45,120,,,,,,,,
,,615da9ee365ab7d547b98979,65af55ead5e28191f76a94e3,2024-01-23_08h01.03.368,bars,2023.2.3,Win32,59.88023952,657b66ea316d21385b68909f,,,,,,,,,,,2875.1171,2876.1166,,,2876.6182,2876.8667,,125,125,,,,,,,,,,,,,,,,bars/049.png,bars/mask000.png,,,,,,,,,,,,1,2,,,,,,,0,2,1,1,,,,,,,,,,,2876.1167,2876.6182,2876.8667,2879.5501,space,2.667,,2879.5501,35,10,2880.5501,2880.5501,2880.5556,,,,0,43,43,43,1,160,115,,,,,,,,
,,615da9ee365ab7d547b98979,65af55ead5e28191f76a94e3,2024-01-23_08h01.03.368,bars,2023.2.3,Win32,59.88023952,657b66ea316d21385b68909f,,,,,,,,,,,2880.5556,2881.5519,,,2882.0501,2882.3002,,149,-31,,,,,,,,,,,,,,,,bars/015.png,bars/mask000.png,,,,,,,,,,,,3,2,,,,,,,0,4,0,4,,,,,,,,,,,2881.5519,2882.05,2882.3002,2887.0998,space,4.7829,,2887.0998,39,11,2888.0997,2888.0997,2888.1053,,,,0,44,44,44,1,110,160,,,,,,,,
,,615da9ee365ab7d547b98979,65af55ead5e28191f76a94e3,2024-01-23_08h01.03.368,bars,2023.2.3,Win32,59.88023952,657b66ea316d21385b68909f,,,,,,,,,,,2888.1054,2889.0999,,,2889.6002,2889.8496,,38,218,,,,,,,,,,,,,,,,bars/014.png,bars/mask006.png,,,,,,,,,,,,0,2,,,,,,,0,6,0,9,,,,,,,,,,,2889.0999,2889.6002,2889.8496,2895.9002,space,6.0334,,2895.9002,42,38,2896.8997,2896.8997,2896.9055,,,,0,45,45,45,1,80,0,,,,,,,,
,,615da9ee365ab7d547b98979,65af55ead5e28191f76a94e3,2024-01-23_08h01.03.368,bars,2023.2.3,Win32,59.88023952,657b66ea316d21385b68909f,,,,,,,,,,,2896.9056,2897.9051,,,2898.4049,2898.6505,,23,203,,,,,,,,,,,,,,,,bars/024.png,bars/mask004.png,,,,,,,,,,,,0,2,,,,,,,2,4,2,3,,,,,,,,,,,2897.9051,2898.4049,2898.6505,2903.586,space,4.9157,,2903.586,83,33,2904.5856,2904.5856,2904.5911,,,,0,46,46,46,1,120,170,,,,,,,,
,,615da9ee365ab7d547b98979,65af55ead5e28191f76a94e3,2024-01-23_08h01.03.368,bars,2023.2.3,Win32,59.88023952,657b66ea316d21385b68909f,,,,,,,,,,,2904.5912,2905.5835,,,2906.0849,2906.3347,,71,71,,,,,,,,,,,,,,,,bars/047.png,bars/mask002.png,,,,,,,,,,,,2,2,,,,,,,0,2,1,2,,,,,,,,,,,2905.5836,2906.0849,2906.3347,2910.4162,space,4.0663,,2910.4162,56,1,2911.4162,2911.4162,2911.4216,,,,0,47,47,47,1,15,70,,,,,,,,
,,615da9ee365ab7d547b98979,65af55ead5e28191f76a94e3,2024-01-23_08h01.03.368,bars,2023.2.3,Win32,59.88023952,657b66ea316d21385b68909f,,,,,,,,,,,2911.4218,2912.4159,,,2912.9162,2913.166,,149,149,,,,,,,,,,,,,,,,bars/000.png,bars/mask006.png,,,,,,,,,,,,4,2,,,,,,,0,4,2,5,,,,,,,,,,,2912.4159,2912.9162,2913.1661,2915.668,space,2.4855,,2915.668,71,4,2916.6666,2916.6666,2916.6721,,,,0,48,48,48,1,40,145,,,,,,,,
,,615da9ee365ab7d547b98979,65af55ead5e28191f76a94e3,2024-01-23_08h01.03.368,bars,2023.2.3,Win32,59.88023952,657b66ea316d21385b68909f,,,,,,,,,,,2916.6723,2917.6668,,,2918.167,2918.4167,,55,55,,,,,,,,,,,,,,,,bars/025.png,bars/mask008.png,,,,,,,,,,,,2,2,,,,,,,2,2,1,3,,,,,,,,,,,2917.6668,2918.167,2918.4167,2927.2329,space,8.8001,,2927.2329,50,15,2928.2325,2928.2325,2928.2383,,,,0,49,49,49,1,105,40,,,,,,,,
,,615da9ee365ab7d547b98979,65af55ead5e28191f76a94e3,2024-01-23_08h01.03.368,bars,2023.2.3,Win32,59.88023952,657b66ea316d21385b68909f,,,,,,,,,,,,,,,,,,,,,,,,,,,,,,,,,,,,,,,,,,,,,,,,,,,,,,,,,,,,,,,,,,,,,,,,,,,,,,,,,,,,,,,,,,,,,2928.2385,2988.2323,0,2,2,0,1,sequence_tables/blk016.csv
,,615da9ee365ab7d547b98979,65af55ead5e28191f76a94e3,2024-01-23_08h01.03.368,bars,2023.2.3,Win32,59.88023952,657b66ea316d21385b68909f,,,,,,,,,,,2991.1856,2992.1829,,,2992.6832,2992.9332,,100,100,,,,,,,,,,,,,,,,bars/041.png,bars/mask001.png,,,,,,,,,,,,1,2,,,,,,,4,2,4,1,,,,,,2988.2379,2991.1831,space,2.934,,2992.183,2992.6831,2992.9332,2995.8331,space,2.8834,,2995.8332,80,15,2996.8326,2996.8326,2996.8381,,,,0,0,0,0,1,20,85,,,,,,,,
,,615da9ee365ab7d547b98979,65af55ead5e28191f76a94e3,2024-01-23_08h01.03.368,bars,2023.2.3,Win32,59.88023952,657b66ea316d21385b68909f,,,,,,,,,,,2996.8382,2997.8326,,,2998.3324,2998.5826,,57,57,,,,,,,,,,,,,,,,bars/029.png,bars/mask005.png,,,,,,,,,,,,2,2,,,,,,,2,4,3,3,,,,,,,,,,,2997.8326,2998.3324,2998.5826,3000.766,space,2.1669,,3000.766,33,12,3001.7663,3001.7663,3001.7718,,,,0,1,1,1,1,90,45,,,,,,,,
,,615da9ee365ab7d547b98979,65af55ead5e28191f76a94e3,2024-01-23_08h01.03.368,bars,2023.2.3,Win32,59.88023952,657b66ea316d21385b68909f,,,,,,,,,,,3001.7719,3002.7659,,,3003.2659,3003.516,,45,45,,,,,,,,,,,,,,,,bars/031.png,bars/mask005.png,,,,,,,,,,,,4,2,,,,,,,0,6,0,6,,,,,,,,,,,3002.7659,3003.2659,3003.516,3007.0328,space,3.4999,,3007.0328,75,10,3008.0324,3008.0324,3008.0379,,,,0,2,2,2,1,120,35,,,,,,,,
,,615da9ee365ab7d547b98979,65af55ead5e28191f76a94e3,2024-01-23_08h01.03.368,bars,2023.2.3,Win32,59.88023952,657b66ea316d21385b68909f,,,,,,,,,,,3008.038,3009.0325,,,3009.5325,3009.7827,,40,40,,,,,,,,,,,,,,,,bars/035.png,bars/mask006.png,,,,,,,,,,,,2,2,,,,,,,2,4,0,5,,,,,,,,,,,3009.0325,3009.5325,3009.7827,3012.6334,space,2.8346,,3012.6334,45,20,3013.6363,3013.6363,3013.6421,,,,0,3,3,3,1,175,60,,,,,,,,
,,615da9ee365ab7d547b98979,65af55ead5e28191f76a94e3,2024-01-23_08h01.03.368,bars,2023.2.3,Win32,59.88023952,657b66ea316d21385b68909f,,,,,,,,,,,3013.6422,3014.6359,,,3015.1336,3015.3856,,40,40,,,,,,,,,,,,,,,,bars/036.png,bars/mask005.png,,,,,,,,,,,,1,2,,,,,,,0,2,0,3,,,,,,,,,,,3014.6359,3015.1336,3015.3856,3023.1822,space,7.7831,,3023.1823,75,20,3024.182,3024.1821,3024.1878,,,,0,4,4,4,1,145,20,,,,,,,,
,,615da9ee365ab7d547b98979,65af55ead5e28191f76a94e3,2024-01-23_08h01.03.368,bars,2023.2.3,Win32,59.88023952,657b66ea316d21385b68909f,,,,,,,,,,,3024.1879,3025.1819,,,3025.6822,3025.9321,,51,51,,,,,,,,,,,,,,,,bars/005.png,bars/mask008.png,,,,,,,,,,,,0,1,,,,,,,0,4,0,5,,,,,,,,,,,3025.1819,3025.6822,3025.9322,3033.1161,space,7.1674,,3033.1161,41,89,3034.1157,3034.1157,3034.1219,,,,0,5,5,5,1,10,140,,,,,,,,
,,615da9ee365ab7d547b98979,65af55ead5e28191f76a94e3,2024-01-23_08h01.03.368,bars,2023.2.3,Win32,59.88023952,657b66ea316d21385b68909f,,,,,,,,,,,3034.122,3035.1156,,,3035.6159,3035.867,,116,116,,,,,,,,,,,,,,,,bars/039.png,bars/mask008.png,,,,,,,,,,,,1,2,,,,,,,0,2,0,1,,,,,,,,,,,3035.1156,3035.6159,3035.867,3042.566,space,6.6819,,3042.566,59,11,3043.566,3043.566,3043.5733,,,,0,6,6,6,1,175,105,,,,,,,,
,,615da9ee365ab7d547b98979,65af55ead5e28191f76a94e3,2024-01-23_08h01.03.368,bars,2023.2.3,Win32,59.88023952,657b66ea316d21385b68909f,,,,,,,,,,,3043.5733,3044.5667,,,3045.0556,3045.3157,,109,109,,,,,,,,,,,,,,,,bars/037.png,bars/mask009.png,,,,,,,,,,,,1,2,,,,,,,0,0,1,1,,,,,,,,,,,3044.5667,3045.0556,3045.3157,3050.2532,space,4.9156,,3050.2533,41,4,3051.2529,3051.2529,3051.2587,,,,0,7,7,7,1,150,105,,,,,,,,
,,615da9ee365ab7d547b98979,65af55ead5e28191f76a94e3,2024-01-23_08h01.03.368,bars,2023.2.3,Win32,59.88023952,657b66ea316d21385b68909f,,,,,,,,,,,3051.2588,3052.2526,,,3052.7488,3053.0023,,121,121,,,,,,,,,,,,,,,,bars/049.png,bars/mask001.png,,,,,,,,,,,,2,2,,,,,,,0,2,0,2,,,,,,,,,,,3052.2526,3052.7488,3053.0023,3055.4332,space,2.4,,3055.4332,39,6,3056.4498,3056.4498,3056.4553,,,,0,8,8,8,1,160,115,,,,,,,,
,,615da9ee365ab7d547b98979,65af55ead5e28191f76a94e3,2024-01-23_08h01.03.368,bars,2023.2.3,Win32,59.88023952,657b66ea316d21385b68909f,,,,,,,,,,,3056.4554,3057.45,,,3057.9499,3058.1999,,109,109,,,,,,,,,,,,,,,,bars/011.png,bars/mask003.png,,,,,,,,,,,,0,2,,,,,,,2,0,1,1,,,,,,,,,,,3057.45,3057.9499,3058.1999,3061.2325,space,3.0172,,3061.2325,51,24,3062.2325,3062.2325,3062.238,,,,0,9,9,9,1,160,85,,,,,,,,
,,615da9ee365ab7d547b98979,65af55ead5e28191f76a94e3,2024-01-23_08h01.03.368,bars,2023.2.3,Win32,59.88023952,657b66ea316d21385b68909f,,,,,,,,,,,3062.2381,3063.2329,,,3063.7325,3063.9826,,43,223,,,,,,,,,,,,,,,,bars/040.png,bars/mask003.png,,,,,,,,,,,,0,2,,,,,,,0,0,0,0,,,,,,,,,,,3063.2329,3063.7325,3063.9826,3068.4329,space,4.4339,,3068.4329,83,38,3069.4327,3069.4327,3069.4382,,,,0,10,10,10,1,140,5,,,,,,,,
,,615da9ee365ab7d547b98979,65af55ead5e28191f76a94e3,2024-01-23_08h01.03.368,bars,2023.2.3,Win32,59.88023952,657b66ea316d21385b68909f,,,,,,,,,,,3069.4383,3070.4329,,,3070.9328,3071.1827,,171,171,,,,,,,,,,,,,,,,bars/033.png,bars/mask004.png,,,,,,,,,,,,1,2,,,,,,,2,2,3,3,,,,,,,,,,,3070.4329,3070.9328,3071.1827,3076.1823,space,4.9833,,3076.1823,34,16,3077.1826,3077.1827,3077.1941,,,,0,11,11,11,1,25,155,,,,,,,,
,,615da9ee365ab7d547b98979,65af55ead5e28191f76a94e3,2024-01-23_08h01.03.368,bars,2023.2.3,Win32,59.88023952,657b66ea316d21385b68909f,,,,,,,,,,,3077.1942,3078.2001,,,3078.6904,3078.9334,,111,111,,,,,,,,,,,,,,,,bars/019.png,bars/mask001.png,,,,,,,,,,,,0,2,,,,,,,0,0,0,0,,,,,,,,,,,3078.2001,3078.6904,3078.9334,3083.1836,space,4.2479,,3083.1836,66,6,3084.1716,3084.1716,3084.1771,,,,0,12,12,12,1,45,105,,,,,,,,
,,615da9ee365ab7d547b98979,65af55ead5e28191f76a94e3,2024-01-23_08h01.03.368,bars,2023.2.3,Win32,59.88023952,657b66ea316d21385b68909f,,,,,,,,,,,3084.1772,3085.1674,,,3085.6706,3085.9333,,89,89,,,,,,,,,,,,,,,,bars/019.png,bars/mask003.png,,,,,,,,,,,,0,2,,,,,,,0,2,0,0,,,,,,,,,,,3085.1674,3085.6706,3085.9333,3091.3013,space,5.3489,,3091.3014,44,16,3092.301,3092.301,3092.3068,,,,0,13,13,13,1,45,105,,,,,,,,
,,615da9ee365ab7d547b98979,65af55ead5e28191f76a94e3,2024-01-23_08h01.03.368,bars,2023.2.3,Win32,59.88023952,657b66ea316d21385b68909f,,,,,,,,,,,3092.307,3093.3004,,,3093.8003,3094.0502,,107,107,,,,,,,,,,,,,,,,bars/019.png,bars/mask005.png,,,,,,,,,,,,4,2,,,,,,,0,4,0,4,,,,,,,,,,,3093.3004,3093.8003,3094.0502,3096.2325,space,2.1669,,3096.2325,62,2,3097.232,3097.232,3097.2322,,,,0,14,14,14,1,45,105,,,,,,,,
,,615da9ee365ab7d547b98979,65af55ead5e28191f76a94e3,2024-01-23_08h01.03.368,bars,2023.2.3,Win32,59.88023952,657b66ea316d21385b68909f,,,,,,,,,,,3097.2323,3098.2318,,,3098.7323,3098.982,,142,142,,,,,,,,,,,,,,,,bars/005.png,bars/mask002.png,,,,,,,,,,,,2,2,,,,,,,2,2,3,2,,,,,,,,,,,3098.2319,3098.7323,3098.982,3105.1495,space,6.1509,,3105.1495,48,2,3106.1493,3106.1493,3106.1552,,,,0,15,15,15,1,10,140,,,,,,,,
,,615da9ee365ab7d547b98979,65af55ead5e28191f76a94e3,2024-01-23_08h01.03.368,bars,2023.2.3,Win32,59.88023952,657b66ea316d21385b68909f,,,,,,,,,,,3106.1553,3107.1491,,,3107.6492,3107.8991,,45,45,,,,,,,,,,,,,,,,bars/022.png,bars/mask007.png,,,,,,,,,,,,0,2,,,,,,,0,0,0,0,,,,,,,,,,,3107.1491,3107.6491,3107.8991,3110.8822,space,2.9666,,3110.8823,50,25,3111.8823,3111.8823,3111.8878,,,,0,16,16,16,1,95,20,,,,,,,,
,,615da9ee365ab7d547b98979,65af55ead5e28191f76a94e3,2024-01-23_08h01.03.368,bars,2023.2.3,Win32,59.88023952,657b66ea316d21385b68909f,,,,,,,,,,,3111.8879,3112.8821,,,3113.3823,3113.6321,,125,125,,,,,,,,,,,,,,,,bars/042.png,bars/mask003.png,,,,,,,,,,,,0,1,,,,,,,0,2,0,2,,,,,,,,,,,3112.8821,3113.3823,3113.6321,3116.6159,space,2.9669,,3116.6159,20,50,3117.6156,3117.6156,3117.6216,,,,0,17,17,17,1,145,75,,,,,,,,
,,615da9ee365ab7d547b98979,65af55ead5e28191f76a94e3,2024-01-23_08h01.03.368,bars,2023.2.3,Win32,59.88023952,657b66ea316d21385b68909f,,,,,,,,,,,3117.6217,3118.6153,,,3119.1156,3119.3656,,3,3,,,,,,,,,,,,,,,,bars/008.png,bars/mask007.png,,,,,,,,,,,,2,2,,,,,,,0,4,0,2,,,,,,,,,,,3118.6153,3119.1156,3119.3656,3121.8321,space,2.4501,,3121.8321,73,3,3122.832,3122.832,3122.8381,,,,0,18,18,18,1,110,0,,,,,,,,
,,615da9ee365ab7d547b98979,65af55ead5e28191f76a94e3,2024-01-23_08h01.03.368,bars,2023.2.3,Win32,59.88023952,657b66ea316d21385b68909f,,,,,,,,,,,3122.8381,3123.8368,,,3124.3497,3124.6031,,80,80,,,,,,,,,,,,,,,,bars/021.png,bars/mask005.png,,,,,,,,,,,,5,2,,,,,,,2,6,4,8,,,,,,,,,,,3123.8368,3124.3496,3124.6031,3129.0178,space,4.4001,,3129.0178,75,10,3130.0173,3130.0173,3130.0228,,,,0,19,19,19,1,155,70,,,,,,,,
,,615da9ee365ab7d547b98979,65af55ead5e28191f76a94e3,2024-01-23_08h01.03.368,bars,2023.2.3,Win32,59.88023952,657b66ea316d21385b68909f,,,,,,,,,,,3130.0229,3131.0169,,,3131.5166,3131.7665,,168,-12,,,,,,,,,,,,,,,,bars/048.png,bars/mask009.png,,,,,,,,,,,,2,2,,,,,,,0,4,0,3,,,,,,,,,,,3131.0169,3131.5166,3131.7665,3136.7485,space,4.967,,3136.7485,62,7,3137.7487,3137.7488,3137.7543,,,,0,20,20,20,1,50,175,,,,,,,,
,,615da9ee365ab7d547b98979,65af55ead5e28191f76a94e3,2024-01-23_08h01.03.368,bars,2023.2.3,Win32,59.88023952,657b66ea316d21385b68909f,,,,,,,,,,,3137.7544,3138.7488,,,3139.2499,3139.4987,,4,4,,,,,,,,,,,,,,,,bars/040.png,bars/mask006.png,,,,,,,,,,,,7,2,,,,,,,2,6,3,7,,,,,,,,,,,3138.7488,3139.2498,3139.4987,3146.749,space,7.2337,,3146.749,44,1,3147.749,3147.749,3147.7547,,,,0,21,21,21,1,140,5,,,,,,,,
,,615da9ee365ab7d547b98979,65af55ead5e28191f76a94e3,2024-01-23_08h01.03.368,bars,2023.2.3,Win32,59.88023952,657b66ea316d21385b68909f,,,,,,,,,,,3147.7549,3148.7482,,,3149.2486,3149.4985,,45,45,,,,,,,,,,,,,,,,bars/007.png,bars/mask006.png,,,,,,,,,,,,6,2,,,,,,,0,8,0,9,,,,,,,,,,,3148.7482,3149.2486,3149.4986,3152.7658,space,3.2508,,3152.7659,50,10,3153.7654,3153.7655,3153.771,,,,0,22,22,22,1,175,55,,,,,,,,
,,615da9ee365ab7d547b98979,65af55ead5e28191f76a94e3,2024-01-23_08h01.03.368,bars,2023.2.3,Win32,59.88023952,657b66ea316d21385b68909f,,,,,,,,,,,3153.7711,3154.7661,,,3155.2655,3155.5154,,106,106,,,,,,,,,,,,,,,,bars/019.png,bars/mask008.png,,,,,,,,,,,,5,2,,,,,,,0,6,1,5,,,,,,,,,,,3154.7662,3155.2655,3155.5154,3159.299,space,3.7669,,3159.299,61,1,3160.2994,3160.2994,3160.3102,,,,0,23,23,23,1,45,105,,,,,,,,
,,615da9ee365ab7d547b98979,65af55ead5e28191f76a94e3,2024-01-23_08h01.03.368,bars,2023.2.3,Win32,59.88023952,657b66ea316d21385b68909f,,,,,,,,,,,3160.3103,3161.3031,,,3161.8032,3162.0531,,31,31,,,,,,,,,,,,,,,,bars/008.png,bars/mask006.png,,,,,,,,,,,,0,2,,,,,,,2,8,2,9,,,,,,,,,,,3161.3031,3161.8032,3162.0532,3167.8671,space,5.8012,,3167.8671,79,31,3168.8668,3168.8668,3168.8726,,,,0,24,24,24,1,110,0,,,,,,,,
,,615da9ee365ab7d547b98979,65af55ead5e28191f76a94e3,2024-01-23_08h01.03.368,bars,2023.2.3,Win32,59.88023952,657b66ea316d21385b68909f,,,,,,,,,,,3168.8727,3169.866,,,3170.3662,3170.6159,,32,212,,,,,,,,,,,,,,,,bars/040.png,bars/mask003.png,,,,,,,,,,,,1,2,,,,,,,0,10,1,10,,,,,,,,,,,3169.866,3170.3661,3170.6159,3178.449,space,7.8172,,3178.4491,72,27,3179.4487,3179.4487,3179.4546,,,,0,25,25,25,1,140,5,,,,,,,,
,,615da9ee365ab7d547b98979,65af55ead5e28191f76a94e3,2024-01-23_08h01.03.368,bars,2023.2.3,Win32,59.88023952,657b66ea316d21385b68909f,,,,,,,,,,,3179.4546,3180.449,,,3180.9496,3181.1989,,53,53,,,,,,,,,,,,,,,,bars/035.png,bars/mask000.png,,,,,,,,,,,,7,2,,,,,,,2,8,3,9,,,,,,,,,,,3180.449,3180.9496,3181.1989,3184.265,space,3.0497,,3184.265,58,7,3185.2651,3185.2651,3185.2705,,,,0,26,26,26,1,175,60,,,,,,,,
,,615da9ee365ab7d547b98979,65af55ead5e28191f76a94e3,2024-01-23_08h01.03.368,bars,2023.2.3,Win32,59.88023952,657b66ea316d21385b68909f,,,,,,,,,,,3185.2706,3186.265,,,3186.7654,3187.0151,,146,-34,,,,,,,,,,,,,,,,bars/044.png,bars/mask000.png,,,,,,,,,,,,7,2,,,,,,,0,10,0,10,,,,,,,,,,,3186.265,3186.7654,3187.0151,3191.1655,space,4.134,,3191.1655,71,9,3192.1652,3192.1652,3192.1707,,,,0,27,27,27,1,75,155,,,,,,,,
,,615da9ee365ab7d547b98979,65af55ead5e28191f76a94e3,2024-01-23_08h01.03.368,bars,2023.2.3,Win32,59.88023952,657b66ea316d21385b68909f,,,,,,,,,,,3192.1707,3193.1655,,,3193.6653,3193.9152,,104,104,,,,,,,,,,,,,,,,bars/041.png,bars/mask000.png,,,,,,,,,,,,4,2,,,,,,,0,10,0,10,,,,,,,,,,,3193.1655,3193.6653,3193.9152,3198.2317,space,4.3001,,3198.2317,84,19,3199.2315,3199.2315,3199.2375,,,,0,28,28,28,1,20,85,,,,,,,,
,,615da9ee365ab7d547b98979,65af55ead5e28191f76a94e3,2024-01-23_08h01.03.368,bars,2023.2.3,Win32,59.88023952,657b66ea316d21385b68909f,,,,,,,,,,,3199.2376,3200.2355,,,3200.7327,3200.9854,,166,-14,,,,,,,,,,,,,,,,bars/033.png,bars/mask007.png,,,,,,,,,,,,6,2,,,,,,,0,10,1,10,,,,,,,,,,,3200.2356,3200.7327,3200.9854,3204.3173,space,3.2995,,3204.3174,39,11,3205.3168,3205.3168,3205.3222,,,,0,29,29,29,1,25,155,,,,,,,,
,,615da9ee365ab7d547b98979,65af55ead5e28191f76a94e3,2024-01-23_08h01.03.368,bars,2023.2.3,Win32,59.88023952,657b66ea316d21385b68909f,,,,,,,,,,,3205.3224,3206.3164,,,3206.8162,3207.0659,,126,126,,,,,,,,,,,,,,,,bars/049.png,bars/mask008.png,,,,,,,,,,,,4,2,,,,,,,2,8,2,6,,,,,,,,,,,3206.3164,3206.8162,3207.0659,3210.2158,space,3.1345,,3210.2158,34,11,3211.2152,3211.2153,3211.2207,,,,0,30,30,30,1,160,115,,,,,,,,
,,615da9ee365ab7d547b98979,65af55ead5e28191f76a94e3,2024-01-23_08h01.03.368,bars,2023.2.3,Win32,59.88023952,657b66ea316d21385b68909f,,,,,,,,,,,3211.2209,3212.215,,,3212.715,3212.965,,53,53,,,,,,,,,,,,,,,,bars/038.png,bars/mask001.png,,,,,,,,,,,,3,2,,,,,,,4,6,4,7,,,,,,,,,,,3212.215,3212.715,3212.9651,3216.8833,space,3.9016,,3216.8833,68,17,3217.8829,3217.8829,3217.8885,,,,0,31,31,31,1,165,70,,,,,,,,
,,615da9ee365ab7d547b98979,65af55ead5e28191f76a94e3,2024-01-23_08h01.03.368,bars,2023.2.3,Win32,59.88023952,657b66ea316d21385b68909f,,,,,,,,,,,3217.8886,3218.8822,,,3219.382,3219.6321,,130,130,,,,,,,,,,,,,,,,bars/015.png,bars/mask008.png,,,,,,,,,,,,0,1,,,,,,,2,8,1,10,,,,,,,,,,,3218.8823,3219.382,3219.6321,3223.2651,space,3.6165,,3223.2651,20,30,3224.2647,3224.2647,3224.2707,,,,0,32,32,32,1,110,160,,,,,,,,
,,615da9ee365ab7d547b98979,65af55ead5e28191f76a94e3,2024-01-23_08h01.03.368,bars,2023.2.3,Win32,59.88023952,657b66ea316d21385b68909f,,,,,,,,,,,3224.2707,3225.2656,,,3225.7651,3226.0153,,59,59,,,,,,,,,,,,,,,,bars/021.png,bars/mask001.png,,,,,,,,,,,,5,2,,,,,,,0,10,1,8,,,,,,,,,,,3225.2656,3225.7651,3226.0153,3232.9166,space,6.8848,,3232.9166,84,11,3233.9151,3233.9151,3233.9214,,,,0,33,33,33,1,155,70,,,,,,,,
,,615da9ee365ab7d547b98979,65af55ead5e28191f76a94e3,2024-01-23_08h01.03.368,bars,2023.2.3,Win32,59.88023952,657b66ea316d21385b68909f,,,,,,,,,,,3233.9215,3234.9203,,,3235.4199,3235.67,,54,54,,,,,,,,,,,,,,,,bars/017.png,bars/mask006.png,,,,,,,,,,,,6,2,,,,,,,2,8,2,9,,,,,,,,,,,3234.9203,3235.4199,3235.67,3241.4338,space,5.7499,,3241.4339,89,9,3242.4334,3242.4334,3242.439,,,,0,34,34,34,1,145,45,,,,,,,,
,,615da9ee365ab7d547b98979,65af55ead5e28191f76a94e3,2024-01-23_08h01.03.368,bars,2023.2.3,Win32,59.88023952,657b66ea316d21385b68909f,,,,,,,,,,,3242.4391,3243.4329,,,3243.9329,3244.1827,,20,20,,,,,,,,,,,,,,,,bars/036.png,bars/mask005.png,,,,,,,,,,,,7,2,,,,,,,4,6,4,7,,,,,,,,,,,3243.4329,3243.9329,3244.1827,3247.2982,space,3.1001,,3247.2982,55,0,3248.2986,3248.2986,3248.307,,,,0,35,35,35,1,145,20,,,,,,,,
,,615da9ee365ab7d547b98979,65af55ead5e28191f76a94e3,2024-01-23_08h01.03.368,bars,2023.2.3,Win32,59.88023952,657b66ea316d21385b68909f,,,,,,,,,,,3248.3071,3249.2983,,,3249.798,3250.0481,,118,118,,,,,,,,,,,,,,,,bars/007.png,bars/mask000.png,,,,,,,,,,,,0,1,,,,,,,6,4,7,2,,,,,,,,,,,3249.2983,3249.7979,3250.0481,3254.0991,space,4.0325,,3254.0991,57,63,3255.0991,3255.0991,3255.1049,,,,0,36,36,36,1,175,55,,,,,,,,
,,615da9ee365ab7d547b98979,65af55ead5e28191f76a94e3,2024-01-23_08h01.03.368,bars,2023.2.3,Win32,59.88023952,657b66ea316d21385b68909f,,,,,,,,,,,3255.1051,3256.0986,,,3256.599,3256.8487,,127,127,,,,,,,,,,,,,,,,bars/037.png,bars/mask006.png,,,,,,,,,,,,2,2,,,,,,,4,6,5,6,,,,,,,,,,,3256.0986,3256.599,3256.8488,3258.7986,space,1.9335,,3258.7986,23,22,3259.7979,3259.7979,3259.8038,,,,0,37,37,37,1,150,105,,,,,,,,
,,615da9ee365ab7d547b98979,65af55ead5e28191f76a94e3,2024-01-23_08h01.03.368,bars,2023.2.3,Win32,59.88023952,657b66ea316d21385b68909f,,,,,,,,,,,3259.8039,3260.798,,,3261.2982,3261.5483,,107,107,,,,,,,,,,,,,,,,bars/023.png,bars/mask007.png,,,,,,,,,,,,7,2,,,,,,,2,8,3,9,,,,,,,,,,,3260.798,3261.2982,3261.5483,3269.1651,space,7.6003,,3269.1652,87,8,3270.165,3270.165,3270.1708,,,,0,38,38,38,1,20,115,,,,,,,,
,,615da9ee365ab7d547b98979,65af55ead5e28191f76a94e3,2024-01-23_08h01.03.368,bars,2023.2.3,Win32,59.88023952,657b66ea316d21385b68909f,,,,,,,,,,,3270.1709,3271.1704,,,3271.6703,3271.9202,,129,309,,,,,,,,,,,,,,,,bars/049.png,bars/mask006.png,,,,,,,,,,,,5,2,,,,,,,0,10,1,10,,,,,,,,,,,3271.1704,3271.6703,3271.9202,3278.9658,space,7.0345,,3278.9658,31,14,3279.9666,3279.9666,3279.9725,,,,0,39,39,39,1,160,115,,,,,,,,
,,615da9ee365ab7d547b98979,65af55ead5e28191f76a94e3,2024-01-23_08h01.03.368,bars,2023.2.3,Win32,59.88023952,657b66ea316d21385b68909f,,,,,,,,,,,3279.9726,3280.9661,,,3281.466,3281.7156,,85,85,,,,,,,,,,,,,,,,bars/046.png,bars/mask008.png,,,,,,,,,,,,10,2,,,,,,,2,10,2,10,,,,,,,,,,,3280.9662,3281.466,3281.7156,3295.3316,space,13.6007,,3295.3317,70,0,3296.3315,3296.3315,3296.3372,,,,0,40,40,40,1,155,85,,,,,,,,
,,615da9ee365ab7d547b98979,65af55ead5e28191f76a94e3,2024-01-23_08h01.03.368,bars,2023.2.3,Win32,59.88023952,657b66ea316d21385b68909f,,,,,,,,,,,3296.3373,3297.3328,,,3297.8315,3298.0814,,102,102,,,,,,,,,,,,,,,,bars/041.png,bars/mask008.png,,,,,,,,,,,,3,2,,,,,,,4,8,3,6,,,,,,,,,,,3297.3328,3297.8315,3298.0814,3300.7481,space,2.6504,,3300.7481,82,17,3301.7494,3301.7494,3301.7548,,,,0,41,41,41,1,20,85,,,,,,,,
,,615da9ee365ab7d547b98979,65af55ead5e28191f76a94e3,2024-01-23_08h01.03.368,bars,2023.2.3,Win32,59.88023952,657b66ea316d21385b68909f,,,,,,,,,,,3301.755,3302.7486,,,3303.2486,3303.4984,,67,67,,,,,,,,,,,,,,,,bars/038.png,bars/mask006.png,,,,,,,,,,,,8,2,,,,,,,6,10,5,9,,,,,,,,,,,3302.7486,3303.2486,3303.4984,3306.4649,space,2.95,,3306.4649,82,3,3307.4651,3307.4651,3307.4706,,,,0,42,42,42,1,165,70,,,,,,,,
,,615da9ee365ab7d547b98979,65af55ead5e28191f76a94e3,2024-01-23_08h01.03.368,bars,2023.2.3,Win32,59.88023952,657b66ea316d21385b68909f,,,,,,,,,,,3307.4708,3308.4703,,,3308.9702,3309.2202,,111,111,,,,,,,,,,,,,,,,bars/023.png,bars/mask005.png,,,,,,,,,,,,8,2,,,,,,,4,10,5,9,,,,,,,,,,,3308.4703,3308.9702,3309.2202,3313.3989,space,4.1678,,3313.3989,89,4,3314.401,3314.401,3314.4066,,,,0,43,43,43,1,20,115,,,,,,,,
,,615da9ee365ab7d547b98979,65af55ead5e28191f76a94e3,2024-01-23_08h01.03.368,bars,2023.2.3,Win32,59.88023952,657b66ea316d21385b68909f,,,,,,,,,,,3314.4068,3315.4006,,,3315.8987,3316.1656,,63,63,,,,,,,,,,,,,,,,bars/044.png,bars/mask001.png,,,,,,,,,,,,2,1,,,,,,,2,10,3,10,,,,,,,,,,,3315.4006,3315.8987,3316.1656,3321.3146,space,5.1325,,3321.3146,12,88,3322.3148,3322.3148,3322.3207,,,,0,44,44,44,1,75,155,,,,,,,,
,,615da9ee365ab7d547b98979,65af55ead5e28191f76a94e3,2024-01-23_08h01.03.368,bars,2023.2.3,Win32,59.88023952,657b66ea316d21385b68909f,,,,,,,,,,,3322.3208,3323.3146,,,3323.8149,3324.0645,,47,47,,,,,,,,,,,,,,,,bars/047.png,bars/mask008.png,,,,,,,,,,,,2,2,,,,,,,0,10,0,10,,,,,,,,,,,3323.3146,3323.8149,3324.0645,3327.6149,space,3.532,,3327.6149,32,23,3328.6154,3328.6155,3328.6213,,,,0,45,45,45,1,15,70,,,,,,,,
,,615da9ee365ab7d547b98979,65af55ead5e28191f76a94e3,2024-01-23_08h01.03.368,bars,2023.2.3,Win32,59.88023952,657b66ea316d21385b68909f,,,,,,,,,,,3328.6214,3329.6152,,,3330.1152,3330.3662,,121,121,,,,,,,,,,,,,,,,bars/041.png,bars/mask009.png,,,,,,,,,,,,0,2,,,,,,,0,10,1,10,,,,,,,,,,,3329.6152,3330.1152,3330.3662,3332.4986,space,2.1153,,3332.4986,79,36,3333.4982,3333.4982,3333.5038,,,,0,46,46,46,1,20,85,,,,,,,,
,,615da9ee365ab7d547b98979,65af55ead5e28191f76a94e3,2024-01-23_08h01.03.368,bars,2023.2.3,Win32,59.88023952,657b66ea316d21385b68909f,,,,,,,,,,,3333.5039,3334.498,,,3334.998,3335.2481,,119,119,,,,,,,,,,,,,,,,bars/019.png,bars/mask002.png,,,,,,,,,,,,5,2,,,,,,,0,10,3,10,,,,,,,,,,,3334.498,3334.998,3335.2481,3338.2159,space,2.9511,,3338.216,74,14,3339.2149,3339.2149,3339.2203,,,,0,47,47,47,1,45,105,,,,,,,,
,,615da9ee365ab7d547b98979,65af55ead5e28191f76a94e3,2024-01-23_08h01.03.368,bars,2023.2.3,Win32,59.88023952,657b66ea316d21385b68909f,,,,,,,,,,,3339.2204,3340.2149,,,3340.715,3340.9647,,41,41,,,,,,,,,,,,,,,,bars/007.png,bars/mask007.png,,,,,,,,,,,,5,2,,,,,,,0,10,0,10,,,,,,,,,,,3340.2149,3340.715,3340.9648,3342.5482,space,1.567,,3342.5482,46,14,3343.5482,3343.5482,3343.5537,,,,0,48,48,48,1,175,55,,,,,,,,
,,615da9ee365ab7d547b98979,65af55ead5e28191f76a94e3,2024-01-23_08h01.03.368,bars,2023.2.3,Win32,59.88023952,657b66ea316d21385b68909f,,,,,,,,,,,3343.5538,3344.5486,,,3345.0479,3345.2982,,37,37,,,,,,,,,,,,,,,,bars/030.png,bars/mask005.png,,,,,,,,,,,,1,2,,,,,,,2,8,1,8,,,,,,,,,,,3344.5486,3345.0479,3345.2982,3350.3149,space,5.0002,,3350.3149,77,28,3351.3148,3351.3149,3351.3203,,,,0,49,49,49,1,140,65,,,,,,,,
,,615da9ee365ab7d547b98979,65af55ead5e28191f76a94e3,2024-01-23_08h01.03.368,bars,2023.2.3,Win32,59.88023952,657b66ea316d21385b68909f,,,,,,,,,,,,,,,,,,,,,,,,,,,,,,,,,,,,,,,,,,,,,,,,,,,,,,,,,,,,,,,,,,,,,,,,,,,,,,,,,,,,,,,,,,,,,3351.3204,3411.3242,0,3,3,4,1,sequence_tables/blk012.csv
,,615da9ee365ab7d547b98979,65af55ead5e28191f76a94e3,2024-01-23_08h01.03.368,bars,2023.2.3,Win32,59.88023952,657b66ea316d21385b68909f,,,,,,,,,,,3489.7544,3490.7634,,,3491.2549,3491.5151,,137,137,,,,,,,,,,,,,,,,bars/004.png,bars/mask002.png,,,,,,,,,,,,3,2,,,,,,,8,4,8,5,,,,,,3411.3298,3489.7464,space,78.4133,,3490.7634,3491.2549,3491.5151,3494.6817,space,3.1499,,3494.6817,68,12,3495.6693,3495.6693,3495.6749,,,,0,0,0,0,1,25,125,,,,,,,,
,,615da9ee365ab7d547b98979,65af55ead5e28191f76a94e3,2024-01-23_08h01.03.368,bars,2023.2.3,Win32,59.88023952,657b66ea316d21385b68909f,,,,,,,,,,,3495.6751,3496.6815,,,3497.1855,3497.4353,,43,43,,,,,,,,,,,,,,,,bars/013.png,bars/mask008.png,,,,,,,,,,,,0,1,,,,,,,10,6,10,8,,,,,,,,,,,3496.6815,3497.1855,3497.4353,3502.2313,space,4.7843,,3502.2313,32,33,3503.2327,3503.2327,3503.2387,,,,0,1,1,1,1,75,10,,,,,,,,
,,615da9ee365ab7d547b98979,65af55ead5e28191f76a94e3,2024-01-23_08h01.03.368,bars,2023.2.3,Win32,59.88023952,657b66ea316d21385b68909f,,,,,,,,,,,3503.2388,3504.2321,,,3504.732,3504.982,,152,152,,,,,,,,,,,,,,,,bars/015.png,bars/mask009.png,,,,,,,,,,,,4,2,,,,,,,10,4,10,5,,,,,,,,,,,3504.2321,3504.732,3504.982,3510.9643,space,5.9674,,3510.9643,42,8,3511.9635,3511.9636,3511.9697,,,,0,2,2,2,1,110,160,,,,,,,,
,,615da9ee365ab7d547b98979,65af55ead5e28191f76a94e3,2024-01-23_08h01.03.368,bars,2023.2.3,Win32,59.88023952,657b66ea316d21385b68909f,,,,,,,,,,,3511.9697,3512.9638,,,3513.4637,3513.7138,,21,201,,,,,,,,,,,,,,,,bars/024.png,bars/mask001.png,,,,,,,,,,,,0,2,,,,,,,8,6,8,5,,,,,,,,,,,3512.9638,3513.4637,3513.7138,3517.3648,space,3.6346,,3517.3648,81,31,3518.3641,3518.3642,3518.3696,,,,0,3,3,3,1,120,170,,,,,,,,
,,615da9ee365ab7d547b98979,65af55ead5e28191f76a94e3,2024-01-23_08h01.03.368,bars,2023.2.3,Win32,59.88023952,657b66ea316d21385b68909f,,,,,,,,,,,3518.3697,3519.3642,,,3519.864,3520.1141,,60,60,,,,,,,,,,,,,,,,bars/002.png,bars/mask003.png,,,,,,,,,,,,1,2,,,,,,,10,8,10,9,,,,,,,,,,,3519.3642,3519.864,3520.1141,3521.6164,space,1.4858,,3521.6164,70,25,3522.6138,3522.6138,3522.6193,,,,0,4,4,4,1,130,85,,,,,,,,
,,615da9ee365ab7d547b98979,65af55ead5e28191f76a94e3,2024-01-23_08h01.03.368,bars,2023.2.3,Win32,59.88023952,657b66ea316d21385b68909f,,,,,,,,,,,3522.6194,3523.6138,,,3524.1141,3524.3639,,45,45,,,,,,,,,,,,,,,,bars/025.png,bars/mask005.png,,,,,,,,,,,,8,2,,,,,,,8,10,8,10,,,,,,,,,,,3523.6138,3524.1141,3524.3639,3529.231,space,4.8489,,3529.231,60,5,3530.2308,3530.2309,3530.2364,,,,0,5,5,5,1,105,40,,,,,,,,
,,615da9ee365ab7d547b98979,65af55ead5e28191f76a94e3,2024-01-23_08h01.03.368,bars,2023.2.3,Win32,59.88023952,657b66ea316d21385b68909f,,,,,,,,,,,3530.2365,3531.2308,,,3531.7309,3531.9811,,40,40,,,,,,,,,,,,,,,,bars/007.png,bars/mask002.png,,,,,,,,,,,,5,2,,,,,,,10,10,10,10,,,,,,,,,,,3531.2308,3531.7309,3531.9811,3535.2805,space,3.2832,,3535.2805,45,15,3536.2803,3536.2803,3536.2859,,,,0,6,6,6,1,175,55,,,,,,,,
,,615da9ee365ab7d547b98979,65af55ead5e28191f76a94e3,2024-01-23_08h01.03.368,bars,2023.2.3,Win32,59.88023952,657b66ea316d21385b68909f,,,,,,,,,,,3536.286,3537.284,,,3537.7815,3538.0338,,31,31,,,,,,,,,,,,,,,,bars/016.png,bars/mask007.png,,,,,,,,,,,,5,1,,,,,,,8,10,7,10,,,,,,,,,,,3537.2841,3537.7815,3538.0338,3542.8981,space,4.8338,,3542.8981,9,46,3543.898,3543.898,3543.9071,,,,0,7,7,7,1,40,165,,,,,,,,
,,615da9ee365ab7d547b98979,65af55ead5e28191f76a94e3,2024-01-23_08h01.03.368,bars,2023.2.3,Win32,59.88023952,657b66ea316d21385b68909f,,,,,,,,,,,3543.9072,3544.8973,,,3545.3991,3545.6474,,105,105,,,,,,,,,,,,,,,,bars/018.png,bars/mask008.png,,,,,,,,,,,,5,2,,,,,,,6,10,6,10,,,,,,,,,,,3544.8973,3545.3991,3545.6474,3548.2641,space,2.6003,,3548.2641,45,15,3549.2643,3549.2643,3549.2701,,,,0,8,8,8,1,150,90,,,,,,,,
,,615da9ee365ab7d547b98979,65af55ead5e28191f76a94e3,2024-01-23_08h01.03.368,bars,2023.2.3,Win32,59.88023952,657b66ea316d21385b68909f,,,,,,,,,,,3549.2702,3550.2642,,,3550.7647,3551.0143,,112,112,,,,,,,,,,,,,,,,bars/019.png,bars/mask003.png,,,,,,,,,,,,6,2,,,,,,,8,8,8,8,,,,,,,,,,,3550.2642,3550.7646,3551.0143,3554.6477,space,3.6171,,3554.6478,67,7,3555.6477,3555.6477,3555.6532,,,,0,9,9,9,1,45,105,,,,,,,,
