init_variables.started,init_variables.stopped,participant,session,date,expName,psychopyVersion,OS,frameRate,study_id,instruction_exp.started,instruction_exp.stopped,key_resp_8.keys,key_resp_8.rt,key_resp_8.duration,instruction_single.started,instruction_single.stopped,key_resp_2.keys,key_resp_2.rt,key_resp_2.duration,interval.started,interval.stopped,cue_single.started,cue_single.stopped,mask.started,mask.stopped,ori_response_single.started,res_ori,res,ori_response_single.stopped,key_resp_single.keys,key_resp_single.rt,key_resp_single.duration,disp_single.started,disp_single.stopped,key_resp.keys,key_resp.rt,key_resp.duration,single.thisRepN,single.thisTrialN,single.thisN,single.thisIndex,single.ran,ori,path,mask_path,instruction_bandit.started,instruction_bandit.stopped,key_resp_6.keys,key_resp_6.rt,key_resp_6.duration,cue_bandit.started,cue_bandit.stopped,bandit_res.keys,bandit_res.rt,bandit_res.duration,outcome_bandit.started,rew,action,outcome_bandit.stopped,bandit.thisRepN,bandit.thisTrialN,bandit.thisN,bandit.thisIndex,bandit.ran,actual_rew1,actual_rew2,rew1,rew2,instruction_task.started,instruction_task.stopped,key_resp_7.keys,key_resp_7.rt,key_resp_7.duration,wait_ready.started,wait_ready.stopped,key_resp_3.keys,key_resp_3.rt,key_resp_3.duration,cue.started,cue.stopped,ori_response.started,ori_response.stopped,key_resp_5.keys,key_resp_5.rt,key_resp_5.duration,outcome.started,diff1,diff2,outcome.stopped,disp_outcome_practice.started,disp_outcome_practice.stopped,key_resp_4.keys,key_resp_4.rt,key_resp_4.duration,trials.thisRepN,trials.thisTrialN,trials.thisN,trials.thisIndex,trials.ran,ori1,ori2,break_blk.started,break_blk.stopped,block.thisRepN,block.thisTrialN,block.thisN,block.thisIndex,block.ran,condition_file
0.0006,0.0007,6041499ba066050e18a7934d,65af55a5b940720aef4cd614,2024-01-23_07h19.34.604,bars,2023.2.3,Win32,11.9760479,657b66ea316d21385b68909f,,,,,,,,,,,,,,,,,,,,,,,,,,,,,,,,,,,,,,,,,,,,,,,,,,,,,,,,,,,,,,,,,,,,,,,,,,,,,,,,,,,,,,,,,,,,,,,,,,,,
,,6041499ba066050e18a7934d,65af55a5b940720aef4cd614,2024-01-23_07h19.34.604,bars,2023.2.3,Win32,11.9760479,657b66ea316d21385b68909f,0.0008,14.2124,y,14.1287,0.0005,,,,,,,,,,,,,,,,,,,,,,,,,,,,,,,,,,,,,,,,,,,,,,,,,,,,,,,,,,,,,,,,,,,,,,,,,,,,,,,,,,,,,,,,,,,,,,,
,,6041499ba066050e18a7934d,65af55a5b940720aef4cd614,2024-01-23_07h19.34.604,bars,2023.2.3,Win32,11.9760479,657b66ea316d21385b68909f,,,,,,14.2125,45.8963,space,31.588,,,,,,,,,,,,,,,,,,,,,,,,,,,,,,,,,,,,,,,,,,,,,,,,,,,,,,,,,,,,,,,,,,,,,,,,,,,,,,,,,,,,,,,,,,,
,,6041499ba066050e18a7934d,65af55a5b940720aef4cd614,2024-01-23_07h19.34.604,bars,2023.2.3,Win32,11.9760479,657b66ea316d21385b68909f,,,,,,,,,,,45.9069,46.8922,46.8923,47.4085,47.4086,47.6123,47.6125,46,46,54.8558,space,7.1426,,54.8558,62.9218,space,7.9526,,0,0,0,3,1,20,bars/single003.png,bars/mask005.png,,,,,,,,,,,,,,,,,,,,,,,,,,,,,,,,,,,,,,,,,,,,,,,,,,,,,,,,,,,,,,,,
,,6041499ba066050e18a7934d,65af55a5b940720aef4cd614,2024-01-23_07h19.34.604,bars,2023.2.3,Win32,11.9760479,657b66ea316d21385b68909f,,,,,,,,,,,62.9288,63.8953,63.8954,64.4027,64.4028,64.6157,64.6157,129,129,68.6451,space,3.9227,,68.6452,75.5227,space,6.7832,,0,1,1,7,1,45,bars/single007.png,bars/mask009.png,,,,,,,,,,,,,,,,,,,,,,,,,,,,,,,,,,,,,,,,,,,,,,,,,,,,,,,,,,,,,,,,
,,6041499ba066050e18a7934d,65af55a5b940720aef4cd614,2024-01-23_07h19.34.604,bars,2023.2.3,Win32,11.9760479,657b66ea316d21385b68909f,,,,,,,,,,,75.5302,76.5042,76.5043,77.0309,77.0309,77.2308,77.2308,22,202,89.8168,space,12.4842,,89.8168,111.5857,space,21.6691,,0,2,2,6,1,175,bars/single006.png,bars/mask005.png,,,,,,,,,,,,,,,,,,,,,,,,,,,,,,,,,,,,,,,,,,,,,,,,,,,,,,,,,,,,,,,,
,,6041499ba066050e18a7934d,65af55a5b940720aef4cd614,2024-01-23_07h19.34.604,bars,2023.2.3,Win32,11.9760479,657b66ea316d21385b68909f,,,,,,,,,,,111.593,112.5847,112.5848,113.0896,113.0897,113.2929,113.293,63,63,121.1262,space,7.736,,121.1263,126.8392,space,5.6,,0,3,3,9,1,20,bars/single009.png,bars/mask006.png,,,,,,,,,,,,,,,,,,,,,,,,,,,,,,,,,,,,,,,,,,,,,,,,,,,,,,,,,,,,,,,,
,,6041499ba066050e18a7934d,65af55a5b940720aef4cd614,2024-01-23_07h19.34.604,bars,2023.2.3,Win32,11.9760479,657b66ea316d21385b68909f,,,,,,,,,,,126.8457,127.8217,127.8218,128.3408,128.3408,128.566,128.5661,161,161,129.6337,space,0.9645,,129.6337,134.4303,space,4.6921,,0,4,4,8,1,160,bars/single008.png,bars/mask004.png,,,,,,,,,,,,,,,,,,,,,,,,,,,,,,,,,,,,,,,,,,,,,,,,,,,,,,,,,,,,,,,,
,,6041499ba066050e18a7934d,65af55a5b940720aef4cd614,2024-01-23_07h19.34.604,bars,2023.2.3,Win32,11.9760479,657b66ea316d21385b68909f,,,,,,,,,,,134.4375,135.4245,135.4245,135.9319,135.9319,136.1322,136.1323,137,137,141.3098,space,5.0739,,141.3099,144.584,space,3.1738,,0,5,5,1,1,20,bars/single001.png,bars/mask006.png,,,,,,,,,,,,,,,,,,,,,,,,,,,,,,,,,,,,,,,,,,,,,,,,,,,,,,,,,,,,,,,,
,,6041499ba066050e18a7934d,65af55a5b940720aef4cd614,2024-01-23_07h19.34.604,bars,2023.2.3,Win32,11.9760479,657b66ea316d21385b68909f,,,,,,,,,,,144.5912,145.5583,145.5583,146.07,146.07,146.2682,146.2683,117,117,150.7332,space,4.3625,,150.7332,155.7736,space,4.9424,,0,6,6,2,1,145,bars/single002.png,bars/mask003.png,,,,,,,,,,,,,,,,,,,,,,,,,,,,,,,,,,,,,,,,,,,,,,,,,,,,,,,,,,,,,,,,
,,6041499ba066050e18a7934d,65af55a5b940720aef4cd614,2024-01-23_07h19.34.604,bars,2023.2.3,Win32,11.9760479,657b66ea316d21385b68909f,,,,,,,,,,,155.7806,156.7867,156.7867,157.2091,157.2091,157.4234,157.4234,90,90,162.6389,space,5.1087,,162.6389,165.6436,space,2.9043,,0,7,7,4,1,95,bars/single004.png,bars/mask004.png,,,,,,,,,,,,,,,,,,,,,,,,,,,,,,,,,,,,,,,,,,,,,,,,,,,,,,,,,,,,,,,,
,,6041499ba066050e18a7934d,65af55a5b940720aef4cd614,2024-01-23_07h19.34.604,bars,2023.2.3,Win32,11.9760479,657b66ea316d21385b68909f,,,,,,,,,,,165.6501,166.6434,166.6434,167.1413,167.1413,167.3425,167.3425,142,142,174.037,space,6.5975,,174.037,175.8539,space,1.7074,,0,8,8,0,1,150,bars/single000.png,bars/mask006.png,,,,,,,,,,,,,,,,,,,,,,,,,,,,,,,,,,,,,,,,,,,,,,,,,,,,,,,,,,,,,,,,
,,6041499ba066050e18a7934d,65af55a5b940720aef4cd614,2024-01-23_07h19.34.604,bars,2023.2.3,Win32,11.9760479,657b66ea316d21385b68909f,,,,,,,,,,,175.8541,176.8298,176.8298,177.3341,177.3341,177.5323,177.5323,53,53,182.4789,space,4.8493,,182.4789,186.1622,space,3.5892,,0,9,9,5,1,55,bars/single005.png,bars/mask008.png,,,,,,,,,,,,,,,,,,,,,,,,,,,,,,,,,,,,,,,,,,,,,,,,,,,,,,,,,,,,,,,,
,,6041499ba066050e18a7934d,65af55a5b940720aef4cd614,2024-01-23_07h19.34.604,bars,2023.2.3,Win32,11.9760479,657b66ea316d21385b68909f,,,,,,,,,,,,,,,,,,,,,,,,,,,,,,,,,,,,,186.1697,211.8833,space,25.6197,,,,,,,,,,,,,,,,,,,,,,,,,,,,,,,,,,,,,,,,,,,,,,,,,,,,,,,,,,,,
,,6041499ba066050e18a7934d,65af55a5b940720aef4cd614,2024-01-23_07h19.34.604,bars,2023.2.3,Win32,11.9760479,657b66ea316d21385b68909f,,,,,,,,,,,,,,,,,,,,,,,,,,,,,,,,,,,,,,,,,,211.8914,213.0402,left,1.053,,213.0402,9,1,214.0266,0,0,0,0,1,9,1,9,2,,,,,,,,,,,,,,,,,,,,,,,,,,,,,,,,,,,,,,,,,
,,6041499ba066050e18a7934d,65af55a5b940720aef4cd614,2024-01-23_07h19.34.604,bars,2023.2.3,Win32,11.9760479,657b66ea316d21385b68909f,,,,,,,,,,,,,,,,,,,,,,,,,,,,,,,,,,,,,,,,,,214.0268,215.6724,left,1.5508,,215.6724,10,1,216.6631,0,1,1,1,1,10,0,10,1,,,,,,,,,,,,,,,,,,,,,,,,,,,,,,,,,,,,,,,,,
,,6041499ba066050e18a7934d,65af55a5b940720aef4cd614,2024-01-23_07h19.34.604,bars,2023.2.3,Win32,11.9760479,657b66ea316d21385b68909f,,,,,,,,,,,,,,,,,,,,,,,,,,,,,,,,,,,,,,,,,,216.6634,219.6609,left,2.8953,,219.6609,10,1,220.6574,0,2,2,2,1,10,2,10,2,,,,,,,,,,,,,,,,,,,,,,,,,,,,,,,,,,,,,,,,,
,,6041499ba066050e18a7934d,65af55a5b940720aef4cd614,2024-01-23_07h19.34.604,bars,2023.2.3,Win32,11.9760479,657b66ea316d21385b68909f,,,,,,,,,,,,,,,,,,,,,,,,,,,,,,,,,,,,,,,,,,220.6637,221.1717,left,0.4072,,221.1717,7,1,222.1666,0,3,3,3,1,8,4,7,3,,,,,,,,,,,,,,,,,,,,,,,,,,,,,,,,,,,,,,,,,
,,6041499ba066050e18a7934d,65af55a5b940720aef4cd614,2024-01-23_07h19.34.604,bars,2023.2.3,Win32,11.9760479,657b66ea316d21385b68909f,,,,,,,,,,,,,,,,,,,,,,,,,,,,,,,,,,,,,,,,,,222.1669,223.6317,left,1.3624,,223.6318,5,1,224.6201,0,4,4,4,1,6,2,5,1,,,,,,,,,,,,,,,,,,,,,,,,,,,,,,,,,,,,,,,,,
,,6041499ba066050e18a7934d,65af55a5b940720aef4cd614,2024-01-23_07h19.34.604,bars,2023.2.3,Win32,11.9760479,657b66ea316d21385b68909f,,,,,,,,,,,,,,,,,,,,,,,,,,,,,,,,,,,,,,,,,,224.6213,225.6638,left,0.9471,,225.6639,4,1,226.65,0,5,5,5,1,4,4,4,4,,,,,,,,,,,,,,,,,,,,,,,,,,,,,,,,,,,,,,,,,
,,6041499ba066050e18a7934d,65af55a5b940720aef4cd614,2024-01-23_07h19.34.604,bars,2023.2.3,Win32,11.9760479,657b66ea316d21385b68909f,,,,,,,,,,,,,,,,,,,,,,,,,,,,,,,,,,,,,,,,,,226.6503,227.0616,right,0.3137,,227.0617,2,2,228.0608,0,6,6,6,1,2,2,1,2,,,,,,,,,,,,,,,,,,,,,,,,,,,,,,,,,,,,,,,,,
,,6041499ba066050e18a7934d,65af55a5b940720aef4cd614,2024-01-23_07h19.34.604,bars,2023.2.3,Win32,11.9760479,657b66ea316d21385b68909f,,,,,,,,,,,,,,,,,,,,,,,,,,,,,,,,,,,,,,,,,,228.0609,228.2775,left,0.1185,,228.2775,0,1,229.2563,0,7,7,7,1,0,0,0,1,,,,,,,,,,,,,,,,,,,,,,,,,,,,,,,,,,,,,,,,,
,,6041499ba066050e18a7934d,65af55a5b940720aef4cd614,2024-01-23_07h19.34.604,bars,2023.2.3,Win32,11.9760479,657b66ea316d21385b68909f,,,,,,,,,,,,,,,,,,,,,,,,,,,,,,,,,,,,,,,,,,229.2566,229.8797,right,0.5245,,229.8797,0,2,230.8621,0,8,8,8,1,0,2,1,0,,,,,,,,,,,,,,,,,,,,,,,,,,,,,,,,,,,,,,,,,
,,6041499ba066050e18a7934d,65af55a5b940720aef4cd614,2024-01-23_07h19.34.604,bars,2023.2.3,Win32,11.9760479,657b66ea316d21385b68909f,,,,,,,,,,,,,,,,,,,,,,,,,,,,,,,,,,,,,,,,,,230.8623,231.073,left,0.1128,,231.073,2,1,232.0602,0,9,9,9,1,2,4,2,3,,,,,,,,,,,,,,,,,,,,,,,,,,,,,,,,,,,,,,,,,
,,6041499ba066050e18a7934d,65af55a5b940720aef4cd614,2024-01-23_07h19.34.604,bars,2023.2.3,Win32,11.9760479,657b66ea316d21385b68909f,,,,,,,,,,,,,,,,,,,,,,,,,,,,,,,,,,,,,,,,,,232.0605,232.3714,left,0.2149,,232.3714,0,1,233.3738,0,10,10,10,1,0,2,0,3,,,,,,,,,,,,,,,,,,,,,,,,,,,,,,,,,,,,,,,,,
,,6041499ba066050e18a7934d,65af55a5b940720aef4cd614,2024-01-23_07h19.34.604,bars,2023.2.3,Win32,11.9760479,657b66ea316d21385b68909f,,,,,,,,,,,,,,,,,,,,,,,,,,,,,,,,,,,,,,,,,,233.374,233.5777,left,0.108,,233.5777,0,1,234.5663,0,11,11,11,1,0,4,0,3,,,,,,,,,,,,,,,,,,,,,,,,,,,,,,,,,,,,,,,,,
,,6041499ba066050e18a7934d,65af55a5b940720aef4cd614,2024-01-23_07h19.34.604,bars,2023.2.3,Win32,11.9760479,657b66ea316d21385b68909f,,,,,,,,,,,,,,,,,,,,,,,,,,,,,,,,,,,,,,,,,,234.5665,235.0918,left,0.4272,,235.0918,1,1,236.094,0,12,12,12,1,2,6,1,6,,,,,,,,,,,,,,,,,,,,,,,,,,,,,,,,,,,,,,,,,
,,6041499ba066050e18a7934d,65af55a5b940720aef4cd614,2024-01-23_07h19.34.604,bars,2023.2.3,Win32,11.9760479,657b66ea316d21385b68909f,,,,,,,,,,,,,,,,,,,,,,,,,,,,,,,,,,,,,,,,,,236.0943,236.2,right,0.0069,,236.2001,3,2,237.1893,0,13,13,13,1,0,4,1,3,,,,,,,,,,,,,,,,,,,,,,,,,,,,,,,,,,,,,,,,,
,,6041499ba066050e18a7934d,65af55a5b940720aef4cd614,2024-01-23_07h19.34.604,bars,2023.2.3,Win32,11.9760479,657b66ea316d21385b68909f,,,,,,,,,,,,,,,,,,,,,,,,,,,,,,,,,,,,,,,,,,237.1896,237.4948,left,0.2091,,237.4948,2,1,238.4853,0,14,14,14,1,2,6,2,7,,,,,,,,,,,,,,,,,,,,,,,,,,,,,,,,,,,,,,,,,
,,6041499ba066050e18a7934d,65af55a5b940720aef4cd614,2024-01-23_07h19.34.604,bars,2023.2.3,Win32,11.9760479,657b66ea316d21385b68909f,,,,,,,,,,,,,,,,,,,,,,,,,,,,,,,,,,,,,,,,,,238.4856,238.6999,right,0.108,,238.7,9,2,239.6789,0,15,15,15,1,4,8,3,9,,,,,,,,,,,,,,,,,,,,,,,,,,,,,,,,,,,,,,,,,
,,6041499ba066050e18a7934d,65af55a5b940720aef4cd614,2024-01-23_07h19.34.604,bars,2023.2.3,Win32,11.9760479,657b66ea316d21385b68909f,,,,,,,,,,,,,,,,,,,,,,,,,,,,,,,,,,,,,,,,,,239.6793,240.1972,right,0.4233,,240.1972,7,2,241.1761,0,16,16,16,1,6,6,7,7,,,,,,,,,,,,,,,,,,,,,,,,,,,,,,,,,,,,,,,,,
,,6041499ba066050e18a7934d,65af55a5b940720aef4cd614,2024-01-23_07h19.34.604,bars,2023.2.3,Win32,11.9760479,657b66ea316d21385b68909f,,,,,,,,,,,,,,,,,,,,,,,,,,,,,,,,,,,,,,,,,,241.1766,241.2803,left,0.0061,,241.2803,9,1,242.2572,0,17,17,17,1,8,4,9,5,,,,,,,,,,,,,,,,,,,,,,,,,,,,,,,,,,,,,,,,,
,,6041499ba066050e18a7934d,65af55a5b940720aef4cd614,2024-01-23_07h19.34.604,bars,2023.2.3,Win32,11.9760479,657b66ea316d21385b68909f,,,,,,,,,,,,,,,,,,,,,,,,,,,,,,,,,,,,,,,,,,242.2574,242.567,left,0.2103,,242.5671,5,1,243.5728,0,18,18,18,1,6,2,5,1,,,,,,,,,,,,,,,,,,,,,,,,,,,,,,,,,,,,,,,,,
,,6041499ba066050e18a7934d,65af55a5b940720aef4cd614,2024-01-23_07h19.34.604,bars,2023.2.3,Win32,11.9760479,657b66ea316d21385b68909f,,,,,,,,,,,,,,,,,,,,,,,,,,,,,,,,,,,,,,,,,,243.5731,243.7777,right,0.1051,,243.7777,0,2,244.7673,0,19,19,19,1,8,0,7,0,,,,,,,,,,,,,,,,,,,,,,,,,,,,,,,,,,,,,,,,,
,,6041499ba066050e18a7934d,65af55a5b940720aef4cd614,2024-01-23_07h19.34.604,bars,2023.2.3,Win32,11.9760479,657b66ea316d21385b68909f,,,,,,,,,,,,,,,,,,,,,,,,,,,,,,,,,,,,,,,,,,,,,,,,,,,,,,,,,,,,244.7676,279.583,space,34.7066,0.0002,,,,,,,,,,,,,,,,,,,,,,,,,,,,,,,,,,,,
,,6041499ba066050e18a7934d,65af55a5b940720aef4cd614,2024-01-23_07h19.34.604,bars,2023.2.3,Win32,11.9760479,657b66ea316d21385b68909f,,,,,,,,,,,280.8789,281.873,,,282.3904,282.6009,,121,121,,,,,,,,,,,,,,,,bars/018.png,bars/mask003.png,,,,,,,,,,,,0,1,,,,,,,8,3,7,2,,,,,,279.5912,280.8763,space,1.1921,,281.8732,282.3904,282.6012,286.7301,space,4.0132,,286.7303,29,31,287.6582,287.6583,295.6679,space,7.8947,,0,0,0,0,1,150,90,,,,,,,,
,,6041499ba066050e18a7934d,65af55a5b940720aef4cd614,2024-01-23_07h19.34.604,bars,2023.2.3,Win32,11.9760479,657b66ea316d21385b68909f,,,,,,,,,,,295.675,296.6672,,,297.1764,297.3799,,177,-3,,,,,,,,,,,,,,,,bars/006.png,bars/mask001.png,,,,,,,,,,,,0,1,,,,,,,6,5,6,4,,,,,,,,,,,296.6673,297.1764,297.3799,303.3796,space,5.894,,303.3797,38,77,304.3698,304.3698,308.4024,space,3.9302,,0,1,1,1,1,35,100,,,,,,,,
,,6041499ba066050e18a7934d,65af55a5b940720aef4cd614,2024-01-23_07h19.34.604,bars,2023.2.3,Win32,11.9760479,657b66ea316d21385b68909f,,,,,,,,,,,308.4091,309.4175,,,309.9233,310.1215,,17,197,,,,,,,,,,,,,,,,bars/010.png,bars/mask007.png,,,,,,,,,,,,0,1,,,,,,,8,3,8,3,,,,,,,,,,,309.4175,309.9233,310.1215,317.4172,space,7.1961,,317.4172,32,38,318.4311,318.4311,326.3102,space,7.7758,,0,2,2,2,1,165,55,,,,,,,,
,,6041499ba066050e18a7934d,65af55a5b940720aef4cd614,2024-01-23_07h19.34.604,bars,2023.2.3,Win32,11.9760479,657b66ea316d21385b68909f,,,,,,,,,,,326.317,327.2864,,,327.7937,327.9942,,3,183,,,,,,,,,,,,,,,,bars/004.png,bars/mask009.png,,,,,,,,,,,,1,1,,,,,,,6,5,5,5,,,,,,,,,,,327.2865,327.7937,327.9943,335.6359,space,7.5373,,335.6359,22,58,336.6176,336.6176,340.2864,space,3.5665,,0,3,3,3,1,25,125,,,,,,,,
,,6041499ba066050e18a7934d,65af55a5b940720aef4cd614,2024-01-23_07h19.34.604,bars,2023.2.3,Win32,11.9760479,657b66ea316d21385b68909f,,,,,,,,,,,340.2931,341.2723,,,341.7784,341.9802,,102,102,,,,,,,,,,,,,,,,bars/031.png,bars/mask006.png,,,,,,,,,,,,4,1,,,,,,,8,3,9,3,,,,,,,,,,,341.2723,341.7784,341.9803,347.0791,space,5.0019,,347.0791,18,67,348.05,348.0501,350.6622,space,2.5073,,0,4,4,4,1,120,35,,,,,,,,
,,6041499ba066050e18a7934d,65af55a5b940720aef4cd614,2024-01-23_07h19.34.604,bars,2023.2.3,Win32,11.9760479,657b66ea316d21385b68909f,,,,,,,,,,,350.6623,351.6646,,,352.0972,352.3093,,17,197,,,,,,,,,,,,,,,,bars/003.png,bars/mask003.png,,,,,,,,,,,,4,1,,,,,,,6,1,6,2,,,,,,,,,,,351.6647,352.0972,352.3093,358.4875,space,6.0805,,358.4876,8,57,359.4819,359.482,362.835,space,3.2515,,0,5,5,5,1,25,140,,,,,,,,
,,6041499ba066050e18a7934d,65af55a5b940720aef4cd614,2024-01-23_07h19.34.604,bars,2023.2.3,Win32,11.9760479,657b66ea316d21385b68909f,,,,,,,,,,,362.8422,363.8343,,,364.3415,364.5501,,66,66,,,,,,,,,,,,,,,,bars/044.png,bars/mask000.png,,,,,,,,,,,,2,1,,,,,,,4,3,3,3,,,,,,,,,,,363.8344,364.3414,364.5501,368.2511,space,3.606,,368.2512,9,89,369.2163,369.2163,372.6744,space,3.3549,,0,6,6,6,1,75,155,,,,,,,,
,,6041499ba066050e18a7934d,65af55a5b940720aef4cd614,2024-01-23_07h19.34.604,bars,2023.2.3,Win32,11.9760479,657b66ea316d21385b68909f,,,,,,,,,,,372.6818,373.6927,,,374.2004,374.4018,,112,112,,,,,,,,,,,,,,,,bars/027.png,bars/mask008.png,,,,,,,,,,,,7,1,,,,,,,6,1,7,1,,,,,,,,,,,373.6928,374.2004,374.4019,381.193,space,6.6815,,381.193,2,62,382.1794,382.1794,385.255,space,2.9589,,0,7,7,7,1,110,50,,,,,,,,
,,6041499ba066050e18a7934d,65af55a5b940720aef4cd614,2024-01-23_07h19.34.604,bars,2023.2.3,Win32,11.9760479,657b66ea316d21385b68909f,,,,,,,,,,,385.2552,386.2235,,,386.7275,386.9269,,143,-37,,,,,,,,,,,,,,,,bars/032.png,bars/mask003.png,,,,,,,,,,,,4,1,,,,,,,8,3,9,4,,,,,,,,,,,386.2235,386.7275,386.927,394.5294,space,7.5017,,394.5294,18,57,395.519,395.519,397.9914,space,2.3651,,0,8,8,8,1,125,20,,,,,,,,
,,6041499ba066050e18a7934d,65af55a5b940720aef4cd614,2024-01-23_07h19.34.604,bars,2023.2.3,Win32,11.9760479,657b66ea316d21385b68909f,,,,,,,,,,,397.9916,398.9844,,,399.5034,399.7148,,9,9,,,,,,,,,,,,,,,,bars/009.png,bars/mask005.png,,,,,,,,,,,,6,1,,,,,,,10,1,8,1,,,,,,,,,,,398.9844,399.5033,399.7148,406.8779,space,7.0668,,406.878,6,84,407.8708,407.8708,410.7717,space,2.7974,,0,9,9,9,1,15,105,,,,,,,,
,,6041499ba066050e18a7934d,65af55a5b940720aef4cd614,2024-01-23_07h19.34.604,bars,2023.2.3,Win32,11.9760479,657b66ea316d21385b68909f,,,,,,,,,,,410.7719,411.7401,,,412.2529,412.4511,,78,78,,,,,,,,,,,,,,,,bars/044.png,bars/mask007.png,,,,,,,,,,,,6,1,,,,,,,8,3,7,1,,,,,,,,,,,411.7402,412.2529,412.4511,417.5211,space,4.973,,417.5211,3,77,418.5073,418.5074,421.633,space,3.0258,,0,10,10,10,1,75,155,,,,,,,,
,,6041499ba066050e18a7934d,65af55a5b940720aef4cd614,2024-01-23_07h19.34.604,bars,2023.2.3,Win32,11.9760479,657b66ea316d21385b68909f,,,,,,,,,,,421.6332,422.6039,,,423.1137,423.3196,,20,20,,,,,,,,,,,,,,,,bars/041.png,bars/mask000.png,,,,,,,,,,,,8,1,,,,,,,10,1,8,2,,,,,,,,,,,422.6039,423.1137,423.3196,425.9648,space,2.5473,,425.9648,0,65,426.9237,426.9238,436.5627,space,9.5354,,0,11,11,11,1,20,85,,,,,,,,
,,6041499ba066050e18a7934d,65af55a5b940720aef4cd614,2024-01-23_07h19.34.604,bars,2023.2.3,Win32,11.9760479,657b66ea316d21385b68909f,,,,,,,,,,,436.5629,437.5911,,,438.0864,438.2819,,112,112,,,,,,,,,,,,,,,,bars/015.png,bars/mask002.png,,,,,,,,,,,,9,1,,,,,,,10,0,10,0,,,,,,,,,,,437.5911,438.0863,438.2819,446.1135,space,7.7341,,446.1135,2,48,447.0777,447.0777,449.2265,space,2.0494,,0,12,12,12,1,110,160,,,,,,,,
,,6041499ba066050e18a7934d,65af55a5b940720aef4cd614,2024-01-23_07h19.34.604,bars,2023.2.3,Win32,11.9760479,657b66ea316d21385b68909f,,,,,,,,,,,449.2267,450.1841,,,450.6736,450.8728,,144,-36,,,,,,,,,,,,,,,,bars/018.png,bars/mask000.png,,,,,,,,,,,,7,1,,,,,,,8,2,9,2,,,,,,,,,,,450.1841,450.6736,450.8729,462.48,space,11.5053,,462.48,6,54,463.4594,463.4594,466.8692,space,3.3105,,0,13,13,13,1,150,90,,,,,,,,
,,6041499ba066050e18a7934d,65af55a5b940720aef4cd614,2024-01-23_07h19.34.604,bars,2023.2.3,Win32,11.9760479,657b66ea316d21385b68909f,,,,,,,,,,,466.8694,467.8431,,,468.3508,468.5502,,101,101,,,,,,,,,,,,,,,,bars/029.png,bars/mask005.png,,,,,,,,,,,,5,1,,,,,,,10,4,8,6,,,,,,,,,,,467.8431,468.3507,468.5502,476.8333,space,8.1863,,476.8334,11,56,477.8253,477.8254,480.7565,space,2.8246,,0,14,14,14,1,90,45,,,,,,,,
,,6041499ba066050e18a7934d,65af55a5b940720aef4cd614,2024-01-23_07h19.34.604,bars,2023.2.3,Win32,11.9760479,657b66ea316d21385b68909f,,,,,,,,,,,480.7567,481.7399,,,482.2549,482.462,,122,122,,,,,,,,,,,,,,,,bars/032.png,bars/mask003.png,,,,,,,,,,,,7,1,,,,,,,8,6,8,6,,,,,,,,,,,481.7399,482.2549,482.462,486.1963,space,3.6341,,486.1964,3,78,487.1966,487.1966,488.838,space,1.5399,,0,15,15,15,1,125,20,,,,,,,,
,,6041499ba066050e18a7934d,65af55a5b940720aef4cd614,2024-01-23_07h19.34.604,bars,2023.2.3,Win32,11.9760479,657b66ea316d21385b68909f,,,,,,,,,,,488.8382,489.8076,,,490.3208,490.5311,,97,97,,,,,,,,,,,,,,,,bars/022.png,bars/mask004.png,,,,,,,,,,,,9,1,,,,,,,10,8,10,9,,,,,,,,,,,489.8076,490.3208,490.5311,496.848,space,6.2165,,496.848,2,77,497.8433,497.8433,499.3443,space,1.3949,,0,16,16,16,1,95,20,,,,,,,,
,,6041499ba066050e18a7934d,65af55a5b940720aef4cd614,2024-01-23_07h19.34.604,bars,2023.2.3,Win32,11.9760479,657b66ea316d21385b68909f,,,,,,,,,,,499.3445,500.3162,,,500.8235,501.0328,,37,37,,,,,,,,,,,,,,,,bars/033.png,bars/mask002.png,,,,,,,,,,,,6,1,,,,,,,10,10,10,10,,,,,,,,,,,500.3162,500.8235,501.0329,504.4966,space,3.364,,504.4967,12,62,505.4898,505.4898,513.1247,space,7.5319,,0,17,17,17,1,25,155,,,,,,,,
,,6041499ba066050e18a7934d,65af55a5b940720aef4cd614,2024-01-23_07h19.34.604,bars,2023.2.3,Win32,11.9760479,657b66ea316d21385b68909f,,,,,,,,,,,513.1316,514.0975,,,514.6027,514.814,,79,79,,,,,,,,,,,,,,,,bars/044.png,bars/mask007.png,,,,,,,,,,,,8,1,,,,,,,8,8,9,9,,,,,,,,,,,514.0975,514.6026,514.814,521.759,space,6.8417,,521.7591,4,76,522.7369,522.7369,526.7135,space,3.8626,,0,18,18,18,1,75,155,,,,,,,,
,,6041499ba066050e18a7934d,65af55a5b940720aef4cd614,2024-01-23_07h19.34.604,bars,2023.2.3,Win32,11.9760479,657b66ea316d21385b68909f,,,,,,,,,,,526.7204,527.7048,,,528.2139,528.4164,,64,64,,,,,,,,,,,,,,,,bars/044.png,bars/mask004.png,,,,,,,,,,,,3,1,,,,,,,6,10,5,10,,,,,,,,,,,527.7048,528.2139,528.4165,533.9032,space,5.3827,,533.9032,11,89,534.8675,534.8676,536.7949,space,1.827,,0,19,19,19,1,75,155,,,,,,,,
,,6041499ba066050e18a7934d,65af55a5b940720aef4cd614,2024-01-23_07h19.34.604,bars,2023.2.3,Win32,11.9760479,657b66ea316d21385b68909f,,,,,,,,,,,536.7951,537.7766,,,538.2884,538.4849,,177,-3,,,,,,,,,,,,,,,,bars/042.png,bars/mask008.png,,,,,,,,,,,,0,1,,,,,,,8,10,7,8,,,,,,,,,,,537.7767,538.2884,538.4849,544.0891,space,5.5076,,544.0892,32,78,545.0844,545.0845,547.0399,space,1.8488,,0,20,20,20,1,145,75,,,,,,,,
,,6041499ba066050e18a7934d,65af55a5b940720aef4cd614,2024-01-23_07h19.34.604,bars,2023.2.3,Win32,11.9760479,657b66ea316d21385b68909f,,,,,,,,,,,547.0401,548.0566,,,548.5624,548.7634,,116,116,,,,,,,,,,,,,,,,bars/031.png,bars/mask005.png,,,,,,,,,,,,4,1,,,,,,,6,8,5,8,,,,,,,,,,,548.0566,548.5624,548.7635,554.483,space,5.6228,,554.483,4,81,555.4681,555.4682,560.1895,space,4.6227,,0,21,21,21,1,120,35,,,,,,,,
,,6041499ba066050e18a7934d,65af55a5b940720aef4cd614,2024-01-23_07h19.34.604,bars,2023.2.3,Win32,11.9760479,657b66ea316d21385b68909f,,,,,,,,,,,560.1966,561.1746,,,561.6687,561.876,,85,85,,,,,,,,,,,,,,,,bars/009.png,bars/mask005.png,,,,,,,,,,,,3,2,,,,,,,4,10,3,10,,,,,,,,,,,561.1747,561.6686,561.876,566.3953,space,4.4179,,566.3953,70,20,567.3919,567.3919,571.2806,space,3.7752,,0,22,22,22,1,15,105,,,,,,,,
,,6041499ba066050e18a7934d,65af55a5b940720aef4cd614,2024-01-23_07h19.34.604,bars,2023.2.3,Win32,11.9760479,657b66ea316d21385b68909f,,,,,,,,,,,571.2873,572.2654,,,572.6863,572.8951,,165,-15,,,,,,,,,,,,,,,,bars/007.png,bars/mask008.png,,,,,,,,,,,,1,1,,,,,,,2,10,2,10,,,,,,,,,,,572.2655,572.6863,572.8951,576.3927,space,3.398,,576.3928,10,70,577.3791,577.3792,580.8678,space,3.3877,,0,23,23,23,1,175,55,,,,,,,,
,,6041499ba066050e18a7934d,65af55a5b940720aef4cd614,2024-01-23_07h19.34.604,bars,2023.2.3,Win32,11.9760479,657b66ea316d21385b68909f,,,,,,,,,,,580.868,581.8508,,,582.359,582.5617,,2,182,,,,,,,,,,,,,,,,bars/010.png,bars/mask001.png,,,,,,,,,,,,0,1,,,,,,,0,8,0,8,,,,,,,,,,,581.8509,582.359,582.5617,591.0881,space,8.4284,,591.0882,17,53,592.0655,592.0655,593.2625,space,1.09,,0,24,24,24,1,165,55,,,,,,,,
,,6041499ba066050e18a7934d,65af55a5b940720aef4cd614,2024-01-23_07h19.34.604,bars,2023.2.3,Win32,11.9760479,657b66ea316d21385b68909f,,,,,,,,,,,593.2627,594.244,,,594.7555,594.955,,162,-18,,,,,,,,,,,,,,,,bars/001.png,bars/mask000.png,,,,,,,,,,,,0,1,,,,,,,2,6,3,4,,,,,,,,,,,594.2441,594.7555,594.955,601.9152,space,6.8594,,601.9152,32,77,602.9288,602.9288,604.1434,space,1.1135,,0,25,25,25,1,130,85,,,,,,,,
,,6041499ba066050e18a7934d,65af55a5b940720aef4cd614,2024-01-23_07h19.34.604,bars,2023.2.3,Win32,11.9760479,657b66ea316d21385b68909f,,,,,,,,,,,604.1437,605.1345,,,605.6622,605.8678,,75,75,,,,,,,,,,,,,,,,bars/012.png,bars/mask008.png,,,,,,,,,,,,0,1,,,,,,,0,8,0,6,,,,,,,,,,,605.1346,605.6622,605.8678,612.2982,space,6.3353,,612.2982,15,60,613.2899,613.2899,615.2486,space,1.857,,0,26,26,26,1,90,15,,,,,,,,
,,6041499ba066050e18a7934d,65af55a5b940720aef4cd614,2024-01-23_07h19.34.604,bars,2023.2.3,Win32,11.9760479,657b66ea316d21385b68909f,,,,,,,,,,,615.2489,616.2422,,,616.6684,616.8694,,85,85,,,,,,,,,,,,,,,,bars/013.png,bars/mask000.png,,,,,,,,,,,,3,1,,,,,,,2,10,4,9,,,,,,,,,,,616.2423,616.6684,616.8695,618.4195,space,1.4553,,618.4196,10,75,619.3958,619.3958,624.99,space,5.4861,,0,27,27,27,1,75,10,,,,,,,,
,,6041499ba066050e18a7934d,65af55a5b940720aef4cd614,2024-01-23_07h19.34.604,bars,2023.2.3,Win32,11.9760479,657b66ea316d21385b68909f,,,,,,,,,,,624.9966,625.9757,,,626.3938,626.6025,,71,71,,,,,,,,,,,,,,,,bars/044.png,bars/mask005.png,,,,,,,,,,,,0,1,,,,,,,0,8,0,9,,,,,,,,,,,625.9758,626.3938,626.6025,631.4332,space,4.7288,,631.4332,4,84,632.408,632.408,637.1197,space,4.6051,,0,28,28,28,1,75,155,,,,,,,,
,,6041499ba066050e18a7934d,65af55a5b940720aef4cd614,2024-01-23_07h19.34.604,bars,2023.2.3,Win32,11.9760479,657b66ea316d21385b68909f,,,,,,,,,,,637.1265,638.1075,,,638.6191,638.8263,,152,152,,,,,,,,,,,,,,,,bars/005.png,bars/mask008.png,,,,,,,,,,,,6,2,,,,,,,0,10,0,10,,,,,,,,,,,638.1076,638.6191,638.8263,640.3767,space,1.4528,,640.3768,38,12,641.3813,641.3813,646.4902,space,5,,0,29,29,29,1,10,140,,,,,,,,
,,6041499ba066050e18a7934d,65af55a5b940720aef4cd614,2024-01-23_07h19.34.604,bars,2023.2.3,Win32,11.9760479,657b66ea316d21385b68909f,,,,,,,,,,,646.4976,647.4831,,,647.9886,648.1981,,72,72,,,,,,,,,,,,,,,,bars/046.png,bars/mask007.png,,,,,,,,,,,,5,2,,,,,,,2,8,0,9,,,,,,,,,,,647.4832,647.9886,648.1981,652.5749,space,4.2808,,652.5749,83,13,653.5761,653.5761,655.9504,space,2.2738,,0,30,30,30,1,155,85,,,,,,,,
,,6041499ba066050e18a7934d,65af55a5b940720aef4cd614,2024-01-23_07h19.34.604,bars,2023.2.3,Win32,11.9760479,657b66ea316d21385b68909f,,,,,,,,,,,655.9506,656.9319,,,657.4397,657.6416,,14,194,,,,,,,,,,,,,,,,bars/036.png,bars/mask002.png,,,,,,,,,,,,4,2,,,,,,,0,6,1,5,,,,,,,,,,,656.9319,657.4397,657.6416,660.3489,space,2.6038,,660.3489,49,6,661.3123,661.3123,663.2623,space,1.8428,,0,31,31,31,1,145,20,,,,,,,,
,,6041499ba066050e18a7934d,65af55a5b940720aef4cd614,2024-01-23_07h19.34.604,bars,2023.2.3,Win32,11.9760479,657b66ea316d21385b68909f,,,,,,,,,,,663.2624,664.2395,,,664.7386,664.9392,,158,-22,,,,,,,,,,,,,,,,bars/005.png,bars/mask008.png,,,,,,,,,,,,1,2,,,,,,,2,4,2,3,,,,,,,,,,,664.2395,664.7386,664.9392,676.1026,space,11.0644,,676.1026,32,18,677.1033,677.1033,678.2813,space,1.0778,,0,32,32,32,1,10,140,,,,,,,,
,,6041499ba066050e18a7934d,65af55a5b940720aef4cd614,2024-01-23_07h19.34.604,bars,2023.2.3,Win32,11.9760479,657b66ea316d21385b68909f,,,,,,,,,,,678.2816,679.289,,,679.804,680.0065,,32,212,,,,,,,,,,,,,,,,bars/025.png,bars/mask005.png,,,,,,,,,,,,1,2,,,,,,,4,2,4,2,,,,,,,,,,,679.2891,679.804,680.0065,686.7605,space,6.6518,,686.7606,73,8,687.7357,687.7358,748.9937,space,61.1563,,0,33,33,33,1,105,40,,,,,,,,
,,6041499ba066050e18a7934d,65af55a5b940720aef4cd614,2024-01-23_07h19.34.604,bars,2023.2.3,Win32,11.9760479,657b66ea316d21385b68909f,,,,,,,,,,,749.0009,749.9945,,,750.5,750.7083,,111,111,,,,,,,,,,,,,,,,bars/039.png,bars/mask003.png,,,,,,,,,,,,1,2,,,,,,,6,0,5,1,,,,,,,,,,,749.9946,750.4999,750.7084,757.764,space,6.9461,,757.7641,64,6,758.7537,758.7537,767.5155,space,8.6545,,0,34,34,34,1,175,105,,,,,,,,
,,6041499ba066050e18a7934d,65af55a5b940720aef4cd614,2024-01-23_07h19.34.604,bars,2023.2.3,Win32,11.9760479,657b66ea316d21385b68909f,,,,,,,,,,,767.5223,768.5012,,,769.0111,769.2077,,15,15,,,,,,,,,,,,,,,,bars/016.png,bars/mask009.png,,,,,,,,,,,,0,1,,,,,,,4,2,2,4,,,,,,,,,,,768.5012,769.0111,769.2077,772.2956,space,2.9875,,772.2957,25,30,773.273,773.273,803.8438,space,30.465,,0,35,35,35,1,40,165,,,,,,,,
,,6041499ba066050e18a7934d,65af55a5b940720aef4cd614,2024-01-23_07h19.34.604,bars,2023.2.3,Win32,11.9760479,657b66ea316d21385b68909f,,,,,,,,,,,803.8508,804.8253,,,805.3342,805.5333,,133,133,,,,,,,,,,,,,,,,bars/000.png,bars/mask003.png,,,,,,,,,,,,2,2,,,,,,,2,4,2,4,,,,,,,,,,,804.8253,805.3342,805.5333,806.851,space,1.2202,,806.851,87,12,807.8261,807.8262,808.9025,space,0.9731,,0,36,36,36,1,40,145,,,,,,,,
,,6041499ba066050e18a7934d,65af55a5b940720aef4cd614,2024-01-23_07h19.34.604,bars,2023.2.3,Win32,11.9760479,657b66ea316d21385b68909f,,,,,,,,,,,808.9027,809.8662,,,810.3728,810.5707,,11,191,,,,,,,,,,,,,,,,bars/008.png,bars/mask009.png,,,,,,,,,,,,2,2,,,,,,,4,2,4,3,,,,,,,,,,,809.8662,810.3727,810.5707,813.7609,space,3.0896,,813.7609,81,11,814.7283,814.7283,815.5824,space,0.7519,,0,37,37,37,1,110,0,,,,,,,,
,,6041499ba066050e18a7934d,65af55a5b940720aef4cd614,2024-01-23_07h19.34.604,bars,2023.2.3,Win32,11.9760479,657b66ea316d21385b68909f,,,,,,,,,,,815.5826,816.5575,,,816.9721,817.1767,,155,155,,,,,,,,,,,,,,,,bars/018.png,bars/mask007.png,,,,,,,,,,,,5,1,,,,,,,6,4,6,5,,,,,,,,,,,816.5575,816.9721,817.1767,825.4393,space,8.1565,,825.4393,5,65,826.4219,826.422,827.3973,space,0.8707,,0,38,38,38,1,150,90,,,,,,,,
,,6041499ba066050e18a7934d,65af55a5b940720aef4cd614,2024-01-23_07h19.34.604,bars,2023.2.3,Win32,11.9760479,657b66ea316d21385b68909f,,,,,,,,,,,827.3975,828.3905,,,828.9005,829.1006,,0,0,,,,,,,,,,,,,,,,bars/009.png,bars/mask001.png,,,,,,,,,,,,3,1,,,,,,,4,6,6,7,,,,,,,,,,,828.3905,828.9004,829.1007,830.4333,space,1.2294,,830.4333,15,75,831.4321,831.4321,833.0466,space,1.5111,,0,39,39,39,1,15,105,,,,,,,,
,,6041499ba066050e18a7934d,65af55a5b940720aef4cd614,2024-01-23_07h19.34.604,bars,2023.2.3,Win32,11.9760479,657b66ea316d21385b68909f,,,,,,,,,,,833.0468,834.0415,,,834.5476,834.749,,10,190,,,,,,,,,,,,,,,,bars/014.png,bars/mask005.png,,,,,,,,,,,,3,2,,,,,,,6,4,7,4,,,,,,,,,,,834.0415,834.5476,834.7491,842.6715,space,7.8231,,842.6715,70,10,843.653,843.653,848.173,space,4.4194,,0,40,40,40,1,80,0,,,,,,,,
,,6041499ba066050e18a7934d,65af55a5b940720aef4cd614,2024-01-23_07h19.34.604,bars,2023.2.3,Win32,11.9760479,657b66ea316d21385b68909f,,,,,,,,,,,848.18,849.1507,,,849.6543,849.8522,,161,-19,,,,,,,,,,,,,,,,bars/003.png,bars/mask003.png,,,,,,,,,,,,0,2,,,,,,,4,2,5,1,,,,,,,,,,,849.1508,849.6542,849.8522,855.7697,space,5.8138,,855.7698,44,21,856.7534,856.7535,857.4085,space,0.5472,,0,41,41,41,1,25,140,,,,,,,,
,,6041499ba066050e18a7934d,65af55a5b940720aef4cd614,2024-01-23_07h19.34.604,bars,2023.2.3,Win32,11.9760479,657b66ea316d21385b68909f,,,,,,,,,,,857.4087,858.4052,,,858.917,859.1167,,147,147,,,,,,,,,,,,,,,,bars/025.png,bars/mask006.png,,,,,,,,,,,,0,1,,,,,,,2,4,3,4,,,,,,,,,,,858.4053,858.9168,859.1167,861.1841,space,1.97,,861.1842,42,73,862.1582,862.1582,863.2538,space,0.9887,,0,42,42,42,1,105,40,,,,,,,,
,,6041499ba066050e18a7934d,65af55a5b940720aef4cd614,2024-01-23_07h19.34.604,bars,2023.2.3,Win32,11.9760479,657b66ea316d21385b68909f,,,,,,,,,,,863.254,864.2536,,,864.7555,864.9589,,69,69,,,,,,,,,,,,,,,,bars/047.png,bars/mask007.png,,,,,,,,,,,,1,2,,,,,,,4,2,5,1,,,,,,,,,,,864.2537,864.7555,864.9589,868.8904,space,3.8254,,868.8905,54,1,869.8832,869.8832,871.4919,space,1.5095,,0,43,43,43,1,15,70,,,,,,,,
,,6041499ba066050e18a7934d,65af55a5b940720aef4cd614,2024-01-23_07h19.34.604,bars,2023.2.3,Win32,11.9760479,657b66ea316d21385b68909f,,,,,,,,,,,871.4922,872.4815,,,872.9902,873.1956,,165,165,,,,,,,,,,,,,,,,bars/007.png,bars/mask004.png,,,,,,,,,,,,3,1,,,,,,,6,0,5,0,,,,,,,,,,,872.4815,872.9902,873.1956,874.234,space,0.9378,,874.234,10,70,875.2224,875.2224,875.3313,space,0.0058,,0,44,44,44,1,175,55,,,,,,,,
,,6041499ba066050e18a7934d,65af55a5b940720aef4cd614,2024-01-23_07h19.34.604,bars,2023.2.3,Win32,11.9760479,657b66ea316d21385b68909f,,,,,,,,,,,875.3315,876.3142,,,876.8302,877.0274,,151,151,,,,,,,,,,,,,,,,bars/002.png,bars/mask007.png,,,,,,,,,,,,3,1,,,,,,,8,0,9,0,,,,,,,,,,,876.3142,876.8301,877.0274,877.7298,space,0.6044,,877.7298,21,66,878.7264,878.7265,879.0485,space,0.2176,0.0003,0,45,45,45,1,130,85,,,,,,,,
,,6041499ba066050e18a7934d,65af55a5b940720aef4cd614,2024-01-23_07h19.34.604,bars,2023.2.3,Win32,11.9760479,657b66ea316d21385b68909f,,,,,,,,,,,879.0487,880.034,,,880.5527,880.7538,,121,121,,,,,,,,,,,,,,,,bars/045.png,bars/mask009.png,,,,,,,,,,,,2,1,,,,,,,6,0,8,0,,,,,,,,,,,880.034,880.5527,880.7538,881.6719,space,0.8178,,881.6719,21,69,882.6491,882.6492,884.3162,space,1.5545,,0,46,46,46,1,100,10,,,,,,,,
,,6041499ba066050e18a7934d,65af55a5b940720aef4cd614,2024-01-23_07h19.34.604,bars,2023.2.3,Win32,11.9760479,657b66ea316d21385b68909f,,,,,,,,,,,884.3164,885.3092,,,885.819,886.0222,,154,154,,,,,,,,,,,,,,,,bars/015.png,bars/mask005.png,,,,,,,,,,,,2,2,,,,,,,8,2,8,3,,,,,,,,,,,885.3092,885.8189,886.0222,886.6319,space,0.5093,,886.6319,44,6,887.6151,887.6151,887.8275,space,0.1125,,0,47,47,47,1,110,160,,,,,,,,
,,6041499ba066050e18a7934d,65af55a5b940720aef4cd614,2024-01-23_07h19.34.604,bars,2023.2.3,Win32,11.9760479,657b66ea316d21385b68909f,,,,,,,,,,,887.8277,888.8118,,,889.3193,889.5172,,177,177,,,,,,,,,,,,,,,,bars/033.png,bars/mask003.png,,,,,,,,,,,,1,2,,,,,,,10,4,10,3,,,,,,,,,,,888.8118,889.3193,889.5172,890.146,space,0.5285,,890.146,28,22,891.1234,891.1235,891.7582,space,0.5347,,0,48,48,48,1,25,155,,,,,,,,
,,6041499ba066050e18a7934d,65af55a5b940720aef4cd614,2024-01-23_07h19.34.604,bars,2023.2.3,Win32,11.9760479,657b66ea316d21385b68909f,,,,,,,,,,,891.7584,892.7399,,,893.2476,893.4452,,120,120,,,,,,,,,,,,,,,,bars/029.png,bars/mask002.png,,,,,,,,,,,,0,1,,,,,,,10,2,10,2,,,,,,,,,,,892.7399,893.2476,893.4452,894.7899,space,1.2445,,894.7899,30,75,895.776,895.776,896.3058,space,0.428,,0,49,49,49,1,90,45,,,,,,,,
,,6041499ba066050e18a7934d,65af55a5b940720aef4cd614,2024-01-23_07h19.34.604,bars,2023.2.3,Win32,11.9760479,657b66ea316d21385b68909f,,,,,,,,,,,,,,,,,,,,,,,,,,,,,,,,,,,,,,,,,,,,,,,,,,,,,,,,,,,,,,,,,,,,,,,,,,,,,,,,,,,,,,,,,,,,,896.3062,956.3248,0,0,0,4,1,sequence_tables/blk046.csv
,,6041499ba066050e18a7934d,65af55a5b940720aef4cd614,2024-01-23_07h19.34.604,bars,2023.2.3,Win32,11.9760479,657b66ea316d21385b68909f,,,,,,,,,,,971.2389,972.2305,,,972.7519,972.9586,,71,71,,,,,,,,,,,,,,,,bars/007.png,bars/mask006.png,,,,,,,,,,,,1,2,,,,,,,0,3,0,3,,,,,,956.3321,971.2365,space,14.8101,,972.2305,972.7519,972.9586,979.0948,space,6.0356,,979.0949,76,16,980.0979,980.0979,980.1066,,,,0,0,0,0,1,175,55,,,,,,,,
,,6041499ba066050e18a7934d,65af55a5b940720aef4cd614,2024-01-23_07h19.34.604,bars,2023.2.3,Win32,11.9760479,657b66ea316d21385b68909f,,,,,,,,,,,980.1068,981.103,,,981.607,981.8152,,104,104,,,,,,,,,,,,,,,,bars/028.png,bars/mask004.png,,,,,,,,,,,,3,2,,,,,,,2,5,0,6,,,,,,,,,,,981.1031,981.607,981.8152,987.0325,space,5.1223,,987.0325,59,16,987.9982,987.9983,988.0048,,,,0,1,1,1,1,45,120,,,,,,,,
,,6041499ba066050e18a7934d,65af55a5b940720aef4cd614,2024-01-23_07h19.34.604,bars,2023.2.3,Win32,11.9760479,657b66ea316d21385b68909f,,,,,,,,,,,988.005,988.9885,,,989.5,989.7047,,152,-28,,,,,,,,,,,,,,,,bars/024.png,bars/mask003.png,,,,,,,,,,,,2,2,,,,,,,0,7,0,6,,,,,,,,,,,988.9886,989.5,989.7047,995.8416,space,6.0339,,995.8416,32,18,996.8274,996.8274,996.8344,,,,0,2,2,2,1,120,170,,,,,,,,
,,6041499ba066050e18a7934d,65af55a5b940720aef4cd614,2024-01-23_07h19.34.604,bars,2023.2.3,Win32,11.9760479,657b66ea316d21385b68909f,,,,,,,,,,,996.8347,997.8321,,,998.3395,998.5539,,107,107,,,,,,,,,,,,,,,,bars/026.png,bars/mask005.png,,,,,,,,,,,,1,2,,,,,,,2,5,2,5,,,,,,,,,,,997.8321,998.3395,998.5539,1005.2987,space,6.6425,,1005.2988,72,22,1006.2848,1006.2848,1006.2853,,,,0,3,3,3,1,35,85,,,,,,,,
,,6041499ba066050e18a7934d,65af55a5b940720aef4cd614,2024-01-23_07h19.34.604,bars,2023.2.3,Win32,11.9760479,657b66ea316d21385b68909f,,,,,,,,,,,1006.2855,1007.2899,,,1007.7973,1008.0001,,38,38,,,,,,,,,,,,,,,,bars/005.png,bars/mask006.png,,,,,,,,,,,,0,1,,,,,,,0,7,0,7,,,,,,,,,,,1007.29,1007.7973,1008.0002,1012.9892,space,4.8949,,1012.9893,28,78,1013.974,1013.9741,1013.9752,,,,0,4,4,4,1,10,140,,,,,,,,
,,6041499ba066050e18a7934d,65af55a5b940720aef4cd614,2024-01-23_07h19.34.604,bars,2023.2.3,Win32,11.9760479,657b66ea316d21385b68909f,,,,,,,,,,,1013.9753,1014.9694,,,1015.4859,1015.6983,,75,75,,,,,,,,,,,,,,,,bars/029.png,bars/mask007.png,,,,,,,,,,,,2,1,,,,,,,2,5,3,5,,,,,,,,,,,1014.9694,1015.4858,1015.6983,1021.053,space,5.2624,,1021.053,15,30,1022.0192,1022.0192,1022.0196,,,,0,5,5,5,1,90,45,,,,,,,,
,,6041499ba066050e18a7934d,65af55a5b940720aef4cd614,2024-01-23_07h19.34.604,bars,2023.2.3,Win32,11.9760479,657b66ea316d21385b68909f,,,,,,,,,,,1022.0197,1023.0037,,,1023.5097,1023.714,,24,204,,,,,,,,,,,,,,,,bars/033.png,bars/mask003.png,,,,,,,,,,,,0,1,,,,,,,0,3,0,2,,,,,,,,,,,1023.0038,1023.5097,1023.714,1029.1174,space,5.3012,,1029.1174,1,49,1030.1013,1030.1013,1030.1019,,,,0,6,6,6,1,25,155,,,,,,,,
,,6041499ba066050e18a7934d,65af55a5b940720aef4cd614,2024-01-23_07h19.34.604,bars,2023.2.3,Win32,11.9760479,657b66ea316d21385b68909f,,,,,,,,,,,1030.102,1031.0802,,,1031.5931,1031.7956,,46,46,,,,,,,,,,,,,,,,bars/028.png,bars/mask006.png,,,,,,,,,,,,3,1,,,,,,,2,5,3,5,,,,,,,,,,,1031.0802,1031.593,1031.7956,1044.3507,space,12.4613,,1044.3508,1,74,1045.3227,1045.3228,1045.3306,,,,0,7,7,7,1,45,120,,,,,,,,
,,6041499ba066050e18a7934d,65af55a5b940720aef4cd614,2024-01-23_07h19.34.604,bars,2023.2.3,Win32,11.9760479,657b66ea316d21385b68909f,,,,,,,,,,,1045.3306,1046.3083,,,1046.8203,1047.0169,,150,150,,,,,,,,,,,,,,,,bars/021.png,bars/mask005.png,,,,,,,,,,,,0,1,,,,,,,0,7,0,8,,,,,,,,,,,1046.3084,1046.8203,1047.0169,1054.5796,space,7.459,,1054.5796,5,80,1055.5577,1055.5577,1055.5646,,,,0,8,8,8,1,155,70,,,,,,,,
,,6041499ba066050e18a7934d,65af55a5b940720aef4cd614,2024-01-23_07h19.34.604,bars,2023.2.3,Win32,11.9760479,657b66ea316d21385b68909f,,,,,,,,,,,1055.5647,1056.5365,,,1057.0492,1057.2515,,26,26,,,,,,,,,,,,,,,,bars/033.png,bars/mask003.png,,,,,,,,,,,,3,1,,,,,,,2,5,3,5,,,,,,,,,,,1056.5365,1057.0492,1057.2516,1067.2745,space,9.9295,,1067.2745,1,51,1068.2578,1068.2578,1068.2647,,,,0,9,9,9,1,25,155,,,,,,,,
,,6041499ba066050e18a7934d,65af55a5b940720aef4cd614,2024-01-23_07h19.34.604,bars,2023.2.3,Win32,11.9760479,657b66ea316d21385b68909f,,,,,,,,,,,1068.2649,1069.23,,,1069.7373,1069.9374,,117,117,,,,,,,,,,,,,,,,bars/034.png,bars/mask002.png,,,,,,,,,,,,1,1,,,,,,,0,7,1,7,,,,,,,,,,,1069.23,1069.7373,1069.9374,1079.8609,space,9.8262,,1079.8609,8,52,1080.8509,1080.851,1080.8579,,,,0,10,10,10,1,125,65,,,,,,,,
,,6041499ba066050e18a7934d,65af55a5b940720aef4cd614,2024-01-23_07h19.34.604,bars,2023.2.3,Win32,11.9760479,657b66ea316d21385b68909f,,,,,,,,,,,1080.8582,1081.8535,,,1082.3617,1082.5743,,81,81,,,,,,,,,,,,,,,,bars/013.png,bars/mask001.png,,,,,,,,,,,,1,1,,,,,,,0,9,1,10,,,,,,,,,,,1081.8535,1082.3617,1082.5743,1091.8145,space,9.1418,,1091.8146,6,71,1092.7966,1092.7966,1092.804,,,,0,11,11,11,1,75,10,,,,,,,,
,,6041499ba066050e18a7934d,65af55a5b940720aef4cd614,2024-01-23_07h19.34.604,bars,2023.2.3,Win32,11.9760479,657b66ea316d21385b68909f,,,,,,,,,,,1092.8042,1093.7788,,,1094.274,1094.4732,,95,95,,,,,,,,,,,,,,,,bars/029.png,bars/mask007.png,,,,,,,,,,,,2,1,,,,,,,2,7,2,7,,,,,,,,,,,1093.7788,1094.274,1094.4732,1103.1262,space,8.5539,,1103.1262,5,50,1104.0468,1104.0468,1104.0543,,,,0,12,12,12,1,90,45,,,,,,,,
,,6041499ba066050e18a7934d,65af55a5b940720aef4cd614,2024-01-23_07h19.34.604,bars,2023.2.3,Win32,11.9760479,657b66ea316d21385b68909f,,,,,,,,,,,1104.0544,1105.0461,,,1105.4678,1105.6856,,99,99,,,,,,,,,,,,,,,,bars/022.png,bars/mask002.png,,,,,,,,,,,,3,1,,,,,,,4,5,3,5,,,,,,,,,,,1105.0461,1105.4677,1105.6857,1108.4115,space,2.6262,,1108.4115,4,79,1109.3455,1109.3456,1109.3461,,,,0,13,13,13,1,95,20,,,,,,,,
,,6041499ba066050e18a7934d,65af55a5b940720aef4cd614,2024-01-23_07h19.34.604,bars,2023.2.3,Win32,11.9760479,657b66ea316d21385b68909f,,,,,,,,,,,1109.3462,1110.3625,,,1110.8792,1111.0833,,170,-10,,,,,,,,,,,,,,,,bars/046.png,bars/mask003.png,,,,,,,,,,,,1,1,,,,,,,2,3,1,3,,,,,,,,,,,1110.3625,1110.8792,1111.0833,1120.3816,space,9.2007,,1120.3817,15,85,1121.3654,1121.3654,1121.3724,,,,0,14,14,14,1,155,85,,,,,,,,
,,6041499ba066050e18a7934d,65af55a5b940720aef4cd614,2024-01-23_07h19.34.604,bars,2023.2.3,Win32,11.9760479,657b66ea316d21385b68909f,,,,,,,,,,,1121.3726,1122.3557,,,1122.871,1123.0793,,176,-4,,,,,,,,,,,,,,,,bars/035.png,bars/mask007.png,,,,,,,,,,,,3,1,,,,,,,4,1,3,3,,,,,,,,,,,1122.3557,1122.871,1123.0793,1129.7143,space,6.5421,,1129.7143,1,64,1130.7129,1130.713,1130.7139,,,,0,15,15,15,1,175,60,,,,,,,,
,,6041499ba066050e18a7934d,65af55a5b940720aef4cd614,2024-01-23_07h19.34.604,bars,2023.2.3,Win32,11.9760479,657b66ea316d21385b68909f,,,,,,,,,,,1130.7144,1131.7212,,,1132.236,1132.4491,,57,57,,,,,,,,,,,,,,,,bars/044.png,bars/mask001.png,,,,,,,,,,,,2,1,,,,,,,6,0,5,0,,,,,,,,,,,1131.7212,1132.236,1132.4491,1133.4556,space,0.9129,,1133.4556,18,82,1134.4691,1134.4691,1134.4696,,,,0,16,16,16,1,75,155,,,,,,,,
,,6041499ba066050e18a7934d,65af55a5b940720aef4cd614,2024-01-23_07h19.34.604,bars,2023.2.3,Win32,11.9760479,657b66ea316d21385b68909f,,,,,,,,,,,1134.4697,1135.4729,,,1135.9869,1136.1946,,76,76,,,,,,,,,,,,,,,,bars/029.png,bars/mask006.png,,,,,,,,,,,,3,1,,,,,,,4,2,5,2,,,,,,,,,,,1135.4729,1135.9869,1136.1947,1145.9505,space,9.662,,1145.9506,14,31,1146.9392,1146.9392,1146.9397,,,,0,17,17,17,1,90,45,,,,,,,,
,,6041499ba066050e18a7934d,65af55a5b940720aef4cd614,2024-01-23_07h19.34.604,bars,2023.2.3,Win32,11.9760479,657b66ea316d21385b68909f,,,,,,,,,,,1146.9399,1147.9184,,,1148.431,1148.6429,,89,89,,,,,,,,,,,,,,,,bars/012.png,bars/mask009.png,,,,,,,,,,,,7,1,,,,,,,6,4,7,4,,,,,,,,,,,1147.9185,1148.431,1148.6429,1153.0743,space,4.3336,,1153.0743,1,74,1154.0676,1154.0676,1154.0681,,,,0,18,18,18,1,90,15,,,,,,,,
,,6041499ba066050e18a7934d,65af55a5b940720aef4cd614,2024-01-23_07h19.34.604,bars,2023.2.3,Win32,11.9760479,657b66ea316d21385b68909f,,,,,,,,,,,1154.0682,1155.0521,,,1155.556,1155.7749,,156,-24,,,,,,,,,,,,,,,,bars/001.png,bars/mask008.png,,,,,,,,,,,,1,1,,,,,,,4,2,6,3,,,,,,,,,,,1155.0521,1155.556,1155.7749,1162.9258,space,7.0571,,1162.9258,26,71,1163.9162,1163.9163,1163.9167,,,,0,19,19,19,1,130,85,,,,,,,,
,,6041499ba066050e18a7934d,65af55a5b940720aef4cd614,2024-01-23_07h19.34.604,bars,2023.2.3,Win32,11.9760479,657b66ea316d21385b68909f,,,,,,,,,,,1163.9168,1164.9166,,,1165.4154,1165.6149,,64,64,,,,,,,,,,,,,,,,bars/048.png,bars/mask004.png,,,,,,,,,,,,4,1,,,,,,,6,4,8,4,,,,,,,,,,,1164.9166,1165.4154,1165.615,1172.6102,space,6.8961,,1172.6102,14,69,1173.6163,1173.6163,1173.6167,,,,0,20,20,20,1,50,175,,,,,,,,
,,6041499ba066050e18a7934d,65af55a5b940720aef4cd614,2024-01-23_07h19.34.604,bars,2023.2.3,Win32,11.9760479,657b66ea316d21385b68909f,,,,,,,,,,,1173.6168,1174.5984,,,1175.1044,1175.307,,173,-7,,,,,,,,,,,,,,,,bars/021.png,bars/mask009.png,,,,,,,,,,,,4,1,,,,,,,8,6,9,6,,,,,,,,,,,1174.5984,1175.1043,1175.3071,1177.3541,space,1.9524,,1177.3541,18,77,1178.3392,1178.3393,1178.3397,,,,0,21,21,21,1,155,70,,,,,,,,
,,6041499ba066050e18a7934d,65af55a5b940720aef4cd614,2024-01-23_07h19.34.604,bars,2023.2.3,Win32,11.9760479,657b66ea316d21385b68909f,,,,,,,,,,,1178.3399,1179.3074,,,1179.8125,1180.0144,,136,136,,,,,,,,,,,,,,,,bars/040.png,bars/mask006.png,,,,,,,,,,,,8,1,,,,,,,10,8,9,8,,,,,,,,,,,1179.3075,1179.8125,1180.0144,1182.7298,space,2.6158,,1182.7298,4,49,1183.7187,1183.7188,1183.7193,,,,0,22,22,22,1,140,5,,,,,,,,
,,6041499ba066050e18a7934d,65af55a5b940720aef4cd614,2024-01-23_07h19.34.604,bars,2023.2.3,Win32,11.9760479,657b66ea316d21385b68909f,,,,,,,,,,,1183.7195,1184.7217,,,1185.2223,1185.4253,,19,19,,,,,,,,,,,,,,,,bars/004.png,bars/mask003.png,,,,,,,,,,,,6,1,,,,,,,8,10,7,10,,,,,,,,,,,1184.7217,1185.2223,1185.4253,1187.7278,space,2.2018,,1187.7278,6,74,1188.7073,1188.7073,1188.708,,,,0,23,23,23,1,25,125,,,,,,,,
,,6041499ba066050e18a7934d,65af55a5b940720aef4cd614,2024-01-23_07h19.34.604,bars,2023.2.3,Win32,11.9760479,657b66ea316d21385b68909f,,,,,,,,,,,1188.7081,1189.6964,,,1190.2061,1190.4133,,22,202,,,,,,,,,,,,,,,,bars/004.png,bars/mask007.png,,,,,,,,,,,,9,1,,,,,,,10,8,10,8,,,,,,,,,,,1189.6964,1190.2061,1190.4133,1202.4604,space,11.9502,,1202.4604,3,77,1203.4601,1203.4601,1203.4679,,,,0,24,24,24,1,25,125,,,,,,,,
,,6041499ba066050e18a7934d,65af55a5b940720aef4cd614,2024-01-23_07h19.34.604,bars,2023.2.3,Win32,11.9760479,657b66ea316d21385b68909f,,,,,,,,,,,1203.468,1204.4356,,,1204.9511,1205.1635,,91,91,,,,,,,,,,,,,,,,bars/029.png,bars/mask001.png,,,,,,,,,,,,10,1,,,,,,,8,6,10,6,,,,,,,,,,,1204.4356,1204.951,1205.1635,1213.2334,space,7.9756,,1213.2334,1,46,1214.2191,1214.2191,1214.2196,,,,0,25,25,25,1,90,45,,,,,,,,
,,6041499ba066050e18a7934d,65af55a5b940720aef4cd614,2024-01-23_07h19.34.604,bars,2023.2.3,Win32,11.9760479,657b66ea316d21385b68909f,,,,,,,,,,,1214.2198,1215.2121,,,1215.7277,1215.9275,,153,-27,,,,,,,,,,,,,,,,bars/038.png,bars/mask005.png,,,,,,,,,,,,4,1,,,,,,,6,4,6,4,,,,,,,,,,,1215.2121,1215.7277,1215.9275,1227.7696,space,11.7431,,1227.7696,12,83,1228.7611,1228.7611,1228.7681,,,,0,26,26,26,1,165,70,,,,,,,,
,,6041499ba066050e18a7934d,65af55a5b940720aef4cd614,2024-01-23_07h19.34.604,bars,2023.2.3,Win32,11.9760479,657b66ea316d21385b68909f,,,,,,,,,,,1228.7682,1229.7515,,,1230.2524,1230.4595,,179,179,,,,,,,,,,,,,,,,bars/023.png,bars/mask001.png,,,,,,,,,,,,2,1,,,,,,,8,6,8,7,,,,,,,,,,,1229.7515,1230.2523,1230.4595,1232.5369,space,1.9797,,1232.5369,21,64,1233.5422,1233.5422,1233.5429,,,,0,27,27,27,1,20,115,,,,,,,,
,,6041499ba066050e18a7934d,65af55a5b940720aef4cd614,2024-01-23_07h19.34.604,bars,2023.2.3,Win32,11.9760479,657b66ea316d21385b68909f,,,,,,,,,,,1233.5433,1234.5422,,,1235.0436,1235.2412,,164,-16,,,,,,,,,,,,,,,,bars/036.png,bars/mask002.png,,,,,,,,,,,,3,1,,,,,,,6,8,8,10,,,,,,,,,,,1234.5423,1235.0436,1235.2412,1241.4471,space,6.1133,,1241.4471,19,36,1242.4333,1242.4333,1242.4338,,,,0,28,28,28,1,145,20,,,,,,,,
,,6041499ba066050e18a7934d,65af55a5b940720aef4cd614,2024-01-23_07h19.34.604,bars,2023.2.3,Win32,11.9760479,657b66ea316d21385b68909f,,,,,,,,,,,1242.4339,1243.4146,,,1243.9321,1244.1332,,94,-86,,,,,,,,,,,,,,,,bars/022.png,bars/mask009.png,,,,,,,,,,,,7,1,,,,,,,8,6,7,6,,,,,,,,,,,1243.4146,1243.932,1244.1333,1254.3967,space,10.1695,,1254.3967,1,74,1255.4038,1255.4038,1255.4044,,,,0,29,29,29,1,95,20,,,,,,,,
,,6041499ba066050e18a7934d,65af55a5b940720aef4cd614,2024-01-23_07h19.34.604,bars,2023.2.3,Win32,11.9760479,657b66ea316d21385b68909f,,,,,,,,,,,1255.4044,1256.4055,,,1256.9163,1257.1119,,27,207,,,,,,,,,,,,,,,,bars/005.png,bars/mask008.png,,,,,,,,,,,,4,1,,,,,,,10,8,10,8,,,,,,,,,,,1256.4055,1256.9163,1257.112,1263.4375,space,6.2299,,1263.4375,17,67,1264.437,1264.4371,1264.4376,,,,0,30,30,30,1,10,140,,,,,,,,
,,6041499ba066050e18a7934d,65af55a5b940720aef4cd614,2024-01-23_07h19.34.604,bars,2023.2.3,Win32,11.9760479,657b66ea316d21385b68909f,,,,,,,,,,,1264.4377,1265.4329,,,1265.9536,1266.1574,,16,16,,,,,,,,,,,,,,,,bars/004.png,bars/mask009.png,,,,,,,,,,,,4,1,,,,,,,8,10,6,9,,,,,,,,,,,1265.4329,1265.9535,1266.1574,1267.5482,space,1.2923,,1267.5482,9,71,1268.5412,1268.5412,1268.5417,,,,0,31,31,31,1,25,125,,,,,,,,
,,6041499ba066050e18a7934d,65af55a5b940720aef4cd614,2024-01-23_07h19.34.604,bars,2023.2.3,Win32,11.9760479,657b66ea316d21385b68909f,,,,,,,,,,,1268.5418,1269.5365,,,1269.9866,1270.19,,110,-70,,,,,,,,,,,,,,,,bars/025.png,bars/mask006.png,,,,,,,,,,,,5,1,,,,,,,6,8,6,8,,,,,,,,,,,1269.5365,1269.9866,1270.1901,1279.8235,space,9.5385,,1279.8235,5,70,1280.8257,1280.8257,1280.8326,,,,0,32,32,32,1,105,40,,,,,,,,
,,6041499ba066050e18a7934d,65af55a5b940720aef4cd614,2024-01-23_07h19.34.604,bars,2023.2.3,Win32,11.9760479,657b66ea316d21385b68909f,,,,,,,,,,,1280.8328,1281.8248,,,1282.322,1282.5224,,26,206,,,,,,,,,,,,,,,,bars/006.png,bars/mask006.png,,,,,,,,,,,,6,1,,,,,,,8,10,8,10,,,,,,,,,,,1281.8248,1282.322,1282.5225,1290.3076,space,7.6902,,1290.3076,9,74,1291.2947,1291.2947,1291.2951,,,,0,33,33,33,1,35,100,,,,,,,,
,,6041499ba066050e18a7934d,65af55a5b940720aef4cd614,2024-01-23_07h19.34.604,bars,2023.2.3,Win32,11.9760479,657b66ea316d21385b68909f,,,,,,,,,,,1291.2953,1292.2706,,,1292.7796,1292.9851,,157,-23,,,,,,,,,,,,,,,,bars/036.png,bars/mask000.png,,,,,,,,,,,,4,1,,,,,,,6,8,6,10,,,,,,,,,,,1292.2707,1292.7795,1292.9851,1297.8519,space,4.7621,,1297.8519,12,43,1298.8673,1298.8673,1298.8678,,,,0,34,34,34,1,145,20,,,,,,,,
,,6041499ba066050e18a7934d,65af55a5b940720aef4cd614,2024-01-23_07h19.34.604,bars,2023.2.3,Win32,11.9760479,657b66ea316d21385b68909f,,,,,,,,,,,1298.868,1299.8531,,,1300.3688,1300.5682,,168,168,,,,,,,,,,,,,,,,bars/036.png,bars/mask009.png,,,,,,,,,,,,1,1,,,,,,,4,6,4,6,,,,,,,,,,,1299.8531,1300.3687,1300.5682,1303.8528,space,3.1874,,1303.8528,23,32,1304.8341,1304.8342,1304.8345,,,,0,35,35,35,1,145,20,,,,,,,,
,,6041499ba066050e18a7934d,65af55a5b940720aef4cd614,2024-01-23_07h19.34.604,bars,2023.2.3,Win32,11.9760479,657b66ea316d21385b68909f,,,,,,,,,,,1304.8345,1305.8166,,,1306.2298,1306.4315,,170,170,,,,,,,,,,,,,,,,bars/021.png,bars/mask000.png,,,,,,,,,,,,1,1,,,,,,,2,4,2,4,,,,,,,,,,,1305.8166,1306.2298,1306.4315,1314.9558,space,8.4281,,1314.9558,15,80,1315.9269,1315.9269,1315.9343,,,,0,36,36,36,1,155,70,,,,,,,,
,,6041499ba066050e18a7934d,65af55a5b940720aef4cd614,2024-01-23_07h19.34.604,bars,2023.2.3,Win32,11.9760479,657b66ea316d21385b68909f,,,,,,,,,,,1315.9345,1316.905,,,1317.4032,1317.6044,,31,31,,,,,,,,,,,,,,,,bars/000.png,bars/mask002.png,,,,,,,,,,,,3,1,,,,,,,4,6,4,4,,,,,,,,,,,1316.9051,1317.4032,1317.6044,1326.8658,space,9.1683,,1326.8658,9,66,1327.8354,1327.8354,1327.8427,,,,0,37,37,37,1,40,145,,,,,,,,
,,6041499ba066050e18a7934d,65af55a5b940720aef4cd614,2024-01-23_07h19.34.604,bars,2023.2.3,Win32,11.9760479,657b66ea316d21385b68909f,,,,,,,,,,,1327.8429,1328.8278,,,1329.335,1329.535,,144,-36,,,,,,,,,,,,,,,,bars/034.png,bars/mask003.png,,,,,,,,,,,,0,1,,,,,,,2,8,1,7,,,,,,,,,,,1328.8278,1329.335,1329.535,1337.6574,space,8.0232,,1337.6574,19,79,1338.6572,1338.6572,1338.6577,,,,0,38,38,38,1,125,65,,,,,,,,
,,6041499ba066050e18a7934d,65af55a5b940720aef4cd614,2024-01-23_07h19.34.604,bars,2023.2.3,Win32,11.9760479,657b66ea316d21385b68909f,,,,,,,,,,,1338.6578,1339.6418,,,1340.1516,1340.3569,,34,214,,,,,,,,,,,,,,,,bars/005.png,bars/mask008.png,,,,,,,,,,,,1,1,,,,,,,4,10,5,10,,,,,,,,,,,1339.6418,1340.1515,1340.3569,1348.9755,space,8.5187,,1348.9755,24,74,1349.9784,1349.9784,1349.9789,,,,0,39,39,39,1,10,140,,,,,,,,
,,6041499ba066050e18a7934d,65af55a5b940720aef4cd614,2024-01-23_07h19.34.604,bars,2023.2.3,Win32,11.9760479,657b66ea316d21385b68909f,,,,,,,,,,,1349.9789,1350.9456,,,1351.4446,1351.6423,,136,136,,,,,,,,,,,,,,,,bars/040.png,bars/mask006.png,,,,,,,,,,,,6,1,,,,,,,6,8,7,7,,,,,,,,,,,1350.9457,1351.4445,1351.6423,1352.9154,space,1.1759,,1352.9155,4,49,1353.9055,1353.9055,1353.906,,,,0,40,40,40,1,140,5,,,,,,,,
,,6041499ba066050e18a7934d,65af55a5b940720aef4cd614,2024-01-23_07h19.34.604,bars,2023.2.3,Win32,11.9760479,657b66ea316d21385b68909f,,,,,,,,,,,1353.9062,1354.8852,,,1355.3987,1355.6054,,165,165,,,,,,,,,,,,,,,,bars/018.png,bars/mask002.png,,,,,,,,,,,,3,1,,,,,,,4,6,5,7,,,,,,,,,,,1354.8852,1355.3987,1355.6054,1362.5442,space,6.8486,,1362.5442,15,75,1363.5325,1363.5325,1363.5403,,,,0,41,41,41,1,150,90,,,,,,,,
,,6041499ba066050e18a7934d,65af55a5b940720aef4cd614,2024-01-23_07h19.34.604,bars,2023.2.3,Win32,11.9760479,657b66ea316d21385b68909f,,,,,,,,,,,1363.5404,1364.5137,,,1364.9341,1365.1362,,1,181,,,,,,,,,,,,,,,,bars/035.png,bars/mask006.png,,,,,,,,,,,,5,1,,,,,,,6,8,6,9,,,,,,,,,,,1364.5137,1364.9341,1365.1363,1369.5333,space,4.3017,,1369.5334,6,59,1370.5115,1370.5115,1370.512,,,,0,42,42,42,1,175,60,,,,,,,,
,,6041499ba066050e18a7934d,65af55a5b940720aef4cd614,2024-01-23_07h19.34.604,bars,2023.2.3,Win32,11.9760479,657b66ea316d21385b68909f,,,,,,,,,,,1370.5122,1371.5231,,,1372.0226,1372.2343,,24,24,,,,,,,,,,,,,,,,bars/028.png,bars/mask004.png,,,,,,,,,,,,3,1,,,,,,,8,6,9,7,,,,,,,,,,,1371.5231,1372.0226,1372.2343,1374.692,space,2.3594,,1374.6921,21,84,1375.6875,1375.6876,1375.6947,,,,0,43,43,43,1,45,120,,,,,,,,
,,6041499ba066050e18a7934d,65af55a5b940720aef4cd614,2024-01-23_07h19.34.604,bars,2023.2.3,Win32,11.9760479,657b66ea316d21385b68909f,,,,,,,,,,,1375.6949,1376.7236,,,1377.2451,1377.4533,,16,16,,,,,,,,,,,,,,,,bars/023.png,bars/mask004.png,,,,,,,,,,,,4,1,,,,,,,6,8,5,10,,,,,,,,,,,1376.7237,1377.245,1377.4533,1384.8122,space,7.2531,,1384.8122,4,81,1385.7931,1385.7931,1385.8006,,,,0,44,44,44,1,20,115,,,,,,,,
,,6041499ba066050e18a7934d,65af55a5b940720aef4cd614,2024-01-23_07h19.34.604,bars,2023.2.3,Win32,11.9760479,657b66ea316d21385b68909f,,,,,,,,,,,1385.8008,1386.7744,,,1387.2945,1387.4962,,116,116,,,,,,,,,,,,,,,,bars/032.png,bars/mask004.png,,,,,,,,,,,,3,1,,,,,,,4,10,4,9,,,,,,,,,,,1386.7745,1387.2945,1387.4962,1390.8005,space,3.2078,,1390.8005,9,84,1391.7812,1391.7812,1391.7817,,,,0,45,45,45,1,125,20,,,,,,,,
,,6041499ba066050e18a7934d,65af55a5b940720aef4cd614,2024-01-23_07h19.34.604,bars,2023.2.3,Win32,11.9760479,657b66ea316d21385b68909f,,,,,,,,,,,1391.7819,1392.7744,,,1393.2804,1393.4743,,40,40,,,,,,,,,,,,,,,,bars/043.png,bars/mask004.png,,,,,,,,,,,,2,1,,,,,,,2,8,3,9,,,,,,,,,,,1392.7745,1393.2804,1393.4743,1400.3306,space,6.7639,,1400.3306,10,90,1401.3241,1401.3242,1401.3246,,,,0,46,46,46,1,30,130,,,,,,,,
,,6041499ba066050e18a7934d,65af55a5b940720aef4cd614,2024-01-23_07h19.34.604,bars,2023.2.3,Win32,11.9760479,657b66ea316d21385b68909f,,,,,,,,,,,1401.3247,1402.3003,,,1402.8125,1403.0124,,12,12,,,,,,,,,,,,,,,,bars/016.png,bars/mask002.png,,,,,,,,,,,,1,2,,,,,,,4,6,4,9,,,,,,,,,,,1402.3003,1402.8124,1403.0124,1407.0122,space,3.9091,,1407.0122,28,27,1407.9889,1407.9891,1407.991,,,,0,47,47,47,1,40,165,,,,,,,,
,,6041499ba066050e18a7934d,65af55a5b940720aef4cd614,2024-01-23_07h19.34.604,bars,2023.2.3,Win32,11.9760479,657b66ea316d21385b68909f,,,,,,,,,,,1407.9912,1408.971,,,1409.4637,1409.6583,,123,123,,,,,,,,,,,,,,,,bars/034.png,bars/mask006.png,,,,,,,,,,,,1,1,,,,,,,2,8,1,7,,,,,,,,,,,1408.9712,1409.4636,1409.6584,1415.5926,space,5.8406,,1415.5926,2,58,1416.5861,1416.5861,1416.5872,,,,0,48,48,48,1,125,65,,,,,,,,
,,6041499ba066050e18a7934d,65af55a5b940720aef4cd614,2024-01-23_07h19.34.604,bars,2023.2.3,Win32,11.9760479,657b66ea316d21385b68909f,,,,,,,,,,,1416.5874,1417.5801,,,1418.0981,1418.3009,,170,-10,,,,,,,,,,,,,,,,bars/047.png,bars/mask009.png,,,,,,,,,,,,0,1,,,,,,,0,6,0,6,,,,,,,,,,,1417.5801,1418.0981,1418.3009,1423.5248,space,5.131,,1423.5248,25,80,1424.5042,1424.5042,1424.5046,,,,0,49,49,49,1,15,70,,,,,,,,
,,6041499ba066050e18a7934d,65af55a5b940720aef4cd614,2024-01-23_07h19.34.604,bars,2023.2.3,Win32,11.9760479,657b66ea316d21385b68909f,,,,,,,,,,,,,,,,,,,,,,,,,,,,,,,,,,,,,,,,,,,,,,,,,,,,,,,,,,,,,,,,,,,,,,,,,,,,,,,,,,,,,,,,,,,,,1424.5047,1950.2941,0,1,1,3,1,sequence_tables/blk005.csv
,,6041499ba066050e18a7934d,65af55a5b940720aef4cd614,2024-01-23_07h19.34.604,bars,2023.2.3,Win32,11.9760479,657b66ea316d21385b68909f,,,,,,,,,,,1951.7358,1952.7384,,,1953.1976,1953.3978,,133,133,,,,,,,,,,,,,,,,bars/040.png,bars/mask001.png,,,,,,,,,,,,7,1,,,,,,,9,4,9,4,,,,,,1950.3022,1951.7326,space,1.3297,,1952.7385,1953.1976,1953.3978,1958.7455,space,5.2599,,1958.7455,7,52,1959.7276,1959.7276,1959.7339,,,,0,0,0,0,1,140,5,,,,,,,,
,,6041499ba066050e18a7934d,65af55a5b940720aef4cd614,2024-01-23_07h19.34.604,bars,2023.2.3,Win32,11.9760479,657b66ea316d21385b68909f,,,,,,,,,,,1959.7341,1960.724,,,1961.1866,1961.3772,,154,-26,,,,,,,,,,,,,,,,bars/034.png,bars/mask005.png,,,,,,,,,,,,0,1,,,,,,,10,6,10,6,,,,,,,,,,,1960.724,1961.1866,1961.3773,1968.8901,space,7.4297,,1968.8901,29,89,1969.889,1969.8891,1969.8896,,,,0,1,1,1,1,125,65,,,,,,,,
,,6041499ba066050e18a7934d,65af55a5b940720aef4cd614,2024-01-23_07h19.34.604,bars,2023.2.3,Win32,11.9760479,657b66ea316d21385b68909f,,,,,,,,,,,1969.8897,1970.8038,,,1971.2569,1971.445,,44,224,,,,,,,,,,,,,,,,bars/000.png,bars/mask009.png,,,,,,,,,,,,7,1,,,,,,,8,4,8,5,,,,,,,,,,,1970.8039,1971.2569,1971.445,1979.2305,space,7.6984,,1979.2305,4,79,1980.2128,1980.2129,1980.2133,,,,0,2,2,2,1,40,145,,,,,,,,
,,6041499ba066050e18a7934d,65af55a5b940720aef4cd614,2024-01-23_07h19.34.604,bars,2023.2.3,Win32,11.9760479,657b66ea316d21385b68909f,,,,,,,,,,,1980.2135,1981.1865,,,1981.6496,1981.9301,,175,-5,,,,,,,,,,,,,,,,bars/035.png,bars/mask008.png,,,,,,,,,,,,6,1,,,,,,,6,6,6,7,,,,,,,,,,,1981.1866,1981.6495,1981.9302,1987.8985,space,5.882,,1987.8986,0,65,1988.8807,1988.8808,1988.8813,,,,0,3,3,3,1,175,60,,,,,,,,
,,6041499ba066050e18a7934d,65af55a5b940720aef4cd614,2024-01-23_07h19.34.604,bars,2023.2.3,Win32,11.9760479,657b66ea316d21385b68909f,,,,,,,,,,,1988.8814,1989.8449,,,1990.3028,1990.5815,,94,94,,,,,,,,,,,,,,,,bars/002.png,bars/mask005.png,,,,,,,,,,,,6,2,,,,,,,4,8,3,8,,,,,,,,,,,1989.8449,1990.3028,1990.5816,1996.6775,space,6.0084,,1996.6776,36,9,1997.65,1997.6501,1997.6517,,,,0,4,4,4,1,130,85,,,,,,,,
,,6041499ba066050e18a7934d,65af55a5b940720aef4cd614,2024-01-23_07h19.34.604,bars,2023.2.3,Win32,11.9760479,657b66ea316d21385b68909f,,,,,,,,,,,1997.6519,1998.6372,,,1999.0965,1999.2857,,172,-8,,,,,,,,,,,,,,,,bars/018.png,bars/mask006.png,,,,,,,,,,,,0,1,,,,,,,2,10,1,10,,,,,,,,,,,1998.6372,1999.0965,1999.2858,2002.7712,space,3.401,,2002.7712,22,82,2003.7415,2003.7415,2003.7488,,,,0,5,5,5,1,150,90,,,,,,,,
,,6041499ba066050e18a7934d,65af55a5b940720aef4cd614,2024-01-23_07h19.34.604,bars,2023.2.3,Win32,11.9760479,657b66ea316d21385b68909f,,,,,,,,,,,2003.7489,2004.7273,,,2005.1973,2005.4709,,25,25,,,,,,,,,,,,,,,,bars/033.png,bars/mask008.png,,,,,,,,,,,,4,1,,,,,,,4,8,4,8,,,,,,,,,,,2004.7274,2005.1973,2005.4709,2010.7566,space,5.1997,,2010.7567,0,50,2011.7506,2011.7506,2011.7511,,,,0,6,6,6,1,25,155,,,,,,,,
,,6041499ba066050e18a7934d,65af55a5b940720aef4cd614,2024-01-23_07h19.34.604,bars,2023.2.3,Win32,11.9760479,657b66ea316d21385b68909f,,,,,,,,,,,2011.7511,2012.7455,,,2013.2239,2013.4994,,67,67,,,,,,,,,,,,,,,,bars/014.png,bars/mask001.png,,,,,,,,,,,,1,1,,,,,,,2,10,1,10,,,,,,,,,,,2012.7455,2013.2238,2013.4994,2020.4189,space,6.8302,,2020.4189,13,67,2021.4262,2021.4262,2021.4327,,,,0,7,7,7,1,80,0,,,,,,,,
,,6041499ba066050e18a7934d,65af55a5b940720aef4cd614,2024-01-23_07h19.34.604,bars,2023.2.3,Win32,11.9760479,657b66ea316d21385b68909f,,,,,,,,,,,2021.433,2022.4367,,,2022.9028,2023.086,,111,-69,,,,,,,,,,,,,,,,bars/027.png,bars/mask005.png,,,,,,,,,,,,4,1,,,,,,,4,8,4,7,,,,,,,,,,,2022.4367,2022.9028,2023.086,2034.561,space,11.3804,,2034.5611,1,61,2035.4974,2035.4974,2035.4978,,,,0,8,8,8,1,110,50,,,,,,,,
,,6041499ba066050e18a7934d,65af55a5b940720aef4cd614,2024-01-23_07h19.34.604,bars,2023.2.3,Win32,11.9760479,657b66ea316d21385b68909f,,,,,,,,,,,2035.4979,2036.4405,,,2036.9175,2037.11,,20,20,,,,,,,,,,,,,,,,bars/003.png,bars/mask006.png,,,,,,,,,,,,2,1,,,,,,,2,6,2,7,,,,,,,,,,,2036.4405,2036.9175,2037.11,2042.3114,space,5.1107,,2042.3114,5,60,2043.2433,2043.2433,2043.2437,,,,0,9,9,9,1,25,140,,,,,,,,
,,6041499ba066050e18a7934d,65af55a5b940720aef4cd614,2024-01-23_07h19.34.604,bars,2023.2.3,Win32,11.9760479,657b66ea316d21385b68909f,,,,,,,,,,,2043.2439,2044.2707,,,2044.7529,2044.9496,,121,121,,,,,,,,,,,,,,,,bars/045.png,bars/mask006.png,,,,,,,,,,,,1,1,,,,,,,4,8,3,7,,,,,,,,,,,2044.2708,2044.7529,2044.9497,2048.4847,space,3.444,,2048.4848,21,69,2049.4676,2049.4676,2049.468,,,,0,10,10,10,1,100,10,,,,,,,,
,,6041499ba066050e18a7934d,65af55a5b940720aef4cd614,2024-01-23_07h19.34.604,bars,2023.2.3,Win32,11.9760479,657b66ea316d21385b68909f,,,,,,,,,,,2049.4681,2050.3942,,,2050.9103,2051.1213,,92,92,,,,,,,,,,,,,,,,bars/032.png,bars/mask003.png,,,,,,,,,,,,0,1,,,,,,,2,6,1,7,,,,,,,,,,,2050.3942,2050.9102,2051.1214,2056.6752,space,5.4518,,2056.6752,33,72,2057.6362,2057.6362,2057.6368,,,,0,11,11,11,1,125,20,,,,,,,,
,,6041499ba066050e18a7934d,65af55a5b940720aef4cd614,2024-01-23_07h19.34.604,bars,2023.2.3,Win32,11.9760479,657b66ea316d21385b68909f,,,,,,,,,,,2057.6369,2058.5924,,,2059.0987,2059.2983,,40,40,,,,,,,,,,,,,,,,bars/019.png,bars/mask001.png,,,,,,,,,,,,3,1,,,,,,,4,4,4,6,,,,,,,,,,,2058.5925,2059.0986,2059.2983,2061.1159,space,1.7217,,2061.1159,5,65,2062.0615,2062.0615,2062.0619,,,,0,12,12,12,1,45,105,,,,,,,,
,,6041499ba066050e18a7934d,65af55a5b940720aef4cd614,2024-01-23_07h19.34.604,bars,2023.2.3,Win32,11.9760479,657b66ea316d21385b68909f,,,,,,,,,,,2062.0621,2063.0102,,,2063.5108,2063.7096,,113,113,,,,,,,,,,,,,,,,bars/002.png,bars/mask003.png,,,,,,,,,,,,0,1,,,,,,,2,6,1,6,,,,,,,,,,,2063.0102,2063.5107,2063.7096,2065.8136,space,2.0121,,2065.8136,17,28,2066.7851,2066.7851,2066.7855,,,,0,13,13,13,1,130,85,,,,,,,,
,,6041499ba066050e18a7934d,65af55a5b940720aef4cd614,2024-01-23_07h19.34.604,bars,2023.2.3,Win32,11.9760479,657b66ea316d21385b68909f,,,,,,,,,,,2066.7856,2067.7328,,,2068.2202,2068.4185,,155,-25,,,,,,,,,,,,,,,,bars/030.png,bars/mask007.png,,,,,,,,,,,,2,1,,,,,,,4,4,4,4,,,,,,,,,,,2067.7328,2068.2202,2068.4185,2080.4894,space,11.9676,,2080.4894,15,90,2081.4935,2081.4936,2081.5001,,,,0,14,14,14,1,140,65,,,,,,,,
,,6041499ba066050e18a7934d,65af55a5b940720aef4cd614,2024-01-23_07h19.34.604,bars,2023.2.3,Win32,11.9760479,657b66ea316d21385b68909f,,,,,,,,,,,2081.5004,2082.4864,,,2083.0137,2083.2103,,166,-14,,,,,,,,,,,,,,,,bars/039.png,bars/mask006.png,,,,,,,,,,,,4,1,,,,,,,6,2,6,3,,,,,,,,,,,2082.4864,2083.0137,2083.2103,2093.018,space,9.7163,,2093.018,9,61,2094.0125,2094.0125,2094.0129,,,,0,15,15,15,1,175,105,,,,,,,,
,,6041499ba066050e18a7934d,65af55a5b940720aef4cd614,2024-01-23_07h19.34.604,bars,2023.2.3,Win32,11.9760479,657b66ea316d21385b68909f,,,,,,,,,,,2094.013,2094.9935,,,2095.5039,2095.7106,,107,107,,,,,,,,,,,,,,,,bars/002.png,bars/mask004.png,,,,,,,,,,,,0,2,,,,,,,8,0,8,0,,,,,,,,,,,2094.9935,2095.5038,2095.7106,2102.8514,space,7.0503,,2102.8514,23,22,2103.8001,2103.8001,2103.8015,,,,0,16,16,16,1,130,85,,,,,,,,
,,6041499ba066050e18a7934d,65af55a5b940720aef4cd614,2024-01-23_07h19.34.604,bars,2023.2.3,Win32,11.9760479,657b66ea316d21385b68909f,,,,,,,,,,,2103.8017,2104.7729,,,2105.2764,2105.4727,,99,99,,,,,,,,,,,,,,,,bars/008.png,bars/mask002.png,,,,,,,,,,,,4,1,,,,,,,6,2,6,3,,,,,,,,,,,2104.7729,2105.2764,2105.4728,2106.6473,space,1.0783,,2106.6474,11,81,2107.6129,2107.6129,2107.6142,,,,0,17,17,17,1,110,0,,,,,,,,
,,6041499ba066050e18a7934d,65af55a5b940720aef4cd614,2024-01-23_07h19.34.604,bars,2023.2.3,Win32,11.9760479,657b66ea316d21385b68909f,,,,,,,,,,,2107.6144,2108.5949,,,2109.099,2109.2995,,176,176,,,,,,,,,,,,,,,,bars/018.png,bars/mask007.png,,,,,,,,,,,,0,1,,,,,,,4,4,1,4,,,,,,,,,,,2108.5949,2109.099,2109.2996,2117.6171,space,8.2216,,2117.6171,26,86,2118.6007,2118.6008,2118.6075,,,,0,18,18,18,1,150,90,,,,,,,,
,,6041499ba066050e18a7934d,65af55a5b940720aef4cd614,2024-01-23_07h19.34.604,bars,2023.2.3,Win32,11.9760479,657b66ea316d21385b68909f,,,,,,,,,,,2118.6077,2119.5733,,,2120.0614,2120.2619,,151,-29,,,,,,,,,,,,,,,,bars/037.png,bars/mask009.png,,,,,,,,,,,,3,1,,,,,,,2,2,3,3,,,,,,,,,,,2119.5733,2120.0613,2120.2619,2125.0702,space,4.7139,,2125.0703,1,46,2126.0628,2126.0629,2126.0635,,,,0,19,19,19,1,150,105,,,,,,,,
,,6041499ba066050e18a7934d,65af55a5b940720aef4cd614,2024-01-23_07h19.34.604,bars,2023.2.3,Win32,11.9760479,657b66ea316d21385b68909f,,,,,,,,,,,2126.0635,2127.0287,,,2127.5414,2127.7438,,170,-10,,,,,,,,,,,,,,,,bars/049.png,bars/mask006.png,,,,,,,,,,,,1,1,,,,,,,0,4,1,3,,,,,,,,,,,2127.0288,2127.5414,2127.7438,2138.5055,space,10.6588,,2138.5055,10,55,2139.4723,2139.4724,2139.4792,,,,0,20,20,20,1,160,115,,,,,,,,
,,6041499ba066050e18a7934d,65af55a5b940720aef4cd614,2024-01-23_07h19.34.604,bars,2023.2.3,Win32,11.9760479,657b66ea316d21385b68909f,,,,,,,,,,,2139.4794,2140.4572,,,2140.9639,2141.1663,,78,78,,,,,,,,,,,,,,,,bars/036.png,bars/mask009.png,,,,,,,,,,,,0,2,,,,,,,0,2,1,4,,,,,,,,,,,2140.4572,2140.9638,2141.1664,2143.514,space,2.2458,,2143.5141,67,58,2144.4854,2144.4855,2144.487,,,,0,21,21,21,1,145,20,,,,,,,,
,,6041499ba066050e18a7934d,65af55a5b940720aef4cd614,2024-01-23_07h19.34.604,bars,2023.2.3,Win32,11.9760479,657b66ea316d21385b68909f,,,,,,,,,,,2144.4873,2145.4625,,,2145.9612,2146.1659,,116,116,,,,,,,,,,,,,,,,bars/049.png,bars/mask004.png,,,,,,,,,,,,1,2,,,,,,,2,0,3,1,,,,,,,,,,,2145.4625,2145.9612,2146.1659,2147.952,space,1.6825,,2147.9521,44,1,2148.9256,2148.9256,2148.926,,,,0,22,22,22,1,160,115,,,,,,,,
,,6041499ba066050e18a7934d,65af55a5b940720aef4cd614,2024-01-23_07h19.34.604,bars,2023.2.3,Win32,11.9760479,657b66ea316d21385b68909f,,,,,,,,,,,2148.9262,2149.8879,,,2150.3819,2150.5799,,81,81,,,,,,,,,,,,,,,,bars/019.png,bars/mask006.png,,,,,,,,,,,,1,2,,,,,,,0,2,0,4,,,,,,,,,,,2149.8879,2150.3818,2150.5799,2285.3428,space,134.6645,,2285.3428,36,24,2286.3135,2286.3136,2286.3142,,,,0,23,23,23,1,45,105,,,,,,,,
,,6041499ba066050e18a7934d,65af55a5b940720aef4cd614,2024-01-23_07h19.34.604,bars,2023.2.3,Win32,11.9760479,657b66ea316d21385b68909f,,,,,,,,,,,2286.3143,2287.2806,,,2287.7311,2287.9168,,75,75,,,,,,,,,,,,,,,,bars/027.png,bars/mask005.png,,,,,,,,,,,,1,2,,,,,,,2,4,2,4,,,,,,,,,,,2287.2806,2287.7311,2287.9169,2295.4921,space,7.4896,,2295.4921,35,25,2296.4714,2296.4714,2296.4779,,,,0,24,24,24,1,110,50,,,,,,,,
,,6041499ba066050e18a7934d,65af55a5b940720aef4cd614,2024-01-23_07h19.34.604,bars,2023.2.3,Win32,11.9760479,657b66ea316d21385b68909f,,,,,,,,,,,2296.478,2297.4452,,,2297.8976,2298.0799,,29,29,,,,,,,,,,,,,,,,bars/026.png,bars/mask008.png,,,,,,,,,,,,0,1,,,,,,,0,6,0,4,,,,,,,,,,,2297.4452,2297.8976,2298.0799,2301.3258,space,3.1552,,2301.3258,6,56,2302.3097,2302.3097,2302.3114,,,,0,25,25,25,1,35,85,,,,,,,,
,,6041499ba066050e18a7934d,65af55a5b940720aef4cd614,2024-01-23_07h19.34.604,bars,2023.2.3,Win32,11.9760479,657b66ea316d21385b68909f,,,,,,,,,,,2302.3115,2303.322,,,2303.7778,2303.9753,,111,111,,,,,,,,,,,,,,,,bars/024.png,bars/mask003.png,,,,,,,,,,,,1,1,,,,,,,0,8,1,8,,,,,,,,,,,2303.322,2303.7778,2303.9753,2310.0151,space,5.9486,,2310.0151,9,59,2311.0199,2311.0199,2311.0205,,,,0,26,26,26,1,120,170,,,,,,,,
,,6041499ba066050e18a7934d,65af55a5b940720aef4cd614,2024-01-23_07h19.34.604,bars,2023.2.3,Win32,11.9760479,657b66ea316d21385b68909f,,,,,,,,,,,2311.0206,2312.0031,,,2312.4814,2312.6683,,53,53,,,,,,,,,,,,,,,,bars/044.png,bars/mask009.png,,,,,,,,,,,,0,1,,,,,,,0,6,0,8,,,,,,,,,,,2312.0031,2312.4814,2312.6683,2313.3822,space,0.6223,,2313.3822,22,78,2314.363,2314.3631,2314.3634,,,,0,27,27,27,1,75,155,,,,,,,,
,,6041499ba066050e18a7934d,65af55a5b940720aef4cd614,2024-01-23_07h19.34.604,bars,2023.2.3,Win32,11.9760479,657b66ea316d21385b68909f,,,,,,,,,,,2314.3635,2315.333,,,2315.79,2315.974,,115,115,,,,,,,,,,,,,,,,bars/045.png,bars/mask009.png,,,,,,,,,,,,1,1,,,,,,,2,4,1,3,,,,,,,,,,,2315.333,2315.79,2315.974,2316.9492,space,0.8915,,2316.9492,15,75,2317.9304,2317.9304,2317.9308,,,,0,28,28,28,1,100,10,,,,,,,,
,,6041499ba066050e18a7934d,65af55a5b940720aef4cd614,2024-01-23_07h19.34.604,bars,2023.2.3,Win32,11.9760479,657b66ea316d21385b68909f,,,,,,,,,,,2317.9309,2318.8852,,,2319.3587,2319.547,,30,30,,,,,,,,,,,,,,,,bars/005.png,bars/mask009.png,,,,,,,,,,,,1,1,,,,,,,4,6,3,4,,,,,,,,,,,2318.8852,2319.3587,2319.547,2320.7968,space,1.1652,,2320.7969,20,70,2321.7627,2321.7627,2321.7631,,,,0,29,29,29,1,10,140,,,,,,,,
,,6041499ba066050e18a7934d,65af55a5b940720aef4cd614,2024-01-23_07h19.34.604,bars,2023.2.3,Win32,11.9760479,657b66ea316d21385b68909f,,,,,,,,,,,2321.7632,2322.7407,,,2323.201,2323.384,,155,-25,,,,,,,,,,,,,,,,bars/009.png,bars/mask002.png,,,,,,,,,,,,0,1,,,,,,,2,4,1,5,,,,,,,,,,,2322.7407,2323.201,2323.384,2334.4649,space,10.9926,,2334.465,40,50,2335.4642,2335.4642,2335.4646,,,,0,30,30,30,1,15,105,,,,,,,,
,,6041499ba066050e18a7934d,65af55a5b940720aef4cd614,2024-01-23_07h19.34.604,bars,2023.2.3,Win32,11.9760479,657b66ea316d21385b68909f,,,,,,,,,,,2335.4648,2336.4746,,,2336.9567,2337.1468,,166,166,,,,,,,,,,,,,,,,bars/038.png,bars/mask005.png,,,,,,,,,,,,4,1,,,,,,,4,6,4,6,,,,,,,,,,,2336.4747,2336.9567,2337.1469,2338.6182,space,1.3843,,2338.6182,1,84,2339.6333,2339.6334,2339.6338,,,,0,31,31,31,1,165,70,,,,,,,,
,,6041499ba066050e18a7934d,65af55a5b940720aef4cd614,2024-01-23_07h19.34.604,bars,2023.2.3,Win32,11.9760479,657b66ea316d21385b68909f,,,,,,,,,,,2339.6339,2340.5638,,,2341.0438,2341.3213,,73,73,,,,,,,,,,,,,,,,bars/031.png,bars/mask001.png,,,,,,,,,,,,0,2,,,,,,,6,4,5,5,,,,,,,,,,,2340.5638,2341.0438,2341.3213,2348.879,space,7.4688,,2348.8791,47,38,2349.8849,2349.885,2349.8923,,,,0,32,32,32,1,120,35,,,,,,,,
,,6041499ba066050e18a7934d,65af55a5b940720aef4cd614,2024-01-23_07h19.34.604,bars,2023.2.3,Win32,11.9760479,657b66ea316d21385b68909f,,,,,,,,,,,2349.8925,2350.912,,,2351.3836,2351.5765,,22,22,,,,,,,,,,,,,,,,bars/012.png,bars/mask003.png,,,,,,,,,,,,6,2,,,,,,,8,6,9,8,,,,,,,,,,,2350.912,2351.3835,2351.5765,2351.9541,space,0.2851,,2351.9541,68,7,2352.9729,2352.9729,2352.9733,,,,0,33,33,33,1,90,15,,,,,,,,
,,6041499ba066050e18a7934d,65af55a5b940720aef4cd614,2024-01-23_07h19.34.604,bars,2023.2.3,Win32,11.9760479,657b66ea316d21385b68909f,,,,,,,,,,,2352.9733,2353.9072,,,2354.3817,2354.5782,,55,55,,,,,,,,,,,,,,,,bars/036.png,bars/mask009.png,,,,,,,,,,,,0,2,,,,,,,6,8,6,7,,,,,,,,,,,2353.9073,2354.3817,2354.5783,2354.7709,space,0.1039,,2354.771,90,35,2355.7878,2355.7879,2355.7884,,,,0,34,34,34,1,145,20,,,,,,,,
,,6041499ba066050e18a7934d,65af55a5b940720aef4cd614,2024-01-23_07h19.34.604,bars,2023.2.3,Win32,11.9760479,657b66ea316d21385b68909f,,,,,,,,,,,2355.7886,2356.8152,,,2357.2815,2357.4725,,2,2,,,,,,,,,,,,,,,,bars/045.png,bars/mask003.png,,,,,,,,,,,,7,2,,,,,,,4,10,5,10,,,,,,,,,,,2356.8152,2357.2815,2357.4725,2365.2318,space,7.6701,,2365.2318,82,8,2366.1897,2366.1897,2366.1967,,,,0,35,35,35,1,100,10,,,,,,,,
,,6041499ba066050e18a7934d,65af55a5b940720aef4cd614,2024-01-23_07h19.34.604,bars,2023.2.3,Win32,11.9760479,657b66ea316d21385b68909f,,,,,,,,,,,2366.1968,2367.1416,,,2367.6404,2367.8404,,13,13,,,,,,,,,,,,,,,,bars/043.png,bars/mask004.png,,,,,,,,,,,,3,1,,,,,,,6,10,6,10,,,,,,,,,,,2367.1416,2367.6404,2367.8404,2370.1181,space,2.1822,,2370.1181,17,63,2371.0688,2371.0689,2371.07,,,,0,36,36,36,1,30,130,,,,,,,,
,,6041499ba066050e18a7934d,65af55a5b940720aef4cd614,2024-01-23_07h19.34.604,bars,2023.2.3,Win32,11.9760479,657b66ea316d21385b68909f,,,,,,,,,,,2371.0702,2372.0113,,,2372.5035,2372.7055,,20,20,,,,,,,,,,,,,,,,bars/045.png,bars/mask009.png,,,,,,,,,,,,5,2,,,,,,,8,8,8,7,,,,,,,,,,,2372.0114,2372.5034,2372.7056,2379.3066,space,6.5053,,2379.3066,80,10,2380.2652,2380.2652,2380.2666,,,,0,37,37,37,1,100,10,,,,,,,,
,,6041499ba066050e18a7934d,65af55a5b940720aef4cd614,2024-01-23_07h19.34.604,bars,2023.2.3,Win32,11.9760479,657b66ea316d21385b68909f,,,,,,,,,,,2380.2668,2381.2108,,,2381.7098,2381.9073,,62,62,,,,,,,,,,,,,,,,bars/029.png,bars/mask001.png,,,,,,,,,,,,4,2,,,,,,,10,10,10,10,,,,,,,,,,,2381.2108,2381.7098,2381.9073,2415.1459,space,33.1491,,2415.1459,28,17,2416.13,2416.1301,2416.1369,,,,0,38,38,38,1,90,45,,,,,,,,
,,6041499ba066050e18a7934d,65af55a5b940720aef4cd614,2024-01-23_07h19.34.604,bars,2023.2.3,Win32,11.9760479,657b66ea316d21385b68909f,,,,,,,,,,,2416.137,2417.1374,,,2417.6073,2417.883,,130,130,,,,,,,,,,,,,,,,bars/038.png,bars/mask000.png,,,,,,,,,,,,0,1,,,,,,,8,10,7,10,,,,,,,,,,,2417.1374,2417.6073,2417.8831,2418.917,space,0.9383,,2418.917,35,60,2419.8496,2419.8496,2419.8508,,,,0,39,39,39,1,165,70,,,,,,,,
,,6041499ba066050e18a7934d,65af55a5b940720aef4cd614,2024-01-23_07h19.34.604,bars,2023.2.3,Win32,11.9760479,657b66ea316d21385b68909f,,,,,,,,,,,2419.851,2420.8239,,,2421.3157,2421.5157,,117,117,,,,,,,,,,,,,,,,bars/011.png,bars/mask005.png,,,,,,,,,,,,0,2,,,,,,,6,10,8,9,,,,,,,,,,,2420.824,2421.3157,2421.5157,2425.9172,space,4.3113,,2425.9172,43,32,2426.8929,2426.8929,2426.9004,,,,0,40,40,40,1,160,85,,,,,,,,
,,6041499ba066050e18a7934d,65af55a5b940720aef4cd614,2024-01-23_07h19.34.604,bars,2023.2.3,Win32,11.9760479,657b66ea316d21385b68909f,,,,,,,,,,,2426.9006,2427.8754,,,2428.3653,2428.5685,,97,97,,,,,,,,,,,,,,,,bars/014.png,bars/mask007.png,,,,,,,,,,,,3,1,,,,,,,8,10,8,10,,,,,,,,,,,2427.8754,2428.3652,2428.5685,2430.4202,space,1.7496,,2430.4202,17,83,2431.3882,2431.3882,2431.3894,,,,0,41,41,41,1,80,0,,,,,,,,
,,6041499ba066050e18a7934d,65af55a5b940720aef4cd614,2024-01-23_07h19.34.604,bars,2023.2.3,Win32,11.9760479,657b66ea316d21385b68909f,,,,,,,,,,,2431.3894,2432.3508,,,2432.8395,2433.0377,,174,-6,,,,,,,,,,,,,,,,bars/047.png,bars/mask002.png,,,,,,,,,,,,1,1,,,,,,,6,8,4,7,,,,,,,,,,,2432.3508,2432.8395,2433.0378,2447.2776,space,14.1498,,2447.2776,21,76,2448.2474,2448.2474,2448.255,,,,0,42,42,42,1,15,70,,,,,,,,
,,6041499ba066050e18a7934d,65af55a5b940720aef4cd614,2024-01-23_07h19.34.604,bars,2023.2.3,Win32,11.9760479,657b66ea316d21385b68909f,,,,,,,,,,,2448.2552,2449.2359,,,2449.7379,2449.9376,,54,54,,,,,,,,,,,,,,,,bars/019.png,bars/mask006.png,,,,,,,,,,,,7,1,,,,,,,8,6,10,7,,,,,,,,,,,2449.2359,2449.7378,2449.9376,2452.5797,space,2.5481,,2452.5797,9,51,2453.5481,2453.5481,2453.5486,,,,0,43,43,43,1,45,105,,,,,,,,
,,6041499ba066050e18a7934d,65af55a5b940720aef4cd614,2024-01-23_07h19.34.604,bars,2023.2.3,Win32,11.9760479,657b66ea316d21385b68909f,,,,,,,,,,,2453.5487,2454.5111,,,2455.023,2455.2222,,148,148,,,,,,,,,,,,,,,,bars/005.png,bars/mask001.png,,,,,,,,,,,,2,2,,,,,,,10,4,10,3,,,,,,,,,,,2454.5112,2455.023,2455.2222,2457.9155,space,2.5965,,2457.9156,42,8,2458.8877,2458.8877,2458.8888,,,,0,44,44,44,1,10,140,,,,,,,,
,,6041499ba066050e18a7934d,65af55a5b940720aef4cd614,2024-01-23_07h19.34.604,bars,2023.2.3,Win32,11.9760479,657b66ea316d21385b68909f,,,,,,,,,,,2458.889,2459.8606,,,2460.3638,2460.5671,,158,158,,,,,,,,,,,,,,,,bars/003.png,bars/mask003.png,,,,,,,,,,,,0,2,,,,,,,10,2,10,1,,,,,,,,,,,2459.8606,2460.3638,2460.5671,2466.3645,space,5.696,,2466.3645,47,18,2467.3429,2467.3429,2467.3436,,,,0,45,45,45,1,25,140,,,,,,,,
,,6041499ba066050e18a7934d,65af55a5b940720aef4cd614,2024-01-23_07h19.34.604,bars,2023.2.3,Win32,11.9760479,657b66ea316d21385b68909f,,,,,,,,,,,2467.3438,2468.3102,,,2468.8095,2469.0153,,71,71,,,,,,,,,,,,,,,,bars/021.png,bars/mask005.png,,,,,,,,,,,,0,2,,,,,,,8,0,10,0,,,,,,,,,,,2468.3102,2468.8095,2469.0153,2473.8176,space,4.7092,,2473.8176,84,1,2474.7907,2474.7907,2474.7912,,,,0,46,46,46,1,155,70,,,,,,,,
,,6041499ba066050e18a7934d,65af55a5b940720aef4cd614,2024-01-23_07h19.34.604,bars,2023.2.3,Win32,11.9760479,657b66ea316d21385b68909f,,,,,,,,,,,2474.7913,2475.7603,,,2476.2565,2476.4544,,178,-2,,,,,,,,,,,,,,,,bars/021.png,bars/mask005.png,,,,,,,,,,,,2,1,,,,,,,10,0,10,0,,,,,,,,,,,2475.7603,2476.2565,2476.4544,2484.7995,space,8.2519,,2484.7995,23,72,2485.7664,2485.7664,2485.7678,,,,0,47,47,47,1,155,70,,,,,,,,
,,6041499ba066050e18a7934d,65af55a5b940720aef4cd614,2024-01-23_07h19.34.604,bars,2023.2.3,Win32,11.9760479,657b66ea316d21385b68909f,,,,,,,,,,,2485.768,2486.7268,,,2487.2342,2487.4298,,178,178,,,,,,,,,,,,,,,,bars/018.png,bars/mask003.png,,,,,,,,,,,,1,1,,,,,,,10,0,10,0,,,,,,,,,,,2486.7269,2487.2341,2487.4298,2493.2857,space,5.7617,,2493.2858,28,88,2494.281,2494.281,2494.2878,,,,0,48,48,48,1,150,90,,,,,,,,
,,6041499ba066050e18a7934d,65af55a5b940720aef4cd614,2024-01-23_07h19.34.604,bars,2023.2.3,Win32,11.9760479,657b66ea316d21385b68909f,,,,,,,,,,,2494.2881,2495.2975,,,2495.8134,2496.0274,,167,167,,,,,,,,,,,,,,,,bars/042.png,bars/mask004.png,,,,,,,,,,,,3,1,,,,,,,10,0,10,0,,,,,,,,,,,2495.2975,2495.8134,2496.0274,2506.5251,space,10.3915,,2506.5252,22,88,2507.524,2507.524,2507.5309,,,,0,49,49,49,1,145,75,,,,,,,,
,,6041499ba066050e18a7934d,65af55a5b940720aef4cd614,2024-01-23_07h19.34.604,bars,2023.2.3,Win32,11.9760479,657b66ea316d21385b68909f,,,,,,,,,,,,,,,,,,,,,,,,,,,,,,,,,,,,,,,,,,,,,,,,,,,,,,,,,,,,,,,,,,,,,,,,,,,,,,,,,,,,,,,,,,,,,2507.5309,2710.7487,0,2,2,1,1,sequence_tables/blk018.csv
,,6041499ba066050e18a7934d,65af55a5b940720aef4cd614,2024-01-23_07h19.34.604,bars,2023.2.3,Win32,11.9760479,657b66ea316d21385b68909f,,,,,,,,,,,2712.8678,2713.8439,,,2714.3001,2714.5692,,92,92,,,,,,,,,,,,,,,,bars/021.png,bars/mask007.png,,,,,,,,,,,,1,2,,,,,,,2,4,2,5,,,,,,2710.758,2712.8637,space,2.0026,,2713.8439,2714.3001,2714.5693,2715.7295,space,1.0757,,2715.7295,63,22,2716.7108,2716.7109,2716.712,,,,0,0,0,0,1,155,70,,,,,,,,
,,6041499ba066050e18a7934d,65af55a5b940720aef4cd614,2024-01-23_07h19.34.604,bars,2023.2.3,Win32,11.9760479,657b66ea316d21385b68909f,,,,,,,,,,,2716.7122,2717.6732,,,2718.1375,2718.4213,,168,-12,,,,,,,,,,,,,,,,bars/024.png,bars/mask006.png,,,,,,,,,,,,7,2,,,,,,,4,6,4,7,,,,,,,,,,,2717.6732,2718.1375,2718.4213,2723.5909,space,5.0817,,2723.5909,48,2,2724.6052,2724.6052,2724.612,,,,0,1,1,1,1,120,170,,,,,,,,
,,6041499ba066050e18a7934d,65af55a5b940720aef4cd614,2024-01-23_07h19.34.604,bars,2023.2.3,Win32,11.9760479,657b66ea316d21385b68909f,,,,,,,,,,,2724.6123,2725.5667,,,2726.0165,2726.2919,,123,-57,,,,,,,,,,,,,,,,bars/003.png,bars/mask000.png,,,,,,,,,,,,3,2,,,,,,,6,8,5,8,,,,,,,,,,,2725.5668,2726.0165,2726.2919,2737.2954,space,10.9112,,2737.2954,82,17,2738.2669,2738.2669,2738.2734,,,,0,2,2,2,1,25,140,,,,,,,,
,,6041499ba066050e18a7934d,65af55a5b940720aef4cd614,2024-01-23_07h19.34.604,bars,2023.2.3,Win32,11.9760479,657b66ea316d21385b68909f,,,,,,,,,,,2738.2736,2739.2553,,,2739.713,2739.906,,175,175,,,,,,,,,,,,,,,,bars/032.png,bars/mask003.png,,,,,,,,,,,,1,2,,,,,,,4,6,2,7,,,,,,,,,,,2739.2553,2739.713,2739.906,2746.8928,space,6.8999,,2746.8928,50,25,2747.8809,2747.8809,2747.8813,,,,0,3,3,3,1,125,20,,,,,,,,
,,6041499ba066050e18a7934d,65af55a5b940720aef4cd614,2024-01-23_07h19.34.604,bars,2023.2.3,Win32,11.9760479,657b66ea316d21385b68909f,,,,,,,,,,,2747.8814,2748.8487,,,2749.294,2749.5618,,39,39,,,,,,,,,,,,,,,,bars/031.png,bars/mask008.png,,,,,,,,,,,,3,2,,,,,,,6,4,6,4,,,,,,,,,,,2748.8487,2749.294,2749.5618,3146.1503,space,396.4974,,3146.1503,81,4,3147.1275,3147.1276,3147.128,,,,0,4,4,4,1,120,35,,,,,,,,
,,6041499ba066050e18a7934d,65af55a5b940720aef4cd614,2024-01-23_07h19.34.604,bars,2023.2.3,Win32,11.9760479,657b66ea316d21385b68909f,,,,,,,,,,,3147.1281,3148.1199,,,3148.5753,3148.7526,,18,18,,,,,,,,,,,,,,,,bars/009.png,bars/mask003.png,,,,,,,,,,,,8,1,,,,,,,8,2,9,3,,,,,,,,,,,3148.12,3148.5752,3148.7526,3156.8236,space,7.9807,,3156.8236,3,87,3157.7791,3157.7791,3157.7803,,,,0,5,5,5,1,15,105,,,,,,,,
,,6041499ba066050e18a7934d,65af55a5b940720aef4cd614,2024-01-23_07h19.34.604,bars,2023.2.3,Win32,11.9760479,657b66ea316d21385b68909f,,,,,,,,,,,3157.7805,3158.7492,,,3159.2132,3159.3943,,114,114,,,,,,,,,,,,,,,,bars/049.png,bars/mask006.png,,,,,,,,,,,,0,2,,,,,,,6,0,7,0,,,,,,,,,,,3158.7492,3159.2132,3159.3944,3164.8493,space,5.3713,,3164.8493,46,1,3165.8426,3165.8426,3165.8438,,,,0,6,6,6,1,160,115,,,,,,,,
,,6041499ba066050e18a7934d,65af55a5b940720aef4cd614,2024-01-23_07h19.34.604,bars,2023.2.3,Win32,11.9760479,657b66ea316d21385b68909f,,,,,,,,,,,3165.844,3166.8367,,,3167.3175,3167.5111,,67,67,,,,,,,,,,,,,,,,bars/047.png,bars/mask005.png,,,,,,,,,,,,2,2,,,,,,,4,2,4,2,,,,,,,,,,,3166.8368,3167.3174,3167.5111,3170.4975,space,2.9046,,3170.4975,52,3,3171.4746,3171.4747,3171.4751,,,,0,7,7,7,1,15,70,,,,,,,,
,,6041499ba066050e18a7934d,65af55a5b940720aef4cd614,2024-01-23_07h19.34.604,bars,2023.2.3,Win32,11.9760479,657b66ea316d21385b68909f,,,,,,,,,,,3171.4752,3172.4485,,,3172.9148,3173.0998,,8,188,,,,,,,,,,,,,,,,bars/016.png,bars/mask003.png,,,,,,,,,,,,1,2,,,,,,,2,4,2,5,,,,,,,,,,,3172.4485,3172.9148,3173.0998,3179.6848,space,6.4986,,3179.6848,32,23,3180.647,3180.647,3180.6474,,,,0,8,8,8,1,40,165,,,,,,,,
,,6041499ba066050e18a7934d,65af55a5b940720aef4cd614,2024-01-23_07h19.34.604,bars,2023.2.3,Win32,11.9760479,657b66ea316d21385b68909f,,,,,,,,,,,3180.6476,3181.6601,,,3182.114,3182.3072,,62,62,,,,,,,,,,,,,,,,bars/019.png,bars/mask005.png,,,,,,,,,,,,2,1,,,,,,,4,2,5,2,,,,,,,,,,,3181.6602,3182.114,3182.3072,3361.0513,space,178.6607,,3361.0513,17,43,3362.0507,3362.0507,3362.0519,,,,0,9,9,9,1,45,105,,,,,,,,
,,6041499ba066050e18a7934d,65af55a5b940720aef4cd614,2024-01-23_07h19.34.604,bars,2023.2.3,Win32,11.9760479,657b66ea316d21385b68909f,,,,,,,,,,,3362.052,3363.0103,,,3363.4642,3363.7368,,68,68,,,,,,,,,,,,,,,,bars/025.png,bars/mask001.png,,,,,,,,,,,,0,2,,,,,,,6,4,9,4,,,,,,,,,,,3363.0103,3363.4641,3363.7369,3367.9395,space,4.1208,,3367.9395,37,28,3368.9032,3368.9033,3368.9043,,,,0,10,10,10,1,105,40,,,,,,,,
,,6041499ba066050e18a7934d,65af55a5b940720aef4cd614,2024-01-23_07h19.34.604,bars,2023.2.3,Win32,11.9760479,657b66ea316d21385b68909f,,,,,,,,,,,3368.9044,3369.8643,,,3370.3253,3370.5929,,23,203,,,,,,,,,,,,,,,,bars/014.png,bars/mask004.png,,,,,,,,,,,,0,2,,,,,,,8,2,8,0,,,,,,,,,,,3369.8643,3370.3252,3370.5929,3374.2619,space,3.5802,,3374.2619,57,23,3375.2432,3375.2432,3375.2438,,,,0,11,11,11,1,80,0,,,,,,,,
,,6041499ba066050e18a7934d,65af55a5b940720aef4cd614,2024-01-23_07h19.34.604,bars,2023.2.3,Win32,11.9760479,657b66ea316d21385b68909f,,,,,,,,,,,3375.2439,3376.236,,,3376.6885,3376.8849,,60,60,,,,,,,,,,,,,,,,bars/031.png,bars/mask003.png,,,,,,,,,,,,1,2,,,,,,,10,4,10,4,,,,,,,,,,,3376.2361,3376.6884,3376.885,3382.9112,space,5.9372,,3382.9112,60,25,3383.9038,3383.9039,3383.9044,,,,0,12,12,12,1,120,35,,,,,,,,
,,6041499ba066050e18a7934d,65af55a5b940720aef4cd614,2024-01-23_07h19.34.604,bars,2023.2.3,Win32,11.9760479,657b66ea316d21385b68909f,,,,,,,,,,,3383.9045,3384.8893,,,3385.3428,3385.5292,,168,168,,,,,,,,,,,,,,,,bars/001.png,bars/mask002.png,,,,,,,,,,,,0,1,,,,,,,8,2,8,1,,,,,,,,,,,3384.8893,3385.3428,3385.5292,3390.4302,space,4.816,,3390.4303,38,83,3391.3879,3391.388,3391.3966,,,,0,13,13,13,1,130,85,,,,,,,,
,,6041499ba066050e18a7934d,65af55a5b940720aef4cd614,2024-01-23_07h19.34.604,bars,2023.2.3,Win32,11.9760479,657b66ea316d21385b68909f,,,,,,,,,,,3391.3967,3392.3541,,,3392.8119,3392.9932,,169,-11,,,,,,,,,,,,,,,,bars/030.png,bars/mask003.png,,,,,,,,,,,,0,1,,,,,,,10,4,10,4,,,,,,,,,,,3392.3541,3392.8119,3392.9933,3397.8098,space,4.7315,,3397.8099,29,76,3398.796,3398.796,3398.8028,,,,0,14,14,14,1,140,65,,,,,,,,
,,6041499ba066050e18a7934d,65af55a5b940720aef4cd614,2024-01-23_07h19.34.604,bars,2023.2.3,Win32,11.9760479,657b66ea316d21385b68909f,,,,,,,,,,,3398.803,3399.7934,,,3400.258,3400.5341,,55,55,,,,,,,,,,,,,,,,bars/028.png,bars/mask007.png,,,,,,,,,,,,4,1,,,,,,,8,6,6,5,,,,,,,,,,,3399.7934,3400.258,3400.5342,3404.0185,space,3.3923,,3404.0185,10,65,3404.9988,3404.9989,3404.9993,,,,0,15,15,15,1,45,120,,,,,,,,
,,6041499ba066050e18a7934d,65af55a5b940720aef4cd614,2024-01-23_07h19.34.604,bars,2023.2.3,Win32,11.9760479,657b66ea316d21385b68909f,,,,,,,,,,,3404.9994,3405.9642,,,3406.4263,3406.7007,,38,38,,,,,,,,,,,,,,,,bars/022.png,bars/mask009.png,,,,,,,,,,,,2,2,,,,,,,6,8,6,6,,,,,,,,,,,3405.9642,3406.4262,3406.7007,3410.6892,space,3.9061,,3410.6892,57,18,3411.6679,3411.6679,3411.6697,,,,0,16,16,16,1,95,20,,,,,,,,
,,6041499ba066050e18a7934d,65af55a5b940720aef4cd614,2024-01-23_07h19.34.604,bars,2023.2.3,Win32,11.9760479,657b66ea316d21385b68909f,,,,,,,,,,,3411.67,3412.647,,,3413.1041,3413.2866,,142,-38,,,,,,,,,,,,,,,,bars/016.png,bars/mask002.png,,,,,,,,,,,,1,2,,,,,,,4,6,4,6,,,,,,,,,,,3412.6471,3413.1041,3413.2867,3422.0561,space,8.6858,,3422.0561,78,23,3423.0608,3423.0609,3423.0613,,,,0,17,17,17,1,40,165,,,,,,,,
,,6041499ba066050e18a7934d,65af55a5b940720aef4cd614,2024-01-23_07h19.34.604,bars,2023.2.3,Win32,11.9760479,657b66ea316d21385b68909f,,,,,,,,,,,3423.0614,3424.0554,,,3424.5258,3424.711,,98,98,,,,,,,,,,,,,,,,bars/002.png,bars/mask000.png,,,,,,,,,,,,3,2,,,,,,,2,4,2,5,,,,,,,,,,,3424.0555,3424.5258,3424.711,3427.9141,space,3.1138,,3427.9141,32,13,3428.9014,3428.9014,3428.902,,,,0,18,18,18,1,130,85,,,,,,,,
,,6041499ba066050e18a7934d,65af55a5b940720aef4cd614,2024-01-23_07h19.34.604,bars,2023.2.3,Win32,11.9760479,657b66ea316d21385b68909f,,,,,,,,,,,3428.9022,3429.9111,,,3430.3858,3430.5808,,94,94,,,,,,,,,,,,,,,,bars/018.png,bars/mask005.png,,,,,,,,,,,,3,2,,,,,,,0,2,0,3,,,,,,,,,,,3429.9111,3430.3857,3430.5808,3436.1667,space,5.4995,,3436.1668,56,4,3437.1747,3437.1747,3437.1753,,,,0,19,19,19,1,150,90,,,,,,,,
,,6041499ba066050e18a7934d,65af55a5b940720aef4cd614,2024-01-23_07h19.34.604,bars,2023.2.3,Win32,11.9760479,657b66ea316d21385b68909f,,,,,,,,,,,3437.1754,3438.1781,,,3438.6506,3438.8453,,2,2,,,,,,,,,,,,,,,,bars/016.png,bars/mask008.png,,,,,,,,,,,,0,2,,,,,,,2,0,0,1,,,,,,,,,,,3438.1782,3438.6506,3438.8453,3447.4307,space,8.4894,,3447.4308,38,17,3448.4307,3448.4308,3448.4311,,,,0,20,20,20,1,40,165,,,,,,,,
,,6041499ba066050e18a7934d,65af55a5b940720aef4cd614,2024-01-23_07h19.34.604,bars,2023.2.3,Win32,11.9760479,657b66ea316d21385b68909f,,,,,,,,,,,3448.4312,3449.3695,,,3449.8447,3450.043,,76,76,,,,,,,,,,,,,,,,bars/027.png,bars/mask006.png,,,,,,,,,,,,0,2,,,,,,,4,2,7,2,,,,,,,,,,,3449.3695,3449.8447,3450.043,3490.8008,space,40.6644,,3490.8009,34,26,3491.768,3491.768,3491.7685,,,,0,21,21,21,1,110,50,,,,,,,,
,,6041499ba066050e18a7934d,65af55a5b940720aef4cd614,2024-01-23_07h19.34.604,bars,2023.2.3,Win32,11.9760479,657b66ea316d21385b68909f,,,,,,,,,,,3491.7687,3492.7389,,,3493.242,3493.4461,,70,70,,,,,,,,,,,,,,,,bars/046.png,bars/mask008.png,,,,,,,,,,,,0,2,,,,,,,2,0,1,0,,,,,,,,,,,3492.7389,3493.2419,3493.4462,3496.1859,space,2.6405,,3496.1859,85,15,3497.1546,3497.1546,3497.1617,,,,0,22,22,22,1,155,85,,,,,,,,
,,6041499ba066050e18a7934d,65af55a5b940720aef4cd614,2024-01-23_07h19.34.604,bars,2023.2.3,Win32,11.9760479,657b66ea316d21385b68909f,,,,,,,,,,,3497.162,3498.1444,,,3498.6578,3498.8614,,46,46,,,,,,,,,,,,,,,,bars/036.png,bars/mask006.png,,,,,,,,,,,,0,2,,,,,,,0,0,0,3,,,,,,,,,,,3498.1444,3498.6578,3498.8614,3504.5945,space,5.6418,,3504.5945,81,26,3505.5569,3505.5569,3505.5635,,,,0,23,23,23,1,145,20,,,,,,,,
,,6041499ba066050e18a7934d,65af55a5b940720aef4cd614,2024-01-23_07h19.34.604,bars,2023.2.3,Win32,11.9760479,657b66ea316d21385b68909f,,,,,,,,,,,3505.5637,3506.5238,,,3507.0094,3507.2106,,42,42,,,,,,,,,,,,,,,,bars/014.png,bars/mask008.png,,,,,,,,,,,,0,1,,,,,,,2,2,2,2,,,,,,,,,,,3506.5238,3507.0094,3507.2106,3507.3097,space,0.0071,,3507.3097,38,42,3508.2694,3508.2694,3508.2704,,,,0,24,24,24,1,80,0,,,,,,,,
,,6041499ba066050e18a7934d,65af55a5b940720aef4cd614,2024-01-23_07h19.34.604,bars,2023.2.3,Win32,11.9760479,657b66ea316d21385b68909f,,,,,,,,,,,3508.2706,3509.2333,,,3509.7403,3509.9508,,102,102,,,,,,,,,,,,,,,,bars/013.png,bars/mask001.png,,,,,,,,,,,,0,1,,,,,,,4,0,2,0,,,,,,,,,,,3509.2333,3509.7403,3509.9508,3510.249,space,0.2072,,3510.249,27,88,3511.2326,3511.2326,3511.233,,,,0,25,25,25,1,75,10,,,,,,,,
,,6041499ba066050e18a7934d,65af55a5b940720aef4cd614,2024-01-23_07h19.34.604,bars,2023.2.3,Win32,11.9760479,657b66ea316d21385b68909f,,,,,,,,,,,3511.2332,3512.1987,,,3512.7043,3512.9081,,60,60,,,,,,,,,,,,,,,,bars/029.png,bars/mask008.png,,,,,,,,,,,,1,2,,,,,,,2,2,2,2,,,,,,,,,,,3512.1988,3512.7043,3512.9081,3516.7181,space,3.7176,,3516.7181,30,15,3517.6765,3517.6765,3517.6778,,,,0,26,26,26,1,90,45,,,,,,,,
,,6041499ba066050e18a7934d,65af55a5b940720aef4cd614,2024-01-23_07h19.34.604,bars,2023.2.3,Win32,11.9760479,657b66ea316d21385b68909f,,,,,,,,,,,3517.6779,3518.6607,,,3519.1588,3519.3561,,33,33,,,,,,,,,,,,,,,,bars/025.png,bars/mask003.png,,,,,,,,,,,,5,2,,,,,,,0,4,0,6,,,,,,,,,,,3518.6608,3519.1588,3519.3562,3521.8182,space,2.3657,,3521.8183,72,7,3522.7933,3522.7933,3522.7938,,,,0,27,27,27,1,105,40,,,,,,,,
,,6041499ba066050e18a7934d,65af55a5b940720aef4cd614,2024-01-23_07h19.34.604,bars,2023.2.3,Win32,11.9760479,657b66ea316d21385b68909f,,,,,,,,,,,3522.7939,3523.7801,,,3524.2771,3524.4748,,158,158,,,,,,,,,,,,,,,,bars/009.png,bars/mask006.png,,,,,,,,,,,,0,1,,,,,,,2,2,1,3,,,,,,,,,,,3523.7801,3524.2771,3524.4748,3530.1364,space,5.5675,,3530.1364,37,53,3531.1089,3531.1089,3531.11,,,,0,28,28,28,1,15,105,,,,,,,,
,,6041499ba066050e18a7934d,65af55a5b940720aef4cd614,2024-01-23_07h19.34.604,bars,2023.2.3,Win32,11.9760479,657b66ea316d21385b68909f,,,,,,,,,,,3531.1101,3532.0822,,,3532.5745,3532.7754,,31,31,,,,,,,,,,,,,,,,bars/007.png,bars/mask001.png,,,,,,,,,,,,0,2,,,,,,,0,0,0,1,,,,,,,,,,,3532.0822,3532.5745,3532.7754,3537.5031,space,4.6294,,3537.5031,36,24,3538.4853,3538.4853,3538.4863,,,,0,29,29,29,1,175,55,,,,,,,,
,,6041499ba066050e18a7934d,65af55a5b940720aef4cd614,2024-01-23_07h19.34.604,bars,2023.2.3,Win32,11.9760479,657b66ea316d21385b68909f,,,,,,,,,,,3538.4865,3539.4533,,,3539.945,3540.1463,,169,-11,,,,,,,,,,,,,,,,bars/033.png,bars/mask002.png,,,,,,,,,,,,1,2,,,,,,,2,2,3,1,,,,,,,,,,,3539.4534,3539.945,3540.1463,3544.5651,space,4.3263,,3544.5651,36,14,3545.5759,3545.576,3545.5767,,,,0,30,30,30,1,25,155,,,,,,,,
,,6041499ba066050e18a7934d,65af55a5b940720aef4cd614,2024-01-23_07h19.34.604,bars,2023.2.3,Win32,11.9760479,657b66ea316d21385b68909f,,,,,,,,,,,3545.5768,3546.5784,,,3547.0939,3547.297,,123,123,,,,,,,,,,,,,,,,bars/000.png,bars/mask004.png,,,,,,,,,,,,0,2,,,,,,,0,0,0,0,,,,,,,,,,,3546.5784,3547.0939,3547.2971,3550.3024,space,2.9137,,3550.3024,83,22,3551.2779,3551.2779,3551.2784,,,,0,31,31,31,1,40,145,,,,,,,,
,,6041499ba066050e18a7934d,65af55a5b940720aef4cd614,2024-01-23_07h19.34.604,bars,2023.2.3,Win32,11.9760479,657b66ea316d21385b68909f,,,,,,,,,,,3551.2785,3552.2688,,,3552.7921,3552.9982,,124,124,,,,,,,,,,,,,,,,bars/003.png,bars/mask008.png,,,,,,,,,,,,0,2,,,,,,,0,0,1,0,,,,,,,,,,,3552.2689,3552.792,3552.9982,3557.1345,space,4.024,,3557.1345,81,16,3558.1296,3558.1296,3558.1363,,,,0,32,32,32,1,25,140,,,,,,,,
,,6041499ba066050e18a7934d,65af55a5b940720aef4cd614,2024-01-23_07h19.34.604,bars,2023.2.3,Win32,11.9760479,657b66ea316d21385b68909f,,,,,,,,,,,3558.1367,3559.1207,,,3559.639,3559.8387,,1,181,,,,,,,,,,,,,,,,bars/012.png,bars/mask005.png,,,,,,,,,,,,1,2,,,,,,,2,0,1,2,,,,,,,,,,,3559.1207,3559.639,3559.8387,3563.8792,space,3.9502,,3563.8792,89,14,3564.8583,3564.8583,3564.8589,,,,0,33,33,33,1,90,15,,,,,,,,
,,6041499ba066050e18a7934d,65af55a5b940720aef4cd614,2024-01-23_07h19.34.604,bars,2023.2.3,Win32,11.9760479,657b66ea316d21385b68909f,,,,,,,,,,,3564.859,3565.8271,,,3566.3385,3566.5429,,161,161,,,,,,,,,,,,,,,,bars/044.png,bars/mask007.png,,,,,,,,,,,,0,2,,,,,,,0,0,0,0,,,,,,,,,,,3565.8271,3566.3385,3566.5429,3572.9687,space,6.3274,,3572.9687,86,6,3573.9406,3573.9407,3573.9412,,,,0,34,34,34,1,75,155,,,,,,,,
,,6041499ba066050e18a7934d,65af55a5b940720aef4cd614,2024-01-23_07h19.34.604,bars,2023.2.3,Win32,11.9760479,657b66ea316d21385b68909f,,,,,,,,,,,3573.9413,3574.9321,,,3575.4566,3575.6525,,126,126,,,,,,,,,,,,,,,,bars/002.png,bars/mask000.png,,,,,,,,,,,,2,1,,,,,,,2,2,2,2,,,,,,,,,,,3574.9321,3575.4566,3575.6525,3579.1961,space,3.4499,,3579.1961,4,41,3580.1712,3580.1712,3580.1725,,,,0,35,35,35,1,130,85,,,,,,,,
,,6041499ba066050e18a7934d,65af55a5b940720aef4cd614,2024-01-23_07h19.34.604,bars,2023.2.3,Win32,11.9760479,657b66ea316d21385b68909f,,,,,,,,,,,3580.1726,3581.1512,,,3581.654,3581.8526,,103,103,,,,,,,,,,,,,,,,bars/037.png,bars/mask006.png,,,,,,,,,,,,0,2,,,,,,,0,0,0,0,,,,,,,,,,,3581.1512,3581.654,3581.8526,3586.3099,space,4.3621,,3586.3099,47,2,3587.3033,3587.3034,3587.3114,,,,0,36,36,36,1,150,105,,,,,,,,
,,6041499ba066050e18a7934d,65af55a5b940720aef4cd614,2024-01-23_07h19.34.604,bars,2023.2.3,Win32,11.9760479,657b66ea316d21385b68909f,,,,,,,,,,,3587.3115,3588.291,,,3588.7969,3589.0087,,11,11,,,,,,,,,,,,,,,,bars/032.png,bars/mask007.png,,,,,,,,,,,,0,2,,,,,,,0,0,0,0,,,,,,,,,,,3588.291,3588.7969,3589.0087,3590.7937,space,1.6863,,3590.7938,66,9,3591.7755,3591.7755,3591.776,,,,0,37,37,37,1,125,20,,,,,,,,
,,6041499ba066050e18a7934d,65af55a5b940720aef4cd614,2024-01-23_07h19.34.604,bars,2023.2.3,Win32,11.9760479,657b66ea316d21385b68909f,,,,,,,,,,,3591.776,3592.7449,,,3593.2515,3593.4499,,106,106,,,,,,,,,,,,,,,,bars/023.png,bars/mask007.png,,,,,,,,,,,,0,2,,,,,,,0,0,0,0,,,,,,,,,,,3592.7449,3593.2515,3593.4499,3600.6189,space,7.0761,,3600.6189,86,9,3601.5973,3601.5974,3601.6039,,,,0,38,38,38,1,20,115,,,,,,,,
,,6041499ba066050e18a7934d,65af55a5b940720aef4cd614,2024-01-23_07h19.34.604,bars,2023.2.3,Win32,11.9760479,657b66ea316d21385b68909f,,,,,,,,,,,3601.6041,3602.5848,,,3603.0882,3603.2902,,171,171,,,,,,,,,,,,,,,,bars/008.png,bars/mask004.png,,,,,,,,,,,,2,2,,,,,,,0,2,0,3,,,,,,,,,,,3602.5848,3603.0882,3603.2902,3608.2059,space,4.8228,,3608.206,61,9,3609.188,3609.188,3609.1885,,,,0,39,39,39,1,110,0,,,,,,,,
,,6041499ba066050e18a7934d,65af55a5b940720aef4cd614,2024-01-23_07h19.34.604,bars,2023.2.3,Win32,11.9760479,657b66ea316d21385b68909f,,,,,,,,,,,3609.1886,3610.1717,,,3610.5897,3610.7928,,63,243,,,,,,,,,,,,,,,,bars/042.png,bars/mask009.png,,,,,,,,,,,,1,2,,,,,,,2,0,1,1,,,,,,,,,,,3610.1717,3610.5896,3610.7928,3618.3279,space,7.441,,3618.328,82,12,3619.3177,3619.3177,3619.3182,,,,0,40,40,40,1,145,75,,,,,,,,
,,6041499ba066050e18a7934d,65af55a5b940720aef4cd614,2024-01-23_07h19.34.604,bars,2023.2.3,Win32,11.9760479,657b66ea316d21385b68909f,,,,,,,,,,,3619.3184,3620.302,,,3620.8154,3621.0159,,66,66,,,,,,,,,,,,,,,,bars/034.png,bars/mask007.png,,,,,,,,,,,,3,2,,,,,,,4,2,5,3,,,,,,,,,,,3620.302,3620.8154,3621.0159,3625.0616,space,3.9511,,3625.0616,59,1,3626.046,3626.046,3626.0527,,,,0,41,41,41,1,125,65,,,,,,,,
,,6041499ba066050e18a7934d,65af55a5b940720aef4cd614,2024-01-23_07h19.34.604,bars,2023.2.3,Win32,11.9760479,657b66ea316d21385b68909f,,,,,,,,,,,3626.0529,3627.0445,,,3627.5518,3627.7592,,23,23,,,,,,,,,,,,,,,,bars/040.png,bars/mask005.png,,,,,,,,,,,,2,2,,,,,,,2,4,2,5,,,,,,,,,,,3627.0445,3627.5517,3627.7592,3634.7239,space,6.8731,,3634.7239,63,18,3635.7076,3635.7076,3635.7082,,,,0,42,42,42,1,140,5,,,,,,,,
,,6041499ba066050e18a7934d,65af55a5b940720aef4cd614,2024-01-23_07h19.34.604,bars,2023.2.3,Win32,11.9760479,657b66ea316d21385b68909f,,,,,,,,,,,3635.7084,3636.6936,,,3637.2048,3637.4062,,16,196,,,,,,,,,,,,,,,,bars/014.png,bars/mask006.png,,,,,,,,,,,,1,2,,,,,,,4,2,3,2,,,,,,,,,,,3636.6937,3637.2048,3637.4062,3647.5999,space,10.0989,,3647.5999,64,16,3648.6015,3648.6015,3648.602,,,,0,43,43,43,1,80,0,,,,,,,,
,,6041499ba066050e18a7934d,65af55a5b940720aef4cd614,2024-01-23_07h19.34.604,bars,2023.2.3,Win32,11.9760479,657b66ea316d21385b68909f,,,,,,,,,,,3648.6022,3649.6035,,,3650.1072,3650.3097,,15,15,,,,,,,,,,,,,,,,bars/043.png,bars/mask007.png,,,,,,,,,,,,1,1,,,,,,,2,0,1,0,,,,,,,,,,,3649.6035,3650.1072,3650.3098,3651.3912,space,0.9856,,3651.3912,15,65,3652.3894,3652.3894,3652.3907,,,,0,44,44,44,1,30,130,,,,,,,,
,,6041499ba066050e18a7934d,65af55a5b940720aef4cd614,2024-01-23_07h19.34.604,bars,2023.2.3,Win32,11.9760479,657b66ea316d21385b68909f,,,,,,,,,,,3652.3908,3653.3783,,,3653.8824,3654.0865,,14,194,,,,,,,,,,,,,,,,bars/020.png,bars/mask006.png,,,,,,,,,,,,0,2,,,,,,,0,2,0,2,,,,,,,,,,,3653.3783,3653.8824,3654.0865,3656.6965,space,2.5126,,3656.6965,79,24,3657.6856,3657.6856,3657.6939,,,,0,45,45,45,1,115,170,,,,,,,,
,,6041499ba066050e18a7934d,65af55a5b940720aef4cd614,2024-01-23_07h19.34.604,bars,2023.2.3,Win32,11.9760479,657b66ea316d21385b68909f,,,,,,,,,,,3657.6943,3658.6973,,,3659.2071,3659.4178,,153,-27,,,,,,,,,,,,,,,,bars/011.png,bars/mask009.png,,,,,,,,,,,,2,1,,,,,,,2,0,2,0,,,,,,,,,,,3658.6974,3659.2071,3659.4178,3664.5623,space,5.043,,3664.5624,7,68,3665.5655,3665.5656,3665.5735,,,,0,46,46,46,1,160,85,,,,,,,,
,,6041499ba066050e18a7934d,65af55a5b940720aef4cd614,2024-01-23_07h19.34.604,bars,2023.2.3,Win32,11.9760479,657b66ea316d21385b68909f,,,,,,,,,,,3665.5736,3666.5681,,,3667.0703,3667.2814,,89,89,,,,,,,,,,,,,,,,bars/001.png,bars/mask008.png,,,,,,,,,,,,2,2,,,,,,,4,2,3,2,,,,,,,,,,,3666.5681,3667.0703,3667.2814,3672.9473,space,5.5671,,3672.9473,41,4,3673.9285,3673.9286,3673.9297,,,,0,47,47,47,1,130,85,,,,,,,,
,,6041499ba066050e18a7934d,65af55a5b940720aef4cd614,2024-01-23_07h19.34.604,bars,2023.2.3,Win32,11.9760479,657b66ea316d21385b68909f,,,,,,,,,,,3673.9299,3674.9081,,,3675.4089,3675.6123,,98,98,,,,,,,,,,,,,,,,bars/028.png,bars/mask004.png,,,,,,,,,,,,1,2,,,,,,,6,0,5,2,,,,,,,,,,,3674.9081,3675.4089,3675.6123,3680.2726,space,4.5674,,3680.2726,53,22,3681.2619,3681.2619,3681.2624,,,,0,48,48,48,1,45,120,,,,,,,,
,,6041499ba066050e18a7934d,65af55a5b940720aef4cd614,2024-01-23_07h19.34.604,bars,2023.2.3,Win32,11.9760479,657b66ea316d21385b68909f,,,,,,,,,,,3681.2626,3682.2568,,,3682.7711,3682.9737,,16,196,,,,,,,,,,,,,,,,bars/043.png,bars/mask006.png,,,,,,,,,,,,2,1,,,,,,,4,0,4,1,,,,,,,,,,,3682.2569,3682.7711,3682.9738,3687.098,space,4.0305,,3687.098,14,66,3688.0918,3688.0918,3688.093,,,,0,49,49,49,1,30,130,,,,,,,,
,,6041499ba066050e18a7934d,65af55a5b940720aef4cd614,2024-01-23_07h19.34.604,bars,2023.2.3,Win32,11.9760479,657b66ea316d21385b68909f,,,,,,,,,,,,,,,,,,,,,,,,,,,,,,,,,,,,,,,,,,,,,,,,,,,,,,,,,,,,,,,,,,,,,,,,,,,,,,,,,,,,,,,,,,,,,3688.0932,3768.1123,0,3,3,2,1,sequence_tables/blk040.csv
,,6041499ba066050e18a7934d,65af55a5b940720aef4cd614,2024-01-23_07h19.34.604,bars,2023.2.3,Win32,11.9760479,657b66ea316d21385b68909f,,,,,,,,,,,3769.0952,3770.0549,,,3770.5086,3770.6905,,160,160,,,,,,,,,,,,,,,,bars/028.png,bars/mask003.png,,,,,,,,,,,,0,2,,,,,,,2,7,4,8,,,,,,3768.1125,3769.0917,space,0.8742,,3770.0549,3770.5086,3770.6906,3771.2219,space,0.4449,,3771.2219,65,40,3772.1971,3772.1971,3772.1982,,,,0,0,0,0,1,45,120,,,,,,,,
,,6041499ba066050e18a7934d,65af55a5b940720aef4cd614,2024-01-23_07h19.34.604,bars,2023.2.3,Win32,11.9760479,657b66ea316d21385b68909f,,,,,,,,,,,3772.1984,3773.1641,,,3773.6156,3773.7936,,107,107,,,,,,,,,,,,,,,,bars/044.png,bars/mask000.png,,,,,,,,,,,,0,1,,,,,,,4,5,3,5,,,,,,,,,,,3773.1642,3773.6156,3773.7937,3775.0388,space,1.1608,,3775.0388,32,48,3776.0052,3776.0052,3776.0064,,,,0,1,1,1,1,75,155,,,,,,,,
,,6041499ba066050e18a7934d,65af55a5b940720aef4cd614,2024-01-23_07h19.34.604,bars,2023.2.3,Win32,11.9760479,657b66ea316d21385b68909f,,,,,,,,,,,3776.0066,3776.9752,,,3777.423,3777.6015,,99,99,,,,,,,,,,,,,,,,bars/020.png,bars/mask003.png,,,,,,,,,,,,3,1,,,,,,,6,7,7,8,,,,,,,,,,,3776.9752,3777.423,3777.6015,3778.1385,space,0.4531,,3778.1385,16,71,3779.114,3779.114,3779.1145,,,,0,2,2,2,1,115,170,,,,,,,,
,,6041499ba066050e18a7934d,65af55a5b940720aef4cd614,2024-01-23_07h19.34.604,bars,2023.2.3,Win32,11.9760479,657b66ea316d21385b68909f,,,,,,,,,,,3779.1146,3780.0786,,,3780.5307,3780.7073,,139,139,,,,,,,,,,,,,,,,bars/026.png,bars/mask002.png,,,,,,,,,,,,0,2,,,,,,,8,5,7,5,,,,,,,,,,,3780.0786,3780.5307,3780.7073,3780.9922,space,0.1948,,3780.9923,76,54,3781.9587,3781.9587,3781.9603,,,,0,3,3,3,1,35,85,,,,,,,,
,,6041499ba066050e18a7934d,65af55a5b940720aef4cd614,2024-01-23_07h19.34.604,bars,2023.2.3,Win32,11.9760479,657b66ea316d21385b68909f,,,,,,,,,,,3781.9606,3782.929,,,3783.3828,3783.5673,,16,16,,,,,,,,,,,,,,,,bars/002.png,bars/mask009.png,,,,,,,,,,,,0,1,,,,,,,6,3,6,2,,,,,,,,,,,3782.929,3783.3828,3783.5674,3783.8397,space,0.1868,,3783.8397,66,69,3784.815,3784.8151,3784.8162,,,,0,4,4,4,1,130,85,,,,,,,,
,,6041499ba066050e18a7934d,65af55a5b940720aef4cd614,2024-01-23_07h19.34.604,bars,2023.2.3,Win32,11.9760479,657b66ea316d21385b68909f,,,,,,,,,,,3784.8162,3785.7986,,,3786.2555,3786.4404,,120,120,,,,,,,,,,,,,,,,bars/036.png,bars/mask009.png,,,,,,,,,,,,1,1,,,,,,,4,5,4,6,,,,,,,,,,,3785.7986,3786.2554,3786.4404,3786.5331,space,0.0069,,3786.5331,25,80,3787.5078,3787.5078,3787.5083,,,,0,5,5,5,1,145,20,,,,,,,,
,,6041499ba066050e18a7934d,65af55a5b940720aef4cd614,2024-01-23_07h19.34.604,bars,2023.2.3,Win32,11.9760479,657b66ea316d21385b68909f,,,,,,,,,,,3787.5084,3788.5,,,3788.9528,3789.2201,,170,170,,,,,,,,,,,,,,,,bars/013.png,bars/mask007.png,,,,,,,,,,,,1,2,,,,,,,2,3,3,3,,,,,,,,,,,3788.5,3788.9527,3789.2202,3789.3125,space,0.0053,,3789.3125,85,20,3790.2872,3790.2872,3790.2883,,,,0,6,6,6,1,75,10,,,,,,,,
,,6041499ba066050e18a7934d,65af55a5b940720aef4cd614,2024-01-23_07h19.34.604,bars,2023.2.3,Win32,11.9760479,657b66ea316d21385b68909f,,,,,,,,,,,3790.2885,3791.2839,,,3791.7368,3792.0125,,21,21,,,,,,,,,,,,,,,,bars/014.png,bars/mask002.png,,,,,,,,,,,,1,2,,,,,,,4,1,6,2,,,,,,,,,,,3791.2839,3791.7367,3792.0125,3792.1111,space,0.0068,,3792.1112,59,21,3793.077,3793.077,3793.0773,,,,0,7,7,7,1,80,0,,,,,,,,
,,6041499ba066050e18a7934d,65af55a5b940720aef4cd614,2024-01-23_07h19.34.604,bars,2023.2.3,Win32,11.9760479,657b66ea316d21385b68909f,,,,,,,,,,,3793.0775,3794.0438,,,3794.5063,3794.6978,,94,94,,,,,,,,,,,,,,,,bars/022.png,bars/mask005.png,,,,,,,,,,,,5,1,,,,,,,6,3,5,4,,,,,,,,,,,3794.0438,3794.5063,3794.6979,3794.7916,space,0.006,,3794.7916,1,74,3795.7774,3795.7774,3795.7787,,,,0,8,8,8,1,95,20,,,,,,,,
,,6041499ba066050e18a7934d,65af55a5b940720aef4cd614,2024-01-23_07h19.34.604,bars,2023.2.3,Win32,11.9760479,657b66ea316d21385b68909f,,,,,,,,,,,3795.7789,3796.7643,,,3797.2213,3797.4171,,131,131,,,,,,,,,,,,,,,,bars/047.png,bars/mask007.png,,,,,,,,,,,,0,2,,,,,,,8,5,7,5,,,,,,,,,,,3796.7643,3797.2213,3797.4171,3797.6888,space,0.1861,,3797.6889,64,61,3798.6787,3798.6788,3798.6799,,,,0,9,9,9,1,15,70,,,,,,,,
,,6041499ba066050e18a7934d,65af55a5b940720aef4cd614,2024-01-23_07h19.34.604,bars,2023.2.3,Win32,11.9760479,657b66ea316d21385b68909f,,,,,,,,,,,3798.68,3799.6674,,,3800.1304,3800.3236,,53,53,,,,,,,,,,,,,,,,bars/014.png,bars/mask001.png,,,,,,,,,,,,1,1,,,,,,,10,3,10,4,,,,,,,,,,,3799.6674,3800.1304,3800.3237,3800.5053,space,0.0966,,3800.5053,27,53,3801.4849,3801.4849,3801.4859,,,,0,10,10,10,1,80,0,,,,,,,,
,,6041499ba066050e18a7934d,65af55a5b940720aef4cd614,2024-01-23_07h19.34.604,bars,2023.2.3,Win32,11.9760479,657b66ea316d21385b68909f,,,,,,,,,,,3801.486,3802.466,,,3802.9422,3803.1317,,122,122,,,,,,,,,,,,,,,,bars/021.png,bars/mask006.png,,,,,,,,,,,,0,1,,,,,,,10,1,10,4,,,,,,,,,,,3802.4661,3802.9422,3803.1317,3803.2225,space,0.0065,,3803.2225,33,52,3804.225,3804.225,3804.2257,,,,0,11,11,11,1,155,70,,,,,,,,
