init_variables.started,init_variables.stopped,participant,session,date,expName,psychopyVersion,OS,frameRate,study_id,instruction_exp.started,instruction_exp.stopped,key_resp_8.keys,key_resp_8.rt,key_resp_8.duration,instruction_single.started,instruction_single.stopped,key_resp_2.keys,key_resp_2.rt,key_resp_2.duration,interval.started,interval.stopped,cue_single.started,cue_single.stopped,mask.started,mask.stopped,ori_response_single.started,res_ori,res,ori_response_single.stopped,key_resp_single.keys,key_resp_single.rt,key_resp_single.duration,disp_single.started,disp_single.stopped,key_resp.keys,key_resp.rt,key_resp.duration,single.thisRepN,single.thisTrialN,single.thisN,single.thisIndex,single.ran,ori,path,mask_path,instruction_bandit.started,instruction_bandit.stopped,key_resp_6.keys,key_resp_6.rt,key_resp_6.duration,cue_bandit.started,cue_bandit.stopped,bandit_res.keys,bandit_res.rt,bandit_res.duration,outcome_bandit.started,rew,action,outcome_bandit.stopped,bandit.thisRepN,bandit.thisTrialN,bandit.thisN,bandit.thisIndex,bandit.ran,actual_rew1,actual_rew2,rew1,rew2,instruction_task.started,instruction_task.stopped,key_resp_7.keys,key_resp_7.rt,key_resp_7.duration,wait_ready.started,wait_ready.stopped,key_resp_3.keys,key_resp_3.rt,key_resp_3.duration,cue.started,cue.stopped,ori_response.started,ori_response.stopped,key_resp_5.keys,key_resp_5.rt,key_resp_5.duration,outcome.started,diff1,diff2,outcome.stopped,disp_outcome_practice.started,disp_outcome_practice.stopped,key_resp_4.keys,key_resp_4.rt,key_resp_4.duration,trials.thisRepN,trials.thisTrialN,trials.thisN,trials.thisIndex,trials.ran,ori1,ori2,break_blk.started,break_blk.stopped,block.thisRepN,block.thisTrialN,block.thisN,block.thisIndex,block.ran,condition_file
0.0007,0.0008,65ae8d5afca0129384330a5d,65af5635b73447736efa8aca,2024-01-23_03h07.28.348,bars,2023.2.3,Win32,144.2169022,657b66ea316d21385b68909f,,,,,,,,,,,,,,,,,,,,,,,,,,,,,,,,,,,,,,,,,,,,,,,,,,,,,,,,,,,,,,,,,,,,,,,,,,,,,,,,,,,,,,,,,,,,,,,,,,,,
,,65ae8d5afca0129384330a5d,65af5635b73447736efa8aca,2024-01-23_03h07.28.348,bars,2023.2.3,Win32,144.2169022,657b66ea316d21385b68909f,0.001,4.9531,y,4.9405,,,,,,,,,,,,,,,,,,,,,,,,,,,,,,,,,,,,,,,,,,,,,,,,,,,,,,,,,,,,,,,,,,,,,,,,,,,,,,,,,,,,,,,,,,,,,,,,
,,65ae8d5afca0129384330a5d,65af5635b73447736efa8aca,2024-01-23_03h07.28.348,bars,2023.2.3,Win32,144.2169022,657b66ea316d21385b68909f,,,,,,4.9531,11.3908,space,6.4232,,,,,,,,,,,,,,,,,,,,,,,,,,,,,,,,,,,,,,,,,,,,,,,,,,,,,,,,,,,,,,,,,,,,,,,,,,,,,,,,,,,,,,,,,,,
,,65ae8d5afca0129384330a5d,65af5635b73447736efa8aca,2024-01-23_03h07.28.348,bars,2023.2.3,Win32,144.2169022,657b66ea316d21385b68909f,,,,,,,,,,,11.394,12.3907,12.3908,12.8907,12.8908,13.1407,13.1408,77,77,20.7523,space,7.5934,,20.7523,24.1484,space,3.3877,,0,0,0,0,1,150,bars/single000.png,bars/mask006.png,,,,,,,,,,,,,,,,,,,,,,,,,,,,,,,,,,,,,,,,,,,,,,,,,,,,,,,,,,,,,,,,
,,65ae8d5afca0129384330a5d,65af5635b73447736efa8aca,2024-01-23_03h07.28.348,bars,2023.2.3,Win32,144.2169022,657b66ea316d21385b68909f,,,,,,,,,,,24.1542,25.1549,25.155,25.655,25.655,25.9049,25.905,94,94,30.6136,space,4.7042,,30.6136,33.6345,space,3.0067,,0,1,1,4,1,95,bars/single004.png,bars/mask004.png,,,,,,,,,,,,,,,,,,,,,,,,,,,,,,,,,,,,,,,,,,,,,,,,,,,,,,,,,,,,,,,,
,,65ae8d5afca0129384330a5d,65af5635b73447736efa8aca,2024-01-23_03h07.28.348,bars,2023.2.3,Win32,144.2169022,657b66ea316d21385b68909f,,,,,,,,,,,33.6347,34.6344,34.6345,35.1345,35.1345,35.3845,35.3845,172,-8,38.3013,space,2.9055,,38.3013,40.9056,space,2.5937,,0,2,2,6,1,175,bars/single006.png,bars/mask005.png,,,,,,,,,,,,,,,,,,,,,,,,,,,,,,,,,,,,,,,,,,,,,,,,,,,,,,,,,,,,,,,,
,,65ae8d5afca0129384330a5d,65af5635b73447736efa8aca,2024-01-23_03h07.28.348,bars,2023.2.3,Win32,144.2169022,657b66ea316d21385b68909f,,,,,,,,,,,40.9058,41.9055,41.9055,42.4055,42.4055,42.6555,42.6555,28,208,45.871,space,3.2035,,45.8711,48.3989,space,2.518,,0,3,3,9,1,20,bars/single009.png,bars/mask006.png,,,,,,,,,,,,,,,,,,,,,,,,,,,,,,,,,,,,,,,,,,,,,,,,,,,,,,,,,,,,,,,,
,,65ae8d5afca0129384330a5d,65af5635b73447736efa8aca,2024-01-23_03h07.28.348,bars,2023.2.3,Win32,144.2169022,657b66ea316d21385b68909f,,,,,,,,,,,48.4045,49.4058,49.4058,49.9058,49.9058,50.1558,50.1558,132,132,53.5102,space,3.3442,,53.5102,56.4339,space,2.9139,,0,4,4,2,1,145,bars/single002.png,bars/mask003.png,,,,,,,,,,,,,,,,,,,,,,,,,,,,,,,,,,,,,,,,,,,,,,,,,,,,,,,,,,,,,,,,
,,65ae8d5afca0129384330a5d,65af5635b73447736efa8aca,2024-01-23_03h07.28.348,bars,2023.2.3,Win32,144.2169022,657b66ea316d21385b68909f,,,,,,,,,,,56.4393,57.4408,57.4408,57.9409,57.9409,58.1908,58.1908,10,10,62.948,space,4.7431,,62.9481,65.1912,space,2.2311,,0,5,5,1,1,20,bars/single001.png,bars/mask006.png,,,,,,,,,,,,,,,,,,,,,,,,,,,,,,,,,,,,,,,,,,,,,,,,,,,,,,,,,,,,,,,,
,,65ae8d5afca0129384330a5d,65af5635b73447736efa8aca,2024-01-23_03h07.28.348,bars,2023.2.3,Win32,144.2169022,657b66ea316d21385b68909f,,,,,,,,,,,65.1914,66.1911,66.1911,66.6911,66.6912,66.9411,66.9411,147,-33,69.8098,space,2.8591,,69.8099,71.6844,space,1.8616,,0,6,6,8,1,160,bars/single008.png,bars/mask004.png,,,,,,,,,,,,,,,,,,,,,,,,,,,,,,,,,,,,,,,,,,,,,,,,,,,,,,,,,,,,,,,,
,,65ae8d5afca0129384330a5d,65af5635b73447736efa8aca,2024-01-23_03h07.28.348,bars,2023.2.3,Win32,144.2169022,657b66ea316d21385b68909f,,,,,,,,,,,71.6846,72.6844,72.6844,73.1843,73.1844,73.4345,73.4346,31,31,77.4762,space,4.0277,,77.4762,79.3514,space,1.8619,,0,7,7,7,1,45,bars/single007.png,bars/mask009.png,,,,,,,,,,,,,,,,,,,,,,,,,,,,,,,,,,,,,,,,,,,,,,,,,,,,,,,,,,,,,,,,
,,65ae8d5afca0129384330a5d,65af5635b73447736efa8aca,2024-01-23_03h07.28.348,bars,2023.2.3,Win32,144.2169022,657b66ea316d21385b68909f,,,,,,,,,,,79.3516,80.3513,80.3513,80.8513,80.8514,81.1013,81.1013,24,24,83.6848,space,2.5699,,83.6848,85.2404,space,1.5415,,0,8,8,3,1,20,bars/single003.png,bars/mask005.png,,,,,,,,,,,,,,,,,,,,,,,,,,,,,,,,,,,,,,,,,,,,,,,,,,,,,,,,,,,,,,,,
,,65ae8d5afca0129384330a5d,65af5635b73447736efa8aca,2024-01-23_03h07.28.348,bars,2023.2.3,Win32,144.2169022,657b66ea316d21385b68909f,,,,,,,,,,,85.2406,86.2404,86.2404,86.7404,86.7404,86.9845,86.9845,49,49,91.7894,space,4.7865,,91.7895,92.8173,space,1.0142,,0,9,9,5,1,55,bars/single005.png,bars/mask008.png,,,,,,,,,,,,,,,,,,,,,,,,,,,,,,,,,,,,,,,,,,,,,,,,,,,,,,,,,,,,,,,,
,,65ae8d5afca0129384330a5d,65af5635b73447736efa8aca,2024-01-23_03h07.28.348,bars,2023.2.3,Win32,144.2169022,657b66ea316d21385b68909f,,,,,,,,,,,,,,,,,,,,,,,,,,,,,,,,,,,,,92.8179,100.3662,space,7.5379,,,,,,,,,,,,,,,,,,,,,,,,,,,,,,,,,,,,,,,,,,,,,,,,,,,,,,,,,,,,
,,65ae8d5afca0129384330a5d,65af5635b73447736efa8aca,2024-01-23_03h07.28.348,bars,2023.2.3,Win32,144.2169022,657b66ea316d21385b68909f,,,,,,,,,,,,,,,,,,,,,,,,,,,,,,,,,,,,,,,,,,100.3729,101.6508,left,1.2676,,101.6509,9,1,102.6508,0,0,0,0,1,9,1,9,2,,,,,,,,,,,,,,,,,,,,,,,,,,,,,,,,,,,,,,,,,
,,65ae8d5afca0129384330a5d,65af5635b73447736efa8aca,2024-01-23_03h07.28.348,bars,2023.2.3,Win32,144.2169022,657b66ea316d21385b68909f,,,,,,,,,,,,,,,,,,,,,,,,,,,,,,,,,,,,,,,,,,102.6511,104.8314,left,2.1697,,104.8314,10,1,105.8314,0,1,1,1,1,10,0,10,1,,,,,,,,,,,,,,,,,,,,,,,,,,,,,,,,,,,,,,,,,
,,65ae8d5afca0129384330a5d,65af5635b73447736efa8aca,2024-01-23_03h07.28.348,bars,2023.2.3,Win32,144.2169022,657b66ea316d21385b68909f,,,,,,,,,,,,,,,,,,,,,,,,,,,,,,,,,,,,,,,,,,105.8315,108.1857,right,2.3412,,108.1857,2,2,109.1856,0,2,2,2,1,10,2,10,2,,,,,,,,,,,,,,,,,,,,,,,,,,,,,,,,,,,,,,,,,
,,65ae8d5afca0129384330a5d,65af5635b73447736efa8aca,2024-01-23_03h07.28.348,bars,2023.2.3,Win32,144.2169022,657b66ea316d21385b68909f,,,,,,,,,,,,,,,,,,,,,,,,,,,,,,,,,,,,,,,,,,109.1915,109.7413,left,0.5414,,109.7413,7,1,110.7412,0,3,3,3,1,8,4,7,3,,,,,,,,,,,,,,,,,,,,,,,,,,,,,,,,,,,,,,,,,
,,65ae8d5afca0129384330a5d,65af5635b73447736efa8aca,2024-01-23_03h07.28.348,bars,2023.2.3,Win32,144.2169022,657b66ea316d21385b68909f,,,,,,,,,,,,,,,,,,,,,,,,,,,,,,,,,,,,,,,,,,110.7414,111.5191,left,0.7639,,111.5191,5,1,112.519,0,4,4,4,1,6,2,5,1,,,,,,,,,,,,,,,,,,,,,,,,,,,,,,,,,,,,,,,,,
,,65ae8d5afca0129384330a5d,65af5635b73447736efa8aca,2024-01-23_03h07.28.348,bars,2023.2.3,Win32,144.2169022,657b66ea316d21385b68909f,,,,,,,,,,,,,,,,,,,,,,,,,,,,,,,,,,,,,,,,,,112.5193,112.8456,right,0.3125,,112.8456,4,2,113.8455,0,5,5,5,1,4,4,4,4,,,,,,,,,,,,,,,,,,,,,,,,,,,,,,,,,,,,,,,,,
,,65ae8d5afca0129384330a5d,65af5635b73447736efa8aca,2024-01-23_03h07.28.348,bars,2023.2.3,Win32,144.2169022,657b66ea316d21385b68909f,,,,,,,,,,,,,,,,,,,,,,,,,,,,,,,,,,,,,,,,,,113.8457,114.3387,right,0.479,,114.3387,2,2,115.3386,0,6,6,6,1,2,2,1,2,,,,,,,,,,,,,,,,,,,,,,,,,,,,,,,,,,,,,,,,,
,,65ae8d5afca0129384330a5d,65af5635b73447736efa8aca,2024-01-23_03h07.28.348,bars,2023.2.3,Win32,144.2169022,657b66ea316d21385b68909f,,,,,,,,,,,,,,,,,,,,,,,,,,,,,,,,,,,,,,,,,,115.3388,115.6234,left,0.2719,,115.6234,0,1,116.6234,0,7,7,7,1,0,0,0,1,,,,,,,,,,,,,,,,,,,,,,,,,,,,,,,,,,,,,,,,,
,,65ae8d5afca0129384330a5d,65af5635b73447736efa8aca,2024-01-23_03h07.28.348,bars,2023.2.3,Win32,144.2169022,657b66ea316d21385b68909f,,,,,,,,,,,,,,,,,,,,,,,,,,,,,,,,,,,,,,,,,,116.6236,117.0679,right,0.4331,,117.068,0,2,118.0678,0,8,8,8,1,0,2,1,0,,,,,,,,,,,,,,,,,,,,,,,,,,,,,,,,,,,,,,,,,
,,65ae8d5afca0129384330a5d,65af5635b73447736efa8aca,2024-01-23_03h07.28.348,bars,2023.2.3,Win32,144.2169022,657b66ea316d21385b68909f,,,,,,,,,,,,,,,,,,,,,,,,,,,,,,,,,,,,,,,,,,118.068,118.5124,right,0.4305,,118.5125,3,2,119.5124,0,9,9,9,1,2,4,2,3,,,,,,,,,,,,,,,,,,,,,,,,,,,,,,,,,,,,,,,,,
,,65ae8d5afca0129384330a5d,65af5635b73447736efa8aca,2024-01-23_03h07.28.348,bars,2023.2.3,Win32,144.2169022,657b66ea316d21385b68909f,,,,,,,,,,,,,,,,,,,,,,,,,,,,,,,,,,,,,,,,,,119.5126,119.8041,right,0.2822,,119.8041,3,2,120.8041,0,10,10,10,1,0,2,0,3,,,,,,,,,,,,,,,,,,,,,,,,,,,,,,,,,,,,,,,,,
,,65ae8d5afca0129384330a5d,65af5635b73447736efa8aca,2024-01-23_03h07.28.348,bars,2023.2.3,Win32,144.2169022,657b66ea316d21385b68909f,,,,,,,,,,,,,,,,,,,,,,,,,,,,,,,,,,,,,,,,,,120.8043,121.082,right,0.2684,,121.082,3,2,122.0819,0,11,11,11,1,0,4,0,3,,,,,,,,,,,,,,,,,,,,,,,,,,,,,,,,,,,,,,,,,
,,65ae8d5afca0129384330a5d,65af5635b73447736efa8aca,2024-01-23_03h07.28.348,bars,2023.2.3,Win32,144.2169022,657b66ea316d21385b68909f,,,,,,,,,,,,,,,,,,,,,,,,,,,,,,,,,,,,,,,,,,122.0821,123.5334,right,1.4375,,123.5334,6,2,124.5334,0,12,12,12,1,2,6,1,6,,,,,,,,,,,,,,,,,,,,,,,,,,,,,,,,,,,,,,,,,
,,65ae8d5afca0129384330a5d,65af5635b73447736efa8aca,2024-01-23_03h07.28.348,bars,2023.2.3,Win32,144.2169022,657b66ea316d21385b68909f,,,,,,,,,,,,,,,,,,,,,,,,,,,,,,,,,,,,,,,,,,124.5336,125.0404,right,0.493,,125.0404,3,2,126.0404,0,13,13,13,1,0,4,1,3,,,,,,,,,,,,,,,,,,,,,,,,,,,,,,,,,,,,,,,,,
,,65ae8d5afca0129384330a5d,65af5635b73447736efa8aca,2024-01-23_03h07.28.348,bars,2023.2.3,Win32,144.2169022,657b66ea316d21385b68909f,,,,,,,,,,,,,,,,,,,,,,,,,,,,,,,,,,,,,,,,,,126.0405,126.2697,left,0.2171,,126.2697,2,1,127.2696,0,14,14,14,1,2,6,2,7,,,,,,,,,,,,,,,,,,,,,,,,,,,,,,,,,,,,,,,,,
,,65ae8d5afca0129384330a5d,65af5635b73447736efa8aca,2024-01-23_03h07.28.348,bars,2023.2.3,Win32,144.2169022,657b66ea316d21385b68909f,,,,,,,,,,,,,,,,,,,,,,,,,,,,,,,,,,,,,,,,,,127.2697,127.4503,right,0.1666,,127.4503,9,2,128.4501,0,15,15,15,1,4,8,3,9,,,,,,,,,,,,,,,,,,,,,,,,,,,,,,,,,,,,,,,,,
,,65ae8d5afca0129384330a5d,65af5635b73447736efa8aca,2024-01-23_03h07.28.348,bars,2023.2.3,Win32,144.2169022,657b66ea316d21385b68909f,,,,,,,,,,,,,,,,,,,,,,,,,,,,,,,,,,,,,,,,,,128.4503,128.8905,right,0.4281,,128.8905,7,2,129.8878,0,16,16,16,1,6,6,7,7,,,,,,,,,,,,,,,,,,,,,,,,,,,,,,,,,,,,,,,,,
,,65ae8d5afca0129384330a5d,65af5635b73447736efa8aca,2024-01-23_03h07.28.348,bars,2023.2.3,Win32,144.2169022,657b66ea316d21385b68909f,,,,,,,,,,,,,,,,,,,,,,,,,,,,,,,,,,,,,,,,,,129.8879,130.4573,left,0.5597,,130.4573,9,1,131.4574,0,17,17,17,1,8,4,9,5,,,,,,,,,,,,,,,,,,,,,,,,,,,,,,,,,,,,,,,,,
,,65ae8d5afca0129384330a5d,65af5635b73447736efa8aca,2024-01-23_03h07.28.348,bars,2023.2.3,Win32,144.2169022,657b66ea316d21385b68909f,,,,,,,,,,,,,,,,,,,,,,,,,,,,,,,,,,,,,,,,,,131.4576,131.9365,left,0.4652,,131.9365,5,1,132.9364,0,18,18,18,1,6,2,5,1,,,,,,,,,,,,,,,,,,,,,,,,,,,,,,,,,,,,,,,,,
,,65ae8d5afca0129384330a5d,65af5635b73447736efa8aca,2024-01-23_03h07.28.348,bars,2023.2.3,Win32,144.2169022,657b66ea316d21385b68909f,,,,,,,,,,,,,,,,,,,,,,,,,,,,,,,,,,,,,,,,,,132.9366,133.2074,right,0.2591,,133.2074,0,2,134.2073,0,19,19,19,1,8,0,7,0,,,,,,,,,,,,,,,,,,,,,,,,,,,,,,,,,,,,,,,,,
,,65ae8d5afca0129384330a5d,65af5635b73447736efa8aca,2024-01-23_03h07.28.348,bars,2023.2.3,Win32,144.2169022,657b66ea316d21385b68909f,,,,,,,,,,,,,,,,,,,,,,,,,,,,,,,,,,,,,,,,,,,,,,,,,,,,,,,,,,,,134.2076,148.1271,space,13.9058,,,,,,,,,,,,,,,,,,,,,,,,,,,,,,,,,,,,,
,,65ae8d5afca0129384330a5d,65af5635b73447736efa8aca,2024-01-23_03h07.28.348,bars,2023.2.3,Win32,144.2169022,657b66ea316d21385b68909f,,,,,,,,,,,149.0641,150.0646,,,150.5622,150.8125,,118,118,,,,,,,,,,,,,,,,bars/049.png,bars/mask001.png,,,,,,,,,,,,1,2,,,,,,,4,1,4,1,,,,,,148.135,149.0621,space,0.9216,,150.0647,150.5622,150.8126,154.4653,space,3.639,,154.4653,42,3,155.4651,155.4652,163.167,space,7.691,,0,0,0,0,1,160,115,,,,,,,,
,,65ae8d5afca0129384330a5d,65af5635b73447736efa8aca,2024-01-23_03h07.28.348,bars,2023.2.3,Win32,144.2169022,657b66ea316d21385b68909f,,,,,,,,,,,163.1727,164.1748,,,164.6737,164.9237,,109,109,,,,,,,,,,,,,,,,bars/002.png,bars/mask000.png,,,,,,,,,,,,2,1,,,,,,,6,0,8,0,,,,,,,,,,,164.1749,164.6737,164.9237,167.5696,space,2.6362,,167.5697,21,24,168.5697,168.5697,171.6254,space,3.0434,,0,1,1,1,1,130,85,,,,,,,,
,,65ae8d5afca0129384330a5d,65af5635b73447736efa8aca,2024-01-23_03h07.28.348,bars,2023.2.3,Win32,144.2169022,657b66ea316d21385b68909f,,,,,,,,,,,171.6255,172.6254,,,173.1254,173.3755,,45,45,,,,,,,,,,,,,,,,bars/022.png,bars/mask006.png,,,,,,,,,,,,0,2,,,,,,,4,2,2,2,,,,,,,,,,,172.6254,173.1254,173.3755,174.9935,space,1.6092,,174.9936,50,25,175.9935,175.9935,178.5214,space,2.5137,,0,2,2,2,1,95,20,,,,,,,,
,,65ae8d5afca0129384330a5d,65af5635b73447736efa8aca,2024-01-23_03h07.28.348,bars,2023.2.3,Win32,144.2169022,657b66ea316d21385b68909f,,,,,,,,,,,178.5269,179.5284,,,180.0215,180.2714,,52,52,,,,,,,,,,,,,,,,bars/014.png,bars/mask002.png,,,,,,,,,,,,0,1,,,,,,,2,0,2,0,,,,,,,,,,,179.5284,180.0215,180.2714,184.5841,space,4.2987,,184.5841,28,52,185.5841,185.5841,187.1121,space,1.5153,,0,3,3,3,1,80,0,,,,,,,,
,,65ae8d5afca0129384330a5d,65af5635b73447736efa8aca,2024-01-23_03h07.28.348,bars,2023.2.3,Win32,144.2169022,657b66ea316d21385b68909f,,,,,,,,,,,187.1123,188.1119,,,188.612,188.862,,167,167,,,,,,,,,,,,,,,,bars/018.png,bars/mask007.png,,,,,,,,,,,,2,1,,,,,,,4,0,4,0,,,,,,,,,,,188.112,188.612,188.8621,190.9385,space,2.063,,190.9386,17,77,191.9385,191.9385,193.1192,space,1.1695,,0,4,4,4,1,150,90,,,,,,,,
,,65ae8d5afca0129384330a5d,65af5635b73447736efa8aca,2024-01-23_03h07.28.348,bars,2023.2.3,Win32,144.2169022,657b66ea316d21385b68909f,,,,,,,,,,,193.1194,194.1192,,,194.6192,194.8692,,120,120,,,,,,,,,,,,,,,,bars/000.png,bars/mask008.png,,,,,,,,,,,,0,2,,,,,,,2,2,3,1,,,,,,,,,,,194.1192,194.6192,194.8692,196.379,space,1.5004,,196.379,80,25,197.3762,197.3762,200.5986,space,3.2108,,0,5,5,5,1,40,145,,,,,,,,
,,65ae8d5afca0129384330a5d,65af5635b73447736efa8aca,2024-01-23_03h07.28.348,bars,2023.2.3,Win32,144.2169022,657b66ea316d21385b68909f,,,,,,,,,,,200.6041,201.6054,,,202.1055,202.3487,,94,94,,,,,,,,,,,,,,,,bars/018.png,bars/mask009.png,,,,,,,,,,,,3,2,,,,,,,0,4,1,3,,,,,,,,,,,201.6054,202.1055,202.3487,205.4599,space,3.0939,,205.4599,56,4,206.4598,206.4598,207.8905,space,1.42,,0,6,6,6,1,150,90,,,,,,,,
,,65ae8d5afca0129384330a5d,65af5635b73447736efa8aca,2024-01-23_03h07.28.348,bars,2023.2.3,Win32,144.2169022,657b66ea316d21385b68909f,,,,,,,,,,,207.8907,208.8904,,,209.3905,209.6405,,33,213,,,,,,,,,,,,,,,,bars/035.png,bars/mask002.png,,,,,,,,,,,,1,2,,,,,,,0,6,0,7,,,,,,,,,,,208.8905,209.3905,209.6406,215.0228,space,5.37,,215.0228,38,27,216.0227,216.0227,216.8491,space,0.8164,,0,7,7,7,1,175,60,,,,,,,,
,,65ae8d5afca0129384330a5d,65af5635b73447736efa8aca,2024-01-23_03h07.28.348,bars,2023.2.3,Win32,144.2169022,657b66ea316d21385b68909f,,,,,,,,,,,216.8494,217.8491,,,218.3491,218.5992,,64,64,,,,,,,,,,,,,,,,bars/025.png,bars/mask005.png,,,,,,,,,,,,2,2,,,,,,,2,8,2,8,,,,,,,,,,,217.8491,218.3491,218.5992,221.1201,space,2.509,,221.1202,41,24,222.12,222.1201,223.0299,space,0.8999,,0,8,8,8,1,105,40,,,,,,,,
,,65ae8d5afca0129384330a5d,65af5635b73447736efa8aca,2024-01-23_03h07.28.348,bars,2023.2.3,Win32,144.2169022,657b66ea316d21385b68909f,,,,,,,,,,,223.0302,224.0298,,,224.5299,224.7799,,178,178,,,,,,,,,,,,,,,,bars/045.png,bars/mask007.png,,,,,,,,,,,,4,2,,,,,,,4,6,4,7,,,,,,,,,,,224.0298,224.5299,224.7799,227.4676,space,2.6783,,227.4676,78,12,228.4675,228.4675,229.1621,space,0.6772,,0,9,9,9,1,100,10,,,,,,,,
,,65ae8d5afca0129384330a5d,65af5635b73447736efa8aca,2024-01-23_03h07.28.348,bars,2023.2.3,Win32,144.2169022,657b66ea316d21385b68909f,,,,,,,,,,,229.1623,230.162,,,230.6621,230.9121,,161,161,,,,,,,,,,,,,,,,bars/049.png,bars/mask008.png,,,,,,,,,,,,0,1,,,,,,,2,8,0,8,,,,,,,,,,,230.162,230.662,230.9121,233.9262,space,3.0019,,233.9263,1,46,234.9262,234.9262,237.3222,space,2.3857,,0,10,10,10,1,160,115,,,,,,,,
,,65ae8d5afca0129384330a5d,65af5635b73447736efa8aca,2024-01-23_03h07.28.348,bars,2023.2.3,Win32,144.2169022,657b66ea316d21385b68909f,,,,,,,,,,,237.3227,238.322,,,238.822,239.0721,,46,46,,,,,,,,,,,,,,,,bars/048.png,bars/mask001.png,,,,,,,,,,,,3,1,,,,,,,4,10,4,8,,,,,,,,,,,238.322,238.822,239.0721,242.8848,space,3.7991,,242.8848,4,51,243.8848,243.8848,244.8084,space,0.9102,,0,11,11,11,1,50,175,,,,,,,,
,,65ae8d5afca0129384330a5d,65af5635b73447736efa8aca,2024-01-23_03h07.28.348,bars,2023.2.3,Win32,144.2169022,657b66ea316d21385b68909f,,,,,,,,,,,244.8087,245.8086,,,246.3085,246.5585,,33,33,,,,,,,,,,,,,,,,bars/006.png,bars/mask009.png,,,,,,,,,,,,3,1,,,,,,,2,8,3,10,,,,,,,,,,,245.8086,246.3085,246.5586,250.6698,space,4.0996,,250.6698,2,67,251.6697,251.6697,252.531,space,0.8492,,0,12,12,12,1,35,100,,,,,,,,
,,65ae8d5afca0129384330a5d,65af5635b73447736efa8aca,2024-01-23_03h07.28.348,bars,2023.2.3,Win32,144.2169022,657b66ea316d21385b68909f,,,,,,,,,,,252.5311,253.5309,,,254.0309,254.2809,,141,141,,,,,,,,,,,,,,,,bars/035.png,bars/mask008.png,,,,,,,,,,,,0,1,,,,,,,0,10,0,9,,,,,,,,,,,253.5309,254.0309,254.281,256.42,space,2.1292,,256.42,34,81,257.4199,257.4199,259.2603,space,1.8263,,0,13,13,13,1,175,60,,,,,,,,
,,65ae8d5afca0129384330a5d,65af5635b73447736efa8aca,2024-01-23_03h07.28.348,bars,2023.2.3,Win32,144.2169022,657b66ea316d21385b68909f,,,,,,,,,,,259.2605,260.2478,,,260.7466,260.997,,36,216,,,,,,,,,,,,,,,,bars/033.png,bars/mask003.png,,,,,,,,,,,,1,1,,,,,,,2,10,1,10,,,,,,,,,,,260.2479,260.7465,260.997,265.7328,space,4.7266,,265.7328,11,61,266.7327,266.7328,267.8105,space,1.0627,,0,14,14,14,1,25,155,,,,,,,,
,,65ae8d5afca0129384330a5d,65af5635b73447736efa8aca,2024-01-23_03h07.28.348,bars,2023.2.3,Win32,144.2169022,657b66ea316d21385b68909f,,,,,,,,,,,267.8106,268.8099,,,269.3092,269.5593,,103,103,,,,,,,,,,,,,,,,bars/028.png,bars/mask002.png,,,,,,,,,,,,3,2,,,,,,,0,8,0,6,,,,,,,,,,,268.8099,269.3092,269.5593,273.2469,space,3.6739,,273.2469,58,17,274.2469,274.2469,276.2401,space,1.981,,0,15,15,15,1,45,120,,,,,,,,
,,65ae8d5afca0129384330a5d,65af5635b73447736efa8aca,2024-01-23_03h07.28.348,bars,2023.2.3,Win32,144.2169022,657b66ea316d21385b68909f,,,,,,,,,,,276.2403,277.24,,,277.7401,277.99,,23,23,,,,,,,,,,,,,,,,bars/025.png,bars/mask001.png,,,,,,,,,,,,2,2,,,,,,,0,6,1,5,,,,,,,,,,,277.2401,277.7401,277.9901,279.6985,space,1.696,,279.6985,82,17,280.6985,280.6986,281.5388,space,0.8274,,0,16,16,16,1,105,40,,,,,,,,
,,65ae8d5afca0129384330a5d,65af5635b73447736efa8aca,2024-01-23_03h07.28.348,bars,2023.2.3,Win32,144.2169022,657b66ea316d21385b68909f,,,,,,,,,,,281.539,282.5388,,,283.0389,283.2889,,107,107,,,,,,,,,,,,,,,,bars/039.png,bars/mask005.png,,,,,,,,,,,,7,2,,,,,,,0,8,0,8,,,,,,,,,,,282.5389,283.0389,283.2889,286.2265,space,2.9273,,286.2266,68,2,287.2265,287.2265,288.5113,space,1.2715,,0,17,17,17,1,175,105,,,,,,,,
,,65ae8d5afca0129384330a5d,65af5635b73447736efa8aca,2024-01-23_03h07.28.348,bars,2023.2.3,Win32,144.2169022,657b66ea316d21385b68909f,,,,,,,,,,,288.5116,289.5113,,,290.0114,290.2613,,91,91,,,,,,,,,,,,,,,,bars/026.png,bars/mask007.png,,,,,,,,,,,,8,2,,,,,,,0,10,0,10,,,,,,,,,,,289.5113,290.0113,290.2614,294.0532,space,3.7779,,294.0532,56,6,295.0531,295.0531,295.9143,space,0.8508,,0,18,18,18,1,35,85,,,,,,,,
,,65ae8d5afca0129384330a5d,65af5635b73447736efa8aca,2024-01-23_03h07.28.348,bars,2023.2.3,Win32,144.2169022,657b66ea316d21385b68909f,,,,,,,,,,,295.9145,296.9143,,,297.4144,297.6643,,132,132,,,,,,,,,,,,,,,,bars/033.png,bars/mask007.png,,,,,,,,,,,,2,2,,,,,,,2,8,2,9,,,,,,,,,,,296.9143,297.4144,297.6644,300.5118,space,2.838,,300.5119,73,23,301.5117,301.5117,302.3035,space,0.7785,,0,19,19,19,1,25,155,,,,,,,,
,,65ae8d5afca0129384330a5d,65af5635b73447736efa8aca,2024-01-23_03h07.28.348,bars,2023.2.3,Win32,144.2169022,657b66ea316d21385b68909f,,,,,,,,,,,302.3037,303.3034,,,303.8034,304.0535,,32,32,,,,,,,,,,,,,,,,bars/027.png,bars/mask003.png,,,,,,,,,,,,3,2,,,,,,,4,6,4,7,,,,,,,,,,,303.3034,303.8034,304.0535,305.7133,space,1.6485,,305.7133,78,18,306.7132,306.7133,307.3939,space,0.6706,,0,20,20,20,1,110,50,,,,,,,,
,,65ae8d5afca0129384330a5d,65af5635b73447736efa8aca,2024-01-23_03h07.28.348,bars,2023.2.3,Win32,144.2169022,657b66ea316d21385b68909f,,,,,,,,,,,307.3941,308.3939,,,308.8895,309.1369,,161,-19,,,,,,,,,,,,,,,,bars/020.png,bars/mask007.png,,,,,,,,,,,,5,2,,,,,,,6,8,7,7,,,,,,,,,,,308.394,308.8895,309.1369,314.2622,space,5.1141,,314.2623,46,9,315.2621,315.2622,317.3248,space,2.0488,,0,21,21,21,1,115,170,,,,,,,,
,,65ae8d5afca0129384330a5d,65af5635b73447736efa8aca,2024-01-23_03h07.28.348,bars,2023.2.3,Win32,144.2169022,657b66ea316d21385b68909f,,,,,,,,,,,317.325,318.3248,,,318.8249,319.0748,,148,148,,,,,,,,,,,,,,,,bars/016.png,bars/mask006.png,,,,,,,,,,,,4,2,,,,,,,4,10,5,10,,,,,,,,,,,318.3248,318.8249,319.0748,321.443,space,2.3588,,321.4431,72,17,322.4444,322.4445,323.0196,space,0.5644,,0,22,22,22,1,40,165,,,,,,,,
,,65ae8d5afca0129384330a5d,65af5635b73447736efa8aca,2024-01-23_03h07.28.348,bars,2023.2.3,Win32,144.2169022,657b66ea316d21385b68909f,,,,,,,,,,,323.0198,324.0195,,,324.5195,324.7695,,129,-51,,,,,,,,,,,,,,,,bars/004.png,bars/mask006.png,,,,,,,,,,,,8,2,,,,,,,6,8,7,9,,,,,,,,,,,324.0195,324.5195,324.7695,327.6058,space,2.8269,,327.6058,76,4,328.603,328.603,329.4711,space,0.8559,,0,23,23,23,1,25,125,,,,,,,,
,,65ae8d5afca0129384330a5d,65af5635b73447736efa8aca,2024-01-23_03h07.28.348,bars,2023.2.3,Win32,144.2169022,657b66ea316d21385b68909f,,,,,,,,,,,329.4713,330.4711,,,330.9712,331.2211,,174,174,,,,,,,,,,,,,,,,bars/033.png,bars/mask008.png,,,,,,,,,,,,4,2,,,,,,,8,10,9,10,,,,,,,,,,,330.4712,330.9712,331.2211,335.2838,space,4.0491,,335.2838,31,19,336.2838,336.2838,337.4089,space,1.1112,,0,24,24,24,1,25,155,,,,,,,,
,,65ae8d5afca0129384330a5d,65af5635b73447736efa8aca,2024-01-23_03h07.28.348,bars,2023.2.3,Win32,144.2169022,657b66ea316d21385b68909f,,,,,,,,,,,337.4091,338.4089,,,338.909,339.1589,,62,62,,,,,,,,,,,,,,,,bars/034.png,bars/mask004.png,,,,,,,,,,,,8,2,,,,,,,10,8,10,9,,,,,,,,,,,338.4089,338.9089,339.159,340.4784,space,1.3087,,340.4784,63,3,341.4784,341.4784,345.7772,space,4.2841,,0,25,25,25,1,125,65,,,,,,,,
,,65ae8d5afca0129384330a5d,65af5635b73447736efa8aca,2024-01-23_03h07.28.348,bars,2023.2.3,Win32,144.2169022,657b66ea316d21385b68909f,,,,,,,,,,,345.7829,346.7841,,,347.2842,347.5272,,127,-53,,,,,,,,,,,,,,,,bars/049.png,bars/mask007.png,,,,,,,,,,,,6,2,,,,,,,10,10,10,10,,,,,,,,,,,346.7841,347.2842,347.5272,350.9024,space,3.3653,,350.9024,33,12,351.9023,351.9024,358.7013,space,6.7868,,0,26,26,26,1,160,115,,,,,,,,
,,65ae8d5afca0129384330a5d,65af5635b73447736efa8aca,2024-01-23_03h07.28.348,bars,2023.2.3,Win32,144.2169022,657b66ea316d21385b68909f,,,,,,,,,,,358.7072,359.7082,,,360.2103,360.4582,,45,45,,,,,,,,,,,,,,,,bars/030.png,bars/mask002.png,,,,,,,,,,,,3,2,,,,,,,8,10,7,10,,,,,,,,,,,359.7082,360.2103,360.4582,365.7016,space,5.2399,,365.7016,85,20,366.7015,366.7015,367.5766,space,0.8656,,0,27,27,27,1,140,65,,,,,,,,
,,65ae8d5afca0129384330a5d,65af5635b73447736efa8aca,2024-01-23_03h07.28.348,bars,2023.2.3,Win32,144.2169022,657b66ea316d21385b68909f,,,,,,,,,,,367.5768,368.5765,,,369.0766,369.3266,,30,30,,,,,,,,,,,,,,,,bars/025.png,bars/mask003.png,,,,,,,,,,,,5,2,,,,,,,10,8,10,7,,,,,,,,,,,368.5765,369.0765,369.3266,370.424,space,1.0831,,370.4241,75,10,371.4239,371.4239,371.9865,space,0.5501,,0,28,28,28,1,105,40,,,,,,,,
,,65ae8d5afca0129384330a5d,65af5635b73447736efa8aca,2024-01-23_03h07.28.348,bars,2023.2.3,Win32,144.2169022,657b66ea316d21385b68909f,,,,,,,,,,,371.9867,372.9866,,,373.4866,373.7366,,144,-36,,,,,,,,,,,,,,,,bars/043.png,bars/mask008.png,,,,,,,,,,,,3,2,,,,,,,10,6,10,5,,,,,,,,,,,372.9866,373.4865,373.7366,375.5005,space,1.7584,,375.5005,66,14,376.5005,376.5006,377.8547,space,1.3435,,0,29,29,29,1,30,130,,,,,,,,
,,65ae8d5afca0129384330a5d,65af5635b73447736efa8aca,2024-01-23_03h07.28.348,bars,2023.2.3,Win32,144.2169022,657b66ea316d21385b68909f,,,,,,,,,,,377.8549,378.8547,,,379.3547,379.6047,,31,31,,,,,,,,,,,,,,,,bars/043.png,bars/mask009.png,,,,,,,,,,,,7,1,,,,,,,8,8,7,8,,,,,,,,,,,378.8547,379.3547,379.6047,381.6048,space,1.9894,,381.6048,1,81,382.6048,382.6049,383.6952,space,1.0763,,0,30,30,30,1,30,130,,,,,,,,
,,65ae8d5afca0129384330a5d,65af5635b73447736efa8aca,2024-01-23_03h07.28.348,bars,2023.2.3,Win32,144.2169022,657b66ea316d21385b68909f,,,,,,,,,,,383.6954,384.6952,,,385.1952,385.4453,,132,-48,,,,,,,,,,,,,,,,bars/034.png,bars/mask008.png,,,,,,,,,,,,4,1,,,,,,,6,10,5,10,,,,,,,,,,,384.6952,385.1952,385.4453,390.0151,space,4.5558,,390.0151,7,67,391.0149,391.0149,392.1122,space,1.0561,,0,31,31,31,1,125,65,,,,,,,,
,,65ae8d5afca0129384330a5d,65af5635b73447736efa8aca,2024-01-23_03h07.28.348,bars,2023.2.3,Win32,144.2169022,657b66ea316d21385b68909f,,,,,,,,,,,392.1124,393.1124,,,393.6122,393.8622,,109,109,,,,,,,,,,,,,,,,bars/025.png,bars/mask006.png,,,,,,,,,,,,3,1,,,,,,,4,10,4,10,,,,,,,,,,,393.1124,393.6122,393.8622,396.0568,space,2.1813,,396.0568,4,69,397.0567,397.0567,398.0801,space,1.0136,,0,32,32,32,1,105,40,,,,,,,,
,,65ae8d5afca0129384330a5d,65af5635b73447736efa8aca,2024-01-23_03h07.28.348,bars,2023.2.3,Win32,144.2169022,657b66ea316d21385b68909f,,,,,,,,,,,398.0803,399.0798,,,399.5798,399.8297,,100,100,,,,,,,,,,,,,,,,bars/042.png,bars/mask009.png,,,,,,,,,,,,2,2,,,,,,,6,10,5,10,,,,,,,,,,,399.0798,399.5798,399.8298,402.6218,space,2.7852,,402.6218,45,25,403.6215,403.6215,404.2377,space,0.5991,,0,33,33,33,1,145,75,,,,,,,,
,,65ae8d5afca0129384330a5d,65af5635b73447736efa8aca,2024-01-23_03h07.28.348,bars,2023.2.3,Win32,144.2169022,657b66ea316d21385b68909f,,,,,,,,,,,404.2379,405.236,,,405.7308,405.9809,,142,-38,,,,,,,,,,,,,,,,bars/048.png,bars/mask009.png,,,,,,,,,,,,0,2,,,,,,,4,10,3,10,,,,,,,,,,,405.236,405.7308,405.9809,409.1822,space,3.1874,,409.1822,88,33,410.1822,410.1822,411.3091,space,1.1174,,0,34,34,34,1,50,175,,,,,,,,
,,65ae8d5afca0129384330a5d,65af5635b73447736efa8aca,2024-01-23_03h07.28.348,bars,2023.2.3,Win32,144.2169022,657b66ea316d21385b68909f,,,,,,,,,,,411.3093,412.3074,,,412.8073,413.0573,,35,35,,,,,,,,,,,,,,,,bars/017.png,bars/mask004.png,,,,,,,,,,,,5,2,,,,,,,6,8,6,7,,,,,,,,,,,412.3074,412.8073,413.0573,415.7818,space,2.7225,,415.7818,70,10,416.7803,416.7803,417.4812,space,0.6894,,0,35,35,35,1,145,45,,,,,,,,
,,65ae8d5afca0129384330a5d,65af5635b73447736efa8aca,2024-01-23_03h07.28.348,bars,2023.2.3,Win32,144.2169022,657b66ea316d21385b68909f,,,,,,,,,,,417.4814,418.4762,,,418.9742,419.2242,,110,-70,,,,,,,,,,,,,,,,bars/019.png,bars/mask002.png,,,,,,,,,,,,8,2,,,,,,,8,10,9,10,,,,,,,,,,,418.4762,418.9741,419.2242,422.0089,space,2.7727,,422.009,65,5,423.0091,423.0091,423.6759,space,0.6549,,0,36,36,36,1,45,105,,,,,,,,
,,65ae8d5afca0129384330a5d,65af5635b73447736efa8aca,2024-01-23_03h07.28.348,bars,2023.2.3,Win32,144.2169022,657b66ea316d21385b68909f,,,,,,,,,,,423.676,424.6758,,,425.1715,425.4188,,155,-25,,,,,,,,,,,,,,,,bars/044.png,bars/mask001.png,,,,,,,,,,,,9,2,,,,,,,10,8,10,9,,,,,,,,,,,424.6758,425.1715,425.4188,427.5509,space,2.1179,,427.5509,80,0,428.5509,428.5509,430.4747,space,1.9096,,0,37,37,37,1,75,155,,,,,,,,
,,65ae8d5afca0129384330a5d,65af5635b73447736efa8aca,2024-01-23_03h07.28.348,bars,2023.2.3,Win32,144.2169022,657b66ea316d21385b68909f,,,,,,,,,,,430.4749,431.4746,,,431.9772,432.2248,,8,8,,,,,,,,,,,,,,,,bars/012.png,bars/mask001.png,,,,,,,,,,,,8,2,,,,,,,8,10,7,10,,,,,,,,,,,431.4746,431.9772,432.2248,435.6302,space,3.3962,,435.6302,82,7,436.6277,436.6277,437.297,space,0.66,,0,38,38,38,1,90,15,,,,,,,,
,,65ae8d5afca0129384330a5d,65af5635b73447736efa8aca,2024-01-23_03h07.28.348,bars,2023.2.3,Win32,144.2169022,657b66ea316d21385b68909f,,,,,,,,,,,437.2972,438.2944,,,438.7944,439.0417,,73,73,,,,,,,,,,,,,,,,bars/041.png,bars/mask000.png,,,,,,,,,,,,6,2,,,,,,,6,10,5,10,,,,,,,,,,,438.2944,438.7944,439.0417,440.4361,space,1.3866,,440.4362,53,12,441.4332,441.4332,442.2806,space,0.833,,0,39,39,39,1,20,85,,,,,,,,
,,65ae8d5afca0129384330a5d,65af5635b73447736efa8aca,2024-01-23_03h07.28.348,bars,2023.2.3,Win32,144.2169022,657b66ea316d21385b68909f,,,,,,,,,,,442.2808,443.2806,,,443.7807,444.0307,,14,14,,,,,,,,,,,,,,,,bars/036.png,bars/mask000.png,,,,,,,,,,,,8,2,,,,,,,4,10,2,10,,,,,,,,,,,443.2806,443.7807,444.0307,447.9475,space,3.9069,,447.9475,49,6,448.943,448.943,449.5726,space,0.6172,,0,40,40,40,1,145,20,,,,,,,,
,,65ae8d5afca0129384330a5d,65af5635b73447736efa8aca,2024-01-23_03h07.28.348,bars,2023.2.3,Win32,144.2169022,657b66ea316d21385b68909f,,,,,,,,,,,449.5729,450.5725,,,451.0727,451.3226,,153,-27,,,,,,,,,,,,,,,,bars/016.png,bars/mask006.png,,,,,,,,,,,,6,2,,,,,,,6,10,5,10,,,,,,,,,,,450.5725,451.0727,451.3226,455.4225,space,4.0904,,455.4225,67,12,456.4198,456.4199,457.1769,space,0.7429,,0,41,41,41,1,40,165,,,,,,,,
,,65ae8d5afca0129384330a5d,65af5635b73447736efa8aca,2024-01-23_03h07.28.348,bars,2023.2.3,Win32,144.2169022,657b66ea316d21385b68909f,,,,,,,,,,,457.177,458.1795,,,458.677,458.9269,,167,167,,,,,,,,,,,,,,,,bars/048.png,bars/mask000.png,,,,,,,,,,,,7,2,,,,,,,4,10,4,10,,,,,,,,,,,458.1795,458.677,458.927,460.3091,space,1.3679,,460.3091,63,8,461.309,461.3091,461.8229,space,0.5032,,0,42,42,42,1,50,175,,,,,,,,
,,65ae8d5afca0129384330a5d,65af5635b73447736efa8aca,2024-01-23_03h07.28.348,bars,2023.2.3,Win32,144.2169022,657b66ea316d21385b68909f,,,,,,,,,,,461.8232,462.8231,,,463.323,463.5731,,42,42,,,,,,,,,,,,,,,,bars/035.png,bars/mask000.png,,,,,,,,,,,,4,2,,,,,,,2,10,1,9,,,,,,,,,,,462.8232,463.323,463.5731,467.1447,space,3.5624,,467.1448,47,18,468.1426,468.1427,468.8788,space,0.7219,,0,43,43,43,1,175,60,,,,,,,,
,,65ae8d5afca0129384330a5d,65af5635b73447736efa8aca,2024-01-23_03h07.28.348,bars,2023.2.3,Win32,144.2169022,657b66ea316d21385b68909f,,,,,,,,,,,468.8789,469.8786,,,470.3787,470.6287,,120,120,,,,,,,,,,,,,,,,bars/004.png,bars/mask005.png,,,,,,,,,,,,5,2,,,,,,,0,8,0,6,,,,,,,,,,,469.8787,470.3786,470.6287,473.2191,space,2.58,,473.2192,85,5,474.2192,474.2192,475.011,space,0.7803,,0,44,44,44,1,25,125,,,,,,,,
,,65ae8d5afca0129384330a5d,65af5635b73447736efa8aca,2024-01-23_03h07.28.348,bars,2023.2.3,Win32,144.2169022,657b66ea316d21385b68909f,,,,,,,,,,,475.0111,476.0109,,,476.5108,476.7664,,138,138,,,,,,,,,,,,,,,,bars/032.png,bars/mask005.png,,,,,,,,,,,,1,1,,,,,,,0,10,1,10,,,,,,,,,,,476.0109,476.5108,476.7664,477.6013,space,0.8299,,477.6013,13,62,478.6012,478.6012,480.1665,space,1.5556,,0,45,45,45,1,125,20,,,,,,,,
,,65ae8d5afca0129384330a5d,65af5635b73447736efa8aca,2024-01-23_03h07.28.348,bars,2023.2.3,Win32,144.2169022,657b66ea316d21385b68909f,,,,,,,,,,,480.1667,481.164,,,481.6638,481.9139,,134,134,,,,,,,,,,,,,,,,bars/004.png,bars/mask005.png,,,,,,,,,,,,7,2,,,,,,,2,10,2,10,,,,,,,,,,,481.164,481.6638,481.9139,484.3792,space,2.4627,,484.3792,71,9,485.3749,485.3749,485.841,space,0.4562,,0,46,46,46,1,25,125,,,,,,,,
,,65ae8d5afca0129384330a5d,65af5635b73447736efa8aca,2024-01-23_03h07.28.348,bars,2023.2.3,Win32,144.2169022,657b66ea316d21385b68909f,,,,,,,,,,,485.8412,486.8377,,,487.3378,487.5877,,43,43,,,,,,,,,,,,,,,,bars/027.png,bars/mask002.png,,,,,,,,,,,,8,2,,,,,,,0,10,1,10,,,,,,,,,,,486.8377,487.3377,487.5877,488.6295,space,1.0316,,488.6295,67,7,489.6294,489.6294,490.2781,space,0.6391,,0,47,47,47,1,110,50,,,,,,,,
,,65ae8d5afca0129384330a5d,65af5635b73447736efa8aca,2024-01-23_03h07.28.348,bars,2023.2.3,Win32,144.2169022,657b66ea316d21385b68909f,,,,,,,,,,,490.2783,491.2753,,,491.7709,492.0184,,146,146,,,,,,,,,,,,,,,,bars/044.png,bars/mask003.png,,,,,,,,,,,,7,2,,,,,,,2,10,2,10,,,,,,,,,,,491.2753,491.7709,492.0184,493.8172,space,1.7825,,493.8172,71,9,494.8181,494.8182,495.4283,space,0.5984,,0,48,48,48,1,75,155,,,,,,,,
,,65ae8d5afca0129384330a5d,65af5635b73447736efa8aca,2024-01-23_03h07.28.348,bars,2023.2.3,Win32,144.2169022,657b66ea316d21385b68909f,,,,,,,,,,,495.4286,496.4284,,,496.9248,497.1715,,155,155,,,,,,,,,,,,,,,,bars/045.png,bars/mask008.png,,,,,,,,,,,,0,2,,,,,,,0,10,0,8,,,,,,,,,,,496.4284,496.9247,497.1716,499.416,space,2.234,,499.416,55,35,500.4146,500.4146,501.1268,space,0.7019,,0,49,49,49,1,100,10,,,,,,,,
,,65ae8d5afca0129384330a5d,65af5635b73447736efa8aca,2024-01-23_03h07.28.348,bars,2023.2.3,Win32,144.2169022,657b66ea316d21385b68909f,,,,,,,,,,,,,,,,,,,,,,,,,,,,,,,,,,,,,,,,,,,,,,,,,,,,,,,,,,,,,,,,,,,,,,,,,,,,,,,,,,,,,,,,,,,,,501.1272,561.1273,0,0,0,0,1,sequence_tables/blk031.csv
,,65ae8d5afca0129384330a5d,65af5635b73447736efa8aca,2024-01-23_03h07.28.348,bars,2023.2.3,Win32,144.2169022,657b66ea316d21385b68909f,,,,,,,,,,,565.4173,566.41,,,566.9055,567.1555,,68,68,,,,,,,,,,,,,,,,bars/021.png,bars/mask007.png,,,,,,,,,,,,5,2,,,,,,,2,4,2,5,,,,,,561.1332,565.4094,space,4.2642,,566.41,566.9054,567.1556,571.3502,space,4.1877,,571.3502,87,2,572.3476,572.3476,572.3537,,,,0,0,0,0,1,155,70,,,,,,,,
,,65ae8d5afca0129384330a5d,65af5635b73447736efa8aca,2024-01-23_03h07.28.348,bars,2023.2.3,Win32,144.2169022,657b66ea316d21385b68909f,,,,,,,,,,,572.3538,573.3546,,,573.8545,574.1077,,161,-19,,,,,,,,,,,,,,,,bars/024.png,bars/mask006.png,,,,,,,,,,,,5,2,,,,,,,4,6,4,7,,,,,,,,,,,573.3546,573.8545,574.1077,576.9963,space,2.8822,,576.9963,41,9,577.9937,577.9937,577.9996,,,,0,1,1,1,1,120,170,,,,,,,,
,,65ae8d5afca0129384330a5d,65af5635b73447736efa8aca,2024-01-23_03h07.28.348,bars,2023.2.3,Win32,144.2169022,657b66ea316d21385b68909f,,,,,,,,,,,577.9998,579.0006,,,579.5006,579.7506,,137,137,,,,,,,,,,,,,,,,bars/003.png,bars/mask000.png,,,,,,,,,,,,7,2,,,,,,,6,8,5,8,,,,,,,,,,,579.0007,579.5006,579.7506,581.0979,space,1.3359,,581.0979,68,3,582.1004,582.1004,582.1007,,,,0,2,2,2,1,25,140,,,,,,,,
,,65ae8d5afca0129384330a5d,65af5635b73447736efa8aca,2024-01-23_03h07.28.348,bars,2023.2.3,Win32,144.2169022,657b66ea316d21385b68909f,,,,,,,,,,,582.1008,583.0979,,,583.5979,583.848,,12,12,,,,,,,,,,,,,,,,bars/032.png,bars/mask003.png,,,,,,,,,,,,5,2,,,,,,,4,6,2,7,,,,,,,,,,,583.0979,583.5979,583.848,586.0426,space,2.1803,,586.0426,67,8,587.0426,587.0426,587.0429,,,,0,3,3,3,1,125,20,,,,,,,,
,,65ae8d5afca0129384330a5d,65af5635b73447736efa8aca,2024-01-23_03h07.28.348,bars,2023.2.3,Win32,144.2169022,657b66ea316d21385b68909f,,,,,,,,,,,587.0431,588.0426,,,588.5382,588.7857,,46,46,,,,,,,,,,,,,,,,bars/031.png,bars/mask008.png,,,,,,,,,,,,3,2,,,,,,,6,4,6,4,,,,,,,,,,,588.0426,588.5382,588.7857,591.3621,space,2.5745,,591.3621,74,11,592.3622,592.3622,592.3679,,,,0,4,4,4,1,120,35,,,,,,,,
,,65ae8d5afca0129384330a5d,65af5635b73447736efa8aca,2024-01-23_03h07.28.348,bars,2023.2.3,Win32,144.2169022,657b66ea316d21385b68909f,,,,,,,,,,,592.3681,593.3692,,,593.8692,594.1216,,84,84,,,,,,,,,,,,,,,,bars/009.png,bars/mask003.png,,,,,,,,,,,,1,2,,,,,,,8,2,9,3,,,,,,,,,,,593.3692,593.8692,594.1216,598.1331,space,4.0042,,598.1331,69,21,599.1333,599.1333,599.1388,,,,0,5,5,5,1,15,105,,,,,,,,
,,65ae8d5afca0129384330a5d,65af5635b73447736efa8aca,2024-01-23_03h07.28.348,bars,2023.2.3,Win32,144.2169022,657b66ea316d21385b68909f,,,,,,,,,,,599.139,600.1403,,,600.6402,600.8901,,151,-29,,,,,,,,,,,,,,,,bars/049.png,bars/mask006.png,,,,,,,,,,,,5,1,,,,,,,6,0,7,0,,,,,,,,,,,600.1403,600.6402,600.8901,604.0918,space,3.1923,,604.0918,9,36,605.0918,605.0918,605.0979,,,,0,6,6,6,1,160,115,,,,,,,,
,,65ae8d5afca0129384330a5d,65af5635b73447736efa8aca,2024-01-23_03h07.28.348,bars,2023.2.3,Win32,144.2169022,657b66ea316d21385b68909f,,,,,,,,,,,605.098,606.0988,,,606.5961,606.8418,,5,185,,,,,,,,,,,,,,,,bars/047.png,bars/mask005.png,,,,,,,,,,,,3,1,,,,,,,4,2,4,2,,,,,,,,,,,606.0988,606.596,606.8418,608.3489,space,1.4937,,608.3489,10,65,609.3489,609.3489,609.3544,,,,0,7,7,7,1,15,70,,,,,,,,
,,65ae8d5afca0129384330a5d,65af5635b73447736efa8aca,2024-01-23_03h07.28.348,bars,2023.2.3,Win32,144.2169022,657b66ea316d21385b68909f,,,,,,,,,,,609.3545,610.3559,,,610.856,611.1058,,27,207,,,,,,,,,,,,,,,,bars/016.png,bars/mask003.png,,,,,,,,,,,,1,1,,,,,,,2,4,2,5,,,,,,,,,,,610.3559,610.856,611.1058,614.9811,space,3.8612,,614.9811,13,42,615.9811,615.9811,615.9867,,,,0,8,8,8,1,40,165,,,,,,,,
,,65ae8d5afca0129384330a5d,65af5635b73447736efa8aca,2024-01-23_03h07.28.348,bars,2023.2.3,Win32,144.2169022,657b66ea316d21385b68909f,,,,,,,,,,,615.9869,616.9881,,,617.4843,617.7311,,103,103,,,,,,,,,,,,,,,,bars/019.png,bars/mask005.png,,,,,,,,,,,,2,2,,,,,,,4,2,5,2,,,,,,,,,,,616.9881,617.4843,617.7312,619.7173,space,1.9795,,619.7174,58,2,620.7173,620.7173,620.7188,,,,0,9,9,9,1,45,105,,,,,,,,
,,65ae8d5afca0129384330a5d,65af5635b73447736efa8aca,2024-01-23_03h07.28.348,bars,2023.2.3,Win32,144.2169022,657b66ea316d21385b68909f,,,,,,,,,,,620.7189,621.7174,,,622.2126,622.4625,,23,23,,,,,,,,,,,,,,,,bars/025.png,bars/mask001.png,,,,,,,,,,,,2,2,,,,,,,6,4,9,4,,,,,,,,,,,621.7174,622.2125,622.4625,623.8955,space,1.4261,,623.8955,82,17,624.8932,624.8932,624.8935,,,,0,10,10,10,1,105,40,,,,,,,,
,,65ae8d5afca0129384330a5d,65af5635b73447736efa8aca,2024-01-23_03h07.28.348,bars,2023.2.3,Win32,144.2169022,657b66ea316d21385b68909f,,,,,,,,,,,624.8936,625.8934,,,626.3932,626.6432,,102,282,,,,,,,,,,,,,,,,bars/014.png,bars/mask004.png,,,,,,,,,,,,2,1,,,,,,,8,2,8,0,,,,,,,,,,,625.8934,626.3931,626.6432,630.7061,space,4.0561,,630.7061,22,78,631.7058,631.7058,631.7142,,,,0,11,11,11,1,80,0,,,,,,,,
,,65ae8d5afca0129384330a5d,65af5635b73447736efa8aca,2024-01-23_03h07.28.348,bars,2023.2.3,Win32,144.2169022,657b66ea316d21385b68909f,,,,,,,,,,,631.7143,632.7107,,,633.2064,633.4539,,97,97,,,,,,,,,,,,,,,,bars/031.png,bars/mask003.png,,,,,,,,,,,,2,1,,,,,,,10,4,10,4,,,,,,,,,,,632.7108,633.2064,633.4539,635.8499,space,2.3845,,635.8499,23,62,636.8523,636.8523,636.8579,,,,0,12,12,12,1,120,35,,,,,,,,
,,65ae8d5afca0129384330a5d,65af5635b73447736efa8aca,2024-01-23_03h07.28.348,bars,2023.2.3,Win32,144.2169022,657b66ea316d21385b68909f,,,,,,,,,,,636.858,637.8568,,,638.3569,638.6069,,121,121,,,,,,,,,,,,,,,,bars/001.png,bars/mask002.png,,,,,,,,,,,,6,1,,,,,,,8,2,8,1,,,,,,,,,,,637.8568,638.3569,638.6069,639.6788,space,1.0626,,639.6788,9,36,640.6763,640.6763,640.6767,,,,0,13,13,13,1,130,85,,,,,,,,
,,65ae8d5afca0129384330a5d,65af5635b73447736efa8aca,2024-01-23_03h07.28.348,bars,2023.2.3,Win32,144.2169022,657b66ea316d21385b68909f,,,,,,,,,,,640.6768,641.6719,,,642.1693,642.4195,,139,139,,,,,,,,,,,,,,,,bars/030.png,bars/mask003.png,,,,,,,,,,,,10,1,,,,,,,10,4,10,4,,,,,,,,,,,641.6719,642.1693,642.4195,643.9273,space,1.4986,,643.9274,1,74,644.929,644.929,644.9293,,,,0,14,14,14,1,140,65,,,,,,,,
,,65ae8d5afca0129384330a5d,65af5635b73447736efa8aca,2024-01-23_03h07.28.348,bars,2023.2.3,Win32,144.2169022,657b66ea316d21385b68909f,,,,,,,,,,,644.9294,645.929,,,646.4266,646.6767,,39,39,,,,,,,,,,,,,,,,bars/028.png,bars/mask007.png,,,,,,,,,,,,5,1,,,,,,,8,6,6,5,,,,,,,,,,,645.929,646.4266,646.6767,648.8503,space,2.1609,,648.8504,6,81,649.8459,649.8459,649.8515,,,,0,15,15,15,1,45,120,,,,,,,,
,,65ae8d5afca0129384330a5d,65af5635b73447736efa8aca,2024-01-23_03h07.28.348,bars,2023.2.3,Win32,144.2169022,657b66ea316d21385b68909f,,,,,,,,,,,649.8516,650.8527,,,651.3503,651.6004,,108,108,,,,,,,,,,,,,,,,bars/022.png,bars/mask009.png,,,,,,,,,,,,3,1,,,,,,,6,8,6,6,,,,,,,,,,,650.8527,651.3503,651.6004,653.9338,space,2.3196,,653.9339,13,88,654.9338,654.9338,654.9394,,,,0,16,16,16,1,95,20,,,,,,,,
,,65ae8d5afca0129384330a5d,65af5635b73447736efa8aca,2024-01-23_03h07.28.348,bars,2023.2.3,Win32,144.2169022,657b66ea316d21385b68909f,,,,,,,,,,,654.9396,655.9408,,,656.4408,656.6908,,25,25,,,,,,,,,,,,,,,,bars/016.png,bars/mask002.png,,,,,,,,,,,,2,1,,,,,,,4,6,4,6,,,,,,,,,,,655.9408,656.4408,656.6908,658.6769,space,1.9727,,658.6769,15,40,659.6769,659.6769,659.6825,,,,0,17,17,17,1,40,165,,,,,,,,
,,65ae8d5afca0129384330a5d,65af5635b73447736efa8aca,2024-01-23_03h07.28.348,bars,2023.2.3,Win32,144.2169022,657b66ea316d21385b68909f,,,,,,,,,,,659.6826,660.684,,,661.1839,661.4356,,78,78,,,,,,,,,,,,,,,,bars/002.png,bars/mask000.png,,,,,,,,,,,,4,2,,,,,,,2,4,2,5,,,,,,,,,,,660.684,661.1839,661.4356,664.3162,space,2.8755,,664.3162,52,7,665.3187,665.3187,665.3249,,,,0,18,18,18,1,130,85,,,,,,,,
,,65ae8d5afca0129384330a5d,65af5635b73447736efa8aca,2024-01-23_03h07.28.348,bars,2023.2.3,Win32,144.2169022,657b66ea316d21385b68909f,,,,,,,,,,,665.325,666.3231,,,666.823,667.0731,,87,87,,,,,,,,,,,,,,,,bars/018.png,bars/mask005.png,,,,,,,,,,,,3,2,,,,,,,0,2,0,3,,,,,,,,,,,666.3232,666.823,667.0731,669.0038,space,1.9214,,669.0038,63,3,670.0038,670.0038,670.0101,,,,0,19,19,19,1,150,90,,,,,,,,
,,65ae8d5afca0129384330a5d,65af5635b73447736efa8aca,2024-01-23_03h07.28.348,bars,2023.2.3,Win32,144.2169022,657b66ea316d21385b68909f,,,,,,,,,,,670.0102,671.0107,,,671.5108,671.7607,,159,159,,,,,,,,,,,,,,,,bars/016.png,bars/mask008.png,,,,,,,,,,,,1,2,,,,,,,2,0,0,1,,,,,,,,,,,671.0107,671.5108,671.7608,672.6427,space,0.8791,,672.6427,61,6,673.6429,673.6429,673.6432,,,,0,20,20,20,1,40,165,,,,,,,,
,,65ae8d5afca0129384330a5d,65af5635b73447736efa8aca,2024-01-23_03h07.28.348,bars,2023.2.3,Win32,144.2169022,657b66ea316d21385b68909f,,,,,,,,,,,673.6433,674.6428,,,675.1442,675.3928,,71,251,,,,,,,,,,,,,,,,bars/027.png,bars/mask006.png,,,,,,,,,,,,1,2,,,,,,,4,2,7,2,,,,,,,,,,,674.6428,675.1442,675.3928,678.6876,space,3.2828,,678.6876,39,21,679.6847,679.6847,679.6904,,,,0,21,21,21,1,110,50,,,,,,,,
,,65ae8d5afca0129384330a5d,65af5635b73447736efa8aca,2024-01-23_03h07.28.348,bars,2023.2.3,Win32,144.2169022,657b66ea316d21385b68909f,,,,,,,,,,,679.6905,680.6916,,,681.1916,681.4417,,150,150,,,,,,,,,,,,,,,,bars/046.png,bars/mask008.png,,,,,,,,,,,,1,1,,,,,,,2,0,1,0,,,,,,,,,,,680.6916,681.1916,681.4417,682.3446,space,0.8962,,682.3446,5,65,683.3446,683.3446,683.348,,,,0,22,22,22,1,155,85,,,,,,,,
,,65ae8d5afca0129384330a5d,65af5635b73447736efa8aca,2024-01-23_03h07.28.348,bars,2023.2.3,Win32,144.2169022,657b66ea316d21385b68909f,,,,,,,,,,,683.3482,684.3445,,,684.8447,685.0946,,158,158,,,,,,,,,,,,,,,,bars/036.png,bars/mask006.png,,,,,,,,,,,,0,1,,,,,,,0,0,0,3,,,,,,,,,,,684.3445,684.8447,685.0946,688.3655,space,3.2631,,688.3655,13,42,689.3657,689.3657,689.3711,,,,0,23,23,23,1,145,20,,,,,,,,
,,65ae8d5afca0129384330a5d,65af5635b73447736efa8aca,2024-01-23_03h07.28.348,bars,2023.2.3,Win32,144.2169022,657b66ea316d21385b68909f,,,,,,,,,,,689.3712,690.3727,,,690.8726,691.1226,,98,98,,,,,,,,,,,,,,,,bars/014.png,bars/mask008.png,,,,,,,,,,,,1,1,,,,,,,2,2,2,2,,,,,,,,,,,690.3727,690.8726,691.1226,692.5741,space,1.4453,,692.5741,18,82,693.574,693.5741,693.5797,,,,0,24,24,24,1,80,0,,,,,,,,
,,65ae8d5afca0129384330a5d,65af5635b73447736efa8aca,2024-01-23_03h07.28.348,bars,2023.2.3,Win32,144.2169022,657b66ea316d21385b68909f,,,,,,,,,,,693.58,694.5811,,,695.0811,695.331,,174,174,,,,,,,,,,,,,,,,bars/013.png,bars/mask001.png,,,,,,,,,,,,0,2,,,,,,,4,0,2,0,,,,,,,,,,,694.5811,695.0811,695.331,696.9978,space,1.6607,,696.9978,81,16,697.9979,697.9979,698.0039,,,,0,25,25,25,1,75,10,,,,,,,,
,,65ae8d5afca0129384330a5d,65af5635b73447736efa8aca,2024-01-23_03h07.28.348,bars,2023.2.3,Win32,144.2169022,657b66ea316d21385b68909f,,,,,,,,,,,698.004,699.0049,,,699.5048,699.7549,,69,69,,,,,,,,,,,,,,,,bars/029.png,bars/mask008.png,,,,,,,,,,,,1,1,,,,,,,2,2,2,2,,,,,,,,,,,699.0049,699.5048,699.7549,702.6228,space,2.8658,,702.6228,21,24,703.6229,703.6229,703.6289,,,,0,26,26,26,1,90,45,,,,,,,,
,,65ae8d5afca0129384330a5d,65af5635b73447736efa8aca,2024-01-23_03h07.28.348,bars,2023.2.3,Win32,144.2169022,657b66ea316d21385b68909f,,,,,,,,,,,703.6291,704.63,,,705.1302,705.38,,23,23,,,,,,,,,,,,,,,,bars/025.png,bars/mask003.png,,,,,,,,,,,,3,2,,,,,,,0,4,0,6,,,,,,,,,,,704.63,705.1301,705.38,707.1994,space,1.8127,,707.1995,82,17,708.1995,708.1995,708.2055,,,,0,27,27,27,1,105,40,,,,,,,,
,,65ae8d5afca0129384330a5d,65af5635b73447736efa8aca,2024-01-23_03h07.28.348,bars,2023.2.3,Win32,144.2169022,657b66ea316d21385b68909f,,,,,,,,,,,708.2056,709.2066,,,709.7065,709.9565,,111,111,,,,,,,,,,,,,,,,bars/009.png,bars/mask006.png,,,,,,,,,,,,2,2,,,,,,,2,2,1,3,,,,,,,,,,,709.2066,709.7065,709.9565,711.0399,space,1.079,,711.0399,84,6,712.04,712.0401,712.0404,,,,0,28,28,28,1,15,105,,,,,,,,
,,65ae8d5afca0129384330a5d,65af5635b73447736efa8aca,2024-01-23_03h07.28.348,bars,2023.2.3,Win32,144.2169022,657b66ea316d21385b68909f,,,,,,,,,,,712.0404,713.0419,,,713.542,713.792,,158,-22,,,,,,,,,,,,,,,,bars/007.png,bars/mask001.png,,,,,,,,,,,,0,1,,,,,,,0,0,0,1,,,,,,,,,,,713.0419,713.542,713.792,715.7992,space,2.0003,,715.7992,17,77,716.799,716.7991,716.7999,,,,0,29,29,29,1,175,55,,,,,,,,
,,65ae8d5afca0129384330a5d,65af5635b73447736efa8aca,2024-01-23_03h07.28.348,bars,2023.2.3,Win32,144.2169022,657b66ea316d21385b68909f,,,,,,,,,,,716.7999,717.799,,,718.2991,718.5491,,22,22,,,,,,,,,,,,,,,,bars/033.png,bars/mask002.png,,,,,,,,,,,,3,1,,,,,,,2,2,3,1,,,,,,,,,,,717.799,718.2991,718.5491,720.1749,space,1.6188,,720.1749,3,47,721.1743,721.1743,721.1746,,,,0,30,30,30,1,25,155,,,,,,,,
,,65ae8d5afca0129384330a5d,65af5635b73447736efa8aca,2024-01-23_03h07.28.348,bars,2023.2.3,Win32,144.2169022,657b66ea316d21385b68909f,,,,,,,,,,,721.1747,722.1742,,,722.6743,722.9242,,17,197,,,,,,,,,,,,,,,,bars/000.png,bars/mask004.png,,,,,,,,,,,,0,1,,,,,,,0,0,0,0,,,,,,,,,,,722.1742,722.6743,722.9243,724.9036,space,1.9725,,724.9037,23,52,725.9035,725.9035,725.909,,,,0,31,31,31,1,40,145,,,,,,,,
,,65ae8d5afca0129384330a5d,65af5635b73447736efa8aca,2024-01-23_03h07.28.348,bars,2023.2.3,Win32,144.2169022,657b66ea316d21385b68909f,,,,,,,,,,,725.9092,726.9111,,,727.411,727.6585,,121,121,,,,,,,,,,,,,,,,bars/003.png,bars/mask008.png,,,,,,,,,,,,0,2,,,,,,,0,0,1,0,,,,,,,,,,,726.9111,727.411,727.6586,731.228,space,3.5558,,731.2281,84,19,732.228,732.2281,732.2374,,,,0,32,32,32,1,25,140,,,,,,,,
,,65ae8d5afca0129384330a5d,65af5635b73447736efa8aca,2024-01-23_03h07.28.348,bars,2023.2.3,Win32,144.2169022,657b66ea316d21385b68909f,,,,,,,,,,,732.2375,733.2352,,,733.7351,733.9851,,14,14,,,,,,,,,,,,,,,,bars/012.png,bars/mask005.png,,,,,,,,,,,,2,2,,,,,,,2,0,1,2,,,,,,,,,,,733.2352,733.7351,733.9852,735.5824,space,1.5805,,735.5824,76,1,736.5824,736.5825,736.5828,,,,0,33,33,33,1,90,15,,,,,,,,
,,65ae8d5afca0129384330a5d,65af5635b73447736efa8aca,2024-01-23_03h07.28.348,bars,2023.2.3,Win32,144.2169022,657b66ea316d21385b68909f,,,,,,,,,,,736.583,737.5825,,,738.0825,738.3325,,151,151,,,,,,,,,,,,,,,,bars/044.png,bars/mask007.png,,,,,,,,,,,,0,2,,,,,,,0,0,0,0,,,,,,,,,,,737.5825,738.0825,738.3325,739.6408,space,1.299,,739.6408,76,4,740.6406,740.6406,740.6409,,,,0,34,34,34,1,75,155,,,,,,,,
,,65ae8d5afca0129384330a5d,65af5635b73447736efa8aca,2024-01-23_03h07.28.348,bars,2023.2.3,Win32,144.2169022,657b66ea316d21385b68909f,,,,,,,,,,,740.641,741.6381,,,742.1382,742.3865,,66,66,,,,,,,,,,,,,,,,bars/002.png,bars/mask000.png,,,,,,,,,,,,1,2,,,,,,,2,2,2,2,,,,,,,,,,,741.6381,742.1382,742.3865,745.9854,space,3.5917,,745.9854,64,19,746.9856,746.9856,746.9913,,,,0,35,35,35,1,130,85,,,,,,,,
,,65ae8d5afca0129384330a5d,65af5635b73447736efa8aca,2024-01-23_03h07.28.348,bars,2023.2.3,Win32,144.2169022,657b66ea316d21385b68909f,,,,,,,,,,,746.9915,747.995,,,748.4926,748.745,,137,137,,,,,,,,,,,,,,,,bars/037.png,bars/mask006.png,,,,,,,,,,,,0,1,,,,,,,0,0,0,0,,,,,,,,,,,747.995,748.4926,748.745,750.3607,space,1.6047,,750.3607,13,32,751.3607,751.3608,751.3647,,,,0,36,36,36,1,150,105,,,,,,,,
,,65ae8d5afca0129384330a5d,65af5635b73447736efa8aca,2024-01-23_03h07.28.348,bars,2023.2.3,Win32,144.2169022,657b66ea316d21385b68909f,,,,,,,,,,,751.3648,752.3633,,,752.8607,753.1108,,107,107,,,,,,,,,,,,,,,,bars/032.png,bars/mask007.png,,,,,,,,,,,,0,1,,,,,,,0,0,0,0,,,,,,,,,,,752.3633,752.8607,753.1108,755.5693,space,2.454,,755.5693,18,87,756.5693,756.5693,756.575,,,,0,37,37,37,1,125,20,,,,,,,,
,,65ae8d5afca0129384330a5d,65af5635b73447736efa8aca,2024-01-23_03h07.28.348,bars,2023.2.3,Win32,144.2169022,657b66ea316d21385b68909f,,,,,,,,,,,756.5752,757.5762,,,758.0816,758.3262,,35,35,,,,,,,,,,,,,,,,bars/023.png,bars/mask007.png,,,,,,,,,,,,0,1,,,,,,,0,0,0,0,,,,,,,,,,,757.5762,758.0816,758.3262,762.368,space,4.0325,,762.368,15,80,763.368,763.3681,763.3735,,,,0,38,38,38,1,20,115,,,,,,,,
,,65ae8d5afca0129384330a5d,65af5635b73447736efa8aca,2024-01-23_03h07.28.348,bars,2023.2.3,Win32,144.2169022,657b66ea316d21385b68909f,,,,,,,,,,,763.3736,764.375,,,764.8776,765.125,,110,110,,,,,,,,,,,,,,,,bars/008.png,bars/mask004.png,,,,,,,,,,,,0,1,,,,,,,0,2,0,3,,,,,,,,,,,764.375,764.8776,765.1251,767.6043,space,2.4735,,767.6044,0,70,768.6043,768.6043,768.6103,,,,0,39,39,39,1,110,0,,,,,,,,
,,65ae8d5afca0129384330a5d,65af5635b73447736efa8aca,2024-01-23_03h07.28.348,bars,2023.2.3,Win32,144.2169022,657b66ea316d21385b68909f,,,,,,,,,,,768.6105,769.6114,,,770.1114,770.3614,,118,118,,,,,,,,,,,,,,,,bars/042.png,bars/mask009.png,,,,,,,,,,,,0,1,,,,,,,2,0,1,1,,,,,,,,,,,769.6115,770.1113,770.3614,772.6282,space,2.2576,,772.6283,27,43,773.6254,773.6254,773.6312,,,,0,40,40,40,1,145,75,,,,,,,,
,,65ae8d5afca0129384330a5d,65af5635b73447736efa8aca,2024-01-23_03h07.28.348,bars,2023.2.3,Win32,144.2169022,657b66ea316d21385b68909f,,,,,,,,,,,773.6314,774.6273,,,775.1254,775.3755,,59,59,,,,,,,,,,,,,,,,bars/034.png,bars/mask007.png,,,,,,,,,,,,2,2,,,,,,,4,2,5,3,,,,,,,,,,,774.6273,775.1254,775.3755,777.3573,space,1.9725,,777.3573,66,6,778.3548,778.3548,778.3609,,,,0,41,41,41,1,125,65,,,,,,,,
,,65ae8d5afca0129384330a5d,65af5635b73447736efa8aca,2024-01-23_03h07.28.348,bars,2023.2.3,Win32,144.2169022,657b66ea316d21385b68909f,,,,,,,,,,,778.3611,779.3571,,,779.8548,780.1048,,27,207,,,,,,,,,,,,,,,,bars/040.png,bars/mask005.png,,,,,,,,,,,,1,2,,,,,,,2,4,2,5,,,,,,,,,,,779.3571,779.8548,780.1048,783.4452,space,3.3309,,783.4452,67,22,784.4452,784.4452,784.4508,,,,0,42,42,42,1,140,5,,,,,,,,
,,65ae8d5afca0129384330a5d,65af5635b73447736efa8aca,2024-01-23_03h07.28.348,bars,2023.2.3,Win32,144.2169022,657b66ea316d21385b68909f,,,,,,,,,,,784.4509,785.4522,,,785.9522,786.2022,,154,-26,,,,,,,,,,,,,,,,bars/014.png,bars/mask006.png,,,,,,,,,,,,0,2,,,,,,,4,2,3,2,,,,,,,,,,,785.4522,785.9522,786.2022,788.5939,space,2.3823,,788.5939,74,26,789.5912,789.5912,789.5915,,,,0,43,43,43,1,80,0,,,,,,,,
,,65ae8d5afca0129384330a5d,65af5635b73447736efa8aca,2024-01-23_03h07.28.348,bars,2023.2.3,Win32,144.2169022,657b66ea316d21385b68909f,,,,,,,,,,,789.5916,790.5912,,,791.0914,791.3414,,165,165,,,,,,,,,,,,,,,,bars/043.png,bars/mask007.png,,,,,,,,,,,,0,2,,,,,,,2,0,1,0,,,,,,,,,,,790.5912,791.0913,791.3414,792.5306,space,1.1872,,792.5306,45,35,793.5313,793.5313,793.5317,,,,0,44,44,44,1,30,130,,,,,,,,
,,65ae8d5afca0129384330a5d,65af5635b73447736efa8aca,2024-01-23_03h07.28.348,bars,2023.2.3,Win32,144.2169022,657b66ea316d21385b68909f,,,,,,,,,,,793.5317,794.5289,,,795.0291,795.2789,,160,-20,,,,,,,,,,,,,,,,bars/020.png,bars/mask006.png,,,,,,,,,,,,1,2,,,,,,,0,2,0,2,,,,,,,,,,,794.529,795.0291,795.2789,798.6705,space,3.3822,,798.6705,45,10,799.668,799.668,799.6739,,,,0,45,45,45,1,115,170,,,,,,,,
,,65ae8d5afca0129384330a5d,65af5635b73447736efa8aca,2024-01-23_03h07.28.348,bars,2023.2.3,Win32,144.2169022,657b66ea316d21385b68909f,,,,,,,,,,,799.6741,800.6749,,,801.1749,801.4275,,160,-20,,,,,,,,,,,,,,,,bars/011.png,bars/mask009.png,,,,,,,,,,,,2,1,,,,,,,2,0,2,0,,,,,,,,,,,800.6749,801.1749,801.4275,805.8301,space,4.4008,,805.8301,0,75,806.828,806.828,806.834,,,,0,46,46,46,1,160,85,,,,,,,,
,,65ae8d5afca0129384330a5d,65af5635b73447736efa8aca,2024-01-23_03h07.28.348,bars,2023.2.3,Win32,144.2169022,657b66ea316d21385b68909f,,,,,,,,,,,806.8342,807.835,,,808.3306,808.578,,105,105,,,,,,,,,,,,,,,,bars/001.png,bars/mask008.png,,,,,,,,,,,,1,2,,,,,,,4,2,3,2,,,,,,,,,,,807.835,808.3306,808.578,810.6224,space,2.0349,,810.6224,25,20,811.6199,811.6199,811.6208,,,,0,47,47,47,1,130,85,,,,,,,,
,,65ae8d5afca0129384330a5d,65af5635b73447736efa8aca,2024-01-23_03h07.28.348,bars,2023.2.3,Win32,144.2169022,657b66ea316d21385b68909f,,,,,,,,,,,811.621,812.6222,,,813.1222,813.3698,,69,69,,,,,,,,,,,,,,,,bars/028.png,bars/mask004.png,,,,,,,,,,,,1,1,,,,,,,6,0,5,2,,,,,,,,,,,812.6223,813.1222,813.3698,815.356,space,1.981,,815.3561,24,51,816.356,816.356,816.3653,,,,0,48,48,48,1,45,120,,,,,,,,
,,65ae8d5afca0129384330a5d,65af5635b73447736efa8aca,2024-01-23_03h07.28.348,bars,2023.2.3,Win32,144.2169022,657b66ea316d21385b68909f,,,,,,,,,,,816.3654,817.3631,,,817.8586,818.1062,,159,-21,,,,,,,,,,,,,,,,bars/043.png,bars/mask006.png,,,,,,,,,,,,0,2,,,,,,,4,0,4,1,,,,,,,,,,,817.3631,817.8586,818.1062,821.1227,space,3.0072,,821.1227,51,29,822.12,822.1201,822.1259,,,,0,49,49,49,1,30,130,,,,,,,,
,,65ae8d5afca0129384330a5d,65af5635b73447736efa8aca,2024-01-23_03h07.28.348,bars,2023.2.3,Win32,144.2169022,657b66ea316d21385b68909f,,,,,,,,,,,,,,,,,,,,,,,,,,,,,,,,,,,,,,,,,,,,,,,,,,,,,,,,,,,,,,,,,,,,,,,,,,,,,,,,,,,,,,,,,,,,,822.126,882.1223,0,1,1,4,1,sequence_tables/blk040.csv
,,65ae8d5afca0129384330a5d,65af5635b73447736efa8aca,2024-01-23_03h07.28.348,bars,2023.2.3,Win32,144.2169022,657b66ea316d21385b68909f,,,,,,,,,,,884.9488,885.9486,,,886.4444,886.6919,,105,105,,,,,,,,,,,,,,,,bars/006.png,bars/mask006.png,,,,,,,,,,,,6,2,,,,,,,4,7,3,7,,,,,,882.1285,884.9453,space,2.809,,885.9486,886.4443,886.6919,888.7822,space,2.0807,,888.7822,70,5,889.7822,889.7822,889.7826,,,,0,0,0,0,1,35,100,,,,,,,,
,,65ae8d5afca0129384330a5d,65af5635b73447736efa8aca,2024-01-23_03h07.28.348,bars,2023.2.3,Win32,144.2169022,657b66ea316d21385b68909f,,,,,,,,,,,889.7827,890.7825,,,891.2823,891.5323,,94,94,,,,,,,,,,,,,,,,bars/026.png,bars/mask009.png,,,,,,,,,,,,4,2,,,,,,,6,5,7,5,,,,,,,,,,,890.7825,891.2823,891.5323,894.3102,space,2.7639,,894.3102,59,9,895.3101,895.3101,895.3156,,,,0,1,1,1,1,35,85,,,,,,,,
,,65ae8d5afca0129384330a5d,65af5635b73447736efa8aca,2024-01-23_03h07.28.348,bars,2023.2.3,Win32,144.2169022,657b66ea316d21385b68909f,,,,,,,,,,,895.3157,896.3172,,,896.8125,897.0602,,39,39,,,,,,,,,,,,,,,,bars/025.png,bars/mask000.png,,,,,,,,,,,,4,2,,,,,,,4,3,4,4,,,,,,,,,,,896.3172,896.8124,897.0602,899.5673,space,2.493,,899.5673,66,1,900.5628,900.5629,900.5685,,,,0,2,2,2,1,105,40,,,,,,,,
,,65ae8d5afca0129384330a5d,65af5635b73447736efa8aca,2024-01-23_03h07.28.348,bars,2023.2.3,Win32,144.2169022,657b66ea316d21385b68909f,,,,,,,,,,,900.5685,901.5673,,,902.0674,902.3199,,23,23,,,,,,,,,,,,,,,,bars/022.png,bars/mask001.png,,,,,,,,,,,,5,2,,,,,,,2,5,2,5,,,,,,,,,,,901.5673,902.0674,902.3199,904.0813,space,1.7499,,904.0813,72,3,905.0838,905.0838,905.0893,,,,0,3,3,3,1,95,20,,,,,,,,
,,65ae8d5afca0129384330a5d,65af5635b73447736efa8aca,2024-01-23_03h07.28.348,bars,2023.2.3,Win32,144.2169022,657b66ea316d21385b68909f,,,,,,,,,,,905.0895,906.0882,,,906.5883,906.8382,,38,38,,,,,,,,,,,,,,,,bars/035.png,bars/mask006.png,,,,,,,,,,,,1,2,,,,,,,0,3,1,4,,,,,,,,,,,906.0882,906.5883,906.8383,908.2272,space,1.3748,,908.2272,43,22,909.2272,909.2272,909.2276,,,,0,4,4,4,1,175,60,,,,,,,,
,,65ae8d5afca0129384330a5d,65af5635b73447736efa8aca,2024-01-23_03h07.28.348,bars,2023.2.3,Win32,144.2169022,657b66ea316d21385b68909f,,,,,,,,,,,909.2277,910.2273,,,910.7274,910.9773,,71,71,,,,,,,,,,,,,,,,bars/014.png,bars/mask009.png,,,,,,,,,,,,0,1,,,,,,,0,5,0,2,,,,,,,,,,,910.2273,910.7274,910.9773,913.0984,space,2.1117,,913.0984,9,71,914.0956,914.0956,914.0965,,,,0,5,5,5,1,80,0,,,,,,,,
,,65ae8d5afca0129384330a5d,65af5635b73447736efa8aca,2024-01-23_03h07.28.348,bars,2023.2.3,Win32,144.2169022,657b66ea316d21385b68909f,,,,,,,,,,,914.0966,915.0956,,,915.5957,915.8455,,111,111,,,,,,,,,,,,,,,,bars/037.png,bars/mask002.png,,,,,,,,,,,,5,2,,,,,,,2,7,3,6,,,,,,,,,,,915.0956,915.5956,915.8455,919.4637,space,3.6135,,919.4637,39,6,920.4593,920.4593,920.4657,,,,0,6,6,6,1,150,105,,,,,,,,
,,65ae8d5afca0129384330a5d,65af5635b73447736efa8aca,2024-01-23_03h07.28.348,bars,2023.2.3,Win32,144.2169022,657b66ea316d21385b68909f,,,,,,,,,,,920.4659,921.4638,,,921.9639,922.2139,,45,45,,,,,,,,,,,,,,,,bars/031.png,bars/mask007.png,,,,,,,,,,,,6,2,,,,,,,0,9,0,9,,,,,,,,,,,921.4639,921.9639,922.2139,926.5128,space,4.2861,,926.5128,75,10,927.5082,927.5083,927.5138,,,,0,7,7,7,1,120,35,,,,,,,,
,,65ae8d5afca0129384330a5d,65af5635b73447736efa8aca,2024-01-23_03h07.28.348,bars,2023.2.3,Win32,144.2169022,657b66ea316d21385b68909f,,,,,,,,,,,927.514,928.5126,,,929.0128,929.2628,,80,80,,,,,,,,,,,,,,,,bars/002.png,bars/mask009.png,,,,,,,,,,,,8,2,,,,,,,0,10,0,10,,,,,,,,,,,928.5126,929.0128,929.2628,930.867,space,1.5903,,930.8671,50,5,931.867,931.867,931.8673,,,,0,8,8,8,1,130,85,,,,,,,,
,,65ae8d5afca0129384330a5d,65af5635b73447736efa8aca,2024-01-23_03h07.28.348,bars,2023.2.3,Win32,144.2169022,657b66ea316d21385b68909f,,,,,,,,,,,931.8675,932.8671,,,933.367,933.617,,58,58,,,,,,,,,,,,,,,,bars/017.png,bars/mask007.png,,,,,,,,,,,,6,2,,,,,,,2,10,2,10,,,,,,,,,,,932.8671,933.367,933.617,936.9809,space,3.3545,,936.9809,87,13,937.9782,937.9782,937.984,,,,0,9,9,9,1,145,45,,,,,,,,
,,65ae8d5afca0129384330a5d,65af5635b73447736efa8aca,2024-01-23_03h07.28.348,bars,2023.2.3,Win32,144.2169022,657b66ea316d21385b68909f,,,,,,,,,,,937.9841,938.9853,,,939.4854,939.7353,,9,189,,,,,,,,,,,,,,,,bars/012.png,bars/mask008.png,,,,,,,,,,,,8,2,,,,,,,4,10,4,10,,,,,,,,,,,938.9853,939.4853,939.7353,943.7927,space,4.0482,,943.7927,81,6,944.7912,944.7912,944.7968,,,,0,10,10,10,1,90,15,,,,,,,,
,,65ae8d5afca0129384330a5d,65af5635b73447736efa8aca,2024-01-23_03h07.28.348,bars,2023.2.3,Win32,144.2169022,657b66ea316d21385b68909f,,,,,,,,,,,944.7969,945.7935,,,946.291,946.5411,,78,78,,,,,,,,,,,,,,,,bars/001.png,bars/mask004.png,,,,,,,,,,,,8,2,,,,,,,2,10,0,10,,,,,,,,,,,945.7935,946.291,946.5411,948.0758,space,1.5317,,948.0759,52,7,949.076,949.076,949.0764,,,,0,11,11,11,1,130,85,,,,,,,,
,,65ae8d5afca0129384330a5d,65af5635b73447736efa8aca,2024-01-23_03h07.28.348,bars,2023.2.3,Win32,144.2169022,657b66ea316d21385b68909f,,,,,,,,,,,949.0765,950.0775,,,950.5783,950.8261,,157,-23,,,,,,,,,,,,,,,,bars/004.png,bars/mask003.png,,,,,,,,,,,,0,2,,,,,,,4,10,4,10,,,,,,,,,,,950.0776,950.5783,950.8261,954.09,space,3.261,,954.0901,48,32,955.0899,955.09,955.0955,,,,0,12,12,12,1,25,125,,,,,,,,
,,65ae8d5afca0129384330a5d,65af5635b73447736efa8aca,2024-01-23_03h07.28.348,bars,2023.2.3,Win32,144.2169022,657b66ea316d21385b68909f,,,,,,,,,,,955.0955,956.097,,,956.597,956.847,,114,114,,,,,,,,,,,,,,,,bars/004.png,bars/mask002.png,,,,,,,,,,,,4,2,,,,,,,6,8,5,7,,,,,,,,,,,956.097,956.597,956.847,958.2428,space,1.3817,,958.2429,89,11,959.2384,959.2384,959.2387,,,,0,13,13,13,1,25,125,,,,,,,,
,,65ae8d5afca0129384330a5d,65af5635b73447736efa8aca,2024-01-23_03h07.28.348,bars,2023.2.3,Win32,144.2169022,657b66ea316d21385b68909f,,,,,,,,,,,959.2387,960.2361,,,960.7386,960.9862,,18,198,,,,,,,,,,,,,,,,bars/047.png,bars/mask009.png,,,,,,,,,,,,4,1,,,,,,,4,10,4,10,,,,,,,,,,,960.2361,960.7385,960.9862,963.3404,space,2.3413,,963.3404,3,52,964.3359,964.3359,964.3454,,,,0,14,14,14,1,15,70,,,,,,,,
,,65ae8d5afca0129384330a5d,65af5635b73447736efa8aca,2024-01-23_03h07.28.348,bars,2023.2.3,Win32,144.2169022,657b66ea316d21385b68909f,,,,,,,,,,,964.3455,965.3474,,,965.8474,966.0925,,39,219,,,,,,,,,,,,,,,,bars/005.png,bars/mask003.png,,,,,,,,,,,,0,1,,,,,,,2,10,2,10,,,,,,,,,,,965.3474,965.8473,966.0925,968.4724,space,2.3723,,968.4724,29,79,969.4725,969.4726,969.4783,,,,0,15,15,15,1,10,140,,,,,,,,
,,65ae8d5afca0129384330a5d,65af5635b73447736efa8aca,2024-01-23_03h07.28.348,bars,2023.2.3,Win32,144.2169022,657b66ea316d21385b68909f,,,,,,,,,,,969.4784,970.4773,,,970.9725,971.225,,12,12,,,,,,,,,,,,,,,,bars/041.png,bars/mask008.png,,,,,,,,,,,,4,1,,,,,,,4,10,5,8,,,,,,,,,,,970.4773,970.9725,971.2251,973.5282,space,2.2936,,973.5282,8,73,974.5266,974.5266,974.5324,,,,0,16,16,16,1,20,85,,,,,,,,
,,65ae8d5afca0129384330a5d,65af5635b73447736efa8aca,2024-01-23_03h07.28.348,bars,2023.2.3,Win32,144.2169022,657b66ea316d21385b68909f,,,,,,,,,,,974.5325,975.5281,,,976.0309,976.2782,,6,6,,,,,,,,,,,,,,,,bars/011.png,bars/mask005.png,,,,,,,,,,,,1,1,,,,,,,6,10,9,9,,,,,,,,,,,975.5281,976.0309,976.2782,977.8824,space,1.5974,,977.8825,26,79,978.8825,978.8825,978.8883,,,,0,17,17,17,1,160,85,,,,,,,,
,,65ae8d5afca0129384330a5d,65af5635b73447736efa8aca,2024-01-23_03h07.28.348,bars,2023.2.3,Win32,144.2169022,657b66ea316d21385b68909f,,,,,,,,,,,978.8884,979.8894,,,980.3895,980.6395,,125,125,,,,,,,,,,,,,,,,bars/001.png,bars/mask000.png,,,,,,,,,,,,6,1,,,,,,,8,8,7,9,,,,,,,,,,,979.8895,980.3895,980.6396,983.2647,space,2.6109,,983.2647,5,40,984.2647,984.2647,984.265,,,,0,18,18,18,1,130,85,,,,,,,,
,,65ae8d5afca0129384330a5d,65af5635b73447736efa8aca,2024-01-23_03h07.28.348,bars,2023.2.3,Win32,144.2169022,657b66ea316d21385b68909f,,,,,,,,,,,984.2651,985.2646,,,985.7602,986.0077,,117,117,,,,,,,,,,,,,,,,bars/032.png,bars/mask008.png,,,,,,,,,,,,5,1,,,,,,,6,10,7,9,,,,,,,,,,,985.2646,985.7602,986.0077,988.2605,space,2.2434,,988.2606,8,83,989.258,989.258,989.2643,,,,0,19,19,19,1,125,20,,,,,,,,
,,65ae8d5afca0129384330a5d,65af5635b73447736efa8aca,2024-01-23_03h07.28.348,bars,2023.2.3,Win32,144.2169022,657b66ea316d21385b68909f,,,,,,,,,,,989.2645,990.2648,,,990.7649,991.0149,,137,137,,,,,,,,,,,,,,,,bars/010.png,bars/mask008.png,,,,,,,,,,,,0,1,,,,,,,4,8,4,9,,,,,,,,,,,990.2648,990.7649,991.0149,991.8135,space,0.7892,,991.8135,28,82,992.814,992.814,992.8143,,,,0,20,20,20,1,165,55,,,,,,,,
,,65ae8d5afca0129384330a5d,65af5635b73447736efa8aca,2024-01-23_03h07.28.348,bars,2023.2.3,Win32,144.2169022,657b66ea316d21385b68909f,,,,,,,,,,,992.8144,993.8136,,,994.3136,994.5636,,23,203,,,,,,,,,,,,,,,,bars/047.png,bars/mask000.png,,,,,,,,,,,,2,1,,,,,,,2,10,3,10,,,,,,,,,,,993.8136,994.3136,994.5636,996.4179,space,1.8442,,996.418,8,47,997.4179,997.4179,997.4183,,,,0,21,21,21,1,15,70,,,,,,,,
,,65ae8d5afca0129384330a5d,65af5635b73447736efa8aca,2024-01-23_03h07.28.348,bars,2023.2.3,Win32,144.2169022,657b66ea316d21385b68909f,,,,,,,,,,,997.4185,998.4135,,,998.911,999.156,,62,62,,,,,,,,,,,,,,,,bars/047.png,bars/mask006.png,,,,,,,,,,,,7,2,,,,,,,4,10,4,9,,,,,,,,,,,998.4136,998.911,999.1561,1002.3416,space,3.1755,,1002.3416,47,8,1003.3418,1003.3418,1003.3479,,,,0,22,22,22,1,15,70,,,,,,,,
,,65ae8d5afca0129384330a5d,65af5635b73447736efa8aca,2024-01-23_03h07.28.348,bars,2023.2.3,Win32,144.2169022,657b66ea316d21385b68909f,,,,,,,,,,,1003.3481,1004.3487,,,1004.8487,1005.0987,,89,89,,,,,,,,,,,,,,,,bars/034.png,bars/mask007.png,,,,,,,,,,,,2,2,,,,,,,6,8,5,8,,,,,,,,,,,1004.3488,1004.8487,1005.0987,1007.1822,space,2.0772,,1007.1822,36,24,1008.1821,1008.1821,1008.1825,,,,0,23,23,23,1,125,65,,,,,,,,
,,65ae8d5afca0129384330a5d,65af5635b73447736efa8aca,2024-01-23_03h07.28.348,bars,2023.2.3,Win32,144.2169022,657b66ea316d21385b68909f,,,,,,,,,,,1008.1826,1009.1821,,,1009.6822,1009.9322,,168,168,,,,,,,,,,,,,,,,bars/008.png,bars/mask006.png,,,,,,,,,,,,6,2,,,,,,,4,10,2,10,,,,,,,,,,,1009.1821,1009.6822,1009.9322,1011.9215,space,1.9798,,1011.9215,58,12,1012.9203,1012.9203,1012.9259,,,,0,24,24,24,1,110,0,,,,,,,,
,,65ae8d5afca0129384330a5d,65af5635b73447736efa8aca,2024-01-23_03h07.28.348,bars,2023.2.3,Win32,144.2169022,657b66ea316d21385b68909f,,,,,,,,,,,1012.926,1013.9285,,,1014.4255,1014.6754,,133,133,,,,,,,,,,,,,,,,bars/033.png,bars/mask004.png,,,,,,,,,,,,2,2,,,,,,,2,8,2,9,,,,,,,,,,,1013.9285,1014.4254,1014.6754,1016.6337,space,1.9557,,1016.6338,72,22,1017.6339,1017.6339,1017.6342,,,,0,25,25,25,1,25,155,,,,,,,,
,,65ae8d5afca0129384330a5d,65af5635b73447736efa8aca,2024-01-23_03h07.28.348,bars,2023.2.3,Win32,144.2169022,657b66ea316d21385b68909f,,,,,,,,,,,1017.6343,1018.6293,,,1019.127,1019.377,,61,241,,,,,,,,,,,,,,,,bars/021.png,bars/mask008.png,,,,,,,,,,,,7,2,,,,,,,4,10,4,10,,,,,,,,,,,1018.6293,1019.127,1019.377,1023.5674,space,4.1811,,1023.5674,86,9,1024.5647,1024.5647,1024.5701,,,,0,26,26,26,1,155,70,,,,,,,,
,,65ae8d5afca0129384330a5d,65af5635b73447736efa8aca,2024-01-23_03h07.28.348,bars,2023.2.3,Win32,144.2169022,657b66ea316d21385b68909f,,,,,,,,,,,1024.5703,1025.5716,,,1026.0717,1026.3241,,141,141,,,,,,,,,,,,,,,,bars/043.png,bars/mask008.png,,,,,,,,,,,,4,2,,,,,,,6,8,5,7,,,,,,,,,,,1025.5716,1026.0716,1026.3241,1028.609,space,2.2781,,1028.609,69,11,1029.6065,1029.6065,1029.612,,,,0,27,27,27,1,30,130,,,,,,,,
,,65ae8d5afca0129384330a5d,65af5635b73447736efa8aca,2024-01-23_03h07.28.348,bars,2023.2.3,Win32,144.2169022,657b66ea316d21385b68909f,,,,,,,,,,,1029.6121,1030.6134,,,1031.1097,1031.3591,,28,28,,,,,,,,,,,,,,,,bars/025.png,bars/mask002.png,,,,,,,,,,,,6,2,,,,,,,8,10,7,10,,,,,,,,,,,1030.6135,1031.1097,1031.3591,1034.3567,space,2.989,,1034.3567,77,12,1035.3567,1035.3567,1035.3622,,,,0,28,28,28,1,105,40,,,,,,,,
,,65ae8d5afca0129384330a5d,65af5635b73447736efa8aca,2024-01-23_03h07.28.348,bars,2023.2.3,Win32,144.2169022,657b66ea316d21385b68909f,,,,,,,,,,,1035.3623,1036.3636,,,1036.8637,1037.1137,,107,107,,,,,,,,,,,,,,,,bars/023.png,bars/mask005.png,,,,,,,,,,,,5,2,,,,,,,10,8,10,7,,,,,,,,,,,1036.3636,1036.8637,1037.1137,1040.758,space,3.6323,,1040.758,87,8,1041.7529,1041.7529,1041.7583,,,,0,29,29,29,1,20,115,,,,,,,,
,,65ae8d5afca0129384330a5d,65af5635b73447736efa8aca,2024-01-23_03h07.28.348,bars,2023.2.3,Win32,144.2169022,657b66ea316d21385b68909f,,,,,,,,,,,1041.7584,1042.7596,,,1043.2599,1043.5098,,104,104,,,,,,,,,,,,,,,,bars/041.png,bars/mask002.png,,,,,,,,,,,,3,2,,,,,,,8,6,8,7,,,,,,,,,,,1042.7596,1043.2599,1043.5098,1046.4752,space,2.9546,,1046.4752,84,19,1047.4752,1047.4752,1047.4807,,,,0,30,30,30,1,20,85,,,,,,,,
,,65ae8d5afca0129384330a5d,65af5635b73447736efa8aca,2024-01-23_03h07.28.348,bars,2023.2.3,Win32,144.2169022,657b66ea316d21385b68909f,,,,,,,,,,,1047.4808,1048.4821,,,1048.9822,1049.2322,,53,233,,,,,,,,,,,,,,,,bars/019.png,bars/mask007.png,,,,,,,,,,,,7,1,,,,,,,10,4,10,5,,,,,,,,,,,1048.4821,1048.9822,1049.2322,1052.4152,space,3.181,,1052.4152,8,52,1053.4129,1053.413,1053.4194,,,,0,31,31,31,1,45,105,,,,,,,,
,,65ae8d5afca0129384330a5d,65af5635b73447736efa8aca,2024-01-23_03h07.28.348,bars,2023.2.3,Win32,144.2169022,657b66ea316d21385b68909f,,,,,,,,,,,1053.4196,1054.4197,,,1054.9198,1055.1699,,147,147,,,,,,,,,,,,,,,,bars/009.png,bars/mask003.png,,,,,,,,,,,,0,2,,,,,,,10,2,10,2,,,,,,,,,,,1054.4197,1054.9198,1055.17,1056.9547,space,1.7779,,1056.9548,48,42,1057.9548,1057.9548,1057.9557,,,,0,32,32,32,1,15,105,,,,,,,,
,,65ae8d5afca0129384330a5d,65af5635b73447736efa8aca,2024-01-23_03h07.28.348,bars,2023.2.3,Win32,144.2169022,657b66ea316d21385b68909f,,,,,,,,,,,1057.9559,1058.9573,,,1059.4548,1059.7003,,13,13,,,,,,,,,,,,,,,,bars/005.png,bars/mask004.png,,,,,,,,,,,,9,1,,,,,,,10,4,10,6,,,,,,,,,,,1058.9573,1059.4548,1059.7003,1062.6686,space,2.9613,,1062.6686,3,53,1063.6701,1063.6701,1063.6763,,,,0,33,33,33,1,10,140,,,,,,,,
,,65ae8d5afca0129384330a5d,65af5635b73447736efa8aca,2024-01-23_03h07.28.348,bars,2023.2.3,Win32,144.2169022,657b66ea316d21385b68909f,,,,,,,,,,,1063.6764,1064.6773,,,1065.1792,1065.4272,,154,-26,,,,,,,,,,,,,,,,bars/011.png,bars/mask009.png,,,,,,,,,,,,5,1,,,,,,,8,6,6,7,,,,,,,,,,,1064.6774,1065.1792,1065.4272,1067.5107,space,2.0667,,1067.5107,6,69,1068.5106,1068.5106,1068.5161,,,,0,34,34,34,1,160,85,,,,,,,,
,,65ae8d5afca0129384330a5d,65af5635b73447736efa8aca,2024-01-23_03h07.28.348,bars,2023.2.3,Win32,144.2169022,657b66ea316d21385b68909f,,,,,,,,,,,1068.5163,1069.5111,,,1070.0106,1070.2563,,132,132,,,,,,,,,,,,,,,,bars/021.png,bars/mask001.png,,,,,,,,,,,,2,1,,,,,,,6,8,7,7,,,,,,,,,,,1069.5111,1070.0106,1070.2563,1072.5178,space,2.2549,,1072.5178,23,62,1073.5179,1073.5179,1073.5234,,,,0,35,35,35,1,155,70,,,,,,,,
,,65ae8d5afca0129384330a5d,65af5635b73447736efa8aca,2024-01-23_03h07.28.348,bars,2023.2.3,Win32,144.2169022,657b66ea316d21385b68909f,,,,,,,,,,,1073.5235,1074.5248,,,1075.0248,1075.2747,,42,42,,,,,,,,,,,,,,,,bars/004.png,bars/mask006.png,,,,,,,,,,,,4,1,,,,,,,8,10,9,10,,,,,,,,,,,1074.5248,1075.0248,1075.2748,1078.0874,space,2.8007,,1078.0874,17,83,1079.0874,1079.0874,1079.093,,,,0,36,36,36,1,25,125,,,,,,,,
,,65ae8d5afca0129384330a5d,65af5635b73447736efa8aca,2024-01-23_03h07.28.348,bars,2023.2.3,Win32,144.2169022,657b66ea316d21385b68909f,,,,,,,,,,,1079.0931,1080.0944,,,1080.5945,1080.8445,,121,121,,,,,,,,,,,,,,,,bars/002.png,bars/mask001.png,,,,,,,,,,,,7,1,,,,,,,10,8,10,8,,,,,,,,,,,1080.0944,1080.5945,1080.8445,1081.8931,space,1.0428,,1081.8931,9,36,1082.8955,1082.8955,1082.8959,,,,0,37,37,37,1,130,85,,,,,,,,
,,65ae8d5afca0129384330a5d,65af5635b73447736efa8aca,2024-01-23_03h07.28.348,bars,2023.2.3,Win32,144.2169022,657b66ea316d21385b68909f,,,,,,,,,,,1082.896,1083.8931,,,1084.3931,1084.6431,,16,16,,,,,,,,,,,,,,,,bars/005.png,bars/mask003.png,,,,,,,,,,,,7,1,,,,,,,8,10,9,10,,,,,,,,,,,1083.8932,1084.3931,1084.6431,1085.9905,space,1.3358,,1085.9906,6,56,1086.9929,1086.9929,1086.9983,,,,0,38,38,38,1,10,140,,,,,,,,
,,65ae8d5afca0129384330a5d,65af5635b73447736efa8aca,2024-01-23_03h07.28.348,bars,2023.2.3,Win32,144.2169022,657b66ea316d21385b68909f,,,,,,,,,,,1086.9985,1087.9974,,,1088.4929,1088.743,,149,149,,,,,,,,,,,,,,,,bars/018.png,bars/mask007.png,,,,,,,,,,,,5,1,,,,,,,6,8,5,9,,,,,,,,,,,1087.9974,1088.4929,1088.743,1090.2362,space,1.4864,,1090.2362,1,59,1091.2336,1091.2337,1091.2339,,,,0,39,39,39,1,150,90,,,,,,,,
,,65ae8d5afca0129384330a5d,65af5635b73447736efa8aca,2024-01-23_03h07.28.348,bars,2023.2.3,Win32,144.2169022,657b66ea316d21385b68909f,,,,,,,,,,,1091.234,1092.2336,,,1092.7292,1092.9769,,135,135,,,,,,,,,,,,,,,,bars/040.png,bars/mask000.png,,,,,,,,,,,,3,1,,,,,,,4,6,4,6,,,,,,,,,,,1092.2336,1092.7292,1092.9769,1094.5741,space,1.5836,,1094.5742,5,50,1095.5741,1095.5741,1095.5744,,,,0,40,40,40,1,140,5,,,,,,,,
,,65ae8d5afca0129384330a5d,65af5635b73447736efa8aca,2024-01-23_03h07.28.348,bars,2023.2.3,Win32,144.2169022,657b66ea316d21385b68909f,,,,,,,,,,,1095.5746,1096.5767,,,1097.0742,1097.3241,,68,68,,,,,,,,,,,,,,,,bars/026.png,bars/mask005.png,,,,,,,,,,,,3,2,,,,,,,2,8,2,8,,,,,,,,,,,1096.5767,1097.0742,1097.3241,1099.7981,space,2.4648,,1099.7981,33,17,1100.7967,1100.7967,1100.8069,,,,0,41,41,41,1,35,85,,,,,,,,
,,65ae8d5afca0129384330a5d,65af5635b73447736efa8aca,2024-01-23_03h07.28.348,bars,2023.2.3,Win32,144.2169022,657b66ea316d21385b68909f,,,,,,,,,,,1100.807,1101.8035,,,1102.3033,1102.5534,,170,-10,,,,,,,,,,,,,,,,bars/045.png,bars/mask002.png,,,,,,,,,,,,3,2,,,,,,,4,10,2,10,,,,,,,,,,,1101.8035,1102.3033,1102.5534,1106.597,space,4.0342,,1106.597,70,20,1107.5952,1107.5953,1107.6007,,,,0,42,42,42,1,100,10,,,,,,,,
,,65ae8d5afca0129384330a5d,65af5635b73447736efa8aca,2024-01-23_03h07.28.348,bars,2023.2.3,Win32,144.2169022,657b66ea316d21385b68909f,,,,,,,,,,,1107.6008,1108.5964,,,1109.0953,1109.3454,,43,43,,,,,,,,,,,,,,,,bars/025.png,bars/mask006.png,,,,,,,,,,,,7,2,,,,,,,6,8,6,8,,,,,,,,,,,1108.5964,1109.0953,1109.3454,1110.7022,space,1.3551,,1110.7023,62,3,1111.7037,1111.7038,1111.7041,,,,0,43,43,43,1,105,40,,,,,,,,
,,65ae8d5afca0129384330a5d,65af5635b73447736efa8aca,2024-01-23_03h07.28.348,bars,2023.2.3,Win32,144.2169022,657b66ea316d21385b68909f,,,,,,,,,,,1111.7042,1112.7017,,,1113.2017,1113.4517,,77,77,,,,,,,,,,,,,,,,bars/002.png,bars/mask002.png,,,,,,,,,,,,7,2,,,,,,,4,10,5,10,,,,,,,,,,,1112.7017,1113.2016,1113.4517,1114.1831,space,0.7245,,1114.1832,53,8,1115.1809,1115.1809,1115.1813,,,,0,44,44,44,1,130,85,,,,,,,,
,,65ae8d5afca0129384330a5d,65af5635b73447736efa8aca,2024-01-23_03h07.28.348,bars,2023.2.3,Win32,144.2169022,657b66ea316d21385b68909f,,,,,,,,,,,1115.1814,1116.183,,,1116.681,1116.931,,22,22,,,,,,,,,,,,,,,,bars/031.png,bars/mask008.png,,,,,,,,,,,,5,2,,,,,,,2,8,2,8,,,,,,,,,,,1116.183,1116.681,1116.9311,1118.2646,space,1.3268,,1118.2646,82,13,1119.2638,1119.2638,1119.2642,,,,0,45,45,45,1,120,35,,,,,,,,
,,65ae8d5afca0129384330a5d,65af5635b73447736efa8aca,2024-01-23_03h07.28.348,bars,2023.2.3,Win32,144.2169022,657b66ea316d21385b68909f,,,,,,,,,,,1119.2642,1120.2624,,,1120.7625,1121.0125,,164,-16,,,,,,,,,,,,,,,,bars/040.png,bars/mask002.png,,,,,,,,,,,,3,2,,,,,,,0,10,0,10,,,,,,,,,,,1120.2624,1120.7625,1121.0125,1124.1723,space,3.1432,,1124.1724,24,21,1125.1748,1125.1748,1125.1803,,,,0,46,46,46,1,140,5,,,,,,,,
,,65ae8d5afca0129384330a5d,65af5635b73447736efa8aca,2024-01-23_03h07.28.348,bars,2023.2.3,Win32,144.2169022,657b66ea316d21385b68909f,,,,,,,,,,,1125.1805,1126.1794,,,1126.6793,1126.9248,,53,53,,,,,,,,,,,,,,,,bars/031.png,bars/mask008.png,,,,,,,,,,,,3,2,,,,,,,0,8,0,7,,,,,,,,,,,1126.1794,1126.6792,1126.9249,1128.7792,space,1.8527,,1128.7793,67,18,1129.7766,1129.7766,1129.777,,,,0,47,47,47,1,120,35,,,,,,,,
,,65ae8d5afca0129384330a5d,65af5635b73447736efa8aca,2024-01-23_03h07.28.348,bars,2023.2.3,Win32,144.2169022,657b66ea316d21385b68909f,,,,,,,,,,,1129.7771,1130.7767,,,1131.2722,1131.5198,,127,127,,,,,,,,,,,,,,,,bars/031.png,bars/mask008.png,,,,,,,,,,,,0,1,,,,,,,0,10,0,10,,,,,,,,,,,1130.7767,1131.2722,1131.5198,1133.7559,space,2.2269,,1133.756,7,88,1134.7561,1134.7561,1134.7621,,,,0,48,48,48,1,120,35,,,,,,,,
,,65ae8d5afca0129384330a5d,65af5635b73447736efa8aca,2024-01-23_03h07.28.348,bars,2023.2.3,Win32,144.2169022,657b66ea316d21385b68909f,,,,,,,,,,,1134.7622,1135.763,,,1136.2629,1136.5131,,21,21,,,,,,,,,,,,,,,,bars/004.png,bars/mask006.png,,,,,,,,,,,,2,1,,,,,,,2,8,2,10,,,,,,,,,,,1135.763,1136.2629,1136.5131,1139.2006,space,2.673,,1139.2006,4,76,1140.2006,1140.2006,1140.2062,,,,0,49,49,49,1,25,125,,,,,,,,
,,65ae8d5afca0129384330a5d,65af5635b73447736efa8aca,2024-01-23_03h07.28.348,bars,2023.2.3,Win32,144.2169022,657b66ea316d21385b68909f,,,,,,,,,,,,,,,,,,,,,,,,,,,,,,,,,,,,,,,,,,,,,,,,,,,,,,,,,,,,,,,,,,,,,,,,,,,,,,,,,,,,,,,,,,,,,1140.2064,1200.2027,0,2,2,1,1,sequence_tables/blk037.csv
,,65ae8d5afca0129384330a5d,65af5635b73447736efa8aca,2024-01-23_03h07.28.348,bars,2023.2.3,Win32,144.2169022,657b66ea316d21385b68909f,,,,,,,,,,,1207.7203,1208.7169,,,1209.217,1209.4669,,62,62,,,,,,,,,,,,,,,,bars/001.png,bars/mask001.png,,,,,,,,,,,,2,2,,,,,,,1,9,1,9,,,,,,1200.2089,1207.7126,space,7.5001,,1208.7169,1209.217,1209.4669,1211.0572,space,1.5783,,1211.0572,68,23,1212.0572,1212.0572,1212.0626,,,,0,0,0,0,1,130,85,,,,,,,,
,,65ae8d5afca0129384330a5d,65af5635b73447736efa8aca,2024-01-23_03h07.28.348,bars,2023.2.3,Win32,144.2169022,657b66ea316d21385b68909f,,,,,,,,,,,1212.0627,1213.0665,,,1213.5643,1213.8142,,35,35,,,,,,,,,,,,,,,,bars/004.png,bars/mask006.png,,,,,,,,,,,,1,1,,,,,,,0,10,1,10,,,,,,,,,,,1213.0665,1213.5642,1213.8142,1215.6781,space,1.8619,,1215.6782,10,90,1216.6755,1216.6755,1216.6818,,,,0,1,1,1,1,25,125,,,,,,,,
,,65ae8d5afca0129384330a5d,65af5635b73447736efa8aca,2024-01-23_03h07.28.348,bars,2023.2.3,Win32,144.2169022,657b66ea316d21385b68909f,,,,,,,,,,,1216.6819,1217.6825,,,1218.1826,1218.4325,,120,120,,,,,,,,,,,,,,,,bars/030.png,bars/mask002.png,,,,,,,,,,,,0,1,,,,,,,0,8,0,8,,,,,,,,,,,1217.6825,1218.1826,1218.4326,1219.8145,space,1.3702,,1219.8145,20,55,1220.8145,1220.8145,1220.8201,,,,0,2,2,2,1,140,65,,,,,,,,
,,65ae8d5afca0129384330a5d,65af5635b73447736efa8aca,2024-01-23_03h07.28.348,bars,2023.2.3,Win32,144.2169022,657b66ea316d21385b68909f,,,,,,,,,,,1220.8201,1221.8214,,,1222.3215,1222.5716,,63,63,,,,,,,,,,,,,,,,bars/011.png,bars/mask006.png,,,,,,,,,,,,2,2,,,,,,,2,10,1,9,,,,,,,,,,,1221.8215,1222.3215,1222.5716,1224.2175,space,1.6331,,1224.2175,83,22,1225.2175,1225.2175,1225.2183,,,,0,3,3,3,1,160,85,,,,,,,,
,,65ae8d5afca0129384330a5d,65af5635b73447736efa8aca,2024-01-23_03h07.28.348,bars,2023.2.3,Win32,144.2169022,657b66ea316d21385b68909f,,,,,,,,,,,1225.2184,1226.2199,,,1226.7176,1226.9631,,146,146,,,,,,,,,,,,,,,,bars/044.png,bars/mask007.png,,,,,,,,,,,,7,2,,,,,,,0,10,0,10,,,,,,,,,,,1226.2199,1226.7176,1226.9631,1228.3427,space,1.3679,,1228.3427,71,9,1229.3426,1229.3426,1229.343,,,,0,4,4,4,1,75,155,,,,,,,,
,,65ae8d5afca0129384330a5d,65af5635b73447736efa8aca,2024-01-23_03h07.28.348,bars,2023.2.3,Win32,144.2169022,657b66ea316d21385b68909f,,,,,,,,,,,1229.3431,1230.3425,,,1230.8426,1231.0882,,105,105,,,,,,,,,,,,,,,,bars/041.png,bars/mask007.png,,,,,,,,,,,,3,2,,,,,,,0,10,1,9,,,,,,,,,,,1230.3425,1230.8426,1231.0882,1235.0234,space,3.9247,,1235.0234,85,20,1236.0233,1236.0233,1236.0288,,,,0,5,5,5,1,20,85,,,,,,,,
,,65ae8d5afca0129384330a5d,65af5635b73447736efa8aca,2024-01-23_03h07.28.348,bars,2023.2.3,Win32,144.2169022,657b66ea316d21385b68909f,,,,,,,,,,,1236.029,1237.0304,,,1237.5303,1237.7805,,150,150,,,,,,,,,,,,,,,,bars/015.png,bars/mask009.png,,,,,,,,,,,,6,2,,,,,,,2,10,2,9,,,,,,,,,,,1237.0304,1237.5303,1237.7805,1241.5792,space,3.7956,,1241.5792,40,10,1242.5791,1242.5791,1242.5845,,,,0,6,6,6,1,110,160,,,,,,,,
,,65ae8d5afca0129384330a5d,65af5635b73447736efa8aca,2024-01-23_03h07.28.348,bars,2023.2.3,Win32,144.2169022,657b66ea316d21385b68909f,,,,,,,,,,,1242.5847,1243.5861,,,1244.0862,1244.3362,,155,155,,,,,,,,,,,,,,,,bars/015.png,bars/mask004.png,,,,,,,,,,,,7,2,,,,,,,0,8,0,8,,,,,,,,,,,1243.5861,1244.0862,1244.3363,1247.7738,space,3.4239,,1247.7739,45,5,1248.7739,1248.7739,1248.7796,,,,0,7,7,7,1,110,160,,,,,,,,
,,65ae8d5afca0129384330a5d,65af5635b73447736efa8aca,2024-01-23_03h07.28.348,bars,2023.2.3,Win32,144.2169022,657b66ea316d21385b68909f,,,,,,,,,,,1248.7797,1249.7809,,,1250.281,1250.5309,,33,33,,,,,,,,,,,,,,,,bars/031.png,bars/mask006.png,,,,,,,,,,,,8,2,,,,,,,0,10,0,9,,,,,,,,,,,1249.7809,1250.281,1250.5309,1254.8921,space,4.3546,,1254.8921,87,2,1255.8922,1255.8922,1255.8979,,,,0,8,8,8,1,120,35,,,,,,,,
,,65ae8d5afca0129384330a5d,65af5635b73447736efa8aca,2024-01-23_03h07.28.348,bars,2023.2.3,Win32,144.2169022,657b66ea316d21385b68909f,,,,,,,,,,,1255.898,1256.8991,,,1257.3992,1257.6492,,112,112,,,,,,,,,,,,,,,,bars/037.png,bars/mask008.png,,,,,,,,,,,,8,2,,,,,,,2,10,3,10,,,,,,,,,,,1256.8991,1257.3992,1257.6492,1259.0798,space,1.4241,,1259.0798,38,7,1260.0797,1260.0798,1260.08,,,,0,9,9,9,1,150,105,,,,,,,,
,,65ae8d5afca0129384330a5d,65af5635b73447736efa8aca,2024-01-23_03h07.28.348,bars,2023.2.3,Win32,144.2169022,657b66ea316d21385b68909f,,,,,,,,,,,1260.0802,1261.0798,,,1261.583,1261.83,,79,79,,,,,,,,,,,,,,,,bars/011.png,bars/mask009.png,,,,,,,,,,,,8,2,,,,,,,4,10,4,10,,,,,,,,,,,1261.0798,1261.583,1261.83,1263.5106,space,1.6769,,1263.5106,81,6,1264.5105,1264.5106,1264.5161,,,,0,10,10,10,1,160,85,,,,,,,,
,,65ae8d5afca0129384330a5d,65af5635b73447736efa8aca,2024-01-23_03h07.28.348,bars,2023.2.3,Win32,144.2169022,657b66ea316d21385b68909f,,,,,,,,,,,1264.5162,1265.5175,,,1266.0174,1266.2676,,96,96,,,,,,,,,,,,,,,,bars/018.png,bars/mask001.png,,,,,,,,,,,,8,2,,,,,,,2,10,3,10,,,,,,,,,,,1265.5175,1266.0174,1266.2676,1269.0245,space,2.7547,,1269.0245,54,6,1270.0219,1270.0219,1270.0276,,,,0,11,11,11,1,150,90,,,,,,,,
,,65ae8d5afca0129384330a5d,65af5635b73447736efa8aca,2024-01-23_03h07.28.348,bars,2023.2.3,Win32,144.2169022,657b66ea316d21385b68909f,,,,,,,,,,,1270.0279,1271.0246,,,1271.5246,1271.7745,,58,58,,,,,,,,,,,,,,,,bars/047.png,bars/mask004.png,,,,,,,,,,,,5,2,,,,,,,4,8,4,8,,,,,,,,,,,1271.0246,1271.5246,1271.7745,1273.4067,space,1.6176,,1273.4068,43,12,1274.4068,1274.4068,1274.4123,,,,0,12,12,12,1,15,70,,,,,,,,
,,65ae8d5afca0129384330a5d,65af5635b73447736efa8aca,2024-01-23_03h07.28.348,bars,2023.2.3,Win32,144.2169022,657b66ea316d21385b68909f,,,,,,,,,,,1274.4125,1275.4162,,,1275.914,1276.1647,,115,115,,,,,,,,,,,,,,,,bars/004.png,bars/mask008.png,,,,,,,,,,,,6,2,,,,,,,2,10,2,9,,,,,,,,,,,1275.4163,1275.914,1276.1647,1278.1108,space,1.935,,1278.1108,90,10,1279.1081,1279.1081,1279.1136,,,,0,13,13,13,1,25,125,,,,,,,,
,,65ae8d5afca0129384330a5d,65af5635b73447736efa8aca,2024-01-23_03h07.28.348,bars,2023.2.3,Win32,144.2169022,657b66ea316d21385b68909f,,,,,,,,,,,1279.1137,1280.1108,,,1280.6082,1280.8583,,116,116,,,,,,,,,,,,,,,,bars/009.png,bars/mask007.png,,,,,,,,,,,,6,2,,,,,,,4,10,5,10,,,,,,,,,,,1280.1108,1280.6082,1280.8583,1283.5389,space,2.6776,,1283.5389,79,11,1284.539,1284.539,1284.5447,,,,0,14,14,14,1,15,105,,,,,,,,
,,65ae8d5afca0129384330a5d,65af5635b73447736efa8aca,2024-01-23_03h07.28.348,bars,2023.2.3,Win32,144.2169022,657b66ea316d21385b68909f,,,,,,,,,,,1284.5448,1285.5459,,,1286.0461,1286.2915,,69,69,,,,,,,,,,,,,,,,bars/021.png,bars/mask002.png,,,,,,,,,,,,9,2,,,,,,,6,8,6,9,,,,,,,,,,,1285.5459,1286.0461,1286.2915,1287.6295,space,1.3286,,1287.6295,86,1,1288.6293,1288.6293,1288.6351,,,,0,15,15,15,1,155,70,,,,,,,,
,,65ae8d5afca0129384330a5d,65af5635b73447736efa8aca,2024-01-23_03h07.28.348,bars,2023.2.3,Win32,144.2169022,657b66ea316d21385b68909f,,,,,,,,,,,1288.6352,1289.6364,,,1290.1364,1290.3864,,94,94,,,,,,,,,,,,,,,,bars/028.png,bars/mask000.png,,,,,,,,,,,,1,2,,,,,,,4,6,3,7,,,,,,,,,,,1289.6365,1290.1364,1290.3864,1291.7128,space,1.3193,,1291.7128,49,26,1292.7128,1292.7128,1292.7184,,,,0,16,16,16,1,45,120,,,,,,,,
,,65ae8d5afca0129384330a5d,65af5635b73447736efa8aca,2024-01-23_03h07.28.348,bars,2023.2.3,Win32,144.2169022,657b66ea316d21385b68909f,,,,,,,,,,,1292.7186,1293.7222,,,1294.2199,1294.4699,,6,6,,,,,,,,,,,,,,,,bars/040.png,bars/mask003.png,,,,,,,,,,,,6,2,,,,,,,6,4,7,6,,,,,,,,,,,1293.7223,1294.2198,1294.4699,1297.1187,space,2.6395,,1297.1188,46,1,1298.1159,1298.1159,1298.1215,,,,0,17,17,17,1,140,5,,,,,,,,
,,65ae8d5afca0129384330a5d,65af5635b73447736efa8aca,2024-01-23_03h07.28.348,bars,2023.2.3,Win32,144.2169022,657b66ea316d21385b68909f,,,,,,,,,,,1298.1216,1299.1227,,,1299.6253,1299.873,,94,-86,,,,,,,,,,,,,,,,bars/018.png,bars/mask005.png,,,,,,,,,,,,2,2,,,,,,,8,2,8,2,,,,,,,,,,,1299.1227,1299.6253,1299.873,1303.6993,space,3.8198,,1303.6993,56,4,1304.6993,1304.6993,1304.7049,,,,0,18,18,18,1,150,90,,,,,,,,
,,65ae8d5afca0129384330a5d,65af5635b73447736efa8aca,2024-01-23_03h07.28.348,bars,2023.2.3,Win32,144.2169022,657b66ea316d21385b68909f,,,,,,,,,,,1304.705,1305.7079,,,1306.2064,1306.4564,,166,166,,,,,,,,,,,,,,,,bars/048.png,bars/mask004.png,,,,,,,,,,,,2,2,,,,,,,10,4,10,3,,,,,,,,,,,1305.7079,1306.2063,1306.4564,1310.3983,space,3.9324,,1310.3983,64,9,1311.3966,1311.3967,1311.4022,,,,0,19,19,19,1,50,175,,,,,,,,
,,65ae8d5afca0129384330a5d,65af5635b73447736efa8aca,2024-01-23_03h07.28.348,bars,2023.2.3,Win32,144.2169022,657b66ea316d21385b68909f,,,,,,,,,,,1311.4023,1312.4011,,,1312.9011,1313.1535,,115,115,,,,,,,,,,,,,,,,bars/015.png,bars/mask008.png,,,,,,,,,,,,8,1,,,,,,,10,6,10,6,,,,,,,,,,,1312.4011,1312.9011,1313.1535,1314.2761,space,1.1147,,1314.2761,5,45,1315.2762,1315.2762,1315.2771,,,,0,20,20,20,1,110,160,,,,,,,,
,,65ae8d5afca0129384330a5d,65af5635b73447736efa8aca,2024-01-23_03h07.28.348,bars,2023.2.3,Win32,144.2169022,657b66ea316d21385b68909f,,,,,,,,,,,1315.2772,1316.276,,,1316.7762,1317.0217,,128,128,,,,,,,,,,,,,,,,bars/001.png,bars/mask007.png,,,,,,,,,,,,8,1,,,,,,,10,4,9,4,,,,,,,,,,,1316.276,1316.7762,1317.0218,1318.7139,space,1.6841,,1318.7139,2,43,1319.7138,1319.7138,1319.7141,,,,0,21,21,21,1,130,85,,,,,,,,
,,65ae8d5afca0129384330a5d,65af5635b73447736efa8aca,2024-01-23_03h07.28.348,bars,2023.2.3,Win32,144.2169022,657b66ea316d21385b68909f,,,,,,,,,,,1319.7142,1320.7139,,,1321.2096,1321.457,,15,15,,,,,,,,,,,,,,,,bars/023.png,bars/mask008.png,,,,,,,,,,,,8,1,,,,,,,10,6,10,7,,,,,,,,,,,1320.7139,1321.2096,1321.457,1324.6168,space,3.144,,1324.6168,5,80,1325.6168,1325.6169,1325.6223,,,,0,22,22,22,1,20,115,,,,,,,,
,,65ae8d5afca0129384330a5d,65af5635b73447736efa8aca,2024-01-23_03h07.28.348,bars,2023.2.3,Win32,144.2169022,657b66ea316d21385b68909f,,,,,,,,,,,1325.6223,1326.6237,,,1327.1238,1327.3737,,66,66,,,,,,,,,,,,,,,,bars/048.png,bars/mask006.png,,,,,,,,,,,,3,1,,,,,,,8,4,7,4,,,,,,,,,,,1326.6238,1327.1238,1327.3738,1329.2142,space,1.8265,,1329.2142,16,71,1330.2142,1330.2142,1330.2145,,,,0,23,23,23,1,50,175,,,,,,,,
,,65ae8d5afca0129384330a5d,65af5635b73447736efa8aca,2024-01-23_03h07.28.348,bars,2023.2.3,Win32,144.2169022,657b66ea316d21385b68909f,,,,,,,,,,,1330.2146,1331.2142,,,1331.7141,1331.9642,,160,-20,,,,,,,,,,,,,,,,bars/010.png,bars/mask000.png,,,,,,,,,,,,5,1,,,,,,,6,6,6,6,,,,,,,,,,,1331.2142,1331.7141,1331.9643,1334.9993,space,3.031,,1334.9993,5,75,1335.9991,1335.9991,1336.0048,,,,0,24,24,24,1,165,55,,,,,,,,
,,65ae8d5afca0129384330a5d,65af5635b73447736efa8aca,2024-01-23_03h07.28.348,bars,2023.2.3,Win32,144.2169022,657b66ea316d21385b68909f,,,,,,,,,,,1336.0048,1337.0061,,,1337.5017,1337.7494,,22,22,,,,,,,,,,,,,,,,bars/006.png,bars/mask007.png,,,,,,,,,,,,2,1,,,,,,,4,8,4,8,,,,,,,,,,,1337.0061,1337.5017,1337.7494,1340.6382,space,2.8752,,1340.6382,13,78,1341.6336,1341.6337,1341.6392,,,,0,25,25,25,1,35,100,,,,,,,,
,,65ae8d5afca0129384330a5d,65af5635b73447736efa8aca,2024-01-23_03h07.28.348,bars,2023.2.3,Win32,144.2169022,657b66ea316d21385b68909f,,,,,,,,,,,1341.6392,1342.6403,,,1343.1403,1343.3902,,128,-52,,,,,,,,,,,,,,,,bars/042.png,bars/mask002.png,,,,,,,,,,,,2,1,,,,,,,6,6,4,6,,,,,,,,,,,1342.6403,1343.1403,1343.3902,1347.6549,space,4.2578,,1347.6549,17,53,1348.6523,1348.6524,1348.6581,,,,0,26,26,26,1,145,75,,,,,,,,
,,65ae8d5afca0129384330a5d,65af5635b73447736efa8aca,2024-01-23_03h07.28.348,bars,2023.2.3,Win32,144.2169022,657b66ea316d21385b68909f,,,,,,,,,,,1348.6582,1349.6644,,,1350.1618,1350.4119,,102,102,,,,,,,,,,,,,,,,bars/028.png,bars/mask002.png,,,,,,,,,,,,3,2,,,,,,,4,8,3,8,,,,,,,,,,,1349.6645,1350.1617,1350.4119,1353.1316,space,2.7127,,1353.1316,57,18,1354.1272,1354.1272,1354.133,,,,0,27,27,27,1,45,120,,,,,,,,
,,65ae8d5afca0129384330a5d,65af5635b73447736efa8aca,2024-01-23_03h07.28.348,bars,2023.2.3,Win32,144.2169022,657b66ea316d21385b68909f,,,,,,,,,,,1354.1332,1355.1317,,,1355.6317,1355.8817,,143,143,,,,,,,,,,,,,,,,bars/015.png,bars/mask008.png,,,,,,,,,,,,2,2,,,,,,,6,6,7,5,,,,,,,,,,,1355.1317,1355.6317,1355.8817,1357.8541,space,1.9632,,1357.8542,33,17,1358.8522,1358.8522,1358.858,,,,0,28,28,28,1,110,160,,,,,,,,
,,65ae8d5afca0129384330a5d,65af5635b73447736efa8aca,2024-01-23_03h07.28.348,bars,2023.2.3,Win32,144.2169022,657b66ea316d21385b68909f,,,,,,,,,,,1358.8581,1359.8542,,,1360.3496,1360.5971,,121,121,,,,,,,,,,,,,,,,bars/024.png,bars/mask001.png,,,,,,,,,,,,5,1,,,,,,,4,8,5,9,,,,,,,,,,,1359.8542,1360.3496,1360.5971,1363.9332,space,3.3269,,1363.9333,1,49,1364.9308,1364.9308,1364.9368,,,,0,29,29,29,1,120,170,,,,,,,,
,,65ae8d5afca0129384330a5d,65af5635b73447736efa8aca,2024-01-23_03h07.28.348,bars,2023.2.3,Win32,144.2169022,657b66ea316d21385b68909f,,,,,,,,,,,1364.9369,1365.9394,,,1366.4375,1366.6876,,122,122,,,,,,,,,,,,,,,,bars/025.png,bars/mask007.png,,,,,,,,,,,,2,1,,,,,,,6,6,5,5,,,,,,,,,,,1365.9394,1366.4375,1366.6876,1368.4125,space,1.7154,,1368.4125,17,82,1369.41,1369.41,1369.4156,,,,0,30,30,30,1,105,40,,,,,,,,
,,65ae8d5afca0129384330a5d,65af5635b73447736efa8aca,2024-01-23_03h07.28.348,bars,2023.2.3,Win32,144.2169022,657b66ea316d21385b68909f,,,,,,,,,,,1369.4158,1370.4169,,,1370.9169,1371.1624,,36,36,,,,,,,,,,,,,,,,bars/027.png,bars/mask003.png,,,,,,,,,,,,5,2,,,,,,,4,8,3,10,,,,,,,,,,,1370.4169,1370.9169,1371.1624,1375.5629,space,4.3934,,1375.563,74,14,1376.563,1376.563,1376.5692,,,,0,31,31,31,1,110,50,,,,,,,,
,,65ae8d5afca0129384330a5d,65af5635b73447736efa8aca,2024-01-23_03h07.28.348,bars,2023.2.3,Win32,144.2169022,657b66ea316d21385b68909f,,,,,,,,,,,1376.5693,1377.5699,,,1378.0701,1378.32,,105,105,,,,,,,,,,,,,,,,bars/028.png,bars/mask008.png,,,,,,,,,,,,4,2,,,,,,,2,6,4,7,,,,,,,,,,,1377.5699,1378.0701,1378.32,1380.7715,space,2.4441,,1380.7715,60,15,1381.7714,1381.7714,1381.7769,,,,0,32,32,32,1,45,120,,,,,,,,
,,65ae8d5afca0129384330a5d,65af5635b73447736efa8aca,2024-01-23_03h07.28.348,bars,2023.2.3,Win32,144.2169022,657b66ea316d21385b68909f,,,,,,,,,,,1381.7771,1382.7785,,,1383.2785,1383.5284,,56,236,,,,,,,,,,,,,,,,bars/046.png,bars/mask002.png,,,,,,,,,,,,0,2,,,,,,,0,8,0,8,,,,,,,,,,,1382.7785,1383.2785,1383.5284,1386.6398,space,3.0975,,1386.6398,81,29,1387.6398,1387.6398,1387.6453,,,,0,33,33,33,1,155,85,,,,,,,,
,,65ae8d5afca0129384330a5d,65af5635b73447736efa8aca,2024-01-23_03h07.28.348,bars,2023.2.3,Win32,144.2169022,657b66ea316d21385b68909f,,,,,,,,,,,1387.6455,1388.6468,,,1389.1467,1389.3969,,166,166,,,,,,,,,,,,,,,,bars/014.png,bars/mask009.png,,,,,,,,,,,,4,2,,,,,,,2,6,2,7,,,,,,,,,,,1388.6468,1389.1467,1389.3969,1391.4758,space,2.0672,,1391.4759,86,14,1392.4733,1392.4733,1392.479,,,,0,34,34,34,1,80,0,,,,,,,,
,,65ae8d5afca0129384330a5d,65af5635b73447736efa8aca,2024-01-23_03h07.28.348,bars,2023.2.3,Win32,144.2169022,657b66ea316d21385b68909f,,,,,,,,,,,1392.4791,1393.4803,,,1393.9803,1394.2302,,138,-42,,,,,,,,,,,,,,,,bars/002.png,bars/mask004.png,,,,,,,,,,,,1,1,,,,,,,0,4,1,4,,,,,,,,,,,1393.4803,1393.9803,1394.2302,1397.1124,space,2.8702,,1397.1124,8,53,1398.1124,1398.1124,1398.1183,,,,0,35,35,35,1,130,85,,,,,,,,
,,65ae8d5afca0129384330a5d,65af5635b73447736efa8aca,2024-01-23_03h07.28.348,bars,2023.2.3,Win32,144.2169022,657b66ea316d21385b68909f,,,,,,,,,,,1398.1185,1399.1176,,,1399.6193,1399.8694,,65,65,,,,,,,,,,,,,,,,bars/046.png,bars/mask008.png,,,,,,,,,,,,1,2,,,,,,,0,6,0,4,,,,,,,,,,,1399.1176,1399.6193,1399.8694,1403.3417,space,3.4614,,1403.3417,90,20,1404.3416,1404.3416,1404.3525,,,,0,36,36,36,1,155,85,,,,,,,,
,,65ae8d5afca0129384330a5d,65af5635b73447736efa8aca,2024-01-23_03h07.28.348,bars,2023.2.3,Win32,144.2169022,657b66ea316d21385b68909f,,,,,,,,,,,1404.3526,1405.3488,,,1405.8487,1406.0988,,67,67,,,,,,,,,,,,,,,,bars/044.png,bars/mask001.png,,,,,,,,,,,,1,1,,,,,,,2,4,2,5,,,,,,,,,,,1405.3488,1405.8487,1406.0988,1410.3421,space,4.2395,,1410.3421,8,88,1411.342,1411.342,1411.3531,,,,0,37,37,37,1,75,155,,,,,,,,
,,65ae8d5afca0129384330a5d,65af5635b73447736efa8aca,2024-01-23_03h07.28.348,bars,2023.2.3,Win32,144.2169022,657b66ea316d21385b68909f,,,,,,,,,,,1411.3531,1412.3488,,,1412.8492,1413.099,,148,148,,,,,,,,,,,,,,,,bars/038.png,bars/mask007.png,,,,,,,,,,,,2,1,,,,,,,4,6,5,6,,,,,,,,,,,1412.3488,1412.8492,1413.099,1416.0157,space,2.9133,,1416.0157,17,78,1417.0157,1417.0157,1417.0217,,,,0,38,38,38,1,165,70,,,,,,,,
,,65ae8d5afca0129384330a5d,65af5635b73447736efa8aca,2024-01-23_03h07.28.348,bars,2023.2.3,Win32,144.2169022,657b66ea316d21385b68909f,,,,,,,,,,,1417.0218,1418.0176,,,1418.5159,1418.7659,,90,90,,,,,,,,,,,,,,,,bars/006.png,bars/mask003.png,,,,,,,,,,,,5,2,,,,,,,2,8,1,8,,,,,,,,,,,1418.0176,1418.5159,1418.7659,1420.6827,space,1.9026,,1420.6827,55,10,1421.6781,1421.6782,1421.6789,,,,0,39,39,39,1,35,100,,,,,,,,
,,65ae8d5afca0129384330a5d,65af5635b73447736efa8aca,2024-01-23_03h07.28.348,bars,2023.2.3,Win32,144.2169022,657b66ea316d21385b68909f,,,,,,,,,,,1421.6791,1422.6757,,,1423.1758,1423.4258,,156,-24,,,,,,,,,,,,,,,,bars/004.png,bars/mask003.png,,,,,,,,,,,,0,2,,,,,,,0,10,0,10,,,,,,,,,,,1422.6758,1423.1758,1423.4258,1426.5649,space,3.1287,,1426.5649,49,31,1427.5649,1427.5649,1427.5707,,,,0,40,40,40,1,25,125,,,,,,,,
,,65ae8d5afca0129384330a5d,65af5635b73447736efa8aca,2024-01-23_03h07.28.348,bars,2023.2.3,Win32,144.2169022,657b66ea316d21385b68909f,,,,,,,,,,,1427.5708,1428.5717,,,1429.0718,1429.322,,112,112,,,,,,,,,,,,,,,,bars/028.png,bars/mask009.png,,,,,,,,,,,,7,2,,,,,,,0,8,1,10,,,,,,,,,,,1428.5718,1429.0718,1429.322,1430.5302,space,1.2018,,1430.5302,67,8,1431.5303,1431.5303,1431.5306,,,,0,41,41,41,1,45,120,,,,,,,,
,,65ae8d5afca0129384330a5d,65af5635b73447736efa8aca,2024-01-23_03h07.28.348,bars,2023.2.3,Win32,144.2169022,657b66ea316d21385b68909f,,,,,,,,,,,1431.5307,1432.5303,,,1433.0303,1433.2802,,4,4,,,,,,,,,,,,,,,,bars/012.png,bars/mask008.png,,,,,,,,,,,,6,2,,,,,,,0,10,0,10,,,,,,,,,,,1432.5304,1433.0303,1433.2803,1435.2409,space,1.9587,,1435.2409,86,11,1436.2387,1436.2387,1436.2391,,,,0,42,42,42,1,90,15,,,,,,,,
,,65ae8d5afca0129384330a5d,65af5635b73447736efa8aca,2024-01-23_03h07.28.348,bars,2023.2.3,Win32,144.2169022,657b66ea316d21385b68909f,,,,,,,,,,,1436.2392,1437.2387,,,1437.7407,1437.9888,,104,104,,,,,,,,,,,,,,,,bars/019.png,bars/mask002.png,,,,,,,,,,,,10,2,,,,,,,2,10,2,10,,,,,,,,,,,1437.2387,1437.7407,1437.9888,1439.4151,space,1.4245,,1439.4152,59,1,1440.4148,1440.4149,1440.4152,,,,0,43,43,43,1,45,105,,,,,,,,
,,65ae8d5afca0129384330a5d,65af5635b73447736efa8aca,2024-01-23_03h07.28.348,bars,2023.2.3,Win32,144.2169022,657b66ea316d21385b68909f,,,,,,,,,,,1440.4152,1441.4126,,,1441.9124,1442.165,,98,98,,,,,,,,,,,,,,,,bars/009.png,bars/mask008.png,,,,,,,,,,,,7,2,,,,,,,0,8,1,9,,,,,,,,,,,1441.4126,1441.9124,1442.165,1444.3502,space,2.1792,,1444.3502,83,7,1445.3501,1445.3502,1445.3557,,,,0,44,44,44,1,15,105,,,,,,,,
,,65ae8d5afca0129384330a5d,65af5635b73447736efa8aca,2024-01-23_03h07.28.348,bars,2023.2.3,Win32,144.2169022,657b66ea316d21385b68909f,,,,,,,,,,,1445.3558,1446.357,,,1446.8572,1447.107,,173,173,,,,,,,,,,,,,,,,bars/045.png,bars/mask006.png,,,,,,,,,,,,4,2,,,,,,,0,10,0,10,,,,,,,,,,,1446.357,1446.8572,1447.1071,1448.4268,space,1.3138,,1448.4268,73,17,1449.4271,1449.4271,1449.4277,,,,0,45,45,45,1,100,10,,,,,,,,
,,65ae8d5afca0129384330a5d,65af5635b73447736efa8aca,2024-01-23_03h07.28.348,bars,2023.2.3,Win32,144.2169022,657b66ea316d21385b68909f,,,,,,,,,,,1449.4279,1450.4267,,,1450.9267,1451.1767,,27,207,,,,,,,,,,,,,,,,bars/025.png,bars/mask005.png,,,,,,,,,,,,6,2,,,,,,,0,10,0,10,,,,,,,,,,,1450.4267,1450.9267,1451.1767,1453.3366,space,2.1554,,1453.3366,78,13,1454.3365,1454.3365,1454.3369,,,,0,46,46,46,1,105,40,,,,,,,,
,,65ae8d5afca0129384330a5d,65af5635b73447736efa8aca,2024-01-23_03h07.28.348,bars,2023.2.3,Win32,144.2169022,657b66ea316d21385b68909f,,,,,,,,,,,1454.3371,1455.3367,,,1455.8366,1456.0866,,104,104,,,,,,,,,,,,,,,,bars/011.png,bars/mask004.png,,,,,,,,,,,,3,2,,,,,,,0,8,0,8,,,,,,,,,,,1455.3367,1455.8366,1456.0866,1458.309,space,2.2175,,1458.3091,56,19,1459.3089,1459.3089,1459.3144,,,,0,47,47,47,1,160,85,,,,,,,,
,,65ae8d5afca0129384330a5d,65af5635b73447736efa8aca,2024-01-23_03h07.28.348,bars,2023.2.3,Win32,144.2169022,657b66ea316d21385b68909f,,,,,,,,,,,1459.3144,1460.316,,,1460.8162,1461.066,,117,117,,,,,,,,,,,,,,,,bars/028.png,bars/mask004.png,,,,,,,,,,,,6,2,,,,,,,0,6,0,7,,,,,,,,,,,1460.316,1460.8162,1461.066,1464.7536,space,3.6809,,1464.7536,72,3,1465.7538,1465.7538,1465.7595,,,,0,48,48,48,1,45,120,,,,,,,,
,,65ae8d5afca0129384330a5d,65af5635b73447736efa8aca,2024-01-23_03h07.28.348,bars,2023.2.3,Win32,144.2169022,657b66ea316d21385b68909f,,,,,,,,,,,1465.7596,1466.7606,,,1467.2605,1467.5106,,106,106,,,,,,,,,,,,,,,,bars/046.png,bars/mask006.png,,,,,,,,,,,,2,2,,,,,,,2,4,3,5,,,,,,,,,,,1466.7606,1467.2605,1467.5106,1470.9065,space,3.3903,,1470.9065,49,21,1471.9067,1471.9067,1471.9125,,,,0,49,49,49,1,155,85,,,,,,,,
,,65ae8d5afca0129384330a5d,65af5635b73447736efa8aca,2024-01-23_03h07.28.348,bars,2023.2.3,Win32,144.2169022,657b66ea316d21385b68909f,,,,,,,,,,,,,,,,,,,,,,,,,,,,,,,,,,,,,,,,,,,,,,,,,,,,,,,,,,,,,,,,,,,,,,,,,,,,,,,,,,,,,,,,,,,,,1471.9126,1531.9087,0,3,3,2,1,sequence_tables/blk003.csv
,,65ae8d5afca0129384330a5d,65af5635b73447736efa8aca,2024-01-23_03h07.28.348,bars,2023.2.3,Win32,144.2169022,657b66ea316d21385b68909f,,,,,,,,,,,1534.9047,1535.9019,,,1536.402,1536.652,,108,108,,,,,,,,,,,,,,,,bars/028.png,bars/mask008.png,,,,,,,,,,,,2,2,,,,,,,9,4,9,4,,,,,,1531.9143,1534.9022,space,2.9801,,1535.9019,1536.402,1536.652,1537.909,space,1.2551,,1537.909,63,12,1538.909,1538.9091,1538.9095,,,,0,0,0,0,1,45,120,,,,,,,,
,,65ae8d5afca0129384330a5d,65af5635b73447736efa8aca,2024-01-23_03h07.28.348,bars,2023.2.3,Win32,144.2169022,657b66ea316d21385b68909f,,,,,,,,,,,1538.9096,1539.909,,,1540.409,1540.661,,138,138,,,,,,,,,,,,,,,,bars/034.png,bars/mask000.png,,,,,,,,,,,,4,1,,,,,,,7,2,7,0,,,,,,,,,,,1539.909,1540.409,1540.661,1541.5689,space,0.8957,,1541.5689,13,73,1542.5688,1542.5688,1542.5699,,,,0,1,1,1,1,125,65,,,,,,,,
,,65ae8d5afca0129384330a5d,65af5635b73447736efa8aca,2024-01-23_03h07.28.348,bars,2023.2.3,Win32,144.2169022,657b66ea316d21385b68909f,,,,,,,,,,,1542.57,1543.5688,,,1544.0688,1544.3188,,66,66,,,,,,,,,,,,,,,,bars/012.png,bars/mask005.png,,,,,,,,,,,,2,1,,,,,,,9,0,8,1,,,,,,,,,,,1543.5688,1544.0688,1544.3188,1545.739,space,1.4108,,1545.739,24,51,1546.7356,1546.7356,1546.7359,,,,0,2,2,2,1,90,15,,,,,,,,
,,65ae8d5afca0129384330a5d,65af5635b73447736efa8aca,2024-01-23_03h07.28.348,bars,2023.2.3,Win32,144.2169022,657b66ea316d21385b68909f,,,,,,,,,,,1546.736,1547.7355,,,1548.2357,1548.4856,,170,-10,,,,,,,,,,,,,,,,bars/018.png,bars/mask003.png,,,,,,,,,,,,3,1,,,,,,,7,2,8,2,,,,,,,,,,,1547.7355,1548.2356,1548.4856,1550.8555,space,2.3677,,1550.8556,20,80,1551.8538,1551.8538,1551.8542,,,,0,3,3,3,1,150,90,,,,,,,,
,,65ae8d5afca0129384330a5d,65af5635b73447736efa8aca,2024-01-23_03h07.28.348,bars,2023.2.3,Win32,144.2169022,657b66ea316d21385b68909f,,,,,,,,,,,1551.8542,1552.8539,,,1553.354,1553.6039,,131,-49,,,,,,,,,,,,,,,,bars/003.png,bars/mask005.png,,,,,,,,,,,,3,2,,,,,,,9,4,9,4,,,,,,,,,,,1552.8539,1553.354,1553.6039,1556.3357,space,2.7225,,1556.3358,74,9,1557.3332,1557.3332,1557.3446,,,,0,4,4,4,1,25,140,,,,,,,,
,,65ae8d5afca0129384330a5d,65af5635b73447736efa8aca,2024-01-23_03h07.28.348,bars,2023.2.3,Win32,144.2169022,657b66ea316d21385b68909f,,,,,,,,,,,1557.3447,1558.3401,,,1558.8404,1559.0902,,122,122,,,,,,,,,,,,,,,,bars/037.png,bars/mask007.png,,,,,,,,,,,,3,2,,,,,,,10,6,10,6,,,,,,,,,,,1558.3401,1558.8403,1559.0902,1561.1874,space,2.0907,,1561.1874,28,17,1562.1875,1562.1875,1562.193,,,,0,5,5,5,1,150,105,,,,,,,,
,,65ae8d5afca0129384330a5d,65af5635b73447736efa8aca,2024-01-23_03h07.28.348,bars,2023.2.3,Win32,144.2169022,657b66ea316d21385b68909f,,,,,,,,,,,1562.1931,1563.1945,,,1563.6946,1563.9445,,53,53,,,,,,,,,,,,,,,,bars/022.png,bars/mask005.png,,,,,,,,,,,,0,2,,,,,,,8,4,9,6,,,,,,,,,,,1563.1945,1563.6946,1563.9445,1568.2224,space,4.2712,,1568.2224,42,33,1569.2224,1569.2225,1569.2279,,,,0,6,6,6,1,95,20,,,,,,,,
,,65ae8d5afca0129384330a5d,65af5635b73447736efa8aca,2024-01-23_03h07.28.348,bars,2023.2.3,Win32,144.2169022,657b66ea316d21385b68909f,,,,,,,,,,,1569.228,1570.2295,,,1570.7295,1570.9794,,148,148,,,,,,,,,,,,,,,,bars/020.png,bars/mask002.png,,,,,,,,,,,,1,2,,,,,,,10,2,10,2,,,,,,,,,,,1570.2295,1570.7295,1570.9795,1574.1674,space,3.1813,,1574.1675,33,22,1575.167,1575.1671,1575.1726,,,,0,7,7,7,1,115,170,,,,,,,,
,,65ae8d5afca0129384330a5d,65af5635b73447736efa8aca,2024-01-23_03h07.28.348,bars,2023.2.3,Win32,144.2169022,657b66ea316d21385b68909f,,,,,,,,,,,1575.1728,1576.1741,,,1576.6742,1576.9241,,144,144,,,,,,,,,,,,,,,,bars/043.png,bars/mask006.png,,,,,,,,,,,,2,2,,,,,,,10,4,10,4,,,,,,,,,,,1576.1741,1576.6741,1576.9241,1578.2576,space,1.3308,,1578.2576,66,14,1579.2576,1579.2576,1579.2579,,,,0,8,8,8,1,30,130,,,,,,,,
,,65ae8d5afca0129384330a5d,65af5635b73447736efa8aca,2024-01-23_03h07.28.348,bars,2023.2.3,Win32,144.2169022,657b66ea316d21385b68909f,,,,,,,,,,,1579.258,1580.2575,,,1580.7576,1581.0077,,101,101,,,,,,,,,,,,,,,,bars/039.png,bars/mask001.png,,,,,,,,,,,,4,2,,,,,,,8,6,6,5,,,,,,,,,,,1580.2575,1580.7576,1581.0077,1584.2785,space,3.2652,,1584.2786,74,4,1585.2785,1585.2785,1585.2839,,,,0,9,9,9,1,175,105,,,,,,,,
,,65ae8d5afca0129384330a5d,65af5635b73447736efa8aca,2024-01-23_03h07.28.348,bars,2023.2.3,Win32,144.2169022,657b66ea316d21385b68909f,,,,,,,,,,,1585.2841,1586.2856,,,1586.7856,1587.0356,,27,27,,,,,,,,,,,,,,,,bars/022.png,bars/mask004.png,,,,,,,,,,,,4,2,,,,,,,6,4,6,5,,,,,,,,,,,1586.2856,1586.7856,1587.0356,1590.9524,space,3.9123,,1590.9524,68,7,1591.9525,1591.9525,1591.958,,,,0,10,10,10,1,95,20,,,,,,,,
,,65ae8d5afca0129384330a5d,65af5635b73447736efa8aca,2024-01-23_03h07.28.348,bars,2023.2.3,Win32,144.2169022,657b66ea316d21385b68909f,,,,,,,,,,,1591.9581,1592.9596,,,1593.4596,1593.7096,,56,56,,,,,,,,,,,,,,,,bars/007.png,bars/mask006.png,,,,,,,,,,,,2,2,,,,,,,4,2,3,2,,,,,,,,,,,1592.9596,1593.4595,1593.7096,1595.807,space,2.0954,,1595.8071,61,1,1596.8105,1596.8105,1596.8159,,,,0,11,11,11,1,175,55,,,,,,,,
,,65ae8d5afca0129384330a5d,65af5635b73447736efa8aca,2024-01-23_03h07.28.348,bars,2023.2.3,Win32,144.2169022,657b66ea316d21385b68909f,,,,,,,,,,,1596.8161,1597.8138,,,1598.3139,1598.5638,,146,146,,,,,,,,,,,,,,,,bars/043.png,bars/mask005.png,,,,,,,,,,,,1,2,,,,,,,2,0,3,2,,,,,,,,,,,1597.8138,1598.3139,1598.5639,1600.3694,space,1.8029,,1600.3694,64,16,1601.3695,1601.3695,1601.3698,,,,0,12,12,12,1,30,130,,,,,,,,
,,65ae8d5afca0129384330a5d,65af5635b73447736efa8aca,2024-01-23_03h07.28.348,bars,2023.2.3,Win32,144.2169022,657b66ea316d21385b68909f,,,,,,,,,,,1601.37,1602.3695,,,1602.8694,1603.1195,,102,102,,,,,,,,,,,,,,,,bars/039.png,bars/mask007.png,,,,,,,,,,,,0,2,,,,,,,4,0,4,0,,,,,,,,,,,1602.3695,1602.8694,1603.1196,1604.3766,space,1.2505,,1604.3766,73,3,1605.3765,1605.3766,1605.3768,,,,0,13,13,13,1,175,105,,,,,,,,
