init_variables.started,init_variables.stopped,participant,session,date,expName,psychopyVersion,OS,frameRate,study_id,instruction_exp.started,instruction_exp.stopped,key_resp_8.keys,key_resp_8.rt,key_resp_8.duration,instruction_single.started,instruction_single.stopped,key_resp_2.keys,key_resp_2.rt,key_resp_2.duration,interval.started,interval.stopped,cue_single.started,cue_single.stopped,mask.started,mask.stopped,ori_response_single.started,res_ori,res,ori_response_single.stopped,key_resp_single.keys,key_resp_single.rt,key_resp_single.duration,disp_single.started,disp_single.stopped,key_resp.keys,key_resp.rt,key_resp.duration,single.thisRepN,single.thisTrialN,single.thisN,single.thisIndex,single.ran,ori,path,mask_path,instruction_bandit.started,instruction_bandit.stopped,key_resp_6.keys,key_resp_6.rt,key_resp_6.duration,cue_bandit.started,cue_bandit.stopped,bandit_res.keys,bandit_res.rt,bandit_res.duration,outcome_bandit.started,rew,action,outcome_bandit.stopped,bandit.thisRepN,bandit.thisTrialN,bandit.thisN,bandit.thisIndex,bandit.ran,actual_rew1,actual_rew2,rew1,rew2,instruction_task.started,instruction_task.stopped,key_resp_7.keys,key_resp_7.rt,key_resp_7.duration,wait_ready.started,wait_ready.stopped,key_resp_3.keys,key_resp_3.rt,key_resp_3.duration,cue.started,cue.stopped,ori_response.started,ori_response.stopped,key_resp_5.keys,key_resp_5.rt,key_resp_5.duration,outcome.started,diff1,diff2,outcome.stopped,disp_outcome_practice.started,disp_outcome_practice.stopped,key_resp_4.keys,key_resp_4.rt,key_resp_4.duration,trials.thisRepN,trials.thisTrialN,trials.thisN,trials.thisIndex,trials.ran,ori1,ori2,break_blk.started,break_blk.stopped,block.thisRepN,block.thisTrialN,block.thisN,block.thisIndex,block.ran,condition_file
0.0004,0.0005,6172db15b7d756655cd0bb38,65af55e1be6af047326a98c2,2024-01-23_08h01.23.969,bars,2023.2.3,Win32,59.88023952,657b66ea316d21385b68909f,,,,,,,,,,,,,,,,,,,,,,,,,,,,,,,,,,,,,,,,,,,,,,,,,,,,,,,,,,,,,,,,,,,,,,,,,,,,,,,,,,,,,,,,,,,,,,,,,,,,
,,6172db15b7d756655cd0bb38,65af55e1be6af047326a98c2,2024-01-23_08h01.23.969,bars,2023.2.3,Win32,59.88023952,657b66ea316d21385b68909f,0.0007,54.1794,y,54.1669,,,,,,,,,,,,,,,,,,,,,,,,,,,,,,,,,,,,,,,,,,,,,,,,,,,,,,,,,,,,,,,,,,,,,,,,,,,,,,,,,,,,,,,,,,,,,,,,
,,6172db15b7d756655cd0bb38,65af55e1be6af047326a98c2,2024-01-23_08h01.23.969,bars,2023.2.3,Win32,59.88023952,657b66ea316d21385b68909f,,,,,,54.1799,109.5032,space,55.2886,,,,,,,,,,,,,,,,,,,,,,,,,,,,,,,,,,,,,,,,,,,,,,,,,,,,,,,,,,,,,,,,,,,,,,,,,,,,,,,,,,,,,,,,,,,
,,6172db15b7d756655cd0bb38,65af55e1be6af047326a98c2,2024-01-23_08h01.23.969,bars,2023.2.3,Win32,59.88023952,657b66ea316d21385b68909f,,,,,,,,,,,109.5634,110.5166,110.5174,111.0167,111.0175,111.2672,111.2679,91,91,154.9194,space,43.568,,154.9204,342.5539,space,187.5281,,0,0,0,4,1,95,bars/single004.png,bars/mask004.png,,,,,,,,,,,,,,,,,,,,,,,,,,,,,,,,,,,,,,,,,,,,,,,,,,,,,,,,,,,,,,,,
,,6172db15b7d756655cd0bb38,65af55e1be6af047326a98c2,2024-01-23_08h01.23.969,bars,2023.2.3,Win32,59.88023952,657b66ea316d21385b68909f,,,,,,,,,,,342.6016,343.5666,343.5671,344.0669,344.067,344.3177,344.3179,46,46,386.9086,space,42.5691,,386.9089,390.6335,space,3.6534,,0,1,1,9,1,20,bars/single009.png,bars/mask006.png,,,,,,,,,,,,,,,,,,,,,,,,,,,,,,,,,,,,,,,,,,,,,,,,,,,,,,,,,,,,,,,,
,,6172db15b7d756655cd0bb38,65af55e1be6af047326a98c2,2024-01-23_08h01.23.969,bars,2023.2.3,Win32,59.88023952,657b66ea316d21385b68909f,,,,,,,,,,,390.6356,391.6333,391.6334,392.1333,392.1334,392.3717,392.3719,170,170,401.2918,space,8.9022,,401.2919,405.6684,space,4.3117,,0,2,2,5,1,55,bars/single005.png,bars/mask008.png,,,,,,,,,,,,,,,,,,,,,,,,,,,,,,,,,,,,,,,,,,,,,,,,,,,,,,,,,,,,,,,,
,,6172db15b7d756655cd0bb38,65af55e1be6af047326a98c2,2024-01-23_08h01.23.969,bars,2023.2.3,Win32,59.88023952,657b66ea316d21385b68909f,,,,,,,,,,,405.7138,406.6836,406.684,407.1835,407.1838,407.434,407.4342,106,106,417.0583,space,9.602,,417.0584,423.6679,space,6.5404,,0,3,3,6,1,175,bars/single006.png,bars/mask005.png,,,,,,,,,,,,,,,,,,,,,,,,,,,,,,,,,,,,,,,,,,,,,,,,,,,,,,,,,,,,,,,,
,,6172db15b7d756655cd0bb38,65af55e1be6af047326a98c2,2024-01-23_08h01.23.969,bars,2023.2.3,Win32,59.88023952,657b66ea316d21385b68909f,,,,,,,,,,,423.7126,424.6835,424.6836,425.1724,425.1725,425.4175,425.4179,6,6,432.2901,space,6.8504,,432.2901,440.8523,space,8.5006,,0,4,4,1,1,20,bars/single001.png,bars/mask006.png,,,,,,,,,,,,,,,,,,,,,,,,,,,,,,,,,,,,,,,,,,,,,,,,,,,,,,,,,,,,,,,,
,,6172db15b7d756655cd0bb38,65af55e1be6af047326a98c2,2024-01-23_08h01.23.969,bars,2023.2.3,Win32,59.88023952,657b66ea316d21385b68909f,,,,,,,,,,,440.8956,441.8669,441.8672,442.3555,442.3557,442.6006,442.6007,60,60,449.051,space,6.435,,449.0515,452.2421,space,3.127,,0,5,5,7,1,45,bars/single007.png,bars/mask009.png,,,,,,,,,,,,,,,,,,,,,,,,,,,,,,,,,,,,,,,,,,,,,,,,,,,,,,,,,,,,,,,,
,,6172db15b7d756655cd0bb38,65af55e1be6af047326a98c2,2024-01-23_08h01.23.969,bars,2023.2.3,Win32,59.88023952,657b66ea316d21385b68909f,,,,,,,,,,,452.2432,453.2337,453.234,453.7342,453.7345,453.9895,453.9897,50,50,460.5532,space,6.5406,,460.5533,464.3033,space,3.6871,,0,6,6,3,1,20,bars/single003.png,bars/mask005.png,,,,,,,,,,,,,,,,,,,,,,,,,,,,,,,,,,,,,,,,,,,,,,,,,,,,,,,,,,,,,,,,
,,6172db15b7d756655cd0bb38,65af55e1be6af047326a98c2,2024-01-23_08h01.23.969,bars,2023.2.3,Win32,59.88023952,657b66ea316d21385b68909f,,,,,,,,,,,464.3499,465.3172,465.3175,465.8172,465.8174,466.0678,466.0679,70,70,517.1684,space,51.0889,,517.1686,522.6847,space,5.4545,,0,7,7,2,1,145,bars/single002.png,bars/mask003.png,,,,,,,,,,,,,,,,,,,,,,,,,,,,,,,,,,,,,,,,,,,,,,,,,,,,,,,,,,,,,,,,
,,6172db15b7d756655cd0bb38,65af55e1be6af047326a98c2,2024-01-23_08h01.23.969,bars,2023.2.3,Win32,59.88023952,657b66ea316d21385b68909f,,,,,,,,,,,522.7286,523.7009,523.701,524.2043,524.2045,524.4393,524.4394,146,146,531.6251,space,7.1685,,531.6252,533.8675,space,2.1791,,0,8,8,0,1,150,bars/single000.png,bars/mask006.png,,,,,,,,,,,,,,,,,,,,,,,,,,,,,,,,,,,,,,,,,,,,,,,,,,,,,,,,,,,,,,,,
,,6172db15b7d756655cd0bb38,65af55e1be6af047326a98c2,2024-01-23_08h01.23.969,bars,2023.2.3,Win32,59.88023952,657b66ea316d21385b68909f,,,,,,,,,,,533.8691,534.8707,534.871,535.3725,535.3727,535.6175,535.6176,149,149,543.0344,space,7.4011,,543.0346,545.6528,space,2.5483,,0,9,9,8,1,160,bars/single008.png,bars/mask004.png,,,,,,,,,,,,,,,,,,,,,,,,,,,,,,,,,,,,,,,,,,,,,,,,,,,,,,,,,,,,,,,,
,,6172db15b7d756655cd0bb38,65af55e1be6af047326a98c2,2024-01-23_08h01.23.969,bars,2023.2.3,Win32,59.88023952,657b66ea316d21385b68909f,,,,,,,,,,,,,,,,,,,,,,,,,,,,,,,,,,,,,545.656,558.1036,space,12.4149,,,,,,,,,,,,,,,,,,,,,,,,,,,,,,,,,,,,,,,,,,,,,,,,,,,,,,,,,,,,
,,6172db15b7d756655cd0bb38,65af55e1be6af047326a98c2,2024-01-23_08h01.23.969,bars,2023.2.3,Win32,59.88023952,657b66ea316d21385b68909f,,,,,,,,,,,,,,,,,,,,,,,,,,,,,,,,,,,,,,,,,,558.1563,563.9375,right,5.7604,,563.9383,2,2,564.9341,0,0,0,0,1,9,1,9,2,,,,,,,,,,,,,,,,,,,,,,,,,,,,,,,,,,,,,,,,,
,,6172db15b7d756655cd0bb38,65af55e1be6af047326a98c2,2024-01-23_08h01.23.969,bars,2023.2.3,Win32,59.88023952,657b66ea316d21385b68909f,,,,,,,,,,,,,,,,,,,,,,,,,,,,,,,,,,,,,,,,,,564.9355,568.7188,right,3.7742,,568.719,1,2,569.7176,0,1,1,1,1,10,0,10,1,,,,,,,,,,,,,,,,,,,,,,,,,,,,,,,,,,,,,,,,,
,,6172db15b7d756655cd0bb38,65af55e1be6af047326a98c2,2024-01-23_08h01.23.969,bars,2023.2.3,Win32,59.88023952,657b66ea316d21385b68909f,,,,,,,,,,,,,,,,,,,,,,,,,,,,,,,,,,,,,,,,,,569.7191,570.5849,right,0.8531,,570.5851,2,2,571.5841,0,2,2,2,1,10,2,10,2,,,,,,,,,,,,,,,,,,,,,,,,,,,,,,,,,,,,,,,,,
,,6172db15b7d756655cd0bb38,65af55e1be6af047326a98c2,2024-01-23_08h01.23.969,bars,2023.2.3,Win32,59.88023952,657b66ea316d21385b68909f,,,,,,,,,,,,,,,,,,,,,,,,,,,,,,,,,,,,,,,,,,571.5858,572.1347,right,0.533,,572.1349,3,2,573.1342,0,3,3,3,1,8,4,7,3,,,,,,,,,,,,,,,,,,,,,,,,,,,,,,,,,,,,,,,,,
,,6172db15b7d756655cd0bb38,65af55e1be6af047326a98c2,2024-01-23_08h01.23.969,bars,2023.2.3,Win32,59.88023952,657b66ea316d21385b68909f,,,,,,,,,,,,,,,,,,,,,,,,,,,,,,,,,,,,,,,,,,573.1358,574.1016,right,0.9495,,574.1022,1,2,575.1008,0,4,4,4,1,6,2,5,1,,,,,,,,,,,,,,,,,,,,,,,,,,,,,,,,,,,,,,,,,
,,6172db15b7d756655cd0bb38,65af55e1be6af047326a98c2,2024-01-23_08h01.23.969,bars,2023.2.3,Win32,59.88023952,657b66ea316d21385b68909f,,,,,,,,,,,,,,,,,,,,,,,,,,,,,,,,,,,,,,,,,,575.1024,576.4013,right,1.2889,,576.4014,4,2,577.4008,0,5,5,5,1,4,4,4,4,,,,,,,,,,,,,,,,,,,,,,,,,,,,,,,,,,,,,,,,,
,,6172db15b7d756655cd0bb38,65af55e1be6af047326a98c2,2024-01-23_08h01.23.969,bars,2023.2.3,Win32,59.88023952,657b66ea316d21385b68909f,,,,,,,,,,,,,,,,,,,,,,,,,,,,,,,,,,,,,,,,,,577.4024,578.2179,left,0.7986,,578.2181,1,1,579.2174,0,6,6,6,1,2,2,1,2,,,,,,,,,,,,,,,,,,,,,,,,,,,,,,,,,,,,,,,,,
,,6172db15b7d756655cd0bb38,65af55e1be6af047326a98c2,2024-01-23_08h01.23.969,bars,2023.2.3,Win32,59.88023952,657b66ea316d21385b68909f,,,,,,,,,,,,,,,,,,,,,,,,,,,,,,,,,,,,,,,,,,579.2192,579.6676,right,0.4367,,579.6678,1,2,580.6678,0,7,7,7,1,0,0,0,1,,,,,,,,,,,,,,,,,,,,,,,,,,,,,,,,,,,,,,,,,
,,6172db15b7d756655cd0bb38,65af55e1be6af047326a98c2,2024-01-23_08h01.23.969,bars,2023.2.3,Win32,59.88023952,657b66ea316d21385b68909f,,,,,,,,,,,,,,,,,,,,,,,,,,,,,,,,,,,,,,,,,,580.6694,581.1019,right,0.4234,,581.1022,0,2,582.1008,0,8,8,8,1,0,2,1,0,,,,,,,,,,,,,,,,,,,,,,,,,,,,,,,,,,,,,,,,,
,,6172db15b7d756655cd0bb38,65af55e1be6af047326a98c2,2024-01-23_08h01.23.969,bars,2023.2.3,Win32,59.88023952,657b66ea316d21385b68909f,,,,,,,,,,,,,,,,,,,,,,,,,,,,,,,,,,,,,,,,,,582.1027,582.8515,right,0.7339,,582.8518,3,2,583.851,0,9,9,9,1,2,4,2,3,,,,,,,,,,,,,,,,,,,,,,,,,,,,,,,,,,,,,,,,,
,,6172db15b7d756655cd0bb38,65af55e1be6af047326a98c2,2024-01-23_08h01.23.969,bars,2023.2.3,Win32,59.88023952,657b66ea316d21385b68909f,,,,,,,,,,,,,,,,,,,,,,,,,,,,,,,,,,,,,,,,,,583.8524,584.8846,right,1.0197,,584.8849,3,2,585.8842,0,10,10,10,1,0,2,0,3,,,,,,,,,,,,,,,,,,,,,,,,,,,,,,,,,,,,,,,,,
,,6172db15b7d756655cd0bb38,65af55e1be6af047326a98c2,2024-01-23_08h01.23.969,bars,2023.2.3,Win32,59.88023952,657b66ea316d21385b68909f,,,,,,,,,,,,,,,,,,,,,,,,,,,,,,,,,,,,,,,,,,585.8854,587.235,right,1.34,,587.2351,3,2,588.2343,0,11,11,11,1,0,4,0,3,,,,,,,,,,,,,,,,,,,,,,,,,,,,,,,,,,,,,,,,,
,,6172db15b7d756655cd0bb38,65af55e1be6af047326a98c2,2024-01-23_08h01.23.969,bars,2023.2.3,Win32,59.88023952,657b66ea316d21385b68909f,,,,,,,,,,,,,,,,,,,,,,,,,,,,,,,,,,,,,,,,,,588.278,588.8852,right,0.594,,588.8853,6,2,589.8845,0,12,12,12,1,2,6,1,6,,,,,,,,,,,,,,,,,,,,,,,,,,,,,,,,,,,,,,,,,
,,6172db15b7d756655cd0bb38,65af55e1be6af047326a98c2,2024-01-23_08h01.23.969,bars,2023.2.3,Win32,59.88023952,657b66ea316d21385b68909f,,,,,,,,,,,,,,,,,,,,,,,,,,,,,,,,,,,,,,,,,,589.8865,590.6519,right,0.7512,,590.6521,3,2,591.6515,0,13,13,13,1,0,4,1,3,,,,,,,,,,,,,,,,,,,,,,,,,,,,,,,,,,,,,,,,,
,,6172db15b7d756655cd0bb38,65af55e1be6af047326a98c2,2024-01-23_08h01.23.969,bars,2023.2.3,Win32,59.88023952,657b66ea316d21385b68909f,,,,,,,,,,,,,,,,,,,,,,,,,,,,,,,,,,,,,,,,,,591.6538,592.1711,right,0.5006,,592.1715,7,2,593.168,0,14,14,14,1,2,6,2,7,,,,,,,,,,,,,,,,,,,,,,,,,,,,,,,,,,,,,,,,,
,,6172db15b7d756655cd0bb38,65af55e1be6af047326a98c2,2024-01-23_08h01.23.969,bars,2023.2.3,Win32,59.88023952,657b66ea316d21385b68909f,,,,,,,,,,,,,,,,,,,,,,,,,,,,,,,,,,,,,,,,,,593.1694,593.8022,right,0.6219,,593.8023,9,2,594.8012,0,15,15,15,1,4,8,3,9,,,,,,,,,,,,,,,,,,,,,,,,,,,,,,,,,,,,,,,,,
,,6172db15b7d756655cd0bb38,65af55e1be6af047326a98c2,2024-01-23_08h01.23.969,bars,2023.2.3,Win32,59.88023952,657b66ea316d21385b68909f,,,,,,,,,,,,,,,,,,,,,,,,,,,,,,,,,,,,,,,,,,594.8026,595.4019,right,0.5889,,595.402,7,2,596.4011,0,16,16,16,1,6,6,7,7,,,,,,,,,,,,,,,,,,,,,,,,,,,,,,,,,,,,,,,,,
,,6172db15b7d756655cd0bb38,65af55e1be6af047326a98c2,2024-01-23_08h01.23.969,bars,2023.2.3,Win32,59.88023952,657b66ea316d21385b68909f,,,,,,,,,,,,,,,,,,,,,,,,,,,,,,,,,,,,,,,,,,596.4026,597.0858,right,0.667,,597.086,5,2,598.0844,0,17,17,17,1,8,4,9,5,,,,,,,,,,,,,,,,,,,,,,,,,,,,,,,,,,,,,,,,,
,,6172db15b7d756655cd0bb38,65af55e1be6af047326a98c2,2024-01-23_08h01.23.969,bars,2023.2.3,Win32,59.88023952,657b66ea316d21385b68909f,,,,,,,,,,,,,,,,,,,,,,,,,,,,,,,,,,,,,,,,,,598.0858,598.5691,right,0.4694,,598.5693,1,2,599.5684,0,18,18,18,1,6,2,5,1,,,,,,,,,,,,,,,,,,,,,,,,,,,,,,,,,,,,,,,,,
,,6172db15b7d756655cd0bb38,65af55e1be6af047326a98c2,2024-01-23_08h01.23.969,bars,2023.2.3,Win32,59.88023952,657b66ea316d21385b68909f,,,,,,,,,,,,,,,,,,,,,,,,,,,,,,,,,,,,,,,,,,599.5699,599.9522,left,0.3667,,599.9526,7,1,600.9513,0,19,19,19,1,8,0,7,0,,,,,,,,,,,,,,,,,,,,,,,,,,,,,,,,,,,,,,,,,
,,6172db15b7d756655cd0bb38,65af55e1be6af047326a98c2,2024-01-23_08h01.23.969,bars,2023.2.3,Win32,59.88023952,657b66ea316d21385b68909f,,,,,,,,,,,,,,,,,,,,,,,,,,,,,,,,,,,,,,,,,,,,,,,,,,,,,,,,,,,,600.9543,610.838,space,9.8539,,,,,,,,,,,,,,,,,,,,,,,,,,,,,,,,,,,,,
,,6172db15b7d756655cd0bb38,65af55e1be6af047326a98c2,2024-01-23_08h01.23.969,bars,2023.2.3,Win32,59.88023952,657b66ea316d21385b68909f,,,,,,,,,,,612.3037,613.2893,,,613.7852,614.0348,,106,106,,,,,,,,,,,,,,,,bars/015.png,bars/mask001.png,,,,,,,,,,,,6,1,,,,,,,7,5,7,6,,,,,,610.8929,612.2856,space,1.3708,,613.2906,613.785,614.0363,619.5271,space,5.468,,619.5278,4,54,620.5183,620.5194,633.1217,space,12.5616,,0,0,0,0,1,110,160,,,,,,,,
,,6172db15b7d756655cd0bb38,65af55e1be6af047326a98c2,2024-01-23_08h01.23.969,bars,2023.2.3,Win32,59.88023952,657b66ea316d21385b68909f,,,,,,,,,,,633.1732,634.138,,,634.6344,634.8843,,144,144,,,,,,,,,,,,,,,,bars/000.png,bars/mask009.png,,,,,,,,,,,,2,2,,,,,,,9,3,10,2,,,,,,,,,,,634.1383,634.6343,634.8844,640.835,space,5.9354,,640.8359,76,1,641.8343,641.8344,645.7847,space,3.8769,,0,1,1,1,1,40,145,,,,,,,,
,,6172db15b7d756655cd0bb38,65af55e1be6af047326a98c2,2024-01-23_08h01.23.969,bars,2023.2.3,Win32,59.88023952,657b66ea316d21385b68909f,,,,,,,,,,,645.7862,646.7844,,,647.2871,647.5348,,47,227,,,,,,,,,,,,,,,,bars/043.png,bars/mask003.png,,,,,,,,,,,,3,1,,,,,,,7,1,6,2,,,,,,,,,,,646.7845,647.2869,647.535,652.5021,space,4.9522,,652.5023,17,83,653.5017,653.5019,655.6191,space,2.0389,,0,2,2,2,1,30,130,,,,,,,,
,,6172db15b7d756655cd0bb38,65af55e1be6af047326a98c2,2024-01-23_08h01.23.969,bars,2023.2.3,Win32,59.88023952,657b66ea316d21385b68909f,,,,,,,,,,,655.6202,656.6179,,,657.1234,657.3688,,158,158,,,,,,,,,,,,,,,,bars/042.png,bars/mask001.png,,,,,,,,,,,,3,1,,,,,,,5,3,5,2,,,,,,,,,,,656.618,657.1231,657.369,662.6856,space,5.2923,,662.686,13,83,663.6847,663.685,665.6032,space,1.8484,,0,3,3,3,1,145,75,,,,,,,,
,,6172db15b7d756655cd0bb38,65af55e1be6af047326a98c2,2024-01-23_08h01.23.969,bars,2023.2.3,Win32,59.88023952,657b66ea316d21385b68909f,,,,,,,,,,,665.6048,666.6063,,,667.1053,667.3512,,50,50,,,,,,,,,,,,,,,,bars/042.png,bars/mask002.png,,,,,,,,,,,,0,2,,,,,,,7,1,6,2,,,,,,,,,,,666.6063,667.1052,667.3514,672.0681,space,4.703,,672.0684,85,25,673.0679,673.068,674.9356,space,1.804,,0,4,4,4,1,145,75,,,,,,,,
,,6172db15b7d756655cd0bb38,65af55e1be6af047326a98c2,2024-01-23_08h01.23.969,bars,2023.2.3,Win32,59.88023952,657b66ea316d21385b68909f,,,,,,,,,,,674.9373,675.9344,,,676.4236,676.6733,,74,74,,,,,,,,,,,,,,,,bars/029.png,bars/mask004.png,,,,,,,,,,,,2,1,,,,,,,5,0,5,0,,,,,,,,,,,675.9345,676.4233,676.6734,680.4262,space,3.7357,,680.4263,16,29,681.4234,681.4236,687.7859,space,6.2929,,0,5,5,5,1,90,45,,,,,,,,
,,6172db15b7d756655cd0bb38,65af55e1be6af047326a98c2,2024-01-23_08h01.23.969,bars,2023.2.3,Win32,59.88023952,657b66ea316d21385b68909f,,,,,,,,,,,687.8267,688.7896,,,689.2849,689.535,,102,102,,,,,,,,,,,,,,,,bars/045.png,bars/mask004.png,,,,,,,,,,,,7,1,,,,,,,7,2,8,3,,,,,,,,,,,688.7898,689.2848,689.5352,692.9183,space,3.3667,,692.9187,2,88,693.9181,693.9183,697.5094,space,3.5434,,0,6,6,6,1,100,10,,,,,,,,
,,6172db15b7d756655cd0bb38,65af55e1be6af047326a98c2,2024-01-23_08h01.23.969,bars,2023.2.3,Win32,59.88023952,657b66ea316d21385b68909f,,,,,,,,,,,697.5554,698.5176,,,699.0184,699.2683,,138,-42,,,,,,,,,,,,,,,,bars/044.png,bars/mask000.png,,,,,,,,,,,,0,2,,,,,,,9,0,10,1,,,,,,,,,,,698.5178,699.0183,699.2686,706.8361,space,7.5531,,706.8364,63,17,707.8351,707.8353,709.2021,space,1.2952,,0,7,7,7,1,75,155,,,,,,,,
,,6172db15b7d756655cd0bb38,65af55e1be6af047326a98c2,2024-01-23_08h01.23.969,bars,2023.2.3,Win32,59.88023952,657b66ea316d21385b68909f,,,,,,,,,,,709.2035,710.2012,,,710.6903,710.9351,,27,207,,,,,,,,,,,,,,,,bars/012.png,bars/mask009.png,,,,,,,,,,,,0,2,,,,,,,7,0,6,0,,,,,,,,,,,710.2013,710.6901,710.9353,715.0598,space,4.1026,,715.06,63,12,716.0565,716.0567,718.9019,space,2.785,,0,8,8,8,1,90,15,,,,,,,,
,,6172db15b7d756655cd0bb38,65af55e1be6af047326a98c2,2024-01-23_08h01.23.969,bars,2023.2.3,Win32,59.88023952,657b66ea316d21385b68909f,,,,,,,,,,,718.9034,719.9014,,,720.4019,720.6512,,70,70,,,,,,,,,,,,,,,,bars/029.png,bars/mask004.png,,,,,,,,,,,,1,1,,,,,,,5,2,4,1,,,,,,,,,,,719.9016,720.4018,720.6513,723.202,space,2.5359,,723.2024,20,25,724.2013,724.2015,726.6373,space,2.3678,,0,9,9,9,1,90,45,,,,,,,,
,,6172db15b7d756655cd0bb38,65af55e1be6af047326a98c2,2024-01-23_08h01.23.969,bars,2023.2.3,Win32,59.88023952,657b66ea316d21385b68909f,,,,,,,,,,,726.6394,727.6345,,,728.1351,728.3733,,134,134,,,,,,,,,,,,,,,,bars/037.png,bars/mask001.png,,,,,,,,,,,,2,1,,,,,,,3,0,4,0,,,,,,,,,,,727.6347,728.1348,728.3735,731.5761,space,3.1855,,731.5761,16,29,732.5688,732.5689,734.6062,space,1.9726,,0,10,10,10,1,150,105,,,,,,,,
,,6172db15b7d756655cd0bb38,65af55e1be6af047326a98c2,2024-01-23_08h01.23.969,bars,2023.2.3,Win32,59.88023952,657b66ea316d21385b68909f,,,,,,,,,,,734.6071,735.6019,,,736.1021,736.3518,,30,30,,,,,,,,,,,,,,,,bars/041.png,bars/mask003.png,,,,,,,,,,,,1,1,,,,,,,1,0,1,0,,,,,,,,,,,735.6021,736.1018,736.3522,742.4025,space,6.0352,,742.4028,10,55,743.4016,743.4018,745.1602,space,1.6942,,0,11,11,11,1,20,85,,,,,,,,
,,6172db15b7d756655cd0bb38,65af55e1be6af047326a98c2,2024-01-23_08h01.23.969,bars,2023.2.3,Win32,59.88023952,657b66ea316d21385b68909f,,,,,,,,,,,745.1616,746.1518,,,746.6571,746.9066,,103,103,,,,,,,,,,,,,,,,bars/027.png,bars/mask001.png,,,,,,,,,,,,2,1,,,,,,,3,0,3,0,,,,,,,,,,,746.1521,746.657,746.9068,750.9098,space,3.9861,,750.9101,7,53,751.9067,751.9068,754.4517,space,2.4787,,0,12,12,12,1,110,50,,,,,,,,
,,6172db15b7d756655cd0bb38,65af55e1be6af047326a98c2,2024-01-23_08h01.23.969,bars,2023.2.3,Win32,59.88023952,657b66ea316d21385b68909f,,,,,,,,,,,754.4967,755.4532,,,755.951,756.2014,,116,116,,,,,,,,,,,,,,,,bars/008.png,bars/mask007.png,,,,,,,,,,,,3,1,,,,,,,5,0,4,0,,,,,,,,,,,755.4534,755.9509,756.2017,759.3852,space,3.1705,,759.3854,6,64,760.3849,760.3851,761.6861,space,1.2353,,0,13,13,13,1,110,0,,,,,,,,
,,6172db15b7d756655cd0bb38,65af55e1be6af047326a98c2,2024-01-23_08h01.23.969,bars,2023.2.3,Win32,59.88023952,657b66ea316d21385b68909f,,,,,,,,,,,761.6876,762.6845,,,763.1907,763.435,,38,38,,,,,,,,,,,,,,,,bars/003.png,bars/mask001.png,,,,,,,,,,,,2,1,,,,,,,3,0,3,2,,,,,,,,,,,762.6847,763.1905,763.4353,765.9259,space,2.4688,,765.926,13,78,766.9184,766.9187,767.9686,space,0.9856,,0,14,14,14,1,25,140,,,,,,,,
,,6172db15b7d756655cd0bb38,65af55e1be6af047326a98c2,2024-01-23_08h01.23.969,bars,2023.2.3,Win32,59.88023952,657b66ea316d21385b68909f,,,,,,,,,,,767.9708,768.9735,,,769.4686,769.7183,,136,-44,,,,,,,,,,,,,,,,bars/007.png,bars/mask004.png,,,,,,,,,,,,0,1,,,,,,,5,2,4,3,,,,,,,,,,,768.9736,769.4683,769.7185,773.3028,space,3.5741,,773.3031,39,81,774.3016,774.3018,774.4682,space,0.105,,0,15,15,15,1,175,55,,,,,,,,
,,6172db15b7d756655cd0bb38,65af55e1be6af047326a98c2,2024-01-23_08h01.23.969,bars,2023.2.3,Win32,59.88023952,657b66ea316d21385b68909f,,,,,,,,,,,774.47,775.4687,,,775.9684,776.223,,139,-41,,,,,,,,,,,,,,,,bars/049.png,bars/mask008.png,,,,,,,,,,,,2,1,,,,,,,7,4,8,3,,,,,,,,,,,775.4688,775.9682,776.2233,780.7929,space,4.5523,,780.7931,21,24,781.7894,781.7894,783.1231,space,1.3075,,0,16,16,16,1,160,115,,,,,,,,
,,6172db15b7d756655cd0bb38,65af55e1be6af047326a98c2,2024-01-23_08h01.23.969,bars,2023.2.3,Win32,59.88023952,657b66ea316d21385b68909f,,,,,,,,,,,783.1236,784.1214,,,784.6184,784.8682,,159,159,,,,,,,,,,,,,,,,bars/021.png,bars/mask002.png,,,,,,,,,,,,8,1,,,,,,,9,2,9,3,,,,,,,,,,,784.1216,784.6183,784.8684,791.2519,space,6.3699,,791.2522,4,89,792.2515,792.2516,793.727,space,1.4131,,0,17,17,17,1,155,70,,,,,,,,
,,6172db15b7d756655cd0bb38,65af55e1be6af047326a98c2,2024-01-23_08h01.23.969,bars,2023.2.3,Win32,59.88023952,657b66ea316d21385b68909f,,,,,,,,,,,793.728,794.7234,,,795.2183,795.4724,,144,144,,,,,,,,,,,,,,,,bars/021.png,bars/mask009.png,,,,,,,,,,,,6,1,,,,,,,10,0,10,1,,,,,,,,,,,794.7235,795.2181,795.4726,798.7082,space,3.217,,798.7083,11,74,799.7019,799.7021,801.1356,space,1.3756,,0,18,18,18,1,155,70,,,,,,,,
,,6172db15b7d756655cd0bb38,65af55e1be6af047326a98c2,2024-01-23_08h01.23.969,bars,2023.2.3,Win32,59.88023952,657b66ea316d21385b68909f,,,,,,,,,,,801.1371,802.135,,,802.6359,802.8855,,14,14,,,,,,,,,,,,,,,,bars/023.png,bars/mask006.png,,,,,,,,,,,,6,1,,,,,,,10,0,7,0,,,,,,,,,,,802.1352,802.6355,802.8856,807.036,space,4.1354,,807.0362,6,79,808.0352,808.0354,809.1856,space,1.0886,,0,19,19,19,1,20,115,,,,,,,,
,,6172db15b7d756655cd0bb38,65af55e1be6af047326a98c2,2024-01-23_08h01.23.969,bars,2023.2.3,Win32,59.88023952,657b66ea316d21385b68909f,,,,,,,,,,,809.1871,810.1849,,,810.6883,810.9399,,142,-38,,,,,,,,,,,,,,,,bars/030.png,bars/mask000.png,,,,,,,,,,,,7,1,,,,,,,8,2,7,3,,,,,,,,,,,810.185,810.6881,810.9401,816.0686,space,5.1097,,816.0689,2,77,817.0683,817.0686,817.4695,space,0.3329,,0,20,20,20,1,140,65,,,,,,,,
,,6172db15b7d756655cd0bb38,65af55e1be6af047326a98c2,2024-01-23_08h01.23.969,bars,2023.2.3,Win32,59.88023952,657b66ea316d21385b68909f,,,,,,,,,,,817.4713,818.4686,,,818.9699,819.2221,,35,35,,,,,,,,,,,,,,,,bars/026.png,bars/mask004.png,,,,,,,,,,,,10,1,,,,,,,10,4,10,4,,,,,,,,,,,818.469,818.9692,819.2224,823.3765,space,4.1356,,823.3767,0,50,824.3683,824.3685,826.3355,space,1.9036,,0,21,21,21,1,35,85,,,,,,,,
,,6172db15b7d756655cd0bb38,65af55e1be6af047326a98c2,2024-01-23_08h01.23.969,bars,2023.2.3,Win32,59.88023952,657b66ea316d21385b68909f,,,,,,,,,,,826.3371,827.3348,,,827.8355,828.0851,,111,111,,,,,,,,,,,,,,,,bars/012.png,bars/mask009.png,,,,,,,,,,,,2,1,,,,,,,8,2,7,2,,,,,,,,,,,827.335,827.8353,828.0852,831.5688,space,3.4705,,831.5691,21,84,832.5683,832.5685,833.6188,space,0.9866,,0,22,22,22,1,90,15,,,,,,,,
,,6172db15b7d756655cd0bb38,65af55e1be6af047326a98c2,2024-01-23_08h01.23.969,bars,2023.2.3,Win32,59.88023952,657b66ea316d21385b68909f,,,,,,,,,,,833.6205,834.6183,,,835.1082,835.357,,148,148,,,,,,,,,,,,,,,,bars/011.png,bars/mask008.png,,,,,,,,,,,,5,1,,,,,,,10,0,9,0,,,,,,,,,,,834.6185,835.1079,835.3572,838.0773,space,2.7033,,838.0774,12,63,839.0737,839.0739,840.3024,space,1.165,,0,23,23,23,1,160,85,,,,,,,,
,,6172db15b7d756655cd0bb38,65af55e1be6af047326a98c2,2024-01-23_08h01.23.969,bars,2023.2.3,Win32,59.88023952,657b66ea316d21385b68909f,,,,,,,,,,,840.3039,841.3017,,,841.8021,842.0531,,168,168,,,,,,,,,,,,,,,,bars/010.png,bars/mask002.png,,,,,,,,,,,,9,1,,,,,,,10,0,10,0,,,,,,,,,,,841.3018,841.802,842.0533,844.602,space,2.5367,,844.6022,3,67,845.602,845.6021,846.4272,space,0.7606,,0,24,24,24,1,165,55,,,,,,,,
,,6172db15b7d756655cd0bb38,65af55e1be6af047326a98c2,2024-01-23_08h01.23.969,bars,2023.2.3,Win32,59.88023952,657b66ea316d21385b68909f,,,,,,,,,,,846.4286,847.4235,,,847.9189,848.1734,,147,-33,,,,,,,,,,,,,,,,bars/008.png,bars/mask006.png,,,,,,,,,,,,0,2,,,,,,,8,0,8,2,,,,,,,,,,,847.4236,847.9185,848.1735,852.0938,space,3.9032,,852.094,37,33,853.0855,853.0857,853.9522,space,0.7963,,0,25,25,25,1,110,0,,,,,,,,
,,6172db15b7d756655cd0bb38,65af55e1be6af047326a98c2,2024-01-23_08h01.23.969,bars,2023.2.3,Win32,59.88023952,657b66ea316d21385b68909f,,,,,,,,,,,853.9572,854.9518,,,855.4524,855.6905,,17,17,,,,,,,,,,,,,,,,bars/006.png,bars/mask008.png,,,,,,,,,,,,4,1,,,,,,,10,0,10,2,,,,,,,,,,,854.9519,855.4522,855.6905,858.76,space,3.0523,,858.7601,18,83,859.757,859.7571,860.2852,space,0.4626,,0,26,26,26,1,35,100,,,,,,,,
,,6172db15b7d756655cd0bb38,65af55e1be6af047326a98c2,2024-01-23_08h01.23.969,bars,2023.2.3,Win32,59.88023952,657b66ea316d21385b68909f,,,,,,,,,,,860.2868,861.2849,,,861.7854,862.0351,,11,11,,,,,,,,,,,,,,,,bars/003.png,bars/mask000.png,,,,,,,,,,,,3,1,,,,,,,8,2,6,2,,,,,,,,,,,861.2851,861.7853,862.0352,865.786,space,3.7354,,865.7862,14,51,866.785,866.785,867.7857,space,0.942,,0,27,27,27,1,25,140,,,,,,,,
,,6172db15b7d756655cd0bb38,65af55e1be6af047326a98c2,2024-01-23_08h01.23.969,bars,2023.2.3,Win32,59.88023952,657b66ea316d21385b68909f,,,,,,,,,,,867.7871,868.7854,,,869.2853,869.5355,,111,-69,,,,,,,,,,,,,,,,bars/001.png,bars/mask003.png,,,,,,,,,,,,2,1,,,,,,,6,4,6,4,,,,,,,,,,,868.7856,869.2851,869.5357,874.5356,space,4.9836,,874.5359,19,26,875.5351,875.5352,875.9273,space,0.3281,,0,28,28,28,1,130,85,,,,,,,,
,,6172db15b7d756655cd0bb38,65af55e1be6af047326a98c2,2024-01-23_08h01.23.969,bars,2023.2.3,Win32,59.88023952,657b66ea316d21385b68909f,,,,,,,,,,,875.9284,876.9186,,,877.4074,877.6525,,130,130,,,,,,,,,,,,,,,,bars/025.png,bars/mask007.png,,,,,,,,,,,,1,1,,,,,,,4,6,5,7,,,,,,,,,,,876.9188,877.4073,877.6527,881.6599,space,3.9852,,881.6601,25,90,882.6575,882.6576,885.7695,space,3.0459,,0,29,29,29,1,105,40,,,,,,,,
,,6172db15b7d756655cd0bb38,65af55e1be6af047326a98c2,2024-01-23_08h01.23.969,bars,2023.2.3,Win32,59.88023952,657b66ea316d21385b68909f,,,,,,,,,,,885.8138,886.7851,,,887.2741,887.5222,,48,48,,,,,,,,,,,,,,,,bars/028.png,bars/mask002.png,,,,,,,,,,,,6,1,,,,,,,6,8,7,8,,,,,,,,,,,886.7851,887.274,887.5222,890.1099,space,2.5689,,890.11,3,72,891.107,891.1072,893.2861,space,2.1117,,0,30,30,30,1,45,120,,,,,,,,
,,6172db15b7d756655cd0bb38,65af55e1be6af047326a98c2,2024-01-23_08h01.23.969,bars,2023.2.3,Win32,59.88023952,657b66ea316d21385b68909f,,,,,,,,,,,893.2882,894.2855,,,894.786,895.0355,,37,37,,,,,,,,,,,,,,,,bars/019.png,bars/mask009.png,,,,,,,,,,,,5,1,,,,,,,8,6,7,6,,,,,,,,,,,894.2856,894.7858,895.0357,898.3698,space,3.3192,,898.37,8,68,899.3689,899.369,902.6917,space,3.2615,,0,31,31,31,1,45,105,,,,,,,,
,,6172db15b7d756655cd0bb38,65af55e1be6af047326a98c2,2024-01-23_08h01.23.969,bars,2023.2.3,Win32,59.88023952,657b66ea316d21385b68909f,,,,,,,,,,,902.6925,903.6907,,,904.1852,904.4354,,50,50,,,,,,,,,,,,,,,,bars/014.png,bars/mask005.png,,,,,,,,,,,,0,1,,,,,,,6,4,7,3,,,,,,,,,,,903.691,904.1851,904.4354,908.5211,space,4.0763,,908.5213,30,50,909.5186,909.5188,909.5847,space,0.0028,,0,32,32,32,1,80,0,,,,,,,,
,,6172db15b7d756655cd0bb38,65af55e1be6af047326a98c2,2024-01-23_08h01.23.969,bars,2023.2.3,Win32,59.88023952,657b66ea316d21385b68909f,,,,,,,,,,,909.5861,910.5903,,,911.0866,911.3357,,90,-90,,,,,,,,,,,,,,,,bars/029.png,bars/mask005.png,,,,,,,,,,,,8,1,,,,,,,8,6,8,4,,,,,,,,,,,910.5904,911.0864,911.3361,920.0437,space,8.6856,,920.0438,0,45,921.0404,921.0407,922.6437,space,1.5426,,0,33,33,33,1,90,45,,,,,,,,
,,6172db15b7d756655cd0bb38,65af55e1be6af047326a98c2,2024-01-23_08h01.23.969,bars,2023.2.3,Win32,59.88023952,657b66ea316d21385b68909f,,,,,,,,,,,922.6446,923.6355,,,924.1359,924.3855,,119,119,,,,,,,,,,,,,,,,bars/040.png,bars/mask003.png,,,,,,,,,,,,3,1,,,,,,,10,8,10,7,,,,,,,,,,,923.6357,924.1356,924.3859,927.0032,space,2.6026,,927.0035,21,66,928.0023,928.0027,928.7271,space,0.6624,,0,34,34,34,1,140,5,,,,,,,,
,,6172db15b7d756655cd0bb38,65af55e1be6af047326a98c2,2024-01-23_08h01.23.969,bars,2023.2.3,Win32,59.88023952,657b66ea316d21385b68909f,,,,,,,,,,,928.728,929.7236,,,930.2243,930.4692,,134,134,,,,,,,,,,,,,,,,bars/042.png,bars/mask003.png,,,,,,,,,,,,4,1,,,,,,,8,10,6,10,,,,,,,,,,,929.7236,930.2242,930.4696,932.4769,space,1.9852,,932.477,11,59,933.4738,933.474,933.9436,space,0.4114,,0,35,35,35,1,145,75,,,,,,,,
,,6172db15b7d756655cd0bb38,65af55e1be6af047326a98c2,2024-01-23_08h01.23.969,bars,2023.2.3,Win32,59.88023952,657b66ea316d21385b68909f,,,,,,,,,,,933.9446,934.9403,,,935.4357,935.6856,,137,137,,,,,,,,,,,,,,,,bars/036.png,bars/mask009.png,,,,,,,,,,,,5,1,,,,,,,6,8,7,8,,,,,,,,,,,934.9404,935.4355,935.6857,940.5196,space,4.819,,940.5199,8,63,941.519,941.5192,949.869,space,8.2818,,0,36,36,36,1,145,20,,,,,,,,
,,6172db15b7d756655cd0bb38,65af55e1be6af047326a98c2,2024-01-23_08h01.23.969,bars,2023.2.3,Win32,59.88023952,657b66ea316d21385b68909f,,,,,,,,,,,949.9157,950.8855,,,951.3859,951.6353,,49,49,,,,,,,,,,,,,,,,bars/044.png,bars/mask001.png,,,,,,,,,,,,1,1,,,,,,,4,6,4,6,,,,,,,,,,,950.8856,951.3857,951.6354,956.653,space,5.0023,,956.6532,26,74,957.652,957.6522,958.7529,space,1.0366,,0,37,37,37,1,75,155,,,,,,,,
,,6172db15b7d756655cd0bb38,65af55e1be6af047326a98c2,2024-01-23_08h01.23.969,bars,2023.2.3,Win32,59.88023952,657b66ea316d21385b68909f,,,,,,,,,,,958.7542,959.752,,,960.2521,960.5021,,65,65,,,,,,,,,,,,,,,,bars/014.png,bars/mask002.png,,,,,,,,,,,,3,1,,,,,,,6,4,6,4,,,,,,,,,,,959.7522,960.252,960.5023,965.3535,space,4.8365,,965.3538,15,65,966.3521,966.3523,968.4776,space,2.0633,,0,38,38,38,1,80,0,,,,,,,,
,,6172db15b7d756655cd0bb38,65af55e1be6af047326a98c2,2024-01-23_08h01.23.969,bars,2023.2.3,Win32,59.88023952,657b66ea316d21385b68909f,,,,,,,,,,,968.4786,969.4735,,,969.9691,970.2188,,55,55,,,,,,,,,,,,,,,,bars/048.png,bars/mask002.png,,,,,,,,,,,,6,1,,,,,,,8,6,7,6,,,,,,,,,,,969.4737,969.9689,970.219,972.6192,space,2.3864,,972.6194,5,60,973.6189,973.6189,975.6194,space,1.9376,,0,39,39,39,1,50,175,,,,,,,,
,,6172db15b7d756655cd0bb38,65af55e1be6af047326a98c2,2024-01-23_08h01.23.969,bars,2023.2.3,Win32,59.88023952,657b66ea316d21385b68909f,,,,,,,,,,,975.621,976.6189,,,977.1189,977.3688,,154,154,,,,,,,,,,,,,,,,bars/040.png,bars/mask008.png,,,,,,,,,,,,5,1,,,,,,,10,4,9,3,,,,,,,,,,,976.6191,977.1188,977.3689,980.2189,space,2.8403,,980.2192,14,31,981.2189,981.2191,982.6193,space,1.341,,0,40,40,40,1,140,5,,,,,,,,
,,6172db15b7d756655cd0bb38,65af55e1be6af047326a98c2,2024-01-23_08h01.23.969,bars,2023.2.3,Win32,59.88023952,657b66ea316d21385b68909f,,,,,,,,,,,982.6215,983.6188,,,984.119,984.3689,,155,155,,,,,,,,,,,,,,,,bars/027.png,bars/mask006.png,,,,,,,,,,,,0,1,,,,,,,8,2,9,0,,,,,,,,,,,983.619,984.1188,984.369,986.7215,space,2.3429,,986.7216,45,75,987.7188,987.7189,988.4527,space,0.7111,,0,41,41,41,1,110,50,,,,,,,,
,,6172db15b7d756655cd0bb38,65af55e1be6af047326a98c2,2024-01-23_08h01.23.969,bars,2023.2.3,Win32,59.88023952,657b66ea316d21385b68909f,,,,,,,,,,,988.4545,989.4521,,,989.9524,990.2023,,113,113,,,,,,,,,,,,,,,,bars/025.png,bars/mask009.png,,,,,,,,,,,,7,1,,,,,,,10,0,10,0,,,,,,,,,,,989.4523,989.9523,990.2024,992.4356,space,2.2212,,992.4359,8,73,993.4344,993.4345,995.3539,space,1.8895,,0,42,42,42,1,105,40,,,,,,,,
,,6172db15b7d756655cd0bb38,65af55e1be6af047326a98c2,2024-01-23_08h01.23.969,bars,2023.2.3,Win32,59.88023952,657b66ea316d21385b68909f,,,,,,,,,,,995.3553,996.3522,,,996.8582,997.1027,,114,-66,,,,,,,,,,,,,,,,bars/017.png,bars/mask006.png,,,,,,,,,,,,0,1,,,,,,,8,2,8,2,,,,,,,,,,,996.3522,996.8582,997.1028,1001.1412,space,4.0172,,1001.1413,31,69,1002.1357,1002.1359,1002.5027,space,0.306,,0,43,43,43,1,145,45,,,,,,,,
,,6172db15b7d756655cd0bb38,65af55e1be6af047326a98c2,2024-01-23_08h01.23.969,bars,2023.2.3,Win32,59.88023952,657b66ea316d21385b68909f,,,,,,,,,,,1002.5043,1003.5021,,,1004.0025,1004.2523,,139,-41,,,,,,,,,,,,,,,,bars/029.png,bars/mask000.png,,,,,,,,,,,,0,1,,,,,,,10,0,10,1,,,,,,,,,,,1003.5022,1004.0024,1004.2525,1009.4035,space,5.1342,,1009.4037,49,86,1010.4026,1010.4028,1011.8199,space,1.358,,0,44,44,44,1,90,45,,,,,,,,
,,6172db15b7d756655cd0bb38,65af55e1be6af047326a98c2,2024-01-23_08h01.23.969,bars,2023.2.3,Win32,59.88023952,657b66ea316d21385b68909f,,,,,,,,,,,1011.8215,1012.819,,,1013.3072,1013.5575,,126,126,,,,,,,,,,,,,,,,bars/034.png,bars/mask000.png,,,,,,,,,,,,8,1,,,,,,,8,0,8,0,,,,,,,,,,,1012.8191,1013.307,1013.5577,1017.5603,space,3.9855,,1017.5604,1,61,1018.5526,1018.5529,1019.219,space,0.6038,,0,45,45,45,1,125,65,,,,,,,,
,,6172db15b7d756655cd0bb38,65af55e1be6af047326a98c2,2024-01-23_08h01.23.969,bars,2023.2.3,Win32,59.88023952,657b66ea316d21385b68909f,,,,,,,,,,,1019.2208,1020.219,,,1020.7191,1020.969,,94,-86,,,,,,,,,,,,,,,,bars/012.png,bars/mask001.png,,,,,,,,,,,,9,1,,,,,,,10,2,10,3,,,,,,,,,,,1020.2191,1020.719,1020.9691,1025.6357,space,4.6572,,1025.6361,4,79,1026.6358,1026.636,1027.1777,space,0.4796,,0,46,46,46,1,90,15,,,,,,,,
,,6172db15b7d756655cd0bb38,65af55e1be6af047326a98c2,2024-01-23_08h01.23.969,bars,2023.2.3,Win32,59.88023952,657b66ea316d21385b68909f,,,,,,,,,,,1027.1786,1028.1694,,,1028.6697,1028.9079,,2,182,,,,,,,,,,,,,,,,bars/049.png,bars/mask006.png,,,,,,,,,,,,2,1,,,,,,,8,0,8,0,,,,,,,,,,,1028.1695,1028.6695,1028.908,1031.5766,space,2.6517,,1031.5768,22,67,1032.5747,1032.5749,1032.8938,space,0.2982,,0,47,47,47,1,160,115,,,,,,,,
,,6172db15b7d756655cd0bb38,65af55e1be6af047326a98c2,2024-01-23_08h01.23.969,bars,2023.2.3,Win32,59.88023952,657b66ea316d21385b68909f,,,,,,,,,,,1032.8948,1033.886,,,1034.374,1034.6242,,89,89,,,,,,,,,,,,,,,,bars/045.png,bars/mask001.png,,,,,,,,,,,,3,1,,,,,,,6,2,5,5,,,,,,,,,,,1033.8861,1034.374,1034.6244,1041.1275,space,6.4855,,1041.1276,11,79,1042.1193,1042.1195,1044.5037,space,2.3142,,0,48,48,48,1,100,10,,,,,,,,
,,6172db15b7d756655cd0bb38,65af55e1be6af047326a98c2,2024-01-23_08h01.23.969,bars,2023.2.3,Win32,59.88023952,657b66ea316d21385b68909f,,,,,,,,,,,1044.5052,1045.5027,,,1046.003,1046.2528,,168,168,,,,,,,,,,,,,,,,bars/047.png,bars/mask006.png,,,,,,,,,,,,1,1,,,,,,,8,4,8,4,,,,,,,,,,,1045.5028,1046.0027,1046.2529,1049.8866,space,3.6235,,1049.8867,27,82,1050.8863,1050.8865,1051.4109,space,0.4617,,0,49,49,49,1,15,70,,,,,,,,
,,6172db15b7d756655cd0bb38,65af55e1be6af047326a98c2,2024-01-23_08h01.23.969,bars,2023.2.3,Win32,59.88023952,657b66ea316d21385b68909f,,,,,,,,,,,,,,,,,,,,,,,,,,,,,,,,,,,,,,,,,,,,,,,,,,,,,,,,,,,,,,,,,,,,,,,,,,,,,,,,,,,,,,,,,,,,,1051.4135,1111.4113,0,0,0,2,1,sequence_tables/blk004.csv
,,6172db15b7d756655cd0bb38,65af55e1be6af047326a98c2,2024-01-23_08h01.23.969,bars,2023.2.3,Win32,59.88023952,657b66ea316d21385b68909f,,,,,,,,,,,1135.5802,1136.5364,,,1137.0364,1137.2864,,98,98,,,,,,,,,,,,,,,,bars/024.png,bars/mask003.png,,,,,,,,,,,,1,1,,,,,,,1,3,2,3,,,,,,1111.4574,1135.5216,space,24.0509,,1136.5367,1137.0362,1137.2866,1140.9199,space,3.6186,,1140.9202,22,72,1141.9193,1141.9194,1141.9638,,,,0,0,0,0,1,120,170,,,,,,,,
,,6172db15b7d756655cd0bb38,65af55e1be6af047326a98c2,2024-01-23_08h01.23.969,bars,2023.2.3,Win32,59.88023952,657b66ea316d21385b68909f,,,,,,,,,,,1141.9646,1142.9526,,,1143.4529,1143.7028,,123,123,,,,,,,,,,,,,,,,bars/047.png,bars/mask000.png,,,,,,,,,,,,0,2,,,,,,,3,5,4,6,,,,,,,,,,,1142.9528,1143.4528,1143.7028,1160.6863,space,16.9724,,1160.6866,72,53,1161.6862,1161.6863,1161.7316,,,,0,1,1,1,1,15,70,,,,,,,,
,,6172db15b7d756655cd0bb38,65af55e1be6af047326a98c2,2024-01-23_08h01.23.969,bars,2023.2.3,Win32,59.88023952,657b66ea316d21385b68909f,,,,,,,,,,,1161.7321,1162.736,,,1163.2367,1163.4866,,128,-52,,,,,,,,,,,,,,,,bars/046.png,bars/mask000.png,,,,,,,,,,,,0,1,,,,,,,1,3,2,3,,,,,,,,,,,1162.7361,1163.2366,1163.4869,1187.837,space,24.3346,,1187.8379,27,43,1188.8365,1188.8367,1188.89,,,,0,2,2,2,1,155,85,,,,,,,,
,,6172db15b7d756655cd0bb38,65af55e1be6af047326a98c2,2024-01-23_08h01.23.969,bars,2023.2.3,Win32,59.88023952,657b66ea316d21385b68909f,,,,,,,,,,,1188.8908,1189.8862,,,1190.3867,1190.6251,,149,149,,,,,,,,,,,,,,,,bars/032.png,bars/mask001.png,,,,,,,,,,,,0,1,,,,,,,0,1,1,1,,,,,,,,,,,1189.8863,1190.3864,1190.6251,1197.7947,space,7.1526,,1197.7949,24,51,1198.7919,1198.792,1198.8402,,,,0,3,3,3,1,125,20,,,,,,,,
,,6172db15b7d756655cd0bb38,65af55e1be6af047326a98c2,2024-01-23_08h01.23.969,bars,2023.2.3,Win32,59.88023952,657b66ea316d21385b68909f,,,,,,,,,,,1198.8408,1199.8367,,,1200.3416,1200.5867,,122,122,,,,,,,,,,,,,,,,bars/007.png,bars/mask002.png,,,,,,,,,,,,0,1,,,,,,,2,3,1,3,,,,,,,,,,,1199.8369,1200.3414,1200.5869,1204.4443,space,3.8358,,1204.4443,53,67,1205.4367,1205.4369,1205.4817,,,,0,4,4,4,1,175,55,,,,,,,,
,,6172db15b7d756655cd0bb38,65af55e1be6af047326a98c2,2024-01-23_08h01.23.969,bars,2023.2.3,Win32,59.88023952,657b66ea316d21385b68909f,,,,,,,,,,,1205.4823,1206.4861,,,1206.9873,1207.2415,,118,118,,,,,,,,,,,,,,,,bars/001.png,bars/mask001.png,,,,,,,,,,,,2,1,,,,,,,4,1,3,1,,,,,,,,,,,1206.4862,1206.9871,1207.2417,1211.694,space,4.4354,,1211.6941,12,33,1212.6913,1212.6913,1212.7351,,,,0,5,5,5,1,130,85,,,,,,,,
,,6172db15b7d756655cd0bb38,65af55e1be6af047326a98c2,2024-01-23_08h01.23.969,bars,2023.2.3,Win32,59.88023952,657b66ea316d21385b68909f,,,,,,,,,,,1212.7359,1213.7361,,,1214.242,1214.487,,22,22,,,,,,,,,,,,,,,,bars/038.png,bars/mask004.png,,,,,,,,,,,,0,1,,,,,,,6,3,5,2,,,,,,,,,,,1213.7363,1214.2419,1214.4871,1223.0374,space,8.5346,,1223.0376,37,48,1224.0367,1224.0368,1224.0868,,,,0,6,6,6,1,165,70,,,,,,,,
,,6172db15b7d756655cd0bb38,65af55e1be6af047326a98c2,2024-01-23_08h01.23.969,bars,2023.2.3,Win32,59.88023952,657b66ea316d21385b68909f,,,,,,,,,,,1224.0874,1225.0863,,,1225.5864,1225.8366,,32,32,,,,,,,,,,,,,,,,bars/048.png,bars/mask007.png,,,,,,,,,,,,2,1,,,,,,,4,5,5,4,,,,,,,,,,,1225.0864,1225.5864,1225.8368,1229.4116,space,3.5524,,1229.4117,18,37,1230.4033,1230.4035,1230.4502,,,,0,7,7,7,1,50,175,,,,,,,,
,,6172db15b7d756655cd0bb38,65af55e1be6af047326a98c2,2024-01-23_08h01.23.969,bars,2023.2.3,Win32,59.88023952,657b66ea316d21385b68909f,,,,,,,,,,,1230.4505,1231.453,,,1231.9414,1232.1869,,91,271,,,,,,,,,,,,,,,,bars/031.png,bars/mask004.png,,,,,,,,,,,,0,1,,,,,,,6,7,7,8,,,,,,,,,,,1231.4531,1231.9413,1232.1872,1239.4778,space,7.2691,,1239.4778,29,56,1240.4745,1240.4747,1240.527,,,,0,8,8,8,1,120,35,,,,,,,,
,,6172db15b7d756655cd0bb38,65af55e1be6af047326a98c2,2024-01-23_08h01.23.969,bars,2023.2.3,Win32,59.88023952,657b66ea316d21385b68909f,,,,,,,,,,,1240.5277,1241.5248,,,1242.02,1242.2699,,68,68,,,,,,,,,,,,,,,,bars/026.png,bars/mask003.png,,,,,,,,,,,,3,2,,,,,,,4,9,5,8,,,,,,,,,,,1241.5249,1242.0198,1242.27,1247.637,space,5.3523,,1247.6374,33,17,1248.6365,1248.6366,1248.686,,,,0,9,9,9,1,35,85,,,,,,,,
,,6172db15b7d756655cd0bb38,65af55e1be6af047326a98c2,2024-01-23_08h01.23.969,bars,2023.2.3,Win32,59.88023952,657b66ea316d21385b68909f,,,,,,,,,,,1248.6867,1249.6864,,,1250.1867,1250.4362,,113,113,,,,,,,,,,,,,,,,bars/042.png,bars/mask006.png,,,,,,,,,,,,0,1,,,,,,,6,10,6,10,,,,,,,,,,,1249.6865,1250.1866,1250.4363,1253.9364,space,3.488,,1253.9366,32,38,1254.9364,1254.9365,1254.9834,,,,0,10,10,10,1,145,75,,,,,,,,
,,6172db15b7d756655cd0bb38,65af55e1be6af047326a98c2,2024-01-23_08h01.23.969,bars,2023.2.3,Win32,59.88023952,657b66ea316d21385b68909f,,,,,,,,,,,1254.9841,1255.9864,,,1256.4869,1256.7367,,150,-30,,,,,,,,,,,,,,,,bars/040.png,bars/mask007.png,,,,,,,,,,,,6,1,,,,,,,8,8,9,9,,,,,,,,,,,1255.9865,1256.4865,1256.7367,1262.4535,space,5.7017,,1262.4536,10,35,1263.453,1263.4531,1263.4987,,,,0,11,11,11,1,140,5,,,,,,,,
,,6172db15b7d756655cd0bb38,65af55e1be6af047326a98c2,2024-01-23_08h01.23.969,bars,2023.2.3,Win32,59.88023952,657b66ea316d21385b68909f,,,,,,,,,,,1263.4992,1264.503,,,1265.0032,1265.2532,,4,184,,,,,,,,,,,,,,,,bars/029.png,bars/mask004.png,,,,,,,,,,,,0,2,,,,,,,6,6,5,8,,,,,,,,,,,1264.5031,1265.0031,1265.2533,1271.1206,space,5.8492,,1271.1208,86,41,1272.1198,1272.1199,1272.1699,,,,0,12,12,12,1,90,45,,,,,,,,
,,6172db15b7d756655cd0bb38,65af55e1be6af047326a98c2,2024-01-23_08h01.23.969,bars,2023.2.3,Win32,59.88023952,657b66ea316d21385b68909f,,,,,,,,,,,1272.1706,1273.1699,,,1273.67,1273.9199,,90,90,,,,,,,,,,,,,,,,bars/045.png,bars/mask001.png,,,,,,,,,,,,3,1,,,,,,,4,4,4,5,,,,,,,,,,,1273.1699,1273.6699,1273.9201,1282.3541,space,8.4194,,1282.3545,10,80,1283.3532,1283.3534,1283.4004,,,,0,13,13,13,1,100,10,,,,,,,,
,,6172db15b7d756655cd0bb38,65af55e1be6af047326a98c2,2024-01-23_08h01.23.969,bars,2023.2.3,Win32,59.88023952,657b66ea316d21385b68909f,,,,,,,,,,,1283.4008,1284.4033,,,1284.8919,1285.1372,,118,118,,,,,,,,,,,,,,,,bars/028.png,bars/mask008.png,,,,,,,,,,,,7,2,,,,,,,6,6,6,7,,,,,,,,,,,1284.4034,1284.8917,1285.1375,1288.2456,space,3.0869,,1288.2457,73,2,1289.2369,1289.2371,1289.284,,,,0,14,14,14,1,45,120,,,,,,,,
,,6172db15b7d756655cd0bb38,65af55e1be6af047326a98c2,2024-01-23_08h01.23.969,bars,2023.2.3,Win32,59.88023952,657b66ea316d21385b68909f,,,,,,,,,,,1289.2847,1290.2866,,,1290.7865,1291.0366,,90,90,,,,,,,,,,,,,,,,bars/047.png,bars/mask008.png,,,,,,,,,,,,1,2,,,,,,,8,4,8,3,,,,,,,,,,,1290.2866,1290.7864,1291.0367,1296.0368,space,4.984,,1296.0372,75,20,1297.0366,1297.0367,1297.0738,,,,0,15,15,15,1,15,70,,,,,,,,
,,6172db15b7d756655cd0bb38,65af55e1be6af047326a98c2,2024-01-23_08h01.23.969,bars,2023.2.3,Win32,59.88023952,657b66ea316d21385b68909f,,,,,,,,,,,1297.0743,1298.07,,,1298.5592,1298.8071,,36,216,,,,,,,,,,,,,,,,bars/010.png,bars/mask006.png,,,,,,,,,,,,1,2,,,,,,,10,6,10,4,,,,,,,,,,,1298.07,1298.5591,1298.8074,1303.0459,space,4.2208,,1303.046,51,19,1304.0367,1304.0368,1304.0837,,,,0,16,16,16,1,165,55,,,,,,,,
,,6172db15b7d756655cd0bb38,65af55e1be6af047326a98c2,2024-01-23_08h01.23.969,bars,2023.2.3,Win32,59.88023952,657b66ea316d21385b68909f,,,,,,,,,,,1304.0843,1305.0868,,,1305.5867,1305.8367,,22,22,,,,,,,,,,,,,,,,bars/027.png,bars/mask004.png,,,,,,,,,,,,0,2,,,,,,,10,4,10,5,,,,,,,,,,,1305.0871,1305.5866,1305.8369,1308.5872,space,2.7376,,1308.5874,88,28,1309.5867,1309.5868,1309.631,,,,0,17,17,17,1,110,50,,,,,,,,
,,6172db15b7d756655cd0bb38,65af55e1be6af047326a98c2,2024-01-23_08h01.23.969,bars,2023.2.3,Win32,59.88023952,657b66ea316d21385b68909f,,,,,,,,,,,1309.6316,1310.62,,,1311.1209,1311.3747,,74,74,,,,,,,,,,,,,,,,bars/002.png,bars/mask008.png,,,,,,,,,,,,5,2,,,,,,,10,6,9,8,,,,,,,,,,,1310.6201,1311.1205,1311.3747,1313.1452,space,1.7528,,1313.1454,56,11,1314.142,1314.1421,1314.1847,,,,0,18,18,18,1,130,85,,,,,,,,
,,6172db15b7d756655cd0bb38,65af55e1be6af047326a98c2,2024-01-23_08h01.23.969,bars,2023.2.3,Win32,59.88023952,657b66ea316d21385b68909f,,,,,,,,,,,1314.1854,1315.1866,,,1315.6754,1315.9255,,100,100,,,,,,,,,,,,,,,,bars/006.png,bars/mask009.png,,,,,,,,,,,,8,2,,,,,,,10,8,10,8,,,,,,,,,,,1315.1866,1315.6752,1315.9256,1318.7118,space,2.7689,,1318.712,65,0,1319.7048,1319.705,1319.7505,,,,0,19,19,19,1,35,100,,,,,,,,
,,6172db15b7d756655cd0bb38,65af55e1be6af047326a98c2,2024-01-23_08h01.23.969,bars,2023.2.3,Win32,59.88023952,657b66ea316d21385b68909f,,,,,,,,,,,1319.7511,1320.7532,,,1321.259,1321.5046,,149,-31,,,,,,,,,,,,,,,,bars/022.png,bars/mask004.png,,,,,,,,,,,,0,2,,,,,,,10,6,10,6,,,,,,,,,,,1320.7533,1321.2589,1321.5048,1323.9441,space,2.4185,,1323.9442,54,51,1324.9379,1324.9379,1324.9842,,,,0,20,20,20,1,95,20,,,,,,,,
,,6172db15b7d756655cd0bb38,65af55e1be6af047326a98c2,2024-01-23_08h01.23.969,bars,2023.2.3,Win32,59.88023952,657b66ea316d21385b68909f,,,,,,,,,,,1324.9847,1325.9865,,,1326.4926,1326.7424,,159,-21,,,,,,,,,,,,,,,,bars/014.png,bars/mask004.png,,,,,,,,,,,,2,2,,,,,,,8,4,7,7,,,,,,,,,,,1325.9867,1326.4924,1326.7425,1332.3373,space,5.5727,,1332.3377,79,21,1333.3366,1333.3367,1333.3803,,,,0,21,21,21,1,80,0,,,,,,,,
,,6172db15b7d756655cd0bb38,65af55e1be6af047326a98c2,2024-01-23_08h01.23.969,bars,2023.2.3,Win32,59.88023952,657b66ea316d21385b68909f,,,,,,,,,,,1333.3808,1334.3703,,,1334.8706,1335.1205,,158,-22,,,,,,,,,,,,,,,,bars/021.png,bars/mask001.png,,,,,,,,,,,,9,1,,,,,,,10,2,10,2,,,,,,,,,,,1334.3706,1334.8704,1335.1207,1341.9042,space,6.7682,,1341.9049,3,88,1342.9037,1342.9039,1342.956,,,,0,22,22,22,1,155,70,,,,,,,,
,,6172db15b7d756655cd0bb38,65af55e1be6af047326a98c2,2024-01-23_08h01.23.969,bars,2023.2.3,Win32,59.88023952,657b66ea316d21385b68909f,,,,,,,,,,,1342.9567,1343.9535,,,1344.4414,1344.6918,,149,149,,,,,,,,,,,,,,,,bars/039.png,bars/mask000.png,,,,,,,,,,,,1,1,,,,,,,10,0,9,0,,,,,,,,,,,1343.9536,1344.4413,1344.6919,1348.6113,space,3.9021,,1348.6118,26,44,1349.6086,1349.6087,1349.654,,,,0,23,23,23,1,175,105,,,,,,,,
,,6172db15b7d756655cd0bb38,65af55e1be6af047326a98c2,2024-01-23_08h01.23.969,bars,2023.2.3,Win32,59.88023952,657b66ea316d21385b68909f,,,,,,,,,,,1349.6546,1350.6539,,,1351.1542,1351.4091,,82,82,,,,,,,,,,,,,,,,bars/019.png,bars/mask009.png,,,,,,,,,,,,0,2,,,,,,,8,2,8,2,,,,,,,,,,,1350.654,1351.154,1351.4092,1354.9622,space,3.5361,,1354.9622,37,23,1355.9587,1355.9588,1355.9946,,,,0,24,24,24,1,45,105,,,,,,,,
,,6172db15b7d756655cd0bb38,65af55e1be6af047326a98c2,2024-01-23_08h01.23.969,bars,2023.2.3,Win32,59.88023952,657b66ea316d21385b68909f,,,,,,,,,,,1355.9951,1356.9926,,,1357.4879,1357.7374,,94,94,,,,,,,,,,,,,,,,bars/019.png,bars/mask007.png,,,,,,,,,,,,2,2,,,,,,,10,4,10,3,,,,,,,,,,,1356.9927,1357.4877,1357.7377,1360.7541,space,2.9926,,1360.7545,49,11,1361.7537,1361.7539,1361.7995,,,,0,25,25,25,1,45,105,,,,,,,,
,,6172db15b7d756655cd0bb38,65af55e1be6af047326a98c2,2024-01-23_08h01.23.969,bars,2023.2.3,Win32,59.88023952,657b66ea316d21385b68909f,,,,,,,,,,,1361.8002,1362.8025,,,1363.3038,1363.5538,,132,132,,,,,,,,,,,,,,,,bars/018.png,bars/mask000.png,,,,,,,,,,,,3,1,,,,,,,8,6,8,6,,,,,,,,,,,1362.8026,1363.3037,1363.5539,1368.4039,space,4.834,,1368.4041,18,42,1369.4037,1369.404,1369.452,,,,0,26,26,26,1,150,90,,,,,,,,
,,6172db15b7d756655cd0bb38,65af55e1be6af047326a98c2,2024-01-23_08h01.23.969,bars,2023.2.3,Win32,59.88023952,657b66ea316d21385b68909f,,,,,,,,,,,1369.4531,1370.4536,,,1370.9587,1371.2044,,152,152,,,,,,,,,,,,,,,,bars/030.png,bars/mask000.png,,,,,,,,,,,,4,1,,,,,,,6,4,7,4,,,,,,,,,,,1370.4537,1370.9586,1371.2048,1375.1945,space,3.9688,,1375.1946,12,87,1376.1923,1376.1925,1376.2362,,,,0,27,27,27,1,140,65,,,,,,,,
,,6172db15b7d756655cd0bb38,65af55e1be6af047326a98c2,2024-01-23_08h01.23.969,bars,2023.2.3,Win32,59.88023952,657b66ea316d21385b68909f,,,,,,,,,,,1376.2371,1377.2366,,,1377.7375,1377.9873,,104,104,,,,,,,,,,,,,,,,bars/015.png,bars/mask000.png,,,,,,,,,,,,6,1,,,,,,,8,6,7,7,,,,,,,,,,,1377.2367,1377.7374,1377.9873,1380.9875,space,2.9837,,1380.9878,6,56,1381.986,1381.986,1382.0099,,,,0,28,28,28,1,110,160,,,,,,,,
,,6172db15b7d756655cd0bb38,65af55e1be6af047326a98c2,2024-01-23_08h01.23.969,bars,2023.2.3,Win32,59.88023952,657b66ea316d21385b68909f,,,,,,,,,,,1382.0104,1383.0088,,,1383.5041,1383.7534,,163,163,,,,,,,,,,,,,,,,bars/017.png,bars/mask008.png,,,,,,,,,,,,4,1,,,,,,,10,4,9,5,,,,,,,,,,,1383.0089,1383.5036,1383.7535,1389.6039,space,5.8377,,1389.6042,18,62,1390.6035,1390.6038,1390.6489,,,,0,29,29,29,1,145,45,,,,,,,,
,,6172db15b7d756655cd0bb38,65af55e1be6af047326a98c2,2024-01-23_08h01.23.969,bars,2023.2.3,Win32,59.88023952,657b66ea316d21385b68909f,,,,,,,,,,,1390.6495,1391.6535,,,1392.1425,1392.3922,,175,175,,,,,,,,,,,,,,,,bars/005.png,bars/mask001.png,,,,,,,,,,,,4,1,,,,,,,8,2,8,0,,,,,,,,,,,1391.6536,1392.1422,1392.3923,1398.4875,space,6.0716,,1398.488,15,35,1399.487,1399.4871,1399.5341,,,,0,30,30,30,1,10,140,,,,,,,,
,,6172db15b7d756655cd0bb38,65af55e1be6af047326a98c2,2024-01-23_08h01.23.969,bars,2023.2.3,Win32,59.88023952,657b66ea316d21385b68909f,,,,,,,,,,,1399.5346,1400.5369,,,1401.0423,1401.2876,,132,132,,,,,,,,,,,,,,,,bars/034.png,bars/mask004.png,,,,,,,,,,,,8,1,,,,,,,10,4,10,4,,,,,,,,,,,1400.537,1401.0422,1401.2878,1402.873,space,1.5598,,1402.8732,7,67,1403.876,1403.8761,1403.9219,,,,0,31,31,31,1,125,65,,,,,,,,
,,6172db15b7d756655cd0bb38,65af55e1be6af047326a98c2,2024-01-23_08h01.23.969,bars,2023.2.3,Win32,59.88023952,657b66ea316d21385b68909f,,,,,,,,,,,1403.9225,1404.9203,,,1405.4084,1405.6591,,159,159,,,,,,,,,,,,,,,,bars/003.png,bars/mask002.png,,,,,,,,,,,,1,2,,,,,,,8,2,7,2,,,,,,,,,,,1404.9204,1405.4082,1405.6592,1410.1898,space,4.5137,,1410.1901,46,19,1411.187,1411.1871,1411.2339,,,,0,32,32,32,1,25,140,,,,,,,,
,,6172db15b7d756655cd0bb38,65af55e1be6af047326a98c2,2024-01-23_08h01.23.969,bars,2023.2.3,Win32,59.88023952,657b66ea316d21385b68909f,,,,,,,,,,,1411.2348,1412.237,,,1412.7366,1412.9871,,61,61,,,,,,,,,,,,,,,,bars/030.png,bars/mask005.png,,,,,,,,,,,,1,2,,,,,,,10,0,10,1,,,,,,,,,,,1412.2371,1412.7366,1412.9872,1414.9705,space,1.9712,,1414.9707,79,4,1415.9698,1415.9698,1416.0116,,,,0,33,33,33,1,140,65,,,,,,,,
,,6172db15b7d756655cd0bb38,65af55e1be6af047326a98c2,2024-01-23_08h01.23.969,bars,2023.2.3,Win32,59.88023952,657b66ea316d21385b68909f,,,,,,,,,,,1416.0122,1417.009,,,1417.5043,1417.7539,,150,-30,,,,,,,,,,,,,,,,bars/016.png,bars/mask002.png,,,,,,,,,,,,1,2,,,,,,,10,0,10,1,,,,,,,,,,,1417.0091,1417.5042,1417.754,1421.1873,space,3.4191,,1421.1875,70,15,1422.1869,1422.187,1422.2346,,,,0,34,34,34,1,40,165,,,,,,,,
,,6172db15b7d756655cd0bb38,65af55e1be6af047326a98c2,2024-01-23_08h01.23.969,bars,2023.2.3,Win32,59.88023952,657b66ea316d21385b68909f,,,,,,,,,,,1422.2353,1423.2373,,,1423.7374,1423.9873,,99,99,,,,,,,,,,,,,,,,bars/001.png,bars/mask000.png,,,,,,,,,,,,1,2,,,,,,,8,2,8,2,,,,,,,,,,,1423.2374,1423.7372,1423.9874,1427.5045,space,3.5024,,1427.5046,31,14,1428.5037,1428.5038,1428.5494,,,,0,35,35,35,1,130,85,,,,,,,,
,,6172db15b7d756655cd0bb38,65af55e1be6af047326a98c2,2024-01-23_08h01.23.969,bars,2023.2.3,Win32,59.88023952,657b66ea316d21385b68909f,,,,,,,,,,,1428.5501,1429.5536,,,1430.0537,1430.3043,,170,170,,,,,,,,,,,,,,,,bars/005.png,bars/mask002.png,,,,,,,,,,,,2,1,,,,,,,6,0,6,1,,,,,,,,,,,1429.5536,1430.0536,1430.3044,1437.7389,space,7.4179,,1437.7391,20,30,1438.737,1438.7372,1438.79,,,,0,36,36,36,1,10,140,,,,,,,,
,,6172db15b7d756655cd0bb38,65af55e1be6af047326a98c2,2024-01-23_08h01.23.969,bars,2023.2.3,Win32,59.88023952,657b66ea316d21385b68909f,,,,,,,,,,,1438.7906,1439.7871,,,1440.2874,1440.5372,,48,48,,,,,,,,,,,,,,,,bars/036.png,bars/mask007.png,,,,,,,,,,,,0,2,,,,,,,8,2,9,2,,,,,,,,,,,1439.7872,1440.2871,1440.5374,1442.1706,space,1.6178,,1442.171,83,28,1443.1705,1443.1705,1443.2191,,,,0,37,37,37,1,145,20,,,,,,,,
,,6172db15b7d756655cd0bb38,65af55e1be6af047326a98c2,2024-01-23_08h01.23.969,bars,2023.2.3,Win32,59.88023952,657b66ea316d21385b68909f,,,,,,,,,,,1443.2201,1444.2206,,,1444.7207,1444.9705,,57,57,,,,,,,,,,,,,,,,bars/044.png,bars/mask005.png,,,,,,,,,,,,4,1,,,,,,,10,4,10,6,,,,,,,,,,,1444.2207,1444.7205,1444.9706,1450.1713,space,5.1838,,1450.1716,18,82,1451.1705,1451.1705,1451.2203,,,,0,38,38,38,1,75,155,,,,,,,,
,,6172db15b7d756655cd0bb38,65af55e1be6af047326a98c2,2024-01-23_08h01.23.969,bars,2023.2.3,Win32,59.88023952,657b66ea316d21385b68909f,,,,,,,,,,,1451.2207,1452.2204,,,1452.709,1452.9543,,61,61,,,,,,,,,,,,,,,,bars/012.png,bars/mask002.png,,,,,,,,,,,,0,1,,,,,,,10,6,9,5,,,,,,,,,,,1452.2205,1452.7089,1452.9546,1457.9948,space,5.0191,,1457.9949,29,46,1458.9884,1458.9885,1459.0298,,,,0,39,39,39,1,90,15,,,,,,,,
,,6172db15b7d756655cd0bb38,65af55e1be6af047326a98c2,2024-01-23_08h01.23.969,bars,2023.2.3,Win32,59.88023952,657b66ea316d21385b68909f,,,,,,,,,,,1459.0303,1460.0252,,,1460.5263,1460.7756,,79,79,,,,,,,,,,,,,,,,bars/018.png,bars/mask005.png,,,,,,,,,,,,2,2,,,,,,,10,4,10,3,,,,,,,,,,,1460.0252,1460.5262,1460.7758,1465.2436,space,4.4508,,1465.2439,71,11,1466.2378,1466.238,1466.2852,,,,0,40,40,40,1,150,90,,,,,,,,
,,6172db15b7d756655cd0bb38,65af55e1be6af047326a98c2,2024-01-23_08h01.23.969,bars,2023.2.3,Win32,59.88023952,657b66ea316d21385b68909f,,,,,,,,,,,1466.2865,1467.2873,,,1467.7874,1468.0374,,19,199,,,,,,,,,,,,,,,,bars/039.png,bars/mask000.png,,,,,,,,,,,,2,1,,,,,,,10,2,10,2,,,,,,,,,,,1467.2875,1467.7872,1468.0375,1473.0207,space,4.9721,,1473.0209,24,86,1474.0206,1474.0206,1474.0632,,,,0,41,41,41,1,175,105,,,,,,,,
,,6172db15b7d756655cd0bb38,65af55e1be6af047326a98c2,2024-01-23_08h01.23.969,bars,2023.2.3,Win32,59.88023952,657b66ea316d21385b68909f,,,,,,,,,,,1474.0639,1475.0538,,,1475.5542,1475.8039,,129,129,,,,,,,,,,,,,,,,bars/038.png,bars/mask003.png,,,,,,,,,,,,0,1,,,,,,,8,0,7,0,,,,,,,,,,,1475.0539,1475.554,1475.804,1480.0213,space,4.2027,,1480.0215,36,59,1481.0205,1481.0206,1481.0644,,,,0,42,42,42,1,165,70,,,,,,,,
,,6172db15b7d756655cd0bb38,65af55e1be6af047326a98c2,2024-01-23_08h01.23.969,bars,2023.2.3,Win32,59.88023952,657b66ea316d21385b68909f,,,,,,,,,,,1481.0651,1482.0537,,,1482.5549,1482.8041,,137,137,,,,,,,,,,,,,,,,bars/037.png,bars/mask005.png,,,,,,,,,,,,3,1,,,,,,,6,0,5,1,,,,,,,,,,,1482.0538,1482.5547,1482.8042,1485.1412,space,2.3278,,1485.1413,13,32,1486.1376,1486.1376,1486.1846,,,,0,43,43,43,1,150,105,,,,,,,,
,,6172db15b7d756655cd0bb38,65af55e1be6af047326a98c2,2024-01-23_08h01.23.969,bars,2023.2.3,Win32,59.88023952,657b66ea316d21385b68909f,,,,,,,,,,,1486.1851,1487.1874,,,1487.6883,1487.9383,,31,211,,,,,,,,,,,,,,,,bars/043.png,bars/mask008.png,,,,,,,,,,,,9,1,,,,,,,8,0,9,0,,,,,,,,,,,1487.1875,1487.6878,1487.9384,1490.2116,space,2.2516,,1490.2117,1,81,1491.2042,1491.2045,1491.2076,,,,0,44,44,44,1,30,130,,,,,,,,
,,6172db15b7d756655cd0bb38,65af55e1be6af047326a98c2,2024-01-23_08h01.23.969,bars,2023.2.3,Win32,59.88023952,657b66ea316d21385b68909f,,,,,,,,,,,1491.2085,1492.209,,,1492.7092,1492.9598,,24,-156,,,,,,,,,,,,,,,,bars/048.png,bars/mask004.png,,,,,,,,,,,,1,1,,,,,,,10,0,10,0,,,,,,,,,,,1492.2092,1492.709,1492.9599,1500.6962,space,7.7197,,1500.6962,26,29,1501.6935,1501.6936,1501.7414,,,,0,45,45,45,1,50,175,,,,,,,,
,,6172db15b7d756655cd0bb38,65af55e1be6af047326a98c2,2024-01-23_08h01.23.969,bars,2023.2.3,Win32,59.88023952,657b66ea316d21385b68909f,,,,,,,,,,,1501.7419,1502.7391,,,1503.2429,1503.4876,,154,154,,,,,,,,,,,,,,,,bars/011.png,bars/mask007.png,,,,,,,,,,,,6,1,,,,,,,8,2,7,3,,,,,,,,,,,1502.7392,1503.2429,1503.4879,1509.1281,space,5.6184,,1509.1283,6,69,1510.1211,1510.1213,1510.1693,,,,0,46,46,46,1,160,85,,,,,,,,
,,6172db15b7d756655cd0bb38,65af55e1be6af047326a98c2,2024-01-23_08h01.23.969,bars,2023.2.3,Win32,59.88023952,657b66ea316d21385b68909f,,,,,,,,,,,1510.1701,1511.1707,,,1511.6712,1511.9092,,9,9,,,,,,,,,,,,,,,,bars/041.png,bars/mask002.png,,,,,,,,,,,,6,1,,,,,,,10,0,10,0,,,,,,,,,,,1511.1708,1511.6711,1511.9093,1514.5222,space,2.589,,1514.5226,11,76,1515.5215,1515.5217,1515.5688,,,,0,47,47,47,1,20,85,,,,,,,,
,,6172db15b7d756655cd0bb38,65af55e1be6af047326a98c2,2024-01-23_08h01.23.969,bars,2023.2.3,Win32,59.88023952,657b66ea316d21385b68909f,,,,,,,,,,,1515.5697,1516.5708,,,1517.0709,1517.3207,,119,119,,,,,,,,,,,,,,,,bars/001.png,bars/mask000.png,,,,,,,,,,,,4,1,,,,,,,8,2,6,2,,,,,,,,,,,1516.5709,1517.0708,1517.3209,1519.9563,space,2.6259,,1519.9565,11,34,1520.9536,1520.9537,1520.9983,,,,0,48,48,48,1,130,85,,,,,,,,
,,6172db15b7d756655cd0bb38,65af55e1be6af047326a98c2,2024-01-23_08h01.23.969,bars,2023.2.3,Win32,59.88023952,657b66ea316d21385b68909f,,,,,,,,,,,1520.999,1521.9875,,,1522.4882,1522.7426,,119,119,,,,,,,,,,,,,,,,bars/046.png,bars/mask004.png,,,,,,,,,,,,0,2,,,,,,,10,4,9,4,,,,,,,,,,,1521.9876,1522.4879,1522.7426,1524.762,space,2.0021,,1524.762,36,34,1525.7549,1525.7555,1525.7613,,,,0,49,49,49,1,155,85,,,,,,,,
,,6172db15b7d756655cd0bb38,65af55e1be6af047326a98c2,2024-01-23_08h01.23.969,bars,2023.2.3,Win32,59.88023952,657b66ea316d21385b68909f,,,,,,,,,,,,,,,,,,,,,,,,,,,,,,,,,,,,,,,,,,,,,,,,,,,,,,,,,,,,,,,,,,,,,,,,,,,,,,,,,,,,,,,,,,,,,1525.7619,1585.7598,0,1,1,4,1,sequence_tables/blk036.csv
,,6172db15b7d756655cd0bb38,65af55e1be6af047326a98c2,2024-01-23_08h01.23.969,bars,2023.2.3,Win32,59.88023952,657b66ea316d21385b68909f,,,,,,,,,,,1775.139,1776.0878,,,1776.5884,1776.838,,33,213,,,,,,,,,,,,,,,,bars/028.png,bars/mask003.png,,,,,,,,,,,,5,1,,,,,,,10,2,9,2,,,,,,1585.8091,1775.0808,space,189.2622,,1776.0878,1776.5883,1776.8381,1792.2562,space,15.4095,,1792.2564,12,87,1793.2551,1793.2552,1793.2994,,,,0,0,0,0,1,45,120,,,,,,,,
,,6172db15b7d756655cd0bb38,65af55e1be6af047326a98c2,2024-01-23_08h01.23.969,bars,2023.2.3,Win32,59.88023952,657b66ea316d21385b68909f,,,,,,,,,,,1793.3001,1794.2884,,,1794.7772,1795.0269,,123,123,,,,,,,,,,,,,,,,bars/002.png,bars/mask000.png,,,,,,,,,,,,6,1,,,,,,,8,0,8,0,,,,,,,,,,,1794.2884,1794.7772,1795.0271,1799.4071,space,4.36,,1799.4074,7,38,1800.4102,1800.4105,1800.4549,,,,0,1,1,1,1,130,85,,,,,,,,
,,6172db15b7d756655cd0bb38,65af55e1be6af047326a98c2,2024-01-23_08h01.23.969,bars,2023.2.3,Win32,59.88023952,657b66ea316d21385b68909f,,,,,,,,,,,1800.4554,1801.4548,,,1801.9551,1802.2048,,90,90,,,,,,,,,,,,,,,,bars/027.png,bars/mask003.png,,,,,,,,,,,,1,1,,,,,,,6,2,4,2,,,,,,,,,,,1801.4549,1801.9551,1802.2049,1810.7724,space,8.5517,,1810.7727,20,40,1811.7715,1811.7716,1811.8195,,,,0,2,2,2,1,110,50,,,,,,,,
,,6172db15b7d756655cd0bb38,65af55e1be6af047326a98c2,2024-01-23_08h01.23.969,bars,2023.2.3,Win32,59.88023952,657b66ea316d21385b68909f,,,,,,,,,,,1811.8201,1812.8217,,,1813.3274,1813.5716,,126,126,,,,,,,,,,,,,,,,bars/031.png,bars/mask001.png,,,,,,,,,,,,5,1,,,,,,,8,0,6,1,,,,,,,,,,,1812.8217,1813.3273,1813.5718,1817.9552,space,4.3732,,1817.9556,6,89,1818.9549,1818.955,1819.0006,,,,0,3,3,3,1,120,35,,,,,,,,
,,6172db15b7d756655cd0bb38,65af55e1be6af047326a98c2,2024-01-23_08h01.23.969,bars,2023.2.3,Win32,59.88023952,657b66ea316d21385b68909f,,,,,,,,,,,1819.0012,1819.9891,,,1820.4775,1820.7268,,30,210,,,,,,,,,,,,,,,,bars/003.png,bars/mask001.png,,,,,,,,,,,,7,1,,,,,,,6,2,8,1,,,,,,,,,,,1819.9893,1820.4774,1820.7271,1825.5063,space,4.7595,,1825.5066,5,70,1826.5107,1826.5108,1826.5564,,,,0,4,4,4,1,25,140,,,,,,,,
,,6172db15b7d756655cd0bb38,65af55e1be6af047326a98c2,2024-01-23_08h01.23.969,bars,2023.2.3,Win32,59.88023952,657b66ea316d21385b68909f,,,,,,,,,,,1826.5571,1827.5551,,,1828.0556,1828.2936,,91,91,,,,,,,,,,,,,,,,bars/008.png,bars/mask008.png,,,,,,,,,,,,2,1,,,,,,,4,0,6,0,,,,,,,,,,,1827.5552,1828.0553,1828.2937,1833.4131,space,5.1024,,1833.4132,19,89,1834.4053,1834.4055,1834.4496,,,,0,5,5,5,1,110,0,,,,,,,,
,,6172db15b7d756655cd0bb38,65af55e1be6af047326a98c2,2024-01-23_08h01.23.969,bars,2023.2.3,Win32,59.88023952,657b66ea316d21385b68909f,,,,,,,,,,,1834.4501,1835.4384,,,1835.9428,1836.1891,,156,156,,,,,,,,,,,,,,,,bars/035.png,bars/mask003.png,,,,,,,,,,,,1,1,,,,,,,2,0,2,1,,,,,,,,,,,1835.4384,1835.9428,1836.1893,1841.7134,space,5.5026,,1841.7136,19,84,1842.7101,1842.7102,1842.757,,,,0,6,6,6,1,175,60,,,,,,,,
,,6172db15b7d756655cd0bb38,65af55e1be6af047326a98c2,2024-01-23_08h01.23.969,bars,2023.2.3,Win32,59.88023952,657b66ea316d21385b68909f,,,,,,,,,,,1842.7577,1843.7551,,,1844.2552,1844.5056,,19,19,,,,,,,,,,,,,,,,bars/028.png,bars/mask006.png,,,,,,,,,,,,1,1,,,,,,,4,2,4,1,,,,,,,,,,,1843.7552,1844.2551,1844.5059,1848.9943,space,4.4677,,1848.9944,26,79,1849.9889,1849.9891,1850.0228,,,,0,7,7,7,1,45,120,,,,,,,,
,,6172db15b7d756655cd0bb38,65af55e1be6af047326a98c2,2024-01-23_08h01.23.969,bars,2023.2.3,Win32,59.88023952,657b66ea316d21385b68909f,,,,,,,,,,,1850.0233,1851.0216,,,1851.5225,1851.7719,,63,243,,,,,,,,,,,,,,,,bars/025.png,bars/mask000.png,,,,,,,,,,,,0,2,,,,,,,6,0,6,1,,,,,,,,,,,1851.0217,1851.5224,1851.772,1855.5581,space,3.7762,,1855.5583,42,23,1856.5552,1856.5553,1856.6016,,,,0,8,8,8,1,105,40,,,,,,,,
,,6172db15b7d756655cd0bb38,65af55e1be6af047326a98c2,2024-01-23_08h01.23.969,bars,2023.2.3,Win32,59.88023952,657b66ea316d21385b68909f,,,,,,,,,,,1856.6022,1857.6051,,,1858.106,1858.3555,,82,262,,,,,,,,,,,,,,,,bars/044.png,bars/mask001.png,,,,,,,,,,,,4,1,,,,,,,4,2,5,2,,,,,,,,,,,1857.6052,1858.1055,1858.3556,1864.1564,space,5.786,,1864.1565,7,73,1865.1567,1865.1569,1865.2076,,,,0,9,9,9,1,75,155,,,,,,,,
,,6172db15b7d756655cd0bb38,65af55e1be6af047326a98c2,2024-01-23_08h01.23.969,bars,2023.2.3,Win32,59.88023952,657b66ea316d21385b68909f,,,,,,,,,,,1865.2082,1866.2054,,,1866.7057,1866.9605,,153,153,,,,,,,,,,,,,,,,bars/010.png,bars/mask008.png,,,,,,,,,,,,1,1,,,,,,,2,0,2,0,,,,,,,,,,,1866.2057,1866.7054,1866.9606,1871.8801,space,4.9026,,1871.8803,12,82,1872.8771,1872.8772,1872.9221,,,,0,10,10,10,1,165,55,,,,,,,,
,,6172db15b7d756655cd0bb38,65af55e1be6af047326a98c2,2024-01-23_08h01.23.969,bars,2023.2.3,Win32,59.88023952,657b66ea316d21385b68909f,,,,,,,,,,,1872.9229,1873.9219,,,1874.4104,1874.6554,,137,-43,,,,,,,,,,,,,,,,bars/004.png,bars/mask002.png,,,,,,,,,,,,2,2,,,,,,,0,2,1,4,,,,,,,,,,,1873.922,1874.4103,1874.6557,1881.6397,space,6.9692,,1881.6399,68,12,1882.6391,1882.6392,1882.6896,,,,0,11,11,11,1,25,125,,,,,,,,
,,6172db15b7d756655cd0bb38,65af55e1be6af047326a98c2,2024-01-23_08h01.23.969,bars,2023.2.3,Win32,59.88023952,657b66ea316d21385b68909f,,,,,,,,,,,1882.6902,1883.6886,,,1884.1893,1884.439,,105,105,,,,,,,,,,,,,,,,bars/001.png,bars/mask002.png,,,,,,,,,,,,0,2,,,,,,,2,0,2,0,,,,,,,,,,,1883.6888,1884.1892,1884.4392,1887.023,space,2.57,,1887.0232,25,20,1888.0225,1888.0226,1888.068,,,,0,12,12,12,1,130,85,,,,,,,,
,,6172db15b7d756655cd0bb38,65af55e1be6af047326a98c2,2024-01-23_08h01.23.969,bars,2023.2.3,Win32,59.88023952,657b66ea316d21385b68909f,,,,,,,,,,,1888.0687,1889.0718,,,1889.5711,1889.8229,,151,-29,,,,,,,,,,,,,,,,bars/023.png,bars/mask001.png,,,,,,,,,,,,0,2,,,,,,,0,2,1,1,,,,,,,,,,,1889.0721,1889.571,1889.8229,1893.3731,space,3.5351,,1893.3732,49,36,1894.3722,1894.3724,1894.418,,,,0,13,13,13,1,20,115,,,,,,,,
,,6172db15b7d756655cd0bb38,65af55e1be6af047326a98c2,2024-01-23_08h01.23.969,bars,2023.2.3,Win32,59.88023952,657b66ea316d21385b68909f,,,,,,,,,,,1894.4187,1895.422,,,1895.9107,1896.1592,,44,44,,,,,,,,,,,,,,,,bars/019.png,bars/mask003.png,,,,,,,,,,,,1,1,,,,,,,2,0,1,0,,,,,,,,,,,1895.4221,1895.9104,1896.1593,1901.4634,space,5.2867,,1901.4636,1,61,1902.4557,1902.4558,1902.5062,,,,0,14,14,14,1,45,105,,,,,,,,
,,6172db15b7d756655cd0bb38,65af55e1be6af047326a98c2,2024-01-23_08h01.23.969,bars,2023.2.3,Win32,59.88023952,657b66ea316d21385b68909f,,,,,,,,,,,1902.5071,1903.5054,,,1903.9943,1904.2388,,63,63,,,,,,,,,,,,,,,,bars/036.png,bars/mask004.png,,,,,,,,,,,,0,2,,,,,,,4,2,4,3,,,,,,,,,,,1903.5054,1903.9942,1904.2389,1909.6734,space,5.4254,,1909.6736,82,43,1910.6721,1910.6722,1910.7168,,,,0,15,15,15,1,145,20,,,,,,,,
,,6172db15b7d756655cd0bb38,65af55e1be6af047326a98c2,2024-01-23_08h01.23.969,bars,2023.2.3,Win32,59.88023952,657b66ea316d21385b68909f,,,,,,,,,,,1910.7176,1911.722,,,1912.211,1912.4556,,118,118,,,,,,,,,,,,,,,,bars/037.png,bars/mask004.png,,,,,,,,,,,,2,2,,,,,,,2,4,2,3,,,,,,,,,,,1911.7222,1912.2109,1912.4558,1916.5953,space,4.1176,,1916.5955,32,13,1917.5922,1917.5923,1917.6349,,,,0,16,16,16,1,150,105,,,,,,,,
,,6172db15b7d756655cd0bb38,65af55e1be6af047326a98c2,2024-01-23_08h01.23.969,bars,2023.2.3,Win32,59.88023952,657b66ea316d21385b68909f,,,,,,,,,,,1917.6363,1918.6388,,,1919.1389,1919.3888,,49,49,,,,,,,,,,,,,,,,bars/031.png,bars/mask006.png,,,,,,,,,,,,2,2,,,,,,,4,2,7,4,,,,,,,,,,,1918.639,1919.1388,1919.3889,1921.9889,space,2.5892,,1921.9893,71,14,1922.989,1922.9892,1923.0322,,,,0,17,17,17,1,120,35,,,,,,,,
,,6172db15b7d756655cd0bb38,65af55e1be6af047326a98c2,2024-01-23_08h01.23.969,bars,2023.2.3,Win32,59.88023952,657b66ea316d21385b68909f,,,,,,,,,,,1923.0326,1924.0225,,,1924.5225,1924.7725,,155,155,,,,,,,,,,,,,,,,bars/036.png,bars/mask006.png,,,,,,,,,,,,4,1,,,,,,,6,4,6,4,,,,,,,,,,,1924.0226,1924.5224,1924.7727,1929.157,space,4.3729,,1929.1572,10,45,1930.1554,1930.1556,1930.2037,,,,0,18,18,18,1,145,20,,,,,,,,
,,6172db15b7d756655cd0bb38,65af55e1be6af047326a98c2,2024-01-23_08h01.23.969,bars,2023.2.3,Win32,59.88023952,657b66ea316d21385b68909f,,,,,,,,,,,1930.2047,1931.2053,,,1931.7054,1931.9555,,92,92,,,,,,,,,,,,,,,,bars/008.png,bars/mask000.png,,,,,,,,,,,,0,1,,,,,,,4,6,1,6,,,,,,,,,,,1931.2054,1931.7053,1931.9555,1935.9724,space,4.0039,,1935.9726,18,88,1936.972,1936.9721,1937.0171,,,,0,19,19,19,1,110,0,,,,,,,,
,,6172db15b7d756655cd0bb38,65af55e1be6af047326a98c2,2024-01-23_08h01.23.969,bars,2023.2.3,Win32,59.88023952,657b66ea316d21385b68909f,,,,,,,,,,,1937.0177,1938.0221,,,1938.5226,1938.7725,,160,160,,,,,,,,,,,,,,,,bars/042.png,bars/mask008.png,,,,,,,,,,,,3,1,,,,,,,6,4,5,5,,,,,,,,,,,1938.0222,1938.5225,1938.7726,1942.857,space,4.07,,1942.8571,15,85,1943.8556,1943.8556,1943.9012,,,,0,20,20,20,1,145,75,,,,,,,,
,,6172db15b7d756655cd0bb38,65af55e1be6af047326a98c2,2024-01-23_08h01.23.969,bars,2023.2.3,Win32,59.88023952,657b66ea316d21385b68909f,,,,,,,,,,,1943.9018,1944.9053,,,1945.4107,1945.6555,,12,12,,,,,,,,,,,,,,,,bars/046.png,bars/mask007.png,,,,,,,,,,,,0,1,,,,,,,8,2,8,3,,,,,,,,,,,1944.9054,1945.4104,1945.6555,1949.6561,space,3.9842,,1949.6563,37,73,1950.6555,1950.6556,1950.7,,,,0,21,21,21,1,155,85,,,,,,,,
,,6172db15b7d756655cd0bb38,65af55e1be6af047326a98c2,2024-01-23_08h01.23.969,bars,2023.2.3,Win32,59.88023952,657b66ea316d21385b68909f,,,,,,,,,,,1950.7008,1951.689,,,1952.1896,1952.444,,168,168,,,,,,,,,,,,,,,,bars/049.png,bars/mask008.png,,,,,,,,,,,,4,1,,,,,,,6,4,6,5,,,,,,,,,,,1951.6891,1952.1893,1952.4442,1957.1967,space,4.7356,,1957.1969,8,53,1958.1894,1958.1896,1958.2355,,,,0,22,22,22,1,160,115,,,,,,,,
,,6172db15b7d756655cd0bb38,65af55e1be6af047326a98c2,2024-01-23_08h01.23.969,bars,2023.2.3,Win32,59.88023952,657b66ea316d21385b68909f,,,,,,,,,,,1958.2361,1959.2388,,,1959.739,1959.9889,,174,174,,,,,,,,,,,,,,,,bars/042.png,bars/mask003.png,,,,,,,,,,,,0,1,,,,,,,8,2,7,0,,,,,,,,,,,1959.239,1959.7389,1959.9891,1963.8555,space,3.8566,,1963.8557,29,81,1964.8554,1964.8555,1964.8993,,,,0,23,23,23,1,145,75,,,,,,,,
,,6172db15b7d756655cd0bb38,65af55e1be6af047326a98c2,2024-01-23_08h01.23.969,bars,2023.2.3,Win32,59.88023952,657b66ea316d21385b68909f,,,,,,,,,,,1964.8998,1965.889,,,1966.3776,1966.6228,,139,139,,,,,,,,,,,,,,,,bars/040.png,bars/mask009.png,,,,,,,,,,,,7,1,,,,,,,6,0,7,0,,,,,,,,,,,1965.8892,1966.3775,1966.6229,1967.9729,space,1.3348,,1967.9731,1,46,1968.9727,1968.9728,1968.9757,,,,0,24,24,24,1,140,5,,,,,,,,
,,6172db15b7d756655cd0bb38,65af55e1be6af047326a98c2,2024-01-23_08h01.23.969,bars,2023.2.3,Win32,59.88023952,657b66ea316d21385b68909f,,,,,,,,,,,1968.9767,1969.9733,,,1970.4733,1970.7228,,108,-72,,,,,,,,,,,,,,,,bars/008.png,bars/mask002.png,,,,,,,,,,,,5,1,,,,,,,4,0,5,1,,,,,,,,,,,1969.9734,1970.4732,1970.7229,1974.6568,space,3.9188,,1974.6569,2,72,1975.6559,1975.6561,1975.7026,,,,0,25,25,25,1,110,0,,,,,,,,
,,6172db15b7d756655cd0bb38,65af55e1be6af047326a98c2,2024-01-23_08h01.23.969,bars,2023.2.3,Win32,59.88023952,657b66ea316d21385b68909f,,,,,,,,,,,1975.7034,1976.7057,,,1977.2057,1977.4444,,65,65,,,,,,,,,,,,,,,,bars/025.png,bars/mask005.png,,,,,,,,,,,,0,2,,,,,,,6,2,7,2,,,,,,,,,,,1976.7059,1977.2055,1977.4445,1981.4634,space,4.0021,,1981.4635,40,25,1982.456,1982.4563,1982.502,,,,0,26,26,26,1,105,40,,,,,,,,
,,6172db15b7d756655cd0bb38,65af55e1be6af047326a98c2,2024-01-23_08h01.23.969,bars,2023.2.3,Win32,59.88023952,657b66ea316d21385b68909f,,,,,,,,,,,1982.5024,1983.5055,,,1983.9942,1984.2396,,120,120,,,,,,,,,,,,,,,,bars/012.png,bars/mask000.png,,,,,,,,,,,,0,1,,,,,,,8,0,8,0,,,,,,,,,,,1983.5056,1983.9942,1984.2398,1986.1801,space,1.9186,,1986.1802,30,75,1987.1728,1987.1731,1987.2196,,,,0,27,27,27,1,90,15,,,,,,,,
,,6172db15b7d756655cd0bb38,65af55e1be6af047326a98c2,2024-01-23_08h01.23.969,bars,2023.2.3,Win32,59.88023952,657b66ea316d21385b68909f,,,,,,,,,,,1987.2203,1988.2223,,,1988.7225,1988.9724,,17,17,,,,,,,,,,,,,,,,bars/003.png,bars/mask006.png,,,,,,,,,,,,5,1,,,,,,,6,2,7,0,,,,,,,,,,,1988.2224,1988.7223,1988.9725,1992.2557,space,3.2723,,1992.2559,8,57,1993.2554,1993.2555,1993.2998,,,,0,28,28,28,1,25,140,,,,,,,,
,,6172db15b7d756655cd0bb38,65af55e1be6af047326a98c2,2024-01-23_08h01.23.969,bars,2023.2.3,Win32,59.88023952,657b66ea316d21385b68909f,,,,,,,,,,,1993.3004,1994.2888,,,1994.7892,1995.0389,,161,-19,,,,,,,,,,,,,,,,bars/023.png,bars/mask002.png,,,,,,,,,,,,0,1,,,,,,,8,4,7,4,,,,,,,,,,,1994.289,1994.789,1995.039,1999.5061,space,4.4511,,1999.5063,39,46,2000.5054,2000.5055,2000.5507,,,,0,29,29,29,1,20,115,,,,,,,,
,,6172db15b7d756655cd0bb38,65af55e1be6af047326a98c2,2024-01-23_08h01.23.969,bars,2023.2.3,Win32,59.88023952,657b66ea316d21385b68909f,,,,,,,,,,,2000.5513,2001.5554,,,2002.0548,2002.3052,,100,100,,,,,,,,,,,,,,,,bars/044.png,bars/mask003.png,,,,,,,,,,,,2,1,,,,,,,10,6,10,6,,,,,,,,,,,2001.5555,2002.0547,2002.3053,2003.9557,space,1.6384,,2003.9558,25,55,2004.9556,2004.9558,2004.9583,,,,0,30,30,30,1,75,155,,,,,,,,
,,6172db15b7d756655cd0bb38,65af55e1be6af047326a98c2,2024-01-23_08h01.23.969,bars,2023.2.3,Win32,59.88023952,657b66ea316d21385b68909f,,,,,,,,,,,2004.9593,2005.9557,,,2006.4562,2006.7052,,138,138,,,,,,,,,,,,,,,,bars/008.png,bars/mask002.png,,,,,,,,,,,,1,1,,,,,,,10,8,10,9,,,,,,,,,,,2005.9557,2006.4561,2006.7053,2010.5567,space,3.8384,,2010.5569,28,42,2011.5565,2011.5566,2011.6024,,,,0,31,31,31,1,110,0,,,,,,,,
,,6172db15b7d756655cd0bb38,65af55e1be6af047326a98c2,2024-01-23_08h01.23.969,bars,2023.2.3,Win32,59.88023952,657b66ea316d21385b68909f,,,,,,,,,,,2011.6031,2012.6059,,,2013.1058,2013.356,,80,80,,,,,,,,,,,,,,,,bars/027.png,bars/mask006.png,,,,,,,,,,,,0,2,,,,,,,10,10,9,9,,,,,,,,,,,2012.606,2013.1057,2013.356,2017.6081,space,4.2424,,2017.6082,30,30,2018.6056,2018.6057,2018.6532,,,,0,32,32,32,1,110,50,,,,,,,,
,,6172db15b7d756655cd0bb38,65af55e1be6af047326a98c2,2024-01-23_08h01.23.969,bars,2023.2.3,Win32,59.88023952,657b66ea316d21385b68909f,,,,,,,,,,,2018.654,2019.6562,,,2020.1558,2020.4057,,142,-38,,,,,,,,,,,,,,,,bars/035.png,bars/mask001.png,,,,,,,,,,,,0,1,,,,,,,8,10,9,10,,,,,,,,,,,2019.6564,2020.1557,2020.4058,2024.7754,space,4.3599,,2024.7756,33,82,2025.7723,2025.7724,2025.8179,,,,0,33,33,33,1,175,60,,,,,,,,
,,6172db15b7d756655cd0bb38,65af55e1be6af047326a98c2,2024-01-23_08h01.23.969,bars,2023.2.3,Win32,59.88023952,657b66ea316d21385b68909f,,,,,,,,,,,2025.8186,2026.8222,,,2027.3108,2027.5612,,157,157,,,,,,,,,,,,,,,,bars/007.png,bars/mask007.png,,,,,,,,,,,,4,1,,,,,,,10,8,10,8,,,,,,,,,,,2026.8224,2027.3108,2027.5612,2030.5314,space,2.9529,,2030.5314,18,78,2031.5225,2031.5228,2031.5689,,,,0,34,34,34,1,175,55,,,,,,,,
,,6172db15b7d756655cd0bb38,65af55e1be6af047326a98c2,2024-01-23_08h01.23.969,bars,2023.2.3,Win32,59.88023952,657b66ea316d21385b68909f,,,,,,,,,,,2031.5695,2032.5725,,,2033.0758,2033.3263,,90,90,,,,,,,,,,,,,,,,bars/022.png,bars/mask007.png,,,,,,,,,,,,8,1,,,,,,,10,6,10,7,,,,,,,,,,,2032.5726,2033.0757,2033.3264,2036.7971,space,3.4521,,2036.7972,5,70,2037.794,2037.7942,2037.8398,,,,0,35,35,35,1,95,20,,,,,,,,
,,6172db15b7d756655cd0bb38,65af55e1be6af047326a98c2,2024-01-23_08h01.23.969,bars,2023.2.3,Win32,59.88023952,657b66ea316d21385b68909f,,,,,,,,,,,2037.8405,2038.8391,,,2039.3399,2039.5894,,6,6,,,,,,,,,,,,,,,,bars/009.png,bars/mask006.png,,,,,,,,,,,,6,1,,,,,,,8,8,8,6,,,,,,,,,,,2038.8393,2039.3396,2039.5896,2042.8453,space,3.2345,,2042.8454,9,81,2043.8398,2043.84,2043.8858,,,,0,36,36,36,1,15,105,,,,,,,,
,,6172db15b7d756655cd0bb38,65af55e1be6af047326a98c2,2024-01-23_08h01.23.969,bars,2023.2.3,Win32,59.88023952,657b66ea316d21385b68909f,,,,,,,,,,,2043.8864,2044.8892,,,2045.3895,2045.6391,,130,130,,,,,,,,,,,,,,,,bars/025.png,bars/mask003.png,,,,,,,,,,,,1,1,,,,,,,10,10,9,10,,,,,,,,,,,2044.8893,2045.3893,2045.6393,2046.8573,space,1.2025,,2046.8574,25,90,2047.8558,2047.8559,2047.8997,,,,0,37,37,37,1,105,40,,,,,,,,
,,6172db15b7d756655cd0bb38,65af55e1be6af047326a98c2,2024-01-23_08h01.23.969,bars,2023.2.3,Win32,59.88023952,657b66ea316d21385b68909f,,,,,,,,,,,2047.9001,2048.8894,,,2049.3899,2049.6396,,148,-32,,,,,,,,,,,,,,,,bars/035.png,bars/mask005.png,,,,,,,,,,,,1,1,,,,,,,10,10,8,10,,,,,,,,,,,2048.8895,2049.3898,2049.6397,2053.4564,space,3.8022,,2053.4568,27,88,2054.4562,2054.4563,2054.5017,,,,0,38,38,38,1,175,60,,,,,,,,
,,6172db15b7d756655cd0bb38,65af55e1be6af047326a98c2,2024-01-23_08h01.23.969,bars,2023.2.3,Win32,59.88023952,657b66ea316d21385b68909f,,,,,,,,,,,2054.5023,2055.5057,,,2055.995,2056.2443,,138,138,,,,,,,,,,,,,,,,bars/017.png,bars/mask007.png,,,,,,,,,,,,6,1,,,,,,,10,10,8,9,,,,,,,,,,,2055.5058,2055.995,2056.2444,2084.044,space,27.7836,,2084.0441,7,87,2084.9658,2084.9658,2085.1243,,,,0,39,39,39,1,145,45,,,,,,,,
,,6172db15b7d756655cd0bb38,65af55e1be6af047326a98c2,2024-01-23_08h01.23.969,bars,2023.2.3,Win32,59.88023952,657b66ea316d21385b68909f,,,,,,,,,,,2085.1252,2086.1219,,,2086.6217,2086.8717,,115,115,,,,,,,,,,,,,,,,bars/002.png,bars/mask001.png,,,,,,,,,,,,5,1,,,,,,,8,10,10,10,,,,,,,,,,,2086.122,2086.6216,2086.8717,2090.4052,space,3.5158,,2090.4053,15,30,2091.4049,2091.405,2091.4196,,,,0,40,40,40,1,130,85,,,,,,,,
,,6172db15b7d756655cd0bb38,65af55e1be6af047326a98c2,2024-01-23_08h01.23.969,bars,2023.2.3,Win32,59.88023952,657b66ea316d21385b68909f,,,,,,,,,,,2091.4198,2092.4223,,,2092.9225,2093.1731,,26,206,,,,,,,,,,,,,,,,bars/043.png,bars/mask003.png,,,,,,,,,,,,9,1,,,,,,,10,10,10,10,,,,,,,,,,,2092.4223,2092.9222,2093.1731,2097.6569,space,4.4687,,2097.657,4,76,2098.6561,2098.6569,2098.6888,,,,0,41,41,41,1,30,130,,,,,,,,
,,6172db15b7d756655cd0bb38,65af55e1be6af047326a98c2,2024-01-23_08h01.23.969,bars,2023.2.3,Win32,59.88023952,657b66ea316d21385b68909f,,,,,,,,,,,2098.6892,2099.6898,,,2100.1912,2100.4419,,62,62,,,,,,,,,,,,,,,,bars/031.png,bars/mask003.png,,,,,,,,,,,,1,2,,,,,,,10,10,9,10,,,,,,,,,,,2099.6901,2100.1912,2100.442,2105.3261,space,4.8711,,2105.3262,58,27,2106.3288,2106.3289,2106.3668,,,,0,42,42,42,1,120,35,,,,,,,,
,,6172db15b7d756655cd0bb38,65af55e1be6af047326a98c2,2024-01-23_08h01.23.969,bars,2023.2.3,Win32,59.88023952,657b66ea316d21385b68909f,,,,,,,,,,,2106.3677,2107.3575,,,2107.8568,2108.1094,,130,130,,,,,,,,,,,,,,,,bars/046.png,bars/mask002.png,,,,,,,,,,,,1,1,,,,,,,8,10,8,10,,,,,,,,,,,2107.3575,2107.8568,2108.1095,2111.558,space,3.4372,,2111.5581,25,45,2112.5569,2112.557,2112.5921,,,,0,43,43,43,1,155,85,,,,,,,,
,,6172db15b7d756655cd0bb38,65af55e1be6af047326a98c2,2024-01-23_08h01.23.969,bars,2023.2.3,Win32,59.88023952,657b66ea316d21385b68909f,,,,,,,,,,,2112.5926,2113.5944,,,2114.0945,2114.3408,,21,21,,,,,,,,,,,,,,,,bars/044.png,bars/mask001.png,,,,,,,,,,,,0,2,,,,,,,6,8,6,9,,,,,,,,,,,2113.5945,2114.0944,2114.341,2131.5001,space,17.1374,,2131.5002,54,46,2132.4888,2132.4889,2132.5135,,,,0,44,44,44,1,75,155,,,,,,,,
,,6172db15b7d756655cd0bb38,65af55e1be6af047326a98c2,2024-01-23_08h01.23.969,bars,2023.2.3,Win32,59.88023952,657b66ea316d21385b68909f,,,,,,,,,,,2132.5148,2133.511,,,2134.0124,2134.2618,,168,168,,,,,,,,,,,,,,,,bars/007.png,bars/mask004.png,,,,,,,,,,,,2,1,,,,,,,4,6,3,7,,,,,,,,,,,2133.5112,2134.0123,2134.2619,2136.2666,space,1.9872,,2136.2667,7,67,2137.2604,2137.2605,2137.3055,,,,0,45,45,45,1,175,55,,,,,,,,
,,6172db15b7d756655cd0bb38,65af55e1be6af047326a98c2,2024-01-23_08h01.23.969,bars,2023.2.3,Win32,59.88023952,657b66ea316d21385b68909f,,,,,,,,,,,2137.3066,2138.3071,,,2138.8091,2139.0564,,91,91,,,,,,,,,,,,,,,,bars/028.png,bars/mask000.png,,,,,,,,,,,,0,2,,,,,,,6,4,5,4,,,,,,,,,,,2138.3071,2138.809,2139.0566,2152.259,space,13.1873,,2152.2594,46,29,2153.2566,2153.2568,2153.306,,,,0,46,46,46,1,45,120,,,,,,,,
,,6172db15b7d756655cd0bb38,65af55e1be6af047326a98c2,2024-01-23_08h01.23.969,bars,2023.2.3,Win32,59.88023952,657b66ea316d21385b68909f,,,,,,,,,,,2153.3068,2154.3063,,,2154.8062,2155.056,,65,65,,,,,,,,,,,,,,,,bars/019.png,bars/mask005.png,,,,,,,,,,,,2,1,,,,,,,8,2,7,1,,,,,,,,,,,2154.3064,2154.8062,2155.0562,2173.1235,space,18.0498,,2173.1237,20,40,2174.1229,2174.123,2174.1684,,,,0,47,47,47,1,45,105,,,,,,,,
,,6172db15b7d756655cd0bb38,65af55e1be6af047326a98c2,2024-01-23_08h01.23.969,bars,2023.2.3,Win32,59.88023952,657b66ea316d21385b68909f,,,,,,,,,,,2174.1691,2175.1728,,,2175.6734,2175.9228,,71,71,,,,,,,,,,,,,,,,bars/024.png,bars/mask002.png,,,,,,,,,,,,0,1,,,,,,,6,4,6,4,,,,,,,,,,,2175.1729,2175.6732,2175.923,2188.0734,space,12.1352,,2188.0735,49,81,2189.073,2189.0732,2189.1193,,,,0,48,48,48,1,120,170,,,,,,,,
,,6172db15b7d756655cd0bb38,65af55e1be6af047326a98c2,2024-01-23_08h01.23.969,bars,2023.2.3,Win32,59.88023952,657b66ea316d21385b68909f,,,,,,,,,,,2189.1197,2190.123,,,2190.6232,2190.8729,,168,168,,,,,,,,,,,,,,,,bars/049.png,bars/mask005.png,,,,,,,,,,,,3,1,,,,,,,4,6,4,5,,,,,,,,,,,2190.123,2190.6231,2190.873,2195.5399,space,4.6533,,2195.54,8,53,2196.5399,2196.54,2196.5849,,,,0,49,49,49,1,160,115,,,,,,,,
,,6172db15b7d756655cd0bb38,65af55e1be6af047326a98c2,2024-01-23_08h01.23.969,bars,2023.2.3,Win32,59.88023952,657b66ea316d21385b68909f,,,,,,,,,,,,,,,,,,,,,,,,,,,,,,,,,,,,,,,,,,,,,,,,,,,,,,,,,,,,,,,,,,,,,,,,,,,,,,,,,,,,,,,,,,,,,2196.5852,2256.5731,0,2,2,3,1,sequence_tables/blk033.csv
,,6172db15b7d756655cd0bb38,65af55e1be6af047326a98c2,2024-01-23_08h01.23.969,bars,2023.2.3,Win32,59.88023952,657b66ea316d21385b68909f,,,,,,,,,,,2336.6801,2337.6622,,,2338.157,2338.4069,,18,18,,,,,,,,,,,,,,,,bars/042.png,bars/mask007.png,,,,,,,,,,,,0,1,,,,,,,10,7,10,6,,,,,,2256.6182,2336.657,space,80.0283,,2337.6623,2338.1569,2338.407,2346.8238,space,8.4013,,2346.8242,53,57,2347.8235,2347.8236,2347.869,,,,0,0,0,0,1,145,75,,,,,,,,
,,6172db15b7d756655cd0bb38,65af55e1be6af047326a98c2,2024-01-23_08h01.23.969,bars,2023.2.3,Win32,59.88023952,657b66ea316d21385b68909f,,,,,,,,,,,2347.8694,2348.8734,,,2349.3626,2349.6071,,100,100,,,,,,,,,,,,,,,,bars/015.png,bars/mask009.png,,,,,,,,,,,,3,1,,,,,,,8,5,5,5,,,,,,,,,,,2348.8735,2349.3625,2349.6072,2352.4079,space,2.7864,,2352.4082,10,60,2353.407,2353.4072,2353.4538,,,,0,1,1,1,1,110,160,,,,,,,,
,,6172db15b7d756655cd0bb38,65af55e1be6af047326a98c2,2024-01-23_08h01.23.969,bars,2023.2.3,Win32,59.88023952,657b66ea316d21385b68909f,,,,,,,,,,,2353.4543,2354.4566,,,2354.9454,2355.1905,,159,159,,,,,,,,,,,,,,,,bars/010.png,bars/mask007.png,,,,,,,,,,,,8,1,,,,,,,10,3,10,3,,,,,,,,,,,2354.4566,2354.9453,2355.1906,2360.491,space,5.2891,,2360.4913,6,76,2361.4903,2361.4907,2361.5215,,,,0,2,2,2,1,165,55,,,,,,,,
,,6172db15b7d756655cd0bb38,65af55e1be6af047326a98c2,2024-01-23_08h01.23.969,bars,2023.2.3,Win32,59.88023952,657b66ea316d21385b68909f,,,,,,,,,,,2361.522,2362.5234,,,2363.0123,2363.2576,,163,163,,,,,,,,,,,,,,,,bars/041.png,bars/mask008.png,,,,,,,,,,,,0,1,,,,,,,10,1,10,1,,,,,,,,,,,2362.5235,2363.0122,2363.2576,2367.5583,space,4.2855,,2367.5584,37,78,2368.5576,2368.5577,2368.5996,,,,0,3,3,3,1,20,85,,,,,,,,
,,6172db15b7d756655cd0bb38,65af55e1be6af047326a98c2,2024-01-23_08h01.23.969,bars,2023.2.3,Win32,59.88023952,657b66ea316d21385b68909f,,,,,,,,,,,2368.6,2369.5905,,,2370.0911,2370.3414,,136,136,,,,,,,,,,,,,,,,bars/030.png,bars/mask007.png,,,,,,,,,,,,6,1,,,,,,,8,3,7,4,,,,,,,,,,,2369.5907,2370.0908,2370.3415,2374.5296,space,4.1673,,2374.5299,4,71,2375.5238,2375.524,2375.5697,,,,0,4,4,4,1,140,65,,,,,,,,
,,6172db15b7d756655cd0bb38,65af55e1be6af047326a98c2,2024-01-23_08h01.23.969,bars,2023.2.3,Win32,59.88023952,657b66ea316d21385b68909f,,,,,,,,,,,2375.5703,2376.5734,,,2377.0742,2377.3275,,138,138,,,,,,,,,,,,,,,,bars/034.png,bars/mask007.png,,,,,,,,,,,,5,1,,,,,,,10,5,9,4,,,,,,,,,,,2376.5735,2377.074,2377.3276,2380.7646,space,3.4188,,2380.7648,13,73,2381.7573,2381.7574,2381.807,,,,0,5,5,5,1,125,65,,,,,,,,
,,6172db15b7d756655cd0bb38,65af55e1be6af047326a98c2,2024-01-23_08h01.23.969,bars,2023.2.3,Win32,59.88023952,657b66ea316d21385b68909f,,,,,,,,,,,2381.8078,2382.8069,,,2383.3119,2383.5621,,32,212,,,,,,,,,,,,,,,,bars/004.png,bars/mask008.png,,,,,,,,,,,,7,1,,,,,,,8,7,9,7,,,,,,,,,,,2382.807,2383.3117,2383.5622,2388.8815,space,5.3021,,2388.8816,7,87,2389.8789,2389.879,2389.9213,,,,0,6,6,6,1,25,125,,,,,,,,
,,6172db15b7d756655cd0bb38,65af55e1be6af047326a98c2,2024-01-23_08h01.23.969,bars,2023.2.3,Win32,59.88023952,657b66ea316d21385b68909f,,,,,,,,,,,2389.9217,2390.9236,,,2391.4293,2391.6741,,133,133,,,,,,,,,,,,,,,,bars/045.png,bars/mask000.png,,,,,,,,,,,,0,1,,,,,,,6,5,6,4,,,,,,,,,,,2390.9237,2391.4292,2391.6742,2398.9468,space,7.251,,2398.9469,33,57,2399.9455,2399.9456,2399.9914,,,,0,7,7,7,1,100,10,,,,,,,,
,,6172db15b7d756655cd0bb38,65af55e1be6af047326a98c2,2024-01-23_08h01.23.969,bars,2023.2.3,Win32,59.88023952,657b66ea316d21385b68909f,,,,,,,,,,,2399.992,2400.9905,,,2401.4906,2401.7405,,116,116,,,,,,,,,,,,,,,,bars/034.png,bars/mask005.png,,,,,,,,,,,,6,1,,,,,,,8,7,9,9,,,,,,,,,,,2400.9907,2401.4905,2401.7405,2419.8241,space,18.0659,,2419.8247,9,51,2420.8237,2420.8237,2420.8647,,,,0,8,8,8,1,125,65,,,,,,,,
,,6172db15b7d756655cd0bb38,65af55e1be6af047326a98c2,2024-01-23_08h01.23.969,bars,2023.2.3,Win32,59.88023952,657b66ea316d21385b68909f,,,,,,,,,,,2420.8651,2421.8621,,,2422.3576,2422.6075,,19,19,,,,,,,,,,,,,,,,bars/043.png,bars/mask001.png,,,,,,,,,,,,6,1,,,,,,,10,9,10,9,,,,,,,,,,,2421.8622,2422.3573,2422.6078,2461.7916,space,39.1566,,2461.7918,11,69,2462.7908,2462.791,2462.8359,,,,0,9,9,9,1,30,130,,,,,,,,
,,6172db15b7d756655cd0bb38,65af55e1be6af047326a98c2,2024-01-23_08h01.23.969,bars,2023.2.3,Win32,59.88023952,657b66ea316d21385b68909f,,,,,,,,,,,2462.8364,2463.8407,,,2464.3293,2464.5758,,4,4,,,,,,,,,,,,,,,,bars/023.png,bars/mask008.png,,,,,,,,,,,,5,1,,,,,,,10,10,10,10,,,,,,,,,,,2463.8408,2464.329,2464.5759,2469.0148,space,4.419,,2469.0149,16,69,2470.0153,2470.0154,2470.059,,,,0,10,10,10,1,20,115,,,,,,,,
,,6172db15b7d756655cd0bb38,65af55e1be6af047326a98c2,2024-01-23_08h01.23.969,bars,2023.2.3,Win32,59.88023952,657b66ea316d21385b68909f,,,,,,,,,,,2470.0595,2471.0572,,,2471.5564,2471.8061,,120,120,,,,,,,,,,,,,,,,bars/030.png,bars/mask001.png,,,,,,,,,,,,3,1,,,,,,,10,10,10,9,,,,,,,,,,,2471.0572,2471.5563,2471.8061,2472.8607,space,1.0476,,2472.8607,20,55,2473.8568,2473.8569,2473.8591,,,,0,11,11,11,1,140,65,,,,,,,,
,,6172db15b7d756655cd0bb38,65af55e1be6af047326a98c2,2024-01-23_08h01.23.969,bars,2023.2.3,Win32,59.88023952,657b66ea316d21385b68909f,,,,,,,,,,,2473.8601,2474.8569,,,2475.3569,2475.6071,,159,159,,,,,,,,,,,,,,,,bars/034.png,bars/mask001.png,,,,,,,,,,,,0,1,,,,,,,8,8,7,9,,,,,,,,,,,2474.857,2475.3568,2475.6072,2478.6741,space,3.0531,,2478.6746,34,86,2479.6738,2479.6739,2479.7163,,,,0,12,12,12,1,125,65,,,,,,,,
,,6172db15b7d756655cd0bb38,65af55e1be6af047326a98c2,2024-01-23_08h01.23.969,bars,2023.2.3,Win32,59.88023952,657b66ea316d21385b68909f,,,,,,,,,,,2479.7168,2480.7082,,,2481.2079,2481.458,,100,100,,,,,,,,,,,,,,,,bars/024.png,bars/mask003.png,,,,,,,,,,,,3,1,,,,,,,10,10,10,10,,,,,,,,,,,2480.7083,2481.2076,2481.4581,2483.975,space,2.5017,,2483.9752,20,70,2484.9741,2484.9741,2485.0221,,,,0,13,13,13,1,120,170,,,,,,,,
,,6172db15b7d756655cd0bb38,65af55e1be6af047326a98c2,2024-01-23_08h01.23.969,bars,2023.2.3,Win32,59.88023952,657b66ea316d21385b68909f,,,,,,,,,,,2485.0228,2486.0238,,,2486.5125,2486.7609,,31,31,,,,,,,,,,,,,,,,bars/028.png,bars/mask007.png,,,,,,,,,,,,5,1,,,,,,,10,10,10,10,,,,,,,,,,,2486.0239,2486.5124,2486.761,2489.9409,space,3.1602,,2489.9413,14,89,2490.9407,2490.9407,2490.9826,,,,0,14,14,14,1,45,120,,,,,,,,
,,6172db15b7d756655cd0bb38,65af55e1be6af047326a98c2,2024-01-23_08h01.23.969,bars,2023.2.3,Win32,59.88023952,657b66ea316d21385b68909f,,,,,,,,,,,2490.9832,2491.9742,,,2492.4743,2492.7252,,135,135,,,,,,,,,,,,,,,,bars/031.png,bars/mask001.png,,,,,,,,,,,,4,1,,,,,,,8,8,8,8,,,,,,,,,,,2491.9743,2492.4742,2492.7253,2495.2584,space,2.5184,,2495.2585,15,80,2496.2578,2496.258,2496.3025,,,,0,15,15,15,1,120,35,,,,,,,,
,,6172db15b7d756655cd0bb38,65af55e1be6af047326a98c2,2024-01-23_08h01.23.969,bars,2023.2.3,Win32,59.88023952,657b66ea316d21385b68909f,,,,,,,,,,,2496.303,2497.3073,,,2497.7966,2498.0409,,72,72,,,,,,,,,,,,,,,,bars/014.png,bars/mask004.png,,,,,,,,,,,,4,1,,,,,,,6,10,5,8,,,,,,,,,,,2497.3074,2497.7965,2498.041,2503.241,space,5.1853,,2503.241,8,72,2504.2406,2504.2407,2504.2835,,,,0,16,16,16,1,80,0,,,,,,,,
,,6172db15b7d756655cd0bb38,65af55e1be6af047326a98c2,2024-01-23_08h01.23.969,bars,2023.2.3,Win32,59.88023952,657b66ea316d21385b68909f,,,,,,,,,,,2504.284,2505.2745,,,2505.7758,2506.0242,,42,42,,,,,,,,,,,,,,,,bars/032.png,bars/mask000.png,,,,,,,,,,,,3,2,,,,,,,4,10,5,10,,,,,,,,,,,2505.2745,2505.7756,2506.0243,2514.2582,space,8.2205,,2514.2587,83,22,2515.2577,2515.2578,2515.308,,,,0,17,17,17,1,125,20,,,,,,,,
,,6172db15b7d756655cd0bb38,65af55e1be6af047326a98c2,2024-01-23_08h01.23.969,bars,2023.2.3,Win32,59.88023952,657b66ea316d21385b68909f,,,,,,,,,,,2515.3087,2516.3074,,,2516.8076,2517.0613,,165,165,,,,,,,,,,,,,,,,bars/008.png,bars/mask006.png,,,,,,,,,,,,5,2,,,,,,,6,8,5,9,,,,,,,,,,,2516.3075,2516.8075,2517.0614,2524.3077,space,7.2246,,2524.3079,55,15,2525.3074,2525.3075,2525.3498,,,,0,18,18,18,1,110,0,,,,,,,,
,,6172db15b7d756655cd0bb38,65af55e1be6af047326a98c2,2024-01-23_08h01.23.969,bars,2023.2.3,Win32,59.88023952,657b66ea316d21385b68909f,,,,,,,,,,,2525.3502,2526.3444,,,2526.8407,2527.0908,,136,136,,,,,,,,,,,,,,,,bars/021.png,bars/mask009.png,,,,,,,,,,,,3,1,,,,,,,8,10,9,10,,,,,,,,,,,2526.3445,2526.8406,2527.091,2532.2578,space,5.1505,,2532.258,19,66,2533.2575,2533.2576,2533.304,,,,0,19,19,19,1,155,70,,,,,,,,
,,6172db15b7d756655cd0bb38,65af55e1be6af047326a98c2,2024-01-23_08h01.23.969,bars,2023.2.3,Win32,59.88023952,657b66ea316d21385b68909f,,,,,,,,,,,2533.3048,2534.3075,,,2534.7976,2535.0408,,44,224,,,,,,,,,,,,,,,,bars/005.png,bars/mask002.png,,,,,,,,,,,,0,1,,,,,,,10,10,10,9,,,,,,,,,,,2534.3075,2534.7975,2535.0408,2539.7747,space,4.7181,,2539.7753,34,84,2540.774,2540.7742,2540.8175,,,,0,20,20,20,1,10,140,,,,,,,,
,,6172db15b7d756655cd0bb38,65af55e1be6af047326a98c2,2024-01-23_08h01.23.969,bars,2023.2.3,Win32,59.88023952,657b66ea316d21385b68909f,,,,,,,,,,,2540.8182,2541.8075,,,2542.3132,2542.5588,,43,43,,,,,,,,,,,,,,,,bars/048.png,bars/mask006.png,,,,,,,,,,,,8,1,,,,,,,10,8,10,8,,,,,,,,,,,2541.8076,2542.3131,2542.5589,2545.0319,space,2.4524,,2545.0319,7,48,2546.0291,2546.0291,2546.0717,,,,0,21,21,21,1,50,175,,,,,,,,
,,6172db15b7d756655cd0bb38,65af55e1be6af047326a98c2,2024-01-23_08h01.23.969,bars,2023.2.3,Win32,59.88023952,657b66ea316d21385b68909f,,,,,,,,,,,2546.0722,2547.0741,,,2547.5798,2547.8281,,157,157,,,,,,,,,,,,,,,,bars/036.png,bars/mask002.png,,,,,,,,,,,,5,1,,,,,,,8,6,8,4,,,,,,,,,,,2547.0742,2547.5796,2547.8282,2550.3489,space,2.5024,,2550.349,12,43,2551.3444,2551.3446,2551.347,,,,0,22,22,22,1,145,20,,,,,,,,
,,6172db15b7d756655cd0bb38,65af55e1be6af047326a98c2,2024-01-23_08h01.23.969,bars,2023.2.3,Win32,59.88023952,657b66ea316d21385b68909f,,,,,,,,,,,2551.348,2552.3411,,,2552.8297,2553.0803,,158,158,,,,,,,,,,,,,,,,bars/017.png,bars/mask003.png,,,,,,,,,,,,3,1,,,,,,,6,4,5,4,,,,,,,,,,,2552.3413,2552.8297,2553.0803,2560.0972,space,7.0009,,2560.0973,13,67,2561.0927,2561.0927,2561.137,,,,0,23,23,23,1,145,45,,,,,,,,
,,6172db15b7d756655cd0bb38,65af55e1be6af047326a98c2,2024-01-23_08h01.23.969,bars,2023.2.3,Win32,59.88023952,657b66ea316d21385b68909f,,,,,,,,,,,2561.1375,2562.141,,,2562.6409,2562.891,,156,156,,,,,,,,,,,,,,,,bars/021.png,bars/mask008.png,,,,,,,,,,,,8,1,,,,,,,8,6,8,7,,,,,,,,,,,2562.141,2562.6408,2562.8912,2565.8083,space,2.9021,,2565.8088,1,86,2566.8087,2566.8088,2566.8532,,,,0,24,24,24,1,155,70,,,,,,,,
,,6172db15b7d756655cd0bb38,65af55e1be6af047326a98c2,2024-01-23_08h01.23.969,bars,2023.2.3,Win32,59.88023952,657b66ea316d21385b68909f,,,,,,,,,,,2566.8541,2567.8582,,,2568.3577,2568.608,,38,38,,,,,,,,,,,,,,,,bars/048.png,bars/mask006.png,,,,,,,,,,,,4,1,,,,,,,6,8,7,7,,,,,,,,,,,2567.8583,2568.3576,2568.6082,2571.2248,space,2.5995,,2571.225,12,43,2572.224,2572.2242,2572.2668,,,,0,25,25,25,1,50,175,,,,,,,,
,,6172db15b7d756655cd0bb38,65af55e1be6af047326a98c2,2024-01-23_08h01.23.969,bars,2023.2.3,Win32,59.88023952,657b66ea316d21385b68909f,,,,,,,,,,,2572.2674,2573.2577,,,2573.7578,2574.0076,,145,145,,,,,,,,,,,,,,,,bars/017.png,bars/mask001.png,,,,,,,,,,,,8,1,,,,,,,8,10,8,10,,,,,,,,,,,2573.2577,2573.7576,2574.0077,2576.3416,space,2.3186,,2576.3419,0,80,2577.3408,2577.3409,2577.382,,,,0,26,26,26,1,145,45,,,,,,,,
,,6172db15b7d756655cd0bb38,65af55e1be6af047326a98c2,2024-01-23_08h01.23.969,bars,2023.2.3,Win32,59.88023952,657b66ea316d21385b68909f,,,,,,,,,,,2577.3826,2578.3778,,,2578.8743,2579.1242,,121,-59,,,,,,,,,,,,,,,,bars/040.png,bars/mask007.png,,,,,,,,,,,,2,1,,,,,,,6,10,6,10,,,,,,,,,,,2578.3778,2578.8742,2579.1243,2583.5911,space,4.457,,2583.5915,19,64,2584.5909,2584.591,2584.6321,,,,0,27,27,27,1,140,5,,,,,,,,
,,6172db15b7d756655cd0bb38,65af55e1be6af047326a98c2,2024-01-23_08h01.23.969,bars,2023.2.3,Win32,59.88023952,657b66ea316d21385b68909f,,,,,,,,,,,2584.6327,2585.6294,,,2586.1244,2586.3743,,26,206,,,,,,,,,,,,,,,,bars/003.png,bars/mask002.png,,,,,,,,,,,,9,1,,,,,,,8,10,9,10,,,,,,,,,,,2585.6296,2586.1243,2586.3744,2591.0081,space,4.6202,,2591.0082,1,66,2592.0077,2592.0078,2592.0527,,,,0,28,28,28,1,25,140,,,,,,,,
,,6172db15b7d756655cd0bb38,65af55e1be6af047326a98c2,2024-01-23_08h01.23.969,bars,2023.2.3,Win32,59.88023952,657b66ea316d21385b68909f,,,,,,,,,,,2592.0532,2593.0409,,,2593.5416,2593.7912,,90,90,,,,,,,,,,,,,,,,bars/045.png,bars/mask004.png,,,,,,,,,,,,7,1,,,,,,,10,10,10,10,,,,,,,,,,,2593.041,2593.5414,2593.7912,2597.2247,space,3.418,,2597.2249,10,80,2598.2242,2598.2243,2598.274,,,,0,29,29,29,1,100,10,,,,,,,,
,,6172db15b7d756655cd0bb38,65af55e1be6af047326a98c2,2024-01-23_08h01.23.969,bars,2023.2.3,Win32,59.88023952,657b66ea316d21385b68909f,,,,,,,,,,,2598.275,2599.2742,,,2599.7744,2600.0242,,125,125,,,,,,,,,,,,,,,,bars/024.png,bars/mask005.png,,,,,,,,,,,,8,1,,,,,,,8,8,9,7,,,,,,,,,,,2599.2743,2599.7742,2600.0243,2604.0746,space,4.0368,,2604.0747,5,45,2605.0742,2605.0743,2605.1162,,,,0,30,30,30,1,120,170,,,,,,,,
,,6172db15b7d756655cd0bb38,65af55e1be6af047326a98c2,2024-01-23_08h01.23.969,bars,2023.2.3,Win32,59.88023952,657b66ea316d21385b68909f,,,,,,,,,,,2605.1165,2606.1113,,,2606.6081,2606.858,,39,39,,,,,,,,,,,,,,,,bars/026.png,bars/mask008.png,,,,,,,,,,,,7,1,,,,,,,10,6,8,8,,,,,,,,,,,2606.1115,2606.608,2606.8581,2609.4754,space,2.6023,,2609.4755,4,46,2610.4746,2610.4747,2610.5191,,,,0,31,31,31,1,35,85,,,,,,,,
,,6172db15b7d756655cd0bb38,65af55e1be6af047326a98c2,2024-01-23_08h01.23.969,bars,2023.2.3,Win32,59.88023952,657b66ea316d21385b68909f,,,,,,,,,,,2610.5197,2611.5077,,,2612.0078,2612.2579,,5,5,,,,,,,,,,,,,,,,bars/004.png,bars/mask002.png,,,,,,,,,,,,3,1,,,,,,,10,8,10,9,,,,,,,,,,,2611.5077,2612.0077,2612.258,2615.0422,space,2.7695,,2615.0423,20,60,2616.0411,2616.0411,2616.0849,,,,0,32,32,32,1,25,125,,,,,,,,
,,6172db15b7d756655cd0bb38,65af55e1be6af047326a98c2,2024-01-23_08h01.23.969,bars,2023.2.3,Win32,59.88023952,657b66ea316d21385b68909f,,,,,,,,,,,2616.0854,2617.0746,,,2617.5744,2617.8244,,105,105,,,,,,,,,,,,,,,,bars/015.png,bars/mask001.png,,,,,,,,,,,,8,1,,,,,,,10,10,10,10,,,,,,,,,,,2617.0747,2617.5744,2617.8245,2621.4246,space,3.5842,,2621.4248,5,55,2622.4245,2622.4247,2622.4691,,,,0,33,33,33,1,110,160,,,,,,,,
,,6172db15b7d756655cd0bb38,65af55e1be6af047326a98c2,2024-01-23_08h01.23.969,bars,2023.2.3,Win32,59.88023952,657b66ea316d21385b68909f,,,,,,,,,,,2622.4696,2623.4578,,,2623.958,2624.2079,,141,141,,,,,,,,,,,,,,,,bars/040.png,bars/mask000.png,,,,,,,,,,,,7,1,,,,,,,8,8,7,9,,,,,,,,,,,2623.458,2623.9578,2624.2079,2628.8415,space,4.6179,,2628.8418,1,44,2629.8411,2629.8414,2629.8848,,,,0,34,34,34,1,140,5,,,,,,,,
,,6172db15b7d756655cd0bb38,65af55e1be6af047326a98c2,2024-01-23_08h01.23.969,bars,2023.2.3,Win32,59.88023952,657b66ea316d21385b68909f,,,,,,,,,,,2629.8853,2630.8744,,,2631.3745,2631.6244,,141,141,,,,,,,,,,,,,,,,bars/036.png,bars/mask009.png,,,,,,,,,,,,5,1,,,,,,,6,10,6,9,,,,,,,,,,,2630.8745,2631.3744,2631.6246,2635.4748,space,3.8348,,2635.475,4,59,2636.4743,2636.4744,2636.5213,,,,0,35,35,35,1,145,20,,,,,,,,
,,6172db15b7d756655cd0bb38,65af55e1be6af047326a98c2,2024-01-23_08h01.23.969,bars,2023.2.3,Win32,59.88023952,657b66ea316d21385b68909f,,,,,,,,,,,2636.5219,2637.5244,,,2638.0251,2638.2747,,32,212,,,,,,,,,,,,,,,,bars/006.png,bars/mask002.png,,,,,,,,,,,,3,1,,,,,,,4,8,3,6,,,,,,,,,,,2637.5245,2638.025,2638.2747,2643.2588,space,4.9745,,2643.2589,3,68,2644.2581,2644.2582,2644.3031,,,,0,36,36,36,1,35,100,,,,,,,,
,,6172db15b7d756655cd0bb38,65af55e1be6af047326a98c2,2024-01-23_08h01.23.969,bars,2023.2.3,Win32,59.88023952,657b66ea316d21385b68909f,,,,,,,,,,,2644.3037,2645.3078,,,2645.808,2646.0579,,6,6,,,,,,,,,,,,,,,,bars/010.png,bars/mask008.png,,,,,,,,,,,,2,1,,,,,,,6,10,6,10,,,,,,,,,,,2645.3079,2645.8079,2646.0581,2649.4083,space,3.3344,,2649.4085,21,49,2650.4078,2650.4079,2650.4516,,,,0,37,37,37,1,165,55,,,,,,,,
,,6172db15b7d756655cd0bb38,65af55e1be6af047326a98c2,2024-01-23_08h01.23.969,bars,2023.2.3,Win32,59.88023952,657b66ea316d21385b68909f,,,,,,,,,,,2650.452,2651.4411,,,2651.9414,2652.1912,,141,141,,,,,,,,,,,,,,,,bars/021.png,bars/mask008.png,,,,,,,,,,,,5,1,,,,,,,8,10,10,10,,,,,,,,,,,2651.4413,2651.9412,2652.1913,2654.1581,space,1.9559,,2654.1584,14,71,2655.1578,2655.158,2655.1604,,,,0,38,38,38,1,155,70,,,,,,,,
,,6172db15b7d756655cd0bb38,65af55e1be6af047326a98c2,2024-01-23_08h01.23.969,bars,2023.2.3,Win32,59.88023952,657b66ea316d21385b68909f,,,,,,,,,,,2655.1618,2656.1578,,,2656.6579,2656.9084,,136,136,,,,,,,,,,,,,,,,bars/008.png,bars/mask000.png,,,,,,,,,,,,1,1,,,,,,,10,8,9,7,,,,,,,,,,,2656.1579,2656.6577,2656.9084,2660.3079,space,3.3902,,2660.3082,26,44,2661.308,2661.3081,2661.3509,,,,0,39,39,39,1,110,0,,,,,,,,
,,6172db15b7d756655cd0bb38,65af55e1be6af047326a98c2,2024-01-23_08h01.23.969,bars,2023.2.3,Win32,59.88023952,657b66ea316d21385b68909f,,,,,,,,,,,2661.3515,2662.3418,,,2662.8417,2663.0915,,147,147,,,,,,,,,,,,,,,,bars/017.png,bars/mask007.png,,,,,,,,,,,,8,1,,,,,,,10,6,9,5,,,,,,,,,,,2662.3419,2662.8416,2663.0917,2666.0921,space,2.9894,,2666.0923,2,78,2667.0916,2667.0917,2667.1388,,,,0,40,40,40,1,145,45,,,,,,,,
,,6172db15b7d756655cd0bb38,65af55e1be6af047326a98c2,2024-01-23_08h01.23.969,bars,2023.2.3,Win32,59.88023952,657b66ea316d21385b68909f,,,,,,,,,,,2667.1393,2668.1417,,,2668.6405,2668.8926,,163,163,,,,,,,,,,,,,,,,bars/018.png,bars/mask008.png,,,,,,,,,,,,5,1,,,,,,,10,4,9,5,,,,,,,,,,,2668.1419,2668.6405,2668.8926,2674.8424,space,5.9301,,2674.8425,13,73,2675.8418,2675.842,2675.9017,,,,0,41,41,41,1,150,90,,,,,,,,
,,6172db15b7d756655cd0bb38,65af55e1be6af047326a98c2,2024-01-23_08h01.23.969,bars,2023.2.3,Win32,59.88023952,657b66ea316d21385b68909f,,,,,,,,,,,2675.9027,2676.8911,,,2677.3917,2677.6416,,21,201,,,,,,,,,,,,,,,,bars/035.png,bars/mask003.png,,,,,,,,,,,,1,1,,,,,,,8,2,10,2,,,,,,,,,,,2676.8913,2677.3917,2677.6416,2681.409,space,3.7561,,2681.4092,26,39,2682.4088,2682.4095,2682.453,,,,0,42,42,42,1,175,60,,,,,,,,
,,6172db15b7d756655cd0bb38,65af55e1be6af047326a98c2,2024-01-23_08h01.23.969,bars,2023.2.3,Win32,59.88023952,657b66ea316d21385b68909f,,,,,,,,,,,2682.4537,2683.4578,,,2683.9588,2684.2083,,61,241,,,,,,,,,,,,,,,,bars/019.png,bars/mask000.png,,,,,,,,,,,,3,1,,,,,,,6,4,6,3,,,,,,,,,,,2683.458,2683.9585,2684.2084,2690.2326,space,6.0025,,2690.2327,16,44,2691.2304,2691.2305,2691.2748,,,,0,43,43,43,1,45,105,,,,,,,,
,,6172db15b7d756655cd0bb38,65af55e1be6af047326a98c2,2024-01-23_08h01.23.969,bars,2023.2.3,Win32,59.88023952,657b66ea316d21385b68909f,,,,,,,,,,,2691.2753,2692.2746,,,2692.7635,2693.0132,,105,105,,,,,,,,,,,,,,,,bars/012.png,bars/mask006.png,,,,,,,,,,,,2,1,,,,,,,4,2,4,4,,,,,,,,,,,2692.2747,2692.7634,2693.0133,2699.1326,space,6.1021,,2699.1327,15,90,2700.128,2700.1282,2700.1688,,,,0,44,44,44,1,90,15,,,,,,,,
,,6172db15b7d756655cd0bb38,65af55e1be6af047326a98c2,2024-01-23_08h01.23.969,bars,2023.2.3,Win32,59.88023952,657b66ea316d21385b68909f,,,,,,,,,,,2700.1693,2701.158,,,2701.6471,2701.8917,,130,130,,,,,,,,,,,,,,,,bars/025.png,bars/mask009.png,,,,,,,,,,,,0,1,,,,,,,2,0,2,2,,,,,,,,,,,2701.1581,2701.647,2701.892,2706.066,space,4.1524,,2706.066,25,90,2707.058,2707.0584,2707.1055,,,,0,45,45,45,1,105,40,,,,,,,,
,,6172db15b7d756655cd0bb38,65af55e1be6af047326a98c2,2024-01-23_08h01.23.969,bars,2023.2.3,Win32,59.88023952,657b66ea316d21385b68909f,,,,,,,,,,,2707.1061,2708.1079,,,2708.6086,2708.8615,,88,88,,,,,,,,,,,,,,,,bars/027.png,bars/mask004.png,,,,,,,,,,,,1,1,,,,,,,4,0,5,0,,,,,,,,,,,2708.108,2708.6084,2708.8615,2712.3978,space,3.5176,,2712.3979,22,38,2713.3916,2713.3919,2713.4358,,,,0,46,46,46,1,110,50,,,,,,,,
,,6172db15b7d756655cd0bb38,65af55e1be6af047326a98c2,2024-01-23_08h01.23.969,bars,2023.2.3,Win32,59.88023952,657b66ea316d21385b68909f,,,,,,,,,,,2713.4363,2714.4246,,,2714.913,2715.163,,130,130,,,,,,,,,,,,,,,,bars/022.png,bars/mask007.png,,,,,,,,,,,,0,1,,,,,,,2,2,3,3,,,,,,,,,,,2714.4247,2714.913,2715.1632,2722.3993,space,7.2189,,2722.3996,35,70,2723.3964,2723.3966,2723.442,,,,0,47,47,47,1,95,20,,,,,,,,
,,6172db15b7d756655cd0bb38,65af55e1be6af047326a98c2,2024-01-23_08h01.23.969,bars,2023.2.3,Win32,59.88023952,657b66ea316d21385b68909f,,,,,,,,,,,2723.4427,2724.4414,,,2724.9416,2725.1916,,59,59,,,,,,,,,,,,,,,,bars/025.png,bars/mask002.png,,,,,,,,,,,,1,2,,,,,,,0,4,0,3,,,,,,,,,,,2724.4415,2724.9415,2725.1917,2730.4083,space,5.2072,,2730.4085,46,19,2731.4082,2731.4083,2731.4503,,,,0,48,48,48,1,105,40,,,,,,,,
,,6172db15b7d756655cd0bb38,65af55e1be6af047326a98c2,2024-01-23_08h01.23.969,bars,2023.2.3,Win32,59.88023952,657b66ea316d21385b68909f,,,,,,,,,,,2731.4507,2732.4447,,,2732.9432,2733.1915,,26,26,,,,,,,,,,,,,,,,bars/039.png,bars/mask006.png,,,,,,,,,,,,0,1,,,,,,,0,2,1,2,,,,,,,,,,,2732.4448,2732.9429,2733.1916,2742.5087,space,9.3022,,2742.5089,31,79,2743.5081,2743.5083,2743.5574,,,,0,49,49,49,1,175,105,,,,,,,,
,,6172db15b7d756655cd0bb38,65af55e1be6af047326a98c2,2024-01-23_08h01.23.969,bars,2023.2.3,Win32,59.88023952,657b66ea316d21385b68909f,,,,,,,,,,,,,,,,,,,,,,,,,,,,,,,,,,,,,,,,,,,,,,,,,,,,,,,,,,,,,,,,,,,,,,,,,,,,,,,,,,,,,,,,,,,,,2743.5579,2803.5588,0,3,3,1,1,sequence_tables/blk039.csv
,,6172db15b7d756655cd0bb38,65af55e1be6af047326a98c2,2024-01-23_08h01.23.969,bars,2023.2.3,Win32,59.88023952,657b66ea316d21385b68909f,,,,,,,,,,,2964.154,2965.1088,,,2965.6091,2965.8589,,147,147,,,,,,,,,,,,,,,,bars/037.png,bars/mask003.png,,,,,,,,,,,,8,1,,,,,,,8,8,9,9,,,,,,2803.6003,2964.0954,space,160.4862,,2965.1091,2965.609,2965.8591,2971.5927,space,5.72,,2971.5931,3,42,2972.5921,2972.5923,2972.6378,,,,0,0,0,0,1,150,105,,,,,,,,
,,6172db15b7d756655cd0bb38,65af55e1be6af047326a98c2,2024-01-23_08h01.23.969,bars,2023.2.3,Win32,59.88023952,657b66ea316d21385b68909f,,,,,,,,,,,2972.6385,2973.6422,,,2974.1431,2974.3808,,37,37,,,,,,,,,,,,,,,,bars/011.png,bars/mask007.png,,,,,,,,,,,,0,2,,,,,,,10,6,8,6,,,,,,,,,,,2973.6423,2974.1428,2974.3809,2978.9269,space,4.5273,,2978.9271,57,48,2979.9308,2979.9308,2979.977,,,,0,1,1,1,1,160,85,,,,,,,,
,,6172db15b7d756655cd0bb38,65af55e1be6af047326a98c2,2024-01-23_08h01.23.969,bars,2023.2.3,Win32,59.88023952,657b66ea316d21385b68909f,,,,,,,,,,,2979.9777,2980.9758,,,2981.4758,2981.7257,,160,160,,,,,,,,,,,,,,,,bars/039.png,bars/mask006.png,,,,,,,,,,,,5,1,,,,,,,8,8,10,8,,,,,,,,,,,2980.976,2981.4758,2981.7257,2983.726,space,1.9845,,2983.7262,15,55,2984.7277,2984.7278,2984.7735,,,,0,2,2,2,1,175,105,,,,,,,,
,,6172db15b7d756655cd0bb38,65af55e1be6af047326a98c2,2024-01-23_08h01.23.969,bars,2023.2.3,Win32,59.88023952,657b66ea316d21385b68909f,,,,,,,,,,,2984.7748,2985.7753,,,2986.2811,2986.5256,,147,147,,,,,,,,,,,,,,,,bars/041.png,bars/mask001.png,,,,,,,,,,,,0,1,,,,,,,6,6,4,7,,,,,,,,,,,2985.7754,2986.2809,2986.5259,3001.0598,space,14.5173,,3001.0603,53,62,3002.059,3002.0592,3002.1062,,,,0,3,3,3,1,20,85,,,,,,,,
,,6172db15b7d756655cd0bb38,65af55e1be6af047326a98c2,2024-01-23_08h01.23.969,bars,2023.2.3,Win32,59.88023952,657b66ea316d21385b68909f,,,,,,,,,,,3002.107,3003.1091,,,3003.6143,3003.8642,,157,157,,,,,,,,,,,,,,,,bars/001.png,bars/mask006.png,,,,,,,,,,,,0,1,,,,,,,4,8,5,7,,,,,,,,,,,3003.1091,3003.6141,3003.8643,3008.667,space,4.7854,,3008.6672,27,72,3009.6595,3009.66,3009.7042,,,,0,4,4,4,1,130,85,,,,,,,,
,,6172db15b7d756655cd0bb38,65af55e1be6af047326a98c2,2024-01-23_08h01.23.969,bars,2023.2.3,Win32,59.88023952,657b66ea316d21385b68909f,,,,,,,,,,,3009.7048,3010.6926,,,3011.193,3011.431,,160,160,,,,,,,,,,,,,,,,bars/046.png,bars/mask003.png,,,,,,,,,,,,1,1,,,,,,,2,6,1,6,,,,,,,,,,,3010.6926,3011.1926,3011.4311,3024.416,space,12.9678,,3024.4163,5,75,3025.4093,3025.4095,3025.4585,,,,0,5,5,5,1,155,85,,,,,,,,
,,6172db15b7d756655cd0bb38,65af55e1be6af047326a98c2,2024-01-23_08h01.23.969,bars,2023.2.3,Win32,59.88023952,657b66ea316d21385b68909f,,,,,,,,,,,3025.4591,3026.4594,,,3026.9593,3027.1977,,90,90,,,,,,,,,,,,,,,,bars/022.png,bars/mask000.png,,,,,,,,,,,,3,1,,,,,,,4,4,3,6,,,,,,,,,,,3026.4596,3026.9592,3027.1979,3033.6501,space,6.4355,,3033.6502,5,70,3034.6479,3034.648,3034.693,,,,0,6,6,6,1,95,20,,,,,,,,
,,6172db15b7d756655cd0bb38,65af55e1be6af047326a98c2,2024-01-23_08h01.23.969,bars,2023.2.3,Win32,59.88023952,657b66ea316d21385b68909f,,,,,,,,,,,3034.6934,3035.6925,,,3036.1935,3036.4428,,109,109,,,,,,,,,,,,,,,,bars/045.png,bars/mask004.png,,,,,,,,,,,,1,1,,,,,,,2,2,1,1,,,,,,,,,,,3035.6926,3036.1933,3036.443,3040.7338,space,4.2689,,3040.7339,9,81,3041.7259,3041.7261,3041.7717,,,,0,7,7,7,1,100,10,,,,,,,,
,,6172db15b7d756655cd0bb38,65af55e1be6af047326a98c2,2024-01-23_08h01.23.969,bars,2023.2.3,Win32,59.88023952,657b66ea316d21385b68909f,,,,,,,,,,,3041.7722,3042.7758,,,3043.2759,3043.526,,10,10,,,,,,,,,,,,,,,,bars/041.png,bars/mask006.png,,,,,,,,,,,,2,1,,,,,,,4,4,3,3,,,,,,,,,,,3042.7759,3043.2758,3043.526,3046.8762,space,3.3388,,3046.8765,10,75,3047.8759,3047.8761,3047.9193,,,,0,8,8,8,1,20,85,,,,,,,,
,,6172db15b7d756655cd0bb38,65af55e1be6af047326a98c2,2024-01-23_08h01.23.969,bars,2023.2.3,Win32,59.88023952,657b66ea316d21385b68909f,,,,,,,,,,,3047.9197,3048.9092,,,3049.3976,3049.6429,,91,91,,,,,,,,,,,,,,,,bars/031.png,bars/mask005.png,,,,,,,,,,,,0,1,,,,,,,2,6,3,7,,,,,,,,,,,3048.9093,3049.3975,3049.6431,3051.9103,space,2.2519,,3051.9104,29,56,3052.9095,3052.9097,3052.9551,,,,0,9,9,9,1,120,35,,,,,,,,
,,6172db15b7d756655cd0bb38,65af55e1be6af047326a98c2,2024-01-23_08h01.23.969,bars,2023.2.3,Win32,59.88023952,657b66ea316d21385b68909f,,,,,,,,,,,3052.9557,3053.9592,,,3054.4597,3054.698,,172,172,,,,,,,,,,,,,,,,bars/036.png,bars/mask009.png,,,,,,,,,,,,0,1,,,,,,,4,8,4,8,,,,,,,,,,,3053.9593,3054.4596,3054.6981,3057.284,space,2.5691,,3057.284,27,28,3058.2807,3058.2808,3058.3234,,,,0,10,10,10,1,145,20,,,,,,,,
