init_variables.started,init_variables.stopped,participant,session,date,expName,psychopyVersion,OS,frameRate,study_id,instruction_exp.started,instruction_exp.stopped,key_resp_8.keys,key_resp_8.rt,key_resp_8.duration,instruction_single.started,instruction_single.stopped,key_resp_2.keys,key_resp_2.rt,key_resp_2.duration,interval.started,interval.stopped,cue_single.started,cue_single.stopped,mask.started,mask.stopped,ori_response_single.started,res_ori,res,ori_response_single.stopped,key_resp_single.keys,key_resp_single.rt,key_resp_single.duration,disp_single.started,disp_single.stopped,key_resp.keys,key_resp.rt,key_resp.duration,single.thisRepN,single.thisTrialN,single.thisN,single.thisIndex,single.ran,ori,path,mask_path,instruction_bandit.started,instruction_bandit.stopped,key_resp_6.keys,key_resp_6.rt,key_resp_6.duration,cue_bandit.started,cue_bandit.stopped,bandit_res.keys,bandit_res.rt,bandit_res.duration,outcome_bandit.started,rew,action,outcome_bandit.stopped,bandit.thisRepN,bandit.thisTrialN,bandit.thisN,bandit.thisIndex,bandit.ran,actual_rew1,actual_rew2,rew1,rew2,instruction_task.started,instruction_task.stopped,key_resp_7.keys,key_resp_7.rt,key_resp_7.duration,wait_ready.started,wait_ready.stopped,key_resp_3.keys,key_resp_3.rt,key_resp_3.duration,cue.started,cue.stopped,ori_response.started,ori_response.stopped,key_resp_5.keys,key_resp_5.rt,key_resp_5.duration,outcome.started,diff1,diff2,outcome.stopped,disp_outcome_practice.started,disp_outcome_practice.stopped,key_resp_4.keys,key_resp_4.rt,key_resp_4.duration,trials.thisRepN,trials.thisTrialN,trials.thisN,trials.thisIndex,trials.ran,ori1,ori2,break_blk.started,break_blk.stopped,block.thisRepN,block.thisTrialN,block.thisN,block.thisIndex,block.ran,condition_file
9.99999E-05,0.0003,616e21f72bf3c44fb03e33cc,65af5567f6e775c50195c060,2024-01-23_07h58.47.260,bars,2023.2.3,Win32,59.17159763,657b66ea316d21385b68909f,,,,,,,,,,,,,,,,,,,,,,,,,,,,,,,,,,,,,,,,,,,,,,,,,,,,,,,,,,,,,,,,,,,,,,,,,,,,,,,,,,,,,,,,,,,,,,,,,,,,
,,616e21f72bf3c44fb03e33cc,65af5567f6e775c50195c060,2024-01-23_07h58.47.260,bars,2023.2.3,Win32,59.17159763,657b66ea316d21385b68909f,0.0003,9.164,y,9.1458,,,,,,,,,,,,,,,,,,,,,,,,,,,,,,,,,,,,,,,,,,,,,,,,,,,,,,,,,,,,,,,,,,,,,,,,,,,,,,,,,,,,,,,,,,,,,,,,
,,616e21f72bf3c44fb03e33cc,65af5567f6e775c50195c060,2024-01-23_07h58.47.260,bars,2023.2.3,Win32,59.17159763,657b66ea316d21385b68909f,,,,,,9.1645,25.9999,space,16.8138,,,,,,,,,,,,,,,,,,,,,,,,,,,,,,,,,,,,,,,,,,,,,,,,,,,,,,,,,,,,,,,,,,,,,,,,,,,,,,,,,,,,,,,,,,,
,,616e21f72bf3c44fb03e33cc,65af5567f6e775c50195c060,2024-01-23_07h58.47.260,bars,2023.2.3,Win32,59.17159763,657b66ea316d21385b68909f,,,,,,,,,,,26.0109,27.0139,27.0142,27.5139,27.5141,27.7631,27.7633,109,109,34.3486,space,6.56,,34.3489,46.1149,space,11.7221,,0,0,0,7,1,45,bars/single007.png,bars/mask009.png,,,,,,,,,,,,,,,,,,,,,,,,,,,,,,,,,,,,,,,,,,,,,,,,,,,,,,,,,,,,,,,,
,,616e21f72bf3c44fb03e33cc,65af5567f6e775c50195c060,2024-01-23_07h58.47.260,bars,2023.2.3,Win32,59.17159763,657b66ea316d21385b68909f,,,,,,,,,,,46.1345,47.1302,47.1303,47.6302,47.6303,47.8805,47.8806,19,19,53.6807,space,5.7829,,53.6807,59.0144,space,5.2917,,0,1,1,3,1,20,bars/single003.png,bars/mask005.png,,,,,,,,,,,,,,,,,,,,,,,,,,,,,,,,,,,,,,,,,,,,,,,,,,,,,,,,,,,,,,,,
,,616e21f72bf3c44fb03e33cc,65af5567f6e775c50195c060,2024-01-23_07h58.47.260,bars,2023.2.3,Win32,59.17159763,657b66ea316d21385b68909f,,,,,,,,,,,59.0356,60.0305,60.0305,60.5306,60.5306,60.7807,60.7808,143,143,66.6475,space,5.851,,66.6475,74.7476,space,8.0664,,0,2,2,1,1,20,bars/single001.png,bars/mask006.png,,,,,,,,,,,,,,,,,,,,,,,,,,,,,,,,,,,,,,,,,,,,,,,,,,,,,,,,,,,,,,,,
,,616e21f72bf3c44fb03e33cc,65af5567f6e775c50195c060,2024-01-23_07h58.47.260,bars,2023.2.3,Win32,59.17159763,657b66ea316d21385b68909f,,,,,,,,,,,74.7666,75.7476,75.7477,76.2474,76.2474,76.497,76.497,1,1,79.481,space,2.9754,,79.4811,84.598,space,5.0853,,0,3,3,5,1,55,bars/single005.png,bars/mask008.png,,,,,,,,,,,,,,,,,,,,,,,,,,,,,,,,,,,,,,,,,,,,,,,,,,,,,,,,,,,,,,,,
,,616e21f72bf3c44fb03e33cc,65af5567f6e775c50195c060,2024-01-23_07h58.47.260,bars,2023.2.3,Win32,59.17159763,657b66ea316d21385b68909f,,,,,,,,,,,84.6176,85.6144,85.6145,86.1144,86.1145,86.3641,86.3641,27,207,98.5647,space,12.1889,,98.5647,107.8484,space,9.2533,,0,4,4,6,1,175,bars/single006.png,bars/mask005.png,,,,,,,,,,,,,,,,,,,,,,,,,,,,,,,,,,,,,,,,,,,,,,,,,,,,,,,,,,,,,,,,
,,616e21f72bf3c44fb03e33cc,65af5567f6e775c50195c060,2024-01-23_07h58.47.260,bars,2023.2.3,Win32,59.17159763,657b66ea316d21385b68909f,,,,,,,,,,,107.87,108.8649,108.865,109.3649,109.365,109.6145,109.6146,50,50,114.2817,space,4.6509,,114.2819,117.931,space,3.6169,,0,5,5,9,1,20,bars/single009.png,bars/mask006.png,,,,,,,,,,,,,,,,,,,,,,,,,,,,,,,,,,,,,,,,,,,,,,,,,,,,,,,,,,,,,,,,
,,616e21f72bf3c44fb03e33cc,65af5567f6e775c50195c060,2024-01-23_07h58.47.260,bars,2023.2.3,Win32,59.17159763,657b66ea316d21385b68909f,,,,,,,,,,,117.9372,118.9313,118.9313,119.4318,119.432,119.6813,119.6814,179,-1,124.782,space,5.0879,,124.7821,129.332,space,4.513,,0,6,6,2,1,145,bars/single002.png,bars/mask003.png,,,,,,,,,,,,,,,,,,,,,,,,,,,,,,,,,,,,,,,,,,,,,,,,,,,,,,,,,,,,,,,,
,,616e21f72bf3c44fb03e33cc,65af5567f6e775c50195c060,2024-01-23_07h58.47.260,bars,2023.2.3,Win32,59.17159763,657b66ea316d21385b68909f,,,,,,,,,,,129.3542,130.3486,130.3487,130.8486,130.8487,131.0986,131.0987,179,179,137.7322,space,6.6186,,137.7322,141.1485,space,3.3867,,0,7,7,4,1,95,bars/single004.png,bars/mask004.png,,,,,,,,,,,,,,,,,,,,,,,,,,,,,,,,,,,,,,,,,,,,,,,,,,,,,,,,,,,,,,,,
,,616e21f72bf3c44fb03e33cc,65af5567f6e775c50195c060,2024-01-23_07h58.47.260,bars,2023.2.3,Win32,59.17159763,657b66ea316d21385b68909f,,,,,,,,,,,141.1687,142.1487,142.1488,142.6488,142.6488,142.8986,142.8986,55,55,145.2822,space,2.3689,,145.2823,148.4324,space,3.1407,,0,8,8,0,1,150,bars/single000.png,bars/mask006.png,,,,,,,,,,,,,,,,,,,,,,,,,,,,,,,,,,,,,,,,,,,,,,,,,,,,,,,,,,,,,,,,
,,616e21f72bf3c44fb03e33cc,65af5567f6e775c50195c060,2024-01-23_07h58.47.260,bars,2023.2.3,Win32,59.17159763,657b66ea316d21385b68909f,,,,,,,,,,,148.4526,149.449,149.4491,149.9486,149.9486,150.1989,150.199,159,159,152.982,space,2.7716,,152.982,157.3993,space,4.4012,,0,9,9,8,1,160,bars/single008.png,bars/mask004.png,,,,,,,,,,,,,,,,,,,,,,,,,,,,,,,,,,,,,,,,,,,,,,,,,,,,,,,,,,,,,,,,
,,616e21f72bf3c44fb03e33cc,65af5567f6e775c50195c060,2024-01-23_07h58.47.260,bars,2023.2.3,Win32,59.17159763,657b66ea316d21385b68909f,,,,,,,,,,,,,,,,,,,,,,,,,,,,,,,,,,,,,157.4199,172.217,space,14.7835,,,,,,,,,,,,,,,,,,,,,,,,,,,,,,,,,,,,,,,,,,,,,,,,,,,,,,,,,,,,
,,616e21f72bf3c44fb03e33cc,65af5567f6e775c50195c060,2024-01-23_07h58.47.260,bars,2023.2.3,Win32,59.17159763,657b66ea316d21385b68909f,,,,,,,,,,,,,,,,,,,,,,,,,,,,,,,,,,,,,,,,,,172.2399,174.5158,left,2.2633,,174.5159,9,1,175.5156,0,0,0,0,1,9,1,9,2,,,,,,,,,,,,,,,,,,,,,,,,,,,,,,,,,,,,,,,,,
,,616e21f72bf3c44fb03e33cc,65af5567f6e775c50195c060,2024-01-23_07h58.47.260,bars,2023.2.3,Win32,59.17159763,657b66ea316d21385b68909f,,,,,,,,,,,,,,,,,,,,,,,,,,,,,,,,,,,,,,,,,,175.516,177.0995,right,1.5656,,177.0996,1,2,178.0991,0,1,1,1,1,10,0,10,1,,,,,,,,,,,,,,,,,,,,,,,,,,,,,,,,,,,,,,,,,
,,616e21f72bf3c44fb03e33cc,65af5567f6e775c50195c060,2024-01-23_07h58.47.260,bars,2023.2.3,Win32,59.17159763,657b66ea316d21385b68909f,,,,,,,,,,,,,,,,,,,,,,,,,,,,,,,,,,,,,,,,,,178.0997,179.1326,right,1.0177,,179.1327,2,2,180.1325,0,2,2,2,1,10,2,10,2,,,,,,,,,,,,,,,,,,,,,,,,,,,,,,,,,,,,,,,,,
,,616e21f72bf3c44fb03e33cc,65af5567f6e775c50195c060,2024-01-23_07h58.47.260,bars,2023.2.3,Win32,59.17159763,657b66ea316d21385b68909f,,,,,,,,,,,,,,,,,,,,,,,,,,,,,,,,,,,,,,,,,,180.1329,181.2155,left,1.0634,,181.2156,7,1,182.2152,0,3,3,3,1,8,4,7,3,,,,,,,,,,,,,,,,,,,,,,,,,,,,,,,,,,,,,,,,,
,,616e21f72bf3c44fb03e33cc,65af5567f6e775c50195c060,2024-01-23_07h58.47.260,bars,2023.2.3,Win32,59.17159763,657b66ea316d21385b68909f,,,,,,,,,,,,,,,,,,,,,,,,,,,,,,,,,,,,,,,,,,182.2154,183.8656,left,1.641,,183.8656,5,1,184.866,0,4,4,4,1,6,2,5,1,,,,,,,,,,,,,,,,,,,,,,,,,,,,,,,,,,,,,,,,,
,,616e21f72bf3c44fb03e33cc,65af5567f6e775c50195c060,2024-01-23_07h58.47.260,bars,2023.2.3,Win32,59.17159763,657b66ea316d21385b68909f,,,,,,,,,,,,,,,,,,,,,,,,,,,,,,,,,,,,,,,,,,184.8863,186.4665,left,1.5715,,186.4665,4,1,187.4661,0,5,5,5,1,4,4,4,4,,,,,,,,,,,,,,,,,,,,,,,,,,,,,,,,,,,,,,,,,
,,616e21f72bf3c44fb03e33cc,65af5567f6e775c50195c060,2024-01-23_07h58.47.260,bars,2023.2.3,Win32,59.17159763,657b66ea316d21385b68909f,,,,,,,,,,,,,,,,,,,,,,,,,,,,,,,,,,,,,,,,,,187.4667,192.1831,right,4.7001,,192.1833,2,2,193.1831,0,6,6,6,1,2,2,1,2,,,,,,,,,,,,,,,,,,,,,,,,,,,,,,,,,,,,,,,,,
,,616e21f72bf3c44fb03e33cc,65af5567f6e775c50195c060,2024-01-23_07h58.47.260,bars,2023.2.3,Win32,59.17159763,657b66ea316d21385b68909f,,,,,,,,,,,,,,,,,,,,,,,,,,,,,,,,,,,,,,,,,,193.2073,196.0335,right,2.8121,,196.0336,1,2,197.0331,0,7,7,7,1,0,0,0,1,,,,,,,,,,,,,,,,,,,,,,,,,,,,,,,,,,,,,,,,,
,,616e21f72bf3c44fb03e33cc,65af5567f6e775c50195c060,2024-01-23_07h58.47.260,bars,2023.2.3,Win32,59.17159763,657b66ea316d21385b68909f,,,,,,,,,,,,,,,,,,,,,,,,,,,,,,,,,,,,,,,,,,197.0542,199.1666,left,2.098,,199.1667,1,1,200.1664,0,8,8,8,1,0,2,1,0,,,,,,,,,,,,,,,,,,,,,,,,,,,,,,,,,,,,,,,,,
,,616e21f72bf3c44fb03e33cc,65af5567f6e775c50195c060,2024-01-23_07h58.47.260,bars,2023.2.3,Win32,59.17159763,657b66ea316d21385b68909f,,,,,,,,,,,,,,,,,,,,,,,,,,,,,,,,,,,,,,,,,,200.167,201.7,right,1.5191,,201.7,3,2,202.6998,0,9,9,9,1,2,4,2,3,,,,,,,,,,,,,,,,,,,,,,,,,,,,,,,,,,,,,,,,,
,,616e21f72bf3c44fb03e33cc,65af5567f6e775c50195c060,2024-01-23_07h58.47.260,bars,2023.2.3,Win32,59.17159763,657b66ea316d21385b68909f,,,,,,,,,,,,,,,,,,,,,,,,,,,,,,,,,,,,,,,,,,202.7201,206.6167,right,3.8888,,206.6167,3,2,207.6164,0,10,10,10,1,0,2,0,3,,,,,,,,,,,,,,,,,,,,,,,,,,,,,,,,,,,,,,,,,
,,616e21f72bf3c44fb03e33cc,65af5567f6e775c50195c060,2024-01-23_07h58.47.260,bars,2023.2.3,Win32,59.17159763,657b66ea316d21385b68909f,,,,,,,,,,,,,,,,,,,,,,,,,,,,,,,,,,,,,,,,,,207.6373,210.2667,right,2.6162,,210.2668,3,2,211.2666,0,11,11,11,1,0,4,0,3,,,,,,,,,,,,,,,,,,,,,,,,,,,,,,,,,,,,,,,,,
,,616e21f72bf3c44fb03e33cc,65af5567f6e775c50195c060,2024-01-23_07h58.47.260,bars,2023.2.3,Win32,59.17159763,657b66ea316d21385b68909f,,,,,,,,,,,,,,,,,,,,,,,,,,,,,,,,,,,,,,,,,,211.2896,213.1501,left,1.8462,,213.1501,1,1,214.1499,0,12,12,12,1,2,6,1,6,,,,,,,,,,,,,,,,,,,,,,,,,,,,,,,,,,,,,,,,,
,,616e21f72bf3c44fb03e33cc,65af5567f6e775c50195c060,2024-01-23_07h58.47.260,bars,2023.2.3,Win32,59.17159763,657b66ea316d21385b68909f,,,,,,,,,,,,,,,,,,,,,,,,,,,,,,,,,,,,,,,,,,214.1506,218.4167,left,4.2521,,218.4168,1,1,219.4168,0,13,13,13,1,0,4,1,3,,,,,,,,,,,,,,,,,,,,,,,,,,,,,,,,,,,,,,,,,
,,616e21f72bf3c44fb03e33cc,65af5567f6e775c50195c060,2024-01-23_07h58.47.260,bars,2023.2.3,Win32,59.17159763,657b66ea316d21385b68909f,,,,,,,,,,,,,,,,,,,,,,,,,,,,,,,,,,,,,,,,,,219.4387,221.5005,left,2.0504,,221.5005,2,1,222.4999,0,14,14,14,1,2,6,2,7,,,,,,,,,,,,,,,,,,,,,,,,,,,,,,,,,,,,,,,,,
,,616e21f72bf3c44fb03e33cc,65af5567f6e775c50195c060,2024-01-23_07h58.47.260,bars,2023.2.3,Win32,59.17159763,657b66ea316d21385b68909f,,,,,,,,,,,,,,,,,,,,,,,,,,,,,,,,,,,,,,,,,,222.5169,224.2169,right,1.6867,,224.217,9,2,225.2168,0,15,15,15,1,4,8,3,9,,,,,,,,,,,,,,,,,,,,,,,,,,,,,,,,,,,,,,,,,
,,616e21f72bf3c44fb03e33cc,65af5567f6e775c50195c060,2024-01-23_07h58.47.260,bars,2023.2.3,Win32,59.17159763,657b66ea316d21385b68909f,,,,,,,,,,,,,,,,,,,,,,,,,,,,,,,,,,,,,,,,,,225.2174,226.9,left,1.6689,,226.9,7,1,227.8999,0,16,16,16,1,6,6,7,7,,,,,,,,,,,,,,,,,,,,,,,,,,,,,,,,,,,,,,,,,
,,616e21f72bf3c44fb03e33cc,65af5567f6e775c50195c060,2024-01-23_07h58.47.260,bars,2023.2.3,Win32,59.17159763,657b66ea316d21385b68909f,,,,,,,,,,,,,,,,,,,,,,,,,,,,,,,,,,,,,,,,,,227.9005,229.4337,right,1.5182,,229.4337,5,2,230.4336,0,17,17,17,1,8,4,9,5,,,,,,,,,,,,,,,,,,,,,,,,,,,,,,,,,,,,,,,,,
,,616e21f72bf3c44fb03e33cc,65af5567f6e775c50195c060,2024-01-23_07h58.47.260,bars,2023.2.3,Win32,59.17159763,657b66ea316d21385b68909f,,,,,,,,,,,,,,,,,,,,,,,,,,,,,,,,,,,,,,,,,,230.4557,232.6333,right,2.163,,232.6334,1,2,233.6333,0,18,18,18,1,6,2,5,1,,,,,,,,,,,,,,,,,,,,,,,,,,,,,,,,,,,,,,,,,
,,616e21f72bf3c44fb03e33cc,65af5567f6e775c50195c060,2024-01-23_07h58.47.260,bars,2023.2.3,Win32,59.17159763,657b66ea316d21385b68909f,,,,,,,,,,,,,,,,,,,,,,,,,,,,,,,,,,,,,,,,,,233.6336,235.2838,left,1.6343,,235.2839,7,1,236.2836,0,19,19,19,1,8,0,7,0,,,,,,,,,,,,,,,,,,,,,,,,,,,,,,,,,,,,,,,,,
,,616e21f72bf3c44fb03e33cc,65af5567f6e775c50195c060,2024-01-23_07h58.47.260,bars,2023.2.3,Win32,59.17159763,657b66ea316d21385b68909f,,,,,,,,,,,,,,,,,,,,,,,,,,,,,,,,,,,,,,,,,,,,,,,,,,,,,,,,,,,,236.285,290.4847,space,54.1739,,,,,,,,,,,,,,,,,,,,,,,,,,,,,,,,,,,,,
,,616e21f72bf3c44fb03e33cc,65af5567f6e775c50195c060,2024-01-23_07h58.47.260,bars,2023.2.3,Win32,59.17159763,657b66ea316d21385b68909f,,,,,,,,,,,291.8576,292.8511,,,293.3517,293.6012,,90,90,,,,,,,,,,,,,,,,bars/025.png,bars/mask008.png,,,,,,,,,,,,3,1,,,,,,,5,7,6,8,,,,,,290.4938,291.8514,space,1.344,,292.8515,293.3516,293.6016,297.7693,space,4.1437,,297.7698,15,50,298.7682,298.7685,311.3361,space,12.552,,0,0,0,0,1,105,40,,,,,,,,
,,616e21f72bf3c44fb03e33cc,65af5567f6e775c50195c060,2024-01-23_07h58.47.260,bars,2023.2.3,Win32,59.17159763,657b66ea316d21385b68909f,,,,,,,,,,,311.3568,312.3515,,,312.8517,313.1015,,66,66,,,,,,,,,,,,,,,,bars/007.png,bars/mask000.png,,,,,,,,,,,,5,2,,,,,,,7,9,5,8,,,,,,,,,,,312.3516,312.8516,313.1015,317.0852,space,3.9665,,317.0855,71,11,318.085,318.085,325.4187,space,7.3056,,0,1,1,1,1,175,55,,,,,,,,
,,616e21f72bf3c44fb03e33cc,65af5567f6e775c50195c060,2024-01-23_07h58.47.260,bars,2023.2.3,Win32,59.17159763,657b66ea316d21385b68909f,,,,,,,,,,,325.4391,326.4352,,,326.935,327.1851,,69,69,,,,,,,,,,,,,,,,bars/010.png,bars/mask001.png,,,,,,,,,,,,5,2,,,,,,,5,10,4,10,,,,,,,,,,,326.4352,326.935,327.1852,337.9357,space,10.7429,,337.9358,84,14,338.9353,338.9354,348.9357,space,9.9676,,0,2,2,2,1,165,55,,,,,,,,
,,616e21f72bf3c44fb03e33cc,65af5567f6e775c50195c060,2024-01-23_07h58.47.260,bars,2023.2.3,Win32,59.17159763,657b66ea316d21385b68909f,,,,,,,,,,,348.9585,349.952,,,350.4523,350.7021,,51,51,,,,,,,,,,,,,,,,bars/019.png,bars/mask006.png,,,,,,,,,,,,2,1,,,,,,,3,10,2,9,,,,,,,,,,,349.9521,350.4522,350.7022,355.8853,space,5.1664,,355.8854,6,54,356.8853,356.8853,365.9025,space,8.9942,,0,3,3,3,1,45,105,,,,,,,,
,,616e21f72bf3c44fb03e33cc,65af5567f6e775c50195c060,2024-01-23_07h58.47.260,bars,2023.2.3,Win32,59.17159763,657b66ea316d21385b68909f,,,,,,,,,,,365.9247,366.9191,,,367.419,367.6692,,106,286,,,,,,,,,,,,,,,,bars/039.png,bars/mask007.png,,,,,,,,,,,,10,2,,,,,,,1,10,0,10,,,,,,,,,,,366.9192,367.4189,367.6692,374.8196,space,7.1342,,374.8196,69,1,375.8193,375.8195,379.9358,space,4.0864,,0,4,4,4,1,175,105,,,,,,,,
,,616e21f72bf3c44fb03e33cc,65af5567f6e775c50195c060,2024-01-23_07h58.47.260,bars,2023.2.3,Win32,59.17159763,657b66ea316d21385b68909f,,,,,,,,,,,379.9456,380.9352,,,381.436,381.6862,,127,127,,,,,,,,,,,,,,,,bars/049.png,bars/mask004.png,,,,,,,,,,,,6,2,,,,,,,0,10,1,10,,,,,,,,,,,380.9353,381.4359,381.6862,384.8029,space,3.1001,,384.803,33,12,385.8027,385.8029,388.7032,space,2.863,,0,5,5,5,1,160,115,,,,,,,,
,,616e21f72bf3c44fb03e33cc,65af5567f6e775c50195c060,2024-01-23_07h58.47.260,bars,2023.2.3,Win32,59.17159763,657b66ea316d21385b68909f,,,,,,,,,,,388.7255,389.7196,,,390.2196,390.4696,,52,52,,,,,,,,,,,,,,,,bars/032.png,bars/mask009.png,,,,,,,,,,,,0,2,,,,,,,2,8,1,10,,,,,,,,,,,389.7196,390.2196,390.4697,392.7866,space,2.2997,,392.7866,73,32,393.7862,393.7863,396.8028,space,3.0028,,0,6,6,6,1,125,20,,,,,,,,
,,616e21f72bf3c44fb03e33cc,65af5567f6e775c50195c060,2024-01-23_07h58.47.260,bars,2023.2.3,Win32,59.17159763,657b66ea316d21385b68909f,,,,,,,,,,,396.8203,397.8028,,,398.3027,398.5527,,91,91,,,,,,,,,,,,,,,,bars/036.png,bars/mask004.png,,,,,,,,,,,,0,1,,,,,,,0,6,0,5,,,,,,,,,,,397.803,398.3027,398.5527,403.5527,space,4.9837,,403.5528,54,71,404.5531,404.5532,407.9035,space,3.3117,,0,7,7,7,1,145,20,,,,,,,,
,,616e21f72bf3c44fb03e33cc,65af5567f6e775c50195c060,2024-01-23_07h58.47.260,bars,2023.2.3,Win32,59.17159763,657b66ea316d21385b68909f,,,,,,,,,,,407.9257,408.92,,,409.4199,409.6698,,126,126,,,,,,,,,,,,,,,,bars/016.png,bars/mask009.png,,,,,,,,,,,,0,2,,,,,,,0,8,1,7,,,,,,,,,,,408.92,409.4198,409.6698,411.3529,space,1.667,,411.3531,86,39,412.3529,412.3529,415.1365,space,2.7591,,0,8,8,8,1,40,165,,,,,,,,
,,616e21f72bf3c44fb03e33cc,65af5567f6e775c50195c060,2024-01-23_07h58.47.260,bars,2023.2.3,Win32,59.17159763,657b66ea316d21385b68909f,,,,,,,,,,,415.1372,416.1367,,,416.6367,416.8866,,30,30,,,,,,,,,,,,,,,,bars/045.png,bars/mask003.png,,,,,,,,,,,,2,2,,,,,,,0,6,0,5,,,,,,,,,,,416.1368,416.6366,416.8866,419.2367,space,2.3421,,419.2368,70,20,420.2367,420.2368,422.9037,space,2.6294,,0,9,9,9,1,100,10,,,,,,,,
,,616e21f72bf3c44fb03e33cc,65af5567f6e775c50195c060,2024-01-23_07h58.47.260,bars,2023.2.3,Win32,59.17159763,657b66ea316d21385b68909f,,,,,,,,,,,422.9045,423.9035,,,424.4034,424.6534,,43,43,,,,,,,,,,,,,,,,bars/003.png,bars/mask009.png,,,,,,,,,,,,0,1,,,,,,,0,8,1,8,,,,,,,,,,,423.9035,424.4034,424.6534,434.9874,space,10.3169,,434.9874,18,83,435.9867,435.9868,439.5038,space,3.4788,,0,10,10,10,1,25,140,,,,,,,,
,,616e21f72bf3c44fb03e33cc,65af5567f6e775c50195c060,2024-01-23_07h58.47.260,bars,2023.2.3,Win32,59.17159763,657b66ea316d21385b68909f,,,,,,,,,,,439.5046,440.5036,,,441.0039,441.2538,,121,121,,,,,,,,,,,,,,,,bars/013.png,bars/mask009.png,,,,,,,,,,,,0,1,,,,,,,0,10,0,10,,,,,,,,,,,440.5037,441.0039,441.2538,451.2373,space,9.9656,,451.2375,46,69,452.2364,452.2364,459.2041,space,6.9467,,0,11,11,11,1,75,10,,,,,,,,
,,616e21f72bf3c44fb03e33cc,65af5567f6e775c50195c060,2024-01-23_07h58.47.260,bars,2023.2.3,Win32,59.17159763,657b66ea316d21385b68909f,,,,,,,,,,,459.223,460.2205,,,460.7206,460.9706,,87,87,,,,,,,,,,,,,,,,bars/023.png,bars/mask005.png,,,,,,,,,,,,1,2,,,,,,,0,8,0,8,,,,,,,,,,,460.2205,460.7205,460.9706,466.7544,space,5.7697,,466.7546,67,28,467.7541,467.7542,473.9045,space,6.1099,,0,12,12,12,1,20,115,,,,,,,,
,,616e21f72bf3c44fb03e33cc,65af5567f6e775c50195c060,2024-01-23_07h58.47.260,bars,2023.2.3,Win32,59.17159763,657b66ea316d21385b68909f,,,,,,,,,,,473.925,474.9208,,,475.4207,475.6707,,113,113,,,,,,,,,,,,,,,,bars/023.png,bars/mask009.png,,,,,,,,,,,,5,2,,,,,,,2,6,2,5,,,,,,,,,,,474.9208,475.4207,475.6708,481.6046,space,5.9186,,481.6047,87,2,482.6044,482.6045,484.6711,space,2.0306,,0,13,13,13,1,20,115,,,,,,,,
,,616e21f72bf3c44fb03e33cc,65af5567f6e775c50195c060,2024-01-23_07h58.47.260,bars,2023.2.3,Win32,59.17159763,657b66ea316d21385b68909f,,,,,,,,,,,484.6717,485.671,,,486.1714,486.421,,122,122,,,,,,,,,,,,,,,,bars/036.png,bars/mask009.png,,,,,,,,,,,,0,1,,,,,,,0,8,1,8,,,,,,,,,,,485.6711,486.1713,486.4211,492.2045,space,5.7659,,492.2046,23,78,493.2049,493.2049,494.9211,space,1.6839,,0,14,14,14,1,145,20,,,,,,,,
,,616e21f72bf3c44fb03e33cc,65af5567f6e775c50195c060,2024-01-23_07h58.47.260,bars,2023.2.3,Win32,59.17159763,657b66ea316d21385b68909f,,,,,,,,,,,494.9217,495.9211,,,496.4209,496.671,,121,121,,,,,,,,,,,,,,,,bars/013.png,bars/mask002.png,,,,,,,,,,,,0,1,,,,,,,2,10,0,10,,,,,,,,,,,495.9212,496.4209,496.6711,506.5046,space,9.8241,,506.5047,46,69,507.5047,507.5049,509.2545,space,1.7113,,0,15,15,15,1,75,10,,,,,,,,
,,616e21f72bf3c44fb03e33cc,65af5567f6e775c50195c060,2024-01-23_07h58.47.260,bars,2023.2.3,Win32,59.17159763,657b66ea316d21385b68909f,,,,,,,,,,,509.2548,510.2549,,,510.7549,511.0049,,73,73,,,,,,,,,,,,,,,,bars/012.png,bars/mask004.png,,,,,,,,,,,,1,1,,,,,,,4,10,2,10,,,,,,,,,,,510.2549,510.7549,511.005,515.3375,space,4.3175,,515.3375,17,58,516.3375,516.3375,517.755,space,1.4042,,0,16,16,16,1,90,15,,,,,,,,
,,616e21f72bf3c44fb03e33cc,65af5567f6e775c50195c060,2024-01-23_07h58.47.260,bars,2023.2.3,Win32,59.17159763,657b66ea316d21385b68909f,,,,,,,,,,,517.7556,518.755,,,519.2551,519.5049,,117,117,,,,,,,,,,,,,,,,bars/037.png,bars/mask001.png,,,,,,,,,,,,5,2,,,,,,,2,8,2,9,,,,,,,,,,,518.7551,519.2551,519.505,533.5047,space,13.9917,,533.5048,33,12,534.5046,534.5046,536.8056,space,2.277,,0,17,17,17,1,150,105,,,,,,,,
,,616e21f72bf3c44fb03e33cc,65af5567f6e775c50195c060,2024-01-23_07h58.47.260,bars,2023.2.3,Win32,59.17159763,657b66ea316d21385b68909f,,,,,,,,,,,536.8062,537.8053,,,538.3051,538.5548,,73,73,,,,,,,,,,,,,,,,bars/037.png,bars/mask004.png,,,,,,,,,,,,0,2,,,,,,,0,6,0,7,,,,,,,,,,,537.8054,538.305,538.5548,542.9386,space,4.3753,,542.9387,77,32,543.9388,543.9389,547.1557,space,3.1857,,0,18,18,18,1,150,105,,,,,,,,
,,616e21f72bf3c44fb03e33cc,65af5567f6e775c50195c060,2024-01-23_07h58.47.260,bars,2023.2.3,Win32,59.17159763,657b66ea316d21385b68909f,,,,,,,,,,,547.1768,548.1718,,,548.672,548.9221,,115,115,,,,,,,,,,,,,,,,bars/046.png,bars/mask009.png,,,,,,,,,,,,0,2,,,,,,,0,4,2,3,,,,,,,,,,,548.1719,548.6719,548.9222,555.9224,space,6.9843,,555.9225,40,30,556.9223,556.9223,559.156,space,2.1993,,0,19,19,19,1,155,85,,,,,,,,
,,616e21f72bf3c44fb03e33cc,65af5567f6e775c50195c060,2024-01-23_07h58.47.260,bars,2023.2.3,Win32,59.17159763,657b66ea316d21385b68909f,,,,,,,,,,,559.1568,560.1558,,,560.6558,560.9057,,119,119,,,,,,,,,,,,,,,,bars/019.png,bars/mask005.png,,,,,,,,,,,,1,2,,,,,,,2,2,1,1,,,,,,,,,,,560.1558,560.6556,560.9057,566.6225,space,5.7015,,566.6226,74,14,567.6224,567.6224,577.2229,space,9.5625,,0,20,20,20,1,45,105,,,,,,,,
,,616e21f72bf3c44fb03e33cc,65af5567f6e775c50195c060,2024-01-23_07h58.47.260,bars,2023.2.3,Win32,59.17159763,657b66ea316d21385b68909f,,,,,,,,,,,577.2442,578.239,,,578.7395,578.9886,,48,48,,,,,,,,,,,,,,,,bars/027.png,bars/mask006.png,,,,,,,,,,,,0,2,,,,,,,4,0,4,0,,,,,,,,,,,578.239,578.7394,578.9886,586.6893,space,7.6921,,586.6894,62,2,587.6895,587.6896,589.6896,space,1.9604,,0,21,21,21,1,110,50,,,,,,,,
,,616e21f72bf3c44fb03e33cc,65af5567f6e775c50195c060,2024-01-23_07h58.47.260,bars,2023.2.3,Win32,59.17159763,657b66ea316d21385b68909f,,,,,,,,,,,589.6902,590.6896,,,591.1896,591.4396,,101,101,,,,,,,,,,,,,,,,bars/035.png,bars/mask009.png,,,,,,,,,,,,0,2,,,,,,,2,0,3,0,,,,,,,,,,,590.6897,591.1896,591.4396,594.2898,space,2.8341,,594.2899,74,41,595.2894,595.2894,597.1563,space,1.8324,,0,22,22,22,1,175,60,,,,,,,,
,,616e21f72bf3c44fb03e33cc,65af5567f6e775c50195c060,2024-01-23_07h58.47.260,bars,2023.2.3,Win32,59.17159763,657b66ea316d21385b68909f,,,,,,,,,,,597.1567,598.1563,,,598.6564,598.9063,,164,-16,,,,,,,,,,,,,,,,bars/013.png,bars/mask008.png,,,,,,,,,,,,0,2,,,,,,,0,0,1,0,,,,,,,,,,,598.1564,598.6564,598.9065,600.9397,space,2.0251,,600.9398,89,26,601.9398,601.9399,605.0065,space,3.0277,,0,23,23,23,1,75,10,,,,,,,,
,,616e21f72bf3c44fb03e33cc,65af5567f6e775c50195c060,2024-01-23_07h58.47.260,bars,2023.2.3,Win32,59.17159763,657b66ea316d21385b68909f,,,,,,,,,,,605.0072,606.0064,,,606.5064,606.7565,,107,107,,,,,,,,,,,,,,,,bars/026.png,bars/mask009.png,,,,,,,,,,,,0,2,,,,,,,2,2,2,1,,,,,,,,,,,606.0064,606.5063,606.7566,608.5565,space,1.7889,,608.5567,72,22,609.5562,609.5563,611.9568,space,2.3811,,0,24,24,24,1,35,85,,,,,,,,
,,616e21f72bf3c44fb03e33cc,65af5567f6e775c50195c060,2024-01-23_07h58.47.260,bars,2023.2.3,Win32,59.17159763,657b66ea316d21385b68909f,,,,,,,,,,,611.9771,612.9731,,,613.4731,613.7232,,141,141,,,,,,,,,,,,,,,,bars/006.png,bars/mask000.png,,,,,,,,,,,,0,2,,,,,,,0,0,0,0,,,,,,,,,,,612.9732,613.473,613.7233,618.9069,space,5.1683,,618.907,74,41,619.9065,619.9066,621.0736,space,1.1291,,0,25,25,25,1,35,100,,,,,,,,
,,616e21f72bf3c44fb03e33cc,65af5567f6e775c50195c060,2024-01-23_07h58.47.260,bars,2023.2.3,Win32,59.17159763,657b66ea316d21385b68909f,,,,,,,,,,,621.0742,622.0733,,,622.5735,622.8234,,176,-4,,,,,,,,,,,,,,,,bars/018.png,bars/mask002.png,,,,,,,,,,,,0,1,,,,,,,0,0,0,0,,,,,,,,,,,622.0734,622.5733,622.8235,624.8068,space,1.9676,,624.807,26,86,625.8068,625.8068,628.2738,space,2.442,,0,26,26,26,1,150,90,,,,,,,,
,,616e21f72bf3c44fb03e33cc,65af5567f6e775c50195c060,2024-01-23_07h58.47.260,bars,2023.2.3,Win32,59.17159763,657b66ea316d21385b68909f,,,,,,,,,,,628.295,629.29,,,629.79,630.04,,86,86,,,,,,,,,,,,,,,,bars/009.png,bars/mask006.png,,,,,,,,,,,,0,2,,,,,,,2,0,2,1,,,,,,,,,,,629.29,629.79,630.0401,631.557,space,1.5044,,631.5571,71,19,632.5569,632.557,635.7572,space,3.1625,,0,27,27,27,1,15,105,,,,,,,,
,,616e21f72bf3c44fb03e33cc,65af5567f6e775c50195c060,2024-01-23_07h58.47.260,bars,2023.2.3,Win32,59.17159763,657b66ea316d21385b68909f,,,,,,,,,,,635.7579,636.757,,,637.2571,637.5064,,17,17,,,,,,,,,,,,,,,,bars/016.png,bars/mask006.png,,,,,,,,,,,,0,1,,,,,,,0,2,2,2,,,,,,,,,,,636.7571,637.257,637.5065,638.6072,space,1.087,,638.6074,23,32,639.6068,639.6068,640.9402,space,1.3164,,0,28,28,28,1,40,165,,,,,,,,
,,616e21f72bf3c44fb03e33cc,65af5567f6e775c50195c060,2024-01-23_07h58.47.260,bars,2023.2.3,Win32,59.17159763,657b66ea316d21385b68909f,,,,,,,,,,,640.9407,641.9403,,,642.4403,642.6903,,179,179,,,,,,,,,,,,,,,,bars/039.png,bars/mask007.png,,,,,,,,,,,,1,1,,,,,,,2,0,1,0,,,,,,,,,,,641.9403,642.4402,642.6904,646.8901,space,4.1904,,646.8902,4,74,647.8901,647.8901,649.7571,space,1.843,,0,29,29,29,1,175,105,,,,,,,,
,,616e21f72bf3c44fb03e33cc,65af5567f6e775c50195c060,2024-01-23_07h58.47.260,bars,2023.2.3,Win32,59.17159763,657b66ea316d21385b68909f,,,,,,,,,,,649.7576,650.7572,,,651.2573,651.5065,,3,183,,,,,,,,,,,,,,,,bars/024.png,bars/mask006.png,,,,,,,,,,,,2,2,,,,,,,0,2,1,3,,,,,,,,,,,650.7572,651.2573,651.5066,657.824,space,6.301,,657.824,63,13,658.8241,658.8241,662.2408,space,3.3791,,0,30,30,30,1,120,170,,,,,,,,
,,616e21f72bf3c44fb03e33cc,65af5567f6e775c50195c060,2024-01-23_07h58.47.260,bars,2023.2.3,Win32,59.17159763,657b66ea316d21385b68909f,,,,,,,,,,,662.2413,663.2404,,,663.7406,663.9906,,33,33,,,,,,,,,,,,,,,,bars/035.png,bars/mask000.png,,,,,,,,,,,,0,2,,,,,,,0,0,0,1,,,,,,,,,,,663.2405,663.7406,663.9907,669.6074,space,5.5996,,669.6075,38,27,670.6073,670.6074,673.1577,space,2.5132,,0,31,31,31,1,175,60,,,,,,,,
,,616e21f72bf3c44fb03e33cc,65af5567f6e775c50195c060,2024-01-23_07h58.47.260,bars,2023.2.3,Win32,59.17159763,657b66ea316d21385b68909f,,,,,,,,,,,673.1769,674.1743,,,674.674,674.924,,142,142,,,,,,,,,,,,,,,,bars/012.png,bars/mask005.png,,,,,,,,,,,,0,1,,,,,,,2,2,2,2,,,,,,,,,,,674.1743,674.674,674.924,677.508,space,2.5678,,677.508,52,53,678.5076,678.5076,686.1913,space,7.6473,,0,32,32,32,1,90,15,,,,,,,,
,,616e21f72bf3c44fb03e33cc,65af5567f6e775c50195c060,2024-01-23_07h58.47.260,bars,2023.2.3,Win32,59.17159763,657b66ea316d21385b68909f,,,,,,,,,,,686.2126,687.2079,,,687.7078,687.9579,,176,-4,,,,,,,,,,,,,,,,bars/004.png,bars/mask003.png,,,,,,,,,,,,0,1,,,,,,,4,4,4,6,,,,,,,,,,,687.2079,687.7078,687.9579,701.358,space,13.3886,,701.358,29,51,702.358,702.3581,704.375,space,1.984,,0,33,33,33,1,25,125,,,,,,,,
,,616e21f72bf3c44fb03e33cc,65af5567f6e775c50195c060,2024-01-23_07h58.47.260,bars,2023.2.3,Win32,59.17159763,657b66ea316d21385b68909f,,,,,,,,,,,704.3757,705.3747,,,705.8748,706.1248,,91,91,,,,,,,,,,,,,,,,bars/025.png,bars/mask006.png,,,,,,,,,,,,4,1,,,,,,,6,2,7,2,,,,,,,,,,,705.3748,705.8748,706.1249,719.8752,space,13.7362,,719.8754,14,51,720.875,720.875,723.2251,space,2.3147,,0,34,34,34,1,105,40,,,,,,,,
,,616e21f72bf3c44fb03e33cc,65af5567f6e775c50195c060,2024-01-23_07h58.47.260,bars,2023.2.3,Win32,59.17159763,657b66ea316d21385b68909f,,,,,,,,,,,723.2258,724.2252,,,724.7253,724.9751,,43,43,,,,,,,,,,,,,,,,bars/035.png,bars/mask002.png,,,,,,,,,,,,2,2,,,,,,,4,4,4,4,,,,,,,,,,,724.2253,724.7253,724.9751,728.0921,space,3.1013,,728.0922,48,17,729.0919,729.0919,734.7089,space,5.5769,,0,35,35,35,1,175,60,,,,,,,,
,,616e21f72bf3c44fb03e33cc,65af5567f6e775c50195c060,2024-01-23_07h58.47.260,bars,2023.2.3,Win32,59.17159763,657b66ea316d21385b68909f,,,,,,,,,,,734.7291,735.7254,,,736.2252,736.4751,,114,114,,,,,,,,,,,,,,,,bars/012.png,bars/mask009.png,,,,,,,,,,,,1,1,,,,,,,2,6,3,5,,,,,,,,,,,735.7255,736.2252,736.4751,750.5425,space,14.0545,,750.5426,24,81,751.5424,751.5424,754.5925,space,3.0123,,0,36,36,36,1,90,15,,,,,,,,
,,616e21f72bf3c44fb03e33cc,65af5567f6e775c50195c060,2024-01-23_07h58.47.260,bars,2023.2.3,Win32,59.17159763,657b66ea316d21385b68909f,,,,,,,,,,,754.5932,755.5925,,,756.0923,756.3425,,163,163,,,,,,,,,,,,,,,,bars/026.png,bars/mask000.png,,,,,,,,,,,,0,1,,,,,,,4,8,4,7,,,,,,,,,,,755.5925,756.0923,756.3426,771.9092,space,15.5583,,771.9092,52,78,772.9093,772.9094,773.9597,space,1.0125,,0,37,37,37,1,35,85,,,,,,,,
,,616e21f72bf3c44fb03e33cc,65af5567f6e775c50195c060,2024-01-23_07h58.47.260,bars,2023.2.3,Win32,59.17159763,657b66ea316d21385b68909f,,,,,,,,,,,773.9603,774.9594,,,775.4596,775.7095,,24,24,,,,,,,,,,,,,,,,bars/033.png,bars/mask006.png,,,,,,,,,,,,7,1,,,,,,,6,10,7,10,,,,,,,,,,,774.9596,775.4595,775.7095,779.492,space,3.7667,,779.4921,1,49,780.4928,780.4929,782.3765,space,1.8478,,0,38,38,38,1,25,155,,,,,,,,
,,616e21f72bf3c44fb03e33cc,65af5567f6e775c50195c060,2024-01-23_07h58.47.260,bars,2023.2.3,Win32,59.17159763,657b66ea316d21385b68909f,,,,,,,,,,,782.377,783.3761,,,783.8758,784.1263,,172,172,,,,,,,,,,,,,,,,bars/015.png,bars/mask005.png,,,,,,,,,,,,5,2,,,,,,,8,8,8,8,,,,,,,,,,,783.3761,783.8757,784.1263,790.4433,space,6.3023,,790.4434,62,12,791.4429,791.443,799.8267,space,8.3445,,0,39,39,39,1,110,160,,,,,,,,
,,616e21f72bf3c44fb03e33cc,65af5567f6e775c50195c060,2024-01-23_07h58.47.260,bars,2023.2.3,Win32,59.17159763,657b66ea316d21385b68909f,,,,,,,,,,,799.8561,800.8432,,,801.3431,801.5931,,179,179,,,,,,,,,,,,,,,,bars/023.png,bars/mask006.png,,,,,,,,,,,,3,1,,,,,,,10,6,10,5,,,,,,,,,,,800.8432,801.3431,801.5932,803.8761,space,2.2714,,803.8761,21,64,804.8764,804.8765,806.8435,space,1.9196,,0,40,40,40,1,20,115,,,,,,,,
,,616e21f72bf3c44fb03e33cc,65af5567f6e775c50195c060,2024-01-23_07h58.47.260,bars,2023.2.3,Win32,59.17159763,657b66ea316d21385b68909f,,,,,,,,,,,806.8442,807.8433,,,808.3429,808.5927,,80,80,,,,,,,,,,,,,,,,bars/005.png,bars/mask003.png,,,,,,,,,,,,0,2,,,,,,,8,8,7,7,,,,,,,,,,,807.8434,808.3429,808.5928,811.4436,space,2.8345,,811.4437,70,60,812.4432,812.4432,813.1598,space,0.6769,,0,41,41,41,1,10,140,,,,,,,,
,,616e21f72bf3c44fb03e33cc,65af5567f6e775c50195c060,2024-01-23_07h58.47.260,bars,2023.2.3,Win32,59.17159763,657b66ea316d21385b68909f,,,,,,,,,,,813.1604,814.1598,,,814.66,814.9098,,177,177,,,,,,,,,,,,,,,,bars/016.png,bars/mask002.png,,,,,,,,,,,,6,2,,,,,,,10,10,10,10,,,,,,,,,,,814.1599,814.6599,814.9099,817.8435,space,2.9178,,817.8435,43,12,818.8433,818.8433,819.8603,space,0.9828,,0,42,42,42,1,40,165,,,,,,,,
,,616e21f72bf3c44fb03e33cc,65af5567f6e775c50195c060,2024-01-23_07h58.47.260,bars,2023.2.3,Win32,59.17159763,657b66ea316d21385b68909f,,,,,,,,,,,819.8609,820.8597,,,821.3599,821.61,,1,1,,,,,,,,,,,,,,,,bars/008.png,bars/mask005.png,,,,,,,,,,,,10,2,,,,,,,10,10,9,10,,,,,,,,,,,820.8598,821.3598,821.6101,826.2432,space,4.6163,,826.2432,71,1,827.2431,827.2431,828.4268,space,1.1576,,0,43,43,43,1,110,0,,,,,,,,
,,616e21f72bf3c44fb03e33cc,65af5567f6e775c50195c060,2024-01-23_07h58.47.260,bars,2023.2.3,Win32,59.17159763,657b66ea316d21385b68909f,,,,,,,,,,,828.4273,829.4269,,,829.9269,830.1769,,173,-7,,,,,,,,,,,,,,,,bars/035.png,bars/mask000.png,,,,,,,,,,,,9,1,,,,,,,10,10,10,10,,,,,,,,,,,829.427,829.9269,830.177,834.377,space,4.1893,,834.3772,2,67,835.3769,835.3769,836.5438,space,1.1312,,0,44,44,44,1,175,60,,,,,,,,
,,616e21f72bf3c44fb03e33cc,65af5567f6e775c50195c060,2024-01-23_07h58.47.260,bars,2023.2.3,Win32,59.17159763,657b66ea316d21385b68909f,,,,,,,,,,,836.5444,837.5436,,,838.0438,838.2934,,154,-26,,,,,,,,,,,,,,,,bars/048.png,bars/mask006.png,,,,,,,,,,,,2,2,,,,,,,10,8,10,6,,,,,,,,,,,837.5436,838.0437,838.2935,843.9436,space,5.6345,,843.9436,76,21,844.9429,844.943,852.6938,space,7.7351,,0,45,45,45,1,50,175,,,,,,,,
,,616e21f72bf3c44fb03e33cc,65af5567f6e775c50195c060,2024-01-23_07h58.47.260,bars,2023.2.3,Win32,59.17159763,657b66ea316d21385b68909f,,,,,,,,,,,852.709,853.6939,,,854.194,854.4437,,144,-36,,,,,,,,,,,,,,,,bars/000.png,bars/mask001.png,,,,,,,,,,,,6,2,,,,,,,8,6,6,6,,,,,,,,,,,853.694,854.194,854.4437,861.744,space,7.2887,,861.7441,76,1,862.7441,862.7441,863.861,space,1.0842,,0,46,46,46,1,40,145,,,,,,,,
,,616e21f72bf3c44fb03e33cc,65af5567f6e775c50195c060,2024-01-23_07h58.47.260,bars,2023.2.3,Win32,59.17159763,657b66ea316d21385b68909f,,,,,,,,,,,863.8615,864.8606,,,865.3604,865.6102,,142,142,,,,,,,,,,,,,,,,bars/005.png,bars/mask002.png,,,,,,,,,,,,4,2,,,,,,,10,4,10,4,,,,,,,,,,,864.8606,865.3604,865.6102,868.2775,space,2.659,,868.2776,48,2,869.2775,869.2775,873.0278,space,3.7225,,0,47,47,47,1,10,140,,,,,,,,
,,616e21f72bf3c44fb03e33cc,65af5567f6e775c50195c060,2024-01-23_07h58.47.260,bars,2023.2.3,Win32,59.17159763,657b66ea316d21385b68909f,,,,,,,,,,,873.0472,874.0444,,,874.5443,874.7943,,133,133,,,,,,,,,,,,,,,,bars/003.png,bars/mask006.png,,,,,,,,,,,,2,2,,,,,,,8,2,7,2,,,,,,,,,,,874.0444,874.5442,874.7943,894.6114,space,19.8007,,894.6114,72,7,895.6112,895.6112,898.3781,space,2.7378,,0,48,48,48,1,25,140,,,,,,,,
,,616e21f72bf3c44fb03e33cc,65af5567f6e775c50195c060,2024-01-23_07h58.47.260,bars,2023.2.3,Win32,59.17159763,657b66ea316d21385b68909f,,,,,,,,,,,898.3788,899.378,,,899.8781,900.128,,49,49,,,,,,,,,,,,,,,,bars/024.png,bars/mask002.png,,,,,,,,,,,,0,2,,,,,,,10,0,10,0,,,,,,,,,,,899.378,899.878,900.1281,902.7781,space,2.6341,,902.7782,71,59,903.7781,903.7781,904.695,space,0.8802,,0,49,49,49,1,120,170,,,,,,,,
,,616e21f72bf3c44fb03e33cc,65af5567f6e775c50195c060,2024-01-23_07h58.47.260,bars,2023.2.3,Win32,59.17159763,657b66ea316d21385b68909f,,,,,,,,,,,,,,,,,,,,,,,,,,,,,,,,,,,,,,,,,,,,,,,,,,,,,,,,,,,,,,,,,,,,,,,,,,,,,,,,,,,,,,,,,,,,,904.6965,964.6969,0,0,0,3,1,sequence_tables/blk002.csv
,,616e21f72bf3c44fb03e33cc,65af5567f6e775c50195c060,2024-01-23_07h58.47.260,bars,2023.2.3,Win32,59.17159763,657b66ea316d21385b68909f,,,,,,,,,,,986.305,987.2962,,,987.7963,988.0296,,176,176,,,,,,,,,,,,,,,,bars/008.png,bars/mask004.png,,,,,,,,,,,,8,2,,,,,,,2,8,2,9,,,,,,964.7179,986.2794,space,21.5459,,987.2962,987.7962,988.0296,992.0964,space,4.0532,,992.0965,66,4,993.0963,993.0963,993.1173,,,,0,0,0,0,1,110,0,,,,,,,,
,,616e21f72bf3c44fb03e33cc,65af5567f6e775c50195c060,2024-01-23_07h58.47.260,bars,2023.2.3,Win32,59.17159763,657b66ea316d21385b68909f,,,,,,,,,,,993.1176,994.1131,,,994.613,994.8629,,38,38,,,,,,,,,,,,,,,,bars/031.png,bars/mask006.png,,,,,,,,,,,,9,2,,,,,,,4,10,5,10,,,,,,,,,,,994.1131,994.6129,994.863,997.2295,space,2.3516,,997.2296,82,3,998.2301,998.2302,998.234,,,,0,1,1,1,1,120,35,,,,,,,,
,,616e21f72bf3c44fb03e33cc,65af5567f6e775c50195c060,2024-01-23_07h58.47.260,bars,2023.2.3,Win32,59.17159763,657b66ea316d21385b68909f,,,,,,,,,,,998.2346,999.2296,,,999.7297,999.9796,,179,179,,,,,,,,,,,,,,,,bars/011.png,bars/mask003.png,,,,,,,,,,,,3,1,,,,,,,6,8,7,7,,,,,,,,,,,999.2297,999.7297,999.9797,1004.0967,space,4.1049,,1004.0967,19,86,1005.0965,1005.0966,1005.119,,,,0,2,2,2,1,160,85,,,,,,,,
,,616e21f72bf3c44fb03e33cc,65af5567f6e775c50195c060,2024-01-23_07h58.47.260,bars,2023.2.3,Win32,59.17159763,657b66ea316d21385b68909f,,,,,,,,,,,1005.1193,1006.1129,,,1006.6132,1006.8628,,112,112,,,,,,,,,,,,,,,,bars/006.png,bars/mask001.png,,,,,,,,,,,,5,2,,,,,,,8,10,7,9,,,,,,,,,,,1006.113,1006.6132,1006.8629,1009.2299,space,2.352,,1009.23,77,12,1010.2298,1010.2299,1010.2329,,,,0,3,3,3,1,35,100,,,,,,,,
,,616e21f72bf3c44fb03e33cc,65af5567f6e775c50195c060,2024-01-23_07h58.47.260,bars,2023.2.3,Win32,59.17159763,657b66ea316d21385b68909f,,,,,,,,,,,1010.2334,1011.23,,,1011.7298,1011.9799,,16,16,,,,,,,,,,,,,,,,bars/043.png,bars/mask005.png,,,,,,,,,,,,5,1,,,,,,,10,8,10,7,,,,,,,,,,,1011.23,1011.7297,1011.9799,1016.2299,space,4.2344,,1016.23,14,66,1017.2298,1017.2298,1017.25,,,,0,4,4,4,1,30,130,,,,,,,,
,,616e21f72bf3c44fb03e33cc,65af5567f6e775c50195c060,2024-01-23_07h58.47.260,bars,2023.2.3,Win32,59.17159763,657b66ea316d21385b68909f,,,,,,,,,,,1017.2502,1018.2467,,,1018.7468,1018.9964,,30,210,,,,,,,,,,,,,,,,bars/019.png,bars/mask006.png,,,,,,,,,,,,5,1,,,,,,,8,6,9,5,,,,,,,,,,,1018.2467,1018.7468,1018.9964,1021.9469,space,2.9345,,1021.9469,15,75,1022.9467,1022.9468,1022.9698,,,,0,5,5,5,1,45,105,,,,,,,,
,,616e21f72bf3c44fb03e33cc,65af5567f6e775c50195c060,2024-01-23_07h58.47.260,bars,2023.2.3,Win32,59.17159763,657b66ea316d21385b68909f,,,,,,,,,,,1022.9701,1023.9634,,,1024.4635,1024.7134,,73,73,,,,,,,,,,,,,,,,bars/007.png,bars/mask009.png,,,,,,,,,,,,2,2,,,,,,,6,4,5,5,,,,,,,,,,,1023.9635,1024.4635,1024.7135,1029.347,space,4.6183,,1029.3471,78,18,1030.3469,1030.3469,1030.3687,,,,0,6,6,6,1,175,55,,,,,,,,
,,616e21f72bf3c44fb03e33cc,65af5567f6e775c50195c060,2024-01-23_07h58.47.260,bars,2023.2.3,Win32,59.17159763,657b66ea316d21385b68909f,,,,,,,,,,,1030.3689,1031.3636,,,1031.8637,1032.1133,,20,20,,,,,,,,,,,,,,,,bars/006.png,bars/mask006.png,,,,,,,,,,,,4,1,,,,,,,8,2,7,1,,,,,,,,,,,1031.3636,1031.8637,1032.1133,1035.5971,space,3.4695,,1035.5972,15,80,1036.597,1036.597,1036.6209,,,,0,7,7,7,1,35,100,,,,,,,,
,,616e21f72bf3c44fb03e33cc,65af5567f6e775c50195c060,2024-01-23_07h58.47.260,bars,2023.2.3,Win32,59.17159763,657b66ea316d21385b68909f,,,,,,,,,,,1036.6212,1037.6134,,,1038.1135,1038.3634,,179,179,,,,,,,,,,,,,,,,bars/007.png,bars/mask007.png,,,,,,,,,,,,5,1,,,,,,,6,0,6,0,,,,,,,,,,,1037.6135,1038.1134,1038.3634,1042.2972,space,3.9187,,1042.2973,4,56,1043.297,1043.297,1043.3184,,,,0,8,8,8,1,175,55,,,,,,,,
,,616e21f72bf3c44fb03e33cc,65af5567f6e775c50195c060,2024-01-23_07h58.47.260,bars,2023.2.3,Win32,59.17159763,657b66ea316d21385b68909f,,,,,,,,,,,1043.3186,1044.3136,,,1044.813,1045.0636,,126,126,,,,,,,,,,,,,,,,bars/047.png,bars/mask000.png,,,,,,,,,,,,0,2,,,,,,,4,2,4,0,,,,,,,,,,,1044.3136,1044.813,1045.0636,1046.8304,space,1.752,,1046.8305,69,56,1047.8304,1047.8305,1047.8333,,,,0,9,9,9,1,15,70,,,,,,,,
,,616e21f72bf3c44fb03e33cc,65af5567f6e775c50195c060,2024-01-23_07h58.47.260,bars,2023.2.3,Win32,59.17159763,657b66ea316d21385b68909f,,,,,,,,,,,1047.8338,1048.8303,,,1049.3305,1049.5802,,174,-6,,,,,,,,,,,,,,,,bars/032.png,bars/mask009.png,,,,,,,,,,,,1,2,,,,,,,2,4,3,4,,,,,,,,,,,1048.8303,1049.3304,1049.5803,1050.5973,space,1.0075,,1050.5973,49,26,1051.5973,1051.5973,1051.5986,,,,0,10,10,10,1,125,20,,,,,,,,
,,616e21f72bf3c44fb03e33cc,65af5567f6e775c50195c060,2024-01-23_07h58.47.260,bars,2023.2.3,Win32,59.17159763,657b66ea316d21385b68909f,,,,,,,,,,,1051.599,1052.5972,,,1053.0974,1053.3471,,78,78,,,,,,,,,,,,,,,,bars/036.png,bars/mask005.png,,,,,,,,,,,,0,2,,,,,,,4,6,5,6,,,,,,,,,,,1052.5973,1053.0973,1053.3472,1060.0642,space,6.703,,1060.0642,67,58,1061.064,1061.0641,1061.0854,,,,0,11,11,11,1,145,20,,,,,,,,
,,616e21f72bf3c44fb03e33cc,65af5567f6e775c50195c060,2024-01-23_07h58.47.260,bars,2023.2.3,Win32,59.17159763,657b66ea316d21385b68909f,,,,,,,,,,,1061.0856,1062.0804,,,1062.5808,1062.8305,,36,216,,,,,,,,,,,,,,,,bars/045.png,bars/mask006.png,,,,,,,,,,,,0,2,,,,,,,2,4,3,3,,,,,,,,,,,1062.0804,1062.5807,1062.8306,1067.8309,space,4.9852,,1067.831,64,26,1068.8305,1068.8306,1068.8514,,,,0,12,12,12,1,100,10,,,,,,,,
,,616e21f72bf3c44fb03e33cc,65af5567f6e775c50195c060,2024-01-23_07h58.47.260,bars,2023.2.3,Win32,59.17159763,657b66ea316d21385b68909f,,,,,,,,,,,1068.8516,1069.8477,,,1070.3476,1070.5977,,85,85,,,,,,,,,,,,,,,,bars/048.png,bars/mask004.png,,,,,,,,,,,,0,1,,,,,,,4,6,2,5,,,,,,,,,,,1069.8477,1070.3476,1070.5977,1073.2643,space,2.6514,,1073.2644,35,90,1074.2642,1074.2642,1074.2868,,,,0,13,13,13,1,50,175,,,,,,,,
,,616e21f72bf3c44fb03e33cc,65af5567f6e775c50195c060,2024-01-23_07h58.47.260,bars,2023.2.3,Win32,59.17159763,657b66ea316d21385b68909f,,,,,,,,,,,1074.287,1075.2808,,,1075.7808,1076.0308,,113,113,,,,,,,,,,,,,,,,bars/039.png,bars/mask001.png,,,,,,,,,,,,7,2,,,,,,,2,8,2,10,,,,,,,,,,,1075.2808,1075.7808,1076.0308,1080.3809,space,4.3419,,1080.381,62,8,1081.3808,1081.3809,1081.4018,,,,0,14,14,14,1,175,105,,,,,,,,
,,616e21f72bf3c44fb03e33cc,65af5567f6e775c50195c060,2024-01-23_07h58.47.260,bars,2023.2.3,Win32,59.17159763,657b66ea316d21385b68909f,,,,,,,,,,,1081.402,1082.3978,,,1082.898,1083.1479,,119,119,,,,,,,,,,,,,,,,bars/013.png,bars/mask004.png,,,,,,,,,,,,0,1,,,,,,,0,6,0,5,,,,,,,,,,,1082.3978,1082.8979,1083.1479,1089.4313,space,6.2682,,1089.4313,44,71,1090.431,1090.4311,1090.4529,,,,0,15,15,15,1,75,10,,,,,,,,
,,616e21f72bf3c44fb03e33cc,65af5567f6e775c50195c060,2024-01-23_07h58.47.260,bars,2023.2.3,Win32,59.17159763,657b66ea316d21385b68909f,,,,,,,,,,,1090.4532,1091.448,,,1091.9479,1092.1979,,152,152,,,,,,,,,,,,,,,,bars/033.png,bars/mask007.png,,,,,,,,,,,,3,2,,,,,,,2,4,1,3,,,,,,,,,,,1091.448,1091.9479,1092.1979,1107.1148,space,14.9019,,1107.1149,53,3,1108.1146,1108.1146,1108.1225,,,,0,16,16,16,1,25,155,,,,,,,,
,,616e21f72bf3c44fb03e33cc,65af5567f6e775c50195c060,2024-01-23_07h58.47.260,bars,2023.2.3,Win32,59.17159763,657b66ea316d21385b68909f,,,,,,,,,,,1108.1226,1109.1148,,,1109.615,1109.864,,92,92,,,,,,,,,,,,,,,,bars/002.png,bars/mask007.png,,,,,,,,,,,,4,2,,,,,,,4,6,3,5,,,,,,,,,,,1109.1149,1109.6149,1109.8641,1114.1318,space,4.2534,,1114.1318,38,7,1115.1315,1115.1316,1115.1548,,,,0,17,17,17,1,130,85,,,,,,,,
,,616e21f72bf3c44fb03e33cc,65af5567f6e775c50195c060,2024-01-23_07h58.47.260,bars,2023.2.3,Win32,59.17159763,657b66ea316d21385b68909f,,,,,,,,,,,1115.155,1116.1484,,,1116.6483,1116.8977,,165,165,,,,,,,,,,,,,,,,bars/008.png,bars/mask009.png,,,,,,,,,,,,2,2,,,,,,,2,4,2,3,,,,,,,,,,,1116.1484,1116.6483,1116.8977,1122.4153,space,5.5035,,1122.4154,55,15,1123.4151,1123.4151,1123.4357,,,,0,18,18,18,1,110,0,,,,,,,,
,,616e21f72bf3c44fb03e33cc,65af5567f6e775c50195c060,2024-01-23_07h58.47.260,bars,2023.2.3,Win32,59.17159763,657b66ea316d21385b68909f,,,,,,,,,,,1123.4359,1124.4318,,,1124.9316,1125.1819,,22,22,,,,,,,,,,,,,,,,bars/011.png,bars/mask006.png,,,,,,,,,,,,0,1,,,,,,,0,2,0,1,,,,,,,,,,,1124.4318,1124.9314,1125.1819,1126.0487,space,0.8504,,1126.0487,42,63,1127.0485,1127.0486,1127.0516,,,,0,19,19,19,1,160,85,,,,,,,,
,,616e21f72bf3c44fb03e33cc,65af5567f6e775c50195c060,2024-01-23_07h58.47.260,bars,2023.2.3,Win32,59.17159763,657b66ea316d21385b68909f,,,,,,,,,,,1127.0521,1128.0485,,,1128.5479,1128.7985,,127,127,,,,,,,,,,,,,,,,bars/027.png,bars/mask002.png,,,,,,,,,,,,0,1,,,,,,,2,0,1,0,,,,,,,,,,,1128.0485,1128.5479,1128.7986,1143.0323,space,14.2229,,1143.0324,17,77,1144.0322,1144.0322,1144.0552,,,,0,20,20,20,1,110,50,,,,,,,,
,,616e21f72bf3c44fb03e33cc,65af5567f6e775c50195c060,2024-01-23_07h58.47.260,bars,2023.2.3,Win32,59.17159763,657b66ea316d21385b68909f,,,,,,,,,,,1144.0554,1145.0488,,,1145.5489,1145.7989,,34,34,,,,,,,,,,,,,,,,bars/042.png,bars/mask009.png,,,,,,,,,,,,0,2,,,,,,,0,2,0,3,,,,,,,,,,,1145.0489,1145.5489,1145.799,1150.2658,space,4.4602,,1150.2659,69,41,1151.2656,1151.2657,1151.2759,,,,0,21,21,21,1,145,75,,,,,,,,
,,616e21f72bf3c44fb03e33cc,65af5567f6e775c50195c060,2024-01-23_07h58.47.260,bars,2023.2.3,Win32,59.17159763,657b66ea316d21385b68909f,,,,,,,,,,,1151.276,1152.2656,,,1152.7654,1153.0156,,113,113,,,,,,,,,,,,,,,,bars/001.png,bars/mask002.png,,,,,,,,,,,,0,1,,,,,,,0,0,0,2,,,,,,,,,,,1152.2657,1152.7654,1153.0157,1164.1661,space,11.1359,,1164.1661,17,28,1165.1658,1165.1658,1165.1876,,,,0,22,22,22,1,130,85,,,,,,,,
,,616e21f72bf3c44fb03e33cc,65af5567f6e775c50195c060,2024-01-23_07h58.47.260,bars,2023.2.3,Win32,59.17159763,657b66ea316d21385b68909f,,,,,,,,,,,1165.1878,1166.1824,,,1166.6825,1166.9324,,3,183,,,,,,,,,,,,,,,,bars/014.png,bars/mask001.png,,,,,,,,,,,,1,2,,,,,,,0,0,2,1,,,,,,,,,,,1166.1825,1166.6825,1166.9325,1169.3489,space,2.3989,,1169.3489,77,3,1170.3489,1170.3489,1170.3609,,,,0,23,23,23,1,80,0,,,,,,,,
,,616e21f72bf3c44fb03e33cc,65af5567f6e775c50195c060,2024-01-23_07h58.47.260,bars,2023.2.3,Win32,59.17159763,657b66ea316d21385b68909f,,,,,,,,,,,1170.361,1171.3489,,,1171.8496,1172.0992,,64,64,,,,,,,,,,,,,,,,bars/025.png,bars/mask002.png,,,,,,,,,,,,0,2,,,,,,,0,0,0,2,,,,,,,,,,,1171.349,1171.8495,1172.0993,1174.9996,space,2.8838,,1174.9997,41,24,1175.9992,1175.9993,1176.0169,,,,0,24,24,24,1,105,40,,,,,,,,
,,616e21f72bf3c44fb03e33cc,65af5567f6e775c50195c060,2024-01-23_07h58.47.260,bars,2023.2.3,Win32,59.17159763,657b66ea316d21385b68909f,,,,,,,,,,,1176.0173,1177.016,,,1177.5157,1177.7654,,139,-41,,,,,,,,,,,,,,,,bars/014.png,bars/mask002.png,,,,,,,,,,,,0,2,,,,,,,0,0,0,0,,,,,,,,,,,1177.016,1177.5157,1177.7654,1183.0998,space,5.3203,,1183.0998,59,41,1184.0992,1184.0993,1184.1221,,,,0,25,25,25,1,80,0,,,,,,,,
,,616e21f72bf3c44fb03e33cc,65af5567f6e775c50195c060,2024-01-23_07h58.47.260,bars,2023.2.3,Win32,59.17159763,657b66ea316d21385b68909f,,,,,,,,,,,1184.1224,1185.1161,,,1185.6164,1185.8659,,115,115,,,,,,,,,,,,,,,,bars/036.png,bars/mask001.png,,,,,,,,,,,,0,1,,,,,,,2,0,3,0,,,,,,,,,,,1185.1162,1185.6163,1185.8659,1186.9164,space,1.0342,,1186.9165,30,85,1187.9162,1187.9162,1187.9188,,,,0,26,26,26,1,145,20,,,,,,,,
,,616e21f72bf3c44fb03e33cc,65af5567f6e775c50195c060,2024-01-23_07h58.47.260,bars,2023.2.3,Win32,59.17159763,657b66ea316d21385b68909f,,,,,,,,,,,1187.9195,1188.9162,,,1189.4163,1189.6662,,48,48,,,,,,,,,,,,,,,,bars/014.png,bars/mask004.png,,,,,,,,,,,,0,1,,,,,,,4,2,5,1,,,,,,,,,,,1188.9163,1189.4163,1189.6663,1190.3831,space,0.7013,,1190.3832,32,48,1191.3829,1191.3829,1191.3843,,,,0,27,27,27,1,80,0,,,,,,,,
,,616e21f72bf3c44fb03e33cc,65af5567f6e775c50195c060,2024-01-23_07h58.47.260,bars,2023.2.3,Win32,59.17159763,657b66ea316d21385b68909f,,,,,,,,,,,1191.3847,1192.3829,,,1192.8829,1193.1329,,61,61,,,,,,,,,,,,,,,,bars/009.png,bars/mask004.png,,,,,,,,,,,,0,2,,,,,,,6,4,7,4,,,,,,,,,,,1192.383,1192.8829,1193.1329,1198.0332,space,4.8843,,1198.0333,46,44,1199.033,1199.033,1199.056,,,,0,28,28,28,1,15,105,,,,,,,,
,,616e21f72bf3c44fb03e33cc,65af5567f6e775c50195c060,2024-01-23_07h58.47.260,bars,2023.2.3,Win32,59.17159763,657b66ea316d21385b68909f,,,,,,,,,,,1199.0563,1200.0498,,,1200.5498,1200.7997,,74,74,,,,,,,,,,,,,,,,bars/049.png,bars/mask005.png,,,,,,,,,,,,0,2,,,,,,,4,2,4,3,,,,,,,,,,,1200.0498,1200.5498,1200.7998,1206.4167,space,5.6018,,1206.4169,86,41,1207.4166,1207.4166,1207.4377,,,,0,29,29,29,1,160,115,,,,,,,,
,,616e21f72bf3c44fb03e33cc,65af5567f6e775c50195c060,2024-01-23_07h58.47.260,bars,2023.2.3,Win32,59.17159763,657b66ea316d21385b68909f,,,,,,,,,,,1207.438,1208.4331,,,1208.9334,1209.1831,,170,170,,,,,,,,,,,,,,,,bars/015.png,bars/mask002.png,,,,,,,,,,,,0,2,,,,,,,6,0,8,0,,,,,,,,,,,1208.4332,1208.9333,1209.1832,1211.7499,space,2.5573,,1211.75,60,10,1212.7497,1212.7497,1212.7611,,,,0,30,30,30,1,110,160,,,,,,,,
,,616e21f72bf3c44fb03e33cc,65af5567f6e775c50195c060,2024-01-23_07h58.47.260,bars,2023.2.3,Win32,59.17159763,657b66ea316d21385b68909f,,,,,,,,,,,1212.7613,1213.7497,,,1214.25,1214.4999,,11,11,,,,,,,,,,,,,,,,bars/046.png,bars/mask008.png,,,,,,,,,,,,0,1,,,,,,,4,2,5,3,,,,,,,,,,,1213.7498,1214.25,1214.4999,1215.7999,space,1.2922,,1215.8,36,74,1216.8,1216.8,1216.8028,,,,0,31,31,31,1,155,85,,,,,,,,
,,616e21f72bf3c44fb03e33cc,65af5567f6e775c50195c060,2024-01-23_07h58.47.260,bars,2023.2.3,Win32,59.17159763,657b66ea316d21385b68909f,,,,,,,,,,,1216.8032,1217.7999,,,1218.2997,1218.55,,126,126,,,,,,,,,,,,,,,,bars/017.png,bars/mask000.png,,,,,,,,,,,,0,1,,,,,,,2,4,1,4,,,,,,,,,,,1217.8,1218.2997,1218.5501,1225.7668,space,7.2102,,1225.7669,19,81,1226.7665,1226.7665,1226.7822,,,,0,32,32,32,1,145,45,,,,,,,,
,,616e21f72bf3c44fb03e33cc,65af5567f6e775c50195c060,2024-01-23_07h58.47.260,bars,2023.2.3,Win32,59.17159763,657b66ea316d21385b68909f,,,,,,,,,,,1226.7823,1227.7831,,,1228.2836,1228.5335,,12,192,,,,,,,,,,,,,,,,bars/038.png,bars/mask009.png,,,,,,,,,,,,0,1,,,,,,,4,2,4,1,,,,,,,,,,,1227.7832,1228.2835,1228.5335,1230.1837,space,1.637,,1230.1839,27,58,1231.1835,1231.1836,1231.2059,,,,0,33,33,33,1,165,70,,,,,,,,
,,616e21f72bf3c44fb03e33cc,65af5567f6e775c50195c060,2024-01-23_07h58.47.260,bars,2023.2.3,Win32,59.17159763,657b66ea316d21385b68909f,,,,,,,,,,,1231.2062,1232.2001,,,1232.7,1232.95,,18,18,,,,,,,,,,,,,,,,bars/000.png,bars/mask000.png,,,,,,,,,,,,1,1,,,,,,,2,4,4,5,,,,,,,,,,,1232.2001,1232.6999,1232.9501,1246.751,space,13.7933,,1246.751,22,53,1247.7503,1247.7505,1247.7732,,,,0,34,34,34,1,40,145,,,,,,,,
,,616e21f72bf3c44fb03e33cc,65af5567f6e775c50195c060,2024-01-23_07h58.47.260,bars,2023.2.3,Win32,59.17159763,657b66ea316d21385b68909f,,,,,,,,,,,1247.7735,1248.7672,,,1249.2671,1249.5173,,178,-2,,,,,,,,,,,,,,,,bars/049.png,bars/mask008.png,,,,,,,,,,,,2,1,,,,,,,4,6,5,6,,,,,,,,,,,1248.7673,1249.267,1249.5174,1251.5166,space,1.9858,,1251.5166,18,63,1252.5172,1252.5173,1252.5379,,,,0,35,35,35,1,160,115,,,,,,,,
,,616e21f72bf3c44fb03e33cc,65af5567f6e775c50195c060,2024-01-23_07h58.47.260,bars,2023.2.3,Win32,59.17159763,657b66ea316d21385b68909f,,,,,,,,,,,1252.5381,1253.5339,,,1254.0338,1254.2837,,45,45,,,,,,,,,,,,,,,,bars/037.png,bars/mask008.png,,,,,,,,,,,,0,2,,,,,,,6,4,6,4,,,,,,,,,,,1253.534,1254.0337,1254.2837,1256.6176,space,2.3197,,1256.6176,75,60,1257.6173,1257.6173,1257.62,,,,0,36,36,36,1,150,105,,,,,,,,
,,616e21f72bf3c44fb03e33cc,65af5567f6e775c50195c060,2024-01-23_07h58.47.260,bars,2023.2.3,Win32,59.17159763,657b66ea316d21385b68909f,,,,,,,,,,,1257.6205,1258.6173,,,1259.1171,1259.3675,,6,6,,,,,,,,,,,,,,,,bars/020.png,bars/mask002.png,,,,,,,,,,,,1,2,,,,,,,8,2,9,2,,,,,,,,,,,1258.6174,1259.1171,1259.3675,1264.351,space,4.976,,1264.351,71,16,1265.3506,1265.3506,1265.3716,,,,0,37,37,37,1,115,170,,,,,,,,
,,616e21f72bf3c44fb03e33cc,65af5567f6e775c50195c060,2024-01-23_07h58.47.260,bars,2023.2.3,Win32,59.17159763,657b66ea316d21385b68909f,,,,,,,,,,,1265.3719,1266.3676,,,1266.8674,1267.1175,,7,187,,,,,,,,,,,,,,,,bars/016.png,bars/mask009.png,,,,,,,,,,,,1,2,,,,,,,10,4,7,4,,,,,,,,,,,1266.3676,1266.8673,1267.1175,1269.2507,space,2.1172,,1269.2507,33,22,1270.2505,1270.2505,1270.2677,,,,0,38,38,38,1,40,165,,,,,,,,
,,616e21f72bf3c44fb03e33cc,65af5567f6e775c50195c060,2024-01-23_07h58.47.260,bars,2023.2.3,Win32,59.17159763,657b66ea316d21385b68909f,,,,,,,,,,,1270.268,1271.2673,,,1271.7675,1272.0176,,92,92,,,,,,,,,,,,,,,,bars/045.png,bars/mask006.png,,,,,,,,,,,,7,1,,,,,,,10,6,10,5,,,,,,,,,,,1271.2675,1271.7675,1272.0176,1276.4009,space,4.367,,1276.4009,8,82,1277.4007,1277.4007,1277.4224,,,,0,39,39,39,1,100,10,,,,,,,,
,,616e21f72bf3c44fb03e33cc,65af5567f6e775c50195c060,2024-01-23_07h58.47.260,bars,2023.2.3,Win32,59.17159763,657b66ea316d21385b68909f,,,,,,,,,,,1277.4226,1278.4177,,,1278.9178,1279.1677,,27,27,,,,,,,,,,,,,,,,bars/016.png,bars/mask000.png,,,,,,,,,,,,6,1,,,,,,,8,4,10,4,,,,,,,,,,,1278.4177,1278.9176,1279.1677,1281.0345,space,1.8506,,1281.0346,13,42,1282.0344,1282.0344,1282.0555,,,,0,40,40,40,1,40,165,,,,,,,,
,,616e21f72bf3c44fb03e33cc,65af5567f6e775c50195c060,2024-01-23_07h58.47.260,bars,2023.2.3,Win32,59.17159763,657b66ea316d21385b68909f,,,,,,,,,,,1282.0559,1283.0507,,,1283.5507,1283.8009,,149,149,,,,,,,,,,,,,,,,bars/005.png,bars/mask001.png,,,,,,,,,,,,1,2,,,,,,,10,2,10,2,,,,,,,,,,,1283.0508,1283.5507,1283.801,1284.6846,space,0.8685,,1284.6846,41,9,1285.6845,1285.6846,1285.6871,,,,0,41,41,41,1,10,140,,,,,,,,
,,616e21f72bf3c44fb03e33cc,65af5567f6e775c50195c060,2024-01-23_07h58.47.260,bars,2023.2.3,Win32,59.17159763,657b66ea316d21385b68909f,,,,,,,,,,,1285.6876,1286.6844,,,1287.1844,1287.4344,,117,117,,,,,,,,,,,,,,,,bars/016.png,bars/mask003.png,,,,,,,,,,,,0,2,,,,,,,10,0,10,0,,,,,,,,,,,1286.6845,1287.1844,1287.4344,1290.6847,space,3.2353,,1290.6848,77,48,1291.6847,1291.6847,1291.7061,,,,0,42,42,42,1,40,165,,,,,,,,
,,616e21f72bf3c44fb03e33cc,65af5567f6e775c50195c060,2024-01-23_07h58.47.260,bars,2023.2.3,Win32,59.17159763,657b66ea316d21385b68909f,,,,,,,,,,,1291.7064,1292.7011,,,1293.201,1293.4508,,101,101,,,,,,,,,,,,,,,,bars/037.png,bars/mask000.png,,,,,,,,,,,,1,2,,,,,,,8,0,8,1,,,,,,,,,,,1292.7012,1293.201,1293.4508,1293.9348,space,0.4694,,1293.935,49,4,1294.9348,1294.9348,1294.936,,,,0,43,43,43,1,150,105,,,,,,,,
,,616e21f72bf3c44fb03e33cc,65af5567f6e775c50195c060,2024-01-23_07h58.47.260,bars,2023.2.3,Win32,59.17159763,657b66ea316d21385b68909f,,,,,,,,,,,1294.9364,1295.9346,,,1296.4342,1296.6847,,74,74,,,,,,,,,,,,,,,,bars/000.png,bars/mask004.png,,,,,,,,,,,,0,1,,,,,,,10,2,10,0,,,,,,,,,,,1295.9347,1296.4342,1296.6848,1297.3343,space,0.6333,,1297.3344,34,71,1298.3347,1298.3347,1298.3372,,,,0,44,44,44,1,40,145,,,,,,,,
,,616e21f72bf3c44fb03e33cc,65af5567f6e775c50195c060,2024-01-23_07h58.47.260,bars,2023.2.3,Win32,59.17159763,657b66ea316d21385b68909f,,,,,,,,,,,1298.3376,1299.3346,,,1299.8349,1300.0847,,58,58,,,,,,,,,,,,,,,,bars/049.png,bars/mask004.png,,,,,,,,,,,,0,2,,,,,,,10,4,10,4,,,,,,,,,,,1299.3348,1299.8347,1300.0847,1301.1515,space,1.0537,,1301.1516,78,57,1302.1513,1302.1514,1302.1541,,,,0,45,45,45,1,160,115,,,,,,,,
,,616e21f72bf3c44fb03e33cc,65af5567f6e775c50195c060,2024-01-23_07h58.47.260,bars,2023.2.3,Win32,59.17159763,657b66ea316d21385b68909f,,,,,,,,,,,1302.1546,1303.1514,,,1303.6516,1303.9013,,12,12,,,,,,,,,,,,,,,,bars/030.png,bars/mask000.png,,,,,,,,,,,,0,1,,,,,,,8,6,9,5,,,,,,,,,,,1303.1514,1303.6515,1303.9014,1305.234,space,1.317,,1305.234,52,53,1306.2347,1306.2347,1306.255,,,,0,46,46,46,1,140,65,,,,,,,,
,,616e21f72bf3c44fb03e33cc,65af5567f6e775c50195c060,2024-01-23_07h58.47.260,bars,2023.2.3,Win32,59.17159763,657b66ea316d21385b68909f,,,,,,,,,,,1306.2552,1307.2514,,,1307.7508,1308.0014,,158,158,,,,,,,,,,,,,,,,bars/048.png,bars/mask001.png,,,,,,,,,,,,3,2,,,,,,,10,8,9,8,,,,,,,,,,,1307.2514,1307.7508,1308.0015,1309.4183,space,1.4008,,1309.4184,72,17,1310.4182,1310.4183,1310.4414,,,,0,47,47,47,1,50,175,,,,,,,,
,,616e21f72bf3c44fb03e33cc,65af5567f6e775c50195c060,2024-01-23_07h58.47.260,bars,2023.2.3,Win32,59.17159763,657b66ea316d21385b68909f,,,,,,,,,,,1310.4416,1311.4349,,,1311.9351,1312.185,,30,30,,,,,,,,,,,,,,,,bars/025.png,bars/mask000.png,,,,,,,,,,,,5,2,,,,,,,10,6,10,7,,,,,,,,,,,1311.435,1311.9349,1312.185,1315.5518,space,3.3561,,1315.552,75,10,1316.5515,1316.5515,1316.5742,,,,0,48,48,48,1,105,40,,,,,,,,
,,616e21f72bf3c44fb03e33cc,65af5567f6e775c50195c060,2024-01-23_07h58.47.260,bars,2023.2.3,Win32,59.17159763,657b66ea316d21385b68909f,,,,,,,,,,,1316.5745,1317.5683,,,1318.0682,1318.3185,,24,24,,,,,,,,,,,,,,,,bars/011.png,bars/mask009.png,,,,,,,,,,,,0,1,,,,,,,8,8,9,9,,,,,,,,,,,1317.5684,1318.0681,1318.3185,1321.0354,space,2.7052,,1321.0354,44,61,1322.0351,1322.0351,1322.057,,,,0,49,49,49,1,160,85,,,,,,,,
,,616e21f72bf3c44fb03e33cc,65af5567f6e775c50195c060,2024-01-23_07h58.47.260,bars,2023.2.3,Win32,59.17159763,657b66ea316d21385b68909f,,,,,,,,,,,,,,,,,,,,,,,,,,,,,,,,,,,,,,,,,,,,,,,,,,,,,,,,,,,,,,,,,,,,,,,,,,,,,,,,,,,,,,,,,,,,,1322.0571,1382.0529,0,1,1,1,1,sequence_tables/blk038.csv
,,616e21f72bf3c44fb03e33cc,65af5567f6e775c50195c060,2024-01-23_07h58.47.260,bars,2023.2.3,Win32,59.17159763,657b66ea316d21385b68909f,,,,,,,,,,,1383.727,1384.7194,,,1385.2193,1385.4697,,166,166,,,,,,,,,,,,,,,,bars/012.png,bars/mask004.png,,,,,,,,,,,,0,2,,,,,,,8,2,9,1,,,,,,1382.0745,1383.7195,space,1.6329,,1384.7196,1385.2192,1385.4697,1390.203,space,4.7168,,1390.2031,76,29,1391.2028,1391.2029,1391.2254,,,,0,0,0,0,1,90,15,,,,,,,,
,,616e21f72bf3c44fb03e33cc,65af5567f6e775c50195c060,2024-01-23_07h58.47.260,bars,2023.2.3,Win32,59.17159763,657b66ea316d21385b68909f,,,,,,,,,,,1391.2256,1392.2191,,,1392.7192,1392.9697,,20,20,,,,,,,,,,,,,,,,bars/026.png,bars/mask000.png,,,,,,,,,,,,3,1,,,,,,,6,4,6,4,,,,,,,,,,,1392.2191,1392.7192,1392.9698,1393.9531,space,0.9654,,1393.9532,15,65,1394.953,1394.953,1394.9557,,,,0,1,1,1,1,35,85,,,,,,,,
,,616e21f72bf3c44fb03e33cc,65af5567f6e775c50195c060,2024-01-23_07h58.47.260,bars,2023.2.3,Win32,59.17159763,657b66ea316d21385b68909f,,,,,,,,,,,1394.9562,1395.9529,,,1396.453,1396.703,,120,120,,,,,,,,,,,,,,,,bars/034.png,bars/mask003.png,,,,,,,,,,,,7,1,,,,,,,8,2,8,2,,,,,,,,,,,1395.9529,1396.4529,1396.7031,1400.3529,space,3.6402,,1400.353,5,55,1401.3528,1401.3529,1401.3661,,,,0,2,2,2,1,125,65,,,,,,,,
,,616e21f72bf3c44fb03e33cc,65af5567f6e775c50195c060,2024-01-23_07h58.47.260,bars,2023.2.3,Win32,59.17159763,657b66ea316d21385b68909f,,,,,,,,,,,1401.3663,1402.3694,,,1402.8692,1403.1199,,69,69,,,,,,,,,,,,,,,,bars/028.png,bars/mask004.png,,,,,,,,,,,,1,1,,,,,,,6,4,5,5,,,,,,,,,,,1402.3694,1402.8691,1403.1199,1442.7205,space,39.5829,,1442.7206,24,51,1443.7203,1443.7203,1443.7403,,,,0,3,3,3,1,45,120,,,,,,,,
,,616e21f72bf3c44fb03e33cc,65af5567f6e775c50195c060,2024-01-23_07h58.47.260,bars,2023.2.3,Win32,59.17159763,657b66ea316d21385b68909f,,,,,,,,,,,1443.7407,1444.737,,,1445.2372,1445.4872,,16,196,,,,,,,,,,,,,,,,bars/023.png,bars/mask004.png,,,,,,,,,,,,4,1,,,,,,,4,2,5,1,,,,,,,,,,,1444.737,1445.2372,1445.4873,1453.4207,space,7.9195,,1453.4208,4,81,1454.4204,1454.4204,1454.4416,,,,0,4,4,4,1,20,115,,,,,,,,
,,616e21f72bf3c44fb03e33cc,65af5567f6e775c50195c060,2024-01-23_07h58.47.260,bars,2023.2.3,Win32,59.17159763,657b66ea316d21385b68909f,,,,,,,,,,,1454.4417,1455.4373,,,1455.9375,1456.1874,,92,92,,,,,,,,,,,,,,,,bars/017.png,bars/mask000.png,,,,,,,,,,,,0,2,,,,,,,2,0,3,2,,,,,,,,,,,1455.4373,1455.9374,1456.1874,1457.4206,space,1.2171,,1457.4206,53,47,1458.4205,1458.4206,1458.4233,,,,0,5,5,5,1,145,45,,,,,,,,
,,616e21f72bf3c44fb03e33cc,65af5567f6e775c50195c060,2024-01-23_07h58.47.260,bars,2023.2.3,Win32,59.17159763,657b66ea316d21385b68909f,,,,,,,,,,,1458.4237,1459.4206,,,1459.9203,1460.1706,,169,169,,,,,,,,,,,,,,,,bars/049.png,bars/mask009.png,,,,,,,,,,,,1,1,,,,,,,0,2,1,3,,,,,,,,,,,1459.4206,1459.9202,1460.1707,1463.4376,space,3.2509,,1463.4377,9,54,1464.4375,1464.4376,1464.4613,,,,0,6,6,6,1,160,115,,,,,,,,
,,616e21f72bf3c44fb03e33cc,65af5567f6e775c50195c060,2024-01-23_07h58.47.260,bars,2023.2.3,Win32,59.17159763,657b66ea316d21385b68909f,,,,,,,,,,,1464.4615,1465.454,,,1465.954,1466.2041,,15,195,,,,,,,,,,,,,,,,bars/023.png,bars/mask007.png,,,,,,,,,,,,2,1,,,,,,,2,0,2,0,,,,,,,,,,,1465.454,1465.954,1466.2042,1468.1209,space,1.9005,,1468.121,5,80,1469.1207,1469.1207,1469.1441,,,,0,7,7,7,1,20,115,,,,,,,,
,,616e21f72bf3c44fb03e33cc,65af5567f6e775c50195c060,2024-01-23_07h58.47.260,bars,2023.2.3,Win32,59.17159763,657b66ea316d21385b68909f,,,,,,,,,,,1469.1445,1470.1376,,,1470.6377,1470.8877,,137,137,,,,,,,,,,,,,,,,bars/037.png,bars/mask007.png,,,,,,,,,,,,0,1,,,,,,,0,2,0,2,,,,,,,,,,,1470.1376,1470.6376,1470.8877,1473.1208,space,2.2176,,1473.1209,13,32,1474.1207,1474.1207,1474.1216,,,,0,8,8,8,1,150,105,,,,,,,,
,,616e21f72bf3c44fb03e33cc,65af5567f6e775c50195c060,2024-01-23_07h58.47.260,bars,2023.2.3,Win32,59.17159763,657b66ea316d21385b68909f,,,,,,,,,,,1474.122,1475.1208,,,1475.6207,1475.8709,,13,193,,,,,,,,,,,,,,,,bars/007.png,bars/mask002.png,,,,,,,,,,,,0,1,,,,,,,0,4,0,4,,,,,,,,,,,1475.1209,1475.6207,1475.871,1477.7046,space,1.8184,,1477.7046,18,42,1478.7043,1478.7043,1478.7243,,,,0,9,9,9,1,175,55,,,,,,,,
,,616e21f72bf3c44fb03e33cc,65af5567f6e775c50195c060,2024-01-23_07h58.47.260,bars,2023.2.3,Win32,59.17159763,657b66ea316d21385b68909f,,,,,,,,,,,1478.7246,1479.7209,,,1480.2207,1480.471,,113,113,,,,,,,,,,,,,,,,bars/040.png,bars/mask005.png,,,,,,,,,,,,0,1,,,,,,,0,6,3,5,,,,,,,,,,,1479.7209,1480.2207,1480.471,1481.0379,space,0.5529,,1481.038,27,72,1482.0377,1482.0377,1482.0388,,,,0,10,10,10,1,140,5,,,,,,,,
,,616e21f72bf3c44fb03e33cc,65af5567f6e775c50195c060,2024-01-23_07h58.47.260,bars,2023.2.3,Win32,59.17159763,657b66ea316d21385b68909f,,,,,,,,,,,1482.0392,1483.0378,,,1483.5379,1483.7877,,158,158,,,,,,,,,,,,,,,,bars/010.png,bars/mask004.png,,,,,,,,,,,,2,1,,,,,,,2,4,3,5,,,,,,,,,,,1483.0378,1483.5378,1483.7877,1485.2546,space,1.4551,,1485.2547,7,77,1486.2545,1486.2545,1486.2558,,,,0,11,11,11,1,165,55,,,,,,,,
,,616e21f72bf3c44fb03e33cc,65af5567f6e775c50195c060,2024-01-23_07h58.47.260,bars,2023.2.3,Win32,59.17159763,657b66ea316d21385b68909f,,,,,,,,,,,1486.2562,1487.2545,,,1487.7545,1488.0045,,37,37,,,,,,,,,,,,,,,,bars/010.png,bars/mask004.png,,,,,,,,,,,,2,2,,,,,,,0,6,0,5,,,,,,,,,,,1487.2545,1487.7545,1488.0046,1492.5548,space,4.535,,1492.5549,52,18,1493.5546,1493.5546,1493.5781,,,,0,12,12,12,1,165,55,,,,,,,,
,,616e21f72bf3c44fb03e33cc,65af5567f6e775c50195c060,2024-01-23_07h58.47.260,bars,2023.2.3,Win32,59.17159763,657b66ea316d21385b68909f,,,,,,,,,,,1493.5784,1494.5712,,,1495.0713,1495.3213,,20,20,,,,,,,,,,,,,,,,bars/006.png,bars/mask006.png,,,,,,,,,,,,1,1,,,,,,,2,4,2,4,,,,,,,,,,,1494.5713,1495.0713,1495.3214,1496.9549,space,1.6177,,1496.9549,15,80,1497.9544,1497.9545,1497.9559,,,,0,13,13,13,1,35,100,,,,,,,,
,,616e21f72bf3c44fb03e33cc,65af5567f6e775c50195c060,2024-01-23_07h58.47.260,bars,2023.2.3,Win32,59.17159763,657b66ea316d21385b68909f,,,,,,,,,,,1497.9562,1498.9548,,,1499.4548,1499.7048,,27,27,,,,,,,,,,,,,,,,bars/036.png,bars/mask003.png,,,,,,,,,,,,5,2,,,,,,,0,6,0,6,,,,,,,,,,,1498.9549,1499.4547,1499.7049,1501.0048,space,1.2829,,1501.0049,62,7,1502.0047,1502.0048,1502.007,,,,0,14,14,14,1,145,20,,,,,,,,
,,616e21f72bf3c44fb03e33cc,65af5567f6e775c50195c060,2024-01-23_07h58.47.260,bars,2023.2.3,Win32,59.17159763,657b66ea316d21385b68909f,,,,,,,,,,,1502.0075,1503.004,,,1503.5049,1503.7545,,92,92,,,,,,,,,,,,,,,,bars/044.png,bars/mask006.png,,,,,,,,,,,,0,1,,,,,,,2,8,1,8,,,,,,,,,,,1503.004,1503.5048,1503.7545,1504.8549,space,1.0878,,1504.8549,17,63,1505.8545,1505.8546,1505.8564,,,,0,15,15,15,1,75,155,,,,,,,,
,,616e21f72bf3c44fb03e33cc,65af5567f6e775c50195c060,2024-01-23_07h58.47.260,bars,2023.2.3,Win32,59.17159763,657b66ea316d21385b68909f,,,,,,,,,,,1505.8566,1506.8548,,,1507.3546,1507.6048,,57,57,,,,,,,,,,,,,,,,bars/041.png,bars/mask004.png,,,,,,,,,,,,1,2,,,,,,,0,10,0,9,,,,,,,,,,,1506.8548,1507.3546,1507.6049,1508.5884,space,0.9657,,1508.5884,37,28,1509.5881,1509.5881,1509.5899,,,,0,16,16,16,1,20,85,,,,,,,,
,,616e21f72bf3c44fb03e33cc,65af5567f6e775c50195c060,2024-01-23_07h58.47.260,bars,2023.2.3,Win32,59.17159763,657b66ea316d21385b68909f,,,,,,,,,,,1509.5902,1510.5883,,,1511.0882,1511.3383,,165,-15,,,,,,,,,,,,,,,,bars/040.png,bars/mask000.png,,,,,,,,,,,,3,2,,,,,,,0,10,0,10,,,,,,,,,,,1510.5883,1511.0882,1511.3384,1513.5052,space,2.1512,,1513.5054,25,20,1514.5049,1514.5051,1514.506,,,,0,17,17,17,1,140,5,,,,,,,,
,,616e21f72bf3c44fb03e33cc,65af5567f6e775c50195c060,2024-01-23_07h58.47.260,bars,2023.2.3,Win32,59.17159763,657b66ea316d21385b68909f,,,,,,,,,,,1514.5065,1515.5049,,,1516.0051,1516.255,,57,57,,,,,,,,,,,,,,,,bars/018.png,bars/mask000.png,,,,,,,,,,,,0,2,,,,,,,0,10,0,9,,,,,,,,,,,1515.505,1516.005,1516.255,1518.0386,space,1.7687,,1518.0386,87,33,1519.0384,1519.0385,1519.0594,,,,0,18,18,18,1,150,90,,,,,,,,
,,616e21f72bf3c44fb03e33cc,65af5567f6e775c50195c060,2024-01-23_07h58.47.260,bars,2023.2.3,Win32,59.17159763,657b66ea316d21385b68909f,,,,,,,,,,,1519.0596,1520.0551,,,1520.5551,1520.8051,,122,122,,,,,,,,,,,,,,,,bars/020.png,bars/mask005.png,,,,,,,,,,,,2,1,,,,,,,2,8,2,8,,,,,,,,,,,1520.0551,1520.5551,1520.8051,1523.1386,space,2.3182,,1523.1386,7,48,1524.1383,1524.1384,1524.1411,,,,0,19,19,19,1,115,170,,,,,,,,
,,616e21f72bf3c44fb03e33cc,65af5567f6e775c50195c060,2024-01-23_07h58.47.260,bars,2023.2.3,Win32,59.17159763,657b66ea316d21385b68909f,,,,,,,,,,,1524.1416,1525.1384,,,1525.6385,1525.8882,,23,23,,,,,,,,,,,,,,,,bars/019.png,bars/mask006.png,,,,,,,,,,,,0,1,,,,,,,0,6,1,6,,,,,,,,,,,1525.1384,1525.6385,1525.8882,1527.6054,space,1.7048,,1527.6054,22,82,1528.6051,1528.6052,1528.6263,,,,0,20,20,20,1,45,105,,,,,,,,
,,616e21f72bf3c44fb03e33cc,65af5567f6e775c50195c060,2024-01-23_07h58.47.260,bars,2023.2.3,Win32,59.17159763,657b66ea316d21385b68909f,,,,,,,,,,,1528.6264,1529.6219,,,1530.1219,1530.3719,,20,200,,,,,,,,,,,,,,,,bars/044.png,bars/mask000.png,,,,,,,,,,,,0,2,,,,,,,2,8,2,5,,,,,,,,,,,1529.6219,1530.1218,1530.372,1532.4055,space,2.0207,,1532.4057,55,45,1533.4053,1533.4053,1533.4274,,,,0,21,21,21,1,75,155,,,,,,,,
,,616e21f72bf3c44fb03e33cc,65af5567f6e775c50195c060,2024-01-23_07h58.47.260,bars,2023.2.3,Win32,59.17159763,657b66ea316d21385b68909f,,,,,,,,,,,1533.4277,1534.4219,,,1534.9221,1535.1718,,64,64,,,,,,,,,,,,,,,,bars/048.png,bars/mask008.png,,,,,,,,,,,,2,1,,,,,,,4,6,4,7,,,,,,,,,,,1534.422,1534.922,1535.1718,1535.6555,space,0.4659,,1535.6555,14,69,1536.6552,1536.6552,1536.657,,,,0,22,22,22,1,50,175,,,,,,,,
,,616e21f72bf3c44fb03e33cc,65af5567f6e775c50195c060,2024-01-23_07h58.47.260,bars,2023.2.3,Win32,59.17159763,657b66ea316d21385b68909f,,,,,,,,,,,1536.6573,1537.655,,,1538.1555,1538.4054,,103,103,,,,,,,,,,,,,,,,bars/042.png,bars/mask000.png,,,,,,,,,,,,0,2,,,,,,,2,4,3,4,,,,,,,,,,,1537.6551,1538.1554,1538.4055,1538.7222,space,0.3067,,1538.7223,42,28,1539.722,1539.722,1539.7245,,,,0,23,23,23,1,145,75,,,,,,,,
,,616e21f72bf3c44fb03e33cc,65af5567f6e775c50195c060,2024-01-23_07h58.47.260,bars,2023.2.3,Win32,59.17159763,657b66ea316d21385b68909f,,,,,,,,,,,1539.725,1540.7221,,,1541.2221,1541.4723,,59,59,,,,,,,,,,,,,,,,bars/020.png,bars/mask002.png,,,,,,,,,,,,0,1,,,,,,,0,2,1,3,,,,,,,,,,,1540.7221,1541.2221,1541.4724,1543.5558,space,2.0693,,1543.5559,56,69,1544.5551,1544.5551,1544.5625,,,,0,24,24,24,1,115,170,,,,,,,,
,,616e21f72bf3c44fb03e33cc,65af5567f6e775c50195c060,2024-01-23_07h58.47.260,bars,2023.2.3,Win32,59.17159763,657b66ea316d21385b68909f,,,,,,,,,,,1544.5626,1545.5555,,,1546.0555,1546.3056,,157,157,,,,,,,,,,,,,,,,bars/032.png,bars/mask008.png,,,,,,,,,,,,0,1,,,,,,,0,0,2,0,,,,,,,,,,,1545.5555,1546.0554,1546.3056,1548.0558,space,1.7353,,1548.0558,32,43,1549.0556,1549.0557,1549.077,,,,0,25,25,25,1,125,20,,,,,,,,
,,616e21f72bf3c44fb03e33cc,65af5567f6e775c50195c060,2024-01-23_07h58.47.260,bars,2023.2.3,Win32,59.17159763,657b66ea316d21385b68909f,,,,,,,,,,,1549.0773,1550.0722,,,1550.5722,1550.8221,,22,202,,,,,,,,,,,,,,,,bars/022.png,bars/mask001.png,,,,,,,,,,,,0,2,,,,,,,2,0,1,0,,,,,,,,,,,1550.0722,1550.5722,1550.8222,1552.689,space,1.8532,,1552.689,73,2,1553.689,1553.6891,1553.6916,,,,0,26,26,26,1,95,20,,,,,,,,
,,616e21f72bf3c44fb03e33cc,65af5567f6e775c50195c060,2024-01-23_07h58.47.260,bars,2023.2.3,Win32,59.17159763,657b66ea316d21385b68909f,,,,,,,,,,,1553.6922,1554.6888,,,1555.189,1555.4391,,27,27,,,,,,,,,,,,,,,,bars/000.png,bars/mask000.png,,,,,,,,,,,,0,1,,,,,,,0,2,0,2,,,,,,,,,,,1554.6888,1555.1889,1555.4391,1556.7391,space,1.2844,,1556.7392,13,62,1557.7389,1557.7389,1557.7416,,,,0,27,27,27,1,40,145,,,,,,,,
,,616e21f72bf3c44fb03e33cc,65af5567f6e775c50195c060,2024-01-23_07h58.47.260,bars,2023.2.3,Win32,59.17159763,657b66ea316d21385b68909f,,,,,,,,,,,1557.742,1558.739,,,1559.2394,1559.4885,,1,1,,,,,,,,,,,,,,,,bars/049.png,bars/mask003.png,,,,,,,,,,,,0,1,,,,,,,0,0,0,1,,,,,,,,,,,1558.739,1559.2394,1559.4885,1560.2393,space,0.736,,1560.2394,21,66,1561.2391,1561.2391,1561.2408,,,,0,28,28,28,1,160,115,,,,,,,,
,,616e21f72bf3c44fb03e33cc,65af5567f6e775c50195c060,2024-01-23_07h58.47.260,bars,2023.2.3,Win32,59.17159763,657b66ea316d21385b68909f,,,,,,,,,,,1561.2414,1562.2392,,,1562.7392,1562.9892,,108,108,,,,,,,,,,,,,,,,bars/038.png,bars/mask009.png,,,,,,,,,,,,0,2,,,,,,,2,0,2,0,,,,,,,,,,,1562.2392,1562.7392,1562.9892,1565.239,space,2.2419,,1565.2391,57,38,1566.2391,1566.2392,1566.2416,,,,0,29,29,29,1,165,70,,,,,,,,
,,616e21f72bf3c44fb03e33cc,65af5567f6e775c50195c060,2024-01-23_07h58.47.260,bars,2023.2.3,Win32,59.17159763,657b66ea316d21385b68909f,,,,,,,,,,,1566.2421,1567.2389,,,1567.7391,1567.989,,110,110,,,,,,,,,,,,,,,,bars/022.png,bars/mask000.png,,,,,,,,,,,,0,1,,,,,,,0,2,0,2,,,,,,,,,,,1567.2389,1567.7391,1567.989,1568.4724,space,0.4738,,1568.4725,15,90,1569.4723,1569.4724,1569.4735,,,,0,30,30,30,1,95,20,,,,,,,,
,,616e21f72bf3c44fb03e33cc,65af5567f6e775c50195c060,2024-01-23_07h58.47.260,bars,2023.2.3,Win32,59.17159763,657b66ea316d21385b68909f,,,,,,,,,,,1569.4736,1570.4722,,,1570.9718,1571.2223,,119,119,,,,,,,,,,,,,,,,bars/000.png,bars/mask005.png,,,,,,,,,,,,0,2,,,,,,,2,0,1,0,,,,,,,,,,,1570.4723,1570.9718,1571.2224,1573.2396,space,2.0065,,1573.2397,79,26,1574.2393,1574.2393,1574.2424,,,,0,31,31,31,1,40,145,,,,,,,,
,,616e21f72bf3c44fb03e33cc,65af5567f6e775c50195c060,2024-01-23_07h58.47.260,bars,2023.2.3,Win32,59.17159763,657b66ea316d21385b68909f,,,,,,,,,,,1574.2429,1575.2392,,,1575.7394,1575.9891,,43,43,,,,,,,,,,,,,,,,bars/007.png,bars/mask000.png,,,,,,,,,,,,1,2,,,,,,,4,2,5,2,,,,,,,,,,,1575.2393,1575.7394,1575.9892,1577.6561,space,1.6599,,1577.6562,48,12,1578.6559,1578.6559,1578.6781,,,,0,32,32,32,1,175,55,,,,,,,,
,,616e21f72bf3c44fb03e33cc,65af5567f6e775c50195c060,2024-01-23_07h58.47.260,bars,2023.2.3,Win32,59.17159763,657b66ea316d21385b68909f,,,,,,,,,,,1578.6784,1579.6727,,,1580.1729,1580.4228,,43,43,,,,,,,,,,,,,,,,bars/023.png,bars/mask001.png,,,,,,,,,,,,1,1,,,,,,,2,0,3,1,,,,,,,,,,,1579.6728,1580.1728,1580.4229,1582.3231,space,1.888,,1582.3231,23,72,1583.3227,1583.3228,1583.3461,,,,0,33,33,33,1,20,115,,,,,,,,
,,616e21f72bf3c44fb03e33cc,65af5567f6e775c50195c060,2024-01-23_07h58.47.260,bars,2023.2.3,Win32,59.17159763,657b66ea316d21385b68909f,,,,,,,,,,,1583.3464,1584.3394,,,1584.8394,1585.0891,,56,56,,,,,,,,,,,,,,,,bars/042.png,bars/mask002.png,,,,,,,,,,,,0,2,,,,,,,0,0,0,0,,,,,,,,,,,1584.3394,1584.8394,1585.0891,1586.8729,space,1.775,,1586.8731,89,19,1587.8729,1587.8729,1587.8753,,,,0,34,34,34,1,145,75,,,,,,,,
,,616e21f72bf3c44fb03e33cc,65af5567f6e775c50195c060,2024-01-23_07h58.47.260,bars,2023.2.3,Win32,59.17159763,657b66ea316d21385b68909f,,,,,,,,,,,1587.8757,1588.8726,,,1589.3729,1589.6229,,11,191,,,,,,,,,,,,,,,,bars/031.png,bars/mask002.png,,,,,,,,,,,,0,2,,,,,,,0,2,1,1,,,,,,,,,,,1588.8727,1589.3729,1589.6229,1592.3398,space,2.7018,,1592.3399,71,24,1593.3397,1593.3397,1593.3609,,,,0,35,35,35,1,120,35,,,,,,,,
,,616e21f72bf3c44fb03e33cc,65af5567f6e775c50195c060,2024-01-23_07h58.47.260,bars,2023.2.3,Win32,59.17159763,657b66ea316d21385b68909f,,,,,,,,,,,1593.3611,1594.3563,,,1594.8563,1595.1064,,39,219,,,,,,,,,,,,,,,,bars/039.png,bars/mask006.png,,,,,,,,,,,,0,1,,,,,,,0,0,0,0,,,,,,,,,,,1594.3563,1594.8563,1595.1064,1599.0565,space,3.9347,,1599.0566,44,66,1600.0563,1600.0565,1600.0772,,,,0,36,36,36,1,175,105,,,,,,,,
,,616e21f72bf3c44fb03e33cc,65af5567f6e775c50195c060,2024-01-23_07h58.47.260,bars,2023.2.3,Win32,59.17159763,657b66ea316d21385b68909f,,,,,,,,,,,1600.0775,1601.073,,,1601.5731,1601.823,,96,96,,,,,,,,,,,,,,,,bars/009.png,bars/mask006.png,,,,,,,,,,,,0,2,,,,,,,0,0,0,0,,,,,,,,,,,1601.0731,1601.5731,1601.823,1602.7567,space,0.92,,1602.7568,81,9,1603.7565,1603.7565,1603.7593,,,,0,37,37,37,1,15,105,,,,,,,,
,,616e21f72bf3c44fb03e33cc,65af5567f6e775c50195c060,2024-01-23_07h58.47.260,bars,2023.2.3,Win32,59.17159763,657b66ea316d21385b68909f,,,,,,,,,,,1603.7597,1604.7566,,,1605.2563,1605.5065,,157,-23,,,,,,,,,,,,,,,,bars/025.png,bars/mask001.png,,,,,,,,,,,,0,1,,,,,,,0,0,0,1,,,,,,,,,,,1604.7566,1605.2562,1605.5065,1608.4567,space,2.9414,,1608.4568,52,63,1609.4564,1609.4565,1609.4776,,,,0,38,38,38,1,105,40,,,,,,,,
,,616e21f72bf3c44fb03e33cc,65af5567f6e775c50195c060,2024-01-23_07h58.47.260,bars,2023.2.3,Win32,59.17159763,657b66ea316d21385b68909f,,,,,,,,,,,1609.4779,1610.4732,,,1610.9731,1611.2233,,153,153,,,,,,,,,,,,,,,,bars/046.png,bars/mask002.png,,,,,,,,,,,,3,1,,,,,,,2,0,3,0,,,,,,,,,,,1610.4732,1610.9731,1611.2233,1612.94,space,1.701,,1612.94,2,68,1613.94,1613.94,1613.9411,,,,0,39,39,39,1,155,85,,,,,,,,
,,616e21f72bf3c44fb03e33cc,65af5567f6e775c50195c060,2024-01-23_07h58.47.260,bars,2023.2.3,Win32,59.17159763,657b66ea316d21385b68909f,,,,,,,,,,,1613.9415,1614.94,,,1615.4401,1615.6899,,121,121,,,,,,,,,,,,,,,,bars/037.png,bars/mask001.png,,,,,,,,,,,,0,2,,,,,,,4,0,4,1,,,,,,,,,,,1614.94,1615.44,1615.6899,1616.5236,space,0.8236,,1616.5237,29,16,1617.5234,1617.5235,1617.5263,,,,0,40,40,40,1,150,105,,,,,,,,
,,616e21f72bf3c44fb03e33cc,65af5567f6e775c50195c060,2024-01-23_07h58.47.260,bars,2023.2.3,Win32,59.17159763,657b66ea316d21385b68909f,,,,,,,,,,,1617.5267,1618.5235,,,1619.0234,1619.2733,,53,53,,,,,,,,,,,,,,,,bars/033.png,bars/mask005.png,,,,,,,,,,,,0,1,,,,,,,6,0,4,0,,,,,,,,,,,1618.5235,1619.0234,1619.2734,1622.9069,space,3.6176,,1622.907,28,78,1623.9067,1623.9068,1623.9284,,,,0,41,41,41,1,25,155,,,,,,,,
,,616e21f72bf3c44fb03e33cc,65af5567f6e775c50195c060,2024-01-23_07h58.47.260,bars,2023.2.3,Win32,59.17159763,657b66ea316d21385b68909f,,,,,,,,,,,1623.9285,1624.9235,,,1625.4236,1625.6735,,136,136,,,,,,,,,,,,,,,,bars/023.png,bars/mask004.png,,,,,,,,,,,,1,2,,,,,,,4,2,5,2,,,,,,,,,,,1624.9235,1625.4235,1625.6736,1626.6737,space,0.9868,,1626.6737,64,21,1627.6734,1627.6735,1627.6759,,,,0,42,42,42,1,20,115,,,,,,,,
,,616e21f72bf3c44fb03e33cc,65af5567f6e775c50195c060,2024-01-23_07h58.47.260,bars,2023.2.3,Win32,59.17159763,657b66ea316d21385b68909f,,,,,,,,,,,1627.6763,1628.6735,,,1629.1735,1629.4236,,146,146,,,,,,,,,,,,,,,,bars/036.png,bars/mask002.png,,,,,,,,,,,,7,1,,,,,,,6,0,7,1,,,,,,,,,,,1628.6735,1629.1734,1629.4236,1630.5568,space,1.1165,,1630.5569,1,54,1631.5567,1631.5568,1631.5585,,,,0,43,43,43,1,145,20,,,,,,,,
,,616e21f72bf3c44fb03e33cc,65af5567f6e775c50195c060,2024-01-23_07h58.47.260,bars,2023.2.3,Win32,59.17159763,657b66ea316d21385b68909f,,,,,,,,,,,1631.5588,1632.5566,,,1633.0571,1633.3068,,50,50,,,,,,,,,,,,,,,,bars/000.png,bars/mask006.png,,,,,,,,,,,,4,1,,,,,,,4,2,6,2,,,,,,,,,,,1632.5567,1633.057,1633.3068,1634.9562,space,1.64,,1634.9563,10,85,1635.9569,1635.957,1635.958,,,,0,44,44,44,1,40,145,,,,,,,,
,,616e21f72bf3c44fb03e33cc,65af5567f6e775c50195c060,2024-01-23_07h58.47.260,bars,2023.2.3,Win32,59.17159763,657b66ea316d21385b68909f,,,,,,,,,,,1635.9583,1636.9571,,,1637.4571,1637.7068,,74,74,,,,,,,,,,,,,,,,bars/020.png,bars/mask002.png,,,,,,,,,,,,0,1,,,,,,,2,4,3,4,,,,,,,,,,,1636.9571,1637.4571,1637.7068,1640.2404,space,2.5234,,1640.2405,41,84,1641.2405,1641.2405,1641.2621,,,,0,45,45,45,1,115,170,,,,,,,,
,,616e21f72bf3c44fb03e33cc,65af5567f6e775c50195c060,2024-01-23_07h58.47.260,bars,2023.2.3,Win32,59.17159763,657b66ea316d21385b68909f,,,,,,,,,,,1641.2623,1642.2571,,,1642.7572,1643.0072,,50,50,,,,,,,,,,,,,,,,bars/035.png,bars/mask001.png,,,,,,,,,,,,1,2,,,,,,,4,2,4,1,,,,,,,,,,,1642.2572,1642.7572,1643.0073,1645.724,space,2.7045,,1645.7241,55,10,1646.7238,1646.7239,1646.7457,,,,0,46,46,46,1,175,60,,,,,,,,
,,616e21f72bf3c44fb03e33cc,65af5567f6e775c50195c060,2024-01-23_07h58.47.260,bars,2023.2.3,Win32,59.17159763,657b66ea316d21385b68909f,,,,,,,,,,,1646.7459,1647.7403,,,1648.2404,1648.4906,,89,89,,,,,,,,,,,,,,,,bars/048.png,bars/mask002.png,,,,,,,,,,,,0,1,,,,,,,6,0,6,0,,,,,,,,,,,1647.7404,1648.2404,1648.4906,1649.7906,space,1.2843,,1649.7907,39,86,1650.7904,1650.7905,1650.8124,,,,0,47,47,47,1,50,175,,,,,,,,
,,616e21f72bf3c44fb03e33cc,65af5567f6e775c50195c060,2024-01-23_07h58.47.260,bars,2023.2.3,Win32,59.17159763,657b66ea316d21385b68909f,,,,,,,,,,,1650.8126,1651.807,,,1652.3074,1652.5572,,151,151,,,,,,,,,,,,,,,,bars/017.png,bars/mask007.png,,,,,,,,,,,,4,1,,,,,,,4,2,5,2,,,,,,,,,,,1651.807,1652.3073,1652.5573,1771.8426,space,119.2709,,1771.8427,6,74,1772.8423,1772.8424,1772.8434,,,,0,48,48,48,1,145,45,,,,,,,,
,,616e21f72bf3c44fb03e33cc,65af5567f6e775c50195c060,2024-01-23_07h58.47.260,bars,2023.2.3,Win32,59.17159763,657b66ea316d21385b68909f,,,,,,,,,,,1772.8438,1773.8424,,,1774.3424,1774.592,,4,4,,,,,,,,,,,,,,,,bars/003.png,bars/mask001.png,,,,,,,,,,,,1,1,,,,,,,2,4,4,3,,,,,,,,,,,1773.8424,1774.3424,1774.592,1776.1089,space,1.5043,,1776.1089,21,44,1777.109,1777.109,1777.1098,,,,0,49,49,49,1,25,140,,,,,,,,
,,616e21f72bf3c44fb03e33cc,65af5567f6e775c50195c060,2024-01-23_07h58.47.260,bars,2023.2.3,Win32,59.17159763,657b66ea316d21385b68909f,,,,,,,,,,,,,,,,,,,,,,,,,,,,,,,,,,,,,,,,,,,,,,,,,,,,,,,,,,,,,,,,,,,,,,,,,,,,,,,,,,,,,,,,,,,,,1777.1099,1837.1102,0,2,2,4,1,sequence_tables/blk015.csv
,,616e21f72bf3c44fb03e33cc,65af5567f6e775c50195c060,2024-01-23_07h58.47.260,bars,2023.2.3,Win32,59.17159763,657b66ea316d21385b68909f,,,,,,,,,,,1841.5559,1842.5434,,,1843.0435,1843.2933,,73,73,,,,,,,,,,,,,,,,bars/007.png,bars/mask006.png,,,,,,,,,,,,1,2,,,,,,,0,3,0,3,,,,,,1837.1208,1841.5431,space,4.417,,1842.5434,1843.0435,1843.2933,1844.0599,space,0.7505,,1844.06,78,18,1845.0598,1845.0599,1845.0619,,,,0,0,0,0,1,175,55,,,,,,,,
,,616e21f72bf3c44fb03e33cc,65af5567f6e775c50195c060,2024-01-23_07h58.47.260,bars,2023.2.3,Win32,59.17159763,657b66ea316d21385b68909f,,,,,,,,,,,1845.0624,1846.0599,,,1846.5604,1846.8099,,73,73,,,,,,,,,,,,,,,,bars/028.png,bars/mask004.png,,,,,,,,,,,,0,1,,,,,,,2,5,0,6,,,,,,,,,,,1846.06,1846.5603,1846.81,1849.227,space,2.4118,,1849.2271,28,47,1850.2271,1850.2271,1850.238,,,,0,1,1,1,1,45,120,,,,,,,,
,,616e21f72bf3c44fb03e33cc,65af5567f6e775c50195c060,2024-01-23_07h58.47.260,bars,2023.2.3,Win32,59.17159763,657b66ea316d21385b68909f,,,,,,,,,,,1850.2383,1851.227,,,1851.7269,1851.9771,,50,50,,,,,,,,,,,,,,,,bars/024.png,bars/mask003.png,,,,,,,,,,,,0,2,,,,,,,0,7,0,6,,,,,,,,,,,1851.227,1851.7269,1851.9772,1853.0438,space,1.052,,1853.0438,70,60,1854.0435,1854.0435,1854.045,,,,0,2,2,2,1,120,170,,,,,,,,
,,616e21f72bf3c44fb03e33cc,65af5567f6e775c50195c060,2024-01-23_07h58.47.260,bars,2023.2.3,Win32,59.17159763,657b66ea316d21385b68909f,,,,,,,,,,,1854.0452,1855.0435,,,1855.5434,1855.7938,,53,53,,,,,,,,,,,,,,,,bars/026.png,bars/mask005.png,,,,,,,,,,,,1,1,,,,,,,2,5,2,5,,,,,,,,,,,1855.0436,1855.5433,1855.794,1858.5105,space,2.6994,,1858.5106,18,32,1859.5102,1859.5102,1859.5237,,,,0,3,3,3,1,35,85,,,,,,,,
,,616e21f72bf3c44fb03e33cc,65af5567f6e775c50195c060,2024-01-23_07h58.47.260,bars,2023.2.3,Win32,59.17159763,657b66ea316d21385b68909f,,,,,,,,,,,1859.5238,1860.527,,,1861.027,1861.2772,,108,108,,,,,,,,,,,,,,,,bars/005.png,bars/mask006.png,,,,,,,,,,,,0,2,,,,,,,0,7,0,7,,,,,,,,,,,1860.527,1861.027,1861.2772,1864.7445,space,3.4528,,1864.7446,82,32,1865.7436,1865.7436,1865.7533,,,,0,4,4,4,1,10,140,,,,,,,,
,,616e21f72bf3c44fb03e33cc,65af5567f6e775c50195c060,2024-01-23_07h58.47.260,bars,2023.2.3,Win32,59.17159763,657b66ea316d21385b68909f,,,,,,,,,,,1865.7535,1866.7437,,,1867.2439,1867.4936,,100,100,,,,,,,,,,,,,,,,bars/029.png,bars/mask007.png,,,,,,,,,,,,2,1,,,,,,,2,5,3,5,,,,,,,,,,,1866.7437,1867.2439,1867.4937,1875.3104,space,7.8089,,1875.3104,10,55,1876.3103,1876.3104,1876.319,,,,0,5,5,5,1,90,45,,,,,,,,
,,616e21f72bf3c44fb03e33cc,65af5567f6e775c50195c060,2024-01-23_07h58.47.260,bars,2023.2.3,Win32,59.17159763,657b66ea316d21385b68909f,,,,,,,,,,,1876.3191,1877.3105,,,1877.8105,1878.0606,,167,167,,,,,,,,,,,,,,,,bars/033.png,bars/mask003.png,,,,,,,,,,,,1,2,,,,,,,0,3,0,2,,,,,,,,,,,1877.3105,1877.8104,1878.0606,1880.8272,space,2.7571,,1880.8272,38,12,1881.8274,1881.8274,1881.8364,,,,0,6,6,6,1,25,155,,,,,,,,
,,616e21f72bf3c44fb03e33cc,65af5567f6e775c50195c060,2024-01-23_07h58.47.260,bars,2023.2.3,Win32,59.17159763,657b66ea316d21385b68909f,,,,,,,,,,,1881.8366,1882.8273,,,1883.3278,1883.5774,,169,169,,,,,,,,,,,,,,,,bars/028.png,bars/mask006.png,,,,,,,,,,,,0,2,,,,,,,2,5,3,5,,,,,,,,,,,1882.8273,1883.3273,1883.5774,1886.7442,space,3.1562,,1886.7443,56,49,1887.7442,1887.7442,1887.7546,,,,0,7,7,7,1,45,120,,,,,,,,
,,616e21f72bf3c44fb03e33cc,65af5567f6e775c50195c060,2024-01-23_07h58.47.260,bars,2023.2.3,Win32,59.17159763,657b66ea316d21385b68909f,,,,,,,,,,,1887.7547,1888.7441,,,1889.2443,1889.494,,80,80,,,,,,,,,,,,,,,,bars/021.png,bars/mask005.png,,,,,,,,,,,,5,2,,,,,,,0,7,0,8,,,,,,,,,,,1888.7442,1889.2443,1889.4941,1891.9943,space,2.4803,,1891.9943,75,10,1892.9943,1892.9943,1893.0031,,,,0,8,8,8,1,155,70,,,,,,,,
,,616e21f72bf3c44fb03e33cc,65af5567f6e775c50195c060,2024-01-23_07h58.47.260,bars,2023.2.3,Win32,59.17159763,657b66ea316d21385b68909f,,,,,,,,,,,1893.0033,1893.994,,,1894.4942,1894.7444,,39,39,,,,,,,,,,,,,,,,bars/033.png,bars/mask003.png,,,,,,,,,,,,2,1,,,,,,,2,5,3,5,,,,,,,,,,,1893.994,1894.4941,1894.7444,1897.9276,space,3.1662,,1897.9276,14,64,1898.9274,1898.9274,1898.9353,,,,0,9,9,9,1,25,155,,,,,,,,
,,616e21f72bf3c44fb03e33cc,65af5567f6e775c50195c060,2024-01-23_07h58.47.260,bars,2023.2.3,Win32,59.17159763,657b66ea316d21385b68909f,,,,,,,,,,,1898.9354,1899.9275,,,1900.4277,1900.6777,,33,33,,,,,,,,,,,,,,,,bars/034.png,bars/mask002.png,,,,,,,,,,,,0,2,,,,,,,0,7,1,7,,,,,,,,,,,1899.9275,1900.4276,1900.6777,1903.7443,space,3.0532,,1903.7443,88,32,1904.7445,1904.7446,1904.754,,,,0,10,10,10,1,125,65,,,,,,,,
,,616e21f72bf3c44fb03e33cc,65af5567f6e775c50195c060,2024-01-23_07h58.47.260,bars,2023.2.3,Win32,59.17159763,657b66ea316d21385b68909f,,,,,,,,,,,1904.7541,1905.7445,,,1906.2444,1906.4943,,27,27,,,,,,,,,,,,,,,,bars/013.png,bars/mask001.png,,,,,,,,,,,,4,2,,,,,,,0,9,1,10,,,,,,,,,,,1905.7446,1906.2444,1906.4943,1910.428,space,3.9185,,1910.4281,48,17,1911.4279,1911.4279,1911.4374,,,,0,11,11,11,1,75,10,,,,,,,,
,,616e21f72bf3c44fb03e33cc,65af5567f6e775c50195c060,2024-01-23_07h58.47.260,bars,2023.2.3,Win32,59.17159763,657b66ea316d21385b68909f,,,,,,,,,,,1911.4376,1912.4278,,,1912.928,1913.1777,,64,64,,,,,,,,,,,,,,,,bars/029.png,bars/mask007.png,,,,,,,,,,,,3,2,,,,,,,2,7,2,7,,,,,,,,,,,1912.4279,1912.9279,1913.1778,1916.8114,space,3.6239,,1916.8114,26,19,1917.8114,1917.8115,1917.8232,,,,0,12,12,12,1,90,45,,,,,,,,
,,616e21f72bf3c44fb03e33cc,65af5567f6e775c50195c060,2024-01-23_07h58.47.260,bars,2023.2.3,Win32,59.17159763,657b66ea316d21385b68909f,,,,,,,,,,,1917.8233,1918.8113,,,1919.3111,1919.5613,,157,157,,,,,,,,,,,,,,,,bars/022.png,bars/mask002.png,,,,,,,,,,,,0,2,,,,,,,4,5,3,5,,,,,,,,,,,1918.8114,1919.3111,1919.5613,1922.0948,space,2.5199,,1922.0948,62,43,1923.0946,1923.0946,1923.1023,,,,0,13,13,13,1,95,20,,,,,,,,
,,616e21f72bf3c44fb03e33cc,65af5567f6e775c50195c060,2024-01-23_07h58.47.260,bars,2023.2.3,Win32,59.17159763,657b66ea316d21385b68909f,,,,,,,,,,,1923.1024,1924.0946,,,1924.5947,1924.8447,,26,26,,,,,,,,,,,,,,,,bars/046.png,bars/mask003.png,,,,,,,,,,,,0,1,,,,,,,2,3,1,3,,,,,,,,,,,1924.0946,1924.5947,1924.8447,1925.4947,space,0.6393,,1925.4947,51,59,1926.4948,1926.4948,1926.4968,,,,0,14,14,14,1,155,85,,,,,,,,
,,616e21f72bf3c44fb03e33cc,65af5567f6e775c50195c060,2024-01-23_07h58.47.260,bars,2023.2.3,Win32,59.17159763,657b66ea316d21385b68909f,,,,,,,,,,,1926.4971,1927.4948,,,1927.9949,1928.2447,,52,52,,,,,,,,,,,,,,,,bars/035.png,bars/mask007.png,,,,,,,,,,,,2,2,,,,,,,4,1,3,3,,,,,,,,,,,1927.4948,1927.9948,1928.2447,1934.3615,space,6.1087,,1934.3616,57,8,1935.3614,1935.3614,1935.3692,,,,0,15,15,15,1,175,60,,,,,,,,
,,616e21f72bf3c44fb03e33cc,65af5567f6e775c50195c060,2024-01-23_07h58.47.260,bars,2023.2.3,Win32,59.17159763,657b66ea316d21385b68909f,,,,,,,,,,,1935.3693,1936.3614,,,1936.8616,1937.1114,,69,69,,,,,,,,,,,,,,,,bars/044.png,bars/mask001.png,,,,,,,,,,,,4,1,,,,,,,6,0,5,0,,,,,,,,,,,1936.3614,1936.8615,1937.1115,1940.9953,space,3.8707,,1940.9953,6,86,1941.9951,1941.9951,1942.0075,,,,0,16,16,16,1,75,155,,,,,,,,
,,616e21f72bf3c44fb03e33cc,65af5567f6e775c50195c060,2024-01-23_07h58.47.260,bars,2023.2.3,Win32,59.17159763,657b66ea316d21385b68909f,,,,,,,,,,,1942.0076,1943.0115,,,1943.5116,1943.7616,,73,73,,,,,,,,,,,,,,,,bars/029.png,bars/mask006.png,,,,,,,,,,,,2,1,,,,,,,4,2,5,2,,,,,,,,,,,1943.0116,1943.5115,1943.7616,1946.0786,space,2.3004,,1946.0787,17,28,1947.0785,1947.0785,1947.0793,,,,0,17,17,17,1,90,45,,,,,,,,
,,616e21f72bf3c44fb03e33cc,65af5567f6e775c50195c060,2024-01-23_07h58.47.260,bars,2023.2.3,Win32,59.17159763,657b66ea316d21385b68909f,,,,,,,,,,,1947.0796,1948.0784,,,1948.5784,1948.8285,,123,123,,,,,,,,,,,,,,,,bars/012.png,bars/mask009.png,,,,,,,,,,,,0,1,,,,,,,6,4,7,4,,,,,,,,,,,1948.0784,1948.5783,1948.8285,1956.0118,space,7.165,,1956.0118,33,72,1957.0118,1957.0119,1957.0191,,,,0,18,18,18,1,90,15,,,,,,,,
,,616e21f72bf3c44fb03e33cc,65af5567f6e775c50195c060,2024-01-23_07h58.47.260,bars,2023.2.3,Win32,59.17159763,657b66ea316d21385b68909f,,,,,,,,,,,1957.0192,1958.012,,,1958.5119,1958.7619,,141,141,,,,,,,,,,,,,,,,bars/001.png,bars/mask008.png,,,,,,,,,,,,4,1,,,,,,,4,2,6,3,,,,,,,,,,,1958.012,1958.5118,1958.7619,1960.0119,space,1.2413,,1960.0119,11,56,1961.012,1961.012,1961.0127,,,,0,19,19,19,1,130,85,,,,,,,,
,,616e21f72bf3c44fb03e33cc,65af5567f6e775c50195c060,2024-01-23_07h58.47.260,bars,2023.2.3,Win32,59.17159763,657b66ea316d21385b68909f,,,,,,,,,,,1961.013,1962.0121,,,1962.5124,1962.762,,152,152,,,,,,,,,,,,,,,,bars/048.png,bars/mask004.png,,,,,,,,,,,,1,2,,,,,,,6,4,8,4,,,,,,,,,,,1962.0121,1962.5124,1962.762,1973.9954,space,11.2172,,1973.9955,78,23,1974.9956,1974.9957,1975.0081,,,,0,20,20,20,1,50,175,,,,,,,,
,,616e21f72bf3c44fb03e33cc,65af5567f6e775c50195c060,2024-01-23_07h58.47.260,bars,2023.2.3,Win32,59.17159763,657b66ea316d21385b68909f,,,,,,,,,,,1975.0083,1976.0123,,,1976.5125,1976.7623,,39,39,,,,,,,,,,,,,,,,bars/021.png,bars/mask009.png,,,,,,,,,,,,0,2,,,,,,,8,6,9,6,,,,,,,,,,,1976.0123,1976.5124,1976.7624,1977.9789,space,1.2076,,1977.979,64,31,1978.9789,1978.979,1978.9795,,,,0,21,21,21,1,155,70,,,,,,,,
,,616e21f72bf3c44fb03e33cc,65af5567f6e775c50195c060,2024-01-23_07h58.47.260,bars,2023.2.3,Win32,59.17159763,657b66ea316d21385b68909f,,,,,,,,,,,1978.9797,1979.9788,,,1980.4789,1980.7289,,1,1,,,,,,,,,,,,,,,,bars/040.png,bars/mask006.png,,,,,,,,,,,,7,2,,,,,,,10,8,9,8,,,,,,,,,,,1979.9788,1980.4789,1980.7289,1982.0121,space,1.2697,,1982.0121,41,4,1983.0122,1983.0122,1983.0223,,,,0,22,22,22,1,140,5,,,,,,,,
,,616e21f72bf3c44fb03e33cc,65af5567f6e775c50195c060,2024-01-23_07h58.47.260,bars,2023.2.3,Win32,59.17159763,657b66ea316d21385b68909f,,,,,,,,,,,1983.0227,1984.0124,,,1984.5126,1984.7625,,117,117,,,,,,,,,,,,,,,,bars/004.png,bars/mask003.png,,,,,,,,,,,,7,2,,,,,,,8,10,7,10,,,,,,,,,,,1984.0124,1984.5125,1984.7625,1985.3462,space,0.5686,,1985.3463,88,8,1986.3457,1986.3457,1986.3465,,,,0,23,23,23,1,25,125,,,,,,,,
,,616e21f72bf3c44fb03e33cc,65af5567f6e775c50195c060,2024-01-23_07h58.47.260,bars,2023.2.3,Win32,59.17159763,657b66ea316d21385b68909f,,,,,,,,,,,1986.3467,1987.3457,,,1987.8458,1988.0959,,32,32,,,,,,,,,,,,,,,,bars/004.png,bars/mask007.png,,,,,,,,,,,,8,1,,,,,,,10,8,10,8,,,,,,,,,,,1987.3459,1987.8458,1988.096,1988.5957,space,0.4857,,1988.5957,7,87,1989.5959,1989.596,1989.5973,,,,0,24,24,24,1,25,125,,,,,,,,
,,616e21f72bf3c44fb03e33cc,65af5567f6e775c50195c060,2024-01-23_07h58.47.260,bars,2023.2.3,Win32,59.17159763,657b66ea316d21385b68909f,,,,,,,,,,,1989.5975,1990.5959,,,1991.0959,1991.3457,,103,103,,,,,,,,,,,,,,,,bars/029.png,bars/mask001.png,,,,,,,,,,,,6,1,,,,,,,8,6,10,6,,,,,,,,,,,1990.5959,1991.0959,1991.3457,1992.3623,space,1.0118,,1992.3623,13,58,1993.3625,1993.3625,1993.3633,,,,0,25,25,25,1,90,45,,,,,,,,
,,616e21f72bf3c44fb03e33cc,65af5567f6e775c50195c060,2024-01-23_07h58.47.260,bars,2023.2.3,Win32,59.17159763,657b66ea316d21385b68909f,,,,,,,,,,,1993.3636,1994.3626,,,1994.8627,1995.1123,,99,99,,,,,,,,,,,,,,,,bars/038.png,bars/mask005.png,,,,,,,,,,,,0,2,,,,,,,6,4,6,4,,,,,,,,,,,1994.3626,1994.8626,1995.1124,1996.0793,space,0.9539,,1996.0794,66,29,1997.0793,1997.0793,1997.0886,,,,0,26,26,26,1,165,70,,,,,,,,
,,616e21f72bf3c44fb03e33cc,65af5567f6e775c50195c060,2024-01-23_07h58.47.260,bars,2023.2.3,Win32,59.17159763,657b66ea316d21385b68909f,,,,,,,,,,,1997.0886,1998.0791,,,1998.5793,1998.8293,,153,153,,,,,,,,,,,,,,,,bars/023.png,bars/mask001.png,,,,,,,,,,,,0,2,,,,,,,8,6,8,7,,,,,,,,,,,1998.0791,1998.5793,1998.8294,1999.296,space,0.4497,,1999.296,47,38,2000.2961,2000.2961,2000.2969,,,,0,27,27,27,1,20,115,,,,,,,,
,,616e21f72bf3c44fb03e33cc,65af5567f6e775c50195c060,2024-01-23_07h58.47.260,bars,2023.2.3,Win32,59.17159763,657b66ea316d21385b68909f,,,,,,,,,,,2000.2972,2001.2958,,,2001.7962,2002.0459,,21,201,,,,,,,,,,,,,,,,bars/036.png,bars/mask002.png,,,,,,,,,,,,10,2,,,,,,,6,8,8,10,,,,,,,,,,,2001.2958,2001.7962,2002.046,2003.2962,space,1.2338,,2003.2963,56,1,2004.296,2004.296,2004.2966,,,,0,28,28,28,1,145,20,,,,,,,,
,,616e21f72bf3c44fb03e33cc,65af5567f6e775c50195c060,2024-01-23_07h58.47.260,bars,2023.2.3,Win32,59.17159763,657b66ea316d21385b68909f,,,,,,,,,,,2004.2968,2005.2962,,,2005.7962,2006.0462,,24,24,,,,,,,,,,,,,,,,bars/022.png,bars/mask009.png,,,,,,,,,,,,5,2,,,,,,,8,6,7,6,,,,,,,,,,,2005.2962,2005.7962,2006.0462,2007.4628,space,1.3991,,2007.4629,71,4,2008.4628,2008.4629,2008.4637,,,,0,29,29,29,1,95,20,,,,,,,,
,,616e21f72bf3c44fb03e33cc,65af5567f6e775c50195c060,2024-01-23_07h58.47.260,bars,2023.2.3,Win32,59.17159763,657b66ea316d21385b68909f,,,,,,,,,,,2008.4639,2009.4628,,,2009.9631,2010.2128,,139,139,,,,,,,,,,,,,,,,bars/005.png,bars/mask008.png,,,,,,,,,,,,8,2,,,,,,,10,8,10,8,,,,,,,,,,,2009.4628,2009.9631,2010.2128,2012.0633,space,1.8354,,2012.0633,51,1,2013.063,2013.063,2013.0765,,,,0,30,30,30,1,10,140,,,,,,,,
,,616e21f72bf3c44fb03e33cc,65af5567f6e775c50195c060,2024-01-23_07h58.47.260,bars,2023.2.3,Win32,59.17159763,657b66ea316d21385b68909f,,,,,,,,,,,2013.0768,2014.0796,,,2014.5797,2014.8296,,139,139,,,,,,,,,,,,,,,,bars/004.png,bars/mask009.png,,,,,,,,,,,,5,2,,,,,,,8,10,6,9,,,,,,,,,,,2014.0796,2014.5796,2014.8296,2018.1629,space,3.317,,2018.1629,66,14,2019.1629,2019.1629,2019.1763,,,,0,31,31,31,1,25,125,,,,,,,,
,,616e21f72bf3c44fb03e33cc,65af5567f6e775c50195c060,2024-01-23_07h58.47.260,bars,2023.2.3,Win32,59.17159763,657b66ea316d21385b68909f,,,,,,,,,,,2019.1766,2020.1794,,,2020.68,2020.9299,,114,114,,,,,,,,,,,,,,,,bars/025.png,bars/mask006.png,,,,,,,,,,,,4,1,,,,,,,6,8,6,8,,,,,,,,,,,2020.1794,2020.6799,2020.9299,2022.3796,space,1.4317,,2022.3796,9,74,2023.3799,2023.3799,2023.3943,,,,0,32,32,32,1,105,40,,,,,,,,
,,616e21f72bf3c44fb03e33cc,65af5567f6e775c50195c060,2024-01-23_07h58.47.260,bars,2023.2.3,Win32,59.17159763,657b66ea316d21385b68909f,,,,,,,,,,,2023.3944,2024.3966,,,2024.8966,2025.1466,,155,155,,,,,,,,,,,,,,,,bars/006.png,bars/mask006.png,,,,,,,,,,,,0,2,,,,,,,8,10,8,10,,,,,,,,,,,2024.3966,2024.8966,2025.1466,2027.3798,space,2.2165,,2027.3798,60,55,2028.38,2028.38,2028.3971,,,,0,33,33,33,1,35,100,,,,,,,,
,,616e21f72bf3c44fb03e33cc,65af5567f6e775c50195c060,2024-01-23_07h58.47.260,bars,2023.2.3,Win32,59.17159763,657b66ea316d21385b68909f,,,,,,,,,,,2028.3973,2029.3967,,,2029.8967,2030.1463,,125,125,,,,,,,,,,,,,,,,bars/036.png,bars/mask000.png,,,,,,,,,,,,2,1,,,,,,,6,8,6,10,,,,,,,,,,,2029.3967,2029.8967,2030.1463,2032.48,space,2.3206,,2032.48,20,75,2033.4797,2033.4797,2033.4885,,,,0,34,34,34,1,145,20,,,,,,,,
,,616e21f72bf3c44fb03e33cc,65af5567f6e775c50195c060,2024-01-23_07h58.47.260,bars,2023.2.3,Win32,59.17159763,657b66ea316d21385b68909f,,,,,,,,,,,2033.4886,2034.4798,,,2034.9799,2035.2301,,54,54,,,,,,,,,,,,,,,,bars/036.png,bars/mask009.png,,,,,,,,,,,,0,2,,,,,,,4,6,4,6,,,,,,,,,,,2034.4798,2034.9799,2035.2302,2040.0968,space,4.8508,,2040.0969,89,34,2041.0968,2041.0969,2041.1101,,,,0,35,35,35,1,145,20,,,,,,,,
,,616e21f72bf3c44fb03e33cc,65af5567f6e775c50195c060,2024-01-23_07h58.47.260,bars,2023.2.3,Win32,59.17159763,657b66ea316d21385b68909f,,,,,,,,,,,2041.1103,2042.1132,,,2042.6133,2042.8634,,36,36,,,,,,,,,,,,,,,,bars/021.png,bars/mask000.png,,,,,,,,,,,,0,2,,,,,,,2,4,2,4,,,,,,,,,,,2042.1132,2042.6133,2042.8634,2045.0966,space,2.219,,2045.0966,61,34,2046.0969,2046.0969,2046.1105,,,,0,36,36,36,1,155,70,,,,,,,,
,,616e21f72bf3c44fb03e33cc,65af5567f6e775c50195c060,2024-01-23_07h58.47.260,bars,2023.2.3,Win32,59.17159763,657b66ea316d21385b68909f,,,,,,,,,,,2046.1107,2047.1135,,,2047.6135,2047.8635,,115,115,,,,,,,,,,,,,,,,bars/000.png,bars/mask002.png,,,,,,,,,,,,0,2,,,,,,,4,6,4,4,,,,,,,,,,,2047.1135,2047.6135,2047.8636,2051.4638,space,3.5881,,2051.4638,75,30,2052.4635,2052.4636,2052.4779,,,,0,37,37,37,1,40,145,,,,,,,,
,,616e21f72bf3c44fb03e33cc,65af5567f6e775c50195c060,2024-01-23_07h58.47.260,bars,2023.2.3,Win32,59.17159763,657b66ea316d21385b68909f,,,,,,,,,,,2052.4781,2053.4802,,,2053.9803,2054.2303,,129,129,,,,,,,,,,,,,,,,bars/034.png,bars/mask003.png,,,,,,,,,,,,1,1,,,,,,,2,8,1,7,,,,,,,,,,,2053.4802,2053.9803,2054.2303,2057.9638,space,3.7168,,2057.9639,4,64,2058.9636,2058.9636,2058.9729,,,,0,38,38,38,1,125,65,,,,,,,,
,,616e21f72bf3c44fb03e33cc,65af5567f6e775c50195c060,2024-01-23_07h58.47.260,bars,2023.2.3,Win32,59.17159763,657b66ea316d21385b68909f,,,,,,,,,,,2058.9731,2059.9639,,,2060.4638,2060.7135,,137,137,,,,,,,,,,,,,,,,bars/005.png,bars/mask008.png,,,,,,,,,,,,9,2,,,,,,,4,10,5,10,,,,,,,,,,,2059.9639,2060.4637,2060.7135,2062.0971,space,1.369,,2062.0971,53,3,2063.0972,2063.0972,2063.0986,,,,0,39,39,39,1,10,140,,,,,,,,
,,616e21f72bf3c44fb03e33cc,65af5567f6e775c50195c060,2024-01-23_07h58.47.260,bars,2023.2.3,Win32,59.17159763,657b66ea316d21385b68909f,,,,,,,,,,,2063.0988,2064.0971,,,2064.5975,2064.847,,123,123,,,,,,,,,,,,,,,,bars/040.png,bars/mask006.png,,,,,,,,,,,,3,1,,,,,,,6,8,7,7,,,,,,,,,,,2064.0971,2064.5975,2064.8471,2065.7138,space,0.8497,,2065.7138,17,62,2066.7137,2066.7137,2066.7148,,,,0,40,40,40,1,140,5,,,,,,,,
,,616e21f72bf3c44fb03e33cc,65af5567f6e775c50195c060,2024-01-23_07h58.47.260,bars,2023.2.3,Win32,59.17159763,657b66ea316d21385b68909f,,,,,,,,,,,2066.715,2067.7137,,,2068.2138,2068.4638,,163,163,,,,,,,,,,,,,,,,bars/018.png,bars/mask002.png,,,,,,,,,,,,3,1,,,,,,,4,6,5,7,,,,,,,,,,,2067.7137,2068.2138,2068.4639,2069.6973,space,1.2207,,2069.6974,13,73,2070.6972,2070.6973,2070.698,,,,0,41,41,41,1,150,90,,,,,,,,
,,616e21f72bf3c44fb03e33cc,65af5567f6e775c50195c060,2024-01-23_07h58.47.260,bars,2023.2.3,Win32,59.17159763,657b66ea316d21385b68909f,,,,,,,,,,,2070.6983,2071.6972,,,2072.1973,2072.4473,,114,114,,,,,,,,,,,,,,,,bars/035.png,bars/mask006.png,,,,,,,,,,,,0,2,,,,,,,6,8,6,9,,,,,,,,,,,2071.6973,2072.1973,2072.4474,2073.2473,space,0.7832,,2073.2475,61,54,2074.2473,2074.2473,2074.2489,,,,0,42,42,42,1,175,60,,,,,,,,
,,616e21f72bf3c44fb03e33cc,65af5567f6e775c50195c060,2024-01-23_07h58.47.260,bars,2023.2.3,Win32,59.17159763,657b66ea316d21385b68909f,,,,,,,,,,,2074.2491,2075.2473,,,2075.7471,2075.9973,,155,155,,,,,,,,,,,,,,,,bars/028.png,bars/mask004.png,,,,,,,,,,,,0,2,,,,,,,8,6,9,7,,,,,,,,,,,2075.2473,2075.747,2075.9973,2077.4971,space,1.4936,,2077.4972,70,35,2078.4972,2078.4973,2078.4977,,,,0,43,43,43,1,45,120,,,,,,,,
,,616e21f72bf3c44fb03e33cc,65af5567f6e775c50195c060,2024-01-23_07h58.47.260,bars,2023.2.3,Win32,59.17159763,657b66ea316d21385b68909f,,,,,,,,,,,2078.4978,2079.4973,,,2079.9971,2080.2472,,178,178,,,,,,,,,,,,,,,,bars/023.png,bars/mask004.png,,,,,,,,,,,,1,1,,,,,,,6,8,5,10,,,,,,,,,,,2079.4973,2079.9971,2080.2472,30539.9757,space,28459.7176,,30539.9758,22,63,30540.9759,30540.976,30541.0044,,,,0,44,44,44,1,20,115,,,,,,,,
,,616e21f72bf3c44fb03e33cc,65af5567f6e775c50195c060,2024-01-23_07h58.47.260,bars,2023.2.3,Win32,59.17159763,657b66ea316d21385b68909f,,,,,,,,,,,30541.0049,30541.9926,,,30542.4927,30542.7428,,54,54,,,,,,,,,,,,,,,,bars/032.png,bars/mask004.png,,,,,,,,,,,,0,2,,,,,,,4,10,4,9,,,,,,,,,,,30541.9927,30542.4926,30542.7428,30544.1264,space,1.3675,,30544.1265,71,34,30545.1262,30545.1262,30545.1291,,,,0,45,45,45,1,125,20,,,,,,,,
,,616e21f72bf3c44fb03e33cc,65af5567f6e775c50195c060,2024-01-23_07h58.47.260,bars,2023.2.3,Win32,59.17159763,657b66ea316d21385b68909f,,,,,,,,,,,30545.1297,30546.1262,,,30546.6265,30546.8764,,33,33,,,,,,,,,,,,,,,,bars/043.png,bars/mask004.png,,,,,,,,,,,,3,1,,,,,,,2,8,3,9,,,,,,,,,,,30546.1263,30546.6264,30546.8764,30548.7927,space,1.908,,30548.7928,3,83,30549.7929,30549.7929,30549.8198,,,,0,46,46,46,1,30,130,,,,,,,,
,,616e21f72bf3c44fb03e33cc,65af5567f6e775c50195c060,2024-01-23_07h58.47.260,bars,2023.2.3,Win32,59.17159763,657b66ea316d21385b68909f,,,,,,,,,,,30549.8201,30550.8096,,,30551.3099,30551.5595,,0,180,,,,,,,,,,,,,,,,bars/016.png,bars/mask002.png,,,,,,,,,,,,5,2,,,,,,,4,6,4,9,,,,,,,,,,,30550.8096,30551.3098,30551.5595,30554.2934,space,2.7166,,30554.2935,40,15,30555.2929,30555.2929,30555.3211,,,,0,47,47,47,1,40,165,,,,,,,,
,,616e21f72bf3c44fb03e33cc,65af5567f6e775c50195c060,2024-01-23_07h58.47.260,bars,2023.2.3,Win32,59.17159763,657b66ea316d21385b68909f,,,,,,,,,,,30555.3213,30556.3097,,,30556.8099,30557.0597,,139,139,,,,,,,,,,,,,,,,bars/034.png,bars/mask006.png,,,,,,,,,,,,1,1,,,,,,,2,8,1,7,,,,,,,,,,,30556.3097,30556.8099,30557.0598,30559.2432,space,2.1674,,30559.2432,14,74,30560.243,30560.2431,30560.2776,,,,0,48,48,48,1,125,65,,,,,,,,
,,616e21f72bf3c44fb03e33cc,65af5567f6e775c50195c060,2024-01-23_07h58.47.260,bars,2023.2.3,Win32,59.17159763,657b66ea316d21385b68909f,,,,,,,,,,,30560.2782,30561.2766,,,30561.7764,30562.0265,,128,128,,,,,,,,,,,,,,,,bars/047.png,bars/mask009.png,,,,,,,,,,,,0,2,,,,,,,0,6,0,6,,,,,,,,,,,30561.2767,30561.7764,30562.0265,30564.9597,space,2.9219,,30564.9598,67,58,30565.9597,30565.9597,30565.9877,,,,0,49,49,49,1,15,70,,,,,,,,
,,616e21f72bf3c44fb03e33cc,65af5567f6e775c50195c060,2024-01-23_07h58.47.260,bars,2023.2.3,Win32,59.17159763,657b66ea316d21385b68909f,,,,,,,,,,,,,,,,,,,,,,,,,,,,,,,,,,,,,,,,,,,,,,,,,,,,,,,,,,,,,,,,,,,,,,,,,,,,,,,,,,,,,,,,,,,,,30565.988,30625.9775,0,3,3,0,1,sequence_tables/blk005.csv
,,616e21f72bf3c44fb03e33cc,65af5567f6e775c50195c060,2024-01-23_07h58.47.260,bars,2023.2.3,Win32,59.17159763,657b66ea316d21385b68909f,,,,,,,,,,,30627.3503,30628.3437,,,30628.8441,30629.0942,,30,210,,,,,,,,,,,,,,,,bars/042.png,bars/mask007.png,,,,,,,,,,,,0,2,,,,,,,10,7,10,6,,,,,,30626.0043,30627.3439,space,1.3271,,30628.3437,30628.844,30629.0943,30631.7277,space,2.6209,,30631.7278,65,45,30632.7273,30632.7273,30632.7444,,,,0,0,0,0,1,145,75,,,,,,,,
,,616e21f72bf3c44fb03e33cc,65af5567f6e775c50195c060,2024-01-23_07h58.47.260,bars,2023.2.3,Win32,59.17159763,657b66ea316d21385b68909f,,,,,,,,,,,30632.7447,30633.7445,,,30634.2446,30634.4945,,154,154,,,,,,,,,,,,,,,,bars/015.png,bars/mask009.png,,,,,,,,,,,,4,2,,,,,,,8,5,5,5,,,,,,,,,,,30633.7445,30634.2446,30634.4946,30635.3115,space,0.8048,,30635.3116,44,6,30636.3111,30636.3113,30636.3124,,,,0,1,1,1,1,110,160,,,,,,,,
,,616e21f72bf3c44fb03e33cc,65af5567f6e775c50195c060,2024-01-23_07h58.47.260,bars,2023.2.3,Win32,59.17159763,657b66ea316d21385b68909f,,,,,,,,,,,30636.3128,30637.3111,,,30637.8112,30638.061,,83,83,,,,,,,,,,,,,,,,bars/010.png,bars/mask007.png,,,,,,,,,,,,0,2,,,,,,,10,3,10,3,,,,,,,,,,,30637.3112,30637.8112,30638.0611,30640.5443,space,2.4773,,30640.5445,82,28,30641.5444,30641.5444,30641.5702,,,,0,2,2,2,1,165,55,,,,,,,,
,,616e21f72bf3c44fb03e33cc,65af5567f6e775c50195c060,2024-01-23_07h58.47.260,bars,2023.2.3,Win32,59.17159763,657b66ea316d21385b68909f,,,,,,,,,,,30641.5704,30642.5611,,,30643.0646,30643.3112,,93,93,,,,,,,,,,,,,,,,bars/041.png,bars/mask008.png,,,,,,,,,,,,1,2,,,,,,,10,1,10,1,,,,,,,,,,,30642.5611,30643.0646,30643.3112,30646.7284,space,3.4023,,30646.7284,73,8,30647.7279,30647.728,30647.7543,,,,0,3,3,3,1,20,85,,,,,,,,
,,616e21f72bf3c44fb03e33cc,65af5567f6e775c50195c060,2024-01-23_07h58.47.260,bars,2023.2.3,Win32,59.17159763,657b66ea316d21385b68909f,,,,,,,,,,,30647.7547,30648.7445,,,30649.2445,30649.4947,,56,56,,,,,,,,,,,,,,,,bars/030.png,bars/mask007.png,,,,,,,,,,,,3,2,,,,,,,8,3,7,4,,,,,,,,,,,30648.7446,30649.2445,30649.4948,30650.6115,space,1.1009,,30650.6116,84,9,30651.6111,30651.6111,30651.6126,,,,0,4,4,4,1,140,65,,,,,,,,
,,616e21f72bf3c44fb03e33cc,65af5567f6e775c50195c060,2024-01-23_07h58.47.260,bars,2023.2.3,Win32,59.17159763,657b66ea316d21385b68909f,,,,,,,,,,,30651.6133,30652.6113,,,30653.1114,30653.3614,,13,193,,,,,,,,,,,,,,,,bars/034.png,bars/mask007.png,,,,,,,,,,,,0,2,,,,,,,10,5,9,4,,,,,,,,,,,30652.6113,30653.1114,30653.3615,30657.2948,space,3.9255,,30657.2949,68,52,30658.2947,30658.2947,30658.3196,,,,0,5,5,5,1,125,65,,,,,,,,
,,616e21f72bf3c44fb03e33cc,65af5567f6e775c50195c060,2024-01-23_07h58.47.260,bars,2023.2.3,Win32,59.17159763,657b66ea316d21385b68909f,,,,,,,,,,,30658.3199,30659.3111,,,30659.8112,30660.0615,,122,122,,,,,,,,,,,,,,,,bars/004.png,bars/mask008.png,,,,,,,,,,,,6,2,,,,,,,8,7,9,7,,,,,,,,,,,30659.3111,30659.8112,30660.0616,30663.0783,space,3.0005,,30663.0784,83,3,30664.0783,30664.0783,30664.1046,,,,0,6,6,6,1,25,125,,,,,,,,
,,616e21f72bf3c44fb03e33cc,65af5567f6e775c50195c060,2024-01-23_07h58.47.260,bars,2023.2.3,Win32,59.17159763,657b66ea316d21385b68909f,,,,,,,,,,,30664.1051,30665.0947,,,30665.5949,30665.8449,,24,204,,,,,,,,,,,,,,,,bars/045.png,bars/mask000.png,,,,,,,,,,,,2,2,,,,,,,6,5,6,4,,,,,,,,,,,30665.0948,30665.5948,30665.8449,30669.7118,space,3.8564,,30669.7119,76,14,30670.7116,30670.7117,30670.7382,,,,0,7,7,7,1,100,10,,,,,,,,
,,616e21f72bf3c44fb03e33cc,65af5567f6e775c50195c060,2024-01-23_07h58.47.260,bars,2023.2.3,Win32,59.17159763,657b66ea316d21385b68909f,,,,,,,,,,,30670.7386,30671.7284,,,30672.2286,30672.4785,,161,161,,,,,,,,,,,,,,,,bars/034.png,bars/mask005.png,,,,,,,,,,,,0,1,,,,,,,8,7,9,9,,,,,,,,,,,30671.7284,30672.2285,30672.4785,30674.7283,space,2.2362,,30674.7283,36,84,30675.7286,30675.7286,30675.7315,,,,0,8,8,8,1,125,65,,,,,,,,
,,616e21f72bf3c44fb03e33cc,65af5567f6e775c50195c060,2024-01-23_07h58.47.260,bars,2023.2.3,Win32,59.17159763,657b66ea316d21385b68909f,,,,,,,,,,,30675.7321,30676.7284,,,30677.2281,30677.4784,,48,48,,,,,,,,,,,,,,,,bars/043.png,bars/mask001.png,,,,,,,,,,,,4,1,,,,,,,10,9,10,9,,,,,,,,,,,30676.7285,30677.2281,30677.4785,30683.8121,space,6.3178,,30683.8122,18,82,30684.8117,30684.8117,30684.8407,,,,0,9,9,9,1,30,130,,,,,,,,
,,616e21f72bf3c44fb03e33cc,65af5567f6e775c50195c060,2024-01-23_07h58.47.260,bars,2023.2.3,Win32,59.17159763,657b66ea316d21385b68909f,,,,,,,,,,,30684.8409,30685.8287,,,30686.3286,30686.5786,,35,35,,,,,,,,,,,,,,,,bars/023.png,bars/mask008.png,,,,,,,,,,,,5,1,,,,,,,10,10,10,10,,,,,,,,,,,30685.8287,30686.3285,30686.5786,30688.512,space,1.9172,,30688.5121,15,80,30689.5117,30689.5117,30689.5369,,,,0,10,10,10,1,20,115,,,,,,,,
