init_variables.started,init_variables.stopped,participant,session,date,expName,psychopyVersion,OS,frameRate,study_id,instruction_exp.started,instruction_exp.stopped,key_resp_8.keys,key_resp_8.rt,key_resp_8.duration,instruction_single.started,instruction_single.stopped,key_resp_2.keys,key_resp_2.rt,key_resp_2.duration,interval.started,interval.stopped,cue_single.started,cue_single.stopped,mask.started,mask.stopped,ori_response_single.started,res_ori,res,ori_response_single.stopped,key_resp_single.keys,key_resp_single.rt,key_resp_single.duration,disp_single.started,disp_single.stopped,key_resp.keys,key_resp.rt,key_resp.duration,single.thisRepN,single.thisTrialN,single.thisN,single.thisIndex,single.ran,ori,path,mask_path,instruction_bandit.started,instruction_bandit.stopped,key_resp_6.keys,key_resp_6.rt,key_resp_6.duration,cue_bandit.started,cue_bandit.stopped,bandit_res.keys,bandit_res.rt,bandit_res.duration,outcome_bandit.started,rew,action,outcome_bandit.stopped,bandit.thisRepN,bandit.thisTrialN,bandit.thisN,bandit.thisIndex,bandit.ran,actual_rew1,actual_rew2,rew1,rew2,instruction_task.started,instruction_task.stopped,key_resp_7.keys,key_resp_7.rt,key_resp_7.duration,wait_ready.started,wait_ready.stopped,key_resp_3.keys,key_resp_3.rt,key_resp_3.duration,cue.started,cue.stopped,ori_response.started,ori_response.stopped,key_resp_5.keys,key_resp_5.rt,key_resp_5.duration,outcome.started,diff1,diff2,outcome.stopped,disp_outcome_practice.started,disp_outcome_practice.stopped,key_resp_4.keys,key_resp_4.rt,key_resp_4.duration,trials.thisRepN,trials.thisTrialN,trials.thisN,trials.thisIndex,trials.ran,ori1,ori2,break_blk.started,break_blk.stopped,block.thisRepN,block.thisTrialN,block.thisN,block.thisIndex,block.ran,condition_file
0.0004,0.0007,613f59d7f0f631a278aca6e8,65af556978b86183ca316f71,2024-01-23_07h59.44.239,bars,2023.2.3,Win32,59.88023952,657b66ea316d21385b68909f,,,,,,,,,,,,,,,,,,,,,,,,,,,,,,,,,,,,,,,,,,,,,,,,,,,,,,,,,,,,,,,,,,,,,,,,,,,,,,,,,,,,,,,,,,,,,,,,,,,,
,,613f59d7f0f631a278aca6e8,65af556978b86183ca316f71,2024-01-23_07h59.44.239,bars,2023.2.3,Win32,59.88023952,657b66ea316d21385b68909f,0.001,22.3291,y,22.3107,,,,,,,,,,,,,,,,,,,,,,,,,,,,,,,,,,,,,,,,,,,,,,,,,,,,,,,,,,,,,,,,,,,,,,,,,,,,,,,,,,,,,,,,,,,,,,,,
,,613f59d7f0f631a278aca6e8,65af556978b86183ca316f71,2024-01-23_07h59.44.239,bars,2023.2.3,Win32,59.88023952,657b66ea316d21385b68909f,,,,,,22.3292,40.9184,space,18.5692,,,,,,,,,,,,,,,,,,,,,,,,,,,,,,,,,,,,,,,,,,,,,,,,,,,,,,,,,,,,,,,,,,,,,,,,,,,,,,,,,,,,,,,,,,,
,,613f59d7f0f631a278aca6e8,65af556978b86183ca316f71,2024-01-23_07h59.44.239,bars,2023.2.3,Win32,59.88023952,657b66ea316d21385b68909f,,,,,,,,,,,40.9331,41.931,41.9314,42.4252,42.4256,42.675,42.6758,107,107,257.7664,space,215.0221,,257.7674,260.9769,space,3.1683,,0,0,0,3,1,20,bars/single003.png,bars/mask005.png,,,,,,,,,,,,,,,,,,,,,,,,,,,,,,,,,,,,,,,,,,,,,,,,,,,,,,,,,,,,,,,,
,,613f59d7f0f631a278aca6e8,65af556978b86183ca316f71,2024-01-23_07h59.44.239,bars,2023.2.3,Win32,59.88023952,657b66ea316d21385b68909f,,,,,,,,,,,261.009,261.9799,261.9802,262.4809,262.4811,262.7224,262.7225,106,106,275.2225,space,12.4833,,275.2227,282.4098,space,7.1273,,0,1,1,8,1,160,bars/single008.png,bars/mask004.png,,,,,,,,,,,,,,,,,,,,,,,,,,,,,,,,,,,,,,,,,,,,,,,,,,,,,,,,,,,,,,,,
,,613f59d7f0f631a278aca6e8,65af556978b86183ca316f71,2024-01-23_07h59.44.239,bars,2023.2.3,Win32,59.88023952,657b66ea316d21385b68909f,,,,,,,,,,,282.4425,283.4168,283.4169,283.909,283.9091,284.1597,284.1598,10,10,291.7426,space,7.5733,,291.7427,296.4387,space,4.6421,,0,2,2,4,1,95,bars/single004.png,bars/mask004.png,,,,,,,,,,,,,,,,,,,,,,,,,,,,,,,,,,,,,,,,,,,,,,,,,,,,,,,,,,,,,,,,
,,613f59d7f0f631a278aca6e8,65af556978b86183ca316f71,2024-01-23_07h59.44.239,bars,2023.2.3,Win32,59.88023952,657b66ea316d21385b68909f,,,,,,,,,,,296.4678,297.4546,297.4548,297.9476,297.9478,298.1973,298.1975,109,109,308.53,space,10.3158,,308.53,312.2971,space,3.7172,,0,3,3,6,1,175,bars/single006.png,bars/mask005.png,,,,,,,,,,,,,,,,,,,,,,,,,,,,,,,,,,,,,,,,,,,,,,,,,,,,,,,,,,,,,,,,
,,613f59d7f0f631a278aca6e8,65af556978b86183ca316f71,2024-01-23_07h59.44.239,bars,2023.2.3,Win32,59.88023952,657b66ea316d21385b68909f,,,,,,,,,,,312.2995,313.2943,313.2944,313.7945,313.7947,314.0437,314.0437,87,87,319.2439,space,5.184,,319.244,320.2612,space,0.9788,,0,4,4,2,1,145,bars/single002.png,bars/mask003.png,,,,,,,,,,,,,,,,,,,,,,,,,,,,,,,,,,,,,,,,,,,,,,,,,,,,,,,,,,,,,,,,
,,613f59d7f0f631a278aca6e8,65af556978b86183ca316f71,2024-01-23_07h59.44.239,bars,2023.2.3,Win32,59.88023952,657b66ea316d21385b68909f,,,,,,,,,,,320.263,321.2591,321.2592,321.7492,321.7495,321.9924,321.9926,99,99,326.4923,space,4.4834,,326.4926,332.0616,space,5.5194,,0,5,5,9,1,20,bars/single009.png,bars/mask006.png,,,,,,,,,,,,,,,,,,,,,,,,,,,,,,,,,,,,,,,,,,,,,,,,,,,,,,,,,,,,,,,,
,,613f59d7f0f631a278aca6e8,65af556978b86183ca316f71,2024-01-23_07h59.44.239,bars,2023.2.3,Win32,59.88023952,657b66ea316d21385b68909f,,,,,,,,,,,332.0838,333.0722,333.0723,333.5731,333.5732,333.8133,333.8134,52,52,338.6314,space,4.8051,,338.6316,340.1285,space,1.4468,,0,6,6,5,1,55,bars/single005.png,bars/mask008.png,,,,,,,,,,,,,,,,,,,,,,,,,,,,,,,,,,,,,,,,,,,,,,,,,,,,,,,,,,,,,,,,
,,613f59d7f0f631a278aca6e8,65af556978b86183ca316f71,2024-01-23_07h59.44.239,bars,2023.2.3,Win32,59.88023952,657b66ea316d21385b68909f,,,,,,,,,,,340.1309,341.1283,341.1284,341.6299,341.63,341.8717,341.8718,107,107,347.0288,space,5.1351,,347.0289,347.7454,space,0.664,,0,7,7,7,1,45,bars/single007.png,bars/mask009.png,,,,,,,,,,,,,,,,,,,,,,,,,,,,,,,,,,,,,,,,,,,,,,,,,,,,,,,,,,,,,,,,
,,613f59d7f0f631a278aca6e8,65af556978b86183ca316f71,2024-01-23_07h59.44.239,bars,2023.2.3,Win32,59.88023952,657b66ea316d21385b68909f,,,,,,,,,,,347.7465,348.7446,348.7447,349.2358,349.236,349.4858,349.486,48,48,358.2704,space,8.7676,,358.2705,362.3282,space,4.0012,,0,8,8,0,1,150,bars/single000.png,bars/mask006.png,,,,,,,,,,,,,,,,,,,,,,,,,,,,,,,,,,,,,,,,,,,,,,,,,,,,,,,,,,,,,,,,
,,613f59d7f0f631a278aca6e8,65af556978b86183ca316f71,2024-01-23_07h59.44.239,bars,2023.2.3,Win32,59.88023952,657b66ea316d21385b68909f,,,,,,,,,,,362.3519,363.3393,363.3393,363.8397,363.8399,364.0896,364.0897,137,137,378.069,space,13.967,,378.0691,380.419,space,2.3246,,0,9,9,1,1,20,bars/single001.png,bars/mask006.png,,,,,,,,,,,,,,,,,,,,,,,,,,,,,,,,,,,,,,,,,,,,,,,,,,,,,,,,,,,,,,,,
,,613f59d7f0f631a278aca6e8,65af556978b86183ca316f71,2024-01-23_07h59.44.239,bars,2023.2.3,Win32,59.88023952,657b66ea316d21385b68909f,,,,,,,,,,,,,,,,,,,,,,,,,,,,,,,,,,,,,380.4204,418.3033,space,37.8671,,,,,,,,,,,,,,,,,,,,,,,,,,,,,,,,,,,,,,,,,,,,,,,,,,,,,,,,,,,,
,,613f59d7f0f631a278aca6e8,65af556978b86183ca316f71,2024-01-23_07h59.44.239,bars,2023.2.3,Win32,59.88023952,657b66ea316d21385b68909f,,,,,,,,,,,,,,,,,,,,,,,,,,,,,,,,,,,,,,,,,,418.3195,422.6017,left,4.2639,,422.6021,9,1,423.5918,0,0,0,0,1,9,1,9,2,,,,,,,,,,,,,,,,,,,,,,,,,,,,,,,,,,,,,,,,,
,,613f59d7f0f631a278aca6e8,65af556978b86183ca316f71,2024-01-23_07h59.44.239,bars,2023.2.3,Win32,59.88023952,657b66ea316d21385b68909f,,,,,,,,,,,,,,,,,,,,,,,,,,,,,,,,,,,,,,,,,,423.593,425.6172,left,2.0156,,425.6173,10,1,426.613,0,1,1,1,1,10,0,10,1,,,,,,,,,,,,,,,,,,,,,,,,,,,,,,,,,,,,,,,,,
,,613f59d7f0f631a278aca6e8,65af556978b86183ca316f71,2024-01-23_07h59.44.239,bars,2023.2.3,Win32,59.88023952,657b66ea316d21385b68909f,,,,,,,,,,,,,,,,,,,,,,,,,,,,,,,,,,,,,,,,,,426.6256,427.2832,left,0.6506,,427.2833,10,1,428.2793,0,2,2,2,1,10,2,10,2,,,,,,,,,,,,,,,,,,,,,,,,,,,,,,,,,,,,,,,,,
,,613f59d7f0f631a278aca6e8,65af556978b86183ca316f71,2024-01-23_07h59.44.239,bars,2023.2.3,Win32,59.88023952,657b66ea316d21385b68909f,,,,,,,,,,,,,,,,,,,,,,,,,,,,,,,,,,,,,,,,,,428.2802,428.7667,left,0.4679,,428.7669,7,1,429.7665,0,3,3,3,1,8,4,7,3,,,,,,,,,,,,,,,,,,,,,,,,,,,,,,,,,,,,,,,,,
,,613f59d7f0f631a278aca6e8,65af556978b86183ca316f71,2024-01-23_07h59.44.239,bars,2023.2.3,Win32,59.88023952,657b66ea316d21385b68909f,,,,,,,,,,,,,,,,,,,,,,,,,,,,,,,,,,,,,,,,,,429.7669,430.2498,left,0.467,,430.2498,5,1,431.249,0,4,4,4,1,6,2,5,1,,,,,,,,,,,,,,,,,,,,,,,,,,,,,,,,,,,,,,,,,
,,613f59d7f0f631a278aca6e8,65af556978b86183ca316f71,2024-01-23_07h59.44.239,bars,2023.2.3,Win32,59.88023952,657b66ea316d21385b68909f,,,,,,,,,,,,,,,,,,,,,,,,,,,,,,,,,,,,,,,,,,431.2495,431.9995,left,0.7337,,431.9996,4,1,432.9985,0,5,5,5,1,4,4,4,4,,,,,,,,,,,,,,,,,,,,,,,,,,,,,,,,,,,,,,,,,
,,613f59d7f0f631a278aca6e8,65af556978b86183ca316f71,2024-01-23_07h59.44.239,bars,2023.2.3,Win32,59.88023952,657b66ea316d21385b68909f,,,,,,,,,,,,,,,,,,,,,,,,,,,,,,,,,,,,,,,,,,432.9989,433.4851,right,0.4703,,433.4852,2,2,434.4732,0,6,6,6,1,2,2,1,2,,,,,,,,,,,,,,,,,,,,,,,,,,,,,,,,,,,,,,,,,
,,613f59d7f0f631a278aca6e8,65af556978b86183ca316f71,2024-01-23_07h59.44.239,bars,2023.2.3,Win32,59.88023952,657b66ea316d21385b68909f,,,,,,,,,,,,,,,,,,,,,,,,,,,,,,,,,,,,,,,,,,434.4736,434.9568,right,0.4672,,434.9568,1,2,435.9478,0,7,7,7,1,0,0,0,1,,,,,,,,,,,,,,,,,,,,,,,,,,,,,,,,,,,,,,,,,
,,613f59d7f0f631a278aca6e8,65af556978b86183ca316f71,2024-01-23_07h59.44.239,bars,2023.2.3,Win32,59.88023952,657b66ea316d21385b68909f,,,,,,,,,,,,,,,,,,,,,,,,,,,,,,,,,,,,,,,,,,435.9483,436.5689,left,0.6048,,436.5689,1,1,437.5655,0,8,8,8,1,0,2,1,0,,,,,,,,,,,,,,,,,,,,,,,,,,,,,,,,,,,,,,,,,
,,613f59d7f0f631a278aca6e8,65af556978b86183ca316f71,2024-01-23_07h59.44.239,bars,2023.2.3,Win32,59.88023952,657b66ea316d21385b68909f,,,,,,,,,,,,,,,,,,,,,,,,,,,,,,,,,,,,,,,,,,437.5662,437.9502,right,0.3691,,437.9503,3,2,438.9407,0,9,9,9,1,2,4,2,3,,,,,,,,,,,,,,,,,,,,,,,,,,,,,,,,,,,,,,,,,
,,613f59d7f0f631a278aca6e8,65af556978b86183ca316f71,2024-01-23_07h59.44.239,bars,2023.2.3,Win32,59.88023952,657b66ea316d21385b68909f,,,,,,,,,,,,,,,,,,,,,,,,,,,,,,,,,,,,,,,,,,438.9417,439.5639,left,0.6144,,439.5639,0,1,440.5599,0,10,10,10,1,0,2,0,3,,,,,,,,,,,,,,,,,,,,,,,,,,,,,,,,,,,,,,,,,
,,613f59d7f0f631a278aca6e8,65af556978b86183ca316f71,2024-01-23_07h59.44.239,bars,2023.2.3,Win32,59.88023952,657b66ea316d21385b68909f,,,,,,,,,,,,,,,,,,,,,,,,,,,,,,,,,,,,,,,,,,440.5608,440.9142,right,0.3349,,440.9143,3,2,441.9125,0,11,11,11,1,0,4,0,3,,,,,,,,,,,,,,,,,,,,,,,,,,,,,,,,,,,,,,,,,
,,613f59d7f0f631a278aca6e8,65af556978b86183ca316f71,2024-01-23_07h59.44.239,bars,2023.2.3,Win32,59.88023952,657b66ea316d21385b68909f,,,,,,,,,,,,,,,,,,,,,,,,,,,,,,,,,,,,,,,,,,441.9134,442.53,right,0.6008,,442.5301,6,2,443.5287,0,12,12,12,1,2,6,1,6,,,,,,,,,,,,,,,,,,,,,,,,,,,,,,,,,,,,,,,,,
,,613f59d7f0f631a278aca6e8,65af556978b86183ca316f71,2024-01-23_07h59.44.239,bars,2023.2.3,Win32,59.88023952,657b66ea316d21385b68909f,,,,,,,,,,,,,,,,,,,,,,,,,,,,,,,,,,,,,,,,,,443.5296,444.2219,right,0.6734,,444.222,3,2,445.2118,0,13,13,13,1,0,4,1,3,,,,,,,,,,,,,,,,,,,,,,,,,,,,,,,,,,,,,,,,,
,,613f59d7f0f631a278aca6e8,65af556978b86183ca316f71,2024-01-23_07h59.44.239,bars,2023.2.3,Win32,59.88023952,657b66ea316d21385b68909f,,,,,,,,,,,,,,,,,,,,,,,,,,,,,,,,,,,,,,,,,,445.2128,446.0629,left,0.8347,,446.063,2,1,447.0615,0,14,14,14,1,2,6,2,7,,,,,,,,,,,,,,,,,,,,,,,,,,,,,,,,,,,,,,,,,
,,613f59d7f0f631a278aca6e8,65af556978b86183ca316f71,2024-01-23_07h59.44.239,bars,2023.2.3,Win32,59.88023952,657b66ea316d21385b68909f,,,,,,,,,,,,,,,,,,,,,,,,,,,,,,,,,,,,,,,,,,447.0625,447.679,right,0.601,,447.679,9,2,448.678,0,15,15,15,1,4,8,3,9,,,,,,,,,,,,,,,,,,,,,,,,,,,,,,,,,,,,,,,,,
,,613f59d7f0f631a278aca6e8,65af556978b86183ca316f71,2024-01-23_07h59.44.239,bars,2023.2.3,Win32,59.88023952,657b66ea316d21385b68909f,,,,,,,,,,,,,,,,,,,,,,,,,,,,,,,,,,,,,,,,,,448.6789,449.2786,right,0.584,,449.2786,7,2,450.2776,0,16,16,16,1,6,6,7,7,,,,,,,,,,,,,,,,,,,,,,,,,,,,,,,,,,,,,,,,,
,,613f59d7f0f631a278aca6e8,65af556978b86183ca316f71,2024-01-23_07h59.44.239,bars,2023.2.3,Win32,59.88023952,657b66ea316d21385b68909f,,,,,,,,,,,,,,,,,,,,,,,,,,,,,,,,,,,,,,,,,,450.2785,450.8782,right,0.5843,,450.8783,5,2,451.8779,0,17,17,17,1,8,4,9,5,,,,,,,,,,,,,,,,,,,,,,,,,,,,,,,,,,,,,,,,,
,,613f59d7f0f631a278aca6e8,65af556978b86183ca316f71,2024-01-23_07h59.44.239,bars,2023.2.3,Win32,59.88023952,657b66ea316d21385b68909f,,,,,,,,,,,,,,,,,,,,,,,,,,,,,,,,,,,,,,,,,,451.8788,452.4948,right,0.6012,,452.4948,1,2,453.4921,0,18,18,18,1,6,2,5,1,,,,,,,,,,,,,,,,,,,,,,,,,,,,,,,,,,,,,,,,,
,,613f59d7f0f631a278aca6e8,65af556978b86183ca316f71,2024-01-23_07h59.44.239,bars,2023.2.3,Win32,59.88023952,657b66ea316d21385b68909f,,,,,,,,,,,,,,,,,,,,,,,,,,,,,,,,,,,,,,,,,,453.4929,454.3274,right,0.8176,,454.3274,0,2,455.3261,0,19,19,19,1,8,0,7,0,,,,,,,,,,,,,,,,,,,,,,,,,,,,,,,,,,,,,,,,,
,,613f59d7f0f631a278aca6e8,65af556978b86183ca316f71,2024-01-23_07h59.44.239,bars,2023.2.3,Win32,59.88023952,657b66ea316d21385b68909f,,,,,,,,,,,,,,,,,,,,,,,,,,,,,,,,,,,,,,,,,,,,,,,,,,,,,,,,,,,,455.327,465.4259,space,10.0816,,,,,,,,,,,,,,,,,,,,,,,,,,,,,,,,,,,,,
,,613f59d7f0f631a278aca6e8,65af556978b86183ca316f71,2024-01-23_07h59.44.239,bars,2023.2.3,Win32,59.88023952,657b66ea316d21385b68909f,,,,,,,,,,,469.6892,470.6501,,,471.1494,471.3912,,162,-18,,,,,,,,,,,,,,,,bars/018.png,bars/mask005.png,,,,,,,,,,,,6,1,,,,,,,9,7,10,7,,,,,,465.4422,469.634,space,4.1762,,470.6507,471.1493,471.392,478.2173,space,6.7967,,478.2179,12,72,479.2064,479.207,483.0305,space,3.7944,,0,0,0,0,1,150,90,,,,,,,,
,,613f59d7f0f631a278aca6e8,65af556978b86183ca316f71,2024-01-23_07h59.44.239,bars,2023.2.3,Win32,59.88023952,657b66ea316d21385b68909f,,,,,,,,,,,483.0642,484.0381,,,484.529,484.7718,,172,-8,,,,,,,,,,,,,,,,bars/038.png,bars/mask001.png,,,,,,,,,,,,5,1,,,,,,,7,5,7,4,,,,,,,,,,,484.0384,484.5288,484.772,488.5069,space,3.7191,,488.5078,7,78,489.4952,489.4954,493.4934,space,3.9465,,0,1,1,1,1,165,70,,,,,,,,
,,613f59d7f0f631a278aca6e8,65af556978b86183ca316f71,2024-01-23_07h59.44.239,bars,2023.2.3,Win32,59.88023952,657b66ea316d21385b68909f,,,,,,,,,,,493.5286,494.5027,,,494.9932,495.2428,,4,4,,,,,,,,,,,,,,,,bars/002.png,bars/mask001.png,,,,,,,,,,,,0,1,,,,,,,5,7,3,7,,,,,,,,,,,494.5028,494.9931,495.243,503.3185,space,8.0637,,503.3187,54,81,504.3171,504.3172,511.9537,space,7.5869,,0,2,2,2,1,130,85,,,,,,,,
,,613f59d7f0f631a278aca6e8,65af556978b86183ca316f71,2024-01-23_07h59.44.239,bars,2023.2.3,Win32,59.88023952,657b66ea316d21385b68909f,,,,,,,,,,,511.9894,512.9654,,,513.4556,513.7051,,157,157,,,,,,,,,,,,,,,,bars/046.png,bars/mask004.png,,,,,,,,,,,,6,1,,,,,,,7,5,6,6,,,,,,,,,,,512.9655,513.4556,513.7053,516.0051,space,2.2843,,516.0053,2,72,517.0043,517.0046,517.7488,space,0.6986,,0,3,3,3,1,155,85,,,,,,,,
,,613f59d7f0f631a278aca6e8,65af556978b86183ca316f71,2024-01-23_07h59.44.239,bars,2023.2.3,Win32,59.88023952,657b66ea316d21385b68909f,,,,,,,,,,,517.7505,518.7465,,,519.2414,519.4888,,28,28,,,,,,,,,,,,,,,,bars/033.png,bars/mask009.png,,,,,,,,,,,,8,1,,,,,,,9,7,9,7,,,,,,,,,,,518.7466,519.2413,519.4889,521.3894,space,1.8843,,521.3896,3,53,522.3883,522.3885,523.722,space,1.3118,,0,4,4,4,1,25,155,,,,,,,,
,,613f59d7f0f631a278aca6e8,65af556978b86183ca316f71,2024-01-23_07h59.44.239,bars,2023.2.3,Win32,59.88023952,657b66ea316d21385b68909f,,,,,,,,,,,523.723,524.7211,,,525.2213,525.4625,,43,43,,,,,,,,,,,,,,,,bars/007.png,bars/mask002.png,,,,,,,,,,,,3,2,,,,,,,7,5,6,5,,,,,,,,,,,524.7212,525.2213,525.4627,528.0469,space,2.5684,,528.0472,48,12,529.0368,529.0369,531.1132,space,2.0208,,0,5,5,5,1,175,55,,,,,,,,
,,613f59d7f0f631a278aca6e8,65af556978b86183ca316f71,2024-01-23_07h59.44.239,bars,2023.2.3,Win32,59.88023952,657b66ea316d21385b68909f,,,,,,,,,,,531.1151,532.1104,,,532.6111,532.8609,,18,18,,,,,,,,,,,,,,,,bars/018.png,bars/mask008.png,,,,,,,,,,,,0,1,,,,,,,5,3,5,3,,,,,,,,,,,532.1106,532.6109,532.8612,538.0793,space,5.2004,,538.0794,48,72,539.068,539.0681,540.1803,space,1.0532,,0,6,6,6,1,150,90,,,,,,,,
,,613f59d7f0f631a278aca6e8,65af556978b86183ca316f71,2024-01-23_07h59.44.239,bars,2023.2.3,Win32,59.88023952,657b66ea316d21385b68909f,,,,,,,,,,,540.1819,541.1752,,,541.6759,541.925,,109,109,,,,,,,,,,,,,,,,bars/042.png,bars/mask006.png,,,,,,,,,,,,0,2,,,,,,,7,1,7,2,,,,,,,,,,,541.1757,541.6758,541.9253,542.9117,space,0.9705,,542.9123,36,34,543.9082,543.909,546.3849,space,2.4451,,0,7,7,7,1,145,75,,,,,,,,
,,613f59d7f0f631a278aca6e8,65af556978b86183ca316f71,2024-01-23_07h59.44.239,bars,2023.2.3,Win32,59.88023952,657b66ea316d21385b68909f,,,,,,,,,,,546.3858,547.3816,,,547.8734,548.1139,,104,-76,,,,,,,,,,,,,,,,bars/013.png,bars/mask000.png,,,,,,,,,,,,0,1,,,,,,,9,3,9,3,,,,,,,,,,,547.3817,547.8731,548.1141,555.0401,space,6.9143,,555.0403,29,86,556.0384,556.0385,557.0123,space,0.9092,,0,8,8,8,1,75,10,,,,,,,,
,,613f59d7f0f631a278aca6e8,65af556978b86183ca316f71,2024-01-23_07h59.44.239,bars,2023.2.3,Win32,59.88023952,657b66ea316d21385b68909f,,,,,,,,,,,557.0141,558.0117,,,558.505,558.755,,56,-124,,,,,,,,,,,,,,,,bars/040.png,bars/mask007.png,,,,,,,,,,,,0,2,,,,,,,10,5,10,8,,,,,,,,,,,558.0118,558.5047,558.7551,565.6209,space,6.8501,,565.621,84,51,566.6191,566.6195,578.7414,space,12.0606,,0,9,9,9,1,140,5,,,,,,,,
,,613f59d7f0f631a278aca6e8,65af556978b86183ca316f71,2024-01-23_07h59.44.239,bars,2023.2.3,Win32,59.88023952,657b66ea316d21385b68909f,,,,,,,,,,,578.7793,579.7498,,,580.249,580.4998,,35,215,,,,,,,,,,,,,,,,bars/035.png,bars/mask000.png,,,,,,,,,,,,1,2,,,,,,,8,7,7,5,,,,,,,,,,,579.7499,580.2489,580.5,584.5027,space,3.9868,,584.5028,40,25,585.5069,585.507,587.0401,space,1.4832,,0,10,10,10,1,175,60,,,,,,,,
,,613f59d7f0f631a278aca6e8,65af556978b86183ca316f71,2024-01-23_07h59.44.239,bars,2023.2.3,Win32,59.88023952,657b66ea316d21385b68909f,,,,,,,,,,,587.0409,588.0399,,,588.5311,588.7812,,134,134,,,,,,,,,,,,,,,,bars/039.png,bars/mask002.png,,,,,,,,,,,,0,2,,,,,,,10,5,10,5,,,,,,,,,,,588.0399,588.5309,588.7813,592.8208,space,4.0199,,592.8208,41,29,593.8202,593.8203,599.4303,space,5.5656,,0,11,11,11,1,175,105,,,,,,,,
,,613f59d7f0f631a278aca6e8,65af556978b86183ca316f71,2024-01-23_07h59.44.239,bars,2023.2.3,Win32,59.88023952,657b66ea316d21385b68909f,,,,,,,,,,,599.4657,600.4354,,,600.9294,601.1782,,126,126,,,,,,,,,,,,,,,,bars/016.png,bars/mask006.png,,,,,,,,,,,,0,2,,,,,,,10,3,8,2,,,,,,,,,,,600.4355,600.9292,601.1784,607.9348,space,6.7367,,607.935,86,39,608.9333,608.9336,610.9418,space,1.9613,,0,12,12,12,1,40,165,,,,,,,,
,,613f59d7f0f631a278aca6e8,65af556978b86183ca316f71,2024-01-23_07h59.44.239,bars,2023.2.3,Win32,59.88023952,657b66ea316d21385b68909f,,,,,,,,,,,610.9427,611.9425,,,612.443,612.693,,92,92,,,,,,,,,,,,,,,,bars/043.png,bars/mask000.png,,,,,,,,,,,,0,2,,,,,,,8,5,7,5,,,,,,,,,,,611.9426,612.4428,612.6933,618.3754,space,5.6668,,618.3756,62,38,619.3734,619.3736,621.8342,space,2.4124,,0,13,13,13,1,30,130,,,,,,,,
,,613f59d7f0f631a278aca6e8,65af556978b86183ca316f71,2024-01-23_07h59.44.239,bars,2023.2.3,Win32,59.88023952,657b66ea316d21385b68909f,,,,,,,,,,,621.8351,622.8302,,,623.3305,623.5796,,94,94,,,,,,,,,,,,,,,,bars/035.png,bars/mask006.png,,,,,,,,,,,,0,2,,,,,,,10,7,9,6,,,,,,,,,,,622.8304,623.3302,623.5798,630.4306,space,6.8327,,630.4307,81,34,631.4304,631.4305,635.8049,space,4.3181,,0,14,14,14,1,175,60,,,,,,,,
,,613f59d7f0f631a278aca6e8,65af556978b86183ca316f71,2024-01-23_07h59.44.239,bars,2023.2.3,Win32,59.88023952,657b66ea316d21385b68909f,,,,,,,,,,,635.8384,636.8106,,,637.3104,637.5598,,96,96,,,,,,,,,,,,,,,,bars/016.png,bars/mask000.png,,,,,,,,,,,,0,1,,,,,,,8,9,9,10,,,,,,,,,,,636.8106,637.3104,637.56,643.0428,space,5.4672,,643.0428,56,69,644.0424,644.0426,659.1502,space,15.0501,,0,15,15,15,1,40,165,,,,,,,,
,,613f59d7f0f631a278aca6e8,65af556978b86183ca316f71,2024-01-23_07h59.44.239,bars,2023.2.3,Win32,59.88023952,657b66ea316d21385b68909f,,,,,,,,,,,659.1885,660.165,,,660.6648,660.9147,,149,149,,,,,,,,,,,,,,,,bars/002.png,bars/mask004.png,,,,,,,,,,,,2,1,,,,,,,6,10,6,10,,,,,,,,,,,660.1651,660.6648,660.9148,682.6109,space,21.6809,,682.6109,19,64,683.6089,683.609,719.32,space,35.6928,,0,16,16,16,1,130,85,,,,,,,,
,,613f59d7f0f631a278aca6e8,65af556978b86183ca316f71,2024-01-23_07h59.44.239,bars,2023.2.3,Win32,59.88023952,657b66ea316d21385b68909f,,,,,,,,,,,719.3496,720.3341,,,720.8343,721.0843,,114,114,,,,,,,,,,,,,,,,bars/022.png,bars/mask000.png,,,,,,,,,,,,3,1,,,,,,,8,10,8,8,,,,,,,,,,,720.3343,720.834,721.0845,735.3007,space,14.2003,,735.3009,19,86,736.3039,736.304,740.8546,space,4.5056,,0,17,17,17,1,95,20,,,,,,,,
,,613f59d7f0f631a278aca6e8,65af556978b86183ca316f71,2024-01-23_07h59.44.239,bars,2023.2.3,Win32,59.88023952,657b66ea316d21385b68909f,,,,,,,,,,,740.8863,741.8699,,,742.3627,742.6125,,95,95,,,,,,,,,,,,,,,,bars/044.png,bars/mask006.png,,,,,,,,,,,,3,1,,,,,,,10,10,10,10,,,,,,,,,,,741.8699,742.3625,742.6125,750.4632,space,7.8334,,750.4635,20,60,751.4605,751.4606,757.3953,space,5.8805,,0,18,18,18,1,75,155,,,,,,,,
,,613f59d7f0f631a278aca6e8,65af556978b86183ca316f71,2024-01-23_07h59.44.239,bars,2023.2.3,Win32,59.88023952,657b66ea316d21385b68909f,,,,,,,,,,,757.4322,758.3996,,,758.8996,759.1493,,73,73,,,,,,,,,,,,,,,,bars/042.png,bars/mask002.png,,,,,,,,,,,,9,2,,,,,,,8,10,8,10,,,,,,,,,,,758.3999,758.8996,759.1494,763.3652,space,4.2008,,763.3653,72,2,764.3644,764.3645,769.6813,space,5.2592,,0,19,19,19,1,145,75,,,,,,,,
,,613f59d7f0f631a278aca6e8,65af556978b86183ca316f71,2024-01-23_07h59.44.239,bars,2023.2.3,Win32,59.88023952,657b66ea316d21385b68909f,,,,,,,,,,,769.7127,770.6962,,,771.1891,771.4387,,66,66,,,,,,,,,,,,,,,,bars/008.png,bars/mask008.png,,,,,,,,,,,,0,1,,,,,,,6,10,6,10,,,,,,,,,,,770.6963,771.1889,771.4389,780.296,space,8.8409,,780.2961,44,66,781.2953,781.2954,918.3598,space,137.0116,,0,20,20,20,1,110,0,,,,,,,,
,,613f59d7f0f631a278aca6e8,65af556978b86183ca316f71,2024-01-23_07h59.44.239,bars,2023.2.3,Win32,59.88023952,657b66ea316d21385b68909f,,,,,,,,,,,918.4071,919.3627,,,919.8627,920.1145,,34,214,,,,,,,,,,,,,,,,bars/023.png,bars/mask003.png,,,,,,,,,,,,5,1,,,,,,,8,10,10,10,,,,,,,,,,,919.3629,919.8627,920.1147,924.3804,space,4.2511,,924.3807,14,81,925.3774,925.3775,935.7271,space,10.3173,,0,21,21,21,1,20,115,,,,,,,,
,,613f59d7f0f631a278aca6e8,65af556978b86183ca316f71,2024-01-23_07h59.44.239,bars,2023.2.3,Win32,59.88023952,657b66ea316d21385b68909f,,,,,,,,,,,935.7626,936.7343,,,937.225,937.4749,,24,24,,,,,,,,,,,,,,,,bars/036.png,bars/mask000.png,,,,,,,,,,,,7,2,,,,,,,6,8,8,8,,,,,,,,,,,936.7345,937.2248,937.475,947.1564,space,9.6665,,947.1564,59,4,948.1549,948.1549,1058.2895,space,110.1057,,0,22,22,22,1,145,20,,,,,,,,
,,613f59d7f0f631a278aca6e8,65af556978b86183ca316f71,2024-01-23_07h59.44.239,bars,2023.2.3,Win32,59.88023952,657b66ea316d21385b68909f,,,,,,,,,,,1058.3324,1059.2899,,,1059.7904,1060.04,,23,203,,,,,,,,,,,,,,,,bars/044.png,bars/mask002.png,,,,,,,,,,,,0,2,,,,,,,8,10,7,9,,,,,,,,,,,1059.29,1059.7902,1060.0402,1071.0598,space,11.0027,,1071.0602,52,48,1072.0606,1072.0608,1076.6268,space,4.5125,,0,23,23,23,1,75,155,,,,,,,,
,,613f59d7f0f631a278aca6e8,65af556978b86183ca316f71,2024-01-23_07h59.44.239,bars,2023.2.3,Win32,59.88023952,657b66ea316d21385b68909f,,,,,,,,,,,1076.6595,1077.6359,,,1078.1265,1078.3758,,152,152,,,,,,,,,,,,,,,,bars/017.png,bars/mask008.png,,,,,,,,,,,,5,1,,,,,,,6,10,7,10,,,,,,,,,,,1077.6359,1078.1263,1078.3759,1084.5924,space,6.2007,,1084.5925,7,73,1085.5908,1085.5909,1098.1383,space,12.4926,,0,24,24,24,1,145,45,,,,,,,,
,,613f59d7f0f631a278aca6e8,65af556978b86183ca316f71,2024-01-23_07h59.44.239,bars,2023.2.3,Win32,59.88023952,657b66ea316d21385b68909f,,,,,,,,,,,1098.1769,1099.1399,,,1099.6376,1099.8809,,162,162,,,,,,,,,,,,,,,,bars/032.png,bars/mask009.png,,,,,,,,,,,,0,1,,,,,,,4,8,4,8,,,,,,,,,,,1099.14,1099.6374,1099.8811,1101.1023,space,1.2038,,1101.1032,37,38,1102.1039,1102.1041,1106.8312,space,4.7081,,0,25,25,25,1,125,20,,,,,,,,
,,613f59d7f0f631a278aca6e8,65af556978b86183ca316f71,2024-01-23_07h59.44.239,bars,2023.2.3,Win32,59.88023952,657b66ea316d21385b68909f,,,,,,,,,,,1106.8639,1107.8357,,,1108.3361,1108.5862,,123,-57,,,,,,,,,,,,,,,,bars/040.png,bars/mask004.png,,,,,,,,,,,,1,1,,,,,,,2,10,3,10,,,,,,,,,,,1107.8358,1108.3359,1108.5866,1117.5671,space,8.9664,,1117.5673,17,62,1118.5665,1118.5666,1124.3824,space,5.765,,0,26,26,26,1,140,5,,,,,,,,
,,613f59d7f0f631a278aca6e8,65af556978b86183ca316f71,2024-01-23_07h59.44.239,bars,2023.2.3,Win32,59.88023952,657b66ea316d21385b68909f,,,,,,,,,,,1124.4184,1125.3923,,,1125.8818,1126.1245,,3,183,,,,,,,,,,,,,,,,bars/018.png,bars/mask007.png,,,,,,,,,,,,0,1,,,,,,,0,8,0,9,,,,,,,,,,,1125.3925,1125.8817,1126.1246,1133.6923,space,7.5517,,1133.6924,33,87,1134.6815,1134.6816,1138.7634,space,4.0243,,0,27,27,27,1,150,90,,,,,,,,
,,613f59d7f0f631a278aca6e8,65af556978b86183ca316f71,2024-01-23_07h59.44.239,bars,2023.2.3,Win32,59.88023952,657b66ea316d21385b68909f,,,,,,,,,,,1138.7985,1139.7717,,,1140.2619,1140.5116,,153,-27,,,,,,,,,,,,,,,,bars/007.png,bars/mask008.png,,,,,,,,,,,,0,1,,,,,,,0,10,0,10,,,,,,,,,,,1139.7717,1140.2617,1140.5118,1146.2443,space,5.7178,,1146.2444,22,82,1147.2434,1147.2436,1156.6419,space,9.3449,,0,28,28,28,1,175,55,,,,,,,,
,,613f59d7f0f631a278aca6e8,65af556978b86183ca316f71,2024-01-23_07h59.44.239,bars,2023.2.3,Win32,59.88023952,657b66ea316d21385b68909f,,,,,,,,,,,1156.6808,1157.6507,,,1158.1507,1158.4007,,171,-9,,,,,,,,,,,,,,,,bars/049.png,bars/mask009.png,,,,,,,,,,,,1,1,,,,,,,2,10,2,9,,,,,,,,,,,1157.6509,1158.1506,1158.4008,1162.301,space,3.8844,,1162.301,11,56,1163.2997,1163.3001,1166.61,space,3.2486,,0,29,29,29,1,160,115,,,,,,,,
,,613f59d7f0f631a278aca6e8,65af556978b86183ca316f71,2024-01-23_07h59.44.239,bars,2023.2.3,Win32,59.88023952,657b66ea316d21385b68909f,,,,,,,,,,,1166.611,1167.6102,,,1168.0998,1168.3391,,158,-22,,,,,,,,,,,,,,,,bars/033.png,bars/mask005.png,,,,,,,,,,,,7,2,,,,,,,0,8,0,8,,,,,,,,,,,1167.6102,1168.0995,1168.3392,1172.2722,space,3.9166,,1172.2724,47,3,1173.2706,1173.2708,1177.5213,space,4.1975,,0,30,30,30,1,25,155,,,,,,,,
,,613f59d7f0f631a278aca6e8,65af556978b86183ca316f71,2024-01-23_07h59.44.239,bars,2023.2.3,Win32,59.88023952,657b66ea316d21385b68909f,,,,,,,,,,,1177.5643,1178.5364,,,1179.0375,1179.2862,,153,-27,,,,,,,,,,,,,,,,bars/025.png,bars/mask004.png,,,,,,,,,,,,0,1,,,,,,,2,10,3,9,,,,,,,,,,,1178.5365,1179.0375,1179.2863,1190.8766,space,11.5777,,1190.8766,48,67,1191.8757,1191.8758,1195.9827,space,4.0785,,0,31,31,31,1,105,40,,,,,,,,
,,613f59d7f0f631a278aca6e8,65af556978b86183ca316f71,2024-01-23_07h59.44.239,bars,2023.2.3,Win32,59.88023952,657b66ea316d21385b68909f,,,,,,,,,,,1196.0189,1196.9922,,,1197.4824,1197.7363,,108,-72,,,,,,,,,,,,,,,,bars/019.png,bars/mask005.png,,,,,,,,,,,,9,2,,,,,,,4,10,3,10,,,,,,,,,,,1196.9922,1197.4822,1197.7364,1207.3409,space,9.5954,,1207.3409,63,3,1208.3381,1208.3382,1212.4454,space,4.0797,,0,32,32,32,1,45,105,,,,,,,,
,,613f59d7f0f631a278aca6e8,65af556978b86183ca316f71,2024-01-23_07h59.44.239,bars,2023.2.3,Win32,59.88023952,657b66ea316d21385b68909f,,,,,,,,,,,1212.482,1213.4549,,,1213.9549,1214.1951,,106,-74,,,,,,,,,,,,,,,,bars/044.png,bars/mask001.png,,,,,,,,,,,,0,1,,,,,,,2,10,4,10,,,,,,,,,,,1213.455,1213.9547,1214.1952,1222.7702,space,8.5632,,1222.7703,31,49,1223.7596,1223.7598,1229.343,space,5.5165,,0,33,33,33,1,75,155,,,,,,,,
,,613f59d7f0f631a278aca6e8,65af556978b86183ca316f71,2024-01-23_07h59.44.239,bars,2023.2.3,Win32,59.88023952,657b66ea316d21385b68909f,,,,,,,,,,,1229.3724,1230.3579,,,1230.8511,1231.1006,,73,73,,,,,,,,,,,,,,,,bars/001.png,bars/mask008.png,,,,,,,,,,,,5,2,,,,,,,0,8,0,8,,,,,,,,,,,1230.358,1230.8509,1231.1008,1239.8662,space,8.7496,,1239.8663,57,12,1240.8644,1240.8645,1245.3712,space,4.4553,,0,34,34,34,1,130,85,,,,,,,,
,,613f59d7f0f631a278aca6e8,65af556978b86183ca316f71,2024-01-23_07h59.44.239,bars,2023.2.3,Win32,59.88023952,657b66ea316d21385b68909f,,,,,,,,,,,1245.4075,1246.3807,,,1246.8808,1247.1304,,81,261,,,,,,,,,,,,,,,,bars/025.png,bars/mask009.png,,,,,,,,,,,,0,1,,,,,,,2,6,2,6,,,,,,,,,,,1246.3809,1246.8806,1247.1306,1257.7122,space,10.5658,,1257.7123,24,41,1258.7106,1258.7107,1364.1381,space,105.3797,,0,35,35,35,1,105,40,,,,,,,,
,,613f59d7f0f631a278aca6e8,65af556978b86183ca316f71,2024-01-23_07h59.44.239,bars,2023.2.3,Win32,59.88023952,657b66ea316d21385b68909f,,,,,,,,,,,1364.173,1365.1434,,,1365.6434,1365.8934,,111,111,,,,,,,,,,,,,,,,bars/036.png,bars/mask006.png,,,,,,,,,,,,0,1,,,,,,,4,4,4,4,,,,,,,,,,,1365.1436,1365.6433,1365.8936,1371.0624,space,5.1555,,1371.0626,34,89,1372.0589,1372.0589,1376.0082,space,3.9068,,0,36,36,36,1,145,20,,,,,,,,
,,613f59d7f0f631a278aca6e8,65af556978b86183ca316f71,2024-01-23_07h59.44.239,bars,2023.2.3,Win32,59.88023952,657b66ea316d21385b68909f,,,,,,,,,,,1376.0414,1377.0163,,,1377.5077,1377.7576,,139,139,,,,,,,,,,,,,,,,bars/004.png,bars/mask001.png,,,,,,,,,,,,4,2,,,,,,,2,6,3,8,,,,,,,,,,,1377.0164,1377.5075,1377.7577,1384.8078,space,7.0383,,1384.8083,66,14,1385.806,1385.8063,1387.3682,space,1.5035,,0,37,37,37,1,25,125,,,,,,,,
,,613f59d7f0f631a278aca6e8,65af556978b86183ca316f71,2024-01-23_07h59.44.239,bars,2023.2.3,Win32,59.88023952,657b66ea316d21385b68909f,,,,,,,,,,,1387.3701,1388.3647,,,1388.865,1389.1144,,129,129,,,,,,,,,,,,,,,,bars/017.png,bars/mask008.png,,,,,,,,,,,,2,1,,,,,,,4,8,4,7,,,,,,,,,,,1388.3648,1388.8649,1389.1144,1393.9539,space,4.8203,,1393.9541,16,84,1394.9532,1394.9533,1398.6531,space,3.6466,,0,38,38,38,1,145,45,,,,,,,,
,,613f59d7f0f631a278aca6e8,65af556978b86183ca316f71,2024-01-23_07h59.44.239,bars,2023.2.3,Win32,59.88023952,657b66ea316d21385b68909f,,,,,,,,,,,1398.6869,1399.6618,,,1400.1526,1400.4036,,146,146,,,,,,,,,,,,,,,,bars/002.png,bars/mask002.png,,,,,,,,,,,,2,1,,,,,,,6,10,5,10,,,,,,,,,,,1399.6619,1400.1524,1400.4037,1408.3692,space,7.9502,,1408.3693,16,61,1409.3682,1409.3683,1413.1996,space,3.7801,,0,39,39,39,1,130,85,,,,,,,,
,,613f59d7f0f631a278aca6e8,65af556978b86183ca316f71,2024-01-23_07h59.44.239,bars,2023.2.3,Win32,59.88023952,657b66ea316d21385b68909f,,,,,,,,,,,1413.2006,1414.1985,,,1414.692,1414.9419,,129,129,,,,,,,,,,,,,,,,bars/026.png,bars/mask004.png,,,,,,,,,,,,0,2,,,,,,,8,8,6,8,,,,,,,,,,,1414.1986,1414.6918,1414.942,1420.5582,space,5.6005,,1420.5583,86,44,1421.5568,1421.557,1428.7357,space,7.1219,,0,40,40,40,1,35,85,,,,,,,,
,,613f59d7f0f631a278aca6e8,65af556978b86183ca316f71,2024-01-23_07h59.44.239,bars,2023.2.3,Win32,59.88023952,657b66ea316d21385b68909f,,,,,,,,,,,1428.766,1429.738,,,1430.2384,1430.488,,86,86,,,,,,,,,,,,,,,,bars/049.png,bars/mask008.png,,,,,,,,,,,,0,2,,,,,,,6,6,5,6,,,,,,,,,,,1429.7381,1430.2383,1430.4882,1437.1225,space,6.6179,,1437.1227,74,29,1438.1199,1438.12,1451.8545,space,13.6846,,0,41,41,41,1,160,115,,,,,,,,
,,613f59d7f0f631a278aca6e8,65af556978b86183ca316f71,2024-01-23_07h59.44.239,bars,2023.2.3,Win32,59.88023952,657b66ea316d21385b68909f,,,,,,,,,,,1451.8878,1452.8568,,,1453.3568,1453.6062,,127,-53,,,,,,,,,,,,,,,,bars/017.png,bars/mask008.png,,,,,,,,,,,,2,1,,,,,,,4,8,6,7,,,,,,,,,,,1452.8569,1453.3566,1453.6062,1460.7887,space,7.1673,,1460.7888,18,82,1461.7884,1461.7885,1466.1708,space,4.325,,0,42,42,42,1,145,45,,,,,,,,
,,613f59d7f0f631a278aca6e8,65af556978b86183ca316f71,2024-01-23_07h59.44.239,bars,2023.2.3,Win32,59.88023952,657b66ea316d21385b68909f,,,,,,,,,,,1466.2045,1467.18,,,1467.6705,1467.9201,,147,147,,,,,,,,,,,,,,,,bars/023.png,bars/mask001.png,,,,,,,,,,,,0,2,,,,,,,6,10,5,9,,,,,,,,,,,1467.1802,1467.6703,1467.9202,1470.6043,space,2.6673,,1470.6045,53,32,1471.6031,1471.6034,1476.3293,space,4.6689,,0,43,43,43,1,20,115,,,,,,,,
,,613f59d7f0f631a278aca6e8,65af556978b86183ca316f71,2024-01-23_07h59.44.239,bars,2023.2.3,Win32,59.88023952,657b66ea316d21385b68909f,,,,,,,,,,,1476.365,1477.3346,,,1477.8284,1478.0677,,112,112,,,,,,,,,,,,,,,,bars/016.png,bars/mask007.png,,,,,,,,,,,,0,2,,,,,,,4,8,4,6,,,,,,,,,,,1477.3349,1477.8283,1478.0678,1479.218,space,1.1351,,1479.2184,72,53,1480.2174,1480.2176,1485.783,space,5.5125,,0,44,44,44,1,40,165,,,,,,,,
,,613f59d7f0f631a278aca6e8,65af556978b86183ca316f71,2024-01-23_07h59.44.239,bars,2023.2.3,Win32,59.88023952,657b66ea316d21385b68909f,,,,,,,,,,,1485.8155,1486.7991,,,1487.2991,1487.5488,,157,-23,,,,,,,,,,,,,,,,bars/018.png,bars/mask006.png,,,,,,,,,,,,5,1,,,,,,,6,10,6,8,,,,,,,,,,,1486.7992,1487.2989,1487.5489,1492.0152,space,4.4538,,1492.0153,7,67,1493.0142,1493.0142,1497.3609,space,4.2982,,0,45,45,45,1,150,90,,,,,,,,
,,613f59d7f0f631a278aca6e8,65af556978b86183ca316f71,2024-01-23_07h59.44.239,bars,2023.2.3,Win32,59.88023952,657b66ea316d21385b68909f,,,,,,,,,,,1497.4018,1498.365,,,1498.8651,1499.1151,,145,145,,,,,,,,,,,,,,,,bars/040.png,bars/mask008.png,,,,,,,,,,,,8,1,,,,,,,8,10,9,10,,,,,,,,,,,1498.3651,1498.8649,1499.1151,1504.6635,space,5.5331,,1504.6636,5,40,1505.6628,1505.6629,1509.194,space,3.4816,,0,46,46,46,1,140,5,,,,,,,,
,,613f59d7f0f631a278aca6e8,65af556978b86183ca316f71,2024-01-23_07h59.44.239,bars,2023.2.3,Win32,59.88023952,657b66ea316d21385b68909f,,,,,,,,,,,1509.222,1510.2103,,,1510.7029,1510.9534,,144,144,,,,,,,,,,,,,,,,bars/009.png,bars/mask008.png,,,,,,,,,,,,0,2,,,,,,,10,8,10,8,,,,,,,,,,,1510.2104,1510.7029,1510.9534,1517.5037,space,6.534,,1517.5038,51,39,1518.5008,1518.5008,1521.697,space,3.1331,,0,47,47,47,1,15,105,,,,,,,,
,,613f59d7f0f631a278aca6e8,65af556978b86183ca316f71,2024-01-23_07h59.44.239,bars,2023.2.3,Win32,59.88023952,657b66ea316d21385b68909f,,,,,,,,,,,1521.6978,1522.6908,,,1523.1842,1523.4338,,106,106,,,,,,,,,,,,,,,,bars/038.png,bars/mask006.png,,,,,,,,,,,,0,2,,,,,,,10,6,10,7,,,,,,,,,,,1522.6908,1523.1841,1523.4339,1531.6444,space,8.1942,,1531.6444,59,36,1532.6383,1532.6385,1538.3652,space,5.6729,,0,48,48,48,1,165,70,,,,,,,,
,,613f59d7f0f631a278aca6e8,65af556978b86183ca316f71,2024-01-23_07h59.44.239,bars,2023.2.3,Win32,59.88023952,657b66ea316d21385b68909f,,,,,,,,,,,1538.4033,1539.3801,,,1539.8803,1540.13,,70,70,,,,,,,,,,,,,,,,bars/041.png,bars/mask004.png,,,,,,,,,,,,4,2,,,,,,,8,8,8,7,,,,,,,,,,,1539.3802,1539.8801,1540.13,1549.8122,space,9.6662,,1549.8124,50,15,1550.8108,1550.8108,1558.394,space,7.5274,,0,49,49,49,1,20,85,,,,,,,,
,,613f59d7f0f631a278aca6e8,65af556978b86183ca316f71,2024-01-23_07h59.44.239,bars,2023.2.3,Win32,59.88023952,657b66ea316d21385b68909f,,,,,,,,,,,,,,,,,,,,,,,,,,,,,,,,,,,,,,,,,,,,,,,,,,,,,,,,,,,,,,,,,,,,,,,,,,,,,,,,,,,,,,,,,,,,,1558.4272,1618.397,0,0,0,0,1,sequence_tables/blk032.csv
,,613f59d7f0f631a278aca6e8,65af556978b86183ca316f71,2024-01-23_07h59.44.239,bars,2023.2.3,Win32,59.88023952,657b66ea316d21385b68909f,,,,,,,,,,,1621.6695,1622.6609,,,1623.1606,1623.4123,,97,97,,,,,,,,,,,,,,,,bars/004.png,bars/mask002.png,,,,,,,,,,,,0,2,,,,,,,8,4,8,5,,,,,,1618.4275,1621.6515,space,3.2127,,1622.661,1623.1606,1623.4124,1633.2353,space,9.8083,,1633.2353,72,28,1634.2335,1634.2335,1634.2681,,,,0,0,0,0,1,25,125,,,,,,,,
,,613f59d7f0f631a278aca6e8,65af556978b86183ca316f71,2024-01-23_07h59.44.239,bars,2023.2.3,Win32,59.88023952,657b66ea316d21385b68909f,,,,,,,,,,,1634.2687,1635.2584,,,1635.7473,1635.9864,,143,143,,,,,,,,,,,,,,,,bars/013.png,bars/mask008.png,,,,,,,,,,,,0,2,,,,,,,10,6,10,8,,,,,,,,,,,1635.2586,1635.7472,1635.9864,1700.7781,space,64.7831,,1700.7782,68,47,1701.776,1701.7761,1701.8121,,,,0,1,1,1,1,75,10,,,,,,,,
,,613f59d7f0f631a278aca6e8,65af556978b86183ca316f71,2024-01-23_07h59.44.239,bars,2023.2.3,Win32,59.88023952,657b66ea316d21385b68909f,,,,,,,,,,,1701.8129,1702.816,,,1703.3096,1703.5508,,107,107,,,,,,,,,,,,,,,,bars/015.png,bars/mask009.png,,,,,,,,,,,,9,1,,,,,,,10,4,10,5,,,,,,,,,,,1702.8161,1703.3093,1703.551,1707.0006,space,3.4342,,1707.0007,3,53,1708.0004,1708.0005,1708.0463,,,,0,2,2,2,1,110,160,,,,,,,,
,,613f59d7f0f631a278aca6e8,65af556978b86183ca316f71,2024-01-23_07h59.44.239,bars,2023.2.3,Win32,59.88023952,657b66ea316d21385b68909f,,,,,,,,,,,1708.048,1709.0418,,,1709.5415,1709.7914,,3,3,,,,,,,,,,,,,,,,bars/024.png,bars/mask001.png,,,,,,,,,,,,3,2,,,,,,,8,6,8,5,,,,,,,,,,,1709.0419,1709.5414,1709.7917,1711.2291,space,1.4214,,1711.2294,63,13,1712.2308,1712.2309,1712.276,,,,0,3,3,3,1,120,170,,,,,,,,
,,613f59d7f0f631a278aca6e8,65af556978b86183ca316f71,2024-01-23_07h59.44.239,bars,2023.2.3,Win32,59.88023952,657b66ea316d21385b68909f,,,,,,,,,,,1712.277,1713.2806,,,1713.7811,1714.0235,,126,126,,,,,,,,,,,,,,,,bars/002.png,bars/mask003.png,,,,,,,,,,,,9,1,,,,,,,10,8,10,9,,,,,,,,,,,1713.2807,1713.781,1714.0237,1714.925,space,0.8853,,1714.925,4,41,1715.9151,1715.9152,1715.9555,,,,0,4,4,4,1,130,85,,,,,,,,
,,613f59d7f0f631a278aca6e8,65af556978b86183ca316f71,2024-01-23_07h59.44.239,bars,2023.2.3,Win32,59.88023952,657b66ea316d21385b68909f,,,,,,,,,,,1715.9563,1716.9463,,,1717.4464,1717.6891,,102,102,,,,,,,,,,,,,,,,bars/025.png,bars/mask005.png,,,,,,,,,,,,7,1,,,,,,,8,10,8,10,,,,,,,,,,,1716.9465,1717.4463,1717.6894,1720.8235,space,3.1181,,1720.8236,3,62,1721.8138,1721.8138,1721.8507,,,,0,5,5,5,1,105,40,,,,,,,,
,,613f59d7f0f631a278aca6e8,65af556978b86183ca316f71,2024-01-23_07h59.44.239,bars,2023.2.3,Win32,59.88023952,657b66ea316d21385b68909f,,,,,,,,,,,1721.8513,1722.855,,,1723.345,1723.595,,56,56,,,,,,,,,,,,,,,,bars/007.png,bars/mask002.png,,,,,,,,,,,,10,2,,,,,,,10,10,10,10,,,,,,,,,,,1722.8553,1723.3449,1723.5951,1731.3612,space,7.7478,,1731.3613,61,1,1732.3594,1732.3595,1732.3932,,,,0,6,6,6,1,175,55,,,,,,,,
,,613f59d7f0f631a278aca6e8,65af556978b86183ca316f71,2024-01-23_07h59.44.239,bars,2023.2.3,Win32,59.88023952,657b66ea316d21385b68909f,,,,,,,,,,,1732.3935,1733.3925,,,1733.8927,1734.1423,,96,96,,,,,,,,,,,,,,,,bars/016.png,bars/mask007.png,,,,,,,,,,,,0,1,,,,,,,8,10,7,10,,,,,,,,,,,1733.3925,1733.8927,1734.1425,1734.3093,space,0.1528,,1734.3093,56,69,1735.3088,1735.309,1735.3146,,,,0,7,7,7,1,40,165,,,,,,,,
,,613f59d7f0f631a278aca6e8,65af556978b86183ca316f71,2024-01-23_07h59.44.239,bars,2023.2.3,Win32,59.88023952,657b66ea316d21385b68909f,,,,,,,,,,,1735.3153,1736.3085,,,1736.8086,1737.0583,,85,85,,,,,,,,,,,,,,,,bars/018.png,bars/mask008.png,,,,,,,,,,,,8,2,,,,,,,6,10,6,10,,,,,,,,,,,1736.3085,1736.8083,1737.0585,1737.6252,space,0.5506,,1737.6253,65,5,1738.6246,1738.6247,1738.6305,,,,0,8,8,8,1,150,90,,,,,,,,
,,613f59d7f0f631a278aca6e8,65af556978b86183ca316f71,2024-01-23_07h59.44.239,bars,2023.2.3,Win32,59.88023952,657b66ea316d21385b68909f,,,,,,,,,,,1738.6312,1739.6243,,,1740.1246,1740.3742,,30,30,,,,,,,,,,,,,,,,bars/019.png,bars/mask003.png,,,,,,,,,,,,4,1,,,,,,,8,8,8,8,,,,,,,,,,,1739.6244,1740.1246,1740.3744,1741.1576,space,0.7684,,1741.1587,15,75,1742.1567,1742.1569,1742.162,,,,0,9,9,9,1,45,105,,,,,,,,
,,613f59d7f0f631a278aca6e8,65af556978b86183ca316f71,2024-01-23_07h59.44.239,bars,2023.2.3,Win32,59.88023952,657b66ea316d21385b68909f,,,,,,,,,,,1742.1627,1743.1572,,,1743.6569,1743.9068,,98,98,,,,,,,,,,,,,,,,bars/024.png,bars/mask000.png,,,,,,,,,,,,1,1,,,,,,,6,10,4,10,,,,,,,,,,,1743.1573,1743.6568,1743.907,1744.0244,space,0.1001,,1744.0244,22,72,1745.0228,1745.0229,1745.0263,,,,0,10,10,10,1,120,170,,,,,,,,
,,613f59d7f0f631a278aca6e8,65af556978b86183ca316f71,2024-01-23_07h59.44.239,bars,2023.2.3,Win32,59.88023952,657b66ea316d21385b68909f,,,,,,,,,,,1745.027,1746.0229,,,1746.516,1746.7664,,68,68,,,,,,,,,,,,,,,,bars/020.png,bars/mask005.png,,,,,,,,,,,,0,1,,,,,,,4,8,3,10,,,,,,,,,,,1746.0229,1746.5158,1746.7665,1747.8002,space,1.0184,,1747.8002,47,78,1748.7889,1748.7891,1748.7927,,,,0,11,11,11,1,115,170,,,,,,,,
,,613f59d7f0f631a278aca6e8,65af556978b86183ca316f71,2024-01-23_07h59.44.239,bars,2023.2.3,Win32,59.88023952,657b66ea316d21385b68909f,,,,,,,,,,,1748.7935,1749.7887,,,1750.289,1750.5321,,86,86,,,,,,,,,,,,,,,,bars/007.png,bars/mask006.png,,,,,,,,,,,,0,2,,,,,,,6,6,6,5,,,,,,,,,,,1749.7888,1750.289,1750.5322,1751.8544,space,1.3058,,1751.8545,89,31,1752.848,1752.8481,1752.8893,,,,0,12,12,12,1,175,55,,,,,,,,
,,613f59d7f0f631a278aca6e8,65af556978b86183ca316f71,2024-01-23_07h59.44.239,bars,2023.2.3,Win32,59.88023952,657b66ea316d21385b68909f,,,,,,,,,,,1752.8902,1753.8807,,,1754.3718,1754.6213,,29,29,,,,,,,,,,,,,,,,bars/011.png,bars/mask006.png,,,,,,,,,,,,0,1,,,,,,,8,8,7,7,,,,,,,,,,,1753.8809,1754.3716,1754.6214,1756.4921,space,1.8582,,1756.4926,49,56,1757.4869,1757.4871,1757.5242,,,,0,13,13,13,1,160,85,,,,,,,,
,,613f59d7f0f631a278aca6e8,65af556978b86183ca316f71,2024-01-23_07h59.44.239,bars,2023.2.3,Win32,59.88023952,657b66ea316d21385b68909f,,,,,,,,,,,1757.5251,1758.5142,,,1759.0129,1759.2628,,151,151,,,,,,,,,,,,,,,,bars/011.png,bars/mask007.png,,,,,,,,,,,,4,1,,,,,,,6,10,6,10,,,,,,,,,,,1758.5143,1759.0127,1759.2631,1762.5135,space,3.2345,,1762.5136,9,66,1763.512,1763.5121,1763.545,,,,0,14,14,14,1,160,85,,,,,,,,
,,613f59d7f0f631a278aca6e8,65af556978b86183ca316f71,2024-01-23_07h59.44.239,bars,2023.2.3,Win32,59.88023952,657b66ea316d21385b68909f,,,,,,,,,,,1763.5457,1764.5355,,,1765.0285,1765.2787,,46,46,,,,,,,,,,,,,,,,bars/029.png,bars/mask000.png,,,,,,,,,,,,10,2,,,,,,,4,10,5,10,,,,,,,,,,,1764.5355,1765.0284,1765.2789,1789.5574,space,24.263,,1789.5575,44,1,1790.5558,1790.5558,1790.594,,,,0,15,15,15,1,90,45,,,,,,,,
,,613f59d7f0f631a278aca6e8,65af556978b86183ca316f71,2024-01-23_07h59.44.239,bars,2023.2.3,Win32,59.88023952,657b66ea316d21385b68909f,,,,,,,,,,,1790.5954,1791.5896,,,1792.0791,1792.3289,,168,168,,,,,,,,,,,,,,,,bars/000.png,bars/mask003.png,,,,,,,,,,,,2,2,,,,,,,2,8,3,7,,,,,,,,,,,1791.5897,1792.0789,1792.3291,1795.0128,space,2.6682,,1795.013,52,23,1796.0117,1796.0119,1796.0449,,,,0,16,16,16,1,40,145,,,,,,,,
,,613f59d7f0f631a278aca6e8,65af556978b86183ca316f71,2024-01-23_07h59.44.239,bars,2023.2.3,Win32,59.88023952,657b66ea316d21385b68909f,,,,,,,,,,,1796.0456,1797.0447,,,1797.5448,1797.7944,,50,50,,,,,,,,,,,,,,,,bars/023.png,bars/mask009.png,,,,,,,,,,,,0,1,,,,,,,4,6,4,7,,,,,,,,,,,1797.0448,1797.5446,1797.7946,1801.1278,space,3.318,,1801.128,30,65,1802.1268,1802.1268,1802.1634,,,,0,17,17,17,1,20,115,,,,,,,,
,,613f59d7f0f631a278aca6e8,65af556978b86183ca316f71,2024-01-23_07h59.44.239,bars,2023.2.3,Win32,59.88023952,657b66ea316d21385b68909f,,,,,,,,,,,1802.164,1803.1527,,,1803.6435,1803.8927,,130,130,,,,,,,,,,,,,,,,bars/036.png,bars/mask006.png,,,,,,,,,,,,3,1,,,,,,,6,4,6,5,,,,,,,,,,,1803.1528,1803.6433,1803.8928,1804.4469,space,0.5366,,1804.4471,15,70,1805.4431,1805.4432,1805.446,,,,0,18,18,18,1,145,20,,,,,,,,
,,613f59d7f0f631a278aca6e8,65af556978b86183ca316f71,2024-01-23_07h59.44.239,bars,2023.2.3,Win32,59.88023952,657b66ea316d21385b68909f,,,,,,,,,,,1805.4467,1806.4426,,,1806.9349,1807.1854,,156,156,,,,,,,,,,,,,,,,bars/048.png,bars/mask006.png,,,,,,,,,,,,1,2,,,,,,,4,2,3,3,,,,,,,,,,,1806.4428,1806.9349,1807.1856,1807.8214,space,0.62,,1807.8215,74,19,1808.8182,1808.8183,1808.8237,,,,0,19,19,19,1,50,175,,,,,,,,
,,613f59d7f0f631a278aca6e8,65af556978b86183ca316f71,2024-01-23_07h59.44.239,bars,2023.2.3,Win32,59.88023952,657b66ea316d21385b68909f,,,,,,,,,,,1808.8249,1809.8187,,,1810.3087,1810.5582,,127,127,,,,,,,,,,,,,,,,bars/021.png,bars/mask007.png,,,,,,,,,,,,0,1,,,,,,,2,0,1,0,,,,,,,,,,,1809.819,1810.3086,1810.5583,1810.6756,space,0.1048,,1810.6757,28,57,1811.6752,1811.6754,1811.6811,,,,0,20,20,20,1,155,70,,,,,,,,
,,613f59d7f0f631a278aca6e8,65af556978b86183ca316f71,2024-01-23_07h59.44.239,bars,2023.2.3,Win32,59.88023952,657b66ea316d21385b68909f,,,,,,,,,,,1811.6821,1812.6743,,,1813.1739,1813.425,,88,88,,,,,,,,,,,,,,,,bars/002.png,bars/mask009.png,,,,,,,,,,,,0,2,,,,,,,4,0,5,0,,,,,,,,,,,1812.6743,1813.1739,1813.4251,1818.3913,space,4.9522,,1818.3914,42,3,1819.3898,1819.3901,1819.4247,,,,0,21,21,21,1,130,85,,,,,,,,
,,613f59d7f0f631a278aca6e8,65af556978b86183ca316f71,2024-01-23_07h59.44.239,bars,2023.2.3,Win32,59.88023952,657b66ea316d21385b68909f,,,,,,,,,,,1819.4251,1820.4154,,,1820.9059,1821.1557,,52,52,,,,,,,,,,,,,,,,bars/008.png,bars/mask005.png,,,,,,,,,,,,0,2,,,,,,,6,0,5,0,,,,,,,,,,,1820.4155,1820.9057,1821.1558,1821.656,space,0.4848,,1821.6563,58,52,1822.6553,1822.6554,1822.6586,,,,0,22,22,22,1,110,0,,,,,,,,
,,613f59d7f0f631a278aca6e8,65af556978b86183ca316f71,2024-01-23_07h59.44.239,bars,2023.2.3,Win32,59.88023952,657b66ea316d21385b68909f,,,,,,,,,,,1822.6594,1823.6553,,,1824.1484,1824.398,,24,24,,,,,,,,,,,,,,,,bars/049.png,bars/mask000.png,,,,,,,,,,,,0,1,,,,,,,8,0,8,0,,,,,,,,,,,1823.6554,1824.1483,1824.3981,1830.5434,space,6.1278,,1830.5435,44,89,1831.539,1831.539,1831.5758,,,,0,23,23,23,1,160,115,,,,,,,,
,,613f59d7f0f631a278aca6e8,65af556978b86183ca316f71,2024-01-23_07h59.44.239,bars,2023.2.3,Win32,59.88023952,657b66ea316d21385b68909f,,,,,,,,,,,1831.5764,1832.5697,,,1833.0701,1833.3196,,105,105,,,,,,,,,,,,,,,,bars/048.png,bars/mask004.png,,,,,,,,,,,,0,1,,,,,,,10,0,10,2,,,,,,,,,,,1832.5699,1833.0701,1833.3198,1834.5537,space,1.2214,,1834.5544,55,70,1835.5524,1835.5525,1835.5553,,,,0,24,24,24,1,50,175,,,,,,,,
,,613f59d7f0f631a278aca6e8,65af556978b86183ca316f71,2024-01-23_07h59.44.239,bars,2023.2.3,Win32,59.88023952,657b66ea316d21385b68909f,,,,,,,,,,,1835.556,1836.5521,,,1837.0521,1837.302,,106,106,,,,,,,,,,,,,,,,bars/016.png,bars/mask007.png,,,,,,,,,,,,0,2,,,,,,,10,2,10,3,,,,,,,,,,,1836.5522,1837.052,1837.3021,1838.6241,space,1.3095,,1838.6242,66,59,1839.618,1839.6181,1839.6563,,,,0,25,25,25,1,40,165,,,,,,,,
,,613f59d7f0f631a278aca6e8,65af556978b86183ca316f71,2024-01-23_07h59.44.239,bars,2023.2.3,Win32,59.88023952,657b66ea316d21385b68909f,,,,,,,,,,,1839.6571,1840.6513,,,1841.1516,1841.4002,,147,147,,,,,,,,,,,,,,,,bars/025.png,bars/mask005.png,,,,,,,,,,,,0,1,,,,,,,8,4,7,3,,,,,,,,,,,1840.6514,1841.1515,1841.4002,1841.9511,space,0.5358,,1841.9512,42,73,1842.9507,1842.9508,1842.9573,,,,0,26,26,26,1,105,40,,,,,,,,
,,613f59d7f0f631a278aca6e8,65af556978b86183ca316f71,2024-01-23_07h59.44.239,bars,2023.2.3,Win32,59.88023952,657b66ea316d21385b68909f,,,,,,,,,,,1842.9586,1843.9507,,,1844.4505,1844.701,,34,34,,,,,,,,,,,,,,,,bars/049.png,bars/mask004.png,,,,,,,,,,,,0,1,,,,,,,6,2,7,2,,,,,,,,,,,1843.9508,1844.4503,1844.7011,1845.7675,space,1.0512,,1845.7677,54,81,1846.7666,1846.7667,1846.7697,,,,0,27,27,27,1,160,115,,,,,,,,
,,613f59d7f0f631a278aca6e8,65af556978b86183ca316f71,2024-01-23_07h59.44.239,bars,2023.2.3,Win32,59.88023952,657b66ea316d21385b68909f,,,,,,,,,,,1846.7705,1847.7663,,,1848.2663,1848.5157,,85,85,,,,,,,,,,,,,,,,bars/038.png,bars/mask005.png,,,,,,,,,,,,1,2,,,,,,,4,0,3,1,,,,,,,,,,,1847.7663,1848.2661,1848.5159,1848.9165,space,0.3858,,1848.9167,80,15,1849.9158,1849.9159,1849.9219,,,,0,28,28,28,1,165,70,,,,,,,,
,,613f59d7f0f631a278aca6e8,65af556978b86183ca316f71,2024-01-23_07h59.44.239,bars,2023.2.3,Win32,59.88023952,657b66ea316d21385b68909f,,,,,,,,,,,1849.9233,1850.9157,,,1851.4156,1851.666,,160,160,,,,,,,,,,,,,,,,bars/020.png,bars/mask008.png,,,,,,,,,,,,1,2,,,,,,,6,2,6,1,,,,,,,,,,,1850.9158,1851.4155,1851.6662,1852.1324,space,0.4514,,1852.1327,45,10,1853.1318,1853.132,1853.1353,,,,0,29,29,29,1,115,170,,,,,,,,
,,613f59d7f0f631a278aca6e8,65af556978b86183ca316f71,2024-01-23_07h59.44.239,bars,2023.2.3,Win32,59.88023952,657b66ea316d21385b68909f,,,,,,,,,,,1853.136,1854.1318,,,1854.6245,1854.8742,,79,79,,,,,,,,,,,,,,,,bars/003.png,bars/mask006.png,,,,,,,,,,,,0,1,,,,,,,4,0,2,1,,,,,,,,,,,1854.1319,1854.6244,1854.8743,1857.7957,space,2.9046,,1857.7958,54,61,1858.7914,1858.7916,1858.8358,,,,0,30,30,30,1,25,140,,,,,,,,
,,613f59d7f0f631a278aca6e8,65af556978b86183ca316f71,2024-01-23_07h59.44.239,bars,2023.2.3,Win32,59.88023952,657b66ea316d21385b68909f,,,,,,,,,,,1858.8366,1859.8324,,,1860.332,1860.5822,,87,87,,,,,,,,,,,,,,,,bars/019.png,bars/mask005.png,,,,,,,,,,,,1,2,,,,,,,2,2,1,3,,,,,,,,,,,1859.8324,1860.332,1860.5823,1868.3055,space,7.7143,,1868.3056,42,18,1869.3043,1869.3043,1869.3104,,,,0,31,31,31,1,45,105,,,,,,,,
,,613f59d7f0f631a278aca6e8,65af556978b86183ca316f71,2024-01-23_07h59.44.239,bars,2023.2.3,Win32,59.88023952,657b66ea316d21385b68909f,,,,,,,,,,,1869.3111,1870.3117,,,1870.8042,1871.0539,,174,174,,,,,,,,,,,,,,,,bars/032.png,bars/mask004.png,,,,,,,,,,,,1,2,,,,,,,4,4,3,4,,,,,,,,,,,1870.3119,1870.8042,1871.054,1877.2692,space,6.1997,,1877.2693,49,26,1878.2685,1878.2687,1878.3069,,,,0,32,32,32,1,125,20,,,,,,,,
,,613f59d7f0f631a278aca6e8,65af556978b86183ca316f71,2024-01-23_07h59.44.239,bars,2023.2.3,Win32,59.88023952,657b66ea316d21385b68909f,,,,,,,,,,,1878.3073,1879.3091,,,1879.8095,1880.0592,,104,104,,,,,,,,,,,,,,,,bars/024.png,bars/mask005.png,,,,,,,,,,,,2,1,,,,,,,6,6,4,4,,,,,,,,,,,1879.3092,1879.8093,1880.0592,1882.7921,space,2.7182,,1882.7931,16,66,1883.7913,1883.7914,1883.8274,,,,0,33,33,33,1,120,170,,,,,,,,
,,613f59d7f0f631a278aca6e8,65af556978b86183ca316f71,2024-01-23_07h59.44.239,bars,2023.2.3,Win32,59.88023952,657b66ea316d21385b68909f,,,,,,,,,,,1883.828,1884.8173,,,1885.3174,1885.5671,,138,138,,,,,,,,,,,,,,,,bars/020.png,bars/mask006.png,,,,,,,,,,,,1,1,,,,,,,4,8,4,8,,,,,,,,,,,1884.8176,1885.3173,1885.5672,1886.3574,space,0.7731,,1886.3576,23,32,1887.3572,1887.3573,1887.3603,,,,0,34,34,34,1,115,170,,,,,,,,
,,613f59d7f0f631a278aca6e8,65af556978b86183ca316f71,2024-01-23_07h59.44.239,bars,2023.2.3,Win32,59.88023952,657b66ea316d21385b68909f,,,,,,,,,,,1887.3613,1888.3571,,,1888.8571,1889.1069,,161,161,,,,,,,,,,,,,,,,bars/013.png,bars/mask004.png,,,,,,,,,,,,0,2,,,,,,,2,10,1,9,,,,,,,,,,,1888.3572,1888.8571,1889.107,1889.7948,space,0.6753,,1889.7949,86,29,1890.7898,1890.7899,1890.7961,,,,0,35,35,35,1,75,10,,,,,,,,
,,613f59d7f0f631a278aca6e8,65af556978b86183ca316f71,2024-01-23_07h59.44.239,bars,2023.2.3,Win32,59.88023952,657b66ea316d21385b68909f,,,,,,,,,,,1890.7973,1891.7895,,,1892.2899,1892.5395,,80,80,,,,,,,,,,,,,,,,bars/033.png,bars/mask000.png,,,,,,,,,,,,0,1,,,,,,,4,8,3,8,,,,,,,,,,,1891.7897,1892.2898,1892.5395,1893.3572,space,0.8029,,1893.3573,55,75,1894.3556,1894.3557,1894.3613,,,,0,36,36,36,1,25,155,,,,,,,,
,,613f59d7f0f631a278aca6e8,65af556978b86183ca316f71,2024-01-23_07h59.44.239,bars,2023.2.3,Win32,59.88023952,657b66ea316d21385b68909f,,,,,,,,,,,1894.3622,1895.3554,,,1895.8488,1896.0984,,71,71,,,,,,,,,,,,,,,,bars/034.png,bars/mask009.png,,,,,,,,,,,,4,2,,,,,,,2,6,2,5,,,,,,,,,,,1895.3556,1895.8486,1896.0984,1904.547,space,8.4327,,1904.5472,54,6,1905.5462,1905.5462,1905.5841,,,,0,37,37,37,1,125,65,,,,,,,,
,,613f59d7f0f631a278aca6e8,65af556978b86183ca316f71,2024-01-23_07h59.44.239,bars,2023.2.3,Win32,59.88023952,657b66ea316d21385b68909f,,,,,,,,,,,1905.5854,1906.5866,,,1907.0863,1907.336,,110,110,,,,,,,,,,,,,,,,bars/018.png,bars/mask002.png,,,,,,,,,,,,3,2,,,,,,,4,8,4,10,,,,,,,,,,,1906.5869,1907.0861,1907.3361,1907.8686,space,0.5159,,1907.8686,40,20,1908.8688,1908.869,1908.872,,,,0,38,38,38,1,150,90,,,,,,,,
,,613f59d7f0f631a278aca6e8,65af556978b86183ca316f71,2024-01-23_07h59.44.239,bars,2023.2.3,Win32,59.88023952,657b66ea316d21385b68909f,,,,,,,,,,,1908.8728,1909.8684,,,1910.3688,1910.6179,,24,24,,,,,,,,,,,,,,,,bars/015.png,bars/mask002.png,,,,,,,,,,,,0,2,,,,,,,2,6,2,5,,,,,,,,,,,1909.8685,1910.3686,1910.6179,1913.2862,space,2.6538,,1913.2862,86,44,1914.2845,1914.2845,1914.3215,,,,0,39,39,39,1,110,160,,,,,,,,
,,613f59d7f0f631a278aca6e8,65af556978b86183ca316f71,2024-01-23_07h59.44.239,bars,2023.2.3,Win32,59.88023952,657b66ea316d21385b68909f,,,,,,,,,,,1914.3224,1915.3113,,,1915.8009,1916.0511,,5,5,,,,,,,,,,,,,,,,bars/046.png,bars/mask001.png,,,,,,,,,,,,0,1,,,,,,,4,8,2,7,,,,,,,,,,,1915.3114,1915.8008,1916.0512,1921.817,space,5.7533,,1921.8172,30,80,1922.8161,1922.8162,1922.8559,,,,0,40,40,40,1,155,85,,,,,,,,
,,613f59d7f0f631a278aca6e8,65af556978b86183ca316f71,2024-01-23_07h59.44.239,bars,2023.2.3,Win32,59.88023952,657b66ea316d21385b68909f,,,,,,,,,,,1922.8569,1923.8506,,,1924.3504,1924.6006,,45,45,,,,,,,,,,,,,,,,bars/041.png,bars/mask004.png,,,,,,,,,,,,1,1,,,,,,,6,10,5,10,,,,,,,,,,,1923.8507,1924.3504,1924.6007,1926.2502,space,1.6352,,1926.2503,25,40,1927.2496,1927.2496,1927.2513,,,,0,41,41,41,1,20,85,,,,,,,,
,,613f59d7f0f631a278aca6e8,65af556978b86183ca316f71,2024-01-23_07h59.44.239,bars,2023.2.3,Win32,59.88023952,657b66ea316d21385b68909f,,,,,,,,,,,1927.2521,1928.2494,,,1928.7495,1928.9993,,41,41,,,,,,,,,,,,,,,,bars/022.png,bars/mask004.png,,,,,,,,,,,,3,2,,,,,,,8,8,8,10,,,,,,,,,,,1928.2495,1928.7494,1928.9993,1935.7622,space,6.7498,,1935.7623,54,21,1936.7623,1936.7624,1936.8012,,,,0,42,42,42,1,95,20,,,,,,,,
,,613f59d7f0f631a278aca6e8,65af556978b86183ca316f71,2024-01-23_07h59.44.239,bars,2023.2.3,Win32,59.88023952,657b66ea316d21385b68909f,,,,,,,,,,,1936.8027,1937.7956,,,1938.2886,1938.5389,,85,85,,,,,,,,,,,,,,,,bars/042.png,bars/mask002.png,,,,,,,,,,,,4,2,,,,,,,10,6,10,6,,,,,,,,,,,1937.7956,1938.2886,1938.539,1938.6401,space,0.0854,,1938.6402,60,10,1939.6376,1939.6377,1939.6404,,,,0,43,43,43,1,145,75,,,,,,,,
,,613f59d7f0f631a278aca6e8,65af556978b86183ca316f71,2024-01-23_07h59.44.239,bars,2023.2.3,Win32,59.88023952,657b66ea316d21385b68909f,,,,,,,,,,,1939.6411,1940.6376,,,1941.1379,1941.3879,,126,126,,,,,,,,,,,,,,,,bars/015.png,bars/mask007.png,,,,,,,,,,,,5,1,,,,,,,8,4,10,5,,,,,,,,,,,1940.6376,1941.1378,1941.388,1945.3574,space,3.9532,,1945.3577,16,34,1946.362,1946.362,1946.398,,,,0,44,44,44,1,110,160,,,,,,,,
,,613f59d7f0f631a278aca6e8,65af556978b86183ca316f71,2024-01-23_07h59.44.239,bars,2023.2.3,Win32,59.88023952,657b66ea316d21385b68909f,,,,,,,,,,,1946.3987,1947.4025,,,1947.8936,1948.1435,,123,123,,,,,,,,,,,,,,,,bars/044.png,bars/mask007.png,,,,,,,,,,,,0,2,,,,,,,6,2,7,2,,,,,,,,,,,1947.4026,1947.8934,1948.1436,1953.3529,space,5.1979,,1953.353,48,32,1954.3514,1954.3514,1954.387,,,,0,45,45,45,1,75,155,,,,,,,,
,,613f59d7f0f631a278aca6e8,65af556978b86183ca316f71,2024-01-23_07h59.44.239,bars,2023.2.3,Win32,59.88023952,657b66ea316d21385b68909f,,,,,,,,,,,1954.3876,1955.3915,,,1955.8849,1956.1347,,92,92,,,,,,,,,,,,,,,,bars/037.png,bars/mask007.png,,,,,,,,,,,,0,2,,,,,,,4,0,5,0,,,,,,,,,,,1955.3915,1955.8848,1956.1347,1958.1067,space,1.9552,,1958.1069,58,13,1959.1004,1959.1005,1959.1344,,,,0,46,46,46,1,150,105,,,,,,,,
,,613f59d7f0f631a278aca6e8,65af556978b86183ca316f71,2024-01-23_07h59.44.239,bars,2023.2.3,Win32,59.88023952,657b66ea316d21385b68909f,,,,,,,,,,,1959.135,1960.1237,,,1960.6236,1960.874,,135,135,,,,,,,,,,,,,,,,bars/044.png,bars/mask005.png,,,,,,,,,,,,1,2,,,,,,,2,2,2,2,,,,,,,,,,,1960.1237,1960.6234,1960.8741,1968.5936,space,7.707,,1968.5937,60,20,1969.589,1969.5891,1969.6278,,,,0,47,47,47,1,75,155,,,,,,,,
,,613f59d7f0f631a278aca6e8,65af556978b86183ca316f71,2024-01-23_07h59.44.239,bars,2023.2.3,Win32,59.88023952,657b66ea316d21385b68909f,,,,,,,,,,,1969.6284,1970.6308,,,1971.1217,1971.3712,,86,86,,,,,,,,,,,,,,,,bars/017.png,bars/mask004.png,,,,,,,,,,,,0,2,,,,,,,0,4,1,5,,,,,,,,,,,1970.6309,1971.1216,1971.3714,1972.3883,space,1.0025,,1972.3884,59,41,1973.3874,1973.3875,1973.3905,,,,0,48,48,48,1,145,45,,,,,,,,
,,613f59d7f0f631a278aca6e8,65af556978b86183ca316f71,2024-01-23_07h59.44.239,bars,2023.2.3,Win32,59.88023952,657b66ea316d21385b68909f,,,,,,,,,,,1973.3912,1974.3875,,,1974.8873,1975.1371,,71,71,,,,,,,,,,,,,,,,bars/029.png,bars/mask004.png,,,,,,,,,,,,1,1,,,,,,,2,2,3,2,,,,,,,,,,,1974.3876,1974.8872,1975.1372,1975.8234,space,0.6687,,1975.8236,19,26,1976.8199,1976.8199,1976.8261,,,,0,49,49,49,1,90,45,,,,,,,,
,,613f59d7f0f631a278aca6e8,65af556978b86183ca316f71,2024-01-23_07h59.44.239,bars,2023.2.3,Win32,59.88023952,657b66ea316d21385b68909f,,,,,,,,,,,,,,,,,,,,,,,,,,,,,,,,,,,,,,,,,,,,,,,,,,,,,,,,,,,,,,,,,,,,,,,,,,,,,,,,,,,,,,,,,,,,,1976.8266,2036.8237,0,1,1,1,1,sequence_tables/blk028.csv
,,613f59d7f0f631a278aca6e8,65af556978b86183ca316f71,2024-01-23_07h59.44.239,bars,2023.2.3,Win32,59.88023952,657b66ea316d21385b68909f,,,,,,,,,,,2095.6367,2096.5928,,,2097.0858,2097.3354,,6,6,,,,,,,,,,,,,,,,bars/047.png,bars/mask008.png,,,,,,,,,,,,1,1,,,,,,,1,6,1,7,,,,,,2036.8568,2095.5869,space,58.7205,,2096.5929,2097.0857,2097.3357,2099.1881,space,1.8349,,2099.1882,9,64,2100.1853,2100.1854,2100.2279,,,,0,0,0,0,1,15,70,,,,,,,,
,,613f59d7f0f631a278aca6e8,65af556978b86183ca316f71,2024-01-23_07h59.44.239,bars,2023.2.3,Win32,59.88023952,657b66ea316d21385b68909f,,,,,,,,,,,2100.2289,2101.2183,,,2101.7183,2101.9683,,117,117,,,,,,,,,,,,,,,,bars/028.png,bars/mask009.png,,,,,,,,,,,,5,2,,,,,,,3,4,2,5,,,,,,,,,,,2101.2183,2101.7181,2101.9684,2104.9378,space,2.9516,,2104.938,72,3,2105.9406,2105.9407,2105.9849,,,,0,1,1,1,1,45,120,,,,,,,,
,,613f59d7f0f631a278aca6e8,65af556978b86183ca316f71,2024-01-23_07h59.44.239,bars,2023.2.3,Win32,59.88023952,657b66ea316d21385b68909f,,,,,,,,,,,2105.9857,2106.9737,,,2107.467,2107.717,,135,135,,,,,,,,,,,,,,,,bars/031.png,bars/mask001.png,,,,,,,,,,,,1,1,,,,,,,1,6,2,5,,,,,,,,,,,2106.9739,2107.467,2107.7173,2110.512,space,2.7786,,2110.5121,15,80,2111.5164,2111.5165,2111.5582,,,,0,2,2,2,1,120,35,,,,,,,,
,,613f59d7f0f631a278aca6e8,65af556978b86183ca316f71,2024-01-23_07h59.44.239,bars,2023.2.3,Win32,59.88023952,657b66ea316d21385b68909f,,,,,,,,,,,2111.559,2112.5493,,,2113.0487,2113.3013,,66,66,,,,,,,,,,,,,,,,bars/036.png,bars/mask004.png,,,,,,,,,,,,0,2,,,,,,,3,4,3,5,,,,,,,,,,,2112.5494,2113.0485,2113.3014,2115.5966,space,2.2828,,2115.5967,79,46,2116.5975,2116.5977,2116.634,,,,0,3,3,3,1,145,20,,,,,,,,
,,613f59d7f0f631a278aca6e8,65af556978b86183ca316f71,2024-01-23_07h59.44.239,bars,2023.2.3,Win32,59.88023952,657b66ea316d21385b68909f,,,,,,,,,,,2116.6348,2117.6313,,,2118.1306,2118.3806,,142,142,,,,,,,,,,,,,,,,bars/029.png,bars/mask003.png,,,,,,,,,,,,0,1,,,,,,,1,6,1,6,,,,,,,,,,,2117.6314,2118.1304,2118.3807,2118.8151,space,0.4188,,2118.8153,52,83,2119.8123,2119.8123,2119.8184,,,,0,4,4,4,1,90,45,,,,,,,,
,,613f59d7f0f631a278aca6e8,65af556978b86183ca316f71,2024-01-23_07h59.44.239,bars,2023.2.3,Win32,59.88023952,657b66ea316d21385b68909f,,,,,,,,,,,2119.8199,2120.8133,,,2121.3136,2121.563,,8,8,,,,,,,,,,,,,,,,bars/021.png,bars/mask003.png,,,,,,,,,,,,0,1,,,,,,,3,4,4,4,,,,,,,,,,,2120.8133,2121.3135,2121.563,2122.8639,space,1.2848,,2122.8639,33,62,2123.8623,2123.8624,2123.8653,,,,0,5,5,5,1,155,70,,,,,,,,
,,613f59d7f0f631a278aca6e8,65af556978b86183ca316f71,2024-01-23_07h59.44.239,bars,2023.2.3,Win32,59.88023952,657b66ea316d21385b68909f,,,,,,,,,,,2123.866,2124.862,,,2125.3626,2125.6119,,53,53,,,,,,,,,,,,,,,,bars/032.png,bars/mask005.png,,,,,,,,,,,,0,2,,,,,,,5,6,4,6,,,,,,,,,,,2124.8622,2125.3624,2125.6121,2130.6793,space,5.0512,,2130.6793,72,33,2131.6774,2131.6775,2131.7131,,,,0,6,6,6,1,125,20,,,,,,,,
,,613f59d7f0f631a278aca6e8,65af556978b86183ca316f71,2024-01-23_07h59.44.239,bars,2023.2.3,Win32,59.88023952,657b66ea316d21385b68909f,,,,,,,,,,,2131.7138,2132.711,,,2133.206,2133.4598,,161,161,,,,,,,,,,,,,,,,bars/010.png,bars/mask009.png,,,,,,,,,,,,8,1,,,,,,,7,4,9,4,,,,,,,,,,,2132.7112,2133.206,2133.4599,2144.5445,space,11.0665,,2144.5446,4,74,2145.5404,2145.5404,2145.5561,,,,0,7,7,7,1,165,55,,,,,,,,
,,613f59d7f0f631a278aca6e8,65af556978b86183ca316f71,2024-01-23_07h59.44.239,bars,2023.2.3,Win32,59.88023952,657b66ea316d21385b68909f,,,,,,,,,,,2145.5566,2146.5493,,,2147.0513,2147.2993,,54,54,,,,,,,,,,,,,,,,bars/017.png,bars/mask008.png,,,,,,,,,,,,5,2,,,,,,,9,6,9,7,,,,,,,,,,,2146.5493,2147.0512,2147.2994,2148.9495,space,1.6351,,2148.9497,89,9,2149.9483,2149.9484,2149.988,,,,0,8,8,8,1,145,45,,,,,,,,
,,613f59d7f0f631a278aca6e8,65af556978b86183ca316f71,2024-01-23_07h59.44.239,bars,2023.2.3,Win32,59.88023952,657b66ea316d21385b68909f,,,,,,,,,,,2149.9889,2150.9897,,,2151.4804,2151.7303,,55,55,,,,,,,,,,,,,,,,bars/030.png,bars/mask000.png,,,,,,,,,,,,3,2,,,,,,,10,4,10,5,,,,,,,,,,,2150.9898,2151.4803,2151.7303,2153.6476,space,1.9017,,2153.6477,85,10,2154.6457,2154.6457,2154.6794,,,,0,9,9,9,1,140,65,,,,,,,,
,,613f59d7f0f631a278aca6e8,65af556978b86183ca316f71,2024-01-23_07h59.44.239,bars,2023.2.3,Win32,59.88023952,657b66ea316d21385b68909f,,,,,,,,,,,2154.68,2155.6723,,,2156.1724,2156.4219,,62,62,,,,,,,,,,,,,,,,bars/031.png,bars/mask002.png,,,,,,,,,,,,0,2,,,,,,,8,2,9,3,,,,,,,,,,,2155.6724,2156.1723,2156.422,2162.1216,space,5.6835,,2162.1217,58,27,2163.1199,2163.1199,2163.1531,,,,0,10,10,10,1,120,35,,,,,,,,
,,613f59d7f0f631a278aca6e8,65af556978b86183ca316f71,2024-01-23_07h59.44.239,bars,2023.2.3,Win32,59.88023952,657b66ea316d21385b68909f,,,,,,,,,,,2163.1538,2164.1438,,,2164.6369,2164.8869,,85,85,,,,,,,,,,,,,,,,bars/012.png,bars/mask007.png,,,,,,,,,,,,5,1,,,,,,,6,4,6,5,,,,,,,,,,,2164.1439,2164.6368,2164.887,2165.771,space,0.8683,,2165.771,5,70,2166.77,2166.7701,2166.7765,,,,0,11,11,11,1,90,15,,,,,,,,
,,613f59d7f0f631a278aca6e8,65af556978b86183ca316f71,2024-01-23_07h59.44.239,bars,2023.2.3,Win32,59.88023952,657b66ea316d21385b68909f,,,,,,,,,,,2166.7773,2167.7697,,,2168.2599,2168.5104,,10,10,,,,,,,,,,,,,,,,bars/011.png,bars/mask000.png,,,,,,,,,,,,0,1,,,,,,,8,6,8,5,,,,,,,,,,,2167.7697,2168.2598,2168.5107,2187.4391,space,18.913,,2187.4392,30,75,2188.4383,2188.4384,2188.4801,,,,0,12,12,12,1,160,85,,,,,,,,
,,613f59d7f0f631a278aca6e8,65af556978b86183ca316f71,2024-01-23_07h59.44.239,bars,2023.2.3,Win32,59.88023952,657b66ea316d21385b68909f,,,,,,,,,,,2188.4809,2189.4716,,,2189.9639,2190.2142,,97,97,,,,,,,,,,,,,,,,bars/002.png,bars/mask006.png,,,,,,,,,,,,2,2,,,,,,,6,4,5,4,,,,,,,,,,,2189.4717,2189.9636,2190.2143,2191.2646,space,1.0343,,2191.2648,33,12,2192.2636,2192.2637,2192.2661,,,,0,13,13,13,1,130,85,,,,,,,,
,,613f59d7f0f631a278aca6e8,65af556978b86183ca316f71,2024-01-23_07h59.44.239,bars,2023.2.3,Win32,59.88023952,657b66ea316d21385b68909f,,,,,,,,,,,2192.2665,2193.2634,,,2193.7542,2194.003,,36,36,,,,,,,,,,,,,,,,bars/045.png,bars/mask004.png,,,,,,,,,,,,1,2,,,,,,,8,6,7,5,,,,,,,,,,,2193.2635,2193.7538,2194.003,2195.9372,space,1.9207,,2195.9372,64,26,2196.9355,2196.9355,2196.9498,,,,0,14,14,14,1,100,10,,,,,,,,
,,613f59d7f0f631a278aca6e8,65af556978b86183ca316f71,2024-01-23_07h59.44.239,bars,2023.2.3,Win32,59.88023952,657b66ea316d21385b68909f,,,,,,,,,,,2196.9503,2197.9543,,,2198.4526,2198.7024,,116,116,,,,,,,,,,,,,,,,bars/041.png,bars/mask008.png,,,,,,,,,,,,0,2,,,,,,,6,8,6,9,,,,,,,,,,,2197.9544,2198.4525,2198.7024,2205.568,space,6.8511,,2205.5682,84,31,2206.5672,2206.5673,2206.6022,,,,0,15,15,15,1,20,85,,,,,,,,
,,613f59d7f0f631a278aca6e8,65af556978b86183ca316f71,2024-01-23_07h59.44.239,bars,2023.2.3,Win32,59.88023952,657b66ea316d21385b68909f,,,,,,,,,,,2206.6028,2207.5933,,,2208.0849,2208.3337,,137,137,,,,,,,,,,,,,,,,bars/038.png,bars/mask006.png,,,,,,,,,,,,1,1,,,,,,,8,10,9,10,,,,,,,,,,,2207.5934,2208.0839,2208.3337,2211.0332,space,2.6828,,2211.0333,28,67,2212.0328,2212.0331,2212.0621,,,,0,16,16,16,1,165,70,,,,,,,,
,,613f59d7f0f631a278aca6e8,65af556978b86183ca316f71,2024-01-23_07h59.44.239,bars,2023.2.3,Win32,59.88023952,657b66ea316d21385b68909f,,,,,,,,,,,2212.0624,2213.0659,,,2213.5664,2213.8162,,110,110,,,,,,,,,,,,,,,,bars/012.png,bars/mask001.png,,,,,,,,,,,,2,1,,,,,,,6,10,5,8,,,,,,,,,,,2213.0659,2213.5661,2213.8163,2216.7431,space,2.9152,,2216.7431,20,85,2217.7417,2217.742,2217.7757,,,,0,17,17,17,1,90,15,,,,,,,,
,,613f59d7f0f631a278aca6e8,65af556978b86183ca316f71,2024-01-23_07h59.44.239,bars,2023.2.3,Win32,59.88023952,657b66ea316d21385b68909f,,,,,,,,,,,2217.7765,2218.7651,,,2219.2647,2219.5146,,112,112,,,,,,,,,,,,,,,,bars/015.png,bars/mask009.png,,,,,,,,,,,,4,1,,,,,,,4,10,4,10,,,,,,,,,,,2218.7651,2219.2646,2219.5146,2237.627,space,18.0984,,2237.6271,2,48,2238.6274,2238.6274,2238.6619,,,,0,18,18,18,1,110,160,,,,,,,,
,,613f59d7f0f631a278aca6e8,65af556978b86183ca316f71,2024-01-23_07h59.44.239,bars,2023.2.3,Win32,59.88023952,657b66ea316d21385b68909f,,,,,,,,,,,2238.6626,2239.6537,,,2240.143,2240.3927,,107,107,,,,,,,,,,,,,,,,bars/004.png,bars/mask007.png,,,,,,,,,,,,3,2,,,,,,,6,8,6,8,,,,,,,,,,,2239.6538,2240.1428,2240.3929,2242.3427,space,1.9348,,2242.3428,82,18,2243.3423,2243.3423,2243.3775,,,,0,19,19,19,1,25,125,,,,,,,,
,,613f59d7f0f631a278aca6e8,65af556978b86183ca316f71,2024-01-23_07h59.44.239,bars,2023.2.3,Win32,59.88023952,657b66ea316d21385b68909f,,,,,,,,,,,2243.3779,2244.3688,,,2244.868,2245.1146,,88,88,,,,,,,,,,,,,,,,bars/032.png,bars/mask002.png,,,,,,,,,,,,0,1,,,,,,,4,6,4,6,,,,,,,,,,,2244.369,2244.8679,2245.1147,2276.3963,space,31.2617,,2276.3963,37,68,2277.3847,2277.3849,2277.432,,,,0,20,20,20,1,125,20,,,,,,,,
,,613f59d7f0f631a278aca6e8,65af556978b86183ca316f71,2024-01-23_07h59.44.239,bars,2023.2.3,Win32,59.88023952,657b66ea316d21385b68909f,,,,,,,,,,,2277.4338,2278.4273,,,2278.9279,2279.1803,,178,178,,,,,,,,,,,,,,,,bars/045.png,bars/mask009.png,,,,,,,,,,,,5,2,,,,,,,2,8,3,8,,,,,,,,,,,2278.4273,2278.9276,2279.1804,2280.6943,space,1.5014,,2280.6944,78,12,2281.6935,2281.6939,2281.7223,,,,0,21,21,21,1,100,10,,,,,,,,
,,613f59d7f0f631a278aca6e8,65af556978b86183ca316f71,2024-01-23_07h59.44.239,bars,2023.2.3,Win32,59.88023952,657b66ea316d21385b68909f,,,,,,,,,,,2281.7228,2282.7262,,,2283.226,2283.4766,,28,28,,,,,,,,,,,,,,,,bars/007.png,bars/mask000.png,,,,,,,,,,,,1,2,,,,,,,4,6,5,8,,,,,,,,,,,2282.7263,2283.226,2283.4767,2286.0434,space,2.5489,,2286.0435,33,27,2287.0422,2287.0422,2287.0785,,,,0,22,22,22,1,175,55,,,,,,,,
,,613f59d7f0f631a278aca6e8,65af556978b86183ca316f71,2024-01-23_07h59.44.239,bars,2023.2.3,Win32,59.88023952,657b66ea316d21385b68909f,,,,,,,,,,,2287.0792,2288.0827,,,2288.5749,2288.8252,,23,203,,,,,,,,,,,,,,,,bars/023.png,bars/mask001.png,,,,,,,,,,,,4,1,,,,,,,6,8,4,9,,,,,,,,,,,2288.0829,2288.5748,2288.8252,2295.2307,space,6.3871,,2295.2311,3,88,2296.2305,2296.2307,2296.268,,,,0,23,23,23,1,20,115,,,,,,,,
,,613f59d7f0f631a278aca6e8,65af556978b86183ca316f71,2024-01-23_07h59.44.239,bars,2023.2.3,Win32,59.88023952,657b66ea316d21385b68909f,,,,,,,,,,,2296.2687,2297.2721,,,2297.774,2298.023,,92,92,,,,,,,,,,,,,,,,bars/025.png,bars/mask001.png,,,,,,,,,,,,5,1,,,,,,,8,6,8,8,,,,,,,,,,,2297.2722,2297.7739,2298.0231,2310.9712,space,12.9321,,2310.9713,13,52,2311.9619,2311.962,2312.0012,,,,0,24,24,24,1,105,40,,,,,,,,
,,613f59d7f0f631a278aca6e8,65af556978b86183ca316f71,2024-01-23_07h59.44.239,bars,2023.2.3,Win32,59.88023952,657b66ea316d21385b68909f,,,,,,,,,,,2312.0018,2312.9932,,,2313.4863,2313.7362,,144,144,,,,,,,,,,,,,,,,bars/035.png,bars/mask000.png,,,,,,,,,,,,0,1,,,,,,,6,8,7,8,,,,,,,,,,,2312.9934,2313.4862,2313.7362,2337.0152,space,23.2633,,2337.0154,31,84,2338.0136,2338.0137,2338.0485,,,,0,25,25,25,1,175,60,,,,,,,,
,,613f59d7f0f631a278aca6e8,65af556978b86183ca316f71,2024-01-23_07h59.44.239,bars,2023.2.3,Win32,59.88023952,657b66ea316d21385b68909f,,,,,,,,,,,2338.0491,2339.0372,,,2339.5385,2339.7872,,5,5,,,,,,,,,,,,,,,,bars/012.png,bars/mask001.png,,,,,,,,,,,,3,2,,,,,,,4,6,5,5,,,,,,,,,,,2339.0374,2339.5384,2339.7873,2342.4867,space,2.6852,,2342.487,85,10,2343.4864,2343.4865,2343.5206,,,,0,26,26,26,1,90,15,,,,,,,,
,,613f59d7f0f631a278aca6e8,65af556978b86183ca316f71,2024-01-23_07h59.44.239,bars,2023.2.3,Win32,59.88023952,657b66ea316d21385b68909f,,,,,,,,,,,2343.5209,2344.5125,,,2345.0126,2345.2617,,14,14,,,,,,,,,,,,,,,,bars/017.png,bars/mask007.png,,,,,,,,,,,,0,2,,,,,,,6,4,6,3,,,,,,,,,,,2344.5126,2345.0124,2345.2618,2346.9631,space,1.6851,,2346.9632,49,31,2347.9621,2347.9623,2347.9651,,,,0,27,27,27,1,145,45,,,,,,,,
,,613f59d7f0f631a278aca6e8,65af556978b86183ca316f71,2024-01-23_07h59.44.239,bars,2023.2.3,Win32,59.88023952,657b66ea316d21385b68909f,,,,,,,,,,,2347.9659,2348.9614,,,2349.4518,2349.6924,,170,170,,,,,,,,,,,,,,,,bars/001.png,bars/mask005.png,,,,,,,,,,,,0,1,,,,,,,8,2,6,2,,,,,,,,,,,2348.9614,2349.4516,2349.6925,2412.3658,space,62.6563,,2412.366,40,85,2413.3632,2413.3634,2413.406,,,,0,28,28,28,1,130,85,,,,,,,,
,,613f59d7f0f631a278aca6e8,65af556978b86183ca316f71,2024-01-23_07h59.44.239,bars,2023.2.3,Win32,59.88023952,657b66ea316d21385b68909f,,,,,,,,,,,2413.4068,2414.3956,,,2414.8967,2415.1464,,34,34,,,,,,,,,,,,,,,,bars/015.png,bars/mask004.png,,,,,,,,,,,,0,2,,,,,,,6,0,7,0,,,,,,,,,,,2414.3957,2414.8965,2415.1464,2447.2806,space,32.1158,,2447.2807,76,54,2448.2803,2448.2804,2448.3186,,,,0,29,29,29,1,110,160,,,,,,,,
,,613f59d7f0f631a278aca6e8,65af556978b86183ca316f71,2024-01-23_07h59.44.239,bars,2023.2.3,Win32,59.88023952,657b66ea316d21385b68909f,,,,,,,,,,,2448.3192,2449.3118,,,2449.8118,2450.0616,,177,177,,,,,,,,,,,,,,,,bars/004.png,bars/mask009.png,,,,,,,,,,,,1,1,,,,,,,8,0,9,0,,,,,,,,,,,2449.312,2449.8117,2450.0618,2456.4937,space,6.4183,,2456.4938,28,52,2457.4934,2457.4934,2457.5352,,,,0,30,30,30,1,25,125,,,,,,,,
,,613f59d7f0f631a278aca6e8,65af556978b86183ca316f71,2024-01-23_07h59.44.239,bars,2023.2.3,Win32,59.88023952,657b66ea316d21385b68909f,,,,,,,,,,,2457.536,2458.5264,,,2459.023,2459.2768,,62,62,,,,,,,,,,,,,,,,bars/043.png,bars/mask003.png,,,,,,,,,,,,0,1,,,,,,,10,0,10,2,,,,,,,,,,,2458.5265,2459.0228,2459.277,2462.6932,space,3.4045,,2462.6935,32,68,2463.6923,2463.6924,2463.7271,,,,0,31,31,31,1,30,130,,,,,,,,
,,613f59d7f0f631a278aca6e8,65af556978b86183ca316f71,2024-01-23_07h59.44.239,bars,2023.2.3,Win32,59.88023952,657b66ea316d21385b68909f,,,,,,,,,,,2463.7279,2464.7187,,,2465.2085,2465.459,,103,103,,,,,,,,,,,,,,,,bars/044.png,bars/mask002.png,,,,,,,,,,,,1,1,,,,,,,10,0,9,0,,,,,,,,,,,2464.7189,2465.2084,2465.459,2544.0918,space,78.6213,,2544.0918,28,52,2545.0918,2545.0919,2545.1328,,,,0,32,32,32,1,75,155,,,,,,,,
,,613f59d7f0f631a278aca6e8,65af556978b86183ca316f71,2024-01-23_07h59.44.239,bars,2023.2.3,Win32,59.88023952,657b66ea316d21385b68909f,,,,,,,,,,,2545.1338,2546.1231,,,2546.6168,2546.87,,27,27,,,,,,,,,,,,,,,,bars/020.png,bars/mask000.png,,,,,,,,,,,,0,2,,,,,,,10,0,10,1,,,,,,,,,,,2546.1231,2546.6167,2546.8701,2548.5142,space,1.633,,2548.5143,88,37,2549.5142,2549.5142,2549.5295,,,,0,33,33,33,1,115,170,,,,,,,,
,,613f59d7f0f631a278aca6e8,65af556978b86183ca316f71,2024-01-23_07h59.44.239,bars,2023.2.3,Win32,59.88023952,657b66ea316d21385b68909f,,,,,,,,,,,2549.5299,2550.5319,,,2551.0232,2551.2717,,21,21,,,,,,,,,,,,,,,,bars/000.png,bars/mask005.png,,,,,,,,,,,,3,1,,,,,,,8,2,9,2,,,,,,,,,,,2550.5319,2551.0232,2551.2717,2558.2214,space,6.9345,,2558.2216,19,56,2559.2232,2559.2233,2559.255,,,,0,34,34,34,1,40,145,,,,,,,,
,,613f59d7f0f631a278aca6e8,65af556978b86183ca316f71,2024-01-23_07h59.44.239,bars,2023.2.3,Win32,59.88023952,657b66ea316d21385b68909f,,,,,,,,,,,2559.2554,2560.2458,,,2560.7465,2560.9963,,133,133,,,,,,,,,,,,,,,,bars/045.png,bars/mask002.png,,,,,,,,,,,,0,1,,,,,,,10,4,10,5,,,,,,,,,,,2560.2459,2560.7463,2560.9964,2564.9794,space,3.9672,,2564.9796,33,57,2565.9784,2565.9784,2566.0161,,,,0,35,35,35,1,100,10,,,,,,,,
,,613f59d7f0f631a278aca6e8,65af556978b86183ca316f71,2024-01-23_07h59.44.239,bars,2023.2.3,Win32,59.88023952,657b66ea316d21385b68909f,,,,,,,,,,,2566.0176,2567.018,,,2567.5178,2567.7678,,34,34,,,,,,,,,,,,,,,,bars/011.png,bars/mask004.png,,,,,,,,,,,,0,2,,,,,,,8,6,7,5,,,,,,,,,,,2567.0181,2567.5178,2567.7678,2569.3177,space,1.5376,,2569.3178,54,51,2570.3176,2570.3177,2570.3229,,,,0,36,36,36,1,160,85,,,,,,,,
,,613f59d7f0f631a278aca6e8,65af556978b86183ca316f71,2024-01-23_07h59.44.239,bars,2023.2.3,Win32,59.88023952,657b66ea316d21385b68909f,,,,,,,,,,,2570.3235,2571.3172,,,2571.8172,2572.0671,,39,39,,,,,,,,,,,,,,,,bars/034.png,bars/mask006.png,,,,,,,,,,,,1,2,,,,,,,6,8,7,9,,,,,,,,,,,2571.3173,2571.8171,2572.0671,2579.1804,space,7.1008,,2579.1806,86,26,2580.182,2580.1821,2580.2238,,,,0,37,37,37,1,125,65,,,,,,,,
,,613f59d7f0f631a278aca6e8,65af556978b86183ca316f71,2024-01-23_07h59.44.239,bars,2023.2.3,Win32,59.88023952,657b66ea316d21385b68909f,,,,,,,,,,,2580.2241,2581.2165,,,2581.7166,2581.9663,,166,166,,,,,,,,,,,,,,,,bars/025.png,bars/mask000.png,,,,,,,,,,,,0,2,,,,,,,8,6,8,7,,,,,,,,,,,2581.2166,2581.7164,2581.9663,2592.6302,space,10.653,,2592.6304,61,54,2593.6293,2593.6294,2593.6683,,,,0,38,38,38,1,105,40,,,,,,,,
,,613f59d7f0f631a278aca6e8,65af556978b86183ca316f71,2024-01-23_07h59.44.239,bars,2023.2.3,Win32,59.88023952,657b66ea316d21385b68909f,,,,,,,,,,,2593.6691,2594.6638,,,2595.1638,2595.4137,,109,109,,,,,,,,,,,,,,,,bars/012.png,bars/mask005.png,,,,,,,,,,,,3,1,,,,,,,10,4,9,3,,,,,,,,,,,2594.6638,2595.1638,2595.4138,2601.529,space,6.101,,2601.5291,19,86,2602.528,2602.5281,2602.5653,,,,0,39,39,39,1,90,15,,,,,,,,
,,613f59d7f0f631a278aca6e8,65af556978b86183ca316f71,2024-01-23_07h59.44.239,bars,2023.2.3,Win32,59.88023952,657b66ea316d21385b68909f,,,,,,,,,,,2602.5662,2603.5692,,,2604.0692,2604.319,,169,169,,,,,,,,,,,,,,,,bars/038.png,bars/mask002.png,,,,,,,,,,,,9,1,,,,,,,10,2,10,3,,,,,,,,,,,2603.5693,2604.0691,2604.3191,2690.1174,space,85.7818,,2690.1176,4,81,2691.1152,2691.1154,2691.1506,,,,0,40,40,40,1,165,70,,,,,,,,
,,613f59d7f0f631a278aca6e8,65af556978b86183ca316f71,2024-01-23_07h59.44.239,bars,2023.2.3,Win32,59.88023952,657b66ea316d21385b68909f,,,,,,,,,,,2691.1513,2692.1408,,,2692.6396,2692.8892,,41,41,,,,,,,,,,,,,,,,bars/028.png,bars/mask003.png,,,,,,,,,,,,9,1,,,,,,,10,0,10,0,,,,,,,,,,,2692.1409,2692.6395,2692.8894,2694.5726,space,1.6689,,2694.5727,4,79,2695.5721,2695.5724,2695.6059,,,,0,41,41,41,1,45,120,,,,,,,,
,,613f59d7f0f631a278aca6e8,65af556978b86183ca316f71,2024-01-23_07h59.44.239,bars,2023.2.3,Win32,59.88023952,657b66ea316d21385b68909f,,,,,,,,,,,2695.6067,2696.5982,,,2697.0887,2697.3389,,123,123,,,,,,,,,,,,,,,,bars/014.png,bars/mask004.png,,,,,,,,,,,,0,1,,,,,,,10,2,10,2,,,,,,,,,,,2696.5983,2697.0886,2697.3391,2699.7556,space,2.4046,,2699.7558,43,57,2700.7547,2700.7549,2700.7887,,,,0,42,42,42,1,80,0,,,,,,,,
,,613f59d7f0f631a278aca6e8,65af556978b86183ca316f71,2024-01-23_07h59.44.239,bars,2023.2.3,Win32,59.88023952,657b66ea316d21385b68909f,,,,,,,,,,,2700.7891,2701.7876,,,2702.2814,2702.5206,,135,135,,,,,,,,,,,,,,,,bars/017.png,bars/mask008.png,,,,,,,,,,,,5,1,,,,,,,8,0,8,0,,,,,,,,,,,2701.7878,2702.2813,2702.5207,2728.915,space,26.379,,2728.9151,10,90,2729.914,2729.9141,2729.9487,,,,0,43,43,43,1,145,45,,,,,,,,
,,613f59d7f0f631a278aca6e8,65af556978b86183ca316f71,2024-01-23_07h59.44.239,bars,2023.2.3,Win32,59.88023952,657b66ea316d21385b68909f,,,,,,,,,,,2729.9495,2730.9474,,,2731.4477,2731.6975,,57,57,,,,,,,,,,,,,,,,bars/031.png,bars/mask008.png,,,,,,,,,,,,0,2,,,,,,,6,0,6,0,,,,,,,,,,,2730.9476,2731.4476,2731.6976,2733.8304,space,2.119,,2733.8306,63,22,2734.8239,2734.8239,2734.8682,,,,0,44,44,44,1,120,35,,,,,,,,
,,613f59d7f0f631a278aca6e8,65af556978b86183ca316f71,2024-01-23_07h59.44.239,bars,2023.2.3,Win32,59.88023952,657b66ea316d21385b68909f,,,,,,,,,,,2734.8685,2735.8696,,,2736.3723,2736.6136,,71,71,,,,,,,,,,,,,,,,bars/032.png,bars/mask001.png,,,,,,,,,,,,0,2,,,,,,,4,0,4,0,,,,,,,,,,,2735.8697,2736.3721,2736.6137,2746.5553,space,9.9306,,2746.5553,54,51,2747.553,2747.5531,2747.5914,,,,0,45,45,45,1,125,20,,,,,,,,
,,613f59d7f0f631a278aca6e8,65af556978b86183ca316f71,2024-01-23_07h59.44.239,bars,2023.2.3,Win32,59.88023952,657b66ea316d21385b68909f,,,,,,,,,,,2747.5928,2748.5863,,,2749.0769,2749.3268,,18,18,,,,,,,,,,,,,,,,bars/040.png,bars/mask000.png,,,,,,,,,,,,1,2,,,,,,,6,2,4,2,,,,,,,,,,,2748.5864,2749.0768,2749.3268,2756.4594,space,7.1168,,2756.4595,58,13,2757.4579,2757.4579,2757.4924,,,,0,46,46,46,1,140,5,,,,,,,,
,,613f59d7f0f631a278aca6e8,65af556978b86183ca316f71,2024-01-23_07h59.44.239,bars,2023.2.3,Win32,59.88023952,657b66ea316d21385b68909f,,,,,,,,,,,2757.493,2758.4853,,,2758.9749,2759.2245,,177,177,,,,,,,,,,,,,,,,bars/027.png,bars/mask008.png,,,,,,,,,,,,0,2,,,,,,,4,4,4,4,,,,,,,,,,,2758.4854,2758.9746,2759.2247,2831.7756,space,72.5342,,2831.7757,67,53,2832.7741,2832.7742,2832.8091,,,,0,47,47,47,1,110,50,,,,,,,,
,,613f59d7f0f631a278aca6e8,65af556978b86183ca316f71,2024-01-23_07h59.44.239,bars,2023.2.3,Win32,59.88023952,657b66ea316d21385b68909f,,,,,,,,,,,2832.8098,2833.8009,,,2834.2997,2834.5497,,32,32,,,,,,,,,,,,,,,,bars/031.png,bars/mask001.png,,,,,,,,,,,,5,2,,,,,,,6,6,7,5,,,,,,,,,,,2833.801,2834.2996,2834.5499,2835.3007,space,0.7353,,2835.3008,88,3,2836.2995,2836.2996,2836.3022,,,,0,48,48,48,1,120,35,,,,,,,,
,,613f59d7f0f631a278aca6e8,65af556978b86183ca316f71,2024-01-23_07h59.44.239,bars,2023.2.3,Win32,59.88023952,657b66ea316d21385b68909f,,,,,,,,,,,2836.3028,2837.2993,,,2837.7911,2838.0412,,40,40,,,,,,,,,,,,,,,,bars/016.png,bars/mask000.png,,,,,,,,,,,,9,1,,,,,,,8,8,9,8,,,,,,,,,,,2837.2995,2837.791,2838.0412,2838.8581,space,0.8016,,2838.8582,0,55,2839.8573,2839.8574,2839.8619,,,,0,49,49,49,1,40,165,,,,,,,,
,,613f59d7f0f631a278aca6e8,65af556978b86183ca316f71,2024-01-23_07h59.44.239,bars,2023.2.3,Win32,59.88023952,657b66ea316d21385b68909f,,,,,,,,,,,,,,,,,,,,,,,,,,,,,,,,,,,,,,,,,,,,,,,,,,,,,,,,,,,,,,,,,,,,,,,,,,,,,,,,,,,,,,,,,,,,,2839.8626,2899.8604,0,2,2,2,1,sequence_tables/blk034.csv
,,613f59d7f0f631a278aca6e8,65af556978b86183ca316f71,2024-01-23_07h59.44.239,bars,2023.2.3,Win32,59.88023952,657b66ea316d21385b68909f,,,,,,,,,,,2934.6764,2935.6338,,,2936.1269,2936.3686,,36,36,,,,,,,,,,,,,,,,bars/006.png,bars/mask006.png,,,,,,,,,,,,3,1,,,,,,,4,7,3,7,,,,,,2899.8956,2934.6227,space,34.6984,,2935.634,2936.1267,2936.3688,2938.7008,space,2.3209,,2938.701,1,64,2939.7008,2939.7009,2939.7346,,,,0,0,0,0,1,35,100,,,,,,,,
,,613f59d7f0f631a278aca6e8,65af556978b86183ca316f71,2024-01-23_07h59.44.239,bars,2023.2.3,Win32,59.88023952,657b66ea316d21385b68909f,,,,,,,,,,,2939.7356,2940.7256,,,2941.2177,2941.4675,,147,147,,,,,,,,,,,,,,,,bars/026.png,bars/mask009.png,,,,,,,,,,,,0,2,,,,,,,6,5,7,5,,,,,,,,,,,2940.7257,2941.2175,2941.4676,2946.1194,space,4.6427,,2946.1195,68,62,2947.1162,2947.1164,2947.153,,,,0,1,1,1,1,35,85,,,,,,,,
,,613f59d7f0f631a278aca6e8,65af556978b86183ca316f71,2024-01-23_07h59.44.239,bars,2023.2.3,Win32,59.88023952,657b66ea316d21385b68909f,,,,,,,,,,,2947.1537,2948.1492,,,2948.6492,2948.8975,,155,155,,,,,,,,,,,,,,,,bars/025.png,bars/mask000.png,,,,,,,,,,,,0,1,,,,,,,4,3,4,4,,,,,,,,,,,2948.1492,2948.6491,2948.8975,2950.5324,space,1.6187,,2950.5326,50,65,2951.5323,2951.5323,2951.5782,,,,0,2,2,2,1,105,40,,,,,,,,
,,613f59d7f0f631a278aca6e8,65af556978b86183ca316f71,2024-01-23_07h59.44.239,bars,2023.2.3,Win32,59.88023952,657b66ea316d21385b68909f,,,,,,,,,,,2951.5798,2952.5732,,,2953.0636,2953.3129,,140,140,,,,,,,,,,,,,,,,bars/022.png,bars/mask001.png,,,,,,,,,,,,0,1,,,,,,,2,5,2,5,,,,,,,,,,,2952.5733,2953.0636,2953.3131,2971.5926,space,18.2639,,2971.5927,45,60,2972.5919,2972.592,2972.6266,,,,0,3,3,3,1,95,20,,,,,,,,
,,613f59d7f0f631a278aca6e8,65af556978b86183ca316f71,2024-01-23_07h59.44.239,bars,2023.2.3,Win32,59.88023952,657b66ea316d21385b68909f,,,,,,,,,,,2972.6272,2973.6267,,,2974.1267,2974.3765,,170,170,,,,,,,,,,,,,,,,bars/035.png,bars/mask006.png,,,,,,,,,,,,1,1,,,,,,,0,3,1,4,,,,,,,,,,,2973.6268,2974.1267,2974.3766,2986.8574,space,12.4668,,2986.8576,5,70,2987.8569,2987.8569,2987.8914,,,,0,4,4,4,1,175,60,,,,,,,,
,,613f59d7f0f631a278aca6e8,65af556978b86183ca316f71,2024-01-23_07h59.44.239,bars,2023.2.3,Win32,59.88023952,657b66ea316d21385b68909f,,,,,,,,,,,2987.892,2988.8812,,,2989.3812,2989.6311,,53,53,,,,,,,,,,,,,,,,bars/014.png,bars/mask009.png,,,,,,,,,,,,0,1,,,,,,,0,5,0,2,,,,,,,,,,,2988.8813,2989.3812,2989.6312,2991.3821,space,1.7344,,2991.3822,27,53,2992.3797,2992.3798,2992.4135,,,,0,5,5,5,1,80,0,,,,,,,,
,,613f59d7f0f631a278aca6e8,65af556978b86183ca316f71,2024-01-23_07h59.44.239,bars,2023.2.3,Win32,59.88023952,657b66ea316d21385b68909f,,,,,,,,,,,2992.4142,2993.4041,,,2993.904,2994.1543,,102,102,,,,,,,,,,,,,,,,bars/037.png,bars/mask002.png,,,,,,,,,,,,5,2,,,,,,,2,7,3,6,,,,,,,,,,,2993.4042,2993.9039,2994.1545,2994.9535,space,0.7872,,2994.9536,48,3,2995.9551,2995.9551,2995.9893,,,,0,6,6,6,1,150,105,,,,,,,,
,,613f59d7f0f631a278aca6e8,65af556978b86183ca316f71,2024-01-23_07h59.44.239,bars,2023.2.3,Win32,59.88023952,657b66ea316d21385b68909f,,,,,,,,,,,2995.9898,2996.9786,,,2997.4802,2997.7196,,98,98,,,,,,,,,,,,,,,,bars/031.png,bars/mask007.png,,,,,,,,,,,,0,1,,,,,,,0,9,0,9,,,,,,,,,,,2996.9788,2997.4802,2997.7198,2999.436,space,1.7026,,2999.4362,22,63,3000.4352,3000.4352,3000.4693,,,,0,7,7,7,1,120,35,,,,,,,,
,,613f59d7f0f631a278aca6e8,65af556978b86183ca316f71,2024-01-23_07h59.44.239,bars,2023.2.3,Win32,59.88023952,657b66ea316d21385b68909f,,,,,,,,,,,3000.47,3001.4616,,,3001.9625,3002.2115,,133,133,,,,,,,,,,,,,,,,bars/002.png,bars/mask009.png,,,,,,,,,,,,0,1,,,,,,,0,10,0,10,,,,,,,,,,,3001.4616,3001.9623,3002.2116,3003.2294,space,1.0015,,3003.2296,3,48,3004.2257,3004.2257,3004.2396,,,,0,8,8,8,1,130,85,,,,,,,,
,,613f59d7f0f631a278aca6e8,65af556978b86183ca316f71,2024-01-23_07h59.44.239,bars,2023.2.3,Win32,59.88023952,657b66ea316d21385b68909f,,,,,,,,,,,3004.24,3005.2429,,,3005.7436,3005.9945,,43,43,,,,,,,,,,,,,,,,bars/017.png,bars/mask007.png,,,,,,,,,,,,9,2,,,,,,,2,10,2,10,,,,,,,,,,,3005.243,3005.7435,3005.9946,3007.0462,space,1.0346,,3007.0463,78,2,3008.0354,3008.0355,3008.0405,,,,0,9,9,9,1,145,45,,,,,,,,
,,613f59d7f0f631a278aca6e8,65af556978b86183ca316f71,2024-01-23_07h59.44.239,bars,2023.2.3,Win32,59.88023952,657b66ea316d21385b68909f,,,,,,,,,,,3008.0414,3009.0341,,,3009.5336,3009.7831,,25,25,,,,,,,,,,,,,,,,bars/012.png,bars/mask008.png,,,,,,,,,,,,7,2,,,,,,,4,10,4,10,,,,,,,,,,,3009.0341,3009.5336,3009.7832,3010.8999,space,1.1068,,3010.9,65,10,3011.8996,3011.8997,3011.9016,,,,0,10,10,10,1,90,15,,,,,,,,
,,613f59d7f0f631a278aca6e8,65af556978b86183ca316f71,2024-01-23_07h59.44.239,bars,2023.2.3,Win32,59.88023952,657b66ea316d21385b68909f,,,,,,,,,,,3011.9022,3012.8989,,,3013.3992,3013.6487,,24,24,,,,,,,,,,,,,,,,bars/001.png,bars/mask004.png,,,,,,,,,,,,0,2,,,,,,,2,10,0,10,,,,,,,,,,,3012.899,3013.3992,3013.6488,3015.4155,space,1.7508,,3015.4155,74,61,3016.4149,3016.4151,3016.4285,,,,0,11,11,11,1,130,85,,,,,,,,
,,613f59d7f0f631a278aca6e8,65af556978b86183ca316f71,2024-01-23_07h59.44.239,bars,2023.2.3,Win32,59.88023952,657b66ea316d21385b68909f,,,,,,,,,,,3016.4289,3017.4312,,,3017.9313,3018.1811,,65,65,,,,,,,,,,,,,,,,bars/004.png,bars/mask003.png,,,,,,,,,,,,0,1,,,,,,,4,10,4,10,,,,,,,,,,,3017.4312,3017.9313,3018.1813,3018.5843,space,0.3922,,3018.5845,40,60,3019.5815,3019.5815,3019.5845,,,,0,12,12,12,1,25,125,,,,,,,,
,,613f59d7f0f631a278aca6e8,65af556978b86183ca316f71,2024-01-23_07h59.44.239,bars,2023.2.3,Win32,59.88023952,657b66ea316d21385b68909f,,,,,,,,,,,3019.5852,3020.5813,,,3021.0806,3021.3305,,161,161,,,,,,,,,,,,,,,,bars/004.png,bars/mask002.png,,,,,,,,,,,,0,2,,,,,,,6,8,5,7,,,,,,,,,,,3020.5814,3021.0805,3021.3305,3022.064,space,0.7179,,3022.064,44,36,3023.0634,3023.0635,3023.0661,,,,0,13,13,13,1,25,125,,,,,,,,
,,613f59d7f0f631a278aca6e8,65af556978b86183ca316f71,2024-01-23_07h59.44.239,bars,2023.2.3,Win32,59.88023952,657b66ea316d21385b68909f,,,,,,,,,,,3023.0665,3024.0632,,,3024.5632,3024.8128,,171,171,,,,,,,,,,,,,,,,bars/047.png,bars/mask009.png,,,,,,,,,,,,1,1,,,,,,,4,10,4,10,,,,,,,,,,,3024.0633,3024.5632,3024.8128,3025.5962,space,0.7666,,3025.5963,24,79,3026.5955,3026.5955,3026.5983,,,,0,14,14,14,1,15,70,,,,,,,,
,,613f59d7f0f631a278aca6e8,65af556978b86183ca316f71,2024-01-23_07h59.44.239,bars,2023.2.3,Win32,59.88023952,657b66ea316d21385b68909f,,,,,,,,,,,3026.5987,3027.596,,,3028.0958,3028.3453,,46,46,,,,,,,,,,,,,,,,bars/005.png,bars/mask003.png,,,,,,,,,,,,0,1,,,,,,,2,10,2,10,,,,,,,,,,,3027.596,3028.0958,3028.3454,3029.0127,space,0.6527,,3029.0128,36,86,3030.012,3030.012,3030.0134,,,,0,15,15,15,1,10,140,,,,,,,,
,,613f59d7f0f631a278aca6e8,65af556978b86183ca316f71,2024-01-23_07h59.44.239,bars,2023.2.3,Win32,59.88023952,657b66ea316d21385b68909f,,,,,,,,,,,3030.0138,3031.0119,,,3031.5116,3031.7615,,51,51,,,,,,,,,,,,,,,,bars/041.png,bars/mask008.png,,,,,,,,,,,,0,1,,,,,,,4,10,5,8,,,,,,,,,,,3031.0119,3031.5116,3031.7616,3033.7108,space,1.9335,,3033.7109,31,34,3034.7107,3034.7107,3034.7255,,,,0,16,16,16,1,20,85,,,,,,,,
,,613f59d7f0f631a278aca6e8,65af556978b86183ca316f71,2024-01-23_07h59.44.239,bars,2023.2.3,Win32,59.88023952,657b66ea316d21385b68909f,,,,,,,,,,,3034.7258,3035.7271,,,3036.2273,3036.4772,,71,71,,,,,,,,,,,,,,,,bars/011.png,bars/mask005.png,,,,,,,,,,,,5,2,,,,,,,6,10,9,9,,,,,,,,,,,3035.7272,3036.2272,3036.4772,3052.1903,space,15.6964,,3052.1904,89,14,3053.1895,3053.1897,3053.2048,,,,0,17,17,17,1,160,85,,,,,,,,
,,613f59d7f0f631a278aca6e8,65af556978b86183ca316f71,2024-01-23_07h59.44.239,bars,2023.2.3,Win32,59.88023952,657b66ea316d21385b68909f,,,,,,,,,,,3053.2053,3054.206,,,3054.7062,3054.956,,132,132,,,,,,,,,,,,,,,,bars/001.png,bars/mask000.png,,,,,,,,,,,,7,1,,,,,,,8,8,7,9,,,,,,,,,,,3054.206,3054.7061,3054.956,3057.6732,space,2.7021,,3057.6734,2,47,3058.6726,3058.6726,3058.7126,,,,0,18,18,18,1,130,85,,,,,,,,
,,613f59d7f0f631a278aca6e8,65af556978b86183ca316f71,2024-01-23_07h59.44.239,bars,2023.2.3,Win32,59.88023952,657b66ea316d21385b68909f,,,,,,,,,,,3058.7134,3059.7054,,,3060.1987,3060.4488,,139,139,,,,,,,,,,,,,,,,bars/032.png,bars/mask008.png,,,,,,,,,,,,4,1,,,,,,,6,10,7,9,,,,,,,,,,,3059.7055,3060.1985,3060.4488,3060.6711,space,0.2056,,3060.6712,14,61,3061.6733,3061.6734,3061.6753,,,,0,19,19,19,1,125,20,,,,,,,,
,,613f59d7f0f631a278aca6e8,65af556978b86183ca316f71,2024-01-23_07h59.44.239,bars,2023.2.3,Win32,59.88023952,657b66ea316d21385b68909f,,,,,,,,,,,3061.676,3062.6732,,,3063.1733,3063.4232,,8,8,,,,,,,,,,,,,,,,bars/010.png,bars/mask008.png,,,,,,,,,,,,1,1,,,,,,,4,8,4,9,,,,,,,,,,,3062.6733,3063.1733,3063.4233,3068.1726,space,4.7342,,3068.1727,23,47,3069.1718,3069.1719,3069.2084,,,,0,20,20,20,1,165,55,,,,,,,,
,,613f59d7f0f631a278aca6e8,65af556978b86183ca316f71,2024-01-23_07h59.44.239,bars,2023.2.3,Win32,59.88023952,657b66ea316d21385b68909f,,,,,,,,,,,3069.2091,3070.2046,,,3070.7045,3070.9545,,81,81,,,,,,,,,,,,,,,,bars/047.png,bars/mask000.png,,,,,,,,,,,,6,2,,,,,,,2,10,3,10,,,,,,,,,,,3070.2046,3070.7045,3070.9546,3077.4688,space,6.4989,,3077.4689,66,11,3078.4692,3078.4692,3078.5035,,,,0,21,21,21,1,15,70,,,,,,,,
,,613f59d7f0f631a278aca6e8,65af556978b86183ca316f71,2024-01-23_07h59.44.239,bars,2023.2.3,Win32,59.88023952,657b66ea316d21385b68909f,,,,,,,,,,,3078.5041,3079.493,,,3079.9936,3080.2428,,87,87,,,,,,,,,,,,,,,,bars/047.png,bars/mask006.png,,,,,,,,,,,,4,2,,,,,,,4,10,4,9,,,,,,,,,,,3079.4931,3079.9934,3080.2429,3081.7615,space,1.5016,,3081.7615,72,17,3082.7612,3082.7612,3082.7976,,,,0,22,22,22,1,15,70,,,,,,,,
,,613f59d7f0f631a278aca6e8,65af556978b86183ca316f71,2024-01-23_07h59.44.239,bars,2023.2.3,Win32,59.88023952,657b66ea316d21385b68909f,,,,,,,,,,,3082.7984,3083.7999,,,3084.3002,3084.5499,,160,160,,,,,,,,,,,,,,,,bars/034.png,bars/mask007.png,,,,,,,,,,,,0,1,,,,,,,6,8,5,8,,,,,,,,,,,3083.8,3084.3001,3084.55,3088.977,space,4.4138,,3088.9771,35,85,3089.9749,3089.975,3090.009,,,,0,23,23,23,1,125,65,,,,,,,,
,,613f59d7f0f631a278aca6e8,65af556978b86183ca316f71,2024-01-23_07h59.44.239,bars,2023.2.3,Win32,59.88023952,657b66ea316d21385b68909f,,,,,,,,,,,3090.0097,3090.9992,,,3091.4916,3091.7412,,76,76,,,,,,,,,,,,,,,,bars/008.png,bars/mask006.png,,,,,,,,,,,,0,1,,,,,,,4,10,2,10,,,,,,,,,,,3090.9993,3091.4914,3091.7416,3102.5081,space,10.7506,,3102.5083,34,76,3103.5054,3103.5055,3103.5447,,,,0,24,24,24,1,110,0,,,,,,,,
,,613f59d7f0f631a278aca6e8,65af556978b86183ca316f71,2024-01-23_07h59.44.239,bars,2023.2.3,Win32,59.88023952,657b66ea316d21385b68909f,,,,,,,,,,,3103.5456,3104.5383,,,3105.0287,3105.2786,,39,39,,,,,,,,,,,,,,,,bars/033.png,bars/mask004.png,,,,,,,,,,,,1,1,,,,,,,2,8,2,9,,,,,,,,,,,3104.5383,3105.0286,3105.2787,3107.5056,space,2.2147,,3107.5056,14,64,3108.496,3108.4961,3108.5339,,,,0,25,25,25,1,25,155,,,,,,,,
,,613f59d7f0f631a278aca6e8,65af556978b86183ca316f71,2024-01-23_07h59.44.239,bars,2023.2.3,Win32,59.88023952,657b66ea316d21385b68909f,,,,,,,,,,,3108.5347,3109.5272,,,3110.0289,3110.2784,,70,70,,,,,,,,,,,,,,,,bars/021.png,bars/mask008.png,,,,,,,,,,,,10,2,,,,,,,4,10,4,10,,,,,,,,,,,3109.5272,3110.0288,3110.2785,3112.3982,space,2.1099,,3112.3982,85,0,3113.3947,3113.3948,3113.3995,,,,0,26,26,26,1,155,70,,,,,,,,
,,613f59d7f0f631a278aca6e8,65af556978b86183ca316f71,2024-01-23_07h59.44.239,bars,2023.2.3,Win32,59.88023952,657b66ea316d21385b68909f,,,,,,,,,,,3113.4006,3114.3945,,,3114.8944,3115.1444,,91,91,,,,,,,,,,,,,,,,bars/043.png,bars/mask008.png,,,,,,,,,,,,0,2,,,,,,,6,8,5,7,,,,,,,,,,,3114.3946,3114.8944,3115.1445,3115.7135,space,0.5595,,3115.7136,61,39,3116.7106,3116.7107,3116.7124,,,,0,27,27,27,1,30,130,,,,,,,,
,,613f59d7f0f631a278aca6e8,65af556978b86183ca316f71,2024-01-23_07h59.44.239,bars,2023.2.3,Win32,59.88023952,657b66ea316d21385b68909f,,,,,,,,,,,3116.713,3117.7106,,,3118.2104,3118.4601,,145,145,,,,,,,,,,,,,,,,bars/025.png,bars/mask002.png,,,,,,,,,,,,0,1,,,,,,,8,10,7,10,,,,,,,,,,,3117.7106,3118.2103,3118.4601,3120.1431,space,1.6711,,3120.1432,40,75,3121.1429,3121.143,3121.1483,,,,0,28,28,28,1,105,40,,,,,,,,
,,613f59d7f0f631a278aca6e8,65af556978b86183ca316f71,2024-01-23_07h59.44.239,bars,2023.2.3,Win32,59.88023952,657b66ea316d21385b68909f,,,,,,,,,,,3121.149,3122.1424,,,3122.6428,3122.8925,,179,179,,,,,,,,,,,,,,,,bars/023.png,bars/mask005.png,,,,,,,,,,,,3,1,,,,,,,10,8,10,7,,,,,,,,,,,3122.1424,3122.6427,3122.8926,3165.3829,space,42.475,,3165.3831,21,64,3166.3825,3166.3825,3166.4154,,,,0,29,29,29,1,20,115,,,,,,,,
,,613f59d7f0f631a278aca6e8,65af556978b86183ca316f71,2024-01-23_07h59.44.239,bars,2023.2.3,Win32,59.88023952,657b66ea316d21385b68909f,,,,,,,,,,,3166.4159,3167.407,,,3167.9065,3168.1565,,33,33,,,,,,,,,,,,,,,,bars/041.png,bars/mask002.png,,,,,,,,,,,,5,1,,,,,,,8,6,8,7,,,,,,,,,,,3167.4071,3167.9063,3168.1566,3168.8408,space,0.6679,,3168.8409,13,52,3169.8394,3169.8396,3169.8421,,,,0,30,30,30,1,20,85,,,,,,,,
,,613f59d7f0f631a278aca6e8,65af556978b86183ca316f71,2024-01-23_07h59.44.239,bars,2023.2.3,Win32,59.88023952,657b66ea316d21385b68909f,,,,,,,,,,,3169.8428,3170.8403,,,3171.3304,3171.5801,,99,99,,,,,,,,,,,,,,,,bars/019.png,bars/mask007.png,,,,,,,,,,,,4,2,,,,,,,10,4,10,5,,,,,,,,,,,3170.8405,3171.3304,3171.5802,3172.2137,space,0.6203,,3172.214,54,6,3173.2129,3173.2131,3173.2196,,,,0,31,31,31,1,45,105,,,,,,,,
,,613f59d7f0f631a278aca6e8,65af556978b86183ca316f71,2024-01-23_07h59.44.239,bars,2023.2.3,Win32,59.88023952,657b66ea316d21385b68909f,,,,,,,,,,,3173.2209,3174.2127,,,3174.7058,3174.9562,,28,28,,,,,,,,,,,,,,,,bars/009.png,bars/mask003.png,,,,,,,,,,,,6,1,,,,,,,10,2,10,2,,,,,,,,,,,3174.2128,3174.7057,3174.9563,3175.5835,space,0.6112,,3175.5836,13,77,3176.5723,3176.5725,3176.5791,,,,0,32,32,32,1,15,105,,,,,,,,
,,613f59d7f0f631a278aca6e8,65af556978b86183ca316f71,2024-01-23_07h59.44.239,bars,2023.2.3,Win32,59.88023952,657b66ea316d21385b68909f,,,,,,,,,,,3176.5799,3177.5727,,,3178.0758,3178.3218,,168,168,,,,,,,,,,,,,,,,bars/005.png,bars/mask004.png,,,,,,,,,,,,3,1,,,,,,,10,4,10,6,,,,,,,,,,,3177.5728,3178.0758,3178.3218,3178.9762,space,0.6386,,3178.9764,22,28,3179.9797,3179.9798,3179.9818,,,,0,33,33,33,1,10,140,,,,,,,,
,,613f59d7f0f631a278aca6e8,65af556978b86183ca316f71,2024-01-23_07h59.44.239,bars,2023.2.3,Win32,59.88023952,657b66ea316d21385b68909f,,,,,,,,,,,3179.9825,3180.9792,,,3181.4792,3181.7291,,19,19,,,,,,,,,,,,,,,,bars/011.png,bars/mask009.png,,,,,,,,,,,,0,1,,,,,,,8,6,6,7,,,,,,,,,,,3180.9792,3181.4791,3181.7292,3181.7465,space,0.0017,,3181.7466,39,66,3182.7461,3182.7462,3182.7479,,,,0,34,34,34,1,160,85,,,,,,,,
,,613f59d7f0f631a278aca6e8,65af556978b86183ca316f71,2024-01-23_07h59.44.239,bars,2023.2.3,Win32,59.88023952,657b66ea316d21385b68909f,,,,,,,,,,,3182.7484,3183.7453,,,3184.2452,3184.4953,,137,137,,,,,,,,,,,,,,,,bars/021.png,bars/mask001.png,,,,,,,,,,,,3,1,,,,,,,6,8,7,7,,,,,,,,,,,3183.7453,3184.2452,3184.4953,3185.1294,space,0.6241,,3185.1295,18,67,3186.1278,3186.1278,3186.1295,,,,0,35,35,35,1,155,70,,,,,,,,
,,613f59d7f0f631a278aca6e8,65af556978b86183ca316f71,2024-01-23_07h59.44.239,bars,2023.2.3,Win32,59.88023952,657b66ea316d21385b68909f,,,,,,,,,,,3186.1303,3187.1278,,,3187.6279,3187.8776,,99,99,,,,,,,,,,,,,,,,bars/004.png,bars/mask006.png,,,,,,,,,,,,1,2,,,,,,,8,10,9,10,,,,,,,,,,,3187.1279,3187.6278,3187.8778,3189.4978,space,1.6109,,3189.4978,74,26,3190.4934,3190.4935,3190.4981,,,,0,36,36,36,1,25,125,,,,,,,,
,,613f59d7f0f631a278aca6e8,65af556978b86183ca316f71,2024-01-23_07h59.44.239,bars,2023.2.3,Win32,59.88023952,657b66ea316d21385b68909f,,,,,,,,,,,3190.4989,3191.4937,,,3191.9921,3192.2434,,110,110,,,,,,,,,,,,,,,,bars/002.png,bars/mask001.png,,,,,,,,,,,,3,1,,,,,,,10,8,10,8,,,,,,,,,,,3191.4937,3191.9921,3192.2435,3256.5793,space,64.3202,,3256.5794,20,25,3257.577,3257.577,3257.6154,,,,0,37,37,37,1,130,85,,,,,,,,
,,613f59d7f0f631a278aca6e8,65af556978b86183ca316f71,2024-01-23_07h59.44.239,bars,2023.2.3,Win32,59.88023952,657b66ea316d21385b68909f,,,,,,,,,,,3257.6162,3258.6115,,,3259.1114,3259.3612,,124,124,,,,,,,,,,,,,,,,bars/005.png,bars/mask003.png,,,,,,,,,,,,5,2,,,,,,,8,10,9,10,,,,,,,,,,,3258.6115,3259.1113,3259.3613,3259.8784,space,0.5018,,3259.8785,66,16,3260.8776,3260.8777,3260.882,,,,0,38,38,38,1,10,140,,,,,,,,
,,613f59d7f0f631a278aca6e8,65af556978b86183ca316f71,2024-01-23_07h59.44.239,bars,2023.2.3,Win32,59.88023952,657b66ea316d21385b68909f,,,,,,,,,,,3260.8828,3261.8778,,,3262.3773,3262.6271,,48,48,,,,,,,,,,,,,,,,bars/018.png,bars/mask007.png,,,,,,,,,,,,0,2,,,,,,,6,8,5,9,,,,,,,,,,,3261.8779,3262.3773,3262.6272,3263.1444,space,0.5015,,3263.1445,78,42,3264.1436,3264.1437,3264.1453,,,,0,39,39,39,1,150,90,,,,,,,,
,,613f59d7f0f631a278aca6e8,65af556978b86183ca316f71,2024-01-23_07h59.44.239,bars,2023.2.3,Win32,59.88023952,657b66ea316d21385b68909f,,,,,,,,,,,3264.1458,3265.1428,,,3265.6432,3265.8918,,21,21,,,,,,,,,,,,,,,,bars/040.png,bars/mask000.png,,,,,,,,,,,,3,2,,,,,,,4,6,4,6,,,,,,,,,,,3265.1429,3265.6431,3265.8918,3266.5601,space,0.6525,,3266.5602,61,16,3267.5595,3267.5596,3267.5613,,,,0,40,40,40,1,140,5,,,,,,,,
,,613f59d7f0f631a278aca6e8,65af556978b86183ca316f71,2024-01-23_07h59.44.239,bars,2023.2.3,Win32,59.88023952,657b66ea316d21385b68909f,,,,,,,,,,,3267.5619,3268.5591,,,3269.0591,3269.3092,,28,28,,,,,,,,,,,,,,,,bars/026.png,bars/mask005.png,,,,,,,,,,,,2,1,,,,,,,2,8,2,8,,,,,,,,,,,3268.5592,3269.0591,3269.3092,3269.9293,space,0.6107,,3269.9293,7,57,3270.9253,3270.9253,3270.9301,,,,0,41,41,41,1,35,85,,,,,,,,
,,613f59d7f0f631a278aca6e8,65af556978b86183ca316f71,2024-01-23_07h59.44.239,bars,2023.2.3,Win32,59.88023952,657b66ea316d21385b68909f,,,,,,,,,,,3270.9308,3271.925,,,3272.425,3272.6753,,81,81,,,,,,,,,,,,,,,,bars/045.png,bars/mask002.png,,,,,,,,,,,,1,1,,,,,,,4,10,2,10,,,,,,,,,,,3271.925,3272.4249,3272.6754,3273.1253,space,0.4348,,3273.1255,19,71,3274.1234,3274.1235,3274.1259,,,,0,42,42,42,1,100,10,,,,,,,,
,,613f59d7f0f631a278aca6e8,65af556978b86183ca316f71,2024-01-23_07h59.44.239,bars,2023.2.3,Win32,59.88023952,657b66ea316d21385b68909f,,,,,,,,,,,3274.1265,3275.1243,,,3275.6168,3275.8664,,121,121,,,,,,,,,,,,,,,,bars/025.png,bars/mask006.png,,,,,,,,,,,,3,1,,,,,,,6,8,6,8,,,,,,,,,,,3275.1244,3275.6167,3275.8665,3276.1345,space,0.2525,,3276.1346,16,81,3277.1245,3277.1246,3277.1268,,,,0,43,43,43,1,105,40,,,,,,,,
,,613f59d7f0f631a278aca6e8,65af556978b86183ca316f71,2024-01-23_07h59.44.239,bars,2023.2.3,Win32,59.88023952,657b66ea316d21385b68909f,,,,,,,,,,,3277.1278,3278.1241,,,3278.6243,3278.8742,,120,120,,,,,,,,,,,,,,,,bars/002.png,bars/mask002.png,,,,,,,,,,,,3,1,,,,,,,4,10,5,10,,,,,,,,,,,3278.1243,3278.6242,3278.8743,3278.9242,space,0.0372,,3278.9243,10,35,3279.9239,3279.9239,3279.926,,,,0,44,44,44,1,130,85,,,,,,,,
,,613f59d7f0f631a278aca6e8,65af556978b86183ca316f71,2024-01-23_07h59.44.239,bars,2023.2.3,Win32,59.88023952,657b66ea316d21385b68909f,,,,,,,,,,,3279.9267,3280.9235,,,3281.4237,3281.6731,,102,102,,,,,,,,,,,,,,,,bars/031.png,bars/mask008.png,,,,,,,,,,,,1,1,,,,,,,2,8,2,8,,,,,,,,,,,3280.9237,3281.4236,3281.6732,3284.3094,space,2.6268,,3284.3094,18,67,3285.3052,3285.3053,3285.3388,,,,0,45,45,45,1,120,35,,,,,,,,
,,613f59d7f0f631a278aca6e8,65af556978b86183ca316f71,2024-01-23_07h59.44.239,bars,2023.2.3,Win32,59.88023952,657b66ea316d21385b68909f,,,,,,,,,,,3285.3394,3286.3298,,,3286.8297,3287.08,,149,149,,,,,,,,,,,,,,,,bars/040.png,bars/mask002.png,,,,,,,,,,,,0,1,,,,,,,0,10,0,10,,,,,,,,,,,3286.3299,3286.8297,3287.0801,3287.9345,space,0.8388,,3287.9347,9,36,3288.9301,3288.9302,3288.9331,,,,0,46,46,46,1,140,5,,,,,,,,
,,613f59d7f0f631a278aca6e8,65af556978b86183ca316f71,2024-01-23_07h59.44.239,bars,2023.2.3,Win32,59.88023952,657b66ea316d21385b68909f,,,,,,,,,,,3288.934,3289.9295,,,3290.4295,3290.6797,,132,132,,,,,,,,,,,,,,,,bars/031.png,bars/mask008.png,,,,,,,,,,,,0,1,,,,,,,0,8,0,7,,,,,,,,,,,3289.9295,3290.4295,3290.6802,3290.9307,space,0.2353,,3290.9308,12,83,3291.9293,3291.9293,3291.9326,,,,0,47,47,47,1,120,35,,,,,,,,
,,613f59d7f0f631a278aca6e8,65af556978b86183ca316f71,2024-01-23_07h59.44.239,bars,2023.2.3,Win32,59.88023952,657b66ea316d21385b68909f,,,,,,,,,,,3291.9334,3292.9288,,,3293.4288,3293.6789,,45,45,,,,,,,,,,,,,,,,bars/031.png,bars/mask008.png,,,,,,,,,,,,7,2,,,,,,,0,10,0,10,,,,,,,,,,,3292.9288,3293.4287,3293.6789,3293.8302,space,0.1356,,3293.8302,75,10,3294.8184,3294.8184,3294.8249,,,,0,48,48,48,1,120,35,,,,,,,,
,,613f59d7f0f631a278aca6e8,65af556978b86183ca316f71,2024-01-23_07h59.44.239,bars,2023.2.3,Win32,59.88023952,657b66ea316d21385b68909f,,,,,,,,,,,3294.8258,3295.8181,,,3296.3182,3296.568,,58,58,,,,,,,,,,,,,,,,bars/004.png,bars/mask006.png,,,,,,,,,,,,0,1,,,,,,,2,8,2,10,,,,,,,,,,,3295.8182,3296.318,3296.5682,3298.1363,space,1.5545,,3298.1373,33,67,3299.134,3299.1341,3299.1408,,,,0,49,49,49,1,25,125,,,,,,,,
,,613f59d7f0f631a278aca6e8,65af556978b86183ca316f71,2024-01-23_07h59.44.239,bars,2023.2.3,Win32,59.88023952,657b66ea316d21385b68909f,,,,,,,,,,,,,,,,,,,,,,,,,,,,,,,,,,,,,,,,,,,,,,,,,,,,,,,,,,,,,,,,,,,,,,,,,,,,,,,,,,,,,,,,,,,,,3299.1416,3414.0189,0,3,3,3,1,sequence_tables/blk037.csv
,,613f59d7f0f631a278aca6e8,65af556978b86183ca316f71,2024-01-23_07h59.44.239,bars,2023.2.3,Win32,59.88023952,657b66ea316d21385b68909f,,,,,,,,,,,3414.9522,3415.9404,,,3416.4332,3416.6834,,103,103,,,,,,,,,,,,,,,,bars/013.png,bars/mask001.png,,,,,,,,,,,,1,1,,,,,,,10,2,10,0,,,,,,3414.051,3414.9352,space,0.8692,,3415.9407,3416.433,3416.6836,3417.2854,space,0.5858,,3417.2855,28,87,3418.2825,3418.2827,3418.2858,,,,0,0,0,0,1,75,10,,,,,,,,
,,613f59d7f0f631a278aca6e8,65af556978b86183ca316f71,2024-01-23_07h59.44.239,bars,2023.2.3,Win32,59.88023952,657b66ea316d21385b68909f,,,,,,,,,,,3418.2867,3419.2822,,,3419.7733,3420.0234,,46,46,,,,,,,,,,,,,,,,bars/028.png,bars/mask002.png,,,,,,,,,,,,10,1,,,,,,,10,0,10,1,,,,,,,,,,,3419.2823,3419.7731,3420.0235,3420.7735,space,0.7382,,3420.7737,1,74,3421.7721,3421.7722,3421.7752,,,,0,1,1,1,1,45,120,,,,,,,,
,,613f59d7f0f631a278aca6e8,65af556978b86183ca316f71,2024-01-23_07h59.44.239,bars,2023.2.3,Win32,59.88023952,657b66ea316d21385b68909f,,,,,,,,,,,3421.7759,3422.7723,,,3423.2724,3423.5245,,142,142,,,,,,,,,,,,,,,,bars/010.png,bars/mask006.png,,,,,,,,,,,,2,1,,,,,,,8,2,8,0,,,,,,,,,,,3422.7726,3423.2722,3423.5246,3423.7388,space,0.2017,,3423.739,23,87,3424.7386,3424.7387,3424.7417,,,,0,2,2,2,1,165,55,,,,,,,,
,,613f59d7f0f631a278aca6e8,65af556978b86183ca316f71,2024-01-23_07h59.44.239,bars,2023.2.3,Win32,59.88023952,657b66ea316d21385b68909f,,,,,,,,,,,3424.7424,3425.7386,,,3426.2382,3426.4882,,173,173,,,,,,,,,,,,,,,,bars/003.png,bars/mask003.png,,,,,,,,,,,,0,1,,,,,,,6,0,6,0,,,,,,,,,,,3425.7387,3426.2381,3426.4883,3427.8546,space,1.3513,,3427.8547,32,33,3428.8544,3428.8545,3428.8578,,,,0,3,3,3,1,25,140,,,,,,,,
,,613f59d7f0f631a278aca6e8,65af556978b86183ca316f71,2024-01-23_07h59.44.239,bars,2023.2.3,Win32,59.88023952,657b66ea316d21385b68909f,,,,,,,,,,,3428.8587,3429.8543,,,3430.354,3430.6037,,7,7,,,,,,,,,,,,,,,,bars/040.png,bars/mask006.png,,,,,,,,,,,,0,2,,,,,,,8,0,8,0,,,,,,,,,,,3429.8545,3430.3538,3430.6039,3435.0359,space,4.4161,,3435.036,47,2,3436.036,3436.0362,3436.0804,,,,0,4,4,4,1,140,5,,,,,,,,
,,613f59d7f0f631a278aca6e8,65af556978b86183ca316f71,2024-01-23_07h59.44.239,bars,2023.2.3,Win32,59.88023952,657b66ea316d21385b68909f,,,,,,,,,,,3436.0813,3437.0695,,,3437.5617,3437.8122,,53,53,,,,,,,,,,,,,,,,bars/049.png,bars/mask006.png,,,,,,,,,,,,0,2,,,,,,,6,2,7,3,,,,,,,,,,,3437.0698,3437.5615,3437.8123,3439.8128,space,1.985,,3439.8129,73,62,3440.8111,3440.8112,3440.8445,,,,0,5,5,5,1,160,115,,,,,,,,
,,613f59d7f0f631a278aca6e8,65af556978b86183ca316f71,2024-01-23_07h59.44.239,bars,2023.2.3,Win32,59.88023952,657b66ea316d21385b68909f,,,,,,,,,,,3440.8452,3441.8347,,,3442.3344,3442.5843,,62,62,,,,,,,,,,,,,,,,bars/008.png,bars/mask002.png,,,,,,,,,,,,0,1,,,,,,,8,4,6,3,,,,,,,,,,,3441.8347,3442.3344,3442.5844,3443.5673,space,0.9694,,3443.5673,48,62,3444.5672,3444.5672,3444.5745,,,,0,6,6,6,1,110,0,,,,,,,,
,,613f59d7f0f631a278aca6e8,65af556978b86183ca316f71,2024-01-23_07h59.44.239,bars,2023.2.3,Win32,59.88023952,657b66ea316d21385b68909f,,,,,,,,,,,3444.5761,3445.5672,,,3446.0673,3446.3174,,67,67,,,,,,,,,,,,,,,,bars/007.png,bars/mask008.png,,,,,,,,,,,,2,2,,,,,,,6,2,6,3,,,,,,,,,,,3445.5672,3446.0672,3446.3176,3449.5328,space,3.2013,,3449.5332,72,12,3450.5328,3450.5329,3450.569,,,,0,7,7,7,1,175,55,,,,,,,,
,,613f59d7f0f631a278aca6e8,65af556978b86183ca316f71,2024-01-23_07h59.44.239,bars,2023.2.3,Win32,59.88023952,657b66ea316d21385b68909f,,,,,,,,,,,3450.5696,3451.5586,,,3452.0581,3452.3082,,107,107,,,,,,,,,,,,,,,,bars/023.png,bars/mask004.png,,,,,,,,,,,,0,2,,,,,,,8,0,8,0,,,,,,,,,,,3451.5589,3452.0581,3452.3082,3456.0588,space,3.7346,,3456.0589,87,8,3457.0574,3457.0576,3457.0904,,,,0,8,8,8,1,20,115,,,,,,,,
,,613f59d7f0f631a278aca6e8,65af556978b86183ca316f71,2024-01-23_07h59.44.239,bars,2023.2.3,Win32,59.88023952,657b66ea316d21385b68909f,,,,,,,,,,,3457.0912,3458.0806,,,3458.5808,3458.8303,,25,25,,,,,,,,,,,,,,,,bars/022.png,bars/mask003.png,,,,,,,,,,,,0,2,,,,,,,6,0,7,0,,,,,,,,,,,3458.0806,3458.5808,3458.8305,3459.9974,space,1.1524,,3459.9975,70,5,3460.9968,3460.9968,3461.0002,,,,0,9,9,9,1,95,20,,,,,,,,
