init_variables.started,init_variables.stopped,participant,session,date,expName,psychopyVersion,OS,frameRate,study_id,instruction_exp.started,instruction_exp.stopped,key_resp_8.keys,key_resp_8.rt,key_resp_8.duration,instruction_single.started,instruction_single.stopped,key_resp_2.keys,key_resp_2.rt,key_resp_2.duration,interval.started,interval.stopped,cue_single.started,cue_single.stopped,mask.started,mask.stopped,ori_response_single.started,res_ori,res,ori_response_single.stopped,key_resp_single.keys,key_resp_single.rt,key_resp_single.duration,disp_single.started,disp_single.stopped,key_resp.keys,key_resp.rt,key_resp.duration,single.thisRepN,single.thisTrialN,single.thisN,single.thisIndex,single.ran,ori,path,mask_path,instruction_bandit.started,instruction_bandit.stopped,key_resp_6.keys,key_resp_6.rt,key_resp_6.duration,cue_bandit.started,cue_bandit.stopped,bandit_res.keys,bandit_res.rt,bandit_res.duration,outcome_bandit.started,rew,action,outcome_bandit.stopped,bandit.thisRepN,bandit.thisTrialN,bandit.thisN,bandit.thisIndex,bandit.ran,actual_rew1,actual_rew2,rew1,rew2,instruction_task.started,instruction_task.stopped,key_resp_7.keys,key_resp_7.rt,key_resp_7.duration,wait_ready.started,wait_ready.stopped,key_resp_3.keys,key_resp_3.rt,key_resp_3.duration,cue.started,cue.stopped,ori_response.started,ori_response.stopped,key_resp_5.keys,key_resp_5.rt,key_resp_5.duration,outcome.started,diff1,diff2,outcome.stopped,disp_outcome_practice.started,disp_outcome_practice.stopped,key_resp_4.keys,key_resp_4.rt,key_resp_4.duration,trials.thisRepN,trials.thisTrialN,trials.thisN,trials.thisIndex,trials.ran,ori1,ori2,break_blk.started,break_blk.stopped,block.thisRepN,block.thisTrialN,block.thisN,block.thisIndex,block.ran,condition_file
0.0012,0.0017,60c1dad7d8e907eb7ec06216,65af56691410b53e6cb3742e,2024-01-23_08h03.06.213,bars,2023.2.3,Win32,59.88023952,657b66ea316d21385b68909f,,,,,,,,,,,,,,,,,,,,,,,,,,,,,,,,,,,,,,,,,,,,,,,,,,,,,,,,,,,,,,,,,,,,,,,,,,,,,,,,,,,,,,,,,,,,,,,,,,,,
,,60c1dad7d8e907eb7ec06216,65af56691410b53e6cb3742e,2024-01-23_08h03.06.213,bars,2023.2.3,Win32,59.88023952,657b66ea316d21385b68909f,0.002,13.6593,y,13.6383,,,,,,,,,,,,,,,,,,,,,,,,,,,,,,,,,,,,,,,,,,,,,,,,,,,,,,,,,,,,,,,,,,,,,,,,,,,,,,,,,,,,,,,,,,,,,,,,
,,60c1dad7d8e907eb7ec06216,65af56691410b53e6cb3742e,2024-01-23_08h03.06.213,bars,2023.2.3,Win32,59.88023952,657b66ea316d21385b68909f,,,,,,13.6594,46.6009,space,32.9288,,,,,,,,,,,,,,,,,,,,,,,,,,,,,,,,,,,,,,,,,,,,,,,,,,,,,,,,,,,,,,,,,,,,,,,,,,,,,,,,,,,,,,,,,,,
,,60c1dad7d8e907eb7ec06216,65af56691410b53e6cb3742e,2024-01-23_08h03.06.213,bars,2023.2.3,Win32,59.88023952,657b66ea316d21385b68909f,,,,,,,,,,,46.6091,47.6064,47.607,48.1064,48.1066,48.3546,48.3548,27,27,69.2208,space,20.8363,,69.2211,76.1823,space,6.9268,,0,0,0,6,1,175,bars/single006.png,bars/mask005.png,,,,,,,,,,,,,,,,,,,,,,,,,,,,,,,,,,,,,,,,,,,,,,,,,,,,,,,,,,,,,,,,
,,60c1dad7d8e907eb7ec06216,65af56691410b53e6cb3742e,2024-01-23_08h03.06.213,bars,2023.2.3,Win32,59.88023952,657b66ea316d21385b68909f,,,,,,,,,,,76.1923,77.1979,77.1981,77.6961,77.6961,77.9455,77.9457,90,90,86.5559,space,8.5916,,86.556,94.799,space,8.22,,0,1,1,4,1,95,bars/single004.png,bars/mask004.png,,,,,,,,,,,,,,,,,,,,,,,,,,,,,,,,,,,,,,,,,,,,,,,,,,,,,,,,,,,,,,,,
,,60c1dad7d8e907eb7ec06216,65af56691410b53e6cb3742e,2024-01-23_08h03.06.213,bars,2023.2.3,Win32,59.88023952,657b66ea316d21385b68909f,,,,,,,,,,,94.8101,95.8132,95.8133,96.3129,96.3132,96.5627,96.5628,168,168,102.8913,space,6.3168,,102.8913,106.6221,space,3.7063,,0,2,2,8,1,160,bars/single008.png,bars/mask004.png,,,,,,,,,,,,,,,,,,,,,,,,,,,,,,,,,,,,,,,,,,,,,,,,,,,,,,,,,,,,,,,,
,,60c1dad7d8e907eb7ec06216,65af56691410b53e6cb3742e,2024-01-23_08h03.06.213,bars,2023.2.3,Win32,59.88023952,657b66ea316d21385b68909f,,,,,,,,,,,106.6319,107.6358,107.6359,108.1354,108.1356,108.3854,108.3854,19,19,115.613,space,7.2122,,115.613,118.5769,space,2.9414,,0,3,3,9,1,20,bars/single009.png,bars/mask006.png,,,,,,,,,,,,,,,,,,,,,,,,,,,,,,,,,,,,,,,,,,,,,,,,,,,,,,,,,,,,,,,,
,,60c1dad7d8e907eb7ec06216,65af56691410b53e6cb3742e,2024-01-23_08h03.06.213,bars,2023.2.3,Win32,59.88023952,657b66ea316d21385b68909f,,,,,,,,,,,118.5777,119.5756,119.5756,120.077,120.077,120.3264,120.3265,143,143,125.9587,space,5.6175,,125.9589,129.1177,space,3.133,,0,4,4,2,1,145,bars/single002.png,bars/mask003.png,,,,,,,,,,,,,,,,,,,,,,,,,,,,,,,,,,,,,,,,,,,,,,,,,,,,,,,,,,,,,,,,
,,60c1dad7d8e907eb7ec06216,65af56691410b53e6cb3742e,2024-01-23_08h03.06.213,bars,2023.2.3,Win32,59.88023952,657b66ea316d21385b68909f,,,,,,,,,,,129.1185,130.1182,130.1182,130.6161,130.6162,130.8658,130.8658,21,21,136.3944,space,5.5129,,136.3947,138.877,space,2.4608,,0,5,5,1,1,20,bars/single001.png,bars/mask006.png,,,,,,,,,,,,,,,,,,,,,,,,,,,,,,,,,,,,,,,,,,,,,,,,,,,,,,,,,,,,,,,,
,,60c1dad7d8e907eb7ec06216,65af56691410b53e6cb3742e,2024-01-23_08h03.06.213,bars,2023.2.3,Win32,59.88023952,657b66ea316d21385b68909f,,,,,,,,,,,138.8781,139.8761,139.8766,140.3747,140.3748,140.6239,140.624,17,17,141.376,space,0.7341,,141.3762,142.6897,space,1.2939,,0,6,6,7,1,45,bars/single007.png,bars/mask009.png,,,,,,,,,,,,,,,,,,,,,,,,,,,,,,,,,,,,,,,,,,,,,,,,,,,,,,,,,,,,,,,,
,,60c1dad7d8e907eb7ec06216,65af56691410b53e6cb3742e,2024-01-23_08h03.06.213,bars,2023.2.3,Win32,59.88023952,657b66ea316d21385b68909f,,,,,,,,,,,142.6903,143.6881,143.6881,144.1881,144.1882,144.4382,144.4384,153,153,151.1488,space,6.6922,,151.1489,154.1129,space,2.9336,,0,7,7,0,1,150,bars/single000.png,bars/mask006.png,,,,,,,,,,,,,,,,,,,,,,,,,,,,,,,,,,,,,,,,,,,,,,,,,,,,,,,,,,,,,,,,
,,60c1dad7d8e907eb7ec06216,65af56691410b53e6cb3742e,2024-01-23_08h03.06.213,bars,2023.2.3,Win32,59.88023952,657b66ea316d21385b68909f,,,,,,,,,,,154.1238,155.1122,155.1123,155.6117,155.6117,155.8616,155.8617,38,38,160.9906,space,5.1133,,160.9906,164.3791,space,3.3643,,0,8,8,3,1,20,bars/single003.png,bars/mask005.png,,,,,,,,,,,,,,,,,,,,,,,,,,,,,,,,,,,,,,,,,,,,,,,,,,,,,,,,,,,,,,,,
,,60c1dad7d8e907eb7ec06216,65af56691410b53e6cb3742e,2024-01-23_08h03.06.213,bars,2023.2.3,Win32,59.88023952,657b66ea316d21385b68909f,,,,,,,,,,,164.402,165.3888,165.3889,165.8857,165.8858,166.1353,166.1354,49,49,169.2694,space,3.1145,,169.2696,172.0307,space,2.7448,,0,9,9,5,1,55,bars/single005.png,bars/mask008.png,,,,,,,,,,,,,,,,,,,,,,,,,,,,,,,,,,,,,,,,,,,,,,,,,,,,,,,,,,,,,,,,
,,60c1dad7d8e907eb7ec06216,65af56691410b53e6cb3742e,2024-01-23_08h03.06.213,bars,2023.2.3,Win32,59.88023952,657b66ea316d21385b68909f,,,,,,,,,,,,,,,,,,,,,,,,,,,,,,,,,,,,,172.0419,196.5623,space,24.4927,,,,,,,,,,,,,,,,,,,,,,,,,,,,,,,,,,,,,,,,,,,,,,,,,,,,,,,,,,,,
,,60c1dad7d8e907eb7ec06216,65af56691410b53e6cb3742e,2024-01-23_08h03.06.213,bars,2023.2.3,Win32,59.88023952,657b66ea316d21385b68909f,,,,,,,,,,,,,,,,,,,,,,,,,,,,,,,,,,,,,,,,,,196.5763,198.8746,left,2.2767,,198.8752,9,1,199.8746,0,0,0,0,1,9,1,9,2,,,,,,,,,,,,,,,,,,,,,,,,,,,,,,,,,,,,,,,,,
,,60c1dad7d8e907eb7ec06216,65af56691410b53e6cb3742e,2024-01-23_08h03.06.213,bars,2023.2.3,Win32,59.88023952,657b66ea316d21385b68909f,,,,,,,,,,,,,,,,,,,,,,,,,,,,,,,,,,,,,,,,,,199.8761,201.1054,left,1.2163,,201.1056,10,1,202.1041,0,1,1,1,1,10,0,10,1,,,,,,,,,,,,,,,,,,,,,,,,,,,,,,,,,,,,,,,,,
,,60c1dad7d8e907eb7ec06216,65af56691410b53e6cb3742e,2024-01-23_08h03.06.213,bars,2023.2.3,Win32,59.88023952,657b66ea316d21385b68909f,,,,,,,,,,,,,,,,,,,,,,,,,,,,,,,,,,,,,,,,,,202.1053,203.4878,right,1.3684,,203.488,2,2,204.4849,0,2,2,2,1,10,2,10,2,,,,,,,,,,,,,,,,,,,,,,,,,,,,,,,,,,,,,,,,,
,,60c1dad7d8e907eb7ec06216,65af56691410b53e6cb3742e,2024-01-23_08h03.06.213,bars,2023.2.3,Win32,59.88023952,657b66ea316d21385b68909f,,,,,,,,,,,,,,,,,,,,,,,,,,,,,,,,,,,,,,,,,,204.4854,204.9514,left,0.4499,,204.9514,7,1,205.9591,0,3,3,3,1,8,4,7,3,,,,,,,,,,,,,,,,,,,,,,,,,,,,,,,,,,,,,,,,,
,,60c1dad7d8e907eb7ec06216,65af56691410b53e6cb3742e,2024-01-23_08h03.06.213,bars,2023.2.3,Win32,59.88023952,657b66ea316d21385b68909f,,,,,,,,,,,,,,,,,,,,,,,,,,,,,,,,,,,,,,,,,,205.9597,206.5832,left,0.6126,,206.5833,5,1,207.582,0,4,4,4,1,6,2,5,1,,,,,,,,,,,,,,,,,,,,,,,,,,,,,,,,,,,,,,,,,
,,60c1dad7d8e907eb7ec06216,65af56691410b53e6cb3742e,2024-01-23_08h03.06.213,bars,2023.2.3,Win32,59.88023952,657b66ea316d21385b68909f,,,,,,,,,,,,,,,,,,,,,,,,,,,,,,,,,,,,,,,,,,207.5827,208.4653,right,0.8664,,208.4654,4,2,209.4662,0,5,5,5,1,4,4,4,4,,,,,,,,,,,,,,,,,,,,,,,,,,,,,,,,,,,,,,,,,
,,60c1dad7d8e907eb7ec06216,65af56691410b53e6cb3742e,2024-01-23_08h03.06.213,bars,2023.2.3,Win32,59.88023952,657b66ea316d21385b68909f,,,,,,,,,,,,,,,,,,,,,,,,,,,,,,,,,,,,,,,,,,209.467,210.3142,left,0.8354,,210.3143,1,1,211.3124,0,6,6,6,1,2,2,1,2,,,,,,,,,,,,,,,,,,,,,,,,,,,,,,,,,,,,,,,,,
,,60c1dad7d8e907eb7ec06216,65af56691410b53e6cb3742e,2024-01-23_08h03.06.213,bars,2023.2.3,Win32,59.88023952,657b66ea316d21385b68909f,,,,,,,,,,,,,,,,,,,,,,,,,,,,,,,,,,,,,,,,,,211.3132,211.7122,right,0.3836,,211.7123,1,2,212.7121,0,7,7,7,1,0,0,0,1,,,,,,,,,,,,,,,,,,,,,,,,,,,,,,,,,,,,,,,,,
,,60c1dad7d8e907eb7ec06216,65af56691410b53e6cb3742e,2024-01-23_08h03.06.213,bars,2023.2.3,Win32,59.88023952,657b66ea316d21385b68909f,,,,,,,,,,,,,,,,,,,,,,,,,,,,,,,,,,,,,,,,,,212.7126,213.4619,left,0.7387,,213.4624,1,1,214.4601,0,8,8,8,1,0,2,1,0,,,,,,,,,,,,,,,,,,,,,,,,,,,,,,,,,,,,,,,,,
,,60c1dad7d8e907eb7ec06216,65af56691410b53e6cb3742e,2024-01-23_08h03.06.213,bars,2023.2.3,Win32,59.88023952,657b66ea316d21385b68909f,,,,,,,,,,,,,,,,,,,,,,,,,,,,,,,,,,,,,,,,,,214.4608,215.5092,right,1.033,,215.5092,3,2,216.511,0,9,9,9,1,2,4,2,3,,,,,,,,,,,,,,,,,,,,,,,,,,,,,,,,,,,,,,,,,
,,60c1dad7d8e907eb7ec06216,65af56691410b53e6cb3742e,2024-01-23_08h03.06.213,bars,2023.2.3,Win32,59.88023952,657b66ea316d21385b68909f,,,,,,,,,,,,,,,,,,,,,,,,,,,,,,,,,,,,,,,,,,216.5119,217.2915,right,0.7646,,217.2916,3,2,218.2921,0,10,10,10,1,0,2,0,3,,,,,,,,,,,,,,,,,,,,,,,,,,,,,,,,,,,,,,,,,
,,60c1dad7d8e907eb7ec06216,65af56691410b53e6cb3742e,2024-01-23_08h03.06.213,bars,2023.2.3,Win32,59.88023952,657b66ea316d21385b68909f,,,,,,,,,,,,,,,,,,,,,,,,,,,,,,,,,,,,,,,,,,218.2928,219.1733,right,0.8693,,219.1734,3,2,220.1716,0,11,11,11,1,0,4,0,3,,,,,,,,,,,,,,,,,,,,,,,,,,,,,,,,,,,,,,,,,
,,60c1dad7d8e907eb7ec06216,65af56691410b53e6cb3742e,2024-01-23_08h03.06.213,bars,2023.2.3,Win32,59.88023952,657b66ea316d21385b68909f,,,,,,,,,,,,,,,,,,,,,,,,,,,,,,,,,,,,,,,,,,220.1726,220.6718,right,0.4839,,220.6718,6,2,221.6708,0,12,12,12,1,2,6,1,6,,,,,,,,,,,,,,,,,,,,,,,,,,,,,,,,,,,,,,,,,
,,60c1dad7d8e907eb7ec06216,65af56691410b53e6cb3742e,2024-01-23_08h03.06.213,bars,2023.2.3,Win32,59.88023952,657b66ea316d21385b68909f,,,,,,,,,,,,,,,,,,,,,,,,,,,,,,,,,,,,,,,,,,221.6715,222.2372,left,0.5539,,222.2379,1,1,223.2364,0,13,13,13,1,0,4,1,3,,,,,,,,,,,,,,,,,,,,,,,,,,,,,,,,,,,,,,,,,
,,60c1dad7d8e907eb7ec06216,65af56691410b53e6cb3742e,2024-01-23_08h03.06.213,bars,2023.2.3,Win32,59.88023952,657b66ea316d21385b68909f,,,,,,,,,,,,,,,,,,,,,,,,,,,,,,,,,,,,,,,,,,223.2368,223.6027,right,0.3551,,223.6028,7,2,224.6012,0,14,14,14,1,2,6,2,7,,,,,,,,,,,,,,,,,,,,,,,,,,,,,,,,,,,,,,,,,
,,60c1dad7d8e907eb7ec06216,65af56691410b53e6cb3742e,2024-01-23_08h03.06.213,bars,2023.2.3,Win32,59.88023952,657b66ea316d21385b68909f,,,,,,,,,,,,,,,,,,,,,,,,,,,,,,,,,,,,,,,,,,224.6019,225.1842,right,0.5668,,225.1842,9,2,226.183,0,15,15,15,1,4,8,3,9,,,,,,,,,,,,,,,,,,,,,,,,,,,,,,,,,,,,,,,,,
,,60c1dad7d8e907eb7ec06216,65af56691410b53e6cb3742e,2024-01-23_08h03.06.213,bars,2023.2.3,Win32,59.88023952,657b66ea316d21385b68909f,,,,,,,,,,,,,,,,,,,,,,,,,,,,,,,,,,,,,,,,,,226.1843,226.7005,right,0.5052,,226.7006,7,2,227.6984,0,16,16,16,1,6,6,7,7,,,,,,,,,,,,,,,,,,,,,,,,,,,,,,,,,,,,,,,,,
,,60c1dad7d8e907eb7ec06216,65af56691410b53e6cb3742e,2024-01-23_08h03.06.213,bars,2023.2.3,Win32,59.88023952,657b66ea316d21385b68909f,,,,,,,,,,,,,,,,,,,,,,,,,,,,,,,,,,,,,,,,,,227.699,228.2662,right,0.5552,,228.2663,5,2,229.2634,0,17,17,17,1,8,4,9,5,,,,,,,,,,,,,,,,,,,,,,,,,,,,,,,,,,,,,,,,,
,,60c1dad7d8e907eb7ec06216,65af56691410b53e6cb3742e,2024-01-23_08h03.06.213,bars,2023.2.3,Win32,59.88023952,657b66ea316d21385b68909f,,,,,,,,,,,,,,,,,,,,,,,,,,,,,,,,,,,,,,,,,,229.264,229.697,right,0.4194,,229.6974,1,2,230.6964,0,18,18,18,1,6,2,5,1,,,,,,,,,,,,,,,,,,,,,,,,,,,,,,,,,,,,,,,,,
,,60c1dad7d8e907eb7ec06216,65af56691410b53e6cb3742e,2024-01-23_08h03.06.213,bars,2023.2.3,Win32,59.88023952,657b66ea316d21385b68909f,,,,,,,,,,,,,,,,,,,,,,,,,,,,,,,,,,,,,,,,,,230.6971,231.0295,left,0.3153,,231.0297,7,1,232.0288,0,19,19,19,1,8,0,7,0,,,,,,,,,,,,,,,,,,,,,,,,,,,,,,,,,,,,,,,,,
,,60c1dad7d8e907eb7ec06216,65af56691410b53e6cb3742e,2024-01-23_08h03.06.213,bars,2023.2.3,Win32,59.88023952,657b66ea316d21385b68909f,,,,,,,,,,,,,,,,,,,,,,,,,,,,,,,,,,,,,,,,,,,,,,,,,,,,,,,,,,,,232.0307,257.2454,space,25.1824,,,,,,,,,,,,,,,,,,,,,,,,,,,,,,,,,,,,,
,,60c1dad7d8e907eb7ec06216,65af56691410b53e6cb3742e,2024-01-23_08h03.06.213,bars,2023.2.3,Win32,59.88023952,657b66ea316d21385b68909f,,,,,,,,,,,258.8803,259.8702,,,260.3704,260.6207,,158,158,,,,,,,,,,,,,,,,bars/015.png,bars/mask001.png,,,,,,,,,,,,6,2,,,,,,,7,5,7,6,,,,,,257.2573,258.874,space,1.5982,,259.8718,260.3702,260.6211,262.7679,space,2.1279,,262.7682,48,2,263.7677,263.7682,280.8862,space,17.0864,,0,0,0,0,1,110,160,,,,,,,,
,,60c1dad7d8e907eb7ec06216,65af56691410b53e6cb3742e,2024-01-23_08h03.06.213,bars,2023.2.3,Win32,59.88023952,657b66ea316d21385b68909f,,,,,,,,,,,280.8984,281.9016,,,282.3903,282.6354,,150,150,,,,,,,,,,,,,,,,bars/000.png,bars/mask009.png,,,,,,,,,,,,2,2,,,,,,,9,3,10,2,,,,,,,,,,,281.9018,282.39,282.6355,287.4135,space,4.7644,,287.4143,70,5,288.4164,288.4167,296.426,space,7.9806,,0,1,1,1,1,40,145,,,,,,,,
,,60c1dad7d8e907eb7ec06216,65af56691410b53e6cb3742e,2024-01-23_08h03.06.213,bars,2023.2.3,Win32,59.88023952,657b66ea316d21385b68909f,,,,,,,,,,,296.4357,297.4385,,,297.937,298.1879,,34,34,,,,,,,,,,,,,,,,bars/043.png,bars/mask003.png,,,,,,,,,,,,5,1,,,,,,,7,1,6,2,,,,,,,,,,,297.4386,297.937,298.188,303.2026,space,4.9934,,303.2028,4,84,304.199,304.1991,308.3281,space,4.0867,,0,2,2,2,1,30,130,,,,,,,,
,,60c1dad7d8e907eb7ec06216,65af56691410b53e6cb3742e,2024-01-23_08h03.06.213,bars,2023.2.3,Win32,59.88023952,657b66ea316d21385b68909f,,,,,,,,,,,308.3382,309.3271,,,309.8272,310.0778,,43,43,,,,,,,,,,,,,,,,bars/042.png,bars/mask001.png,,,,,,,,,,,,0,2,,,,,,,5,3,5,2,,,,,,,,,,,309.3272,309.8269,310.0779,312.5414,space,2.4493,,312.5415,78,32,313.5401,313.5402,320.435,space,6.8681,,0,3,3,3,1,145,75,,,,,,,,
,,60c1dad7d8e907eb7ec06216,65af56691410b53e6cb3742e,2024-01-23_08h03.06.213,bars,2023.2.3,Win32,59.88023952,657b66ea316d21385b68909f,,,,,,,,,,,320.4454,321.4502,,,321.9493,322.1998,,101,101,,,,,,,,,,,,,,,,bars/042.png,bars/mask002.png,,,,,,,,,,,,0,2,,,,,,,7,1,6,2,,,,,,,,,,,321.4502,321.9493,322.1999,327.5315,space,5.319,,327.5318,44,26,328.528,328.528,331.5418,space,2.9925,,0,4,4,4,1,145,75,,,,,,,,
,,60c1dad7d8e907eb7ec06216,65af56691410b53e6cb3742e,2024-01-23_08h03.06.213,bars,2023.2.3,Win32,59.88023952,657b66ea316d21385b68909f,,,,,,,,,,,331.5528,332.5404,,,333.041,333.2907,,54,54,,,,,,,,,,,,,,,,bars/029.png,bars/mask004.png,,,,,,,,,,,,0,2,,,,,,,5,0,5,0,,,,,,,,,,,332.5405,333.0409,333.2908,337.1034,space,3.7958,,337.1036,36,9,338.1023,338.1026,342.6382,space,4.5071,,0,5,5,5,1,90,45,,,,,,,,
,,60c1dad7d8e907eb7ec06216,65af56691410b53e6cb3742e,2024-01-23_08h03.06.213,bars,2023.2.3,Win32,59.88023952,657b66ea316d21385b68909f,,,,,,,,,,,342.6544,343.6477,,,344.1485,344.3961,,137,137,,,,,,,,,,,,,,,,bars/045.png,bars/mask004.png,,,,,,,,,,,,0,1,,,,,,,7,2,8,3,,,,,,,,,,,343.6479,344.1483,344.3962,347.2947,space,2.8815,,347.2949,37,53,348.2937,348.2937,350.6455,space,2.3206,,0,6,6,6,1,100,10,,,,,,,,
,,60c1dad7d8e907eb7ec06216,65af56691410b53e6cb3742e,2024-01-23_08h03.06.213,bars,2023.2.3,Win32,59.88023952,657b66ea316d21385b68909f,,,,,,,,,,,350.6472,351.6402,,,352.1415,352.3894,,41,41,,,,,,,,,,,,,,,,bars/044.png,bars/mask000.png,,,,,,,,,,,,0,1,,,,,,,9,0,10,1,,,,,,,,,,,351.6404,352.1414,352.3894,353.339,space,0.9344,,353.3391,34,66,354.34,354.3401,355.8367,space,1.4789,,0,7,7,7,1,75,155,,,,,,,,
,,60c1dad7d8e907eb7ec06216,65af56691410b53e6cb3742e,2024-01-23_08h03.06.213,bars,2023.2.3,Win32,59.88023952,657b66ea316d21385b68909f,,,,,,,,,,,355.8373,356.8355,,,357.3357,357.5857,,40,40,,,,,,,,,,,,,,,,bars/012.png,bars/mask009.png,,,,,,,,,,,,0,2,,,,,,,7,0,6,0,,,,,,,,,,,356.8356,357.3356,357.5858,362.9549,space,5.3506,,362.9551,50,25,363.9477,363.9478,367.6433,space,3.6685,,0,8,8,8,1,90,15,,,,,,,,
,,60c1dad7d8e907eb7ec06216,65af56691410b53e6cb3742e,2024-01-23_08h03.06.213,bars,2023.2.3,Win32,59.88023952,657b66ea316d21385b68909f,,,,,,,,,,,367.6554,368.6594,,,369.1586,369.4083,,44,224,,,,,,,,,,,,,,,,bars/029.png,bars/mask004.png,,,,,,,,,,,,1,2,,,,,,,5,2,4,1,,,,,,,,,,,368.6594,369.1585,369.4084,374.5707,space,5.1443,,374.5708,46,1,375.5699,375.57,377.4844,space,1.8843,,0,9,9,9,1,90,45,,,,,,,,
,,60c1dad7d8e907eb7ec06216,65af56691410b53e6cb3742e,2024-01-23_08h03.06.213,bars,2023.2.3,Win32,59.88023952,657b66ea316d21385b68909f,,,,,,,,,,,377.4849,378.4833,,,378.983,379.234,,162,162,,,,,,,,,,,,,,,,bars/037.png,bars/mask001.png,,,,,,,,,,,,2,1,,,,,,,3,0,4,0,,,,,,,,,,,378.4833,378.9829,379.2341,383.8993,space,4.6532,,383.8995,12,57,384.8972,384.8973,388.6752,space,3.75,,0,10,10,10,1,150,105,,,,,,,,
,,60c1dad7d8e907eb7ec06216,65af56691410b53e6cb3742e,2024-01-23_08h03.06.213,bars,2023.2.3,Win32,59.88023952,657b66ea316d21385b68909f,,,,,,,,,,,388.6861,389.6757,,,390.1736,390.4227,,4,4,,,,,,,,,,,,,,,,bars/041.png,bars/mask003.png,,,,,,,,,,,,0,1,,,,,,,1,0,1,0,,,,,,,,,,,389.6758,390.1735,390.4227,396.8181,space,6.3828,,396.8183,16,81,397.8173,397.8187,401.1496,space,3.3072,,0,11,11,11,1,20,85,,,,,,,,
,,60c1dad7d8e907eb7ec06216,65af56691410b53e6cb3742e,2024-01-23_08h03.06.213,bars,2023.2.3,Win32,59.88023952,657b66ea316d21385b68909f,,,,,,,,,,,401.1607,402.1657,,,402.6623,402.9122,,128,128,,,,,,,,,,,,,,,,bars/027.png,bars/mask001.png,,,,,,,,,,,,1,1,,,,,,,3,0,3,0,,,,,,,,,,,402.1658,402.6623,402.9123,407.7133,space,4.7845,,407.7136,18,78,408.707,408.7071,410.6775,space,1.9488,,0,12,12,12,1,110,50,,,,,,,,
,,60c1dad7d8e907eb7ec06216,65af56691410b53e6cb3742e,2024-01-23_08h03.06.213,bars,2023.2.3,Win32,59.88023952,657b66ea316d21385b68909f,,,,,,,,,,,410.6789,411.6713,,,412.1728,412.4202,,1,181,,,,,,,,,,,,,,,,bars/008.png,bars/mask007.png,,,,,,,,,,,,0,2,,,,,,,5,0,4,0,,,,,,,,,,,411.6714,412.1726,412.4203,417.5693,space,5.1368,,417.5697,71,1,418.5657,418.5659,420.8634,space,2.2613,,0,13,13,13,1,110,0,,,,,,,,
,,60c1dad7d8e907eb7ec06216,65af56691410b53e6cb3742e,2024-01-23_08h03.06.213,bars,2023.2.3,Win32,59.88023952,657b66ea316d21385b68909f,,,,,,,,,,,420.8644,421.8622,,,422.3625,422.6118,,97,97,,,,,,,,,,,,,,,,bars/003.png,bars/mask001.png,,,,,,,,,,,,0,2,,,,,,,3,0,3,2,,,,,,,,,,,421.8623,422.3625,422.6119,423.4116,space,0.7863,,423.4117,72,43,424.4103,424.4104,424.9931,space,0.5624,,0,14,14,14,1,25,140,,,,,,,,
,,60c1dad7d8e907eb7ec06216,65af56691410b53e6cb3742e,2024-01-23_08h03.06.213,bars,2023.2.3,Win32,59.88023952,657b66ea316d21385b68909f,,,,,,,,,,,424.9934,425.9923,,,426.4921,426.7415,,109,109,,,,,,,,,,,,,,,,bars/007.png,bars/mask004.png,,,,,,,,,,,,0,2,,,,,,,5,2,4,3,,,,,,,,,,,425.9924,426.4921,426.7415,430.8111,space,4.0573,,430.8112,66,54,431.8042,431.8043,432.5876,space,0.7427,,0,15,15,15,1,175,55,,,,,,,,
,,60c1dad7d8e907eb7ec06216,65af56691410b53e6cb3742e,2024-01-23_08h03.06.213,bars,2023.2.3,Win32,59.88023952,657b66ea316d21385b68909f,,,,,,,,,,,432.588,433.5857,,,434.0854,434.3344,,132,132,,,,,,,,,,,,,,,,bars/049.png,bars/mask008.png,,,,,,,,,,,,1,2,,,,,,,7,4,8,3,,,,,,,,,,,433.5858,434.0854,434.3344,439.7473,space,5.4023,,439.7474,28,17,440.7505,440.7506,443.7596,space,2.9781,,0,16,16,16,1,160,115,,,,,,,,
,,60c1dad7d8e907eb7ec06216,65af56691410b53e6cb3742e,2024-01-23_08h03.06.213,bars,2023.2.3,Win32,59.88023952,657b66ea316d21385b68909f,,,,,,,,,,,443.7706,444.7609,,,445.2596,445.5091,,163,163,,,,,,,,,,,,,,,,bars/021.png,bars/mask002.png,,,,,,,,,,,,7,1,,,,,,,9,2,9,3,,,,,,,,,,,444.761,445.2595,445.5092,450.0074,space,4.4876,,450.0076,8,87,451.0055,451.0057,453.7388,space,2.6974,,0,17,17,17,1,155,70,,,,,,,,
,,60c1dad7d8e907eb7ec06216,65af56691410b53e6cb3742e,2024-01-23_08h03.06.213,bars,2023.2.3,Win32,59.88023952,657b66ea316d21385b68909f,,,,,,,,,,,453.7486,454.7521,,,455.2511,455.5007,,155,-25,,,,,,,,,,,,,,,,bars/021.png,bars/mask009.png,,,,,,,,,,,,10,1,,,,,,,10,0,10,1,,,,,,,,,,,454.7522,455.2511,455.5007,463.1777,space,7.6606,,463.1778,0,85,464.1759,464.176,466.7914,space,2.5817,,0,18,18,18,1,155,70,,,,,,,,
,,60c1dad7d8e907eb7ec06216,65af56691410b53e6cb3742e,2024-01-23_08h03.06.213,bars,2023.2.3,Win32,59.88023952,657b66ea316d21385b68909f,,,,,,,,,,,466.7925,467.7906,,,468.2917,468.5384,,14,194,,,,,,,,,,,,,,,,bars/023.png,bars/mask006.png,,,,,,,,,,,,6,1,,,,,,,10,0,7,0,,,,,,,,,,,467.7907,468.2916,468.5385,474.6352,space,6.0799,,474.6354,6,79,475.6321,475.6321,477.6306,space,1.974,,0,19,19,19,1,20,115,,,,,,,,
,,60c1dad7d8e907eb7ec06216,65af56691410b53e6cb3742e,2024-01-23_08h03.06.213,bars,2023.2.3,Win32,59.88023952,657b66ea316d21385b68909f,,,,,,,,,,,477.631,478.6294,,,479.129,479.3785,,140,140,,,,,,,,,,,,,,,,bars/030.png,bars/mask000.png,,,,,,,,,,,,7,1,,,,,,,8,2,7,3,,,,,,,,,,,478.6294,479.1289,479.3786,486.3406,space,6.9478,,486.3409,0,75,487.3394,487.3395,488.5543,space,1.1944,,0,20,20,20,1,140,65,,,,,,,,
,,60c1dad7d8e907eb7ec06216,65af56691410b53e6cb3742e,2024-01-23_08h03.06.213,bars,2023.2.3,Win32,59.88023952,657b66ea316d21385b68909f,,,,,,,,,,,488.5549,489.554,,,490.0527,490.2904,,20,20,,,,,,,,,,,,,,,,bars/026.png,bars/mask004.png,,,,,,,,,,,,5,1,,,,,,,10,4,10,4,,,,,,,,,,,489.554,490.0526,490.2904,493.7503,space,3.4479,,493.7504,15,65,494.7496,494.7497,496.0483,space,1.2605,,0,21,21,21,1,35,85,,,,,,,,
,,60c1dad7d8e907eb7ec06216,65af56691410b53e6cb3742e,2024-01-23_08h03.06.213,bars,2023.2.3,Win32,59.88023952,657b66ea316d21385b68909f,,,,,,,,,,,496.0488,497.0471,,,497.5463,497.7965,,85,85,,,,,,,,,,,,,,,,bars/012.png,bars/mask009.png,,,,,,,,,,,,6,1,,,,,,,8,2,7,2,,,,,,,,,,,497.0471,497.5463,497.7967,500.0324,space,2.224,,500.0326,5,70,501.0271,501.0274,502.3589,space,1.3125,,0,22,22,22,1,90,15,,,,,,,,
,,60c1dad7d8e907eb7ec06216,65af56691410b53e6cb3742e,2024-01-23_08h03.06.213,bars,2023.2.3,Win32,59.88023952,657b66ea316d21385b68909f,,,,,,,,,,,502.3593,503.3579,,,503.8584,504.1094,,165,-15,,,,,,,,,,,,,,,,bars/011.png,bars/mask008.png,,,,,,,,,,,,8,1,,,,,,,10,0,9,0,,,,,,,,,,,503.3581,503.8582,504.1096,508.6421,space,4.5214,,508.6421,5,80,509.636,509.6361,511.1026,space,1.445,,0,23,23,23,1,160,85,,,,,,,,
,,60c1dad7d8e907eb7ec06216,65af56691410b53e6cb3742e,2024-01-23_08h03.06.213,bars,2023.2.3,Win32,59.88023952,657b66ea316d21385b68909f,,,,,,,,,,,511.1036,512.1023,,,512.6001,512.8506,,69,69,,,,,,,,,,,,,,,,bars/010.png,bars/mask002.png,,,,,,,,,,,,0,2,,,,,,,10,0,10,0,,,,,,,,,,,512.1024,512.6001,512.8507,516.3299,space,3.4611,,516.3301,84,14,517.3293,517.3293,517.8467,space,0.4876,,0,24,24,24,1,165,55,,,,,,,,
,,60c1dad7d8e907eb7ec06216,65af56691410b53e6cb3742e,2024-01-23_08h03.06.213,bars,2023.2.3,Win32,59.88023952,657b66ea316d21385b68909f,,,,,,,,,,,517.8471,518.8444,,,519.3447,519.594,,119,119,,,,,,,,,,,,,,,,bars/008.png,bars/mask006.png,,,,,,,,,,,,6,1,,,,,,,8,0,8,2,,,,,,,,,,,518.8446,519.3447,519.594,522.7481,space,3.1406,,522.7482,9,61,523.7412,523.7413,524.84,space,1.0741,,0,25,25,25,1,110,0,,,,,,,,
,,60c1dad7d8e907eb7ec06216,65af56691410b53e6cb3742e,2024-01-23_08h03.06.213,bars,2023.2.3,Win32,59.88023952,657b66ea316d21385b68909f,,,,,,,,,,,524.8404,525.84,,,526.3385,526.5882,,27,27,,,,,,,,,,,,,,,,bars/006.png,bars/mask008.png,,,,,,,,,,,,7,1,,,,,,,10,0,10,2,,,,,,,,,,,525.8402,526.3385,526.5883,532.5499,space,5.9481,,532.5499,8,73,533.5488,533.5488,534.3494,space,0.7715,,0,26,26,26,1,35,100,,,,,,,,
,,60c1dad7d8e907eb7ec06216,65af56691410b53e6cb3742e,2024-01-23_08h03.06.213,bars,2023.2.3,Win32,59.88023952,657b66ea316d21385b68909f,,,,,,,,,,,534.3501,535.3467,,,535.8469,536.1004,,8,8,,,,,,,,,,,,,,,,bars/003.png,bars/mask000.png,,,,,,,,,,,,3,1,,,,,,,8,2,6,2,,,,,,,,,,,535.3468,535.8469,536.1006,539.6262,space,3.5105,,539.6264,17,48,540.6252,540.6253,542.4246,space,1.7797,,0,27,27,27,1,25,140,,,,,,,,
,,60c1dad7d8e907eb7ec06216,65af56691410b53e6cb3742e,2024-01-23_08h03.06.213,bars,2023.2.3,Win32,59.88023952,657b66ea316d21385b68909f,,,,,,,,,,,542.425,543.4232,,,543.9222,544.1726,,123,123,,,,,,,,,,,,,,,,bars/001.png,bars/mask003.png,,,,,,,,,,,,5,1,,,,,,,6,4,6,4,,,,,,,,,,,543.4234,543.9222,544.1726,550.867,space,6.6764,,550.8673,7,38,551.8658,551.8658,553.6496,space,1.7566,,0,28,28,28,1,130,85,,,,,,,,
,,60c1dad7d8e907eb7ec06216,65af56691410b53e6cb3742e,2024-01-23_08h03.06.213,bars,2023.2.3,Win32,59.88023952,657b66ea316d21385b68909f,,,,,,,,,,,553.6504,554.647,,,555.1464,555.3963,,97,-83,,,,,,,,,,,,,,,,bars/025.png,bars/mask007.png,,,,,,,,,,,,4,1,,,,,,,4,6,5,7,,,,,,,,,,,554.6471,555.1463,555.3963,560.5094,space,5.0978,,560.5096,8,57,561.5086,561.5087,562.8244,space,1.2918,,0,29,29,29,1,105,40,,,,,,,,
,,60c1dad7d8e907eb7ec06216,65af56691410b53e6cb3742e,2024-01-23_08h03.06.213,bars,2023.2.3,Win32,59.88023952,657b66ea316d21385b68909f,,,,,,,,,,,562.8256,563.822,,,564.3248,564.5745,,131,131,,,,,,,,,,,,,,,,bars/028.png,bars/mask002.png,,,,,,,,,,,,5,2,,,,,,,6,8,7,8,,,,,,,,,,,563.822,564.3247,564.5747,570.9325,space,6.345,,570.9326,86,11,571.9315,571.9317,573.7799,space,1.8214,,0,30,30,30,1,45,120,,,,,,,,
,,60c1dad7d8e907eb7ec06216,65af56691410b53e6cb3742e,2024-01-23_08h03.06.213,bars,2023.2.3,Win32,59.88023952,657b66ea316d21385b68909f,,,,,,,,,,,573.7805,574.7796,,,575.2787,575.5321,,26,26,,,,,,,,,,,,,,,,bars/019.png,bars/mask009.png,,,,,,,,,,,,3,1,,,,,,,8,6,7,6,,,,,,,,,,,574.7796,575.2787,575.5323,581.8402,space,6.2971,,581.8403,19,79,582.8388,582.8389,584.2379,space,1.3631,,0,31,31,31,1,45,105,,,,,,,,
,,60c1dad7d8e907eb7ec06216,65af56691410b53e6cb3742e,2024-01-23_08h03.06.213,bars,2023.2.3,Win32,59.88023952,657b66ea316d21385b68909f,,,,,,,,,,,584.2399,585.2365,,,585.7365,585.9865,,4,4,,,,,,,,,,,,,,,,bars/014.png,bars/mask005.png,,,,,,,,,,,,3,2,,,,,,,6,4,7,3,,,,,,,,,,,585.2366,585.7363,585.9867,589.7328,space,3.7295,,589.7328,76,4,590.7319,590.732,592.202,space,1.4406,,0,32,32,32,1,80,0,,,,,,,,
,,60c1dad7d8e907eb7ec06216,65af56691410b53e6cb3742e,2024-01-23_08h03.06.213,bars,2023.2.3,Win32,59.88023952,657b66ea316d21385b68909f,,,,,,,,,,,592.2036,593.1969,,,593.6962,593.9491,,58,58,,,,,,,,,,,,,,,,bars/029.png,bars/mask005.png,,,,,,,,,,,,2,2,,,,,,,8,6,8,4,,,,,,,,,,,593.1969,593.6961,593.9493,597.2278,space,3.2693,,597.228,32,13,598.2253,598.2254,599.7575,space,1.5094,,0,33,33,33,1,90,45,,,,,,,,
,,60c1dad7d8e907eb7ec06216,65af56691410b53e6cb3742e,2024-01-23_08h03.06.213,bars,2023.2.3,Win32,59.88023952,657b66ea316d21385b68909f,,,,,,,,,,,599.7578,600.7573,,,601.2465,601.4886,,142,142,,,,,,,,,,,,,,,,bars/040.png,bars/mask003.png,,,,,,,,,,,,9,1,,,,,,,10,8,10,7,,,,,,,,,,,600.7574,601.2464,601.4888,608.4167,space,6.9134,,608.4167,2,43,609.4164,609.4165,610.7816,space,1.3291,,0,34,34,34,1,140,5,,,,,,,,
,,60c1dad7d8e907eb7ec06216,65af56691410b53e6cb3742e,2024-01-23_08h03.06.213,bars,2023.2.3,Win32,59.88023952,657b66ea316d21385b68909f,,,,,,,,,,,610.7821,611.7806,,,612.2825,612.53,,164,164,,,,,,,,,,,,,,,,bars/042.png,bars/mask003.png,,,,,,,,,,,,2,1,,,,,,,8,10,6,10,,,,,,,,,,,611.7806,612.2825,612.5301,618.0432,space,5.501,,618.0432,19,89,619.0405,619.0406,619.9413,space,0.8755,,0,35,35,35,1,145,75,,,,,,,,
,,60c1dad7d8e907eb7ec06216,65af56691410b53e6cb3742e,2024-01-23_08h03.06.213,bars,2023.2.3,Win32,59.88023952,657b66ea316d21385b68909f,,,,,,,,,,,619.942,620.9394,,,621.4384,621.6934,,171,171,,,,,,,,,,,,,,,,bars/036.png,bars/mask009.png,,,,,,,,,,,,1,1,,,,,,,6,8,7,8,,,,,,,,,,,620.9395,621.4383,621.6936,625.3352,space,3.6288,,625.3352,26,29,626.3347,626.3349,627.3834,space,1.0015,,0,36,36,36,1,145,20,,,,,,,,
,,60c1dad7d8e907eb7ec06216,65af56691410b53e6cb3742e,2024-01-23_08h03.06.213,bars,2023.2.3,Win32,59.88023952,657b66ea316d21385b68909f,,,,,,,,,,,627.3839,628.3828,,,628.8821,629.1326,,38,38,,,,,,,,,,,,,,,,bars/044.png,bars/mask001.png,,,,,,,,,,,,0,1,,,,,,,4,6,4,6,,,,,,,,,,,628.383,628.8821,629.1326,630.2473,space,1.0991,,630.2475,37,63,631.2463,631.2465,632.6033,space,1.3422,,0,37,37,37,1,75,155,,,,,,,,
,,60c1dad7d8e907eb7ec06216,65af56691410b53e6cb3742e,2024-01-23_08h03.06.213,bars,2023.2.3,Win32,59.88023952,657b66ea316d21385b68909f,,,,,,,,,,,632.6041,633.5949,,,634.0938,634.3441,,69,69,,,,,,,,,,,,,,,,bars/014.png,bars/mask002.png,,,,,,,,,,,,4,1,,,,,,,6,4,6,4,,,,,,,,,,,633.5951,634.0937,634.3441,638.2407,space,3.8816,,638.2407,11,69,639.2406,639.2407,640.6726,space,1.4024,,0,38,38,38,1,80,0,,,,,,,,
,,60c1dad7d8e907eb7ec06216,65af56691410b53e6cb3742e,2024-01-23_08h03.06.213,bars,2023.2.3,Win32,59.88023952,657b66ea316d21385b68909f,,,,,,,,,,,640.6731,641.671,,,642.171,642.4197,,67,67,,,,,,,,,,,,,,,,bars/048.png,bars/mask002.png,,,,,,,,,,,,3,1,,,,,,,8,6,7,6,,,,,,,,,,,641.6711,642.1707,642.4198,642.6699,space,0.2337,,642.6702,17,72,643.669,643.6691,644.8694,space,1.1835,,0,39,39,39,1,50,175,,,,,,,,
,,60c1dad7d8e907eb7ec06216,65af56691410b53e6cb3742e,2024-01-23_08h03.06.213,bars,2023.2.3,Win32,59.88023952,657b66ea316d21385b68909f,,,,,,,,,,,644.8703,645.868,,,646.3663,646.6167,,150,150,,,,,,,,,,,,,,,,bars/040.png,bars/mask008.png,,,,,,,,,,,,6,1,,,,,,,10,4,9,3,,,,,,,,,,,645.868,646.3661,646.6168,651.4124,space,4.7795,,651.4125,10,35,652.4116,652.4116,653.6333,space,1.2033,,0,40,40,40,1,140,5,,,,,,,,
,,60c1dad7d8e907eb7ec06216,65af56691410b53e6cb3742e,2024-01-23_08h03.06.213,bars,2023.2.3,Win32,59.88023952,657b66ea316d21385b68909f,,,,,,,,,,,653.6337,654.6271,,,655.1259,655.3752,,135,135,,,,,,,,,,,,,,,,bars/027.png,bars/mask006.png,,,,,,,,,,,,1,1,,,,,,,8,2,9,0,,,,,,,,,,,654.6272,655.1259,655.3752,661.2043,space,5.8105,,661.2045,25,85,662.2054,662.2055,663.154,space,0.9231,,0,41,41,41,1,110,50,,,,,,,,
,,60c1dad7d8e907eb7ec06216,65af56691410b53e6cb3742e,2024-01-23_08h03.06.213,bars,2023.2.3,Win32,59.88023952,657b66ea316d21385b68909f,,,,,,,,,,,663.1561,664.1527,,,664.6504,664.9014,,73,73,,,,,,,,,,,,,,,,bars/025.png,bars/mask009.png,,,,,,,,,,,,0,1,,,,,,,10,0,10,0,,,,,,,,,,,664.1529,664.6503,664.9015,665.9994,space,1.0835,,665.9995,32,33,666.9996,666.9997,667.7069,space,0.6925,,0,42,42,42,1,105,40,,,,,,,,
,,60c1dad7d8e907eb7ec06216,65af56691410b53e6cb3742e,2024-01-23_08h03.06.213,bars,2023.2.3,Win32,59.88023952,657b66ea316d21385b68909f,,,,,,,,,,,667.7079,668.6978,,,669.197,669.4466,,13,193,,,,,,,,,,,,,,,,bars/017.png,bars/mask006.png,,,,,,,,,,,,0,2,,,,,,,8,2,8,2,,,,,,,,,,,668.6979,669.197,669.4466,671.1125,space,1.6495,,671.1127,48,32,672.1105,672.1107,672.5277,space,0.3927,,0,43,43,43,1,145,45,,,,,,,,
,,60c1dad7d8e907eb7ec06216,65af56691410b53e6cb3742e,2024-01-23_08h03.06.213,bars,2023.2.3,Win32,59.88023952,657b66ea316d21385b68909f,,,,,,,,,,,672.5283,673.527,,,674.0293,674.2753,,61,61,,,,,,,,,,,,,,,,bars/029.png,bars/mask000.png,,,,,,,,,,,,0,2,,,,,,,10,0,10,1,,,,,,,,,,,673.5271,674.0292,674.2754,679.7889,space,5.4963,,679.7891,29,16,680.7877,680.7878,682.3031,space,1.4917,,0,44,44,44,1,90,45,,,,,,,,
,,60c1dad7d8e907eb7ec06216,65af56691410b53e6cb3742e,2024-01-23_08h03.06.213,bars,2023.2.3,Win32,59.88023952,657b66ea316d21385b68909f,,,,,,,,,,,682.3042,683.3014,,,683.8014,684.0502,,138,138,,,,,,,,,,,,,,,,bars/034.png,bars/mask000.png,,,,,,,,,,,,5,1,,,,,,,8,0,8,0,,,,,,,,,,,683.3014,683.8014,684.0502,687.2977,space,3.2314,,687.2978,13,73,688.2967,688.2967,688.6631,space,0.3415,,0,45,45,45,1,125,65,,,,,,,,
,,60c1dad7d8e907eb7ec06216,65af56691410b53e6cb3742e,2024-01-23_08h03.06.213,bars,2023.2.3,Win32,59.88023952,657b66ea316d21385b68909f,,,,,,,,,,,688.6634,689.6621,,,690.1616,690.4117,,86,86,,,,,,,,,,,,,,,,bars/012.png,bars/mask001.png,,,,,,,,,,,,9,1,,,,,,,10,2,10,3,,,,,,,,,,,689.6621,690.1616,690.4119,691.278,space,0.8499,,691.2781,4,71,692.2763,692.2763,692.8098,space,0.5183,,0,46,46,46,1,90,15,,,,,,,,
,,60c1dad7d8e907eb7ec06216,65af56691410b53e6cb3742e,2024-01-23_08h03.06.213,bars,2023.2.3,Win32,59.88023952,657b66ea316d21385b68909f,,,,,,,,,,,692.8104,693.8093,,,694.3093,694.5586,,162,162,,,,,,,,,,,,,,,,bars/049.png,bars/mask006.png,,,,,,,,,,,,7,1,,,,,,,8,0,8,0,,,,,,,,,,,693.8094,694.3091,694.5588,700.0875,space,5.5095,,700.0876,2,47,701.0854,701.0855,702.0521,space,0.9413,,0,47,47,47,1,160,115,,,,,,,,
,,60c1dad7d8e907eb7ec06216,65af56691410b53e6cb3742e,2024-01-23_08h03.06.213,bars,2023.2.3,Win32,59.88023952,657b66ea316d21385b68909f,,,,,,,,,,,702.0528,703.0503,,,703.5503,703.8016,,124,124,,,,,,,,,,,,,,,,bars/045.png,bars/mask001.png,,,,,,,,,,,,1,1,,,,,,,6,2,5,5,,,,,,,,,,,703.0504,703.5503,703.8017,709.3155,space,5.4953,,709.3158,24,66,710.3109,710.3109,711.6195,space,1.2818,,0,48,48,48,1,100,10,,,,,,,,
,,60c1dad7d8e907eb7ec06216,65af56691410b53e6cb3742e,2024-01-23_08h03.06.213,bars,2023.2.3,Win32,59.88023952,657b66ea316d21385b68909f,,,,,,,,,,,711.6201,712.6092,,,713.1084,713.3588,,21,21,,,,,,,,,,,,,,,,bars/047.png,bars/mask006.png,,,,,,,,,,,,6,1,,,,,,,8,4,8,4,,,,,,,,,,,712.6093,713.1083,713.3589,715.5418,space,2.1718,,715.5419,6,49,716.5389,716.5389,717.8922,space,1.3271,,0,49,49,49,1,15,70,,,,,,,,
,,60c1dad7d8e907eb7ec06216,65af56691410b53e6cb3742e,2024-01-23_08h03.06.213,bars,2023.2.3,Win32,59.88023952,657b66ea316d21385b68909f,,,,,,,,,,,,,,,,,,,,,,,,,,,,,,,,,,,,,,,,,,,,,,,,,,,,,,,,,,,,,,,,,,,,,,,,,,,,,,,,,,,,,,,,,,,,,717.8954,777.888,0,0,0,0,1,sequence_tables/blk004.csv
,,60c1dad7d8e907eb7ec06216,65af56691410b53e6cb3742e,2024-01-23_08h03.06.213,bars,2023.2.3,Win32,59.88023952,657b66ea316d21385b68909f,,,,,,,,,,,784.2278,785.2289,,,785.7161,785.9618,,124,124,,,,,,,,,,,,,,,,bars/028.png,bars/mask008.png,,,,,,,,,,,,3,2,,,,,,,9,4,9,4,,,,,,777.9016,784.2131,space,6.2977,,785.229,785.716,785.9618,790.6644,space,4.6825,,790.6645,79,4,791.6573,791.6573,791.6812,,,,0,0,0,0,1,45,120,,,,,,,,
,,60c1dad7d8e907eb7ec06216,65af56691410b53e6cb3742e,2024-01-23_08h03.06.213,bars,2023.2.3,Win32,59.88023952,657b66ea316d21385b68909f,,,,,,,,,,,791.6815,792.6735,,,793.1725,793.4221,,141,141,,,,,,,,,,,,,,,,bars/034.png,bars/mask000.png,,,,,,,,,,,,3,1,,,,,,,7,2,7,0,,,,,,,,,,,792.6736,793.1723,793.4222,800.4323,space,6.9934,,800.4324,16,76,801.4339,801.4342,801.4464,,,,0,1,1,1,1,125,65,,,,,,,,
,,60c1dad7d8e907eb7ec06216,65af56691410b53e6cb3742e,2024-01-23_08h03.06.213,bars,2023.2.3,Win32,59.88023952,657b66ea316d21385b68909f,,,,,,,,,,,801.4467,802.4471,,,802.9471,803.1968,,23,23,,,,,,,,,,,,,,,,bars/012.png,bars/mask005.png,,,,,,,,,,,,1,2,,,,,,,9,0,8,1,,,,,,,,,,,802.4472,802.9471,803.1969,810.1913,space,6.9766,,810.1914,67,8,811.1898,811.1899,811.2027,,,,0,2,2,2,1,90,15,,,,,,,,
,,60c1dad7d8e907eb7ec06216,65af56691410b53e6cb3742e,2024-01-23_08h03.06.213,bars,2023.2.3,Win32,59.88023952,657b66ea316d21385b68909f,,,,,,,,,,,811.2029,812.2061,,,812.7046,812.9554,,165,165,,,,,,,,,,,,,,,,bars/018.png,bars/mask003.png,,,,,,,,,,,,4,1,,,,,,,7,2,8,2,,,,,,,,,,,812.2062,812.7046,812.9554,815.6867,space,2.717,,815.6868,15,75,816.6851,816.6852,816.7025,,,,0,3,3,3,1,150,90,,,,,,,,
,,60c1dad7d8e907eb7ec06216,65af56691410b53e6cb3742e,2024-01-23_08h03.06.213,bars,2023.2.3,Win32,59.88023952,657b66ea316d21385b68909f,,,,,,,,,,,816.7027,817.7054,,,818.2006,818.45,,12,12,,,,,,,,,,,,,,,,bars/003.png,bars/mask005.png,,,,,,,,,,,,5,1,,,,,,,9,4,9,4,,,,,,,,,,,817.7055,818.2005,818.4501,821.4372,space,2.9717,,821.4375,13,52,822.4306,822.4307,822.4484,,,,0,4,4,4,1,25,140,,,,,,,,
,,60c1dad7d8e907eb7ec06216,65af56691410b53e6cb3742e,2024-01-23_08h03.06.213,bars,2023.2.3,Win32,59.88023952,657b66ea316d21385b68909f,,,,,,,,,,,822.4491,823.4474,,,823.9456,824.1949,,87,87,,,,,,,,,,,,,,,,bars/037.png,bars/mask007.png,,,,,,,,,,,,2,2,,,,,,,10,6,10,6,,,,,,,,,,,823.4475,823.9455,824.1949,826.6765,space,2.4652,,826.6766,63,18,827.6772,827.6772,827.7059,,,,0,5,5,5,1,150,105,,,,,,,,
,,60c1dad7d8e907eb7ec06216,65af56691410b53e6cb3742e,2024-01-23_08h03.06.213,bars,2023.2.3,Win32,59.88023952,657b66ea316d21385b68909f,,,,,,,,,,,827.7064,828.7079,,,829.2073,829.4596,,15,15,,,,,,,,,,,,,,,,bars/022.png,bars/mask005.png,,,,,,,,,,,,5,2,,,,,,,8,4,9,6,,,,,,,,,,,828.708,829.2073,829.4597,835.6038,space,6.1296,,835.6039,80,5,836.6038,836.604,836.6239,,,,0,6,6,6,1,95,20,,,,,,,,
,,60c1dad7d8e907eb7ec06216,65af56691410b53e6cb3742e,2024-01-23_08h03.06.213,bars,2023.2.3,Win32,59.88023952,657b66ea316d21385b68909f,,,,,,,,,,,836.624,837.6177,,,838.1167,838.3685,,170,-10,,,,,,,,,,,,,,,,bars/020.png,bars/mask002.png,,,,,,,,,,,,2,2,,,,,,,10,2,10,2,,,,,,,,,,,837.6177,838.1166,838.3686,843.5468,space,5.1659,,843.547,55,0,844.5439,844.544,844.5544,,,,0,7,7,7,1,115,170,,,,,,,,
,,60c1dad7d8e907eb7ec06216,65af56691410b53e6cb3742e,2024-01-23_08h03.06.213,bars,2023.2.3,Win32,59.88023952,657b66ea316d21385b68909f,,,,,,,,,,,844.5546,845.5452,,,846.046,846.2935,,49,49,,,,,,,,,,,,,,,,bars/043.png,bars/mask006.png,,,,,,,,,,,,4,1,,,,,,,10,4,10,4,,,,,,,,,,,845.5454,846.0459,846.2936,847.3418,space,1.0376,,847.3419,19,81,848.3407,848.3407,848.3457,,,,0,8,8,8,1,30,130,,,,,,,,
,,60c1dad7d8e907eb7ec06216,65af56691410b53e6cb3742e,2024-01-23_08h03.06.213,bars,2023.2.3,Win32,59.88023952,657b66ea316d21385b68909f,,,,,,,,,,,848.3464,849.3403,,,849.8409,850.09,,169,-11,,,,,,,,,,,,,,,,bars/039.png,bars/mask001.png,,,,,,,,,,,,5,1,,,,,,,8,6,6,5,,,,,,,,,,,849.3403,849.8408,850.09,852.3215,space,2.22,,852.3216,6,64,853.3212,853.3213,853.3312,,,,0,9,9,9,1,175,105,,,,,,,,
,,60c1dad7d8e907eb7ec06216,65af56691410b53e6cb3742e,2024-01-23_08h03.06.213,bars,2023.2.3,Win32,59.88023952,657b66ea316d21385b68909f,,,,,,,,,,,853.3313,854.3204,,,854.8193,855.0717,,50,50,,,,,,,,,,,,,,,,bars/022.png,bars/mask004.png,,,,,,,,,,,,0,2,,,,,,,6,4,6,5,,,,,,,,,,,854.3205,854.8193,855.0718,859.8481,space,4.7648,,859.8482,45,30,860.8476,860.8478,860.877,,,,0,10,10,10,1,95,20,,,,,,,,
,,60c1dad7d8e907eb7ec06216,65af56691410b53e6cb3742e,2024-01-23_08h03.06.213,bars,2023.2.3,Win32,59.88023952,657b66ea316d21385b68909f,,,,,,,,,,,860.8773,861.8796,,,862.3782,862.6291,,147,-33,,,,,,,,,,,,,,,,bars/007.png,bars/mask006.png,,,,,,,,,,,,0,1,,,,,,,4,2,3,2,,,,,,,,,,,861.8796,862.3782,862.6292,865.0758,space,2.4305,,865.076,28,88,866.0754,866.0754,866.0967,,,,0,11,11,11,1,175,55,,,,,,,,
,,60c1dad7d8e907eb7ec06216,65af56691410b53e6cb3742e,2024-01-23_08h03.06.213,bars,2023.2.3,Win32,59.88023952,657b66ea316d21385b68909f,,,,,,,,,,,866.0969,867.0911,,,867.5902,867.8419,,80,80,,,,,,,,,,,,,,,,bars/043.png,bars/mask005.png,,,,,,,,,,,,0,2,,,,,,,2,0,3,2,,,,,,,,,,,867.0912,867.5901,867.842,871.1544,space,3.2983,,871.1544,50,50,872.1551,872.1552,872.1694,,,,0,12,12,12,1,30,130,,,,,,,,
,,60c1dad7d8e907eb7ec06216,65af56691410b53e6cb3742e,2024-01-23_08h03.06.213,bars,2023.2.3,Win32,59.88023952,657b66ea316d21385b68909f,,,,,,,,,,,872.1697,873.1726,,,873.6693,873.9188,,105,105,,,,,,,,,,,,,,,,bars/039.png,bars/mask007.png,,,,,,,,,,,,0,2,,,,,,,4,0,4,0,,,,,,,,,,,873.1729,873.6693,873.9188,876.9825,space,3.0516,,876.9828,70,0,877.9813,877.9814,877.9931,,,,0,13,13,13,1,175,105,,,,,,,,
,,60c1dad7d8e907eb7ec06216,65af56691410b53e6cb3742e,2024-01-23_08h03.06.213,bars,2023.2.3,Win32,59.88023952,657b66ea316d21385b68909f,,,,,,,,,,,877.9934,878.9976,,,879.4964,879.7478,,126,126,,,,,,,,,,,,,,,,bars/004.png,bars/mask009.png,,,,,,,,,,,,2,2,,,,,,,6,2,5,2,,,,,,,,,,,878.9984,879.4963,879.748,884.7767,space,5.0132,,884.7767,79,1,885.7747,885.7749,885.7867,,,,0,14,14,14,1,25,125,,,,,,,,
,,60c1dad7d8e907eb7ec06216,65af56691410b53e6cb3742e,2024-01-23_08h03.06.213,bars,2023.2.3,Win32,59.88023952,657b66ea316d21385b68909f,,,,,,,,,,,885.7869,886.791,,,887.2905,887.5405,,132,132,,,,,,,,,,,,,,,,bars/049.png,bars/mask004.png,,,,,,,,,,,,3,2,,,,,,,8,4,10,6,,,,,,,,,,,886.791,887.2904,887.5405,890.637,space,3.0821,,890.6371,28,17,891.6379,891.6379,891.6605,,,,0,15,15,15,1,160,115,,,,,,,,
,,60c1dad7d8e907eb7ec06216,65af56691410b53e6cb3742e,2024-01-23_08h03.06.213,bars,2023.2.3,Win32,59.88023952,657b66ea316d21385b68909f,,,,,,,,,,,891.6608,892.6518,,,893.1555,893.4027,,143,143,,,,,,,,,,,,,,,,bars/034.png,bars/mask002.png,,,,,,,,,,,,4,1,,,,,,,10,6,10,7,,,,,,,,,,,892.6519,893.1554,893.4027,899.3967,space,5.9796,,899.3969,18,78,900.3955,900.3957,900.4212,,,,0,16,16,16,1,125,65,,,,,,,,
,,60c1dad7d8e907eb7ec06216,65af56691410b53e6cb3742e,2024-01-23_08h03.06.213,bars,2023.2.3,Win32,59.88023952,657b66ea316d21385b68909f,,,,,,,,,,,900.4214,901.413,,,901.9115,902.1614,,170,170,,,,,,,,,,,,,,,,bars/011.png,bars/mask000.png,,,,,,,,,,,,5,1,,,,,,,8,4,8,5,,,,,,,,,,,901.413,901.9114,902.1615,906.7573,space,4.5805,,906.7574,10,85,907.7554,907.7555,907.7672,,,,0,17,17,17,1,160,85,,,,,,,,
,,60c1dad7d8e907eb7ec06216,65af56691410b53e6cb3742e,2024-01-23_08h03.06.213,bars,2023.2.3,Win32,59.88023952,657b66ea316d21385b68909f,,,,,,,,,,,907.7674,908.7727,,,909.2705,909.5204,,64,64,,,,,,,,,,,,,,,,bars/012.png,bars/mask004.png,,,,,,,,,,,,1,1,,,,,,,6,6,5,6,,,,,,,,,,,908.7727,909.2705,909.5205,911.8694,space,2.3355,,911.8696,26,49,912.868,912.868,912.8996,,,,0,18,18,18,1,90,15,,,,,,,,
,,60c1dad7d8e907eb7ec06216,65af56691410b53e6cb3742e,2024-01-23_08h03.06.213,bars,2023.2.3,Win32,59.88023952,657b66ea316d21385b68909f,,,,,,,,,,,912.9003,913.9004,,,914.4002,914.6514,,177,-3,,,,,,,,,,,,,,,,bars/007.png,bars/mask005.png,,,,,,,,,,,,7,1,,,,,,,8,8,8,8,,,,,,,,,,,913.9004,914.4001,914.6515,918.1631,space,3.4959,,918.1633,2,58,919.163,919.163,919.1733,,,,0,19,19,19,1,175,55,,,,,,,,
,,60c1dad7d8e907eb7ec06216,65af56691410b53e6cb3742e,2024-01-23_08h03.06.213,bars,2023.2.3,Win32,59.88023952,657b66ea316d21385b68909f,,,,,,,,,,,919.1735,920.162,,,920.6615,920.9122,,147,147,,,,,,,,,,,,,,,,bars/037.png,bars/mask004.png,,,,,,,,,,,,9,1,,,,,,,10,6,10,5,,,,,,,,,,,920.1621,920.6608,920.9123,925.0079,space,4.0823,,925.0082,3,42,926.0059,926.006,926.0175,,,,0,20,20,20,1,150,105,,,,,,,,
,,60c1dad7d8e907eb7ec06216,65af56691410b53e6cb3742e,2024-01-23_08h03.06.213,bars,2023.2.3,Win32,59.88023952,657b66ea316d21385b68909f,,,,,,,,,,,926.0177,927.0056,,,927.505,927.7549,,153,153,,,,,,,,,,,,,,,,bars/030.png,bars/mask003.png,,,,,,,,,,,,5,1,,,,,,,8,8,8,8,,,,,,,,,,,927.0056,927.505,927.7549,931.2765,space,3.5087,,931.2766,13,88,932.2672,932.2672,932.2783,,,,0,21,21,21,1,140,65,,,,,,,,
,,60c1dad7d8e907eb7ec06216,65af56691410b53e6cb3742e,2024-01-23_08h03.06.213,bars,2023.2.3,Win32,59.88023952,657b66ea316d21385b68909f,,,,,,,,,,,932.2785,933.2672,,,933.7664,934.0161,,7,187,,,,,,,,,,,,,,,,bars/010.png,bars/mask000.png,,,,,,,,,,,,1,1,,,,,,,6,10,4,10,,,,,,,,,,,933.2672,933.7662,934.0162,935.6665,space,1.634,,935.6666,22,48,936.6639,936.664,936.6935,,,,0,22,22,22,1,165,55,,,,,,,,
,,60c1dad7d8e907eb7ec06216,65af56691410b53e6cb3742e,2024-01-23_08h03.06.213,bars,2023.2.3,Win32,59.88023952,657b66ea316d21385b68909f,,,,,,,,,,,936.6941,937.6965,,,938.201,938.4451,,49,49,,,,,,,,,,,,,,,,bars/033.png,bars/mask008.png,,,,,,,,,,,,1,1,,,,,,,4,10,4,9,,,,,,,,,,,937.6966,938.2007,938.4451,939.5294,space,1.0673,,939.5294,24,74,940.5293,940.5295,940.5321,,,,0,23,23,23,1,25,155,,,,,,,,
,,60c1dad7d8e907eb7ec06216,65af56691410b53e6cb3742e,2024-01-23_08h03.06.213,bars,2023.2.3,Win32,59.88023952,657b66ea316d21385b68909f,,,,,,,,,,,940.533,941.5267,,,942.0261,942.2754,,33,213,,,,,,,,,,,,,,,,bars/046.png,bars/mask002.png,,,,,,,,,,,,0,2,,,,,,,6,8,7,8,,,,,,,,,,,941.5268,942.0259,942.2754,948.3542,space,6.0654,,948.3546,58,52,949.3527,949.3527,949.3672,,,,0,24,24,24,1,155,85,,,,,,,,
,,60c1dad7d8e907eb7ec06216,65af56691410b53e6cb3742e,2024-01-23_08h03.06.213,bars,2023.2.3,Win32,59.88023952,657b66ea316d21385b68909f,,,,,,,,,,,949.3675,950.3683,,,950.8693,951.1179,,92,92,,,,,,,,,,,,,,,,bars/045.png,bars/mask000.png,,,,,,,,,,,,7,1,,,,,,,8,6,9,4,,,,,,,,,,,950.3684,950.8692,951.118,952.1711,space,1.04,,952.1711,8,82,953.1658,953.1659,953.1728,,,,0,25,25,25,1,100,10,,,,,,,,
,,60c1dad7d8e907eb7ec06216,65af56691410b53e6cb3742e,2024-01-23_08h03.06.213,bars,2023.2.3,Win32,59.88023952,657b66ea316d21385b68909f,,,,,,,,,,,953.1731,954.1665,,,954.6648,954.9144,,87,87,,,,,,,,,,,,,,,,bars/022.png,bars/mask008.png,,,,,,,,,,,,7,1,,,,,,,10,4,10,5,,,,,,,,,,,954.1666,954.6648,954.9145,959.4611,space,4.532,,959.4612,8,67,960.461,960.461,960.4761,,,,0,26,26,26,1,95,20,,,,,,,,
,,60c1dad7d8e907eb7ec06216,65af56691410b53e6cb3742e,2024-01-23_08h03.06.213,bars,2023.2.3,Win32,59.88023952,657b66ea316d21385b68909f,,,,,,,,,,,960.4763,961.476,,,961.9748,962.2257,,5,5,,,,,,,,,,,,,,,,bars/031.png,bars/mask006.png,,,,,,,,,,,,0,2,,,,,,,8,6,9,5,,,,,,,,,,,961.4761,961.9747,962.2259,962.8245,space,0.5859,,962.8247,65,30,963.8232,963.8232,963.8298,,,,0,27,27,27,1,120,35,,,,,,,,
,,60c1dad7d8e907eb7ec06216,65af56691410b53e6cb3742e,2024-01-23_08h03.06.213,bars,2023.2.3,Win32,59.88023952,657b66ea316d21385b68909f,,,,,,,,,,,963.8305,964.8239,,,965.3125,965.5551,,140,140,,,,,,,,,,,,,,,,bars/038.png,bars/mask009.png,,,,,,,,,,,,2,1,,,,,,,10,8,10,10,,,,,,,,,,,964.8239,965.3123,965.5552,968.5696,space,3.0005,,968.5696,25,70,969.5712,969.5714,969.6054,,,,0,28,28,28,1,165,70,,,,,,,,
,,60c1dad7d8e907eb7ec06216,65af56691410b53e6cb3742e,2024-01-23_08h03.06.213,bars,2023.2.3,Win32,59.88023952,657b66ea316d21385b68909f,,,,,,,,,,,969.6059,970.6018,,,971.1017,971.3502,,168,168,,,,,,,,,,,,,,,,bars/036.png,bars/mask003.png,,,,,,,,,,,,2,1,,,,,,,8,6,10,6,,,,,,,,,,,970.6019,971.1017,971.3503,977.0291,space,5.6622,,977.0291,23,32,978.0279,978.0281,978.0416,,,,0,29,29,29,1,145,20,,,,,,,,
,,60c1dad7d8e907eb7ec06216,65af56691410b53e6cb3742e,2024-01-23_08h03.06.213,bars,2023.2.3,Win32,59.88023952,657b66ea316d21385b68909f,,,,,,,,,,,978.0418,979.0436,,,979.5441,979.7929,,137,137,,,,,,,,,,,,,,,,bars/008.png,bars/mask001.png,,,,,,,,,,,,1,1,,,,,,,6,8,7,9,,,,,,,,,,,979.0436,979.544,979.7929,984.5739,space,4.7637,,984.5739,27,43,985.5712,985.5712,985.5826,,,,0,30,30,30,1,110,0,,,,,,,,
,,60c1dad7d8e907eb7ec06216,65af56691410b53e6cb3742e,2024-01-23_08h03.06.213,bars,2023.2.3,Win32,59.88023952,657b66ea316d21385b68909f,,,,,,,,,,,985.5828,986.5705,,,987.07,987.3193,,88,88,,,,,,,,,,,,,,,,bars/012.png,bars/mask001.png,,,,,,,,,,,,3,1,,,,,,,4,6,3,6,,,,,,,,,,,986.5705,987.07,987.3194,991.0524,space,3.7145,,991.0526,2,73,992.0492,992.0492,992.0733,,,,0,31,31,31,1,90,15,,,,,,,,
,,60c1dad7d8e907eb7ec06216,65af56691410b53e6cb3742e,2024-01-23_08h03.06.213,bars,2023.2.3,Win32,59.88023952,657b66ea316d21385b68909f,,,,,,,,,,,992.0736,993.0652,,,993.5647,993.8157,,36,36,,,,,,,,,,,,,,,,bars/043.png,bars/mask001.png,,,,,,,,,,,,4,1,,,,,,,6,4,5,3,,,,,,,,,,,993.0652,993.5646,993.8157,996.4783,space,2.6517,,996.4784,6,86,997.4771,997.4772,997.4876,,,,0,32,32,32,1,30,130,,,,,,,,
,,60c1dad7d8e907eb7ec06216,65af56691410b53e6cb3742e,2024-01-23_08h03.06.213,bars,2023.2.3,Win32,59.88023952,657b66ea316d21385b68909f,,,,,,,,,,,997.4878,998.4781,,,998.9775,999.2259,,6,6,,,,,,,,,,,,,,,,bars/016.png,bars/mask003.png,,,,,,,,,,,,1,2,,,,,,,8,2,10,2,,,,,,,,,,,998.4781,998.9775,999.2259,999.7274,space,0.4889,,999.7275,34,21,1000.725,1000.725,1000.731,,,,0,33,33,33,1,40,165,,,,,,,,
,,60c1dad7d8e907eb7ec06216,65af56691410b53e6cb3742e,2024-01-23_08h03.06.213,bars,2023.2.3,Win32,59.88023952,657b66ea316d21385b68909f,,,,,,,,,,,1000.7312,1001.7245,,,1002.2236,1002.4727,,40,220,,,,,,,,,,,,,,,,bars/004.png,bars/mask004.png,,,,,,,,,,,,3,1,,,,,,,6,0,6,0,,,,,,,,,,,1001.7245,1002.2235,1002.4727,1005.5711,space,3.0805,,1005.5711,15,85,1006.5696,1006.5696,1006.5816,,,,0,34,34,34,1,25,125,,,,,,,,
,,60c1dad7d8e907eb7ec06216,65af56691410b53e6cb3742e,2024-01-23_08h03.06.213,bars,2023.2.3,Win32,59.88023952,657b66ea316d21385b68909f,,,,,,,,,,,1006.5819,1007.5853,,,1008.0854,1008.3355,,46,226,,,,,,,,,,,,,,,,bars/006.png,bars/mask000.png,,,,,,,,,,,,1,1,,,,,,,4,0,1,0,,,,,,,,,,,1007.5853,1008.0853,1008.3358,1012.3479,space,3.9961,,1012.3481,11,54,1013.347,1013.3471,1013.3581,,,,0,35,35,35,1,35,100,,,,,,,,
,,60c1dad7d8e907eb7ec06216,65af56691410b53e6cb3742e,2024-01-23_08h03.06.213,bars,2023.2.3,Win32,59.88023952,657b66ea316d21385b68909f,,,,,,,,,,,1013.3583,1014.3464,,,1014.8451,1015.096,,130,310,,,,,,,,,,,,,,,,bars/031.png,bars/mask001.png,,,,,,,,,,,,4,1,,,,,,,6,2,6,3,,,,,,,,,,,1014.3465,1014.8451,1015.096,1020.9399,space,5.8312,,1020.94,10,85,1021.9402,1021.9404,1021.965,,,,0,36,36,36,1,120,35,,,,,,,,
,,60c1dad7d8e907eb7ec06216,65af56691410b53e6cb3742e,2024-01-23_08h03.06.213,bars,2023.2.3,Win32,59.88023952,657b66ea316d21385b68909f,,,,,,,,,,,1021.9653,1022.9582,,,1023.455,1023.7063,,129,129,,,,,,,,,,,,,,,,bars/045.png,bars/mask001.png,,,,,,,,,,,,0,1,,,,,,,4,0,5,1,,,,,,,,,,,1022.9583,1023.455,1023.7064,1025.6084,space,1.8913,,1025.6085,29,61,1026.6075,1026.6076,1026.6158,,,,0,37,37,37,1,100,10,,,,,,,,
,,60c1dad7d8e907eb7ec06216,65af56691410b53e6cb3742e,2024-01-23_08h03.06.213,bars,2023.2.3,Win32,59.88023952,657b66ea316d21385b68909f,,,,,,,,,,,1026.6161,1027.6179,,,1028.1191,1028.3713,,34,34,,,,,,,,,,,,,,,,bars/048.png,bars/mask001.png,,,,,,,,,,,,0,1,,,,,,,2,0,1,0,,,,,,,,,,,1027.618,1028.119,1028.3714,1031.299,space,2.9122,,1031.2991,16,39,1032.2972,1032.2972,1032.3071,,,,0,38,38,38,1,50,175,,,,,,,,
,,60c1dad7d8e907eb7ec06216,65af56691410b53e6cb3742e,2024-01-23_08h03.06.213,bars,2023.2.3,Win32,59.88023952,657b66ea316d21385b68909f,,,,,,,,,,,1032.3073,1033.2984,,,1033.8036,1034.0452,,153,153,,,,,,,,,,,,,,,,bars/017.png,bars/mask004.png,,,,,,,,,,,,0,1,,,,,,,0,2,0,2,,,,,,,,,,,1033.2984,1033.8034,1034.0452,1036.876,space,2.8154,,1036.8764,8,72,1037.8755,1037.8756,1037.8916,,,,0,39,39,39,1,145,45,,,,,,,,
,,60c1dad7d8e907eb7ec06216,65af56691410b53e6cb3742e,2024-01-23_08h03.06.213,bars,2023.2.3,Win32,59.88023952,657b66ea316d21385b68909f,,,,,,,,,,,1037.8918,1038.8916,,,1039.3915,1039.6466,,124,124,,,,,,,,,,,,,,,,bars/045.png,bars/mask002.png,,,,,,,,,,,,0,1,,,,,,,0,0,1,2,,,,,,,,,,,1038.8917,1039.3914,1039.6468,1043.721,space,4.0624,,1043.7212,24,66,1044.7192,1044.7192,1044.7302,,,,0,40,40,40,1,100,10,,,,,,,,
,,60c1dad7d8e907eb7ec06216,65af56691410b53e6cb3742e,2024-01-23_08h03.06.213,bars,2023.2.3,Win32,59.88023952,657b66ea316d21385b68909f,,,,,,,,,,,1044.7305,1045.7258,,,1046.2186,1046.4685,,8,8,,,,,,,,,,,,,,,,bars/023.png,bars/mask009.png,,,,,,,,,,,,0,1,,,,,,,0,0,0,0,,,,,,,,,,,1045.7263,1046.2185,1046.4686,1050.3812,space,3.8985,,1050.3813,12,73,1051.3804,1051.3806,1051.3931,,,,0,41,41,41,1,20,115,,,,,,,,
,,60c1dad7d8e907eb7ec06216,65af56691410b53e6cb3742e,2024-01-23_08h03.06.213,bars,2023.2.3,Win32,59.88023952,657b66ea316d21385b68909f,,,,,,,,,,,1051.3933,1052.3958,,,1052.8966,1053.1469,,77,77,,,,,,,,,,,,,,,,bars/014.png,bars/mask005.png,,,,,,,,,,,,1,1,,,,,,,2,0,1,1,,,,,,,,,,,1052.3958,1052.8965,1053.147,1055.5939,space,2.4373,,1055.5942,3,77,1056.5926,1056.5927,1056.622,,,,0,42,42,42,1,80,0,,,,,,,,
,,60c1dad7d8e907eb7ec06216,65af56691410b53e6cb3742e,2024-01-23_08h03.06.213,bars,2023.2.3,Win32,59.88023952,657b66ea316d21385b68909f,,,,,,,,,,,1056.6227,1057.6256,,,1058.125,1058.3755,,69,69,,,,,,,,,,,,,,,,bars/014.png,bars/mask003.png,,,,,,,,,,,,0,1,,,,,,,0,0,0,0,,,,,,,,,,,1057.6256,1058.1249,1058.3755,1059.0738,space,0.6848,,1059.074,11,69,1060.0739,1060.074,1060.0762,,,,0,43,43,43,1,80,0,,,,,,,,
,,60c1dad7d8e907eb7ec06216,65af56691410b53e6cb3742e,2024-01-23_08h03.06.213,bars,2023.2.3,Win32,59.88023952,657b66ea316d21385b68909f,,,,,,,,,,,1060.0771,1061.0717,,,1061.5718,1061.8219,,144,144,,,,,,,,,,,,,,,,bars/023.png,bars/mask006.png,,,,,,,,,,,,0,2,,,,,,,2,0,2,1,,,,,,,,,,,1061.0718,1061.5717,1061.822,1064.9183,space,3.0834,,1064.9185,56,29,1065.9182,1065.9183,1065.9322,,,,0,44,44,44,1,20,115,,,,,,,,
,,60c1dad7d8e907eb7ec06216,65af56691410b53e6cb3742e,2024-01-23_08h03.06.213,bars,2023.2.3,Win32,59.88023952,657b66ea316d21385b68909f,,,,,,,,,,,1065.9325,1066.9364,,,1067.4332,1067.6827,,47,47,,,,,,,,,,,,,,,,bars/007.png,bars/mask008.png,,,,,,,,,,,,1,2,,,,,,,4,2,4,2,,,,,,,,,,,1066.9366,1067.433,1067.6827,1071.047,space,3.3489,,1071.047,52,8,1072.0455,1072.0456,1072.0566,,,,0,45,45,45,1,175,55,,,,,,,,
,,60c1dad7d8e907eb7ec06216,65af56691410b53e6cb3742e,2024-01-23_08h03.06.213,bars,2023.2.3,Win32,59.88023952,657b66ea316d21385b68909f,,,,,,,,,,,1072.057,1073.0448,,,1073.5449,1073.7947,,87,87,,,,,,,,,,,,,,,,bars/021.png,bars/mask002.png,,,,,,,,,,,,2,2,,,,,,,2,4,2,4,,,,,,,,,,,1073.0449,1073.5447,1073.7947,1077.3583,space,3.5458,,1077.3584,68,17,1078.3567,1078.3568,1078.3686,,,,0,46,46,46,1,155,70,,,,,,,,
,,60c1dad7d8e907eb7ec06216,65af56691410b53e6cb3742e,2024-01-23_08h03.06.213,bars,2023.2.3,Win32,59.88023952,657b66ea316d21385b68909f,,,,,,,,,,,1078.3689,1079.3734,,,1079.8725,1080.1217,,157,157,,,,,,,,,,,,,,,,bars/044.png,bars/mask008.png,,,,,,,,,,,,2,2,,,,,,,4,2,4,2,,,,,,,,,,,1079.3734,1079.8723,1080.1217,1084.1868,space,4.0451,,1084.1869,82,2,1085.1841,1085.1842,1085.1965,,,,0,47,47,47,1,75,155,,,,,,,,
,,60c1dad7d8e907eb7ec06216,65af56691410b53e6cb3742e,2024-01-23_08h03.06.213,bars,2023.2.3,Win32,59.88023952,657b66ea316d21385b68909f,,,,,,,,,,,1085.1966,1086.2,,,1086.7003,1086.951,,149,149,,,,,,,,,,,,,,,,bars/023.png,bars/mask008.png,,,,,,,,,,,,0,2,,,,,,,6,0,5,0,,,,,,,,,,,1086.2,1086.7001,1086.9511,1089.2146,space,2.2515,,1089.2147,51,34,1090.2137,1090.2137,1090.2143,,,,0,48,48,48,1,20,115,,,,,,,,
,,60c1dad7d8e907eb7ec06216,65af56691410b53e6cb3742e,2024-01-23_08h03.06.213,bars,2023.2.3,Win32,59.88023952,657b66ea316d21385b68909f,,,,,,,,,,,1090.2146,1091.2144,,,1091.7132,1091.9623,,59,59,,,,,,,,,,,,,,,,bars/046.png,bars/mask007.png,,,,,,,,,,,,0,2,,,,,,,4,0,6,0,,,,,,,,,,,1091.2146,1091.7129,1091.9624,1095.7445,space,3.7617,,1095.7447,84,26,1096.7419,1096.742,1096.752,,,,0,49,49,49,1,155,85,,,,,,,,
,,60c1dad7d8e907eb7ec06216,65af56691410b53e6cb3742e,2024-01-23_08h03.06.213,bars,2023.2.3,Win32,59.88023952,657b66ea316d21385b68909f,,,,,,,,,,,,,,,,,,,,,,,,,,,,,,,,,,,,,,,,,,,,,,,,,,,,,,,,,,,,,,,,,,,,,,,,,,,,,,,,,,,,,,,,,,,,,1096.7522,1156.7558,0,1,1,2,1,sequence_tables/blk027.csv
,,60c1dad7d8e907eb7ec06216,65af56691410b53e6cb3742e,2024-01-23_08h03.06.213,bars,2023.2.3,Win32,59.88023952,657b66ea316d21385b68909f,,,,,,,,,,,1158.5321,1159.5201,,,1160.0198,1160.2714,,21,21,,,,,,,,,,,,,,,,bars/047.png,bars/mask002.png,,,,,,,,,,,,5,1,,,,,,,5,1,6,1,,,,,,1156.7674,1158.5206,space,1.745,,1159.5203,1160.0197,1160.2716,1164.7314,space,4.4513,,1164.7317,6,49,1165.732,1165.732,1165.7432,,,,0,0,0,0,1,15,70,,,,,,,,
,,60c1dad7d8e907eb7ec06216,65af56691410b53e6cb3742e,2024-01-23_08h03.06.213,bars,2023.2.3,Win32,59.88023952,657b66ea316d21385b68909f,,,,,,,,,,,1165.7435,1166.7461,,,1167.2472,1167.497,,40,40,,,,,,,,,,,,,,,,bars/025.png,bars/mask002.png,,,,,,,,,,,,0,2,,,,,,,3,0,3,0,,,,,,,,,,,1166.7462,1167.2471,1167.497,1170.2435,space,2.7306,,1170.2438,65,0,1171.2428,1171.2428,1171.2553,,,,0,1,1,1,1,105,40,,,,,,,,
,,60c1dad7d8e907eb7ec06216,65af56691410b53e6cb3742e,2024-01-23_08h03.06.213,bars,2023.2.3,Win32,59.88023952,657b66ea316d21385b68909f,,,,,,,,,,,1171.2555,1172.2486,,,1172.7415,1172.9913,,176,-4,,,,,,,,,,,,,,,,bars/012.png,bars/mask007.png,,,,,,,,,,,,0,2,,,,,,,5,0,4,1,,,,,,,,,,,1172.2487,1172.7415,1172.9914,1177.7738,space,4.7691,,1177.7741,86,19,1178.7704,1178.7705,1178.7809,,,,0,2,2,2,1,90,15,,,,,,,,
,,60c1dad7d8e907eb7ec06216,65af56691410b53e6cb3742e,2024-01-23_08h03.06.213,bars,2023.2.3,Win32,59.88023952,657b66ea316d21385b68909f,,,,,,,,,,,1178.7811,1179.7687,,,1180.2683,1180.518,,119,119,,,,,,,,,,,,,,,,bars/045.png,bars/mask005.png,,,,,,,,,,,,1,1,,,,,,,3,0,3,2,,,,,,,,,,,1179.7689,1180.2683,1180.518,1181.5685,space,1.0322,,1181.5687,19,71,1182.5667,1182.5667,1182.5758,,,,0,3,3,3,1,100,10,,,,,,,,
,,60c1dad7d8e907eb7ec06216,65af56691410b53e6cb3742e,2024-01-23_08h03.06.213,bars,2023.2.3,Win32,59.88023952,657b66ea316d21385b68909f,,,,,,,,,,,1182.5765,1183.5653,,,1184.065,1184.3149,,128,128,,,,,,,,,,,,,,,,bars/034.png,bars/mask003.png,,,,,,,,,,,,2,1,,,,,,,1,0,2,1,,,,,,,,,,,1183.5653,1184.0649,1184.3149,1189.4603,space,5.1272,,1189.4604,3,63,1190.4593,1190.4593,1190.4704,,,,0,4,4,4,1,125,65,,,,,,,,
,,60c1dad7d8e907eb7ec06216,65af56691410b53e6cb3742e,2024-01-23_08h03.06.213,bars,2023.2.3,Win32,59.88023952,657b66ea316d21385b68909f,,,,,,,,,,,1190.4706,1191.4749,,,1191.9744,1192.2245,,42,42,,,,,,,,,,,,,,,,bars/000.png,bars/mask005.png,,,,,,,,,,,,0,1,,,,,,,0,2,0,2,,,,,,,,,,,1191.4749,1191.9744,1192.2247,1193.1942,space,0.9505,,1193.1942,2,77,1194.1899,1194.1899,1194.1914,,,,0,5,5,5,1,40,145,,,,,,,,
,,60c1dad7d8e907eb7ec06216,65af56691410b53e6cb3742e,2024-01-23_08h03.06.213,bars,2023.2.3,Win32,59.88023952,657b66ea316d21385b68909f,,,,,,,,,,,1194.192,1195.1891,,,1195.6909,1195.9377,,173,173,,,,,,,,,,,,,,,,bars/024.png,bars/mask002.png,,,,,,,,,,,,0,2,,,,,,,0,0,2,0,,,,,,,,,,,1195.1892,1195.6906,1195.9378,1196.2377,space,0.2845,,1196.2378,53,3,1197.2376,1197.2377,1197.2439,,,,0,6,6,6,1,120,170,,,,,,,,
,,60c1dad7d8e907eb7ec06216,65af56691410b53e6cb3742e,2024-01-23_08h03.06.213,bars,2023.2.3,Win32,59.88023952,657b66ea316d21385b68909f,,,,,,,,,,,1197.2441,1198.2363,,,1198.7356,1198.9854,,156,156,,,,,,,,,,,,,,,,bars/049.png,bars/mask002.png,,,,,,,,,,,,0,1,,,,,,,0,2,0,3,,,,,,,,,,,1198.2364,1198.7355,1198.9855,1199.9182,space,0.9158,,1199.9183,4,41,1200.9175,1200.9175,1200.9398,,,,0,7,7,7,1,160,115,,,,,,,,
,,60c1dad7d8e907eb7ec06216,65af56691410b53e6cb3742e,2024-01-23_08h03.06.213,bars,2023.2.3,Win32,59.88023952,657b66ea316d21385b68909f,,,,,,,,,,,1200.94,1201.9338,,,1202.4333,1202.6813,,163,163,,,,,,,,,,,,,,,,bars/017.png,bars/mask003.png,,,,,,,,,,,,0,1,,,,,,,0,0,1,0,,,,,,,,,,,1201.9338,1202.4332,1202.6814,1209.41,space,6.7127,,1209.41,18,62,1210.4082,1210.4082,1210.4207,,,,0,8,8,8,1,145,45,,,,,,,,
,,60c1dad7d8e907eb7ec06216,65af56691410b53e6cb3742e,2024-01-23_08h03.06.213,bars,2023.2.3,Win32,59.88023952,657b66ea316d21385b68909f,,,,,,,,,,,1210.4208,1211.4245,,,1211.9237,1212.1731,,145,145,,,,,,,,,,,,,,,,bars/037.png,bars/mask005.png,,,,,,,,,,,,3,1,,,,,,,2,0,4,1,,,,,,,,,,,1211.4251,1211.9235,1212.1732,1215.188,space,3.0015,,1215.188,5,40,1216.1868,1216.1869,1216.1981,,,,0,9,9,9,1,150,105,,,,,,,,
,,60c1dad7d8e907eb7ec06216,65af56691410b53e6cb3742e,2024-01-23_08h03.06.213,bars,2023.2.3,Win32,59.88023952,657b66ea316d21385b68909f,,,,,,,,,,,1216.1982,1217.203,,,1217.7021,1217.9533,,161,161,,,,,,,,,,,,,,,,bars/007.png,bars/mask002.png,,,,,,,,,,,,2,1,,,,,,,4,0,3,0,,,,,,,,,,,1217.2031,1217.7021,1217.9533,1218.8193,space,0.8516,,1218.8194,14,74,1219.8186,1219.8187,1219.8236,,,,0,10,10,10,1,175,55,,,,,,,,
,,60c1dad7d8e907eb7ec06216,65af56691410b53e6cb3742e,2024-01-23_08h03.06.213,bars,2023.2.3,Win32,59.88023952,657b66ea316d21385b68909f,,,,,,,,,,,1219.8238,1220.8165,,,1221.3165,1221.5656,,45,45,,,,,,,,,,,,,,,,bars/044.png,bars/mask005.png,,,,,,,,,,,,0,1,,,,,,,6,2,6,2,,,,,,,,,,,1220.8165,1221.3164,1221.5657,1223.8299,space,2.2477,,1223.8299,30,70,1224.8287,1224.8288,1224.8298,,,,0,11,11,11,1,75,155,,,,,,,,
,,60c1dad7d8e907eb7ec06216,65af56691410b53e6cb3742e,2024-01-23_08h03.06.213,bars,2023.2.3,Win32,59.88023952,657b66ea316d21385b68909f,,,,,,,,,,,1224.8302,1225.8286,,,1226.3276,1226.5774,,166,166,,,,,,,,,,,,,,,,bars/014.png,bars/mask004.png,,,,,,,,,,,,0,2,,,,,,,8,0,7,0,,,,,,,,,,,1225.8287,1226.3276,1226.5775,1227.8271,space,1.2334,,1227.8274,86,14,1228.8258,1228.8258,1228.8334,,,,0,12,12,12,1,80,0,,,,,,,,
,,60c1dad7d8e907eb7ec06216,65af56691410b53e6cb3742e,2024-01-23_08h03.06.213,bars,2023.2.3,Win32,59.88023952,657b66ea316d21385b68909f,,,,,,,,,,,1228.8337,1229.8244,,,1230.3243,1230.5742,,156,156,,,,,,,,,,,,,,,,bars/027.png,bars/mask001.png,,,,,,,,,,,,0,1,,,,,,,10,0,10,2,,,,,,,,,,,1229.8245,1230.3242,1230.5744,1232.0769,space,1.4807,,1232.0769,46,74,1233.0719,1233.072,1233.085,,,,0,13,13,13,1,110,50,,,,,,,,
,,60c1dad7d8e907eb7ec06216,65af56691410b53e6cb3742e,2024-01-23_08h03.06.213,bars,2023.2.3,Win32,59.88023952,657b66ea316d21385b68909f,,,,,,,,,,,1233.0853,1234.0891,,,1234.5874,1234.8372,,158,158,,,,,,,,,,,,,,,,bars/038.png,bars/mask002.png,,,,,,,,,,,,6,1,,,,,,,8,2,8,3,,,,,,,,,,,1234.0891,1234.5872,1234.8373,1237.0193,space,2.1652,,1237.0194,7,88,1238.0177,1238.0178,1238.029,,,,0,14,14,14,1,165,70,,,,,,,,
,,60c1dad7d8e907eb7ec06216,65af56691410b53e6cb3742e,2024-01-23_08h03.06.213,bars,2023.2.3,Win32,59.88023952,657b66ea316d21385b68909f,,,,,,,,,,,1238.0292,1239.0177,,,1239.5167,1239.7666,,46,46,,,,,,,,,,,,,,,,bars/022.png,bars/mask002.png,,,,,,,,,,,,0,2,,,,,,,10,0,10,0,,,,,,,,,,,1239.0177,1239.5166,1239.7666,1241.7315,space,1.9511,,1241.7317,49,26,1242.7302,1242.7303,1242.7367,,,,0,15,15,15,1,95,20,,,,,,,,
,,60c1dad7d8e907eb7ec06216,65af56691410b53e6cb3742e,2024-01-23_08h03.06.213,bars,2023.2.3,Win32,59.88023952,657b66ea316d21385b68909f,,,,,,,,,,,1242.7373,1243.7306,,,1244.2293,1244.4815,,36,36,,,,,,,,,,,,,,,,bars/034.png,bars/mask000.png,,,,,,,,,,,,0,2,,,,,,,8,0,8,1,,,,,,,,,,,1243.7307,1244.2293,1244.4816,1251.6074,space,7.1091,,1251.6076,89,29,1252.6052,1252.6052,1252.6164,,,,0,16,16,16,1,125,65,,,,,,,,
,,60c1dad7d8e907eb7ec06216,65af56691410b53e6cb3742e,2024-01-23_08h03.06.213,bars,2023.2.3,Win32,59.88023952,657b66ea316d21385b68909f,,,,,,,,,,,1252.6165,1253.6045,,,1254.104,1254.3532,,160,-20,,,,,,,,,,,,,,,,bars/040.png,bars/mask003.png,,,,,,,,,,,,2,1,,,,,,,6,0,6,1,,,,,,,,,,,1253.6046,1254.1039,1254.3533,1257.6504,space,3.2832,,1257.6505,20,25,1258.6497,1258.6498,1258.661,,,,0,17,17,17,1,140,5,,,,,,,,
,,60c1dad7d8e907eb7ec06216,65af56691410b53e6cb3742e,2024-01-23_08h03.06.213,bars,2023.2.3,Win32,59.88023952,657b66ea316d21385b68909f,,,,,,,,,,,1258.6612,1259.6666,,,1260.1646,1260.4158,,131,131,,,,,,,,,,,,,,,,bars/024.png,bars/mask006.png,,,,,,,,,,,,5,1,,,,,,,8,2,8,2,,,,,,,,,,,1259.6667,1260.1645,1260.4158,1262.7476,space,2.3136,,1262.7478,11,39,1263.746,1263.7462,1263.7747,,,,0,18,18,18,1,120,170,,,,,,,,
,,60c1dad7d8e907eb7ec06216,65af56691410b53e6cb3742e,2024-01-23_08h03.06.213,bars,2023.2.3,Win32,59.88023952,657b66ea316d21385b68909f,,,,,,,,,,,1263.775,1264.7773,,,1265.277,1265.527,,1,1,,,,,,,,,,,,,,,,bars/033.png,bars/mask002.png,,,,,,,,,,,,2,1,,,,,,,6,4,8,5,,,,,,,,,,,1264.7773,1265.277,1265.5271,1266.7438,space,1.2077,,1266.7438,24,26,1267.7424,1267.7425,1267.7451,,,,0,19,19,19,1,25,155,,,,,,,,
,,60c1dad7d8e907eb7ec06216,65af56691410b53e6cb3742e,2024-01-23_08h03.06.213,bars,2023.2.3,Win32,59.88023952,657b66ea316d21385b68909f,,,,,,,,,,,1267.7488,1268.7406,,,1269.2406,1269.4912,,66,66,,,,,,,,,,,,,,,,bars/022.png,bars/mask003.png,,,,,,,,,,,,0,1,,,,,,,8,2,8,0,,,,,,,,,,,1268.7407,1269.2406,1269.4913,1272.5542,space,3.0511,,1272.5543,29,46,1273.5529,1273.553,1273.5642,,,,0,20,20,20,1,95,20,,,,,,,,
,,60c1dad7d8e907eb7ec06216,65af56691410b53e6cb3742e,2024-01-23_08h03.06.213,bars,2023.2.3,Win32,59.88023952,657b66ea316d21385b68909f,,,,,,,,,,,1273.5644,1274.5523,,,1275.0522,1275.3048,,42,42,,,,,,,,,,,,,,,,bars/010.png,bars/mask006.png,,,,,,,,,,,,1,2,,,,,,,10,4,10,2,,,,,,,,,,,1274.5525,1275.0521,1275.3049,1279.7159,space,4.3962,,1279.716,57,13,1280.7136,1280.7137,1280.7261,,,,0,21,21,21,1,165,55,,,,,,,,
,,60c1dad7d8e907eb7ec06216,65af56691410b53e6cb3742e,2024-01-23_08h03.06.213,bars,2023.2.3,Win32,59.88023952,657b66ea316d21385b68909f,,,,,,,,,,,1280.7264,1281.73,,,1282.2297,1282.4809,,79,79,,,,,,,,,,,,,,,,bars/010.png,bars/mask007.png,,,,,,,,,,,,0,2,,,,,,,10,2,10,2,,,,,,,,,,,1281.73,1282.2297,1282.4809,1283.0962,space,0.5998,,1283.0963,86,24,1284.0957,1284.0959,1284.0991,,,,0,22,22,22,1,165,55,,,,,,,,
,,60c1dad7d8e907eb7ec06216,65af56691410b53e6cb3742e,2024-01-23_08h03.06.213,bars,2023.2.3,Win32,59.88023952,657b66ea316d21385b68909f,,,,,,,,,,,1284.1004,1285.0936,,,1285.5925,1285.8426,,41,41,,,,,,,,,,,,,,,,bars/010.png,bars/mask002.png,,,,,,,,,,,,2,2,,,,,,,10,4,8,4,,,,,,,,,,,1285.0938,1285.5925,1285.8427,1287.5409,space,1.6865,,1287.5413,56,14,1288.5403,1288.5403,1288.5414,,,,0,23,23,23,1,165,55,,,,,,,,
,,60c1dad7d8e907eb7ec06216,65af56691410b53e6cb3742e,2024-01-23_08h03.06.213,bars,2023.2.3,Win32,59.88023952,657b66ea316d21385b68909f,,,,,,,,,,,1288.5439,1289.5397,,,1290.0394,1290.2885,,137,137,,,,,,,,,,,,,,,,bars/049.png,bars/mask007.png,,,,,,,,,,,,2,2,,,,,,,8,6,7,6,,,,,,,,,,,1289.5397,1290.0394,1290.2885,1296.006,space,5.6966,,1296.0061,23,22,1297.0033,1297.0034,1297.0335,,,,0,24,24,24,1,160,115,,,,,,,,
,,60c1dad7d8e907eb7ec06216,65af56691410b53e6cb3742e,2024-01-23_08h03.06.213,bars,2023.2.3,Win32,59.88023952,657b66ea316d21385b68909f,,,,,,,,,,,1297.0339,1298.0327,,,1298.5315,1298.7824,,32,32,,,,,,,,,,,,,,,,bars/036.png,bars/mask008.png,,,,,,,,,,,,5,2,,,,,,,6,8,4,8,,,,,,,,,,,1298.0328,1298.5315,1298.7825,1303.4173,space,4.6209,,1303.4175,67,12,1304.4112,1304.4113,1304.4319,,,,0,25,25,25,1,145,20,,,,,,,,
,,60c1dad7d8e907eb7ec06216,65af56691410b53e6cb3742e,2024-01-23_08h03.06.213,bars,2023.2.3,Win32,59.88023952,657b66ea316d21385b68909f,,,,,,,,,,,1304.4322,1305.4281,,,1305.9296,1306.1757,,146,-34,,,,,,,,,,,,,,,,bars/014.png,bars/mask008.png,,,,,,,,,,,,0,2,,,,,,,8,10,8,10,,,,,,,,,,,1305.4285,1305.9294,1306.1758,1310.2625,space,4.0757,,1310.2625,66,34,1311.2537,1311.2539,1311.2652,,,,0,26,26,26,1,80,0,,,,,,,,
,,60c1dad7d8e907eb7ec06216,65af56691410b53e6cb3742e,2024-01-23_08h03.06.213,bars,2023.2.3,Win32,59.88023952,657b66ea316d21385b68909f,,,,,,,,,,,1311.2654,1312.27,,,1312.7714,1313.0186,,153,153,,,,,,,,,,,,,,,,bars/015.png,bars/mask000.png,,,,,,,,,,,,7,2,,,,,,,10,10,10,9,,,,,,,,,,,1312.2701,1312.7714,1313.0187,1313.9383,space,0.9068,,1313.9385,43,7,1314.9347,1314.9347,1314.9381,,,,0,27,27,27,1,110,160,,,,,,,,
,,60c1dad7d8e907eb7ec06216,65af56691410b53e6cb3742e,2024-01-23_08h03.06.213,bars,2023.2.3,Win32,59.88023952,657b66ea316d21385b68909f,,,,,,,,,,,1314.9406,1315.934,,,1316.4326,1316.6821,,83,83,,,,,,,,,,,,,,,,bars/019.png,bars/mask009.png,,,,,,,,,,,,2,2,,,,,,,10,10,10,9,,,,,,,,,,,1315.934,1316.4325,1316.6822,1319.7637,space,3.0718,,1319.7638,38,22,1320.7634,1320.7635,1320.7737,,,,0,28,28,28,1,45,105,,,,,,,,
,,60c1dad7d8e907eb7ec06216,65af56691410b53e6cb3742e,2024-01-23_08h03.06.213,bars,2023.2.3,Win32,59.88023952,657b66ea316d21385b68909f,,,,,,,,,,,1320.7739,1321.779,,,1322.279,1322.5283,,109,109,,,,,,,,,,,,,,,,bars/039.png,bars/mask008.png,,,,,,,,,,,,7,2,,,,,,,10,10,10,8,,,,,,,,,,,1321.779,1322.2788,1322.5284,1323.8266,space,1.2825,,1323.8266,66,4,1324.8254,1324.8255,1324.8267,,,,0,29,29,29,1,175,105,,,,,,,,
,,60c1dad7d8e907eb7ec06216,65af56691410b53e6cb3742e,2024-01-23_08h03.06.213,bars,2023.2.3,Win32,59.88023952,657b66ea316d21385b68909f,,,,,,,,,,,1324.828,1325.8244,,,1326.3239,1326.5737,,118,118,,,,,,,,,,,,,,,,bars/019.png,bars/mask000.png,,,,,,,,,,,,5,2,,,,,,,8,8,9,8,,,,,,,,,,,1325.8244,1326.3239,1326.5737,1331.2567,space,4.6616,,1331.257,73,13,1332.2519,1332.2519,1332.2651,,,,0,30,30,30,1,45,105,,,,,,,,
,,60c1dad7d8e907eb7ec06216,65af56691410b53e6cb3742e,2024-01-23_08h03.06.213,bars,2023.2.3,Win32,59.88023952,657b66ea316d21385b68909f,,,,,,,,,,,1332.2654,1333.2689,,,1333.7675,1334.0175,,56,56,,,,,,,,,,,,,,,,bars/035.png,bars/mask006.png,,,,,,,,,,,,4,2,,,,,,,10,6,7,5,,,,,,,,,,,1333.269,1333.7675,1334.0175,1337.0404,space,3.0156,,1337.0405,61,4,1338.0334,1338.0335,1338.0446,,,,0,31,31,31,1,175,60,,,,,,,,
,,60c1dad7d8e907eb7ec06216,65af56691410b53e6cb3742e,2024-01-23_08h03.06.213,bars,2023.2.3,Win32,59.88023952,657b66ea316d21385b68909f,,,,,,,,,,,1338.0449,1339.2029,,,1339.5517,1339.7956,,168,-12,,,,,,,,,,,,,,,,bars/016.png,bars/mask009.png,,,,,,,,,,,,5,2,,,,,,,10,4,10,6,,,,,,,,,,,1339.203,1339.5515,1339.7956,1345.1249,space,5.3213,,1345.125,52,3,1346.1274,1346.1278,1346.1442,,,,0,32,32,32,1,40,165,,,,,,,,
,,60c1dad7d8e907eb7ec06216,65af56691410b53e6cb3742e,2024-01-23_08h03.06.213,bars,2023.2.3,Win32,59.88023952,657b66ea316d21385b68909f,,,,,,,,,,,1346.1447,1347.4929,,,1347.6622,1347.9081,,124,124,,,,,,,,,,,,,,,,bars/004.png,bars/mask000.png,,,,,,,,,,,,8,2,,,,,,,8,6,8,8,,,,,,,,,,,1347.4929,1347.6622,1347.9083,1351.3188,space,3.4016,,1351.319,81,1,1352.3178,1352.3179,1352.3292,,,,0,33,33,33,1,25,125,,,,,,,,
,,60c1dad7d8e907eb7ec06216,65af56691410b53e6cb3742e,2024-01-23_08h03.06.213,bars,2023.2.3,Win32,59.88023952,657b66ea316d21385b68909f,,,,,,,,,,,1352.3294,1353.334,,,1353.8335,1354.0832,,43,43,,,,,,,,,,,,,,,,bars/010.png,bars/mask008.png,,,,,,,,,,,,2,2,,,,,,,10,4,9,3,,,,,,,,,,,1353.3341,1353.8335,1354.0832,1355.1828,space,1.0885,,1355.1828,58,12,1356.181,1356.1812,1356.182,,,,0,34,34,34,1,165,55,,,,,,,,
,,60c1dad7d8e907eb7ec06216,65af56691410b53e6cb3742e,2024-01-23_08h03.06.213,bars,2023.2.3,Win32,59.88023952,657b66ea316d21385b68909f,,,,,,,,,,,1356.1824,1357.181,,,1357.6806,1357.9295,,147,147,,,,,,,,,,,,,,,,bars/005.png,bars/mask001.png,,,,,,,,,,,,2,2,,,,,,,10,2,10,3,,,,,,,,,,,1357.181,1357.6805,1357.9295,1363.776,space,5.8305,,1363.7761,43,7,1364.7749,1364.775,1364.7854,,,,0,35,35,35,1,10,140,,,,,,,,
,,60c1dad7d8e907eb7ec06216,65af56691410b53e6cb3742e,2024-01-23_08h03.06.213,bars,2023.2.3,Win32,59.88023952,657b66ea316d21385b68909f,,,,,,,,,,,1364.7856,1365.7897,,,1366.2903,1366.5386,,127,127,,,,,,,,,,,,,,,,bars/038.png,bars/mask004.png,,,,,,,,,,,,0,1,,,,,,,10,0,10,1,,,,,,,,,,,1365.7897,1366.2902,1366.5387,1372.4865,space,5.9312,,1372.4868,38,57,1373.483,1373.4831,1373.4942,,,,0,36,36,36,1,165,70,,,,,,,,
,,60c1dad7d8e907eb7ec06216,65af56691410b53e6cb3742e,2024-01-23_08h03.06.213,bars,2023.2.3,Win32,59.88023952,657b66ea316d21385b68909f,,,,,,,,,,,1373.4944,1374.4829,,,1374.9826,1375.2313,,29,209,,,,,,,,,,,,,,,,bars/012.png,bars/mask000.png,,,,,,,,,,,,2,2,,,,,,,10,2,10,3,,,,,,,,,,,1374.4831,1374.9826,1375.2313,1379.0819,space,3.8355,,1379.0821,61,14,1380.0771,1380.0771,1380.0887,,,,0,37,37,37,1,90,15,,,,,,,,
,,60c1dad7d8e907eb7ec06216,65af56691410b53e6cb3742e,2024-01-23_08h03.06.213,bars,2023.2.3,Win32,59.88023952,657b66ea316d21385b68909f,,,,,,,,,,,1380.0889,1381.0818,,,1381.5776,1381.8279,,46,46,,,,,,,,,,,,,,,,bars/017.png,bars/mask005.png,,,,,,,,,,,,5,2,,,,,,,8,4,9,5,,,,,,,,,,,1381.0819,1381.5775,1381.828,1384.2424,space,2.3959,,1384.2426,81,1,1385.2397,1385.2397,1385.2508,,,,0,38,38,38,1,145,45,,,,,,,,
,,60c1dad7d8e907eb7ec06216,65af56691410b53e6cb3742e,2024-01-23_08h03.06.213,bars,2023.2.3,Win32,59.88023952,657b66ea316d21385b68909f,,,,,,,,,,,1385.251,1386.2553,,,1386.7564,1387.0066,,63,63,,,,,,,,,,,,,,,,bars/026.png,bars/mask005.png,,,,,,,,,,,,2,2,,,,,,,10,6,10,6,,,,,,,,,,,1386.2553,1386.7563,1387.0066,1389.8209,space,2.8,,1389.821,28,22,1390.8205,1390.8206,1390.8302,,,,0,39,39,39,1,35,85,,,,,,,,
,,60c1dad7d8e907eb7ec06216,65af56691410b53e6cb3742e,2024-01-23_08h03.06.213,bars,2023.2.3,Win32,59.88023952,657b66ea316d21385b68909f,,,,,,,,,,,1390.8303,1391.8211,,,1392.3183,1392.5683,,2,2,,,,,,,,,,,,,,,,bars/045.png,bars/mask000.png,,,,,,,,,,,,6,2,,,,,,,10,8,10,8,,,,,,,,,,,1391.8213,1392.3182,1392.5685,1397.8954,space,5.3166,,1397.8954,82,8,1398.8998,1398.8998,1398.9097,,,,0,40,40,40,1,100,10,,,,,,,,
,,60c1dad7d8e907eb7ec06216,65af56691410b53e6cb3742e,2024-01-23_08h03.06.213,bars,2023.2.3,Win32,59.88023952,657b66ea316d21385b68909f,,,,,,,,,,,1398.9104,1399.9141,,,1400.4129,1400.6594,,4,4,,,,,,,,,,,,,,,,bars/014.png,bars/mask004.png,,,,,,,,,,,,9,2,,,,,,,8,10,8,10,,,,,,,,,,,1399.9141,1400.4129,1400.6594,1403.0075,space,2.3314,,1403.0075,76,4,1404.0063,1404.0063,1404.0181,,,,0,41,41,41,1,80,0,,,,,,,,
,,60c1dad7d8e907eb7ec06216,65af56691410b53e6cb3742e,2024-01-23_08h03.06.213,bars,2023.2.3,Win32,59.88023952,657b66ea316d21385b68909f,,,,,,,,,,,1404.0184,1405.0223,,,1405.5258,1405.7715,,145,145,,,,,,,,,,,,,,,,bars/004.png,bars/mask003.png,,,,,,,,,,,,2,2,,,,,,,10,8,9,7,,,,,,,,,,,1405.0223,1405.5257,1405.7716,1411.6343,space,5.8507,,1411.6344,60,20,1412.6336,1412.6337,1412.6475,,,,0,42,42,42,1,25,125,,,,,,,,
,,60c1dad7d8e907eb7ec06216,65af56691410b53e6cb3742e,2024-01-23_08h03.06.213,bars,2023.2.3,Win32,59.88023952,657b66ea316d21385b68909f,,,,,,,,,,,1412.6477,1413.6517,,,1414.1482,1414.3985,,177,-3,,,,,,,,,,,,,,,,bars/024.png,bars/mask002.png,,,,,,,,,,,,8,2,,,,,,,8,10,9,10,,,,,,,,,,,1413.6519,1414.1482,1414.3985,1418.2782,space,3.8636,,1418.2782,57,7,1419.2772,1419.2773,1419.2886,,,,0,43,43,43,1,120,170,,,,,,,,
,,60c1dad7d8e907eb7ec06216,65af56691410b53e6cb3742e,2024-01-23_08h03.06.213,bars,2023.2.3,Win32,59.88023952,657b66ea316d21385b68909f,,,,,,,,,,,1419.2888,1420.2774,,,1420.7759,1421.0246,,59,59,,,,,,,,,,,,,,,,bars/034.png,bars/mask001.png,,,,,,,,,,,,4,2,,,,,,,6,8,6,5,,,,,,,,,,,1420.2775,1420.7759,1421.0247,1423.3731,space,2.3344,,1423.3733,66,6,1424.3721,1424.3721,1424.3831,,,,0,44,44,44,1,125,65,,,,,,,,
,,60c1dad7d8e907eb7ec06216,65af56691410b53e6cb3742e,2024-01-23_08h03.06.213,bars,2023.2.3,Win32,59.88023952,657b66ea316d21385b68909f,,,,,,,,,,,1424.3834,1425.3883,,,1425.8873,1426.1373,,93,93,,,,,,,,,,,,,,,,bars/041.png,bars/mask002.png,,,,,,,,,,,,7,2,,,,,,,4,10,3,10,,,,,,,,,,,1425.3884,1425.8872,1426.1374,1430.1167,space,3.9683,,1430.1168,73,8,1431.1164,1431.1164,1431.1284,,,,0,45,45,45,1,20,85,,,,,,,,
,,60c1dad7d8e907eb7ec06216,65af56691410b53e6cb3742e,2024-01-23_08h03.06.213,bars,2023.2.3,Win32,59.88023952,657b66ea316d21385b68909f,,,,,,,,,,,1431.1286,1432.1331,,,1432.6315,1432.8818,,102,102,,,,,,,,,,,,,,,,bars/002.png,bars/mask009.png,,,,,,,,,,,,4,2,,,,,,,6,10,6,10,,,,,,,,,,,1432.1332,1432.6314,1432.8819,1436.8281,space,3.9299,,1436.8283,28,17,1437.8266,1437.8266,1437.8402,,,,0,46,46,46,1,130,85,,,,,,,,
,,60c1dad7d8e907eb7ec06216,65af56691410b53e6cb3742e,2024-01-23_08h03.06.213,bars,2023.2.3,Win32,59.88023952,657b66ea316d21385b68909f,,,,,,,,,,,1437.8406,1438.8427,,,1439.3418,1439.5924,,155,155,,,,,,,,,,,,,,,,bars/015.png,bars/mask002.png,,,,,,,,,,,,7,2,,,,,,,8,8,7,8,,,,,,,,,,,1438.8427,1439.3417,1439.5925,1443.1218,space,3.5145,,1443.1219,45,5,1444.1214,1444.1214,1444.1368,,,,0,47,47,47,1,110,160,,,,,,,,
,,60c1dad7d8e907eb7ec06216,65af56691410b53e6cb3742e,2024-01-23_08h03.06.213,bars,2023.2.3,Win32,59.88023952,657b66ea316d21385b68909f,,,,,,,,,,,1444.142,1445.1374,,,1445.6274,1445.8729,,15,15,,,,,,,,,,,,,,,,bars/022.png,bars/mask000.png,,,,,,,,,,,,5,2,,,,,,,6,6,8,6,,,,,,,,,,,1445.1374,1445.6273,1445.8731,1449.0751,space,3.1932,,1449.0752,80,5,1450.0712,1450.0712,1450.0933,,,,0,48,48,48,1,95,20,,,,,,,,
,,60c1dad7d8e907eb7ec06216,65af56691410b53e6cb3742e,2024-01-23_08h03.06.213,bars,2023.2.3,Win32,59.88023952,657b66ea316d21385b68909f,,,,,,,,,,,1450.0938,1451.0848,,,1451.5812,1451.831,,41,41,,,,,,,,,,,,,,,,bars/001.png,bars/mask000.png,,,,,,,,,,,,0,2,,,,,,,4,8,5,8,,,,,,,,,,,1451.0851,1451.5812,1451.831,1456.5438,space,4.6944,,1456.5439,89,44,1457.5431,1457.5431,1457.5563,,,,0,49,49,49,1,130,85,,,,,,,,
,,60c1dad7d8e907eb7ec06216,65af56691410b53e6cb3742e,2024-01-23_08h03.06.213,bars,2023.2.3,Win32,59.88023952,657b66ea316d21385b68909f,,,,,,,,,,,,,,,,,,,,,,,,,,,,,,,,,,,,,,,,,,,,,,,,,,,,,,,,,,,,,,,,,,,,,,,,,,,,,,,,,,,,,,,,,,,,,1457.5566,1517.5571,0,2,2,4,1,sequence_tables/blk035.csv
,,60c1dad7d8e907eb7ec06216,65af56691410b53e6cb3742e,2024-01-23_08h03.06.213,bars,2023.2.3,Win32,59.88023952,657b66ea316d21385b68909f,,,,,,,,,,,1521.1572,1522.0199,,,1522.5236,1522.769,,111,111,,,,,,,,,,,,,,,,bars/019.png,bars/mask001.png,,,,,,,,,,,,6,2,,,,,,,7,6,8,7,,,,,,1517.5717,1521.0115,space,3.4326,,1522.0199,1522.5234,1522.7691,1527.2488,space,4.4712,,1527.2488,66,6,1528.2484,1528.2485,1528.2628,,,,0,0,0,0,1,45,105,,,,,,,,
,,60c1dad7d8e907eb7ec06216,65af56691410b53e6cb3742e,2024-01-23_08h03.06.213,bars,2023.2.3,Win32,59.88023952,657b66ea316d21385b68909f,,,,,,,,,,,1528.2631,1529.2643,,,1529.7653,1530.0132,,124,124,,,,,,,,,,,,,,,,bars/023.png,bars/mask009.png,,,,,,,,,,,,2,2,,,,,,,5,4,7,3,,,,,,,,,,,1529.2643,1529.7652,1530.0133,1535.3458,space,5.3167,,1535.3458,76,9,1536.3423,1536.3425,1536.3559,,,,0,1,1,1,1,20,115,,,,,,,,
,,60c1dad7d8e907eb7ec06216,65af56691410b53e6cb3742e,2024-01-23_08h03.06.213,bars,2023.2.3,Win32,59.88023952,657b66ea316d21385b68909f,,,,,,,,,,,1536.3562,1537.357,,,1537.8567,1538.1076,,114,114,,,,,,,,,,,,,,,,bars/021.png,bars/mask000.png,,,,,,,,,,,,0,1,,,,,,,3,2,2,2,,,,,,,,,,,1537.357,1537.8567,1538.1078,1541.0904,space,2.964,,1541.0904,41,44,1542.0876,1542.0877,1542.1025,,,,0,2,2,2,1,155,70,,,,,,,,
,,60c1dad7d8e907eb7ec06216,65af56691410b53e6cb3742e,2024-01-23_08h03.06.213,bars,2023.2.3,Win32,59.88023952,657b66ea316d21385b68909f,,,,,,,,,,,1542.1035,1543.1034,,,1543.6036,1543.8543,,149,149,,,,,,,,,,,,,,,,bars/044.png,bars/mask009.png,,,,,,,,,,,,0,2,,,,,,,1,0,0,0,,,,,,,,,,,1543.1035,1543.6035,1543.8544,1546.8527,space,2.9843,,1546.8529,74,6,1547.8476,1547.8477,1547.862,,,,0,3,3,3,1,75,155,,,,,,,,
,,60c1dad7d8e907eb7ec06216,65af56691410b53e6cb3742e,2024-01-23_08h03.06.213,bars,2023.2.3,Win32,59.88023952,657b66ea316d21385b68909f,,,,,,,,,,,1547.8624,1548.8657,,,1549.3629,1549.6016,,90,90,,,,,,,,,,,,,,,,bars/046.png,bars/mask000.png,,,,,,,,,,,,0,2,,,,,,,3,0,4,0,,,,,,,,,,,1548.8658,1549.3629,1549.6017,1552.0802,space,2.4645,,1552.0804,65,5,1553.0764,1553.0765,1553.09,,,,0,4,4,4,1,155,85,,,,,,,,
,,60c1dad7d8e907eb7ec06216,65af56691410b53e6cb3742e,2024-01-23_08h03.06.213,bars,2023.2.3,Win32,59.88023952,657b66ea316d21385b68909f,,,,,,,,,,,1553.0902,1554.0934,,,1554.5919,1554.8417,,42,222,,,,,,,,,,,,,,,,bars/036.png,bars/mask006.png,,,,,,,,,,,,0,2,,,,,,,1,2,2,1,,,,,,,,,,,1554.0935,1554.5918,1554.8417,1561.1379,space,6.2817,,1561.1381,77,22,1562.135,1562.1351,1562.1479,,,,0,5,5,5,1,145,20,,,,,,,,
,,60c1dad7d8e907eb7ec06216,65af56691410b53e6cb3742e,2024-01-23_08h03.06.213,bars,2023.2.3,Win32,59.88023952,657b66ea316d21385b68909f,,,,,,,,,,,1562.148,1563.1509,,,1563.6504,1563.9045,,125,305,,,,,,,,,,,,,,,,bars/038.png,bars/mask008.png,,,,,,,,,,,,0,1,,,,,,,0,4,0,5,,,,,,,,,,,1563.1509,1563.6504,1563.9047,1569.4958,space,5.5827,,1569.4959,40,55,1570.4942,1570.4943,1570.5079,,,,0,6,6,6,1,165,70,,,,,,,,
,,60c1dad7d8e907eb7ec06216,65af56691410b53e6cb3742e,2024-01-23_08h03.06.213,bars,2023.2.3,Win32,59.88023952,657b66ea316d21385b68909f,,,,,,,,,,,1570.5082,1571.5105,,,1572.0104,1572.2594,,128,128,,,,,,,,,,,,,,,,bars/041.png,bars/mask006.png,,,,,,,,,,,,0,2,,,,,,,2,6,1,5,,,,,,,,,,,1571.5106,1572.0103,1572.2594,1576.9555,space,4.6807,,1576.9556,72,43,1577.9549,1577.9549,1577.9668,,,,0,7,7,7,1,20,85,,,,,,,,
,,60c1dad7d8e907eb7ec06216,65af56691410b53e6cb3742e,2024-01-23_08h03.06.213,bars,2023.2.3,Win32,59.88023952,657b66ea316d21385b68909f,,,,,,,,,,,1577.967,1578.9757,,,1579.472,1579.7199,,81,81,,,,,,,,,,,,,,,,bars/041.png,bars/mask006.png,,,,,,,,,,,,2,2,,,,,,,4,4,3,2,,,,,,,,,,,1578.9757,1579.4719,1579.7199,1583.9187,space,4.1798,,1583.9188,61,4,1584.9155,1584.9156,1584.9291,,,,0,8,8,8,1,20,85,,,,,,,,
,,60c1dad7d8e907eb7ec06216,65af56691410b53e6cb3742e,2024-01-23_08h03.06.213,bars,2023.2.3,Win32,59.88023952,657b66ea316d21385b68909f,,,,,,,,,,,1584.9292,1585.9315,,,1586.4305,1586.683,,155,-25,,,,,,,,,,,,,,,,bars/043.png,bars/mask006.png,,,,,,,,,,,,0,2,,,,,,,2,2,2,1,,,,,,,,,,,1585.9317,1586.4304,1586.6832,1591.6596,space,4.9671,,1591.6597,55,25,1592.6587,1592.6587,1592.6692,,,,0,9,9,9,1,30,130,,,,,,,,
,,60c1dad7d8e907eb7ec06216,65af56691410b53e6cb3742e,2024-01-23_08h03.06.213,bars,2023.2.3,Win32,59.88023952,657b66ea316d21385b68909f,,,,,,,,,,,1592.6694,1593.6582,,,1594.1577,1594.407,,110,110,,,,,,,,,,,,,,,,bars/006.png,bars/mask006.png,,,,,,,,,,,,2,2,,,,,,,0,4,0,3,,,,,,,,,,,1593.6583,1594.1577,1594.4072,1597.388,space,2.964,,1597.388,75,10,1598.3877,1598.3877,1598.398,,,,0,10,10,10,1,35,100,,,,,,,,
,,60c1dad7d8e907eb7ec06216,65af56691410b53e6cb3742e,2024-01-23_08h03.06.213,bars,2023.2.3,Win32,59.88023952,657b66ea316d21385b68909f,,,,,,,,,,,1598.3982,1599.3875,,,1599.8854,1600.1356,,144,144,,,,,,,,,,,,,,,,bars/049.png,bars/mask004.png,,,,,,,,,,,,0,1,,,,,,,0,6,1,6,,,,,,,,,,,1599.3875,1599.8853,1600.1357,1601.7676,space,1.6154,,1601.7677,16,29,1602.7679,1602.7679,1602.7736,,,,0,11,11,11,1,160,115,,,,,,,,
,,60c1dad7d8e907eb7ec06216,65af56691410b53e6cb3742e,2024-01-23_08h03.06.213,bars,2023.2.3,Win32,59.88023952,657b66ea316d21385b68909f,,,,,,,,,,,1602.7738,1603.7662,,,1604.2657,1604.515,,34,214,,,,,,,,,,,,,,,,bars/016.png,bars/mask009.png,,,,,,,,,,,,2,1,,,,,,,0,4,2,3,,,,,,,,,,,1603.7662,1604.2657,1604.515,1610.264,space,5.7286,,1610.2641,6,49,1611.2586,1611.2587,1611.2698,,,,0,12,12,12,1,40,165,,,,,,,,
,,60c1dad7d8e907eb7ec06216,65af56691410b53e6cb3742e,2024-01-23_08h03.06.213,bars,2023.2.3,Win32,59.88023952,657b66ea316d21385b68909f,,,,,,,,,,,1611.2701,1612.2579,,,1612.7579,1613.008,,111,111,,,,,,,,,,,,,,,,bars/018.png,bars/mask009.png,,,,,,,,,,,,2,2,,,,,,,0,6,0,5,,,,,,,,,,,1612.2581,1612.7579,1613.008,1616.0226,space,3.0015,,1616.0226,39,21,1617.0209,1617.021,1617.032,,,,0,13,13,13,1,150,90,,,,,,,,
,,60c1dad7d8e907eb7ec06216,65af56691410b53e6cb3742e,2024-01-23_08h03.06.213,bars,2023.2.3,Win32,59.88023952,657b66ea316d21385b68909f,,,,,,,,,,,1617.0322,1618.0364,,,1618.5364,1618.786,,175,-5,,,,,,,,,,,,,,,,bars/048.png,bars/mask007.png,,,,,,,,,,,,8,2,,,,,,,2,8,1,8,,,,,,,,,,,1618.0364,1618.5364,1618.786,1626.4816,space,7.6802,,1626.4819,55,0,1627.479,1627.4791,1627.4894,,,,0,14,14,14,1,50,175,,,,,,,,
,,60c1dad7d8e907eb7ec06216,65af56691410b53e6cb3742e,2024-01-23_08h03.06.213,bars,2023.2.3,Win32,59.88023952,657b66ea316d21385b68909f,,,,,,,,,,,1627.4895,1628.4794,,,1628.9769,1629.2287,,166,-14,,,,,,,,,,,,,,,,bars/003.png,bars/mask000.png,,,,,,,,,,,,1,2,,,,,,,0,6,1,5,,,,,,,,,,,1628.4795,1628.9769,1629.2288,1633.4946,space,4.2477,,1633.4947,39,26,1634.4893,1634.4894,1634.5002,,,,0,15,15,15,1,25,140,,,,,,,,
,,60c1dad7d8e907eb7ec06216,65af56691410b53e6cb3742e,2024-01-23_08h03.06.213,bars,2023.2.3,Win32,59.88023952,657b66ea316d21385b68909f,,,,,,,,,,,1634.5003,1635.4894,,,1635.9879,1636.2372,,127,127,,,,,,,,,,,,,,,,bars/028.png,bars/mask003.png,,,,,,,,,,,,7,2,,,,,,,0,8,1,9,,,,,,,,,,,1635.4895,1635.9879,1636.2373,1639.5845,space,3.3316,,1639.5846,82,7,1640.5831,1640.5833,1640.5956,,,,0,16,16,16,1,45,120,,,,,,,,
,,60c1dad7d8e907eb7ec06216,65af56691410b53e6cb3742e,2024-01-23_08h03.06.213,bars,2023.2.3,Win32,59.88023952,657b66ea316d21385b68909f,,,,,,,,,,,1640.5958,1641.5994,,,1642.0987,1642.3487,,129,-51,,,,,,,,,,,,,,,,bars/028.png,bars/mask006.png,,,,,,,,,,,,7,2,,,,,,,2,10,1,10,,,,,,,,,,,1641.5994,1642.0987,1642.3488,1648.0773,space,5.7154,,1648.0773,84,9,1649.076,1649.0761,1649.0911,,,,0,17,17,17,1,45,120,,,,,,,,
,,60c1dad7d8e907eb7ec06216,65af56691410b53e6cb3742e,2024-01-23_08h03.06.213,bars,2023.2.3,Win32,59.88023952,657b66ea316d21385b68909f,,,,,,,,,,,1649.0914,1650.092,,,1650.5914,1650.8428,,4,4,,,,,,,,,,,,,,,,bars/014.png,bars/mask006.png,,,,,,,,,,,,8,2,,,,,,,4,10,2,9,,,,,,,,,,,1650.0922,1650.5913,1650.8429,1651.5911,space,0.7292,,1651.5913,76,4,1652.5906,1652.5908,1652.5944,,,,0,18,18,18,1,80,0,,,,,,,,
,,60c1dad7d8e907eb7ec06216,65af56691410b53e6cb3742e,2024-01-23_08h03.06.213,bars,2023.2.3,Win32,59.88023952,657b66ea316d21385b68909f,,,,,,,,,,,1652.5953,1653.5898,,,1654.0896,1654.3383,,110,110,,,,,,,,,,,,,,,,bars/038.png,bars/mask007.png,,,,,,,,,,,,0,2,,,,,,,2,10,3,10,,,,,,,,,,,1653.5898,1654.0896,1654.3383,1658.2938,space,3.942,,1658.2939,55,40,1659.2835,1659.2836,1659.294,,,,0,19,19,19,1,165,70,,,,,,,,
,,60c1dad7d8e907eb7ec06216,65af56691410b53e6cb3742e,2024-01-23_08h03.06.213,bars,2023.2.3,Win32,59.88023952,657b66ea316d21385b68909f,,,,,,,,,,,1659.2944,1660.2838,,,1660.7829,1661.0343,,32,32,,,,,,,,,,,,,,,,bars/025.png,bars/mask008.png,,,,,,,,,,,,6,2,,,,,,,0,8,0,8,,,,,,,,,,,1660.2839,1660.7827,1661.0344,1663.6133,space,2.5665,,1663.6134,73,8,1664.6123,1664.6123,1664.626,,,,0,20,20,20,1,105,40,,,,,,,,
,,60c1dad7d8e907eb7ec06216,65af56691410b53e6cb3742e,2024-01-23_08h03.06.213,bars,2023.2.3,Win32,59.88023952,657b66ea316d21385b68909f,,,,,,,,,,,1664.6263,1665.6284,,,1666.1278,1666.3773,,77,77,,,,,,,,,,,,,,,,bars/034.png,bars/mask004.png,,,,,,,,,,,,6,2,,,,,,,0,10,3,10,,,,,,,,,,,1665.6284,1666.1277,1666.3775,1669.1586,space,2.7666,,1669.1586,48,12,1670.1576,1670.1577,1670.1685,,,,0,21,21,21,1,125,65,,,,,,,,
,,60c1dad7d8e907eb7ec06216,65af56691410b53e6cb3742e,2024-01-23_08h03.06.213,bars,2023.2.3,Win32,59.88023952,657b66ea316d21385b68909f,,,,,,,,,,,1670.1686,1671.1584,,,1671.6561,1671.9074,,59,59,,,,,,,,,,,,,,,,bars/001.png,bars/mask003.png,,,,,,,,,,,,1,2,,,,,,,2,10,3,9,,,,,,,,,,,1671.1584,1671.6561,1671.9075,1676.3528,space,4.4305,,1676.3529,71,26,1677.352,1677.3523,1677.3771,,,,0,22,22,22,1,130,85,,,,,,,,
,,60c1dad7d8e907eb7ec06216,65af56691410b53e6cb3742e,2024-01-23_08h03.06.213,bars,2023.2.3,Win32,59.88023952,657b66ea316d21385b68909f,,,,,,,,,,,1677.3779,1678.3698,,,1678.8676,1679.1187,,89,89,,,,,,,,,,,,,,,,bars/011.png,bars/mask009.png,,,,,,,,,,,,7,2,,,,,,,0,8,0,8,,,,,,,,,,,1678.3699,1678.8676,1679.1189,1682.1157,space,2.9825,,1682.1159,71,4,1683.1137,1683.1137,1683.1398,,,,0,23,23,23,1,160,85,,,,,,,,
,,60c1dad7d8e907eb7ec06216,65af56691410b53e6cb3742e,2024-01-23_08h03.06.213,bars,2023.2.3,Win32,59.88023952,657b66ea316d21385b68909f,,,,,,,,,,,1683.1403,1684.131,,,1684.6287,1684.8812,,37,37,,,,,,,,,,,,,,,,bars/022.png,bars/mask007.png,,,,,,,,,,,,4,2,,,,,,,2,10,1,10,,,,,,,,,,,1684.1312,1684.6286,1684.8816,1690.0609,space,5.1707,,1690.0609,58,17,1691.0564,1691.0565,1691.0687,,,,0,24,24,24,1,95,20,,,,,,,,
,,60c1dad7d8e907eb7ec06216,65af56691410b53e6cb3742e,2024-01-23_08h03.06.213,bars,2023.2.3,Win32,59.88023952,657b66ea316d21385b68909f,,,,,,,,,,,1691.0689,1692.077,,,1692.5726,1692.8209,,47,47,,,,,,,,,,,,,,,,bars/017.png,bars/mask004.png,,,,,,,,,,,,7,2,,,,,,,4,8,3,8,,,,,,,,,,,1692.078,1692.5725,1692.821,1693.5047,space,0.6675,,1693.5047,82,2,1694.504,1694.5041,1694.5082,,,,0,25,25,25,1,145,45,,,,,,,,
,,60c1dad7d8e907eb7ec06216,65af56691410b53e6cb3742e,2024-01-23_08h03.06.213,bars,2023.2.3,Win32,59.88023952,657b66ea316d21385b68909f,,,,,,,,,,,1694.5089,1695.5021,,,1696.002,1696.2516,,127,127,,,,,,,,,,,,,,,,bars/037.png,bars/mask000.png,,,,,,,,,,,,2,2,,,,,,,6,10,6,9,,,,,,,,,,,1695.5021,1696.0019,1696.2517,1699.4663,space,3.2029,,1699.4666,23,22,1700.4645,1700.4645,1700.4757,,,,0,26,26,26,1,150,105,,,,,,,,
,,60c1dad7d8e907eb7ec06216,65af56691410b53e6cb3742e,2024-01-23_08h03.06.213,bars,2023.2.3,Win32,59.88023952,657b66ea316d21385b68909f,,,,,,,,,,,1700.4759,1701.4638,,,1701.9631,1702.2164,,95,95,,,,,,,,,,,,,,,,bars/021.png,bars/mask008.png,,,,,,,,,,,,2,2,,,,,,,4,10,5,10,,,,,,,,,,,1701.4639,1701.963,1702.2165,1705.594,space,3.3645,,1705.5941,60,25,1706.5927,1706.5928,1706.6242,,,,0,27,27,27,1,155,70,,,,,,,,
,,60c1dad7d8e907eb7ec06216,65af56691410b53e6cb3742e,2024-01-23_08h03.06.213,bars,2023.2.3,Win32,59.88023952,657b66ea316d21385b68909f,,,,,,,,,,,1706.6245,1707.6256,,,1708.1245,1708.374,,170,170,,,,,,,,,,,,,,,,bars/044.png,bars/mask003.png,,,,,,,,,,,,5,2,,,,,,,6,10,7,10,,,,,,,,,,,1707.6256,1708.1244,1708.374,1710.3086,space,1.9145,,1710.3088,85,15,1711.3099,1711.3101,1711.3144,,,,0,28,28,28,1,75,155,,,,,,,,
,,60c1dad7d8e907eb7ec06216,65af56691410b53e6cb3742e,2024-01-23_08h03.06.213,bars,2023.2.3,Win32,59.88023952,657b66ea316d21385b68909f,,,,,,,,,,,1711.315,1712.3054,,,1712.8035,1713.0536,,32,32,,,,,,,,,,,,,,,,bars/036.png,bars/mask007.png,,,,,,,,,,,,5,2,,,,,,,4,10,4,9,,,,,,,,,,,1712.3055,1712.8035,1713.0536,1716.0911,space,3.0203,,1716.0913,67,12,1717.0839,1717.084,1717.1122,,,,0,29,29,29,1,145,20,,,,,,,,
,,60c1dad7d8e907eb7ec06216,65af56691410b53e6cb3742e,2024-01-23_08h03.06.213,bars,2023.2.3,Win32,59.88023952,657b66ea316d21385b68909f,,,,,,,,,,,1717.1124,1718.1155,,,1718.6156,1718.8657,,118,118,,,,,,,,,,,,,,,,bars/034.png,bars/mask008.png,,,,,,,,,,,,5,1,,,,,,,6,8,6,8,,,,,,,,,,,1718.1156,1718.6155,1718.8657,1719.7991,space,0.9179,,1719.7991,7,53,1720.7971,1720.7971,1720.8001,,,,0,30,30,30,1,125,65,,,,,,,,
,,60c1dad7d8e907eb7ec06216,65af56691410b53e6cb3742e,2024-01-23_08h03.06.213,bars,2023.2.3,Win32,59.88023952,657b66ea316d21385b68909f,,,,,,,,,,,1720.8014,1721.7962,,,1722.2958,1722.5454,,142,142,,,,,,,,,,,,,,,,bars/049.png,bars/mask003.png,,,,,,,,,,,,2,1,,,,,,,4,6,5,6,,,,,,,,,,,1721.7962,1722.2958,1722.5455,1723.0618,space,0.5041,,1723.0618,18,27,1724.0612,1724.0614,1724.0621,,,,0,31,31,31,1,160,115,,,,,,,,
,,60c1dad7d8e907eb7ec06216,65af56691410b53e6cb3742e,2024-01-23_08h03.06.213,bars,2023.2.3,Win32,59.88023952,657b66ea316d21385b68909f,,,,,,,,,,,1724.0625,1725.0603,,,1725.5599,1725.8115,,23,23,,,,,,,,,,,,,,,,bars/031.png,bars/mask008.png,,,,,,,,,,,,4,2,,,,,,,2,8,1,6,,,,,,,,,,,1725.0603,1725.5599,1725.8116,1728.224,space,2.399,,1728.2241,83,12,1729.2232,1729.2232,1729.2364,,,,0,32,32,32,1,120,35,,,,,,,,
,,60c1dad7d8e907eb7ec06216,65af56691410b53e6cb3742e,2024-01-23_08h03.06.213,bars,2023.2.3,Win32,59.88023952,657b66ea316d21385b68909f,,,,,,,,,,,1729.2367,1730.2393,,,1730.7393,1730.9882,,114,114,,,,,,,,,,,,,,,,bars/023.png,bars/mask005.png,,,,,,,,,,,,6,2,,,,,,,0,6,0,6,,,,,,,,,,,1730.2393,1730.7393,1730.9884,1731.6876,space,0.6856,,1731.6879,86,1,1732.6873,1732.6875,1732.6906,,,,0,33,33,33,1,20,115,,,,,,,,
,,60c1dad7d8e907eb7ec06216,65af56691410b53e6cb3742e,2024-01-23_08h03.06.213,bars,2023.2.3,Win32,59.88023952,657b66ea316d21385b68909f,,,,,,,,,,,1732.6918,1733.6876,,,1734.1853,1734.4357,,37,37,,,,,,,,,,,,,,,,bars/029.png,bars/mask001.png,,,,,,,,,,,,7,2,,,,,,,2,8,3,9,,,,,,,,,,,1733.6877,1734.1852,1734.4357,1739.7302,space,5.2828,,1739.7304,53,8,1740.7295,1740.7296,1740.74,,,,0,34,34,34,1,90,45,,,,,,,,
,,60c1dad7d8e907eb7ec06216,65af56691410b53e6cb3742e,2024-01-23_08h03.06.213,bars,2023.2.3,Win32,59.88023952,657b66ea316d21385b68909f,,,,,,,,,,,1740.7401,1741.7297,,,1742.2292,1742.4781,,37,37,,,,,,,,,,,,,,,,bars/010.png,bars/mask008.png,,,,,,,,,,,,4,2,,,,,,,0,10,0,9,,,,,,,,,,,1741.7297,1742.229,1742.4782,1745.7085,space,3.2187,,1745.7086,52,18,1746.7082,1746.7084,1746.7417,,,,0,35,35,35,1,165,55,,,,,,,,
,,60c1dad7d8e907eb7ec06216,65af56691410b53e6cb3742e,2024-01-23_08h03.06.213,bars,2023.2.3,Win32,59.88023952,657b66ea316d21385b68909f,,,,,,,,,,,1746.7423,1747.741,,,1748.24,1748.4892,,155,155,,,,,,,,,,,,,,,,bars/000.png,bars/mask006.png,,,,,,,,,,,,6,2,,,,,,,0,8,0,9,,,,,,,,,,,1747.7411,1748.24,1748.4893,1751.4877,space,2.9857,,1751.4881,65,10,1752.4865,1752.4866,1752.5179,,,,0,36,36,36,1,40,145,,,,,,,,
,,60c1dad7d8e907eb7ec06216,65af56691410b53e6cb3742e,2024-01-23_08h03.06.213,bars,2023.2.3,Win32,59.88023952,657b66ea316d21385b68909f,,,,,,,,,,,1752.5183,1753.5209,,,1754.0181,1754.2679,,89,89,,,,,,,,,,,,,,,,bars/011.png,bars/mask005.png,,,,,,,,,,,,5,2,,,,,,,2,6,3,6,,,,,,,,,,,1753.521,1754.0181,1754.2679,1758.0648,space,3.78,,1758.065,71,4,1759.063,1759.0631,1759.0736,,,,0,37,37,37,1,160,85,,,,,,,,
,,60c1dad7d8e907eb7ec06216,65af56691410b53e6cb3742e,2024-01-23_08h03.06.213,bars,2023.2.3,Win32,59.88023952,657b66ea316d21385b68909f,,,,,,,,,,,1759.0737,1760.0625,,,1760.5623,1760.812,,16,196,,,,,,,,,,,,,,,,bars/040.png,bars/mask004.png,,,,,,,,,,,,4,2,,,,,,,4,8,4,7,,,,,,,,,,,1760.0626,1760.5623,1760.8121,1763.6764,space,2.8463,,1763.6765,56,11,1764.6753,1764.6753,1764.6861,,,,0,38,38,38,1,140,5,,,,,,,,
,,60c1dad7d8e907eb7ec06216,65af56691410b53e6cb3742e,2024-01-23_08h03.06.213,bars,2023.2.3,Win32,59.88023952,657b66ea316d21385b68909f,,,,,,,,,,,1764.6862,1765.6744,,,1766.1739,1766.4235,,146,146,,,,,,,,,,,,,,,,bars/004.png,bars/mask005.png,,,,,,,,,,,,2,2,,,,,,,2,6,1,6,,,,,,,,,,,1765.6744,1766.1738,1766.4235,1768.9714,space,2.5313,,1768.9716,59,21,1769.9703,1769.9703,1769.9711,,,,0,39,39,39,1,25,125,,,,,,,,
,,60c1dad7d8e907eb7ec06216,65af56691410b53e6cb3742e,2024-01-23_08h03.06.213,bars,2023.2.3,Win32,59.88023952,657b66ea316d21385b68909f,,,,,,,,,,,1769.9715,1770.9703,,,1771.4692,1771.7196,,116,116,,,,,,,,,,,,,,,,bars/023.png,bars/mask006.png,,,,,,,,,,,,3,2,,,,,,,0,4,0,3,,,,,,,,,,,1770.9703,1771.4691,1771.7198,1774.6332,space,2.8947,,1774.6334,84,1,1775.6329,1775.633,1775.6566,,,,0,40,40,40,1,20,115,,,,,,,,
,,60c1dad7d8e907eb7ec06216,65af56691410b53e6cb3742e,2024-01-23_08h03.06.213,bars,2023.2.3,Win32,59.88023952,657b66ea316d21385b68909f,,,,,,,,,,,1775.6569,1776.6488,,,1777.1474,1777.3993,,98,98,,,,,,,,,,,,,,,,bars/011.png,bars/mask000.png,,,,,,,,,,,,3,2,,,,,,,2,6,1,5,,,,,,,,,,,1776.6489,1777.1474,1777.3994,1780.5284,space,3.1179,,1780.5285,62,13,1781.5278,1781.5279,1781.5402,,,,0,41,41,41,1,160,85,,,,,,,,
,,60c1dad7d8e907eb7ec06216,65af56691410b53e6cb3742e,2024-01-23_08h03.06.213,bars,2023.2.3,Win32,59.88023952,657b66ea316d21385b68909f,,,,,,,,,,,1781.5404,1782.5434,,,1783.0444,1783.2925,,157,-23,,,,,,,,,,,,,,,,bars/003.png,bars/mask008.png,,,,,,,,,,,,3,2,,,,,,,4,8,4,7,,,,,,,,,,,1782.5435,1783.0444,1783.2926,1786.8895,space,3.5834,,1786.8898,48,17,1787.8893,1787.8894,1787.9185,,,,0,42,42,42,1,25,140,,,,,,,,
,,60c1dad7d8e907eb7ec06216,65af56691410b53e6cb3742e,2024-01-23_08h03.06.213,bars,2023.2.3,Win32,59.88023952,657b66ea316d21385b68909f,,,,,,,,,,,1787.9189,1788.9214,,,1789.4209,1789.6701,,87,87,,,,,,,,,,,,,,,,bars/006.png,bars/mask001.png,,,,,,,,,,,,3,2,,,,,,,2,6,3,5,,,,,,,,,,,1788.9215,1789.4208,1789.6701,1792.568,space,2.886,,1792.568,52,13,1793.5669,1793.5669,1793.5777,,,,0,43,43,43,1,35,100,,,,,,,,
,,60c1dad7d8e907eb7ec06216,65af56691410b53e6cb3742e,2024-01-23_08h03.06.213,bars,2023.2.3,Win32,59.88023952,657b66ea316d21385b68909f,,,,,,,,,,,1793.578,1794.566,,,1795.067,1795.3151,,160,160,,,,,,,,,,,,,,,,bars/044.png,bars/mask000.png,,,,,,,,,,,,8,2,,,,,,,4,8,6,9,,,,,,,,,,,1794.566,1795.0659,1795.3152,1800.061,space,4.7348,,1800.0611,85,5,1801.0604,1801.0605,1801.0769,,,,0,44,44,44,1,75,155,,,,,,,,
,,60c1dad7d8e907eb7ec06216,65af56691410b53e6cb3742e,2024-01-23_08h03.06.213,bars,2023.2.3,Win32,59.88023952,657b66ea316d21385b68909f,,,,,,,,,,,1801.0771,1802.0762,,,1802.5755,1802.826,,76,76,,,,,,,,,,,,,,,,bars/021.png,bars/mask006.png,,,,,,,,,,,,5,2,,,,,,,2,6,1,6,,,,,,,,,,,1802.0762,1802.5755,1802.8261,1806.1061,space,3.2627,,1806.1062,79,6,1807.1051,1807.1051,1807.1143,,,,0,45,45,45,1,155,70,,,,,,,,
,,60c1dad7d8e907eb7ec06216,65af56691410b53e6cb3742e,2024-01-23_08h03.06.213,bars,2023.2.3,Win32,59.88023952,657b66ea316d21385b68909f,,,,,,,,,,,1807.1145,1808.1039,,,1808.607,1808.8538,,139,139,,,,,,,,,,,,,,,,bars/026.png,bars/mask002.png,,,,,,,,,,,,0,2,,,,,,,4,8,4,7,,,,,,,,,,,1808.104,1808.6069,1808.8539,1813.3502,space,4.4776,,1813.3502,76,54,1814.3529,1814.3529,1814.3626,,,,0,46,46,46,1,35,85,,,,,,,,
,,60c1dad7d8e907eb7ec06216,65af56691410b53e6cb3742e,2024-01-23_08h03.06.213,bars,2023.2.3,Win32,59.88023952,657b66ea316d21385b68909f,,,,,,,,,,,1814.3629,1815.3646,,,1815.8636,1816.1136,,87,87,,,,,,,,,,,,,,,,bars/011.png,bars/mask006.png,,,,,,,,,,,,5,2,,,,,,,6,6,7,5,,,,,,,,,,,1815.3647,1815.8636,1816.1136,1820.1275,space,3.9974,,1820.1277,73,2,1821.126,1821.126,1821.1365,,,,0,47,47,47,1,160,85,,,,,,,,
,,60c1dad7d8e907eb7ec06216,65af56691410b53e6cb3742e,2024-01-23_08h03.06.213,bars,2023.2.3,Win32,59.88023952,657b66ea316d21385b68909f,,,,,,,,,,,1821.1367,1822.1257,,,1822.6247,1822.875,,112,112,,,,,,,,,,,,,,,,bars/009.png,bars/mask006.png,,,,,,,,,,,,8,2,,,,,,,8,8,7,10,,,,,,,,,,,1822.1257,1822.6246,1822.875,1823.8078,space,0.9169,,1823.8078,83,7,1824.8064,1824.8065,1824.8077,,,,0,48,48,48,1,15,105,,,,,,,,
,,60c1dad7d8e907eb7ec06216,65af56691410b53e6cb3742e,2024-01-23_08h03.06.213,bars,2023.2.3,Win32,59.88023952,657b66ea316d21385b68909f,,,,,,,,,,,1824.8082,1825.805,,,1826.3046,1826.5554,,29,29,,,,,,,,,,,,,,,,bars/022.png,bars/mask006.png,,,,,,,,,,,,4,2,,,,,,,10,6,10,6,,,,,,,,,,,1825.805,1826.3046,1826.5555,1829.9848,space,3.4124,,1829.9848,66,9,1830.9854,1830.9854,1830.9963,,,,0,49,49,49,1,95,20,,,,,,,,
,,60c1dad7d8e907eb7ec06216,65af56691410b53e6cb3742e,2024-01-23_08h03.06.213,bars,2023.2.3,Win32,59.88023952,657b66ea316d21385b68909f,,,,,,,,,,,,,,,,,,,,,,,,,,,,,,,,,,,,,,,,,,,,,,,,,,,,,,,,,,,,,,,,,,,,,,,,,,,,,,,,,,,,,,,,,,,,,1830.9965,1890.9997,0,3,3,1,1,sequence_tables/blk049.csv
,,60c1dad7d8e907eb7ec06216,65af56691410b53e6cb3742e,2024-01-23_08h03.06.213,bars,2023.2.3,Win32,59.88023952,657b66ea316d21385b68909f,,,,,,,,,,,1894.888,1895.8776,,,1896.3791,1896.6275,,116,116,,,,,,,,,,,,,,,,bars/021.png,bars/mask007.png,,,,,,,,,,,,0,1,,,,,,,6,1,6,0,,,,,,1891.0227,1894.8784,space,3.8449,,1895.8778,1896.3787,1896.6276,1900.1577,space,3.5133,,1900.1578,39,46,1901.1561,1901.1562,1901.1681,,,,0,0,0,0,1,155,70,,,,,,,,
,,60c1dad7d8e907eb7ec06216,65af56691410b53e6cb3742e,2024-01-23_08h03.06.213,bars,2023.2.3,Win32,59.88023952,657b66ea316d21385b68909f,,,,,,,,,,,1901.1684,1902.1721,,,1902.6723,1902.9215,,49,49,,,,,,,,,,,,,,,,bars/010.png,bars/mask006.png,,,,,,,,,,,,2,2,,,,,,,8,3,8,3,,,,,,,,,,,1902.1721,1902.6723,1902.9216,1906.0683,space,3.1357,,1906.0684,64,6,1907.0679,1907.068,1907.0809,,,,0,1,1,1,1,165,55,,,,,,,,
,,60c1dad7d8e907eb7ec06216,65af56691410b53e6cb3742e,2024-01-23_08h03.06.213,bars,2023.2.3,Win32,59.88023952,657b66ea316d21385b68909f,,,,,,,,,,,1907.0814,1908.0831,,,1908.585,1908.8327,,155,155,,,,,,,,,,,,,,,,bars/018.png,bars/mask005.png,,,,,,,,,,,,8,1,,,,,,,10,5,10,6,,,,,,,,,,,1908.0832,1908.5849,1908.8327,1911.8967,space,3.0485,,1911.8968,5,65,1912.8962,1912.8962,1912.9108,,,,0,2,2,2,1,150,90,,,,,,,,
,,60c1dad7d8e907eb7ec06216,65af56691410b53e6cb3742e,2024-01-23_08h03.06.213,bars,2023.2.3,Win32,59.88023952,657b66ea316d21385b68909f,,,,,,,,,,,1912.911,1913.9139,,,1914.412,1914.6627,,151,151,,,,,,,,,,,,,,,,bars/006.png,bars/mask006.png,,,,,,,,,,,,0,2,,,,,,,10,3,9,2,,,,,,,,,,,1913.9139,1914.4119,1914.6629,1919.5236,space,4.8474,,1919.5237,64,51,1920.5228,1920.5229,1920.5343,,,,0,3,3,3,1,35,100,,,,,,,,
,,60c1dad7d8e907eb7ec06216,65af56691410b53e6cb3742e,2024-01-23_08h03.06.213,bars,2023.2.3,Win32,59.88023952,657b66ea316d21385b68909f,,,,,,,,,,,1920.5345,1921.5255,,,1922.0214,1922.2721,,35,35,,,,,,,,,,,,,,,,bars/029.png,bars/mask002.png,,,,,,,,,,,,1,2,,,,,,,8,1,7,1,,,,,,,,,,,1921.5257,1922.0212,1922.2723,1923.1542,space,0.8679,,1923.1543,55,10,1924.1527,1924.1527,1924.1562,,,,0,4,4,4,1,90,45,,,,,,,,
,,60c1dad7d8e907eb7ec06216,65af56691410b53e6cb3742e,2024-01-23_08h03.06.213,bars,2023.2.3,Win32,59.88023952,657b66ea316d21385b68909f,,,,,,,,,,,1924.1573,1925.1526,,,1925.6513,1925.9039,,172,-8,,,,,,,,,,,,,,,,bars/024.png,bars/mask006.png,,,,,,,,,,,,0,2,,,,,,,6,0,6,0,,,,,,,,,,,1925.1526,1925.6513,1925.9041,1929.7161,space,3.797,,1929.7162,52,2,1930.7141,1930.7143,1930.7394,,,,0,5,5,5,1,120,170,,,,,,,,
,,60c1dad7d8e907eb7ec06216,65af56691410b53e6cb3742e,2024-01-23_08h03.06.213,bars,2023.2.3,Win32,59.88023952,657b66ea316d21385b68909f,,,,,,,,,,,1930.7397,1931.7343,,,1932.2289,1932.4792,,100,100,,,,,,,,,,,,,,,,bars/009.png,bars/mask007.png,,,,,,,,,,,,1,2,,,,,,,8,0,7,1,,,,,,,,,,,1931.7345,1932.2288,1932.4793,1935.5931,space,3.0986,,1935.5932,85,5,1936.5921,1936.5922,1936.602,,,,0,6,6,6,1,15,105,,,,,,,,
,,60c1dad7d8e907eb7ec06216,65af56691410b53e6cb3742e,2024-01-23_08h03.06.213,bars,2023.2.3,Win32,59.88023952,657b66ea316d21385b68909f,,,,,,,,,,,1936.6022,1937.5918,,,1938.0905,1938.3407,,106,106,,,,,,,,,,,,,,,,bars/021.png,bars/mask000.png,,,,,,,,,,,,0,2,,,,,,,10,2,10,3,,,,,,,,,,,1937.5919,1938.0905,1938.3408,1941.9055,space,3.5495,,1941.9056,49,36,1942.9028,1942.9028,1942.913,,,,0,7,7,7,1,155,70,,,,,,,,
,,60c1dad7d8e907eb7ec06216,65af56691410b53e6cb3742e,2024-01-23_08h03.06.213,bars,2023.2.3,Win32,59.88023952,657b66ea316d21385b68909f,,,,,,,,,,,1942.9133,1943.9026,,,1944.3956,1944.9087,,141,141,,,,,,,,,,,,,,,,bars/049.png,bars/mask000.png,,,,,,,,,,,,3,1,,,,,,,8,0,9,0,,,,,,,,,,,1943.9027,1944.3947,1944.9088,1949.8821,space,4.9651,,1949.8821,19,26,1950.8793,1950.8793,1950.8916,,,,0,8,8,8,1,160,115,,,,,,,,
,,60c1dad7d8e907eb7ec06216,65af56691410b53e6cb3742e,2024-01-23_08h03.06.213,bars,2023.2.3,Win32,59.88023952,657b66ea316d21385b68909f,,,,,,,,,,,1950.8918,1951.88,,,1952.3782,1952.6282,,150,-30,,,,,,,,,,,,,,,,bars/020.png,bars/mask004.png,,,,,,,,,,,,0,2,,,,,,,6,0,8,0,,,,,,,,,,,1951.8801,1952.3782,1952.6283,1956.612,space,3.9697,,1956.6122,35,20,1957.6071,1957.6072,1957.6201,,,,0,9,9,9,1,115,170,,,,,,,,
,,60c1dad7d8e907eb7ec06216,65af56691410b53e6cb3742e,2024-01-23_08h03.06.213,bars,2023.2.3,Win32,59.88023952,657b66ea316d21385b68909f,,,,,,,,,,,1957.6203,1958.6248,,,1959.123,1959.3727,,52,232,,,,,,,,,,,,,,,,bars/035.png,bars/mask006.png,,,,,,,,,,,,0,2,,,,,,,4,2,3,0,,,,,,,,,,,1958.6248,1959.1229,1959.3727,1964.951,space,5.566,,1964.951,57,8,1965.95,1965.9501,1965.9618,,,,0,10,10,10,1,175,60,,,,,,,,
,,60c1dad7d8e907eb7ec06216,65af56691410b53e6cb3742e,2024-01-23_08h03.06.213,bars,2023.2.3,Win32,59.88023952,657b66ea316d21385b68909f,,,,,,,,,,,1965.9619,1966.9505,,,1967.4522,1967.6982,,174,-6,,,,,,,,,,,,,,,,bars/014.png,bars/mask003.png,,,,,,,,,,,,1,2,,,,,,,2,0,2,1,,,,,,,,,,,1966.9505,1967.4521,1967.6982,1972.0302,space,4.32,,1972.0305,86,6,1973.0268,1973.027,1973.0398,,,,0,11,11,11,1,80,0,,,,,,,,
