init_variables.started,init_variables.stopped,participant,session,date,expName,psychopyVersion,OS,frameRate,study_id,instruction_exp.started,instruction_exp.stopped,key_resp_8.keys,key_resp_8.rt,key_resp_8.duration,instruction_single.started,instruction_single.stopped,key_resp_2.keys,key_resp_2.rt,key_resp_2.duration,interval.started,interval.stopped,cue_single.started,cue_single.stopped,mask.started,mask.stopped,ori_response_single.started,res_ori,res,ori_response_single.stopped,key_resp_single.keys,key_resp_single.rt,key_resp_single.duration,disp_single.started,disp_single.stopped,key_resp.keys,key_resp.rt,key_resp.duration,single.thisRepN,single.thisTrialN,single.thisN,single.thisIndex,single.ran,ori,path,mask_path,instruction_bandit.started,instruction_bandit.stopped,key_resp_6.keys,key_resp_6.rt,key_resp_6.duration,cue_bandit.started,cue_bandit.stopped,bandit_res.keys,bandit_res.rt,bandit_res.duration,outcome_bandit.started,rew,action,outcome_bandit.stopped,bandit.thisRepN,bandit.thisTrialN,bandit.thisN,bandit.thisIndex,bandit.ran,actual_rew1,actual_rew2,rew1,rew2,instruction_task.started,instruction_task.stopped,key_resp_7.keys,key_resp_7.rt,key_resp_7.duration,wait_ready.started,wait_ready.stopped,key_resp_3.keys,key_resp_3.rt,key_resp_3.duration,cue.started,cue.stopped,ori_response.started,ori_response.stopped,key_resp_5.keys,key_resp_5.rt,key_resp_5.duration,outcome.started,diff1,diff2,outcome.stopped,disp_outcome_practice.started,disp_outcome_practice.stopped,key_resp_4.keys,key_resp_4.rt,key_resp_4.duration,trials.thisRepN,trials.thisTrialN,trials.thisN,trials.thisIndex,trials.ran,ori1,ori2,break_blk.started,break_blk.stopped,block.thisRepN,block.thisTrialN,block.thisN,block.thisIndex,block.ran,condition_file
0.0005,0.0006,651d639df30c0b3a9244cdcc,65af559473eaa355c997c249,2024-01-23_09h37.03.002,bars,2023.2.3,Win32,59.52380952,657b66ea316d21385b68909f,,,,,,,,,,,,,,,,,,,,,,,,,,,,,,,,,,,,,,,,,,,,,,,,,,,,,,,,,,,,,,,,,,,,,,,,,,,,,,,,,,,,,,,,,,,,,,,,,,,,
,,651d639df30c0b3a9244cdcc,65af559473eaa355c997c249,2024-01-23_09h37.03.002,bars,2023.2.3,Win32,59.52380952,657b66ea316d21385b68909f,0.0007,6.2207,y,6.1939,0.0004,,,,,,,,,,,,,,,,,,,,,,,,,,,,,,,,,,,,,,,,,,,,,,,,,,,,,,,,,,,,,,,,,,,,,,,,,,,,,,,,,,,,,,,,,,,,,,,
,,651d639df30c0b3a9244cdcc,65af559473eaa355c997c249,2024-01-23_09h37.03.002,bars,2023.2.3,Win32,59.52380952,657b66ea316d21385b68909f,,,,,,6.221,8.8534,space,2.6223,,,,,,,,,,,,,,,,,,,,,,,,,,,,,,,,,,,,,,,,,,,,,,,,,,,,,,,,,,,,,,,,,,,,,,,,,,,,,,,,,,,,,,,,,,,
,,651d639df30c0b3a9244cdcc,65af559473eaa355c997c249,2024-01-23_09h37.03.002,bars,2023.2.3,Win32,59.52380952,657b66ea316d21385b68909f,,,,,,,,,,,8.8593,9.8539,9.8542,10.3537,10.3539,10.604,10.6043,23,23,14.0719,space,3.4473,,14.0722,15.9725,space,1.8776,,0,0,0,9,1,20,bars/single009.png,bars/mask006.png,,,,,,,,,,,,,,,,,,,,,,,,,,,,,,,,,,,,,,,,,,,,,,,,,,,,,,,,,,,,,,,,
,,651d639df30c0b3a9244cdcc,65af559473eaa355c997c249,2024-01-23_09h37.03.002,bars,2023.2.3,Win32,59.52380952,657b66ea316d21385b68909f,,,,,,,,,,,15.9739,16.9699,16.97,17.4717,17.4717,17.7196,17.7198,98,98,18.5699,space,0.8363,,18.5699,19.2035,space,0.6158,,0,1,1,5,1,55,bars/single005.png,bars/mask008.png,,,,,,,,,,,,,,,,,,,,,,,,,,,,,,,,,,,,,,,,,,,,,,,,,,,,,,,,,,,,,,,,
,,651d639df30c0b3a9244cdcc,65af559473eaa355c997c249,2024-01-23_09h37.03.002,bars,2023.2.3,Win32,59.52380952,657b66ea316d21385b68909f,,,,,,,,,,,19.2045,20.203,20.203,20.7031,20.7031,20.9533,20.9533,159,159,24.554,space,3.5831,,24.5542,25.52,space,0.9444,,0,2,2,8,1,160,bars/single008.png,bars/mask004.png,,,,,,,,,,,,,,,,,,,,,,,,,,,,,,,,,,,,,,,,,,,,,,,,,,,,,,,,,,,,,,,,
,,651d639df30c0b3a9244cdcc,65af559473eaa355c997c249,2024-01-23_09h37.03.002,bars,2023.2.3,Win32,59.52380952,657b66ea316d21385b68909f,,,,,,,,,,,25.5211,26.5194,26.5194,27.0194,27.0195,27.2694,27.2694,60,60,29.9192,space,2.6436,,29.9192,31.0376,space,1.0927,,0,3,3,3,1,20,bars/single003.png,bars/mask005.png,,,,,,,,,,,,,,,,,,,,,,,,,,,,,,,,,,,,,,,,,,,,,,,,,,,,,,,,,,,,,,,,
,,651d639df30c0b3a9244cdcc,65af559473eaa355c997c249,2024-01-23_09h37.03.002,bars,2023.2.3,Win32,59.52380952,657b66ea316d21385b68909f,,,,,,,,,,,31.0381,32.0358,32.0358,32.5372,32.5373,32.7863,32.7863,19,19,34.586,space,1.7843,,34.5861,35.7029,space,1.1083,,0,4,4,7,1,45,bars/single007.png,bars/mask009.png,,,,,,,,,,,,,,,,,,,,,,,,,,,,,,,,,,,,,,,,,,,,,,,,,,,,,,,,,,,,,,,,
,,651d639df30c0b3a9244cdcc,65af559473eaa355c997c249,2024-01-23_09h37.03.002,bars,2023.2.3,Win32,59.52380952,657b66ea316d21385b68909f,,,,,,,,,,,35.7042,36.7025,36.7025,37.2039,37.204,37.4527,37.4528,163,163,39.9863,space,2.5179,,39.9867,40.8192,space,0.8155,,0,5,5,6,1,175,bars/single006.png,bars/mask005.png,,,,,,,,,,,,,,,,,,,,,,,,,,,,,,,,,,,,,,,,,,,,,,,,,,,,,,,,,,,,,,,,
,,651d639df30c0b3a9244cdcc,65af559473eaa355c997c249,2024-01-23_09h37.03.002,bars,2023.2.3,Win32,59.52380952,657b66ea316d21385b68909f,,,,,,,,,,,40.82,41.8191,41.8191,42.3205,42.3205,42.5701,42.5702,165,165,47.5193,space,4.9354,,47.5195,48.5023,space,0.9586,,0,6,6,0,1,150,bars/single000.png,bars/mask006.png,,,,,,,,,,,,,,,,,,,,,,,,,,,,,,,,,,,,,,,,,,,,,,,,,,,,,,,,,,,,,,,,
,,651d639df30c0b3a9244cdcc,65af559473eaa355c997c249,2024-01-23_09h37.03.002,bars,2023.2.3,Win32,59.52380952,657b66ea316d21385b68909f,,,,,,,,,,,48.5039,49.5041,49.5041,50.0018,50.0019,50.252,50.252,14,14,56.0021,space,5.734,,56.0021,56.4535,space,0.4272,,0,7,7,1,1,20,bars/single001.png,bars/mask006.png,,,,,,,,,,,,,,,,,,,,,,,,,,,,,,,,,,,,,,,,,,,,,,,,,,,,,,,,,,,,,,,,
,,651d639df30c0b3a9244cdcc,65af559473eaa355c997c249,2024-01-23_09h37.03.002,bars,2023.2.3,Win32,59.52380952,657b66ea316d21385b68909f,,,,,,,,,,,56.454,57.4516,57.4516,57.9518,57.9519,58.2041,58.2041,79,79,61.819,space,3.6036,,61.8191,62.6848,space,0.8538,,0,8,8,4,1,95,bars/single004.png,bars/mask004.png,,,,,,,,,,,,,,,,,,,,,,,,,,,,,,,,,,,,,,,,,,,,,,,,,,,,,,,,,,,,,,,,
,,651d639df30c0b3a9244cdcc,65af559473eaa355c997c249,2024-01-23_09h37.03.002,bars,2023.2.3,Win32,59.52380952,657b66ea316d21385b68909f,,,,,,,,,,,62.6851,63.6851,63.6851,64.1849,64.185,64.435,64.435,136,136,67.5847,space,3.1426,,67.5848,68.2678,space,0.6695,,0,9,9,2,1,145,bars/single002.png,bars/mask003.png,,,,,,,,,,,,,,,,,,,,,,,,,,,,,,,,,,,,,,,,,,,,,,,,,,,,,,,,,,,,,,,,
,,651d639df30c0b3a9244cdcc,65af559473eaa355c997c249,2024-01-23_09h37.03.002,bars,2023.2.3,Win32,59.52380952,657b66ea316d21385b68909f,,,,,,,,,,,,,,,,,,,,,,,,,,,,,,,,,,,,,68.2684,70.5532,space,2.1055,,,,,,,,,,,,,,,,,,,,,,,,,,,,,,,,,,,,,,,,,,,,,,,,,,,,,,,,,,,,
,,651d639df30c0b3a9244cdcc,65af559473eaa355c997c249,2024-01-23_09h37.03.002,bars,2023.2.3,Win32,59.52380952,657b66ea316d21385b68909f,,,,,,,,,,,,,,,,,,,,,,,,,,,,,,,,,,,,,,,,,,70.5571,72.5693,left,1.8777,,72.5695,9,1,73.569,0,0,0,0,1,9,1,9,2,,,,,,,,,,,,,,,,,,,,,,,,,,,,,,,,,,,,,,,,,
,,651d639df30c0b3a9244cdcc,65af559473eaa355c997c249,2024-01-23_09h37.03.002,bars,2023.2.3,Win32,59.52380952,657b66ea316d21385b68909f,,,,,,,,,,,,,,,,,,,,,,,,,,,,,,,,,,,,,,,,,,73.5697,74.1855,left,0.6032,,74.1856,10,1,75.2534,0,1,1,1,1,10,0,10,1,,,,,,,,,,,,,,,,,,,,,,,,,,,,,,,,,,,,,,,,,
,,651d639df30c0b3a9244cdcc,65af559473eaa355c997c249,2024-01-23_09h37.03.002,bars,2023.2.3,Win32,59.52380952,657b66ea316d21385b68909f,,,,,,,,,,,,,,,,,,,,,,,,,,,,,,,,,,,,,,,,,,75.2541,75.8845,left,0.4193,,75.8846,10,1,76.8845,0,2,2,2,1,10,2,10,2,,,,,,,,,,,,,,,,,,,,,,,,,,,,,,,,,,,,,,,,,
,,651d639df30c0b3a9244cdcc,65af559473eaa355c997c249,2024-01-23_09h37.03.002,bars,2023.2.3,Win32,59.52380952,657b66ea316d21385b68909f,,,,,,,,,,,,,,,,,,,,,,,,,,,,,,,,,,,,,,,,,,76.8854,77.268,left,0.3749,,77.2681,7,1,78.2675,0,3,3,3,1,8,4,7,3,,,,,,,,,,,,,,,,,,,,,,,,,,,,,,,,,,,,,,,,,
,,651d639df30c0b3a9244cdcc,65af559473eaa355c997c249,2024-01-23_09h37.03.002,bars,2023.2.3,Win32,59.52380952,657b66ea316d21385b68909f,,,,,,,,,,,,,,,,,,,,,,,,,,,,,,,,,,,,,,,,,,78.2678,78.6179,right,0.3364,,78.618,1,2,79.6174,0,4,4,4,1,6,2,5,1,,,,,,,,,,,,,,,,,,,,,,,,,,,,,,,,,,,,,,,,,
,,651d639df30c0b3a9244cdcc,65af559473eaa355c997c249,2024-01-23_09h37.03.002,bars,2023.2.3,Win32,59.52380952,657b66ea316d21385b68909f,,,,,,,,,,,,,,,,,,,,,,,,,,,,,,,,,,,,,,,,,,79.6187,80.4682,left,0.8327,,80.4685,4,1,81.4673,0,5,5,5,1,4,4,4,4,,,,,,,,,,,,,,,,,,,,,,,,,,,,,,,,,,,,,,,,,
,,651d639df30c0b3a9244cdcc,65af559473eaa355c997c249,2024-01-23_09h37.03.002,bars,2023.2.3,Win32,59.52380952,657b66ea316d21385b68909f,,,,,,,,,,,,,,,,,,,,,,,,,,,,,,,,,,,,,,,,,,81.4679,81.7676,right,0.2845,,81.7678,2,2,82.7677,0,6,6,6,1,2,2,1,2,,,,,,,,,,,,,,,,,,,,,,,,,,,,,,,,,,,,,,,,,
,,651d639df30c0b3a9244cdcc,65af559473eaa355c997c249,2024-01-23_09h37.03.002,bars,2023.2.3,Win32,59.52380952,657b66ea316d21385b68909f,,,,,,,,,,,,,,,,,,,,,,,,,,,,,,,,,,,,,,,,,,82.7684,83.0685,left,0.2938,,83.0686,0,1,84.0674,0,7,7,7,1,0,0,0,1,,,,,,,,,,,,,,,,,,,,,,,,,,,,,,,,,,,,,,,,,
,,651d639df30c0b3a9244cdcc,65af559473eaa355c997c249,2024-01-23_09h37.03.002,bars,2023.2.3,Win32,59.52380952,657b66ea316d21385b68909f,,,,,,,,,,,,,,,,,,,,,,,,,,,,,,,,,,,,,,,,,,84.0687,84.3841,right,0.3024,,84.3842,0,2,85.3837,0,8,8,8,1,0,2,1,0,,,,,,,,,,,,,,,,,,,,,,,,,,,,,,,,,,,,,,,,,
,,651d639df30c0b3a9244cdcc,65af559473eaa355c997c249,2024-01-23_09h37.03.002,bars,2023.2.3,Win32,59.52380952,657b66ea316d21385b68909f,,,,,,,,,,,,,,,,,,,,,,,,,,,,,,,,,,,,,,,,,,85.3841,85.5506,right,0.1606,,85.5506,3,2,86.551,0,9,9,9,1,2,4,2,3,,,,,,,,,,,,,,,,,,,,,,,,,,,,,,,,,,,,,,,,,
,,651d639df30c0b3a9244cdcc,65af559473eaa355c997c249,2024-01-23_09h37.03.002,bars,2023.2.3,Win32,59.52380952,657b66ea316d21385b68909f,,,,,,,,,,,,,,,,,,,,,,,,,,,,,,,,,,,,,,,,,,86.5515,86.717,right,0.1572,,86.7171,3,2,87.7183,0,10,10,10,1,0,2,0,3,,,,,,,,,,,,,,,,,,,,,,,,,,,,,,,,,,,,,,,,,
,,651d639df30c0b3a9244cdcc,65af559473eaa355c997c249,2024-01-23_09h37.03.002,bars,2023.2.3,Win32,59.52380952,657b66ea316d21385b68909f,,,,,,,,,,,,,,,,,,,,,,,,,,,,,,,,,,,,,,,,,,87.7194,88.1509,left,0.4159,,88.151,0,1,89.1505,0,11,11,11,1,0,4,0,3,,,,,,,,,,,,,,,,,,,,,,,,,,,,,,,,,,,,,,,,,
,,651d639df30c0b3a9244cdcc,65af559473eaa355c997c249,2024-01-23_09h37.03.002,bars,2023.2.3,Win32,59.52380952,657b66ea316d21385b68909f,,,,,,,,,,,,,,,,,,,,,,,,,,,,,,,,,,,,,,,,,,89.1508,89.3506,left,0.1866,,89.3506,1,1,90.3507,0,12,12,12,1,2,6,1,6,,,,,,,,,,,,,,,,,,,,,,,,,,,,,,,,,,,,,,,,,
,,651d639df30c0b3a9244cdcc,65af559473eaa355c997c249,2024-01-23_09h37.03.002,bars,2023.2.3,Win32,59.52380952,657b66ea316d21385b68909f,,,,,,,,,,,,,,,,,,,,,,,,,,,,,,,,,,,,,,,,,,90.3521,90.7181,right,0.3587,,90.7182,3,2,91.7168,0,13,13,13,1,0,4,1,3,,,,,,,,,,,,,,,,,,,,,,,,,,,,,,,,,,,,,,,,,
,,651d639df30c0b3a9244cdcc,65af559473eaa355c997c249,2024-01-23_09h37.03.002,bars,2023.2.3,Win32,59.52380952,657b66ea316d21385b68909f,,,,,,,,,,,,,,,,,,,,,,,,,,,,,,,,,,,,,,,,,,91.7174,91.9006,left,0.1663,,91.9007,2,1,92.9004,0,14,14,14,1,2,6,2,7,,,,,,,,,,,,,,,,,,,,,,,,,,,,,,,,,,,,,,,,,
,,651d639df30c0b3a9244cdcc,65af559473eaa355c997c249,2024-01-23_09h37.03.002,bars,2023.2.3,Win32,59.52380952,657b66ea316d21385b68909f,,,,,,,,,,,,,,,,,,,,,,,,,,,,,,,,,,,,,,,,,,92.9009,93.0673,right,0.1513,,93.0673,9,2,94.0669,0,15,15,15,1,4,8,3,9,,,,,,,,,,,,,,,,,,,,,,,,,,,,,,,,,,,,,,,,,
,,651d639df30c0b3a9244cdcc,65af559473eaa355c997c249,2024-01-23_09h37.03.002,bars,2023.2.3,Win32,59.52380952,657b66ea316d21385b68909f,,,,,,,,,,,,,,,,,,,,,,,,,,,,,,,,,,,,,,,,,,94.0672,94.3505,right,0.2713,,94.3506,7,2,95.35,0,16,16,16,1,6,6,7,7,,,,,,,,,,,,,,,,,,,,,,,,,,,,,,,,,,,,,,,,,
,,651d639df30c0b3a9244cdcc,65af559473eaa355c997c249,2024-01-23_09h37.03.002,bars,2023.2.3,Win32,59.52380952,657b66ea316d21385b68909f,,,,,,,,,,,,,,,,,,,,,,,,,,,,,,,,,,,,,,,,,,95.3503,95.5668,right,0.203,,95.567,5,2,96.4674,0,17,17,17,1,8,4,9,5,,,,,,,,,,,,,,,,,,,,,,,,,,,,,,,,,,,,,,,,,
,,651d639df30c0b3a9244cdcc,65af559473eaa355c997c249,2024-01-23_09h37.03.002,bars,2023.2.3,Win32,59.52380952,657b66ea316d21385b68909f,,,,,,,,,,,,,,,,,,,,,,,,,,,,,,,,,,,,,,,,,,96.4682,96.7187,right,0.2355,,96.7187,1,2,98.456,0,18,18,18,1,6,2,5,1,,,,,,,,,,,,,,,,,,,,,,,,,,,,,,,,,,,,,,,,,
,,651d639df30c0b3a9244cdcc,65af559473eaa355c997c249,2024-01-23_09h37.03.002,bars,2023.2.3,Win32,59.52380952,657b66ea316d21385b68909f,,,,,,,,,,,,,,,,,,,,,,,,,,,,,,,,,,,,,,,,,,98.4565,98.8683,right,0.4078,,98.8683,0,2,99.8665,0,19,19,19,1,8,0,7,0,,,,,,,,,,,,,,,,,,,,,,,,,,,,,,,,,,,,,,,,,
,,651d639df30c0b3a9244cdcc,65af559473eaa355c997c249,2024-01-23_09h37.03.002,bars,2023.2.3,Win32,59.52380952,657b66ea316d21385b68909f,,,,,,,,,,,,,,,,,,,,,,,,,,,,,,,,,,,,,,,,,,,,,,,,,,,,,,,,,,,,99.8671,101.15,space,1.2632,,,,,,,,,,,,,,,,,,,,,,,,,,,,,,,,,,,,,
,,651d639df30c0b3a9244cdcc,65af559473eaa355c997c249,2024-01-23_09h37.03.002,bars,2023.2.3,Win32,59.52380952,657b66ea316d21385b68909f,,,,,,,,,,,102.0573,103.0522,,,103.5505,103.8016,,79,79,,,,,,,,,,,,,,,,bars/012.png,bars/mask004.png,,,,,,,,,,,,6,1,,,,,,,8,2,9,1,,,,,,101.1594,102.0525,space,0.8732,,103.0525,103.5504,103.8019,107.819,space,4.0047,,107.8194,11,64,108.8166,108.8169,109.8012,space,0.9476,,0,0,0,0,1,90,15,,,,,,,,
,,651d639df30c0b3a9244cdcc,65af559473eaa355c997c249,2024-01-23_09h37.03.002,bars,2023.2.3,Win32,59.52380952,657b66ea316d21385b68909f,,,,,,,,,,,109.8018,110.7994,,,111.2998,111.5493,,80,80,,,,,,,,,,,,,,,,bars/026.png,bars/mask000.png,,,,,,,,,,,,3,2,,,,,,,6,4,6,4,,,,,,,,,,,110.7995,111.2998,111.5495,114.5496,space,2.986,,114.5497,45,5,115.5495,115.5495,116.2003,space,0.6348,,0,1,1,1,1,35,85,,,,,,,,
,,651d639df30c0b3a9244cdcc,65af559473eaa355c997c249,2024-01-23_09h37.03.002,bars,2023.2.3,Win32,59.52380952,657b66ea316d21385b68909f,,,,,,,,,,,116.2015,117.1995,,,120.3669,120.3687,,65,65,,,,,,,,,,,,,,,,bars/034.png,bars/mask003.png,,,,,,,,,,,,2,2,,,,,,,8,2,8,2,,,,,,,,,,,117.1996,120.3668,120.3687,121.6521,space,1.2755,,121.6522,60,0,122.6504,122.6504,123.4343,space,0.7592,,0,2,2,2,1,125,65,,,,,,,,
,,651d639df30c0b3a9244cdcc,65af559473eaa355c997c249,2024-01-23_09h37.03.002,bars,2023.2.3,Win32,59.52380952,657b66ea316d21385b68909f,,,,,,,,,,,123.4354,124.4339,,,124.9336,125.186,,134,134,,,,,,,,,,,,,,,,bars/028.png,bars/mask004.png,,,,,,,,,,,,3,2,,,,,,,6,4,5,5,,,,,,,,,,,124.4339,124.9335,125.1863,130.9009,space,5.7004,,130.901,89,14,131.8987,131.8988,133.4325,space,1.517,,0,3,3,3,1,45,120,,,,,,,,
,,651d639df30c0b3a9244cdcc,65af559473eaa355c997c249,2024-01-23_09h37.03.002,bars,2023.2.3,Win32,59.52380952,657b66ea316d21385b68909f,,,,,,,,,,,133.433,134.4331,,,134.9321,135.1822,,109,109,,,,,,,,,,,,,,,,bars/023.png,bars/mask004.png,,,,,,,,,,,,1,2,,,,,,,4,2,5,1,,,,,,,,,,,134.4333,134.932,135.1822,138.2685,space,3.0708,,138.2685,89,6,139.2653,139.2654,139.9007,space,0.6155,,0,4,4,4,1,20,115,,,,,,,,
,,651d639df30c0b3a9244cdcc,65af559473eaa355c997c249,2024-01-23_09h37.03.002,bars,2023.2.3,Win32,59.52380952,657b66ea316d21385b68909f,,,,,,,,,,,139.9016,140.8986,,,141.4005,141.6503,,128,128,,,,,,,,,,,,,,,,bars/017.png,bars/mask000.png,,,,,,,,,,,,1,1,,,,,,,2,0,3,2,,,,,,,,,,,140.8987,141.4005,141.6503,146.2682,space,4.6062,,146.2684,17,83,147.2665,147.2665,148.0008,space,0.7083,,0,5,5,5,1,145,45,,,,,,,,
,,651d639df30c0b3a9244cdcc,65af559473eaa355c997c249,2024-01-23_09h37.03.002,bars,2023.2.3,Win32,59.52380952,657b66ea316d21385b68909f,,,,,,,,,,,148.0019,149.0006,,,149.4987,149.7498,,72,72,,,,,,,,,,,,,,,,bars/049.png,bars/mask009.png,,,,,,,,,,,,0,2,,,,,,,0,2,1,3,,,,,,,,,,,149.0007,149.4986,149.7498,153.1834,space,3.4246,,153.1835,88,43,154.1833,154.1834,154.7668,space,0.5672,,0,6,6,6,1,160,115,,,,,,,,
,,651d639df30c0b3a9244cdcc,65af559473eaa355c997c249,2024-01-23_09h37.03.002,bars,2023.2.3,Win32,59.52380952,657b66ea316d21385b68909f,,,,,,,,,,,154.7682,155.7651,,,156.2646,156.5155,,99,99,,,,,,,,,,,,,,,,bars/023.png,bars/mask007.png,,,,,,,,,,,,0,2,,,,,,,2,0,2,0,,,,,,,,,,,155.7652,156.2645,156.5155,159.665,space,3.1382,,159.665,79,16,160.6659,160.6662,161.6997,space,1.002,,0,7,7,7,1,20,115,,,,,,,,
,,651d639df30c0b3a9244cdcc,65af559473eaa355c997c249,2024-01-23_09h37.03.002,bars,2023.2.3,Win32,59.52380952,657b66ea316d21385b68909f,,,,,,,,,,,161.7001,162.6995,,,163.1978,163.4497,,153,153,,,,,,,,,,,,,,,,bars/037.png,bars/mask007.png,,,,,,,,,,,,0,1,,,,,,,0,2,0,2,,,,,,,,,,,162.6995,163.1978,163.4497,166.4145,space,2.9537,,166.4146,3,48,167.4143,167.4144,168.4331,space,0.9862,,0,8,8,8,1,150,105,,,,,,,,
,,651d639df30c0b3a9244cdcc,65af559473eaa355c997c249,2024-01-23_09h37.03.002,bars,2023.2.3,Win32,59.52380952,657b66ea316d21385b68909f,,,,,,,,,,,168.434,169.4327,,,169.9309,170.1808,,150,150,,,,,,,,,,,,,,,,bars/007.png,bars/mask002.png,,,,,,,,,,,,0,1,,,,,,,0,4,0,4,,,,,,,,,,,169.4327,169.9309,170.1808,171.0151,space,0.8184,,171.0153,25,85,172.0157,172.0157,173.167,space,1.1431,,0,9,9,9,1,175,55,,,,,,,,
,,651d639df30c0b3a9244cdcc,65af559473eaa355c997c249,2024-01-23_09h37.03.002,bars,2023.2.3,Win32,59.52380952,657b66ea316d21385b68909f,,,,,,,,,,,173.1676,174.1661,,,174.6653,174.9139,,125,125,,,,,,,,,,,,,,,,bars/040.png,bars/mask005.png,,,,,,,,,,,,2,1,,,,,,,0,6,3,5,,,,,,,,,,,174.1661,174.6653,174.9139,177.9326,space,3.0034,,177.9328,15,60,178.9311,178.9311,180.3492,space,1.3874,,0,10,10,10,1,140,5,,,,,,,,
,,651d639df30c0b3a9244cdcc,65af559473eaa355c997c249,2024-01-23_09h37.03.002,bars,2023.2.3,Win32,59.52380952,657b66ea316d21385b68909f,,,,,,,,,,,180.3501,181.3481,,,181.8498,182.0984,,59,59,,,,,,,,,,,,,,,,bars/010.png,bars/mask004.png,,,,,,,,,,,,4,2,,,,,,,2,4,3,5,,,,,,,,,,,181.3481,181.8498,182.0986,185.7994,space,3.6854,,185.7995,74,4,186.7983,186.7984,187.4137,space,0.5868,,0,11,11,11,1,165,55,,,,,,,,
,,651d639df30c0b3a9244cdcc,65af559473eaa355c997c249,2024-01-23_09h37.03.002,bars,2023.2.3,Win32,59.52380952,657b66ea316d21385b68909f,,,,,,,,,,,187.4145,188.4149,,,188.9134,189.1637,,55,55,,,,,,,,,,,,,,,,bars/010.png,bars/mask004.png,,,,,,,,,,,,5,2,,,,,,,0,6,0,5,,,,,,,,,,,188.4149,188.9134,189.1638,191.8306,space,2.6558,,191.8307,70,0,192.8314,192.8314,195.0319,space,2.182,,0,12,12,12,1,165,55,,,,,,,,
,,651d639df30c0b3a9244cdcc,65af559473eaa355c997c249,2024-01-23_09h37.03.002,bars,2023.2.3,Win32,59.52380952,657b66ea316d21385b68909f,,,,,,,,,,,195.0328,196.0312,,,196.5324,196.7812,,63,63,,,,,,,,,,,,,,,,bars/006.png,bars/mask006.png,,,,,,,,,,,,0,1,,,,,,,2,4,2,4,,,,,,,,,,,196.0313,196.5324,196.7813,200.4649,space,3.6689,,200.4651,28,37,201.4642,201.4642,202.464,space,0.969,,0,13,13,13,1,35,100,,,,,,,,
,,651d639df30c0b3a9244cdcc,65af559473eaa355c997c249,2024-01-23_09h37.03.002,bars,2023.2.3,Win32,59.52380952,657b66ea316d21385b68909f,,,,,,,,,,,202.4646,203.464,,,203.9634,204.2132,,32,32,,,,,,,,,,,,,,,,bars/036.png,bars/mask003.png,,,,,,,,,,,,4,2,,,,,,,0,6,0,6,,,,,,,,,,,203.4641,203.9634,204.2132,207.4804,space,3.2546,,207.4805,67,12,208.4797,208.4797,209.1465,space,0.6416,,0,14,14,14,1,145,20,,,,,,,,
,,651d639df30c0b3a9244cdcc,65af559473eaa355c997c249,2024-01-23_09h37.03.002,bars,2023.2.3,Win32,59.52380952,657b66ea316d21385b68909f,,,,,,,,,,,209.1475,210.1466,,,210.6474,210.8993,,109,109,,,,,,,,,,,,,,,,bars/044.png,bars/mask006.png,,,,,,,,,,,,0,1,,,,,,,2,8,1,8,,,,,,,,,,,210.1467,210.6473,210.8994,213.6309,space,2.7233,,213.631,34,46,214.63,214.6301,215.6139,space,0.957,,0,15,15,15,1,75,155,,,,,,,,
,,651d639df30c0b3a9244cdcc,65af559473eaa355c997c249,2024-01-23_09h37.03.002,bars,2023.2.3,Win32,59.52380952,657b66ea316d21385b68909f,,,,,,,,,,,215.6152,216.6137,,,217.1131,217.3634,,115,115,,,,,,,,,,,,,,,,bars/041.png,bars/mask004.png,,,,,,,,,,,,0,2,,,,,,,0,10,0,9,,,,,,,,,,,216.6138,217.113,217.3634,220.8479,space,3.471,,220.8479,85,30,221.8467,221.8468,223.1643,space,1.2809,,0,16,16,16,1,20,85,,,,,,,,
,,651d639df30c0b3a9244cdcc,65af559473eaa355c997c249,2024-01-23_09h37.03.002,bars,2023.2.3,Win32,59.52380952,657b66ea316d21385b68909f,,,,,,,,,,,223.1664,224.1653,,,224.6631,224.9124,,43,223,,,,,,,,,,,,,,,,bars/040.png,bars/mask000.png,,,,,,,,,,,,0,2,,,,,,,0,10,0,10,,,,,,,,,,,224.1653,224.663,224.9124,228.5143,space,3.594,,228.5144,83,38,229.5144,229.5144,230.7132,space,1.1735,,0,17,17,17,1,140,5,,,,,,,,
,,651d639df30c0b3a9244cdcc,65af559473eaa355c997c249,2024-01-23_09h37.03.002,bars,2023.2.3,Win32,59.52380952,657b66ea316d21385b68909f,,,,,,,,,,,230.7147,231.7145,,,232.2119,232.4625,,110,110,,,,,,,,,,,,,,,,bars/018.png,bars/mask000.png,,,,,,,,,,,,3,2,,,,,,,0,10,0,9,,,,,,,,,,,231.7145,232.2118,232.4626,237.149,space,4.6672,,237.1493,40,20,238.1477,238.1477,239.1621,space,0.9927,,0,18,18,18,1,150,90,,,,,,,,
,,651d639df30c0b3a9244cdcc,65af559473eaa355c997c249,2024-01-23_09h37.03.002,bars,2023.2.3,Win32,59.52380952,657b66ea316d21385b68909f,,,,,,,,,,,239.1626,240.1626,,,240.662,240.9117,,110,110,,,,,,,,,,,,,,,,bars/020.png,bars/mask005.png,,,,,,,,,,,,2,1,,,,,,,2,8,2,8,,,,,,,,,,,240.1628,240.662,240.9118,245.8446,space,4.9175,,245.8447,5,60,246.8449,246.845,247.4618,space,0.5903,,0,19,19,19,1,115,170,,,,,,,,
,,651d639df30c0b3a9244cdcc,65af559473eaa355c997c249,2024-01-23_09h37.03.002,bars,2023.2.3,Win32,59.52380952,657b66ea316d21385b68909f,,,,,,,,,,,247.4625,248.4614,,,248.9613,249.2121,,26,26,,,,,,,,,,,,,,,,bars/019.png,bars/mask006.png,,,,,,,,,,,,0,1,,,,,,,0,6,1,6,,,,,,,,,,,248.4614,248.9613,249.2121,250.1782,space,0.9527,,250.1783,19,79,251.1784,251.1784,251.8279,space,0.6321,,0,20,20,20,1,45,105,,,,,,,,
,,651d639df30c0b3a9244cdcc,65af559473eaa355c997c249,2024-01-23_09h37.03.002,bars,2023.2.3,Win32,59.52380952,657b66ea316d21385b68909f,,,,,,,,,,,251.8284,252.8276,,,253.3275,253.578,,62,62,,,,,,,,,,,,,,,,bars/044.png,bars/mask000.png,,,,,,,,,,,,1,1,,,,,,,2,8,2,5,,,,,,,,,,,252.8276,253.3274,253.5782,257.1456,space,3.5607,,257.1457,13,87,258.1441,258.1442,258.979,space,0.8078,,0,21,21,21,1,75,155,,,,,,,,
,,651d639df30c0b3a9244cdcc,65af559473eaa355c997c249,2024-01-23_09h37.03.002,bars,2023.2.3,Win32,59.52380952,657b66ea316d21385b68909f,,,,,,,,,,,258.9794,259.9781,,,260.4782,260.7302,,32,32,,,,,,,,,,,,,,,,bars/048.png,bars/mask008.png,,,,,,,,,,,,2,1,,,,,,,4,6,4,7,,,,,,,,,,,259.9782,260.4779,260.7303,267.2447,space,6.5082,,267.2451,18,37,268.2466,268.2468,269.2633,space,0.9872,,0,22,22,22,1,50,175,,,,,,,,
,,651d639df30c0b3a9244cdcc,65af559473eaa355c997c249,2024-01-23_09h37.03.002,bars,2023.2.3,Win32,59.52380952,657b66ea316d21385b68909f,,,,,,,,,,,269.2647,270.2602,,,270.7618,271.013,,103,103,,,,,,,,,,,,,,,,bars/042.png,bars/mask000.png,,,,,,,,,,,,0,2,,,,,,,2,4,3,4,,,,,,,,,,,270.2602,270.7617,271.013,273.6438,space,2.6157,,273.6438,42,28,274.6434,274.6435,275.4439,space,0.7854,,0,23,23,23,1,145,75,,,,,,,,
,,651d639df30c0b3a9244cdcc,65af559473eaa355c997c249,2024-01-23_09h37.03.002,bars,2023.2.3,Win32,59.52380952,657b66ea316d21385b68909f,,,,,,,,,,,275.4461,276.4435,,,276.945,277.1935,,74,74,,,,,,,,,,,,,,,,bars/020.png,bars/mask002.png,,,,,,,,,,,,0,1,,,,,,,0,2,1,3,,,,,,,,,,,276.4435,276.945,277.1935,279.4769,space,2.2674,,279.477,41,84,280.4769,280.4771,281.0628,space,0.5267,,0,24,24,24,1,115,170,,,,,,,,
,,651d639df30c0b3a9244cdcc,65af559473eaa355c997c249,2024-01-23_09h37.03.002,bars,2023.2.3,Win32,59.52380952,657b66ea316d21385b68909f,,,,,,,,,,,281.0634,282.0622,,,282.5618,282.811,,110,110,,,,,,,,,,,,,,,,bars/032.png,bars/mask008.png,,,,,,,,,,,,1,1,,,,,,,0,0,2,0,,,,,,,,,,,282.0623,282.5618,282.8112,286.8268,space,4.0028,,286.827,15,90,287.8292,287.8292,288.8111,space,0.9546,,0,25,25,25,1,125,20,,,,,,,,
,,651d639df30c0b3a9244cdcc,65af559473eaa355c997c249,2024-01-23_09h37.03.002,bars,2023.2.3,Win32,59.52380952,657b66ea316d21385b68909f,,,,,,,,,,,288.8122,289.811,,,290.3096,290.56,,107,107,,,,,,,,,,,,,,,,bars/022.png,bars/mask001.png,,,,,,,,,,,,1,1,,,,,,,2,0,1,0,,,,,,,,,,,289.811,290.3095,290.56,292.8762,space,2.3106,,292.8762,12,87,293.8763,293.8764,294.71,space,0.8086,,0,26,26,26,1,95,20,,,,,,,,
,,651d639df30c0b3a9244cdcc,65af559473eaa355c997c249,2024-01-23_09h37.03.002,bars,2023.2.3,Win32,59.52380952,657b66ea316d21385b68909f,,,,,,,,,,,294.7108,295.7093,,,296.2091,296.4602,,46,46,,,,,,,,,,,,,,,,bars/000.png,bars/mask000.png,,,,,,,,,,,,0,1,,,,,,,0,2,0,2,,,,,,,,,,,295.7094,296.2091,296.4602,299.5266,space,3.0567,,299.5267,6,81,300.5275,300.5276,301.1262,space,0.5745,,0,27,27,27,1,40,145,,,,,,,,
,,651d639df30c0b3a9244cdcc,65af559473eaa355c997c249,2024-01-23_09h37.03.002,bars,2023.2.3,Win32,59.52380952,657b66ea316d21385b68909f,,,,,,,,,,,301.1265,302.1276,,,302.6296,302.8786,,112,112,,,,,,,,,,,,,,,,bars/049.png,bars/mask003.png,,,,,,,,,,,,1,2,,,,,,,0,0,0,1,,,,,,,,,,,302.1276,302.6295,302.8786,307.2099,space,4.3184,,307.2101,48,3,308.213,308.2132,308.5429,space,0.296,,0,28,28,28,1,160,115,,,,,,,,
,,651d639df30c0b3a9244cdcc,65af559473eaa355c997c249,2024-01-23_09h37.03.002,bars,2023.2.3,Win32,59.52380952,657b66ea316d21385b68909f,,,,,,,,,,,308.5449,309.5425,,,310.0423,310.2922,,154,154,,,,,,,,,,,,,,,,bars/038.png,bars/mask009.png,,,,,,,,,,,,1,1,,,,,,,2,0,2,0,,,,,,,,,,,309.5426,310.0423,310.2922,312.2095,space,1.8996,,312.2099,11,84,313.2109,313.211,313.8087,space,0.5719,,0,29,29,29,1,165,70,,,,,,,,
,,651d639df30c0b3a9244cdcc,65af559473eaa355c997c249,2024-01-23_09h37.03.002,bars,2023.2.3,Win32,59.52380952,657b66ea316d21385b68909f,,,,,,,,,,,313.8092,314.8087,,,315.3099,315.5599,,58,238,,,,,,,,,,,,,,,,bars/022.png,bars/mask000.png,,,,,,,,,,,,0,1,,,,,,,0,2,0,2,,,,,,,,,,,314.8088,315.3099,315.56,320.1921,space,4.6185,,320.1922,37,38,321.1946,321.1947,321.9252,space,0.7058,,0,30,30,30,1,95,20,,,,,,,,
,,651d639df30c0b3a9244cdcc,65af559473eaa355c997c249,2024-01-23_09h37.03.002,bars,2023.2.3,Win32,59.52380952,657b66ea316d21385b68909f,,,,,,,,,,,321.9258,322.9265,,,323.4265,323.6751,,140,140,,,,,,,,,,,,,,,,bars/000.png,bars/mask005.png,,,,,,,,,,,,0,2,,,,,,,2,0,1,0,,,,,,,,,,,322.9266,323.4265,323.6752,328.3918,space,4.7019,,328.3919,80,5,329.3935,329.3935,330.1919,space,0.7709,,0,31,31,31,1,40,145,,,,,,,,
,,651d639df30c0b3a9244cdcc,65af559473eaa355c997c249,2024-01-23_09h37.03.002,bars,2023.2.3,Win32,59.52380952,657b66ea316d21385b68909f,,,,,,,,,,,330.1922,331.1932,,,331.6915,331.9427,,36,36,,,,,,,,,,,,,,,,bars/007.png,bars/mask000.png,,,,,,,,,,,,1,2,,,,,,,4,2,5,2,,,,,,,,,,,331.1932,331.6915,331.9427,333.7414,space,1.789,,333.7414,41,19,334.7422,334.7422,335.4433,space,0.6842,,0,32,32,32,1,175,55,,,,,,,,
,,651d639df30c0b3a9244cdcc,65af559473eaa355c997c249,2024-01-23_09h37.03.002,bars,2023.2.3,Win32,59.52380952,657b66ea316d21385b68909f,,,,,,,,,,,335.4439,336.4417,,,336.9414,337.1912,,128,128,,,,,,,,,,,,,,,,bars/023.png,bars/mask001.png,,,,,,,,,,,,1,2,,,,,,,2,0,3,1,,,,,,,,,,,336.4418,336.9413,337.1913,341.6078,space,4.4031,,341.6078,72,13,342.608,342.608,343.3084,space,0.6823,,0,33,33,33,1,20,115,,,,,,,,
,,651d639df30c0b3a9244cdcc,65af559473eaa355c997c249,2024-01-23_09h37.03.002,bars,2023.2.3,Win32,59.52380952,657b66ea316d21385b68909f,,,,,,,,,,,343.3089,344.3077,,,344.8089,345.0575,,131,131,,,,,,,,,,,,,,,,bars/042.png,bars/mask002.png,,,,,,,,,,,,0,1,,,,,,,0,0,0,0,,,,,,,,,,,344.3078,344.8089,345.0575,345.8575,space,0.7938,,345.8577,14,56,346.8592,346.8593,347.5919,space,0.7129,,0,34,34,34,1,145,75,,,,,,,,
,,651d639df30c0b3a9244cdcc,65af559473eaa355c997c249,2024-01-23_09h37.03.002,bars,2023.2.3,Win32,59.52380952,657b66ea316d21385b68909f,,,,,,,,,,,347.5925,348.5906,,,349.0912,349.3425,,109,289,,,,,,,,,,,,,,,,bars/031.png,bars/mask002.png,,,,,,,,,,,,1,1,,,,,,,0,2,1,1,,,,,,,,,,,348.5906,349.0912,349.3426,356.2573,space,6.8991,,356.2573,11,74,357.2592,357.2593,358.2256,space,0.9433,,0,35,35,35,1,120,35,,,,,,,,
,,651d639df30c0b3a9244cdcc,65af559473eaa355c997c249,2024-01-23_09h37.03.002,bars,2023.2.3,Win32,59.52380952,657b66ea316d21385b68909f,,,,,,,,,,,358.2261,359.2239,,,359.7259,359.9739,,119,119,,,,,,,,,,,,,,,,bars/039.png,bars/mask006.png,,,,,,,,,,,,0,2,,,,,,,0,0,0,0,,,,,,,,,,,359.224,359.7256,359.9739,362.5922,space,2.6067,,362.5924,56,14,363.5908,363.5908,364.2585,space,0.6315,,0,36,36,36,1,175,105,,,,,,,,
,,651d639df30c0b3a9244cdcc,65af559473eaa355c997c249,2024-01-23_09h37.03.002,bars,2023.2.3,Win32,59.52380952,657b66ea316d21385b68909f,,,,,,,,,,,364.2594,365.257,,,365.7584,366.0075,,54,234,,,,,,,,,,,,,,,,bars/009.png,bars/mask006.png,,,,,,,,,,,,0,1,,,,,,,0,0,0,0,,,,,,,,,,,365.2571,365.7584,366.0076,369.86,space,3.8349,,369.86,39,51,370.8585,370.8588,372.0751,space,1.1963,,0,37,37,37,1,15,105,,,,,,,,
,,651d639df30c0b3a9244cdcc,65af559473eaa355c997c249,2024-01-23_09h37.03.002,bars,2023.2.3,Win32,59.52380952,657b66ea316d21385b68909f,,,,,,,,,,,372.076,373.0734,,,373.5742,373.8257,,131,131,,,,,,,,,,,,,,,,bars/025.png,bars/mask001.png,,,,,,,,,,,,0,1,,,,,,,0,0,0,1,,,,,,,,,,,373.0735,373.5742,373.826,380.0404,space,6.1984,,380.0404,26,89,381.0412,381.0414,381.1085,space,0.043,,0,38,38,38,1,105,40,,,,,,,,
,,651d639df30c0b3a9244cdcc,65af559473eaa355c997c249,2024-01-23_09h37.03.002,bars,2023.2.3,Win32,59.52380952,657b66ea316d21385b68909f,,,,,,,,,,,381.1096,382.1078,,,382.6085,382.8592,,50,50,,,,,,,,,,,,,,,,bars/046.png,bars/mask002.png,,,,,,,,,,,,0,2,,,,,,,2,0,3,0,,,,,,,,,,,382.1079,382.6084,382.8593,386.158,space,3.2885,,386.1582,75,35,387.156,387.1561,387.9084,space,0.725,,0,39,39,39,1,155,85,,,,,,,,
,,651d639df30c0b3a9244cdcc,65af559473eaa355c997c249,2024-01-23_09h37.03.002,bars,2023.2.3,Win32,59.52380952,657b66ea316d21385b68909f,,,,,,,,,,,387.9093,388.907,,,389.4079,389.6559,,136,-44,,,,,,,,,,,,,,,,bars/037.png,bars/mask001.png,,,,,,,,,,,,2,1,,,,,,,4,0,4,1,,,,,,,,,,,388.9071,389.4079,389.6559,394.3406,space,4.6734,,394.3406,14,31,395.3417,395.3418,396.092,space,0.721,,0,40,40,40,1,150,105,,,,,,,,
,,651d639df30c0b3a9244cdcc,65af559473eaa355c997c249,2024-01-23_09h37.03.002,bars,2023.2.3,Win32,59.52380952,657b66ea316d21385b68909f,,,,,,,,,,,396.0936,397.0903,,,397.5915,397.8398,,153,-27,,,,,,,,,,,,,,,,bars/033.png,bars/mask005.png,,,,,,,,,,,,0,2,,,,,,,6,0,4,0,,,,,,,,,,,397.0903,397.5915,397.84,402.3604,space,4.5133,,402.3606,52,2,403.3585,403.3587,404.6903,space,1.3032,,0,41,41,41,1,25,155,,,,,,,,
,,651d639df30c0b3a9244cdcc,65af559473eaa355c997c249,2024-01-23_09h37.03.002,bars,2023.2.3,Win32,59.52380952,657b66ea316d21385b68909f,,,,,,,,,,,404.6915,405.6918,,,406.1901,406.4394,,15,195,,,,,,,,,,,,,,,,bars/023.png,bars/mask004.png,,,,,,,,,,,,4,1,,,,,,,4,2,5,2,,,,,,,,,,,405.6918,406.19,406.4395,410.5889,space,4.135,,410.589,5,80,411.5892,411.5892,412.1561,space,0.5367,,0,42,42,42,1,20,115,,,,,,,,
,,651d639df30c0b3a9244cdcc,65af559473eaa355c997c249,2024-01-23_09h37.03.002,bars,2023.2.3,Win32,59.52380952,657b66ea316d21385b68909f,,,,,,,,,,,412.1566,413.1552,,,413.6554,413.9054,,135,135,,,,,,,,,,,,,,,,bars/036.png,bars/mask002.png,,,,,,,,,,,,5,1,,,,,,,6,0,7,1,,,,,,,,,,,413.1553,413.6553,413.9055,416.2718,space,2.3518,,416.272,10,65,417.273,417.2734,417.8225,space,0.5299,,0,43,43,43,1,145,20,,,,,,,,
,,651d639df30c0b3a9244cdcc,65af559473eaa355c997c249,2024-01-23_09h37.03.002,bars,2023.2.3,Win32,59.52380952,657b66ea316d21385b68909f,,,,,,,,,,,417.8235,418.8219,,,419.3226,419.5743,,45,45,,,,,,,,,,,,,,,,bars/000.png,bars/mask006.png,,,,,,,,,,,,5,1,,,,,,,4,2,6,2,,,,,,,,,,,418.8221,419.3226,419.5744,425.4396,space,5.8517,,425.4398,5,80,426.4392,426.4393,427.074,space,0.6079,,0,44,44,44,1,40,145,,,,,,,,
,,651d639df30c0b3a9244cdcc,65af559473eaa355c997c249,2024-01-23_09h37.03.002,bars,2023.2.3,Win32,59.52380952,657b66ea316d21385b68909f,,,,,,,,,,,427.0747,428.0721,,,428.5716,428.8219,,132,132,,,,,,,,,,,,,,,,bars/020.png,bars/mask002.png,,,,,,,,,,,,1,1,,,,,,,2,4,3,4,,,,,,,,,,,428.0721,428.5715,428.8219,433.4219,space,4.5854,,433.4219,17,38,434.4214,434.4214,435.2548,space,0.8055,,0,45,45,45,1,115,170,,,,,,,,
,,651d639df30c0b3a9244cdcc,65af559473eaa355c997c249,2024-01-23_09h37.03.002,bars,2023.2.3,Win32,59.52380952,657b66ea316d21385b68909f,,,,,,,,,,,435.2551,436.2545,,,436.7547,437.0045,,52,52,,,,,,,,,,,,,,,,bars/035.png,bars/mask001.png,,,,,,,,,,,,1,2,,,,,,,4,2,4,1,,,,,,,,,,,436.2545,436.7545,437.0046,439.3712,space,2.3524,,439.3713,57,8,440.3713,440.3714,441.0053,space,0.6126,,0,46,46,46,1,175,60,,,,,,,,
,,651d639df30c0b3a9244cdcc,65af559473eaa355c997c249,2024-01-23_09h37.03.002,bars,2023.2.3,Win32,59.52380952,657b66ea316d21385b68909f,,,,,,,,,,,441.0063,442.0049,,,442.5046,442.7546,,48,48,,,,,,,,,,,,,,,,bars/048.png,bars/mask002.png,,,,,,,,,,,,6,1,,,,,,,6,0,6,0,,,,,,,,,,,442.005,442.5045,442.7546,448.4543,space,5.6852,,448.4545,2,53,449.4542,449.4542,449.9539,space,0.468,,0,47,47,47,1,50,175,,,,,,,,
,,651d639df30c0b3a9244cdcc,65af559473eaa355c997c249,2024-01-23_09h37.03.002,bars,2023.2.3,Win32,59.52380952,657b66ea316d21385b68909f,,,,,,,,,,,449.9549,450.9533,,,451.4537,451.7033,,133,133,,,,,,,,,,,,,,,,bars/017.png,bars/mask007.png,,,,,,,,,,,,3,1,,,,,,,4,2,5,2,,,,,,,,,,,450.9534,451.4537,451.7033,455.8376,space,4.1281,,455.8376,12,88,456.8365,456.8365,457.4203,space,0.5613,,0,48,48,48,1,145,45,,,,,,,,
,,651d639df30c0b3a9244cdcc,65af559473eaa355c997c249,2024-01-23_09h37.03.002,bars,2023.2.3,Win32,59.52380952,657b66ea316d21385b68909f,,,,,,,,,,,457.421,458.4206,,,458.9212,459.1706,,157,-23,,,,,,,,,,,,,,,,bars/003.png,bars/mask001.png,,,,,,,,,,,,1,2,,,,,,,2,4,4,3,,,,,,,,,,,458.4206,458.9212,459.1706,463.422,space,4.2345,,463.4221,48,17,464.4212,464.4212,465.0384,space,0.5882,,0,49,49,49,1,25,140,,,,,,,,
,,651d639df30c0b3a9244cdcc,65af559473eaa355c997c249,2024-01-23_09h37.03.002,bars,2023.2.3,Win32,59.52380952,657b66ea316d21385b68909f,,,,,,,,,,,,,,,,,,,,,,,,,,,,,,,,,,,,,,,,,,,,,,,,,,,,,,,,,,,,,,,,,,,,,,,,,,,,,,,,,,,,,,,,,,,,,465.0413,525.037,0,0,0,0,1,sequence_tables/blk015.csv
,,651d639df30c0b3a9244cdcc,65af559473eaa355c997c249,2024-01-23_09h37.03.002,bars,2023.2.3,Win32,59.52380952,657b66ea316d21385b68909f,,,,,,,,,,,535.5463,536.5348,,,537.0354,537.285,,108,108,,,,,,,,,,,,,,,,bars/004.png,bars/mask002.png,,,,,,,,,,,,2,2,,,,,,,8,4,8,5,,,,,,525.0544,535.5344,space,10.473,,536.5349,537.0353,537.285,540.3041,space,3.0048,,540.3042,83,17,541.3017,541.3017,541.3159,,,,0,0,0,0,1,25,125,,,,,,,,
,,651d639df30c0b3a9244cdcc,65af559473eaa355c997c249,2024-01-23_09h37.03.002,bars,2023.2.3,Win32,59.52380952,657b66ea316d21385b68909f,,,,,,,,,,,541.316,542.3198,,,542.8194,543.0697,,77,77,,,,,,,,,,,,,,,,bars/013.png,bars/mask008.png,,,,,,,,,,,,9,1,,,,,,,10,6,10,8,,,,,,,,,,,542.3199,542.8194,543.0697,550.9375,space,7.8628,,550.9375,2,67,551.936,551.936,551.9463,,,,0,1,1,1,1,75,10,,,,,,,,
,,651d639df30c0b3a9244cdcc,65af559473eaa355c997c249,2024-01-23_09h37.03.002,bars,2023.2.3,Win32,59.52380952,657b66ea316d21385b68909f,,,,,,,,,,,551.9464,552.9346,,,553.4348,553.6843,,64,64,,,,,,,,,,,,,,,,bars/015.png,bars/mask009.png,,,,,,,,,,,,0,1,,,,,,,10,4,10,5,,,,,,,,,,,552.9346,553.4343,553.6843,557.6682,space,3.9767,,557.6684,46,84,558.6675,558.6676,558.6854,,,,0,2,2,2,1,110,160,,,,,,,,
,,651d639df30c0b3a9244cdcc,65af559473eaa355c997c249,2024-01-23_09h37.03.002,bars,2023.2.3,Win32,59.52380952,657b66ea316d21385b68909f,,,,,,,,,,,558.6856,559.6861,,,560.1857,560.4342,,116,116,,,,,,,,,,,,,,,,bars/024.png,bars/mask001.png,,,,,,,,,,,,7,1,,,,,,,8,6,8,5,,,,,,,,,,,559.6861,560.1856,560.4343,563.1686,space,2.7216,,563.1688,4,54,564.1693,564.1694,564.1853,,,,0,3,3,3,1,120,170,,,,,,,,
,,651d639df30c0b3a9244cdcc,65af559473eaa355c997c249,2024-01-23_09h37.03.002,bars,2023.2.3,Win32,59.52380952,657b66ea316d21385b68909f,,,,,,,,,,,564.1855,565.1855,,,565.684,565.9339,,77,77,,,,,,,,,,,,,,,,bars/002.png,bars/mask003.png,,,,,,,,,,,,7,2,,,,,,,10,8,10,9,,,,,,,,,,,565.1855,565.684,565.9339,568.8513,space,2.91,,568.8514,53,8,569.8526,569.8528,569.8677,,,,0,4,4,4,1,130,85,,,,,,,,
,,651d639df30c0b3a9244cdcc,65af559473eaa355c997c249,2024-01-23_09h37.03.002,bars,2023.2.3,Win32,59.52380952,657b66ea316d21385b68909f,,,,,,,,,,,569.8679,570.8692,,,571.3688,571.6186,,69,69,,,,,,,,,,,,,,,,bars/025.png,bars/mask005.png,,,,,,,,,,,,0,2,,,,,,,8,10,8,10,,,,,,,,,,,570.8692,571.3687,571.6186,574.2671,space,2.6352,,574.2672,36,29,575.2684,575.2684,575.2863,,,,0,5,5,5,1,105,40,,,,,,,,
,,651d639df30c0b3a9244cdcc,65af559473eaa355c997c249,2024-01-23_09h37.03.002,bars,2023.2.3,Win32,59.52380952,657b66ea316d21385b68909f,,,,,,,,,,,575.2865,576.2847,,,576.7837,577.0352,,72,72,,,,,,,,,,,,,,,,bars/007.png,bars/mask002.png,,,,,,,,,,,,4,2,,,,,,,10,10,10,10,,,,,,,,,,,576.2848,576.7837,577.0352,580.6506,space,3.6003,,580.6507,77,17,581.6502,581.6502,581.6682,,,,0,6,6,6,1,175,55,,,,,,,,
,,651d639df30c0b3a9244cdcc,65af559473eaa355c997c249,2024-01-23_09h37.03.002,bars,2023.2.3,Win32,59.52380952,657b66ea316d21385b68909f,,,,,,,,,,,581.6684,582.6683,,,583.1667,583.4182,,4,4,,,,,,,,,,,,,,,,bars/016.png,bars/mask007.png,,,,,,,,,,,,4,2,,,,,,,8,10,7,10,,,,,,,,,,,582.6683,583.1667,583.4182,586.6838,space,3.2583,,586.6838,36,19,587.6841,587.6842,587.6939,,,,0,7,7,7,1,40,165,,,,,,,,
,,651d639df30c0b3a9244cdcc,65af559473eaa355c997c249,2024-01-23_09h37.03.002,bars,2023.2.3,Win32,59.52380952,657b66ea316d21385b68909f,,,,,,,,,,,587.6942,588.6985,,,589.2002,589.4496,,103,103,,,,,,,,,,,,,,,,bars/018.png,bars/mask008.png,,,,,,,,,,,,6,2,,,,,,,6,10,6,10,,,,,,,,,,,588.6986,589.1996,589.4497,591.7511,space,2.2842,,591.7513,47,13,592.7511,592.7512,592.7653,,,,0,8,8,8,1,150,90,,,,,,,,
,,651d639df30c0b3a9244cdcc,65af559473eaa355c997c249,2024-01-23_09h37.03.002,bars,2023.2.3,Win32,59.52380952,657b66ea316d21385b68909f,,,,,,,,,,,592.7656,593.7677,,,594.2656,594.5182,,71,71,,,,,,,,,,,,,,,,bars/019.png,bars/mask003.png,,,,,,,,,,,,1,1,,,,,,,8,8,8,8,,,,,,,,,,,593.7678,594.2656,594.5182,596.6662,space,2.1348,,596.6664,26,34,597.6679,597.6679,597.672,,,,0,9,9,9,1,45,105,,,,,,,,
,,651d639df30c0b3a9244cdcc,65af559473eaa355c997c249,2024-01-23_09h37.03.002,bars,2023.2.3,Win32,59.52380952,657b66ea316d21385b68909f,,,,,,,,,,,597.6723,598.6677,,,599.1664,599.4175,,101,101,,,,,,,,,,,,,,,,bars/024.png,bars/mask000.png,,,,,,,,,,,,1,1,,,,,,,6,10,4,10,,,,,,,,,,,598.6677,599.1659,599.4176,603.1679,space,3.7347,,603.168,19,69,604.1659,604.166,604.18,,,,0,10,10,10,1,120,170,,,,,,,,
,,651d639df30c0b3a9244cdcc,65af559473eaa355c997c249,2024-01-23_09h37.03.002,bars,2023.2.3,Win32,59.52380952,657b66ea316d21385b68909f,,,,,,,,,,,604.1801,605.1826,,,605.6827,605.9339,,89,89,,,,,,,,,,,,,,,,bars/020.png,bars/mask005.png,,,,,,,,,,,,0,1,,,,,,,4,8,3,10,,,,,,,,,,,605.1826,605.6826,605.9339,609.9176,space,3.969,,609.9177,26,81,610.9152,610.9153,610.9296,,,,0,11,11,11,1,115,170,,,,,,,,
,,651d639df30c0b3a9244cdcc,65af559473eaa355c997c249,2024-01-23_09h37.03.002,bars,2023.2.3,Win32,59.52380952,657b66ea316d21385b68909f,,,,,,,,,,,610.9299,611.9329,,,612.4324,612.6822,,179,-1,,,,,,,,,,,,,,,,bars/007.png,bars/mask006.png,,,,,,,,,,,,5,1,,,,,,,6,6,6,5,,,,,,,,,,,611.9332,612.4323,612.6823,617.0993,space,4.4077,,617.0993,4,56,618.098,618.0981,618.1125,,,,0,12,12,12,1,175,55,,,,,,,,
,,651d639df30c0b3a9244cdcc,65af559473eaa355c997c249,2024-01-23_09h37.03.002,bars,2023.2.3,Win32,59.52380952,657b66ea316d21385b68909f,,,,,,,,,,,618.1127,619.1165,,,619.6154,619.8651,,93,93,,,,,,,,,,,,,,,,bars/011.png,bars/mask006.png,,,,,,,,,,,,5,2,,,,,,,8,8,7,7,,,,,,,,,,,619.1166,619.6153,619.8651,623.9146,space,4.0416,,623.9147,67,8,624.9149,624.915,624.9326,,,,0,13,13,13,1,160,85,,,,,,,,
,,651d639df30c0b3a9244cdcc,65af559473eaa355c997c249,2024-01-23_09h37.03.002,bars,2023.2.3,Win32,59.52380952,657b66ea316d21385b68909f,,,,,,,,,,,624.9328,625.9311,,,626.4314,626.6826,,123,123,,,,,,,,,,,,,,,,bars/011.png,bars/mask007.png,,,,,,,,,,,,0,1,,,,,,,6,10,6,10,,,,,,,,,,,625.9312,626.4311,626.6827,629.3202,space,2.6304,,629.3202,37,38,630.3147,630.3147,630.3299,,,,0,14,14,14,1,160,85,,,,,,,,
,,651d639df30c0b3a9244cdcc,65af559473eaa355c997c249,2024-01-23_09h37.03.002,bars,2023.2.3,Win32,59.52380952,657b66ea316d21385b68909f,,,,,,,,,,,630.3301,631.3319,,,631.833,632.0831,,50,50,,,,,,,,,,,,,,,,bars/029.png,bars/mask000.png,,,,,,,,,,,,8,2,,,,,,,4,10,5,10,,,,,,,,,,,631.332,631.8328,632.0831,634.3829,space,2.283,,634.3829,40,5,635.3828,635.3828,635.3978,,,,0,15,15,15,1,90,45,,,,,,,,
,,651d639df30c0b3a9244cdcc,65af559473eaa355c997c249,2024-01-23_09h37.03.002,bars,2023.2.3,Win32,59.52380952,657b66ea316d21385b68909f,,,,,,,,,,,635.3981,636.3994,,,636.8979,637.1494,,32,32,,,,,,,,,,,,,,,,bars/000.png,bars/mask003.png,,,,,,,,,,,,2,1,,,,,,,2,8,3,7,,,,,,,,,,,636.3995,636.8978,637.1494,639.1817,space,2.0244,,639.1818,8,67,640.1813,640.1814,640.1858,,,,0,16,16,16,1,40,145,,,,,,,,
,,651d639df30c0b3a9244cdcc,65af559473eaa355c997c249,2024-01-23_09h37.03.002,bars,2023.2.3,Win32,59.52380952,657b66ea316d21385b68909f,,,,,,,,,,,640.1861,641.1809,,,641.6827,641.9313,,145,145,,,,,,,,,,,,,,,,bars/023.png,bars/mask009.png,,,,,,,,,,,,0,2,,,,,,,4,6,4,7,,,,,,,,,,,641.181,641.6826,641.9313,646.9152,space,4.9758,,646.9152,55,30,647.9162,647.9163,647.9268,,,,0,17,17,17,1,20,115,,,,,,,,
,,651d639df30c0b3a9244cdcc,65af559473eaa355c997c249,2024-01-23_09h37.03.002,bars,2023.2.3,Win32,59.52380952,657b66ea316d21385b68909f,,,,,,,,,,,647.927,648.9161,,,649.4139,649.6662,,7,187,,,,,,,,,,,,,,,,bars/036.png,bars/mask006.png,,,,,,,,,,,,3,2,,,,,,,6,4,6,5,,,,,,,,,,,648.9162,649.4139,649.6662,654.2332,space,4.5504,,654.2333,42,13,655.2308,655.2308,655.2455,,,,0,18,18,18,1,145,20,,,,,,,,
,,651d639df30c0b3a9244cdcc,65af559473eaa355c997c249,2024-01-23_09h37.03.002,bars,2023.2.3,Win32,59.52380952,657b66ea316d21385b68909f,,,,,,,,,,,655.2457,656.2477,,,656.7491,656.9988,,57,57,,,,,,,,,,,,,,,,bars/048.png,bars/mask006.png,,,,,,,,,,,,2,1,,,,,,,4,2,3,3,,,,,,,,,,,656.2477,656.7489,656.9988,659.9974,space,2.9844,,659.9974,7,62,660.9971,660.9973,661.0116,,,,0,19,19,19,1,50,175,,,,,,,,
,,651d639df30c0b3a9244cdcc,65af559473eaa355c997c249,2024-01-23_09h37.03.002,bars,2023.2.3,Win32,59.52380952,657b66ea316d21385b68909f,,,,,,,,,,,661.0119,662.0135,,,662.5139,662.7625,,67,247,,,,,,,,,,,,,,,,bars/021.png,bars/mask007.png,,,,,,,,,,,,0,2,,,,,,,2,0,1,0,,,,,,,,,,,662.0137,662.5138,662.7625,666.3474,space,3.5741,,666.3477,88,3,667.347,667.3471,667.3661,,,,0,20,20,20,1,155,70,,,,,,,,
,,651d639df30c0b3a9244cdcc,65af559473eaa355c997c249,2024-01-23_09h37.03.002,bars,2023.2.3,Win32,59.52380952,657b66ea316d21385b68909f,,,,,,,,,,,667.3664,668.3648,,,668.8636,669.1153,,77,77,,,,,,,,,,,,,,,,bars/002.png,bars/mask009.png,,,,,,,,,,,,0,2,,,,,,,4,0,5,0,,,,,,,,,,,668.3649,668.8636,669.1154,672.9966,space,3.8673,,672.9966,53,8,673.9965,673.9965,674.0111,,,,0,21,21,21,1,130,85,,,,,,,,
,,651d639df30c0b3a9244cdcc,65af559473eaa355c997c249,2024-01-23_09h37.03.002,bars,2023.2.3,Win32,59.52380952,657b66ea316d21385b68909f,,,,,,,,,,,674.0116,675.0133,,,675.5129,675.7647,,170,170,,,,,,,,,,,,,,,,bars/008.png,bars/mask005.png,,,,,,,,,,,,0,2,,,,,,,6,0,5,0,,,,,,,,,,,675.0133,675.5128,675.7647,680.8298,space,5.0545,,680.8299,60,10,681.8295,681.8296,681.8436,,,,0,22,22,22,1,110,0,,,,,,,,
,,651d639df30c0b3a9244cdcc,65af559473eaa355c997c249,2024-01-23_09h37.03.002,bars,2023.2.3,Win32,59.52380952,657b66ea316d21385b68909f,,,,,,,,,,,681.8437,682.8464,,,683.3484,683.5955,,103,103,,,,,,,,,,,,,,,,bars/049.png,bars/mask000.png,,,,,,,,,,,,0,2,,,,,,,8,0,8,0,,,,,,,,,,,682.8465,683.3483,683.5956,687.2815,space,3.67,,687.2818,57,12,688.2794,688.2799,688.2943,,,,0,23,23,23,1,160,115,,,,,,,,
,,651d639df30c0b3a9244cdcc,65af559473eaa355c997c249,2024-01-23_09h37.03.002,bars,2023.2.3,Win32,59.52380952,657b66ea316d21385b68909f,,,,,,,,,,,688.2945,689.2978,,,689.7955,690.0461,,72,72,,,,,,,,,,,,,,,,bars/048.png,bars/mask004.png,,,,,,,,,,,,3,1,,,,,,,10,0,10,2,,,,,,,,,,,689.298,689.7954,690.0462,692.1977,space,2.1391,,692.1979,22,77,693.1956,693.1959,693.2113,,,,0,24,24,24,1,50,175,,,,,,,,
,,651d639df30c0b3a9244cdcc,65af559473eaa355c997c249,2024-01-23_09h37.03.002,bars,2023.2.3,Win32,59.52380952,657b66ea316d21385b68909f,,,,,,,,,,,693.2116,694.2118,,,694.7124,694.9612,,168,168,,,,,,,,,,,,,,,,bars/016.png,bars/mask007.png,,,,,,,,,,,,3,2,,,,,,,10,2,10,3,,,,,,,,,,,694.2119,694.7124,694.9613,697.3473,space,2.3689,,697.3474,52,3,698.3458,698.3458,698.3646,,,,0,25,25,25,1,40,165,,,,,,,,
,,651d639df30c0b3a9244cdcc,65af559473eaa355c997c249,2024-01-23_09h37.03.002,bars,2023.2.3,Win32,59.52380952,657b66ea316d21385b68909f,,,,,,,,,,,698.3648,699.3619,,,699.8635,700.1124,,125,125,,,,,,,,,,,,,,,,bars/025.png,bars/mask005.png,,,,,,,,,,,,2,1,,,,,,,8,4,7,3,,,,,,,,,,,699.3619,699.8634,700.1124,703.6616,space,3.535,,703.6616,20,85,704.6621,704.6622,704.6785,,,,0,26,26,26,1,105,40,,,,,,,,
,,651d639df30c0b3a9244cdcc,65af559473eaa355c997c249,2024-01-23_09h37.03.002,bars,2023.2.3,Win32,59.52380952,657b66ea316d21385b68909f,,,,,,,,,,,704.6791,705.6804,,,706.1802,706.4288,,76,76,,,,,,,,,,,,,,,,bars/049.png,bars/mask004.png,,,,,,,,,,,,0,2,,,,,,,6,2,7,2,,,,,,,,,,,705.6806,706.1802,706.4289,708.8954,space,2.4597,,708.8955,84,39,709.895,709.8952,709.9121,,,,0,27,27,27,1,160,115,,,,,,,,
,,651d639df30c0b3a9244cdcc,65af559473eaa355c997c249,2024-01-23_09h37.03.002,bars,2023.2.3,Win32,59.52380952,657b66ea316d21385b68909f,,,,,,,,,,,709.9124,710.9123,,,711.4133,711.662,,47,227,,,,,,,,,,,,,,,,bars/038.png,bars/mask005.png,,,,,,,,,,,,0,2,,,,,,,4,0,3,1,,,,,,,,,,,710.9123,711.4133,711.6621,715.9132,space,4.241,,715.9132,62,23,716.9102,716.9102,716.9198,,,,0,28,28,28,1,165,70,,,,,,,,
,,651d639df30c0b3a9244cdcc,65af559473eaa355c997c249,2024-01-23_09h37.03.002,bars,2023.2.3,Win32,59.52380952,657b66ea316d21385b68909f,,,,,,,,,,,716.9201,717.9118,,,718.413,718.6612,,119,119,,,,,,,,,,,,,,,,bars/020.png,bars/mask008.png,,,,,,,,,,,,5,1,,,,,,,6,2,6,1,,,,,,,,,,,717.9118,718.413,718.6613,720.5609,space,1.8928,,720.5609,4,51,721.5603,721.5606,721.5655,,,,0,29,29,29,1,115,170,,,,,,,,
,,651d639df30c0b3a9244cdcc,65af559473eaa355c997c249,2024-01-23_09h37.03.002,bars,2023.2.3,Win32,59.52380952,657b66ea316d21385b68909f,,,,,,,,,,,721.5659,722.5615,,,723.0616,723.3111,,127,127,,,,,,,,,,,,,,,,bars/003.png,bars/mask006.png,,,,,,,,,,,,1,2,,,,,,,4,0,2,1,,,,,,,,,,,722.5615,723.0616,723.3112,726.745,space,3.4177,,726.7452,78,13,727.746,727.746,727.7642,,,,0,30,30,30,1,25,140,,,,,,,,
,,651d639df30c0b3a9244cdcc,65af559473eaa355c997c249,2024-01-23_09h37.03.002,bars,2023.2.3,Win32,59.52380952,657b66ea316d21385b68909f,,,,,,,,,,,727.7644,728.7611,,,729.2614,729.5113,,59,59,,,,,,,,,,,,,,,,bars/019.png,bars/mask005.png,,,,,,,,,,,,1,1,,,,,,,2,2,1,3,,,,,,,,,,,728.7613,729.2612,729.5113,731.5952,space,2.069,,731.5952,14,46,732.5955,732.5956,732.6083,,,,0,31,31,31,1,45,105,,,,,,,,
,,651d639df30c0b3a9244cdcc,65af559473eaa355c997c249,2024-01-23_09h37.03.002,bars,2023.2.3,Win32,59.52380952,657b66ea316d21385b68909f,,,,,,,,,,,732.6085,733.6117,,,734.1112,734.3608,,136,136,,,,,,,,,,,,,,,,bars/032.png,bars/mask004.png,,,,,,,,,,,,2,1,,,,,,,4,4,3,4,,,,,,,,,,,733.6117,734.1112,734.3608,738.4799,space,4.1026,,738.4799,11,64,739.479,739.479,739.4916,,,,0,32,32,32,1,125,20,,,,,,,,
,,651d639df30c0b3a9244cdcc,65af559473eaa355c997c249,2024-01-23_09h37.03.002,bars,2023.2.3,Win32,59.52380952,657b66ea316d21385b68909f,,,,,,,,,,,739.4918,740.4947,,,740.9943,741.2456,,133,-47,,,,,,,,,,,,,,,,bars/024.png,bars/mask005.png,,,,,,,,,,,,2,1,,,,,,,6,6,4,4,,,,,,,,,,,740.4948,740.9942,741.2457,746.045,space,4.7839,,746.0452,13,37,747.0434,747.0435,747.0587,,,,0,33,33,33,1,120,170,,,,,,,,
,,651d639df30c0b3a9244cdcc,65af559473eaa355c997c249,2024-01-23_09h37.03.002,bars,2023.2.3,Win32,59.52380952,657b66ea316d21385b68909f,,,,,,,,,,,747.0589,748.0605,,,748.5605,748.8106,,52,52,,,,,,,,,,,,,,,,bars/020.png,bars/mask006.png,,,,,,,,,,,,0,2,,,,,,,4,8,4,8,,,,,,,,,,,748.0605,748.5603,748.8106,752.9628,space,4.1343,,752.9629,63,62,753.9622,753.9622,753.9772,,,,0,34,34,34,1,115,170,,,,,,,,
,,651d639df30c0b3a9244cdcc,65af559473eaa355c997c249,2024-01-23_09h37.03.002,bars,2023.2.3,Win32,59.52380952,657b66ea316d21385b68909f,,,,,,,,,,,753.9774,754.9783,,,755.4772,755.7279,,125,125,,,,,,,,,,,,,,,,bars/013.png,bars/mask004.png,,,,,,,,,,,,0,1,,,,,,,2,10,1,9,,,,,,,,,,,754.9783,755.4771,755.7279,758.794,space,3.0507,,758.7942,50,65,759.7933,759.7934,759.8117,,,,0,35,35,35,1,75,10,,,,,,,,
,,651d639df30c0b3a9244cdcc,65af559473eaa355c997c249,2024-01-23_09h37.03.002,bars,2023.2.3,Win32,59.52380952,657b66ea316d21385b68909f,,,,,,,,,,,759.8119,760.8119,,,761.3099,761.5601,,165,165,,,,,,,,,,,,,,,,bars/033.png,bars/mask000.png,,,,,,,,,,,,5,2,,,,,,,4,8,3,8,,,,,,,,,,,760.8119,761.3098,761.5601,763.1445,space,1.5687,,763.1447,40,10,764.1433,764.1434,764.1479,,,,0,36,36,36,1,25,155,,,,,,,,
,,651d639df30c0b3a9244cdcc,65af559473eaa355c997c249,2024-01-23_09h37.03.002,bars,2023.2.3,Win32,59.52380952,657b66ea316d21385b68909f,,,,,,,,,,,764.1482,765.1427,,,765.645,765.8928,,165,-15,,,,,,,,,,,,,,,,bars/034.png,bars/mask009.png,,,,,,,,,,,,0,1,,,,,,,2,6,2,5,,,,,,,,,,,765.1428,765.645,765.8929,768.66,space,2.7533,,768.66,40,80,769.6598,769.6598,769.6783,,,,0,37,37,37,1,125,65,,,,,,,,
,,651d639df30c0b3a9244cdcc,65af559473eaa355c997c249,2024-01-23_09h37.03.002,bars,2023.2.3,Win32,59.52380952,657b66ea316d21385b68909f,,,,,,,,,,,769.6785,770.6763,,,771.176,771.4263,,118,118,,,,,,,,,,,,,,,,bars/018.png,bars/mask002.png,,,,,,,,,,,,1,2,,,,,,,4,8,4,10,,,,,,,,,,,770.6764,771.1759,771.4264,775.0615,space,3.6234,,775.0615,32,28,776.0594,776.0594,776.0786,,,,0,38,38,38,1,150,90,,,,,,,,
,,651d639df30c0b3a9244cdcc,65af559473eaa355c997c249,2024-01-23_09h37.03.002,bars,2023.2.3,Win32,59.52380952,657b66ea316d21385b68909f,,,,,,,,,,,776.0789,777.076,,,777.5764,777.8258,,62,62,,,,,,,,,,,,,,,,bars/015.png,bars/mask002.png,,,,,,,,,,,,0,1,,,,,,,2,6,2,5,,,,,,,,,,,777.0762,777.5762,777.8258,782.1096,space,4.2756,,782.1097,48,82,783.1093,783.1093,783.12,,,,0,39,39,39,1,110,160,,,,,,,,
,,651d639df30c0b3a9244cdcc,65af559473eaa355c997c249,2024-01-23_09h37.03.002,bars,2023.2.3,Win32,59.52380952,657b66ea316d21385b68909f,,,,,,,,,,,783.1202,784.1093,,,784.6109,784.8608,,53,53,,,,,,,,,,,,,,,,bars/046.png,bars/mask001.png,,,,,,,,,,,,0,2,,,,,,,4,8,2,7,,,,,,,,,,,784.1093,784.6109,784.8608,786.612,space,1.7459,,786.6122,78,32,787.6092,787.6092,787.614,,,,0,40,40,40,1,155,85,,,,,,,,
,,651d639df30c0b3a9244cdcc,65af559473eaa355c997c249,2024-01-23_09h37.03.002,bars,2023.2.3,Win32,59.52380952,657b66ea316d21385b68909f,,,,,,,,,,,787.6147,788.6088,,,789.1081,789.3583,,129,129,,,,,,,,,,,,,,,,bars/041.png,bars/mask004.png,,,,,,,,,,,,0,2,,,,,,,6,10,5,10,,,,,,,,,,,788.6088,789.1081,789.3583,791.3942,space,2.0301,,791.3943,71,44,792.3914,792.3915,792.3932,,,,0,41,41,41,1,20,85,,,,,,,,
,,651d639df30c0b3a9244cdcc,65af559473eaa355c997c249,2024-01-23_09h37.03.002,bars,2023.2.3,Win32,59.52380952,657b66ea316d21385b68909f,,,,,,,,,,,792.3939,793.3916,,,793.8912,794.1411,,119,119,,,,,,,,,,,,,,,,bars/022.png,bars/mask004.png,,,,,,,,,,,,2,1,,,,,,,8,8,8,10,,,,,,,,,,,793.3916,793.8911,794.1412,798.0746,space,3.921,,798.0748,24,81,799.0744,799.0744,799.0889,,,,0,42,42,42,1,95,20,,,,,,,,
,,651d639df30c0b3a9244cdcc,65af559473eaa355c997c249,2024-01-23_09h37.03.002,bars,2023.2.3,Win32,59.52380952,657b66ea316d21385b68909f,,,,,,,,,,,799.0891,800.0917,,,800.5911,800.8409,,111,111,,,,,,,,,,,,,,,,bars/042.png,bars/mask002.png,,,,,,,,,,,,0,1,,,,,,,10,6,10,6,,,,,,,,,,,800.0918,800.591,800.841,801.5416,space,0.6876,,801.5416,34,36,802.5409,802.5409,802.5422,,,,0,43,43,43,1,145,75,,,,,,,,
,,651d639df30c0b3a9244cdcc,65af559473eaa355c997c249,2024-01-23_09h37.03.002,bars,2023.2.3,Win32,59.52380952,657b66ea316d21385b68909f,,,,,,,,,,,802.5437,803.5404,,,804.0415,804.2905,,55,55,,,,,,,,,,,,,,,,bars/015.png,bars/mask007.png,,,,,,,,,,,,0,1,,,,,,,8,4,10,5,,,,,,,,,,,803.5404,804.0414,804.2906,809.5083,space,5.204,,809.5083,55,75,810.5073,810.5075,810.5206,,,,0,44,44,44,1,110,160,,,,,,,,
,,651d639df30c0b3a9244cdcc,65af559473eaa355c997c249,2024-01-23_09h37.03.002,bars,2023.2.3,Win32,59.52380952,657b66ea316d21385b68909f,,,,,,,,,,,810.5207,811.524,,,812.0242,812.2739,,127,127,,,,,,,,,,,,,,,,bars/044.png,bars/mask007.png,,,,,,,,,,,,0,2,,,,,,,6,2,7,2,,,,,,,,,,,811.5242,812.0242,812.274,815.5249,space,3.2389,,815.5249,52,28,816.5236,816.5236,816.5375,,,,0,45,45,45,1,75,155,,,,,,,,
,,651d639df30c0b3a9244cdcc,65af559473eaa355c997c249,2024-01-23_09h37.03.002,bars,2023.2.3,Win32,59.52380952,657b66ea316d21385b68909f,,,,,,,,,,,816.5376,817.5404,,,818.0403,818.2903,,124,124,,,,,,,,,,,,,,,,bars/037.png,bars/mask007.png,,,,,,,,,,,,0,2,,,,,,,4,0,5,0,,,,,,,,,,,817.5404,818.0403,818.2903,820.0899,space,1.7845,,820.09,26,19,821.0899,821.0899,821.0991,,,,0,46,46,46,1,150,105,,,,,,,,
,,651d639df30c0b3a9244cdcc,65af559473eaa355c997c249,2024-01-23_09h37.03.002,bars,2023.2.3,Win32,59.52380952,657b66ea316d21385b68909f,,,,,,,,,,,821.0992,822.09,,,822.5899,822.84,,142,142,,,,,,,,,,,,,,,,bars/044.png,bars/mask005.png,,,,,,,,,,,,1,2,,,,,,,2,2,2,2,,,,,,,,,,,822.0901,822.5899,822.8401,827.6061,space,4.7527,,827.6061,67,13,828.6067,828.6068,828.6201,,,,0,47,47,47,1,75,155,,,,,,,,
,,651d639df30c0b3a9244cdcc,65af559473eaa355c997c249,2024-01-23_09h37.03.002,bars,2023.2.3,Win32,59.52380952,657b66ea316d21385b68909f,,,,,,,,,,,828.6203,829.6232,,,830.1232,830.3733,,132,132,,,,,,,,,,,,,,,,bars/017.png,bars/mask004.png,,,,,,,,,,,,1,1,,,,,,,0,4,1,5,,,,,,,,,,,829.6234,830.1232,830.3733,832.8402,space,2.4522,,832.8402,13,87,833.8397,833.8397,833.854,,,,0,48,48,48,1,145,45,,,,,,,,
,,651d639df30c0b3a9244cdcc,65af559473eaa355c997c249,2024-01-23_09h37.03.002,bars,2023.2.3,Win32,59.52380952,657b66ea316d21385b68909f,,,,,,,,,,,833.8541,834.8562,,,835.3563,835.6063,,53,53,,,,,,,,,,,,,,,,bars/029.png,bars/mask004.png,,,,,,,,,,,,1,2,,,,,,,2,2,3,2,,,,,,,,,,,834.8562,835.3563,835.6063,837.8243,space,2.203,,837.8245,37,8,838.8224,838.8224,838.8326,,,,0,49,49,49,1,90,45,,,,,,,,
,,651d639df30c0b3a9244cdcc,65af559473eaa355c997c249,2024-01-23_09h37.03.002,bars,2023.2.3,Win32,59.52380952,657b66ea316d21385b68909f,,,,,,,,,,,,,,,,,,,,,,,,,,,,,,,,,,,,,,,,,,,,,,,,,,,,,,,,,,,,,,,,,,,,,,,,,,,,,,,,,,,,,,,,,,,,,838.8328,898.822,0,1,1,1,1,sequence_tables/blk028.csv
,,651d639df30c0b3a9244cdcc,65af559473eaa355c997c249,2024-01-23_09h37.03.002,bars,2023.2.3,Win32,59.52380952,657b66ea316d21385b68909f,,,,,,,,,,,900.5445,901.538,,,902.0387,902.2879,,50,50,,,,,,,,,,,,,,,,bars/007.png,bars/mask006.png,,,,,,,,,,,,3,2,,,,,,,0,3,0,3,,,,,,898.8365,900.5389,space,1.6951,,901.538,902.0386,902.288,908.1563,space,5.8525,,908.1564,55,5,909.1546,909.1547,909.17,,,,0,0,0,0,1,175,55,,,,,,,,
,,651d639df30c0b3a9244cdcc,65af559473eaa355c997c249,2024-01-23_09h37.03.002,bars,2023.2.3,Win32,59.52380952,657b66ea316d21385b68909f,,,,,,,,,,,909.1704,910.171,,,910.6712,910.9227,,60,60,,,,,,,,,,,,,,,,bars/028.png,bars/mask004.png,,,,,,,,,,,,0,1,,,,,,,2,5,0,6,,,,,,,,,,,910.1711,910.6711,910.9227,913.5042,space,2.5709,,913.5043,15,60,914.5038,914.5045,914.521,,,,0,1,1,1,1,45,120,,,,,,,,
,,651d639df30c0b3a9244cdcc,65af559473eaa355c997c249,2024-01-23_09h37.03.002,bars,2023.2.3,Win32,59.52380952,657b66ea316d21385b68909f,,,,,,,,,,,914.5213,915.5208,,,916.0203,916.2701,,16,196,,,,,,,,,,,,,,,,bars/024.png,bars/mask003.png,,,,,,,,,,,,1,2,,,,,,,0,7,0,6,,,,,,,,,,,915.5208,916.0202,916.2701,921.5376,space,5.2507,,921.5378,76,26,922.5374,922.5375,922.5416,,,,0,2,2,2,1,120,170,,,,,,,,
,,651d639df30c0b3a9244cdcc,65af559473eaa355c997c249,2024-01-23_09h37.03.002,bars,2023.2.3,Win32,59.52380952,657b66ea316d21385b68909f,,,,,,,,,,,922.542,923.5387,,,925.3018,925.3032,,149,149,,,,,,,,,,,,,,,,bars/026.png,bars/mask005.png,,,,,,,,,,,,0,2,,,,,,,2,5,2,5,,,,,,,,,,,923.5388,925.3017,925.3033,927.0034,space,1.6877,,927.0035,66,64,928.0051,928.0053,928.0175,,,,0,3,3,3,1,35,85,,,,,,,,
,,651d639df30c0b3a9244cdcc,65af559473eaa355c997c249,2024-01-23_09h37.03.002,bars,2023.2.3,Win32,59.52380952,657b66ea316d21385b68909f,,,,,,,,,,,928.0177,929.0222,,,929.52,929.7701,,142,-38,,,,,,,,,,,,,,,,bars/005.png,bars/mask006.png,,,,,,,,,,,,7,2,,,,,,,0,7,0,7,,,,,,,,,,,929.0222,929.52,929.7702,933.5716,space,3.7856,,933.5717,48,2,934.57,934.57,934.584,,,,0,4,4,4,1,10,140,,,,,,,,
,,651d639df30c0b3a9244cdcc,65af559473eaa355c997c249,2024-01-23_09h37.03.002,bars,2023.2.3,Win32,59.52380952,657b66ea316d21385b68909f,,,,,,,,,,,934.5842,935.5877,,,936.0865,936.3362,,53,53,,,,,,,,,,,,,,,,bars/029.png,bars/mask007.png,,,,,,,,,,,,4,2,,,,,,,2,5,3,5,,,,,,,,,,,935.5878,936.0865,936.3364,939.7862,space,3.4382,,939.7862,37,8,940.7874,940.7875,940.801,,,,0,5,5,5,1,90,45,,,,,,,,
,,651d639df30c0b3a9244cdcc,65af559473eaa355c997c249,2024-01-23_09h37.03.002,bars,2023.2.3,Win32,59.52380952,657b66ea316d21385b68909f,,,,,,,,,,,940.8012,941.8036,,,942.3031,942.5532,,156,-24,,,,,,,,,,,,,,,,bars/033.png,bars/mask003.png,,,,,,,,,,,,2,2,,,,,,,0,3,0,2,,,,,,,,,,,941.8037,942.3031,942.5532,945.0044,space,2.4335,,945.0046,49,1,946.0038,946.004,946.0175,,,,0,6,6,6,1,25,155,,,,,,,,
,,651d639df30c0b3a9244cdcc,65af559473eaa355c997c249,2024-01-23_09h37.03.002,bars,2023.2.3,Win32,59.52380952,657b66ea316d21385b68909f,,,,,,,,,,,946.018,947.021,,,947.5195,947.7694,,43,43,,,,,,,,,,,,,,,,bars/028.png,bars/mask006.png,,,,,,,,,,,,3,1,,,,,,,2,5,3,5,,,,,,,,,,,947.0211,947.5194,947.7695,951.8903,space,4.1132,,951.8903,2,77,952.8866,952.8867,952.9004,,,,0,7,7,7,1,45,120,,,,,,,,
,,651d639df30c0b3a9244cdcc,65af559473eaa355c997c249,2024-01-23_09h37.03.002,bars,2023.2.3,Win32,59.52380952,657b66ea316d21385b68909f,,,,,,,,,,,952.9005,953.9045,,,954.4034,954.6526,,86,86,,,,,,,,,,,,,,,,bars/021.png,bars/mask005.png,,,,,,,,,,,,4,2,,,,,,,0,7,0,8,,,,,,,,,,,953.9045,954.4033,954.6528,958.1384,space,3.478,,958.1384,69,16,959.1369,959.1371,959.1464,,,,0,8,8,8,1,155,70,,,,,,,,
,,651d639df30c0b3a9244cdcc,65af559473eaa355c997c249,2024-01-23_09h37.03.002,bars,2023.2.3,Win32,59.52380952,657b66ea316d21385b68909f,,,,,,,,,,,959.1466,960.1378,,,960.6379,960.8869,,21,201,,,,,,,,,,,,,,,,bars/033.png,bars/mask003.png,,,,,,,,,,,,3,1,,,,,,,2,5,3,5,,,,,,,,,,,960.1379,960.6378,960.8871,964.1221,space,3.2212,,964.1223,4,46,965.1192,965.1192,965.129,,,,0,9,9,9,1,25,155,,,,,,,,
,,651d639df30c0b3a9244cdcc,65af559473eaa355c997c249,2024-01-23_09h37.03.002,bars,2023.2.3,Win32,59.52380952,657b66ea316d21385b68909f,,,,,,,,,,,965.1292,966.1215,,,966.621,966.8718,,51,51,,,,,,,,,,,,,,,,bars/034.png,bars/mask002.png,,,,,,,,,,,,4,2,,,,,,,0,7,1,7,,,,,,,,,,,966.1215,966.6209,966.8719,968.5207,space,1.6335,,968.5208,74,14,969.5206,969.5207,969.5316,,,,0,10,10,10,1,125,65,,,,,,,,
,,651d639df30c0b3a9244cdcc,65af559473eaa355c997c249,2024-01-23_09h37.03.002,bars,2023.2.3,Win32,59.52380952,657b66ea316d21385b68909f,,,,,,,,,,,969.5317,970.5208,,,971.0198,971.271,,131,131,,,,,,,,,,,,,,,,bars/013.png,bars/mask001.png,,,,,,,,,,,,0,1,,,,,,,0,9,1,10,,,,,,,,,,,970.5209,971.0197,971.2711,974.2858,space,3.0083,,974.2858,56,59,975.2871,975.2871,975.3006,,,,0,11,11,11,1,75,10,,,,,,,,
,,651d639df30c0b3a9244cdcc,65af559473eaa355c997c249,2024-01-23_09h37.03.002,bars,2023.2.3,Win32,59.52380952,657b66ea316d21385b68909f,,,,,,,,,,,975.301,976.3034,,,976.8042,977.054,,51,51,,,,,,,,,,,,,,,,bars/029.png,bars/mask007.png,,,,,,,,,,,,6,2,,,,,,,2,7,2,7,,,,,,,,,,,976.3034,976.8041,977.0541,981.1386,space,4.0792,,981.1387,39,6,982.1361,982.1362,982.1484,,,,0,12,12,12,1,90,45,,,,,,,,
,,651d639df30c0b3a9244cdcc,65af559473eaa355c997c249,2024-01-23_09h37.03.002,bars,2023.2.3,Win32,59.52380952,657b66ea316d21385b68909f,,,,,,,,,,,982.1486,983.1372,,,983.6366,983.8873,,116,116,,,,,,,,,,,,,,,,bars/022.png,bars/mask002.png,,,,,,,,,,,,1,1,,,,,,,4,5,3,5,,,,,,,,,,,983.1372,983.6366,983.8873,987.7065,space,3.8133,,987.7066,21,84,988.7035,988.7036,988.7195,,,,0,13,13,13,1,95,20,,,,,,,,
,,651d639df30c0b3a9244cdcc,65af559473eaa355c997c249,2024-01-23_09h37.03.002,bars,2023.2.3,Win32,59.52380952,657b66ea316d21385b68909f,,,,,,,,,,,988.7199,989.7206,,,990.2202,990.4694,,35,35,,,,,,,,,,,,,,,,bars/046.png,bars/mask003.png,,,,,,,,,,,,0,2,,,,,,,2,3,1,3,,,,,,,,,,,989.7206,990.22,990.4695,992.5703,space,2.0843,,992.5703,60,50,993.57,993.5701,993.5819,,,,0,14,14,14,1,155,85,,,,,,,,
,,651d639df30c0b3a9244cdcc,65af559473eaa355c997c249,2024-01-23_09h37.03.002,bars,2023.2.3,Win32,59.52380952,657b66ea316d21385b68909f,,,,,,,,,,,993.5821,994.57,,,995.0699,995.3203,,64,64,,,,,,,,,,,,,,,,bars/035.png,bars/mask007.png,,,,,,,,,,,,3,2,,,,,,,4,1,3,3,,,,,,,,,,,994.5701,995.0699,995.3203,997.4531,space,2.1186,,997.4532,69,4,998.4531,998.4531,998.4627,,,,0,15,15,15,1,175,60,,,,,,,,
,,651d639df30c0b3a9244cdcc,65af559473eaa355c997c249,2024-01-23_09h37.03.002,bars,2023.2.3,Win32,59.52380952,657b66ea316d21385b68909f,,,,,,,,,,,998.4628,999.4534,,,999.9525,1000.2036,,109,109,,,,,,,,,,,,,,,,bars/044.png,bars/mask001.png,,,,,,,,,,,,0,1,,,,,,,6,0,5,0,,,,,,,,,,,999.4536,999.9524,1000.2037,1002.2533,space,2.0444,,1002.2534,34,46,1003.2505,1003.2505,1003.2551,,,,0,16,16,16,1,75,155,,,,,,,,
,,651d639df30c0b3a9244cdcc,65af559473eaa355c997c249,2024-01-23_09h37.03.002,bars,2023.2.3,Win32,59.52380952,657b66ea316d21385b68909f,,,,,,,,,,,1003.2556,1004.253,,,1004.7528,1005.0025,,39,39,,,,,,,,,,,,,,,,bars/029.png,bars/mask006.png,,,,,,,,,,,,2,2,,,,,,,4,2,5,2,,,,,,,,,,,1004.2531,1004.7527,1005.0026,1006.7862,space,1.7675,,1006.7863,51,6,1007.7864,1007.7865,1007.8026,,,,0,17,17,17,1,90,45,,,,,,,,
,,651d639df30c0b3a9244cdcc,65af559473eaa355c997c249,2024-01-23_09h37.03.002,bars,2023.2.3,Win32,59.52380952,657b66ea316d21385b68909f,,,,,,,,,,,1007.803,1008.8039,,,1009.3037,1009.5526,,62,62,,,,,,,,,,,,,,,,bars/012.png,bars/mask009.png,,,,,,,,,,,,0,1,,,,,,,6,4,7,4,,,,,,,,,,,1008.8039,1009.3036,1009.5526,1014.4539,space,4.8847,,1014.454,28,47,1015.4525,1015.4526,1015.4635,,,,0,18,18,18,1,90,15,,,,,,,,
,,651d639df30c0b3a9244cdcc,65af559473eaa355c997c249,2024-01-23_09h37.03.002,bars,2023.2.3,Win32,59.52380952,657b66ea316d21385b68909f,,,,,,,,,,,1015.4638,1016.453,,,1016.9531,1017.202,,121,121,,,,,,,,,,,,,,,,bars/001.png,bars/mask008.png,,,,,,,,,,,,4,1,,,,,,,4,2,6,3,,,,,,,,,,,1016.4531,1016.953,1017.2022,1019.853,space,2.6342,,1019.8531,9,36,1020.8528,1020.8529,1020.8645,,,,0,19,19,19,1,130,85,,,,,,,,
,,651d639df30c0b3a9244cdcc,65af559473eaa355c997c249,2024-01-23_09h37.03.002,bars,2023.2.3,Win32,59.52380952,657b66ea316d21385b68909f,,,,,,,,,,,1020.8647,1021.8694,,,1022.3685,1022.6187,,155,-25,,,,,,,,,,,,,,,,bars/048.png,bars/mask004.png,,,,,,,,,,,,1,2,,,,,,,6,4,8,4,,,,,,,,,,,1021.8695,1022.3683,1022.6187,1026.0867,space,3.4521,,1026.0867,75,20,1027.0857,1027.0858,1027.097,,,,0,20,20,20,1,50,175,,,,,,,,
,,651d639df30c0b3a9244cdcc,65af559473eaa355c997c249,2024-01-23_09h37.03.002,bars,2023.2.3,Win32,59.52380952,657b66ea316d21385b68909f,,,,,,,,,,,1027.0972,1028.0857,,,1028.5866,1028.836,,61,61,,,,,,,,,,,,,,,,bars/021.png,bars/mask009.png,,,,,,,,,,,,4,2,,,,,,,8,6,9,6,,,,,,,,,,,1028.0857,1028.5865,1028.8362,1031.3181,space,2.4716,,1031.3181,86,9,1032.3183,1032.3185,1032.3304,,,,0,21,21,21,1,155,70,,,,,,,,
,,651d639df30c0b3a9244cdcc,65af559473eaa355c997c249,2024-01-23_09h37.03.002,bars,2023.2.3,Win32,59.52380952,657b66ea316d21385b68909f,,,,,,,,,,,1032.3307,1033.3331,,,1033.8351,1034.0856,,21,201,,,,,,,,,,,,,,,,bars/040.png,bars/mask006.png,,,,,,,,,,,,4,2,,,,,,,10,8,9,8,,,,,,,,,,,1033.3333,1033.835,1034.0857,1036.1345,space,2.0411,,1036.1346,61,16,1037.1349,1037.1349,1037.137,,,,0,22,22,22,1,140,5,,,,,,,,
,,651d639df30c0b3a9244cdcc,65af559473eaa355c997c249,2024-01-23_09h37.03.002,bars,2023.2.3,Win32,59.52380952,657b66ea316d21385b68909f,,,,,,,,,,,1037.1373,1038.1348,,,1038.6351,1038.8838,,49,49,,,,,,,,,,,,,,,,bars/004.png,bars/mask003.png,,,,,,,,,,,,1,1,,,,,,,8,10,7,10,,,,,,,,,,,1038.1351,1038.6351,1038.8839,1041.251,space,2.3495,,1041.251,24,76,1042.2517,1042.2518,1042.2637,,,,0,23,23,23,1,25,125,,,,,,,,
,,651d639df30c0b3a9244cdcc,65af559473eaa355c997c249,2024-01-23_09h37.03.002,bars,2023.2.3,Win32,59.52380952,657b66ea316d21385b68909f,,,,,,,,,,,1042.264,1043.2523,,,1043.751,1044.0016,,136,136,,,,,,,,,,,,,,,,bars/004.png,bars/mask007.png,,,,,,,,,,,,5,2,,,,,,,10,8,10,8,,,,,,,,,,,1043.2525,1043.7509,1044.0016,1045.8844,space,1.8672,,1045.8845,69,11,1046.8832,1046.8833,1046.8874,,,,0,24,24,24,1,25,125,,,,,,,,
,,651d639df30c0b3a9244cdcc,65af559473eaa355c997c249,2024-01-23_09h37.03.002,bars,2023.2.3,Win32,59.52380952,657b66ea316d21385b68909f,,,,,,,,,,,1046.8877,1047.8849,,,1048.3845,1048.6344,,61,61,,,,,,,,,,,,,,,,bars/029.png,bars/mask001.png,,,,,,,,,,,,3,2,,,,,,,8,6,10,6,,,,,,,,,,,1047.8849,1048.3845,1048.6345,1051.8677,space,3.218,,1051.8677,29,16,1052.8674,1052.8675,1052.8766,,,,0,25,25,25,1,90,45,,,,,,,,
,,651d639df30c0b3a9244cdcc,65af559473eaa355c997c249,2024-01-23_09h37.03.002,bars,2023.2.3,Win32,59.52380952,657b66ea316d21385b68909f,,,,,,,,,,,1052.8767,1053.8673,,,1054.3686,1054.616,,109,109,,,,,,,,,,,,,,,,bars/038.png,bars/mask005.png,,,,,,,,,,,,0,2,,,,,,,6,4,6,4,,,,,,,,,,,1053.8674,1054.3685,1054.6161,1056.651,space,2.0197,,1056.6511,56,39,1057.6498,1057.6499,1057.6628,,,,0,26,26,26,1,165,70,,,,,,,,
,,651d639df30c0b3a9244cdcc,65af559473eaa355c997c249,2024-01-23_09h37.03.002,bars,2023.2.3,Win32,59.52380952,657b66ea316d21385b68909f,,,,,,,,,,,1057.663,1058.6513,,,1059.1517,1059.4012,,113,113,,,,,,,,,,,,,,,,bars/023.png,bars/mask001.png,,,,,,,,,,,,7,2,,,,,,,8,6,8,7,,,,,,,,,,,1058.6514,1059.1515,1059.4013,1060.1023,space,0.685,,1060.1023,87,2,1061.1013,1061.1014,1061.1032,,,,0,27,27,27,1,20,115,,,,,,,,
,,651d639df30c0b3a9244cdcc,65af559473eaa355c997c249,2024-01-23_09h37.03.002,bars,2023.2.3,Win32,59.52380952,657b66ea316d21385b68909f,,,,,,,,,,,1061.1035,1062.1006,,,1062.6011,1062.8506,,19,199,,,,,,,,,,,,,,,,bars/036.png,bars/mask002.png,,,,,,,,,,,,10,2,,,,,,,6,8,8,10,,,,,,,,,,,1062.1009,1062.6009,1062.8508,1065.0843,space,2.2279,,1065.0843,54,1,1066.0839,1066.0839,1066.0935,,,,0,28,28,28,1,145,20,,,,,,,,
,,651d639df30c0b3a9244cdcc,65af559473eaa355c997c249,2024-01-23_09h37.03.002,bars,2023.2.3,Win32,59.52380952,657b66ea316d21385b68909f,,,,,,,,,,,1066.0937,1067.0839,,,1067.5838,1067.8343,,69,69,,,,,,,,,,,,,,,,bars/022.png,bars/mask009.png,,,,,,,,,,,,1,1,,,,,,,8,6,7,6,,,,,,,,,,,1067.0839,1067.5838,1067.8343,1070.85,space,3.0011,,1070.8501,26,49,1071.8487,1071.8487,1071.8588,,,,0,29,29,29,1,95,20,,,,,,,,
,,651d639df30c0b3a9244cdcc,65af559473eaa355c997c249,2024-01-23_09h37.03.002,bars,2023.2.3,Win32,59.52380952,657b66ea316d21385b68909f,,,,,,,,,,,1071.8589,1072.8519,,,1073.3506,1073.6006,,114,114,,,,,,,,,,,,,,,,bars/005.png,bars/mask008.png,,,,,,,,,,,,1,2,,,,,,,10,8,10,8,,,,,,,,,,,1072.8519,1073.3505,1073.6006,1076.0657,space,2.452,,1076.0659,76,26,1077.0669,1077.067,1077.0825,,,,0,30,30,30,1,10,140,,,,,,,,
,,651d639df30c0b3a9244cdcc,65af559473eaa355c997c249,2024-01-23_09h37.03.002,bars,2023.2.3,Win32,59.52380952,657b66ea316d21385b68909f,,,,,,,,,,,1077.0835,1078.0835,,,1078.5836,1078.834,,129,129,,,,,,,,,,,,,,,,bars/004.png,bars/mask009.png,,,,,,,,,,,,8,2,,,,,,,8,10,6,9,,,,,,,,,,,1078.0836,1078.5836,1078.8341,1083.5002,space,4.6511,,1083.5003,76,4,1084.4993,1084.4994,1084.5121,,,,0,31,31,31,1,25,125,,,,,,,,
,,651d639df30c0b3a9244cdcc,65af559473eaa355c997c249,2024-01-23_09h37.03.002,bars,2023.2.3,Win32,59.52380952,657b66ea316d21385b68909f,,,,,,,,,,,1084.5123,1085.5169,,,1086.0167,1086.267,,53,53,,,,,,,,,,,,,,,,bars/025.png,bars/mask006.png,,,,,,,,,,,,5,2,,,,,,,6,8,6,8,,,,,,,,,,,1085.517,1086.0166,1086.2671,1088.2667,space,1.9892,,1088.2668,52,13,1089.267,1089.2672,1089.2688,,,,0,32,32,32,1,105,40,,,,,,,,
,,651d639df30c0b3a9244cdcc,65af559473eaa355c997c249,2024-01-23_09h37.03.002,bars,2023.2.3,Win32,59.52380952,657b66ea316d21385b68909f,,,,,,,,,,,1089.2695,1090.2665,,,1090.7659,1091.0145,,107,107,,,,,,,,,,,,,,,,bars/006.png,bars/mask006.png,,,,,,,,,,,,8,2,,,,,,,8,10,8,10,,,,,,,,,,,1090.2666,1090.7659,1091.0145,1094.6827,space,3.6517,,1094.6827,72,7,1095.6808,1095.6808,1095.699,,,,0,33,33,33,1,35,100,,,,,,,,
,,651d639df30c0b3a9244cdcc,65af559473eaa355c997c249,2024-01-23_09h37.03.002,bars,2023.2.3,Win32,59.52380952,657b66ea316d21385b68909f,,,,,,,,,,,1095.6993,1096.6984,,,1097.1974,1097.4476,,33,33,,,,,,,,,,,,,,,,bars/036.png,bars/mask000.png,,,,,,,,,,,,6,2,,,,,,,6,8,6,10,,,,,,,,,,,1096.6986,1097.1974,1097.4476,1099.5821,space,2.1182,,1099.5822,68,13,1100.5804,1100.5804,1100.5976,,,,0,34,34,34,1,145,20,,,,,,,,
,,651d639df30c0b3a9244cdcc,65af559473eaa355c997c249,2024-01-23_09h37.03.002,bars,2023.2.3,Win32,59.52380952,657b66ea316d21385b68909f,,,,,,,,,,,1100.5979,1101.5984,,,1102.0968,1102.3475,,16,196,,,,,,,,,,,,,,,,bars/036.png,bars/mask009.png,,,,,,,,,,,,5,2,,,,,,,4,6,4,6,,,,,,,,,,,1101.5986,1102.0968,1102.3475,1105.3971,space,3.0346,,1105.3971,51,4,1106.3985,1106.3985,1106.4157,,,,0,35,35,35,1,145,20,,,,,,,,
,,651d639df30c0b3a9244cdcc,65af559473eaa355c997c249,2024-01-23_09h37.03.002,bars,2023.2.3,Win32,59.52380952,657b66ea316d21385b68909f,,,,,,,,,,,1106.4159,1107.4153,,,1107.914,1108.1639,,67,67,,,,,,,,,,,,,,,,bars/021.png,bars/mask000.png,,,,,,,,,,,,4,2,,,,,,,2,4,2,4,,,,,,,,,,,1107.4153,1107.9139,1108.1639,1110.9483,space,2.7681,,1110.9485,88,3,1111.947,1111.947,1111.9648,,,,0,36,36,36,1,155,70,,,,,,,,
,,651d639df30c0b3a9244cdcc,65af559473eaa355c997c249,2024-01-23_09h37.03.002,bars,2023.2.3,Win32,59.52380952,657b66ea316d21385b68909f,,,,,,,,,,,1111.9649,1112.9651,,,1113.4637,1113.7135,,133,133,,,,,,,,,,,,,,,,bars/000.png,bars/mask002.png,,,,,,,,,,,,2,2,,,,,,,4,6,4,4,,,,,,,,,,,1112.9651,1113.4636,1113.7135,1115.4317,space,1.7023,,1115.4319,87,12,1116.4321,1116.4321,1116.4445,,,,0,37,37,37,1,40,145,,,,,,,,
,,651d639df30c0b3a9244cdcc,65af559473eaa355c997c249,2024-01-23_09h37.03.002,bars,2023.2.3,Win32,59.52380952,657b66ea316d21385b68909f,,,,,,,,,,,1116.4449,1117.4461,,,1117.9469,1118.1965,,65,65,,,,,,,,,,,,,,,,bars/034.png,bars/mask003.png,,,,,,,,,,,,7,2,,,,,,,2,8,1,7,,,,,,,,,,,1117.4463,1117.9468,1118.1967,1121.7961,space,3.5847,,1121.7961,60,0,1122.7966,1122.7966,1122.8145,,,,0,38,38,38,1,125,65,,,,,,,,
,,651d639df30c0b3a9244cdcc,65af559473eaa355c997c249,2024-01-23_09h37.03.002,bars,2023.2.3,Win32,59.52380952,657b66ea316d21385b68909f,,,,,,,,,,,1122.8147,1123.8149,,,1124.3131,1124.5634,,106,106,,,,,,,,,,,,,,,,bars/005.png,bars/mask008.png,,,,,,,,,,,,0,2,,,,,,,4,10,5,10,,,,,,,,,,,1123.8149,1124.3129,1124.5636,1125.9797,space,1.4029,,1125.9799,84,34,1126.9796,1126.9797,1126.9812,,,,0,39,39,39,1,10,140,,,,,,,,
,,651d639df30c0b3a9244cdcc,65af559473eaa355c997c249,2024-01-23_09h37.03.002,bars,2023.2.3,Win32,59.52380952,657b66ea316d21385b68909f,,,,,,,,,,,1126.9819,1127.9811,,,1128.4797,1128.731,,127,127,,,,,,,,,,,,,,,,bars/040.png,bars/mask006.png,,,,,,,,,,,,4,1,,,,,,,6,8,7,7,,,,,,,,,,,1127.9811,1128.4797,1128.731,1132.2641,space,3.5257,,1132.2641,13,58,1133.2645,1133.2646,1133.2797,,,,0,40,40,40,1,140,5,,,,,,,,
,,651d639df30c0b3a9244cdcc,65af559473eaa355c997c249,2024-01-23_09h37.03.002,bars,2023.2.3,Win32,59.52380952,657b66ea316d21385b68909f,,,,,,,,,,,1133.2799,1134.281,,,1134.7796,1135.0291,,130,130,,,,,,,,,,,,,,,,bars/018.png,bars/mask002.png,,,,,,,,,,,,2,1,,,,,,,4,6,5,7,,,,,,,,,,,1134.2812,1134.7796,1135.0291,1137.9472,space,2.9,,1137.9472,20,40,1138.9464,1138.9464,1138.9539,,,,0,41,41,41,1,150,90,,,,,,,,
,,651d639df30c0b3a9244cdcc,65af559473eaa355c997c249,2024-01-23_09h37.03.002,bars,2023.2.3,Win32,59.52380952,657b66ea316d21385b68909f,,,,,,,,,,,1138.9541,1139.9445,,,1140.4456,1140.696,,68,68,,,,,,,,,,,,,,,,bars/035.png,bars/mask006.png,,,,,,,,,,,,7,2,,,,,,,6,8,6,9,,,,,,,,,,,1139.9446,1140.4454,1140.696,1142.0811,space,1.3775,,1142.0812,73,8,1143.0791,1143.0791,1143.0836,,,,0,42,42,42,1,175,60,,,,,,,,
,,651d639df30c0b3a9244cdcc,65af559473eaa355c997c249,2024-01-23_09h37.03.002,bars,2023.2.3,Win32,59.52380952,657b66ea316d21385b68909f,,,,,,,,,,,1143.0842,1144.0784,,,1144.5793,1144.8287,,64,64,,,,,,,,,,,,,,,,bars/028.png,bars/mask004.png,,,,,,,,,,,,3,1,,,,,,,8,6,9,7,,,,,,,,,,,1144.0785,1144.5792,1144.8287,1147.2153,space,2.3813,,1147.2154,19,56,1148.2134,1148.2135,1148.2172,,,,0,43,43,43,1,45,120,,,,,,,,
,,651d639df30c0b3a9244cdcc,65af559473eaa355c997c249,2024-01-23_09h37.03.002,bars,2023.2.3,Win32,59.52380952,657b66ea316d21385b68909f,,,,,,,,,,,1148.2175,1149.2123,,,1149.7125,1149.9619,,133,133,,,,,,,,,,,,,,,,bars/023.png,bars/mask004.png,,,,,,,,,,,,4,2,,,,,,,6,8,5,10,,,,,,,,,,,1149.2123,1149.7124,1149.962,1152.4117,space,2.4343,,1152.4118,67,18,1153.4113,1153.4114,1153.4261,,,,0,44,44,44,1,20,115,,,,,,,,
,,651d639df30c0b3a9244cdcc,65af559473eaa355c997c249,2024-01-23_09h37.03.002,bars,2023.2.3,Win32,59.52380952,657b66ea316d21385b68909f,,,,,,,,,,,1153.4262,1154.4296,,,1154.9288,1155.1787,,121,121,,,,,,,,,,,,,,,,bars/032.png,bars/mask004.png,,,,,,,,,,,,3,1,,,,,,,4,10,4,9,,,,,,,,,,,1154.4299,1154.9288,1155.1787,1157.3786,space,2.1844,,1157.3787,4,79,1158.3779,1158.3779,1158.3937,,,,0,45,45,45,1,125,20,,,,,,,,
,,651d639df30c0b3a9244cdcc,65af559473eaa355c997c249,2024-01-23_09h37.03.002,bars,2023.2.3,Win32,59.52380952,657b66ea316d21385b68909f,,,,,,,,,,,1158.3938,1159.3951,,,1159.8967,1160.1451,,125,125,,,,,,,,,,,,,,,,bars/043.png,bars/mask004.png,,,,,,,,,,,,8,2,,,,,,,2,8,3,9,,,,,,,,,,,1159.3953,1159.8967,1160.1452,1161.7968,space,1.6342,,1161.7969,85,5,1162.7948,1162.795,1162.7998,,,,0,46,46,46,1,30,130,,,,,,,,
,,651d639df30c0b3a9244cdcc,65af559473eaa355c997c249,2024-01-23_09h37.03.002,bars,2023.2.3,Win32,59.52380952,657b66ea316d21385b68909f,,,,,,,,,,,1162.8002,1163.795,,,1164.2951,1164.5443,,22,22,,,,,,,,,,,,,,,,bars/016.png,bars/mask002.png,,,,,,,,,,,,2,1,,,,,,,4,6,4,9,,,,,,,,,,,1163.795,1164.295,1164.5444,1166.027,space,1.4718,,1166.027,18,37,1167.028,1167.0281,1167.0328,,,,0,47,47,47,1,40,165,,,,,,,,
,,651d639df30c0b3a9244cdcc,65af559473eaa355c997c249,2024-01-23_09h37.03.002,bars,2023.2.3,Win32,59.52380952,657b66ea316d21385b68909f,,,,,,,,,,,1167.0333,1168.0279,,,1168.5284,1168.7796,,106,106,,,,,,,,,,,,,,,,bars/034.png,bars/mask006.png,,,,,,,,,,,,0,1,,,,,,,2,8,1,7,,,,,,,,,,,1168.028,1168.5282,1168.7796,1170.5815,space,1.7968,,1170.5816,19,41,1171.5773,1171.5774,1171.5789,,,,0,48,48,48,1,125,65,,,,,,,,
,,651d639df30c0b3a9244cdcc,65af559473eaa355c997c249,2024-01-23_09h37.03.002,bars,2023.2.3,Win32,59.52380952,657b66ea316d21385b68909f,,,,,,,,,,,1171.5795,1172.5781,,,1172.9831,1172.9837,,143,143,,,,,,,,,,,,,,,,bars/047.png,bars/mask009.png,,,,,,,,,,,,0,1,,,,,,,0,6,0,6,,,,,,,,,,,1172.5782,1172.9831,1172.9837,1175.0621,space,2.0656,,1175.0622,52,73,1176.0609,1176.0609,1176.0747,,,,0,49,49,49,1,15,70,,,,,,,,
,,651d639df30c0b3a9244cdcc,65af559473eaa355c997c249,2024-01-23_09h37.03.002,bars,2023.2.3,Win32,59.52380952,657b66ea316d21385b68909f,,,,,,,,,,,,,,,,,,,,,,,,,,,,,,,,,,,,,,,,,,,,,,,,,,,,,,,,,,,,,,,,,,,,,,,,,,,,,,,,,,,,,,,,,,,,,1176.0748,1236.0759,0,2,2,3,1,sequence_tables/blk005.csv
,,651d639df30c0b3a9244cdcc,65af559473eaa355c997c249,2024-01-23_09h37.03.002,bars,2023.2.3,Win32,59.52380952,657b66ea316d21385b68909f,,,,,,,,,,,1239.8695,1240.8611,,,1241.3614,1241.611,,92,92,,,,,,,,,,,,,,,,bars/019.png,bars/mask002.png,,,,,,,,,,,,5,2,,,,,,,10,7,10,8,,,,,,1236.0861,1239.8646,space,3.7744,,1240.8612,1241.361,1241.6117,1242.909,space,1.2911,,1242.9093,47,13,1243.9108,1243.911,1243.9143,,,,0,0,0,0,1,45,105,,,,,,,,
,,651d639df30c0b3a9244cdcc,65af559473eaa355c997c249,2024-01-23_09h37.03.002,bars,2023.2.3,Win32,59.52380952,657b66ea316d21385b68909f,,,,,,,,,,,1243.9147,1244.9113,,,1245.4112,1245.6604,,38,38,,,,,,,,,,,,,,,,bars/039.png,bars/mask008.png,,,,,,,,,,,,0,1,,,,,,,10,5,10,6,,,,,,,,,,,1244.9114,1245.4111,1245.6604,1248.6606,space,2.9839,,1248.6609,43,67,1249.6615,1249.6618,1249.6729,,,,0,1,1,1,1,175,105,,,,,,,,
,,651d639df30c0b3a9244cdcc,65af559473eaa355c997c249,2024-01-23_09h37.03.002,bars,2023.2.3,Win32,59.52380952,657b66ea316d21385b68909f,,,,,,,,,,,1249.6733,1250.677,,,1251.1782,1251.4269,,130,130,,,,,,,,,,,,,,,,bars/009.png,bars/mask009.png,,,,,,,,,,,,0,2,,,,,,,10,3,9,3,,,,,,,,,,,1250.677,1251.1781,1251.4269,1261.8599,space,10.4172,0.0003,1261.8601,65,25,1262.86,1262.8602,1262.8699,,,,0,2,2,2,1,15,105,,,,,,,,
,,651d639df30c0b3a9244cdcc,65af559473eaa355c997c249,2024-01-23_09h37.03.002,bars,2023.2.3,Win32,59.52380952,657b66ea316d21385b68909f,,,,,,,,,,,1262.8701,1263.8602,,,1264.3585,1264.6102,,92,92,,,,,,,,,,,,,,,,bars/034.png,bars/mask009.png,,,,,,,,,,,,0,2,,,,,,,8,1,6,0,,,,,,,,,,,1263.8603,1264.3585,1264.6103,1267.043,space,2.4188,,1267.0431,33,27,1268.0418,1268.0418,1268.0527,,,,0,3,3,3,1,125,65,,,,,,,,
,,651d639df30c0b3a9244cdcc,65af559473eaa355c997c249,2024-01-23_09h37.03.002,bars,2023.2.3,Win32,59.52380952,657b66ea316d21385b68909f,,,,,,,,,,,1268.0528,1269.0443,,,1269.5432,1269.794,,122,122,,,,,,,,,,,,,,,,bars/013.png,bars/mask005.png,,,,,,,,,,,,0,1,,,,,,,10,0,10,1,,,,,,,,,,,1269.0445,1269.5431,1269.7942,1273.1771,space,3.3782,,1273.1773,47,68,1274.1759,1274.1763,1274.1879,,,,0,4,4,4,1,75,10,,,,,,,,
,,651d639df30c0b3a9244cdcc,65af559473eaa355c997c249,2024-01-23_09h37.03.002,bars,2023.2.3,Win32,59.52380952,657b66ea316d21385b68909f,,,,,,,,,,,1274.1881,1275.1764,,,1275.6764,1275.9262,,107,107,,,,,,,,,,,,,,,,bars/018.png,bars/mask008.png,,,,,,,,,,,,0,2,,,,,,,8,0,9,1,,,,,,,,,,,1275.1764,1275.6764,1275.9262,1278.4591,space,2.5213,,1278.4591,43,17,1279.4596,1279.4597,1279.4724,,,,0,5,5,5,1,150,90,,,,,,,,
,,651d639df30c0b3a9244cdcc,65af559473eaa355c997c249,2024-01-23_09h37.03.002,bars,2023.2.3,Win32,59.52380952,657b66ea316d21385b68909f,,,,,,,,,,,1279.4726,1280.4759,,,1280.9764,1281.2262,,145,145,,,,,,,,,,,,,,,,bars/003.png,bars/mask005.png,,,,,,,,,,,,2,2,,,,,,,6,2,7,2,,,,,,,,,,,1280.4759,1280.9763,1281.2263,1285.2269,space,3.9956,,1285.2269,60,5,1286.2256,1286.2256,1286.2351,,,,0,6,6,6,1,25,140,,,,,,,,
,,651d639df30c0b3a9244cdcc,65af559473eaa355c997c249,2024-01-23_09h37.03.002,bars,2023.2.3,Win32,59.52380952,657b66ea316d21385b68909f,,,,,,,,,,,1286.2353,1287.2258,,,1287.7266,1287.9759,,61,61,,,,,,,,,,,,,,,,bars/021.png,bars/mask003.png,,,,,,,,,,,,0,2,,,,,,,8,0,9,0,,,,,,,,,,,1287.2259,1287.7265,1287.9759,1291.325,space,3.3357,,1291.3251,86,9,1292.3251,1292.3256,1292.3373,,,,0,7,7,7,1,155,70,,,,,,,,
,,651d639df30c0b3a9244cdcc,65af559473eaa355c997c249,2024-01-23_09h37.03.002,bars,2023.2.3,Win32,59.52380952,657b66ea316d21385b68909f,,,,,,,,,,,1292.3375,1293.3256,,,1293.8249,1294.0757,,117,117,,,,,,,,,,,,,,,,bars/044.png,bars/mask008.png,,,,,,,,,,,,0,2,,,,,,,6,2,6,2,,,,,,,,,,,1293.3257,1293.8249,1294.0757,1298.1091,space,4.0226,,1298.1092,42,38,1299.1085,1299.1088,1299.1206,,,,0,8,8,8,1,75,155,,,,,,,,
,,651d639df30c0b3a9244cdcc,65af559473eaa355c997c249,2024-01-23_09h37.03.002,bars,2023.2.3,Win32,59.52380952,657b66ea316d21385b68909f,,,,,,,,,,,1299.1207,1300.1256,,,1300.6236,1300.8749,,115,115,,,,,,,,,,,,,,,,bars/014.png,bars/mask001.png,,,,,,,,,,,,0,1,,,,,,,8,0,6,0,,,,,,,,,,,1300.1257,1300.6235,1300.875,1303.9415,space,3.0503,,1303.9415,35,65,1304.941,1304.9411,1304.9528,,,,0,9,9,9,1,80,0,,,,,,,,
,,651d639df30c0b3a9244cdcc,65af559473eaa355c997c249,2024-01-23_09h37.03.002,bars,2023.2.3,Win32,59.52380952,657b66ea316d21385b68909f,,,,,,,,,,,1304.953,1305.9415,,,1306.4413,1306.6899,,131,131,,,,,,,,,,,,,,,,bars/001.png,bars/mask006.png,,,,,,,,,,,,10,1,,,,,,,10,2,10,1,,,,,,,,,,,1305.9415,1306.4412,1306.6899,1307.4079,space,0.7084,,1307.4079,1,46,1308.4078,1308.408,1308.4095,,,,0,10,10,10,1,130,85,,,,,,,,
,,651d639df30c0b3a9244cdcc,65af559473eaa355c997c249,2024-01-23_09h37.03.002,bars,2023.2.3,Win32,59.52380952,657b66ea316d21385b68909f,,,,,,,,,,,1308.4106,1309.4059,,,1309.9073,1310.1559,,30,30,,,,,,,,,,,,,,,,bars/007.png,bars/mask006.png,,,,,,,,,,,,1,2,,,,,,,10,4,10,4,,,,,,,,,,,1309.4059,1309.9073,1310.156,1311.2231,space,1.0521,,1311.2234,35,25,1312.2223,1312.2223,1312.2269,,,,0,11,11,11,1,175,55,,,,,,,,
,,651d639df30c0b3a9244cdcc,65af559473eaa355c997c249,2024-01-23_09h37.03.002,bars,2023.2.3,Win32,59.52380952,657b66ea316d21385b68909f,,,,,,,,,,,1312.2272,1313.2225,,,1313.7229,1313.9728,,106,106,,,,,,,,,,,,,,,,bars/044.png,bars/mask006.png,,,,,,,,,,,,0,1,,,,,,,10,2,8,2,,,,,,,,,,,1313.2226,1313.7229,1313.9728,1316.6387,space,2.651,,1316.6388,31,49,1317.6408,1317.6409,1317.6562,,,,0,12,12,12,1,75,155,,,,,,,,
,,651d639df30c0b3a9244cdcc,65af559473eaa355c997c249,2024-01-23_09h37.03.002,bars,2023.2.3,Win32,59.52380952,657b66ea316d21385b68909f,,,,,,,,,,,1317.6563,1318.6557,,,1319.1557,1319.406,,138,138,,,,,,,,,,,,,,,,bars/012.png,bars/mask000.png,,,,,,,,,,,,0,1,,,,,,,8,4,8,4,,,,,,,,,,,1318.6557,1319.1557,1319.4061,1320.0056,space,0.5859,,1320.0057,48,57,1321.0072,1321.0073,1321.0093,,,,0,13,13,13,1,90,15,,,,,,,,
,,651d639df30c0b3a9244cdcc,65af559473eaa355c997c249,2024-01-23_09h37.03.002,bars,2023.2.3,Win32,59.52380952,657b66ea316d21385b68909f,,,,,,,,,,,1321.0099,1322.0055,,,1322.5056,1322.7568,,125,125,,,,,,,,,,,,,,,,bars/044.png,bars/mask002.png,,,,,,,,,,,,0,2,,,,,,,10,6,9,7,,,,,,,,,,,1322.0056,1322.5055,1322.7569,1324.0895,space,1.3182,,1324.0895,50,30,1325.0876,1325.0877,1325.0967,,,,0,14,14,14,1,75,155,,,,,,,,
,,651d639df30c0b3a9244cdcc,65af559473eaa355c997c249,2024-01-23_09h37.03.002,bars,2023.2.3,Win32,59.52380952,657b66ea316d21385b68909f,,,,,,,,,,,1325.0969,1326.0888,,,1326.5907,1326.8403,,65,65,,,,,,,,,,,,,,,,bars/005.png,bars/mask008.png,,,,,,,,,,,,0,1,,,,,,,8,8,9,8,,,,,,,,,,,1326.0889,1326.5907,1326.8403,1328.2577,space,1.4029,,1328.2579,55,75,1329.2559,1329.256,1329.2662,,,,0,15,15,15,1,10,140,,,,,,,,
,,651d639df30c0b3a9244cdcc,65af559473eaa355c997c249,2024-01-23_09h37.03.002,bars,2023.2.3,Win32,59.52380952,657b66ea316d21385b68909f,,,,,,,,,,,1329.2667,1330.2553,,,1330.7556,1331.005,,122,122,,,,,,,,,,,,,,,,bars/033.png,bars/mask009.png,,,,,,,,,,,,0,2,,,,,,,6,10,8,9,,,,,,,,,,,1330.2554,1330.7555,1331.0052,1332.1224,space,1.105,,1332.1224,83,33,1333.1232,1333.1232,1333.1355,,,,0,16,16,16,1,25,155,,,,,,,,
,,651d639df30c0b3a9244cdcc,65af559473eaa355c997c249,2024-01-23_09h37.03.002,bars,2023.2.3,Win32,59.52380952,657b66ea316d21385b68909f,,,,,,,,,,,1333.1356,1334.1382,,,1334.6388,1334.8905,,46,46,,,,,,,,,,,,,,,,bars/011.png,bars/mask007.png,,,,,,,,,,,,0,2,,,,,,,4,10,3,10,,,,,,,,,,,1334.1382,1334.6385,1334.8906,1336.0392,space,1.1338,,1336.0392,66,39,1337.0398,1337.0398,1337.0412,,,,0,17,17,17,1,160,85,,,,,,,,
,,651d639df30c0b3a9244cdcc,65af559473eaa355c997c249,2024-01-23_09h37.03.002,bars,2023.2.3,Win32,59.52380952,657b66ea316d21385b68909f,,,,,,,,,,,1337.0424,1338.0386,,,1338.5405,1338.79,,115,115,,,,,,,,,,,,,,,,bars/024.png,bars/mask008.png,,,,,,,,,,,,1,1,,,,,,,2,10,1,9,,,,,,,,,,,1338.0386,1338.5404,1338.7901,1341.4879,space,2.6879,,1341.4879,5,55,1342.4903,1342.4903,1342.5021,,,,0,18,18,18,1,120,170,,,,,,,,
,,651d639df30c0b3a9244cdcc,65af559473eaa355c997c249,2024-01-23_09h37.03.002,bars,2023.2.3,Win32,59.52380952,657b66ea316d21385b68909f,,,,,,,,,,,1342.5022,1343.5062,,,1344.0045,1344.254,,73,73,,,,,,,,,,,,,,,,bars/045.png,bars/mask002.png,,,,,,,,,,,,0,1,,,,,,,0,8,0,8,,,,,,,,,,,1343.5063,1344.0043,1344.2541,1346.4047,space,2.1426,,1346.4049,27,63,1347.4039,1347.4039,1347.418,,,,0,19,19,19,1,100,10,,,,,,,,
,,651d639df30c0b3a9244cdcc,65af559473eaa355c997c249,2024-01-23_09h37.03.002,bars,2023.2.3,Win32,59.52380952,657b66ea316d21385b68909f,,,,,,,,,,,1347.4182,1348.4214,,,1348.9207,1349.1704,,155,-25,,,,,,,,,,,,,,,,bars/003.png,bars/mask001.png,,,,,,,,,,,,5,2,,,,,,,0,10,1,10,,,,,,,,,,,1348.4214,1348.9205,1349.1704,1351.4538,space,2.2685,,1351.4539,50,15,1352.4544,1352.4546,1352.4697,,,,0,20,20,20,1,25,140,,,,,,,,
,,651d639df30c0b3a9244cdcc,65af559473eaa355c997c249,2024-01-23_09h37.03.002,bars,2023.2.3,Win32,59.52380952,657b66ea316d21385b68909f,,,,,,,,,,,1352.4698,1353.4712,,,1353.9717,1354.2207,,26,206,,,,,,,,,,,,,,,,bars/003.png,bars/mask006.png,,,,,,,,,,,,0,1,,,,,,,0,10,0,9,,,,,,,,,,,1353.4713,1353.9716,1354.2207,1357.3207,space,3.0871,,1357.3208,1,66,1358.3219,1358.3219,1358.3316,,,,0,21,21,21,1,25,140,,,,,,,,
,,651d639df30c0b3a9244cdcc,65af559473eaa355c997c249,2024-01-23_09h37.03.002,bars,2023.2.3,Win32,59.52380952,657b66ea316d21385b68909f,,,,,,,,,,,1358.3318,1359.3207,,,1359.8222,1360.0712,,42,222,,,,,,,,,,,,,,,,bars/028.png,bars/mask008.png,,,,,,,,,,,,2,1,,,,,,,2,10,2,10,,,,,,,,,,,1359.3207,1359.8222,1360.0713,1363.1208,space,3.0352,,1363.1216,3,78,1364.1206,1364.1206,1364.1346,,,,0,22,22,22,1,45,120,,,,,,,,
,,651d639df30c0b3a9244cdcc,65af559473eaa355c997c249,2024-01-23_09h37.03.002,bars,2023.2.3,Win32,59.52380952,657b66ea316d21385b68909f,,,,,,,,,,,1364.1348,1365.1227,,,1365.6224,1365.8727,,142,-38,,,,,,,,,,,,,,,,bars/015.png,bars/mask008.png,,,,,,,,,,,,4,2,,,,,,,4,10,3,9,,,,,,,,,,,1365.1227,1365.6224,1365.8729,1368.3051,space,2.4253,,1368.3052,32,18,1369.3038,1369.3038,1369.3147,,,,0,23,23,23,1,110,160,,,,,,,,
,,651d639df30c0b3a9244cdcc,65af559473eaa355c997c249,2024-01-23_09h37.03.002,bars,2023.2.3,Win32,59.52380952,657b66ea316d21385b68909f,,,,,,,,,,,1369.3149,1370.3037,,,1370.8057,1371.0536,,67,67,,,,,,,,,,,,,,,,bars/028.png,bars/mask001.png,,,,,,,,,,,,1,1,,,,,,,2,10,2,8,,,,,,,,,,,1370.3037,1370.8057,1371.0536,1371.6872,space,0.6249,,1371.6872,22,53,1372.6871,1372.6871,1372.6918,,,,0,24,24,24,1,45,120,,,,,,,,
,,651d639df30c0b3a9244cdcc,65af559473eaa355c997c249,2024-01-23_09h37.03.002,bars,2023.2.3,Win32,59.52380952,657b66ea316d21385b68909f,,,,,,,,,,,1372.6922,1373.6868,,,1374.1868,1374.4389,,89,89,,,,,,,,,,,,,,,,bars/012.png,bars/mask004.png,,,,,,,,,,,,0,1,,,,,,,0,10,0,10,,,,,,,,,,,1373.6868,1374.1868,1374.4389,1374.8554,space,0.4072,,1374.8554,1,74,1375.8553,1375.8554,1375.8575,,,,0,25,25,25,1,90,15,,,,,,,,
,,651d639df30c0b3a9244cdcc,65af559473eaa355c997c249,2024-01-23_09h37.03.002,bars,2023.2.3,Win32,59.52380952,657b66ea316d21385b68909f,,,,,,,,,,,1375.8578,1376.8534,,,1377.3535,1377.6054,,0,0,,,,,,,,,,,,,,,,bars/034.png,bars/mask005.png,,,,,,,,,,,,0,1,,,,,,,0,10,0,10,,,,,,,,,,,1376.8534,1377.3535,1377.6054,1378.1048,space,0.4827,,1378.1049,55,65,1379.1055,1379.1056,1379.1075,,,,0,26,26,26,1,125,65,,,,,,,,
,,651d639df30c0b3a9244cdcc,65af559473eaa355c997c249,2024-01-23_09h37.03.002,bars,2023.2.3,Win32,59.52380952,657b66ea316d21385b68909f,,,,,,,,,,,1379.108,1380.1033,,,1380.6054,1380.8533,,77,77,,,,,,,,,,,,,,,,bars/020.png,bars/mask002.png,,,,,,,,,,,,0,1,,,,,,,0,8,0,6,,,,,,,,,,,1380.1033,1380.6054,1380.8533,1382.3216,space,1.4596,,1382.3216,38,87,1383.3221,1383.3222,1383.3361,,,,0,27,27,27,1,115,170,,,,,,,,
,,651d639df30c0b3a9244cdcc,65af559473eaa355c997c249,2024-01-23_09h37.03.002,bars,2023.2.3,Win32,59.52380952,657b66ea316d21385b68909f,,,,,,,,,,,1383.3368,1384.3378,,,1384.8359,1385.0862,,81,261,,,,,,,,,,,,,,,,bars/011.png,bars/mask008.png,,,,,,,,,,,,4,2,,,,,,,2,6,2,5,,,,,,,,,,,1384.3378,1384.8359,1385.0864,1388.1879,space,3.0839,,1388.1879,79,4,1389.1864,1389.1864,1389.1969,,,,0,28,28,28,1,160,85,,,,,,,,
,,651d639df30c0b3a9244cdcc,65af559473eaa355c997c249,2024-01-23_09h37.03.002,bars,2023.2.3,Win32,59.52380952,657b66ea316d21385b68909f,,,,,,,,,,,1389.197,1390.1861,,,1390.6865,1390.9363,,12,12,,,,,,,,,,,,,,,,bars/040.png,bars/mask000.png,,,,,,,,,,,,6,2,,,,,,,0,8,0,8,,,,,,,,,,,1390.1861,1390.6864,1390.9364,1392.3196,space,1.3692,,1392.3196,52,7,1393.3194,1393.3195,1393.3336,,,,0,29,29,29,1,140,5,,,,,,,,
,,651d639df30c0b3a9244cdcc,65af559473eaa355c997c249,2024-01-23_09h37.03.002,bars,2023.2.3,Win32,59.52380952,657b66ea316d21385b68909f,,,,,,,,,,,1393.3338,1394.3354,,,1394.8378,1395.0861,,69,69,,,,,,,,,,,,,,,,bars/025.png,bars/mask004.png,,,,,,,,,,,,0,2,,,,,,,0,6,0,7,,,,,,,,,,,1394.3359,1394.8378,1395.0861,1397.8692,space,2.769,,1397.8692,36,29,1398.8692,1398.8693,1398.8821,,,,0,30,30,30,1,105,40,,,,,,,,
,,651d639df30c0b3a9244cdcc,65af559473eaa355c997c249,2024-01-23_09h37.03.002,bars,2023.2.3,Win32,59.52380952,657b66ea316d21385b68909f,,,,,,,,,,,1398.8822,1399.871,,,1400.3692,1400.6193,,68,68,,,,,,,,,,,,,,,,bars/029.png,bars/mask009.png,,,,,,,,,,,,0,1,,,,,,,0,8,1,10,,,,,,,,,,,1399.8711,1400.3691,1400.6193,1401.3358,space,0.7007,,1401.3359,22,23,1402.3359,1402.3359,1402.3408,,,,0,31,31,31,1,90,45,,,,,,,,
,,651d639df30c0b3a9244cdcc,65af559473eaa355c997c249,2024-01-23_09h37.03.002,bars,2023.2.3,Win32,59.52380952,657b66ea316d21385b68909f,,,,,,,,,,,1402.3412,1403.3357,,,1404.6897,1404.6905,,103,103,,,,,,,,,,,,,,,,bars/010.png,bars/mask000.png,,,,,,,,,,,,0,2,,,,,,,0,10,0,10,,,,,,,,,,,1403.3358,1404.6897,1404.6905,1406.7356,space,2.0332,,1406.7356,62,48,1407.7351,1407.7352,1407.7488,,,,0,32,32,32,1,165,55,,,,,,,,
,,651d639df30c0b3a9244cdcc,65af559473eaa355c997c249,2024-01-23_09h37.03.002,bars,2023.2.3,Win32,59.52380952,657b66ea316d21385b68909f,,,,,,,,,,,1407.7489,1408.7518,,,1409.2515,1409.5016,,77,77,,,,,,,,,,,,,,,,bars/010.png,bars/mask006.png,,,,,,,,,,,,2,2,,,,,,,0,10,0,9,,,,,,,,,,,1408.7518,1409.2515,1409.5016,1411.868,space,2.3528,,1411.8681,88,22,1412.8683,1412.8685,1412.8696,,,,0,33,33,33,1,165,55,,,,,,,,
,,651d639df30c0b3a9244cdcc,65af559473eaa355c997c249,2024-01-23_09h37.03.002,bars,2023.2.3,Win32,59.52380952,657b66ea316d21385b68909f,,,,,,,,,,,1412.8703,1413.8678,,,1414.3683,1414.6183,,142,142,,,,,,,,,,,,,,,,bars/046.png,bars/mask001.png,,,,,,,,,,,,1,1,,,,,,,2,8,1,7,,,,,,,,,,,1413.8678,1414.3683,1414.6185,1415.1016,space,0.4694,,1415.1016,13,57,1416.1014,1416.1014,1416.1059,,,,0,34,34,34,1,155,85,,,,,,,,
,,651d639df30c0b3a9244cdcc,65af559473eaa355c997c249,2024-01-23_09h37.03.002,bars,2023.2.3,Win32,59.52380952,657b66ea316d21385b68909f,,,,,,,,,,,1416.1062,1417.1012,,,1417.6019,1417.8511,,127,127,,,,,,,,,,,,,,,,bars/027.png,bars/mask002.png,,,,,,,,,,,,0,1,,,,,,,0,6,0,7,,,,,,,,,,,1417.1013,1417.6019,1417.8512,1419.7681,space,1.9025,,1419.7681,17,77,1420.7674,1420.7675,1420.7692,,,,0,35,35,35,1,110,50,,,,,,,,
,,651d639df30c0b3a9244cdcc,65af559473eaa355c997c249,2024-01-23_09h37.03.002,bars,2023.2.3,Win32,59.52380952,657b66ea316d21385b68909f,,,,,,,,,,,1420.7699,1421.7678,,,1422.268,1422.5175,,104,104,,,,,,,,,,,,,,,,bars/011.png,bars/mask006.png,,,,,,,,,,,,3,2,,,,,,,0,8,2,8,,,,,,,,,,,1421.7679,1422.268,1422.5175,1423.3346,space,0.8015,,1423.3347,56,19,1424.3343,1424.3343,1424.339,,,,0,36,36,36,1,160,85,,,,,,,,
,,651d639df30c0b3a9244cdcc,65af559473eaa355c997c249,2024-01-23_09h37.03.002,bars,2023.2.3,Win32,59.52380952,657b66ea316d21385b68909f,,,,,,,,,,,1424.3394,1425.334,,,1425.8342,1426.0841,,49,49,,,,,,,,,,,,,,,,bars/028.png,bars/mask007.png,,,,,,,,,,,,0,1,,,,,,,0,6,0,7,,,,,,,,,,,1425.3341,1425.8342,1426.0841,1429.101,space,3.0034,,1429.101,4,71,1430.1008,1430.1008,1430.1156,,,,0,37,37,37,1,45,120,,,,,,,,
,,651d639df30c0b3a9244cdcc,65af559473eaa355c997c249,2024-01-23_09h37.03.002,bars,2023.2.3,Win32,59.52380952,657b66ea316d21385b68909f,,,,,,,,,,,1430.1158,1431.1174,,,1431.6176,1431.8673,,80,80,,,,,,,,,,,,,,,,bars/049.png,bars/mask005.png,,,,,,,,,,,,0,2,,,,,,,0,8,1,9,,,,,,,,,,,1431.1175,1431.6175,1431.8673,1434.0843,space,2.2047,,1434.0845,80,35,1435.0841,1435.0844,1435.0891,,,,0,38,38,38,1,160,115,,,,,,,,
,,651d639df30c0b3a9244cdcc,65af559473eaa355c997c249,2024-01-23_09h37.03.002,bars,2023.2.3,Win32,59.52380952,657b66ea316d21385b68909f,,,,,,,,,,,1435.0899,1436.0838,,,1436.5841,1436.8339,,143,143,,,,,,,,,,,,,,,,bars/004.png,bars/mask001.png,,,,,,,,,,,,3,2,,,,,,,2,6,2,7,,,,,,,,,,,1436.0839,1436.5841,1436.8339,1437.8351,space,0.99,,1437.8352,62,18,1438.8338,1438.8338,1438.837,,,,0,39,39,39,1,25,125,,,,,,,,
,,651d639df30c0b3a9244cdcc,65af559473eaa355c997c249,2024-01-23_09h37.03.002,bars,2023.2.3,Win32,59.52380952,657b66ea316d21385b68909f,,,,,,,,,,,1438.8376,1439.8339,,,1440.3348,1440.5861,,100,100,,,,,,,,,,,,,,,,bars/041.png,bars/mask007.png,,,,,,,,,,,,2,2,,,,,,,4,4,5,3,,,,,,,,,,,1439.8339,1440.3348,1440.5861,1442.884,space,2.2845,,1442.8841,80,15,1443.8858,1443.8859,1443.8985,,,,0,40,40,40,1,20,85,,,,,,,,
,,651d639df30c0b3a9244cdcc,65af559473eaa355c997c249,2024-01-23_09h37.03.002,bars,2023.2.3,Win32,59.52380952,657b66ea316d21385b68909f,,,,,,,,,,,1443.8986,1444.9012,,,1445.4026,1445.6522,,109,109,,,,,,,,,,,,,,,,bars/045.png,bars/mask002.png,,,,,,,,,,,,1,1,,,,,,,2,6,1,7,,,,,,,,,,,1444.9013,1445.4026,1445.6523,1447.9341,space,2.2672,,1447.9341,9,81,1448.9342,1448.9344,1448.9385,,,,0,41,41,41,1,100,10,,,,,,,,
,,651d639df30c0b3a9244cdcc,65af559473eaa355c997c249,2024-01-23_09h37.03.002,bars,2023.2.3,Win32,59.52380952,657b66ea316d21385b68909f,,,,,,,,,,,1448.9387,1449.9366,,,1450.4345,1450.6843,,67,67,,,,,,,,,,,,,,,,bars/017.png,bars/mask005.png,,,,,,,,,,,,1,2,,,,,,,4,4,3,3,,,,,,,,,,,1449.9367,1450.4344,1450.6845,1451.8341,space,1.1339,,1451.8341,78,22,1452.8364,1452.8365,1452.8396,,,,0,42,42,42,1,145,45,,,,,,,,
,,651d639df30c0b3a9244cdcc,65af559473eaa355c997c249,2024-01-23_09h37.03.002,bars,2023.2.3,Win32,59.52380952,657b66ea316d21385b68909f,,,,,,,,,,,1452.8399,1453.8341,,,1454.3356,1454.5854,,113,113,,,,,,,,,,,,,,,,bars/019.png,bars/mask009.png,,,,,,,,,,,,4,2,,,,,,,2,6,4,6,,,,,,,,,,,1453.8342,1454.3356,1454.5855,1457.7697,space,3.179,,1457.7697,68,8,1458.7674,1458.7674,1458.7766,,,,0,43,43,43,1,45,105,,,,,,,,
,,651d639df30c0b3a9244cdcc,65af559473eaa355c997c249,2024-01-23_09h37.03.002,bars,2023.2.3,Win32,59.52380952,657b66ea316d21385b68909f,,,,,,,,,,,1458.7767,1459.7689,,,1460.2681,1460.5172,,135,-45,,,,,,,,,,,,,,,,bars/024.png,bars/mask002.png,,,,,,,,,,,,0,1,,,,,,,0,8,0,8,,,,,,,,,,,1459.769,1460.2681,1460.5172,1463.1858,space,2.6518,,1463.1859,15,35,1464.1856,1464.1857,1464.1982,,,,0,44,44,44,1,120,170,,,,,,,,
,,651d639df30c0b3a9244cdcc,65af559473eaa355c997c249,2024-01-23_09h37.03.002,bars,2023.2.3,Win32,59.52380952,657b66ea316d21385b68909f,,,,,,,,,,,1464.1984,1465.2005,,,1465.7003,1465.9504,,87,87,,,,,,,,,,,,,,,,bars/049.png,bars/mask008.png,,,,,,,,,,,,0,2,,,,,,,2,6,1,7,,,,,,,,,,,1465.2005,1465.7002,1465.9504,1468.2333,space,2.267,,1468.2333,73,28,1469.2336,1469.2336,1469.2382,,,,0,45,45,45,1,160,115,,,,,,,,
,,651d639df30c0b3a9244cdcc,65af559473eaa355c997c249,2024-01-23_09h37.03.002,bars,2023.2.3,Win32,59.52380952,657b66ea316d21385b68909f,,,,,,,,,,,1469.2386,1470.2352,,,1470.7357,1470.9837,,75,-105,,,,,,,,,,,,,,,,bars/009.png,bars/mask003.png,,,,,,,,,,,,0,2,,,,,,,0,4,0,4,,,,,,,,,,,1470.2352,1470.7357,1470.9838,1474.5992,space,3.6072,,1474.5993,60,30,1475.6002,1475.6003,1475.6136,,,,0,46,46,46,1,15,105,,,,,,,,
,,651d639df30c0b3a9244cdcc,65af559473eaa355c997c249,2024-01-23_09h37.03.002,bars,2023.2.3,Win32,59.52380952,657b66ea316d21385b68909f,,,,,,,,,,,1475.6138,1476.6186,,,1477.1164,1477.3668,,70,70,,,,,,,,,,,,,,,,bars/006.png,bars/mask000.png,,,,,,,,,,,,0,2,,,,,,,2,6,2,6,,,,,,,,,,,1476.6187,1477.1163,1477.3669,1479.2012,space,1.8245,,1479.2012,35,30,1480.1999,1480.1999,1480.207,,,,0,47,47,47,1,35,100,,,,,,,,
,,651d639df30c0b3a9244cdcc,65af559473eaa355c997c249,2024-01-23_09h37.03.002,bars,2023.2.3,Win32,59.52380952,657b66ea316d21385b68909f,,,,,,,,,,,1480.2071,1481.1996,,,1481.7015,1481.9502,,62,62,,,,,,,,,,,,,,,,bars/000.png,bars/mask004.png,,,,,,,,,,,,0,1,,,,,,,0,4,0,3,,,,,,,,,,,1481.1998,1481.7014,1481.9503,1484.9679,space,3.004,,1484.968,22,83,1485.9669,1485.9672,1485.9806,,,,0,48,48,48,1,40,145,,,,,,,,
,,651d639df30c0b3a9244cdcc,65af559473eaa355c997c249,2024-01-23_09h37.03.002,bars,2023.2.3,Win32,59.52380952,657b66ea316d21385b68909f,,,,,,,,,,,1485.9807,1486.9828,,,1487.483,1487.7327,,47,47,,,,,,,,,,,,,,,,bars/025.png,bars/mask003.png,,,,,,,,,,,,2,2,,,,,,,2,2,2,3,,,,,,,,,,,1486.983,1487.4829,1487.7328,1489.3989,space,1.6538,,1489.3989,58,7,1490.3994,1490.3995,1490.4036,,,,0,49,49,49,1,105,40,,,,,,,,
,,651d639df30c0b3a9244cdcc,65af559473eaa355c997c249,2024-01-23_09h37.03.002,bars,2023.2.3,Win32,59.52380952,657b66ea316d21385b68909f,,,,,,,,,,,,,,,,,,,,,,,,,,,,,,,,,,,,,,,,,,,,,,,,,,,,,,,,,,,,,,,,,,,,,,,,,,,,,,,,,,,,,,,,,,,,,1490.4037,1550.3984,0,3,3,4,1,sequence_tables/blk043.csv
,,651d639df30c0b3a9244cdcc,65af559473eaa355c997c249,2024-01-23_09h37.03.002,bars,2023.2.3,Win32,59.52380952,657b66ea316d21385b68909f,,,,,,,,,,,1690.921,1691.9088,,,1692.4086,1692.6579,,25,25,,,,,,,,,,,,,,,,bars/021.png,bars/mask007.png,,,,,,,,,,,,0,2,,,,,,,6,1,6,0,,,,,,1550.4088,1690.9084,space,140.4892,,1691.9089,1692.4084,1692.658,1696.4584,space,3.786,,1696.4584,50,45,1697.4586,1697.4586,1697.4737,,,,0,0,0,0,1,155,70,,,,,,,,
,,651d639df30c0b3a9244cdcc,65af559473eaa355c997c249,2024-01-23_09h37.03.002,bars,2023.2.3,Win32,59.52380952,657b66ea316d21385b68909f,,,,,,,,,,,1697.4738,1698.4752,,,1698.9748,1699.2251,,148,148,,,,,,,,,,,,,,,,bars/010.png,bars/mask006.png,,,,,,,,,,,,3,1,,,,,,,8,3,8,3,,,,,,,,,,,1698.4752,1698.9747,1699.2252,1703.694,space,4.4513,,1703.6941,17,87,1704.6912,1704.6913,1704.7069,,,,0,1,1,1,1,165,55,,,,,,,,
,,651d639df30c0b3a9244cdcc,65af559473eaa355c997c249,2024-01-23_09h37.03.002,bars,2023.2.3,Win32,59.52380952,657b66ea316d21385b68909f,,,,,,,,,,,1704.7074,1705.7074,,,1706.2078,1706.4579,,54,54,,,,,,,,,,,,,,,,bars/018.png,bars/mask005.png,,,,,,,,,,,,0,2,,,,,,,10,5,10,6,,,,,,,,,,,1705.7074,1706.2077,1706.4579,1710.3067,space,3.8427,,1710.3069,84,36,1711.309,1711.309,1711.3167,,,,0,2,2,2,1,150,90,,,,,,,,
,,651d639df30c0b3a9244cdcc,65af559473eaa355c997c249,2024-01-23_09h37.03.002,bars,2023.2.3,Win32,59.52380952,657b66ea316d21385b68909f,,,,,,,,,,,1711.3168,1712.3076,,,1712.808,1713.0579,,119,119,,,,,,,,,,,,,,,,bars/006.png,bars/mask006.png,,,,,,,,,,,,1,2,,,,,,,10,3,9,2,,,,,,,,,,,1712.3077,1712.8079,1713.058,1714.6583,space,1.5854,,1714.6583,84,19,1715.6576,1715.6578,1715.6719,,,,0,3,3,3,1,35,100,,,,,,,,
,,651d639df30c0b3a9244cdcc,65af559473eaa355c997c249,2024-01-23_09h37.03.002,bars,2023.2.3,Win32,59.52380952,657b66ea316d21385b68909f,,,,,,,,,,,1715.672,1716.6739,,,1717.1745,1717.4262,,53,53,,,,,,,,,,,,,,,,bars/029.png,bars/mask002.png,,,,,,,,,,,,1,2,,,,,,,8,1,7,1,,,,,,,,,,,1716.6739,1717.1745,1717.4264,1718.6911,space,1.2521,,1718.6913,37,8,1719.6906,1719.6908,1719.6935,,,,0,4,4,4,1,90,45,,,,,,,,
,,651d639df30c0b3a9244cdcc,65af559473eaa355c997c249,2024-01-23_09h37.03.002,bars,2023.2.3,Win32,59.52380952,657b66ea316d21385b68909f,,,,,,,,,,,1719.6942,1720.6896,,,1721.1912,1721.4393,,94,94,,,,,,,,,,,,,,,,bars/024.png,bars/mask006.png,,,,,,,,,,,,1,1,,,,,,,6,0,6,0,,,,,,,,,,,1720.6896,1721.1912,1721.4393,1723.7089,space,2.2531,,1723.709,26,76,1724.7076,1724.7076,1724.7121,,,,0,5,5,5,1,120,170,,,,,,,,
,,651d639df30c0b3a9244cdcc,65af559473eaa355c997c249,2024-01-23_09h37.03.002,bars,2023.2.3,Win32,59.52380952,657b66ea316d21385b68909f,,,,,,,,,,,1724.7125,1725.7074,,,1726.207,1726.4571,,110,110,,,,,,,,,,,,,,,,bars/009.png,bars/mask007.png,,,,,,,,,,,,1,2,,,,,,,8,0,7,1,,,,,,,,,,,1725.7075,1726.2069,1726.4573,1730.3071,space,3.8368,,1730.3071,85,5,1731.3068,1731.3069,1731.3211,,,,0,6,6,6,1,15,105,,,,,,,,
,,651d639df30c0b3a9244cdcc,65af559473eaa355c997c249,2024-01-23_09h37.03.002,bars,2023.2.3,Win32,59.52380952,657b66ea316d21385b68909f,,,,,,,,,,,1731.3211,1732.3228,,,1732.8231,1733.074,,100,100,,,,,,,,,,,,,,,,bars/021.png,bars/mask000.png,,,,,,,,,,,,0,2,,,,,,,10,2,10,3,,,,,,,,,,,1732.3228,1732.8231,1733.074,1734.4234,space,1.3349,,1734.4235,55,30,1735.4235,1735.4235,1735.436,,,,0,7,7,7,1,155,70,,,,,,,,
,,651d639df30c0b3a9244cdcc,65af559473eaa355c997c249,2024-01-23_09h37.03.002,bars,2023.2.3,Win32,59.52380952,657b66ea316d21385b68909f,,,,,,,,,,,1735.4361,1736.4423,,,1736.9403,1737.1916,,110,110,,,,,,,,,,,,,,,,bars/049.png,bars/mask000.png,,,,,,,,,,,,0,2,,,,,,,8,0,9,0,,,,,,,,,,,1736.4423,1736.9403,1737.1918,1740.3725,space,3.1702,,1740.3725,50,5,1741.3752,1741.3752,1741.3878,,,,0,8,8,8,1,160,115,,,,,,,,
,,651d639df30c0b3a9244cdcc,65af559473eaa355c997c249,2024-01-23_09h37.03.002,bars,2023.2.3,Win32,59.52380952,657b66ea316d21385b68909f,,,,,,,,,,,1741.388,1742.3901,,,1742.8903,1743.1402,,58,58,,,,,,,,,,,,,,,,bars/020.png,bars/mask004.png,,,,,,,,,,,,0,1,,,,,,,6,0,8,0,,,,,,,,,,,1742.3901,1742.8903,1743.1402,1745.2237,space,2.0686,,1745.2237,57,68,1746.2232,1746.2233,1746.243,,,,0,9,9,9,1,115,170,,,,,,,,
,,651d639df30c0b3a9244cdcc,65af559473eaa355c997c249,2024-01-23_09h37.03.002,bars,2023.2.3,Win32,59.52380952,657b66ea316d21385b68909f,,,,,,,,,,,1746.2433,1747.24,,,1747.7415,1747.989,,34,214,,,,,,,,,,,,,,,,bars/035.png,bars/mask006.png,,,,,,,,,,,,0,2,,,,,,,4,2,3,0,,,,,,,,,,,1747.24,1747.7415,1747.9892,1751.5897,space,3.5852,,1751.5897,39,26,1752.5896,1752.5896,1752.6088,,,,0,10,10,10,1,175,60,,,,,,,,
,,651d639df30c0b3a9244cdcc,65af559473eaa355c997c249,2024-01-23_09h37.03.002,bars,2023.2.3,Win32,59.52380952,657b66ea316d21385b68909f,,,,,,,,,,,1752.6091,1753.6064,,,1754.1063,1754.3559,,123,123,,,,,,,,,,,,,,,,bars/014.png,bars/mask003.png,,,,,,,,,,,,0,1,,,,,,,2,0,2,1,,,,,,,,,,,1753.6067,1754.1061,1754.3559,1757.8242,space,3.4582,,1757.8242,43,57,1758.8229,1758.8229,1758.8372,,,,0,11,11,11,1,80,0,,,,,,,,
,,651d639df30c0b3a9244cdcc,65af559473eaa355c997c249,2024-01-23_09h37.03.002,bars,2023.2.3,Win32,59.52380952,657b66ea316d21385b68909f,,,,,,,,,,,1758.8373,1759.8431,,,1760.3411,1760.5909,,98,98,,,,,,,,,,,,,,,,bars/015.png,bars/mask001.png,,,,,,,,,,,,4,1,,,,,,,4,2,6,2,,,,,,,,,,,1759.8433,1760.3411,1760.591,1761.6399,space,1.0396,,1761.6399,12,62,1762.6399,1762.64,1762.6412,,,,0,12,12,12,1,110,160,,,,,,,,
,,651d639df30c0b3a9244cdcc,65af559473eaa355c997c249,2024-01-23_09h37.03.002,bars,2023.2.3,Win32,59.52380952,657b66ea316d21385b68909f,,,,,,,,,,,1762.6419,1763.6387,,,1764.1399,1764.3888,,155,155,,,,,,,,,,,,,,,,bars/037.png,bars/mask002.png,,,,,,,,,,,,2,1,,,,,,,2,0,2,2,,,,,,,,,,,1763.6387,1764.1398,1764.3889,1765.0728,space,0.6703,,1765.0729,5,50,1766.073,1766.0731,1766.0757,,,,0,13,13,13,1,150,105,,,,,,,,
