init_variables.started,init_variables.stopped,participant,session,date,expName,psychopyVersion,OS,frameRate,study_id,instruction_exp.started,instruction_exp.stopped,key_resp_8.keys,key_resp_8.rt,key_resp_8.duration,instruction_single.started,instruction_single.stopped,key_resp_2.keys,key_resp_2.rt,key_resp_2.duration,interval.started,interval.stopped,cue_single.started,cue_single.stopped,mask.started,mask.stopped,ori_response_single.started,res_ori,res,ori_response_single.stopped,key_resp_single.keys,key_resp_single.rt,key_resp_single.duration,disp_single.started,disp_single.stopped,key_resp.keys,key_resp.rt,key_resp.duration,single.thisRepN,single.thisTrialN,single.thisN,single.thisIndex,single.ran,ori,path,mask_path,instruction_bandit.started,instruction_bandit.stopped,key_resp_6.keys,key_resp_6.rt,key_resp_6.duration,cue_bandit.started,cue_bandit.stopped,bandit_res.keys,bandit_res.rt,bandit_res.duration,outcome_bandit.started,rew,action,outcome_bandit.stopped,bandit.thisRepN,bandit.thisTrialN,bandit.thisN,bandit.thisIndex,bandit.ran,actual_rew1,actual_rew2,rew1,rew2,instruction_task.started,instruction_task.stopped,key_resp_7.keys,key_resp_7.rt,key_resp_7.duration,wait_ready.started,wait_ready.stopped,key_resp_3.keys,key_resp_3.rt,key_resp_3.duration,cue.started,cue.stopped,ori_response.started,ori_response.stopped,key_resp_5.keys,key_resp_5.rt,key_resp_5.duration,outcome.started,diff1,diff2,outcome.stopped,disp_outcome_practice.started,disp_outcome_practice.stopped,key_resp_4.keys,key_resp_4.rt,key_resp_4.duration,trials.thisRepN,trials.thisTrialN,trials.thisN,trials.thisIndex,trials.ran,ori1,ori2,break_blk.started,break_blk.stopped,block.thisRepN,block.thisTrialN,block.thisN,block.thisIndex,block.ran,condition_file
0.0003,0.0004,6545ffdbc2a670fa09573950,65af5643dc8991f4776b9f1a,2024-01-23_16h03.18.992,bars,2023.2.3,MacIntel,59.88023952,657b66ea316d21385b68909f,,,,,,,,,,,,,,,,,,,,,,,,,,,,,,,,,,,,,,,,,,,,,,,,,,,,,,,,,,,,,,,,,,,,,,,,,,,,,,,,,,,,,,,,,,,,,,,,,,,,
,,6545ffdbc2a670fa09573950,65af5643dc8991f4776b9f1a,2024-01-23_16h03.18.992,bars,2023.2.3,MacIntel,59.88023952,657b66ea316d21385b68909f,0.0005,5.7995,y,5.7897,,,,,,,,,,,,,,,,,,,,,,,,,,,,,,,,,,,,,,,,,,,,,,,,,,,,,,,,,,,,,,,,,,,,,,,,,,,,,,,,,,,,,,,,,,,,,,,,
,,6545ffdbc2a670fa09573950,65af5643dc8991f4776b9f1a,2024-01-23_16h03.18.992,bars,2023.2.3,MacIntel,59.88023952,657b66ea316d21385b68909f,,,,,,5.7997,33.0315,space,27.2088,,,,,,,,,,,,,,,,,,,,,,,,,,,,,,,,,,,,,,,,,,,,,,,,,,,,,,,,,,,,,,,,,,,,,,,,,,,,,,,,,,,,,,,,,,,
,,6545ffdbc2a670fa09573950,65af5643dc8991f4776b9f1a,2024-01-23_16h03.18.992,bars,2023.2.3,MacIntel,59.88023952,657b66ea316d21385b68909f,,,,,,,,,,,33.035,34.0277,34.0277,34.5276,34.5277,34.7782,34.7783,102,102,38.764,space,3.9603,,38.7642,46.3547,space,7.538,,0,0,0,5,1,55,bars/single005.png,bars/mask008.png,,,,,,,,,,,,,,,,,,,,,,,,,,,,,,,,,,,,,,,,,,,,,,,,,,,,,,,,,,,,,,,,
,,6545ffdbc2a670fa09573950,65af5643dc8991f4776b9f1a,2024-01-23_16h03.18.992,bars,2023.2.3,MacIntel,59.88023952,657b66ea316d21385b68909f,,,,,,,,,,,46.363,47.3614,47.3615,47.8647,47.8647,48.1117,48.1117,100,100,55.6272,space,7.5044,,55.6272,61.412,space,5.7619,,0,1,1,9,1,20,bars/single009.png,bars/mask006.png,,,,,,,,,,,,,,,,,,,,,,,,,,,,,,,,,,,,,,,,,,,,,,,,,,,,,,,,,,,,,,,,
,,6545ffdbc2a670fa09573950,65af5643dc8991f4776b9f1a,2024-01-23_16h03.18.992,bars,2023.2.3,MacIntel,59.88023952,657b66ea316d21385b68909f,,,,,,,,,,,61.4195,62.4117,62.4118,62.9116,62.9116,63.1606,63.1606,4,4,70.0608,space,6.8891,,70.0608,76.23,space,6.1449,,0,2,2,4,1,95,bars/single004.png,bars/mask004.png,,,,,,,,,,,,,,,,,,,,,,,,,,,,,,,,,,,,,,,,,,,,,,,,,,,,,,,,,,,,,,,,
,,6545ffdbc2a670fa09573950,65af5643dc8991f4776b9f1a,2024-01-23_16h03.18.992,bars,2023.2.3,MacIntel,59.88023952,657b66ea316d21385b68909f,,,,,,,,,,,76.2376,77.23,77.2301,77.7276,77.7277,77.978,77.978,39,39,125.662,space,47.6699,,125.662,130.8455,space,5.1641,,0,3,3,1,1,20,bars/single001.png,bars/mask006.png,,,,,,,,,,,,,,,,,,,,,,,,,,,,,,,,,,,,,,,,,,,,,,,,,,,,,,,,,,,,,,,,
,,6545ffdbc2a670fa09573950,65af5643dc8991f4776b9f1a,2024-01-23_16h03.18.992,bars,2023.2.3,MacIntel,59.88023952,657b66ea316d21385b68909f,,,,,,,,,,,130.8532,131.8464,131.8464,132.3453,132.3453,132.594,132.594,8,188,139.6941,space,7.0941,,139.6941,155.9447,space,16.2314,,0,4,4,3,1,20,bars/single003.png,bars/mask005.png,,,,,,,,,,,,,,,,,,,,,,,,,,,,,,,,,,,,,,,,,,,,,,,,,,,,,,,,,,,,,,,,
,,6545ffdbc2a670fa09573950,65af5643dc8991f4776b9f1a,2024-01-23_16h03.18.992,bars,2023.2.3,MacIntel,59.88023952,657b66ea316d21385b68909f,,,,,,,,,,,155.9527,156.944,156.944,157.4475,157.4475,157.6954,157.6954,10,10,160.3942,space,2.6827,,160.3942,162.6947,space,2.2819,,0,5,5,2,1,145,bars/single002.png,bars/mask003.png,,,,,,,,,,,,,,,,,,,,,,,,,,,,,,,,,,,,,,,,,,,,,,,,,,,,,,,,,,,,,,,,
,,6545ffdbc2a670fa09573950,65af5643dc8991f4776b9f1a,2024-01-23_16h03.18.992,bars,2023.2.3,MacIntel,59.88023952,657b66ea316d21385b68909f,,,,,,,,,,,162.6949,163.6945,163.6946,164.1946,164.1946,164.4452,164.4453,154,154,165.7804,space,1.3224,,165.7804,171.4471,space,5.6565,,0,6,6,7,1,45,bars/single007.png,bars/mask009.png,,,,,,,,,,,,,,,,,,,,,,,,,,,,,,,,,,,,,,,,,,,,,,,,,,,,,,,,,,,,,,,,
,,6545ffdbc2a670fa09573950,65af5643dc8991f4776b9f1a,2024-01-23_16h03.18.992,bars,2023.2.3,MacIntel,59.88023952,657b66ea316d21385b68909f,,,,,,,,,,,171.4545,172.4454,172.4454,172.9447,172.9448,173.1967,173.1968,38,38,179.3119,space,6.1047,,179.3119,182.2624,space,2.9288,,0,7,7,6,1,175,bars/single006.png,bars/mask005.png,,,,,,,,,,,,,,,,,,,,,,,,,,,,,,,,,,,,,,,,,,,,,,,,,,,,,,,,,,,,,,,,
,,6545ffdbc2a670fa09573950,65af5643dc8991f4776b9f1a,2024-01-23_16h03.18.992,bars,2023.2.3,MacIntel,59.88023952,657b66ea316d21385b68909f,,,,,,,,,,,182.2702,183.2621,183.2621,183.7622,183.7622,184.0109,184.0109,166,-14,192.1442,space,8.1259,,192.1443,194.2309,space,2.0598,,0,8,8,8,1,160,bars/single008.png,bars/mask004.png,,,,,,,,,,,,,,,,,,,,,,,,,,,,,,,,,,,,,,,,,,,,,,,,,,,,,,,,,,,,,,,,
,,6545ffdbc2a670fa09573950,65af5643dc8991f4776b9f1a,2024-01-23_16h03.18.992,bars,2023.2.3,MacIntel,59.88023952,657b66ea316d21385b68909f,,,,,,,,,,,194.2311,195.2305,195.2306,195.7289,195.7289,195.9803,195.9803,157,-23,199.8638,space,3.8756,,199.8638,205.0125,space,5.1248,,0,9,9,0,1,150,bars/single000.png,bars/mask006.png,,,,,,,,,,,,,,,,,,,,,,,,,,,,,,,,,,,,,,,,,,,,,,,,,,,,,,,,,,,,,,,,
,,6545ffdbc2a670fa09573950,65af5643dc8991f4776b9f1a,2024-01-23_16h03.18.992,bars,2023.2.3,MacIntel,59.88023952,657b66ea316d21385b68909f,,,,,,,,,,,,,,,,,,,,,,,,,,,,,,,,,,,,,205.0549,238.0572,space,32.9723,,,,,,,,,,,,,,,,,,,,,,,,,,,,,,,,,,,,,,,,,,,,,,,,,,,,,,,,,,,,
,,6545ffdbc2a670fa09573950,65af5643dc8991f4776b9f1a,2024-01-23_16h03.18.992,bars,2023.2.3,MacIntel,59.88023952,657b66ea316d21385b68909f,,,,,,,,,,,,,,,,,,,,,,,,,,,,,,,,,,,,,,,,,,238.067,242.1644,left,4.0723,,242.1645,9,1,243.1654,0,0,0,0,1,9,1,9,2,,,,,,,,,,,,,,,,,,,,,,,,,,,,,,,,,,,,,,,,,
,,6545ffdbc2a670fa09573950,65af5643dc8991f4776b9f1a,2024-01-23_16h03.18.992,bars,2023.2.3,MacIntel,59.88023952,657b66ea316d21385b68909f,,,,,,,,,,,,,,,,,,,,,,,,,,,,,,,,,,,,,,,,,,243.1656,244.2974,left,1.1178,,244.2974,10,1,245.2955,0,1,1,1,1,10,0,10,1,,,,,,,,,,,,,,,,,,,,,,,,,,,,,,,,,,,,,,,,,
,,6545ffdbc2a670fa09573950,65af5643dc8991f4776b9f1a,2024-01-23_16h03.18.992,bars,2023.2.3,MacIntel,59.88023952,657b66ea316d21385b68909f,,,,,,,,,,,,,,,,,,,,,,,,,,,,,,,,,,,,,,,,,,245.2957,246.1793,left,0.8787,,246.1793,10,1,247.1783,0,2,2,2,1,10,2,10,2,,,,,,,,,,,,,,,,,,,,,,,,,,,,,,,,,,,,,,,,,
,,6545ffdbc2a670fa09573950,65af5643dc8991f4776b9f1a,2024-01-23_16h03.18.992,bars,2023.2.3,MacIntel,59.88023952,657b66ea316d21385b68909f,,,,,,,,,,,,,,,,,,,,,,,,,,,,,,,,,,,,,,,,,,247.1786,247.796,left,0.6033,,247.7961,7,1,248.7977,0,3,3,3,1,8,4,7,3,,,,,,,,,,,,,,,,,,,,,,,,,,,,,,,,,,,,,,,,,
,,6545ffdbc2a670fa09573950,65af5643dc8991f4776b9f1a,2024-01-23_16h03.18.992,bars,2023.2.3,MacIntel,59.88023952,657b66ea316d21385b68909f,,,,,,,,,,,,,,,,,,,,,,,,,,,,,,,,,,,,,,,,,,248.798,249.2121,right,0.4008,,249.2122,1,2,250.2008,0,4,4,4,1,6,2,5,1,,,,,,,,,,,,,,,,,,,,,,,,,,,,,,,,,,,,,,,,,
,,6545ffdbc2a670fa09573950,65af5643dc8991f4776b9f1a,2024-01-23_16h03.18.992,bars,2023.2.3,MacIntel,59.88023952,657b66ea316d21385b68909f,,,,,,,,,,,,,,,,,,,,,,,,,,,,,,,,,,,,,,,,,,250.201,250.5977,left,0.3807,,250.5977,4,1,251.5954,0,5,5,5,1,4,4,4,4,,,,,,,,,,,,,,,,,,,,,,,,,,,,,,,,,,,,,,,,,
,,6545ffdbc2a670fa09573950,65af5643dc8991f4776b9f1a,2024-01-23_16h03.18.992,bars,2023.2.3,MacIntel,59.88023952,657b66ea316d21385b68909f,,,,,,,,,,,,,,,,,,,,,,,,,,,,,,,,,,,,,,,,,,251.5956,251.8946,left,0.284,,251.8946,1,1,252.8973,0,6,6,6,1,2,2,1,2,,,,,,,,,,,,,,,,,,,,,,,,,,,,,,,,,,,,,,,,,
,,6545ffdbc2a670fa09573950,65af5643dc8991f4776b9f1a,2024-01-23_16h03.18.992,bars,2023.2.3,MacIntel,59.88023952,657b66ea316d21385b68909f,,,,,,,,,,,,,,,,,,,,,,,,,,,,,,,,,,,,,,,,,,252.8976,253.2282,left,0.3186,,253.2283,0,1,254.2282,0,7,7,7,1,0,0,0,1,,,,,,,,,,,,,,,,,,,,,,,,,,,,,,,,,,,,,,,,,
,,6545ffdbc2a670fa09573950,65af5643dc8991f4776b9f1a,2024-01-23_16h03.18.992,bars,2023.2.3,MacIntel,59.88023952,657b66ea316d21385b68909f,,,,,,,,,,,,,,,,,,,,,,,,,,,,,,,,,,,,,,,,,,254.2285,254.5154,right,0.2696,,254.5154,0,2,255.5143,0,8,8,8,1,0,2,1,0,,,,,,,,,,,,,,,,,,,,,,,,,,,,,,,,,,,,,,,,,
,,6545ffdbc2a670fa09573950,65af5643dc8991f4776b9f1a,2024-01-23_16h03.18.992,bars,2023.2.3,MacIntel,59.88023952,657b66ea316d21385b68909f,,,,,,,,,,,,,,,,,,,,,,,,,,,,,,,,,,,,,,,,,,255.5146,255.9779,left,0.4528,,255.978,2,1,256.9792,0,9,9,9,1,2,4,2,3,,,,,,,,,,,,,,,,,,,,,,,,,,,,,,,,,,,,,,,,,
,,6545ffdbc2a670fa09573950,65af5643dc8991f4776b9f1a,2024-01-23_16h03.18.992,bars,2023.2.3,MacIntel,59.88023952,657b66ea316d21385b68909f,,,,,,,,,,,,,,,,,,,,,,,,,,,,,,,,,,,,,,,,,,256.9795,257.3628,left,0.3671,,257.3628,0,1,258.364,0,10,10,10,1,0,2,0,3,,,,,,,,,,,,,,,,,,,,,,,,,,,,,,,,,,,,,,,,,
,,6545ffdbc2a670fa09573950,65af5643dc8991f4776b9f1a,2024-01-23_16h03.18.992,bars,2023.2.3,MacIntel,59.88023952,657b66ea316d21385b68909f,,,,,,,,,,,,,,,,,,,,,,,,,,,,,,,,,,,,,,,,,,258.3641,258.4644,right,0.0857,,258.4644,3,2,259.4628,0,11,11,11,1,0,4,0,3,,,,,,,,,,,,,,,,,,,,,,,,,,,,,,,,,,,,,,,,,
,,6545ffdbc2a670fa09573950,65af5643dc8991f4776b9f1a,2024-01-23_16h03.18.992,bars,2023.2.3,MacIntel,59.88023952,657b66ea316d21385b68909f,,,,,,,,,,,,,,,,,,,,,,,,,,,,,,,,,,,,,,,,,,259.4631,260.4944,left,1.0212,,260.4944,1,1,261.4958,0,12,12,12,1,2,6,1,6,,,,,,,,,,,,,,,,,,,,,,,,,,,,,,,,,,,,,,,,,
,,6545ffdbc2a670fa09573950,65af5643dc8991f4776b9f1a,2024-01-23_16h03.18.992,bars,2023.2.3,MacIntel,59.88023952,657b66ea316d21385b68909f,,,,,,,,,,,,,,,,,,,,,,,,,,,,,,,,,,,,,,,,,,261.496,262.3974,right,0.8892,,262.3974,3,2,263.3984,0,13,13,13,1,0,4,1,3,,,,,,,,,,,,,,,,,,,,,,,,,,,,,,,,,,,,,,,,,
,,6545ffdbc2a670fa09573950,65af5643dc8991f4776b9f1a,2024-01-23_16h03.18.992,bars,2023.2.3,MacIntel,59.88023952,657b66ea316d21385b68909f,,,,,,,,,,,,,,,,,,,,,,,,,,,,,,,,,,,,,,,,,,263.3986,265.3451,left,1.9342,,265.3451,2,1,266.3453,0,14,14,14,1,2,6,2,7,,,,,,,,,,,,,,,,,,,,,,,,,,,,,,,,,,,,,,,,,
,,6545ffdbc2a670fa09573950,65af5643dc8991f4776b9f1a,2024-01-23_16h03.18.992,bars,2023.2.3,MacIntel,59.88023952,657b66ea316d21385b68909f,,,,,,,,,,,,,,,,,,,,,,,,,,,,,,,,,,,,,,,,,,266.3533,266.6453,left,0.2764,,266.6453,3,1,267.6451,0,15,15,15,1,4,8,3,9,,,,,,,,,,,,,,,,,,,,,,,,,,,,,,,,,,,,,,,,,
,,6545ffdbc2a670fa09573950,65af5643dc8991f4776b9f1a,2024-01-23_16h03.18.992,bars,2023.2.3,MacIntel,59.88023952,657b66ea316d21385b68909f,,,,,,,,,,,,,,,,,,,,,,,,,,,,,,,,,,,,,,,,,,267.6453,268.8783,right,1.219,,268.8783,7,2,269.8784,0,16,16,16,1,6,6,7,7,,,,,,,,,,,,,,,,,,,,,,,,,,,,,,,,,,,,,,,,,
,,6545ffdbc2a670fa09573950,65af5643dc8991f4776b9f1a,2024-01-23_16h03.18.992,bars,2023.2.3,MacIntel,59.88023952,657b66ea316d21385b68909f,,,,,,,,,,,,,,,,,,,,,,,,,,,,,,,,,,,,,,,,,,269.8786,270.4132,right,0.5269,,270.4132,5,2,271.4116,0,17,17,17,1,8,4,9,5,,,,,,,,,,,,,,,,,,,,,,,,,,,,,,,,,,,,,,,,,
,,6545ffdbc2a670fa09573950,65af5643dc8991f4776b9f1a,2024-01-23_16h03.18.992,bars,2023.2.3,MacIntel,59.88023952,657b66ea316d21385b68909f,,,,,,,,,,,,,,,,,,,,,,,,,,,,,,,,,,,,,,,,,,271.4117,271.6952,right,0.2672,,271.6952,1,2,272.6946,0,18,18,18,1,6,2,5,1,,,,,,,,,,,,,,,,,,,,,,,,,,,,,,,,,,,,,,,,,
,,6545ffdbc2a670fa09573950,65af5643dc8991f4776b9f1a,2024-01-23_16h03.18.992,bars,2023.2.3,MacIntel,59.88023952,657b66ea316d21385b68909f,,,,,,,,,,,,,,,,,,,,,,,,,,,,,,,,,,,,,,,,,,272.6948,273.0637,left,0.3542,,273.0637,7,1,274.0623,0,19,19,19,1,8,0,7,0,,,,,,,,,,,,,,,,,,,,,,,,,,,,,,,,,,,,,,,,,
,,6545ffdbc2a670fa09573950,65af5643dc8991f4776b9f1a,2024-01-23_16h03.18.992,bars,2023.2.3,MacIntel,59.88023952,657b66ea316d21385b68909f,,,,,,,,,,,,,,,,,,,,,,,,,,,,,,,,,,,,,,,,,,,,,,,,,,,,,,,,,,,,274.082,283.9272,space,9.822,,,,,,,,,,,,,,,,,,,,,,,,,,,,,,,,,,,,,
,,6545ffdbc2a670fa09573950,65af5643dc8991f4776b9f1a,2024-01-23_16h03.18.992,bars,2023.2.3,MacIntel,59.88023952,657b66ea316d21385b68909f,,,,,,,,,,,286.0812,287.0799,,,287.5786,287.8284,,83,83,,,,,,,,,,,,,,,,bars/041.png,bars/mask001.png,,,,,,,,,,,,1,2,,,,,,,4,2,4,1,,,,,,283.9366,286.0783,space,2.127,,287.0801,287.5786,287.8286,292.4464,space,4.6039,,292.4465,63,2,293.4485,293.4487,301.231,space,7.7691,,0,0,0,0,1,20,85,,,,,,,,
,,6545ffdbc2a670fa09573950,65af5643dc8991f4776b9f1a,2024-01-23_16h03.18.992,bars,2023.2.3,MacIntel,59.88023952,657b66ea316d21385b68909f,,,,,,,,,,,301.2391,302.2304,,,302.7312,302.9808,,90,90,,,,,,,,,,,,,,,,bars/029.png,bars/mask005.png,,,,,,,,,,,,3,1,,,,,,,2,4,3,3,,,,,,,,,,,302.2305,302.7312,302.9808,311.8962,space,8.8995,,311.8962,0,45,312.8984,312.8985,318.1324,space,5.21,,0,1,1,1,1,90,45,,,,,,,,
,,6545ffdbc2a670fa09573950,65af5643dc8991f4776b9f1a,2024-01-23_16h03.18.992,bars,2023.2.3,MacIntel,59.88023952,657b66ea316d21385b68909f,,,,,,,,,,,318.1398,319.1286,,,319.6282,319.8785,,24,24,,,,,,,,,,,,,,,,bars/031.png,bars/mask005.png,,,,,,,,,,,,4,2,,,,,,,0,6,0,6,,,,,,,,,,,319.1286,319.6282,319.8785,326.3143,space,6.4183,,326.3143,84,11,327.3132,327.3132,333.7461,space,6.4102,,0,2,2,2,1,120,35,,,,,,,,
,,6545ffdbc2a670fa09573950,65af5643dc8991f4776b9f1a,2024-01-23_16h03.18.992,bars,2023.2.3,MacIntel,59.88023952,657b66ea316d21385b68909f,,,,,,,,,,,333.7537,334.7458,,,335.2474,335.4974,,47,47,,,,,,,,,,,,,,,,bars/035.png,bars/mask006.png,,,,,,,,,,,,3,2,,,,,,,2,4,0,5,,,,,,,,,,,334.7458,335.2474,335.4974,341.7962,space,6.2832,,341.7962,52,13,342.7978,342.798,346.7472,space,3.9279,,0,3,3,3,1,175,60,,,,,,,,
,,6545ffdbc2a670fa09573950,65af5643dc8991f4776b9f1a,2024-01-23_16h03.18.992,bars,2023.2.3,MacIntel,59.88023952,657b66ea316d21385b68909f,,,,,,,,,,,346.7549,347.7452,,,348.2491,348.4956,,175,-5,,,,,,,,,,,,,,,,bars/036.png,bars/mask005.png,,,,,,,,,,,,0,2,,,,,,,0,2,0,3,,,,,,,,,,,347.7452,348.2491,348.4957,358.5631,space,10.0567,,358.5631,30,25,359.562,359.5621,363.8308,space,4.2494,,0,4,4,4,1,145,20,,,,,,,,
,,6545ffdbc2a670fa09573950,65af5643dc8991f4776b9f1a,2024-01-23_16h03.18.992,bars,2023.2.3,MacIntel,59.88023952,657b66ea316d21385b68909f,,,,,,,,,,,363.839,364.8309,,,365.3287,365.5785,,26,26,,,,,,,,,,,,,,,,bars/005.png,bars/mask008.png,,,,,,,,,,,,0,1,,,,,,,0,4,0,5,,,,,,,,,,,364.8309,365.3287,365.5785,370.9789,space,5.3843,,370.9789,16,66,371.9795,371.9796,373.7289,space,1.7321,,0,5,5,5,1,10,140,,,,,,,,
,,6545ffdbc2a670fa09573950,65af5643dc8991f4776b9f1a,2024-01-23_16h03.18.992,bars,2023.2.3,MacIntel,59.88023952,657b66ea316d21385b68909f,,,,,,,,,,,373.7291,374.7296,,,375.2295,375.4797,,170,-10,,,,,,,,,,,,,,,,bars/039.png,bars/mask008.png,,,,,,,,,,,,0,1,,,,,,,0,2,0,1,,,,,,,,,,,374.7296,375.2295,375.4797,386.212,space,10.7166,,386.212,5,65,387.2129,387.213,389.4306,space,2.1924,,0,6,6,6,1,175,105,,,,,,,,
,,6545ffdbc2a670fa09573950,65af5643dc8991f4776b9f1a,2024-01-23_16h03.18.992,bars,2023.2.3,MacIntel,59.88023952,657b66ea316d21385b68909f,,,,,,,,,,,389.4309,390.4294,,,390.9286,391.1783,,175,175,,,,,,,,,,,,,,,,bars/037.png,bars/mask009.png,,,,,,,,,,,,0,1,,,,,,,0,0,1,1,,,,,,,,,,,390.4294,390.9286,391.1784,394.047,space,2.8512,,394.047,25,70,395.0454,395.0454,402.1124,space,7.0429,,0,7,7,7,1,150,105,,,,,,,,
,,6545ffdbc2a670fa09573950,65af5643dc8991f4776b9f1a,2024-01-23_16h03.18.992,bars,2023.2.3,MacIntel,59.88023952,657b66ea316d21385b68909f,,,,,,,,,,,402.1203,403.1143,,,403.6129,403.8629,,154,-26,,,,,,,,,,,,,,,,bars/049.png,bars/mask001.png,,,,,,,,,,,,0,1,,,,,,,0,2,0,2,,,,,,,,,,,403.1143,403.6129,403.8629,411.4644,space,7.5881,,411.4644,6,39,412.4622,412.4622,417.4809,space,4.9911,,0,8,8,8,1,160,115,,,,,,,,
,,6545ffdbc2a670fa09573950,65af5643dc8991f4776b9f1a,2024-01-23_16h03.18.992,bars,2023.2.3,MacIntel,59.88023952,657b66ea316d21385b68909f,,,,,,,,,,,417.489,418.4789,,,418.9798,419.2294,,173,-7,,,,,,,,,,,,,,,,bars/011.png,bars/mask003.png,,,,,,,,,,,,1,1,,,,,,,2,0,1,1,,,,,,,,,,,418.479,418.9798,419.2295,423.9458,space,4.7016,,423.9458,13,88,424.9476,424.9476,433.1811,space,8.208,,0,9,9,9,1,160,85,,,,,,,,
,,6545ffdbc2a670fa09573950,65af5643dc8991f4776b9f1a,2024-01-23_16h03.18.992,bars,2023.2.3,MacIntel,59.88023952,657b66ea316d21385b68909f,,,,,,,,,,,433.1891,434.1812,,,434.6797,434.9285,,1,181,,,,,,,,,,,,,,,,bars/040.png,bars/mask003.png,,,,,,,,,,,,0,2,,,,,,,0,0,0,0,,,,,,,,,,,434.1812,434.6797,434.9285,441.3124,space,6.3672,,441.3125,41,4,442.3129,442.3129,449.8291,space,7.492,,0,10,10,10,1,140,5,,,,,,,,
,,6545ffdbc2a670fa09573950,65af5643dc8991f4776b9f1a,2024-01-23_16h03.18.992,bars,2023.2.3,MacIntel,59.88023952,657b66ea316d21385b68909f,,,,,,,,,,,449.8371,450.8307,,,451.3316,451.579,,8,188,,,,,,,,,,,,,,,,bars/033.png,bars/mask004.png,,,,,,,,,,,,1,1,,,,,,,2,2,3,3,,,,,,,,,,,450.8307,451.3316,451.579,458.6799,space,7.0886,,458.6799,17,33,459.6787,459.6787,463.3298,space,3.6313,,0,11,11,11,1,25,155,,,,,,,,
,,6545ffdbc2a670fa09573950,65af5643dc8991f4776b9f1a,2024-01-23_16h03.18.992,bars,2023.2.3,MacIntel,59.88023952,657b66ea316d21385b68909f,,,,,,,,,,,463.3373,464.3284,,,464.829,465.0796,,30,210,,,,,,,,,,,,,,,,bars/019.png,bars/mask001.png,,,,,,,,,,,,0,1,,,,,,,0,0,0,0,,,,,,,,,,,464.3285,464.829,465.0796,476.146,space,11.0505,,476.146,15,75,477.1467,477.1467,479.4481,space,2.2755,,0,12,12,12,1,45,105,,,,,,,,
,,6545ffdbc2a670fa09573950,65af5643dc8991f4776b9f1a,2024-01-23_16h03.18.992,bars,2023.2.3,MacIntel,59.88023952,657b66ea316d21385b68909f,,,,,,,,,,,479.4485,480.4468,,,480.9457,481.1953,,48,48,,,,,,,,,,,,,,,,bars/019.png,bars/mask003.png,,,,,,,,,,,,0,1,,,,,,,0,2,0,0,,,,,,,,,,,480.4468,480.9457,481.1953,483.3799,space,2.1674,,483.38,3,57,484.3792,484.3792,487.7626,space,3.3643,,0,13,13,13,1,45,105,,,,,,,,
,,6545ffdbc2a670fa09573950,65af5643dc8991f4776b9f1a,2024-01-23_16h03.18.992,bars,2023.2.3,MacIntel,59.88023952,657b66ea316d21385b68909f,,,,,,,,,,,487.7706,488.7624,,,489.2625,489.512,,36,36,,,,,,,,,,,,,,,,bars/019.png,bars/mask005.png,,,,,,,,,,,,0,1,,,,,,,0,4,0,4,,,,,,,,,,,488.7624,489.2625,489.512,491.0626,space,1.5342,,491.0627,9,69,492.0633,492.0633,493.3969,space,1.3169,,0,14,14,14,1,45,105,,,,,,,,
,,6545ffdbc2a670fa09573950,65af5643dc8991f4776b9f1a,2024-01-23_16h03.18.992,bars,2023.2.3,MacIntel,59.88023952,657b66ea316d21385b68909f,,,,,,,,,,,493.3973,494.3981,,,494.8958,495.1467,,36,36,,,,,,,,,,,,,,,,bars/005.png,bars/mask002.png,,,,,,,,,,,,0,1,,,,,,,2,2,3,2,,,,,,,,,,,494.3982,494.8958,495.1467,498.8982,space,3.7339,,498.8982,26,76,499.8958,499.8958,502.3967,space,2.4829,,0,15,15,15,1,10,140,,,,,,,,
,,6545ffdbc2a670fa09573950,65af5643dc8991f4776b9f1a,2024-01-23_16h03.18.992,bars,2023.2.3,MacIntel,59.88023952,657b66ea316d21385b68909f,,,,,,,,,,,502.3969,503.3955,,,503.8959,504.1461,,167,-13,,,,,,,,,,,,,,,,bars/022.png,bars/mask007.png,,,,,,,,,,,,0,2,,,,,,,0,0,0,0,,,,,,,,,,,503.3955,503.8958,504.1461,507.7318,space,3.5726,,507.7318,72,33,508.7292,508.7293,511.8293,space,3.0742,,0,16,16,16,1,95,20,,,,,,,,
,,6545ffdbc2a670fa09573950,65af5643dc8991f4776b9f1a,2024-01-23_16h03.18.992,bars,2023.2.3,MacIntel,59.88023952,657b66ea316d21385b68909f,,,,,,,,,,,511.8373,512.8293,,,513.3314,513.5793,,21,201,,,,,,,,,,,,,,,,bars/042.png,bars/mask003.png,,,,,,,,,,,,0,2,,,,,,,0,2,0,2,,,,,,,,,,,512.8293,513.3314,513.5793,519.8984,space,6.3125,,519.8984,56,54,520.8966,520.8966,542.1295,space,21.2078,,0,17,17,17,1,145,75,,,,,,,,
,,6545ffdbc2a670fa09573950,65af5643dc8991f4776b9f1a,2024-01-23_16h03.18.992,bars,2023.2.3,MacIntel,59.88023952,657b66ea316d21385b68909f,,,,,,,,,,,542.1372,543.1304,,,543.6301,543.8814,,31,31,,,,,,,,,,,,,,,,bars/008.png,bars/mask007.png,,,,,,,,,,,,0,2,,,,,,,0,4,0,2,,,,,,,,,,,543.1304,543.6301,543.8815,550.8661,space,6.9721,,550.8662,79,31,551.862,551.8621,556.2967,space,4.4103,,0,18,18,18,1,110,0,,,,,,,,
,,6545ffdbc2a670fa09573950,65af5643dc8991f4776b9f1a,2024-01-23_16h03.18.992,bars,2023.2.3,MacIntel,59.88023952,657b66ea316d21385b68909f,,,,,,,,,,,556.3046,557.2978,,,557.7961,558.0456,,122,122,,,,,,,,,,,,,,,,bars/021.png,bars/mask005.png,,,,,,,,,,,,0,1,,,,,,,2,6,4,8,,,,,,,,,,,557.2978,557.796,558.0456,569.4629,space,11.4041,,569.463,33,52,570.4632,570.4632,626.8456,space,56.3658,,0,19,19,19,1,155,70,,,,,,,,
,,6545ffdbc2a670fa09573950,65af5643dc8991f4776b9f1a,2024-01-23_16h03.18.992,bars,2023.2.3,MacIntel,59.88023952,657b66ea316d21385b68909f,,,,,,,,,,,626.8537,627.8457,,,628.3471,628.5988,,161,-19,,,,,,,,,,,,,,,,bars/048.png,bars/mask009.png,,,,,,,,,,,,2,2,,,,,,,0,4,0,3,,,,,,,,,,,627.8458,628.347,628.5988,632.4474,space,3.8325,,632.4474,69,14,633.4463,633.4463,639.6469,space,6.1848,,0,20,20,20,1,50,175,,,,,,,,
,,6545ffdbc2a670fa09573950,65af5643dc8991f4776b9f1a,2024-01-23_16h03.18.992,bars,2023.2.3,MacIntel,59.88023952,657b66ea316d21385b68909f,,,,,,,,,,,639.6546,640.6484,,,641.1472,641.3959,,169,-11,,,,,,,,,,,,,,,,bars/040.png,bars/mask006.png,,,,,,,,,,,,3,2,,,,,,,2,6,3,7,,,,,,,,,,,640.6484,641.1472,641.3959,651.5975,space,10.1849,,651.5976,29,16,652.5972,652.5973,656.1155,space,3.4943,,0,21,21,21,1,140,5,,,,,,,,
,,6545ffdbc2a670fa09573950,65af5643dc8991f4776b9f1a,2024-01-23_16h03.18.992,bars,2023.2.3,MacIntel,59.88023952,657b66ea316d21385b68909f,,,,,,,,,,,656.1158,657.1143,,,657.6152,657.864,,4,184,,,,,,,,,,,,,,,,bars/007.png,bars/mask006.png,,,,,,,,,,,,0,1,,,,,,,0,8,0,9,,,,,,,,,,,657.1143,657.6152,657.864,665.5137,space,7.6411,,665.5138,9,51,666.5144,666.5144,673.4155,space,6.8795,,0,22,22,22,1,175,55,,,,,,,,
,,6545ffdbc2a670fa09573950,65af5643dc8991f4776b9f1a,2024-01-23_16h03.18.992,bars,2023.2.3,MacIntel,59.88023952,657b66ea316d21385b68909f,,,,,,,,,,,673.4233,674.4133,,,674.9153,675.1632,,164,-16,,,,,,,,,,,,,,,,bars/019.png,bars/mask008.png,,,,,,,,,,,,0,2,,,,,,,0,6,1,5,,,,,,,,,,,674.4134,674.9152,675.1632,679.3824,space,4.2127,,679.3824,61,59,680.38,680.38,685.1477,space,4.7413,,0,23,23,23,1,45,105,,,,,,,,
,,6545ffdbc2a670fa09573950,65af5643dc8991f4776b9f1a,2024-01-23_16h03.18.992,bars,2023.2.3,MacIntel,59.88023952,657b66ea316d21385b68909f,,,,,,,,,,,685.1551,686.1468,,,686.648,686.8977,,100,100,,,,,,,,,,,,,,,,bars/008.png,bars/mask006.png,,,,,,,,,,,,1,1,,,,,,,2,8,2,9,,,,,,,,,,,686.1468,686.648,686.8978,691.8966,space,4.9896,,691.8967,10,80,692.8974,692.8974,695.148,space,2.2323,,0,24,24,24,1,110,0,,,,,,,,
,,6545ffdbc2a670fa09573950,65af5643dc8991f4776b9f1a,2024-01-23_16h03.18.992,bars,2023.2.3,MacIntel,59.88023952,657b66ea316d21385b68909f,,,,,,,,,,,695.1482,696.1486,,,696.6488,696.897,,119,119,,,,,,,,,,,,,,,,bars/040.png,bars/mask003.png,,,,,,,,,,,,0,1,,,,,,,0,10,1,10,,,,,,,,,,,696.1486,696.6487,696.897,702.63,space,5.7171,,702.63,21,66,703.6296,703.6296,708.7468,space,5.0936,,0,25,25,25,1,140,5,,,,,,,,
,,6545ffdbc2a670fa09573950,65af5643dc8991f4776b9f1a,2024-01-23_16h03.18.992,bars,2023.2.3,MacIntel,59.88023952,657b66ea316d21385b68909f,,,,,,,,,,,708.7547,709.7462,,,710.2478,710.4983,,151,151,,,,,,,,,,,,,,,,bars/035.png,bars/mask000.png,,,,,,,,,,,,1,1,,,,,,,2,8,3,9,,,,,,,,,,,709.7463,710.2478,710.4983,711.5482,space,1.0328,,711.5482,24,89,712.5467,712.5467,714.3308,space,1.7731,,0,26,26,26,1,175,60,,,,,,,,
,,6545ffdbc2a670fa09573950,65af5643dc8991f4776b9f1a,2024-01-23_16h03.18.992,bars,2023.2.3,MacIntel,59.88023952,657b66ea316d21385b68909f,,,,,,,,,,,714.331,715.3295,,,715.83,716.08,,14,194,,,,,,,,,,,,,,,,bars/044.png,bars/mask000.png,,,,,,,,,,,,0,2,,,,,,,0,10,0,10,,,,,,,,,,,715.3295,715.83,716.08,721.0654,space,4.9792,,721.0654,61,39,722.0633,722.0633,723.7672,space,1.6748,,0,27,27,27,1,75,155,,,,,,,,
,,6545ffdbc2a670fa09573950,65af5643dc8991f4776b9f1a,2024-01-23_16h03.18.992,bars,2023.2.3,MacIntel,59.88023952,657b66ea316d21385b68909f,,,,,,,,,,,723.7673,724.7651,,,725.2652,725.5156,,150,-30,,,,,,,,,,,,,,,,bars/041.png,bars/mask000.png,,,,,,,,,,,,0,1,,,,,,,0,10,0,10,,,,,,,,,,,724.7652,725.2652,725.5156,730.0992,space,4.5678,,730.0992,50,65,731.0996,731.0996,737.4143,space,6.2893,,0,28,28,28,1,20,85,,,,,,,,
,,6545ffdbc2a670fa09573950,65af5643dc8991f4776b9f1a,2024-01-23_16h03.18.992,bars,2023.2.3,MacIntel,59.88023952,657b66ea316d21385b68909f,,,,,,,,,,,737.4219,738.4131,,,738.9168,739.1635,,33,33,,,,,,,,,,,,,,,,bars/033.png,bars/mask007.png,,,,,,,,,,,,1,1,,,,,,,0,10,1,10,,,,,,,,,,,738.4131,738.9168,739.1635,744.2642,space,5.0861,,744.2642,8,58,745.2629,745.263,747.2474,space,1.9673,,0,29,29,29,1,25,155,,,,,,,,
,,6545ffdbc2a670fa09573950,65af5643dc8991f4776b9f1a,2024-01-23_16h03.18.992,bars,2023.2.3,MacIntel,59.88023952,657b66ea316d21385b68909f,,,,,,,,,,,747.2476,748.2486,,,748.7491,748.9991,,29,209,,,,,,,,,,,,,,,,bars/049.png,bars/mask008.png,,,,,,,,,,,,0,1,,,,,,,2,8,2,6,,,,,,,,,,,748.2486,748.749,748.9991,755.6829,space,6.6665,,755.683,49,86,756.6802,756.6802,778.4831,space,21.7816,,0,30,30,30,1,160,115,,,,,,,,
,,6545ffdbc2a670fa09573950,65af5643dc8991f4776b9f1a,2024-01-23_16h03.18.992,bars,2023.2.3,MacIntel,59.88023952,657b66ea316d21385b68909f,,,,,,,,,,,778.4914,779.4839,,,779.9798,780.2298,,157,-23,,,,,,,,,,,,,,,,bars/038.png,bars/mask001.png,,,,,,,,,,,,3,1,,,,,,,4,6,4,7,,,,,,,,,,,779.484,779.9798,780.2298,786.1636,space,5.9172,,786.1636,8,87,787.1643,787.1643,789.7975,space,2.6078,,0,31,31,31,1,165,70,,,,,,,,
,,6545ffdbc2a670fa09573950,65af5643dc8991f4776b9f1a,2024-01-23_16h03.18.992,bars,2023.2.3,MacIntel,59.88023952,657b66ea316d21385b68909f,,,,,,,,,,,789.7977,790.798,,,791.2988,791.5465,,153,153,,,,,,,,,,,,,,,,bars/015.png,bars/mask008.png,,,,,,,,,,,,8,2,,,,,,,2,8,1,10,,,,,,,,,,,790.798,791.2987,791.5465,796.9637,space,5.4061,,796.9637,43,7,797.966,797.966,801.9481,space,3.962,,0,32,32,32,1,110,160,,,,,,,,
,,6545ffdbc2a670fa09573950,65af5643dc8991f4776b9f1a,2024-01-23_16h03.18.992,bars,2023.2.3,MacIntel,59.88023952,657b66ea316d21385b68909f,,,,,,,,,,,801.9562,802.9475,,,803.4493,803.6995,,165,-15,,,,,,,,,,,,,,,,bars/021.png,bars/mask001.png,,,,,,,,,,,,1,1,,,,,,,0,10,1,8,,,,,,,,,,,802.9475,803.4493,803.6995,806.9298,space,3.2226,,806.9299,10,85,807.9311,807.9311,809.6312,space,1.6726,,0,33,33,33,1,155,70,,,,,,,,
,,6545ffdbc2a670fa09573950,65af5643dc8991f4776b9f1a,2024-01-23_16h03.18.992,bars,2023.2.3,MacIntel,59.88023952,657b66ea316d21385b68909f,,,,,,,,,,,809.6313,810.6316,,,811.1305,811.3803,,154,-26,,,,,,,,,,,,,,,,bars/017.png,bars/mask006.png,,,,,,,,,,,,1,1,,,,,,,2,8,2,9,,,,,,,,,,,810.6316,811.1305,811.3803,820.9481,space,9.5502,,820.9482,9,71,821.9477,821.9478,876.7485,space,54.7848,,0,34,34,34,1,145,45,,,,,,,,
,,6545ffdbc2a670fa09573950,65af5643dc8991f4776b9f1a,2024-01-23_16h03.18.992,bars,2023.2.3,MacIntel,59.88023952,657b66ea316d21385b68909f,,,,,,,,,,,876.7582,877.748,,,878.2477,878.4971,,133,133,,,,,,,,,,,,,,,,bars/036.png,bars/mask005.png,,,,,,,,,,,,2,1,,,,,,,4,6,4,7,,,,,,,,,,,877.7481,878.2477,878.4971,885.3985,space,6.8841,,885.3985,12,67,886.3967,886.3967,1128.6985,space,242.2772,,0,35,35,35,1,145,20,,,,,,,,
,,6545ffdbc2a670fa09573950,65af5643dc8991f4776b9f1a,2024-01-23_16h03.18.992,bars,2023.2.3,MacIntel,59.88023952,657b66ea316d21385b68909f,,,,,,,,,,,1128.7063,1129.6995,,,1130.2005,1130.4477,,145,145,,,,,,,,,,,,,,,,bars/007.png,bars/mask000.png,,,,,,,,,,,,0,1,,,,,,,6,4,7,2,,,,,,,,,,,1129.6995,1130.2004,1130.4477,1135.6674,space,5.1857,,1135.6674,30,90,1136.6649,1136.6649,1138.3984,space,1.7092,,0,36,36,36,1,175,55,,,,,,,,
,,6545ffdbc2a670fa09573950,65af5643dc8991f4776b9f1a,2024-01-23_16h03.18.992,bars,2023.2.3,MacIntel,59.88023952,657b66ea316d21385b68909f,,,,,,,,,,,1138.3987,1139.4012,,,1139.8984,1140.151,,172,172,,,,,,,,,,,,,,,,bars/037.png,bars/mask006.png,,,,,,,,,,,,1,1,,,,,,,4,6,5,6,,,,,,,,,,,1139.4012,1139.8984,1140.151,1146.5658,space,6.4062,,1146.5659,22,67,1147.565,1147.565,1150.5151,space,2.9328,,0,37,37,37,1,150,105,,,,,,,,
,,6545ffdbc2a670fa09573950,65af5643dc8991f4776b9f1a,2024-01-23_16h03.18.992,bars,2023.2.3,MacIntel,59.88023952,657b66ea316d21385b68909f,,,,,,,,,,,1150.5153,1151.5157,,,1152.0157,1152.2649,,151,151,,,,,,,,,,,,,,,,bars/023.png,bars/mask007.png,,,,,,,,,,,,0,2,,,,,,,2,8,3,9,,,,,,,,,,,1151.5157,1152.0157,1152.2649,1153.8982,space,1.6262,,1153.8982,49,36,1154.9004,1154.9004,1157.6818,space,2.7545,,0,38,38,38,1,20,115,,,,,,,,
,,6545ffdbc2a670fa09573950,65af5643dc8991f4776b9f1a,2024-01-23_16h03.18.992,bars,2023.2.3,MacIntel,59.88023952,657b66ea316d21385b68909f,,,,,,,,,,,1157.6821,1158.6811,,,1159.1817,1159.4316,,107,107,,,,,,,,,,,,,,,,bars/049.png,bars/mask006.png,,,,,,,,,,,,7,2,,,,,,,0,10,1,10,,,,,,,,,,,1158.6811,1159.1817,1159.4316,1163.4989,space,4.0566,,1163.4989,53,8,1164.5018,1164.5018,1169.0319,space,4.5056,,0,39,39,39,1,160,115,,,,,,,,
,,6545ffdbc2a670fa09573950,65af5643dc8991f4776b9f1a,2024-01-23_16h03.18.992,bars,2023.2.3,MacIntel,59.88023952,657b66ea316d21385b68909f,,,,,,,,,,,1169.0396,1170.0317,,,1170.5324,1170.7828,,118,118,,,,,,,,,,,,,,,,bars/046.png,bars/mask008.png,,,,,,,,,,,,0,2,,,,,,,2,10,2,10,,,,,,,,,,,1170.0317,1170.5323,1170.7828,1173.9654,space,3.1691,,1173.9654,37,33,1174.9657,1174.9658,1176.398,space,1.4091,,0,40,40,40,1,155,85,,,,,,,,
,,6545ffdbc2a670fa09573950,65af5643dc8991f4776b9f1a,2024-01-23_16h03.18.992,bars,2023.2.3,MacIntel,59.88023952,657b66ea316d21385b68909f,,,,,,,,,,,1176.3983,1177.4009,,,1177.8985,1178.149,,85,85,,,,,,,,,,,,,,,,bars/041.png,bars/mask008.png,,,,,,,,,,,,6,2,,,,,,,4,8,3,6,,,,,,,,,,,1177.4009,1177.8985,1178.149,1187.0989,space,8.9334,,1187.0989,65,0,1188.0984,1188.0985,1236.632,space,48.51,,0,41,41,41,1,20,85,,,,,,,,
,,6545ffdbc2a670fa09573950,65af5643dc8991f4776b9f1a,2024-01-23_16h03.18.992,bars,2023.2.3,MacIntel,59.88023952,657b66ea316d21385b68909f,,,,,,,,,,,1236.6399,1237.634,,,1238.133,1238.3827,,162,162,,,,,,,,,,,,,,,,bars/038.png,bars/mask006.png,,,,,,,,,,,,5,1,,,,,,,6,10,5,9,,,,,,,,,,,1237.634,1238.133,1238.3828,1239.5147,space,1.1164,,1239.5148,3,88,1240.5145,1240.5145,1242.6318,space,2.1065,,0,42,42,42,1,165,70,,,,,,,,
,,6545ffdbc2a670fa09573950,65af5643dc8991f4776b9f1a,2024-01-23_16h03.18.992,bars,2023.2.3,MacIntel,59.88023952,657b66ea316d21385b68909f,,,,,,,,,,,1242.6321,1243.6314,,,1244.1315,1244.3845,,164,-16,,,,,,,,,,,,,,,,bars/023.png,bars/mask005.png,,,,,,,,,,,,0,1,,,,,,,4,10,5,9,,,,,,,,,,,1243.6314,1244.1314,1244.3846,1253.3321,space,8.9318,,1253.3321,36,49,1254.3341,1254.3341,1257.1155,space,2.7605,,0,43,43,43,1,20,115,,,,,,,,
,,6545ffdbc2a670fa09573950,65af5643dc8991f4776b9f1a,2024-01-23_16h03.18.992,bars,2023.2.3,MacIntel,59.88023952,657b66ea316d21385b68909f,,,,,,,,,,,1257.1158,1258.1154,,,1258.6177,1258.8661,,22,202,,,,,,,,,,,,,,,,bars/044.png,bars/mask001.png,,,,,,,,,,,,0,2,,,,,,,2,10,3,10,,,,,,,,,,,1258.1154,1258.6177,1258.8661,1265.5826,space,6.7019,,1265.5827,53,47,1266.5829,1266.5829,1411.5169,space,144.9071,,0,44,44,44,1,75,155,,,,,,,,
,,6545ffdbc2a670fa09573950,65af5643dc8991f4776b9f1a,2024-01-23_16h03.18.992,bars,2023.2.3,MacIntel,59.88023952,657b66ea316d21385b68909f,,,,,,,,,,,1411.5248,1412.5159,,,1413.0161,1413.2666,,151,151,,,,,,,,,,,,,,,,bars/047.png,bars/mask008.png,,,,,,,,,,,,0,1,,,,,,,0,10,0,10,,,,,,,,,,,1412.5159,1413.0161,1413.2666,1417.8001,space,4.5156,,1417.8002,44,81,1418.8003,1418.8003,1421.2322,space,2.411,,0,45,45,45,1,15,70,,,,,,,,
,,6545ffdbc2a670fa09573950,65af5643dc8991f4776b9f1a,2024-01-23_16h03.18.992,bars,2023.2.3,MacIntel,59.88023952,657b66ea316d21385b68909f,,,,,,,,,,,1421.2325,1422.2327,,,1422.7328,1422.9823,,12,12,,,,,,,,,,,,,,,,bars/041.png,bars/mask009.png,,,,,,,,,,,,1,1,,,,,,,0,10,1,10,,,,,,,,,,,1422.2327,1422.7328,1422.9823,1424.9669,space,1.9749,,1424.9669,8,73,1425.9659,1425.966,1427.766,space,1.7842,,0,46,46,46,1,20,85,,,,,,,,
,,6545ffdbc2a670fa09573950,65af5643dc8991f4776b9f1a,2024-01-23_16h03.18.992,bars,2023.2.3,MacIntel,59.88023952,657b66ea316d21385b68909f,,,,,,,,,,,1427.7663,1428.7681,,,1429.2683,1429.5182,,24,204,,,,,,,,,,,,,,,,bars/019.png,bars/mask002.png,,,,,,,,,,,,1,1,,,,,,,0,10,3,10,,,,,,,,,,,1428.7682,1429.2682,1429.5182,1439.3169,space,9.7832,,1439.3169,21,81,1440.3196,1440.3196,1524.1686,space,83.821,,0,47,47,47,1,45,105,,,,,,,,
,,6545ffdbc2a670fa09573950,65af5643dc8991f4776b9f1a,2024-01-23_16h03.18.992,bars,2023.2.3,MacIntel,59.88023952,657b66ea316d21385b68909f,,,,,,,,,,,1524.1769,1525.1664,,,1525.6663,1525.9164,,68,68,,,,,,,,,,,,,,,,bars/007.png,bars/mask007.png,,,,,,,,,,,,6,2,,,,,,,0,10,0,10,,,,,,,,,,,1525.1664,1525.6662,1525.9164,1532.1667,space,6.2434,,1532.1668,73,13,1533.1663,1533.1663,1538.8011,space,5.6108,,0,48,48,48,1,175,55,,,,,,,,
,,6545ffdbc2a670fa09573950,65af5643dc8991f4776b9f1a,2024-01-23_16h03.18.992,bars,2023.2.3,MacIntel,59.88023952,657b66ea316d21385b68909f,,,,,,,,,,,1538.8085,1539.8008,,,1540.2998,1540.5503,,58,58,,,,,,,,,,,,,,,,bars/030.png,bars/mask005.png,,,,,,,,,,,,6,2,,,,,,,2,8,1,8,,,,,,,,,,,1539.8008,1540.2997,1540.5503,1545.8698,space,5.3024,,1545.8698,82,7,1546.8688,1546.8689,1550.4529,space,3.5657,,0,49,49,49,1,140,65,,,,,,,,
,,6545ffdbc2a670fa09573950,65af5643dc8991f4776b9f1a,2024-01-23_16h03.18.992,bars,2023.2.3,MacIntel,59.88023952,657b66ea316d21385b68909f,,,,,,,,,,,,,,,,,,,,,,,,,,,,,,,,,,,,,,,,,,,,,,,,,,,,,,,,,,,,,,,,,,,,,,,,,,,,,,,,,,,,,,,,,,,,,1550.465,1610.4672,0,0,0,2,1,sequence_tables/blk012.csv
,,6545ffdbc2a670fa09573950,65af5643dc8991f4776b9f1a,2024-01-23_16h03.18.992,bars,2023.2.3,MacIntel,59.88023952,657b66ea316d21385b68909f,,,,,,,,,,,2355.4415,2356.4193,,,2356.9205,2357.1688,,47,47,,,,,,,,,,,,,,,,bars/008.png,bars/mask004.png,,,,,,,,,,,,0,2,,,,,,,2,8,2,9,,,,,,1610.4752,2355.4193,space,744.9202,,2356.4193,2356.9204,2357.1688,2362.1356,space,4.9516,,2362.1356,63,47,2363.139,2363.1391,2363.1395,,,,0,0,0,0,1,110,0,,,,,,,,
,,6545ffdbc2a670fa09573950,65af5643dc8991f4776b9f1a,2024-01-23_16h03.18.992,bars,2023.2.3,MacIntel,59.88023952,657b66ea316d21385b68909f,,,,,,,,,,,2363.1396,2364.1376,,,2364.6369,2364.8884,,57,57,,,,,,,,,,,,,,,,bars/031.png,bars/mask006.png,,,,,,,,,,,,3,2,,,,,,,4,10,5,10,,,,,,,,,,,2364.1376,2364.6369,2364.8885,2367.9528,space,3.0573,,2367.9529,63,22,2368.9528,2368.9528,2368.9609,,,,0,1,1,1,1,120,35,,,,,,,,
,,6545ffdbc2a670fa09573950,65af5643dc8991f4776b9f1a,2024-01-23_16h03.18.992,bars,2023.2.3,MacIntel,59.88023952,657b66ea316d21385b68909f,,,,,,,,,,,2368.961,2369.9547,,,2370.4535,2370.7036,,121,121,,,,,,,,,,,,,,,,bars/011.png,bars/mask003.png,,,,,,,,,,,,0,2,,,,,,,6,8,7,7,,,,,,,,,,,2369.9547,2370.4535,2370.7036,2373.1716,space,2.4514,,2373.1716,39,36,2374.1694,2374.1694,2374.1774,,,,0,2,2,2,1,160,85,,,,,,,,
,,6545ffdbc2a670fa09573950,65af5643dc8991f4776b9f1a,2024-01-23_16h03.18.992,bars,2023.2.3,MacIntel,59.88023952,657b66ea316d21385b68909f,,,,,,,,,,,2374.1775,2375.1715,,,2375.6699,2375.9217,,42,42,,,,,,,,,,,,,,,,bars/006.png,bars/mask001.png,,,,,,,,,,,,5,1,,,,,,,8,10,7,9,,,,,,,,,,,2375.1715,2375.6698,2375.9217,2379.589,space,3.6485,,2379.589,7,58,2380.5861,2380.5861,2380.6028,,,,0,3,3,3,1,35,100,,,,,,,,
,,6545ffdbc2a670fa09573950,65af5643dc8991f4776b9f1a,2024-01-23_16h03.18.992,bars,2023.2.3,MacIntel,59.88023952,657b66ea316d21385b68909f,,,,,,,,,,,2380.6029,2381.6024,,,2382.1023,2382.3529,,179,179,,,,,,,,,,,,,,,,bars/043.png,bars/mask005.png,,,,,,,,,,,,0,1,,,,,,,10,8,10,7,,,,,,,,,,,2381.6024,2382.1022,2382.3529,2383.5384,space,1.1744,,2383.5384,31,49,2384.538,2384.5381,2384.5385,,,,0,4,4,4,1,30,130,,,,,,,,
,,6545ffdbc2a670fa09573950,65af5643dc8991f4776b9f1a,2024-01-23_16h03.18.992,bars,2023.2.3,MacIntel,59.88023952,657b66ea316d21385b68909f,,,,,,,,,,,2384.5386,2385.5361,,,2386.0359,2386.2862,,29,29,,,,,,,,,,,,,,,,bars/019.png,bars/mask006.png,,,,,,,,,,,,4,1,,,,,,,8,6,9,5,,,,,,,,,,,2385.5361,2386.0359,2386.2862,2389.5199,space,3.2257,,2389.52,16,76,2390.5194,2390.5195,2390.5275,,,,0,5,5,5,1,45,105,,,,,,,,
,,6545ffdbc2a670fa09573950,65af5643dc8991f4776b9f1a,2024-01-23_16h03.18.992,bars,2023.2.3,MacIntel,59.88023952,657b66ea316d21385b68909f,,,,,,,,,,,2390.5276,2391.5201,,,2392.0204,2392.2694,,130,130,,,,,,,,,,,,,,,,bars/007.png,bars/mask009.png,,,,,,,,,,,,0,1,,,,,,,6,4,5,5,,,,,,,,,,,2391.5202,2392.0204,2392.2695,2395.2527,space,2.9689,,2395.2527,45,75,2396.2536,2396.2537,2396.2617,,,,0,6,6,6,1,175,55,,,,,,,,
,,6545ffdbc2a670fa09573950,65af5643dc8991f4776b9f1a,2024-01-23_16h03.18.992,bars,2023.2.3,MacIntel,59.88023952,657b66ea316d21385b68909f,,,,,,,,,,,2396.2619,2397.2546,,,2397.754,2398.0039,,140,140,,,,,,,,,,,,,,,,bars/006.png,bars/mask006.png,,,,,,,,,,,,0,2,,,,,,,8,2,7,1,,,,,,,,,,,2397.2547,2397.754,2398.0039,2400.3046,space,2.2906,,2400.3046,75,40,2401.3036,2401.3036,2401.3051,,,,0,7,7,7,1,35,100,,,,,,,,
,,6545ffdbc2a670fa09573950,65af5643dc8991f4776b9f1a,2024-01-23_16h03.18.992,bars,2023.2.3,MacIntel,59.88023952,657b66ea316d21385b68909f,,,,,,,,,,,2401.3053,2402.3029,,,2402.8038,2403.0551,,138,138,,,,,,,,,,,,,,,,bars/007.png,bars/mask007.png,,,,,,,,,,,,0,1,,,,,,,6,0,6,0,,,,,,,,,,,2402.3029,2402.8038,2403.0551,2407.3564,space,4.2894,,2407.3564,37,83,2408.355,2408.3551,2408.3636,,,,0,8,8,8,1,175,55,,,,,,,,
,,6545ffdbc2a670fa09573950,65af5643dc8991f4776b9f1a,2024-01-23_16h03.18.992,bars,2023.2.3,MacIntel,59.88023952,657b66ea316d21385b68909f,,,,,,,,,,,2408.3637,2409.3537,,,2409.8552,2410.1028,,98,98,,,,,,,,,,,,,,,,bars/047.png,bars/mask000.png,,,,,,,,,,,,0,2,,,,,,,4,2,4,0,,,,,,,,,,,2409.3537,2409.8551,2410.1029,2413.2363,space,3.1167,,2413.2363,83,28,2414.237,2414.237,2414.2456,,,,0,9,9,9,1,15,70,,,,,,,,
,,6545ffdbc2a670fa09573950,65af5643dc8991f4776b9f1a,2024-01-23_16h03.18.992,bars,2023.2.3,MacIntel,59.88023952,657b66ea316d21385b68909f,,,,,,,,,,,2414.2458,2415.2383,,,2415.7362,2415.9831,,38,38,,,,,,,,,,,,,,,,bars/032.png,bars/mask009.png,,,,,,,,,,,,2,2,,,,,,,2,4,3,4,,,,,,,,,,,2415.2383,2415.7362,2415.9831,2419.1226,space,3.0838,,2419.1226,87,18,2420.1217,2420.1217,2420.1299,,,,0,10,10,10,1,125,20,,,,,,,,
,,6545ffdbc2a670fa09573950,65af5643dc8991f4776b9f1a,2024-01-23_16h03.18.992,bars,2023.2.3,MacIntel,59.88023952,657b66ea316d21385b68909f,,,,,,,,,,,2420.1301,2421.1203,,,2421.6197,2421.8697,,161,161,,,,,,,,,,,,,,,,bars/036.png,bars/mask005.png,,,,,,,,,,,,2,1,,,,,,,4,6,5,6,,,,,,,,,,,2421.1203,2421.6196,2421.8698,2440.2692,space,18.385,,2440.2692,16,39,2441.2704,2441.2704,2441.2796,,,,0,11,11,11,1,145,20,,,,,,,,
,,6545ffdbc2a670fa09573950,65af5643dc8991f4776b9f1a,2024-01-23_16h03.18.992,bars,2023.2.3,MacIntel,59.88023952,657b66ea316d21385b68909f,,,,,,,,,,,2441.2798,2442.2691,,,2442.7705,2443.0202,,62,62,,,,,,,,,,,,,,,,bars/045.png,bars/mask006.png,,,,,,,,,,,,0,1,,,,,,,2,4,3,3,,,,,,,,,,,2442.2692,2442.7705,2443.0203,2443.4862,space,0.4605,,2443.4862,38,52,2444.4867,2444.4867,2444.4871,,,,0,12,12,12,1,100,10,,,,,,,,
,,6545ffdbc2a670fa09573950,65af5643dc8991f4776b9f1a,2024-01-23_16h03.18.992,bars,2023.2.3,MacIntel,59.88023952,657b66ea316d21385b68909f,,,,,,,,,,,2444.4873,2445.4864,,,2445.9889,2446.2363,,157,157,,,,,,,,,,,,,,,,bars/048.png,bars/mask004.png,,,,,,,,,,,,2,2,,,,,,,4,6,2,5,,,,,,,,,,,2445.4864,2445.9889,2446.2363,2448.5862,space,2.3335,,2448.5863,73,18,2449.5873,2449.5873,2449.5974,,,,0,13,13,13,1,50,175,,,,,,,,
,,6545ffdbc2a670fa09573950,65af5643dc8991f4776b9f1a,2024-01-23_16h03.18.992,bars,2023.2.3,MacIntel,59.88023952,657b66ea316d21385b68909f,,,,,,,,,,,2449.5977,2450.5865,,,2451.0885,2451.3364,,108,108,,,,,,,,,,,,,,,,bars/039.png,bars/mask001.png,,,,,,,,,,,,9,2,,,,,,,2,8,2,10,,,,,,,,,,,2450.5865,2451.0885,2451.3364,2454.9045,space,3.5518,,2454.9045,67,3,2455.9036,2455.9036,2455.9041,,,,0,14,14,14,1,175,105,,,,,,,,
,,6545ffdbc2a670fa09573950,65af5643dc8991f4776b9f1a,2024-01-23_16h03.18.992,bars,2023.2.3,MacIntel,59.88023952,657b66ea316d21385b68909f,,,,,,,,,,,2455.9042,2456.9033,,,2457.4029,2457.653,,29,29,,,,,,,,,,,,,,,,bars/013.png,bars/mask004.png,,,,,,,,,,,,2,2,,,,,,,0,6,0,5,,,,,,,,,,,2456.9033,2457.4029,2457.6531,2461.9706,space,4.3121,,2461.9707,46,19,2462.9693,2462.9693,2462.9782,,,,0,15,15,15,1,75,10,,,,,,,,
,,6545ffdbc2a670fa09573950,65af5643dc8991f4776b9f1a,2024-01-23_16h03.18.992,bars,2023.2.3,MacIntel,59.88023952,657b66ea316d21385b68909f,,,,,,,,,,,2462.9784,2463.9691,,,2464.4697,2464.7198,,143,143,,,,,,,,,,,,,,,,bars/033.png,bars/mask007.png,,,,,,,,,,,,2,2,,,,,,,2,4,1,3,,,,,,,,,,,2463.9692,2464.4697,2464.7199,2480.9032,space,16.1672,,2480.9032,62,12,2481.9031,2481.9031,2481.9113,,,,0,16,16,16,1,25,155,,,,,,,,
,,6545ffdbc2a670fa09573950,65af5643dc8991f4776b9f1a,2024-01-23_16h03.18.992,bars,2023.2.3,MacIntel,59.88023952,657b66ea316d21385b68909f,,,,,,,,,,,2481.9114,2482.9036,,,2483.4026,2483.653,,81,81,,,,,,,,,,,,,,,,bars/002.png,bars/mask007.png,,,,,,,,,,,,4,2,,,,,,,4,6,3,5,,,,,,,,,,,2482.9036,2483.4026,2483.6531,2485.2697,space,1.6005,,2485.2698,49,4,2486.1766,2486.1766,2486.1888,,,,0,17,17,17,1,130,85,,,,,,,,
,,6545ffdbc2a670fa09573950,65af5643dc8991f4776b9f1a,2024-01-23_16h03.18.992,bars,2023.2.3,MacIntel,59.88023952,657b66ea316d21385b68909f,,,,,,,,,,,2486.189,2487.1872,,,2487.6846,2487.9382,,177,177,,,,,,,,,,,,,,,,bars/008.png,bars/mask009.png,,,,,,,,,,,,3,2,,,,,,,2,4,2,3,,,,,,,,,,,2487.1872,2487.6846,2487.9382,2497.7704,space,9.817,,2497.7704,67,3,2498.7707,2498.7707,2498.7791,,,,0,18,18,18,1,110,0,,,,,,,,
,,6545ffdbc2a670fa09573950,65af5643dc8991f4776b9f1a,2024-01-23_16h03.18.992,bars,2023.2.3,MacIntel,59.88023952,657b66ea316d21385b68909f,,,,,,,,,,,2498.7792,2499.7696,,,2500.2721,2500.5204,,100,100,,,,,,,,,,,,,,,,bars/011.png,bars/mask006.png,,,,,,,,,,,,1,2,,,,,,,0,2,0,1,,,,,,,,,,,2499.7698,2500.2721,2500.5204,2501.7199,space,1.1919,,2501.7199,60,15,2502.7201,2502.7201,2502.7205,,,,0,19,19,19,1,160,85,,,,,,,,
,,6545ffdbc2a670fa09573950,65af5643dc8991f4776b9f1a,2024-01-23_16h03.18.992,bars,2023.2.3,MacIntel,59.88023952,657b66ea316d21385b68909f,,,,,,,,,,,2502.7208,2503.7454,,,2504.2363,2504.4867,,45,45,,,,,,,,,,,,,,,,bars/027.png,bars/mask002.png,,,,,,,,,,,,0,2,,,,,,,2,0,1,0,,,,,,,,,,,2503.7454,2504.2363,2504.4867,2516.3035,space,11.8046,,2516.3036,65,5,2517.3034,2517.3034,2517.3122,,,,0,20,20,20,1,110,50,,,,,,,,
,,6545ffdbc2a670fa09573950,65af5643dc8991f4776b9f1a,2024-01-23_16h03.18.992,bars,2023.2.3,MacIntel,59.88023952,657b66ea316d21385b68909f,,,,,,,,,,,2517.3122,2518.3033,,,2518.8035,2519.0555,,102,102,,,,,,,,,,,,,,,,bars/042.png,bars/mask009.png,,,,,,,,,,,,0,2,,,,,,,0,2,0,3,,,,,,,,,,,2518.3033,2518.8035,2519.0555,2551.77,space,32.7096,,2551.7701,43,27,2552.7711,2552.7711,2552.7716,,,,0,21,21,21,1,145,75,,,,,,,,
,,6545ffdbc2a670fa09573950,65af5643dc8991f4776b9f1a,2024-01-23_16h03.18.992,bars,2023.2.3,MacIntel,59.88023952,657b66ea316d21385b68909f,,,,,,,,,,,2552.7718,2553.771,,,2554.27,2554.52,,83,83,,,,,,,,,,,,,,,,bars/001.png,bars/mask002.png,,,,,,,,,,,,2,2,,,,,,,0,0,0,2,,,,,,,,,,,2553.771,2554.27,2554.52,2573.9879,space,19.4525,,2573.988,47,2,2574.9883,2574.9883,2574.9968,,,,0,22,22,22,1,130,85,,,,,,,,
,,6545ffdbc2a670fa09573950,65af5643dc8991f4776b9f1a,2024-01-23_16h03.18.992,bars,2023.2.3,MacIntel,59.88023952,657b66ea316d21385b68909f,,,,,,,,,,,2574.997,2575.9876,,,2576.4869,2576.7376,,120,120,,,,,,,,,,,,,,,,bars/014.png,bars/mask001.png,,,,,,,,,,,,0,1,,,,,,,0,0,2,1,,,,,,,,,,,2575.9876,2576.4869,2576.7376,2577.5536,space,0.8075,,2577.5536,40,60,2578.5538,2578.5538,2578.5552,,,,0,23,23,23,1,80,0,,,,,,,,
,,6545ffdbc2a670fa09573950,65af5643dc8991f4776b9f1a,2024-01-23_16h03.18.992,bars,2023.2.3,MacIntel,59.88023952,657b66ea316d21385b68909f,,,,,,,,,,,2578.5554,2579.554,,,2580.0531,2580.3087,,53,53,,,,,,,,,,,,,,,,bars/025.png,bars/mask002.png,,,,,,,,,,,,1,2,,,,,,,0,0,0,2,,,,,,,,,,,2579.554,2580.053,2580.3088,2582.0396,space,1.7201,,2582.0396,52,13,2583.039,2583.0391,2583.0478,,,,0,24,24,24,1,105,40,,,,,,,,
,,6545ffdbc2a670fa09573950,65af5643dc8991f4776b9f1a,2024-01-23_16h03.18.992,bars,2023.2.3,MacIntel,59.88023952,657b66ea316d21385b68909f,,,,,,,,,,,2583.0481,2584.0372,,,2584.537,2584.7869,,21,21,,,,,,,,,,,,,,,,bars/014.png,bars/mask002.png,,,,,,,,,,,,0,2,,,,,,,0,0,0,0,,,,,,,,,,,2584.0373,2584.537,2584.7869,2585.4379,space,0.6383,,2585.4379,59,21,2586.4371,2586.4371,2586.4377,,,,0,25,25,25,1,80,0,,,,,,,,
,,6545ffdbc2a670fa09573950,65af5643dc8991f4776b9f1a,2024-01-23_16h03.18.992,bars,2023.2.3,MacIntel,59.88023952,657b66ea316d21385b68909f,,,,,,,,,,,2586.4379,2587.4369,,,2587.9371,2588.1869,,52,52,,,,,,,,,,,,,,,,bars/036.png,bars/mask001.png,,,,,,,,,,,,0,2,,,,,,,2,0,3,0,,,,,,,,,,,2587.437,2587.9371,2588.1869,2588.2223,space,0.0171,,2588.2223,87,32,2589.2208,2589.2209,2589.2215,,,,0,26,26,26,1,145,20,,,,,,,,
,,6545ffdbc2a670fa09573950,65af5643dc8991f4776b9f1a,2024-01-23_16h03.18.992,bars,2023.2.3,MacIntel,59.88023952,657b66ea316d21385b68909f,,,,,,,,,,,2589.2217,2590.2213,,,2590.7204,2590.9697,,142,142,,,,,,,,,,,,,,,,bars/014.png,bars/mask004.png,,,,,,,,,,,,0,2,,,,,,,4,2,5,1,,,,,,,,,,,2590.2213,2590.7204,2590.9697,2591.737,space,0.7563,,2591.737,62,38,2592.7408,2592.7409,2592.7414,,,,0,27,27,27,1,80,0,,,,,,,,
,,6545ffdbc2a670fa09573950,65af5643dc8991f4776b9f1a,2024-01-23_16h03.18.992,bars,2023.2.3,MacIntel,59.88023952,657b66ea316d21385b68909f,,,,,,,,,,,2592.7417,2593.7365,,,2594.2372,2594.4865,,99,99,,,,,,,,,,,,,,,,bars/009.png,bars/mask004.png,,,,,,,,,,,,3,2,,,,,,,6,4,7,4,,,,,,,,,,,2593.7365,2594.2372,2594.4865,2595.2231,space,0.7186,,2595.2232,84,6,2596.2209,2596.2209,2596.2214,,,,0,28,28,28,1,15,105,,,,,,,,
,,6545ffdbc2a670fa09573950,65af5643dc8991f4776b9f1a,2024-01-23_16h03.18.992,bars,2023.2.3,MacIntel,59.88023952,657b66ea316d21385b68909f,,,,,,,,,,,2596.2216,2597.2211,,,2597.7204,2597.9703,,163,163,,,,,,,,,,,,,,,,bars/049.png,bars/mask005.png,,,,,,,,,,,,4,1,,,,,,,4,2,4,3,,,,,,,,,,,2597.2211,2597.7204,2597.9703,2600.5061,space,2.5185,,2600.5061,3,48,2601.5045,2601.5045,2601.513,,,,0,29,29,29,1,160,115,,,,,,,,
,,6545ffdbc2a670fa09573950,65af5643dc8991f4776b9f1a,2024-01-23_16h03.18.992,bars,2023.2.3,MacIntel,59.88023952,657b66ea316d21385b68909f,,,,,,,,,,,2601.5131,2602.5068,,,2603.0036,2603.2566,,167,167,,,,,,,,,,,,,,,,bars/015.png,bars/mask002.png,,,,,,,,,,,,0,2,,,,,,,6,0,8,0,,,,,,,,,,,2602.5068,2603.0036,2603.2566,2604.6705,space,1.3986,,2604.6705,57,7,2605.6725,2605.6725,2605.6814,,,,0,30,30,30,1,110,160,,,,,,,,
,,6545ffdbc2a670fa09573950,65af5643dc8991f4776b9f1a,2024-01-23_16h03.18.992,bars,2023.2.3,MacIntel,59.88023952,657b66ea316d21385b68909f,,,,,,,,,,,2605.6816,2606.6706,,,2607.1704,2607.4211,,159,159,,,,,,,,,,,,,,,,bars/046.png,bars/mask008.png,,,,,,,,,,,,4,1,,,,,,,4,2,5,3,,,,,,,,,,,2606.6706,2607.1704,2607.4211,2609.0227,space,1.5851,,2609.0227,4,74,2610.0201,2610.0202,2610.0216,,,,0,31,31,31,1,155,85,,,,,,,,
,,6545ffdbc2a670fa09573950,65af5643dc8991f4776b9f1a,2024-01-23_16h03.18.992,bars,2023.2.3,MacIntel,59.88023952,657b66ea316d21385b68909f,,,,,,,,,,,2610.0219,2611.0214,,,2611.5204,2611.7698,,149,149,,,,,,,,,,,,,,,,bars/017.png,bars/mask000.png,,,,,,,,,,,,1,1,,,,,,,2,4,1,4,,,,,,,,,,,2611.0215,2611.5204,2611.7699,2621.9371,space,10.1518,,2621.9372,4,76,2622.9363,2622.9363,2622.9459,,,,0,32,32,32,1,145,45,,,,,,,,
,,6545ffdbc2a670fa09573950,65af5643dc8991f4776b9f1a,2024-01-23_16h03.18.992,bars,2023.2.3,MacIntel,59.88023952,657b66ea316d21385b68909f,,,,,,,,,,,2622.946,2623.9367,,,2624.4854,2624.7036,,128,128,,,,,,,,,,,,,,,,bars/038.png,bars/mask009.png,,,,,,,,,,,,0,1,,,,,,,4,2,4,1,,,,,,,,,,,2623.9368,2624.4854,2624.7036,2629.1534,space,4.4341,,2629.1534,37,58,2630.1567,2630.1567,2630.1649,,,,0,33,33,33,1,165,70,,,,,,,,
,,6545ffdbc2a670fa09573950,65af5643dc8991f4776b9f1a,2024-01-23_16h03.18.992,bars,2023.2.3,MacIntel,59.88023952,657b66ea316d21385b68909f,,,,,,,,,,,2630.1649,2631.1559,,,2631.6547,2631.9046,,68,68,,,,,,,,,,,,,,,,bars/000.png,bars/mask000.png,,,,,,,,,,,,0,1,,,,,,,2,4,4,5,,,,,,,,,,,2631.1559,2631.6547,2631.9046,2653.3129,space,21.403,,2653.3129,28,77,2654.3063,2654.3064,2654.3184,,,,0,34,34,34,1,40,145,,,,,,,,
,,6545ffdbc2a670fa09573950,65af5643dc8991f4776b9f1a,2024-01-23_16h03.18.992,bars,2023.2.3,MacIntel,59.88023952,657b66ea316d21385b68909f,,,,,,,,,,,2654.3187,2655.3114,,,2655.8037,2656.0614,,115,115,,,,,,,,,,,,,,,,bars/049.png,bars/mask008.png,,,,,,,,,,,,6,2,,,,,,,4,6,5,6,,,,,,,,,,,2655.3114,2655.8037,2656.0615,2657.539,space,1.4628,,2657.5405,45,0,2658.5338,2658.5338,2658.5517,,,,0,35,35,35,1,160,115,,,,,,,,
,,6545ffdbc2a670fa09573950,65af5643dc8991f4776b9f1a,2024-01-23_16h03.18.992,bars,2023.2.3,MacIntel,59.88023952,657b66ea316d21385b68909f,,,,,,,,,,,2658.5519,2659.5535,,,2660.0473,2660.3139,,51,51,,,,,,,,,,,,,,,,bars/037.png,bars/mask008.png,,,,,,,,,,,,0,2,,,,,,,6,4,6,4,,,,,,,,,,,2659.5535,2660.0473,2660.314,2662.6188,space,2.295,,2662.6207,81,54,2663.6264,2663.6264,2663.6373,,,,0,36,36,36,1,150,105,,,,,,,,
,,6545ffdbc2a670fa09573950,65af5643dc8991f4776b9f1a,2024-01-23_16h03.18.992,bars,2023.2.3,MacIntel,59.88023952,657b66ea316d21385b68909f,,,,,,,,,,,2663.6374,2664.6388,,,2665.1367,2665.4871,,171,171,,,,,,,,,,,,,,,,bars/020.png,bars/mask002.png,,,,,,,,,,,,2,2,,,,,,,8,2,9,2,,,,,,,,,,,2664.6388,2665.1367,2665.4871,2671.338,space,5.8258,,2671.3381,56,1,2672.3317,2672.3318,2672.369,,,,0,37,37,37,1,115,170,,,,,,,,
,,6545ffdbc2a670fa09573950,65af5643dc8991f4776b9f1a,2024-01-23_16h03.18.992,bars,2023.2.3,MacIntel,59.88023952,657b66ea316d21385b68909f,,,,,,,,,,,2672.3692,2673.3426,,,2673.8379,2674.0872,,94,94,,,,,,,,,,,,,,,,bars/016.png,bars/mask009.png,,,,,,,,,,,,0,1,,,,,,,10,4,7,4,,,,,,,,,,,2673.3426,2673.8378,2674.0872,2677.2038,space,3.1005,,2677.2038,54,71,2678.2037,2678.2037,2678.2154,,,,0,38,38,38,1,40,165,,,,,,,,
,,6545ffdbc2a670fa09573950,65af5643dc8991f4776b9f1a,2024-01-23_16h03.18.992,bars,2023.2.3,MacIntel,59.88023952,657b66ea316d21385b68909f,,,,,,,,,,,2678.2156,2679.2044,,,2679.7035,2679.9545,,141,141,,,,,,,,,,,,,,,,bars/045.png,bars/mask006.png,,,,,,,,,,,,0,1,,,,,,,10,6,10,5,,,,,,,,,,,2679.2044,2679.7035,2679.9545,2682.0564,space,2.0887,,2682.0564,41,49,2683.054,2683.054,2683.0619,,,,0,39,39,39,1,100,10,,,,,,,,
,,6545ffdbc2a670fa09573950,65af5643dc8991f4776b9f1a,2024-01-23_16h03.18.992,bars,2023.2.3,MacIntel,59.88023952,657b66ea316d21385b68909f,,,,,,,,,,,2683.0621,2684.0532,,,2684.5549,2684.8046,,89,89,,,,,,,,,,,,,,,,bars/016.png,bars/mask000.png,,,,,,,,,,,,0,1,,,,,,,8,4,10,4,,,,,,,,,,,2684.0533,2684.5548,2684.8047,2686.722,space,1.8991,,2686.722,49,76,2687.7205,2687.7205,2687.7212,,,,0,40,40,40,1,40,165,,,,,,,,
,,6545ffdbc2a670fa09573950,65af5643dc8991f4776b9f1a,2024-01-23_16h03.18.992,bars,2023.2.3,MacIntel,59.88023952,657b66ea316d21385b68909f,,,,,,,,,,,2687.7215,2688.7206,,,2689.2212,2689.4708,,34,34,,,,,,,,,,,,,,,,bars/005.png,bars/mask001.png,,,,,,,,,,,,2,1,,,,,,,10,2,10,2,,,,,,,,,,,2688.7206,2689.2211,2689.4708,2690.3891,space,0.9083,,2690.3891,24,74,2691.388,2691.388,2691.3884,,,,0,41,41,41,1,10,140,,,,,,,,
,,6545ffdbc2a670fa09573950,65af5643dc8991f4776b9f1a,2024-01-23_16h03.18.992,bars,2023.2.3,MacIntel,59.88023952,657b66ea316d21385b68909f,,,,,,,,,,,2691.3886,2692.3872,,,2692.8868,2693.1378,,109,109,,,,,,,,,,,,,,,,bars/016.png,bars/mask003.png,,,,,,,,,,,,0,2,,,,,,,10,0,10,0,,,,,,,,,,,2692.3873,2692.8868,2693.1378,2697.1364,space,3.9927,,2697.1364,69,56,2698.1378,2698.1378,2698.1475,,,,0,42,42,42,1,40,165,,,,,,,,
,,6545ffdbc2a670fa09573950,65af5643dc8991f4776b9f1a,2024-01-23_16h03.18.992,bars,2023.2.3,MacIntel,59.88023952,657b66ea316d21385b68909f,,,,,,,,,,,2698.1476,2699.1374,,,2699.6377,2699.8882,,7,7,,,,,,,,,,,,,,,,bars/037.png,bars/mask000.png,,,,,,,,,,,,0,1,,,,,,,8,0,8,1,,,,,,,,,,,2699.1374,2699.6377,2699.8882,2714.0399,space,14.1334,,2714.04,37,82,2715.0379,2715.038,2715.0486,,,,0,43,43,43,1,150,105,,,,,,,,
,,6545ffdbc2a670fa09573950,65af5643dc8991f4776b9f1a,2024-01-23_16h03.18.992,bars,2023.2.3,MacIntel,59.88023952,657b66ea316d21385b68909f,,,,,,,,,,,2715.0489,2716.0372,,,2716.5372,2716.7903,,119,119,,,,,,,,,,,,,,,,bars/000.png,bars/mask004.png,,,,,,,,,,,,0,2,,,,,,,10,2,10,0,,,,,,,,,,,2716.0373,2716.5372,2716.7903,2717.7208,space,0.9175,,2717.7208,79,26,2718.7225,2718.7225,2718.7236,,,,0,44,44,44,1,40,145,,,,,,,,
,,6545ffdbc2a670fa09573950,65af5643dc8991f4776b9f1a,2024-01-23_16h03.18.992,bars,2023.2.3,MacIntel,59.88023952,657b66ea316d21385b68909f,,,,,,,,,,,2718.7237,2719.7206,,,2720.2231,2720.4705,,127,127,,,,,,,,,,,,,,,,bars/049.png,bars/mask004.png,,,,,,,,,,,,2,2,,,,,,,10,4,10,4,,,,,,,,,,,2719.7206,2720.223,2720.4706,2721.504,space,1.027,,2721.504,33,12,2722.5052,2722.5052,2722.5056,,,,0,45,45,45,1,160,115,,,,,,,,
,,6545ffdbc2a670fa09573950,65af5643dc8991f4776b9f1a,2024-01-23_16h03.18.992,bars,2023.2.3,MacIntel,59.88023952,657b66ea316d21385b68909f,,,,,,,,,,,2722.5057,2723.5035,,,2724.004,2724.2553,,34,34,,,,,,,,,,,,,,,,bars/030.png,bars/mask000.png,,,,,,,,,,,,0,2,,,,,,,8,6,9,5,,,,,,,,,,,2723.5035,2724.004,2724.2554,2741.0564,space,16.7861,,2741.0564,74,31,2742.0546,2742.0546,2742.0646,,,,0,46,46,46,1,140,65,,,,,,,,
,,6545ffdbc2a670fa09573950,65af5643dc8991f4776b9f1a,2024-01-23_16h03.18.992,bars,2023.2.3,MacIntel,59.88023952,657b66ea316d21385b68909f,,,,,,,,,,,2742.0648,2743.0541,,,2744.0424,2744.0434,,120,120,,,,,,,,,,,,,,,,bars/048.png,bars/mask001.png,,,,,,,,,,,,0,2,,,,,,,10,8,9,8,,,,,,,,,,,2743.0541,2744.0424,2744.0435,2746.3885,space,2.326,,2746.3885,70,55,2747.3873,2747.3874,2747.3978,,,,0,47,47,47,1,50,175,,,,,,,,
,,6545ffdbc2a670fa09573950,65af5643dc8991f4776b9f1a,2024-01-23_16h03.18.992,bars,2023.2.3,MacIntel,59.88023952,657b66ea316d21385b68909f,,,,,,,,,,,2747.3982,2748.3875,,,2748.8885,2749.1383,,132,132,,,,,,,,,,,,,,,,bars/025.png,bars/mask000.png,,,,,,,,,,,,1,1,,,,,,,10,6,10,7,,,,,,,,,,,2748.3875,2748.8885,2749.1383,2771.9387,space,22.7853,,2771.9388,27,88,2772.9392,2772.9392,2772.9482,,,,0,48,48,48,1,105,40,,,,,,,,
,,6545ffdbc2a670fa09573950,65af5643dc8991f4776b9f1a,2024-01-23_16h03.18.992,bars,2023.2.3,MacIntel,59.88023952,657b66ea316d21385b68909f,,,,,,,,,,,2772.9483,2773.9375,,,2774.4375,2774.6875,,17,17,,,,,,,,,,,,,,,,bars/011.png,bars/mask009.png,,,,,,,,,,,,0,1,,,,,,,8,8,9,9,,,,,,,,,,,2773.9376,2774.4375,2774.6875,2799.7546,space,25.0558,,2799.7546,37,68,2800.7543,2800.7544,2800.7629,,,,0,49,49,49,1,160,85,,,,,,,,
,,6545ffdbc2a670fa09573950,65af5643dc8991f4776b9f1a,2024-01-23_16h03.18.992,bars,2023.2.3,MacIntel,59.88023952,657b66ea316d21385b68909f,,,,,,,,,,,,,,,,,,,,,,,,,,,,,,,,,,,,,,,,,,,,,,,,,,,,,,,,,,,,,,,,,,,,,,,,,,,,,,,,,,,,,,,,,,,,,2800.7631,2860.7554,0,1,1,1,1,sequence_tables/blk038.csv
,,6545ffdbc2a670fa09573950,65af5643dc8991f4776b9f1a,2024-01-23_16h03.18.992,bars,2023.2.3,MacIntel,59.88023952,657b66ea316d21385b68909f,,,,,,,,,,,2972.2877,2973.2974,,,2973.7711,2974.0222,,60,60,,,,,,,,,,,,,,,,bars/002.png,bars/mask008.png,,,,,,,,,,,,0,2,,,,,,,4,1,3,0,,,,,,2860.7636,2972.2698,space,111.4991,,2973.2974,2973.7711,2974.0222,2975.1384,space,1.105,,2975.1385,70,25,2976.1381,2976.1381,2976.1548,,,,0,0,0,0,1,130,85,,,,,,,,
,,6545ffdbc2a670fa09573950,65af5643dc8991f4776b9f1a,2024-01-23_16h03.18.992,bars,2023.2.3,MacIntel,59.88023952,657b66ea316d21385b68909f,,,,,,,,,,,2976.155,2977.1555,,,2977.6531,2977.9044,,68,68,,,,,,,,,,,,,,,,bars/034.png,bars/mask002.png,,,,,,,,,,,,0,2,,,,,,,6,0,5,0,,,,,,,,,,,2977.1555,2977.6531,2977.9044,2986.3058,space,8.3914,,2986.3058,57,3,2987.3064,2987.3065,2987.3166,,,,0,1,1,1,1,125,65,,,,,,,,
,,6545ffdbc2a670fa09573950,65af5643dc8991f4776b9f1a,2024-01-23_16h03.18.992,bars,2023.2.3,MacIntel,59.88023952,657b66ea316d21385b68909f,,,,,,,,,,,2987.3167,2988.3055,,,2988.8044,2989.0558,,153,153,,,,,,,,,,,,,,,,bars/007.png,bars/mask004.png,,,,,,,,,,,,1,1,,,,,,,4,0,4,3,,,,,,,,,,,2988.3056,2988.8044,2989.0559,3010.9731,space,21.898,,3010.9731,22,82,3011.9739,3011.9739,3011.9859,,,,0,2,2,2,1,175,55,,,,,,,,
,,6545ffdbc2a670fa09573950,65af5643dc8991f4776b9f1a,2024-01-23_16h03.18.992,bars,2023.2.3,MacIntel,59.88023952,657b66ea316d21385b68909f,,,,,,,,,,,3011.9861,3012.991,,,3013.4894,3013.7396,,172,172,,,,,,,,,,,,,,,,bars/030.png,bars/mask009.png,,,,,,,,,,,,0,1,,,,,,,2,2,3,1,,,,,,,,,,,3012.9911,3013.4894,3013.7396,3014.6879,space,0.9336,,3014.688,32,73,3015.689,3015.689,3015.6894,,,,0,3,3,3,1,140,65,,,,,,,,
,,6545ffdbc2a670fa09573950,65af5643dc8991f4776b9f1a,2024-01-23_16h03.18.992,bars,2023.2.3,MacIntel,59.88023952,657b66ea316d21385b68909f,,,,,,,,,,,3015.6896,3016.6884,,,3017.1887,3017.4229,,33,33,,,,,,,,,,,,,,,,bars/028.png,bars/mask006.png,,,,,,,,,,,,2,1,,,,,,,4,4,4,4,,,,,,,,,,,3016.6885,3017.1887,3017.4229,3057.8724,space,40.4293,,3057.8725,12,87,3058.8721,3058.8722,3058.8819,,,,0,4,4,4,1,45,120,,,,,,,,
,,6545ffdbc2a670fa09573950,65af5643dc8991f4776b9f1a,2024-01-23_16h03.18.992,bars,2023.2.3,MacIntel,59.88023952,657b66ea316d21385b68909f,,,,,,,,,,,3058.882,3059.872,,,3060.3972,3060.6384,,118,118,,,,,,,,,,,,,,,,bars/009.png,bars/mask004.png,,,,,,,,,,,,3,2,,,,,,,2,6,2,6,,,,,,,,,,,3059.872,3060.3972,3060.6384,3085.5583,space,24.9014,,3085.5583,77,13,3086.5553,3086.5553,3086.5653,,,,0,5,5,5,1,15,105,,,,,,,,
,,6545ffdbc2a670fa09573950,65af5643dc8991f4776b9f1a,2024-01-23_16h03.18.992,bars,2023.2.3,MacIntel,59.88023952,657b66ea316d21385b68909f,,,,,,,,,,,3086.5655,3087.5549,,,3088.2333,3088.3297,,176,-4,,,,,,,,,,,,,,,,bars/009.png,bars/mask009.png,,,,,,,,,,,,2,1,,,,,,,4,4,5,4,,,,,,,,,,,3087.5549,3088.2332,3088.3297,3099.0388,space,10.6165,,3099.0388,19,71,3100.0437,3100.0437,3100.0549,,,,0,6,6,6,1,15,105,,,,,,,,
,,6545ffdbc2a670fa09573950,65af5643dc8991f4776b9f1a,2024-01-23_16h03.18.992,bars,2023.2.3,MacIntel,59.88023952,657b66ea316d21385b68909f,,,,,,,,,,,3100.055,3101.0503,,,3101.526,3101.7723,,175,-5,,,,,,,,,,,,,,,,bars/016.png,bars/mask002.png,,,,,,,,,,,,3,2,,,,,,,2,6,1,5,,,,,,,,,,,3101.0504,3101.5259,3101.7723,3231.0234,space,129.2404,,3231.0235,45,10,3232.0235,3232.0236,3232.0354,,,,0,7,7,7,1,40,165,,,,,,,,
,,6545ffdbc2a670fa09573950,65af5643dc8991f4776b9f1a,2024-01-23_16h03.18.992,bars,2023.2.3,MacIntel,59.88023952,657b66ea316d21385b68909f,,,,,,,,,,,3232.0355,3233.023,,,3233.5224,3233.7736,,76,76,,,,,,,,,,,,,,,,bars/002.png,bars/mask000.png,,,,,,,,,,,,4,2,,,,,,,0,4,0,5,,,,,,,,,,,3233.0231,3233.5224,3233.7736,3236.4237,space,2.6395,,3236.4237,54,9,3237.4223,3237.4223,3237.4304,,,,0,8,8,8,1,130,85,,,,,,,,
,,6545ffdbc2a670fa09573950,65af5643dc8991f4776b9f1a,2024-01-23_16h03.18.992,bars,2023.2.3,MacIntel,59.88023952,657b66ea316d21385b68909f,,,,,,,,,,,3237.4306,3238.4229,,,3238.9219,3239.1724,,123,123,,,,,,,,,,,,,,,,bars/039.png,bars/mask009.png,,,,,,,,,,,,2,2,,,,,,,2,6,3,5,,,,,,,,,,,3238.4229,3238.9219,3239.1724,3269.056,space,29.8668,,3269.0561,52,18,3270.0561,3270.0561,3270.065,,,,0,9,9,9,1,175,105,,,,,,,,
,,6545ffdbc2a670fa09573950,65af5643dc8991f4776b9f1a,2024-01-23_16h03.18.992,bars,2023.2.3,MacIntel,59.88023952,657b66ea316d21385b68909f,,,,,,,,,,,3270.0651,3271.058,,,3271.5574,3271.8061,,106,106,,,,,,,,,,,,,,,,bars/016.png,bars/mask008.png,,,,,,,,,,,,0,2,,,,,,,4,8,7,8,,,,,,,,,,,3271.0581,3271.5573,3271.8062,3273.8395,space,2.0247,,3273.8395,66,59,3274.8389,3274.8389,3274.8494,,,,0,10,10,10,1,40,165,,,,,,,,
,,6545ffdbc2a670fa09573950,65af5643dc8991f4776b9f1a,2024-01-23_16h03.18.992,bars,2023.2.3,MacIntel,59.88023952,657b66ea316d21385b68909f,,,,,,,,,,,3274.8496,3275.839,,,3276.3404,3276.5895,,173,173,,,,,,,,,,,,,,,,bars/002.png,bars/mask001.png,,,,,,,,,,,,0,1,,,,,,,2,10,3,8,,,,,,,,,,,3275.8391,3276.3404,3276.5895,3278.4893,space,1.8915,,3278.4894,43,88,3279.4894,3279.4894,3279.4911,,,,0,11,11,11,1,130,85,,,,,,,,
,,6545ffdbc2a670fa09573950,65af5643dc8991f4776b9f1a,2024-01-23_16h03.18.992,bars,2023.2.3,MacIntel,59.88023952,657b66ea316d21385b68909f,,,,,,,,,,,3279.4913,3280.4891,,,3280.9905,3281.2394,,64,64,,,,,,,,,,,,,,,,bars/015.png,bars/mask006.png,,,,,,,,,,,,0,1,,,,,,,0,10,2,10,,,,,,,,,,,3280.4891,3280.9905,3281.2394,3378.2405,space,96.9853,,3378.2406,46,84,3379.2409,3379.2409,3379.2549,,,,0,12,12,12,1,110,160,,,,,,,,
,,6545ffdbc2a670fa09573950,65af5643dc8991f4776b9f1a,2024-01-23_16h03.18.992,bars,2023.2.3,MacIntel,59.88023952,657b66ea316d21385b68909f,,,,,,,,,,,3379.2567,3380.26,,,3380.7581,3381.0084,,131,131,,,,,,,,,,,,,,,,bars/019.png,bars/mask002.png,,,,,,,,,,,,1,2,,,,,,,2,8,2,8,,,,,,,,,,,3380.26,3380.7581,3381.0084,3402.4414,space,21.4261,,3402.4419,86,26,3403.4404,3403.4405,3403.4514,,,,0,13,13,13,1,45,105,,,,,,,,
,,6545ffdbc2a670fa09573950,65af5643dc8991f4776b9f1a,2024-01-23_16h03.18.992,bars,2023.2.3,MacIntel,59.88023952,657b66ea316d21385b68909f,,,,,,,,,,,3403.4519,3404.4399,,,3404.942,3405.1918,,112,112,,,,,,,,,,,,,,,,bars/020.png,bars/mask008.png,,,,,,,,,,,,5,1,,,,,,,4,6,5,5,,,,,,,,,,,3404.4399,3404.9419,3405.1918,3418.8754,space,13.668,,3418.8754,3,58,3419.8753,3419.8753,3419.8857,,,,0,14,14,14,1,115,170,,,,,,,,
,,6545ffdbc2a670fa09573950,65af5643dc8991f4776b9f1a,2024-01-23_16h03.18.992,bars,2023.2.3,MacIntel,59.88023952,657b66ea316d21385b68909f,,,,,,,,,,,3419.8859,3420.8899,,,3421.3836,3421.6256,,28,28,,,,,,,,,,,,,,,,bars/001.png,bars/mask008.png,,,,,,,,,,,,0,2,,,,,,,6,8,5,8,,,,,,,,,,,3420.89,3421.3836,3421.6256,3468.7757,space,47.1316,,3468.7757,78,57,3469.7732,3469.7732,3469.783,,,,0,15,15,15,1,130,85,,,,,,,,
,,6545ffdbc2a670fa09573950,65af5643dc8991f4776b9f1a,2024-01-23_16h03.18.992,bars,2023.2.3,MacIntel,59.88023952,657b66ea316d21385b68909f,,,,,,,,,,,3469.7854,3470.79,,,3471.2547,3471.5068,,17,17,,,,,,,,,,,,,,,,bars/049.png,bars/mask001.png,,,,,,,,,,,,0,1,,,,,,,8,6,8,7,,,,,,,,,,,3470.79,3471.2546,3471.5068,3478.0237,space,6.5007,,3478.0237,37,82,3479.0242,3479.0243,3479.042,,,,0,16,16,16,1,160,115,,,,,,,,
,,6545ffdbc2a670fa09573950,65af5643dc8991f4776b9f1a,2024-01-23_16h03.18.992,bars,2023.2.3,MacIntel,59.88023952,657b66ea316d21385b68909f,,,,,,,,,,,3479.0422,3480.0398,,,3480.5402,3480.7903,,41,41,,,,,,,,,,,,,,,,bars/023.png,bars/mask002.png,,,,,,,,,,,,3,1,,,,,,,10,4,10,3,,,,,,,,,,,3480.0399,3480.5402,3480.7903,3505.0918,space,24.2903,,3505.0919,21,74,3506.0905,3506.0906,3506.1045,,,,0,17,17,17,1,20,115,,,,,,,,
,,6545ffdbc2a670fa09573950,65af5643dc8991f4776b9f1a,2024-01-23_16h03.18.992,bars,2023.2.3,MacIntel,59.88023952,657b66ea316d21385b68909f,,,,,,,,,,,3506.1046,3507.093,,,3507.5925,3507.8429,,14,14,,,,,,,,,,,,,,,,bars/044.png,bars/mask001.png,,,,,,,,,,,,0,2,,,,,,,10,2,10,2,,,,,,,,,,,3507.093,3507.5925,3507.8429,3513.0072,space,5.1594,,3513.0072,61,39,3514.0078,3514.0078,3514.0207,,,,0,18,18,18,1,75,155,,,,,,,,
,,6545ffdbc2a670fa09573950,65af5643dc8991f4776b9f1a,2024-01-23_16h03.18.992,bars,2023.2.3,MacIntel,59.88023952,657b66ea316d21385b68909f,,,,,,,,,,,3514.0208,3515.0251,,,3515.5241,3515.7752,,50,50,,,,,,,,,,,,,,,,bars/027.png,bars/mask005.png,,,,,,,,,,,,4,2,,,,,,,8,4,9,4,,,,,,,,,,,3515.0251,3515.524,3515.7752,3587.5413,space,71.7493,,3587.5413,60,0,3588.5404,3588.5404,3588.5485,,,,0,19,19,19,1,110,50,,,,,,,,
,,6545ffdbc2a670fa09573950,65af5643dc8991f4776b9f1a,2024-01-23_16h03.18.992,bars,2023.2.3,MacIntel,59.88023952,657b66ea316d21385b68909f,,,,,,,,,,,3588.5487,3589.5405,,,3590.0402,3590.2901,,112,112,,,,,,,,,,,,,,,,bars/041.png,bars/mask001.png,,,,,,,,,,,,0,2,,,,,,,10,2,10,3,,,,,,,,,,,3589.5405,3590.0402,3590.2901,3592.1736,space,1.8679,,3592.1736,88,27,3593.1763,3593.1763,3593.191,,,,0,20,20,20,1,20,85,,,,,,,,
,,6545ffdbc2a670fa09573950,65af5643dc8991f4776b9f1a,2024-01-23_16h03.18.992,bars,2023.2.3,MacIntel,59.88023952,657b66ea316d21385b68909f,,,,,,,,,,,3593.1913,3594.191,,,3594.6901,3594.9414,,48,48,,,,,,,,,,,,,,,,bars/017.png,bars/mask001.png,,,,,,,,,,,,0,2,,,,,,,10,0,9,0,,,,,,,,,,,3594.191,3594.6901,3594.9414,3596.4263,space,1.4696,,3596.4264,83,3,3597.4262,3597.4262,3597.4267,,,,0,21,21,21,1,145,45,,,,,,,,
,,6545ffdbc2a670fa09573950,65af5643dc8991f4776b9f1a,2024-01-23_16h03.18.992,bars,2023.2.3,MacIntel,59.88023952,657b66ea316d21385b68909f,,,,,,,,,,,3597.427,3598.4263,,,3598.9253,3599.1763,,146,146,,,,,,,,,,,,,,,,bars/043.png,bars/mask007.png,,,,,,,,,,,,0,2,,,,,,,8,0,7,0,,,,,,,,,,,3598.4263,3598.9253,3599.1763,3600.3136,space,1.1323,,3600.3136,64,16,3601.3088,3601.3089,3601.3093,,,,0,22,22,22,1,30,130,,,,,,,,
,,6545ffdbc2a670fa09573950,65af5643dc8991f4776b9f1a,2024-01-23_16h03.18.992,bars,2023.2.3,MacIntel,59.88023952,657b66ea316d21385b68909f,,,,,,,,,,,3601.3099,3602.3085,,,3602.8068,3603.0577,,55,55,,,,,,,,,,,,,,,,bars/012.png,bars/mask003.png,,,,,,,,,,,,0,1,,,,,,,6,0,4,0,,,,,,,,,,,3602.3087,3602.8068,3603.0577,3623.857,space,20.7832,,3623.8571,35,40,3624.8576,3624.8577,3624.8684,,,,0,23,23,23,1,90,15,,,,,,,,
,,6545ffdbc2a670fa09573950,65af5643dc8991f4776b9f1a,2024-01-23_16h03.18.992,bars,2023.2.3,MacIntel,59.88023952,657b66ea316d21385b68909f,,,,,,,,,,,3624.8686,3625.8572,,,3626.3582,3626.6076,,171,171,,,,,,,,,,,,,,,,bars/039.png,bars/mask004.png,,,,,,,,,,,,7,1,,,,,,,8,0,8,0,,,,,,,,,,,3625.8572,3626.3582,3626.6076,3650.5577,space,23.9137,,3650.5577,4,66,3651.5574,3651.5574,3651.5654,,,,0,24,24,24,1,175,105,,,,,,,,
,,6545ffdbc2a670fa09573950,65af5643dc8991f4776b9f1a,2024-01-23_16h03.18.992,bars,2023.2.3,MacIntel,59.88023952,657b66ea316d21385b68909f,,,,,,,,,,,3651.5656,3652.5574,,,3653.0602,3653.3109,,120,120,,,,,,,,,,,,,,,,bars/032.png,bars/mask007.png,,,,,,,,,,,,4,1,,,,,,,6,0,5,0,,,,,,,,,,,3652.5574,3653.0602,3653.3109,3655.9253,space,2.6039,,3655.9253,5,80,3656.9252,3656.9252,3656.933,,,,0,25,25,25,1,125,20,,,,,,,,
,,6545ffdbc2a670fa09573950,65af5643dc8991f4776b9f1a,2024-01-23_16h03.18.992,bars,2023.2.3,MacIntel,59.88023952,657b66ea316d21385b68909f,,,,,,,,,,,3656.9347,3657.9251,,,3658.4251,3658.6752,,142,142,,,,,,,,,,,,,,,,bars/008.png,bars/mask001.png,,,,,,,,,,,,0,1,,,,,,,8,2,7,4,,,,,,,,,,,3657.9251,3658.425,3658.6752,3748.7101,space,90.0202,,3748.7101,32,38,3749.7078,3749.7078,3749.7181,,,,0,26,26,26,1,110,0,,,,,,,,
,,6545ffdbc2a670fa09573950,65af5643dc8991f4776b9f1a,2024-01-23_16h03.18.992,bars,2023.2.3,MacIntel,59.88023952,657b66ea316d21385b68909f,,,,,,,,,,,3749.7208,3750.7241,,,3751.224,3751.4768,,64,64,,,,,,,,,,,,,,,,bars/036.png,bars/mask002.png,,,,,,,,,,,,0,2,,,,,,,6,0,6,1,,,,,,,,,,,3750.7241,3751.224,3751.4769,3766.758,space,15.2673,,3766.758,81,44,3767.7579,3767.7579,3767.7738,,,,0,27,27,27,1,145,20,,,,,,,,
,,6545ffdbc2a670fa09573950,65af5643dc8991f4776b9f1a,2024-01-23_16h03.18.992,bars,2023.2.3,MacIntel,59.88023952,657b66ea316d21385b68909f,,,,,,,,,,,3767.7741,3768.7751,,,3769.2755,3769.5249,,25,25,,,,,,,,,,,,,,,,bars/012.png,bars/mask003.png,,,,,,,,,,,,2,2,,,,,,,4,2,4,3,,,,,,,,,,,3768.7751,3769.2755,3769.5249,3772.6581,space,3.1222,,3772.6581,65,10,3773.6581,3773.6582,3773.6664,,,,0,28,28,28,1,90,15,,,,,,,,
,,6545ffdbc2a670fa09573950,65af5643dc8991f4776b9f1a,2024-01-23_16h03.18.992,bars,2023.2.3,MacIntel,59.88023952,657b66ea316d21385b68909f,,,,,,,,,,,3773.6665,3774.6587,,,3775.1587,3775.4086,,169,169,,,,,,,,,,,,,,,,bars/040.png,bars/mask009.png,,,,,,,,,,,,0,2,,,,,,,2,0,2,0,,,,,,,,,,,3774.6587,3775.1587,3775.4086,3777.109,space,1.6836,,3777.109,29,16,3778.1087,3778.1087,3778.1168,,,,0,29,29,29,1,140,5,,,,,,,,
,,6545ffdbc2a670fa09573950,65af5643dc8991f4776b9f1a,2024-01-23_16h03.18.992,bars,2023.2.3,MacIntel,59.88023952,657b66ea316d21385b68909f,,,,,,,,,,,3778.1169,3779.1079,,,3779.6081,3779.8578,,57,57,,,,,,,,,,,,,,,,bars/047.png,bars/mask007.png,,,,,,,,,,,,0,2,,,,,,,4,0,4,0,,,,,,,,,,,3779.1079,3779.6081,3779.8578,3781.3747,space,1.5005,,3781.3749,42,13,3782.3751,3782.3751,3782.3831,,,,0,30,30,30,1,15,70,,,,,,,,
,,6545ffdbc2a670fa09573950,65af5643dc8991f4776b9f1a,2024-01-23_16h03.18.992,bars,2023.2.3,MacIntel,59.88023952,657b66ea316d21385b68909f,,,,,,,,,,,3782.3846,3783.3745,,,3783.8748,3784.1246,,144,144,,,,,,,,,,,,,,,,bars/035.png,bars/mask005.png,,,,,,,,,,,,0,1,,,,,,,2,0,0,0,,,,,,,,,,,3783.3745,3783.8748,3784.1246,3784.9076,space,0.7665,,3784.9076,31,84,3785.9087,3785.9087,3785.9097,,,,0,31,31,31,1,175,60,,,,,,,,
,,6545ffdbc2a670fa09573950,65af5643dc8991f4776b9f1a,2024-01-23_16h03.18.992,bars,2023.2.3,MacIntel,59.88023952,657b66ea316d21385b68909f,,,,,,,,,,,3785.9099,3786.9081,,,3787.408,3787.6579,,106,106,,,,,,,,,,,,,,,,bars/026.png,bars/mask009.png,,,,,,,,,,,,0,2,,,,,,,0,0,0,0,,,,,,,,,,,3786.9082,3787.408,3787.658,3788.3583,space,0.6833,,3788.3583,71,21,3789.3481,3789.3481,3789.3528,,,,0,32,32,32,1,35,85,,,,,,,,
,,6545ffdbc2a670fa09573950,65af5643dc8991f4776b9f1a,2024-01-23_16h03.18.992,bars,2023.2.3,MacIntel,59.88023952,657b66ea316d21385b68909f,,,,,,,,,,,3789.3529,3790.3411,,,3790.8407,3791.0912,,165,165,,,,,,,,,,,,,,,,bars/000.png,bars/mask004.png,,,,,,,,,,,,1,2,,,,,,,0,2,0,3,,,,,,,,,,,3790.3411,3790.8407,3791.0912,3792.7919,space,1.6836,,3792.7919,55,20,3793.7912,3793.7912,3793.8014,,,,0,33,33,33,1,40,145,,,,,,,,
,,6545ffdbc2a670fa09573950,65af5643dc8991f4776b9f1a,2024-01-23_16h03.18.992,bars,2023.2.3,MacIntel,59.88023952,657b66ea316d21385b68909f,,,,,,,,,,,3793.8016,3794.792,,,3795.2913,3795.5436,,115,115,,,,,,,,,,,,,,,,bars/010.png,bars/mask003.png,,,,,,,,,,,,0,1,,,,,,,2,4,0,4,,,,,,,,,,,3794.792,3795.2913,3795.5437,3796.0609,space,0.505,,3796.0609,50,60,3797.0586,3797.0587,3797.0599,,,,0,34,34,34,1,165,55,,,,,,,,
,,6545ffdbc2a670fa09573950,65af5643dc8991f4776b9f1a,2024-01-23_16h03.18.992,bars,2023.2.3,MacIntel,59.88023952,657b66ea316d21385b68909f,,,,,,,,,,,3797.0615,3798.0603,,,3798.5576,3798.808,,32,32,,,,,,,,,,,,,,,,bars/012.png,bars/mask003.png,,,,,,,,,,,,2,2,,,,,,,4,6,5,5,,,,,,,,,,,3798.0603,3798.5575,3798.8081,3799.7081,space,0.8848,,3799.7081,58,17,3800.7102,3800.7102,3800.7114,,,,0,35,35,35,1,90,15,,,,,,,,
,,6545ffdbc2a670fa09573950,65af5643dc8991f4776b9f1a,2024-01-23_16h03.18.992,bars,2023.2.3,MacIntel,59.88023952,657b66ea316d21385b68909f,,,,,,,,,,,3800.7115,3801.71,,,3802.2081,3802.4602,,134,134,,,,,,,,,,,,,,,,bars/032.png,bars/mask003.png,,,,,,,,,,,,4,1,,,,,,,6,4,6,3,,,,,,,,,,,3801.71,3802.2081,3802.4602,3803.2418,space,0.7664,,3803.2418,9,66,3804.2414,3804.2414,3804.2427,,,,0,36,36,36,1,125,20,,,,,,,,
,,6545ffdbc2a670fa09573950,65af5643dc8991f4776b9f1a,2024-01-23_16h03.18.992,bars,2023.2.3,MacIntel,59.88023952,657b66ea316d21385b68909f,,,,,,,,,,,3804.243,3805.242,,,3805.7422,3805.9915,,11,11,,,,,,,,,,,,,,,,bars/023.png,bars/mask005.png,,,,,,,,,,,,3,1,,,,,,,4,6,4,6,,,,,,,,,,,3805.2421,3805.7422,3805.9916,3806.6592,space,0.6532,,3806.6593,9,76,3807.6574,3807.6574,3807.6604,,,,0,37,37,37,1,20,115,,,,,,,,
,,6545ffdbc2a670fa09573950,65af5643dc8991f4776b9f1a,2024-01-23_16h03.18.992,bars,2023.2.3,MacIntel,59.88023952,657b66ea316d21385b68909f,,,,,,,,,,,3807.6605,3808.659,,,3809.1574,3809.4081,,84,84,,,,,,,,,,,,,,,,bars/025.png,bars/mask002.png,,,,,,,,,,,,1,1,,,,,,,2,8,2,8,,,,,,,,,,,3808.659,3809.1574,3809.4081,3810.0582,space,0.6347,,3810.0583,21,44,3811.0589,3811.0589,3811.0594,,,,0,38,38,38,1,105,40,,,,,,,,
,,6545ffdbc2a670fa09573950,65af5643dc8991f4776b9f1a,2024-01-23_16h03.18.992,bars,2023.2.3,MacIntel,59.88023952,657b66ea316d21385b68909f,,,,,,,,,,,3811.0596,3812.059,,,3812.5575,3812.808,,111,111,,,,,,,,,,,,,,,,bars/049.png,bars/mask009.png,,,,,,,,,,,,9,2,,,,,,,4,10,4,10,,,,,,,,,,,3812.059,3812.5574,3812.8081,3813.5754,space,0.7557,,3813.5754,49,4,3814.5751,3814.5751,3814.5763,,,,0,39,39,39,1,160,115,,,,,,,,
,,6545ffdbc2a670fa09573950,65af5643dc8991f4776b9f1a,2024-01-23_16h03.18.992,bars,2023.2.3,MacIntel,59.88023952,657b66ea316d21385b68909f,,,,,,,,,,,3814.5764,3815.5742,,,3816.0751,3816.3254,,46,46,,,,,,,,,,,,,,,,bars/047.png,bars/mask007.png,,,,,,,,,,,,2,2,,,,,,,2,8,3,8,,,,,,,,,,,3815.5742,3816.0751,3816.3254,3816.9423,space,0.603,,3816.9423,31,24,3817.9413,3817.9413,3817.9418,,,,0,40,40,40,1,15,70,,,,,,,,
,,6545ffdbc2a670fa09573950,65af5643dc8991f4776b9f1a,2024-01-23_16h03.18.992,bars,2023.2.3,MacIntel,59.88023952,657b66ea316d21385b68909f,,,,,,,,,,,3817.9421,3818.9421,,,3819.442,3819.6915,,57,57,,,,,,,,,,,,,,,,bars/048.png,bars/mask005.png,,,,,,,,,,,,3,1,,,,,,,4,6,4,6,,,,,,,,,,,3818.9421,3819.442,3819.6915,3820.9085,space,1.2078,,3820.9085,7,62,3821.9091,3821.9091,3821.9174,,,,0,41,41,41,1,50,175,,,,,,,,
,,6545ffdbc2a670fa09573950,65af5643dc8991f4776b9f1a,2024-01-23_16h03.18.992,bars,2023.2.3,MacIntel,59.88023952,657b66ea316d21385b68909f,,,,,,,,,,,3821.919,3822.9089,,,3823.408,3823.658,,0,180,,,,,,,,,,,,,,,,bars/003.png,bars/mask008.png,,,,,,,,,,,,1,1,,,,,,,6,8,4,10,,,,,,,,,,,3822.909,3823.4079,3823.658,3824.6413,space,0.9671,,3824.6413,25,40,3825.6414,3825.6415,3825.642,,,,0,42,42,42,1,25,140,,,,,,,,
,,6545ffdbc2a670fa09573950,65af5643dc8991f4776b9f1a,2024-01-23_16h03.18.992,bars,2023.2.3,MacIntel,59.88023952,657b66ea316d21385b68909f,,,,,,,,,,,3825.6422,3826.6417,,,3827.1415,3827.3922,,25,25,,,,,,,,,,,,,,,,bars/037.png,bars/mask004.png,,,,,,,,,,,,0,1,,,,,,,8,10,8,10,,,,,,,,,,,3826.6417,3827.1414,3827.3923,3828.1078,space,0.7078,,3828.1078,55,80,3829.1087,3829.1088,3829.1094,,,,0,43,43,43,1,150,105,,,,,,,,
,,6545ffdbc2a670fa09573950,65af5643dc8991f4776b9f1a,2024-01-23_16h03.18.992,bars,2023.2.3,MacIntel,59.88023952,657b66ea316d21385b68909f,,,,,,,,,,,3829.1095,3830.1081,,,3830.6074,3830.8576,,143,143,,,,,,,,,,,,,,,,bars/038.png,bars/mask000.png,,,,,,,,,,,,1,1,,,,,,,6,10,5,10,,,,,,,,,,,3830.1083,3830.6074,3830.8576,3831.641,space,0.7738,,3831.6411,22,73,3832.6414,3832.6414,3832.6451,,,,0,44,44,44,1,165,70,,,,,,,,
,,6545ffdbc2a670fa09573950,65af5643dc8991f4776b9f1a,2024-01-23_16h03.18.992,bars,2023.2.3,MacIntel,59.88023952,657b66ea316d21385b68909f,,,,,,,,,,,3832.6452,3833.6413,,,3834.1415,3834.3923,,35,35,,,,,,,,,,,,,,,,bars/041.png,bars/mask008.png,,,,,,,,,,,,2,1,,,,,,,4,10,4,10,,,,,,,,,,,3833.6413,3834.1415,3834.3924,3835.3082,space,0.908,,3835.3082,15,50,3836.3076,3836.3077,3836.308,,,,0,45,45,45,1,20,85,,,,,,,,
,,6545ffdbc2a670fa09573950,65af5643dc8991f4776b9f1a,2024-01-23_16h03.18.992,bars,2023.2.3,MacIntel,59.88023952,657b66ea316d21385b68909f,,,,,,,,,,,3836.3082,3837.3085,,,3837.8076,3838.0586,,79,79,,,,,,,,,,,,,,,,bars/017.png,bars/mask001.png,,,,,,,,,,,,0,2,,,,,,,6,10,6,9,,,,,,,,,,,3837.3085,3837.8076,3838.0586,3838.8579,space,0.7855,,3838.8579,66,34,3839.8581,3839.8581,3839.8663,,,,0,46,46,46,1,145,45,,,,,,,,
,,6545ffdbc2a670fa09573950,65af5643dc8991f4776b9f1a,2024-01-23_16h03.18.992,bars,2023.2.3,MacIntel,59.88023952,657b66ea316d21385b68909f,,,,,,,,,,,3839.8664,3840.8582,,,3841.3469,3841.5909,,77,77,,,,,,,,,,,,,,,,bars/004.png,bars/mask006.png,,,,,,,,,,,,0,2,,,,,,,4,8,2,8,,,,,,,,,,,3840.8582,3841.3469,3841.591,3842.3428,space,0.7354,,3842.3428,52,48,3843.341,3843.341,3843.3414,,,,0,47,47,47,1,25,125,,,,,,,,
,,6545ffdbc2a670fa09573950,65af5643dc8991f4776b9f1a,2024-01-23_16h03.18.992,bars,2023.2.3,MacIntel,59.88023952,657b66ea316d21385b68909f,,,,,,,,,,,3843.3416,3844.3415,,,3844.8428,3845.0942,,117,117,,,,,,,,,,,,,,,,bars/029.png,bars/mask002.png,,,,,,,,,,,,1,1,,,,,,,6,10,6,10,,,,,,,,,,,3844.3415,3844.8427,3845.0942,3845.9786,space,0.8717,,3845.9786,27,72,3846.977,3846.9771,3846.978,,,,0,48,48,48,1,90,45,,,,,,,,
,,6545ffdbc2a670fa09573950,65af5643dc8991f4776b9f1a,2024-01-23_16h03.18.992,bars,2023.2.3,MacIntel,59.88023952,657b66ea316d21385b68909f,,,,,,,,,,,3846.9782,3847.9758,,,3848.4782,3848.725,,71,71,,,,,,,,,,,,,,,,bars/034.png,bars/mask001.png,,,,,,,,,,,,8,2,,,,,,,4,10,6,10,,,,,,,,,,,3847.9758,3848.4782,3848.725,3849.5083,space,0.7732,,3849.5083,54,6,3850.5099,3850.51,3850.511,,,,0,49,49,49,1,125,65,,,,,,,,
,,6545ffdbc2a670fa09573950,65af5643dc8991f4776b9f1a,2024-01-23_16h03.18.992,bars,2023.2.3,MacIntel,59.88023952,657b66ea316d21385b68909f,,,,,,,,,,,,,,,,,,,,,,,,,,,,,,,,,,,,,,,,,,,,,,,,,,,,,,,,,,,,,,,,,,,,,,,,,,,,,,,,,,,,,,,,,,,,,3850.514,3910.5079,0,2,2,0,1,sequence_tables/blk008.csv
,,6545ffdbc2a670fa09573950,65af5643dc8991f4776b9f1a,2024-01-23_16h03.18.992,bars,2023.2.3,MacIntel,59.88023952,657b66ea316d21385b68909f,,,,,,,,,,,3914.1878,3915.1912,,,3915.6918,3915.9269,,1,1,,,,,,,,,,,,,,,,bars/018.png,bars/mask005.png,,,,,,,,,,,,0,1,,,,,,,9,7,10,7,,,,,,3910.5185,3914.1752,space,3.6491,,3915.1912,3915.6917,3915.927,3917.0753,space,1.1333,,3917.0753,31,89,3918.0754,3918.0754,3918.0773,,,,0,0,0,0,1,150,90,,,,,,,,
,,6545ffdbc2a670fa09573950,65af5643dc8991f4776b9f1a,2024-01-23_16h03.18.992,bars,2023.2.3,MacIntel,59.88023952,657b66ea316d21385b68909f,,,,,,,,,,,3918.0775,3919.0752,,,3919.5764,3919.8263,,145,145,,,,,,,,,,,,,,,,bars/038.png,bars/mask001.png,,,,,,,,,,,,2,1,,,,,,,7,5,7,4,,,,,,,,,,,3919.0752,3919.5764,3919.8263,3920.6753,space,0.8337,,3920.6753,20,75,3921.6777,3921.6778,3921.6798,,,,0,1,1,1,1,165,70,,,,,,,,
,,6545ffdbc2a670fa09573950,65af5643dc8991f4776b9f1a,2024-01-23_16h03.18.992,bars,2023.2.3,MacIntel,59.88023952,657b66ea316d21385b68909f,,,,,,,,,,,3921.68,3922.6752,,,3923.1752,3923.4275,,174,174,,,,,,,,,,,,,,,,bars/002.png,bars/mask001.png,,,,,,,,,,,,0,1,,,,,,,5,7,3,7,,,,,,,,,,,3922.6752,3923.1752,3923.4275,3924.3109,space,0.8673,,3924.3109,44,89,3925.3094,3925.3094,3925.3098,,,,0,2,2,2,1,130,85,,,,,,,,
,,6545ffdbc2a670fa09573950,65af5643dc8991f4776b9f1a,2024-01-23_16h03.18.992,bars,2023.2.3,MacIntel,59.88023952,657b66ea316d21385b68909f,,,,,,,,,,,3925.3115,3926.3086,,,3926.8081,3927.0608,,48,48,,,,,,,,,,,,,,,,bars/046.png,bars/mask004.png,,,,,,,,,,,,0,2,,,,,,,7,5,6,6,,,,,,,,,,,3926.3086,3926.808,3927.0608,3927.8753,space,0.7993,,3927.8753,73,37,3928.8752,3928.8752,3928.8777,,,,0,3,3,3,1,155,85,,,,,,,,
,,6545ffdbc2a670fa09573950,65af5643dc8991f4776b9f1a,2024-01-23_16h03.18.992,bars,2023.2.3,MacIntel,59.88023952,657b66ea316d21385b68909f,,,,,,,,,,,3928.8779,3929.8751,,,3930.3762,3930.6253,,122,122,,,,,,,,,,,,,,,,bars/033.png,bars/mask009.png,,,,,,,,,,,,0,2,,,,,,,9,7,9,7,,,,,,,,,,,3929.8752,3930.3762,3930.6253,3956.6587,space,26.0211,,3956.6587,83,33,3957.6587,3957.6587,3957.6698,,,,0,4,4,4,1,25,155,,,,,,,,
,,6545ffdbc2a670fa09573950,65af5643dc8991f4776b9f1a,2024-01-23_16h03.18.992,bars,2023.2.3,MacIntel,59.88023952,657b66ea316d21385b68909f,,,,,,,,,,,3957.6699,3958.6586,,,3959.1607,3959.4083,,99,99,,,,,,,,,,,,,,,,bars/007.png,bars/mask002.png,,,,,,,,,,,,0,2,,,,,,,7,5,6,5,,,,,,,,,,,3958.6587,3959.1607,3959.4084,3966.9749,space,7.5534,,3966.975,76,44,3968.0191,3968.0192,3968.03,,,,0,5,5,5,1,175,55,,,,,,,,
,,6545ffdbc2a670fa09573950,65af5643dc8991f4776b9f1a,2024-01-23_16h03.18.992,bars,2023.2.3,MacIntel,59.88023952,657b66ea316d21385b68909f,,,,,,,,,,,3968.0302,3969.0252,,,3969.6834,3969.9282,,176,176,,,,,,,,,,,,,,,,bars/018.png,bars/mask008.png,,,,,,,,,,,,1,1,,,,,,,5,3,5,3,,,,,,,,,,,3969.0252,3969.6834,3969.9283,3985.8598,space,15.8709,,3985.8602,26,86,3986.8611,3986.8611,3986.8732,,,,0,6,6,6,1,150,90,,,,,,,,
,,6545ffdbc2a670fa09573950,65af5643dc8991f4776b9f1a,2024-01-23_16h03.18.992,bars,2023.2.3,MacIntel,59.88023952,657b66ea316d21385b68909f,,,,,,,,,,,3986.8737,3987.8755,,,3988.3757,3988.6253,,121,121,,,,,,,,,,,,,,,,bars/042.png,bars/mask006.png,,,,,,,,,,,,1,1,,,,,,,7,1,7,2,,,,,,,,,,,3987.8755,3988.3757,3988.6253,3989.9421,space,1.3097,,3989.9422,24,46,3990.9421,3990.9421,3990.9501,,,,0,7,7,7,1,145,75,,,,,,,,
,,6545ffdbc2a670fa09573950,65af5643dc8991f4776b9f1a,2024-01-23_16h03.18.992,bars,2023.2.3,MacIntel,59.88023952,657b66ea316d21385b68909f,,,,,,,,,,,3990.9503,3991.9426,,,3992.4416,3992.6943,,68,68,,,,,,,,,,,,,,,,bars/013.png,bars/mask000.png,,,,,,,,,,,,7,1,,,,,,,9,3,9,3,,,,,,,,,,,3991.9427,3992.4416,3992.6943,3993.6597,space,0.9545,,3993.6597,7,58,3994.6608,3994.6609,3994.6614,,,,0,8,8,8,1,75,10,,,,,,,,
,,6545ffdbc2a670fa09573950,65af5643dc8991f4776b9f1a,2024-01-23_16h03.18.992,bars,2023.2.3,MacIntel,59.88023952,657b66ea316d21385b68909f,,,,,,,,,,,3994.6622,3995.6587,,,3996.1585,3996.4083,,174,174,,,,,,,,,,,,,,,,bars/040.png,bars/mask007.png,,,,,,,,,,,,5,2,,,,,,,10,5,10,8,,,,,,,,,,,3995.6587,3996.1585,3996.4083,3998.1252,space,1.7005,,3998.1252,34,11,3999.126,3999.1261,3999.1352,,,,0,9,9,9,1,140,5,,,,,,,,
,,6545ffdbc2a670fa09573950,65af5643dc8991f4776b9f1a,2024-01-23_16h03.18.992,bars,2023.2.3,MacIntel,59.88023952,657b66ea316d21385b68909f,,,,,,,,,,,3999.1355,4000.1249,,,4000.6257,4000.8768,,70,70,,,,,,,,,,,,,,,,bars/035.png,bars/mask000.png,,,,,,,,,,,,3,2,,,,,,,8,7,7,5,,,,,,,,,,,4000.1249,4000.6256,4000.8768,4004.2787,space,3.3836,,4004.2787,75,10,4005.2772,4005.2772,4005.2849,,,,0,10,10,10,1,175,60,,,,,,,,
,,6545ffdbc2a670fa09573950,65af5643dc8991f4776b9f1a,2024-01-23_16h03.18.992,bars,2023.2.3,MacIntel,59.88023952,657b66ea316d21385b68909f,,,,,,,,,,,4005.2865,4006.2761,,,4006.7762,4007.0263,,104,104,,,,,,,,,,,,,,,,bars/039.png,bars/mask002.png,,,,,,,,,,,,5,2,,,,,,,10,5,10,5,,,,,,,,,,,4006.2762,4006.7762,4007.0264,4008.776,space,1.7424,,4008.776,71,1,4009.7763,4009.7763,4009.7841,,,,0,11,11,11,1,175,105,,,,,,,,
,,6545ffdbc2a670fa09573950,65af5643dc8991f4776b9f1a,2024-01-23_16h03.18.992,bars,2023.2.3,MacIntel,59.88023952,657b66ea316d21385b68909f,,,,,,,,,,,4009.7842,4010.7763,,,4011.2751,4011.5254,,71,71,,,,,,,,,,,,,,,,bars/016.png,bars/mask006.png,,,,,,,,,,,,0,1,,,,,,,10,3,8,2,,,,,,,,,,,4010.7763,4011.275,4011.5254,4014.978,space,3.4323,,4014.978,31,86,4015.9775,4015.9775,4015.9855,,,,0,12,12,12,1,40,165,,,,,,,,
,,6545ffdbc2a670fa09573950,65af5643dc8991f4776b9f1a,2024-01-23_16h03.18.992,bars,2023.2.3,MacIntel,59.88023952,657b66ea316d21385b68909f,,,,,,,,,,,4015.9857,4016.9754,,,4017.4754,4017.7264,,41,41,,,,,,,,,,,,,,,,bars/043.png,bars/mask000.png,,,,,,,,,,,,4,1,,,,,,,8,5,7,5,,,,,,,,,,,4016.9754,4017.4754,4017.7264,4026.2447,space,8.5034,,4026.2447,11,89,4027.2431,4027.2431,4027.2525,,,,0,13,13,13,1,30,130,,,,,,,,
,,6545ffdbc2a670fa09573950,65af5643dc8991f4776b9f1a,2024-01-23_16h03.18.992,bars,2023.2.3,MacIntel,59.88023952,657b66ea316d21385b68909f,,,,,,,,,,,4027.2525,4028.2429,,,4028.7421,4028.9921,,105,105,,,,,,,,,,,,,,,,bars/035.png,bars/mask006.png,,,,,,,,,,,,0,2,,,,,,,10,7,9,6,,,,,,,,,,,4028.2429,4028.7421,4028.9922,4107.4624,space,78.4642,,4107.4624,70,45,4108.4591,4108.4592,4108.4606,,,,0,14,14,14,1,175,60,,,,,,,,
,,6545ffdbc2a670fa09573950,65af5643dc8991f4776b9f1a,2024-01-23_16h03.18.992,bars,2023.2.3,MacIntel,59.88023952,657b66ea316d21385b68909f,,,,,,,,,,,4108.4607,4109.4588,,,4109.96,4110.209,,136,136,,,,,,,,,,,,,,,,bars/016.png,bars/mask000.png,,,,,,,,,,,,0,2,,,,,,,8,9,9,10,,,,,,,,,,,4109.4588,4109.96,4110.209,4112.2095,space,1.9938,,4112.2095,84,29,4113.2091,4113.2091,4113.2173,,,,0,15,15,15,1,40,165,,,,,,,,
,,6545ffdbc2a670fa09573950,65af5643dc8991f4776b9f1a,2024-01-23_16h03.18.992,bars,2023.2.3,MacIntel,59.88023952,657b66ea316d21385b68909f,,,,,,,,,,,4113.2174,4114.2115,,,4114.7091,4114.9598,,153,153,,,,,,,,,,,,,,,,bars/002.png,bars/mask004.png,,,,,,,,,,,,1,1,,,,,,,6,10,6,10,,,,,,,,,,,4114.2115,4114.7091,4114.9598,4116.9593,space,1.9841,,4116.9594,23,68,4117.9598,4117.9599,4117.9608,,,,0,16,16,16,1,130,85,,,,,,,,
,,6545ffdbc2a670fa09573950,65af5643dc8991f4776b9f1a,2024-01-23_16h03.18.992,bars,2023.2.3,MacIntel,59.88023952,657b66ea316d21385b68909f,,,,,,,,,,,4117.961,4118.9591,,,4119.4592,4119.7092,,35,35,,,,,,,,,,,,,,,,bars/022.png,bars/mask000.png,,,,,,,,,,,,4,2,,,,,,,8,10,8,8,,,,,,,,,,,4118.9591,4119.4592,4119.7092,4120.6932,space,0.9667,,4120.6932,60,15,4121.6932,4121.6933,4121.6945,,,,0,17,17,17,1,95,20,,,,,,,,
,,6545ffdbc2a670fa09573950,65af5643dc8991f4776b9f1a,2024-01-23_16h03.18.992,bars,2023.2.3,MacIntel,59.88023952,657b66ea316d21385b68909f,,,,,,,,,,,4121.6947,4122.692,,,4123.1924,4123.4434,,173,173,,,,,,,,,,,,,,,,bars/044.png,bars/mask006.png,,,,,,,,,,,,4,2,,,,,,,10,10,10,10,,,,,,,,,,,4122.6921,4123.1924,4123.4434,4125.7297,space,2.2722,,4125.7298,82,18,4126.7302,4126.7302,4126.7382,,,,0,18,18,18,1,75,155,,,,,,,,
,,6545ffdbc2a670fa09573950,65af5643dc8991f4776b9f1a,2024-01-23_16h03.18.992,bars,2023.2.3,MacIntel,59.88023952,657b66ea316d21385b68909f,,,,,,,,,,,4126.7398,4127.7281,,,4128.2268,4128.4768,,163,163,,,,,,,,,,,,,,,,bars/042.png,bars/mask002.png,,,,,,,,,,,,3,1,,,,,,,8,10,8,10,,,,,,,,,,,4127.7282,4128.2267,4128.4768,4130.0431,space,1.5589,,4130.0431,18,88,4131.0425,4131.0426,4131.0515,,,,0,19,19,19,1,145,75,,,,,,,,
,,6545ffdbc2a670fa09573950,65af5643dc8991f4776b9f1a,2024-01-23_16h03.18.992,bars,2023.2.3,MacIntel,59.88023952,657b66ea316d21385b68909f,,,,,,,,,,,4131.0516,4132.0419,,,4132.5447,4132.7925,,90,90,,,,,,,,,,,,,,,,bars/008.png,bars/mask008.png,,,,,,,,,,,,2,1,,,,,,,6,10,6,10,,,,,,,,,,,4132.042,4132.5447,4132.7925,4133.9623,space,1.1573,,4133.9623,20,90,4134.9613,4134.9613,4134.9618,,,,0,20,20,20,1,110,0,,,,,,,,
,,6545ffdbc2a670fa09573950,65af5643dc8991f4776b9f1a,2024-01-23_16h03.18.992,bars,2023.2.3,MacIntel,59.88023952,657b66ea316d21385b68909f,,,,,,,,,,,4134.962,4135.9599,,,4136.4599,4136.7099,,174,174,,,,,,,,,,,,,,,,bars/023.png,bars/mask003.png,,,,,,,,,,,,1,1,,,,,,,8,10,10,10,,,,,,,,,,,4135.96,4136.4599,4136.7099,4137.8594,space,1.1339,,4137.8594,26,59,4138.8614,4138.8614,4138.8672,,,,0,21,21,21,1,20,115,,,,,,,,
,,6545ffdbc2a670fa09573950,65af5643dc8991f4776b9f1a,2024-01-23_16h03.18.992,bars,2023.2.3,MacIntel,59.88023952,657b66ea316d21385b68909f,,,,,,,,,,,4138.8674,4139.8594,,,4140.3592,4140.611,,60,60,,,,,,,,,,,,,,,,bars/036.png,bars/mask000.png,,,,,,,,,,,,0,2,,,,,,,6,8,8,8,,,,,,,,,,,4139.8594,4140.3592,4140.611,4141.6427,space,1.0236,,4141.6427,85,40,4142.6427,4142.6427,4142.6438,,,,0,22,22,22,1,145,20,,,,,,,,
,,6545ffdbc2a670fa09573950,65af5643dc8991f4776b9f1a,2024-01-23_16h03.18.992,bars,2023.2.3,MacIntel,59.88023952,657b66ea316d21385b68909f,,,,,,,,,,,4142.644,4143.6426,,,4144.1447,4144.3933,,21,21,,,,,,,,,,,,,,,,bars/044.png,bars/mask002.png,,,,,,,,,,,,0,2,,,,,,,8,10,7,9,,,,,,,,,,,4143.6426,4144.1447,4144.3934,4145.627,space,1.2169,,4145.6271,54,46,4146.6278,4146.6278,4146.6356,,,,0,23,23,23,1,75,155,,,,,,,,
,,6545ffdbc2a670fa09573950,65af5643dc8991f4776b9f1a,2024-01-23_16h03.18.992,bars,2023.2.3,MacIntel,59.88023952,657b66ea316d21385b68909f,,,,,,,,,,,4146.6357,4147.6266,,,4148.1271,4148.3783,,102,102,,,,,,,,,,,,,,,,bars/017.png,bars/mask008.png,,,,,,,,,,,,0,1,,,,,,,6,10,7,10,,,,,,,,,,,4147.6266,4148.127,4148.3783,4150.1957,space,1.807,,4150.1957,43,57,4151.1925,4151.1925,4151.2007,,,,0,24,24,24,1,145,45,,,,,,,,
,,6545ffdbc2a670fa09573950,65af5643dc8991f4776b9f1a,2024-01-23_16h03.18.992,bars,2023.2.3,MacIntel,59.88023952,657b66ea316d21385b68909f,,,,,,,,,,,4151.2039,4152.1948,,,4152.6925,4152.9425,,130,130,,,,,,,,,,,,,,,,bars/032.png,bars/mask009.png,,,,,,,,,,,,3,1,,,,,,,4,8,4,8,,,,,,,,,,,4152.1948,4152.6925,4152.9425,4155.0593,space,2.1022,,4155.0594,5,70,4156.0599,4156.06,4156.0616,,,,0,25,25,25,1,125,20,,,,,,,,
,,6545ffdbc2a670fa09573950,65af5643dc8991f4776b9f1a,2024-01-23_16h03.18.992,bars,2023.2.3,MacIntel,59.88023952,657b66ea316d21385b68909f,,,,,,,,,,,4156.0618,4157.0599,,,4157.5599,4157.8116,,58,58,,,,,,,,,,,,,,,,bars/040.png,bars/mask004.png,,,,,,,,,,,,0,2,,,,,,,2,10,3,10,,,,,,,,,,,4157.0599,4157.5599,4157.8117,4163.8924,space,6.0664,,4163.8924,82,53,4164.8933,4164.8934,4164.9018,,,,0,26,26,26,1,140,5,,,,,,,,
,,6545ffdbc2a670fa09573950,65af5643dc8991f4776b9f1a,2024-01-23_16h03.18.992,bars,2023.2.3,MacIntel,59.88023952,657b66ea316d21385b68909f,,,,,,,,,,,4164.902,4165.8926,,,4166.3933,4166.6434,,145,145,,,,,,,,,,,,,,,,bars/018.png,bars/mask007.png,,,,,,,,,,,,0,1,,,,,,,0,8,0,9,,,,,,,,,,,4165.8926,4166.3933,4166.6434,4167.5764,space,0.9231,,4167.5765,5,55,4168.576,4168.576,4168.5772,,,,0,27,27,27,1,150,90,,,,,,,,
,,6545ffdbc2a670fa09573950,65af5643dc8991f4776b9f1a,2024-01-23_16h03.18.992,bars,2023.2.3,MacIntel,59.88023952,657b66ea316d21385b68909f,,,,,,,,,,,4168.5774,4169.5763,,,4170.0771,4170.3285,,79,79,,,,,,,,,,,,,,,,bars/007.png,bars/mask008.png,,,,,,,,,,,,2,2,,,,,,,0,10,0,10,,,,,,,,,,,4169.5763,4170.0771,4170.3285,4174.6758,space,4.3383,,4174.6759,84,24,4175.6768,4175.6768,4175.6852,,,,0,28,28,28,1,175,55,,,,,,,,
,,6545ffdbc2a670fa09573950,65af5643dc8991f4776b9f1a,2024-01-23_16h03.18.992,bars,2023.2.3,MacIntel,59.88023952,657b66ea316d21385b68909f,,,,,,,,,,,4175.6853,4176.6765,,,4177.176,4177.4269,,64,64,,,,,,,,,,,,,,,,bars/049.png,bars/mask009.png,,,,,,,,,,,,0,2,,,,,,,2,10,2,9,,,,,,,,,,,4176.6766,4177.176,4177.4269,4178.3263,space,0.8849,,4178.3263,84,51,4179.3268,4179.3268,4179.3274,,,,0,29,29,29,1,160,115,,,,,,,,
,,6545ffdbc2a670fa09573950,65af5643dc8991f4776b9f1a,2024-01-23_16h03.18.992,bars,2023.2.3,MacIntel,59.88023952,657b66ea316d21385b68909f,,,,,,,,,,,4179.3275,4180.3281,,,4180.8254,4181.0756,,8,8,,,,,,,,,,,,,,,,bars/033.png,bars/mask005.png,,,,,,,,,,,,0,1,,,,,,,0,8,0,8,,,,,,,,,,,4180.3281,4180.8254,4181.0756,4181.6268,space,0.5353,,4181.6268,17,33,4182.6269,4182.6269,4182.6281,,,,0,30,30,30,1,25,155,,,,,,,,
,,6545ffdbc2a670fa09573950,65af5643dc8991f4776b9f1a,2024-01-23_16h03.18.992,bars,2023.2.3,MacIntel,59.88023952,657b66ea316d21385b68909f,,,,,,,,,,,4182.6306,4183.6266,,,4184.1257,4184.3775,,165,165,,,,,,,,,,,,,,,,bars/025.png,bars/mask004.png,,,,,,,,,,,,0,2,,,,,,,2,10,3,9,,,,,,,,,,,4183.6266,4184.1256,4184.3775,4184.9786,space,0.5828,,4184.9786,60,55,4185.9768,4185.9768,4185.978,,,,0,31,31,31,1,105,40,,,,,,,,
,,6545ffdbc2a670fa09573950,65af5643dc8991f4776b9f1a,2024-01-23_16h03.18.992,bars,2023.2.3,MacIntel,59.88023952,657b66ea316d21385b68909f,,,,,,,,,,,4185.9782,4186.9759,,,4187.4769,4187.7281,,136,136,,,,,,,,,,,,,,,,bars/019.png,bars/mask005.png,,,,,,,,,,,,0,2,,,,,,,4,10,3,10,,,,,,,,,,,4186.976,4187.4769,4187.7281,4188.4262,space,0.6856,,4188.4263,89,31,4189.4267,4189.4268,4189.4273,,,,0,32,32,32,1,45,105,,,,,,,,
,,6545ffdbc2a670fa09573950,65af5643dc8991f4776b9f1a,2024-01-23_16h03.18.992,bars,2023.2.3,MacIntel,59.88023952,657b66ea316d21385b68909f,,,,,,,,,,,4189.4274,4190.4286,,,4190.9262,4191.1761,,101,101,,,,,,,,,,,,,,,,bars/044.png,bars/mask001.png,,,,,,,,,,,,1,1,,,,,,,2,10,4,10,,,,,,,,,,,4190.4286,4190.9262,4191.1761,4192.4938,space,1.309,,4192.4938,26,54,4193.4927,4193.4927,4193.494,,,,0,33,33,33,1,75,155,,,,,,,,
,,6545ffdbc2a670fa09573950,65af5643dc8991f4776b9f1a,2024-01-23_16h03.18.992,bars,2023.2.3,MacIntel,59.88023952,657b66ea316d21385b68909f,,,,,,,,,,,4193.4942,4194.4935,,,4194.9927,4195.2439,,40,40,,,,,,,,,,,,,,,,bars/001.png,bars/mask008.png,,,,,,,,,,,,0,2,,,,,,,0,8,0,8,,,,,,,,,,,4194.4936,4194.9927,4195.2439,4195.7767,space,0.5181,,4195.7767,90,45,4196.776,4196.776,4196.7774,,,,0,34,34,34,1,130,85,,,,,,,,
,,6545ffdbc2a670fa09573950,65af5643dc8991f4776b9f1a,2024-01-23_16h03.18.992,bars,2023.2.3,MacIntel,59.88023952,657b66ea316d21385b68909f,,,,,,,,,,,4196.7776,4197.7762,,,4198.2762,4198.5261,,11,11,,,,,,,,,,,,,,,,bars/025.png,bars/mask009.png,,,,,,,,,,,,0,2,,,,,,,2,6,2,6,,,,,,,,,,,4197.7762,4198.2761,4198.5261,4199.5439,space,1.0014,,4199.5439,86,29,4200.5452,4200.5452,4200.5527,,,,0,35,35,35,1,105,40,,,,,,,,
,,6545ffdbc2a670fa09573950,65af5643dc8991f4776b9f1a,2024-01-23_16h03.18.992,bars,2023.2.3,MacIntel,59.88023952,657b66ea316d21385b68909f,,,,,,,,,,,4200.5529,4201.5437,,,4202.0429,4202.2927,,152,152,,,,,,,,,,,,,,,,bars/036.png,bars/mask006.png,,,,,,,,,,,,3,1,,,,,,,4,4,4,4,,,,,,,,,,,4201.5437,4202.0429,4202.2927,4202.9952,space,0.6893,,4202.9952,7,48,4203.9938,4203.9938,4203.9948,,,,0,36,36,36,1,145,20,,,,,,,,
,,6545ffdbc2a670fa09573950,65af5643dc8991f4776b9f1a,2024-01-23_16h03.18.992,bars,2023.2.3,MacIntel,59.88023952,657b66ea316d21385b68909f,,,,,,,,,,,4203.995,4204.9949,,,4205.4933,4205.7436,,152,152,,,,,,,,,,,,,,,,bars/004.png,bars/mask001.png,,,,,,,,,,,,1,2,,,,,,,2,6,3,8,,,,,,,,,,,4204.9949,4205.4933,4205.7437,4206.3286,space,0.5697,,4206.3286,53,27,4207.3261,4207.3261,4207.3275,,,,0,37,37,37,1,25,125,,,,,,,,
,,6545ffdbc2a670fa09573950,65af5643dc8991f4776b9f1a,2024-01-23_16h03.18.992,bars,2023.2.3,MacIntel,59.88023952,657b66ea316d21385b68909f,,,,,,,,,,,4207.3276,4208.3268,,,4208.8269,4209.0762,,141,141,,,,,,,,,,,,,,,,bars/017.png,bars/mask008.png,,,,,,,,,,,,3,1,,,,,,,4,8,4,7,,,,,,,,,,,4208.3268,4208.8269,4209.0762,4209.5264,space,0.4349,,4209.5264,4,84,4210.5261,4210.5262,4210.5273,,,,0,38,38,38,1,145,45,,,,,,,,
,,6545ffdbc2a670fa09573950,65af5643dc8991f4776b9f1a,2024-01-23_16h03.18.992,bars,2023.2.3,MacIntel,59.88023952,657b66ea316d21385b68909f,,,,,,,,,,,4210.5274,4211.5261,,,4212.0282,4212.2783,,132,132,,,,,,,,,,,,,,,,bars/002.png,bars/mask002.png,,,,,,,,,,,,5,1,,,,,,,6,10,5,10,,,,,,,,,,,4211.5261,4212.0282,4212.2784,4212.7125,space,0.4251,,4212.7126,2,47,4213.7117,4213.7117,4213.7121,,,,0,39,39,39,1,130,85,,,,,,,,
,,6545ffdbc2a670fa09573950,65af5643dc8991f4776b9f1a,2024-01-23_16h03.18.992,bars,2023.2.3,MacIntel,59.88023952,657b66ea316d21385b68909f,,,,,,,,,,,4213.7123,4214.7094,,,4215.2096,4215.4601,,158,158,,,,,,,,,,,,,,,,bars/026.png,bars/mask004.png,,,,,,,,,,,,0,1,,,,,,,8,8,6,8,,,,,,,,,,,4214.7094,4215.2096,4215.4601,4215.8938,space,0.4267,,4215.8939,57,73,4216.8928,4216.8928,4216.8933,,,,0,40,40,40,1,35,85,,,,,,,,
,,6545ffdbc2a670fa09573950,65af5643dc8991f4776b9f1a,2024-01-23_16h03.18.992,bars,2023.2.3,MacIntel,59.88023952,657b66ea316d21385b68909f,,,,,,,,,,,4216.8935,4217.8928,,,4218.3953,4218.6452,,150,150,,,,,,,,,,,,,,,,bars/049.png,bars/mask008.png,,,,,,,,,,,,3,1,,,,,,,6,6,5,6,,,,,,,,,,,4217.8929,4218.3953,4218.6452,4219.093,space,0.4381,,4219.093,10,35,4220.093,4220.093,4220.0949,,,,0,41,41,41,1,160,115,,,,,,,,
,,6545ffdbc2a670fa09573950,65af5643dc8991f4776b9f1a,2024-01-23_16h03.18.992,bars,2023.2.3,MacIntel,59.88023952,657b66ea316d21385b68909f,,,,,,,,,,,4220.0951,4221.0951,,,4221.5929,4221.8437,,50,50,,,,,,,,,,,,,,,,bars/017.png,bars/mask008.png,,,,,,,,,,,,6,2,,,,,,,4,8,6,7,,,,,,,,,,,4221.0951,4221.5929,4221.8437,4222.3107,space,0.4489,,4222.3107,85,5,4223.3091,4223.3091,4223.3105,,,,0,42,42,42,1,145,45,,,,,,,,
,,6545ffdbc2a670fa09573950,65af5643dc8991f4776b9f1a,2024-01-23_16h03.18.992,bars,2023.2.3,MacIntel,59.88023952,657b66ea316d21385b68909f,,,,,,,,,,,4223.3106,4224.311,,,4224.8102,4225.0596,,73,73,,,,,,,,,,,,,,,,bars/023.png,bars/mask001.png,,,,,,,,,,,,0,2,,,,,,,6,10,5,9,,,,,,,,,,,4224.311,4224.8102,4225.0596,4225.5773,space,0.5017,,4225.5773,53,42,4226.5763,4226.5763,4226.5767,,,,0,43,43,43,1,20,115,,,,,,,,
,,6545ffdbc2a670fa09573950,65af5643dc8991f4776b9f1a,2024-01-23_16h03.18.992,bars,2023.2.3,MacIntel,59.88023952,657b66ea316d21385b68909f,,,,,,,,,,,4226.5768,4227.5764,,,4228.0784,4228.3286,,112,112,,,,,,,,,,,,,,,,bars/016.png,bars/mask007.png,,,,,,,,,,,,0,2,,,,,,,4,8,4,6,,,,,,,,,,,4227.5764,4228.0784,4228.3286,4229.1291,space,0.7886,,4229.1292,72,53,4230.1274,4230.1274,4230.1278,,,,0,44,44,44,1,40,165,,,,,,,,
,,6545ffdbc2a670fa09573950,65af5643dc8991f4776b9f1a,2024-01-23_16h03.18.992,bars,2023.2.3,MacIntel,59.88023952,657b66ea316d21385b68909f,,,,,,,,,,,4230.1281,4231.128,,,4231.6261,4231.8762,,136,136,,,,,,,,,,,,,,,,bars/018.png,bars/mask006.png,,,,,,,,,,,,3,1,,,,,,,6,10,6,8,,,,,,,,,,,4231.128,4231.626,4231.8762,4233.6284,space,1.7406,,4233.6284,14,46,4234.6269,4234.6269,4234.6357,,,,0,45,45,45,1,150,90,,,,,,,,
,,6545ffdbc2a670fa09573950,65af5643dc8991f4776b9f1a,2024-01-23_16h03.18.992,bars,2023.2.3,MacIntel,59.88023952,657b66ea316d21385b68909f,,,,,,,,,,,4234.636,4235.63,,,4236.127,4236.377,,174,-6,,,,,,,,,,,,,,,,bars/040.png,bars/mask008.png,,,,,,,,,,,,6,2,,,,,,,8,10,9,10,,,,,,,,,,,4235.63,4236.127,4236.377,4237.9764,space,1.584,,4237.9765,34,11,4238.9763,4238.9763,4238.9849,,,,0,46,46,46,1,140,5,,,,,,,,
,,6545ffdbc2a670fa09573950,65af5643dc8991f4776b9f1a,2024-01-23_16h03.18.992,bars,2023.2.3,MacIntel,59.88023952,657b66ea316d21385b68909f,,,,,,,,,,,4238.985,4239.9762,,,4240.4773,4240.7257,,68,68,,,,,,,,,,,,,,,,bars/009.png,bars/mask008.png,,,,,,,,,,,,0,2,,,,,,,10,8,10,8,,,,,,,,,,,4239.9763,4240.4772,4240.7257,4241.1764,space,0.4403,,4241.1764,53,37,4242.177,4242.177,4242.1774,,,,0,47,47,47,1,15,105,,,,,,,,
,,6545ffdbc2a670fa09573950,65af5643dc8991f4776b9f1a,2024-01-23_16h03.18.992,bars,2023.2.3,MacIntel,59.88023952,657b66ea316d21385b68909f,,,,,,,,,,,4242.1776,4243.1773,,,4243.6771,4243.9261,,54,54,,,,,,,,,,,,,,,,bars/038.png,bars/mask006.png,,,,,,,,,,,,3,2,,,,,,,10,6,10,7,,,,,,,,,,,4243.1773,4243.6771,4243.9261,4245.1439,space,1.2041,,4245.144,69,16,4246.1423,4246.1423,4246.148,,,,0,48,48,48,1,165,70,,,,,,,,
,,6545ffdbc2a670fa09573950,65af5643dc8991f4776b9f1a,2024-01-23_16h03.18.992,bars,2023.2.3,MacIntel,59.88023952,657b66ea316d21385b68909f,,,,,,,,,,,4246.1482,4247.1429,,,4247.6429,4247.8929,,123,123,,,,,,,,,,,,,,,,bars/041.png,bars/mask004.png,,,,,,,,,,,,0,2,,,,,,,8,8,8,7,,,,,,,,,,,4247.1429,4247.6429,4247.8929,4248.3288,space,0.4166,,4248.3288,77,38,4249.3263,4249.3263,4249.3267,,,,0,49,49,49,1,20,85,,,,,,,,
,,6545ffdbc2a670fa09573950,65af5643dc8991f4776b9f1a,2024-01-23_16h03.18.992,bars,2023.2.3,MacIntel,59.88023952,657b66ea316d21385b68909f,,,,,,,,,,,,,,,,,,,,,,,,,,,,,,,,,,,,,,,,,,,,,,,,,,,,,,,,,,,,,,,,,,,,,,,,,,,,,,,,,,,,,,,,,,,,,4249.3285,4309.3265,0,3,3,4,1,sequence_tables/blk032.csv
,,6545ffdbc2a670fa09573950,65af5643dc8991f4776b9f1a,2024-01-23_16h03.18.992,bars,2023.2.3,MacIntel,59.88023952,657b66ea316d21385b68909f,,,,,,,,,,,4339.6922,4340.6932,,,4341.1792,4341.4266,,149,149,,,,,,,,,,,,,,,,bars/015.png,bars/mask001.png,,,,,,,,,,,,4,2,,,,,,,7,5,7,6,,,,,,4309.3344,4339.679,space,30.328,,4340.6932,4341.1791,4341.4266,4342.8267,space,1.3848,,4342.8267,39,11,4343.8261,4343.8261,4343.8338,,,,0,0,0,0,1,110,160,,,,,,,,
,,6545ffdbc2a670fa09573950,65af5643dc8991f4776b9f1a,2024-01-23_16h03.18.992,bars,2023.2.3,MacIntel,59.88023952,657b66ea316d21385b68909f,,,,,,,,,,,4343.8339,4344.8267,,,4345.3275,4345.5771,,61,61,,,,,,,,,,,,,,,,bars/000.png,bars/mask009.png,,,,,,,,,,,,3,1,,,,,,,9,3,10,2,,,,,,,,,,,4344.8267,4345.3274,4345.5771,4348.9635,space,3.367,,4348.9636,21,84,4349.9627,4349.9627,4349.9712,,,,0,1,1,1,1,40,145,,,,,,,,
,,6545ffdbc2a670fa09573950,65af5643dc8991f4776b9f1a,2024-01-23_16h03.18.992,bars,2023.2.3,MacIntel,59.88023952,657b66ea316d21385b68909f,,,,,,,,,,,4349.9713,4350.9596,,,4351.4605,4351.7108,,120,120,,,,,,,,,,,,,,,,bars/043.png,bars/mask003.png,,,,,,,,,,,,1,2,,,,,,,7,1,6,2,,,,,,,,,,,4350.9596,4351.4605,4351.7108,4352.1954,space,0.467,,4352.1955,90,10,4353.1933,4353.1933,4353.1946,,,,0,2,2,2,1,30,130,,,,,,,,
,,6545ffdbc2a670fa09573950,65af5643dc8991f4776b9f1a,2024-01-23_16h03.18.992,bars,2023.2.3,MacIntel,59.88023952,657b66ea316d21385b68909f,,,,,,,,,,,4353.2,4354.1932,,,4354.6933,4354.9428,,16,16,,,,,,,,,,,,,,,,bars/042.png,bars/mask001.png,,,,,,,,,,,,0,1,,,,,,,5,3,5,2,,,,,,,,,,,4354.1933,4354.6933,4354.9428,4356.2126,space,1.2521,,4356.2127,51,59,4357.2112,4357.2112,4357.2126,,,,0,3,3,3,1,145,75,,,,,,,,
,,6545ffdbc2a670fa09573950,65af5643dc8991f4776b9f1a,2024-01-23_16h03.18.992,bars,2023.2.3,MacIntel,59.88023952,657b66ea316d21385b68909f,,,,,,,,,,,4357.2128,4358.2095,,,4358.7101,4358.9601,,148,148,,,,,,,,,,,,,,,,bars/042.png,bars/mask002.png,,,,,,,,,,,,5,1,,,,,,,7,1,6,2,,,,,,,,,,,4358.2096,4358.7101,4358.9601,4360.0105,space,1.042,,4360.0105,3,73,4361.0094,4361.0094,4361.0098,,,,0,4,4,4,1,145,75,,,,,,,,
,,6545ffdbc2a670fa09573950,65af5643dc8991f4776b9f1a,2024-01-23_16h03.18.992,bars,2023.2.3,MacIntel,59.88023952,657b66ea316d21385b68909f,,,,,,,,,,,4361.01,4362.0108,,,4362.51,4362.7601,,50,50,,,,,,,,,,,,,,,,bars/029.png,bars/mask004.png,,,,,,,,,,,,0,2,,,,,,,5,0,5,0,,,,,,,,,,,4362.0108,4362.51,4362.7601,4363.9596,space,1.1913,,4363.9597,40,5,4364.96,4364.96,4364.9613,,,,0,5,5,5,1,90,45,,,,,,,,
,,6545ffdbc2a670fa09573950,65af5643dc8991f4776b9f1a,2024-01-23_16h03.18.992,bars,2023.2.3,MacIntel,59.88023952,657b66ea316d21385b68909f,,,,,,,,,,,4364.963,4365.9601,,,4366.4606,4366.71,,135,135,,,,,,,,,,,,,,,,bars/045.png,bars/mask004.png,,,,,,,,,,,,0,1,,,,,,,7,2,8,3,,,,,,,,,,,4365.9601,4366.4606,4366.71,4369.6935,space,2.9672,,4369.6935,35,55,4370.6928,4370.6929,4370.7013,,,,0,6,6,6,1,100,10,,,,,,,,
,,6545ffdbc2a670fa09573950,65af5643dc8991f4776b9f1a,2024-01-23_16h03.18.992,bars,2023.2.3,MacIntel,59.88023952,657b66ea316d21385b68909f,,,,,,,,,,,4370.7014,4371.6934,,,4372.1934,4372.4433,,149,149,,,,,,,,,,,,,,,,bars/044.png,bars/mask000.png,,,,,,,,,,,,1,2,,,,,,,9,0,10,1,,,,,,,,,,,4371.6934,4372.1934,4372.4433,4374.7277,space,2.2665,,4374.7277,74,6,4375.7283,4375.7283,4375.7368,,,,0,7,7,7,1,75,155,,,,,,,,
,,6545ffdbc2a670fa09573950,65af5643dc8991f4776b9f1a,2024-01-23_16h03.18.992,bars,2023.2.3,MacIntel,59.88023952,657b66ea316d21385b68909f,,,,,,,,,,,4375.737,4376.7277,,,4377.2277,4377.4777,,94,94,,,,,,,,,,,,,,,,bars/012.png,bars/mask009.png,,,,,,,,,,,,5,1,,,,,,,7,0,6,0,,,,,,,,,,,4376.7277,4377.2276,4377.4777,4379.5269,space,2.0336,,4379.527,4,79,4380.5263,4380.5263,4380.5348,,,,0,8,8,8,1,90,15,,,,,,,,
