init_variables.started,init_variables.stopped,participant,session,date,expName,psychopyVersion,OS,frameRate,study_id,instruction_exp.started,instruction_exp.stopped,key_resp_8.keys,key_resp_8.rt,key_resp_8.duration,instruction_single.started,instruction_single.stopped,key_resp_2.keys,key_resp_2.rt,key_resp_2.duration,interval.started,interval.stopped,cue_single.started,cue_single.stopped,mask.started,mask.stopped,ori_response_single.started,res_ori,res,ori_response_single.stopped,key_resp_single.keys,key_resp_single.rt,key_resp_single.duration,disp_single.started,disp_single.stopped,key_resp.keys,key_resp.rt,key_resp.duration,single.thisRepN,single.thisTrialN,single.thisN,single.thisIndex,single.ran,ori,path,mask_path,instruction_bandit.started,instruction_bandit.stopped,key_resp_6.keys,key_resp_6.rt,key_resp_6.duration,cue_bandit.started,cue_bandit.stopped,bandit_res.keys,bandit_res.rt,bandit_res.duration,outcome_bandit.started,rew,action,outcome_bandit.stopped,bandit.thisRepN,bandit.thisTrialN,bandit.thisN,bandit.thisIndex,bandit.ran,actual_rew1,actual_rew2,rew1,rew2,instruction_task.started,instruction_task.stopped,key_resp_7.keys,key_resp_7.rt,key_resp_7.duration,wait_ready.started,wait_ready.stopped,key_resp_3.keys,key_resp_3.rt,key_resp_3.duration,cue.started,cue.stopped,ori_response.started,ori_response.stopped,key_resp_5.keys,key_resp_5.rt,key_resp_5.duration,outcome.started,diff1,diff2,outcome.stopped,disp_outcome_practice.started,disp_outcome_practice.stopped,key_resp_4.keys,key_resp_4.rt,key_resp_4.duration,trials.thisRepN,trials.thisTrialN,trials.thisN,trials.thisIndex,trials.ran,ori1,ori2,break_blk.started,break_blk.stopped,block.thisRepN,block.thisTrialN,block.thisN,block.thisIndex,block.ran,condition_file
0.0002,0.0003,6113113ee1e4e6df85ec7e8a,65af567f8504a42db6af7fd0,2024-01-23_24h03.30.972,bars,2023.2.3,Win32,60.60606061,657b66ea316d21385b68909f,,,,,,,,,,,,,,,,,,,,,,,,,,,,,,,,,,,,,,,,,,,,,,,,,,,,,,,,,,,,,,,,,,,,,,,,,,,,,,,,,,,,,,,,,,,,,,,,,,,,
,,6113113ee1e4e6df85ec7e8a,65af567f8504a42db6af7fd0,2024-01-23_24h03.30.972,bars,2023.2.3,Win32,60.60606061,657b66ea316d21385b68909f,0.0005,267.274,y,267.2536,,,,,,,,,,,,,,,,,,,,,,,,,,,,,,,,,,,,,,,,,,,,,,,,,,,,,,,,,,,,,,,,,,,,,,,,,,,,,,,,,,,,,,,,,,,,,,,,
,,6113113ee1e4e6df85ec7e8a,65af567f8504a42db6af7fd0,2024-01-23_24h03.30.972,bars,2023.2.3,Win32,60.60606061,657b66ea316d21385b68909f,,,,,,267.2741,359.8288,space,92.5353,,,,,,,,,,,,,,,,,,,,,,,,,,,,,,,,,,,,,,,,,,,,,,,,,,,,,,,,,,,,,,,,,,,,,,,,,,,,,,,,,,,,,,,,,,,
,,6113113ee1e4e6df85ec7e8a,65af567f8504a42db6af7fd0,2024-01-23_24h03.30.972,bars,2023.2.3,Win32,60.60606061,657b66ea316d21385b68909f,,,,,,,,,,,359.8341,360.8276,360.8278,361.3273,361.3275,361.5811,361.5812,53,53,367.8462,space,6.2478,,367.8463,430.0556,space,62.1848,,0,0,0,5,1,55,bars/single005.png,bars/mask008.png,,,,,,,,,,,,,,,,,,,,,,,,,,,,,,,,,,,,,,,,,,,,,,,,,,,,,,,,,,,,,,,,
,,6113113ee1e4e6df85ec7e8a,65af567f8504a42db6af7fd0,2024-01-23_24h03.30.972,bars,2023.2.3,Win32,60.60606061,657b66ea316d21385b68909f,,,,,,,,,,,430.0632,431.0536,431.0537,431.557,431.557,431.8034,431.8034,37,37,435.5396,space,3.7156,,435.5397,437.6343,space,2.0751,,0,1,1,7,1,45,bars/single007.png,bars/mask009.png,,,,,,,,,,,,,,,,,,,,,,,,,,,,,,,,,,,,,,,,,,,,,,,,,,,,,,,,,,,,,,,,
,,6113113ee1e4e6df85ec7e8a,65af567f8504a42db6af7fd0,2024-01-23_24h03.30.972,bars,2023.2.3,Win32,60.60606061,657b66ea316d21385b68909f,,,,,,,,,,,437.6353,438.6376,438.6376,439.1338,439.1338,439.3837,439.3838,174,174,444.0028,space,4.5988,,444.0029,446.1813,space,2.1616,,0,2,2,6,1,175,bars/single006.png,bars/mask005.png,,,,,,,,,,,,,,,,,,,,,,,,,,,,,,,,,,,,,,,,,,,,,,,,,,,,,,,,,,,,,,,,
,,6113113ee1e4e6df85ec7e8a,65af567f8504a42db6af7fd0,2024-01-23_24h03.30.972,bars,2023.2.3,Win32,60.60606061,657b66ea316d21385b68909f,,,,,,,,,,,446.1917,447.1815,447.1816,447.6814,447.6814,447.9313,447.9313,41,41,452.1675,space,4.2157,,452.1675,454.4498,space,2.2663,,0,3,3,3,1,20,bars/single003.png,bars/mask005.png,,,,,,,,,,,,,,,,,,,,,,,,,,,,,,,,,,,,,,,,,,,,,,,,,,,,,,,,,,,,,,,,
,,6113113ee1e4e6df85ec7e8a,65af567f8504a42db6af7fd0,2024-01-23_24h03.30.972,bars,2023.2.3,Win32,60.60606061,657b66ea316d21385b68909f,,,,,,,,,,,454.4565,455.4451,455.4451,455.9486,455.9486,456.195,456.1952,22,202,461.4462,space,5.2307,,461.4462,462.8471,space,1.3834,,0,4,4,9,1,20,bars/single009.png,bars/mask006.png,,,,,,,,,,,,,,,,,,,,,,,,,,,,,,,,,,,,,,,,,,,,,,,,,,,,,,,,,,,,,,,,
,,6113113ee1e4e6df85ec7e8a,65af567f8504a42db6af7fd0,2024-01-23_24h03.30.972,bars,2023.2.3,Win32,60.60606061,657b66ea316d21385b68909f,,,,,,,,,,,462.8472,463.8425,463.8425,464.3422,464.3423,464.5922,464.5923,150,150,466.7414,space,2.1244,,466.7415,469.5614,space,2.7995,,0,5,5,0,1,150,bars/single000.png,bars/mask006.png,,,,,,,,,,,,,,,,,,,,,,,,,,,,,,,,,,,,,,,,,,,,,,,,,,,,,,,,,,,,,,,,
,,6113113ee1e4e6df85ec7e8a,65af567f8504a42db6af7fd0,2024-01-23_24h03.30.972,bars,2023.2.3,Win32,60.60606061,657b66ea316d21385b68909f,,,,,,,,,,,469.5615,470.5568,470.5568,471.0566,471.0566,471.3066,471.3066,151,151,474.7054,space,3.3697,,474.7054,476.638,space,1.9105,,0,6,6,8,1,160,bars/single008.png,bars/mask004.png,,,,,,,,,,,,,,,,,,,,,,,,,,,,,,,,,,,,,,,,,,,,,,,,,,,,,,,,,,,,,,,,
,,6113113ee1e4e6df85ec7e8a,65af567f8504a42db6af7fd0,2024-01-23_24h03.30.972,bars,2023.2.3,Win32,60.60606061,657b66ea316d21385b68909f,,,,,,,,,,,476.6385,477.6414,477.6415,478.14,478.1401,478.3872,478.3872,129,129,481.5198,space,3.1077,,481.5198,483.2523,space,1.7103,,0,7,7,2,1,145,bars/single002.png,bars/mask003.png,,,,,,,,,,,,,,,,,,,,,,,,,,,,,,,,,,,,,,,,,,,,,,,,,,,,,,,,,,,,,,,,
,,6113113ee1e4e6df85ec7e8a,65af567f8504a42db6af7fd0,2024-01-23_24h03.30.972,bars,2023.2.3,Win32,60.60606061,657b66ea316d21385b68909f,,,,,,,,,,,483.2527,484.2554,484.2555,484.752,484.7521,485.0019,485.0019,95,95,487.855,space,2.8328,,487.8551,490.0543,space,2.1829,,0,8,8,4,1,95,bars/single004.png,bars/mask004.png,,,,,,,,,,,,,,,,,,,,,,,,,,,,,,,,,,,,,,,,,,,,,,,,,,,,,,,,,,,,,,,,
,,6113113ee1e4e6df85ec7e8a,65af567f8504a42db6af7fd0,2024-01-23_24h03.30.972,bars,2023.2.3,Win32,60.60606061,657b66ea316d21385b68909f,,,,,,,,,,,490.0545,491.0499,491.0499,491.5496,491.5497,491.7996,491.7996,25,205,496.7188,space,4.8989,,496.7188,498.4973,space,1.7601,,0,9,9,1,1,20,bars/single001.png,bars/mask006.png,,,,,,,,,,,,,,,,,,,,,,,,,,,,,,,,,,,,,,,,,,,,,,,,,,,,,,,,,,,,,,,,
,,6113113ee1e4e6df85ec7e8a,65af567f8504a42db6af7fd0,2024-01-23_24h03.30.972,bars,2023.2.3,Win32,60.60606061,657b66ea316d21385b68909f,,,,,,,,,,,,,,,,,,,,,,,,,,,,,,,,,,,,,498.4987,567.0251,space,68.5028,,,,,,,,,,,,,,,,,,,,,,,,,,,,,,,,,,,,,,,,,,,,,,,,,,,,,,,,,,,,
,,6113113ee1e4e6df85ec7e8a,65af567f8504a42db6af7fd0,2024-01-23_24h03.30.972,bars,2023.2.3,Win32,60.60606061,657b66ea316d21385b68909f,,,,,,,,,,,,,,,,,,,,,,,,,,,,,,,,,,,,,,,,,,567.0357,568.1906,left,1.1376,,568.1912,9,1,569.1901,0,0,0,0,1,9,1,9,2,,,,,,,,,,,,,,,,,,,,,,,,,,,,,,,,,,,,,,,,,
,,6113113ee1e4e6df85ec7e8a,65af567f8504a42db6af7fd0,2024-01-23_24h03.30.972,bars,2023.2.3,Win32,60.60606061,657b66ea316d21385b68909f,,,,,,,,,,,,,,,,,,,,,,,,,,,,,,,,,,,,,,,,,,569.1915,570.2756,left,1.0651,,570.2756,10,1,571.2725,0,1,1,1,1,10,0,10,1,,,,,,,,,,,,,,,,,,,,,,,,,,,,,,,,,,,,,,,,,
,,6113113ee1e4e6df85ec7e8a,65af567f8504a42db6af7fd0,2024-01-23_24h03.30.972,bars,2023.2.3,Win32,60.60606061,657b66ea316d21385b68909f,,,,,,,,,,,,,,,,,,,,,,,,,,,,,,,,,,,,,,,,,,571.2728,571.8725,right,0.5676,,571.8725,2,2,572.872,0,2,2,2,1,10,2,10,2,,,,,,,,,,,,,,,,,,,,,,,,,,,,,,,,,,,,,,,,,
,,6113113ee1e4e6df85ec7e8a,65af567f8504a42db6af7fd0,2024-01-23_24h03.30.972,bars,2023.2.3,Win32,60.60606061,657b66ea316d21385b68909f,,,,,,,,,,,,,,,,,,,,,,,,,,,,,,,,,,,,,,,,,,572.8722,573.605,right,0.7007,,573.605,3,2,574.6048,0,3,3,3,1,8,4,7,3,,,,,,,,,,,,,,,,,,,,,,,,,,,,,,,,,,,,,,,,,
,,6113113ee1e4e6df85ec7e8a,65af567f8504a42db6af7fd0,2024-01-23_24h03.30.972,bars,2023.2.3,Win32,60.60606061,657b66ea316d21385b68909f,,,,,,,,,,,,,,,,,,,,,,,,,,,,,,,,,,,,,,,,,,574.6051,575.1547,right,0.5174,,575.1548,1,2,576.1542,0,4,4,4,1,6,2,5,1,,,,,,,,,,,,,,,,,,,,,,,,,,,,,,,,,,,,,,,,,
,,6113113ee1e4e6df85ec7e8a,65af567f8504a42db6af7fd0,2024-01-23_24h03.30.972,bars,2023.2.3,Win32,60.60606061,657b66ea316d21385b68909f,,,,,,,,,,,,,,,,,,,,,,,,,,,,,,,,,,,,,,,,,,576.1546,576.604,left,0.4233,,576.6041,4,1,577.6036,0,5,5,5,1,4,4,4,4,,,,,,,,,,,,,,,,,,,,,,,,,,,,,,,,,,,,,,,,,
,,6113113ee1e4e6df85ec7e8a,65af567f8504a42db6af7fd0,2024-01-23_24h03.30.972,bars,2023.2.3,Win32,60.60606061,657b66ea316d21385b68909f,,,,,,,,,,,,,,,,,,,,,,,,,,,,,,,,,,,,,,,,,,577.6039,578.0872,left,0.4557,,578.0872,1,1,579.0865,0,6,6,6,1,2,2,1,2,,,,,,,,,,,,,,,,,,,,,,,,,,,,,,,,,,,,,,,,,
,,6113113ee1e4e6df85ec7e8a,65af567f8504a42db6af7fd0,2024-01-23_24h03.30.972,bars,2023.2.3,Win32,60.60606061,657b66ea316d21385b68909f,,,,,,,,,,,,,,,,,,,,,,,,,,,,,,,,,,,,,,,,,,579.0868,579.3199,right,0.2046,,579.3199,1,2,580.3196,0,7,7,7,1,0,0,0,1,,,,,,,,,,,,,,,,,,,,,,,,,,,,,,,,,,,,,,,,,
,,6113113ee1e4e6df85ec7e8a,65af567f8504a42db6af7fd0,2024-01-23_24h03.30.972,bars,2023.2.3,Win32,60.60606061,657b66ea316d21385b68909f,,,,,,,,,,,,,,,,,,,,,,,,,,,,,,,,,,,,,,,,,,580.3199,580.386,left,0.045,,580.386,1,1,581.3858,0,8,8,8,1,0,2,1,0,,,,,,,,,,,,,,,,,,,,,,,,,,,,,,,,,,,,,,,,,
,,6113113ee1e4e6df85ec7e8a,65af567f8504a42db6af7fd0,2024-01-23_24h03.30.972,bars,2023.2.3,Win32,60.60606061,657b66ea316d21385b68909f,,,,,,,,,,,,,,,,,,,,,,,,,,,,,,,,,,,,,,,,,,581.386,581.6525,left,0.2393,,581.6525,2,1,582.6521,0,9,9,9,1,2,4,2,3,,,,,,,,,,,,,,,,,,,,,,,,,,,,,,,,,,,,,,,,,
,,6113113ee1e4e6df85ec7e8a,65af567f8504a42db6af7fd0,2024-01-23_24h03.30.972,bars,2023.2.3,Win32,60.60606061,657b66ea316d21385b68909f,,,,,,,,,,,,,,,,,,,,,,,,,,,,,,,,,,,,,,,,,,582.6524,583.0187,left,0.3359,,583.0188,0,1,584.0183,0,10,10,10,1,0,2,0,3,,,,,,,,,,,,,,,,,,,,,,,,,,,,,,,,,,,,,,,,,
,,6113113ee1e4e6df85ec7e8a,65af567f8504a42db6af7fd0,2024-01-23_24h03.30.972,bars,2023.2.3,Win32,60.60606061,657b66ea316d21385b68909f,,,,,,,,,,,,,,,,,,,,,,,,,,,,,,,,,,,,,,,,,,584.019,584.3348,left,0.2887,,584.3349,0,1,585.3379,0,11,11,11,1,0,4,0,3,,,,,,,,,,,,,,,,,,,,,,,,,,,,,,,,,,,,,,,,,
,,6113113ee1e4e6df85ec7e8a,65af567f8504a42db6af7fd0,2024-01-23_24h03.30.972,bars,2023.2.3,Win32,60.60606061,657b66ea316d21385b68909f,,,,,,,,,,,,,,,,,,,,,,,,,,,,,,,,,,,,,,,,,,585.3382,585.7883,left,0.4336,,585.7883,1,1,586.7839,0,12,12,12,1,2,6,1,6,,,,,,,,,,,,,,,,,,,,,,,,,,,,,,,,,,,,,,,,,
,,6113113ee1e4e6df85ec7e8a,65af567f8504a42db6af7fd0,2024-01-23_24h03.30.972,bars,2023.2.3,Win32,60.60606061,657b66ea316d21385b68909f,,,,,,,,,,,,,,,,,,,,,,,,,,,,,,,,,,,,,,,,,,586.7842,587.0339,right,0.2225,,587.0339,3,2,588.0372,0,13,13,13,1,0,4,1,3,,,,,,,,,,,,,,,,,,,,,,,,,,,,,,,,,,,,,,,,,
,,6113113ee1e4e6df85ec7e8a,65af567f8504a42db6af7fd0,2024-01-23_24h03.30.972,bars,2023.2.3,Win32,60.60606061,657b66ea316d21385b68909f,,,,,,,,,,,,,,,,,,,,,,,,,,,,,,,,,,,,,,,,,,588.0374,588.3167,right,0.2614,,588.3167,7,2,589.3164,0,14,14,14,1,2,6,2,7,,,,,,,,,,,,,,,,,,,,,,,,,,,,,,,,,,,,,,,,,
,,6113113ee1e4e6df85ec7e8a,65af567f8504a42db6af7fd0,2024-01-23_24h03.30.972,bars,2023.2.3,Win32,60.60606061,657b66ea316d21385b68909f,,,,,,,,,,,,,,,,,,,,,,,,,,,,,,,,,,,,,,,,,,589.3166,589.6664,right,0.3174,,589.6664,9,2,590.6658,0,15,15,15,1,4,8,3,9,,,,,,,,,,,,,,,,,,,,,,,,,,,,,,,,,,,,,,,,,
,,6113113ee1e4e6df85ec7e8a,65af567f8504a42db6af7fd0,2024-01-23_24h03.30.972,bars,2023.2.3,Win32,60.60606061,657b66ea316d21385b68909f,,,,,,,,,,,,,,,,,,,,,,,,,,,,,,,,,,,,,,,,,,590.666,590.9354,right,0.2493,,590.9354,7,2,591.9322,0,16,16,16,1,6,6,7,7,,,,,,,,,,,,,,,,,,,,,,,,,,,,,,,,,,,,,,,,,
,,6113113ee1e4e6df85ec7e8a,65af567f8504a42db6af7fd0,2024-01-23_24h03.30.972,bars,2023.2.3,Win32,60.60606061,657b66ea316d21385b68909f,,,,,,,,,,,,,,,,,,,,,,,,,,,,,,,,,,,,,,,,,,591.9324,592.532,right,0.5718,,592.5321,5,2,593.5314,0,17,17,17,1,8,4,9,5,,,,,,,,,,,,,,,,,,,,,,,,,,,,,,,,,,,,,,,,,
,,6113113ee1e4e6df85ec7e8a,65af567f8504a42db6af7fd0,2024-01-23_24h03.30.972,bars,2023.2.3,Win32,60.60606061,657b66ea316d21385b68909f,,,,,,,,,,,,,,,,,,,,,,,,,,,,,,,,,,,,,,,,,,593.5317,593.8483,left,0.2869,,593.8483,5,1,594.8502,0,18,18,18,1,6,2,5,1,,,,,,,,,,,,,,,,,,,,,,,,,,,,,,,,,,,,,,,,,
,,6113113ee1e4e6df85ec7e8a,65af567f8504a42db6af7fd0,2024-01-23_24h03.30.972,bars,2023.2.3,Win32,60.60606061,657b66ea316d21385b68909f,,,,,,,,,,,,,,,,,,,,,,,,,,,,,,,,,,,,,,,,,,594.8504,595.1518,left,0.2839,,595.1518,7,1,596.1474,0,19,19,19,1,8,0,7,0,,,,,,,,,,,,,,,,,,,,,,,,,,,,,,,,,,,,,,,,,
,,6113113ee1e4e6df85ec7e8a,65af567f8504a42db6af7fd0,2024-01-23_24h03.30.972,bars,2023.2.3,Win32,60.60606061,657b66ea316d21385b68909f,,,,,,,,,,,,,,,,,,,,,,,,,,,,,,,,,,,,,,,,,,,,,,,,,,,,,,,,,,,,596.1488,608.5276,space,12.3483,,,,,,,,,,,,,,,,,,,,,,,,,,,,,,,,,,,,,
,,6113113ee1e4e6df85ec7e8a,65af567f8504a42db6af7fd0,2024-01-23_24h03.30.972,bars,2023.2.3,Win32,60.60606061,657b66ea316d21385b68909f,,,,,,,,,,,609.8969,610.8923,,,611.3924,611.6422,,84,84,,,,,,,,,,,,,,,,bars/042.png,bars/mask000.png,,,,,,,,,,,,1,2,,,,,,,5,5,5,2,,,,,,608.5367,609.8926,space,1.3337,,610.8925,611.3923,611.6423,617.3748,space,5.7013,,617.3757,61,9,618.3733,618.3735,630.0571,space,11.6631,,0,0,0,0,1,145,75,,,,,,,,
,,6113113ee1e4e6df85ec7e8a,65af567f8504a42db6af7fd0,2024-01-23_24h03.30.972,bars,2023.2.3,Win32,60.60606061,657b66ea316d21385b68909f,,,,,,,,,,,630.0655,631.0724,,,631.5722,631.8191,,40,220,,,,,,,,,,,,,,,,bars/034.png,bars/mask005.png,,,,,,,,,,,,1,2,,,,,,,7,3,8,4,,,,,,,,,,,631.0725,631.5722,631.8194,635.4174,space,3.5661,,635.4175,85,25,636.4207,636.4207,639.8201,space,3.3828,,0,1,1,1,1,125,65,,,,,,,,
,,6113113ee1e4e6df85ec7e8a,65af567f8504a42db6af7fd0,2024-01-23_24h03.30.972,bars,2023.2.3,Win32,60.60606061,657b66ea316d21385b68909f,,,,,,,,,,,639.8203,640.8155,,,641.3191,641.5652,,47,227,,,,,,,,,,,,,,,,bars/031.png,bars/mask006.png,,,,,,,,,,,,4,2,,,,,,,5,5,4,6,,,,,,,,,,,640.8155,641.319,641.5653,646.1679,space,4.5822,,646.1679,73,12,647.1635,647.1635,648.6963,space,1.5067,,0,2,2,2,1,120,35,,,,,,,,
,,6113113ee1e4e6df85ec7e8a,65af567f8504a42db6af7fd0,2024-01-23_24h03.30.972,bars,2023.2.3,Win32,60.60606061,657b66ea316d21385b68909f,,,,,,,,,,,648.6969,649.6959,,,650.1956,650.4456,,135,135,,,,,,,,,,,,,,,,bars/028.png,bars/mask001.png,,,,,,,,,,,,4,2,,,,,,,7,7,7,7,,,,,,,,,,,649.6959,650.1956,650.4457,654.9315,space,4.4654,,654.9316,90,15,655.9309,655.9309,658.3758,space,2.428,,0,3,3,3,1,45,120,,,,,,,,
,,6113113ee1e4e6df85ec7e8a,65af567f8504a42db6af7fd0,2024-01-23_24h03.30.972,bars,2023.2.3,Win32,60.60606061,657b66ea316d21385b68909f,,,,,,,,,,,658.384,659.3754,,,659.8768,660.1256,,16,196,,,,,,,,,,,,,,,,bars/007.png,bars/mask004.png,,,,,,,,,,,,2,1,,,,,,,5,5,6,4,,,,,,,,,,,659.3754,659.8765,660.1256,663.7451,space,3.5993,,663.7451,21,39,664.7408,664.7408,667.3733,space,2.6003,,0,4,4,4,1,175,55,,,,,,,,
,,6113113ee1e4e6df85ec7e8a,65af567f8504a42db6af7fd0,2024-01-23_24h03.30.972,bars,2023.2.3,Win32,60.60606061,657b66ea316d21385b68909f,,,,,,,,,,,667.374,668.3725,,,668.8727,669.1226,,12,192,,,,,,,,,,,,,,,,bars/012.png,bars/mask009.png,,,,,,,,,,,,7,2,,,,,,,7,7,8,8,,,,,,,,,,,668.3726,668.8726,669.1226,672.409,space,3.2662,,672.4091,78,3,673.4044,673.4044,674.7706,space,1.34,,0,5,5,5,1,90,15,,,,,,,,
,,6113113ee1e4e6df85ec7e8a,65af567f8504a42db6af7fd0,2024-01-23_24h03.30.972,bars,2023.2.3,Win32,60.60606061,657b66ea316d21385b68909f,,,,,,,,,,,674.7715,675.7704,,,676.2703,676.52,,32,32,,,,,,,,,,,,,,,,bars/026.png,bars/mask002.png,,,,,,,,,,,,6,1,,,,,,,9,9,7,9,,,,,,,,,,,675.7704,676.2703,676.52,677.7241,space,1.1837,,677.7242,3,53,678.7191,678.7192,680.1854,space,1.4338,,0,6,6,6,1,35,85,,,,,,,,
,,6113113ee1e4e6df85ec7e8a,65af567f8504a42db6af7fd0,2024-01-23_24h03.30.972,bars,2023.2.3,Win32,60.60606061,657b66ea316d21385b68909f,,,,,,,,,,,680.1857,681.1851,,,681.685,681.9387,,151,151,,,,,,,,,,,,,,,,bars/038.png,bars/mask004.png,,,,,,,,,,,,5,1,,,,,,,10,10,10,8,,,,,,,,,,,681.1852,681.685,681.9387,683.7842,space,1.8254,,683.7843,14,81,684.7839,684.784,685.9829,space,1.1787,,0,7,7,7,1,165,70,,,,,,,,
,,6113113ee1e4e6df85ec7e8a,65af567f8504a42db6af7fd0,2024-01-23_24h03.30.972,bars,2023.2.3,Win32,60.60606061,657b66ea316d21385b68909f,,,,,,,,,,,685.9836,686.9831,,,687.4869,687.7329,,21,201,,,,,,,,,,,,,,,,bars/032.png,bars/mask007.png,,,,,,,,,,,,10,2,,,,,,,10,10,10,10,,,,,,,,,,,686.9832,687.4869,687.7329,690.6985,space,2.9403,,690.6986,76,1,691.6982,691.6983,692.9145,space,1.1866,,0,8,8,8,1,125,20,,,,,,,,
,,6113113ee1e4e6df85ec7e8a,65af567f8504a42db6af7fd0,2024-01-23_24h03.30.972,bars,2023.2.3,Win32,60.60606061,657b66ea316d21385b68909f,,,,,,,,,,,692.9148,693.9139,,,694.4139,694.664,,32,32,,,,,,,,,,,,,,,,bars/035.png,bars/mask005.png,,,,,,,,,,,,1,2,,,,,,,8,10,9,10,,,,,,,,,,,693.9139,694.4139,694.664,696.5626,space,1.8781,,696.5627,37,28,697.5664,697.5664,699.129,space,1.5351,,0,9,9,9,1,175,60,,,,,,,,
,,6113113ee1e4e6df85ec7e8a,65af567f8504a42db6af7fd0,2024-01-23_24h03.30.972,bars,2023.2.3,Win32,60.60606061,657b66ea316d21385b68909f,,,,,,,,,,,699.1298,700.1287,,,700.6285,700.8784,,61,61,,,,,,,,,,,,,,,,bars/026.png,bars/mask002.png,,,,,,,,,,,,1,2,,,,,,,6,8,7,7,,,,,,,,,,,700.1287,700.6285,700.8785,705.3268,space,4.4265,,705.3268,26,24,706.329,706.329,709.1465,space,2.7995,,0,10,10,10,1,35,85,,,,,,,,
,,6113113ee1e4e6df85ec7e8a,65af567f8504a42db6af7fd0,2024-01-23_24h03.30.972,bars,2023.2.3,Win32,60.60606061,657b66ea316d21385b68909f,,,,,,,,,,,709.1532,710.1419,,,710.6417,710.8917,,139,139,,,,,,,,,,,,,,,,bars/049.png,bars/mask005.png,,,,,,,,,,,,2,1,,,,,,,4,6,5,5,,,,,,,,,,,710.1419,710.6417,710.8918,715.5607,space,4.6487,,715.5608,21,24,716.5563,716.5564,717.6561,space,1.0672,,0,11,11,11,1,160,115,,,,,,,,
,,6113113ee1e4e6df85ec7e8a,65af567f8504a42db6af7fd0,2024-01-23_24h03.30.972,bars,2023.2.3,Win32,60.60606061,657b66ea316d21385b68909f,,,,,,,,,,,717.6565,718.6556,,,719.1556,719.4053,,53,53,,,,,,,,,,,,,,,,bars/025.png,bars/mask004.png,,,,,,,,,,,,2,2,,,,,,,6,4,6,3,,,,,,,,,,,718.6556,719.1555,719.4053,721.2577,space,1.8321,,721.2578,52,13,722.2539,722.2539,723.6207,space,1.3343,,0,12,12,12,1,105,40,,,,,,,,
,,6113113ee1e4e6df85ec7e8a,65af567f8504a42db6af7fd0,2024-01-23_24h03.30.972,bars,2023.2.3,Win32,60.60606061,657b66ea316d21385b68909f,,,,,,,,,,,723.6211,724.6204,,,725.1196,725.3725,,120,-60,,,,,,,,,,,,,,,,bars/004.png,bars/mask003.png,,,,,,,,,,,,5,2,,,,,,,8,6,6,6,,,,,,,,,,,724.6204,725.1196,725.3725,729.3229,space,3.9326,,729.323,85,5,730.3184,730.3185,731.4388,space,1.1002,,0,13,13,13,1,25,125,,,,,,,,
,,6113113ee1e4e6df85ec7e8a,65af567f8504a42db6af7fd0,2024-01-23_24h03.30.972,bars,2023.2.3,Win32,60.60606061,657b66ea316d21385b68909f,,,,,,,,,,,731.439,732.4338,,,732.9343,733.1841,,129,129,,,,,,,,,,,,,,,,bars/042.png,bars/mask003.png,,,,,,,,,,,,2,1,,,,,,,6,4,5,4,,,,,,,,,,,732.4338,732.9343,733.1841,736.2831,space,3.0687,,736.2831,16,54,737.2823,737.2824,738.4989,space,1.1932,,0,14,14,14,1,145,75,,,,,,,,
,,6113113ee1e4e6df85ec7e8a,65af567f8504a42db6af7fd0,2024-01-23_24h03.30.972,bars,2023.2.3,Win32,60.60606061,657b66ea316d21385b68909f,,,,,,,,,,,738.4993,739.5022,,,739.9984,740.2483,,168,168,,,,,,,,,,,,,,,,bars/039.png,bars/mask005.png,,,,,,,,,,,,2,1,,,,,,,4,2,3,2,,,,,,,,,,,739.5023,739.9984,740.2484,741.8644,space,1.5918,,741.8644,7,63,742.8641,742.8642,744.4802,space,1.5918,,0,15,15,15,1,175,105,,,,,,,,
,,6113113ee1e4e6df85ec7e8a,65af567f8504a42db6af7fd0,2024-01-23_24h03.30.972,bars,2023.2.3,Win32,60.60606061,657b66ea316d21385b68909f,,,,,,,,,,,744.4807,745.4799,,,745.9798,746.2297,,18,18,,,,,,,,,,,,,,,,bars/031.png,bars/mask008.png,,,,,,,,,,,,2,2,,,,,,,2,4,3,5,,,,,,,,,,,745.4799,745.9798,746.2297,747.6457,space,1.3923,,747.6458,78,17,748.6454,748.6454,751.0941,space,2.4252,,0,16,16,16,1,120,35,,,,,,,,
,,6113113ee1e4e6df85ec7e8a,65af567f8504a42db6af7fd0,2024-01-23_24h03.30.972,bars,2023.2.3,Win32,60.60606061,657b66ea316d21385b68909f,,,,,,,,,,,751.1022,752.0944,,,752.5942,752.8477,,112,112,,,,,,,,,,,,,,,,bars/019.png,bars/mask009.png,,,,,,,,,,,,3,2,,,,,,,0,2,0,4,,,,,,,,,,,752.0944,752.5941,752.8477,757.13,space,4.2655,,757.13,67,7,758.1256,758.1256,760.258,space,2.1087,,0,17,17,17,1,45,105,,,,,,,,
,,6113113ee1e4e6df85ec7e8a,65af567f8504a42db6af7fd0,2024-01-23_24h03.30.972,bars,2023.2.3,Win32,60.60606061,657b66ea316d21385b68909f,,,,,,,,,,,760.2586,761.2578,,,761.7575,762.0076,,53,53,,,,,,,,,,,,,,,,bars/042.png,bars/mask003.png,,,,,,,,,,,,0,2,,,,,,,0,0,2,1,,,,,,,,,,,761.2578,761.7575,762.0076,765.0772,space,3.049,,765.0772,88,22,766.0729,766.073,767.8721,space,1.7722,,0,18,18,18,1,145,75,,,,,,,,
,,6113113ee1e4e6df85ec7e8a,65af567f8504a42db6af7fd0,2024-01-23_24h03.30.972,bars,2023.2.3,Win32,60.60606061,657b66ea316d21385b68909f,,,,,,,,,,,767.8723,768.8718,,,769.3717,769.6217,,67,67,,,,,,,,,,,,,,,,bars/041.png,bars/mask004.png,,,,,,,,,,,,0,2,,,,,,,0,0,1,0,,,,,,,,,,,768.8719,769.3717,769.6218,772.0248,space,2.3826,,772.0248,47,18,773.0204,773.0205,774.6404,space,1.5994,,0,19,19,19,1,20,85,,,,,,,,
,,6113113ee1e4e6df85ec7e8a,65af567f8504a42db6af7fd0,2024-01-23_24h03.30.972,bars,2023.2.3,Win32,60.60606061,657b66ea316d21385b68909f,,,,,,,,,,,774.6407,775.6362,,,776.1361,776.3861,,104,104,,,,,,,,,,,,,,,,bars/041.png,bars/mask008.png,,,,,,,,,,,,1,2,,,,,,,2,2,3,2,,,,,,,,,,,775.6363,776.1361,776.3861,778.3516,space,1.9446,,778.3516,84,19,779.3517,779.3517,780.5554,space,1.1832,,0,20,20,20,1,20,85,,,,,,,,
,,6113113ee1e4e6df85ec7e8a,65af567f8504a42db6af7fd0,2024-01-23_24h03.30.972,bars,2023.2.3,Win32,60.60606061,657b66ea316d21385b68909f,,,,,,,,,,,780.5556,781.5509,,,782.0506,782.3006,,148,148,,,,,,,,,,,,,,,,bars/021.png,bars/mask006.png,,,,,,,,,,,,0,1,,,,,,,0,0,0,0,,,,,,,,,,,781.551,782.0506,782.3007,783.3838,space,1.0556,,783.3838,7,78,784.3832,784.3832,785.6537,space,1.2501,,0,21,21,21,1,155,70,,,,,,,,
,,6113113ee1e4e6df85ec7e8a,65af567f8504a42db6af7fd0,2024-01-23_24h03.30.972,bars,2023.2.3,Win32,60.60606061,657b66ea316d21385b68909f,,,,,,,,,,,785.6539,786.6491,,,787.1491,787.4005,,128,-52,,,,,,,,,,,,,,,,bars/015.png,bars/mask009.png,,,,,,,,,,,,0,1,,,,,,,0,2,0,2,,,,,,,,,,,786.6491,787.149,787.4006,790.9644,space,3.533,,790.9645,18,32,791.9639,791.964,794.0301,space,2.0407,,0,22,22,22,1,110,160,,,,,,,,
,,6113113ee1e4e6df85ec7e8a,65af567f8504a42db6af7fd0,2024-01-23_24h03.30.972,bars,2023.2.3,Win32,60.60606061,657b66ea316d21385b68909f,,,,,,,,,,,794.031,795.0334,,,795.5295,795.7794,,146,146,,,,,,,,,,,,,,,,bars/005.png,bars/mask007.png,,,,,,,,,,,,5,2,,,,,,,2,4,2,6,,,,,,,,,,,795.0334,795.5295,795.7795,798.1159,space,2.3162,,798.116,44,6,799.1115,799.1115,800.4473,space,1.3154,,0,23,23,23,1,10,140,,,,,,,,
,,6113113ee1e4e6df85ec7e8a,65af567f8504a42db6af7fd0,2024-01-23_24h03.30.972,bars,2023.2.3,Win32,60.60606061,657b66ea316d21385b68909f,,,,,,,,,,,800.4475,801.4436,,,801.9439,802.1939,,76,76,,,,,,,,,,,,,,,,bars/026.png,bars/mask000.png,,,,,,,,,,,,2,2,,,,,,,4,2,5,3,,,,,,,,,,,801.4436,801.9438,802.1939,804.164,space,1.95,,804.164,41,9,805.1595,805.1596,806.2924,space,1.1106,,0,24,24,24,1,35,85,,,,,,,,
,,6113113ee1e4e6df85ec7e8a,65af567f8504a42db6af7fd0,2024-01-23_24h03.30.972,bars,2023.2.3,Win32,60.60606061,657b66ea316d21385b68909f,,,,,,,,,,,806.2927,807.2921,,,807.7921,808.0419,,149,149,,,,,,,,,,,,,,,,bars/040.png,bars/mask000.png,,,,,,,,,,,,1,1,,,,,,,2,4,2,4,,,,,,,,,,,807.2921,807.7921,808.0419,810.2119,space,2.1495,,810.2119,9,36,811.2075,811.2076,812.457,space,1.2267,,0,25,25,25,1,140,5,,,,,,,,
,,6113113ee1e4e6df85ec7e8a,65af567f8504a42db6af7fd0,2024-01-23_24h03.30.972,bars,2023.2.3,Win32,60.60606061,657b66ea316d21385b68909f,,,,,,,,,,,812.4572,813.4604,,,813.9565,814.2063,,128,128,,,,,,,,,,,,,,,,bars/034.png,bars/mask004.png,,,,,,,,,,,,0,1,,,,,,,0,6,0,7,,,,,,,,,,,813.4604,813.9565,814.2064,817.1098,space,2.8831,,817.1098,3,63,818.1051,818.1052,819.3756,space,1.2502,,0,26,26,26,1,125,65,,,,,,,,
,,6113113ee1e4e6df85ec7e8a,65af567f8504a42db6af7fd0,2024-01-23_24h03.30.972,bars,2023.2.3,Win32,60.60606061,657b66ea316d21385b68909f,,,,,,,,,,,819.3757,820.3709,,,820.8706,821.1208,,163,163,,,,,,,,,,,,,,,,bars/038.png,bars/mask000.png,,,,,,,,,,,,2,1,,,,,,,2,8,2,9,,,,,,,,,,,820.371,820.8706,821.1209,822.6536,space,1.5099,,822.6536,2,87,823.6533,823.6534,825.1236,space,1.45,,0,27,27,27,1,165,70,,,,,,,,
,,6113113ee1e4e6df85ec7e8a,65af567f8504a42db6af7fd0,2024-01-23_24h03.30.972,bars,2023.2.3,Win32,60.60606061,657b66ea316d21385b68909f,,,,,,,,,,,825.1237,826.119,,,826.6188,826.8688,,52,52,,,,,,,,,,,,,,,,bars/004.png,bars/mask006.png,,,,,,,,,,,,0,1,,,,,,,0,6,0,5,,,,,,,,,,,826.1191,826.6187,826.8688,828.3185,space,1.419,,828.3188,27,73,829.3179,829.318,830.2011,space,0.8509,,0,28,28,28,1,25,125,,,,,,,,
,,6113113ee1e4e6df85ec7e8a,65af567f8504a42db6af7fd0,2024-01-23_24h03.30.972,bars,2023.2.3,Win32,60.60606061,657b66ea316d21385b68909f,,,,,,,,,,,830.2015,831.2031,,,831.7004,831.9504,,156,156,,,,,,,,,,,,,,,,bars/018.png,bars/mask008.png,,,,,,,,,,,,0,1,,,,,,,0,4,0,4,,,,,,,,,,,831.2032,831.7004,831.9504,833.6498,space,1.6741,,833.6498,6,66,834.6495,834.6495,835.7699,space,1.1001,,0,29,29,29,1,150,90,,,,,,,,
,,6113113ee1e4e6df85ec7e8a,65af567f8504a42db6af7fd0,2024-01-23_24h03.30.972,bars,2023.2.3,Win32,60.60606061,657b66ea316d21385b68909f,,,,,,,,,,,835.7702,836.7654,,,837.2686,837.5152,,37,37,,,,,,,,,,,,,,,,bars/032.png,bars/mask007.png,,,,,,,,,,,,3,2,,,,,,,2,6,2,7,,,,,,,,,,,836.7655,837.2686,837.5152,838.5648,space,1.0257,,838.5648,88,17,839.5645,839.5645,840.6809,space,1.0915,,0,30,30,30,1,125,20,,,,,,,,
,,6113113ee1e4e6df85ec7e8a,65af567f8504a42db6af7fd0,2024-01-23_24h03.30.972,bars,2023.2.3,Win32,60.60606061,657b66ea316d21385b68909f,,,,,,,,,,,840.6815,841.6802,,,842.1803,842.4338,,60,60,,,,,,,,,,,,,,,,bars/031.png,bars/mask002.png,,,,,,,,,,,,1,2,,,,,,,0,4,0,4,,,,,,,,,,,841.6802,842.1803,842.4339,845.0169,space,2.5663,,845.017,60,25,846.0124,846.0124,847.0947,space,1.0604,,0,31,31,31,1,120,35,,,,,,,,
,,6113113ee1e4e6df85ec7e8a,65af567f8504a42db6af7fd0,2024-01-23_24h03.30.972,bars,2023.2.3,Win32,60.60606061,657b66ea316d21385b68909f,,,,,,,,,,,847.0952,848.095,,,848.5948,848.8444,,33,213,,,,,,,,,,,,,,,,bars/021.png,bars/mask001.png,,,,,,,,,,,,0,2,,,,,,,2,6,2,5,,,,,,,,,,,848.0951,848.5948,848.8444,851.5961,space,2.7313,,851.5961,58,37,852.5933,852.5933,853.8304,space,1.2166,,0,32,32,32,1,155,70,,,,,,,,
,,6113113ee1e4e6df85ec7e8a,65af567f8504a42db6af7fd0,2024-01-23_24h03.30.972,bars,2023.2.3,Win32,60.60606061,657b66ea316d21385b68909f,,,,,,,,,,,853.8307,854.826,,,855.3258,855.5794,,117,117,,,,,,,,,,,,,,,,bars/009.png,bars/mask001.png,,,,,,,,,,,,3,2,,,,,,,4,4,4,5,,,,,,,,,,,854.826,855.3258,855.5794,858.5911,space,2.9842,,858.5912,78,12,859.591,859.591,860.8614,space,1.2499,,0,33,33,33,1,15,105,,,,,,,,
,,6113113ee1e4e6df85ec7e8a,65af567f8504a42db6af7fd0,2024-01-23_24h03.30.972,bars,2023.2.3,Win32,60.60606061,657b66ea316d21385b68909f,,,,,,,,,,,860.8616,861.8569,,,862.3567,862.6066,,35,215,,,,,,,,,,,,,,,,bars/029.png,bars/mask000.png,,,,,,,,,,,,1,2,,,,,,,2,2,2,2,,,,,,,,,,,861.8569,862.3567,862.6067,867.4714,space,4.8434,,867.4715,55,10,868.4713,868.4714,869.7084,space,1.2169,,0,34,34,34,1,90,45,,,,,,,,
,,6113113ee1e4e6df85ec7e8a,65af567f8504a42db6af7fd0,2024-01-23_24h03.30.972,bars,2023.2.3,Win32,60.60606061,657b66ea316d21385b68909f,,,,,,,,,,,869.7086,870.7039,,,871.2037,871.4536,,161,161,,,,,,,,,,,,,,,,bars/017.png,bars/mask000.png,,,,,,,,,,,,0,1,,,,,,,0,0,0,0,,,,,,,,,,,870.704,871.2036,871.4536,873.2237,space,1.7496,,873.2237,16,64,874.2218,874.2218,875.319,space,1.0743,,0,35,35,35,1,145,45,,,,,,,,
,,6113113ee1e4e6df85ec7e8a,65af567f8504a42db6af7fd0,2024-01-23_24h03.30.972,bars,2023.2.3,Win32,60.60606061,657b66ea316d21385b68909f,,,,,,,,,,,875.3193,876.3223,,,876.8184,877.0683,,85,85,,,,,,,,,,,,,,,,bars/011.png,bars/mask006.png,,,,,,,,,,,,2,2,,,,,,,2,2,3,2,,,,,,,,,,,876.3223,876.8184,877.0683,880.3506,space,3.2515,,880.3507,75,0,881.3503,881.3503,882.916,space,1.5366,,0,36,36,36,1,160,85,,,,,,,,
,,6113113ee1e4e6df85ec7e8a,65af567f8504a42db6af7fd0,2024-01-23_24h03.30.972,bars,2023.2.3,Win32,60.60606061,657b66ea316d21385b68909f,,,,,,,,,,,882.9171,883.916,,,884.4159,884.6658,,97,97,,,,,,,,,,,,,,,,bars/018.png,bars/mask000.png,,,,,,,,,,,,0,2,,,,,,,4,0,3,0,,,,,,,,,,,883.916,884.4159,884.6658,888.4307,space,3.7443,,888.4308,53,7,889.4343,889.4343,890.5134,space,1.0592,,0,37,37,37,1,150,90,,,,,,,,
,,6113113ee1e4e6df85ec7e8a,65af567f8504a42db6af7fd0,2024-01-23_24h03.30.972,bars,2023.2.3,Win32,60.60606061,657b66ea316d21385b68909f,,,,,,,,,,,890.5142,891.5133,,,892.0161,892.2633,,173,-7,,,,,,,,,,,,,,,,bars/015.png,bars/mask008.png,,,,,,,,,,,,2,2,,,,,,,2,2,2,3,,,,,,,,,,,891.5134,892.0161,892.2633,895.3829,space,3.0993,,895.3829,63,13,896.3782,896.3782,897.7984,space,1.3999,,0,38,38,38,1,110,160,,,,,,,,
,,6113113ee1e4e6df85ec7e8a,65af567f8504a42db6af7fd0,2024-01-23_24h03.30.972,bars,2023.2.3,Win32,60.60606061,657b66ea316d21385b68909f,,,,,,,,,,,897.7986,898.7943,,,899.2942,899.5441,,31,31,,,,,,,,,,,,,,,,bars/025.png,bars/mask001.png,,,,,,,,,,,,4,2,,,,,,,4,4,5,5,,,,,,,,,,,898.7943,899.2942,899.5441,903.2096,space,3.6372,,903.2096,74,9,904.2128,904.2129,905.6087,space,1.3741,,0,39,39,39,1,105,40,,,,,,,,
,,6113113ee1e4e6df85ec7e8a,65af567f8504a42db6af7fd0,2024-01-23_24h03.30.972,bars,2023.2.3,Win32,60.60606061,657b66ea316d21385b68909f,,,,,,,,,,,905.6091,906.6108,,,907.1082,907.358,,138,138,,,,,,,,,,,,,,,,bars/028.png,bars/mask000.png,,,,,,,,,,,,0,2,,,,,,,6,2,6,1,,,,,,,,,,,906.6108,907.1082,907.358,908.7909,space,1.4109,,908.7909,87,18,909.7906,909.7906,910.5735,space,0.7609,,0,40,40,40,1,45,120,,,,,,,,
,,6113113ee1e4e6df85ec7e8a,65af567f8504a42db6af7fd0,2024-01-23_24h03.30.972,bars,2023.2.3,Win32,60.60606061,657b66ea316d21385b68909f,,,,,,,,,,,910.5744,911.5732,,,912.0732,912.3231,,19,19,,,,,,,,,,,,,,,,bars/040.png,bars/mask008.png,,,,,,,,,,,,2,2,,,,,,,4,4,3,4,,,,,,,,,,,911.5732,912.0731,912.3231,914.3056,space,1.9499,,914.3057,59,14,915.3053,915.3054,915.9884,space,0.6573,,0,41,41,41,1,140,5,,,,,,,,
,,6113113ee1e4e6df85ec7e8a,65af567f8504a42db6af7fd0,2024-01-23_24h03.30.972,bars,2023.2.3,Win32,60.60606061,657b66ea316d21385b68909f,,,,,,,,,,,915.9893,916.9881,,,917.488,917.7379,,48,228,,,,,,,,,,,,,,,,bars/047.png,bars/mask009.png,,,,,,,,,,,,0,2,,,,,,,6,2,5,1,,,,,,,,,,,916.9881,917.488,917.738,920.7576,space,2.9995,,920.7577,33,22,921.7531,921.7531,922.5196,space,0.7374,,0,42,42,42,1,15,70,,,,,,,,
,,6113113ee1e4e6df85ec7e8a,65af567f8504a42db6af7fd0,2024-01-23_24h03.30.972,bars,2023.2.3,Win32,60.60606061,657b66ea316d21385b68909f,,,,,,,,,,,922.5199,923.5192,,,924.0229,924.2685,,33,33,,,,,,,,,,,,,,,,bars/035.png,bars/mask004.png,,,,,,,,,,,,0,2,,,,,,,8,0,8,0,,,,,,,,,,,923.5193,924.0229,924.2685,926.2014,space,1.9117,,926.2016,38,27,927.2012,927.2013,927.8677,space,0.6417,,0,43,43,43,1,175,60,,,,,,,,
,,6113113ee1e4e6df85ec7e8a,65af567f8504a42db6af7fd0,2024-01-23_24h03.30.972,bars,2023.2.3,Win32,60.60606061,657b66ea316d21385b68909f,,,,,,,,,,,927.8681,928.8674,,,929.3673,929.6172,,82,82,,,,,,,,,,,,,,,,bars/011.png,bars/mask005.png,,,,,,,,,,,,0,2,,,,,,,6,2,7,0,,,,,,,,,,,928.8674,929.3672,929.6172,930.8666,space,1.2265,,930.8666,78,3,931.8663,931.8664,934.2179,space,2.3313,,0,44,44,44,1,160,85,,,,,,,,
,,6113113ee1e4e6df85ec7e8a,65af567f8504a42db6af7fd0,2024-01-23_24h03.30.972,bars,2023.2.3,Win32,60.60606061,657b66ea316d21385b68909f,,,,,,,,,,,934.2181,935.2153,,,935.7151,935.965,,77,77,,,,,,,,,,,,,,,,bars/007.png,bars/mask004.png,,,,,,,,,,,,1,2,,,,,,,4,4,5,5,,,,,,,,,,,935.2153,935.715,935.965,938.8836,space,2.8983,,938.8836,82,22,939.8803,939.8803,940.7134,space,0.8103,,0,45,45,45,1,175,55,,,,,,,,
,,6113113ee1e4e6df85ec7e8a,65af567f8504a42db6af7fd0,2024-01-23_24h03.30.972,bars,2023.2.3,Win32,60.60606061,657b66ea316d21385b68909f,,,,,,,,,,,940.7142,941.7125,,,942.2124,942.4623,,6,186,,,,,,,,,,,,,,,,bars/014.png,bars/mask004.png,,,,,,,,,,,,3,2,,,,,,,6,6,7,4,,,,,,,,,,,941.7126,942.2124,942.4623,945.4157,space,2.9327,,945.4157,74,6,946.4114,946.4114,947.0319,space,0.6002,,0,46,46,46,1,80,0,,,,,,,,
,,6113113ee1e4e6df85ec7e8a,65af567f8504a42db6af7fd0,2024-01-23_24h03.30.972,bars,2023.2.3,Win32,60.60606061,657b66ea316d21385b68909f,,,,,,,,,,,947.0322,948.0276,,,948.53,948.7772,,137,137,,,,,,,,,,,,,,,,bars/028.png,bars/mask006.png,,,,,,,,,,,,3,2,,,,,,,4,8,3,6,,,,,,,,,,,948.0278,948.53,948.7772,950.3308,space,1.5334,,950.3309,88,17,951.3264,951.3264,951.8261,space,0.4778,,0,47,47,47,1,45,120,,,,,,,,
,,6113113ee1e4e6df85ec7e8a,65af567f8504a42db6af7fd0,2024-01-23_24h03.30.972,bars,2023.2.3,Win32,60.60606061,657b66ea316d21385b68909f,,,,,,,,,,,951.8266,952.8259,,,953.3258,953.5756,,76,76,,,,,,,,,,,,,,,,bars/046.png,bars/mask007.png,,,,,,,,,,,,7,2,,,,,,,6,10,7,10,,,,,,,,,,,952.8259,953.3258,953.5757,956.5745,space,2.9771,,956.5745,79,9,957.5743,957.5744,958.3408,space,0.7342,,0,48,48,48,1,155,85,,,,,,,,
,,6113113ee1e4e6df85ec7e8a,65af567f8504a42db6af7fd0,2024-01-23_24h03.30.972,bars,2023.2.3,Win32,60.60606061,657b66ea316d21385b68909f,,,,,,,,,,,958.3412,959.3401,,,959.8403,960.0926,,40,40,,,,,,,,,,,,,,,,bars/007.png,bars/mask001.png,,,,,,,,,,,,5,2,,,,,,,8,10,8,10,,,,,,,,,,,959.3401,959.8403,960.0926,961.1562,space,1.034,,961.1563,45,15,962.1561,962.1561,963.5051,space,1.3283,,0,49,49,49,1,175,55,,,,,,,,
,,6113113ee1e4e6df85ec7e8a,65af567f8504a42db6af7fd0,2024-01-23_24h03.30.972,bars,2023.2.3,Win32,60.60606061,657b66ea316d21385b68909f,,,,,,,,,,,,,,,,,,,,,,,,,,,,,,,,,,,,,,,,,,,,,,,,,,,,,,,,,,,,,,,,,,,,,,,,,,,,,,,,,,,,,,,,,,,,,963.5075,1023.5053,0,0,0,2,1,sequence_tables/blk011.csv
,,6113113ee1e4e6df85ec7e8a,65af567f8504a42db6af7fd0,2024-01-23_24h03.30.972,bars,2023.2.3,Win32,60.60606061,657b66ea316d21385b68909f,,,,,,,,,,,1075.9959,1076.9837,,,1077.4836,1077.7335,,76,76,,,,,,,,,,,,,,,,bars/019.png,bars/mask002.png,,,,,,,,,,,,0,2,,,,,,,10,7,10,8,,,,,,1023.5128,1075.9841,space,52.4505,,1076.9837,1077.4835,1077.7335,1081.7987,space,4.033,,1081.7987,31,29,1082.7983,1082.7984,1082.8067,,,,0,0,0,0,1,45,105,,,,,,,,
,,6113113ee1e4e6df85ec7e8a,65af567f8504a42db6af7fd0,2024-01-23_24h03.30.972,bars,2023.2.3,Win32,60.60606061,657b66ea316d21385b68909f,,,,,,,,,,,1082.8068,1083.798,,,1084.2978,1084.5475,,119,119,,,,,,,,,,,,,,,,bars/039.png,bars/mask008.png,,,,,,,,,,,,3,2,,,,,,,10,5,10,6,,,,,,,,,,,1083.798,1084.2978,1084.5476,1087.9133,space,3.3418,,1087.9133,56,14,1088.9129,1088.913,1088.9211,,,,0,1,1,1,1,175,105,,,,,,,,
,,6113113ee1e4e6df85ec7e8a,65af567f8504a42db6af7fd0,2024-01-23_24h03.30.972,bars,2023.2.3,Win32,60.60606061,657b66ea316d21385b68909f,,,,,,,,,,,1088.9212,1089.9126,,,1090.4124,1090.6623,,107,107,,,,,,,,,,,,,,,,bars/009.png,bars/mask009.png,,,,,,,,,,,,3,2,,,,,,,10,3,9,3,,,,,,,,,,,1089.9126,1090.4124,1090.6623,1092.0619,space,1.3689,,1092.0619,88,2,1093.0613,1093.0613,1093.0625,,,,0,2,2,2,1,15,105,,,,,,,,
,,6113113ee1e4e6df85ec7e8a,65af567f8504a42db6af7fd0,2024-01-23_24h03.30.972,bars,2023.2.3,Win32,60.60606061,657b66ea316d21385b68909f,,,,,,,,,,,1093.0635,1094.0608,,,1094.5616,1094.8109,,62,62,,,,,,,,,,,,,,,,bars/034.png,bars/mask009.png,,,,,,,,,,,,0,2,,,,,,,8,1,6,0,,,,,,,,,,,1094.0609,1094.5614,1094.811,1098.1265,space,3.2902,,1098.1266,63,3,1099.1259,1099.1259,1099.1342,,,,0,3,3,3,1,125,65,,,,,,,,
,,6113113ee1e4e6df85ec7e8a,65af567f8504a42db6af7fd0,2024-01-23_24h03.30.972,bars,2023.2.3,Win32,60.60606061,657b66ea316d21385b68909f,,,,,,,,,,,1099.1343,1100.1294,,,1100.6256,1100.8752,,18,198,,,,,,,,,,,,,,,,bars/013.png,bars/mask005.png,,,,,,,,,,,,1,2,,,,,,,10,0,10,1,,,,,,,,,,,1100.1294,1100.6255,1100.8753,1103.5913,space,2.6836,,1103.5913,57,8,1104.591,1104.591,1104.5991,,,,0,4,4,4,1,75,10,,,,,,,,
,,6113113ee1e4e6df85ec7e8a,65af567f8504a42db6af7fd0,2024-01-23_24h03.30.972,bars,2023.2.3,Win32,60.60606061,657b66ea316d21385b68909f,,,,,,,,,,,1104.5992,1105.5905,,,1106.0901,1106.3403,,122,-58,,,,,,,,,,,,,,,,bars/018.png,bars/mask008.png,,,,,,,,,,,,1,1,,,,,,,8,0,9,1,,,,,,,,,,,1105.5905,1106.0901,1106.3403,1111.4549,space,5.0935,,1111.4549,28,32,1112.4549,1112.4549,1112.4649,,,,0,5,5,5,1,150,90,,,,,,,,
,,6113113ee1e4e6df85ec7e8a,65af567f8504a42db6af7fd0,2024-01-23_24h03.30.972,bars,2023.2.3,Win32,60.60606061,657b66ea316d21385b68909f,,,,,,,,,,,1112.4651,1113.4545,,,1113.9543,1114.2043,,149,-31,,,,,,,,,,,,,,,,bars/003.png,bars/mask005.png,,,,,,,,,,,,1,2,,,,,,,6,2,7,2,,,,,,,,,,,1113.4545,1113.9543,1114.2043,1117.4406,space,3.2161,,1117.4406,56,9,1118.4398,1118.4399,1118.4475,,,,0,6,6,6,1,25,140,,,,,,,,
,,6113113ee1e4e6df85ec7e8a,65af567f8504a42db6af7fd0,2024-01-23_24h03.30.972,bars,2023.2.3,Win32,60.60606061,657b66ea316d21385b68909f,,,,,,,,,,,1118.4476,1119.4359,,,1119.9393,1120.1855,,95,95,,,,,,,,,,,,,,,,bars/021.png,bars/mask003.png,,,,,,,,,,,,0,2,,,,,,,8,0,9,0,,,,,,,,,,,1119.4359,1119.9392,1120.1856,1122.4545,space,2.2486,,1122.4545,60,25,1123.4511,1123.4512,1123.4594,,,,0,7,7,7,1,155,70,,,,,,,,
,,6113113ee1e4e6df85ec7e8a,65af567f8504a42db6af7fd0,2024-01-23_24h03.30.972,bars,2023.2.3,Win32,60.60606061,657b66ea316d21385b68909f,,,,,,,,,,,1123.4596,1124.4508,,,1124.9507,1125.2005,,162,162,,,,,,,,,,,,,,,,bars/044.png,bars/mask008.png,,,,,,,,,,,,2,2,,,,,,,6,2,6,2,,,,,,,,,,,1124.4508,1124.9507,1125.2005,1126.5709,space,1.35,,1126.5709,87,7,1127.5664,1127.5664,1127.5688,,,,0,8,8,8,1,75,155,,,,,,,,
,,6113113ee1e4e6df85ec7e8a,65af567f8504a42db6af7fd0,2024-01-23_24h03.30.972,bars,2023.2.3,Win32,60.60606061,657b66ea316d21385b68909f,,,,,,,,,,,1127.5691,1128.5659,,,1129.0695,1129.3157,,174,-6,,,,,,,,,,,,,,,,bars/014.png,bars/mask001.png,,,,,,,,,,,,0,2,,,,,,,8,0,6,0,,,,,,,,,,,1128.5659,1129.0695,1129.3158,1133.0645,space,3.7189,,1133.0645,86,6,1134.0642,1134.0643,1134.0724,,,,0,9,9,9,1,80,0,,,,,,,,
,,6113113ee1e4e6df85ec7e8a,65af567f8504a42db6af7fd0,2024-01-23_24h03.30.972,bars,2023.2.3,Win32,60.60606061,657b66ea316d21385b68909f,,,,,,,,,,,1134.0727,1135.0639,,,1135.5662,1135.8135,,78,78,,,,,,,,,,,,,,,,bars/001.png,bars/mask006.png,,,,,,,,,,,,1,2,,,,,,,10,2,10,1,,,,,,,,,,,1135.0639,1135.5662,1135.8136,1137.5505,space,1.7165,,1137.5505,52,7,1138.546,1138.546,1138.5476,,,,0,10,10,10,1,130,85,,,,,,,,
,,6113113ee1e4e6df85ec7e8a,65af567f8504a42db6af7fd0,2024-01-23_24h03.30.972,bars,2023.2.3,Win32,60.60606061,657b66ea316d21385b68909f,,,,,,,,,,,1138.5481,1139.5457,,,1140.0455,1140.2953,,51,231,,,,,,,,,,,,,,,,bars/007.png,bars/mask006.png,,,,,,,,,,,,3,2,,,,,,,10,4,10,4,,,,,,,,,,,1139.5457,1140.0455,1140.2954,1145.7641,space,5.4483,,1145.7641,56,4,1146.7636,1146.7636,1146.7714,,,,0,11,11,11,1,175,55,,,,,,,,
,,6113113ee1e4e6df85ec7e8a,65af567f8504a42db6af7fd0,2024-01-23_24h03.30.972,bars,2023.2.3,Win32,60.60606061,657b66ea316d21385b68909f,,,,,,,,,,,1146.7716,1147.7595,,,1148.2631,1148.5092,,168,-12,,,,,,,,,,,,,,,,bars/044.png,bars/mask006.png,,,,,,,,,,,,1,2,,,,,,,10,2,8,2,,,,,,,,,,,1147.7595,1148.263,1148.5093,1151.5414,space,3.0106,,1151.5414,87,13,1152.5411,1152.5412,1152.5492,,,,0,12,12,12,1,75,155,,,,,,,,
,,6113113ee1e4e6df85ec7e8a,65af567f8504a42db6af7fd0,2024-01-23_24h03.30.972,bars,2023.2.3,Win32,60.60606061,657b66ea316d21385b68909f,,,,,,,,,,,1152.5493,1153.545,,,1154.0445,1154.2906,,175,175,,,,,,,,,,,,,,,,bars/012.png,bars/mask000.png,,,,,,,,,,,,1,2,,,,,,,8,4,8,4,,,,,,,,,,,1153.545,1154.0445,1154.2906,1158.4433,space,4.1324,,1158.4434,85,20,1159.4387,1159.4387,1159.4468,,,,0,13,13,13,1,90,15,,,,,,,,
,,6113113ee1e4e6df85ec7e8a,65af567f8504a42db6af7fd0,2024-01-23_24h03.30.972,bars,2023.2.3,Win32,60.60606061,657b66ea316d21385b68909f,,,,,,,,,,,1159.4468,1160.4421,,,1160.9421,1161.1882,,172,172,,,,,,,,,,,,,,,,bars/044.png,bars/mask002.png,,,,,,,,,,,,3,2,,,,,,,10,6,9,7,,,,,,,,,,,1160.4421,1160.9421,1161.1882,1162.9901,space,1.7816,,1162.9901,83,17,1163.9874,1163.9874,1163.9892,,,,0,14,14,14,1,75,155,,,,,,,,
,,6113113ee1e4e6df85ec7e8a,65af567f8504a42db6af7fd0,2024-01-23_24h03.30.972,bars,2023.2.3,Win32,60.60606061,657b66ea316d21385b68909f,,,,,,,,,,,1163.9894,1164.9871,,,1165.487,1165.7368,,172,-8,,,,,,,,,,,,,,,,bars/005.png,bars/mask008.png,,,,,,,,,,,,4,1,,,,,,,8,8,9,8,,,,,,,,,,,1164.9871,1165.4869,1165.7368,1169.9187,space,4.1493,,1169.9187,18,32,1170.9183,1170.9184,1170.9271,,,,0,15,15,15,1,10,140,,,,,,,,
,,6113113ee1e4e6df85ec7e8a,65af567f8504a42db6af7fd0,2024-01-23_24h03.30.972,bars,2023.2.3,Win32,60.60606061,657b66ea316d21385b68909f,,,,,,,,,,,1170.9274,1171.918,,,1172.4178,1172.6678,,169,169,,,,,,,,,,,,,,,,bars/033.png,bars/mask009.png,,,,,,,,,,,,5,2,,,,,,,6,10,8,9,,,,,,,,,,,1171.9181,1172.4178,1172.6678,1175.75,space,3.0578,,1175.75,36,14,1176.7496,1176.7496,1176.7584,,,,0,16,16,16,1,25,155,,,,,,,,
,,6113113ee1e4e6df85ec7e8a,65af567f8504a42db6af7fd0,2024-01-23_24h03.30.972,bars,2023.2.3,Win32,60.60606061,657b66ea316d21385b68909f,,,,,,,,,,,1176.7586,1177.7493,,,1178.2492,1178.499,,76,76,,,,,,,,,,,,,,,,bars/011.png,bars/mask007.png,,,,,,,,,,,,7,2,,,,,,,4,10,3,10,,,,,,,,,,,1177.7494,1178.2492,1178.499,1181.8479,space,3.3162,,1181.8481,84,9,1182.85,1182.85,1182.8571,,,,0,17,17,17,1,160,85,,,,,,,,
,,6113113ee1e4e6df85ec7e8a,65af567f8504a42db6af7fd0,2024-01-23_24h03.30.972,bars,2023.2.3,Win32,60.60606061,657b66ea316d21385b68909f,,,,,,,,,,,1182.8573,1183.8473,,,1184.3471,1184.6007,,167,167,,,,,,,,,,,,,,,,bars/024.png,bars/mask008.png,,,,,,,,,,,,8,2,,,,,,,2,10,1,9,,,,,,,,,,,1183.8473,1184.3471,1184.6007,1185.9175,space,1.2998,,1185.9175,47,3,1186.9165,1186.9166,1186.9171,,,,0,18,18,18,1,120,170,,,,,,,,
,,6113113ee1e4e6df85ec7e8a,65af567f8504a42db6af7fd0,2024-01-23_24h03.30.972,bars,2023.2.3,Win32,60.60606061,657b66ea316d21385b68909f,,,,,,,,,,,1186.9172,1187.915,,,1188.4125,1188.6623,,8,8,,,,,,,,,,,,,,,,bars/045.png,bars/mask002.png,,,,,,,,,,,,7,2,,,,,,,0,8,0,8,,,,,,,,,,,1187.915,1188.4124,1188.6623,1192.4983,space,3.8157,,1192.4983,88,2,1193.494,1193.494,1193.5023,,,,0,19,19,19,1,100,10,,,,,,,,
,,6113113ee1e4e6df85ec7e8a,65af567f8504a42db6af7fd0,2024-01-23_24h03.30.972,bars,2023.2.3,Win32,60.60606061,657b66ea316d21385b68909f,,,,,,,,,,,1193.5024,1194.4937,,,1194.9936,1195.2434,,152,152,,,,,,,,,,,,,,,,bars/003.png,bars/mask001.png,,,,,,,,,,,,6,2,,,,,,,0,10,1,10,,,,,,,,,,,1194.4937,1194.9935,1195.2434,1197.8284,space,2.5649,,1197.8285,53,12,1198.8252,1198.8252,1198.8333,,,,0,20,20,20,1,25,140,,,,,,,,
,,6113113ee1e4e6df85ec7e8a,65af567f8504a42db6af7fd0,2024-01-23_24h03.30.972,bars,2023.2.3,Win32,60.60606061,657b66ea316d21385b68909f,,,,,,,,,,,1198.8334,1199.8249,,,1200.325,1200.5749,,144,144,,,,,,,,,,,,,,,,bars/003.png,bars/mask006.png,,,,,,,,,,,,8,2,,,,,,,0,10,0,9,,,,,,,,,,,1199.8249,1200.3249,1200.5749,1203.3781,space,2.7829,,1203.3782,61,4,1204.3737,1204.3737,1204.3817,,,,0,21,21,21,1,25,140,,,,,,,,
,,6113113ee1e4e6df85ec7e8a,65af567f8504a42db6af7fd0,2024-01-23_24h03.30.972,bars,2023.2.3,Win32,60.60606061,657b66ea316d21385b68909f,,,,,,,,,,,1204.3819,1205.3757,,,1205.8731,1206.123,,115,115,,,,,,,,,,,,,,,,bars/028.png,bars/mask008.png,,,,,,,,,,,,8,2,,,,,,,2,10,2,10,,,,,,,,,,,1205.3757,1205.8731,1206.1231,1207.1388,space,0.9952,,1207.1389,70,5,1208.1425,1208.1426,1208.1432,,,,0,22,22,22,1,45,120,,,,,,,,
,,6113113ee1e4e6df85ec7e8a,65af567f8504a42db6af7fd0,2024-01-23_24h03.30.972,bars,2023.2.3,Win32,60.60606061,657b66ea316d21385b68909f,,,,,,,,,,,1208.1434,1209.1386,,,1209.6385,1209.8884,,173,-7,,,,,,,,,,,,,,,,bars/015.png,bars/mask008.png,,,,,,,,,,,,5,2,,,,,,,4,10,3,9,,,,,,,,,,,1209.1386,1209.6385,1209.8884,1213.2079,space,3.2992,,1213.2079,63,13,1214.2033,1214.2033,1214.2116,,,,0,23,23,23,1,110,160,,,,,,,,
,,6113113ee1e4e6df85ec7e8a,65af567f8504a42db6af7fd0,2024-01-23_24h03.30.972,bars,2023.2.3,Win32,60.60606061,657b66ea316d21385b68909f,,,,,,,,,,,1214.2116,1215.2056,,,1215.7031,1215.953,,132,-48,,,,,,,,,,,,,,,,bars/028.png,bars/mask001.png,,,,,,,,,,,,5,2,,,,,,,2,10,2,8,,,,,,,,,,,1215.2056,1215.7031,1215.953,1220.8014,space,4.8184,,1220.8015,87,12,1221.801,1221.801,1221.8091,,,,0,24,24,24,1,45,120,,,,,,,,
,,6113113ee1e4e6df85ec7e8a,65af567f8504a42db6af7fd0,2024-01-23_24h03.30.972,bars,2023.2.3,Win32,60.60606061,657b66ea316d21385b68909f,,,,,,,,,,,1221.8093,1222.8007,,,1223.3005,1223.5505,,12,12,,,,,,,,,,,,,,,,bars/012.png,bars/mask004.png,,,,,,,,,,,,9,2,,,,,,,0,10,0,10,,,,,,,,,,,1222.8007,1223.3005,1223.5505,1226.3369,space,2.766,,1226.3369,78,3,1227.3325,1227.3325,1227.3405,,,,0,25,25,25,1,90,15,,,,,,,,
,,6113113ee1e4e6df85ec7e8a,65af567f8504a42db6af7fd0,2024-01-23_24h03.30.972,bars,2023.2.3,Win32,60.60606061,657b66ea316d21385b68909f,,,,,,,,,,,1227.3407,1228.332,,,1228.832,1229.0818,,72,72,,,,,,,,,,,,,,,,bars/034.png,bars/mask005.png,,,,,,,,,,,,8,2,,,,,,,0,10,0,10,,,,,,,,,,,1228.332,1228.832,1229.0819,1230.6518,space,1.5496,,1230.6518,53,7,1231.6479,1231.648,1231.6573,,,,0,26,26,26,1,125,65,,,,,,,,
,,6113113ee1e4e6df85ec7e8a,65af567f8504a42db6af7fd0,2024-01-23_24h03.30.972,bars,2023.2.3,Win32,60.60606061,657b66ea316d21385b68909f,,,,,,,,,,,1231.6575,1232.6473,,,1233.1471,1233.397,,173,-7,,,,,,,,,,,,,,,,bars/020.png,bars/mask002.png,,,,,,,,,,,,5,2,,,,,,,0,8,0,6,,,,,,,,,,,1232.6473,1233.1471,1233.3971,1237.6454,space,4.2266,,1237.6454,58,3,1238.6452,1238.6452,1238.6531,,,,0,27,27,27,1,115,170,,,,,,,,
,,6113113ee1e4e6df85ec7e8a,65af567f8504a42db6af7fd0,2024-01-23_24h03.30.972,bars,2023.2.3,Win32,60.60606061,657b66ea316d21385b68909f,,,,,,,,,,,1238.6533,1239.6448,,,1240.1446,1240.3947,,74,74,,,,,,,,,,,,,,,,bars/011.png,bars/mask008.png,,,,,,,,,,,,3,2,,,,,,,2,6,2,5,,,,,,,,,,,1239.6448,1240.1446,1240.3947,1243.5598,space,3.1444,,1243.5598,86,11,1244.5598,1244.5598,1244.5676,,,,0,28,28,28,1,160,85,,,,,,,,
,,6113113ee1e4e6df85ec7e8a,65af567f8504a42db6af7fd0,2024-01-23_24h03.30.972,bars,2023.2.3,Win32,60.60606061,657b66ea316d21385b68909f,,,,,,,,,,,1244.5678,1245.5593,,,1246.0595,1246.3092,,177,-3,,,,,,,,,,,,,,,,bars/040.png,bars/mask000.png,,,,,,,,,,,,6,2,,,,,,,0,8,0,8,,,,,,,,,,,1245.5594,1246.0594,1246.3092,1248.2296,space,1.8999,,1248.2296,37,8,1249.225,1249.225,1249.2264,,,,0,29,29,29,1,140,5,,,,,,,,
,,6113113ee1e4e6df85ec7e8a,65af567f8504a42db6af7fd0,2024-01-23_24h03.30.972,bars,2023.2.3,Win32,60.60606061,657b66ea316d21385b68909f,,,,,,,,,,,1249.2271,1250.2245,,,1250.727,1250.9782,,29,29,,,,,,,,,,,,,,,,bars/025.png,bars/mask004.png,,,,,,,,,,,,4,2,,,,,,,0,6,0,7,,,,,,,,,,,1250.2245,1250.727,1250.9782,1252.7946,space,1.8134,,1252.7946,76,11,1253.7901,1253.7901,1253.7984,,,,0,30,30,30,1,105,40,,,,,,,,
,,6113113ee1e4e6df85ec7e8a,65af567f8504a42db6af7fd0,2024-01-23_24h03.30.972,bars,2023.2.3,Win32,60.60606061,657b66ea316d21385b68909f,,,,,,,,,,,1253.7985,1254.7895,,,1255.2896,1255.5396,,65,245,,,,,,,,,,,,,,,,bars/029.png,bars/mask009.png,,,,,,,,,,,,3,2,,,,,,,0,8,1,10,,,,,,,,,,,1254.7895,1255.2896,1255.5396,1260.8044,space,5.2353,,1260.8045,25,20,1261.8038,1261.8038,1261.813,,,,0,31,31,31,1,90,45,,,,,,,,
,,6113113ee1e4e6df85ec7e8a,65af567f8504a42db6af7fd0,2024-01-23_24h03.30.972,bars,2023.2.3,Win32,60.60606061,657b66ea316d21385b68909f,,,,,,,,,,,1261.8131,1262.8034,,,1263.3072,1263.5535,,62,62,,,,,,,,,,,,,,,,bars/010.png,bars/mask000.png,,,,,,,,,,,,8,2,,,,,,,0,10,0,10,,,,,,,,,,,1262.8034,1263.3072,1263.5535,1266.0525,space,2.477,,1266.0525,77,7,1267.0523,1267.0524,1267.0604,,,,0,32,32,32,1,165,55,,,,,,,,
,,6113113ee1e4e6df85ec7e8a,65af567f8504a42db6af7fd0,2024-01-23_24h03.30.972,bars,2023.2.3,Win32,60.60606061,657b66ea316d21385b68909f,,,,,,,,,,,1267.0605,1268.0516,,,1268.5517,1268.8016,,77,77,,,,,,,,,,,,,,,,bars/010.png,bars/mask006.png,,,,,,,,,,,,2,2,,,,,,,0,10,0,9,,,,,,,,,,,1268.0516,1268.5517,1268.8017,1271.5379,space,2.7159,,1271.5379,88,22,1272.5337,1272.5337,1272.5416,,,,0,33,33,33,1,165,55,,,,,,,,
,,6113113ee1e4e6df85ec7e8a,65af567f8504a42db6af7fd0,2024-01-23_24h03.30.972,bars,2023.2.3,Win32,60.60606061,657b66ea316d21385b68909f,,,,,,,,,,,1272.5417,1273.5334,,,1274.0332,1274.2868,,67,67,,,,,,,,,,,,,,,,bars/046.png,bars/mask001.png,,,,,,,,,,,,3,2,,,,,,,2,8,1,7,,,,,,,,,,,1273.5335,1274.0332,1274.2869,1277.6682,space,3.3648,,1277.6683,88,18,1278.6644,1278.6644,1278.6729,,,,0,34,34,34,1,155,85,,,,,,,,
,,6113113ee1e4e6df85ec7e8a,65af567f8504a42db6af7fd0,2024-01-23_24h03.30.972,bars,2023.2.3,Win32,60.60606061,657b66ea316d21385b68909f,,,,,,,,,,,1278.673,1279.6683,,,1280.1682,1280.4148,,75,75,,,,,,,,,,,,,,,,bars/027.png,bars/mask002.png,,,,,,,,,,,,1,2,,,,,,,0,6,0,7,,,,,,,,,,,1279.6683,1280.1682,1280.4149,1282.4299,space,1.9917,,1282.4299,35,25,1283.43,1283.43,1283.4319,,,,0,35,35,35,1,110,50,,,,,,,,
,,6113113ee1e4e6df85ec7e8a,65af567f8504a42db6af7fd0,2024-01-23_24h03.30.972,bars,2023.2.3,Win32,60.60606061,657b66ea316d21385b68909f,,,,,,,,,,,1283.4322,1284.4296,,,1284.9296,1285.1795,,84,84,,,,,,,,,,,,,,,,bars/011.png,bars/mask006.png,,,,,,,,,,,,8,2,,,,,,,0,8,2,8,,,,,,,,,,,1284.4297,1284.9296,1285.1795,1286.583,space,1.3833,,1286.583,76,1,1287.5785,1287.5786,1287.5803,,,,0,36,36,36,1,160,85,,,,,,,,
,,6113113ee1e4e6df85ec7e8a,65af567f8504a42db6af7fd0,2024-01-23_24h03.30.972,bars,2023.2.3,Win32,60.60606061,657b66ea316d21385b68909f,,,,,,,,,,,1287.5807,1288.5782,,,1289.0781,1289.3305,,111,111,,,,,,,,,,,,,,,,bars/028.png,bars/mask007.png,,,,,,,,,,,,5,2,,,,,,,0,6,0,7,,,,,,,,,,,1288.5782,1289.0781,1289.3306,1293.2599,space,3.9084,,1293.2599,66,9,1294.2632,1294.2632,1294.2703,,,,0,37,37,37,1,45,120,,,,,,,,
,,6113113ee1e4e6df85ec7e8a,65af567f8504a42db6af7fd0,2024-01-23_24h03.30.972,bars,2023.2.3,Win32,60.60606061,657b66ea316d21385b68909f,,,,,,,,,,,1294.2705,1295.2593,,,1295.7623,1296.0127,,101,101,,,,,,,,,,,,,,,,bars/049.png,bars/mask005.png,,,,,,,,,,,,5,2,,,,,,,0,8,1,9,,,,,,,,,,,1295.2593,1295.7623,1296.0127,1296.845,space,0.8156,,1296.845,59,14,1297.8417,1297.8417,1297.843,,,,0,38,38,38,1,160,115,,,,,,,,
,,6113113ee1e4e6df85ec7e8a,65af567f8504a42db6af7fd0,2024-01-23_24h03.30.972,bars,2023.2.3,Win32,60.60606061,657b66ea316d21385b68909f,,,,,,,,,,,1297.8439,1298.8414,,,1299.3412,1299.5912,,126,126,,,,,,,,,,,,,,,,bars/004.png,bars/mask001.png,,,,,,,,,,,,7,2,,,,,,,2,6,2,7,,,,,,,,,,,1298.8414,1299.3412,1299.5912,1302.0779,space,2.4663,,1302.0779,79,1,1303.0734,1303.0734,1303.0814,,,,0,39,39,39,1,25,125,,,,,,,,
,,6113113ee1e4e6df85ec7e8a,65af567f8504a42db6af7fd0,2024-01-23_24h03.30.972,bars,2023.2.3,Win32,60.60606061,657b66ea316d21385b68909f,,,,,,,,,,,1303.0816,1304.0729,,,1304.5728,1304.8227,,108,108,,,,,,,,,,,,,,,,bars/041.png,bars/mask007.png,,,,,,,,,,,,1,2,,,,,,,4,4,5,3,,,,,,,,,,,1304.0729,1304.5728,1304.8227,1308.2424,space,3.3993,,1308.2424,88,23,1309.2379,1309.238,1309.246,,,,0,40,40,40,1,20,85,,,,,,,,
,,6113113ee1e4e6df85ec7e8a,65af567f8504a42db6af7fd0,2024-01-23_24h03.30.972,bars,2023.2.3,Win32,60.60606061,657b66ea316d21385b68909f,,,,,,,,,,,1309.2461,1310.2376,,,1310.7411,1310.9874,,7,7,,,,,,,,,,,,,,,,bars/045.png,bars/mask002.png,,,,,,,,,,,,6,2,,,,,,,2,6,1,7,,,,,,,,,,,1310.2376,1310.7411,1310.9875,1312.6867,space,1.6696,,1312.6868,87,3,1313.6863,1313.6863,1313.6876,,,,0,41,41,41,1,100,10,,,,,,,,
,,6113113ee1e4e6df85ec7e8a,65af567f8504a42db6af7fd0,2024-01-23_24h03.30.972,bars,2023.2.3,Win32,60.60606061,657b66ea316d21385b68909f,,,,,,,,,,,1313.6884,1314.686,,,1315.1896,1315.4354,,46,226,,,,,,,,,,,,,,,,bars/017.png,bars/mask005.png,,,,,,,,,,,,3,2,,,,,,,4,4,3,3,,,,,,,,,,,1314.686,1315.1896,1315.4354,1319.6886,space,4.2326,,1319.6886,81,1,1320.6839,1320.6839,1320.6921,,,,0,42,42,42,1,145,45,,,,,,,,
,,6113113ee1e4e6df85ec7e8a,65af567f8504a42db6af7fd0,2024-01-23_24h03.30.972,bars,2023.2.3,Win32,60.60606061,657b66ea316d21385b68909f,,,,,,,,,,,1320.6923,1321.6835,,,1322.1836,1322.4333,,103,103,,,,,,,,,,,,,,,,bars/019.png,bars/mask009.png,,,,,,,,,,,,6,2,,,,,,,2,6,4,6,,,,,,,,,,,1321.6835,1322.1835,1322.4334,1325.2159,space,2.7517,,1325.216,58,2,1326.2154,1326.2155,1326.2233,,,,0,43,43,43,1,45,105,,,,,,,,
,,6113113ee1e4e6df85ec7e8a,65af567f8504a42db6af7fd0,2024-01-23_24h03.30.972,bars,2023.2.3,Win32,60.60606061,657b66ea316d21385b68909f,,,,,,,,,,,1326.2234,1327.2148,,,1327.7188,1327.9648,,163,163,,,,,,,,,,,,,,,,bars/024.png,bars/mask002.png,,,,,,,,,,,,6,2,,,,,,,0,8,0,8,,,,,,,,,,,1327.2148,1327.7188,1327.9648,1330.9512,space,2.9661,,1330.9512,43,7,1331.9468,1331.9469,1331.9548,,,,0,44,44,44,1,120,170,,,,,,,,
,,6113113ee1e4e6df85ec7e8a,65af567f8504a42db6af7fd0,2024-01-23_24h03.30.972,bars,2023.2.3,Win32,60.60606061,657b66ea316d21385b68909f,,,,,,,,,,,1331.9549,1332.9487,,,1333.4488,1333.6962,,115,-65,,,,,,,,,,,,,,,,bars/049.png,bars/mask008.png,,,,,,,,,,,,7,2,,,,,,,2,6,1,7,,,,,,,,,,,1332.9487,1333.4487,1333.6963,1338.7487,space,5.0321,,1338.7487,45,0,1339.7439,1339.744,1339.7521,,,,0,45,45,45,1,160,115,,,,,,,,
,,6113113ee1e4e6df85ec7e8a,65af567f8504a42db6af7fd0,2024-01-23_24h03.30.972,bars,2023.2.3,Win32,60.60606061,657b66ea316d21385b68909f,,,,,,,,,,,1339.7522,1340.7439,,,1341.2436,1341.4971,,105,105,,,,,,,,,,,,,,,,bars/009.png,bars/mask003.png,,,,,,,,,,,,4,2,,,,,,,0,4,0,4,,,,,,,,,,,1340.7439,1341.2436,1341.4971,1344.276,space,2.7497,,1344.276,90,0,1345.2755,1345.2756,1345.2838,,,,0,46,46,46,1,15,105,,,,,,,,
,,6113113ee1e4e6df85ec7e8a,65af567f8504a42db6af7fd0,2024-01-23_24h03.30.972,bars,2023.2.3,Win32,60.60606061,657b66ea316d21385b68909f,,,,,,,,,,,1345.2839,1346.2789,,,1346.7751,1347.0251,,101,101,,,,,,,,,,,,,,,,bars/006.png,bars/mask000.png,,,,,,,,,,,,6,2,,,,,,,2,6,2,6,,,,,,,,,,,1346.2789,1346.775,1347.0251,1348.6911,space,1.6361,,1348.6911,66,1,1349.6909,1349.6909,1349.6923,,,,0,47,47,47,1,35,100,,,,,,,,
,,6113113ee1e4e6df85ec7e8a,65af567f8504a42db6af7fd0,2024-01-23_24h03.30.972,bars,2023.2.3,Win32,60.60606061,657b66ea316d21385b68909f,,,,,,,,,,,1349.6929,1350.6904,,,1351.1903,1351.4401,,152,152,,,,,,,,,,,,,,,,bars/000.png,bars/mask004.png,,,,,,,,,,,,2,2,,,,,,,0,4,0,3,,,,,,,,,,,1350.6905,1351.1903,1351.4402,1353.5561,space,2.09,,1353.5561,68,7,1354.5555,1354.5555,1354.5638,,,,0,48,48,48,1,40,145,,,,,,,,
,,6113113ee1e4e6df85ec7e8a,65af567f8504a42db6af7fd0,2024-01-23_24h03.30.972,bars,2023.2.3,Win32,60.60606061,657b66ea316d21385b68909f,,,,,,,,,,,1354.5639,1355.5554,,,1356.0553,1356.3053,,25,205,,,,,,,,,,,,,,,,bars/025.png,bars/mask003.png,,,,,,,,,,,,2,2,,,,,,,2,2,2,3,,,,,,,,,,,1355.5554,1356.0553,1356.3053,1359.8748,space,3.5494,,1359.8748,80,15,1360.8702,1360.8702,1360.8788,,,,0,49,49,49,1,105,40,,,,,,,,
,,6113113ee1e4e6df85ec7e8a,65af567f8504a42db6af7fd0,2024-01-23_24h03.30.972,bars,2023.2.3,Win32,60.60606061,657b66ea316d21385b68909f,,,,,,,,,,,,,,,,,,,,,,,,,,,,,,,,,,,,,,,,,,,,,,,,,,,,,,,,,,,,,,,,,,,,,,,,,,,,,,,,,,,,,,,,,,,,,1360.879,1420.8832,0,1,1,0,1,sequence_tables/blk043.csv
,,6113113ee1e4e6df85ec7e8a,65af567f8504a42db6af7fd0,2024-01-23_24h03.30.972,bars,2023.2.3,Win32,60.60606061,657b66ea316d21385b68909f,,,,,,,,,,,1446.1662,1447.1575,,,1447.6574,1447.9073,,119,119,,,,,,,,,,,,,,,,bars/015.png,bars/mask001.png,,,,,,,,,,,,5,1,,,,,,,7,5,7,6,,,,,,1420.8919,1446.1624,space,25.2585,,1447.1575,1447.6574,1447.9074,1456.1919,space,8.2639,,1456.1919,9,41,1457.1874,1457.1875,1457.1971,,,,0,0,0,0,1,110,160,,,,,,,,
,,6113113ee1e4e6df85ec7e8a,65af567f8504a42db6af7fd0,2024-01-23_24h03.30.972,bars,2023.2.3,Win32,60.60606061,657b66ea316d21385b68909f,,,,,,,,,,,1457.1973,1458.1882,,,1458.6871,1458.9369,,145,145,,,,,,,,,,,,,,,,bars/000.png,bars/mask009.png,,,,,,,,,,,,2,2,,,,,,,9,3,10,2,,,,,,,,,,,1458.1884,1458.6871,1458.9369,1460.7031,space,1.7363,,1460.7032,75,0,1461.7026,1461.7026,1461.7134,,,,0,1,1,1,1,40,145,,,,,,,,
,,6113113ee1e4e6df85ec7e8a,65af567f8504a42db6af7fd0,2024-01-23_24h03.30.972,bars,2023.2.3,Win32,60.60606061,657b66ea316d21385b68909f,,,,,,,,,,,1461.7135,1462.7023,,,1463.2059,1463.4518,,161,-19,,,,,,,,,,,,,,,,bars/043.png,bars/mask003.png,,,,,,,,,,,,0,2,,,,,,,7,1,6,2,,,,,,,,,,,1462.7024,1463.2059,1463.4518,1467.1009,space,3.6211,,1467.101,49,31,1468.1041,1468.1041,1468.1112,,,,0,2,2,2,1,30,130,,,,,,,,
,,6113113ee1e4e6df85ec7e8a,65af567f8504a42db6af7fd0,2024-01-23_24h03.30.972,bars,2023.2.3,Win32,60.60606061,657b66ea316d21385b68909f,,,,,,,,,,,1468.1113,1469.1001,,,1469.6,1469.8536,,168,-12,,,,,,,,,,,,,,,,bars/042.png,bars/mask001.png,,,,,,,,,,,,1,1,,,,,,,5,3,5,2,,,,,,,,,,,1469.1002,1469.6,1469.8536,1471.7696,space,1.913,,1471.7696,23,87,1472.7654,1472.7654,1472.7681,,,,0,3,3,3,1,145,75,,,,,,,,
,,6113113ee1e4e6df85ec7e8a,65af567f8504a42db6af7fd0,2024-01-23_24h03.30.972,bars,2023.2.3,Win32,60.60606061,657b66ea316d21385b68909f,,,,,,,,,,,1472.7683,1473.7651,,,1474.265,1474.5146,,155,155,,,,,,,,,,,,,,,,bars/042.png,bars/mask002.png,,,,,,,,,,,,4,1,,,,,,,7,1,6,2,,,,,,,,,,,1473.7651,1474.265,1474.5146,1476.331,space,1.7913,,1476.3311,10,80,1477.3305,1477.3305,1477.3316,,,,0,4,4,4,1,145,75,,,,,,,,
,,6113113ee1e4e6df85ec7e8a,65af567f8504a42db6af7fd0,2024-01-23_24h03.30.972,bars,2023.2.3,Win32,60.60606061,657b66ea316d21385b68909f,,,,,,,,,,,1477.3324,1478.3302,,,1478.8302,1479.0824,,66,66,,,,,,,,,,,,,,,,bars/029.png,bars/mask004.png,,,,,,,,,,,,0,2,,,,,,,5,0,5,0,,,,,,,,,,,1478.3303,1478.8302,1479.0824,1480.6294,space,1.5229,,1480.6294,24,21,1481.6328,1481.6328,1481.6404,,,,0,5,5,5,1,90,45,,,,,,,,
,,6113113ee1e4e6df85ec7e8a,65af567f8504a42db6af7fd0,2024-01-23_24h03.30.972,bars,2023.2.3,Win32,60.60606061,657b66ea316d21385b68909f,,,,,,,,,,,1481.6405,1482.6288,,,1483.1324,1483.3786,,114,114,,,,,,,,,,,,,,,,bars/045.png,bars/mask004.png,,,,,,,,,,,,4,1,,,,,,,7,2,8,3,,,,,,,,,,,1482.6288,1483.1324,1483.3787,1486.232,space,2.8328,,1486.232,14,76,1487.2272,1487.2272,1487.2359,,,,0,6,6,6,1,100,10,,,,,,,,
,,6113113ee1e4e6df85ec7e8a,65af567f8504a42db6af7fd0,2024-01-23_24h03.30.972,bars,2023.2.3,Win32,60.60606061,657b66ea316d21385b68909f,,,,,,,,,,,1487.236,1488.2293,,,1488.7269,1488.9767,,66,66,,,,,,,,,,,,,,,,bars/044.png,bars/mask000.png,,,,,,,,,,,,7,1,,,,,,,9,0,10,1,,,,,,,,,,,1488.2293,1488.7269,1488.9768,1492.259,space,3.2577,,1492.259,9,89,1493.2583,1493.2583,1493.2663,,,,0,7,7,7,1,75,155,,,,,,,,
,,6113113ee1e4e6df85ec7e8a,65af567f8504a42db6af7fd0,2024-01-23_24h03.30.972,bars,2023.2.3,Win32,60.60606061,657b66ea316d21385b68909f,,,,,,,,,,,1493.2664,1494.2579,,,1494.7618,1495.0079,,111,111,,,,,,,,,,,,,,,,bars/012.png,bars/mask009.png,,,,,,,,,,,,2,1,,,,,,,7,0,6,0,,,,,,,,,,,1494.258,1494.7617,1495.0079,1498.0071,space,2.9743,,1498.0071,21,84,1499.0065,1499.0066,1499.0146,,,,0,8,8,8,1,90,15,,,,,,,,
,,6113113ee1e4e6df85ec7e8a,65af567f8504a42db6af7fd0,2024-01-23_24h03.30.972,bars,2023.2.3,Win32,60.60606061,657b66ea316d21385b68909f,,,,,,,,,,,1499.0148,1500.0063,,,1500.5062,1500.7561,,69,69,,,,,,,,,,,,,,,,bars/029.png,bars/mask004.png,,,,,,,,,,,,1,1,,,,,,,5,2,4,1,,,,,,,,,,,1500.0063,1500.5061,1500.7561,1505.0923,space,4.3158,,1505.0923,21,24,1506.0875,1506.0876,1506.0955,,,,0,9,9,9,1,90,45,,,,,,,,
,,6113113ee1e4e6df85ec7e8a,65af567f8504a42db6af7fd0,2024-01-23_24h03.30.972,bars,2023.2.3,Win32,60.60606061,657b66ea316d21385b68909f,,,,,,,,,,,1506.0957,1507.0872,,,1507.587,1507.837,,112,112,,,,,,,,,,,,,,,,bars/037.png,bars/mask001.png,,,,,,,,,,,,0,2,,,,,,,3,0,4,0,,,,,,,,,,,1507.0872,1507.587,1507.837,1509.3863,space,1.5211,,1509.3863,38,7,1510.386,1510.386,1510.3886,,,,0,10,10,10,1,150,105,,,,,,,,
,,6113113ee1e4e6df85ec7e8a,65af567f8504a42db6af7fd0,2024-01-23_24h03.30.972,bars,2023.2.3,Win32,60.60606061,657b66ea316d21385b68909f,,,,,,,,,,,1510.3888,1511.3856,,,1511.8855,1512.1354,,66,66,,,,,,,,,,,,,,,,bars/041.png,bars/mask003.png,,,,,,,,,,,,0,2,,,,,,,1,0,1,0,,,,,,,,,,,1511.3857,1511.8855,1512.1355,1514.5721,space,2.4162,,1514.5721,46,19,1515.5715,1515.5715,1515.572,,,,0,11,11,11,1,20,85,,,,,,,,
,,6113113ee1e4e6df85ec7e8a,65af567f8504a42db6af7fd0,2024-01-23_24h03.30.972,bars,2023.2.3,Win32,60.60606061,657b66ea316d21385b68909f,,,,,,,,,,,1515.5723,1516.5671,,,1517.0671,1517.317,,57,237,,,,,,,,,,,,,,,,bars/027.png,bars/mask001.png,,,,,,,,,,,,0,2,,,,,,,3,0,3,0,,,,,,,,,,,1516.5671,1517.0671,1517.317,1520.7362,space,3.3988,,1520.7362,53,7,1521.732,1521.732,1521.7411,,,,0,12,12,12,1,110,50,,,,,,,,
,,6113113ee1e4e6df85ec7e8a,65af567f8504a42db6af7fd0,2024-01-23_24h03.30.972,bars,2023.2.3,Win32,60.60606061,657b66ea316d21385b68909f,,,,,,,,,,,1521.7412,1522.7343,,,1523.2354,1523.4816,,120,120,,,,,,,,,,,,,,,,bars/008.png,bars/mask007.png,,,,,,,,,,,,3,1,,,,,,,5,0,4,0,,,,,,,,,,,1522.7343,1523.2354,1523.4816,1525.9854,space,2.483,,1525.9854,10,60,1526.9805,1526.9805,1526.9894,,,,0,13,13,13,1,110,0,,,,,,,,
,,6113113ee1e4e6df85ec7e8a,65af567f8504a42db6af7fd0,2024-01-23_24h03.30.972,bars,2023.2.3,Win32,60.60606061,657b66ea316d21385b68909f,,,,,,,,,,,1526.9895,1527.9834,,,1528.4824,1528.7298,,20,20,,,,,,,,,,,,,,,,bars/003.png,bars/mask001.png,,,,,,,,,,,,3,1,,,,,,,3,0,3,2,,,,,,,,,,,1527.9834,1528.4823,1528.7299,1531.9648,space,3.2147,,1531.9649,5,60,1532.9611,1532.9612,1532.9698,,,,0,14,14,14,1,25,140,,,,,,,,
,,6113113ee1e4e6df85ec7e8a,65af567f8504a42db6af7fd0,2024-01-23_24h03.30.972,bars,2023.2.3,Win32,60.60606061,657b66ea316d21385b68909f,,,,,,,,,,,1532.9699,1533.9613,,,1534.4612,1534.7111,,169,169,,,,,,,,,,,,,,,,bars/007.png,bars/mask004.png,,,,,,,,,,,,3,1,,,,,,,5,2,4,3,,,,,,,,,,,1533.9614,1534.4612,1534.7111,1536.6314,space,1.8999,,1536.6314,6,66,1537.6267,1537.6268,1537.6288,,,,0,15,15,15,1,175,55,,,,,,,,
,,6113113ee1e4e6df85ec7e8a,65af567f8504a42db6af7fd0,2024-01-23_24h03.30.972,bars,2023.2.3,Win32,60.60606061,657b66ea316d21385b68909f,,,,,,,,,,,1537.6291,1538.63,,,1539.1262,1539.3761,,168,168,,,,,,,,,,,,,,,,bars/049.png,bars/mask008.png,,,,,,,,,,,,6,1,,,,,,,7,4,8,3,,,,,,,,,,,1538.63,1539.1262,1539.3761,1544.2079,space,4.8069,,1544.208,8,53,1545.2111,1545.2113,1545.2184,,,,0,16,16,16,1,160,115,,,,,,,,
,,6113113ee1e4e6df85ec7e8a,65af567f8504a42db6af7fd0,2024-01-23_24h03.30.972,bars,2023.2.3,Win32,60.60606061,657b66ea316d21385b68909f,,,,,,,,,,,1545.2187,1546.2071,,,1546.707,1546.9607,,166,166,,,,,,,,,,,,,,,,bars/021.png,bars/mask002.png,,,,,,,,,,,,6,1,,,,,,,9,2,9,3,,,,,,,,,,,1546.2071,1546.707,1546.9607,1549.7768,space,2.8131,,1549.7768,11,84,1550.7723,1550.7723,1550.7802,,,,0,17,17,17,1,155,70,,,,,,,,
,,6113113ee1e4e6df85ec7e8a,65af567f8504a42db6af7fd0,2024-01-23_24h03.30.972,bars,2023.2.3,Win32,60.60606061,657b66ea316d21385b68909f,,,,,,,,,,,1550.7804,1551.7756,,,1552.2718,1552.5217,,169,169,,,,,,,,,,,,,,,,bars/021.png,bars/mask009.png,,,,,,,,,,,,5,1,,,,,,,10,0,10,1,,,,,,,,,,,1551.7756,1552.2718,1552.5217,1555.5536,space,3.0052,,1555.5536,14,81,1556.5537,1556.5537,1556.5616,,,,0,18,18,18,1,155,70,,,,,,,,
,,6113113ee1e4e6df85ec7e8a,65af567f8504a42db6af7fd0,2024-01-23_24h03.30.972,bars,2023.2.3,Win32,60.60606061,657b66ea316d21385b68909f,,,,,,,,,,,1556.5618,1557.5531,,,1558.0527,1558.303,,17,197,,,,,,,,,,,,,,,,bars/023.png,bars/mask006.png,,,,,,,,,,,,6,1,,,,,,,10,0,7,0,,,,,,,,,,,1557.5531,1558.0527,1558.303,1560.4858,space,2.1537,,1560.4858,3,82,1561.4853,1561.4854,1561.487,,,,0,19,19,19,1,20,115,,,,,,,,
,,6113113ee1e4e6df85ec7e8a,65af567f8504a42db6af7fd0,2024-01-23_24h03.30.972,bars,2023.2.3,Win32,60.60606061,657b66ea316d21385b68909f,,,,,,,,,,,1561.4876,1562.485,,,1562.9848,1563.2342,,172,-8,,,,,,,,,,,,,,,,bars/030.png,bars/mask000.png,,,,,,,,,,,,0,1,,,,,,,8,2,7,3,,,,,,,,,,,1562.485,1562.9848,1563.2343,1567.3663,space,4.1057,,1567.3664,32,73,1568.3663,1568.3664,1568.3743,,,,0,20,20,20,1,140,65,,,,,,,,
,,6113113ee1e4e6df85ec7e8a,65af567f8504a42db6af7fd0,2024-01-23_24h03.30.972,bars,2023.2.3,Win32,60.60606061,657b66ea316d21385b68909f,,,,,,,,,,,1568.3744,1569.366,,,1569.8658,1570.1157,,28,28,,,,,,,,,,,,,,,,bars/026.png,bars/mask004.png,,,,,,,,,,,,8,1,,,,,,,10,4,10,4,,,,,,,,,,,1569.366,1569.8658,1570.1157,1573.5474,space,3.4111,,1573.5474,7,57,1574.5475,1574.5475,1574.5561,,,,0,21,21,21,1,35,85,,,,,,,,
,,6113113ee1e4e6df85ec7e8a,65af567f8504a42db6af7fd0,2024-01-23_24h03.30.972,bars,2023.2.3,Win32,60.60606061,657b66ea316d21385b68909f,,,,,,,,,,,1574.5564,1575.5471,,,1576.047,1576.2968,,58,58,,,,,,,,,,,,,,,,bars/012.png,bars/mask009.png,,,,,,,,,,,,0,1,,,,,,,8,2,7,2,,,,,,,,,,,1575.5472,1576.047,1576.2968,1579.4335,space,3.1162,,1579.4335,32,43,1580.4289,1580.4289,1580.4372,,,,0,22,22,22,1,90,15,,,,,,,,
,,6113113ee1e4e6df85ec7e8a,65af567f8504a42db6af7fd0,2024-01-23_24h03.30.972,bars,2023.2.3,Win32,60.60606061,657b66ea316d21385b68909f,,,,,,,,,,,1580.4372,1581.4285,,,1581.9283,1582.1782,,156,156,,,,,,,,,,,,,,,,bars/011.png,bars/mask008.png,,,,,,,,,,,,8,1,,,,,,,10,0,9,0,,,,,,,,,,,1581.4285,1581.9283,1582.1782,1584.7108,space,2.5043,,1584.7108,4,71,1585.7102,1585.7102,1585.7184,,,,0,23,23,23,1,160,85,,,,,,,,
,,6113113ee1e4e6df85ec7e8a,65af567f8504a42db6af7fd0,2024-01-23_24h03.30.972,bars,2023.2.3,Win32,60.60606061,657b66ea316d21385b68909f,,,,,,,,,,,1585.7185,1586.7101,,,1587.2099,1587.4597,,15,195,,,,,,,,,,,,,,,,bars/010.png,bars/mask002.png,,,,,,,,,,,,0,1,,,,,,,10,0,10,0,,,,,,,,,,,1586.7101,1587.2099,1587.4597,1589.3634,space,1.883,,1589.3634,30,40,1590.3589,1590.3589,1590.3669,,,,0,24,24,24,1,165,55,,,,,,,,
,,6113113ee1e4e6df85ec7e8a,65af567f8504a42db6af7fd0,2024-01-23_24h03.30.972,bars,2023.2.3,Win32,60.60606061,657b66ea316d21385b68909f,,,,,,,,,,,1590.367,1591.3584,,,1591.8583,1592.1077,,106,-74,,,,,,,,,,,,,,,,bars/008.png,bars/mask006.png,,,,,,,,,,,,7,1,,,,,,,8,0,8,2,,,,,,,,,,,1591.3584,1591.8583,1592.1078,1597.6228,space,5.4937,,1597.6228,4,74,1598.6225,1598.6225,1598.6314,,,,0,25,25,25,1,110,0,,,,,,,,
,,6113113ee1e4e6df85ec7e8a,65af567f8504a42db6af7fd0,2024-01-23_24h03.30.972,bars,2023.2.3,Win32,60.60606061,657b66ea316d21385b68909f,,,,,,,,,,,1598.6316,1599.6223,,,1600.1222,1600.3757,,21,201,,,,,,,,,,,,,,,,bars/006.png,bars/mask008.png,,,,,,,,,,,,5,1,,,,,,,10,0,10,2,,,,,,,,,,,1599.6223,1600.1222,1600.3757,1602.8419,space,2.4495,,1602.8419,14,79,1603.837,1603.8371,1603.8451,,,,0,26,26,26,1,35,100,,,,,,,,
,,6113113ee1e4e6df85ec7e8a,65af567f8504a42db6af7fd0,2024-01-23_24h03.30.972,bars,2023.2.3,Win32,60.60606061,657b66ea316d21385b68909f,,,,,,,,,,,1603.8452,1604.8372,,,1605.3372,1605.5871,,33,33,,,,,,,,,,,,,,,,bars/003.png,bars/mask000.png,,,,,,,,,,,,4,1,,,,,,,8,2,6,2,,,,,,,,,,,1604.8372,1605.3371,1605.5871,1608.9526,space,3.3382,,1608.9528,8,73,1609.9521,1609.9522,1609.96,,,,0,27,27,27,1,25,140,,,,,,,,
,,6113113ee1e4e6df85ec7e8a,65af567f8504a42db6af7fd0,2024-01-23_24h03.30.972,bars,2023.2.3,Win32,60.60606061,657b66ea316d21385b68909f,,,,,,,,,,,1609.9603,1610.9516,,,1611.4515,1611.7013,,125,125,,,,,,,,,,,,,,,,bars/001.png,bars/mask003.png,,,,,,,,,,,,5,1,,,,,,,6,4,6,4,,,,,,,,,,,1610.9516,1611.4514,1611.7013,1614.5007,space,2.7684,,1614.5007,5,40,1615.5002,1615.5002,1615.5083,,,,0,28,28,28,1,130,85,,,,,,,,
,,6113113ee1e4e6df85ec7e8a,65af567f8504a42db6af7fd0,2024-01-23_24h03.30.972,bars,2023.2.3,Win32,60.60606061,657b66ea316d21385b68909f,,,,,,,,,,,1615.5084,1616.4999,,,1617.0037,1617.2496,,116,-64,,,,,,,,,,,,,,,,bars/025.png,bars/mask007.png,,,,,,,,,,,,3,1,,,,,,,4,6,5,7,,,,,,,,,,,1616.5,1617.0036,1617.2497,1621.1485,space,3.873,,1621.1485,11,76,1622.148,1622.1481,1622.156,,,,0,29,29,29,1,105,40,,,,,,,,
,,6113113ee1e4e6df85ec7e8a,65af567f8504a42db6af7fd0,2024-01-23_24h03.30.972,bars,2023.2.3,Win32,60.60606061,657b66ea316d21385b68909f,,,,,,,,,,,1622.1561,1623.1475,,,1623.6512,1623.8974,,42,42,,,,,,,,,,,,,,,,bars/028.png,bars/mask002.png,,,,,,,,,,,,6,1,,,,,,,6,8,7,8,,,,,,,,,,,1623.1475,1623.6512,1623.8974,1625.1637,space,1.2365,,1625.1637,3,78,1626.1633,1626.1633,1626.1654,,,,0,30,30,30,1,45,120,,,,,,,,
,,6113113ee1e4e6df85ec7e8a,65af567f8504a42db6af7fd0,2024-01-23_24h03.30.972,bars,2023.2.3,Win32,60.60606061,657b66ea316d21385b68909f,,,,,,,,,,,1626.1656,1627.1628,,,1627.6628,1627.9152,,46,226,,,,,,,,,,,,,,,,bars/019.png,bars/mask009.png,,,,,,,,,,,,7,1,,,,,,,8,6,7,6,,,,,,,,,,,1627.1628,1627.6628,1627.9152,1630.5492,space,2.6173,,1630.5492,1,59,1631.5446,1631.5447,1631.5527,,,,0,31,31,31,1,45,105,,,,,,,,
,,6113113ee1e4e6df85ec7e8a,65af567f8504a42db6af7fd0,2024-01-23_24h03.30.972,bars,2023.2.3,Win32,60.60606061,657b66ea316d21385b68909f,,,,,,,,,,,1631.5528,1632.5441,,,1633.0443,1633.2939,,73,73,,,,,,,,,,,,,,,,bars/014.png,bars/mask005.png,,,,,,,,,,,,5,1,,,,,,,6,4,7,3,,,,,,,,,,,1632.5441,1633.0443,1633.2939,1635.5603,space,2.2452,,1635.5605,7,73,1636.5597,1636.5597,1636.5615,,,,0,32,32,32,1,80,0,,,,,,,,
,,6113113ee1e4e6df85ec7e8a,65af567f8504a42db6af7fd0,2024-01-23_24h03.30.972,bars,2023.2.3,Win32,60.60606061,657b66ea316d21385b68909f,,,,,,,,,,,1636.5618,1637.5592,,,1638.0593,1638.3092,,77,77,,,,,,,,,,,,,,,,bars/029.png,bars/mask005.png,,,,,,,,,,,,5,1,,,,,,,8,6,8,4,,,,,,,,,,,1637.5593,1638.0593,1638.3092,1641.745,space,3.4152,,1641.745,13,32,1642.7411,1642.7411,1642.7489,,,,0,33,33,33,1,90,45,,,,,,,,
,,6113113ee1e4e6df85ec7e8a,65af567f8504a42db6af7fd0,2024-01-23_24h03.30.972,bars,2023.2.3,Win32,60.60606061,657b66ea316d21385b68909f,,,,,,,,,,,1642.749,1643.7405,,,1644.2402,1644.4905,,155,155,,,,,,,,,,,,,,,,bars/040.png,bars/mask003.png,,,,,,,,,,,,5,1,,,,,,,10,8,10,7,,,,,,,,,,,1643.7405,1644.2402,1644.4905,1646.1065,space,1.5899,,1646.1065,15,30,1647.1064,1647.1064,1647.1144,,,,0,34,34,34,1,140,5,,,,,,,,
,,6113113ee1e4e6df85ec7e8a,65af567f8504a42db6af7fd0,2024-01-23_24h03.30.972,bars,2023.2.3,Win32,60.60606061,657b66ea316d21385b68909f,,,,,,,,,,,1647.1146,1648.1058,,,1648.6058,1648.8555,,172,172,,,,,,,,,,,,,,,,bars/042.png,bars/mask003.png,,,,,,,,,,,,1,1,,,,,,,8,10,6,10,,,,,,,,,,,1648.1058,1648.6058,1648.8555,1650.5423,space,1.6663,,1650.5423,27,83,1651.5379,1651.538,1651.5461,,,,0,35,35,35,1,145,75,,,,,,,,
,,6113113ee1e4e6df85ec7e8a,65af567f8504a42db6af7fd0,2024-01-23_24h03.30.972,bars,2023.2.3,Win32,60.60606061,657b66ea316d21385b68909f,,,,,,,,,,,1651.5462,1652.5418,,,1653.0374,1653.2874,,160,-20,,,,,,,,,,,,,,,,bars/036.png,bars/mask009.png,,,,,,,,,,,,4,1,,,,,,,6,8,7,8,,,,,,,,,,,1652.5419,1653.0373,1653.2874,1657.4695,space,4.1499,,1657.4695,15,40,1658.4728,1658.4728,1658.4798,,,,0,36,36,36,1,145,20,,,,,,,,
,,6113113ee1e4e6df85ec7e8a,65af567f8504a42db6af7fd0,2024-01-23_24h03.30.972,bars,2023.2.3,Win32,60.60606061,657b66ea316d21385b68909f,,,,,,,,,,,1658.4799,1659.4685,,,1659.9685,1660.2183,,67,247,,,,,,,,,,,,,,,,bars/044.png,bars/mask001.png,,,,,,,,,,,,3,1,,,,,,,4,6,4,6,,,,,,,,,,,1659.4685,1659.9685,1660.2184,1664.5169,space,4.2672,,1664.5169,8,88,1665.5165,1665.5165,1665.5244,,,,0,37,37,37,1,75,155,,,,,,,,
,,6113113ee1e4e6df85ec7e8a,65af567f8504a42db6af7fd0,2024-01-23_24h03.30.972,bars,2023.2.3,Win32,60.60606061,657b66ea316d21385b68909f,,,,,,,,,,,1665.5245,1666.5162,,,1667.016,1667.2659,,60,60,,,,,,,,,,,,,,,,bars/014.png,bars/mask002.png,,,,,,,,,,,,2,1,,,,,,,6,4,6,4,,,,,,,,,,,1666.5162,1667.016,1667.266,1669.6985,space,2.4031,,1669.6986,20,60,1670.6982,1670.6982,1670.7001,,,,0,38,38,38,1,80,0,,,,,,,,
,,6113113ee1e4e6df85ec7e8a,65af567f8504a42db6af7fd0,2024-01-23_24h03.30.972,bars,2023.2.3,Win32,60.60606061,657b66ea316d21385b68909f,,,,,,,,,,,1670.7004,1671.6978,,,1672.1976,1672.4476,,51,51,,,,,,,,,,,,,,,,bars/048.png,bars/mask002.png,,,,,,,,,,,,7,1,,,,,,,8,6,7,6,,,,,,,,,,,1671.6978,1672.1976,1672.4476,1674.5135,space,2.0428,,1674.5135,1,56,1675.5156,1675.5157,1675.5227,,,,0,39,39,39,1,50,175,,,,,,,,
,,6113113ee1e4e6df85ec7e8a,65af567f8504a42db6af7fd0,2024-01-23_24h03.30.972,bars,2023.2.3,Win32,60.60606061,657b66ea316d21385b68909f,,,,,,,,,,,1675.5228,1676.5129,,,1677.0126,1677.2651,,164,-16,,,,,,,,,,,,,,,,bars/040.png,bars/mask008.png,,,,,,,,,,,,1,2,,,,,,,10,4,9,3,,,,,,,,,,,1676.5129,1677.0126,1677.2652,1681.7485,space,4.4655,,1681.7486,24,21,1682.7439,1682.7439,1682.7528,,,,0,40,40,40,1,140,5,,,,,,,,
,,6113113ee1e4e6df85ec7e8a,65af567f8504a42db6af7fd0,2024-01-23_24h03.30.972,bars,2023.2.3,Win32,60.60606061,657b66ea316d21385b68909f,,,,,,,,,,,1682.7529,1683.7438,,,1684.243,1684.4934,,109,109,,,,,,,,,,,,,,,,bars/027.png,bars/mask006.png,,,,,,,,,,,,9,1,,,,,,,8,2,9,0,,,,,,,,,,,1683.7438,1684.243,1684.4934,1689.0581,space,4.5371,,1689.0581,1,59,1690.0582,1690.0582,1690.0665,,,,0,41,41,41,1,110,50,,,,,,,,
,,6113113ee1e4e6df85ec7e8a,65af567f8504a42db6af7fd0,2024-01-23_24h03.30.972,bars,2023.2.3,Win32,60.60606061,657b66ea316d21385b68909f,,,,,,,,,,,1690.0667,1691.0579,,,1691.5576,1691.8076,,109,109,,,,,,,,,,,,,,,,bars/025.png,bars/mask009.png,,,,,,,,,,,,9,1,,,,,,,10,0,10,0,,,,,,,,,,,1691.0579,1691.5575,1691.8076,1693.607,space,1.7723,,1693.607,4,69,1694.6066,1694.6066,1694.6082,,,,0,42,42,42,1,105,40,,,,,,,,
,,6113113ee1e4e6df85ec7e8a,65af567f8504a42db6af7fd0,2024-01-23_24h03.30.972,bars,2023.2.3,Win32,60.60606061,657b66ea316d21385b68909f,,,,,,,,,,,1694.6089,1695.6063,,,1696.1061,1696.356,,133,-47,,,,,,,,,,,,,,,,bars/017.png,bars/mask006.png,,,,,,,,,,,,5,1,,,,,,,8,2,8,2,,,,,,,,,,,1695.6064,1696.1061,1696.3561,1701.0045,space,4.6157,,1701.0045,12,88,1702.0077,1702.0078,1702.0149,,,,0,43,43,43,1,145,45,,,,,,,,
,,6113113ee1e4e6df85ec7e8a,65af567f8504a42db6af7fd0,2024-01-23_24h03.30.972,bars,2023.2.3,Win32,60.60606061,657b66ea316d21385b68909f,,,,,,,,,,,1702.0151,1703.0038,,,1703.5038,1703.7558,,73,73,,,,,,,,,,,,,,,,bars/029.png,bars/mask000.png,,,,,,,,,,,,4,1,,,,,,,10,0,10,1,,,,,,,,,,,1703.0038,1703.5038,1703.7558,1705.9069,space,2.1333,,1705.907,17,28,1706.9058,1706.9058,1706.9065,,,,0,44,44,44,1,90,45,,,,,,,,
,,6113113ee1e4e6df85ec7e8a,65af567f8504a42db6af7fd0,2024-01-23_24h03.30.972,bars,2023.2.3,Win32,60.60606061,657b66ea316d21385b68909f,,,,,,,,,,,1706.9069,1707.9018,,,1708.4018,1708.6555,,130,130,,,,,,,,,,,,,,,,bars/034.png,bars/mask000.png,,,,,,,,,,,,7,1,,,,,,,8,0,8,0,,,,,,,,,,,1707.9018,1708.4018,1708.6555,1712.3548,space,3.6824,,1712.3548,5,65,1713.3502,1713.3502,1713.3584,,,,0,45,45,45,1,125,65,,,,,,,,
,,6113113ee1e4e6df85ec7e8a,65af567f8504a42db6af7fd0,2024-01-23_24h03.30.972,bars,2023.2.3,Win32,60.60606061,657b66ea316d21385b68909f,,,,,,,,,,,1713.3585,1714.3499,,,1714.8497,1715.103,,105,105,,,,,,,,,,,,,,,,bars/012.png,bars/mask001.png,,,,,,,,,,,,5,1,,,,,,,10,2,10,3,,,,,,,,,,,1714.35,1714.8497,1715.1031,1717.4822,space,2.3588,,1717.4822,15,90,1718.4855,1718.4855,1718.4926,,,,0,46,46,46,1,90,15,,,,,,,,
,,6113113ee1e4e6df85ec7e8a,65af567f8504a42db6af7fd0,2024-01-23_24h03.30.972,bars,2023.2.3,Win32,60.60606061,657b66ea316d21385b68909f,,,,,,,,,,,1718.4927,1719.4815,,,1719.9814,1720.2312,,152,-28,,,,,,,,,,,,,,,,bars/049.png,bars/mask006.png,,,,,,,,,,,,6,1,,,,,,,8,0,8,0,,,,,,,,,,,1719.4816,1719.9813,1720.2312,1724.6835,space,4.4317,,1724.6835,8,37,1725.6793,1725.6794,1725.6874,,,,0,47,47,47,1,160,115,,,,,,,,
,,6113113ee1e4e6df85ec7e8a,65af567f8504a42db6af7fd0,2024-01-23_24h03.30.972,bars,2023.2.3,Win32,60.60606061,657b66ea316d21385b68909f,,,,,,,,,,,1725.6874,1726.679,,,1727.179,1727.4288,,77,77,,,,,,,,,,,,,,,,bars/045.png,bars/mask001.png,,,,,,,,,,,,1,1,,,,,,,6,2,5,5,,,,,,,,,,,1726.6791,1727.1789,1727.4288,1729.3155,space,1.8665,,1729.3155,23,67,1730.3112,1730.3113,1730.3191,,,,0,48,48,48,1,100,10,,,,,,,,
,,6113113ee1e4e6df85ec7e8a,65af567f8504a42db6af7fd0,2024-01-23_24h03.30.972,bars,2023.2.3,Win32,60.60606061,657b66ea316d21385b68909f,,,,,,,,,,,1730.3193,1731.3109,,,1731.8144,1732.0604,,22,22,,,,,,,,,,,,,,,,bars/047.png,bars/mask006.png,,,,,,,,,,,,6,1,,,,,,,8,4,8,4,,,,,,,,,,,1731.3109,1731.8143,1732.0604,1735.1971,space,3.1161,,1735.1971,7,48,1736.1924,1736.1925,1736.2006,,,,0,49,49,49,1,15,70,,,,,,,,
,,6113113ee1e4e6df85ec7e8a,65af567f8504a42db6af7fd0,2024-01-23_24h03.30.972,bars,2023.2.3,Win32,60.60606061,657b66ea316d21385b68909f,,,,,,,,,,,,,,,,,,,,,,,,,,,,,,,,,,,,,,,,,,,,,,,,,,,,,,,,,,,,,,,,,,,,,,,,,,,,,,,,,,,,,,,,,,,,,1736.2007,1796.1889,0,2,2,1,1,sequence_tables/blk004.csv
,,6113113ee1e4e6df85ec7e8a,65af567f8504a42db6af7fd0,2024-01-23_24h03.30.972,bars,2023.2.3,Win32,60.60606061,657b66ea316d21385b68909f,,,,,,,,,,,1806.2136,1807.2016,,,1807.7014,1807.9514,,32,212,,,,,,,,,,,,,,,,bars/047.png,bars/mask000.png,,,,,,,,,,,,2,1,,,,,,,5,5,5,6,,,,,,1796.1977,1806.2016,space,9.9822,,1807.2017,1807.7013,1807.9515,1813.1995,space,5.2155,,1813.1995,17,38,1814.1991,1814.1991,1814.2074,,,,0,0,0,0,1,15,70,,,,,,,,
,,6113113ee1e4e6df85ec7e8a,65af567f8504a42db6af7fd0,2024-01-23_24h03.30.972,bars,2023.2.3,Win32,60.60606061,657b66ea316d21385b68909f,,,,,,,,,,,1814.2075,1815.2013,,,1815.6986,1815.9486,,126,126,,,,,,,,,,,,,,,,bars/008.png,bars/mask006.png,,,,,,,,,,,,0,1,,,,,,,3,3,1,3,,,,,,,,,,,1815.2013,1815.6985,1815.9487,1818.0641,space,2.0846,,1818.0643,16,54,1819.0642,1819.0643,1819.0722,,,,0,1,1,1,1,110,0,,,,,,,,
,,6113113ee1e4e6df85ec7e8a,65af567f8504a42db6af7fd0,2024-01-23_24h03.30.972,bars,2023.2.3,Win32,60.60606061,657b66ea316d21385b68909f,,,,,,,,,,,1819.0724,1820.0675,,,1820.5638,1820.8174,,138,-42,,,,,,,,,,,,,,,,bars/034.png,bars/mask007.png,,,,,,,,,,,,1,1,,,,,,,1,5,2,7,,,,,,,,,,,1820.0675,1820.5638,1820.8174,1824.25,space,3.4159,,1824.25,13,73,1825.2455,1825.2455,1825.2536,,,,0,2,2,2,1,125,65,,,,,,,,
,,6113113ee1e4e6df85ec7e8a,65af567f8504a42db6af7fd0,2024-01-23_24h03.30.972,bars,2023.2.3,Win32,60.60606061,657b66ea316d21385b68909f,,,,,,,,,,,1825.2537,1826.2451,,,1826.745,1826.9948,,143,143,,,,,,,,,,,,,,,,bars/000.png,bars/mask008.png,,,,,,,,,,,,8,2,,,,,,,0,7,0,9,,,,,,,,,,,1826.2451,1826.745,1826.9948,1828.8651,space,1.8499,,1828.8651,77,2,1829.8606,1829.8606,1829.8632,,,,0,3,3,3,1,40,145,,,,,,,,
,,6113113ee1e4e6df85ec7e8a,65af567f8504a42db6af7fd0,2024-01-23_24h03.30.972,bars,2023.2.3,Win32,60.60606061,657b66ea316d21385b68909f,,,,,,,,,,,1829.8634,1830.8602,,,1831.3601,1831.61,,102,102,,,,,,,,,,,,,,,,bars/041.png,bars/mask005.png,,,,,,,,,,,,2,2,,,,,,,0,5,2,4,,,,,,,,,,,1830.8602,1831.3601,1831.61,1836.2586,space,4.6235,,1836.2586,82,17,1837.258,1837.258,1837.2661,,,,0,4,4,4,1,20,85,,,,,,,,
,,6113113ee1e4e6df85ec7e8a,65af567f8504a42db6af7fd0,2024-01-23_24h03.30.972,bars,2023.2.3,Win32,60.60606061,657b66ea316d21385b68909f,,,,,,,,,,,1837.2662,1838.2576,,,1838.7575,1839.0075,,30,30,,,,,,,,,,,,,,,,bars/022.png,bars/mask006.png,,,,,,,,,,,,5,2,,,,,,,2,7,3,8,,,,,,,,,,,1838.2576,1838.7574,1839.0075,1842.606,space,3.578,,1842.606,65,10,1843.6095,1843.6095,1843.6174,,,,0,5,5,5,1,95,20,,,,,,,,
,,6113113ee1e4e6df85ec7e8a,65af567f8504a42db6af7fd0,2024-01-23_24h03.30.972,bars,2023.2.3,Win32,60.60606061,657b66ea316d21385b68909f,,,,,,,,,,,1843.6176,1844.6056,,,1845.1053,1845.3588,,116,116,,,,,,,,,,,,,,,,bars/041.png,bars/mask005.png,,,,,,,,,,,,0,2,,,,,,,4,9,4,10,,,,,,,,,,,1844.6056,1845.1053,1845.3588,1846.7255,space,1.3498,,1846.7255,84,31,1847.7209,1847.7209,1847.7228,,,,0,6,6,6,1,20,85,,,,,,,,
,,6113113ee1e4e6df85ec7e8a,65af567f8504a42db6af7fd0,2024-01-23_24h03.30.972,bars,2023.2.3,Win32,60.60606061,657b66ea316d21385b68909f,,,,,,,,,,,1847.7231,1848.7208,,,1849.2206,1849.4706,,154,154,,,,,,,,,,,,,,,,bars/043.png,bars/mask003.png,,,,,,,,,,,,2,2,,,,,,,2,10,1,9,,,,,,,,,,,1848.7208,1849.2206,1849.4707,1851.0699,space,1.5772,,1851.0699,56,24,1852.0733,1852.0733,1852.074,,,,0,7,7,7,1,30,130,,,,,,,,
,,6113113ee1e4e6df85ec7e8a,65af567f8504a42db6af7fd0,2024-01-23_24h03.30.972,bars,2023.2.3,Win32,60.60606061,657b66ea316d21385b68909f,,,,,,,,,,,1852.0742,1853.0695,,,1853.5717,1853.819,,168,-12,,,,,,,,,,,,,,,,bars/013.png,bars/mask002.png,,,,,,,,,,,,2,2,,,,,,,4,8,2,8,,,,,,,,,,,1853.0695,1853.5716,1853.8191,1856.4683,space,2.6194,,1856.4683,87,22,1857.4678,1857.4678,1857.4758,,,,0,8,8,8,1,75,10,,,,,,,,
,,6113113ee1e4e6df85ec7e8a,65af567f8504a42db6af7fd0,2024-01-23_24h03.30.972,bars,2023.2.3,Win32,60.60606061,657b66ea316d21385b68909f,,,,,,,,,,,1857.4759,1858.4675,,,1858.9675,1859.2172,,18,18,,,,,,,,,,,,,,,,bars/045.png,bars/mask005.png,,,,,,,,,,,,5,2,,,,,,,6,6,7,7,,,,,,,,,,,1858.4675,1858.9674,1859.2173,1863.116,space,3.8658,,1863.1161,82,8,1864.1193,1864.1193,1864.1265,,,,0,9,9,9,1,100,10,,,,,,,,
,,6113113ee1e4e6df85ec7e8a,65af567f8504a42db6af7fd0,2024-01-23_24h03.30.972,bars,2023.2.3,Win32,60.60606061,657b66ea316d21385b68909f,,,,,,,,,,,1864.1266,1865.115,,,1865.6152,1865.8684,,163,163,,,,,,,,,,,,,,,,bars/005.png,bars/mask000.png,,,,,,,,,,,,1,2,,,,,,,4,4,3,6,,,,,,,,,,,1865.115,1865.6151,1865.8684,1867.8683,space,1.9829,,1867.8683,27,23,1868.8639,1868.8639,1868.8722,,,,0,10,10,10,1,10,140,,,,,,,,
,,6113113ee1e4e6df85ec7e8a,65af567f8504a42db6af7fd0,2024-01-23_24h03.30.972,bars,2023.2.3,Win32,60.60606061,657b66ea316d21385b68909f,,,,,,,,,,,1868.8722,1869.8636,,,1870.3635,1870.6131,,94,94,,,,,,,,,,,,,,,,bars/019.png,bars/mask004.png,,,,,,,,,,,,5,2,,,,,,,6,6,6,8,,,,,,,,,,,1869.8636,1870.3634,1870.6131,1873.9496,space,3.3163,,1873.9497,49,11,1874.9449,1874.9449,1874.9533,,,,0,11,11,11,1,45,105,,,,,,,,
,,6113113ee1e4e6df85ec7e8a,65af567f8504a42db6af7fd0,2024-01-23_24h03.30.972,bars,2023.2.3,Win32,60.60606061,657b66ea316d21385b68909f,,,,,,,,,,,1874.9535,1875.9448,,,1876.4448,1876.698,,16,196,,,,,,,,,,,,,,,,bars/022.png,bars/mask006.png,,,,,,,,,,,,6,2,,,,,,,8,8,8,7,,,,,,,,,,,1875.9448,1876.4447,1876.6981,1880.0798,space,3.3788,,1880.0798,79,4,1881.0765,1881.0765,1881.0846,,,,0,12,12,12,1,95,20,,,,,,,,
,,6113113ee1e4e6df85ec7e8a,65af567f8504a42db6af7fd0,2024-01-23_24h03.30.972,bars,2023.2.3,Win32,60.60606061,657b66ea316d21385b68909f,,,,,,,,,,,1881.0847,1882.0785,,,1882.576,1882.8258,,166,166,,,,,,,,,,,,,,,,bars/020.png,bars/mask000.png,,,,,,,,,,,,3,2,,,,,,,10,6,10,3,,,,,,,,,,,1882.0785,1882.576,1882.8259,1887.044,space,4.1977,,1887.044,51,4,1888.0407,1888.0407,1888.0489,,,,0,13,13,13,1,115,170,,,,,,,,
,,6113113ee1e4e6df85ec7e8a,65af567f8504a42db6af7fd0,2024-01-23_24h03.30.972,bars,2023.2.3,Win32,60.60606061,657b66ea316d21385b68909f,,,,,,,,,,,1888.049,1889.0441,,,1889.5402,1889.7901,,10,190,,,,,,,,,,,,,,,,bars/045.png,bars/mask003.png,,,,,,,,,,,,5,2,,,,,,,10,4,8,5,,,,,,,,,,,1889.0441,1889.5402,1889.7902,1891.6563,space,1.838,,1891.6563,90,0,1892.6596,1892.6596,1892.6601,,,,0,14,14,14,1,100,10,,,,,,,,
,,6113113ee1e4e6df85ec7e8a,65af567f8504a42db6af7fd0,2024-01-23_24h03.30.972,bars,2023.2.3,Win32,60.60606061,657b66ea316d21385b68909f,,,,,,,,,,,1892.6603,1893.6554,,,1894.1553,1894.4055,,158,158,,,,,,,,,,,,,,,,bars/048.png,bars/mask002.png,,,,,,,,,,,,2,2,,,,,,,10,6,10,5,,,,,,,,,,,1893.6554,1894.1553,1894.4056,1895.9214,space,1.4996,,1895.9215,72,17,1896.9208,1896.9208,1896.9288,,,,0,15,15,15,1,50,175,,,,,,,,
,,6113113ee1e4e6df85ec7e8a,65af567f8504a42db6af7fd0,2024-01-23_24h03.30.972,bars,2023.2.3,Win32,60.60606061,657b66ea316d21385b68909f,,,,,,,,,,,1896.929,1897.9208,,,1898.4205,1898.6705,,39,39,,,,,,,,,,,,,,,,bars/025.png,bars/mask005.png,,,,,,,,,,,,9,2,,,,,,,10,8,10,9,,,,,,,,,,,1897.9208,1898.4205,1898.6706,1900.3366,space,1.6403,,1900.3366,66,1,1901.3387,1901.3387,1901.3457,,,,0,16,16,16,1,105,40,,,,,,,,
,,6113113ee1e4e6df85ec7e8a,65af567f8504a42db6af7fd0,2024-01-23_24h03.30.972,bars,2023.2.3,Win32,60.60606061,657b66ea316d21385b68909f,,,,,,,,,,,1901.3459,1902.3359,,,1902.8356,1903.0857,,158,158,,,,,,,,,,,,,,,,bars/020.png,bars/mask000.png,,,,,,,,,,,,5,2,,,,,,,8,10,8,8,,,,,,,,,,,1902.3359,1902.8355,1903.0858,1904.0382,space,0.932,,1904.0383,43,12,1905.0349,1905.0349,1905.0368,,,,0,17,17,17,1,115,170,,,,,,,,
,,6113113ee1e4e6df85ec7e8a,65af567f8504a42db6af7fd0,2024-01-23_24h03.30.972,bars,2023.2.3,Win32,60.60606061,657b66ea316d21385b68909f,,,,,,,,,,,1905.0372,1906.0383,,,1906.5345,1906.7843,,43,43,,,,,,,,,,,,,,,,bars/025.png,bars/mask000.png,,,,,,,,,,,,8,2,,,,,,,6,8,4,9,,,,,,,,,,,1906.0383,1906.5345,1906.7844,1908.1672,space,1.3584,,1908.1672,62,3,1909.1669,1909.167,1909.1751,,,,0,18,18,18,1,105,40,,,,,,,,
,,6113113ee1e4e6df85ec7e8a,65af567f8504a42db6af7fd0,2024-01-23_24h03.30.972,bars,2023.2.3,Win32,60.60606061,657b66ea316d21385b68909f,,,,,,,,,,,1909.1753,1910.1666,,,1910.666,1910.9163,,10,190,,,,,,,,,,,,,,,,bars/014.png,bars/mask008.png,,,,,,,,,,,,3,2,,,,,,,4,6,5,5,,,,,,,,,,,1910.1666,1910.6659,1910.9164,1914.9983,space,4.0524,,1914.9984,70,10,1916.0015,1916.0016,1916.0091,,,,0,19,19,19,1,80,0,,,,,,,,
,,6113113ee1e4e6df85ec7e8a,65af567f8504a42db6af7fd0,2024-01-23_24h03.30.972,bars,2023.2.3,Win32,60.60606061,657b66ea316d21385b68909f,,,,,,,,,,,1916.0093,1916.9976,,,1917.497,1917.7479,,70,70,,,,,,,,,,,,,,,,bars/046.png,bars/mask004.png,,,,,,,,,,,,5,2,,,,,,,6,8,7,9,,,,,,,,,,,1916.9976,1917.4969,1917.7479,1920.613,space,2.8514,,1920.613,85,15,1921.6126,1921.6126,1921.6206,,,,0,20,20,20,1,155,85,,,,,,,,
,,6113113ee1e4e6df85ec7e8a,65af567f8504a42db6af7fd0,2024-01-23_24h03.30.972,bars,2023.2.3,Win32,60.60606061,657b66ea316d21385b68909f,,,,,,,,,,,1921.6208,1922.6124,,,1923.1122,1923.362,,110,110,,,,,,,,,,,,,,,,bars/039.png,bars/mask006.png,,,,,,,,,,,,8,2,,,,,,,4,10,5,10,,,,,,,,,,,1922.6124,1923.1122,1923.362,1925.328,space,1.9335,,1925.3281,65,5,1926.3277,1926.3277,1926.3292,,,,0,21,21,21,1,175,105,,,,,,,,
,,6113113ee1e4e6df85ec7e8a,65af567f8504a42db6af7fd0,2024-01-23_24h03.30.972,bars,2023.2.3,Win32,60.60606061,657b66ea316d21385b68909f,,,,,,,,,,,1926.3299,1927.3274,,,1927.8272,1928.0771,,98,-82,,,,,,,,,,,,,,,,bars/006.png,bars/mask000.png,,,,,,,,,,,,9,2,,,,,,,2,8,2,10,,,,,,,,,,,1927.3274,1927.8272,1928.0772,1931.8633,space,3.7658,,1931.8633,63,2,1932.8586,1932.8586,1932.8669,,,,0,22,22,22,1,35,100,,,,,,,,
,,6113113ee1e4e6df85ec7e8a,65af567f8504a42db6af7fd0,2024-01-23_24h03.30.972,bars,2023.2.3,Win32,60.60606061,657b66ea316d21385b68909f,,,,,,,,,,,1932.8671,1933.8585,,,1934.3584,1934.6082,,102,102,,,,,,,,,,,,,,,,bars/037.png,bars/mask002.png,,,,,,,,,,,,5,2,,,,,,,0,6,0,6,,,,,,,,,,,1933.8585,1934.3583,1934.6082,1938.0778,space,3.4492,,1938.0778,48,3,1939.0733,1939.0734,1939.0815,,,,0,23,23,23,1,150,105,,,,,,,,
,,6113113ee1e4e6df85ec7e8a,65af567f8504a42db6af7fd0,2024-01-23_24h03.30.972,bars,2023.2.3,Win32,60.60606061,657b66ea316d21385b68909f,,,,,,,,,,,1939.0817,1940.0766,,,1940.5729,1940.8227,,13,13,,,,,,,,,,,,,,,,bars/032.png,bars/mask003.png,,,,,,,,,,,,7,2,,,,,,,2,8,2,9,,,,,,,,,,,1940.0766,1940.5728,1940.8228,1942.4759,space,1.6325,,1942.476,68,7,1943.4719,1943.4719,1943.4802,,,,0,24,24,24,1,125,20,,,,,,,,
,,6113113ee1e4e6df85ec7e8a,65af567f8504a42db6af7fd0,2024-01-23_24h03.30.972,bars,2023.2.3,Win32,60.60606061,657b66ea316d21385b68909f,,,,,,,,,,,1943.4803,1944.4716,,,1944.9714,1945.2211,,53,53,,,,,,,,,,,,,,,,bars/035.png,bars/mask003.png,,,,,,,,,,,,8,2,,,,,,,0,10,0,10,,,,,,,,,,,1944.4716,1944.9714,1945.2211,1946.1572,space,0.9155,,1946.1572,58,7,1947.154,1947.1541,1947.1622,,,,0,25,25,25,1,175,60,,,,,,,,
,,6113113ee1e4e6df85ec7e8a,65af567f8504a42db6af7fd0,2024-01-23_24h03.30.972,bars,2023.2.3,Win32,60.60606061,657b66ea316d21385b68909f,,,,,,,,,,,1947.1623,1948.1537,,,1948.6535,1948.9029,,164,-16,,,,,,,,,,,,,,,,bars/033.png,bars/mask008.png,,,,,,,,,,,,6,2,,,,,,,0,8,0,9,,,,,,,,,,,1948.1538,1948.6535,1948.9029,1951.719,space,2.7945,,1951.719,41,9,1952.7186,1952.7186,1952.7266,,,,0,26,26,26,1,25,155,,,,,,,,
,,6113113ee1e4e6df85ec7e8a,65af567f8504a42db6af7fd0,2024-01-23_24h03.30.972,bars,2023.2.3,Win32,60.60606061,657b66ea316d21385b68909f,,,,,,,,,,,1952.7267,1953.7184,,,1954.2181,1954.4681,,154,154,,,,,,,,,,,,,,,,bars/005.png,bars/mask003.png,,,,,,,,,,,,3,2,,,,,,,0,6,3,5,,,,,,,,,,,1953.7184,1954.2181,1954.4681,1956.0176,space,1.5182,,1956.0177,36,14,1957.0172,1957.0173,1957.0192,,,,0,27,27,27,1,10,140,,,,,,,,
,,6113113ee1e4e6df85ec7e8a,65af567f8504a42db6af7fd0,2024-01-23_24h03.30.972,bars,2023.2.3,Win32,60.60606061,657b66ea316d21385b68909f,,,,,,,,,,,1957.0196,1958.0171,,,1958.5168,1958.7667,,59,59,,,,,,,,,,,,,,,,bars/030.png,bars/mask001.png,,,,,,,,,,,,6,2,,,,,,,0,8,1,8,,,,,,,,,,,1958.0171,1958.5167,1958.7667,1960.6369,space,1.8499,,1960.6369,81,6,1961.6324,1961.6325,1961.6405,,,,0,28,28,28,1,140,65,,,,,,,,
,,6113113ee1e4e6df85ec7e8a,65af567f8504a42db6af7fd0,2024-01-23_24h03.30.972,bars,2023.2.3,Win32,60.60606061,657b66ea316d21385b68909f,,,,,,,,,,,1961.6405,1962.6321,,,1963.1319,1963.3813,,141,-39,,,,,,,,,,,,,,,,bars/023.png,bars/mask005.png,,,,,,,,,,,,1,2,,,,,,,0,6,2,8,,,,,,,,,,,1962.6321,1963.1319,1963.3813,1966.4849,space,3.0827,,1966.4849,59,26,1967.4805,1967.4805,1967.4886,,,,0,29,29,29,1,20,115,,,,,,,,
,,6113113ee1e4e6df85ec7e8a,65af567f8504a42db6af7fd0,2024-01-23_24h03.30.972,bars,2023.2.3,Win32,60.60606061,657b66ea316d21385b68909f,,,,,,,,,,,1967.4892,1968.48,,,1968.9799,1969.2297,,41,41,,,,,,,,,,,,,,,,bars/025.png,bars/mask007.png,,,,,,,,,,,,7,2,,,,,,,0,8,0,7,,,,,,,,,,,1968.48,1968.9798,1969.2298,1971.2499,space,1.9998,,1971.25,64,1,1972.2454,1972.2454,1972.2536,,,,0,30,30,30,1,105,40,,,,,,,,
,,6113113ee1e4e6df85ec7e8a,65af567f8504a42db6af7fd0,2024-01-23_24h03.30.972,bars,2023.2.3,Win32,60.60606061,657b66ea316d21385b68909f,,,,,,,,,,,1972.2538,1973.2489,,,1973.7448,1973.9948,,63,243,,,,,,,,,,,,,,,,bars/038.png,bars/mask002.png,,,,,,,,,,,,8,2,,,,,,,2,10,0,10,,,,,,,,,,,1973.2489,1973.7448,1973.9949,1977.8267,space,3.7989,,1977.8267,78,7,1978.8265,1978.8265,1978.8345,,,,0,31,31,31,1,165,70,,,,,,,,
,,6113113ee1e4e6df85ec7e8a,65af567f8504a42db6af7fd0,2024-01-23_24h03.30.972,bars,2023.2.3,Win32,60.60606061,657b66ea316d21385b68909f,,,,,,,,,,,1978.8346,1979.8262,,,1980.3261,1980.5796,,69,69,,,,,,,,,,,,,,,,bars/002.png,bars/mask009.png,,,,,,,,,,,,4,2,,,,,,,4,10,5,9,,,,,,,,,,,1979.8262,1980.326,1980.5796,1983.275,space,2.676,,1983.275,61,16,1984.2747,1984.2747,1984.2828,,,,0,32,32,32,1,130,85,,,,,,,,
,,6113113ee1e4e6df85ec7e8a,65af567f8504a42db6af7fd0,2024-01-23_24h03.30.972,bars,2023.2.3,Win32,60.60606061,657b66ea316d21385b68909f,,,,,,,,,,,1984.283,1985.2741,,,1985.7741,1986.0241,,59,59,,,,,,,,,,,,,,,,bars/047.png,bars/mask001.png,,,,,,,,,,,,5,2,,,,,,,6,8,7,8,,,,,,,,,,,1985.2742,1985.7741,1986.0241,1990.2924,space,4.2479,,1990.2924,44,11,1991.2886,1991.2886,1991.2968,,,,0,33,33,33,1,15,70,,,,,,,,
,,6113113ee1e4e6df85ec7e8a,65af567f8504a42db6af7fd0,2024-01-23_24h03.30.972,bars,2023.2.3,Win32,60.60606061,657b66ea316d21385b68909f,,,,,,,,,,,1991.2969,1992.2884,,,1992.7884,1993.0419,,117,117,,,,,,,,,,,,,,,,bars/023.png,bars/mask002.png,,,,,,,,,,,,7,2,,,,,,,4,6,4,7,,,,,,,,,,,1992.2885,1992.7884,1993.042,1994.4546,space,1.4051,,1994.4546,83,2,1995.4542,1995.4542,1995.4623,,,,0,34,34,34,1,20,115,,,,,,,,
,,6113113ee1e4e6df85ec7e8a,65af567f8504a42db6af7fd0,2024-01-23_24h03.30.972,bars,2023.2.3,Win32,60.60606061,657b66ea316d21385b68909f,,,,,,,,,,,1995.4624,1996.4538,,,1996.9538,1997.2036,,113,113,,,,,,,,,,,,,,,,bars/039.png,bars/mask000.png,,,,,,,,,,,,5,2,,,,,,,6,8,6,7,,,,,,,,,,,1996.4538,1996.9537,1997.2036,1998.8196,space,1.5944,,1998.8196,62,8,1999.8194,1999.8194,1999.8273,,,,0,35,35,35,1,175,105,,,,,,,,
,,6113113ee1e4e6df85ec7e8a,65af567f8504a42db6af7fd0,2024-01-23_24h03.30.972,bars,2023.2.3,Win32,60.60606061,657b66ea316d21385b68909f,,,,,,,,,,,1999.8275,2000.8227,,,2001.3187,2001.5687,,105,-75,,,,,,,,,,,,,,,,bars/006.png,bars/mask008.png,,,,,,,,,,,,8,2,,,,,,,8,10,7,9,,,,,,,,,,,2000.8227,2001.3187,2001.5688,2005.3841,space,3.7906,,2005.3842,70,5,2006.3838,2006.3838,2006.3917,,,,0,36,36,36,1,35,100,,,,,,,,
,,6113113ee1e4e6df85ec7e8a,65af567f8504a42db6af7fd0,2024-01-23_24h03.30.972,bars,2023.2.3,Win32,60.60606061,657b66ea316d21385b68909f,,,,,,,,,,,2006.3919,2007.3836,,,2007.8833,2008.1333,,172,172,,,,,,,,,,,,,,,,bars/033.png,bars/mask006.png,,,,,,,,,,,,4,2,,,,,,,10,10,9,10,,,,,,,,,,,2007.3836,2007.8833,2008.1333,2012.6651,space,4.5077,,2012.6651,33,17,2013.6646,2013.6646,2013.6727,,,,0,37,37,37,1,25,155,,,,,,,,
,,6113113ee1e4e6df85ec7e8a,65af567f8504a42db6af7fd0,2024-01-23_24h03.30.972,bars,2023.2.3,Win32,60.60606061,657b66ea316d21385b68909f,,,,,,,,,,,2013.6728,2014.6643,,,2015.1637,2015.4141,,161,161,,,,,,,,,,,,,,,,bars/000.png,bars/mask005.png,,,,,,,,,,,,4,2,,,,,,,10,8,10,8,,,,,,,,,,,2014.6643,2015.1637,2015.4141,2019.8126,space,4.3696,,2019.8127,59,16,2020.8122,2020.8122,2020.8202,,,,0,38,38,38,1,40,145,,,,,,,,
,,6113113ee1e4e6df85ec7e8a,65af567f8504a42db6af7fd0,2024-01-23_24h03.30.972,bars,2023.2.3,Win32,60.60606061,657b66ea316d21385b68909f,,,,,,,,,,,2020.8203,2021.8118,,,2022.3118,2022.5615,,3,183,,,,,,,,,,,,,,,,bars/014.png,bars/mask005.png,,,,,,,,,,,,8,2,,,,,,,10,10,10,9,,,,,,,,,,,2021.8118,2022.3118,2022.5615,2024.0653,space,1.4835,,2024.0653,77,3,2025.0607,2025.0607,2025.0629,,,,0,39,39,39,1,80,0,,,,,,,,
,,6113113ee1e4e6df85ec7e8a,65af567f8504a42db6af7fd0,2024-01-23_24h03.30.972,bars,2023.2.3,Win32,60.60606061,657b66ea316d21385b68909f,,,,,,,,,,,2025.0632,2026.0603,,,2026.5604,2026.8102,,111,111,,,,,,,,,,,,,,,,bars/046.png,bars/mask002.png,,,,,,,,,,,,1,2,,,,,,,10,8,9,8,,,,,,,,,,,2026.0603,2026.5604,2026.8102,2029.5423,space,2.7102,,2029.5424,44,26,2030.5422,2030.5422,2030.5503,,,,0,40,40,40,1,155,85,,,,,,,,
,,6113113ee1e4e6df85ec7e8a,65af567f8504a42db6af7fd0,2024-01-23_24h03.30.972,bars,2023.2.3,Win32,60.60606061,657b66ea316d21385b68909f,,,,,,,,,,,2030.5504,2031.5418,,,2032.0416,2032.2915,,17,17,,,,,,,,,,,,,,,,bars/048.png,bars/mask000.png,,,,,,,,,,,,2,2,,,,,,,8,6,7,7,,,,,,,,,,,2031.5419,2032.0416,2032.2915,2035.6112,space,3.2994,,2035.6112,33,22,2036.6069,2036.6069,2036.6151,,,,0,41,41,41,1,50,175,,,,,,,,
,,6113113ee1e4e6df85ec7e8a,65af567f8504a42db6af7fd0,2024-01-23_24h03.30.972,bars,2023.2.3,Win32,60.60606061,657b66ea316d21385b68909f,,,,,,,,,,,2036.6152,2037.6065,,,2038.1063,2038.3563,,102,102,,,,,,,,,,,,,,,,bars/018.png,bars/mask007.png,,,,,,,,,,,,2,2,,,,,,,10,4,10,3,,,,,,,,,,,2037.6065,2038.1063,2038.3563,2041.222,space,2.8342,,2041.2221,48,12,2042.2211,2042.2212,2042.2293,,,,0,42,42,42,1,150,90,,,,,,,,
,,6113113ee1e4e6df85ec7e8a,65af567f8504a42db6af7fd0,2024-01-23_24h03.30.972,bars,2023.2.3,Win32,60.60606061,657b66ea316d21385b68909f,,,,,,,,,,,2042.2294,2043.2207,,,2043.7213,2043.9709,,57,57,,,,,,,,,,,,,,,,bars/025.png,bars/mask004.png,,,,,,,,,,,,3,2,,,,,,,10,6,10,6,,,,,,,,,,,2043.2208,2043.7212,2043.9709,2045.7704,space,1.776,,2045.7704,48,17,2046.7703,2046.7703,2046.7727,,,,0,43,43,43,1,105,40,,,,,,,,
,,6113113ee1e4e6df85ec7e8a,65af567f8504a42db6af7fd0,2024-01-23_24h03.30.972,bars,2023.2.3,Win32,60.60606061,657b66ea316d21385b68909f,,,,,,,,,,,2046.773,2047.7697,,,2048.2696,2048.5194,,168,168,,,,,,,,,,,,,,,,bars/016.png,bars/mask003.png,,,,,,,,,,,,5,2,,,,,,,10,4,9,5,,,,,,,,,,,2047.7697,2048.2696,2048.5194,2051.4019,space,2.8501,,2051.402,52,3,2052.4011,2052.4012,2052.4093,,,,0,44,44,44,1,40,165,,,,,,,,
,,6113113ee1e4e6df85ec7e8a,65af567f8504a42db6af7fd0,2024-01-23_24h03.30.972,bars,2023.2.3,Win32,60.60606061,657b66ea316d21385b68909f,,,,,,,,,,,2052.4095,2053.401,,,2053.901,2054.1508,,54,54,,,,,,,,,,,,,,,,bars/007.png,bars/mask005.png,,,,,,,,,,,,0,2,,,,,,,8,2,7,0,,,,,,,,,,,2053.401,2053.901,2054.1509,2055.7333,space,1.5616,,2055.7334,59,1,2056.7333,2056.7333,2056.7352,,,,0,45,45,45,1,175,55,,,,,,,,
,,6113113ee1e4e6df85ec7e8a,65af567f8504a42db6af7fd0,2024-01-23_24h03.30.972,bars,2023.2.3,Win32,60.60606061,657b66ea316d21385b68909f,,,,,,,,,,,2056.7355,2057.7329,,,2058.2329,2058.4827,,122,122,,,,,,,,,,,,,,,,bars/037.png,bars/mask006.png,,,,,,,,,,,,2,2,,,,,,,6,4,4,4,,,,,,,,,,,2057.733,2058.2328,2058.4827,2060.9316,space,2.4268,,2060.9317,28,17,2061.9314,2061.9314,2061.9396,,,,0,46,46,46,1,150,105,,,,,,,,
,,6113113ee1e4e6df85ec7e8a,65af567f8504a42db6af7fd0,2024-01-23_24h03.30.972,bars,2023.2.3,Win32,60.60606061,657b66ea316d21385b68909f,,,,,,,,,,,2061.9396,2062.9312,,,2063.4309,2063.6807,,64,64,,,,,,,,,,,,,,,,bars/030.png,bars/mask006.png,,,,,,,,,,,,1,2,,,,,,,8,2,9,1,,,,,,,,,,,2062.9312,2063.4309,2063.6807,2068.4294,space,4.7206,,2068.4294,76,1,2069.4289,2069.429,2069.4371,,,,0,47,47,47,1,140,65,,,,,,,,
,,6113113ee1e4e6df85ec7e8a,65af567f8504a42db6af7fd0,2024-01-23_24h03.30.972,bars,2023.2.3,Win32,60.60606061,657b66ea316d21385b68909f,,,,,,,,,,,2069.4373,2070.4286,,,2070.9286,2071.178,,130,130,,,,,,,,,,,,,,,,bars/049.png,bars/mask007.png,,,,,,,,,,,,0,2,,,,,,,10,0,10,0,,,,,,,,,,,2070.4286,2070.9286,2071.1781,2073.0945,space,1.8889,,2073.0945,30,15,2074.094,2074.094,2074.102,,,,0,48,48,48,1,160,115,,,,,,,,
,,6113113ee1e4e6df85ec7e8a,65af567f8504a42db6af7fd0,2024-01-23_24h03.30.972,bars,2023.2.3,Win32,60.60606061,657b66ea316d21385b68909f,,,,,,,,,,,2074.1022,2075.0938,,,2075.5936,2075.8435,,54,54,,,,,,,,,,,,,,,,bars/031.png,bars/mask005.png,,,,,,,,,,,,1,2,,,,,,,10,2,10,3,,,,,,,,,,,2075.0938,2075.5935,2075.8435,2079.3801,space,3.5161,,2079.3801,66,19,2080.3752,2080.3752,2080.3833,,,,0,49,49,49,1,120,35,,,,,,,,
,,6113113ee1e4e6df85ec7e8a,65af567f8504a42db6af7fd0,2024-01-23_24h03.30.972,bars,2023.2.3,Win32,60.60606061,657b66ea316d21385b68909f,,,,,,,,,,,,,,,,,,,,,,,,,,,,,,,,,,,,,,,,,,,,,,,,,,,,,,,,,,,,,,,,,,,,,,,,,,,,,,,,,,,,,,,,,,,,,2080.3834,2140.3715,0,3,3,3,1,sequence_tables/blk024.csv
,,6113113ee1e4e6df85ec7e8a,65af567f8504a42db6af7fd0,2024-01-23_24h03.30.972,bars,2023.2.3,Win32,60.60606061,657b66ea316d21385b68909f,,,,,,,,,,,2155.0773,2156.0662,,,2156.5661,2156.8196,,103,103,,,,,,,,,,,,,,,,bars/018.png,bars/mask001.png,,,,,,,,,,,,3,2,,,,,,,7,5,7,6,,,,,,2140.3809,2155.0662,space,14.6644,,2156.0662,2156.566,2156.8197,2159.7856,space,2.9494,,2159.7857,47,13,2160.7837,2160.7837,2160.7907,,,,0,0,0,0,1,150,90,,,,,,,,
,,6113113ee1e4e6df85ec7e8a,65af567f8504a42db6af7fd0,2024-01-23_24h03.30.972,bars,2023.2.3,Win32,60.60606061,657b66ea316d21385b68909f,,,,,,,,,,,2160.7909,2161.7843,,,2162.2846,2162.5344,,36,216,,,,,,,,,,,,,,,,bars/010.png,bars/mask009.png,,,,,,,,,,,,3,2,,,,,,,5,7,5,7,,,,,,,,,,,2161.7843,2162.2846,2162.5344,2165.9002,space,3.3509,,2165.9002,51,19,2166.8958,2166.8958,2166.9038,,,,0,1,1,1,1,165,55,,,,,,,,
,,6113113ee1e4e6df85ec7e8a,65af567f8504a42db6af7fd0,2024-01-23_24h03.30.972,bars,2023.2.3,Win32,60.60606061,657b66ea316d21385b68909f,,,,,,,,,,,2166.9039,2167.8955,,,2168.395,2168.6451,,53,53,,,,,,,,,,,,,,,,bars/034.png,bars/mask002.png,,,,,,,,,,,,2,2,,,,,,,3,5,4,4,,,,,,,,,,,2167.8955,2168.395,2168.6451,2170.5943,space,1.9193,,2170.5943,72,12,2171.594,2171.594,2171.6021,,,,0,2,2,2,1,125,65,,,,,,,,
,,6113113ee1e4e6df85ec7e8a,65af567f8504a42db6af7fd0,2024-01-23_24h03.30.972,bars,2023.2.3,Win32,60.60606061,657b66ea316d21385b68909f,,,,,,,,,,,2171.6022,2172.5976,,,2173.0937,2173.3436,,15,15,,,,,,,,,,,,,,,,bars/040.png,bars/mask003.png,,,,,,,,,,,,2,2,,,,,,,1,3,2,3,,,,,,,,,,,2172.5976,2173.0936,2173.3436,2176.1467,space,2.7829,,2176.1468,55,10,2177.1422,2177.1422,2177.1502,,,,0,3,3,3,1,140,5,,,,,,,,
,,6113113ee1e4e6df85ec7e8a,65af567f8504a42db6af7fd0,2024-01-23_24h03.30.972,bars,2023.2.3,Win32,60.60606061,657b66ea316d21385b68909f,,,,,,,,,,,2177.1503,2178.1419,,,2178.6419,2178.8918,,67,67,,,,,,,,,,,,,,,,bars/029.png,bars/mask002.png,,,,,,,,,,,,2,2,,,,,,,3,5,2,6,,,,,,,,,,,2178.1419,2178.6418,2178.8918,2182.024,space,3.0998,,2182.024,23,22,2183.0236,2183.0236,2183.0318,,,,0,4,4,4,1,90,45,,,,,,,,
,,6113113ee1e4e6df85ec7e8a,65af567f8504a42db6af7fd0,2024-01-23_24h03.30.972,bars,2023.2.3,Win32,60.60606061,657b66ea316d21385b68909f,,,,,,,,,,,2183.0319,2184.0234,,,2184.5232,2184.7766,,68,68,,,,,,,,,,,,,,,,bars/030.png,bars/mask005.png,,,,,,,,,,,,2,2,,,,,,,1,3,3,2,,,,,,,,,,,2184.0234,2184.5232,2184.7767,2186.4436,space,1.6502,,2186.4437,72,3,2187.4388,2187.4388,2187.4478,,,,0,5,5,5,1,140,65,,,,,,,,
,,6113113ee1e4e6df85ec7e8a,65af567f8504a42db6af7fd0,2024-01-23_24h03.30.972,bars,2023.2.3,Win32,60.60606061,657b66ea316d21385b68909f,,,,,,,,,,,2187.448,2188.4385,,,2188.942,2189.1881,,66,66,,,,,,,,,,,,,,,,bars/010.png,bars/mask008.png,,,,,,,,,,,,1,2,,,,,,,3,1,2,1,,,,,,,,,,,2188.4385,2188.9419,2189.1882,2192.3703,space,3.1598,,2192.3704,81,11,2193.3701,2193.3701,2193.378,,,,0,6,6,6,1,165,55,,,,,,,,
,,6113113ee1e4e6df85ec7e8a,65af567f8504a42db6af7fd0,2024-01-23_24h03.30.972,bars,2023.2.3,Win32,60.60606061,657b66ea316d21385b68909f,,,,,,,,,,,2193.3782,2194.3693,,,2194.8696,2195.1196,,39,39,,,,,,,,,,,,,,,,bars/022.png,bars/mask007.png,,,,,,,,,,,,0,2,,,,,,,5,0,6,0,,,,,,,,,,,2194.3694,2194.8696,2195.1196,2196.3233,space,1.1834,,2196.3234,56,19,2197.3188,2197.3188,2197.3204,,,,0,7,7,7,1,95,20,,,,,,,,
,,6113113ee1e4e6df85ec7e8a,65af567f8504a42db6af7fd0,2024-01-23_24h03.30.972,bars,2023.2.3,Win32,60.60606061,657b66ea316d21385b68909f,,,,,,,,,,,2197.3209,2198.3184,,,2198.8221,2199.0683,,60,60,,,,,,,,,,,,,,,,bars/035.png,bars/mask001.png,,,,,,,,,,,,0,2,,,,,,,7,0,7,0,,,,,,,,,,,2198.3184,2198.8221,2199.0684,2200.955,space,1.8663,,2200.955,65,0,2201.9506,2201.9506,2201.9589,,,,0,8,8,8,1,175,60,,,,,,,,
,,6113113ee1e4e6df85ec7e8a,65af567f8504a42db6af7fd0,2024-01-23_24h03.30.972,bars,2023.2.3,Win32,60.60606061,657b66ea316d21385b68909f,,,,,,,,,,,2201.9589,2202.9502,,,2203.4501,2203.7,,157,-23,,,,,,,,,,,,,,,,bars/005.png,bars/mask004.png,,,,,,,,,,,,0,2,,,,,,,9,0,9,1,,,,,,,,,,,2202.9503,2203.4501,2203.7,2206.6988,space,2.9758,,2206.6989,33,17,2207.6986,2207.6986,2207.7066,,,,0,9,9,9,1,10,140,,,,,,,,
,,6113113ee1e4e6df85ec7e8a,65af567f8504a42db6af7fd0,2024-01-23_24h03.30.972,bars,2023.2.3,Win32,60.60606061,657b66ea316d21385b68909f,,,,,,,,,,,2207.7068,2208.6979,,,2209.1981,2209.448,,122,-58,,,,,,,,,,,,,,,,bars/002.png,bars/mask001.png,,,,,,,,,,,,7,1,,,,,,,10,2,9,1,,,,,,,,,,,2208.698,2209.1981,2209.448,2212.8174,space,3.3488,,2212.8175,8,37,2213.8168,2213.8168,2213.8246,,,,0,10,10,10,1,130,85,,,,,,,,
