init_variables.started,init_variables.stopped,participant,session,date,expName,psychopyVersion,OS,frameRate,study_id,instruction_exp.started,instruction_exp.stopped,key_resp_8.keys,key_resp_8.rt,key_resp_8.duration,instruction_single.started,instruction_single.stopped,key_resp_2.keys,key_resp_2.rt,key_resp_2.duration,interval.started,interval.stopped,cue_single.started,cue_single.stopped,mask.started,mask.stopped,ori_response_single.started,res_ori,res,ori_response_single.stopped,key_resp_single.keys,key_resp_single.rt,key_resp_single.duration,disp_single.started,disp_single.stopped,key_resp.keys,key_resp.rt,key_resp.duration,single.thisRepN,single.thisTrialN,single.thisN,single.thisIndex,single.ran,ori,path,mask_path,instruction_bandit.started,instruction_bandit.stopped,key_resp_6.keys,key_resp_6.rt,key_resp_6.duration,cue_bandit.started,cue_bandit.stopped,bandit_res.keys,bandit_res.rt,bandit_res.duration,outcome_bandit.started,rew,action,outcome_bandit.stopped,bandit.thisRepN,bandit.thisTrialN,bandit.thisN,bandit.thisIndex,bandit.ran,actual_rew1,actual_rew2,rew1,rew2,instruction_task.started,instruction_task.stopped,key_resp_7.keys,key_resp_7.rt,key_resp_7.duration,wait_ready.started,wait_ready.stopped,key_resp_3.keys,key_resp_3.rt,key_resp_3.duration,cue.started,cue.stopped,ori_response.started,ori_response.stopped,key_resp_5.keys,key_resp_5.rt,key_resp_5.duration,outcome.started,diff1,diff2,outcome.stopped,disp_outcome_practice.started,disp_outcome_practice.stopped,key_resp_4.keys,key_resp_4.rt,key_resp_4.duration,trials.thisRepN,trials.thisTrialN,trials.thisN,trials.thisIndex,trials.ran,ori1,ori2,break_blk.started,break_blk.stopped,block.thisRepN,block.thisTrialN,block.thisN,block.thisIndex,block.ran,condition_file
0.0011,0.0014,5f5bd225fc41a5384dce2d87,65af54659cebb2ff24f0996d,2024-01-23_07h56.25.379,bars,2023.2.3,Win32,59.52380952,657b66ea316d21385b68909f,,,,,,,,,,,,,,,,,,,,,,,,,,,,,,,,,,,,,,,,,,,,,,,,,,,,,,,,,,,,,,,,,,,,,,,,,,,,,,,,,,,,,,,,,,,,,,,,,,,,
,,5f5bd225fc41a5384dce2d87,65af54659cebb2ff24f0996d,2024-01-23_07h56.25.379,bars,2023.2.3,Win32,59.52380952,657b66ea316d21385b68909f,0.002,271.9518,y,270.8259,0.001,,,,,,,,,,,,,,,,,,,,,,,,,,,,,,,,,,,,,,,,,,,,,,,,,,,,,,,,,,,,,,,,,,,,,,,,,,,,,,,,,,,,,,,,,,,,,,,
,,5f5bd225fc41a5384dce2d87,65af54659cebb2ff24f0996d,2024-01-23_07h56.25.379,bars,2023.2.3,Win32,59.52380952,657b66ea316d21385b68909f,,,,,,271.952,287.5428,space,15.4985,,,,,,,,,,,,,,,,,,,,,,,,,,,,,,,,,,,,,,,,,,,,,,,,,,,,,,,,,,,,,,,,,,,,,,,,,,,,,,,,,,,,,,,,,,,
,,5f5bd225fc41a5384dce2d87,65af54659cebb2ff24f0996d,2024-01-23_07h56.25.379,bars,2023.2.3,Win32,59.52380952,657b66ea316d21385b68909f,,,,,,,,,,,287.558,288.5473,288.5475,289.0439,289.0442,289.2946,289.2953,28,28,331.3378,space,41.9723,,331.338,334.8645,space,3.3889,,0,0,0,5,1,55,bars/single005.png,bars/mask008.png,,,,,,,,,,,,,,,,,,,,,,,,,,,,,,,,,,,,,,,,,,,,,,,,,,,,,,,,,,,,,,,,
,,5f5bd225fc41a5384dce2d87,65af54659cebb2ff24f0996d,2024-01-23_07h56.25.379,bars,2023.2.3,Win32,59.52380952,657b66ea316d21385b68909f,,,,,,,,,,,334.8664,335.8636,335.8639,336.364,336.3641,336.6139,336.6139,146,146,343.3809,space,6.7585,,343.3811,350.432,space,7.0138,,0,1,1,0,1,150,bars/single000.png,bars/mask006.png,,,,,,,,,,,,,,,,,,,,,,,,,,,,,,,,,,,,,,,,,,,,,,,,,,,,,,,,,,,,,,,,
,,5f5bd225fc41a5384dce2d87,65af54659cebb2ff24f0996d,2024-01-23_07h56.25.379,bars,2023.2.3,Win32,59.52380952,657b66ea316d21385b68909f,,,,,,,,,,,350.4495,351.4483,351.4484,351.9487,351.9488,352.1982,352.1982,178,-2,358.6318,space,6.4195,,358.632,361.2714,space,2.611,,0,2,2,6,1,175,bars/single006.png,bars/mask005.png,,,,,,,,,,,,,,,,,,,,,,,,,,,,,,,,,,,,,,,,,,,,,,,,,,,,,,,,,,,,,,,,
,,5f5bd225fc41a5384dce2d87,65af54659cebb2ff24f0996d,2024-01-23_07h56.25.379,bars,2023.2.3,Win32,59.52380952,657b66ea316d21385b68909f,,,,,,,,,,,361.2722,362.269,362.2693,362.7699,362.77,363.0202,363.0203,19,199,372.0888,space,9.0517,,372.0888,375.4003,space,3.2778,,0,3,3,2,1,145,bars/single002.png,bars/mask003.png,,,,,,,,,,,,,,,,,,,,,,,,,,,,,,,,,,,,,,,,,,,,,,,,,,,,,,,,,,,,,,,,
,,5f5bd225fc41a5384dce2d87,65af54659cebb2ff24f0996d,2024-01-23_07h56.25.379,bars,2023.2.3,Win32,59.52380952,657b66ea316d21385b68909f,,,,,,,,,,,375.4014,376.3996,376.3996,376.9001,376.9001,377.1501,377.1501,146,-34,384.5172,space,7.3519,,384.5173,387.1725,space,2.626,,0,4,4,8,1,160,bars/single008.png,bars/mask004.png,,,,,,,,,,,,,,,,,,,,,,,,,,,,,,,,,,,,,,,,,,,,,,,,,,,,,,,,,,,,,,,,
,,5f5bd225fc41a5384dce2d87,65af54659cebb2ff24f0996d,2024-01-23_07h56.25.379,bars,2023.2.3,Win32,59.52380952,657b66ea316d21385b68909f,,,,,,,,,,,387.173,388.1712,388.1713,388.6717,388.6718,388.9208,388.9208,16,196,393.1404,space,4.2025,,393.1405,396.457,space,3.2932,,0,5,5,1,1,20,bars/single001.png,bars/mask006.png,,,,,,,,,,,,,,,,,,,,,,,,,,,,,,,,,,,,,,,,,,,,,,,,,,,,,,,,,,,,,,,,
,,5f5bd225fc41a5384dce2d87,65af54659cebb2ff24f0996d,2024-01-23_07h56.25.379,bars,2023.2.3,Win32,59.52380952,657b66ea316d21385b68909f,,,,,,,,,,,396.4756,397.4715,397.4716,397.9727,397.9728,398.2221,398.2222,43,43,402.0577,space,3.8189,,402.0578,404.2189,space,2.1315,,0,6,6,7,1,45,bars/single007.png,bars/mask009.png,,,,,,,,,,,,,,,,,,,,,,,,,,,,,,,,,,,,,,,,,,,,,,,,,,,,,,,,,,,,,,,,
,,5f5bd225fc41a5384dce2d87,65af54659cebb2ff24f0996d,2024-01-23_07h56.25.379,bars,2023.2.3,Win32,59.52380952,657b66ea316d21385b68909f,,,,,,,,,,,404.2198,405.2186,405.2187,405.7182,405.7185,405.968,405.9681,136,136,409.6186,space,3.6414,,409.6187,412.3547,space,2.7053,,0,7,7,9,1,20,bars/single009.png,bars/mask006.png,,,,,,,,,,,,,,,,,,,,,,,,,,,,,,,,,,,,,,,,,,,,,,,,,,,,,,,,,,,,,,,,
,,5f5bd225fc41a5384dce2d87,65af54659cebb2ff24f0996d,2024-01-23_07h56.25.379,bars,2023.2.3,Win32,59.52380952,657b66ea316d21385b68909f,,,,,,,,,,,412.3563,413.3525,413.3526,413.852,413.8523,414.1023,414.1026,34,34,419.5356,space,5.4173,,419.5357,421.1753,space,1.612,,0,8,8,3,1,20,bars/single003.png,bars/mask005.png,,,,,,,,,,,,,,,,,,,,,,,,,,,,,,,,,,,,,,,,,,,,,,,,,,,,,,,,,,,,,,,,
,,5f5bd225fc41a5384dce2d87,65af54659cebb2ff24f0996d,2024-01-23_07h56.25.379,bars,2023.2.3,Win32,59.52380952,657b66ea316d21385b68909f,,,,,,,,,,,421.176,422.1739,422.1741,422.6743,422.6743,422.924,422.924,102,102,428.4426,space,5.5021,,428.4427,431.3871,space,2.9095,,0,9,9,4,1,95,bars/single004.png,bars/mask004.png,,,,,,,,,,,,,,,,,,,,,,,,,,,,,,,,,,,,,,,,,,,,,,,,,,,,,,,,,,,,,,,,
,,5f5bd225fc41a5384dce2d87,65af54659cebb2ff24f0996d,2024-01-23_07h56.25.379,bars,2023.2.3,Win32,59.52380952,657b66ea316d21385b68909f,,,,,,,,,,,,,,,,,,,,,,,,,,,,,,,,,,,,,431.4064,463.607,space,32.06,,,,,,,,,,,,,,,,,,,,,,,,,,,,,,,,,,,,,,,,,,,,,,,,,,,,,,,,,,,,
,,5f5bd225fc41a5384dce2d87,65af54659cebb2ff24f0996d,2024-01-23_07h56.25.379,bars,2023.2.3,Win32,59.52380952,657b66ea316d21385b68909f,,,,,,,,,,,,,,,,,,,,,,,,,,,,,,,,,,,,,,,,,,463.6311,468.8452,left,5.0591,,468.8454,9,1,469.8437,0,0,0,0,1,9,1,9,2,,,,,,,,,,,,,,,,,,,,,,,,,,,,,,,,,,,,,,,,,
,,5f5bd225fc41a5384dce2d87,65af54659cebb2ff24f0996d,2024-01-23_07h56.25.379,bars,2023.2.3,Win32,59.52380952,657b66ea316d21385b68909f,,,,,,,,,,,,,,,,,,,,,,,,,,,,,,,,,,,,,,,,,,469.8444,472.8283,left,2.9686,,472.8283,10,1,473.8276,0,1,1,1,1,10,0,10,1,,,,,,,,,,,,,,,,,,,,,,,,,,,,,,,,,,,,,,,,,
,,5f5bd225fc41a5384dce2d87,65af54659cebb2ff24f0996d,2024-01-23_07h56.25.379,bars,2023.2.3,Win32,59.52380952,657b66ea316d21385b68909f,,,,,,,,,,,,,,,,,,,,,,,,,,,,,,,,,,,,,,,,,,473.8461,475.1794,right,1.3284,,475.1795,2,2,476.1772,0,2,2,2,1,10,2,10,2,,,,,,,,,,,,,,,,,,,,,,,,,,,,,,,,,,,,,,,,,
,,5f5bd225fc41a5384dce2d87,65af54659cebb2ff24f0996d,2024-01-23_07h56.25.379,bars,2023.2.3,Win32,59.52380952,657b66ea316d21385b68909f,,,,,,,,,,,,,,,,,,,,,,,,,,,,,,,,,,,,,,,,,,476.1786,477.2288,right,1.0351,,477.2288,3,2,478.2272,0,3,3,3,1,8,4,7,3,,,,,,,,,,,,,,,,,,,,,,,,,,,,,,,,,,,,,,,,,
,,5f5bd225fc41a5384dce2d87,65af54659cebb2ff24f0996d,2024-01-23_07h56.25.379,bars,2023.2.3,Win32,59.52380952,657b66ea316d21385b68909f,,,,,,,,,,,,,,,,,,,,,,,,,,,,,,,,,,,,,,,,,,478.2283,479.0125,left,0.7682,,479.0126,5,1,480.0106,0,4,4,4,1,6,2,5,1,,,,,,,,,,,,,,,,,,,,,,,,,,,,,,,,,,,,,,,,,
,,5f5bd225fc41a5384dce2d87,65af54659cebb2ff24f0996d,2024-01-23_07h56.25.379,bars,2023.2.3,Win32,59.52380952,657b66ea316d21385b68909f,,,,,,,,,,,,,,,,,,,,,,,,,,,,,,,,,,,,,,,,,,480.0114,480.7799,left,0.7527,,480.78,4,1,481.7779,0,5,5,5,1,4,4,4,4,,,,,,,,,,,,,,,,,,,,,,,,,,,,,,,,,,,,,,,,,
,,5f5bd225fc41a5384dce2d87,65af54659cebb2ff24f0996d,2024-01-23_07h56.25.379,bars,2023.2.3,Win32,59.52380952,657b66ea316d21385b68909f,,,,,,,,,,,,,,,,,,,,,,,,,,,,,,,,,,,,,,,,,,481.7784,482.4793,right,0.6853,,482.4794,2,2,483.4745,0,6,6,6,1,2,2,1,2,,,,,,,,,,,,,,,,,,,,,,,,,,,,,,,,,,,,,,,,,
,,5f5bd225fc41a5384dce2d87,65af54659cebb2ff24f0996d,2024-01-23_07h56.25.379,bars,2023.2.3,Win32,59.52380952,657b66ea316d21385b68909f,,,,,,,,,,,,,,,,,,,,,,,,,,,,,,,,,,,,,,,,,,483.4756,484.5259,right,1.0341,,484.5259,1,2,485.5239,0,7,7,7,1,0,0,0,1,,,,,,,,,,,,,,,,,,,,,,,,,,,,,,,,,,,,,,,,,
,,5f5bd225fc41a5384dce2d87,65af54659cebb2ff24f0996d,2024-01-23_07h56.25.379,bars,2023.2.3,Win32,59.52380952,657b66ea316d21385b68909f,,,,,,,,,,,,,,,,,,,,,,,,,,,,,,,,,,,,,,,,,,485.5245,486.1761,left,0.6354,,486.1764,1,1,487.1747,0,8,8,8,1,0,2,1,0,,,,,,,,,,,,,,,,,,,,,,,,,,,,,,,,,,,,,,,,,
,,5f5bd225fc41a5384dce2d87,65af54659cebb2ff24f0996d,2024-01-23_07h56.25.379,bars,2023.2.3,Win32,59.52380952,657b66ea316d21385b68909f,,,,,,,,,,,,,,,,,,,,,,,,,,,,,,,,,,,,,,,,,,487.1757,487.9748,left,0.7871,,487.975,2,1,488.975,0,9,9,9,1,2,4,2,3,,,,,,,,,,,,,,,,,,,,,,,,,,,,,,,,,,,,,,,,,
,,5f5bd225fc41a5384dce2d87,65af54659cebb2ff24f0996d,2024-01-23_07h56.25.379,bars,2023.2.3,Win32,59.52380952,657b66ea316d21385b68909f,,,,,,,,,,,,,,,,,,,,,,,,,,,,,,,,,,,,,,,,,,488.9764,490.0426,left,1.0546,,490.0427,0,1,491.0418,0,10,10,10,1,0,2,0,3,,,,,,,,,,,,,,,,,,,,,,,,,,,,,,,,,,,,,,,,,
,,5f5bd225fc41a5384dce2d87,65af54659cebb2ff24f0996d,2024-01-23_07h56.25.379,bars,2023.2.3,Win32,59.52380952,657b66ea316d21385b68909f,,,,,,,,,,,,,,,,,,,,,,,,,,,,,,,,,,,,,,,,,,491.0432,492.0077,right,0.9507,,492.0078,3,2,493.0071,0,11,11,11,1,0,4,0,3,,,,,,,,,,,,,,,,,,,,,,,,,,,,,,,,,,,,,,,,,
,,5f5bd225fc41a5384dce2d87,65af54659cebb2ff24f0996d,2024-01-23_07h56.25.379,bars,2023.2.3,Win32,59.52380952,657b66ea316d21385b68909f,,,,,,,,,,,,,,,,,,,,,,,,,,,,,,,,,,,,,,,,,,493.0083,493.8597,right,0.8353,,493.8598,6,2,494.8581,0,12,12,12,1,2,6,1,6,,,,,,,,,,,,,,,,,,,,,,,,,,,,,,,,,,,,,,,,,
,,5f5bd225fc41a5384dce2d87,65af54659cebb2ff24f0996d,2024-01-23_07h56.25.379,bars,2023.2.3,Win32,59.52380952,657b66ea316d21385b68909f,,,,,,,,,,,,,,,,,,,,,,,,,,,,,,,,,,,,,,,,,,494.86,495.6923,right,0.8238,,495.6925,3,2,496.6925,0,13,13,13,1,0,4,1,3,,,,,,,,,,,,,,,,,,,,,,,,,,,,,,,,,,,,,,,,,
,,5f5bd225fc41a5384dce2d87,65af54659cebb2ff24f0996d,2024-01-23_07h56.25.379,bars,2023.2.3,Win32,59.52380952,657b66ea316d21385b68909f,,,,,,,,,,,,,,,,,,,,,,,,,,,,,,,,,,,,,,,,,,496.6934,497.3432,left,0.6435,,497.3432,2,1,498.3421,0,14,14,14,1,2,6,2,7,,,,,,,,,,,,,,,,,,,,,,,,,,,,,,,,,,,,,,,,,
,,5f5bd225fc41a5384dce2d87,65af54659cebb2ff24f0996d,2024-01-23_07h56.25.379,bars,2023.2.3,Win32,59.52380952,657b66ea316d21385b68909f,,,,,,,,,,,,,,,,,,,,,,,,,,,,,,,,,,,,,,,,,,498.3431,498.8435,right,0.4874,,498.8437,9,2,499.842,0,15,15,15,1,4,8,3,9,,,,,,,,,,,,,,,,,,,,,,,,,,,,,,,,,,,,,,,,,
,,5f5bd225fc41a5384dce2d87,65af54659cebb2ff24f0996d,2024-01-23_07h56.25.379,bars,2023.2.3,Win32,59.52380952,657b66ea316d21385b68909f,,,,,,,,,,,,,,,,,,,,,,,,,,,,,,,,,,,,,,,,,,499.8431,500.4595,right,0.6069,,500.4596,7,2,501.4584,0,16,16,16,1,6,6,7,7,,,,,,,,,,,,,,,,,,,,,,,,,,,,,,,,,,,,,,,,,
,,5f5bd225fc41a5384dce2d87,65af54659cebb2ff24f0996d,2024-01-23_07h56.25.379,bars,2023.2.3,Win32,59.52380952,657b66ea316d21385b68909f,,,,,,,,,,,,,,,,,,,,,,,,,,,,,,,,,,,,,,,,,,501.4594,501.9926,left,0.518,,501.9926,9,1,502.9923,0,17,17,17,1,8,4,9,5,,,,,,,,,,,,,,,,,,,,,,,,,,,,,,,,,,,,,,,,,
,,5f5bd225fc41a5384dce2d87,65af54659cebb2ff24f0996d,2024-01-23_07h56.25.379,bars,2023.2.3,Win32,59.52380952,657b66ea316d21385b68909f,,,,,,,,,,,,,,,,,,,,,,,,,,,,,,,,,,,,,,,,,,502.9933,503.5756,left,0.5738,,503.5758,5,1,504.5745,0,18,18,18,1,6,2,5,1,,,,,,,,,,,,,,,,,,,,,,,,,,,,,,,,,,,,,,,,,
,,5f5bd225fc41a5384dce2d87,65af54659cebb2ff24f0996d,2024-01-23_07h56.25.379,bars,2023.2.3,Win32,59.52380952,657b66ea316d21385b68909f,,,,,,,,,,,,,,,,,,,,,,,,,,,,,,,,,,,,,,,,,,504.5765,505.1121,right,0.5287,,505.1121,0,2,506.1087,0,19,19,19,1,8,0,7,0,,,,,,,,,,,,,,,,,,,,,,,,,,,,,,,,,,,,,,,,,
,,5f5bd225fc41a5384dce2d87,65af54659cebb2ff24f0996d,2024-01-23_07h56.25.379,bars,2023.2.3,Win32,59.52380952,657b66ea316d21385b68909f,,,,,,,,,,,,,,,,,,,,,,,,,,,,,,,,,,,,,,,,,,,,,,,,,,,,,,,,,,,,506.1105,518.433,space,12.3067,,,,,,,,,,,,,,,,,,,,,,,,,,,,,,,,,,,,,
,,5f5bd225fc41a5384dce2d87,65af54659cebb2ff24f0996d,2024-01-23_07h56.25.379,bars,2023.2.3,Win32,59.52380952,657b66ea316d21385b68909f,,,,,,,,,,,520.1522,521.143,,,521.6437,521.8928,,92,92,,,,,,,,,,,,,,,,bars/021.png,bars/mask007.png,,,,,,,,,,,,1,2,,,,,,,2,4,2,5,,,,,,518.4552,520.1433,space,1.6737,,521.1434,521.6436,521.8936,529.2612,space,7.3434,,529.262,63,22,530.2597,530.26,545.0181,space,14.6773,,0,0,0,0,1,155,70,,,,,,,,
,,5f5bd225fc41a5384dce2d87,65af54659cebb2ff24f0996d,2024-01-23_07h56.25.379,bars,2023.2.3,Win32,59.52380952,657b66ea316d21385b68909f,,,,,,,,,,,545.037,546.0321,,,546.5324,546.7823,,174,-6,,,,,,,,,,,,,,,,bars/024.png,bars/mask006.png,,,,,,,,,,,,6,2,,,,,,,4,6,4,7,,,,,,,,,,,546.0322,546.5323,546.7825,567.7671,space,20.9684,,567.7674,54,4,568.7624,568.7627,574.9861,space,6.1934,,0,1,1,1,1,120,170,,,,,,,,
,,5f5bd225fc41a5384dce2d87,65af54659cebb2ff24f0996d,2024-01-23_07h56.25.379,bars,2023.2.3,Win32,59.52380952,657b66ea316d21385b68909f,,,,,,,,,,,575.0048,575.996,,,576.4969,576.7467,,25,25,,,,,,,,,,,,,,,,bars/003.png,bars/mask000.png,,,,,,,,,,,,5,1,,,,,,,6,8,5,8,,,,,,,,,,,575.9962,576.4965,576.7468,583.6132,space,6.8587,,583.6134,0,65,584.6136,584.6139,589.1134,space,4.3629,,0,2,2,2,1,25,140,,,,,,,,
,,5f5bd225fc41a5384dce2d87,65af54659cebb2ff24f0996d,2024-01-23_07h56.25.379,bars,2023.2.3,Win32,59.52380952,657b66ea316d21385b68909f,,,,,,,,,,,589.1321,590.131,,,590.6145,590.8635,,35,35,,,,,,,,,,,,,,,,bars/032.png,bars/mask003.png,,,,,,,,,,,,4,2,,,,,,,4,6,2,7,,,,,,,,,,,590.1311,590.6142,590.8636,596.8979,space,6.0194,,596.8979,90,15,597.8972,597.8974,602.4484,space,4.5085,,0,3,3,3,1,125,20,,,,,,,,
,,5f5bd225fc41a5384dce2d87,65af54659cebb2ff24f0996d,2024-01-23_07h56.25.379,bars,2023.2.3,Win32,59.52380952,657b66ea316d21385b68909f,,,,,,,,,,,602.4677,603.4642,,,603.9651,604.2152,,32,32,,,,,,,,,,,,,,,,bars/031.png,bars/mask008.png,,,,,,,,,,,,4,2,,,,,,,6,4,6,4,,,,,,,,,,,603.4643,603.9651,604.2153,607.6655,space,3.4348,,607.6655,88,3,608.6655,608.6658,612.7819,space,4.0918,,0,4,4,4,1,120,35,,,,,,,,
,,5f5bd225fc41a5384dce2d87,65af54659cebb2ff24f0996d,2024-01-23_07h56.25.379,bars,2023.2.3,Win32,59.52380952,657b66ea316d21385b68909f,,,,,,,,,,,612.8008,613.7988,,,614.2994,614.5328,,109,109,,,,,,,,,,,,,,,,bars/009.png,bars/mask003.png,,,,,,,,,,,,3,2,,,,,,,8,2,9,3,,,,,,,,,,,613.7991,614.2994,614.5328,621.4329,space,6.8864,,621.4329,86,4,622.4322,622.4323,627.04,space,4.5762,,0,5,5,5,1,15,105,,,,,,,,
,,5f5bd225fc41a5384dce2d87,65af54659cebb2ff24f0996d,2024-01-23_07h56.25.379,bars,2023.2.3,Win32,59.52380952,657b66ea316d21385b68909f,,,,,,,,,,,627.0601,628.0509,,,628.5516,628.8012,,157,157,,,,,,,,,,,,,,,,bars/049.png,bars/mask006.png,,,,,,,,,,,,6,1,,,,,,,6,0,7,0,,,,,,,,,,,628.051,628.5511,628.8016,634.3361,space,5.5174,,634.3362,3,42,635.3343,635.3345,637.5335,space,2.163,,0,6,6,6,1,160,115,,,,,,,,
,,5f5bd225fc41a5384dce2d87,65af54659cebb2ff24f0996d,2024-01-23_07h56.25.379,bars,2023.2.3,Win32,59.52380952,657b66ea316d21385b68909f,,,,,,,,,,,637.5346,638.5339,,,639.034,639.2839,,168,168,,,,,,,,,,,,,,,,bars/047.png,bars/mask005.png,,,,,,,,,,,,0,1,,,,,,,4,2,4,2,,,,,,,,,,,638.5343,639.034,639.2841,642.6907,space,3.3988,,642.6907,27,82,643.6886,643.6886,647.5349,space,3.8114,,0,7,7,7,1,15,70,,,,,,,,
,,5f5bd225fc41a5384dce2d87,65af54659cebb2ff24f0996d,2024-01-23_07h56.25.379,bars,2023.2.3,Win32,59.52380952,657b66ea316d21385b68909f,,,,,,,,,,,647.5527,648.5513,,,649.0516,649.3014,,49,49,,,,,,,,,,,,,,,,bars/016.png,bars/mask003.png,,,,,,,,,,,,1,1,,,,,,,2,4,2,5,,,,,,,,,,,648.5514,649.0513,649.3017,653.6013,space,4.2849,,653.6015,9,64,654.6007,654.6007,657.1356,space,2.4963,,0,8,8,8,1,40,165,,,,,,,,
,,5f5bd225fc41a5384dce2d87,65af54659cebb2ff24f0996d,2024-01-23_07h56.25.379,bars,2023.2.3,Win32,59.52380952,657b66ea316d21385b68909f,,,,,,,,,,,657.1366,658.135,,,658.6357,658.8848,,100,100,,,,,,,,,,,,,,,,bars/019.png,bars/mask005.png,,,,,,,,,,,,2,2,,,,,,,4,2,5,2,,,,,,,,,,,658.1351,658.6354,658.8852,662.5692,space,3.6681,,662.5692,55,5,663.569,663.5692,667.5756,space,3.9759,,0,9,9,9,1,45,105,,,,,,,,
,,5f5bd225fc41a5384dce2d87,65af54659cebb2ff24f0996d,2024-01-23_07h56.25.379,bars,2023.2.3,Win32,59.52380952,657b66ea316d21385b68909f,,,,,,,,,,,667.5934,668.5905,,,669.0903,669.3371,,78,78,,,,,,,,,,,,,,,,bars/025.png,bars/mask001.png,,,,,,,,,,,,1,1,,,,,,,6,4,9,4,,,,,,,,,,,668.5906,669.0902,669.3371,671.2587,space,1.9026,,671.2588,27,38,672.2573,672.2573,675.2533,space,2.8921,,0,10,10,10,1,105,40,,,,,,,,
,,5f5bd225fc41a5384dce2d87,65af54659cebb2ff24f0996d,2024-01-23_07h56.25.379,bars,2023.2.3,Win32,59.52380952,657b66ea316d21385b68909f,,,,,,,,,,,675.2541,676.253,,,676.7534,677.0029,,56,56,,,,,,,,,,,,,,,,bars/014.png,bars/mask004.png,,,,,,,,,,,,2,1,,,,,,,8,2,8,0,,,,,,,,,,,676.2534,676.7531,677.0031,680.2698,space,3.2521,,680.2701,24,56,681.2699,681.2701,682.8873,space,1.5831,,0,11,11,11,1,80,0,,,,,,,,
,,5f5bd225fc41a5384dce2d87,65af54659cebb2ff24f0996d,2024-01-23_07h56.25.379,bars,2023.2.3,Win32,59.52380952,657b66ea316d21385b68909f,,,,,,,,,,,682.888,683.887,,,684.3872,684.6369,,129,129,,,,,,,,,,,,,,,,bars/031.png,bars/mask003.png,,,,,,,,,,,,7,1,,,,,,,10,4,10,4,,,,,,,,,,,683.887,684.387,684.6371,689.0046,space,4.3562,,689.0046,9,86,690.0043,690.0044,691.9042,space,1.8651,,0,12,12,12,1,120,35,,,,,,,,
,,5f5bd225fc41a5384dce2d87,65af54659cebb2ff24f0996d,2024-01-23_07h56.25.379,bars,2023.2.3,Win32,59.52380952,657b66ea316d21385b68909f,,,,,,,,,,,691.905,692.9043,,,693.4046,693.6535,,142,142,,,,,,,,,,,,,,,,bars/001.png,bars/mask002.png,,,,,,,,,,,,5,1,,,,,,,8,2,8,1,,,,,,,,,,,692.9045,693.4045,693.6536,699.8745,space,6.2125,,699.8745,12,57,700.8719,700.8719,702.155,space,1.256,,0,13,13,13,1,130,85,,,,,,,,
,,5f5bd225fc41a5384dce2d87,65af54659cebb2ff24f0996d,2024-01-23_07h56.25.379,bars,2023.2.3,Win32,59.52380952,657b66ea316d21385b68909f,,,,,,,,,,,702.1557,703.155,,,703.6554,703.9047,,141,141,,,,,,,,,,,,,,,,bars/030.png,bars/mask003.png,,,,,,,,,,,,10,1,,,,,,,10,4,10,4,,,,,,,,,,,703.1553,703.6554,703.9049,710.2115,space,6.2994,,710.2116,1,76,711.2097,711.2098,713.508,space,2.2597,,0,14,14,14,1,140,65,,,,,,,,
,,5f5bd225fc41a5384dce2d87,65af54659cebb2ff24f0996d,2024-01-23_07h56.25.379,bars,2023.2.3,Win32,59.52380952,657b66ea316d21385b68909f,,,,,,,,,,,713.5085,714.5048,,,715.0076,715.2574,,59,59,,,,,,,,,,,,,,,,bars/028.png,bars/mask007.png,,,,,,,,,,,,3,1,,,,,,,8,6,6,5,,,,,,,,,,,714.5048,715.0074,715.2577,717.9064,space,2.6354,,717.9068,14,61,718.9053,718.9054,721.2555,space,2.3139,,0,15,15,15,1,45,120,,,,,,,,
,,5f5bd225fc41a5384dce2d87,65af54659cebb2ff24f0996d,2024-01-23_07h56.25.379,bars,2023.2.3,Win32,59.52380952,657b66ea316d21385b68909f,,,,,,,,,,,721.2564,722.2555,,,722.7572,723.0068,,79,79,,,,,,,,,,,,,,,,bars/022.png,bars/mask009.png,,,,,,,,,,,,3,1,,,,,,,6,8,6,6,,,,,,,,,,,722.2556,722.7571,723.0068,729.4223,space,6.4004,,729.4224,16,59,730.4226,730.4227,748.6238,space,18.1618,,0,16,16,16,1,95,20,,,,,,,,
,,5f5bd225fc41a5384dce2d87,65af54659cebb2ff24f0996d,2024-01-23_07h56.25.379,bars,2023.2.3,Win32,59.52380952,657b66ea316d21385b68909f,,,,,,,,,,,748.6405,749.6245,,,750.1239,750.3744,,24,24,,,,,,,,,,,,,,,,bars/016.png,bars/mask002.png,,,,,,,,,,,,2,1,,,,,,,4,6,4,6,,,,,,,,,,,749.6246,750.1238,750.3746,753.5414,space,3.1518,,753.5416,16,39,754.5413,754.5416,755.1422,space,0.5663,,0,17,17,17,1,40,165,,,,,,,,
,,5f5bd225fc41a5384dce2d87,65af54659cebb2ff24f0996d,2024-01-23_07h56.25.379,bars,2023.2.3,Win32,59.52380952,657b66ea316d21385b68909f,,,,,,,,,,,755.1432,756.1415,,,756.6408,756.8919,,139,139,,,,,,,,,,,,,,,,bars/002.png,bars/mask000.png,,,,,,,,,,,,1,1,,,,,,,2,4,2,5,,,,,,,,,,,756.1415,756.6406,756.8922,760.7753,space,3.871,,760.7754,9,54,761.7753,761.7755,763.0263,space,1.2141,,0,18,18,18,1,130,85,,,,,,,,
,,5f5bd225fc41a5384dce2d87,65af54659cebb2ff24f0996d,2024-01-23_07h56.25.379,bars,2023.2.3,Win32,59.52380952,657b66ea316d21385b68909f,,,,,,,,,,,763.0273,764.0257,,,764.5248,764.775,,43,223,,,,,,,,,,,,,,,,bars/018.png,bars/mask005.png,,,,,,,,,,,,0,2,,,,,,,0,2,0,3,,,,,,,,,,,764.026,764.5248,764.7751,772.7089,space,7.9232,,772.709,73,47,773.7096,773.71,774.8088,space,1.0639,,0,19,19,19,1,150,90,,,,,,,,
,,5f5bd225fc41a5384dce2d87,65af54659cebb2ff24f0996d,2024-01-23_07h56.25.379,bars,2023.2.3,Win32,59.52380952,657b66ea316d21385b68909f,,,,,,,,,,,774.8096,775.8095,,,776.3086,776.5587,,166,166,,,,,,,,,,,,,,,,bars/016.png,bars/mask008.png,,,,,,,,,,,,1,2,,,,,,,2,0,0,1,,,,,,,,,,,775.8099,776.3086,776.5588,781.426,space,4.8551,,781.4261,54,1,782.4257,782.4258,784.9312,space,2.4788,,0,20,20,20,1,40,165,,,,,,,,
,,5f5bd225fc41a5384dce2d87,65af54659cebb2ff24f0996d,2024-01-23_07h56.25.379,bars,2023.2.3,Win32,59.52380952,657b66ea316d21385b68909f,,,,,,,,,,,784.9315,785.9315,,,786.4318,786.6815,,148,148,,,,,,,,,,,,,,,,bars/027.png,bars/mask006.png,,,,,,,,,,,,0,1,,,,,,,4,2,7,2,,,,,,,,,,,785.9316,786.4317,786.6817,789.0663,space,2.3685,,789.0664,38,82,790.0647,790.0649,791.8436,space,1.7388,,0,21,21,21,1,110,50,,,,,,,,
,,5f5bd225fc41a5384dce2d87,65af54659cebb2ff24f0996d,2024-01-23_07h56.25.379,bars,2023.2.3,Win32,59.52380952,657b66ea316d21385b68909f,,,,,,,,,,,791.8449,792.8439,,,793.3455,793.5937,,12,12,,,,,,,,,,,,,,,,bars/046.png,bars/mask008.png,,,,,,,,,,,,0,1,,,,,,,2,0,1,0,,,,,,,,,,,792.8439,793.3455,793.5939,798.2939,space,4.684,,798.294,37,73,799.2954,799.2955,802.5657,space,3.2405,,0,22,22,22,1,155,85,,,,,,,,
,,5f5bd225fc41a5384dce2d87,65af54659cebb2ff24f0996d,2024-01-23_07h56.25.379,bars,2023.2.3,Win32,59.52380952,657b66ea316d21385b68909f,,,,,,,,,,,802.5809,803.5658,,,804.0649,804.3107,,154,154,,,,,,,,,,,,,,,,bars/036.png,bars/mask006.png,,,,,,,,,,,,0,1,,,,,,,0,0,0,3,,,,,,,,,,,803.5658,804.0648,804.3109,807.5833,space,3.2513,,807.5834,9,46,808.5833,808.5833,810.3127,space,1.6925,,0,23,23,23,1,145,20,,,,,,,,
,,5f5bd225fc41a5384dce2d87,65af54659cebb2ff24f0996d,2024-01-23_07h56.25.379,bars,2023.2.3,Win32,59.52380952,657b66ea316d21385b68909f,,,,,,,,,,,810.3134,811.3115,,,811.8118,812.061,,79,79,,,,,,,,,,,,,,,,bars/014.png,bars/mask008.png,,,,,,,,,,,,2,1,,,,,,,2,2,2,2,,,,,,,,,,,811.3116,811.8118,812.061,816.2448,space,4.1678,,816.2449,1,79,817.245,817.2451,819.8009,space,2.5291,,0,24,24,24,1,80,0,,,,,,,,
,,5f5bd225fc41a5384dce2d87,65af54659cebb2ff24f0996d,2024-01-23_07h56.25.379,bars,2023.2.3,Win32,59.52380952,657b66ea316d21385b68909f,,,,,,,,,,,819.8012,820.8,,,821.2999,821.5502,,79,79,,,,,,,,,,,,,,,,bars/013.png,bars/mask001.png,,,,,,,,,,,,2,1,,,,,,,4,0,2,0,,,,,,,,,,,820.8,821.2999,821.5503,825.868,space,4.3017,,825.868,4,69,826.8675,826.8676,828.5629,space,1.657,,0,25,25,25,1,75,10,,,,,,,,
,,5f5bd225fc41a5384dce2d87,65af54659cebb2ff24f0996d,2024-01-23_07h56.25.379,bars,2023.2.3,Win32,59.52380952,657b66ea316d21385b68909f,,,,,,,,,,,828.5644,829.5625,,,830.0645,830.3144,,34,34,,,,,,,,,,,,,,,,bars/029.png,bars/mask008.png,,,,,,,,,,,,1,2,,,,,,,2,2,2,2,,,,,,,,,,,829.5626,830.0644,830.3145,836.0134,space,5.6838,,836.0135,56,11,837.0127,837.0127,839.1471,space,2.1,,0,26,26,26,1,90,45,,,,,,,,
,,5f5bd225fc41a5384dce2d87,65af54659cebb2ff24f0996d,2024-01-23_07h56.25.379,bars,2023.2.3,Win32,59.52380952,657b66ea316d21385b68909f,,,,,,,,,,,839.1485,840.1464,,,840.6465,840.8968,,119,119,,,,,,,,,,,,,,,,bars/025.png,bars/mask003.png,,,,,,,,,,,,0,1,,,,,,,0,4,0,6,,,,,,,,,,,840.1465,840.6465,840.8969,845.4491,space,4.5392,,845.4494,14,79,846.4467,846.4468,847.7308,space,1.2523,,0,27,27,27,1,105,40,,,,,,,,
,,5f5bd225fc41a5384dce2d87,65af54659cebb2ff24f0996d,2024-01-23_07h56.25.379,bars,2023.2.3,Win32,59.52380952,657b66ea316d21385b68909f,,,,,,,,,,,847.7323,848.7309,,,849.2304,849.4816,,162,-18,,,,,,,,,,,,,,,,bars/009.png,bars/mask006.png,,,,,,,,,,,,0,1,,,,,,,2,2,1,3,,,,,,,,,,,848.731,849.2304,849.4817,860.7144,space,11.2273,,860.7148,33,57,861.7157,861.7158,863.4319,space,1.6911,,0,28,28,28,1,15,105,,,,,,,,
,,5f5bd225fc41a5384dce2d87,65af54659cebb2ff24f0996d,2024-01-23_07h56.25.379,bars,2023.2.3,Win32,59.52380952,657b66ea316d21385b68909f,,,,,,,,,,,863.4325,864.4325,,,864.9316,865.1821,,53,53,,,,,,,,,,,,,,,,bars/007.png,bars/mask001.png,,,,,,,,,,,,1,2,,,,,,,0,0,0,1,,,,,,,,,,,864.4326,864.9315,865.1823,869.6158,space,4.4177,,869.616,58,2,870.6151,870.6152,872.6015,space,1.9643,,0,29,29,29,1,175,55,,,,,,,,
,,5f5bd225fc41a5384dce2d87,65af54659cebb2ff24f0996d,2024-01-23_07h56.25.379,bars,2023.2.3,Win32,59.52380952,657b66ea316d21385b68909f,,,,,,,,,,,872.602,873.5991,,,874.0992,874.349,,50,50,,,,,,,,,,,,,,,,bars/033.png,bars/mask002.png,,,,,,,,,,,,0,1,,,,,,,2,2,3,1,,,,,,,,,,,873.5992,874.0992,874.349,880.0017,space,5.6364,,880.0018,25,75,880.9995,880.9996,882.2837,space,1.2632,,0,30,30,30,1,25,155,,,,,,,,
,,5f5bd225fc41a5384dce2d87,65af54659cebb2ff24f0996d,2024-01-23_07h56.25.379,bars,2023.2.3,Win32,59.52380952,657b66ea316d21385b68909f,,,,,,,,,,,882.2849,883.2825,,,883.783,884.0329,,57,57,,,,,,,,,,,,,,,,bars/000.png,bars/mask004.png,,,,,,,,,,,,0,1,,,,,,,0,0,0,0,,,,,,,,,,,883.2827,883.7829,884.0329,888.933,space,4.8931,,888.9331,17,88,889.9341,889.9341,891.1514,space,1.1887,,0,31,31,31,1,40,145,,,,,,,,
,,5f5bd225fc41a5384dce2d87,65af54659cebb2ff24f0996d,2024-01-23_07h56.25.379,bars,2023.2.3,Win32,59.52380952,657b66ea316d21385b68909f,,,,,,,,,,,891.1523,892.1517,,,892.6499,892.9003,,20,200,,,,,,,,,,,,,,,,bars/003.png,bars/mask008.png,,,,,,,,,,,,1,1,,,,,,,0,0,1,0,,,,,,,,,,,892.1519,892.6499,892.9004,898.6679,space,5.7574,,898.6681,5,60,899.6674,899.6675,902.3691,space,2.6665,,0,32,32,32,1,25,140,,,,,,,,
,,5f5bd225fc41a5384dce2d87,65af54659cebb2ff24f0996d,2024-01-23_07h56.25.379,bars,2023.2.3,Win32,59.52380952,657b66ea316d21385b68909f,,,,,,,,,,,902.3916,903.3839,,,903.8847,904.1344,,26,26,,,,,,,,,,,,,,,,bars/012.png,bars/mask005.png,,,,,,,,,,,,1,2,,,,,,,2,0,1,2,,,,,,,,,,,903.3839,903.8846,904.1344,907.601,space,3.4554,,907.601,64,11,908.6013,908.6013,957.7377,space,49.1051,,0,33,33,33,1,90,15,,,,,,,,
,,5f5bd225fc41a5384dce2d87,65af54659cebb2ff24f0996d,2024-01-23_07h56.25.379,bars,2023.2.3,Win32,59.52380952,657b66ea316d21385b68909f,,,,,,,,,,,957.7515,958.738,,,959.2387,959.4881,,40,40,,,,,,,,,,,,,,,,bars/044.png,bars/mask007.png,,,,,,,,,,,,0,1,,,,,,,0,0,0,0,,,,,,,,,,,958.7381,959.2385,959.4882,962.3428,space,2.8485,,962.3428,35,65,963.3379,963.3381,964.1559,space,0.7772,,0,34,34,34,1,75,155,,,,,,,,
,,5f5bd225fc41a5384dce2d87,65af54659cebb2ff24f0996d,2024-01-23_07h56.25.379,bars,2023.2.3,Win32,59.52380952,657b66ea316d21385b68909f,,,,,,,,,,,964.1573,965.1548,,,965.6546,965.9048,,144,144,,,,,,,,,,,,,,,,bars/002.png,bars/mask000.png,,,,,,,,,,,,1,1,,,,,,,2,2,2,2,,,,,,,,,,,965.1551,965.6545,965.9048,971.4228,space,5.503,,971.4228,14,59,972.4225,972.4225,972.9748,space,0.5306,,0,35,35,35,1,130,85,,,,,,,,
,,5f5bd225fc41a5384dce2d87,65af54659cebb2ff24f0996d,2024-01-23_07h56.25.379,bars,2023.2.3,Win32,59.52380952,657b66ea316d21385b68909f,,,,,,,,,,,972.9753,973.9724,,,974.4727,974.7215,,150,150,,,,,,,,,,,,,,,,bars/037.png,bars/mask006.png,,,,,,,,,,,,0,1,,,,,,,0,0,0,0,,,,,,,,,,,973.9724,974.4726,974.7216,979.357,space,4.6188,,979.357,0,45,980.3556,980.3556,984.6902,space,4.3026,,0,36,36,36,1,150,105,,,,,,,,
,,5f5bd225fc41a5384dce2d87,65af54659cebb2ff24f0996d,2024-01-23_07h56.25.379,bars,2023.2.3,Win32,59.52380952,657b66ea316d21385b68909f,,,,,,,,,,,984.6993,985.6892,,,986.1894,986.4394,,70,250,,,,,,,,,,,,,,,,bars/032.png,bars/mask007.png,,,,,,,,,,,,0,2,,,,,,,0,0,0,0,,,,,,,,,,,985.6893,986.1893,986.4394,990.7233,space,4.2759,,990.7234,55,50,991.7228,991.7229,992.84,space,1.0917,,0,37,37,37,1,125,20,,,,,,,,
,,5f5bd225fc41a5384dce2d87,65af54659cebb2ff24f0996d,2024-01-23_07h56.25.379,bars,2023.2.3,Win32,59.52380952,657b66ea316d21385b68909f,,,,,,,,,,,992.8406,993.8407,,,994.34,994.5898,,149,149,,,,,,,,,,,,,,,,bars/023.png,bars/mask007.png,,,,,,,,,,,,0,2,,,,,,,0,0,0,0,,,,,,,,,,,993.8408,994.34,994.5898,997.9737,space,3.3742,,997.9738,51,34,998.9735,998.9736,999.8403,space,0.8499,,0,38,38,38,1,20,115,,,,,,,,
,,5f5bd225fc41a5384dce2d87,65af54659cebb2ff24f0996d,2024-01-23_07h56.25.379,bars,2023.2.3,Win32,59.52380952,657b66ea316d21385b68909f,,,,,,,,,,,999.8407,1000.8402,,,1001.3404,1001.5902,,10,10,,,,,,,,,,,,,,,,bars/008.png,bars/mask004.png,,,,,,,,,,,,2,2,,,,,,,0,2,0,3,,,,,,,,,,,1000.8405,1001.3404,1001.5902,1010.5096,space,8.9115,,1010.5098,80,10,1011.5077,1011.5077,1012.1914,space,0.6523,,0,39,39,39,1,110,0,,,,,,,,
,,5f5bd225fc41a5384dce2d87,65af54659cebb2ff24f0996d,2024-01-23_07h56.25.379,bars,2023.2.3,Win32,59.52380952,657b66ea316d21385b68909f,,,,,,,,,,,1012.192,1013.1919,,,1013.6918,1013.9412,,161,161,,,,,,,,,,,,,,,,bars/042.png,bars/mask009.png,,,,,,,,,,,,0,1,,,,,,,2,0,1,1,,,,,,,,,,,1013.192,1013.6917,1013.9413,1019.8418,space,5.8898,,1019.8419,16,86,1020.8427,1020.8428,1021.3973,space,0.5241,,0,40,40,40,1,145,75,,,,,,,,
,,5f5bd225fc41a5384dce2d87,65af54659cebb2ff24f0996d,2024-01-23_07h56.25.379,bars,2023.2.3,Win32,59.52380952,657b66ea316d21385b68909f,,,,,,,,,,,1021.3978,1022.3962,,,1022.8966,1023.1461,,60,60,,,,,,,,,,,,,,,,bars/034.png,bars/mask007.png,,,,,,,,,,,,3,2,,,,,,,4,2,5,3,,,,,,,,,,,1022.3963,1022.8966,1023.1462,1025.8487,space,2.6851,,1025.8488,65,5,1026.8477,1026.8479,1027.7095,space,0.8298,,0,41,41,41,1,125,65,,,,,,,,
,,5f5bd225fc41a5384dce2d87,65af54659cebb2ff24f0996d,2024-01-23_07h56.25.379,bars,2023.2.3,Win32,59.52380952,657b66ea316d21385b68909f,,,,,,,,,,,1027.7106,1028.7088,,,1029.21,1029.4592,,6,6,,,,,,,,,,,,,,,,bars/040.png,bars/mask005.png,,,,,,,,,,,,5,2,,,,,,,2,4,2,5,,,,,,,,,,,1028.7088,1029.2098,1029.4592,1029.4771,space,0.0071,,1029.4773,46,1,1030.4765,1030.4767,1031.6591,space,1.1623,,0,42,42,42,1,140,5,,,,,,,,
,,5f5bd225fc41a5384dce2d87,65af54659cebb2ff24f0996d,2024-01-23_07h56.25.379,bars,2023.2.3,Win32,59.52380952,657b66ea316d21385b68909f,,,,,,,,,,,1031.6595,1032.6602,,,1033.16,1033.4104,,149,149,,,,,,,,,,,,,,,,bars/014.png,bars/mask006.png,,,,,,,,,,,,0,2,,,,,,,4,2,3,2,,,,,,,,,,,1032.6602,1033.16,1033.4107,1034.3969,space,0.9781,,1034.3969,69,31,1035.3937,1035.3939,1037.5273,space,2.114,,0,43,43,43,1,80,0,,,,,,,,
,,5f5bd225fc41a5384dce2d87,65af54659cebb2ff24f0996d,2024-01-23_07h56.25.379,bars,2023.2.3,Win32,59.52380952,657b66ea316d21385b68909f,,,,,,,,,,,1037.5279,1038.5274,,,1039.0277,1039.2773,,143,143,,,,,,,,,,,,,,,,bars/043.png,bars/mask007.png,,,,,,,,,,,,0,2,,,,,,,2,0,1,0,,,,,,,,,,,1038.5274,1039.0274,1039.2773,1041.6111,space,2.3184,,1041.6112,67,13,1042.6108,1042.6109,1044.5113,space,1.8646,,0,44,44,44,1,30,130,,,,,,,,
,,5f5bd225fc41a5384dce2d87,65af54659cebb2ff24f0996d,2024-01-23_07h56.25.379,bars,2023.2.3,Win32,59.52380952,657b66ea316d21385b68909f,,,,,,,,,,,1044.5122,1045.5105,,,1046.0105,1046.2618,,7,7,,,,,,,,,,,,,,,,bars/020.png,bars/mask006.png,,,,,,,,,,,,1,2,,,,,,,0,2,0,2,,,,,,,,,,,1045.5105,1046.0105,1046.2618,1047.1617,space,0.8839,,1047.1617,72,17,1048.1605,1048.1606,1048.9787,space,0.8034,,0,45,45,45,1,115,170,,,,,,,,
,,5f5bd225fc41a5384dce2d87,65af54659cebb2ff24f0996d,2024-01-23_07h56.25.379,bars,2023.2.3,Win32,59.52380952,657b66ea316d21385b68909f,,,,,,,,,,,1048.9804,1049.9815,,,1050.4781,1050.7284,,4,4,,,,,,,,,,,,,,,,bars/011.png,bars/mask009.png,,,,,,,,,,,,0,1,,,,,,,2,0,2,0,,,,,,,,,,,1049.9816,1050.4779,1050.7285,1051.4952,space,0.7517,,1051.4952,24,81,1052.4945,1052.4947,1053.1623,space,0.6524,,0,46,46,46,1,160,85,,,,,,,,
,,5f5bd225fc41a5384dce2d87,65af54659cebb2ff24f0996d,2024-01-23_07h56.25.379,bars,2023.2.3,Win32,59.52380952,657b66ea316d21385b68909f,,,,,,,,,,,1053.1632,1054.1612,,,1054.662,1054.9118,,106,106,,,,,,,,,,,,,,,,bars/001.png,bars/mask008.png,,,,,,,,,,,,1,2,,,,,,,4,2,3,2,,,,,,,,,,,1054.1613,1054.6617,1054.9119,1059.3779,space,4.4519,,1059.3781,24,21,1060.3788,1060.3789,1062.2961,space,1.8815,,0,47,47,47,1,130,85,,,,,,,,
,,5f5bd225fc41a5384dce2d87,65af54659cebb2ff24f0996d,2024-01-23_07h56.25.379,bars,2023.2.3,Win32,59.52380952,657b66ea316d21385b68909f,,,,,,,,,,,1062.2978,1063.296,,,1063.7971,1064.0471,,42,42,,,,,,,,,,,,,,,,bars/028.png,bars/mask004.png,,,,,,,,,,,,5,1,,,,,,,6,0,5,2,,,,,,,,,,,1063.2961,1063.7969,1064.0472,1064.6314,space,0.5722,,1064.6315,3,78,1065.6281,1065.6281,1067.1816,space,1.5307,,0,48,48,48,1,45,120,,,,,,,,
,,5f5bd225fc41a5384dce2d87,65af54659cebb2ff24f0996d,2024-01-23_07h56.25.379,bars,2023.2.3,Win32,59.52380952,657b66ea316d21385b68909f,,,,,,,,,,,1067.1822,1068.1807,,,1068.6799,1068.9288,,6,6,,,,,,,,,,,,,,,,bars/043.png,bars/mask006.png,,,,,,,,,,,,1,1,,,,,,,4,0,4,1,,,,,,,,,,,1068.1807,1068.6799,1068.929,1069.4153,space,0.4785,,1069.4154,24,56,1070.4133,1070.4134,1071.1464,space,0.721,,0,49,49,49,1,30,130,,,,,,,,
,,5f5bd225fc41a5384dce2d87,65af54659cebb2ff24f0996d,2024-01-23_07h56.25.379,bars,2023.2.3,Win32,59.52380952,657b66ea316d21385b68909f,,,,,,,,,,,,,,,,,,,,,,,,,,,,,,,,,,,,,,,,,,,,,,,,,,,,,,,,,,,,,,,,,,,,,,,,,,,,,,,,,,,,,,,,,,,,,1071.1481,1131.1528,0,0,0,3,1,sequence_tables/blk040.csv
,,5f5bd225fc41a5384dce2d87,65af54659cebb2ff24f0996d,2024-01-23_07h56.25.379,bars,2023.2.3,Win32,59.52380952,657b66ea316d21385b68909f,,,,,,,,,,,1404.4873,1405.4684,,,1405.9689,1406.2183,,69,69,,,,,,,,,,,,,,,,bars/018.png,bars/mask001.png,,,,,,,,,,,,2,2,,,,,,,7,5,7,6,,,,,,1131.1745,1404.4586,space,273.278,,1405.4686,1405.9688,1406.2185,1409.5189,space,3.2854,,1409.519,81,21,1410.5068,1410.5069,1410.5293,,,,0,0,0,0,1,150,90,,,,,,,,
,,5f5bd225fc41a5384dce2d87,65af54659cebb2ff24f0996d,2024-01-23_07h56.25.379,bars,2023.2.3,Win32,59.52380952,657b66ea316d21385b68909f,,,,,,,,,,,1410.5298,1411.5189,,,1412.0194,1412.2685,,137,137,,,,,,,,,,,,,,,,bars/010.png,bars/mask009.png,,,,,,,,,,,,0,1,,,,,,,5,7,5,7,,,,,,,,,,,1411.5192,1412.0191,1412.2689,1417.5749,space,5.2999,,1417.575,28,82,1418.5737,1418.5738,1418.5949,,,,0,1,1,1,1,165,55,,,,,,,,
,,5f5bd225fc41a5384dce2d87,65af54659cebb2ff24f0996d,2024-01-23_07h56.25.379,bars,2023.2.3,Win32,59.52380952,657b66ea316d21385b68909f,,,,,,,,,,,1418.5954,1419.5863,,,1420.0876,1420.3374,,59,59,,,,,,,,,,,,,,,,bars/034.png,bars/mask002.png,,,,,,,,,,,,3,2,,,,,,,3,5,4,4,,,,,,,,,,,1419.5863,1420.0875,1420.3375,1423.9557,space,3.6109,,1423.9557,66,6,1424.9542,1424.9543,1424.9774,,,,0,2,2,2,1,125,65,,,,,,,,
,,5f5bd225fc41a5384dce2d87,65af54659cebb2ff24f0996d,2024-01-23_07h56.25.379,bars,2023.2.3,Win32,59.52380952,657b66ea316d21385b68909f,,,,,,,,,,,1424.9778,1425.9718,,,1426.4701,1426.7188,,154,154,,,,,,,,,,,,,,,,bars/040.png,bars/mask003.png,,,,,,,,,,,,1,1,,,,,,,1,3,2,3,,,,,,,,,,,1425.9719,1426.4701,1426.7188,1429.5053,space,2.7704,,1429.5055,14,31,1430.5047,1430.5048,1430.5268,,,,0,3,3,3,1,140,5,,,,,,,,
,,5f5bd225fc41a5384dce2d87,65af54659cebb2ff24f0996d,2024-01-23_07h56.25.379,bars,2023.2.3,Win32,59.52380952,657b66ea316d21385b68909f,,,,,,,,,,,1430.5272,1431.5218,,,1432.0219,1432.2703,,48,48,,,,,,,,,,,,,,,,bars/029.png,bars/mask002.png,,,,,,,,,,,,5,2,,,,,,,3,5,2,6,,,,,,,,,,,1431.5219,1432.0218,1432.2703,1436.0707,space,3.7926,,1436.0707,42,3,1437.0747,1437.0749,1437.0954,,,,0,4,4,4,1,90,45,,,,,,,,
,,5f5bd225fc41a5384dce2d87,65af54659cebb2ff24f0996d,2024-01-23_07h56.25.379,bars,2023.2.3,Win32,59.52380952,657b66ea316d21385b68909f,,,,,,,,,,,1437.0958,1438.092,,,1438.5882,1438.8419,,128,128,,,,,,,,,,,,,,,,bars/030.png,bars/mask005.png,,,,,,,,,,,,2,1,,,,,,,1,3,3,2,,,,,,,,,,,1438.092,1438.5881,1438.8419,1443.6437,space,4.7857,,1443.6437,12,63,1444.6424,1444.6425,1444.6628,,,,0,5,5,5,1,140,65,,,,,,,,
,,5f5bd225fc41a5384dce2d87,65af54659cebb2ff24f0996d,2024-01-23_07h56.25.379,bars,2023.2.3,Win32,59.52380952,657b66ea316d21385b68909f,,,,,,,,,,,1444.6631,1445.6591,,,1446.1591,1446.4092,,151,151,,,,,,,,,,,,,,,,bars/010.png,bars/mask008.png,,,,,,,,,,,,1,1,,,,,,,3,1,2,1,,,,,,,,,,,1445.6591,1446.1591,1446.4092,1448.9946,space,2.5688,,1448.9946,14,84,1449.9927,1449.9929,1450.0122,,,,0,6,6,6,1,165,55,,,,,,,,
,,5f5bd225fc41a5384dce2d87,65af54659cebb2ff24f0996d,2024-01-23_07h56.25.379,bars,2023.2.3,Win32,59.52380952,657b66ea316d21385b68909f,,,,,,,,,,,1450.0129,1451.0094,,,1451.5091,1451.7598,,99,99,,,,,,,,,,,,,,,,bars/022.png,bars/mask007.png,,,,,,,,,,,,5,1,,,,,,,5,0,6,0,,,,,,,,,,,1451.0095,1451.509,1451.7598,1454.945,space,3.1692,,1454.945,4,79,1455.9426,1455.9426,1455.9614,,,,0,7,7,7,1,95,20,,,,,,,,
,,5f5bd225fc41a5384dce2d87,65af54659cebb2ff24f0996d,2024-01-23_07h56.25.379,bars,2023.2.3,Win32,59.52380952,657b66ea316d21385b68909f,,,,,,,,,,,1455.9618,1456.9601,,,1457.4618,1457.7098,,113,113,,,,,,,,,,,,,,,,bars/035.png,bars/mask001.png,,,,,,,,,,,,0,2,,,,,,,7,0,7,0,,,,,,,,,,,1456.9602,1457.4617,1457.7099,1459.2619,space,1.5359,,1459.262,62,53,1460.2598,1460.2601,1460.2634,,,,0,8,8,8,1,175,60,,,,,,,,
,,5f5bd225fc41a5384dce2d87,65af54659cebb2ff24f0996d,2024-01-23_07h56.25.379,bars,2023.2.3,Win32,59.52380952,657b66ea316d21385b68909f,,,,,,,,,,,1460.2638,1461.2599,,,1461.76,1462.0101,,157,-23,,,,,,,,,,,,,,,,bars/005.png,bars/mask004.png,,,,,,,,,,,,0,2,,,,,,,9,0,9,1,,,,,,,,,,,1461.2599,1461.7599,1462.0102,1467.5288,space,5.5024,,1467.5289,33,17,1468.5273,1468.5274,1468.5454,,,,0,9,9,9,1,10,140,,,,,,,,
,,5f5bd225fc41a5384dce2d87,65af54659cebb2ff24f0996d,2024-01-23_07h56.25.379,bars,2023.2.3,Win32,59.52380952,657b66ea316d21385b68909f,,,,,,,,,,,1468.5459,1469.544,,,1470.0439,1470.2938,,109,109,,,,,,,,,,,,,,,,bars/002.png,bars/mask001.png,,,,,,,,,,,,3,1,,,,,,,10,2,9,1,,,,,,,,,,,1469.544,1470.0438,1470.2939,1474.1121,space,3.8023,,1474.1122,21,24,1475.1107,1475.1107,1475.1316,,,,0,10,10,10,1,130,85,,,,,,,,
,,5f5bd225fc41a5384dce2d87,65af54659cebb2ff24f0996d,2024-01-23_07h56.25.379,bars,2023.2.3,Win32,59.52380952,657b66ea316d21385b68909f,,,,,,,,,,,1475.1319,1476.1279,,,1476.628,1476.8783,,15,15,,,,,,,,,,,,,,,,bars/047.png,bars/mask002.png,,,,,,,,,,,,8,1,,,,,,,8,4,8,4,,,,,,,,,,,1476.1279,1476.6279,1476.8784,1480.2793,space,3.3855,,1480.2794,0,55,1481.2784,1481.2785,1481.297,,,,0,11,11,11,1,15,70,,,,,,,,
,,5f5bd225fc41a5384dce2d87,65af54659cebb2ff24f0996d,2024-01-23_07h56.25.379,bars,2023.2.3,Win32,59.52380952,657b66ea316d21385b68909f,,,,,,,,,,,1481.2974,1482.2949,,,1482.7951,1483.0447,,40,220,,,,,,,,,,,,,,,,bars/003.png,bars/mask006.png,,,,,,,,,,,,3,1,,,,,,,6,6,6,7,,,,,,,,,,,1482.2952,1482.7949,1483.0448,1486.9299,space,3.869,,1486.93,15,80,1487.9285,1487.9286,1487.9466,,,,0,12,12,12,1,25,140,,,,,,,,
,,5f5bd225fc41a5384dce2d87,65af54659cebb2ff24f0996d,2024-01-23_07h56.25.379,bars,2023.2.3,Win32,59.52380952,657b66ea316d21385b68909f,,,,,,,,,,,1487.9472,1488.9453,,,1489.4455,1489.6953,,131,131,,,,,,,,,,,,,,,,bars/007.png,bars/mask005.png,,,,,,,,,,,,0,1,,,,,,,8,8,8,9,,,,,,,,,,,1488.9455,1489.4455,1489.6954,1490.8305,space,1.1185,,1490.8305,44,76,1491.8287,1491.8287,1491.8303,,,,0,13,13,13,1,175,55,,,,,,,,
,,5f5bd225fc41a5384dce2d87,65af54659cebb2ff24f0996d,2024-01-23_07h56.25.379,bars,2023.2.3,Win32,59.52380952,657b66ea316d21385b68909f,,,,,,,,,,,1491.8309,1492.8291,,,1493.3291,1493.5792,,106,106,,,,,,,,,,,,,,,,bars/045.png,bars/mask005.png,,,,,,,,,,,,7,1,,,,,,,10,6,9,6,,,,,,,,,,,1492.8292,1493.3291,1493.5795,1496.4307,space,2.8354,,1496.4307,6,84,1497.4293,1497.4293,1497.4492,,,,0,14,14,14,1,100,10,,,,,,,,
,,5f5bd225fc41a5384dce2d87,65af54659cebb2ff24f0996d,2024-01-23_07h56.25.379,bars,2023.2.3,Win32,59.52380952,657b66ea316d21385b68909f,,,,,,,,,,,1497.4495,1498.4464,,,1498.9455,1499.1962,,133,133,,,,,,,,,,,,,,,,bars/027.png,bars/mask002.png,,,,,,,,,,,,2,1,,,,,,,10,4,10,3,,,,,,,,,,,1498.4465,1498.9454,1499.1962,1501.6143,space,2.4022,,1501.6143,23,83,1502.6124,1502.6127,1502.6313,,,,0,15,15,15,1,110,50,,,,,,,,
,,5f5bd225fc41a5384dce2d87,65af54659cebb2ff24f0996d,2024-01-23_07h56.25.379,bars,2023.2.3,Win32,59.52380952,657b66ea316d21385b68909f,,,,,,,,,,,1502.6316,1503.6293,,,1504.1297,1504.3795,,54,54,,,,,,,,,,,,,,,,bars/047.png,bars/mask000.png,,,,,,,,,,,,2,2,,,,,,,10,6,10,5,,,,,,,,,,,1503.6295,1504.1296,1504.3796,1508.2646,space,3.8693,,1508.2646,39,16,1509.2631,1509.2631,1509.2847,,,,0,16,16,16,1,15,70,,,,,,,,
,,5f5bd225fc41a5384dce2d87,65af54659cebb2ff24f0996d,2024-01-23_07h56.25.379,bars,2023.2.3,Win32,59.52380952,657b66ea316d21385b68909f,,,,,,,,,,,1509.2851,1510.2769,,,1510.7775,1511.0261,,50,50,,,,,,,,,,,,,,,,bars/010.png,bars/mask002.png,,,,,,,,,,,,4,2,,,,,,,10,4,10,5,,,,,,,,,,,1510.277,1510.7773,1511.0262,1513.9791,space,2.9464,,1513.9792,65,5,1514.9769,1514.9769,1514.9982,,,,0,17,17,17,1,165,55,,,,,,,,
,,5f5bd225fc41a5384dce2d87,65af54659cebb2ff24f0996d,2024-01-23_07h56.25.379,bars,2023.2.3,Win32,59.52380952,657b66ea316d21385b68909f,,,,,,,,,,,1514.9985,1515.993,,,1516.4926,1516.7425,,121,121,,,,,,,,,,,,,,,,bars/013.png,bars/mask004.png,,,,,,,,,,,,0,1,,,,,,,10,6,10,7,,,,,,,,,,,1515.9931,1516.4925,1516.7426,1519.2784,space,2.5284,,1519.2784,46,69,1520.2773,1520.2773,1520.3001,,,,0,18,18,18,1,75,10,,,,,,,,
,,5f5bd225fc41a5384dce2d87,65af54659cebb2ff24f0996d,2024-01-23_07h56.25.379,bars,2023.2.3,Win32,59.52380952,657b66ea316d21385b68909f,,,,,,,,,,,1520.3004,1521.2942,,,1521.7945,1522.043,,54,54,,,,,,,,,,,,,,,,bars/005.png,bars/mask000.png,,,,,,,,,,,,0,1,,,,,,,10,8,10,9,,,,,,,,,,,1521.2943,1521.7944,1522.0432,1524.5272,space,2.4699,,1524.5272,44,86,1525.5281,1525.5283,1525.5297,,,,0,19,19,19,1,10,140,,,,,,,,
,,5f5bd225fc41a5384dce2d87,65af54659cebb2ff24f0996d,2024-01-23_07h56.25.379,bars,2023.2.3,Win32,59.52380952,657b66ea316d21385b68909f,,,,,,,,,,,1525.5302,1526.527,,,1527.0262,1527.278,,46,46,,,,,,,,,,,,,,,,bars/006.png,bars/mask004.png,,,,,,,,,,,,4,1,,,,,,,8,10,6,9,,,,,,,,,,,1526.527,1527.0262,1527.2781,1529.5594,space,2.2733,,1529.5595,11,54,1530.5615,1530.5615,1530.5829,,,,0,20,20,20,1,35,100,,,,,,,,
,,5f5bd225fc41a5384dce2d87,65af54659cebb2ff24f0996d,2024-01-23_07h56.25.379,bars,2023.2.3,Win32,59.52380952,657b66ea316d21385b68909f,,,,,,,,,,,1530.5832,1531.5775,,,1532.0782,1532.3269,,44,44,,,,,,,,,,,,,,,,bars/006.png,bars/mask003.png,,,,,,,,,,,,4,1,,,,,,,6,10,6,9,,,,,,,,,,,1531.5776,1532.0781,1532.327,1537.3799,space,5.0459,,1537.3799,9,56,1538.3786,1538.3787,1538.3998,,,,0,21,21,21,1,35,100,,,,,,,,
,,5f5bd225fc41a5384dce2d87,65af54659cebb2ff24f0996d,2024-01-23_07h56.25.379,bars,2023.2.3,Win32,59.52380952,657b66ea316d21385b68909f,,,,,,,,,,,1538.4002,1539.3943,,,1539.8956,1540.145,,151,-29,,,,,,,,,,,,,,,,bars/038.png,bars/mask005.png,,,,,,,,,,,,2,1,,,,,,,4,8,3,9,,,,,,,,,,,1539.3945,1539.8953,1540.1452,1543.5448,space,3.3921,,1543.5449,14,81,1544.5456,1544.5456,1544.5668,,,,0,22,22,22,1,165,70,,,,,,,,
,,5f5bd225fc41a5384dce2d87,65af54659cebb2ff24f0996d,2024-01-23_07h56.25.379,bars,2023.2.3,Win32,59.52380952,657b66ea316d21385b68909f,,,,,,,,,,,1544.5673,1545.5631,,,1546.0624,1546.3122,,76,76,,,,,,,,,,,,,,,,bars/029.png,bars/mask000.png,,,,,,,,,,,,3,1,,,,,,,6,10,5,10,,,,,,,,,,,1545.5631,1546.0623,1546.3123,1549.2443,space,2.9189,,1549.2445,14,31,1550.2455,1550.2455,1550.2646,,,,0,23,23,23,1,90,45,,,,,,,,
,,5f5bd225fc41a5384dce2d87,65af54659cebb2ff24f0996d,2024-01-23_07h56.25.379,bars,2023.2.3,Win32,59.52380952,657b66ea316d21385b68909f,,,,,,,,,,,1550.265,1551.2634,,,1551.7631,1552.0126,,142,142,,,,,,,,,,,,,,,,bars/012.png,bars/mask009.png,,,,,,,,,,,,0,1,,,,,,,8,10,8,10,,,,,,,,,,,1551.2636,1551.763,1552.0126,1558.8116,space,6.789,,1558.8117,52,53,1559.8131,1559.8132,1559.836,,,,0,24,24,24,1,90,15,,,,,,,,
,,5f5bd225fc41a5384dce2d87,65af54659cebb2ff24f0996d,2024-01-23_07h56.25.379,bars,2023.2.3,Win32,59.52380952,657b66ea316d21385b68909f,,,,,,,,,,,1559.8371,1560.8292,,,1561.3303,1561.5806,,61,61,,,,,,,,,,,,,,,,bars/018.png,bars/mask009.png,,,,,,,,,,,,0,2,,,,,,,6,8,7,7,,,,,,,,,,,1560.8293,1561.3302,1561.5807,1564.4632,space,2.8691,,1564.4633,89,29,1565.4636,1565.4637,1565.4857,,,,0,25,25,25,1,150,90,,,,,,,,
,,5f5bd225fc41a5384dce2d87,65af54659cebb2ff24f0996d,2024-01-23_07h56.25.379,bars,2023.2.3,Win32,59.52380952,657b66ea316d21385b68909f,,,,,,,,,,,1565.4861,1566.4799,,,1566.9804,1567.2289,,148,-32,,,,,,,,,,,,,,,,bars/013.png,bars/mask007.png,,,,,,,,,,,,0,2,,,,,,,4,6,4,6,,,,,,,,,,,1566.4801,1566.9804,1567.2291,1571.1137,space,3.8694,,1571.1138,73,42,1572.114,1572.1141,1572.1351,,,,0,26,26,26,1,75,10,,,,,,,,
,,5f5bd225fc41a5384dce2d87,65af54659cebb2ff24f0996d,2024-01-23_07h56.25.379,bars,2023.2.3,Win32,59.52380952,657b66ea316d21385b68909f,,,,,,,,,,,1572.1355,1573.1306,,,1573.6303,1573.8808,,132,132,,,,,,,,,,,,,,,,bars/008.png,bars/mask000.png,,,,,,,,,,,,1,1,,,,,,,2,8,3,7,,,,,,,,,,,1573.1306,1573.6302,1573.8809,1579.164,space,5.2687,,1579.1642,22,48,1580.1646,1580.1647,1580.1869,,,,0,27,27,27,1,110,0,,,,,,,,
,,5f5bd225fc41a5384dce2d87,65af54659cebb2ff24f0996d,2024-01-23_07h56.25.379,bars,2023.2.3,Win32,59.52380952,657b66ea316d21385b68909f,,,,,,,,,,,1580.1874,1581.1805,,,1581.6812,1581.9305,,61,61,,,,,,,,,,,,,,,,bars/034.png,bars/mask002.png,,,,,,,,,,,,9,2,,,,,,,0,10,0,10,,,,,,,,,,,1581.1805,1581.6811,1581.9307,1584.6132,space,2.6713,,1584.6134,64,4,1585.615,1585.6151,1585.6383,,,,0,28,28,28,1,125,65,,,,,,,,
,,5f5bd225fc41a5384dce2d87,65af54659cebb2ff24f0996d,2024-01-23_07h56.25.379,bars,2023.2.3,Win32,59.52380952,657b66ea316d21385b68909f,,,,,,,,,,,1585.6386,1586.6324,,,1587.1318,1587.3818,,97,97,,,,,,,,,,,,,,,,bars/036.png,bars/mask009.png,,,,,,,,,,,,0,1,,,,,,,0,8,1,9,,,,,,,,,,,1586.6325,1587.1317,1587.3818,1588.6487,space,1.2555,,1588.6488,48,77,1589.6489,1589.649,1589.6529,,,,0,29,29,29,1,145,20,,,,,,,,
,,5f5bd225fc41a5384dce2d87,65af54659cebb2ff24f0996d,2024-01-23_07h56.25.379,bars,2023.2.3,Win32,59.52380952,657b66ea316d21385b68909f,,,,,,,,,,,1589.6533,1590.6492,,,1591.1488,1591.3974,,128,128,,,,,,,,,,,,,,,,bars/017.png,bars/mask001.png,,,,,,,,,,,,0,1,,,,,,,0,6,0,5,,,,,,,,,,,1590.6494,1591.1488,1591.3975,1593.5169,space,2.1024,,1593.5169,17,83,1594.5141,1594.5142,1594.5339,,,,0,30,30,30,1,145,45,,,,,,,,
,,5f5bd225fc41a5384dce2d87,65af54659cebb2ff24f0996d,2024-01-23_07h56.25.379,bars,2023.2.3,Win32,59.52380952,657b66ea316d21385b68909f,,,,,,,,,,,1594.5342,1595.5326,,,1596.0317,1596.2824,,162,162,,,,,,,,,,,,,,,,bars/049.png,bars/mask006.png,,,,,,,,,,,,3,1,,,,,,,2,8,3,9,,,,,,,,,,,1595.5328,1596.0316,1596.2825,1598.3177,space,2.0291,,1598.3177,2,47,1599.3161,1599.3161,1599.3183,,,,0,31,31,31,1,160,115,,,,,,,,
,,5f5bd225fc41a5384dce2d87,65af54659cebb2ff24f0996d,2024-01-23_07h56.25.379,bars,2023.2.3,Win32,59.52380952,657b66ea316d21385b68909f,,,,,,,,,,,1599.3187,1600.3153,,,1600.8163,1601.0661,,112,112,,,,,,,,,,,,,,,,bars/045.png,bars/mask009.png,,,,,,,,,,,,0,1,,,,,,,0,10,0,9,,,,,,,,,,,1600.3154,1600.8161,1601.0661,1602.9985,space,1.9183,,1602.9986,12,78,1603.9985,1603.9987,1604.0179,,,,0,32,32,32,1,100,10,,,,,,,,
,,5f5bd225fc41a5384dce2d87,65af54659cebb2ff24f0996d,2024-01-23_07h56.25.379,bars,2023.2.3,Win32,59.52380952,657b66ea316d21385b68909f,,,,,,,,,,,1604.0183,1605.015,,,1605.517,1605.7662,,41,41,,,,,,,,,,,,,,,,bars/014.png,bars/mask007.png,,,,,,,,,,,,0,1,,,,,,,2,10,3,10,,,,,,,,,,,1605.015,1605.5169,1605.7662,1610.601,space,4.8198,,1610.6011,39,41,1611.6002,1611.6004,1611.62,,,,0,33,33,33,1,80,0,,,,,,,,
,,5f5bd225fc41a5384dce2d87,65af54659cebb2ff24f0996d,2024-01-23_07h56.25.379,bars,2023.2.3,Win32,59.52380952,657b66ea316d21385b68909f,,,,,,,,,,,1611.6204,1612.6154,,,1613.1172,1613.3663,,17,17,,,,,,,,,,,,,,,,bars/047.png,bars/mask009.png,,,,,,,,,,,,0,1,,,,,,,0,10,0,10,,,,,,,,,,,1612.6155,1613.117,1613.3664,1615.2332,space,1.8553,,1615.2332,2,53,1616.2321,1616.2321,1616.2522,,,,0,34,34,34,1,15,70,,,,,,,,
,,5f5bd225fc41a5384dce2d87,65af54659cebb2ff24f0996d,2024-01-23_07h56.25.379,bars,2023.2.3,Win32,59.52380952,657b66ea316d21385b68909f,,,,,,,,,,,1616.2525,1617.2501,,,1617.7506,1617.9997,,42,42,,,,,,,,,,,,,,,,bars/000.png,bars/mask004.png,,,,,,,,,,,,2,1,,,,,,,2,10,2,10,,,,,,,,,,,1617.2502,1617.7505,1617.9997,1622.8569,space,4.8507,,1622.857,2,77,1623.8503,1623.8503,1623.8621,,,,0,35,35,35,1,40,145,,,,,,,,
,,5f5bd225fc41a5384dce2d87,65af54659cebb2ff24f0996d,2024-01-23_07h56.25.379,bars,2023.2.3,Win32,59.52380952,657b66ea316d21385b68909f,,,,,,,,,,,1623.8625,1624.8505,,,1625.3502,1625.6011,,101,101,,,,,,,,,,,,,,,,bars/022.png,bars/mask008.png,,,,,,,,,,,,0,1,,,,,,,0,10,0,10,,,,,,,,,,,1624.8506,1625.3501,1625.6011,1629.6181,space,4.0085,,1629.6181,6,81,1630.6182,1630.6183,1630.6359,,,,0,36,36,36,1,95,20,,,,,,,,
,,5f5bd225fc41a5384dce2d87,65af54659cebb2ff24f0996d,2024-01-23_07h56.25.379,bars,2023.2.3,Win32,59.52380952,657b66ea316d21385b68909f,,,,,,,,,,,1630.6362,1631.6336,,,1632.1351,1632.3851,,165,165,,,,,,,,,,,,,,,,bars/036.png,bars/mask001.png,,,,,,,,,,,,0,1,,,,,,,0,10,1,10,,,,,,,,,,,1631.6337,1632.1351,1632.3852,1636.1008,space,3.7026,,1636.101,20,35,1637.1021,1637.1022,1637.1216,,,,0,37,37,37,1,145,20,,,,,,,,
,,5f5bd225fc41a5384dce2d87,65af54659cebb2ff24f0996d,2024-01-23_07h56.25.379,bars,2023.2.3,Win32,59.52380952,657b66ea316d21385b68909f,,,,,,,,,,,1637.1219,1638.1184,,,1638.6186,1638.8688,,58,58,,,,,,,,,,,,,,,,bars/003.png,bars/mask000.png,,,,,,,,,,,,0,1,,,,,,,2,8,1,9,,,,,,,,,,,1638.1185,1638.6185,1638.8689,1641.8034,space,2.9189,,1641.8035,33,82,1642.8026,1642.8027,1642.8225,,,,0,38,38,38,1,25,140,,,,,,,,
,,5f5bd225fc41a5384dce2d87,65af54659cebb2ff24f0996d,2024-01-23_07h56.25.379,bars,2023.2.3,Win32,59.52380952,657b66ea316d21385b68909f,,,,,,,,,,,1642.8228,1643.8171,,,1644.3201,1644.5676,,119,119,,,,,,,,,,,,,,,,bars/030.png,bars/mask006.png,,,,,,,,,,,,1,1,,,,,,,4,10,4,10,,,,,,,,,,,1643.8171,1644.3198,1644.5677,1645.5851,space,1.0014,,1645.5852,21,54,1646.5848,1646.585,1646.587,,,,0,39,39,39,1,140,65,,,,,,,,
,,5f5bd225fc41a5384dce2d87,65af54659cebb2ff24f0996d,2024-01-23_07h56.25.379,bars,2023.2.3,Win32,59.52380952,657b66ea316d21385b68909f,,,,,,,,,,,1646.5875,1647.5857,,,1648.0857,1648.335,,159,159,,,,,,,,,,,,,,,,bars/042.png,bars/mask008.png,,,,,,,,,,,,3,1,,,,,,,6,10,6,10,,,,,,,,,,,1647.5857,1648.0856,1648.335,1650.9685,space,2.6254,,1650.9686,14,84,1651.9701,1651.9701,1651.9908,,,,0,40,40,40,1,145,75,,,,,,,,
,,5f5bd225fc41a5384dce2d87,65af54659cebb2ff24f0996d,2024-01-23_07h56.25.379,bars,2023.2.3,Win32,59.52380952,657b66ea316d21385b68909f,,,,,,,,,,,1651.9914,1652.987,,,1653.4856,1653.7364,,43,43,,,,,,,,,,,,,,,,bars/019.png,bars/mask004.png,,,,,,,,,,,,8,1,,,,,,,8,10,9,10,,,,,,,,,,,1652.9871,1653.4855,1653.7365,1657.2882,space,3.5451,,1657.2883,2,62,1658.2852,1658.2854,1658.3053,,,,0,41,41,41,1,45,105,,,,,,,,
,,5f5bd225fc41a5384dce2d87,65af54659cebb2ff24f0996d,2024-01-23_07h56.25.379,bars,2023.2.3,Win32,59.52380952,657b66ea316d21385b68909f,,,,,,,,,,,1658.3058,1659.3031,,,1659.8031,1660.0531,,136,136,,,,,,,,,,,,,,,,bars/031.png,bars/mask008.png,,,,,,,,,,,,2,1,,,,,,,6,10,4,10,,,,,,,,,,,1659.3033,1659.8031,1660.0533,1660.9543,space,0.885,,1660.9545,16,79,1661.9532,1661.9532,1661.9735,,,,0,42,42,42,1,120,35,,,,,,,,
,,5f5bd225fc41a5384dce2d87,65af54659cebb2ff24f0996d,2024-01-23_07h56.25.379,bars,2023.2.3,Win32,59.52380952,657b66ea316d21385b68909f,,,,,,,,,,,1661.9738,1662.9697,,,1663.4707,1663.7192,,117,117,,,,,,,,,,,,,,,,bars/028.png,bars/mask004.png,,,,,,,,,,,,7,2,,,,,,,8,8,6,8,,,,,,,,,,,1662.9698,1663.4705,1663.7193,1667.2214,space,3.4857,,1667.2215,72,3,1668.2205,1668.2205,1668.2428,,,,0,43,43,43,1,45,120,,,,,,,,
,,5f5bd225fc41a5384dce2d87,65af54659cebb2ff24f0996d,2024-01-23_07h56.25.379,bars,2023.2.3,Win32,59.52380952,657b66ea316d21385b68909f,,,,,,,,,,,1668.2432,1669.2375,,,1669.736,1669.9869,,80,80,,,,,,,,,,,,,,,,bars/044.png,bars/mask006.png,,,,,,,,,,,,4,1,,,,,,,6,10,5,9,,,,,,,,,,,1669.2376,1669.7359,1669.9869,1672.1549,space,2.1519,,1672.155,5,75,1673.1523,1673.1524,1673.1756,,,,0,44,44,44,1,75,155,,,,,,,,
,,5f5bd225fc41a5384dce2d87,65af54659cebb2ff24f0996d,2024-01-23_07h56.25.379,bars,2023.2.3,Win32,59.52380952,657b66ea316d21385b68909f,,,,,,,,,,,1673.176,1674.1712,,,1674.6711,1674.921,,102,102,,,,,,,,,,,,,,,,bars/014.png,bars/mask007.png,,,,,,,,,,,,1,1,,,,,,,4,8,3,8,,,,,,,,,,,1674.1715,1674.671,1674.9212,1678.4888,space,3.5602,,1678.4888,22,78,1679.4879,1679.4879,1679.5076,,,,0,45,45,45,1,80,0,,,,,,,,
,,5f5bd225fc41a5384dce2d87,65af54659cebb2ff24f0996d,2024-01-23_07h56.25.379,bars,2023.2.3,Win32,59.52380952,657b66ea316d21385b68909f,,,,,,,,,,,1679.508,1680.5046,,,1681.0045,1681.2533,,59,59,,,,,,,,,,,,,,,,bars/048.png,bars/mask005.png,,,,,,,,,,,,2,1,,,,,,,2,6,3,7,,,,,,,,,,,1680.5046,1681.0044,1681.2536,1683.5938,space,2.3337,,1683.5938,9,64,1684.5871,1684.5871,1684.6065,,,,0,46,46,46,1,50,175,,,,,,,,
,,5f5bd225fc41a5384dce2d87,65af54659cebb2ff24f0996d,2024-01-23_07h56.25.379,bars,2023.2.3,Win32,59.52380952,657b66ea316d21385b68909f,,,,,,,,,,,1684.607,1685.6041,,,1686.1044,1686.3542,,147,147,,,,,,,,,,,,,,,,bars/039.png,bars/mask003.png,,,,,,,,,,,,0,1,,,,,,,4,4,4,4,,,,,,,,,,,1685.6041,1686.1041,1686.3543,1691.9546,space,5.5856,,1691.9548,28,42,1692.9375,1692.9376,1692.9577,,,,0,47,47,47,1,175,105,,,,,,,,
,,5f5bd225fc41a5384dce2d87,65af54659cebb2ff24f0996d,2024-01-23_07h56.25.379,bars,2023.2.3,Win32,59.52380952,657b66ea316d21385b68909f,,,,,,,,,,,1692.9581,1693.9549,,,1694.4545,1694.7043,,140,140,,,,,,,,,,,,,,,,bars/023.png,bars/mask005.png,,,,,,,,,,,,0,2,,,,,,,2,2,3,3,,,,,,,,,,,1693.9549,1694.4543,1694.7046,1699.2721,space,4.5558,,1699.2721,60,25,1700.2715,1700.2718,1700.2933,,,,0,48,48,48,1,20,115,,,,,,,,
,,5f5bd225fc41a5384dce2d87,65af54659cebb2ff24f0996d,2024-01-23_07h56.25.379,bars,2023.2.3,Win32,59.52380952,657b66ea316d21385b68909f,,,,,,,,,,,1700.2938,1701.2884,,,1701.7887,1702.0384,,51,51,,,,,,,,,,,,,,,,bars/012.png,bars/mask003.png,,,,,,,,,,,,0,2,,,,,,,4,0,3,0,,,,,,,,,,,1701.2884,1701.7885,1702.0386,1704.7057,space,2.6522,,1704.7058,39,36,1705.7047,1705.7047,1705.7253,,,,0,49,49,49,1,90,15,,,,,,,,
,,5f5bd225fc41a5384dce2d87,65af54659cebb2ff24f0996d,2024-01-23_07h56.25.379,bars,2023.2.3,Win32,59.52380952,657b66ea316d21385b68909f,,,,,,,,,,,,,,,,,,,,,,,,,,,,,,,,,,,,,,,,,,,,,,,,,,,,,,,,,,,,,,,,,,,,,,,,,,,,,,,,,,,,,,,,,,,,,1705.7258,1765.726,0,1,1,1,1,sequence_tables/blk007.csv
,,5f5bd225fc41a5384dce2d87,65af54659cebb2ff24f0996d,2024-01-23_07h56.25.379,bars,2023.2.3,Win32,59.52380952,657b66ea316d21385b68909f,,,,,,,,,,,1877.6263,1878.6043,,,1879.1048,1879.3547,,150,150,,,,,,,,,,,,,,,,bars/042.png,bars/mask000.png,,,,,,,,,,,,4,1,,,,,,,5,5,5,2,,,,,,1765.7461,1877.6005,space,111.8443,,1878.6045,1879.1048,1879.3549,1885.974,space,6.6031,,1885.9741,5,75,1886.9721,1886.9723,1886.9941,,,,0,0,0,0,1,145,75,,,,,,,,
,,5f5bd225fc41a5384dce2d87,65af54659cebb2ff24f0996d,2024-01-23_07h56.25.379,bars,2023.2.3,Win32,59.52380952,657b66ea316d21385b68909f,,,,,,,,,,,1886.9946,1887.9843,,,1888.4844,1888.7343,,113,113,,,,,,,,,,,,,,,,bars/034.png,bars/mask005.png,,,,,,,,,,,,5,1,,,,,,,7,3,8,4,,,,,,,,,,,1887.9846,1888.4842,1888.7346,1890.2003,space,1.4512,,1890.2007,12,48,1891.2009,1891.2012,1891.2042,,,,0,1,1,1,1,125,65,,,,,,,,
,,5f5bd225fc41a5384dce2d87,65af54659cebb2ff24f0996d,2024-01-23_07h56.25.379,bars,2023.2.3,Win32,59.52380952,657b66ea316d21385b68909f,,,,,,,,,,,1891.2047,1892.201,,,1892.7008,1892.9504,,119,119,,,,,,,,,,,,,,,,bars/031.png,bars/mask006.png,,,,,,,,,,,,4,1,,,,,,,5,5,4,6,,,,,,,,,,,1892.2012,1892.7006,1892.9506,1895.6681,space,2.7079,,1895.6683,1,84,1896.6676,1896.6677,1896.688,,,,0,2,2,2,1,120,35,,,,,,,,
,,5f5bd225fc41a5384dce2d87,65af54659cebb2ff24f0996d,2024-01-23_07h56.25.379,bars,2023.2.3,Win32,59.52380952,657b66ea316d21385b68909f,,,,,,,,,,,1896.6883,1897.6848,,,1898.1851,1898.4347,,53,53,,,,,,,,,,,,,,,,bars/028.png,bars/mask001.png,,,,,,,,,,,,5,1,,,,,,,7,7,7,7,,,,,,,,,,,1897.685,1898.1848,1898.4349,1898.8705,space,0.4229,,1898.8706,8,67,1899.8681,1899.8682,1899.8703,,,,0,3,3,3,1,45,120,,,,,,,,
,,5f5bd225fc41a5384dce2d87,65af54659cebb2ff24f0996d,2024-01-23_07h56.25.379,bars,2023.2.3,Win32,59.52380952,657b66ea316d21385b68909f,,,,,,,,,,,1899.8713,1900.868,,,1901.3688,1901.6182,,176,176,,,,,,,,,,,,,,,,bars/007.png,bars/mask004.png,,,,,,,,,,,,6,1,,,,,,,5,5,6,4,,,,,,,,,,,1900.8681,1901.3684,1901.6183,1904.7515,space,3.1155,,1904.7516,1,59,1905.7521,1905.7524,1905.7736,,,,0,4,4,4,1,175,55,,,,,,,,
,,5f5bd225fc41a5384dce2d87,65af54659cebb2ff24f0996d,2024-01-23_07h56.25.379,bars,2023.2.3,Win32,59.52380952,657b66ea316d21385b68909f,,,,,,,,,,,1905.7741,1906.7683,,,1907.2689,1907.5193,,0,0,,,,,,,,,,,,,,,,bars/012.png,bars/mask009.png,,,,,,,,,,,,4,2,,,,,,,7,7,8,8,,,,,,,,,,,1906.7684,1907.2688,1907.5194,1908.1858,space,0.6511,,1908.186,90,15,1909.1856,1909.1857,1909.1905,,,,0,5,5,5,1,90,15,,,,,,,,
,,5f5bd225fc41a5384dce2d87,65af54659cebb2ff24f0996d,2024-01-23_07h56.25.379,bars,2023.2.3,Win32,59.52380952,657b66ea316d21385b68909f,,,,,,,,,,,1909.1911,1910.1856,,,1910.6853,1910.9352,,80,80,,,,,,,,,,,,,,,,bars/026.png,bars/mask002.png,,,,,,,,,,,,8,2,,,,,,,9,9,7,9,,,,,,,,,,,1910.186,1910.6851,1910.9354,1913.2028,space,2.2517,,1913.2029,45,5,1914.2025,1914.2025,1914.223,,,,0,6,6,6,1,35,85,,,,,,,,
,,5f5bd225fc41a5384dce2d87,65af54659cebb2ff24f0996d,2024-01-23_07h56.25.379,bars,2023.2.3,Win32,59.52380952,657b66ea316d21385b68909f,,,,,,,,,,,1914.2237,1915.2197,,,1915.719,1915.9689,,147,147,,,,,,,,,,,,,,,,bars/038.png,bars/mask004.png,,,,,,,,,,,,4,1,,,,,,,10,10,10,8,,,,,,,,,,,1915.2197,1915.7188,1915.9692,1916.6545,space,0.6695,,1916.6546,18,77,1917.6528,1917.6528,1917.6578,,,,0,7,7,7,1,165,70,,,,,,,,
,,5f5bd225fc41a5384dce2d87,65af54659cebb2ff24f0996d,2024-01-23_07h56.25.379,bars,2023.2.3,Win32,59.52380952,657b66ea316d21385b68909f,,,,,,,,,,,1917.6582,1918.6529,,,1919.1521,1919.4029,,144,144,,,,,,,,,,,,,,,,bars/032.png,bars/mask007.png,,,,,,,,,,,,4,1,,,,,,,10,10,10,10,,,,,,,,,,,1918.6529,1919.152,1919.403,1921.7701,space,2.3524,,1921.7702,19,56,1922.7695,1922.7698,1922.7885,,,,0,8,8,8,1,125,20,,,,,,,,
,,5f5bd225fc41a5384dce2d87,65af54659cebb2ff24f0996d,2024-01-23_07h56.25.379,bars,2023.2.3,Win32,59.52380952,657b66ea316d21385b68909f,,,,,,,,,,,1922.7888,1923.7853,,,1924.2863,1924.5363,,55,55,,,,,,,,,,,,,,,,bars/035.png,bars/mask005.png,,,,,,,,,,,,8,2,,,,,,,8,10,9,10,,,,,,,,,,,1923.7853,1924.2861,1924.5364,1926.5034,space,1.9524,,1926.5036,60,5,1927.5036,1927.5036,1927.5089,,,,0,9,9,9,1,175,60,,,,,,,,
,,5f5bd225fc41a5384dce2d87,65af54659cebb2ff24f0996d,2024-01-23_07h56.25.379,bars,2023.2.3,Win32,59.52380952,657b66ea316d21385b68909f,,,,,,,,,,,1927.5093,1928.5043,,,1929.0041,1929.2532,,102,102,,,,,,,,,,,,,,,,bars/026.png,bars/mask002.png,,,,,,,,,,,,3,2,,,,,,,6,8,7,7,,,,,,,,,,,1928.5044,1929.0041,1929.2535,1933.2875,space,4.0196,,1933.2876,67,17,1934.2873,1934.2873,1934.3077,,,,0,10,10,10,1,35,85,,,,,,,,
,,5f5bd225fc41a5384dce2d87,65af54659cebb2ff24f0996d,2024-01-23_07h56.25.379,bars,2023.2.3,Win32,59.52380952,657b66ea316d21385b68909f,,,,,,,,,,,1934.3084,1935.3046,,,1935.8044,1936.054,,58,58,,,,,,,,,,,,,,,,bars/049.png,bars/mask005.png,,,,,,,,,,,,0,2,,,,,,,4,6,5,5,,,,,,,,,,,1935.3047,1935.8041,1936.0542,1942.0547,space,5.9851,,1942.0548,78,57,1943.0546,1943.0548,1943.0749,,,,0,11,11,11,1,160,115,,,,,,,,
,,5f5bd225fc41a5384dce2d87,65af54659cebb2ff24f0996d,2024-01-23_07h56.25.379,bars,2023.2.3,Win32,59.52380952,657b66ea316d21385b68909f,,,,,,,,,,,1943.0753,1944.0713,,,1944.5712,1944.8213,,137,137,,,,,,,,,,,,,,,,bars/025.png,bars/mask004.png,,,,,,,,,,,,0,1,,,,,,,6,4,6,3,,,,,,,,,,,1944.0715,1944.5712,1944.8215,1948.8222,space,3.9913,,1948.8223,32,83,1949.8216,1949.8217,1949.8434,,,,0,12,12,12,1,105,40,,,,,,,,
,,5f5bd225fc41a5384dce2d87,65af54659cebb2ff24f0996d,2024-01-23_07h56.25.379,bars,2023.2.3,Win32,59.52380952,657b66ea316d21385b68909f,,,,,,,,,,,1949.8439,1950.8426,,,1951.3435,1951.5928,,126,126,,,,,,,,,,,,,,,,bars/004.png,bars/mask003.png,,,,,,,,,,,,6,2,,,,,,,8,6,6,6,,,,,,,,,,,1950.8427,1951.3435,1951.5928,1952.8275,space,1.2187,,1952.8276,79,1,1953.8259,1953.8261,1953.8294,,,,0,13,13,13,1,25,125,,,,,,,,
,,5f5bd225fc41a5384dce2d87,65af54659cebb2ff24f0996d,2024-01-23_07h56.25.379,bars,2023.2.3,Win32,59.52380952,657b66ea316d21385b68909f,,,,,,,,,,,1953.8299,1954.8264,,,1955.3159,1955.5598,,59,59,,,,,,,,,,,,,,,,bars/042.png,bars/mask003.png,,,,,,,,,,,,2,2,,,,,,,6,4,5,4,,,,,,,,,,,1954.8264,1955.3158,1955.5599,1958.3616,space,2.7858,,1958.3617,86,16,1959.3598,1959.3598,1959.379,,,,0,14,14,14,1,145,75,,,,,,,,
,,5f5bd225fc41a5384dce2d87,65af54659cebb2ff24f0996d,2024-01-23_07h56.25.379,bars,2023.2.3,Win32,59.52380952,657b66ea316d21385b68909f,,,,,,,,,,,1959.3794,1960.3769,,,1960.8769,1961.127,,105,105,,,,,,,,,,,,,,,,bars/039.png,bars/mask005.png,,,,,,,,,,,,2,2,,,,,,,4,2,3,2,,,,,,,,,,,1960.377,1960.8768,1961.127,1961.6952,space,0.5525,,1961.6953,70,0,1962.6937,1962.6938,1962.6954,,,,0,15,15,15,1,175,105,,,,,,,,
,,5f5bd225fc41a5384dce2d87,65af54659cebb2ff24f0996d,2024-01-23_07h56.25.379,bars,2023.2.3,Win32,59.52380952,657b66ea316d21385b68909f,,,,,,,,,,,1962.6958,1963.6933,,,1964.194,1964.4434,,77,77,,,,,,,,,,,,,,,,bars/031.png,bars/mask008.png,,,,,,,,,,,,0,2,,,,,,,2,4,3,5,,,,,,,,,,,1963.6935,1964.194,1964.4435,1966.0459,space,1.586,,1966.046,43,42,1967.0438,1967.0439,1967.0453,,,,0,16,16,16,1,120,35,,,,,,,,
,,5f5bd225fc41a5384dce2d87,65af54659cebb2ff24f0996d,2024-01-23_07h56.25.379,bars,2023.2.3,Win32,59.52380952,657b66ea316d21385b68909f,,,,,,,,,,,1967.0458,1968.044,,,1968.5442,1968.8003,,69,69,,,,,,,,,,,,,,,,bars/019.png,bars/mask009.png,,,,,,,,,,,,0,1,,,,,,,0,2,0,4,,,,,,,,,,,1968.0441,1968.5442,1968.8003,1972.1786,space,3.3687,,1972.1786,24,36,1973.176,1973.176,1973.1962,,,,0,17,17,17,1,45,105,,,,,,,,
,,5f5bd225fc41a5384dce2d87,65af54659cebb2ff24f0996d,2024-01-23_07h56.25.379,bars,2023.2.3,Win32,59.52380952,657b66ea316d21385b68909f,,,,,,,,,,,1973.1964,1974.1939,,,1974.6929,1974.9443,,108,108,,,,,,,,,,,,,,,,bars/042.png,bars/mask003.png,,,,,,,,,,,,0,2,,,,,,,0,0,2,1,,,,,,,,,,,1974.194,1974.6929,1974.9444,1978.7295,space,3.7693,,1978.7295,37,33,1979.728,1979.7282,1979.7483,,,,0,18,18,18,1,145,75,,,,,,,,
,,5f5bd225fc41a5384dce2d87,65af54659cebb2ff24f0996d,2024-01-23_07h56.25.379,bars,2023.2.3,Win32,59.52380952,657b66ea316d21385b68909f,,,,,,,,,,,1979.7487,1980.741,,,1981.2407,1981.4908,,91,91,,,,,,,,,,,,,,,,bars/041.png,bars/mask004.png,,,,,,,,,,,,0,2,,,,,,,0,0,1,0,,,,,,,,,,,1980.741,1981.2406,1981.4909,1984.5579,space,3.0567,,1984.558,71,6,1985.556,1985.5561,1985.5686,,,,0,19,19,19,1,20,85,,,,,,,,
,,5f5bd225fc41a5384dce2d87,65af54659cebb2ff24f0996d,2024-01-23_07h56.25.379,bars,2023.2.3,Win32,59.52380952,657b66ea316d21385b68909f,,,,,,,,,,,1985.5691,1986.5572,,,1987.0573,1987.3076,,49,49,,,,,,,,,,,,,,,,bars/041.png,bars/mask008.png,,,,,,,,,,,,0,1,,,,,,,2,2,3,2,,,,,,,,,,,1986.5573,1987.0572,1987.3079,1991.8578,space,4.5419,,1991.8579,29,36,1992.8578,1992.858,1992.8798,,,,0,20,20,20,1,20,85,,,,,,,,
,,5f5bd225fc41a5384dce2d87,65af54659cebb2ff24f0996d,2024-01-23_07h56.25.379,bars,2023.2.3,Win32,59.52380952,657b66ea316d21385b68909f,,,,,,,,,,,1992.8803,1993.8753,,,1994.3646,1994.6124,,82,82,,,,,,,,,,,,,,,,bars/021.png,bars/mask006.png,,,,,,,,,,,,0,2,,,,,,,0,0,0,0,,,,,,,,,,,1993.8753,1994.3646,1994.6124,1996.0469,space,1.4182,,1996.0469,73,12,1997.0459,1997.0461,1997.0493,,,,0,21,21,21,1,155,70,,,,,,,,
,,5f5bd225fc41a5384dce2d87,65af54659cebb2ff24f0996d,2024-01-23_07h56.25.379,bars,2023.2.3,Win32,59.52380952,657b66ea316d21385b68909f,,,,,,,,,,,1997.0497,1998.0467,,,1998.5458,1998.7915,,156,156,,,,,,,,,,,,,,,,bars/015.png,bars/mask009.png,,,,,,,,,,,,2,2,,,,,,,0,2,0,2,,,,,,,,,,,1998.0467,1998.5458,1998.7915,2002.7924,space,3.9851,,2002.7925,46,4,2003.7917,2003.7918,2003.8101,,,,0,22,22,22,1,110,160,,,,,,,,
,,5f5bd225fc41a5384dce2d87,65af54659cebb2ff24f0996d,2024-01-23_07h56.25.379,bars,2023.2.3,Win32,59.52380952,657b66ea316d21385b68909f,,,,,,,,,,,2003.8105,2004.8087,,,2005.3089,2005.5583,,123,123,,,,,,,,,,,,,,,,bars/005.png,bars/mask007.png,,,,,,,,,,,,3,2,,,,,,,2,4,2,6,,,,,,,,,,,2004.8089,2005.3087,2005.5586,2008.2265,space,2.6564,,2008.2265,67,17,2009.2251,2009.2254,2009.2445,,,,0,23,23,23,1,10,140,,,,,,,,
,,5f5bd225fc41a5384dce2d87,65af54659cebb2ff24f0996d,2024-01-23_07h56.25.379,bars,2023.2.3,Win32,59.52380952,657b66ea316d21385b68909f,,,,,,,,,,,2009.2448,2010.2419,,,2010.7427,2010.9928,,68,68,,,,,,,,,,,,,,,,bars/026.png,bars/mask000.png,,,,,,,,,,,,1,2,,,,,,,4,2,5,3,,,,,,,,,,,2010.2421,2010.7424,2010.9929,2013.7086,space,2.704,,2013.7087,33,17,2014.7082,2014.7083,2014.7282,,,,0,24,24,24,1,35,85,,,,,,,,
,,5f5bd225fc41a5384dce2d87,65af54659cebb2ff24f0996d,2024-01-23_07h56.25.379,bars,2023.2.3,Win32,59.52380952,657b66ea316d21385b68909f,,,,,,,,,,,2014.7286,2015.7256,,,2016.2272,2016.4748,,143,143,,,,,,,,,,,,,,,,bars/040.png,bars/mask000.png,,,,,,,,,,,,2,1,,,,,,,2,4,2,4,,,,,,,,,,,2015.7256,2016.2272,2016.4749,2020.6609,space,4.1795,,2020.6609,3,42,2021.6595,2021.6595,2021.6807,,,,0,25,25,25,1,140,5,,,,,,,,
,,5f5bd225fc41a5384dce2d87,65af54659cebb2ff24f0996d,2024-01-23_07h56.25.379,bars,2023.2.3,Win32,59.52380952,657b66ea316d21385b68909f,,,,,,,,,,,2021.681,2022.6766,,,2023.1765,2023.4264,,57,57,,,,,,,,,,,,,,,,bars/034.png,bars/mask004.png,,,,,,,,,,,,5,2,,,,,,,0,6,0,7,,,,,,,,,,,2022.6766,2023.1763,2023.4265,2026.6142,space,3.1792,,2026.6143,68,8,2027.6103,2027.6106,2027.632,,,,0,26,26,26,1,125,65,,,,,,,,
,,5f5bd225fc41a5384dce2d87,65af54659cebb2ff24f0996d,2024-01-23_07h56.25.379,bars,2023.2.3,Win32,59.52380952,657b66ea316d21385b68909f,,,,,,,,,,,2027.6327,2028.6309,,,2029.1316,2029.3812,,98,98,,,,,,,,,,,,,,,,bars/038.png,bars/mask000.png,,,,,,,,,,,,1,2,,,,,,,2,8,2,9,,,,,,,,,,,2028.6311,2029.1315,2029.3813,2033.5667,space,4.1692,,2033.5667,67,28,2034.5651,2034.5651,2034.5836,,,,0,27,27,27,1,165,70,,,,,,,,
,,5f5bd225fc41a5384dce2d87,65af54659cebb2ff24f0996d,2024-01-23_07h56.25.379,bars,2023.2.3,Win32,59.52380952,657b66ea316d21385b68909f,,,,,,,,,,,2034.5839,2035.5818,,,2036.0819,2036.3326,,134,134,,,,,,,,,,,,,,,,bars/004.png,bars/mask006.png,,,,,,,,,,,,4,2,,,,,,,0,6,0,5,,,,,,,,,,,2035.5819,2036.0819,2036.3327,2038.2336,space,1.8848,,2038.2337,71,9,2039.2321,2039.2321,2039.2499,,,,0,28,28,28,1,25,125,,,,,,,,
,,5f5bd225fc41a5384dce2d87,65af54659cebb2ff24f0996d,2024-01-23_07h56.25.379,bars,2023.2.3,Win32,59.52380952,657b66ea316d21385b68909f,,,,,,,,,,,2039.2503,2040.2491,,,2040.7492,2040.9993,,95,95,,,,,,,,,,,,,,,,bars/018.png,bars/mask008.png,,,,,,,,,,,,3,2,,,,,,,0,4,0,4,,,,,,,,,,,2040.2492,2040.7491,2040.9993,2042.3005,space,1.2856,,2042.3005,55,5,2043.2987,2043.2989,2043.3006,,,,0,29,29,29,1,150,90,,,,,,,,
,,5f5bd225fc41a5384dce2d87,65af54659cebb2ff24f0996d,2024-01-23_07h56.25.379,bars,2023.2.3,Win32,59.52380952,657b66ea316d21385b68909f,,,,,,,,,,,2043.3013,2044.299,,,2044.7991,2045.049,,123,123,,,,,,,,,,,,,,,,bars/032.png,bars/mask007.png,,,,,,,,,,,,2,1,,,,,,,2,6,2,7,,,,,,,,,,,2044.2991,2044.7991,2045.049,2050.151,space,5.086,,2050.151,2,77,2051.1497,2051.1497,2051.1714,,,,0,30,30,30,1,125,20,,,,,,,,
,,5f5bd225fc41a5384dce2d87,65af54659cebb2ff24f0996d,2024-01-23_07h56.25.379,bars,2023.2.3,Win32,59.52380952,657b66ea316d21385b68909f,,,,,,,,,,,2051.1717,2052.1635,,,2052.662,2052.9115,,143,143,,,,,,,,,,,,,,,,bars/031.png,bars/mask002.png,,,,,,,,,,,,0,1,,,,,,,0,4,0,4,,,,,,,,,,,2052.1636,2052.6619,2052.9116,2057.4957,space,4.5689,,2057.4958,23,72,2058.4964,2058.4965,2058.5155,,,,0,31,31,31,1,120,35,,,,,,,,
,,5f5bd225fc41a5384dce2d87,65af54659cebb2ff24f0996d,2024-01-23_07h56.25.379,bars,2023.2.3,Win32,59.52380952,657b66ea316d21385b68909f,,,,,,,,,,,2058.5159,2059.5134,,,2060.0134,2060.2639,,61,-119,,,,,,,,,,,,,,,,bars/021.png,bars/mask001.png,,,,,,,,,,,,4,2,,,,,,,2,6,2,5,,,,,,,,,,,2059.5135,2060.0134,2060.2641,2065.4458,space,5.1683,,2065.4461,86,9,2066.4462,2066.4462,2066.4683,,,,0,32,32,32,1,155,70,,,,,,,,
,,5f5bd225fc41a5384dce2d87,65af54659cebb2ff24f0996d,2024-01-23_07h56.25.379,bars,2023.2.3,Win32,59.52380952,657b66ea316d21385b68909f,,,,,,,,,,,2066.4688,2067.464,,,2067.9636,2068.2127,,118,118,,,,,,,,,,,,,,,,bars/009.png,bars/mask001.png,,,,,,,,,,,,3,2,,,,,,,4,4,4,5,,,,,,,,,,,2067.4641,2067.9635,2068.2129,2071.3819,space,3.1528,,2071.3819,77,13,2072.3812,2072.3813,2072.4008,,,,0,33,33,33,1,15,105,,,,,,,,
,,5f5bd225fc41a5384dce2d87,65af54659cebb2ff24f0996d,2024-01-23_07h56.25.379,bars,2023.2.3,Win32,59.52380952,657b66ea316d21385b68909f,,,,,,,,,,,2072.4012,2073.3982,,,2073.8978,2074.1477,,48,228,,,,,,,,,,,,,,,,bars/029.png,bars/mask000.png,,,,,,,,,,,,2,2,,,,,,,2,2,2,2,,,,,,,,,,,2073.3982,2073.8978,2074.1477,2077.1973,space,3.0342,,2077.1975,42,3,2078.1979,2078.198,2078.2179,,,,0,34,34,34,1,90,45,,,,,,,,
,,5f5bd225fc41a5384dce2d87,65af54659cebb2ff24f0996d,2024-01-23_07h56.25.379,bars,2023.2.3,Win32,59.52380952,657b66ea316d21385b68909f,,,,,,,,,,,2078.2182,2079.2162,,,2079.7151,2079.9641,,50,50,,,,,,,,,,,,,,,,bars/017.png,bars/mask000.png,,,,,,,,,,,,0,2,,,,,,,0,0,0,0,,,,,,,,,,,2079.2162,2079.7149,2079.9641,2082.451,space,2.4812,,2082.4511,85,5,2083.4516,2083.4516,2083.4702,,,,0,35,35,35,1,145,45,,,,,,,,
,,5f5bd225fc41a5384dce2d87,65af54659cebb2ff24f0996d,2024-01-23_07h56.25.379,bars,2023.2.3,Win32,59.52380952,657b66ea316d21385b68909f,,,,,,,,,,,2083.4705,2084.4684,,,2084.9688,2085.2184,,166,166,,,,,,,,,,,,,,,,bars/011.png,bars/mask006.png,,,,,,,,,,,,2,1,,,,,,,2,2,3,2,,,,,,,,,,,2084.4686,2084.9688,2085.2185,2087.4538,space,2.2191,,2087.454,6,81,2088.4518,2088.4519,2088.4554,,,,0,36,36,36,1,160,85,,,,,,,,
,,5f5bd225fc41a5384dce2d87,65af54659cebb2ff24f0996d,2024-01-23_07h56.25.379,bars,2023.2.3,Win32,59.52380952,657b66ea316d21385b68909f,,,,,,,,,,,2088.4558,2089.452,,,2089.9518,2090.202,,64,64,,,,,,,,,,,,,,,,bars/018.png,bars/mask000.png,,,,,,,,,,,,0,2,,,,,,,4,0,3,0,,,,,,,,,,,2089.4521,2089.9518,2090.202,2093.4874,space,3.2691,,2093.4874,86,26,2094.4857,2094.4857,2094.5054,,,,0,37,37,37,1,150,90,,,,,,,,
,,5f5bd225fc41a5384dce2d87,65af54659cebb2ff24f0996d,2024-01-23_07h56.25.379,bars,2023.2.3,Win32,59.52380952,657b66ea316d21385b68909f,,,,,,,,,,,2094.5057,2095.5027,,,2096.0015,2096.2522,,158,158,,,,,,,,,,,,,,,,bars/015.png,bars/mask008.png,,,,,,,,,,,,3,2,,,,,,,2,2,2,3,,,,,,,,,,,2095.503,2096.0014,2096.2522,2098.7524,space,2.4835,,2098.7525,48,2,2099.7527,2099.7528,2099.7686,,,,0,38,38,38,1,110,160,,,,,,,,
,,5f5bd225fc41a5384dce2d87,65af54659cebb2ff24f0996d,2024-01-23_07h56.25.379,bars,2023.2.3,Win32,59.52380952,657b66ea316d21385b68909f,,,,,,,,,,,2099.7698,2100.7694,,,2101.2697,2101.5194,,31,31,,,,,,,,,,,,,,,,bars/025.png,bars/mask001.png,,,,,,,,,,,,4,2,,,,,,,4,4,5,5,,,,,,,,,,,2100.7696,2101.2696,2101.5197,2102.8711,space,1.3353,,2102.8711,74,9,2103.8696,2103.8699,2103.8714,,,,0,39,39,39,1,105,40,,,,,,,,
,,5f5bd225fc41a5384dce2d87,65af54659cebb2ff24f0996d,2024-01-23_07h56.25.379,bars,2023.2.3,Win32,59.52380952,657b66ea316d21385b68909f,,,,,,,,,,,2103.8718,2104.8696,,,2105.3701,2105.6196,,134,134,,,,,,,,,,,,,,,,bars/028.png,bars/mask000.png,,,,,,,,,,,,1,2,,,,,,,6,2,6,1,,,,,,,,,,,2104.8697,2105.3701,2105.6196,2110.1223,space,4.4864,,2110.1224,89,14,2111.1158,2111.116,2111.1235,,,,0,40,40,40,1,45,120,,,,,,,,
,,5f5bd225fc41a5384dce2d87,65af54659cebb2ff24f0996d,2024-01-23_07h56.25.379,bars,2023.2.3,Win32,59.52380952,657b66ea316d21385b68909f,,,,,,,,,,,2111.1236,2112.1191,,,2112.6193,2112.8693,,165,165,,,,,,,,,,,,,,,,bars/040.png,bars/mask008.png,,,,,,,,,,,,1,2,,,,,,,4,4,3,4,,,,,,,,,,,2112.1192,2112.6193,2112.8693,2117.7227,space,4.8363,,2117.7227,25,20,2118.7205,2118.7205,2118.7379,,,,0,41,41,41,1,140,5,,,,,,,,
,,5f5bd225fc41a5384dce2d87,65af54659cebb2ff24f0996d,2024-01-23_07h56.25.379,bars,2023.2.3,Win32,59.52380952,657b66ea316d21385b68909f,,,,,,,,,,,2118.7382,2119.737,,,2120.2378,2120.4875,,147,147,,,,,,,,,,,,,,,,bars/047.png,bars/mask009.png,,,,,,,,,,,,0,1,,,,,,,6,2,5,1,,,,,,,,,,,2119.7372,2120.2378,2120.4875,2122.4563,space,1.9525,,2122.4565,48,77,2123.4544,2123.4545,2123.4741,,,,0,42,42,42,1,15,70,,,,,,,,
,,5f5bd225fc41a5384dce2d87,65af54659cebb2ff24f0996d,2024-01-23_07h56.25.379,bars,2023.2.3,Win32,59.52380952,657b66ea316d21385b68909f,,,,,,,,,,,2123.4746,2124.4707,,,2124.971,2125.2213,,60,60,,,,,,,,,,,,,,,,bars/035.png,bars/mask004.png,,,,,,,,,,,,0,2,,,,,,,8,0,8,0,,,,,,,,,,,2124.4708,2124.9708,2125.2213,2128.7059,space,3.4687,,2128.7059,65,0,2129.7044,2129.7045,2129.7243,,,,0,43,43,43,1,175,60,,,,,,,,
,,5f5bd225fc41a5384dce2d87,65af54659cebb2ff24f0996d,2024-01-23_07h56.25.379,bars,2023.2.3,Win32,59.52380952,657b66ea316d21385b68909f,,,,,,,,,,,2129.7247,2130.7183,,,2131.2199,2131.4677,,69,69,,,,,,,,,,,,,,,,bars/011.png,bars/mask005.png,,,,,,,,,,,,0,2,,,,,,,6,2,7,0,,,,,,,,,,,2130.7184,2131.2199,2131.4677,2134.1853,space,2.7066,,2134.1854,89,16,2135.1838,2135.1839,2135.2034,,,,0,44,44,44,1,160,85,,,,,,,,
,,5f5bd225fc41a5384dce2d87,65af54659cebb2ff24f0996d,2024-01-23_07h56.25.379,bars,2023.2.3,Win32,59.52380952,657b66ea316d21385b68909f,,,,,,,,,,,2135.2037,2136.2017,,,2136.7018,2136.9516,,113,113,,,,,,,,,,,,,,,,bars/007.png,bars/mask004.png,,,,,,,,,,,,0,2,,,,,,,4,4,5,5,,,,,,,,,,,2136.2018,2136.7018,2136.9516,2139.2868,space,2.319,,2139.2869,62,58,2140.2858,2140.2859,2140.3062,,,,0,45,45,45,1,175,55,,,,,,,,
,,5f5bd225fc41a5384dce2d87,65af54659cebb2ff24f0996d,2024-01-23_07h56.25.379,bars,2023.2.3,Win32,59.52380952,657b66ea316d21385b68909f,,,,,,,,,,,2140.3065,2141.3018,,,2141.8011,2142.0515,,170,-10,,,,,,,,,,,,,,,,bars/014.png,bars/mask004.png,,,,,,,,,,,,3,2,,,,,,,6,6,7,4,,,,,,,,,,,2141.3019,2141.8008,2142.0515,2144.7179,space,2.652,,2144.7182,90,10,2145.7221,2145.7221,2145.7405,,,,0,46,46,46,1,80,0,,,,,,,,
,,5f5bd225fc41a5384dce2d87,65af54659cebb2ff24f0996d,2024-01-23_07h56.25.379,bars,2023.2.3,Win32,59.52380952,657b66ea316d21385b68909f,,,,,,,,,,,2145.7409,2146.7396,,,2147.2392,2147.4893,,131,131,,,,,,,,,,,,,,,,bars/028.png,bars/mask006.png,,,,,,,,,,,,4,2,,,,,,,4,8,3,6,,,,,,,,,,,2146.7396,2147.2392,2147.4893,2149.641,space,2.1356,,2149.641,86,11,2150.6393,2150.6394,2150.6589,,,,0,47,47,47,1,45,120,,,,,,,,
,,5f5bd225fc41a5384dce2d87,65af54659cebb2ff24f0996d,2024-01-23_07h56.25.379,bars,2023.2.3,Win32,59.52380952,657b66ea316d21385b68909f,,,,,,,,,,,2150.6593,2151.6562,,,2152.1564,2152.4063,,64,64,,,,,,,,,,,,,,,,bars/046.png,bars/mask007.png,,,,,,,,,,,,3,2,,,,,,,6,10,7,10,,,,,,,,,,,2151.6565,2152.1563,2152.4065,2153.274,space,0.8517,,2153.2741,89,21,2154.2733,2154.2733,2154.2746,,,,0,48,48,48,1,155,85,,,,,,,,
,,5f5bd225fc41a5384dce2d87,65af54659cebb2ff24f0996d,2024-01-23_07h56.25.379,bars,2023.2.3,Win32,59.52380952,657b66ea316d21385b68909f,,,,,,,,,,,2154.2751,2155.2732,,,2155.7731,2156.023,,49,49,,,,,,,,,,,,,,,,bars/007.png,bars/mask001.png,,,,,,,,,,,,8,2,,,,,,,8,10,8,10,,,,,,,,,,,2155.2732,2155.773,2156.0232,2157.7246,space,1.685,,2157.7246,54,6,2158.7233,2158.7234,2158.7247,,,,0,49,49,49,1,175,55,,,,,,,,
,,5f5bd225fc41a5384dce2d87,65af54659cebb2ff24f0996d,2024-01-23_07h56.25.379,bars,2023.2.3,Win32,59.52380952,657b66ea316d21385b68909f,,,,,,,,,,,,,,,,,,,,,,,,,,,,,,,,,,,,,,,,,,,,,,,,,,,,,,,,,,,,,,,,,,,,,,,,,,,,,,,,,,,,,,,,,,,,,2158.725,2218.7233,0,2,2,0,1,sequence_tables/blk011.csv
,,5f5bd225fc41a5384dce2d87,65af54659cebb2ff24f0996d,2024-01-23_07h56.25.379,bars,2023.2.3,Win32,59.52380952,657b66ea316d21385b68909f,,,,,,,,,,,2322.4754,2323.4633,,,2323.9637,2324.2131,,43,43,,,,,,,,,,,,,,,,bars/018.png,bars/mask005.png,,,,,,,,,,,,0,2,,,,,,,9,7,10,7,,,,,,2218.7435,2322.4523,space,103.7023,,2323.4635,2323.9635,2324.2132,2327.4972,space,3.2693,,2327.4973,73,47,2328.4968,2328.497,2328.5164,,,,0,0,0,0,1,150,90,,,,,,,,
,,5f5bd225fc41a5384dce2d87,65af54659cebb2ff24f0996d,2024-01-23_07h56.25.379,bars,2023.2.3,Win32,59.52380952,657b66ea316d21385b68909f,,,,,,,,,,,2328.5169,2329.514,,,2330.0137,2330.2639,,154,154,,,,,,,,,,,,,,,,bars/038.png,bars/mask001.png,,,,,,,,,,,,4,1,,,,,,,7,5,7,4,,,,,,,,,,,2329.5141,2330.0136,2330.2642,2333.9812,space,3.702,,2333.9813,11,84,2334.9806,2334.9809,2335.002,,,,0,1,1,1,1,165,70,,,,,,,,
,,5f5bd225fc41a5384dce2d87,65af54659cebb2ff24f0996d,2024-01-23_07h56.25.379,bars,2023.2.3,Win32,59.52380952,657b66ea316d21385b68909f,,,,,,,,,,,2335.0025,2335.9974,,,2336.4978,2336.7476,,102,102,,,,,,,,,,,,,,,,bars/002.png,bars/mask001.png,,,,,,,,,,,,3,2,,,,,,,5,7,3,7,,,,,,,,,,,2335.9974,2336.4975,2336.748,2337.3978,space,0.635,,2337.398,28,17,2338.3977,2338.398,2338.4035,,,,0,2,2,2,1,130,85,,,,,,,,
,,5f5bd225fc41a5384dce2d87,65af54659cebb2ff24f0996d,2024-01-23_07h56.25.379,bars,2023.2.3,Win32,59.52380952,657b66ea316d21385b68909f,,,,,,,,,,,2338.404,2339.3977,,,2339.8978,2340.1479,,59,59,,,,,,,,,,,,,,,,bars/046.png,bars/mask004.png,,,,,,,,,,,,1,2,,,,,,,7,5,6,6,,,,,,,,,,,2339.3979,2339.8977,2340.1479,2341.5311,space,1.3674,,2341.5312,84,26,2342.5312,2342.5313,2342.5501,,,,0,3,3,3,1,155,85,,,,,,,,
,,5f5bd225fc41a5384dce2d87,65af54659cebb2ff24f0996d,2024-01-23_07h56.25.379,bars,2023.2.3,Win32,59.52380952,657b66ea316d21385b68909f,,,,,,,,,,,2342.5503,2343.5483,,,2344.0484,2344.2978,,163,163,,,,,,,,,,,,,,,,bars/033.png,bars/mask009.png,,,,,,,,,,,,5,2,,,,,,,9,7,9,7,,,,,,,,,,,2343.5489,2344.0481,2344.2979,2348.0978,space,3.7912,,2348.0979,42,8,2349.0983,2349.0985,2349.1179,,,,0,4,4,4,1,25,155,,,,,,,,
,,5f5bd225fc41a5384dce2d87,65af54659cebb2ff24f0996d,2024-01-23_07h56.25.379,bars,2023.2.3,Win32,59.52380952,657b66ea316d21385b68909f,,,,,,,,,,,2349.1183,2350.116,,,2350.6152,2350.8652,,166,-14,,,,,,,,,,,,,,,,bars/007.png,bars/mask002.png,,,,,,,,,,,,4,1,,,,,,,7,5,6,5,,,,,,,,,,,2350.116,2350.6149,2350.8653,2355.8989,space,5.0186,,2355.8991,9,69,2356.8989,2356.8992,2356.9209,,,,0,5,5,5,1,175,55,,,,,,,,
,,5f5bd225fc41a5384dce2d87,65af54659cebb2ff24f0996d,2024-01-23_07h56.25.379,bars,2023.2.3,Win32,59.52380952,657b66ea316d21385b68909f,,,,,,,,,,,2356.9213,2357.92,,,2358.4203,2358.67,,138,138,,,,,,,,,,,,,,,,bars/018.png,bars/mask008.png,,,,,,,,,,,,3,1,,,,,,,5,3,5,3,,,,,,,,,,,2357.9202,2358.4202,2358.67,2363.989,space,5.3032,,2363.9891,12,48,2364.9874,2364.9875,2365.0059,,,,0,6,6,6,1,150,90,,,,,,,,
,,5f5bd225fc41a5384dce2d87,65af54659cebb2ff24f0996d,2024-01-23_07h56.25.379,bars,2023.2.3,Win32,59.52380952,657b66ea316d21385b68909f,,,,,,,,,,,2365.0063,2366.004,,,2366.5037,2366.7543,,146,146,,,,,,,,,,,,,,,,bars/042.png,bars/mask006.png,,,,,,,,,,,,7,1,,,,,,,7,1,7,2,,,,,,,,,,,2366.004,2366.5036,2366.7543,2370.4055,space,3.6354,,2370.4056,1,71,2371.4045,2371.4045,2371.4259,,,,0,7,7,7,1,145,75,,,,,,,,
,,5f5bd225fc41a5384dce2d87,65af54659cebb2ff24f0996d,2024-01-23_07h56.25.379,bars,2023.2.3,Win32,59.52380952,657b66ea316d21385b68909f,,,,,,,,,,,2371.4269,2372.4169,,,2372.917,2373.1666,,61,61,,,,,,,,,,,,,,,,bars/013.png,bars/mask000.png,,,,,,,,,,,,5,1,,,,,,,9,3,9,3,,,,,,,,,,,2372.417,2372.9168,2373.1667,2376.3669,space,3.191,,2376.3669,14,51,2377.3668,2377.367,2377.392,,,,0,8,8,8,1,75,10,,,,,,,,
,,5f5bd225fc41a5384dce2d87,65af54659cebb2ff24f0996d,2024-01-23_07h56.25.379,bars,2023.2.3,Win32,59.52380952,657b66ea316d21385b68909f,,,,,,,,,,,2377.3924,2378.3878,,,2378.8882,2379.1382,,138,138,,,,,,,,,,,,,,,,bars/040.png,bars/mask007.png,,,,,,,,,,,,9,1,,,,,,,10,5,10,8,,,,,,,,,,,2378.388,2378.888,2379.1382,2382.2567,space,3.1022,,2382.2568,2,47,2383.2546,2383.2548,2383.2728,,,,0,9,9,9,1,140,5,,,,,,,,
,,5f5bd225fc41a5384dce2d87,65af54659cebb2ff24f0996d,2024-01-23_07h56.25.379,bars,2023.2.3,Win32,59.52380952,657b66ea316d21385b68909f,,,,,,,,,,,2383.2731,2384.271,,,2384.7719,2385.0219,,138,138,,,,,,,,,,,,,,,,bars/035.png,bars/mask000.png,,,,,,,,,,,,0,1,,,,,,,8,7,7,5,,,,,,,,,,,2384.271,2384.7718,2385.022,2386.7235,space,1.6852,,2386.7236,37,78,2387.7218,2387.7218,2387.7404,,,,0,10,10,10,1,175,60,,,,,,,,
,,5f5bd225fc41a5384dce2d87,65af54659cebb2ff24f0996d,2024-01-23_07h56.25.379,bars,2023.2.3,Win32,59.52380952,657b66ea316d21385b68909f,,,,,,,,,,,2387.7407,2388.7391,,,2389.2388,2389.4888,,38,38,,,,,,,,,,,,,,,,bars/039.png,bars/mask002.png,,,,,,,,,,,,0,1,,,,,,,10,5,10,5,,,,,,,,,,,2388.7391,2389.2388,2389.489,2389.9084,space,0.4038,,2389.9084,43,67,2390.9052,2390.9056,2390.907,,,,0,11,11,11,1,175,105,,,,,,,,
,,5f5bd225fc41a5384dce2d87,65af54659cebb2ff24f0996d,2024-01-23_07h56.25.379,bars,2023.2.3,Win32,59.52380952,657b66ea316d21385b68909f,,,,,,,,,,,2390.9073,2391.9055,,,2392.4072,2392.6557,,138,138,,,,,,,,,,,,,,,,bars/016.png,bars/mask006.png,,,,,,,,,,,,0,2,,,,,,,10,3,8,2,,,,,,,,,,,2391.9056,2392.4072,2392.6558,2392.9407,space,0.2689,,2392.9408,82,27,2393.9388,2393.939,2393.9418,,,,0,12,12,12,1,40,165,,,,,,,,
,,5f5bd225fc41a5384dce2d87,65af54659cebb2ff24f0996d,2024-01-23_07h56.25.379,bars,2023.2.3,Win32,59.52380952,657b66ea316d21385b68909f,,,,,,,,,,,2393.9422,2394.9391,,,2395.4398,2395.6886,,177,177,,,,,,,,,,,,,,,,bars/043.png,bars/mask000.png,,,,,,,,,,,,0,1,,,,,,,8,5,7,5,,,,,,,,,,,2394.9391,2395.4397,2395.6887,2397.2577,space,1.552,,2397.2578,33,47,2398.2561,2398.2564,2398.2598,,,,0,13,13,13,1,30,130,,,,,,,,
,,5f5bd225fc41a5384dce2d87,65af54659cebb2ff24f0996d,2024-01-23_07h56.25.379,bars,2023.2.3,Win32,59.52380952,657b66ea316d21385b68909f,,,,,,,,,,,2398.2603,2399.2561,,,2399.7561,2400.0061,,115,115,,,,,,,,,,,,,,,,bars/035.png,bars/mask006.png,,,,,,,,,,,,0,2,,,,,,,10,7,9,6,,,,,,,,,,,2399.2562,2399.756,2400.0062,2401.4583,space,1.4361,,2401.4584,60,55,2402.4562,2402.4563,2402.4597,,,,0,14,14,14,1,175,60,,,,,,,,
,,5f5bd225fc41a5384dce2d87,65af54659cebb2ff24f0996d,2024-01-23_07h56.25.379,bars,2023.2.3,Win32,59.52380952,657b66ea316d21385b68909f,,,,,,,,,,,2402.4601,2403.4566,,,2403.9526,2404.2067,,146,146,,,,,,,,,,,,,,,,bars/016.png,bars/mask000.png,,,,,,,,,,,,4,2,,,,,,,8,9,9,10,,,,,,,,,,,2403.4566,2403.9521,2404.2067,2405.2746,space,1.0513,,2405.2747,74,19,2406.2735,2406.2735,2406.2749,,,,0,15,15,15,1,40,165,,,,,,,,
,,5f5bd225fc41a5384dce2d87,65af54659cebb2ff24f0996d,2024-01-23_07h56.25.379,bars,2023.2.3,Win32,59.52380952,657b66ea316d21385b68909f,,,,,,,,,,,2406.2753,2407.2733,,,2407.7736,2408.0236,,125,125,,,,,,,,,,,,,,,,bars/002.png,bars/mask004.png,,,,,,,,,,,,5,1,,,,,,,6,10,6,10,,,,,,,,,,,2407.2733,2407.7736,2408.0237,2411.2758,space,3.2362,,2411.276,5,40,2412.2735,2412.2738,2412.2946,,,,0,16,16,16,1,130,85,,,,,,,,
,,5f5bd225fc41a5384dce2d87,65af54659cebb2ff24f0996d,2024-01-23_07h56.25.379,bars,2023.2.3,Win32,59.52380952,657b66ea316d21385b68909f,,,,,,,,,,,2412.295,2413.2905,,,2413.7906,2414.0407,,83,83,,,,,,,,,,,,,,,,bars/022.png,bars/mask000.png,,,,,,,,,,,,5,1,,,,,,,8,10,8,8,,,,,,,,,,,2413.2908,2413.7906,2414.0408,2416.3587,space,2.302,,2416.3588,12,63,2417.3573,2417.3573,2417.3757,,,,0,17,17,17,1,95,20,,,,,,,,
,,5f5bd225fc41a5384dce2d87,65af54659cebb2ff24f0996d,2024-01-23_07h56.25.379,bars,2023.2.3,Win32,59.52380952,657b66ea316d21385b68909f,,,,,,,,,,,2417.376,2418.3743,,,2418.8742,2419.1239,,145,145,,,,,,,,,,,,,,,,bars/044.png,bars/mask006.png,,,,,,,,,,,,7,2,,,,,,,10,10,10,10,,,,,,,,,,,2418.3744,2418.8742,2419.124,2424.0103,space,4.8699,,2424.0104,70,10,2425.0077,2425.0079,2425.0287,,,,0,18,18,18,1,75,155,,,,,,,,
,,5f5bd225fc41a5384dce2d87,65af54659cebb2ff24f0996d,2024-01-23_07h56.25.379,bars,2023.2.3,Win32,59.52380952,657b66ea316d21385b68909f,,,,,,,,,,,2425.0292,2426.0243,,,2426.5253,2426.7747,,73,73,,,,,,,,,,,,,,,,bars/042.png,bars/mask002.png,,,,,,,,,,,,9,2,,,,,,,8,10,8,10,,,,,,,,,,,2426.0243,2426.5252,2426.7748,2430.5082,space,3.7179,,2430.5083,72,2,2431.5086,2431.5086,2431.5277,,,,0,19,19,19,1,145,75,,,,,,,,
,,5f5bd225fc41a5384dce2d87,65af54659cebb2ff24f0996d,2024-01-23_07h56.25.379,bars,2023.2.3,Win32,59.52380952,657b66ea316d21385b68909f,,,,,,,,,,,2431.5283,2432.5248,,,2433.0251,2433.2752,,94,94,,,,,,,,,,,,,,,,bars/008.png,bars/mask008.png,,,,,,,,,,,,3,1,,,,,,,6,10,6,10,,,,,,,,,,,2432.525,2433.0251,2433.2753,2436.7771,space,3.486,,2436.7772,16,86,2437.7752,2437.7752,2437.7952,,,,0,20,20,20,1,110,0,,,,,,,,
,,5f5bd225fc41a5384dce2d87,65af54659cebb2ff24f0996d,2024-01-23_07h56.25.379,bars,2023.2.3,Win32,59.52380952,657b66ea316d21385b68909f,,,,,,,,,,,2437.7956,2438.7917,,,2439.2925,2439.5422,,113,113,,,,,,,,,,,,,,,,bars/023.png,bars/mask003.png,,,,,,,,,,,,9,2,,,,,,,8,10,10,10,,,,,,,,,,,2438.792,2439.2924,2439.5423,2440.7444,space,1.1858,,2440.7444,87,2,2441.7419,2441.7422,2441.7624,,,,0,21,21,21,1,20,115,,,,,,,,
,,5f5bd225fc41a5384dce2d87,65af54659cebb2ff24f0996d,2024-01-23_07h56.25.379,bars,2023.2.3,Win32,59.52380952,657b66ea316d21385b68909f,,,,,,,,,,,2441.7628,2442.759,,,2443.2593,2443.5094,,147,147,,,,,,,,,,,,,,,,bars/036.png,bars/mask000.png,,,,,,,,,,,,7,1,,,,,,,6,8,8,8,,,,,,,,,,,2442.7591,2443.2592,2443.5095,2448.5614,space,5.0357,,2448.5615,2,53,2449.5597,2449.5597,2449.5805,,,,0,22,22,22,1,145,20,,,,,,,,
,,5f5bd225fc41a5384dce2d87,65af54659cebb2ff24f0996d,2024-01-23_07h56.25.379,bars,2023.2.3,Win32,59.52380952,657b66ea316d21385b68909f,,,,,,,,,,,2449.5809,2450.5762,,,2451.0766,2451.3265,,40,40,,,,,,,,,,,,,,,,bars/044.png,bars/mask002.png,,,,,,,,,,,,0,1,,,,,,,8,10,7,9,,,,,,,,,,,2450.5763,2451.0762,2451.3267,2453.8448,space,2.5025,,2453.8448,35,65,2454.8432,2454.8434,2454.8615,,,,0,23,23,23,1,75,155,,,,,,,,
,,5f5bd225fc41a5384dce2d87,65af54659cebb2ff24f0996d,2024-01-23_07h56.25.379,bars,2023.2.3,Win32,59.52380952,657b66ea316d21385b68909f,,,,,,,,,,,2454.8617,2455.86,,,2456.3601,2456.6101,,143,143,,,,,,,,,,,,,,,,bars/017.png,bars/mask008.png,,,,,,,,,,,,7,1,,,,,,,6,10,7,10,,,,,,,,,,,2455.8603,2456.36,2456.6102,2458.9617,space,2.3358,,2458.9617,2,82,2459.9601,2459.9604,2459.9786,,,,0,24,24,24,1,145,45,,,,,,,,
,,5f5bd225fc41a5384dce2d87,65af54659cebb2ff24f0996d,2024-01-23_07h56.25.379,bars,2023.2.3,Win32,59.52380952,657b66ea316d21385b68909f,,,,,,,,,,,2459.9792,2460.9769,,,2461.4772,2461.7272,,118,118,,,,,,,,,,,,,,,,bars/032.png,bars/mask009.png,,,,,,,,,,,,3,1,,,,,,,4,8,4,8,,,,,,,,,,,2460.9773,2461.4771,2461.7273,2464.362,space,2.6191,,2464.3621,7,82,2465.3605,2465.3605,2465.3785,,,,0,25,25,25,1,125,20,,,,,,,,
,,5f5bd225fc41a5384dce2d87,65af54659cebb2ff24f0996d,2024-01-23_07h56.25.379,bars,2023.2.3,Win32,59.52380952,657b66ea316d21385b68909f,,,,,,,,,,,2465.379,2466.3772,,,2466.8777,2467.1275,,132,132,,,,,,,,,,,,,,,,bars/040.png,bars/mask004.png,,,,,,,,,,,,2,1,,,,,,,2,10,3,10,,,,,,,,,,,2466.3775,2466.8777,2467.1276,2470.8283,space,3.685,,2470.8284,8,53,2471.8276,2471.8277,2471.8459,,,,0,26,26,26,1,140,5,,,,,,,,
,,5f5bd225fc41a5384dce2d87,65af54659cebb2ff24f0996d,2024-01-23_07h56.25.379,bars,2023.2.3,Win32,59.52380952,657b66ea316d21385b68909f,,,,,,,,,,,2471.8466,2472.8443,,,2473.3449,2473.5946,,123,123,,,,,,,,,,,,,,,,bars/018.png,bars/mask007.png,,,,,,,,,,,,0,1,,,,,,,0,8,0,9,,,,,,,,,,,2472.8446,2473.3448,2473.5947,2476.7297,space,3.1185,,2476.7298,27,33,2477.7278,2477.728,2477.7459,,,,0,27,27,27,1,150,90,,,,,,,,
,,5f5bd225fc41a5384dce2d87,65af54659cebb2ff24f0996d,2024-01-23_07h56.25.379,bars,2023.2.3,Win32,59.52380952,657b66ea316d21385b68909f,,,,,,,,,,,2477.7462,2478.7447,,,2479.2451,2479.4946,,41,41,,,,,,,,,,,,,,,,bars/007.png,bars/mask008.png,,,,,,,,,,,,5,2,,,,,,,0,10,0,10,,,,,,,,,,,2478.7448,2479.245,2479.4947,2480.1637,space,0.6527,,2480.1637,46,14,2481.1614,2481.1615,2481.1652,,,,0,28,28,28,1,175,55,,,,,,,,
,,5f5bd225fc41a5384dce2d87,65af54659cebb2ff24f0996d,2024-01-23_07h56.25.379,bars,2023.2.3,Win32,59.52380952,657b66ea316d21385b68909f,,,,,,,,,,,2481.1656,2482.1617,,,2482.6616,2482.9116,,137,137,,,,,,,,,,,,,,,,bars/049.png,bars/mask009.png,,,,,,,,,,,,2,2,,,,,,,2,10,2,9,,,,,,,,,,,2482.1618,2482.6615,2482.9116,2485.6306,space,2.7023,,2485.6307,23,22,2486.6285,2486.6287,2486.6479,,,,0,29,29,29,1,160,115,,,,,,,,
,,5f5bd225fc41a5384dce2d87,65af54659cebb2ff24f0996d,2024-01-23_07h56.25.379,bars,2023.2.3,Win32,59.52380952,657b66ea316d21385b68909f,,,,,,,,,,,2486.6483,2487.6452,,,2488.1456,2488.3951,,7,7,,,,,,,,,,,,,,,,bars/033.png,bars/mask005.png,,,,,,,,,,,,0,1,,,,,,,0,8,0,8,,,,,,,,,,,2487.6454,2488.1454,2488.3953,2491.2129,space,2.8015,,2491.213,18,32,2492.2118,2492.2119,2492.2319,,,,0,30,30,30,1,25,155,,,,,,,,
,,5f5bd225fc41a5384dce2d87,65af54659cebb2ff24f0996d,2024-01-23_07h56.25.379,bars,2023.2.3,Win32,59.52380952,657b66ea316d21385b68909f,,,,,,,,,,,2492.2323,2493.2293,,,2493.7292,2493.9785,,131,131,,,,,,,,,,,,,,,,bars/025.png,bars/mask004.png,,,,,,,,,,,,0,1,,,,,,,2,10,3,9,,,,,,,,,,,2493.2293,2493.729,2493.9787,2494.8307,space,0.8356,,2494.8307,26,89,2495.8292,2495.8294,2495.8304,,,,0,31,31,31,1,105,40,,,,,,,,
,,5f5bd225fc41a5384dce2d87,65af54659cebb2ff24f0996d,2024-01-23_07h56.25.379,bars,2023.2.3,Win32,59.52380952,657b66ea316d21385b68909f,,,,,,,,,,,2495.8308,2496.829,,,2497.3294,2497.5795,,53,53,,,,,,,,,,,,,,,,bars/019.png,bars/mask005.png,,,,,,,,,,,,2,1,,,,,,,4,10,3,10,,,,,,,,,,,2496.8291,2497.3293,2497.5795,2500.5961,space,3.001,,2500.5961,8,52,2501.5959,2501.5961,2501.6142,,,,0,32,32,32,1,45,105,,,,,,,,
,,5f5bd225fc41a5384dce2d87,65af54659cebb2ff24f0996d,2024-01-23_07h56.25.379,bars,2023.2.3,Win32,59.52380952,657b66ea316d21385b68909f,,,,,,,,,,,2501.6146,2502.6133,,,2503.1131,2503.3627,,51,51,,,,,,,,,,,,,,,,bars/044.png,bars/mask001.png,,,,,,,,,,,,1,1,,,,,,,2,10,4,10,,,,,,,,,,,2502.6134,2503.113,2503.3628,2504.9818,space,1.6021,,2504.9819,24,76,2505.98,2505.9801,2505.9816,,,,0,33,33,33,1,75,155,,,,,,,,
,,5f5bd225fc41a5384dce2d87,65af54659cebb2ff24f0996d,2024-01-23_07h56.25.379,bars,2023.2.3,Win32,59.52380952,657b66ea316d21385b68909f,,,,,,,,,,,2505.9819,2506.9796,,,2507.4799,2507.7301,,139,139,,,,,,,,,,,,,,,,bars/001.png,bars/mask008.png,,,,,,,,,,,,0,1,,,,,,,0,8,0,8,,,,,,,,,,,2506.9799,2507.4799,2507.7301,2509.9483,space,2.2018,,2509.9483,9,54,2510.9467,2510.9472,2510.9658,,,,0,34,34,34,1,130,85,,,,,,,,
,,5f5bd225fc41a5384dce2d87,65af54659cebb2ff24f0996d,2024-01-23_07h56.25.379,bars,2023.2.3,Win32,59.52380952,657b66ea316d21385b68909f,,,,,,,,,,,2510.9662,2511.9637,,,2512.4635,2512.7137,,131,131,,,,,,,,,,,,,,,,bars/025.png,bars/mask009.png,,,,,,,,,,,,0,1,,,,,,,2,6,2,6,,,,,,,,,,,2511.964,2512.4634,2512.7138,2515.5146,space,2.7849,,2515.5148,26,89,2516.5103,2516.5104,2516.5289,,,,0,35,35,35,1,105,40,,,,,,,,
,,5f5bd225fc41a5384dce2d87,65af54659cebb2ff24f0996d,2024-01-23_07h56.25.379,bars,2023.2.3,Win32,59.52380952,657b66ea316d21385b68909f,,,,,,,,,,,2516.5294,2517.5315,,,2518.0304,2518.2805,,133,133,,,,,,,,,,,,,,,,bars/036.png,bars/mask006.png,,,,,,,,,,,,2,1,,,,,,,4,4,4,4,,,,,,,,,,,2517.5315,2518.0304,2518.2807,2520.5493,space,2.252,,2520.5493,12,67,2521.5476,2521.5479,2521.5661,,,,0,36,36,36,1,145,20,,,,,,,,
,,5f5bd225fc41a5384dce2d87,65af54659cebb2ff24f0996d,2024-01-23_07h56.25.379,bars,2023.2.3,Win32,59.52380952,657b66ea316d21385b68909f,,,,,,,,,,,2521.5665,2522.5644,,,2523.0642,2523.3146,,51,231,,,,,,,,,,,,,,,,bars/004.png,bars/mask001.png,,,,,,,,,,,,0,1,,,,,,,2,6,3,8,,,,,,,,,,,2522.5646,2523.0641,2523.3147,2527.283,space,3.9521,,2527.2831,26,74,2528.2814,2528.2815,2528.2997,,,,0,37,37,37,1,25,125,,,,,,,,
,,5f5bd225fc41a5384dce2d87,65af54659cebb2ff24f0996d,2024-01-23_07h56.25.379,bars,2023.2.3,Win32,59.52380952,657b66ea316d21385b68909f,,,,,,,,,,,2528.3001,2529.2984,,,2529.7983,2530.0482,,139,139,,,,,,,,,,,,,,,,bars/017.png,bars/mask008.png,,,,,,,,,,,,3,1,,,,,,,4,8,4,7,,,,,,,,,,,2529.2986,2529.798,2530.0483,2540.0338,space,9.9694,,2540.0339,6,86,2541.0274,2541.0277,2541.0468,,,,0,38,38,38,1,145,45,,,,,,,,
,,5f5bd225fc41a5384dce2d87,65af54659cebb2ff24f0996d,2024-01-23_07h56.25.379,bars,2023.2.3,Win32,59.52380952,657b66ea316d21385b68909f,,,,,,,,,,,2541.0472,2542.0491,,,2542.5493,2542.7991,,127,127,,,,,,,,,,,,,,,,bars/002.png,bars/mask002.png,,,,,,,,,,,,5,1,,,,,,,6,10,5,10,,,,,,,,,,,2542.0492,2542.5492,2542.7992,2545.7843,space,2.9692,,2545.7844,3,42,2546.7826,2546.7826,2546.8014,,,,0,39,39,39,1,130,85,,,,,,,,
,,5f5bd225fc41a5384dce2d87,65af54659cebb2ff24f0996d,2024-01-23_07h56.25.379,bars,2023.2.3,Win32,59.52380952,657b66ea316d21385b68909f,,,,,,,,,,,2546.8018,2547.7994,,,2548.2998,2548.5483,,55,55,,,,,,,,,,,,,,,,bars/026.png,bars/mask004.png,,,,,,,,,,,,2,1,,,,,,,8,8,6,8,,,,,,,,,,,2547.7995,2548.2997,2548.5483,2550.8177,space,2.2524,,2550.8178,20,30,2551.8165,2551.8166,2551.8343,,,,0,40,40,40,1,35,85,,,,,,,,
,,5f5bd225fc41a5384dce2d87,65af54659cebb2ff24f0996d,2024-01-23_07h56.25.379,bars,2023.2.3,Win32,59.52380952,657b66ea316d21385b68909f,,,,,,,,,,,2551.8346,2552.8331,,,2553.3333,2553.5836,,141,-39,,,,,,,,,,,,,,,,bars/049.png,bars/mask008.png,,,,,,,,,,,,2,1,,,,,,,6,6,5,6,,,,,,,,,,,2552.8331,2553.3332,2553.5837,2557.9182,space,4.3189,,2557.9183,19,26,2558.9166,2558.9169,2558.9354,,,,0,41,41,41,1,160,115,,,,,,,,
,,5f5bd225fc41a5384dce2d87,65af54659cebb2ff24f0996d,2024-01-23_07h56.25.379,bars,2023.2.3,Win32,59.52380952,657b66ea316d21385b68909f,,,,,,,,,,,2558.9358,2559.9335,,,2560.4333,2560.6831,,134,134,,,,,,,,,,,,,,,,bars/017.png,bars/mask008.png,,,,,,,,,,,,4,1,,,,,,,4,8,6,7,,,,,,,,,,,2559.9335,2560.4333,2560.6831,2563.652,space,2.9523,,2563.6521,11,89,2564.6504,2564.6505,2564.6691,,,,0,42,42,42,1,145,45,,,,,,,,
,,5f5bd225fc41a5384dce2d87,65af54659cebb2ff24f0996d,2024-01-23_07h56.25.379,bars,2023.2.3,Win32,59.52380952,657b66ea316d21385b68909f,,,,,,,,,,,2564.6699,2565.6677,,,2566.1678,2566.4171,,158,158,,,,,,,,,,,,,,,,bars/023.png,bars/mask001.png,,,,,,,,,,,,0,1,,,,,,,6,10,5,9,,,,,,,,,,,2565.6677,2566.1678,2566.4174,2567.1024,space,0.6687,,2567.1025,42,43,2568.1007,2568.1008,2568.1022,,,,0,43,43,43,1,20,115,,,,,,,,
,,5f5bd225fc41a5384dce2d87,65af54659cebb2ff24f0996d,2024-01-23_07h56.25.379,bars,2023.2.3,Win32,59.52380952,657b66ea316d21385b68909f,,,,,,,,,,,2568.1025,2569.1011,,,2569.6009,2569.8511,,34,34,,,,,,,,,,,,,,,,bars/016.png,bars/mask007.png,,,,,,,,,,,,3,1,,,,,,,4,8,4,6,,,,,,,,,,,2569.1011,2569.6009,2569.8512,2573.5127,space,3.6444,,2573.5127,6,49,2574.5123,2574.5124,2574.5306,,,,0,44,44,44,1,40,165,,,,,,,,
,,5f5bd225fc41a5384dce2d87,65af54659cebb2ff24f0996d,2024-01-23_07h56.25.379,bars,2023.2.3,Win32,59.52380952,657b66ea316d21385b68909f,,,,,,,,,,,2574.5309,2575.5339,,,2576.0341,2576.2838,,132,132,,,,,,,,,,,,,,,,bars/018.png,bars/mask006.png,,,,,,,,,,,,2,1,,,,,,,6,10,6,8,,,,,,,,,,,2575.5339,2576.034,2576.2838,2576.7792,space,0.474,,2576.7793,18,42,2577.7792,2577.7794,2577.7814,,,,0,45,45,45,1,150,90,,,,,,,,
,,5f5bd225fc41a5384dce2d87,65af54659cebb2ff24f0996d,2024-01-23_07h56.25.379,bars,2023.2.3,Win32,59.52380952,657b66ea316d21385b68909f,,,,,,,,,,,2577.7819,2578.7792,,,2579.2838,2579.5293,,80,80,,,,,,,,,,,,,,,,bars/040.png,bars/mask008.png,,,,,,,,,,,,0,1,,,,,,,8,10,9,10,,,,,,,,,,,2578.7793,2579.2837,2579.5294,2584.9138,space,5.3554,,2584.9139,60,75,2585.9137,2585.9137,2585.9283,,,,0,46,46,46,1,140,5,,,,,,,,
,,5f5bd225fc41a5384dce2d87,65af54659cebb2ff24f0996d,2024-01-23_07h56.25.379,bars,2023.2.3,Win32,59.52380952,657b66ea316d21385b68909f,,,,,,,,,,,2585.9285,2586.9335,,,2587.4303,2587.6795,,146,146,,,,,,,,,,,,,,,,bars/009.png,bars/mask008.png,,,,,,,,,,,,0,2,,,,,,,10,8,10,8,,,,,,,,,,,2586.9337,2587.4302,2587.6797,2588.3149,space,0.62,,2588.315,49,41,2589.3137,2589.3137,2589.3174,,,,0,47,47,47,1,15,105,,,,,,,,
,,5f5bd225fc41a5384dce2d87,65af54659cebb2ff24f0996d,2024-01-23_07h56.25.379,bars,2023.2.3,Win32,59.52380952,657b66ea316d21385b68909f,,,,,,,,,,,2589.3178,2590.313,,,2590.8139,2591.0633,,31,31,,,,,,,,,,,,,,,,bars/038.png,bars/mask006.png,,,,,,,,,,,,0,2,,,,,,,10,6,10,7,,,,,,,,,,,2590.3131,2590.8138,2591.0634,2596.2643,space,5.1923,,2596.2645,46,39,2597.2646,2597.2647,2597.2789,,,,0,48,48,48,1,165,70,,,,,,,,
,,5f5bd225fc41a5384dce2d87,65af54659cebb2ff24f0996d,2024-01-23_07h56.25.379,bars,2023.2.3,Win32,59.52380952,657b66ea316d21385b68909f,,,,,,,,,,,2597.2791,2598.281,,,2598.7811,2599.0313,,129,129,,,,,,,,,,,,,,,,bars/041.png,bars/mask004.png,,,,,,,,,,,,0,2,,,,,,,8,8,8,7,,,,,,,,,,,2598.281,2598.7811,2599.0313,2601.8821,space,2.8412,,2601.8823,71,44,2602.882,2602.8821,2602.9012,,,,0,49,49,49,1,20,85,,,,,,,,
,,5f5bd225fc41a5384dce2d87,65af54659cebb2ff24f0996d,2024-01-23_07h56.25.379,bars,2023.2.3,Win32,59.52380952,657b66ea316d21385b68909f,,,,,,,,,,,,,,,,,,,,,,,,,,,,,,,,,,,,,,,,,,,,,,,,,,,,,,,,,,,,,,,,,,,,,,,,,,,,,,,,,,,,,,,,,,,,,2602.9014,2662.8906,0,3,3,4,1,sequence_tables/blk032.csv
,,5f5bd225fc41a5384dce2d87,65af54659cebb2ff24f0996d,2024-01-23_07h56.25.379,bars,2023.2.3,Win32,59.52380952,657b66ea316d21385b68909f,,,,,,,,,,,2707.2485,2708.2235,,,2708.7232,2708.9739,,137,137,,,,,,,,,,,,,,,,bars/025.png,bars/mask008.png,,,,,,,,,,,,0,1,,,,,,,5,7,6,8,,,,,,2662.9094,2707.2228,space,44.3005,,2708.2236,2708.7231,2708.9741,2713.7238,space,4.7378,,2713.7239,32,83,2714.7238,2714.7239,2714.7459,,,,0,0,0,0,1,105,40,,,,,,,,
,,5f5bd225fc41a5384dce2d87,65af54659cebb2ff24f0996d,2024-01-23_07h56.25.379,bars,2023.2.3,Win32,59.52380952,657b66ea316d21385b68909f,,,,,,,,,,,2714.7464,2715.7394,,,2716.2394,2716.4899,,117,117,,,,,,,,,,,,,,,,bars/007.png,bars/mask000.png,,,,,,,,,,,,0,1,,,,,,,7,9,5,8,,,,,,,,,,,2715.7395,2716.2393,2716.49,2719.5096,space,3.0109,,2719.5096,58,62,2720.5062,2720.5065,2720.5256,,,,0,1,1,1,1,175,55,,,,,,,,
,,5f5bd225fc41a5384dce2d87,65af54659cebb2ff24f0996d,2024-01-23_07h56.25.379,bars,2023.2.3,Win32,59.52380952,657b66ea316d21385b68909f,,,,,,,,,,,2720.5259,2721.5232,,,2722.0321,2722.2745,,102,102,,,,,,,,,,,,,,,,bars/010.png,bars/mask001.png,,,,,,,,,,,,0,2,,,,,,,5,10,4,10,,,,,,,,,,,2721.5234,2722.0319,2722.2746,2723.3574,space,1.0715,,2723.3574,63,47,2724.3567,2724.3568,2724.3609,,,,0,2,2,2,1,165,55,,,,,,,,
,,5f5bd225fc41a5384dce2d87,65af54659cebb2ff24f0996d,2024-01-23_07h56.25.379,bars,2023.2.3,Win32,59.52380952,657b66ea316d21385b68909f,,,,,,,,,,,2724.3613,2725.3579,,,2725.8582,2726.1078,,51,51,,,,,,,,,,,,,,,,bars/019.png,bars/mask006.png,,,,,,,,,,,,2,1,,,,,,,3,10,2,9,,,,,,,,,,,2725.3581,2725.8581,2726.108,2731.8417,space,5.7202,,2731.8417,6,54,2732.8449,2732.8452,2732.8653,,,,0,3,3,3,1,45,105,,,,,,,,
,,5f5bd225fc41a5384dce2d87,65af54659cebb2ff24f0996d,2024-01-23_07h56.25.379,bars,2023.2.3,Win32,59.52380952,657b66ea316d21385b68909f,,,,,,,,,,,2732.8656,2733.8615,,,2734.3621,2734.6119,,114,114,,,,,,,,,,,,,,,,bars/039.png,bars/mask007.png,,,,,,,,,,,,7,2,,,,,,,1,10,0,10,,,,,,,,,,,2733.8617,2734.3621,2734.612,2735.5467,space,0.9185,,2735.5467,61,9,2736.5455,2736.5456,2736.5489,,,,0,4,4,4,1,175,105,,,,,,,,
,,5f5bd225fc41a5384dce2d87,65af54659cebb2ff24f0996d,2024-01-23_07h56.25.379,bars,2023.2.3,Win32,59.52380952,657b66ea316d21385b68909f,,,,,,,,,,,2736.5493,2737.545,,,2738.0459,2738.2954,,148,-32,,,,,,,,,,,,,,,,bars/049.png,bars/mask004.png,,,,,,,,,,,,1,1,,,,,,,0,10,1,10,,,,,,,,,,,2737.5451,2738.0456,2738.2955,2741.9472,space,3.6353,,2741.9473,12,33,2742.9459,2742.946,2742.966,,,,0,5,5,5,1,160,115,,,,,,,,
,,5f5bd225fc41a5384dce2d87,65af54659cebb2ff24f0996d,2024-01-23_07h56.25.379,bars,2023.2.3,Win32,59.52380952,657b66ea316d21385b68909f,,,,,,,,,,,2742.9663,2743.9626,,,2744.4625,2744.7122,,44,44,,,,,,,,,,,,,,,,bars/032.png,bars/mask009.png,,,,,,,,,,,,2,2,,,,,,,2,8,1,10,,,,,,,,,,,2743.9626,2744.4625,2744.7122,2748.5792,space,3.8506,,2748.5793,81,24,2749.5766,2749.5767,2749.5986,,,,0,6,6,6,1,125,20,,,,,,,,
,,5f5bd225fc41a5384dce2d87,65af54659cebb2ff24f0996d,2024-01-23_07h56.25.379,bars,2023.2.3,Win32,59.52380952,657b66ea316d21385b68909f,,,,,,,,,,,2749.599,2750.5929,,,2751.0919,2751.3433,,138,138,,,,,,,,,,,,,,,,bars/036.png,bars/mask004.png,,,,,,,,,,,,0,1,,,,,,,0,6,0,5,,,,,,,,,,,2750.5929,2751.0918,2751.3435,2753.9927,space,2.6355,,2753.9929,7,62,2754.9934,2754.9935,2755.0147,,,,0,7,7,7,1,145,20,,,,,,,,
,,5f5bd225fc41a5384dce2d87,65af54659cebb2ff24f0996d,2024-01-23_07h56.25.379,bars,2023.2.3,Win32,59.52380952,657b66ea316d21385b68909f,,,,,,,,,,,2755.015,2756.0099,,,2756.5099,2756.7602,,54,54,,,,,,,,,,,,,,,,bars/016.png,bars/mask009.png,,,,,,,,,,,,1,1,,,,,,,0,8,1,7,,,,,,,,,,,2756.0099,2756.5099,2756.7602,2759.2444,space,2.4731,,2759.2445,14,69,2760.2415,2760.2415,2760.2561,,,,0,8,8,8,1,40,165,,,,,,,,
,,5f5bd225fc41a5384dce2d87,65af54659cebb2ff24f0996d,2024-01-23_07h56.25.379,bars,2023.2.3,Win32,59.52380952,657b66ea316d21385b68909f,,,,,,,,,,,2760.2563,2761.2606,,,2761.7603,2762.0107,,128,128,,,,,,,,,,,,,,,,bars/045.png,bars/mask003.png,,,,,,,,,,,,0,1,,,,,,,0,6,0,5,,,,,,,,,,,2761.2608,2761.7603,2762.0109,2765.6455,space,3.622,,2765.6456,28,62,2766.644,2766.6441,2766.6655,,,,0,9,9,9,1,100,10,,,,,,,,
,,5f5bd225fc41a5384dce2d87,65af54659cebb2ff24f0996d,2024-01-23_07h56.25.379,bars,2023.2.3,Win32,59.52380952,657b66ea316d21385b68909f,,,,,,,,,,,2766.6659,2767.6618,,,2768.1602,2768.4102,,58,58,,,,,,,,,,,,,,,,bars/003.png,bars/mask009.png,,,,,,,,,,,,0,1,,,,,,,0,8,1,8,,,,,,,,,,,2767.6619,2768.1602,2768.4103,2770.379,space,1.952,,2770.3791,33,82,2771.3777,2771.3778,2771.3795,,,,0,10,10,10,1,25,140,,,,,,,,
