init_variables.started,init_variables.stopped,participant,session,date,expName,psychopyVersion,OS,frameRate,study_id,instruction_exp.started,instruction_exp.stopped,key_resp_8.keys,key_resp_8.rt,key_resp_8.duration,instruction_single.started,instruction_single.stopped,key_resp_2.keys,key_resp_2.rt,key_resp_2.duration,interval.started,interval.stopped,cue_single.started,cue_single.stopped,mask.started,mask.stopped,ori_response_single.started,res_ori,res,ori_response_single.stopped,key_resp_single.keys,key_resp_single.rt,key_resp_single.duration,disp_single.started,disp_single.stopped,key_resp.keys,key_resp.rt,key_resp.duration,single.thisRepN,single.thisTrialN,single.thisN,single.thisIndex,single.ran,ori,path,mask_path,instruction_bandit.started,instruction_bandit.stopped,key_resp_6.keys,key_resp_6.rt,key_resp_6.duration,cue_bandit.started,cue_bandit.stopped,bandit_res.keys,bandit_res.rt,bandit_res.duration,outcome_bandit.started,rew,action,outcome_bandit.stopped,bandit.thisRepN,bandit.thisTrialN,bandit.thisN,bandit.thisIndex,bandit.ran,actual_rew1,actual_rew2,rew1,rew2,instruction_task.started,instruction_task.stopped,key_resp_7.keys,key_resp_7.rt,key_resp_7.duration,wait_ready.started,wait_ready.stopped,key_resp_3.keys,key_resp_3.rt,key_resp_3.duration,cue.started,cue.stopped,ori_response.started,ori_response.stopped,key_resp_5.keys,key_resp_5.rt,key_resp_5.duration,outcome.started,diff1,diff2,outcome.stopped,disp_outcome_practice.started,disp_outcome_practice.stopped,key_resp_4.keys,key_resp_4.rt,key_resp_4.duration,trials.thisRepN,trials.thisTrialN,trials.thisN,trials.thisIndex,trials.ran,ori1,ori2,break_blk.started,break_blk.stopped,block.thisRepN,block.thisTrialN,block.thisN,block.thisIndex,block.ran,condition_file
0.0003,0.0003,60ca4fc2b4b076bcf1454ab8,65af568451c2a1f8263dc840,2024-01-23_08h04.55.879,bars,2023.2.3,Win32,60.24096386,657b66ea316d21385b68909f,,,,,,,,,,,,,,,,,,,,,,,,,,,,,,,,,,,,,,,,,,,,,,,,,,,,,,,,,,,,,,,,,,,,,,,,,,,,,,,,,,,,,,,,,,,,,,,,,,,,
,,60ca4fc2b4b076bcf1454ab8,65af568451c2a1f8263dc840,2024-01-23_08h04.55.879,bars,2023.2.3,Win32,60.24096386,657b66ea316d21385b68909f,0.0004,6.1902,y,6.181,,,,,,,,,,,,,,,,,,,,,,,,,,,,,,,,,,,,,,,,,,,,,,,,,,,,,,,,,,,,,,,,,,,,,,,,,,,,,,,,,,,,,,,,,,,,,,,,
,,60ca4fc2b4b076bcf1454ab8,65af568451c2a1f8263dc840,2024-01-23_08h04.55.879,bars,2023.2.3,Win32,60.24096386,657b66ea316d21385b68909f,,,,,,6.1907,18.8196,space,12.6112,,,,,,,,,,,,,,,,,,,,,,,,,,,,,,,,,,,,,,,,,,,,,,,,,,,,,,,,,,,,,,,,,,,,,,,,,,,,,,,,,,,,,,,,,,,
,,60ca4fc2b4b076bcf1454ab8,65af568451c2a1f8263dc840,2024-01-23_08h04.55.879,bars,2023.2.3,Win32,60.24096386,657b66ea316d21385b68909f,,,,,,,,,,,18.8248,19.8259,19.8264,20.3255,20.326,20.5755,20.5759,179,179,40.2742,space,19.6605,,40.2748,46.7333,space,6.4171,,0,0,0,9,1,20,bars/single009.png,bars/mask006.png,,,,,,,,,,,,,,,,,,,,,,,,,,,,,,,,,,,,,,,,,,,,,,,,,,,,,,,,,,,,,,,,
,,60ca4fc2b4b076bcf1454ab8,65af568451c2a1f8263dc840,2024-01-23_08h04.55.879,bars,2023.2.3,Win32,60.24096386,657b66ea316d21385b68909f,,,,,,,,,,,46.7522,47.7474,47.7476,48.2475,48.2475,48.4969,48.497,158,158,56.9725,space,8.4601,,56.9727,59.47,space,2.4605,,0,1,1,5,1,55,bars/single005.png,bars/mask008.png,,,,,,,,,,,,,,,,,,,,,,,,,,,,,,,,,,,,,,,,,,,,,,,,,,,,,,,,,,,,,,,,
,,60ca4fc2b4b076bcf1454ab8,65af568451c2a1f8263dc840,2024-01-23_08h04.55.879,bars,2023.2.3,Win32,60.24096386,657b66ea316d21385b68909f,,,,,,,,,,,59.471,60.4687,60.4688,60.9677,60.9678,61.2182,61.2182,89,89,67.2458,space,6.0102,,67.2459,70.4588,space,3.1766,,0,2,2,4,1,95,bars/single004.png,bars/mask004.png,,,,,,,,,,,,,,,,,,,,,,,,,,,,,,,,,,,,,,,,,,,,,,,,,,,,,,,,,,,,,,,,
,,60ca4fc2b4b076bcf1454ab8,65af568451c2a1f8263dc840,2024-01-23_08h04.55.879,bars,2023.2.3,Win32,60.24096386,657b66ea316d21385b68909f,,,,,,,,,,,70.4591,71.4578,71.4578,71.9575,71.9575,72.2073,72.2074,13,13,74.4221,space,2.1987,,74.4222,78.0517,space,3.6089,,0,3,3,3,1,20,bars/single003.png,bars/mask005.png,,,,,,,,,,,,,,,,,,,,,,,,,,,,,,,,,,,,,,,,,,,,,,,,,,,,,,,,,,,,,,,,
,,60ca4fc2b4b076bcf1454ab8,65af568451c2a1f8263dc840,2024-01-23_08h04.55.879,bars,2023.2.3,Win32,60.24096386,657b66ea316d21385b68909f,,,,,,,,,,,78.0727,79.0674,79.0675,79.5668,79.5669,79.8163,79.8164,156,156,84.0291,space,4.1978,,84.0292,88.4246,space,4.3669,,0,4,4,1,1,20,bars/single001.png,bars/mask006.png,,,,,,,,,,,,,,,,,,,,,,,,,,,,,,,,,,,,,,,,,,,,,,,,,,,,,,,,,,,,,,,,
,,60ca4fc2b4b076bcf1454ab8,65af568451c2a1f8263dc840,2024-01-23_08h04.55.879,bars,2023.2.3,Win32,60.24096386,657b66ea316d21385b68909f,,,,,,,,,,,88.4435,89.4401,89.4401,89.9392,89.9393,90.1896,90.1896,0,180,94.1859,space,3.9889,,94.1861,97.4992,space,3.2817,,0,5,5,6,1,175,bars/single006.png,bars/mask005.png,,,,,,,,,,,,,,,,,,,,,,,,,,,,,,,,,,,,,,,,,,,,,,,,,,,,,,,,,,,,,,,,
,,60ca4fc2b4b076bcf1454ab8,65af568451c2a1f8263dc840,2024-01-23_08h04.55.879,bars,2023.2.3,Win32,60.24096386,657b66ea316d21385b68909f,,,,,,,,,,,97.5119,98.5146,98.5147,99.0146,99.0146,99.2639,99.2639,16,16,99.9139,space,0.6432,,99.914,103.0104,space,3.086,,0,6,6,7,1,45,bars/single007.png,bars/mask009.png,,,,,,,,,,,,,,,,,,,,,,,,,,,,,,,,,,,,,,,,,,,,,,,,,,,,,,,,,,,,,,,,
,,60ca4fc2b4b076bcf1454ab8,65af568451c2a1f8263dc840,2024-01-23_08h04.55.879,bars,2023.2.3,Win32,60.24096386,657b66ea316d21385b68909f,,,,,,,,,,,103.0112,104.0097,104.0097,104.509,104.5091,104.7589,104.759,179,179,106.8902,space,2.1184,,106.8902,109.0047,space,2.1009,,0,7,7,2,1,145,bars/single002.png,bars/mask003.png,,,,,,,,,,,,,,,,,,,,,,,,,,,,,,,,,,,,,,,,,,,,,,,,,,,,,,,,,,,,,,,,
,,60ca4fc2b4b076bcf1454ab8,65af568451c2a1f8263dc840,2024-01-23_08h04.55.879,bars,2023.2.3,Win32,60.24096386,657b66ea316d21385b68909f,,,,,,,,,,,109.0054,110.0036,110.0037,110.5031,110.5031,110.7525,110.7525,175,-5,119.5448,space,8.7753,,119.5449,120.7095,space,1.1333,,0,8,8,0,1,150,bars/single000.png,bars/mask006.png,,,,,,,,,,,,,,,,,,,,,,,,,,,,,,,,,,,,,,,,,,,,,,,,,,,,,,,,,,,,,,,,
,,60ca4fc2b4b076bcf1454ab8,65af568451c2a1f8263dc840,2024-01-23_08h04.55.879,bars,2023.2.3,Win32,60.24096386,657b66ea316d21385b68909f,,,,,,,,,,,120.7101,121.7091,121.7092,122.2079,122.2079,122.458,122.4581,171,171,128.1693,space,5.7046,,128.1693,130.8835,space,2.6855,,0,9,9,8,1,160,bars/single008.png,bars/mask004.png,,,,,,,,,,,,,,,,,,,,,,,,,,,,,,,,,,,,,,,,,,,,,,,,,,,,,,,,,,,,,,,,
,,60ca4fc2b4b076bcf1454ab8,65af568451c2a1f8263dc840,2024-01-23_08h04.55.879,bars,2023.2.3,Win32,60.24096386,657b66ea316d21385b68909f,,,,,,,,,,,,,,,,,,,,,,,,,,,,,,,,,,,,,130.8851,145.5038,space,14.5932,,,,,,,,,,,,,,,,,,,,,,,,,,,,,,,,,,,,,,,,,,,,,,,,,,,,,,,,,,,,
,,60ca4fc2b4b076bcf1454ab8,65af568451c2a1f8263dc840,2024-01-23_08h04.55.879,bars,2023.2.3,Win32,60.24096386,657b66ea316d21385b68909f,,,,,,,,,,,,,,,,,,,,,,,,,,,,,,,,,,,,,,,,,,145.5263,148.1002,left,2.553,,148.1007,9,1,149.0984,0,0,0,0,1,9,1,9,2,,,,,,,,,,,,,,,,,,,,,,,,,,,,,,,,,,,,,,,,,
,,60ca4fc2b4b076bcf1454ab8,65af568451c2a1f8263dc840,2024-01-23_08h04.55.879,bars,2023.2.3,Win32,60.24096386,657b66ea316d21385b68909f,,,,,,,,,,,,,,,,,,,,,,,,,,,,,,,,,,,,,,,,,,149.0989,149.948,right,0.8391,,149.9481,1,2,150.9469,0,1,1,1,1,10,0,10,1,,,,,,,,,,,,,,,,,,,,,,,,,,,,,,,,,,,,,,,,,
,,60ca4fc2b4b076bcf1454ab8,65af568451c2a1f8263dc840,2024-01-23_08h04.55.879,bars,2023.2.3,Win32,60.24096386,657b66ea316d21385b68909f,,,,,,,,,,,,,,,,,,,,,,,,,,,,,,,,,,,,,,,,,,150.9477,151.4124,left,0.4554,,151.4125,10,1,152.4121,0,2,2,2,1,10,2,10,2,,,,,,,,,,,,,,,,,,,,,,,,,,,,,,,,,,,,,,,,,
,,60ca4fc2b4b076bcf1454ab8,65af568451c2a1f8263dc840,2024-01-23_08h04.55.879,bars,2023.2.3,Win32,60.24096386,657b66ea316d21385b68909f,,,,,,,,,,,,,,,,,,,,,,,,,,,,,,,,,,,,,,,,,,152.4127,152.9783,left,0.5497,,152.9784,7,1,153.9774,0,3,3,3,1,8,4,7,3,,,,,,,,,,,,,,,,,,,,,,,,,,,,,,,,,,,,,,,,,
,,60ca4fc2b4b076bcf1454ab8,65af568451c2a1f8263dc840,2024-01-23_08h04.55.879,bars,2023.2.3,Win32,60.24096386,657b66ea316d21385b68909f,,,,,,,,,,,,,,,,,,,,,,,,,,,,,,,,,,,,,,,,,,153.9783,154.6927,right,0.6971,,154.6928,1,2,155.6919,0,4,4,4,1,6,2,5,1,,,,,,,,,,,,,,,,,,,,,,,,,,,,,,,,,,,,,,,,,
,,60ca4fc2b4b076bcf1454ab8,65af568451c2a1f8263dc840,2024-01-23_08h04.55.879,bars,2023.2.3,Win32,60.24096386,657b66ea316d21385b68909f,,,,,,,,,,,,,,,,,,,,,,,,,,,,,,,,,,,,,,,,,,155.6924,156.2585,left,0.5532,,156.2585,4,1,157.2572,0,5,5,5,1,4,4,4,4,,,,,,,,,,,,,,,,,,,,,,,,,,,,,,,,,,,,,,,,,
,,60ca4fc2b4b076bcf1454ab8,65af568451c2a1f8263dc840,2024-01-23_08h04.55.879,bars,2023.2.3,Win32,60.24096386,657b66ea316d21385b68909f,,,,,,,,,,,,,,,,,,,,,,,,,,,,,,,,,,,,,,,,,,157.2577,158.2397,left,0.9651,,158.2398,1,1,159.2389,0,6,6,6,1,2,2,1,2,,,,,,,,,,,,,,,,,,,,,,,,,,,,,,,,,,,,,,,,,
,,60ca4fc2b4b076bcf1454ab8,65af568451c2a1f8263dc840,2024-01-23_08h04.55.879,bars,2023.2.3,Win32,60.24096386,657b66ea316d21385b68909f,,,,,,,,,,,,,,,,,,,,,,,,,,,,,,,,,,,,,,,,,,159.2395,159.5716,right,0.3148,,159.5716,1,2,160.571,0,7,7,7,1,0,0,0,1,,,,,,,,,,,,,,,,,,,,,,,,,,,,,,,,,,,,,,,,,
,,60ca4fc2b4b076bcf1454ab8,65af568451c2a1f8263dc840,2024-01-23_08h04.55.879,bars,2023.2.3,Win32,60.24096386,657b66ea316d21385b68909f,,,,,,,,,,,,,,,,,,,,,,,,,,,,,,,,,,,,,,,,,,160.5717,161.3035,right,0.7145,,161.3037,0,2,162.3025,0,8,8,8,1,0,2,1,0,,,,,,,,,,,,,,,,,,,,,,,,,,,,,,,,,,,,,,,,,
,,60ca4fc2b4b076bcf1454ab8,65af568451c2a1f8263dc840,2024-01-23_08h04.55.879,bars,2023.2.3,Win32,60.24096386,657b66ea316d21385b68909f,,,,,,,,,,,,,,,,,,,,,,,,,,,,,,,,,,,,,,,,,,162.3032,162.9184,right,0.5983,,162.9185,3,2,163.9174,0,9,9,9,1,2,4,2,3,,,,,,,,,,,,,,,,,,,,,,,,,,,,,,,,,,,,,,,,,
,,60ca4fc2b4b076bcf1454ab8,65af568451c2a1f8263dc840,2024-01-23_08h04.55.879,bars,2023.2.3,Win32,60.24096386,657b66ea316d21385b68909f,,,,,,,,,,,,,,,,,,,,,,,,,,,,,,,,,,,,,,,,,,163.9182,164.2172,left,0.283,,164.2173,0,1,165.216,0,10,10,10,1,0,2,0,3,,,,,,,,,,,,,,,,,,,,,,,,,,,,,,,,,,,,,,,,,
,,60ca4fc2b4b076bcf1454ab8,65af568451c2a1f8263dc840,2024-01-23_08h04.55.879,bars,2023.2.3,Win32,60.24096386,657b66ea316d21385b68909f,,,,,,,,,,,,,,,,,,,,,,,,,,,,,,,,,,,,,,,,,,165.2167,165.6988,left,0.4744,,165.6988,0,1,166.698,0,11,11,11,1,0,4,0,3,,,,,,,,,,,,,,,,,,,,,,,,,,,,,,,,,,,,,,,,,
,,60ca4fc2b4b076bcf1454ab8,65af568451c2a1f8263dc840,2024-01-23_08h04.55.879,bars,2023.2.3,Win32,60.24096386,657b66ea316d21385b68909f,,,,,,,,,,,,,,,,,,,,,,,,,,,,,,,,,,,,,,,,,,166.6986,167.0647,right,0.3482,,167.0647,6,2,168.0636,0,12,12,12,1,2,6,1,6,,,,,,,,,,,,,,,,,,,,,,,,,,,,,,,,,,,,,,,,,
,,60ca4fc2b4b076bcf1454ab8,65af568451c2a1f8263dc840,2024-01-23_08h04.55.879,bars,2023.2.3,Win32,60.24096386,657b66ea316d21385b68909f,,,,,,,,,,,,,,,,,,,,,,,,,,,,,,,,,,,,,,,,,,168.0642,168.3963,left,0.3233,,168.3964,1,1,169.3953,0,13,13,13,1,0,4,1,3,,,,,,,,,,,,,,,,,,,,,,,,,,,,,,,,,,,,,,,,,
,,60ca4fc2b4b076bcf1454ab8,65af568451c2a1f8263dc840,2024-01-23_08h04.55.879,bars,2023.2.3,Win32,60.24096386,657b66ea316d21385b68909f,,,,,,,,,,,,,,,,,,,,,,,,,,,,,,,,,,,,,,,,,,169.3959,169.645,right,0.2383,,169.6451,7,2,170.6446,0,14,14,14,1,2,6,2,7,,,,,,,,,,,,,,,,,,,,,,,,,,,,,,,,,,,,,,,,,
,,60ca4fc2b4b076bcf1454ab8,65af568451c2a1f8263dc840,2024-01-23_08h04.55.879,bars,2023.2.3,Win32,60.24096386,657b66ea316d21385b68909f,,,,,,,,,,,,,,,,,,,,,,,,,,,,,,,,,,,,,,,,,,170.6452,170.9441,right,0.2818,,170.9442,9,2,171.9429,0,15,15,15,1,4,8,3,9,,,,,,,,,,,,,,,,,,,,,,,,,,,,,,,,,,,,,,,,,
,,60ca4fc2b4b076bcf1454ab8,65af568451c2a1f8263dc840,2024-01-23_08h04.55.879,bars,2023.2.3,Win32,60.24096386,657b66ea316d21385b68909f,,,,,,,,,,,,,,,,,,,,,,,,,,,,,,,,,,,,,,,,,,171.9435,172.426,right,0.4738,,172.4261,7,2,173.425,0,16,16,16,1,6,6,7,7,,,,,,,,,,,,,,,,,,,,,,,,,,,,,,,,,,,,,,,,,
,,60ca4fc2b4b076bcf1454ab8,65af568451c2a1f8263dc840,2024-01-23_08h04.55.879,bars,2023.2.3,Win32,60.24096386,657b66ea316d21385b68909f,,,,,,,,,,,,,,,,,,,,,,,,,,,,,,,,,,,,,,,,,,173.4257,173.9911,right,0.5535,,173.9912,5,2,174.9902,0,17,17,17,1,8,4,9,5,,,,,,,,,,,,,,,,,,,,,,,,,,,,,,,,,,,,,,,,,
,,60ca4fc2b4b076bcf1454ab8,65af568451c2a1f8263dc840,2024-01-23_08h04.55.879,bars,2023.2.3,Win32,60.24096386,657b66ea316d21385b68909f,,,,,,,,,,,,,,,,,,,,,,,,,,,,,,,,,,,,,,,,,,174.991,175.623,right,0.6187,,175.6231,1,2,176.6219,0,18,18,18,1,6,2,5,1,,,,,,,,,,,,,,,,,,,,,,,,,,,,,,,,,,,,,,,,,
,,60ca4fc2b4b076bcf1454ab8,65af568451c2a1f8263dc840,2024-01-23_08h04.55.879,bars,2023.2.3,Win32,60.24096386,657b66ea316d21385b68909f,,,,,,,,,,,,,,,,,,,,,,,,,,,,,,,,,,,,,,,,,,176.6225,177.0206,left,0.3885,,177.0206,7,1,178.0205,0,19,19,19,1,8,0,7,0,,,,,,,,,,,,,,,,,,,,,,,,,,,,,,,,,,,,,,,,,
,,60ca4fc2b4b076bcf1454ab8,65af568451c2a1f8263dc840,2024-01-23_08h04.55.879,bars,2023.2.3,Win32,60.24096386,657b66ea316d21385b68909f,,,,,,,,,,,,,,,,,,,,,,,,,,,,,,,,,,,,,,,,,,,,,,,,,,,,,,,,,,,,178.0219,179.2193,space,1.1831,,,,,,,,,,,,,,,,,,,,,,,,,,,,,,,,,,,,,
,,60ca4fc2b4b076bcf1454ab8,65af568451c2a1f8263dc840,2024-01-23_08h04.55.879,bars,2023.2.3,Win32,60.24096386,657b66ea316d21385b68909f,,,,,,,,,,,179.9453,180.9343,,,181.4344,181.6833,,129,129,,,,,,,,,,,,,,,,bars/040.png,bars/mask001.png,,,,,,,,,,,,6,1,,,,,,,9,4,9,4,,,,,,179.2248,179.9355,space,0.6936,,180.9347,181.4342,181.6836,184.5977,space,2.904,,184.5982,11,56,185.597,185.5977,194.7566,space,9.124,,0,0,0,0,1,140,5,,,,,,,,
,,60ca4fc2b4b076bcf1454ab8,65af568451c2a1f8263dc840,2024-01-23_08h04.55.879,bars,2023.2.3,Win32,60.24096386,657b66ea316d21385b68909f,,,,,,,,,,,194.7784,195.7697,,,196.2572,196.5028,,132,132,,,,,,,,,,,,,,,,bars/034.png,bars/mask005.png,,,,,,,,,,,,8,1,,,,,,,10,6,10,6,,,,,,,,,,,195.77,196.2571,196.5031,202.8299,space,6.3035,,202.8303,7,67,203.8285,203.8287,205.6769,space,1.8154,,0,1,1,1,1,125,65,,,,,,,,
,,60ca4fc2b4b076bcf1454ab8,65af568451c2a1f8263dc840,2024-01-23_08h04.55.879,bars,2023.2.3,Win32,60.24096386,657b66ea316d21385b68909f,,,,,,,,,,,205.6779,206.6754,,,207.1796,207.4251,,44,44,,,,,,,,,,,,,,,,bars/000.png,bars/mask009.png,,,,,,,,,,,,7,1,,,,,,,8,4,8,5,,,,,,,,,,,206.6755,207.1795,207.4252,212.1372,space,4.6795,,212.1373,4,79,213.1359,213.136,215.7001,space,2.5331,,0,2,2,2,1,40,145,,,,,,,,
,,60ca4fc2b4b076bcf1454ab8,65af568451c2a1f8263dc840,2024-01-23_08h04.55.879,bars,2023.2.3,Win32,60.24096386,657b66ea316d21385b68909f,,,,,,,,,,,215.7139,216.7199,,,217.2158,217.4527,,18,18,,,,,,,,,,,,,,,,bars/035.png,bars/mask008.png,,,,,,,,,,,,1,1,,,,,,,6,6,6,7,,,,,,,,,,,216.7199,217.2157,217.4528,218.4137,space,0.9333,,218.4139,23,42,219.4179,219.418,222.7096,space,3.2637,,0,3,3,3,1,175,60,,,,,,,,
,,60ca4fc2b4b076bcf1454ab8,65af568451c2a1f8263dc840,2024-01-23_08h04.55.879,bars,2023.2.3,Win32,60.24096386,657b66ea316d21385b68909f,,,,,,,,,,,222.7197,223.7088,,,224.2089,224.463,,100,100,,,,,,,,,,,,,,,,bars/002.png,bars/mask005.png,,,,,,,,,,,,4,2,,,,,,,4,8,3,8,,,,,,,,,,,223.709,224.2087,224.4631,229.5201,space,5.0289,,229.5203,30,15,230.5184,230.5184,233.1352,space,2.586,,0,4,4,4,1,130,85,,,,,,,,
,,60ca4fc2b4b076bcf1454ab8,65af568451c2a1f8263dc840,2024-01-23_08h04.55.879,bars,2023.2.3,Win32,60.24096386,657b66ea316d21385b68909f,,,,,,,,,,,233.1361,234.1326,,,234.632,234.8815,,97,97,,,,,,,,,,,,,,,,bars/018.png,bars/mask006.png,,,,,,,,,,,,8,2,,,,,,,2,10,1,10,,,,,,,,,,,234.1327,234.6318,234.8817,238.1122,space,3.1985,,238.1124,53,7,239.1153,239.1153,241.326,space,2.177,,0,5,5,5,1,150,90,,,,,,,,
,,60ca4fc2b4b076bcf1454ab8,65af568451c2a1f8263dc840,2024-01-23_08h04.55.879,bars,2023.2.3,Win32,60.24096386,657b66ea316d21385b68909f,,,,,,,,,,,241.3271,242.3236,,,242.8283,243.0738,,157,-23,,,,,,,,,,,,,,,,bars/033.png,bars/mask008.png,,,,,,,,,,,,7,2,,,,,,,4,8,4,8,,,,,,,,,,,242.3236,242.8283,243.074,246.1041,space,3.0072,,246.1042,48,2,247.1075,247.1076,250.0339,space,2.8917,,0,6,6,6,1,25,155,,,,,,,,
,,60ca4fc2b4b076bcf1454ab8,65af568451c2a1f8263dc840,2024-01-23_08h04.55.879,bars,2023.2.3,Win32,60.24096386,657b66ea316d21385b68909f,,,,,,,,,,,250.0546,251.0488,,,251.5368,251.7817,,135,135,,,,,,,,,,,,,,,,bars/014.png,bars/mask001.png,,,,,,,,,,,,0,2,,,,,,,2,10,1,10,,,,,,,,,,,251.049,251.5367,251.7818,254.8457,space,3.0361,,254.8458,55,45,255.8441,255.8443,258.7243,space,2.8462,,0,7,7,7,1,80,0,,,,,,,,
,,60ca4fc2b4b076bcf1454ab8,65af568451c2a1f8263dc840,2024-01-23_08h04.55.879,bars,2023.2.3,Win32,60.24096386,657b66ea316d21385b68909f,,,,,,,,,,,258.7252,259.7239,,,260.2236,260.4732,,127,-53,,,,,,,,,,,,,,,,bars/027.png,bars/mask005.png,,,,,,,,,,,,2,1,,,,,,,4,8,4,7,,,,,,,,,,,259.7242,260.2235,260.4733,265.2019,space,4.6997,,265.202,17,77,266.2013,266.2014,268.4544,space,2.2222,,0,8,8,8,1,110,50,,,,,,,,
,,60ca4fc2b4b076bcf1454ab8,65af568451c2a1f8263dc840,2024-01-23_08h04.55.879,bars,2023.2.3,Win32,60.24096386,657b66ea316d21385b68909f,,,,,,,,,,,268.4552,269.4477,,,269.947,270.2016,,6,186,,,,,,,,,,,,,,,,bars/003.png,bars/mask006.png,,,,,,,,,,,,1,1,,,,,,,2,6,2,7,,,,,,,,,,,269.4479,269.947,270.2016,272.7274,space,2.5184,,272.7274,19,46,273.7267,273.7268,276.358,space,2.5974,,0,9,9,9,1,25,140,,,,,,,,
,,60ca4fc2b4b076bcf1454ab8,65af568451c2a1f8263dc840,2024-01-23_08h04.55.879,bars,2023.2.3,Win32,60.24096386,657b66ea316d21385b68909f,,,,,,,,,,,276.3593,277.3565,,,277.8592,278.1097,,97,97,,,,,,,,,,,,,,,,bars/045.png,bars/mask006.png,,,,,,,,,,,,3,1,,,,,,,4,8,3,7,,,,,,,,,,,277.3566,277.8591,278.1097,282.0522,space,3.9329,,282.0523,3,87,283.0514,283.0515,291.0156,space,7.9379,,0,10,10,10,1,100,10,,,,,,,,
,,60ca4fc2b4b076bcf1454ab8,65af568451c2a1f8263dc840,2024-01-23_08h04.55.879,bars,2023.2.3,Win32,60.24096386,657b66ea316d21385b68909f,,,,,,,,,,,291.0369,292.0248,,,292.5255,292.7753,,128,128,,,,,,,,,,,,,,,,bars/032.png,bars/mask003.png,,,,,,,,,,,,1,1,,,,,,,2,6,1,7,,,,,,,,,,,292.0248,292.5254,292.7754,295.9726,space,3.1807,,295.9728,3,72,296.9708,296.971,299.9517,space,2.9459,,0,11,11,11,1,125,20,,,,,,,,
,,60ca4fc2b4b076bcf1454ab8,65af568451c2a1f8263dc840,2024-01-23_08h04.55.879,bars,2023.2.3,Win32,60.24096386,657b66ea316d21385b68909f,,,,,,,,,,,299.9723,300.9666,,,301.4663,301.7159,,46,46,,,,,,,,,,,,,,,,bars/019.png,bars/mask001.png,,,,,,,,,,,,4,1,,,,,,,4,4,4,6,,,,,,,,,,,300.9667,301.4662,301.7159,303.4187,space,1.6976,,303.4187,1,59,304.4135,304.4136,307.3108,space,2.8606,,0,12,12,12,1,45,105,,,,,,,,
,,60ca4fc2b4b076bcf1454ab8,65af568451c2a1f8263dc840,2024-01-23_08h04.55.879,bars,2023.2.3,Win32,60.24096386,657b66ea316d21385b68909f,,,,,,,,,,,307.3118,308.3098,,,308.8095,309.0594,,69,69,,,,,,,,,,,,,,,,bars/002.png,bars/mask003.png,,,,,,,,,,,,3,2,,,,,,,2,6,1,6,,,,,,,,,,,308.3099,308.8094,309.0595,312.2234,space,3.1396,,312.2237,61,16,313.2213,313.2215,316.5851,space,3.3298,,0,13,13,13,1,130,85,,,,,,,,
,,60ca4fc2b4b076bcf1454ab8,65af568451c2a1f8263dc840,2024-01-23_08h04.55.879,bars,2023.2.3,Win32,60.24096386,657b66ea316d21385b68909f,,,,,,,,,,,316.6069,317.6004,,,318.0998,318.3499,,118,118,,,,,,,,,,,,,,,,bars/030.png,bars/mask007.png,,,,,,,,,,,,1,1,,,,,,,4,4,4,4,,,,,,,,,,,317.6005,318.0997,318.3501,320.8309,space,2.4565,,320.8311,22,53,321.834,321.834,322.8794,space,1.0168,,0,14,14,14,1,140,65,,,,,,,,
,,60ca4fc2b4b076bcf1454ab8,65af568451c2a1f8263dc840,2024-01-23_08h04.55.879,bars,2023.2.3,Win32,60.24096386,657b66ea316d21385b68909f,,,,,,,,,,,322.8806,323.8774,,,324.3817,324.627,,141,-39,,,,,,,,,,,,,,,,bars/039.png,bars/mask006.png,,,,,,,,,,,,0,1,,,,,,,6,2,6,3,,,,,,,,,,,323.8774,324.3816,324.6271,328.4567,space,3.8027,,328.4568,34,36,329.4558,329.4559,331.8037,space,2.313,,0,15,15,15,1,175,105,,,,,,,,
,,60ca4fc2b4b076bcf1454ab8,65af568451c2a1f8263dc840,2024-01-23_08h04.55.879,bars,2023.2.3,Win32,60.24096386,657b66ea316d21385b68909f,,,,,,,,,,,331.8046,332.8023,,,333.3018,333.5515,,106,106,,,,,,,,,,,,,,,,bars/002.png,bars/mask004.png,,,,,,,,,,,,0,2,,,,,,,8,0,8,0,,,,,,,,,,,332.8024,333.3017,333.5517,338.9467,space,5.3648,,338.9468,24,21,339.9454,339.9455,340.8951,space,0.9101,,0,16,16,16,1,130,85,,,,,,,,
,,60ca4fc2b4b076bcf1454ab8,65af568451c2a1f8263dc840,2024-01-23_08h04.55.879,bars,2023.2.3,Win32,60.24096386,657b66ea316d21385b68909f,,,,,,,,,,,340.8965,341.8934,,,342.3932,342.647,,134,134,,,,,,,,,,,,,,,,bars/008.png,bars/mask002.png,,,,,,,,,,,,1,1,,,,,,,6,2,6,3,,,,,,,,,,,341.8936,342.393,342.6472,345.0953,space,2.4428,,345.0954,24,46,346.0929,346.0929,347.1552,space,1.0326,,0,17,17,17,1,110,0,,,,,,,,
,,60ca4fc2b4b076bcf1454ab8,65af568451c2a1f8263dc840,2024-01-23_08h04.55.879,bars,2023.2.3,Win32,60.24096386,657b66ea316d21385b68909f,,,,,,,,,,,347.1568,348.1542,,,348.6535,348.9032,,68,68,,,,,,,,,,,,,,,,bars/018.png,bars/mask007.png,,,,,,,,,,,,1,2,,,,,,,4,4,1,4,,,,,,,,,,,348.1544,348.6534,348.9033,353.0508,space,4.1259,,353.0508,82,22,354.0485,354.0487,354.8479,space,0.7582,,0,18,18,18,1,150,90,,,,,,,,
,,60ca4fc2b4b076bcf1454ab8,65af568451c2a1f8263dc840,2024-01-23_08h04.55.879,bars,2023.2.3,Win32,60.24096386,657b66ea316d21385b68909f,,,,,,,,,,,354.8491,355.8464,,,356.3462,356.6003,,141,141,,,,,,,,,,,,,,,,bars/037.png,bars/mask009.png,,,,,,,,,,,,2,1,,,,,,,2,2,3,3,,,,,,,,,,,355.8465,356.346,356.6003,362.3743,space,5.7594,,362.3745,9,36,363.3724,363.3726,365.4206,space,2.0141,,0,19,19,19,1,150,105,,,,,,,,
,,60ca4fc2b4b076bcf1454ab8,65af568451c2a1f8263dc840,2024-01-23_08h04.55.879,bars,2023.2.3,Win32,60.24096386,657b66ea316d21385b68909f,,,,,,,,,,,365.4216,366.4191,,,366.9193,367.1683,,175,175,,,,,,,,,,,,,,,,bars/049.png,bars/mask006.png,,,,,,,,,,,,1,1,,,,,,,0,4,1,3,,,,,,,,,,,366.4193,366.9192,367.1683,371.6637,space,4.4812,,371.6637,15,60,372.6629,372.6629,373.83,space,1.1399,,0,20,20,20,1,160,115,,,,,,,,
,,60ca4fc2b4b076bcf1454ab8,65af568451c2a1f8263dc840,2024-01-23_08h04.55.879,bars,2023.2.3,Win32,60.24096386,657b66ea316d21385b68909f,,,,,,,,,,,373.8312,374.8278,,,375.3277,375.5775,,11,191,,,,,,,,,,,,,,,,bars/036.png,bars/mask009.png,,,,,,,,,,,,3,2,,,,,,,0,2,1,4,,,,,,,,,,,374.828,375.3276,375.5777,382.7537,space,7.1439,,382.7539,46,9,383.7522,383.7524,385.1569,space,1.3781,,0,21,21,21,1,145,20,,,,,,,,
,,60ca4fc2b4b076bcf1454ab8,65af568451c2a1f8263dc840,2024-01-23_08h04.55.879,bars,2023.2.3,Win32,60.24096386,657b66ea316d21385b68909f,,,,,,,,,,,385.1578,386.1503,,,386.6499,386.8992,,178,178,,,,,,,,,,,,,,,,bars/049.png,bars/mask004.png,,,,,,,,,,,,1,1,,,,,,,2,0,3,1,,,,,,,,,,,386.1504,386.6497,386.8992,389.6673,space,2.7471,,389.6673,18,63,390.6625,390.6627,391.1461,space,0.452,,0,22,22,22,1,160,115,,,,,,,,
,,60ca4fc2b4b076bcf1454ab8,65af568451c2a1f8263dc840,2024-01-23_08h04.55.879,bars,2023.2.3,Win32,60.24096386,657b66ea316d21385b68909f,,,,,,,,,,,391.1469,392.135,,,392.6272,392.8767,,51,51,,,,,,,,,,,,,,,,bars/019.png,bars/mask006.png,,,,,,,,,,,,0,1,,,,,,,0,2,0,4,,,,,,,,,,,392.135,392.6271,392.8769,396.0078,space,3.0984,,396.008,6,54,397.0063,397.0065,398.7433,space,1.7122,,0,23,23,23,1,45,105,,,,,,,,
,,60ca4fc2b4b076bcf1454ab8,65af568451c2a1f8263dc840,2024-01-23_08h04.55.879,bars,2023.2.3,Win32,60.24096386,657b66ea316d21385b68909f,,,,,,,,,,,398.7442,399.7369,,,400.2361,400.4858,,111,111,,,,,,,,,,,,,,,,bars/027.png,bars/mask005.png,,,,,,,,,,,,2,1,,,,,,,2,4,2,4,,,,,,,,,,,399.737,400.236,400.4859,403.3342,space,2.8312,,403.3344,1,61,404.3366,404.3367,406.1309,space,1.7575,,0,24,24,24,1,110,50,,,,,,,,
,,60ca4fc2b4b076bcf1454ab8,65af568451c2a1f8263dc840,2024-01-23_08h04.55.879,bars,2023.2.3,Win32,60.24096386,657b66ea316d21385b68909f,,,,,,,,,,,406.1319,407.1296,,,407.6294,407.8788,,79,79,,,,,,,,,,,,,,,,bars/026.png,bars/mask008.png,,,,,,,,,,,,3,2,,,,,,,0,6,0,4,,,,,,,,,,,407.1298,407.6292,407.8788,408.9334,space,1.0333,,408.9335,44,6,409.9312,409.9313,411.2767,space,1.3196,,0,25,25,25,1,35,85,,,,,,,,
,,60ca4fc2b4b076bcf1454ab8,65af568451c2a1f8263dc840,2024-01-23_08h04.55.879,bars,2023.2.3,Win32,60.24096386,657b66ea316d21385b68909f,,,,,,,,,,,411.2779,412.2747,,,412.7742,413.0284,,139,139,,,,,,,,,,,,,,,,bars/024.png,bars/mask003.png,,,,,,,,,,,,0,1,,,,,,,0,8,1,8,,,,,,,,,,,412.2748,412.7741,413.0284,416.0542,space,3.0151,,416.0543,19,31,417.0534,417.0534,418.103,space,1.0188,,0,26,26,26,1,120,170,,,,,,,,
,,60ca4fc2b4b076bcf1454ab8,65af568451c2a1f8263dc840,2024-01-23_08h04.55.879,bars,2023.2.3,Win32,60.24096386,657b66ea316d21385b68909f,,,,,,,,,,,418.104,419.1014,,,419.6054,419.8506,,49,49,,,,,,,,,,,,,,,,bars/044.png,bars/mask009.png,,,,,,,,,,,,0,1,,,,,,,0,6,0,8,,,,,,,,,,,419.1015,419.6053,419.8508,422.8984,space,3.0177,,422.8986,26,74,423.8963,423.8963,424.8968,space,0.9652,,0,27,27,27,1,75,155,,,,,,,,
,,60ca4fc2b4b076bcf1454ab8,65af568451c2a1f8263dc840,2024-01-23_08h04.55.879,bars,2023.2.3,Win32,60.24096386,657b66ea316d21385b68909f,,,,,,,,,,,424.8979,425.8946,,,426.3945,426.6439,,110,110,,,,,,,,,,,,,,,,bars/045.png,bars/mask009.png,,,,,,,,,,,,1,1,,,,,,,2,4,1,3,,,,,,,,,,,425.8948,426.3942,426.6439,432.0723,space,5.412,,432.0724,10,80,433.0712,433.0712,434.5711,space,1.4742,,0,28,28,28,1,100,10,,,,,,,,
,,60ca4fc2b4b076bcf1454ab8,65af568451c2a1f8263dc840,2024-01-23_08h04.55.879,bars,2023.2.3,Win32,60.24096386,657b66ea316d21385b68909f,,,,,,,,,,,434.572,435.5684,,,436.068,436.3182,,48,48,,,,,,,,,,,,,,,,bars/005.png,bars/mask009.png,,,,,,,,,,,,0,1,,,,,,,4,6,3,4,,,,,,,,,,,435.5686,436.0679,436.3182,442.7785,space,6.4367,,442.7786,38,88,443.7772,443.7773,444.7091,space,0.9042,,0,29,29,29,1,10,140,,,,,,,,
,,60ca4fc2b4b076bcf1454ab8,65af568451c2a1f8263dc840,2024-01-23_08h04.55.879,bars,2023.2.3,Win32,60.24096386,657b66ea316d21385b68909f,,,,,,,,,,,444.7098,445.7083,,,446.2082,446.4577,,23,23,,,,,,,,,,,,,,,,bars/009.png,bars/mask002.png,,,,,,,,,,,,1,1,,,,,,,2,4,1,5,,,,,,,,,,,445.7084,446.2082,446.4577,451.4858,space,5.0034,,451.4859,8,82,452.4852,452.4854,453.5019,space,0.9773,,0,30,30,30,1,15,105,,,,,,,,
,,60ca4fc2b4b076bcf1454ab8,65af568451c2a1f8263dc840,2024-01-23_08h04.55.879,bars,2023.2.3,Win32,60.24096386,657b66ea316d21385b68909f,,,,,,,,,,,453.5033,454.5045,,,454.9994,455.2491,,151,151,,,,,,,,,,,,,,,,bars/038.png,bars/mask005.png,,,,,,,,,,,,2,1,,,,,,,4,6,4,6,,,,,,,,,,,454.5045,454.9994,455.2492,459.1126,space,3.8319,,459.1127,14,81,460.1113,460.1116,460.9773,space,0.8305,,0,31,31,31,1,165,70,,,,,,,,
,,60ca4fc2b4b076bcf1454ab8,65af568451c2a1f8263dc840,2024-01-23_08h04.55.879,bars,2023.2.3,Win32,60.24096386,657b66ea316d21385b68909f,,,,,,,,,,,460.9785,461.9761,,,462.475,462.7251,,95,95,,,,,,,,,,,,,,,,bars/031.png,bars/mask001.png,,,,,,,,,,,,1,1,,,,,,,6,4,5,5,,,,,,,,,,,461.9762,462.475,462.7253,465.9063,space,3.1496,,465.9064,25,60,466.9044,466.9045,468.0365,space,1.099,,0,32,32,32,1,120,35,,,,,,,,
,,60ca4fc2b4b076bcf1454ab8,65af568451c2a1f8263dc840,2024-01-23_08h04.55.879,bars,2023.2.3,Win32,60.24096386,657b66ea316d21385b68909f,,,,,,,,,,,468.0373,469.0359,,,469.5401,469.785,,103,103,,,,,,,,,,,,,,,,bars/012.png,bars/mask003.png,,,,,,,,,,,,5,1,,,,,,,8,6,9,8,,,,,,,,,,,469.036,469.5399,469.7851,472.516,space,2.7043,,472.5161,13,88,473.5147,473.5148,475.0482,space,1.507,,0,33,33,33,1,90,15,,,,,,,,
,,60ca4fc2b4b076bcf1454ab8,65af568451c2a1f8263dc840,2024-01-23_08h04.55.879,bars,2023.2.3,Win32,60.24096386,657b66ea316d21385b68909f,,,,,,,,,,,475.0491,476.0455,,,476.5497,476.795,,174,174,,,,,,,,,,,,,,,,bars/036.png,bars/mask009.png,,,,,,,,,,,,1,2,,,,,,,6,8,6,7,,,,,,,,,,,476.0457,476.5497,476.7951,477.894,space,1.0699,,477.8941,29,26,478.8926,478.8927,479.6426,space,0.7176,,0,34,34,34,1,145,20,,,,,,,,
,,60ca4fc2b4b076bcf1454ab8,65af568451c2a1f8263dc840,2024-01-23_08h04.55.879,bars,2023.2.3,Win32,60.24096386,657b66ea316d21385b68909f,,,,,,,,,,,479.6434,480.6413,,,481.1406,481.3905,,117,117,,,,,,,,,,,,,,,,bars/045.png,bars/mask003.png,,,,,,,,,,,,2,1,,,,,,,4,10,5,10,,,,,,,,,,,480.6415,481.1405,481.3907,486.1911,space,4.7804,,486.1911,17,73,487.1846,487.1848,488.2227,space,1.0092,,0,35,35,35,1,100,10,,,,,,,,
,,60ca4fc2b4b076bcf1454ab8,65af568451c2a1f8263dc840,2024-01-23_08h04.55.879,bars,2023.2.3,Win32,60.24096386,657b66ea316d21385b68909f,,,,,,,,,,,488.2235,489.2158,,,489.7149,489.9698,,27,27,,,,,,,,,,,,,,,,bars/043.png,bars/mask004.png,,,,,,,,,,,,5,1,,,,,,,6,10,6,10,,,,,,,,,,,489.2158,489.7148,489.9699,495.7766,space,5.7875,,495.7767,3,77,496.7797,496.7797,497.674,space,0.8584,,0,36,36,36,1,30,130,,,,,,,,
,,60ca4fc2b4b076bcf1454ab8,65af568451c2a1f8263dc840,2024-01-23_08h04.55.879,bars,2023.2.3,Win32,60.24096386,657b66ea316d21385b68909f,,,,,,,,,,,497.6744,498.6729,,,499.173,499.4225,,104,104,,,,,,,,,,,,,,,,bars/045.png,bars/mask009.png,,,,,,,,,,,,7,1,,,,,,,8,8,8,7,,,,,,,,,,,498.6729,499.1729,499.4225,501.5541,space,2.1174,,501.5542,4,86,502.5528,502.5528,503.7186,space,1.1353,,0,37,37,37,1,100,10,,,,,,,,
,,60ca4fc2b4b076bcf1454ab8,65af568451c2a1f8263dc840,2024-01-23_08h04.55.879,bars,2023.2.3,Win32,60.24096386,657b66ea316d21385b68909f,,,,,,,,,,,503.7193,504.7174,,,505.217,505.4668,,68,68,,,,,,,,,,,,,,,,bars/029.png,bars/mask001.png,,,,,,,,,,,,3,1,,,,,,,10,10,10,10,,,,,,,,,,,504.7175,505.217,505.4669,506.9489,space,1.4712,,506.9489,22,23,507.9476,507.9476,508.8967,space,0.9335,,0,38,38,38,1,90,45,,,,,,,,
,,60ca4fc2b4b076bcf1454ab8,65af568451c2a1f8263dc840,2024-01-23_08h04.55.879,bars,2023.2.3,Win32,60.24096386,657b66ea316d21385b68909f,,,,,,,,,,,508.8974,509.8956,,,510.3951,510.6447,,146,146,,,,,,,,,,,,,,,,bars/038.png,bars/mask000.png,,,,,,,,,,,,3,1,,,,,,,8,10,7,10,,,,,,,,,,,509.8957,510.395,510.6448,515.6562,space,5.0045,,515.6562,19,76,516.6556,516.6556,518.4378,space,1.7482,,0,39,39,39,1,165,70,,,,,,,,
,,60ca4fc2b4b076bcf1454ab8,65af568451c2a1f8263dc840,2024-01-23_08h04.55.879,bars,2023.2.3,Win32,60.24096386,657b66ea316d21385b68909f,,,,,,,,,,,518.4386,519.4363,,,519.9359,520.1857,,171,171,,,,,,,,,,,,,,,,bars/011.png,bars/mask005.png,,,,,,,,,,,,5,1,,,,,,,6,10,8,9,,,,,,,,,,,519.4364,519.9359,520.1858,525.6473,space,5.4441,,525.6474,11,86,526.646,526.6461,527.3787,space,0.7016,,0,40,40,40,1,160,85,,,,,,,,
,,60ca4fc2b4b076bcf1454ab8,65af568451c2a1f8263dc840,2024-01-23_08h04.55.879,bars,2023.2.3,Win32,60.24096386,657b66ea316d21385b68909f,,,,,,,,,,,527.3797,528.3776,,,528.8773,529.1269,,57,-123,,,,,,,,,,,,,,,,bars/014.png,bars/mask007.png,,,,,,,,,,,,2,1,,,,,,,8,10,8,10,,,,,,,,,,,528.3777,528.8772,529.127,535.2879,space,6.1551,,535.288,23,57,536.2864,536.2866,537.086,space,0.7671,,0,41,41,41,1,80,0,,,,,,,,
,,60ca4fc2b4b076bcf1454ab8,65af568451c2a1f8263dc840,2024-01-23_08h04.55.879,bars,2023.2.3,Win32,60.24096386,657b66ea316d21385b68909f,,,,,,,,,,,537.0868,538.0849,,,538.5846,538.8343,,177,-3,,,,,,,,,,,,,,,,bars/047.png,bars/mask002.png,,,,,,,,,,,,2,1,,,,,,,6,8,4,7,,,,,,,,,,,538.0849,538.5845,538.8343,541.4985,space,2.6476,,541.4986,18,73,542.4971,542.4971,543.2964,space,0.7623,,0,42,42,42,1,15,70,,,,,,,,
,,60ca4fc2b4b076bcf1454ab8,65af568451c2a1f8263dc840,2024-01-23_08h04.55.879,bars,2023.2.3,Win32,60.24096386,657b66ea316d21385b68909f,,,,,,,,,,,543.2971,544.2954,,,544.7951,545.0448,,64,64,,,,,,,,,,,,,,,,bars/019.png,bars/mask006.png,,,,,,,,,,,,4,1,,,,,,,8,6,10,7,,,,,,,,,,,544.2954,544.795,545.0448,551.7218,space,6.6609,,551.7219,19,41,552.7204,552.7205,553.5367,space,0.7831,,0,43,43,43,1,45,105,,,,,,,,
,,60ca4fc2b4b076bcf1454ab8,65af568451c2a1f8263dc840,2024-01-23_08h04.55.879,bars,2023.2.3,Win32,60.24096386,657b66ea316d21385b68909f,,,,,,,,,,,553.5378,554.5358,,,555.0352,555.287,,172,-8,,,,,,,,,,,,,,,,bars/005.png,bars/mask001.png,,,,,,,,,,,,4,1,,,,,,,10,4,10,3,,,,,,,,,,,554.5359,555.0352,555.287,559.5311,space,4.2335,,559.5312,18,32,560.5345,560.5347,561.598,space,1.0366,,0,44,44,44,1,10,140,,,,,,,,
,,60ca4fc2b4b076bcf1454ab8,65af568451c2a1f8263dc840,2024-01-23_08h04.55.879,bars,2023.2.3,Win32,60.24096386,657b66ea316d21385b68909f,,,,,,,,,,,561.5982,562.5937,,,563.0931,563.343,,126,126,,,,,,,,,,,,,,,,bars/003.png,bars/mask003.png,,,,,,,,,,,,1,2,,,,,,,10,2,10,1,,,,,,,,,,,562.5937,563.093,563.343,564.2111,space,0.8627,,564.2111,79,14,565.2077,565.2077,569.1104,space,3.8815,,0,45,45,45,1,25,140,,,,,,,,
,,60ca4fc2b4b076bcf1454ab8,65af568451c2a1f8263dc840,2024-01-23_08h04.55.879,bars,2023.2.3,Win32,60.24096386,657b66ea316d21385b68909f,,,,,,,,,,,569.1288,570.1246,,,570.6228,570.8696,,153,153,,,,,,,,,,,,,,,,bars/021.png,bars/mask005.png,,,,,,,,,,,,9,1,,,,,,,8,0,10,0,,,,,,,,,,,570.1247,570.6228,570.8696,577.0855,space,6.1948,,577.0856,2,83,578.0797,578.0799,579.5663,space,1.4565,,0,46,46,46,1,155,70,,,,,,,,
,,60ca4fc2b4b076bcf1454ab8,65af568451c2a1f8263dc840,2024-01-23_08h04.55.879,bars,2023.2.3,Win32,60.24096386,657b66ea316d21385b68909f,,,,,,,,,,,579.567,580.5601,,,581.0597,581.3091,,129,-51,,,,,,,,,,,,,,,,bars/021.png,bars/mask005.png,,,,,,,,,,,,1,1,,,,,,,10,0,10,0,,,,,,,,,,,580.5602,581.0596,581.3091,585.3935,space,4.0631,,585.3936,26,59,586.3869,586.387,587.2868,space,0.8749,,0,47,47,47,1,155,70,,,,,,,,
,,60ca4fc2b4b076bcf1454ab8,65af568451c2a1f8263dc840,2024-01-23_08h04.55.879,bars,2023.2.3,Win32,60.24096386,657b66ea316d21385b68909f,,,,,,,,,,,587.2882,588.2861,,,588.7845,589.0345,,13,193,,,,,,,,,,,,,,,,bars/018.png,bars/mask003.png,,,,,,,,,,,,0,1,,,,,,,10,0,10,0,,,,,,,,,,,588.2862,588.7844,589.0345,593.9306,space,4.8691,,593.9307,43,77,594.9293,594.9294,598.8923,space,3.9281,,0,48,48,48,1,150,90,,,,,,,,
,,60ca4fc2b4b076bcf1454ab8,65af568451c2a1f8263dc840,2024-01-23_08h04.55.879,bars,2023.2.3,Win32,60.24096386,657b66ea316d21385b68909f,,,,,,,,,,,598.911,599.9075,,,600.4074,600.6565,,134,-46,,,,,,,,,,,,,,,,bars/042.png,bars/mask004.png,,,,,,,,,,,,6,1,,,,,,,10,0,10,0,,,,,,,,,,,599.9075,600.4072,600.6565,604.1869,space,3.5091,,604.187,11,59,605.1866,605.1867,609.6977,space,4.4801,,0,49,49,49,1,145,75,,,,,,,,
,,60ca4fc2b4b076bcf1454ab8,65af568451c2a1f8263dc840,2024-01-23_08h04.55.879,bars,2023.2.3,Win32,60.24096386,657b66ea316d21385b68909f,,,,,,,,,,,,,,,,,,,,,,,,,,,,,,,,,,,,,,,,,,,,,,,,,,,,,,,,,,,,,,,,,,,,,,,,,,,,,,,,,,,,,,,,,,,,,609.7088,669.7068,0,0,0,1,1,sequence_tables/blk018.csv
,,60ca4fc2b4b076bcf1454ab8,65af568451c2a1f8263dc840,2024-01-23_08h04.55.879,bars,2023.2.3,Win32,60.24096386,657b66ea316d21385b68909f,,,,,,,,,,,671.4827,672.4866,,,672.9897,673.2357,,68,68,,,,,,,,,,,,,,,,bars/018.png,bars/mask009.png,,,,,,,,,,,,0,2,,,,,,,8,1,8,0,,,,,,669.7249,671.4715,space,1.7367,,672.4868,672.9896,673.2357,676.1339,space,2.8735,,676.134,82,22,677.132,677.132,677.1542,,,,0,0,0,0,1,150,90,,,,,,,,
,,60ca4fc2b4b076bcf1454ab8,65af568451c2a1f8263dc840,2024-01-23_08h04.55.879,bars,2023.2.3,Win32,60.24096386,657b66ea316d21385b68909f,,,,,,,,,,,677.1545,678.1481,,,678.6472,678.8971,,150,-30,,,,,,,,,,,,,,,,bars/014.png,bars/mask008.png,,,,,,,,,,,,0,2,,,,,,,6,3,5,3,,,,,,,,,,,678.1482,678.6471,678.8972,683.7592,space,4.8316,,683.7594,70,30,684.758,684.7581,684.78,,,,0,1,1,1,1,80,0,,,,,,,,
,,60ca4fc2b4b076bcf1454ab8,65af568451c2a1f8263dc840,2024-01-23_08h04.55.879,bars,2023.2.3,Win32,60.24096386,657b66ea316d21385b68909f,,,,,,,,,,,684.7803,685.7735,,,686.2734,686.5232,,143,143,,,,,,,,,,,,,,,,bars/007.png,bars/mask003.png,,,,,,,,,,,,0,1,,,,,,,4,5,5,6,,,,,,,,,,,685.7736,686.2733,686.5233,691.0193,space,4.4702,,691.0194,32,88,692.0177,692.0179,692.0404,,,,0,2,2,2,1,175,55,,,,,,,,
,,60ca4fc2b4b076bcf1454ab8,65af568451c2a1f8263dc840,2024-01-23_08h04.55.879,bars,2023.2.3,Win32,60.24096386,657b66ea316d21385b68909f,,,,,,,,,,,692.0406,693.0331,,,693.533,693.782,,150,-30,,,,,,,,,,,,,,,,bars/007.png,bars/mask008.png,,,,,,,,,,,,1,1,,,,,,,6,3,6,2,,,,,,,,,,,693.0332,693.5329,693.782,697.9288,space,4.1382,,697.9289,25,85,698.9276,698.9278,698.9495,,,,0,3,3,3,1,175,55,,,,,,,,
,,60ca4fc2b4b076bcf1454ab8,65af568451c2a1f8263dc840,2024-01-23_08h04.55.879,bars,2023.2.3,Win32,60.24096386,657b66ea316d21385b68909f,,,,,,,,,,,698.9499,699.9432,,,700.4462,700.6923,,61,61,,,,,,,,,,,,,,,,bars/014.png,bars/mask003.png,,,,,,,,,,,,2,1,,,,,,,8,1,6,0,,,,,,,,,,,699.9433,700.4462,700.6924,705.0106,space,4.2966,,705.0106,19,61,706.004,706.0041,706.026,,,,0,4,4,4,1,80,0,,,,,,,,
,,60ca4fc2b4b076bcf1454ab8,65af568451c2a1f8263dc840,2024-01-23_08h04.55.879,bars,2023.2.3,Win32,60.24096386,657b66ea316d21385b68909f,,,,,,,,,,,706.0263,707.0195,,,707.5192,707.7739,,130,130,,,,,,,,,,,,,,,,bars/027.png,bars/mask000.png,,,,,,,,,,,,3,1,,,,,,,10,3,10,3,,,,,,,,,,,707.0195,707.5192,707.7739,710.8163,space,3.0253,,710.8165,20,80,711.8151,711.8152,711.8357,,,,0,5,5,5,1,110,50,,,,,,,,
,,60ca4fc2b4b076bcf1454ab8,65af568451c2a1f8263dc840,2024-01-23_08h04.55.879,bars,2023.2.3,Win32,60.24096386,657b66ea316d21385b68909f,,,,,,,,,,,711.836,712.8306,,,713.3305,713.5844,,137,137,,,,,,,,,,,,,,,,bars/032.png,bars/mask005.png,,,,,,,,,,,,5,1,,,,,,,8,1,8,0,,,,,,,,,,,712.8306,713.3303,713.5846,714.58,space,0.9854,,714.5803,12,63,715.5779,715.5779,715.5798,,,,0,6,6,6,1,125,20,,,,,,,,
,,60ca4fc2b4b076bcf1454ab8,65af568451c2a1f8263dc840,2024-01-23_08h04.55.879,bars,2023.2.3,Win32,60.24096386,657b66ea316d21385b68909f,,,,,,,,,,,715.5804,716.5786,,,717.0764,717.326,,129,129,,,,,,,,,,,,,,,,bars/015.png,bars/mask005.png,,,,,,,,,,,,2,1,,,,,,,6,0,6,0,,,,,,,,,,,716.5786,717.0763,717.3262,723.3373,space,5.9872,,723.3377,19,31,724.3358,724.336,724.3598,,,,0,7,7,7,1,110,160,,,,,,,,
,,60ca4fc2b4b076bcf1454ab8,65af568451c2a1f8263dc840,2024-01-23_08h04.55.879,bars,2023.2.3,Win32,60.24096386,657b66ea316d21385b68909f,,,,,,,,,,,724.3601,725.3519,,,725.8513,726.1022,,35,35,,,,,,,,,,,,,,,,bars/026.png,bars/mask008.png,,,,,,,,,,,,6,1,,,,,,,4,0,6,0,,,,,,,,,,,725.3521,725.8512,726.1023,730.4135,space,4.2811,,730.4137,0,50,731.4125,731.4126,731.4319,,,,0,8,8,8,1,35,85,,,,,,,,
,,60ca4fc2b4b076bcf1454ab8,65af568451c2a1f8263dc840,2024-01-23_08h04.55.879,bars,2023.2.3,Win32,60.24096386,657b66ea316d21385b68909f,,,,,,,,,,,731.4321,732.4278,,,732.9279,733.1773,,40,220,,,,,,,,,,,,,,,,bars/041.png,bars/mask005.png,,,,,,,,,,,,2,1,,,,,,,6,0,6,0,,,,,,,,,,,732.428,732.9278,733.1774,738.5557,space,5.3474,,738.5558,20,45,739.5539,739.5539,739.5622,,,,0,9,9,9,1,20,85,,,,,,,,
,,60ca4fc2b4b076bcf1454ab8,65af568451c2a1f8263dc840,2024-01-23_08h04.55.879,bars,2023.2.3,Win32,60.24096386,657b66ea316d21385b68909f,,,,,,,,,,,739.5624,740.5563,,,741.0526,741.3026,,137,-43,,,,,,,,,,,,,,,,bars/038.png,bars/mask000.png,,,,,,,,,,,,1,1,,,,,,,8,2,8,3,,,,,,,,,,,740.5563,741.0525,741.3026,746.4971,space,5.1629,,746.4972,28,67,747.4964,747.4964,747.5142,,,,0,10,10,10,1,165,70,,,,,,,,
,,60ca4fc2b4b076bcf1454ab8,65af568451c2a1f8263dc840,2024-01-23_08h04.55.879,bars,2023.2.3,Win32,60.24096386,657b66ea316d21385b68909f,,,,,,,,,,,747.5145,748.512,,,749.0116,749.2618,,111,111,,,,,,,,,,,,,,,,bars/024.png,bars/mask008.png,,,,,,,,,,,,5,1,,,,,,,6,0,7,0,,,,,,,,,,,748.512,749.0115,749.262,750.9601,space,1.681,,750.9602,9,59,751.9648,751.9648,751.9867,,,,0,11,11,11,1,120,170,,,,,,,,
,,60ca4fc2b4b076bcf1454ab8,65af568451c2a1f8263dc840,2024-01-23_08h04.55.879,bars,2023.2.3,Win32,60.24096386,657b66ea316d21385b68909f,,,,,,,,,,,751.9869,752.9782,,,753.4742,753.7236,,1,181,,,,,,,,,,,,,,,,bars/021.png,bars/mask000.png,,,,,,,,,,,,1,1,,,,,,,4,2,5,2,,,,,,,,,,,752.9783,753.4742,753.7237,757.909,space,4.1647,,757.9091,26,69,758.9023,758.9023,758.9255,,,,0,12,12,12,1,155,70,,,,,,,,
,,60ca4fc2b4b076bcf1454ab8,65af568451c2a1f8263dc840,2024-01-23_08h04.55.879,bars,2023.2.3,Win32,60.24096386,657b66ea316d21385b68909f,,,,,,,,,,,758.9258,759.9174,,,760.417,760.6712,,98,98,,,,,,,,,,,,,,,,bars/002.png,bars/mask003.png,,,,,,,,,,,,0,2,,,,,,,6,0,7,0,,,,,,,,,,,759.9175,760.4169,760.6712,762.6655,space,1.9818,,762.6657,32,13,763.6643,763.6644,763.6687,,,,0,13,13,13,1,130,85,,,,,,,,
,,60ca4fc2b4b076bcf1454ab8,65af568451c2a1f8263dc840,2024-01-23_08h04.55.879,bars,2023.2.3,Win32,60.24096386,657b66ea316d21385b68909f,,,,,,,,,,,763.669,764.6634,,,765.1627,765.4124,,4,4,,,,,,,,,,,,,,,,bars/041.png,bars/mask000.png,,,,,,,,,,,,3,1,,,,,,,8,2,7,2,,,,,,,,,,,764.6635,765.1626,765.4125,769.0605,space,3.6236,,769.0606,16,81,770.058,770.0581,770.0788,,,,0,14,14,14,1,20,85,,,,,,,,
,,60ca4fc2b4b076bcf1454ab8,65af568451c2a1f8263dc840,2024-01-23_08h04.55.879,bars,2023.2.3,Win32,60.24096386,657b66ea316d21385b68909f,,,,,,,,,,,770.079,771.0732,,,771.5612,771.8065,,109,109,,,,,,,,,,,,,,,,bars/002.png,bars/mask007.png,,,,,,,,,,,,3,1,,,,,,,10,4,10,6,,,,,,,,,,,771.0733,771.5612,771.8066,772.6725,space,0.8431,,772.6726,21,24,773.6707,773.6708,773.6727,,,,0,15,15,15,1,130,85,,,,,,,,
,,60ca4fc2b4b076bcf1454ab8,65af568451c2a1f8263dc840,2024-01-23_08h04.55.879,bars,2023.2.3,Win32,60.24096386,657b66ea316d21385b68909f,,,,,,,,,,,773.6729,774.6702,,,775.1698,775.4192,,125,125,,,,,,,,,,,,,,,,bars/038.png,bars/mask000.png,,,,,,,,,,,,0,1,,,,,,,10,2,10,2,,,,,,,,,,,774.6704,775.1697,775.4193,777.4176,space,1.9714,,777.4177,40,55,778.4162,778.4162,778.4352,,,,0,16,16,16,1,165,70,,,,,,,,
,,60ca4fc2b4b076bcf1454ab8,65af568451c2a1f8263dc840,2024-01-23_08h04.55.879,bars,2023.2.3,Win32,60.24096386,657b66ea316d21385b68909f,,,,,,,,,,,778.4354,779.4363,,,779.9318,780.1698,,62,62,,,,,,,,,,,,,,,,bars/026.png,bars/mask009.png,,,,,,,,,,,,0,2,,,,,,,8,0,6,0,,,,,,,,,,,779.4363,779.9317,780.1698,781.8802,space,1.6958,,781.8803,27,23,782.8833,782.8834,782.9074,,,,0,17,17,17,1,35,85,,,,,,,,
,,60ca4fc2b4b076bcf1454ab8,65af568451c2a1f8263dc840,2024-01-23_08h04.55.879,bars,2023.2.3,Win32,60.24096386,657b66ea316d21385b68909f,,,,,,,,,,,782.9077,783.911,,,784.4106,784.6596,,138,138,,,,,,,,,,,,,,,,bars/002.png,bars/mask008.png,,,,,,,,,,,,7,1,,,,,,,10,2,10,3,,,,,,,,,,,783.9111,784.4106,784.6596,785.8093,space,1.1418,,785.8093,8,53,786.8081,786.8081,786.813,,,,0,18,18,18,1,130,85,,,,,,,,
,,60ca4fc2b4b076bcf1454ab8,65af568451c2a1f8263dc840,2024-01-23_08h04.55.879,bars,2023.2.3,Win32,60.24096386,657b66ea316d21385b68909f,,,,,,,,,,,786.8137,787.8075,,,788.3067,788.5562,,139,139,,,,,,,,,,,,,,,,bars/008.png,bars/mask008.png,,,,,,,,,,,,0,1,,,,,,,10,4,10,7,,,,,,,,,,,787.8075,788.3066,788.5563,793.0858,space,4.5227,,793.0859,29,41,794.0837,794.0837,794.0933,,,,0,19,19,19,1,110,0,,,,,,,,
,,60ca4fc2b4b076bcf1454ab8,65af568451c2a1f8263dc840,2024-01-23_08h04.55.879,bars,2023.2.3,Win32,60.24096386,657b66ea316d21385b68909f,,,,,,,,,,,794.0936,795.0836,,,795.5832,795.8328,,131,131,,,,,,,,,,,,,,,,bars/034.png,bars/mask007.png,,,,,,,,,,,,6,1,,,,,,,8,6,8,5,,,,,,,,,,,795.0837,795.5831,795.8328,797.2814,space,1.4382,,797.2814,6,66,798.2798,798.2799,798.2932,,,,0,20,20,20,1,125,65,,,,,,,,
,,60ca4fc2b4b076bcf1454ab8,65af568451c2a1f8263dc840,2024-01-23_08h04.55.879,bars,2023.2.3,Win32,60.24096386,657b66ea316d21385b68909f,,,,,,,,,,,798.2933,799.2961,,,799.795,800.0447,,40,40,,,,,,,,,,,,,,,,bars/029.png,bars/mask006.png,,,,,,,,,,,,7,2,,,,,,,6,8,6,8,,,,,,,,,,,799.2962,799.795,800.0447,803.0759,space,3.0168,,803.076,50,5,804.0743,804.0743,804.0942,,,,0,21,21,21,1,90,45,,,,,,,,
,,60ca4fc2b4b076bcf1454ab8,65af568451c2a1f8263dc840,2024-01-23_08h04.55.879,bars,2023.2.3,Win32,60.24096386,657b66ea316d21385b68909f,,,,,,,,,,,804.0944,805.0902,,,805.5898,805.8397,,175,-5,,,,,,,,,,,,,,,,bars/007.png,bars/mask005.png,,,,,,,,,,,,4,1,,,,,,,4,6,4,7,,,,,,,,,,,805.0903,805.5898,805.8398,810.5517,space,4.7023,,810.5518,0,60,811.5507,811.5508,811.5612,,,,0,22,22,22,1,175,55,,,,,,,,
,,60ca4fc2b4b076bcf1454ab8,65af568451c2a1f8263dc840,2024-01-23_08h04.55.879,bars,2023.2.3,Win32,60.24096386,657b66ea316d21385b68909f,,,,,,,,,,,811.5613,812.5497,,,813.0492,813.299,,107,107,,,,,,,,,,,,,,,,bars/025.png,bars/mask002.png,,,,,,,,,,,,7,1,,,,,,,6,4,7,4,,,,,,,,,,,812.5497,813.0491,813.2991,816.9958,space,3.6786,,816.9958,2,67,817.9939,817.9939,818.0014,,,,0,23,23,23,1,105,40,,,,,,,,
,,60ca4fc2b4b076bcf1454ab8,65af568451c2a1f8263dc840,2024-01-23_08h04.55.879,bars,2023.2.3,Win32,60.24096386,657b66ea316d21385b68909f,,,,,,,,,,,818.0016,818.9932,,,819.4929,819.7425,,167,167,,,,,,,,,,,,,,,,bars/010.png,bars/mask009.png,,,,,,,,,,,,4,1,,,,,,,4,6,4,5,,,,,,,,,,,818.9933,819.4928,819.7425,823.9719,space,4.2207,,823.972,2,68,824.9708,824.9708,824.9934,,,,0,24,24,24,1,165,55,,,,,,,,
,,60ca4fc2b4b076bcf1454ab8,65af568451c2a1f8263dc840,2024-01-23_08h04.55.879,bars,2023.2.3,Win32,60.24096386,657b66ea316d21385b68909f,,,,,,,,,,,824.9936,825.9862,,,826.4863,826.7358,,134,134,,,,,,,,,,,,,,,,bars/049.png,bars/mask008.png,,,,,,,,,,,,3,2,,,,,,,6,8,5,7,,,,,,,,,,,825.9862,826.4862,826.7358,830.5825,space,3.8308,,830.5826,26,19,831.5811,831.5811,831.6044,,,,0,25,25,25,1,160,115,,,,,,,,
,,60ca4fc2b4b076bcf1454ab8,65af568451c2a1f8263dc840,2024-01-23_08h04.55.879,bars,2023.2.3,Win32,60.24096386,657b66ea316d21385b68909f,,,,,,,,,,,831.6047,832.5964,,,833.0965,833.3506,,117,117,,,,,,,,,,,,,,,,bars/029.png,bars/mask003.png,,,,,,,,,,,,0,1,,,,,,,4,10,4,9,,,,,,,,,,,832.5965,833.0964,833.3508,835.0787,space,1.7131,,835.0789,27,72,836.0767,836.0768,836.0986,,,,0,26,26,26,1,90,45,,,,,,,,
,,60ca4fc2b4b076bcf1454ab8,65af568451c2a1f8263dc840,2024-01-23_08h04.55.879,bars,2023.2.3,Win32,60.24096386,657b66ea316d21385b68909f,,,,,,,,,,,836.0988,837.0922,,,837.5965,837.8419,,23,23,,,,,,,,,,,,,,,,bars/046.png,bars/mask007.png,,,,,,,,,,,,0,1,,,,,,,6,10,6,10,,,,,,,,,,,837.0923,837.5963,837.8419,840.1397,space,2.2668,,840.1398,48,62,841.1387,841.1388,841.1579,,,,0,27,27,27,1,155,85,,,,,,,,
,,60ca4fc2b4b076bcf1454ab8,65af568451c2a1f8263dc840,2024-01-23_08h04.55.879,bars,2023.2.3,Win32,60.24096386,657b66ea316d21385b68909f,,,,,,,,,,,841.1581,842.154,,,842.6535,842.9034,,163,-17,,,,,,,,,,,,,,,,bars/030.png,bars/mask001.png,,,,,,,,,,,,1,1,,,,,,,4,8,4,9,,,,,,,,,,,842.1541,842.6534,842.9035,848.0705,space,5.1613,,848.0706,23,82,849.064,849.0641,849.0862,,,,0,28,28,28,1,140,65,,,,,,,,
,,60ca4fc2b4b076bcf1454ab8,65af568451c2a1f8263dc840,2024-01-23_08h04.55.879,bars,2023.2.3,Win32,60.24096386,657b66ea316d21385b68909f,,,,,,,,,,,849.0864,850.0799,,,850.5792,850.829,,163,-17,,,,,,,,,,,,,,,,bars/018.png,bars/mask003.png,,,,,,,,,,,,3,1,,,,,,,6,10,6,10,,,,,,,,,,,850.08,850.5791,850.8291,855.2919,space,4.4304,,855.2921,13,73,856.2903,856.2903,856.3126,,,,0,29,29,29,1,150,90,,,,,,,,
,,60ca4fc2b4b076bcf1454ab8,65af568451c2a1f8263dc840,2024-01-23_08h04.55.879,bars,2023.2.3,Win32,60.24096386,657b66ea316d21385b68909f,,,,,,,,,,,856.3129,857.306,,,857.8059,858.0586,,32,32,,,,,,,,,,,,,,,,bars/023.png,bars/mask006.png,,,,,,,,,,,,4,1,,,,,,,8,8,7,7,,,,,,,,,,,857.3061,857.8057,858.0586,861.0574,space,2.9933,,861.0575,12,83,862.0514,862.0514,862.0713,,,,0,30,30,30,1,20,115,,,,,,,,
,,60ca4fc2b4b076bcf1454ab8,65af568451c2a1f8263dc840,2024-01-23_08h04.55.879,bars,2023.2.3,Win32,60.24096386,657b66ea316d21385b68909f,,,,,,,,,,,862.0715,863.0668,,,863.5713,863.8211,,1,181,,,,,,,,,,,,,,,,bars/023.png,bars/mask006.png,,,,,,,,,,,,4,1,,,,,,,10,6,10,8,,,,,,,,,,,863.0669,863.5712,863.8211,867.4327,space,3.5964,,867.4328,19,66,868.4279,868.428,868.4466,,,,0,31,31,31,1,20,115,,,,,,,,
,,60ca4fc2b4b076bcf1454ab8,65af568451c2a1f8263dc840,2024-01-23_08h04.55.879,bars,2023.2.3,Win32,60.24096386,657b66ea316d21385b68909f,,,,,,,,,,,868.4469,869.444,,,869.9442,870.1935,,126,126,,,,,,,,,,,,,,,,bars/034.png,bars/mask002.png,,,,,,,,,,,,8,1,,,,,,,8,8,8,8,,,,,,,,,,,869.4441,869.9441,870.1936,875.3552,space,5.1347,,875.3553,1,61,876.3538,876.3538,876.3778,,,,0,32,32,32,1,125,65,,,,,,,,
,,60ca4fc2b4b076bcf1454ab8,65af568451c2a1f8263dc840,2024-01-23_08h04.55.879,bars,2023.2.3,Win32,60.24096386,657b66ea316d21385b68909f,,,,,,,,,,,876.3781,877.3734,,,877.8692,878.1188,,32,32,,,,,,,,,,,,,,,,bars/033.png,bars/mask008.png,,,,,,,,,,,,5,1,,,,,,,6,10,6,8,,,,,,,,,,,877.3734,877.8692,878.1189,880.0008,space,1.8723,,880.0009,7,57,880.9992,880.9993,881.0216,,,,0,33,33,33,1,25,155,,,,,,,,
,,60ca4fc2b4b076bcf1454ab8,65af568451c2a1f8263dc840,2024-01-23_08h04.55.879,bars,2023.2.3,Win32,60.24096386,657b66ea316d21385b68909f,,,,,,,,,,,881.0218,882.0151,,,882.5144,882.7644,,24,24,,,,,,,,,,,,,,,,bars/041.png,bars/mask007.png,,,,,,,,,,,,3,1,,,,,,,4,10,3,8,,,,,,,,,,,882.0152,882.5144,882.7646,887.6097,space,4.8292,,887.6098,4,61,888.6084,888.6084,888.6277,,,,0,34,34,34,1,20,85,,,,,,,,
,,60ca4fc2b4b076bcf1454ab8,65af568451c2a1f8263dc840,2024-01-23_08h04.55.879,bars,2023.2.3,Win32,60.24096386,657b66ea316d21385b68909f,,,,,,,,,,,888.6279,889.6247,,,890.1237,890.3733,,26,26,,,,,,,,,,,,,,,,bars/043.png,bars/mask004.png,,,,,,,,,,,,4,1,,,,,,,6,8,5,8,,,,,,,,,,,889.6248,890.1236,890.3734,892.5222,space,2.1373,,892.5223,4,76,893.5208,893.5209,893.5412,,,,0,35,35,35,1,30,130,,,,,,,,
,,60ca4fc2b4b076bcf1454ab8,65af568451c2a1f8263dc840,2024-01-23_08h04.55.879,bars,2023.2.3,Win32,60.24096386,657b66ea316d21385b68909f,,,,,,,,,,,893.5415,894.5356,,,895.0358,895.2853,,65,65,,,,,,,,,,,,,,,,bars/031.png,bars/mask006.png,,,,,,,,,,,,0,2,,,,,,,8,10,9,10,,,,,,,,,,,894.5357,895.0358,895.2854,901.0477,space,5.7379,,901.0478,55,30,902.0502,902.0503,902.0746,,,,0,36,36,36,1,120,35,,,,,,,,
,,60ca4fc2b4b076bcf1454ab8,65af568451c2a1f8263dc840,2024-01-23_08h04.55.879,bars,2023.2.3,Win32,60.24096386,657b66ea316d21385b68909f,,,,,,,,,,,902.0749,903.0778,,,903.5773,903.8269,,24,204,,,,,,,,,,,,,,,,bars/043.png,bars/mask009.png,,,,,,,,,,,,8,1,,,,,,,10,10,10,10,,,,,,,,,,,903.0779,903.5772,903.827,908.8236,space,4.981,,908.8237,6,74,909.821,909.8212,909.8418,,,,0,37,37,37,1,30,130,,,,,,,,
,,60ca4fc2b4b076bcf1454ab8,65af568451c2a1f8263dc840,2024-01-23_08h04.55.879,bars,2023.2.3,Win32,60.24096386,657b66ea316d21385b68909f,,,,,,,,,,,909.8421,910.8361,,,911.3363,911.5862,,130,130,,,,,,,,,,,,,,,,bars/004.png,bars/mask005.png,,,,,,,,,,,,8,2,,,,,,,8,10,7,10,,,,,,,,,,,910.8362,911.3362,911.5862,915.2329,space,3.6294,,915.2329,75,5,916.2315,916.2315,916.2536,,,,0,38,38,38,1,25,125,,,,,,,,
,,60ca4fc2b4b076bcf1454ab8,65af568451c2a1f8263dc840,2024-01-23_08h04.55.879,bars,2023.2.3,Win32,60.24096386,657b66ea316d21385b68909f,,,,,,,,,,,916.2539,917.2473,,,917.7474,917.9962,,128,128,,,,,,,,,,,,,,,,bars/037.png,bars/mask007.png,,,,,,,,,,,,2,1,,,,,,,10,8,9,9,,,,,,,,,,,917.2474,917.7473,917.9962,919.0458,space,1.0328,,919.0459,22,23,920.0449,920.045,920.0494,,,,0,39,39,39,1,150,105,,,,,,,,
,,60ca4fc2b4b076bcf1454ab8,65af568451c2a1f8263dc840,2024-01-23_08h04.55.879,bars,2023.2.3,Win32,60.24096386,657b66ea316d21385b68909f,,,,,,,,,,,920.0499,921.0434,,,921.5434,921.7927,,168,168,,,,,,,,,,,,,,,,bars/005.png,bars/mask005.png,,,,,,,,,,,,2,1,,,,,,,8,6,7,6,,,,,,,,,,,921.0435,921.5434,921.7928,923.7578,space,1.9413,,923.758,22,28,924.7569,924.7569,924.7789,,,,0,40,40,40,1,10,140,,,,,,,,
,,60ca4fc2b4b076bcf1454ab8,65af568451c2a1f8263dc840,2024-01-23_08h04.55.879,bars,2023.2.3,Win32,60.24096386,657b66ea316d21385b68909f,,,,,,,,,,,924.7792,925.7725,,,926.2721,926.526,,113,113,,,,,,,,,,,,,,,,bars/034.png,bars/mask001.png,,,,,,,,,,,,4,1,,,,,,,6,4,6,4,,,,,,,,,,,925.7726,926.272,926.5261,928.9694,space,2.4371,,928.9695,12,48,929.968,929.9681,929.9876,,,,0,41,41,41,1,125,65,,,,,,,,
,,60ca4fc2b4b076bcf1454ab8,65af568451c2a1f8263dc840,2024-01-23_08h04.55.879,bars,2023.2.3,Win32,60.24096386,657b66ea316d21385b68909f,,,,,,,,,,,929.9878,930.9884,,,931.4829,931.721,,142,142,,,,,,,,,,,,,,,,bars/011.png,bars/mask006.png,,,,,,,,,,,,1,1,,,,,,,4,2,3,3,,,,,,,,,,,930.9884,931.4829,931.7211,932.5877,space,0.861,,932.5878,18,57,933.5815,933.5816,933.5836,,,,0,42,42,42,1,160,85,,,,,,,,
,,60ca4fc2b4b076bcf1454ab8,65af568451c2a1f8263dc840,2024-01-23_08h04.55.879,bars,2023.2.3,Win32,60.24096386,657b66ea316d21385b68909f,,,,,,,,,,,933.5842,934.5844,,,935.0803,935.3297,,37,37,,,,,,,,,,,,,,,,bars/041.png,bars/mask007.png,,,,,,,,,,,,3,1,,,,,,,6,0,6,0,,,,,,,,,,,934.5844,935.0802,935.3298,937.261,space,1.909,,937.2611,17,48,938.2606,938.2607,938.2628,,,,0,43,43,43,1,20,85,,,,,,,,
,,60ca4fc2b4b076bcf1454ab8,65af568451c2a1f8263dc840,2024-01-23_08h04.55.879,bars,2023.2.3,Win32,60.24096386,657b66ea316d21385b68909f,,,,,,,,,,,938.2635,939.2594,,,939.7587,940.0087,,158,158,,,,,,,,,,,,,,,,bars/005.png,bars/mask009.png,,,,,,,,,,,,1,2,,,,,,,4,2,2,2,,,,,,,,,,,939.2595,939.7587,940.0089,943.9381,space,3.9069,,943.9381,32,18,944.9371,944.9371,944.962,,,,0,44,44,44,1,10,140,,,,,,,,
,,60ca4fc2b4b076bcf1454ab8,65af568451c2a1f8263dc840,2024-01-23_08h04.55.879,bars,2023.2.3,Win32,60.24096386,657b66ea316d21385b68909f,,,,,,,,,,,944.9623,945.9527,,,946.4517,946.7016,,107,-73,,,,,,,,,,,,,,,,bars/020.png,bars/mask005.png,,,,,,,,,,,,1,1,,,,,,,2,0,1,1,,,,,,,,,,,945.9528,946.4516,946.7017,951.1479,space,4.4237,,951.1481,8,63,952.1509,952.151,952.1722,,,,0,45,45,45,1,115,170,,,,,,,,
,,60ca4fc2b4b076bcf1454ab8,65af568451c2a1f8263dc840,2024-01-23_08h04.55.879,bars,2023.2.3,Win32,60.24096386,657b66ea316d21385b68909f,,,,,,,,,,,952.1724,953.167,,,953.6622,953.9115,,51,51,,,,,,,,,,,,,,,,bars/014.png,bars/mask008.png,,,,,,,,,,,,0,1,,,,,,,0,2,0,2,,,,,,,,,,,953.167,953.6621,953.9117,956.3595,space,2.4232,,956.3596,29,51,957.3582,957.3584,957.3802,,,,0,46,46,46,1,80,0,,,,,,,,
,,60ca4fc2b4b076bcf1454ab8,65af568451c2a1f8263dc840,2024-01-23_08h04.55.879,bars,2023.2.3,Win32,60.24096386,657b66ea316d21385b68909f,,,,,,,,,,,957.3804,958.3742,,,958.8729,959.1231,,99,99,,,,,,,,,,,,,,,,bars/046.png,bars/mask005.png,,,,,,,,,,,,2,2,,,,,,,2,4,3,4,,,,,,,,,,,958.3742,958.8729,959.1232,964.0686,space,4.9149,,964.0688,56,14,965.0671,965.0671,965.0894,,,,0,47,47,47,1,155,85,,,,,,,,
,,60ca4fc2b4b076bcf1454ab8,65af568451c2a1f8263dc840,2024-01-23_08h04.55.879,bars,2023.2.3,Win32,60.24096386,657b66ea316d21385b68909f,,,,,,,,,,,965.0896,966.0831,,,966.5829,966.8326,,157,157,,,,,,,,,,,,,,,,bars/014.png,bars/mask007.png,,,,,,,,,,,,1,2,,,,,,,4,2,4,4,,,,,,,,,,,966.0833,966.5828,966.8327,970.0673,space,3.2139,,970.0674,77,23,971.0614,971.0616,971.0829,,,,0,48,48,48,1,80,0,,,,,,,,
,,60ca4fc2b4b076bcf1454ab8,65af568451c2a1f8263dc840,2024-01-23_08h04.55.879,bars,2023.2.3,Win32,60.24096386,657b66ea316d21385b68909f,,,,,,,,,,,971.0833,972.077,,,972.5798,972.8262,,115,115,,,,,,,,,,,,,,,,bars/008.png,bars/mask009.png,,,,,,,,,,,,6,1,,,,,,,6,4,7,3,,,,,,,,,,,972.0771,972.5798,972.8263,973.6424,space,0.7999,,973.6425,5,65,974.6412,974.6413,974.6455,,,,0,49,49,49,1,110,0,,,,,,,,
,,60ca4fc2b4b076bcf1454ab8,65af568451c2a1f8263dc840,2024-01-23_08h04.55.879,bars,2023.2.3,Win32,60.24096386,657b66ea316d21385b68909f,,,,,,,,,,,,,,,,,,,,,,,,,,,,,,,,,,,,,,,,,,,,,,,,,,,,,,,,,,,,,,,,,,,,,,,,,,,,,,,,,,,,,,,,,,,,,974.6459,1034.6371,0,1,1,4,1,sequence_tables/blk025.csv
,,60ca4fc2b4b076bcf1454ab8,65af568451c2a1f8263dc840,2024-01-23_08h04.55.879,bars,2023.2.3,Win32,60.24096386,657b66ea316d21385b68909f,,,,,,,,,,,1045.9483,1046.937,,,1047.4249,1047.6705,,113,113,,,,,,,,,,,,,,,,bars/012.png,bars/mask001.png,,,,,,,,,,,,1,1,,,,,,,5,8,5,7,,,,,,1034.6573,1045.9221,space,11.2505,,1046.9371,1047.4248,1047.6706,1051.1547,space,3.4646,,1051.1547,23,82,1052.1482,1052.1483,1052.1624,,,,0,0,0,0,1,90,15,,,,,,,,
,,60ca4fc2b4b076bcf1454ab8,65af568451c2a1f8263dc840,2024-01-23_08h04.55.879,bars,2023.2.3,Win32,60.24096386,657b66ea316d21385b68909f,,,,,,,,,,,1052.1626,1053.1515,,,1053.648,1053.8974,,143,143,,,,,,,,,,,,,,,,bars/034.png,bars/mask001.png,,,,,,,,,,,,2,1,,,,,,,3,6,4,8,,,,,,,,,,,1053.1516,1053.6478,1053.8975,1056.5789,space,2.6552,,1056.5791,18,78,1057.581,1057.5811,1057.6033,,,,0,1,1,1,1,125,65,,,,,,,,
,,60ca4fc2b4b076bcf1454ab8,65af568451c2a1f8263dc840,2024-01-23_08h04.55.879,bars,2023.2.3,Win32,60.24096386,657b66ea316d21385b68909f,,,,,,,,,,,1057.6036,1058.5969,,,1059.0921,1059.3416,,60,60,,,,,,,,,,,,,,,,bars/013.png,bars/mask002.png,,,,,,,,,,,,3,1,,,,,,,5,8,5,9,,,,,,,,,,,1058.5969,1059.092,1059.3416,1061.5619,space,2.199,,1061.562,15,50,1062.5548,1062.5548,1062.5727,,,,0,2,2,2,1,75,10,,,,,,,,
,,60ca4fc2b4b076bcf1454ab8,65af568451c2a1f8263dc840,2024-01-23_08h04.55.879,bars,2023.2.3,Win32,60.24096386,657b66ea316d21385b68909f,,,,,,,,,,,1062.5732,1063.5711,,,1064.07,1064.3202,,135,135,,,,,,,,,,,,,,,,bars/049.png,bars/mask009.png,,,,,,,,,,,,2,2,,,,,,,7,6,7,5,,,,,,,,,,,1063.5712,1064.0699,1064.3203,1065.9855,space,1.6538,,1065.9857,25,20,1066.9885,1066.9886,1066.9933,,,,0,3,3,3,1,160,115,,,,,,,,
,,60ca4fc2b4b076bcf1454ab8,65af568451c2a1f8263dc840,2024-01-23_08h04.55.879,bars,2023.2.3,Win32,60.24096386,657b66ea316d21385b68909f,,,,,,,,,,,1066.9939,1067.9833,,,1068.4829,1068.7367,,123,123,,,,,,,,,,,,,,,,bars/046.png,bars/mask000.png,,,,,,,,,,,,0,1,,,,,,,9,4,8,2,,,,,,,,,,,1067.9834,1068.4828,1068.7367,1072.3291,space,3.5863,,1072.3292,32,38,1073.328,1073.3281,1073.35,,,,0,4,4,4,1,155,85,,,,,,,,
,,60ca4fc2b4b076bcf1454ab8,65af568451c2a1f8263dc840,2024-01-23_08h04.55.879,bars,2023.2.3,Win32,60.24096386,657b66ea316d21385b68909f,,,,,,,,,,,1073.3503,1074.3435,,,1074.8435,1075.0934,,151,151,,,,,,,,,,,,,,,,bars/016.png,bars/mask006.png,,,,,,,,,,,,2,2,,,,,,,7,6,8,4,,,,,,,,,,,1074.3435,1074.8434,1075.0936,1076.8414,space,1.7178,,1076.8415,69,14,1077.8441,1077.8442,1077.8483,,,,0,5,5,5,1,40,165,,,,,,,,
,,60ca4fc2b4b076bcf1454ab8,65af568451c2a1f8263dc840,2024-01-23_08h04.55.879,bars,2023.2.3,Win32,60.24096386,657b66ea316d21385b68909f,,,,,,,,,,,1077.8488,1078.8392,,,1079.339,1079.5915,,57,57,,,,,,,,,,,,,,,,bars/027.png,bars/mask006.png,,,,,,,,,,,,5,2,,,,,,,9,8,9,7,,,,,,,,,,,1078.8394,1079.3389,1079.5915,1083.2686,space,3.6673,,1083.2688,53,7,1084.2668,1084.2669,1084.2807,,,,0,6,6,6,1,110,50,,,,,,,,
,,60ca4fc2b4b076bcf1454ab8,65af568451c2a1f8263dc840,2024-01-23_08h04.55.879,bars,2023.2.3,Win32,60.24096386,657b66ea316d21385b68909f,,,,,,,,,,,1084.281,1085.2832,,,1085.7863,1086.032,,137,137,,,,,,,,,,,,,,,,bars/015.png,bars/mask006.png,,,,,,,,,,,,2,2,,,,,,,7,10,7,10,,,,,,,,,,,1085.2833,1085.7863,1086.0321,1091.3438,space,5.2813,,1091.344,27,23,1092.3427,1092.3428,1092.3633,,,,0,7,7,7,1,110,160,,,,,,,,
,,60ca4fc2b4b076bcf1454ab8,65af568451c2a1f8263dc840,2024-01-23_08h04.55.879,bars,2023.2.3,Win32,60.24096386,657b66ea316d21385b68909f,,,,,,,,,,,1092.3635,1093.363,,,1093.8579,1094.1077,,154,154,,,,,,,,,,,,,,,,bars/046.png,bars/mask006.png,,,,,,,,,,,,4,1,,,,,,,5,10,4,9,,,,,,,,,,,1093.3631,1093.8578,1094.1077,1098.2374,space,4.1028,,1098.2374,1,69,1099.236,1099.2363,1099.2591,,,,0,8,8,8,1,155,85,,,,,,,,
,,60ca4fc2b4b076bcf1454ab8,65af568451c2a1f8263dc840,2024-01-23_08h04.55.879,bars,2023.2.3,Win32,60.24096386,657b66ea316d21385b68909f,,,,,,,,,,,1099.2594,1100.2516,,,1100.7511,1100.9889,,83,83,,,,,,,,,,,,,,,,bars/022.png,bars/mask007.png,,,,,,,,,,,,4,1,,,,,,,7,8,7,8,,,,,,,,,,,1100.2517,1100.7511,1100.989,1101.6708,space,0.6664,,1101.6708,12,63,1102.6662,1102.6664,1102.6685,,,,0,9,9,9,1,95,20,,,,,,,,
,,60ca4fc2b4b076bcf1454ab8,65af568451c2a1f8263dc840,2024-01-23_08h04.55.879,bars,2023.2.3,Win32,60.24096386,657b66ea316d21385b68909f,,,,,,,,,,,1102.6688,1103.6648,,,1104.1644,1104.4135,,111,111,,,,,,,,,,,,,,,,bars/020.png,bars/mask001.png,,,,,,,,,,,,9,1,,,,,,,9,6,10,6,,,,,,,,,,,1103.665,1104.1643,1104.4136,1108.4102,space,3.9646,,1108.4103,4,59,1109.4094,1109.4094,1109.43,,,,0,10,10,10,1,115,170,,,,,,,,
,,60ca4fc2b4b076bcf1454ab8,65af568451c2a1f8263dc840,2024-01-23_08h04.55.879,bars,2023.2.3,Win32,60.24096386,657b66ea316d21385b68909f,,,,,,,,,,,1109.4302,1110.4251,,,1110.9293,1111.1794,,64,64,,,,,,,,,,,,,,,,bars/043.png,bars/mask001.png,,,,,,,,,,,,0,1,,,,,,,10,8,10,7,,,,,,,,,,,1110.4252,1110.9292,1111.1794,1114.4046,space,3.2113,,1114.4047,34,66,1115.4037,1115.4038,1115.425,,,,0,11,11,11,1,30,130,,,,,,,,
,,60ca4fc2b4b076bcf1454ab8,65af568451c2a1f8263dc840,2024-01-23_08h04.55.879,bars,2023.2.3,Win32,60.24096386,657b66ea316d21385b68909f,,,,,,,,,,,1115.4251,1116.4197,,,1116.9189,1117.1689,,59,59,,,,,,,,,,,,,,,,bars/004.png,bars/mask005.png,,,,,,,,,,,,0,1,,,,,,,8,10,10,10,,,,,,,,,,,1116.4197,1116.9188,1117.169,1121.5529,space,4.3631,,1121.553,34,66,1122.5466,1122.5468,1122.5691,,,,0,12,12,12,1,25,125,,,,,,,,
,,60ca4fc2b4b076bcf1454ab8,65af568451c2a1f8263dc840,2024-01-23_08h04.55.879,bars,2023.2.3,Win32,60.24096386,657b66ea316d21385b68909f,,,,,,,,,,,1122.5694,1123.5623,,,1124.0616,1124.3112,,99,99,,,,,,,,,,,,,,,,bars/002.png,bars/mask001.png,,,,,,,,,,,,4,2,,,,,,,6,8,7,8,,,,,,,,,,,1123.5625,1124.0616,1124.3113,1126.6972,space,2.3663,,1126.6972,31,14,1127.6914,1127.6915,1127.7081,,,,0,13,13,13,1,130,85,,,,,,,,
,,60ca4fc2b4b076bcf1454ab8,65af568451c2a1f8263dc840,2024-01-23_08h04.55.879,bars,2023.2.3,Win32,60.24096386,657b66ea316d21385b68909f,,,,,,,,,,,1127.7085,1128.7069,,,1129.2067,1129.4561,,166,166,,,,,,,,,,,,,,,,bars/046.png,bars/mask003.png,,,,,,,,,,,,1,1,,,,,,,4,10,1,10,,,,,,,,,,,1128.7069,1129.2065,1129.4562,1131.4596,space,1.9824,,1131.4597,11,81,1132.4531,1132.4532,1132.4712,,,,0,14,14,14,1,155,85,,,,,,,,
,,60ca4fc2b4b076bcf1454ab8,65af568451c2a1f8263dc840,2024-01-23_08h04.55.879,bars,2023.2.3,Win32,60.24096386,657b66ea316d21385b68909f,,,,,,,,,,,1132.4715,1133.4689,,,1133.9689,1134.2231,,66,66,,,,,,,,,,,,,,,,bars/048.png,bars/mask000.png,,,,,,,,,,,,3,1,,,,,,,6,8,7,7,,,,,,,,,,,1133.469,1133.9688,1134.2233,1136.0008,space,1.7604,,1136.001,16,71,1136.9994,1136.9995,1137.0216,,,,0,15,15,15,1,50,175,,,,,,,,
,,60ca4fc2b4b076bcf1454ab8,65af568451c2a1f8263dc840,2024-01-23_08h04.55.879,bars,2023.2.3,Win32,60.24096386,657b66ea316d21385b68909f,,,,,,,,,,,1137.0218,1138.0148,,,1138.5142,1138.764,,34,34,,,,,,,,,,,,,,,,bars/026.png,bars/mask007.png,,,,,,,,,,,,3,1,,,,,,,4,6,3,5,,,,,,,,,,,1138.0149,1138.5142,1138.7641,1141.2624,space,2.4727,,1141.2626,1,51,1142.2609,1142.261,1142.2817,,,,0,16,16,16,1,35,85,,,,,,,,
,,60ca4fc2b4b076bcf1454ab8,65af568451c2a1f8263dc840,2024-01-23_08h04.55.879,bars,2023.2.3,Win32,60.24096386,657b66ea316d21385b68909f,,,,,,,,,,,1142.2819,1143.2763,,,1143.7756,1144.0259,,68,68,,,,,,,,,,,,,,,,bars/038.png,bars/mask001.png,,,,,,,,,,,,7,2,,,,,,,6,8,6,8,,,,,,,,,,,1143.2764,1143.7754,1144.026,1148.0555,space,4.0032,,1148.0556,83,2,1149.0583,1149.0584,1149.0794,,,,0,17,17,17,1,165,70,,,,,,,,
,,60ca4fc2b4b076bcf1454ab8,65af568451c2a1f8263dc840,2024-01-23_08h04.55.879,bars,2023.2.3,Win32,60.24096386,657b66ea316d21385b68909f,,,,,,,,,,,1149.0796,1150.0741,,,1150.5693,1150.8188,,102,102,,,,,,,,,,,,,,,,bars/009.png,bars/mask008.png,,,,,,,,,,,,7,2,,,,,,,8,10,6,8,,,,,,,,,,,1150.0741,1150.5693,1150.8189,1155.215,space,4.3641,,1155.2152,87,3,1156.2136,1156.2136,1156.234,,,,0,18,18,18,1,15,105,,,,,,,,
,,60ca4fc2b4b076bcf1454ab8,65af568451c2a1f8263dc840,2024-01-23_08h04.55.879,bars,2023.2.3,Win32,60.24096386,657b66ea316d21385b68909f,,,,,,,,,,,1156.2342,1157.2294,,,1157.7284,1157.9831,,121,121,,,,,,,,,,,,,,,,bars/004.png,bars/mask003.png,,,,,,,,,,,,8,2,,,,,,,6,8,6,9,,,,,,,,,,,1157.2295,1157.7284,1157.9832,1159.777,space,1.7874,,1159.7772,84,4,1160.7758,1160.7759,1160.7964,,,,0,19,19,19,1,25,125,,,,,,,,
,,60ca4fc2b4b076bcf1454ab8,65af568451c2a1f8263dc840,2024-01-23_08h04.55.879,bars,2023.2.3,Win32,60.24096386,657b66ea316d21385b68909f,,,,,,,,,,,1160.7966,1161.7961,,,1162.2914,1162.5405,,160,-20,,,,,,,,,,,,,,,,bars/033.png,bars/mask006.png,,,,,,,,,,,,8,2,,,,,,,4,10,5,10,,,,,,,,,,,1161.7962,1162.2913,1162.5406,1165.2555,space,2.7048,,1165.2557,45,5,1166.2537,1166.2538,1166.2556,,,,0,20,20,20,1,25,155,,,,,,,,
,,60ca4fc2b4b076bcf1454ab8,65af568451c2a1f8263dc840,2024-01-23_08h04.55.879,bars,2023.2.3,Win32,60.24096386,657b66ea316d21385b68909f,,,,,,,,,,,1166.2562,1167.253,,,1167.7524,1168.002,,153,153,,,,,,,,,,,,,,,,bars/033.png,bars/mask001.png,,,,,,,,,,,,8,2,,,,,,,2,10,1,9,,,,,,,,,,,1167.2531,1167.7523,1168.0021,1170.483,space,2.4498,,1170.4831,52,2,1171.482,1171.4821,1171.5022,,,,0,21,21,21,1,25,155,,,,,,,,
,,60ca4fc2b4b076bcf1454ab8,65af568451c2a1f8263dc840,2024-01-23_08h04.55.879,bars,2023.2.3,Win32,60.24096386,657b66ea316d21385b68909f,,,,,,,,,,,1171.5024,1172.4971,,,1173.0024,1173.2469,,116,116,,,,,,,,,,,,,,,,bars/043.png,bars/mask009.png,,,,,,,,,,,,4,2,,,,,,,4,8,4,8,,,,,,,,,,,1172.4971,1173.0023,1173.2469,1177.127,space,3.8524,,1177.1272,86,14,1178.1254,1178.1255,1178.1457,,,,0,22,22,22,1,30,130,,,,,,,,
,,60ca4fc2b4b076bcf1454ab8,65af568451c2a1f8263dc840,2024-01-23_08h04.55.879,bars,2023.2.3,Win32,60.24096386,657b66ea316d21385b68909f,,,,,,,,,,,1178.146,1179.141,,,1179.6404,1179.8951,,34,34,,,,,,,,,,,,,,,,bars/013.png,bars/mask007.png,,,,,,,,,,,,1,2,,,,,,,6,6,5,6,,,,,,,,,,,1179.141,1179.6403,1179.8952,1183.9529,space,4.0411,,1183.9529,41,24,1184.9521,1184.9522,1184.9726,,,,0,23,23,23,1,75,10,,,,,,,,
,,60ca4fc2b4b076bcf1454ab8,65af568451c2a1f8263dc840,2024-01-23_08h04.55.879,bars,2023.2.3,Win32,60.24096386,657b66ea316d21385b68909f,,,,,,,,,,,1184.9728,1185.9678,,,1186.4672,1186.7168,,117,117,,,,,,,,,,,,,,,,bars/049.png,bars/mask006.png,,,,,,,,,,,,9,2,,,,,,,4,8,2,10,,,,,,,,,,,1185.968,1186.4672,1186.7168,1190.6688,space,3.9307,,1190.6691,43,2,1191.6626,1191.6628,1191.6805,,,,0,24,24,24,1,160,115,,,,,,,,
,,60ca4fc2b4b076bcf1454ab8,65af568451c2a1f8263dc840,2024-01-23_08h04.55.879,bars,2023.2.3,Win32,60.24096386,657b66ea316d21385b68909f,,,,,,,,,,,1191.6807,1192.6827,,,1193.1779,1193.4317,,158,158,,,,,,,,,,,,,,,,bars/036.png,bars/mask007.png,,,,,,,,,,,,3,1,,,,,,,6,10,6,10,,,,,,,,,,,1192.6827,1193.1778,1193.4318,1195.697,space,2.2596,,1195.6971,13,42,1196.6902,1196.6903,1196.7104,,,,0,25,25,25,1,145,20,,,,,,,,
,,60ca4fc2b4b076bcf1454ab8,65af568451c2a1f8263dc840,2024-01-23_08h04.55.879,bars,2023.2.3,Win32,60.24096386,657b66ea316d21385b68909f,,,,,,,,,,,1196.7106,1197.711,,,1198.2064,1198.4554,,163,163,,,,,,,,,,,,,,,,bars/033.png,bars/mask002.png,,,,,,,,,,,,7,2,,,,,,,4,10,4,9,,,,,,,,,,,1197.711,1198.2063,1198.4555,1199.1547,space,0.678,,1199.1548,42,8,1200.154,1200.1541,1200.1579,,,,0,26,26,26,1,25,155,,,,,,,,
,,60ca4fc2b4b076bcf1454ab8,65af568451c2a1f8263dc840,2024-01-23_08h04.55.879,bars,2023.2.3,Win32,60.24096386,657b66ea316d21385b68909f,,,,,,,,,,,1200.1586,1201.1527,,,1201.6523,1201.9025,,132,132,,,,,,,,,,,,,,,,bars/035.png,bars/mask003.png,,,,,,,,,,,,0,1,,,,,,,6,8,6,8,,,,,,,,,,,1201.1528,1201.6522,1201.9026,1202.3686,space,0.4354,,1202.3687,43,72,1203.3677,1203.3678,1203.3722,,,,0,27,27,27,1,175,60,,,,,,,,
,,60ca4fc2b4b076bcf1454ab8,65af568451c2a1f8263dc840,2024-01-23_08h04.55.879,bars,2023.2.3,Win32,60.24096386,657b66ea316d21385b68909f,,,,,,,,,,,1203.3728,1204.3663,,,1204.866,1205.1161,,109,109,,,,,,,,,,,,,,,,bars/030.png,bars/mask004.png,,,,,,,,,,,,0,1,,,,,,,8,6,9,7,,,,,,,,,,,1204.3663,1204.8659,1205.1163,1207.8836,space,2.7469,,1207.8836,31,44,1208.8786,1208.8788,1208.899,,,,0,28,28,28,1,140,65,,,,,,,,
,,60ca4fc2b4b076bcf1454ab8,65af568451c2a1f8263dc840,2024-01-23_08h04.55.879,bars,2023.2.3,Win32,60.24096386,657b66ea316d21385b68909f,,,,,,,,,,,1208.8993,1209.8942,,,1210.3938,1210.6482,,157,157,,,,,,,,,,,,,,,,bars/040.png,bars/mask009.png,,,,,,,,,,,,4,1,,,,,,,10,8,9,8,,,,,,,,,,,1209.8943,1210.3936,1210.6484,1211.6931,space,1.0301,,1211.6933,17,28,1212.6909,1212.6909,1212.692,,,,0,29,29,29,1,140,5,,,,,,,,
,,60ca4fc2b4b076bcf1454ab8,65af568451c2a1f8263dc840,2024-01-23_08h04.55.879,bars,2023.2.3,Win32,60.24096386,657b66ea316d21385b68909f,,,,,,,,,,,1212.6923,1213.6904,,,1214.1903,1214.4402,,154,-26,,,,,,,,,,,,,,,,bars/043.png,bars/mask004.png,,,,,,,,,,,,2,2,,,,,,,8,10,7,10,,,,,,,,,,,1213.6904,1214.1901,1214.4403,1217.7045,space,3.2365,,1217.7046,56,24,1218.7071,1218.7071,1218.7311,,,,0,30,30,30,1,30,130,,,,,,,,
,,60ca4fc2b4b076bcf1454ab8,65af568451c2a1f8263dc840,2024-01-23_08h04.55.879,bars,2023.2.3,Win32,60.24096386,657b66ea316d21385b68909f,,,,,,,,,,,1218.7314,1219.7345,,,1220.2343,1220.4841,,164,164,,,,,,,,,,,,,,,,bars/008.png,bars/mask002.png,,,,,,,,,,,,5,2,,,,,,,10,10,9,10,,,,,,,,,,,1219.7345,1220.2342,1220.4841,1224.2302,space,3.7409,,1224.2303,54,16,1225.2292,1225.2292,1225.2505,,,,0,31,31,31,1,110,0,,,,,,,,
,,60ca4fc2b4b076bcf1454ab8,65af568451c2a1f8263dc840,2024-01-23_08h04.55.879,bars,2023.2.3,Win32,60.24096386,657b66ea316d21385b68909f,,,,,,,,,,,1225.2508,1226.2449,,,1226.7445,1226.9943,,145,145,,,,,,,,,,,,,,,,bars/020.png,bars/mask003.png,,,,,,,,,,,,1,2,,,,,,,10,10,10,8,,,,,,,,,,,1226.2449,1226.7445,1226.9943,1229.7583,space,2.7477,,1229.7584,30,25,1230.7575,1230.7575,1230.7774,,,,0,32,32,32,1,115,170,,,,,,,,
,,60ca4fc2b4b076bcf1454ab8,65af568451c2a1f8263dc840,2024-01-23_08h04.55.879,bars,2023.2.3,Win32,60.24096386,657b66ea316d21385b68909f,,,,,,,,,,,1230.7777,1231.7731,,,1232.2723,1232.5222,,3,183,,,,,,,,,,,,,,,,bars/044.png,bars/mask000.png,,,,,,,,,,,,1,2,,,,,,,8,8,7,10,,,,,,,,,,,1231.7731,1232.2722,1232.5222,1234.3204,space,1.7805,,1234.3205,72,28,1235.3196,1235.3197,1235.3409,,,,0,33,33,33,1,75,155,,,,,,,,
,,60ca4fc2b4b076bcf1454ab8,65af568451c2a1f8263dc840,2024-01-23_08h04.55.879,bars,2023.2.3,Win32,60.24096386,657b66ea316d21385b68909f,,,,,,,,,,,1235.3411,1236.3352,,,1236.8345,1237.0844,,110,110,,,,,,,,,,,,,,,,bars/003.png,bars/mask004.png,,,,,,,,,,,,0,2,,,,,,,6,6,8,6,,,,,,,,,,,1236.3352,1236.8345,1237.0845,1237.8505,space,0.749,,1237.8505,85,30,1238.8492,1238.8493,1238.8507,,,,0,34,34,34,1,25,140,,,,,,,,
,,60ca4fc2b4b076bcf1454ab8,65af568451c2a1f8263dc840,2024-01-23_08h04.55.879,bars,2023.2.3,Win32,60.24096386,657b66ea316d21385b68909f,,,,,,,,,,,1238.8512,1239.8483,,,1240.348,1240.5977,,18,18,,,,,,,,,,,,,,,,bars/015.png,bars/mask000.png,,,,,,,,,,,,0,2,,,,,,,4,8,3,9,,,,,,,,,,,1239.8485,1240.3479,1240.5977,1241.5802,space,0.9694,,1241.5803,88,38,1242.579,1242.579,1242.6013,,,,0,35,35,35,1,110,160,,,,,,,,
,,60ca4fc2b4b076bcf1454ab8,65af568451c2a1f8263dc840,2024-01-23_08h04.55.879,bars,2023.2.3,Win32,60.24096386,657b66ea316d21385b68909f,,,,,,,,,,,1242.6016,1243.5947,,,1244.0943,1244.3437,,150,150,,,,,,,,,,,,,,,,bars/049.png,bars/mask006.png,,,,,,,,,,,,5,1,,,,,,,6,6,8,5,,,,,,,,,,,1243.5947,1244.0942,1244.3438,1245.2768,space,0.9197,,1245.277,10,35,1246.2752,1246.2753,1246.2786,,,,0,36,36,36,1,160,115,,,,,,,,
,,60ca4fc2b4b076bcf1454ab8,65af568451c2a1f8263dc840,2024-01-23_08h04.55.879,bars,2023.2.3,Win32,60.24096386,657b66ea316d21385b68909f,,,,,,,,,,,1246.2792,1247.2745,,,1247.774,1248.0239,,28,28,,,,,,,,,,,,,,,,bars/025.png,bars/mask004.png,,,,,,,,,,,,6,2,,,,,,,4,8,4,10,,,,,,,,,,,1247.2745,1247.774,1248.0239,1248.8895,space,0.8593,,1248.8895,77,12,1249.8886,1249.8887,1249.8925,,,,0,37,37,37,1,105,40,,,,,,,,
,,60ca4fc2b4b076bcf1454ab8,65af568451c2a1f8263dc840,2024-01-23_08h04.55.879,bars,2023.2.3,Win32,60.24096386,657b66ea316d21385b68909f,,,,,,,,,,,1249.8932,1250.8876,,,1251.3869,1251.6368,,48,228,,,,,,,,,,,,,,,,bars/041.png,bars/mask006.png,,,,,,,,,,,,0,1,,,,,,,2,6,3,5,,,,,,,,,,,1250.8876,1251.3869,1251.6368,1258.6629,space,7.0097,,1258.663,28,37,1259.6621,1259.6622,1259.6824,,,,0,38,38,38,1,20,85,,,,,,,,
,,60ca4fc2b4b076bcf1454ab8,65af568451c2a1f8263dc840,2024-01-23_08h04.55.879,bars,2023.2.3,Win32,60.24096386,657b66ea316d21385b68909f,,,,,,,,,,,1259.6826,1260.6778,,,1261.1768,1261.4273,,115,115,,,,,,,,,,,,,,,,bars/004.png,bars/mask005.png,,,,,,,,,,,,2,2,,,,,,,0,4,0,3,,,,,,,,,,,1260.6778,1261.1768,1261.4273,1264.391,space,2.9529,,1264.3911,90,10,1265.3898,1265.39,1265.4128,,,,0,39,39,39,1,25,125,,,,,,,,
,,60ca4fc2b4b076bcf1454ab8,65af568451c2a1f8263dc840,2024-01-23_08h04.55.879,bars,2023.2.3,Win32,60.24096386,657b66ea316d21385b68909f,,,,,,,,,,,1265.4131,1266.4054,,,1266.9055,1267.155,,39,219,,,,,,,,,,,,,,,,bars/005.png,bars/mask007.png,,,,,,,,,,,,0,1,,,,,,,2,2,1,2,,,,,,,,,,,1266.4054,1266.9053,1267.1551,1269.886,space,2.7189,,1269.886,29,79,1270.8846,1270.8846,1270.9067,,,,0,40,40,40,1,10,140,,,,,,,,
,,60ca4fc2b4b076bcf1454ab8,65af568451c2a1f8263dc840,2024-01-23_08h04.55.879,bars,2023.2.3,Win32,60.24096386,657b66ea316d21385b68909f,,,,,,,,,,,1270.907,1271.9002,,,1272.3996,1272.6494,,120,120,,,,,,,,,,,,,,,,bars/039.png,bars/mask004.png,,,,,,,,,,,,2,2,,,,,,,4,4,4,3,,,,,,,,,,,1271.9002,1272.3995,1272.6494,1274.0152,space,1.3495,,1274.0153,55,15,1275.014,1275.014,1275.0374,,,,0,41,41,41,1,175,105,,,,,,,,
,,60ca4fc2b4b076bcf1454ab8,65af568451c2a1f8263dc840,2024-01-23_08h04.55.879,bars,2023.2.3,Win32,60.24096386,657b66ea316d21385b68909f,,,,,,,,,,,1275.0377,1276.0295,,,1276.5292,1276.7787,,168,168,,,,,,,,,,,,,,,,bars/011.png,bars/mask005.png,,,,,,,,,,,,2,1,,,,,,,2,6,3,5,,,,,,,,,,,1276.0296,1276.5292,1276.7788,1280.9414,space,4.1563,,1280.9415,8,83,1281.9406,1281.9406,1281.9621,,,,0,42,42,42,1,160,85,,,,,,,,
,,60ca4fc2b4b076bcf1454ab8,65af568451c2a1f8263dc840,2024-01-23_08h04.55.879,bars,2023.2.3,Win32,60.24096386,657b66ea316d21385b68909f,,,,,,,,,,,1281.9623,1282.9563,,,1283.4557,1283.7057,,114,114,,,,,,,,,,,,,,,,bars/010.png,bars/mask004.png,,,,,,,,,,,,0,1,,,,,,,0,4,0,3,,,,,,,,,,,1282.9563,1283.4557,1283.7057,1288.1181,space,4.3962,,1288.1181,51,59,1289.1167,1289.1167,1289.1384,,,,0,43,43,43,1,165,55,,,,,,,,
,,60ca4fc2b4b076bcf1454ab8,65af568451c2a1f8263dc840,2024-01-23_08h04.55.879,bars,2023.2.3,Win32,60.24096386,657b66ea316d21385b68909f,,,,,,,,,,,1289.1387,1290.1324,,,1290.6322,1290.8818,,125,125,,,,,,,,,,,,,,,,bars/029.png,bars/mask002.png,,,,,,,,,,,,0,1,,,,,,,2,2,0,2,,,,,,,,,,,1290.1324,1290.6321,1290.8818,1296.2767,space,5.3839,,1296.2768,35,80,1297.2756,1297.2757,1297.2966,,,,0,44,44,44,1,90,45,,,,,,,,
,,60ca4fc2b4b076bcf1454ab8,65af568451c2a1f8263dc840,2024-01-23_08h04.55.879,bars,2023.2.3,Win32,60.24096386,657b66ea316d21385b68909f,,,,,,,,,,,1297.2968,1298.2913,,,1298.791,1299.0405,,167,167,,,,,,,,,,,,,,,,bars/033.png,bars/mask001.png,,,,,,,,,,,,1,2,,,,,,,4,0,5,1,,,,,,,,,,,1298.2914,1298.7909,1299.0406,1305.0181,space,5.9599,,1305.0181,38,12,1306.0168,1306.0169,1306.0383,,,,0,45,45,45,1,25,155,,,,,,,,
,,60ca4fc2b4b076bcf1454ab8,65af568451c2a1f8263dc840,2024-01-23_08h04.55.879,bars,2023.2.3,Win32,60.24096386,657b66ea316d21385b68909f,,,,,,,,,,,1306.0385,1307.0327,,,1307.5324,1307.7817,,175,175,,,,,,,,,,,,,,,,bars/039.png,bars/mask002.png,,,,,,,,,,,,2,1,,,,,,,2,0,2,1,,,,,,,,,,,1307.0327,1307.5323,1307.7818,1311.9614,space,4.1682,,1311.9615,0,70,1312.9601,1312.9602,1312.9805,,,,0,46,46,46,1,175,105,,,,,,,,
,,60ca4fc2b4b076bcf1454ab8,65af568451c2a1f8263dc840,2024-01-23_08h04.55.879,bars,2023.2.3,Win32,60.24096386,657b66ea316d21385b68909f,,,,,,,,,,,1312.9806,1313.9757,,,1314.4752,1314.7253,,46,46,,,,,,,,,,,,,,,,bars/041.png,bars/mask004.png,,,,,,,,,,,,0,1,,,,,,,0,2,1,2,,,,,,,,,,,1313.9758,1314.4752,1314.7253,1315.7411,space,1.0055,,1315.7411,26,39,1316.74,1316.74,1316.7413,,,,0,47,47,47,1,20,85,,,,,,,,
,,60ca4fc2b4b076bcf1454ab8,65af568451c2a1f8263dc840,2024-01-23_08h04.55.879,bars,2023.2.3,Win32,60.24096386,657b66ea316d21385b68909f,,,,,,,,,,,1316.7418,1317.7389,,,1318.2386,1318.4881,,176,176,,,,,,,,,,,,,,,,bars/047.png,bars/mask003.png,,,,,,,,,,,,1,1,,,,,,,2,0,2,0,,,,,,,,,,,1317.739,1318.2385,1318.4881,1319.4537,space,0.9601,,1319.4537,19,74,1320.4531,1320.4531,1320.4543,,,,0,48,48,48,1,15,70,,,,,,,,
,,60ca4fc2b4b076bcf1454ab8,65af568451c2a1f8263dc840,2024-01-23_08h04.55.879,bars,2023.2.3,Win32,60.24096386,657b66ea316d21385b68909f,,,,,,,,,,,1320.4548,1321.4519,,,1321.9515,1322.2013,,170,-10,,,,,,,,,,,,,,,,bars/023.png,bars/mask003.png,,,,,,,,,,,,0,1,,,,,,,4,0,4,0,,,,,,,,,,,1321.4519,1321.9514,1322.2014,1326.2806,space,4.0694,,1326.2807,30,55,1327.2795,1327.2795,1327.3009,,,,0,49,49,49,1,20,115,,,,,,,,
,,60ca4fc2b4b076bcf1454ab8,65af568451c2a1f8263dc840,2024-01-23_08h04.55.879,bars,2023.2.3,Win32,60.24096386,657b66ea316d21385b68909f,,,,,,,,,,,,,,,,,,,,,,,,,,,,,,,,,,,,,,,,,,,,,,,,,,,,,,,,,,,,,,,,,,,,,,,,,,,,,,,,,,,,,,,,,,,,,1327.3011,1387.3043,0,2,2,0,1,sequence_tables/blk001.csv
,,60ca4fc2b4b076bcf1454ab8,65af568451c2a1f8263dc840,2024-01-23_08h04.55.879,bars,2023.2.3,Win32,60.24096386,657b66ea316d21385b68909f,,,,,,,,,,,1395.4367,1396.4284,,,1396.9281,1397.1773,,112,112,,,,,,,,,,,,,,,,bars/029.png,bars/mask002.png,,,,,,,,,,,,1,1,,,,,,,2,3,5,3,,,,,,1387.3259,1395.4131,space,8.0735,,1396.4285,1396.928,1397.1773,1400.3584,space,3.1688,,1400.3585,22,67,1401.3569,1401.357,1401.3764,,,,0,0,0,0,1,90,45,,,,,,,,
,,60ca4fc2b4b076bcf1454ab8,65af568451c2a1f8263dc840,2024-01-23_08h04.55.879,bars,2023.2.3,Win32,60.24096386,657b66ea316d21385b68909f,,,,,,,,,,,1401.3766,1402.3728,,,1402.8723,1403.122,,45,45,,,,,,,,,,,,,,,,bars/023.png,bars/mask009.png,,,,,,,,,,,,0,1,,,,,,,4,1,3,1,,,,,,,,,,,1402.3729,1402.8721,1403.122,1403.8873,space,0.7588,,1403.8873,25,70,1404.8867,1404.8868,1404.888,,,,0,1,1,1,1,20,115,,,,,,,,
,,60ca4fc2b4b076bcf1454ab8,65af568451c2a1f8263dc840,2024-01-23_08h04.55.879,bars,2023.2.3,Win32,60.24096386,657b66ea316d21385b68909f,,,,,,,,,,,1404.8885,1405.886,,,1406.3855,1406.6353,,47,47,,,,,,,,,,,,,,,,bars/031.png,bars/mask008.png,,,,,,,,,,,,0,2,,,,,,,6,0,5,0,,,,,,,,,,,1405.886,1406.3855,1406.6353,1415.9598,space,9.3155,,1415.9599,73,12,1416.9582,1416.9583,1416.9811,,,,0,2,2,2,1,120,35,,,,,,,,
,,60ca4fc2b4b076bcf1454ab8,65af568451c2a1f8263dc840,2024-01-23_08h04.55.879,bars,2023.2.3,Win32,60.24096386,657b66ea316d21385b68909f,,,,,,,,,,,1416.9813,1417.9741,,,1418.4737,1418.7233,,128,128,,,,,,,,,,,,,,,,bars/028.png,bars/mask008.png,,,,,,,,,,,,1,2,,,,,,,4,2,4,2,,,,,,,,,,,1417.9742,1418.4737,1418.7234,1420.6716,space,1.9411,,1420.6716,83,8,1421.6704,1421.6704,1421.6773,,,,0,3,3,3,1,45,120,,,,,,,,
,,60ca4fc2b4b076bcf1454ab8,65af568451c2a1f8263dc840,2024-01-23_08h04.55.879,bars,2023.2.3,Win32,60.24096386,657b66ea316d21385b68909f,,,,,,,,,,,1421.6774,1422.6694,,,1423.1691,1423.4188,,155,155,,,,,,,,,,,,,,,,bars/009.png,bars/mask005.png,,,,,,,,,,,,0,1,,,,,,,6,4,6,4,,,,,,,,,,,1422.6695,1423.169,1423.4188,1426.9324,space,3.498,,1426.9324,40,50,1427.9312,1427.9313,1427.9536,,,,0,4,4,4,1,15,105,,,,,,,,
,,60ca4fc2b4b076bcf1454ab8,65af568451c2a1f8263dc840,2024-01-23_08h04.55.879,bars,2023.2.3,Win32,60.24096386,657b66ea316d21385b68909f,,,,,,,,,,,1427.9539,1428.9465,,,1429.446,1429.6962,,103,103,,,,,,,,,,,,,,,,bars/014.png,bars/mask001.png,,,,,,,,,,,,1,1,,,,,,,4,2,3,2,,,,,,,,,,,1428.9466,1429.4459,1429.6962,1433.4427,space,3.7401,,1433.4428,23,77,1434.4412,1434.4412,1434.4623,,,,0,5,5,5,1,80,0,,,,,,,,
,,60ca4fc2b4b076bcf1454ab8,65af568451c2a1f8263dc840,2024-01-23_08h04.55.879,bars,2023.2.3,Win32,60.24096386,657b66ea316d21385b68909f,,,,,,,,,,,1434.4625,1435.457,,,1435.9565,1436.2062,,34,34,,,,,,,,,,,,,,,,bars/007.png,bars/mask004.png,,,,,,,,,,,,2,2,,,,,,,2,4,2,5,,,,,,,,,,,1435.457,1435.9564,1436.2062,1438.8207,space,2.6015,,1438.8207,39,21,1439.8194,1439.8194,1439.8411,,,,0,6,6,6,1,175,55,,,,,,,,
,,60ca4fc2b4b076bcf1454ab8,65af568451c2a1f8263dc840,2024-01-23_08h04.55.879,bars,2023.2.3,Win32,60.24096386,657b66ea316d21385b68909f,,,,,,,,,,,1439.8413,1440.835,,,1441.3347,1441.5843,,128,-52,,,,,,,,,,,,,,,,bars/034.png,bars/mask002.png,,,,,,,,,,,,5,1,,,,,,,4,2,5,2,,,,,,,,,,,1440.835,1441.3346,1441.5843,1445.814,space,4.222,,1445.8141,3,63,1446.8125,1446.8125,1446.8231,,,,0,7,7,7,1,125,65,,,,,,,,
,,60ca4fc2b4b076bcf1454ab8,65af568451c2a1f8263dc840,2024-01-23_08h04.55.879,bars,2023.2.3,Win32,60.24096386,657b66ea316d21385b68909f,,,,,,,,,,,1446.8232,1447.8117,,,1448.3113,1448.5607,,30,210,,,,,,,,,,,,,,,,bars/004.png,bars/mask004.png,,,,,,,,,,,,2,1,,,,,,,2,4,2,6,,,,,,,,,,,1447.8117,1448.3113,1448.5608,1454.4218,space,5.848,,1454.4219,5,85,1455.4205,1455.4206,1455.4435,,,,0,8,8,8,1,25,125,,,,,,,,
,,60ca4fc2b4b076bcf1454ab8,65af568451c2a1f8263dc840,2024-01-23_08h04.55.879,bars,2023.2.3,Win32,60.24096386,657b66ea316d21385b68909f,,,,,,,,,,,1455.4437,1456.4366,,,1456.9361,1457.1858,,138,138,,,,,,,,,,,,,,,,bars/040.png,bars/mask005.png,,,,,,,,,,,,0,1,,,,,,,0,2,0,2,,,,,,,,,,,1456.4367,1456.9361,1457.1858,1458.6177,space,1.4187,,1458.6178,2,47,1459.6163,1459.6163,1459.637,,,,0,9,9,9,1,140,5,,,,,,,,
,,60ca4fc2b4b076bcf1454ab8,65af568451c2a1f8263dc840,2024-01-23_08h04.55.879,bars,2023.2.3,Win32,60.24096386,657b66ea316d21385b68909f,,,,,,,,,,,1459.6374,1460.6324,,,1461.1322,1461.3814,,102,102,,,,,,,,,,,,,,,,bars/001.png,bars/mask004.png,,,,,,,,,,,,2,2,,,,,,,0,4,0,5,,,,,,,,,,,1460.6325,1461.1321,1461.3815,1463.7295,space,2.3321,,1463.7296,28,17,1464.7284,1464.7286,1464.7319,,,,0,10,10,10,1,130,85,,,,,,,,
,,60ca4fc2b4b076bcf1454ab8,65af568451c2a1f8263dc840,2024-01-23_08h04.55.879,bars,2023.2.3,Win32,60.24096386,657b66ea316d21385b68909f,,,,,,,,,,,1464.7326,1465.7271,,,1466.227,1466.4768,,37,37,,,,,,,,,,,,,,,,bars/002.png,bars/mask008.png,,,,,,,,,,,,0,2,,,,,,,2,2,1,0,,,,,,,,,,,1465.7271,1466.227,1466.4768,1468.5079,space,2.026,,1468.5079,87,48,1469.507,1469.5071,1469.5169,,,,0,11,11,11,1,130,85,,,,,,,,
,,60ca4fc2b4b076bcf1454ab8,65af568451c2a1f8263dc840,2024-01-23_08h04.55.879,bars,2023.2.3,Win32,60.24096386,657b66ea316d21385b68909f,,,,,,,,,,,1469.5169,1470.5062,,,1471.0057,1471.2555,,146,146,,,,,,,,,,,,,,,,bars/037.png,bars/mask005.png,,,,,,,,,,,,4,1,,,,,,,4,4,5,5,,,,,,,,,,,1470.5062,1471.0057,1471.2556,1474.8688,space,3.5948,,1474.8689,4,41,1475.8676,1475.8676,1475.8892,,,,0,12,12,12,1,150,105,,,,,,,,
,,60ca4fc2b4b076bcf1454ab8,65af568451c2a1f8263dc840,2024-01-23_08h04.55.879,bars,2023.2.3,Win32,60.24096386,657b66ea316d21385b68909f,,,,,,,,,,,1475.8894,1476.8833,,,1477.3828,1477.6325,,139,139,,,,,,,,,,,,,,,,bars/039.png,bars/mask004.png,,,,,,,,,,,,0,2,,,,,,,2,2,0,3,,,,,,,,,,,1476.8833,1477.3828,1477.6325,1483.0608,space,5.4171,,1483.0609,36,34,1484.0595,1484.0596,1484.0817,,,,0,13,13,13,1,175,105,,,,,,,,
,,60ca4fc2b4b076bcf1454ab8,65af568451c2a1f8263dc840,2024-01-23_08h04.55.879,bars,2023.2.3,Win32,60.24096386,657b66ea316d21385b68909f,,,,,,,,,,,1484.082,1485.0754,,,1485.5747,1485.8241,,176,176,,,,,,,,,,,,,,,,bars/039.png,bars/mask006.png,,,,,,,,,,,,5,1,,,,,,,4,4,5,4,,,,,,,,,,,1485.0754,1485.5747,1485.8242,1491.053,space,5.2204,,1491.0531,1,71,1492.0516,1492.0516,1492.0735,,,,0,14,14,14,1,175,105,,,,,,,,
,,60ca4fc2b4b076bcf1454ab8,65af568451c2a1f8263dc840,2024-01-23_08h04.55.879,bars,2023.2.3,Win32,60.24096386,657b66ea316d21385b68909f,,,,,,,,,,,1492.0737,1493.0671,,,1493.5668,1493.8164,,96,96,,,,,,,,,,,,,,,,bars/022.png,bars/mask002.png,,,,,,,,,,,,1,1,,,,,,,2,6,1,7,,,,,,,,,,,1493.0671,1493.5667,1493.8165,1496.764,space,2.9349,,1496.7641,1,76,1497.7625,1497.7627,1497.784,,,,0,15,15,15,1,95,20,,,,,,,,
,,60ca4fc2b4b076bcf1454ab8,65af568451c2a1f8263dc840,2024-01-23_08h04.55.879,bars,2023.2.3,Win32,60.24096386,657b66ea316d21385b68909f,,,,,,,,,,,1497.7841,1498.7785,,,1499.2781,1499.5276,,147,147,,,,,,,,,,,,,,,,bars/000.png,bars/mask006.png,,,,,,,,,,,,5,2,,,,,,,4,4,2,5,,,,,,,,,,,1498.7786,1499.278,1499.5277,1500.7932,space,1.2602,,1500.7933,73,2,1501.7922,1501.7922,1501.7958,,,,0,16,16,16,1,40,145,,,,,,,,
,,60ca4fc2b4b076bcf1454ab8,65af568451c2a1f8263dc840,2024-01-23_08h04.55.879,bars,2023.2.3,Win32,60.24096386,657b66ea316d21385b68909f,,,,,,,,,,,1501.7964,1502.7913,,,1503.2908,1503.5404,,105,105,,,,,,,,,,,,,,,,bars/032.png,bars/mask005.png,,,,,,,,,,,,2,1,,,,,,,6,2,5,2,,,,,,,,,,,1502.7914,1503.2907,1503.5405,1504.4067,space,0.8524,,1504.4068,20,85,1505.4048,1505.4049,1505.4068,,,,0,17,17,17,1,125,20,,,,,,,,
,,60ca4fc2b4b076bcf1454ab8,65af568451c2a1f8263dc840,2024-01-23_08h04.55.879,bars,2023.2.3,Win32,60.24096386,657b66ea316d21385b68909f,,,,,,,,,,,1505.4072,1506.4043,,,1506.904,1507.1536,,110,110,,,,,,,,,,,,,,,,bars/012.png,bars/mask009.png,,,,,,,,,,,,2,1,,,,,,,8,4,7,3,,,,,,,,,,,1506.4044,1506.9039,1507.1536,1509.9346,space,2.7735,,1509.9346,20,85,1510.9331,1510.9331,1510.9556,,,,0,18,18,18,1,90,15,,,,,,,,
,,60ca4fc2b4b076bcf1454ab8,65af568451c2a1f8263dc840,2024-01-23_08h04.55.879,bars,2023.2.3,Win32,60.24096386,657b66ea316d21385b68909f,,,,,,,,,,,1510.9559,1511.9488,,,1512.4484,1512.6977,,134,134,,,,,,,,,,,,,,,,bars/027.png,bars/mask003.png,,,,,,,,,,,,1,1,,,,,,,6,2,5,3,,,,,,,,,,,1511.9488,1512.4484,1512.6977,1513.5311,space,0.8236,,1513.5311,24,84,1514.5289,1514.529,1514.5298,,,,0,19,19,19,1,110,50,,,,,,,,
,,60ca4fc2b4b076bcf1454ab8,65af568451c2a1f8263dc840,2024-01-23_08h04.55.879,bars,2023.2.3,Win32,60.24096386,657b66ea316d21385b68909f,,,,,,,,,,,1514.5302,1515.5291,,,1516.0283,1516.278,,130,130,,,,,,,,,,,,,,,,bars/039.png,bars/mask004.png,,,,,,,,,,,,0,2,,,,,,,8,4,8,2,,,,,,,,,,,1515.5291,1516.0283,1516.2781,1519.3754,space,3.0816,,1519.3754,45,25,1520.3742,1520.3742,1520.3957,,,,0,20,20,20,1,175,105,,,,,,,,
,,60ca4fc2b4b076bcf1454ab8,65af568451c2a1f8263dc840,2024-01-23_08h04.55.879,bars,2023.2.3,Win32,60.24096386,657b66ea316d21385b68909f,,,,,,,,,,,1520.396,1521.3894,,,1521.8891,1522.1384,,125,125,,,,,,,,,,,,,,,,bars/008.png,bars/mask005.png,,,,,,,,,,,,3,1,,,,,,,6,6,5,6,,,,,,,,,,,1521.3894,1521.889,1522.1384,1525.2029,space,3.051,,1525.2029,15,55,1526.2016,1526.2017,1526.2238,,,,0,21,21,21,1,110,0,,,,,,,,
,,60ca4fc2b4b076bcf1454ab8,65af568451c2a1f8263dc840,2024-01-23_08h04.55.879,bars,2023.2.3,Win32,60.24096386,657b66ea316d21385b68909f,,,,,,,,,,,1526.2242,1527.2173,,,1527.7169,1527.9665,,110,110,,,,,,,,,,,,,,,,bars/000.png,bars/mask001.png,,,,,,,,,,,,0,2,,,,,,,8,4,9,4,,,,,,,,,,,1527.2174,1527.7168,1527.9666,1530.8972,space,2.9181,,1530.8973,70,35,1531.8958,1531.8959,1531.9166,,,,0,22,22,22,1,40,145,,,,,,,,
,,60ca4fc2b4b076bcf1454ab8,65af568451c2a1f8263dc840,2024-01-23_08h04.55.879,bars,2023.2.3,Win32,60.24096386,657b66ea316d21385b68909f,,,,,,,,,,,1531.9169,1532.9117,,,1533.4114,1533.6605,,65,65,,,,,,,,,,,,,,,,bars/028.png,bars/mask002.png,,,,,,,,,,,,3,1,,,,,,,10,2,10,2,,,,,,,,,,,1532.9117,1533.4114,1533.6605,1534.4769,space,0.8018,,1534.4769,20,55,1535.476,1535.476,1535.4794,,,,0,23,23,23,1,45,120,,,,,,,,
,,60ca4fc2b4b076bcf1454ab8,65af568451c2a1f8263dc840,2024-01-23_08h04.55.879,bars,2023.2.3,Win32,60.24096386,657b66ea316d21385b68909f,,,,,,,,,,,1535.4802,1536.4747,,,1536.9743,1537.2242,,88,88,,,,,,,,,,,,,,,,bars/020.png,bars/mask009.png,,,,,,,,,,,,1,1,,,,,,,10,4,10,6,,,,,,,,,,,1536.4748,1536.9742,1537.2242,1540.5878,space,3.3475,,1540.5879,27,82,1541.5865,1541.5865,1541.6071,,,,0,24,24,24,1,115,170,,,,,,,,
,,60ca4fc2b4b076bcf1454ab8,65af568451c2a1f8263dc840,2024-01-23_08h04.55.879,bars,2023.2.3,Win32,60.24096386,657b66ea316d21385b68909f,,,,,,,,,,,1541.6073,1542.6021,,,1543.1017,1543.3514,,54,54,,,,,,,,,,,,,,,,bars/007.png,bars/mask009.png,,,,,,,,,,,,7,2,,,,,,,10,6,9,7,,,,,,,,,,,1542.6022,1543.1017,1543.3515,1544.8836,space,1.5177,,1544.8836,59,1,1545.8824,1545.8824,1545.9049,,,,0,25,25,25,1,175,55,,,,,,,,
,,60ca4fc2b4b076bcf1454ab8,65af568451c2a1f8263dc840,2024-01-23_08h04.55.879,bars,2023.2.3,Win32,60.24096386,657b66ea316d21385b68909f,,,,,,,,,,,1545.9052,1546.8982,,,1547.3976,1547.6471,,129,129,,,,,,,,,,,,,,,,bars/035.png,bars/mask005.png,,,,,,,,,,,,0,1,,,,,,,10,8,10,8,,,,,,,,,,,1546.8983,1547.3975,1547.6471,1549.1295,space,1.4686,,1549.1295,46,69,1550.1282,1550.1282,1550.1313,,,,0,26,26,26,1,175,60,,,,,,,,
,,60ca4fc2b4b076bcf1454ab8,65af568451c2a1f8263dc840,2024-01-23_08h04.55.879,bars,2023.2.3,Win32,60.24096386,657b66ea316d21385b68909f,,,,,,,,,,,1550.1319,1551.1273,,,1551.6267,1551.8764,,141,141,,,,,,,,,,,,,,,,bars/037.png,bars/mask008.png,,,,,,,,,,,,7,1,,,,,,,10,10,10,10,,,,,,,,,,,1551.1273,1551.6266,1551.8764,1553.5083,space,1.6181,,1553.5084,9,36,1554.5072,1554.5072,1554.5084,,,,0,27,27,27,1,150,105,,,,,,,,
,,60ca4fc2b4b076bcf1454ab8,65af568451c2a1f8263dc840,2024-01-23_08h04.55.879,bars,2023.2.3,Win32,60.24096386,657b66ea316d21385b68909f,,,,,,,,,,,1554.5089,1555.5059,,,1556.0059,1556.2554,,100,100,,,,,,,,,,,,,,,,bars/027.png,bars/mask009.png,,,,,,,,,,,,7,1,,,,,,,10,8,10,8,,,,,,,,,,,1555.506,1556.0059,1556.2554,1557.6707,space,1.4095,,1557.6708,10,50,1558.6692,1558.6693,1558.6699,,,,0,28,28,28,1,110,50,,,,,,,,
,,60ca4fc2b4b076bcf1454ab8,65af568451c2a1f8263dc840,2024-01-23_08h04.55.879,bars,2023.2.3,Win32,60.24096386,657b66ea316d21385b68909f,,,,,,,,,,,1558.67,1559.6687,,,1560.1683,1560.4181,,120,120,,,,,,,,,,,,,,,,bars/034.png,bars/mask000.png,,,,,,,,,,,,7,1,,,,,,,8,10,8,10,,,,,,,,,,,1559.6687,1560.1682,1560.4182,1565.3136,space,4.8827,,1565.3137,5,55,1566.3124,1566.3125,1566.3344,,,,0,29,29,29,1,125,65,,,,,,,,
,,60ca4fc2b4b076bcf1454ab8,65af568451c2a1f8263dc840,2024-01-23_08h04.55.879,bars,2023.2.3,Win32,60.24096386,657b66ea316d21385b68909f,,,,,,,,,,,1566.3346,1567.3281,,,1567.8275,1568.0774,,106,106,,,,,,,,,,,,,,,,bars/025.png,bars/mask007.png,,,,,,,,,,,,7,1,,,,,,,6,10,7,10,,,,,,,,,,,1567.3281,1567.8275,1568.0774,1570.0252,space,1.9397,,1570.0252,1,66,1571.0244,1571.0244,1571.0257,,,,0,30,30,30,1,105,40,,,,,,,,
,,60ca4fc2b4b076bcf1454ab8,65af568451c2a1f8263dc840,2024-01-23_08h04.55.879,bars,2023.2.3,Win32,60.24096386,657b66ea316d21385b68909f,,,,,,,,,,,1571.0262,1572.0235,,,1572.5231,1572.7729,,149,149,,,,,,,,,,,,,,,,bars/011.png,bars/mask009.png,,,,,,,,,,,,2,1,,,,,,,4,10,3,10,,,,,,,,,,,1572.0236,1572.523,1572.7729,1576.952,space,4.1658,,1576.9521,11,64,1577.9509,1577.9509,1577.9725,,,,0,31,31,31,1,160,85,,,,,,,,
,,60ca4fc2b4b076bcf1454ab8,65af568451c2a1f8263dc840,2024-01-23_08h04.55.879,bars,2023.2.3,Win32,60.24096386,657b66ea316d21385b68909f,,,,,,,,,,,1577.9727,1578.9665,,,1579.4662,1579.7156,,33,213,,,,,,,,,,,,,,,,bars/004.png,bars/mask006.png,,,,,,,,,,,,5,1,,,,,,,6,10,7,10,,,,,,,,,,,1578.9666,1579.4662,1579.7157,1583.0296,space,3.2992,,1583.0296,8,88,1584.0281,1584.0282,1584.0489,,,,0,32,32,32,1,25,125,,,,,,,,
,,60ca4fc2b4b076bcf1454ab8,65af568451c2a1f8263dc840,2024-01-23_08h04.55.879,bars,2023.2.3,Win32,60.24096386,657b66ea316d21385b68909f,,,,,,,,,,,1584.0491,1585.0443,,,1585.5438,1585.7934,,163,-17,,,,,,,,,,,,,,,,bars/039.png,bars/mask003.png,,,,,,,,,,,,2,1,,,,,,,4,10,3,9,,,,,,,,,,,1585.0443,1585.5437,1585.7935,1588.4744,space,2.6673,,1588.4744,12,58,1589.473,1589.4731,1589.4931,,,,0,33,33,33,1,175,105,,,,,,,,
,,60ca4fc2b4b076bcf1454ab8,65af568451c2a1f8263dc840,2024-01-23_08h04.55.879,bars,2023.2.3,Win32,60.24096386,657b66ea316d21385b68909f,,,,,,,,,,,1589.4933,1590.4883,,,1590.9881,1591.2381,,110,110,,,,,,,,,,,,,,,,bars/036.png,bars/mask000.png,,,,,,,,,,,,0,1,,,,,,,6,8,8,8,,,,,,,,,,,1590.4883,1590.9881,1591.2381,1594.4519,space,3.1975,,1594.452,35,90,1595.4504,1595.4505,1595.4719,,,,0,34,34,34,1,145,20,,,,,,,,
,,60ca4fc2b4b076bcf1454ab8,65af568451c2a1f8263dc840,2024-01-23_08h04.55.879,bars,2023.2.3,Win32,60.24096386,657b66ea316d21385b68909f,,,,,,,,,,,1595.4721,1596.4659,,,1596.9658,1597.2155,,72,72,,,,,,,,,,,,,,,,bars/026.png,bars/mask004.png,,,,,,,,,,,,3,2,,,,,,,4,6,4,6,,,,,,,,,,,1596.466,1596.9658,1597.2155,1601.6607,space,4.429,,1601.6607,37,13,1602.66,1602.6601,1602.6785,,,,0,35,35,35,1,35,85,,,,,,,,
,,60ca4fc2b4b076bcf1454ab8,65af568451c2a1f8263dc840,2024-01-23_08h04.55.879,bars,2023.2.3,Win32,60.24096386,657b66ea316d21385b68909f,,,,,,,,,,,1602.6787,1603.676,,,1604.1752,1604.4251,,140,140,,,,,,,,,,,,,,,,bars/003.png,bars/mask003.png,,,,,,,,,,,,4,2,,,,,,,2,4,1,4,,,,,,,,,,,1603.676,1604.1751,1604.4252,1606.1903,space,1.7539,,1606.1903,65,0,1607.189,1607.1891,1607.2078,,,,0,36,36,36,1,25,140,,,,,,,,
,,60ca4fc2b4b076bcf1454ab8,65af568451c2a1f8263dc840,2024-01-23_08h04.55.879,bars,2023.2.3,Win32,60.24096386,657b66ea316d21385b68909f,,,,,,,,,,,1607.208,1608.2047,,,1608.7044,1608.954,,107,-73,,,,,,,,,,,,,,,,bars/041.png,bars/mask003.png,,,,,,,,,,,,0,2,,,,,,,0,2,1,0,,,,,,,,,,,1608.2047,1608.7043,1608.954,1613.1836,space,4.213,,1613.1836,87,22,1614.1822,1614.1822,1614.2035,,,,0,37,37,37,1,20,85,,,,,,,,
,,60ca4fc2b4b076bcf1454ab8,65af568451c2a1f8263dc840,2024-01-23_08h04.55.879,bars,2023.2.3,Win32,60.24096386,657b66ea316d21385b68909f,,,,,,,,,,,1614.2037,1615.1978,,,1615.6975,1615.9472,,96,96,,,,,,,,,,,,,,,,bars/041.png,bars/mask005.png,,,,,,,,,,,,1,2,,,,,,,2,0,2,1,,,,,,,,,,,1615.198,1615.6974,1615.9473,1618.8112,space,2.8535,,1618.8112,76,11,1619.8101,1619.8101,1619.8292,,,,0,38,38,38,1,20,85,,,,,,,,
,,60ca4fc2b4b076bcf1454ab8,65af568451c2a1f8263dc840,2024-01-23_08h04.55.879,bars,2023.2.3,Win32,60.24096386,657b66ea316d21385b68909f,,,,,,,,,,,1619.8294,1620.8257,,,1621.3251,1621.5749,,177,-3,,,,,,,,,,,,,,,,bars/032.png,bars/mask007.png,,,,,,,,,,,,0,2,,,,,,,4,2,5,2,,,,,,,,,,,1620.8257,1621.3251,1621.575,1624.0396,space,2.45,,1624.0397,52,23,1625.0383,1625.0383,1625.0397,,,,0,39,39,39,1,125,20,,,,,,,,
,,60ca4fc2b4b076bcf1454ab8,65af568451c2a1f8263dc840,2024-01-23_08h04.55.879,bars,2023.2.3,Win32,60.24096386,657b66ea316d21385b68909f,,,,,,,,,,,1625.0401,1626.0372,,,1626.5368,1626.7863,,102,102,,,,,,,,,,,,,,,,bars/001.png,bars/mask000.png,,,,,,,,,,,,0,2,,,,,,,6,0,7,1,,,,,,,,,,,1626.0372,1626.5368,1626.7863,1630.6654,space,3.8708,,1630.6654,28,17,1631.6651,1631.6652,1631.6867,,,,0,40,40,40,1,130,85,,,,,,,,
,,60ca4fc2b4b076bcf1454ab8,65af568451c2a1f8263dc840,2024-01-23_08h04.55.879,bars,2023.2.3,Win32,60.24096386,657b66ea316d21385b68909f,,,,,,,,,,,1631.687,1632.6808,,,1633.1803,1633.4296,,113,113,,,,,,,,,,,,,,,,bars/020.png,bars/mask007.png,,,,,,,,,,,,4,1,,,,,,,4,2,4,2,,,,,,,,,,,1632.6808,1633.1803,1633.4296,1637.0264,space,3.5898,,1637.0265,2,57,1638.0255,1638.0256,1638.0474,,,,0,41,41,41,1,115,170,,,,,,,,
,,60ca4fc2b4b076bcf1454ab8,65af568451c2a1f8263dc840,2024-01-23_08h04.55.879,bars,2023.2.3,Win32,60.24096386,657b66ea316d21385b68909f,,,,,,,,,,,1638.0476,1639.041,,,1639.5406,1639.7906,,137,137,,,,,,,,,,,,,,,,bars/028.png,bars/mask003.png,,,,,,,,,,,,1,2,,,,,,,2,4,1,3,,,,,,,,,,,1639.0411,1639.5405,1639.7907,1642.7212,space,2.9205,,1642.7212,88,17,1643.72,1643.72,1643.741,,,,0,42,42,42,1,45,120,,,,,,,,
,,60ca4fc2b4b076bcf1454ab8,65af568451c2a1f8263dc840,2024-01-23_08h04.55.879,bars,2023.2.3,Win32,60.24096386,657b66ea316d21385b68909f,,,,,,,,,,,1643.7413,1644.7356,,,1645.2353,1645.4847,,144,144,,,,,,,,,,,,,,,,bars/049.png,bars/mask000.png,,,,,,,,,,,,0,1,,,,,,,0,2,1,1,,,,,,,,,,,1644.7356,1645.2352,1645.4848,1649.5312,space,4.0321,,1649.5313,16,29,1650.5297,1650.5298,1650.549,,,,0,43,43,43,1,160,115,,,,,,,,
,,60ca4fc2b4b076bcf1454ab8,65af568451c2a1f8263dc840,2024-01-23_08h04.55.879,bars,2023.2.3,Win32,60.24096386,657b66ea316d21385b68909f,,,,,,,,,,,1650.5493,1651.5458,,,1652.045,1652.2949,,127,127,,,,,,,,,,,,,,,,bars/015.png,bars/mask000.png,,,,,,,,,,,,0,1,,,,,,,0,4,0,4,,,,,,,,,,,1651.5458,1652.0449,1652.295,1655.4754,space,3.1658,,1655.4754,17,33,1656.4742,1656.4742,1656.4965,,,,0,44,44,44,1,110,160,,,,,,,,
,,60ca4fc2b4b076bcf1454ab8,65af568451c2a1f8263dc840,2024-01-23_08h04.55.879,bars,2023.2.3,Win32,60.24096386,657b66ea316d21385b68909f,,,,,,,,,,,1656.4968,1657.4899,,,1657.9895,1658.2391,,69,69,,,,,,,,,,,,,,,,bars/014.png,bars/mask006.png,,,,,,,,,,,,0,1,,,,,,,0,6,0,9,,,,,,,,,,,1657.4899,1657.9894,1658.2392,1659.5547,space,1.2991,,1659.5548,11,69,1660.5534,1660.5535,1660.5547,,,,0,45,45,45,1,80,0,,,,,,,,
,,60ca4fc2b4b076bcf1454ab8,65af568451c2a1f8263dc840,2024-01-23_08h04.55.879,bars,2023.2.3,Win32,60.24096386,657b66ea316d21385b68909f,,,,,,,,,,,1660.5552,1661.5524,,,1662.0522,1662.3017,,116,116,,,,,,,,,,,,,,,,bars/024.png,bars/mask004.png,,,,,,,,,,,,2,1,,,,,,,2,4,2,3,,,,,,,,,,,1661.5525,1662.0521,1662.3018,1664.8328,space,2.5221,,1664.8328,4,54,1665.8317,1665.8317,1665.8531,,,,0,46,46,46,1,120,170,,,,,,,,
,,60ca4fc2b4b076bcf1454ab8,65af568451c2a1f8263dc840,2024-01-23_08h04.55.879,bars,2023.2.3,Win32,60.24096386,657b66ea316d21385b68909f,,,,,,,,,,,1665.8533,1666.8473,,,1667.3468,1667.5965,,175,175,,,,,,,,,,,,,,,,bars/047.png,bars/mask002.png,,,,,,,,,,,,0,1,,,,,,,0,2,1,2,,,,,,,,,,,1666.8474,1667.3467,1667.5966,1668.3462,space,0.742,,1668.3462,20,75,1669.3448,1669.3448,1669.3462,,,,0,47,47,47,1,15,70,,,,,,,,
,,60ca4fc2b4b076bcf1454ab8,65af568451c2a1f8263dc840,2024-01-23_08h04.55.879,bars,2023.2.3,Win32,60.24096386,657b66ea316d21385b68909f,,,,,,,,,,,1669.3465,1670.344,,,1670.8437,1671.0933,,104,104,,,,,,,,,,,,,,,,bars/000.png,bars/mask006.png,,,,,,,,,,,,0,2,,,,,,,0,4,2,5,,,,,,,,,,,1670.3441,1670.8436,1671.0934,1671.9759,space,0.865,,1671.976,64,41,1672.9747,1672.9749,1672.978,,,,0,48,48,48,1,40,145,,,,,,,,
,,60ca4fc2b4b076bcf1454ab8,65af568451c2a1f8263dc840,2024-01-23_08h04.55.879,bars,2023.2.3,Win32,60.24096386,657b66ea316d21385b68909f,,,,,,,,,,,1672.9786,1673.9737,,,1674.4735,1674.7227,,115,115,,,,,,,,,,,,,,,,bars/025.png,bars/mask008.png,,,,,,,,,,,,1,1,,,,,,,2,2,1,3,,,,,,,,,,,1673.9738,1674.4734,1674.7228,1678.5366,space,3.804,,1678.5368,10,75,1679.535,1679.5352,1679.5567,,,,0,49,49,49,1,105,40,,,,,,,,
,,60ca4fc2b4b076bcf1454ab8,65af568451c2a1f8263dc840,2024-01-23_08h04.55.879,bars,2023.2.3,Win32,60.24096386,657b66ea316d21385b68909f,,,,,,,,,,,,,,,,,,,,,,,,,,,,,,,,,,,,,,,,,,,,,,,,,,,,,,,,,,,,,,,,,,,,,,,,,,,,,,,,,,,,,,,,,,,,,1679.5569,1739.56,0,3,3,2,1,sequence_tables/blk016.csv
,,60ca4fc2b4b076bcf1454ab8,65af568451c2a1f8263dc840,2024-01-23_08h04.55.879,bars,2023.2.3,Win32,60.24096386,657b66ea316d21385b68909f,,,,,,,,,,,1741.0511,1742.0404,,,1742.5401,1742.7904,,118,118,,,,,,,,,,,,,,,,bars/034.png,bars/mask002.png,,,,,,,,,,,,6,1,,,,,,,7,2,8,3,,,,,,1739.582,1741.0421,space,1.4531,,1742.0405,1742.54,1742.7905,1746.6369,space,3.8197,,1746.6371,7,53,1747.6347,1747.6348,1747.6422,,,,0,0,0,0,1,125,65,,,,,,,,
,,60ca4fc2b4b076bcf1454ab8,65af568451c2a1f8263dc840,2024-01-23_08h04.55.879,bars,2023.2.3,Win32,60.24096386,657b66ea316d21385b68909f,,,,,,,,,,,1747.6424,1748.6342,,,1749.1342,1749.3832,,39,39,,,,,,,,,,,,,,,,bars/033.png,bars/mask008.png,,,,,,,,,,,,4,1,,,,,,,9,4,8,5,,,,,,,,,,,1748.6343,1749.134,1749.3832,1753.3802,space,3.969,,1753.3806,14,64,1754.3784,1754.3786,1754.4004,,,,0,1,1,1,1,25,155,,,,,,,,
,,60ca4fc2b4b076bcf1454ab8,65af568451c2a1f8263dc840,2024-01-23_08h04.55.879,bars,2023.2.3,Win32,60.24096386,657b66ea316d21385b68909f,,,,,,,,,,,1754.4006,1755.3941,,,1755.8938,1756.1478,,104,104,,,,,,,,,,,,,,,,bars/032.png,bars/mask009.png,,,,,,,,,,,,2,1,,,,,,,7,6,6,6,,,,,,,,,,,1755.3942,1755.8937,1756.1478,1757.2095,space,1.0545,,1757.2096,21,84,1758.2079,1758.208,1758.2095,,,,0,2,2,2,1,125,20,,,,,,,,
,,60ca4fc2b4b076bcf1454ab8,65af568451c2a1f8263dc840,2024-01-23_08h04.55.879,bars,2023.2.3,Win32,60.24096386,657b66ea316d21385b68909f,,,,,,,,,,,1758.2101,1759.2068,,,1759.7065,1759.9565,,120,120,,,,,,,,,,,,,,,,bars/030.png,bars/mask004.png,,,,,,,,,,,,2,1,,,,,,,5,8,6,9,,,,,,,,,,,1759.207,1759.7065,1759.9566,1765.1683,space,5.1824,,1765.1685,20,55,1766.1667,1766.1669,1766.1854,,,,0,3,3,3,1,140,65,,,,,,,,
,,60ca4fc2b4b076bcf1454ab8,65af568451c2a1f8263dc840,2024-01-23_08h04.55.879,bars,2023.2.3,Win32,60.24096386,657b66ea316d21385b68909f,,,,,,,,,,,1766.1856,1767.1826,,,1767.6823,1767.9318,,80,80,,,,,,,,,,,,,,,,bars/012.png,bars/mask003.png,,,,,,,,,,,,1,1,,,,,,,3,6,2,6,,,,,,,,,,,1767.1826,1767.6823,1767.9318,1771.9616,space,3.9985,,1771.9617,10,65,1772.9607,1772.9608,1772.9832,,,,0,4,4,4,1,90,15,,,,,,,,
,,60ca4fc2b4b076bcf1454ab8,65af568451c2a1f8263dc840,2024-01-23_08h04.55.879,bars,2023.2.3,Win32,60.24096386,657b66ea316d21385b68909f,,,,,,,,,,,1772.9834,1773.9759,,,1774.4755,1774.7252,,124,124,,,,,,,,,,,,,,,,bars/015.png,bars/mask007.png,,,,,,,,,,,,2,1,,,,,,,5,4,4,5,,,,,,,,,,,1773.976,1774.4755,1774.7253,1777.2062,space,2.4532,,1777.2064,14,36,1778.2051,1778.2052,1778.2176,,,,0,5,5,5,1,110,160,,,,,,,,
,,60ca4fc2b4b076bcf1454ab8,65af568451c2a1f8263dc840,2024-01-23_08h04.55.879,bars,2023.2.3,Win32,60.24096386,657b66ea316d21385b68909f,,,,,,,,,,,1778.2177,1779.2209,,,1779.7204,1779.9704,,85,85,,,,,,,,,,,,,,,,bars/012.png,bars/mask003.png,,,,,,,,,,,,3,1,,,,,,,3,2,3,3,,,,,,,,,,,1779.221,1779.7204,1779.9705,1782.5854,space,2.5834,,1782.5856,5,70,1783.5832,1783.5833,1783.5854,,,,0,6,6,6,1,90,15,,,,,,,,
,,60ca4fc2b4b076bcf1454ab8,65af568451c2a1f8263dc840,2024-01-23_08h04.55.879,bars,2023.2.3,Win32,60.24096386,657b66ea316d21385b68909f,,,,,,,,,,,1783.586,1784.5821,,,1785.0822,1785.3316,,64,64,,,,,,,,,,,,,,,,bars/014.png,bars/mask006.png,,,,,,,,,,,,1,1,,,,,,,1,4,2,3,,,,,,,,,,,1784.5822,1785.0821,1785.3317,1785.9483,space,0.5989,,1785.9485,16,64,1786.9467,1786.9467,1786.9484,,,,0,7,7,7,1,80,0,,,,,,,,
,,60ca4fc2b4b076bcf1454ab8,65af568451c2a1f8263dc840,2024-01-23_08h04.55.879,bars,2023.2.3,Win32,60.24096386,657b66ea316d21385b68909f,,,,,,,,,,,1786.9491,1787.9458,,,1788.4456,1788.6949,,126,126,,,,,,,,,,,,,,,,bars/035.png,bars/mask000.png,,,,,,,,,,,,0,1,,,,,,,0,2,0,3,,,,,,,,,,,1787.9459,1788.4454,1788.695,1792.6738,space,3.9517,,1792.6739,49,66,1793.673,1793.673,1793.68,,,,0,8,8,8,1,175,60,,,,,,,,
,,60ca4fc2b4b076bcf1454ab8,65af568451c2a1f8263dc840,2024-01-23_08h04.55.879,bars,2023.2.3,Win32,60.24096386,657b66ea316d21385b68909f,,,,,,,,,,,1793.6801,1794.672,,,1795.1717,1795.4218,,131,131,,,,,,,,,,,,,,,,bars/021.png,bars/mask000.png,,,,,,,,,,,,0,1,,,,,,,0,4,0,5,,,,,,,,,,,1794.672,1795.1717,1795.422,1800.7833,space,5.3334,,1800.7834,24,61,1801.7868,1801.7868,1801.8092,,,,0,9,9,9,1,155,70,,,,,,,,
,,60ca4fc2b4b076bcf1454ab8,65af568451c2a1f8263dc840,2024-01-23_08h04.55.879,bars,2023.2.3,Win32,60.24096386,657b66ea316d21385b68909f,,,,,,,,,,,1801.8095,1802.8022,,,1803.297,1803.5469,,156,156,,,,,,,,,,,,,,,,bars/001.png,bars/mask001.png,,,,,,,,,,,,0,1,,,,,,,0,6,0,6,,,,,,,,,,,1802.8023,1803.2969,1803.547,1804.1802,space,0.6018,,1804.1803,26,71,1805.1786,1805.1786,1805.1803,,,,0,10,10,10,1,130,85,,,,,,,,
,,60ca4fc2b4b076bcf1454ab8,65af568451c2a1f8263dc840,2024-01-23_08h04.55.879,bars,2023.2.3,Win32,60.24096386,657b66ea316d21385b68909f,,,,,,,,,,,1805.181,1806.1779,,,1806.6774,1806.9268,,93,93,,,,,,,,,,,,,,,,bars/018.png,bars/mask006.png,,,,,,,,,,,,7,2,,,,,,,2,8,2,8,,,,,,,,,,,1806.178,1806.6774,1806.9269,1807.9098,space,0.9531,,1807.9099,57,3,1808.9076,1808.9076,1808.9095,,,,0,11,11,11,1,150,90,,,,,,,,
,,60ca4fc2b4b076bcf1454ab8,65af568451c2a1f8263dc840,2024-01-23_08h04.55.879,bars,2023.2.3,Win32,60.24096386,657b66ea316d21385b68909f,,,,,,,,,,,1808.9097,1809.9075,,,1810.4067,1810.6567,,140,140,,,,,,,,,,,,,,,,bars/033.png,bars/mask003.png,,,,,,,,,,,,3,2,,,,,,,4,6,5,6,,,,,,,,,,,1809.9076,1810.4065,1810.6568,1813.271,space,2.5869,,1813.2711,65,15,1814.2698,1814.2698,1814.2926,,,,0,12,12,12,1,25,155,,,,,,,,
