init_variables.started,init_variables.stopped,participant,session,date,expName,psychopyVersion,OS,frameRate,study_id,instruction_exp.started,instruction_exp.stopped,key_resp_8.keys,key_resp_8.rt,key_resp_8.duration,instruction_single.started,instruction_single.stopped,key_resp_2.keys,key_resp_2.rt,key_resp_2.duration,interval.started,interval.stopped,cue_single.started,cue_single.stopped,mask.started,mask.stopped,ori_response_single.started,res_ori,res,ori_response_single.stopped,key_resp_single.keys,key_resp_single.rt,key_resp_single.duration,disp_single.started,disp_single.stopped,key_resp.keys,key_resp.rt,key_resp.duration,single.thisRepN,single.thisTrialN,single.thisN,single.thisIndex,single.ran,ori,path,mask_path,instruction_bandit.started,instruction_bandit.stopped,key_resp_6.keys,key_resp_6.rt,key_resp_6.duration,cue_bandit.started,cue_bandit.stopped,bandit_res.keys,bandit_res.rt,bandit_res.duration,outcome_bandit.started,rew,action,outcome_bandit.stopped,bandit.thisRepN,bandit.thisTrialN,bandit.thisN,bandit.thisIndex,bandit.ran,actual_rew1,actual_rew2,rew1,rew2,instruction_task.started,instruction_task.stopped,key_resp_7.keys,key_resp_7.rt,key_resp_7.duration,wait_ready.started,wait_ready.stopped,key_resp_3.keys,key_resp_3.rt,key_resp_3.duration,cue.started,cue.stopped,ori_response.started,ori_response.stopped,key_resp_5.keys,key_resp_5.rt,key_resp_5.duration,outcome.started,diff1,diff2,outcome.stopped,disp_outcome_practice.started,disp_outcome_practice.stopped,key_resp_4.keys,key_resp_4.rt,key_resp_4.duration,trials.thisRepN,trials.thisTrialN,trials.thisN,trials.thisIndex,trials.ran,ori1,ori2,break_blk.started,break_blk.stopped,block.thisRepN,block.thisTrialN,block.thisN,block.thisIndex,block.ran,condition_file
0.0002,0.0004,5deb2c9df87f5524e62c8959,65af5593cbfd19b26dc0c3d9,2024-01-22_23h59.24.493,bars,2023.2.3,Win32,60.24096386,657b66ea316d21385b68909f,,,,,,,,,,,,,,,,,,,,,,,,,,,,,,,,,,,,,,,,,,,,,,,,,,,,,,,,,,,,,,,,,,,,,,,,,,,,,,,,,,,,,,,,,,,,,,,,,,,,
,,5deb2c9df87f5524e62c8959,65af5593cbfd19b26dc0c3d9,2024-01-22_23h59.24.493,bars,2023.2.3,Win32,60.24096386,657b66ea316d21385b68909f,0.0005,5.1354,y,5.1175,,,,,,,,,,,,,,,,,,,,,,,,,,,,,,,,,,,,,,,,,,,,,,,,,,,,,,,,,,,,,,,,,,,,,,,,,,,,,,,,,,,,,,,,,,,,,,,,
,,5deb2c9df87f5524e62c8959,65af5593cbfd19b26dc0c3d9,2024-01-22_23h59.24.493,bars,2023.2.3,Win32,60.24096386,657b66ea316d21385b68909f,,,,,,5.1357,15.2762,space,10.1177,,,,,,,,,,,,,,,,,,,,,,,,,,,,,,,,,,,,,,,,,,,,,,,,,,,,,,,,,,,,,,,,,,,,,,,,,,,,,,,,,,,,,,,,,,,
,,5deb2c9df87f5524e62c8959,65af5593cbfd19b26dc0c3d9,2024-01-22_23h59.24.493,bars,2023.2.3,Win32,60.24096386,657b66ea316d21385b68909f,,,,,,,,,,,15.2979,16.2907,16.2911,16.7817,16.7825,17.0299,17.03,90,90,24.3149,space,7.2583,,24.3154,31.3638,space,7.0258,,0,0,0,4,1,95,bars/single004.png,bars/mask004.png,,,,,,,,,,,,,,,,,,,,,,,,,,,,,,,,,,,,,,,,,,,,,,,,,,,,,,,,,,,,,,,,
,,5deb2c9df87f5524e62c8959,65af5593cbfd19b26dc0c3d9,2024-01-22_23h59.24.493,bars,2023.2.3,Win32,60.24096386,657b66ea316d21385b68909f,,,,,,,,,,,31.3723,32.3639,32.3642,32.8646,32.8651,33.114,33.114,105,105,36.9163,space,3.7886,,36.9164,41.258,space,4.3136,,0,1,1,3,1,20,bars/single003.png,bars/mask005.png,,,,,,,,,,,,,,,,,,,,,,,,,,,,,,,,,,,,,,,,,,,,,,,,,,,,,,,,,,,,,,,,
,,5deb2c9df87f5524e62c8959,65af5593cbfd19b26dc0c3d9,2024-01-22_23h59.24.493,bars,2023.2.3,Win32,60.24096386,657b66ea316d21385b68909f,,,,,,,,,,,41.2718,42.2638,42.2638,42.7638,42.7639,43.0047,43.0047,24,204,45.9586,space,2.9344,,45.9587,49.3244,space,3.3423,,0,2,2,7,1,45,bars/single007.png,bars/mask009.png,,,,,,,,,,,,,,,,,,,,,,,,,,,,,,,,,,,,,,,,,,,,,,,,,,,,,,,,,,,,,,,,
,,5deb2c9df87f5524e62c8959,65af5593cbfd19b26dc0c3d9,2024-01-22_23h59.24.493,bars,2023.2.3,Win32,60.24096386,657b66ea316d21385b68909f,,,,,,,,,,,49.3353,50.331,50.3311,50.8307,50.8308,51.0743,51.0745,66,66,54.493,space,3.4024,,54.4931,57.8227,space,3.2988,,0,3,3,5,1,55,bars/single005.png,bars/mask008.png,,,,,,,,,,,,,,,,,,,,,,,,,,,,,,,,,,,,,,,,,,,,,,,,,,,,,,,,,,,,,,,,
,,5deb2c9df87f5524e62c8959,65af5593cbfd19b26dc0c3d9,2024-01-22_23h59.24.493,bars,2023.2.3,Win32,60.24096386,657b66ea316d21385b68909f,,,,,,,,,,,57.8361,58.8303,58.8304,59.3304,59.3305,59.5908,59.5909,18,18,61.3444,space,1.7355,,61.3445,65.414,space,4.0501,,0,4,4,9,1,20,bars/single009.png,bars/mask006.png,,,,,,,,,,,,,,,,,,,,,,,,,,,,,,,,,,,,,,,,,,,,,,,,,,,,,,,,,,,,,,,,
,,5deb2c9df87f5524e62c8959,65af5593cbfd19b26dc0c3d9,2024-01-22_23h59.24.493,bars,2023.2.3,Win32,60.24096386,657b66ea316d21385b68909f,,,,,,,,,,,65.424,66.4138,66.4139,66.9146,66.9147,67.1643,67.1645,21,201,70.6312,space,3.4473,,70.6318,74.7337,space,4.0705,,0,5,5,0,1,150,bars/single000.png,bars/mask006.png,,,,,,,,,,,,,,,,,,,,,,,,,,,,,,,,,,,,,,,,,,,,,,,,,,,,,,,,,,,,,,,,
,,5deb2c9df87f5524e62c8959,65af5593cbfd19b26dc0c3d9,2024-01-22_23h59.24.493,bars,2023.2.3,Win32,60.24096386,657b66ea316d21385b68909f,,,,,,,,,,,74.7476,75.7475,75.7477,76.2502,76.2503,76.4974,76.4975,43,43,78.7512,space,2.2395,,78.7513,85.2006,space,6.4299,,0,6,6,8,1,160,bars/single008.png,bars/mask004.png,,,,,,,,,,,,,,,,,,,,,,,,,,,,,,,,,,,,,,,,,,,,,,,,,,,,,,,,,,,,,,,,
,,5deb2c9df87f5524e62c8959,65af5593cbfd19b26dc0c3d9,2024-01-22_23h59.24.493,bars,2023.2.3,Win32,60.24096386,657b66ea316d21385b68909f,,,,,,,,,,,85.2162,86.2167,86.2168,86.7147,86.7149,86.9642,86.9643,121,121,88.665,space,1.6859,,88.6653,92.2811,space,3.5975,,0,7,7,2,1,145,bars/single002.png,bars/mask003.png,,,,,,,,,,,,,,,,,,,,,,,,,,,,,,,,,,,,,,,,,,,,,,,,,,,,,,,,,,,,,,,,
,,5deb2c9df87f5524e62c8959,65af5593cbfd19b26dc0c3d9,2024-01-22_23h59.24.493,bars,2023.2.3,Win32,60.24096386,657b66ea316d21385b68909f,,,,,,,,,,,92.2988,93.2985,93.2986,93.7978,93.7978,94.0342,94.0343,44,224,97.0315,space,2.9817,,97.0318,102.2306,space,5.177,,0,8,8,1,1,20,bars/single001.png,bars/mask006.png,,,,,,,,,,,,,,,,,,,,,,,,,,,,,,,,,,,,,,,,,,,,,,,,,,,,,,,,,,,,,,,,
,,5deb2c9df87f5524e62c8959,65af5593cbfd19b26dc0c3d9,2024-01-22_23h59.24.493,bars,2023.2.3,Win32,60.24096386,657b66ea316d21385b68909f,,,,,,,,,,,102.2433,103.2315,103.2316,103.7312,103.7312,103.982,103.9822,166,166,104.905,space,0.9088,,104.905,110.1668,space,5.2442,,0,9,9,6,1,175,bars/single006.png,bars/mask005.png,,,,,,,,,,,,,,,,,,,,,,,,,,,,,,,,,,,,,,,,,,,,,,,,,,,,,,,,,,,,,,,,
,,5deb2c9df87f5524e62c8959,65af5593cbfd19b26dc0c3d9,2024-01-22_23h59.24.493,bars,2023.2.3,Win32,60.24096386,657b66ea316d21385b68909f,,,,,,,,,,,,,,,,,,,,,,,,,,,,,,,,,,,,,110.1826,122.5669,space,12.3642,,,,,,,,,,,,,,,,,,,,,,,,,,,,,,,,,,,,,,,,,,,,,,,,,,,,,,,,,,,,
,,5deb2c9df87f5524e62c8959,65af5593cbfd19b26dc0c3d9,2024-01-22_23h59.24.493,bars,2023.2.3,Win32,60.24096386,657b66ea316d21385b68909f,,,,,,,,,,,,,,,,,,,,,,,,,,,,,,,,,,,,,,,,,,122.5842,127.6566,right,5.0566,,127.6569,2,2,128.6477,0,0,0,0,1,9,1,9,2,,,,,,,,,,,,,,,,,,,,,,,,,,,,,,,,,,,,,,,,,
,,5deb2c9df87f5524e62c8959,65af5593cbfd19b26dc0c3d9,2024-01-22_23h59.24.493,bars,2023.2.3,Win32,60.24096386,657b66ea316d21385b68909f,,,,,,,,,,,,,,,,,,,,,,,,,,,,,,,,,,,,,,,,,,128.6495,132.2311,left,3.5472,,132.2312,10,1,133.2235,0,1,1,1,1,10,0,10,1,,,,,,,,,,,,,,,,,,,,,,,,,,,,,,,,,,,,,,,,,
,,5deb2c9df87f5524e62c8959,65af5593cbfd19b26dc0c3d9,2024-01-22_23h59.24.493,bars,2023.2.3,Win32,60.24096386,657b66ea316d21385b68909f,,,,,,,,,,,,,,,,,,,,,,,,,,,,,,,,,,,,,,,,,,133.2429,134.2477,right,0.9924,,134.2479,2,2,135.247,0,2,2,2,1,10,2,10,2,,,,,,,,,,,,,,,,,,,,,,,,,,,,,,,,,,,,,,,,,
,,5deb2c9df87f5524e62c8959,65af5593cbfd19b26dc0c3d9,2024-01-22_23h59.24.493,bars,2023.2.3,Win32,60.24096386,657b66ea316d21385b68909f,,,,,,,,,,,,,,,,,,,,,,,,,,,,,,,,,,,,,,,,,,135.2478,136.8408,left,1.5642,,136.8409,7,1,137.8334,0,3,3,3,1,8,4,7,3,,,,,,,,,,,,,,,,,,,,,,,,,,,,,,,,,,,,,,,,,
,,5deb2c9df87f5524e62c8959,65af5593cbfd19b26dc0c3d9,2024-01-22_23h59.24.493,bars,2023.2.3,Win32,60.24096386,657b66ea316d21385b68909f,,,,,,,,,,,,,,,,,,,,,,,,,,,,,,,,,,,,,,,,,,137.8343,139.2074,left,1.3474,,139.2076,5,1,140.1971,0,4,4,4,1,6,2,5,1,,,,,,,,,,,,,,,,,,,,,,,,,,,,,,,,,,,,,,,,,
,,5deb2c9df87f5524e62c8959,65af5593cbfd19b26dc0c3d9,2024-01-22_23h59.24.493,bars,2023.2.3,Win32,60.24096386,657b66ea316d21385b68909f,,,,,,,,,,,,,,,,,,,,,,,,,,,,,,,,,,,,,,,,,,140.1981,142.2092,right,1.9844,,142.2094,4,2,143.1979,0,5,5,5,1,4,4,4,4,,,,,,,,,,,,,,,,,,,,,,,,,,,,,,,,,,,,,,,,,
,,5deb2c9df87f5524e62c8959,65af5593cbfd19b26dc0c3d9,2024-01-22_23h59.24.493,bars,2023.2.3,Win32,60.24096386,657b66ea316d21385b68909f,,,,,,,,,,,,,,,,,,,,,,,,,,,,,,,,,,,,,,,,,,143.2164,144.0142,right,0.7839,,144.0144,2,2,145.0139,0,6,6,6,1,2,2,1,2,,,,,,,,,,,,,,,,,,,,,,,,,,,,,,,,,,,,,,,,,
,,5deb2c9df87f5524e62c8959,65af5593cbfd19b26dc0c3d9,2024-01-22_23h59.24.493,bars,2023.2.3,Win32,60.24096386,657b66ea316d21385b68909f,,,,,,,,,,,,,,,,,,,,,,,,,,,,,,,,,,,,,,,,,,145.0153,145.733,right,0.7035,,145.7333,1,2,146.7306,0,7,7,7,1,0,0,0,1,,,,,,,,,,,,,,,,,,,,,,,,,,,,,,,,,,,,,,,,,
,,5deb2c9df87f5524e62c8959,65af5593cbfd19b26dc0c3d9,2024-01-22_23h59.24.493,bars,2023.2.3,Win32,60.24096386,657b66ea316d21385b68909f,,,,,,,,,,,,,,,,,,,,,,,,,,,,,,,,,,,,,,,,,,146.7315,147.9172,left,1.168,,147.9174,1,1,148.9143,0,8,8,8,1,0,2,1,0,,,,,,,,,,,,,,,,,,,,,,,,,,,,,,,,,,,,,,,,,
,,5deb2c9df87f5524e62c8959,65af5593cbfd19b26dc0c3d9,2024-01-22_23h59.24.493,bars,2023.2.3,Win32,60.24096386,657b66ea316d21385b68909f,,,,,,,,,,,,,,,,,,,,,,,,,,,,,,,,,,,,,,,,,,148.9156,149.767,right,0.8368,,149.7671,3,2,150.7637,0,9,9,9,1,2,4,2,3,,,,,,,,,,,,,,,,,,,,,,,,,,,,,,,,,,,,,,,,,
,,5deb2c9df87f5524e62c8959,65af5593cbfd19b26dc0c3d9,2024-01-22_23h59.24.493,bars,2023.2.3,Win32,60.24096386,657b66ea316d21385b68909f,,,,,,,,,,,,,,,,,,,,,,,,,,,,,,,,,,,,,,,,,,150.7646,151.532,right,0.7526,,151.5321,3,2,152.5317,0,10,10,10,1,0,2,0,3,,,,,,,,,,,,,,,,,,,,,,,,,,,,,,,,,,,,,,,,,
,,5deb2c9df87f5524e62c8959,65af5593cbfd19b26dc0c3d9,2024-01-22_23h59.24.493,bars,2023.2.3,Win32,60.24096386,657b66ea316d21385b68909f,,,,,,,,,,,,,,,,,,,,,,,,,,,,,,,,,,,,,,,,,,152.533,153.3334,left,0.7842,,153.3335,0,1,154.3306,0,11,11,11,1,0,4,0,3,,,,,,,,,,,,,,,,,,,,,,,,,,,,,,,,,,,,,,,,,
,,5deb2c9df87f5524e62c8959,65af5593cbfd19b26dc0c3d9,2024-01-22_23h59.24.493,bars,2023.2.3,Win32,60.24096386,657b66ea316d21385b68909f,,,,,,,,,,,,,,,,,,,,,,,,,,,,,,,,,,,,,,,,,,154.3319,155.0151,right,0.6669,,155.0152,6,2,156.0163,0,12,12,12,1,2,6,1,6,,,,,,,,,,,,,,,,,,,,,,,,,,,,,,,,,,,,,,,,,
,,5deb2c9df87f5524e62c8959,65af5593cbfd19b26dc0c3d9,2024-01-22_23h59.24.493,bars,2023.2.3,Win32,60.24096386,657b66ea316d21385b68909f,,,,,,,,,,,,,,,,,,,,,,,,,,,,,,,,,,,,,,,,,,156.0174,156.7482,right,0.7147,,156.7485,3,2,157.7477,0,13,13,13,1,0,4,1,3,,,,,,,,,,,,,,,,,,,,,,,,,,,,,,,,,,,,,,,,,
,,5deb2c9df87f5524e62c8959,65af5593cbfd19b26dc0c3d9,2024-01-22_23h59.24.493,bars,2023.2.3,Win32,60.24096386,657b66ea316d21385b68909f,,,,,,,,,,,,,,,,,,,,,,,,,,,,,,,,,,,,,,,,,,157.7487,159.2879,right,1.5262,,159.2879,7,2,160.2823,0,14,14,14,1,2,6,2,7,,,,,,,,,,,,,,,,,,,,,,,,,,,,,,,,,,,,,,,,,
,,5deb2c9df87f5524e62c8959,65af5593cbfd19b26dc0c3d9,2024-01-22_23h59.24.493,bars,2023.2.3,Win32,60.24096386,657b66ea316d21385b68909f,,,,,,,,,,,,,,,,,,,,,,,,,,,,,,,,,,,,,,,,,,160.2841,161.2936,left,0.9846,,161.2938,3,1,162.2972,0,15,15,15,1,4,8,3,9,,,,,,,,,,,,,,,,,,,,,,,,,,,,,,,,,,,,,,,,,
,,5deb2c9df87f5524e62c8959,65af5593cbfd19b26dc0c3d9,2024-01-22_23h59.24.493,bars,2023.2.3,Win32,60.24096386,657b66ea316d21385b68909f,,,,,,,,,,,,,,,,,,,,,,,,,,,,,,,,,,,,,,,,,,162.2981,162.9594,right,0.6353,,162.9595,7,2,163.9638,0,16,16,16,1,6,6,7,7,,,,,,,,,,,,,,,,,,,,,,,,,,,,,,,,,,,,,,,,,
,,5deb2c9df87f5524e62c8959,65af5593cbfd19b26dc0c3d9,2024-01-22_23h59.24.493,bars,2023.2.3,Win32,60.24096386,657b66ea316d21385b68909f,,,,,,,,,,,,,,,,,,,,,,,,,,,,,,,,,,,,,,,,,,163.9647,164.591,right,0.599,,164.5912,5,2,165.5804,0,17,17,17,1,8,4,9,5,,,,,,,,,,,,,,,,,,,,,,,,,,,,,,,,,,,,,,,,,
,,5deb2c9df87f5524e62c8959,65af5593cbfd19b26dc0c3d9,2024-01-22_23h59.24.493,bars,2023.2.3,Win32,60.24096386,657b66ea316d21385b68909f,,,,,,,,,,,,,,,,,,,,,,,,,,,,,,,,,,,,,,,,,,165.5814,166.5698,right,0.9599,,166.57,1,2,167.5582,0,18,18,18,1,6,2,5,1,,,,,,,,,,,,,,,,,,,,,,,,,,,,,,,,,,,,,,,,,
,,5deb2c9df87f5524e62c8959,65af5593cbfd19b26dc0c3d9,2024-01-22_23h59.24.493,bars,2023.2.3,Win32,60.24096386,657b66ea316d21385b68909f,,,,,,,,,,,,,,,,,,,,,,,,,,,,,,,,,,,,,,,,,,167.5594,168.1777,right,0.5994,,168.1779,0,2,169.1809,0,19,19,19,1,8,0,7,0,,,,,,,,,,,,,,,,,,,,,,,,,,,,,,,,,,,,,,,,,
,,5deb2c9df87f5524e62c8959,65af5593cbfd19b26dc0c3d9,2024-01-22_23h59.24.493,bars,2023.2.3,Win32,60.24096386,657b66ea316d21385b68909f,,,,,,,,,,,,,,,,,,,,,,,,,,,,,,,,,,,,,,,,,,,,,,,,,,,,,,,,,,,,169.1835,177.7506,space,8.5339,,,,,,,,,,,,,,,,,,,,,,,,,,,,,,,,,,,,,
,,5deb2c9df87f5524e62c8959,65af5593cbfd19b26dc0c3d9,2024-01-22_23h59.24.493,bars,2023.2.3,Win32,60.24096386,657b66ea316d21385b68909f,,,,,,,,,,,178.5934,179.5843,,,180.0922,180.3304,,37,37,,,,,,,,,,,,,,,,bars/018.png,bars/mask005.png,,,,,,,,,,,,0,2,,,,,,,9,7,10,7,,,,,,177.7651,178.5811,space,0.801,,179.5849,180.0921,180.3311,182.2791,space,1.9186,,182.2802,67,53,183.2703,183.2712,187.2837,space,3.9786,,0,0,0,0,1,150,90,,,,,,,,
,,5deb2c9df87f5524e62c8959,65af5593cbfd19b26dc0c3d9,2024-01-22_23h59.24.493,bars,2023.2.3,Win32,60.24096386,657b66ea316d21385b68909f,,,,,,,,,,,187.3069,188.2922,,,188.7812,189.0357,,97,97,,,,,,,,,,,,,,,,bars/038.png,bars/mask001.png,,,,,,,,,,,,0,2,,,,,,,7,5,7,4,,,,,,,,,,,188.2924,188.781,189.0359,194.1774,space,5.1186,,194.1779,68,27,195.1808,195.181,196.7698,space,1.5585,,0,1,1,1,1,165,70,,,,,,,,
,,5deb2c9df87f5524e62c8959,65af5593cbfd19b26dc0c3d9,2024-01-22_23h59.24.493,bars,2023.2.3,Win32,60.24096386,657b66ea316d21385b68909f,,,,,,,,,,,196.7707,197.7638,,,198.2645,198.5139,,81,81,,,,,,,,,,,,,,,,bars/002.png,bars/mask001.png,,,,,,,,,,,,6,2,,,,,,,5,7,3,7,,,,,,,,,,,197.7639,198.2644,198.514,201.7077,space,3.1826,,201.7077,49,4,202.697,202.6971,205.6745,space,2.9474,,0,2,2,2,1,130,85,,,,,,,,
,,5deb2c9df87f5524e62c8959,65af5593cbfd19b26dc0c3d9,2024-01-22_23h59.24.493,bars,2023.2.3,Win32,60.24096386,657b66ea316d21385b68909f,,,,,,,,,,,205.6932,206.6849,,,207.1841,207.4386,,107,107,,,,,,,,,,,,,,,,bars/046.png,bars/mask004.png,,,,,,,,,,,,2,2,,,,,,,7,5,6,6,,,,,,,,,,,206.6851,207.1839,207.4386,208.7424,space,1.2841,,208.7426,48,22,209.7335,209.7336,214.5809,space,4.8285,,0,3,3,3,1,155,85,,,,,,,,
,,5deb2c9df87f5524e62c8959,65af5593cbfd19b26dc0c3d9,2024-01-22_23h59.24.493,bars,2023.2.3,Win32,60.24096386,657b66ea316d21385b68909f,,,,,,,,,,,214.5941,215.5976,,,216.0977,216.3483,,168,168,,,,,,,,,,,,,,,,bars/033.png,bars/mask009.png,,,,,,,,,,,,4,2,,,,,,,9,7,9,7,,,,,,,,,,,215.5977,216.0976,216.3484,220.4672,space,4.1047,,220.4674,37,13,221.4664,221.4665,224.6185,space,3.1155,,0,4,4,4,1,25,155,,,,,,,,
,,5deb2c9df87f5524e62c8959,65af5593cbfd19b26dc0c3d9,2024-01-22_23h59.24.493,bars,2023.2.3,Win32,60.24096386,657b66ea316d21385b68909f,,,,,,,,,,,224.6195,225.6138,,,226.1085,226.3473,,59,59,,,,,,,,,,,,,,,,bars/007.png,bars/mask002.png,,,,,,,,,,,,4,2,,,,,,,7,5,6,5,,,,,,,,,,,225.614,226.1084,226.3473,227.314,space,0.9487,,227.3142,64,4,228.3022,228.3026,231.2442,space,2.9191,,0,5,5,5,1,175,55,,,,,,,,
,,5deb2c9df87f5524e62c8959,65af5593cbfd19b26dc0c3d9,2024-01-22_23h59.24.493,bars,2023.2.3,Win32,60.24096386,657b66ea316d21385b68909f,,,,,,,,,,,231.2451,232.247,,,232.736,232.9813,,92,92,,,,,,,,,,,,,,,,bars/018.png,bars/mask008.png,,,,,,,,,,,,3,2,,,,,,,5,3,5,3,,,,,,,,,,,232.2472,232.7358,232.9816,233.9095,space,0.9017,,233.9097,58,2,234.914,234.914,238.1252,space,3.1836,,0,6,6,6,1,150,90,,,,,,,,
,,5deb2c9df87f5524e62c8959,65af5593cbfd19b26dc0c3d9,2024-01-22_23h59.24.493,bars,2023.2.3,Win32,60.24096386,657b66ea316d21385b68909f,,,,,,,,,,,238.1394,239.1359,,,239.6362,239.876,,73,73,,,,,,,,,,,,,,,,bars/042.png,bars/mask006.png,,,,,,,,,,,,2,2,,,,,,,7,1,7,2,,,,,,,,,,,239.136,239.6362,239.876,241.4641,space,1.5704,,241.4642,72,2,242.4644,242.4646,243.7853,space,1.2977,,0,7,7,7,1,145,75,,,,,,,,
,,5deb2c9df87f5524e62c8959,65af5593cbfd19b26dc0c3d9,2024-01-22_23h59.24.493,bars,2023.2.3,Win32,60.24096386,657b66ea316d21385b68909f,,,,,,,,,,,243.7858,244.7811,,,245.2763,245.5229,,23,23,,,,,,,,,,,,,,,,bars/013.png,bars/mask000.png,,,,,,,,,,,,2,2,,,,,,,9,3,9,3,,,,,,,,,,,244.7813,245.2763,245.5229,247.0431,space,1.5016,,247.0433,52,13,248.0475,248.0476,249.8141,space,1.7341,,0,8,8,8,1,75,10,,,,,,,,
,,5deb2c9df87f5524e62c8959,65af5593cbfd19b26dc0c3d9,2024-01-22_23h59.24.493,bars,2023.2.3,Win32,60.24096386,657b66ea316d21385b68909f,,,,,,,,,,,249.8152,250.8138,,,251.3146,251.5638,,22,22,,,,,,,,,,,,,,,,bars/040.png,bars/mask007.png,,,,,,,,,,,,3,2,,,,,,,10,5,10,8,,,,,,,,,,,250.8138,251.3144,251.564,252.6784,space,1.0879,,252.6785,62,17,253.6867,253.6867,254.7975,space,1.0792,,0,9,9,9,1,140,5,,,,,,,,
,,5deb2c9df87f5524e62c8959,65af5593cbfd19b26dc0c3d9,2024-01-22_23h59.24.493,bars,2023.2.3,Win32,60.24096386,657b66ea316d21385b68909f,,,,,,,,,,,254.7989,255.789,,,256.2809,256.5304,,43,43,,,,,,,,,,,,,,,,bars/035.png,bars/mask000.png,,,,,,,,,,,,2,2,,,,,,,8,7,7,5,,,,,,,,,,,255.7891,256.2808,256.5305,257.3753,space,0.8335,,257.3754,48,17,258.366,258.3662,258.9602,space,0.5686,,0,10,10,10,1,175,60,,,,,,,,
,,5deb2c9df87f5524e62c8959,65af5593cbfd19b26dc0c3d9,2024-01-22_23h59.24.493,bars,2023.2.3,Win32,60.24096386,657b66ea316d21385b68909f,,,,,,,,,,,258.9612,259.9575,,,260.4535,260.7077,,27,207,,,,,,,,,,,,,,,,bars/039.png,bars/mask002.png,,,,,,,,,,,,0,1,,,,,,,10,5,10,5,,,,,,,,,,,259.9577,260.4531,260.7077,262.5575,space,1.8336,,262.5577,32,78,263.5472,263.5472,264.3252,space,0.7505,,0,11,11,11,1,175,105,,,,,,,,
,,5deb2c9df87f5524e62c8959,65af5593cbfd19b26dc0c3d9,2024-01-22_23h59.24.493,bars,2023.2.3,Win32,60.24096386,657b66ea316d21385b68909f,,,,,,,,,,,264.3257,265.3204,,,265.8253,266.0643,,136,-44,,,,,,,,,,,,,,,,bars/016.png,bars/mask006.png,,,,,,,,,,,,0,2,,,,,,,10,3,8,2,,,,,,,,,,,265.3205,265.8253,266.0644,270.064,space,3.9846,,270.0641,84,29,271.0726,271.0728,273.3427,space,2.2371,,0,12,12,12,1,40,165,,,,,,,,
,,5deb2c9df87f5524e62c8959,65af5593cbfd19b26dc0c3d9,2024-01-22_23h59.24.493,bars,2023.2.3,Win32,60.24096386,657b66ea316d21385b68909f,,,,,,,,,,,273.3435,274.3518,,,274.8482,275.0909,,175,175,,,,,,,,,,,,,,,,bars/043.png,bars/mask000.png,,,,,,,,,,,,0,1,,,,,,,8,5,7,5,,,,,,,,,,,274.3519,274.8482,275.0909,276.0943,space,0.9857,,276.0945,35,45,277.0976,277.0978,279.0496,space,1.9247,,0,13,13,13,1,30,130,,,,,,,,
,,5deb2c9df87f5524e62c8959,65af5593cbfd19b26dc0c3d9,2024-01-22_23h59.24.493,bars,2023.2.3,Win32,60.24096386,657b66ea316d21385b68909f,,,,,,,,,,,279.0509,280.0507,,,280.5411,280.7806,,59,59,,,,,,,,,,,,,,,,bars/035.png,bars/mask006.png,,,,,,,,,,,,6,2,,,,,,,10,7,9,6,,,,,,,,,,,280.0511,280.541,280.7807,282.232,space,1.423,,282.2322,64,1,283.2309,283.231,284.8763,space,1.6178,,0,14,14,14,1,175,60,,,,,,,,
,,5deb2c9df87f5524e62c8959,65af5593cbfd19b26dc0c3d9,2024-01-22_23h59.24.493,bars,2023.2.3,Win32,60.24096386,657b66ea316d21385b68909f,,,,,,,,,,,284.8771,285.8738,,,286.3638,286.6137,,75,75,,,,,,,,,,,,,,,,bars/016.png,bars/mask000.png,,,,,,,,,,,,0,1,,,,,,,8,9,9,10,,,,,,,,,,,285.874,286.3637,286.6138,290.1686,space,3.5426,,290.1686,35,90,291.1643,291.1644,292.343,space,1.1484,,0,15,15,15,1,40,165,,,,,,,,
,,5deb2c9df87f5524e62c8959,65af5593cbfd19b26dc0c3d9,2024-01-22_23h59.24.493,bars,2023.2.3,Win32,60.24096386,657b66ea316d21385b68909f,,,,,,,,,,,292.3439,293.3324,,,293.8309,294.0899,,99,99,,,,,,,,,,,,,,,,bars/002.png,bars/mask004.png,,,,,,,,,,,,5,2,,,,,,,6,10,6,10,,,,,,,,,,,293.3325,293.8308,294.09,297.2595,space,3.1523,,297.2596,31,14,298.2489,298.249,299.6736,space,1.3927,,0,16,16,16,1,130,85,,,,,,,,
,,5deb2c9df87f5524e62c8959,65af5593cbfd19b26dc0c3d9,2024-01-22_23h59.24.493,bars,2023.2.3,Win32,60.24096386,657b66ea316d21385b68909f,,,,,,,,,,,299.6743,300.6652,,,301.1567,301.3971,,92,92,,,,,,,,,,,,,,,,bars/022.png,bars/mask000.png,,,,,,,,,,,,7,1,,,,,,,8,10,8,8,,,,,,,,,,,300.6654,301.1566,301.3973,302.7105,space,1.3019,,302.7107,3,72,303.7138,303.7139,305.5141,space,1.7682,,0,17,17,17,1,95,20,,,,,,,,
,,5deb2c9df87f5524e62c8959,65af5593cbfd19b26dc0c3d9,2024-01-22_23h59.24.493,bars,2023.2.3,Win32,60.24096386,657b66ea316d21385b68909f,,,,,,,,,,,305.5154,306.5077,,,306.9976,307.2471,,98,98,,,,,,,,,,,,,,,,bars/044.png,bars/mask006.png,,,,,,,,,,,,2,1,,,,,,,10,10,10,10,,,,,,,,,,,306.5077,306.9975,307.2473,310.8288,space,3.5693,,310.8289,23,57,311.8314,311.8316,315.4308,space,3.5679,,0,18,18,18,1,75,155,,,,,,,,
,,5deb2c9df87f5524e62c8959,65af5593cbfd19b26dc0c3d9,2024-01-22_23h59.24.493,bars,2023.2.3,Win32,60.24096386,657b66ea316d21385b68909f,,,,,,,,,,,315.4474,316.4477,,,316.9473,317.1809,,78,-102,,,,,,,,,,,,,,,,bars/042.png,bars/mask002.png,,,,,,,,,,,,9,2,,,,,,,8,10,8,10,,,,,,,,,,,316.4478,316.9472,317.1811,321.4309,space,4.2313,,321.431,67,3,322.4305,322.4307,323.699,space,1.238,,0,19,19,19,1,145,75,,,,,,,,
,,5deb2c9df87f5524e62c8959,65af5593cbfd19b26dc0c3d9,2024-01-22_23h59.24.493,bars,2023.2.3,Win32,60.24096386,657b66ea316d21385b68909f,,,,,,,,,,,323.7005,324.6978,,,325.1986,325.4527,,98,98,,,,,,,,,,,,,,,,bars/008.png,bars/mask008.png,,,,,,,,,,,,4,1,,,,,,,6,10,6,10,,,,,,,,,,,324.6978,325.1985,325.4527,326.3498,space,0.8825,,326.35,12,82,327.3476,327.3476,329.5996,space,2.2276,,0,20,20,20,1,110,0,,,,,,,,
,,5deb2c9df87f5524e62c8959,65af5593cbfd19b26dc0c3d9,2024-01-22_23h59.24.493,bars,2023.2.3,Win32,60.24096386,657b66ea316d21385b68909f,,,,,,,,,,,329.6003,330.5978,,,331.0979,331.3475,,73,73,,,,,,,,,,,,,,,,bars/023.png,bars/mask003.png,,,,,,,,,,,,0,2,,,,,,,8,10,10,10,,,,,,,,,,,330.5979,331.0977,331.3476,332.2148,space,0.8521,,332.2152,53,42,333.2145,333.2146,334.014,space,0.7731,,0,21,21,21,1,20,115,,,,,,,,
,,5deb2c9df87f5524e62c8959,65af5593cbfd19b26dc0c3d9,2024-01-22_23h59.24.493,bars,2023.2.3,Win32,60.24096386,657b66ea316d21385b68909f,,,,,,,,,,,334.015,335.0169,,,335.514,335.7676,,86,86,,,,,,,,,,,,,,,,bars/036.png,bars/mask000.png,,,,,,,,,,,,0,1,,,,,,,6,8,8,8,,,,,,,,,,,335.0171,335.5138,335.7677,338.216,space,2.4365,,338.2161,59,66,339.2158,339.2159,340.3476,space,1.0987,,0,22,22,22,1,145,20,,,,,,,,
,,5deb2c9df87f5524e62c8959,65af5593cbfd19b26dc0c3d9,2024-01-22_23h59.24.493,bars,2023.2.3,Win32,60.24096386,657b66ea316d21385b68909f,,,,,,,,,,,340.3489,341.3473,,,341.8477,342.0972,,104,104,,,,,,,,,,,,,,,,bars/044.png,bars/mask002.png,,,,,,,,,,,,0,1,,,,,,,8,10,7,9,,,,,,,,,,,341.3473,341.8476,342.0973,342.7475,space,0.6339,,342.7477,29,51,343.7518,343.7519,344.2996,space,0.5274,,0,23,23,23,1,75,155,,,,,,,,
,,5deb2c9df87f5524e62c8959,65af5593cbfd19b26dc0c3d9,2024-01-22_23h59.24.493,bars,2023.2.3,Win32,60.24096386,657b66ea316d21385b68909f,,,,,,,,,,,344.3006,345.2971,,,345.7981,346.0504,,139,139,,,,,,,,,,,,,,,,bars/017.png,bars/mask008.png,,,,,,,,,,,,6,1,,,,,,,6,10,7,10,,,,,,,,,,,345.2972,345.798,346.0506,346.7644,space,0.7013,,346.7646,6,86,347.7664,347.7666,348.3672,space,0.5822,,0,24,24,24,1,145,45,,,,,,,,
,,5deb2c9df87f5524e62c8959,65af5593cbfd19b26dc0c3d9,2024-01-22_23h59.24.493,bars,2023.2.3,Win32,60.24096386,657b66ea316d21385b68909f,,,,,,,,,,,348.3678,349.3662,,,349.864,350.1142,,92,92,,,,,,,,,,,,,,,,bars/032.png,bars/mask009.png,,,,,,,,,,,,0,1,,,,,,,4,8,4,8,,,,,,,,,,,349.3662,349.864,350.1144,353.5143,space,3.3839,,353.5145,33,72,354.516,354.5161,355.0308,space,0.488,,0,25,25,25,1,125,20,,,,,,,,
,,5deb2c9df87f5524e62c8959,65af5593cbfd19b26dc0c3d9,2024-01-22_23h59.24.493,bars,2023.2.3,Win32,60.24096386,657b66ea316d21385b68909f,,,,,,,,,,,355.0317,356.0305,,,356.531,356.7817,,55,55,,,,,,,,,,,,,,,,bars/040.png,bars/mask004.png,,,,,,,,,,,,0,2,,,,,,,2,10,3,10,,,,,,,,,,,356.0306,356.5308,356.7818,359.1658,space,2.3702,,359.1658,85,50,360.1673,360.1673,360.631,space,0.4378,,0,26,26,26,1,140,5,,,,,,,,
,,5deb2c9df87f5524e62c8959,65af5593cbfd19b26dc0c3d9,2024-01-22_23h59.24.493,bars,2023.2.3,Win32,60.24096386,657b66ea316d21385b68909f,,,,,,,,,,,360.6319,361.6337,,,362.1322,362.3806,,131,131,,,,,,,,,,,,,,,,bars/018.png,bars/mask007.png,,,,,,,,,,,,0,1,,,,,,,0,8,0,9,,,,,,,,,,,361.6338,362.1322,362.3807,363.0643,space,0.6656,,363.0644,19,41,364.0641,364.0642,364.1039,space,0.0159,,0,27,27,27,1,150,90,,,,,,,,
,,5deb2c9df87f5524e62c8959,65af5593cbfd19b26dc0c3d9,2024-01-22_23h59.24.493,bars,2023.2.3,Win32,60.24096386,657b66ea316d21385b68909f,,,,,,,,,,,364.1046,365.0976,,,365.5977,365.8516,,143,143,,,,,,,,,,,,,,,,bars/007.png,bars/mask008.png,,,,,,,,,,,,0,1,,,,,,,0,10,0,10,,,,,,,,,,,365.0977,365.5976,365.8517,366.7655,space,0.8999,,366.7656,32,88,367.7647,367.7648,368.1139,space,0.3272,,0,28,28,28,1,175,55,,,,,,,,
,,5deb2c9df87f5524e62c8959,65af5593cbfd19b26dc0c3d9,2024-01-22_23h59.24.493,bars,2023.2.3,Win32,60.24096386,657b66ea316d21385b68909f,,,,,,,,,,,368.1149,369.115,,,369.614,369.8644,,159,159,,,,,,,,,,,,,,,,bars/049.png,bars/mask009.png,,,,,,,,,,,,2,1,,,,,,,2,10,2,9,,,,,,,,,,,369.1152,369.6139,369.8644,370.4821,space,0.6008,,370.4822,1,44,371.481,371.4812,371.865,space,0.3654,,0,29,29,29,1,160,115,,,,,,,,
,,5deb2c9df87f5524e62c8959,65af5593cbfd19b26dc0c3d9,2024-01-22_23h59.24.493,bars,2023.2.3,Win32,60.24096386,657b66ea316d21385b68909f,,,,,,,,,,,371.8658,372.8642,,,373.3645,373.6156,,77,77,,,,,,,,,,,,,,,,bars/033.png,bars/mask005.png,,,,,,,,,,,,0,1,,,,,,,0,8,0,8,,,,,,,,,,,372.8643,373.3643,373.6158,374.7318,space,1.1012,,374.7319,52,78,375.7347,375.7348,376.0996,space,0.347,,0,30,30,30,1,25,155,,,,,,,,
,,5deb2c9df87f5524e62c8959,65af5593cbfd19b26dc0c3d9,2024-01-22_23h59.24.493,bars,2023.2.3,Win32,60.24096386,657b66ea316d21385b68909f,,,,,,,,,,,376.1004,377.0979,,,377.5986,377.8493,,58,-122,,,,,,,,,,,,,,,,bars/025.png,bars/mask004.png,,,,,,,,,,,,4,2,,,,,,,2,10,3,9,,,,,,,,,,,377.098,377.5984,377.8494,382.7669,space,4.9049,,382.7671,47,18,383.7651,383.7652,384.1139,space,0.3177,,0,31,31,31,1,105,40,,,,,,,,
,,5deb2c9df87f5524e62c8959,65af5593cbfd19b26dc0c3d9,2024-01-22_23h59.24.493,bars,2023.2.3,Win32,60.24096386,657b66ea316d21385b68909f,,,,,,,,,,,384.1149,385.119,,,385.6151,385.8663,,78,258,,,,,,,,,,,,,,,,bars/019.png,bars/mask005.png,,,,,,,,,,,,1,2,,,,,,,4,10,3,10,,,,,,,,,,,385.119,385.6149,385.8664,389.2311,space,3.3501,,389.2312,33,27,390.2309,390.2311,390.6148,space,0.3597,,0,32,32,32,1,45,105,,,,,,,,
,,5deb2c9df87f5524e62c8959,65af5593cbfd19b26dc0c3d9,2024-01-22_23h59.24.493,bars,2023.2.3,Win32,60.24096386,657b66ea316d21385b68909f,,,,,,,,,,,390.6162,391.6141,,,392.114,392.3643,,80,80,,,,,,,,,,,,,,,,bars/044.png,bars/mask001.png,,,,,,,,,,,,3,1,,,,,,,2,10,4,10,,,,,,,,,,,391.6143,392.114,392.3645,393.664,space,1.28,,393.6641,5,75,394.6645,394.6646,395.24,space,0.5425,,0,33,33,33,1,75,155,,,,,,,,
,,5deb2c9df87f5524e62c8959,65af5593cbfd19b26dc0c3d9,2024-01-22_23h59.24.493,bars,2023.2.3,Win32,60.24096386,657b66ea316d21385b68909f,,,,,,,,,,,395.2408,396.2306,,,396.7251,396.9725,,135,135,,,,,,,,,,,,,,,,bars/001.png,bars/mask008.png,,,,,,,,,,,,0,1,,,,,,,0,8,0,8,,,,,,,,,,,396.2306,396.725,396.9726,397.6455,space,0.653,,397.6457,5,50,398.6472,398.6473,398.8574,space,0.1824,,0,34,34,34,1,130,85,,,,,,,,
,,5deb2c9df87f5524e62c8959,65af5593cbfd19b26dc0c3d9,2024-01-22_23h59.24.493,bars,2023.2.3,Win32,60.24096386,657b66ea316d21385b68909f,,,,,,,,,,,398.8581,399.8529,,,400.3414,400.5927,,153,153,,,,,,,,,,,,,,,,bars/025.png,bars/mask009.png,,,,,,,,,,,,0,1,,,,,,,2,6,2,6,,,,,,,,,,,399.8531,400.3413,400.5927,401.8935,space,1.2843,,401.8937,48,67,402.8977,402.8977,403.9923,space,1.0664,,0,35,35,35,1,105,40,,,,,,,,
,,5deb2c9df87f5524e62c8959,65af5593cbfd19b26dc0c3d9,2024-01-22_23h59.24.493,bars,2023.2.3,Win32,60.24096386,657b66ea316d21385b68909f,,,,,,,,,,,403.9931,404.9863,,,405.4917,405.7375,,9,9,,,,,,,,,,,,,,,,bars/036.png,bars/mask006.png,,,,,,,,,,,,3,2,,,,,,,4,4,4,4,,,,,,,,,,,404.9869,405.4915,405.7376,406.4595,space,0.7009,,406.4596,44,11,407.4516,407.4517,407.864,space,0.3868,,0,36,36,36,1,145,20,,,,,,,,
,,5deb2c9df87f5524e62c8959,65af5593cbfd19b26dc0c3d9,2024-01-22_23h59.24.493,bars,2023.2.3,Win32,60.24096386,657b66ea316d21385b68909f,,,,,,,,,,,407.8653,408.8721,,,409.3641,409.6023,,70,70,,,,,,,,,,,,,,,,bars/004.png,bars/mask001.png,,,,,,,,,,,,0,1,,,,,,,2,6,3,8,,,,,,,,,,,408.8723,409.364,409.6024,411.6776,space,2.0525,,411.6778,45,55,412.6702,412.6703,413.3437,space,0.6504,,0,37,37,37,1,25,125,,,,,,,,
,,5deb2c9df87f5524e62c8959,65af5593cbfd19b26dc0c3d9,2024-01-22_23h59.24.493,bars,2023.2.3,Win32,60.24096386,657b66ea316d21385b68909f,,,,,,,,,,,413.3449,414.3471,,,414.8403,415.0805,,83,83,,,,,,,,,,,,,,,,bars/017.png,bars/mask008.png,,,,,,,,,,,,0,2,,,,,,,4,8,4,7,,,,,,,,,,,414.3472,414.8402,415.0805,415.6255,space,0.5336,,415.6256,62,38,416.624,416.6241,417.4483,space,0.8011,,0,38,38,38,1,145,45,,,,,,,,
,,5deb2c9df87f5524e62c8959,65af5593cbfd19b26dc0c3d9,2024-01-22_23h59.24.493,bars,2023.2.3,Win32,60.24096386,657b66ea316d21385b68909f,,,,,,,,,,,417.4491,418.4482,,,418.9475,419.1987,,43,43,,,,,,,,,,,,,,,,bars/002.png,bars/mask002.png,,,,,,,,,,,,0,2,,,,,,,6,10,5,10,,,,,,,,,,,418.4484,418.9473,419.1988,421.4355,space,2.2227,,421.4356,87,42,422.4307,422.4308,423.0175,space,0.5669,,0,39,39,39,1,130,85,,,,,,,,
,,5deb2c9df87f5524e62c8959,65af5593cbfd19b26dc0c3d9,2024-01-22_23h59.24.493,bars,2023.2.3,Win32,60.24096386,657b66ea316d21385b68909f,,,,,,,,,,,423.0182,424.0135,,,424.5146,424.764,,127,127,,,,,,,,,,,,,,,,bars/026.png,bars/mask004.png,,,,,,,,,,,,0,2,,,,,,,8,8,6,8,,,,,,,,,,,424.0135,424.5144,424.7643,425.3482,space,0.5676,,425.3484,88,42,426.3473,426.3474,426.9862,space,0.621,,0,40,40,40,1,35,85,,,,,,,,
,,5deb2c9df87f5524e62c8959,65af5593cbfd19b26dc0c3d9,2024-01-22_23h59.24.493,bars,2023.2.3,Win32,60.24096386,657b66ea316d21385b68909f,,,,,,,,,,,426.9872,427.9809,,,428.4808,428.7306,,104,104,,,,,,,,,,,,,,,,bars/049.png,bars/mask008.png,,,,,,,,,,,,4,2,,,,,,,6,6,5,6,,,,,,,,,,,427.981,428.4807,428.7307,431.031,space,2.2876,,431.0312,56,11,432.0314,432.0315,432.7907,space,0.7262,,0,41,41,41,1,160,115,,,,,,,,
,,5deb2c9df87f5524e62c8959,65af5593cbfd19b26dc0c3d9,2024-01-22_23h59.24.493,bars,2023.2.3,Win32,60.24096386,657b66ea316d21385b68909f,,,,,,,,,,,432.7912,433.7876,,,434.2815,434.5403,,72,72,,,,,,,,,,,,,,,,bars/017.png,bars/mask008.png,,,,,,,,,,,,1,2,,,,,,,4,8,6,7,,,,,,,,,,,433.7878,434.2814,434.5404,435.241,space,0.688,,435.2411,73,27,436.2313,436.2315,438.2372,space,1.979,,0,42,42,42,1,145,45,,,,,,,,
,,5deb2c9df87f5524e62c8959,65af5593cbfd19b26dc0c3d9,2024-01-22_23h59.24.493,bars,2023.2.3,Win32,60.24096386,657b66ea316d21385b68909f,,,,,,,,,,,438.2378,439.2305,,,439.7405,439.9825,,116,116,,,,,,,,,,,,,,,,bars/023.png,bars/mask001.png,,,,,,,,,,,,9,2,,,,,,,6,10,5,9,,,,,,,,,,,439.2306,439.7405,439.9826,441.2451,space,1.2379,,441.2452,84,1,442.2418,442.242,443.0324,space,0.7704,,0,43,43,43,1,20,115,,,,,,,,
,,5deb2c9df87f5524e62c8959,65af5593cbfd19b26dc0c3d9,2024-01-22_23h59.24.493,bars,2023.2.3,Win32,60.24096386,657b66ea316d21385b68909f,,,,,,,,,,,443.0332,444.0307,,,444.5249,444.7683,,124,124,,,,,,,,,,,,,,,,bars/016.png,bars/mask007.png,,,,,,,,,,,,0,2,,,,,,,4,8,4,6,,,,,,,,,,,444.0309,444.5249,444.7684,446.8261,space,2.0348,,446.8262,84,41,447.8165,447.8165,448.3433,space,0.4972,,0,44,44,44,1,40,165,,,,,,,,
,,5deb2c9df87f5524e62c8959,65af5593cbfd19b26dc0c3d9,2024-01-22_23h59.24.493,bars,2023.2.3,Win32,60.24096386,657b66ea316d21385b68909f,,,,,,,,,,,448.3441,449.3471,,,449.8415,450.0825,,102,102,,,,,,,,,,,,,,,,bars/018.png,bars/mask006.png,,,,,,,,,,,,5,2,,,,,,,6,10,6,8,,,,,,,,,,,449.3471,449.8413,450.0826,452.8744,space,2.7675,,452.8744,48,12,453.8639,453.864,454.5641,space,0.6657,,0,45,45,45,1,150,90,,,,,,,,
,,5deb2c9df87f5524e62c8959,65af5593cbfd19b26dc0c3d9,2024-01-22_23h59.24.493,bars,2023.2.3,Win32,60.24096386,657b66ea316d21385b68909f,,,,,,,,,,,454.5652,455.5637,,,456.058,456.2978,,165,165,,,,,,,,,,,,,,,,bars/040.png,bars/mask008.png,,,,,,,,,,,,3,2,,,,,,,8,10,9,10,,,,,,,,,,,455.5638,456.0578,456.2979,457.1063,space,0.781,,457.1065,25,20,458.0972,458.0974,458.7538,space,0.628,,0,46,46,46,1,140,5,,,,,,,,
,,5deb2c9df87f5524e62c8959,65af5593cbfd19b26dc0c3d9,2024-01-22_23h59.24.493,bars,2023.2.3,Win32,60.24096386,657b66ea316d21385b68909f,,,,,,,,,,,458.7542,459.7522,,,460.2476,460.4973,,97,97,,,,,,,,,,,,,,,,bars/009.png,bars/mask008.png,,,,,,,,,,,,6,2,,,,,,,10,8,10,8,,,,,,,,,,,459.7523,460.2474,460.4974,461.407,space,0.898,,461.4074,82,8,462.3977,462.3977,462.8742,space,0.4481,,0,47,47,47,1,15,105,,,,,,,,
,,5deb2c9df87f5524e62c8959,65af5593cbfd19b26dc0c3d9,2024-01-22_23h59.24.493,bars,2023.2.3,Win32,60.24096386,657b66ea316d21385b68909f,,,,,,,,,,,462.8749,463.8639,,,464.3642,464.6232,,67,67,,,,,,,,,,,,,,,,bars/038.png,bars/mask006.png,,,,,,,,,,,,6,2,,,,,,,10,6,10,7,,,,,,,,,,,463.8639,464.3642,464.6233,467.6902,space,3.0484,,467.6903,82,3,468.6805,468.6805,468.9895,space,0.2787,,0,48,48,48,1,165,70,,,,,,,,
,,5deb2c9df87f5524e62c8959,65af5593cbfd19b26dc0c3d9,2024-01-22_23h59.24.493,bars,2023.2.3,Win32,60.24096386,657b66ea316d21385b68909f,,,,,,,,,,,468.9902,469.9799,,,470.4807,470.7252,,90,-90,,,,,,,,,,,,,,,,bars/041.png,bars/mask004.png,,,,,,,,,,,,6,2,,,,,,,8,8,8,7,,,,,,,,,,,469.98,470.4806,470.7252,475.4823,space,4.7396,,475.4824,70,5,476.4861,476.4862,477.1771,space,0.6559,,0,49,49,49,1,20,85,,,,,,,,
,,5deb2c9df87f5524e62c8959,65af5593cbfd19b26dc0c3d9,2024-01-22_23h59.24.493,bars,2023.2.3,Win32,60.24096386,657b66ea316d21385b68909f,,,,,,,,,,,,,,,,,,,,,,,,,,,,,,,,,,,,,,,,,,,,,,,,,,,,,,,,,,,,,,,,,,,,,,,,,,,,,,,,,,,,,,,,,,,,,477.1793,537.1707,0,0,0,1,1,sequence_tables/blk032.csv
,,5deb2c9df87f5524e62c8959,65af5593cbfd19b26dc0c3d9,2024-01-22_23h59.24.493,bars,2023.2.3,Win32,60.24096386,657b66ea316d21385b68909f,,,,,,,,,,,547.1473,548.1304,,,548.6223,548.8667,,6,6,,,,,,,,,,,,,,,,bars/040.png,bars/mask001.png,,,,,,,,,,,,4,2,,,,,,,9,4,9,4,,,,,,537.1855,547.1245,space,9.9291,,548.1304,548.6219,548.8669,552.2373,space,3.3459,,552.2375,46,1,553.2325,553.2326,553.2501,,,,0,0,0,0,1,140,5,,,,,,,,
,,5deb2c9df87f5524e62c8959,65af5593cbfd19b26dc0c3d9,2024-01-22_23h59.24.493,bars,2023.2.3,Win32,60.24096386,657b66ea316d21385b68909f,,,,,,,,,,,553.2505,554.2473,,,554.7569,555.0077,,56,236,,,,,,,,,,,,,,,,bars/034.png,bars/mask005.png,,,,,,,,,,,,4,2,,,,,,,10,6,10,6,,,,,,,,,,,554.2474,554.7567,555.0077,560.1309,space,5.1046,,560.1311,69,9,561.1306,561.1307,561.1443,,,,0,1,1,1,1,125,65,,,,,,,,
,,5deb2c9df87f5524e62c8959,65af5593cbfd19b26dc0c3d9,2024-01-22_23h59.24.493,bars,2023.2.3,Win32,60.24096386,657b66ea316d21385b68909f,,,,,,,,,,,561.1445,562.1338,,,562.6316,562.8807,,137,-43,,,,,,,,,,,,,,,,bars/000.png,bars/mask009.png,,,,,,,,,,,,4,2,,,,,,,8,4,8,5,,,,,,,,,,,562.1339,562.6315,562.8807,566.1504,space,3.2549,,566.1505,83,8,567.1477,567.1477,567.1641,,,,0,2,2,2,1,40,145,,,,,,,,
,,5deb2c9df87f5524e62c8959,65af5593cbfd19b26dc0c3d9,2024-01-22_23h59.24.493,bars,2023.2.3,Win32,60.24096386,657b66ea316d21385b68909f,,,,,,,,,,,567.1644,568.1643,,,568.6686,568.9143,,70,70,,,,,,,,,,,,,,,,bars/035.png,bars/mask008.png,,,,,,,,,,,,5,2,,,,,,,6,6,6,7,,,,,,,,,,,568.1643,568.6686,568.9143,571.6143,space,2.6828,,571.6144,75,10,572.6145,572.6146,572.6326,,,,0,3,3,3,1,175,60,,,,,,,,
,,5deb2c9df87f5524e62c8959,65af5593cbfd19b26dc0c3d9,2024-01-22_23h59.24.493,bars,2023.2.3,Win32,60.24096386,657b66ea316d21385b68909f,,,,,,,,,,,572.6328,573.6315,,,574.1311,574.3813,,80,80,,,,,,,,,,,,,,,,bars/002.png,bars/mask005.png,,,,,,,,,,,,7,2,,,,,,,4,8,3,8,,,,,,,,,,,573.6316,574.131,574.3815,576.5838,space,2.1885,,576.5839,50,5,577.5821,577.5821,577.5982,,,,0,4,4,4,1,130,85,,,,,,,,
,,5deb2c9df87f5524e62c8959,65af5593cbfd19b26dc0c3d9,2024-01-22_23h59.24.493,bars,2023.2.3,Win32,60.24096386,657b66ea316d21385b68909f,,,,,,,,,,,577.5983,578.6017,,,579.0997,579.3481,,99,99,,,,,,,,,,,,,,,,bars/018.png,bars/mask006.png,,,,,,,,,,,,7,2,,,,,,,2,10,1,10,,,,,,,,,,,578.6018,579.0996,579.3482,582.9144,space,3.5505,,582.9145,51,9,583.9139,583.914,583.9307,,,,0,5,5,5,1,150,90,,,,,,,,
,,5deb2c9df87f5524e62c8959,65af5593cbfd19b26dc0c3d9,2024-01-22_23h59.24.493,bars,2023.2.3,Win32,60.24096386,657b66ea316d21385b68909f,,,,,,,,,,,583.9311,584.9306,,,585.4327,585.6814,,132,132,,,,,,,,,,,,,,,,bars/033.png,bars/mask008.png,,,,,,,,,,,,2,2,,,,,,,4,8,4,8,,,,,,,,,,,584.9307,585.4327,585.6815,588.0663,space,2.3692,,588.0663,73,23,589.0645,589.0647,589.0833,,,,0,6,6,6,1,25,155,,,,,,,,
,,5deb2c9df87f5524e62c8959,65af5593cbfd19b26dc0c3d9,2024-01-22_23h59.24.493,bars,2023.2.3,Win32,60.24096386,657b66ea316d21385b68909f,,,,,,,,,,,589.0835,590.0817,,,590.5807,590.8306,,8,8,,,,,,,,,,,,,,,,bars/014.png,bars/mask001.png,,,,,,,,,,,,7,2,,,,,,,2,10,1,10,,,,,,,,,,,590.0818,590.5807,590.8306,593.417,space,2.5736,,593.4171,72,8,594.414,594.4141,594.4284,,,,0,7,7,7,1,80,0,,,,,,,,
,,5deb2c9df87f5524e62c8959,65af5593cbfd19b26dc0c3d9,2024-01-22_23h59.24.493,bars,2023.2.3,Win32,60.24096386,657b66ea316d21385b68909f,,,,,,,,,,,594.4286,595.4306,,,595.9307,596.1811,,63,63,,,,,,,,,,,,,,,,bars/027.png,bars/mask005.png,,,,,,,,,,,,4,2,,,,,,,4,8,4,7,,,,,,,,,,,595.4307,595.9306,596.1812,597.3309,space,1.1347,,597.331,47,13,598.3305,598.3307,598.3324,,,,0,8,8,8,1,110,50,,,,,,,,
,,5deb2c9df87f5524e62c8959,65af5593cbfd19b26dc0c3d9,2024-01-22_23h59.24.493,bars,2023.2.3,Win32,60.24096386,657b66ea316d21385b68909f,,,,,,,,,,,598.3329,599.3308,,,599.8312,600.0811,,128,128,,,,,,,,,,,,,,,,bars/003.png,bars/mask006.png,,,,,,,,,,,,4,2,,,,,,,2,6,2,7,,,,,,,,,,,599.331,599.8311,600.0812,604.6476,space,4.5507,,604.6479,77,12,605.6478,605.648,605.6649,,,,0,9,9,9,1,25,140,,,,,,,,
,,5deb2c9df87f5524e62c8959,65af5593cbfd19b26dc0c3d9,2024-01-22_23h59.24.493,bars,2023.2.3,Win32,60.24096386,657b66ea316d21385b68909f,,,,,,,,,,,605.6655,606.6641,,,607.1647,607.4152,,46,46,,,,,,,,,,,,,,,,bars/045.png,bars/mask006.png,,,,,,,,,,,,0,2,,,,,,,4,8,3,7,,,,,,,,,,,606.6642,607.1647,607.4153,609.2643,space,1.8299,,609.2643,54,36,610.2648,610.2649,610.2806,,,,0,10,10,10,1,100,10,,,,,,,,
,,5deb2c9df87f5524e62c8959,65af5593cbfd19b26dc0c3d9,2024-01-22_23h59.24.493,bars,2023.2.3,Win32,60.24096386,657b66ea316d21385b68909f,,,,,,,,,,,610.2812,611.2827,,,611.7818,612.0317,,2,2,,,,,,,,,,,,,,,,bars/032.png,bars/mask003.png,,,,,,,,,,,,3,2,,,,,,,2,6,1,7,,,,,,,,,,,611.2827,611.7817,612.0318,613.5676,space,1.519,,613.5677,57,18,614.5639,614.564,614.5658,,,,0,11,11,11,1,125,20,,,,,,,,
,,5deb2c9df87f5524e62c8959,65af5593cbfd19b26dc0c3d9,2024-01-22_23h59.24.493,bars,2023.2.3,Win32,60.24096386,657b66ea316d21385b68909f,,,,,,,,,,,614.5665,615.5658,,,616.064,616.314,,97,97,,,,,,,,,,,,,,,,bars/019.png,bars/mask001.png,,,,,,,,,,,,4,2,,,,,,,4,4,4,6,,,,,,,,,,,615.5659,616.064,616.3141,619.6642,space,3.3354,,619.6643,52,8,620.6657,620.6659,620.6914,,,,0,12,12,12,1,45,105,,,,,,,,
,,5deb2c9df87f5524e62c8959,65af5593cbfd19b26dc0c3d9,2024-01-22_23h59.24.493,bars,2023.2.3,Win32,60.24096386,657b66ea316d21385b68909f,,,,,,,,,,,620.6916,621.6813,,,622.1752,622.4142,,75,75,,,,,,,,,,,,,,,,bars/002.png,bars/mask003.png,,,,,,,,,,,,4,2,,,,,,,2,6,1,6,,,,,,,,,,,621.6815,622.1752,622.4144,625.7278,space,3.2871,,625.7278,55,10,626.7403,626.7404,626.7571,,,,0,13,13,13,1,130,85,,,,,,,,
,,5deb2c9df87f5524e62c8959,65af5593cbfd19b26dc0c3d9,2024-01-22_23h59.24.493,bars,2023.2.3,Win32,60.24096386,657b66ea316d21385b68909f,,,,,,,,,,,626.7571,627.7512,,,628.2582,628.4972,,58,58,,,,,,,,,,,,,,,,bars/030.png,bars/mask007.png,,,,,,,,,,,,3,2,,,,,,,4,4,4,4,,,,,,,,,,,627.7513,628.2582,628.4972,631.0956,space,2.5698,,631.0957,82,7,632.0844,632.0847,632.108,,,,0,14,14,14,1,140,65,,,,,,,,
,,5deb2c9df87f5524e62c8959,65af5593cbfd19b26dc0c3d9,2024-01-22_23h59.24.493,bars,2023.2.3,Win32,60.24096386,657b66ea316d21385b68909f,,,,,,,,,,,632.1083,633.0992,,,633.5991,633.8429,,104,284,,,,,,,,,,,,,,,,bars/039.png,bars/mask006.png,,,,,,,,,,,,3,2,,,,,,,6,2,6,3,,,,,,,,,,,633.0992,633.5989,633.8431,638.0128,space,4.1546,,638.0129,71,1,639.005,639.0051,639.0223,,,,0,15,15,15,1,175,105,,,,,,,,
,,5deb2c9df87f5524e62c8959,65af5593cbfd19b26dc0c3d9,2024-01-22_23h59.24.493,bars,2023.2.3,Win32,60.24096386,657b66ea316d21385b68909f,,,,,,,,,,,639.0224,640.0236,,,640.5145,640.7582,,93,93,,,,,,,,,,,,,,,,bars/002.png,bars/mask004.png,,,,,,,,,,,,0,2,,,,,,,8,0,8,0,,,,,,,,,,,640.0236,640.5144,640.7582,643.5898,space,2.8154,,643.59,37,8,644.5895,644.5897,644.6097,,,,0,16,16,16,1,130,85,,,,,,,,
,,5deb2c9df87f5524e62c8959,65af5593cbfd19b26dc0c3d9,2024-01-22_23h59.24.493,bars,2023.2.3,Win32,60.24096386,657b66ea316d21385b68909f,,,,,,,,,,,644.6098,645.6095,,,646.1014,646.3568,,179,179,,,,,,,,,,,,,,,,bars/008.png,bars/mask002.png,,,,,,,,,,,,3,2,,,,,,,6,2,6,3,,,,,,,,,,,645.6096,646.1012,646.3569,649.0953,space,2.7207,,649.0954,69,1,650.097,650.0971,650.1139,,,,0,17,17,17,1,110,0,,,,,,,,
,,5deb2c9df87f5524e62c8959,65af5593cbfd19b26dc0c3d9,2024-01-22_23h59.24.493,bars,2023.2.3,Win32,60.24096386,657b66ea316d21385b68909f,,,,,,,,,,,650.1141,651.114,,,651.6061,651.8473,,97,97,,,,,,,,,,,,,,,,bars/018.png,bars/mask007.png,,,,,,,,,,,,3,2,,,,,,,4,4,1,4,,,,,,,,,,,651.1141,651.606,651.8474,654.1935,space,2.3352,,654.1936,53,7,655.1901,655.1902,655.2112,,,,0,18,18,18,1,150,90,,,,,,,,
,,5deb2c9df87f5524e62c8959,65af5593cbfd19b26dc0c3d9,2024-01-22_23h59.24.493,bars,2023.2.3,Win32,60.24096386,657b66ea316d21385b68909f,,,,,,,,,,,655.2114,656.2013,,,656.6924,656.9307,,92,92,,,,,,,,,,,,,,,,bars/037.png,bars/mask009.png,,,,,,,,,,,,2,2,,,,,,,2,2,3,3,,,,,,,,,,,656.2014,656.6924,656.9308,658.1545,space,1.1985,,658.1546,58,13,659.1474,659.1474,659.1498,,,,0,19,19,19,1,150,105,,,,,,,,
,,5deb2c9df87f5524e62c8959,65af5593cbfd19b26dc0c3d9,2024-01-22_23h59.24.493,bars,2023.2.3,Win32,60.24096386,657b66ea316d21385b68909f,,,,,,,,,,,659.1504,660.1473,,,660.6581,660.8976,,123,123,,,,,,,,,,,,,,,,bars/049.png,bars/mask006.png,,,,,,,,,,,,2,2,,,,,,,0,4,1,3,,,,,,,,,,,660.1473,660.658,660.8977,664.4416,space,3.5332,,664.4417,37,8,665.4312,665.4313,665.4526,,,,0,20,20,20,1,160,115,,,,,,,,
,,5deb2c9df87f5524e62c8959,65af5593cbfd19b26dc0c3d9,2024-01-22_23h59.24.493,bars,2023.2.3,Win32,60.24096386,657b66ea316d21385b68909f,,,,,,,,,,,665.4529,666.4481,,,666.9479,667.1988,,114,114,,,,,,,,,,,,,,,,bars/036.png,bars/mask009.png,,,,,,,,,,,,0,1,,,,,,,0,2,1,4,,,,,,,,,,,666.4483,666.9478,667.1989,669.8809,space,2.6673,,669.881,31,86,670.8812,670.8812,670.8989,,,,0,21,21,21,1,145,20,,,,,,,,
,,5deb2c9df87f5524e62c8959,65af5593cbfd19b26dc0c3d9,2024-01-22_23h59.24.493,bars,2023.2.3,Win32,60.24096386,657b66ea316d21385b68909f,,,,,,,,,,,670.8991,671.8979,,,672.3975,672.6474,,138,138,,,,,,,,,,,,,,,,bars/049.png,bars/mask004.png,,,,,,,,,,,,1,1,,,,,,,2,0,3,1,,,,,,,,,,,671.8981,672.3975,672.6474,673.9814,space,1.3165,,673.9815,22,23,674.9852,674.9852,674.9867,,,,0,22,22,22,1,160,115,,,,,,,,
,,5deb2c9df87f5524e62c8959,65af5593cbfd19b26dc0c3d9,2024-01-22_23h59.24.493,bars,2023.2.3,Win32,60.24096386,657b66ea316d21385b68909f,,,,,,,,,,,674.9872,675.9809,,,676.4847,676.7318,,93,93,,,,,,,,,,,,,,,,bars/019.png,bars/mask006.png,,,,,,,,,,,,2,2,,,,,,,0,2,0,4,,,,,,,,,,,675.9809,676.4846,676.7319,679.4642,space,2.7161,,679.4644,48,12,680.4645,680.4646,680.4827,,,,0,23,23,23,1,45,105,,,,,,,,
,,5deb2c9df87f5524e62c8959,65af5593cbfd19b26dc0c3d9,2024-01-22_23h59.24.493,bars,2023.2.3,Win32,60.24096386,657b66ea316d21385b68909f,,,,,,,,,,,680.4828,681.4818,,,681.9808,682.2325,,65,65,,,,,,,,,,,,,,,,bars/027.png,bars/mask005.png,,,,,,,,,,,,2,2,,,,,,,2,4,2,4,,,,,,,,,,,681.4819,681.9808,682.2326,684.5337,space,2.289,,684.5338,45,15,685.5315,685.5315,685.552,,,,0,24,24,24,1,110,50,,,,,,,,
,,5deb2c9df87f5524e62c8959,65af5593cbfd19b26dc0c3d9,2024-01-22_23h59.24.493,bars,2023.2.3,Win32,60.24096386,657b66ea316d21385b68909f,,,,,,,,,,,685.5524,686.5558,,,687.0526,687.2923,,55,55,,,,,,,,,,,,,,,,bars/026.png,bars/mask008.png,,,,,,,,,,,,0,1,,,,,,,0,6,0,4,,,,,,,,,,,686.556,687.0525,687.2923,687.9578,space,0.6496,,687.9579,20,30,688.9551,688.9552,688.9597,,,,0,25,25,25,1,35,85,,,,,,,,
,,5deb2c9df87f5524e62c8959,65af5593cbfd19b26dc0c3d9,2024-01-22_23h59.24.493,bars,2023.2.3,Win32,60.24096386,657b66ea316d21385b68909f,,,,,,,,,,,688.9601,689.9541,,,690.4563,690.7077,,8,188,,,,,,,,,,,,,,,,bars/024.png,bars/mask003.png,,,,,,,,,,,,3,2,,,,,,,0,8,1,8,,,,,,,,,,,689.9542,690.4562,690.7078,692.7102,space,1.9851,,692.7103,68,18,693.7024,693.7026,693.7069,,,,0,26,26,26,1,120,170,,,,,,,,
,,5deb2c9df87f5524e62c8959,65af5593cbfd19b26dc0c3d9,2024-01-22_23h59.24.493,bars,2023.2.3,Win32,60.24096386,657b66ea316d21385b68909f,,,,,,,,,,,693.7074,694.6986,,,695.2087,695.4507,,146,146,,,,,,,,,,,,,,,,bars/044.png,bars/mask009.png,,,,,,,,,,,,6,2,,,,,,,0,6,0,8,,,,,,,,,,,694.6987,695.2086,695.4508,696.612,space,1.1361,,696.6121,71,9,697.6141,697.6143,697.6171,,,,0,27,27,27,1,75,155,,,,,,,,
,,5deb2c9df87f5524e62c8959,65af5593cbfd19b26dc0c3d9,2024-01-22_23h59.24.493,bars,2023.2.3,Win32,60.24096386,657b66ea316d21385b68909f,,,,,,,,,,,697.618,698.6242,,,699.1143,699.358,,177,177,,,,,,,,,,,,,,,,bars/045.png,bars/mask009.png,,,,,,,,,,,,2,2,,,,,,,2,4,1,3,,,,,,,,,,,698.6243,699.1142,699.3581,702.3611,space,2.9862,,702.3612,77,13,703.3551,703.3551,703.3664,,,,0,28,28,28,1,100,10,,,,,,,,
,,5deb2c9df87f5524e62c8959,65af5593cbfd19b26dc0c3d9,2024-01-22_23h59.24.493,bars,2023.2.3,Win32,60.24096386,657b66ea316d21385b68909f,,,,,,,,,,,703.3666,704.364,,,704.8553,705.0974,,129,-51,,,,,,,,,,,,,,,,bars/005.png,bars/mask009.png,,,,,,,,,,,,3,2,,,,,,,4,6,3,4,,,,,,,,,,,704.3641,704.8553,705.0975,708.8764,space,3.7676,,708.8764,61,11,709.8713,709.8714,709.8792,,,,0,29,29,29,1,10,140,,,,,,,,
,,5deb2c9df87f5524e62c8959,65af5593cbfd19b26dc0c3d9,2024-01-22_23h59.24.493,bars,2023.2.3,Win32,60.24096386,657b66ea316d21385b68909f,,,,,,,,,,,709.8793,710.8741,,,711.364,711.6141,,113,113,,,,,,,,,,,,,,,,bars/009.png,bars/mask002.png,,,,,,,,,,,,4,2,,,,,,,2,4,1,5,,,,,,,,,,,710.8741,711.364,711.6142,715.5456,space,3.9046,,715.5457,82,8,716.5355,716.5357,716.5526,,,,0,30,30,30,1,15,105,,,,,,,,
,,5deb2c9df87f5524e62c8959,65af5593cbfd19b26dc0c3d9,2024-01-22_23h59.24.493,bars,2023.2.3,Win32,60.24096386,657b66ea316d21385b68909f,,,,,,,,,,,716.5528,717.5504,,,718.0419,718.293,,78,78,,,,,,,,,,,,,,,,bars/038.png,bars/mask005.png,,,,,,,,,,,,4,2,,,,,,,4,6,4,6,,,,,,,,,,,717.5505,718.0419,718.293,720.1119,space,1.8027,,720.112,87,8,721.1255,721.1255,721.1437,,,,0,31,31,31,1,165,70,,,,,,,,
,,5deb2c9df87f5524e62c8959,65af5593cbfd19b26dc0c3d9,2024-01-22_23h59.24.493,bars,2023.2.3,Win32,60.24096386,657b66ea316d21385b68909f,,,,,,,,,,,721.1438,722.135,,,722.6253,722.8667,,34,34,,,,,,,,,,,,,,,,bars/031.png,bars/mask001.png,,,,,,,,,,,,5,2,,,,,,,6,4,5,5,,,,,,,,,,,722.1351,722.6251,722.8669,724.6941,space,1.8033,,724.6942,86,1,725.6995,725.6995,725.7127,,,,0,32,32,32,1,120,35,,,,,,,,
,,5deb2c9df87f5524e62c8959,65af5593cbfd19b26dc0c3d9,2024-01-22_23h59.24.493,bars,2023.2.3,Win32,60.24096386,657b66ea316d21385b68909f,,,,,,,,,,,725.7128,726.7148,,,727.2145,727.4654,,10,190,,,,,,,,,,,,,,,,bars/012.png,bars/mask003.png,,,,,,,,,,,,7,2,,,,,,,8,6,9,8,,,,,,,,,,,726.7153,727.2144,727.4655,729.2159,space,1.7319,,729.2161,80,5,730.2145,730.2146,730.2178,,,,0,33,33,33,1,90,15,,,,,,,,
,,5deb2c9df87f5524e62c8959,65af5593cbfd19b26dc0c3d9,2024-01-22_23h59.24.493,bars,2023.2.3,Win32,60.24096386,657b66ea316d21385b68909f,,,,,,,,,,,730.2187,731.2144,,,731.715,731.9654,,44,44,,,,,,,,,,,,,,,,bars/036.png,bars/mask009.png,,,,,,,,,,,,1,2,,,,,,,6,8,6,7,,,,,,,,,,,731.2144,731.7149,731.9654,733.0485,space,1.066,,733.0488,79,24,734.0478,734.0479,734.0505,,,,0,34,34,34,1,145,20,,,,,,,,
,,5deb2c9df87f5524e62c8959,65af5593cbfd19b26dc0c3d9,2024-01-22_23h59.24.493,bars,2023.2.3,Win32,60.24096386,657b66ea316d21385b68909f,,,,,,,,,,,734.0516,735.0479,,,735.5475,735.7971,,15,15,,,,,,,,,,,,,,,,bars/045.png,bars/mask003.png,,,,,,,,,,,,8,2,,,,,,,4,10,5,10,,,,,,,,,,,735.048,735.5474,735.7972,738.2001,space,2.3895,,738.2002,85,5,739.1974,739.1975,739.2149,,,,0,35,35,35,1,100,10,,,,,,,,
,,5deb2c9df87f5524e62c8959,65af5593cbfd19b26dc0c3d9,2024-01-22_23h59.24.493,bars,2023.2.3,Win32,60.24096386,657b66ea316d21385b68909f,,,,,,,,,,,739.2151,740.214,,,740.7076,740.9522,,133,133,,,,,,,,,,,,,,,,bars/043.png,bars/mask004.png,,,,,,,,,,,,9,2,,,,,,,6,10,6,10,,,,,,,,,,,740.2141,740.7076,740.9524,742.6607,space,1.685,,742.6608,77,3,743.664,743.6642,743.6806,,,,0,36,36,36,1,30,130,,,,,,,,
,,5deb2c9df87f5524e62c8959,65af5593cbfd19b26dc0c3d9,2024-01-22_23h59.24.493,bars,2023.2.3,Win32,60.24096386,657b66ea316d21385b68909f,,,,,,,,,,,743.6811,744.681,,,745.1808,745.4314,,171,-9,,,,,,,,,,,,,,,,bars/045.png,bars/mask009.png,,,,,,,,,,,,3,2,,,,,,,8,8,8,7,,,,,,,,,,,744.6812,745.1807,745.4315,749.2978,space,3.8505,,749.2979,71,19,750.2974,750.2974,750.3077,,,,0,37,37,37,1,100,10,,,,,,,,
,,5deb2c9df87f5524e62c8959,65af5593cbfd19b26dc0c3d9,2024-01-22_23h59.24.493,bars,2023.2.3,Win32,60.24096386,657b66ea316d21385b68909f,,,,,,,,,,,750.3079,751.2973,,,751.7978,752.0479,,21,21,,,,,,,,,,,,,,,,bars/029.png,bars/mask001.png,,,,,,,,,,,,2,2,,,,,,,10,10,10,10,,,,,,,,,,,751.2973,751.7976,752.048,753.5978,space,1.5355,,753.5978,69,24,754.5993,754.5997,754.6021,,,,0,38,38,38,1,90,45,,,,,,,,
,,5deb2c9df87f5524e62c8959,65af5593cbfd19b26dc0c3d9,2024-01-22_23h59.24.493,bars,2023.2.3,Win32,60.24096386,657b66ea316d21385b68909f,,,,,,,,,,,754.6036,755.5996,,,756.0994,756.3479,,60,240,,,,,,,,,,,,,,,,bars/038.png,bars/mask000.png,,,,,,,,,,,,7,2,,,,,,,8,10,7,10,,,,,,,,,,,755.5998,756.0993,756.3479,759.2155,space,2.8532,,759.2157,75,10,760.2141,760.2141,760.2292,,,,0,39,39,39,1,165,70,,,,,,,,
,,5deb2c9df87f5524e62c8959,65af5593cbfd19b26dc0c3d9,2024-01-22_23h59.24.493,bars,2023.2.3,Win32,60.24096386,657b66ea316d21385b68909f,,,,,,,,,,,760.2294,761.2326,,,761.7316,761.9841,,98,98,,,,,,,,,,,,,,,,bars/011.png,bars/mask005.png,,,,,,,,,,,,5,2,,,,,,,6,10,8,9,,,,,,,,,,,761.2326,761.7315,761.9842,765.1824,space,3.1844,,765.1825,62,13,766.1808,766.1808,766.1957,,,,0,40,40,40,1,160,85,,,,,,,,
,,5deb2c9df87f5524e62c8959,65af5593cbfd19b26dc0c3d9,2024-01-22_23h59.24.493,bars,2023.2.3,Win32,60.24096386,657b66ea316d21385b68909f,,,,,,,,,,,766.196,767.1851,,,767.6831,767.9308,,9,9,,,,,,,,,,,,,,,,bars/014.png,bars/mask007.png,,,,,,,,,,,,7,2,,,,,,,8,10,8,10,,,,,,,,,,,767.1852,767.6829,767.9309,768.7656,space,0.8188,,768.7656,71,9,769.7687,769.7688,769.7706,,,,0,41,41,41,1,80,0,,,,,,,,
,,5deb2c9df87f5524e62c8959,65af5593cbfd19b26dc0c3d9,2024-01-22_23h59.24.493,bars,2023.2.3,Win32,60.24096386,657b66ea316d21385b68909f,,,,,,,,,,,769.7715,770.7702,,,771.2648,771.5144,,65,245,,,,,,,,,,,,,,,,bars/047.png,bars/mask002.png,,,,,,,,,,,,6,2,,,,,,,6,8,4,7,,,,,,,,,,,770.7703,771.2647,771.5145,776.4484,space,4.919,,776.4487,50,5,777.4482,777.4483,777.4628,,,,0,42,42,42,1,15,70,,,,,,,,
,,5deb2c9df87f5524e62c8959,65af5593cbfd19b26dc0c3d9,2024-01-22_23h59.24.493,bars,2023.2.3,Win32,60.24096386,657b66ea316d21385b68909f,,,,,,,,,,,777.4633,778.4648,,,778.9648,779.2145,,87,267,,,,,,,,,,,,,,,,bars/019.png,bars/mask006.png,,,,,,,,,,,,3,2,,,,,,,8,6,10,7,,,,,,,,,,,778.4649,778.9647,779.2145,782.7018,space,3.4727,,782.7019,42,18,783.6976,783.6976,783.7118,,,,0,43,43,43,1,45,105,,,,,,,,
,,5deb2c9df87f5524e62c8959,65af5593cbfd19b26dc0c3d9,2024-01-22_23h59.24.493,bars,2023.2.3,Win32,60.24096386,657b66ea316d21385b68909f,,,,,,,,,,,783.7119,784.7179,,,785.2142,785.4644,,117,117,,,,,,,,,,,,,,,,bars/005.png,bars/mask001.png,,,,,,,,,,,,1,2,,,,,,,10,4,10,3,,,,,,,,,,,784.7179,785.2141,785.4645,787.5643,space,2.0833,,787.5643,73,23,788.5667,788.5669,788.5684,,,,0,44,44,44,1,10,140,,,,,,,,
,,5deb2c9df87f5524e62c8959,65af5593cbfd19b26dc0c3d9,2024-01-22_23h59.24.493,bars,2023.2.3,Win32,60.24096386,657b66ea316d21385b68909f,,,,,,,,,,,788.5692,789.5643,,,790.0677,790.3143,,134,134,,,,,,,,,,,,,,,,bars/003.png,bars/mask003.png,,,,,,,,,,,,1,2,,,,,,,10,2,10,1,,,,,,,,,,,789.5645,790.0676,790.3144,793.6974,space,3.3685,,793.6975,71,6,794.698,794.6981,794.7123,,,,0,45,45,45,1,25,140,,,,,,,,
,,5deb2c9df87f5524e62c8959,65af5593cbfd19b26dc0c3d9,2024-01-22_23h59.24.493,bars,2023.2.3,Win32,60.24096386,657b66ea316d21385b68909f,,,,,,,,,,,794.7125,795.7143,,,796.2151,796.4644,,68,68,,,,,,,,,,,,,,,,bars/021.png,bars/mask005.png,,,,,,,,,,,,0,2,,,,,,,8,0,10,0,,,,,,,,,,,795.7144,796.215,796.4645,799.2476,space,2.7683,,799.2479,87,2,800.2478,800.248,800.2632,,,,0,46,46,46,1,155,70,,,,,,,,
,,5deb2c9df87f5524e62c8959,65af5593cbfd19b26dc0c3d9,2024-01-22_23h59.24.493,bars,2023.2.3,Win32,60.24096386,657b66ea316d21385b68909f,,,,,,,,,,,800.2637,801.2678,,,801.7648,802.0148,,89,89,,,,,,,,,,,,,,,,bars/021.png,bars/mask005.png,,,,,,,,,,,,0,2,,,,,,,10,0,10,0,,,,,,,,,,,801.2678,801.7647,802.0149,803.6992,space,1.6688,,803.6992,66,19,804.6978,804.6978,804.6997,,,,0,47,47,47,1,155,70,,,,,,,,
,,5deb2c9df87f5524e62c8959,65af5593cbfd19b26dc0c3d9,2024-01-22_23h59.24.493,bars,2023.2.3,Win32,60.24096386,657b66ea316d21385b68909f,,,,,,,,,,,804.7006,805.6979,,,806.1979,806.4483,,68,68,,,,,,,,,,,,,,,,bars/018.png,bars/mask003.png,,,,,,,,,,,,0,2,,,,,,,10,0,10,0,,,,,,,,,,,805.698,806.1978,806.4484,806.899,space,0.4351,,806.8991,82,22,807.8982,807.8983,807.9009,,,,0,48,48,48,1,150,90,,,,,,,,
,,5deb2c9df87f5524e62c8959,65af5593cbfd19b26dc0c3d9,2024-01-22_23h59.24.493,bars,2023.2.3,Win32,60.24096386,657b66ea316d21385b68909f,,,,,,,,,,,807.9019,808.8977,,,809.3975,809.6477,,76,76,,,,,,,,,,,,,,,,bars/042.png,bars/mask004.png,,,,,,,,,,,,0,2,,,,,,,10,0,10,0,,,,,,,,,,,808.8978,809.3975,809.6477,813.2142,space,3.5519,,813.2143,69,1,814.2163,814.2164,814.233,,,,0,49,49,49,1,145,75,,,,,,,,
,,5deb2c9df87f5524e62c8959,65af5593cbfd19b26dc0c3d9,2024-01-22_23h59.24.493,bars,2023.2.3,Win32,60.24096386,657b66ea316d21385b68909f,,,,,,,,,,,,,,,,,,,,,,,,,,,,,,,,,,,,,,,,,,,,,,,,,,,,,,,,,,,,,,,,,,,,,,,,,,,,,,,,,,,,,,,,,,,,,814.2332,874.231,0,1,1,2,1,sequence_tables/blk018.csv
,,5deb2c9df87f5524e62c8959,65af5593cbfd19b26dc0c3d9,2024-01-22_23h59.24.493,bars,2023.2.3,Win32,60.24096386,657b66ea316d21385b68909f,,,,,,,,,,,875.641,876.6309,,,877.1313,877.3809,,94,94,,,,,,,,,,,,,,,,bars/019.png,bars/mask001.png,,,,,,,,,,,,4,2,,,,,,,7,6,8,7,,,,,,874.2463,875.6327,space,1.3685,,876.631,877.1312,877.3809,880.1809,space,2.7843,,880.1811,49,11,881.1808,881.1808,881.1949,,,,0,0,0,0,1,45,105,,,,,,,,
,,5deb2c9df87f5524e62c8959,65af5593cbfd19b26dc0c3d9,2024-01-22_23h59.24.493,bars,2023.2.3,Win32,60.24096386,657b66ea316d21385b68909f,,,,,,,,,,,881.1951,882.1996,,,882.6987,882.9477,,109,109,,,,,,,,,,,,,,,,bars/023.png,bars/mask009.png,,,,,,,,,,,,2,2,,,,,,,5,4,7,3,,,,,,,,,,,882.1999,882.6984,882.9477,886.3503,space,3.3887,,886.3504,89,6,887.3476,887.3478,887.3655,,,,0,1,1,1,1,20,115,,,,,,,,
,,5deb2c9df87f5524e62c8959,65af5593cbfd19b26dc0c3d9,2024-01-22_23h59.24.493,bars,2023.2.3,Win32,60.24096386,657b66ea316d21385b68909f,,,,,,,,,,,887.3657,888.3648,,,888.8646,889.1145,,91,91,,,,,,,,,,,,,,,,bars/021.png,bars/mask000.png,,,,,,,,,,,,1,2,,,,,,,3,2,2,2,,,,,,,,,,,888.365,888.8645,889.1145,890.681,space,1.5509,,890.681,64,21,891.6815,891.6816,891.6841,,,,0,2,2,2,1,155,70,,,,,,,,
,,5deb2c9df87f5524e62c8959,65af5593cbfd19b26dc0c3d9,2024-01-22_23h59.24.493,bars,2023.2.3,Win32,60.24096386,657b66ea316d21385b68909f,,,,,,,,,,,891.6849,892.6822,,,893.1808,893.4311,,145,145,,,,,,,,,,,,,,,,bars/044.png,bars/mask009.png,,,,,,,,,,,,0,2,,,,,,,1,0,0,0,,,,,,,,,,,892.6826,893.1808,893.4312,894.2996,space,0.8551,,894.2996,70,10,895.2975,895.2975,895.2994,,,,0,3,3,3,1,75,155,,,,,,,,
,,5deb2c9df87f5524e62c8959,65af5593cbfd19b26dc0c3d9,2024-01-22_23h59.24.493,bars,2023.2.3,Win32,60.24096386,657b66ea316d21385b68909f,,,,,,,,,,,895.3,896.2974,,,896.798,897.0479,,74,74,,,,,,,,,,,,,,,,bars/046.png,bars/mask000.png,,,,,,,,,,,,0,2,,,,,,,3,0,4,0,,,,,,,,,,,896.2975,896.7978,897.048,899.2641,space,2.1973,,899.2642,81,11,900.2649,900.2651,900.2677,,,,0,4,4,4,1,155,85,,,,,,,,
,,5deb2c9df87f5524e62c8959,65af5593cbfd19b26dc0c3d9,2024-01-22_23h59.24.493,bars,2023.2.3,Win32,60.24096386,657b66ea316d21385b68909f,,,,,,,,,,,900.2686,901.264,,,901.766,902.0144,,32,32,,,,,,,,,,,,,,,,bars/036.png,bars/mask006.png,,,,,,,,,,,,1,2,,,,,,,1,2,2,1,,,,,,,,,,,901.2641,901.766,902.0146,902.6979,space,0.6684,,902.6982,67,12,903.6994,903.6995,903.7024,,,,0,5,5,5,1,145,20,,,,,,,,
,,5deb2c9df87f5524e62c8959,65af5593cbfd19b26dc0c3d9,2024-01-22_23h59.24.493,bars,2023.2.3,Win32,60.24096386,657b66ea316d21385b68909f,,,,,,,,,,,903.7039,904.6981,,,905.1977,905.4365,,73,73,,,,,,,,,,,,,,,,bars/038.png,bars/mask008.png,,,,,,,,,,,,5,2,,,,,,,0,4,0,5,,,,,,,,,,,904.6982,905.1977,905.4366,908.5645,space,3.1127,,908.5647,88,3,909.5678,909.5679,909.5881,,,,0,6,6,6,1,165,70,,,,,,,,
,,5deb2c9df87f5524e62c8959,65af5593cbfd19b26dc0c3d9,2024-01-22_23h59.24.493,bars,2023.2.3,Win32,60.24096386,657b66ea316d21385b68909f,,,,,,,,,,,909.5882,910.5817,,,911.0811,911.3309,,98,98,,,,,,,,,,,,,,,,bars/041.png,bars/mask006.png,,,,,,,,,,,,3,2,,,,,,,2,6,1,5,,,,,,,,,,,910.5819,911.081,911.3309,913.9283,space,2.5728,,913.9284,78,13,914.9174,914.9175,914.9408,,,,0,7,7,7,1,20,85,,,,,,,,
,,5deb2c9df87f5524e62c8959,65af5593cbfd19b26dc0c3d9,2024-01-22_23h59.24.493,bars,2023.2.3,Win32,60.24096386,657b66ea316d21385b68909f,,,,,,,,,,,914.9408,915.9302,,,916.4308,916.6802,,93,93,,,,,,,,,,,,,,,,bars/041.png,bars/mask006.png,,,,,,,,,,,,1,2,,,,,,,4,4,3,2,,,,,,,,,,,915.9302,916.4307,916.6802,923.8394,space,7.1465,,923.8395,73,8,924.8385,924.8386,924.8584,,,,0,8,8,8,1,20,85,,,,,,,,
,,5deb2c9df87f5524e62c8959,65af5593cbfd19b26dc0c3d9,2024-01-22_23h59.24.493,bars,2023.2.3,Win32,60.24096386,657b66ea316d21385b68909f,,,,,,,,,,,924.8587,925.8487,,,926.3479,926.598,,134,134,,,,,,,,,,,,,,,,bars/043.png,bars/mask006.png,,,,,,,,,,,,1,2,,,,,,,2,2,2,1,,,,,,,,,,,925.8487,926.3478,926.5981,929.46,space,2.8377,,929.4601,76,4,930.4532,930.4533,930.4662,,,,0,9,9,9,1,30,130,,,,,,,,
,,5deb2c9df87f5524e62c8959,65af5593cbfd19b26dc0c3d9,2024-01-22_23h59.24.493,bars,2023.2.3,Win32,60.24096386,657b66ea316d21385b68909f,,,,,,,,,,,930.4664,931.4662,,,931.9648,932.2236,,82,82,,,,,,,,,,,,,,,,bars/006.png,bars/mask006.png,,,,,,,,,,,,1,2,,,,,,,0,4,0,3,,,,,,,,,,,931.4664,931.9647,932.2237,932.9386,space,0.6978,,932.9387,47,18,933.9382,933.9383,933.9395,,,,0,10,10,10,1,35,100,,,,,,,,
,,5deb2c9df87f5524e62c8959,65af5593cbfd19b26dc0c3d9,2024-01-22_23h59.24.493,bars,2023.2.3,Win32,60.24096386,657b66ea316d21385b68909f,,,,,,,,,,,933.94,934.9416,,,935.4312,935.6905,,128,128,,,,,,,,,,,,,,,,bars/049.png,bars/mask004.png,,,,,,,,,,,,3,2,,,,,,,0,6,1,6,,,,,,,,,,,934.9417,935.4312,935.6908,936.7456,space,1.0367,,936.7456,32,13,937.7366,937.7367,937.7386,,,,0,11,11,11,1,160,115,,,,,,,,
,,5deb2c9df87f5524e62c8959,65af5593cbfd19b26dc0c3d9,2024-01-22_23h59.24.493,bars,2023.2.3,Win32,60.24096386,657b66ea316d21385b68909f,,,,,,,,,,,937.7394,938.7413,,,939.2309,939.4808,,146,146,,,,,,,,,,,,,,,,bars/016.png,bars/mask009.png,,,,,,,,,,,,1,2,,,,,,,0,4,2,3,,,,,,,,,,,938.7413,939.2308,939.4808,942.8832,space,3.3866,,942.8832,74,19,943.8812,943.8813,943.8964,,,,0,12,12,12,1,40,165,,,,,,,,
,,5deb2c9df87f5524e62c8959,65af5593cbfd19b26dc0c3d9,2024-01-22_23h59.24.493,bars,2023.2.3,Win32,60.24096386,657b66ea316d21385b68909f,,,,,,,,,,,943.8969,944.9016,,,945.3976,945.6503,,92,-88,,,,,,,,,,,,,,,,bars/018.png,bars/mask009.png,,,,,,,,,,,,5,2,,,,,,,0,6,0,5,,,,,,,,,,,944.9016,945.3976,945.6503,950.1193,space,4.4553,,950.1195,58,2,951.1148,951.115,951.1301,,,,0,13,13,13,1,150,90,,,,,,,,
,,5deb2c9df87f5524e62c8959,65af5593cbfd19b26dc0c3d9,2024-01-22_23h59.24.493,bars,2023.2.3,Win32,60.24096386,657b66ea316d21385b68909f,,,,,,,,,,,951.1306,952.1317,,,952.6325,952.8812,,171,171,,,,,,,,,,,,,,,,bars/048.png,bars/mask007.png,,,,,,,,,,,,7,2,,,,,,,2,8,1,8,,,,,,,,,,,952.1319,952.6321,952.8814,957.2007,space,4.3043,,957.2008,59,4,958.1978,958.1979,958.2122,,,,0,14,14,14,1,50,175,,,,,,,,
,,5deb2c9df87f5524e62c8959,65af5593cbfd19b26dc0c3d9,2024-01-22_23h59.24.493,bars,2023.2.3,Win32,60.24096386,657b66ea316d21385b68909f,,,,,,,,,,,958.2122,959.2172,,,959.7148,959.9645,,167,-13,,,,,,,,,,,,,,,,bars/003.png,bars/mask000.png,,,,,,,,,,,,0,2,,,,,,,0,6,1,5,,,,,,,,,,,959.2173,959.7147,959.9645,962.9832,space,3.0055,,962.9833,38,27,963.9815,963.9815,963.9981,,,,0,15,15,15,1,25,140,,,,,,,,
,,5deb2c9df87f5524e62c8959,65af5593cbfd19b26dc0c3d9,2024-01-22_23h59.24.493,bars,2023.2.3,Win32,60.24096386,657b66ea316d21385b68909f,,,,,,,,,,,963.9982,965.0059,,,965.4983,965.7485,,87,87,,,,,,,,,,,,,,,,bars/028.png,bars/mask003.png,,,,,,,,,,,,0,2,,,,,,,0,8,1,9,,,,,,,,,,,965.0061,965.4981,965.7486,968.5142,space,2.7479,,968.5143,42,33,969.5143,969.5144,969.5276,,,,0,16,16,16,1,45,120,,,,,,,,
,,5deb2c9df87f5524e62c8959,65af5593cbfd19b26dc0c3d9,2024-01-22_23h59.24.493,bars,2023.2.3,Win32,60.24096386,657b66ea316d21385b68909f,,,,,,,,,,,969.5277,970.5308,,,971.0315,971.281,,119,119,,,,,,,,,,,,,,,,bars/028.png,bars/mask006.png,,,,,,,,,,,,10,2,,,,,,,2,10,1,10,,,,,,,,,,,970.5308,971.0314,971.281,972.2483,space,0.9521,,972.2484,74,1,973.2498,973.25,973.251,,,,0,17,17,17,1,45,120,,,,,,,,
,,5deb2c9df87f5524e62c8959,65af5593cbfd19b26dc0c3d9,2024-01-22_23h59.24.493,bars,2023.2.3,Win32,60.24096386,657b66ea316d21385b68909f,,,,,,,,,,,973.2516,974.2481,,,974.7481,975.0025,,6,186,,,,,,,,,,,,,,,,bars/014.png,bars/mask006.png,,,,,,,,,,,,7,2,,,,,,,4,10,2,9,,,,,,,,,,,974.2482,974.7481,975.0026,978.6479,space,3.6304,,978.648,74,6,979.6479,979.648,979.6628,,,,0,18,18,18,1,80,0,,,,,,,,
,,5deb2c9df87f5524e62c8959,65af5593cbfd19b26dc0c3d9,2024-01-22_23h59.24.493,bars,2023.2.3,Win32,60.24096386,657b66ea316d21385b68909f,,,,,,,,,,,979.6629,980.6679,,,981.1646,981.4145,,38,218,,,,,,,,,,,,,,,,bars/038.png,bars/mask007.png,,,,,,,,,,,,0,2,,,,,,,2,10,3,10,,,,,,,,,,,980.6679,981.1646,981.4147,984.0864,space,2.6584,,984.0865,53,32,985.0809,985.081,985.0962,,,,0,19,19,19,1,165,70,,,,,,,,
,,5deb2c9df87f5524e62c8959,65af5593cbfd19b26dc0c3d9,2024-01-22_23h59.24.493,bars,2023.2.3,Win32,60.24096386,657b66ea316d21385b68909f,,,,,,,,,,,985.0966,986.0935,,,986.598,986.8586,,51,231,,,,,,,,,,,,,,,,bars/025.png,bars/mask008.png,,,,,,,,,,,,5,2,,,,,,,0,8,0,8,,,,,,,,,,,986.0936,986.5979,986.8587,990.0249,space,3.154,,990.025,54,11,991.0185,991.0186,991.0422,,,,0,20,20,20,1,105,40,,,,,,,,
,,5deb2c9df87f5524e62c8959,65af5593cbfd19b26dc0c3d9,2024-01-22_23h59.24.493,bars,2023.2.3,Win32,60.24096386,657b66ea316d21385b68909f,,,,,,,,,,,991.0423,992.0308,,,992.5312,992.7719,,50,50,,,,,,,,,,,,,,,,bars/034.png,bars/mask004.png,,,,,,,,,,,,5,2,,,,,,,0,10,3,10,,,,,,,,,,,992.0308,992.5311,992.772,994.4781,space,1.6864,,994.4783,75,15,995.4811,995.4812,995.4934,,,,0,21,21,21,1,125,65,,,,,,,,
,,5deb2c9df87f5524e62c8959,65af5593cbfd19b26dc0c3d9,2024-01-22_23h59.24.493,bars,2023.2.3,Win32,60.24096386,657b66ea316d21385b68909f,,,,,,,,,,,995.4936,996.4975,,,996.9867,997.2414,,69,249,,,,,,,,,,,,,,,,bars/001.png,bars/mask003.png,,,,,,,,,,,,4,2,,,,,,,2,10,3,9,,,,,,,,,,,996.4976,996.9866,997.2417,1000.7052,space,3.4473,,1000.7053,61,16,1001.6974,1001.6975,1001.7125,,,,0,22,22,22,1,130,85,,,,,,,,
,,5deb2c9df87f5524e62c8959,65af5593cbfd19b26dc0c3d9,2024-01-22_23h59.24.493,bars,2023.2.3,Win32,60.24096386,657b66ea316d21385b68909f,,,,,,,,,,,1001.7127,1002.7085,,,1003.1978,1003.439,,71,71,,,,,,,,,,,,,,,,bars/011.png,bars/mask009.png,,,,,,,,,,,,4,2,,,,,,,0,8,0,8,,,,,,,,,,,1002.7085,1003.1977,1003.4391,1005.8067,space,2.3533,,1005.8068,89,14,1006.8049,1006.8052,1006.8083,,,,0,23,23,23,1,160,85,,,,,,,,
,,5deb2c9df87f5524e62c8959,65af5593cbfd19b26dc0c3d9,2024-01-22_23h59.24.493,bars,2023.2.3,Win32,60.24096386,657b66ea316d21385b68909f,,,,,,,,,,,1006.8093,1007.8031,,,1008.3066,1008.548,,44,44,,,,,,,,,,,,,,,,bars/022.png,bars/mask007.png,,,,,,,,,,,,2,2,,,,,,,2,10,1,10,,,,,,,,,,,1007.8032,1008.3065,1008.5482,1009.5768,space,1.0078,,1009.5769,51,24,1010.5811,1010.5812,1010.584,,,,0,24,24,24,1,95,20,,,,,,,,
,,5deb2c9df87f5524e62c8959,65af5593cbfd19b26dc0c3d9,2024-01-22_23h59.24.493,bars,2023.2.3,Win32,60.24096386,657b66ea316d21385b68909f,,,,,,,,,,,1010.585,1011.586,,,1012.0914,1012.3306,,37,37,,,,,,,,,,,,,,,,bars/017.png,bars/mask004.png,,,,,,,,,,,,6,2,,,,,,,4,8,3,8,,,,,,,,,,,1011.586,1012.0913,1012.3307,1015.6431,space,3.3008,,1015.6432,72,8,1016.631,1016.6311,1016.6477,,,,0,25,25,25,1,145,45,,,,,,,,
,,5deb2c9df87f5524e62c8959,65af5593cbfd19b26dc0c3d9,2024-01-22_23h59.24.493,bars,2023.2.3,Win32,60.24096386,657b66ea316d21385b68909f,,,,,,,,,,,1016.6479,1017.6477,,,1018.1586,1018.4085,,99,99,,,,,,,,,,,,,,,,bars/037.png,bars/mask000.png,,,,,,,,,,,,7,2,,,,,,,6,10,6,9,,,,,,,,,,,1017.6478,1018.1585,1018.4086,1021.7696,space,3.3484,,1021.7697,51,6,1022.7642,1022.7643,1022.7816,,,,0,26,26,26,1,150,105,,,,,,,,
,,5deb2c9df87f5524e62c8959,65af5593cbfd19b26dc0c3d9,2024-01-22_23h59.24.493,bars,2023.2.3,Win32,60.24096386,657b66ea316d21385b68909f,,,,,,,,,,,1022.7819,1023.7808,,,1024.2808,1024.5411,,154,-26,,,,,,,,,,,,,,,,bars/021.png,bars/mask008.png,,,,,,,,,,,,5,1,,,,,,,4,10,5,10,,,,,,,,,,,1023.7809,1024.2808,1024.5411,1027.0021,space,2.4497,,1027.0021,1,84,1028.0028,1028.003,1028.0226,,,,0,27,27,27,1,155,70,,,,,,,,
,,5deb2c9df87f5524e62c8959,65af5593cbfd19b26dc0c3d9,2024-01-22_23h59.24.493,bars,2023.2.3,Win32,60.24096386,657b66ea316d21385b68909f,,,,,,,,,,,1028.0227,1029.016,,,1029.5248,1029.7676,,153,-27,,,,,,,,,,,,,,,,bars/044.png,bars/mask003.png,,,,,,,,,,,,9,2,,,,,,,6,10,7,10,,,,,,,,,,,1029.0162,1029.5248,1029.7677,1034.0385,space,4.2467,,1034.0386,78,2,1035.036,1035.0361,1035.0506,,,,0,28,28,28,1,75,155,,,,,,,,
,,5deb2c9df87f5524e62c8959,65af5593cbfd19b26dc0c3d9,2024-01-22_23h59.24.493,bars,2023.2.3,Win32,60.24096386,657b66ea316d21385b68909f,,,,,,,,,,,1035.0508,1036.0581,,,1036.5481,1036.7928,,54,54,,,,,,,,,,,,,,,,bars/036.png,bars/mask007.png,,,,,,,,,,,,0,2,,,,,,,4,10,4,9,,,,,,,,,,,1036.0581,1036.548,1036.7929,1040.1192,space,3.3104,,1040.1193,89,34,1041.1142,1041.1143,1041.1263,,,,0,29,29,29,1,145,20,,,,,,,,
,,5deb2c9df87f5524e62c8959,65af5593cbfd19b26dc0c3d9,2024-01-22_23h59.24.493,bars,2023.2.3,Win32,60.24096386,657b66ea316d21385b68909f,,,,,,,,,,,1041.1264,1042.1264,,,1042.6197,1042.873,,156,-24,,,,,,,,,,,,,,,,bars/034.png,bars/mask008.png,,,,,,,,,,,,0,1,,,,,,,6,8,6,8,,,,,,,,,,,1042.1265,1042.6196,1042.873,1045.5233,space,2.6386,,1045.5234,31,89,1046.5141,1046.5142,1046.5311,,,,0,30,30,30,1,125,65,,,,,,,,
,,5deb2c9df87f5524e62c8959,65af5593cbfd19b26dc0c3d9,2024-01-22_23h59.24.493,bars,2023.2.3,Win32,60.24096386,657b66ea316d21385b68909f,,,,,,,,,,,1046.5313,1047.531,,,1048.0197,1048.2685,,126,-54,,,,,,,,,,,,,,,,bars/049.png,bars/mask003.png,,,,,,,,,,,,4,2,,,,,,,4,6,5,6,,,,,,,,,,,1047.531,1048.0195,1048.2686,1051.7277,space,3.4362,,1051.7278,34,11,1052.7328,1052.7329,1052.7483,,,,0,31,31,31,1,160,115,,,,,,,,
,,5deb2c9df87f5524e62c8959,65af5593cbfd19b26dc0c3d9,2024-01-22_23h59.24.493,bars,2023.2.3,Win32,60.24096386,657b66ea316d21385b68909f,,,,,,,,,,,1052.7486,1053.7478,,,1054.2488,1054.4979,,23,203,,,,,,,,,,,,,,,,bars/031.png,bars/mask008.png,,,,,,,,,,,,4,2,,,,,,,2,8,1,6,,,,,,,,,,,1053.7478,1054.2486,1054.498,1057.8485,space,3.3355,,1057.8486,83,12,1058.8481,1058.8483,1058.8627,,,,0,32,32,32,1,120,35,,,,,,,,
,,5deb2c9df87f5524e62c8959,65af5593cbfd19b26dc0c3d9,2024-01-22_23h59.24.493,bars,2023.2.3,Win32,60.24096386,657b66ea316d21385b68909f,,,,,,,,,,,1058.8629,1059.8642,,,1060.3664,1060.6142,,103,103,,,,,,,,,,,,,,,,bars/023.png,bars/mask005.png,,,,,,,,,,,,4,2,,,,,,,0,6,0,6,,,,,,,,,,,1059.8643,1060.3663,1060.6143,1061.8843,space,1.2538,,1061.8845,83,12,1062.8809,1062.8809,1062.8825,,,,0,33,33,33,1,20,115,,,,,,,,
,,5deb2c9df87f5524e62c8959,65af5593cbfd19b26dc0c3d9,2024-01-22_23h59.24.493,bars,2023.2.3,Win32,60.24096386,657b66ea316d21385b68909f,,,,,,,,,,,1062.8832,1063.8808,,,1064.382,1064.6308,,69,69,,,,,,,,,,,,,,,,bars/029.png,bars/mask001.png,,,,,,,,,,,,1,1,,,,,,,2,8,3,9,,,,,,,,,,,1063.8809,1064.3819,1064.6309,1066.2334,space,1.5877,,1066.2335,21,24,1067.2329,1067.2329,1067.2359,,,,0,34,34,34,1,90,45,,,,,,,,
,,5deb2c9df87f5524e62c8959,65af5593cbfd19b26dc0c3d9,2024-01-22_23h59.24.493,bars,2023.2.3,Win32,60.24096386,657b66ea316d21385b68909f,,,,,,,,,,,1067.2363,1068.2312,,,1068.7312,1068.9817,,40,220,,,,,,,,,,,,,,,,bars/010.png,bars/mask008.png,,,,,,,,,,,,5,2,,,,,,,0,10,0,9,,,,,,,,,,,1068.2314,1068.731,1068.9817,1072.1142,space,3.118,,1072.1144,55,15,1073.1156,1073.1156,1073.1335,,,,0,35,35,35,1,165,55,,,,,,,,
,,5deb2c9df87f5524e62c8959,65af5593cbfd19b26dc0c3d9,2024-01-22_23h59.24.493,bars,2023.2.3,Win32,60.24096386,657b66ea316d21385b68909f,,,,,,,,,,,1073.1336,1074.1303,,,1074.6321,1074.8809,,142,-38,,,,,,,,,,,,,,,,bars/000.png,bars/mask006.png,,,,,,,,,,,,8,2,,,,,,,0,8,0,9,,,,,,,,,,,1074.1303,1074.6318,1074.881,1078.3002,space,3.4056,,1078.3002,78,3,1079.3037,1079.3037,1079.3112,,,,0,36,36,36,1,40,145,,,,,,,,
,,5deb2c9df87f5524e62c8959,65af5593cbfd19b26dc0c3d9,2024-01-22_23h59.24.493,bars,2023.2.3,Win32,60.24096386,657b66ea316d21385b68909f,,,,,,,,,,,1079.3113,1080.3144,,,1080.8151,1081.0658,,69,69,,,,,,,,,,,,,,,,bars/011.png,bars/mask005.png,,,,,,,,,,,,3,2,,,,,,,2,6,3,6,,,,,,,,,,,1080.3145,1080.8149,1081.0659,1083.9829,space,2.903,,1083.9829,89,16,1084.9823,1084.9825,1084.9984,,,,0,37,37,37,1,160,85,,,,,,,,
,,5deb2c9df87f5524e62c8959,65af5593cbfd19b26dc0c3d9,2024-01-22_23h59.24.493,bars,2023.2.3,Win32,60.24096386,657b66ea316d21385b68909f,,,,,,,,,,,1084.9986,1085.9987,,,1086.4978,1086.748,,176,176,,,,,,,,,,,,,,,,bars/040.png,bars/mask004.png,,,,,,,,,,,,5,2,,,,,,,4,8,4,7,,,,,,,,,,,1085.9988,1086.4977,1086.748,1089.2683,space,2.5052,,1089.2685,36,9,1090.2655,1090.2656,1090.2794,,,,0,38,38,38,1,140,5,,,,,,,,
,,5deb2c9df87f5524e62c8959,65af5593cbfd19b26dc0c3d9,2024-01-22_23h59.24.493,bars,2023.2.3,Win32,60.24096386,657b66ea316d21385b68909f,,,,,,,,,,,1090.2795,1091.2813,,,1091.782,1092.0312,,141,141,,,,,,,,,,,,,,,,bars/004.png,bars/mask005.png,,,,,,,,,,,,3,2,,,,,,,2,6,1,6,,,,,,,,,,,1091.2813,1091.7819,1092.0312,1095.8167,space,3.7693,,1095.8169,64,16,1096.8148,1096.8149,1096.8363,,,,0,39,39,39,1,25,125,,,,,,,,
,,5deb2c9df87f5524e62c8959,65af5593cbfd19b26dc0c3d9,2024-01-22_23h59.24.493,bars,2023.2.3,Win32,60.24096386,657b66ea316d21385b68909f,,,,,,,,,,,1096.8366,1097.8317,,,1098.3375,1098.592,,73,73,,,,,,,,,,,,,,,,bars/023.png,bars/mask006.png,,,,,,,,,,,,0,2,,,,,,,0,4,0,3,,,,,,,,,,,1097.8318,1098.3375,1098.5921,1100.6121,space,2.0023,,1100.6122,53,42,1101.6023,1101.6026,1101.6056,,,,0,40,40,40,1,20,115,,,,,,,,
,,5deb2c9df87f5524e62c8959,65af5593cbfd19b26dc0c3d9,2024-01-22_23h59.24.493,bars,2023.2.3,Win32,60.24096386,657b66ea316d21385b68909f,,,,,,,,,,,1101.6063,1102.6069,,,1103.0976,1103.3477,,100,100,,,,,,,,,,,,,,,,bars/011.png,bars/mask000.png,,,,,,,,,,,,3,2,,,,,,,2,6,1,5,,,,,,,,,,,1102.607,1103.0975,1103.3477,1105.9608,space,2.5882,,1105.9608,60,15,1106.9578,1106.9579,1106.977,,,,0,41,41,41,1,160,85,,,,,,,,
,,5deb2c9df87f5524e62c8959,65af5593cbfd19b26dc0c3d9,2024-01-22_23h59.24.493,bars,2023.2.3,Win32,60.24096386,657b66ea316d21385b68909f,,,,,,,,,,,1106.9771,1107.9688,,,1108.4693,1108.7149,,155,155,,,,,,,,,,,,,,,,bars/003.png,bars/mask008.png,,,,,,,,,,,,4,2,,,,,,,4,8,4,7,,,,,,,,,,,1107.969,1108.4692,1108.715,1109.7758,space,1.037,,1109.7758,50,15,1110.7647,1110.7649,1110.7679,,,,0,42,42,42,1,25,140,,,,,,,,
,,5deb2c9df87f5524e62c8959,65af5593cbfd19b26dc0c3d9,2024-01-22_23h59.24.493,bars,2023.2.3,Win32,60.24096386,657b66ea316d21385b68909f,,,,,,,,,,,1110.7688,1111.764,,,1112.258,1112.4976,,99,-81,,,,,,,,,,,,,,,,bars/006.png,bars/mask001.png,,,,,,,,,,,,5,2,,,,,,,2,6,3,5,,,,,,,,,,,1111.7641,1112.258,1112.4977,1116.7932,space,4.2833,,1116.7932,64,1,1117.7888,1117.7889,1117.809,,,,0,43,43,43,1,35,100,,,,,,,,
,,5deb2c9df87f5524e62c8959,65af5593cbfd19b26dc0c3d9,2024-01-22_23h59.24.493,bars,2023.2.3,Win32,60.24096386,657b66ea316d21385b68909f,,,,,,,,,,,1117.8092,1118.8073,,,1119.3015,1119.5498,,147,147,,,,,,,,,,,,,,,,bars/044.png,bars/mask000.png,,,,,,,,,,,,7,2,,,,,,,4,8,6,9,,,,,,,,,,,1118.8074,1119.3015,1119.5499,1120.9909,space,1.4155,,1120.991,72,8,1121.9812,1121.9812,1121.984,,,,0,44,44,44,1,75,155,,,,,,,,
,,5deb2c9df87f5524e62c8959,65af5593cbfd19b26dc0c3d9,2024-01-22_23h59.24.493,bars,2023.2.3,Win32,60.24096386,657b66ea316d21385b68909f,,,,,,,,,,,1121.985,1122.9808,,,1123.4811,1123.7233,,72,72,,,,,,,,,,,,,,,,bars/021.png,bars/mask006.png,,,,,,,,,,,,6,2,,,,,,,2,6,1,6,,,,,,,,,,,1122.981,1123.481,1123.7234,1126.8412,space,3.0992,,1126.8412,83,2,1127.8382,1127.8383,1127.8506,,,,0,45,45,45,1,155,70,,,,,,,,
,,5deb2c9df87f5524e62c8959,65af5593cbfd19b26dc0c3d9,2024-01-22_23h59.24.493,bars,2023.2.3,Win32,60.24096386,657b66ea316d21385b68909f,,,,,,,,,,,1127.851,1128.8476,,,1129.3477,1129.6067,,80,80,,,,,,,,,,,,,,,,bars/026.png,bars/mask002.png,,,,,,,,,,,,6,2,,,,,,,4,8,4,7,,,,,,,,,,,1128.8476,1129.3477,1129.6069,1130.7885,space,1.1626,,1130.7886,45,5,1131.7856,1131.7856,1131.7879,,,,0,46,46,46,1,35,85,,,,,,,,
,,5deb2c9df87f5524e62c8959,65af5593cbfd19b26dc0c3d9,2024-01-22_23h59.24.493,bars,2023.2.3,Win32,60.24096386,657b66ea316d21385b68909f,,,,,,,,,,,1131.7884,1132.7851,,,1133.2839,1133.5308,,85,85,,,,,,,,,,,,,,,,bars/011.png,bars/mask006.png,,,,,,,,,,,,5,2,,,,,,,6,6,7,5,,,,,,,,,,,1132.7853,1133.2836,1133.5309,1135.7118,space,2.1708,,1135.7118,75,0,1136.7016,1136.7016,1136.7178,,,,0,47,47,47,1,160,85,,,,,,,,
,,5deb2c9df87f5524e62c8959,65af5593cbfd19b26dc0c3d9,2024-01-22_23h59.24.493,bars,2023.2.3,Win32,60.24096386,657b66ea316d21385b68909f,,,,,,,,,,,1136.718,1137.7072,,,1138.1979,1138.4567,,103,103,,,,,,,,,,,,,,,,bars/009.png,bars/mask006.png,,,,,,,,,,,,9,2,,,,,,,8,8,7,10,,,,,,,,,,,1137.7073,1138.1979,1138.4569,1140.9599,space,2.4847,,1140.9599,88,2,1141.9591,1141.9592,1141.9776,,,,0,48,48,48,1,15,105,,,,,,,,
,,5deb2c9df87f5524e62c8959,65af5593cbfd19b26dc0c3d9,2024-01-22_23h59.24.493,bars,2023.2.3,Win32,60.24096386,657b66ea316d21385b68909f,,,,,,,,,,,1141.9777,1142.9728,,,1143.4666,1143.7142,,58,58,,,,,,,,,,,,,,,,bars/022.png,bars/mask006.png,,,,,,,,,,,,0,1,,,,,,,10,6,10,6,,,,,,,,,,,1142.9729,1143.4665,1143.7144,1145.4924,space,1.7671,,1145.4926,37,38,1146.4813,1146.4814,1146.4856,,,,0,49,49,49,1,95,20,,,,,,,,
,,5deb2c9df87f5524e62c8959,65af5593cbfd19b26dc0c3d9,2024-01-22_23h59.24.493,bars,2023.2.3,Win32,60.24096386,657b66ea316d21385b68909f,,,,,,,,,,,,,,,,,,,,,,,,,,,,,,,,,,,,,,,,,,,,,,,,,,,,,,,,,,,,,,,,,,,,,,,,,,,,,,,,,,,,,,,,,,,,,1146.4858,1206.4825,0,2,2,4,1,sequence_tables/blk049.csv
,,5deb2c9df87f5524e62c8959,65af5593cbfd19b26dc0c3d9,2024-01-22_23h59.24.493,bars,2023.2.3,Win32,60.24096386,657b66ea316d21385b68909f,,,,,,,,,,,1208.1573,1209.1517,,,1209.6587,1209.898,,177,-3,,,,,,,,,,,,,,,,bars/032.png,bars/mask004.png,,,,,,,,,,,,2,2,,,,,,,9,8,9,9,,,,,,1206.5026,1208.148,space,1.6312,,1209.1518,1209.6586,1209.8982,1211.3759,space,1.4524,,1211.376,52,23,1212.3641,1212.3642,1212.3686,,,,0,0,0,0,1,125,20,,,,,,,,
,,5deb2c9df87f5524e62c8959,65af5593cbfd19b26dc0c3d9,2024-01-22_23h59.24.493,bars,2023.2.3,Win32,60.24096386,657b66ea316d21385b68909f,,,,,,,,,,,1212.3691,1213.364,,,1213.8578,1214.098,,125,125,,,,,,,,,,,,,,,,bars/049.png,bars/mask000.png,,,,,,,,,,,,7,2,,,,,,,7,10,7,10,,,,,,,,,,,1213.3641,1213.8577,1214.0981,1215.3377,space,1.2272,,1215.3378,35,10,1216.3311,1216.3312,1216.3339,,,,0,1,1,1,1,160,115,,,,,,,,
,,5deb2c9df87f5524e62c8959,65af5593cbfd19b26dc0c3d9,2024-01-22_23h59.24.493,bars,2023.2.3,Win32,60.24096386,657b66ea316d21385b68909f,,,,,,,,,,,1216.3345,1217.3311,,,1217.821,1218.0641,,148,148,,,,,,,,,,,,,,,,bars/020.png,bars/mask006.png,,,,,,,,,,,,3,2,,,,,,,9,10,9,10,,,,,,,,,,,1217.3312,1217.821,1218.0643,1220.6954,space,2.6203,,1220.6955,33,22,1221.6987,1221.6989,1221.7194,,,,0,2,2,2,1,115,170,,,,,,,,
,,5deb2c9df87f5524e62c8959,65af5593cbfd19b26dc0c3d9,2024-01-22_23h59.24.493,bars,2023.2.3,Win32,60.24096386,657b66ea316d21385b68909f,,,,,,,,,,,1221.7195,1222.7255,,,1223.2143,1223.4588,,109,109,,,,,,,,,,,,,,,,bars/009.png,bars/mask006.png,,,,,,,,,,,,5,2,,,,,,,7,8,8,6,,,,,,,,,,,1222.7255,1223.2143,1223.4588,1224.8423,space,1.3689,,1224.8424,86,4,1225.8379,1225.838,1225.8398,,,,0,3,3,3,1,15,105,,,,,,,,
,,5deb2c9df87f5524e62c8959,65af5593cbfd19b26dc0c3d9,2024-01-22_23h59.24.493,bars,2023.2.3,Win32,60.24096386,657b66ea316d21385b68909f,,,,,,,,,,,1225.8405,1226.8313,,,1227.3309,1227.5751,,60,60,,,,,,,,,,,,,,,,bars/047.png,bars/mask003.png,,,,,,,,,,,,7,2,,,,,,,5,10,6,10,,,,,,,,,,,1226.8315,1227.3308,1227.5754,1230.1769,space,2.5846,,1230.1769,45,10,1231.1808,1231.1809,1231.1971,,,,0,4,4,4,1,15,70,,,,,,,,
,,5deb2c9df87f5524e62c8959,65af5593cbfd19b26dc0c3d9,2024-01-22_23h59.24.493,bars,2023.2.3,Win32,60.24096386,657b66ea316d21385b68909f,,,,,,,,,,,1231.1973,1232.1941,,,1232.6982,1232.9481,,152,152,,,,,,,,,,,,,,,,bars/020.png,bars/mask006.png,,,,,,,,,,,,3,2,,,,,,,7,8,7,8,,,,,,,,,,,1232.1942,1232.6981,1232.9482,1236.7973,space,3.8304,,1236.7973,37,18,1237.7983,1237.7983,1237.8157,,,,0,5,5,5,1,115,170,,,,,,,,
,,5deb2c9df87f5524e62c8959,65af5593cbfd19b26dc0c3d9,2024-01-22_23h59.24.493,bars,2023.2.3,Win32,60.24096386,657b66ea316d21385b68909f,,,,,,,,,,,1237.816,1238.815,,,1239.3145,1239.5643,,112,112,,,,,,,,,,,,,,,,bars/006.png,bars/mask007.png,,,,,,,,,,,,3,2,,,,,,,9,6,9,5,,,,,,,,,,,1238.8152,1239.3145,1239.5644,1242.3011,space,2.7219,,1242.3012,77,12,1243.3019,1243.3019,1243.3171,,,,0,6,6,6,1,35,100,,,,,,,,
,,5deb2c9df87f5524e62c8959,65af5593cbfd19b26dc0c3d9,2024-01-22_23h59.24.493,bars,2023.2.3,Win32,60.24096386,657b66ea316d21385b68909f,,,,,,,,,,,1243.3174,1244.3139,,,1244.8176,1245.0666,,31,211,,,,,,,,,,,,,,,,bars/031.png,bars/mask007.png,,,,,,,,,,,,2,2,,,,,,,7,4,7,2,,,,,,,,,,,1244.3139,1244.8175,1245.0667,1247.7197,space,2.6403,,1247.7198,89,4,1248.7146,1248.7147,1248.7328,,,,0,7,7,7,1,120,35,,,,,,,,
,,5deb2c9df87f5524e62c8959,65af5593cbfd19b26dc0c3d9,2024-01-22_23h59.24.493,bars,2023.2.3,Win32,60.24096386,657b66ea316d21385b68909f,,,,,,,,,,,1248.733,1249.7311,,,1250.2318,1250.4811,,68,68,,,,,,,,,,,,,,,,bars/047.png,bars/mask000.png,,,,,,,,,,,,3,2,,,,,,,5,2,6,3,,,,,,,,,,,1249.7311,1250.2317,1250.4812,1255.1978,space,4.7009,,1255.1978,53,2,1256.198,1256.198,1256.2146,,,,0,8,8,8,1,15,70,,,,,,,,
,,5deb2c9df87f5524e62c8959,65af5593cbfd19b26dc0c3d9,2024-01-22_23h59.24.493,bars,2023.2.3,Win32,60.24096386,657b66ea316d21385b68909f,,,,,,,,,,,1256.2149,1257.2146,,,1257.7167,1257.9647,,86,86,,,,,,,,,,,,,,,,bars/039.png,bars/mask002.png,,,,,,,,,,,,1,2,,,,,,,7,4,8,4,,,,,,,,,,,1257.2148,1257.7166,1257.9649,1259.9667,space,1.9883,,1259.9668,89,19,1260.9665,1260.9665,1260.9682,,,,0,9,9,9,1,175,105,,,,,,,,
,,5deb2c9df87f5524e62c8959,65af5593cbfd19b26dc0c3d9,2024-01-22_23h59.24.493,bars,2023.2.3,Win32,60.24096386,657b66ea316d21385b68909f,,,,,,,,,,,1260.9688,1261.9652,,,1262.4658,1262.7194,,73,73,,,,,,,,,,,,,,,,bars/046.png,bars/mask004.png,,,,,,,,,,,,1,2,,,,,,,9,2,10,2,,,,,,,,,,,1261.9654,1262.4655,1262.7195,1263.2505,space,0.5178,,1263.2506,82,12,1264.2484,1264.2484,1264.2513,,,,0,10,10,10,1,155,85,,,,,,,,
,,5deb2c9df87f5524e62c8959,65af5593cbfd19b26dc0c3d9,2024-01-22_23h59.24.493,bars,2023.2.3,Win32,60.24096386,657b66ea316d21385b68909f,,,,,,,,,,,1264.2522,1265.2501,,,1265.7482,1265.998,,136,136,,,,,,,,,,,,,,,,bars/003.png,bars/mask009.png,,,,,,,,,,,,0,2,,,,,,,7,0,7,0,,,,,,,,,,,1265.2501,1265.7481,1265.9981,1267.7199,space,1.7054,,1267.72,69,4,1268.7178,1268.7179,1268.7192,,,,0,11,11,11,1,25,140,,,,,,,,
,,5deb2c9df87f5524e62c8959,65af5593cbfd19b26dc0c3d9,2024-01-22_23h59.24.493,bars,2023.2.3,Win32,60.24096386,657b66ea316d21385b68909f,,,,,,,,,,,1268.7199,1269.7148,,,1270.2152,1270.4645,,17,17,,,,,,,,,,,,,,,,bars/022.png,bars/mask008.png,,,,,,,,,,,,0,2,,,,,,,9,0,9,0,,,,,,,,,,,1269.7149,1270.215,1270.4645,1271.7833,space,1.3047,,1271.7834,78,3,1272.7819,1272.7821,1272.7843,,,,0,12,12,12,1,95,20,,,,,,,,
,,5deb2c9df87f5524e62c8959,65af5593cbfd19b26dc0c3d9,2024-01-22_23h59.24.493,bars,2023.2.3,Win32,60.24096386,657b66ea316d21385b68909f,,,,,,,,,,,1272.7852,1273.7815,,,1274.2824,1274.531,,94,94,,,,,,,,,,,,,,,,bars/037.png,bars/mask002.png,,,,,,,,,,,,1,2,,,,,,,10,0,10,2,,,,,,,,,,,1273.7817,1274.2823,1274.5314,1277.6477,space,3.0979,,1277.6478,56,11,1278.6482,1278.6482,1278.662,,,,0,13,13,13,1,150,105,,,,,,,,
,,5deb2c9df87f5524e62c8959,65af5593cbfd19b26dc0c3d9,2024-01-22_23h59.24.493,bars,2023.2.3,Win32,60.24096386,657b66ea316d21385b68909f,,,,,,,,,,,1278.6621,1279.6643,,,1280.165,1280.4151,,118,118,,,,,,,,,,,,,,,,bars/028.png,bars/mask005.png,,,,,,,,,,,,0,2,,,,,,,10,2,8,0,,,,,,,,,,,1279.6644,1280.1649,1280.4152,1281.4322,space,1.0016,,1281.4323,73,2,1282.4312,1282.4314,1282.4332,,,,0,14,14,14,1,45,120,,,,,,,,
,,5deb2c9df87f5524e62c8959,65af5593cbfd19b26dc0c3d9,2024-01-22_23h59.24.493,bars,2023.2.3,Win32,60.24096386,657b66ea316d21385b68909f,,,,,,,,,,,1282.4338,1283.4316,,,1283.9324,1284.1817,,98,-82,,,,,,,,,,,,,,,,bars/018.png,bars/mask004.png,,,,,,,,,,,,3,2,,,,,,,8,4,8,4,,,,,,,,,,,1283.4317,1283.9323,1284.1818,1288.1825,space,3.985,,1288.1827,52,8,1289.183,1289.1831,1289.1982,,,,0,15,15,15,1,150,90,,,,,,,,
,,5deb2c9df87f5524e62c8959,65af5593cbfd19b26dc0c3d9,2024-01-22_23h59.24.493,bars,2023.2.3,Win32,60.24096386,657b66ea316d21385b68909f,,,,,,,,,,,1289.1987,1290.1981,,,1290.698,1290.9483,,109,109,,,,,,,,,,,,,,,,bars/039.png,bars/mask002.png,,,,,,,,,,,,2,2,,,,,,,10,2,10,2,,,,,,,,,,,1290.1982,1290.6979,1290.9483,1294.2643,space,3.3011,,1294.2644,66,4,1295.2644,1295.2645,1295.2782,,,,0,16,16,16,1,175,105,,,,,,,,
,,5deb2c9df87f5524e62c8959,65af5593cbfd19b26dc0c3d9,2024-01-22_23h59.24.493,bars,2023.2.3,Win32,60.24096386,657b66ea316d21385b68909f,,,,,,,,,,,1295.2786,1296.2809,,,1296.781,1297.031,,84,84,,,,,,,,,,,,,,,,bars/021.png,bars/mask003.png,,,,,,,,,,,,1,2,,,,,,,8,0,8,1,,,,,,,,,,,1296.281,1296.781,1297.0311,1300.0004,space,2.9567,,1300.0006,71,14,1300.9979,1300.9979,1301.0099,,,,0,17,17,17,1,155,70,,,,,,,,
,,5deb2c9df87f5524e62c8959,65af5593cbfd19b26dc0c3d9,2024-01-22_23h59.24.493,bars,2023.2.3,Win32,60.24096386,657b66ea316d21385b68909f,,,,,,,,,,,1301.01,1302.0172,,,1302.5145,1302.7644,,95,95,,,,,,,,,,,,,,,,bars/002.png,bars/mask002.png,,,,,,,,,,,,0,2,,,,,,,6,0,5,0,,,,,,,,,,,1302.0173,1302.5144,1302.7645,1306.4483,space,3.6651,,1306.4484,35,10,1307.4477,1307.4478,1307.4655,,,,0,18,18,18,1,130,85,,,,,,,,
,,5deb2c9df87f5524e62c8959,65af5593cbfd19b26dc0c3d9,2024-01-22_23h59.24.493,bars,2023.2.3,Win32,60.24096386,657b66ea316d21385b68909f,,,,,,,,,,,1307.4658,1308.4654,,,1308.9654,1309.2145,,80,80,,,,,,,,,,,,,,,,bars/000.png,bars/mask000.png,,,,,,,,,,,,0,1,,,,,,,8,0,9,0,,,,,,,,,,,1308.4655,1308.9653,1309.2145,1311.0836,space,1.8501,,1311.0836,40,65,1312.0815,1312.0817,1312.0933,,,,0,19,19,19,1,40,145,,,,,,,,
,,5deb2c9df87f5524e62c8959,65af5593cbfd19b26dc0c3d9,2024-01-22_23h59.24.493,bars,2023.2.3,Win32,60.24096386,657b66ea316d21385b68909f,,,,,,,,,,,1312.0935,1313.098,,,1313.5982,1313.8481,,155,155,,,,,,,,,,,,,,,,bars/008.png,bars/mask002.png,,,,,,,,,,,,0,2,,,,,,,6,2,5,1,,,,,,,,,,,1313.0981,1313.5981,1313.8481,1315.9341,space,2.0677,,1315.9342,45,25,1316.9313,1316.9313,1316.935,,,,0,20,20,20,1,110,0,,,,,,,,
,,5deb2c9df87f5524e62c8959,65af5593cbfd19b26dc0c3d9,2024-01-22_23h59.24.493,bars,2023.2.3,Win32,60.24096386,657b66ea316d21385b68909f,,,,,,,,,,,1316.936,1317.9313,,,1318.4313,1318.6814,,83,83,,,,,,,,,,,,,,,,bars/028.png,bars/mask001.png,,,,,,,,,,,,0,2,,,,,,,4,0,4,0,,,,,,,,,,,1317.9315,1318.4313,1318.6814,1321.6994,space,3.0049,,1321.6995,38,37,1322.6976,1322.6976,1322.7154,,,,0,21,21,21,1,45,120,,,,,,,,
,,5deb2c9df87f5524e62c8959,65af5593cbfd19b26dc0c3d9,2024-01-22_23h59.24.493,bars,2023.2.3,Win32,60.24096386,657b66ea316d21385b68909f,,,,,,,,,,,1322.7156,1323.7145,,,1324.215,1324.4648,,56,56,,,,,,,,,,,,,,,,bars/029.png,bars/mask000.png,,,,,,,,,,,,0,2,,,,,,,6,0,5,0,,,,,,,,,,,1323.7146,1324.2149,1324.4649,1325.0688,space,0.5899,,1325.0689,34,11,1326.0646,1326.0648,1326.0666,,,,0,22,22,22,1,90,45,,,,,,,,
,,5deb2c9df87f5524e62c8959,65af5593cbfd19b26dc0c3d9,2024-01-22_23h59.24.493,bars,2023.2.3,Win32,60.24096386,657b66ea316d21385b68909f,,,,,,,,,,,1326.0673,1327.0667,,,1327.565,1327.8146,,179,-1,,,,,,,,,,,,,,,,bars/040.png,bars/mask009.png,,,,,,,,,,,,0,2,,,,,,,4,0,4,0,,,,,,,,,,,1327.0668,1327.5649,1327.8147,1330.5644,space,2.7356,,1330.5646,39,6,1331.5651,1331.5652,1331.5881,,,,0,23,23,23,1,140,5,,,,,,,,
,,5deb2c9df87f5524e62c8959,65af5593cbfd19b26dc0c3d9,2024-01-22_23h59.24.493,bars,2023.2.3,Win32,60.24096386,657b66ea316d21385b68909f,,,,,,,,,,,1331.5883,1332.5812,,,1333.0711,1333.3147,,49,229,,,,,,,,,,,,,,,,bars/038.png,bars/mask008.png,,,,,,,,,,,,0,2,,,,,,,6,0,5,0,,,,,,,,,,,1332.5813,1333.071,1333.3149,1336.9435,space,3.6021,,1336.9436,64,21,1337.9356,1337.9358,1337.9562,,,,0,24,24,24,1,165,70,,,,,,,,
,,5deb2c9df87f5524e62c8959,65af5593cbfd19b26dc0c3d9,2024-01-22_23h59.24.493,bars,2023.2.3,Win32,60.24096386,657b66ea316d21385b68909f,,,,,,,,,,,1337.9567,1338.9569,,,1339.4478,1339.6899,,131,131,,,,,,,,,,,,,,,,bars/038.png,bars/mask000.png,,,,,,,,,,,,0,1,,,,,,,8,2,7,2,,,,,,,,,,,1338.957,1339.4477,1339.6899,1341.0434,space,1.3349,,1341.0434,34,61,1342.0313,1342.0314,1342.0377,,,,0,25,25,25,1,165,70,,,,,,,,
,,5deb2c9df87f5524e62c8959,65af5593cbfd19b26dc0c3d9,2024-01-22_23h59.24.493,bars,2023.2.3,Win32,60.24096386,657b66ea316d21385b68909f,,,,,,,,,,,1342.0384,1343.0357,,,1343.5264,1343.7644,,155,155,,,,,,,,,,,,,,,,bars/028.png,bars/mask008.png,,,,,,,,,,,,0,2,,,,,,,10,4,10,4,,,,,,,,,,,1343.0357,1343.5263,1343.7644,1345.2486,space,1.469,,1345.2487,70,35,1346.2481,1346.2481,1346.253,,,,0,26,26,26,1,45,120,,,,,,,,
,,5deb2c9df87f5524e62c8959,65af5593cbfd19b26dc0c3d9,2024-01-22_23h59.24.493,bars,2023.2.3,Win32,60.24096386,657b66ea316d21385b68909f,,,,,,,,,,,1346.2534,1347.2477,,,1347.748,1347.9986,,88,88,,,,,,,,,,,,,,,,bars/021.png,bars/mask003.png,,,,,,,,,,,,3,2,,,,,,,10,6,9,8,,,,,,,,,,,1347.2477,1347.748,1347.9987,1350.833,space,2.8205,,1350.833,67,18,1351.8338,1351.8339,1351.8589,,,,0,27,27,27,1,155,70,,,,,,,,
,,5deb2c9df87f5524e62c8959,65af5593cbfd19b26dc0c3d9,2024-01-22_23h59.24.493,bars,2023.2.3,Win32,60.24096386,657b66ea316d21385b68909f,,,,,,,,,,,1351.8591,1352.8473,,,1353.3479,1353.5858,,81,81,,,,,,,,,,,,,,,,bars/041.png,bars/mask009.png,,,,,,,,,,,,4,2,,,,,,,8,4,6,5,,,,,,,,,,,1352.8473,1353.3479,1353.586,1354.2113,space,0.6137,,1354.2113,61,4,1355.2143,1355.2144,1355.2159,,,,0,28,28,28,1,20,85,,,,,,,,
,,5deb2c9df87f5524e62c8959,65af5593cbfd19b26dc0c3d9,2024-01-22_23h59.24.493,bars,2023.2.3,Win32,60.24096386,657b66ea316d21385b68909f,,,,,,,,,,,1355.2165,1356.2182,,,1356.7156,1356.9692,,54,54,,,,,,,,,,,,,,,,bars/045.png,bars/mask005.png,,,,,,,,,,,,0,2,,,,,,,10,2,10,2,,,,,,,,,,,1356.2183,1356.7154,1356.9692,1357.6673,space,0.6837,,1357.6673,46,44,1358.6646,1358.6647,1358.6665,,,,0,29,29,29,1,100,10,,,,,,,,
,,5deb2c9df87f5524e62c8959,65af5593cbfd19b26dc0c3d9,2024-01-22_23h59.24.493,bars,2023.2.3,Win32,60.24096386,657b66ea316d21385b68909f,,,,,,,,,,,1358.6672,1359.665,,,1360.165,1360.415,,12,192,,,,,,,,,,,,,,,,bars/031.png,bars/mask008.png,,,,,,,,,,,,0,2,,,,,,,10,0,10,0,,,,,,,,,,,1359.6653,1360.1649,1360.4151,1364.5864,space,4.1557,,1364.5864,72,23,1365.5812,1365.5813,1365.5957,,,,0,30,30,30,1,120,35,,,,,,,,
,,5deb2c9df87f5524e62c8959,65af5593cbfd19b26dc0c3d9,2024-01-22_23h59.24.493,bars,2023.2.3,Win32,60.24096386,657b66ea316d21385b68909f,,,,,,,,,,,1365.5958,1366.601,,,1367.0987,1367.3481,,50,50,,,,,,,,,,,,,,,,bars/029.png,bars/mask009.png,,,,,,,,,,,,0,2,,,,,,,8,0,7,0,,,,,,,,,,,1366.601,1367.0985,1367.3482,1369.9026,space,2.5369,,1369.9027,40,5,1370.8976,1370.8978,1370.9135,,,,0,31,31,31,1,90,45,,,,,,,,
,,5deb2c9df87f5524e62c8959,65af5593cbfd19b26dc0c3d9,2024-01-22_23h59.24.493,bars,2023.2.3,Win32,60.24096386,657b66ea316d21385b68909f,,,,,,,,,,,1370.9141,1371.9186,,,1372.4148,1372.6645,,106,106,,,,,,,,,,,,,,,,bars/039.png,bars/mask007.png,,,,,,,,,,,,4,2,,,,,,,6,2,6,4,,,,,,,,,,,1371.9186,1372.4148,1372.6646,1374.5817,space,1.9034,,1374.5818,69,1,1375.5818,1375.5819,1375.5964,,,,0,32,32,32,1,175,105,,,,,,,,
,,5deb2c9df87f5524e62c8959,65af5593cbfd19b26dc0c3d9,2024-01-22_23h59.24.493,bars,2023.2.3,Win32,60.24096386,657b66ea316d21385b68909f,,,,,,,,,,,1375.5965,1376.598,,,1377.0912,1377.3307,,54,54,,,,,,,,,,,,,,,,bars/040.png,bars/mask005.png,,,,,,,,,,,,0,2,,,,,,,4,4,5,5,,,,,,,,,,,1376.598,1377.0912,1377.3309,1378.0448,space,0.6865,,1378.045,86,49,1379.0427,1379.0428,1379.0451,,,,0,33,33,33,1,140,5,,,,,,,,
,,5deb2c9df87f5524e62c8959,65af5593cbfd19b26dc0c3d9,2024-01-22_23h59.24.493,bars,2023.2.3,Win32,60.24096386,657b66ea316d21385b68909f,,,,,,,,,,,1379.046,1380.0375,,,1380.5313,1380.7717,,91,91,,,,,,,,,,,,,,,,bars/006.png,bars/mask005.png,,,,,,,,,,,,2,2,,,,,,,6,2,7,3,,,,,,,,,,,1380.0378,1380.5312,1380.7717,1384.3106,space,3.5209,,1384.3107,56,9,1385.3031,1385.3032,1385.3161,,,,0,34,34,34,1,35,100,,,,,,,,
,,5deb2c9df87f5524e62c8959,65af5593cbfd19b26dc0c3d9,2024-01-22_23h59.24.493,bars,2023.2.3,Win32,60.24096386,657b66ea316d21385b68909f,,,,,,,,,,,1385.3165,1386.3077,,,1386.7982,1387.042,,125,125,,,,,,,,,,,,,,,,bars/028.png,bars/mask008.png,,,,,,,,,,,,0,2,,,,,,,4,0,3,0,,,,,,,,,,,1386.3078,1386.7981,1387.0421,1388.0479,space,0.99,,1388.048,80,5,1389.0425,1389.0425,1389.0454,,,,0,35,35,35,1,45,120,,,,,,,,
,,5deb2c9df87f5524e62c8959,65af5593cbfd19b26dc0c3d9,2024-01-22_23h59.24.493,bars,2023.2.3,Win32,60.24096386,657b66ea316d21385b68909f,,,,,,,,,,,1389.0463,1390.0361,,,1390.526,1390.7758,,96,96,,,,,,,,,,,,,,,,bars/004.png,bars/mask000.png,,,,,,,,,,,,0,2,,,,,,,6,0,6,1,,,,,,,,,,,1390.0365,1390.5259,1390.776,1392.8976,space,2.1051,,1392.8977,71,29,1393.9059,1393.906,1393.9184,,,,0,36,36,36,1,25,125,,,,,,,,
,,5deb2c9df87f5524e62c8959,65af5593cbfd19b26dc0c3d9,2024-01-22_23h59.24.493,bars,2023.2.3,Win32,60.24096386,657b66ea316d21385b68909f,,,,,,,,,,,1393.9185,1394.9191,,,1395.4174,1395.6584,,164,164,,,,,,,,,,,,,,,,bars/015.png,bars/mask001.png,,,,,,,,,,,,3,2,,,,,,,4,2,3,4,,,,,,,,,,,1394.9194,1395.4171,1395.6585,1396.2777,space,0.6016,,1396.2777,54,4,1397.2716,1397.2717,1397.2739,,,,0,37,37,37,1,110,160,,,,,,,,
,,5deb2c9df87f5524e62c8959,65af5593cbfd19b26dc0c3d9,2024-01-22_23h59.24.493,bars,2023.2.3,Win32,60.24096386,657b66ea316d21385b68909f,,,,,,,,,,,1397.2747,1398.2743,,,1398.765,1399.0066,,53,53,,,,,,,,,,,,,,,,bars/030.png,bars/mask008.png,,,,,,,,,,,,2,2,,,,,,,2,4,2,4,,,,,,,,,,,1398.2744,1398.7649,1399.0067,1401.1447,space,2.1199,,1401.1448,87,12,1402.1328,1402.1329,1402.1433,,,,0,38,38,38,1,140,65,,,,,,,,
,,5deb2c9df87f5524e62c8959,65af5593cbfd19b26dc0c3d9,2024-01-22_23h59.24.493,bars,2023.2.3,Win32,60.24096386,657b66ea316d21385b68909f,,,,,,,,,,,1402.1434,1403.1325,,,1403.6316,1403.8813,,64,64,,,,,,,,,,,,,,,,bars/023.png,bars/mask004.png,,,,,,,,,,,,0,1,,,,,,,0,2,0,2,,,,,,,,,,,1403.1326,1403.6316,1403.8814,1406.8652,space,2.9681,,1406.8653,44,51,1407.8647,1407.8649,1407.8818,,,,0,39,39,39,1,20,115,,,,,,,,
,,5deb2c9df87f5524e62c8959,65af5593cbfd19b26dc0c3d9,2024-01-22_23h59.24.493,bars,2023.2.3,Win32,60.24096386,657b66ea316d21385b68909f,,,,,,,,,,,1407.882,1408.884,,,1409.3821,1409.6309,,150,-30,,,,,,,,,,,,,,,,bars/024.png,bars/mask002.png,,,,,,,,,,,,2,2,,,,,,,2,4,3,5,,,,,,,,,,,1408.8842,1409.3819,1409.631,1411.8317,space,2.1853,,1411.8319,30,20,1412.8317,1412.8319,1412.8549,,,,0,40,40,40,1,120,170,,,,,,,,
,,5deb2c9df87f5524e62c8959,65af5593cbfd19b26dc0c3d9,2024-01-22_23h59.24.493,bars,2023.2.3,Win32,60.24096386,657b66ea316d21385b68909f,,,,,,,,,,,1412.8551,1413.8476,,,1414.3478,1414.5908,,19,199,,,,,,,,,,,,,,,,bars/047.png,bars/mask008.png,,,,,,,,,,,,2,1,,,,,,,4,2,2,2,,,,,,,,,,,1413.8477,1414.3476,1414.5909,1418.5777,space,3.9683,,1418.5778,4,51,1419.5704,1419.5705,1419.5917,,,,0,41,41,41,1,15,70,,,,,,,,
,,5deb2c9df87f5524e62c8959,65af5593cbfd19b26dc0c3d9,2024-01-22_23h59.24.493,bars,2023.2.3,Win32,60.24096386,657b66ea316d21385b68909f,,,,,,,,,,,1419.592,1420.5808,,,1421.0812,1421.3311,,145,145,,,,,,,,,,,,,,,,bars/020.png,bars/mask006.png,,,,,,,,,,,,0,2,,,,,,,6,0,5,0,,,,,,,,,,,1420.5808,1421.0811,1421.3311,1421.8747,space,0.5222,,1421.8748,30,25,1422.8643,1422.8644,1422.8681,,,,0,42,42,42,1,115,170,,,,,,,,
,,5deb2c9df87f5524e62c8959,65af5593cbfd19b26dc0c3d9,2024-01-22_23h59.24.493,bars,2023.2.3,Win32,60.24096386,657b66ea316d21385b68909f,,,,,,,,,,,1422.8686,1423.8643,,,1424.3755,1424.618,,164,164,,,,,,,,,,,,,,,,bars/045.png,bars/mask009.png,,,,,,,,,,,,0,2,,,,,,,8,0,8,0,,,,,,,,,,,1423.8643,1424.3753,1424.6181,1425.0943,space,0.4538,,1425.0944,64,26,1426.0861,1426.0862,1426.0886,,,,0,43,43,43,1,100,10,,,,,,,,
,,5deb2c9df87f5524e62c8959,65af5593cbfd19b26dc0c3d9,2024-01-22_23h59.24.493,bars,2023.2.3,Win32,60.24096386,657b66ea316d21385b68909f,,,,,,,,,,,1426.0894,1427.0915,,,1427.5856,1427.8249,,130,-50,,,,,,,,,,,,,,,,bars/043.png,bars/mask007.png,,,,,,,,,,,,0,2,,,,,,,6,0,7,0,,,,,,,,,,,1427.0917,1427.5855,1427.825,1431.7393,space,3.8981,,1431.7394,80,0,1432.7345,1432.7346,1432.7499,,,,0,44,44,44,1,30,130,,,,,,,,
,,5deb2c9df87f5524e62c8959,65af5593cbfd19b26dc0c3d9,2024-01-22_23h59.24.493,bars,2023.2.3,Win32,60.24096386,657b66ea316d21385b68909f,,,,,,,,,,,1432.75,1433.7398,,,1434.2361,1434.4857,,82,82,,,,,,,,,,,,,,,,bars/041.png,bars/mask001.png,,,,,,,,,,,,0,2,,,,,,,8,0,9,0,,,,,,,,,,,1433.7399,1434.236,1434.4857,1434.99,space,0.4809,,1434.9901,62,3,1435.9931,1435.9932,1435.9952,,,,0,45,45,45,1,20,85,,,,,,,,
,,5deb2c9df87f5524e62c8959,65af5593cbfd19b26dc0c3d9,2024-01-22_23h59.24.493,bars,2023.2.3,Win32,60.24096386,657b66ea316d21385b68909f,,,,,,,,,,,1435.9959,1436.9872,,,1437.49,1437.7312,,150,-30,,,,,,,,,,,,,,,,bars/039.png,bars/mask001.png,,,,,,,,,,,,1,1,,,,,,,10,2,8,2,,,,,,,,,,,1436.9873,1437.4899,1437.7312,1440.1433,space,2.3995,,1440.1434,25,45,1441.1476,1441.1476,1441.1644,,,,0,46,46,46,1,175,105,,,,,,,,
,,5deb2c9df87f5524e62c8959,65af5593cbfd19b26dc0c3d9,2024-01-22_23h59.24.493,bars,2023.2.3,Win32,60.24096386,657b66ea316d21385b68909f,,,,,,,,,,,1441.1646,1442.1722,,,1442.6703,1442.924,,120,-60,,,,,,,,,,,,,,,,bars/005.png,bars/mask008.png,,,,,,,,,,,,1,2,,,,,,,8,4,7,4,,,,,,,,,,,1442.1723,1442.6701,1442.924,1446.3254,space,3.3859,,1446.3255,70,20,1447.3182,1447.3182,1447.3354,,,,0,47,47,47,1,10,140,,,,,,,,
,,5deb2c9df87f5524e62c8959,65af5593cbfd19b26dc0c3d9,2024-01-22_23h59.24.493,bars,2023.2.3,Win32,60.24096386,657b66ea316d21385b68909f,,,,,,,,,,,1447.3356,1448.3308,,,1448.8395,1449.085,,85,85,,,,,,,,,,,,,,,,bars/023.png,bars/mask002.png,,,,,,,,,,,,0,2,,,,,,,6,6,5,5,,,,,,,,,,,1448.3309,1448.8393,1449.0851,1449.6612,space,0.5539,,1449.6614,65,30,1450.6531,1450.6532,1450.656,,,,0,48,48,48,1,20,115,,,,,,,,
,,5deb2c9df87f5524e62c8959,65af5593cbfd19b26dc0c3d9,2024-01-22_23h59.24.493,bars,2023.2.3,Win32,60.24096386,657b66ea316d21385b68909f,,,,,,,,,,,1450.6568,1451.648,,,1452.1483,1452.3976,,68,68,,,,,,,,,,,,,,,,bars/021.png,bars/mask005.png,,,,,,,,,,,,5,2,,,,,,,4,4,4,5,,,,,,,,,,,1451.648,1452.1482,1452.3977,1452.9281,space,0.5192,,1452.9282,87,2,1453.9354,1453.9355,1453.9368,,,,0,49,49,49,1,155,70,,,,,,,,
,,5deb2c9df87f5524e62c8959,65af5593cbfd19b26dc0c3d9,2024-01-22_23h59.24.493,bars,2023.2.3,Win32,60.24096386,657b66ea316d21385b68909f,,,,,,,,,,,,,,,,,,,,,,,,,,,,,,,,,,,,,,,,,,,,,,,,,,,,,,,,,,,,,,,,,,,,,,,,,,,,,,,,,,,,,,,,,,,,,1453.9372,1513.932,0,3,3,0,1,sequence_tables/blk000.csv
,,5deb2c9df87f5524e62c8959,65af5593cbfd19b26dc0c3d9,2024-01-22_23h59.24.493,bars,2023.2.3,Win32,60.24096386,657b66ea316d21385b68909f,,,,,,,,,,,1516.0265,1517.0184,,,1517.5171,1517.7655,,68,68,,,,,,,,,,,,,,,,bars/025.png,bars/mask008.png,,,,,,,,,,,,1,2,,,,,,,5,7,6,8,,,,,,1513.946,1516.019,space,2.0609,,1517.0184,1517.5171,1517.7658,1519.9497,space,2.1715,,1519.9497,37,28,1520.9495,1520.9495,1520.9648,,,,0,0,0,0,1,105,40,,,,,,,,
,,5deb2c9df87f5524e62c8959,65af5593cbfd19b26dc0c3d9,2024-01-22_23h59.24.493,bars,2023.2.3,Win32,60.24096386,657b66ea316d21385b68909f,,,,,,,,,,,1520.965,1521.9658,,,1522.465,1522.715,,68,68,,,,,,,,,,,,,,,,bars/007.png,bars/mask000.png,,,,,,,,,,,,5,2,,,,,,,7,9,5,8,,,,,,,,,,,1521.9659,1522.4649,1522.7152,1524.3812,space,1.6456,,1524.3814,73,13,1525.3823,1525.3825,1525.3845,,,,0,1,1,1,1,175,55,,,,,,,,
,,5deb2c9df87f5524e62c8959,65af5593cbfd19b26dc0c3d9,2024-01-22_23h59.24.493,bars,2023.2.3,Win32,60.24096386,657b66ea316d21385b68909f,,,,,,,,,,,1525.385,1526.3817,,,1526.8818,1527.1306,,171,171,,,,,,,,,,,,,,,,bars/010.png,bars/mask001.png,,,,,,,,,,,,3,1,,,,,,,5,10,4,10,,,,,,,,,,,1526.3817,1526.8818,1527.1306,1528.3505,space,1.2055,,1528.3506,6,64,1529.3478,1529.3478,1529.3521,,,,0,2,2,2,1,165,55,,,,,,,,
,,5deb2c9df87f5524e62c8959,65af5593cbfd19b26dc0c3d9,2024-01-22_23h59.24.493,bars,2023.2.3,Win32,60.24096386,657b66ea316d21385b68909f,,,,,,,,,,,1529.3525,1530.3479,,,1530.8483,1531.0995,,77,77,,,,,,,,,,,,,,,,bars/019.png,bars/mask006.png,,,,,,,,,,,,1,2,,,,,,,3,10,2,9,,,,,,,,,,,1530.348,1530.8482,1531.0996,1532.7682,space,1.6564,,1532.7682,32,28,1533.765,1533.7651,1533.7705,,,,0,3,3,3,1,45,105,,,,,,,,
,,5deb2c9df87f5524e62c8959,65af5593cbfd19b26dc0c3d9,2024-01-22_23h59.24.493,bars,2023.2.3,Win32,60.24096386,657b66ea316d21385b68909f,,,,,,,,,,,1533.7707,1534.7645,,,1535.2646,1535.5146,,111,111,,,,,,,,,,,,,,,,bars/039.png,bars/mask007.png,,,,,,,,,,,,8,2,,,,,,,1,10,0,10,,,,,,,,,,,1534.7646,1535.2646,1535.5147,1536.5316,space,1.0013,,1536.5319,64,6,1537.5318,1537.5319,1537.5343,,,,0,4,4,4,1,175,105,,,,,,,,
,,5deb2c9df87f5524e62c8959,65af5593cbfd19b26dc0c3d9,2024-01-22_23h59.24.493,bars,2023.2.3,Win32,60.24096386,657b66ea316d21385b68909f,,,,,,,,,,,1537.535,1538.5312,,,1539.031,1539.2813,,78,78,,,,,,,,,,,,,,,,bars/049.png,bars/mask004.png,,,,,,,,,,,,0,2,,,,,,,0,10,1,10,,,,,,,,,,,1538.5312,1539.0309,1539.2814,1541.1844,space,1.8864,,1541.1845,82,37,1542.1815,1542.1816,1542.1958,,,,0,5,5,5,1,160,115,,,,,,,,
,,5deb2c9df87f5524e62c8959,65af5593cbfd19b26dc0c3d9,2024-01-22_23h59.24.493,bars,2023.2.3,Win32,60.24096386,657b66ea316d21385b68909f,,,,,,,,,,,1542.196,1543.1978,,,1543.6981,1543.9489,,101,101,,,,,,,,,,,,,,,,bars/032.png,bars/mask009.png,,,,,,,,,,,,0,1,,,,,,,2,8,1,10,,,,,,,,,,,1543.1978,1543.6981,1543.9489,1547.0505,space,3.084,,1547.0507,24,81,1548.0502,1548.0502,1548.0683,,,,0,6,6,6,1,125,20,,,,,,,,
,,5deb2c9df87f5524e62c8959,65af5593cbfd19b26dc0c3d9,2024-01-22_23h59.24.493,bars,2023.2.3,Win32,60.24096386,657b66ea316d21385b68909f,,,,,,,,,,,1548.0685,1549.0658,,,1549.5654,1549.8144,,14,194,,,,,,,,,,,,,,,,bars/036.png,bars/mask004.png,,,,,,,,,,,,4,2,,,,,,,0,6,0,5,,,,,,,,,,,1549.0659,1549.5653,1549.8145,1552.7331,space,2.9031,,1552.7332,49,6,1553.7315,1553.7315,1553.7469,,,,0,7,7,7,1,145,20,,,,,,,,
,,5deb2c9df87f5524e62c8959,65af5593cbfd19b26dc0c3d9,2024-01-22_23h59.24.493,bars,2023.2.3,Win32,60.24096386,657b66ea316d21385b68909f,,,,,,,,,,,1553.7472,1554.7357,,,1555.2315,1555.4829,,140,140,,,,,,,,,,,,,,,,bars/016.png,bars/mask009.png,,,,,,,,,,,,1,2,,,,,,,0,8,1,7,,,,,,,,,,,1554.7357,1555.2314,1555.4829,1558.9648,space,3.4692,,1558.9649,80,25,1559.9651,1559.9652,1559.9805,,,,0,8,8,8,1,40,165,,,,,,,,
,,5deb2c9df87f5524e62c8959,65af5593cbfd19b26dc0c3d9,2024-01-22_23h59.24.493,bars,2023.2.3,Win32,60.24096386,657b66ea316d21385b68909f,,,,,,,,,,,1559.9808,1560.981,,,1561.4815,1561.7352,,65,65,,,,,,,,,,,,,,,,bars/045.png,bars/mask003.png,,,,,,,,,,,,0,1,,,,,,,0,6,0,5,,,,,,,,,,,1560.9811,1561.4815,1561.7352,1563.9004,space,2.1521,,1563.9005,35,55,1564.8993,1564.8993,1564.9188,,,,0,9,9,9,1,100,10,,,,,,,,
,,5deb2c9df87f5524e62c8959,65af5593cbfd19b26dc0c3d9,2024-01-22_23h59.24.493,bars,2023.2.3,Win32,60.24096386,657b66ea316d21385b68909f,,,,,,,,,,,1564.9195,1565.9145,,,1566.4243,1566.6766,,137,137,,,,,,,,,,,,,,,,bars/003.png,bars/mask009.png,,,,,,,,,,,,7,2,,,,,,,0,8,1,8,,,,,,,,,,,1565.9145,1566.4242,1566.6767,1567.8697,space,1.1773,,1567.8697,68,3,1568.8595,1568.8597,1568.8665,,,,0,10,10,10,1,25,140,,,,,,,,
,,5deb2c9df87f5524e62c8959,65af5593cbfd19b26dc0c3d9,2024-01-22_23h59.24.493,bars,2023.2.3,Win32,60.24096386,657b66ea316d21385b68909f,,,,,,,,,,,1568.8675,1569.8695,,,1570.3651,1570.6033,,126,126,,,,,,,,,,,,,,,,bars/013.png,bars/mask009.png,,,,,,,,,,,,0,1,,,,,,,0,10,0,10,,,,,,,,,,,1569.8696,1570.3649,1570.6035,1571.9428,space,1.3172,,1571.9428,51,64,1572.9428,1572.9429,1572.9495,,,,0,11,11,11,1,75,10,,,,,,,,
,,5deb2c9df87f5524e62c8959,65af5593cbfd19b26dc0c3d9,2024-01-22_23h59.24.493,bars,2023.2.3,Win32,60.24096386,657b66ea316d21385b68909f,,,,,,,,,,,1572.9505,1573.9481,,,1574.4479,1574.6917,,115,115,,,,,,,,,,,,,,,,bars/023.png,bars/mask005.png,,,,,,,,,,,,8,2,,,,,,,0,8,0,8,,,,,,,,,,,1573.9482,1574.4476,1574.6919,1577.2436,space,2.5348,,1577.2437,85,0,1578.2477,1578.2477,1578.2522,,,,0,12,12,12,1,20,115,,,,,,,,
,,5deb2c9df87f5524e62c8959,65af5593cbfd19b26dc0c3d9,2024-01-22_23h59.24.493,bars,2023.2.3,Win32,60.24096386,657b66ea316d21385b68909f,,,,,,,,,,,1578.2527,1579.2478,,,1579.7582,1580.0025,,103,103,,,,,,,,,,,,,,,,bars/023.png,bars/mask009.png,,,,,,,,,,,,3,2,,,,,,,2,6,2,5,,,,,,,,,,,1579.2479,1579.758,1580.0027,1581.0937,space,1.0682,,1581.0938,83,12,1582.1021,1582.1023,1582.1044,,,,0,13,13,13,1,20,115,,,,,,,,
