init_variables.started,init_variables.stopped,participant,session,date,expName,psychopyVersion,OS,frameRate,study_id,instruction_exp.started,instruction_exp.stopped,key_resp_8.keys,key_resp_8.rt,key_resp_8.duration,instruction_single.started,instruction_single.stopped,key_resp_2.keys,key_resp_2.rt,key_resp_2.duration,interval.started,interval.stopped,cue_single.started,cue_single.stopped,mask.started,mask.stopped,ori_response_single.started,res_ori,res,ori_response_single.stopped,key_resp_single.keys,key_resp_single.rt,key_resp_single.duration,disp_single.started,disp_single.stopped,key_resp.keys,key_resp.rt,key_resp.duration,single.thisRepN,single.thisTrialN,single.thisN,single.thisIndex,single.ran,ori,path,mask_path,instruction_bandit.started,instruction_bandit.stopped,key_resp_6.keys,key_resp_6.rt,key_resp_6.duration,cue_bandit.started,cue_bandit.stopped,bandit_res.keys,bandit_res.rt,bandit_res.duration,outcome_bandit.started,rew,action,outcome_bandit.stopped,bandit.thisRepN,bandit.thisTrialN,bandit.thisN,bandit.thisIndex,bandit.ran,actual_rew1,actual_rew2,rew1,rew2,instruction_task.started,instruction_task.stopped,key_resp_7.keys,key_resp_7.rt,key_resp_7.duration,wait_ready.started,wait_ready.stopped,key_resp_3.keys,key_resp_3.rt,key_resp_3.duration,cue.started,cue.stopped,ori_response.started,ori_response.stopped,key_resp_5.keys,key_resp_5.rt,key_resp_5.duration,outcome.started,diff1,diff2,outcome.stopped,disp_outcome_practice.started,disp_outcome_practice.stopped,key_resp_4.keys,key_resp_4.rt,key_resp_4.duration,trials.thisRepN,trials.thisTrialN,trials.thisN,trials.thisIndex,trials.ran,ori1,ori2,break_blk.started,break_blk.stopped,block.thisRepN,block.thisTrialN,block.thisN,block.thisIndex,block.ran,condition_file
0.0003,0.0004,6172a1d4cffa5162140cc8c2,65af7587304b05200d920d16,2024-01-23_10h18.02.172,bars,2023.2.3,Win32,60.60606061,657b66ea316d21385b68909f,,,,,,,,,,,,,,,,,,,,,,,,,,,,,,,,,,,,,,,,,,,,,,,,,,,,,,,,,,,,,,,,,,,,,,,,,,,,,,,,,,,,,,,,,,,,,,,,,,,,
,,6172a1d4cffa5162140cc8c2,65af7587304b05200d920d16,2024-01-23_10h18.02.172,bars,2023.2.3,Win32,60.60606061,657b66ea316d21385b68909f,0.0006,55.8412,y,55.8306,,,,,,,,,,,,,,,,,,,,,,,,,,,,,,,,,,,,,,,,,,,,,,,,,,,,,,,,,,,,,,,,,,,,,,,,,,,,,,,,,,,,,,,,,,,,,,,,
,,6172a1d4cffa5162140cc8c2,65af7587304b05200d920d16,2024-01-23_10h18.02.172,bars,2023.2.3,Win32,60.60606061,657b66ea316d21385b68909f,,,,,,55.8415,106.8351,space,50.9773,,,,,,,,,,,,,,,,,,,,,,,,,,,,,,,,,,,,,,,,,,,,,,,,,,,,,,,,,,,,,,,,,,,,,,,,,,,,,,,,,,,,,,,,,,,
,,6172a1d4cffa5162140cc8c2,65af7587304b05200d920d16,2024-01-23_10h18.02.172,bars,2023.2.3,Win32,60.60606061,657b66ea316d21385b68909f,,,,,,,,,,,106.852,107.8403,107.8408,108.3405,108.3408,108.5915,108.592,151,151,123.1005,space,14.4481,,123.101,143.7257,space,20.5643,,0,0,0,9,1,20,bars/single009.png,bars/mask006.png,,,,,,,,,,,,,,,,,,,,,,,,,,,,,,,,,,,,,,,,,,,,,,,,,,,,,,,,,,,,,,,,
,,6172a1d4cffa5162140cc8c2,65af7587304b05200d920d16,2024-01-23_10h18.02.172,bars,2023.2.3,Win32,60.60606061,657b66ea316d21385b68909f,,,,,,,,,,,143.7592,144.7401,144.7404,145.2441,145.2442,145.4913,145.4914,170,170,151.7163,space,6.2041,,151.7164,154.9129,space,3.1463,,0,1,1,1,1,20,bars/single001.png,bars/mask006.png,,,,,,,,,,,,,,,,,,,,,,,,,,,,,,,,,,,,,,,,,,,,,,,,,,,,,,,,,,,,,,,,
,,6172a1d4cffa5162140cc8c2,65af7587304b05200d920d16,2024-01-23_10h18.02.172,bars,2023.2.3,Win32,60.60606061,657b66ea316d21385b68909f,,,,,,,,,,,154.9396,155.9278,155.9278,156.4288,156.4289,156.6788,156.6788,19,19,160.664,space,3.9702,,160.6642,163.2322,space,2.5226,,0,2,2,7,1,45,bars/single007.png,bars/mask009.png,,,,,,,,,,,,,,,,,,,,,,,,,,,,,,,,,,,,,,,,,,,,,,,,,,,,,,,,,,,,,,,,
,,6172a1d4cffa5162140cc8c2,65af7587304b05200d920d16,2024-01-23_10h18.02.172,bars,2023.2.3,Win32,60.60606061,657b66ea316d21385b68909f,,,,,,,,,,,163.2337,164.2322,164.2322,164.7205,164.7206,164.9672,164.9673,20,20,170.0235,space,5.0356,,170.0235,171.2922,space,1.2285,,0,3,3,2,1,145,bars/single002.png,bars/mask003.png,,,,,,,,,,,,,,,,,,,,,,,,,,,,,,,,,,,,,,,,,,,,,,,,,,,,,,,,,,,,,,,,
,,6172a1d4cffa5162140cc8c2,65af7587304b05200d920d16,2024-01-23_10h18.02.172,bars,2023.2.3,Win32,60.60606061,657b66ea316d21385b68909f,,,,,,,,,,,171.2931,172.2872,172.2872,172.7871,172.7874,173.0365,173.0369,26,26,176.2555,space,3.193,,176.2556,177.9401,space,1.6505,,0,4,4,4,1,95,bars/single004.png,bars/mask004.png,,,,,,,,,,,,,,,,,,,,,,,,,,,,,,,,,,,,,,,,,,,,,,,,,,,,,,,,,,,,,,,,
,,6172a1d4cffa5162140cc8c2,65af7587304b05200d920d16,2024-01-23_10h18.02.172,bars,2023.2.3,Win32,60.60606061,657b66ea316d21385b68909f,,,,,,,,,,,177.9413,178.9435,178.9436,179.4388,179.439,179.6907,179.6908,4,4,181.9591,space,2.2389,,181.9594,183.3433,space,1.3426,,0,5,5,8,1,160,bars/single008.png,bars/mask004.png,,,,,,,,,,,,,,,,,,,,,,,,,,,,,,,,,,,,,,,,,,,,,,,,,,,,,,,,,,,,,,,,
,,6172a1d4cffa5162140cc8c2,65af7587304b05200d920d16,2024-01-23_10h18.02.172,bars,2023.2.3,Win32,60.60606061,657b66ea316d21385b68909f,,,,,,,,,,,183.3449,184.3412,184.3413,184.8411,184.8411,185.0919,185.092,61,61,188.1284,space,3.0272,,188.1284,190.0779,space,1.902,,0,6,6,5,1,55,bars/single005.png,bars/mask008.png,,,,,,,,,,,,,,,,,,,,,,,,,,,,,,,,,,,,,,,,,,,,,,,,,,,,,,,,,,,,,,,,
,,6172a1d4cffa5162140cc8c2,65af7587304b05200d920d16,2024-01-23_10h18.02.172,bars,2023.2.3,Win32,60.60606061,657b66ea316d21385b68909f,,,,,,,,,,,190.0788,191.0781,191.0783,191.5781,191.5782,191.8283,191.8286,52,232,197.4704,space,5.6332,,197.4704,199.5546,space,2.0425,,0,7,7,0,1,150,bars/single000.png,bars/mask006.png,,,,,,,,,,,,,,,,,,,,,,,,,,,,,,,,,,,,,,,,,,,,,,,,,,,,,,,,,,,,,,,,
,,6172a1d4cffa5162140cc8c2,65af7587304b05200d920d16,2024-01-23_10h18.02.172,bars,2023.2.3,Win32,60.60606061,657b66ea316d21385b68909f,,,,,,,,,,,199.5552,200.55,200.55,201.0502,201.0502,201.2999,201.3001,51,51,204.5407,space,3.2198,,204.5407,206.6021,space,2.0115,,0,8,8,3,1,20,bars/single003.png,bars/mask005.png,,,,,,,,,,,,,,,,,,,,,,,,,,,,,,,,,,,,,,,,,,,,,,,,,,,,,,,,,,,,,,,,
,,6172a1d4cffa5162140cc8c2,65af7587304b05200d920d16,2024-01-23_10h18.02.172,bars,2023.2.3,Win32,60.60606061,657b66ea316d21385b68909f,,,,,,,,,,,206.6033,207.6019,207.602,208.1022,208.1023,208.3525,208.3526,48,48,211.2705,space,2.9032,,211.2707,212.4043,space,1.1136,,0,9,9,6,1,175,bars/single006.png,bars/mask005.png,,,,,,,,,,,,,,,,,,,,,,,,,,,,,,,,,,,,,,,,,,,,,,,,,,,,,,,,,,,,,,,,
,,6172a1d4cffa5162140cc8c2,65af7587304b05200d920d16,2024-01-23_10h18.02.172,bars,2023.2.3,Win32,60.60606061,657b66ea316d21385b68909f,,,,,,,,,,,,,,,,,,,,,,,,,,,,,,,,,,,,,212.4076,231.248,space,18.8111,,,,,,,,,,,,,,,,,,,,,,,,,,,,,,,,,,,,,,,,,,,,,,,,,,,,,,,,,,,,
,,6172a1d4cffa5162140cc8c2,65af7587304b05200d920d16,2024-01-23_10h18.02.172,bars,2023.2.3,Win32,60.60606061,657b66ea316d21385b68909f,,,,,,,,,,,,,,,,,,,,,,,,,,,,,,,,,,,,,,,,,,231.2851,233.7155,left,2.4121,,233.716,9,1,234.715,0,0,0,0,1,9,1,9,2,,,,,,,,,,,,,,,,,,,,,,,,,,,,,,,,,,,,,,,,,
,,6172a1d4cffa5162140cc8c2,65af7587304b05200d920d16,2024-01-23_10h18.02.172,bars,2023.2.3,Win32,60.60606061,657b66ea316d21385b68909f,,,,,,,,,,,,,,,,,,,,,,,,,,,,,,,,,,,,,,,,,,234.7164,236.049,right,1.3154,,236.0493,1,2,237.0489,0,1,1,1,1,10,0,10,1,,,,,,,,,,,,,,,,,,,,,,,,,,,,,,,,,,,,,,,,,
,,6172a1d4cffa5162140cc8c2,65af7587304b05200d920d16,2024-01-23_10h18.02.172,bars,2023.2.3,Win32,60.60606061,657b66ea316d21385b68909f,,,,,,,,,,,,,,,,,,,,,,,,,,,,,,,,,,,,,,,,,,237.0503,237.8326,left,0.7703,,237.8328,10,1,238.833,0,2,2,2,1,10,2,10,2,,,,,,,,,,,,,,,,,,,,,,,,,,,,,,,,,,,,,,,,,
,,6172a1d4cffa5162140cc8c2,65af7587304b05200d920d16,2024-01-23_10h18.02.172,bars,2023.2.3,Win32,60.60606061,657b66ea316d21385b68909f,,,,,,,,,,,,,,,,,,,,,,,,,,,,,,,,,,,,,,,,,,238.8343,240.2675,left,1.418,,240.2676,7,1,241.2672,0,3,3,3,1,8,4,7,3,,,,,,,,,,,,,,,,,,,,,,,,,,,,,,,,,,,,,,,,,
,,6172a1d4cffa5162140cc8c2,65af7587304b05200d920d16,2024-01-23_10h18.02.172,bars,2023.2.3,Win32,60.60606061,657b66ea316d21385b68909f,,,,,,,,,,,,,,,,,,,,,,,,,,,,,,,,,,,,,,,,,,241.3,242.0186,left,0.7037,,242.0189,5,1,243.018,0,4,4,4,1,6,2,5,1,,,,,,,,,,,,,,,,,,,,,,,,,,,,,,,,,,,,,,,,,
,,6172a1d4cffa5162140cc8c2,65af7587304b05200d920d16,2024-01-23_10h18.02.172,bars,2023.2.3,Win32,60.60606061,657b66ea316d21385b68909f,,,,,,,,,,,,,,,,,,,,,,,,,,,,,,,,,,,,,,,,,,243.0192,243.603,left,0.5758,,243.6031,4,1,244.6022,0,5,5,5,1,4,4,4,4,,,,,,,,,,,,,,,,,,,,,,,,,,,,,,,,,,,,,,,,,
,,6172a1d4cffa5162140cc8c2,65af7587304b05200d920d16,2024-01-23_10h18.02.172,bars,2023.2.3,Win32,60.60606061,657b66ea316d21385b68909f,,,,,,,,,,,,,,,,,,,,,,,,,,,,,,,,,,,,,,,,,,244.6031,245.5368,right,0.9197,,245.537,2,2,246.5364,0,6,6,6,1,2,2,1,2,,,,,,,,,,,,,,,,,,,,,,,,,,,,,,,,,,,,,,,,,
,,6172a1d4cffa5162140cc8c2,65af7587304b05200d920d16,2024-01-23_10h18.02.172,bars,2023.2.3,Win32,60.60606061,657b66ea316d21385b68909f,,,,,,,,,,,,,,,,,,,,,,,,,,,,,,,,,,,,,,,,,,246.5373,247.1361,left,0.5817,,247.1362,0,1,248.1366,0,7,7,7,1,0,0,0,1,,,,,,,,,,,,,,,,,,,,,,,,,,,,,,,,,,,,,,,,,
,,6172a1d4cffa5162140cc8c2,65af7587304b05200d920d16,2024-01-23_10h18.02.172,bars,2023.2.3,Win32,60.60606061,657b66ea316d21385b68909f,,,,,,,,,,,,,,,,,,,,,,,,,,,,,,,,,,,,,,,,,,248.1372,249.0217,right,0.8706,,249.022,0,2,250.021,0,8,8,8,1,0,2,1,0,,,,,,,,,,,,,,,,,,,,,,,,,,,,,,,,,,,,,,,,,
,,6172a1d4cffa5162140cc8c2,65af7587304b05200d920d16,2024-01-23_10h18.02.172,bars,2023.2.3,Win32,60.60606061,657b66ea316d21385b68909f,,,,,,,,,,,,,,,,,,,,,,,,,,,,,,,,,,,,,,,,,,250.0221,250.4049,right,0.3639,,250.4049,3,2,251.4045,0,9,9,9,1,2,4,2,3,,,,,,,,,,,,,,,,,,,,,,,,,,,,,,,,,,,,,,,,,
,,6172a1d4cffa5162140cc8c2,65af7587304b05200d920d16,2024-01-23_10h18.02.172,bars,2023.2.3,Win32,60.60606061,657b66ea316d21385b68909f,,,,,,,,,,,,,,,,,,,,,,,,,,,,,,,,,,,,,,,,,,251.4049,251.8389,left,0.4176,,251.8391,0,1,252.8392,0,10,10,10,1,0,2,0,3,,,,,,,,,,,,,,,,,,,,,,,,,,,,,,,,,,,,,,,,,
,,6172a1d4cffa5162140cc8c2,65af7587304b05200d920d16,2024-01-23_10h18.02.172,bars,2023.2.3,Win32,60.60606061,657b66ea316d21385b68909f,,,,,,,,,,,,,,,,,,,,,,,,,,,,,,,,,,,,,,,,,,252.8404,253.3066,right,0.4535,,253.3068,3,2,254.3065,0,11,11,11,1,0,4,0,3,,,,,,,,,,,,,,,,,,,,,,,,,,,,,,,,,,,,,,,,,
,,6172a1d4cffa5162140cc8c2,65af7587304b05200d920d16,2024-01-23_10h18.02.172,bars,2023.2.3,Win32,60.60606061,657b66ea316d21385b68909f,,,,,,,,,,,,,,,,,,,,,,,,,,,,,,,,,,,,,,,,,,254.3073,254.6896,right,0.3641,,254.6896,6,2,255.6897,0,12,12,12,1,2,6,1,6,,,,,,,,,,,,,,,,,,,,,,,,,,,,,,,,,,,,,,,,,
,,6172a1d4cffa5162140cc8c2,65af7587304b05200d920d16,2024-01-23_10h18.02.172,bars,2023.2.3,Win32,60.60606061,657b66ea316d21385b68909f,,,,,,,,,,,,,,,,,,,,,,,,,,,,,,,,,,,,,,,,,,255.6904,256.0584,right,0.3579,,256.0586,3,2,257.0578,0,13,13,13,1,0,4,1,3,,,,,,,,,,,,,,,,,,,,,,,,,,,,,,,,,,,,,,,,,
,,6172a1d4cffa5162140cc8c2,65af7587304b05200d920d16,2024-01-23_10h18.02.172,bars,2023.2.3,Win32,60.60606061,657b66ea316d21385b68909f,,,,,,,,,,,,,,,,,,,,,,,,,,,,,,,,,,,,,,,,,,257.0588,257.3749,left,0.3031,,257.375,2,1,258.375,0,14,14,14,1,2,6,2,7,,,,,,,,,,,,,,,,,,,,,,,,,,,,,,,,,,,,,,,,,
,,6172a1d4cffa5162140cc8c2,65af7587304b05200d920d16,2024-01-23_10h18.02.172,bars,2023.2.3,Win32,60.60606061,657b66ea316d21385b68909f,,,,,,,,,,,,,,,,,,,,,,,,,,,,,,,,,,,,,,,,,,258.3761,258.7257,right,0.3352,,258.7259,9,2,259.7256,0,15,15,15,1,4,8,3,9,,,,,,,,,,,,,,,,,,,,,,,,,,,,,,,,,,,,,,,,,
,,6172a1d4cffa5162140cc8c2,65af7587304b05200d920d16,2024-01-23_10h18.02.172,bars,2023.2.3,Win32,60.60606061,657b66ea316d21385b68909f,,,,,,,,,,,,,,,,,,,,,,,,,,,,,,,,,,,,,,,,,,259.7267,260.2768,right,0.5344,,260.277,7,2,261.2763,0,16,16,16,1,6,6,7,7,,,,,,,,,,,,,,,,,,,,,,,,,,,,,,,,,,,,,,,,,
,,6172a1d4cffa5162140cc8c2,65af7587304b05200d920d16,2024-01-23_10h18.02.172,bars,2023.2.3,Win32,60.60606061,657b66ea316d21385b68909f,,,,,,,,,,,,,,,,,,,,,,,,,,,,,,,,,,,,,,,,,,261.2772,261.7274,right,0.4339,,261.7276,5,2,262.7271,0,17,17,17,1,8,4,9,5,,,,,,,,,,,,,,,,,,,,,,,,,,,,,,,,,,,,,,,,,
,,6172a1d4cffa5162140cc8c2,65af7587304b05200d920d16,2024-01-23_10h18.02.172,bars,2023.2.3,Win32,60.60606061,657b66ea316d21385b68909f,,,,,,,,,,,,,,,,,,,,,,,,,,,,,,,,,,,,,,,,,,262.7286,263.1276,right,0.3891,,263.1277,1,2,264.1276,0,18,18,18,1,6,2,5,1,,,,,,,,,,,,,,,,,,,,,,,,,,,,,,,,,,,,,,,,,
,,6172a1d4cffa5162140cc8c2,65af7587304b05200d920d16,2024-01-23_10h18.02.172,bars,2023.2.3,Win32,60.60606061,657b66ea316d21385b68909f,,,,,,,,,,,,,,,,,,,,,,,,,,,,,,,,,,,,,,,,,,264.1287,264.5947,left,0.4494,,264.5949,7,1,265.5948,0,19,19,19,1,8,0,7,0,,,,,,,,,,,,,,,,,,,,,,,,,,,,,,,,,,,,,,,,,
,,6172a1d4cffa5162140cc8c2,65af7587304b05200d920d16,2024-01-23_10h18.02.172,bars,2023.2.3,Win32,60.60606061,657b66ea316d21385b68909f,,,,,,,,,,,,,,,,,,,,,,,,,,,,,,,,,,,,,,,,,,,,,,,,,,,,,,,,,,,,265.597,283.7732,space,18.1516,,,,,,,,,,,,,,,,,,,,,,,,,,,,,,,,,,,,,
,,6172a1d4cffa5162140cc8c2,65af7587304b05200d920d16,2024-01-23_10h18.02.172,bars,2023.2.3,Win32,60.60606061,657b66ea316d21385b68909f,,,,,,,,,,,284.7944,285.7868,,,286.2881,286.5376,,57,57,,,,,,,,,,,,,,,,bars/025.png,bars/mask008.png,,,,,,,,,,,,3,2,,,,,,,5,7,6,8,,,,,,283.8114,284.7873,space,0.9578,,285.7871,286.288,286.5384,290.575,space,4.0112,,290.5759,48,17,291.574,291.5747,304.551,space,12.9489,,0,0,0,0,1,105,40,,,,,,,,
,,6172a1d4cffa5162140cc8c2,65af7587304b05200d920d16,2024-01-23_10h18.02.172,bars,2023.2.3,Win32,60.60606061,657b66ea316d21385b68909f,,,,,,,,,,,304.5819,305.5633,,,306.0636,306.3127,,162,-18,,,,,,,,,,,,,,,,bars/007.png,bars/mask000.png,,,,,,,,,,,,3,1,,,,,,,7,9,5,8,,,,,,,,,,,305.5634,306.0634,306.3128,310.8826,space,4.5558,,310.8832,13,73,311.8827,311.8829,312.9696,space,1.0382,,0,1,1,1,1,175,55,,,,,,,,
,,6172a1d4cffa5162140cc8c2,65af7587304b05200d920d16,2024-01-23_10h18.02.172,bars,2023.2.3,Win32,60.60606061,657b66ea316d21385b68909f,,,,,,,,,,,312.9704,313.9682,,,314.4725,314.7177,,149,149,,,,,,,,,,,,,,,,bars/010.png,bars/mask001.png,,,,,,,,,,,,2,1,,,,,,,5,10,4,10,,,,,,,,,,,313.9683,314.4724,314.7178,317.5082,space,2.7699,,317.5083,16,86,318.5029,318.5033,319.3368,space,0.7941,,0,2,2,2,1,165,55,,,,,,,,
,,6172a1d4cffa5162140cc8c2,65af7587304b05200d920d16,2024-01-23_10h18.02.172,bars,2023.2.3,Win32,60.60606061,657b66ea316d21385b68909f,,,,,,,,,,,319.3378,320.3366,,,320.8371,321.0869,,54,54,,,,,,,,,,,,,,,,bars/019.png,bars/mask006.png,,,,,,,,,,,,1,1,,,,,,,3,10,2,9,,,,,,,,,,,320.3368,320.837,321.087,322.7884,space,1.6847,,322.7887,9,51,323.7883,323.7884,330.0596,space,6.2561,,0,3,3,3,1,45,105,,,,,,,,
,,6172a1d4cffa5162140cc8c2,65af7587304b05200d920d16,2024-01-23_10h18.02.172,bars,2023.2.3,Win32,60.60606061,657b66ea316d21385b68909f,,,,,,,,,,,330.0826,331.0751,,,331.5754,331.8247,,137,137,,,,,,,,,,,,,,,,bars/039.png,bars/mask007.png,,,,,,,,,,,,0,2,,,,,,,1,10,0,10,,,,,,,,,,,331.0752,331.5753,331.8249,334.5098,space,2.675,,334.51,38,32,335.5102,335.5103,338.8117,space,3.2504,,0,4,4,4,1,175,105,,,,,,,,
,,6172a1d4cffa5162140cc8c2,65af7587304b05200d920d16,2024-01-23_10h18.02.172,bars,2023.2.3,Win32,60.60606061,657b66ea316d21385b68909f,,,,,,,,,,,338.8411,339.8286,,,340.3122,340.562,,14,194,,,,,,,,,,,,,,,,bars/049.png,bars/mask004.png,,,,,,,,,,,,0,1,,,,,,,0,10,1,10,,,,,,,,,,,339.8287,340.3121,340.5621,343.9311,space,3.3545,,343.9313,34,79,344.9309,344.931,350.6001,space,5.6195,,0,5,5,5,1,160,115,,,,,,,,
,,6172a1d4cffa5162140cc8c2,65af7587304b05200d920d16,2024-01-23_10h18.02.172,bars,2023.2.3,Win32,60.60606061,657b66ea316d21385b68909f,,,,,,,,,,,350.6188,351.601,,,352.1012,352.351,,153,-27,,,,,,,,,,,,,,,,bars/032.png,bars/mask009.png,,,,,,,,,,,,0,1,,,,,,,2,8,1,10,,,,,,,,,,,351.6011,352.1012,352.3513,355.8699,space,3.5077,,355.8701,28,47,356.8699,356.8699,357.8867,space,0.9839,,0,6,6,6,1,125,20,,,,,,,,
,,6172a1d4cffa5162140cc8c2,65af7587304b05200d920d16,2024-01-23_10h18.02.172,bars,2023.2.3,Win32,60.60606061,657b66ea316d21385b68909f,,,,,,,,,,,357.8873,358.8876,,,359.3879,359.6369,,117,117,,,,,,,,,,,,,,,,bars/036.png,bars/mask004.png,,,,,,,,,,,,0,1,,,,,,,0,6,0,5,,,,,,,,,,,358.8879,359.3877,359.6369,363.3231,space,3.6771,,363.3233,28,83,364.3231,364.3233,364.9895,space,0.6194,,0,7,7,7,1,145,20,,,,,,,,
,,6172a1d4cffa5162140cc8c2,65af7587304b05200d920d16,2024-01-23_10h18.02.172,bars,2023.2.3,Win32,60.60606061,657b66ea316d21385b68909f,,,,,,,,,,,364.9898,365.99,,,366.4905,366.7405,,46,46,,,,,,,,,,,,,,,,bars/016.png,bars/mask009.png,,,,,,,,,,,,1,1,,,,,,,0,8,1,7,,,,,,,,,,,365.9901,366.4904,366.7405,367.8584,space,1.1031,,367.8587,6,61,368.8586,368.8587,369.8599,space,0.9514,,0,8,8,8,1,40,165,,,,,,,,
,,6172a1d4cffa5162140cc8c2,65af7587304b05200d920d16,2024-01-23_10h18.02.172,bars,2023.2.3,Win32,60.60606061,657b66ea316d21385b68909f,,,,,,,,,,,369.8613,370.8595,,,371.3592,371.61,,138,138,,,,,,,,,,,,,,,,bars/045.png,bars/mask003.png,,,,,,,,,,,,0,1,,,,,,,0,6,0,5,,,,,,,,,,,370.8595,371.3591,371.6101,374.9451,space,3.3194,,374.9454,38,52,375.945,375.9451,380.5146,space,4.5183,,0,9,9,9,1,100,10,,,,,,,,
,,6172a1d4cffa5162140cc8c2,65af7587304b05200d920d16,2024-01-23_10h18.02.172,bars,2023.2.3,Win32,60.60606061,657b66ea316d21385b68909f,,,,,,,,,,,380.5457,381.5306,,,382.0325,382.2691,,15,15,,,,,,,,,,,,,,,,bars/003.png,bars/mask009.png,,,,,,,,,,,,1,1,,,,,,,0,8,1,8,,,,,,,,,,,381.5307,382.0317,382.2692,385.9567,space,3.6709,,385.9568,10,55,386.951,386.9512,388.935,space,1.9381,,0,10,10,10,1,25,140,,,,,,,,
,,6172a1d4cffa5162140cc8c2,65af7587304b05200d920d16,2024-01-23_10h18.02.172,bars,2023.2.3,Win32,60.60606061,657b66ea316d21385b68909f,,,,,,,,,,,388.9358,389.9345,,,390.4351,390.6847,,44,44,,,,,,,,,,,,,,,,bars/013.png,bars/mask009.png,,,,,,,,,,,,0,1,,,,,,,0,10,0,10,,,,,,,,,,,389.9346,390.435,390.6847,393.3195,space,2.6229,,393.3197,31,34,394.3204,394.3205,395.2874,space,0.9188,,0,11,11,11,1,75,10,,,,,,,,
,,6172a1d4cffa5162140cc8c2,65af7587304b05200d920d16,2024-01-23_10h18.02.172,bars,2023.2.3,Win32,60.60606061,657b66ea316d21385b68909f,,,,,,,,,,,395.2885,396.2875,,,396.7877,397.0374,,100,100,,,,,,,,,,,,,,,,bars/023.png,bars/mask005.png,,,,,,,,,,,,4,2,,,,,,,0,8,0,8,,,,,,,,,,,396.2876,396.7876,397.0375,398.3391,space,1.2847,,398.3393,80,15,399.3392,399.3392,400.4741,space,1.1171,,0,12,12,12,1,20,115,,,,,,,,
,,6172a1d4cffa5162140cc8c2,65af7587304b05200d920d16,2024-01-23_10h18.02.172,bars,2023.2.3,Win32,60.60606061,657b66ea316d21385b68909f,,,,,,,,,,,400.4752,401.4734,,,401.9737,402.2234,,124,124,,,,,,,,,,,,,,,,bars/023.png,bars/mask009.png,,,,,,,,,,,,4,2,,,,,,,2,6,2,5,,,,,,,,,,,401.4735,401.9737,402.2234,404.2588,space,2.0281,,404.2589,76,9,405.2582,405.2583,406.2756,space,0.9797,,0,13,13,13,1,20,115,,,,,,,,
,,6172a1d4cffa5162140cc8c2,65af7587304b05200d920d16,2024-01-23_10h18.02.172,bars,2023.2.3,Win32,60.60606061,657b66ea316d21385b68909f,,,,,,,,,,,406.2768,407.2758,,,407.7754,408.0263,,131,-49,,,,,,,,,,,,,,,,bars/036.png,bars/mask009.png,,,,,,,,,,,,1,1,,,,,,,0,8,1,8,,,,,,,,,,,407.276,407.7754,408.0264,411.5613,space,3.5202,,411.5615,14,69,412.5613,412.5613,416.8805,space,4.2837,,0,14,14,14,1,145,20,,,,,,,,
,,6172a1d4cffa5162140cc8c2,65af7587304b05200d920d16,2024-01-23_10h18.02.172,bars,2023.2.3,Win32,60.60606061,657b66ea316d21385b68909f,,,,,,,,,,,416.9106,417.8971,,,418.3976,418.6309,,100,100,,,,,,,,,,,,,,,,bars/013.png,bars/mask002.png,,,,,,,,,,,,0,1,,,,,,,2,10,0,10,,,,,,,,,,,417.8972,418.3975,418.6311,419.8155,space,1.1683,,419.8158,25,90,420.8155,420.8156,422.2335,space,1.3705,,0,15,15,15,1,75,10,,,,,,,,
,,6172a1d4cffa5162140cc8c2,65af7587304b05200d920d16,2024-01-23_10h18.02.172,bars,2023.2.3,Win32,60.60606061,657b66ea316d21385b68909f,,,,,,,,,,,422.235,423.2327,,,423.7334,423.9836,,42,42,,,,,,,,,,,,,,,,bars/012.png,bars/mask004.png,,,,,,,,,,,,1,2,,,,,,,4,10,2,10,,,,,,,,,,,423.2328,423.7332,423.9836,426.4684,space,2.4685,,426.4685,48,27,427.4685,427.4686,428.3868,space,0.8686,,0,16,16,16,1,90,15,,,,,,,,
,,6172a1d4cffa5162140cc8c2,65af7587304b05200d920d16,2024-01-23_10h18.02.172,bars,2023.2.3,Win32,60.60606061,657b66ea316d21385b68909f,,,,,,,,,,,428.3882,429.3869,,,429.8873,430.1368,,74,74,,,,,,,,,,,,,,,,bars/037.png,bars/mask001.png,,,,,,,,,,,,0,2,,,,,,,2,8,2,9,,,,,,,,,,,429.3871,429.887,430.1372,431.5395,space,1.3818,,431.5396,76,31,432.5381,432.5382,432.8271,space,0.2676,,0,17,17,17,1,150,105,,,,,,,,
,,6172a1d4cffa5162140cc8c2,65af7587304b05200d920d16,2024-01-23_10h18.02.172,bars,2023.2.3,Win32,60.60606061,657b66ea316d21385b68909f,,,,,,,,,,,432.8282,433.8215,,,434.3227,434.5724,,148,148,,,,,,,,,,,,,,,,bars/037.png,bars/mask004.png,,,,,,,,,,,,0,1,,,,,,,0,6,0,7,,,,,,,,,,,433.8218,434.3226,434.5724,438.6264,space,4.0468,,438.6265,2,43,439.6283,439.6284,444.76,space,5.084,,0,18,18,18,1,150,105,,,,,,,,
,,6172a1d4cffa5162140cc8c2,65af7587304b05200d920d16,2024-01-23_10h18.02.172,bars,2023.2.3,Win32,60.60606061,657b66ea316d21385b68909f,,,,,,,,,,,444.79,445.7767,,,446.2767,446.5263,,157,157,,,,,,,,,,,,,,,,bars/046.png,bars/mask009.png,,,,,,,,,,,,2,1,,,,,,,0,4,2,3,,,,,,,,,,,445.7768,446.2765,446.5264,451.8855,space,5.3534,,451.8856,2,72,452.8811,452.8812,456.7488,space,3.8243,,0,19,19,19,1,155,85,,,,,,,,
,,6172a1d4cffa5162140cc8c2,65af7587304b05200d920d16,2024-01-23_10h18.02.172,bars,2023.2.3,Win32,60.60606061,657b66ea316d21385b68909f,,,,,,,,,,,456.7783,457.7655,,,458.2493,458.4992,,31,31,,,,,,,,,,,,,,,,bars/019.png,bars/mask005.png,,,,,,,,,,,,1,1,,,,,,,2,2,1,1,,,,,,,,,,,457.7656,458.2492,458.4993,463.3174,space,4.8076,,463.3174,14,74,464.3183,464.3183,465.3254,space,0.9754,,0,20,20,20,1,45,105,,,,,,,,
,,6172a1d4cffa5162140cc8c2,65af7587304b05200d920d16,2024-01-23_10h18.02.172,bars,2023.2.3,Win32,60.60606061,657b66ea316d21385b68909f,,,,,,,,,,,465.3264,466.3199,,,466.8243,467.0699,,133,313,,,,,,,,,,,,,,,,bars/027.png,bars/mask006.png,,,,,,,,,,,,1,1,,,,,,,4,0,4,0,,,,,,,,,,,466.3201,466.8242,467.0703,473.4916,space,6.4133,,473.4917,23,83,474.4906,474.4908,476.2738,space,1.7325,,0,21,21,21,1,110,50,,,,,,,,
,,6172a1d4cffa5162140cc8c2,65af7587304b05200d920d16,2024-01-23_10h18.02.172,bars,2023.2.3,Win32,60.60606061,657b66ea316d21385b68909f,,,,,,,,,,,476.2741,477.2735,,,477.7738,478.0249,,17,17,,,,,,,,,,,,,,,,bars/035.png,bars/mask009.png,,,,,,,,,,,,1,1,,,,,,,2,0,3,0,,,,,,,,,,,477.2736,477.7738,478.0249,480.9437,space,2.9107,,480.9439,22,43,481.9429,481.9429,483.4281,space,1.4454,,0,22,22,22,1,175,60,,,,,,,,
,,6172a1d4cffa5162140cc8c2,65af7587304b05200d920d16,2024-01-23_10h18.02.172,bars,2023.2.3,Win32,60.60606061,657b66ea316d21385b68909f,,,,,,,,,,,483.4291,484.4276,,,484.928,485.1781,,158,158,,,,,,,,,,,,,,,,bars/013.png,bars/mask008.png,,,,,,,,,,,,0,2,,,,,,,0,0,1,0,,,,,,,,,,,484.4278,484.9279,485.1781,486.3118,space,1.1238,,486.3118,83,32,487.3119,487.3121,487.8963,space,0.5549,,0,23,23,23,1,75,10,,,,,,,,
,,6172a1d4cffa5162140cc8c2,65af7587304b05200d920d16,2024-01-23_10h18.02.172,bars,2023.2.3,Win32,60.60606061,657b66ea316d21385b68909f,,,,,,,,,,,487.8972,488.8959,,,489.3965,489.6466,,44,44,,,,,,,,,,,,,,,,bars/026.png,bars/mask009.png,,,,,,,,,,,,1,1,,,,,,,2,2,2,1,,,,,,,,,,,488.8961,489.3963,489.6467,491.9643,space,2.3045,,491.9645,9,41,492.965,492.9651,493.5663,space,0.5667,,0,24,24,24,1,35,85,,,,,,,,
,,6172a1d4cffa5162140cc8c2,65af7587304b05200d920d16,2024-01-23_10h18.02.172,bars,2023.2.3,Win32,60.60606061,657b66ea316d21385b68909f,,,,,,,,,,,493.5675,494.5661,,,495.0662,495.3168,,13,13,,,,,,,,,,,,,,,,bars/006.png,bars/mask000.png,,,,,,,,,,,,0,1,,,,,,,0,0,0,0,,,,,,,,,,,494.5664,495.0661,495.317,496.0004,space,0.6754,,496.0007,22,87,497.0005,497.0007,497.7568,space,0.7356,,0,25,25,25,1,35,100,,,,,,,,
,,6172a1d4cffa5162140cc8c2,65af7587304b05200d920d16,2024-01-23_10h18.02.172,bars,2023.2.3,Win32,60.60606061,657b66ea316d21385b68909f,,,,,,,,,,,497.7576,498.7549,,,499.2555,499.5012,,139,139,,,,,,,,,,,,,,,,bars/018.png,bars/mask002.png,,,,,,,,,,,,0,1,,,,,,,0,0,0,0,,,,,,,,,,,498.755,499.2553,499.5016,501.336,space,1.8118,,501.3365,11,49,502.3364,502.3367,503.9057,space,1.5481,,0,26,26,26,1,150,90,,,,,,,,
,,6172a1d4cffa5162140cc8c2,65af7587304b05200d920d16,2024-01-23_10h18.02.172,bars,2023.2.3,Win32,60.60606061,657b66ea316d21385b68909f,,,,,,,,,,,503.9067,504.9038,,,505.405,505.655,,170,170,,,,,,,,,,,,,,,,bars/009.png,bars/mask006.png,,,,,,,,,,,,0,1,,,,,,,2,0,2,1,,,,,,,,,,,504.9041,505.4047,505.655,506.389,space,0.7092,,506.3891,25,65,507.3885,507.3888,508.4902,space,1.0759,,0,27,27,27,1,15,105,,,,,,,,
,,6172a1d4cffa5162140cc8c2,65af7587304b05200d920d16,2024-01-23_10h18.02.172,bars,2023.2.3,Win32,60.60606061,657b66ea316d21385b68909f,,,,,,,,,,,508.4912,509.4897,,,509.9908,510.2402,,49,49,,,,,,,,,,,,,,,,bars/016.png,bars/mask006.png,,,,,,,,,,,,1,1,,,,,,,0,2,2,2,,,,,,,,,,,509.4901,509.9899,510.2404,512.7917,space,2.522,,512.7918,9,64,513.7914,513.7916,514.4747,space,0.6358,,0,28,28,28,1,40,165,,,,,,,,
,,6172a1d4cffa5162140cc8c2,65af7587304b05200d920d16,2024-01-23_10h18.02.172,bars,2023.2.3,Win32,60.60606061,657b66ea316d21385b68909f,,,,,,,,,,,514.4759,515.4749,,,515.9754,516.2251,,7,7,,,,,,,,,,,,,,,,bars/039.png,bars/mask007.png,,,,,,,,,,,,1,1,,,,,,,2,0,1,0,,,,,,,,,,,515.475,515.9752,516.2251,519.4765,space,3.2377,,519.4766,12,82,520.4772,520.4774,523.3613,space,2.8408,,0,29,29,29,1,175,105,,,,,,,,
,,6172a1d4cffa5162140cc8c2,65af7587304b05200d920d16,2024-01-23_10h18.02.172,bars,2023.2.3,Win32,60.60606061,657b66ea316d21385b68909f,,,,,,,,,,,523.3734,524.3614,,,524.8623,525.1125,,119,119,,,,,,,,,,,,,,,,bars/024.png,bars/mask006.png,,,,,,,,,,,,1,1,,,,,,,0,2,1,3,,,,,,,,,,,524.3615,524.8622,525.1126,528.3143,space,3.1858,,528.3145,1,51,529.3147,529.3148,531.2661,space,1.905,,0,30,30,30,1,120,170,,,,,,,,
,,6172a1d4cffa5162140cc8c2,65af7587304b05200d920d16,2024-01-23_10h18.02.172,bars,2023.2.3,Win32,60.60606061,657b66ea316d21385b68909f,,,,,,,,,,,531.2671,532.2659,,,532.7664,533.0161,,147,147,,,,,,,,,,,,,,,,bars/035.png,bars/mask000.png,,,,,,,,,,,,0,1,,,,,,,0,0,0,1,,,,,,,,,,,532.266,532.7662,533.0161,536.618,space,3.588,,536.6182,28,87,537.6183,537.6184,538.4376,space,0.7746,,0,31,31,31,1,175,60,,,,,,,,
,,6172a1d4cffa5162140cc8c2,65af7587304b05200d920d16,2024-01-23_10h18.02.172,bars,2023.2.3,Win32,60.60606061,657b66ea316d21385b68909f,,,,,,,,,,,538.4392,539.4355,,,539.9362,540.186,,163,163,,,,,,,,,,,,,,,,bars/012.png,bars/mask005.png,,,,,,,,,,,,0,2,,,,,,,2,2,2,2,,,,,,,,,,,539.4357,539.9361,540.1861,542.2706,space,2.0698,,542.2707,73,32,543.2711,543.2712,544.3214,space,1.004,,0,32,32,32,1,90,15,,,,,,,,
,,6172a1d4cffa5162140cc8c2,65af7587304b05200d920d16,2024-01-23_10h18.02.172,bars,2023.2.3,Win32,60.60606061,657b66ea316d21385b68909f,,,,,,,,,,,544.3223,545.3217,,,545.8214,546.0719,,154,-26,,,,,,,,,,,,,,,,bars/004.png,bars/mask003.png,,,,,,,,,,,,0,2,,,,,,,4,4,4,6,,,,,,,,,,,545.3218,545.8214,546.0721,548.8905,space,2.8079,,548.8906,51,29,549.8904,549.8905,551.0916,space,1.1527,,0,33,33,33,1,25,125,,,,,,,,
,,6172a1d4cffa5162140cc8c2,65af7587304b05200d920d16,2024-01-23_10h18.02.172,bars,2023.2.3,Win32,60.60606061,657b66ea316d21385b68909f,,,,,,,,,,,551.0927,552.0911,,,552.5917,552.8418,,76,76,,,,,,,,,,,,,,,,bars/025.png,bars/mask006.png,,,,,,,,,,,,0,1,,,,,,,6,2,7,2,,,,,,,,,,,552.0911,552.5916,552.8419,553.426,space,0.5688,,553.4262,29,36,554.4256,554.4256,555.777,space,1.3355,,0,34,34,34,1,105,40,,,,,,,,
,,6172a1d4cffa5162140cc8c2,65af7587304b05200d920d16,2024-01-23_10h18.02.172,bars,2023.2.3,Win32,60.60606061,657b66ea316d21385b68909f,,,,,,,,,,,555.7783,556.777,,,557.2774,557.5271,,150,-30,,,,,,,,,,,,,,,,bars/035.png,bars/mask002.png,,,,,,,,,,,,1,1,,,,,,,4,4,4,4,,,,,,,,,,,556.777,557.2773,557.5272,561.0292,space,3.4854,,561.0294,25,90,562.0296,562.0297,564.9478,space,2.8746,,0,35,35,35,1,175,60,,,,,,,,
,,6172a1d4cffa5162140cc8c2,65af7587304b05200d920d16,2024-01-23_10h18.02.172,bars,2023.2.3,Win32,60.60606061,657b66ea316d21385b68909f,,,,,,,,,,,564.9489,565.9477,,,566.4479,566.6982,,158,-22,,,,,,,,,,,,,,,,bars/012.png,bars/mask009.png,,,,,,,,,,,,0,2,,,,,,,2,6,3,5,,,,,,,,,,,565.9477,566.4478,566.6983,569.1827,space,2.4705,,569.1828,68,37,570.1827,570.1828,571.1671,space,0.9367,,0,36,36,36,1,90,15,,,,,,,,
,,6172a1d4cffa5162140cc8c2,65af7587304b05200d920d16,2024-01-23_10h18.02.172,bars,2023.2.3,Win32,60.60606061,657b66ea316d21385b68909f,,,,,,,,,,,571.1685,572.1673,,,572.6678,572.9179,,133,133,,,,,,,,,,,,,,,,bars/026.png,bars/mask000.png,,,,,,,,,,,,0,2,,,,,,,4,8,4,7,,,,,,,,,,,572.1673,572.6676,572.918,574.7689,space,1.8348,,574.7691,82,48,575.7683,575.7683,576.7202,space,0.9253,,0,37,37,37,1,35,85,,,,,,,,
,,6172a1d4cffa5162140cc8c2,65af7587304b05200d920d16,2024-01-23_10h18.02.172,bars,2023.2.3,Win32,60.60606061,657b66ea316d21385b68909f,,,,,,,,,,,576.7212,577.7197,,,578.2201,578.4702,,134,134,,,,,,,,,,,,,,,,bars/033.png,bars/mask006.png,,,,,,,,,,,,3,2,,,,,,,6,10,7,10,,,,,,,,,,,577.7197,578.22,578.4703,582.4718,space,3.99,,582.472,71,21,583.4725,583.4726,584.4565,space,0.9416,,0,38,38,38,1,25,155,,,,,,,,
,,6172a1d4cffa5162140cc8c2,65af7587304b05200d920d16,2024-01-23_10h18.02.172,bars,2023.2.3,Win32,60.60606061,657b66ea316d21385b68909f,,,,,,,,,,,584.4577,585.4565,,,585.9567,586.2067,,147,-33,,,,,,,,,,,,,,,,bars/015.png,bars/mask005.png,,,,,,,,,,,,5,2,,,,,,,8,8,8,8,,,,,,,,,,,585.4565,585.9567,586.2068,590.2261,space,4.0061,,590.2263,37,13,591.226,591.2261,592.4933,space,1.2196,,0,39,39,39,1,110,160,,,,,,,,
,,6172a1d4cffa5162140cc8c2,65af7587304b05200d920d16,2024-01-23_10h18.02.172,bars,2023.2.3,Win32,60.60606061,657b66ea316d21385b68909f,,,,,,,,,,,592.4947,593.4935,,,593.994,594.244,,139,139,,,,,,,,,,,,,,,,bars/023.png,bars/mask006.png,,,,,,,,,,,,1,2,,,,,,,10,6,10,5,,,,,,,,,,,593.4936,593.994,594.2441,596.3118,space,2.0508,,596.312,61,24,597.3122,597.3123,598.1621,space,0.8059,,0,40,40,40,1,20,115,,,,,,,,
,,6172a1d4cffa5162140cc8c2,65af7587304b05200d920d16,2024-01-23_10h18.02.172,bars,2023.2.3,Win32,60.60606061,657b66ea316d21385b68909f,,,,,,,,,,,598.163,599.1629,,,599.6634,599.9135,,83,83,,,,,,,,,,,,,,,,bars/005.png,bars/mask003.png,,,,,,,,,,,,0,2,,,,,,,8,8,7,7,,,,,,,,,,,599.1629,599.6633,599.9136,602.9313,space,3.0029,,602.9314,73,57,603.9315,603.9317,605.1324,space,1.1516,,0,41,41,41,1,10,140,,,,,,,,
,,6172a1d4cffa5162140cc8c2,65af7587304b05200d920d16,2024-01-23_10h18.02.172,bars,2023.2.3,Win32,60.60606061,657b66ea316d21385b68909f,,,,,,,,,,,605.1339,606.1326,,,606.633,606.8831,,55,55,,,,,,,,,,,,,,,,bars/016.png,bars/mask002.png,,,,,,,,,,,,5,1,,,,,,,10,10,10,10,,,,,,,,,,,606.1326,606.6329,606.8832,610.1009,space,3.2025,,610.101,15,70,611.1009,611.101,619.0552,space,7.931,,0,42,42,42,1,40,165,,,,,,,,
,,6172a1d4cffa5162140cc8c2,65af7587304b05200d920d16,2024-01-23_10h18.02.172,bars,2023.2.3,Win32,60.60606061,657b66ea316d21385b68909f,,,,,,,,,,,619.0866,620.0559,,,620.5562,620.8058,,166,166,,,,,,,,,,,,,,,,bars/008.png,bars/mask005.png,,,,,,,,,,,,5,2,,,,,,,10,10,9,10,,,,,,,,,,,620.056,620.5561,620.8059,623.6744,space,2.8523,,623.6746,56,14,624.6745,624.6746,625.8921,space,1.1678,,0,43,43,43,1,110,0,,,,,,,,
,,6172a1d4cffa5162140cc8c2,65af7587304b05200d920d16,2024-01-23_10h18.02.172,bars,2023.2.3,Win32,60.60606061,657b66ea316d21385b68909f,,,,,,,,,,,625.8933,626.8922,,,627.3924,627.6425,,55,55,,,,,,,,,,,,,,,,bars/035.png,bars/mask000.png,,,,,,,,,,,,8,2,,,,,,,10,10,10,10,,,,,,,,,,,626.8923,627.3922,627.6425,629.9103,space,2.2596,,629.9105,60,5,630.9111,630.9112,632.2287,space,1.296,,0,44,44,44,1,175,60,,,,,,,,
,,6172a1d4cffa5162140cc8c2,65af7587304b05200d920d16,2024-01-23_10h18.02.172,bars,2023.2.3,Win32,60.60606061,657b66ea316d21385b68909f,,,,,,,,,,,632.2296,633.2284,,,633.7287,633.9788,,34,34,,,,,,,,,,,,,,,,bars/048.png,bars/mask006.png,,,,,,,,,,,,5,1,,,,,,,10,8,10,6,,,,,,,,,,,633.2285,633.7286,633.9789,636.7136,space,2.7215,,636.7137,16,39,637.7139,637.714,638.6644,space,0.9006,,0,45,45,45,1,50,175,,,,,,,,
,,6172a1d4cffa5162140cc8c2,65af7587304b05200d920d16,2024-01-23_10h18.02.172,bars,2023.2.3,Win32,60.60606061,657b66ea316d21385b68909f,,,,,,,,,,,638.6656,639.6648,,,640.1649,640.4152,,121,121,,,,,,,,,,,,,,,,bars/000.png,bars/mask001.png,,,,,,,,,,,,1,2,,,,,,,8,6,6,6,,,,,,,,,,,639.6649,640.1648,640.4153,642.7824,space,2.3581,,642.7824,81,24,643.7831,643.7832,645.6176,space,1.7853,,0,46,46,46,1,40,145,,,,,,,,
,,6172a1d4cffa5162140cc8c2,65af7587304b05200d920d16,2024-01-23_10h18.02.172,bars,2023.2.3,Win32,60.60606061,657b66ea316d21385b68909f,,,,,,,,,,,645.6189,646.6174,,,647.1183,647.3683,,134,134,,,,,,,,,,,,,,,,bars/005.png,bars/mask002.png,,,,,,,,,,,,3,2,,,,,,,10,4,10,4,,,,,,,,,,,646.6175,647.1183,647.3683,651.8041,space,4.4273,,651.8043,56,6,652.8032,652.8032,653.8379,space,1.0064,,0,47,47,47,1,10,140,,,,,,,,
,,6172a1d4cffa5162140cc8c2,65af7587304b05200d920d16,2024-01-23_10h18.02.172,bars,2023.2.3,Win32,60.60606061,657b66ea316d21385b68909f,,,,,,,,,,,653.8392,654.8382,,,655.3384,655.5888,,162,-18,,,,,,,,,,,,,,,,bars/003.png,bars/mask006.png,,,,,,,,,,,,1,2,,,,,,,8,2,7,2,,,,,,,,,,,654.8383,655.3384,655.5889,659.3904,space,3.7871,,659.3906,43,22,660.3908,660.3908,662.7105,space,2.2689,,0,48,48,48,1,25,140,,,,,,,,
,,6172a1d4cffa5162140cc8c2,65af7587304b05200d920d16,2024-01-23_10h18.02.172,bars,2023.2.3,Win32,60.60606061,657b66ea316d21385b68909f,,,,,,,,,,,662.7116,663.7133,,,664.2102,664.4638,,144,-36,,,,,,,,,,,,,,,,bars/024.png,bars/mask002.png,,,,,,,,,,,,2,1,,,,,,,10,0,10,0,,,,,,,,,,,663.7133,664.2099,664.464,667.3999,space,2.9191,,667.4,24,26,668.3949,668.3952,669.7111,space,1.27,,0,49,49,49,1,120,170,,,,,,,,
,,6172a1d4cffa5162140cc8c2,65af7587304b05200d920d16,2024-01-23_10h18.02.172,bars,2023.2.3,Win32,60.60606061,657b66ea316d21385b68909f,,,,,,,,,,,,,,,,,,,,,,,,,,,,,,,,,,,,,,,,,,,,,,,,,,,,,,,,,,,,,,,,,,,,,,,,,,,,,,,,,,,,,,,,,,,,,669.7126,729.7119,0,0,0,3,1,sequence_tables/blk002.csv
,,6172a1d4cffa5162140cc8c2,65af7587304b05200d920d16,2024-01-23_10h18.02.172,bars,2023.2.3,Win32,60.60606061,657b66ea316d21385b68909f,,,,,,,,,,,732.6899,733.6739,,,734.1742,734.4242,,43,43,,,,,,,,,,,,,,,,bars/010.png,bars/mask007.png,,,,,,,,,,,,6,2,,,,,,,9,9,7,10,,,,,,729.7403,732.6735,space,2.9259,,733.674,734.1741,734.4244,740.2774,space,5.8369,,740.2775,58,12,741.2773,741.2774,741.3087,,,,0,0,0,0,1,165,55,,,,,,,,
,,6172a1d4cffa5162140cc8c2,65af7587304b05200d920d16,2024-01-23_10h18.02.172,bars,2023.2.3,Win32,60.60606061,657b66ea316d21385b68909f,,,,,,,,,,,741.309,742.3107,,,742.8108,743.0612,,138,138,,,,,,,,,,,,,,,,bars/033.png,bars/mask007.png,,,,,,,,,,,,4,2,,,,,,,7,10,7,10,,,,,,,,,,,742.3109,742.8107,743.0612,745.5962,space,2.5213,,745.5963,67,17,746.5963,746.5964,746.6293,,,,0,1,1,1,1,25,155,,,,,,,,
,,6172a1d4cffa5162140cc8c2,65af7587304b05200d920d16,2024-01-23_10h18.02.172,bars,2023.2.3,Win32,60.60606061,657b66ea316d21385b68909f,,,,,,,,,,,746.6299,747.6304,,,748.1309,748.3808,,44,44,,,,,,,,,,,,,,,,bars/032.png,bars/mask006.png,,,,,,,,,,,,2,2,,,,,,,9,8,9,8,,,,,,,,,,,747.6305,748.1309,748.3809,750.9818,space,2.5858,,750.9821,81,24,751.9822,751.9822,752.0142,,,,0,2,2,2,1,125,20,,,,,,,,
,,6172a1d4cffa5162140cc8c2,65af7587304b05200d920d16,2024-01-23_10h18.02.172,bars,2023.2.3,Win32,60.60606061,657b66ea316d21385b68909f,,,,,,,,,,,752.015,753.0159,,,753.5162,753.7662,,154,154,,,,,,,,,,,,,,,,bars/035.png,bars/mask000.png,,,,,,,,,,,,2,1,,,,,,,10,6,8,7,,,,,,,,,,,753.0159,753.516,753.7663,756.9005,space,3.1182,,756.9006,21,86,757.9014,757.9014,757.9358,,,,0,3,3,3,1,175,60,,,,,,,,
,,6172a1d4cffa5162140cc8c2,65af7587304b05200d920d16,2024-01-23_10h18.02.172,bars,2023.2.3,Win32,60.60606061,657b66ea316d21385b68909f,,,,,,,,,,,757.9363,758.9348,,,759.4355,759.6853,,69,69,,,,,,,,,,,,,,,,bars/044.png,bars/mask003.png,,,,,,,,,,,,7,1,,,,,,,10,4,9,4,,,,,,,,,,,758.9348,759.4354,759.6854,762.3696,space,2.6671,,762.3697,6,86,763.3701,763.3701,763.3876,,,,0,4,4,4,1,75,155,,,,,,,,
,,6172a1d4cffa5162140cc8c2,65af7587304b05200d920d16,2024-01-23_10h18.02.172,bars,2023.2.3,Win32,60.60606061,657b66ea316d21385b68909f,,,,,,,,,,,763.3878,764.387,,,764.8873,765.1378,,133,133,,,,,,,,,,,,,,,,bars/041.png,bars/mask004.png,,,,,,,,,,,,0,2,,,,,,,8,2,8,3,,,,,,,,,,,764.387,764.8873,765.1378,767.6556,space,2.5079,,767.6556,67,48,768.6555,768.6555,768.6689,,,,0,5,5,5,1,20,85,,,,,,,,
,,6172a1d4cffa5162140cc8c2,65af7587304b05200d920d16,2024-01-23_10h18.02.172,bars,2023.2.3,Win32,60.60606061,657b66ea316d21385b68909f,,,,,,,,,,,768.6692,769.6728,,,770.1735,770.4233,,146,-34,,,,,,,,,,,,,,,,bars/011.png,bars/mask007.png,,,,,,,,,,,,3,1,,,,,,,6,4,6,4,,,,,,,,,,,769.6729,770.1735,770.4233,774.8752,space,4.4342,,774.8752,14,61,775.8755,775.8756,775.8872,,,,0,6,6,6,1,160,85,,,,,,,,
,,6172a1d4cffa5162140cc8c2,65af7587304b05200d920d16,2024-01-23_10h18.02.172,bars,2023.2.3,Win32,60.60606061,657b66ea316d21385b68909f,,,,,,,,,,,775.8873,776.8768,,,777.3767,777.6269,,119,119,,,,,,,,,,,,,,,,bars/048.png,bars/mask000.png,,,,,,,,,,,,0,2,,,,,,,8,6,9,6,,,,,,,,,,,776.8768,777.3767,777.6269,780.6279,space,2.9864,,780.628,69,56,781.6281,781.6281,781.6424,,,,0,7,7,7,1,50,175,,,,,,,,
,,6172a1d4cffa5162140cc8c2,65af7587304b05200d920d16,2024-01-23_10h18.02.172,bars,2023.2.3,Win32,60.60606061,657b66ea316d21385b68909f,,,,,,,,,,,781.6426,782.6458,,,783.1455,783.3955,,152,152,,,,,,,,,,,,,,,,bars/034.png,bars/mask005.png,,,,,,,,,,,,1,1,,,,,,,10,8,10,8,,,,,,,,,,,782.6459,783.1455,783.3956,785.6638,space,2.2605,,785.6639,27,87,786.6647,786.665,786.6761,,,,0,8,8,8,1,125,65,,,,,,,,
,,6172a1d4cffa5162140cc8c2,65af7587304b05200d920d16,2024-01-23_10h18.02.172,bars,2023.2.3,Win32,60.60606061,657b66ea316d21385b68909f,,,,,,,,,,,786.6763,787.6648,,,788.1653,788.4185,,53,53,,,,,,,,,,,,,,,,bars/007.png,bars/mask003.png,,,,,,,,,,,,9,2,,,,,,,8,10,6,10,,,,,,,,,,,787.665,788.1651,788.4185,792.9517,space,4.5102,,792.9518,58,2,793.9513,793.9514,793.9854,,,,0,9,9,9,1,175,55,,,,,,,,
,,6172a1d4cffa5162140cc8c2,65af7587304b05200d920d16,2024-01-23_10h18.02.172,bars,2023.2.3,Win32,60.60606061,657b66ea316d21385b68909f,,,,,,,,,,,793.9859,794.985,,,795.4853,795.7344,,46,46,,,,,,,,,,,,,,,,bars/019.png,bars/mask006.png,,,,,,,,,,,,10,1,,,,,,,10,10,10,10,,,,,,,,,,,794.985,795.4852,795.7345,798.3699,space,2.6289,,798.37,1,59,799.3703,799.3704,799.4039,,,,0,10,10,10,1,45,105,,,,,,,,
,,6172a1d4cffa5162140cc8c2,65af7587304b05200d920d16,2024-01-23_10h18.02.172,bars,2023.2.3,Win32,60.60606061,657b66ea316d21385b68909f,,,,,,,,,,,799.4045,800.404,,,800.9043,801.1549,,48,48,,,,,,,,,,,,,,,,bars/014.png,bars/mask002.png,,,,,,,,,,,,0,1,,,,,,,8,10,9,10,,,,,,,,,,,800.4041,800.9043,801.1549,803.9226,space,2.7538,,803.9228,32,48,804.9228,804.9228,804.9514,,,,0,11,11,11,1,80,0,,,,,,,,
,,6172a1d4cffa5162140cc8c2,65af7587304b05200d920d16,2024-01-23_10h18.02.172,bars,2023.2.3,Win32,60.60606061,657b66ea316d21385b68909f,,,,,,,,,,,804.9516,805.9406,,,806.4395,806.6906,,143,-37,,,,,,,,,,,,,,,,bars/046.png,bars/mask008.png,,,,,,,,,,,,5,1,,,,,,,10,8,8,7,,,,,,,,,,,805.9407,806.4395,806.6906,810.8257,space,4.1183,,810.8258,12,58,811.8253,811.8253,811.8375,,,,0,12,12,12,1,155,85,,,,,,,,
,,6172a1d4cffa5162140cc8c2,65af7587304b05200d920d16,2024-01-23_10h18.02.172,bars,2023.2.3,Win32,60.60606061,657b66ea316d21385b68909f,,,,,,,,,,,811.8377,812.8256,,,813.3271,813.577,,58,58,,,,,,,,,,,,,,,,bars/044.png,bars/mask000.png,,,,,,,,,,,,4,1,,,,,,,10,6,10,6,,,,,,,,,,,812.8256,813.3268,813.577,818.3291,space,4.7369,,818.3292,17,83,819.3287,819.3287,819.34,,,,0,13,13,13,1,75,155,,,,,,,,
,,6172a1d4cffa5162140cc8c2,65af7587304b05200d920d16,2024-01-23_10h18.02.172,bars,2023.2.3,Win32,60.60606061,657b66ea316d21385b68909f,,,,,,,,,,,819.3402,820.3296,,,820.8304,821.08,,128,128,,,,,,,,,,,,,,,,bars/009.png,bars/mask008.png,,,,,,,,,,,,1,2,,,,,,,8,4,9,4,,,,,,,,,,,820.3297,820.8303,821.0801,823.2813,space,2.188,,823.2814,67,23,824.2812,824.2813,824.308,,,,0,14,14,14,1,15,105,,,,,,,,
,,6172a1d4cffa5162140cc8c2,65af7587304b05200d920d16,2024-01-23_10h18.02.172,bars,2023.2.3,Win32,60.60606061,657b66ea316d21385b68909f,,,,,,,,,,,824.3082,825.2997,,,825.7993,826.0499,,92,92,,,,,,,,,,,,,,,,bars/001.png,bars/mask008.png,,,,,,,,,,,,2,2,,,,,,,10,2,10,2,,,,,,,,,,,825.2997,825.7991,826.0501,828.4226,space,2.352,,828.4227,38,7,829.4179,829.4181,829.4471,,,,0,15,15,15,1,130,85,,,,,,,,
,,6172a1d4cffa5162140cc8c2,65af7587304b05200d920d16,2024-01-23_10h18.02.172,bars,2023.2.3,Win32,60.60606061,657b66ea316d21385b68909f,,,,,,,,,,,829.4476,830.4511,,,830.9512,831.2008,,158,158,,,,,,,,,,,,,,,,bars/019.png,bars/mask005.png,,,,,,,,,,,,0,2,,,,,,,8,0,9,1,,,,,,,,,,,830.4512,830.9512,831.2008,833.7527,space,2.5375,,833.7528,67,53,834.7529,834.7531,834.7842,,,,0,16,16,16,1,45,105,,,,,,,,
,,6172a1d4cffa5162140cc8c2,65af7587304b05200d920d16,2024-01-23_10h18.02.172,bars,2023.2.3,Win32,60.60606061,657b66ea316d21385b68909f,,,,,,,,,,,834.785,835.7864,,,836.2869,836.5365,,34,34,,,,,,,,,,,,,,,,bars/031.png,bars/mask002.png,,,,,,,,,,,,0,2,,,,,,,10,0,10,0,,,,,,,,,,,835.7865,836.2869,836.5366,839.2388,space,2.6893,,839.2389,86,1,840.239,840.2391,840.2694,,,,0,17,17,17,1,120,35,,,,,,,,
,,6172a1d4cffa5162140cc8c2,65af7587304b05200d920d16,2024-01-23_10h18.02.172,bars,2023.2.3,Win32,60.60606061,657b66ea316d21385b68909f,,,,,,,,,,,840.2699,841.2726,,,841.7732,842.023,,57,57,,,,,,,,,,,,,,,,bars/048.png,bars/mask007.png,,,,,,,,,,,,8,1,,,,,,,10,2,10,4,,,,,,,,,,,841.2726,841.773,842.0231,844.7243,space,2.6918,,844.7245,7,62,845.7247,845.7248,845.7559,,,,0,18,18,18,1,50,175,,,,,,,,
,,6172a1d4cffa5162140cc8c2,65af7587304b05200d920d16,2024-01-23_10h18.02.172,bars,2023.2.3,Win32,60.60606061,657b66ea316d21385b68909f,,,,,,,,,,,845.7563,846.7587,,,847.258,847.5092,,145,145,,,,,,,,,,,,,,,,bars/021.png,bars/mask007.png,,,,,,,,,,,,5,1,,,,,,,8,4,8,4,,,,,,,,,,,846.7587,847.258,847.5094,850.2607,space,2.7364,,850.2608,10,75,851.2605,851.2605,851.2902,,,,0,19,19,19,1,155,70,,,,,,,,
,,6172a1d4cffa5162140cc8c2,65af7587304b05200d920d16,2024-01-23_10h18.02.172,bars,2023.2.3,Win32,60.60606061,657b66ea316d21385b68909f,,,,,,,,,,,851.2905,852.2943,,,852.7946,853.0447,,132,132,,,,,,,,,,,,,,,,bars/036.png,bars/mask008.png,,,,,,,,,,,,5,1,,,,,,,10,6,9,5,,,,,,,,,,,852.2944,852.7945,853.0448,857.1135,space,4.0535,,857.1137,13,68,858.1136,858.1136,858.1445,,,,0,20,20,20,1,145,20,,,,,,,,
,,6172a1d4cffa5162140cc8c2,65af7587304b05200d920d16,2024-01-23_10h18.02.172,bars,2023.2.3,Win32,60.60606061,657b66ea316d21385b68909f,,,,,,,,,,,858.145,859.1474,,,859.6484,859.8978,,60,60,,,,,,,,,,,,,,,,bars/004.png,bars/mask001.png,,,,,,,,,,,,0,1,,,,,,,8,4,9,4,,,,,,,,,,,859.1475,859.6482,859.8979,865.7175,space,5.8037,,865.7176,35,65,866.7177,866.7178,866.7509,,,,0,21,21,21,1,25,125,,,,,,,,
,,6172a1d4cffa5162140cc8c2,65af7587304b05200d920d16,2024-01-23_10h18.02.172,bars,2023.2.3,Win32,60.60606061,657b66ea316d21385b68909f,,,,,,,,,,,866.7515,867.751,,,868.2513,868.5015,,71,71,,,,,,,,,,,,,,,,bars/042.png,bars/mask002.png,,,,,,,,,,,,4,2,,,,,,,6,6,8,5,,,,,,,,,,,867.7511,868.2513,868.5015,870.8877,space,2.3784,,870.8878,74,4,871.8858,871.8859,871.8971,,,,0,22,22,22,1,145,75,,,,,,,,
,,6172a1d4cffa5162140cc8c2,65af7587304b05200d920d16,2024-01-23_10h18.02.172,bars,2023.2.3,Win32,60.60606061,657b66ea316d21385b68909f,,,,,,,,,,,871.8973,872.8868,,,873.3871,873.6375,,129,-51,,,,,,,,,,,,,,,,bars/040.png,bars/mask007.png,,,,,,,,,,,,5,1,,,,,,,8,4,8,2,,,,,,,,,,,872.8869,873.3871,873.6376,878.6566,space,5.0048,,878.6568,11,56,879.6565,879.6565,879.6888,,,,0,23,23,23,1,140,5,,,,,,,,
,,6172a1d4cffa5162140cc8c2,65af7587304b05200d920d16,2024-01-23_10h18.02.172,bars,2023.2.3,Win32,60.60606061,657b66ea316d21385b68909f,,,,,,,,,,,879.6893,880.6908,,,881.1911,881.4409,,148,-32,,,,,,,,,,,,,,,,bars/040.png,bars/mask003.png,,,,,,,,,,,,7,1,,,,,,,10,6,10,6,,,,,,,,,,,880.6908,881.191,881.441,886.4101,space,4.9553,,886.4102,8,37,887.4103,887.4104,887.4419,,,,0,24,24,24,1,140,5,,,,,,,,
,,6172a1d4cffa5162140cc8c2,65af7587304b05200d920d16,2024-01-23_10h18.02.172,bars,2023.2.3,Win32,60.60606061,657b66ea316d21385b68909f,,,,,,,,,,,887.4425,888.4441,,,888.9442,889.1944,,109,109,,,,,,,,,,,,,,,,bars/019.png,bars/mask006.png,,,,,,,,,,,,3,2,,,,,,,8,4,7,4,,,,,,,,,,,888.4441,888.9442,889.1945,893.0976,space,3.8943,,893.0976,64,4,894.0965,894.0966,894.1308,,,,0,25,25,25,1,45,105,,,,,,,,
,,6172a1d4cffa5162140cc8c2,65af7587304b05200d920d16,2024-01-23_10h18.02.172,bars,2023.2.3,Win32,60.60606061,657b66ea316d21385b68909f,,,,,,,,,,,894.1313,895.1307,,,895.6307,895.8805,,56,56,,,,,,,,,,,,,,,,bars/003.png,bars/mask003.png,,,,,,,,,,,,0,1,,,,,,,10,6,9,6,,,,,,,,,,,895.1308,895.6306,895.8806,898.7321,space,2.8408,,898.7323,31,84,899.7323,899.7324,899.7538,,,,0,26,26,26,1,25,140,,,,,,,,
,,6172a1d4cffa5162140cc8c2,65af7587304b05200d920d16,2024-01-23_10h18.02.172,bars,2023.2.3,Win32,60.60606061,657b66ea316d21385b68909f,,,,,,,,,,,899.7542,900.7489,,,901.2502,901.5003,,134,134,,,,,,,,,,,,,,,,bars/003.png,bars/mask008.png,,,,,,,,,,,,3,2,,,,,,,8,4,9,4,,,,,,,,,,,900.7489,901.2501,901.5004,904.7014,space,3.1875,,904.7015,71,6,905.701,905.7011,905.7141,,,,0,27,27,27,1,25,140,,,,,,,,
,,6172a1d4cffa5162140cc8c2,65af7587304b05200d920d16,2024-01-23_10h18.02.172,bars,2023.2.3,Win32,60.60606061,657b66ea316d21385b68909f,,,,,,,,,,,905.7144,906.7022,,,907.2021,907.4535,,165,165,,,,,,,,,,,,,,,,bars/022.png,bars/mask000.png,,,,,,,,,,,,0,2,,,,,,,6,6,6,6,,,,,,,,,,,906.7024,907.2019,907.4536,909.9602,space,2.4862,,909.9603,70,35,910.9556,910.9557,910.988,,,,0,28,28,28,1,95,20,,,,,,,,
,,6172a1d4cffa5162140cc8c2,65af7587304b05200d920d16,2024-01-23_10h18.02.172,bars,2023.2.3,Win32,60.60606061,657b66ea316d21385b68909f,,,,,,,,,,,910.9885,911.9882,,,912.4923,912.7461,,56,56,,,,,,,,,,,,,,,,bars/028.png,bars/mask003.png,,,,,,,,,,,,2,1,,,,,,,4,4,3,5,,,,,,,,,,,911.9883,912.4922,912.7461,918.3259,space,5.5601,,918.3261,11,64,919.3255,919.3258,919.3585,,,,0,29,29,29,1,45,120,,,,,,,,
,,6172a1d4cffa5162140cc8c2,65af7587304b05200d920d16,2024-01-23_10h18.02.172,bars,2023.2.3,Win32,60.60606061,657b66ea316d21385b68909f,,,,,,,,,,,919.359,920.3585,,,920.8589,921.1082,,130,130,,,,,,,,,,,,,,,,bars/037.png,bars/mask004.png,,,,,,,,,,,,0,1,,,,,,,2,2,1,2,,,,,,,,,,,920.3586,920.8588,921.1082,924.0439,space,2.9212,,924.044,20,25,925.0438,925.0438,925.0752,,,,0,30,30,30,1,150,105,,,,,,,,
,,6172a1d4cffa5162140cc8c2,65af7587304b05200d920d16,2024-01-23_10h18.02.172,bars,2023.2.3,Win32,60.60606061,657b66ea316d21385b68909f,,,,,,,,,,,925.0758,926.0778,,,926.5784,926.828,,115,115,,,,,,,,,,,,,,,,bars/033.png,bars/mask001.png,,,,,,,,,,,,0,2,,,,,,,4,4,4,3,,,,,,,,,,,926.0778,926.5783,926.8281,927.6786,space,0.8403,,927.6791,90,40,928.6786,928.6787,928.6824,,,,0,31,31,31,1,25,155,,,,,,,,
,,6172a1d4cffa5162140cc8c2,65af7587304b05200d920d16,2024-01-23_10h18.02.172,bars,2023.2.3,Win32,60.60606061,657b66ea316d21385b68909f,,,,,,,,,,,928.6826,929.6787,,,930.18,930.43,,65,65,,,,,,,,,,,,,,,,bars/048.png,bars/mask003.png,,,,,,,,,,,,1,1,,,,,,,2,2,2,1,,,,,,,,,,,929.6787,930.1799,930.43,933.6481,space,3.204,,933.6481,15,70,934.6485,934.6485,934.6822,,,,0,32,32,32,1,50,175,,,,,,,,
,,6172a1d4cffa5162140cc8c2,65af7587304b05200d920d16,2024-01-23_10h18.02.172,bars,2023.2.3,Win32,60.60606061,657b66ea316d21385b68909f,,,,,,,,,,,934.6828,935.6821,,,936.1821,936.4324,,136,136,,,,,,,,,,,,,,,,bars/013.png,bars/mask009.png,,,,,,,,,,,,0,2,,,,,,,4,4,4,4,,,,,,,,,,,935.6822,936.182,936.4324,939.5843,space,3.1368,,939.5844,61,54,940.5836,940.5836,940.5984,,,,0,33,33,33,1,75,10,,,,,,,,
,,6172a1d4cffa5162140cc8c2,65af7587304b05200d920d16,2024-01-23_10h18.02.172,bars,2023.2.3,Win32,60.60606061,657b66ea316d21385b68909f,,,,,,,,,,,940.5993,941.6013,,,942.1015,942.3519,,148,-32,,,,,,,,,,,,,,,,bars/038.png,bars/mask002.png,,,,,,,,,,,,2,1,,,,,,,6,6,5,4,,,,,,,,,,,941.6014,942.1015,942.352,946.2873,space,3.9232,,946.2875,17,78,947.2877,947.2878,947.3212,,,,0,34,34,34,1,165,70,,,,,,,,
,,6172a1d4cffa5162140cc8c2,65af7587304b05200d920d16,2024-01-23_10h18.02.172,bars,2023.2.3,Win32,60.60606061,657b66ea316d21385b68909f,,,,,,,,,,,947.3217,948.3211,,,948.8212,949.0711,,153,-27,,,,,,,,,,,,,,,,bars/047.png,bars/mask001.png,,,,,,,,,,,,0,1,,,,,,,4,4,5,3,,,,,,,,,,,948.3211,948.8212,949.0712,954.34,space,5.259,,954.34,42,83,955.3409,955.3409,955.3723,,,,0,35,35,35,1,15,70,,,,,,,,
,,6172a1d4cffa5162140cc8c2,65af7587304b05200d920d16,2024-01-23_10h18.02.172,bars,2023.2.3,Win32,60.60606061,657b66ea316d21385b68909f,,,,,,,,,,,955.3726,956.3751,,,956.8751,957.1252,,153,153,,,,,,,,,,,,,,,,bars/024.png,bars/mask001.png,,,,,,,,,,,,1,2,,,,,,,2,2,3,2,,,,,,,,,,,956.3752,956.8751,957.1253,959.3433,space,2.2045,,959.3435,33,17,960.3434,960.3435,960.3751,,,,0,36,36,36,1,120,170,,,,,,,,
,,6172a1d4cffa5162140cc8c2,65af7587304b05200d920d16,2024-01-23_10h18.02.172,bars,2023.2.3,Win32,60.60606061,657b66ea316d21385b68909f,,,,,,,,,,,960.3756,961.3772,,,961.8775,962.1277,,48,48,,,,,,,,,,,,,,,,bars/005.png,bars/mask005.png,,,,,,,,,,,,0,1,,,,,,,0,0,0,0,,,,,,,,,,,961.3773,961.8774,962.1277,965.0951,space,2.9511,,965.0953,38,88,966.0953,966.0953,966.1065,,,,0,37,37,37,1,10,140,,,,,,,,
,,6172a1d4cffa5162140cc8c2,65af7587304b05200d920d16,2024-01-23_10h18.02.172,bars,2023.2.3,Win32,60.60606061,657b66ea316d21385b68909f,,,,,,,,,,,966.1067,967.0962,,,967.5977,967.8476,,136,136,,,,,,,,,,,,,,,,bars/015.png,bars/mask003.png,,,,,,,,,,,,0,2,,,,,,,2,2,2,2,,,,,,,,,,,967.0963,967.5974,967.8478,970.4316,space,2.5545,,970.4322,26,24,971.4199,971.42,971.4427,,,,0,38,38,38,1,110,160,,,,,,,,
,,6172a1d4cffa5162140cc8c2,65af7587304b05200d920d16,2024-01-23_10h18.02.172,bars,2023.2.3,Win32,60.60606061,657b66ea316d21385b68909f,,,,,,,,,,,971.4431,972.4319,,,972.9322,973.1823,,93,93,,,,,,,,,,,,,,,,bars/013.png,bars/mask001.png,,,,,,,,,,,,2,1,,,,,,,4,4,6,5,,,,,,,,,,,972.432,972.9321,973.1824,973.7495,space,0.5571,,973.7497,18,83,974.7499,974.7499,974.7546,,,,0,39,39,39,1,75,10,,,,,,,,
,,6172a1d4cffa5162140cc8c2,65af7587304b05200d920d16,2024-01-23_10h18.02.172,bars,2023.2.3,Win32,60.60606061,657b66ea316d21385b68909f,,,,,,,,,,,974.7551,975.7495,,,976.2507,976.5006,,108,108,,,,,,,,,,,,,,,,bars/014.png,bars/mask000.png,,,,,,,,,,,,0,1,,,,,,,2,2,2,2,,,,,,,,,,,975.7496,976.2507,976.5006,979.6022,space,3.0869,,979.6024,28,72,980.6024,980.6025,980.6354,,,,0,40,40,40,1,80,0,,,,,,,,
,,6172a1d4cffa5162140cc8c2,65af7587304b05200d920d16,2024-01-23_10h18.02.172,bars,2023.2.3,Win32,60.60606061,657b66ea316d21385b68909f,,,,,,,,,,,980.6361,981.6363,,,982.1364,982.3868,,168,168,,,,,,,,,,,,,,,,bars/030.png,bars/mask005.png,,,,,,,,,,,,0,1,,,,,,,4,4,2,2,,,,,,,,,,,981.6364,982.1363,982.3868,991.2072,space,8.806,,991.2074,28,77,992.2077,992.2078,992.2402,,,,0,41,41,41,1,140,65,,,,,,,,
,,6172a1d4cffa5162140cc8c2,65af7587304b05200d920d16,2024-01-23_10h18.02.172,bars,2023.2.3,Win32,60.60606061,657b66ea316d21385b68909f,,,,,,,,,,,992.2409,993.2414,,,993.7418,993.9917,,110,110,,,,,,,,,,,,,,,,bars/013.png,bars/mask000.png,,,,,,,,,,,,0,1,,,,,,,2,6,1,7,,,,,,,,,,,993.2415,993.7417,993.9917,996.777,space,2.7697,,996.7772,35,80,997.7769,997.7771,997.8065,,,,0,42,42,42,1,75,10,,,,,,,,
,,6172a1d4cffa5162140cc8c2,65af7587304b05200d920d16,2024-01-23_10h18.02.172,bars,2023.2.3,Win32,60.60606061,657b66ea316d21385b68909f,,,,,,,,,,,997.8069,998.8104,,,999.3108,999.5604,,160,160,,,,,,,,,,,,,,,,bars/037.png,bars/mask008.png,,,,,,,,,,,,0,1,,,,,,,0,8,0,8,,,,,,,,,,,998.8104,999.3108,999.5604,1002.0623,space,2.4872,,1002.0625,10,55,1003.0626,1003.0626,1003.0945,,,,0,43,43,43,1,150,105,,,,,,,,
,,6172a1d4cffa5162140cc8c2,65af7587304b05200d920d16,2024-01-23_10h18.02.172,bars,2023.2.3,Win32,60.60606061,657b66ea316d21385b68909f,,,,,,,,,,,1003.095,1004.0962,,,1004.5969,1004.8469,,60,60,,,,,,,,,,,,,,,,bars/032.png,bars/mask000.png,,,,,,,,,,,,0,2,,,,,,,0,6,1,5,,,,,,,,,,,1004.0962,1004.5969,1004.8469,1007.9644,space,3.1006,,1007.9644,65,40,1008.9655,1008.9655,1009.0059,,,,0,44,44,44,1,125,20,,,,,,,,
,,6172a1d4cffa5162140cc8c2,65af7587304b05200d920d16,2024-01-23_10h18.02.172,bars,2023.2.3,Win32,60.60606061,657b66ea316d21385b68909f,,,,,,,,,,,1009.0064,1009.9993,,,1010.5041,1010.7507,,12,12,,,,,,,,,,,,,,,,bars/035.png,bars/mask003.png,,,,,,,,,,,,0,1,,,,,,,2,4,1,5,,,,,,,,,,,1009.9994,1010.504,1010.7509,1011.9565,space,1.1858,,1011.9565,17,48,1012.955,1012.955,1012.9597,,,,0,45,45,45,1,175,60,,,,,,,,
,,6172a1d4cffa5162140cc8c2,65af7587304b05200d920d16,2024-01-23_10h18.02.172,bars,2023.2.3,Win32,60.60606061,657b66ea316d21385b68909f,,,,,,,,,,,1012.9606,1013.9512,,,1014.4505,1014.7053,,177,177,,,,,,,,,,,,,,,,bars/035.png,bars/mask008.png,,,,,,,,,,,,3,1,,,,,,,4,2,3,3,,,,,,,,,,,1013.9514,1014.4504,1014.7055,1018.6704,space,3.9391,,1018.6705,2,63,1019.671,1019.6712,1019.7019,,,,0,46,46,46,1,175,60,,,,,,,,
,,6172a1d4cffa5162140cc8c2,65af7587304b05200d920d16,2024-01-23_10h18.02.172,bars,2023.2.3,Win32,60.60606061,657b66ea316d21385b68909f,,,,,,,,,,,1019.7025,1020.704,,,1021.2043,1021.4542,,151,151,,,,,,,,,,,,,,,,bars/028.png,bars/mask006.png,,,,,,,,,,,,0,2,,,,,,,6,4,7,4,,,,,,,,,,,1020.7041,1021.2043,1021.4543,1024.656,space,3.1862,,1024.6561,74,31,1025.6563,1025.6564,1025.6885,,,,0,47,47,47,1,45,120,,,,,,,,
,,6172a1d4cffa5162140cc8c2,65af7587304b05200d920d16,2024-01-23_10h18.02.172,bars,2023.2.3,Win32,60.60606061,657b66ea316d21385b68909f,,,,,,,,,,,1025.689,1026.6904,,,1027.1898,1027.4406,,148,148,,,,,,,,,,,,,,,,bars/029.png,bars/mask009.png,,,,,,,,,,,,0,1,,,,,,,4,2,4,2,,,,,,,,,,,1026.6904,1027.1898,1027.4407,1028.4419,space,0.9924,,1028.442,58,77,1029.4407,1029.4408,1029.4453,,,,0,48,48,48,1,90,45,,,,,,,,
,,6172a1d4cffa5162140cc8c2,65af7587304b05200d920d16,2024-01-23_10h18.02.172,bars,2023.2.3,Win32,60.60606061,657b66ea316d21385b68909f,,,,,,,,,,,1029.4459,1030.441,,,1030.942,1031.1919,,64,64,,,,,,,,,,,,,,,,bars/015.png,bars/mask008.png,,,,,,,,,,,,0,1,,,,,,,6,4,6,5,,,,,,,,,,,1030.4411,1030.9419,1031.1921,1033.3268,space,2.1195,,1033.327,46,84,1034.3264,1034.3265,1034.3488,,,,0,49,49,49,1,110,160,,,,,,,,
,,6172a1d4cffa5162140cc8c2,65af7587304b05200d920d16,2024-01-23_10h18.02.172,bars,2023.2.3,Win32,60.60606061,657b66ea316d21385b68909f,,,,,,,,,,,,,,,,,,,,,,,,,,,,,,,,,,,,,,,,,,,,,,,,,,,,,,,,,,,,,,,,,,,,,,,,,,,,,,,,,,,,,,,,,,,,,1034.3488,1094.3371,0,1,1,1,1,sequence_tables/blk048.csv
,,6172a1d4cffa5162140cc8c2,65af7587304b05200d920d16,2024-01-23_10h18.02.172,bars,2023.2.3,Win32,60.60606061,657b66ea316d21385b68909f,,,,,,,,,,,1101.8701,1102.8409,,,1103.3415,1103.5915,,176,-4,,,,,,,,,,,,,,,,bars/000.png,bars/mask009.png,,,,,,,,,,,,0,2,,,,,,,5,5,4,5,,,,,,1094.3502,1101.8307,space,7.4749,,1102.8411,1103.3414,1103.5916,1106.9769,space,3.3695,,1106.977,44,31,1107.977,1107.9771,1108.012,,,,0,0,0,0,1,40,145,,,,,,,,
,,6172a1d4cffa5162140cc8c2,65af7587304b05200d920d16,2024-01-23_10h18.02.172,bars,2023.2.3,Win32,60.60606061,657b66ea316d21385b68909f,,,,,,,,,,,1108.0124,1109.0109,,,1109.5108,1109.7606,,163,163,,,,,,,,,,,,,,,,bars/043.png,bars/mask007.png,,,,,,,,,,,,0,2,,,,,,,3,3,2,2,,,,,,,,,,,1109.0111,1109.5107,1109.7606,1113.9626,space,4.1918,,1113.9629,47,33,1114.9635,1114.9635,1114.9937,,,,0,1,1,1,1,30,130,,,,,,,,
,,6172a1d4cffa5162140cc8c2,65af7587304b05200d920d16,2024-01-23_10h18.02.172,bars,2023.2.3,Win32,60.60606061,657b66ea316d21385b68909f,,,,,,,,,,,1114.9939,1115.9973,,,1116.4977,1116.7478,,146,146,,,,,,,,,,,,,,,,bars/003.png,bars/mask008.png,,,,,,,,,,,,1,2,,,,,,,5,1,6,1,,,,,,,,,,,1115.9974,1116.4976,1116.7478,1118.1482,space,1.3905,,1118.1483,59,6,1119.1487,1119.1487,1119.1508,,,,0,2,2,2,1,25,140,,,,,,,,
,,6172a1d4cffa5162140cc8c2,65af7587304b05200d920d16,2024-01-23_10h18.02.172,bars,2023.2.3,Win32,60.60606061,657b66ea316d21385b68909f,,,,,,,,,,,1119.1518,1120.1489,,,1120.6495,1120.8995,,162,162,,,,,,,,,,,,,,,,bars/023.png,bars/mask004.png,,,,,,,,,,,,0,1,,,,,,,3,3,5,4,,,,,,,,,,,1120.149,1120.6495,1120.8996,1124.9015,space,3.986,,1124.9016,38,47,1125.9015,1125.9016,1125.9349,,,,0,3,3,3,1,20,115,,,,,,,,
,,6172a1d4cffa5162140cc8c2,65af7587304b05200d920d16,2024-01-23_10h18.02.172,bars,2023.2.3,Win32,60.60606061,657b66ea316d21385b68909f,,,,,,,,,,,1125.9353,1126.9352,,,1127.4358,1127.6856,,32,32,,,,,,,,,,,,,,,,bars/040.png,bars/mask008.png,,,,,,,,,,,,0,2,,,,,,,1,5,1,5,,,,,,,,,,,1126.9352,1127.4358,1127.6858,1130.3875,space,2.6868,,1130.3876,72,27,1131.3877,1131.3877,1131.4256,,,,0,4,4,4,1,140,5,,,,,,,,
,,6172a1d4cffa5162140cc8c2,65af7587304b05200d920d16,2024-01-23_10h18.02.172,bars,2023.2.3,Win32,60.60606061,657b66ea316d21385b68909f,,,,,,,,,,,1131.4264,1132.4214,,,1132.9098,1133.1556,,115,115,,,,,,,,,,,,,,,,bars/007.png,bars/mask001.png,,,,,,,,,,,,0,2,,,,,,,0,3,0,2,,,,,,,,,,,1132.4216,1132.9097,1133.1558,1136.1253,space,2.9484,,1136.1254,60,60,1137.124,1137.1241,1137.1569,,,,0,5,5,5,1,175,55,,,,,,,,
,,6172a1d4cffa5162140cc8c2,65af7587304b05200d920d16,2024-01-23_10h18.02.172,bars,2023.2.3,Win32,60.60606061,657b66ea316d21385b68909f,,,,,,,,,,,1137.1572,1138.1574,,,1138.6569,1138.9076,,66,66,,,,,,,,,,,,,,,,bars/013.png,bars/mask003.png,,,,,,,,,,,,2,1,,,,,,,2,1,3,1,,,,,,,,,,,1138.1574,1138.6568,1138.9078,1141.7931,space,2.8767,,1141.7932,9,56,1142.7926,1142.7926,1142.8266,,,,0,6,6,6,1,75,10,,,,,,,,
,,6172a1d4cffa5162140cc8c2,65af7587304b05200d920d16,2024-01-23_10h18.02.172,bars,2023.2.3,Win32,60.60606061,657b66ea316d21385b68909f,,,,,,,,,,,1142.8272,1143.8263,,,1144.327,1144.5771,,37,37,,,,,,,,,,,,,,,,bars/008.png,bars/mask001.png,,,,,,,,,,,,0,2,,,,,,,4,3,5,3,,,,,,,,,,,1143.8264,1144.3269,1144.5772,1147.6951,space,3.1073,,1147.6953,73,37,1148.6952,1148.6953,1148.7294,,,,0,7,7,7,1,110,0,,,,,,,,
,,6172a1d4cffa5162140cc8c2,65af7587304b05200d920d16,2024-01-23_10h18.02.172,bars,2023.2.3,Win32,60.60606061,657b66ea316d21385b68909f,,,,,,,,,,,1148.73,1149.7294,,,1150.2295,1150.4792,,72,72,,,,,,,,,,,,,,,,bars/012.png,bars/mask003.png,,,,,,,,,,,,0,1,,,,,,,2,5,1,6,,,,,,,,,,,1149.7295,1150.2294,1150.4793,1153.2474,space,2.7557,,1153.2474,18,57,1154.2476,1154.2476,1154.2813,,,,0,8,8,8,1,90,15,,,,,,,,
,,6172a1d4cffa5162140cc8c2,65af7587304b05200d920d16,2024-01-23_10h18.02.172,bars,2023.2.3,Win32,60.60606061,657b66ea316d21385b68909f,,,,,,,,,,,1154.2819,1155.2824,,,1155.783,1156.0331,,30,30,,,,,,,,,,,,,,,,bars/001.png,bars/mask008.png,,,,,,,,,,,,0,2,,,,,,,4,3,4,4,,,,,,,,,,,1155.2825,1155.7822,1156.0331,1158.5008,space,2.4418,,1158.5008,80,55,1159.5041,1159.5042,1159.5407,,,,0,9,9,9,1,130,85,,,,,,,,
,,6172a1d4cffa5162140cc8c2,65af7587304b05200d920d16,2024-01-23_10h18.02.172,bars,2023.2.3,Win32,60.60606061,657b66ea316d21385b68909f,,,,,,,,,,,1159.5414,1160.5341,,,1161.0344,1161.2846,,178,178,,,,,,,,,,,,,,,,bars/039.png,bars/mask000.png,,,,,,,,,,,,3,1,,,,,,,2,5,3,5,,,,,,,,,,,1160.5342,1161.0344,1161.2846,1162.5855,space,1.2858,,1162.5857,3,73,1163.5857,1163.5858,1163.5914,,,,0,10,10,10,1,175,105,,,,,,,,
,,6172a1d4cffa5162140cc8c2,65af7587304b05200d920d16,2024-01-23_10h18.02.172,bars,2023.2.3,Win32,60.60606061,657b66ea316d21385b68909f,,,,,,,,,,,1163.5921,1164.5859,,,1165.0865,1165.3364,,159,159,,,,,,,,,,,,,,,,bars/025.png,bars/mask002.png,,,,,,,,,,,,0,1,,,,,,,0,7,0,6,,,,,,,,,,,1164.586,1165.0865,1165.3364,1167.9709,space,2.6238,,1167.971,54,61,1168.9711,1168.9711,1169.0023,,,,0,11,11,11,1,105,40,,,,,,,,
,,6172a1d4cffa5162140cc8c2,65af7587304b05200d920d16,2024-01-23_10h18.02.172,bars,2023.2.3,Win32,60.60606061,657b66ea316d21385b68909f,,,,,,,,,,,1169.0028,1170.0051,,,1170.5055,1170.7553,,173,-7,,,,,,,,,,,,,,,,bars/035.png,bars/mask008.png,,,,,,,,,,,,0,1,,,,,,,0,9,0,8,,,,,,,,,,,1170.0052,1170.5054,1170.7554,1173.4569,space,2.691,,1173.4571,2,67,1174.4575,1174.4575,1174.4595,,,,0,12,12,12,1,175,60,,,,,,,,
,,6172a1d4cffa5162140cc8c2,65af7587304b05200d920d16,2024-01-23_10h18.02.172,bars,2023.2.3,Win32,60.60606061,657b66ea316d21385b68909f,,,,,,,,,,,1174.4607,1175.4579,,,1175.9576,1176.2072,,107,107,,,,,,,,,,,,,,,,bars/019.png,bars/mask000.png,,,,,,,,,,,,7,2,,,,,,,2,7,3,7,,,,,,,,,,,1175.4579,1175.9576,1176.2072,1180.4763,space,4.2596,,1180.4767,62,2,1181.4776,1181.4785,1181.5047,,,,0,13,13,13,1,45,105,,,,,,,,
,,6172a1d4cffa5162140cc8c2,65af7587304b05200d920d16,2024-01-23_10h18.02.172,bars,2023.2.3,Win32,60.60606061,657b66ea316d21385b68909f,,,,,,,,,,,1181.5051,1182.4941,,,1182.9946,1183.2447,,139,139,,,,,,,,,,,,,,,,bars/035.png,bars/mask006.png,,,,,,,,,,,,0,1,,,,,,,0,9,0,10,,,,,,,,,,,1182.4942,1182.9943,1183.2448,1187.1814,space,3.9239,,1187.1815,36,79,1188.1845,1188.1846,1188.2174,,,,0,14,14,14,1,175,60,,,,,,,,
,,6172a1d4cffa5162140cc8c2,65af7587304b05200d920d16,2024-01-23_10h18.02.172,bars,2023.2.3,Win32,60.60606061,657b66ea316d21385b68909f,,,,,,,,,,,1188.218,1189.2137,,,1189.7141,1189.9642,,140,140,,,,,,,,,,,,,,,,bars/026.png,bars/mask008.png,,,,,,,,,,,,0,2,,,,,,,0,7,1,7,,,,,,,,,,,1189.2137,1189.714,1189.9643,1193.1863,space,3.2136,,1193.1864,75,55,1194.1827,1194.1829,1194.21,,,,0,15,15,15,1,35,85,,,,,,,,
,,6172a1d4cffa5162140cc8c2,65af7587304b05200d920d16,2024-01-23_10h18.02.172,bars,2023.2.3,Win32,60.60606061,657b66ea316d21385b68909f,,,,,,,,,,,1194.2103,1195.201,,,1195.7047,1195.9511,,144,144,,,,,,,,,,,,,,,,bars/035.png,bars/mask006.png,,,,,,,,,,,,0,1,,,,,,,0,9,2,6,,,,,,,,,,,1195.2011,1195.7047,1195.9513,1201.0084,space,5.0365,,1201.0085,31,84,1202.0032,1202.0034,1202.0248,,,,0,16,16,16,1,175,60,,,,,,,,
,,6172a1d4cffa5162140cc8c2,65af7587304b05200d920d16,2024-01-23_10h18.02.172,bars,2023.2.3,Win32,60.60606061,657b66ea316d21385b68909f,,,,,,,,,,,1202.0251,1203.0199,,,1203.5081,1203.7561,,76,76,,,,,,,,,,,,,,,,bars/024.png,bars/mask006.png,,,,,,,,,,,,0,1,,,,,,,2,7,2,7,,,,,,,,,,,1203.0201,1203.508,1203.7561,1206.709,space,2.9353,,1206.7091,44,86,1207.705,1207.7052,1207.7161,,,,0,17,17,17,1,120,170,,,,,,,,
,,6172a1d4cffa5162140cc8c2,65af7587304b05200d920d16,2024-01-23_10h18.02.172,bars,2023.2.3,Win32,60.60606061,657b66ea316d21385b68909f,,,,,,,,,,,1207.7163,1208.7063,,,1209.207,1209.4564,,90,90,,,,,,,,,,,,,,,,bars/026.png,bars/mask004.png,,,,,,,,,,,,3,2,,,,,,,0,5,0,4,,,,,,,,,,,1208.7065,1209.2068,1209.4565,1213.481,space,4.0037,,1213.4811,55,5,1214.4765,1214.4767,1214.5103,,,,0,18,18,18,1,35,85,,,,,,,,
,,6172a1d4cffa5162140cc8c2,65af7587304b05200d920d16,2024-01-23_10h18.02.172,bars,2023.2.3,Win32,60.60606061,657b66ea316d21385b68909f,,,,,,,,,,,1214.5109,1215.5082,,,1216.0085,1216.2588,,6,6,,,,,,,,,,,,,,,,bars/047.png,bars/mask002.png,,,,,,,,,,,,1,1,,,,,,,2,7,1,8,,,,,,,,,,,1215.5082,1216.0084,1216.2589,1220.2444,space,3.9719,,1220.2446,9,64,1221.2447,1221.2448,1221.3098,,,,0,19,19,19,1,15,70,,,,,,,,
,,6172a1d4cffa5162140cc8c2,65af7587304b05200d920d16,2024-01-23_10h18.02.172,bars,2023.2.3,Win32,60.60606061,657b66ea316d21385b68909f,,,,,,,,,,,1221.3662,1222.3159,,,1222.813,1223.0617,,147,147,,,,,,,,,,,,,,,,bars/038.png,bars/mask004.png,,,,,,,,,,,,0,1,,,,,,,0,5,0,5,,,,,,,,,,,1222.316,1222.8128,1223.0619,1225.368,space,2.2849,,1225.368,18,77,1226.3644,1226.3647,1226.3667,,,,0,20,20,20,1,165,70,,,,,,,,
,,6172a1d4cffa5162140cc8c2,65af7587304b05200d920d16,2024-01-23_10h18.02.172,bars,2023.2.3,Win32,60.60606061,657b66ea316d21385b68909f,,,,,,,,,,,1226.3672,1227.3644,,,1227.8692,1228.1152,,170,-10,,,,,,,,,,,,,,,,bars/002.png,bars/mask009.png,,,,,,,,,,,,0,1,,,,,,,2,3,2,4,,,,,,,,,,,1227.3646,1227.8692,1228.1155,1231.3386,space,3.2028,,1231.3386,40,85,1232.333,1232.3332,1232.3456,,,,0,21,21,21,1,130,85,,,,,,,,
,,6172a1d4cffa5162140cc8c2,65af7587304b05200d920d16,2024-01-23_10h18.02.172,bars,2023.2.3,Win32,60.60606061,657b66ea316d21385b68909f,,,,,,,,,,,1232.3459,1233.3342,,,1233.8338,1234.0864,,152,-28,,,,,,,,,,,,,,,,bars/026.png,bars/mask009.png,,,,,,,,,,,,0,1,,,,,,,4,5,3,4,,,,,,,,,,,1233.3343,1233.8336,1234.0865,1237.8877,space,3.7733,,1237.8879,63,67,1238.8866,1238.8869,1238.9191,,,,0,22,22,22,1,35,85,,,,,,,,
,,6172a1d4cffa5162140cc8c2,65af7587304b05200d920d16,2024-01-23_10h18.02.172,bars,2023.2.3,Win32,60.60606061,657b66ea316d21385b68909f,,,,,,,,,,,1238.9196,1239.92,,,1240.4201,1240.6706,,139,139,,,,,,,,,,,,,,,,bars/024.png,bars/mask001.png,,,,,,,,,,,,2,1,,,,,,,6,3,5,2,,,,,,,,,,,1239.9201,1240.4201,1240.6707,1243.2718,space,2.5852,,1243.272,19,31,1244.2719,1244.272,1244.3033,,,,0,23,23,23,1,120,170,,,,,,,,
,,6172a1d4cffa5162140cc8c2,65af7587304b05200d920d16,2024-01-23_10h18.02.172,bars,2023.2.3,Win32,60.60606061,657b66ea316d21385b68909f,,,,,,,,,,,1244.3038,1245.306,,,1245.8062,1246.0553,,118,118,,,,,,,,,,,,,,,,bars/037.png,bars/mask009.png,,,,,,,,,,,,2,2,,,,,,,4,1,4,3,,,,,,,,,,,1245.306,1245.8062,1246.0554,1250.375,space,4.3069,,1250.3751,32,13,1251.3755,1251.3756,1251.4092,,,,0,24,24,24,1,150,105,,,,,,,,
,,6172a1d4cffa5162140cc8c2,65af7587304b05200d920d16,2024-01-23_10h18.02.172,bars,2023.2.3,Win32,60.60606061,657b66ea316d21385b68909f,,,,,,,,,,,1251.4098,1252.4092,,,1252.9094,1253.1588,,135,135,,,,,,,,,,,,,,,,bars/036.png,bars/mask000.png,,,,,,,,,,,,1,1,,,,,,,2,0,1,0,,,,,,,,,,,1252.4092,1252.9093,1253.1589,1255.8443,space,2.6796,,1255.8444,10,65,1256.8442,1256.8443,1256.879,,,,0,25,25,25,1,145,20,,,,,,,,
,,6172a1d4cffa5162140cc8c2,65af7587304b05200d920d16,2024-01-23_10h18.02.172,bars,2023.2.3,Win32,60.60606061,657b66ea316d21385b68909f,,,,,,,,,,,1256.8795,1257.8779,,,1258.3785,1258.6287,,41,41,,,,,,,,,,,,,,,,bars/028.png,bars/mask004.png,,,,,,,,,,,,1,1,,,,,,,0,0,1,1,,,,,,,,,,,1257.8779,1258.3784,1258.6287,1264.6983,space,6.0533,,1264.6984,4,79,1265.6986,1265.6987,1265.7324,,,,0,26,26,26,1,45,120,,,,,,,,
,,6172a1d4cffa5162140cc8c2,65af7587304b05200d920d16,2024-01-23_10h18.02.172,bars,2023.2.3,Win32,60.60606061,657b66ea316d21385b68909f,,,,,,,,,,,1265.733,1266.732,,,1267.2324,1267.4826,,62,62,,,,,,,,,,,,,,,,bars/028.png,bars/mask009.png,,,,,,,,,,,,0,1,,,,,,,0,0,1,0,,,,,,,,,,,1266.7321,1267.2324,1267.4826,1272.4517,space,4.9537,,1272.452,17,58,1273.4512,1273.4512,1273.4643,,,,0,27,27,27,1,45,120,,,,,,,,
,,6172a1d4cffa5162140cc8c2,65af7587304b05200d920d16,2024-01-23_10h18.02.172,bars,2023.2.3,Win32,60.60606061,657b66ea316d21385b68909f,,,,,,,,,,,1273.4645,1274.4683,,,1274.9692,1275.2196,,7,187,,,,,,,,,,,,,,,,bars/016.png,bars/mask001.png,,,,,,,,,,,,0,2,,,,,,,0,0,0,0,,,,,,,,,,,1274.4683,1274.9692,1275.2196,1278.7044,space,3.4678,,1278.7046,33,22,1279.7049,1279.705,1279.7313,,,,0,28,28,28,1,40,165,,,,,,,,
,,6172a1d4cffa5162140cc8c2,65af7587304b05200d920d16,2024-01-23_10h18.02.172,bars,2023.2.3,Win32,60.60606061,657b66ea316d21385b68909f,,,,,,,,,,,1279.7316,1280.7222,,,1281.223,1281.4753,,120,120,,,,,,,,,,,,,,,,bars/032.png,bars/mask001.png,,,,,,,,,,,,0,1,,,,,,,0,2,0,2,,,,,,,,,,,1280.7224,1281.2226,1281.4753,1284.2418,space,2.7436,,1284.242,5,80,1285.2415,1285.2417,1285.2701,,,,0,29,29,29,1,125,20,,,,,,,,
,,6172a1d4cffa5162140cc8c2,65af7587304b05200d920d16,2024-01-23_10h18.02.172,bars,2023.2.3,Win32,60.60606061,657b66ea316d21385b68909f,,,,,,,,,,,1285.2705,1286.2737,,,1286.7745,1287.0246,,129,129,,,,,,,,,,,,,,,,bars/043.png,bars/mask005.png,,,,,,,,,,,,3,2,,,,,,,2,4,3,3,,,,,,,,,,,1286.2737,1286.7744,1287.0246,1289.9766,space,2.937,,1289.9766,81,1,1290.9766,1290.9767,1291.0068,,,,0,30,30,30,1,30,130,,,,,,,,
,,6172a1d4cffa5162140cc8c2,65af7587304b05200d920d16,2024-01-23_10h18.02.172,bars,2023.2.3,Win32,60.60606061,657b66ea316d21385b68909f,,,,,,,,,,,1291.0071,1292.0105,,,1292.5109,1292.7601,,17,17,,,,,,,,,,,,,,,,bars/012.png,bars/mask002.png,,,,,,,,,,,,2,2,,,,,,,4,2,4,2,,,,,,,,,,,1292.0106,1292.5108,1292.7602,1294.3616,space,1.5921,,1294.3618,73,2,1295.3617,1295.3618,1295.394,,,,0,31,31,31,1,90,15,,,,,,,,
,,6172a1d4cffa5162140cc8c2,65af7587304b05200d920d16,2024-01-23_10h18.02.172,bars,2023.2.3,Win32,60.60606061,657b66ea316d21385b68909f,,,,,,,,,,,1295.3947,1296.3957,,,1296.8962,1297.1461,,131,131,,,,,,,,,,,,,,,,bars/031.png,bars/mask001.png,,,,,,,,,,,,4,1,,,,,,,6,4,6,4,,,,,,,,,,,1296.3958,1296.896,1297.1461,1299.0139,space,1.8502,,1299.0141,11,84,1300.0139,1300.014,1300.0196,,,,0,32,32,32,1,120,35,,,,,,,,
,,6172a1d4cffa5162140cc8c2,65af7587304b05200d920d16,2024-01-23_10h18.02.172,bars,2023.2.3,Win32,60.60606061,657b66ea316d21385b68909f,,,,,,,,,,,1300.0204,1301.0146,,,1301.5148,1301.765,,49,49,,,,,,,,,,,,,,,,bars/002.png,bars/mask004.png,,,,,,,,,,,,0,2,,,,,,,8,6,7,5,,,,,,,,,,,1301.0147,1301.5147,1301.7651,1303.7492,space,1.9735,,1303.7493,81,36,1304.7497,1304.7498,1304.7554,,,,0,33,33,33,1,130,85,,,,,,,,
,,6172a1d4cffa5162140cc8c2,65af7587304b05200d920d16,2024-01-23_10h18.02.172,bars,2023.2.3,Win32,60.60606061,657b66ea316d21385b68909f,,,,,,,,,,,1304.7561,1305.7498,,,1306.2505,1306.5003,,123,123,,,,,,,,,,,,,,,,bars/029.png,bars/mask002.png,,,,,,,,,,,,0,1,,,,,,,6,4,6,5,,,,,,,,,,,1305.75,1306.2505,1306.5004,1307.2343,space,0.7185,,1307.2346,33,78,1308.2341,1308.2342,1308.2396,,,,0,34,34,34,1,90,45,,,,,,,,
,,6172a1d4cffa5162140cc8c2,65af7587304b05200d920d16,2024-01-23_10h18.02.172,bars,2023.2.3,Win32,60.60606061,657b66ea316d21385b68909f,,,,,,,,,,,1308.2404,1309.235,,,1309.7352,1309.9853,,79,79,,,,,,,,,,,,,,,,bars/007.png,bars/mask006.png,,,,,,,,,,,,1,2,,,,,,,8,2,7,3,,,,,,,,,,,1309.2351,1309.7351,1309.9853,1312.3865,space,2.3907,,1312.3867,84,24,1313.3867,1313.3867,1313.4181,,,,0,35,35,35,1,175,55,,,,,,,,
,,6172a1d4cffa5162140cc8c2,65af7587304b05200d920d16,2024-01-23_10h18.02.172,bars,2023.2.3,Win32,60.60606061,657b66ea316d21385b68909f,,,,,,,,,,,1313.4185,1314.4205,,,1314.9209,1315.1702,,163,-17,,,,,,,,,,,,,,,,bars/005.png,bars/mask007.png,,,,,,,,,,,,0,2,,,,,,,6,0,7,0,,,,,,,,,,,1314.4205,1314.9208,1315.1702,1316.0381,space,0.8553,,1316.0382,27,23,1317.0379,1317.038,1317.0393,,,,0,36,36,36,1,10,140,,,,,,,,
,,6172a1d4cffa5162140cc8c2,65af7587304b05200d920d16,2024-01-23_10h18.02.172,bars,2023.2.3,Win32,60.60606061,657b66ea316d21385b68909f,,,,,,,,,,,1317.0404,1318.0384,,,1318.5393,1318.7893,,131,131,,,,,,,,,,,,,,,,bars/029.png,bars/mask009.png,,,,,,,,,,,,0,1,,,,,,,4,2,3,1,,,,,,,,,,,1318.0384,1318.5392,1318.7894,1321.0903,space,2.2841,,1321.0903,41,86,1322.0903,1322.0903,1322.1129,,,,0,37,37,37,1,90,45,,,,,,,,
,,6172a1d4cffa5162140cc8c2,65af7587304b05200d920d16,2024-01-23_10h18.02.172,bars,2023.2.3,Win32,60.60606061,657b66ea316d21385b68909f,,,,,,,,,,,1322.1132,1323.1075,,,1323.6073,1323.858,,13,13,,,,,,,,,,,,,,,,bars/024.png,bars/mask008.png,,,,,,,,,,,,1,2,,,,,,,2,4,1,4,,,,,,,,,,,1323.1075,1323.6072,1323.8582,1324.5589,space,0.6845,,1324.5589,73,23,1325.5589,1325.559,1325.5652,,,,0,38,38,38,1,120,170,,,,,,,,
,,6172a1d4cffa5162140cc8c2,65af7587304b05200d920d16,2024-01-23_10h18.02.172,bars,2023.2.3,Win32,60.60606061,657b66ea316d21385b68909f,,,,,,,,,,,1325.5657,1326.5594,,,1327.0599,1327.3101,,111,111,,,,,,,,,,,,,,,,bars/020.png,bars/mask003.png,,,,,,,,,,,,3,1,,,,,,,4,6,4,6,,,,,,,,,,,1326.5595,1327.0598,1327.3101,1328.9099,space,1.5852,,1328.91,4,59,1329.9109,1329.911,1329.9165,,,,0,39,39,39,1,115,170,,,,,,,,
,,6172a1d4cffa5162140cc8c2,65af7587304b05200d920d16,2024-01-23_10h18.02.172,bars,2023.2.3,Win32,60.60606061,657b66ea316d21385b68909f,,,,,,,,,,,1329.9172,1330.9111,,,1331.4115,1331.6614,,102,102,,,,,,,,,,,,,,,,bars/043.png,bars/mask003.png,,,,,,,,,,,,0,2,,,,,,,2,4,2,2,,,,,,,,,,,1330.9111,1331.4115,1331.6615,1333.1624,space,1.4856,,1333.1626,72,28,1334.1627,1334.1628,1334.168,,,,0,40,40,40,1,30,130,,,,,,,,
,,6172a1d4cffa5162140cc8c2,65af7587304b05200d920d16,2024-01-23_10h18.02.172,bars,2023.2.3,Win32,60.60606061,657b66ea316d21385b68909f,,,,,,,,,,,1334.1687,1335.1632,,,1335.6639,1335.9135,,42,42,,,,,,,,,,,,,,,,bars/016.png,bars/mask003.png,,,,,,,,,,,,7,1,,,,,,,4,2,7,2,,,,,,,,,,,1335.1633,1335.6638,1335.9136,1337.6138,space,1.6827,,1337.6139,2,57,1338.6141,1338.6141,1338.618,,,,0,41,41,41,1,40,165,,,,,,,,
,,6172a1d4cffa5162140cc8c2,65af7587304b05200d920d16,2024-01-23_10h18.02.172,bars,2023.2.3,Win32,60.60606061,657b66ea316d21385b68909f,,,,,,,,,,,1338.6183,1339.6154,,,1340.1157,1340.3648,,7,7,,,,,,,,,,,,,,,,bars/028.png,bars/mask000.png,,,,,,,,,,,,0,1,,,,,,,6,4,7,5,,,,,,,,,,,1339.6155,1340.1157,1340.3648,1342.2334,space,1.8586,,1342.2335,38,67,1343.2336,1343.2336,1343.2663,,,,0,42,42,42,1,45,120,,,,,,,,
,,6172a1d4cffa5162140cc8c2,65af7587304b05200d920d16,2024-01-23_10h18.02.172,bars,2023.2.3,Win32,60.60606061,657b66ea316d21385b68909f,,,,,,,,,,,1343.2669,1344.2673,,,1344.7679,1345.0178,,43,43,,,,,,,,,,,,,,,,bars/022.png,bars/mask008.png,,,,,,,,,,,,1,2,,,,,,,4,2,4,3,,,,,,,,,,,1344.2673,1344.7677,1345.0178,1346.6188,space,1.5864,,1346.6189,52,23,1347.6188,1347.6188,1347.6533,,,,0,43,43,43,1,95,20,,,,,,,,
,,6172a1d4cffa5162140cc8c2,65af7587304b05200d920d16,2024-01-23_10h18.02.172,bars,2023.2.3,Win32,60.60606061,657b66ea316d21385b68909f,,,,,,,,,,,1347.6538,1348.6527,,,1349.153,1349.4024,,129,129,,,,,,,,,,,,,,,,bars/023.png,bars/mask003.png,,,,,,,,,,,,1,2,,,,,,,6,0,5,1,,,,,,,,,,,1348.6527,1349.153,1349.4024,1350.9542,space,1.5392,,1350.9547,71,14,1351.9541,1351.9542,1351.9567,,,,0,44,44,44,1,20,115,,,,,,,,
,,6172a1d4cffa5162140cc8c2,65af7587304b05200d920d16,2024-01-23_10h18.02.172,bars,2023.2.3,Win32,60.60606061,657b66ea316d21385b68909f,,,,,,,,,,,1351.9582,1352.9546,,,1353.455,1353.7046,,84,84,,,,,,,,,,,,,,,,bars/037.png,bars/mask000.png,,,,,,,,,,,,0,2,,,,,,,4,0,3,0,,,,,,,,,,,1352.9547,1353.4549,1353.7046,1355.1393,space,1.4236,,1355.1395,66,21,1356.1392,1356.1392,1356.144,,,,0,45,45,45,1,150,105,,,,,,,,
,,6172a1d4cffa5162140cc8c2,65af7587304b05200d920d16,2024-01-23_10h18.02.172,bars,2023.2.3,Win32,60.60606061,657b66ea316d21385b68909f,,,,,,,,,,,1356.1454,1357.14,,,1357.6404,1357.8905,,150,150,,,,,,,,,,,,,,,,bars/005.png,bars/mask003.png,,,,,,,,,,,,1,2,,,,,,,6,2,6,1,,,,,,,,,,,1357.1401,1357.6404,1357.8906,1359.1241,space,1.2237,,1359.1242,40,10,1360.1239,1360.1239,1360.1246,,,,0,46,46,46,1,10,140,,,,,,,,
,,6172a1d4cffa5162140cc8c2,65af7587304b05200d920d16,2024-01-23_10h18.02.172,bars,2023.2.3,Win32,60.60606061,657b66ea316d21385b68909f,,,,,,,,,,,1360.1248,1361.125,,,1361.6252,1361.8754,,58,58,,,,,,,,,,,,,,,,bars/004.png,bars/mask006.png,,,,,,,,,,,,0,1,,,,,,,4,4,3,5,,,,,,,,,,,1361.1251,1361.6251,1361.8755,1364.8952,space,3.0115,,1364.8953,33,67,1365.8941,1365.8942,1365.9272,,,,0,47,47,47,1,25,125,,,,,,,,
,,6172a1d4cffa5162140cc8c2,65af7587304b05200d920d16,2024-01-23_10h18.02.172,bars,2023.2.3,Win32,60.60606061,657b66ea316d21385b68909f,,,,,,,,,,,1365.9279,1366.9273,,,1367.428,1367.6773,,3,3,,,,,,,,,,,,,,,,bars/022.png,bars/mask009.png,,,,,,,,,,,,1,2,,,,,,,2,2,2,3,,,,,,,,,,,1366.9273,1367.428,1367.6773,1369.9296,space,2.2381,,1369.9298,88,17,1370.9288,1370.9288,1370.9399,,,,0,48,48,48,1,95,20,,,,,,,,
,,6172a1d4cffa5162140cc8c2,65af7587304b05200d920d16,2024-01-23_10h18.02.172,bars,2023.2.3,Win32,60.60606061,657b66ea316d21385b68909f,,,,,,,,,,,1370.9402,1371.9292,,,1372.4299,1372.6806,,174,-6,,,,,,,,,,,,,,,,bars/019.png,bars/mask007.png,,,,,,,,,,,,0,1,,,,,,,0,0,0,0,,,,,,,,,,,1371.9292,1372.4298,1372.6806,1374.097,space,1.4055,,1374.097,51,69,1375.0978,1375.0979,1375.1376,,,,0,49,49,49,1,45,105,,,,,,,,
,,6172a1d4cffa5162140cc8c2,65af7587304b05200d920d16,2024-01-23_10h18.02.172,bars,2023.2.3,Win32,60.60606061,657b66ea316d21385b68909f,,,,,,,,,,,,,,,,,,,,,,,,,,,,,,,,,,,,,,,,,,,,,,,,,,,,,,,,,,,,,,,,,,,,,,,,,,,,,,,,,,,,,,,,,,,,,1375.1378,1435.1411,0,2,2,0,1,sequence_tables/blk014.csv
,,6172a1d4cffa5162140cc8c2,65af7587304b05200d920d16,2024-01-23_10h18.02.172,bars,2023.2.3,Win32,60.60606061,657b66ea316d21385b68909f,,,,,,,,,,,1450.928,1451.9154,,,1452.4001,1452.6496,,123,123,,,,,,,,,,,,,,,,bars/004.png,bars/mask007.png,,,,,,,,,,,,7,2,,,,,,,1,9,1,7,,,,,,1435.154,1450.8989,space,15.7306,,1451.9155,1452.3999,1452.6497,1455.0011,space,2.3386,,1455.0012,82,2,1456.0013,1456.0014,1456.0316,,,,0,0,0,0,1,25,125,,,,,,,,
,,6172a1d4cffa5162140cc8c2,65af7587304b05200d920d16,2024-01-23_10h18.02.172,bars,2023.2.3,Win32,60.60606061,657b66ea316d21385b68909f,,,,,,,,,,,1456.0318,1457.0353,,,1457.5346,1457.7851,,31,31,,,,,,,,,,,,,,,,bars/008.png,bars/mask004.png,,,,,,,,,,,,0,2,,,,,,,3,7,5,6,,,,,,,,,,,1457.0353,1457.5346,1457.7851,1458.3521,space,0.555,,1458.3521,79,31,1459.3528,1459.3529,1459.355,,,,0,1,1,1,1,110,0,,,,,,,,
,,6172a1d4cffa5162140cc8c2,65af7587304b05200d920d16,2024-01-23_10h18.02.172,bars,2023.2.3,Win32,60.60606061,657b66ea316d21385b68909f,,,,,,,,,,,1459.3567,1460.3533,,,1460.8536,1461.1035,,148,148,,,,,,,,,,,,,,,,bars/032.png,bars/mask001.png,,,,,,,,,,,,1,1,,,,,,,5,9,4,9,,,,,,,,,,,1460.3533,1460.8535,1461.1035,1462.6209,space,1.4995,,1462.621,23,52,1463.6211,1463.6211,1463.6492,,,,0,2,2,2,1,125,20,,,,,,,,
,,6172a1d4cffa5162140cc8c2,65af7587304b05200d920d16,2024-01-23_10h18.02.172,bars,2023.2.3,Win32,60.60606061,657b66ea316d21385b68909f,,,,,,,,,,,1463.6495,1464.6387,,,1465.1383,1465.3886,,128,128,,,,,,,,,,,,,,,,bars/036.png,bars/mask007.png,,,,,,,,,,,,2,1,,,,,,,3,7,5,10,,,,,,,,,,,1464.6388,1465.1383,1465.3886,1467.8432,space,2.4474,,1467.8433,17,72,1468.8399,1468.84,1468.8416,,,,0,3,3,3,1,145,20,,,,,,,,
,,6172a1d4cffa5162140cc8c2,65af7587304b05200d920d16,2024-01-23_10h18.02.172,bars,2023.2.3,Win32,60.60606061,657b66ea316d21385b68909f,,,,,,,,,,,1468.8423,1469.8402,,,1470.3409,1470.5914,,128,128,,,,,,,,,,,,,,,,bars/034.png,bars/mask007.png,,,,,,,,,,,,1,1,,,,,,,1,5,1,4,,,,,,,,,,,1469.8402,1470.3407,1470.5914,1472.2595,space,1.6517,,1472.2596,3,63,1473.2589,1473.2589,1473.2793,,,,0,4,4,4,1,125,65,,,,,,,,
,,6172a1d4cffa5162140cc8c2,65af7587304b05200d920d16,2024-01-23_10h18.02.172,bars,2023.2.3,Win32,60.60606061,657b66ea316d21385b68909f,,,,,,,,,,,1473.2795,1474.276,,,1474.7767,1475.0262,,35,215,,,,,,,,,,,,,,,,bars/023.png,bars/mask000.png,,,,,,,,,,,,3,1,,,,,,,3,3,5,1,,,,,,,,,,,1474.276,1474.7765,1475.0262,1479.9789,space,4.9359,,1479.979,15,80,1480.9786,1480.9787,1480.9898,,,,0,5,5,5,1,20,115,,,,,,,,
,,6172a1d4cffa5162140cc8c2,65af7587304b05200d920d16,2024-01-23_10h18.02.172,bars,2023.2.3,Win32,60.60606061,657b66ea316d21385b68909f,,,,,,,,,,,1480.99,1481.9799,,,1482.4803,1482.7306,,59,59,,,,,,,,,,,,,,,,bars/001.png,bars/mask002.png,,,,,,,,,,,,0,2,,,,,,,5,1,7,2,,,,,,,,,,,1481.98,1482.4802,1482.7307,1484.6975,space,1.9495,,1484.6976,71,26,1485.6984,1485.6986,1485.729,,,,0,6,6,6,1,130,85,,,,,,,,
,,6172a1d4cffa5162140cc8c2,65af7587304b05200d920d16,2024-01-23_10h18.02.172,bars,2023.2.3,Win32,60.60606061,657b66ea316d21385b68909f,,,,,,,,,,,1485.7292,1486.7318,,,1487.2322,1487.4823,,32,32,,,,,,,,,,,,,,,,bars/003.png,bars/mask004.png,,,,,,,,,,,,2,1,,,,,,,3,3,3,3,,,,,,,,,,,1486.7319,1487.2321,1487.4823,1492.2011,space,4.7036,,1492.2014,7,72,1493.2013,1493.2013,1493.2347,,,,0,7,7,7,1,25,140,,,,,,,,
,,6172a1d4cffa5162140cc8c2,65af7587304b05200d920d16,2024-01-23_10h18.02.172,bars,2023.2.3,Win32,60.60606061,657b66ea316d21385b68909f,,,,,,,,,,,1493.2351,1494.2354,,,1494.7358,1494.9858,,172,-8,,,,,,,,,,,,,,,,bars/007.png,bars/mask008.png,,,,,,,,,,,,3,1,,,,,,,5,1,3,1,,,,,,,,,,,1494.2354,1494.7357,1494.9858,1497.0867,space,2.0855,,1497.0868,3,63,1498.0865,1498.0865,1498.0972,,,,0,8,8,8,1,175,55,,,,,,,,
,,6172a1d4cffa5162140cc8c2,65af7587304b05200d920d16,2024-01-23_10h18.02.172,bars,2023.2.3,Win32,60.60606061,657b66ea316d21385b68909f,,,,,,,,,,,1498.0975,1499.0875,,,1499.5878,1499.8379,,20,200,,,,,,,,,,,,,,,,bars/020.png,bars/mask001.png,,,,,,,,,,,,0,2,,,,,,,3,3,2,5,,,,,,,,,,,1499.0876,1499.5877,1499.8379,1502.1726,space,2.3188,,1502.1728,85,30,1503.1733,1503.1734,1503.2075,,,,0,9,9,9,1,115,170,,,,,,,,
,,6172a1d4cffa5162140cc8c2,65af7587304b05200d920d16,2024-01-23_10h18.02.172,bars,2023.2.3,Win32,60.60606061,657b66ea316d21385b68909f,,,,,,,,,,,1503.2079,1504.2066,,,1504.7071,1504.9571,,137,137,,,,,,,,,,,,,,,,bars/005.png,bars/mask004.png,,,,,,,,,,,,0,2,,,,,,,1,1,0,0,,,,,,,,,,,1504.2067,1504.707,1504.9572,1507.0412,space,2.0751,,1507.0413,53,3,1508.0413,1508.0414,1508.0723,,,,0,10,10,10,1,10,140,,,,,,,,
,,6172a1d4cffa5162140cc8c2,65af7587304b05200d920d16,2024-01-23_10h18.02.172,bars,2023.2.3,Win32,60.60606061,657b66ea316d21385b68909f,,,,,,,,,,,1508.0727,1509.0754,,,1509.5759,1509.8252,,16,196,,,,,,,,,,,,,,,,bars/000.png,bars/mask003.png,,,,,,,,,,,,1,1,,,,,,,3,0,3,0,,,,,,,,,,,1509.0755,1509.5757,1509.8252,1512.8107,space,2.9722,,1512.8109,24,51,1513.8106,1513.8106,1513.8489,,,,0,11,11,11,1,40,145,,,,,,,,
,,6172a1d4cffa5162140cc8c2,65af7587304b05200d920d16,2024-01-23_10h18.02.172,bars,2023.2.3,Win32,60.60606061,657b66ea316d21385b68909f,,,,,,,,,,,1513.8495,1514.8445,,,1515.3451,1515.5947,,111,111,,,,,,,,,,,,,,,,bars/007.png,bars/mask009.png,,,,,,,,,,,,0,2,,,,,,,5,0,6,0,,,,,,,,,,,1514.8446,1515.3451,1515.5948,1517.0294,space,1.4205,,1517.0295,64,56,1518.0293,1518.0294,1518.0351,,,,0,12,12,12,1,175,55,,,,,,,,
,,6172a1d4cffa5162140cc8c2,65af7587304b05200d920d16,2024-01-23_10h18.02.172,bars,2023.2.3,Win32,60.60606061,657b66ea316d21385b68909f,,,,,,,,,,,1518.0357,1519.0301,,,1519.5295,1519.7799,,86,86,,,,,,,,,,,,,,,,bars/048.png,bars/mask009.png,,,,,,,,,,,,0,1,,,,,,,7,2,7,2,,,,,,,,,,,1519.0302,1519.5295,1519.7799,1522.7985,space,3.0078,,1522.7986,36,89,1523.7982,1523.7983,1523.8157,,,,0,13,13,13,1,50,175,,,,,,,,
,,6172a1d4cffa5162140cc8c2,65af7587304b05200d920d16,2024-01-23_10h18.02.172,bars,2023.2.3,Win32,60.60606061,657b66ea316d21385b68909f,,,,,,,,,,,1523.8159,1524.8154,,,1525.3204,1525.567,,0,0,,,,,,,,,,,,,,,,bars/001.png,bars/mask004.png,,,,,,,,,,,,0,1,,,,,,,5,4,6,5,,,,,,,,,,,1524.8156,1525.3204,1525.5674,1527.335,space,1.7397,,1527.3353,50,85,1528.3371,1528.3374,1528.3397,,,,0,14,14,14,1,130,85,,,,,,,,
,,6172a1d4cffa5162140cc8c2,65af7587304b05200d920d16,2024-01-23_10h18.02.172,bars,2023.2.3,Win32,60.60606061,657b66ea316d21385b68909f,,,,,,,,,,,1528.3407,1529.3351,,,1529.836,1530.0896,,150,150,,,,,,,,,,,,,,,,bars/014.png,bars/mask002.png,,,,,,,,,,,,0,2,,,,,,,3,2,3,1,,,,,,,,,,,1529.3353,1529.8357,1530.0897,1533.8755,space,3.7694,,1533.8756,70,30,1534.8714,1534.8717,1534.9048,,,,0,15,15,15,1,80,0,,,,,,,,
,,6172a1d4cffa5162140cc8c2,65af7587304b05200d920d16,2024-01-23_10h18.02.172,bars,2023.2.3,Win32,60.60606061,657b66ea316d21385b68909f,,,,,,,,,,,1534.9053,1535.9045,,,1536.4046,1536.6539,,114,114,,,,,,,,,,,,,,,,bars/027.png,bars/mask000.png,,,,,,,,,,,,3,1,,,,,,,1,0,3,0,,,,,,,,,,,1535.9046,1536.4045,1536.654,1537.4552,space,0.7888,,1537.4554,4,64,1538.4556,1538.4556,1538.4611,,,,0,16,16,16,1,110,50,,,,,,,,
,,6172a1d4cffa5162140cc8c2,65af7587304b05200d920d16,2024-01-23_10h18.02.172,bars,2023.2.3,Win32,60.60606061,657b66ea316d21385b68909f,,,,,,,,,,,1538.4617,1539.4559,,,1539.9561,1540.2059,,160,160,,,,,,,,,,,,,,,,bars/006.png,bars/mask006.png,,,,,,,,,,,,0,1,,,,,,,0,2,0,1,,,,,,,,,,,1539.456,1539.956,1540.2061,1541.1571,space,0.9379,,1541.1572,55,60,1542.1567,1542.1568,1542.1585,,,,0,17,17,17,1,35,100,,,,,,,,
,,6172a1d4cffa5162140cc8c2,65af7587304b05200d920d16,2024-01-23_10h18.02.172,bars,2023.2.3,Win32,60.60606061,657b66ea316d21385b68909f,,,,,,,,,,,1542.1592,1543.1575,,,1543.6579,1543.908,,153,153,,,,,,,,,,,,,,,,bars/011.png,bars/mask006.png,,,,,,,,,,,,2,1,,,,,,,2,4,2,5,,,,,,,,,,,1543.1575,1543.6578,1543.9081,1546.0603,space,2.1432,,1546.0604,7,68,1547.0596,1547.0597,1547.0621,,,,0,18,18,18,1,160,85,,,,,,,,
,,6172a1d4cffa5162140cc8c2,65af7587304b05200d920d16,2024-01-23_10h18.02.172,bars,2023.2.3,Win32,60.60606061,657b66ea316d21385b68909f,,,,,,,,,,,1547.0631,1548.0596,,,1548.5604,1548.8105,,141,141,,,,,,,,,,,,,,,,bars/026.png,bars/mask001.png,,,,,,,,,,,,0,2,,,,,,,0,2,0,2,,,,,,,,,,,1548.0597,1548.5603,1548.8106,1550.7446,space,1.9184,,1550.7448,74,56,1551.7449,1551.7449,1551.7777,,,,0,19,19,19,1,35,85,,,,,,,,
,,6172a1d4cffa5162140cc8c2,65af7587304b05200d920d16,2024-01-23_10h18.02.172,bars,2023.2.3,Win32,60.60606061,657b66ea316d21385b68909f,,,,,,,,,,,1551.7783,1552.7786,,,1553.2789,1553.5293,,120,120,,,,,,,,,,,,,,,,bars/029.png,bars/mask004.png,,,,,,,,,,,,0,1,,,,,,,0,4,0,4,,,,,,,,,,,1552.7787,1553.2789,1553.5295,1555.4329,space,1.8828,,1555.4329,30,75,1556.4345,1556.4347,1556.4397,,,,0,20,20,20,1,90,45,,,,,,,,
,,6172a1d4cffa5162140cc8c2,65af7587304b05200d920d16,2024-01-23_10h18.02.172,bars,2023.2.3,Win32,60.60606061,657b66ea316d21385b68909f,,,,,,,,,,,1556.4403,1557.4312,,,1557.9192,1558.1683,,6,6,,,,,,,,,,,,,,,,bars/012.png,bars/mask003.png,,,,,,,,,,,,5,2,,,,,,,0,6,1,7,,,,,,,,,,,1557.4314,1557.9192,1558.1684,1560.6052,space,2.4197,,1560.6053,84,9,1561.6003,1561.6004,1561.6339,,,,0,21,21,21,1,90,15,,,,,,,,
,,6172a1d4cffa5162140cc8c2,65af7587304b05200d920d16,2024-01-23_10h18.02.172,bars,2023.2.3,Win32,60.60606061,657b66ea316d21385b68909f,,,,,,,,,,,1561.6344,1562.6331,,,1563.1335,1563.3827,,132,132,,,,,,,,,,,,,,,,bars/019.png,bars/mask004.png,,,,,,,,,,,,0,2,,,,,,,0,4,0,5,,,,,,,,,,,1562.6332,1563.1333,1563.3828,1565.2512,space,1.8615,,1565.2515,87,27,1566.2512,1566.2513,1566.2824,,,,0,22,22,22,1,45,105,,,,,,,,
,,6172a1d4cffa5162140cc8c2,65af7587304b05200d920d16,2024-01-23_10h18.02.172,bars,2023.2.3,Win32,60.60606061,657b66ea316d21385b68909f,,,,,,,,,,,1566.2831,1567.2854,,,1567.7857,1568.0358,,46,46,,,,,,,,,,,,,,,,bars/000.png,bars/mask002.png,,,,,,,,,,,,1,1,,,,,,,0,6,1,6,,,,,,,,,,,1567.2855,1567.7857,1568.0359,1570.4534,space,2.4034,,1570.4536,6,81,1571.4538,1571.4539,1571.4893,,,,0,23,23,23,1,40,145,,,,,,,,
,,6172a1d4cffa5162140cc8c2,65af7587304b05200d920d16,2024-01-23_10h18.02.172,bars,2023.2.3,Win32,60.60606061,657b66ea316d21385b68909f,,,,,,,,,,,1571.49,1572.4876,,,1572.988,1573.2376,,64,64,,,,,,,,,,,,,,,,bars/005.png,bars/mask008.png,,,,,,,,,,,,0,1,,,,,,,0,4,1,6,,,,,,,,,,,1572.4876,1572.988,1573.2377,1575.7724,space,2.5188,,1575.7726,54,76,1576.7729,1576.7729,1576.8042,,,,0,24,24,24,1,10,140,,,,,,,,
,,6172a1d4cffa5162140cc8c2,65af7587304b05200d920d16,2024-01-23_10h18.02.172,bars,2023.2.3,Win32,60.60606061,657b66ea316d21385b68909f,,,,,,,,,,,1576.8046,1577.8063,,,1578.3069,1578.5574,,32,32,,,,,,,,,,,,,,,,bars/020.png,bars/mask002.png,,,,,,,,,,,,0,2,,,,,,,0,2,0,1,,,,,,,,,,,1577.8065,1578.3068,1578.5575,1580.6409,space,2.0647,,1580.6409,83,42,1581.6409,1581.6409,1581.654,,,,0,25,25,25,1,115,170,,,,,,,,
,,6172a1d4cffa5162140cc8c2,65af7587304b05200d920d16,2024-01-23_10h18.02.172,bars,2023.2.3,Win32,60.60606061,657b66ea316d21385b68909f,,,,,,,,,,,1581.6542,1582.642,,,1583.1423,1583.3923,,164,-16,,,,,,,,,,,,,,,,bars/001.png,bars/mask009.png,,,,,,,,,,,,0,1,,,,,,,2,4,4,4,,,,,,,,,,,1582.6421,1583.1422,1583.3924,1585.8773,space,2.4715,,1585.8774,34,79,1586.8774,1586.8775,1586.913,,,,0,26,26,26,1,130,85,,,,,,,,
,,6172a1d4cffa5162140cc8c2,65af7587304b05200d920d16,2024-01-23_10h18.02.172,bars,2023.2.3,Win32,60.60606061,657b66ea316d21385b68909f,,,,,,,,,,,1586.9134,1587.911,,,1588.4112,1588.6613,,94,94,,,,,,,,,,,,,,,,bars/000.png,bars/mask009.png,,,,,,,,,,,,0,2,,,,,,,0,2,0,5,,,,,,,,,,,1587.911,1588.4112,1588.6614,1590.546,space,1.8715,,1590.5462,54,51,1591.5461,1591.5462,1591.5736,,,,0,27,27,27,1,40,145,,,,,,,,
,,6172a1d4cffa5162140cc8c2,65af7587304b05200d920d16,2024-01-23_10h18.02.172,bars,2023.2.3,Win32,60.60606061,657b66ea316d21385b68909f,,,,,,,,,,,1591.574,1592.5629,,,1593.0628,1593.3129,,155,155,,,,,,,,,,,,,,,,bars/004.png,bars/mask008.png,,,,,,,,,,,,0,2,,,,,,,2,4,1,4,,,,,,,,,,,1592.5629,1593.0628,1593.3129,1593.98,space,0.6568,,1593.98,50,30,1594.9806,1594.9807,1594.9821,,,,0,28,28,28,1,25,125,,,,,,,,
,,6172a1d4cffa5162140cc8c2,65af7587304b05200d920d16,2024-01-23_10h18.02.172,bars,2023.2.3,Win32,60.60606061,657b66ea316d21385b68909f,,,,,,,,,,,1594.9832,1595.9811,,,1596.4814,1596.7316,,102,102,,,,,,,,,,,,,,,,bars/024.png,bars/mask000.png,,,,,,,,,,,,0,1,,,,,,,0,2,0,3,,,,,,,,,,,1595.9812,1596.4814,1596.7317,1599.0327,space,2.2918,,1599.0329,18,68,1600.0334,1600.0335,1600.0629,,,,0,29,29,29,1,120,170,,,,,,,,
,,6172a1d4cffa5162140cc8c2,65af7587304b05200d920d16,2024-01-23_10h18.02.172,bars,2023.2.3,Win32,60.60606061,657b66ea316d21385b68909f,,,,,,,,,,,1600.0631,1601.0669,,,1601.5676,1601.8177,,161,161,,,,,,,,,,,,,,,,bars/040.png,bars/mask001.png,,,,,,,,,,,,0,1,,,,,,,0,4,0,6,,,,,,,,,,,1601.067,1601.5676,1601.8177,1603.6355,space,1.8027,,1603.6357,21,24,1604.6355,1604.6357,1604.6377,,,,0,30,30,30,1,140,5,,,,,,,,
,,6172a1d4cffa5162140cc8c2,65af7587304b05200d920d16,2024-01-23_10h18.02.172,bars,2023.2.3,Win32,60.60606061,657b66ea316d21385b68909f,,,,,,,,,,,1604.6392,1605.6358,,,1606.1359,1606.386,,69,69,,,,,,,,,,,,,,,,bars/046.png,bars/mask003.png,,,,,,,,,,,,0,2,,,,,,,0,2,1,1,,,,,,,,,,,1605.6359,1606.1358,1606.3861,1608.1207,space,1.7205,,1608.1209,86,16,1609.12,1609.12,1609.1231,,,,0,31,31,31,1,155,85,,,,,,,,
,,6172a1d4cffa5162140cc8c2,65af7587304b05200d920d16,2024-01-23_10h18.02.172,bars,2023.2.3,Win32,60.60606061,657b66ea316d21385b68909f,,,,,,,,,,,1609.1234,1610.1207,,,1610.6213,1610.8715,,148,148,,,,,,,,,,,,,,,,bars/045.png,bars/mask003.png,,,,,,,,,,,,0,2,,,,,,,2,4,1,5,,,,,,,,,,,1610.1208,1610.6213,1610.8715,1615.207,space,4.3201,,1615.2072,48,42,1616.2073,1616.2075,1616.2371,,,,0,32,32,32,1,100,10,,,,,,,,
,,6172a1d4cffa5162140cc8c2,65af7587304b05200d920d16,2024-01-23_10h18.02.172,bars,2023.2.3,Win32,60.60606061,657b66ea316d21385b68909f,,,,,,,,,,,1616.2375,1617.241,,,1617.7406,1617.9911,,52,52,,,,,,,,,,,,,,,,bars/047.png,bars/mask009.png,,,,,,,,,,,,2,2,,,,,,,4,2,2,4,,,,,,,,,,,1617.2411,1617.7406,1617.9912,1622.1267,space,4.1212,,1622.1269,37,18,1623.1275,1623.1275,1623.1587,,,,0,33,33,33,1,15,70,,,,,,,,
,,6172a1d4cffa5162140cc8c2,65af7587304b05200d920d16,2024-01-23_10h18.02.172,bars,2023.2.3,Win32,60.60606061,657b66ea316d21385b68909f,,,,,,,,,,,1623.1589,1624.1607,,,1624.6612,1624.9111,,35,35,,,,,,,,,,,,,,,,bars/012.png,bars/mask002.png,,,,,,,,,,,,1,2,,,,,,,2,4,0,3,,,,,,,,,,,1624.1609,1624.6611,1624.9111,1627.5286,space,2.605,,1627.5287,55,20,1628.529,1628.5291,1628.546,,,,0,34,34,34,1,90,15,,,,,,,,
,,6172a1d4cffa5162140cc8c2,65af7587304b05200d920d16,2024-01-23_10h18.02.172,bars,2023.2.3,Win32,60.60606061,657b66ea316d21385b68909f,,,,,,,,,,,1628.5462,1629.5471,,,1630.0472,1630.297,,13,13,,,,,,,,,,,,,,,,bars/014.png,bars/mask004.png,,,,,,,,,,,,3,2,,,,,,,0,6,0,6,,,,,,,,,,,1629.5472,1630.0471,1630.297,1632.615,space,2.3047,,1632.6151,67,13,1633.6149,1633.6149,1633.6292,,,,0,35,35,35,1,80,0,,,,,,,,
,,6172a1d4cffa5162140cc8c2,65af7587304b05200d920d16,2024-01-23_10h18.02.172,bars,2023.2.3,Win32,60.60606061,657b66ea316d21385b68909f,,,,,,,,,,,1633.6294,1634.6326,,,1635.1327,1635.3827,,107,107,,,,,,,,,,,,,,,,bars/000.png,bars/mask001.png,,,,,,,,,,,,0,2,,,,,,,0,4,0,3,,,,,,,,,,,1634.6327,1635.1326,1635.3828,1637.4009,space,2.0087,,1637.401,67,38,1638.401,1638.4012,1638.4339,,,,0,36,36,36,1,40,145,,,,,,,,
,,6172a1d4cffa5162140cc8c2,65af7587304b05200d920d16,2024-01-23_10h18.02.172,bars,2023.2.3,Win32,60.60606061,657b66ea316d21385b68909f,,,,,,,,,,,1638.4344,1639.4347,,,1639.9351,1640.185,,169,-11,,,,,,,,,,,,,,,,bars/037.png,bars/mask001.png,,,,,,,,,,,,0,1,,,,,,,0,6,0,5,,,,,,,,,,,1639.4348,1639.935,1640.185,1642.1526,space,1.9527,,1642.1527,19,64,1643.153,1643.1531,1643.1586,,,,0,37,37,37,1,150,105,,,,,,,,
,,6172a1d4cffa5162140cc8c2,65af7587304b05200d920d16,2024-01-23_10h18.02.172,bars,2023.2.3,Win32,60.60606061,657b66ea316d21385b68909f,,,,,,,,,,,1643.1592,1644.1536,,,1644.653,1644.9038,,133,-47,,,,,,,,,,,,,,,,bars/036.png,bars/mask008.png,,,,,,,,,,,,0,1,,,,,,,0,4,0,6,,,,,,,,,,,1644.1536,1644.653,1644.9038,1648.4889,space,3.5694,,1648.4891,12,67,1649.4893,1649.4894,1649.5212,,,,0,38,38,38,1,145,20,,,,,,,,
,,6172a1d4cffa5162140cc8c2,65af7587304b05200d920d16,2024-01-23_10h18.02.172,bars,2023.2.3,Win32,60.60606061,657b66ea316d21385b68909f,,,,,,,,,,,1649.5218,1650.523,,,1651.0233,1651.2733,,174,-6,,,,,,,,,,,,,,,,bars/030.png,bars/mask005.png,,,,,,,,,,,,0,1,,,,,,,2,2,1,2,,,,,,,,,,,1650.523,1651.0233,1651.2734,1653.4745,space,2.1937,,1653.4745,34,71,1654.4745,1654.4746,1654.5006,,,,0,39,39,39,1,140,65,,,,,,,,
,,6172a1d4cffa5162140cc8c2,65af7587304b05200d920d16,2024-01-23_10h18.02.172,bars,2023.2.3,Win32,60.60606061,657b66ea316d21385b68909f,,,,,,,,,,,1654.5022,1655.4919,,,1656.0252,1656.2619,,47,47,,,,,,,,,,,,,,,,bars/014.png,bars/mask009.png,,,,,,,,,,,,0,1,,,,,,,4,4,4,3,,,,,,,,,,,1655.492,1656.0252,1656.2619,1657.9632,space,1.6846,,1657.9633,33,47,1658.9601,1658.9605,1658.9615,,,,0,40,40,40,1,80,0,,,,,,,,
,,6172a1d4cffa5162140cc8c2,65af7587304b05200d920d16,2024-01-23_10h18.02.172,bars,2023.2.3,Win32,60.60606061,657b66ea316d21385b68909f,,,,,,,,,,,1658.9619,1659.961,,,1660.4637,1660.7139,,144,144,,,,,,,,,,,,,,,,bars/035.png,bars/mask001.png,,,,,,,,,,,,0,1,,,,,,,6,2,5,3,,,,,,,,,,,1659.9612,1660.4637,1660.714,1662.3169,space,1.5854,,1662.317,31,84,1663.3122,1663.3124,1663.3465,,,,0,41,41,41,1,175,60,,,,,,,,
,,6172a1d4cffa5162140cc8c2,65af7587304b05200d920d16,2024-01-23_10h18.02.172,bars,2023.2.3,Win32,60.60606061,657b66ea316d21385b68909f,,,,,,,,,,,1663.347,1664.3451,,,1664.8458,1665.0955,,25,25,,,,,,,,,,,,,,,,bars/024.png,bars/mask005.png,,,,,,,,,,,,0,2,,,,,,,4,4,4,3,,,,,,,,,,,1664.3452,1664.8458,1665.0955,1666.8639,space,1.7559,,1666.864,85,35,1667.8641,1667.8641,1667.8929,,,,0,42,42,42,1,120,170,,,,,,,,
,,6172a1d4cffa5162140cc8c2,65af7587304b05200d920d16,2024-01-23_10h18.02.172,bars,2023.2.3,Win32,60.60606061,657b66ea316d21385b68909f,,,,,,,,,,,1667.8931,1668.8971,,,1669.3974,1669.6475,,170,-10,,,,,,,,,,,,,,,,bars/015.png,bars/mask008.png,,,,,,,,,,,,4,2,,,,,,,2,6,4,6,,,,,,,,,,,1668.8971,1669.3973,1669.6475,1671.6318,space,1.9742,,1671.6318,60,10,1672.6321,1672.6322,1672.6328,,,,0,43,43,43,1,110,160,,,,,,,,
,,6172a1d4cffa5162140cc8c2,65af7587304b05200d920d16,2024-01-23_10h18.02.172,bars,2023.2.3,Win32,60.60606061,657b66ea316d21385b68909f,,,,,,,,,,,1672.6333,1673.6329,,,1674.1335,1674.3834,,21,21,,,,,,,,,,,,,,,,bars/007.png,bars/mask000.png,,,,,,,,,,,,1,1,,,,,,,4,4,5,3,,,,,,,,,,,1673.6331,1674.1334,1674.3834,1675.8671,space,1.4643,,1675.8672,26,34,1676.8673,1676.8675,1676.8709,,,,0,44,44,44,1,175,55,,,,,,,,
,,6172a1d4cffa5162140cc8c2,65af7587304b05200d920d16,2024-01-23_10h18.02.172,bars,2023.2.3,Win32,60.60606061,657b66ea316d21385b68909f,,,,,,,,,,,1676.8712,1677.8678,,,1678.3688,1678.619,,114,114,,,,,,,,,,,,,,,,bars/047.png,bars/mask008.png,,,,,,,,,,,,0,2,,,,,,,6,6,5,6,,,,,,,,,,,1677.8678,1678.3688,1678.619,1680.069,space,1.4342,,1680.0691,81,44,1681.0692,1681.0692,1681.0721,,,,0,45,45,45,1,15,70,,,,,,,,
,,6172a1d4cffa5162140cc8c2,65af7587304b05200d920d16,2024-01-23_10h18.02.172,bars,2023.2.3,Win32,60.60606061,657b66ea316d21385b68909f,,,,,,,,,,,1681.0724,1682.0701,,,1682.571,1682.8205,,46,46,,,,,,,,,,,,,,,,bars/048.png,bars/mask007.png,,,,,,,,,,,,3,1,,,,,,,4,4,3,5,,,,,,,,,,,1682.0702,1682.5709,1682.8205,1683.877,space,1.0486,,1683.8771,4,51,1684.872,1684.8722,1684.8769,,,,0,46,46,46,1,50,175,,,,,,,,
,,6172a1d4cffa5162140cc8c2,65af7587304b05200d920d16,2024-01-23_10h18.02.172,bars,2023.2.3,Win32,60.60606061,657b66ea316d21385b68909f,,,,,,,,,,,1684.8776,1685.8725,,,1686.377,1686.623,,27,27,,,,,,,,,,,,,,,,bars/024.png,bars/mask006.png,,,,,,,,,,,,0,2,,,,,,,6,6,6,5,,,,,,,,,,,1685.8728,1686.3768,1686.6232,1687.2456,space,0.6018,,1687.2456,87,37,1688.2411,1688.2412,1688.245,,,,0,47,47,47,1,120,170,,,,,,,,
,,6172a1d4cffa5162140cc8c2,65af7587304b05200d920d16,2024-01-23_10h18.02.172,bars,2023.2.3,Win32,60.60606061,657b66ea316d21385b68909f,,,,,,,,,,,1688.2454,1689.2416,,,1689.7403,1689.9915,,22,22,,,,,,,,,,,,,,,,bars/042.png,bars/mask006.png,,,,,,,,,,,,0,2,,,,,,,4,8,5,9,,,,,,,,,,,1689.2417,1689.7401,1689.9922,1690.795,space,0.7837,,1690.7951,57,53,1691.792,1691.7923,1691.7945,,,,0,48,48,48,1,145,75,,,,,,,,
,,6172a1d4cffa5162140cc8c2,65af7587304b05200d920d16,2024-01-23_10h18.02.172,bars,2023.2.3,Win32,60.60606061,657b66ea316d21385b68909f,,,,,,,,,,,1691.7951,1692.7921,,,1693.2962,1693.5468,,117,117,,,,,,,,,,,,,,,,bars/040.png,bars/mask007.png,,,,,,,,,,,,0,1,,,,,,,2,10,2,10,,,,,,,,,,,1692.7922,1693.2962,1693.5469,1697.0776,space,3.5071,,1697.0777,23,68,1698.0778,1698.0779,1698.1116,,,,0,49,49,49,1,140,5,,,,,,,,
,,6172a1d4cffa5162140cc8c2,65af7587304b05200d920d16,2024-01-23_10h18.02.172,bars,2023.2.3,Win32,60.60606061,657b66ea316d21385b68909f,,,,,,,,,,,,,,,,,,,,,,,,,,,,,,,,,,,,,,,,,,,,,,,,,,,,,,,,,,,,,,,,,,,,,,,,,,,,,,,,,,,,,,,,,,,,,1698.1119,1758.1049,0,3,3,4,1,sequence_tables/blk022.csv
,,6172a1d4cffa5162140cc8c2,65af7587304b05200d920d16,2024-01-23_10h18.02.172,bars,2023.2.3,Win32,60.60606061,657b66ea316d21385b68909f,,,,,,,,,,,1765.1895,1766.1748,,,1766.6755,1766.9259,,129,129,,,,,,,,,,,,,,,,bars/012.png,bars/mask001.png,,,,,,,,,,,,0,1,,,,,,,5,8,5,7,,,,,,1758.1257,1765.1742,space,7.0362,,1766.1748,1766.6754,1766.9259,1771.2605,space,4.3173,,1771.2606,39,66,1772.2606,1772.2607,1772.2733,,,,0,0,0,0,1,90,15,,,,,,,,
,,6172a1d4cffa5162140cc8c2,65af7587304b05200d920d16,2024-01-23_10h18.02.172,bars,2023.2.3,Win32,60.60606061,657b66ea316d21385b68909f,,,,,,,,,,,1772.2737,1773.2779,,,1773.7788,1774.0291,,12,192,,,,,,,,,,,,,,,,bars/034.png,bars/mask001.png,,,,,,,,,,,,0,2,,,,,,,3,6,4,8,,,,,,,,,,,1773.2779,1773.7788,1774.0291,1776.2463,space,2.2037,,1776.2463,67,53,1777.2462,1777.2463,1777.2592,,,,0,1,1,1,1,125,65,,,,,,,,
,,6172a1d4cffa5162140cc8c2,65af7587304b05200d920d16,2024-01-23_10h18.02.172,bars,2023.2.3,Win32,60.60606061,657b66ea316d21385b68909f,,,,,,,,,,,1777.2594,1778.2474,,,1778.7474,1778.9976,,12,12,,,,,,,,,,,,,,,,bars/013.png,bars/mask002.png,,,,,,,,,,,,8,2,,,,,,,5,8,5,9,,,,,,,,,,,1778.2475,1778.7474,1778.9976,1779.8985,space,0.8876,,1779.8986,63,2,1780.898,1780.898,1780.8987,,,,0,2,2,2,1,75,10,,,,,,,,
,,6172a1d4cffa5162140cc8c2,65af7587304b05200d920d16,2024-01-23_10h18.02.172,bars,2023.2.3,Win32,60.60606061,657b66ea316d21385b68909f,,,,,,,,,,,1780.899,1781.899,,,1782.4004,1782.6508,,104,104,,,,,,,,,,,,,,,,bars/049.png,bars/mask009.png,,,,,,,,,,,,3,2,,,,,,,7,6,7,5,,,,,,,,,,,1781.8992,1782.4003,1782.6509,1784.3182,space,1.6382,,1784.3183,56,11,1785.3183,1785.3185,1785.321,,,,0,3,3,3,1,160,115,,,,,,,,
,,6172a1d4cffa5162140cc8c2,65af7587304b05200d920d16,2024-01-23_10h18.02.172,bars,2023.2.3,Win32,60.60606061,657b66ea316d21385b68909f,,,,,,,,,,,1785.3219,1786.3171,,,1786.8057,1787.0521,,149,149,,,,,,,,,,,,,,,,bars/046.png,bars/mask000.png,,,,,,,,,,,,6,1,,,,,,,9,4,8,2,,,,,,,,,,,1786.3173,1786.8056,1787.0523,1788.6538,space,1.5718,,1788.6539,6,64,1789.6574,1789.6575,1789.6619,,,,0,4,4,4,1,155,85,,,,,,,,
,,6172a1d4cffa5162140cc8c2,65af7587304b05200d920d16,2024-01-23_10h18.02.172,bars,2023.2.3,Win32,60.60606061,657b66ea316d21385b68909f,,,,,,,,,,,1789.6625,1790.6569,,,1791.1548,1791.4041,,137,137,,,,,,,,,,,,,,,,bars/016.png,bars/mask006.png,,,,,,,,,,,,0,2,,,,,,,7,6,8,4,,,,,,,,,,,1790.6569,1791.1546,1791.4043,1794.1059,space,2.6752,,1794.1061,83,28,1795.106,1795.1062,1795.1399,,,,0,5,5,5,1,40,165,,,,,,,,
,,6172a1d4cffa5162140cc8c2,65af7587304b05200d920d16,2024-01-23_10h18.02.172,bars,2023.2.3,Win32,60.60606061,657b66ea316d21385b68909f,,,,,,,,,,,1795.1403,1796.1392,,,1796.6391,1796.8895,,89,89,,,,,,,,,,,,,,,,bars/027.png,bars/mask006.png,,,,,,,,,,,,3,1,,,,,,,9,8,9,7,,,,,,,,,,,1796.1393,1796.639,1796.8896,1797.6063,space,0.7071,,1797.6065,21,39,1798.6068,1798.6068,1798.6126,,,,0,6,6,6,1,110,50,,,,,,,,
,,6172a1d4cffa5162140cc8c2,65af7587304b05200d920d16,2024-01-23_10h18.02.172,bars,2023.2.3,Win32,60.60606061,657b66ea316d21385b68909f,,,,,,,,,,,1798.6132,1799.6072,,,1800.1076,1800.3577,,8,8,,,,,,,,,,,,,,,,bars/015.png,bars/mask006.png,,,,,,,,,,,,1,2,,,,,,,7,10,7,10,,,,,,,,,,,1799.6073,1800.1075,1800.3578,1801.258,space,0.8851,,1801.2581,78,28,1802.2581,1802.2582,1802.2636,,,,0,7,7,7,1,110,160,,,,,,,,
,,6172a1d4cffa5162140cc8c2,65af7587304b05200d920d16,2024-01-23_10h18.02.172,bars,2023.2.3,Win32,60.60606061,657b66ea316d21385b68909f,,,,,,,,,,,1802.2642,1803.2585,,,1803.7594,1804.0095,,108,108,,,,,,,,,,,,,,,,bars/046.png,bars/mask006.png,,,,,,,,,,,,2,2,,,,,,,5,10,4,9,,,,,,,,,,,1803.2586,1803.7592,1804.0095,1804.9442,space,0.9179,,1804.9443,47,23,1805.944,1805.9443,1805.9465,,,,0,8,8,8,1,155,85,,,,,,,,
,,6172a1d4cffa5162140cc8c2,65af7587304b05200d920d16,2024-01-23_10h18.02.172,bars,2023.2.3,Win32,60.60606061,657b66ea316d21385b68909f,,,,,,,,,,,1805.9475,1806.9453,,,1807.4488,1807.6949,,97,97,,,,,,,,,,,,,,,,bars/022.png,bars/mask007.png,,,,,,,,,,,,7,1,,,,,,,7,8,7,8,,,,,,,,,,,1806.9455,1807.4487,1807.695,1809.9786,space,2.2592,,1809.9788,2,77,1810.9668,1810.9668,1810.9971,,,,0,9,9,9,1,95,20,,,,,,,,
,,6172a1d4cffa5162140cc8c2,65af7587304b05200d920d16,2024-01-23_10h18.02.172,bars,2023.2.3,Win32,60.60606061,657b66ea316d21385b68909f,,,,,,,,,,,1810.9975,1811.9963,,,1812.4962,1812.7465,,16,16,,,,,,,,,,,,,,,,bars/020.png,bars/mask001.png,,,,,,,,,,,,1,2,,,,,,,9,6,10,6,,,,,,,,,,,1811.9963,1812.496,1812.7465,1815.0802,space,2.3211,,1815.0803,81,26,1816.0809,1816.081,1816.0861,,,,0,10,10,10,1,115,170,,,,,,,,
,,6172a1d4cffa5162140cc8c2,65af7587304b05200d920d16,2024-01-23_10h18.02.172,bars,2023.2.3,Win32,60.60606061,657b66ea316d21385b68909f,,,,,,,,,,,1816.0866,1817.0813,,,1817.5813,1817.8313,,146,146,,,,,,,,,,,,,,,,bars/043.png,bars/mask001.png,,,,,,,,,,,,3,2,,,,,,,10,8,10,7,,,,,,,,,,,1817.0814,1817.5812,1817.8314,1819.667,space,1.8217,,1819.6671,64,16,1820.6663,1820.6664,1820.6861,,,,0,11,11,11,1,30,130,,,,,,,,
,,6172a1d4cffa5162140cc8c2,65af7587304b05200d920d16,2024-01-23_10h18.02.172,bars,2023.2.3,Win32,60.60606061,657b66ea316d21385b68909f,,,,,,,,,,,1820.6864,1821.6832,,,1822.1842,1822.4341,,25,25,,,,,,,,,,,,,,,,bars/004.png,bars/mask005.png,,,,,,,,,,,,10,1,,,,,,,8,10,10,10,,,,,,,,,,,1821.6833,1822.1842,1822.4342,1824.485,space,2.0368,,1824.485,0,80,1825.4857,1825.4857,1825.515,,,,0,12,12,12,1,25,125,,,,,,,,
