init_variables.started,init_variables.stopped,participant,session,date,expName,psychopyVersion,OS,frameRate,study_id,instruction_exp.started,instruction_exp.stopped,key_resp_8.keys,key_resp_8.rt,key_resp_8.duration,instruction_single.started,instruction_single.stopped,key_resp_2.keys,key_resp_2.rt,key_resp_2.duration,interval.started,interval.stopped,cue_single.started,cue_single.stopped,mask.started,mask.stopped,ori_response_single.started,res_ori,res,ori_response_single.stopped,key_resp_single.keys,key_resp_single.rt,key_resp_single.duration,disp_single.started,disp_single.stopped,key_resp.keys,key_resp.rt,key_resp.duration,single.thisRepN,single.thisTrialN,single.thisN,single.thisIndex,single.ran,ori,path,mask_path,instruction_bandit.started,instruction_bandit.stopped,key_resp_6.keys,key_resp_6.rt,key_resp_6.duration,cue_bandit.started,cue_bandit.stopped,bandit_res.keys,bandit_res.rt,bandit_res.duration,outcome_bandit.started,rew,action,outcome_bandit.stopped,bandit.thisRepN,bandit.thisTrialN,bandit.thisN,bandit.thisIndex,bandit.ran,actual_rew1,actual_rew2,rew1,rew2,instruction_task.started,instruction_task.stopped,key_resp_7.keys,key_resp_7.rt,key_resp_7.duration,wait_ready.started,wait_ready.stopped,key_resp_3.keys,key_resp_3.rt,key_resp_3.duration,cue.started,cue.stopped,ori_response.started,ori_response.stopped,key_resp_5.keys,key_resp_5.rt,key_resp_5.duration,outcome.started,diff1,diff2,outcome.stopped,disp_outcome_practice.started,disp_outcome_practice.stopped,key_resp_4.keys,key_resp_4.rt,key_resp_4.duration,trials.thisRepN,trials.thisTrialN,trials.thisN,trials.thisIndex,trials.ran,ori1,ori2,break_blk.started,break_blk.stopped,block.thisRepN,block.thisTrialN,block.thisN,block.thisIndex,block.ran,condition_file
0.0003,0.0005,5f23c201727aba1b35635785,65af56817219ae981f60fe0d,2024-01-23_08h03.46.695,bars,2023.2.3,Win32,60.24096386,657b66ea316d21385b68909f,,,,,,,,,,,,,,,,,,,,,,,,,,,,,,,,,,,,,,,,,,,,,,,,,,,,,,,,,,,,,,,,,,,,,,,,,,,,,,,,,,,,,,,,,,,,,,,,,,,,
,,5f23c201727aba1b35635785,65af56817219ae981f60fe0d,2024-01-23_08h03.46.695,bars,2023.2.3,Win32,60.24096386,657b66ea316d21385b68909f,0.0007,201.2425,y,201.2212,,,,,,,,,,,,,,,,,,,,,,,,,,,,,,,,,,,,,,,,,,,,,,,,,,,,,,,,,,,,,,,,,,,,,,,,,,,,,,,,,,,,,,,,,,,,,,,,
,,5f23c201727aba1b35635785,65af56817219ae981f60fe0d,2024-01-23_08h03.46.695,bars,2023.2.3,Win32,60.24096386,657b66ea316d21385b68909f,,,,,,201.2427,213.593,space,12.3271,,,,,,,,,,,,,,,,,,,,,,,,,,,,,,,,,,,,,,,,,,,,,,,,,,,,,,,,,,,,,,,,,,,,,,,,,,,,,,,,,,,,,,,,,,,
,,5f23c201727aba1b35635785,65af56817219ae981f60fe0d,2024-01-23_08h03.46.695,bars,2023.2.3,Win32,60.24096386,657b66ea316d21385b68909f,,,,,,,,,,,213.613,214.6085,214.6093,215.1084,215.1092,215.3455,215.3457,61,61,221.9446,space,6.5708,,221.9448,226.9963,space,5.0237,,0,0,0,1,1,20,bars/single001.png,bars/mask006.png,,,,,,,,,,,,,,,,,,,,,,,,,,,,,,,,,,,,,,,,,,,,,,,,,,,,,,,,,,,,,,,,
,,5f23c201727aba1b35635785,65af56817219ae981f60fe0d,2024-01-23_08h03.46.695,bars,2023.2.3,Win32,60.24096386,657b66ea316d21385b68909f,,,,,,,,,,,227.0102,228.0074,228.0077,228.5099,228.5099,228.7576,228.7577,124,124,235.7959,space,7.0174,,235.7959,240.2583,space,4.435,,0,1,1,2,1,145,bars/single002.png,bars/mask003.png,,,,,,,,,,,,,,,,,,,,,,,,,,,,,,,,,,,,,,,,,,,,,,,,,,,,,,,,,,,,,,,,
,,5f23c201727aba1b35635785,65af56817219ae981f60fe0d,2024-01-23_08h03.46.695,bars,2023.2.3,Win32,60.24096386,657b66ea316d21385b68909f,,,,,,,,,,,240.2713,241.2742,241.2744,241.7744,241.7745,242.012,242.0121,65,65,248.2415,space,6.2073,,248.2419,252.0083,space,3.7401,,0,2,2,5,1,55,bars/single005.png,bars/mask008.png,,,,,,,,,,,,,,,,,,,,,,,,,,,,,,,,,,,,,,,,,,,,,,,,,,,,,,,,,,,,,,,,
,,5f23c201727aba1b35635785,65af56817219ae981f60fe0d,2024-01-23_08h03.46.695,bars,2023.2.3,Win32,60.24096386,657b66ea316d21385b68909f,,,,,,,,,,,252.0096,253.0075,253.0077,253.5081,253.5082,253.7624,253.7625,31,31,259.0959,space,5.3177,,259.0959,264.2461,space,5.1289,,0,3,3,9,1,20,bars/single009.png,bars/mask006.png,,,,,,,,,,,,,,,,,,,,,,,,,,,,,,,,,,,,,,,,,,,,,,,,,,,,,,,,,,,,,,,,
,,5f23c201727aba1b35635785,65af56817219ae981f60fe0d,2024-01-23_08h03.46.695,bars,2023.2.3,Win32,60.24096386,657b66ea316d21385b68909f,,,,,,,,,,,264.2615,265.2578,265.2579,265.7616,265.7617,266.0116,266.0116,96,96,270.7126,space,4.6841,,270.7126,275.4416,space,4.6964,,0,4,4,4,1,95,bars/single004.png,bars/mask004.png,,,,,,,,,,,,,,,,,,,,,,,,,,,,,,,,,,,,,,,,,,,,,,,,,,,,,,,,,,,,,,,,
,,5f23c201727aba1b35635785,65af56817219ae981f60fe0d,2024-01-23_08h03.46.695,bars,2023.2.3,Win32,60.24096386,657b66ea316d21385b68909f,,,,,,,,,,,275.4545,276.4577,276.4577,276.9577,276.9578,277.2076,277.2078,178,-2,283.0128,space,5.7843,,283.0129,285.0082,space,1.963,,0,5,5,6,1,175,bars/single006.png,bars/mask005.png,,,,,,,,,,,,,,,,,,,,,,,,,,,,,,,,,,,,,,,,,,,,,,,,,,,,,,,,,,,,,,,,
,,5f23c201727aba1b35635785,65af56817219ae981f60fe0d,2024-01-23_08h03.46.695,bars,2023.2.3,Win32,60.24096386,657b66ea316d21385b68909f,,,,,,,,,,,285.0096,286.0076,286.0076,286.5081,286.5082,286.7582,286.7583,24,204,291.2085,space,4.4183,,291.2088,295.5958,space,4.3658,,0,6,6,7,1,45,bars/single007.png,bars/mask009.png,,,,,,,,,,,,,,,,,,,,,,,,,,,,,,,,,,,,,,,,,,,,,,,,,,,,,,,,,,,,,,,,
,,5f23c201727aba1b35635785,65af56817219ae981f60fe0d,2024-01-23_08h03.46.695,bars,2023.2.3,Win32,60.24096386,657b66ea316d21385b68909f,,,,,,,,,,,295.6098,296.6078,296.608,297.1084,297.1085,297.3619,297.3619,134,134,301.8415,space,4.457,,301.8416,306.7753,space,4.9096,,0,7,7,0,1,150,bars/single000.png,bars/mask006.png,,,,,,,,,,,,,,,,,,,,,,,,,,,,,,,,,,,,,,,,,,,,,,,,,,,,,,,,,,,,,,,,
,,5f23c201727aba1b35635785,65af56817219ae981f60fe0d,2024-01-23_08h03.46.695,bars,2023.2.3,Win32,60.24096386,657b66ea316d21385b68909f,,,,,,,,,,,306.7882,307.791,307.7911,308.2914,308.2915,308.5455,308.5455,151,151,311.7126,space,3.1509,,311.7127,314.2081,space,2.4706,,0,8,8,8,1,160,bars/single008.png,bars/mask004.png,,,,,,,,,,,,,,,,,,,,,,,,,,,,,,,,,,,,,,,,,,,,,,,,,,,,,,,,,,,,,,,,
,,5f23c201727aba1b35635785,65af56817219ae981f60fe0d,2024-01-23_08h03.46.695,bars,2023.2.3,Win32,60.24096386,657b66ea316d21385b68909f,,,,,,,,,,,314.2097,315.208,315.2081,315.7083,315.7085,315.9578,315.958,15,15,322.5754,space,6.5854,,322.5758,327.2415,space,4.6338,,0,9,9,3,1,20,bars/single003.png,bars/mask005.png,,,,,,,,,,,,,,,,,,,,,,,,,,,,,,,,,,,,,,,,,,,,,,,,,,,,,,,,,,,,,,,,
,,5f23c201727aba1b35635785,65af56817219ae981f60fe0d,2024-01-23_08h03.46.695,bars,2023.2.3,Win32,60.24096386,657b66ea316d21385b68909f,,,,,,,,,,,,,,,,,,,,,,,,,,,,,,,,,,,,,327.2549,338.6098,space,11.3311,,,,,,,,,,,,,,,,,,,,,,,,,,,,,,,,,,,,,,,,,,,,,,,,,,,,,,,,,,,,
,,5f23c201727aba1b35635785,65af56817219ae981f60fe0d,2024-01-23_08h03.46.695,bars,2023.2.3,Win32,60.24096386,657b66ea316d21385b68909f,,,,,,,,,,,,,,,,,,,,,,,,,,,,,,,,,,,,,,,,,,338.6261,341.6266,right,2.9809,,341.6268,2,2,342.6252,0,0,0,0,1,9,1,9,2,,,,,,,,,,,,,,,,,,,,,,,,,,,,,,,,,,,,,,,,,
,,5f23c201727aba1b35635785,65af56817219ae981f60fe0d,2024-01-23_08h03.46.695,bars,2023.2.3,Win32,60.24096386,657b66ea316d21385b68909f,,,,,,,,,,,,,,,,,,,,,,,,,,,,,,,,,,,,,,,,,,342.6265,345.3759,left,2.7264,,345.3762,10,1,346.3747,0,1,1,1,1,10,0,10,1,,,,,,,,,,,,,,,,,,,,,,,,,,,,,,,,,,,,,,,,,
,,5f23c201727aba1b35635785,65af56817219ae981f60fe0d,2024-01-23_08h03.46.695,bars,2023.2.3,Win32,60.24096386,657b66ea316d21385b68909f,,,,,,,,,,,,,,,,,,,,,,,,,,,,,,,,,,,,,,,,,,346.3876,347.4092,left,1.0017,,347.4095,10,1,348.4078,0,2,2,2,1,10,2,10,2,,,,,,,,,,,,,,,,,,,,,,,,,,,,,,,,,,,,,,,,,
,,5f23c201727aba1b35635785,65af56817219ae981f60fe0d,2024-01-23_08h03.46.695,bars,2023.2.3,Win32,60.24096386,657b66ea316d21385b68909f,,,,,,,,,,,,,,,,,,,,,,,,,,,,,,,,,,,,,,,,,,348.409,349.1795,left,0.7508,,349.1796,7,1,350.1749,0,3,3,3,1,8,4,7,3,,,,,,,,,,,,,,,,,,,,,,,,,,,,,,,,,,,,,,,,,
,,5f23c201727aba1b35635785,65af56817219ae981f60fe0d,2024-01-23_08h03.46.695,bars,2023.2.3,Win32,60.24096386,657b66ea316d21385b68909f,,,,,,,,,,,,,,,,,,,,,,,,,,,,,,,,,,,,,,,,,,350.1761,351.696,left,1.5004,,351.6961,5,1,352.6912,0,4,4,4,1,6,2,5,1,,,,,,,,,,,,,,,,,,,,,,,,,,,,,,,,,,,,,,,,,
,,5f23c201727aba1b35635785,65af56817219ae981f60fe0d,2024-01-23_08h03.46.695,bars,2023.2.3,Win32,60.24096386,657b66ea316d21385b68909f,,,,,,,,,,,,,,,,,,,,,,,,,,,,,,,,,,,,,,,,,,352.7044,353.3591,right,0.6355,,353.3594,4,2,354.3578,0,5,5,5,1,4,4,4,4,,,,,,,,,,,,,,,,,,,,,,,,,,,,,,,,,,,,,,,,,
,,5f23c201727aba1b35635785,65af56817219ae981f60fe0d,2024-01-23_08h03.46.695,bars,2023.2.3,Win32,60.24096386,657b66ea316d21385b68909f,,,,,,,,,,,,,,,,,,,,,,,,,,,,,,,,,,,,,,,,,,354.3588,355.142,left,0.7533,,355.1423,1,1,356.1418,0,6,6,6,1,2,2,1,2,,,,,,,,,,,,,,,,,,,,,,,,,,,,,,,,,,,,,,,,,
,,5f23c201727aba1b35635785,65af56817219ae981f60fe0d,2024-01-23_08h03.46.695,bars,2023.2.3,Win32,60.24096386,657b66ea316d21385b68909f,,,,,,,,,,,,,,,,,,,,,,,,,,,,,,,,,,,,,,,,,,356.1428,356.7795,right,0.6174,,356.7796,1,2,357.7747,0,7,7,7,1,0,0,0,1,,,,,,,,,,,,,,,,,,,,,,,,,,,,,,,,,,,,,,,,,
,,5f23c201727aba1b35635785,65af56817219ae981f60fe0d,2024-01-23_08h03.46.695,bars,2023.2.3,Win32,60.24096386,657b66ea316d21385b68909f,,,,,,,,,,,,,,,,,,,,,,,,,,,,,,,,,,,,,,,,,,357.7759,358.8275,right,1.0322,,358.8276,0,2,359.8251,0,8,8,8,1,0,2,1,0,,,,,,,,,,,,,,,,,,,,,,,,,,,,,,,,,,,,,,,,,
,,5f23c201727aba1b35635785,65af56817219ae981f60fe0d,2024-01-23_08h03.46.695,bars,2023.2.3,Win32,60.24096386,657b66ea316d21385b68909f,,,,,,,,,,,,,,,,,,,,,,,,,,,,,,,,,,,,,,,,,,359.8264,360.5428,left,0.6946,,360.543,2,1,361.5412,0,9,9,9,1,2,4,2,3,,,,,,,,,,,,,,,,,,,,,,,,,,,,,,,,,,,,,,,,,
,,5f23c201727aba1b35635785,65af56817219ae981f60fe0d,2024-01-23_08h03.46.695,bars,2023.2.3,Win32,60.24096386,657b66ea316d21385b68909f,,,,,,,,,,,,,,,,,,,,,,,,,,,,,,,,,,,,,,,,,,361.5424,362.0795,left,0.5174,,362.0796,0,1,363.0745,0,10,10,10,1,0,2,0,3,,,,,,,,,,,,,,,,,,,,,,,,,,,,,,,,,,,,,,,,,
,,5f23c201727aba1b35635785,65af56817219ae981f60fe0d,2024-01-23_08h03.46.695,bars,2023.2.3,Win32,60.24096386,657b66ea316d21385b68909f,,,,,,,,,,,,,,,,,,,,,,,,,,,,,,,,,,,,,,,,,,363.0757,364.1256,left,1.0205,,364.1261,0,1,365.1246,0,11,11,11,1,0,4,0,3,,,,,,,,,,,,,,,,,,,,,,,,,,,,,,,,,,,,,,,,,
,,5f23c201727aba1b35635785,65af56817219ae981f60fe0d,2024-01-23_08h03.46.695,bars,2023.2.3,Win32,60.24096386,657b66ea316d21385b68909f,,,,,,,,,,,,,,,,,,,,,,,,,,,,,,,,,,,,,,,,,,365.1262,365.6964,right,0.551,,365.6965,6,2,366.6913,0,12,12,12,1,2,6,1,6,,,,,,,,,,,,,,,,,,,,,,,,,,,,,,,,,,,,,,,,,
,,5f23c201727aba1b35635785,65af56817219ae981f60fe0d,2024-01-23_08h03.46.695,bars,2023.2.3,Win32,60.24096386,657b66ea316d21385b68909f,,,,,,,,,,,,,,,,,,,,,,,,,,,,,,,,,,,,,,,,,,366.6925,367.3627,left,0.6508,,367.3628,1,1,368.358,0,13,13,13,1,0,4,1,3,,,,,,,,,,,,,,,,,,,,,,,,,,,,,,,,,,,,,,,,,
,,5f23c201727aba1b35635785,65af56817219ae981f60fe0d,2024-01-23_08h03.46.695,bars,2023.2.3,Win32,60.24096386,657b66ea316d21385b68909f,,,,,,,,,,,,,,,,,,,,,,,,,,,,,,,,,,,,,,,,,,368.3589,368.9423,right,0.5527,,368.9424,7,2,369.9414,0,14,14,14,1,2,6,2,7,,,,,,,,,,,,,,,,,,,,,,,,,,,,,,,,,,,,,,,,,
,,5f23c201727aba1b35635785,65af56817219ae981f60fe0d,2024-01-23_08h03.46.695,bars,2023.2.3,Win32,60.24096386,657b66ea316d21385b68909f,,,,,,,,,,,,,,,,,,,,,,,,,,,,,,,,,,,,,,,,,,369.9427,370.7426,left,0.7699,,370.7428,3,1,371.7412,0,15,15,15,1,4,8,3,9,,,,,,,,,,,,,,,,,,,,,,,,,,,,,,,,,,,,,,,,,
,,5f23c201727aba1b35635785,65af56817219ae981f60fe0d,2024-01-23_08h03.46.695,bars,2023.2.3,Win32,60.24096386,657b66ea316d21385b68909f,,,,,,,,,,,,,,,,,,,,,,,,,,,,,,,,,,,,,,,,,,371.7422,372.1429,right,0.3776,,372.143,7,2,373.1416,0,16,16,16,1,6,6,7,7,,,,,,,,,,,,,,,,,,,,,,,,,,,,,,,,,,,,,,,,,
,,5f23c201727aba1b35635785,65af56817219ae981f60fe0d,2024-01-23_08h03.46.695,bars,2023.2.3,Win32,60.24096386,657b66ea316d21385b68909f,,,,,,,,,,,,,,,,,,,,,,,,,,,,,,,,,,,,,,,,,,373.1427,373.5759,right,0.4097,,373.5761,5,2,374.575,0,17,17,17,1,8,4,9,5,,,,,,,,,,,,,,,,,,,,,,,,,,,,,,,,,,,,,,,,,
,,5f23c201727aba1b35635785,65af56817219ae981f60fe0d,2024-01-23_08h03.46.695,bars,2023.2.3,Win32,60.24096386,657b66ea316d21385b68909f,,,,,,,,,,,,,,,,,,,,,,,,,,,,,,,,,,,,,,,,,,374.5763,375.0796,left,0.4843,,375.0796,5,1,376.0746,0,18,18,18,1,6,2,5,1,,,,,,,,,,,,,,,,,,,,,,,,,,,,,,,,,,,,,,,,,
,,5f23c201727aba1b35635785,65af56817219ae981f60fe0d,2024-01-23_08h03.46.695,bars,2023.2.3,Win32,60.24096386,657b66ea316d21385b68909f,,,,,,,,,,,,,,,,,,,,,,,,,,,,,,,,,,,,,,,,,,376.0757,376.5596,left,0.4521,,376.5596,7,1,377.558,0,19,19,19,1,8,0,7,0,,,,,,,,,,,,,,,,,,,,,,,,,,,,,,,,,,,,,,,,,
,,5f23c201727aba1b35635785,65af56817219ae981f60fe0d,2024-01-23_08h03.46.695,bars,2023.2.3,Win32,60.24096386,657b66ea316d21385b68909f,,,,,,,,,,,,,,,,,,,,,,,,,,,,,,,,,,,,,,,,,,,,,,,,,,,,,,,,,,,,377.5604,391.06,space,13.4725,,,,,,,,,,,,,,,,,,,,,,,,,,,,,,,,,,,,,
,,5f23c201727aba1b35635785,65af56817219ae981f60fe0d,2024-01-23_08h03.46.695,bars,2023.2.3,Win32,60.24096386,657b66ea316d21385b68909f,,,,,,,,,,,393.7809,394.7749,,,395.276,395.5249,,36,36,,,,,,,,,,,,,,,,bars/007.png,bars/mask006.png,,,,,,,,,,,,1,2,,,,,,,0,3,0,3,,,,,,391.0766,393.7763,space,2.68,,394.7756,395.2757,395.5257,399.4265,space,3.8684,,399.4269,41,19,400.4256,400.4263,411.5935,space,11.1349,,0,0,0,0,1,175,55,,,,,,,,
,,5f23c201727aba1b35635785,65af56817219ae981f60fe0d,2024-01-23_08h03.46.695,bars,2023.2.3,Win32,60.24096386,657b66ea316d21385b68909f,,,,,,,,,,,411.6063,412.6083,,,413.1083,413.3581,,56,56,,,,,,,,,,,,,,,,bars/028.png,bars/mask004.png,,,,,,,,,,,,0,1,,,,,,,2,5,0,6,,,,,,,,,,,412.6084,413.1081,413.3582,419.211,space,5.8322,,419.2111,11,64,420.208,420.2083,426.1462,space,5.9133,,0,1,1,1,1,45,120,,,,,,,,
,,5f23c201727aba1b35635785,65af56817219ae981f60fe0d,2024-01-23_08h03.46.695,bars,2023.2.3,Win32,60.24096386,657b66ea316d21385b68909f,,,,,,,,,,,426.1603,427.1581,,,427.6458,427.8956,,143,143,,,,,,,,,,,,,,,,bars/024.png,bars/mask003.png,,,,,,,,,,,,0,1,,,,,,,0,7,0,6,,,,,,,,,,,427.1581,427.6457,427.8958,435.4613,space,7.5488,,435.4614,23,27,436.4581,436.4582,441.5297,space,5.0487,,0,2,2,2,1,120,170,,,,,,,,
,,5f23c201727aba1b35635785,65af56817219ae981f60fe0d,2024-01-23_08h03.46.695,bars,2023.2.3,Win32,60.24096386,657b66ea316d21385b68909f,,,,,,,,,,,441.5439,442.5415,,,443.0419,443.2914,,54,54,,,,,,,,,,,,,,,,bars/026.png,bars/mask005.png,,,,,,,,,,,,1,1,,,,,,,2,5,2,5,,,,,,,,,,,442.5416,443.0417,443.2914,448.6262,space,5.3021,,448.6265,19,31,449.6252,449.6255,453.2591,space,3.6042,,0,3,3,3,1,35,85,,,,,,,,
,,5f23c201727aba1b35635785,65af56817219ae981f60fe0d,2024-01-23_08h03.46.695,bars,2023.2.3,Win32,60.24096386,657b66ea316d21385b68909f,,,,,,,,,,,453.2719,454.2749,,,454.7755,455.0247,,133,-47,,,,,,,,,,,,,,,,bars/005.png,bars/mask006.png,,,,,,,,,,,,5,2,,,,,,,0,7,0,7,,,,,,,,,,,454.275,454.7752,455.0248,461.3427,space,6.2939,,461.3428,57,7,462.3417,462.3419,465.0974,space,2.7317,,0,4,4,4,1,10,140,,,,,,,,
,,5f23c201727aba1b35635785,65af56817219ae981f60fe0d,2024-01-23_08h03.46.695,bars,2023.2.3,Win32,60.24096386,657b66ea316d21385b68909f,,,,,,,,,,,465.1109,466.1087,,,466.6126,466.8581,,32,32,,,,,,,,,,,,,,,,bars/029.png,bars/mask007.png,,,,,,,,,,,,3,2,,,,,,,2,5,3,5,,,,,,,,,,,466.1089,466.6125,466.8583,470.2962,space,3.4172,,470.2963,58,13,471.2961,471.2962,473.7422,space,2.414,,0,5,5,5,1,90,45,,,,,,,,
,,5f23c201727aba1b35635785,65af56817219ae981f60fe0d,2024-01-23_08h03.46.695,bars,2023.2.3,Win32,60.24096386,657b66ea316d21385b68909f,,,,,,,,,,,473.7436,474.7415,,,475.2418,475.4916,,134,134,,,,,,,,,,,,,,,,bars/033.png,bars/mask003.png,,,,,,,,,,,,1,2,,,,,,,0,3,0,2,,,,,,,,,,,474.7415,475.2417,475.4918,480.2799,space,4.7676,,480.28,71,21,481.275,481.2752,484.9087,space,3.6033,,0,6,6,6,1,25,155,,,,,,,,
,,5f23c201727aba1b35635785,65af56817219ae981f60fe0d,2024-01-23_08h03.46.695,bars,2023.2.3,Win32,60.24096386,657b66ea316d21385b68909f,,,,,,,,,,,484.9223,485.9254,,,486.4251,486.675,,134,134,,,,,,,,,,,,,,,,bars/028.png,bars/mask006.png,,,,,,,,,,,,3,2,,,,,,,2,5,3,5,,,,,,,,,,,485.9255,486.425,486.6751,489.7086,space,3.0116,,489.7088,89,14,490.7084,490.7086,495.2136,space,4.4832,,0,7,7,7,1,45,120,,,,,,,,
,,5f23c201727aba1b35635785,65af56817219ae981f60fe0d,2024-01-23_08h03.46.695,bars,2023.2.3,Win32,60.24096386,657b66ea316d21385b68909f,,,,,,,,,,,495.2269,496.225,,,496.7252,496.975,,130,130,,,,,,,,,,,,,,,,bars/021.png,bars/mask005.png,,,,,,,,,,,,0,1,,,,,,,0,7,0,8,,,,,,,,,,,496.2252,496.7249,496.9751,503.1431,space,6.1438,,503.1435,25,60,504.1419,504.1422,508.9467,space,4.7795,,0,8,8,8,1,155,70,,,,,,,,
,,5f23c201727aba1b35635785,65af56817219ae981f60fe0d,2024-01-23_08h03.46.695,bars,2023.2.3,Win32,60.24096386,657b66ea316d21385b68909f,,,,,,,,,,,508.9608,509.9583,,,510.4591,510.7087,,179,179,,,,,,,,,,,,,,,,bars/033.png,bars/mask003.png,,,,,,,,,,,,1,2,,,,,,,2,5,3,5,,,,,,,,,,,509.9583,510.4589,510.7088,515.309,space,4.5782,,515.3091,26,24,516.3083,516.3085,522.0927,space,5.7488,,0,9,9,9,1,25,155,,,,,,,,
,,5f23c201727aba1b35635785,65af56817219ae981f60fe0d,2024-01-23_08h03.46.695,bars,2023.2.3,Win32,60.24096386,657b66ea316d21385b68909f,,,,,,,,,,,522.1056,523.1083,,,523.6086,523.8585,,101,101,,,,,,,,,,,,,,,,bars/034.png,bars/mask002.png,,,,,,,,,,,,0,1,,,,,,,0,7,1,7,,,,,,,,,,,523.1085,523.6085,523.8586,526.9297,space,3.0506,,526.9298,24,36,527.9251,527.9252,530.9589,space,3.0064,,0,10,10,10,1,125,65,,,,,,,,
,,5f23c201727aba1b35635785,65af56817219ae981f60fe0d,2024-01-23_08h03.46.695,bars,2023.2.3,Win32,60.24096386,657b66ea316d21385b68909f,,,,,,,,,,,530.9719,531.9753,,,532.4755,532.7256,,7,7,,,,,,,,,,,,,,,,bars/013.png,bars/mask001.png,,,,,,,,,,,,9,2,,,,,,,0,9,1,10,,,,,,,,,,,531.9756,532.4754,532.7257,540.8446,space,8.0988,,540.8447,68,3,541.8419,541.8419,548.2771,space,6.4085,,0,11,11,11,1,75,10,,,,,,,,
,,5f23c201727aba1b35635785,65af56817219ae981f60fe0d,2024-01-23_08h03.46.695,bars,2023.2.3,Win32,60.24096386,657b66ea316d21385b68909f,,,,,,,,,,,548.289,549.2919,,,549.7919,550.0417,,74,74,,,,,,,,,,,,,,,,bars/029.png,bars/mask007.png,,,,,,,,,,,,1,1,,,,,,,2,7,2,7,,,,,,,,,,,549.292,549.7918,550.0419,554.0634,space,4.0007,,554.0635,16,29,555.0584,555.0585,560.2091,space,5.116,,0,12,12,12,1,90,45,,,,,,,,
,,5f23c201727aba1b35635785,65af56817219ae981f60fe0d,2024-01-23_08h03.46.695,bars,2023.2.3,Win32,60.24096386,657b66ea316d21385b68909f,,,,,,,,,,,560.2222,561.2251,,,561.7252,561.975,,173,-7,,,,,,,,,,,,,,,,bars/022.png,bars/mask002.png,,,,,,,,,,,,0,2,,,,,,,4,5,3,5,,,,,,,,,,,561.2253,561.725,561.9753,565.5969,space,3.6015,,565.5969,78,27,566.5942,566.5942,569.3427,space,2.718,,0,13,13,13,1,95,20,,,,,,,,
,,5f23c201727aba1b35635785,65af56817219ae981f60fe0d,2024-01-23_08h03.46.695,bars,2023.2.3,Win32,60.24096386,657b66ea316d21385b68909f,,,,,,,,,,,569.3437,570.3421,,,570.8422,571.0918,,63,63,,,,,,,,,,,,,,,,bars/046.png,bars/mask003.png,,,,,,,,,,,,1,2,,,,,,,2,3,1,3,,,,,,,,,,,570.3422,570.8422,571.0919,574.5421,space,3.4187,,574.5426,88,22,575.5419,575.5419,577.9093,space,2.3443,,0,14,14,14,1,155,85,,,,,,,,
,,5f23c201727aba1b35635785,65af56817219ae981f60fe0d,2024-01-23_08h03.46.695,bars,2023.2.3,Win32,60.24096386,657b66ea316d21385b68909f,,,,,,,,,,,577.9109,578.9088,,,579.4087,579.6586,,8,8,,,,,,,,,,,,,,,,bars/035.png,bars/mask007.png,,,,,,,,,,,,2,1,,,,,,,4,1,3,3,,,,,,,,,,,578.9091,579.4086,579.6586,582.1922,space,2.5079,,582.1923,13,52,583.1923,583.1925,585.2259,space,1.9987,,0,15,15,15,1,175,60,,,,,,,,
,,5f23c201727aba1b35635785,65af56817219ae981f60fe0d,2024-01-23_08h03.46.695,bars,2023.2.3,Win32,60.24096386,657b66ea316d21385b68909f,,,,,,,,,,,585.2273,586.229,,,586.7258,586.9794,,101,101,,,,,,,,,,,,,,,,bars/044.png,bars/mask001.png,,,,,,,,,,,,1,1,,,,,,,6,0,5,0,,,,,,,,,,,586.2291,586.7257,586.9794,590.2761,space,3.2716,,590.2766,26,54,591.2752,591.2753,593.8928,space,2.5936,,0,16,16,16,1,75,155,,,,,,,,
,,5f23c201727aba1b35635785,65af56817219ae981f60fe0d,2024-01-23_08h03.46.695,bars,2023.2.3,Win32,60.24096386,657b66ea316d21385b68909f,,,,,,,,,,,593.8937,594.8919,,,595.3922,595.642,,134,-46,,,,,,,,,,,,,,,,bars/029.png,bars/mask006.png,,,,,,,,,,,,0,1,,,,,,,4,2,5,2,,,,,,,,,,,594.8919,595.3921,595.642,600.9265,space,5.2601,,600.9265,44,89,601.9253,601.9254,613.5096,space,11.5542,,0,17,17,17,1,90,45,,,,,,,,
,,5f23c201727aba1b35635785,65af56817219ae981f60fe0d,2024-01-23_08h03.46.695,bars,2023.2.3,Win32,60.24096386,657b66ea316d21385b68909f,,,,,,,,,,,613.5232,614.5254,,,615.0255,615.2752,,178,178,,,,,,,,,,,,,,,,bars/012.png,bars/mask009.png,,,,,,,,,,,,2,2,,,,,,,6,4,7,4,,,,,,,,,,,614.5255,615.0252,615.2753,617.7471,space,2.4528,,617.7472,88,17,618.742,618.742,620.343,space,1.5658,,0,18,18,18,1,90,15,,,,,,,,
,,5f23c201727aba1b35635785,65af56817219ae981f60fe0d,2024-01-23_08h03.46.695,bars,2023.2.3,Win32,60.24096386,657b66ea316d21385b68909f,,,,,,,,,,,620.3441,621.3424,,,621.842,622.0922,,111,111,,,,,,,,,,,,,,,,bars/001.png,bars/mask008.png,,,,,,,,,,,,2,1,,,,,,,4,2,6,3,,,,,,,,,,,621.3424,621.842,622.0922,624.43,space,2.3173,,624.4301,19,26,625.4255,625.4257,626.2927,space,0.8367,,0,19,19,19,1,130,85,,,,,,,,
,,5f23c201727aba1b35635785,65af56817219ae981f60fe0d,2024-01-23_08h03.46.695,bars,2023.2.3,Win32,60.24096386,657b66ea316d21385b68909f,,,,,,,,,,,626.294,627.2925,,,627.7927,628.0421,,171,171,,,,,,,,,,,,,,,,bars/048.png,bars/mask004.png,,,,,,,,,,,,3,2,,,,,,,6,4,8,4,,,,,,,,,,,627.2927,627.7925,628.0422,632.2281,space,4.1652,,632.2281,59,4,633.2257,633.2258,635.2096,space,1.9536,,0,20,20,20,1,50,175,,,,,,,,
,,5f23c201727aba1b35635785,65af56817219ae981f60fe0d,2024-01-23_08h03.46.695,bars,2023.2.3,Win32,60.24096386,657b66ea316d21385b68909f,,,,,,,,,,,635.2104,636.2086,,,636.7087,636.9587,,140,140,,,,,,,,,,,,,,,,bars/021.png,bars/mask009.png,,,,,,,,,,,,5,1,,,,,,,8,6,9,6,,,,,,,,,,,636.2087,636.7087,636.9588,643.9303,space,6.9509,,643.9304,15,70,644.9257,644.9259,669.1091,space,24.1488,,0,21,21,21,1,155,70,,,,,,,,
,,5f23c201727aba1b35635785,65af56817219ae981f60fe0d,2024-01-23_08h03.46.695,bars,2023.2.3,Win32,60.24096386,657b66ea316d21385b68909f,,,,,,,,,,,669.1231,670.1254,,,670.6259,670.8753,,173,173,,,,,,,,,,,,,,,,bars/040.png,bars/mask006.png,,,,,,,,,,,,5,2,,,,,,,10,8,9,8,,,,,,,,,,,670.1255,670.6256,670.8754,674.7765,space,3.875,,674.7767,33,12,675.7797,675.7797,677.443,space,1.6324,,0,22,22,22,1,140,5,,,,,,,,
,,5f23c201727aba1b35635785,65af56817219ae981f60fe0d,2024-01-23_08h03.46.695,bars,2023.2.3,Win32,60.24096386,657b66ea316d21385b68909f,,,,,,,,,,,677.4439,678.4444,,,678.9424,679.1923,,115,115,,,,,,,,,,,,,,,,bars/004.png,bars/mask003.png,,,,,,,,,,,,7,2,,,,,,,8,10,7,10,,,,,,,,,,,678.4445,678.9422,679.1926,684.576,space,5.3519,,684.5763,90,10,685.5755,685.5755,687.8262,space,2.2159,,0,23,23,23,1,25,125,,,,,,,,
,,5f23c201727aba1b35635785,65af56817219ae981f60fe0d,2024-01-23_08h03.46.695,bars,2023.2.3,Win32,60.24096386,657b66ea316d21385b68909f,,,,,,,,,,,687.8272,688.8255,,,689.3278,689.5756,,122,-58,,,,,,,,,,,,,,,,bars/004.png,bars/mask007.png,,,,,,,,,,,,7,2,,,,,,,10,8,10,8,,,,,,,,,,,688.8256,689.3277,689.5756,694.0092,space,4.4068,,694.0099,83,3,695.0089,695.0089,696.9759,space,1.9412,,0,24,24,24,1,25,125,,,,,,,,
,,5f23c201727aba1b35635785,65af56817219ae981f60fe0d,2024-01-23_08h03.46.695,bars,2023.2.3,Win32,60.24096386,657b66ea316d21385b68909f,,,,,,,,,,,696.9774,697.9754,,,698.4757,698.7254,,54,54,,,,,,,,,,,,,,,,bars/029.png,bars/mask001.png,,,,,,,,,,,,4,2,,,,,,,8,6,10,6,,,,,,,,,,,697.9755,698.4756,698.7256,701.5093,space,2.753,,701.5095,36,9,702.5089,702.5089,704.7596,space,2.2254,,0,25,25,25,1,90,45,,,,,,,,
,,5f23c201727aba1b35635785,65af56817219ae981f60fe0d,2024-01-23_08h03.46.695,bars,2023.2.3,Win32,60.24096386,657b66ea316d21385b68909f,,,,,,,,,,,704.7608,705.759,,,706.2592,706.5089,,86,86,,,,,,,,,,,,,,,,bars/038.png,bars/mask005.png,,,,,,,,,,,,2,2,,,,,,,6,4,6,4,,,,,,,,,,,705.759,706.259,706.509,710.2264,space,3.6855,,710.2266,79,16,711.2257,711.2258,714.576,space,3.3174,,0,26,26,26,1,165,70,,,,,,,,
,,5f23c201727aba1b35635785,65af56817219ae981f60fe0d,2024-01-23_08h03.46.695,bars,2023.2.3,Win32,60.24096386,657b66ea316d21385b68909f,,,,,,,,,,,714.5889,715.5929,,,716.0924,716.3266,,5,5,,,,,,,,,,,,,,,,bars/023.png,bars/mask001.png,,,,,,,,,,,,4,1,,,,,,,8,6,8,7,,,,,,,,,,,715.5929,716.0923,716.3269,723.4638,space,7.1172,,723.4639,15,70,724.4596,724.4596,726.5099,space,2.0228,,0,27,27,27,1,20,115,,,,,,,,
,,5f23c201727aba1b35635785,65af56817219ae981f60fe0d,2024-01-23_08h03.46.695,bars,2023.2.3,Win32,60.24096386,657b66ea316d21385b68909f,,,,,,,,,,,726.5109,727.509,,,728.0096,728.2591,,15,15,,,,,,,,,,,,,,,,bars/036.png,bars/mask002.png,,,,,,,,,,,,8,2,,,,,,,6,8,8,10,,,,,,,,,,,727.509,728.0094,728.2593,731.6605,space,3.3796,,731.6606,50,5,732.6592,732.6594,739.493,space,6.8071,,0,28,28,28,1,145,20,,,,,,,,
,,5f23c201727aba1b35635785,65af56817219ae981f60fe0d,2024-01-23_08h03.46.695,bars,2023.2.3,Win32,60.24096386,657b66ea316d21385b68909f,,,,,,,,,,,739.506,740.509,,,741.0097,741.2465,,28,28,,,,,,,,,,,,,,,,bars/022.png,bars/mask009.png,,,,,,,,,,,,4,2,,,,,,,8,6,7,6,,,,,,,,,,,740.509,741.0096,741.2465,744.2303,space,2.9671,,744.2303,67,8,745.2259,745.226,747.7261,space,2.4755,,0,29,29,29,1,95,20,,,,,,,,
,,5f23c201727aba1b35635785,65af56817219ae981f60fe0d,2024-01-23_08h03.46.695,bars,2023.2.3,Win32,60.24096386,657b66ea316d21385b68909f,,,,,,,,,,,747.7276,748.7256,,,749.2257,749.4781,,115,115,,,,,,,,,,,,,,,,bars/005.png,bars/mask008.png,,,,,,,,,,,,1,2,,,,,,,10,8,10,8,,,,,,,,,,,748.7256,749.2257,749.4782,753.8805,space,4.3837,,753.8806,75,25,754.8758,754.876,756.9977,space,2.0996,,0,30,30,30,1,10,140,,,,,,,,
,,5f23c201727aba1b35635785,65af56817219ae981f60fe0d,2024-01-23_08h03.46.695,bars,2023.2.3,Win32,60.24096386,657b66ea316d21385b68909f,,,,,,,,,,,756.998,757.9924,,,758.4924,758.7423,,115,115,,,,,,,,,,,,,,,,bars/004.png,bars/mask009.png,,,,,,,,,,,,6,2,,,,,,,8,10,6,9,,,,,,,,,,,757.9924,758.4924,758.7426,761.2974,space,2.5339,,761.2975,90,10,762.2925,762.2926,765.2473,space,2.9337,,0,31,31,31,1,25,125,,,,,,,,
,,5f23c201727aba1b35635785,65af56817219ae981f60fe0d,2024-01-23_08h03.46.695,bars,2023.2.3,Win32,60.24096386,657b66ea316d21385b68909f,,,,,,,,,,,765.2617,766.2591,,,766.7616,767.0094,,52,-128,,,,,,,,,,,,,,,,bars/025.png,bars/mask006.png,,,,,,,,,,,,5,2,,,,,,,6,8,6,8,,,,,,,,,,,766.2591,766.7615,767.0096,773.0472,space,6.0172,,773.0473,53,12,774.0429,774.043,775.4928,space,1.4262,,0,32,32,32,1,105,40,,,,,,,,
,,5f23c201727aba1b35635785,65af56817219ae981f60fe0d,2024-01-23_08h03.46.695,bars,2023.2.3,Win32,60.24096386,657b66ea316d21385b68909f,,,,,,,,,,,775.4943,776.4925,,,776.9926,777.2425,,94,94,,,,,,,,,,,,,,,,bars/006.png,bars/mask006.png,,,,,,,,,,,,8,2,,,,,,,8,10,8,10,,,,,,,,,,,776.4925,776.9925,777.2425,783.9643,space,6.7008,,783.9643,59,6,784.9599,784.9601,787.7764,space,2.7881,,0,33,33,33,1,35,100,,,,,,,,
,,5f23c201727aba1b35635785,65af56817219ae981f60fe0d,2024-01-23_08h03.46.695,bars,2023.2.3,Win32,60.24096386,657b66ea316d21385b68909f,,,,,,,,,,,787.7777,788.7763,,,789.2758,789.5262,,21,21,,,,,,,,,,,,,,,,bars/036.png,bars/mask000.png,,,,,,,,,,,,10,2,,,,,,,6,8,6,10,,,,,,,,,,,788.7764,789.2758,789.5263,796.8263,space,7.2741,,796.8266,56,1,797.8257,797.8258,800.9763,space,3.1159,,0,34,34,34,1,145,20,,,,,,,,
,,5f23c201727aba1b35635785,65af56817219ae981f60fe0d,2024-01-23_08h03.46.695,bars,2023.2.3,Win32,60.24096386,657b66ea316d21385b68909f,,,,,,,,,,,800.9778,801.9757,,,802.4802,802.7264,,22,22,,,,,,,,,,,,,,,,bars/036.png,bars/mask009.png,,,,,,,,,,,,6,2,,,,,,,4,6,4,6,,,,,,,,,,,801.9758,802.4802,802.7265,808.464,space,5.7172,,808.4641,57,2,809.4599,809.46,816.5101,space,7.0272,,0,35,35,35,1,145,20,,,,,,,,
,,5f23c201727aba1b35635785,65af56817219ae981f60fe0d,2024-01-23_08h03.46.695,bars,2023.2.3,Win32,60.24096386,657b66ea316d21385b68909f,,,,,,,,,,,816.524,817.5259,,,818.0261,818.276,,100,100,,,,,,,,,,,,,,,,bars/021.png,bars/mask000.png,,,,,,,,,,,,0,2,,,,,,,2,4,2,4,,,,,,,,,,,817.526,818.0259,818.2761,821.1929,space,2.8852,,821.193,55,30,822.1925,822.1926,825.7267,space,3.5088,,0,36,36,36,1,155,70,,,,,,,,
,,5f23c201727aba1b35635785,65af56817219ae981f60fe0d,2024-01-23_08h03.46.695,bars,2023.2.3,Win32,60.24096386,657b66ea316d21385b68909f,,,,,,,,,,,825.7399,826.7432,,,827.2427,827.4927,,119,119,,,,,,,,,,,,,,,,bars/000.png,bars/mask002.png,,,,,,,,,,,,1,2,,,,,,,4,6,4,4,,,,,,,,,,,826.7433,827.2427,827.4928,828.7978,space,1.2998,,828.7978,79,26,829.7928,829.7929,832.2935,space,2.469,,0,37,37,37,1,40,145,,,,,,,,
,,5f23c201727aba1b35635785,65af56817219ae981f60fe0d,2024-01-23_08h03.46.695,bars,2023.2.3,Win32,60.24096386,657b66ea316d21385b68909f,,,,,,,,,,,832.2946,833.293,,,833.7927,834.0426,,132,-48,,,,,,,,,,,,,,,,bars/034.png,bars/mask003.png,,,,,,,,,,,,1,1,,,,,,,2,8,1,7,,,,,,,,,,,833.2932,833.7926,834.0428,838.3097,space,4.2435,,838.3099,7,67,839.3124,839.3124,841.41,space,2.0646,,0,38,38,38,1,125,65,,,,,,,,
,,5f23c201727aba1b35635785,65af56817219ae981f60fe0d,2024-01-23_08h03.46.695,bars,2023.2.3,Win32,60.24096386,657b66ea316d21385b68909f,,,,,,,,,,,841.4114,842.4099,,,842.9102,843.1593,,144,144,,,,,,,,,,,,,,,,bars/005.png,bars/mask008.png,,,,,,,,,,,,9,2,,,,,,,4,10,5,10,,,,,,,,,,,842.4102,842.9101,843.1595,847.743,space,4.5519,,847.7433,46,4,848.7428,848.7431,851.51,space,2.7314,,0,39,39,39,1,10,140,,,,,,,,
,,5f23c201727aba1b35635785,65af56817219ae981f60fe0d,2024-01-23_08h03.46.695,bars,2023.2.3,Win32,60.24096386,657b66ea316d21385b68909f,,,,,,,,,,,851.5114,852.5097,,,853.0101,853.2598,,11,11,,,,,,,,,,,,,,,,bars/040.png,bars/mask006.png,,,,,,,,,,,,6,2,,,,,,,6,8,7,7,,,,,,,,,,,852.5098,853.01,853.26,855.2931,space,2.0025,,855.2934,51,6,856.2927,856.2927,857.6941,space,1.369,,0,40,40,40,1,140,5,,,,,,,,
,,5f23c201727aba1b35635785,65af56817219ae981f60fe0d,2024-01-23_08h03.46.695,bars,2023.2.3,Win32,60.24096386,657b66ea316d21385b68909f,,,,,,,,,,,857.695,858.6927,,,859.197,859.4453,,85,85,,,,,,,,,,,,,,,,bars/018.png,bars/mask002.png,,,,,,,,,,,,6,2,,,,,,,4,6,5,7,,,,,,,,,,,858.6928,859.197,859.4453,863.0763,space,3.6114,,863.0767,65,5,864.0804,864.0804,868.8931,space,4.7888,,0,41,41,41,1,150,90,,,,,,,,
,,5f23c201727aba1b35635785,65af56817219ae981f60fe0d,2024-01-23_08h03.46.695,bars,2023.2.3,Win32,60.24096386,657b66ea316d21385b68909f,,,,,,,,,,,868.907,869.9098,,,870.4099,870.6601,,47,47,,,,,,,,,,,,,,,,bars/035.png,bars/mask006.png,,,,,,,,,,,,5,2,,,,,,,6,8,6,9,,,,,,,,,,,869.9099,870.4098,870.6602,874.5641,space,3.8842,,874.5642,52,13,875.5601,875.5602,876.9265,space,1.3406,,0,42,42,42,1,175,60,,,,,,,,
,,5f23c201727aba1b35635785,65af56817219ae981f60fe0d,2024-01-23_08h03.46.695,bars,2023.2.3,Win32,60.24096386,657b66ea316d21385b68909f,,,,,,,,,,,876.9279,877.9262,,,878.4265,878.6764,,138,138,,,,,,,,,,,,,,,,bars/028.png,bars/mask004.png,,,,,,,,,,,,3,2,,,,,,,8,6,9,7,,,,,,,,,,,877.9263,878.4265,878.6765,881.8309,space,3.1336,,881.8309,87,18,882.8264,882.8266,884.3444,space,1.4903,,0,43,43,43,1,45,120,,,,,,,,
,,5f23c201727aba1b35635785,65af56817219ae981f60fe0d,2024-01-23_08h03.46.695,bars,2023.2.3,Win32,60.24096386,657b66ea316d21385b68909f,,,,,,,,,,,884.3448,885.347,,,885.8428,886.0928,,27,27,,,,,,,,,,,,,,,,bars/023.png,bars/mask004.png,,,,,,,,,,,,4,1,,,,,,,6,8,5,10,,,,,,,,,,,885.3471,885.8428,886.0928,894.2143,space,8.1007,,894.2143,7,88,895.2099,895.2101,898.5103,space,3.2721,,0,44,44,44,1,20,115,,,,,,,,
,,5f23c201727aba1b35635785,65af56817219ae981f60fe0d,2024-01-23_08h03.46.695,bars,2023.2.3,Win32,60.24096386,657b66ea316d21385b68909f,,,,,,,,,,,898.5112,899.5095,,,900.0098,900.2599,,16,16,,,,,,,,,,,,,,,,bars/032.png,bars/mask004.png,,,,,,,,,,,,8,2,,,,,,,4,10,4,9,,,,,,,,,,,899.5096,900.0097,900.2601,903.3312,space,3.051,,903.3312,71,4,904.3261,904.3262,907.0105,space,2.6501,,0,45,45,45,1,125,20,,,,,,,,
,,5f23c201727aba1b35635785,65af56817219ae981f60fe0d,2024-01-23_08h03.46.695,bars,2023.2.3,Win32,60.24096386,657b66ea316d21385b68909f,,,,,,,,,,,907.0116,908.0097,,,908.5102,908.76,,129,129,,,,,,,,,,,,,,,,bars/043.png,bars/mask004.png,,,,,,,,,,,,9,2,,,,,,,2,8,3,9,,,,,,,,,,,908.0099,908.5101,908.76,913.2267,space,4.4384,,913.2268,81,1,914.2262,914.2262,919.9313,space,5.6826,,0,46,46,46,1,30,130,,,,,,,,
,,5f23c201727aba1b35635785,65af56817219ae981f60fe0d,2024-01-23_08h03.46.695,bars,2023.2.3,Win32,60.24096386,657b66ea316d21385b68909f,,,,,,,,,,,919.9454,920.9453,,,921.4434,921.693,,132,132,,,,,,,,,,,,,,,,bars/016.png,bars/mask002.png,,,,,,,,,,,,0,2,,,,,,,4,6,4,9,,,,,,,,,,,920.9453,921.4433,921.6931,925.2141,space,3.5005,,925.2142,88,33,926.2099,926.21,927.7933,space,1.5541,,0,47,47,47,1,40,165,,,,,,,,
,,5f23c201727aba1b35635785,65af56817219ae981f60fe0d,2024-01-23_08h03.46.695,bars,2023.2.3,Win32,60.24096386,657b66ea316d21385b68909f,,,,,,,,,,,927.7949,928.7929,,,929.293,929.5429,,83,83,,,,,,,,,,,,,,,,bars/034.png,bars/mask006.png,,,,,,,,,,,,3,2,,,,,,,2,8,1,7,,,,,,,,,,,928.793,929.2929,929.543,933.2308,space,3.6673,,933.2309,42,18,934.2262,934.2262,935.977,space,1.723,,0,48,48,48,1,125,65,,,,,,,,
,,5f23c201727aba1b35635785,65af56817219ae981f60fe0d,2024-01-23_08h03.46.695,bars,2023.2.3,Win32,60.24096386,657b66ea316d21385b68909f,,,,,,,,,,,935.9781,936.9763,,,937.4764,937.7263,,56,56,,,,,,,,,,,,,,,,bars/047.png,bars/mask009.png,,,,,,,,,,,,3,2,,,,,,,0,6,0,6,,,,,,,,,,,936.9764,937.4763,937.7264,942.8979,space,5.1507,,942.898,41,14,943.8929,943.893,946.5767,space,2.656,,0,49,49,49,1,15,70,,,,,,,,
,,5f23c201727aba1b35635785,65af56817219ae981f60fe0d,2024-01-23_08h03.46.695,bars,2023.2.3,Win32,60.24096386,657b66ea316d21385b68909f,,,,,,,,,,,,,,,,,,,,,,,,,,,,,,,,,,,,,,,,,,,,,,,,,,,,,,,,,,,,,,,,,,,,,,,,,,,,,,,,,,,,,,,,,,,,,946.5787,1006.5783,0,0,0,1,1,sequence_tables/blk005.csv
,,5f23c201727aba1b35635785,65af56817219ae981f60fe0d,2024-01-23_08h03.46.695,bars,2023.2.3,Win32,60.24096386,657b66ea316d21385b68909f,,,,,,,,,,,1008.9005,1009.8934,,,1010.3933,1010.6432,,72,72,,,,,,,,,,,,,,,,bars/006.png,bars/mask006.png,,,,,,,,,,,,0,2,,,,,,,4,7,3,7,,,,,,1006.5917,1008.8938,space,2.2935,,1009.8935,1010.3932,1010.6433,1016.4936,space,5.8269,,1016.4939,37,28,1017.4973,1017.4974,1017.5131,,,,0,0,0,0,1,35,100,,,,,,,,
,,5f23c201727aba1b35635785,65af56817219ae981f60fe0d,2024-01-23_08h03.46.695,bars,2023.2.3,Win32,60.24096386,657b66ea316d21385b68909f,,,,,,,,,,,1017.5133,1018.5102,,,1019.0105,1019.2603,,92,92,,,,,,,,,,,,,,,,bars/026.png,bars/mask009.png,,,,,,,,,,,,4,2,,,,,,,6,5,7,5,,,,,,,,,,,1018.5103,1019.0102,1019.2604,1022.6129,space,3.3321,,1022.613,57,7,1023.6102,1023.6103,1023.6238,,,,0,1,1,1,1,35,85,,,,,,,,
,,5f23c201727aba1b35635785,65af56817219ae981f60fe0d,2024-01-23_08h03.46.695,bars,2023.2.3,Win32,60.24096386,657b66ea316d21385b68909f,,,,,,,,,,,1023.6241,1024.6264,,,1025.1289,1025.3765,,68,68,,,,,,,,,,,,,,,,bars/025.png,bars/mask000.png,,,,,,,,,,,,0,2,,,,,,,4,3,4,4,,,,,,,,,,,1024.6266,1025.1289,1025.3765,1028.7811,space,3.3835,,1028.7811,37,28,1029.7765,1029.7766,1029.7898,,,,0,2,2,2,1,105,40,,,,,,,,
,,5f23c201727aba1b35635785,65af56817219ae981f60fe0d,2024-01-23_08h03.46.695,bars,2023.2.3,Win32,60.24096386,657b66ea316d21385b68909f,,,,,,,,,,,1029.7901,1030.7787,,,1031.277,1031.5265,,50,50,,,,,,,,,,,,,,,,bars/022.png,bars/mask001.png,,,,,,,,,,,,0,2,,,,,,,2,5,2,5,,,,,,,,,,,1030.7788,1031.2769,1031.5266,1034.6434,space,3.0953,,1034.6435,45,30,1035.6432,1035.6433,1035.6569,,,,0,3,3,3,1,95,20,,,,,,,,
,,5f23c201727aba1b35635785,65af56817219ae981f60fe0d,2024-01-23_08h03.46.695,bars,2023.2.3,Win32,60.24096386,657b66ea316d21385b68909f,,,,,,,,,,,1035.6571,1036.6603,,,1037.1605,1037.4105,,22,22,,,,,,,,,,,,,,,,bars/035.png,bars/mask006.png,,,,,,,,,,,,0,1,,,,,,,0,3,1,4,,,,,,,,,,,1036.6605,1037.1604,1037.4107,1039.1317,space,1.7008,,1039.1317,27,38,1040.1265,1040.1267,1040.1416,,,,0,4,4,4,1,175,60,,,,,,,,
,,5f23c201727aba1b35635785,65af56817219ae981f60fe0d,2024-01-23_08h03.46.695,bars,2023.2.3,Win32,60.24096386,657b66ea316d21385b68909f,,,,,,,,,,,1040.142,1041.1433,,,1041.6435,1041.8933,,161,-19,,,,,,,,,,,,,,,,bars/014.png,bars/mask009.png,,,,,,,,,,,,1,2,,,,,,,0,5,0,2,,,,,,,,,,,1041.1433,1041.6434,1041.8934,1044.0433,space,2.1287,,1044.0435,81,19,1045.0309,1045.031,1045.0329,,,,0,5,5,5,1,80,0,,,,,,,,
,,5f23c201727aba1b35635785,65af56817219ae981f60fe0d,2024-01-23_08h03.46.695,bars,2023.2.3,Win32,60.24096386,657b66ea316d21385b68909f,,,,,,,,,,,1045.0333,1046.0266,,,1046.5266,1046.7765,,92,92,,,,,,,,,,,,,,,,bars/037.png,bars/mask002.png,,,,,,,,,,,,3,2,,,,,,,2,7,3,6,,,,,,,,,,,1046.0266,1046.5265,1046.7765,1051.4813,space,4.6997,,1051.4813,58,13,1052.4769,1052.477,1052.4903,,,,0,6,6,6,1,150,105,,,,,,,,
,,5f23c201727aba1b35635785,65af56817219ae981f60fe0d,2024-01-23_08h03.46.695,bars,2023.2.3,Win32,60.24096386,657b66ea316d21385b68909f,,,,,,,,,,,1052.4906,1053.4933,,,1053.9933,1054.2436,,46,46,,,,,,,,,,,,,,,,bars/031.png,bars/mask007.png,,,,,,,,,,,,6,2,,,,,,,0,9,0,9,,,,,,,,,,,1053.4935,1053.9933,1054.2437,1055.4984,space,1.2344,,1055.4984,74,11,1056.4933,1056.4933,1056.4957,,,,0,7,7,7,1,120,35,,,,,,,,
,,5f23c201727aba1b35635785,65af56817219ae981f60fe0d,2024-01-23_08h03.46.695,bars,2023.2.3,Win32,60.24096386,657b66ea316d21385b68909f,,,,,,,,,,,1056.496,1057.4956,,,1057.9941,1058.2436,,63,63,,,,,,,,,,,,,,,,bars/002.png,bars/mask009.png,,,,,,,,,,,,3,2,,,,,,,0,10,0,10,,,,,,,,,,,1057.4956,1057.9941,1058.2438,1061.2315,space,2.9675,,1061.2316,67,22,1062.2267,1062.2267,1062.2411,,,,0,8,8,8,1,130,85,,,,,,,,
,,5f23c201727aba1b35635785,65af56817219ae981f60fe0d,2024-01-23_08h03.46.695,bars,2023.2.3,Win32,60.24096386,657b66ea316d21385b68909f,,,,,,,,,,,1062.2413,1063.229,,,1063.7267,1063.9765,,34,214,,,,,,,,,,,,,,,,bars/017.png,bars/mask007.png,,,,,,,,,,,,6,2,,,,,,,2,10,2,10,,,,,,,,,,,1063.229,1063.7267,1063.9767,1067.8649,space,3.8672,,1067.8649,69,11,1068.8621,1068.8622,1068.8748,,,,0,9,9,9,1,145,45,,,,,,,,
,,5f23c201727aba1b35635785,65af56817219ae981f60fe0d,2024-01-23_08h03.46.695,bars,2023.2.3,Win32,60.24096386,657b66ea316d21385b68909f,,,,,,,,,,,1068.875,1069.8767,,,1070.3808,1070.6266,,13,13,,,,,,,,,,,,,,,,bars/012.png,bars/mask008.png,,,,,,,,,,,,9,2,,,,,,,4,10,4,10,,,,,,,,,,,1069.8768,1070.3808,1070.6267,1072.8814,space,2.2338,,1072.8814,77,2,1073.8771,1073.8773,1073.891,,,,0,10,10,10,1,90,15,,,,,,,,
,,5f23c201727aba1b35635785,65af56817219ae981f60fe0d,2024-01-23_08h03.46.695,bars,2023.2.3,Win32,60.24096386,657b66ea316d21385b68909f,,,,,,,,,,,1073.8913,1074.8936,,,1075.3934,1075.6434,,63,63,,,,,,,,,,,,,,,,bars/001.png,bars/mask004.png,,,,,,,,,,,,3,2,,,,,,,2,10,0,10,,,,,,,,,,,1074.8937,1075.3934,1075.6435,1078.5271,space,2.8534,,1078.5273,67,22,1079.5267,1079.5268,1079.5405,,,,0,11,11,11,1,130,85,,,,,,,,
,,5f23c201727aba1b35635785,65af56817219ae981f60fe0d,2024-01-23_08h03.46.695,bars,2023.2.3,Win32,60.24096386,657b66ea316d21385b68909f,,,,,,,,,,,1079.5406,1080.5434,,,1081.0438,1081.2938,,141,141,,,,,,,,,,,,,,,,bars/004.png,bars/mask003.png,,,,,,,,,,,,5,2,,,,,,,4,10,4,10,,,,,,,,,,,1080.5435,1081.0438,1081.294,1084.1483,space,2.8344,,1084.1484,64,16,1085.1437,1085.1438,1085.157,,,,0,12,12,12,1,25,125,,,,,,,,
,,5f23c201727aba1b35635785,65af56817219ae981f60fe0d,2024-01-23_08h03.46.695,bars,2023.2.3,Win32,60.24096386,657b66ea316d21385b68909f,,,,,,,,,,,1085.1573,1086.1603,,,1086.6623,1086.9111,,146,146,,,,,,,,,,,,,,,,bars/004.png,bars/mask002.png,,,,,,,,,,,,2,2,,,,,,,6,8,5,7,,,,,,,,,,,1086.1604,1086.6623,1086.9113,1089.2442,space,2.3118,,1089.2445,59,21,1090.2434,1090.2434,1090.2569,,,,0,13,13,13,1,25,125,,,,,,,,
,,5f23c201727aba1b35635785,65af56817219ae981f60fe0d,2024-01-23_08h03.46.695,bars,2023.2.3,Win32,60.24096386,657b66ea316d21385b68909f,,,,,,,,,,,1090.2571,1091.2607,,,1091.7641,1092.013,,54,234,,,,,,,,,,,,,,,,bars/047.png,bars/mask009.png,,,,,,,,,,,,5,2,,,,,,,4,10,4,10,,,,,,,,,,,1091.2608,1091.764,1092.013,1096.0119,space,3.9803,,1096.012,39,16,1097.0104,1097.0105,1097.0236,,,,0,14,14,14,1,15,70,,,,,,,,
,,5f23c201727aba1b35635785,65af56817219ae981f60fe0d,2024-01-23_08h03.46.695,bars,2023.2.3,Win32,60.24096386,657b66ea316d21385b68909f,,,,,,,,,,,1097.0238,1098.0268,,,1098.5267,1098.777,,151,-29,,,,,,,,,,,,,,,,bars/005.png,bars/mask003.png,,,,,,,,,,,,6,2,,,,,,,2,10,2,10,,,,,,,,,,,1098.0268,1098.5267,1098.7773,1103.1149,space,4.3173,,1103.115,39,11,1104.1103,1104.1104,1104.1238,,,,0,15,15,15,1,10,140,,,,,,,,
,,5f23c201727aba1b35635785,65af56817219ae981f60fe0d,2024-01-23_08h03.46.695,bars,2023.2.3,Win32,60.24096386,657b66ea316d21385b68909f,,,,,,,,,,,1104.124,1105.1268,,,1105.6271,1105.8812,,112,112,,,,,,,,,,,,,,,,bars/041.png,bars/mask008.png,,,,,,,,,,,,1,2,,,,,,,4,10,5,8,,,,,,,,,,,1105.1269,1105.627,1105.8812,1111.4824,space,5.5845,,1111.4824,88,27,1112.4767,1112.4767,1112.4915,,,,0,16,16,16,1,20,85,,,,,,,,
,,5f23c201727aba1b35635785,65af56817219ae981f60fe0d,2024-01-23_08h03.46.695,bars,2023.2.3,Win32,60.24096386,657b66ea316d21385b68909f,,,,,,,,,,,1112.4917,1113.4935,,,1113.9936,1114.2436,,98,98,,,,,,,,,,,,,,,,bars/011.png,bars/mask005.png,,,,,,,,,,,,5,2,,,,,,,6,10,9,9,,,,,,,,,,,1113.4937,1113.9936,1114.2437,1115.9776,space,1.7023,,1115.9778,62,13,1116.977,1116.9772,1116.9906,,,,0,17,17,17,1,160,85,,,,,,,,
,,5f23c201727aba1b35635785,65af56817219ae981f60fe0d,2024-01-23_08h03.46.695,bars,2023.2.3,Win32,60.24096386,657b66ea316d21385b68909f,,,,,,,,,,,1116.9909,1117.9935,,,1118.4936,1118.7435,,62,62,,,,,,,,,,,,,,,,bars/001.png,bars/mask000.png,,,,,,,,,,,,2,2,,,,,,,8,8,7,9,,,,,,,,,,,1117.9935,1118.4936,1118.7435,1120.5772,space,1.8062,,1120.5773,68,23,1121.5768,1121.5769,1121.5904,,,,0,18,18,18,1,130,85,,,,,,,,
,,5f23c201727aba1b35635785,65af56817219ae981f60fe0d,2024-01-23_08h03.46.695,bars,2023.2.3,Win32,60.24096386,657b66ea316d21385b68909f,,,,,,,,,,,1121.5907,1122.581,,,1123.0769,1123.327,,171,-9,,,,,,,,,,,,,,,,bars/032.png,bars/mask008.png,,,,,,,,,,,,0,2,,,,,,,6,10,7,9,,,,,,,,,,,1122.581,1123.0769,1123.3271,1126.2318,space,2.8841,,1126.2319,46,29,1127.2269,1127.2269,1127.2415,,,,0,19,19,19,1,125,20,,,,,,,,
,,5f23c201727aba1b35635785,65af56817219ae981f60fe0d,2024-01-23_08h03.46.695,bars,2023.2.3,Win32,60.24096386,657b66ea316d21385b68909f,,,,,,,,,,,1127.2417,1128.2438,,,1128.7446,1128.9934,,37,217,,,,,,,,,,,,,,,,bars/010.png,bars/mask008.png,,,,,,,,,,,,4,2,,,,,,,4,8,4,9,,,,,,,,,,,1128.2439,1128.7444,1128.9936,1132.1817,space,3.1675,,1132.1817,52,18,1133.1772,1133.1774,1133.1906,,,,0,20,20,20,1,165,55,,,,,,,,
,,5f23c201727aba1b35635785,65af56817219ae981f60fe0d,2024-01-23_08h03.46.695,bars,2023.2.3,Win32,60.24096386,657b66ea316d21385b68909f,,,,,,,,,,,1133.1909,1134.1978,,,1134.6937,1134.9436,,56,236,,,,,,,,,,,,,,,,bars/047.png,bars/mask000.png,,,,,,,,,,,,5,2,,,,,,,2,10,3,10,,,,,,,,,,,1134.1978,1134.6936,1134.9436,1138.9641,space,3.9998,,1138.9641,41,14,1139.9602,1139.9602,1139.9738,,,,0,21,21,21,1,15,70,,,,,,,,
,,5f23c201727aba1b35635785,65af56817219ae981f60fe0d,2024-01-23_08h03.46.695,bars,2023.2.3,Win32,60.24096386,657b66ea316d21385b68909f,,,,,,,,,,,1139.974,1140.977,,,1141.477,1141.7269,,152,152,,,,,,,,,,,,,,,,bars/047.png,bars/mask006.png,,,,,,,,,,,,0,1,,,,,,,4,10,4,9,,,,,,,,,,,1140.977,1141.4768,1141.7269,1143.0985,space,1.3506,,1143.0986,43,82,1144.0936,1144.0936,1144.0967,,,,0,22,22,22,1,15,70,,,,,,,,
,,5f23c201727aba1b35635785,65af56817219ae981f60fe0d,2024-01-23_08h03.46.695,bars,2023.2.3,Win32,60.24096386,657b66ea316d21385b68909f,,,,,,,,,,,1144.097,1145.0936,,,1145.5813,1145.8268,,59,59,,,,,,,,,,,,,,,,bars/034.png,bars/mask007.png,,,,,,,,,,,,6,2,,,,,,,6,8,5,8,,,,,,,,,,,1145.0937,1145.5813,1145.8268,1147.2651,space,1.4175,,1147.2651,66,6,1148.2603,1148.2603,1148.2637,,,,0,23,23,23,1,125,65,,,,,,,,
,,5f23c201727aba1b35635785,65af56817219ae981f60fe0d,2024-01-23_08h03.46.695,bars,2023.2.3,Win32,60.24096386,657b66ea316d21385b68909f,,,,,,,,,,,1148.264,1149.2602,,,1149.7608,1150.0124,,168,168,,,,,,,,,,,,,,,,bars/008.png,bars/mask006.png,,,,,,,,,,,,6,2,,,,,,,4,10,2,10,,,,,,,,,,,1149.2603,1149.7605,1150.0124,1152.2271,space,2.1871,,1152.2273,58,12,1153.2269,1153.2269,1153.2402,,,,0,24,24,24,1,110,0,,,,,,,,
,,5f23c201727aba1b35635785,65af56817219ae981f60fe0d,2024-01-23_08h03.46.695,bars,2023.2.3,Win32,60.24096386,657b66ea316d21385b68909f,,,,,,,,,,,1153.2404,1154.2438,,,1154.7438,1154.994,,126,126,,,,,,,,,,,,,,,,bars/033.png,bars/mask004.png,,,,,,,,,,,,0,2,,,,,,,2,8,2,9,,,,,,,,,,,1154.2439,1154.7437,1154.9941,1158.2272,space,3.2044,,1158.2274,79,29,1159.2268,1159.2269,1159.2411,,,,0,25,25,25,1,25,155,,,,,,,,
,,5f23c201727aba1b35635785,65af56817219ae981f60fe0d,2024-01-23_08h03.46.695,bars,2023.2.3,Win32,60.24096386,657b66ea316d21385b68909f,,,,,,,,,,,1159.2413,1160.2437,,,1160.7436,1160.9936,,103,103,,,,,,,,,,,,,,,,bars/021.png,bars/mask008.png,,,,,,,,,,,,0,2,,,,,,,4,10,4,10,,,,,,,,,,,1160.2437,1160.7435,1160.9936,1165.0147,space,4.0159,,1165.0148,52,33,1166.0103,1166.0103,1166.0242,,,,0,26,26,26,1,155,70,,,,,,,,
,,5f23c201727aba1b35635785,65af56817219ae981f60fe0d,2024-01-23_08h03.46.695,bars,2023.2.3,Win32,60.24096386,657b66ea316d21385b68909f,,,,,,,,,,,1166.0245,1167.027,,,1167.527,1167.777,,137,-43,,,,,,,,,,,,,,,,bars/043.png,bars/mask008.png,,,,,,,,,,,,5,2,,,,,,,6,8,5,7,,,,,,,,,,,1167.0272,1167.5269,1167.777,1172.0773,space,4.2688,,1172.0775,73,7,1173.0773,1173.0775,1173.0907,,,,0,27,27,27,1,30,130,,,,,,,,
,,5f23c201727aba1b35635785,65af56817219ae981f60fe0d,2024-01-23_08h03.46.695,bars,2023.2.3,Win32,60.24096386,657b66ea316d21385b68909f,,,,,,,,,,,1173.091,1174.0794,,,1174.5771,1174.827,,40,40,,,,,,,,,,,,,,,,bars/025.png,bars/mask002.png,,,,,,,,,,,,10,2,,,,,,,8,10,7,10,,,,,,,,,,,1174.0794,1174.577,1174.8271,1178.8277,space,3.9708,,1178.8278,65,0,1179.827,1179.827,1179.8404,,,,0,28,28,28,1,105,40,,,,,,,,
,,5f23c201727aba1b35635785,65af56817219ae981f60fe0d,2024-01-23_08h03.46.695,bars,2023.2.3,Win32,60.24096386,657b66ea316d21385b68909f,,,,,,,,,,,1179.8406,1180.8443,,,1181.3437,1181.5979,,95,95,,,,,,,,,,,,,,,,bars/023.png,bars/mask005.png,,,,,,,,,,,,2,2,,,,,,,10,8,10,7,,,,,,,,,,,1180.8445,1181.3437,1181.5979,1186.1107,space,4.4852,,1186.111,75,20,1187.1103,1187.1103,1187.1237,,,,0,29,29,29,1,20,115,,,,,,,,
,,5f23c201727aba1b35635785,65af56817219ae981f60fe0d,2024-01-23_08h03.46.695,bars,2023.2.3,Win32,60.24096386,657b66ea316d21385b68909f,,,,,,,,,,,1187.1238,1188.127,,,1188.6147,1188.8607,,74,74,,,,,,,,,,,,,,,,bars/041.png,bars/mask002.png,,,,,,,,,,,,4,2,,,,,,,8,6,8,7,,,,,,,,,,,1188.1271,1188.6147,1188.8608,1191.8152,space,2.9342,,1191.8153,54,11,1192.8103,1192.8103,1192.8239,,,,0,30,30,30,1,20,85,,,,,,,,
,,5f23c201727aba1b35635785,65af56817219ae981f60fe0d,2024-01-23_08h03.46.695,bars,2023.2.3,Win32,60.24096386,657b66ea316d21385b68909f,,,,,,,,,,,1192.824,1193.8275,,,1194.3271,1194.5771,,95,95,,,,,,,,,,,,,,,,bars/019.png,bars/mask007.png,,,,,,,,,,,,3,2,,,,,,,10,4,10,5,,,,,,,,,,,1193.8276,1194.327,1194.5773,1198.2151,space,3.617,,1198.2152,50,10,1199.2106,1199.2107,1199.2239,,,,0,31,31,31,1,45,105,,,,,,,,
,,5f23c201727aba1b35635785,65af56817219ae981f60fe0d,2024-01-23_08h03.46.695,bars,2023.2.3,Win32,60.24096386,657b66ea316d21385b68909f,,,,,,,,,,,1199.2242,1200.2271,,,1200.7271,1200.9775,,123,123,,,,,,,,,,,,,,,,bars/009.png,bars/mask003.png,,,,,,,,,,,,1,2,,,,,,,10,2,10,2,,,,,,,,,,,1200.2272,1200.727,1200.9777,1203.6486,space,2.6508,,1203.6486,72,18,1204.6437,1204.6437,1204.6567,,,,0,32,32,32,1,15,105,,,,,,,,
,,5f23c201727aba1b35635785,65af56817219ae981f60fe0d,2024-01-23_08h03.46.695,bars,2023.2.3,Win32,60.24096386,657b66ea316d21385b68909f,,,,,,,,,,,1204.6569,1205.6479,,,1206.1445,1206.3937,,137,137,,,,,,,,,,,,,,,,bars/005.png,bars/mask004.png,,,,,,,,,,,,5,2,,,,,,,10,4,10,6,,,,,,,,,,,1205.6479,1206.1444,1206.3938,1209.4655,space,3.0508,,1209.4656,53,3,1210.4605,1210.4605,1210.4738,,,,0,33,33,33,1,10,140,,,,,,,,
,,5f23c201727aba1b35635785,65af56817219ae981f60fe0d,2024-01-23_08h03.46.695,bars,2023.2.3,Win32,60.24096386,657b66ea316d21385b68909f,,,,,,,,,,,1210.474,1211.4771,,,1211.9771,1212.2274,,98,-82,,,,,,,,,,,,,,,,bars/011.png,bars/mask009.png,,,,,,,,,,,,4,2,,,,,,,8,6,6,7,,,,,,,,,,,1211.4772,1211.9771,1212.2275,1216.3822,space,4.1343,,1216.3822,62,13,1217.3773,1217.3775,1217.3906,,,,0,34,34,34,1,160,85,,,,,,,,
,,5f23c201727aba1b35635785,65af56817219ae981f60fe0d,2024-01-23_08h03.46.695,bars,2023.2.3,Win32,60.24096386,657b66ea316d21385b68909f,,,,,,,,,,,1217.3908,1218.3938,,,1218.894,1219.1437,,70,70,,,,,,,,,,,,,,,,bars/021.png,bars/mask001.png,,,,,,,,,,,,7,2,,,,,,,6,8,7,7,,,,,,,,,,,1218.3939,1218.8939,1219.1438,1222.3821,space,3.2174,,1222.3822,85,0,1223.3777,1223.3779,1223.3911,,,,0,35,35,35,1,155,70,,,,,,,,
,,5f23c201727aba1b35635785,65af56817219ae981f60fe0d,2024-01-23_08h03.46.695,bars,2023.2.3,Win32,60.24096386,657b66ea316d21385b68909f,,,,,,,,,,,1223.3913,1224.3939,,,1224.8938,1225.1439,,109,109,,,,,,,,,,,,,,,,bars/004.png,bars/mask006.png,,,,,,,,,,,,5,2,,,,,,,8,10,9,10,,,,,,,,,,,1224.394,1224.8938,1225.1439,1228.532,space,3.3675,,1228.5321,84,16,1229.5272,1229.5272,1229.5411,,,,0,36,36,36,1,25,125,,,,,,,,
,,5f23c201727aba1b35635785,65af56817219ae981f60fe0d,2024-01-23_08h03.46.695,bars,2023.2.3,Win32,60.24096386,657b66ea316d21385b68909f,,,,,,,,,,,1229.5413,1230.5444,,,1231.0439,1231.2939,,92,-88,,,,,,,,,,,,,,,,bars/002.png,bars/mask001.png,,,,,,,,,,,,6,2,,,,,,,10,8,10,8,,,,,,,,,,,1230.5444,1231.0439,1231.294,1235.3317,space,4.019,,1235.3317,38,7,1236.3273,1236.3274,1236.3406,,,,0,37,37,37,1,130,85,,,,,,,,
,,5f23c201727aba1b35635785,65af56817219ae981f60fe0d,2024-01-23_08h03.46.695,bars,2023.2.3,Win32,60.24096386,657b66ea316d21385b68909f,,,,,,,,,,,1236.3408,1237.3438,,,1237.8439,1238.0938,,132,132,,,,,,,,,,,,,,,,bars/005.png,bars/mask003.png,,,,,,,,,,,,7,2,,,,,,,8,10,9,10,,,,,,,,,,,1237.344,1237.8439,1238.0938,1240.4987,space,2.3995,,1240.4987,58,8,1241.4939,1241.4939,1241.5077,,,,0,38,38,38,1,10,140,,,,,,,,
,,5f23c201727aba1b35635785,65af56817219ae981f60fe0d,2024-01-23_08h03.46.695,bars,2023.2.3,Win32,60.24096386,657b66ea316d21385b68909f,,,,,,,,,,,1241.5079,1242.5114,,,1243.0114,1243.2605,,98,98,,,,,,,,,,,,,,,,bars/018.png,bars/mask007.png,,,,,,,,,,,,7,2,,,,,,,6,8,5,9,,,,,,,,,,,1242.5116,1243.0112,1243.2606,1245.4152,space,2.1339,,1245.4152,52,8,1246.4106,1246.4108,1246.4241,,,,0,39,39,39,1,150,90,,,,,,,,
,,5f23c201727aba1b35635785,65af56817219ae981f60fe0d,2024-01-23_08h03.46.695,bars,2023.2.3,Win32,60.24096386,657b66ea316d21385b68909f,,,,,,,,,,,1246.4244,1247.4272,,,1247.9274,1248.1773,,156,156,,,,,,,,,,,,,,,,bars/040.png,bars/mask000.png,,,,,,,,,,,,2,1,,,,,,,4,6,4,6,,,,,,,,,,,1247.4273,1247.9273,1248.1773,1253.3806,space,5.1827,,1253.3806,16,29,1254.3772,1254.3773,1254.3919,,,,0,40,40,40,1,140,5,,,,,,,,
,,5f23c201727aba1b35635785,65af56817219ae981f60fe0d,2024-01-23_08h03.46.695,bars,2023.2.3,Win32,60.24096386,657b66ea316d21385b68909f,,,,,,,,,,,1254.3922,1255.3939,,,1255.894,1256.1482,,101,101,,,,,,,,,,,,,,,,bars/026.png,bars/mask005.png,,,,,,,,,,,,4,2,,,,,,,2,8,2,8,,,,,,,,,,,1255.394,1255.8939,1256.1483,1258.8776,space,2.7019,,1258.8778,66,16,1259.8771,1259.8771,1259.8921,,,,0,41,41,41,1,35,85,,,,,,,,
,,5f23c201727aba1b35635785,65af56817219ae981f60fe0d,2024-01-23_08h03.46.695,bars,2023.2.3,Win32,60.24096386,657b66ea316d21385b68909f,,,,,,,,,,,1259.8923,1260.8939,,,1261.3941,1261.6441,,29,29,,,,,,,,,,,,,,,,bars/045.png,bars/mask002.png,,,,,,,,,,,,4,2,,,,,,,4,10,2,10,,,,,,,,,,,1260.8939,1261.394,1261.6441,1263.0489,space,1.3842,,1263.049,71,19,1264.044,1264.044,1264.0572,,,,0,42,42,42,1,100,10,,,,,,,,
,,5f23c201727aba1b35635785,65af56817219ae981f60fe0d,2024-01-23_08h03.46.695,bars,2023.2.3,Win32,60.24096386,657b66ea316d21385b68909f,,,,,,,,,,,1264.0575,1265.0605,,,1265.5607,1265.8109,,33,33,,,,,,,,,,,,,,,,bars/025.png,bars/mask006.png,,,,,,,,,,,,6,2,,,,,,,6,8,6,8,,,,,,,,,,,1265.0606,1265.5606,1265.8109,1270.8153,space,4.9838,,1270.8154,72,7,1271.8106,1271.8107,1271.8253,,,,0,43,43,43,1,105,40,,,,,,,,
,,5f23c201727aba1b35635785,65af56817219ae981f60fe0d,2024-01-23_08h03.46.695,bars,2023.2.3,Win32,60.24096386,657b66ea316d21385b68909f,,,,,,,,,,,1271.8254,1272.8274,,,1273.3274,1273.5773,,88,88,,,,,,,,,,,,,,,,bars/002.png,bars/mask002.png,,,,,,,,,,,,9,2,,,,,,,4,10,5,10,,,,,,,,,,,1272.8275,1273.3273,1273.5773,1274.3948,space,0.8036,,1274.3951,42,3,1275.394,1275.394,1275.3961,,,,0,44,44,44,1,130,85,,,,,,,,
,,5f23c201727aba1b35635785,65af56817219ae981f60fe0d,2024-01-23_08h03.46.695,bars,2023.2.3,Win32,60.24096386,657b66ea316d21385b68909f,,,,,,,,,,,1275.3965,1276.3968,,,1276.8983,1277.1443,,23,203,,,,,,,,,,,,,,,,bars/031.png,bars/mask008.png,,,,,,,,,,,,5,2,,,,,,,2,8,2,8,,,,,,,,,,,1276.3968,1276.8983,1277.1444,1280.3654,space,3.2006,,1280.3655,83,12,1281.3607,1281.3607,1281.374,,,,0,45,45,45,1,120,35,,,,,,,,
,,5f23c201727aba1b35635785,65af56817219ae981f60fe0d,2024-01-23_08h03.46.695,bars,2023.2.3,Win32,60.24096386,657b66ea316d21385b68909f,,,,,,,,,,,1281.3743,1282.3773,,,1282.8774,1283.1273,,155,155,,,,,,,,,,,,,,,,bars/040.png,bars/mask002.png,,,,,,,,,,,,0,1,,,,,,,0,10,0,10,,,,,,,,,,,1282.3774,1282.8773,1283.1274,1287.4654,space,4.3327,,1287.4655,15,30,1288.4606,1288.4606,1288.4746,,,,0,46,46,46,1,140,5,,,,,,,,
,,5f23c201727aba1b35635785,65af56817219ae981f60fe0d,2024-01-23_08h03.46.695,bars,2023.2.3,Win32,60.24096386,657b66ea316d21385b68909f,,,,,,,,,,,1288.4748,1289.4773,,,1289.9778,1290.2313,,45,45,,,,,,,,,,,,,,,,bars/031.png,bars/mask008.png,,,,,,,,,,,,5,2,,,,,,,0,8,0,7,,,,,,,,,,,1289.4773,1289.9777,1290.2314,1294.8489,space,4.6007,,1294.849,75,10,1295.8443,1295.8445,1295.8585,,,,0,47,47,47,1,120,35,,,,,,,,
,,5f23c201727aba1b35635785,65af56817219ae981f60fe0d,2024-01-23_08h03.46.695,bars,2023.2.3,Win32,60.24096386,657b66ea316d21385b68909f,,,,,,,,,,,1295.8588,1296.861,,,1297.3607,1297.6147,,38,38,,,,,,,,,,,,,,,,bars/031.png,bars/mask008.png,,,,,,,,,,,,9,2,,,,,,,0,10,0,10,,,,,,,,,,,1296.8613,1297.3607,1297.6147,1303.3988,space,5.7673,,1303.3989,82,3,1304.3941,1304.3941,1304.4083,,,,0,48,48,48,1,120,35,,,,,,,,
,,5f23c201727aba1b35635785,65af56817219ae981f60fe0d,2024-01-23_08h03.46.695,bars,2023.2.3,Win32,60.24096386,657b66ea316d21385b68909f,,,,,,,,,,,1304.4085,1305.4108,,,1305.9109,1306.1612,,119,119,,,,,,,,,,,,,,,,bars/004.png,bars/mask006.png,,,,,,,,,,,,8,2,,,,,,,2,8,2,10,,,,,,,,,,,1305.4109,1305.9108,1306.1612,1308.3277,space,2.1348,,1308.3279,86,6,1309.3274,1309.3274,1309.3408,,,,0,49,49,49,1,25,125,,,,,,,,
,,5f23c201727aba1b35635785,65af56817219ae981f60fe0d,2024-01-23_08h03.46.695,bars,2023.2.3,Win32,60.24096386,657b66ea316d21385b68909f,,,,,,,,,,,,,,,,,,,,,,,,,,,,,,,,,,,,,,,,,,,,,,,,,,,,,,,,,,,,,,,,,,,,,,,,,,,,,,,,,,,,,,,,,,,,,1309.3408,1369.3445,0,1,1,2,1,sequence_tables/blk037.csv
,,5f23c201727aba1b35635785,65af56817219ae981f60fe0d,2024-01-23_08h03.46.695,bars,2023.2.3,Win32,60.24096386,657b66ea316d21385b68909f,,,,,,,,,,,1403.3333,1404.3277,,,1404.8151,1405.0611,,80,80,,,,,,,,,,,,,,,,bars/038.png,bars/mask001.png,,,,,,,,,,,,5,2,,,,,,,3,6,4,7,,,,,,1369.3588,1403.3117,space,33.935,,1404.3277,1404.8151,1405.0611,1407.9614,space,2.8723,,1407.9618,85,10,1408.961,1408.9611,1408.9747,,,,0,0,0,0,1,165,70,,,,,,,,
,,5f23c201727aba1b35635785,65af56817219ae981f60fe0d,2024-01-23_08h03.46.695,bars,2023.2.3,Win32,60.24096386,657b66ea316d21385b68909f,,,,,,,,,,,1408.9749,1409.9777,,,1410.4779,1410.7277,,124,124,,,,,,,,,,,,,,,,bars/042.png,bars/mask005.png,,,,,,,,,,,,1,1,,,,,,,5,8,3,7,,,,,,,,,,,1409.9778,1410.4777,1410.7279,1413.9281,space,3.1685,,1413.9284,21,49,1414.9277,1414.9278,1414.9433,,,,0,1,1,1,1,145,75,,,,,,,,
,,5f23c201727aba1b35635785,65af56817219ae981f60fe0d,2024-01-23_08h03.46.695,bars,2023.2.3,Win32,60.24096386,657b66ea316d21385b68909f,,,,,,,,,,,1414.9436,1415.9445,,,1416.4453,1416.6948,,158,-22,,,,,,,,,,,,,,,,bars/014.png,bars/mask007.png,,,,,,,,,,,,3,2,,,,,,,7,10,8,10,,,,,,,,,,,1415.9446,1416.4451,1416.695,1420.2995,space,3.5844,,1420.2995,78,22,1421.2946,1421.2947,1421.3087,,,,0,2,2,2,1,80,0,,,,,,,,
,,5f23c201727aba1b35635785,65af56817219ae981f60fe0d,2024-01-23_08h03.46.695,bars,2023.2.3,Win32,60.24096386,657b66ea316d21385b68909f,,,,,,,,,,,1421.3089,1422.2987,,,1422.7944,1423.0446,,109,109,,,,,,,,,,,,,,,,bars/049.png,bars/mask003.png,,,,,,,,,,,,8,2,,,,,,,5,10,5,10,,,,,,,,,,,1422.2987,1422.7943,1423.0447,1425.2158,space,2.1508,,1425.2158,51,6,1426.2111,1426.2111,1426.2249,,,,0,3,3,3,1,160,115,,,,,,,,
,,5f23c201727aba1b35635785,65af56817219ae981f60fe0d,2024-01-23_08h03.46.695,bars,2023.2.3,Win32,60.24096386,657b66ea316d21385b68909f,,,,,,,,,,,1426.2251,1427.2152,,,1427.7113,1427.9613,,171,171,,,,,,,,,,,,,,,,bars/008.png,bars/mask008.png,,,,,,,,,,,,6,2,,,,,,,3,10,2,8,,,,,,,,,,,1427.2153,1427.7111,1427.9614,1429.5807,space,1.5989,,1429.5807,61,9,1430.5778,1430.5779,1430.58,,,,0,4,4,4,1,110,0,,,,,,,,
,,5f23c201727aba1b35635785,65af56817219ae981f60fe0d,2024-01-23_08h03.46.695,bars,2023.2.3,Win32,60.24096386,657b66ea316d21385b68909f,,,,,,,,,,,1430.5803,1431.5777,,,1432.0653,1432.3112,,37,217,,,,,,,,,,,,,,,,bars/007.png,bars/mask004.png,,,,,,,,,,,,4,2,,,,,,,1,10,1,9,,,,,,,,,,,1431.5778,1432.0653,1432.3113,1436.3117,space,3.9687,,1436.312,42,18,1437.3111,1437.3111,1437.3248,,,,0,5,5,5,1,175,55,,,,,,,,
,,5f23c201727aba1b35635785,65af56817219ae981f60fe0d,2024-01-23_08h03.46.695,bars,2023.2.3,Win32,60.24096386,657b66ea316d21385b68909f,,,,,,,,,,,1437.3251,1438.3278,,,1438.8279,1439.0779,,165,165,,,,,,,,,,,,,,,,bars/044.png,bars/mask000.png,,,,,,,,,,,,7,2,,,,,,,3,10,1,10,,,,,,,,,,,1438.3278,1438.8278,1439.0779,1441.0952,space,1.9913,,1441.0955,90,10,1442.0948,1442.0948,1442.1081,,,,0,6,6,6,1,75,155,,,,,,,,
,,5f23c201727aba1b35635785,65af56817219ae981f60fe0d,2024-01-23_08h03.46.695,bars,2023.2.3,Win32,60.24096386,657b66ea316d21385b68909f,,,,,,,,,,,1442.1083,1443.1115,,,1443.6111,1443.8612,,107,107,,,,,,,,,,,,,,,,bars/018.png,bars/mask007.png,,,,,,,,,,,,4,2,,,,,,,5,10,5,10,,,,,,,,,,,1443.1116,1443.6111,1443.8613,1446.295,space,2.4093,,1446.2953,43,17,1447.2949,1447.2949,1447.2967,,,,0,7,7,7,1,150,90,,,,,,,,
,,5f23c201727aba1b35635785,65af56817219ae981f60fe0d,2024-01-23_08h03.46.695,bars,2023.2.3,Win32,60.24096386,657b66ea316d21385b68909f,,,,,,,,,,,1447.2969,1448.2946,,,1448.7949,1449.045,,89,89,,,,,,,,,,,,,,,,bars/038.png,bars/mask000.png,,,,,,,,,,,,3,2,,,,,,,7,8,7,9,,,,,,,,,,,1448.2946,1448.7948,1449.0451,1450.666,space,1.6005,,1450.666,76,19,1451.6611,1451.6612,1451.6745,,,,0,8,8,8,1,165,70,,,,,,,,
,,5f23c201727aba1b35635785,65af56817219ae981f60fe0d,2024-01-23_08h03.46.695,bars,2023.2.3,Win32,60.24096386,657b66ea316d21385b68909f,,,,,,,,,,,1451.6748,1452.6783,,,1453.1788,1453.4278,,136,136,,,,,,,,,,,,,,,,bars/023.png,bars/mask008.png,,,,,,,,,,,,2,2,,,,,,,5,6,7,5,,,,,,,,,,,1452.6783,1453.1786,1453.4279,1455.9162,space,2.4832,,1455.9163,64,21,1456.9111,1456.9112,1456.925,,,,0,9,9,9,1,20,115,,,,,,,,
,,5f23c201727aba1b35635785,65af56817219ae981f60fe0d,2024-01-23_08h03.46.695,bars,2023.2.3,Win32,60.24096386,657b66ea316d21385b68909f,,,,,,,,,,,1456.9254,1457.9278,,,1458.4303,1458.6779,,130,130,,,,,,,,,,,,,,,,bars/020.png,bars/mask004.png,,,,,,,,,,,,4,1,,,,,,,7,8,7,10,,,,,,,,,,,1457.9279,1458.4303,1458.678,1461.2282,space,2.5271,,1461.2285,15,40,1462.2319,1462.2319,1462.2486,,,,0,10,10,10,1,115,170,,,,,,,,
,,5f23c201727aba1b35635785,65af56817219ae981f60fe0d,2024-01-23_08h03.46.695,bars,2023.2.3,Win32,60.24096386,657b66ea316d21385b68909f,,,,,,,,,,,1462.2489,1463.2451,,,1463.7453,1463.999,,127,127,,,,,,,,,,,,,,,,bars/023.png,bars/mask000.png,,,,,,,,,,,,5,2,,,,,,,9,10,8,9,,,,,,,,,,,1463.2452,1463.7452,1463.999,1467.0662,space,3.0507,,1467.0663,73,12,1468.0613,1468.0614,1468.0758,,,,0,11,11,11,1,20,115,,,,,,,,
,,5f23c201727aba1b35635785,65af56817219ae981f60fe0d,2024-01-23_08h03.46.695,bars,2023.2.3,Win32,60.24096386,657b66ea316d21385b68909f,,,,,,,,,,,1468.0761,1469.0806,,,1469.5779,1469.8322,,140,140,,,,,,,,,,,,,,,,bars/043.png,bars/mask008.png,,,,,,,,,,,,7,2,,,,,,,10,10,9,10,,,,,,,,,,,1469.0806,1469.5778,1469.8322,1471.0449,space,1.185,,1471.0451,70,10,1472.0448,1472.0449,1472.0582,,,,0,12,12,12,1,30,130,,,,,,,,
,,5f23c201727aba1b35635785,65af56817219ae981f60fe0d,2024-01-23_08h03.46.695,bars,2023.2.3,Win32,60.24096386,657b66ea316d21385b68909f,,,,,,,,,,,1472.0584,1473.0613,,,1473.5614,1473.8114,,118,-62,,,,,,,,,,,,,,,,bars/039.png,bars/mask005.png,,,,,,,,,,,,5,2,,,,,,,8,8,8,8,,,,,,,,,,,1473.0614,1473.5613,1473.8115,1477.7327,space,3.9003,,1477.7328,57,13,1478.728,1478.7281,1478.7416,,,,0,13,13,13,1,175,105,,,,,,,,
,,5f23c201727aba1b35635785,65af56817219ae981f60fe0d,2024-01-23_08h03.46.695,bars,2023.2.3,Win32,60.24096386,657b66ea316d21385b68909f,,,,,,,,,,,1478.7419,1479.7449,,,1480.245,1480.4946,,119,119,,,,,,,,,,,,,,,,bars/004.png,bars/mask006.png,,,,,,,,,,,,8,2,,,,,,,10,10,10,10,,,,,,,,,,,1479.7449,1480.2446,1480.4946,1481.7997,space,1.2843,,1481.7997,86,6,1482.7947,1482.7948,1482.7969,,,,0,14,14,14,1,25,125,,,,,,,,
,,5f23c201727aba1b35635785,65af56817219ae981f60fe0d,2024-01-23_08h03.46.695,bars,2023.2.3,Win32,60.24096386,657b66ea316d21385b68909f,,,,,,,,,,,1482.7972,1483.7946,,,1484.2947,1484.549,,177,-3,,,,,,,,,,,,,,,,bars/045.png,bars/mask001.png,,,,,,,,,,,,6,2,,,,,,,8,10,6,10,,,,,,,,,,,1483.7947,1484.2946,1484.5491,1486.363,space,1.798,,1486.3631,77,13,1487.3613,1487.3613,1487.3637,,,,0,15,15,15,1,100,10,,,,,,,,
,,5f23c201727aba1b35635785,65af56817219ae981f60fe0d,2024-01-23_08h03.46.695,bars,2023.2.3,Win32,60.24096386,657b66ea316d21385b68909f,,,,,,,,,,,1487.3639,1488.3613,,,1488.8613,1489.1113,,20,200,,,,,,,,,,,,,,,,bars/012.png,bars/mask009.png,,,,,,,,,,,,8,2,,,,,,,10,10,10,9,,,,,,,,,,,1488.3614,1488.8613,1489.1114,1491.2494,space,2.1174,,1491.2494,70,5,1492.2448,1492.2448,1492.2584,,,,0,16,16,16,1,90,15,,,,,,,,
,,5f23c201727aba1b35635785,65af56817219ae981f60fe0d,2024-01-23_08h03.46.695,bars,2023.2.3,Win32,60.24096386,657b66ea316d21385b68909f,,,,,,,,,,,1492.2586,1493.2613,,,1493.7614,1494.0113,,65,65,,,,,,,,,,,,,,,,bars/042.png,bars/mask004.png,,,,,,,,,,,,7,2,,,,,,,10,10,10,10,,,,,,,,,,,1493.2615,1493.7613,1494.0113,1495.995,space,1.9543,,1495.9952,80,10,1496.9947,1496.9948,1497.0087,,,,0,17,17,17,1,145,75,,,,,,,,
,,5f23c201727aba1b35635785,65af56817219ae981f60fe0d,2024-01-23_08h03.46.695,bars,2023.2.3,Win32,60.24096386,657b66ea316d21385b68909f,,,,,,,,,,,1497.0089,1498.0114,,,1498.5114,1498.7615,,49,229,,,,,,,,,,,,,,,,bars/021.png,bars/mask000.png,,,,,,,,,,,,3,2,,,,,,,10,10,9,10,,,,,,,,,,,1498.0114,1498.5113,1498.7616,1502.3831,space,3.6008,,1502.3831,74,21,1503.378,1503.378,1503.3916,,,,0,18,18,18,1,155,70,,,,,,,,
,,5f23c201727aba1b35635785,65af56817219ae981f60fe0d,2024-01-23_08h03.46.695,bars,2023.2.3,Win32,60.24096386,657b66ea316d21385b68909f,,,,,,,,,,,1503.3918,1504.395,,,1504.8948,1505.1447,,139,139,,,,,,,,,,,,,,,,bars/014.png,bars/mask001.png,,,,,,,,,,,,0,2,,,,,,,8,8,10,8,,,,,,,,,,,1504.3951,1504.8948,1505.1448,1506.8116,space,1.6449,,1506.8118,59,41,1507.8115,1507.8116,1507.8138,,,,0,19,19,19,1,80,0,,,,,,,,
,,5f23c201727aba1b35635785,65af56817219ae981f60fe0d,2024-01-23_08h03.46.695,bars,2023.2.3,Win32,60.24096386,657b66ea316d21385b68909f,,,,,,,,,,,1507.8141,1508.8113,,,1509.3115,1509.5614,,135,135,,,,,,,,,,,,,,,,bars/005.png,bars/mask003.png,,,,,,,,,,,,4,2,,,,,,,10,6,10,5,,,,,,,,,,,1508.8113,1509.3114,1509.5614,1511.4828,space,1.9005,,1511.4828,55,5,1512.4803,1512.4804,1512.493,,,,0,20,20,20,1,10,140,,,,,,,,
,,5f23c201727aba1b35635785,65af56817219ae981f60fe0d,2024-01-23_08h03.46.695,bars,2023.2.3,Win32,60.24096386,657b66ea316d21385b68909f,,,,,,,,,,,1512.4932,1513.4947,,,1513.9823,1514.2281,,109,109,,,,,,,,,,,,,,,,bars/006.png,bars/mask008.png,,,,,,,,,,,,4,2,,,,,,,10,4,10,5,,,,,,,,,,,1513.4947,1513.9823,1514.2282,1517.3955,space,3.1371,,1517.3957,74,9,1518.3947,1518.3947,1518.4085,,,,0,21,21,21,1,35,100,,,,,,,,
,,5f23c201727aba1b35635785,65af56817219ae981f60fe0d,2024-01-23_08h03.46.695,bars,2023.2.3,Win32,60.24096386,657b66ea316d21385b68909f,,,,,,,,,,,1518.4088,1519.4114,,,1519.9114,1520.1617,,53,53,,,,,,,,,,,,,,,,bars/042.png,bars/mask003.png,,,,,,,,,,,,0,2,,,,,,,8,2,9,0,,,,,,,,,,,1519.4114,1519.9113,1520.1618,1522.1122,space,1.9236,,1522.1125,88,22,1523.1114,1523.1114,1523.1248,,,,0,22,22,22,1,145,75,,,,,,,,
,,5f23c201727aba1b35635785,65af56817219ae981f60fe0d,2024-01-23_08h03.46.695,bars,2023.2.3,Win32,60.24096386,657b66ea316d21385b68909f,,,,,,,,,,,1523.125,1524.1286,,,1524.6287,1524.8781,,47,47,,,,,,,,,,,,,,,,bars/013.png,bars/mask005.png,,,,,,,,,,,,0,1,,,,,,,6,4,6,3,,,,,,,,,,,1524.1287,1524.6286,1524.8781,1529.295,space,4.4067,,1529.2951,28,37,1530.295,1530.295,1530.3093,,,,0,23,23,23,1,75,10,,,,,,,,
,,5f23c201727aba1b35635785,65af56817219ae981f60fe0d,2024-01-23_08h03.46.695,bars,2023.2.3,Win32,60.24096386,657b66ea316d21385b68909f,,,,,,,,,,,1530.3096,1531.3119,,,1531.8115,1532.0617,,106,106,,,,,,,,,,,,,,,,bars/044.png,bars/mask008.png,,,,,,,,,,,,0,1,,,,,,,8,6,8,6,,,,,,,,,,,1531.312,1531.8115,1532.0619,1534.0784,space,1.9916,,1534.0786,31,49,1535.0781,1535.0783,1535.0926,,,,0,24,24,24,1,75,155,,,,,,,,
,,5f23c201727aba1b35635785,65af56817219ae981f60fe0d,2024-01-23_08h03.46.695,bars,2023.2.3,Win32,60.24096386,657b66ea316d21385b68909f,,,,,,,,,,,1535.0929,1536.095,,,1536.5956,1536.8449,,113,113,,,,,,,,,,,,,,,,bars/039.png,bars/mask001.png,,,,,,,,,,,,4,2,,,,,,,10,4,10,5,,,,,,,,,,,1536.0951,1536.5954,1536.8449,1540.1617,space,3.2857,,1540.1618,62,8,1541.1656,1541.1657,1541.1812,,,,0,25,25,25,1,175,105,,,,,,,,
,,5f23c201727aba1b35635785,65af56817219ae981f60fe0d,2024-01-23_08h03.46.695,bars,2023.2.3,Win32,60.24096386,657b66ea316d21385b68909f,,,,,,,,,,,1541.1815,1542.1785,,,1542.6782,1542.9283,,168,168,,,,,,,,,,,,,,,,bars/044.png,bars/mask008.png,,,,,,,,,,,,1,2,,,,,,,10,2,10,2,,,,,,,,,,,1542.1785,1542.6781,1542.9285,1544.1452,space,1.1889,,1544.1455,87,13,1545.1453,1545.1454,1545.1471,,,,0,26,26,26,1,75,155,,,,,,,,
,,5f23c201727aba1b35635785,65af56817219ae981f60fe0d,2024-01-23_08h03.46.695,bars,2023.2.3,Win32,60.24096386,657b66ea316d21385b68909f,,,,,,,,,,,1545.1473,1546.145,,,1546.645,1546.895,,45,225,,,,,,,,,,,,,,,,bars/029.png,bars/mask004.png,,,,,,,,,,,,4,2,,,,,,,8,4,7,4,,,,,,,,,,,1546.1451,1546.6449,1546.8952,1551.0331,space,4.1172,,1551.0332,45,0,1552.0282,1552.0284,1552.0423,,,,0,27,27,27,1,90,45,,,,,,,,
,,5f23c201727aba1b35635785,65af56817219ae981f60fe0d,2024-01-23_08h03.46.695,bars,2023.2.3,Win32,60.24096386,657b66ea316d21385b68909f,,,,,,,,,,,1552.0426,1553.045,,,1553.5453,1553.7949,,68,68,,,,,,,,,,,,,,,,bars/029.png,bars/mask000.png,,,,,,,,,,,,1,1,,,,,,,6,6,4,7,,,,,,,,,,,1553.045,1553.5452,1553.795,1555.483,space,1.6675,,1555.4831,22,23,1556.4782,1556.4782,1556.4924,,,,0,28,28,28,1,90,45,,,,,,,,
,,5f23c201727aba1b35635785,65af56817219ae981f60fe0d,2024-01-23_08h03.46.695,bars,2023.2.3,Win32,60.24096386,657b66ea316d21385b68909f,,,,,,,,,,,1556.4925,1557.4948,,,1557.9953,1558.2449,,170,170,,,,,,,,,,,,,,,,bars/014.png,bars/mask004.png,,,,,,,,,,,,3,2,,,,,,,4,4,3,4,,,,,,,,,,,1557.4949,1557.9952,1558.2449,1560.2454,space,1.9764,,1560.2457,90,10,1561.2449,1561.2449,1561.2604,,,,0,29,29,29,1,80,0,,,,,,,,
,,5f23c201727aba1b35635785,65af56817219ae981f60fe0d,2024-01-23_08h03.46.695,bars,2023.2.3,Win32,60.24096386,657b66ea316d21385b68909f,,,,,,,,,,,1561.2606,1562.2615,,,1562.765,1563.0118,,157,157,,,,,,,,,,,,,,,,bars/044.png,bars/mask001.png,,,,,,,,,,,,3,2,,,,,,,6,2,6,3,,,,,,,,,,,1562.2615,1562.7649,1563.012,1564.4285,space,1.3854,,1564.4287,82,2,1565.429,1565.4291,1565.4308,,,,0,30,30,30,1,75,155,,,,,,,,
,,5f23c201727aba1b35635785,65af56817219ae981f60fe0d,2024-01-23_08h03.46.695,bars,2023.2.3,Win32,60.24096386,657b66ea316d21385b68909f,,,,,,,,,,,1565.4311,1566.4284,,,1566.9289,1567.1785,,151,-29,,,,,,,,,,,,,,,,bars/043.png,bars/mask000.png,,,,,,,,,,,,0,2,,,,,,,4,0,5,0,,,,,,,,,,,1566.4284,1566.9288,1567.1786,1571.7147,space,4.5157,,1571.7147,59,21,1572.7116,1572.7117,1572.7255,,,,0,31,31,31,1,30,130,,,,,,,,
,,5f23c201727aba1b35635785,65af56817219ae981f60fe0d,2024-01-23_08h03.46.695,bars,2023.2.3,Win32,60.24096386,657b66ea316d21385b68909f,,,,,,,,,,,1572.7257,1573.7282,,,1574.2286,1574.4784,,45,45,,,,,,,,,,,,,,,,bars/007.png,bars/mask001.png,,,,,,,,,,,,1,2,,,,,,,6,2,6,2,,,,,,,,,,,1573.7282,1574.2284,1574.4785,1575.6291,space,1.1269,,1575.6293,50,10,1576.6283,1576.6283,1576.6431,,,,0,32,32,32,1,175,55,,,,,,,,
,,5f23c201727aba1b35635785,65af56817219ae981f60fe0d,2024-01-23_08h03.46.695,bars,2023.2.3,Win32,60.24096386,657b66ea316d21385b68909f,,,,,,,,,,,1576.6434,1577.6451,,,1578.1451,1578.3949,,51,51,,,,,,,,,,,,,,,,bars/036.png,bars/mask004.png,,,,,,,,,,,,0,2,,,,,,,8,4,10,5,,,,,,,,,,,1577.6453,1578.145,1578.395,1583.5286,space,5.1062,,1583.5287,86,31,1584.5283,1584.5283,1584.5431,,,,0,33,33,33,1,145,20,,,,,,,,
,,5f23c201727aba1b35635785,65af56817219ae981f60fe0d,2024-01-23_08h03.46.695,bars,2023.2.3,Win32,60.24096386,657b66ea316d21385b68909f,,,,,,,,,,,1584.5434,1585.5451,,,1586.0451,1586.2975,,112,112,,,,,,,,,,,,,,,,bars/030.png,bars/mask000.png,,,,,,,,,,,,1,1,,,,,,,10,6,8,5,,,,,,,,,,,1585.5452,1586.045,1586.2975,1589.9334,space,3.6174,,1589.9334,28,47,1590.9286,1590.9287,1590.9429,,,,0,34,34,34,1,140,65,,,,,,,,
,,5f23c201727aba1b35635785,65af56817219ae981f60fe0d,2024-01-23_08h03.46.695,bars,2023.2.3,Win32,60.24096386,657b66ea316d21385b68909f,,,,,,,,,,,1590.9432,1591.9325,,,1592.4284,1592.6783,,114,114,,,,,,,,,,,,,,,,bars/042.png,bars/mask000.png,,,,,,,,,,,,0,1,,,,,,,10,8,10,8,,,,,,,,,,,1591.9326,1592.4283,1592.6783,1594.3333,space,1.6344,,1594.3334,31,39,1595.3282,1595.3283,1595.342,,,,0,35,35,35,1,145,75,,,,,,,,
,,5f23c201727aba1b35635785,65af56817219ae981f60fe0d,2024-01-23_08h03.46.695,bars,2023.2.3,Win32,60.24096386,657b66ea316d21385b68909f,,,,,,,,,,,1595.3422,1596.3453,,,1596.8456,1597.0954,,110,110,,,,,,,,,,,,,,,,bars/040.png,bars/mask005.png,,,,,,,,,,,,0,1,,,,,,,8,10,8,10,,,,,,,,,,,1596.3454,1596.8454,1597.0956,1599.6,space,2.4999,,1599.6,30,75,1600.5954,1600.5955,1600.5972,,,,0,36,36,36,1,140,5,,,,,,,,
,,5f23c201727aba1b35635785,65af56817219ae981f60fe0d,2024-01-23_08h03.46.695,bars,2023.2.3,Win32,60.24096386,657b66ea316d21385b68909f,,,,,,,,,,,1600.5974,1601.5952,,,1602.0952,1602.3453,,135,135,,,,,,,,,,,,,,,,bars/005.png,bars/mask002.png,,,,,,,,,,,,8,2,,,,,,,6,10,5,9,,,,,,,,,,,1601.5954,1602.0951,1602.3455,1605.4664,space,3.1006,,1605.4665,55,5,1606.4616,1606.4617,1606.4762,,,,0,37,37,37,1,10,140,,,,,,,,
,,5f23c201727aba1b35635785,65af56817219ae981f60fe0d,2024-01-23_08h03.46.695,bars,2023.2.3,Win32,60.24096386,657b66ea316d21385b68909f,,,,,,,,,,,1606.4764,1607.479,,,1607.9784,1608.2283,,102,102,,,,,,,,,,,,,,,,bars/019.png,bars/mask007.png,,,,,,,,,,,,7,2,,,,,,,4,8,4,8,,,,,,,,,,,1607.479,1607.9783,1608.2283,1611.2668,space,3.0182,,1611.2669,57,3,1612.264,1612.2641,1612.2764,,,,0,38,38,38,1,45,105,,,,,,,,
,,5f23c201727aba1b35635785,65af56817219ae981f60fe0d,2024-01-23_08h03.46.695,bars,2023.2.3,Win32,60.24096386,657b66ea316d21385b68909f,,,,,,,,,,,1612.2766,1613.2789,,,1613.7786,1614.0289,,141,141,,,,,,,,,,,,,,,,bars/024.png,bars/mask008.png,,,,,,,,,,,,1,1,,,,,,,2,6,2,5,,,,,,,,,,,1613.279,1613.7785,1614.029,1617.4668,space,3.4177,,1617.4668,21,29,1618.462,1618.4621,1618.4762,,,,0,39,39,39,1,120,170,,,,,,,,
,,5f23c201727aba1b35635785,65af56817219ae981f60fe0d,2024-01-23_08h03.46.695,bars,2023.2.3,Win32,60.24096386,657b66ea316d21385b68909f,,,,,,,,,,,1618.4764,1619.4783,,,1619.9784,1620.2286,,52,52,,,,,,,,,,,,,,,,bars/029.png,bars/mask003.png,,,,,,,,,,,,5,2,,,,,,,4,8,5,7,,,,,,,,,,,1619.4784,1619.9783,1620.2287,1622.3167,space,2.0676,,1622.3168,38,7,1623.3117,1623.3117,1623.3258,,,,0,40,40,40,1,90,45,,,,,,,,
,,5f23c201727aba1b35635785,65af56817219ae981f60fe0d,2024-01-23_08h03.46.695,bars,2023.2.3,Win32,60.24096386,657b66ea316d21385b68909f,,,,,,,,,,,1623.3261,1624.3284,,,1624.8326,1625.0784,,95,95,,,,,,,,,,,,,,,,bars/011.png,bars/mask006.png,,,,,,,,,,,,3,2,,,,,,,2,6,2,5,,,,,,,,,,,1624.3285,1624.8326,1625.0784,1627.2292,space,2.1205,,1627.2295,65,10,1628.2326,1628.2326,1628.2333,,,,0,41,41,41,1,160,85,,,,,,,,
,,5f23c201727aba1b35635785,65af56817219ae981f60fe0d,2024-01-23_08h03.46.695,bars,2023.2.3,Win32,60.24096386,657b66ea316d21385b68909f,,,,,,,,,,,1628.2336,1629.2283,,,1629.7291,1629.9787,,6,6,,,,,,,,,,,,,,,,bars/048.png,bars/mask005.png,,,,,,,,,,,,2,2,,,,,,,0,4,0,3,,,,,,,,,,,1629.2283,1629.7289,1629.979,1631.6997,space,1.7007,,1631.6997,44,11,1632.6955,1632.6955,1632.697,,,,0,42,42,42,1,50,175,,,,,,,,
,,5f23c201727aba1b35635785,65af56817219ae981f60fe0d,2024-01-23_08h03.46.695,bars,2023.2.3,Win32,60.24096386,657b66ea316d21385b68909f,,,,,,,,,,,1632.6972,1633.6993,,,1634.1953,1634.445,,38,38,,,,,,,,,,,,,,,,bars/017.png,bars/mask006.png,,,,,,,,,,,,2,2,,,,,,,2,2,1,3,,,,,,,,,,,1633.6993,1634.1952,1634.445,1636.8001,space,2.3339,,1636.8001,73,7,1637.795,1637.7951,1637.8089,,,,0,43,43,43,1,145,45,,,,,,,,
,,5f23c201727aba1b35635785,65af56817219ae981f60fe0d,2024-01-23_08h03.46.695,bars,2023.2.3,Win32,60.24096386,657b66ea316d21385b68909f,,,,,,,,,,,1637.8091,1638.8118,,,1639.3118,1639.5621,,64,64,,,,,,,,,,,,,,,,bars/038.png,bars/mask004.png,,,,,,,,,,,,3,2,,,,,,,4,4,5,4,,,,,,,,,,,1638.8118,1639.3118,1639.5622,1641.8788,space,2.2851,,1641.879,79,6,1642.8784,1642.8785,1642.8807,,,,0,44,44,44,1,165,70,,,,,,,,
,,5f23c201727aba1b35635785,65af56817219ae981f60fe0d,2024-01-23_08h03.46.695,bars,2023.2.3,Win32,60.24096386,657b66ea316d21385b68909f,,,,,,,,,,,1642.8809,1643.8824,,,1644.3786,1644.6285,,42,222,,,,,,,,,,,,,,,,bars/017.png,bars/mask004.png,,,,,,,,,,,,2,2,,,,,,,6,2,5,2,,,,,,,,,,,1643.8824,1644.3785,1644.6285,1647.3995,space,2.7658,,1647.3996,77,3,1648.3955,1648.3957,1648.409,,,,0,45,45,45,1,145,45,,,,,,,,
,,5f23c201727aba1b35635785,65af56817219ae981f60fe0d,2024-01-23_08h03.46.695,bars,2023.2.3,Win32,60.24096386,657b66ea316d21385b68909f,,,,,,,,,,,1648.4092,1649.4118,,,1649.9159,1650.1658,,145,145,,,,,,,,,,,,,,,,bars/043.png,bars/mask006.png,,,,,,,,,,,,1,2,,,,,,,4,4,5,2,,,,,,,,,,,1649.4119,1649.9159,1650.1658,1652.9665,space,2.7837,,1652.9665,65,15,1653.962,1653.962,1653.9756,,,,0,46,46,46,1,30,130,,,,,,,,
,,5f23c201727aba1b35635785,65af56817219ae981f60fe0d,2024-01-23_08h03.46.695,bars,2023.2.3,Win32,60.24096386,657b66ea316d21385b68909f,,,,,,,,,,,1653.9758,1654.9784,,,1655.4791,1655.7285,,111,111,,,,,,,,,,,,,,,,bars/009.png,bars/mask006.png,,,,,,,,,,,,2,2,,,,,,,6,2,7,2,,,,,,,,,,,1654.9785,1655.479,1655.7285,1658.0454,space,2.3009,,1658.0456,84,6,1659.0452,1659.0453,1659.0591,,,,0,47,47,47,1,15,105,,,,,,,,
,,5f23c201727aba1b35635785,65af56817219ae981f60fe0d,2024-01-23_08h03.46.695,bars,2023.2.3,Win32,60.24096386,657b66ea316d21385b68909f,,,,,,,,,,,1659.0594,1660.0618,,,1660.562,1660.8119,,157,-23,,,,,,,,,,,,,,,,bars/033.png,bars/mask009.png,,,,,,,,,,,,3,2,,,,,,,4,4,3,3,,,,,,,,,,,1660.0619,1660.5619,1660.812,1663.9667,space,3.1339,,1663.9667,48,2,1664.9619,1664.9619,1664.9752,,,,0,48,48,48,1,25,155,,,,,,,,
,,5f23c201727aba1b35635785,65af56817219ae981f60fe0d,2024-01-23_08h03.46.695,bars,2023.2.3,Win32,60.24096386,657b66ea316d21385b68909f,,,,,,,,,,,1664.9755,1665.9786,,,1666.4829,1666.7286,,51,51,,,,,,,,,,,,,,,,bars/017.png,bars/mask008.png,,,,,,,,,,,,2,2,,,,,,,2,2,1,2,,,,,,,,,,,1665.9787,1666.4829,1666.7287,1670.1497,space,3.4003,,1670.1497,86,6,1671.1461,1671.1463,1671.1601,,,,0,49,49,49,1,145,45,,,,,,,,
,,5f23c201727aba1b35635785,65af56817219ae981f60fe0d,2024-01-23_08h03.46.695,bars,2023.2.3,Win32,60.24096386,657b66ea316d21385b68909f,,,,,,,,,,,,,,,,,,,,,,,,,,,,,,,,,,,,,,,,,,,,,,,,,,,,,,,,,,,,,,,,,,,,,,,,,,,,,,,,,,,,,,,,,,,,,1671.1604,1731.1622,0,2,2,3,1,sequence_tables/blk020.csv
,,5f23c201727aba1b35635785,65af56817219ae981f60fe0d,2024-01-23_08h03.46.695,bars,2023.2.3,Win32,60.24096386,657b66ea316d21385b68909f,,,,,,,,,,,1733.2182,1734.2121,,,1734.7121,1734.9621,,165,165,,,,,,,,,,,,,,,,bars/024.png,bars/mask003.png,,,,,,,,,,,,3,2,,,,,,,1,3,2,3,,,,,,1731.1765,1733.2128,space,2.0271,,1734.2121,1734.712,1734.9623,1736.596,space,1.611,,1736.5963,45,5,1737.5991,1737.5991,1737.6135,,,,0,0,0,0,1,120,170,,,,,,,,
,,5f23c201727aba1b35635785,65af56817219ae981f60fe0d,2024-01-23_08h03.46.695,bars,2023.2.3,Win32,60.24096386,657b66ea316d21385b68909f,,,,,,,,,,,1737.6141,1738.6163,,,1739.1122,1739.3624,,61,61,,,,,,,,,,,,,,,,bars/047.png,bars/mask000.png,,,,,,,,,,,,4,2,,,,,,,3,5,4,6,,,,,,,,,,,1738.6164,1739.1121,1739.3625,1743.1961,space,3.8108,,1743.1962,46,9,1744.1956,1744.1957,1744.2089,,,,0,1,1,1,1,15,70,,,,,,,,
,,5f23c201727aba1b35635785,65af56817219ae981f60fe0d,2024-01-23_08h03.46.695,bars,2023.2.3,Win32,60.24096386,657b66ea316d21385b68909f,,,,,,,,,,,1744.2092,1745.2121,,,1745.7121,1745.962,,141,141,,,,,,,,,,,,,,,,bars/046.png,bars/mask000.png,,,,,,,,,,,,1,1,,,,,,,1,3,2,3,,,,,,,,,,,1745.2122,1745.7121,1745.9621,1748.0171,space,2.0498,,1748.0171,14,56,1749.0122,1749.0124,1749.0154,,,,0,2,2,2,1,155,85,,,,,,,,
,,5f23c201727aba1b35635785,65af56817219ae981f60fe0d,2024-01-23_08h03.46.695,bars,2023.2.3,Win32,60.24096386,657b66ea316d21385b68909f,,,,,,,,,,,1749.0157,1750.0121,,,1750.5121,1750.7621,,19,19,,,,,,,,,,,,,,,,bars/032.png,bars/mask001.png,,,,,,,,,,,,1,2,,,,,,,0,1,1,1,,,,,,,,,,,1750.0121,1750.512,1750.7621,1756.0459,space,5.2516,,1756.0461,74,1,1757.0453,1757.0455,1757.0602,,,,0,3,3,3,1,125,20,,,,,,,,
,,5f23c201727aba1b35635785,65af56817219ae981f60fe0d,2024-01-23_08h03.46.695,bars,2023.2.3,Win32,60.24096386,657b66ea316d21385b68909f,,,,,,,,,,,1757.0604,1758.0624,,,1758.5626,1758.8125,,142,142,,,,,,,,,,,,,,,,bars/007.png,bars/mask002.png,,,,,,,,,,,,0,1,,,,,,,2,3,1,3,,,,,,,,,,,1758.0624,1758.5625,1758.8125,1763.7837,space,4.9507,,1763.7837,33,87,1764.7788,1764.7788,1764.7937,,,,0,4,4,4,1,175,55,,,,,,,,
,,5f23c201727aba1b35635785,65af56817219ae981f60fe0d,2024-01-23_08h03.46.695,bars,2023.2.3,Win32,60.24096386,657b66ea316d21385b68909f,,,,,,,,,,,1764.794,1765.7954,,,1766.2956,1766.5458,,72,72,,,,,,,,,,,,,,,,bars/001.png,bars/mask001.png,,,,,,,,,,,,1,2,,,,,,,4,1,3,1,,,,,,,,,,,1765.7956,1766.2955,1766.546,1769.8126,space,3.2432,,1769.8129,58,13,1770.8122,1770.8123,1770.8272,,,,0,5,5,5,1,130,85,,,,,,,,
,,5f23c201727aba1b35635785,65af56817219ae981f60fe0d,2024-01-23_08h03.46.695,bars,2023.2.3,Win32,60.24096386,657b66ea316d21385b68909f,,,,,,,,,,,1770.8275,1771.8158,,,1772.3123,1772.5622,,64,64,,,,,,,,,,,,,,,,bars/038.png,bars/mask004.png,,,,,,,,,,,,2,2,,,,,,,6,3,5,2,,,,,,,,,,,1771.8159,1772.3122,1772.5623,1773.4671,space,0.8841,,1773.4671,79,6,1774.4621,1774.4622,1774.4643,,,,0,6,6,6,1,165,70,,,,,,,,
,,5f23c201727aba1b35635785,65af56817219ae981f60fe0d,2024-01-23_08h03.46.695,bars,2023.2.3,Win32,60.24096386,657b66ea316d21385b68909f,,,,,,,,,,,1774.4646,1775.4622,,,1775.9622,1776.2122,,8,8,,,,,,,,,,,,,,,,bars/048.png,bars/mask007.png,,,,,,,,,,,,2,2,,,,,,,4,5,5,4,,,,,,,,,,,1775.4623,1775.9622,1776.2123,1778.8502,space,2.6173,,1778.8503,42,13,1779.8457,1779.8458,1779.859,,,,0,7,7,7,1,50,175,,,,,,,,
,,5f23c201727aba1b35635785,65af56817219ae981f60fe0d,2024-01-23_08h03.46.695,bars,2023.2.3,Win32,60.24096386,657b66ea316d21385b68909f,,,,,,,,,,,1779.8592,1780.8626,,,1781.3623,1781.6145,,130,130,,,,,,,,,,,,,,,,bars/031.png,bars/mask004.png,,,,,,,,,,,,5,1,,,,,,,6,7,7,8,,,,,,,,,,,1780.8628,1781.3622,1781.6146,1784.0959,space,2.4565,,1784.0962,10,85,1785.0956,1785.0956,1785.1103,,,,0,8,8,8,1,120,35,,,,,,,,
,,5f23c201727aba1b35635785,65af56817219ae981f60fe0d,2024-01-23_08h03.46.695,bars,2023.2.3,Win32,60.24096386,657b66ea316d21385b68909f,,,,,,,,,,,1785.1105,1786.1145,,,1786.6123,1786.8666,,55,55,,,,,,,,,,,,,,,,bars/026.png,bars/mask003.png,,,,,,,,,,,,2,1,,,,,,,4,9,5,8,,,,,,,,,,,1786.1146,1786.6122,1786.8666,1789.6625,space,2.7688,,1789.6627,20,30,1790.6623,1790.6623,1790.6758,,,,0,9,9,9,1,35,85,,,,,,,,
,,5f23c201727aba1b35635785,65af56817219ae981f60fe0d,2024-01-23_08h03.46.695,bars,2023.2.3,Win32,60.24096386,657b66ea316d21385b68909f,,,,,,,,,,,1790.676,1791.6789,,,1792.1794,1792.4289,,136,136,,,,,,,,,,,,,,,,bars/042.png,bars/mask006.png,,,,,,,,,,,,4,1,,,,,,,6,10,6,10,,,,,,,,,,,1791.6792,1792.1793,1792.429,1794.6464,space,2.1917,,1794.6466,9,61,1795.6454,1795.6454,1795.6594,,,,0,10,10,10,1,145,75,,,,,,,,
,,5f23c201727aba1b35635785,65af56817219ae981f60fe0d,2024-01-23_08h03.46.695,bars,2023.2.3,Win32,60.24096386,657b66ea316d21385b68909f,,,,,,,,,,,1795.6596,1796.6623,,,1797.1629,1797.4123,,116,116,,,,,,,,,,,,,,,,bars/040.png,bars/mask007.png,,,,,,,,,,,,2,1,,,,,,,8,8,9,9,,,,,,,,,,,1796.6624,1797.1627,1797.4123,1799.9836,space,2.5507,,1799.9837,24,69,1800.9794,1800.9795,1800.993,,,,0,11,11,11,1,140,5,,,,,,,,
,,5f23c201727aba1b35635785,65af56817219ae981f60fe0d,2024-01-23_08h03.46.695,bars,2023.2.3,Win32,60.24096386,657b66ea316d21385b68909f,,,,,,,,,,,1800.9934,1801.9961,,,1802.4958,1802.7459,,66,66,,,,,,,,,,,,,,,,bars/029.png,bars/mask004.png,,,,,,,,,,,,2,2,,,,,,,6,6,5,8,,,,,,,,,,,1801.9962,1802.4957,1802.7461,1804.617,space,1.8503,,1804.6171,24,21,1805.6163,1805.6163,1805.6317,,,,0,12,12,12,1,90,45,,,,,,,,
,,5f23c201727aba1b35635785,65af56817219ae981f60fe0d,2024-01-23_08h03.46.695,bars,2023.2.3,Win32,60.24096386,657b66ea316d21385b68909f,,,,,,,,,,,1805.6319,1806.629,,,1807.1291,1807.3792,,144,144,,,,,,,,,,,,,,,,bars/045.png,bars/mask001.png,,,,,,,,,,,,0,1,,,,,,,4,4,4,5,,,,,,,,,,,1806.629,1807.129,1807.3793,1809.4626,space,2.0574,,1809.4627,44,46,1810.4626,1810.4627,1810.4769,,,,0,13,13,13,1,100,10,,,,,,,,
,,5f23c201727aba1b35635785,65af56817219ae981f60fe0d,2024-01-23_08h03.46.695,bars,2023.2.3,Win32,60.24096386,657b66ea316d21385b68909f,,,,,,,,,,,1810.4772,1811.4814,,,1811.979,1812.2291,,20,20,,,,,,,,,,,,,,,,bars/028.png,bars/mask008.png,,,,,,,,,,,,1,1,,,,,,,6,6,6,7,,,,,,,,,,,1811.4815,1811.9789,1812.2293,1814.8504,space,2.6008,,1814.8505,25,80,1815.8495,1815.8496,1815.864,,,,0,14,14,14,1,45,120,,,,,,,,
,,5f23c201727aba1b35635785,65af56817219ae981f60fe0d,2024-01-23_08h03.46.695,bars,2023.2.3,Win32,60.24096386,657b66ea316d21385b68909f,,,,,,,,,,,1815.8643,1816.8666,,,1817.3629,1817.6152,,101,101,,,,,,,,,,,,,,,,bars/047.png,bars/mask008.png,,,,,,,,,,,,0,2,,,,,,,8,4,8,3,,,,,,,,,,,1816.8667,1817.3626,1817.6152,1819.2671,space,1.6339,,1819.2672,86,31,1820.2623,1820.2623,1820.2767,,,,0,15,15,15,1,15,70,,,,,,,,
,,5f23c201727aba1b35635785,65af56817219ae981f60fe0d,2024-01-23_08h03.46.695,bars,2023.2.3,Win32,60.24096386,657b66ea316d21385b68909f,,,,,,,,,,,1820.2769,1821.2794,,,1821.779,1822.0292,,55,55,,,,,,,,,,,,,,,,bars/010.png,bars/mask006.png,,,,,,,,,,,,4,2,,,,,,,10,6,10,4,,,,,,,,,,,1821.2795,1821.779,1822.0293,1825.5174,space,3.4677,,1825.5175,70,0,1826.5123,1826.5124,1826.5256,,,,0,16,16,16,1,165,55,,,,,,,,
,,5f23c201727aba1b35635785,65af56817219ae981f60fe0d,2024-01-23_08h03.46.695,bars,2023.2.3,Win32,60.24096386,657b66ea316d21385b68909f,,,,,,,,,,,1826.5259,1827.5292,,,1828.029,1828.279,,65,65,,,,,,,,,,,,,,,,bars/027.png,bars/mask004.png,,,,,,,,,,,,3,2,,,,,,,10,4,10,5,,,,,,,,,,,1827.5293,1828.029,1828.279,1831.1319,space,2.8477,,1831.1319,45,15,1832.1293,1832.1294,1832.1426,,,,0,17,17,17,1,110,50,,,,,,,,
,,5f23c201727aba1b35635785,65af56817219ae981f60fe0d,2024-01-23_08h03.46.695,bars,2023.2.3,Win32,60.24096386,657b66ea316d21385b68909f,,,,,,,,,,,1832.1428,1833.1461,,,1833.6497,1833.8957,,78,78,,,,,,,,,,,,,,,,bars/002.png,bars/mask008.png,,,,,,,,,,,,6,2,,,,,,,10,6,9,8,,,,,,,,,,,1833.1462,1833.6497,1833.8957,1836.7462,space,2.8216,,1836.7464,52,7,1837.7459,1837.7461,1837.7597,,,,0,18,18,18,1,130,85,,,,,,,,
,,5f23c201727aba1b35635785,65af56817219ae981f60fe0d,2024-01-23_08h03.46.695,bars,2023.2.3,Win32,60.24096386,657b66ea316d21385b68909f,,,,,,,,,,,1837.76,1838.7624,,,1839.2624,1839.5125,,121,121,,,,,,,,,,,,,,,,bars/006.png,bars/mask009.png,,,,,,,,,,,,2,2,,,,,,,10,8,10,8,,,,,,,,,,,1838.7624,1839.2623,1839.5126,1841.4174,space,1.8841,,1841.4174,86,21,1842.4124,1842.4124,1842.4261,,,,0,19,19,19,1,35,100,,,,,,,,
,,5f23c201727aba1b35635785,65af56817219ae981f60fe0d,2024-01-23_08h03.46.695,bars,2023.2.3,Win32,60.24096386,657b66ea316d21385b68909f,,,,,,,,,,,1842.4264,1843.4331,,,1843.9295,1844.1796,,18,198,,,,,,,,,,,,,,,,bars/022.png,bars/mask004.png,,,,,,,,,,,,6,2,,,,,,,10,6,10,6,,,,,,,,,,,1843.4332,1843.9293,1844.1798,1847.5173,space,3.3175,,1847.5173,77,2,1848.5124,1848.5124,1848.5259,,,,0,20,20,20,1,95,20,,,,,,,,
,,5f23c201727aba1b35635785,65af56817219ae981f60fe0d,2024-01-23_08h03.46.695,bars,2023.2.3,Win32,60.24096386,657b66ea316d21385b68909f,,,,,,,,,,,1848.5261,1849.5298,,,1850.0297,1850.2796,,177,177,,,,,,,,,,,,,,,,bars/014.png,bars/mask004.png,,,,,,,,,,,,6,2,,,,,,,8,4,7,7,,,,,,,,,,,1849.5299,1850.0296,1850.2797,1852.0175,space,1.7177,,1852.0175,83,3,1853.0126,1853.0128,1853.0146,,,,0,21,21,21,1,80,0,,,,,,,,
,,5f23c201727aba1b35635785,65af56817219ae981f60fe0d,2024-01-23_08h03.46.695,bars,2023.2.3,Win32,60.24096386,657b66ea316d21385b68909f,,,,,,,,,,,1853.0149,1854.0124,,,1854.5125,1854.7625,,55,55,,,,,,,,,,,,,,,,bars/021.png,bars/mask001.png,,,,,,,,,,,,1,2,,,,,,,10,2,10,2,,,,,,,,,,,1854.0124,1854.5125,1854.7625,1857.0505,space,2.269,,1857.0505,80,15,1858.0458,1858.0458,1858.0605,,,,0,22,22,22,1,155,70,,,,,,,,
,,5f23c201727aba1b35635785,65af56817219ae981f60fe0d,2024-01-23_08h03.46.695,bars,2023.2.3,Win32,60.24096386,657b66ea316d21385b68909f,,,,,,,,,,,1858.0607,1859.0626,,,1859.5625,1859.8124,,106,106,,,,,,,,,,,,,,,,bars/039.png,bars/mask000.png,,,,,,,,,,,,0,2,,,,,,,10,0,9,0,,,,,,,,,,,1859.0627,1859.5624,1859.8125,1862.7672,space,2.9495,,1862.7673,69,1,1863.7625,1863.7625,1863.7766,,,,0,23,23,23,1,175,105,,,,,,,,
,,5f23c201727aba1b35635785,65af56817219ae981f60fe0d,2024-01-23_08h03.46.695,bars,2023.2.3,Win32,60.24096386,657b66ea316d21385b68909f,,,,,,,,,,,1863.7768,1864.7815,,,1865.2799,1865.5291,,111,111,,,,,,,,,,,,,,,,bars/019.png,bars/mask009.png,,,,,,,,,,,,2,2,,,,,,,8,2,8,2,,,,,,,,,,,1864.7816,1865.2798,1865.5292,1867.4339,space,1.8838,,1867.4339,66,6,1868.4291,1868.4291,1868.4425,,,,0,24,24,24,1,45,105,,,,,,,,
,,5f23c201727aba1b35635785,65af56817219ae981f60fe0d,2024-01-23_08h03.46.695,bars,2023.2.3,Win32,60.24096386,657b66ea316d21385b68909f,,,,,,,,,,,1868.4426,1869.4459,,,1869.9462,1870.2,,110,110,,,,,,,,,,,,,,,,bars/019.png,bars/mask007.png,,,,,,,,,,,,3,2,,,,,,,10,4,10,3,,,,,,,,,,,1869.446,1869.9462,1870.2,1874.6504,space,4.4338,,1874.6505,65,5,1875.6458,1875.6458,1875.6589,,,,0,25,25,25,1,45,105,,,,,,,,
,,5f23c201727aba1b35635785,65af56817219ae981f60fe0d,2024-01-23_08h03.46.695,bars,2023.2.3,Win32,60.24096386,657b66ea316d21385b68909f,,,,,,,,,,,1875.6591,1876.6629,,,1877.1626,1877.4125,,98,98,,,,,,,,,,,,,,,,bars/018.png,bars/mask000.png,,,,,,,,,,,,4,2,,,,,,,8,6,8,6,,,,,,,,,,,1876.6631,1877.1625,1877.4126,1882.1973,space,4.7602,,1882.1974,52,8,1883.1957,1883.1958,1883.2094,,,,0,26,26,26,1,150,90,,,,,,,,
,,5f23c201727aba1b35635785,65af56817219ae981f60fe0d,2024-01-23_08h03.46.695,bars,2023.2.3,Win32,60.24096386,657b66ea316d21385b68909f,,,,,,,,,,,1883.2095,1884.2125,,,1884.7126,1884.9625,,144,144,,,,,,,,,,,,,,,,bars/030.png,bars/mask000.png,,,,,,,,,,,,6,1,,,,,,,6,4,7,4,,,,,,,,,,,1884.2126,1884.7125,1884.9626,1889.0504,space,4.0672,,1889.0504,4,79,1890.0459,1890.046,1890.0603,,,,0,27,27,27,1,140,65,,,,,,,,
,,5f23c201727aba1b35635785,65af56817219ae981f60fe0d,2024-01-23_08h03.46.695,bars,2023.2.3,Win32,60.24096386,657b66ea316d21385b68909f,,,,,,,,,,,1890.0605,1891.0625,,,1891.5668,1891.8127,,45,45,,,,,,,,,,,,,,,,bars/015.png,bars/mask000.png,,,,,,,,,,,,0,2,,,,,,,8,6,7,7,,,,,,,,,,,1891.0625,1891.5668,1891.8128,1894.8799,space,3.0353,,1894.88,65,65,1895.8796,1895.8797,1895.8935,,,,0,28,28,28,1,110,160,,,,,,,,
,,5f23c201727aba1b35635785,65af56817219ae981f60fe0d,2024-01-23_08h03.46.695,bars,2023.2.3,Win32,60.24096386,657b66ea316d21385b68909f,,,,,,,,,,,1895.8937,1896.8964,,,1897.4,1897.6501,,138,138,,,,,,,,,,,,,,,,bars/017.png,bars/mask008.png,,,,,,,,,,,,7,1,,,,,,,10,4,9,5,,,,,,,,,,,1896.8965,1897.4,1897.6501,1899.7007,space,2.0339,,1899.7007,7,87,1900.6999,1900.6999,1900.7152,,,,0,29,29,29,1,145,45,,,,,,,,
,,5f23c201727aba1b35635785,65af56817219ae981f60fe0d,2024-01-23_08h03.46.695,bars,2023.2.3,Win32,60.24096386,657b66ea316d21385b68909f,,,,,,,,,,,1900.7154,1901.7126,,,1902.2127,1902.4626,,134,134,,,,,,,,,,,,,,,,bars/005.png,bars/mask001.png,,,,,,,,,,,,0,2,,,,,,,8,2,8,0,,,,,,,,,,,1901.7126,1902.2126,1902.4626,1907.0674,space,4.5837,,1907.0674,56,6,1908.0625,1908.0626,1908.0774,,,,0,30,30,30,1,10,140,,,,,,,,
,,5f23c201727aba1b35635785,65af56817219ae981f60fe0d,2024-01-23_08h03.46.695,bars,2023.2.3,Win32,60.24096386,657b66ea316d21385b68909f,,,,,,,,,,,1908.0776,1909.0796,,,1909.5799,1909.8296,,60,60,,,,,,,,,,,,,,,,bars/034.png,bars/mask004.png,,,,,,,,,,,,3,2,,,,,,,10,4,10,4,,,,,,,,,,,1909.0797,1909.5797,1909.8298,1911.2678,space,1.4178,,1911.2678,65,5,1912.2626,1912.2627,1912.2761,,,,0,31,31,31,1,125,65,,,,,,,,
,,5f23c201727aba1b35635785,65af56817219ae981f60fe0d,2024-01-23_08h03.46.695,bars,2023.2.3,Win32,60.24096386,657b66ea316d21385b68909f,,,,,,,,,,,1912.2763,1913.2796,,,1913.78,1914.0298,,25,25,,,,,,,,,,,,,,,,bars/003.png,bars/mask002.png,,,,,,,,,,,,7,1,,,,,,,8,2,7,2,,,,,,,,,,,1913.2798,1913.7799,1914.0299,1916.0675,space,2.0174,,1916.0676,0,65,1917.0629,1917.0629,1917.0775,,,,0,32,32,32,1,25,140,,,,,,,,
,,5f23c201727aba1b35635785,65af56817219ae981f60fe0d,2024-01-23_08h03.46.695,bars,2023.2.3,Win32,60.24096386,657b66ea316d21385b68909f,,,,,,,,,,,1917.0779,1918.0668,,,1918.5632,1918.8126,,138,138,,,,,,,,,,,,,,,,bars/030.png,bars/mask005.png,,,,,,,,,,,,9,1,,,,,,,10,0,10,1,,,,,,,,,,,1918.0669,1918.5631,1918.8127,1920.3986,space,1.5672,,1920.3986,2,73,1921.3965,1921.3966,1921.3982,,,,0,33,33,33,1,140,65,,,,,,,,
,,5f23c201727aba1b35635785,65af56817219ae981f60fe0d,2024-01-23_08h03.46.695,bars,2023.2.3,Win32,60.24096386,657b66ea316d21385b68909f,,,,,,,,,,,1921.3985,1922.3959,,,1922.896,1923.1463,,59,59,,,,,,,,,,,,,,,,bars/016.png,bars/mask002.png,,,,,,,,,,,,4,1,,,,,,,10,0,10,1,,,,,,,,,,,1922.3959,1922.8959,1923.1465,1925.0174,space,1.8503,,1925.0174,19,74,1926.0126,1926.0126,1926.015,,,,0,34,34,34,1,40,165,,,,,,,,
,,5f23c201727aba1b35635785,65af56817219ae981f60fe0d,2024-01-23_08h03.46.695,bars,2023.2.3,Win32,60.24096386,657b66ea316d21385b68909f,,,,,,,,,,,1926.0153,1927.0168,,,1927.513,1927.7628,,67,67,,,,,,,,,,,,,,,,bars/001.png,bars/mask000.png,,,,,,,,,,,,1,2,,,,,,,8,2,8,2,,,,,,,,,,,1927.0169,1927.5129,1927.7628,1930.1302,space,2.338,,1930.1303,63,18,1931.1297,1931.1298,1931.144,,,,0,35,35,35,1,130,85,,,,,,,,
,,5f23c201727aba1b35635785,65af56817219ae981f60fe0d,2024-01-23_08h03.46.695,bars,2023.2.3,Win32,60.24096386,657b66ea316d21385b68909f,,,,,,,,,,,1931.1443,1932.1336,,,1932.6297,1932.8798,,126,126,,,,,,,,,,,,,,,,bars/005.png,bars/mask002.png,,,,,,,,,,,,1,2,,,,,,,6,0,6,1,,,,,,,,,,,1932.1336,1932.6296,1932.8799,1936.8508,space,3.9507,,1936.8508,64,14,1937.8463,1937.8463,1937.8596,,,,0,36,36,36,1,10,140,,,,,,,,
,,5f23c201727aba1b35635785,65af56817219ae981f60fe0d,2024-01-23_08h03.46.695,bars,2023.2.3,Win32,60.24096386,657b66ea316d21385b68909f,,,,,,,,,,,1937.8598,1938.8629,,,1939.3628,1939.6127,,151,151,,,,,,,,,,,,,,,,bars/036.png,bars/mask007.png,,,,,,,,,,,,7,1,,,,,,,8,2,9,2,,,,,,,,,,,1938.863,1939.3627,1939.6127,1943.88,space,4.24,,1943.8803,6,49,1944.8834,1944.8834,1944.8986,,,,0,37,37,37,1,145,20,,,,,,,,
,,5f23c201727aba1b35635785,65af56817219ae981f60fe0d,2024-01-23_08h03.46.695,bars,2023.2.3,Win32,60.24096386,657b66ea316d21385b68909f,,,,,,,,,,,1944.8988,1945.9,,,1946.396,1946.6462,,41,41,,,,,,,,,,,,,,,,bars/044.png,bars/mask005.png,,,,,,,,,,,,0,1,,,,,,,10,4,10,6,,,,,,,,,,,1945.9,1946.396,1946.6464,1948.6342,space,1.9676,,1948.6343,34,66,1949.6293,1949.6295,1949.6313,,,,0,38,38,38,1,75,155,,,,,,,,
,,5f23c201727aba1b35635785,65af56817219ae981f60fe0d,2024-01-23_08h03.46.695,bars,2023.2.3,Win32,60.24096386,657b66ea316d21385b68909f,,,,,,,,,,,1949.6317,1950.6294,,,1951.1299,1951.3798,,145,-35,,,,,,,,,,,,,,,,bars/012.png,bars/mask002.png,,,,,,,,,,,,0,2,,,,,,,10,6,9,5,,,,,,,,,,,1950.6295,1951.1298,1951.3799,1954.8177,space,3.4175,,1954.8178,55,50,1955.8128,1955.8128,1955.8277,,,,0,39,39,39,1,90,15,,,,,,,,
,,5f23c201727aba1b35635785,65af56817219ae981f60fe0d,2024-01-23_08h03.46.695,bars,2023.2.3,Win32,60.24096386,657b66ea316d21385b68909f,,,,,,,,,,,1955.828,1956.8297,,,1957.3299,1957.5799,,49,49,,,,,,,,,,,,,,,,bars/018.png,bars/mask005.png,,,,,,,,,,,,0,2,,,,,,,10,4,10,3,,,,,,,,,,,1956.8298,1957.3297,1957.58,1959.8131,space,2.2089,,1959.8132,79,41,1960.8128,1960.813,1960.8266,,,,0,40,40,40,1,150,90,,,,,,,,
,,5f23c201727aba1b35635785,65af56817219ae981f60fe0d,2024-01-23_08h03.46.695,bars,2023.2.3,Win32,60.24096386,657b66ea316d21385b68909f,,,,,,,,,,,1960.8268,1961.8295,,,1962.3301,1962.5801,,107,107,,,,,,,,,,,,,,,,bars/039.png,bars/mask000.png,,,,,,,,,,,,2,2,,,,,,,10,2,10,2,,,,,,,,,,,1961.8296,1962.3299,1962.5801,1964.7159,space,2.1158,,1964.7159,68,2,1965.7129,1965.713,1965.7263,,,,0,41,41,41,1,175,105,,,,,,,,
,,5f23c201727aba1b35635785,65af56817219ae981f60fe0d,2024-01-23_08h03.46.695,bars,2023.2.3,Win32,60.24096386,657b66ea316d21385b68909f,,,,,,,,,,,1965.7265,1966.7298,,,1967.23,1967.48,,29,29,,,,,,,,,,,,,,,,bars/038.png,bars/mask003.png,,,,,,,,,,,,0,2,,,,,,,8,0,7,0,,,,,,,,,,,1966.7299,1967.23,1967.4801,1970.484,space,2.9838,,1970.484,44,41,1971.4794,1971.4796,1971.4933,,,,0,42,42,42,1,165,70,,,,,,,,
,,5f23c201727aba1b35635785,65af56817219ae981f60fe0d,2024-01-23_08h03.46.695,bars,2023.2.3,Win32,60.24096386,657b66ea316d21385b68909f,,,,,,,,,,,1971.4934,1972.496,,,1972.9963,1973.2503,,126,126,,,,,,,,,,,,,,,,bars/037.png,bars/mask005.png,,,,,,,,,,,,0,2,,,,,,,6,0,5,1,,,,,,,,,,,1972.4962,1972.9962,1973.2503,1975.2642,space,1.9901,,1975.2643,24,21,1976.2633,1976.2633,1976.2649,,,,0,43,43,43,1,150,105,,,,,,,,
,,5f23c201727aba1b35635785,65af56817219ae981f60fe0d,2024-01-23_08h03.46.695,bars,2023.2.3,Win32,60.24096386,657b66ea316d21385b68909f,,,,,,,,,,,1976.2653,1977.263,,,1977.7628,1978.0129,,141,141,,,,,,,,,,,,,,,,bars/043.png,bars/mask008.png,,,,,,,,,,,,0,2,,,,,,,8,0,9,0,,,,,,,,,,,1977.2632,1977.7628,1978.013,1980.1147,space,2.0803,,1980.1147,69,11,1981.1127,1981.1128,1981.1261,,,,0,44,44,44,1,30,130,,,,,,,,
,,5f23c201727aba1b35635785,65af56817219ae981f60fe0d,2024-01-23_08h03.46.695,bars,2023.2.3,Win32,60.24096386,657b66ea316d21385b68909f,,,,,,,,,,,1981.1263,1982.1304,,,1982.6301,1982.88,,1,1,,,,,,,,,,,,,,,,bars/048.png,bars/mask004.png,,,,,,,,,,,,0,2,,,,,,,10,0,10,0,,,,,,,,,,,1982.1305,1982.6299,1982.8801,1986.1806,space,3.277,,1986.1807,49,6,1987.1794,1987.1796,1987.1936,,,,0,45,45,45,1,50,175,,,,,,,,
,,5f23c201727aba1b35635785,65af56817219ae981f60fe0d,2024-01-23_08h03.46.695,bars,2023.2.3,Win32,60.24096386,657b66ea316d21385b68909f,,,,,,,,,,,1987.1938,1988.1961,,,1988.6968,1988.9467,,62,242,,,,,,,,,,,,,,,,bars/011.png,bars/mask007.png,,,,,,,,,,,,1,2,,,,,,,8,2,7,3,,,,,,,,,,,1988.1961,1988.6967,1988.9468,1992.7011,space,3.7339,,1992.7012,82,23,1993.6965,1993.6967,1993.7103,,,,0,46,46,46,1,160,85,,,,,,,,
,,5f23c201727aba1b35635785,65af56817219ae981f60fe0d,2024-01-23_08h03.46.695,bars,2023.2.3,Win32,60.24096386,657b66ea316d21385b68909f,,,,,,,,,,,1993.7105,1994.7128,,,1995.2131,1995.4629,,109,109,,,,,,,,,,,,,,,,bars/041.png,bars/mask002.png,,,,,,,,,,,,0,2,,,,,,,10,0,10,0,,,,,,,,,,,1994.7129,1995.213,1995.4629,1998.263,space,2.7687,,1998.2631,89,24,1999.2628,1999.263,1999.277,,,,0,47,47,47,1,20,85,,,,,,,,
,,5f23c201727aba1b35635785,65af56817219ae981f60fe0d,2024-01-23_08h03.46.695,bars,2023.2.3,Win32,60.24096386,657b66ea316d21385b68909f,,,,,,,,,,,1999.2772,2000.2798,,,2000.7804,2001.0336,,50,50,,,,,,,,,,,,,,,,bars/001.png,bars/mask000.png,,,,,,,,,,,,0,2,,,,,,,8,2,6,2,,,,,,,,,,,2000.2799,2000.7803,2001.0336,2004.6346,space,3.5846,,2004.6346,80,35,2005.6299,2005.63,2005.6431,,,,0,48,48,48,1,130,85,,,,,,,,
,,5f23c201727aba1b35635785,65af56817219ae981f60fe0d,2024-01-23_08h03.46.695,bars,2023.2.3,Win32,60.24096386,657b66ea316d21385b68909f,,,,,,,,,,,2005.6433,2006.6462,,,2007.1463,2007.3962,,135,135,,,,,,,,,,,,,,,,bars/046.png,bars/mask004.png,,,,,,,,,,,,3,1,,,,,,,10,4,9,4,,,,,,,,,,,2006.6462,2007.1462,2007.3963,2009.6843,space,2.2693,,2009.6843,20,50,2010.6801,2010.6803,2010.6825,,,,0,49,49,49,1,155,85,,,,,,,,
,,5f23c201727aba1b35635785,65af56817219ae981f60fe0d,2024-01-23_08h03.46.695,bars,2023.2.3,Win32,60.24096386,657b66ea316d21385b68909f,,,,,,,,,,,,,,,,,,,,,,,,,,,,,,,,,,,,,,,,,,,,,,,,,,,,,,,,,,,,,,,,,,,,,,,,,,,,,,,,,,,,,,,,,,,,,2010.6825,2070.6819,0,3,3,4,1,sequence_tables/blk036.csv
,,5f23c201727aba1b35635785,65af56817219ae981f60fe0d,2024-01-23_08h03.46.695,bars,2023.2.3,Win32,60.24096386,657b66ea316d21385b68909f,,,,,,,,,,,2072.3849,2073.3803,,,2073.8804,2074.1303,,47,47,,,,,,,,,,,,,,,,bars/028.png,bars/mask003.png,,,,,,,,,,,,4,1,,,,,,,2,7,4,8,,,,,,2070.6952,2072.3808,space,1.6766,,2073.3804,2073.8802,2074.1303,2076.7345,space,2.5841,,2076.7345,2,73,2077.7303,2077.7304,2077.7438,,,,0,0,0,0,1,45,120,,,,,,,,
,,5f23c201727aba1b35635785,65af56817219ae981f60fe0d,2024-01-23_08h03.46.695,bars,2023.2.3,Win32,60.24096386,657b66ea316d21385b68909f,,,,,,,,,,,2077.744,2078.7463,,,2079.2464,2079.5006,,129,129,,,,,,,,,,,,,,,,bars/044.png,bars/mask000.png,,,,,,,,,,,,1,2,,,,,,,4,5,3,5,,,,,,,,,,,2078.7464,2079.2464,2079.5006,2081.8182,space,2.3007,,2081.8182,54,26,2082.8132,2082.8133,2082.8276,,,,0,1,1,1,1,75,155,,,,,,,,
,,5f23c201727aba1b35635785,65af56817219ae981f60fe0d,2024-01-23_08h03.46.695,bars,2023.2.3,Win32,60.24096386,657b66ea316d21385b68909f,,,,,,,,,,,2082.8278,2083.8296,,,2084.3298,2084.5801,,121,121,,,,,,,,,,,,,,,,bars/020.png,bars/mask003.png,,,,,,,,,,,,6,1,,,,,,,6,7,7,8,,,,,,,,,,,2083.8296,2084.3298,2084.5801,2087.7513,space,3.1507,,2087.7513,6,49,2088.7464,2088.7464,2088.761,,,,0,2,2,2,1,115,170,,,,,,,,
,,5f23c201727aba1b35635785,65af56817219ae981f60fe0d,2024-01-23_08h03.46.695,bars,2023.2.3,Win32,60.24096386,657b66ea316d21385b68909f,,,,,,,,,,,2088.7613,2089.7631,,,2090.2635,2090.5131,,100,100,,,,,,,,,,,,,,,,bars/026.png,bars/mask002.png,,,,,,,,,,,,3,2,,,,,,,8,5,7,5,,,,,,,,,,,2089.7631,2090.2634,2090.5131,2095.5968,space,5.0748,,2095.597,65,15,2096.5965,2096.5965,2096.6108,,,,0,3,3,3,1,35,85,,,,,,,,
,,5f23c201727aba1b35635785,65af56817219ae981f60fe0d,2024-01-23_08h03.46.695,bars,2023.2.3,Win32,60.24096386,657b66ea316d21385b68909f,,,,,,,,,,,2096.611,2097.6007,,,2098.097,2098.3468,,153,153,,,,,,,,,,,,,,,,bars/002.png,bars/mask009.png,,,,,,,,,,,,1,1,,,,,,,6,3,6,2,,,,,,,,,,,2097.6007,2098.0968,2098.347,2101.2802,space,2.9056,,2101.2805,23,68,2102.28,2102.28,2102.2941,,,,0,4,4,4,1,130,85,,,,,,,,
,,5f23c201727aba1b35635785,65af56817219ae981f60fe0d,2024-01-23_08h03.46.695,bars,2023.2.3,Win32,60.24096386,657b66ea316d21385b68909f,,,,,,,,,,,2102.2943,2103.2964,,,2103.7991,2104.0465,,45,45,,,,,,,,,,,,,,,,bars/036.png,bars/mask009.png,,,,,,,,,,,,1,2,,,,,,,4,5,4,6,,,,,,,,,,,2103.2965,2103.7991,2104.0466,2109.0182,space,4.9508,,2109.0182,80,25,2110.0132,2110.0132,2110.0275,,,,0,5,5,5,1,145,20,,,,,,,,
,,5f23c201727aba1b35635785,65af56817219ae981f60fe0d,2024-01-23_08h03.46.695,bars,2023.2.3,Win32,60.24096386,657b66ea316d21385b68909f,,,,,,,,,,,2110.0277,2111.0301,,,2111.5177,2111.7632,,40,40,,,,,,,,,,,,,,,,bars/013.png,bars/mask007.png,,,,,,,,,,,,0,2,,,,,,,2,3,3,3,,,,,,,,,,,2111.0302,2111.5177,2111.7632,2115.4513,space,3.683,,2115.4513,35,30,2116.4467,2116.4469,2116.4602,,,,0,6,6,6,1,75,10,,,,,,,,
,,5f23c201727aba1b35635785,65af56817219ae981f60fe0d,2024-01-23_08h03.46.695,bars,2023.2.3,Win32,60.24096386,657b66ea316d21385b68909f,,,,,,,,,,,2116.4604,2117.4632,,,2117.9677,2118.2132,,19,19,,,,,,,,,,,,,,,,bars/014.png,bars/mask002.png,,,,,,,,,,,,1,2,,,,,,,4,1,6,2,,,,,,,,,,,2117.4633,2117.9677,2118.2132,2120.8849,space,2.6664,,2120.8849,61,19,2121.8803,2121.8805,2121.8934,,,,0,7,7,7,1,80,0,,,,,,,,
,,5f23c201727aba1b35635785,65af56817219ae981f60fe0d,2024-01-23_08h03.46.695,bars,2023.2.3,Win32,60.24096386,657b66ea316d21385b68909f,,,,,,,,,,,2121.8936,2122.8969,,,2123.4009,2123.6465,,38,38,,,,,,,,,,,,,,,,bars/022.png,bars/mask005.png,,,,,,,,,,,,2,2,,,,,,,6,3,5,4,,,,,,,,,,,2122.897,2123.4009,2123.6466,2125.1635,space,1.4873,,2125.1637,57,18,2126.1671,2126.1672,2126.1682,,,,0,8,8,8,1,95,20,,,,,,,,
,,5f23c201727aba1b35635785,65af56817219ae981f60fe0d,2024-01-23_08h03.46.695,bars,2023.2.3,Win32,60.24096386,657b66ea316d21385b68909f,,,,,,,,,,,2126.1686,2127.1633,,,2127.6633,2127.9134,,56,56,,,,,,,,,,,,,,,,bars/047.png,bars/mask007.png,,,,,,,,,,,,3,2,,,,,,,8,5,7,5,,,,,,,,,,,2127.1633,2127.6633,2127.9135,2133.3968,space,5.4591,,2133.397,41,14,2134.3965,2134.3967,2134.4097,,,,0,9,9,9,1,15,70,,,,,,,,
,,5f23c201727aba1b35635785,65af56817219ae981f60fe0d,2024-01-23_08h03.46.695,bars,2023.2.3,Win32,60.24096386,657b66ea316d21385b68909f,,,,,,,,,,,2134.4099,2135.4175,,,2135.9135,2136.1633,,162,162,,,,,,,,,,,,,,,,bars/014.png,bars/mask001.png,,,,,,,,,,,,2,2,,,,,,,10,3,10,4,,,,,,,,,,,2135.4175,2135.9134,2136.1633,2139.4185,space,3.2347,,2139.4186,82,18,2140.4136,2140.4137,2140.4268,,,,0,10,10,10,1,80,0,,,,,,,,
