init_variables.started,init_variables.stopped,participant,session,date,expName,psychopyVersion,OS,frameRate,study_id,instruction_exp.started,instruction_exp.stopped,key_resp_8.keys,key_resp_8.rt,key_resp_8.duration,instruction_single.started,instruction_single.stopped,key_resp_2.keys,key_resp_2.rt,key_resp_2.duration,interval.started,interval.stopped,cue_single.started,cue_single.stopped,mask.started,mask.stopped,ori_response_single.started,res_ori,res,ori_response_single.stopped,key_resp_single.keys,key_resp_single.rt,key_resp_single.duration,disp_single.started,disp_single.stopped,key_resp.keys,key_resp.rt,key_resp.duration,single.thisRepN,single.thisTrialN,single.thisN,single.thisIndex,single.ran,ori,path,mask_path,instruction_bandit.started,instruction_bandit.stopped,key_resp_6.keys,key_resp_6.rt,key_resp_6.duration,cue_bandit.started,cue_bandit.stopped,bandit_res.keys,bandit_res.rt,bandit_res.duration,outcome_bandit.started,rew,action,outcome_bandit.stopped,bandit.thisRepN,bandit.thisTrialN,bandit.thisN,bandit.thisIndex,bandit.ran,actual_rew1,actual_rew2,rew1,rew2,instruction_task.started,instruction_task.stopped,key_resp_7.keys,key_resp_7.rt,key_resp_7.duration,wait_ready.started,wait_ready.stopped,key_resp_3.keys,key_resp_3.rt,key_resp_3.duration,cue.started,cue.stopped,ori_response.started,ori_response.stopped,key_resp_5.keys,key_resp_5.rt,key_resp_5.duration,outcome.started,diff1,diff2,outcome.stopped,disp_outcome_practice.started,disp_outcome_practice.stopped,key_resp_4.keys,key_resp_4.rt,key_resp_4.duration,trials.thisRepN,trials.thisTrialN,trials.thisN,trials.thisIndex,trials.ran,ori1,ori2,break_blk.started,break_blk.stopped,block.thisRepN,block.thisTrialN,block.thisN,block.thisIndex,block.ran,condition_file
0.0004,0.0005,5d5496bdd84ebe0001f5fb20,65af557a304b05200d920853,2024-01-22_23h15.22.776,bars,2023.2.3,Win32,59.88023952,657b66ea316d21385b68909f,,,,,,,,,,,,,,,,,,,,,,,,,,,,,,,,,,,,,,,,,,,,,,,,,,,,,,,,,,,,,,,,,,,,,,,,,,,,,,,,,,,,,,,,,,,,,,,,,,,,
,,5d5496bdd84ebe0001f5fb20,65af557a304b05200d920853,2024-01-22_23h15.22.776,bars,2023.2.3,Win32,59.88023952,657b66ea316d21385b68909f,0.0007,8.5839,y,8.5357,,,,,,,,,,,,,,,,,,,,,,,,,,,,,,,,,,,,,,,,,,,,,,,,,,,,,,,,,,,,,,,,,,,,,,,,,,,,,,,,,,,,,,,,,,,,,,,,
,,5d5496bdd84ebe0001f5fb20,65af557a304b05200d920853,2024-01-22_23h15.22.776,bars,2023.2.3,Win32,59.88023952,657b66ea316d21385b68909f,,,,,,8.584,35.4521,space,26.8491,,,,,,,,,,,,,,,,,,,,,,,,,,,,,,,,,,,,,,,,,,,,,,,,,,,,,,,,,,,,,,,,,,,,,,,,,,,,,,,,,,,,,,,,,,,
,,5d5496bdd84ebe0001f5fb20,65af557a304b05200d920853,2024-01-22_23h15.22.776,bars,2023.2.3,Win32,59.88023952,657b66ea316d21385b68909f,,,,,,,,,,,35.4596,36.459,36.4594,36.9614,36.9616,37.2074,37.2078,95,95,44.7959,space,7.5443,,44.796,54.4555,space,9.624,,0,0,0,4,1,95,bars/single004.png,bars/mask004.png,,,,,,,,,,,,,,,,,,,,,,,,,,,,,,,,,,,,,,,,,,,,,,,,,,,,,,,,,,,,,,,,
,,5d5496bdd84ebe0001f5fb20,65af557a304b05200d920853,2024-01-22_23h15.22.776,bars,2023.2.3,Win32,59.88023952,657b66ea316d21385b68909f,,,,,,,,,,,54.4676,55.4716,55.4717,55.9708,55.9709,56.2209,56.2209,165,165,61.3707,space,5.1364,,61.3707,67.303,space,5.9055,,0,1,1,8,1,160,bars/single008.png,bars/mask004.png,,,,,,,,,,,,,,,,,,,,,,,,,,,,,,,,,,,,,,,,,,,,,,,,,,,,,,,,,,,,,,,,
,,5d5496bdd84ebe0001f5fb20,65af557a304b05200d920853,2024-01-22_23h15.22.776,bars,2023.2.3,Win32,59.88023952,657b66ea316d21385b68909f,,,,,,,,,,,67.3148,68.32,68.32,68.8199,68.8199,69.069,69.069,35,35,72.0022,space,2.9166,,72.0023,82.4842,space,10.4672,,0,2,2,0,1,150,bars/single000.png,bars/mask006.png,,,,,,,,,,,,,,,,,,,,,,,,,,,,,,,,,,,,,,,,,,,,,,,,,,,,,,,,,,,,,,,,
,,5d5496bdd84ebe0001f5fb20,65af557a304b05200d920853,2024-01-22_23h15.22.776,bars,2023.2.3,Win32,59.88023952,657b66ea316d21385b68909f,,,,,,,,,,,82.496,83.4839,83.484,83.9837,83.9838,84.2335,84.2336,171,171,87.7336,space,3.4802,,87.7337,91.3673,space,3.6072,,0,3,3,6,1,175,bars/single006.png,bars/mask005.png,,,,,,,,,,,,,,,,,,,,,,,,,,,,,,,,,,,,,,,,,,,,,,,,,,,,,,,,,,,,,,,,
,,5d5496bdd84ebe0001f5fb20,65af557a304b05200d920853,2024-01-22_23h15.22.776,bars,2023.2.3,Win32,59.88023952,657b66ea316d21385b68909f,,,,,,,,,,,91.3785,92.3824,92.3824,92.8829,92.8829,93.1333,93.1334,140,-40,97.732,space,4.5893,,97.732,100.5817,space,2.8239,,0,4,4,2,1,145,bars/single002.png,bars/mask003.png,,,,,,,,,,,,,,,,,,,,,,,,,,,,,,,,,,,,,,,,,,,,,,,,,,,,,,,,,,,,,,,,
,,5d5496bdd84ebe0001f5fb20,65af557a304b05200d920853,2024-01-22_23h15.22.776,bars,2023.2.3,Win32,59.88023952,657b66ea316d21385b68909f,,,,,,,,,,,100.5928,101.5811,101.5811,102.0812,102.0813,102.3311,102.3312,49,49,107.3972,space,5.0548,,107.3973,110.7803,space,3.3509,,0,5,5,5,1,55,bars/single005.png,bars/mask008.png,,,,,,,,,,,,,,,,,,,,,,,,,,,,,,,,,,,,,,,,,,,,,,,,,,,,,,,,,,,,,,,,
,,5d5496bdd84ebe0001f5fb20,65af557a304b05200d920853,2024-01-22_23h15.22.776,bars,2023.2.3,Win32,59.88023952,657b66ea316d21385b68909f,,,,,,,,,,,110.7917,111.7797,111.7798,112.2798,112.2799,112.5297,112.5298,29,209,116.4292,space,3.889,,116.4292,119.5457,space,3.0917,,0,6,6,3,1,20,bars/single003.png,bars/mask005.png,,,,,,,,,,,,,,,,,,,,,,,,,,,,,,,,,,,,,,,,,,,,,,,,,,,,,,,,,,,,,,,,
,,5d5496bdd84ebe0001f5fb20,65af557a304b05200d920853,2024-01-22_23h15.22.776,bars,2023.2.3,Win32,59.88023952,657b66ea316d21385b68909f,,,,,,,,,,,119.5571,120.5452,120.5453,121.045,121.0452,121.2951,121.2952,30,210,126.3622,space,5.0507,,126.3623,128.011,space,1.6267,,0,7,7,9,1,20,bars/single009.png,bars/mask006.png,,,,,,,,,,,,,,,,,,,,,,,,,,,,,,,,,,,,,,,,,,,,,,,,,,,,,,,,,,,,,,,,
,,5d5496bdd84ebe0001f5fb20,65af557a304b05200d920853,2024-01-22_23h15.22.776,bars,2023.2.3,Win32,59.88023952,657b66ea316d21385b68909f,,,,,,,,,,,128.0116,129.0111,129.0111,129.5112,129.5114,129.7606,129.7608,38,38,133.5269,space,3.7558,,133.527,135.6291,space,2.0686,,0,8,8,1,1,20,bars/single001.png,bars/mask006.png,,,,,,,,,,,,,,,,,,,,,,,,,,,,,,,,,,,,,,,,,,,,,,,,,,,,,,,,,,,,,,,,
,,5d5496bdd84ebe0001f5fb20,65af557a304b05200d920853,2024-01-22_23h15.22.776,bars,2023.2.3,Win32,59.88023952,657b66ea316d21385b68909f,,,,,,,,,,,135.6296,136.6263,136.6263,137.1262,137.1263,137.3763,137.3764,46,226,140.626,space,3.2365,,140.6261,142.5758,space,1.9208,,0,9,9,7,1,45,bars/single007.png,bars/mask009.png,,,,,,,,,,,,,,,,,,,,,,,,,,,,,,,,,,,,,,,,,,,,,,,,,,,,,,,,,,,,,,,,
,,5d5496bdd84ebe0001f5fb20,65af557a304b05200d920853,2024-01-22_23h15.22.776,bars,2023.2.3,Win32,59.88023952,657b66ea316d21385b68909f,,,,,,,,,,,,,,,,,,,,,,,,,,,,,,,,,,,,,142.5767,159.6573,space,17.0603,,,,,,,,,,,,,,,,,,,,,,,,,,,,,,,,,,,,,,,,,,,,,,,,,,,,,,,,,,,,
,,5d5496bdd84ebe0001f5fb20,65af557a304b05200d920853,2024-01-22_23h15.22.776,bars,2023.2.3,Win32,59.88023952,657b66ea316d21385b68909f,,,,,,,,,,,,,,,,,,,,,,,,,,,,,,,,,,,,,,,,,,159.6719,163.0242,left,3.3244,,163.0245,9,1,164.0228,0,0,0,0,1,9,1,9,2,,,,,,,,,,,,,,,,,,,,,,,,,,,,,,,,,,,,,,,,,
,,5d5496bdd84ebe0001f5fb20,65af557a304b05200d920853,2024-01-22_23h15.22.776,bars,2023.2.3,Win32,59.88023952,657b66ea316d21385b68909f,,,,,,,,,,,,,,,,,,,,,,,,,,,,,,,,,,,,,,,,,,164.024,165.773,left,1.7199,,165.7732,10,1,166.7722,0,1,1,1,1,10,0,10,1,,,,,,,,,,,,,,,,,,,,,,,,,,,,,,,,,,,,,,,,,
,,5d5496bdd84ebe0001f5fb20,65af557a304b05200d920853,2024-01-22_23h15.22.776,bars,2023.2.3,Win32,59.88023952,657b66ea316d21385b68909f,,,,,,,,,,,,,,,,,,,,,,,,,,,,,,,,,,,,,,,,,,166.7732,167.3397,left,0.5449,,167.3399,10,1,168.3386,0,2,2,2,1,10,2,10,2,,,,,,,,,,,,,,,,,,,,,,,,,,,,,,,,,,,,,,,,,
,,5d5496bdd84ebe0001f5fb20,65af557a304b05200d920853,2024-01-22_23h15.22.776,bars,2023.2.3,Win32,59.88023952,657b66ea316d21385b68909f,,,,,,,,,,,,,,,,,,,,,,,,,,,,,,,,,,,,,,,,,,168.3397,168.9058,left,0.5351,,168.906,7,1,169.905,0,3,3,3,1,8,4,7,3,,,,,,,,,,,,,,,,,,,,,,,,,,,,,,,,,,,,,,,,,
,,5d5496bdd84ebe0001f5fb20,65af557a304b05200d920853,2024-01-22_23h15.22.776,bars,2023.2.3,Win32,59.88023952,657b66ea316d21385b68909f,,,,,,,,,,,,,,,,,,,,,,,,,,,,,,,,,,,,,,,,,,169.9062,170.4569,left,0.5221,,170.457,5,1,171.4551,0,4,4,4,1,6,2,5,1,,,,,,,,,,,,,,,,,,,,,,,,,,,,,,,,,,,,,,,,,
,,5d5496bdd84ebe0001f5fb20,65af557a304b05200d920853,2024-01-22_23h15.22.776,bars,2023.2.3,Win32,59.88023952,657b66ea316d21385b68909f,,,,,,,,,,,,,,,,,,,,,,,,,,,,,,,,,,,,,,,,,,171.4562,172.6223,right,1.132,,172.6224,4,2,173.6212,0,5,5,5,1,4,4,4,4,,,,,,,,,,,,,,,,,,,,,,,,,,,,,,,,,,,,,,,,,
,,5d5496bdd84ebe0001f5fb20,65af557a304b05200d920853,2024-01-22_23h15.22.776,bars,2023.2.3,Win32,59.88023952,657b66ea316d21385b68909f,,,,,,,,,,,,,,,,,,,,,,,,,,,,,,,,,,,,,,,,,,173.6223,174.7787,left,1.1357,,174.7788,1,1,175.7709,0,6,6,6,1,2,2,1,2,,,,,,,,,,,,,,,,,,,,,,,,,,,,,,,,,,,,,,,,,
,,5d5496bdd84ebe0001f5fb20,65af557a304b05200d920853,2024-01-22_23h15.22.776,bars,2023.2.3,Win32,59.88023952,657b66ea316d21385b68909f,,,,,,,,,,,,,,,,,,,,,,,,,,,,,,,,,,,,,,,,,,175.7823,176.4551,left,0.6585,,176.4552,0,1,177.4541,0,7,7,7,1,0,0,0,1,,,,,,,,,,,,,,,,,,,,,,,,,,,,,,,,,,,,,,,,,
,,5d5496bdd84ebe0001f5fb20,65af557a304b05200d920853,2024-01-22_23h15.22.776,bars,2023.2.3,Win32,59.88023952,657b66ea316d21385b68909f,,,,,,,,,,,,,,,,,,,,,,,,,,,,,,,,,,,,,,,,,,177.4555,178.1219,left,0.6423,,178.1222,1,1,179.1206,0,8,8,8,1,0,2,1,0,,,,,,,,,,,,,,,,,,,,,,,,,,,,,,,,,,,,,,,,,
,,5d5496bdd84ebe0001f5fb20,65af557a304b05200d920853,2024-01-22_23h15.22.776,bars,2023.2.3,Win32,59.88023952,657b66ea316d21385b68909f,,,,,,,,,,,,,,,,,,,,,,,,,,,,,,,,,,,,,,,,,,179.1219,179.471,right,0.3237,,179.4711,3,2,180.4703,0,9,9,9,1,2,4,2,3,,,,,,,,,,,,,,,,,,,,,,,,,,,,,,,,,,,,,,,,,
,,5d5496bdd84ebe0001f5fb20,65af557a304b05200d920853,2024-01-22_23h15.22.776,bars,2023.2.3,Win32,59.88023952,657b66ea316d21385b68909f,,,,,,,,,,,,,,,,,,,,,,,,,,,,,,,,,,,,,,,,,,180.4714,180.7711,right,0.2714,,180.7712,3,2,181.7603,0,10,10,10,1,0,2,0,3,,,,,,,,,,,,,,,,,,,,,,,,,,,,,,,,,,,,,,,,,
,,5d5496bdd84ebe0001f5fb20,65af557a304b05200d920853,2024-01-22_23h15.22.776,bars,2023.2.3,Win32,59.88023952,657b66ea316d21385b68909f,,,,,,,,,,,,,,,,,,,,,,,,,,,,,,,,,,,,,,,,,,181.7607,182.104,right,0.3176,,182.1042,3,2,183.1039,0,11,11,11,1,0,4,0,3,,,,,,,,,,,,,,,,,,,,,,,,,,,,,,,,,,,,,,,,,
,,5d5496bdd84ebe0001f5fb20,65af557a304b05200d920853,2024-01-22_23h15.22.776,bars,2023.2.3,Win32,59.88023952,657b66ea316d21385b68909f,,,,,,,,,,,,,,,,,,,,,,,,,,,,,,,,,,,,,,,,,,183.1048,183.471,right,0.3358,,183.4711,6,2,184.4703,0,12,12,12,1,2,6,1,6,,,,,,,,,,,,,,,,,,,,,,,,,,,,,,,,,,,,,,,,,
,,5d5496bdd84ebe0001f5fb20,65af557a304b05200d920853,2024-01-22_23h15.22.776,bars,2023.2.3,Win32,59.88023952,657b66ea316d21385b68909f,,,,,,,,,,,,,,,,,,,,,,,,,,,,,,,,,,,,,,,,,,184.4712,184.7538,right,0.2516,,184.7538,3,2,185.7529,0,13,13,13,1,0,4,1,3,,,,,,,,,,,,,,,,,,,,,,,,,,,,,,,,,,,,,,,,,
,,5d5496bdd84ebe0001f5fb20,65af557a304b05200d920853,2024-01-22_23h15.22.776,bars,2023.2.3,Win32,59.88023952,657b66ea316d21385b68909f,,,,,,,,,,,,,,,,,,,,,,,,,,,,,,,,,,,,,,,,,,185.754,185.9868,right,0.2061,,185.987,7,2,186.9861,0,14,14,14,1,2,6,2,7,,,,,,,,,,,,,,,,,,,,,,,,,,,,,,,,,,,,,,,,,
,,5d5496bdd84ebe0001f5fb20,65af557a304b05200d920853,2024-01-22_23h15.22.776,bars,2023.2.3,Win32,59.88023952,657b66ea316d21385b68909f,,,,,,,,,,,,,,,,,,,,,,,,,,,,,,,,,,,,,,,,,,186.9871,187.37,right,0.3504,,187.37,9,2,188.3691,0,15,15,15,1,4,8,3,9,,,,,,,,,,,,,,,,,,,,,,,,,,,,,,,,,,,,,,,,,
,,5d5496bdd84ebe0001f5fb20,65af557a304b05200d920853,2024-01-22_23h15.22.776,bars,2023.2.3,Win32,59.88023952,657b66ea316d21385b68909f,,,,,,,,,,,,,,,,,,,,,,,,,,,,,,,,,,,,,,,,,,188.37,188.9709,right,0.5735,,188.971,7,2,189.9691,0,16,16,16,1,6,6,7,7,,,,,,,,,,,,,,,,,,,,,,,,,,,,,,,,,,,,,,,,,
,,5d5496bdd84ebe0001f5fb20,65af557a304b05200d920853,2024-01-22_23h15.22.776,bars,2023.2.3,Win32,59.88023952,657b66ea316d21385b68909f,,,,,,,,,,,,,,,,,,,,,,,,,,,,,,,,,,,,,,,,,,189.9703,190.4028,right,0.4009,,190.4029,5,2,191.402,0,17,17,17,1,8,4,9,5,,,,,,,,,,,,,,,,,,,,,,,,,,,,,,,,,,,,,,,,,
,,5d5496bdd84ebe0001f5fb20,65af557a304b05200d920853,2024-01-22_23h15.22.776,bars,2023.2.3,Win32,59.88023952,657b66ea316d21385b68909f,,,,,,,,,,,,,,,,,,,,,,,,,,,,,,,,,,,,,,,,,,191.4029,191.6695,left,0.2371,,191.6696,5,1,192.6686,0,18,18,18,1,6,2,5,1,,,,,,,,,,,,,,,,,,,,,,,,,,,,,,,,,,,,,,,,,
,,5d5496bdd84ebe0001f5fb20,65af557a304b05200d920853,2024-01-22_23h15.22.776,bars,2023.2.3,Win32,59.88023952,657b66ea316d21385b68909f,,,,,,,,,,,,,,,,,,,,,,,,,,,,,,,,,,,,,,,,,,192.6692,192.9022,left,0.2139,,192.9022,7,1,193.9018,0,19,19,19,1,8,0,7,0,,,,,,,,,,,,,,,,,,,,,,,,,,,,,,,,,,,,,,,,,
,,5d5496bdd84ebe0001f5fb20,65af557a304b05200d920853,2024-01-22_23h15.22.776,bars,2023.2.3,Win32,59.88023952,657b66ea316d21385b68909f,,,,,,,,,,,,,,,,,,,,,,,,,,,,,,,,,,,,,,,,,,,,,,,,,,,,,,,,,,,,193.9025,234.7804,space,40.8534,,,,,,,,,,,,,,,,,,,,,,,,,,,,,,,,,,,,,
,,5d5496bdd84ebe0001f5fb20,65af557a304b05200d920853,2024-01-22_23h15.22.776,bars,2023.2.3,Win32,59.88023952,657b66ea316d21385b68909f,,,,,,,,,,,237.1025,238.0957,,,238.5961,238.8455,,33,33,,,,,,,,,,,,,,,,bars/012.png,bars/mask001.png,,,,,,,,,,,,3,2,,,,,,,5,8,5,7,,,,,,234.7947,237.097,space,2.2862,,238.0966,238.5959,238.8461,242.1962,space,3.3177,,242.1965,57,18,243.201,243.2012,252.6454,space,9.4197,,0,0,0,0,1,90,15,,,,,,,,
,,5d5496bdd84ebe0001f5fb20,65af557a304b05200d920853,2024-01-22_23h15.22.776,bars,2023.2.3,Win32,59.88023952,657b66ea316d21385b68909f,,,,,,,,,,,252.658,253.6602,,,254.1616,254.3998,,64,64,,,,,,,,,,,,,,,,bars/034.png,bars/mask001.png,,,,,,,,,,,,8,2,,,,,,,3,6,4,8,,,,,,,,,,,253.6605,254.1615,254.3998,256.1437,space,1.7261,,256.144,61,1,257.1439,257.1442,268.0422,space,10.8676,,0,1,1,1,1,125,65,,,,,,,,
,,5d5496bdd84ebe0001f5fb20,65af557a304b05200d920853,2024-01-22_23h15.22.776,bars,2023.2.3,Win32,59.88023952,657b66ea316d21385b68909f,,,,,,,,,,,268.0555,269.0579,,,269.5597,269.8091,,117,297,,,,,,,,,,,,,,,,bars/013.png,bars/mask002.png,,,,,,,,,,,,0,1,,,,,,,5,8,5,9,,,,,,,,,,,269.058,269.5596,269.8092,276.6075,space,6.7652,,276.6077,42,73,277.6068,277.6069,280.5072,space,2.8618,,0,2,2,2,1,75,10,,,,,,,,
,,5d5496bdd84ebe0001f5fb20,65af557a304b05200d920853,2024-01-22_23h15.22.776,bars,2023.2.3,Win32,59.88023952,657b66ea316d21385b68909f,,,,,,,,,,,280.5192,281.5229,,,282.0235,282.2727,,92,92,,,,,,,,,,,,,,,,bars/049.png,bars/mask009.png,,,,,,,,,,,,1,2,,,,,,,7,6,7,5,,,,,,,,,,,281.523,282.0234,282.2729,284.612,space,2.3168,,284.6121,68,23,285.6055,285.6057,289.4057,space,3.7707,,0,3,3,3,1,160,115,,,,,,,,
,,5d5496bdd84ebe0001f5fb20,65af557a304b05200d920853,2024-01-22_23h15.22.776,bars,2023.2.3,Win32,59.88023952,657b66ea316d21385b68909f,,,,,,,,,,,289.4178,290.4217,,,290.9219,291.1717,,64,64,,,,,,,,,,,,,,,,bars/046.png,bars/mask000.png,,,,,,,,,,,,1,2,,,,,,,9,4,8,2,,,,,,,,,,,290.4217,290.9218,291.1718,294.9729,space,3.7725,,294.9731,89,21,295.971,295.9713,298.9219,space,2.918,,0,4,4,4,1,155,85,,,,,,,,
,,5d5496bdd84ebe0001f5fb20,65af557a304b05200d920853,2024-01-22_23h15.22.776,bars,2023.2.3,Win32,59.88023952,657b66ea316d21385b68909f,,,,,,,,,,,298.9361,299.9371,,,300.4372,300.6869,,156,156,,,,,,,,,,,,,,,,bars/016.png,bars/mask006.png,,,,,,,,,,,,3,2,,,,,,,7,6,8,4,,,,,,,,,,,299.9372,300.4371,300.6869,303.8263,space,3.1156,,303.8264,64,9,304.8196,304.8198,309.4196,space,4.5651,,0,5,5,5,1,40,165,,,,,,,,
,,5d5496bdd84ebe0001f5fb20,65af557a304b05200d920853,2024-01-22_23h15.22.776,bars,2023.2.3,Win32,59.88023952,657b66ea316d21385b68909f,,,,,,,,,,,309.4311,310.4188,,,310.9192,311.1688,,78,78,,,,,,,,,,,,,,,,bars/027.png,bars/mask006.png,,,,,,,,,,,,0,2,,,,,,,9,8,9,7,,,,,,,,,,,310.4189,310.9191,311.169,314.2191,space,3.0232,,314.2193,32,28,315.2183,315.2184,318.537,space,3.2862,,0,6,6,6,1,110,50,,,,,,,,
,,5d5496bdd84ebe0001f5fb20,65af557a304b05200d920853,2024-01-22_23h15.22.776,bars,2023.2.3,Win32,59.88023952,657b66ea316d21385b68909f,,,,,,,,,,,318.5494,319.551,,,320.0521,320.3009,,155,155,,,,,,,,,,,,,,,,bars/015.png,bars/mask006.png,,,,,,,,,,,,8,2,,,,,,,7,10,7,10,,,,,,,,,,,319.5512,320.0519,320.3009,324.251,space,3.9187,,324.2512,45,5,325.2428,325.2428,327.8184,space,2.5439,,0,7,7,7,1,110,160,,,,,,,,
,,5d5496bdd84ebe0001f5fb20,65af557a304b05200d920853,2024-01-22_23h15.22.776,bars,2023.2.3,Win32,59.88023952,657b66ea316d21385b68909f,,,,,,,,,,,327.8196,328.8163,,,329.3165,329.5663,,66,66,,,,,,,,,,,,,,,,bars/046.png,bars/mask006.png,,,,,,,,,,,,3,2,,,,,,,5,10,4,9,,,,,,,,,,,328.8165,329.3164,329.5664,333.2496,space,3.6494,,333.2498,89,19,334.249,334.249,339.6322,space,5.3494,,0,8,8,8,1,155,85,,,,,,,,
,,5d5496bdd84ebe0001f5fb20,65af557a304b05200d920853,2024-01-22_23h15.22.776,bars,2023.2.3,Win32,59.88023952,657b66ea316d21385b68909f,,,,,,,,,,,339.6451,340.6481,,,341.1329,341.3811,,14,14,,,,,,,,,,,,,,,,bars/022.png,bars/mask007.png,,,,,,,,,,,,6,2,,,,,,,7,8,7,8,,,,,,,,,,,340.6482,341.1327,341.3813,344.1163,space,2.7069,,344.1164,81,6,345.1156,345.1157,347.7369,space,2.5954,,0,9,9,9,1,95,20,,,,,,,,
,,5d5496bdd84ebe0001f5fb20,65af557a304b05200d920853,2024-01-22_23h15.22.776,bars,2023.2.3,Win32,59.88023952,657b66ea316d21385b68909f,,,,,,,,,,,347.7375,348.7355,,,349.2305,349.4801,,168,168,,,,,,,,,,,,,,,,bars/020.png,bars/mask001.png,,,,,,,,,,,,6,2,,,,,,,9,6,10,6,,,,,,,,,,,348.7356,349.2303,349.4801,352.1868,space,2.6846,,352.1869,53,2,353.1796,353.1797,355.4196,space,2.2158,,0,10,10,10,1,115,170,,,,,,,,
,,5d5496bdd84ebe0001f5fb20,65af557a304b05200d920853,2024-01-22_23h15.22.776,bars,2023.2.3,Win32,59.88023952,657b66ea316d21385b68909f,,,,,,,,,,,355.4202,356.4132,,,356.9125,357.1636,,140,-40,,,,,,,,,,,,,,,,bars/043.png,bars/mask001.png,,,,,,,,,,,,5,2,,,,,,,10,8,10,7,,,,,,,,,,,356.4134,356.9124,357.1637,361.0697,space,3.884,,361.0697,70,10,362.0617,362.0618,369.5783,space,7.4856,,0,11,11,11,1,30,130,,,,,,,,
,,5d5496bdd84ebe0001f5fb20,65af557a304b05200d920853,2024-01-22_23h15.22.776,bars,2023.2.3,Win32,59.88023952,657b66ea316d21385b68909f,,,,,,,,,,,369.5911,370.5938,,,371.0939,371.3437,,129,129,,,,,,,,,,,,,,,,bars/004.png,bars/mask005.png,,,,,,,,,,,,9,2,,,,,,,8,10,10,10,,,,,,,,,,,370.5938,371.0938,371.3438,374.427,space,3.0491,,374.4272,76,4,375.4264,375.4265,377.2938,space,1.8383,,0,12,12,12,1,25,125,,,,,,,,
,,5d5496bdd84ebe0001f5fb20,65af557a304b05200d920853,2024-01-22_23h15.22.776,bars,2023.2.3,Win32,59.88023952,657b66ea316d21385b68909f,,,,,,,,,,,377.2947,378.2927,,,378.7927,379.0427,,72,72,,,,,,,,,,,,,,,,bars/002.png,bars/mask001.png,,,,,,,,,,,,5,2,,,,,,,6,8,7,8,,,,,,,,,,,378.2928,378.7927,379.0428,382.5592,space,3.4868,,382.5594,58,13,383.5589,383.559,385.8091,space,2.2158,,0,13,13,13,1,130,85,,,,,,,,
,,5d5496bdd84ebe0001f5fb20,65af557a304b05200d920853,2024-01-22_23h15.22.776,bars,2023.2.3,Win32,59.88023952,657b66ea316d21385b68909f,,,,,,,,,,,385.8102,386.8082,,,387.3083,387.5595,,82,82,,,,,,,,,,,,,,,,bars/046.png,bars/mask003.png,,,,,,,,,,,,9,2,,,,,,,4,10,1,10,,,,,,,,,,,386.8083,387.3083,387.5596,390.8082,space,3.2158,,390.8084,73,3,391.8082,391.8085,393.6911,space,1.8492,,0,14,14,14,1,155,85,,,,,,,,
,,5d5496bdd84ebe0001f5fb20,65af557a304b05200d920853,2024-01-22_23h15.22.776,bars,2023.2.3,Win32,59.88023952,657b66ea316d21385b68909f,,,,,,,,,,,393.6922,394.6904,,,395.1904,395.4403,,177,-3,,,,,,,,,,,,,,,,bars/048.png,bars/mask000.png,,,,,,,,,,,,7,2,,,,,,,6,8,7,7,,,,,,,,,,,394.6905,395.1903,395.4404,398.159,space,2.6952,,398.1591,53,2,399.1565,399.1565,400.6902,space,1.5025,,0,15,15,15,1,50,175,,,,,,,,
,,5d5496bdd84ebe0001f5fb20,65af557a304b05200d920853,2024-01-22_23h15.22.776,bars,2023.2.3,Win32,59.88023952,657b66ea316d21385b68909f,,,,,,,,,,,400.6914,401.6894,,,402.1896,402.4394,,73,73,,,,,,,,,,,,,,,,bars/026.png,bars/mask007.png,,,,,,,,,,,,3,2,,,,,,,4,6,3,5,,,,,,,,,,,401.6895,402.1896,402.4395,407.2228,space,4.7536,,407.223,38,12,408.2219,408.222,409.8729,space,1.6187,,0,16,16,16,1,35,85,,,,,,,,
,,5d5496bdd84ebe0001f5fb20,65af557a304b05200d920853,2024-01-22_23h15.22.776,bars,2023.2.3,Win32,59.88023952,657b66ea316d21385b68909f,,,,,,,,,,,409.8737,410.8715,,,411.3716,411.6215,,76,76,,,,,,,,,,,,,,,,bars/038.png,bars/mask001.png,,,,,,,,,,,,6,2,,,,,,,6,8,6,8,,,,,,,,,,,410.8717,411.3716,411.6216,414.8784,space,3.2349,,414.8785,89,6,415.8711,415.8712,418.5891,space,2.6856,,0,17,17,17,1,165,70,,,,,,,,
,,5d5496bdd84ebe0001f5fb20,65af557a304b05200d920853,2024-01-22_23h15.22.776,bars,2023.2.3,Win32,59.88023952,657b66ea316d21385b68909f,,,,,,,,,,,418.5912,419.5875,,,420.087,420.3371,,102,102,,,,,,,,,,,,,,,,bars/009.png,bars/mask008.png,,,,,,,,,,,,7,2,,,,,,,8,10,6,8,,,,,,,,,,,419.5875,420.087,420.3373,423.7775,space,3.4167,,423.7776,87,3,424.7696,424.7697,426.0216,space,1.2225,,0,18,18,18,1,15,105,,,,,,,,
,,5d5496bdd84ebe0001f5fb20,65af557a304b05200d920853,2024-01-22_23h15.22.776,bars,2023.2.3,Win32,59.88023952,657b66ea316d21385b68909f,,,,,,,,,,,426.0227,427.0194,,,427.5193,427.7577,,111,111,,,,,,,,,,,,,,,,bars/004.png,bars/mask003.png,,,,,,,,,,,,5,2,,,,,,,6,8,6,9,,,,,,,,,,,427.0194,427.5192,427.7578,430.9582,space,3.1827,,430.9584,86,14,431.952,431.952,432.9194,space,0.9331,,0,19,19,19,1,25,125,,,,,,,,
,,5d5496bdd84ebe0001f5fb20,65af557a304b05200d920853,2024-01-22_23h15.22.776,bars,2023.2.3,Win32,59.88023952,657b66ea316d21385b68909f,,,,,,,,,,,432.9205,433.9183,,,434.4237,434.6683,,11,11,,,,,,,,,,,,,,,,bars/033.png,bars/mask006.png,,,,,,,,,,,,3,1,,,,,,,4,10,5,10,,,,,,,,,,,433.9184,434.4236,434.6683,437.274,space,2.582,,437.2741,14,36,438.2678,438.2679,446.1337,space,7.8396,,0,20,20,20,1,25,155,,,,,,,,
,,5d5496bdd84ebe0001f5fb20,65af557a304b05200d920853,2024-01-22_23h15.22.776,bars,2023.2.3,Win32,59.88023952,657b66ea316d21385b68909f,,,,,,,,,,,446.147,447.1339,,,447.6332,447.8831,,158,158,,,,,,,,,,,,,,,,bars/033.png,bars/mask001.png,,,,,,,,,,,,8,2,,,,,,,2,10,1,9,,,,,,,,,,,447.1341,447.6331,447.8832,450.3516,space,2.4353,,450.3518,47,3,451.3507,451.3508,452.8387,space,1.4646,,0,21,21,21,1,25,155,,,,,,,,
,,5d5496bdd84ebe0001f5fb20,65af557a304b05200d920853,2024-01-22_23h15.22.776,bars,2023.2.3,Win32,59.88023952,657b66ea316d21385b68909f,,,,,,,,,,,452.8392,453.8323,,,454.3323,454.5834,,126,126,,,,,,,,,,,,,,,,bars/043.png,bars/mask009.png,,,,,,,,,,,,7,2,,,,,,,4,8,4,8,,,,,,,,,,,453.8323,454.3322,454.5835,458.782,space,4.1754,,458.7821,84,4,459.7815,459.7816,461.2817,space,1.474,,0,22,22,22,1,30,130,,,,,,,,
,,5d5496bdd84ebe0001f5fb20,65af557a304b05200d920853,2024-01-22_23h15.22.776,bars,2023.2.3,Win32,59.88023952,657b66ea316d21385b68909f,,,,,,,,,,,461.2826,462.2811,,,462.7812,463.031,,31,211,,,,,,,,,,,,,,,,bars/013.png,bars/mask007.png,,,,,,,,,,,,2,2,,,,,,,6,6,5,6,,,,,,,,,,,462.2812,462.7811,463.031,466.0974,space,3.0419,,466.0975,44,21,467.0971,467.0972,469.0477,space,1.9223,,0,23,23,23,1,75,10,,,,,,,,
,,5d5496bdd84ebe0001f5fb20,65af557a304b05200d920853,2024-01-22_23h15.22.776,bars,2023.2.3,Win32,59.88023952,657b66ea316d21385b68909f,,,,,,,,,,,469.0486,470.0467,,,470.5468,470.7965,,115,115,,,,,,,,,,,,,,,,bars/049.png,bars/mask006.png,,,,,,,,,,,,10,2,,,,,,,4,8,2,10,,,,,,,,,,,470.0467,470.5467,470.7965,474.5297,space,3.7099,,474.5299,45,0,475.5292,475.5293,480.1965,space,4.6316,,0,24,24,24,1,160,115,,,,,,,,
,,5d5496bdd84ebe0001f5fb20,65af557a304b05200d920853,2024-01-22_23h15.22.776,bars,2023.2.3,Win32,59.88023952,657b66ea316d21385b68909f,,,,,,,,,,,480.2093,481.2119,,,481.7118,481.9618,,26,26,,,,,,,,,,,,,,,,bars/036.png,bars/mask007.png,,,,,,,,,,,,8,2,,,,,,,6,10,6,10,,,,,,,,,,,481.2121,481.7118,481.962,485.1283,space,3.1339,,485.1285,61,6,486.1278,486.1278,487.6948,space,1.5422,,0,25,25,25,1,145,20,,,,,,,,
,,5d5496bdd84ebe0001f5fb20,65af557a304b05200d920853,2024-01-22_23h15.22.776,bars,2023.2.3,Win32,59.88023952,657b66ea316d21385b68909f,,,,,,,,,,,487.6959,488.6942,,,489.2004,489.444,,138,138,,,,,,,,,,,,,,,,bars/033.png,bars/mask002.png,,,,,,,,,,,,4,2,,,,,,,4,10,4,9,,,,,,,,,,,488.6942,489.2004,489.4442,494.1935,space,4.7254,,494.1937,67,17,495.1932,495.1933,496.4272,space,1.1987,,0,26,26,26,1,25,155,,,,,,,,
,,5d5496bdd84ebe0001f5fb20,65af557a304b05200d920853,2024-01-22_23h15.22.776,bars,2023.2.3,Win32,59.88023952,657b66ea316d21385b68909f,,,,,,,,,,,496.4281,497.427,,,497.9268,498.1762,,47,227,,,,,,,,,,,,,,,,bars/035.png,bars/mask003.png,,,,,,,,,,,,5,2,,,,,,,6,8,6,8,,,,,,,,,,,497.4271,497.9267,498.1763,501.5761,space,3.3655,,501.5763,52,13,502.5758,502.5759,503.9258,space,1.3147,,0,27,27,27,1,175,60,,,,,,,,
,,5d5496bdd84ebe0001f5fb20,65af557a304b05200d920853,2024-01-22_23h15.22.776,bars,2023.2.3,Win32,59.88023952,657b66ea316d21385b68909f,,,,,,,,,,,503.9269,504.9251,,,505.4153,505.6584,,75,75,,,,,,,,,,,,,,,,bars/030.png,bars/mask004.png,,,,,,,,,,,,5,2,,,,,,,8,6,9,7,,,,,,,,,,,504.9252,505.4152,505.6585,507.3254,space,1.6373,,507.3256,65,10,508.3247,508.3247,509.8752,space,1.5196,,0,28,28,28,1,140,65,,,,,,,,
,,5d5496bdd84ebe0001f5fb20,65af557a304b05200d920853,2024-01-22_23h15.22.776,bars,2023.2.3,Win32,59.88023952,657b66ea316d21385b68909f,,,,,,,,,,,509.8761,510.8743,,,511.3743,511.6242,,5,5,,,,,,,,,,,,,,,,bars/040.png,bars/mask009.png,,,,,,,,,,,,8,2,,,,,,,10,8,9,8,,,,,,,,,,,510.8743,511.3743,511.6243,513.1082,space,1.4526,,513.1083,45,0,514.1073,514.1073,516.4964,space,2.3657,,0,29,29,29,1,140,5,,,,,,,,
,,5d5496bdd84ebe0001f5fb20,65af557a304b05200d920853,2024-01-22_23h15.22.776,bars,2023.2.3,Win32,59.88023952,657b66ea316d21385b68909f,,,,,,,,,,,516.4969,517.4903,,,517.9903,518.2399,,125,125,,,,,,,,,,,,,,,,bars/043.png,bars/mask004.png,,,,,,,,,,,,8,2,,,,,,,8,10,7,10,,,,,,,,,,,517.4904,517.9901,518.24,519.6068,space,1.3443,,519.6069,85,5,520.6075,520.6077,521.3734,space,0.7415,,0,30,30,30,1,30,130,,,,,,,,
,,5d5496bdd84ebe0001f5fb20,65af557a304b05200d920853,2024-01-22_23h15.22.776,bars,2023.2.3,Win32,59.88023952,657b66ea316d21385b68909f,,,,,,,,,,,521.3745,522.3728,,,522.8781,523.1226,,10,190,,,,,,,,,,,,,,,,bars/008.png,bars/mask002.png,,,,,,,,,,,,7,2,,,,,,,10,10,9,10,,,,,,,,,,,522.3728,522.8779,523.1226,527.2225,space,4.0652,,527.2227,80,10,528.222,528.222,529.4388,space,1.1904,,0,31,31,31,1,110,0,,,,,,,,
,,5d5496bdd84ebe0001f5fb20,65af557a304b05200d920853,2024-01-22_23h15.22.776,bars,2023.2.3,Win32,59.88023952,657b66ea316d21385b68909f,,,,,,,,,,,529.4398,530.4383,,,530.9396,531.1883,,167,167,,,,,,,,,,,,,,,,bars/020.png,bars/mask003.png,,,,,,,,,,,,7,2,,,,,,,10,10,10,8,,,,,,,,,,,530.4385,530.9395,531.1883,533.0438,space,1.8331,,533.0439,52,3,534.0378,534.0378,535.2218,space,1.1527,,0,32,32,32,1,115,170,,,,,,,,
,,5d5496bdd84ebe0001f5fb20,65af557a304b05200d920853,2024-01-22_23h15.22.776,bars,2023.2.3,Win32,59.88023952,657b66ea316d21385b68909f,,,,,,,,,,,535.2228,536.2209,,,536.7209,536.9708,,134,134,,,,,,,,,,,,,,,,bars/044.png,bars/mask000.png,,,,,,,,,,,,3,2,,,,,,,8,8,7,10,,,,,,,,,,,536.221,536.7208,536.9709,540.7719,space,3.7835,,540.7721,59,21,541.7773,541.7774,542.687,space,0.8872,,0,33,33,33,1,75,155,,,,,,,,
,,5d5496bdd84ebe0001f5fb20,65af557a304b05200d920853,2024-01-22_23h15.22.776,bars,2023.2.3,Win32,59.88023952,657b66ea316d21385b68909f,,,,,,,,,,,542.688,543.6864,,,544.1879,544.4365,,158,-22,,,,,,,,,,,,,,,,bars/003.png,bars/mask004.png,,,,,,,,,,,,2,2,,,,,,,6,6,8,6,,,,,,,,,,,543.6865,544.1877,544.4366,547.5037,space,3.0385,,547.5038,47,18,548.5025,548.5026,549.7875,space,1.2551,,0,34,34,34,1,25,140,,,,,,,,
,,5d5496bdd84ebe0001f5fb20,65af557a304b05200d920853,2024-01-22_23h15.22.776,bars,2023.2.3,Win32,59.88023952,657b66ea316d21385b68909f,,,,,,,,,,,549.7886,550.7858,,,551.2855,551.5353,,5,5,,,,,,,,,,,,,,,,bars/015.png,bars/mask000.png,,,,,,,,,,,,1,2,,,,,,,4,8,3,9,,,,,,,,,,,550.786,551.2854,551.5355,553.9524,space,2.389,,553.9525,75,25,554.9517,554.9517,555.8189,space,0.8354,,0,35,35,35,1,110,160,,,,,,,,
,,5d5496bdd84ebe0001f5fb20,65af557a304b05200d920853,2024-01-22_23h15.22.776,bars,2023.2.3,Win32,59.88023952,657b66ea316d21385b68909f,,,,,,,,,,,555.8199,556.8179,,,557.3197,557.5686,,113,113,,,,,,,,,,,,,,,,bars/049.png,bars/mask006.png,,,,,,,,,,,,5,2,,,,,,,6,6,8,5,,,,,,,,,,,556.818,557.3196,557.5688,560.6345,space,3.033,,560.6346,47,2,561.634,561.634,562.8524,space,1.1881,,0,36,36,36,1,160,115,,,,,,,,
,,5d5496bdd84ebe0001f5fb20,65af557a304b05200d920853,2024-01-22_23h15.22.776,bars,2023.2.3,Win32,59.88023952,657b66ea316d21385b68909f,,,,,,,,,,,562.8535,563.8505,,,564.3502,564.6002,,34,34,,,,,,,,,,,,,,,,bars/025.png,bars/mask004.png,,,,,,,,,,,,8,2,,,,,,,4,8,4,10,,,,,,,,,,,563.8506,564.3502,564.6004,566.173,space,1.5492,,566.1731,71,6,567.1664,567.1665,568.1835,space,0.9823,,0,37,37,37,1,105,40,,,,,,,,
,,5d5496bdd84ebe0001f5fb20,65af557a304b05200d920853,2024-01-22_23h15.22.776,bars,2023.2.3,Win32,59.88023952,657b66ea316d21385b68909f,,,,,,,,,,,568.1846,569.183,,,569.6829,569.9215,,81,81,,,,,,,,,,,,,,,,bars/041.png,bars/mask006.png,,,,,,,,,,,,4,2,,,,,,,2,6,3,5,,,,,,,,,,,569.183,569.6829,569.9215,571.9668,space,2.0184,,571.9669,61,4,572.9656,572.9657,573.7496,space,0.7584,,0,38,38,38,1,20,85,,,,,,,,
,,5d5496bdd84ebe0001f5fb20,65af557a304b05200d920853,2024-01-22_23h15.22.776,bars,2023.2.3,Win32,59.88023952,657b66ea316d21385b68909f,,,,,,,,,,,573.7505,574.7488,,,575.2488,575.4986,,129,129,,,,,,,,,,,,,,,,bars/004.png,bars/mask005.png,,,,,,,,,,,,3,2,,,,,,,0,4,0,3,,,,,,,,,,,574.7488,575.2487,575.4987,579.1151,space,3.5934,,579.1151,76,4,580.1156,580.1157,580.849,space,0.699,,0,39,39,39,1,25,125,,,,,,,,
,,5d5496bdd84ebe0001f5fb20,65af557a304b05200d920853,2024-01-22_23h15.22.776,bars,2023.2.3,Win32,59.88023952,657b66ea316d21385b68909f,,,,,,,,,,,580.8498,581.8489,,,582.3479,582.5977,,137,137,,,,,,,,,,,,,,,,bars/005.png,bars/mask007.png,,,,,,,,,,,,2,2,,,,,,,2,2,1,2,,,,,,,,,,,581.849,582.3477,582.5977,584.748,space,2.1161,,584.7481,53,3,585.7472,585.7473,586.5311,space,0.7501,,0,40,40,40,1,10,140,,,,,,,,
,,5d5496bdd84ebe0001f5fb20,65af557a304b05200d920853,2024-01-22_23h15.22.776,bars,2023.2.3,Win32,59.88023952,657b66ea316d21385b68909f,,,,,,,,,,,586.5322,587.5304,,,588.019,588.2638,,84,84,,,,,,,,,,,,,,,,bars/039.png,bars/mask004.png,,,,,,,,,,,,1,2,,,,,,,4,4,4,3,,,,,,,,,,,587.5304,588.019,588.2639,593.0468,space,4.7505,,593.047,89,21,594.0461,594.0463,595.3696,space,1.2994,,0,41,41,41,1,175,105,,,,,,,,
,,5d5496bdd84ebe0001f5fb20,65af557a304b05200d920853,2024-01-22_23h15.22.776,bars,2023.2.3,Win32,59.88023952,657b66ea316d21385b68909f,,,,,,,,,,,595.3701,596.3626,,,596.8624,597.1124,,84,84,,,,,,,,,,,,,,,,bars/011.png,bars/mask005.png,,,,,,,,,,,,5,2,,,,,,,2,6,3,5,,,,,,,,,,,596.3627,596.8624,597.1125,599.4353,space,2.3001,,599.4353,76,1,600.4355,600.4356,605.3118,space,4.8495,,0,42,42,42,1,160,85,,,,,,,,
,,5d5496bdd84ebe0001f5fb20,65af557a304b05200d920853,2024-01-22_23h15.22.776,bars,2023.2.3,Win32,59.88023952,657b66ea316d21385b68909f,,,,,,,,,,,605.3239,606.3277,,,606.8278,607.0788,,37,217,,,,,,,,,,,,,,,,bars/010.png,bars/mask004.png,,,,,,,,,,,,1,2,,,,,,,0,4,0,3,,,,,,,,,,,606.3278,606.8278,607.0789,610.8789,space,3.7716,,610.8791,52,18,611.877,611.8771,612.6278,space,0.718,,0,43,43,43,1,165,55,,,,,,,,
,,5d5496bdd84ebe0001f5fb20,65af557a304b05200d920853,2024-01-22_23h15.22.776,bars,2023.2.3,Win32,59.88023952,657b66ea316d21385b68909f,,,,,,,,,,,612.6287,613.6267,,,614.1268,614.3767,,38,218,,,,,,,,,,,,,,,,bars/029.png,bars/mask002.png,,,,,,,,,,,,2,2,,,,,,,2,2,0,2,,,,,,,,,,,613.6268,614.1267,614.3767,617.5767,space,3.1703,,617.5769,52,7,618.5761,618.5761,619.2113,space,0.6082,,0,44,44,44,1,90,45,,,,,,,,
,,5d5496bdd84ebe0001f5fb20,65af557a304b05200d920853,2024-01-22_23h15.22.776,bars,2023.2.3,Win32,59.88023952,657b66ea316d21385b68909f,,,,,,,,,,,619.2125,620.2092,,,620.7093,620.9593,,152,152,,,,,,,,,,,,,,,,bars/033.png,bars/mask001.png,,,,,,,,,,,,1,2,,,,,,,4,0,5,1,,,,,,,,,,,620.2092,620.7093,620.9593,623.9764,space,2.9936,,623.9764,53,3,624.9762,624.9763,625.6755,space,0.6732,,0,45,45,45,1,25,155,,,,,,,,
,,5d5496bdd84ebe0001f5fb20,65af557a304b05200d920853,2024-01-22_23h15.22.776,bars,2023.2.3,Win32,59.88023952,657b66ea316d21385b68909f,,,,,,,,,,,625.6766,626.6756,,,627.1751,627.4249,,93,93,,,,,,,,,,,,,,,,bars/039.png,bars/mask002.png,,,,,,,,,,,,1,2,,,,,,,2,0,2,1,,,,,,,,,,,626.6757,627.175,627.4249,628.8582,space,1.4103,,628.8584,82,12,629.8577,629.8578,630.8082,space,0.9218,,0,46,46,46,1,175,105,,,,,,,,
,,5d5496bdd84ebe0001f5fb20,65af557a304b05200d920853,2024-01-22_23h15.22.776,bars,2023.2.3,Win32,59.88023952,657b66ea316d21385b68909f,,,,,,,,,,,630.8092,631.8075,,,632.3075,632.5574,,94,94,,,,,,,,,,,,,,,,bars/041.png,bars/mask004.png,,,,,,,,,,,,1,2,,,,,,,0,2,1,2,,,,,,,,,,,631.8076,632.3074,632.5574,634.7137,space,2.1342,,634.7138,74,9,635.7083,635.7084,636.3743,space,0.6378,,0,47,47,47,1,20,85,,,,,,,,
,,5d5496bdd84ebe0001f5fb20,65af557a304b05200d920853,2024-01-22_23h15.22.776,bars,2023.2.3,Win32,59.88023952,657b66ea316d21385b68909f,,,,,,,,,,,636.3751,637.3735,,,637.8737,638.1235,,71,71,,,,,,,,,,,,,,,,bars/047.png,bars/mask003.png,,,,,,,,,,,,0,2,,,,,,,2,0,2,0,,,,,,,,,,,637.3735,637.8736,638.1236,640.793,space,2.6349,,640.7932,56,1,641.7896,641.7897,643.1565,space,1.3322,,0,48,48,48,1,15,70,,,,,,,,
,,5d5496bdd84ebe0001f5fb20,65af557a304b05200d920853,2024-01-22_23h15.22.776,bars,2023.2.3,Win32,59.88023952,657b66ea316d21385b68909f,,,,,,,,,,,643.1575,644.1559,,,644.6452,644.8892,,125,125,,,,,,,,,,,,,,,,bars/023.png,bars/mask003.png,,,,,,,,,,,,0,2,,,,,,,4,0,4,0,,,,,,,,,,,644.156,644.6452,644.8894,647.6391,space,2.7251,,647.6392,75,10,648.6386,648.6386,649.5222,space,0.8573,,0,49,49,49,1,20,115,,,,,,,,
,,5d5496bdd84ebe0001f5fb20,65af557a304b05200d920853,2024-01-22_23h15.22.776,bars,2023.2.3,Win32,59.88023952,657b66ea316d21385b68909f,,,,,,,,,,,,,,,,,,,,,,,,,,,,,,,,,,,,,,,,,,,,,,,,,,,,,,,,,,,,,,,,,,,,,,,,,,,,,,,,,,,,,,,,,,,,,649.5236,709.5147,0,0,0,4,1,sequence_tables/blk001.csv
,,5d5496bdd84ebe0001f5fb20,65af557a304b05200d920853,2024-01-22_23h15.22.776,bars,2023.2.3,Win32,59.88023952,657b66ea316d21385b68909f,,,,,,,,,,,719.6315,720.6135,,,721.1121,721.3633,,27,207,,,,,,,,,,,,,,,,bars/012.png,bars/mask004.png,,,,,,,,,,,,1,2,,,,,,,8,2,9,1,,,,,,709.5275,719.613,space,10.0664,,720.6135,721.1119,721.3635,724.9511,space,3.5653,,724.9512,63,12,725.9446,725.9447,725.9564,,,,0,0,0,0,1,90,15,,,,,,,,
,,5d5496bdd84ebe0001f5fb20,65af557a304b05200d920853,2024-01-22_23h15.22.776,bars,2023.2.3,Win32,59.88023952,657b66ea316d21385b68909f,,,,,,,,,,,725.9567,726.9445,,,727.4444,727.6943,,79,79,,,,,,,,,,,,,,,,bars/026.png,bars/mask000.png,,,,,,,,,,,,3,2,,,,,,,6,4,6,4,,,,,,,,,,,726.9447,727.4443,727.6943,732.1784,space,4.4591,,732.1785,44,6,733.1778,733.1781,733.1908,,,,0,1,1,1,1,35,85,,,,,,,,
,,5d5496bdd84ebe0001f5fb20,65af557a304b05200d920853,2024-01-22_23h15.22.776,bars,2023.2.3,Win32,59.88023952,657b66ea316d21385b68909f,,,,,,,,,,,733.1911,734.1933,,,734.6933,734.9439,,135,135,,,,,,,,,,,,,,,,bars/034.png,bars/mask003.png,,,,,,,,,,,,5,1,,,,,,,8,2,8,2,,,,,,,,,,,734.1934,734.6933,734.944,737.5102,space,2.5338,,737.5103,10,70,738.5094,738.5095,738.5228,,,,0,2,2,2,1,125,65,,,,,,,,
,,5d5496bdd84ebe0001f5fb20,65af557a304b05200d920853,2024-01-22_23h15.22.776,bars,2023.2.3,Win32,59.88023952,657b66ea316d21385b68909f,,,,,,,,,,,738.5231,739.526,,,740.026,740.276,,42,42,,,,,,,,,,,,,,,,bars/028.png,bars/mask004.png,,,,,,,,,,,,5,1,,,,,,,6,4,5,5,,,,,,,,,,,739.526,740.0259,740.276,742.376,space,2.0719,,742.3761,3,78,743.3754,743.3755,743.3771,,,,0,3,3,3,1,45,120,,,,,,,,
,,5d5496bdd84ebe0001f5fb20,65af557a304b05200d920853,2024-01-22_23h15.22.776,bars,2023.2.3,Win32,59.88023952,657b66ea316d21385b68909f,,,,,,,,,,,743.3775,744.3762,,,744.8766,745.1267,,17,197,,,,,,,,,,,,,,,,bars/023.png,bars/mask004.png,,,,,,,,,,,,5,1,,,,,,,4,2,5,1,,,,,,,,,,,744.3764,744.8765,745.1268,749.6986,space,4.5496,,749.6987,3,82,750.691,750.6911,750.7029,,,,0,4,4,4,1,20,115,,,,,,,,
,,5d5496bdd84ebe0001f5fb20,65af557a304b05200d920853,2024-01-22_23h15.22.776,bars,2023.2.3,Win32,59.88023952,657b66ea316d21385b68909f,,,,,,,,,,,750.7033,751.6909,,,752.1909,752.4419,,136,136,,,,,,,,,,,,,,,,bars/017.png,bars/mask000.png,,,,,,,,,,,,2,1,,,,,,,2,0,3,2,,,,,,,,,,,751.691,752.1908,752.442,754.8409,space,2.3687,,754.8411,9,89,755.8403,755.8405,755.8522,,,,0,5,5,5,1,145,45,,,,,,,,
,,5d5496bdd84ebe0001f5fb20,65af557a304b05200d920853,2024-01-22_23h15.22.776,bars,2023.2.3,Win32,59.88023952,657b66ea316d21385b68909f,,,,,,,,,,,755.8525,756.8402,,,757.3402,757.5901,,174,-6,,,,,,,,,,,,,,,,bars/049.png,bars/mask009.png,,,,,,,,,,,,1,1,,,,,,,0,2,1,3,,,,,,,,,,,756.8402,757.3401,757.5902,761.0568,space,3.4389,,761.0568,14,59,762.0562,762.0562,762.0681,,,,0,6,6,6,1,160,115,,,,,,,,
,,5d5496bdd84ebe0001f5fb20,65af557a304b05200d920853,2024-01-22_23h15.22.776,bars,2023.2.3,Win32,59.88023952,657b66ea316d21385b68909f,,,,,,,,,,,762.0684,763.0727,,,763.5727,763.8226,,151,-29,,,,,,,,,,,,,,,,bars/023.png,bars/mask007.png,,,,,,,,,,,,0,2,,,,,,,2,0,2,0,,,,,,,,,,,763.0727,763.5725,763.8227,767.3723,space,3.5187,,767.3725,49,36,768.3719,768.372,768.3849,,,,0,7,7,7,1,20,115,,,,,,,,
,,5d5496bdd84ebe0001f5fb20,65af557a304b05200d920853,2024-01-22_23h15.22.776,bars,2023.2.3,Win32,59.88023952,657b66ea316d21385b68909f,,,,,,,,,,,768.3852,769.3884,,,769.8885,770.1384,,96,276,,,,,,,,,,,,,,,,bars/037.png,bars/mask007.png,,,,,,,,,,,,1,2,,,,,,,0,2,0,2,,,,,,,,,,,769.3885,769.8884,770.1384,774.6552,space,4.4946,,774.6553,54,9,775.6543,775.6544,775.6663,,,,0,8,8,8,1,150,105,,,,,,,,
,,5d5496bdd84ebe0001f5fb20,65af557a304b05200d920853,2024-01-22_23h15.22.776,bars,2023.2.3,Win32,59.88023952,657b66ea316d21385b68909f,,,,,,,,,,,775.6666,776.6707,,,777.1709,777.4218,,26,206,,,,,,,,,,,,,,,,bars/007.png,bars/mask002.png,,,,,,,,,,,,0,2,,,,,,,0,4,0,4,,,,,,,,,,,776.6708,777.1709,777.4219,779.8047,space,2.3517,,779.8048,31,29,780.8047,780.8048,780.817,,,,0,9,9,9,1,175,55,,,,,,,,
,,5d5496bdd84ebe0001f5fb20,65af557a304b05200d920853,2024-01-22_23h15.22.776,bars,2023.2.3,Win32,59.88023952,657b66ea316d21385b68909f,,,,,,,,,,,780.8172,781.8201,,,782.3203,782.5699,,64,64,,,,,,,,,,,,,,,,bars/040.png,bars/mask005.png,,,,,,,,,,,,0,2,,,,,,,0,6,3,5,,,,,,,,,,,781.8202,782.3202,782.57,784.2549,space,1.6529,,784.2551,76,59,785.2529,785.2529,785.2547,,,,0,10,10,10,1,140,5,,,,,,,,
,,5d5496bdd84ebe0001f5fb20,65af557a304b05200d920853,2024-01-22_23h15.22.776,bars,2023.2.3,Win32,59.88023952,657b66ea316d21385b68909f,,,,,,,,,,,785.2551,786.2528,,,786.7593,787.0026,,166,-14,,,,,,,,,,,,,,,,bars/010.png,bars/mask004.png,,,,,,,,,,,,3,1,,,,,,,2,4,3,5,,,,,,,,,,,786.2528,786.7593,787.0027,790.3859,space,3.3499,,790.3861,1,69,791.3854,791.3854,791.3981,,,,0,11,11,11,1,165,55,,,,,,,,
,,5d5496bdd84ebe0001f5fb20,65af557a304b05200d920853,2024-01-22_23h15.22.776,bars,2023.2.3,Win32,59.88023952,657b66ea316d21385b68909f,,,,,,,,,,,791.3984,792.402,,,792.9019,793.1519,,69,69,,,,,,,,,,,,,,,,bars/010.png,bars/mask004.png,,,,,,,,,,,,3,2,,,,,,,0,6,0,5,,,,,,,,,,,792.402,792.9018,793.1519,794.9185,space,1.7347,,794.9186,84,14,795.9069,795.9069,795.9202,,,,0,12,12,12,1,165,55,,,,,,,,
,,5d5496bdd84ebe0001f5fb20,65af557a304b05200d920853,2024-01-22_23h15.22.776,bars,2023.2.3,Win32,59.88023952,657b66ea316d21385b68909f,,,,,,,,,,,795.9206,796.918,,,797.418,797.6679,,123,123,,,,,,,,,,,,,,,,bars/006.png,bars/mask006.png,,,,,,,,,,,,1,2,,,,,,,2,4,2,4,,,,,,,,,,,796.918,797.4179,797.668,800.3571,space,2.6672,,800.3572,88,23,801.3507,801.3508,801.3632,,,,0,13,13,13,1,35,100,,,,,,,,
,,5d5496bdd84ebe0001f5fb20,65af557a304b05200d920853,2024-01-22_23h15.22.776,bars,2023.2.3,Win32,59.88023952,657b66ea316d21385b68909f,,,,,,,,,,,801.3635,802.3682,,,802.8674,803.1172,,155,-25,,,,,,,,,,,,,,,,bars/036.png,bars/mask003.png,,,,,,,,,,,,0,1,,,,,,,0,6,0,6,,,,,,,,,,,802.3683,802.8673,803.1172,807.7851,space,4.6396,,807.7853,10,45,808.7834,808.7835,808.7972,,,,0,14,14,14,1,145,20,,,,,,,,
,,5d5496bdd84ebe0001f5fb20,65af557a304b05200d920853,2024-01-22_23h15.22.776,bars,2023.2.3,Win32,59.88023952,657b66ea316d21385b68909f,,,,,,,,,,,808.7975,809.7995,,,810.2995,810.5507,,49,49,,,,,,,,,,,,,,,,bars/044.png,bars/mask006.png,,,,,,,,,,,,0,1,,,,,,,2,8,1,8,,,,,,,,,,,809.7996,810.2994,810.5508,812.5722,space,1.9989,,812.5723,26,74,813.5657,813.5658,813.5676,,,,0,15,15,15,1,75,155,,,,,,,,
,,5d5496bdd84ebe0001f5fb20,65af557a304b05200d920853,2024-01-22_23h15.22.776,bars,2023.2.3,Win32,59.88023952,657b66ea316d21385b68909f,,,,,,,,,,,813.568,814.5655,,,815.0656,815.3155,,21,21,,,,,,,,,,,,,,,,bars/041.png,bars/mask004.png,,,,,,,,,,,,0,1,,,,,,,0,10,0,9,,,,,,,,,,,814.5655,815.0656,815.3157,817.3495,space,2.0028,,817.3497,1,64,818.3494,818.3495,818.3622,,,,0,16,16,16,1,20,85,,,,,,,,
,,5d5496bdd84ebe0001f5fb20,65af557a304b05200d920853,2024-01-22_23h15.22.776,bars,2023.2.3,Win32,59.88023952,657b66ea316d21385b68909f,,,,,,,,,,,818.3624,819.3664,,,819.8715,820.1158,,176,176,,,,,,,,,,,,,,,,bars/040.png,bars/mask000.png,,,,,,,,,,,,7,2,,,,,,,0,10,0,10,,,,,,,,,,,819.3665,819.8715,820.1159,822.3147,space,2.1666,,822.3148,36,9,823.3144,823.3144,823.3282,,,,0,17,17,17,1,140,5,,,,,,,,
,,5d5496bdd84ebe0001f5fb20,65af557a304b05200d920853,2024-01-22_23h15.22.776,bars,2023.2.3,Win32,59.88023952,657b66ea316d21385b68909f,,,,,,,,,,,823.3285,824.3308,,,824.8309,825.0809,,87,87,,,,,,,,,,,,,,,,bars/018.png,bars/mask000.png,,,,,,,,,,,,8,2,,,,,,,0,10,0,9,,,,,,,,,,,824.3309,824.8308,825.0809,829.1639,space,4.0521,,829.1641,63,3,830.1634,830.1635,830.1755,,,,0,18,18,18,1,150,90,,,,,,,,
,,5d5496bdd84ebe0001f5fb20,65af557a304b05200d920853,2024-01-22_23h15.22.776,bars,2023.2.3,Win32,59.88023952,657b66ea316d21385b68909f,,,,,,,,,,,830.1757,831.1636,,,831.6632,831.9132,,153,153,,,,,,,,,,,,,,,,bars/020.png,bars/mask005.png,,,,,,,,,,,,3,2,,,,,,,2,8,2,8,,,,,,,,,,,831.1637,831.6632,831.9133,834.2131,space,2.2722,,834.2133,38,17,835.2128,835.2128,835.2245,,,,0,19,19,19,1,115,170,,,,,,,,
,,5d5496bdd84ebe0001f5fb20,65af557a304b05200d920853,2024-01-22_23h15.22.776,bars,2023.2.3,Win32,59.88023952,657b66ea316d21385b68909f,,,,,,,,,,,835.2248,836.2199,,,836.7124,836.9628,,97,97,,,,,,,,,,,,,,,,bars/019.png,bars/mask006.png,,,,,,,,,,,,4,2,,,,,,,0,6,1,6,,,,,,,,,,,836.22,836.7124,836.9628,839.3524,space,2.3679,,839.3524,52,8,840.3468,840.3468,840.3591,,,,0,20,20,20,1,45,105,,,,,,,,
,,5d5496bdd84ebe0001f5fb20,65af557a304b05200d920853,2024-01-22_23h15.22.776,bars,2023.2.3,Win32,59.88023952,657b66ea316d21385b68909f,,,,,,,,,,,840.3594,841.362,,,841.862,842.1117,,172,172,,,,,,,,,,,,,,,,bars/044.png,bars/mask000.png,,,,,,,,,,,,2,2,,,,,,,2,8,2,5,,,,,,,,,,,841.362,841.8619,842.1117,843.2288,space,1.0832,,843.229,83,17,844.233,844.233,844.2438,,,,0,21,21,21,1,75,155,,,,,,,,
,,5d5496bdd84ebe0001f5fb20,65af557a304b05200d920853,2024-01-22_23h15.22.776,bars,2023.2.3,Win32,59.88023952,657b66ea316d21385b68909f,,,,,,,,,,,844.2441,845.2445,,,845.7446,845.9946,,8,188,,,,,,,,,,,,,,,,bars/048.png,bars/mask008.png,,,,,,,,,,,,4,2,,,,,,,4,6,4,7,,,,,,,,,,,845.2446,845.7445,845.9947,848.5443,space,2.5272,,848.5444,42,13,849.544,849.5441,849.5558,,,,0,22,22,22,1,50,175,,,,,,,,
,,5d5496bdd84ebe0001f5fb20,65af557a304b05200d920853,2024-01-22_23h15.22.776,bars,2023.2.3,Win32,59.88023952,657b66ea316d21385b68909f,,,,,,,,,,,849.5561,850.5493,,,851.0439,851.2937,,109,109,,,,,,,,,,,,,,,,bars/042.png,bars/mask000.png,,,,,,,,,,,,0,2,,,,,,,2,4,3,4,,,,,,,,,,,850.5494,851.0438,851.2937,854.2438,space,2.9209,,854.244,36,34,855.2432,855.2433,855.2552,,,,0,23,23,23,1,145,75,,,,,,,,
,,5d5496bdd84ebe0001f5fb20,65af557a304b05200d920853,2024-01-22_23h15.22.776,bars,2023.2.3,Win32,59.88023952,657b66ea316d21385b68909f,,,,,,,,,,,855.2554,856.243,,,856.743,856.9932,,167,167,,,,,,,,,,,,,,,,bars/020.png,bars/mask002.png,,,,,,,,,,,,3,2,,,,,,,0,2,1,3,,,,,,,,,,,856.2431,856.743,856.9933,859.8764,space,2.8515,,859.8766,52,3,860.8757,860.8758,860.8874,,,,0,24,24,24,1,115,170,,,,,,,,
,,5d5496bdd84ebe0001f5fb20,65af557a304b05200d920853,2024-01-22_23h15.22.776,bars,2023.2.3,Win32,59.88023952,657b66ea316d21385b68909f,,,,,,,,,,,860.8876,861.8769,,,862.3771,862.6255,,17,197,,,,,,,,,,,,,,,,bars/032.png,bars/mask008.png,,,,,,,,,,,,0,2,,,,,,,0,0,2,0,,,,,,,,,,,861.877,862.3769,862.6255,866.4321,space,3.7828,,866.4321,72,3,867.4248,867.4249,867.4368,,,,0,25,25,25,1,125,20,,,,,,,,
,,5d5496bdd84ebe0001f5fb20,65af557a304b05200d920853,2024-01-22_23h15.22.776,bars,2023.2.3,Win32,59.88023952,657b66ea316d21385b68909f,,,,,,,,,,,867.4372,868.4254,,,868.9247,869.1748,,120,120,,,,,,,,,,,,,,,,bars/022.png,bars/mask001.png,,,,,,,,,,,,0,1,,,,,,,2,0,1,0,,,,,,,,,,,868.4254,868.9247,869.1748,873.3581,space,4.1517,,873.3583,25,80,874.3572,874.3573,874.3715,,,,0,26,26,26,1,95,20,,,,,,,,
,,5d5496bdd84ebe0001f5fb20,65af557a304b05200d920853,2024-01-22_23h15.22.776,bars,2023.2.3,Win32,59.88023952,657b66ea316d21385b68909f,,,,,,,,,,,874.3717,875.3737,,,875.8739,876.1236,,143,143,,,,,,,,,,,,,,,,bars/000.png,bars/mask000.png,,,,,,,,,,,,2,2,,,,,,,0,2,0,2,,,,,,,,,,,875.3738,875.8738,876.1237,878.8901,space,2.7415,,878.8902,77,2,879.8898,879.8899,879.9033,,,,0,27,27,27,1,40,145,,,,,,,,
,,5d5496bdd84ebe0001f5fb20,65af557a304b05200d920853,2024-01-22_23h15.22.776,bars,2023.2.3,Win32,59.88023952,657b66ea316d21385b68909f,,,,,,,,,,,879.9035,880.9063,,,881.4063,881.6563,,113,113,,,,,,,,,,,,,,,,bars/049.png,bars/mask003.png,,,,,,,,,,,,1,2,,,,,,,0,0,0,1,,,,,,,,,,,880.9065,881.4063,881.6563,884.1063,space,2.4171,,884.1063,47,2,885.1056,885.1057,885.1173,,,,0,28,28,28,1,160,115,,,,,,,,
,,5d5496bdd84ebe0001f5fb20,65af557a304b05200d920853,2024-01-22_23h15.22.776,bars,2023.2.3,Win32,59.88023952,657b66ea316d21385b68909f,,,,,,,,,,,885.1176,886.1056,,,886.6056,886.8556,,71,71,,,,,,,,,,,,,,,,bars/038.png,bars/mask009.png,,,,,,,,,,,,0,2,,,,,,,2,0,2,0,,,,,,,,,,,886.1056,886.6056,886.8556,890.4623,space,3.5842,,890.4623,86,1,891.4548,891.4549,891.4677,,,,0,29,29,29,1,165,70,,,,,,,,
,,5d5496bdd84ebe0001f5fb20,65af557a304b05200d920853,2024-01-22_23h15.22.776,bars,2023.2.3,Win32,59.88023952,657b66ea316d21385b68909f,,,,,,,,,,,891.468,892.4715,,,892.9726,893.2213,,112,112,,,,,,,,,,,,,,,,bars/022.png,bars/mask000.png,,,,,,,,,,,,0,1,,,,,,,0,2,0,2,,,,,,,,,,,892.4716,892.9724,893.2213,895.6049,space,2.3583,,895.6051,17,88,896.6042,896.6043,896.6173,,,,0,30,30,30,1,95,20,,,,,,,,
,,5d5496bdd84ebe0001f5fb20,65af557a304b05200d920853,2024-01-22_23h15.22.776,bars,2023.2.3,Win32,59.88023952,657b66ea316d21385b68909f,,,,,,,,,,,896.6176,897.6207,,,898.1207,898.3712,,37,217,,,,,,,,,,,,,,,,bars/000.png,bars/mask005.png,,,,,,,,,,,,1,1,,,,,,,2,0,1,0,,,,,,,,,,,897.6209,898.1206,898.3714,902.3535,space,3.9758,,902.3537,3,72,903.3538,903.3538,903.3663,,,,0,31,31,31,1,40,145,,,,,,,,
,,5d5496bdd84ebe0001f5fb20,65af557a304b05200d920853,2024-01-22_23h15.22.776,bars,2023.2.3,Win32,59.88023952,657b66ea316d21385b68909f,,,,,,,,,,,903.3665,904.3698,,,904.8712,905.1197,,27,207,,,,,,,,,,,,,,,,bars/007.png,bars/mask000.png,,,,,,,,,,,,0,2,,,,,,,4,2,5,2,,,,,,,,,,,904.3699,904.871,905.1197,907.4199,space,2.2728,,907.4199,32,28,908.4193,908.4193,908.4324,,,,0,32,32,32,1,175,55,,,,,,,,
,,5d5496bdd84ebe0001f5fb20,65af557a304b05200d920853,2024-01-22_23h15.22.776,bars,2023.2.3,Win32,59.88023952,657b66ea316d21385b68909f,,,,,,,,,,,908.4326,909.4357,,,909.9358,910.1857,,21,21,,,,,,,,,,,,,,,,bars/023.png,bars/mask001.png,,,,,,,,,,,,3,1,,,,,,,2,0,3,1,,,,,,,,,,,909.4358,909.9357,910.1857,913.619,space,3.4064,,913.6192,1,86,914.6183,914.6183,914.6311,,,,0,33,33,33,1,20,115,,,,,,,,
,,5d5496bdd84ebe0001f5fb20,65af557a304b05200d920853,2024-01-22_23h15.22.776,bars,2023.2.3,Win32,59.88023952,657b66ea316d21385b68909f,,,,,,,,,,,914.6314,915.6349,,,916.1365,916.3847,,24,24,,,,,,,,,,,,,,,,bars/042.png,bars/mask002.png,,,,,,,,,,,,0,2,,,,,,,0,0,0,0,,,,,,,,,,,915.6349,916.1364,916.3848,917.4349,space,1.0214,,917.435,59,51,918.4343,918.4344,918.4473,,,,0,34,34,34,1,145,75,,,,,,,,
,,5d5496bdd84ebe0001f5fb20,65af557a304b05200d920853,2024-01-22_23h15.22.776,bars,2023.2.3,Win32,59.88023952,657b66ea316d21385b68909f,,,,,,,,,,,918.4475,919.451,,,919.951,920.2008,,120,120,,,,,,,,,,,,,,,,bars/031.png,bars/mask002.png,,,,,,,,,,,,1,1,,,,,,,0,2,1,1,,,,,,,,,,,919.451,919.9509,920.2009,924.4505,space,4.2159,,924.4507,0,85,925.4501,925.4502,925.4641,,,,0,35,35,35,1,120,35,,,,,,,,
,,5d5496bdd84ebe0001f5fb20,65af557a304b05200d920853,2024-01-22_23h15.22.776,bars,2023.2.3,Win32,59.88023952,657b66ea316d21385b68909f,,,,,,,,,,,925.4643,926.4666,,,926.9544,927.2006,,111,111,,,,,,,,,,,,,,,,bars/039.png,bars/mask006.png,,,,,,,,,,,,0,2,,,,,,,0,0,0,0,,,,,,,,,,,926.4666,926.9544,927.2007,930.4498,space,3.2151,,930.45,64,6,931.4493,931.4493,931.4622,,,,0,36,36,36,1,175,105,,,,,,,,
,,5d5496bdd84ebe0001f5fb20,65af557a304b05200d920853,2024-01-22_23h15.22.776,bars,2023.2.3,Win32,59.88023952,657b66ea316d21385b68909f,,,,,,,,,,,931.4625,932.4548,,,932.9491,933.1991,,105,105,,,,,,,,,,,,,,,,bars/009.png,bars/mask006.png,,,,,,,,,,,,0,2,,,,,,,0,0,0,0,,,,,,,,,,,932.4548,932.9491,933.1991,936.9221,space,3.7012,,936.9221,90,0,937.9157,937.9159,937.9288,,,,0,37,37,37,1,15,105,,,,,,,,
,,5d5496bdd84ebe0001f5fb20,65af557a304b05200d920853,2024-01-22_23h15.22.776,bars,2023.2.3,Win32,59.88023952,657b66ea316d21385b68909f,,,,,,,,,,,937.929,938.9318,,,939.4316,939.6907,,42,42,,,,,,,,,,,,,,,,bars/025.png,bars/mask001.png,,,,,,,,,,,,1,2,,,,,,,0,0,0,1,,,,,,,,,,,938.9319,939.4316,939.6908,942.0883,space,2.3845,,942.0884,63,2,943.0824,943.0825,943.0948,,,,0,38,38,38,1,105,40,,,,,,,,
,,5d5496bdd84ebe0001f5fb20,65af557a304b05200d920853,2024-01-22_23h15.22.776,bars,2023.2.3,Win32,59.88023952,657b66ea316d21385b68909f,,,,,,,,,,,943.095,944.0989,,,944.5975,944.8475,,80,80,,,,,,,,,,,,,,,,bars/046.png,bars/mask002.png,,,,,,,,,,,,0,2,,,,,,,2,0,3,0,,,,,,,,,,,944.0991,944.5975,944.8475,948.9307,space,4.0495,,948.9309,75,5,949.9317,949.9318,949.9452,,,,0,39,39,39,1,155,85,,,,,,,,
,,5d5496bdd84ebe0001f5fb20,65af557a304b05200d920853,2024-01-22_23h15.22.776,bars,2023.2.3,Win32,59.88023952,657b66ea316d21385b68909f,,,,,,,,,,,949.9455,950.9466,,,951.4466,951.6965,,111,111,,,,,,,,,,,,,,,,bars/037.png,bars/mask001.png,,,,,,,,,,,,1,2,,,,,,,4,0,4,1,,,,,,,,,,,950.9467,951.4465,951.6966,955.102,space,3.3836,,955.102,39,6,956.0959,956.0959,956.1077,,,,0,40,40,40,1,150,105,,,,,,,,
,,5d5496bdd84ebe0001f5fb20,65af557a304b05200d920853,2024-01-22_23h15.22.776,bars,2023.2.3,Win32,59.88023952,657b66ea316d21385b68909f,,,,,,,,,,,956.1082,957.0973,,,957.5966,957.8526,,24,24,,,,,,,,,,,,,,,,bars/033.png,bars/mask005.png,,,,,,,,,,,,4,1,,,,,,,6,0,4,0,,,,,,,,,,,957.0974,957.5965,957.8526,959.3458,space,1.4696,,959.346,1,49,960.3464,960.3466,960.351,,,,0,41,41,41,1,25,155,,,,,,,,
,,5d5496bdd84ebe0001f5fb20,65af557a304b05200d920853,2024-01-22_23h15.22.776,bars,2023.2.3,Win32,59.88023952,657b66ea316d21385b68909f,,,,,,,,,,,960.3513,961.3452,,,961.8453,962.0951,,17,197,,,,,,,,,,,,,,,,bars/023.png,bars/mask004.png,,,,,,,,,,,,5,1,,,,,,,4,2,5,2,,,,,,,,,,,961.3452,961.8452,962.0951,964.5784,space,2.4485,,964.5786,3,82,965.5779,965.578,965.5906,,,,0,42,42,42,1,20,115,,,,,,,,
,,5d5496bdd84ebe0001f5fb20,65af557a304b05200d920853,2024-01-22_23h15.22.776,bars,2023.2.3,Win32,59.88023952,657b66ea316d21385b68909f,,,,,,,,,,,965.5909,966.5946,,,967.0948,967.3497,,157,157,,,,,,,,,,,,,,,,bars/036.png,bars/mask002.png,,,,,,,,,,,,4,1,,,,,,,6,0,7,1,,,,,,,,,,,966.5946,967.0947,967.3497,968.8629,space,1.4912,,968.863,12,43,969.8606,969.8607,969.8623,,,,0,43,43,43,1,145,20,,,,,,,,
,,5d5496bdd84ebe0001f5fb20,65af557a304b05200d920853,2024-01-22_23h15.22.776,bars,2023.2.3,Win32,59.88023952,657b66ea316d21385b68909f,,,,,,,,,,,969.8627,970.8605,,,971.362,971.6105,,38,38,,,,,,,,,,,,,,,,bars/000.png,bars/mask006.png,,,,,,,,,,,,6,1,,,,,,,4,2,6,2,,,,,,,,,,,970.8606,971.3618,971.6107,974.1449,space,2.5019,,974.1451,2,73,975.1443,975.1445,975.1569,,,,0,44,44,44,1,40,145,,,,,,,,
,,5d5496bdd84ebe0001f5fb20,65af557a304b05200d920853,2024-01-22_23h15.22.776,bars,2023.2.3,Win32,59.88023952,657b66ea316d21385b68909f,,,,,,,,,,,975.1572,976.1598,,,976.661,976.9098,,122,122,,,,,,,,,,,,,,,,bars/020.png,bars/mask002.png,,,,,,,,,,,,2,1,,,,,,,2,4,3,4,,,,,,,,,,,976.1598,976.6608,976.9099,980.143,space,3.2021,,980.1432,7,48,981.1436,981.1437,981.1559,,,,0,45,45,45,1,115,170,,,,,,,,
,,5d5496bdd84ebe0001f5fb20,65af557a304b05200d920853,2024-01-22_23h15.22.776,bars,2023.2.3,Win32,59.88023952,657b66ea316d21385b68909f,,,,,,,,,,,981.1562,982.159,,,982.66,982.8997,,11,191,,,,,,,,,,,,,,,,bars/035.png,bars/mask001.png,,,,,,,,,,,,2,1,,,,,,,4,2,4,1,,,,,,,,,,,982.159,982.6599,982.8998,986.0093,space,3.0889,,986.0094,16,49,987.0083,987.0084,987.0237,,,,0,46,46,46,1,175,60,,,,,,,,
,,5d5496bdd84ebe0001f5fb20,65af557a304b05200d920853,2024-01-22_23h15.22.776,bars,2023.2.3,Win32,59.88023952,657b66ea316d21385b68909f,,,,,,,,,,,987.024,988.0158,,,988.508,988.7581,,28,28,,,,,,,,,,,,,,,,bars/048.png,bars/mask002.png,,,,,,,,,,,,2,1,,,,,,,6,0,6,0,,,,,,,,,,,988.0158,988.508,988.7582,990.6766,space,1.8886,,990.6768,22,33,991.6749,991.675,991.6884,,,,0,47,47,47,1,50,175,,,,,,,,
,,5d5496bdd84ebe0001f5fb20,65af557a304b05200d920853,2024-01-22_23h15.22.776,bars,2023.2.3,Win32,59.88023952,657b66ea316d21385b68909f,,,,,,,,,,,991.6887,992.692,,,993.1908,993.4418,,150,150,,,,,,,,,,,,,,,,bars/017.png,bars/mask007.png,,,,,,,,,,,,4,1,,,,,,,4,2,5,2,,,,,,,,,,,992.6921,993.1907,993.4418,995.9419,space,2.4721,,995.9421,5,75,996.9403,996.9403,996.9534,,,,0,48,48,48,1,145,45,,,,,,,,
,,5d5496bdd84ebe0001f5fb20,65af557a304b05200d920853,2024-01-22_23h15.22.776,bars,2023.2.3,Win32,59.88023952,657b66ea316d21385b68909f,,,,,,,,,,,996.9537,997.9425,,,998.4401,998.6909,,27,207,,,,,,,,,,,,,,,,bars/003.png,bars/mask001.png,,,,,,,,,,,,4,1,,,,,,,2,4,4,3,,,,,,,,,,,997.9426,998.44,998.6911,1002.0066,space,3.2836,,1002.0068,2,67,1003.0061,1003.0061,1003.0184,,,,0,49,49,49,1,25,140,,,,,,,,
,,5d5496bdd84ebe0001f5fb20,65af557a304b05200d920853,2024-01-22_23h15.22.776,bars,2023.2.3,Win32,59.88023952,657b66ea316d21385b68909f,,,,,,,,,,,,,,,,,,,,,,,,,,,,,,,,,,,,,,,,,,,,,,,,,,,,,,,,,,,,,,,,,,,,,,,,,,,,,,,,,,,,,,,,,,,,,1003.0185,1063.0145,0,1,1,3,1,sequence_tables/blk015.csv
,,5d5496bdd84ebe0001f5fb20,65af557a304b05200d920853,2024-01-22_23h15.22.776,bars,2023.2.3,Win32,59.88023952,657b66ea316d21385b68909f,,,,,,,,,,,1160.8033,1161.7848,,,1162.284,1162.5339,,107,107,,,,,,,,,,,,,,,,bars/019.png,bars/mask002.png,,,,,,,,,,,,7,2,,,,,,,10,7,10,8,,,,,,1063.0266,1160.7844,space,97.747,,1161.7848,1162.284,1162.534,1165.9005,space,3.3586,,1165.9006,62,2,1166.9004,1166.9004,1166.9135,,,,0,0,0,0,1,45,105,,,,,,,,
,,5d5496bdd84ebe0001f5fb20,65af557a304b05200d920853,2024-01-22_23h15.22.776,bars,2023.2.3,Win32,59.88023952,657b66ea316d21385b68909f,,,,,,,,,,,1166.9138,1167.9166,,,1168.4165,1168.6665,,75,75,,,,,,,,,,,,,,,,bars/039.png,bars/mask008.png,,,,,,,,,,,,0,2,,,,,,,10,5,10,6,,,,,,,,,,,1167.9166,1168.4164,1168.6665,1170.3998,space,1.7237,,1170.3999,80,30,1171.3993,1171.3993,1171.4117,,,,0,1,1,1,1,175,105,,,,,,,,
,,5d5496bdd84ebe0001f5fb20,65af557a304b05200d920853,2024-01-22_23h15.22.776,bars,2023.2.3,Win32,59.88023952,657b66ea316d21385b68909f,,,,,,,,,,,1171.412,1172.4158,,,1172.9158,1173.1657,,127,127,,,,,,,,,,,,,,,,bars/009.png,bars/mask009.png,,,,,,,,,,,,1,2,,,,,,,10,3,9,3,,,,,,,,,,,1172.4159,1172.9158,1173.1658,1175.4991,space,2.3265,,1175.4991,68,22,1176.4985,1176.4986,1176.4997,,,,0,2,2,2,1,15,105,,,,,,,,
,,5d5496bdd84ebe0001f5fb20,65af557a304b05200d920853,2024-01-22_23h15.22.776,bars,2023.2.3,Win32,59.88023952,657b66ea316d21385b68909f,,,,,,,,,,,1176.5,1177.4984,,,1177.9983,1178.2484,,48,48,,,,,,,,,,,,,,,,bars/034.png,bars/mask009.png,,,,,,,,,,,,0,2,,,,,,,8,1,6,0,,,,,,,,,,,1177.4984,1177.9983,1178.2485,1179.5153,space,1.2551,,1179.5154,77,17,1180.5146,1180.5147,1180.5158,,,,0,3,3,3,1,125,65,,,,,,,,
,,5d5496bdd84ebe0001f5fb20,65af557a304b05200d920853,2024-01-22_23h15.22.776,bars,2023.2.3,Win32,59.88023952,657b66ea316d21385b68909f,,,,,,,,,,,1180.5162,1181.5145,,,1182.0144,1182.2645,,75,75,,,,,,,,,,,,,,,,bars/013.png,bars/mask005.png,,,,,,,,,,,,10,1,,,,,,,10,0,10,1,,,,,,,,,,,1181.5145,1182.0144,1182.2645,1186.4474,space,4.1659,,1186.4475,0,65,1187.4471,1187.4472,1187.4605,,,,0,4,4,4,1,75,10,,,,,,,,
,,5d5496bdd84ebe0001f5fb20,65af557a304b05200d920853,2024-01-22_23h15.22.776,bars,2023.2.3,Win32,59.88023952,657b66ea316d21385b68909f,,,,,,,,,,,1187.4608,1188.4637,,,1188.9638,1189.214,,142,142,,,,,,,,,,,,,,,,bars/018.png,bars/mask008.png,,,,,,,,,,,,7,1,,,,,,,8,0,9,1,,,,,,,,,,,1188.4638,1188.9636,1189.214,1190.5469,space,1.3221,,1190.5469,8,52,1191.5465,1191.5465,1191.5479,,,,0,5,5,5,1,150,90,,,,,,,,
,,5d5496bdd84ebe0001f5fb20,65af557a304b05200d920853,2024-01-22_23h15.22.776,bars,2023.2.3,Win32,59.88023952,657b66ea316d21385b68909f,,,,,,,,,,,1191.5482,1192.5464,,,1193.0465,1193.2963,,28,208,,,,,,,,,,,,,,,,bars/003.png,bars/mask005.png,,,,,,,,,,,,6,1,,,,,,,6,2,7,2,,,,,,,,,,,1192.5464,1193.0464,1193.2963,1197.9131,space,4.6037,,1197.9132,3,68,1198.9121,1198.9121,1198.9242,,,,0,6,6,6,1,25,140,,,,,,,,
,,5d5496bdd84ebe0001f5fb20,65af557a304b05200d920853,2024-01-22_23h15.22.776,bars,2023.2.3,Win32,59.88023952,657b66ea316d21385b68909f,,,,,,,,,,,1198.9245,1199.9287,,,1200.4291,1200.6786,,138,138,,,,,,,,,,,,,,,,bars/021.png,bars/mask003.png,,,,,,,,,,,,4,1,,,,,,,8,0,9,0,,,,,,,,,,,1199.9288,1200.429,1200.6786,1206.1625,space,5.4658,,1206.1625,17,68,1207.161,1207.161,1207.1735,,,,0,7,7,7,1,155,70,,,,,,,,
,,5d5496bdd84ebe0001f5fb20,65af557a304b05200d920853,2024-01-22_23h15.22.776,bars,2023.2.3,Win32,59.88023952,657b66ea316d21385b68909f,,,,,,,,,,,1207.1739,1208.1776,,,1208.6775,1208.9274,,42,222,,,,,,,,,,,,,,,,bars/044.png,bars/mask008.png,,,,,,,,,,,,0,1,,,,,,,6,2,6,2,,,,,,,,,,,1208.1776,1208.6775,1208.9275,1211.844,space,2.8974,,1211.8441,33,67,1212.8436,1212.8437,1212.8555,,,,0,8,8,8,1,75,155,,,,,,,,
,,5d5496bdd84ebe0001f5fb20,65af557a304b05200d920853,2024-01-22_23h15.22.776,bars,2023.2.3,Win32,59.88023952,657b66ea316d21385b68909f,,,,,,,,,,,1212.8558,1213.86,,,1214.3603,1214.6104,,21,21,,,,,,,,,,,,,,,,bars/014.png,bars/mask001.png,,,,,,,,,,,,0,2,,,,,,,8,0,6,0,,,,,,,,,,,1213.86,1214.3602,1214.6104,1216.8433,space,2.2158,,1216.8433,59,21,1217.8429,1217.843,1217.8558,,,,0,9,9,9,1,80,0,,,,,,,,
,,5d5496bdd84ebe0001f5fb20,65af557a304b05200d920853,2024-01-22_23h15.22.776,bars,2023.2.3,Win32,59.88023952,657b66ea316d21385b68909f,,,,,,,,,,,1217.856,1218.8594,,,1219.3592,1219.6094,,61,61,,,,,,,,,,,,,,,,bars/001.png,bars/mask006.png,,,,,,,,,,,,0,2,,,,,,,10,2,10,1,,,,,,,,,,,1218.8594,1219.3592,1219.6094,1222.4758,space,2.8527,,1222.476,69,24,1223.4753,1223.4754,1223.4872,,,,0,10,10,10,1,130,85,,,,,,,,
,,5d5496bdd84ebe0001f5fb20,65af557a304b05200d920853,2024-01-22_23h15.22.776,bars,2023.2.3,Win32,59.88023952,657b66ea316d21385b68909f,,,,,,,,,,,1223.4874,1224.4753,,,1224.9753,1225.2251,,38,38,,,,,,,,,,,,,,,,bars/007.png,bars/mask006.png,,,,,,,,,,,,2,2,,,,,,,10,4,10,4,,,,,,,,,,,1224.4753,1224.9753,1225.2251,1227.8419,space,2.6011,,1227.842,43,17,1228.8413,1228.8413,1228.8423,,,,0,11,11,11,1,175,55,,,,,,,,
,,5d5496bdd84ebe0001f5fb20,65af557a304b05200d920853,2024-01-22_23h15.22.776,bars,2023.2.3,Win32,59.88023952,657b66ea316d21385b68909f,,,,,,,,,,,1228.8426,1229.8411,,,1230.3415,1230.592,,44,224,,,,,,,,,,,,,,,,bars/044.png,bars/mask006.png,,,,,,,,,,,,0,1,,,,,,,10,2,8,2,,,,,,,,,,,1229.8411,1230.3414,1230.5921,1234.1743,space,3.5674,,1234.1744,31,69,1235.1737,1235.1738,1235.1881,,,,0,12,12,12,1,75,155,,,,,,,,
,,5d5496bdd84ebe0001f5fb20,65af557a304b05200d920853,2024-01-22_23h15.22.776,bars,2023.2.3,Win32,59.88023952,657b66ea316d21385b68909f,,,,,,,,,,,1235.1884,1236.1909,,,1236.6904,1236.9406,,89,89,,,,,,,,,,,,,,,,bars/012.png,bars/mask000.png,,,,,,,,,,,,8,1,,,,,,,8,4,8,4,,,,,,,,,,,1236.1909,1236.6903,1236.9406,1239.6235,space,2.6621,,1239.6236,1,74,1240.623,1240.6231,1240.6363,,,,0,13,13,13,1,90,15,,,,,,,,
,,5d5496bdd84ebe0001f5fb20,65af557a304b05200d920853,2024-01-22_23h15.22.776,bars,2023.2.3,Win32,59.88023952,657b66ea316d21385b68909f,,,,,,,,,,,1240.6365,1241.64,,,1242.1396,1242.3894,,73,73,,,,,,,,,,,,,,,,bars/044.png,bars/mask002.png,,,,,,,,,,,,8,1,,,,,,,10,6,9,7,,,,,,,,,,,1241.6401,1242.1395,1242.3895,1244.1229,space,1.7208,,1244.123,2,82,1245.1225,1245.1226,1245.1354,,,,0,14,14,14,1,75,155,,,,,,,,
,,5d5496bdd84ebe0001f5fb20,65af557a304b05200d920853,2024-01-22_23h15.22.776,bars,2023.2.3,Win32,59.88023952,657b66ea316d21385b68909f,,,,,,,,,,,1245.1357,1246.1389,,,1246.6389,1246.8888,,29,29,,,,,,,,,,,,,,,,bars/005.png,bars/mask008.png,,,,,,,,,,,,3,1,,,,,,,8,8,9,8,,,,,,,,,,,1246.1389,1246.6388,1246.8888,1249.3564,space,2.4511,,1249.3565,19,69,1250.3558,1250.3559,1250.3912,,,,0,15,15,15,1,10,140,,,,,,,,
,,5d5496bdd84ebe0001f5fb20,65af557a304b05200d920853,2024-01-22_23h15.22.776,bars,2023.2.3,Win32,59.88023952,657b66ea316d21385b68909f,,,,,,,,,,,1250.3917,1251.3893,,,1251.8885,1252.1389,,29,29,,,,,,,,,,,,,,,,bars/033.png,bars/mask009.png,,,,,,,,,,,,7,1,,,,,,,6,10,8,9,,,,,,,,,,,1251.3893,1251.8884,1252.1389,1254.8883,space,2.7307,,1254.8885,4,54,1255.8879,1255.8879,1255.9003,,,,0,16,16,16,1,25,155,,,,,,,,
,,5d5496bdd84ebe0001f5fb20,65af557a304b05200d920853,2024-01-22_23h15.22.776,bars,2023.2.3,Win32,59.88023952,657b66ea316d21385b68909f,,,,,,,,,,,1255.9006,1256.905,,,1257.4049,1257.6549,,152,152,,,,,,,,,,,,,,,,bars/011.png,bars/mask007.png,,,,,,,,,,,,2,1,,,,,,,4,10,3,10,,,,,,,,,,,1256.9051,1257.4048,1257.6549,1260.1539,space,2.4936,,1260.1539,8,67,1261.1537,1261.1537,1261.1665,,,,0,17,17,17,1,160,85,,,,,,,,
,,5d5496bdd84ebe0001f5fb20,65af557a304b05200d920853,2024-01-22_23h15.22.776,bars,2023.2.3,Win32,59.88023952,657b66ea316d21385b68909f,,,,,,,,,,,1261.1668,1262.1701,,,1262.67,1262.9199,,114,114,,,,,,,,,,,,,,,,bars/024.png,bars/mask008.png,,,,,,,,,,,,1,1,,,,,,,2,10,1,9,,,,,,,,,,,1262.1701,1262.6699,1262.92,1266.4528,space,3.5256,,1266.4529,6,56,1267.4535,1267.4536,1267.4655,,,,0,18,18,18,1,120,170,,,,,,,,
,,5d5496bdd84ebe0001f5fb20,65af557a304b05200d920853,2024-01-22_23h15.22.776,bars,2023.2.3,Win32,59.88023952,657b66ea316d21385b68909f,,,,,,,,,,,1267.4658,1268.4693,,,1268.9693,1269.2192,,116,116,,,,,,,,,,,,,,,,bars/045.png,bars/mask002.png,,,,,,,,,,,,0,1,,,,,,,0,8,0,8,,,,,,,,,,,1268.4694,1268.9692,1269.2192,1271.3027,space,2.0656,,1271.3027,16,74,1272.3019,1272.302,1272.3135,,,,0,19,19,19,1,100,10,,,,,,,,
,,5d5496bdd84ebe0001f5fb20,65af557a304b05200d920853,2024-01-22_23h15.22.776,bars,2023.2.3,Win32,59.88023952,657b66ea316d21385b68909f,,,,,,,,,,,1272.3138,1273.3026,,,1273.8019,1274.0528,,160,160,,,,,,,,,,,,,,,,bars/003.png,bars/mask001.png,,,,,,,,,,,,3,2,,,,,,,0,10,1,10,,,,,,,,,,,1273.3026,1273.8018,1274.0529,1275.6021,space,1.5404,,1275.6021,45,20,1276.6013,1276.6013,1276.6043,,,,0,20,20,20,1,25,140,,,,,,,,
,,5d5496bdd84ebe0001f5fb20,65af557a304b05200d920853,2024-01-22_23h15.22.776,bars,2023.2.3,Win32,59.88023952,657b66ea316d21385b68909f,,,,,,,,,,,1276.6047,1277.6011,,,1278.1012,1278.352,,141,141,,,,,,,,,,,,,,,,bars/003.png,bars/mask006.png,,,,,,,,,,,,9,2,,,,,,,0,10,0,9,,,,,,,,,,,1277.6012,1278.1011,1278.352,1283.3175,space,4.952,,1283.3175,64,1,1284.3175,1284.3175,1284.3288,,,,0,21,21,21,1,25,140,,,,,,,,
,,5d5496bdd84ebe0001f5fb20,65af557a304b05200d920853,2024-01-22_23h15.22.776,bars,2023.2.3,Win32,59.88023952,657b66ea316d21385b68909f,,,,,,,,,,,1284.3292,1285.3178,,,1285.8175,1286.0675,,126,126,,,,,,,,,,,,,,,,bars/028.png,bars/mask008.png,,,,,,,,,,,,8,2,,,,,,,2,10,2,10,,,,,,,,,,,1285.3178,1285.8175,1286.0675,1288.1,space,2.017,,1288.1001,81,6,1289.0997,1289.0997,1289.1118,,,,0,22,22,22,1,45,120,,,,,,,,
,,5d5496bdd84ebe0001f5fb20,65af557a304b05200d920853,2024-01-22_23h15.22.776,bars,2023.2.3,Win32,59.88023952,657b66ea316d21385b68909f,,,,,,,,,,,1289.1121,1290.1162,,,1290.6162,1290.8661,,129,-51,,,,,,,,,,,,,,,,bars/015.png,bars/mask008.png,,,,,,,,,,,,1,1,,,,,,,4,10,3,9,,,,,,,,,,,1290.1163,1290.6161,1290.8661,1294.8499,space,3.9687,,1294.8499,19,31,1295.8487,1295.8487,1295.8624,,,,0,23,23,23,1,110,160,,,,,,,,
,,5d5496bdd84ebe0001f5fb20,65af557a304b05200d920853,2024-01-22_23h15.22.776,bars,2023.2.3,Win32,59.88023952,657b66ea316d21385b68909f,,,,,,,,,,,1295.8628,1296.8661,,,1297.3653,1297.6157,,38,38,,,,,,,,,,,,,,,,bars/028.png,bars/mask001.png,,,,,,,,,,,,2,1,,,,,,,2,10,2,8,,,,,,,,,,,1296.8661,1297.3652,1297.6157,1299.1822,space,1.5476,,1299.1823,7,82,1300.1815,1300.1815,1300.1827,,,,0,24,24,24,1,45,120,,,,,,,,
,,5d5496bdd84ebe0001f5fb20,65af557a304b05200d920853,2024-01-22_23h15.22.776,bars,2023.2.3,Win32,59.88023952,657b66ea316d21385b68909f,,,,,,,,,,,1300.1829,1301.1821,,,1301.6813,1301.9312,,119,119,,,,,,,,,,,,,,,,bars/012.png,bars/mask004.png,,,,,,,,,,,,0,1,,,,,,,0,10,0,10,,,,,,,,,,,1301.1822,1301.6812,1301.9313,1304.9978,space,3.049,,1304.9978,29,76,1305.9974,1305.9974,1306.0089,,,,0,25,25,25,1,90,15,,,,,,,,
,,5d5496bdd84ebe0001f5fb20,65af557a304b05200d920853,2024-01-22_23h15.22.776,bars,2023.2.3,Win32,59.88023952,657b66ea316d21385b68909f,,,,,,,,,,,1306.0091,1306.997,,,1307.4971,1307.7469,,43,43,,,,,,,,,,,,,,,,bars/034.png,bars/mask005.png,,,,,,,,,,,,3,2,,,,,,,0,10,0,10,,,,,,,,,,,1306.9971,1307.497,1307.7469,1309.6972,space,1.9401,,1309.6972,82,22,1310.6967,1310.6968,1310.6995,,,,0,26,26,26,1,125,65,,,,,,,,
,,5d5496bdd84ebe0001f5fb20,65af557a304b05200d920853,2024-01-22_23h15.22.776,bars,2023.2.3,Win32,59.88023952,657b66ea316d21385b68909f,,,,,,,,,,,1310.7001,1311.6965,,,1312.1965,1312.4464,,161,161,,,,,,,,,,,,,,,,bars/020.png,bars/mask002.png,,,,,,,,,,,,4,2,,,,,,,0,8,0,6,,,,,,,,,,,1311.6965,1312.1964,1312.4464,1316.1628,space,3.6984,,1316.1629,46,9,1317.1631,1317.1632,1317.1748,,,,0,27,27,27,1,115,170,,,,,,,,
,,5d5496bdd84ebe0001f5fb20,65af557a304b05200d920853,2024-01-22_23h15.22.776,bars,2023.2.3,Win32,59.88023952,657b66ea316d21385b68909f,,,,,,,,,,,1317.175,1318.1792,,,1318.6789,1318.9288,,81,81,,,,,,,,,,,,,,,,bars/011.png,bars/mask008.png,,,,,,,,,,,,4,2,,,,,,,2,6,2,5,,,,,,,,,,,1318.1793,1318.6789,1318.9288,1323.0621,space,4.121,,1323.0622,79,4,1324.0616,1324.0617,1324.0736,,,,0,28,28,28,1,160,85,,,,,,,,
,,5d5496bdd84ebe0001f5fb20,65af557a304b05200d920853,2024-01-22_23h15.22.776,bars,2023.2.3,Win32,59.88023952,657b66ea316d21385b68909f,,,,,,,,,,,1324.074,1325.078,,,1325.5783,1325.8279,,21,201,,,,,,,,,,,,,,,,bars/040.png,bars/mask000.png,,,,,,,,,,,,4,2,,,,,,,0,8,0,8,,,,,,,,,,,1325.0782,1325.5782,1325.8279,1329.3786,space,3.5392,,1329.3786,61,16,1330.3772,1330.3773,1330.3888,,,,0,29,29,29,1,140,5,,,,,,,,
,,5d5496bdd84ebe0001f5fb20,65af557a304b05200d920853,2024-01-22_23h15.22.776,bars,2023.2.3,Win32,59.88023952,657b66ea316d21385b68909f,,,,,,,,,,,1330.389,1331.3777,,,1331.877,1332.127,,36,36,,,,,,,,,,,,,,,,bars/025.png,bars/mask004.png,,,,,,,,,,,,6,2,,,,,,,0,6,0,7,,,,,,,,,,,1331.3779,1331.877,1332.1271,1334.4269,space,2.2828,,1334.427,69,4,1335.4273,1335.4274,1335.4392,,,,0,30,30,30,1,105,40,,,,,,,,
,,5d5496bdd84ebe0001f5fb20,65af557a304b05200d920853,2024-01-22_23h15.22.776,bars,2023.2.3,Win32,59.88023952,657b66ea316d21385b68909f,,,,,,,,,,,1335.4395,1336.4431,,,1336.9432,1337.193,,29,29,,,,,,,,,,,,,,,,bars/029.png,bars/mask009.png,,,,,,,,,,,,5,2,,,,,,,0,8,1,10,,,,,,,,,,,1336.4432,1336.9431,1337.193,1340.8595,space,3.6468,,1340.8595,61,16,1341.859,1341.8591,1341.871,,,,0,31,31,31,1,90,45,,,,,,,,
,,5d5496bdd84ebe0001f5fb20,65af557a304b05200d920853,2024-01-22_23h15.22.776,bars,2023.2.3,Win32,59.88023952,657b66ea316d21385b68909f,,,,,,,,,,,1341.8713,1342.8754,,,1343.3755,1343.6254,,46,46,,,,,,,,,,,,,,,,bars/010.png,bars/mask000.png,,,,,,,,,,,,7,2,,,,,,,0,10,0,10,,,,,,,,,,,1342.8754,1343.3755,1343.6255,1345.5421,space,1.8981,,1345.5423,61,9,1346.5416,1346.5417,1346.5428,,,,0,32,32,32,1,165,55,,,,,,,,
,,5d5496bdd84ebe0001f5fb20,65af557a304b05200d920853,2024-01-22_23h15.22.776,bars,2023.2.3,Win32,59.88023952,657b66ea316d21385b68909f,,,,,,,,,,,1346.5431,1347.5416,,,1348.0414,1348.2915,,55,55,,,,,,,,,,,,,,,,bars/010.png,bars/mask006.png,,,,,,,,,,,,9,2,,,,,,,0,10,0,9,,,,,,,,,,,1347.5418,1348.0414,1348.2915,1352.2919,space,3.9815,,1352.2919,70,0,1353.2914,1353.2915,1353.3031,,,,0,33,33,33,1,165,55,,,,,,,,
,,5d5496bdd84ebe0001f5fb20,65af557a304b05200d920853,2024-01-22_23h15.22.776,bars,2023.2.3,Win32,59.88023952,657b66ea316d21385b68909f,,,,,,,,,,,1353.3033,1354.3074,,,1354.8073,1355.0571,,98,98,,,,,,,,,,,,,,,,bars/046.png,bars/mask001.png,,,,,,,,,,,,4,2,,,,,,,2,8,1,7,,,,,,,,,,,1354.3074,1354.8073,1355.0572,1357.4569,space,2.3801,,1357.457,57,13,1358.4573,1358.4573,1358.4687,,,,0,34,34,34,1,155,85,,,,,,,,
,,5d5496bdd84ebe0001f5fb20,65af557a304b05200d920853,2024-01-22_23h15.22.776,bars,2023.2.3,Win32,59.88023952,657b66ea316d21385b68909f,,,,,,,,,,,1358.469,1359.457,,,1359.9568,1360.2063,,47,47,,,,,,,,,,,,,,,,bars/027.png,bars/mask002.png,,,,,,,,,,,,6,2,,,,,,,0,6,0,7,,,,,,,,,,,1359.4571,1359.9566,1360.2063,1362.6063,space,2.3923,,1362.6063,63,3,1363.6059,1363.606,1363.6181,,,,0,35,35,35,1,110,50,,,,,,,,
,,5d5496bdd84ebe0001f5fb20,65af557a304b05200d920853,2024-01-22_23h15.22.776,bars,2023.2.3,Win32,59.88023952,657b66ea316d21385b68909f,,,,,,,,,,,1363.6183,1364.6225,,,1365.1225,1365.3724,,81,81,,,,,,,,,,,,,,,,bars/011.png,bars/mask006.png,,,,,,,,,,,,7,2,,,,,,,0,8,2,8,,,,,,,,,,,1364.6225,1365.1224,1365.3725,1368.1389,space,2.747,,1368.139,79,4,1369.1389,1369.1389,1369.1504,,,,0,36,36,36,1,160,85,,,,,,,,
,,5d5496bdd84ebe0001f5fb20,65af557a304b05200d920853,2024-01-22_23h15.22.776,bars,2023.2.3,Win32,59.88023952,657b66ea316d21385b68909f,,,,,,,,,,,1369.1507,1370.1391,,,1370.6384,1370.8883,,126,126,,,,,,,,,,,,,,,,bars/028.png,bars/mask007.png,,,,,,,,,,,,6,2,,,,,,,0,6,0,7,,,,,,,,,,,1370.1391,1370.6384,1370.8884,1373.1383,space,2.2401,,1373.1384,81,6,1374.1378,1374.1379,1374.1496,,,,0,37,37,37,1,45,120,,,,,,,,
,,5d5496bdd84ebe0001f5fb20,65af557a304b05200d920853,2024-01-22_23h15.22.776,bars,2023.2.3,Win32,59.88023952,657b66ea316d21385b68909f,,,,,,,,,,,1374.1499,1375.1544,,,1375.6543,1375.9041,,112,112,,,,,,,,,,,,,,,,bars/049.png,bars/mask005.png,,,,,,,,,,,,8,2,,,,,,,0,8,1,9,,,,,,,,,,,1375.1545,1375.6543,1375.9041,1377.971,space,2.0522,,1377.9711,48,3,1378.9705,1378.9706,1378.9717,,,,0,38,38,38,1,160,115,,,,,,,,
,,5d5496bdd84ebe0001f5fb20,65af557a304b05200d920853,2024-01-22_23h15.22.776,bars,2023.2.3,Win32,59.88023952,657b66ea316d21385b68909f,,,,,,,,,,,1378.972,1379.9703,,,1380.4706,1380.7207,,117,117,,,,,,,,,,,,,,,,bars/004.png,bars/mask001.png,,,,,,,,,,,,5,2,,,,,,,2,6,2,7,,,,,,,,,,,1379.9704,1380.4706,1380.7207,1382.7704,space,2.0361,,1382.7704,88,8,1383.7707,1383.7707,1383.7821,,,,0,39,39,39,1,25,125,,,,,,,,
,,5d5496bdd84ebe0001f5fb20,65af557a304b05200d920853,2024-01-22_23h15.22.776,bars,2023.2.3,Win32,59.88023952,657b66ea316d21385b68909f,,,,,,,,,,,1383.7824,1384.7868,,,1385.2864,1385.5363,,72,72,,,,,,,,,,,,,,,,bars/041.png,bars/mask007.png,,,,,,,,,,,,2,2,,,,,,,4,4,5,3,,,,,,,,,,,1384.7868,1385.2863,1385.5363,1388.2363,space,2.6815,,1388.2363,52,13,1389.2357,1389.2357,1389.2475,,,,0,40,40,40,1,20,85,,,,,,,,
,,5d5496bdd84ebe0001f5fb20,65af557a304b05200d920853,2024-01-22_23h15.22.776,bars,2023.2.3,Win32,59.88023952,657b66ea316d21385b68909f,,,,,,,,,,,1389.2478,1390.2356,,,1390.7364,1390.9854,,19,199,,,,,,,,,,,,,,,,bars/045.png,bars/mask002.png,,,,,,,,,,,,5,2,,,,,,,2,6,1,7,,,,,,,,,,,1390.2357,1390.7363,1390.9855,1393.553,space,2.5581,,1393.553,81,9,1394.5517,1394.5518,1394.5637,,,,0,41,41,41,1,100,10,,,,,,,,
,,5d5496bdd84ebe0001f5fb20,65af557a304b05200d920853,2024-01-22_23h15.22.776,bars,2023.2.3,Win32,59.88023952,657b66ea316d21385b68909f,,,,,,,,,,,1394.5639,1395.5527,,,1396.0524,1396.3014,,42,42,,,,,,,,,,,,,,,,bars/017.png,bars/mask005.png,,,,,,,,,,,,3,2,,,,,,,4,4,3,3,,,,,,,,,,,1395.5527,1396.0524,1396.3015,1400.8685,space,4.5588,,1400.8686,77,3,1401.8684,1401.8686,1401.8811,,,,0,42,42,42,1,145,45,,,,,,,,
,,5d5496bdd84ebe0001f5fb20,65af557a304b05200d920853,2024-01-22_23h15.22.776,bars,2023.2.3,Win32,59.88023952,657b66ea316d21385b68909f,,,,,,,,,,,1401.8814,1402.8893,,,1403.3839,1403.6339,,114,114,,,,,,,,,,,,,,,,bars/019.png,bars/mask009.png,,,,,,,,,,,,4,2,,,,,,,2,6,4,6,,,,,,,,,,,1402.8893,1403.3839,1403.6339,1406.4673,space,2.8043,,1406.4674,69,9,1407.4666,1407.4666,1407.4784,,,,0,43,43,43,1,45,105,,,,,,,,
,,5d5496bdd84ebe0001f5fb20,65af557a304b05200d920853,2024-01-22_23h15.22.776,bars,2023.2.3,Win32,59.88023952,657b66ea316d21385b68909f,,,,,,,,,,,1407.4787,1408.4664,,,1408.9668,1409.2177,,15,195,,,,,,,,,,,,,,,,bars/024.png,bars/mask002.png,,,,,,,,,,,,1,2,,,,,,,0,8,0,8,,,,,,,,,,,1408.4664,1408.9666,1409.2178,1411.2052,space,1.9664,,1411.2053,75,25,1412.1992,1412.1992,1412.2109,,,,0,44,44,44,1,120,170,,,,,,,,
,,5d5496bdd84ebe0001f5fb20,65af557a304b05200d920853,2024-01-22_23h15.22.776,bars,2023.2.3,Win32,59.88023952,657b66ea316d21385b68909f,,,,,,,,,,,1412.2112,1413.1991,,,1413.6991,1413.9488,,155,-25,,,,,,,,,,,,,,,,bars/049.png,bars/mask008.png,,,,,,,,,,,,1,1,,,,,,,2,6,1,7,,,,,,,,,,,1413.1991,1413.6991,1413.9489,1417.0838,space,3.1067,,1417.0839,5,40,1418.0818,1418.0819,1418.0954,,,,0,45,45,45,1,160,115,,,,,,,,
,,5d5496bdd84ebe0001f5fb20,65af557a304b05200d920853,2024-01-22_23h15.22.776,bars,2023.2.3,Win32,59.88023952,657b66ea316d21385b68909f,,,,,,,,,,,1418.0957,1419.0983,,,1419.5983,1419.8481,,27,27,,,,,,,,,,,,,,,,bars/009.png,bars/mask003.png,,,,,,,,,,,,0,1,,,,,,,0,4,0,4,,,,,,,,,,,1419.0983,1419.5982,1419.8482,1421.715,space,1.8423,,1421.715,12,78,1422.7158,1422.7159,1422.718,,,,0,46,46,46,1,15,105,,,,,,,,
,,5d5496bdd84ebe0001f5fb20,65af557a304b05200d920853,2024-01-22_23h15.22.776,bars,2023.2.3,Win32,59.88023952,657b66ea316d21385b68909f,,,,,,,,,,,1422.7187,1423.7143,,,1424.2151,1424.4641,,124,124,,,,,,,,,,,,,,,,bars/006.png,bars/mask000.png,,,,,,,,,,,,1,2,,,,,,,2,6,2,6,,,,,,,,,,,1423.7143,1424.215,1424.4642,1428.6972,space,4.2092,,1428.6973,89,24,1429.6969,1429.6969,1429.7099,,,,0,47,47,47,1,35,100,,,,,,,,
,,5d5496bdd84ebe0001f5fb20,65af557a304b05200d920853,2024-01-22_23h15.22.776,bars,2023.2.3,Win32,59.88023952,657b66ea316d21385b68909f,,,,,,,,,,,1429.7102,1430.7138,,,1431.2134,1431.4632,,145,-35,,,,,,,,,,,,,,,,bars/000.png,bars/mask004.png,,,,,,,,,,,,3,2,,,,,,,0,4,0,3,,,,,,,,,,,1430.7139,1431.2133,1431.4632,1435.98,space,4.4868,,1435.9802,75,0,1436.9795,1436.9796,1436.992,,,,0,48,48,48,1,40,145,,,,,,,,
,,5d5496bdd84ebe0001f5fb20,65af557a304b05200d920853,2024-01-22_23h15.22.776,bars,2023.2.3,Win32,59.88023952,657b66ea316d21385b68909f,,,,,,,,,,,1436.9924,1437.9956,,,1438.4957,1438.735,,30,30,,,,,,,,,,,,,,,,bars/025.png,bars/mask003.png,,,,,,,,,,,,2,2,,,,,,,2,2,2,3,,,,,,,,,,,1437.9957,1438.4956,1438.735,1440.4795,space,1.7206,,1440.4797,75,10,1441.4785,1441.4786,1441.491,,,,0,49,49,49,1,105,40,,,,,,,,
,,5d5496bdd84ebe0001f5fb20,65af557a304b05200d920853,2024-01-22_23h15.22.776,bars,2023.2.3,Win32,59.88023952,657b66ea316d21385b68909f,,,,,,,,,,,,,,,,,,,,,,,,,,,,,,,,,,,,,,,,,,,,,,,,,,,,,,,,,,,,,,,,,,,,,,,,,,,,,,,,,,,,,,,,,,,,,1441.4912,1501.4883,0,2,2,0,1,sequence_tables/blk043.csv
,,5d5496bdd84ebe0001f5fb20,65af557a304b05200d920853,2024-01-22_23h15.22.776,bars,2023.2.3,Win32,59.88023952,657b66ea316d21385b68909f,,,,,,,,,,,1675.0305,1676.0293,,,1676.5293,1676.779,,69,69,,,,,,,,,,,,,,,,bars/042.png,bars/mask000.png,,,,,,,,,,,,2,2,,,,,,,5,5,5,2,,,,,,1501.5024,1675.0134,space,173.5001,,1676.0293,1676.5293,1676.7792,1678.546,space,1.7518,,1678.546,76,6,1679.5454,1679.5455,1679.5575,,,,0,0,0,0,1,145,75,,,,,,,,
,,5d5496bdd84ebe0001f5fb20,65af557a304b05200d920853,2024-01-22_23h15.22.776,bars,2023.2.3,Win32,59.88023952,657b66ea316d21385b68909f,,,,,,,,,,,1679.5578,1680.562,,,1681.062,1681.3119,,43,43,,,,,,,,,,,,,,,,bars/034.png,bars/mask005.png,,,,,,,,,,,,1,2,,,,,,,7,3,8,4,,,,,,,,,,,1680.562,1681.062,1681.3119,1683.1618,space,1.8416,,1683.1619,82,22,1684.1615,1684.1616,1684.1627,,,,0,1,1,1,1,125,65,,,,,,,,
,,5d5496bdd84ebe0001f5fb20,65af557a304b05200d920853,2024-01-22_23h15.22.776,bars,2023.2.3,Win32,59.88023952,657b66ea316d21385b68909f,,,,,,,,,,,1684.163,1685.1613,,,1685.6618,1685.9122,,107,107,,,,,,,,,,,,,,,,bars/031.png,bars/mask006.png,,,,,,,,,,,,2,1,,,,,,,5,5,4,6,,,,,,,,,,,1685.1613,1685.6617,1685.9123,1688.9443,space,3.0208,,1688.9444,13,72,1689.9441,1689.9442,1689.957,,,,0,2,2,2,1,120,35,,,,,,,,
,,5d5496bdd84ebe0001f5fb20,65af557a304b05200d920853,2024-01-22_23h15.22.776,bars,2023.2.3,Win32,59.88023952,657b66ea316d21385b68909f,,,,,,,,,,,1689.9572,1690.9609,,,1691.4606,1691.7109,,43,43,,,,,,,,,,,,,,,,bars/028.png,bars/mask001.png,,,,,,,,,,,,7,1,,,,,,,7,7,7,7,,,,,,,,,,,1690.9609,1691.4605,1691.7109,1695.7267,space,4.0005,,1695.7268,2,77,1696.7264,1696.7264,1696.7383,,,,0,3,3,3,1,45,120,,,,,,,,
,,5d5496bdd84ebe0001f5fb20,65af557a304b05200d920853,2024-01-22_23h15.22.776,bars,2023.2.3,Win32,59.88023952,657b66ea316d21385b68909f,,,,,,,,,,,1696.7385,1697.7261,,,1698.2262,1698.4762,,18,198,,,,,,,,,,,,,,,,bars/007.png,bars/mask004.png,,,,,,,,,,,,1,1,,,,,,,5,5,6,4,,,,,,,,,,,1697.7262,1698.2262,1698.4762,1701.7598,space,3.266,,1701.7598,23,37,1702.7589,1702.7589,1702.7707,,,,0,4,4,4,1,175,55,,,,,,,,
,,5d5496bdd84ebe0001f5fb20,65af557a304b05200d920853,2024-01-22_23h15.22.776,bars,2023.2.3,Win32,59.88023952,657b66ea316d21385b68909f,,,,,,,,,,,1702.771,1703.7595,,,1704.2588,1704.509,,118,118,,,,,,,,,,,,,,,,bars/012.png,bars/mask009.png,,,,,,,,,,,,1,1,,,,,,,7,7,8,8,,,,,,,,,,,1703.7595,1704.2588,1704.509,1706.7254,space,2.2043,,1706.7254,28,77,1707.7249,1707.7249,1707.7366,,,,0,5,5,5,1,90,15,,,,,,,,
,,5d5496bdd84ebe0001f5fb20,65af557a304b05200d920853,2024-01-22_23h15.22.776,bars,2023.2.3,Win32,59.88023952,657b66ea316d21385b68909f,,,,,,,,,,,1707.7369,1708.7246,,,1709.2254,1709.4754,,100,280,,,,,,,,,,,,,,,,bars/026.png,bars/mask002.png,,,,,,,,,,,,5,2,,,,,,,9,9,7,9,,,,,,,,,,,1708.7247,1709.2254,1709.4755,1714.0301,space,4.5475,,1714.0302,65,15,1715.0239,1715.0239,1715.0368,,,,0,6,6,6,1,35,85,,,,,,,,
,,5d5496bdd84ebe0001f5fb20,65af557a304b05200d920853,2024-01-22_23h15.22.776,bars,2023.2.3,Win32,59.88023952,657b66ea316d21385b68909f,,,,,,,,,,,1715.0371,1716.0404,,,1716.5405,1716.7903,,56,56,,,,,,,,,,,,,,,,bars/038.png,bars/mask004.png,,,,,,,,,,,,4,2,,,,,,,10,10,10,8,,,,,,,,,,,1716.0405,1716.5404,1716.7904,1718.3071,space,1.4912,,1718.3072,71,14,1719.3067,1719.3067,1719.3189,,,,0,7,7,7,1,165,70,,,,,,,,
,,5d5496bdd84ebe0001f5fb20,65af557a304b05200d920853,2024-01-22_23h15.22.776,bars,2023.2.3,Win32,59.88023952,657b66ea316d21385b68909f,,,,,,,,,,,1719.3192,1720.3233,,,1720.8247,1721.073,,29,29,,,,,,,,,,,,,,,,bars/032.png,bars/mask007.png,,,,,,,,,,,,7,2,,,,,,,10,10,10,10,,,,,,,,,,,1720.3234,1720.8245,1721.0731,1724.6401,space,3.5376,,1724.6402,84,9,1725.6278,1725.6278,1725.6393,,,,0,8,8,8,1,125,20,,,,,,,,
,,5d5496bdd84ebe0001f5fb20,65af557a304b05200d920853,2024-01-22_23h15.22.776,bars,2023.2.3,Win32,59.88023952,657b66ea316d21385b68909f,,,,,,,,,,,1725.6398,1726.639,,,1727.1393,1727.3888,,43,43,,,,,,,,,,,,,,,,bars/035.png,bars/mask005.png,,,,,,,,,,,,4,2,,,,,,,8,10,9,10,,,,,,,,,,,1726.6391,1727.1392,1727.3889,1729.3108,space,1.8999,,1729.3109,48,17,1730.306,1730.3062,1730.3189,,,,0,9,9,9,1,175,60,,,,,,,,
,,5d5496bdd84ebe0001f5fb20,65af557a304b05200d920853,2024-01-22_23h15.22.776,bars,2023.2.3,Win32,59.88023952,657b66ea316d21385b68909f,,,,,,,,,,,1730.3192,1731.3215,,,1731.8234,1732.0715,,103,103,,,,,,,,,,,,,,,,bars/026.png,bars/mask002.png,,,,,,,,,,,,3,2,,,,,,,6,8,7,7,,,,,,,,,,,1731.3216,1731.8232,1732.0716,1733.6884,space,1.584,,1733.6885,68,18,1734.6878,1734.6879,1734.6898,,,,0,10,10,10,1,35,85,,,,,,,,
,,5d5496bdd84ebe0001f5fb20,65af557a304b05200d920853,2024-01-22_23h15.22.776,bars,2023.2.3,Win32,59.88023952,657b66ea316d21385b68909f,,,,,,,,,,,1734.6902,1735.6877,,,1736.1877,1736.4384,,117,117,,,,,,,,,,,,,,,,bars/049.png,bars/mask005.png,,,,,,,,,,,,5,2,,,,,,,4,6,5,5,,,,,,,,,,,1735.6877,1736.1876,1736.4386,1738.777,space,2.3174,,1738.7771,43,2,1739.7705,1739.7705,1739.7829,,,,0,11,11,11,1,160,115,,,,,,,,
,,5d5496bdd84ebe0001f5fb20,65af557a304b05200d920853,2024-01-22_23h15.22.776,bars,2023.2.3,Win32,59.88023952,657b66ea316d21385b68909f,,,,,,,,,,,1739.7831,1740.7713,,,1741.2702,1741.5216,,24,204,,,,,,,,,,,,,,,,bars/025.png,bars/mask004.png,,,,,,,,,,,,1,2,,,,,,,6,4,6,3,,,,,,,,,,,1740.7714,1741.2702,1741.5219,1744.0538,space,2.5049,,1744.054,81,16,1745.0531,1745.0531,1745.055,,,,0,12,12,12,1,105,40,,,,,,,,
,,5d5496bdd84ebe0001f5fb20,65af557a304b05200d920853,2024-01-22_23h15.22.776,bars,2023.2.3,Win32,59.88023952,657b66ea316d21385b68909f,,,,,,,,,,,1745.0554,1746.0529,,,1746.5545,1746.8029,,132,-48,,,,,,,,,,,,,,,,bars/004.png,bars/mask003.png,,,,,,,,,,,,5,2,,,,,,,8,6,6,6,,,,,,,,,,,1746.053,1746.5544,1746.8029,1750.1859,space,3.3483,,1750.186,73,7,1751.1855,1751.1856,1751.1971,,,,0,13,13,13,1,25,125,,,,,,,,
,,5d5496bdd84ebe0001f5fb20,65af557a304b05200d920853,2024-01-22_23h15.22.776,bars,2023.2.3,Win32,59.88023952,657b66ea316d21385b68909f,,,,,,,,,,,1751.1974,1752.1859,,,1752.6854,1752.9353,,94,94,,,,,,,,,,,,,,,,bars/042.png,bars/mask003.png,,,,,,,,,,,,1,2,,,,,,,6,4,5,4,,,,,,,,,,,1752.186,1752.6852,1752.9353,1755.2021,space,2.2335,,1755.2022,51,19,1756.2015,1756.2016,1756.2138,,,,0,14,14,14,1,145,75,,,,,,,,
,,5d5496bdd84ebe0001f5fb20,65af557a304b05200d920853,2024-01-22_23h15.22.776,bars,2023.2.3,Win32,59.88023952,657b66ea316d21385b68909f,,,,,,,,,,,1756.214,1757.2033,,,1757.7028,1757.9512,,104,104,,,,,,,,,,,,,,,,bars/039.png,bars/mask005.png,,,,,,,,,,,,2,2,,,,,,,4,2,3,2,,,,,,,,,,,1757.2033,1757.7028,1757.9513,1763.1511,space,5.1681,,1763.1513,71,1,1764.1504,1764.1504,1764.1621,,,,0,15,15,15,1,175,105,,,,,,,,
,,5d5496bdd84ebe0001f5fb20,65af557a304b05200d920853,2024-01-22_23h15.22.776,bars,2023.2.3,Win32,59.88023952,657b66ea316d21385b68909f,,,,,,,,,,,1764.1623,1765.1503,,,1765.6504,1765.9001,,60,60,,,,,,,,,,,,,,,,bars/031.png,bars/mask008.png,,,,,,,,,,,,1,2,,,,,,,2,4,3,5,,,,,,,,,,,1765.1504,1765.6503,1765.9002,1769.5833,space,3.6505,,1769.5835,60,25,1770.5829,1770.5829,1770.5959,,,,0,16,16,16,1,120,35,,,,,,,,
,,5d5496bdd84ebe0001f5fb20,65af557a304b05200d920853,2024-01-22_23h15.22.776,bars,2023.2.3,Win32,59.88023952,657b66ea316d21385b68909f,,,,,,,,,,,1770.5962,1771.6005,,,1772.0993,1772.3499,,45,45,,,,,,,,,,,,,,,,bars/019.png,bars/mask009.png,,,,,,,,,,,,0,1,,,,,,,0,2,0,4,,,,,,,,,,,1771.6006,1772.0993,1772.3502,1776.6324,space,4.255,,1776.6325,0,60,1777.6324,1777.6326,1777.646,,,,0,17,17,17,1,45,105,,,,,,,,
,,5d5496bdd84ebe0001f5fb20,65af557a304b05200d920853,2024-01-22_23h15.22.776,bars,2023.2.3,Win32,59.88023952,657b66ea316d21385b68909f,,,,,,,,,,,1777.6463,1778.6495,,,1779.1484,1779.3983,,141,141,,,,,,,,,,,,,,,,bars/042.png,bars/mask003.png,,,,,,,,,,,,2,1,,,,,,,0,0,2,1,,,,,,,,,,,1778.6496,1779.1484,1779.3983,1781.2652,space,1.8341,,1781.2653,4,66,1782.2645,1782.2646,1782.2765,,,,0,18,18,18,1,145,75,,,,,,,,
,,5d5496bdd84ebe0001f5fb20,65af557a304b05200d920853,2024-01-22_23h15.22.776,bars,2023.2.3,Win32,59.88023952,657b66ea316d21385b68909f,,,,,,,,,,,1782.2767,1783.2645,,,1783.7644,1784.0143,,16,16,,,,,,,,,,,,,,,,bars/041.png,bars/mask004.png,,,,,,,,,,,,1,1,,,,,,,0,0,1,0,,,,,,,,,,,1783.2645,1783.7644,1784.0143,1787.1976,space,3.1508,,1787.1978,4,69,1788.1972,1788.1973,1788.2093,,,,0,19,19,19,1,20,85,,,,,,,,
,,5d5496bdd84ebe0001f5fb20,65af557a304b05200d920853,2024-01-22_23h15.22.776,bars,2023.2.3,Win32,59.88023952,657b66ea316d21385b68909f,,,,,,,,,,,1788.2096,1789.2137,,,1789.7169,1789.9637,,13,13,,,,,,,,,,,,,,,,bars/041.png,bars/mask008.png,,,,,,,,,,,,2,1,,,,,,,2,2,3,2,,,,,,,,,,,1789.2138,1789.7167,1789.9638,1792.4969,space,2.5042,,1792.497,7,72,1793.4963,1793.4964,1793.5077,,,,0,20,20,20,1,20,85,,,,,,,,
,,5d5496bdd84ebe0001f5fb20,65af557a304b05200d920853,2024-01-22_23h15.22.776,bars,2023.2.3,Win32,59.88023952,657b66ea316d21385b68909f,,,,,,,,,,,1793.508,1794.4962,,,1794.9962,1795.2463,,148,-32,,,,,,,,,,,,,,,,bars/021.png,bars/mask006.png,,,,,,,,,,,,0,1,,,,,,,0,0,0,0,,,,,,,,,,,1794.4963,1794.9961,1795.2464,1797.8353,space,2.5673,,1797.8354,7,78,1798.8289,1798.8289,1798.8407,,,,0,21,21,21,1,155,70,,,,,,,,
,,5d5496bdd84ebe0001f5fb20,65af557a304b05200d920853,2024-01-22_23h15.22.776,bars,2023.2.3,Win32,59.88023952,657b66ea316d21385b68909f,,,,,,,,,,,1798.841,1799.8287,,,1800.3288,1800.5787,,135,135,,,,,,,,,,,,,,,,bars/015.png,bars/mask009.png,,,,,,,,,,,,0,2,,,,,,,0,2,0,2,,,,,,,,,,,1799.8288,1800.3287,1800.5788,1802.0287,space,1.42,,1802.0289,25,25,1803.0283,1803.0283,1803.0322,,,,0,22,22,22,1,110,160,,,,,,,,
,,5d5496bdd84ebe0001f5fb20,65af557a304b05200d920853,2024-01-22_23h15.22.776,bars,2023.2.3,Win32,59.88023952,657b66ea316d21385b68909f,,,,,,,,,,,1803.0325,1804.0282,,,1804.5282,1804.7788,,137,137,,,,,,,,,,,,,,,,bars/005.png,bars/mask007.png,,,,,,,,,,,,5,2,,,,,,,2,4,2,6,,,,,,,,,,,1804.0282,1804.5281,1804.779,1807.5284,space,2.7201,,1807.5284,53,3,1808.5276,1808.5277,1808.5395,,,,0,23,23,23,1,10,140,,,,,,,,
,,5d5496bdd84ebe0001f5fb20,65af557a304b05200d920853,2024-01-22_23h15.22.776,bars,2023.2.3,Win32,59.88023952,657b66ea316d21385b68909f,,,,,,,,,,,1808.5398,1809.5275,,,1810.0278,1810.2773,,73,73,,,,,,,,,,,,,,,,bars/026.png,bars/mask000.png,,,,,,,,,,,,2,2,,,,,,,4,2,5,3,,,,,,,,,,,1809.5275,1810.0277,1810.2774,1813.4663,space,3.1669,,1813.4663,38,12,1814.4655,1814.4655,1814.4769,,,,0,24,24,24,1,35,85,,,,,,,,
,,5d5496bdd84ebe0001f5fb20,65af557a304b05200d920853,2024-01-22_23h15.22.776,bars,2023.2.3,Win32,59.88023952,657b66ea316d21385b68909f,,,,,,,,,,,1814.4773,1815.4779,,,1815.9767,1816.2266,,162,-18,,,,,,,,,,,,,,,,bars/040.png,bars/mask000.png,,,,,,,,,,,,1,1,,,,,,,2,4,2,4,,,,,,,,,,,1815.478,1815.9766,1816.2267,1818.8431,space,2.5821,,1818.8433,22,23,1819.8427,1819.8428,1819.8559,,,,0,25,25,25,1,140,5,,,,,,,,
,,5d5496bdd84ebe0001f5fb20,65af557a304b05200d920853,2024-01-22_23h15.22.776,bars,2023.2.3,Win32,59.88023952,657b66ea316d21385b68909f,,,,,,,,,,,1819.8562,1820.859,,,1821.3498,1821.5926,,64,64,,,,,,,,,,,,,,,,bars/034.png,bars/mask004.png,,,,,,,,,,,,7,2,,,,,,,0,6,0,7,,,,,,,,,,,1820.8592,1821.3497,1821.5926,1825.1922,space,3.5758,,1825.1922,61,1,1826.1918,1826.1918,1826.2054,,,,0,26,26,26,1,125,65,,,,,,,,
,,5d5496bdd84ebe0001f5fb20,65af557a304b05200d920853,2024-01-22_23h15.22.776,bars,2023.2.3,Win32,59.88023952,657b66ea316d21385b68909f,,,,,,,,,,,1826.2056,1827.2094,,,1827.7098,1827.9581,,70,70,,,,,,,,,,,,,,,,bars/038.png,bars/mask000.png,,,,,,,,,,,,9,2,,,,,,,2,8,2,9,,,,,,,,,,,1827.2095,1827.7097,1827.9581,1830.958,space,2.9705,,1830.9581,85,0,1831.9579,1831.9579,1831.9713,,,,0,27,27,27,1,165,70,,,,,,,,
,,5d5496bdd84ebe0001f5fb20,65af557a304b05200d920853,2024-01-22_23h15.22.776,bars,2023.2.3,Win32,59.88023952,657b66ea316d21385b68909f,,,,,,,,,,,1831.9715,1832.9743,,,1833.4755,1833.7256,,133,133,,,,,,,,,,,,,,,,bars/004.png,bars/mask006.png,,,,,,,,,,,,4,2,,,,,,,0,6,0,5,,,,,,,,,,,1832.9744,1833.4753,1833.7257,1835.191,space,1.4367,,1835.191,72,8,1836.1905,1836.1906,1836.203,,,,0,28,28,28,1,25,125,,,,,,,,
,,5d5496bdd84ebe0001f5fb20,65af557a304b05200d920853,2024-01-22_23h15.22.776,bars,2023.2.3,Win32,59.88023952,657b66ea316d21385b68909f,,,,,,,,,,,1836.2033,1837.1907,,,1837.6911,1837.9404,,79,79,,,,,,,,,,,,,,,,bars/018.png,bars/mask008.png,,,,,,,,,,,,3,2,,,,,,,0,4,0,4,,,,,,,,,,,1837.1908,1837.6909,1837.9404,1840.24,space,2.2835,,1840.24,71,11,1841.2396,1841.2396,1841.2406,,,,0,29,29,29,1,150,90,,,,,,,,
,,5d5496bdd84ebe0001f5fb20,65af557a304b05200d920853,2024-01-22_23h15.22.776,bars,2023.2.3,Win32,59.88023952,657b66ea316d21385b68909f,,,,,,,,,,,1841.2409,1842.24,,,1842.7395,1842.9897,,10,10,,,,,,,,,,,,,,,,bars/032.png,bars/mask007.png,,,,,,,,,,,,5,2,,,,,,,2,6,2,7,,,,,,,,,,,1842.2401,1842.7395,1842.9897,1847.0733,space,4.075,,1847.0733,65,10,1848.072,1848.0721,1848.0837,,,,0,30,30,30,1,125,20,,,,,,,,
,,5d5496bdd84ebe0001f5fb20,65af557a304b05200d920853,2024-01-22_23h15.22.776,bars,2023.2.3,Win32,59.88023952,657b66ea316d21385b68909f,,,,,,,,,,,1848.084,1849.0719,,,1849.572,1849.8219,,16,196,,,,,,,,,,,,,,,,bars/031.png,bars/mask002.png,,,,,,,,,,,,1,2,,,,,,,0,4,0,4,,,,,,,,,,,1849.072,1849.572,1849.8219,1852.5886,space,2.7541,,1852.5886,76,19,1853.5882,1853.5882,1853.6001,,,,0,31,31,31,1,120,35,,,,,,,,
,,5d5496bdd84ebe0001f5fb20,65af557a304b05200d920853,2024-01-22_23h15.22.776,bars,2023.2.3,Win32,59.88023952,657b66ea316d21385b68909f,,,,,,,,,,,1853.6004,1854.5883,,,1855.0878,1855.3376,,62,62,,,,,,,,,,,,,,,,bars/021.png,bars/mask001.png,,,,,,,,,,,,4,2,,,,,,,2,6,2,5,,,,,,,,,,,1854.5883,1855.0877,1855.3376,1858.3377,space,2.9934,,1858.3377,87,8,1859.3373,1859.3373,1859.3497,,,,0,32,32,32,1,155,70,,,,,,,,
,,5d5496bdd84ebe0001f5fb20,65af557a304b05200d920853,2024-01-22_23h15.22.776,bars,2023.2.3,Win32,59.88023952,657b66ea316d21385b68909f,,,,,,,,,,,1859.35,1860.3542,,,1860.8593,1861.1104,,118,118,,,,,,,,,,,,,,,,bars/009.png,bars/mask001.png,,,,,,,,,,,,3,2,,,,,,,4,4,4,5,,,,,,,,,,,1860.3542,1860.8592,1861.1104,1862.3379,space,1.2043,,1862.338,77,13,1863.3376,1863.3379,1863.3412,,,,0,33,33,33,1,15,105,,,,,,,,
,,5d5496bdd84ebe0001f5fb20,65af557a304b05200d920853,2024-01-22_23h15.22.776,bars,2023.2.3,Win32,59.88023952,657b66ea316d21385b68909f,,,,,,,,,,,1863.3416,1864.3365,,,1864.8365,1865.0751,,25,205,,,,,,,,,,,,,,,,bars/029.png,bars/mask000.png,,,,,,,,,,,,1,2,,,,,,,2,2,2,2,,,,,,,,,,,1864.3366,1864.8365,1865.0751,1867.9696,space,2.8697,,1867.9697,65,20,1868.9694,1868.9694,1868.9814,,,,0,34,34,34,1,90,45,,,,,,,,
,,5d5496bdd84ebe0001f5fb20,65af557a304b05200d920853,2024-01-22_23h15.22.776,bars,2023.2.3,Win32,59.88023952,657b66ea316d21385b68909f,,,,,,,,,,,1868.9818,1869.9858,,,1870.4857,1870.7355,,24,24,,,,,,,,,,,,,,,,bars/017.png,bars/mask000.png,,,,,,,,,,,,0,2,,,,,,,0,0,0,0,,,,,,,,,,,1869.9858,1870.4857,1870.7356,1872.4023,space,1.6471,,1872.4024,59,21,1873.4018,1873.4019,1873.4029,,,,0,35,35,35,1,145,45,,,,,,,,
,,5d5496bdd84ebe0001f5fb20,65af557a304b05200d920853,2024-01-22_23h15.22.776,bars,2023.2.3,Win32,59.88023952,657b66ea316d21385b68909f,,,,,,,,,,,1873.4032,1874.4017,,,1874.9017,1875.1517,,133,133,,,,,,,,,,,,,,,,bars/011.png,bars/mask006.png,,,,,,,,,,,,0,1,,,,,,,2,2,3,2,,,,,,,,,,,1874.4018,1874.9016,1875.1518,1877.9517,space,2.7848,,1877.9517,27,48,1878.9513,1878.9513,1878.9656,,,,0,36,36,36,1,160,85,,,,,,,,
,,5d5496bdd84ebe0001f5fb20,65af557a304b05200d920853,2024-01-22_23h15.22.776,bars,2023.2.3,Win32,59.88023952,657b66ea316d21385b68909f,,,,,,,,,,,1878.9658,1879.9678,,,1880.4677,1880.7175,,148,148,,,,,,,,,,,,,,,,bars/018.png,bars/mask000.png,,,,,,,,,,,,3,1,,,,,,,4,0,3,0,,,,,,,,,,,1879.9678,1880.4677,1880.7176,1881.7511,space,1.0142,,1881.7512,2,58,1882.7505,1882.7506,1882.7519,,,,0,37,37,37,1,150,90,,,,,,,,
,,5d5496bdd84ebe0001f5fb20,65af557a304b05200d920853,2024-01-22_23h15.22.776,bars,2023.2.3,Win32,59.88023952,657b66ea316d21385b68909f,,,,,,,,,,,1882.7523,1883.7505,,,1884.2504,1884.5004,,140,140,,,,,,,,,,,,,,,,bars/015.png,bars/mask008.png,,,,,,,,,,,,1,2,,,,,,,2,2,2,3,,,,,,,,,,,1883.7505,1884.2504,1884.5004,1885.8503,space,1.3391,,1885.8504,30,20,1886.85,1886.85,1886.8529,,,,0,38,38,38,1,110,160,,,,,,,,
,,5d5496bdd84ebe0001f5fb20,65af557a304b05200d920853,2024-01-22_23h15.22.776,bars,2023.2.3,Win32,59.88023952,657b66ea316d21385b68909f,,,,,,,,,,,1886.8532,1887.8505,,,1888.3507,1888.5998,,136,136,,,,,,,,,,,,,,,,bars/025.png,bars/mask001.png,,,,,,,,,,,,0,1,,,,,,,4,4,5,5,,,,,,,,,,,1887.8506,1888.3507,1888.5999,1889.9666,space,1.3491,,1889.9668,31,84,1890.9663,1890.9664,1890.9684,,,,0,39,39,39,1,105,40,,,,,,,,
,,5d5496bdd84ebe0001f5fb20,65af557a304b05200d920853,2024-01-22_23h15.22.776,bars,2023.2.3,Win32,59.88023952,657b66ea316d21385b68909f,,,,,,,,,,,1890.9688,1891.9661,,,1892.4662,1892.716,,60,60,,,,,,,,,,,,,,,,bars/028.png,bars/mask000.png,,,,,,,,,,,,3,1,,,,,,,6,2,6,1,,,,,,,,,,,1891.9661,1892.4661,1892.716,1897.7322,space,5.0006,,1897.7322,15,60,1898.7317,1898.7317,1898.7448,,,,0,40,40,40,1,45,120,,,,,,,,
,,5d5496bdd84ebe0001f5fb20,65af557a304b05200d920853,2024-01-22_23h15.22.776,bars,2023.2.3,Win32,59.88023952,657b66ea316d21385b68909f,,,,,,,,,,,1898.7451,1899.7482,,,1900.249,1900.4982,,144,144,,,,,,,,,,,,,,,,bars/040.png,bars/mask008.png,,,,,,,,,,,,3,1,,,,,,,4,4,3,4,,,,,,,,,,,1899.7482,1900.249,1900.4982,1902.4981,space,1.9843,,1902.4983,4,41,1903.4977,1903.4977,1903.4987,,,,0,41,41,41,1,140,5,,,,,,,,
,,5d5496bdd84ebe0001f5fb20,65af557a304b05200d920853,2024-01-22_23h15.22.776,bars,2023.2.3,Win32,59.88023952,657b66ea316d21385b68909f,,,,,,,,,,,1903.4991,1904.4975,,,1904.9975,1905.2475,,27,207,,,,,,,,,,,,,,,,bars/047.png,bars/mask009.png,,,,,,,,,,,,3,1,,,,,,,6,2,5,1,,,,,,,,,,,1904.4977,1904.9974,1905.2476,1908.2807,space,3.0181,,1908.2807,12,43,1909.2803,1909.2803,1909.2933,,,,0,42,42,42,1,15,70,,,,,,,,
,,5d5496bdd84ebe0001f5fb20,65af557a304b05200d920853,2024-01-22_23h15.22.776,bars,2023.2.3,Win32,59.88023952,657b66ea316d21385b68909f,,,,,,,,,,,1909.2936,1910.2968,,,1910.7967,1911.0468,,158,158,,,,,,,,,,,,,,,,bars/035.png,bars/mask004.png,,,,,,,,,,,,3,1,,,,,,,8,0,8,0,,,,,,,,,,,1910.2968,1910.7967,1911.0469,1913.7632,space,2.7061,,1913.7633,17,82,1914.7629,1914.7629,1914.7761,,,,0,43,43,43,1,175,60,,,,,,,,
,,5d5496bdd84ebe0001f5fb20,65af557a304b05200d920853,2024-01-22_23h15.22.776,bars,2023.2.3,Win32,59.88023952,657b66ea316d21385b68909f,,,,,,,,,,,1914.7763,1915.7793,,,1916.2794,1916.5292,,159,159,,,,,,,,,,,,,,,,bars/011.png,bars/mask005.png,,,,,,,,,,,,7,1,,,,,,,6,2,7,0,,,,,,,,,,,1915.7793,1916.2793,1916.5292,1918.896,space,2.3523,,1918.8961,1,74,1919.8961,1919.8961,1919.9089,,,,0,44,44,44,1,160,85,,,,,,,,
,,5d5496bdd84ebe0001f5fb20,65af557a304b05200d920853,2024-01-22_23h15.22.776,bars,2023.2.3,Win32,59.88023952,657b66ea316d21385b68909f,,,,,,,,,,,1919.9091,1920.9119,,,1921.4126,1921.6618,,152,152,,,,,,,,,,,,,,,,bars/007.png,bars/mask004.png,,,,,,,,,,,,1,1,,,,,,,4,4,5,5,,,,,,,,,,,1920.912,1921.4126,1921.6619,1924.3789,space,2.7102,,1924.379,23,83,1925.3787,1925.3788,1925.3919,,,,0,45,45,45,1,175,55,,,,,,,,
,,5d5496bdd84ebe0001f5fb20,65af557a304b05200d920853,2024-01-22_23h15.22.776,bars,2023.2.3,Win32,59.88023952,657b66ea316d21385b68909f,,,,,,,,,,,1925.3921,1926.3945,,,1926.8945,1927.1445,,75,75,,,,,,,,,,,,,,,,bars/014.png,bars/mask004.png,,,,,,,,,,,,6,1,,,,,,,6,6,7,4,,,,,,,,,,,1926.3946,1926.8945,1927.1446,1930.2943,space,3.1329,,1930.2944,5,75,1931.2938,1931.2939,1931.3068,,,,0,46,46,46,1,80,0,,,,,,,,
,,5d5496bdd84ebe0001f5fb20,65af557a304b05200d920853,2024-01-22_23h15.22.776,bars,2023.2.3,Win32,59.88023952,657b66ea316d21385b68909f,,,,,,,,,,,1931.3071,1932.3102,,,1932.8103,1933.0603,,56,56,,,,,,,,,,,,,,,,bars/028.png,bars/mask006.png,,,,,,,,,,,,2,1,,,,,,,4,8,3,6,,,,,,,,,,,1932.3102,1932.8103,1933.0604,1934.4603,space,1.3887,,1934.4603,11,64,1935.46,1935.46,1935.4612,,,,0,47,47,47,1,45,120,,,,,,,,
,,5d5496bdd84ebe0001f5fb20,65af557a304b05200d920853,2024-01-22_23h15.22.776,bars,2023.2.3,Win32,59.88023952,657b66ea316d21385b68909f,,,,,,,,,,,1935.4615,1936.4598,,,1936.9599,1937.2098,,143,143,,,,,,,,,,,,,,,,bars/046.png,bars/mask007.png,,,,,,,,,,,,4,1,,,,,,,6,10,7,10,,,,,,,,,,,1936.4598,1936.9598,1937.2099,1938.5263,space,1.3064,,1938.5263,12,58,1939.526,1939.5261,1939.5273,,,,0,48,48,48,1,155,85,,,,,,,,
,,5d5496bdd84ebe0001f5fb20,65af557a304b05200d920853,2024-01-22_23h15.22.776,bars,2023.2.3,Win32,59.88023952,657b66ea316d21385b68909f,,,,,,,,,,,1939.5277,1940.5259,,,1941.0258,1941.2765,,132,132,,,,,,,,,,,,,,,,bars/007.png,bars/mask001.png,,,,,,,,,,,,0,1,,,,,,,8,10,8,10,,,,,,,,,,,1940.526,1941.0257,1941.2766,1944.5257,space,3.2191,,1944.526,43,77,1945.5252,1945.5253,1945.5387,,,,0,49,49,49,1,175,55,,,,,,,,
,,5d5496bdd84ebe0001f5fb20,65af557a304b05200d920853,2024-01-22_23h15.22.776,bars,2023.2.3,Win32,59.88023952,657b66ea316d21385b68909f,,,,,,,,,,,,,,,,,,,,,,,,,,,,,,,,,,,,,,,,,,,,,,,,,,,,,,,,,,,,,,,,,,,,,,,,,,,,,,,,,,,,,,,,,,,,,1945.5389,2005.5335,0,3,3,2,1,sequence_tables/blk011.csv
,,5d5496bdd84ebe0001f5fb20,65af557a304b05200d920853,2024-01-22_23h15.22.776,bars,2023.2.3,Win32,59.88023952,657b66ea316d21385b68909f,,,,,,,,,,,2231.5559,2232.5525,,,2233.0529,2233.3026,,173,173,,,,,,,,,,,,,,,,bars/048.png,bars/mask003.png,,,,,,,,,,,,7,2,,,,,,,8,7,10,8,,,,,,2005.5461,2231.536,space,225.9807,,2232.5526,2233.0529,2233.3026,2238.5026,space,5.1849,,2238.5027,57,2,2239.5014,2239.5015,2239.5152,,,,0,0,0,0,1,50,175,,,,,,,,
,,5d5496bdd84ebe0001f5fb20,65af557a304b05200d920853,2024-01-22_23h15.22.776,bars,2023.2.3,Win32,59.88023952,657b66ea316d21385b68909f,,,,,,,,,,,2239.5154,2240.5179,,,2241.0184,2241.2678,,98,98,,,,,,,,,,,,,,,,bars/038.png,bars/mask006.png,,,,,,,,,,,,0,2,,,,,,,6,5,6,4,,,,,,,,,,,2240.5179,2241.0183,2241.2678,2243.1677,space,1.8911,,2243.1679,67,28,2244.168,2244.168,2244.1801,,,,0,1,1,1,1,165,70,,,,,,,,
,,5d5496bdd84ebe0001f5fb20,65af557a304b05200d920853,2024-01-22_23h15.22.776,bars,2023.2.3,Win32,59.88023952,657b66ea316d21385b68909f,,,,,,,,,,,2244.1804,2245.1839,,,2245.6841,2245.9342,,139,139,,,,,,,,,,,,,,,,bars/000.png,bars/mask008.png,,,,,,,,,,,,7,2,,,,,,,8,7,8,9,,,,,,,,,,,2245.184,2245.6841,2245.9343,2247.4999,space,1.5606,,2247.5,81,6,2248.4998,2248.4999,2248.5013,,,,0,2,2,2,1,40,145,,,,,,,,
,,5d5496bdd84ebe0001f5fb20,65af557a304b05200d920853,2024-01-22_23h15.22.776,bars,2023.2.3,Win32,59.88023952,657b66ea316d21385b68909f,,,,,,,,,,,2248.5016,2249.4997,,,2249.9996,2250.2496,,115,115,,,,,,,,,,,,,,,,bars/004.png,bars/mask005.png,,,,,,,,,,,,3,2,,,,,,,10,5,9,4,,,,,,,,,,,2249.4997,2249.9996,2250.2496,2254.2164,space,3.948,,2254.2164,90,10,2255.2156,2255.2157,2255.227,,,,0,3,3,3,1,25,125,,,,,,,,
,,5d5496bdd84ebe0001f5fb20,65af557a304b05200d920853,2024-01-22_23h15.22.776,bars,2023.2.3,Win32,59.88023952,657b66ea316d21385b68909f,,,,,,,,,,,2255.2273,2256.2154,,,2256.7154,2256.9654,,14,14,,,,,,,,,,,,,,,,bars/020.png,bars/mask008.png,,,,,,,,,,,,2,2,,,,,,,10,7,10,8,,,,,,,,,,,2256.2154,2256.7153,2256.9654,2258.1989,space,1.2194,,2258.1989,79,24,2259.1983,2259.1983,2259.1995,,,,0,4,4,4,1,115,170,,,,,,,,
,,5d5496bdd84ebe0001f5fb20,65af557a304b05200d920853,2024-01-22_23h15.22.776,bars,2023.2.3,Win32,59.88023952,657b66ea316d21385b68909f,,,,,,,,,,,2259.1998,2260.1989,,,2260.6986,2260.9482,,119,119,,,,,,,,,,,,,,,,bars/016.png,bars/mask005.png,,,,,,,,,,,,0,2,,,,,,,10,5,10,6,,,,,,,,,,,2260.1989,2260.6985,2260.9482,2264.148,space,3.1835,,2264.148,79,46,2265.1483,2265.1484,2265.1609,,,,0,5,5,5,1,40,165,,,,,,,,
,,5d5496bdd84ebe0001f5fb20,65af557a304b05200d920853,2024-01-22_23h15.22.776,bars,2023.2.3,Win32,59.88023952,657b66ea316d21385b68909f,,,,,,,,,,,2265.1611,2266.164,,,2266.6641,2266.9139,,15,195,,,,,,,,,,,,,,,,bars/003.png,bars/mask002.png,,,,,,,,,,,,7,1,,,,,,,10,7,10,7,,,,,,,,,,,2266.1641,2266.664,2266.9139,2268.997,space,2.0759,,2268.997,10,55,2269.9968,2269.9968,2270.0107,,,,0,6,6,6,1,25,140,,,,,,,,
,,5d5496bdd84ebe0001f5fb20,65af557a304b05200d920853,2024-01-22_23h15.22.776,bars,2023.2.3,Win32,59.88023952,657b66ea316d21385b68909f,,,,,,,,,,,2270.011,2271.0134,,,2271.5133,2271.7634,,146,-34,,,,,,,,,,,,,,,,bars/011.png,bars/mask005.png,,,,,,,,,,,,5,1,,,,,,,10,5,9,7,,,,,,,,,,,2271.0134,2271.5133,2271.7635,2274.7965,space,3.0045,,2274.7966,14,61,2275.7962,2275.7963,2275.8092,,,,0,7,7,7,1,160,85,,,,,,,,
,,5d5496bdd84ebe0001f5fb20,65af557a304b05200d920853,2024-01-22_23h15.22.776,bars,2023.2.3,Win32,59.88023952,657b66ea316d21385b68909f,,,,,,,,,,,2275.8094,2276.8125,,,2277.3126,2277.5629,,44,44,,,,,,,,,,,,,,,,bars/023.png,bars/mask009.png,,,,,,,,,,,,2,1,,,,,,,8,3,9,3,,,,,,,,,,,2276.8126,2277.3125,2277.563,2279.8628,space,2.2739,,2279.8629,24,71,2280.862,2280.8621,2280.8749,,,,0,8,8,8,1,20,115,,,,,,,,
,,5d5496bdd84ebe0001f5fb20,65af557a304b05200d920853,2024-01-22_23h15.22.776,bars,2023.2.3,Win32,59.88023952,657b66ea316d21385b68909f,,,,,,,,,,,2280.8752,2281.8785,,,2282.3785,2282.6295,,97,97,,,,,,,,,,,,,,,,bars/022.png,bars/mask000.png,,,,,,,,,,,,7,1,,,,,,,6,1,7,0,,,,,,,,,,,2281.8786,2282.3784,2282.6296,2284.3451,space,1.6844,,2284.3452,2,77,2285.3448,2285.3448,2285.346,,,,0,9,9,9,1,95,20,,,,,,,,
,,5d5496bdd84ebe0001f5fb20,65af557a304b05200d920853,2024-01-22_23h15.22.776,bars,2023.2.3,Win32,59.88023952,657b66ea316d21385b68909f,,,,,,,,,,,2285.3463,2286.3445,,,2286.8447,2287.0953,,37,37,,,,,,,,,,,,,,,,bars/006.png,bars/mask002.png,,,,,,,,,,,,5,1,,,,,,,4,3,5,4,,,,,,,,,,,2286.3446,2286.8446,2287.0954,2288.8955,space,1.7819,,2288.8956,2,63,2289.894,2289.8941,2289.907,,,,0,10,10,10,1,35,100,,,,,,,,
,,5d5496bdd84ebe0001f5fb20,65af557a304b05200d920853,2024-01-22_23h15.22.776,bars,2023.2.3,Win32,59.88023952,657b66ea316d21385b68909f,,,,,,,,,,,2289.9072,2290.8947,,,2291.3939,2291.6446,,108,108,,,,,,,,,,,,,,,,bars/031.png,bars/mask001.png,,,,,,,,,,,,3,1,,,,,,,6,1,5,0,,,,,,,,,,,2290.8947,2291.3939,2291.6446,2294.7938,space,3.1327,,2294.7939,12,73,2295.794,2295.7941,2295.8061,,,,0,11,11,11,1,120,35,,,,,,,,
,,5d5496bdd84ebe0001f5fb20,65af557a304b05200d920853,2024-01-22_23h15.22.776,bars,2023.2.3,Win32,59.88023952,657b66ea316d21385b68909f,,,,,,,,,,,2295.8064,2296.8097,,,2297.3096,2297.5597,,42,42,,,,,,,,,,,,,,,,bars/006.png,bars/mask000.png,,,,,,,,,,,,7,1,,,,,,,8,0,9,1,,,,,,,,,,,2296.8098,2297.3096,2297.5597,2301.0927,space,3.5226,,2301.0928,7,58,2302.0927,2302.0928,2302.1049,,,,0,12,12,12,1,35,100,,,,,,,,
