init_variables.started,init_variables.stopped,participant,session,date,expName,psychopyVersion,OS,frameRate,study_id,instruction_exp.started,instruction_exp.stopped,key_resp_8.keys,key_resp_8.rt,key_resp_8.duration,instruction_single.started,instruction_single.stopped,key_resp_2.keys,key_resp_2.rt,key_resp_2.duration,interval.started,interval.stopped,cue_single.started,cue_single.stopped,mask.started,mask.stopped,ori_response_single.started,res_ori,res,ori_response_single.stopped,key_resp_single.keys,key_resp_single.rt,key_resp_single.duration,disp_single.started,disp_single.stopped,key_resp.keys,key_resp.rt,key_resp.duration,single.thisRepN,single.thisTrialN,single.thisN,single.thisIndex,single.ran,ori,path,mask_path,instruction_bandit.started,instruction_bandit.stopped,key_resp_6.keys,key_resp_6.rt,key_resp_6.duration,cue_bandit.started,cue_bandit.stopped,bandit_res.keys,bandit_res.rt,bandit_res.duration,outcome_bandit.started,rew,action,outcome_bandit.stopped,bandit.thisRepN,bandit.thisTrialN,bandit.thisN,bandit.thisIndex,bandit.ran,actual_rew1,actual_rew2,rew1,rew2,instruction_task.started,instruction_task.stopped,key_resp_7.keys,key_resp_7.rt,key_resp_7.duration,wait_ready.started,wait_ready.stopped,key_resp_3.keys,key_resp_3.rt,key_resp_3.duration,cue.started,cue.stopped,ori_response.started,ori_response.stopped,key_resp_5.keys,key_resp_5.rt,key_resp_5.duration,outcome.started,diff1,diff2,outcome.stopped,disp_outcome_practice.started,disp_outcome_practice.stopped,key_resp_4.keys,key_resp_4.rt,key_resp_4.duration,trials.thisRepN,trials.thisTrialN,trials.thisN,trials.thisIndex,trials.ran,ori1,ori2,break_blk.started,break_blk.stopped,block.thisRepN,block.thisTrialN,block.thisN,block.thisIndex,block.ran,condition_file
0.0003,0.0005,5ea1660f4d0db50008ff86ed,65af5633f1fd1b2813087bdd,2024-01-23_08h10.22.157,bars,2023.2.3,Win32,60.24096386,657b66ea316d21385b68909f,,,,,,,,,,,,,,,,,,,,,,,,,,,,,,,,,,,,,,,,,,,,,,,,,,,,,,,,,,,,,,,,,,,,,,,,,,,,,,,,,,,,,,,,,,,,,,,,,,,,
,,5ea1660f4d0db50008ff86ed,65af5633f1fd1b2813087bdd,2024-01-23_08h10.22.157,bars,2023.2.3,Win32,60.24096386,657b66ea316d21385b68909f,0.0006,2.3628,y,2.3467,,,,,,,,,,,,,,,,,,,,,,,,,,,,,,,,,,,,,,,,,,,,,,,,,,,,,,,,,,,,,,,,,,,,,,,,,,,,,,,,,,,,,,,,,,,,,,,,
,,5ea1660f4d0db50008ff86ed,65af5633f1fd1b2813087bdd,2024-01-23_08h10.22.157,bars,2023.2.3,Win32,60.24096386,657b66ea316d21385b68909f,,,,,,2.3629,30.4297,space,28.047,,,,,,,,,,,,,,,,,,,,,,,,,,,,,,,,,,,,,,,,,,,,,,,,,,,,,,,,,,,,,,,,,,,,,,,,,,,,,,,,,,,,,,,,,,,
,,5ea1660f4d0db50008ff86ed,65af5633f1fd1b2813087bdd,2024-01-23_08h10.22.157,bars,2023.2.3,Win32,60.24096386,657b66ea316d21385b68909f,,,,,,,,,,,30.4336,31.4369,31.4369,31.9372,31.9373,32.1867,32.1868,7,7,43.4707,space,11.2589,,43.4709,50.0298,space,6.5401,,0,0,0,6,1,175,bars/single006.png,bars/mask005.png,,,,,,,,,,,,,,,,,,,,,,,,,,,,,,,,,,,,,,,,,,,,,,,,,,,,,,,,,,,,,,,,
,,5ea1660f4d0db50008ff86ed,65af5633f1fd1b2813087bdd,2024-01-23_08h10.22.157,bars,2023.2.3,Win32,60.24096386,657b66ea316d21385b68909f,,,,,,,,,,,50.0302,51.0296,51.0297,51.5202,51.5203,51.7704,51.7704,176,-4,57.8465,space,6.0563,,57.8466,63.1376,space,5.267,,0,1,1,0,1,150,bars/single000.png,bars/mask006.png,,,,,,,,,,,,,,,,,,,,,,,,,,,,,,,,,,,,,,,,,,,,,,,,,,,,,,,,,,,,,,,,
,,5ea1660f4d0db50008ff86ed,65af5633f1fd1b2813087bdd,2024-01-23_08h10.22.157,bars,2023.2.3,Win32,60.24096386,657b66ea316d21385b68909f,,,,,,,,,,,63.1449,64.1378,64.1378,64.637,64.637,64.8799,64.8799,66,66,72.471,space,7.567,,72.471,79.2969,space,6.8004,,0,2,2,5,1,55,bars/single005.png,bars/mask008.png,,,,,,,,,,,,,,,,,,,,,,,,,,,,,,,,,,,,,,,,,,,,,,,,,,,,,,,,,,,,,,,,
,,5ea1660f4d0db50008ff86ed,65af5633f1fd1b2813087bdd,2024-01-23_08h10.22.157,bars,2023.2.3,Win32,60.24096386,657b66ea316d21385b68909f,,,,,,,,,,,79.3047,80.2968,80.2968,80.7872,80.7873,81.0301,81.0301,130,130,88.3546,space,7.3005,,88.3546,91.9865,space,3.6145,,0,3,3,2,1,145,bars/single002.png,bars/mask003.png,,,,,,,,,,,,,,,,,,,,,,,,,,,,,,,,,,,,,,,,,,,,,,,,,,,,,,,,,,,,,,,,
,,5ea1660f4d0db50008ff86ed,65af5633f1fd1b2813087bdd,2024-01-23_08h10.22.157,bars,2023.2.3,Win32,60.24096386,657b66ea316d21385b68909f,,,,,,,,,,,91.9937,92.9969,92.9969,93.504,93.504,93.7469,93.747,164,164,101.0212,space,7.2532,,101.0212,107.5882,space,6.5503,,0,4,4,8,1,160,bars/single008.png,bars/mask004.png,,,,,,,,,,,,,,,,,,,,,,,,,,,,,,,,,,,,,,,,,,,,,,,,,,,,,,,,,,,,,,,,
,,5ea1660f4d0db50008ff86ed,65af5633f1fd1b2813087bdd,2024-01-23_08h10.22.157,bars,2023.2.3,Win32,60.24096386,657b66ea316d21385b68909f,,,,,,,,,,,107.596,108.5875,108.5875,109.0877,109.0877,109.3305,109.3305,79,79,116.2715,space,6.9169,,116.2716,120.3218,space,4.0337,,0,5,5,4,1,95,bars/single004.png,bars/mask004.png,,,,,,,,,,,,,,,,,,,,,,,,,,,,,,,,,,,,,,,,,,,,,,,,,,,,,,,,,,,,,,,,
,,5ea1660f4d0db50008ff86ed,65af5633f1fd1b2813087bdd,2024-01-23_08h10.22.157,bars,2023.2.3,Win32,60.24096386,657b66ea316d21385b68909f,,,,,,,,,,,120.329,121.3209,121.3209,121.814,121.8141,122.0545,122.0546,34,34,130.6385,space,8.5664,,130.6385,141.2555,space,10.5996,,0,6,6,7,1,45,bars/single007.png,bars/mask009.png,,,,,,,,,,,,,,,,,,,,,,,,,,,,,,,,,,,,,,,,,,,,,,,,,,,,,,,,,,,,,,,,
,,5ea1660f4d0db50008ff86ed,65af5633f1fd1b2813087bdd,2024-01-23_08h10.22.157,bars,2023.2.3,Win32,60.24096386,657b66ea316d21385b68909f,,,,,,,,,,,141.2634,142.2645,142.2645,142.755,142.7551,143.0049,143.0049,179,179,161.0889,space,18.0673,,161.0889,167.7559,space,6.6503,,0,7,7,1,1,20,bars/single001.png,bars/mask006.png,,,,,,,,,,,,,,,,,,,,,,,,,,,,,,,,,,,,,,,,,,,,,,,,,,,,,,,,,,,,,,,,
,,5ea1660f4d0db50008ff86ed,65af5633f1fd1b2813087bdd,2024-01-23_08h10.22.157,bars,2023.2.3,Win32,60.24096386,657b66ea316d21385b68909f,,,,,,,,,,,167.7631,168.7551,168.7551,169.2482,169.2482,169.5054,169.5054,13,193,175.006,space,5.4829,,175.006,177.0726,space,2.0492,,0,8,8,3,1,20,bars/single003.png,bars/mask005.png,,,,,,,,,,,,,,,,,,,,,,,,,,,,,,,,,,,,,,,,,,,,,,,,,,,,,,,,,,,,,,,,
,,5ea1660f4d0db50008ff86ed,65af5633f1fd1b2813087bdd,2024-01-23_08h10.22.157,bars,2023.2.3,Win32,60.24096386,657b66ea316d21385b68909f,,,,,,,,,,,177.0728,178.0718,178.0719,178.5649,178.5649,178.8055,178.8055,41,41,186.7891,space,7.967,,186.7891,189.76,space,2.9541,,0,9,9,9,1,20,bars/single009.png,bars/mask006.png,,,,,,,,,,,,,,,,,,,,,,,,,,,,,,,,,,,,,,,,,,,,,,,,,,,,,,,,,,,,,,,,
,,5ea1660f4d0db50008ff86ed,65af5633f1fd1b2813087bdd,2024-01-23_08h10.22.157,bars,2023.2.3,Win32,60.24096386,657b66ea316d21385b68909f,,,,,,,,,,,,,,,,,,,,,,,,,,,,,,,,,,,,,189.7683,198.9901,space,9.2122,,,,,,,,,,,,,,,,,,,,,,,,,,,,,,,,,,,,,,,,,,,,,,,,,,,,,,,,,,,,
,,5ea1660f4d0db50008ff86ed,65af5633f1fd1b2813087bdd,2024-01-23_08h10.22.157,bars,2023.2.3,Win32,60.24096386,657b66ea316d21385b68909f,,,,,,,,,,,,,,,,,,,,,,,,,,,,,,,,,,,,,,,,,,198.9989,200.1493,left,1.139,,200.1497,9,1,201.1399,0,0,0,0,1,9,1,9,2,,,,,,,,,,,,,,,,,,,,,,,,,,,,,,,,,,,,,,,,,
,,5ea1660f4d0db50008ff86ed,65af5633f1fd1b2813087bdd,2024-01-23_08h10.22.157,bars,2023.2.3,Win32,60.24096386,657b66ea316d21385b68909f,,,,,,,,,,,,,,,,,,,,,,,,,,,,,,,,,,,,,,,,,,201.1403,203.2227,left,2.0671,,203.2227,10,1,204.2155,0,1,1,1,1,10,0,10,1,,,,,,,,,,,,,,,,,,,,,,,,,,,,,,,,,,,,,,,,,
,,5ea1660f4d0db50008ff86ed,65af5633f1fd1b2813087bdd,2024-01-23_08h10.22.157,bars,2023.2.3,Win32,60.24096386,657b66ea316d21385b68909f,,,,,,,,,,,,,,,,,,,,,,,,,,,,,,,,,,,,,,,,,,204.216,205.7322,right,1.4847,,205.7322,2,2,206.732,0,2,2,2,1,10,2,10,2,,,,,,,,,,,,,,,,,,,,,,,,,,,,,,,,,,,,,,,,,
,,5ea1660f4d0db50008ff86ed,65af5633f1fd1b2813087bdd,2024-01-23_08h10.22.157,bars,2023.2.3,Win32,60.24096386,657b66ea316d21385b68909f,,,,,,,,,,,,,,,,,,,,,,,,,,,,,,,,,,,,,,,,,,206.7323,207.6394,right,0.8837,,207.6395,3,2,208.6321,0,3,3,3,1,8,4,7,3,,,,,,,,,,,,,,,,,,,,,,,,,,,,,,,,,,,,,,,,,
,,5ea1660f4d0db50008ff86ed,65af5633f1fd1b2813087bdd,2024-01-23_08h10.22.157,bars,2023.2.3,Win32,60.24096386,657b66ea316d21385b68909f,,,,,,,,,,,,,,,,,,,,,,,,,,,,,,,,,,,,,,,,,,208.6324,209.3908,left,0.735,,209.3909,5,1,210.3891,0,4,4,4,1,6,2,5,1,,,,,,,,,,,,,,,,,,,,,,,,,,,,,,,,,,,,,,,,,
,,5ea1660f4d0db50008ff86ed,65af5633f1fd1b2813087bdd,2024-01-23_08h10.22.157,bars,2023.2.3,Win32,60.24096386,657b66ea316d21385b68909f,,,,,,,,,,,,,,,,,,,,,,,,,,,,,,,,,,,,,,,,,,210.3894,211.2655,left,0.8514,,211.2656,4,1,212.2654,0,5,5,5,1,4,4,4,4,,,,,,,,,,,,,,,,,,,,,,,,,,,,,,,,,,,,,,,,,
,,5ea1660f4d0db50008ff86ed,65af5633f1fd1b2813087bdd,2024-01-23_08h10.22.157,bars,2023.2.3,Win32,60.24096386,657b66ea316d21385b68909f,,,,,,,,,,,,,,,,,,,,,,,,,,,,,,,,,,,,,,,,,,212.2658,213.1157,right,0.8256,,213.1157,2,2,214.1157,0,6,6,6,1,2,2,1,2,,,,,,,,,,,,,,,,,,,,,,,,,,,,,,,,,,,,,,,,,
,,5ea1660f4d0db50008ff86ed,65af5633f1fd1b2813087bdd,2024-01-23_08h10.22.157,bars,2023.2.3,Win32,60.24096386,657b66ea316d21385b68909f,,,,,,,,,,,,,,,,,,,,,,,,,,,,,,,,,,,,,,,,,,214.1163,214.9241,left,0.7848,,214.9241,0,1,215.9224,0,7,7,7,1,0,0,0,1,,,,,,,,,,,,,,,,,,,,,,,,,,,,,,,,,,,,,,,,,
,,5ea1660f4d0db50008ff86ed,65af5633f1fd1b2813087bdd,2024-01-23_08h10.22.157,bars,2023.2.3,Win32,60.24096386,657b66ea316d21385b68909f,,,,,,,,,,,,,,,,,,,,,,,,,,,,,,,,,,,,,,,,,,215.9226,217.0731,right,1.1341,,217.0732,0,2,218.0712,0,8,8,8,1,0,2,1,0,,,,,,,,,,,,,,,,,,,,,,,,,,,,,,,,,,,,,,,,,
,,5ea1660f4d0db50008ff86ed,65af5633f1fd1b2813087bdd,2024-01-23_08h10.22.157,bars,2023.2.3,Win32,60.24096386,657b66ea316d21385b68909f,,,,,,,,,,,,,,,,,,,,,,,,,,,,,,,,,,,,,,,,,,218.0714,219.0491,right,0.9556,,219.0492,3,2,220.0392,0,9,9,9,1,2,4,2,3,,,,,,,,,,,,,,,,,,,,,,,,,,,,,,,,,,,,,,,,,
,,5ea1660f4d0db50008ff86ed,65af5633f1fd1b2813087bdd,2024-01-23_08h10.22.157,bars,2023.2.3,Win32,60.24096386,657b66ea316d21385b68909f,,,,,,,,,,,,,,,,,,,,,,,,,,,,,,,,,,,,,,,,,,220.0395,220.8565,left,0.8006,,220.8565,0,1,221.8533,0,10,10,10,1,0,2,0,3,,,,,,,,,,,,,,,,,,,,,,,,,,,,,,,,,,,,,,,,,
,,5ea1660f4d0db50008ff86ed,65af5633f1fd1b2813087bdd,2024-01-23_08h10.22.157,bars,2023.2.3,Win32,60.24096386,657b66ea316d21385b68909f,,,,,,,,,,,,,,,,,,,,,,,,,,,,,,,,,,,,,,,,,,221.8536,223.0993,left,1.2182,,223.0993,0,1,224.0892,0,11,11,11,1,0,4,0,3,,,,,,,,,,,,,,,,,,,,,,,,,,,,,,,,,,,,,,,,,
,,5ea1660f4d0db50008ff86ed,65af5633f1fd1b2813087bdd,2024-01-23_08h10.22.157,bars,2023.2.3,Win32,60.24096386,657b66ea316d21385b68909f,,,,,,,,,,,,,,,,,,,,,,,,,,,,,,,,,,,,,,,,,,224.0895,224.7547,right,0.6488,,224.7547,6,2,225.7489,0,12,12,12,1,2,6,1,6,,,,,,,,,,,,,,,,,,,,,,,,,,,,,,,,,,,,,,,,,
,,5ea1660f4d0db50008ff86ed,65af5633f1fd1b2813087bdd,2024-01-23_08h10.22.157,bars,2023.2.3,Win32,60.24096386,657b66ea316d21385b68909f,,,,,,,,,,,,,,,,,,,,,,,,,,,,,,,,,,,,,,,,,,225.7492,226.5826,right,0.8062,,226.5826,3,2,227.5727,0,13,13,13,1,0,4,1,3,,,,,,,,,,,,,,,,,,,,,,,,,,,,,,,,,,,,,,,,,
,,5ea1660f4d0db50008ff86ed,65af5633f1fd1b2813087bdd,2024-01-23_08h10.22.157,bars,2023.2.3,Win32,60.24096386,657b66ea316d21385b68909f,,,,,,,,,,,,,,,,,,,,,,,,,,,,,,,,,,,,,,,,,,227.5731,228.2068,left,0.6173,,228.2068,2,1,229.206,0,14,14,14,1,2,6,2,7,,,,,,,,,,,,,,,,,,,,,,,,,,,,,,,,,,,,,,,,,
,,5ea1660f4d0db50008ff86ed,65af5633f1fd1b2813087bdd,2024-01-23_08h10.22.157,bars,2023.2.3,Win32,60.24096386,657b66ea316d21385b68909f,,,,,,,,,,,,,,,,,,,,,,,,,,,,,,,,,,,,,,,,,,229.2062,230.0158,left,0.7881,,230.0158,3,1,231.006,0,15,15,15,1,4,8,3,9,,,,,,,,,,,,,,,,,,,,,,,,,,,,,,,,,,,,,,,,,
,,5ea1660f4d0db50008ff86ed,65af5633f1fd1b2813087bdd,2024-01-23_08h10.22.157,bars,2023.2.3,Win32,60.24096386,657b66ea316d21385b68909f,,,,,,,,,,,,,,,,,,,,,,,,,,,,,,,,,,,,,,,,,,231.0063,231.666,left,0.6352,,231.666,7,1,232.6658,0,16,16,16,1,6,6,7,7,,,,,,,,,,,,,,,,,,,,,,,,,,,,,,,,,,,,,,,,,
,,5ea1660f4d0db50008ff86ed,65af5633f1fd1b2813087bdd,2024-01-23_08h10.22.157,bars,2023.2.3,Win32,60.24096386,657b66ea316d21385b68909f,,,,,,,,,,,,,,,,,,,,,,,,,,,,,,,,,,,,,,,,,,232.6661,233.5661,left,0.8673,,233.5661,9,1,234.5728,0,17,17,17,1,8,4,9,5,,,,,,,,,,,,,,,,,,,,,,,,,,,,,,,,,,,,,,,,,
,,5ea1660f4d0db50008ff86ed,65af5633f1fd1b2813087bdd,2024-01-23_08h10.22.157,bars,2023.2.3,Win32,60.24096386,657b66ea316d21385b68909f,,,,,,,,,,,,,,,,,,,,,,,,,,,,,,,,,,,,,,,,,,234.573,235.5232,left,0.9339,,235.5233,5,1,236.5157,0,18,18,18,1,6,2,5,1,,,,,,,,,,,,,,,,,,,,,,,,,,,,,,,,,,,,,,,,,
,,5ea1660f4d0db50008ff86ed,65af5633f1fd1b2813087bdd,2024-01-23_08h10.22.157,bars,2023.2.3,Win32,60.24096386,657b66ea316d21385b68909f,,,,,,,,,,,,,,,,,,,,,,,,,,,,,,,,,,,,,,,,,,236.5161,237.0901,right,0.5505,,237.0901,0,2,238.0894,0,19,19,19,1,8,0,7,0,,,,,,,,,,,,,,,,,,,,,,,,,,,,,,,,,,,,,,,,,
,,5ea1660f4d0db50008ff86ed,65af5633f1fd1b2813087bdd,2024-01-23_08h10.22.157,bars,2023.2.3,Win32,60.24096386,657b66ea316d21385b68909f,,,,,,,,,,,,,,,,,,,,,,,,,,,,,,,,,,,,,,,,,,,,,,,,,,,,,,,,,,,,238.0897,248.9075,space,10.8,0.0003,,,,,,,,,,,,,,,,,,,,,,,,,,,,,,,,,,,,
,,5ea1660f4d0db50008ff86ed,65af5633f1fd1b2813087bdd,2024-01-23_08h10.22.157,bars,2023.2.3,Win32,60.24096386,657b66ea316d21385b68909f,,,,,,,,,,,250.227,251.2161,,,251.7067,251.9565,,80,80,,,,,,,,,,,,,,,,bars/047.png,bars/mask000.png,,,,,,,,,,,,4,2,,,,,,,5,5,5,6,,,,,,248.9172,250.2238,space,1.3,,251.2162,251.7067,251.9567,254.7664,space,2.7842,,254.7665,65,10,255.7662,255.7664,261.8501,space,6.0509,,0,0,0,0,1,15,70,,,,,,,,
,,5ea1660f4d0db50008ff86ed,65af5633f1fd1b2813087bdd,2024-01-23_08h10.22.157,bars,2023.2.3,Win32,60.24096386,657b66ea316d21385b68909f,,,,,,,,,,,261.8573,262.8496,,,263.3401,263.5829,,155,155,,,,,,,,,,,,,,,,bars/008.png,bars/mask006.png,,,,,,,,,,,,0,2,,,,,,,3,3,1,3,,,,,,,,,,,262.8496,263.3401,263.583,273.524,space,9.9172,,273.5241,45,25,274.5164,274.5164,278.6241,space,4.0835,,0,1,1,1,1,110,0,,,,,,,,
,,5ea1660f4d0db50008ff86ed,65af5633f1fd1b2813087bdd,2024-01-23_08h10.22.157,bars,2023.2.3,Win32,60.24096386,657b66ea316d21385b68909f,,,,,,,,,,,278.6315,279.6331,,,280.1402,280.3903,,153,153,,,,,,,,,,,,,,,,bars/034.png,bars/mask007.png,,,,,,,,,,,,0,1,,,,,,,1,5,2,7,,,,,,,,,,,279.6331,280.1402,280.3904,290.6909,space,10.2838,,290.6909,28,88,291.6903,291.6903,298.1502,space,6.4392,,0,2,2,2,1,125,65,,,,,,,,
,,5ea1660f4d0db50008ff86ed,65af5633f1fd1b2813087bdd,2024-01-23_08h10.22.157,bars,2023.2.3,Win32,60.24096386,657b66ea316d21385b68909f,,,,,,,,,,,298.158,299.1505,,,299.6405,299.8906,,25,25,,,,,,,,,,,,,,,,bars/000.png,bars/mask008.png,,,,,,,,,,,,0,1,,,,,,,0,7,0,9,,,,,,,,,,,299.1505,299.6405,299.8906,309.1744,space,9.2671,,309.1745,15,60,310.167,310.167,313.2005,space,3.0034,,0,3,3,3,1,40,145,,,,,,,,
,,5ea1660f4d0db50008ff86ed,65af5633f1fd1b2813087bdd,2024-01-23_08h10.22.157,bars,2023.2.3,Win32,60.24096386,657b66ea316d21385b68909f,,,,,,,,,,,313.2009,314.2003,,,314.691,314.9408,,89,89,,,,,,,,,,,,,,,,bars/041.png,bars/mask005.png,,,,,,,,,,,,3,2,,,,,,,0,5,2,4,,,,,,,,,,,314.2003,314.691,314.9408,318.4912,space,3.5327,,318.4912,69,4,319.4837,319.4837,322.7081,space,3.2002,,0,4,4,4,1,20,85,,,,,,,,
,,5ea1660f4d0db50008ff86ed,65af5633f1fd1b2813087bdd,2024-01-23_08h10.22.157,bars,2023.2.3,Win32,60.24096386,657b66ea316d21385b68909f,,,,,,,,,,,322.7156,323.7242,,,324.2171,324.4576,,45,45,,,,,,,,,,,,,,,,bars/022.png,bars/mask006.png,,,,,,,,,,,,1,2,,,,,,,2,7,3,8,,,,,,,,,,,323.7242,324.2171,324.4576,328.8916,space,4.4171,,328.8916,50,25,329.8839,329.8839,333.2585,space,3.3505,,0,5,5,5,1,95,20,,,,,,,,
,,5ea1660f4d0db50008ff86ed,65af5633f1fd1b2813087bdd,2024-01-23_08h10.22.157,bars,2023.2.3,Win32,60.24096386,657b66ea316d21385b68909f,,,,,,,,,,,333.2657,334.2549,,,334.7507,335.0008,,51,51,,,,,,,,,,,,,,,,bars/041.png,bars/mask005.png,,,,,,,,,,,,0,1,,,,,,,4,9,4,10,,,,,,,,,,,334.2549,334.7507,335.0008,338.4416,space,3.417,,338.4416,31,34,339.4418,339.4419,344.142,space,4.6839,,0,6,6,6,1,20,85,,,,,,,,
,,5ea1660f4d0db50008ff86ed,65af5633f1fd1b2813087bdd,2024-01-23_08h10.22.157,bars,2023.2.3,Win32,60.24096386,657b66ea316d21385b68909f,,,,,,,,,,,344.1494,345.1508,,,345.6508,345.9007,,48,48,,,,,,,,,,,,,,,,bars/043.png,bars/mask003.png,,,,,,,,,,,,0,1,,,,,,,2,10,1,9,,,,,,,,,,,345.1508,345.6508,345.9008,349.3417,space,3.4169,,349.3417,18,82,350.3411,350.3412,354.2429,space,3.8847,,0,7,7,7,1,30,130,,,,,,,,
,,5ea1660f4d0db50008ff86ed,65af5633f1fd1b2813087bdd,2024-01-23_08h10.22.157,bars,2023.2.3,Win32,60.24096386,657b66ea316d21385b68909f,,,,,,,,,,,354.2502,355.2412,,,355.7343,355.9748,,27,27,,,,,,,,,,,,,,,,bars/013.png,bars/mask002.png,,,,,,,,,,,,3,2,,,,,,,4,8,2,8,,,,,,,,,,,355.2412,355.7343,355.9749,358.3846,space,2.3847,,358.3846,48,17,359.3757,359.3758,363.8589,space,4.4672,,0,8,8,8,1,75,10,,,,,,,,
,,5ea1660f4d0db50008ff86ed,65af5633f1fd1b2813087bdd,2024-01-23_08h10.22.157,bars,2023.2.3,Win32,60.24096386,657b66ea316d21385b68909f,,,,,,,,,,,363.8662,364.8747,,,365.3749,365.625,,122,302,,,,,,,,,,,,,,,,bars/045.png,bars/mask005.png,,,,,,,,,,,,2,1,,,,,,,6,6,7,7,,,,,,,,,,,364.8747,365.3748,365.625,371.4073,space,5.7656,,371.4073,22,68,372.4013,372.4013,374.8681,space,2.4411,,0,9,9,9,1,100,10,,,,,,,,
,,5ea1660f4d0db50008ff86ed,65af5633f1fd1b2813087bdd,2024-01-23_08h10.22.157,bars,2023.2.3,Win32,60.24096386,657b66ea316d21385b68909f,,,,,,,,,,,374.8755,375.8748,,,376.3751,376.618,,159,-21,,,,,,,,,,,,,,,,bars/005.png,bars/mask000.png,,,,,,,,,,,,2,2,,,,,,,4,4,3,6,,,,,,,,,,,375.8748,376.3751,376.618,380.8589,space,4.2169,,380.8589,31,19,381.8582,381.8584,386.2428,space,4.3673,,0,10,10,10,1,10,140,,,,,,,,
,,5ea1660f4d0db50008ff86ed,65af5633f1fd1b2813087bdd,2024-01-23_08h10.22.157,bars,2023.2.3,Win32,60.24096386,657b66ea316d21385b68909f,,,,,,,,,,,386.2499,387.239,,,387.7419,387.9847,,25,25,,,,,,,,,,,,,,,,bars/019.png,bars/mask004.png,,,,,,,,,,,,2,1,,,,,,,6,6,6,8,,,,,,,,,,,387.239,387.7419,387.9849,392.2599,space,4.2513,,392.2599,20,80,393.2515,393.2516,396.4926,space,3.2169,,0,11,11,11,1,45,105,,,,,,,,
,,5ea1660f4d0db50008ff86ed,65af5633f1fd1b2813087bdd,2024-01-23_08h10.22.157,bars,2023.2.3,Win32,60.24096386,657b66ea316d21385b68909f,,,,,,,,,,,396.4928,397.4849,,,397.9754,398.2255,,27,27,,,,,,,,,,,,,,,,bars/022.png,bars/mask006.png,,,,,,,,,,,,5,2,,,,,,,8,8,8,7,,,,,,,,,,,397.4849,397.9754,398.2255,403.1851,space,4.9364,,403.1851,68,7,404.1752,404.1752,405.635,space,1.4409,,0,12,12,12,1,95,20,,,,,,,,
,,5ea1660f4d0db50008ff86ed,65af5633f1fd1b2813087bdd,2024-01-23_08h10.22.157,bars,2023.2.3,Win32,60.24096386,657b66ea316d21385b68909f,,,,,,,,,,,405.6354,406.6253,,,407.1255,407.3796,,14,14,,,,,,,,,,,,,,,,bars/020.png,bars/mask000.png,,,,,,,,,,,,1,2,,,,,,,10,6,10,3,,,,,,,,,,,406.6254,407.1255,407.3796,412.8427,space,5.4505,,412.8427,79,24,413.8352,413.8352,417.1431,space,3.2837,,0,13,13,13,1,115,170,,,,,,,,
,,5ea1660f4d0db50008ff86ed,65af5633f1fd1b2813087bdd,2024-01-23_08h10.22.157,bars,2023.2.3,Win32,60.24096386,657b66ea316d21385b68909f,,,,,,,,,,,417.1504,418.1432,,,418.6354,418.8925,,171,-9,,,,,,,,,,,,,,,,bars/045.png,bars/mask003.png,,,,,,,,,,,,2,2,,,,,,,10,4,8,5,,,,,,,,,,,418.1432,418.6353,418.8925,427.5429,space,8.6328,,427.5429,71,19,428.5353,428.5353,434.3097,space,5.7504,,0,14,14,14,1,100,10,,,,,,,,
,,5ea1660f4d0db50008ff86ed,65af5633f1fd1b2813087bdd,2024-01-23_08h10.22.157,bars,2023.2.3,Win32,60.24096386,657b66ea316d21385b68909f,,,,,,,,,,,434.3173,435.3101,,,435.8093,436.0579,,3,183,,,,,,,,,,,,,,,,bars/048.png,bars/mask002.png,,,,,,,,,,,,4,2,,,,,,,10,6,10,5,,,,,,,,,,,435.3102,435.8093,436.0579,439.8429,space,3.7659,,439.8429,47,8,440.8426,440.8426,443.6357,space,2.7672,,0,15,15,15,1,50,175,,,,,,,,
,,5ea1660f4d0db50008ff86ed,65af5633f1fd1b2813087bdd,2024-01-23_08h10.22.157,bars,2023.2.3,Win32,60.24096386,657b66ea316d21385b68909f,,,,,,,,,,,443.6361,444.6356,,,445.1356,445.3761,,55,55,,,,,,,,,,,,,,,,bars/025.png,bars/mask005.png,,,,,,,,,,,,5,2,,,,,,,10,8,10,9,,,,,,,,,,,444.6356,445.1356,445.3761,449.5767,space,4.1839,,449.5767,50,15,450.5761,450.5761,452.8102,space,2.216,,0,16,16,16,1,105,40,,,,,,,,
,,5ea1660f4d0db50008ff86ed,65af5633f1fd1b2813087bdd,2024-01-23_08h10.22.157,bars,2023.2.3,Win32,60.24096386,657b66ea316d21385b68909f,,,,,,,,,,,452.8175,453.8092,,,454.3096,454.5524,,25,25,,,,,,,,,,,,,,,,bars/020.png,bars/mask000.png,,,,,,,,,,,,0,2,,,,,,,8,10,8,8,,,,,,,,,,,453.8092,454.3096,454.5524,460.2101,space,5.6338,,460.2101,90,35,461.2094,461.2094,462.5769,space,1.3503,,0,17,17,17,1,115,170,,,,,,,,
,,5ea1660f4d0db50008ff86ed,65af5633f1fd1b2813087bdd,2024-01-23_08h10.22.157,bars,2023.2.3,Win32,60.24096386,657b66ea316d21385b68909f,,,,,,,,,,,462.5772,463.5762,,,464.0692,464.3192,,108,108,,,,,,,,,,,,,,,,bars/025.png,bars/mask000.png,,,,,,,,,,,,4,1,,,,,,,6,8,4,9,,,,,,,,,,,463.5763,464.0692,464.3192,473.8102,space,9.4672,,473.8102,3,68,474.8027,474.8027,477.2271,space,2.4,,0,18,18,18,1,105,40,,,,,,,,
,,5ea1660f4d0db50008ff86ed,65af5633f1fd1b2813087bdd,2024-01-23_08h10.22.157,bars,2023.2.3,Win32,60.24096386,657b66ea316d21385b68909f,,,,,,,,,,,477.2344,478.2361,,,478.7361,478.9766,,69,69,,,,,,,,,,,,,,,,bars/014.png,bars/mask008.png,,,,,,,,,,,,3,1,,,,,,,4,6,5,5,,,,,,,,,,,478.2361,478.736,478.9766,485.4937,space,6.5005,,485.4937,11,69,486.4862,486.4862,490.5774,space,4.067,,0,19,19,19,1,80,0,,,,,,,,
,,5ea1660f4d0db50008ff86ed,65af5633f1fd1b2813087bdd,2024-01-23_08h10.22.157,bars,2023.2.3,Win32,60.24096386,657b66ea316d21385b68909f,,,,,,,,,,,490.5851,491.5906,,,492.0862,492.3267,,127,-53,,,,,,,,,,,,,,,,bars/046.png,bars/mask004.png,,,,,,,,,,,,0,1,,,,,,,6,8,7,9,,,,,,,,,,,491.5906,492.0862,492.3267,501.5532,space,9.2029,,501.5532,28,42,502.5532,502.5532,504.311,space,1.7337,,0,20,20,20,1,155,85,,,,,,,,
,,5ea1660f4d0db50008ff86ed,65af5633f1fd1b2813087bdd,2024-01-23_08h10.22.157,bars,2023.2.3,Win32,60.24096386,657b66ea316d21385b68909f,,,,,,,,,,,504.3112,505.3102,,,505.8104,506.0532,,114,114,,,,,,,,,,,,,,,,bars/039.png,bars/mask006.png,,,,,,,,,,,,7,2,,,,,,,4,10,5,10,,,,,,,,,,,505.3102,505.8104,506.0532,511.8775,space,5.8162,,511.8776,61,9,512.87,512.87,514.4111,space,1.5168,,0,21,21,21,1,175,105,,,,,,,,
,,5ea1660f4d0db50008ff86ed,65af5633f1fd1b2813087bdd,2024-01-23_08h10.22.157,bars,2023.2.3,Win32,60.24096386,657b66ea316d21385b68909f,,,,,,,,,,,514.4114,515.4101,,,515.9034,516.1438,,116,-64,,,,,,,,,,,,,,,,bars/006.png,bars/mask000.png,,,,,,,,,,,,5,2,,,,,,,2,8,2,10,,,,,,,,,,,515.4103,515.9034,516.1438,522.6369,space,6.467,,522.6369,81,16,523.6367,523.6368,524.9947,space,1.3338,,0,22,22,22,1,35,100,,,,,,,,
,,5ea1660f4d0db50008ff86ed,65af5633f1fd1b2813087bdd,2024-01-23_08h10.22.157,bars,2023.2.3,Win32,60.24096386,657b66ea316d21385b68909f,,,,,,,,,,,524.9949,525.9868,,,526.4782,526.7275,,77,77,,,,,,,,,,,,,,,,bars/037.png,bars/mask002.png,,,,,,,,,,,,0,2,,,,,,,0,6,0,6,,,,,,,,,,,525.9868,526.4782,526.7275,535.9613,space,9.2172,,535.9614,73,28,536.9615,536.9615,538.3282,space,1.3505,,0,23,23,23,1,150,105,,,,,,,,
,,5ea1660f4d0db50008ff86ed,65af5633f1fd1b2813087bdd,2024-01-23_08h10.22.157,bars,2023.2.3,Win32,60.24096386,657b66ea316d21385b68909f,,,,,,,,,,,538.3284,539.3282,,,539.8275,540.0776,,105,105,,,,,,,,,,,,,,,,bars/032.png,bars/mask003.png,,,,,,,,,,,,1,1,,,,,,,2,8,2,9,,,,,,,,,,,539.3282,539.8275,540.0776,543.1611,space,3.0659,,543.1611,20,85,544.1538,544.1539,546.8706,space,2.6844,,0,24,24,24,1,125,20,,,,,,,,
,,5ea1660f4d0db50008ff86ed,65af5633f1fd1b2813087bdd,2024-01-23_08h10.22.157,bars,2023.2.3,Win32,60.24096386,657b66ea316d21385b68909f,,,,,,,,,,,546.8708,547.8704,,,548.361,548.6124,,147,-33,,,,,,,,,,,,,,,,bars/035.png,bars/mask003.png,,,,,,,,,,,,0,1,,,,,,,0,10,0,10,,,,,,,,,,,547.8705,548.3609,548.6124,556.6782,space,8.0505,,556.6783,28,87,557.6706,557.6706,559.3375,space,1.6347,,0,25,25,25,1,175,60,,,,,,,,
,,5ea1660f4d0db50008ff86ed,65af5633f1fd1b2813087bdd,2024-01-23_08h10.22.157,bars,2023.2.3,Win32,60.24096386,657b66ea316d21385b68909f,,,,,,,,,,,559.3379,560.3289,,,560.8279,561.0764,,149,149,,,,,,,,,,,,,,,,bars/033.png,bars/mask008.png,,,,,,,,,,,,7,2,,,,,,,0,8,0,9,,,,,,,,,,,560.3289,560.8278,561.0765,567.3542,space,6.2507,,567.3542,56,6,568.3542,568.3542,570.6287,space,2.2503,,0,26,26,26,1,25,155,,,,,,,,
,,5ea1660f4d0db50008ff86ed,65af5633f1fd1b2813087bdd,2024-01-23_08h10.22.157,bars,2023.2.3,Win32,60.24096386,657b66ea316d21385b68909f,,,,,,,,,,,570.629,571.6209,,,572.1091,572.3613,,151,151,,,,,,,,,,,,,,,,bars/005.png,bars/mask003.png,,,,,,,,,,,,3,2,,,,,,,0,6,3,5,,,,,,,,,,,571.6209,572.1091,572.3614,578.7452,space,6.3661,,578.7452,39,11,579.7457,579.7457,581.7455,space,1.9838,,0,27,27,27,1,10,140,,,,,,,,
,,5ea1660f4d0db50008ff86ed,65af5633f1fd1b2813087bdd,2024-01-23_08h10.22.157,bars,2023.2.3,Win32,60.24096386,657b66ea316d21385b68909f,,,,,,,,,,,581.7458,582.7445,,,583.2448,583.4947,,155,-25,,,,,,,,,,,,,,,,bars/030.png,bars/mask001.png,,,,,,,,,,,,1,1,,,,,,,0,8,1,8,,,,,,,,,,,582.7445,583.2448,583.4948,591.8214,space,8.3065,,591.8214,15,90,592.8116,592.8117,595.238,space,2.4055,,0,28,28,28,1,140,65,,,,,,,,
,,5ea1660f4d0db50008ff86ed,65af5633f1fd1b2813087bdd,2024-01-23_08h10.22.157,bars,2023.2.3,Win32,60.24096386,657b66ea316d21385b68909f,,,,,,,,,,,595.2383,596.2379,,,596.7285,596.9712,,173,173,,,,,,,,,,,,,,,,bars/023.png,bars/mask005.png,,,,,,,,,,,,0,1,,,,,,,0,6,2,8,,,,,,,,,,,596.238,596.7285,596.9713,604.5927,space,7.6133,,604.5927,27,58,605.5951,605.5951,611.8716,space,6.254,,0,29,29,29,1,20,115,,,,,,,,
,,5ea1660f4d0db50008ff86ed,65af5633f1fd1b2813087bdd,2024-01-23_08h10.22.157,bars,2023.2.3,Win32,60.24096386,657b66ea316d21385b68909f,,,,,,,,,,,611.8789,612.8784,,,613.3786,613.6286,,11,11,,,,,,,,,,,,,,,,bars/025.png,bars/mask007.png,,,,,,,,,,,,0,2,,,,,,,0,8,0,7,,,,,,,,,,,612.8784,613.3786,613.6287,619.2959,space,5.6506,,619.2959,86,29,620.2989,620.2989,623.6295,space,3.316,,0,30,30,30,1,105,40,,,,,,,,
,,5ea1660f4d0db50008ff86ed,65af5633f1fd1b2813087bdd,2024-01-23_08h10.22.157,bars,2023.2.3,Win32,60.24096386,657b66ea316d21385b68909f,,,,,,,,,,,623.6296,624.6286,,,625.1287,625.3716,,62,62,,,,,,,,,,,,,,,,bars/038.png,bars/mask002.png,,,,,,,,,,,,7,2,,,,,,,2,10,0,10,,,,,,,,,,,624.6286,625.1287,625.3716,633.9886,space,8.6004,,633.9886,77,8,634.9787,634.9788,661.9969,space,27.0011,,0,31,31,31,1,165,70,,,,,,,,
,,5ea1660f4d0db50008ff86ed,65af5633f1fd1b2813087bdd,2024-01-23_08h10.22.157,bars,2023.2.3,Win32,60.24096386,657b66ea316d21385b68909f,,,,,,,,,,,662.0045,662.9944,,,663.4962,663.7389,,82,82,,,,,,,,,,,,,,,,bars/002.png,bars/mask009.png,,,,,,,,,,,,8,2,,,,,,,4,10,5,9,,,,,,,,,,,662.9945,663.4961,663.7389,669.8802,space,6.1172,,669.8802,48,3,670.8723,670.8724,673.98,space,3.0836,,0,32,32,32,1,130,85,,,,,,,,
,,5ea1660f4d0db50008ff86ed,65af5633f1fd1b2813087bdd,2024-01-23_08h10.22.157,bars,2023.2.3,Win32,60.24096386,657b66ea316d21385b68909f,,,,,,,,,,,673.9801,674.9723,,,675.4628,675.7058,,77,77,,,,,,,,,,,,,,,,bars/047.png,bars/mask001.png,,,,,,,,,,,,6,2,,,,,,,6,8,7,8,,,,,,,,,,,674.9723,675.4628,675.7058,680.5725,space,4.8401,,680.5725,62,7,681.5639,681.5639,684.2892,space,2.702,,0,33,33,33,1,15,70,,,,,,,,
,,5ea1660f4d0db50008ff86ed,65af5633f1fd1b2813087bdd,2024-01-23_08h10.22.157,bars,2023.2.3,Win32,60.24096386,657b66ea316d21385b68909f,,,,,,,,,,,684.2968,685.2962,,,685.7964,686.0463,,106,106,,,,,,,,,,,,,,,,bars/023.png,bars/mask002.png,,,,,,,,,,,,5,2,,,,,,,4,6,4,7,,,,,,,,,,,685.2963,685.7964,686.0463,689.2061,space,3.1349,,689.2061,86,9,690.1963,690.1963,692.9393,space,2.7244,,0,34,34,34,1,20,115,,,,,,,,
,,5ea1660f4d0db50008ff86ed,65af5633f1fd1b2813087bdd,2024-01-23_08h10.22.157,bars,2023.2.3,Win32,60.24096386,657b66ea316d21385b68909f,,,,,,,,,,,692.9467,693.9393,,,694.4307,694.6799,,99,99,,,,,,,,,,,,,,,,bars/039.png,bars/mask000.png,,,,,,,,,,,,6,2,,,,,,,6,8,6,7,,,,,,,,,,,693.9393,694.4307,694.6799,698.5561,space,3.8513,,698.5561,76,6,699.5628,699.5628,744.7324,space,45.1512,,0,35,35,35,1,175,105,,,,,,,,
,,5ea1660f4d0db50008ff86ed,65af5633f1fd1b2813087bdd,2024-01-23_08h10.22.157,bars,2023.2.3,Win32,60.24096386,657b66ea316d21385b68909f,,,,,,,,,,,744.7403,745.7401,,,746.2307,746.4806,,78,78,,,,,,,,,,,,,,,,bars/006.png,bars/mask008.png,,,,,,,,,,,,2,2,,,,,,,8,10,7,9,,,,,,,,,,,745.7402,746.2307,746.4806,750.5478,space,4.0504,,750.5478,43,22,751.5473,751.5473,754.807,space,3.2363,,0,36,36,36,1,35,100,,,,,,,,
,,5ea1660f4d0db50008ff86ed,65af5633f1fd1b2813087bdd,2024-01-23_08h10.22.157,bars,2023.2.3,Win32,60.24096386,657b66ea316d21385b68909f,,,,,,,,,,,754.8074,755.807,,,756.2975,756.5403,,156,-24,,,,,,,,,,,,,,,,bars/033.png,bars/mask006.png,,,,,,,,,,,,10,2,,,,,,,10,10,9,10,,,,,,,,,,,755.8071,756.2975,756.5403,762.9405,space,6.3763,,762.9405,49,1,763.9308,763.9308,767.0994,space,3.1516,,0,37,37,37,1,25,155,,,,,,,,
,,5ea1660f4d0db50008ff86ed,65af5633f1fd1b2813087bdd,2024-01-23_08h10.22.157,bars,2023.2.3,Win32,60.24096386,657b66ea316d21385b68909f,,,,,,,,,,,767.1067,768.0974,,,768.5977,768.8476,,127,-53,,,,,,,,,,,,,,,,bars/000.png,bars/mask005.png,,,,,,,,,,,,3,2,,,,,,,10,8,10,8,,,,,,,,,,,768.0974,768.5976,768.8476,776.9816,space,8.1173,,776.9816,87,18,777.9809,777.981,783.8816,space,5.8836,,0,38,38,38,1,40,145,,,,,,,,
,,5ea1660f4d0db50008ff86ed,65af5633f1fd1b2813087bdd,2024-01-23_08h10.22.157,bars,2023.2.3,Win32,60.24096386,657b66ea316d21385b68909f,,,,,,,,,,,783.889,784.8811,,,785.3814,785.624,,33,213,,,,,,,,,,,,,,,,bars/014.png,bars/mask005.png,,,,,,,,,,,,0,2,,,,,,,10,10,10,9,,,,,,,,,,,784.8811,785.3814,785.6241,791.1318,space,5.4837,,791.1318,47,33,792.1241,792.1242,795.4154,space,3.267,,0,39,39,39,1,80,0,,,,,,,,
,,5ea1660f4d0db50008ff86ed,65af5633f1fd1b2813087bdd,2024-01-23_08h10.22.157,bars,2023.2.3,Win32,60.24096386,657b66ea316d21385b68909f,,,,,,,,,,,795.4229,796.4145,,,796.912,797.1575,,82,82,,,,,,,,,,,,,,,,bars/046.png,bars/mask002.png,,,,,,,,,,,,7,2,,,,,,,10,8,9,8,,,,,,,,,,,796.4145,796.912,797.1575,806.5654,space,9.3838,,806.5654,73,3,807.5647,807.5647,811.849,space,4.2662,,0,40,40,40,1,155,85,,,,,,,,
,,5ea1660f4d0db50008ff86ed,65af5633f1fd1b2813087bdd,2024-01-23_08h10.22.157,bars,2023.2.3,Win32,60.24096386,657b66ea316d21385b68909f,,,,,,,,,,,811.8562,812.8648,,,813.365,813.6078,,37,217,,,,,,,,,,,,,,,,bars/048.png,bars/mask000.png,,,,,,,,,,,,4,1,,,,,,,8,6,7,7,,,,,,,,,,,812.8648,813.3649,813.6078,819.7989,space,6.1671,,819.7989,13,42,820.7982,820.7982,824.7667,space,3.9514,,0,41,41,41,1,50,175,,,,,,,,
,,5ea1660f4d0db50008ff86ed,65af5633f1fd1b2813087bdd,2024-01-23_08h10.22.157,bars,2023.2.3,Win32,60.24096386,657b66ea316d21385b68909f,,,,,,,,,,,824.774,825.7747,,,826.2746,826.5152,,175,-5,,,,,,,,,,,,,,,,bars/018.png,bars/mask007.png,,,,,,,,,,,,2,1,,,,,,,10,4,10,3,,,,,,,,,,,825.7747,826.2746,826.5153,836.2324,space,9.7006,,836.2325,25,85,837.2328,837.2329,846.4495,space,9.2005,,0,42,42,42,1,150,90,,,,,,,,
,,5ea1660f4d0db50008ff86ed,65af5633f1fd1b2813087bdd,2024-01-23_08h10.22.157,bars,2023.2.3,Win32,60.24096386,657b66ea316d21385b68909f,,,,,,,,,,,846.4572,847.4583,,,847.9489,848.1916,,122,122,,,,,,,,,,,,,,,,bars/025.png,bars/mask004.png,,,,,,,,,,,,4,1,,,,,,,10,6,10,6,,,,,,,,,,,847.4583,847.9489,848.1916,853.1329,space,4.9329,,853.133,17,82,854.1251,854.1251,856.4329,space,2.2837,,0,43,43,43,1,105,40,,,,,,,,
,,5ea1660f4d0db50008ff86ed,65af5633f1fd1b2813087bdd,2024-01-23_08h10.22.157,bars,2023.2.3,Win32,60.24096386,657b66ea316d21385b68909f,,,,,,,,,,,856.4332,857.432,,,857.9323,858.1755,,27,27,,,,,,,,,,,,,,,,bars/016.png,bars/mask003.png,,,,,,,,,,,,5,1,,,,,,,10,4,9,5,,,,,,,,,,,857.4321,857.9323,858.1756,864.8253,space,6.6207,,864.8253,13,42,865.8322,865.8322,867.7919,space,1.9367,,0,44,44,44,1,40,165,,,,,,,,
,,5ea1660f4d0db50008ff86ed,65af5633f1fd1b2813087bdd,2024-01-23_08h10.22.157,bars,2023.2.3,Win32,60.24096386,657b66ea316d21385b68909f,,,,,,,,,,,867.7922,868.7822,,,869.2823,869.5324,,5,5,,,,,,,,,,,,,,,,bars/007.png,bars/mask005.png,,,,,,,,,,,,5,1,,,,,,,8,2,7,0,,,,,,,,,,,868.7822,869.2823,869.5324,876.1997,space,6.6505,,876.1997,10,50,877.1988,877.1988,880.5164,space,3.2995,,0,45,45,45,1,175,55,,,,,,,,
,,5ea1660f4d0db50008ff86ed,65af5633f1fd1b2813087bdd,2024-01-23_08h10.22.157,bars,2023.2.3,Win32,60.24096386,657b66ea316d21385b68909f,,,,,,,,,,,880.5238,881.5255,,,882.016,882.2589,,157,157,,,,,,,,,,,,,,,,bars/037.png,bars/mask006.png,,,,,,,,,,,,3,1,,,,,,,6,4,4,4,,,,,,,,,,,881.5255,882.0159,882.2589,889.2844,space,7.0017,,889.2844,7,52,890.2756,890.2756,894.1261,space,3.8215,,0,46,46,46,1,150,105,,,,,,,,
,,5ea1660f4d0db50008ff86ed,65af5633f1fd1b2813087bdd,2024-01-23_08h10.22.157,bars,2023.2.3,Win32,60.24096386,657b66ea316d21385b68909f,,,,,,,,,,,894.1334,895.1335,,,895.633,895.8829,,136,136,,,,,,,,,,,,,,,,bars/030.png,bars/mask006.png,,,,,,,,,,,,8,1,,,,,,,8,2,9,1,,,,,,,,,,,895.1335,895.6329,895.883,899.4497,space,3.5502,,899.4498,4,71,900.4424,900.4424,902.1511,space,1.6845,,0,47,47,47,1,140,65,,,,,,,,
,,5ea1660f4d0db50008ff86ed,65af5633f1fd1b2813087bdd,2024-01-23_08h10.22.157,bars,2023.2.3,Win32,60.24096386,657b66ea316d21385b68909f,,,,,,,,,,,902.1513,903.1425,,,903.634,903.8829,,174,-6,,,,,,,,,,,,,,,,bars/049.png,bars/mask007.png,,,,,,,,,,,,5,1,,,,,,,10,0,10,0,,,,,,,,,,,903.1425,903.634,903.8829,911.2003,space,7.2995,,911.2004,14,59,912.1994,912.1994,913.8594,space,1.6347,,0,48,48,48,1,160,115,,,,,,,,
,,5ea1660f4d0db50008ff86ed,65af5633f1fd1b2813087bdd,2024-01-23_08h10.22.157,bars,2023.2.3,Win32,60.24096386,657b66ea316d21385b68909f,,,,,,,,,,,913.8597,914.8496,,,915.3427,915.5832,,119,119,,,,,,,,,,,,,,,,bars/031.png,bars/mask005.png,,,,,,,,,,,,10,1,,,,,,,10,2,10,3,,,,,,,,,,,914.8496,915.3427,915.5832,922.817,space,7.2172,,922.817,1,84,923.8173,923.8173,926.6838,space,2.8503,,0,49,49,49,1,120,35,,,,,,,,
,,5ea1660f4d0db50008ff86ed,65af5633f1fd1b2813087bdd,2024-01-23_08h10.22.157,bars,2023.2.3,Win32,60.24096386,657b66ea316d21385b68909f,,,,,,,,,,,,,,,,,,,,,,,,,,,,,,,,,,,,,,,,,,,,,,,,,,,,,,,,,,,,,,,,,,,,,,,,,,,,,,,,,,,,,,,,,,,,,926.6914,986.6845,0,0,0,1,1,sequence_tables/blk024.csv
,,5ea1660f4d0db50008ff86ed,65af5633f1fd1b2813087bdd,2024-01-23_08h10.22.157,bars,2023.2.3,Win32,60.24096386,657b66ea316d21385b68909f,,,,,,,,,,,1605.0483,1606.0363,,,1606.5363,1606.7863,,76,76,,,,,,,,,,,,,,,,bars/034.png,bars/mask002.png,,,,,,,,,,,,2,2,,,,,,,7,2,8,3,,,,,,986.6923,1605.0367,space,618.327,,1606.0363,1606.5363,1606.7863,1611.1369,space,4.3328,,1611.1369,49,11,1612.1363,1612.1363,1612.1377,,,,0,0,0,0,1,125,65,,,,,,,,
,,5ea1660f4d0db50008ff86ed,65af5633f1fd1b2813087bdd,2024-01-23_08h10.22.157,bars,2023.2.3,Win32,60.24096386,657b66ea316d21385b68909f,,,,,,,,,,,1612.1379,1613.1363,,,1613.6366,1613.8863,,155,155,,,,,,,,,,,,,,,,bars/033.png,bars/mask008.png,,,,,,,,,,,,5,2,,,,,,,9,4,8,5,,,,,,,,,,,1613.1363,1613.6366,1613.8863,1617.9535,space,4.0495,,1617.9537,50,0,1618.9532,1618.9532,1618.9649,,,,0,1,1,1,1,25,155,,,,,,,,
,,5ea1660f4d0db50008ff86ed,65af5633f1fd1b2813087bdd,2024-01-23_08h10.22.157,bars,2023.2.3,Win32,60.24096386,657b66ea316d21385b68909f,,,,,,,,,,,1618.9651,1619.9533,,,1620.4531,1620.7035,,18,18,,,,,,,,,,,,,,,,bars/032.png,bars/mask009.png,,,,,,,,,,,,6,2,,,,,,,7,6,6,6,,,,,,,,,,,1619.9533,1620.4531,1620.7035,1626.3035,space,5.5853,,1626.3035,73,2,1627.3033,1627.3033,1627.3168,,,,0,2,2,2,1,125,20,,,,,,,,
,,5ea1660f4d0db50008ff86ed,65af5633f1fd1b2813087bdd,2024-01-23_08h10.22.157,bars,2023.2.3,Win32,60.24096386,657b66ea316d21385b68909f,,,,,,,,,,,1627.317,1628.3203,,,1628.8201,1629.07,,74,-106,,,,,,,,,,,,,,,,bars/030.png,bars/mask004.png,,,,,,,,,,,,6,2,,,,,,,5,8,6,9,,,,,,,,,,,1628.3203,1628.8201,1629.07,1635.9872,space,6.8992,,1635.9872,66,9,1636.9867,1636.9867,1636.9985,,,,0,3,3,3,1,140,65,,,,,,,,
,,5ea1660f4d0db50008ff86ed,65af5633f1fd1b2813087bdd,2024-01-23_08h10.22.157,bars,2023.2.3,Win32,60.24096386,657b66ea316d21385b68909f,,,,,,,,,,,1636.9987,1637.9871,,,1638.4871,1638.7371,,5,185,,,,,,,,,,,,,,,,bars/012.png,bars/mask003.png,,,,,,,,,,,,4,2,,,,,,,3,6,2,6,,,,,,,,,,,1637.9871,1638.4871,1638.7371,1642.6369,space,3.8784,,1642.6369,85,10,1643.6371,1643.6372,1643.6597,,,,0,4,4,4,1,90,15,,,,,,,,
,,5ea1660f4d0db50008ff86ed,65af5633f1fd1b2813087bdd,2024-01-23_08h10.22.157,bars,2023.2.3,Win32,60.24096386,657b66ea316d21385b68909f,,,,,,,,,,,1643.6599,1644.6537,,,1645.1535,1645.4035,,142,142,,,,,,,,,,,,,,,,bars/015.png,bars/mask007.png,,,,,,,,,,,,2,2,,,,,,,5,4,4,5,,,,,,,,,,,1644.6538,1645.1535,1645.4036,1650.9037,space,5.4906,,1650.9037,32,18,1651.9038,1651.9039,1651.922,,,,0,5,5,5,1,110,160,,,,,,,,
,,5ea1660f4d0db50008ff86ed,65af5633f1fd1b2813087bdd,2024-01-23_08h10.22.157,bars,2023.2.3,Win32,60.24096386,657b66ea316d21385b68909f,,,,,,,,,,,1651.9221,1652.9206,,,1653.4206,1653.6705,,22,22,,,,,,,,,,,,,,,,bars/012.png,bars/mask003.png,,,,,,,,,,,,2,2,,,,,,,3,2,3,3,,,,,,,,,,,1652.9206,1653.4206,1653.6705,1659.1704,space,5.48,,1659.1704,68,7,1660.1704,1660.1704,1660.1785,,,,0,6,6,6,1,90,15,,,,,,,,
,,5ea1660f4d0db50008ff86ed,65af5633f1fd1b2813087bdd,2024-01-23_08h10.22.157,bars,2023.2.3,Win32,60.24096386,657b66ea316d21385b68909f,,,,,,,,,,,1660.1786,1661.1704,,,1661.6705,1661.9206,,23,23,,,,,,,,,,,,,,,,bars/014.png,bars/mask006.png,,,,,,,,,,,,1,2,,,,,,,1,4,2,3,,,,,,,,,,,1661.1704,1661.6705,1661.9206,1669.2872,space,7.3581,,1669.2873,57,23,1670.2874,1670.2875,1670.3058,,,,0,7,7,7,1,80,0,,,,,,,,
,,5ea1660f4d0db50008ff86ed,65af5633f1fd1b2813087bdd,2024-01-23_08h10.22.157,bars,2023.2.3,Win32,60.24096386,657b66ea316d21385b68909f,,,,,,,,,,,1670.3061,1671.3039,,,1671.804,1672.0541,,39,39,,,,,,,,,,,,,,,,bars/035.png,bars/mask000.png,,,,,,,,,,,,1,2,,,,,,,0,2,0,3,,,,,,,,,,,1671.3039,1671.804,1672.0541,1677.8041,space,5.7342,,1677.8041,44,21,1678.8041,1678.8041,1678.8137,,,,0,8,8,8,1,175,60,,,,,,,,
,,5ea1660f4d0db50008ff86ed,65af5633f1fd1b2813087bdd,2024-01-23_08h10.22.157,bars,2023.2.3,Win32,60.24096386,657b66ea316d21385b68909f,,,,,,,,,,,1678.8138,1679.804,,,1680.3044,1680.5544,,156,-24,,,,,,,,,,,,,,,,bars/021.png,bars/mask000.png,,,,,,,,,,,,0,1,,,,,,,0,4,0,5,,,,,,,,,,,1679.804,1680.3043,1680.5544,1689.4376,space,8.8677,,1689.4376,1,86,1690.4378,1690.4379,1690.4605,,,,0,9,9,9,1,155,70,,,,,,,,
,,5ea1660f4d0db50008ff86ed,65af5633f1fd1b2813087bdd,2024-01-23_08h10.22.157,bars,2023.2.3,Win32,60.24096386,657b66ea316d21385b68909f,,,,,,,,,,,1690.4608,1691.4542,,,1691.9542,1692.2042,,106,-74,,,,,,,,,,,,,,,,bars/001.png,bars/mask001.png,,,,,,,,,,,,2,2,,,,,,,0,6,0,6,,,,,,,,,,,1691.4542,1691.9542,1692.2042,1700.2544,space,8.018,,1700.2544,24,21,1701.2586,1701.2587,1701.2749,,,,0,10,10,10,1,130,85,,,,,,,,
,,5ea1660f4d0db50008ff86ed,65af5633f1fd1b2813087bdd,2024-01-23_08h10.22.157,bars,2023.2.3,Win32,60.24096386,657b66ea316d21385b68909f,,,,,,,,,,,1701.2752,1702.2711,,,1702.7615,1703.0116,,178,-2,,,,,,,,,,,,,,,,bars/018.png,bars/mask006.png,,,,,,,,,,,,0,1,,,,,,,2,8,2,8,,,,,,,,,,,1702.2711,1702.7615,1703.0116,1707.5045,space,4.475,,1707.5046,28,88,1708.5114,1708.5114,1708.5196,,,,0,11,11,11,1,150,90,,,,,,,,
,,5ea1660f4d0db50008ff86ed,65af5633f1fd1b2813087bdd,2024-01-23_08h10.22.157,bars,2023.2.3,Win32,60.24096386,657b66ea316d21385b68909f,,,,,,,,,,,1708.5197,1709.5114,,,1710.0044,1710.2459,,172,-8,,,,,,,,,,,,,,,,bars/033.png,bars/mask003.png,,,,,,,,,,,,3,2,,,,,,,4,6,5,6,,,,,,,,,,,1709.5114,1710.0044,1710.2459,1716.2955,space,6.0338,,1716.2955,33,17,1717.2948,1717.2948,1717.3029,,,,0,12,12,12,1,25,155,,,,,,,,
,,5ea1660f4d0db50008ff86ed,65af5633f1fd1b2813087bdd,2024-01-23_08h10.22.157,bars,2023.2.3,Win32,60.24096386,657b66ea316d21385b68909f,,,,,,,,,,,1717.3031,1718.2959,,,1718.788,1719.0451,,146,-34,,,,,,,,,,,,,,,,bars/015.png,bars/mask009.png,,,,,,,,,,,,4,2,,,,,,,2,8,1,8,,,,,,,,,,,1718.2959,1718.788,1719.0451,1728.2455,space,9.1829,,1728.2456,36,14,1729.245,1729.245,1729.2529,,,,0,13,13,13,1,110,160,,,,,,,,
,,5ea1660f4d0db50008ff86ed,65af5633f1fd1b2813087bdd,2024-01-23_08h10.22.157,bars,2023.2.3,Win32,60.24096386,657b66ea316d21385b68909f,,,,,,,,,,,1729.253,1730.2451,,,1730.7463,1730.9953,,122,122,,,,,,,,,,,,,,,,bars/006.png,bars/mask005.png,,,,,,,,,,,,3,2,,,,,,,4,10,3,10,,,,,,,,,,,1730.2451,1730.7463,1730.9953,1739.7716,space,8.7551,,1739.7717,87,22,1740.762,1740.762,1740.7699,,,,0,14,14,14,1,35,100,,,,,,,,
,,5ea1660f4d0db50008ff86ed,65af5633f1fd1b2813087bdd,2024-01-23_08h10.22.157,bars,2023.2.3,Win32,60.24096386,657b66ea316d21385b68909f,,,,,,,,,,,1740.7699,1741.762,,,1742.2621,1742.505,,165,165,,,,,,,,,,,,,,,,bars/024.png,bars/mask009.png,,,,,,,,,,,,8,2,,,,,,,2,10,3,9,,,,,,,,,,,1741.7621,1742.262,1742.505,1749.4051,space,6.8705,,1749.4053,45,5,1750.4051,1750.4051,1750.413,,,,0,15,15,15,1,120,170,,,,,,,,
,,5ea1660f4d0db50008ff86ed,65af5633f1fd1b2813087bdd,2024-01-23_08h10.22.157,bars,2023.2.3,Win32,60.24096386,657b66ea316d21385b68909f,,,,,,,,,,,1750.4132,1751.405,,,1751.8956,1752.1435,,82,82,,,,,,,,,,,,,,,,bars/026.png,bars/mask002.png,,,,,,,,,,,,7,2,,,,,,,0,10,0,8,,,,,,,,,,,1751.405,1751.8956,1752.1436,1757.7719,space,5.6046,,1757.772,47,3,1758.7621,1758.7621,1758.7698,,,,0,16,16,16,1,35,85,,,,,,,,
,,5ea1660f4d0db50008ff86ed,65af5633f1fd1b2813087bdd,2024-01-23_08h10.22.157,bars,2023.2.3,Win32,60.24096386,657b66ea316d21385b68909f,,,,,,,,,,,1758.7699,1759.7593,,,1760.2552,1760.4957,,20,200,,,,,,,,,,,,,,,,bars/040.png,bars/mask004.png,,,,,,,,,,,,5,2,,,,,,,2,8,2,10,,,,,,,,,,,1759.7593,1760.2552,1760.4957,1767.6294,space,7.117,,1767.6295,60,15,1768.622,1768.6221,1768.6306,,,,0,17,17,17,1,140,5,,,,,,,,
,,5ea1660f4d0db50008ff86ed,65af5633f1fd1b2813087bdd,2024-01-23_08h10.22.157,bars,2023.2.3,Win32,60.24096386,657b66ea316d21385b68909f,,,,,,,,,,,1768.6308,1769.629,,,1770.1222,1770.3721,,151,151,,,,,,,,,,,,,,,,bars/016.png,bars/mask004.png,,,,,,,,,,,,5,2,,,,,,,4,10,5,10,,,,,,,,,,,1769.629,1770.1222,1770.3721,1774.4102,space,4.0145,,1774.4102,69,14,1775.4055,1775.4055,1775.413,,,,0,18,18,18,1,40,165,,,,,,,,
,,5ea1660f4d0db50008ff86ed,65af5633f1fd1b2813087bdd,2024-01-23_08h10.22.157,bars,2023.2.3,Win32,60.24096386,657b66ea316d21385b68909f,,,,,,,,,,,1775.4131,1776.4098,,,1776.9127,1777.1626,,110,110,,,,,,,,,,,,,,,,bars/011.png,bars/mask009.png,,,,,,,,,,,,2,2,,,,,,,6,10,5,10,,,,,,,,,,,1776.4098,1776.9127,1777.1626,1784.1129,space,6.9335,,1784.1129,50,25,1785.1057,1785.1057,1785.1138,,,,0,19,19,19,1,160,85,,,,,,,,
,,5ea1660f4d0db50008ff86ed,65af5633f1fd1b2813087bdd,2024-01-23_08h10.22.157,bars,2023.2.3,Win32,60.24096386,657b66ea316d21385b68909f,,,,,,,,,,,1785.114,1786.1126,,,1786.6128,1786.8628,,98,98,,,,,,,,,,,,,,,,bars/009.png,bars/mask002.png,,,,,,,,,,,,8,2,,,,,,,8,10,9,10,,,,,,,,,,,1786.1126,1786.6128,1786.8629,1792.9058,space,6.0181,,1792.9059,83,7,1793.9057,1793.9058,1793.9138,,,,0,20,20,20,1,15,105,,,,,,,,
,,5ea1660f4d0db50008ff86ed,65af5633f1fd1b2813087bdd,2024-01-23_08h10.22.157,bars,2023.2.3,Win32,60.24096386,657b66ea316d21385b68909f,,,,,,,,,,,1793.9139,1794.9127,,,1795.4129,1795.6629,,23,203,,,,,,,,,,,,,,,,bars/040.png,bars/mask002.png,,,,,,,,,,,,4,2,,,,,,,6,8,6,10,,,,,,,,,,,1794.9128,1795.4128,1795.663,1802.2228,space,6.5434,,1802.2228,63,18,1803.2296,1803.2296,1803.237,,,,0,21,21,21,1,140,5,,,,,,,,
,,5ea1660f4d0db50008ff86ed,65af5633f1fd1b2813087bdd,2024-01-23_08h10.22.157,bars,2023.2.3,Win32,60.24096386,657b66ea316d21385b68909f,,,,,,,,,,,1803.2371,1804.2392,,,1804.7296,1804.9796,,42,42,,,,,,,,,,,,,,,,bars/011.png,bars/mask001.png,,,,,,,,,,,,0,2,,,,,,,4,6,6,5,,,,,,,,,,,1804.2392,1804.7296,1804.9796,1808.706,space,3.7005,,1808.7061,62,43,1809.6962,1809.6963,1809.7037,,,,0,22,22,22,1,160,85,,,,,,,,
,,5ea1660f4d0db50008ff86ed,65af5633f1fd1b2813087bdd,2024-01-23_08h10.22.157,bars,2023.2.3,Win32,60.24096386,657b66ea316d21385b68909f,,,,,,,,,,,1809.7038,1810.713,,,1811.2131,1811.456,,25,205,,,,,,,,,,,,,,,,bars/040.png,bars/mask008.png,,,,,,,,,,,,3,2,,,,,,,2,8,2,8,,,,,,,,,,,1810.713,1811.2131,1811.456,1817.8727,space,6.391,,1817.8729,65,20,1818.8629,1818.8629,1818.8709,,,,0,23,23,23,1,140,5,,,,,,,,
,,5ea1660f4d0db50008ff86ed,65af5633f1fd1b2813087bdd,2024-01-23_08h10.22.157,bars,2023.2.3,Win32,60.24096386,657b66ea316d21385b68909f,,,,,,,,,,,1818.8711,1819.8632,,,1820.3633,1820.6133,,126,126,,,,,,,,,,,,,,,,bars/039.png,bars/mask008.png,,,,,,,,,,,,3,2,,,,,,,4,10,4,10,,,,,,,,,,,1819.8632,1820.3633,1820.6133,1826.1138,space,5.4839,,1826.1138,49,21,1827.1062,1827.1063,1827.1138,,,,0,24,24,24,1,175,105,,,,,,,,
,,5ea1660f4d0db50008ff86ed,65af5633f1fd1b2813087bdd,2024-01-23_08h10.22.157,bars,2023.2.3,Win32,60.24096386,657b66ea316d21385b68909f,,,,,,,,,,,1827.114,1828.1131,,,1828.6133,1828.8635,,59,59,,,,,,,,,,,,,,,,bars/035.png,bars/mask003.png,,,,,,,,,,,,7,2,,,,,,,2,8,3,7,,,,,,,,,,,1828.1131,1828.6133,1828.8636,1833.7648,space,4.8838,,1833.7649,64,1,1834.7633,1834.7634,1834.7709,,,,0,25,25,25,1,175,60,,,,,,,,
,,5ea1660f4d0db50008ff86ed,65af5633f1fd1b2813087bdd,2024-01-23_08h10.22.157,bars,2023.2.3,Win32,60.24096386,657b66ea316d21385b68909f,,,,,,,,,,,1834.771,1835.7643,,,1836.2635,1836.5135,,106,106,,,,,,,,,,,,,,,,bars/026.png,bars/mask000.png,,,,,,,,,,,,3,2,,,,,,,0,10,0,10,,,,,,,,,,,1835.7643,1836.2635,1836.5135,1842.547,space,6.0169,,1842.5471,71,21,1843.5467,1843.5468,1843.5544,,,,0,26,26,26,1,35,85,,,,,,,,
,,5ea1660f4d0db50008ff86ed,65af5633f1fd1b2813087bdd,2024-01-23_08h10.22.157,bars,2023.2.3,Win32,60.24096386,657b66ea316d21385b68909f,,,,,,,,,,,1843.5546,1844.5469,,,1845.0471,1845.2942,,165,165,,,,,,,,,,,,,,,,bars/020.png,bars/mask007.png,,,,,,,,,,,,8,2,,,,,,,2,10,2,10,,,,,,,,,,,1844.5469,1845.047,1845.2943,1850.7734,space,5.4515,,1850.7734,50,5,1851.7635,1851.7636,1851.771,,,,0,27,27,27,1,115,170,,,,,,,,
,,5ea1660f4d0db50008ff86ed,65af5633f1fd1b2813087bdd,2024-01-23_08h10.22.157,bars,2023.2.3,Win32,60.24096386,657b66ea316d21385b68909f,,,,,,,,,,,1851.7712,1852.7733,,,1853.2638,1853.5138,,6,186,,,,,,,,,,,,,,,,bars/009.png,bars/mask009.png,,,,,,,,,,,,1,1,,,,,,,0,10,1,10,,,,,,,,,,,1852.7734,1853.2637,1853.5139,1860.6475,space,7.1172,,1860.6476,9,81,1861.6471,1861.6471,1861.6557,,,,0,28,28,28,1,15,105,,,,,,,,
,,5ea1660f4d0db50008ff86ed,65af5633f1fd1b2813087bdd,2024-01-23_08h10.22.157,bars,2023.2.3,Win32,60.24096386,657b66ea316d21385b68909f,,,,,,,,,,,1861.6558,1862.6471,,,1863.1401,1863.3807,,82,82,,,,,,,,,,,,,,,,bars/026.png,bars/mask002.png,,,,,,,,,,,,7,2,,,,,,,0,8,2,8,,,,,,,,,,,1862.6471,1863.1401,1863.3808,1868.8903,space,5.4894,,1868.8903,47,3,1869.8902,1869.8902,1869.8985,,,,0,29,29,29,1,35,85,,,,,,,,
,,5ea1660f4d0db50008ff86ed,65af5633f1fd1b2813087bdd,2024-01-23_08h10.22.157,bars,2023.2.3,Win32,60.24096386,657b66ea316d21385b68909f,,,,,,,,,,,1869.8986,1870.8943,,,1871.3974,1871.6475,,48,48,,,,,,,,,,,,,,,,bars/042.png,bars/mask000.png,,,,,,,,,,,,1,2,,,,,,,0,10,0,10,,,,,,,,,,,1870.8944,1871.3973,1871.6475,1877.5821,space,5.918,,1877.5822,83,27,1878.5806,1878.5806,1878.5888,,,,0,30,30,30,1,145,75,,,,,,,,
,,5ea1660f4d0db50008ff86ed,65af5633f1fd1b2813087bdd,2024-01-23_08h10.22.157,bars,2023.2.3,Win32,60.24096386,657b66ea316d21385b68909f,,,,,,,,,,,1878.589,1879.5816,,,1880.0809,1880.3308,,73,73,,,,,,,,,,,,,,,,bars/029.png,bars/mask006.png,,,,,,,,,,,,0,1,,,,,,,0,10,0,9,,,,,,,,,,,1879.5816,1880.0809,1880.3308,1885.3313,space,4.9837,,1885.3313,17,28,1886.3308,1886.3308,1886.3393,,,,0,31,31,31,1,90,45,,,,,,,,
,,5ea1660f4d0db50008ff86ed,65af5633f1fd1b2813087bdd,2024-01-23_08h10.22.157,bars,2023.2.3,Win32,60.24096386,657b66ea316d21385b68909f,,,,,,,,,,,1886.3395,1887.3307,,,1887.8239,1888.0739,,66,66,,,,,,,,,,,,,,,,bars/031.png,bars/mask001.png,,,,,,,,,,,,0,2,,,,,,,0,8,0,8,,,,,,,,,,,1887.3308,1887.8239,1888.0739,1892.8813,space,4.7839,,1892.8813,54,31,1893.8818,1893.8818,1893.8899,,,,0,32,32,32,1,120,35,,,,,,,,
,,5ea1660f4d0db50008ff86ed,65af5633f1fd1b2813087bdd,2024-01-23_08h10.22.157,bars,2023.2.3,Win32,60.24096386,657b66ea316d21385b68909f,,,,,,,,,,,1893.89,1894.8811,,,1895.3739,1895.6144,,154,154,,,,,,,,,,,,,,,,bars/030.png,bars/mask004.png,,,,,,,,,,,,0,1,,,,,,,0,6,0,6,,,,,,,,,,,1894.8811,1895.3739,1895.6144,1902.1148,space,6.4836,,1902.1148,14,89,1903.1074,1903.1074,1903.1161,,,,0,33,33,33,1,140,65,,,,,,,,
,,5ea1660f4d0db50008ff86ed,65af5633f1fd1b2813087bdd,2024-01-23_08h10.22.157,bars,2023.2.3,Win32,60.24096386,657b66ea316d21385b68909f,,,,,,,,,,,1903.1163,1904.1073,,,1904.5977,1904.8479,,54,54,,,,,,,,,,,,,,,,bars/047.png,bars/mask002.png,,,,,,,,,,,,1,2,,,,,,,0,4,0,3,,,,,,,,,,,1904.1073,1904.5977,1904.8479,1911.1827,space,6.3182,,1911.1827,39,16,1912.1742,1912.1742,1912.1826,,,,0,34,34,34,1,15,70,,,,,,,,
,,5ea1660f4d0db50008ff86ed,65af5633f1fd1b2813087bdd,2024-01-23_08h10.22.157,bars,2023.2.3,Win32,60.24096386,657b66ea316d21385b68909f,,,,,,,,,,,1912.1828,1913.1812,,,1913.6743,1913.9312,,41,41,,,,,,,,,,,,,,,,bars/007.png,bars/mask002.png,,,,,,,,,,,,1,2,,,,,,,2,2,4,1,,,,,,,,,,,1913.1812,1913.6742,1913.9312,1919.265,space,5.3161,,1919.265,46,14,1920.2577,1920.2577,1920.2652,,,,0,35,35,35,1,175,55,,,,,,,,
,,5ea1660f4d0db50008ff86ed,65af5633f1fd1b2813087bdd,2024-01-23_08h10.22.157,bars,2023.2.3,Win32,60.24096386,657b66ea316d21385b68909f,,,,,,,,,,,1920.2654,1921.2647,,,1921.7646,1922.0148,,112,112,,,,,,,,,,,,,,,,bars/025.png,bars/mask001.png,,,,,,,,,,,,2,1,,,,,,,0,0,2,0,,,,,,,,,,,1921.2647,1921.7646,1922.0148,1926.6245,space,4.5912,,1926.6246,7,72,1927.6244,1927.6244,1927.6326,,,,0,36,36,36,1,105,40,,,,,,,,
,,5ea1660f4d0db50008ff86ed,65af5633f1fd1b2813087bdd,2024-01-23_08h10.22.157,bars,2023.2.3,Win32,60.24096386,657b66ea316d21385b68909f,,,,,,,,,,,1927.6328,1928.6314,,,1929.1314,1929.3745,,43,43,,,,,,,,,,,,,,,,bars/026.png,bars/mask000.png,,,,,,,,,,,,0,1,,,,,,,0,2,0,1,,,,,,,,,,,1928.6315,1929.1314,1929.3745,1937.5188,space,8.1363,,1937.5188,8,42,1938.5078,1938.5078,1938.516,,,,0,37,37,37,1,35,85,,,,,,,,
,,5ea1660f4d0db50008ff86ed,65af5633f1fd1b2813087bdd,2024-01-23_08h10.22.157,bars,2023.2.3,Win32,60.24096386,657b66ea316d21385b68909f,,,,,,,,,,,1938.5161,1939.515,,,1940.008,1940.258,,117,117,,,,,,,,,,,,,,,,bars/041.png,bars/mask009.png,,,,,,,,,,,,0,2,,,,,,,2,4,3,2,,,,,,,,,,,1939.515,1940.008,1940.258,1946.8416,space,6.5515,,1946.8416,83,32,1947.8318,1947.8318,1947.8404,,,,0,38,38,38,1,20,85,,,,,,,,
,,5ea1660f4d0db50008ff86ed,65af5633f1fd1b2813087bdd,2024-01-23_08h10.22.157,bars,2023.2.3,Win32,60.24096386,657b66ea316d21385b68909f,,,,,,,,,,,1947.8406,1948.8319,,,1949.3247,1949.5652,,129,129,,,,,,,,,,,,,,,,bars/037.png,bars/mask000.png,,,,,,,,,,,,1,1,,,,,,,4,2,3,1,,,,,,,,,,,1948.8319,1949.3247,1949.5652,1954.0582,space,4.4726,,1954.0582,21,24,1955.0485,1955.0485,1955.0568,,,,0,39,39,39,1,150,105,,,,,,,,
,,5ea1660f4d0db50008ff86ed,65af5633f1fd1b2813087bdd,2024-01-23_08h10.22.157,bars,2023.2.3,Win32,60.24096386,657b66ea316d21385b68909f,,,,,,,,,,,1955.057,1956.0582,,,1956.5487,1956.7915,,83,83,,,,,,,,,,,,,,,,bars/005.png,bars/mask004.png,,,,,,,,,,,,0,2,,,,,,,6,0,5,0,,,,,,,,,,,1956.0583,1956.5487,1956.7916,1958.3826,space,1.5672,,1958.3826,73,57,1959.383,1959.383,1959.3918,,,,0,40,40,40,1,10,140,,,,,,,,
,,5ea1660f4d0db50008ff86ed,65af5633f1fd1b2813087bdd,2024-01-23_08h10.22.157,bars,2023.2.3,Win32,60.24096386,657b66ea316d21385b68909f,,,,,,,,,,,1959.3921,1960.3915,,,1960.8821,1961.125,,140,140,,,,,,,,,,,,,,,,bars/040.png,bars/mask009.png,,,,,,,,,,,,10,1,,,,,,,8,2,10,3,,,,,,,,,,,1960.3916,1960.8821,1961.1251,1965.5584,space,4.4098,,1965.5585,0,45,1966.5654,1966.5654,1966.5736,,,,0,41,41,41,1,140,5,,,,,,,,
,,5ea1660f4d0db50008ff86ed,65af5633f1fd1b2813087bdd,2024-01-23_08h10.22.157,bars,2023.2.3,Win32,60.24096386,657b66ea316d21385b68909f,,,,,,,,,,,1966.5737,1967.575,,,1968.0656,1968.3155,,112,112,,,,,,,,,,,,,,,,bars/045.png,bars/mask005.png,,,,,,,,,,,,4,1,,,,,,,6,4,7,4,,,,,,,,,,,1967.5751,1968.0656,1968.3155,1972.7659,space,4.4327,,1972.7659,12,78,1973.7663,1973.7663,1973.7739,,,,0,42,42,42,1,100,10,,,,,,,,
,,5ea1660f4d0db50008ff86ed,65af5633f1fd1b2813087bdd,2024-01-23_08h10.22.157,bars,2023.2.3,Win32,60.24096386,657b66ea316d21385b68909f,,,,,,,,,,,1973.774,1974.7655,,,1975.2666,1975.5156,,47,47,,,,,,,,,,,,,,,,bars/028.png,bars/mask008.png,,,,,,,,,,,,4,1,,,,,,,4,6,4,6,,,,,,,,,,,1974.7655,1975.2666,1975.5156,1981.016,space,5.4839,,1981.016,2,73,1982.0086,1982.0086,1982.0162,,,,0,43,43,43,1,45,120,,,,,,,,
,,5ea1660f4d0db50008ff86ed,65af5633f1fd1b2813087bdd,2024-01-23_08h10.22.157,bars,2023.2.3,Win32,60.24096386,657b66ea316d21385b68909f,,,,,,,,,,,1982.0164,1983.0086,,,1983.5157,1983.7658,,52,232,,,,,,,,,,,,,,,,bars/023.png,bars/mask002.png,,,,,,,,,,,,0,1,,,,,,,6,8,5,9,,,,,,,,,,,1983.0086,1983.5157,1983.7658,1988.9829,space,5.2005,,1988.9829,32,63,1989.9753,1989.9753,1989.9831,,,,0,44,44,44,1,20,115,,,,,,,,
,,5ea1660f4d0db50008ff86ed,65af5633f1fd1b2813087bdd,2024-01-23_08h10.22.157,bars,2023.2.3,Win32,60.24096386,657b66ea316d21385b68909f,,,,,,,,,,,1989.9832,1990.9823,,,1991.4825,1991.7324,,174,174,,,,,,,,,,,,,,,,bars/032.png,bars/mask006.png,,,,,,,,,,,,1,2,,,,,,,8,10,7,10,,,,,,,,,,,1990.9823,1991.4825,1991.7325,1995.1496,space,3.4005,,1995.1496,49,26,1996.1492,1996.1492,1996.1573,,,,0,45,45,45,1,125,20,,,,,,,,
,,5ea1660f4d0db50008ff86ed,65af5633f1fd1b2813087bdd,2024-01-23_08h10.22.157,bars,2023.2.3,Win32,60.24096386,657b66ea316d21385b68909f,,,,,,,,,,,1996.1574,1997.1587,,,1997.6659,1997.9159,,129,129,,,,,,,,,,,,,,,,bars/015.png,bars/mask009.png,,,,,,,,,,,,2,1,,,,,,,6,8,5,9,,,,,,,,,,,1997.1588,1997.6658,1997.916,2001.1923,space,3.2576,,2001.1923,19,31,2002.1922,2002.1922,2002.2003,,,,0,46,46,46,1,110,160,,,,,,,,
,,5ea1660f4d0db50008ff86ed,65af5633f1fd1b2813087bdd,2024-01-23_08h10.22.157,bars,2023.2.3,Win32,60.24096386,657b66ea316d21385b68909f,,,,,,,,,,,2002.2005,2003.1991,,,2003.6992,2003.9422,,45,225,,,,,,,,,,,,,,,,bars/029.png,bars/mask008.png,,,,,,,,,,,,7,2,,,,,,,4,6,3,7,,,,,,,,,,,2003.1991,2003.6992,2003.9422,2012.3663,space,8.4004,,2012.3664,45,0,2013.366,2013.366,2013.375,,,,0,47,47,47,1,90,45,,,,,,,,
,,5ea1660f4d0db50008ff86ed,65af5633f1fd1b2813087bdd,2024-01-23_08h10.22.157,bars,2023.2.3,Win32,60.24096386,657b66ea316d21385b68909f,,,,,,,,,,,2013.3751,2014.3758,,,2014.8757,2015.1162,,47,227,,,,,,,,,,,,,,,,bars/027.png,bars/mask001.png,,,,,,,,,,,,7,2,,,,,,,6,8,3,8,,,,,,,,,,,2014.3758,2014.8757,2015.1163,2021.1668,space,6.034,,2021.1668,63,3,2022.1661,2022.1661,2022.1749,,,,0,48,48,48,1,110,50,,,,,,,,
,,5ea1660f4d0db50008ff86ed,65af5633f1fd1b2813087bdd,2024-01-23_08h10.22.157,bars,2023.2.3,Win32,60.24096386,657b66ea316d21385b68909f,,,,,,,,,,,2022.175,2023.1828,,,2023.6759,2023.9165,,34,34,,,,,,,,,,,,,,,,bars/029.png,bars/mask006.png,,,,,,,,,,,,6,2,,,,,,,4,10,4,10,,,,,,,,,,,2023.1829,2023.6759,2023.9165,2027.2262,space,3.29,,2027.2262,56,11,2028.2162,2028.2162,2028.2237,,,,0,49,49,49,1,90,45,,,,,,,,
,,5ea1660f4d0db50008ff86ed,65af5633f1fd1b2813087bdd,2024-01-23_08h10.22.157,bars,2023.2.3,Win32,60.24096386,657b66ea316d21385b68909f,,,,,,,,,,,,,,,,,,,,,,,,,,,,,,,,,,,,,,,,,,,,,,,,,,,,,,,,,,,,,,,,,,,,,,,,,,,,,,,,,,,,,,,,,,,,,2028.2239,2088.2269,0,1,1,2,1,sequence_tables/blk010.csv
,,5ea1660f4d0db50008ff86ed,65af5633f1fd1b2813087bdd,2024-01-23_08h10.22.157,bars,2023.2.3,Win32,60.24096386,657b66ea316d21385b68909f,,,,,,,,,,,2092.7153,2093.7104,,,2094.2103,2094.4605,,76,76,,,,,,,,,,,,,,,,bars/002.png,bars/mask004.png,,,,,,,,,,,,3,2,,,,,,,3,2,6,4,,,,,,2088.2385,2092.6938,space,4.4438,,2093.7105,2094.2103,2094.4606,2100.7105,space,6.2365,,2100.7105,54,9,2101.7103,2101.7103,2101.7191,,,,0,0,0,0,1,130,85,,,,,,,,
,,5ea1660f4d0db50008ff86ed,65af5633f1fd1b2813087bdd,2024-01-23_08h10.22.157,bars,2023.2.3,Win32,60.24096386,657b66ea316d21385b68909f,,,,,,,,,,,2101.7193,2102.7107,,,2103.2105,2103.4607,,49,49,,,,,,,,,,,,,,,,bars/042.png,bars/mask004.png,,,,,,,,,,,,1,2,,,,,,,1,4,1,4,,,,,,,,,,,2102.7107,2103.2104,2103.4608,2108.9772,space,5.5046,,2108.9773,84,26,2109.9772,2109.9772,2109.986,,,,0,1,1,1,1,145,75,,,,,,,,
,,5ea1660f4d0db50008ff86ed,65af5633f1fd1b2813087bdd,2024-01-23_08h10.22.157,bars,2023.2.3,Win32,60.24096386,657b66ea316d21385b68909f,,,,,,,,,,,2109.9862,2110.9772,,,2111.4773,2111.7276,,36,36,,,,,,,,,,,,,,,,bars/000.png,bars/mask005.png,,,,,,,,,,,,3,1,,,,,,,3,6,4,5,,,,,,,,,,,2110.9773,2111.4773,2111.7276,2116.0441,space,4.3016,,2116.0441,4,71,2117.0439,2117.044,2117.0542,,,,0,2,2,2,1,40,145,,,,,,,,
,,5ea1660f4d0db50008ff86ed,65af5633f1fd1b2813087bdd,2024-01-23_08h10.22.157,bars,2023.2.3,Win32,60.24096386,657b66ea316d21385b68909f,,,,,,,,,,,2117.0544,2118.044,,,2118.544,2118.7942,,11,191,,,,,,,,,,,,,,,,bars/041.png,bars/mask004.png,,,,,,,,,,,,4,1,,,,,,,5,4,5,4,,,,,,,,,,,2118.044,2118.544,2118.7943,2124.0445,space,5.2332,,2124.0446,9,74,2125.0444,2125.0444,2125.059,,,,0,3,3,3,1,20,85,,,,,,,,
,,5ea1660f4d0db50008ff86ed,65af5633f1fd1b2813087bdd,2024-01-23_08h10.22.157,bars,2023.2.3,Win32,60.24096386,657b66ea316d21385b68909f,,,,,,,,,,,2125.0591,2126.0611,,,2126.5609,2126.8108,,145,-35,,,,,,,,,,,,,,,,bars/017.png,bars/mask000.png,,,,,,,,,,,,3,1,,,,,,,3,6,3,6,,,,,,,,,,,2126.0611,2126.5609,2126.8109,2133.211,space,6.3862,,2133.2112,0,80,2134.2108,2134.2108,2134.2198,,,,0,4,4,4,1,145,45,,,,,,,,
,,5ea1660f4d0db50008ff86ed,65af5633f1fd1b2813087bdd,2024-01-23_08h10.22.157,bars,2023.2.3,Win32,60.24096386,657b66ea316d21385b68909f,,,,,,,,,,,2134.2199,2135.2109,,,2135.7109,2135.9608,,148,-32,,,,,,,,,,,,,,,,bars/033.png,bars/mask009.png,,,,,,,,,,,,6,2,,,,,,,5,8,4,8,,,,,,,,,,,2135.211,2135.7109,2135.9609,2139.7277,space,3.753,,2139.7278,57,7,2140.7278,2140.7278,2140.7464,,,,0,5,5,5,1,25,155,,,,,,,,
,,5ea1660f4d0db50008ff86ed,65af5633f1fd1b2813087bdd,2024-01-23_08h10.22.157,bars,2023.2.3,Win32,60.24096386,657b66ea316d21385b68909f,,,,,,,,,,,2140.7467,2141.7443,,,2142.2444,2142.4946,,45,225,,,,,,,,,,,,,,,,bars/031.png,bars/mask004.png,,,,,,,,,,,,4,2,,,,,,,3,6,2,6,,,,,,,,,,,2141.7444,2142.2444,2142.4946,2147.4949,space,4.9837,,2147.495,75,10,2148.4944,2148.4944,2148.5033,,,,0,6,6,6,1,120,35,,,,,,,,
,,5ea1660f4d0db50008ff86ed,65af5633f1fd1b2813087bdd,2024-01-23_08h10.22.157,bars,2023.2.3,Win32,60.24096386,657b66ea316d21385b68909f,,,,,,,,,,,2148.5035,2149.4948,,,2149.9949,2150.2444,,77,77,,,,,,,,,,,,,,,,bars/026.png,bars/mask000.png,,,,,,,,,,,,3,2,,,,,,,1,4,2,4,,,,,,,,,,,2149.4948,2149.9949,2150.2444,2155.4447,space,5.1831,,2155.4447,42,8,2156.4446,2156.4446,2156.4527,,,,0,7,7,7,1,35,85,,,,,,,,
,,5ea1660f4d0db50008ff86ed,65af5633f1fd1b2813087bdd,2024-01-23_08h10.22.157,bars,2023.2.3,Win32,60.24096386,657b66ea316d21385b68909f,,,,,,,,,,,2156.4529,2157.4447,,,2157.945,2158.1945,,36,216,,,,,,,,,,,,,,,,bars/027.png,bars/mask005.png,,,,,,,,,,,,1,2,,,,,,,0,2,0,2,,,,,,,,,,,2157.4448,2157.945,2158.1946,2164.1781,space,5.9639,,2164.1781,74,14,2165.178,2165.178,2165.1862,,,,0,8,8,8,1,110,50,,,,,,,,
,,5ea1660f4d0db50008ff86ed,65af5633f1fd1b2813087bdd,2024-01-23_08h10.22.157,bars,2023.2.3,Win32,60.24096386,657b66ea316d21385b68909f,,,,,,,,,,,2165.1864,2166.178,,,2166.6781,2166.928,,40,40,,,,,,,,,,,,,,,,bars/013.png,bars/mask003.png,,,,,,,,,,,,0,2,,,,,,,0,4,0,3,,,,,,,,,,,2166.178,2166.6781,2166.9281,2171.7119,space,4.7664,,2171.7119,35,30,2172.7115,2172.7115,2172.7214,,,,0,9,9,9,1,75,10,,,,,,,,
,,5ea1660f4d0db50008ff86ed,65af5633f1fd1b2813087bdd,2024-01-23_08h10.22.157,bars,2023.2.3,Win32,60.24096386,657b66ea316d21385b68909f,,,,,,,,,,,2172.7215,2173.7116,,,2174.2114,2174.4615,,179,179,,,,,,,,,,,,,,,,bars/039.png,bars/mask007.png,,,,,,,,,,,,0,1,,,,,,,0,6,0,5,,,,,,,,,,,2173.7116,2174.2114,2174.4616,2180.6949,space,6.2161,,2180.695,4,74,2181.6952,2181.6953,2181.7141,,,,0,10,10,10,1,175,105,,,,,,,,
,,5ea1660f4d0db50008ff86ed,65af5633f1fd1b2813087bdd,2024-01-23_08h10.22.157,bars,2023.2.3,Win32,60.24096386,657b66ea316d21385b68909f,,,,,,,,,,,2181.7143,2182.7117,,,2183.2119,2183.4618,,39,219,,,,,,,,,,,,,,,,bars/035.png,bars/mask005.png,,,,,,,,,,,,3,2,,,,,,,0,8,0,9,,,,,,,,,,,2182.7118,2183.2119,2183.4618,2188.4284,space,4.9515,,2188.4284,44,21,2189.4285,2189.4286,2189.4482,,,,0,11,11,11,1,175,60,,,,,,,,
,,5ea1660f4d0db50008ff86ed,65af5633f1fd1b2813087bdd,2024-01-23_08h10.22.157,bars,2023.2.3,Win32,60.24096386,657b66ea316d21385b68909f,,,,,,,,,,,2189.4485,2190.4453,,,2190.9451,2191.195,,31,31,,,,,,,,,,,,,,,,bars/010.png,bars/mask005.png,,,,,,,,,,,,2,2,,,,,,,2,10,2,9,,,,,,,,,,,2190.4454,2190.945,2191.195,2194.0289,space,2.8216,,2194.0289,46,24,2195.0285,2195.0285,2195.0361,,,,0,12,12,12,1,165,55,,,,,,,,
,,5ea1660f4d0db50008ff86ed,65af5633f1fd1b2813087bdd,2024-01-23_08h10.22.157,bars,2023.2.3,Win32,60.24096386,657b66ea316d21385b68909f,,,,,,,,,,,2195.0363,2196.0285,,,2196.5288,2196.7786,,127,127,,,,,,,,,,,,,,,,bars/043.png,bars/mask005.png,,,,,,,,,,,,9,2,,,,,,,0,10,0,10,,,,,,,,,,,2196.0285,2196.5288,2196.7787,2202.6954,space,5.8987,,2202.6954,83,3,2203.6955,2203.6955,2203.7135,,,,0,13,13,13,1,30,130,,,,,,,,
,,5ea1660f4d0db50008ff86ed,65af5633f1fd1b2813087bdd,2024-01-23_08h10.22.157,bars,2023.2.3,Win32,60.24096386,657b66ea316d21385b68909f,,,,,,,,,,,2203.7138,2204.7123,,,2205.212,2205.462,,55,55,,,,,,,,,,,,,,,,bars/010.png,bars/mask002.png,,,,,,,,,,,,10,2,,,,,,,0,10,0,10,,,,,,,,,,,2204.7123,2205.212,2205.462,2209.3121,space,3.838,,2209.3122,70,0,2210.312,2210.312,2210.3214,,,,0,14,14,14,1,165,55,,,,,,,,
,,5ea1660f4d0db50008ff86ed,65af5633f1fd1b2813087bdd,2024-01-23_08h10.22.157,bars,2023.2.3,Win32,60.24096386,657b66ea316d21385b68909f,,,,,,,,,,,2210.3216,2211.3123,,,2211.8124,2212.0619,,129,129,,,,,,,,,,,,,,,,bars/044.png,bars/mask007.png,,,,,,,,,,,,1,2,,,,,,,2,8,3,8,,,,,,,,,,,2211.3123,2211.8124,2212.0619,2215.3288,space,3.2515,,2215.3288,54,26,2216.3288,2216.3288,2216.3435,,,,0,15,15,15,1,75,155,,,,,,,,
,,5ea1660f4d0db50008ff86ed,65af5633f1fd1b2813087bdd,2024-01-23_08h10.22.157,bars,2023.2.3,Win32,60.24096386,657b66ea316d21385b68909f,,,,,,,,,,,2216.3437,2217.3455,,,2217.8455,2218.0956,,31,31,,,,,,,,,,,,,,,,bars/025.png,bars/mask000.png,,,,,,,,,,,,4,2,,,,,,,0,6,0,5,,,,,,,,,,,2217.3455,2217.8455,2218.0956,2222.4956,space,4.39,,2222.4956,74,9,2223.4956,2223.4956,2223.5054,,,,0,16,16,16,1,105,40,,,,,,,,
,,5ea1660f4d0db50008ff86ed,65af5633f1fd1b2813087bdd,2024-01-23_08h10.22.157,bars,2023.2.3,Win32,60.24096386,657b66ea316d21385b68909f,,,,,,,,,,,2223.5055,2224.4959,,,2224.9959,2225.2457,,13,13,,,,,,,,,,,,,,,,bars/027.png,bars/mask004.png,,,,,,,,,,,,0,2,,,,,,,2,4,2,3,,,,,,,,,,,2224.496,2224.9959,2225.2458,2229.896,space,4.6321,,2229.896,83,37,2230.8957,2230.8958,2230.9059,,,,0,17,17,17,1,110,50,,,,,,,,
,,5ea1660f4d0db50008ff86ed,65af5633f1fd1b2813087bdd,2024-01-23_08h10.22.157,bars,2023.2.3,Win32,60.24096386,657b66ea316d21385b68909f,,,,,,,,,,,2230.906,2231.8957,,,2232.3957,2232.646,,99,279,,,,,,,,,,,,,,,,bars/018.png,bars/mask009.png,,,,,,,,,,,,5,2,,,,,,,0,6,1,7,,,,,,,,,,,2231.8957,2232.3957,2232.6461,2241.746,space,9.0831,,2241.746,51,9,2242.7462,2242.7462,2242.7689,,,,0,18,18,18,1,150,90,,,,,,,,
,,5ea1660f4d0db50008ff86ed,65af5633f1fd1b2813087bdd,2024-01-23_08h10.22.157,bars,2023.2.3,Win32,60.24096386,657b66ea316d21385b68909f,,,,,,,,,,,2242.7691,2243.7625,,,2244.2531,2244.5031,,92,92,,,,,,,,,,,,,,,,bars/011.png,bars/mask000.png,,,,,,,,,,,,6,2,,,,,,,2,8,2,8,,,,,,,,,,,2243.7625,2244.253,2244.5031,2248.8033,space,4.2838,,2248.8033,68,7,2249.803,2249.803,2249.8105,,,,0,19,19,19,1,160,85,,,,,,,,
,,5ea1660f4d0db50008ff86ed,65af5633f1fd1b2813087bdd,2024-01-23_08h10.22.157,bars,2023.2.3,Win32,60.24096386,657b66ea316d21385b68909f,,,,,,,,,,,2249.8107,2250.8125,,,2251.3029,2251.5459,,92,92,,,,,,,,,,,,,,,,bars/023.png,bars/mask003.png,,,,,,,,,,,,2,2,,,,,,,4,6,4,8,,,,,,,,,,,2250.8125,2251.3029,2251.5459,2254.9867,space,3.4172,,2254.9867,72,23,2255.9793,2255.9794,2255.987,,,,0,20,20,20,1,20,115,,,,,,,,
,,5ea1660f4d0db50008ff86ed,65af5633f1fd1b2813087bdd,2024-01-23_08h10.22.157,bars,2023.2.3,Win32,60.24096386,657b66ea316d21385b68909f,,,,,,,,,,,2255.9871,2256.9864,,,2257.4875,2257.7368,,160,160,,,,,,,,,,,,,,,,bars/045.png,bars/mask007.png,,,,,,,,,,,,0,2,,,,,,,6,4,6,4,,,,,,,,,,,2256.9864,2257.4875,2257.7368,2264.1217,space,6.3679,,2264.1218,60,30,2265.1197,2265.1198,2265.1276,,,,0,21,21,21,1,100,10,,,,,,,,
,,5ea1660f4d0db50008ff86ed,65af5633f1fd1b2813087bdd,2024-01-23_08h10.22.157,bars,2023.2.3,Win32,60.24096386,657b66ea316d21385b68909f,,,,,,,,,,,2265.1277,2266.1208,,,2266.62,2266.87,,124,124,,,,,,,,,,,,,,,,bars/027.png,bars/mask003.png,,,,,,,,,,,,4,1,,,,,,,8,2,8,2,,,,,,,,,,,2266.1209,2266.62,2266.87,2272.0536,space,5.167,,2272.0537,14,74,2273.0463,2273.0463,2273.0548,,,,0,22,22,22,1,110,50,,,,,,,,
,,5ea1660f4d0db50008ff86ed,65af5633f1fd1b2813087bdd,2024-01-23_08h10.22.157,bars,2023.2.3,Win32,60.24096386,657b66ea316d21385b68909f,,,,,,,,,,,2273.055,2274.0531,,,2274.5463,2274.7867,,106,286,,,,,,,,,,,,,,,,bars/044.png,bars/mask004.png,,,,,,,,,,,,0,1,,,,,,,6,4,6,6,,,,,,,,,,,2274.0532,2274.5463,2274.7867,2281.4205,space,6.6172,,2281.4205,31,49,2282.413,2282.413,2282.4211,,,,0,23,23,23,1,75,155,,,,,,,,
,,5ea1660f4d0db50008ff86ed,65af5633f1fd1b2813087bdd,2024-01-23_08h10.22.157,bars,2023.2.3,Win32,60.24096386,657b66ea316d21385b68909f,,,,,,,,,,,2282.4211,2283.413,,,2283.9132,2284.1536,,102,102,,,,,,,,,,,,,,,,bars/009.png,bars/mask006.png,,,,,,,,,,,,1,2,,,,,,,4,2,3,1,,,,,,,,,,,2283.4131,2283.9131,2284.1536,2287.7374,space,3.5662,,2287.7374,87,3,2288.7369,2288.7369,2288.745,,,,0,24,24,24,1,15,105,,,,,,,,
,,5ea1660f4d0db50008ff86ed,65af5633f1fd1b2813087bdd,2024-01-23_08h10.22.157,bars,2023.2.3,Win32,60.24096386,657b66ea316d21385b68909f,,,,,,,,,,,2288.7451,2289.7368,,,2290.2369,2290.4871,,135,135,,,,,,,,,,,,,,,,bars/033.png,bars/mask004.png,,,,,,,,,,,,1,2,,,,,,,2,4,2,2,,,,,,,,,,,2289.7368,2290.2369,2290.4872,2296.4967,space,5.9902,,2296.4968,70,20,2297.4879,2297.488,2297.4958,,,,0,25,25,25,1,25,155,,,,,,,,
,,5ea1660f4d0db50008ff86ed,65af5633f1fd1b2813087bdd,2024-01-23_08h10.22.157,bars,2023.2.3,Win32,60.24096386,657b66ea316d21385b68909f,,,,,,,,,,,2297.4959,2298.4966,,,2298.9872,2299.2301,,73,253,,,,,,,,,,,,,,,,bars/046.png,bars/mask009.png,,,,,,,,,,,,4,2,,,,,,,4,6,4,6,,,,,,,,,,,2298.4966,2298.9871,2299.2301,2305.9208,space,6.6671,,2305.9208,82,12,2306.9214,2306.9214,2306.9294,,,,0,26,26,26,1,155,85,,,,,,,,
,,5ea1660f4d0db50008ff86ed,65af5633f1fd1b2813087bdd,2024-01-23_08h10.22.157,bars,2023.2.3,Win32,60.24096386,657b66ea316d21385b68909f,,,,,,,,,,,2306.9295,2307.9204,,,2308.4205,2308.6714,,43,43,,,,,,,,,,,,,,,,bars/007.png,bars/mask006.png,,,,,,,,,,,,1,2,,,,,,,2,4,1,1,,,,,,,,,,,2307.9205,2308.4205,2308.6715,2315.1375,space,6.4504,,2315.1375,48,12,2316.1302,2316.1302,2316.1383,,,,0,27,27,27,1,175,55,,,,,,,,
,,5ea1660f4d0db50008ff86ed,65af5633f1fd1b2813087bdd,2024-01-23_08h10.22.157,bars,2023.2.3,Win32,60.24096386,657b66ea316d21385b68909f,,,,,,,,,,,2316.1384,2317.1373,,,2317.6302,2317.8708,,75,255,,,,,,,,,,,,,,,,bars/026.png,bars/mask002.png,,,,,,,,,,,,2,2,,,,,,,4,2,5,3,,,,,,,,,,,2317.1374,2317.6302,2317.8708,2323.7213,space,5.8339,,2323.7214,40,10,2324.7206,2324.7206,2324.7283,,,,0,28,28,28,1,35,85,,,,,,,,
,,5ea1660f4d0db50008ff86ed,65af5633f1fd1b2813087bdd,2024-01-23_08h10.22.157,bars,2023.2.3,Win32,60.24096386,657b66ea316d21385b68909f,,,,,,,,,,,2324.7284,2325.7208,,,2326.2208,2326.4709,,137,137,,,,,,,,,,,,,,,,bars/035.png,bars/mask008.png,,,,,,,,,,,,0,1,,,,,,,2,0,3,0,,,,,,,,,,,2325.7208,2326.2207,2326.4709,2331.6213,space,5.1328,,2331.6213,38,77,2332.6138,2332.6138,2332.622,,,,0,29,29,29,1,175,60,,,,,,,,
,,5ea1660f4d0db50008ff86ed,65af5633f1fd1b2813087bdd,2024-01-23_08h10.22.157,bars,2023.2.3,Win32,60.24096386,657b66ea316d21385b68909f,,,,,,,,,,,2332.6222,2333.6207,,,2334.121,2334.371,,95,95,,,,,,,,,,,,,,,,bars/001.png,bars/mask002.png,,,,,,,,,,,,0,2,,,,,,,0,0,2,0,,,,,,,,,,,2333.6208,2334.121,2334.371,2340.4378,space,6.0504,,2340.4379,35,10,2341.4377,2341.4377,2341.4458,,,,0,30,30,30,1,130,85,,,,,,,,
,,5ea1660f4d0db50008ff86ed,65af5633f1fd1b2813087bdd,2024-01-23_08h10.22.157,bars,2023.2.3,Win32,60.24096386,657b66ea316d21385b68909f,,,,,,,,,,,2341.446,2342.4376,,,2342.9307,2343.1711,,76,76,,,,,,,,,,,,,,,,bars/023.png,bars/mask007.png,,,,,,,,,,,,0,2,,,,,,,2,0,1,0,,,,,,,,,,,2342.4376,2342.9306,2343.1711,2346.3546,space,3.167,,2346.3547,56,39,2347.3473,2347.3474,2347.3548,,,,0,31,31,31,1,20,115,,,,,,,,
,,5ea1660f4d0db50008ff86ed,65af5633f1fd1b2813087bdd,2024-01-23_08h10.22.157,bars,2023.2.3,Win32,60.24096386,657b66ea316d21385b68909f,,,,,,,,,,,2347.355,2348.3516,,,2348.8545,2349.0975,,140,140,,,,,,,,,,,,,,,,bars/033.png,bars/mask005.png,,,,,,,,,,,,0,2,,,,,,,0,0,0,0,,,,,,,,,,,2348.3516,2348.8545,2349.0975,2353.2048,space,4.0838,,2353.2048,65,15,2354.1979,2354.198,2354.2172,,,,0,32,32,32,1,25,155,,,,,,,,
,,5ea1660f4d0db50008ff86ed,65af5633f1fd1b2813087bdd,2024-01-23_08h10.22.157,bars,2023.2.3,Win32,60.24096386,657b66ea316d21385b68909f,,,,,,,,,,,2354.2174,2355.2211,,,2355.7213,2355.9643,,39,39,,,,,,,,,,,,,,,,bars/009.png,bars/mask001.png,,,,,,,,,,,,0,1,,,,,,,0,2,0,2,,,,,,,,,,,2355.2212,2355.7213,2355.9643,2359.9217,space,3.9335,,2359.9217,24,66,2360.9212,2360.9212,2360.9293,,,,0,33,33,33,1,15,105,,,,,,,,
,,5ea1660f4d0db50008ff86ed,65af5633f1fd1b2813087bdd,2024-01-23_08h10.22.157,bars,2023.2.3,Win32,60.24096386,657b66ea316d21385b68909f,,,,,,,,,,,2360.9294,2361.9213,,,2362.422,2362.6715,,47,47,,,,,,,,,,,,,,,,bars/006.png,bars/mask002.png,,,,,,,,,,,,1,1,,,,,,,2,0,2,1,,,,,,,,,,,2361.9213,2362.422,2362.6715,2369.7215,space,7.0335,,2369.7216,12,53,2370.7213,2370.7213,2370.7292,,,,0,34,34,34,1,35,100,,,,,,,,
,,5ea1660f4d0db50008ff86ed,65af5633f1fd1b2813087bdd,2024-01-23_08h10.22.157,bars,2023.2.3,Win32,60.24096386,657b66ea316d21385b68909f,,,,,,,,,,,2370.7293,2371.7187,,,2372.2144,2372.4644,,149,-31,,,,,,,,,,,,,,,,bars/049.png,bars/mask004.png,,,,,,,,,,,,0,1,,,,,,,0,2,0,1,,,,,,,,,,,2371.7187,2372.2144,2372.4644,2377.9218,space,5.4493,,2377.9219,11,34,2378.9145,2378.9145,2378.9223,,,,0,35,35,35,1,160,115,,,,,,,,
,,5ea1660f4d0db50008ff86ed,65af5633f1fd1b2813087bdd,2024-01-23_08h10.22.157,bars,2023.2.3,Win32,60.24096386,657b66ea316d21385b68909f,,,,,,,,,,,2378.9224,2379.9215,,,2380.4145,2380.655,,2,2,,,,,,,,,,,,,,,,bars/049.png,bars/mask001.png,,,,,,,,,,,,1,1,,,,,,,2,0,3,0,,,,,,,,,,,2379.9216,2380.4145,2380.655,2384.022,space,3.3503,,2384.022,22,67,2385.0227,2385.0227,2385.0299,,,,0,36,36,36,1,160,115,,,,,,,,
,,5ea1660f4d0db50008ff86ed,65af5633f1fd1b2813087bdd,2024-01-23_08h10.22.157,bars,2023.2.3,Win32,60.24096386,657b66ea316d21385b68909f,,,,,,,,,,,2385.0301,2386.0314,,,2386.5217,2386.7718,,153,153,,,,,,,,,,,,,,,,bars/030.png,bars/mask006.png,,,,,,,,,,,,3,1,,,,,,,4,2,5,1,,,,,,,,,,,2386.0314,2386.5217,2386.7718,2390.5481,space,3.7515,,2390.5481,13,88,2391.5384,2391.5385,2391.546,,,,0,37,37,37,1,140,65,,,,,,,,
,,5ea1660f4d0db50008ff86ed,65af5633f1fd1b2813087bdd,2024-01-23_08h10.22.157,bars,2023.2.3,Win32,60.24096386,657b66ea316d21385b68909f,,,,,,,,,,,2391.5461,2392.548,,,2393.0481,2393.2886,,48,48,,,,,,,,,,,,,,,,bars/022.png,bars/mask000.png,,,,,,,,,,,,0,2,,,,,,,2,4,2,5,,,,,,,,,,,2392.5481,2393.048,2393.2886,2397.3389,space,4.0336,,2397.3389,47,28,2398.3385,2398.3385,2398.3465,,,,0,38,38,38,1,95,20,,,,,,,,
,,5ea1660f4d0db50008ff86ed,65af5633f1fd1b2813087bdd,2024-01-23_08h10.22.157,bars,2023.2.3,Win32,60.24096386,657b66ea316d21385b68909f,,,,,,,,,,,2398.3466,2399.3385,,,2399.8388,2400.0888,,153,153,,,,,,,,,,,,,,,,bars/023.png,bars/mask006.png,,,,,,,,,,,,0,2,,,,,,,4,6,3,6,,,,,,,,,,,2399.3385,2399.8387,2400.0888,2406.189,space,6.0839,,2406.189,47,38,2407.1888,2407.1888,2407.1967,,,,0,39,39,39,1,20,115,,,,,,,,
,,5ea1660f4d0db50008ff86ed,65af5633f1fd1b2813087bdd,2024-01-23_08h10.22.157,bars,2023.2.3,Win32,60.24096386,657b66ea316d21385b68909f,,,,,,,,,,,2407.1968,2408.1983,,,2408.6983,2408.9386,,61,61,,,,,,,,,,,,,,,,bars/047.png,bars/mask002.png,,,,,,,,,,,,2,2,,,,,,,2,4,1,3,,,,,,,,,,,2408.1983,2408.6983,2408.9386,2413.6224,space,4.6672,,2413.6224,46,9,2414.6149,2414.615,2414.6226,,,,0,40,40,40,1,15,70,,,,,,,,
,,5ea1660f4d0db50008ff86ed,65af5633f1fd1b2813087bdd,2024-01-23_08h10.22.157,bars,2023.2.3,Win32,60.24096386,657b66ea316d21385b68909f,,,,,,,,,,,2414.6228,2415.6151,,,2416.1055,2416.3485,,60,60,,,,,,,,,,,,,,,,bars/007.png,bars/mask008.png,,,,,,,,,,,,2,2,,,,,,,4,2,3,2,,,,,,,,,,,2415.6151,2416.1055,2416.3485,2421.9393,space,5.567,,2421.9393,65,5,2422.9387,2422.9387,2422.947,,,,0,41,41,41,1,175,55,,,,,,,,
,,5ea1660f4d0db50008ff86ed,65af5633f1fd1b2813087bdd,2024-01-23_08h10.22.157,bars,2023.2.3,Win32,60.24096386,657b66ea316d21385b68909f,,,,,,,,,,,2422.9471,2423.9557,,,2424.4486,2424.689,,63,63,,,,,,,,,,,,,,,,bars/029.png,bars/mask009.png,,,,,,,,,,,,0,2,,,,,,,6,0,7,1,,,,,,,,,,,2423.9557,2424.4486,2424.689,2428.132,space,3.4304,,2428.1321,27,18,2429.1224,2429.1224,2429.1297,,,,0,42,42,42,1,90,45,,,,,,,,
,,5ea1660f4d0db50008ff86ed,65af5633f1fd1b2813087bdd,2024-01-23_08h10.22.157,bars,2023.2.3,Win32,60.24096386,657b66ea316d21385b68909f,,,,,,,,,,,2429.1299,2430.1222,,,2430.6225,2430.8724,,178,178,,,,,,,,,,,,,,,,bars/012.png,bars/mask003.png,,,,,,,,,,,,0,2,,,,,,,4,0,6,0,,,,,,,,,,,2430.1222,2430.6225,2430.8725,2435.6726,space,4.7827,,2435.6727,88,17,2436.6722,2436.6723,2436.6798,,,,0,43,43,43,1,90,15,,,,,,,,
,,5ea1660f4d0db50008ff86ed,65af5633f1fd1b2813087bdd,2024-01-23_08h10.22.157,bars,2023.2.3,Win32,60.24096386,657b66ea316d21385b68909f,,,,,,,,,,,2436.6799,2437.6723,,,2438.1654,2438.406,,172,172,,,,,,,,,,,,,,,,bars/018.png,bars/mask003.png,,,,,,,,,,,,1,1,,,,,,,2,0,2,0,,,,,,,,,,,2437.6723,2438.1654,2438.406,2443.7564,space,5.3337,,2443.7564,22,82,2444.7489,2444.7489,2444.7571,,,,0,44,44,44,1,150,90,,,,,,,,
,,5ea1660f4d0db50008ff86ed,65af5633f1fd1b2813087bdd,2024-01-23_08h10.22.157,bars,2023.2.3,Win32,60.24096386,657b66ea316d21385b68909f,,,,,,,,,,,2444.7573,2445.7488,,,2446.2488,2446.5059,,60,60,,,,,,,,,,,,,,,,bars/013.png,bars/mask001.png,,,,,,,,,,,,0,1,,,,,,,0,0,0,2,,,,,,,,,,,2445.7489,2446.2488,2446.5059,2450.3396,space,3.8161,,2450.3396,15,50,2451.3323,2451.3323,2451.3398,,,,0,45,45,45,1,75,10,,,,,,,,
,,5ea1660f4d0db50008ff86ed,65af5633f1fd1b2813087bdd,2024-01-23_08h10.22.157,bars,2023.2.3,Win32,60.24096386,657b66ea316d21385b68909f,,,,,,,,,,,2451.34,2452.3323,,,2452.82,2453.0726,,59,59,,,,,,,,,,,,,,,,bars/047.png,bars/mask008.png,,,,,,,,,,,,1,2,,,,,,,2,2,2,1,,,,,,,,,,,2452.3323,2452.82,2453.0727,2456.9731,space,3.8837,,2456.9732,44,11,2457.9725,2457.9726,2457.9808,,,,0,46,46,46,1,15,70,,,,,,,,
,,5ea1660f4d0db50008ff86ed,65af5633f1fd1b2813087bdd,2024-01-23_08h10.22.157,bars,2023.2.3,Win32,60.24096386,657b66ea316d21385b68909f,,,,,,,,,,,2457.9809,2458.9728,,,2459.4729,2459.7227,,53,53,,,,,,,,,,,,,,,,bars/031.png,bars/mask005.png,,,,,,,,,,,,0,2,,,,,,,4,0,5,1,,,,,,,,,,,2458.9728,2459.4729,2459.7227,2462.9232,space,3.1838,,2462.9232,67,18,2463.9228,2463.9228,2463.9303,,,,0,47,47,47,1,120,35,,,,,,,,
,,5ea1660f4d0db50008ff86ed,65af5633f1fd1b2813087bdd,2024-01-23_08h10.22.157,bars,2023.2.3,Win32,60.24096386,657b66ea316d21385b68909f,,,,,,,,,,,2463.9305,2464.9324,,,2465.4324,2465.6825,,55,55,,,,,,,,,,,,,,,,bars/022.png,bars/mask006.png,,,,,,,,,,,,0,2,,,,,,,6,2,7,3,,,,,,,,,,,2464.9325,2465.4324,2465.6825,2468.3076,space,2.6016,,2468.3077,40,35,2469.3063,2469.3063,2469.3137,,,,0,48,48,48,1,95,20,,,,,,,,
,,5ea1660f4d0db50008ff86ed,65af5633f1fd1b2813087bdd,2024-01-23_08h10.22.157,bars,2023.2.3,Win32,60.24096386,657b66ea316d21385b68909f,,,,,,,,,,,2469.3138,2470.3229,,,2470.8159,2471.0659,,71,71,,,,,,,,,,,,,,,,bars/025.png,bars/mask003.png,,,,,,,,,,,,0,2,,,,,,,4,4,3,4,,,,,,,,,,,2470.3229,2470.8159,2471.0659,2476.1493,space,5.0525,,2476.1494,34,31,2477.1395,2477.1395,2477.1469,,,,0,49,49,49,1,105,40,,,,,,,,
,,5ea1660f4d0db50008ff86ed,65af5633f1fd1b2813087bdd,2024-01-23_08h10.22.157,bars,2023.2.3,Win32,60.24096386,657b66ea316d21385b68909f,,,,,,,,,,,,,,,,,,,,,,,,,,,,,,,,,,,,,,,,,,,,,,,,,,,,,,,,,,,,,,,,,,,,,,,,,,,,,,,,,,,,,,,,,,,,,2477.1471,2537.1502,0,2,2,4,1,sequence_tables/blk023.csv
,,5ea1660f4d0db50008ff86ed,65af5633f1fd1b2813087bdd,2024-01-23_08h10.22.157,bars,2023.2.3,Win32,60.24096386,657b66ea316d21385b68909f,,,,,,,,,,,2539.7288,2540.7238,,,2541.2241,2541.474,,60,60,,,,,,,,,,,,,,,,bars/007.png,bars/mask006.png,,,,,,,,,,,,3,2,,,,,,,0,3,0,3,,,,,,2537.1581,2539.7245,space,2.5503,,2540.7238,2541.2241,2541.4741,2548.8338,space,7.3382,,2548.8338,65,5,2549.8337,2549.8337,2549.8423,,,,0,0,0,0,1,175,55,,,,,,,,
,,5ea1660f4d0db50008ff86ed,65af5633f1fd1b2813087bdd,2024-01-23_08h10.22.157,bars,2023.2.3,Win32,60.24096386,657b66ea316d21385b68909f,,,,,,,,,,,2549.8424,2550.8337,,,2551.3411,2551.5838,,116,116,,,,,,,,,,,,,,,,bars/028.png,bars/mask004.png,,,,,,,,,,,,5,2,,,,,,,2,5,0,6,,,,,,,,,,,2550.8337,2551.341,2551.5838,2555.3912,space,3.7993,,2555.3912,71,4,2556.3907,2556.3908,2556.3983,,,,0,1,1,1,1,45,120,,,,,,,,
,,5ea1660f4d0db50008ff86ed,65af5633f1fd1b2813087bdd,2024-01-23_08h10.22.157,bars,2023.2.3,Win32,60.24096386,657b66ea316d21385b68909f,,,,,,,,,,,2556.3983,2557.3907,,,2557.8839,2558.1338,,140,-40,,,,,,,,,,,,,,,,bars/024.png,bars/mask003.png,,,,,,,,,,,,0,1,,,,,,,0,7,0,6,,,,,,,,,,,2557.3907,2557.8839,2558.1339,2564.5889,space,6.4478,,2564.5889,20,30,2565.5918,2565.5918,2565.6004,,,,0,2,2,2,1,120,170,,,,,,,,
,,5ea1660f4d0db50008ff86ed,65af5633f1fd1b2813087bdd,2024-01-23_08h10.22.157,bars,2023.2.3,Win32,60.24096386,657b66ea316d21385b68909f,,,,,,,,,,,2565.6005,2566.591,,,2567.0911,2567.341,,99,-81,,,,,,,,,,,,,,,,bars/026.png,bars/mask005.png,,,,,,,,,,,,3,2,,,,,,,2,5,2,5,,,,,,,,,,,2566.591,2567.0911,2567.3411,2573.3675,space,6.0004,,2573.3675,64,14,2574.3577,2574.3578,2574.3666,,,,0,3,3,3,1,35,85,,,,,,,,
,,5ea1660f4d0db50008ff86ed,65af5633f1fd1b2813087bdd,2024-01-23_08h10.22.157,bars,2023.2.3,Win32,60.24096386,657b66ea316d21385b68909f,,,,,,,,,,,2574.3668,2575.3745,,,2575.8747,2576.1175,,132,-48,,,,,,,,,,,,,,,,bars/005.png,bars/mask006.png,,,,,,,,,,,,5,2,,,,,,,0,7,0,7,,,,,,,,,,,2575.3745,2575.8747,2576.1175,2583.1248,space,6.9837,,2583.1248,58,8,2584.1244,2584.1245,2584.1322,,,,0,4,4,4,1,10,140,,,,,,,,
,,5ea1660f4d0db50008ff86ed,65af5633f1fd1b2813087bdd,2024-01-23_08h10.22.157,bars,2023.2.3,Win32,60.24096386,657b66ea316d21385b68909f,,,,,,,,,,,2584.1324,2585.1421,,,2585.6415,2585.8842,,47,47,,,,,,,,,,,,,,,,bars/029.png,bars/mask007.png,,,,,,,,,,,,5,2,,,,,,,2,5,3,5,,,,,,,,,,,2585.1421,2585.6415,2585.8843,2588.5677,space,2.667,,2588.5678,43,2,2589.5677,2589.5677,2589.5752,,,,0,5,5,5,1,90,45,,,,,,,,
,,5ea1660f4d0db50008ff86ed,65af5633f1fd1b2813087bdd,2024-01-23_08h10.22.157,bars,2023.2.3,Win32,60.24096386,657b66ea316d21385b68909f,,,,,,,,,,,2589.5753,2590.5747,,,2591.0759,2591.3249,,2,2,,,,,,,,,,,,,,,,bars/033.png,bars/mask003.png,,,,,,,,,,,,0,1,,,,,,,0,3,0,2,,,,,,,,,,,2590.5747,2591.0759,2591.3249,2597.1086,space,5.7672,,2597.1087,23,27,2598.1081,2598.1081,2598.1168,,,,0,6,6,6,1,25,155,,,,,,,,
,,5ea1660f4d0db50008ff86ed,65af5633f1fd1b2813087bdd,2024-01-23_08h10.22.157,bars,2023.2.3,Win32,60.24096386,657b66ea316d21385b68909f,,,,,,,,,,,2598.1169,2599.1081,,,2599.6012,2599.8415,,132,-48,,,,,,,,,,,,,,,,bars/028.png,bars/mask006.png,,,,,,,,,,,,3,2,,,,,,,2,5,3,5,,,,,,,,,,,2599.1081,2599.6011,2599.8415,2607.742,space,7.884,,2607.7421,87,12,2608.7346,2608.7346,2608.7431,,,,0,7,7,7,1,45,120,,,,,,,,
,,5ea1660f4d0db50008ff86ed,65af5633f1fd1b2813087bdd,2024-01-23_08h10.22.157,bars,2023.2.3,Win32,60.24096386,657b66ea316d21385b68909f,,,,,,,,,,,2608.7433,2609.7415,,,2610.2417,2610.4846,,108,108,,,,,,,,,,,,,,,,bars/021.png,bars/mask005.png,,,,,,,,,,,,0,2,,,,,,,0,7,0,8,,,,,,,,,,,2609.7415,2610.2417,2610.4846,2614.0015,space,3.504,,2614.0015,47,38,2615.0013,2615.0013,2615.0091,,,,0,8,8,8,1,155,70,,,,,,,,
,,5ea1660f4d0db50008ff86ed,65af5633f1fd1b2813087bdd,2024-01-23_08h10.22.157,bars,2023.2.3,Win32,60.24096386,657b66ea316d21385b68909f,,,,,,,,,,,2615.0093,2616.0082,,,2616.5087,2616.7513,,137,-43,,,,,,,,,,,,,,,,bars/033.png,bars/mask003.png,,,,,,,,,,,,2,2,,,,,,,2,5,3,5,,,,,,,,,,,2616.0082,2616.5087,2616.7513,2625.0184,space,8.2376,,2625.0185,68,18,2626.0182,2626.0182,2626.0188,,,,0,9,9,9,1,25,155,,,,,,,,
,,5ea1660f4d0db50008ff86ed,65af5633f1fd1b2813087bdd,2024-01-23_08h10.22.157,bars,2023.2.3,Win32,60.24096386,657b66ea316d21385b68909f,,,,,,,,,,,2626.0189,2627.0085,,,2627.5086,2627.7588,,136,136,,,,,,,,,,,,,,,,bars/034.png,bars/mask002.png,,,,,,,,,,,,1,1,,,,,,,0,7,1,7,,,,,,,,,,,2627.0085,2627.5085,2627.7588,2630.3923,space,2.6171,,2630.3924,11,71,2631.3919,2631.3919,2631.4002,,,,0,10,10,10,1,125,65,,,,,,,,
,,5ea1660f4d0db50008ff86ed,65af5633f1fd1b2813087bdd,2024-01-23_08h10.22.157,bars,2023.2.3,Win32,60.24096386,657b66ea316d21385b68909f,,,,,,,,,,,2631.4003,2632.4016,,,2632.892,2633.1349,,164,-16,,,,,,,,,,,,,,,,bars/013.png,bars/mask001.png,,,,,,,,,,,,1,2,,,,,,,0,9,1,10,,,,,,,,,,,2632.4016,2632.892,2633.135,2642.5731,space,9.4299,,2642.5731,89,26,2643.5684,2643.5685,2643.5773,,,,0,11,11,11,1,75,10,,,,,,,,
,,5ea1660f4d0db50008ff86ed,65af5633f1fd1b2813087bdd,2024-01-23_08h10.22.157,bars,2023.2.3,Win32,60.24096386,657b66ea316d21385b68909f,,,,,,,,,,,2643.5774,2644.5741,,,2645.0756,2645.3257,,35,215,,,,,,,,,,,,,,,,bars/029.png,bars/mask007.png,,,,,,,,,,,,5,2,,,,,,,2,7,2,7,,,,,,,,,,,2644.5741,2645.0756,2645.3257,2652.326,space,6.9839,,2652.326,55,10,2653.3255,2653.3255,2653.3333,,,,0,12,12,12,1,90,45,,,,,,,,
,,5ea1660f4d0db50008ff86ed,65af5633f1fd1b2813087bdd,2024-01-23_08h10.22.157,bars,2023.2.3,Win32,60.24096386,657b66ea316d21385b68909f,,,,,,,,,,,2653.3334,2654.3256,,,2654.8186,2655.0591,,99,99,,,,,,,,,,,,,,,,bars/022.png,bars/mask002.png,,,,,,,,,,,,3,1,,,,,,,4,5,3,5,,,,,,,,,,,2654.3256,2654.8186,2655.0592,2660.0262,space,4.9616,,2660.0262,4,79,2661.0257,2661.0257,2661.0338,,,,0,13,13,13,1,95,20,,,,,,,,
,,5ea1660f4d0db50008ff86ed,65af5633f1fd1b2813087bdd,2024-01-23_08h10.22.157,bars,2023.2.3,Win32,60.24096386,657b66ea316d21385b68909f,,,,,,,,,,,2661.0339,2662.0256,,,2662.5187,2662.7593,,156,156,,,,,,,,,,,,,,,,bars/046.png,bars/mask003.png,,,,,,,,,,,,1,1,,,,,,,2,3,1,3,,,,,,,,,,,2662.0256,2662.5187,2662.7593,2666.5524,space,3.7735,,2666.5524,1,71,2667.5423,2667.5424,2667.5498,,,,0,14,14,14,1,155,85,,,,,,,,
,,5ea1660f4d0db50008ff86ed,65af5633f1fd1b2813087bdd,2024-01-23_08h10.22.157,bars,2023.2.3,Win32,60.24096386,657b66ea316d21385b68909f,,,,,,,,,,,2667.5499,2668.5425,,,2669.0426,2669.2855,,55,55,,,,,,,,,,,,,,,,bars/035.png,bars/mask007.png,,,,,,,,,,,,3,2,,,,,,,4,1,3,3,,,,,,,,,,,2668.5425,2669.0426,2669.2855,2673.3429,space,4.0495,,2673.343,60,5,2674.3355,2674.3356,2674.3438,,,,0,15,15,15,1,175,60,,,,,,,,
,,5ea1660f4d0db50008ff86ed,65af5633f1fd1b2813087bdd,2024-01-23_08h10.22.157,bars,2023.2.3,Win32,60.24096386,657b66ea316d21385b68909f,,,,,,,,,,,2674.3439,2675.3424,,,2675.8427,2676.0857,,140,140,,,,,,,,,,,,,,,,bars/044.png,bars/mask001.png,,,,,,,,,,,,0,2,,,,,,,6,0,5,0,,,,,,,,,,,2675.3424,2675.8427,2676.0857,2678.719,space,2.6181,,2678.7191,65,15,2679.7189,2679.719,2679.7265,,,,0,16,16,16,1,75,155,,,,,,,,
,,5ea1660f4d0db50008ff86ed,65af5633f1fd1b2813087bdd,2024-01-23_08h10.22.157,bars,2023.2.3,Win32,60.24096386,657b66ea316d21385b68909f,,,,,,,,,,,2679.7266,2680.7189,,,2681.2094,2681.4595,,58,-122,,,,,,,,,,,,,,,,bars/029.png,bars/mask006.png,,,,,,,,,,,,1,2,,,,,,,4,2,5,2,,,,,,,,,,,2680.7189,2681.2093,2681.4595,2688.6765,space,7.2006,,2688.6766,32,13,2689.6762,2689.6762,2689.684,,,,0,17,17,17,1,90,45,,,,,,,,
,,5ea1660f4d0db50008ff86ed,65af5633f1fd1b2813087bdd,2024-01-23_08h10.22.157,bars,2023.2.3,Win32,60.24096386,657b66ea316d21385b68909f,,,,,,,,,,,2689.6842,2690.6857,,,2691.1763,2691.4262,,16,16,,,,,,,,,,,,,,,,bars/012.png,bars/mask009.png,,,,,,,,,,,,4,2,,,,,,,6,4,7,4,,,,,,,,,,,2690.6857,2691.1763,2691.4262,2696.7601,space,5.3172,,2696.7602,74,1,2697.7596,2697.7596,2697.7672,,,,0,18,18,18,1,90,15,,,,,,,,
,,5ea1660f4d0db50008ff86ed,65af5633f1fd1b2813087bdd,2024-01-23_08h10.22.157,bars,2023.2.3,Win32,60.24096386,657b66ea316d21385b68909f,,,,,,,,,,,2697.7673,2698.7596,,,2699.2598,2699.5099,,115,115,,,,,,,,,,,,,,,,bars/001.png,bars/mask008.png,,,,,,,,,,,,3,1,,,,,,,4,2,6,3,,,,,,,,,,,2698.7596,2699.2598,2699.5099,2702.8932,space,3.3669,,2702.8932,15,30,2703.893,2703.893,2703.9012,,,,0,19,19,19,1,130,85,,,,,,,,
,,5ea1660f4d0db50008ff86ed,65af5633f1fd1b2813087bdd,2024-01-23_08h10.22.157,bars,2023.2.3,Win32,60.24096386,657b66ea316d21385b68909f,,,,,,,,,,,2703.9013,2704.9027,,,2705.3932,2705.6432,,45,45,,,,,,,,,,,,,,,,bars/048.png,bars/mask004.png,,,,,,,,,,,,7,1,,,,,,,6,4,8,4,,,,,,,,,,,2704.9027,2705.3932,2705.6432,2709.6269,space,3.9671,,2709.6269,5,50,2710.6194,2710.6195,2710.6271,,,,0,20,20,20,1,50,175,,,,,,,,
,,5ea1660f4d0db50008ff86ed,65af5633f1fd1b2813087bdd,2024-01-23_08h10.22.157,bars,2023.2.3,Win32,60.24096386,657b66ea316d21385b68909f,,,,,,,,,,,2710.6271,2711.6195,,,2712.1071,2712.36,,165,165,,,,,,,,,,,,,,,,bars/021.png,bars/mask009.png,,,,,,,,,,,,6,1,,,,,,,8,6,9,6,,,,,,,,,,,2711.6195,2712.1071,2712.36,2718.0366,space,5.6601,,2718.0366,10,85,2719.0265,2719.0265,2719.0343,,,,0,21,21,21,1,155,70,,,,,,,,
,,5ea1660f4d0db50008ff86ed,65af5633f1fd1b2813087bdd,2024-01-23_08h10.22.157,bars,2023.2.3,Win32,60.24096386,657b66ea316d21385b68909f,,,,,,,,,,,2719.0344,2720.0264,,,2720.5266,2720.7767,,20,20,,,,,,,,,,,,,,,,bars/040.png,bars/mask006.png,,,,,,,,,,,,4,2,,,,,,,10,8,9,8,,,,,,,,,,,2720.0264,2720.5266,2720.7767,2725.2271,space,4.4326,,2725.2271,60,15,2726.2265,2726.2266,2726.2347,,,,0,22,22,22,1,140,5,,,,,,,,
,,5ea1660f4d0db50008ff86ed,65af5633f1fd1b2813087bdd,2024-01-23_08h10.22.157,bars,2023.2.3,Win32,60.24096386,657b66ea316d21385b68909f,,,,,,,,,,,2726.2349,2727.2434,,,2727.7444,2727.9863,,26,26,,,,,,,,,,,,,,,,bars/004.png,bars/mask003.png,,,,,,,,,,,,7,1,,,,,,,8,10,7,10,,,,,,,,,,,2727.2434,2727.7443,2727.9863,2731.1113,space,3.1169,,2731.1113,1,81,2732.11,2732.1101,2732.1183,,,,0,23,23,23,1,25,125,,,,,,,,
,,5ea1660f4d0db50008ff86ed,65af5633f1fd1b2813087bdd,2024-01-23_08h10.22.157,bars,2023.2.3,Win32,60.24096386,657b66ea316d21385b68909f,,,,,,,,,,,2732.1184,2733.1099,,,2733.6103,2733.8603,,19,19,,,,,,,,,,,,,,,,bars/004.png,bars/mask007.png,,,,,,,,,,,,8,1,,,,,,,10,8,10,8,,,,,,,,,,,2733.1099,2733.6103,2733.8603,2737.7604,space,3.8835,,2737.7605,6,74,2738.76,2738.7601,2738.7676,,,,0,24,24,24,1,25,125,,,,,,,,
,,5ea1660f4d0db50008ff86ed,65af5633f1fd1b2813087bdd,2024-01-23_08h10.22.157,bars,2023.2.3,Win32,60.24096386,657b66ea316d21385b68909f,,,,,,,,,,,2738.7677,2739.7612,,,2740.2601,2740.5032,,83,-97,,,,,,,,,,,,,,,,bars/029.png,bars/mask001.png,,,,,,,,,,,,8,1,,,,,,,8,6,10,6,,,,,,,,,,,2739.7612,2740.2601,2740.5032,2746.1034,space,5.568,,2746.1035,7,38,2747.1088,2747.1088,2747.1168,,,,0,25,25,25,1,90,45,,,,,,,,
,,5ea1660f4d0db50008ff86ed,65af5633f1fd1b2813087bdd,2024-01-23_08h10.22.157,bars,2023.2.3,Win32,60.24096386,657b66ea316d21385b68909f,,,,,,,,,,,2747.1169,2748.1102,,,2748.6033,2748.8437,,16,16,,,,,,,,,,,,,,,,bars/038.png,bars/mask005.png,,,,,,,,,,,,0,1,,,,,,,6,4,6,4,,,,,,,,,,,2748.1102,2748.6033,2748.8438,2752.3275,space,3.4671,,2752.3275,31,54,2753.32,2753.32,2753.3276,,,,0,26,26,26,1,165,70,,,,,,,,
,,5ea1660f4d0db50008ff86ed,65af5633f1fd1b2813087bdd,2024-01-23_08h10.22.157,bars,2023.2.3,Win32,60.24096386,657b66ea316d21385b68909f,,,,,,,,,,,2753.3277,2754.327,,,2754.8271,2755.0773,,37,217,,,,,,,,,,,,,,,,bars/023.png,bars/mask001.png,,,,,,,,,,,,3,1,,,,,,,8,6,8,7,,,,,,,,,,,2754.327,2754.8271,2755.0773,2758.9869,space,3.8883,,2758.9869,17,78,2759.9771,2759.9771,2759.9845,,,,0,27,27,27,1,20,115,,,,,,,,
,,5ea1660f4d0db50008ff86ed,65af5633f1fd1b2813087bdd,2024-01-23_08h10.22.157,bars,2023.2.3,Win32,60.24096386,657b66ea316d21385b68909f,,,,,,,,,,,2759.9846,2760.9868,,,2761.4772,2761.7201,,168,168,,,,,,,,,,,,,,,,bars/036.png,bars/mask002.png,,,,,,,,,,,,2,1,,,,,,,6,8,8,10,,,,,,,,,,,2760.9868,2761.4772,2761.7202,2766.9776,space,5.2337,,2766.9776,23,32,2767.9772,2767.9772,2767.9847,,,,0,28,28,28,1,145,20,,,,,,,,
,,5ea1660f4d0db50008ff86ed,65af5633f1fd1b2813087bdd,2024-01-23_08h10.22.157,bars,2023.2.3,Win32,60.24096386,657b66ea316d21385b68909f,,,,,,,,,,,2767.9849,2768.9771,,,2769.4702,2769.7118,,73,73,,,,,,,,,,,,,,,,bars/022.png,bars/mask009.png,,,,,,,,,,,,2,1,,,,,,,8,6,7,6,,,,,,,,,,,2768.9771,2769.4702,2769.7118,2775.7445,space,6.0171,,2775.7445,22,53,2776.737,2776.737,2776.7446,,,,0,29,29,29,1,95,20,,,,,,,,
,,5ea1660f4d0db50008ff86ed,65af5633f1fd1b2813087bdd,2024-01-23_08h10.22.157,bars,2023.2.3,Win32,60.24096386,657b66ea316d21385b68909f,,,,,,,,,,,2776.7447,2777.737,,,2778.2276,2778.4776,,132,132,,,,,,,,,,,,,,,,bars/005.png,bars/mask008.png,,,,,,,,,,,,6,2,,,,,,,10,8,10,8,,,,,,,,,,,2777.7371,2778.2276,2778.4776,2783.0445,space,4.5495,,2783.0445,58,8,2784.0452,2784.0452,2784.0532,,,,0,30,30,30,1,10,140,,,,,,,,
,,5ea1660f4d0db50008ff86ed,65af5633f1fd1b2813087bdd,2024-01-23_08h10.22.157,bars,2023.2.3,Win32,60.24096386,657b66ea316d21385b68909f,,,,,,,,,,,2784.0534,2785.0538,,,2785.5444,2785.7944,,108,108,,,,,,,,,,,,,,,,bars/004.png,bars/mask009.png,,,,,,,,,,,,4,2,,,,,,,8,10,6,9,,,,,,,,,,,2785.0539,2785.5443,2785.7944,2790.8449,space,5.0329,,2790.8449,83,17,2791.8444,2791.8444,2791.8518,,,,0,31,31,31,1,25,125,,,,,,,,
,,5ea1660f4d0db50008ff86ed,65af5633f1fd1b2813087bdd,2024-01-23_08h10.22.157,bars,2023.2.3,Win32,60.24096386,657b66ea316d21385b68909f,,,,,,,,,,,2791.8519,2792.8442,,,2793.3444,2793.5944,,29,29,,,,,,,,,,,,,,,,bars/025.png,bars/mask006.png,,,,,,,,,,,,5,2,,,,,,,6,8,6,8,,,,,,,,,,,2792.8442,2793.3444,2793.5944,2796.5707,space,2.9534,,2796.5707,76,11,2797.5707,2797.5707,2797.5784,,,,0,32,32,32,1,105,40,,,,,,,,
,,5ea1660f4d0db50008ff86ed,65af5633f1fd1b2813087bdd,2024-01-23_08h10.22.157,bars,2023.2.3,Win32,60.24096386,657b66ea316d21385b68909f,,,,,,,,,,,2797.5785,2798.5707,,,2799.062,2799.3112,,109,109,,,,,,,,,,,,,,,,bars/006.png,bars/mask006.png,,,,,,,,,,,,7,2,,,,,,,8,10,8,10,,,,,,,,,,,2798.5707,2799.062,2799.3112,2801.0615,space,1.7327,,2801.0615,74,9,2802.0611,2802.0611,2802.0687,,,,0,33,33,33,1,35,100,,,,,,,,
,,5ea1660f4d0db50008ff86ed,65af5633f1fd1b2813087bdd,2024-01-23_08h10.22.157,bars,2023.2.3,Win32,60.24096386,657b66ea316d21385b68909f,,,,,,,,,,,2802.0687,2803.0708,,,2803.5613,2803.8041,,36,36,,,,,,,,,,,,,,,,bars/036.png,bars/mask000.png,,,,,,,,,,,,5,2,,,,,,,6,8,6,10,,,,,,,,,,,2803.0708,2803.5612,2803.8041,2808.6875,space,4.872,,2808.6876,71,16,2809.6778,2809.6778,2809.6857,,,,0,34,34,34,1,145,20,,,,,,,,
,,5ea1660f4d0db50008ff86ed,65af5633f1fd1b2813087bdd,2024-01-23_08h10.22.157,bars,2023.2.3,Win32,60.24096386,657b66ea316d21385b68909f,,,,,,,,,,,2809.6858,2810.6777,,,2811.1711,2811.4115,,17,17,,,,,,,,,,,,,,,,bars/036.png,bars/mask009.png,,,,,,,,,,,,5,2,,,,,,,4,6,4,6,,,,,,,,,,,2810.6777,2811.171,2811.4115,2816.7949,space,5.3669,,2816.795,52,3,2817.7876,2817.7876,2817.7956,,,,0,35,35,35,1,145,20,,,,,,,,
,,5ea1660f4d0db50008ff86ed,65af5633f1fd1b2813087bdd,2024-01-23_08h10.22.157,bars,2023.2.3,Win32,60.24096386,657b66ea316d21385b68909f,,,,,,,,,,,2817.7957,2818.7876,,,2819.2781,2819.5282,,92,92,,,,,,,,,,,,,,,,bars/021.png,bars/mask000.png,,,,,,,,,,,,1,2,,,,,,,2,4,2,4,,,,,,,,,,,2818.7876,2819.2781,2819.5282,2824.1787,space,4.6339,,2824.1788,63,22,2825.1711,2825.1711,2825.1787,,,,0,36,36,36,1,155,70,,,,,,,,
,,5ea1660f4d0db50008ff86ed,65af5633f1fd1b2813087bdd,2024-01-23_08h10.22.157,bars,2023.2.3,Win32,60.24096386,657b66ea316d21385b68909f,,,,,,,,,,,2825.1787,2826.178,,,2826.6711,2826.9212,,140,140,,,,,,,,,,,,,,,,bars/000.png,bars/mask002.png,,,,,,,,,,,,3,2,,,,,,,4,6,4,4,,,,,,,,,,,2826.178,2826.6711,2826.9212,2830.4379,space,3.4848,,2830.4379,80,5,2831.4281,2831.4281,2831.4356,,,,0,37,37,37,1,40,145,,,,,,,,
,,5ea1660f4d0db50008ff86ed,65af5633f1fd1b2813087bdd,2024-01-23_08h10.22.157,bars,2023.2.3,Win32,60.24096386,657b66ea316d21385b68909f,,,,,,,,,,,2831.4357,2832.4281,,,2832.9283,2833.1793,,72,72,,,,,,,,,,,,,,,,bars/034.png,bars/mask003.png,,,,,,,,,,,,5,2,,,,,,,2,8,1,7,,,,,,,,,,,2832.4282,2832.9283,2833.1793,2838.8121,space,5.6173,,2838.8122,53,7,2839.8117,2839.8117,2839.8191,,,,0,38,38,38,1,125,65,,,,,,,,
,,5ea1660f4d0db50008ff86ed,65af5633f1fd1b2813087bdd,2024-01-23_08h10.22.157,bars,2023.2.3,Win32,60.24096386,657b66ea316d21385b68909f,,,,,,,,,,,2839.8192,2840.8213,,,2841.3116,2841.5617,,148,148,,,,,,,,,,,,,,,,bars/005.png,bars/mask008.png,,,,,,,,,,,,7,2,,,,,,,4,10,5,10,,,,,,,,,,,2840.8214,2841.3116,2841.5617,2845.9288,space,4.3504,,2845.9288,42,8,2846.9284,2846.9284,2846.9361,,,,0,39,39,39,1,10,140,,,,,,,,
,,5ea1660f4d0db50008ff86ed,65af5633f1fd1b2813087bdd,2024-01-23_08h10.22.157,bars,2023.2.3,Win32,60.24096386,657b66ea316d21385b68909f,,,,,,,,,,,2846.9362,2847.938,,,2848.4286,2848.677,,169,-11,,,,,,,,,,,,,,,,bars/040.png,bars/mask006.png,,,,,,,,,,,,3,2,,,,,,,6,8,7,7,,,,,,,,,,,2847.938,2848.4285,2848.6771,2855.3122,space,6.6171,,2855.3122,29,16,2856.3117,2856.3118,2856.3197,,,,0,40,40,40,1,140,5,,,,,,,,
,,5ea1660f4d0db50008ff86ed,65af5633f1fd1b2813087bdd,2024-01-23_08h10.22.157,bars,2023.2.3,Win32,60.24096386,657b66ea316d21385b68909f,,,,,,,,,,,2856.3198,2857.3284,,,2857.8286,2858.0716,,85,85,,,,,,,,,,,,,,,,bars/018.png,bars/mask002.png,,,,,,,,,,,,6,2,,,,,,,4,6,5,7,,,,,,,,,,,2857.3285,2857.8286,2858.0716,2863.3791,space,5.2837,,2863.3791,65,5,2864.3717,2864.3717,2864.3796,,,,0,41,41,41,1,150,90,,,,,,,,
,,5ea1660f4d0db50008ff86ed,65af5633f1fd1b2813087bdd,2024-01-23_08h10.22.157,bars,2023.2.3,Win32,60.24096386,657b66ea316d21385b68909f,,,,,,,,,,,2864.3797,2865.3717,,,2865.8622,2866.1119,,39,39,,,,,,,,,,,,,,,,bars/035.png,bars/mask006.png,,,,,,,,,,,,3,2,,,,,,,6,8,6,9,,,,,,,,,,,2865.3717,2865.8622,2866.112,2871.6717,space,5.5347,,2871.6717,44,21,2872.6788,2872.6788,2872.6865,,,,0,42,42,42,1,175,60,,,,,,,,
,,5ea1660f4d0db50008ff86ed,65af5633f1fd1b2813087bdd,2024-01-23_08h10.22.157,bars,2023.2.3,Win32,60.24096386,657b66ea316d21385b68909f,,,,,,,,,,,2872.6866,2873.6786,,,2874.1718,2874.4131,,129,129,,,,,,,,,,,,,,,,bars/028.png,bars/mask004.png,,,,,,,,,,,,5,2,,,,,,,8,6,9,7,,,,,,,,,,,2873.6786,2874.1718,2874.4131,2878.81,space,4.3811,,2878.81,84,9,2879.8122,2879.8122,2879.8197,,,,0,43,43,43,1,45,120,,,,,,,,
,,5ea1660f4d0db50008ff86ed,65af5633f1fd1b2813087bdd,2024-01-23_08h10.22.157,bars,2023.2.3,Win32,60.24096386,657b66ea316d21385b68909f,,,,,,,,,,,2879.8198,2880.8121,,,2881.3052,2881.5553,,128,128,,,,,,,,,,,,,,,,bars/023.png,bars/mask004.png,,,,,,,,,,,,6,2,,,,,,,6,8,5,10,,,,,,,,,,,2880.8121,2881.3052,2881.5553,2887.1793,space,5.6004,,2887.1794,72,13,2888.1788,2888.1788,2888.1864,,,,0,44,44,44,1,20,115,,,,,,,,
,,5ea1660f4d0db50008ff86ed,65af5633f1fd1b2813087bdd,2024-01-23_08h10.22.157,bars,2023.2.3,Win32,60.24096386,657b66ea316d21385b68909f,,,,,,,,,,,2888.1865,2889.1957,,,2889.6958,2889.9459,,170,170,,,,,,,,,,,,,,,,bars/032.png,bars/mask004.png,,,,,,,,,,,,0,2,,,,,,,4,10,4,9,,,,,,,,,,,2889.1958,2889.6958,2889.9459,2893.1127,space,3.1503,,2893.1128,45,30,2894.1121,2894.1121,2894.1197,,,,0,45,45,45,1,125,20,,,,,,,,
,,5ea1660f4d0db50008ff86ed,65af5633f1fd1b2813087bdd,2024-01-23_08h10.22.157,bars,2023.2.3,Win32,60.24096386,657b66ea316d21385b68909f,,,,,,,,,,,2894.1198,2895.1124,,,2895.6054,2895.8554,,140,140,,,,,,,,,,,,,,,,bars/043.png,bars/mask004.png,,,,,,,,,,,,6,2,,,,,,,2,8,3,9,,,,,,,,,,,2895.1125,2895.6054,2895.8554,2899.9462,space,4.0671,,2899.9462,70,10,2900.9388,2900.9388,2900.9463,,,,0,46,46,46,1,30,130,,,,,,,,
,,5ea1660f4d0db50008ff86ed,65af5633f1fd1b2813087bdd,2024-01-23_08h10.22.157,bars,2023.2.3,Win32,60.24096386,657b66ea316d21385b68909f,,,,,,,,,,,2900.9464,2901.9389,,,2902.4461,2902.6889,,147,147,,,,,,,,,,,,,,,,bars/016.png,bars/mask002.png,,,,,,,,,,,,4,2,,,,,,,4,6,4,9,,,,,,,,,,,2901.9389,2902.4461,2902.6889,2908.6132,space,5.9171,,2908.6132,73,18,2909.6125,2909.6125,2909.6205,,,,0,47,47,47,1,40,165,,,,,,,,
,,5ea1660f4d0db50008ff86ed,65af5633f1fd1b2813087bdd,2024-01-23_08h10.22.157,bars,2023.2.3,Win32,60.24096386,657b66ea316d21385b68909f,,,,,,,,,,,2909.6205,2910.6126,,,2911.1126,2911.3626,,136,-44,,,,,,,,,,,,,,,,bars/034.png,bars/mask006.png,,,,,,,,,,,,1,1,,,,,,,2,8,1,7,,,,,,,,,,,2910.6126,2911.1126,2911.3627,2916.3132,space,4.9337,,2916.3132,11,71,2917.3127,2917.3127,2917.3208,,,,0,48,48,48,1,125,65,,,,,,,,
,,5ea1660f4d0db50008ff86ed,65af5633f1fd1b2813087bdd,2024-01-23_08h10.22.157,bars,2023.2.3,Win32,60.24096386,657b66ea316d21385b68909f,,,,,,,,,,,2917.321,2918.3127,,,2918.8129,2919.064,,63,-117,,,,,,,,,,,,,,,,bars/047.png,bars/mask009.png,,,,,,,,,,,,5,2,,,,,,,0,6,0,6,,,,,,,,,,,2918.3127,2918.8129,2919.064,2925.7226,space,6.6365,,2925.7226,48,7,2926.7127,2926.7127,2926.7209,,,,0,49,49,49,1,15,70,,,,,,,,
,,5ea1660f4d0db50008ff86ed,65af5633f1fd1b2813087bdd,2024-01-23_08h10.22.157,bars,2023.2.3,Win32,60.24096386,657b66ea316d21385b68909f,,,,,,,,,,,,,,,,,,,,,,,,,,,,,,,,,,,,,,,,,,,,,,,,,,,,,,,,,,,,,,,,,,,,,,,,,,,,,,,,,,,,,,,,,,,,,2926.721,2986.7236,0,3,3,3,1,sequence_tables/blk005.csv
,,5ea1660f4d0db50008ff86ed,65af5633f1fd1b2813087bdd,2024-01-23_08h10.22.157,bars,2023.2.3,Win32,60.24096386,657b66ea316d21385b68909f,,,,,,,,,,,3019.5185,3020.5076,,,3021.0074,3021.2572,,65,65,,,,,,,,,,,,,,,,bars/042.png,bars/mask007.png,,,,,,,,,,,,4,2,,,,,,,10,7,10,6,,,,,,2986.7338,3019.5076,space,32.7613,,3020.5077,3021.0073,3021.2572,3024.2578,space,2.9897,,3024.2578,80,10,3025.2576,3025.2577,3025.2796,,,,0,0,0,0,1,145,75,,,,,,,,
,,5ea1660f4d0db50008ff86ed,65af5633f1fd1b2813087bdd,2024-01-23_08h10.22.157,bars,2023.2.3,Win32,60.24096386,657b66ea316d21385b68909f,,,,,,,,,,,3025.2799,3026.281,,,3026.7811,3027.024,,154,154,,,,,,,,,,,,,,,,bars/015.png,bars/mask009.png,,,,,,,,,,,,4,2,,,,,,,8,5,5,5,,,,,,,,,,,3026.281,3026.7811,3027.024,3029.7147,space,2.6826,,3029.7148,44,6,3030.7073,3030.7073,3030.7151,,,,0,1,1,1,1,110,160,,,,,,,,
,,5ea1660f4d0db50008ff86ed,65af5633f1fd1b2813087bdd,2024-01-23_08h10.22.157,bars,2023.2.3,Win32,60.24096386,657b66ea316d21385b68909f,,,,,,,,,,,3030.7153,3031.7074,,,3032.198,3032.4479,,54,54,,,,,,,,,,,,,,,,bars/010.png,bars/mask007.png,,,,,,,,,,,,3,2,,,,,,,10,3,10,3,,,,,,,,,,,3031.7074,3032.1979,3032.4479,3036.1814,space,3.7171,,3036.1815,69,1,3037.181,3037.181,3037.1885,,,,0,2,2,2,1,165,55,,,,,,,,
,,5ea1660f4d0db50008ff86ed,65af5633f1fd1b2813087bdd,2024-01-23_08h10.22.157,bars,2023.2.3,Win32,60.24096386,657b66ea316d21385b68909f,,,,,,,,,,,3037.1887,3038.182,,,3038.6742,3038.9144,,78,78,,,,,,,,,,,,,,,,bars/041.png,bars/mask008.png,,,,,,,,,,,,1,2,,,,,,,10,1,10,1,,,,,,,,,,,3038.182,3038.6742,3038.9145,3042.2326,space,3.3013,,3042.2326,58,7,3043.2243,3043.2243,3043.2318,,,,0,3,3,3,1,20,85,,,,,,,,
,,5ea1660f4d0db50008ff86ed,65af5633f1fd1b2813087bdd,2024-01-23_08h10.22.157,bars,2023.2.3,Win32,60.24096386,657b66ea316d21385b68909f,,,,,,,,,,,3043.232,3044.2322,,,3044.7242,3044.9656,,61,61,,,,,,,,,,,,,,,,bars/030.png,bars/mask007.png,,,,,,,,,,,,3,2,,,,,,,8,3,7,4,,,,,,,,,,,3044.2322,3044.7242,3044.9656,3047.5315,space,2.5502,,3047.5315,79,4,3048.5243,3048.5243,3048.5319,,,,0,4,4,4,1,140,65,,,,,,,,
,,5ea1660f4d0db50008ff86ed,65af5633f1fd1b2813087bdd,2024-01-23_08h10.22.157,bars,2023.2.3,Win32,60.24096386,657b66ea316d21385b68909f,,,,,,,,,,,3048.532,3049.5312,,,3050.0314,3050.2815,,75,75,,,,,,,,,,,,,,,,bars/034.png,bars/mask007.png,,,,,,,,,,,,3,2,,,,,,,10,5,9,4,,,,,,,,,,,3049.5312,3050.0313,3050.2816,3053.0984,space,2.8003,,3053.0985,50,10,3054.091,3054.0911,3054.0987,,,,0,5,5,5,1,125,65,,,,,,,,
,,5ea1660f4d0db50008ff86ed,65af5633f1fd1b2813087bdd,2024-01-23_08h10.22.157,bars,2023.2.3,Win32,60.24096386,657b66ea316d21385b68909f,,,,,,,,,,,3054.0989,3055.091,,,3055.5816,3055.8315,,126,126,,,,,,,,,,,,,,,,bars/004.png,bars/mask008.png,,,,,,,,,,,,7,2,,,,,,,8,7,9,7,,,,,,,,,,,3055.091,3055.5815,3055.8316,3061.2319,space,5.3838,,3061.232,79,1,3062.2244,3062.2245,3062.2327,,,,0,6,6,6,1,25,125,,,,,,,,
,,5ea1660f4d0db50008ff86ed,65af5633f1fd1b2813087bdd,2024-01-23_08h10.22.157,bars,2023.2.3,Win32,60.24096386,657b66ea316d21385b68909f,,,,,,,,,,,3062.2329,3063.2245,,,3063.715,3063.965,,16,196,,,,,,,,,,,,,,,,bars/045.png,bars/mask000.png,,,,,,,,,,,,3,2,,,,,,,6,5,6,4,,,,,,,,,,,3063.2245,3063.7149,3063.965,3070.6487,space,6.667,,3070.6487,84,6,3071.6413,3071.6413,3071.6493,,,,0,7,7,7,1,100,10,,,,,,,,
,,5ea1660f4d0db50008ff86ed,65af5633f1fd1b2813087bdd,2024-01-23_08h10.22.157,bars,2023.2.3,Win32,60.24096386,657b66ea316d21385b68909f,,,,,,,,,,,3071.6494,3072.6482,,,3073.1485,3073.3984,,60,60,,,,,,,,,,,,,,,,bars/034.png,bars/mask005.png,,,,,,,,,,,,8,2,,,,,,,8,7,9,9,,,,,,,,,,,3072.6482,3073.1485,3073.3984,3080.3989,space,6.9839,,3080.3989,65,5,3081.3983,3081.3983,3081.4064,,,,0,8,8,8,1,125,65,,,,,,,,
,,5ea1660f4d0db50008ff86ed,65af5633f1fd1b2813087bdd,2024-01-23_08h10.22.157,bars,2023.2.3,Win32,60.24096386,657b66ea316d21385b68909f,,,,,,,,,,,3081.4066,3082.3984,,,3082.8916,3083.1319,,141,141,,,,,,,,,,,,,,,,bars/043.png,bars/mask001.png,,,,,,,,,,,,6,2,,,,,,,10,9,10,9,,,,,,,,,,,3082.3984,3082.8916,3083.1319,3089.6159,space,6.4672,,3089.6159,69,11,3090.6082,3090.6082,3090.6162,,,,0,9,9,9,1,30,130,,,,,,,,
,,5ea1660f4d0db50008ff86ed,65af5633f1fd1b2813087bdd,2024-01-23_08h10.22.157,bars,2023.2.3,Win32,60.24096386,657b66ea316d21385b68909f,,,,,,,,,,,3090.6163,3091.6152,,,3092.1154,3092.3583,,97,97,,,,,,,,,,,,,,,,bars/023.png,bars/mask008.png,,,,,,,,,,,,4,2,,,,,,,10,10,10,10,,,,,,,,,,,3091.6153,3092.1154,3092.3583,3095.6658,space,3.2993,,3095.6658,77,18,3096.6651,3096.6652,3096.6726,,,,0,10,10,10,1,20,115,,,,,,,,
