init_variables.started,init_variables.stopped,participant,session,date,expName,psychopyVersion,OS,frameRate,study_id,instruction_exp.started,instruction_exp.stopped,key_resp_8.keys,key_resp_8.rt,key_resp_8.duration,instruction_single.started,instruction_single.stopped,key_resp_2.keys,key_resp_2.rt,key_resp_2.duration,interval.started,interval.stopped,cue_single.started,cue_single.stopped,mask.started,mask.stopped,ori_response_single.started,res_ori,res,ori_response_single.stopped,key_resp_single.keys,key_resp_single.rt,key_resp_single.duration,disp_single.started,disp_single.stopped,key_resp.keys,key_resp.rt,key_resp.duration,single.thisRepN,single.thisTrialN,single.thisN,single.thisIndex,single.ran,ori,path,mask_path,instruction_bandit.started,instruction_bandit.stopped,key_resp_6.keys,key_resp_6.rt,key_resp_6.duration,cue_bandit.started,cue_bandit.stopped,bandit_res.keys,bandit_res.rt,bandit_res.duration,outcome_bandit.started,rew,action,outcome_bandit.stopped,bandit.thisRepN,bandit.thisTrialN,bandit.thisN,bandit.thisIndex,bandit.ran,actual_rew1,actual_rew2,rew1,rew2,instruction_task.started,instruction_task.stopped,key_resp_7.keys,key_resp_7.rt,key_resp_7.duration,wait_ready.started,wait_ready.stopped,key_resp_3.keys,key_resp_3.rt,key_resp_3.duration,cue.started,cue.stopped,ori_response.started,ori_response.stopped,key_resp_5.keys,key_resp_5.rt,key_resp_5.duration,outcome.started,diff1,diff2,outcome.stopped,disp_outcome_practice.started,disp_outcome_practice.stopped,key_resp_4.keys,key_resp_4.rt,key_resp_4.duration,trials.thisRepN,trials.thisTrialN,trials.thisN,trials.thisIndex,trials.ran,ori1,ori2,break_blk.started,break_blk.stopped,block.thisRepN,block.thisTrialN,block.thisN,block.thisIndex,block.ran,condition_file
0.0003,0.0004,63c5335da2b625ab1ade7e7c,65af597af3ebe8cc90bc7241,2024-01-23_07h16.20.781,bars,2023.2.3,Win32,57.80346821,657b66ea316d21385b68909f,,,,,,,,,,,,,,,,,,,,,,,,,,,,,,,,,,,,,,,,,,,,,,,,,,,,,,,,,,,,,,,,,,,,,,,,,,,,,,,,,,,,,,,,,,,,,,,,,,,,
,,63c5335da2b625ab1ade7e7c,65af597af3ebe8cc90bc7241,2024-01-23_07h16.20.781,bars,2023.2.3,Win32,57.80346821,657b66ea316d21385b68909f,0.0006,3.7619,y,3.7436,,,,,,,,,,,,,,,,,,,,,,,,,,,,,,,,,,,,,,,,,,,,,,,,,,,,,,,,,,,,,,,,,,,,,,,,,,,,,,,,,,,,,,,,,,,,,,,,
,,63c5335da2b625ab1ade7e7c,65af597af3ebe8cc90bc7241,2024-01-23_07h16.20.781,bars,2023.2.3,Win32,57.80346821,657b66ea316d21385b68909f,,,,,,3.762,11.1091,space,7.326,,,,,,,,,,,,,,,,,,,,,,,,,,,,,,,,,,,,,,,,,,,,,,,,,,,,,,,,,,,,,,,,,,,,,,,,,,,,,,,,,,,,,,,,,,,
,,63c5335da2b625ab1ade7e7c,65af597af3ebe8cc90bc7241,2024-01-23_07h16.20.781,bars,2023.2.3,Win32,57.80346821,657b66ea316d21385b68909f,,,,,,,,,,,11.1149,12.1189,12.1191,12.6148,12.615,12.8608,12.861,1,181,18.1462,space,5.253,,18.1464,22.0432,space,3.8746,,0,0,0,6,1,175,bars/single006.png,bars/mask005.png,,,,,,,,,,,,,,,,,,,,,,,,,,,,,,,,,,,,,,,,,,,,,,,,,,,,,,,,,,,,,,,,
,,63c5335da2b625ab1ade7e7c,65af597af3ebe8cc90bc7241,2024-01-23_07h16.20.781,bars,2023.2.3,Win32,57.80346821,657b66ea316d21385b68909f,,,,,,,,,,,22.0437,23.0453,23.0454,23.5388,23.5389,23.7865,23.7866,32,32,25.9156,space,2.1163,,25.9156,26.9853,space,1.0551,,0,1,1,3,1,20,bars/single003.png,bars/mask005.png,,,,,,,,,,,,,,,,,,,,,,,,,,,,,,,,,,,,,,,,,,,,,,,,,,,,,,,,,,,,,,,,
,,63c5335da2b625ab1ade7e7c,65af597af3ebe8cc90bc7241,2024-01-23_07h16.20.781,bars,2023.2.3,Win32,57.80346821,657b66ea316d21385b68909f,,,,,,,,,,,26.9856,27.9867,27.9867,28.4819,28.4819,28.7289,28.7289,4,4,32.1187,space,3.3796,,32.1188,33.5091,space,1.3711,,0,2,2,1,1,20,bars/single001.png,bars/mask006.png,,,,,,,,,,,,,,,,,,,,,,,,,,,,,,,,,,,,,,,,,,,,,,,,,,,,,,,,,,,,,,,,
,,63c5335da2b625ab1ade7e7c,65af597af3ebe8cc90bc7241,2024-01-23_07h16.20.781,bars,2023.2.3,Win32,57.80346821,657b66ea316d21385b68909f,,,,,,,,,,,33.5094,34.513,34.513,35.0051,35.0051,35.2522,35.2522,132,132,36.8053,space,1.5394,,36.8054,37.603,space,0.7802,,0,3,3,2,1,145,bars/single002.png,bars/mask003.png,,,,,,,,,,,,,,,,,,,,,,,,,,,,,,,,,,,,,,,,,,,,,,,,,,,,,,,,,,,,,,,,
,,63c5335da2b625ab1ade7e7c,65af597af3ebe8cc90bc7241,2024-01-23_07h16.20.781,bars,2023.2.3,Win32,57.80346821,657b66ea316d21385b68909f,,,,,,,,,,,37.6036,38.5918,38.5918,39.0853,39.0853,39.3305,39.3305,91,91,43.2786,space,3.9344,,43.2786,44.3714,space,1.0716,,0,4,4,4,1,95,bars/single004.png,bars/mask004.png,,,,,,,,,,,,,,,,,,,,,,,,,,,,,,,,,,,,,,,,,,,,,,,,,,,,,,,,,,,,,,,,
,,63c5335da2b625ab1ade7e7c,65af597af3ebe8cc90bc7241,2024-01-23_07h16.20.781,bars,2023.2.3,Win32,57.80346821,657b66ea316d21385b68909f,,,,,,,,,,,44.3717,45.3737,45.3737,45.869,45.8691,46.1157,46.1157,167,-13,48.3389,space,2.2016,,48.339,49.0398,space,0.6848,,0,5,5,8,1,160,bars/single008.png,bars/mask004.png,,,,,,,,,,,,,,,,,,,,,,,,,,,,,,,,,,,,,,,,,,,,,,,,,,,,,,,,,,,,,,,,
,,63c5335da2b625ab1ade7e7c,65af597af3ebe8cc90bc7241,2024-01-23_07h16.20.781,bars,2023.2.3,Win32,57.80346821,657b66ea316d21385b68909f,,,,,,,,,,,49.0401,50.0301,50.0302,50.5248,50.5248,50.7728,50.7728,76,76,53.0096,space,2.221,,53.0096,53.5917,space,0.5645,,0,6,6,5,1,55,bars/single005.png,bars/mask008.png,,,,,,,,,,,,,,,,,,,,,,,,,,,,,,,,,,,,,,,,,,,,,,,,,,,,,,,,,,,,,,,,
,,63c5335da2b625ab1ade7e7c,65af597af3ebe8cc90bc7241,2024-01-23_07h16.20.781,bars,2023.2.3,Win32,57.80346821,657b66ea316d21385b68909f,,,,,,,,,,,53.5921,54.5914,54.5914,55.0847,55.0848,55.3318,55.3318,29,29,59.1521,space,3.8071,,59.1521,59.8036,space,0.6257,,0,7,7,9,1,20,bars/single009.png,bars/mask006.png,,,,,,,,,,,,,,,,,,,,,,,,,,,,,,,,,,,,,,,,,,,,,,,,,,,,,,,,,,,,,,,,
,,63c5335da2b625ab1ade7e7c,65af597af3ebe8cc90bc7241,2024-01-23_07h16.20.781,bars,2023.2.3,Win32,57.80346821,657b66ea316d21385b68909f,,,,,,,,,,,59.8039,60.7918,60.7918,61.2842,61.2842,61.5301,61.5301,154,154,63.1928,space,1.6481,,63.1928,64.0572,space,0.844,,0,8,8,0,1,150,bars/single000.png,bars/mask006.png,,,,,,,,,,,,,,,,,,,,,,,,,,,,,,,,,,,,,,,,,,,,,,,,,,,,,,,,,,,,,,,,
,,63c5335da2b625ab1ade7e7c,65af597af3ebe8cc90bc7241,2024-01-23_07h16.20.781,bars,2023.2.3,Win32,57.80346821,657b66ea316d21385b68909f,,,,,,,,,,,64.0574,65.0452,65.0453,65.5378,65.5378,65.7843,65.7844,38,38,69.9415,space,4.1447,,69.9415,70.6844,space,0.7181,,0,9,9,7,1,45,bars/single007.png,bars/mask009.png,,,,,,,,,,,,,,,,,,,,,,,,,,,,,,,,,,,,,,,,,,,,,,,,,,,,,,,,,,,,,,,,
,,63c5335da2b625ab1ade7e7c,65af597af3ebe8cc90bc7241,2024-01-23_07h16.20.781,bars,2023.2.3,Win32,57.80346821,657b66ea316d21385b68909f,,,,,,,,,,,,,,,,,,,,,,,,,,,,,,,,,,,,,70.6853,78.7503,space,8.0528,,,,,,,,,,,,,,,,,,,,,,,,,,,,,,,,,,,,,,,,,,,,,,,,,,,,,,,,,,,,
,,63c5335da2b625ab1ade7e7c,65af597af3ebe8cc90bc7241,2024-01-23_07h16.20.781,bars,2023.2.3,Win32,57.80346821,657b66ea316d21385b68909f,,,,,,,,,,,,,,,,,,,,,,,,,,,,,,,,,,,,,,,,,,78.7629,79.931,left,1.1541,,79.9311,9,1,80.9355,0,0,0,0,1,9,1,9,2,,,,,,,,,,,,,,,,,,,,,,,,,,,,,,,,,,,,,,,,,
,,63c5335da2b625ab1ade7e7c,65af597af3ebe8cc90bc7241,2024-01-23_07h16.20.781,bars,2023.2.3,Win32,57.80346821,657b66ea316d21385b68909f,,,,,,,,,,,,,,,,,,,,,,,,,,,,,,,,,,,,,,,,,,80.9361,81.3059,left,0.3484,,81.3059,10,1,82.294,0,1,1,1,1,10,0,10,1,,,,,,,,,,,,,,,,,,,,,,,,,,,,,,,,,,,,,,,,,
,,63c5335da2b625ab1ade7e7c,65af597af3ebe8cc90bc7241,2024-01-23_07h16.20.781,bars,2023.2.3,Win32,57.80346821,657b66ea316d21385b68909f,,,,,,,,,,,,,,,,,,,,,,,,,,,,,,,,,,,,,,,,,,82.2943,82.7353,right,0.43,,82.7354,2,2,83.7394,0,2,2,2,1,10,2,10,2,,,,,,,,,,,,,,,,,,,,,,,,,,,,,,,,,,,,,,,,,
,,63c5335da2b625ab1ade7e7c,65af597af3ebe8cc90bc7241,2024-01-23_07h16.20.781,bars,2023.2.3,Win32,57.80346821,657b66ea316d21385b68909f,,,,,,,,,,,,,,,,,,,,,,,,,,,,,,,,,,,,,,,,,,83.7396,84.0753,left,0.3171,,84.0753,7,1,85.0631,0,3,3,3,1,8,4,7,3,,,,,,,,,,,,,,,,,,,,,,,,,,,,,,,,,,,,,,,,,
,,63c5335da2b625ab1ade7e7c,65af597af3ebe8cc90bc7241,2024-01-23_07h16.20.781,bars,2023.2.3,Win32,57.80346821,657b66ea316d21385b68909f,,,,,,,,,,,,,,,,,,,,,,,,,,,,,,,,,,,,,,,,,,85.0634,85.3812,left,0.3016,,85.3813,5,1,86.3828,0,4,4,4,1,6,2,5,1,,,,,,,,,,,,,,,,,,,,,,,,,,,,,,,,,,,,,,,,,
,,63c5335da2b625ab1ade7e7c,65af597af3ebe8cc90bc7241,2024-01-23_07h16.20.781,bars,2023.2.3,Win32,57.80346821,657b66ea316d21385b68909f,,,,,,,,,,,,,,,,,,,,,,,,,,,,,,,,,,,,,,,,,,86.3831,86.754,right,0.3511,,86.7541,4,2,87.7554,0,5,5,5,1,4,4,4,4,,,,,,,,,,,,,,,,,,,,,,,,,,,,,,,,,,,,,,,,,
,,63c5335da2b625ab1ade7e7c,65af597af3ebe8cc90bc7241,2024-01-23_07h16.20.781,bars,2023.2.3,Win32,57.80346821,657b66ea316d21385b68909f,,,,,,,,,,,,,,,,,,,,,,,,,,,,,,,,,,,,,,,,,,87.7556,88.0897,right,0.3118,,88.0898,2,2,89.0915,0,6,6,6,1,2,2,1,2,,,,,,,,,,,,,,,,,,,,,,,,,,,,,,,,,,,,,,,,,
,,63c5335da2b625ab1ade7e7c,65af597af3ebe8cc90bc7241,2024-01-23_07h16.20.781,bars,2023.2.3,Win32,57.80346821,657b66ea316d21385b68909f,,,,,,,,,,,,,,,,,,,,,,,,,,,,,,,,,,,,,,,,,,89.0918,89.4084,left,0.304,,89.4084,0,1,90.3951,0,7,7,7,1,0,0,0,1,,,,,,,,,,,,,,,,,,,,,,,,,,,,,,,,,,,,,,,,,
,,63c5335da2b625ab1ade7e7c,65af597af3ebe8cc90bc7241,2024-01-23_07h16.20.781,bars,2023.2.3,Win32,57.80346821,657b66ea316d21385b68909f,,,,,,,,,,,,,,,,,,,,,,,,,,,,,,,,,,,,,,,,,,90.3953,90.5356,right,0.1275,,90.5357,0,2,91.5407,0,8,8,8,1,0,2,1,0,,,,,,,,,,,,,,,,,,,,,,,,,,,,,,,,,,,,,,,,,
,,63c5335da2b625ab1ade7e7c,65af597af3ebe8cc90bc7241,2024-01-23_07h16.20.781,bars,2023.2.3,Win32,57.80346821,657b66ea316d21385b68909f,,,,,,,,,,,,,,,,,,,,,,,,,,,,,,,,,,,,,,,,,,91.541,91.8939,left,0.3401,,91.8939,2,1,92.8808,0,9,9,9,1,2,4,2,3,,,,,,,,,,,,,,,,,,,,,,,,,,,,,,,,,,,,,,,,,
,,63c5335da2b625ab1ade7e7c,65af597af3ebe8cc90bc7241,2024-01-23_07h16.20.781,bars,2023.2.3,Win32,57.80346821,657b66ea316d21385b68909f,,,,,,,,,,,,,,,,,,,,,,,,,,,,,,,,,,,,,,,,,,92.881,93.1275,left,0.231,,93.1275,0,1,94.1151,0,10,10,10,1,0,2,0,3,,,,,,,,,,,,,,,,,,,,,,,,,,,,,,,,,,,,,,,,,
,,63c5335da2b625ab1ade7e7c,65af597af3ebe8cc90bc7241,2024-01-23_07h16.20.781,bars,2023.2.3,Win32,57.80346821,657b66ea316d21385b68909f,,,,,,,,,,,,,,,,,,,,,,,,,,,,,,,,,,,,,,,,,,94.1154,94.2916,right,0.1564,,94.2916,3,2,95.2788,0,11,11,11,1,0,4,0,3,,,,,,,,,,,,,,,,,,,,,,,,,,,,,,,,,,,,,,,,,
,,63c5335da2b625ab1ade7e7c,65af597af3ebe8cc90bc7241,2024-01-23_07h16.20.781,bars,2023.2.3,Win32,57.80346821,657b66ea316d21385b68909f,,,,,,,,,,,,,,,,,,,,,,,,,,,,,,,,,,,,,,,,,,95.279,95.5651,right,0.2765,,95.5652,6,2,96.5525,0,12,12,12,1,2,6,1,6,,,,,,,,,,,,,,,,,,,,,,,,,,,,,,,,,,,,,,,,,
,,63c5335da2b625ab1ade7e7c,65af597af3ebe8cc90bc7241,2024-01-23_07h16.20.781,bars,2023.2.3,Win32,57.80346821,657b66ea316d21385b68909f,,,,,,,,,,,,,,,,,,,,,,,,,,,,,,,,,,,,,,,,,,96.5527,96.9761,right,0.4089,,96.9761,3,2,97.9752,0,13,13,13,1,0,4,1,3,,,,,,,,,,,,,,,,,,,,,,,,,,,,,,,,,,,,,,,,,
,,63c5335da2b625ab1ade7e7c,65af597af3ebe8cc90bc7241,2024-01-23_07h16.20.781,bars,2023.2.3,Win32,57.80346821,657b66ea316d21385b68909f,,,,,,,,,,,,,,,,,,,,,,,,,,,,,,,,,,,,,,,,,,97.9755,98.3099,right,0.3221,,98.3099,7,2,99.3131,0,14,14,14,1,2,6,2,7,,,,,,,,,,,,,,,,,,,,,,,,,,,,,,,,,,,,,,,,,
,,63c5335da2b625ab1ade7e7c,65af597af3ebe8cc90bc7241,2024-01-23_07h16.20.781,bars,2023.2.3,Win32,57.80346821,657b66ea316d21385b68909f,,,,,,,,,,,,,,,,,,,,,,,,,,,,,,,,,,,,,,,,,,99.3133,99.6124,right,0.2829,,99.6124,9,2,100.5993,0,15,15,15,1,4,8,3,9,,,,,,,,,,,,,,,,,,,,,,,,,,,,,,,,,,,,,,,,,
,,63c5335da2b625ab1ade7e7c,65af597af3ebe8cc90bc7241,2024-01-23_07h16.20.781,bars,2023.2.3,Win32,57.80346821,657b66ea316d21385b68909f,,,,,,,,,,,,,,,,,,,,,,,,,,,,,,,,,,,,,,,,,,100.5996,100.9157,right,0.2948,,100.9157,7,2,101.9028,0,16,16,16,1,6,6,7,7,,,,,,,,,,,,,,,,,,,,,,,,,,,,,,,,,,,,,,,,,
,,63c5335da2b625ab1ade7e7c,65af597af3ebe8cc90bc7241,2024-01-23_07h16.20.781,bars,2023.2.3,Win32,57.80346821,657b66ea316d21385b68909f,,,,,,,,,,,,,,,,,,,,,,,,,,,,,,,,,,,,,,,,,,101.9032,102.2207,right,0.2989,,102.2208,5,2,103.2108,0,17,17,17,1,8,4,9,5,,,,,,,,,,,,,,,,,,,,,,,,,,,,,,,,,,,,,,,,,
,,63c5335da2b625ab1ade7e7c,65af597af3ebe8cc90bc7241,2024-01-23_07h16.20.781,bars,2023.2.3,Win32,57.80346821,657b66ea316d21385b68909f,,,,,,,,,,,,,,,,,,,,,,,,,,,,,,,,,,,,,,,,,,103.211,103.476,right,0.2576,,103.4761,1,2,104.4632,0,18,18,18,1,6,2,5,1,,,,,,,,,,,,,,,,,,,,,,,,,,,,,,,,,,,,,,,,,
,,63c5335da2b625ab1ade7e7c,65af597af3ebe8cc90bc7241,2024-01-23_07h16.20.781,bars,2023.2.3,Win32,57.80346821,657b66ea316d21385b68909f,,,,,,,,,,,,,,,,,,,,,,,,,,,,,,,,,,,,,,,,,,104.4635,104.7447,left,0.2683,,104.7447,7,1,105.7467,0,19,19,19,1,8,0,7,0,,,,,,,,,,,,,,,,,,,,,,,,,,,,,,,,,,,,,,,,,
,,63c5335da2b625ab1ade7e7c,65af597af3ebe8cc90bc7241,2024-01-23_07h16.20.781,bars,2023.2.3,Win32,57.80346821,657b66ea316d21385b68909f,,,,,,,,,,,,,,,,,,,,,,,,,,,,,,,,,,,,,,,,,,,,,,,,,,,,,,,,,,,,105.7472,115.09,space,9.3191,,,,,,,,,,,,,,,,,,,,,,,,,,,,,,,,,,,,,
,,63c5335da2b625ab1ade7e7c,65af597af3ebe8cc90bc7241,2024-01-23_07h16.20.781,bars,2023.2.3,Win32,57.80346821,657b66ea316d21385b68909f,,,,,,,,,,,115.978,116.9789,,,117.472,117.7176,,118,118,,,,,,,,,,,,,,,,bars/008.png,bars/mask004.png,,,,,,,,,,,,1,1,,,,,,,2,8,2,9,,,,,,115.1025,115.973,space,0.8607,,116.979,117.4719,117.7179,119.3578,space,1.6218,,119.358,8,62,120.3617,120.3619,121.987,space,1.6035,,0,0,0,0,1,110,0,,,,,,,,
,,63c5335da2b625ab1ade7e7c,65af597af3ebe8cc90bc7241,2024-01-23_07h16.20.781,bars,2023.2.3,Win32,57.80346821,657b66ea316d21385b68909f,,,,,,,,,,,121.9873,122.9906,,,123.483,123.7316,,122,122,,,,,,,,,,,,,,,,bars/031.png,bars/mask006.png,,,,,,,,,,,,5,1,,,,,,,4,10,5,10,,,,,,,,,,,122.9906,123.483,123.7317,125.8454,space,2.1014,,125.8455,2,87,126.8436,126.8437,130.1033,space,3.2464,,0,1,1,1,1,120,35,,,,,,,,
,,63c5335da2b625ab1ade7e7c,65af597af3ebe8cc90bc7241,2024-01-23_07h16.20.781,bars,2023.2.3,Win32,57.80346821,657b66ea316d21385b68909f,,,,,,,,,,,130.1138,131.1129,,,131.6068,131.8541,,161,-19,,,,,,,,,,,,,,,,bars/011.png,bars/mask003.png,,,,,,,,,,,,7,1,,,,,,,6,8,7,7,,,,,,,,,,,131.113,131.6067,131.8541,134.11,space,2.2424,,134.11,1,76,135.114,135.114,136.3493,space,1.2218,,0,2,2,2,1,160,85,,,,,,,,
,,63c5335da2b625ab1ade7e7c,65af597af3ebe8cc90bc7241,2024-01-23_07h16.20.781,bars,2023.2.3,Win32,57.80346821,657b66ea316d21385b68909f,,,,,,,,,,,136.3497,137.3382,,,137.8325,138.0805,,43,43,,,,,,,,,,,,,,,,bars/006.png,bars/mask001.png,,,,,,,,,,,,5,1,,,,,,,8,10,7,9,,,,,,,,,,,137.3383,137.8325,138.0805,139.3309,space,1.232,,139.3309,8,57,140.3323,140.3323,142.5372,space,2.1844,,0,3,3,3,1,35,100,,,,,,,,
,,63c5335da2b625ab1ade7e7c,65af597af3ebe8cc90bc7241,2024-01-23_07h16.20.781,bars,2023.2.3,Win32,57.80346821,657b66ea316d21385b68909f,,,,,,,,,,,142.5374,143.5382,,,144.0332,144.2799,,34,34,,,,,,,,,,,,,,,,bars/043.png,bars/mask005.png,,,,,,,,,,,,9,1,,,,,,,10,8,10,7,,,,,,,,,,,143.5382,144.0331,144.2799,145.854,space,1.565,,145.8541,4,84,146.8459,146.846,148.1197,space,1.2611,,0,4,4,4,1,30,130,,,,,,,,
,,63c5335da2b625ab1ade7e7c,65af597af3ebe8cc90bc7241,2024-01-23_07h16.20.781,bars,2023.2.3,Win32,57.80346821,657b66ea316d21385b68909f,,,,,,,,,,,148.12,149.1234,,,149.6197,149.8674,,40,40,,,,,,,,,,,,,,,,bars/019.png,bars/mask006.png,,,,,,,,,,,,8,1,,,,,,,8,6,9,5,,,,,,,,,,,149.1234,149.6197,149.8674,152.8707,space,2.9848,,152.8707,5,65,153.8616,153.8616,154.0921,space,0.2016,,0,5,5,5,1,45,105,,,,,,,,
,,63c5335da2b625ab1ade7e7c,65af597af3ebe8cc90bc7241,2024-01-23_07h16.20.781,bars,2023.2.3,Win32,57.80346821,657b66ea316d21385b68909f,,,,,,,,,,,154.0928,155.0803,,,155.5768,155.8243,,179,-1,,,,,,,,,,,,,,,,bars/007.png,bars/mask009.png,,,,,,,,,,,,4,1,,,,,,,6,4,5,5,,,,,,,,,,,155.0804,155.5767,155.8243,160.1519,space,4.3086,,160.1521,4,56,161.1439,161.1439,161.2332,space,0.0634,,0,6,6,6,1,175,55,,,,,,,,
,,63c5335da2b625ab1ade7e7c,65af597af3ebe8cc90bc7241,2024-01-23_07h16.20.781,bars,2023.2.3,Win32,57.80346821,657b66ea316d21385b68909f,,,,,,,,,,,161.2334,162.2222,,,162.7147,162.9602,,99,99,,,,,,,,,,,,,,,,bars/006.png,bars/mask006.png,,,,,,,,,,,,1,2,,,,,,,8,2,7,1,,,,,,,,,,,162.2223,162.7145,162.9602,165.3231,space,2.3484,,165.3231,64,1,166.3263,166.3263,166.7333,space,0.3798,,0,7,7,7,1,35,100,,,,,,,,
,,63c5335da2b625ab1ade7e7c,65af597af3ebe8cc90bc7241,2024-01-23_07h16.20.781,bars,2023.2.3,Win32,57.80346821,657b66ea316d21385b68909f,,,,,,,,,,,166.7336,167.7363,,,168.2324,168.4778,,68,68,,,,,,,,,,,,,,,,bars/007.png,bars/mask007.png,,,,,,,,,,,,0,2,,,,,,,6,0,6,0,,,,,,,,,,,167.7363,168.2324,168.4778,172.1966,space,3.7107,,172.1966,73,13,173.1843,173.1843,173.2903,space,0.0823,,0,8,8,8,1,175,55,,,,,,,,
,,63c5335da2b625ab1ade7e7c,65af597af3ebe8cc90bc7241,2024-01-23_07h16.20.781,bars,2023.2.3,Win32,57.80346821,657b66ea316d21385b68909f,,,,,,,,,,,173.2906,174.2915,,,174.7842,175.0325,,34,34,,,,,,,,,,,,,,,,bars/047.png,bars/mask000.png,,,,,,,,,,,,1,1,,,,,,,4,2,4,0,,,,,,,,,,,174.2916,174.7842,175.0325,177.2068,space,2.1573,,177.2069,19,36,178.1951,178.1951,178.3198,space,0.0985,,0,9,9,9,1,15,70,,,,,,,,
,,63c5335da2b625ab1ade7e7c,65af597af3ebe8cc90bc7241,2024-01-23_07h16.20.781,bars,2023.2.3,Win32,57.80346821,657b66ea316d21385b68909f,,,,,,,,,,,178.3202,179.3113,,,179.8057,180.054,,4,184,,,,,,,,,,,,,,,,bars/032.png,bars/mask009.png,,,,,,,,,,,,2,2,,,,,,,2,4,3,4,,,,,,,,,,,179.3113,179.8057,180.0541,182.2221,space,2.1524,,182.2221,59,16,183.2108,183.2109,183.2992,space,0.0742,,0,10,10,10,1,125,20,,,,,,,,
,,63c5335da2b625ab1ade7e7c,65af597af3ebe8cc90bc7241,2024-01-23_07h16.20.781,bars,2023.2.3,Win32,57.80346821,657b66ea316d21385b68909f,,,,,,,,,,,183.2995,184.3032,,,184.7989,185.0444,,24,24,,,,,,,,,,,,,,,,bars/036.png,bars/mask005.png,,,,,,,,,,,,5,2,,,,,,,4,6,5,6,,,,,,,,,,,184.3032,184.7989,185.0444,187.291,space,2.2329,,187.291,59,4,188.2819,188.2821,188.3886,space,0.0869,,0,11,11,11,1,145,20,,,,,,,,
,,63c5335da2b625ab1ade7e7c,65af597af3ebe8cc90bc7241,2024-01-23_07h16.20.781,bars,2023.2.3,Win32,57.80346821,657b66ea316d21385b68909f,,,,,,,,,,,188.389,189.3768,,,189.872,190.1198,,5,5,,,,,,,,,,,,,,,,bars/045.png,bars/mask006.png,,,,,,,,,,,,3,2,,,,,,,2,4,3,3,,,,,,,,,,,189.3769,189.872,190.1198,193.7694,space,3.6361,,193.7694,85,5,194.7726,194.7726,194.9844,space,0.1858,,0,12,12,12,1,100,10,,,,,,,,
,,63c5335da2b625ab1ade7e7c,65af597af3ebe8cc90bc7241,2024-01-23_07h16.20.781,bars,2023.2.3,Win32,57.80346821,657b66ea316d21385b68909f,,,,,,,,,,,194.9846,195.976,,,196.4699,196.7145,,176,176,,,,,,,,,,,,,,,,bars/048.png,bars/mask004.png,,,,,,,,,,,,5,2,,,,,,,4,6,2,5,,,,,,,,,,,195.976,196.4699,196.7146,199.0265,space,2.2911,,199.0266,54,1,200.0176,200.0176,200.1768,space,0.136,,0,13,13,13,1,50,175,,,,,,,,
,,63c5335da2b625ab1ade7e7c,65af597af3ebe8cc90bc7241,2024-01-23_07h16.20.781,bars,2023.2.3,Win32,57.80346821,657b66ea316d21385b68909f,,,,,,,,,,,200.1771,201.1788,,,201.672,201.9177,,95,95,,,,,,,,,,,,,,,,bars/039.png,bars/mask001.png,,,,,,,,,,,,7,2,,,,,,,2,8,2,10,,,,,,,,,,,201.1788,201.6719,201.9177,204.8213,space,2.8836,,204.8215,80,10,205.8245,205.8245,206.583,space,0.7349,,0,14,14,14,1,175,105,,,,,,,,
,,63c5335da2b625ab1ade7e7c,65af597af3ebe8cc90bc7241,2024-01-23_07h16.20.781,bars,2023.2.3,Win32,57.80346821,657b66ea316d21385b68909f,,,,,,,,,,,206.5832,207.5831,,,208.0782,208.3249,,57,237,,,,,,,,,,,,,,,,bars/013.png,bars/mask004.png,,,,,,,,,,,,0,1,,,,,,,0,6,0,5,,,,,,,,,,,207.5831,208.0781,208.3249,213.3197,space,4.9846,,213.3197,18,47,214.3075,214.3075,214.9214,space,0.5889,,0,15,15,15,1,75,10,,,,,,,,
,,63c5335da2b625ab1ade7e7c,65af597af3ebe8cc90bc7241,2024-01-23_07h16.20.781,bars,2023.2.3,Win32,57.80346821,657b66ea316d21385b68909f,,,,,,,,,,,214.9217,215.9115,,,216.4057,216.6523,,171,171,,,,,,,,,,,,,,,,bars/033.png,bars/mask007.png,,,,,,,,,,,,1,2,,,,,,,2,4,1,3,,,,,,,,,,,215.9115,216.4057,216.6523,218.0615,space,1.3863,,218.0615,34,16,219.0663,219.0664,219.0833,space,0.0007,,0,16,16,16,1,25,155,,,,,,,,
,,63c5335da2b625ab1ade7e7c,65af597af3ebe8cc90bc7241,2024-01-23_07h16.20.781,bars,2023.2.3,Win32,57.80346821,657b66ea316d21385b68909f,,,,,,,,,,,219.0836,220.072,,,220.5662,220.8105,,91,91,,,,,,,,,,,,,,,,bars/002.png,bars/mask007.png,,,,,,,,,,,,4,2,,,,,,,4,6,3,5,,,,,,,,,,,220.072,220.5661,220.8105,223.3946,space,2.569,,223.3947,39,6,224.3833,224.3833,225.3337,space,0.9302,,0,17,17,17,1,130,85,,,,,,,,
,,63c5335da2b625ab1ade7e7c,65af597af3ebe8cc90bc7241,2024-01-23_07h16.20.781,bars,2023.2.3,Win32,57.80346821,657b66ea316d21385b68909f,,,,,,,,,,,225.3339,226.3361,,,226.8288,227.0747,,168,-12,,,,,,,,,,,,,,,,bars/008.png,bars/mask009.png,,,,,,,,,,,,2,2,,,,,,,2,4,2,3,,,,,,,,,,,226.3361,226.8287,227.0747,230.8754,space,3.7846,,230.8754,58,12,231.8656,231.8656,232.2007,space,0.3127,,0,18,18,18,1,110,0,,,,,,,,
,,63c5335da2b625ab1ade7e7c,65af597af3ebe8cc90bc7241,2024-01-23_07h16.20.781,bars,2023.2.3,Win32,57.80346821,657b66ea316d21385b68909f,,,,,,,,,,,232.2011,233.2027,,,233.6933,233.9404,,163,-17,,,,,,,,,,,,,,,,bars/011.png,bars/mask006.png,,,,,,,,,,,,0,1,,,,,,,0,2,0,1,,,,,,,,,,,233.2028,233.6932,233.9405,236.7234,space,2.7701,,236.7234,3,78,237.7256,237.7258,238.2002,space,0.4472,,0,19,19,19,1,160,85,,,,,,,,
,,63c5335da2b625ab1ade7e7c,65af597af3ebe8cc90bc7241,2024-01-23_07h16.20.781,bars,2023.2.3,Win32,57.80346821,657b66ea316d21385b68909f,,,,,,,,,,,238.2006,239.2052,,,239.6966,239.9414,,76,256,,,,,,,,,,,,,,,,bars/027.png,bars/mask002.png,,,,,,,,,,,,0,2,,,,,,,2,0,1,0,,,,,,,,,,,239.2052,239.6966,239.9414,243.4108,space,3.4524,,243.4108,34,26,244.3993,244.3993,244.8234,space,0.3962,,0,20,20,20,1,110,50,,,,,,,,
,,63c5335da2b625ab1ade7e7c,65af597af3ebe8cc90bc7241,2024-01-23_07h16.20.781,bars,2023.2.3,Win32,57.80346821,657b66ea316d21385b68909f,,,,,,,,,,,244.8237,245.8261,,,246.3179,246.5652,,64,64,,,,,,,,,,,,,,,,bars/042.png,bars/mask009.png,,,,,,,,,,,,2,2,,,,,,,0,2,0,3,,,,,,,,,,,245.8261,246.3179,246.5653,248.5733,space,1.9897,,248.5733,81,11,249.5608,249.561,249.5818,space,0.0005,,0,21,21,21,1,145,75,,,,,,,,
,,63c5335da2b625ab1ade7e7c,65af597af3ebe8cc90bc7241,2024-01-23_07h16.20.781,bars,2023.2.3,Win32,57.80346821,657b66ea316d21385b68909f,,,,,,,,,,,249.5822,250.5798,,,251.0744,251.3191,,78,78,,,,,,,,,,,,,,,,bars/001.png,bars/mask002.png,,,,,,,,,,,,2,2,,,,,,,0,0,0,2,,,,,,,,,,,250.5798,251.0743,251.3191,252.9242,space,1.5958,,252.9242,52,7,253.9264,253.9264,254.2596,space,0.3153,,0,22,22,22,1,130,85,,,,,,,,
,,63c5335da2b625ab1ade7e7c,65af597af3ebe8cc90bc7241,2024-01-23_07h16.20.781,bars,2023.2.3,Win32,57.80346821,657b66ea316d21385b68909f,,,,,,,,,,,254.2598,255.2508,,,255.7431,255.9902,,82,82,,,,,,,,,,,,,,,,bars/014.png,bars/mask001.png,,,,,,,,,,,,2,1,,,,,,,0,0,2,1,,,,,,,,,,,255.2508,255.7431,255.9902,257.6747,space,1.6698,,257.6748,2,82,258.6786,258.6787,259.4726,space,0.7728,,0,23,23,23,1,80,0,,,,,,,,
,,63c5335da2b625ab1ade7e7c,65af597af3ebe8cc90bc7241,2024-01-23_07h16.20.781,bars,2023.2.3,Win32,57.80346821,657b66ea316d21385b68909f,,,,,,,,,,,259.4728,260.4625,,,260.9562,261.2012,,91,91,,,,,,,,,,,,,,,,bars/025.png,bars/mask002.png,,,,,,,,,,,,0,1,,,,,,,0,0,0,2,,,,,,,,,,,260.4625,260.9562,261.2013,264.5058,space,3.2847,,264.5058,14,51,265.4953,265.4953,265.9016,space,0.3771,,0,24,24,24,1,105,40,,,,,,,,
,,63c5335da2b625ab1ade7e7c,65af597af3ebe8cc90bc7241,2024-01-23_07h16.20.781,bars,2023.2.3,Win32,57.80346821,657b66ea316d21385b68909f,,,,,,,,,,,265.9018,266.8926,,,267.3854,267.6313,,7,187,,,,,,,,,,,,,,,,bars/014.png,bars/mask002.png,,,,,,,,,,,,0,2,,,,,,,0,0,0,0,,,,,,,,,,,266.8926,267.3854,267.6313,269.233,space,1.5856,,269.2331,73,7,270.2364,270.2364,270.7855,space,0.5237,,0,25,25,25,1,80,0,,,,,,,,
,,63c5335da2b625ab1ade7e7c,65af597af3ebe8cc90bc7241,2024-01-23_07h16.20.781,bars,2023.2.3,Win32,57.80346821,657b66ea316d21385b68909f,,,,,,,,,,,270.7858,271.776,,,272.2704,272.5175,,159,-21,,,,,,,,,,,,,,,,bars/036.png,bars/mask001.png,,,,,,,,,,,,2,1,,,,,,,2,0,3,0,,,,,,,,,,,271.7761,272.2704,272.5175,274.5643,space,2.0275,,274.5643,14,41,275.5522,275.5522,275.781,space,0.2164,,0,26,26,26,1,145,20,,,,,,,,
,,63c5335da2b625ab1ade7e7c,65af597af3ebe8cc90bc7241,2024-01-23_07h16.20.781,bars,2023.2.3,Win32,57.80346821,657b66ea316d21385b68909f,,,,,,,,,,,275.7813,276.784,,,277.2781,277.5235,,83,83,,,,,,,,,,,,,,,,bars/014.png,bars/mask004.png,,,,,,,,,,,,5,1,,,,,,,4,2,5,1,,,,,,,,,,,276.7841,277.2781,277.5235,279.0072,space,1.4716,,279.0072,3,83,279.9937,279.9937,280.3625,space,0.3412,,0,27,27,27,1,80,0,,,,,,,,
,,63c5335da2b625ab1ade7e7c,65af597af3ebe8cc90bc7241,2024-01-23_07h16.20.781,bars,2023.2.3,Win32,57.80346821,657b66ea316d21385b68909f,,,,,,,,,,,280.3628,281.3504,,,281.8436,282.0884,,169,-11,,,,,,,,,,,,,,,,bars/009.png,bars/mask004.png,,,,,,,,,,,,1,1,,,,,,,6,4,7,4,,,,,,,,,,,281.3504,281.8435,282.0884,286.6497,space,4.5556,,286.6497,26,64,287.6367,287.6367,288.1157,space,0.4611,,0,28,28,28,1,15,105,,,,,,,,
,,63c5335da2b625ab1ade7e7c,65af597af3ebe8cc90bc7241,2024-01-23_07h16.20.781,bars,2023.2.3,Win32,57.80346821,657b66ea316d21385b68909f,,,,,,,,,,,288.1159,289.1211,,,289.6149,289.8608,,174,-6,,,,,,,,,,,,,,,,bars/049.png,bars/mask005.png,,,,,,,,,,,,2,1,,,,,,,4,2,4,3,,,,,,,,,,,289.1212,289.6148,289.8609,293.7757,space,3.9021,,293.7757,14,59,294.767,294.7671,295.4154,space,0.6264,,0,29,29,29,1,160,115,,,,,,,,
,,63c5335da2b625ab1ade7e7c,65af597af3ebe8cc90bc7241,2024-01-23_07h16.20.781,bars,2023.2.3,Win32,57.80346821,657b66ea316d21385b68909f,,,,,,,,,,,295.4155,296.4042,,,296.8953,297.1436,,101,101,,,,,,,,,,,,,,,,bars/015.png,bars/mask002.png,,,,,,,,,,,,6,1,,,,,,,6,0,8,0,,,,,,,,,,,296.4042,296.8952,297.1436,298.7156,space,1.5665,,298.7157,9,59,299.7026,299.7027,300.1821,space,0.4569,,0,30,30,30,1,110,160,,,,,,,,
,,63c5335da2b625ab1ade7e7c,65af597af3ebe8cc90bc7241,2024-01-23_07h16.20.781,bars,2023.2.3,Win32,57.80346821,657b66ea316d21385b68909f,,,,,,,,,,,300.1823,301.1742,,,301.6701,301.9157,,165,165,,,,,,,,,,,,,,,,bars/046.png,bars/mask008.png,,,,,,,,,,,,3,1,,,,,,,4,2,5,3,,,,,,,,,,,301.1742,301.6701,301.9158,304.7024,space,2.7735,,304.7025,10,80,305.7065,305.7066,308.5645,space,2.836,,0,31,31,31,1,155,85,,,,,,,,
,,63c5335da2b625ab1ade7e7c,65af597af3ebe8cc90bc7241,2024-01-23_07h16.20.781,bars,2023.2.3,Win32,57.80346821,657b66ea316d21385b68909f,,,,,,,,,,,308.5648,309.5667,,,310.0597,310.3076,,145,-35,,,,,,,,,,,,,,,,bars/017.png,bars/mask000.png,,,,,,,,,,,,1,1,,,,,,,2,4,1,4,,,,,,,,,,,309.5668,310.0597,310.3077,312.8292,space,2.5139,,312.8293,0,80,313.8165,313.8165,317.5804,space,3.7456,,0,32,32,32,1,145,45,,,,,,,,
,,63c5335da2b625ab1ade7e7c,65af597af3ebe8cc90bc7241,2024-01-23_07h16.20.781,bars,2023.2.3,Win32,57.80346821,657b66ea316d21385b68909f,,,,,,,,,,,317.5806,318.5832,,,319.0741,319.3201,,88,88,,,,,,,,,,,,,,,,bars/038.png,bars/mask009.png,,,,,,,,,,,,0,2,,,,,,,4,2,4,1,,,,,,,,,,,318.5832,319.074,319.3202,323.2537,space,3.9219,,323.2538,77,18,324.2426,324.2426,324.8032,space,0.5385,,0,33,33,33,1,165,70,,,,,,,,
,,63c5335da2b625ab1ade7e7c,65af597af3ebe8cc90bc7241,2024-01-23_07h16.20.781,bars,2023.2.3,Win32,57.80346821,657b66ea316d21385b68909f,,,,,,,,,,,324.8035,325.7918,,,326.2829,326.5282,,123,123,,,,,,,,,,,,,,,,bars/000.png,bars/mask000.png,,,,,,,,,,,,1,2,,,,,,,2,4,4,5,,,,,,,,,,,325.7919,326.2829,326.5282,331.9334,space,5.398,,331.9335,83,22,332.9224,332.9224,334.1072,space,1.1642,,0,34,34,34,1,40,145,,,,,,,,
,,63c5335da2b625ab1ade7e7c,65af597af3ebe8cc90bc7241,2024-01-23_07h16.20.781,bars,2023.2.3,Win32,57.80346821,657b66ea316d21385b68909f,,,,,,,,,,,334.1075,335.0966,,,335.5927,335.8407,,113,-67,,,,,,,,,,,,,,,,bars/049.png,bars/mask008.png,,,,,,,,,,,,6,2,,,,,,,4,6,5,6,,,,,,,,,,,335.0966,335.5927,335.8407,341.3119,space,5.455,,341.3119,47,2,342.2991,342.2991,342.5108,space,0.1827,,0,35,35,35,1,160,115,,,,,,,,
,,63c5335da2b625ab1ade7e7c,65af597af3ebe8cc90bc7241,2024-01-23_07h16.20.781,bars,2023.2.3,Win32,57.80346821,657b66ea316d21385b68909f,,,,,,,,,,,342.511,343.4985,,,343.9916,344.2376,,98,98,,,,,,,,,,,,,,,,bars/037.png,bars/mask008.png,,,,,,,,,,,,3,2,,,,,,,6,4,6,4,,,,,,,,,,,343.4985,343.9915,344.2376,346.9656,space,2.7105,,346.9656,52,7,347.9689,347.969,348.5475,space,0.5612,,0,36,36,36,1,150,105,,,,,,,,
,,63c5335da2b625ab1ade7e7c,65af597af3ebe8cc90bc7241,2024-01-23_07h16.20.781,bars,2023.2.3,Win32,57.80346821,657b66ea316d21385b68909f,,,,,,,,,,,348.5477,349.5368,,,350.0305,350.2762,,162,-18,,,,,,,,,,,,,,,,bars/020.png,bars/mask002.png,,,,,,,,,,,,1,2,,,,,,,8,2,9,2,,,,,,,,,,,349.5369,350.0304,350.2762,352.3581,space,2.0712,,352.3582,47,8,353.346,353.346,354.1896,space,0.8329,,0,37,37,37,1,115,170,,,,,,,,
,,63c5335da2b625ab1ade7e7c,65af597af3ebe8cc90bc7241,2024-01-23_07h16.20.781,bars,2023.2.3,Win32,57.80346821,657b66ea316d21385b68909f,,,,,,,,,,,354.1898,355.1794,,,355.6758,355.9233,,41,41,,,,,,,,,,,,,,,,bars/016.png,bars/mask009.png,,,,,,,,,,,,7,1,,,,,,,10,4,7,4,,,,,,,,,,,355.1794,355.6758,355.9233,357.6116,space,1.6677,,357.6116,1,56,358.6006,358.6006,358.953,space,0.3257,,0,38,38,38,1,40,165,,,,,,,,
,,63c5335da2b625ab1ade7e7c,65af597af3ebe8cc90bc7241,2024-01-23_07h16.20.781,bars,2023.2.3,Win32,57.80346821,657b66ea316d21385b68909f,,,,,,,,,,,358.9534,359.9536,,,360.4464,360.6921,,101,101,,,,,,,,,,,,,,,,bars/045.png,bars/mask006.png,,,,,,,,,,,,10,1,,,,,,,10,6,10,5,,,,,,,,,,,359.9537,360.4463,360.6921,362.667,space,1.958,,362.6671,1,89,363.6707,363.6707,364.2871,space,0.6039,,0,39,39,39,1,100,10,,,,,,,,
,,63c5335da2b625ab1ade7e7c,65af597af3ebe8cc90bc7241,2024-01-23_07h16.20.781,bars,2023.2.3,Win32,57.80346821,657b66ea316d21385b68909f,,,,,,,,,,,364.2873,365.286,,,365.7745,366.0228,,70,70,,,,,,,,,,,,,,,,bars/016.png,bars/mask000.png,,,,,,,,,,,,0,1,,,,,,,8,4,10,4,,,,,,,,,,,365.2861,365.7745,366.0228,367.9925,space,1.9592,,367.9925,30,85,368.9832,368.9832,369.5444,space,0.5395,,0,40,40,40,1,40,165,,,,,,,,
,,63c5335da2b625ab1ade7e7c,65af597af3ebe8cc90bc7241,2024-01-23_07h16.20.781,bars,2023.2.3,Win32,57.80346821,657b66ea316d21385b68909f,,,,,,,,,,,369.5448,370.5322,,,371.0241,371.2718,,24,24,,,,,,,,,,,,,,,,bars/005.png,bars/mask001.png,,,,,,,,,,,,5,1,,,,,,,10,2,10,2,,,,,,,,,,,370.5322,371.0241,371.2718,373.0108,space,1.722,,373.0108,14,64,373.9998,373.9998,374.053,space,0.0271,,0,41,41,41,1,10,140,,,,,,,,
,,63c5335da2b625ab1ade7e7c,65af597af3ebe8cc90bc7241,2024-01-23_07h16.20.781,bars,2023.2.3,Win32,57.80346821,657b66ea316d21385b68909f,,,,,,,,,,,374.0537,375.045,,,375.5367,375.7854,,48,48,,,,,,,,,,,,,,,,bars/016.png,bars/mask003.png,,,,,,,,,,,,7,1,,,,,,,10,0,10,0,,,,,,,,,,,375.045,375.5367,375.7854,376.6176,space,0.8168,,376.6176,8,63,377.6088,377.6088,377.9417,space,0.323,,0,42,42,42,1,40,165,,,,,,,,
,,63c5335da2b625ab1ade7e7c,65af597af3ebe8cc90bc7241,2024-01-23_07h16.20.781,bars,2023.2.3,Win32,57.80346821,657b66ea316d21385b68909f,,,,,,,,,,,377.9421,378.9298,,,379.4241,379.6694,,156,156,,,,,,,,,,,,,,,,bars/037.png,bars/mask000.png,,,,,,,,,,,,6,1,,,,,,,8,0,8,1,,,,,,,,,,,378.9299,379.424,379.6695,382.6437,space,2.9541,,382.6437,6,51,383.6315,383.6315,384.3334,space,0.6819,,0,43,43,43,1,150,105,,,,,,,,
,,63c5335da2b625ab1ade7e7c,65af597af3ebe8cc90bc7241,2024-01-23_07h16.20.781,bars,2023.2.3,Win32,57.80346821,657b66ea316d21385b68909f,,,,,,,,,,,384.3336,385.3212,,,385.8175,386.0639,,20,20,,,,,,,,,,,,,,,,bars/000.png,bars/mask004.png,,,,,,,,,,,,3,1,,,,,,,10,2,10,0,,,,,,,,,,,385.3212,385.8175,386.0639,389.1818,space,3.1064,,389.1818,20,55,390.1715,390.1716,390.3133,space,0.1083,,0,44,44,44,1,40,145,,,,,,,,
,,63c5335da2b625ab1ade7e7c,65af597af3ebe8cc90bc7241,2024-01-23_07h16.20.781,bars,2023.2.3,Win32,57.80346821,657b66ea316d21385b68909f,,,,,,,,,,,390.3137,391.302,,,391.7956,392.0427,,172,172,,,,,,,,,,,,,,,,bars/049.png,bars/mask004.png,,,,,,,,,,,,6,1,,,,,,,10,4,10,4,,,,,,,,,,,391.3021,391.7955,392.0427,394.6216,space,2.5689,,394.6216,12,57,395.6231,395.6232,395.6763,space,0.0411,,0,45,45,45,1,160,115,,,,,,,,
,,63c5335da2b625ab1ade7e7c,65af597af3ebe8cc90bc7241,2024-01-23_07h16.20.781,bars,2023.2.3,Win32,57.80346821,657b66ea316d21385b68909f,,,,,,,,,,,395.6765,396.6811,,,397.1767,397.4224,,156,156,,,,,,,,,,,,,,,,bars/030.png,bars/mask000.png,,,,,,,,,,,,4,1,,,,,,,8,6,9,5,,,,,,,,,,,396.6811,397.1767,397.4225,399.0616,space,1.6287,,399.0616,16,89,400.066,400.0661,401.0912,space,0.9985,,0,46,46,46,1,140,65,,,,,,,,
,,63c5335da2b625ab1ade7e7c,65af597af3ebe8cc90bc7241,2024-01-23_07h16.20.781,bars,2023.2.3,Win32,57.80346821,657b66ea316d21385b68909f,,,,,,,,,,,401.0915,402.0943,,,402.5876,402.8352,,70,250,,,,,,,,,,,,,,,,bars/048.png,bars/mask001.png,,,,,,,,,,,,3,1,,,,,,,10,8,9,8,,,,,,,,,,,402.0943,402.5876,402.8352,407.1176,space,4.2706,,407.1176,20,75,408.1047,408.1048,408.4034,space,0.2707,,0,47,47,47,1,50,175,,,,,,,,
,,63c5335da2b625ab1ade7e7c,65af597af3ebe8cc90bc7241,2024-01-23_07h16.20.781,bars,2023.2.3,Win32,57.80346821,657b66ea316d21385b68909f,,,,,,,,,,,408.4037,409.4058,,,409.8981,410.1465,,99,99,,,,,,,,,,,,,,,,bars/025.png,bars/mask000.png,,,,,,,,,,,,8,1,,,,,,,10,6,10,7,,,,,,,,,,,409.4059,409.898,410.1465,413.5673,space,3.4064,,413.5674,6,59,414.5699,414.5699,414.7481,space,0.1532,,0,48,48,48,1,105,40,,,,,,,,
,,63c5335da2b625ab1ade7e7c,65af597af3ebe8cc90bc7241,2024-01-23_07h16.20.781,bars,2023.2.3,Win32,57.80346821,657b66ea316d21385b68909f,,,,,,,,,,,414.7484,415.7527,,,416.2446,416.4906,,175,175,,,,,,,,,,,,,,,,bars/011.png,bars/mask009.png,,,,,,,,,,,,5,1,,,,,,,8,8,9,9,,,,,,,,,,,415.7528,416.2445,416.4906,419.8166,space,3.3103,,419.8166,15,90,420.8046,420.8047,421.2833,space,0.4481,,0,49,49,49,1,160,85,,,,,,,,
,,63c5335da2b625ab1ade7e7c,65af597af3ebe8cc90bc7241,2024-01-23_07h16.20.781,bars,2023.2.3,Win32,57.80346821,657b66ea316d21385b68909f,,,,,,,,,,,,,,,,,,,,,,,,,,,,,,,,,,,,,,,,,,,,,,,,,,,,,,,,,,,,,,,,,,,,,,,,,,,,,,,,,,,,,,,,,,,,,421.2847,481.2862,0,0,0,1,1,sequence_tables/blk038.csv
,,63c5335da2b625ab1ade7e7c,65af597af3ebe8cc90bc7241,2024-01-23_07h16.20.781,bars,2023.2.3,Win32,57.80346821,657b66ea316d21385b68909f,,,,,,,,,,,483.1726,484.1742,,,484.6715,484.9173,,97,97,,,,,,,,,,,,,,,,bars/006.png,bars/mask006.png,,,,,,,,,,,,6,2,,,,,,,4,7,3,7,,,,,,481.2974,483.1677,space,1.8617,,484.1742,484.6715,484.9173,487.6858,space,2.7497,,487.6858,62,3,488.6903,488.6903,488.7019,,,,0,0,0,0,1,35,100,,,,,,,,
,,63c5335da2b625ab1ade7e7c,65af597af3ebe8cc90bc7241,2024-01-23_07h16.20.781,bars,2023.2.3,Win32,57.80346821,657b66ea316d21385b68909f,,,,,,,,,,,488.7022,489.6935,,,490.1913,490.4369,,87,87,,,,,,,,,,,,,,,,bars/026.png,bars/mask009.png,,,,,,,,,,,,5,2,,,,,,,6,5,7,5,,,,,,,,,,,489.6935,490.1912,490.4369,493.8712,space,3.4171,,493.8713,52,2,494.874,494.874,494.8844,,,,0,1,1,1,1,35,85,,,,,,,,
,,63c5335da2b625ab1ade7e7c,65af597af3ebe8cc90bc7241,2024-01-23_07h16.20.781,bars,2023.2.3,Win32,57.80346821,657b66ea316d21385b68909f,,,,,,,,,,,494.8846,495.8738,,,496.3684,496.6148,,52,52,,,,,,,,,,,,,,,,bars/025.png,bars/mask000.png,,,,,,,,,,,,2,2,,,,,,,4,3,4,4,,,,,,,,,,,495.8738,496.3684,496.6148,498.6903,space,2.0588,,498.6903,53,12,499.695,499.695,499.7055,,,,0,2,2,2,1,105,40,,,,,,,,
,,63c5335da2b625ab1ade7e7c,65af597af3ebe8cc90bc7241,2024-01-23_07h16.20.781,bars,2023.2.3,Win32,57.80346821,657b66ea316d21385b68909f,,,,,,,,,,,499.7057,500.7016,,,501.1945,501.4408,,11,191,,,,,,,,,,,,,,,,bars/022.png,bars/mask001.png,,,,,,,,,,,,4,2,,,,,,,2,5,2,5,,,,,,,,,,,500.7016,501.1945,501.4408,503.6938,space,2.2323,,503.6938,84,9,504.6845,504.6845,504.6952,,,,0,3,3,3,1,95,20,,,,,,,,
,,63c5335da2b625ab1ade7e7c,65af597af3ebe8cc90bc7241,2024-01-23_07h16.20.781,bars,2023.2.3,Win32,57.80346821,657b66ea316d21385b68909f,,,,,,,,,,,504.6954,505.6917,,,506.184,506.4299,,44,44,,,,,,,,,,,,,,,,bars/035.png,bars/mask006.png,,,,,,,,,,,,2,2,,,,,,,0,3,1,4,,,,,,,,,,,505.6917,506.184,506.4299,509.3222,space,2.874,,509.3222,49,16,510.3094,510.3094,510.321,,,,0,4,4,4,1,175,60,,,,,,,,
,,63c5335da2b625ab1ade7e7c,65af597af3ebe8cc90bc7241,2024-01-23_07h16.20.781,bars,2023.2.3,Win32,57.80346821,657b66ea316d21385b68909f,,,,,,,,,,,510.3212,511.3177,,,511.8112,512.0578,,5,185,,,,,,,,,,,,,,,,bars/014.png,bars/mask009.png,,,,,,,,,,,,2,2,,,,,,,0,5,0,2,,,,,,,,,,,511.3177,511.8112,512.0578,514.5309,space,2.4661,,514.5309,75,5,515.5266,515.5266,515.5372,,,,0,5,5,5,1,80,0,,,,,,,,
,,63c5335da2b625ab1ade7e7c,65af597af3ebe8cc90bc7241,2024-01-23_07h16.20.781,bars,2023.2.3,Win32,57.80346821,657b66ea316d21385b68909f,,,,,,,,,,,515.5374,516.5334,,,517.0284,517.2764,,109,109,,,,,,,,,,,,,,,,bars/037.png,bars/mask002.png,,,,,,,,,,,,5,2,,,,,,,2,7,3,6,,,,,,,,,,,516.5334,517.0284,517.2764,518.6736,space,1.3766,,518.6736,41,4,519.6622,519.6623,519.6727,,,,0,6,6,6,1,150,105,,,,,,,,
,,63c5335da2b625ab1ade7e7c,65af597af3ebe8cc90bc7241,2024-01-23_07h16.20.781,bars,2023.2.3,Win32,57.80346821,657b66ea316d21385b68909f,,,,,,,,,,,519.6729,520.668,,,521.1616,521.4094,,38,38,,,,,,,,,,,,,,,,bars/031.png,bars/mask007.png,,,,,,,,,,,,8,2,,,,,,,0,9,0,9,,,,,,,,,,,520.668,521.1615,521.4095,523.7843,space,2.3592,,523.7843,82,3,524.7854,524.7854,524.7961,,,,0,7,7,7,1,120,35,,,,,,,,
,,63c5335da2b625ab1ade7e7c,65af597af3ebe8cc90bc7241,2024-01-23_07h16.20.781,bars,2023.2.3,Win32,57.80346821,657b66ea316d21385b68909f,,,,,,,,,,,524.7963,525.7924,,,526.2827,526.5296,,82,82,,,,,,,,,,,,,,,,bars/002.png,bars/mask009.png,,,,,,,,,,,,9,2,,,,,,,0,10,0,10,,,,,,,,,,,525.7926,526.2827,526.5297,527.8359,space,1.2905,,527.8359,48,3,528.8241,528.8243,528.8249,,,,0,8,8,8,1,130,85,,,,,,,,
,,63c5335da2b625ab1ade7e7c,65af597af3ebe8cc90bc7241,2024-01-23_07h16.20.781,bars,2023.2.3,Win32,57.80346821,657b66ea316d21385b68909f,,,,,,,,,,,528.8251,529.8247,,,530.3175,530.5635,,62,62,,,,,,,,,,,,,,,,bars/017.png,bars/mask007.png,,,,,,,,,,,,4,2,,,,,,,2,10,2,10,,,,,,,,,,,529.8247,530.3175,530.5635,533.4355,space,2.8667,,533.4356,83,17,534.4369,534.437,534.4477,,,,0,9,9,9,1,145,45,,,,,,,,
,,63c5335da2b625ab1ade7e7c,65af597af3ebe8cc90bc7241,2024-01-23_07h16.20.781,bars,2023.2.3,Win32,57.80346821,657b66ea316d21385b68909f,,,,,,,,,,,534.4478,535.4368,,,535.9294,536.1758,,178,-2,,,,,,,,,,,,,,,,bars/012.png,bars/mask008.png,,,,,,,,,,,,4,2,,,,,,,4,10,4,10,,,,,,,,,,,535.4369,535.9294,536.1758,537.6212,space,1.4278,,537.6212,88,17,538.6235,538.6235,538.624,,,,0,10,10,10,1,90,15,,,,,,,,
,,63c5335da2b625ab1ade7e7c,65af597af3ebe8cc90bc7241,2024-01-23_07h16.20.781,bars,2023.2.3,Win32,57.80346821,657b66ea316d21385b68909f,,,,,,,,,,,538.6242,539.6125,,,540.1048,540.3498,,85,85,,,,,,,,,,,,,,,,bars/001.png,bars/mask004.png,,,,,,,,,,,,10,2,,,,,,,2,10,0,10,,,,,,,,,,,539.6125,540.1048,540.3498,542.9997,space,2.6364,,542.9998,45,0,543.9864,543.9864,543.9971,,,,0,11,11,11,1,130,85,,,,,,,,
,,63c5335da2b625ab1ade7e7c,65af597af3ebe8cc90bc7241,2024-01-23_07h16.20.781,bars,2023.2.3,Win32,57.80346821,657b66ea316d21385b68909f,,,,,,,,,,,543.9972,544.9924,,,545.4867,545.7331,,125,125,,,,,,,,,,,,,,,,bars/004.png,bars/mask003.png,,,,,,,,,,,,10,2,,,,,,,4,10,4,10,,,,,,,,,,,544.9924,545.4867,545.7332,547.2516,space,1.5064,,547.2516,80,0,548.2418,548.2419,548.2426,,,,0,12,12,12,1,25,125,,,,,,,,
,,63c5335da2b625ab1ade7e7c,65af597af3ebe8cc90bc7241,2024-01-23_07h16.20.781,bars,2023.2.3,Win32,57.80346821,657b66ea316d21385b68909f,,,,,,,,,,,548.2429,549.2444,,,549.7397,549.9885,,126,126,,,,,,,,,,,,,,,,bars/004.png,bars/mask002.png,,,,,,,,,,,,7,2,,,,,,,6,8,5,7,,,,,,,,,,,549.2444,549.7397,549.9886,551.7712,space,1.7717,,551.7712,79,1,552.7745,552.7746,552.775,,,,0,13,13,13,1,25,125,,,,,,,,
,,63c5335da2b625ab1ade7e7c,65af597af3ebe8cc90bc7241,2024-01-23_07h16.20.781,bars,2023.2.3,Win32,57.80346821,657b66ea316d21385b68909f,,,,,,,,,,,552.7752,553.7665,,,554.258,554.5052,,68,68,,,,,,,,,,,,,,,,bars/047.png,bars/mask009.png,,,,,,,,,,,,9,2,,,,,,,4,10,4,10,,,,,,,,,,,553.7665,554.258,554.5052,556.2134,space,1.6897,,556.2134,53,2,557.2022,557.2022,557.2026,,,,0,14,14,14,1,15,70,,,,,,,,
,,63c5335da2b625ab1ade7e7c,65af597af3ebe8cc90bc7241,2024-01-23_07h16.20.781,bars,2023.2.3,Win32,57.80346821,657b66ea316d21385b68909f,,,,,,,,,,,557.2028,558.1896,,,558.6833,558.9321,,135,135,,,,,,,,,,,,,,,,bars/005.png,bars/mask003.png,,,,,,,,,,,,8,2,,,,,,,2,10,2,10,,,,,,,,,,,558.1896,558.6833,558.9322,560.3627,space,1.4104,,560.3627,55,5,561.3508,561.3508,561.3514,,,,0,15,15,15,1,10,140,,,,,,,,
,,63c5335da2b625ab1ade7e7c,65af597af3ebe8cc90bc7241,2024-01-23_07h16.20.781,bars,2023.2.3,Win32,57.80346821,657b66ea316d21385b68909f,,,,,,,,,,,561.3515,562.3428,,,562.8409,563.0874,,94,94,,,,,,,,,,,,,,,,bars/041.png,bars/mask008.png,,,,,,,,,,,,6,2,,,,,,,4,10,5,8,,,,,,,,,,,562.3428,562.8409,563.0874,564.7592,space,1.6615,,564.7592,74,9,565.7603,565.7603,565.7708,,,,0,16,16,16,1,20,85,,,,,,,,
,,63c5335da2b625ab1ade7e7c,65af597af3ebe8cc90bc7241,2024-01-23_07h16.20.781,bars,2023.2.3,Win32,57.80346821,657b66ea316d21385b68909f,,,,,,,,,,,565.771,566.7673,,,567.2592,567.5065,,88,88,,,,,,,,,,,,,,,,bars/011.png,bars/mask005.png,,,,,,,,,,,,8,2,,,,,,,6,10,9,9,,,,,,,,,,,566.7673,567.2591,567.5065,571.0036,space,3.4796,,571.0036,72,3,572.0076,572.0076,572.0182,,,,0,17,17,17,1,160,85,,,,,,,,
,,63c5335da2b625ab1ade7e7c,65af597af3ebe8cc90bc7241,2024-01-23_07h16.20.781,bars,2023.2.3,Win32,57.80346821,657b66ea316d21385b68909f,,,,,,,,,,,572.0184,573.0139,,,573.5081,573.7556,,88,88,,,,,,,,,,,,,,,,bars/001.png,bars/mask000.png,,,,,,,,,,,,8,2,,,,,,,8,8,7,9,,,,,,,,,,,573.014,573.5081,573.7556,575.4329,space,1.6628,,575.4329,42,3,576.4351,576.4351,576.4357,,,,0,18,18,18,1,130,85,,,,,,,,
,,63c5335da2b625ab1ade7e7c,65af597af3ebe8cc90bc7241,2024-01-23_07h16.20.781,bars,2023.2.3,Win32,57.80346821,657b66ea316d21385b68909f,,,,,,,,,,,576.4359,577.4239,,,577.92,578.1685,,0,0,,,,,,,,,,,,,,,,bars/032.png,bars/mask008.png,,,,,,,,,,,,3,2,,,,,,,6,10,7,9,,,,,,,,,,,577.424,577.9199,578.1685,579.3676,space,1.1814,,579.3677,55,20,580.3695,580.3695,580.37,,,,0,19,19,19,1,125,20,,,,,,,,
,,63c5335da2b625ab1ade7e7c,65af597af3ebe8cc90bc7241,2024-01-23_07h16.20.781,bars,2023.2.3,Win32,57.80346821,657b66ea316d21385b68909f,,,,,,,,,,,580.3701,581.3625,,,581.8557,582.1004,,74,74,,,,,,,,,,,,,,,,bars/010.png,bars/mask008.png,,,,,,,,,,,,3,2,,,,,,,4,8,4,9,,,,,,,,,,,581.3625,581.8557,582.1004,586.4737,space,4.3532,,586.4737,89,19,587.4625,587.4625,587.4729,,,,0,20,20,20,1,165,55,,,,,,,,
,,63c5335da2b625ab1ade7e7c,65af597af3ebe8cc90bc7241,2024-01-23_07h16.20.781,bars,2023.2.3,Win32,57.80346821,657b66ea316d21385b68909f,,,,,,,,,,,587.4731,588.467,,,588.9599,589.2089,,71,71,,,,,,,,,,,,,,,,bars/047.png,bars/mask000.png,,,,,,,,,,,,10,2,,,,,,,2,10,3,10,,,,,,,,,,,588.467,588.9599,589.2089,592.3024,space,3.0813,,592.3025,56,1,593.2921,593.2922,593.3027,,,,0,21,21,21,1,15,70,,,,,,,,
,,63c5335da2b625ab1ade7e7c,65af597af3ebe8cc90bc7241,2024-01-23_07h16.20.781,bars,2023.2.3,Win32,57.80346821,657b66ea316d21385b68909f,,,,,,,,,,,593.3028,594.2922,,,594.7867,595.0338,,71,71,,,,,,,,,,,,,,,,bars/047.png,bars/mask006.png,,,,,,,,,,,,9,2,,,,,,,4,10,4,9,,,,,,,,,,,594.2922,594.7867,595.0338,598.1053,space,3.0544,,598.1054,56,1,599.0928,599.0928,599.1035,,,,0,22,22,22,1,15,70,,,,,,,,
,,63c5335da2b625ab1ade7e7c,65af597af3ebe8cc90bc7241,2024-01-23_07h16.20.781,bars,2023.2.3,Win32,57.80346821,657b66ea316d21385b68909f,,,,,,,,,,,599.1037,600.0988,,,600.5905,600.8369,,69,69,,,,,,,,,,,,,,,,bars/034.png,bars/mask007.png,,,,,,,,,,,,7,2,,,,,,,6,8,5,8,,,,,,,,,,,600.0988,600.5905,600.8369,603.8876,space,3.0394,,603.8877,56,4,604.8773,604.8773,604.8879,,,,0,23,23,23,1,125,65,,,,,,,,
,,63c5335da2b625ab1ade7e7c,65af597af3ebe8cc90bc7241,2024-01-23_07h16.20.781,bars,2023.2.3,Win32,57.80346821,657b66ea316d21385b68909f,,,,,,,,,,,604.8881,605.8837,,,606.375,606.6201,,179,-1,,,,,,,,,,,,,,,,bars/008.png,bars/mask006.png,,,,,,,,,,,,10,2,,,,,,,4,10,2,10,,,,,,,,,,,605.8837,606.375,606.6202,608.66,space,2.0221,,608.66,69,1,609.6467,609.6467,609.6573,,,,0,24,24,24,1,110,0,,,,,,,,
,,63c5335da2b625ab1ade7e7c,65af597af3ebe8cc90bc7241,2024-01-23_07h16.20.781,bars,2023.2.3,Win32,57.80346821,657b66ea316d21385b68909f,,,,,,,,,,,609.6575,610.6528,,,611.1508,611.3983,,176,-4,,,,,,,,,,,,,,,,bars/033.png,bars/mask004.png,,,,,,,,,,,,3,2,,,,,,,2,8,2,9,,,,,,,,,,,610.6528,611.1508,611.3983,614.0105,space,2.5967,,614.0105,29,21,615.0115,615.0115,615.0222,,,,0,25,25,25,1,25,155,,,,,,,,
,,63c5335da2b625ab1ade7e7c,65af597af3ebe8cc90bc7241,2024-01-23_07h16.20.781,bars,2023.2.3,Win32,57.80346821,657b66ea316d21385b68909f,,,,,,,,,,,615.0224,616.0222,,,616.5161,616.7626,,83,83,,,,,,,,,,,,,,,,bars/021.png,bars/mask008.png,,,,,,,,,,,,6,2,,,,,,,4,10,4,10,,,,,,,,,,,616.0223,616.5161,616.7626,618.7714,space,1.9905,,618.7714,72,13,619.7613,619.7613,619.7719,,,,0,26,26,26,1,155,70,,,,,,,,
,,63c5335da2b625ab1ade7e7c,65af597af3ebe8cc90bc7241,2024-01-23_07h16.20.781,bars,2023.2.3,Win32,57.80346821,657b66ea316d21385b68909f,,,,,,,,,,,619.772,620.7655,,,621.2586,621.5055,,158,158,,,,,,,,,,,,,,,,bars/043.png,bars/mask008.png,,,,,,,,,,,,0,2,,,,,,,6,8,5,7,,,,,,,,,,,620.7655,621.2584,621.5055,624.8201,space,3.3087,,624.8201,52,28,625.8114,625.8115,625.8219,,,,0,27,27,27,1,30,130,,,,,,,,
,,63c5335da2b625ab1ade7e7c,65af597af3ebe8cc90bc7241,2024-01-23_07h16.20.781,bars,2023.2.3,Win32,57.80346821,657b66ea316d21385b68909f,,,,,,,,,,,625.822,626.8204,,,627.3146,627.5618,,62,62,,,,,,,,,,,,,,,,bars/025.png,bars/mask002.png,,,,,,,,,,,,3,2,,,,,,,8,10,7,10,,,,,,,,,,,626.8204,627.3146,627.5618,629.3758,space,1.8031,,629.3759,43,22,630.3754,630.3755,630.387,,,,0,28,28,28,1,105,40,,,,,,,,
,,63c5335da2b625ab1ade7e7c,65af597af3ebe8cc90bc7241,2024-01-23_07h16.20.781,bars,2023.2.3,Win32,57.80346821,657b66ea316d21385b68909f,,,,,,,,,,,630.3872,631.3852,,,631.8787,632.1253,,0,180,,,,,,,,,,,,,,,,bars/023.png,bars/mask005.png,,,,,,,,,,,,3,1,,,,,,,10,8,10,7,,,,,,,,,,,631.3852,631.8787,632.1253,634.715,space,2.5724,,634.7151,20,65,635.7049,635.7049,635.7163,,,,0,29,29,29,1,20,115,,,,,,,,
,,63c5335da2b625ab1ade7e7c,65af597af3ebe8cc90bc7241,2024-01-23_07h16.20.781,bars,2023.2.3,Win32,57.80346821,657b66ea316d21385b68909f,,,,,,,,,,,635.7165,636.7048,,,637.1951,637.4431,,5,5,,,,,,,,,,,,,,,,bars/041.png,bars/mask002.png,,,,,,,,,,,,4,1,,,,,,,8,6,8,7,,,,,,,,,,,636.7048,637.1951,637.4432,641.1456,space,3.688,,641.1456,15,80,642.1477,642.1477,642.1586,,,,0,30,30,30,1,20,85,,,,,,,,
,,63c5335da2b625ab1ade7e7c,65af597af3ebe8cc90bc7241,2024-01-23_07h16.20.781,bars,2023.2.3,Win32,57.80346821,657b66ea316d21385b68909f,,,,,,,,,,,642.1589,643.1545,,,643.6505,643.8964,,50,230,,,,,,,,,,,,,,,,bars/019.png,bars/mask007.png,,,,,,,,,,,,8,1,,,,,,,10,4,10,5,,,,,,,,,,,643.1545,643.6505,643.8964,646.9258,space,3.0188,,646.9258,5,55,647.9272,647.9272,647.9377,,,,0,31,31,31,1,45,105,,,,,,,,
,,63c5335da2b625ab1ade7e7c,65af597af3ebe8cc90bc7241,2024-01-23_07h16.20.781,bars,2023.2.3,Win32,57.80346821,657b66ea316d21385b68909f,,,,,,,,,,,647.9379,648.9314,,,649.4251,649.6744,,10,10,,,,,,,,,,,,,,,,bars/009.png,bars/mask003.png,,,,,,,,,,,,8,1,,,,,,,10,2,10,2,,,,,,,,,,,648.9314,649.4251,649.6744,653.0804,space,3.3851,,653.0805,5,85,654.0822,654.0822,654.0928,,,,0,32,32,32,1,15,105,,,,,,,,
,,63c5335da2b625ab1ade7e7c,65af597af3ebe8cc90bc7241,2024-01-23_07h16.20.781,bars,2023.2.3,Win32,57.80346821,657b66ea316d21385b68909f,,,,,,,,,,,654.093,655.0864,,,655.5776,655.8247,,34,214,,,,,,,,,,,,,,,,bars/005.png,bars/mask004.png,,,,,,,,,,,,2,1,,,,,,,10,4,10,6,,,,,,,,,,,655.0864,655.5775,655.8247,658.7115,space,2.8669,,658.7115,24,74,659.6997,659.6997,659.7101,,,,0,33,33,33,1,10,140,,,,,,,,
,,63c5335da2b625ab1ade7e7c,65af597af3ebe8cc90bc7241,2024-01-23_07h16.20.781,bars,2023.2.3,Win32,57.80346821,657b66ea316d21385b68909f,,,,,,,,,,,659.7103,660.703,,,661.1956,661.4399,,171,171,,,,,,,,,,,,,,,,bars/011.png,bars/mask009.png,,,,,,,,,,,,4,1,,,,,,,8,6,6,7,,,,,,,,,,,660.7031,661.1956,661.4399,665.2135,space,3.7631,,665.2136,11,86,666.2164,666.2164,666.227,,,,0,34,34,34,1,160,85,,,,,,,,
,,63c5335da2b625ab1ade7e7c,65af597af3ebe8cc90bc7241,2024-01-23_07h16.20.781,bars,2023.2.3,Win32,57.80346821,657b66ea316d21385b68909f,,,,,,,,,,,666.2271,667.2222,,,667.7172,667.9652,,157,157,,,,,,,,,,,,,,,,bars/021.png,bars/mask001.png,,,,,,,,,,,,7,1,,,,,,,6,8,7,7,,,,,,,,,,,667.2222,667.7172,667.9653,669.7417,space,1.7578,,669.7418,2,87,670.7404,670.7404,670.7409,,,,0,35,35,35,1,155,70,,,,,,,,
,,63c5335da2b625ab1ade7e7c,65af597af3ebe8cc90bc7241,2024-01-23_07h16.20.781,bars,2023.2.3,Win32,57.80346821,657b66ea316d21385b68909f,,,,,,,,,,,670.7412,671.7419,,,672.2363,672.4845,,14,194,,,,,,,,,,,,,,,,bars/004.png,bars/mask006.png,,,,,,,,,,,,6,1,,,,,,,8,10,9,10,,,,,,,,,,,671.7419,672.2362,672.4845,676.0127,space,3.5078,,676.0127,11,69,677.001,677.0011,677.0115,,,,0,36,36,36,1,25,125,,,,,,,,
,,63c5335da2b625ab1ade7e7c,65af597af3ebe8cc90bc7241,2024-01-23_07h16.20.781,bars,2023.2.3,Win32,57.80346821,657b66ea316d21385b68909f,,,,,,,,,,,677.0117,678.0089,,,678.5031,678.751,,131,131,,,,,,,,,,,,,,,,bars/002.png,bars/mask001.png,,,,,,,,,,,,10,1,,,,,,,10,8,10,8,,,,,,,,,,,678.009,678.5031,678.751,682.0521,space,3.2878,,682.0521,1,46,683.04,683.04,683.0506,,,,0,37,37,37,1,130,85,,,,,,,,
,,63c5335da2b625ab1ade7e7c,65af597af3ebe8cc90bc7241,2024-01-23_07h16.20.781,bars,2023.2.3,Win32,57.80346821,657b66ea316d21385b68909f,,,,,,,,,,,683.0508,684.0428,,,684.534,684.7814,,14,14,,,,,,,,,,,,,,,,bars/005.png,bars/mask003.png,,,,,,,,,,,,8,1,,,,,,,8,10,9,10,,,,,,,,,,,684.0428,684.534,684.7814,686.7175,space,1.9221,,686.7176,4,54,687.7216,687.7216,687.7324,,,,0,38,38,38,1,10,140,,,,,,,,
,,63c5335da2b625ab1ade7e7c,65af597af3ebe8cc90bc7241,2024-01-23_07h16.20.781,bars,2023.2.3,Win32,57.80346821,657b66ea316d21385b68909f,,,,,,,,,,,687.7326,688.7258,,,689.2219,689.4691,,122,122,,,,,,,,,,,,,,,,bars/018.png,bars/mask007.png,,,,,,,,,,,,0,1,,,,,,,6,8,5,9,,,,,,,,,,,688.7258,689.2219,689.4691,692.0834,space,2.5979,,692.0835,28,32,693.0875,693.0875,693.0987,,,,0,39,39,39,1,150,90,,,,,,,,
,,63c5335da2b625ab1ade7e7c,65af597af3ebe8cc90bc7241,2024-01-23_07h16.20.781,bars,2023.2.3,Win32,57.80346821,657b66ea316d21385b68909f,,,,,,,,,,,693.0988,694.0936,,,694.5905,694.8365,,110,110,,,,,,,,,,,,,,,,bars/040.png,bars/mask000.png,,,,,,,,,,,,0,1,,,,,,,4,6,4,6,,,,,,,,,,,694.0936,694.5904,694.8366,697.7116,space,2.8635,,697.7116,30,75,698.7011,698.7011,698.7119,,,,0,40,40,40,1,140,5,,,,,,,,
,,63c5335da2b625ab1ade7e7c,65af597af3ebe8cc90bc7241,2024-01-23_07h16.20.781,bars,2023.2.3,Win32,57.80346821,657b66ea316d21385b68909f,,,,,,,,,,,698.7122,699.7084,,,700.2024,700.4511,,99,99,,,,,,,,,,,,,,,,bars/026.png,bars/mask005.png,,,,,,,,,,,,4,2,,,,,,,2,8,2,8,,,,,,,,,,,699.7085,700.2024,700.4511,702.5318,space,2.0661,,702.5318,64,14,703.5311,703.5311,703.5325,,,,0,41,41,41,1,35,85,,,,,,,,
,,63c5335da2b625ab1ade7e7c,65af597af3ebe8cc90bc7241,2024-01-23_07h16.20.781,bars,2023.2.3,Win32,57.80346821,657b66ea316d21385b68909f,,,,,,,,,,,703.5328,704.5337,,,705.0271,705.2738,,1,181,,,,,,,,,,,,,,,,bars/045.png,bars/mask002.png,,,,,,,,,,,,7,2,,,,,,,4,10,2,10,,,,,,,,,,,704.5338,705.0271,705.2739,709.1693,space,3.8833,,709.1693,81,9,710.1709,710.1709,710.1814,,,,0,42,42,42,1,100,10,,,,,,,,
,,63c5335da2b625ab1ade7e7c,65af597af3ebe8cc90bc7241,2024-01-23_07h16.20.781,bars,2023.2.3,Win32,57.80346821,657b66ea316d21385b68909f,,,,,,,,,,,710.1816,711.1776,,,711.6695,711.9155,,38,38,,,,,,,,,,,,,,,,bars/025.png,bars/mask006.png,,,,,,,,,,,,7,2,,,,,,,6,8,6,8,,,,,,,,,,,711.1776,711.6693,711.9155,713.6443,space,1.7232,,713.6443,67,2,714.632,714.632,714.6325,,,,0,43,43,43,1,105,40,,,,,,,,
,,63c5335da2b625ab1ade7e7c,65af597af3ebe8cc90bc7241,2024-01-23_07h16.20.781,bars,2023.2.3,Win32,57.80346821,657b66ea316d21385b68909f,,,,,,,,,,,714.6327,715.6244,,,716.1192,716.3674,,90,90,,,,,,,,,,,,,,,,bars/002.png,bars/mask002.png,,,,,,,,,,,,8,2,,,,,,,4,10,5,10,,,,,,,,,,,715.6244,716.1191,716.3674,719.2223,space,2.8355,,719.2223,40,5,720.2257,720.2257,720.2363,,,,0,44,44,44,1,130,85,,,,,,,,
,,63c5335da2b625ab1ade7e7c,65af597af3ebe8cc90bc7241,2024-01-23_07h16.20.781,bars,2023.2.3,Win32,57.80346821,657b66ea316d21385b68909f,,,,,,,,,,,720.2364,721.2332,,,721.7275,721.9747,,43,43,,,,,,,,,,,,,,,,bars/031.png,bars/mask008.png,,,,,,,,,,,,6,2,,,,,,,2,8,2,8,,,,,,,,,,,721.2333,721.7274,721.9747,725.1645,space,3.1801,,725.1645,77,8,726.1687,726.1688,726.1793,,,,0,45,45,45,1,120,35,,,,,,,,
,,63c5335da2b625ab1ade7e7c,65af597af3ebe8cc90bc7241,2024-01-23_07h16.20.781,bars,2023.2.3,Win32,57.80346821,657b66ea316d21385b68909f,,,,,,,,,,,726.1795,727.1698,,,727.6626,727.9096,,177,177,,,,,,,,,,,,,,,,bars/040.png,bars/mask002.png,,,,,,,,,,,,7,2,,,,,,,0,10,0,10,,,,,,,,,,,727.1698,727.6626,727.9097,730.2414,space,2.3186,,730.2415,37,8,731.2299,731.2299,731.2304,,,,0,46,46,46,1,140,5,,,,,,,,
,,63c5335da2b625ab1ade7e7c,65af597af3ebe8cc90bc7241,2024-01-23_07h16.20.781,bars,2023.2.3,Win32,57.80346821,657b66ea316d21385b68909f,,,,,,,,,,,731.2306,732.2341,,,732.7255,732.9714,,29,29,,,,,,,,,,,,,,,,bars/031.png,bars/mask008.png,,,,,,,,,,,,6,2,,,,,,,0,8,0,7,,,,,,,,,,,732.2341,732.7254,732.9714,734.4497,space,1.4605,,734.4498,89,6,735.4365,735.4365,735.4371,,,,0,47,47,47,1,120,35,,,,,,,,
,,63c5335da2b625ab1ade7e7c,65af597af3ebe8cc90bc7241,2024-01-23_07h16.20.781,bars,2023.2.3,Win32,57.80346821,657b66ea316d21385b68909f,,,,,,,,,,,735.4372,736.4253,,,736.9198,737.1665,,34,34,,,,,,,,,,,,,,,,bars/031.png,bars/mask008.png,,,,,,,,,,,,10,2,,,,,,,0,10,0,10,,,,,,,,,,,736.4253,736.9198,737.1666,739.3917,space,2.2039,,739.3917,86,1,740.3833,740.3833,740.3936,,,,0,48,48,48,1,120,35,,,,,,,,
,,63c5335da2b625ab1ade7e7c,65af597af3ebe8cc90bc7241,2024-01-23_07h16.20.781,bars,2023.2.3,Win32,57.80346821,657b66ea316d21385b68909f,,,,,,,,,,,740.3938,741.3877,,,741.8828,742.1272,,129,129,,,,,,,,,,,,,,,,bars/004.png,bars/mask006.png,,,,,,,,,,,,9,2,,,,,,,2,8,2,10,,,,,,,,,,,741.3877,741.8828,742.1272,744.0517,space,1.9108,,744.0518,76,4,745.0412,745.0412,745.0418,,,,0,49,49,49,1,25,125,,,,,,,,
,,63c5335da2b625ab1ade7e7c,65af597af3ebe8cc90bc7241,2024-01-23_07h16.20.781,bars,2023.2.3,Win32,57.80346821,657b66ea316d21385b68909f,,,,,,,,,,,,,,,,,,,,,,,,,,,,,,,,,,,,,,,,,,,,,,,,,,,,,,,,,,,,,,,,,,,,,,,,,,,,,,,,,,,,,,,,,,,,,745.0419,805.045,0,1,1,4,1,sequence_tables/blk037.csv
,,63c5335da2b625ab1ade7e7c,65af597af3ebe8cc90bc7241,2024-01-23_07h16.20.781,bars,2023.2.3,Win32,57.80346821,657b66ea316d21385b68909f,,,,,,,,,,,821.3226,822.3096,,,822.803,823.0496,,165,165,,,,,,,,,,,,,,,,bars/038.png,bars/mask001.png,,,,,,,,,,,,4,1,,,,,,,3,6,4,7,,,,,,805.0567,821.3085,space,16.2419,,822.3096,822.803,823.0496,827.154,space,4.0921,,827.1541,0,85,828.1447,828.1447,828.1559,,,,0,0,0,0,1,165,70,,,,,,,,
,,63c5335da2b625ab1ade7e7c,65af597af3ebe8cc90bc7241,2024-01-23_07h16.20.781,bars,2023.2.3,Win32,57.80346821,657b66ea316d21385b68909f,,,,,,,,,,,828.1562,829.1516,,,829.6458,829.8928,,166,166,,,,,,,,,,,,,,,,bars/042.png,bars/mask005.png,,,,,,,,,,,,1,1,,,,,,,5,8,3,7,,,,,,,,,,,829.1516,829.6458,829.8928,834.4609,space,4.5505,,834.461,21,89,835.4625,835.4626,835.473,,,,0,1,1,1,1,145,75,,,,,,,,
,,63c5335da2b625ab1ade7e7c,65af597af3ebe8cc90bc7241,2024-01-23_07h16.20.781,bars,2023.2.3,Win32,57.80346821,657b66ea316d21385b68909f,,,,,,,,,,,835.4731,836.4693,,,836.9632,837.211,,90,90,,,,,,,,,,,,,,,,bars/014.png,bars/mask007.png,,,,,,,,,,,,5,1,,,,,,,7,10,8,10,,,,,,,,,,,836.4693,836.9632,837.211,839.6284,space,2.4095,,839.6285,10,90,840.6159,840.6159,840.6264,,,,0,2,2,2,1,80,0,,,,,,,,
,,63c5335da2b625ab1ade7e7c,65af597af3ebe8cc90bc7241,2024-01-23_07h16.20.781,bars,2023.2.3,Win32,57.80346821,657b66ea316d21385b68909f,,,,,,,,,,,840.6266,841.6142,,,842.1069,842.3546,,164,164,,,,,,,,,,,,,,,,bars/049.png,bars/mask003.png,,,,,,,,,,,,4,1,,,,,,,5,10,5,10,,,,,,,,,,,841.6143,842.1068,842.3546,843.6941,space,1.3313,,843.6941,4,49,844.6986,844.6986,844.6992,,,,0,3,3,3,1,160,115,,,,,,,,
,,63c5335da2b625ab1ade7e7c,65af597af3ebe8cc90bc7241,2024-01-23_07h16.20.781,bars,2023.2.3,Win32,57.80346821,657b66ea316d21385b68909f,,,,,,,,,,,844.6993,845.6884,,,846.1814,846.4284,,85,85,,,,,,,,,,,,,,,,bars/008.png,bars/mask008.png,,,,,,,,,,,,0,1,,,,,,,3,10,2,8,,,,,,,,,,,845.6884,846.1813,846.4284,849.5853,space,3.1483,,849.5853,25,85,850.5738,850.5738,850.5846,,,,0,4,4,4,1,110,0,,,,,,,,
,,63c5335da2b625ab1ade7e7c,65af597af3ebe8cc90bc7241,2024-01-23_07h16.20.781,bars,2023.2.3,Win32,57.80346821,657b66ea316d21385b68909f,,,,,,,,,,,850.5848,851.5784,,,852.0742,852.3206,,174,174,,,,,,,,,,,,,,,,bars/007.png,bars/mask004.png,,,,,,,,,,,,1,1,,,,,,,1,10,1,9,,,,,,,,,,,851.5785,852.0742,852.3206,856.462,space,4.1193,,856.462,1,61,857.4495,857.4495,857.4601,,,,0,5,5,5,1,175,55,,,,,,,,
,,63c5335da2b625ab1ade7e7c,65af597af3ebe8cc90bc7241,2024-01-23_07h16.20.781,bars,2023.2.3,Win32,57.80346821,657b66ea316d21385b68909f,,,,,,,,,,,857.4604,858.4528,,,858.9462,859.1915,,171,171,,,,,,,,,,,,,,,,bars/044.png,bars/mask000.png,,,,,,,,,,,,5,2,,,,,,,3,10,1,10,,,,,,,,,,,858.4528,858.9462,859.1915,862.4538,space,3.2547,,862.4539,84,16,863.4524,863.4524,863.4636,,,,0,6,6,6,1,75,155,,,,,,,,
,,63c5335da2b625ab1ade7e7c,65af597af3ebe8cc90bc7241,2024-01-23_07h16.20.781,bars,2023.2.3,Win32,57.80346821,657b66ea316d21385b68909f,,,,,,,,,,,863.4639,864.4554,,,864.9508,865.197,,94,94,,,,,,,,,,,,,,,,bars/018.png,bars/mask007.png,,,,,,,,,,,,9,2,,,,,,,5,10,5,10,,,,,,,,,,,864.4554,864.9508,865.197,867.9317,space,2.715,,867.9317,56,4,868.9326,868.9326,868.9438,,,,0,7,7,7,1,150,90,,,,,,,,
,,63c5335da2b625ab1ade7e7c,65af597af3ebe8cc90bc7241,2024-01-23_07h16.20.781,bars,2023.2.3,Win32,57.80346821,657b66ea316d21385b68909f,,,,,,,,,,,868.944,869.9408,,,870.4323,870.6785,,76,76,,,,,,,,,,,,,,,,bars/038.png,bars/mask000.png,,,,,,,,,,,,7,2,,,,,,,7,8,7,9,,,,,,,,,,,869.9408,870.4323,870.6786,872.878,space,2.1822,,872.8781,89,6,873.8807,873.8807,873.8913,,,,0,8,8,8,1,165,70,,,,,,,,
,,63c5335da2b625ab1ade7e7c,65af597af3ebe8cc90bc7241,2024-01-23_07h16.20.781,bars,2023.2.3,Win32,57.80346821,657b66ea316d21385b68909f,,,,,,,,,,,873.8915,874.892,,,875.387,875.6334,,109,109,,,,,,,,,,,,,,,,bars/023.png,bars/mask008.png,,,,,,,,,,,,4,2,,,,,,,5,6,7,5,,,,,,,,,,,874.892,875.387,875.6334,878.0557,space,2.4137,,878.0557,89,6,879.0591,879.0591,879.0698,,,,0,9,9,9,1,20,115,,,,,,,,
,,63c5335da2b625ab1ade7e7c,65af597af3ebe8cc90bc7241,2024-01-23_07h16.20.781,bars,2023.2.3,Win32,57.80346821,657b66ea316d21385b68909f,,,,,,,,,,,879.07,880.0631,,,880.555,880.8012,,169,169,,,,,,,,,,,,,,,,bars/020.png,bars/mask004.png,,,,,,,,,,,,10,2,,,,,,,7,8,7,10,,,,,,,,,,,880.0631,880.555,880.8012,881.8207,space,1.0015,,881.8207,54,1,882.817,882.8171,882.8175,,,,0,10,10,10,1,115,170,,,,,,,,
,,63c5335da2b625ab1ade7e7c,65af597af3ebe8cc90bc7241,2024-01-23_07h16.20.781,bars,2023.2.3,Win32,57.80346821,657b66ea316d21385b68909f,,,,,,,,,,,882.8177,883.8082,,,884.3043,884.5522,,105,105,,,,,,,,,,,,,,,,bars/023.png,bars/mask000.png,,,,,,,,,,,,6,2,,,,,,,9,10,8,9,,,,,,,,,,,883.8083,884.3043,884.5522,886.7573,space,2.1828,,886.7574,85,10,887.7616,887.7616,887.7722,,,,0,11,11,11,1,20,115,,,,,,,,
,,63c5335da2b625ab1ade7e7c,65af597af3ebe8cc90bc7241,2024-01-23_07h16.20.781,bars,2023.2.3,Win32,57.80346821,657b66ea316d21385b68909f,,,,,,,,,,,887.7723,888.7602,,,889.2515,889.4981,,117,117,,,,,,,,,,,,,,,,bars/043.png,bars/mask008.png,,,,,,,,,,,,6,2,,,,,,,10,10,9,10,,,,,,,,,,,888.7602,889.2515,889.4982,890.5398,space,1.019,,890.5398,87,13,891.5347,891.5348,891.5454,,,,0,12,12,12,1,30,130,,,,,,,,
,,63c5335da2b625ab1ade7e7c,65af597af3ebe8cc90bc7241,2024-01-23_07h16.20.781,bars,2023.2.3,Win32,57.80346821,657b66ea316d21385b68909f,,,,,,,,,,,891.5457,892.5434,,,893.0407,893.2873,,102,102,,,,,,,,,,,,,,,,bars/039.png,bars/mask005.png,,,,,,,,,,,,7,2,,,,,,,8,8,8,8,,,,,,,,,,,892.5434,893.0407,893.2873,896.1585,space,2.862,,896.1585,73,3,897.1598,897.1598,897.1705,,,,0,13,13,13,1,175,105,,,,,,,,
,,63c5335da2b625ab1ade7e7c,65af597af3ebe8cc90bc7241,2024-01-23_07h16.20.781,bars,2023.2.3,Win32,57.80346821,657b66ea316d21385b68909f,,,,,,,,,,,897.1706,898.1595,,,898.6533,898.896,,119,119,,,,,,,,,,,,,,,,bars/004.png,bars/mask006.png,,,,,,,,,,,,8,2,,,,,,,10,10,10,10,,,,,,,,,,,898.1595,898.6532,898.8961,902.8127,space,3.902,,902.8127,86,6,903.8013,903.8013,903.8119,,,,0,14,14,14,1,25,125,,,,,,,,
,,63c5335da2b625ab1ade7e7c,65af597af3ebe8cc90bc7241,2024-01-23_07h16.20.781,bars,2023.2.3,Win32,57.80346821,657b66ea316d21385b68909f,,,,,,,,,,,903.8121,904.8053,,,905.3009,905.5494,,1,181,,,,,,,,,,,,,,,,bars/045.png,bars/mask001.png,,,,,,,,,,,,7,2,,,,,,,8,10,6,10,,,,,,,,,,,904.8054,905.3009,905.5495,909.1796,space,3.62,,909.1797,81,9,910.1693,910.1693,910.1798,,,,0,15,15,15,1,100,10,,,,,,,,
,,63c5335da2b625ab1ade7e7c,65af597af3ebe8cc90bc7241,2024-01-23_07h16.20.781,bars,2023.2.3,Win32,57.80346821,657b66ea316d21385b68909f,,,,,,,,,,,910.18,911.1746,,,911.6656,911.9129,,11,191,,,,,,,,,,,,,,,,bars/012.png,bars/mask009.png,,,,,,,,,,,,8,2,,,,,,,10,10,10,9,,,,,,,,,,,911.1747,911.6656,911.9129,914.0509,space,2.1185,,914.051,79,4,915.0398,915.0398,915.0404,,,,0,16,16,16,1,90,15,,,,,,,,
,,63c5335da2b625ab1ade7e7c,65af597af3ebe8cc90bc7241,2024-01-23_07h16.20.781,bars,2023.2.3,Win32,57.80346821,657b66ea316d21385b68909f,,,,,,,,,,,915.0406,916.0403,,,916.5325,916.7807,,83,83,,,,,,,,,,,,,,,,bars/042.png,bars/mask004.png,,,,,,,,,,,,7,2,,,,,,,10,10,10,10,,,,,,,,,,,916.0404,916.5325,916.7808,919.4588,space,2.6593,,919.4589,62,8,920.4456,920.4456,920.4564,,,,0,17,17,17,1,145,75,,,,,,,,
,,63c5335da2b625ab1ade7e7c,65af597af3ebe8cc90bc7241,2024-01-23_07h16.20.781,bars,2023.2.3,Win32,57.80346821,657b66ea316d21385b68909f,,,,,,,,,,,920.4567,921.4484,,,921.9427,922.1902,,83,83,,,,,,,,,,,,,,,,bars/021.png,bars/mask000.png,,,,,,,,,,,,6,2,,,,,,,10,10,9,10,,,,,,,,,,,921.4484,921.9427,922.1902,925.3699,space,3.164,,925.37,72,13,926.3603,926.3604,926.371,,,,0,18,18,18,1,155,70,,,,,,,,
,,63c5335da2b625ab1ade7e7c,65af597af3ebe8cc90bc7241,2024-01-23_07h16.20.781,bars,2023.2.3,Win32,57.80346821,657b66ea316d21385b68909f,,,,,,,,,,,926.3712,927.3712,,,927.8619,928.1087,,5,185,,,,,,,,,,,,,,,,bars/014.png,bars/mask001.png,,,,,,,,,,,,7,2,,,,,,,8,8,10,8,,,,,,,,,,,927.3713,927.8618,928.1089,930.7439,space,2.6214,,930.7439,75,5,931.7356,931.7356,931.7464,,,,0,19,19,19,1,80,0,,,,,,,,
,,63c5335da2b625ab1ade7e7c,65af597af3ebe8cc90bc7241,2024-01-23_07h16.20.781,bars,2023.2.3,Win32,57.80346821,657b66ea316d21385b68909f,,,,,,,,,,,931.7467,932.7425,,,933.2354,933.4834,,135,135,,,,,,,,,,,,,,,,bars/005.png,bars/mask003.png,,,,,,,,,,,,4,2,,,,,,,10,6,10,5,,,,,,,,,,,932.7425,933.2354,933.4834,935.2897,space,1.7879,,935.2897,55,5,936.2903,936.2903,936.3011,,,,0,20,20,20,1,10,140,,,,,,,,
,,63c5335da2b625ab1ade7e7c,65af597af3ebe8cc90bc7241,2024-01-23_07h16.20.781,bars,2023.2.3,Win32,57.80346821,657b66ea316d21385b68909f,,,,,,,,,,,936.3013,937.2937,,,937.7869,938.0335,,99,99,,,,,,,,,,,,,,,,bars/006.png,bars/mask008.png,,,,,,,,,,,,5,2,,,,,,,10,4,10,5,,,,,,,,,,,937.2937,937.7869,938.0335,940.2583,space,2.2084,,940.2583,64,1,941.2613,941.2613,941.2618,,,,0,21,21,21,1,35,100,,,,,,,,
,,63c5335da2b625ab1ade7e7c,65af597af3ebe8cc90bc7241,2024-01-23_07h16.20.781,bars,2023.2.3,Win32,57.80346821,657b66ea316d21385b68909f,,,,,,,,,,,941.262,942.2651,,,942.7593,943.0074,,75,75,,,,,,,,,,,,,,,,bars/042.png,bars/mask003.png,,,,,,,,,,,,0,2,,,,,,,8,2,9,0,,,,,,,,,,,942.2651,942.7593,943.0074,944.7663,space,1.738,,944.7664,70,0,945.7684,945.7684,945.78,,,,0,22,22,22,1,145,75,,,,,,,,
,,63c5335da2b625ab1ade7e7c,65af597af3ebe8cc90bc7241,2024-01-23_07h16.20.781,bars,2023.2.3,Win32,57.80346821,657b66ea316d21385b68909f,,,,,,,,,,,945.7801,946.7718,,,947.2671,947.5131,,11,191,,,,,,,,,,,,,,,,bars/013.png,bars/mask005.png,,,,,,,,,,,,3,2,,,,,,,6,4,6,3,,,,,,,,,,,946.7718,947.267,947.5131,950.2582,space,2.7317,,950.2582,64,1,951.261,951.261,951.2723,,,,0,23,23,23,1,75,10,,,,,,,,
,,63c5335da2b625ab1ade7e7c,65af597af3ebe8cc90bc7241,2024-01-23_07h16.20.781,bars,2023.2.3,Win32,57.80346821,657b66ea316d21385b68909f,,,,,,,,,,,951.2725,952.27,,,952.7657,953.0139,,157,157,,,,,,,,,,,,,,,,bars/044.png,bars/mask008.png,,,,,,,,,,,,6,2,,,,,,,8,6,8,6,,,,,,,,,,,952.27,952.7656,953.0139,954.1043,space,1.0754,,954.1044,82,2,955.0929,955.0929,955.0934,,,,0,24,24,24,1,75,155,,,,,,,,
,,63c5335da2b625ab1ade7e7c,65af597af3ebe8cc90bc7241,2024-01-23_07h16.20.781,bars,2023.2.3,Win32,57.80346821,657b66ea316d21385b68909f,,,,,,,,,,,955.0935,956.0965,,,956.591,956.8366,,96,-84,,,,,,,,,,,,,,,,bars/039.png,bars/mask001.png,,,,,,,,,,,,4,2,,,,,,,10,4,10,5,,,,,,,,,,,956.0966,956.591,956.8366,960.6939,space,3.8403,,960.6939,79,9,961.6918,961.6918,961.7025,,,,0,25,25,25,1,175,105,,,,,,,,
,,63c5335da2b625ab1ade7e7c,65af597af3ebe8cc90bc7241,2024-01-23_07h16.20.781,bars,2023.2.3,Win32,57.80346821,657b66ea316d21385b68909f,,,,,,,,,,,961.7026,962.6947,,,963.1867,963.4316,,153,153,,,,,,,,,,,,,,,,bars/044.png,bars/mask008.png,,,,,,,,,,,,2,2,,,,,,,10,2,10,2,,,,,,,,,,,962.6947,963.1867,963.4317,965.7565,space,2.3095,,965.7566,78,2,966.7463,966.7463,966.757,,,,0,26,26,26,1,75,155,,,,,,,,
,,63c5335da2b625ab1ade7e7c,65af597af3ebe8cc90bc7241,2024-01-23_07h16.20.781,bars,2023.2.3,Win32,57.80346821,657b66ea316d21385b68909f,,,,,,,,,,,966.7572,967.7531,,,968.2473,968.494,,49,49,,,,,,,,,,,,,,,,bars/029.png,bars/mask004.png,,,,,,,,,,,,3,2,,,,,,,8,4,7,4,,,,,,,,,,,967.7531,968.2473,968.494,969.5164,space,1.0062,,969.5164,41,4,970.5043,970.5044,970.5049,,,,0,27,27,27,1,90,45,,,,,,,,
,,63c5335da2b625ab1ade7e7c,65af597af3ebe8cc90bc7241,2024-01-23_07h16.20.781,bars,2023.2.3,Win32,57.80346821,657b66ea316d21385b68909f,,,,,,,,,,,970.5051,971.4982,,,971.9897,972.2335,,100,100,,,,,,,,,,,,,,,,bars/029.png,bars/mask000.png,,,,,,,,,,,,3,1,,,,,,,6,6,4,7,,,,,,,,,,,971.4982,971.9897,972.2335,973.3944,space,1.1534,,973.3944,10,55,974.3978,974.3978,974.4026,,,,0,28,28,28,1,90,45,,,,,,,,
,,63c5335da2b625ab1ade7e7c,65af597af3ebe8cc90bc7241,2024-01-23_07h16.20.781,bars,2023.2.3,Win32,57.80346821,657b66ea316d21385b68909f,,,,,,,,,,,974.403,975.4049,,,975.8991,976.1478,,80,80,,,,,,,,,,,,,,,,bars/014.png,bars/mask004.png,,,,,,,,,,,,3,1,,,,,,,4,4,3,4,,,,,,,,,,,975.4049,975.899,976.1478,979.2813,space,3.1108,,979.2814,0,80,980.2833,980.2833,980.2938,,,,0,29,29,29,1,80,0,,,,,,,,
,,63c5335da2b625ab1ade7e7c,65af597af3ebe8cc90bc7241,2024-01-23_07h16.20.781,bars,2023.2.3,Win32,57.80346821,657b66ea316d21385b68909f,,,,,,,,,,,980.294,981.2868,,,981.7792,982.026,,83,83,,,,,,,,,,,,,,,,bars/044.png,bars/mask001.png,,,,,,,,,,,,4,1,,,,,,,6,2,6,3,,,,,,,,,,,981.2868,981.7792,982.026,983.0654,space,1.0256,,983.0654,8,72,984.0572,984.0572,984.0578,,,,0,30,30,30,1,75,155,,,,,,,,
,,63c5335da2b625ab1ade7e7c,65af597af3ebe8cc90bc7241,2024-01-23_07h16.20.781,bars,2023.2.3,Win32,57.80346821,657b66ea316d21385b68909f,,,,,,,,,,,984.0581,985.0575,,,985.5521,985.7992,,61,61,,,,,,,,,,,,,,,,bars/043.png,bars/mask000.png,,,,,,,,,,,,0,1,,,,,,,4,0,5,0,,,,,,,,,,,985.0575,985.5521,985.7992,988.1187,space,2.3049,,988.1188,31,69,989.1101,989.1101,989.1206,,,,0,31,31,31,1,30,130,,,,,,,,
,,63c5335da2b625ab1ade7e7c,65af597af3ebe8cc90bc7241,2024-01-23_07h16.20.781,bars,2023.2.3,Win32,57.80346821,657b66ea316d21385b68909f,,,,,,,,,,,989.1208,990.1155,,,990.6098,990.8591,,55,55,,,,,,,,,,,,,,,,bars/007.png,bars/mask001.png,,,,,,,,,,,,2,2,,,,,,,6,2,6,2,,,,,,,,,,,990.1155,990.6098,990.8591,992.8534,space,1.9829,,992.8534,60,0,993.8566,993.8566,993.868,,,,0,32,32,32,1,175,55,,,,,,,,
,,63c5335da2b625ab1ade7e7c,65af597af3ebe8cc90bc7241,2024-01-23_07h16.20.781,bars,2023.2.3,Win32,57.80346821,657b66ea316d21385b68909f,,,,,,,,,,,993.8682,994.8623,,,995.3586,995.6062,,45,45,,,,,,,,,,,,,,,,bars/036.png,bars/mask004.png,,,,,,,,,,,,1,2,,,,,,,8,4,10,5,,,,,,,,,,,994.8624,995.3585,995.6062,999.9955,space,4.3803,,999.9955,80,25,1000.9877,1000.9877,1000.9999,,,,0,33,33,33,1,145,20,,,,,,,,
,,63c5335da2b625ab1ade7e7c,65af597af3ebe8cc90bc7241,2024-01-23_07h16.20.781,bars,2023.2.3,Win32,57.80346821,657b66ea316d21385b68909f,,,,,,,,,,,1001.0001,1001.9954,,,1002.4881,1002.7355,,78,78,,,,,,,,,,,,,,,,bars/030.png,bars/mask000.png,,,,,,,,,,,,3,2,,,,,,,10,6,8,5,,,,,,,,,,,1001.9954,1002.488,1002.7355,1005.1085,space,2.3545,,1005.1086,62,13,1006.1132,1006.1132,1006.1238,,,,0,34,34,34,1,140,65,,,,,,,,
,,63c5335da2b625ab1ade7e7c,65af597af3ebe8cc90bc7241,2024-01-23_07h16.20.781,bars,2023.2.3,Win32,57.80346821,657b66ea316d21385b68909f,,,,,,,,,,,1006.124,1007.1181,,,1007.6106,1007.8574,,83,83,,,,,,,,,,,,,,,,bars/042.png,bars/mask000.png,,,,,,,,,,,,6,2,,,,,,,10,8,10,8,,,,,,,,,,,1007.1181,1007.6105,1007.8574,1010.2039,space,2.3296,,1010.2039,62,8,1011.2044,1011.2044,1011.2151,,,,0,35,35,35,1,145,75,,,,,,,,
,,63c5335da2b625ab1ade7e7c,65af597af3ebe8cc90bc7241,2024-01-23_07h16.20.781,bars,2023.2.3,Win32,57.80346821,657b66ea316d21385b68909f,,,,,,,,,,,1011.2153,1012.2074,,,1012.7006,1012.9473,,179,179,,,,,,,,,,,,,,,,bars/040.png,bars/mask005.png,,,,,,,,,,,,8,2,,,,,,,8,10,8,10,,,,,,,,,,,1012.2074,1012.7006,1012.9473,1016.3833,space,3.4166,,1016.3833,39,6,1017.3712,1017.3712,1017.3838,,,,0,36,36,36,1,140,5,,,,,,,,
,,63c5335da2b625ab1ade7e7c,65af597af3ebe8cc90bc7241,2024-01-23_07h16.20.781,bars,2023.2.3,Win32,57.80346821,657b66ea316d21385b68909f,,,,,,,,,,,1017.384,1018.3789,,,1018.8727,1019.1202,,133,-47,,,,,,,,,,,,,,,,bars/005.png,bars/mask002.png,,,,,,,,,,,,7,2,,,,,,,6,10,5,9,,,,,,,,,,,1018.3789,1018.8727,1019.1202,1022.8442,space,3.707,,1022.8443,57,7,1023.8481,1023.8481,1023.8586,,,,0,37,37,37,1,10,140,,,,,,,,
,,63c5335da2b625ab1ade7e7c,65af597af3ebe8cc90bc7241,2024-01-23_07h16.20.781,bars,2023.2.3,Win32,57.80346821,657b66ea316d21385b68909f,,,,,,,,,,,1023.8587,1024.8521,,,1025.3447,1025.5913,,93,93,,,,,,,,,,,,,,,,bars/019.png,bars/mask007.png,,,,,,,,,,,,5,2,,,,,,,4,8,4,8,,,,,,,,,,,1024.8521,1025.3446,1025.5913,1026.8121,space,1.2044,,1026.8122,48,12,1027.8163,1027.8163,1027.827,,,,0,38,38,38,1,45,105,,,,,,,,
,,63c5335da2b625ab1ade7e7c,65af597af3ebe8cc90bc7241,2024-01-23_07h16.20.781,bars,2023.2.3,Win32,57.80346821,657b66ea316d21385b68909f,,,,,,,,,,,1027.8273,1028.8207,,,1029.3143,1029.5627,,177,177,,,,,,,,,,,,,,,,bars/024.png,bars/mask008.png,,,,,,,,,,,,4,2,,,,,,,2,6,2,5,,,,,,,,,,,1028.8208,1029.3143,1029.5627,1037.4678,space,7.8976,,1037.4678,57,7,1038.471,1038.4711,1038.4825,,,,0,39,39,39,1,120,170,,,,,,,,
,,63c5335da2b625ab1ade7e7c,65af597af3ebe8cc90bc7241,2024-01-23_07h16.20.781,bars,2023.2.3,Win32,57.80346821,657b66ea316d21385b68909f,,,,,,,,,,,1038.4827,1039.4755,,,1039.9693,1040.2146,,77,257,,,,,,,,,,,,,,,,bars/029.png,bars/mask003.png,,,,,,,,,,,,3,1,,,,,,,4,8,5,7,,,,,,,,,,,1039.4755,1039.9693,1040.2146,1044.1817,space,3.9466,,1044.1817,13,32,1045.1715,1045.1715,1045.1827,,,,0,40,40,40,1,90,45,,,,,,,,
,,63c5335da2b625ab1ade7e7c,65af597af3ebe8cc90bc7241,2024-01-23_07h16.20.781,bars,2023.2.3,Win32,57.80346821,657b66ea316d21385b68909f,,,,,,,,,,,1045.1829,1046.1762,,,1046.6678,1046.9139,,78,78,,,,,,,,,,,,,,,,bars/011.png,bars/mask006.png,,,,,,,,,,,,4,2,,,,,,,2,6,2,5,,,,,,,,,,,1046.1762,1046.6678,1046.9139,1050.5295,space,3.5982,,1050.5295,82,7,1051.5238,1051.5239,1051.535,,,,0,41,41,41,1,160,85,,,,,,,,
,,63c5335da2b625ab1ade7e7c,65af597af3ebe8cc90bc7241,2024-01-23_07h16.20.781,bars,2023.2.3,Win32,57.80346821,657b66ea316d21385b68909f,,,,,,,,,,,1051.5352,1052.5281,,,1053.0196,1053.2652,,69,69,,,,,,,,,,,,,,,,bars/048.png,bars/mask005.png,,,,,,,,,,,,0,1,,,,,,,0,4,0,3,,,,,,,,,,,1052.5281,1053.0195,1053.2652,1054.8194,space,1.5494,,1054.8194,19,74,1055.8203,1055.8203,1055.8214,,,,0,42,42,42,1,50,175,,,,,,,,
,,63c5335da2b625ab1ade7e7c,65af597af3ebe8cc90bc7241,2024-01-23_07h16.20.781,bars,2023.2.3,Win32,57.80346821,657b66ea316d21385b68909f,,,,,,,,,,,1055.8217,1056.8084,,,1057.3032,1057.5496,,61,61,,,,,,,,,,,,,,,,bars/017.png,bars/mask006.png,,,,,,,,,,,,1,2,,,,,,,2,2,1,3,,,,,,,,,,,1056.8084,1057.3032,1057.5496,1059.2417,space,1.6764,,1059.2418,84,16,1060.232,1060.232,1060.2332,,,,0,43,43,43,1,145,45,,,,,,,,
,,63c5335da2b625ab1ade7e7c,65af597af3ebe8cc90bc7241,2024-01-23_07h16.20.781,bars,2023.2.3,Win32,57.80346821,657b66ea316d21385b68909f,,,,,,,,,,,1060.2334,1061.2351,,,1061.7288,1061.9758,,83,83,,,,,,,,,,,,,,,,bars/038.png,bars/mask004.png,,,,,,,,,,,,2,2,,,,,,,4,4,5,4,,,,,,,,,,,1061.2351,1061.7288,1061.9758,1064.4218,space,2.4359,,1064.4219,82,13,1065.4109,1065.4109,1065.4233,,,,0,44,44,44,1,165,70,,,,,,,,
,,63c5335da2b625ab1ade7e7c,65af597af3ebe8cc90bc7241,2024-01-23_07h16.20.781,bars,2023.2.3,Win32,57.80346821,657b66ea316d21385b68909f,,,,,,,,,,,1065.4236,1066.4143,,,1066.9073,1067.1543,,133,133,,,,,,,,,,,,,,,,bars/017.png,bars/mask004.png,,,,,,,,,,,,3,1,,,,,,,6,2,5,2,,,,,,,,,,,1066.4143,1066.9073,1067.1543,1069.6039,space,2.4383,,1069.604,12,88,1070.5932,1070.5932,1070.6046,,,,0,45,45,45,1,145,45,,,,,,,,
,,63c5335da2b625ab1ade7e7c,65af597af3ebe8cc90bc7241,2024-01-23_07h16.20.781,bars,2023.2.3,Win32,57.80346821,657b66ea316d21385b68909f,,,,,,,,,,,1070.6049,1071.5976,,,1072.0905,1072.3379,,50,50,,,,,,,,,,,,,,,,bars/043.png,bars/mask006.png,,,,,,,,,,,,2,1,,,,,,,4,4,5,2,,,,,,,,,,,1071.5976,1072.0905,1072.3379,1075.1304,space,2.7736,,1075.1304,20,80,1076.1333,1076.1333,1076.144,,,,0,46,46,46,1,30,130,,,,,,,,
,,63c5335da2b625ab1ade7e7c,65af597af3ebe8cc90bc7241,2024-01-23_07h16.20.781,bars,2023.2.3,Win32,57.80346821,657b66ea316d21385b68909f,,,,,,,,,,,1076.1442,1077.1396,,,1077.635,1077.8818,,14,14,,,,,,,,,,,,,,,,bars/009.png,bars/mask006.png,,,,,,,,,,,,7,1,,,,,,,6,2,7,2,,,,,,,,,,,1077.1396,1077.635,1077.8818,1079.3617,space,1.4621,,1079.3617,1,89,1080.3649,1080.3649,1080.3654,,,,0,47,47,47,1,15,105,,,,,,,,
,,63c5335da2b625ab1ade7e7c,65af597af3ebe8cc90bc7241,2024-01-23_07h16.20.781,bars,2023.2.3,Win32,57.80346821,657b66ea316d21385b68909f,,,,,,,,,,,1080.3658,1081.3697,,,1081.8629,1082.1084,,38,38,,,,,,,,,,,,,,,,bars/033.png,bars/mask009.png,,,,,,,,,,,,2,1,,,,,,,4,4,3,3,,,,,,,,,,,1081.3697,1081.8629,1082.1084,1083.1301,space,1,,1083.1301,13,63,1084.1204,1084.1205,1084.1209,,,,0,48,48,48,1,25,155,,,,,,,,
,,63c5335da2b625ab1ade7e7c,65af597af3ebe8cc90bc7241,2024-01-23_07h16.20.781,bars,2023.2.3,Win32,57.80346821,657b66ea316d21385b68909f,,,,,,,,,,,1084.1211,1085.1202,,,1085.6135,1085.8602,,137,-43,,,,,,,,,,,,,,,,bars/017.png,bars/mask008.png,,,,,,,,,,,,1,1,,,,,,,2,2,1,2,,,,,,,,,,,1085.1203,1085.6135,1085.8603,1088.3669,space,2.4874,,1088.3669,8,88,1089.3537,1089.3537,1089.3643,,,,0,49,49,49,1,145,45,,,,,,,,
,,63c5335da2b625ab1ade7e7c,65af597af3ebe8cc90bc7241,2024-01-23_07h16.20.781,bars,2023.2.3,Win32,57.80346821,657b66ea316d21385b68909f,,,,,,,,,,,,,,,,,,,,,,,,,,,,,,,,,,,,,,,,,,,,,,,,,,,,,,,,,,,,,,,,,,,,,,,,,,,,,,,,,,,,,,,,,,,,,1089.3645,1149.3565,0,2,2,0,1,sequence_tables/blk020.csv
,,63c5335da2b625ab1ade7e7c,65af597af3ebe8cc90bc7241,2024-01-23_07h16.20.781,bars,2023.2.3,Win32,57.80346821,657b66ea316d21385b68909f,,,,,,,,,,,1152.4949,1153.4953,,,1153.9875,1154.2357,,77,257,,,,,,,,,,,,,,,,bars/010.png,bars/mask007.png,,,,,,,,,,,,3,2,,,,,,,9,9,7,10,,,,,,1149.3676,1152.49,space,3.1022,,1153.4953,1153.9874,1154.2357,1158.9516,space,4.6987,,1158.9516,88,22,1159.9557,1159.9557,1159.9668,,,,0,0,0,0,1,165,55,,,,,,,,
,,63c5335da2b625ab1ade7e7c,65af597af3ebe8cc90bc7241,2024-01-23_07h16.20.781,bars,2023.2.3,Win32,57.80346821,657b66ea316d21385b68909f,,,,,,,,,,,1159.967,1160.9629,,,1161.4586,1161.7054,,174,-6,,,,,,,,,,,,,,,,bars/033.png,bars/mask007.png,,,,,,,,,,,,4,2,,,,,,,7,10,7,10,,,,,,,,,,,1160.9629,1161.4586,1161.7054,1164.6872,space,2.9656,,1164.6872,31,19,1165.6743,1165.6743,1165.6926,,,,0,1,1,1,1,25,155,,,,,,,,
,,63c5335da2b625ab1ade7e7c,65af597af3ebe8cc90bc7241,2024-01-23_07h16.20.781,bars,2023.2.3,Win32,57.80346821,657b66ea316d21385b68909f,,,,,,,,,,,1165.6928,1166.6952,,,1167.188,1167.4357,,3,3,,,,,,,,,,,,,,,,bars/032.png,bars/mask006.png,,,,,,,,,,,,3,2,,,,,,,9,8,9,8,,,,,,,,,,,1166.6953,1167.188,1167.4357,1170.6407,space,3.1908,,1170.6407,58,17,1171.6437,1171.6437,1171.6547,,,,0,2,2,2,1,125,20,,,,,,,,
,,63c5335da2b625ab1ade7e7c,65af597af3ebe8cc90bc7241,2024-01-23_07h16.20.781,bars,2023.2.3,Win32,57.80346821,657b66ea316d21385b68909f,,,,,,,,,,,1171.6549,1172.647,,,1173.1403,1173.387,,76,76,,,,,,,,,,,,,,,,bars/035.png,bars/mask000.png,,,,,,,,,,,,3,2,,,,,,,10,6,8,7,,,,,,,,,,,1172.647,1173.1403,1173.387,1176.0778,space,2.6732,,1176.0778,81,16,1177.0794,1177.0795,1177.0899,,,,0,3,3,3,1,175,60,,,,,,,,
,,63c5335da2b625ab1ade7e7c,65af597af3ebe8cc90bc7241,2024-01-23_07h16.20.781,bars,2023.2.3,Win32,57.80346821,657b66ea316d21385b68909f,,,,,,,,,,,1177.0902,1178.0849,,,1178.5822,1178.834,,74,254,,,,,,,,,,,,,,,,bars/044.png,bars/mask003.png,,,,,,,,,,,,9,1,,,,,,,10,4,9,4,,,,,,,,,,,1178.0849,1178.5822,1178.834,1182.7169,space,3.8648,,1182.7169,1,81,1183.7188,1183.7188,1183.73,,,,0,4,4,4,1,75,155,,,,,,,,
,,63c5335da2b625ab1ade7e7c,65af597af3ebe8cc90bc7241,2024-01-23_07h16.20.781,bars,2023.2.3,Win32,57.80346821,657b66ea316d21385b68909f,,,,,,,,,,,1183.7301,1184.7216,,,1185.2157,1185.4627,,67,67,,,,,,,,,,,,,,,,bars/041.png,bars/mask004.png,,,,,,,,,,,,1,2,,,,,,,8,2,8,3,,,,,,,,,,,1184.7217,1185.2157,1185.4627,1186.3251,space,0.8531,,1186.3251,47,18,1187.3293,1187.3293,1187.3305,,,,0,5,5,5,1,20,85,,,,,,,,
,,63c5335da2b625ab1ade7e7c,65af597af3ebe8cc90bc7241,2024-01-23_07h16.20.781,bars,2023.2.3,Win32,57.80346821,657b66ea316d21385b68909f,,,,,,,,,,,1187.3307,1188.3177,,,1188.8122,1189.0592,,84,264,,,,,,,,,,,,,,,,bars/011.png,bars/mask007.png,,,,,,,,,,,,4,2,,,,,,,6,4,6,4,,,,,,,,,,,1188.3177,1188.8122,1189.0593,1193.0789,space,3.999,,1193.0789,76,1,1194.0672,1194.0672,1194.0778,,,,0,6,6,6,1,160,85,,,,,,,,
,,63c5335da2b625ab1ade7e7c,65af597af3ebe8cc90bc7241,2024-01-23_07h16.20.781,bars,2023.2.3,Win32,57.80346821,657b66ea316d21385b68909f,,,,,,,,,,,1194.0779,1195.0691,,,1195.564,1195.8126,,76,76,,,,,,,,,,,,,,,,bars/048.png,bars/mask000.png,,,,,,,,,,,,1,1,,,,,,,8,6,9,6,,,,,,,,,,,1195.0692,1195.564,1195.8126,1198.7382,space,2.9129,,1198.7383,26,81,1199.7412,1199.7413,1199.7526,,,,0,7,7,7,1,50,175,,,,,,,,
,,63c5335da2b625ab1ade7e7c,65af597af3ebe8cc90bc7241,2024-01-23_07h16.20.781,bars,2023.2.3,Win32,57.80346821,657b66ea316d21385b68909f,,,,,,,,,,,1199.7527,1200.75,,,1201.2435,1201.4915,,68,68,,,,,,,,,,,,,,,,bars/034.png,bars/mask005.png,,,,,,,,,,,,7,2,,,,,,,10,8,10,8,,,,,,,,,,,1200.75,1201.2435,1201.4915,1204.3804,space,2.8706,,1204.3804,57,3,1205.3692,1205.3692,1205.3805,,,,0,8,8,8,1,125,65,,,,,,,,
,,63c5335da2b625ab1ade7e7c,65af597af3ebe8cc90bc7241,2024-01-23_07h16.20.781,bars,2023.2.3,Win32,57.80346821,657b66ea316d21385b68909f,,,,,,,,,,,1205.3807,1206.3702,,,1206.8662,1207.1137,,71,71,,,,,,,,,,,,,,,,bars/007.png,bars/mask003.png,,,,,,,,,,,,5,2,,,,,,,8,10,6,10,,,,,,,,,,,1206.3702,1206.8662,1207.1137,1209.999,space,2.8775,,1209.999,76,16,1210.9909,1210.9909,1211.0017,,,,0,9,9,9,1,175,55,,,,,,,,
,,63c5335da2b625ab1ade7e7c,65af597af3ebe8cc90bc7241,2024-01-23_07h16.20.781,bars,2023.2.3,Win32,57.80346821,657b66ea316d21385b68909f,,,,,,,,,,,1211.0018,1211.9951,,,1212.4897,1212.7371,,101,101,,,,,,,,,,,,,,,,bars/019.png,bars/mask006.png,,,,,,,,,,,,9,2,,,,,,,10,10,10,10,,,,,,,,,,,1211.9951,1212.4897,1212.7372,1214.0963,space,1.3476,,1214.0963,56,4,1215.1003,1215.1003,1215.1008,,,,0,10,10,10,1,45,105,,,,,,,,
,,63c5335da2b625ab1ade7e7c,65af597af3ebe8cc90bc7241,2024-01-23_07h16.20.781,bars,2023.2.3,Win32,57.80346821,657b66ea316d21385b68909f,,,,,,,,,,,1215.101,1216.0914,,,1216.5832,1216.8299,,83,83,,,,,,,,,,,,,,,,bars/014.png,bars/mask002.png,,,,,,,,,,,,8,1,,,,,,,8,10,9,10,,,,,,,,,,,1216.0916,1216.5832,1216.8299,1219.7069,space,2.8589,,1219.7069,3,83,1220.7094,1220.7094,1220.7204,,,,0,11,11,11,1,80,0,,,,,,,,
,,63c5335da2b625ab1ade7e7c,65af597af3ebe8cc90bc7241,2024-01-23_07h16.20.781,bars,2023.2.3,Win32,57.80346821,657b66ea316d21385b68909f,,,,,,,,,,,1220.7206,1221.7189,,,1222.2157,1222.4605,,83,83,,,,,,,,,,,,,,,,bars/046.png,bars/mask008.png,,,,,,,,,,,,7,2,,,,,,,10,8,8,7,,,,,,,,,,,1221.7189,1222.2157,1222.4605,1224.3296,space,1.8487,,1224.3296,72,2,1225.3301,1225.3301,1225.3312,,,,0,12,12,12,1,155,85,,,,,,,,
,,63c5335da2b625ab1ade7e7c,65af597af3ebe8cc90bc7241,2024-01-23_07h16.20.781,bars,2023.2.3,Win32,57.80346821,657b66ea316d21385b68909f,,,,,,,,,,,1225.3314,1226.3331,,,1226.829,1227.0764,,78,78,,,,,,,,,,,,,,,,bars/044.png,bars/mask000.png,,,,,,,,,,,,9,1,,,,,,,10,6,10,6,,,,,,,,,,,1226.3331,1226.829,1227.0765,1229.7596,space,2.6716,,1229.7596,3,77,1230.7474,1230.7474,1230.759,,,,0,13,13,13,1,75,155,,,,,,,,
,,63c5335da2b625ab1ade7e7c,65af597af3ebe8cc90bc7241,2024-01-23_07h16.20.781,bars,2023.2.3,Win32,57.80346821,657b66ea316d21385b68909f,,,,,,,,,,,1230.7591,1231.7475,,,1232.2429,1232.4895,,104,104,,,,,,,,,,,,,,,,bars/009.png,bars/mask008.png,,,,,,,,,,,,4,2,,,,,,,8,4,9,4,,,,,,,,,,,1231.7475,1232.2428,1232.4895,1236.3389,space,3.8441,,1236.3389,89,1,1237.3431,1237.3431,1237.3544,,,,0,14,14,14,1,15,105,,,,,,,,
,,63c5335da2b625ab1ade7e7c,65af597af3ebe8cc90bc7241,2024-01-23_07h16.20.781,bars,2023.2.3,Win32,57.80346821,657b66ea316d21385b68909f,,,,,,,,,,,1237.3546,1238.3485,,,1238.8442,1239.0915,,98,98,,,,,,,,,,,,,,,,bars/001.png,bars/mask008.png,,,,,,,,,,,,1,2,,,,,,,10,2,10,2,,,,,,,,,,,1238.3486,1238.8442,1239.0915,1242.9154,space,3.8011,,1242.9154,32,13,1243.903,1243.903,1243.9199,,,,0,15,15,15,1,130,85,,,,,,,,
,,63c5335da2b625ab1ade7e7c,65af597af3ebe8cc90bc7241,2024-01-23_07h16.20.781,bars,2023.2.3,Win32,57.80346821,657b66ea316d21385b68909f,,,,,,,,,,,1243.9201,1244.9242,,,1245.4171,1245.6651,,53,53,,,,,,,,,,,,,,,,bars/019.png,bars/mask005.png,,,,,,,,,,,,7,1,,,,,,,8,0,9,1,,,,,,,,,,,1244.9243,1245.4171,1245.6651,1249.231,space,3.556,,1249.231,8,52,1250.2234,1250.2234,1250.2348,,,,0,16,16,16,1,45,105,,,,,,,,
,,63c5335da2b625ab1ade7e7c,65af597af3ebe8cc90bc7241,2024-01-23_07h16.20.781,bars,2023.2.3,Win32,57.80346821,657b66ea316d21385b68909f,,,,,,,,,,,1250.2349,1251.2281,,,1251.7252,1251.9702,,120,120,,,,,,,,,,,,,,,,bars/031.png,bars/mask002.png,,,,,,,,,,,,10,1,,,,,,,10,0,10,0,,,,,,,,,,,1251.2281,1251.7252,1251.9702,1253.8189,space,1.8423,,1253.8191,0,85,1254.8219,1254.822,1254.8225,,,,0,17,17,17,1,120,35,,,,,,,,
,,63c5335da2b625ab1ade7e7c,65af597af3ebe8cc90bc7241,2024-01-23_07h16.20.781,bars,2023.2.3,Win32,57.80346821,657b66ea316d21385b68909f,,,,,,,,,,,1254.8227,1255.8259,,,1256.3153,1256.5653,,76,76,,,,,,,,,,,,,,,,bars/048.png,bars/mask007.png,,,,,,,,,,,,1,1,,,,,,,10,2,10,4,,,,,,,,,,,1255.8259,1256.3153,1256.5653,1257.7962,space,1.2171,,1257.7963,26,81,1258.7859,1258.7859,1258.7864,,,,0,18,18,18,1,50,175,,,,,,,,
,,63c5335da2b625ab1ade7e7c,65af597af3ebe8cc90bc7241,2024-01-23_07h16.20.781,bars,2023.2.3,Win32,57.80346821,657b66ea316d21385b68909f,,,,,,,,,,,1258.7866,1259.7906,,,1260.2833,1260.5285,,160,-20,,,,,,,,,,,,,,,,bars/021.png,bars/mask007.png,,,,,,,,,,,,7,1,,,,,,,8,4,8,4,,,,,,,,,,,1259.7907,1260.2833,1260.5285,1264.0786,space,3.5338,,1264.0786,5,90,1265.0672,1265.0672,1265.0791,,,,0,19,19,19,1,155,70,,,,,,,,
,,63c5335da2b625ab1ade7e7c,65af597af3ebe8cc90bc7241,2024-01-23_07h16.20.781,bars,2023.2.3,Win32,57.80346821,657b66ea316d21385b68909f,,,,,,,,,,,1265.0794,1266.0704,,,1266.5622,1266.8115,,149,149,,,,,,,,,,,,,,,,bars/036.png,bars/mask008.png,,,,,,,,,,,,8,1,,,,,,,10,6,9,5,,,,,,,,,,,1266.0704,1266.5622,1266.8115,1271.6779,space,4.8489,,1271.6779,4,51,1272.6789,1272.6789,1272.6894,,,,0,20,20,20,1,145,20,,,,,,,,
,,63c5335da2b625ab1ade7e7c,65af597af3ebe8cc90bc7241,2024-01-23_07h16.20.781,bars,2023.2.3,Win32,57.80346821,657b66ea316d21385b68909f,,,,,,,,,,,1272.6896,1273.68,,,1274.1746,1274.423,,23,203,,,,,,,,,,,,,,,,bars/004.png,bars/mask001.png,,,,,,,,,,,,8,1,,,,,,,8,4,9,4,,,,,,,,,,,1273.68,1274.1746,1274.423,1278.2317,space,3.79,,1278.2317,2,78,1279.2335,1279.2335,1279.2441,,,,0,21,21,21,1,25,125,,,,,,,,
,,63c5335da2b625ab1ade7e7c,65af597af3ebe8cc90bc7241,2024-01-23_07h16.20.781,bars,2023.2.3,Win32,57.80346821,657b66ea316d21385b68909f,,,,,,,,,,,1279.2442,1280.2344,,,1280.7271,1280.971,,147,-33,,,,,,,,,,,,,,,,bars/042.png,bars/mask002.png,,,,,,,,,,,,7,1,,,,,,,6,6,8,5,,,,,,,,,,,1280.2344,1280.7271,1280.971,1286.4106,space,5.4262,,1286.4106,2,72,1287.3992,1287.3993,1287.4099,,,,0,22,22,22,1,145,75,,,,,,,,
,,63c5335da2b625ab1ade7e7c,65af597af3ebe8cc90bc7241,2024-01-23_07h16.20.781,bars,2023.2.3,Win32,57.80346821,657b66ea316d21385b68909f,,,,,,,,,,,1287.41,1288.4007,,,1288.8927,1289.1391,,126,126,,,,,,,,,,,,,,,,bars/040.png,bars/mask007.png,,,,,,,,,,,,4,1,,,,,,,8,4,8,2,,,,,,,,,,,1288.4007,1288.8927,1289.1391,1291.7157,space,2.5564,,1291.7158,14,59,1292.7203,1292.7204,1292.7309,,,,0,23,23,23,1,140,5,,,,,,,,
,,63c5335da2b625ab1ade7e7c,65af597af3ebe8cc90bc7241,2024-01-23_07h16.20.781,bars,2023.2.3,Win32,57.80346821,657b66ea316d21385b68909f,,,,,,,,,,,1292.7311,1293.7271,,,1294.2188,1294.4667,,134,134,,,,,,,,,,,,,,,,bars/040.png,bars/mask003.png,,,,,,,,,,,,8,1,,,,,,,10,6,10,6,,,,,,,,,,,1293.7271,1294.2188,1294.4667,1296.0916,space,1.6085,,1296.0916,6,51,1297.0918,1297.0918,1297.0922,,,,0,24,24,24,1,140,5,,,,,,,,
,,63c5335da2b625ab1ade7e7c,65af597af3ebe8cc90bc7241,2024-01-23_07h16.20.781,bars,2023.2.3,Win32,57.80346821,657b66ea316d21385b68909f,,,,,,,,,,,1297.0924,1298.0849,,,1298.5818,1298.8287,,57,57,,,,,,,,,,,,,,,,bars/019.png,bars/mask006.png,,,,,,,,,,,,4,1,,,,,,,8,4,7,4,,,,,,,,,,,1298.0849,1298.5817,1298.8287,1301.8135,space,2.977,,1301.8136,12,48,1302.8031,1302.8031,1302.8141,,,,0,25,25,25,1,45,105,,,,,,,,
,,63c5335da2b625ab1ade7e7c,65af597af3ebe8cc90bc7241,2024-01-23_07h16.20.781,bars,2023.2.3,Win32,57.80346821,657b66ea316d21385b68909f,,,,,,,,,,,1302.8144,1303.8085,,,1304.3017,1304.5472,,24,24,,,,,,,,,,,,,,,,bars/003.png,bars/mask003.png,,,,,,,,,,,,9,1,,,,,,,10,6,9,6,,,,,,,,,,,1303.8086,1304.3017,1304.5473,1306.6197,space,2.0558,,1306.6197,1,64,1307.6232,1307.6232,1307.634,,,,0,26,26,26,1,25,140,,,,,,,,
,,63c5335da2b625ab1ade7e7c,65af597af3ebe8cc90bc7241,2024-01-23_07h16.20.781,bars,2023.2.3,Win32,57.80346821,657b66ea316d21385b68909f,,,,,,,,,,,1307.6341,1308.626,,,1309.1173,1309.3645,,17,197,,,,,,,,,,,,,,,,bars/003.png,bars/mask008.png,,,,,,,,,,,,7,1,,,,,,,8,4,9,4,,,,,,,,,,,1308.626,1309.1173,1309.3645,1312.8598,space,3.4735,,1312.8598,8,57,1313.8506,1313.8507,1313.8611,,,,0,27,27,27,1,25,140,,,,,,,,
,,63c5335da2b625ab1ade7e7c,65af597af3ebe8cc90bc7241,2024-01-23_07h16.20.781,bars,2023.2.3,Win32,57.80346821,657b66ea316d21385b68909f,,,,,,,,,,,1313.8613,1314.8646,,,1315.358,1315.6083,,153,153,,,,,,,,,,,,,,,,bars/022.png,bars/mask000.png,,,,,,,,,,,,0,2,,,,,,,6,6,6,6,,,,,,,,,,,1314.8647,1315.3579,1315.6084,1316.7046,space,1.0756,,1316.7047,58,47,1317.6963,1317.6963,1317.7076,,,,0,28,28,28,1,95,20,,,,,,,,
,,63c5335da2b625ab1ade7e7c,65af597af3ebe8cc90bc7241,2024-01-23_07h16.20.781,bars,2023.2.3,Win32,57.80346821,657b66ea316d21385b68909f,,,,,,,,,,,1317.7079,1318.7023,,,1319.1997,1319.4482,,68,68,,,,,,,,,,,,,,,,bars/028.png,bars/mask003.png,,,,,,,,,,,,1,1,,,,,,,4,4,3,5,,,,,,,,,,,1318.7024,1319.1997,1319.4482,1322.3177,space,2.8614,,1322.3177,23,52,1323.3166,1323.3166,1323.3278,,,,0,29,29,29,1,45,120,,,,,,,,
,,63c5335da2b625ab1ade7e7c,65af597af3ebe8cc90bc7241,2024-01-23_07h16.20.781,bars,2023.2.3,Win32,57.80346821,657b66ea316d21385b68909f,,,,,,,,,,,1323.328,1324.3201,,,1324.8139,1325.0593,,163,-17,,,,,,,,,,,,,,,,bars/037.png,bars/mask004.png,,,,,,,,,,,,1,1,,,,,,,2,2,1,2,,,,,,,,,,,1324.3202,1324.8139,1325.0593,1328.6236,space,3.5529,,1328.6236,13,58,1329.6106,1329.6106,1329.6211,,,,0,30,30,30,1,150,105,,,,,,,,
,,63c5335da2b625ab1ade7e7c,65af597af3ebe8cc90bc7241,2024-01-23_07h16.20.781,bars,2023.2.3,Win32,57.80346821,657b66ea316d21385b68909f,,,,,,,,,,,1329.6212,1330.6125,,,1331.1063,1331.3513,,174,-6,,,,,,,,,,,,,,,,bars/033.png,bars/mask001.png,,,,,,,,,,,,1,2,,,,,,,4,4,4,3,,,,,,,,,,,1330.6125,1331.1062,1331.3514,1333.5721,space,2.2047,,1333.5721,31,19,1334.5602,1334.5602,1334.5714,,,,0,31,31,31,1,25,155,,,,,,,,
,,63c5335da2b625ab1ade7e7c,65af597af3ebe8cc90bc7241,2024-01-23_07h16.20.781,bars,2023.2.3,Win32,57.80346821,657b66ea316d21385b68909f,,,,,,,,,,,1334.5716,1335.5639,,,1336.0573,1336.3054,,175,175,,,,,,,,,,,,,,,,bars/048.png,bars/mask003.png,,,,,,,,,,,,1,2,,,,,,,2,2,2,1,,,,,,,,,,,1335.5639,1336.0573,1336.3054,1338.6675,space,2.3521,,1338.6675,55,0,1339.6708,1339.6708,1339.6818,,,,0,32,32,32,1,50,175,,,,,,,,
,,63c5335da2b625ab1ade7e7c,65af597af3ebe8cc90bc7241,2024-01-23_07h16.20.781,bars,2023.2.3,Win32,57.80346821,657b66ea316d21385b68909f,,,,,,,,,,,1339.682,1340.6758,,,1341.1657,1341.4108,,1,1,,,,,,,,,,,,,,,,bars/013.png,bars/mask009.png,,,,,,,,,,,,3,2,,,,,,,4,4,4,4,,,,,,,,,,,1340.6759,1341.1656,1341.4108,1343.6822,space,2.2518,,1343.6822,74,9,1344.6694,1344.6694,1344.6813,,,,0,33,33,33,1,75,10,,,,,,,,
,,63c5335da2b625ab1ade7e7c,65af597af3ebe8cc90bc7241,2024-01-23_07h16.20.781,bars,2023.2.3,Win32,57.80346821,657b66ea316d21385b68909f,,,,,,,,,,,1344.6816,1345.6759,,,1346.1706,1346.417,,86,86,,,,,,,,,,,,,,,,bars/038.png,bars/mask002.png,,,,,,,,,,,,2,2,,,,,,,6,6,5,4,,,,,,,,,,,1345.6759,1346.1705,1346.417,1349.7316,space,3.2964,,1349.7316,79,16,1350.7353,1350.7354,1350.746,,,,0,34,34,34,1,165,70,,,,,,,,
,,63c5335da2b625ab1ade7e7c,65af597af3ebe8cc90bc7241,2024-01-23_07h16.20.781,bars,2023.2.3,Win32,57.80346821,657b66ea316d21385b68909f,,,,,,,,,,,1350.7461,1351.7428,,,1352.2366,1352.4842,,71,71,,,,,,,,,,,,,,,,bars/047.png,bars/mask001.png,,,,,,,,,,,,3,2,,,,,,,4,4,5,3,,,,,,,,,,,1351.7428,1352.2366,1352.4842,1353.8765,space,1.3751,,1353.8765,56,1,1354.8795,1354.8795,1354.88,,,,0,35,35,35,1,15,70,,,,,,,,
,,63c5335da2b625ab1ade7e7c,65af597af3ebe8cc90bc7241,2024-01-23_07h16.20.781,bars,2023.2.3,Win32,57.80346821,657b66ea316d21385b68909f,,,,,,,,,,,1354.8801,1355.88,,,1356.3744,1356.6241,,178,-2,,,,,,,,,,,,,,,,bars/024.png,bars/mask001.png,,,,,,,,,,,,1,2,,,,,,,2,2,3,2,,,,,,,,,,,1355.88,1356.3744,1356.6241,1358.6834,space,2.0447,,1358.6834,58,8,1359.686,1359.686,1359.6966,,,,0,36,36,36,1,120,170,,,,,,,,
,,63c5335da2b625ab1ade7e7c,65af597af3ebe8cc90bc7241,2024-01-23_07h16.20.781,bars,2023.2.3,Win32,57.80346821,657b66ea316d21385b68909f,,,,,,,,,,,1359.6967,1360.6853,,,1361.1792,1361.4253,,8,8,,,,,,,,,,,,,,,,bars/005.png,bars/mask005.png,,,,,,,,,,,,0,1,,,,,,,0,0,0,0,,,,,,,,,,,1360.6853,1361.1792,1361.4253,1364.3816,space,2.9482,,1364.3816,2,48,1365.3723,1365.3723,1365.3839,,,,0,37,37,37,1,10,140,,,,,,,,
,,63c5335da2b625ab1ade7e7c,65af597af3ebe8cc90bc7241,2024-01-23_07h16.20.781,bars,2023.2.3,Win32,57.80346821,657b66ea316d21385b68909f,,,,,,,,,,,1365.384,1366.3813,,,1366.8758,1367.124,,176,176,,,,,,,,,,,,,,,,bars/015.png,bars/mask003.png,,,,,,,,,,,,1,2,,,,,,,2,2,2,2,,,,,,,,,,,1366.3813,1366.8757,1367.124,1370.5805,space,3.4444,,1370.5805,66,16,1371.57,1371.57,1371.5815,,,,0,38,38,38,1,110,160,,,,,,,,
,,63c5335da2b625ab1ade7e7c,65af597af3ebe8cc90bc7241,2024-01-23_07h16.20.781,bars,2023.2.3,Win32,57.80346821,657b66ea316d21385b68909f,,,,,,,,,,,1371.5816,1372.572,,,1373.0656,1373.3115,,9,9,,,,,,,,,,,,,,,,bars/013.png,bars/mask001.png,,,,,,,,,,,,5,2,,,,,,,4,4,6,5,,,,,,,,,,,1372.572,1373.0656,1373.3115,1375.8804,space,2.5514,,1375.8804,66,1,1376.8688,1376.8688,1376.8796,,,,0,39,39,39,1,75,10,,,,,,,,
,,63c5335da2b625ab1ade7e7c,65af597af3ebe8cc90bc7241,2024-01-23_07h16.20.781,bars,2023.2.3,Win32,57.80346821,657b66ea316d21385b68909f,,,,,,,,,,,1376.8798,1377.8724,,,1378.3645,1378.6112,,1,1,,,,,,,,,,,,,,,,bars/014.png,bars/mask000.png,,,,,,,,,,,,2,2,,,,,,,2,2,2,2,,,,,,,,,,,1377.8724,1378.3644,1378.6112,1381.2528,space,2.6258,,1381.2528,79,1,1382.2568,1382.2568,1382.2673,,,,0,40,40,40,1,80,0,,,,,,,,
,,63c5335da2b625ab1ade7e7c,65af597af3ebe8cc90bc7241,2024-01-23_07h16.20.781,bars,2023.2.3,Win32,57.80346821,657b66ea316d21385b68909f,,,,,,,,,,,1382.2675,1383.2607,,,1383.7556,1384.0031,,83,263,,,,,,,,,,,,,,,,bars/030.png,bars/mask005.png,,,,,,,,,,,,1,2,,,,,,,4,4,2,2,,,,,,,,,,,1383.2608,1383.7556,1384.0031,1387.4312,space,3.4165,,1387.4312,57,18,1388.4332,1388.4332,1388.4437,,,,0,41,41,41,1,140,65,,,,,,,,
,,63c5335da2b625ab1ade7e7c,65af597af3ebe8cc90bc7241,2024-01-23_07h16.20.781,bars,2023.2.3,Win32,57.80346821,657b66ea316d21385b68909f,,,,,,,,,,,1388.4439,1389.4398,,,1389.935,1390.1835,,78,78,,,,,,,,,,,,,,,,bars/013.png,bars/mask000.png,,,,,,,,,,,,1,1,,,,,,,2,6,1,7,,,,,,,,,,,1389.4398,1389.9349,1390.1835,1392.7408,space,2.5379,,1392.7408,3,68,1393.7426,1393.7427,1393.7537,,,,0,42,42,42,1,75,10,,,,,,,,
,,63c5335da2b625ab1ade7e7c,65af597af3ebe8cc90bc7241,2024-01-23_07h16.20.781,bars,2023.2.3,Win32,57.80346821,657b66ea316d21385b68909f,,,,,,,,,,,1393.7539,1394.7423,,,1395.2394,1395.4863,,142,-38,,,,,,,,,,,,,,,,bars/037.png,bars/mask008.png,,,,,,,,,,,,0,1,,,,,,,0,8,0,8,,,,,,,,,,,1394.7424,1395.2394,1395.4863,1397.8544,space,2.3456,,1397.8545,8,37,1398.8419,1398.8419,1398.8523,,,,0,43,43,43,1,150,105,,,,,,,,
,,63c5335da2b625ab1ade7e7c,65af597af3ebe8cc90bc7241,2024-01-23_07h16.20.781,bars,2023.2.3,Win32,57.80346821,657b66ea316d21385b68909f,,,,,,,,,,,1398.8524,1399.8429,,,1400.335,1400.5826,,130,130,,,,,,,,,,,,,,,,bars/032.png,bars/mask000.png,,,,,,,,,,,,1,1,,,,,,,0,6,1,5,,,,,,,,,,,1399.843,1400.335,1400.5826,1404.0216,space,3.4287,,1404.0216,5,70,1405.0259,1405.0259,1405.0365,,,,0,44,44,44,1,125,20,,,,,,,,
,,63c5335da2b625ab1ade7e7c,65af597af3ebe8cc90bc7241,2024-01-23_07h16.20.781,bars,2023.2.3,Win32,57.80346821,657b66ea316d21385b68909f,,,,,,,,,,,1405.0367,1406.0296,,,1406.5245,1406.7707,,73,73,,,,,,,,,,,,,,,,bars/035.png,bars/mask003.png,,,,,,,,,,,,3,2,,,,,,,2,4,1,5,,,,,,,,,,,1406.0297,1406.5245,1406.7707,1410.4772,space,3.6975,,1410.4773,78,13,1411.4701,1411.4701,1411.4819,,,,0,45,45,45,1,175,60,,,,,,,,
,,63c5335da2b625ab1ade7e7c,65af597af3ebe8cc90bc7241,2024-01-23_07h16.20.781,bars,2023.2.3,Win32,57.80346821,657b66ea316d21385b68909f,,,,,,,,,,,1411.482,1412.4756,,,1412.9716,1413.2157,,76,76,,,,,,,,,,,,,,,,bars/035.png,bars/mask008.png,,,,,,,,,,,,1,2,,,,,,,4,2,3,3,,,,,,,,,,,1412.4756,1412.9716,1413.2157,1417.4515,space,4.2227,,1417.4515,81,16,1418.4445,1418.4446,1418.4562,,,,0,46,46,46,1,175,60,,,,,,,,
,,63c5335da2b625ab1ade7e7c,65af597af3ebe8cc90bc7241,2024-01-23_07h16.20.781,bars,2023.2.3,Win32,57.80346821,657b66ea316d21385b68909f,,,,,,,,,,,1418.4566,1419.4492,,,1419.9453,1420.1944,,107,107,,,,,,,,,,,,,,,,bars/028.png,bars/mask006.png,,,,,,,,,,,,2,2,,,,,,,6,4,7,4,,,,,,,,,,,1419.4492,1419.9453,1420.1944,1423.5632,space,3.3513,,1423.5632,62,13,1424.552,1424.552,1424.5627,,,,0,47,47,47,1,45,120,,,,,,,,
,,63c5335da2b625ab1ade7e7c,65af597af3ebe8cc90bc7241,2024-01-23_07h16.20.781,bars,2023.2.3,Win32,57.80346821,657b66ea316d21385b68909f,,,,,,,,,,,1424.5629,1425.5605,,,1426.0555,1426.3038,,68,68,,,,,,,,,,,,,,,,bars/029.png,bars/mask009.png,,,,,,,,,,,,1,1,,,,,,,4,2,4,2,,,,,,,,,,,1425.5605,1426.0555,1426.3038,1429.6517,space,3.34,,1429.6517,22,23,1430.6542,1430.6542,1430.6654,,,,0,48,48,48,1,90,45,,,,,,,,
,,63c5335da2b625ab1ade7e7c,65af597af3ebe8cc90bc7241,2024-01-23_07h16.20.781,bars,2023.2.3,Win32,57.80346821,657b66ea316d21385b68909f,,,,,,,,,,,1430.6656,1431.6577,,,1432.1542,1432.4006,,173,173,,,,,,,,,,,,,,,,bars/015.png,bars/mask008.png,,,,,,,,,,,,3,2,,,,,,,6,4,6,5,,,,,,,,,,,1431.6577,1432.1542,1432.4006,1433.3001,space,0.8887,,1433.3001,63,13,1434.2932,1434.2933,1434.2945,,,,0,49,49,49,1,110,160,,,,,,,,
,,63c5335da2b625ab1ade7e7c,65af597af3ebe8cc90bc7241,2024-01-23_07h16.20.781,bars,2023.2.3,Win32,57.80346821,657b66ea316d21385b68909f,,,,,,,,,,,,,,,,,,,,,,,,,,,,,,,,,,,,,,,,,,,,,,,,,,,,,,,,,,,,,,,,,,,,,,,,,,,,,,,,,,,,,,,,,,,,,1434.2946,1494.2828,0,3,3,2,1,sequence_tables/blk048.csv
,,63c5335da2b625ab1ade7e7c,65af597af3ebe8cc90bc7241,2024-01-23_07h16.20.781,bars,2023.2.3,Win32,57.80346821,657b66ea316d21385b68909f,,,,,,,,,,,1509.1212,1510.1112,,,1510.6054,1510.8522,,105,105,,,,,,,,,,,,,,,,bars/034.png,bars/mask002.png,,,,,,,,,,,,3,1,,,,,,,7,2,8,3,,,,,,1494.294,1509.1063,space,14.7942,,1510.1112,1510.6054,1510.8522,1526.4721,space,15.5967,,1526.4722,20,40,1527.4629,1527.463,1527.4791,,,,0,0,0,0,1,125,65,,,,,,,,
,,63c5335da2b625ab1ade7e7c,65af597af3ebe8cc90bc7241,2024-01-23_07h16.20.781,bars,2023.2.3,Win32,57.80346821,657b66ea316d21385b68909f,,,,,,,,,,,1527.4794,1528.4717,,,1528.9681,1529.216,,173,-7,,,,,,,,,,,,,,,,bars/033.png,bars/mask008.png,,,,,,,,,,,,2,2,,,,,,,9,4,8,5,,,,,,,,,,,1528.4717,1528.9681,1529.216,1530.7631,space,1.536,,1530.7631,32,18,1531.7512,1531.7512,1531.7633,,,,0,1,1,1,1,25,155,,,,,,,,
,,63c5335da2b625ab1ade7e7c,65af597af3ebe8cc90bc7241,2024-01-23_07h16.20.781,bars,2023.2.3,Win32,57.80346821,657b66ea316d21385b68909f,,,,,,,,,,,1531.7635,1532.7582,,,1533.2523,1533.4966,,3,183,,,,,,,,,,,,,,,,bars/032.png,bars/mask009.png,,,,,,,,,,,,3,2,,,,,,,7,6,6,6,,,,,,,,,,,1532.7582,1533.2523,1533.4966,1538.0519,space,4.5495,,1538.0519,58,17,1539.0546,1539.0546,1539.0671,,,,0,2,2,2,1,125,20,,,,,,,,
,,63c5335da2b625ab1ade7e7c,65af597af3ebe8cc90bc7241,2024-01-23_07h16.20.781,bars,2023.2.3,Win32,57.80346821,657b66ea316d21385b68909f,,,,,,,,,,,1539.0673,1540.0566,,,1540.5505,1540.797,,80,260,,,,,,,,,,,,,,,,bars/030.png,bars/mask004.png,,,,,,,,,,,,5,2,,,,,,,5,8,6,9,,,,,,,,,,,1540.0567,1540.5505,1540.797,1544.7781,space,3.9638,,1544.7783,60,15,1545.7805,1545.7805,1545.7912,,,,0,3,3,3,1,140,65,,,,,,,,
,,63c5335da2b625ab1ade7e7c,65af597af3ebe8cc90bc7241,2024-01-23_07h16.20.781,bars,2023.2.3,Win32,57.80346821,657b66ea316d21385b68909f,,,,,,,,,,,1545.7913,1546.787,,,1547.279,1547.5259,,179,179,,,,,,,,,,,,,,,,bars/012.png,bars/mask003.png,,,,,,,,,,,,3,2,,,,,,,3,6,2,6,,,,,,,,,,,1546.787,1547.279,1547.5259,1551.4534,space,3.9134,,1551.4534,89,16,1552.4582,1552.4582,1552.469,,,,0,4,4,4,1,90,15,,,,,,,,
,,63c5335da2b625ab1ade7e7c,65af597af3ebe8cc90bc7241,2024-01-23_07h16.20.781,bars,2023.2.3,Win32,57.80346821,657b66ea316d21385b68909f,,,,,,,,,,,1552.4692,1553.4664,,,1553.9616,1554.2079,,176,176,,,,,,,,,,,,,,,,bars/015.png,bars/mask007.png,,,,,,,,,,,,2,2,,,,,,,5,4,4,5,,,,,,,,,,,1553.4664,1553.9616,1554.2079,1556.2995,space,2.0741,,1556.2995,66,16,1557.3025,1557.3026,1557.3031,,,,0,5,5,5,1,110,160,,,,,,,,
,,63c5335da2b625ab1ade7e7c,65af597af3ebe8cc90bc7241,2024-01-23_07h16.20.781,bars,2023.2.3,Win32,57.80346821,657b66ea316d21385b68909f,,,,,,,,,,,1557.3034,1558.2922,,,1558.7891,1559.0367,,6,186,,,,,,,,,,,,,,,,bars/012.png,bars/mask003.png,,,,,,,,,,,,2,2,,,,,,,3,2,3,3,,,,,,,,,,,1558.2923,1558.7891,1559.0367,1561.345,space,2.2849,,1561.345,84,9,1562.3337,1562.3337,1562.3445,,,,0,6,6,6,1,90,15,,,,,,,,
,,63c5335da2b625ab1ade7e7c,65af597af3ebe8cc90bc7241,2024-01-23_07h16.20.781,bars,2023.2.3,Win32,57.80346821,657b66ea316d21385b68909f,,,,,,,,,,,1562.3447,1563.3343,,,1563.8234,1564.0713,,3,183,,,,,,,,,,,,,,,,bars/014.png,bars/mask006.png,,,,,,,,,,,,3,2,,,,,,,1,4,2,3,,,,,,,,,,,1563.3344,1563.8234,1564.0714,1565.7176,space,1.6293,,1565.7176,77,3,1566.7201,1566.7201,1566.7206,,,,0,7,7,7,1,80,0,,,,,,,,
,,63c5335da2b625ab1ade7e7c,65af597af3ebe8cc90bc7241,2024-01-23_07h16.20.781,bars,2023.2.3,Win32,57.80346821,657b66ea316d21385b68909f,,,,,,,,,,,1566.7207,1567.7093,,,1568.2016,1568.4473,,75,75,,,,,,,,,,,,,,,,bars/035.png,bars/mask000.png,,,,,,,,,,,,2,2,,,,,,,0,2,0,3,,,,,,,,,,,1567.7093,1568.2016,1568.4473,1570.826,space,2.3613,,1570.8261,80,15,1571.8128,1571.8128,1571.8233,,,,0,8,8,8,1,175,60,,,,,,,,
,,63c5335da2b625ab1ade7e7c,65af597af3ebe8cc90bc7241,2024-01-23_07h16.20.781,bars,2023.2.3,Win32,57.80346821,657b66ea316d21385b68909f,,,,,,,,,,,1571.8235,1572.8141,,,1573.3085,1573.5545,,67,247,,,,,,,,,,,,,,,,bars/021.png,bars/mask000.png,,,,,,,,,,,,5,2,,,,,,,0,4,0,5,,,,,,,,,,,1572.8141,1573.3085,1573.5545,1581.2112,space,7.6501,,1581.2112,88,3,1582.1983,1582.1983,1582.2097,,,,0,9,9,9,1,155,70,,,,,,,,
,,63c5335da2b625ab1ade7e7c,65af597af3ebe8cc90bc7241,2024-01-23_07h16.20.781,bars,2023.2.3,Win32,57.80346821,657b66ea316d21385b68909f,,,,,,,,,,,1582.2098,1583.1994,,,1583.6951,1583.9438,,77,77,,,,,,,,,,,,,,,,bars/001.png,bars/mask001.png,,,,,,,,,,,,4,2,,,,,,,0,6,0,6,,,,,,,,,,,1583.1994,1583.6951,1583.9439,1588.6221,space,4.6699,,1588.6221,53,8,1589.6254,1589.6255,1589.6361,,,,0,10,10,10,1,130,85,,,,,,,,
,,63c5335da2b625ab1ade7e7c,65af597af3ebe8cc90bc7241,2024-01-23_07h16.20.781,bars,2023.2.3,Win32,57.80346821,657b66ea316d21385b68909f,,,,,,,,,,,1589.6363,1590.6319,,,1591.1261,1591.3728,,84,84,,,,,,,,,,,,,,,,bars/018.png,bars/mask006.png,,,,,,,,,,,,6,2,,,,,,,2,8,2,8,,,,,,,,,,,1590.632,1591.1261,1591.3728,1601.5755,space,10.1908,,1601.5756,66,6,1602.5628,1602.5628,1602.5741,,,,0,11,11,11,1,150,90,,,,,,,,
,,63c5335da2b625ab1ade7e7c,65af597af3ebe8cc90bc7241,2024-01-23_07h16.20.781,bars,2023.2.3,Win32,57.80346821,657b66ea316d21385b68909f,,,,,,,,,,,1602.5742,1603.5753,,,1604.0682,1604.3141,,175,175,,,,,,,,,,,,,,,,bars/033.png,bars/mask003.png,,,,,,,,,,,,2,2,,,,,,,4,6,5,6,,,,,,,,,,,1603.5753,1604.0682,1604.3142,1612.8835,space,8.5585,,1612.8835,30,20,1613.8845,1613.8845,1613.8956,,,,0,12,12,12,1,25,155,,,,,,,,
,,63c5335da2b625ab1ade7e7c,65af597af3ebe8cc90bc7241,2024-01-23_07h16.20.781,bars,2023.2.3,Win32,57.80346821,657b66ea316d21385b68909f,,,,,,,,,,,1613.8957,1614.8912,,,1615.3875,1615.6331,,112,112,,,,,,,,,,,,,,,,bars/015.png,bars/mask009.png,,,,,,,,,,,,1,1,,,,,,,2,8,1,8,,,,,,,,,,,1614.8913,1615.3875,1615.6331,1622.7778,space,7.1269,,1622.7779,2,48,1623.7661,1623.7661,1623.7778,,,,0,13,13,13,1,110,160,,,,,,,,
