init_variables.started,init_variables.stopped,participant,session,date,expName,psychopyVersion,OS,frameRate,study_id,instruction_exp.started,instruction_exp.stopped,key_resp_8.keys,key_resp_8.rt,key_resp_8.duration,instruction_single.started,instruction_single.stopped,key_resp_2.keys,key_resp_2.rt,key_resp_2.duration,interval.started,interval.stopped,cue_single.started,cue_single.stopped,mask.started,mask.stopped,ori_response_single.started,res_ori,res,ori_response_single.stopped,key_resp_single.keys,key_resp_single.rt,key_resp_single.duration,disp_single.started,disp_single.stopped,key_resp.keys,key_resp.rt,key_resp.duration,single.thisRepN,single.thisTrialN,single.thisN,single.thisIndex,single.ran,ori,path,mask_path,instruction_bandit.started,instruction_bandit.stopped,key_resp_6.keys,key_resp_6.rt,key_resp_6.duration,cue_bandit.started,cue_bandit.stopped,bandit_res.keys,bandit_res.rt,bandit_res.duration,outcome_bandit.started,rew,action,outcome_bandit.stopped,bandit.thisRepN,bandit.thisTrialN,bandit.thisN,bandit.thisIndex,bandit.ran,actual_rew1,actual_rew2,rew1,rew2,instruction_task.started,instruction_task.stopped,key_resp_7.keys,key_resp_7.rt,key_resp_7.duration,wait_ready.started,wait_ready.stopped,key_resp_3.keys,key_resp_3.rt,key_resp_3.duration,cue.started,cue.stopped,ori_response.started,ori_response.stopped,key_resp_5.keys,key_resp_5.rt,key_resp_5.duration,outcome.started,diff1,diff2,outcome.stopped,disp_outcome_practice.started,disp_outcome_practice.stopped,key_resp_4.keys,key_resp_4.rt,key_resp_4.duration,trials.thisRepN,trials.thisTrialN,trials.thisN,trials.thisIndex,trials.ran,ori1,ori2,break_blk.started,break_blk.stopped,block.thisRepN,block.thisTrialN,block.thisN,block.thisIndex,block.ran,condition_file
0.001,0.001,5e73746e686c0c2c978392e1,65af5647b940720aef4cd637,2024-01-23_07h02.45.368,bars,2023.2.3,Win32,59.95203837,657b66ea316d21385b68909f,,,,,,,,,,,,,,,,,,,,,,,,,,,,,,,,,,,,,,,,,,,,,,,,,,,,,,,,,,,,,,,,,,,,,,,,,,,,,,,,,,,,,,,,,,,,,,,,,,,,
,,5e73746e686c0c2c978392e1,65af5647b940720aef4cd637,2024-01-23_07h02.45.368,bars,2023.2.3,Win32,59.95203837,657b66ea316d21385b68909f,0.001,26.634,y,26.605,,,,,,,,,,,,,,,,,,,,,,,,,,,,,,,,,,,,,,,,,,,,,,,,,,,,,,,,,,,,,,,,,,,,,,,,,,,,,,,,,,,,,,,,,,,,,,,,
,,5e73746e686c0c2c978392e1,65af5647b940720aef4cd637,2024-01-23_07h02.45.368,bars,2023.2.3,Win32,59.95203837,657b66ea316d21385b68909f,,,,,,26.634,77.384,space,50.732,,,,,,,,,,,,,,,,,,,,,,,,,,,,,,,,,,,,,,,,,,,,,,,,,,,,,,,,,,,,,,,,,,,,,,,,,,,,,,,,,,,,,,,,,,,
,,5e73746e686c0c2c978392e1,65af5647b940720aef4cd637,2024-01-23_07h02.45.368,bars,2023.2.3,Win32,59.95203837,657b66ea316d21385b68909f,,,,,,,,,,,77.399,78.397,78.397,78.896,78.897,79.147,79.147,23,23,126.318,space,47.143,,126.319,147.748,space,21.396,,0,0,0,2,1,145,bars/single002.png,bars/mask003.png,,,,,,,,,,,,,,,,,,,,,,,,,,,,,,,,,,,,,,,,,,,,,,,,,,,,,,,,,,,,,,,,
,,5e73746e686c0c2c978392e1,65af5647b940720aef4cd637,2024-01-23_07h02.45.368,bars,2023.2.3,Win32,59.95203837,657b66ea316d21385b68909f,,,,,,,,,,,147.752,148.744,148.745,149.245,149.245,149.494,149.495,0,0,157.025,space,7.515,,157.026,168.642,space,11.594,,0,1,1,6,1,175,bars/single006.png,bars/mask005.png,,,,,,,,,,,,,,,,,,,,,,,,,,,,,,,,,,,,,,,,,,,,,,,,,,,,,,,,,,,,,,,,
,,5e73746e686c0c2c978392e1,65af5647b940720aef4cd637,2024-01-23_07h02.45.368,bars,2023.2.3,Win32,59.95203837,657b66ea316d21385b68909f,,,,,,,,,,,168.646,169.639,169.64,170.139,170.139,170.389,170.39,149,149,184.969,space,14.563,,184.97,202.233,space,17.245,,0,2,2,3,1,20,bars/single003.png,bars/mask005.png,,,,,,,,,,,,,,,,,,,,,,,,,,,,,,,,,,,,,,,,,,,,,,,,,,,,,,,,,,,,,,,,
,,5e73746e686c0c2c978392e1,65af5647b940720aef4cd637,2024-01-23_07h02.45.368,bars,2023.2.3,Win32,59.95203837,657b66ea316d21385b68909f,,,,,,,,,,,202.237,203.23,203.23,203.73,203.731,203.98,203.981,160,160,241.806,space,37.811,,241.806,250.519,space,8.691,,0,3,3,1,1,20,bars/single001.png,bars/mask006.png,,,,,,,,,,,,,,,,,,,,,,,,,,,,,,,,,,,,,,,,,,,,,,,,,,,,,,,,,,,,,,,,
,,5e73746e686c0c2c978392e1,65af5647b940720aef4cd637,2024-01-23_07h02.45.368,bars,2023.2.3,Win32,59.95203837,657b66ea316d21385b68909f,,,,,,,,,,,250.521,251.517,251.518,252.018,252.018,252.267,252.267,24,24,318.835,space,66.552,,318.836,334.698,space,15.836,,0,4,4,5,1,55,bars/single005.png,bars/mask008.png,,,,,,,,,,,,,,,,,,,,,,,,,,,,,,,,,,,,,,,,,,,,,,,,,,,,,,,,,,,,,,,,
,,5e73746e686c0c2c978392e1,65af5647b940720aef4cd637,2024-01-23_07h02.45.368,bars,2023.2.3,Win32,59.95203837,657b66ea316d21385b68909f,,,,,,,,,,,334.702,335.695,335.696,336.196,336.196,336.446,336.446,147,147,360.307,space,23.846,,360.308,371.437,space,11.108,,0,5,5,4,1,95,bars/single004.png,bars/mask004.png,,,,,,,,,,,,,,,,,,,,,,,,,,,,,,,,,,,,,,,,,,,,,,,,,,,,,,,,,,,,,,,,
,,5e73746e686c0c2c978392e1,65af5647b940720aef4cd637,2024-01-23_07h02.45.368,bars,2023.2.3,Win32,59.95203837,657b66ea316d21385b68909f,,,,,,,,,,,371.439,372.436,372.437,372.937,372.937,373.186,373.186,88,88,387.634,space,14.431,,387.634,395.999,space,8.346,,0,6,6,7,1,45,bars/single007.png,bars/mask009.png,,,,,,,,,,,,,,,,,,,,,,,,,,,,,,,,,,,,,,,,,,,,,,,,,,,,,,,,,,,,,,,,
,,5e73746e686c0c2c978392e1,65af5647b940720aef4cd637,2024-01-23_07h02.45.368,bars,2023.2.3,Win32,59.95203837,657b66ea316d21385b68909f,,,,,,,,,,,396.001,396.996,396.997,397.496,397.497,397.746,397.746,142,142,422.974,space,25.213,,422.974,434.471,space,11.471,,0,7,7,8,1,160,bars/single008.png,bars/mask004.png,,,,,,,,,,,,,,,,,,,,,,,,,,,,,,,,,,,,,,,,,,,,,,,,,,,,,,,,,,,,,,,,
,,5e73746e686c0c2c978392e1,65af5647b940720aef4cd637,2024-01-23_07h02.45.368,bars,2023.2.3,Win32,59.95203837,657b66ea316d21385b68909f,,,,,,,,,,,434.473,435.47,435.47,435.97,435.971,436.22,436.22,1,1,442.334,space,6.101,,442.334,454.533,space,12.178,,0,8,8,9,1,20,bars/single009.png,bars/mask006.png,,,,,,,,,,,,,,,,,,,,,,,,,,,,,,,,,,,,,,,,,,,,,,,,,,,,,,,,,,,,,,,,
,,5e73746e686c0c2c978392e1,65af5647b940720aef4cd637,2024-01-23_07h02.45.368,bars,2023.2.3,Win32,59.95203837,657b66ea316d21385b68909f,,,,,,,,,,,454.538,455.53,455.53,456.031,456.032,456.282,456.282,130,130,480.427,space,24.132,,480.427,493.16,space,12.717,,0,9,9,0,1,150,bars/single000.png,bars/mask006.png,,,,,,,,,,,,,,,,,,,,,,,,,,,,,,,,,,,,,,,,,,,,,,,,,,,,,,,,,,,,,,,,
,,5e73746e686c0c2c978392e1,65af5647b940720aef4cd637,2024-01-23_07h02.45.368,bars,2023.2.3,Win32,59.95203837,657b66ea316d21385b68909f,,,,,,,,,,,,,,,,,,,,,,,,,,,,,,,,,,,,,493.161,548.126,space,54.938,,,,,,,,,,,,,,,,,,,,,,,,,,,,,,,,,,,,,,,,,,,,,,,,,,,,,,,,,,,,
,,5e73746e686c0c2c978392e1,65af5647b940720aef4cd637,2024-01-23_07h02.45.368,bars,2023.2.3,Win32,59.95203837,657b66ea316d21385b68909f,,,,,,,,,,,,,,,,,,,,,,,,,,,,,,,,,,,,,,,,,,548.133,559.439,right,11.276,,559.44,2,2,560.437,0,0,0,0,1,9,1,9,2,,,,,,,,,,,,,,,,,,,,,,,,,,,,,,,,,,,,,,,,,
,,5e73746e686c0c2c978392e1,65af5647b940720aef4cd637,2024-01-23_07h02.45.368,bars,2023.2.3,Win32,59.95203837,657b66ea316d21385b68909f,,,,,,,,,,,,,,,,,,,,,,,,,,,,,,,,,,,,,,,,,,560.441,567.819,right,7.366,,567.819,1,2,568.818,0,1,1,1,1,10,0,10,1,,,,,,,,,,,,,,,,,,,,,,,,,,,,,,,,,,,,,,,,,
,,5e73746e686c0c2c978392e1,65af5647b940720aef4cd637,2024-01-23_07h02.45.368,bars,2023.2.3,Win32,59.95203837,657b66ea316d21385b68909f,,,,,,,,,,,,,,,,,,,,,,,,,,,,,,,,,,,,,,,,,,568.82,577.465,right,8.632,,577.465,2,2,578.465,0,2,2,2,1,10,2,10,2,,,,,,,,,,,,,,,,,,,,,,,,,,,,,,,,,,,,,,,,,
,,5e73746e686c0c2c978392e1,65af5647b940720aef4cd637,2024-01-23_07h02.45.368,bars,2023.2.3,Win32,59.95203837,657b66ea316d21385b68909f,,,,,,,,,,,,,,,,,,,,,,,,,,,,,,,,,,,,,,,,,,578.467,586.119,right,7.64,,586.119,3,2,587.113,0,3,3,3,1,8,4,7,3,,,,,,,,,,,,,,,,,,,,,,,,,,,,,,,,,,,,,,,,,
,,5e73746e686c0c2c978392e1,65af5647b940720aef4cd637,2024-01-23_07h02.45.368,bars,2023.2.3,Win32,59.95203837,657b66ea316d21385b68909f,,,,,,,,,,,,,,,,,,,,,,,,,,,,,,,,,,,,,,,,,,587.119,595.211,right,8.083,,595.213,1,2,596.211,0,4,4,4,1,6,2,5,1,,,,,,,,,,,,,,,,,,,,,,,,,,,,,,,,,,,,,,,,,
,,5e73746e686c0c2c978392e1,65af5647b940720aef4cd637,2024-01-23_07h02.45.368,bars,2023.2.3,Win32,59.95203837,657b66ea316d21385b68909f,,,,,,,,,,,,,,,,,,,,,,,,,,,,,,,,,,,,,,,,,,596.213,601.394,left,5.172,,601.394,4,1,602.393,0,5,5,5,1,4,4,4,4,,,,,,,,,,,,,,,,,,,,,,,,,,,,,,,,,,,,,,,,,
,,5e73746e686c0c2c978392e1,65af5647b940720aef4cd637,2024-01-23_07h02.45.368,bars,2023.2.3,Win32,59.95203837,657b66ea316d21385b68909f,,,,,,,,,,,,,,,,,,,,,,,,,,,,,,,,,,,,,,,,,,602.394,609.474,left,7.066,,609.474,1,1,610.474,0,6,6,6,1,2,2,1,2,,,,,,,,,,,,,,,,,,,,,,,,,,,,,,,,,,,,,,,,,
,,5e73746e686c0c2c978392e1,65af5647b940720aef4cd637,2024-01-23_07h02.45.368,bars,2023.2.3,Win32,59.95203837,657b66ea316d21385b68909f,,,,,,,,,,,,,,,,,,,,,,,,,,,,,,,,,,,,,,,,,,610.475,615.091,left,4.603,,615.092,0,1,616.088,0,7,7,7,1,0,0,0,1,,,,,,,,,,,,,,,,,,,,,,,,,,,,,,,,,,,,,,,,,
,,5e73746e686c0c2c978392e1,65af5647b940720aef4cd637,2024-01-23_07h02.45.368,bars,2023.2.3,Win32,59.95203837,657b66ea316d21385b68909f,,,,,,,,,,,,,,,,,,,,,,,,,,,,,,,,,,,,,,,,,,616.095,618.972,right,2.866,,618.972,0,2,619.971,0,8,8,8,1,0,2,1,0,,,,,,,,,,,,,,,,,,,,,,,,,,,,,,,,,,,,,,,,,
,,5e73746e686c0c2c978392e1,65af5647b940720aef4cd637,2024-01-23_07h02.45.368,bars,2023.2.3,Win32,59.95203837,657b66ea316d21385b68909f,,,,,,,,,,,,,,,,,,,,,,,,,,,,,,,,,,,,,,,,,,619.973,623.603,right,3.617,,623.604,3,2,624.603,0,9,9,9,1,2,4,2,3,,,,,,,,,,,,,,,,,,,,,,,,,,,,,,,,,,,,,,,,,
,,5e73746e686c0c2c978392e1,65af5647b940720aef4cd637,2024-01-23_07h02.45.368,bars,2023.2.3,Win32,59.95203837,657b66ea316d21385b68909f,,,,,,,,,,,,,,,,,,,,,,,,,,,,,,,,,,,,,,,,,,624.605,627.921,left,3.306,,627.921,0,1,628.918,0,10,10,10,1,0,2,0,3,,,,,,,,,,,,,,,,,,,,,,,,,,,,,,,,,,,,,,,,,
,,5e73746e686c0c2c978392e1,65af5647b940720aef4cd637,2024-01-23_07h02.45.368,bars,2023.2.3,Win32,59.95203837,657b66ea316d21385b68909f,,,,,,,,,,,,,,,,,,,,,,,,,,,,,,,,,,,,,,,,,,628.92,632.284,left,3.349,,632.284,0,1,633.284,0,11,11,11,1,0,4,0,3,,,,,,,,,,,,,,,,,,,,,,,,,,,,,,,,,,,,,,,,,
,,5e73746e686c0c2c978392e1,65af5647b940720aef4cd637,2024-01-23_07h02.45.368,bars,2023.2.3,Win32,59.95203837,657b66ea316d21385b68909f,,,,,,,,,,,,,,,,,,,,,,,,,,,,,,,,,,,,,,,,,,633.286,636.517,right,3.219,,636.517,6,2,637.517,0,12,12,12,1,2,6,1,6,,,,,,,,,,,,,,,,,,,,,,,,,,,,,,,,,,,,,,,,,
,,5e73746e686c0c2c978392e1,65af5647b940720aef4cd637,2024-01-23_07h02.45.368,bars,2023.2.3,Win32,59.95203837,657b66ea316d21385b68909f,,,,,,,,,,,,,,,,,,,,,,,,,,,,,,,,,,,,,,,,,,637.518,640.934,right,3.403,,640.934,3,2,641.932,0,13,13,13,1,0,4,1,3,,,,,,,,,,,,,,,,,,,,,,,,,,,,,,,,,,,,,,,,,
,,5e73746e686c0c2c978392e1,65af5647b940720aef4cd637,2024-01-23_07h02.45.368,bars,2023.2.3,Win32,59.95203837,657b66ea316d21385b68909f,,,,,,,,,,,,,,,,,,,,,,,,,,,,,,,,,,,,,,,,,,641.933,645.498,left,3.552,,645.498,2,1,646.502,0,14,14,14,1,2,6,2,7,,,,,,,,,,,,,,,,,,,,,,,,,,,,,,,,,,,,,,,,,
,,5e73746e686c0c2c978392e1,65af5647b940720aef4cd637,2024-01-23_07h02.45.368,bars,2023.2.3,Win32,59.95203837,657b66ea316d21385b68909f,,,,,,,,,,,,,,,,,,,,,,,,,,,,,,,,,,,,,,,,,,646.505,659.995,right,13.477,,659.995,9,2,660.993,0,15,15,15,1,4,8,3,9,,,,,,,,,,,,,,,,,,,,,,,,,,,,,,,,,,,,,,,,,
,,5e73746e686c0c2c978392e1,65af5647b940720aef4cd637,2024-01-23_07h02.45.368,bars,2023.2.3,Win32,59.95203837,657b66ea316d21385b68909f,,,,,,,,,,,,,,,,,,,,,,,,,,,,,,,,,,,,,,,,,,660.997,664.16,right,3.15,,664.16,7,2,665.159,0,16,16,16,1,6,6,7,7,,,,,,,,,,,,,,,,,,,,,,,,,,,,,,,,,,,,,,,,,
,,5e73746e686c0c2c978392e1,65af5647b940720aef4cd637,2024-01-23_07h02.45.368,bars,2023.2.3,Win32,59.95203837,657b66ea316d21385b68909f,,,,,,,,,,,,,,,,,,,,,,,,,,,,,,,,,,,,,,,,,,665.162,667.708,right,2.533,,667.709,5,2,668.708,0,17,17,17,1,8,4,9,5,,,,,,,,,,,,,,,,,,,,,,,,,,,,,,,,,,,,,,,,,
,,5e73746e686c0c2c978392e1,65af5647b940720aef4cd637,2024-01-23_07h02.45.368,bars,2023.2.3,Win32,59.95203837,657b66ea316d21385b68909f,,,,,,,,,,,,,,,,,,,,,,,,,,,,,,,,,,,,,,,,,,668.709,671.925,right,3.205,,671.925,1,2,672.924,0,18,18,18,1,6,2,5,1,,,,,,,,,,,,,,,,,,,,,,,,,,,,,,,,,,,,,,,,,
,,5e73746e686c0c2c978392e1,65af5647b940720aef4cd637,2024-01-23_07h02.45.368,bars,2023.2.3,Win32,59.95203837,657b66ea316d21385b68909f,,,,,,,,,,,,,,,,,,,,,,,,,,,,,,,,,,,,,,,,,,672.926,676.59,left,3.65,,676.591,7,1,677.59,0,19,19,19,1,8,0,7,0,,,,,,,,,,,,,,,,,,,,,,,,,,,,,,,,,,,,,,,,,
,,5e73746e686c0c2c978392e1,65af5647b940720aef4cd637,2024-01-23_07h02.45.368,bars,2023.2.3,Win32,59.95203837,657b66ea316d21385b68909f,,,,,,,,,,,,,,,,,,,,,,,,,,,,,,,,,,,,,,,,,,,,,,,,,,,,,,,,,,,,677.59,721.747,space,44.13,,,,,,,,,,,,,,,,,,,,,,,,,,,,,,,,,,,,,
,,5e73746e686c0c2c978392e1,65af5647b940720aef4cd637,2024-01-23_07h02.45.368,bars,2023.2.3,Win32,59.95203837,657b66ea316d21385b68909f,,,,,,,,,,,725.752,726.743,,,727.244,727.493,,158,158,,,,,,,,,,,,,,,,bars/004.png,bars/mask007.png,,,,,,,,,,,,0,2,,,,,,,1,9,1,7,,,,,,721.756,725.743,space,3.974,,726.744,727.243,727.493,745.773,space,18.254,,745.774,47,33,746.771,746.772,780.182,space,33.376,,0,0,0,0,1,25,125,,,,,,,,
,,5e73746e686c0c2c978392e1,65af5647b940720aef4cd637,2024-01-23_07h02.45.368,bars,2023.2.3,Win32,59.95203837,657b66ea316d21385b68909f,,,,,,,,,,,780.186,781.179,,,781.679,781.928,,147,147,,,,,,,,,,,,,,,,bars/008.png,bars/mask004.png,,,,,,,,,,,,0,2,,,,,,,3,7,5,6,,,,,,,,,,,781.18,781.679,781.928,796.659,space,14.715,,796.66,37,33,797.657,797.657,817.072,space,19.392,,0,1,1,1,1,110,0,,,,,,,,
,,5e73746e686c0c2c978392e1,65af5647b940720aef4cd637,2024-01-23_07h02.45.368,bars,2023.2.3,Win32,59.95203837,657b66ea316d21385b68909f,,,,,,,,,,,817.076,818.069,,,818.569,818.819,,32,32,,,,,,,,,,,,,,,,bars/032.png,bars/mask001.png,,,,,,,,,,,,5,2,,,,,,,5,9,4,9,,,,,,,,,,,818.071,818.569,818.819,833.167,space,14.33,,833.167,87,12,834.165,834.165,848.331,space,14.144,,0,2,2,2,1,125,20,,,,,,,,
,,5e73746e686c0c2c978392e1,65af5647b940720aef4cd637,2024-01-23_07h02.45.368,bars,2023.2.3,Win32,59.95203837,657b66ea316d21385b68909f,,,,,,,,,,,848.334,849.328,,,849.827,850.078,,42,42,,,,,,,,,,,,,,,,bars/036.png,bars/mask007.png,,,,,,,,,,,,3,2,,,,,,,3,7,5,10,,,,,,,,,,,849.33,849.827,850.078,864.958,space,14.866,,864.959,77,22,865.957,865.957,876.64,space,10.66,,0,3,3,3,1,145,20,,,,,,,,
,,5e73746e686c0c2c978392e1,65af5647b940720aef4cd637,2024-01-23_07h02.45.368,bars,2023.2.3,Win32,59.95203837,657b66ea316d21385b68909f,,,,,,,,,,,876.643,877.637,,,878.137,878.387,,162,162,,,,,,,,,,,,,,,,bars/034.png,bars/mask007.png,,,,,,,,,,,,0,1,,,,,,,1,5,1,4,,,,,,,,,,,877.638,878.137,878.387,892.834,space,14.432,,892.834,37,83,893.832,893.832,903.863,space,10.005,,0,4,4,4,1,125,65,,,,,,,,
,,5e73746e686c0c2c978392e1,65af5647b940720aef4cd637,2024-01-23_07h02.45.368,bars,2023.2.3,Win32,59.95203837,657b66ea316d21385b68909f,,,,,,,,,,,903.866,904.863,,,905.364,905.613,,30,30,,,,,,,,,,,,,,,,bars/023.png,bars/mask000.png,,,,,,,,,,,,3,1,,,,,,,3,3,5,1,,,,,,,,,,,904.863,905.364,905.613,918.978,space,13.348,,918.979,10,85,919.975,919.975,931.606,space,11.608,,0,5,5,5,1,20,115,,,,,,,,
,,5e73746e686c0c2c978392e1,65af5647b940720aef4cd637,2024-01-23_07h02.45.368,bars,2023.2.3,Win32,59.95203837,657b66ea316d21385b68909f,,,,,,,,,,,931.61,932.606,,,933.106,933.356,,126,126,,,,,,,,,,,,,,,,bars/001.png,bars/mask002.png,,,,,,,,,,,,6,1,,,,,,,5,1,7,2,,,,,,,,,,,932.606,933.106,933.356,948.504,space,15.131,,948.505,4,41,949.501,949.501,960.315,space,10.792,,0,6,6,6,1,130,85,,,,,,,,
,,5e73746e686c0c2c978392e1,65af5647b940720aef4cd637,2024-01-23_07h02.45.368,bars,2023.2.3,Win32,59.95203837,657b66ea316d21385b68909f,,,,,,,,,,,960.318,961.315,,,961.815,962.065,,163,163,,,,,,,,,,,,,,,,bars/003.png,bars/mask004.png,,,,,,,,,,,,1,2,,,,,,,3,3,3,3,,,,,,,,,,,961.315,961.814,962.065,978.612,space,16.532,,978.613,42,23,979.61,979.61,986.259,space,6.622,,0,7,7,7,1,25,140,,,,,,,,
,,5e73746e686c0c2c978392e1,65af5647b940720aef4cd637,2024-01-23_07h02.45.368,bars,2023.2.3,Win32,59.95203837,657b66ea316d21385b68909f,,,,,,,,,,,986.262,987.258,,,987.758,988.008,,131,131,,,,,,,,,,,,,,,,bars/007.png,bars/mask008.png,,,,,,,,,,,,0,1,,,,,,,5,1,3,1,,,,,,,,,,,987.258,987.758,988.008,1002.871,space,14.847,,1002.872,44,76,1003.87,1003.87,1011.24,space,7.345,,0,8,8,8,1,175,55,,,,,,,,
,,5e73746e686c0c2c978392e1,65af5647b940720aef4cd637,2024-01-23_07h02.45.368,bars,2023.2.3,Win32,59.95203837,657b66ea316d21385b68909f,,,,,,,,,,,1011.243,1012.235,,,1012.735,1012.985,,49,49,,,,,,,,,,,,,,,,bars/020.png,bars/mask001.png,,,,,,,,,,,,0,2,,,,,,,3,3,2,5,,,,,,,,,,,1012.235,1012.735,1012.986,1039.234,space,26.239,,1039.235,66,59,1040.228,1040.229,1051.976,space,11.72,,0,9,9,9,1,115,170,,,,,,,,
,,5e73746e686c0c2c978392e1,65af5647b940720aef4cd637,2024-01-23_07h02.45.368,bars,2023.2.3,Win32,59.95203837,657b66ea316d21385b68909f,,,,,,,,,,,1051.978,1052.974,,,1053.475,1053.724,,16,16,,,,,,,,,,,,,,,,bars/005.png,bars/mask004.png,,,,,,,,,,,,0,1,,,,,,,1,1,0,0,,,,,,,,,,,1052.974,1053.475,1053.724,1064.222,space,10.483,,1064.222,6,56,1065.221,1065.221,1079.904,space,14.654,,0,10,10,10,1,10,140,,,,,,,,
,,5e73746e686c0c2c978392e1,65af5647b940720aef4cd637,2024-01-23_07h02.45.368,bars,2023.2.3,Win32,59.95203837,657b66ea316d21385b68909f,,,,,,,,,,,1079.908,1080.9,,,1081.4,1081.65,,38,38,,,,,,,,,,,,,,,,bars/000.png,bars/mask003.png,,,,,,,,,,,,3,1,,,,,,,3,0,3,0,,,,,,,,,,,1080.9,1081.4,1081.65,1100.646,space,18.98,,1100.646,2,73,1101.645,1101.645,1114.595,space,12.928,,0,11,11,11,1,40,145,,,,,,,,
,,5e73746e686c0c2c978392e1,65af5647b940720aef4cd637,2024-01-23_07h02.45.368,bars,2023.2.3,Win32,59.95203837,657b66ea316d21385b68909f,,,,,,,,,,,1114.599,1115.591,,,1116.091,1116.341,,154,154,,,,,,,,,,,,,,,,bars/007.png,bars/mask009.png,,,,,,,,,,,,2,1,,,,,,,5,0,6,0,,,,,,,,,,,1115.591,1116.091,1116.341,1126.805,space,10.448,,1126.806,21,81,1127.804,1127.804,1134.852,space,7.029,,0,12,12,12,1,175,55,,,,,,,,
,,5e73746e686c0c2c978392e1,65af5647b940720aef4cd637,2024-01-23_07h02.45.368,bars,2023.2.3,Win32,59.95203837,657b66ea316d21385b68909f,,,,,,,,,,,1134.855,1135.852,,,1136.352,1136.602,,21,21,,,,,,,,,,,,,,,,bars/048.png,bars/mask009.png,,,,,,,,,,,,0,2,,,,,,,7,2,7,2,,,,,,,,,,,1135.852,1136.352,1136.602,1165.813,space,29.197,,1165.814,29,26,1166.811,1166.811,1176.295,space,9.454,,0,13,13,13,1,50,175,,,,,,,,
,,5e73746e686c0c2c978392e1,65af5647b940720aef4cd637,2024-01-23_07h02.45.368,bars,2023.2.3,Win32,59.95203837,657b66ea316d21385b68909f,,,,,,,,,,,1176.298,1177.293,,,1177.792,1178.041,,163,163,,,,,,,,,,,,,,,,bars/001.png,bars/mask004.png,,,,,,,,,,,,0,1,,,,,,,5,4,6,5,,,,,,,,,,,1177.293,1177.792,1178.041,1186.289,space,8.232,,1186.29,33,78,1187.289,1187.289,1193.754,space,6.438,,0,14,14,14,1,130,85,,,,,,,,
,,5e73746e686c0c2c978392e1,65af5647b940720aef4cd637,2024-01-23_07h02.45.368,bars,2023.2.3,Win32,59.95203837,657b66ea316d21385b68909f,,,,,,,,,,,1193.756,1194.754,,,1195.254,1195.503,,141,141,,,,,,,,,,,,,,,,bars/014.png,bars/mask002.png,,,,,,,,,,,,0,2,,,,,,,3,2,3,1,,,,,,,,,,,1194.754,1195.254,1195.503,1204.202,space,8.683,,1204.202,61,39,1205.203,1205.204,1211.701,space,6.469,,0,15,15,15,1,80,0,,,,,,,,
,,5e73746e686c0c2c978392e1,65af5647b940720aef4cd637,2024-01-23_07h02.45.368,bars,2023.2.3,Win32,59.95203837,657b66ea316d21385b68909f,,,,,,,,,,,1211.703,1212.7,,,1213.199,1213.449,,67,67,,,,,,,,,,,,,,,,bars/027.png,bars/mask000.png,,,,,,,,,,,,0,2,,,,,,,1,0,3,0,,,,,,,,,,,1212.7,1213.199,1213.449,1220.264,space,6.8,,1220.265,43,17,1221.263,1221.263,1233.511,space,12.232,,0,16,16,16,1,110,50,,,,,,,,
,,5e73746e686c0c2c978392e1,65af5647b940720aef4cd637,2024-01-23_07h02.45.368,bars,2023.2.3,Win32,59.95203837,657b66ea316d21385b68909f,,,,,,,,,,,1233.512,1234.51,,,1235.01,1235.259,,178,178,,,,,,,,,,,,,,,,bars/006.png,bars/mask006.png,,,,,,,,,,,,0,1,,,,,,,0,2,0,1,,,,,,,,,,,1234.51,1235.01,1235.26,1240.444,space,5.167,,1240.445,37,78,1241.441,1241.442,1251.157,space,9.686,,0,17,17,17,1,35,100,,,,,,,,
,,5e73746e686c0c2c978392e1,65af5647b940720aef4cd637,2024-01-23_07h02.45.368,bars,2023.2.3,Win32,59.95203837,657b66ea316d21385b68909f,,,,,,,,,,,1251.161,1252.156,,,1252.656,1252.905,,20,20,,,,,,,,,,,,,,,,bars/011.png,bars/mask006.png,,,,,,,,,,,,0,1,,,,,,,2,4,2,5,,,,,,,,,,,1252.157,1252.655,1252.905,1258.404,space,5.485,,1258.404,40,65,1259.404,1259.404,1265.868,space,6.446,,0,18,18,18,1,160,85,,,,,,,,
,,5e73746e686c0c2c978392e1,65af5647b940720aef4cd637,2024-01-23_07h02.45.368,bars,2023.2.3,Win32,59.95203837,657b66ea316d21385b68909f,,,,,,,,,,,1265.871,1266.868,,,1267.368,1267.618,,144,144,,,,,,,,,,,,,,,,bars/026.png,bars/mask001.png,,,,,,,,,,,,0,2,,,,,,,0,2,0,2,,,,,,,,,,,1266.868,1267.368,1267.618,1281.417,space,13.782,,1281.418,71,59,1282.415,1282.415,1290.879,space,8.438,,0,19,19,19,1,35,85,,,,,,,,
,,5e73746e686c0c2c978392e1,65af5647b940720aef4cd637,2024-01-23_07h02.45.368,bars,2023.2.3,Win32,59.95203837,657b66ea316d21385b68909f,,,,,,,,,,,1290.882,1291.879,,,1292.378,1292.629,,13,13,,,,,,,,,,,,,,,,bars/029.png,bars/mask004.png,,,,,,,,,,,,0,2,,,,,,,0,4,0,4,,,,,,,,,,,1291.879,1292.378,1292.629,1299.294,space,6.652,,1299.294,77,32,1300.293,1300.293,1307.178,space,6.862,,0,20,20,20,1,90,45,,,,,,,,
,,5e73746e686c0c2c978392e1,65af5647b940720aef4cd637,2024-01-23_07h02.45.368,bars,2023.2.3,Win32,59.95203837,657b66ea316d21385b68909f,,,,,,,,,,,1307.181,1308.174,,,1308.674,1308.924,,23,23,,,,,,,,,,,,,,,,bars/012.png,bars/mask003.png,,,,,,,,,,,,5,2,,,,,,,0,6,1,7,,,,,,,,,,,1308.174,1308.674,1308.924,1321.105,space,12.164,,1321.106,67,8,1322.104,1322.104,1331.701,space,9.577,,0,21,21,21,1,90,15,,,,,,,,
,,5e73746e686c0c2c978392e1,65af5647b940720aef4cd637,2024-01-23_07h02.45.368,bars,2023.2.3,Win32,59.95203837,657b66ea316d21385b68909f,,,,,,,,,,,1331.704,1332.701,,,1333.201,1333.451,,171,171,,,,,,,,,,,,,,,,bars/019.png,bars/mask004.png,,,,,,,,,,,,0,1,,,,,,,0,4,0,5,,,,,,,,,,,1332.701,1333.2,1333.451,1358.263,space,24.794,,1358.265,54,66,1359.261,1359.261,1365.976,space,6.688,,0,22,22,22,1,45,105,,,,,,,,
,,5e73746e686c0c2c978392e1,65af5647b940720aef4cd637,2024-01-23_07h02.45.368,bars,2023.2.3,Win32,59.95203837,657b66ea316d21385b68909f,,,,,,,,,,,1365.978,1366.976,,,1367.475,1367.725,,70,70,,,,,,,,,,,,,,,,bars/000.png,bars/mask002.png,,,,,,,,,,,,0,1,,,,,,,0,6,1,6,,,,,,,,,,,1366.976,1367.475,1367.725,1384.273,space,16.535,,1384.274,30,75,1385.27,1385.27,1391.82,space,6.53,,0,23,23,23,1,40,145,,,,,,,,
,,5e73746e686c0c2c978392e1,65af5647b940720aef4cd637,2024-01-23_07h02.45.368,bars,2023.2.3,Win32,59.95203837,657b66ea316d21385b68909f,,,,,,,,,,,1391.822,1392.819,,,1393.319,1393.568,,38,38,,,,,,,,,,,,,,,,bars/005.png,bars/mask008.png,,,,,,,,,,,,0,1,,,,,,,0,4,1,6,,,,,,,,,,,1392.819,1393.319,1393.568,1399.734,space,6.151,,1399.735,28,78,1400.734,1400.734,1407.002,space,6.252,,0,24,24,24,1,10,140,,,,,,,,
,,5e73746e686c0c2c978392e1,65af5647b940720aef4cd637,2024-01-23_07h02.45.368,bars,2023.2.3,Win32,59.95203837,657b66ea316d21385b68909f,,,,,,,,,,,1407.007,1407.998,,,1408.498,1408.75,,2,2,,,,,,,,,,,,,,,,bars/020.png,bars/mask002.png,,,,,,,,,,,,1,2,,,,,,,0,2,0,1,,,,,,,,,,,1407.998,1408.498,1408.75,1415.115,space,6.349,,1415.115,67,12,1416.112,1416.112,1424.013,space,7.879,,0,25,25,25,1,115,170,,,,,,,,
,,5e73746e686c0c2c978392e1,65af5647b940720aef4cd637,2024-01-23_07h02.45.368,bars,2023.2.3,Win32,59.95203837,657b66ea316d21385b68909f,,,,,,,,,,,1424.014,1425.01,,,1425.511,1425.759,,166,-14,,,,,,,,,,,,,,,,bars/001.png,bars/mask009.png,,,,,,,,,,,,0,1,,,,,,,2,4,4,4,,,,,,,,,,,1425.01,1425.51,1425.76,1450.405,space,24.628,,1450.407,36,81,1451.403,1451.403,1458.535,space,7.104,,0,26,26,26,1,130,85,,,,,,,,
,,5e73746e686c0c2c978392e1,65af5647b940720aef4cd637,2024-01-23_07h02.45.368,bars,2023.2.3,Win32,59.95203837,657b66ea316d21385b68909f,,,,,,,,,,,1458.538,1459.534,,,1460.035,1460.284,,122,122,,,,,,,,,,,,,,,,bars/000.png,bars/mask009.png,,,,,,,,,,,,1,2,,,,,,,0,2,0,5,,,,,,,,,,,1459.534,1460.035,1460.284,1486.113,space,25.812,,1486.114,82,23,1487.11,1487.11,1493.026,space,5.887,,0,27,27,27,1,40,145,,,,,,,,
,,5e73746e686c0c2c978392e1,65af5647b940720aef4cd637,2024-01-23_07h02.45.368,bars,2023.2.3,Win32,59.95203837,657b66ea316d21385b68909f,,,,,,,,,,,1493.029,1494.026,,,1494.525,1494.775,,136,136,,,,,,,,,,,,,,,,bars/004.png,bars/mask008.png,,,,,,,,,,,,3,2,,,,,,,2,4,1,4,,,,,,,,,,,1494.026,1494.525,1494.775,1512.806,space,18.013,,1512.807,69,11,1513.803,1513.803,1525.224,space,11.403,,0,28,28,28,1,25,125,,,,,,,,
,,5e73746e686c0c2c978392e1,65af5647b940720aef4cd637,2024-01-23_07h02.45.368,bars,2023.2.3,Win32,59.95203837,657b66ea316d21385b68909f,,,,,,,,,,,1525.225,1526.217,,,1526.717,1526.967,,113,113,,,,,,,,,,,,,,,,bars/024.png,bars/mask000.png,,,,,,,,,,,,0,1,,,,,,,0,2,0,3,,,,,,,,,,,1526.217,1526.717,1526.967,1532.35,space,5.37,,1532.35,7,57,1533.349,1533.349,1544.565,space,11.191,,0,29,29,29,1,120,170,,,,,,,,
,,5e73746e686c0c2c978392e1,65af5647b940720aef4cd637,2024-01-23_07h02.45.368,bars,2023.2.3,Win32,59.95203837,657b66ea316d21385b68909f,,,,,,,,,,,1544.569,1545.562,,,1546.062,1546.312,,128,128,,,,,,,,,,,,,,,,bars/040.png,bars/mask001.png,,,,,,,,,,,,0,1,,,,,,,0,4,0,6,,,,,,,,,,,1545.562,1546.062,1546.312,1572.474,space,26.144,,1572.475,12,57,1573.471,1573.472,1583.053,space,9.559,,0,30,30,30,1,140,5,,,,,,,,
,,5e73746e686c0c2c978392e1,65af5647b940720aef4cd637,2024-01-23_07h02.45.368,bars,2023.2.3,Win32,59.95203837,657b66ea316d21385b68909f,,,,,,,,,,,1583.055,1584.052,,,1584.552,1584.802,,148,148,,,,,,,,,,,,,,,,bars/046.png,bars/mask003.png,,,,,,,,,,,,1,1,,,,,,,0,2,1,1,,,,,,,,,,,1584.052,1584.552,1584.802,1595.166,space,10.348,,1595.167,7,63,1596.165,1596.165,1604.599,space,8.412,,0,31,31,31,1,155,85,,,,,,,,
,,5e73746e686c0c2c978392e1,65af5647b940720aef4cd637,2024-01-23_07h02.45.368,bars,2023.2.3,Win32,59.95203837,657b66ea316d21385b68909f,,,,,,,,,,,1604.603,1605.596,,,1606.097,1606.347,,158,158,,,,,,,,,,,,,,,,bars/045.png,bars/mask003.png,,,,,,,,,,,,0,2,,,,,,,2,4,1,5,,,,,,,,,,,1605.596,1606.096,1606.347,1617.477,space,11.116,,1617.477,58,32,1618.476,1618.476,1626.308,space,7.804,,0,32,32,32,1,100,10,,,,,,,,
,,5e73746e686c0c2c978392e1,65af5647b940720aef4cd637,2024-01-23_07h02.45.368,bars,2023.2.3,Win32,59.95203837,657b66ea316d21385b68909f,,,,,,,,,,,1626.31,1627.307,,,1627.808,1628.057,,43,43,,,,,,,,,,,,,,,,bars/047.png,bars/mask009.png,,,,,,,,,,,,0,2,,,,,,,4,2,2,4,,,,,,,,,,,1627.307,1627.807,1628.057,1643.155,space,15.082,,1643.156,28,27,1644.153,1644.153,1653.169,space,8.992,,0,33,33,33,1,15,70,,,,,,,,
,,5e73746e686c0c2c978392e1,65af5647b940720aef4cd637,2024-01-23_07h02.45.368,bars,2023.2.3,Win32,59.95203837,657b66ea316d21385b68909f,,,,,,,,,,,1653.171,1654.167,,,1654.667,1654.916,,44,44,,,,,,,,,,,,,,,,bars/012.png,bars/mask002.png,,,,,,,,,,,,0,2,,,,,,,2,4,0,3,,,,,,,,,,,1654.167,1654.666,1654.916,1664.698,space,9.767,,1664.699,46,29,1665.697,1665.697,1675.847,space,10.129,,0,34,34,34,1,90,15,,,,,,,,
,,5e73746e686c0c2c978392e1,65af5647b940720aef4cd637,2024-01-23_07h02.45.368,bars,2023.2.3,Win32,59.95203837,657b66ea316d21385b68909f,,,,,,,,,,,1675.851,1676.845,,,1677.345,1677.595,,8,8,,,,,,,,,,,,,,,,bars/014.png,bars/mask004.png,,,,,,,,,,,,4,2,,,,,,,0,6,0,6,,,,,,,,,,,1676.845,1677.345,1677.595,1705.089,space,27.477,,1705.089,72,8,1706.086,1706.086,1713.136,space,7.026,,0,35,35,35,1,80,0,,,,,,,,
,,5e73746e686c0c2c978392e1,65af5647b940720aef4cd637,2024-01-23_07h02.45.368,bars,2023.2.3,Win32,59.95203837,657b66ea316d21385b68909f,,,,,,,,,,,1713.138,1714.134,,,1714.634,1714.885,,146,146,,,,,,,,,,,,,,,,bars/000.png,bars/mask001.png,,,,,,,,,,,,3,2,,,,,,,0,4,0,3,,,,,,,,,,,1714.134,1714.634,1714.885,1731.097,space,16.197,,1731.098,74,1,1732.1,1732.1,1746.327,space,14.205,,0,36,36,36,1,40,145,,,,,,,,
,,5e73746e686c0c2c978392e1,65af5647b940720aef4cd637,2024-01-23_07h02.45.368,bars,2023.2.3,Win32,59.95203837,657b66ea316d21385b68909f,,,,,,,,,,,1746.329,1747.325,,,1747.827,1748.075,,155,-25,,,,,,,,,,,,,,,,bars/037.png,bars/mask001.png,,,,,,,,,,,,0,1,,,,,,,0,6,0,5,,,,,,,,,,,1747.325,1747.827,1748.075,1762.156,space,14.065,,1762.156,5,50,1763.155,1763.155,1768.739,space,5.557,,0,37,37,37,1,150,105,,,,,,,,
,,5e73746e686c0c2c978392e1,65af5647b940720aef4cd637,2024-01-23_07h02.45.368,bars,2023.2.3,Win32,59.95203837,657b66ea316d21385b68909f,,,,,,,,,,,1768.744,1769.737,,,1770.237,1770.486,,76,76,,,,,,,,,,,,,,,,bars/036.png,bars/mask008.png,,,,,,,,,,,,0,2,,,,,,,0,4,0,6,,,,,,,,,,,1769.737,1770.236,1770.486,1781.501,space,10.997,,1781.501,69,56,1782.5,1782.5,1787.415,space,4.89,,0,38,38,38,1,145,20,,,,,,,,
,,5e73746e686c0c2c978392e1,65af5647b940720aef4cd637,2024-01-23_07h02.45.368,bars,2023.2.3,Win32,59.95203837,657b66ea316d21385b68909f,,,,,,,,,,,1787.418,1788.415,,,1788.915,1789.165,,21,201,,,,,,,,,,,,,,,,bars/030.png,bars/mask005.png,,,,,,,,,,,,0,2,,,,,,,2,2,1,2,,,,,,,,,,,1788.415,1788.915,1789.165,1806.029,space,16.85,,1806.03,61,44,1807.027,1807.027,1812.294,space,5.243,,0,39,39,39,1,140,65,,,,,,,,
,,5e73746e686c0c2c978392e1,65af5647b940720aef4cd637,2024-01-23_07h02.45.368,bars,2023.2.3,Win32,59.95203837,657b66ea316d21385b68909f,,,,,,,,,,,1812.295,1813.291,,,1813.792,1814.041,,68,68,,,,,,,,,,,,,,,,bars/014.png,bars/mask009.png,,,,,,,,,,,,2,1,,,,,,,4,4,4,3,,,,,,,,,,,1813.291,1813.792,1814.041,1824.172,space,10.116,,1824.173,12,68,1825.172,1825.172,1831.723,space,6.522,,0,40,40,40,1,80,0,,,,,,,,
,,5e73746e686c0c2c978392e1,65af5647b940720aef4cd637,2024-01-23_07h02.45.368,bars,2023.2.3,Win32,59.95203837,657b66ea316d21385b68909f,,,,,,,,,,,1831.726,1832.72,,,1833.221,1833.47,,91,91,,,,,,,,,,,,,,,,bars/035.png,bars/mask001.png,,,,,,,,,,,,0,2,,,,,,,6,2,5,3,,,,,,,,,,,1832.72,1833.221,1833.47,1839.951,space,6.466,,1839.953,84,31,1840.951,1840.951,1846.217,space,5.242,,0,41,41,41,1,175,60,,,,,,,,
,,5e73746e686c0c2c978392e1,65af5647b940720aef4cd637,2024-01-23_07h02.45.368,bars,2023.2.3,Win32,59.95203837,657b66ea316d21385b68909f,,,,,,,,,,,1846.219,1847.216,,,1847.717,1847.966,,67,67,,,,,,,,,,,,,,,,bars/024.png,bars/mask005.png,,,,,,,,,,,,0,1,,,,,,,4,4,4,3,,,,,,,,,,,1847.216,1847.717,1847.966,1855.597,space,7.616,,1855.598,53,77,1856.597,1856.597,1861.546,space,4.926,,0,42,42,42,1,120,170,,,,,,,,
,,5e73746e686c0c2c978392e1,65af5647b940720aef4cd637,2024-01-23_07h02.45.368,bars,2023.2.3,Win32,59.95203837,657b66ea316d21385b68909f,,,,,,,,,,,1861.547,1862.546,,,1863.045,1863.296,,137,137,,,,,,,,,,,,,,,,bars/015.png,bars/mask008.png,,,,,,,,,,,,1,2,,,,,,,2,6,4,6,,,,,,,,,,,1862.546,1863.045,1863.296,1869.796,space,6.484,,1869.796,27,23,1870.794,1870.794,1875.976,space,5.156,,0,43,43,43,1,110,160,,,,,,,,
,,5e73746e686c0c2c978392e1,65af5647b940720aef4cd637,2024-01-23_07h02.45.368,bars,2023.2.3,Win32,59.95203837,657b66ea316d21385b68909f,,,,,,,,,,,1875.979,1876.975,,,1877.475,1877.726,,168,168,,,,,,,,,,,,,,,,bars/007.png,bars/mask000.png,,,,,,,,,,,,4,1,,,,,,,4,4,5,3,,,,,,,,,,,1876.975,1877.475,1877.726,1884.224,space,6.483,,1884.225,7,67,1885.223,1885.223,1890.789,space,5.54,,0,44,44,44,1,175,55,,,,,,,,
,,5e73746e686c0c2c978392e1,65af5647b940720aef4cd637,2024-01-23_07h02.45.368,bars,2023.2.3,Win32,59.95203837,657b66ea316d21385b68909f,,,,,,,,,,,1890.791,1891.788,,,1892.288,1892.537,,8,8,,,,,,,,,,,,,,,,bars/047.png,bars/mask008.png,,,,,,,,,,,,4,1,,,,,,,6,6,5,6,,,,,,,,,,,1891.788,1892.287,1892.537,1900.121,space,7.566,,1900.121,7,62,1901.119,1901.119,1906.253,space,5.108,,0,45,45,45,1,15,70,,,,,,,,
,,5e73746e686c0c2c978392e1,65af5647b940720aef4cd637,2024-01-23_07h02.45.368,bars,2023.2.3,Win32,59.95203837,657b66ea316d21385b68909f,,,,,,,,,,,1906.255,1907.25,,,1907.751,1908,,30,210,,,,,,,,,,,,,,,,bars/048.png,bars/mask007.png,,,,,,,,,,,,1,1,,,,,,,4,4,3,5,,,,,,,,,,,1907.25,1907.751,1908.001,1912.983,space,4.967,,1912.983,20,35,1913.982,1913.982,1919.682,space,5.68,,0,46,46,46,1,50,175,,,,,,,,
,,5e73746e686c0c2c978392e1,65af5647b940720aef4cd637,2024-01-23_07h02.45.368,bars,2023.2.3,Win32,59.95203837,657b66ea316d21385b68909f,,,,,,,,,,,1919.684,1920.681,,,1921.188,1921.43,,59,59,,,,,,,,,,,,,,,,bars/024.png,bars/mask006.png,,,,,,,,,,,,0,1,,,,,,,6,6,6,5,,,,,,,,,,,1920.681,1921.188,1921.43,1929.447,space,8.007,,1929.447,61,69,1930.445,1930.445,1935.463,space,4.995,,0,47,47,47,1,120,170,,,,,,,,
,,5e73746e686c0c2c978392e1,65af5647b940720aef4cd637,2024-01-23_07h02.45.368,bars,2023.2.3,Win32,59.95203837,657b66ea316d21385b68909f,,,,,,,,,,,1935.467,1936.459,,,1936.96,1937.21,,136,136,,,,,,,,,,,,,,,,bars/042.png,bars/mask006.png,,,,,,,,,,,,4,1,,,,,,,4,8,5,9,,,,,,,,,,,1936.459,1936.96,1937.21,1946.493,space,9.269,,1946.493,9,61,1947.49,1947.49,1951.956,space,4.445,,0,48,48,48,1,145,75,,,,,,,,
,,5e73746e686c0c2c978392e1,65af5647b940720aef4cd637,2024-01-23_07h02.45.368,bars,2023.2.3,Win32,59.95203837,657b66ea316d21385b68909f,,,,,,,,,,,1951.959,1952.955,,,1953.455,1953.705,,160,160,,,,,,,,,,,,,,,,bars/040.png,bars/mask007.png,,,,,,,,,,,,1,1,,,,,,,2,10,2,10,,,,,,,,,,,1952.955,1953.455,1953.705,1960.336,space,6.617,,1960.338,20,25,1961.336,1961.336,1966.706,space,5.347,,0,49,49,49,1,140,5,,,,,,,,
,,5e73746e686c0c2c978392e1,65af5647b940720aef4cd637,2024-01-23_07h02.45.368,bars,2023.2.3,Win32,59.95203837,657b66ea316d21385b68909f,,,,,,,,,,,,,,,,,,,,,,,,,,,,,,,,,,,,,,,,,,,,,,,,,,,,,,,,,,,,,,,,,,,,,,,,,,,,,,,,,,,,,,,,,,,,,1966.708,2026.705,0,0,0,1,1,sequence_tables/blk022.csv
,,5e73746e686c0c2c978392e1,65af5647b940720aef4cd637,2024-01-23_07h02.45.368,bars,2023.2.3,Win32,59.95203837,657b66ea316d21385b68909f,,,,,,,,,,,2033.03,2034.034,,,2034.535,2034.784,,152,-28,,,,,,,,,,,,,,,,bars/028.png,bars/mask003.png,,,,,,,,,,,,0,2,,,,,,,2,7,4,8,,,,,,2026.709,2033.02,space,6.296,,2034.034,2034.535,2034.784,2050.33,space,15.531,,2050.33,73,32,2051.33,2051.33,2051.337,,,,0,0,0,0,1,45,120,,,,,,,,
,,5e73746e686c0c2c978392e1,65af5647b940720aef4cd637,2024-01-23_07h02.45.368,bars,2023.2.3,Win32,59.95203837,657b66ea316d21385b68909f,,,,,,,,,,,2051.337,2052.33,,,2052.829,2053.079,,36,36,,,,,,,,,,,,,,,,bars/044.png,bars/mask000.png,,,,,,,,,,,,0,1,,,,,,,4,5,3,5,,,,,,,,,,,2052.33,2052.829,2053.079,2069.86,space,16.764,,2069.861,39,61,2070.858,2070.858,2070.869,,,,0,1,1,1,1,75,155,,,,,,,,
,,5e73746e686c0c2c978392e1,65af5647b940720aef4cd637,2024-01-23_07h02.45.368,bars,2023.2.3,Win32,59.95203837,657b66ea316d21385b68909f,,,,,,,,,,,2070.869,2071.857,,,2072.358,2072.607,,4,4,,,,,,,,,,,,,,,,bars/020.png,bars/mask003.png,,,,,,,,,,,,4,2,,,,,,,6,7,7,8,,,,,,,,,,,2071.857,2072.358,2072.607,2080.688,space,8.067,,2080.688,69,14,2081.688,2081.688,2081.696,,,,0,2,2,2,1,115,170,,,,,,,,
,,5e73746e686c0c2c978392e1,65af5647b940720aef4cd637,2024-01-23_07h02.45.368,bars,2023.2.3,Win32,59.95203837,657b66ea316d21385b68909f,,,,,,,,,,,2081.696,2082.697,,,2083.188,2083.438,,18,18,,,,,,,,,,,,,,,,bars/026.png,bars/mask002.png,,,,,,,,,,,,3,1,,,,,,,8,5,7,5,,,,,,,,,,,2082.697,2083.188,2083.438,2092.669,space,9.216,,2092.669,17,67,2093.669,2093.669,2093.675,,,,0,3,3,3,1,35,85,,,,,,,,
,,5e73746e686c0c2c978392e1,65af5647b940720aef4cd637,2024-01-23_07h02.45.368,bars,2023.2.3,Win32,59.95203837,657b66ea316d21385b68909f,,,,,,,,,,,2093.675,2094.668,,,2095.168,2095.418,,22,202,,,,,,,,,,,,,,,,bars/002.png,bars/mask009.png,,,,,,,,,,,,0,2,,,,,,,6,3,6,2,,,,,,,,,,,2094.668,2095.168,2095.418,2104.651,space,9.216,,2104.652,72,63,2105.648,2105.649,2105.659,,,,0,4,4,4,1,130,85,,,,,,,,
,,5e73746e686c0c2c978392e1,65af5647b940720aef4cd637,2024-01-23_07h02.45.368,bars,2023.2.3,Win32,59.95203837,657b66ea316d21385b68909f,,,,,,,,,,,2105.659,2106.649,,,2107.148,2107.398,,161,161,,,,,,,,,,,,,,,,bars/036.png,bars/mask009.png,,,,,,,,,,,,2,1,,,,,,,4,5,4,6,,,,,,,,,,,2106.649,2107.148,2107.398,2116.896,space,9.483,,2116.897,16,39,2117.895,2117.895,2117.903,,,,0,5,5,5,1,145,20,,,,,,,,
,,5e73746e686c0c2c978392e1,65af5647b940720aef4cd637,2024-01-23_07h02.45.368,bars,2023.2.3,Win32,59.95203837,657b66ea316d21385b68909f,,,,,,,,,,,2117.903,2118.895,,,2119.395,2119.645,,158,158,,,,,,,,,,,,,,,,bars/013.png,bars/mask007.png,,,,,,,,,,,,0,2,,,,,,,2,3,3,3,,,,,,,,,,,2118.895,2119.395,2119.646,2129.276,space,9.617,,2129.276,83,32,2130.277,2130.278,2130.286,,,,0,6,6,6,1,75,10,,,,,,,,
,,5e73746e686c0c2c978392e1,65af5647b940720aef4cd637,2024-01-23_07h02.45.368,bars,2023.2.3,Win32,59.95203837,657b66ea316d21385b68909f,,,,,,,,,,,2130.286,2131.276,,,2131.775,2132.025,,146,146,,,,,,,,,,,,,,,,bars/014.png,bars/mask002.png,,,,,,,,,,,,0,2,,,,,,,4,1,6,2,,,,,,,,,,,2131.276,2131.775,2132.025,2137.958,space,5.917,,2137.958,66,34,2138.957,2138.957,2138.962,,,,0,7,7,7,1,80,0,,,,,,,,
,,5e73746e686c0c2c978392e1,65af5647b940720aef4cd637,2024-01-23_07h02.45.368,bars,2023.2.3,Win32,59.95203837,657b66ea316d21385b68909f,,,,,,,,,,,2138.963,2139.956,,,2140.456,2140.706,,127,127,,,,,,,,,,,,,,,,bars/022.png,bars/mask005.png,,,,,,,,,,,,0,1,,,,,,,6,3,5,4,,,,,,,,,,,2139.956,2140.456,2140.706,2149.223,space,8.503,0,2149.223,32,73,2150.221,2150.221,2150.229,,,,0,8,8,8,1,95,20,,,,,,,,
,,5e73746e686c0c2c978392e1,65af5647b940720aef4cd637,2024-01-23_07h02.45.368,bars,2023.2.3,Win32,59.95203837,657b66ea316d21385b68909f,,,,,,,,,,,2150.229,2151.22,,,2151.719,2151.97,,47,47,,,,,,,,,,,,,,,,bars/047.png,bars/mask007.png,,,,,,,,,,,,1,2,,,,,,,8,5,7,5,,,,,,,,,,,2151.22,2151.719,2151.97,2159.568,space,7.582,,2159.568,32,23,2160.567,2160.567,2160.574,,,,0,9,9,9,1,15,70,,,,,,,,
,,5e73746e686c0c2c978392e1,65af5647b940720aef4cd637,2024-01-23_07h02.45.368,bars,2023.2.3,Win32,59.95203837,657b66ea316d21385b68909f,,,,,,,,,,,2160.575,2161.567,,,2162.068,2162.317,,44,224,,,,,,,,,,,,,,,,bars/014.png,bars/mask001.png,,,,,,,,,,,,0,1,,,,,,,10,3,10,4,,,,,,,,,,,2161.567,2162.067,2162.317,2170.833,space,8.501,,2170.834,36,44,2171.831,2171.832,2171.842,,,,0,10,10,10,1,80,0,,,,,,,,
,,5e73746e686c0c2c978392e1,65af5647b940720aef4cd637,2024-01-23_07h02.45.368,bars,2023.2.3,Win32,59.95203837,657b66ea316d21385b68909f,,,,,,,,,,,2171.842,2172.831,,,2173.331,2173.581,,58,58,,,,,,,,,,,,,,,,bars/021.png,bars/mask006.png,,,,,,,,,,,,2,2,,,,,,,10,1,10,4,,,,,,,,,,,2172.831,2173.331,2173.581,2180.162,space,6.57,,2180.163,83,12,2181.163,2181.163,2181.17,,,,0,11,11,11,1,155,70,,,,,,,,
,,5e73746e686c0c2c978392e1,65af5647b940720aef4cd637,2024-01-23_07h02.45.368,bars,2023.2.3,Win32,59.95203837,657b66ea316d21385b68909f,,,,,,,,,,,2181.17,2182.162,,,2182.662,2182.912,,60,60,,,,,,,,,,,,,,,,bars/006.png,bars/mask001.png,,,,,,,,,,,,2,1,,,,,,,10,3,10,3,,,,,,,,,,,2182.162,2182.662,2182.912,2188.293,space,5.366,,2188.294,25,40,2189.294,2189.294,2189.3,,,,0,12,12,12,1,35,100,,,,,,,,
,,5e73746e686c0c2c978392e1,65af5647b940720aef4cd637,2024-01-23_07h02.45.368,bars,2023.2.3,Win32,59.95203837,657b66ea316d21385b68909f,,,,,,,,,,,2189.301,2190.293,,,2190.793,2191.043,,57,57,,,,,,,,,,,,,,,,bars/025.png,bars/mask001.png,,,,,,,,,,,,1,2,,,,,,,8,5,6,3,,,,,,,,,,,2190.293,2190.793,2191.043,2199.392,space,8.333,,2199.393,48,17,2200.391,2200.391,2200.4,,,,0,13,13,13,1,105,40,,,,,,,,
,,5e73746e686c0c2c978392e1,65af5647b940720aef4cd637,2024-01-23_07h02.45.368,bars,2023.2.3,Win32,59.95203837,657b66ea316d21385b68909f,,,,,,,,,,,2200.4,2201.39,,,2201.89,2202.14,,56,236,,,,,,,,,,,,,,,,bars/042.png,bars/mask009.png,,,,,,,,,,,,3,2,,,,,,,10,7,10,8,,,,,,,,,,,2201.39,2201.89,2202.14,2209.005,space,6.851,,2209.006,89,19,2210.005,2210.005,2210.011,,,,0,14,14,14,1,145,75,,,,,,,,
,,5e73746e686c0c2c978392e1,65af5647b940720aef4cd637,2024-01-23_07h02.45.368,bars,2023.2.3,Win32,59.95203837,657b66ea316d21385b68909f,,,,,,,,,,,2210.012,2211.004,,,2211.504,2211.755,,54,234,,,,,,,,,,,,,,,,bars/024.png,bars/mask005.png,,,,,,,,,,,,0,2,,,,,,,8,5,7,4,,,,,,,,,,,2211.004,2211.504,2211.755,2220.436,space,8.666,,2220.436,66,64,2221.435,2221.436,2221.44,,,,0,15,15,15,1,120,170,,,,,,,,
,,5e73746e686c0c2c978392e1,65af5647b940720aef4cd637,2024-01-23_07h02.45.368,bars,2023.2.3,Win32,59.95203837,657b66ea316d21385b68909f,,,,,,,,,,,2221.441,2222.435,,,2222.934,2223.185,,100,100,,,,,,,,,,,,,,,,bars/013.png,bars/mask008.png,,,,,,,,,,,,1,1,,,,,,,6,3,5,5,,,,,,,,,,,2222.435,2222.934,2223.185,2229.033,space,5.834,,2229.033,25,90,2230.033,2230.033,2230.038,,,,0,16,16,16,1,75,10,,,,,,,,
,,5e73746e686c0c2c978392e1,65af5647b940720aef4cd637,2024-01-23_07h02.45.368,bars,2023.2.3,Win32,59.95203837,657b66ea316d21385b68909f,,,,,,,,,,,2230.039,2231.035,,,2231.533,2231.782,,121,121,,,,,,,,,,,,,,,,bars/015.png,bars/mask001.png,,,,,,,,,,,,5,1,,,,,,,8,5,8,5,,,,,,,,,,,2231.036,2231.533,2231.782,2238.849,space,7.049,,2238.849,11,39,2239.847,2239.847,2239.852,,,,0,17,17,17,1,110,160,,,,,,,,
,,5e73746e686c0c2c978392e1,65af5647b940720aef4cd637,2024-01-23_07h02.45.368,bars,2023.2.3,Win32,59.95203837,657b66ea316d21385b68909f,,,,,,,,,,,2239.853,2240.846,,,2241.347,2241.597,,139,139,,,,,,,,,,,,,,,,bars/042.png,bars/mask006.png,,,,,,,,,,,,6,1,,,,,,,6,3,7,3,,,,,,,,,,,2240.846,2241.347,2241.597,2249.927,space,8.316,,2249.928,6,64,2250.927,2250.927,2250.931,,,,0,18,18,18,1,145,75,,,,,,,,
,,5e73746e686c0c2c978392e1,65af5647b940720aef4cd637,2024-01-23_07h02.45.368,bars,2023.2.3,Win32,59.95203837,657b66ea316d21385b68909f,,,,,,,,,,,2250.932,2251.927,,,2252.427,2252.676,,132,132,,,,,,,,,,,,,,,,bars/016.png,bars/mask009.png,,,,,,,,,,,,0,2,,,,,,,8,1,9,1,,,,,,,,,,,2251.927,2252.427,2252.677,2259.259,space,6.568,,2259.259,88,33,2260.258,2260.258,2260.265,,,,0,19,19,19,1,40,165,,,,,,,,
,,5e73746e686c0c2c978392e1,65af5647b940720aef4cd637,2024-01-23_07h02.45.368,bars,2023.2.3,Win32,59.95203837,657b66ea316d21385b68909f,,,,,,,,,,,2260.266,2261.258,,,2261.757,2262.007,,160,160,,,,,,,,,,,,,,,,bars/043.png,bars/mask004.png,,,,,,,,,,,,0,2,,,,,,,10,0,10,0,,,,,,,,,,,2261.258,2261.757,2262.007,2269.074,space,7.052,,2269.075,50,30,2270.072,2270.072,2270.08,,,,0,20,20,20,1,30,130,,,,,,,,
,,5e73746e686c0c2c978392e1,65af5647b940720aef4cd637,2024-01-23_07h02.45.368,bars,2023.2.3,Win32,59.95203837,657b66ea316d21385b68909f,,,,,,,,,,,2270.08,2271.072,,,2271.572,2271.822,,31,31,,,,,,,,,,,,,,,,bars/043.png,bars/mask002.png,,,,,,,,,,,,6,1,,,,,,,8,0,6,0,,,,,,,,,,,2271.072,2271.572,2271.822,2279.153,space,7.319,,2279.153,1,81,2280.153,2280.153,2280.16,,,,0,21,21,21,1,30,130,,,,,,,,
,,5e73746e686c0c2c978392e1,65af5647b940720aef4cd637,2024-01-23_07h02.45.368,bars,2023.2.3,Win32,59.95203837,657b66ea316d21385b68909f,,,,,,,,,,,2280.16,2281.152,,,2281.654,2281.902,,28,28,,,,,,,,,,,,,,,,bars/045.png,bars/mask004.png,,,,,,,,,,,,0,2,,,,,,,6,0,7,0,,,,,,,,,,,2281.152,2281.653,2281.902,2288.784,space,6.866,,2288.784,72,18,2289.784,2289.784,2289.792,,,,0,22,22,22,1,100,10,,,,,,,,
,,5e73746e686c0c2c978392e1,65af5647b940720aef4cd637,2024-01-23_07h02.45.368,bars,2023.2.3,Win32,59.95203837,657b66ea316d21385b68909f,,,,,,,,,,,2289.792,2290.784,,,2291.283,2291.533,,59,59,,,,,,,,,,,,,,,,bars/021.png,bars/mask001.png,,,,,,,,,,,,1,2,,,,,,,4,2,2,1,,,,,,,,,,,2290.784,2291.283,2291.533,2297.2,space,5.652,,2297.202,84,11,2298.198,2298.198,2298.205,,,,0,23,23,23,1,155,70,,,,,,,,
,,5e73746e686c0c2c978392e1,65af5647b940720aef4cd637,2024-01-23_07h02.45.368,bars,2023.2.3,Win32,59.95203837,657b66ea316d21385b68909f,,,,,,,,,,,2298.205,2299.198,,,2299.699,2299.947,,118,118,,,,,,,,,,,,,,,,bars/018.png,bars/mask008.png,,,,,,,,,,,,0,2,,,,,,,2,4,0,4,,,,,,,,,,,2299.198,2299.699,2299.947,2307.579,space,7.618,,2307.58,32,28,2308.579,2308.579,2308.584,,,,0,24,24,24,1,150,90,,,,,,,,
,,5e73746e686c0c2c978392e1,65af5647b940720aef4cd637,2024-01-23_07h02.45.368,bars,2023.2.3,Win32,59.95203837,657b66ea316d21385b68909f,,,,,,,,,,,2308.585,2309.579,,,2310.078,2310.328,,132,132,,,,,,,,,,,,,,,,bars/048.png,bars/mask004.png,,,,,,,,,,,,0,2,,,,,,,0,6,0,6,,,,,,,,,,,2309.579,2310.078,2310.328,2319.244,space,8.899,,2319.244,82,43,2320.242,2320.242,2320.247,,,,0,25,25,25,1,50,175,,,,,,,,
,,5e73746e686c0c2c978392e1,65af5647b940720aef4cd637,2024-01-23_07h02.45.368,bars,2023.2.3,Win32,59.95203837,657b66ea316d21385b68909f,,,,,,,,,,,2320.248,2321.242,,,2321.744,2321.991,,43,43,,,,,,,,,,,,,,,,bars/000.png,bars/mask006.png,,,,,,,,,,,,3,1,,,,,,,2,8,3,8,,,,,,,,,,,2321.242,2321.743,2321.992,2329.623,space,7.616,,2329.623,3,78,2330.626,2330.626,2330.635,,,,0,26,26,26,1,40,145,,,,,,,,
,,5e73746e686c0c2c978392e1,65af5647b940720aef4cd637,2024-01-23_07h02.45.368,bars,2023.2.3,Win32,59.95203837,657b66ea316d21385b68909f,,,,,,,,,,,2330.636,2331.639,,,2332.14,2332.389,,27,27,,,,,,,,,,,,,,,,bars/011.png,bars/mask001.png,,,,,,,,,,,,0,1,,,,,,,0,6,0,6,,,,,,,,,,,2331.639,2332.14,2332.389,2342.072,space,9.664,,2342.072,47,58,2343.07,2343.07,2343.075,,,,0,27,27,27,1,160,85,,,,,,,,
,,5e73746e686c0c2c978392e1,65af5647b940720aef4cd637,2024-01-23_07h02.45.368,bars,2023.2.3,Win32,59.95203837,657b66ea316d21385b68909f,,,,,,,,,,,2343.076,2344.077,,,2344.569,2344.819,,160,160,,,,,,,,,,,,,,,,bars/042.png,bars/mask005.png,,,,,,,,,,,,0,1,,,,,,,0,8,0,8,,,,,,,,,,,2344.077,2344.569,2344.819,2352.901,space,8.066,,2352.901,15,85,2353.9,2353.901,2353.905,,,,0,28,28,28,1,145,75,,,,,,,,
,,5e73746e686c0c2c978392e1,65af5647b940720aef4cd637,2024-01-23_07h02.45.368,bars,2023.2.3,Win32,59.95203837,657b66ea316d21385b68909f,,,,,,,,,,,2353.906,2354.9,,,2355.4,2355.65,,16,16,,,,,,,,,,,,,,,,bars/018.png,bars/mask008.png,,,,,,,,,,,,0,1,,,,,,,2,6,2,7,,,,,,,,,,,2354.9,2355.4,2355.65,2363.716,space,8.051,,2363.717,46,74,2364.714,2364.714,2364.721,,,,0,29,29,29,1,150,90,,,,,,,,
,,5e73746e686c0c2c978392e1,65af5647b940720aef4cd637,2024-01-23_07h02.45.368,bars,2023.2.3,Win32,59.95203837,657b66ea316d21385b68909f,,,,,,,,,,,2364.722,2365.713,,,2366.214,2366.464,,166,166,,,,,,,,,,,,,,,,bars/023.png,bars/mask002.png,,,,,,,,,,,,0,1,,,,,,,0,8,0,10,,,,,,,,,,,2365.713,2366.213,2366.464,2375.728,space,9.248,,2375.729,34,51,2376.727,2376.727,2376.733,,,,0,30,30,30,1,20,115,,,,,,,,
,,5e73746e686c0c2c978392e1,65af5647b940720aef4cd637,2024-01-23_07h02.45.368,bars,2023.2.3,Win32,59.95203837,657b66ea316d21385b68909f,,,,,,,,,,,2376.734,2377.728,,,2378.227,2378.477,,46,46,,,,,,,,,,,,,,,,bars/045.png,bars/mask005.png,,,,,,,,,,,,0,2,,,,,,,0,6,0,6,,,,,,,,,,,2377.728,2378.227,2378.477,2383.443,space,4.95,,2383.443,54,36,2384.442,2384.442,2384.45,,,,0,31,31,31,1,100,10,,,,,,,,
,,5e73746e686c0c2c978392e1,65af5647b940720aef4cd637,2024-01-23_07h02.45.368,bars,2023.2.3,Win32,59.95203837,657b66ea316d21385b68909f,,,,,,,,,,,2384.45,2385.442,,,2385.942,2386.191,,62,62,,,,,,,,,,,,,,,,bars/033.png,bars/mask008.png,,,,,,,,,,,,0,1,,,,,,,2,8,3,7,,,,,,,,,,,2385.442,2385.942,2386.191,2390.141,space,3.933,,2390.142,37,87,2391.141,2391.141,2391.151,,,,0,32,32,32,1,25,155,,,,,,,,
,,5e73746e686c0c2c978392e1,65af5647b940720aef4cd637,2024-01-23_07h02.45.368,bars,2023.2.3,Win32,59.95203837,657b66ea316d21385b68909f,,,,,,,,,,,2391.151,2392.14,,,2392.641,2392.89,,18,18,,,,,,,,,,,,,,,,bars/017.png,bars/mask003.png,,,,,,,,,,,,1,2,,,,,,,4,10,2,10,,,,,,,,,,,2392.14,2392.641,2392.89,2396.189,space,3.284,,2396.189,53,27,2397.192,2397.193,2397.201,,,,0,33,33,33,1,145,45,,,,,,,,
,,5e73746e686c0c2c978392e1,65af5647b940720aef4cd637,2024-01-23_07h02.45.368,bars,2023.2.3,Win32,59.95203837,657b66ea316d21385b68909f,,,,,,,,,,,2397.201,2398.205,,,2398.707,2398.955,,26,26,,,,,,,,,,,,,,,,bars/014.png,bars/mask000.png,,,,,,,,,,,,1,2,,,,,,,6,10,7,8,,,,,,,,,,,2398.205,2398.706,2398.955,2406.122,space,7.15,,2406.122,54,26,2407.119,2407.119,2407.125,,,,0,34,34,34,1,80,0,,,,,,,,
,,5e73746e686c0c2c978392e1,65af5647b940720aef4cd637,2024-01-23_07h02.45.368,bars,2023.2.3,Win32,59.95203837,657b66ea316d21385b68909f,,,,,,,,,,,2407.126,2408.119,,,2408.62,2408.869,,18,18,,,,,,,,,,,,,,,,bars/046.png,bars/mask005.png,,,,,,,,,,,,0,1,,,,,,,8,8,9,9,,,,,,,,,,,2408.119,2408.62,2408.869,2413.834,space,4.95,,2413.835,43,67,2414.834,2414.834,2414.844,,,,0,35,35,35,1,155,85,,,,,,,,
,,5e73746e686c0c2c978392e1,65af5647b940720aef4cd637,2024-01-23_07h02.45.368,bars,2023.2.3,Win32,59.95203837,657b66ea316d21385b68909f,,,,,,,,,,,2414.844,2415.834,,,2416.334,2416.584,,64,64,,,,,,,,,,,,,,,,bars/027.png,bars/mask001.png,,,,,,,,,,,,5,2,,,,,,,6,10,7,10,,,,,,,,,,,2415.834,2416.334,2416.584,2421.516,space,4.918,,2421.516,46,14,2422.515,2422.515,2422.523,,,,0,36,36,36,1,110,50,,,,,,,,
,,5e73746e686c0c2c978392e1,65af5647b940720aef4cd637,2024-01-23_07h02.45.368,bars,2023.2.3,Win32,59.95203837,657b66ea316d21385b68909f,,,,,,,,,,,2422.523,2423.515,,,2424.015,2424.265,,58,58,,,,,,,,,,,,,,,,bars/001.png,bars/mask004.png,,,,,,,,,,,,1,2,,,,,,,8,8,9,8,,,,,,,,,,,2423.515,2424.015,2424.265,2432.731,space,8.45,,2432.732,72,27,2433.729,2433.729,2433.736,,,,0,37,37,37,1,130,85,,,,,,,,
,,5e73746e686c0c2c978392e1,65af5647b940720aef4cd637,2024-01-23_07h02.45.368,bars,2023.2.3,Win32,59.95203837,657b66ea316d21385b68909f,,,,,,,,,,,2433.736,2434.729,,,2435.229,2435.479,,97,97,,,,,,,,,,,,,,,,bars/006.png,bars/mask007.png,,,,,,,,,,,,9,2,,,,,,,10,10,10,10,,,,,,,,,,,2434.729,2435.229,2435.479,2441.811,space,6.317,,2441.812,62,3,2442.81,2442.81,2442.815,,,,0,38,38,38,1,35,100,,,,,,,,
,,5e73746e686c0c2c978392e1,65af5647b940720aef4cd637,2024-01-23_07h02.45.368,bars,2023.2.3,Win32,59.95203837,657b66ea316d21385b68909f,,,,,,,,,,,2442.816,2443.811,,,2444.31,2444.56,,107,107,,,,,,,,,,,,,,,,bars/002.png,bars/mask005.png,,,,,,,,,,,,3,2,,,,,,,10,10,10,10,,,,,,,,,,,2443.811,2444.31,2444.56,2453.091,space,8.517,,2453.091,23,22,2454.091,2454.091,2454.094,,,,0,39,39,39,1,130,85,,,,,,,,
,,5e73746e686c0c2c978392e1,65af5647b940720aef4cd637,2024-01-23_07h02.45.368,bars,2023.2.3,Win32,59.95203837,657b66ea316d21385b68909f,,,,,,,,,,,2454.096,2455.091,,,2455.59,2455.84,,140,140,,,,,,,,,,,,,,,,bars/020.png,bars/mask000.png,,,,,,,,,,,,1,1,,,,,,,8,8,7,7,,,,,,,,,,,2455.091,2455.59,2455.84,2461.041,space,5.189,,2461.041,25,30,2462.039,2462.039,2462.044,,,,0,40,40,40,1,115,170,,,,,,,,
,,5e73746e686c0c2c978392e1,65af5647b940720aef4cd637,2024-01-23_07h02.45.368,bars,2023.2.3,Win32,59.95203837,657b66ea316d21385b68909f,,,,,,,,,,,2462.046,2463.04,,,2463.539,2463.788,,4,4,,,,,,,,,,,,,,,,bars/037.png,bars/mask007.png,,,,,,,,,,,,0,1,,,,,,,10,6,10,5,,,,,,,,,,,2463.041,2463.538,2463.788,2471.537,space,7.733,,2471.538,34,79,2472.536,2472.536,2472.542,,,,0,41,41,41,1,150,105,,,,,,,,
,,5e73746e686c0c2c978392e1,65af5647b940720aef4cd637,2024-01-23_07h02.45.368,bars,2023.2.3,Win32,59.95203837,657b66ea316d21385b68909f,,,,,,,,,,,2472.542,2473.536,,,2474.035,2474.285,,64,64,,,,,,,,,,,,,,,,bars/039.png,bars/mask002.png,,,,,,,,,,,,0,2,,,,,,,8,8,7,7,,,,,,,,,,,2473.536,2474.035,2474.285,2480.884,space,6.585,,2480.884,69,41,2481.874,2481.874,2481.879,,,,0,42,42,42,1,175,105,,,,,,,,
,,5e73746e686c0c2c978392e1,65af5647b940720aef4cd637,2024-01-23_07h02.45.368,bars,2023.2.3,Win32,59.95203837,657b66ea316d21385b68909f,,,,,,,,,,,2481.879,2482.883,,,2483.383,2483.633,,26,26,,,,,,,,,,,,,,,,bars/035.png,bars/mask005.png,,,,,,,,,,,,0,1,,,,,,,6,6,4,5,,,,,,,,,,,2482.883,2483.383,2483.633,2491.914,space,8.268,,2491.914,31,34,2492.913,2492.913,2492.922,,,,0,43,43,43,1,175,60,,,,,,,,
,,5e73746e686c0c2c978392e1,65af5647b940720aef4cd637,2024-01-23_07h02.45.368,bars,2023.2.3,Win32,59.95203837,657b66ea316d21385b68909f,,,,,,,,,,,2492.922,2493.914,,,2494.414,2494.663,,157,157,,,,,,,,,,,,,,,,bars/009.png,bars/mask003.png,,,,,,,,,,,,0,1,,,,,,,8,4,7,4,,,,,,,,,,,2493.914,2494.414,2494.663,2503.613,space,8.933,,2503.614,38,52,2504.61,2504.611,2504.618,,,,0,44,44,44,1,15,105,,,,,,,,
,,5e73746e686c0c2c978392e1,65af5647b940720aef4cd637,2024-01-23_07h02.45.368,bars,2023.2.3,Win32,59.95203837,657b66ea316d21385b68909f,,,,,,,,,,,2504.619,2505.61,,,2506.111,2506.36,,58,58,,,,,,,,,,,,,,,,bars/016.png,bars/mask002.png,,,,,,,,,,,,4,1,,,,,,,10,6,10,6,,,,,,,,,,,2505.61,2506.111,2506.361,2511.443,space,5.066,,2511.444,18,73,2512.442,2512.442,2512.446,,,,0,45,45,45,1,40,165,,,,,,,,
,,5e73746e686c0c2c978392e1,65af5647b940720aef4cd637,2024-01-23_07h02.45.368,bars,2023.2.3,Win32,59.95203837,657b66ea316d21385b68909f,,,,,,,,,,,2512.448,2513.442,,,2513.942,2514.191,,46,46,,,,,,,,,,,,,,,,bars/014.png,bars/mask001.png,,,,,,,,,,,,0,1,,,,,,,8,4,7,5,,,,,,,,,,,2513.442,2513.942,2514.191,2519.107,space,4.901,,2519.107,34,46,2520.107,2520.107,2520.111,,,,0,46,46,46,1,80,0,,,,,,,,
,,5e73746e686c0c2c978392e1,65af5647b940720aef4cd637,2024-01-23_07h02.45.368,bars,2023.2.3,Win32,59.95203837,657b66ea316d21385b68909f,,,,,,,,,,,2520.112,2521.106,,,2521.607,2521.856,,24,24,,,,,,,,,,,,,,,,bars/015.png,bars/mask008.png,,,,,,,,,,,,0,2,,,,,,,10,6,10,5,,,,,,,,,,,2521.107,2521.606,2521.856,2526.538,space,4.668,,2526.539,86,44,2527.541,2527.541,2527.547,,,,0,47,47,47,1,110,160,,,,,,,,
,,5e73746e686c0c2c978392e1,65af5647b940720aef4cd637,2024-01-23_07h02.45.368,bars,2023.2.3,Win32,59.95203837,657b66ea316d21385b68909f,,,,,,,,,,,2527.548,2528.537,,,2529.038,2529.281,,104,104,,,,,,,,,,,,,,,,bars/037.png,bars/mask009.png,,,,,,,,,,,,8,2,,,,,,,8,8,7,8,,,,,,,,,,,2528.537,2529.038,2529.282,2534.287,space,4.988,,2534.288,46,1,2535.286,2535.286,2535.293,,,,0,48,48,48,1,150,105,,,,,,,,
,,5e73746e686c0c2c978392e1,65af5647b940720aef4cd637,2024-01-23_07h02.45.368,bars,2023.2.3,Win32,59.95203837,657b66ea316d21385b68909f,,,,,,,,,,,2535.294,2536.285,,,2536.786,2537.037,,115,115,,,,,,,,,,,,,,,,bars/044.png,bars/mask009.png,,,,,,,,,,,,0,2,,,,,,,6,10,7,10,,,,,,,,,,,2536.285,2536.785,2537.037,2541.185,space,4.137,,2541.186,40,40,2542.184,2542.185,2542.189,,,,0,49,49,49,1,75,155,,,,,,,,
,,5e73746e686c0c2c978392e1,65af5647b940720aef4cd637,2024-01-23_07h02.45.368,bars,2023.2.3,Win32,59.95203837,657b66ea316d21385b68909f,,,,,,,,,,,,,,,,,,,,,,,,,,,,,,,,,,,,,,,,,,,,,,,,,,,,,,,,,,,,,,,,,,,,,,,,,,,,,,,,,,,,,,,,,,,,,2542.189,2602.187,0,1,1,0,1,sequence_tables/blk009.csv
,,5e73746e686c0c2c978392e1,65af5647b940720aef4cd637,2024-01-23_07h02.45.368,bars,2023.2.3,Win32,59.95203837,657b66ea316d21385b68909f,,,,,,,,,,,2698.024,2699.027,,,2699.526,2699.776,,112,112,,,,,,,,,,,,,,,,bars/018.png,bars/mask009.png,,,,,,,,,,,,0,2,,,,,,,8,1,8,0,,,,,,2602.192,2698.013,space,95.807,,2699.027,2699.526,2699.776,2710.291,space,10.5,,2710.291,38,22,2711.29,2711.29,2711.296,,,,0,0,0,0,1,150,90,,,,,,,,
,,5e73746e686c0c2c978392e1,65af5647b940720aef4cd637,2024-01-23_07h02.45.368,bars,2023.2.3,Win32,59.95203837,657b66ea316d21385b68909f,,,,,,,,,,,2711.296,2712.289,,,2712.79,2713.04,,123,123,,,,,,,,,,,,,,,,bars/014.png,bars/mask008.png,,,,,,,,,,,,0,1,,,,,,,6,3,5,3,,,,,,,,,,,2712.289,2712.789,2713.04,2717.605,space,4.554,,2717.606,43,57,2718.605,2718.605,2718.614,,,,0,1,1,1,1,80,0,,,,,,,,
,,5e73746e686c0c2c978392e1,65af5647b940720aef4cd637,2024-01-23_07h02.45.368,bars,2023.2.3,Win32,59.95203837,657b66ea316d21385b68909f,,,,,,,,,,,2718.614,2719.604,,,2720.104,2720.354,,168,168,,,,,,,,,,,,,,,,bars/007.png,bars/mask003.png,,,,,,,,,,,,4,1,,,,,,,4,5,5,6,,,,,,,,,,,2719.604,2720.104,2720.354,2724.62,space,4.254,,2724.62,7,67,2725.619,2725.619,2725.623,,,,0,2,2,2,1,175,55,,,,,,,,
,,5e73746e686c0c2c978392e1,65af5647b940720aef4cd637,2024-01-23_07h02.45.368,bars,2023.2.3,Win32,59.95203837,657b66ea316d21385b68909f,,,,,,,,,,,2725.624,2726.619,,,2727.119,2727.369,,174,174,,,,,,,,,,,,,,,,bars/007.png,bars/mask008.png,,,,,,,,,,,,6,1,,,,,,,6,3,6,2,,,,,,,,,,,2726.619,2727.119,2727.369,2733.902,space,6.517,,2733.903,1,61,2734.901,2734.901,2734.906,,,,0,3,3,3,1,175,55,,,,,,,,
,,5e73746e686c0c2c978392e1,65af5647b940720aef4cd637,2024-01-23_07h02.45.368,bars,2023.2.3,Win32,59.95203837,657b66ea316d21385b68909f,,,,,,,,,,,2734.908,2735.901,,,2736.4,2736.65,,20,20,,,,,,,,,,,,,,,,bars/014.png,bars/mask003.png,,,,,,,,,,,,0,2,,,,,,,8,1,6,0,,,,,,,,,,,2735.901,2736.4,2736.65,2752.846,space,16.18,,2752.847,60,20,2753.845,2753.845,2753.853,,,,0,4,4,4,1,80,0,,,,,,,,
,,5e73746e686c0c2c978392e1,65af5647b940720aef4cd637,2024-01-23_07h02.45.368,bars,2023.2.3,Win32,59.95203837,657b66ea316d21385b68909f,,,,,,,,,,,2753.853,2754.845,,,2755.346,2755.595,,50,50,,,,,,,,,,,,,,,,bars/027.png,bars/mask000.png,,,,,,,,,,,,3,2,,,,,,,10,3,10,3,,,,,,,,,,,2754.845,2755.346,2755.595,2759.979,space,4.371,,2759.979,60,0,2760.977,2760.977,2760.981,,,,0,5,5,5,1,110,50,,,,,,,,
,,5e73746e686c0c2c978392e1,65af5647b940720aef4cd637,2024-01-23_07h02.45.368,bars,2023.2.3,Win32,59.95203837,657b66ea316d21385b68909f,,,,,,,,,,,2760.982,2761.979,,,2762.477,2762.727,,42,42,,,,,,,,,,,,,,,,bars/032.png,bars/mask005.png,,,,,,,,,,,,0,2,,,,,,,8,1,8,0,,,,,,,,,,,2761.98,2762.477,2762.727,2767.61,space,4.867,,2767.61,83,22,2768.608,2768.608,2768.614,,,,0,6,6,6,1,125,20,,,,,,,,
,,5e73746e686c0c2c978392e1,65af5647b940720aef4cd637,2024-01-23_07h02.45.368,bars,2023.2.3,Win32,59.95203837,657b66ea316d21385b68909f,,,,,,,,,,,2768.614,2769.608,,,2770.107,2770.358,,70,70,,,,,,,,,,,,,,,,bars/015.png,bars/mask005.png,,,,,,,,,,,,0,1,,,,,,,6,0,6,0,,,,,,,,,,,2769.608,2770.107,2770.358,2775.057,space,4.685,,2775.057,40,90,2776.057,2776.057,2776.064,,,,0,7,7,7,1,110,160,,,,,,,,
,,5e73746e686c0c2c978392e1,65af5647b940720aef4cd637,2024-01-23_07h02.45.368,bars,2023.2.3,Win32,59.95203837,657b66ea316d21385b68909f,,,,,,,,,,,2776.064,2777.056,,,2777.556,2777.805,,24,24,,,,,,,,,,,,,,,,bars/026.png,bars/mask008.png,,,,,,,,,,,,4,1,,,,,,,4,0,6,0,,,,,,,,,,,2777.056,2777.556,2777.806,2782.305,space,4.485,,2782.305,11,61,2783.305,2783.305,2783.307,,,,0,8,8,8,1,35,85,,,,,,,,
,,5e73746e686c0c2c978392e1,65af5647b940720aef4cd637,2024-01-23_07h02.45.368,bars,2023.2.3,Win32,59.95203837,657b66ea316d21385b68909f,,,,,,,,,,,2783.308,2784.304,,,2784.804,2785.054,,15,15,,,,,,,,,,,,,,,,bars/041.png,bars/mask005.png,,,,,,,,,,,,5,1,,,,,,,6,0,6,0,,,,,,,,,,,2784.304,2784.804,2785.054,2792.985,space,7.918,,2792.985,5,70,2793.985,2793.985,2793.988,,,,0,9,9,9,1,20,85,,,,,,,,
,,5e73746e686c0c2c978392e1,65af5647b940720aef4cd637,2024-01-23_07h02.45.368,bars,2023.2.3,Win32,59.95203837,657b66ea316d21385b68909f,,,,,,,,,,,2793.99,2794.987,,,2795.486,2795.735,,22,22,,,,,,,,,,,,,,,,bars/038.png,bars/mask000.png,,,,,,,,,,,,0,1,,,,,,,8,2,8,3,,,,,,,,,,,2794.988,2795.485,2795.736,2800.934,space,5.182,,2800.934,37,48,2801.933,2801.933,2801.938,,,,0,10,10,10,1,165,70,,,,,,,,
,,5e73746e686c0c2c978392e1,65af5647b940720aef4cd637,2024-01-23_07h02.45.368,bars,2023.2.3,Win32,59.95203837,657b66ea316d21385b68909f,,,,,,,,,,,2801.94,2802.932,,,2803.432,2803.683,,0,0,,,,,,,,,,,,,,,,bars/024.png,bars/mask008.png,,,,,,,,,,,,0,2,,,,,,,6,0,7,0,,,,,,,,,,,2802.932,2803.432,2803.683,2810.481,space,6.784,,2810.481,60,10,2811.481,2811.481,2811.488,,,,0,11,11,11,1,120,170,,,,,,,,
,,5e73746e686c0c2c978392e1,65af5647b940720aef4cd637,2024-01-23_07h02.45.368,bars,2023.2.3,Win32,59.95203837,657b66ea316d21385b68909f,,,,,,,,,,,2811.488,2812.48,,,2812.982,2813.23,,101,101,,,,,,,,,,,,,,,,bars/021.png,bars/mask000.png,,,,,,,,,,,,0,2,,,,,,,4,2,5,2,,,,,,,,,,,2812.48,2812.982,2813.23,2818.914,space,5.667,,2818.914,54,31,2819.911,2819.911,2819.917,,,,0,12,12,12,1,155,70,,,,,,,,
,,5e73746e686c0c2c978392e1,65af5647b940720aef4cd637,2024-01-23_07h02.45.368,bars,2023.2.3,Win32,59.95203837,657b66ea316d21385b68909f,,,,,,,,,,,2819.917,2820.912,,,2821.411,2821.661,,73,73,,,,,,,,,,,,,,,,bars/002.png,bars/mask003.png,,,,,,,,,,,,0,2,,,,,,,6,0,7,0,,,,,,,,,,,2820.912,2821.411,2821.661,2826.56,space,4.887,,2826.56,57,12,2827.56,2827.56,2827.562,,,,0,13,13,13,1,130,85,,,,,,,,
,,5e73746e686c0c2c978392e1,65af5647b940720aef4cd637,2024-01-23_07h02.45.368,bars,2023.2.3,Win32,59.95203837,657b66ea316d21385b68909f,,,,,,,,,,,2827.563,2828.562,,,2829.06,2829.309,,126,126,,,,,,,,,,,,,,,,bars/041.png,bars/mask000.png,,,,,,,,,,,,0,2,,,,,,,8,2,7,2,,,,,,,,,,,2828.563,2829.06,2829.309,2833.725,space,4.399,,2833.725,74,41,2834.724,2834.724,2834.73,,,,0,14,14,14,1,20,85,,,,,,,,
,,5e73746e686c0c2c978392e1,65af5647b940720aef4cd637,2024-01-23_07h02.45.368,bars,2023.2.3,Win32,59.95203837,657b66ea316d21385b68909f,,,,,,,,,,,2834.731,2835.724,,,2836.224,2836.474,,105,105,,,,,,,,,,,,,,,,bars/002.png,bars/mask007.png,,,,,,,,,,,,2,2,,,,,,,10,4,10,6,,,,,,,,,,,2835.724,2836.224,2836.474,2840.073,space,3.584,,2840.074,25,20,2841.073,2841.073,2841.078,,,,0,15,15,15,1,130,85,,,,,,,,
,,5e73746e686c0c2c978392e1,65af5647b940720aef4cd637,2024-01-23_07h02.45.368,bars,2023.2.3,Win32,59.95203837,657b66ea316d21385b68909f,,,,,,,,,,,2841.078,2842.072,,,2842.572,2842.823,,97,97,,,,,,,,,,,,,,,,bars/038.png,bars/mask000.png,,,,,,,,,,,,0,2,,,,,,,10,2,10,2,,,,,,,,,,,2842.072,2842.572,2842.823,2856.386,space,13.551,,2856.386,68,27,2857.385,2857.385,2857.39,,,,0,16,16,16,1,165,70,,,,,,,,
,,5e73746e686c0c2c978392e1,65af5647b940720aef4cd637,2024-01-23_07h02.45.368,bars,2023.2.3,Win32,59.95203837,657b66ea316d21385b68909f,,,,,,,,,,,2857.391,2858.385,,,2858.885,2859.134,,150,-30,,,,,,,,,,,,,,,,bars/026.png,bars/mask009.png,,,,,,,,,,,,0,2,,,,,,,8,0,6,0,,,,,,,,,,,2858.385,2858.885,2859.134,2867.717,space,8.566,,2867.719,65,65,2868.715,2868.716,2868.723,,,,0,17,17,17,1,35,85,,,,,,,,
,,5e73746e686c0c2c978392e1,65af5647b940720aef4cd637,2024-01-23_07h02.45.368,bars,2023.2.3,Win32,59.95203837,657b66ea316d21385b68909f,,,,,,,,,,,2868.724,2869.715,,,2870.215,2870.471,,64,64,,,,,,,,,,,,,,,,bars/002.png,bars/mask008.png,,,,,,,,,,,,1,2,,,,,,,10,2,10,3,,,,,,,,,,,2869.715,2870.215,2870.471,2875.897,space,5.416,,2875.897,66,21,2876.896,2876.896,2876.901,,,,0,18,18,18,1,130,85,,,,,,,,
,,5e73746e686c0c2c978392e1,65af5647b940720aef4cd637,2024-01-23_07h02.45.368,bars,2023.2.3,Win32,59.95203837,657b66ea316d21385b68909f,,,,,,,,,,,2876.902,2877.896,,,2878.396,2878.646,,55,55,,,,,,,,,,,,,,,,bars/008.png,bars/mask008.png,,,,,,,,,,,,0,2,,,,,,,10,4,10,7,,,,,,,,,,,2877.896,2878.396,2878.646,2884.828,space,6.171,,2884.828,55,55,2885.828,2885.828,2885.832,,,,0,19,19,19,1,110,0,,,,,,,,
,,5e73746e686c0c2c978392e1,65af5647b940720aef4cd637,2024-01-23_07h02.45.368,bars,2023.2.3,Win32,59.95203837,657b66ea316d21385b68909f,,,,,,,,,,,2885.832,2886.827,,,2887.328,2887.577,,126,126,,,,,,,,,,,,,,,,bars/034.png,bars/mask007.png,,,,,,,,,,,,8,1,,,,,,,8,6,8,5,,,,,,,,,,,2886.827,2887.328,2887.577,2891.942,space,4.351,,2891.942,1,61,2892.942,2892.942,2892.949,,,,0,20,20,20,1,125,65,,,,,,,,
,,5e73746e686c0c2c978392e1,65af5647b940720aef4cd637,2024-01-23_07h02.45.368,bars,2023.2.3,Win32,59.95203837,657b66ea316d21385b68909f,,,,,,,,,,,2892.949,2893.943,,,2894.442,2894.694,,121,121,,,,,,,,,,,,,,,,bars/029.png,bars/mask006.png,,,,,,,,,,,,0,1,,,,,,,6,8,6,8,,,,,,,,,,,2893.943,2894.441,2894.695,2901.109,space,6.403,,2901.109,31,76,2902.107,2902.107,2902.113,,,,0,21,21,21,1,90,45,,,,,,,,
,,5e73746e686c0c2c978392e1,65af5647b940720aef4cd637,2024-01-23_07h02.45.368,bars,2023.2.3,Win32,59.95203837,657b66ea316d21385b68909f,,,,,,,,,,,2902.114,2903.106,,,2903.607,2903.856,,7,7,,,,,,,,,,,,,,,,bars/007.png,bars/mask005.png,,,,,,,,,,,,2,1,,,,,,,4,6,4,7,,,,,,,,,,,2903.106,2903.606,2903.856,2912.355,space,8.483,,2912.355,12,48,2913.353,2913.353,2913.359,,,,0,22,22,22,1,175,55,,,,,,,,
,,5e73746e686c0c2c978392e1,65af5647b940720aef4cd637,2024-01-23_07h02.45.368,bars,2023.2.3,Win32,59.95203837,657b66ea316d21385b68909f,,,,,,,,,,,2913.36,2914.353,,,2914.854,2915.103,,25,25,,,,,,,,,,,,,,,,bars/025.png,bars/mask002.png,,,,,,,,,,,,2,2,,,,,,,6,4,7,4,,,,,,,,,,,2914.353,2914.854,2915.103,2923.686,space,8.572,,2923.687,80,15,2924.684,2924.684,2924.692,,,,0,23,23,23,1,105,40,,,,,,,,
,,5e73746e686c0c2c978392e1,65af5647b940720aef4cd637,2024-01-23_07h02.45.368,bars,2023.2.3,Win32,59.95203837,657b66ea316d21385b68909f,,,,,,,,,,,2924.692,2925.684,,,2926.184,2926.434,,32,32,,,,,,,,,,,,,,,,bars/010.png,bars/mask009.png,,,,,,,,,,,,1,2,,,,,,,4,6,4,5,,,,,,,,,,,2925.684,2926.184,2926.434,2930.768,space,4.317,,2930.768,47,23,2931.766,2931.766,2931.773,,,,0,24,24,24,1,165,55,,,,,,,,
,,5e73746e686c0c2c978392e1,65af5647b940720aef4cd637,2024-01-23_07h02.45.368,bars,2023.2.3,Win32,59.95203837,657b66ea316d21385b68909f,,,,,,,,,,,2931.774,2932.765,,,2933.265,2933.515,,59,59,,,,,,,,,,,,,,,,bars/049.png,bars/mask008.png,,,,,,,,,,,,0,2,,,,,,,6,8,5,7,,,,,,,,,,,2932.765,2933.265,2933.515,2938.947,space,5.418,,2938.948,79,56,2939.947,2939.947,2939.952,,,,0,25,25,25,1,160,115,,,,,,,,
,,5e73746e686c0c2c978392e1,65af5647b940720aef4cd637,2024-01-23_07h02.45.368,bars,2023.2.3,Win32,59.95203837,657b66ea316d21385b68909f,,,,,,,,,,,2939.952,2940.947,,,2941.446,2941.696,,107,107,,,,,,,,,,,,,,,,bars/029.png,bars/mask003.png,,,,,,,,,,,,2,1,,,,,,,4,10,4,9,,,,,,,,,,,2940.947,2941.446,2941.696,2946.545,space,4.834,,2946.545,17,62,2947.545,2947.545,2947.552,,,,0,26,26,26,1,90,45,,,,,,,,
,,5e73746e686c0c2c978392e1,65af5647b940720aef4cd637,2024-01-23_07h02.45.368,bars,2023.2.3,Win32,59.95203837,657b66ea316d21385b68909f,,,,,,,,,,,2947.552,2948.544,,,2949.044,2949.294,,117,117,,,,,,,,,,,,,,,,bars/046.png,bars/mask007.png,,,,,,,,,,,,0,2,,,,,,,6,10,6,10,,,,,,,,,,,2948.545,2949.044,2949.294,2955.576,space,6.268,,2955.576,38,32,2956.575,2956.575,2956.582,,,,0,27,27,27,1,155,85,,,,,,,,
,,5e73746e686c0c2c978392e1,65af5647b940720aef4cd637,2024-01-23_07h02.45.368,bars,2023.2.3,Win32,59.95203837,657b66ea316d21385b68909f,,,,,,,,,,,2956.583,2957.575,,,2958.076,2958.325,,4,4,,,,,,,,,,,,,,,,bars/030.png,bars/mask001.png,,,,,,,,,,,,0,1,,,,,,,4,8,4,9,,,,,,,,,,,2957.576,2958.076,2958.325,2970.541,space,12.199,,2970.542,44,61,2971.538,2971.538,2971.549,,,,0,28,28,28,1,140,65,,,,,,,,
,,5e73746e686c0c2c978392e1,65af5647b940720aef4cd637,2024-01-23_07h02.45.368,bars,2023.2.3,Win32,59.95203837,657b66ea316d21385b68909f,,,,,,,,,,,2971.55,2972.538,,,2973.038,2973.288,,124,124,,,,,,,,,,,,,,,,bars/018.png,bars/mask003.png,,,,,,,,,,,,1,1,,,,,,,6,10,6,10,,,,,,,,,,,2972.538,2973.038,2973.288,2979.453,space,6.153,,2979.454,26,34,2980.453,2980.453,2980.458,,,,0,29,29,29,1,150,90,,,,,,,,
,,5e73746e686c0c2c978392e1,65af5647b940720aef4cd637,2024-01-23_07h02.45.368,bars,2023.2.3,Win32,59.95203837,657b66ea316d21385b68909f,,,,,,,,,,,2980.458,2981.452,,,2981.952,2982.202,,149,149,,,,,,,,,,,,,,,,bars/023.png,bars/mask006.png,,,,,,,,,,,,0,2,,,,,,,8,8,7,7,,,,,,,,,,,2981.452,2981.952,2982.202,2987.151,space,4.935,,2987.151,51,34,2988.151,2988.151,2988.159,,,,0,30,30,30,1,20,115,,,,,,,,
,,5e73746e686c0c2c978392e1,65af5647b940720aef4cd637,2024-01-23_07h02.45.368,bars,2023.2.3,Win32,59.95203837,657b66ea316d21385b68909f,,,,,,,,,,,2988.159,2989.15,,,2989.651,2989.9,,7,187,,,,,,,,,,,,,,,,bars/023.png,bars/mask006.png,,,,,,,,,,,,6,1,,,,,,,10,6,10,8,,,,,,,,,,,2989.15,2989.651,2989.9,2993.933,space,4.018,,2993.933,13,72,2994.935,2994.936,2994.944,,,,0,31,31,31,1,20,115,,,,,,,,
,,5e73746e686c0c2c978392e1,65af5647b940720aef4cd637,2024-01-23_07h02.45.368,bars,2023.2.3,Win32,59.95203837,657b66ea316d21385b68909f,,,,,,,,,,,2994.945,2995.949,,,2996.449,2996.698,,16,196,,,,,,,,,,,,,,,,bars/034.png,bars/mask002.png,,,,,,,,,,,,0,2,,,,,,,8,8,8,8,,,,,,,,,,,2995.949,2996.449,2996.699,3006.463,space,9.749,,3006.464,71,49,3007.462,3007.462,3007.47,,,,0,32,32,32,1,125,65,,,,,,,,
,,5e73746e686c0c2c978392e1,65af5647b940720aef4cd637,2024-01-23_07h02.45.368,bars,2023.2.3,Win32,59.95203837,657b66ea316d21385b68909f,,,,,,,,,,,3007.47,3008.462,,,3008.962,3009.212,,60,60,,,,,,,,,,,,,,,,bars/033.png,bars/mask008.png,,,,,,,,,,,,0,1,,,,,,,6,10,6,8,,,,,,,,,,,3008.462,3008.961,3009.212,3015.177,space,5.951,,3015.177,35,85,3016.177,3016.177,3016.185,,,,0,33,33,33,1,25,155,,,,,,,,
,,5e73746e686c0c2c978392e1,65af5647b940720aef4cd637,2024-01-23_07h02.45.368,bars,2023.2.3,Win32,59.95203837,657b66ea316d21385b68909f,,,,,,,,,,,3016.185,3017.176,,,3017.677,3017.927,,46,226,,,,,,,,,,,,,,,,bars/041.png,bars/mask007.png,,,,,,,,,,,,0,1,,,,,,,4,10,3,8,,,,,,,,,,,3017.176,3017.677,3017.927,3024.058,space,6.117,,3024.058,26,39,3025.058,3025.058,3025.062,,,,0,34,34,34,1,20,85,,,,,,,,
,,5e73746e686c0c2c978392e1,65af5647b940720aef4cd637,2024-01-23_07h02.45.368,bars,2023.2.3,Win32,59.95203837,657b66ea316d21385b68909f,,,,,,,,,,,3025.062,3026.058,,,3026.557,3026.808,,115,115,,,,,,,,,,,,,,,,bars/043.png,bars/mask004.png,,,,,,,,,,,,4,2,,,,,,,6,8,5,8,,,,,,,,,,,3026.058,3026.557,3026.808,3030.291,space,3.468,,3030.292,85,15,3031.289,3031.289,3031.298,,,,0,35,35,35,1,30,130,,,,,,,,
,,5e73746e686c0c2c978392e1,65af5647b940720aef4cd637,2024-01-23_07h02.45.368,bars,2023.2.3,Win32,59.95203837,657b66ea316d21385b68909f,,,,,,,,,,,3031.299,3032.291,,,3032.789,3033.039,,109,109,,,,,,,,,,,,,,,,bars/031.png,bars/mask006.png,,,,,,,,,,,,6,1,,,,,,,8,10,9,10,,,,,,,,,,,3032.291,3032.789,3033.039,3036.805,space,3.75,,3036.806,11,74,3037.804,3037.805,3037.812,,,,0,36,36,36,1,120,35,,,,,,,,
,,5e73746e686c0c2c978392e1,65af5647b940720aef4cd637,2024-01-23_07h02.45.368,bars,2023.2.3,Win32,59.95203837,657b66ea316d21385b68909f,,,,,,,,,,,3037.813,3038.804,,,3039.304,3039.554,,112,112,,,,,,,,,,,,,,,,bars/043.png,bars/mask009.png,,,,,,,,,,,,4,2,,,,,,,10,10,10,10,,,,,,,,,,,3038.804,3039.304,3039.554,3045.652,space,6.084,,3045.653,82,18,3046.652,3046.652,3046.659,,,,0,37,37,37,1,30,130,,,,,,,,
,,5e73746e686c0c2c978392e1,65af5647b940720aef4cd637,2024-01-23_07h02.45.368,bars,2023.2.3,Win32,59.95203837,657b66ea316d21385b68909f,,,,,,,,,,,3046.659,3047.652,,,3048.152,3048.401,,108,108,,,,,,,,,,,,,,,,bars/004.png,bars/mask005.png,,,,,,,,,,,,4,2,,,,,,,8,10,7,10,,,,,,,,,,,3047.652,3048.152,3048.401,3053.817,space,5.4,,3053.817,83,17,3054.817,3054.817,3054.821,,,,0,38,38,38,1,25,125,,,,,,,,
,,5e73746e686c0c2c978392e1,65af5647b940720aef4cd637,2024-01-23_07h02.45.368,bars,2023.2.3,Win32,59.95203837,657b66ea316d21385b68909f,,,,,,,,,,,3054.821,3055.816,,,3056.316,3056.566,,116,116,,,,,,,,,,,,,,,,bars/037.png,bars/mask007.png,,,,,,,,,,,,6,2,,,,,,,10,8,9,9,,,,,,,,,,,3055.816,3056.316,3056.566,3064.233,space,7.65,,3064.234,34,11,3065.23,3065.23,3065.237,,,,0,39,39,39,1,150,105,,,,,,,,
,,5e73746e686c0c2c978392e1,65af5647b940720aef4cd637,2024-01-23_07h02.45.368,bars,2023.2.3,Win32,59.95203837,657b66ea316d21385b68909f,,,,,,,,,,,3065.238,3066.23,,,3066.731,3066.98,,113,113,,,,,,,,,,,,,,,,bars/005.png,bars/mask005.png,,,,,,,,,,,,1,2,,,,,,,8,6,7,6,,,,,,,,,,,3066.23,3066.73,3066.98,3072.929,space,5.936,,3072.93,77,27,3073.928,3073.928,3073.934,,,,0,40,40,40,1,10,140,,,,,,,,
,,5e73746e686c0c2c978392e1,65af5647b940720aef4cd637,2024-01-23_07h02.45.368,bars,2023.2.3,Win32,59.95203837,657b66ea316d21385b68909f,,,,,,,,,,,3073.934,3074.928,,,3075.428,3075.678,,144,144,,,,,,,,,,,,,,,,bars/034.png,bars/mask001.png,,,,,,,,,,,,2,1,,,,,,,6,4,6,4,,,,,,,,,,,3074.928,3075.428,3075.678,3081.243,space,5.554,,3081.243,19,79,3082.242,3082.243,3082.25,,,,0,41,41,41,1,125,65,,,,,,,,
,,5e73746e686c0c2c978392e1,65af5647b940720aef4cd637,2024-01-23_07h02.45.368,bars,2023.2.3,Win32,59.95203837,657b66ea316d21385b68909f,,,,,,,,,,,3082.25,3083.242,,,3083.743,3083.992,,153,-27,,,,,,,,,,,,,,,,bars/011.png,bars/mask006.png,,,,,,,,,,,,2,1,,,,,,,4,2,3,3,,,,,,,,,,,3083.242,3083.742,3083.992,3090.124,space,6.117,,3090.124,7,68,3091.124,3091.124,3091.127,,,,0,42,42,42,1,160,85,,,,,,,,
,,5e73746e686c0c2c978392e1,65af5647b940720aef4cd637,2024-01-23_07h02.45.368,bars,2023.2.3,Win32,59.95203837,657b66ea316d21385b68909f,,,,,,,,,,,3091.128,3092.123,,,3092.624,3092.873,,151,151,,,,,,,,,,,,,,,,bars/041.png,bars/mask007.png,,,,,,,,,,,,0,1,,,,,,,6,0,6,0,,,,,,,,,,,3092.123,3092.623,3092.873,3097.407,space,4.518,,3097.408,49,66,3098.405,3098.405,3098.412,,,,0,43,43,43,1,20,85,,,,,,,,
,,5e73746e686c0c2c978392e1,65af5647b940720aef4cd637,2024-01-23_07h02.45.368,bars,2023.2.3,Win32,59.95203837,657b66ea316d21385b68909f,,,,,,,,,,,3098.412,3099.405,,,3099.905,3100.155,,10,190,,,,,,,,,,,,,,,,bars/005.png,bars/mask009.png,,,,,,,,,,,,2,1,,,,,,,4,2,2,2,,,,,,,,,,,3099.405,3099.905,3100.155,3105.304,space,5.135,,3105.305,0,50,3106.303,3106.303,3106.308,,,,0,44,44,44,1,10,140,,,,,,,,
,,5e73746e686c0c2c978392e1,65af5647b940720aef4cd637,2024-01-23_07h02.45.368,bars,2023.2.3,Win32,59.95203837,657b66ea316d21385b68909f,,,,,,,,,,,3106.309,3107.303,,,3107.803,3108.053,,29,209,,,,,,,,,,,,,,,,bars/020.png,bars/mask005.png,,,,,,,,,,,,0,2,,,,,,,2,0,1,1,,,,,,,,,,,3107.303,3107.803,3108.053,3112.252,space,4.184,,3112.252,86,39,3113.251,3113.251,3113.259,,,,0,45,45,45,1,115,170,,,,,,,,
,,5e73746e686c0c2c978392e1,65af5647b940720aef4cd637,2024-01-23_07h02.45.368,bars,2023.2.3,Win32,59.95203837,657b66ea316d21385b68909f,,,,,,,,,,,3113.259,3114.251,,,3114.751,3115.001,,72,72,,,,,,,,,,,,,,,,bars/014.png,bars/mask008.png,,,,,,,,,,,,0,1,,,,,,,0,2,0,2,,,,,,,,,,,3114.251,3114.751,3115.001,3121.049,space,6.037,,3121.049,8,72,3122.049,3122.049,3122.056,,,,0,46,46,46,1,80,0,,,,,,,,
,,5e73746e686c0c2c978392e1,65af5647b940720aef4cd637,2024-01-23_07h02.45.368,bars,2023.2.3,Win32,59.95203837,657b66ea316d21385b68909f,,,,,,,,,,,3122.056,3123.055,,,3123.548,3123.799,,120,120,,,,,,,,,,,,,,,,bars/046.png,bars/mask005.png,,,,,,,,,,,,0,2,,,,,,,2,4,3,4,,,,,,,,,,,3123.055,3123.548,3123.799,3127.347,space,3.534,,3127.347,35,35,3128.35,3128.351,3128.36,,,,0,47,47,47,1,155,85,,,,,,,,
,,5e73746e686c0c2c978392e1,65af5647b940720aef4cd637,2024-01-23_07h02.45.368,bars,2023.2.3,Win32,59.95203837,657b66ea316d21385b68909f,,,,,,,,,,,3128.36,3129.364,,,3129.865,3130.113,,7,7,,,,,,,,,,,,,,,,bars/014.png,bars/mask007.png,,,,,,,,,,,,3,2,,,,,,,4,2,4,4,,,,,,,,,,,3129.364,3129.864,3130.114,3134.813,space,4.684,,3134.814,73,7,3135.812,3135.812,3135.817,,,,0,48,48,48,1,80,0,,,,,,,,
,,5e73746e686c0c2c978392e1,65af5647b940720aef4cd637,2024-01-23_07h02.45.368,bars,2023.2.3,Win32,59.95203837,657b66ea316d21385b68909f,,,,,,,,,,,3135.818,3136.812,,,3137.313,3137.561,,14,194,,,,,,,,,,,,,,,,bars/008.png,bars/mask009.png,,,,,,,,,,,,2,2,,,,,,,6,4,7,3,,,,,,,,,,,3136.812,3137.313,3137.561,3144.344,space,6.766,,3144.344,84,14,3145.343,3145.343,3145.348,,,,0,49,49,49,1,110,0,,,,,,,,
,,5e73746e686c0c2c978392e1,65af5647b940720aef4cd637,2024-01-23_07h02.45.368,bars,2023.2.3,Win32,59.95203837,657b66ea316d21385b68909f,,,,,,,,,,,,,,,,,,,,,,,,,,,,,,,,,,,,,,,,,,,,,,,,,,,,,,,,,,,,,,,,,,,,,,,,,,,,,,,,,,,,,,,,,,,,,3145.348,3205.346,0,2,2,4,1,sequence_tables/blk025.csv
,,5e73746e686c0c2c978392e1,65af5647b940720aef4cd637,2024-01-23_07h02.45.368,bars,2023.2.3,Win32,59.95203837,657b66ea316d21385b68909f,,,,,,,,,,,3209.026,3210.03,,,3210.526,3210.775,,38,38,,,,,,,,,,,,,,,,bars/030.png,bars/mask007.png,,,,,,,,,,,,0,2,,,,,,,3,6,4,4,,,,,,3205.351,3209.012,space,3.648,,3210.03,3210.526,3210.775,3217.541,space,6.75,,3217.541,78,27,3218.541,3218.541,3218.546,,,,0,0,0,0,1,140,65,,,,,,,,
,,5e73746e686c0c2c978392e1,65af5647b940720aef4cd637,2024-01-23_07h02.45.368,bars,2023.2.3,Win32,59.95203837,657b66ea316d21385b68909f,,,,,,,,,,,3218.546,3219.54,,,3220.041,3220.29,,19,19,,,,,,,,,,,,,,,,bars/034.png,bars/mask005.png,,,,,,,,,,,,0,2,,,,,,,1,4,1,2,,,,,,,,,,,3219.54,3220.04,3220.29,3225.472,space,5.171,,3225.472,74,46,3226.471,3226.471,3226.475,,,,0,1,1,1,1,125,65,,,,,,,,
,,5e73746e686c0c2c978392e1,65af5647b940720aef4cd637,2024-01-23_07h02.45.368,bars,2023.2.3,Win32,59.95203837,657b66ea316d21385b68909f,,,,,,,,,,,3226.476,3227.474,,,3227.973,3228.222,,159,159,,,,,,,,,,,,,,,,bars/039.png,bars/mask003.png,,,,,,,,,,,,0,1,,,,,,,0,2,0,3,,,,,,,,,,,3227.474,3227.972,3228.222,3233.954,space,5.715,,3233.954,16,54,3234.953,3234.953,3234.963,,,,0,2,2,2,1,175,105,,,,,,,,
,,5e73746e686c0c2c978392e1,65af5647b940720aef4cd637,2024-01-23_07h02.45.368,bars,2023.2.3,Win32,59.95203837,657b66ea316d21385b68909f,,,,,,,,,,,3234.964,3235.953,,,3236.453,3236.702,,76,76,,,,,,,,,,,,,,,,bars/012.png,bars/mask001.png,,,,,,,,,,,,1,1,,,,,,,2,0,1,1,,,,,,,,,,,3235.953,3236.453,3236.702,3241.517,space,4.801,,3241.518,14,61,3242.517,3242.517,3242.521,,,,0,3,3,3,1,90,15,,,,,,,,
,,5e73746e686c0c2c978392e1,65af5647b940720aef4cd637,2024-01-23_07h02.45.368,bars,2023.2.3,Win32,59.95203837,657b66ea316d21385b68909f,,,,,,,,,,,3242.523,3243.517,,,3244.017,3244.267,,66,66,,,,,,,,,,,,,,,,bars/048.png,bars/mask001.png,,,,,,,,,,,,0,1,,,,,,,0,0,0,1,,,,,,,,,,,3243.517,3244.017,3244.267,3249.749,space,5.468,,3249.749,16,71,3250.749,3250.749,3250.753,,,,0,4,4,4,1,50,175,,,,,,,,
,,5e73746e686c0c2c978392e1,65af5647b940720aef4cd637,2024-01-23_07h02.45.368,bars,2023.2.3,Win32,59.95203837,657b66ea316d21385b68909f,,,,,,,,,,,3250.754,3251.75,,,3252.248,3252.498,,94,94,,,,,,,,,,,,,,,,bars/037.png,bars/mask005.png,,,,,,,,,,,,0,2,,,,,,,0,0,0,0,,,,,,,,,,,3251.751,3252.248,3252.498,3257.397,space,4.883,,3257.397,56,11,3258.397,3258.397,3258.403,,,,0,5,5,5,1,150,105,,,,,,,,
,,5e73746e686c0c2c978392e1,65af5647b940720aef4cd637,2024-01-23_07h02.45.368,bars,2023.2.3,Win32,59.95203837,657b66ea316d21385b68909f,,,,,,,,,,,3258.404,3259.397,,,3259.896,3260.146,,179,179,,,,,,,,,,,,,,,,bars/020.png,bars/mask007.png,,,,,,,,,,,,2,2,,,,,,,0,2,2,3,,,,,,,,,,,3259.397,3259.896,3260.146,3265.847,space,5.688,,3265.848,64,9,3266.845,3266.845,3266.851,,,,0,6,6,6,1,115,170,,,,,,,,
,,5e73746e686c0c2c978392e1,65af5647b940720aef4cd637,2024-01-23_07h02.45.368,bars,2023.2.3,Win32,59.95203837,657b66ea316d21385b68909f,,,,,,,,,,,3266.852,3267.845,,,3268.344,3268.594,,172,172,,,,,,,,,,,,,,,,bars/010.png,bars/mask006.png,,,,,,,,,,,,1,1,,,,,,,2,0,1,0,,,,,,,,,,,3267.845,3268.344,3268.594,3273.46,space,4.85,,3273.46,7,63,3274.459,3274.459,3274.466,,,,0,7,7,7,1,165,55,,,,,,,,
,,5e73746e686c0c2c978392e1,65af5647b940720aef4cd637,2024-01-23_07h02.45.368,bars,2023.2.3,Win32,59.95203837,657b66ea316d21385b68909f,,,,,,,,,,,3274.466,3275.459,,,3275.959,3276.208,,11,11,,,,,,,,,,,,,,,,bars/037.png,bars/mask000.png,,,,,,,,,,,,0,1,,,,,,,4,2,4,1,,,,,,,,,,,3275.46,3275.959,3276.209,3284.058,space,7.837,,3284.058,41,86,3285.056,3285.056,3285.062,,,,0,8,8,8,1,150,105,,,,,,,,
,,5e73746e686c0c2c978392e1,65af5647b940720aef4cd637,2024-01-23_07h02.45.368,bars,2023.2.3,Win32,59.95203837,657b66ea316d21385b68909f,,,,,,,,,,,3285.062,3286.056,,,3286.556,3286.806,,128,128,,,,,,,,,,,,,,,,bars/034.png,bars/mask003.png,,,,,,,,,,,,2,1,,,,,,,2,0,2,0,,,,,,,,,,,3286.056,3286.556,3286.806,3292.905,space,6.084,,3292.905,3,63,3293.904,3293.904,3293.907,,,,0,9,9,9,1,125,65,,,,,,,,
,,5e73746e686c0c2c978392e1,65af5647b940720aef4cd637,2024-01-23_07h02.45.368,bars,2023.2.3,Win32,59.95203837,657b66ea316d21385b68909f,,,,,,,,,,,3293.908,3294.907,,,3295.405,3295.653,,131,131,,,,,,,,,,,,,,,,bars/017.png,bars/mask008.png,,,,,,,,,,,,2,1,,,,,,,4,0,4,0,,,,,,,,,,,3294.907,3295.405,3295.653,3303.736,space,8.065,,3303.736,14,86,3304.734,3304.734,3304.741,,,,0,10,10,10,1,145,45,,,,,,,,
,,5e73746e686c0c2c978392e1,65af5647b940720aef4cd637,2024-01-23_07h02.45.368,bars,2023.2.3,Win32,59.95203837,657b66ea316d21385b68909f,,,,,,,,,,,3304.742,3305.734,,,3306.234,3306.484,,153,-27,,,,,,,,,,,,,,,,bars/027.png,bars/mask008.png,,,,,,,,,,,,0,1,,,,,,,6,0,6,0,,,,,,,,,,,3305.734,3306.234,3306.484,3312.501,space,6.004,,3312.501,43,77,3313.498,3313.499,3313.503,,,,0,11,11,11,1,110,50,,,,,,,,
,,5e73746e686c0c2c978392e1,65af5647b940720aef4cd637,2024-01-23_07h02.45.368,bars,2023.2.3,Win32,59.95203837,657b66ea316d21385b68909f,,,,,,,,,,,3313.505,3314.499,,,3314.999,3315.248,,142,142,,,,,,,,,,,,,,,,bars/017.png,bars/mask007.png,,,,,,,,,,,,5,1,,,,,,,4,0,5,1,,,,,,,,,,,3314.499,3314.999,3315.248,3321.364,space,6.099,,3321.364,3,83,3322.363,3322.363,3322.367,,,,0,12,12,12,1,145,45,,,,,,,,
,,5e73746e686c0c2c978392e1,65af5647b940720aef4cd637,2024-01-23_07h02.45.368,bars,2023.2.3,Win32,59.95203837,657b66ea316d21385b68909f,,,,,,,,,,,3322.368,3323.362,,,3323.863,3324.114,,118,118,,,,,,,,,,,,,,,,bars/048.png,bars/mask004.png,,,,,,,,,,,,0,2,,,,,,,6,0,6,0,,,,,,,,,,,3323.363,3323.863,3324.114,3336.546,space,12.417,,3336.547,68,57,3337.543,3337.544,3337.552,,,,0,13,13,13,1,50,175,,,,,,,,
,,5e73746e686c0c2c978392e1,65af5647b940720aef4cd637,2024-01-23_07h02.45.368,bars,2023.2.3,Win32,59.95203837,657b66ea316d21385b68909f,,,,,,,,,,,3337.553,3338.542,,,3339.043,3339.292,,144,-36,,,,,,,,,,,,,,,,bars/014.png,bars/mask004.png,,,,,,,,,,,,0,2,,,,,,,4,0,4,0,,,,,,,,,,,3338.542,3339.043,3339.292,3345.076,space,5.772,,3345.076,64,36,3346.073,3346.073,3346.078,,,,0,14,14,14,1,80,0,,,,,,,,
,,5e73746e686c0c2c978392e1,65af5647b940720aef4cd637,2024-01-23_07h02.45.368,bars,2023.2.3,Win32,59.95203837,657b66ea316d21385b68909f,,,,,,,,,,,3346.079,3347.074,,,3347.573,3347.823,,22,202,,,,,,,,,,,,,,,,bars/014.png,bars/mask007.png,,,,,,,,,,,,1,2,,,,,,,2,2,1,3,,,,,,,,,,,3347.074,3347.573,3347.823,3353.256,space,5.417,,3353.256,58,22,3354.254,3354.254,3354.257,,,,0,15,15,15,1,80,0,,,,,,,,
,,5e73746e686c0c2c978392e1,65af5647b940720aef4cd637,2024-01-23_07h02.45.368,bars,2023.2.3,Win32,59.95203837,657b66ea316d21385b68909f,,,,,,,,,,,3354.258,3355.254,,,3355.754,3356.004,,13,193,,,,,,,,,,,,,,,,bars/042.png,bars/mask005.png,,,,,,,,,,,,0,1,,,,,,,4,4,5,5,,,,,,,,,,,3355.254,3355.754,3356.005,3360.103,space,4.084,,3360.103,48,62,3361.105,3361.106,3361.114,,,,0,16,16,16,1,145,75,,,,,,,,
,,5e73746e686c0c2c978392e1,65af5647b940720aef4cd637,2024-01-23_07h02.45.368,bars,2023.2.3,Win32,59.95203837,657b66ea316d21385b68909f,,,,,,,,,,,3361.114,3362.103,,,3362.603,3362.853,,38,38,,,,,,,,,,,,,,,,bars/046.png,bars/mask006.png,,,,,,,,,,,,0,2,,,,,,,6,6,4,6,,,,,,,,,,,3362.103,3362.603,3362.853,3368.352,space,5.483,,3368.352,63,47,3369.351,3369.351,3369.359,,,,0,17,17,17,1,155,85,,,,,,,,
,,5e73746e686c0c2c978392e1,65af5647b940720aef4cd637,2024-01-23_07h02.45.368,bars,2023.2.3,Win32,59.95203837,657b66ea316d21385b68909f,,,,,,,,,,,3369.36,3370.35,,,3370.851,3371.101,,53,53,,,,,,,,,,,,,,,,bars/046.png,bars/mask009.png,,,,,,,,,,,,0,2,,,,,,,8,4,9,4,,,,,,,,,,,3370.35,3370.851,3371.101,3374.883,space,3.767,,3374.883,78,32,3375.882,3375.882,3375.886,,,,0,18,18,18,1,155,85,,,,,,,,
,,5e73746e686c0c2c978392e1,65af5647b940720aef4cd637,2024-01-23_07h02.45.368,bars,2023.2.3,Win32,59.95203837,657b66ea316d21385b68909f,,,,,,,,,,,3375.887,3376.883,,,3377.382,3377.632,,178,178,,,,,,,,,,,,,,,,bars/019.png,bars/mask008.png,,,,,,,,,,,,0,1,,,,,,,6,6,6,7,,,,,,,,,,,3376.883,3377.382,3377.632,3383.314,space,5.67,,3383.315,47,73,3384.314,3384.314,3384.321,,,,0,19,19,19,1,45,105,,,,,,,,
,,5e73746e686c0c2c978392e1,65af5647b940720aef4cd637,2024-01-23_07h02.45.368,bars,2023.2.3,Win32,59.95203837,657b66ea316d21385b68909f,,,,,,,,,,,3384.321,3385.314,,,3385.813,3386.063,,25,205,,,,,,,,,,,,,,,,bars/007.png,bars/mask003.png,,,,,,,,,,,,0,2,,,,,,,4,8,4,6,,,,,,,,,,,3385.314,3385.813,3386.063,3390.282,space,4.206,,3390.282,30,30,3391.279,3391.279,3391.285,,,,0,20,20,20,1,175,55,,,,,,,,
,,5e73746e686c0c2c978392e1,65af5647b940720aef4cd637,2024-01-23_07h02.45.368,bars,2023.2.3,Win32,59.95203837,657b66ea316d21385b68909f,,,,,,,,,,,3391.285,3392.278,,,3392.778,3393.028,,62,62,,,,,,,,,,,,,,,,bars/020.png,bars/mask008.png,,,,,,,,,,,,0,1,,,,,,,2,10,2,10,,,,,,,,,,,3392.278,3392.778,3393.028,3399.366,space,6.328,,3399.367,53,72,3400.359,3400.359,3400.37,,,,0,21,21,21,1,115,170,,,,,,,,
,,5e73746e686c0c2c978392e1,65af5647b940720aef4cd637,2024-01-23_07h02.45.368,bars,2023.2.3,Win32,59.95203837,657b66ea316d21385b68909f,,,,,,,,,,,3400.371,3401.361,,,3401.86,3402.109,,111,111,,,,,,,,,,,,,,,,bars/024.png,bars/mask007.png,,,,,,,,,,,,0,1,,,,,,,0,8,0,8,,,,,,,,,,,3401.361,3401.86,3402.109,3406.375,space,4.255,,3406.376,9,59,3407.374,3407.374,3407.379,,,,0,22,22,22,1,120,170,,,,,,,,
,,5e73746e686c0c2c978392e1,65af5647b940720aef4cd637,2024-01-23_07h02.45.368,bars,2023.2.3,Win32,59.95203837,657b66ea316d21385b68909f,,,,,,,,,,,3407.38,3408.374,,,3408.874,3409.124,,6,6,,,,,,,,,,,,,,,,bars/037.png,bars/mask005.png,,,,,,,,,,,,0,1,,,,,,,0,10,0,10,,,,,,,,,,,3408.374,3408.874,3409.124,3413.34,space,4.201,,3413.34,36,81,3414.34,3414.34,3414.344,,,,0,23,23,23,1,150,105,,,,,,,,
,,5e73746e686c0c2c978392e1,65af5647b940720aef4cd637,2024-01-23_07h02.45.368,bars,2023.2.3,Win32,59.95203837,657b66ea316d21385b68909f,,,,,,,,,,,3414.345,3415.338,,,3415.839,3416.089,,40,40,,,,,,,,,,,,,,,,bars/023.png,bars/mask001.png,,,,,,,,,,,,0,1,,,,,,,0,10,0,10,,,,,,,,,,,3415.339,3415.839,3416.089,3419.805,space,3.701,,3419.805,20,75,3420.804,3420.804,3420.809,,,,0,24,24,24,1,20,115,,,,,,,,
,,5e73746e686c0c2c978392e1,65af5647b940720aef4cd637,2024-01-23_07h02.45.368,bars,2023.2.3,Win32,59.95203837,657b66ea316d21385b68909f,,,,,,,,,,,3420.809,3421.804,,,3422.303,3422.553,,81,81,,,,,,,,,,,,,,,,bars/030.png,bars/mask002.png,,,,,,,,,,,,3,2,,,,,,,2,8,3,7,,,,,,,,,,,3421.804,3422.303,3422.553,3425.636,space,3.068,,3425.636,59,16,3426.636,3426.636,3426.642,,,,0,25,25,25,1,140,65,,,,,,,,
,,5e73746e686c0c2c978392e1,65af5647b940720aef4cd637,2024-01-23_07h02.45.368,bars,2023.2.3,Win32,59.95203837,657b66ea316d21385b68909f,,,,,,,,,,,3426.642,3427.636,,,3428.139,3428.386,,80,80,,,,,,,,,,,,,,,,bars/025.png,bars/mask006.png,,,,,,,,,,,,0,1,,,,,,,0,6,0,6,,,,,,,,,,,3427.636,3428.138,3428.386,3433.801,space,5.402,,3433.801,25,40,3434.801,3434.801,3434.809,,,,0,26,26,26,1,105,40,,,,,,,,
,,5e73746e686c0c2c978392e1,65af5647b940720aef4cd637,2024-01-23_07h02.45.368,bars,2023.2.3,Win32,59.95203837,657b66ea316d21385b68909f,,,,,,,,,,,3434.809,3435.8,,,3436.3,3436.55,,108,108,,,,,,,,,,,,,,,,bars/012.png,bars/mask003.png,,,,,,,,,,,,0,1,,,,,,,2,8,1,6,,,,,,,,,,,3435.8,3436.3,3436.55,3442.049,space,5.484,,3442.049,18,87,3443.048,3443.048,3443.053,,,,0,27,27,27,1,90,15,,,,,,,,
,,5e73746e686c0c2c978392e1,65af5647b940720aef4cd637,2024-01-23_07h02.45.368,bars,2023.2.3,Win32,59.95203837,657b66ea316d21385b68909f,,,,,,,,,,,3443.054,3444.048,,,3444.548,3444.798,,138,138,,,,,,,,,,,,,,,,bars/001.png,bars/mask000.png,,,,,,,,,,,,2,1,,,,,,,4,6,3,5,,,,,,,,,,,3444.048,3444.548,3444.798,3449.614,space,4.802,,3449.615,8,53,3450.613,3450.613,3450.618,,,,0,28,28,28,1,130,85,,,,,,,,
,,5e73746e686c0c2c978392e1,65af5647b940720aef4cd637,2024-01-23_07h02.45.368,bars,2023.2.3,Win32,59.95203837,657b66ea316d21385b68909f,,,,,,,,,,,3450.618,3451.613,,,3452.113,3452.362,,142,142,,,,,,,,,,,,,,,,bars/029.png,bars/mask004.png,,,,,,,,,,,,0,1,,,,,,,2,8,2,7,,,,,,,,,,,3451.613,3452.113,3452.362,3456.628,space,4.253,,3456.628,52,83,3457.628,3457.628,3457.632,,,,0,29,29,29,1,90,45,,,,,,,,
,,5e73746e686c0c2c978392e1,65af5647b940720aef4cd637,2024-01-23_07h02.45.368,bars,2023.2.3,Win32,59.95203837,657b66ea316d21385b68909f,,,,,,,,,,,3457.633,3458.628,,,3459.128,3459.377,,119,119,,,,,,,,,,,,,,,,bars/007.png,bars/mask009.png,,,,,,,,,,,,0,1,,,,,,,0,10,1,10,,,,,,,,,,,3458.628,3459.128,3459.377,3463.812,space,4.419,,3463.812,56,64,3464.809,3464.809,3464.816,,,,0,30,30,30,1,175,55,,,,,,,,
,,5e73746e686c0c2c978392e1,65af5647b940720aef4cd637,2024-01-23_07h02.45.368,bars,2023.2.3,Win32,59.95203837,657b66ea316d21385b68909f,,,,,,,,,,,3464.818,3465.809,,,3466.309,3466.559,,157,157,,,,,,,,,,,,,,,,bars/010.png,bars/mask005.png,,,,,,,,,,,,1,1,,,,,,,2,8,1,7,,,,,,,,,,,3465.809,3466.309,3466.559,3475.023,space,8.452,,3475.024,8,78,3476.023,3476.023,3476.028,,,,0,31,31,31,1,165,55,,,,,,,,
,,5e73746e686c0c2c978392e1,65af5647b940720aef4cd637,2024-01-23_07h02.45.368,bars,2023.2.3,Win32,59.95203837,657b66ea316d21385b68909f,,,,,,,,,,,3476.029,3477.022,,,3477.523,3477.772,,161,161,,,,,,,,,,,,,,,,bars/027.png,bars/mask000.png,,,,,,,,,,,,0,1,,,,,,,0,6,0,6,,,,,,,,,,,3477.022,3477.523,3477.772,3483.105,space,5.317,,3483.105,51,69,3484.105,3484.105,3484.108,,,,0,32,32,32,1,110,50,,,,,,,,
,,5e73746e686c0c2c978392e1,65af5647b940720aef4cd637,2024-01-23_07h02.45.368,bars,2023.2.3,Win32,59.95203837,657b66ea316d21385b68909f,,,,,,,,,,,3484.109,3485.104,,,3485.604,3485.854,,172,172,,,,,,,,,,,,,,,,bars/032.png,bars/mask000.png,,,,,,,,,,,,1,2,,,,,,,2,8,4,8,,,,,,,,,,,3485.104,3485.604,3485.854,3489.352,space,3.483,,3489.353,47,28,3490.353,3490.353,3490.359,,,,0,33,33,33,1,125,20,,,,,,,,
,,5e73746e686c0c2c978392e1,65af5647b940720aef4cd637,2024-01-23_07h02.45.368,bars,2023.2.3,Win32,59.95203837,657b66ea316d21385b68909f,,,,,,,,,,,3490.36,3491.352,,,3491.853,3492.102,,173,173,,,,,,,,,,,,,,,,bars/035.png,bars/mask004.png,,,,,,,,,,,,0,1,,,,,,,0,10,0,10,,,,,,,,,,,3491.352,3491.852,3492.102,3498.236,space,6.117,,3498.237,2,67,3499.242,3499.242,3499.247,,,,0,34,34,34,1,175,60,,,,,,,,
,,5e73746e686c0c2c978392e1,65af5647b940720aef4cd637,2024-01-23_07h02.45.368,bars,2023.2.3,Win32,59.95203837,657b66ea316d21385b68909f,,,,,,,,,,,3499.247,3500.25,,,3500.75,3501,,173,173,,,,,,,,,,,,,,,,bars/013.png,bars/mask009.png,,,,,,,,,,,,3,2,,,,,,,0,10,0,8,,,,,,,,,,,3500.25,3500.75,3501,3506.199,space,5.182,,3506.2,82,17,3507.198,3507.198,3507.206,,,,0,35,35,35,1,75,10,,,,,,,,
,,5e73746e686c0c2c978392e1,65af5647b940720aef4cd637,2024-01-23_07h02.45.368,bars,2023.2.3,Win32,59.95203837,657b66ea316d21385b68909f,,,,,,,,,,,3507.206,3508.197,,,3508.698,3508.952,,2,2,,,,,,,,,,,,,,,,bars/048.png,bars/mask000.png,,,,,,,,,,,,7,2,,,,,,,0,10,0,9,,,,,,,,,,,3508.198,3508.698,3508.952,3514.563,space,5.603,,3514.563,48,7,3515.563,3515.563,3515.566,,,,0,36,36,36,1,50,175,,,,,,,,
,,5e73746e686c0c2c978392e1,65af5647b940720aef4cd637,2024-01-23_07h02.45.368,bars,2023.2.3,Win32,59.95203837,657b66ea316d21385b68909f,,,,,,,,,,,3515.567,3516.562,,,3517.062,3517.312,,179,-1,,,,,,,,,,,,,,,,bars/032.png,bars/mask006.png,,,,,,,,,,,,2,2,,,,,,,2,8,2,8,,,,,,,,,,,3516.562,3517.062,3517.312,3522.627,space,5.301,,3522.628,54,21,3523.627,3523.627,3523.633,,,,0,37,37,37,1,125,20,,,,,,,,
,,5e73746e686c0c2c978392e1,65af5647b940720aef4cd637,2024-01-23_07h02.45.368,bars,2023.2.3,Win32,59.95203837,657b66ea316d21385b68909f,,,,,,,,,,,3523.633,3524.627,,,3525.127,3525.377,,27,27,,,,,,,,,,,,,,,,bars/048.png,bars/mask000.png,,,,,,,,,,,,0,1,,,,,,,0,6,0,7,,,,,,,,,,,3524.627,3525.127,3525.377,3530.31,space,4.918,,3530.311,23,32,3531.309,3531.309,3531.318,,,,0,38,38,38,1,50,175,,,,,,,,
,,5e73746e686c0c2c978392e1,65af5647b940720aef4cd637,2024-01-23_07h02.45.368,bars,2023.2.3,Win32,59.95203837,657b66ea316d21385b68909f,,,,,,,,,,,3531.319,3532.308,,,3532.801,3533.041,,7,7,,,,,,,,,,,,,,,,bars/046.png,bars/mask006.png,,,,,,,,,,,,0,1,,,,,,,0,4,1,3,,,,,,,,,,,3532.308,3532.801,3533.041,3540.057,space,6.998,,3540.058,32,78,3541.056,3541.056,3541.061,,,,0,39,39,39,1,155,85,,,,,,,,
,,5e73746e686c0c2c978392e1,65af5647b940720aef4cd637,2024-01-23_07h02.45.368,bars,2023.2.3,Win32,59.95203837,657b66ea316d21385b68909f,,,,,,,,,,,3541.062,3542.056,,,3542.556,3542.805,,169,-11,,,,,,,,,,,,,,,,bars/009.png,bars/mask009.png,,,,,,,,,,,,0,1,,,,,,,0,6,1,6,,,,,,,,,,,3542.056,3542.556,3542.805,3546.971,space,4.154,,3546.971,26,64,3547.971,3547.971,3547.975,,,,0,40,40,40,1,15,105,,,,,,,,
,,5e73746e686c0c2c978392e1,65af5647b940720aef4cd637,2024-01-23_07h02.45.368,bars,2023.2.3,Win32,59.95203837,657b66ea316d21385b68909f,,,,,,,,,,,3547.976,3548.971,,,3549.47,3549.721,,62,62,,,,,,,,,,,,,,,,bars/040.png,bars/mask001.png,,,,,,,,,,,,0,2,,,,,,,2,4,2,3,,,,,,,,,,,3548.971,3549.47,3549.721,3554.852,space,5.118,,3554.852,78,57,3555.852,3555.852,3555.859,,,,0,41,41,41,1,140,5,,,,,,,,
,,5e73746e686c0c2c978392e1,65af5647b940720aef4cd637,2024-01-23_07h02.45.368,bars,2023.2.3,Win32,59.95203837,657b66ea316d21385b68909f,,,,,,,,,,,3555.86,3556.852,,,3557.351,3557.601,,79,79,,,,,,,,,,,,,,,,bars/014.png,bars/mask006.png,,,,,,,,,,,,3,1,,,,,,,4,6,3,7,,,,,,,,,,,3556.852,3557.351,3557.601,3561.484,space,3.871,,3561.484,1,79,3562.486,3562.487,3562.495,,,,0,42,42,42,1,80,0,,,,,,,,
,,5e73746e686c0c2c978392e1,65af5647b940720aef4cd637,2024-01-23_07h02.45.368,bars,2023.2.3,Win32,59.95203837,657b66ea316d21385b68909f,,,,,,,,,,,3562.496,3563.5,,,3564.001,3564.25,,72,72,,,,,,,,,,,,,,,,bars/010.png,bars/mask007.png,,,,,,,,,,,,2,2,,,,,,,2,4,3,4,,,,,,,,,,,3563.5,3564.001,3564.25,3569.249,space,4.984,,3569.25,87,17,3570.248,3570.248,3570.255,,,,0,43,43,43,1,165,55,,,,,,,,
,,5e73746e686c0c2c978392e1,65af5647b940720aef4cd637,2024-01-23_07h02.45.368,bars,2023.2.3,Win32,59.95203837,657b66ea316d21385b68909f,,,,,,,,,,,3570.256,3571.248,,,3571.748,3571.998,,102,102,,,,,,,,,,,,,,,,bars/028.png,bars/mask001.png,,,,,,,,,,,,0,2,,,,,,,0,2,0,0,,,,,,,,,,,3571.248,3571.748,3571.998,3579.996,space,7.985,,3579.996,57,18,3580.996,3580.996,3581.001,,,,0,44,44,44,1,45,120,,,,,,,,
,,5e73746e686c0c2c978392e1,65af5647b940720aef4cd637,2024-01-23_07h02.45.368,bars,2023.2.3,Win32,59.95203837,657b66ea316d21385b68909f,,,,,,,,,,,3581.001,3581.995,,,3582.496,3582.745,,78,78,,,,,,,,,,,,,,,,bars/018.png,bars/mask004.png,,,,,,,,,,,,2,2,,,,,,,2,4,2,3,,,,,,,,,,,3581.995,3582.495,3582.745,3586.294,space,3.534,,3586.294,72,12,3587.293,3587.293,3587.298,,,,0,45,45,45,1,150,90,,,,,,,,
,,5e73746e686c0c2c978392e1,65af5647b940720aef4cd637,2024-01-23_07h02.45.368,bars,2023.2.3,Win32,59.95203837,657b66ea316d21385b68909f,,,,,,,,,,,3587.298,3588.293,,,3588.793,3589.044,,73,73,,,,,,,,,,,,,,,,bars/045.png,bars/mask009.png,,,,,,,,,,,,0,1,,,,,,,4,6,4,6,,,,,,,,,,,3588.293,3588.793,3589.044,3596.011,space,6.951,,3596.012,27,63,3597.008,3597.008,3597.017,,,,0,46,46,46,1,100,10,,,,,,,,
,,5e73746e686c0c2c978392e1,65af5647b940720aef4cd637,2024-01-23_07h02.45.368,bars,2023.2.3,Win32,59.95203837,657b66ea316d21385b68909f,,,,,,,,,,,3597.018,3598.008,,,3598.507,3598.757,,98,98,,,,,,,,,,,,,,,,bars/001.png,bars/mask005.png,,,,,,,,,,,,4,2,,,,,,,2,8,2,7,,,,,,,,,,,3598.008,3598.507,3598.757,3603.356,space,4.584,,3603.357,32,13,3604.356,3604.356,3604.364,,,,0,47,47,47,1,130,85,,,,,,,,
,,5e73746e686c0c2c978392e1,65af5647b940720aef4cd637,2024-01-23_07h02.45.368,bars,2023.2.3,Win32,59.95203837,657b66ea316d21385b68909f,,,,,,,,,,,3604.364,3605.356,,,3605.856,3606.105,,120,120,,,,,,,,,,,,,,,,bars/012.png,bars/mask002.png,,,,,,,,,,,,0,1,,,,,,,4,6,2,5,,,,,,,,,,,3605.356,3605.856,3606.105,3611.588,space,5.467,,3611.588,30,75,3612.587,3612.587,3612.594,,,,0,48,48,48,1,90,15,,,,,,,,
,,5e73746e686c0c2c978392e1,65af5647b940720aef4cd637,2024-01-23_07h02.45.368,bars,2023.2.3,Win32,59.95203837,657b66ea316d21385b68909f,,,,,,,,,,,3612.594,3613.587,,,3614.087,3614.337,,99,99,,,,,,,,,,,,,,,,bars/007.png,bars/mask004.png,,,,,,,,,,,,0,2,,,,,,,2,8,1,8,,,,,,,,,,,3613.587,3614.087,3614.338,3616.737,space,2.384,,3616.737,76,44,3617.736,3617.736,3617.742,,,,0,49,49,49,1,175,55,,,,,,,,
,,5e73746e686c0c2c978392e1,65af5647b940720aef4cd637,2024-01-23_07h02.45.368,bars,2023.2.3,Win32,59.95203837,657b66ea316d21385b68909f,,,,,,,,,,,,,,,,,,,,,,,,,,,,,,,,,,,,,,,,,,,,,,,,,,,,,,,,,,,,,,,,,,,,,,,,,,,,,,,,,,,,,,,,,,,,,3617.742,3677.74,0,3,3,3,1,sequence_tables/blk042.csv
,,5e73746e686c0c2c978392e1,65af5647b940720aef4cd637,2024-01-23_07h02.45.368,bars,2023.2.3,Win32,59.95203837,657b66ea316d21385b68909f,,,,,,,,,,,3679.599,3680.603,,,3681.102,3681.352,,105,-75,,,,,,,,,,,,,,,,bars/038.png,bars/mask000.png,,,,,,,,,,,,0,2,,,,,,,2,7,0,6,,,,,,3677.745,3679.589,space,1.828,,3680.603,3681.102,3681.353,3688.117,space,6.749,,3688.118,60,35,3689.117,3689.117,3689.123,,,,0,0,0,0,1,165,70,,,,,,,,
,,5e73746e686c0c2c978392e1,65af5647b940720aef4cd637,2024-01-23_07h02.45.368,bars,2023.2.3,Win32,59.95203837,657b66ea316d21385b68909f,,,,,,,,,,,3689.123,3690.117,,,3690.616,3690.867,,145,145,,,,,,,,,,,,,,,,bars/049.png,bars/mask005.png,,,,,,,,,,,,1,1,,,,,,,0,9,1,10,,,,,,,,,,,3690.117,3690.616,3690.867,3696.934,space,6.05,,3696.935,15,30,3697.932,3697.933,3697.942,,,,0,1,1,1,1,160,115,,,,,,,,
,,5e73746e686c0c2c978392e1,65af5647b940720aef4cd637,2024-01-23_07h02.45.368,bars,2023.2.3,Win32,59.95203837,657b66ea316d21385b68909f,,,,,,,,,,,3697.943,3698.932,,,3699.431,3699.681,,150,150,,,,,,,,,,,,,,,,bars/026.png,bars/mask009.png,,,,,,,,,,,,0,2,,,,,,,0,7,1,7,,,,,,,,,,,3698.932,3699.431,3699.681,3704.513,space,4.817,,3704.513,65,65,3705.513,3705.513,3705.519,,,,0,2,2,2,1,35,85,,,,,,,,
,,5e73746e686c0c2c978392e1,65af5647b940720aef4cd637,2024-01-23_07h02.45.368,bars,2023.2.3,Win32,59.95203837,657b66ea316d21385b68909f,,,,,,,,,,,3705.52,3706.513,,,3707.013,3707.262,,171,-9,,,,,,,,,,,,,,,,bars/041.png,bars/mask009.png,,,,,,,,,,,,0,1,,,,,,,2,9,1,9,,,,,,,,,,,3706.513,3707.013,3707.262,3712.311,space,5.033,,3712.311,29,86,3713.311,3713.311,3713.317,,,,0,3,3,3,1,20,85,,,,,,,,
,,5e73746e686c0c2c978392e1,65af5647b940720aef4cd637,2024-01-23_07h02.45.368,bars,2023.2.3,Win32,59.95203837,657b66ea316d21385b68909f,,,,,,,,,,,3713.317,3714.31,,,3714.811,3715.06,,168,168,,,,,,,,,,,,,,,,bars/024.png,bars/mask000.png,,,,,,,,,,,,9,2,,,,,,,4,10,4,10,,,,,,,,,,,3714.31,3714.811,3715.061,3719.576,space,4.5,,3719.576,48,2,3720.575,3720.575,3720.582,,,,0,4,4,4,1,120,170,,,,,,,,
,,5e73746e686c0c2c978392e1,65af5647b940720aef4cd637,2024-01-23_07h02.45.368,bars,2023.2.3,Win32,59.95203837,657b66ea316d21385b68909f,,,,,,,,,,,3720.582,3721.575,,,3722.076,3722.325,,156,156,,,,,,,,,,,,,,,,bars/028.png,bars/mask003.png,,,,,,,,,,,,0,2,,,,,,,2,10,0,10,,,,,,,,,,,3721.575,3722.075,3722.325,3727.907,space,5.567,,3727.907,69,36,3728.907,3728.907,3728.911,,,,0,5,5,5,1,45,120,,,,,,,,
,,5e73746e686c0c2c978392e1,65af5647b940720aef4cd637,2024-01-23_07h02.45.368,bars,2023.2.3,Win32,59.95203837,657b66ea316d21385b68909f,,,,,,,,,,,3728.912,3729.907,,,3730.41,3730.656,,178,178,,,,,,,,,,,,,,,,bars/035.png,bars/mask007.png,,,,,,,,,,,,5,1,,,,,,,4,10,5,9,,,,,,,,,,,3729.907,3730.409,3730.656,3734.439,space,3.767,,3734.44,3,62,3735.438,3735.439,3735.446,,,,0,6,6,6,1,175,60,,,,,,,,
,,5e73746e686c0c2c978392e1,65af5647b940720aef4cd637,2024-01-23_07h02.45.368,bars,2023.2.3,Win32,59.95203837,657b66ea316d21385b68909f,,,,,,,,,,,3735.447,3736.438,,,3736.938,3737.188,,2,182,,,,,,,,,,,,,,,,bars/038.png,bars/mask006.png,,,,,,,,,,,,1,1,,,,,,,2,8,2,8,,,,,,,,,,,3736.438,3736.938,3737.188,3742.887,space,5.683,,3742.888,17,68,3743.886,3743.886,3743.89,,,,0,7,7,7,1,165,70,,,,,,,,
,,5e73746e686c0c2c978392e1,65af5647b940720aef4cd637,2024-01-23_07h02.45.368,bars,2023.2.3,Win32,59.95203837,657b66ea316d21385b68909f,,,,,,,,,,,3743.894,3744.886,,,3745.387,3745.636,,5,5,,,,,,,,,,,,,,,,bars/029.png,bars/mask009.png,,,,,,,,,,,,0,2,,,,,,,0,10,0,10,,,,,,,,,,,3744.886,3745.386,3745.636,3750.818,space,5.167,,3750.818,85,40,3751.817,3751.818,3751.824,,,,0,8,8,8,1,90,45,,,,,,,,
,,5e73746e686c0c2c978392e1,65af5647b940720aef4cd637,2024-01-23_07h02.45.368,bars,2023.2.3,Win32,59.95203837,657b66ea316d21385b68909f,,,,,,,,,,,3751.824,3752.817,,,3753.317,3753.567,,167,-13,,,,,,,,,,,,,,,,bars/016.png,bars/mask005.png,,,,,,,,,,,,7,2,,,,,,,2,8,2,8,,,,,,,,,,,3752.817,3753.317,3753.567,3757.649,space,4.068,,3757.649,53,2,3758.649,3758.649,3758.653,,,,0,9,9,9,1,40,165,,,,,,,,
,,5e73746e686c0c2c978392e1,65af5647b940720aef4cd637,2024-01-23_07h02.45.368,bars,2023.2.3,Win32,59.95203837,657b66ea316d21385b68909f,,,,,,,,,,,3758.654,3759.653,,,3760.149,3760.399,,173,173,,,,,,,,,,,,,,,,bars/035.png,bars/mask003.png,,,,,,,,,,,,0,1,,,,,,,0,10,0,10,,,,,,,,,,,3759.653,3760.149,3760.399,3766.466,space,6.05,,3766.467,2,67,3767.463,3767.463,3767.472,,,,0,10,10,10,1,175,60,,,,,,,,
,,5e73746e686c0c2c978392e1,65af5647b940720aef4cd637,2024-01-23_07h02.45.368,bars,2023.2.3,Win32,59.95203837,657b66ea316d21385b68909f,,,,,,,,,,,3767.472,3768.463,,,3768.964,3769.213,,175,175,,,,,,,,,,,,,,,,bars/006.png,bars/mask002.png,,,,,,,,,,,,0,1,,,,,,,0,8,1,8,,,,,,,,,,,3768.463,3768.964,3769.213,3776.428,space,7.199,,3776.429,40,75,3777.427,3777.427,3777.432,,,,0,11,11,11,1,35,100,,,,,,,,
,,5e73746e686c0c2c978392e1,65af5647b940720aef4cd637,2024-01-23_07h02.45.368,bars,2023.2.3,Win32,59.95203837,657b66ea316d21385b68909f,,,,,,,,,,,3777.433,3778.427,,,3778.927,3779.176,,14,194,,,,,,,,,,,,,,,,bars/010.png,bars/mask001.png,,,,,,,,,,,,0,1,,,,,,,0,6,1,5,,,,,,,,,,,3778.427,3778.927,3779.177,3785.259,space,6.067,,3785.259,29,41,3786.258,3786.258,3786.262,,,,0,12,12,12,1,165,55,,,,,,,,
,,5e73746e686c0c2c978392e1,65af5647b940720aef4cd637,2024-01-23_07h02.45.368,bars,2023.2.3,Win32,59.95203837,657b66ea316d21385b68909f,,,,,,,,,,,3786.263,3787.259,,,3787.758,3788.008,,164,164,,,,,,,,,,,,,,,,bars/009.png,bars/mask005.png,,,,,,,,,,,,0,1,,,,,,,2,4,3,2,,,,,,,,,,,3787.259,3787.758,3788.008,3791.64,space,3.62,,3791.64,31,59,3792.64,3792.64,3792.645,,,,0,13,13,13,1,15,105,,,,,,,,
,,5e73746e686c0c2c978392e1,65af5647b940720aef4cd637,2024-01-23_07h02.45.368,bars,2023.2.3,Win32,59.95203837,657b66ea316d21385b68909f,,,,,,,,,,,3792.646,3793.64,,,3794.14,3794.39,,56,56,,,,,,,,,,,,,,,,bars/026.png,bars/mask000.png,,,,,,,,,,,,0,1,,,,,,,0,2,0,1,,,,,,,,,,,3793.64,3794.139,3794.39,3798.757,space,4.351,,3798.758,21,29,3799.754,3799.754,3799.762,,,,0,14,14,14,1,35,85,,,,,,,,
,,5e73746e686c0c2c978392e1,65af5647b940720aef4cd637,2024-01-23_07h02.45.368,bars,2023.2.3,Win32,59.95203837,657b66ea316d21385b68909f,,,,,,,,,,,3799.763,3800.755,,,3801.255,3801.505,,17,197,,,,,,,,,,,,,,,,bars/016.png,bars/mask006.png,,,,,,,,,,,,0,1,,,,,,,2,0,2,1,,,,,,,,,,,3800.755,3801.255,3801.505,3806.154,space,4.632,,3806.155,23,32,3807.153,3807.153,3807.159,,,,0,15,15,15,1,40,165,,,,,,,,
,,5e73746e686c0c2c978392e1,65af5647b940720aef4cd637,2024-01-23_07h02.45.368,bars,2023.2.3,Win32,59.95203837,657b66ea316d21385b68909f,,,,,,,,,,,3807.159,3808.153,,,3808.652,3808.902,,165,-15,,,,,,,,,,,,,,,,bars/003.png,bars/mask001.png,,,,,,,,,,,,0,2,,,,,,,0,2,0,3,,,,,,,,,,,3808.153,3808.652,3808.902,3812.935,space,4.018,,3812.935,40,25,3813.935,3813.935,3813.944,,,,0,16,16,16,1,25,140,,,,,,,,
,,5e73746e686c0c2c978392e1,65af5647b940720aef4cd637,2024-01-23_07h02.45.368,bars,2023.2.3,Win32,59.95203837,657b66ea316d21385b68909f,,,,,,,,,,,3813.944,3814.934,,,3815.435,3815.684,,64,64,,,,,,,,,,,,,,,,bars/026.png,bars/mask003.png,,,,,,,,,,,,0,2,,,,,,,2,0,2,0,,,,,,,,,,,3814.935,3815.435,3815.684,3819.25,space,3.551,,3819.251,29,21,3820.249,3820.249,3820.255,,,,0,17,17,17,1,35,85,,,,,,,,
