init_variables.started,init_variables.stopped,participant,session,date,expName,psychopyVersion,OS,frameRate,study_id,instruction_exp.started,instruction_exp.stopped,key_resp_8.keys,key_resp_8.rt,key_resp_8.duration,instruction_single.started,instruction_single.stopped,key_resp_2.keys,key_resp_2.rt,key_resp_2.duration,interval.started,interval.stopped,cue_single.started,cue_single.stopped,mask.started,mask.stopped,ori_response_single.started,res_ori,res,ori_response_single.stopped,key_resp_single.keys,key_resp_single.rt,key_resp_single.duration,disp_single.started,disp_single.stopped,key_resp.keys,key_resp.rt,key_resp.duration,single.thisRepN,single.thisTrialN,single.thisN,single.thisIndex,single.ran,ori,path,mask_path,instruction_bandit.started,instruction_bandit.stopped,key_resp_6.keys,key_resp_6.rt,key_resp_6.duration,cue_bandit.started,cue_bandit.stopped,bandit_res.keys,bandit_res.rt,bandit_res.duration,outcome_bandit.started,rew,action,outcome_bandit.stopped,bandit.thisRepN,bandit.thisTrialN,bandit.thisN,bandit.thisIndex,bandit.ran,actual_rew1,actual_rew2,rew1,rew2,instruction_task.started,instruction_task.stopped,key_resp_7.keys,key_resp_7.rt,key_resp_7.duration,wait_ready.started,wait_ready.stopped,key_resp_3.keys,key_resp_3.rt,key_resp_3.duration,cue.started,cue.stopped,ori_response.started,ori_response.stopped,key_resp_5.keys,key_resp_5.rt,key_resp_5.duration,outcome.started,diff1,diff2,outcome.stopped,disp_outcome_practice.started,disp_outcome_practice.stopped,key_resp_4.keys,key_resp_4.rt,key_resp_4.duration,trials.thisRepN,trials.thisTrialN,trials.thisN,trials.thisIndex,trials.ran,ori1,ori2,break_blk.started,break_blk.stopped,block.thisRepN,block.thisTrialN,block.thisN,block.thisIndex,block.ran,condition_file
0.0004,0.0005,611ec49716b95cd9e2e981b4,65af55811410b53e6cb3740e,2024-01-23_08h38.31.966,bars,2023.2.3,Win32,60.24096386,657b66ea316d21385b68909f,,,,,,,,,,,,,,,,,,,,,,,,,,,,,,,,,,,,,,,,,,,,,,,,,,,,,,,,,,,,,,,,,,,,,,,,,,,,,,,,,,,,,,,,,,,,,,,,,,,,
,,611ec49716b95cd9e2e981b4,65af55811410b53e6cb3740e,2024-01-23_08h38.31.966,bars,2023.2.3,Win32,60.24096386,657b66ea316d21385b68909f,0.0007,27.2095,y,27.1357,,,,,,,,,,,,,,,,,,,,,,,,,,,,,,,,,,,,,,,,,,,,,,,,,,,,,,,,,,,,,,,,,,,,,,,,,,,,,,,,,,,,,,,,,,,,,,,,
,,611ec49716b95cd9e2e981b4,65af55811410b53e6cb3740e,2024-01-23_08h38.31.966,bars,2023.2.3,Win32,60.24096386,657b66ea316d21385b68909f,,,,,,27.2096,56.8102,space,29.5232,,,,,,,,,,,,,,,,,,,,,,,,,,,,,,,,,,,,,,,,,,,,,,,,,,,,,,,,,,,,,,,,,,,,,,,,,,,,,,,,,,,,,,,,,,,
,,611ec49716b95cd9e2e981b4,65af55811410b53e6cb3740e,2024-01-23_08h38.31.966,bars,2023.2.3,Win32,60.24096386,657b66ea316d21385b68909f,,,,,,,,,,,56.8155,57.8049,57.8051,58.2942,58.2942,58.5394,58.5403,90,90,79.1544,space,20.5687,,79.1546,99.4456,space,20.2494,,0,0,0,4,1,95,bars/single004.png,bars/mask004.png,,,,,,,,,,,,,,,,,,,,,,,,,,,,,,,,,,,,,,,,,,,,,,,,,,,,,,,,,,,,,,,,
,,611ec49716b95cd9e2e981b4,65af55811410b53e6cb3740e,2024-01-23_08h38.31.966,bars,2023.2.3,Win32,60.24096386,657b66ea316d21385b68909f,,,,,,,,,,,99.4543,100.4423,100.4424,100.9427,100.9428,101.1891,101.1891,93,93,113.5557,space,12.3464,,113.5559,122.4249,space,8.8482,,0,1,1,6,1,175,bars/single006.png,bars/mask005.png,,,,,,,,,,,,,,,,,,,,,,,,,,,,,,,,,,,,,,,,,,,,,,,,,,,,,,,,,,,,,,,,
,,611ec49716b95cd9e2e981b4,65af55811410b53e6cb3740e,2024-01-23_08h38.31.966,bars,2023.2.3,Win32,60.24096386,657b66ea316d21385b68909f,,,,,,,,,,,122.438,123.4392,123.4392,123.9324,123.9328,124.1879,124.188,91,91,129.5967,space,5.3919,,129.5967,133.9907,space,4.3731,,0,2,2,0,1,150,bars/single000.png,bars/mask006.png,,,,,,,,,,,,,,,,,,,,,,,,,,,,,,,,,,,,,,,,,,,,,,,,,,,,,,,,,,,,,,,,
,,611ec49716b95cd9e2e981b4,65af55811410b53e6cb3740e,2024-01-23_08h38.31.966,bars,2023.2.3,Win32,60.24096386,657b66ea316d21385b68909f,,,,,,,,,,,134.003,134.998,134.9982,135.4974,135.4976,135.7478,135.7481,94,94,140.7386,space,4.9813,,140.7386,142.9518,space,2.1852,,0,3,3,9,1,20,bars/single009.png,bars/mask006.png,,,,,,,,,,,,,,,,,,,,,,,,,,,,,,,,,,,,,,,,,,,,,,,,,,,,,,,,,,,,,,,,
,,611ec49716b95cd9e2e981b4,65af55811410b53e6cb3740e,2024-01-23_08h38.31.966,bars,2023.2.3,Win32,60.24096386,657b66ea316d21385b68909f,,,,,,,,,,,142.9524,143.9508,143.9509,144.4493,144.4493,144.699,144.6991,96,96,147.4618,space,2.7468,,147.4619,150.5897,space,3.1005,,0,4,4,3,1,20,bars/single003.png,bars/mask005.png,,,,,,,,,,,,,,,,,,,,,,,,,,,,,,,,,,,,,,,,,,,,,,,,,,,,,,,,,,,,,,,,
,,611ec49716b95cd9e2e981b4,65af55811410b53e6cb3740e,2024-01-23_08h38.31.966,bars,2023.2.3,Win32,60.24096386,657b66ea316d21385b68909f,,,,,,,,,,,150.6018,151.6043,151.6043,152.1038,152.1039,152.3528,152.353,93,93,155.1655,space,2.8036,,155.1655,166.2149,space,11.0187,,0,5,5,7,1,45,bars/single007.png,bars/mask009.png,,,,,,,,,,,,,,,,,,,,,,,,,,,,,,,,,,,,,,,,,,,,,,,,,,,,,,,,,,,,,,,,
,,611ec49716b95cd9e2e981b4,65af55811410b53e6cb3740e,2024-01-23_08h38.31.966,bars,2023.2.3,Win32,60.24096386,657b66ea316d21385b68909f,,,,,,,,,,,166.2274,167.2297,167.2298,167.7289,167.729,167.9787,167.9787,56,56,176.9976,space,9.0005,,176.9977,183.3708,space,6.3442,,0,6,6,5,1,55,bars/single005.png,bars/mask008.png,,,,,,,,,,,,,,,,,,,,,,,,,,,,,,,,,,,,,,,,,,,,,,,,,,,,,,,,,,,,,,,,
,,611ec49716b95cd9e2e981b4,65af55811410b53e6cb3740e,2024-01-23_08h38.31.966,bars,2023.2.3,Win32,60.24096386,657b66ea316d21385b68909f,,,,,,,,,,,183.3817,184.3856,184.3857,184.8849,184.8849,185.1343,185.1344,34,34,189.5606,space,4.4165,,189.5607,197.7141,space,8.1293,,0,7,7,1,1,20,bars/single001.png,bars/mask006.png,,,,,,,,,,,,,,,,,,,,,,,,,,,,,,,,,,,,,,,,,,,,,,,,,,,,,,,,,,,,,,,,
,,611ec49716b95cd9e2e981b4,65af55811410b53e6cb3740e,2024-01-23_08h38.31.966,bars,2023.2.3,Win32,60.24096386,657b66ea316d21385b68909f,,,,,,,,,,,197.726,198.7292,198.7292,199.2286,199.2286,199.478,199.478,19,19,202.3902,space,2.8993,,202.3903,213.6724,space,11.2558,,0,8,8,8,1,160,bars/single008.png,bars/mask004.png,,,,,,,,,,,,,,,,,,,,,,,,,,,,,,,,,,,,,,,,,,,,,,,,,,,,,,,,,,,,,,,,
,,611ec49716b95cd9e2e981b4,65af55811410b53e6cb3740e,2024-01-23_08h38.31.966,bars,2023.2.3,Win32,60.24096386,657b66ea316d21385b68909f,,,,,,,,,,,213.6845,214.6871,214.6872,215.1867,215.1867,215.4357,215.4358,162,-18,219.363,space,3.916,,219.3631,221.1265,space,1.7445,,0,9,9,2,1,145,bars/single002.png,bars/mask003.png,,,,,,,,,,,,,,,,,,,,,,,,,,,,,,,,,,,,,,,,,,,,,,,,,,,,,,,,,,,,,,,,
,,611ec49716b95cd9e2e981b4,65af55811410b53e6cb3740e,2024-01-23_08h38.31.966,bars,2023.2.3,Win32,60.24096386,657b66ea316d21385b68909f,,,,,,,,,,,,,,,,,,,,,,,,,,,,,,,,,,,,,221.1276,251.3457,space,30.1934,,,,,,,,,,,,,,,,,,,,,,,,,,,,,,,,,,,,,,,,,,,,,,,,,,,,,,,,,,,,
,,611ec49716b95cd9e2e981b4,65af55811410b53e6cb3740e,2024-01-23_08h38.31.966,bars,2023.2.3,Win32,60.24096386,657b66ea316d21385b68909f,,,,,,,,,,,,,,,,,,,,,,,,,,,,,,,,,,,,,,,,,,251.3599,259.273,right,7.8988,,259.2731,2,2,260.2645,0,0,0,0,1,9,1,9,2,,,,,,,,,,,,,,,,,,,,,,,,,,,,,,,,,,,,,,,,,
,,611ec49716b95cd9e2e981b4,65af55811410b53e6cb3740e,2024-01-23_08h38.31.966,bars,2023.2.3,Win32,60.24096386,657b66ea316d21385b68909f,,,,,,,,,,,,,,,,,,,,,,,,,,,,,,,,,,,,,,,,,,260.2671,265.7782,right,5.4913,,265.7782,1,2,266.7709,0,1,1,1,1,10,0,10,1,,,,,,,,,,,,,,,,,,,,,,,,,,,,,,,,,,,,,,,,,
,,611ec49716b95cd9e2e981b4,65af55811410b53e6cb3740e,2024-01-23_08h38.31.966,bars,2023.2.3,Win32,60.24096386,657b66ea316d21385b68909f,,,,,,,,,,,,,,,,,,,,,,,,,,,,,,,,,,,,,,,,,,266.7827,268.9708,right,2.1777,,268.9708,2,2,269.9648,0,2,2,2,1,10,2,10,2,,,,,,,,,,,,,,,,,,,,,,,,,,,,,,,,,,,,,,,,,
,,611ec49716b95cd9e2e981b4,65af55811410b53e6cb3740e,2024-01-23_08h38.31.966,bars,2023.2.3,Win32,60.24096386,657b66ea316d21385b68909f,,,,,,,,,,,,,,,,,,,,,,,,,,,,,,,,,,,,,,,,,,269.9766,276.012,right,6.0243,,276.012,3,2,277.0043,0,3,3,3,1,8,4,7,3,,,,,,,,,,,,,,,,,,,,,,,,,,,,,,,,,,,,,,,,,
,,611ec49716b95cd9e2e981b4,65af55811410b53e6cb3740e,2024-01-23_08h38.31.966,bars,2023.2.3,Win32,60.24096386,657b66ea316d21385b68909f,,,,,,,,,,,,,,,,,,,,,,,,,,,,,,,,,,,,,,,,,,277.0162,277.7721,right,0.7406,,277.7722,1,2,278.7679,0,4,4,4,1,6,2,5,1,,,,,,,,,,,,,,,,,,,,,,,,,,,,,,,,,,,,,,,,,
,,611ec49716b95cd9e2e981b4,65af55811410b53e6cb3740e,2024-01-23_08h38.31.966,bars,2023.2.3,Win32,60.24096386,657b66ea316d21385b68909f,,,,,,,,,,,,,,,,,,,,,,,,,,,,,,,,,,,,,,,,,,278.7705,279.307,right,0.5167,,279.307,4,2,280.302,0,5,5,5,1,4,4,4,4,,,,,,,,,,,,,,,,,,,,,,,,,,,,,,,,,,,,,,,,,
,,611ec49716b95cd9e2e981b4,65af55811410b53e6cb3740e,2024-01-23_08h38.31.966,bars,2023.2.3,Win32,60.24096386,657b66ea316d21385b68909f,,,,,,,,,,,,,,,,,,,,,,,,,,,,,,,,,,,,,,,,,,280.3023,289.8565,right,9.5351,,289.8566,2,2,290.8492,0,6,6,6,1,2,2,1,2,,,,,,,,,,,,,,,,,,,,,,,,,,,,,,,,,,,,,,,,,
,,611ec49716b95cd9e2e981b4,65af55811410b53e6cb3740e,2024-01-23_08h38.31.966,bars,2023.2.3,Win32,60.24096386,657b66ea316d21385b68909f,,,,,,,,,,,,,,,,,,,,,,,,,,,,,,,,,,,,,,,,,,290.8615,299.8407,left,8.9698,,299.8407,0,1,300.8324,0,7,7,7,1,0,0,0,1,,,,,,,,,,,,,,,,,,,,,,,,,,,,,,,,,,,,,,,,,
,,611ec49716b95cd9e2e981b4,65af55811410b53e6cb3740e,2024-01-23_08h38.31.966,bars,2023.2.3,Win32,60.24096386,657b66ea316d21385b68909f,,,,,,,,,,,,,,,,,,,,,,,,,,,,,,,,,,,,,,,,,,300.8453,303.1324,right,2.2772,,303.1325,0,2,304.1271,0,8,8,8,1,0,2,1,0,,,,,,,,,,,,,,,,,,,,,,,,,,,,,,,,,,,,,,,,,
,,611ec49716b95cd9e2e981b4,65af55811410b53e6cb3740e,2024-01-23_08h38.31.966,bars,2023.2.3,Win32,60.24096386,657b66ea316d21385b68909f,,,,,,,,,,,,,,,,,,,,,,,,,,,,,,,,,,,,,,,,,,304.1287,304.7279,right,0.5673,,304.7283,3,2,305.7254,0,9,9,9,1,2,4,2,3,,,,,,,,,,,,,,,,,,,,,,,,,,,,,,,,,,,,,,,,,
,,611ec49716b95cd9e2e981b4,65af55811410b53e6cb3740e,2024-01-23_08h38.31.966,bars,2023.2.3,Win32,60.24096386,657b66ea316d21385b68909f,,,,,,,,,,,,,,,,,,,,,,,,,,,,,,,,,,,,,,,,,,305.7277,306.3765,right,0.6183,,306.3765,3,2,307.3718,0,10,10,10,1,0,2,0,3,,,,,,,,,,,,,,,,,,,,,,,,,,,,,,,,,,,,,,,,,
,,611ec49716b95cd9e2e981b4,65af55811410b53e6cb3740e,2024-01-23_08h38.31.966,bars,2023.2.3,Win32,60.24096386,657b66ea316d21385b68909f,,,,,,,,,,,,,,,,,,,,,,,,,,,,,,,,,,,,,,,,,,307.3743,307.6579,right,0.2558,,307.6579,3,2,308.659,0,11,11,11,1,0,4,0,3,,,,,,,,,,,,,,,,,,,,,,,,,,,,,,,,,,,,,,,,,
,,611ec49716b95cd9e2e981b4,65af55811410b53e6cb3740e,2024-01-23_08h38.31.966,bars,2023.2.3,Win32,60.24096386,657b66ea316d21385b68909f,,,,,,,,,,,,,,,,,,,,,,,,,,,,,,,,,,,,,,,,,,308.6594,309.0427,right,0.3669,,309.0428,6,2,310.0376,0,12,12,12,1,2,6,1,6,,,,,,,,,,,,,,,,,,,,,,,,,,,,,,,,,,,,,,,,,
,,611ec49716b95cd9e2e981b4,65af55811410b53e6cb3740e,2024-01-23_08h38.31.966,bars,2023.2.3,Win32,60.24096386,657b66ea316d21385b68909f,,,,,,,,,,,,,,,,,,,,,,,,,,,,,,,,,,,,,,,,,,310.0381,310.391,right,0.3337,,310.3911,3,2,311.3894,0,13,13,13,1,0,4,1,3,,,,,,,,,,,,,,,,,,,,,,,,,,,,,,,,,,,,,,,,,
,,611ec49716b95cd9e2e981b4,65af55811410b53e6cb3740e,2024-01-23_08h38.31.966,bars,2023.2.3,Win32,60.24096386,657b66ea316d21385b68909f,,,,,,,,,,,,,,,,,,,,,,,,,,,,,,,,,,,,,,,,,,311.3898,311.618,right,0.2013,,311.6181,7,2,312.6193,0,14,14,14,1,2,6,2,7,,,,,,,,,,,,,,,,,,,,,,,,,,,,,,,,,,,,,,,,,
,,611ec49716b95cd9e2e981b4,65af55811410b53e6cb3740e,2024-01-23_08h38.31.966,bars,2023.2.3,Win32,60.24096386,657b66ea316d21385b68909f,,,,,,,,,,,,,,,,,,,,,,,,,,,,,,,,,,,,,,,,,,312.6196,312.7663,right,0.1296,,312.7663,9,2,313.7611,0,15,15,15,1,4,8,3,9,,,,,,,,,,,,,,,,,,,,,,,,,,,,,,,,,,,,,,,,,
,,611ec49716b95cd9e2e981b4,65af55811410b53e6cb3740e,2024-01-23_08h38.31.966,bars,2023.2.3,Win32,60.24096386,657b66ea316d21385b68909f,,,,,,,,,,,,,,,,,,,,,,,,,,,,,,,,,,,,,,,,,,313.7626,314.0014,right,0.2164,,314.0015,7,2,314.993,0,16,16,16,1,6,6,7,7,,,,,,,,,,,,,,,,,,,,,,,,,,,,,,,,,,,,,,,,,
,,611ec49716b95cd9e2e981b4,65af55811410b53e6cb3740e,2024-01-23_08h38.31.966,bars,2023.2.3,Win32,60.24096386,657b66ea316d21385b68909f,,,,,,,,,,,,,,,,,,,,,,,,,,,,,,,,,,,,,,,,,,314.9953,315.2167,right,0.2014,,315.2167,5,2,316.2081,0,17,17,17,1,8,4,9,5,,,,,,,,,,,,,,,,,,,,,,,,,,,,,,,,,,,,,,,,,
,,611ec49716b95cd9e2e981b4,65af55811410b53e6cb3740e,2024-01-23_08h38.31.966,bars,2023.2.3,Win32,60.24096386,657b66ea316d21385b68909f,,,,,,,,,,,,,,,,,,,,,,,,,,,,,,,,,,,,,,,,,,316.2105,316.3472,left,0.1166,,316.3472,5,1,317.34,0,18,18,18,1,6,2,5,1,,,,,,,,,,,,,,,,,,,,,,,,,,,,,,,,,,,,,,,,,
,,611ec49716b95cd9e2e981b4,65af55811410b53e6cb3740e,2024-01-23_08h38.31.966,bars,2023.2.3,Win32,60.24096386,657b66ea316d21385b68909f,,,,,,,,,,,,,,,,,,,,,,,,,,,,,,,,,,,,,,,,,,317.3421,317.9121,right,0.55,,317.9121,0,2,318.903,0,19,19,19,1,8,0,7,0,,,,,,,,,,,,,,,,,,,,,,,,,,,,,,,,,,,,,,,,,
,,611ec49716b95cd9e2e981b4,65af55811410b53e6cb3740e,2024-01-23_08h38.31.966,bars,2023.2.3,Win32,60.24096386,657b66ea316d21385b68909f,,,,,,,,,,,,,,,,,,,,,,,,,,,,,,,,,,,,,,,,,,,,,,,,,,,,,,,,,,,,318.9061,340.759,space,21.8321,,,,,,,,,,,,,,,,,,,,,,,,,,,,,,,,,,,,,
,,611ec49716b95cd9e2e981b4,65af55811410b53e6cb3740e,2024-01-23_08h38.31.966,bars,2023.2.3,Win32,60.24096386,657b66ea316d21385b68909f,,,,,,,,,,,341.6899,342.688,,,343.1829,343.4312,,50,50,,,,,,,,,,,,,,,,bars/038.png,bars/mask001.png,,,,,,,,,,,,2,2,,,,,,,3,6,4,7,,,,,,340.7729,341.6848,space,0.9003,,342.6883,343.1826,343.4323,351.7084,space,8.2541,,351.7086,65,20,352.6997,352.6999,371.3875,space,18.6685,,0,0,0,0,1,165,70,,,,,,,,
,,611ec49716b95cd9e2e981b4,65af55811410b53e6cb3740e,2024-01-23_08h38.31.966,bars,2023.2.3,Win32,60.24096386,657b66ea316d21385b68909f,,,,,,,,,,,371.3992,372.401,,,372.9011,373.1502,,35,35,,,,,,,,,,,,,,,,bars/042.png,bars/mask005.png,,,,,,,,,,,,0,2,,,,,,,5,8,3,7,,,,,,,,,,,372.4011,372.901,373.1502,380.4384,space,7.2721,,380.4385,70,40,381.4364,381.4367,395.987,space,14.5281,,0,1,1,1,1,145,75,,,,,,,,
,,611ec49716b95cd9e2e981b4,65af55811410b53e6cb3740e,2024-01-23_08h38.31.966,bars,2023.2.3,Win32,60.24096386,657b66ea316d21385b68909f,,,,,,,,,,,395.9994,396.9945,,,397.4944,397.7433,,131,131,,,,,,,,,,,,,,,,bars/014.png,bars/mask007.png,,,,,,,,,,,,0,2,,,,,,,7,10,8,10,,,,,,,,,,,396.9947,397.4943,397.7436,403.8019,space,6.0335,,403.8032,51,49,404.7994,404.7998,413.1765,space,8.3546,,0,2,2,2,1,80,0,,,,,,,,
,,611ec49716b95cd9e2e981b4,65af55811410b53e6cb3740e,2024-01-23_08h38.31.966,bars,2023.2.3,Win32,60.24096386,657b66ea316d21385b68909f,,,,,,,,,,,413.1886,414.1837,,,414.6837,414.9333,,1,181,,,,,,,,,,,,,,,,bars/049.png,bars/mask003.png,,,,,,,,,,,,2,1,,,,,,,5,10,5,10,,,,,,,,,,,414.184,414.6835,414.9338,420.1313,space,5.1759,,420.1314,21,66,421.1229,421.1232,432.8213,space,11.6519,,0,3,3,3,1,160,115,,,,,,,,
,,611ec49716b95cd9e2e981b4,65af55811410b53e6cb3740e,2024-01-23_08h38.31.966,bars,2023.2.3,Win32,60.24096386,657b66ea316d21385b68909f,,,,,,,,,,,432.8341,433.8358,,,434.3356,434.5849,,170,170,,,,,,,,,,,,,,,,bars/008.png,bars/mask008.png,,,,,,,,,,,,5,2,,,,,,,3,10,2,8,,,,,,,,,,,433.8358,434.3355,434.5849,436.2322,space,1.6312,,436.2323,60,10,437.2306,437.2306,443.9037,space,6.6436,,0,4,4,4,1,110,0,,,,,,,,
,,611ec49716b95cd9e2e981b4,65af55811410b53e6cb3740e,2024-01-23_08h38.31.966,bars,2023.2.3,Win32,60.24096386,657b66ea316d21385b68909f,,,,,,,,,,,443.9148,444.918,,,445.4177,445.6667,,0,180,,,,,,,,,,,,,,,,bars/007.png,bars/mask004.png,,,,,,,,,,,,1,1,,,,,,,1,10,1,9,,,,,,,,,,,444.918,445.4175,445.6668,451.175,space,5.4918,,451.175,5,55,452.1732,452.1735,456.2669,space,4.0718,,0,5,5,5,1,175,55,,,,,,,,
,,611ec49716b95cd9e2e981b4,65af55811410b53e6cb3740e,2024-01-23_08h38.31.966,bars,2023.2.3,Win32,60.24096386,657b66ea316d21385b68909f,,,,,,,,,,,456.2781,457.2818,,,457.7812,458.0304,,177,177,,,,,,,,,,,,,,,,bars/044.png,bars/mask000.png,,,,,,,,,,,,3,2,,,,,,,3,10,1,10,,,,,,,,,,,457.2819,457.781,458.0305,461.309,space,3.265,,461.3092,78,22,462.307,462.3071,468.0812,space,5.7461,,0,6,6,6,1,75,155,,,,,,,,
,,611ec49716b95cd9e2e981b4,65af55811410b53e6cb3740e,2024-01-23_08h38.31.966,bars,2023.2.3,Win32,60.24096386,657b66ea316d21385b68909f,,,,,,,,,,,468.0921,469.0798,,,469.5787,469.8282,,168,168,,,,,,,,,,,,,,,,bars/018.png,bars/mask007.png,,,,,,,,,,,,2,1,,,,,,,5,10,5,10,,,,,,,,,,,469.0799,469.5785,469.8284,473.4062,space,3.5616,,473.4063,18,78,474.4042,474.4042,492.9084,space,18.4749,,0,7,7,7,1,150,90,,,,,,,,
,,611ec49716b95cd9e2e981b4,65af55811410b53e6cb3740e,2024-01-23_08h38.31.966,bars,2023.2.3,Win32,60.24096386,657b66ea316d21385b68909f,,,,,,,,,,,492.9211,493.9232,,,494.4224,494.672,,157,157,,,,,,,,,,,,,,,,bars/038.png,bars/mask000.png,,,,,,,,,,,,5,1,,,,,,,7,8,7,9,,,,,,,,,,,493.9233,494.4222,494.6722,497.8502,space,3.1619,,497.8502,8,87,498.8486,498.8488,501.8436,space,2.972,,0,8,8,8,1,165,70,,,,,,,,
,,611ec49716b95cd9e2e981b4,65af55811410b53e6cb3740e,2024-01-23_08h38.31.966,bars,2023.2.3,Win32,60.24096386,657b66ea316d21385b68909f,,,,,,,,,,,501.8557,502.8586,,,503.3581,503.6076,,161,161,,,,,,,,,,,,,,,,bars/023.png,bars/mask008.png,,,,,,,,,,,,0,1,,,,,,,5,6,7,5,,,,,,,,,,,502.8587,503.358,503.6078,507.4677,space,3.8441,,507.4678,39,46,508.4665,508.4666,511.645,space,3.1555,,0,9,9,9,1,20,115,,,,,,,,
,,611ec49716b95cd9e2e981b4,65af55811410b53e6cb3740e,2024-01-23_08h38.31.966,bars,2023.2.3,Win32,60.24096386,657b66ea316d21385b68909f,,,,,,,,,,,511.6561,512.6596,,,513.1592,513.4086,,18,198,,,,,,,,,,,,,,,,bars/020.png,bars/mask004.png,,,,,,,,,,,,1,2,,,,,,,7,8,7,10,,,,,,,,,,,512.6598,513.1591,513.4086,516.9531,space,3.5324,,516.9531,83,28,517.9514,517.9514,519.4991,space,1.5179,,0,10,10,10,1,115,170,,,,,,,,
,,611ec49716b95cd9e2e981b4,65af55811410b53e6cb3740e,2024-01-23_08h38.31.966,bars,2023.2.3,Win32,60.24096386,657b66ea316d21385b68909f,,,,,,,,,,,519.4998,520.4967,,,520.9964,521.2459,,158,-22,,,,,,,,,,,,,,,,bars/023.png,bars/mask000.png,,,,,,,,,,,,0,1,,,,,,,9,10,8,9,,,,,,,,,,,520.4968,520.9963,521.246,524.7407,space,3.4835,,524.7407,42,43,525.7389,525.7389,527.6694,space,1.9054,,0,11,11,11,1,20,115,,,,,,,,
,,611ec49716b95cd9e2e981b4,65af55811410b53e6cb3740e,2024-01-23_08h38.31.966,bars,2023.2.3,Win32,60.24096386,657b66ea316d21385b68909f,,,,,,,,,,,527.6697,528.6673,,,529.1668,529.4162,,17,197,,,,,,,,,,,,,,,,bars/043.png,bars/mask008.png,,,,,,,,,,,,5,1,,,,,,,10,10,9,10,,,,,,,,,,,528.6675,529.1668,529.4163,532.911,space,3.4779,,532.911,13,67,533.909,533.9092,538.1865,space,4.2584,,0,12,12,12,1,30,130,,,,,,,,
,,611ec49716b95cd9e2e981b4,65af55811410b53e6cb3740e,2024-01-23_08h38.31.966,bars,2023.2.3,Win32,60.24096386,657b66ea316d21385b68909f,,,,,,,,,,,538.1972,539.2004,,,539.6999,539.9493,,28,28,,,,,,,,,,,,,,,,bars/039.png,bars/mask005.png,,,,,,,,,,,,0,1,,,,,,,8,8,8,8,,,,,,,,,,,539.2004,539.6999,539.9493,544.6421,space,4.6765,,544.6422,33,77,545.6403,545.6404,547.3711,space,1.7039,,0,13,13,13,1,175,105,,,,,,,,
,,611ec49716b95cd9e2e981b4,65af55811410b53e6cb3740e,2024-01-23_08h38.31.966,bars,2023.2.3,Win32,60.24096386,657b66ea316d21385b68909f,,,,,,,,,,,547.3715,548.369,,,548.8687,549.1175,,7,187,,,,,,,,,,,,,,,,bars/004.png,bars/mask006.png,,,,,,,,,,,,4,1,,,,,,,10,10,10,10,,,,,,,,,,,548.3691,548.8687,549.1176,553.9941,space,4.8598,,553.9941,18,62,554.9922,554.9923,566.7402,space,11.7212,,0,14,14,14,1,25,125,,,,,,,,
,,611ec49716b95cd9e2e981b4,65af55811410b53e6cb3740e,2024-01-23_08h38.31.966,bars,2023.2.3,Win32,60.24096386,657b66ea316d21385b68909f,,,,,,,,,,,566.7527,567.7542,,,568.2537,568.5033,,11,11,,,,,,,,,,,,,,,,bars/045.png,bars/mask001.png,,,,,,,,,,,,10,2,,,,,,,8,10,6,10,,,,,,,,,,,567.7543,568.2537,568.5033,574.0448,space,5.5321,,574.0449,89,1,575.0425,575.0425,585.51,space,10.4378,,0,15,15,15,1,100,10,,,,,,,,
,,611ec49716b95cd9e2e981b4,65af55811410b53e6cb3740e,2024-01-23_08h38.31.966,bars,2023.2.3,Win32,60.24096386,657b66ea316d21385b68909f,,,,,,,,,,,585.5234,586.5246,,,587.0242,587.2735,,12,12,,,,,,,,,,,,,,,,bars/012.png,bars/mask009.png,,,,,,,,,,,,8,2,,,,,,,10,10,10,9,,,,,,,,,,,586.5247,587.0241,587.2735,590.918,space,3.6369,,590.9181,78,3,591.9155,591.9156,595.2274,space,3.2926,,0,16,16,16,1,90,15,,,,,,,,
,,611ec49716b95cd9e2e981b4,65af55811410b53e6cb3740e,2024-01-23_08h38.31.966,bars,2023.2.3,Win32,60.24096386,657b66ea316d21385b68909f,,,,,,,,,,,595.2278,596.2256,,,596.7249,596.9746,,11,11,,,,,,,,,,,,,,,,bars/042.png,bars/mask004.png,,,,,,,,,,,,0,1,,,,,,,10,10,10,10,,,,,,,,,,,596.2258,596.7249,596.9747,600.4028,space,3.4116,,600.4028,46,64,601.4008,601.4009,608.3734,space,6.9427,,0,17,17,17,1,145,75,,,,,,,,
,,611ec49716b95cd9e2e981b4,65af55811410b53e6cb3740e,2024-01-23_08h38.31.966,bars,2023.2.3,Win32,60.24096386,657b66ea316d21385b68909f,,,,,,,,,,,608.3859,609.3879,,,609.8875,610.1368,,165,-15,,,,,,,,,,,,,,,,bars/021.png,bars/mask000.png,,,,,,,,,,,,6,1,,,,,,,10,10,9,10,,,,,,,,,,,609.388,609.8874,610.137,615.5286,space,5.3751,,615.5286,10,85,616.5261,616.5263,618.7401,space,2.1871,,0,18,18,18,1,155,70,,,,,,,,
,,611ec49716b95cd9e2e981b4,65af55811410b53e6cb3740e,2024-01-23_08h38.31.966,bars,2023.2.3,Win32,60.24096386,657b66ea316d21385b68909f,,,,,,,,,,,618.7404,619.738,,,620.2374,620.4869,,163,-17,,,,,,,,,,,,,,,,bars/014.png,bars/mask001.png,,,,,,,,,,,,3,2,,,,,,,8,8,10,8,,,,,,,,,,,619.7381,620.2374,620.4869,624.9139,space,4.4172,,624.9142,83,17,625.9114,625.9115,627.9586,space,2.0178,,0,19,19,19,1,80,0,,,,,,,,
,,611ec49716b95cd9e2e981b4,65af55811410b53e6cb3740e,2024-01-23_08h38.31.966,bars,2023.2.3,Win32,60.24096386,657b66ea316d21385b68909f,,,,,,,,,,,627.9591,628.9572,,,629.4561,629.7055,,2,182,,,,,,,,,,,,,,,,bars/005.png,bars/mask003.png,,,,,,,,,,,,7,1,,,,,,,10,6,10,5,,,,,,,,,,,628.9572,629.4561,629.7056,635.7623,space,6.0407,,635.7625,8,42,636.7607,636.7609,639.1737,space,2.3907,,0,20,20,20,1,10,140,,,,,,,,
,,611ec49716b95cd9e2e981b4,65af55811410b53e6cb3740e,2024-01-23_08h38.31.966,bars,2023.2.3,Win32,60.24096386,657b66ea316d21385b68909f,,,,,,,,,,,639.1755,640.1715,,,640.6707,640.921,,14,194,,,,,,,,,,,,,,,,bars/006.png,bars/mask008.png,,,,,,,,,,,,3,1,,,,,,,10,4,10,5,,,,,,,,,,,640.1716,640.6706,640.921,644.9308,space,4.0007,,644.9309,21,86,645.9295,645.9296,648.4924,space,2.5398,,0,21,21,21,1,35,100,,,,,,,,
,,611ec49716b95cd9e2e981b4,65af55811410b53e6cb3740e,2024-01-23_08h38.31.966,bars,2023.2.3,Win32,60.24096386,657b66ea316d21385b68909f,,,,,,,,,,,648.493,649.4904,,,649.9898,650.2394,,35,35,,,,,,,,,,,,,,,,bars/042.png,bars/mask003.png,,,,,,,,,,,,0,2,,,,,,,8,2,9,0,,,,,,,,,,,649.4904,649.9898,650.2394,652.9019,space,2.6463,,652.9019,70,40,653.9001,653.9002,656.5461,space,2.6225,,0,22,22,22,1,145,75,,,,,,,,
,,611ec49716b95cd9e2e981b4,65af55811410b53e6cb3740e,2024-01-23_08h38.31.966,bars,2023.2.3,Win32,60.24096386,657b66ea316d21385b68909f,,,,,,,,,,,656.5467,657.5443,,,658.0435,658.2931,,70,70,,,,,,,,,,,,,,,,bars/013.png,bars/mask005.png,,,,,,,,,,,,5,1,,,,,,,6,4,6,3,,,,,,,,,,,657.5444,658.0434,658.2931,660.7395,space,2.4302,,660.7395,5,60,661.7369,661.7369,664.5499,space,2.7876,,0,23,23,23,1,75,10,,,,,,,,
,,611ec49716b95cd9e2e981b4,65af55811410b53e6cb3740e,2024-01-23_08h38.31.966,bars,2023.2.3,Win32,60.24096386,657b66ea316d21385b68909f,,,,,,,,,,,664.5504,665.548,,,666.0472,666.2968,,69,69,,,,,,,,,,,,,,,,bars/044.png,bars/mask008.png,,,,,,,,,,,,6,1,,,,,,,8,6,8,6,,,,,,,,,,,665.5481,666.0471,666.297,670.5238,space,4.2114,,670.5239,6,86,671.5217,671.5218,673.8509,space,2.3027,,0,24,24,24,1,75,155,,,,,,,,
,,611ec49716b95cd9e2e981b4,65af55811410b53e6cb3740e,2024-01-23_08h38.31.966,bars,2023.2.3,Win32,60.24096386,657b66ea316d21385b68909f,,,,,,,,,,,673.8513,674.8497,,,675.3485,675.5981,,68,68,,,,,,,,,,,,,,,,bars/039.png,bars/mask001.png,,,,,,,,,,,,0,2,,,,,,,10,4,10,5,,,,,,,,,,,674.8498,675.3485,675.5982,679.5259,space,3.917,,679.5259,73,37,680.5244,680.5245,682.3713,space,1.8178,,0,25,25,25,1,175,105,,,,,,,,
,,611ec49716b95cd9e2e981b4,65af55811410b53e6cb3740e,2024-01-23_08h38.31.966,bars,2023.2.3,Win32,60.24096386,657b66ea316d21385b68909f,,,,,,,,,,,682.3718,683.3694,,,683.8689,684.1184,,104,104,,,,,,,,,,,,,,,,bars/044.png,bars/mask008.png,,,,,,,,,,,,0,1,,,,,,,10,2,10,2,,,,,,,,,,,683.3695,683.8688,684.1184,686.5142,space,2.3875,,686.5145,29,51,687.5132,687.5133,690.5084,space,2.9628,,0,26,26,26,1,75,155,,,,,,,,
,,611ec49716b95cd9e2e981b4,65af55811410b53e6cb3740e,2024-01-23_08h38.31.966,bars,2023.2.3,Win32,60.24096386,657b66ea316d21385b68909f,,,,,,,,,,,690.5087,691.5063,,,692.0058,692.2551,,76,76,,,,,,,,,,,,,,,,bars/029.png,bars/mask004.png,,,,,,,,,,,,4,1,,,,,,,8,4,7,4,,,,,,,,,,,691.5065,692.0057,692.2552,695.3839,space,3.1121,,695.384,14,31,696.3819,696.382,697.9297,space,1.5266,,0,27,27,27,1,90,45,,,,,,,,
,,611ec49716b95cd9e2e981b4,65af55811410b53e6cb3740e,2024-01-23_08h38.31.966,bars,2023.2.3,Win32,60.24096386,657b66ea316d21385b68909f,,,,,,,,,,,697.9301,698.9279,,,699.4267,699.6767,,89,89,,,,,,,,,,,,,,,,bars/029.png,bars/mask000.png,,,,,,,,,,,,4,1,,,,,,,6,6,4,7,,,,,,,,,,,698.928,699.4267,699.6768,706.1502,space,6.4614,,706.1503,1,44,707.1477,707.1478,709.3282,space,2.1547,,0,28,28,28,1,90,45,,,,,,,,
,,611ec49716b95cd9e2e981b4,65af55811410b53e6cb3740e,2024-01-23_08h38.31.966,bars,2023.2.3,Win32,60.24096386,657b66ea316d21385b68909f,,,,,,,,,,,709.3285,710.3261,,,710.8257,711.0752,,90,90,,,,,,,,,,,,,,,,bars/014.png,bars/mask004.png,,,,,,,,,,,,2,1,,,,,,,4,4,3,4,,,,,,,,,,,710.3263,710.8256,711.0752,712.2754,space,1.1911,,712.2757,10,90,713.2713,713.2713,714.5196,space,1.2241,,0,29,29,29,1,80,0,,,,,,,,
,,611ec49716b95cd9e2e981b4,65af55811410b53e6cb3740e,2024-01-23_08h38.31.966,bars,2023.2.3,Win32,60.24096386,657b66ea316d21385b68909f,,,,,,,,,,,714.5201,715.518,,,716.0174,716.2666,,75,75,,,,,,,,,,,,,,,,bars/044.png,bars/mask001.png,,,,,,,,,,,,6,1,,,,,,,6,2,6,3,,,,,,,,,,,715.5181,716.0172,716.2668,722.1577,space,5.8747,,722.1577,0,80,723.1556,723.1559,729.5789,space,6.4029,,0,30,30,30,1,75,155,,,,,,,,
,,611ec49716b95cd9e2e981b4,65af55811410b53e6cb3740e,2024-01-23_08h38.31.966,bars,2023.2.3,Win32,60.24096386,657b66ea316d21385b68909f,,,,,,,,,,,729.5912,730.5936,,,731.0932,731.3426,,77,77,,,,,,,,,,,,,,,,bars/043.png,bars/mask000.png,,,,,,,,,,,,0,1,,,,,,,4,0,5,0,,,,,,,,,,,730.5936,731.0932,731.3426,736.118,space,4.7599,,736.118,47,53,737.1166,737.1167,738.3148,space,1.1765,,0,31,31,31,1,30,130,,,,,,,,
,,611ec49716b95cd9e2e981b4,65af55811410b53e6cb3740e,2024-01-23_08h38.31.966,bars,2023.2.3,Win32,60.24096386,657b66ea316d21385b68909f,,,,,,,,,,,738.3151,739.3135,,,739.8125,740.0621,,48,48,,,,,,,,,,,,,,,,bars/007.png,bars/mask001.png,,,,,,,,,,,,2,2,,,,,,,6,2,6,2,,,,,,,,,,,739.3136,739.8124,740.0622,743.4066,space,3.336,,743.4067,53,7,744.4044,744.4045,745.7532,space,1.3202,,0,32,32,32,1,175,55,,,,,,,,
,,611ec49716b95cd9e2e981b4,65af55811410b53e6cb3740e,2024-01-23_08h38.31.966,bars,2023.2.3,Win32,60.24096386,657b66ea316d21385b68909f,,,,,,,,,,,745.7535,746.7511,,,747.2502,747.5,,55,55,,,,,,,,,,,,,,,,bars/036.png,bars/mask004.png,,,,,,,,,,,,0,2,,,,,,,8,4,10,5,,,,,,,,,,,746.7511,747.2502,747.5003,752.3925,space,4.8767,,752.3925,90,35,753.3904,753.3905,754.6716,space,1.2628,,0,33,33,33,1,145,20,,,,,,,,
,,611ec49716b95cd9e2e981b4,65af55811410b53e6cb3740e,2024-01-23_08h38.31.966,bars,2023.2.3,Win32,60.24096386,657b66ea316d21385b68909f,,,,,,,,,,,754.6723,755.6702,,,756.169,756.4193,,17,17,,,,,,,,,,,,,,,,bars/030.png,bars/mask000.png,,,,,,,,,,,,0,2,,,,,,,10,6,8,5,,,,,,,,,,,755.6702,756.1689,756.4194,757.967,space,1.5317,,757.967,57,48,758.9648,758.9649,759.9471,space,0.9662,,0,34,34,34,1,140,65,,,,,,,,
,,611ec49716b95cd9e2e981b4,65af55811410b53e6cb3740e,2024-01-23_08h38.31.966,bars,2023.2.3,Win32,60.24096386,657b66ea316d21385b68909f,,,,,,,,,,,759.9474,760.9451,,,761.4444,761.6941,,60,60,,,,,,,,,,,,,,,,bars/042.png,bars/mask000.png,,,,,,,,,,,,4,2,,,,,,,10,8,10,8,,,,,,,,,,,760.9453,761.4443,761.6942,764.7894,space,3.0791,,764.7895,85,15,765.7874,765.7876,766.7862,space,0.9713,,0,35,35,35,1,145,75,,,,,,,,
,,611ec49716b95cd9e2e981b4,65af55811410b53e6cb3740e,2024-01-23_08h38.31.966,bars,2023.2.3,Win32,60.24096386,657b66ea316d21385b68909f,,,,,,,,,,,766.7865,767.7841,,,768.2836,768.5332,,76,76,,,,,,,,,,,,,,,,bars/040.png,bars/mask005.png,,,,,,,,,,,,0,1,,,,,,,8,10,8,10,,,,,,,,,,,767.7841,768.2835,768.5332,770.1807,space,1.6315,,770.1808,64,71,771.1784,771.1785,772.6269,space,1.4274,,0,36,36,36,1,140,5,,,,,,,,
,,611ec49716b95cd9e2e981b4,65af55811410b53e6cb3740e,2024-01-23_08h38.31.966,bars,2023.2.3,Win32,60.24096386,657b66ea316d21385b68909f,,,,,,,,,,,772.6277,773.6246,,,774.124,774.3737,,127,127,,,,,,,,,,,,,,,,bars/005.png,bars/mask002.png,,,,,,,,,,,,5,2,,,,,,,6,10,5,9,,,,,,,,,,,773.6247,774.124,774.3738,777.8018,space,3.4119,,777.8019,63,13,778.8003,778.8003,781.446,space,2.6198,,0,37,37,37,1,10,140,,,,,,,,
,,611ec49716b95cd9e2e981b4,65af55811410b53e6cb3740e,2024-01-23_08h38.31.966,bars,2023.2.3,Win32,60.24096386,657b66ea316d21385b68909f,,,,,,,,,,,781.4463,782.4441,,,782.9434,783.1928,,132,132,,,,,,,,,,,,,,,,bars/019.png,bars/mask007.png,,,,,,,,,,,,1,2,,,,,,,4,8,4,8,,,,,,,,,,,782.4441,782.9432,783.1929,785.3896,space,2.1806,,785.3897,87,27,786.3882,786.3882,787.4023,space,0.9869,,0,38,38,38,1,45,105,,,,,,,,
,,611ec49716b95cd9e2e981b4,65af55811410b53e6cb3740e,2024-01-23_08h38.31.966,bars,2023.2.3,Win32,60.24096386,657b66ea316d21385b68909f,,,,,,,,,,,787.4027,788.4013,,,788.9005,789.1497,,111,111,,,,,,,,,,,,,,,,bars/024.png,bars/mask008.png,,,,,,,,,,,,1,1,,,,,,,2,6,2,5,,,,,,,,,,,788.4014,788.9004,789.1498,794.7747,space,5.6126,,794.7747,9,59,795.7727,795.7728,797.6534,space,1.8505,,0,39,39,39,1,120,170,,,,,,,,
,,611ec49716b95cd9e2e981b4,65af55811410b53e6cb3740e,2024-01-23_08h38.31.966,bars,2023.2.3,Win32,60.24096386,657b66ea316d21385b68909f,,,,,,,,,,,797.6544,798.6513,,,799.1508,799.4005,,112,112,,,,,,,,,,,,,,,,bars/029.png,bars/mask003.png,,,,,,,,,,,,1,1,,,,,,,4,8,5,7,,,,,,,,,,,798.6514,799.1508,799.4005,803.5771,space,4.1663,,803.5772,22,67,804.5752,804.5753,806.1063,space,1.511,,0,40,40,40,1,90,45,,,,,,,,
,,611ec49716b95cd9e2e981b4,65af55811410b53e6cb3740e,2024-01-23_08h38.31.966,bars,2023.2.3,Win32,60.24096386,657b66ea316d21385b68909f,,,,,,,,,,,806.1072,807.1045,,,807.6035,807.8526,,88,88,,,,,,,,,,,,,,,,bars/011.png,bars/mask006.png,,,,,,,,,,,,5,2,,,,,,,2,6,2,5,,,,,,,,,,,807.1046,807.6034,807.8527,810.0168,space,2.1505,,810.0169,72,3,811.0145,811.0145,812.6127,space,1.5694,,0,41,41,41,1,160,85,,,,,,,,
,,611ec49716b95cd9e2e981b4,65af55811410b53e6cb3740e,2024-01-23_08h38.31.966,bars,2023.2.3,Win32,60.24096386,657b66ea316d21385b68909f,,,,,,,,,,,812.6134,813.6112,,,814.1099,814.3595,,89,89,,,,,,,,,,,,,,,,bars/048.png,bars/mask005.png,,,,,,,,,,,,0,1,,,,,,,0,4,0,3,,,,,,,,,,,813.6112,814.1099,814.3595,820.6495,space,6.2775,,820.6496,39,86,821.6474,821.6475,823.0457,space,1.3689,,0,42,42,42,1,50,175,,,,,,,,
,,611ec49716b95cd9e2e981b4,65af55811410b53e6cb3740e,2024-01-23_08h38.31.966,bars,2023.2.3,Win32,60.24096386,657b66ea316d21385b68909f,,,,,,,,,,,823.046,824.0437,,,824.5428,824.7936,,61,61,,,,,,,,,,,,,,,,bars/017.png,bars/mask006.png,,,,,,,,,,,,1,2,,,,,,,2,2,1,3,,,,,,,,,,,824.0438,824.5428,824.7936,828.9033,space,4.096,,828.9034,84,16,829.9013,829.9014,831.4159,space,1.485,,0,43,43,43,1,145,45,,,,,,,,
,,611ec49716b95cd9e2e981b4,65af55811410b53e6cb3740e,2024-01-23_08h38.31.966,bars,2023.2.3,Win32,60.24096386,657b66ea316d21385b68909f,,,,,,,,,,,831.4163,832.414,,,832.9134,833.1628,,53,53,,,,,,,,,,,,,,,,bars/038.png,bars/mask004.png,,,,,,,,,,,,2,2,,,,,,,4,4,5,4,,,,,,,,,,,832.4141,832.9133,833.1629,834.1947,space,1.0178,,834.1948,68,17,835.193,835.1931,836.1748,space,0.9637,,0,44,44,44,1,165,70,,,,,,,,
,,611ec49716b95cd9e2e981b4,65af55811410b53e6cb3740e,2024-01-23_08h38.31.966,bars,2023.2.3,Win32,60.24096386,657b66ea316d21385b68909f,,,,,,,,,,,836.1752,837.1731,,,837.6724,837.922,,64,64,,,,,,,,,,,,,,,,bars/017.png,bars/mask004.png,,,,,,,,,,,,1,2,,,,,,,6,2,5,2,,,,,,,,,,,837.1732,837.6722,837.922,842.2153,space,4.2771,,842.2153,81,19,843.2134,843.2134,844.3283,space,1.0881,,0,45,45,45,1,145,45,,,,,,,,
,,611ec49716b95cd9e2e981b4,65af55811410b53e6cb3740e,2024-01-23_08h38.31.966,bars,2023.2.3,Win32,60.24096386,657b66ea316d21385b68909f,,,,,,,,,,,844.3286,845.3261,,,845.8262,846.0755,,45,45,,,,,,,,,,,,,,,,bars/043.png,bars/mask006.png,,,,,,,,,,,,3,1,,,,,,,4,4,5,2,,,,,,,,,,,845.3261,845.8262,846.0756,849.8198,space,3.7283,,849.8198,15,85,850.818,850.8181,852.2659,space,1.4213,,0,46,46,46,1,30,130,,,,,,,,
,,611ec49716b95cd9e2e981b4,65af55811410b53e6cb3740e,2024-01-23_08h38.31.966,bars,2023.2.3,Win32,60.24096386,657b66ea316d21385b68909f,,,,,,,,,,,852.2662,853.2638,,,853.7634,854.0128,,21,21,,,,,,,,,,,,,,,,bars/009.png,bars/mask006.png,,,,,,,,,,,,6,1,,,,,,,6,2,7,2,,,,,,,,,,,853.2639,853.7634,854.0129,855.3276,space,1.3003,,855.3277,6,84,856.3256,856.3257,857.2075,space,0.8568,,0,47,47,47,1,15,105,,,,,,,,
,,611ec49716b95cd9e2e981b4,65af55811410b53e6cb3740e,2024-01-23_08h38.31.966,bars,2023.2.3,Win32,60.24096386,657b66ea316d21385b68909f,,,,,,,,,,,857.2078,858.2059,,,858.7053,858.955,,26,26,,,,,,,,,,,,,,,,bars/033.png,bars/mask009.png,,,,,,,,,,,,3,1,,,,,,,4,4,3,3,,,,,,,,,,,858.206,858.7052,858.955,861.0851,space,2.1171,,861.0851,1,51,862.0833,862.0834,863.4313,space,1.3206,,0,48,48,48,1,25,155,,,,,,,,
,,611ec49716b95cd9e2e981b4,65af55811410b53e6cb3740e,2024-01-23_08h38.31.966,bars,2023.2.3,Win32,60.24096386,657b66ea316d21385b68909f,,,,,,,,,,,863.4317,864.4293,,,864.9286,865.1781,,14,14,,,,,,,,,,,,,,,,bars/017.png,bars/mask008.png,,,,,,,,,,,,0,2,,,,,,,2,2,1,2,,,,,,,,,,,864.4293,864.9284,865.1782,866.2935,space,1.0987,,866.2935,49,31,867.2913,867.2913,873.7473,space,6.4433,,0,49,49,49,1,145,45,,,,,,,,
,,611ec49716b95cd9e2e981b4,65af55811410b53e6cb3740e,2024-01-23_08h38.31.966,bars,2023.2.3,Win32,60.24096386,657b66ea316d21385b68909f,,,,,,,,,,,,,,,,,,,,,,,,,,,,,,,,,,,,,,,,,,,,,,,,,,,,,,,,,,,,,,,,,,,,,,,,,,,,,,,,,,,,,,,,,,,,,873.7587,933.7532,0,0,0,2,1,sequence_tables/blk020.csv
,,611ec49716b95cd9e2e981b4,65af55811410b53e6cb3740e,2024-01-23_08h38.31.966,bars,2023.2.3,Win32,60.24096386,657b66ea316d21385b68909f,,,,,,,,,,,936.155,937.1461,,,937.6454,937.8949,,83,83,,,,,,,,,,,,,,,,bars/021.png,bars/mask007.png,,,,,,,,,,,,0,2,,,,,,,6,1,6,0,,,,,,933.7656,936.148,space,2.3685,,937.1463,937.6452,937.895,945.451,space,7.5472,,945.4515,72,13,946.4475,946.4476,946.4606,,,,0,0,0,0,1,155,70,,,,,,,,
,,611ec49716b95cd9e2e981b4,65af55811410b53e6cb3740e,2024-01-23_08h38.31.966,bars,2023.2.3,Win32,60.24096386,657b66ea316d21385b68909f,,,,,,,,,,,946.4608,947.463,,,947.9621,948.2119,,133,133,,,,,,,,,,,,,,,,bars/010.png,bars/mask006.png,,,,,,,,,,,,0,1,,,,,,,8,3,8,3,,,,,,,,,,,947.4632,947.962,948.212,954.8846,space,6.6582,,954.8848,32,78,955.8828,955.8829,955.8963,,,,0,1,1,1,1,165,55,,,,,,,,
,,611ec49716b95cd9e2e981b4,65af55811410b53e6cb3740e,2024-01-23_08h38.31.966,bars,2023.2.3,Win32,60.24096386,657b66ea316d21385b68909f,,,,,,,,,,,955.8966,956.8981,,,957.3972,957.6466,,41,41,,,,,,,,,,,,,,,,bars/018.png,bars/mask005.png,,,,,,,,,,,,0,2,,,,,,,10,5,10,6,,,,,,,,,,,956.8981,957.3972,957.6467,962.1065,space,4.4492,,962.1066,71,49,963.1045,963.1047,963.1169,,,,0,2,2,2,1,150,90,,,,,,,,
,,611ec49716b95cd9e2e981b4,65af55811410b53e6cb3740e,2024-01-23_08h38.31.966,bars,2023.2.3,Win32,60.24096386,657b66ea316d21385b68909f,,,,,,,,,,,963.1172,964.1197,,,964.6187,964.8684,,7,7,,,,,,,,,,,,,,,,bars/006.png,bars/mask006.png,,,,,,,,,,,,1,1,,,,,,,10,3,9,2,,,,,,,,,,,964.1197,964.6186,964.8685,965.6007,space,0.7229,,965.6007,28,87,966.5989,966.599,966.6035,,,,0,3,3,3,1,35,100,,,,,,,,
,,611ec49716b95cd9e2e981b4,65af55811410b53e6cb3740e,2024-01-23_08h38.31.966,bars,2023.2.3,Win32,60.24096386,657b66ea316d21385b68909f,,,,,,,,,,,966.6037,967.5968,,,968.0967,968.3461,,0,180,,,,,,,,,,,,,,,,bars/029.png,bars/mask002.png,,,,,,,,,,,,0,2,,,,,,,8,1,7,1,,,,,,,,,,,967.5969,968.0967,968.3462,974.1038,space,5.7431,,974.1039,90,45,975.1019,975.102,975.1145,,,,0,4,4,4,1,90,45,,,,,,,,
,,611ec49716b95cd9e2e981b4,65af55811410b53e6cb3740e,2024-01-23_08h38.31.966,bars,2023.2.3,Win32,60.24096386,657b66ea316d21385b68909f,,,,,,,,,,,975.1147,976.1171,,,976.6164,976.8658,,31,31,,,,,,,,,,,,,,,,bars/024.png,bars/mask006.png,,,,,,,,,,,,0,2,,,,,,,6,0,6,0,,,,,,,,,,,976.1172,976.6164,976.8659,977.8145,space,0.9391,,977.8145,89,41,978.8127,978.8128,978.8145,,,,0,5,5,5,1,120,170,,,,,,,,
,,611ec49716b95cd9e2e981b4,65af55811410b53e6cb3740e,2024-01-23_08h38.31.966,bars,2023.2.3,Win32,60.24096386,657b66ea316d21385b68909f,,,,,,,,,,,978.8162,979.8109,,,980.31,980.5601,,138,138,,,,,,,,,,,,,,,,bars/009.png,bars/mask007.png,,,,,,,,,,,,0,2,,,,,,,8,0,7,1,,,,,,,,,,,979.8112,980.31,980.5601,981.1592,space,0.5855,,981.1592,57,33,982.1568,982.157,982.158,,,,0,6,6,6,1,15,105,,,,,,,,
,,611ec49716b95cd9e2e981b4,65af55811410b53e6cb3740e,2024-01-23_08h38.31.966,bars,2023.2.3,Win32,60.24096386,657b66ea316d21385b68909f,,,,,,,,,,,982.1591,983.1557,,,983.6551,983.9045,,88,88,,,,,,,,,,,,,,,,bars/021.png,bars/mask000.png,,,,,,,,,,,,1,2,,,,,,,10,2,10,3,,,,,,,,,,,983.1558,983.6551,983.9047,986.9994,space,3.0802,,986.9994,67,18,987.998,987.9982,988.0098,,,,0,7,7,7,1,155,70,,,,,,,,
,,611ec49716b95cd9e2e981b4,65af55811410b53e6cb3740e,2024-01-23_08h38.31.966,bars,2023.2.3,Win32,60.24096386,657b66ea316d21385b68909f,,,,,,,,,,,988.0099,989.0134,,,989.5124,989.7621,,162,162,,,,,,,,,,,,,,,,bars/049.png,bars/mask000.png,,,,,,,,,,,,8,1,,,,,,,8,0,9,0,,,,,,,,,,,989.0134,989.5123,989.7621,990.744,space,0.9692,,990.744,2,47,991.7423,991.7423,991.7463,,,,0,8,8,8,1,160,115,,,,,,,,
,,611ec49716b95cd9e2e981b4,65af55811410b53e6cb3740e,2024-01-23_08h38.31.966,bars,2023.2.3,Win32,60.24096386,657b66ea316d21385b68909f,,,,,,,,,,,991.7466,992.74,,,993.2397,993.4889,,72,72,,,,,,,,,,,,,,,,bars/020.png,bars/mask004.png,,,,,,,,,,,,0,1,,,,,,,6,0,8,0,,,,,,,,,,,992.7401,993.2396,993.489,994.1552,space,0.6501,,994.1553,43,82,995.1533,995.1533,995.1547,,,,0,9,9,9,1,115,170,,,,,,,,
,,611ec49716b95cd9e2e981b4,65af55811410b53e6cb3740e,2024-01-23_08h38.31.966,bars,2023.2.3,Win32,60.24096386,657b66ea316d21385b68909f,,,,,,,,,,,995.1559,996.1516,,,996.6508,996.9001,,129,129,,,,,,,,,,,,,,,,bars/035.png,bars/mask006.png,,,,,,,,,,,,0,1,,,,,,,4,2,3,0,,,,,,,,,,,996.1517,996.6507,996.9002,997.3834,space,0.4712,,997.3835,46,69,998.3808,998.3809,998.3829,,,,0,10,10,10,1,175,60,,,,,,,,
,,611ec49716b95cd9e2e981b4,65af55811410b53e6cb3740e,2024-01-23_08h38.31.966,bars,2023.2.3,Win32,60.24096386,657b66ea316d21385b68909f,,,,,,,,,,,998.3843,999.3799,,,999.8786,1000.1283,,56,56,,,,,,,,,,,,,,,,bars/014.png,bars/mask003.png,,,,,,,,,,,,0,1,,,,,,,2,0,2,1,,,,,,,,,,,999.38,999.8785,1000.1285,1001.4434,space,1.299,,1001.4435,24,56,1002.4415,1002.4415,1002.4531,,,,0,11,11,11,1,80,0,,,,,,,,
,,611ec49716b95cd9e2e981b4,65af55811410b53e6cb3740e,2024-01-23_08h38.31.966,bars,2023.2.3,Win32,60.24096386,657b66ea316d21385b68909f,,,,,,,,,,,1002.4534,1003.4568,,,1003.9559,1004.2049,,109,109,,,,,,,,,,,,,,,,bars/015.png,bars/mask001.png,,,,,,,,,,,,6,1,,,,,,,4,2,6,2,,,,,,,,,,,1003.4568,1003.9558,1004.205,1004.8713,space,0.6567,,1004.8713,1,51,1005.869,1005.8691,1005.8709,,,,0,12,12,12,1,110,160,,,,,,,,
,,611ec49716b95cd9e2e981b4,65af55811410b53e6cb3740e,2024-01-23_08h38.31.966,bars,2023.2.3,Win32,60.24096386,657b66ea316d21385b68909f,,,,,,,,,,,1005.8725,1006.8677,,,1007.3673,1007.6165,,109,109,,,,,,,,,,,,,,,,bars/037.png,bars/mask002.png,,,,,,,,,,,,2,2,,,,,,,2,0,2,2,,,,,,,,,,,1006.8677,1007.3671,1007.6166,1010.2127,space,2.5887,,1010.2129,41,4,1011.2108,1011.2109,1011.2232,,,,0,13,13,13,1,150,105,,,,,,,,
,,611ec49716b95cd9e2e981b4,65af55811410b53e6cb3740e,2024-01-23_08h38.31.966,bars,2023.2.3,Win32,60.24096386,657b66ea316d21385b68909f,,,,,,,,,,,1011.2234,1012.2259,,,1012.725,1012.9746,,5,5,,,,,,,,,,,,,,,,bars/030.png,bars/mask006.png,,,,,,,,,,,,0,1,,,,,,,4,0,6,0,,,,,,,,,,,1012.2261,1012.725,1012.9747,1013.7238,space,0.7359,,1013.7238,45,60,1014.722,1014.7221,1014.7261,,,,0,14,14,14,1,140,65,,,,,,,,
,,611ec49716b95cd9e2e981b4,65af55811410b53e6cb3740e,2024-01-23_08h38.31.966,bars,2023.2.3,Win32,60.24096386,657b66ea316d21385b68909f,,,,,,,,,,,1014.7264,1015.7202,,,1016.2192,1016.4698,,84,84,,,,,,,,,,,,,,,,bars/048.png,bars/mask009.png,,,,,,,,,,,,0,1,,,,,,,6,2,6,3,,,,,,,,,,,1015.7203,1016.2192,1016.4698,1017.0013,space,0.5228,,1017.0014,34,89,1017.9999,1018.0001,1018.0015,,,,0,15,15,15,1,50,175,,,,,,,,
,,611ec49716b95cd9e2e981b4,65af55811410b53e6cb3740e,2024-01-23_08h38.31.966,bars,2023.2.3,Win32,60.24096386,657b66ea316d21385b68909f,,,,,,,,,,,1018.0029,1018.9981,,,1019.4971,1019.747,,31,31,,,,,,,,,,,,,,,,bars/007.png,bars/mask006.png,,,,,,,,,,,,0,2,,,,,,,8,4,9,2,,,,,,,,,,,1018.9982,1019.4971,1019.7471,1020.5624,space,0.8053,,1020.5625,36,24,1021.5609,1021.561,1021.565,,,,0,16,16,16,1,175,55,,,,,,,,
,,611ec49716b95cd9e2e981b4,65af55811410b53e6cb3740e,2024-01-23_08h38.31.966,bars,2023.2.3,Win32,60.24096386,657b66ea316d21385b68909f,,,,,,,,,,,1021.5653,1022.5599,,,1023.0583,1023.3081,,137,137,,,,,,,,,,,,,,,,bars/009.png,bars/mask004.png,,,,,,,,,,,,0,2,,,,,,,6,2,5,1,,,,,,,,,,,1022.5599,1023.0582,1023.3082,1024.14,space,0.8158,,1024.14,58,32,1025.1382,1025.1382,1025.1395,,,,0,17,17,17,1,15,105,,,,,,,,
,,611ec49716b95cd9e2e981b4,65af55811410b53e6cb3740e,2024-01-23_08h38.31.966,bars,2023.2.3,Win32,60.24096386,657b66ea316d21385b68909f,,,,,,,,,,,1025.1405,1026.137,,,1026.6363,1026.8856,,162,-18,,,,,,,,,,,,,,,,bars/007.png,bars/mask004.png,,,,,,,,,,,,2,1,,,,,,,4,0,4,0,,,,,,,,,,,1026.1371,1026.6362,1026.8857,1027.7178,space,0.8158,,1027.7179,13,73,1028.716,1028.7161,1028.721,,,,0,18,18,18,1,175,55,,,,,,,,
,,611ec49716b95cd9e2e981b4,65af55811410b53e6cb3740e,2024-01-23_08h38.31.966,bars,2023.2.3,Win32,60.24096386,657b66ea316d21385b68909f,,,,,,,,,,,1028.7212,1029.714,,,1030.2141,1030.463,,3,3,,,,,,,,,,,,,,,,bars/026.png,bars/mask005.png,,,,,,,,,,,,0,1,,,,,,,6,2,6,2,,,,,,,,,,,1029.714,1030.2141,1030.463,1031.1956,space,0.7167,,1031.1957,32,82,1032.194,1032.194,1032.1955,,,,0,19,19,19,1,35,85,,,,,,,,
,,611ec49716b95cd9e2e981b4,65af55811410b53e6cb3740e,2024-01-23_08h38.31.966,bars,2023.2.3,Win32,60.24096386,657b66ea316d21385b68909f,,,,,,,,,,,1032.1969,1033.1924,,,1033.6916,1033.9405,,48,48,,,,,,,,,,,,,,,,bars/018.png,bars/mask007.png,,,,,,,,,,,,0,2,,,,,,,8,4,7,6,,,,,,,,,,,1033.1924,1033.6915,1033.9405,1034.424,space,0.4688,,1034.4241,78,42,1035.4221,1035.4221,1035.4265,,,,0,20,20,20,1,150,90,,,,,,,,
,,611ec49716b95cd9e2e981b4,65af55811410b53e6cb3740e,2024-01-23_08h38.31.966,bars,2023.2.3,Win32,60.24096386,657b66ea316d21385b68909f,,,,,,,,,,,1035.4267,1036.4204,,,1036.9199,1037.1691,,122,122,,,,,,,,,,,,,,,,bars/018.png,bars/mask003.png,,,,,,,,,,,,1,1,,,,,,,10,6,9,8,,,,,,,,,,,1036.4205,1036.9199,1037.1692,1038.384,space,1.2011,,1038.3842,28,32,1039.3823,1039.3823,1039.3864,,,,0,21,21,21,1,150,90,,,,,,,,
,,611ec49716b95cd9e2e981b4,65af55811410b53e6cb3740e,2024-01-23_08h38.31.966,bars,2023.2.3,Win32,60.24096386,657b66ea316d21385b68909f,,,,,,,,,,,1039.3867,1040.3809,,,1040.88,1041.1297,,65,65,,,,,,,,,,,,,,,,bars/041.png,bars/mask006.png,,,,,,,,,,,,1,2,,,,,,,8,4,8,4,,,,,,,,,,,1040.381,1040.88,1041.1297,1043.8253,space,2.6867,,1043.8254,45,20,1044.8238,1044.8239,1044.8362,,,,0,22,22,22,1,20,85,,,,,,,,
,,611ec49716b95cd9e2e981b4,65af55811410b53e6cb3740e,2024-01-23_08h38.31.966,bars,2023.2.3,Win32,60.24096386,657b66ea316d21385b68909f,,,,,,,,,,,1044.8364,1045.8386,,,1046.338,1046.5874,,107,107,,,,,,,,,,,,,,,,bars/016.png,bars/mask006.png,,,,,,,,,,,,0,2,,,,,,,10,2,10,1,,,,,,,,,,,1045.8388,1046.3379,1046.5876,1050.5981,space,3.9967,,1050.5982,67,58,1051.5961,1051.5963,1051.6079,,,,0,23,23,23,1,40,165,,,,,,,,
,,611ec49716b95cd9e2e981b4,65af55811410b53e6cb3740e,2024-01-23_08h38.31.966,bars,2023.2.3,Win32,60.24096386,657b66ea316d21385b68909f,,,,,,,,,,,1051.6082,1052.6108,,,1053.1106,1053.3599,,57,57,,,,,,,,,,,,,,,,bars/011.png,bars/mask002.png,,,,,,,,,,,,0,2,,,,,,,10,4,10,4,,,,,,,,,,,1052.6109,1053.1106,1053.36,1054.7249,space,1.3481,,1054.7249,77,28,1055.7229,1055.723,1055.7244,,,,0,24,24,24,1,160,85,,,,,,,,
,,611ec49716b95cd9e2e981b4,65af55811410b53e6cb3740e,2024-01-23_08h38.31.966,bars,2023.2.3,Win32,60.24096386,657b66ea316d21385b68909f,,,,,,,,,,,1055.7258,1056.721,,,1057.2207,1057.4703,,175,-5,,,,,,,,,,,,,,,,bars/007.png,bars/mask009.png,,,,,,,,,,,,9,1,,,,,,,10,6,9,5,,,,,,,,,,,1056.721,1057.2205,1057.4703,1060.9814,space,3.5004,,1060.9815,0,60,1061.9796,1061.9796,1061.9922,,,,0,25,25,25,1,175,55,,,,,,,,
,,611ec49716b95cd9e2e981b4,65af55811410b53e6cb3740e,2024-01-23_08h38.31.966,bars,2023.2.3,Win32,60.24096386,657b66ea316d21385b68909f,,,,,,,,,,,1061.9925,1062.9948,,,1063.4939,1063.7431,,97,97,,,,,,,,,,,,,,,,bars/002.png,bars/mask008.png,,,,,,,,,,,,5,2,,,,,,,10,8,10,9,,,,,,,,,,,1062.9948,1063.4938,1063.7432,1064.8419,space,1.0825,,1064.842,33,12,1065.8396,1065.8397,1065.8439,,,,0,26,26,26,1,130,85,,,,,,,,
,,611ec49716b95cd9e2e981b4,65af55811410b53e6cb3740e,2024-01-23_08h38.31.966,bars,2023.2.3,Win32,60.24096386,657b66ea316d21385b68909f,,,,,,,,,,,1065.8441,1066.8382,,,1067.3376,1067.5868,,14,14,,,,,,,,,,,,,,,,bars/008.png,bars/mask002.png,,,,,,,,,,,,5,2,,,,,,,10,10,10,10,,,,,,,,,,,1066.8383,1067.3376,1067.5868,1069.5674,space,1.9642,,1069.5676,84,14,1070.5657,1070.5657,1070.5774,,,,0,27,27,27,1,110,0,,,,,,,,
,,611ec49716b95cd9e2e981b4,65af55811410b53e6cb3740e,2024-01-23_08h38.31.966,bars,2023.2.3,Win32,60.24096386,657b66ea316d21385b68909f,,,,,,,,,,,1070.5777,1071.5804,,,1072.0799,1072.3297,,149,149,,,,,,,,,,,,,,,,bars/024.png,bars/mask000.png,,,,,,,,,,,,3,2,,,,,,,8,10,8,9,,,,,,,,,,,1071.5805,1072.0799,1072.3297,1073.1283,space,0.7823,,1073.1283,29,21,1074.127,1074.1271,1074.1299,,,,0,28,28,28,1,120,170,,,,,,,,
,,611ec49716b95cd9e2e981b4,65af55811410b53e6cb3740e,2024-01-23_08h38.31.966,bars,2023.2.3,Win32,60.24096386,657b66ea316d21385b68909f,,,,,,,,,,,1074.1307,1075.1251,,,1075.6244,1075.874,,24,204,,,,,,,,,,,,,,,,bars/033.png,bars/mask009.png,,,,,,,,,,,,5,1,,,,,,,6,8,5,8,,,,,,,,,,,1075.1251,1075.6243,1075.874,1077.9042,space,2.0139,,1077.9042,1,49,1078.9021,1078.9021,1078.9143,,,,0,29,29,29,1,25,155,,,,,,,,
,,611ec49716b95cd9e2e981b4,65af55811410b53e6cb3740e,2024-01-23_08h38.31.966,bars,2023.2.3,Win32,60.24096386,657b66ea316d21385b68909f,,,,,,,,,,,1078.9145,1079.9176,,,1080.4168,1080.6658,,147,147,,,,,,,,,,,,,,,,bars/004.png,bars/mask004.png,,,,,,,,,,,,3,2,,,,,,,4,10,5,10,,,,,,,,,,,1079.9177,1080.4168,1080.6658,1083.2623,space,2.584,,1083.2624,58,22,1084.26,1084.2601,1084.2727,,,,0,30,30,30,1,25,125,,,,,,,,
,,611ec49716b95cd9e2e981b4,65af55811410b53e6cb3740e,2024-01-23_08h38.31.966,bars,2023.2.3,Win32,60.24096386,657b66ea316d21385b68909f,,,,,,,,,,,1084.2729,1085.2758,,,1085.7744,1086.0243,,146,146,,,,,,,,,,,,,,,,bars/012.png,bars/mask004.png,,,,,,,,,,,,0,2,,,,,,,2,8,1,9,,,,,,,,,,,1085.2758,1085.7744,1086.0244,1088.6705,space,2.6297,,1088.6705,56,49,1089.6682,1089.6682,1089.6795,,,,0,31,31,31,1,90,15,,,,,,,,
,,611ec49716b95cd9e2e981b4,65af55811410b53e6cb3740e,2024-01-23_08h38.31.966,bars,2023.2.3,Win32,60.24096386,657b66ea316d21385b68909f,,,,,,,,,,,1089.6797,1090.6838,,,1091.1828,1091.4319,,33,33,,,,,,,,,,,,,,,,bars/033.png,bars/mask008.png,,,,,,,,,,,,0,1,,,,,,,0,10,0,7,,,,,,,,,,,1090.6838,1091.1826,1091.4321,1093.8781,space,2.43,,1093.8782,8,58,1094.8767,1094.8768,1094.8893,,,,0,32,32,32,1,25,155,,,,,,,,
,,611ec49716b95cd9e2e981b4,65af55811410b53e6cb3740e,2024-01-23_08h38.31.966,bars,2023.2.3,Win32,60.24096386,657b66ea316d21385b68909f,,,,,,,,,,,1094.8896,1095.8917,,,1096.3912,1096.6402,,179,179,,,,,,,,,,,,,,,,bars/026.png,bars/mask003.png,,,,,,,,,,,,0,1,,,,,,,2,8,2,7,,,,,,,,,,,1095.8917,1096.391,1096.6402,1097.8387,space,1.1822,,1097.8388,36,86,1098.8368,1098.8368,1098.8392,,,,0,33,33,33,1,35,85,,,,,,,,
,,611ec49716b95cd9e2e981b4,65af55811410b53e6cb3740e,2024-01-23_08h38.31.966,bars,2023.2.3,Win32,60.24096386,657b66ea316d21385b68909f,,,,,,,,,,,1098.8406,1099.8354,,,1100.3346,1100.5846,,29,29,,,,,,,,,,,,,,,,bars/009.png,bars/mask007.png,,,,,,,,,,,,1,1,,,,,,,0,10,1,10,,,,,,,,,,,1099.8355,1100.3345,1100.5846,1102.4649,space,1.8652,,1102.465,14,76,1103.4629,1103.463,1103.4645,,,,0,34,34,34,1,15,105,,,,,,,,
,,611ec49716b95cd9e2e981b4,65af55811410b53e6cb3740e,2024-01-23_08h38.31.966,bars,2023.2.3,Win32,60.24096386,657b66ea316d21385b68909f,,,,,,,,,,,1103.4658,1104.4613,,,1104.9605,1105.2098,,158,-22,,,,,,,,,,,,,,,,bars/005.png,bars/mask006.png,,,,,,,,,,,,4,2,,,,,,,2,10,1,10,,,,,,,,,,,1104.4613,1104.9604,1105.2099,1109.3204,space,4.0948,,1109.3206,32,18,1110.3187,1110.3188,1110.3314,,,,0,35,35,35,1,10,140,,,,,,,,
,,611ec49716b95cd9e2e981b4,65af55811410b53e6cb3740e,2024-01-23_08h38.31.966,bars,2023.2.3,Win32,60.24096386,657b66ea316d21385b68909f,,,,,,,,,,,1110.3315,1111.3341,,,1111.833,1112.0824,,66,66,,,,,,,,,,,,,,,,bars/013.png,bars/mask005.png,,,,,,,,,,,,3,1,,,,,,,4,10,4,9,,,,,,,,,,,1111.3341,1111.8329,1112.0824,1115.5603,space,3.4611,,1115.5604,9,56,1116.5586,1116.5588,1116.5712,,,,0,36,36,36,1,75,10,,,,,,,,
,,611ec49716b95cd9e2e981b4,65af55811410b53e6cb3740e,2024-01-23_08h38.31.966,bars,2023.2.3,Win32,60.24096386,657b66ea316d21385b68909f,,,,,,,,,,,1116.5714,1117.5737,,,1118.073,1118.3224,,54,54,,,,,,,,,,,,,,,,bars/028.png,bars/mask007.png,,,,,,,,,,,,4,1,,,,,,,6,10,6,9,,,,,,,,,,,1117.5739,1118.0728,1118.3225,1122.466,space,4.1306,,1122.4662,9,66,1123.4642,1123.4642,1123.4758,,,,0,37,37,37,1,45,120,,,,,,,,
,,611ec49716b95cd9e2e981b4,65af55811410b53e6cb3740e,2024-01-23_08h38.31.966,bars,2023.2.3,Win32,60.24096386,657b66ea316d21385b68909f,,,,,,,,,,,1123.4759,1124.4797,,,1124.9786,1125.2284,,113,113,,,,,,,,,,,,,,,,bars/024.png,bars/mask004.png,,,,,,,,,,,,7,1,,,,,,,8,10,9,8,,,,,,,,,,,1124.4797,1124.9784,1125.2284,1126.9588,space,1.7137,,1126.959,7,57,1127.9572,1127.9572,1127.9587,,,,0,38,38,38,1,120,170,,,,,,,,
,,611ec49716b95cd9e2e981b4,65af55811410b53e6cb3740e,2024-01-23_08h38.31.966,bars,2023.2.3,Win32,60.24096386,657b66ea316d21385b68909f,,,,,,,,,,,1127.9598,1128.956,,,1129.4548,1129.7045,,139,139,,,,,,,,,,,,,,,,bars/001.png,bars/mask006.png,,,,,,,,,,,,5,1,,,,,,,6,8,7,9,,,,,,,,,,,1128.9561,1129.4548,1129.7046,1130.5696,space,0.849,,1130.5697,9,54,1131.568,1131.5682,1131.5694,,,,0,39,39,39,1,130,85,,,,,,,,
,,611ec49716b95cd9e2e981b4,65af55811410b53e6cb3740e,2024-01-23_08h38.31.966,bars,2023.2.3,Win32,60.24096386,657b66ea316d21385b68909f,,,,,,,,,,,1131.5707,1132.5664,,,1133.0656,1133.315,,149,149,,,,,,,,,,,,,,,,bars/039.png,bars/mask009.png,,,,,,,,,,,,1,1,,,,,,,4,6,4,6,,,,,,,,,,,1132.5665,1133.0655,1133.315,1137.0591,space,3.7283,,1137.0591,26,44,1138.0575,1138.0576,1138.0694,,,,0,40,40,40,1,175,105,,,,,,,,
,,611ec49716b95cd9e2e981b4,65af55811410b53e6cb3740e,2024-01-23_08h38.31.966,bars,2023.2.3,Win32,60.24096386,657b66ea316d21385b68909f,,,,,,,,,,,1138.0697,1139.0729,,,1139.5722,1139.8213,,28,28,,,,,,,,,,,,,,,,bars/036.png,bars/mask008.png,,,,,,,,,,,,7,2,,,,,,,6,8,6,9,,,,,,,,,,,1139.0729,1139.5722,1139.8215,1141.602,space,1.7714,,1141.6021,63,8,1142.6004,1142.6004,1142.6129,,,,0,41,41,41,1,145,20,,,,,,,,
,,611ec49716b95cd9e2e981b4,65af55811410b53e6cb3740e,2024-01-23_08h38.31.966,bars,2023.2.3,Win32,60.24096386,657b66ea316d21385b68909f,,,,,,,,,,,1142.6132,1143.6152,,,1144.1146,1144.3641,,22,22,,,,,,,,,,,,,,,,bars/020.png,bars/mask003.png,,,,,,,,,,,,0,2,,,,,,,4,10,3,10,,,,,,,,,,,1143.6152,1144.1146,1144.3642,1148.7739,space,4.3995,,1148.7739,87,32,1149.7717,1149.7719,1149.7832,,,,0,42,42,42,1,115,170,,,,,,,,
,,611ec49716b95cd9e2e981b4,65af55811410b53e6cb3740e,2024-01-23_08h38.31.966,bars,2023.2.3,Win32,60.24096386,657b66ea316d21385b68909f,,,,,,,,,,,1149.7834,1150.7874,,,1151.2862,1151.5359,,71,71,,,,,,,,,,,,,,,,bars/007.png,bars/mask003.png,,,,,,,,,,,,5,2,,,,,,,2,10,2,10,,,,,,,,,,,1150.7874,1151.2861,1151.5359,1153.6334,space,2.0802,,1153.6334,76,16,1154.6311,1154.6311,1154.6424,,,,0,43,43,43,1,175,55,,,,,,,,
,,611ec49716b95cd9e2e981b4,65af55811410b53e6cb3740e,2024-01-23_08h38.31.966,bars,2023.2.3,Win32,60.24096386,657b66ea316d21385b68909f,,,,,,,,,,,1154.6426,1155.6463,,,1156.1453,1156.395,,118,118,,,,,,,,,,,,,,,,bars/044.png,bars/mask002.png,,,,,,,,,,,,0,2,,,,,,,0,10,1,10,,,,,,,,,,,1155.6463,1156.1453,1156.395,1157.6264,space,1.216,,1157.6265,43,37,1158.6245,1158.6245,1158.6363,,,,0,44,44,44,1,75,155,,,,,,,,
,,611ec49716b95cd9e2e981b4,65af55811410b53e6cb3740e,2024-01-23_08h38.31.966,bars,2023.2.3,Win32,60.24096386,657b66ea316d21385b68909f,,,,,,,,,,,1158.6365,1159.64,,,1160.1388,1160.3885,,63,63,,,,,,,,,,,,,,,,bars/000.png,bars/mask009.png,,,,,,,,,,,,0,1,,,,,,,2,10,1,9,,,,,,,,,,,1159.6401,1160.1388,1160.3886,1162.3692,space,1.964,,1162.3692,23,82,1163.3671,1163.3672,1163.3792,,,,0,45,45,45,1,40,145,,,,,,,,
,,611ec49716b95cd9e2e981b4,65af55811410b53e6cb3740e,2024-01-23_08h38.31.966,bars,2023.2.3,Win32,60.24096386,657b66ea316d21385b68909f,,,,,,,,,,,1163.3793,1164.3815,,,1164.8811,1165.1307,,110,110,,,,,,,,,,,,,,,,bars/024.png,bars/mask009.png,,,,,,,,,,,,0,1,,,,,,,0,10,0,10,,,,,,,,,,,1164.3816,1164.881,1165.1308,1165.7134,space,0.5733,,1165.7135,10,60,1166.7115,1166.7115,1166.7128,,,,0,46,46,46,1,120,170,,,,,,,,
,,611ec49716b95cd9e2e981b4,65af55811410b53e6cb3740e,2024-01-23_08h38.31.966,bars,2023.2.3,Win32,60.24096386,657b66ea316d21385b68909f,,,,,,,,,,,1166.7138,1167.7101,,,1168.209,1168.4587,,176,-4,,,,,,,,,,,,,,,,bars/016.png,bars/mask002.png,,,,,,,,,,,,4,2,,,,,,,2,8,3,7,,,,,,,,,,,1167.7102,1168.2089,1168.4588,1169.4743,space,0.9985,,1169.4743,44,11,1170.4722,1170.4722,1170.4845,,,,0,47,47,47,1,40,165,,,,,,,,
,,611ec49716b95cd9e2e981b4,65af55811410b53e6cb3740e,2024-01-23_08h38.31.966,bars,2023.2.3,Win32,60.24096386,657b66ea316d21385b68909f,,,,,,,,,,,1170.4846,1171.4875,,,1171.9867,1172.2361,,143,143,,,,,,,,,,,,,,,,bars/032.png,bars/mask007.png,,,,,,,,,,,,2,1,,,,,,,4,10,5,8,,,,,,,,,,,1171.4876,1171.9867,1172.2362,1174.8825,space,2.6299,,1174.8826,18,57,1175.8803,1175.8804,1175.8928,,,,0,48,48,48,1,125,20,,,,,,,,
,,611ec49716b95cd9e2e981b4,65af55811410b53e6cb3740e,2024-01-23_08h38.31.966,bars,2023.2.3,Win32,60.24096386,657b66ea316d21385b68909f,,,,,,,,,,,1175.8929,1176.8954,,,1177.3946,1177.644,,115,115,,,,,,,,,,,,,,,,bars/024.png,bars/mask007.png,,,,,,,,,,,,5,1,,,,,,,6,8,6,10,,,,,,,,,,,1176.8954,1177.3946,1177.6441,1178.1601,space,0.4998,,1178.1602,5,55,1179.1581,1179.1582,1179.1594,,,,0,49,49,49,1,120,170,,,,,,,,
,,611ec49716b95cd9e2e981b4,65af55811410b53e6cb3740e,2024-01-23_08h38.31.966,bars,2023.2.3,Win32,60.24096386,657b66ea316d21385b68909f,,,,,,,,,,,,,,,,,,,,,,,,,,,,,,,,,,,,,,,,,,,,,,,,,,,,,,,,,,,,,,,,,,,,,,,,,,,,,,,,,,,,,,,,,,,,,1179.1597,1239.1655,0,1,1,3,1,sequence_tables/blk045.csv
,,611ec49716b95cd9e2e981b4,65af55811410b53e6cb3740e,2024-01-23_08h38.31.966,bars,2023.2.3,Win32,60.24096386,657b66ea316d21385b68909f,,,,,,,,,,,1241.0695,1242.0573,,,1242.5459,1242.7957,,67,67,,,,,,,,,,,,,,,,bars/021.png,bars/mask007.png,,,,,,,,,,,,5,2,,,,,,,2,4,2,5,,,,,,1239.1761,1241.0658,space,1.8812,,1242.0575,1242.5457,1242.7959,1245.7248,space,2.9122,,1245.7248,88,3,1246.7163,1246.7164,1246.7303,,,,0,0,0,0,1,155,70,,,,,,,,
,,611ec49716b95cd9e2e981b4,65af55811410b53e6cb3740e,2024-01-23_08h38.31.966,bars,2023.2.3,Win32,60.24096386,657b66ea316d21385b68909f,,,,,,,,,,,1246.7306,1247.7314,,,1248.2344,1248.4804,,137,137,,,,,,,,,,,,,,,,bars/024.png,bars/mask006.png,,,,,,,,,,,,2,1,,,,,,,4,6,4,7,,,,,,,,,,,1247.7316,1248.2343,1248.4807,1250.8768,space,2.3719,,1250.8771,17,33,1251.8752,1251.8754,1251.8889,,,,0,1,1,1,1,120,170,,,,,,,,
,,611ec49716b95cd9e2e981b4,65af55811410b53e6cb3740e,2024-01-23_08h38.31.966,bars,2023.2.3,Win32,60.24096386,657b66ea316d21385b68909f,,,,,,,,,,,1251.8891,1252.8906,,,1253.3953,1253.6449,,42,42,,,,,,,,,,,,,,,,bars/003.png,bars/mask000.png,,,,,,,,,,,,2,1,,,,,,,6,8,5,8,,,,,,,,,,,1252.8908,1253.3953,1253.645,1257.0235,space,3.3619,,1257.0235,17,82,1258.015,1258.0151,1258.027,,,,0,2,2,2,1,25,140,,,,,,,,
,,611ec49716b95cd9e2e981b4,65af55811410b53e6cb3740e,2024-01-23_08h38.31.966,bars,2023.2.3,Win32,60.24096386,657b66ea316d21385b68909f,,,,,,,,,,,1258.0273,1259.0171,,,1259.5133,1259.7626,,123,123,,,,,,,,,,,,,,,,bars/032.png,bars/mask003.png,,,,,,,,,,,,2,1,,,,,,,4,6,2,7,,,,,,,,,,,1259.0171,1259.5132,1259.7627,1262.1147,space,2.345,,1262.1148,2,77,1263.1071,1263.1074,1263.1105,,,,0,3,3,3,1,125,20,,,,,,,,
,,611ec49716b95cd9e2e981b4,65af55811410b53e6cb3740e,2024-01-23_08h38.31.966,bars,2023.2.3,Win32,60.24096386,657b66ea316d21385b68909f,,,,,,,,,,,1263.1107,1264.105,,,1264.6107,1264.8541,,122,122,,,,,,,,,,,,,,,,bars/031.png,bars/mask008.png,,,,,,,,,,,,6,1,,,,,,,6,4,6,4,,,,,,,,,,,1264.1052,1264.6106,1264.8542,1266.708,space,1.8309,,1266.708,2,87,1267.6996,1267.6997,1267.7119,,,,0,4,4,4,1,120,35,,,,,,,,
,,611ec49716b95cd9e2e981b4,65af55811410b53e6cb3740e,2024-01-23_08h38.31.966,bars,2023.2.3,Win32,60.24096386,657b66ea316d21385b68909f,,,,,,,,,,,1267.7119,1268.7148,,,1269.2031,1269.453,,39,39,,,,,,,,,,,,,,,,bars/009.png,bars/mask003.png,,,,,,,,,,,,2,1,,,,,,,8,2,9,3,,,,,,,,,,,1268.7151,1269.2031,1269.453,1272.9314,space,3.4616,,1272.9314,24,66,1273.9231,1273.9233,1273.9352,,,,0,5,5,5,1,15,105,,,,,,,,
,,611ec49716b95cd9e2e981b4,65af55811410b53e6cb3740e,2024-01-23_08h38.31.966,bars,2023.2.3,Win32,60.24096386,657b66ea316d21385b68909f,,,,,,,,,,,1273.9355,1274.9276,,,1275.4263,1275.6702,,151,151,,,,,,,,,,,,,,,,bars/049.png,bars/mask006.png,,,,,,,,,,,,5,1,,,,,,,6,0,7,0,,,,,,,,,,,1274.9276,1275.4263,1275.6703,1276.3433,space,0.6502,,1276.3434,9,36,1277.334,1277.3343,1277.3376,,,,0,6,6,6,1,160,115,,,,,,,,
,,611ec49716b95cd9e2e981b4,65af55811410b53e6cb3740e,2024-01-23_08h38.31.966,bars,2023.2.3,Win32,60.24096386,657b66ea316d21385b68909f,,,,,,,,,,,1277.3378,1278.3389,,,1278.8318,1279.0813,,13,13,,,,,,,,,,,,,,,,bars/047.png,bars/mask005.png,,,,,,,,,,,,4,1,,,,,,,4,2,4,2,,,,,,,,,,,1278.339,1278.8315,1279.0814,1279.7206,space,0.6165,,1279.7206,2,57,1280.712,1280.7122,1280.7156,,,,0,7,7,7,1,15,70,,,,,,,,
,,611ec49716b95cd9e2e981b4,65af55811410b53e6cb3740e,2024-01-23_08h38.31.966,bars,2023.2.3,Win32,60.24096386,657b66ea316d21385b68909f,,,,,,,,,,,1280.7158,1281.7113,,,1282.216,1282.4606,,140,140,,,,,,,,,,,,,,,,bars/016.png,bars/mask003.png,,,,,,,,,,,,1,2,,,,,,,2,4,2,5,,,,,,,,,,,1281.7116,1282.216,1282.4608,1282.9756,space,0.4884,,1282.9758,80,25,1283.9739,1283.9742,1283.9783,,,,0,8,8,8,1,40,165,,,,,,,,
,,611ec49716b95cd9e2e981b4,65af55811410b53e6cb3740e,2024-01-23_08h38.31.966,bars,2023.2.3,Win32,60.24096386,657b66ea316d21385b68909f,,,,,,,,,,,1283.9785,1284.9778,,,1285.4717,1285.7107,,17,17,,,,,,,,,,,,,,,,bars/019.png,bars/mask005.png,,,,,,,,,,,,0,1,,,,,,,4,2,5,2,,,,,,,,,,,1284.9779,1285.4715,1285.7107,1286.1937,space,0.467,,1286.1938,28,88,1287.185,1287.1852,1287.1894,,,,0,9,9,9,1,45,105,,,,,,,,
,,611ec49716b95cd9e2e981b4,65af55811410b53e6cb3740e,2024-01-23_08h38.31.966,bars,2023.2.3,Win32,60.24096386,657b66ea316d21385b68909f,,,,,,,,,,,1287.1897,1288.1835,,,1288.6827,1288.922,,113,113,,,,,,,,,,,,,,,,bars/025.png,bars/mask001.png,,,,,,,,,,,,7,1,,,,,,,6,4,9,4,,,,,,,,,,,1288.1838,1288.6826,1288.9221,1289.3883,space,0.4505,,1289.3883,8,73,1290.38,1290.3801,1290.3834,,,,0,10,10,10,1,105,40,,,,,,,,
,,611ec49716b95cd9e2e981b4,65af55811410b53e6cb3740e,2024-01-23_08h38.31.966,bars,2023.2.3,Win32,60.24096386,657b66ea316d21385b68909f,,,,,,,,,,,1290.3837,1291.3783,,,1291.8673,1292.114,,70,70,,,,,,,,,,,,,,,,bars/014.png,bars/mask004.png,,,,,,,,,,,,5,1,,,,,,,8,2,8,0,,,,,,,,,,,1291.3785,1291.8673,1292.114,1294.2972,space,2.164,,1294.2973,10,70,1295.2891,1295.2893,1295.2923,,,,0,11,11,11,1,80,0,,,,,,,,
,,611ec49716b95cd9e2e981b4,65af55811410b53e6cb3740e,2024-01-23_08h38.31.966,bars,2023.2.3,Win32,60.24096386,657b66ea316d21385b68909f,,,,,,,,,,,1295.2925,1296.2877,,,1296.7872,1297.036,,58,58,,,,,,,,,,,,,,,,bars/031.png,bars/mask003.png,,,,,,,,,,,,1,2,,,,,,,10,4,10,4,,,,,,,,,,,1296.2879,1296.787,1297.0361,1299.4887,space,2.4302,,1299.4888,62,23,1300.4804,1300.4804,1300.4932,,,,0,12,12,12,1,120,35,,,,,,,,
,,611ec49716b95cd9e2e981b4,65af55811410b53e6cb3740e,2024-01-23_08h38.31.966,bars,2023.2.3,Win32,60.24096386,657b66ea316d21385b68909f,,,,,,,,,,,1300.4935,1301.4954,,,1301.985,1302.2277,,113,113,,,,,,,,,,,,,,,,bars/001.png,bars/mask002.png,,,,,,,,,,,,3,1,,,,,,,8,2,8,1,,,,,,,,,,,1301.4956,1301.985,1302.2279,1302.6837,space,0.4333,,1302.6838,17,28,1303.6753,1303.6754,1303.6796,,,,0,13,13,13,1,130,85,,,,,,,,
,,611ec49716b95cd9e2e981b4,65af55811410b53e6cb3740e,2024-01-23_08h38.31.966,bars,2023.2.3,Win32,60.24096386,657b66ea316d21385b68909f,,,,,,,,,,,1303.6798,1304.6736,,,1305.1791,1305.4225,,13,13,,,,,,,,,,,,,,,,bars/030.png,bars/mask003.png,,,,,,,,,,,,0,2,,,,,,,10,4,10,4,,,,,,,,,,,1304.6737,1305.179,1305.423,1305.9782,space,0.5332,,1305.9782,53,52,1306.9706,1306.9707,1306.9754,,,,0,14,14,14,1,140,65,,,,,,,,
,,611ec49716b95cd9e2e981b4,65af55811410b53e6cb3740e,2024-01-23_08h38.31.966,bars,2023.2.3,Win32,60.24096386,657b66ea316d21385b68909f,,,,,,,,,,,1306.9758,1307.969,,,1308.4674,1308.7068,,75,75,,,,,,,,,,,,,,,,bars/028.png,bars/mask007.png,,,,,,,,,,,,0,1,,,,,,,8,6,6,5,,,,,,,,,,,1307.9691,1308.4673,1308.7068,1309.2039,space,0.4809,,1309.204,30,45,1310.1981,1310.1982,1310.2026,,,,0,15,15,15,1,45,120,,,,,,,,
,,611ec49716b95cd9e2e981b4,65af55811410b53e6cb3740e,2024-01-23_08h38.31.966,bars,2023.2.3,Win32,60.24096386,657b66ea316d21385b68909f,,,,,,,,,,,1310.203,1311.1968,,,1311.6993,1311.9515,,121,121,,,,,,,,,,,,,,,,bars/022.png,bars/mask009.png,,,,,,,,,,,,1,1,,,,,,,6,8,6,6,,,,,,,,,,,1311.1969,1311.6992,1311.9516,1315.0967,space,3.1285,,1315.0967,26,79,1316.0892,1316.0894,1316.101,,,,0,16,16,16,1,95,20,,,,,,,,
,,611ec49716b95cd9e2e981b4,65af55811410b53e6cb3740e,2024-01-23_08h38.31.966,bars,2023.2.3,Win32,60.24096386,657b66ea316d21385b68909f,,,,,,,,,,,1316.1011,1317.1039,,,1317.6031,1317.8531,,122,122,,,,,,,,,,,,,,,,bars/016.png,bars/mask002.png,,,,,,,,,,,,0,2,,,,,,,4,6,4,6,,,,,,,,,,,1317.1041,1317.603,1317.8532,1318.492,space,0.6165,,1318.492,82,43,1319.4869,1319.4869,1319.4885,,,,0,17,17,17,1,40,165,,,,,,,,
,,611ec49716b95cd9e2e981b4,65af55811410b53e6cb3740e,2024-01-23_08h38.31.966,bars,2023.2.3,Win32,60.24096386,657b66ea316d21385b68909f,,,,,,,,,,,1319.4886,1320.4817,,,1320.988,1321.2313,,39,39,,,,,,,,,,,,,,,,bars/002.png,bars/mask000.png,,,,,,,,,,,,0,2,,,,,,,2,4,2,5,,,,,,,,,,,1320.4818,1320.9879,1321.2315,1326.8948,space,5.6414,,1326.8948,89,46,1327.8864,1327.8865,1327.899,,,,0,18,18,18,1,130,85,,,,,,,,
,,611ec49716b95cd9e2e981b4,65af55811410b53e6cb3740e,2024-01-23_08h38.31.966,bars,2023.2.3,Win32,60.24096386,657b66ea316d21385b68909f,,,,,,,,,,,1327.8991,1328.9012,,,1329.4013,1329.6399,,22,22,,,,,,,,,,,,,,,,bars/018.png,bars/mask005.png,,,,,,,,,,,,0,1,,,,,,,0,2,0,3,,,,,,,,,,,1328.9013,1329.4011,1329.6399,1330.0669,space,0.4047,,1330.067,52,68,1331.0647,1331.0648,1331.0691,,,,0,19,19,19,1,150,90,,,,,,,,
,,611ec49716b95cd9e2e981b4,65af55811410b53e6cb3740e,2024-01-23_08h38.31.966,bars,2023.2.3,Win32,60.24096386,657b66ea316d21385b68909f,,,,,,,,,,,1331.0693,1332.0704,,,1332.5628,1332.812,,40,40,,,,,,,,,,,,,,,,bars/016.png,bars/mask008.png,,,,,,,,,,,,0,1,,,,,,,2,0,0,1,,,,,,,,,,,1332.0704,1332.5627,1332.8121,1333.4176,space,0.5828,,1333.4176,0,55,1334.4097,1334.4097,1334.4129,,,,0,20,20,20,1,40,165,,,,,,,,
,,611ec49716b95cd9e2e981b4,65af55811410b53e6cb3740e,2024-01-23_08h38.31.966,bars,2023.2.3,Win32,60.24096386,657b66ea316d21385b68909f,,,,,,,,,,,1334.4132,1335.4079,,,1335.9132,1336.1632,,162,162,,,,,,,,,,,,,,,,bars/027.png,bars/mask006.png,,,,,,,,,,,,0,1,,,,,,,4,2,7,2,,,,,,,,,,,1335.4082,1335.9132,1336.1633,1336.7958,space,0.6163,,1336.7958,52,68,1337.7908,1337.7908,1337.7917,,,,0,21,21,21,1,110,50,,,,,,,,
,,611ec49716b95cd9e2e981b4,65af55811410b53e6cb3740e,2024-01-23_08h38.31.966,bars,2023.2.3,Win32,60.24096386,657b66ea316d21385b68909f,,,,,,,,,,,1337.7919,1338.7858,,,1339.2745,1339.524,,83,83,,,,,,,,,,,,,,,,bars/046.png,bars/mask008.png,,,,,,,,,,,,0,2,,,,,,,2,0,1,0,,,,,,,,,,,1338.786,1339.2745,1339.5241,1342.3202,space,2.7796,,1342.3202,72,2,1343.3117,1343.3119,1343.3247,,,,0,22,22,22,1,155,85,,,,,,,,
,,611ec49716b95cd9e2e981b4,65af55811410b53e6cb3740e,2024-01-23_08h38.31.966,bars,2023.2.3,Win32,60.24096386,657b66ea316d21385b68909f,,,,,,,,,,,1343.3249,1344.3268,,,1344.8264,1345.0646,,131,131,,,,,,,,,,,,,,,,bars/036.png,bars/mask006.png,,,,,,,,,,,,0,1,,,,,,,0,0,0,3,,,,,,,,,,,1344.3269,1344.8261,1345.0647,1348.8104,space,3.7287,,1348.8104,14,69,1349.8012,1349.8016,1349.8144,,,,0,23,23,23,1,145,20,,,,,,,,
,,611ec49716b95cd9e2e981b4,65af55811410b53e6cb3740e,2024-01-23_08h38.31.966,bars,2023.2.3,Win32,60.24096386,657b66ea316d21385b68909f,,,,,,,,,,,1349.8146,1350.8196,,,1351.3219,1351.5674,,15,195,,,,,,,,,,,,,,,,bars/014.png,bars/mask008.png,,,,,,,,,,,,1,2,,,,,,,2,2,2,2,,,,,,,,,,,1350.8196,1351.3219,1351.5675,1352.3039,space,0.7157,,1352.304,65,15,1353.3019,1353.3019,1353.3035,,,,0,24,24,24,1,80,0,,,,,,,,
,,611ec49716b95cd9e2e981b4,65af55811410b53e6cb3740e,2024-01-23_08h38.31.966,bars,2023.2.3,Win32,60.24096386,657b66ea316d21385b68909f,,,,,,,,,,,1353.3038,1354.2941,,,1354.7936,1355.0439,,55,55,,,,,,,,,,,,,,,,bars/013.png,bars/mask001.png,,,,,,,,,,,,1,1,,,,,,,4,0,2,0,,,,,,,,,,,1354.2943,1354.7935,1355.0442,1355.4825,space,0.4164,,1355.4825,20,45,1356.4739,1356.474,1356.4784,,,,0,25,25,25,1,75,10,,,,,,,,
,,611ec49716b95cd9e2e981b4,65af55811410b53e6cb3740e,2024-01-23_08h38.31.966,bars,2023.2.3,Win32,60.24096386,657b66ea316d21385b68909f,,,,,,,,,,,1356.4787,1357.4725,,,1357.9723,1358.2102,,56,56,,,,,,,,,,,,,,,,bars/029.png,bars/mask008.png,,,,,,,,,,,,1,2,,,,,,,2,2,2,2,,,,,,,,,,,1357.4725,1357.9722,1358.2103,1359.0767,space,0.8495,,1359.0767,34,11,1360.0682,1360.0684,1360.0726,,,,0,26,26,26,1,90,45,,,,,,,,
,,611ec49716b95cd9e2e981b4,65af55811410b53e6cb3740e,2024-01-23_08h38.31.966,bars,2023.2.3,Win32,60.24096386,657b66ea316d21385b68909f,,,,,,,,,,,1360.0727,1361.0722,,,1361.5723,1361.819,,38,38,,,,,,,,,,,,,,,,bars/025.png,bars/mask003.png,,,,,,,,,,,,6,2,,,,,,,0,4,0,6,,,,,,,,,,,1361.0723,1361.5722,1361.8191,1363.3199,space,1.4822,,1363.3201,67,2,1364.318,1364.318,1364.3306,,,,0,27,27,27,1,105,40,,,,,,,,
,,611ec49716b95cd9e2e981b4,65af55811410b53e6cb3740e,2024-01-23_08h38.31.966,bars,2023.2.3,Win32,60.24096386,657b66ea316d21385b68909f,,,,,,,,,,,1364.3309,1365.3266,,,1365.826,1366.0648,,114,114,,,,,,,,,,,,,,,,bars/009.png,bars/mask006.png,,,,,,,,,,,,2,2,,,,,,,2,2,1,3,,,,,,,,,,,1365.3267,1365.8259,1366.0648,1367.0802,space,0.9987,,1367.0803,81,9,1368.072,1368.0721,1368.0757,,,,0,28,28,28,1,15,105,,,,,,,,
,,611ec49716b95cd9e2e981b4,65af55811410b53e6cb3740e,2024-01-23_08h38.31.966,bars,2023.2.3,Win32,60.24096386,657b66ea316d21385b68909f,,,,,,,,,,,1368.0761,1369.071,,,1369.5704,1369.8094,,47,47,,,,,,,,,,,,,,,,bars/007.png,bars/mask001.png,,,,,,,,,,,,1,2,,,,,,,0,0,0,1,,,,,,,,,,,1369.0712,1369.5703,1369.8094,1371.7395,space,1.9142,,1371.7396,52,8,1372.7373,1372.7373,1372.7489,,,,0,29,29,29,1,175,55,,,,,,,,
,,611ec49716b95cd9e2e981b4,65af55811410b53e6cb3740e,2024-01-23_08h38.31.966,bars,2023.2.3,Win32,60.24096386,657b66ea316d21385b68909f,,,,,,,,,,,1372.7503,1373.7463,,,1374.2491,1374.4951,,46,46,,,,,,,,,,,,,,,,bars/033.png,bars/mask002.png,,,,,,,,,,,,1,1,,,,,,,2,2,3,1,,,,,,,,,,,1373.7464,1374.2491,1374.4953,1376.7153,space,2.1972,,1376.7154,21,71,1377.7065,1377.7068,1377.7201,,,,0,30,30,30,1,25,155,,,,,,,,
,,611ec49716b95cd9e2e981b4,65af55811410b53e6cb3740e,2024-01-23_08h38.31.966,bars,2023.2.3,Win32,60.24096386,657b66ea316d21385b68909f,,,,,,,,,,,1377.7203,1378.7217,,,1379.2217,1379.4706,,150,150,,,,,,,,,,,,,,,,bars/000.png,bars/mask004.png,,,,,,,,,,,,0,2,,,,,,,0,0,0,0,,,,,,,,,,,1378.7219,1379.2216,1379.4707,1384.3368,space,4.8434,,1384.3368,70,5,1385.3279,1385.3281,1385.3409,,,,0,31,31,31,1,40,145,,,,,,,,
,,611ec49716b95cd9e2e981b4,65af55811410b53e6cb3740e,2024-01-23_08h38.31.966,bars,2023.2.3,Win32,60.24096386,657b66ea316d21385b68909f,,,,,,,,,,,1385.3411,1386.344,,,1386.8422,1387.0979,,71,71,,,,,,,,,,,,,,,,bars/003.png,bars/mask008.png,,,,,,,,,,,,0,1,,,,,,,0,0,1,0,,,,,,,,,,,1386.3442,1386.8421,1387.0979,1387.8307,space,0.7162,,1387.8308,46,69,1388.8278,1388.8278,1388.8291,,,,0,32,32,32,1,25,140,,,,,,,,
,,611ec49716b95cd9e2e981b4,65af55811410b53e6cb3740e,2024-01-23_08h38.31.966,bars,2023.2.3,Win32,60.24096386,657b66ea316d21385b68909f,,,,,,,,,,,1388.8293,1389.8262,,,1390.3266,1390.5699,,16,196,,,,,,,,,,,,,,,,bars/012.png,bars/mask005.png,,,,,,,,,,,,2,2,,,,,,,2,0,1,2,,,,,,,,,,,1389.8264,1390.3266,1390.5703,1391.7247,space,1.1324,,1391.7247,74,1,1392.7193,1392.7193,1392.7301,,,,0,33,33,33,1,90,15,,,,,,,,
,,611ec49716b95cd9e2e981b4,65af55811410b53e6cb3740e,2024-01-23_08h38.31.966,bars,2023.2.3,Win32,60.24096386,657b66ea316d21385b68909f,,,,,,,,,,,1392.7304,1393.7309,,,1394.2301,1394.4686,,160,-20,,,,,,,,,,,,,,,,bars/044.png,bars/mask007.png,,,,,,,,,,,,0,2,,,,,,,0,0,0,0,,,,,,,,,,,1393.731,1394.2299,1394.4686,1397.1656,space,2.6796,,1397.1656,85,5,1398.1633,1398.1633,1398.1741,,,,0,34,34,34,1,75,155,,,,,,,,
,,611ec49716b95cd9e2e981b4,65af55811410b53e6cb3740e,2024-01-23_08h38.31.966,bars,2023.2.3,Win32,60.24096386,657b66ea316d21385b68909f,,,,,,,,,,,1398.1757,1399.1725,,,1399.6717,1399.9209,,96,96,,,,,,,,,,,,,,,,bars/002.png,bars/mask000.png,,,,,,,,,,,,1,2,,,,,,,2,2,2,2,,,,,,,,,,,1399.1726,1399.6715,1399.9211,1402.1241,space,2.1807,,1402.1242,34,11,1403.1166,1403.1167,1403.1284,,,,0,35,35,35,1,130,85,,,,,,,,
,,611ec49716b95cd9e2e981b4,65af55811410b53e6cb3740e,2024-01-23_08h38.31.966,bars,2023.2.3,Win32,60.24096386,657b66ea316d21385b68909f,,,,,,,,,,,1403.1285,1404.1207,,,1404.6143,1404.8522,,106,106,,,,,,,,,,,,,,,,bars/037.png,bars/mask006.png,,,,,,,,,,,,0,2,,,,,,,0,0,0,0,,,,,,,,,,,1404.1207,1404.6142,1404.8523,1406.7006,space,1.8315,,1406.7006,44,1,1407.6983,1407.6983,1407.7098,,,,0,36,36,36,1,150,105,,,,,,,,
,,611ec49716b95cd9e2e981b4,65af55811410b53e6cb3740e,2024-01-23_08h38.31.966,bars,2023.2.3,Win32,60.24096386,657b66ea316d21385b68909f,,,,,,,,,,,1407.711,1408.7069,,,1409.2062,1409.4559,,18,198,,,,,,,,,,,,,,,,bars/032.png,bars/mask007.png,,,,,,,,,,,,0,2,,,,,,,0,0,0,0,,,,,,,,,,,1408.7071,1409.206,1409.4561,1411.6256,space,2.1499,,1411.6257,73,2,1412.6235,1412.6235,1412.6242,,,,0,37,37,37,1,125,20,,,,,,,,
,,611ec49716b95cd9e2e981b4,65af55811410b53e6cb3740e,2024-01-23_08h38.31.966,bars,2023.2.3,Win32,60.24096386,657b66ea316d21385b68909f,,,,,,,,,,,1412.6244,1413.6156,,,1414.1154,1414.3647,,51,51,,,,,,,,,,,,,,,,bars/023.png,bars/mask007.png,,,,,,,,,,,,0,1,,,,,,,0,0,0,0,,,,,,,,,,,1413.616,1414.1152,1414.3649,1415.4028,space,1.0154,,1415.4028,31,64,1416.3946,1416.3947,1416.3989,,,,0,38,38,38,1,20,115,,,,,,,,
,,611ec49716b95cd9e2e981b4,65af55811410b53e6cb3740e,2024-01-23_08h38.31.966,bars,2023.2.3,Win32,60.24096386,657b66ea316d21385b68909f,,,,,,,,,,,1416.3991,1417.3991,,,1417.8924,1418.1429,,11,11,,,,,,,,,,,,,,,,bars/008.png,bars/mask004.png,,,,,,,,,,,,2,2,,,,,,,0,2,0,3,,,,,,,,,,,1417.3992,1417.8923,1418.1432,1421.5264,space,3.3618,,1421.5264,81,11,1422.5184,1422.5186,1422.5313,,,,0,39,39,39,1,110,0,,,,,,,,
,,611ec49716b95cd9e2e981b4,65af55811410b53e6cb3740e,2024-01-23_08h38.31.966,bars,2023.2.3,Win32,60.24096386,657b66ea316d21385b68909f,,,,,,,,,,,1422.5315,1423.5225,,,1424.0157,1424.255,,36,36,,,,,,,,,,,,,,,,bars/042.png,bars/mask009.png,,,,,,,,,,,,0,2,,,,,,,2,0,1,1,,,,,,,,,,,1423.5226,1424.0156,1424.2551,1425.7201,space,1.4485,,1425.7202,71,39,1426.7114,1426.7116,1426.715,,,,0,40,40,40,1,145,75,,,,,,,,
,,611ec49716b95cd9e2e981b4,65af55811410b53e6cb3740e,2024-01-23_08h38.31.966,bars,2023.2.3,Win32,60.24096386,657b66ea316d21385b68909f,,,,,,,,,,,1426.7153,1427.7101,,,1428.2092,1428.4485,,125,125,,,,,,,,,,,,,,,,bars/034.png,bars/mask007.png,,,,,,,,,,,,5,1,,,,,,,4,2,5,3,,,,,,,,,,,1427.7103,1428.2091,1428.4485,1430.013,space,1.5482,,1430.013,0,60,1431.0045,1431.0047,1431.0174,,,,0,41,41,41,1,125,65,,,,,,,,
,,611ec49716b95cd9e2e981b4,65af55811410b53e6cb3740e,2024-01-23_08h38.31.966,bars,2023.2.3,Win32,60.24096386,657b66ea316d21385b68909f,,,,,,,,,,,1431.0176,1432.02,,,1432.5196,1432.7688,,154,154,,,,,,,,,,,,,,,,bars/040.png,bars/mask005.png,,,,,,,,,,,,1,1,,,,,,,2,4,2,5,,,,,,,,,,,1432.0201,1432.5195,1432.7688,1434.9379,space,2.1464,,1434.9379,14,31,1435.93,1435.9301,1435.9421,,,,0,42,42,42,1,140,5,,,,,,,,
,,611ec49716b95cd9e2e981b4,65af55811410b53e6cb3740e,2024-01-23_08h38.31.966,bars,2023.2.3,Win32,60.24096386,657b66ea316d21385b68909f,,,,,,,,,,,1435.9423,1436.9513,,,1437.4445,1437.6943,,111,111,,,,,,,,,,,,,,,,bars/014.png,bars/mask006.png,,,,,,,,,,,,0,1,,,,,,,4,2,3,2,,,,,,,,,,,1436.9513,1437.4444,1437.6944,1439.791,space,2.0688,,1439.791,31,69,1440.7889,1440.789,1440.7925,,,,0,43,43,43,1,80,0,,,,,,,,
,,611ec49716b95cd9e2e981b4,65af55811410b53e6cb3740e,2024-01-23_08h38.31.966,bars,2023.2.3,Win32,60.24096386,657b66ea316d21385b68909f,,,,,,,,,,,1440.7927,1441.7873,,,1442.2864,1442.5264,,169,169,,,,,,,,,,,,,,,,bars/043.png,bars/mask007.png,,,,,,,,,,,,0,2,,,,,,,2,0,1,0,,,,,,,,,,,1441.7874,1442.2863,1442.5264,1444.9889,space,2.4468,,1444.9889,41,39,1445.984,1445.984,1445.9948,,,,0,44,44,44,1,30,130,,,,,,,,
,,611ec49716b95cd9e2e981b4,65af55811410b53e6cb3740e,2024-01-23_08h38.31.966,bars,2023.2.3,Win32,60.24096386,657b66ea316d21385b68909f,,,,,,,,,,,1445.995,1446.9958,,,1447.4946,1447.7342,,125,125,,,,,,,,,,,,,,,,bars/020.png,bars/mask006.png,,,,,,,,,,,,0,1,,,,,,,0,2,0,2,,,,,,,,,,,1446.996,1447.4945,1447.7342,1448.4003,space,0.6496,,1448.4003,10,45,1449.3915,1449.3917,1449.396,,,,0,45,45,45,1,115,170,,,,,,,,
,,611ec49716b95cd9e2e981b4,65af55811410b53e6cb3740e,2024-01-23_08h38.31.966,bars,2023.2.3,Win32,60.24096386,657b66ea316d21385b68909f,,,,,,,,,,,1449.3962,1450.3909,,,1450.8793,1451.1266,,35,35,,,,,,,,,,,,,,,,bars/011.png,bars/mask009.png,,,,,,,,,,,,0,2,,,,,,,2,0,2,0,,,,,,,,,,,1450.391,1450.8793,1451.1266,1451.9114,space,0.7663,,1451.9115,55,50,1452.9027,1452.9029,1452.907,,,,0,46,46,46,1,160,85,,,,,,,,
,,611ec49716b95cd9e2e981b4,65af55811410b53e6cb3740e,2024-01-23_08h38.31.966,bars,2023.2.3,Win32,60.24096386,657b66ea316d21385b68909f,,,,,,,,,,,1452.9072,1453.9014,,,1454.4006,1454.6397,,97,97,,,,,,,,,,,,,,,,bars/001.png,bars/mask008.png,,,,,,,,,,,,1,2,,,,,,,4,2,3,2,,,,,,,,,,,1453.9016,1454.4004,1454.6398,1457.2525,space,2.5964,,1457.2525,33,12,1458.2437,1458.2438,1458.2557,,,,0,47,47,47,1,130,85,,,,,,,,
,,611ec49716b95cd9e2e981b4,65af55811410b53e6cb3740e,2024-01-23_08h38.31.966,bars,2023.2.3,Win32,60.24096386,657b66ea316d21385b68909f,,,,,,,,,,,1458.2559,1459.2494,,,1459.7433,1459.9929,,161,161,,,,,,,,,,,,,,,,bars/028.png,bars/mask004.png,,,,,,,,,,,,0,2,,,,,,,6,0,5,2,,,,,,,,,,,1459.2494,1459.7431,1459.9931,1461.9453,space,1.931,,1461.9454,64,41,1462.9368,1462.9371,1462.9403,,,,0,48,48,48,1,45,120,,,,,,,,
,,611ec49716b95cd9e2e981b4,65af55811410b53e6cb3740e,2024-01-23_08h38.31.966,bars,2023.2.3,Win32,60.24096386,657b66ea316d21385b68909f,,,,,,,,,,,1462.9405,1463.9388,,,1464.4345,1464.6737,,132,132,,,,,,,,,,,,,,,,bars/043.png,bars/mask006.png,,,,,,,,,,,,1,2,,,,,,,4,0,4,1,,,,,,,,,,,1463.9388,1464.4344,1464.6737,1465.1234,space,0.4335,,1465.1234,78,2,1466.115,1466.1151,1466.1183,,,,0,49,49,49,1,30,130,,,,,,,,
,,611ec49716b95cd9e2e981b4,65af55811410b53e6cb3740e,2024-01-23_08h38.31.966,bars,2023.2.3,Win32,60.24096386,657b66ea316d21385b68909f,,,,,,,,,,,,,,,,,,,,,,,,,,,,,,,,,,,,,,,,,,,,,,,,,,,,,,,,,,,,,,,,,,,,,,,,,,,,,,,,,,,,,,,,,,,,,1466.1185,1526.1223,0,2,2,4,1,sequence_tables/blk040.csv
,,611ec49716b95cd9e2e981b4,65af55811410b53e6cb3740e,2024-01-23_08h38.31.966,bars,2023.2.3,Win32,60.24096386,657b66ea316d21385b68909f,,,,,,,,,,,1530.532,1531.5162,,,1532.0099,1532.2594,,48,48,,,,,,,,,,,,,,,,bars/047.png,bars/mask002.png,,,,,,,,,,,,0,2,,,,,,,5,1,6,1,,,,,,1526.1328,1530.513,space,4.3656,,1531.5162,1532.0097,1532.2595,1533.3474,space,1.0656,,1533.3475,33,22,1534.3395,1534.3396,1534.3516,,,,0,0,0,0,1,15,70,,,,,,,,
,,611ec49716b95cd9e2e981b4,65af55811410b53e6cb3740e,2024-01-23_08h38.31.966,bars,2023.2.3,Win32,60.24096386,657b66ea316d21385b68909f,,,,,,,,,,,1534.3517,1535.3577,,,1535.8547,1536.1029,,71,71,,,,,,,,,,,,,,,,bars/025.png,bars/mask002.png,,,,,,,,,,,,0,2,,,,,,,3,0,3,0,,,,,,,,,,,1535.3577,1535.8544,1536.1031,1537.6076,space,1.4821,,1537.6077,34,31,1538.6049,1538.6049,1538.616,,,,0,1,1,1,1,105,40,,,,,,,,
,,611ec49716b95cd9e2e981b4,65af55811410b53e6cb3740e,2024-01-23_08h38.31.966,bars,2023.2.3,Win32,60.24096386,657b66ea316d21385b68909f,,,,,,,,,,,1538.6174,1539.6139,,,1540.1132,1540.3693,,168,168,,,,,,,,,,,,,,,,bars/012.png,bars/mask007.png,,,,,,,,,,,,0,2,,,,,,,5,0,4,1,,,,,,,,,,,1539.614,1540.1131,1540.3693,1542.0836,space,1.6986,,1542.0836,78,27,1543.0762,1543.0762,1543.0874,,,,0,2,2,2,1,90,15,,,,,,,,
,,611ec49716b95cd9e2e981b4,65af55811410b53e6cb3740e,2024-01-23_08h38.31.966,bars,2023.2.3,Win32,60.24096386,657b66ea316d21385b68909f,,,,,,,,,,,1543.0878,1544.0902,,,1544.5894,1544.839,,21,21,,,,,,,,,,,,,,,,bars/045.png,bars/mask005.png,,,,,,,,,,,,1,2,,,,,,,3,0,3,2,,,,,,,,,,,1544.0902,1544.5893,1544.8392,1546.6593,space,1.7972,,1546.6594,79,11,1547.651,1547.6512,1547.6543,,,,0,3,3,3,1,100,10,,,,,,,,
,,611ec49716b95cd9e2e981b4,65af55811410b53e6cb3740e,2024-01-23_08h38.31.966,bars,2023.2.3,Win32,60.24096386,657b66ea316d21385b68909f,,,,,,,,,,,1547.6547,1548.6495,,,1549.1382,1549.3878,,107,107,,,,,,,,,,,,,,,,bars/034.png,bars/mask003.png,,,,,,,,,,,,1,1,,,,,,,1,0,2,1,,,,,,,,,,,1548.6498,1549.1382,1549.3878,1549.7381,space,0.3338,,1549.7381,18,42,1550.7355,1550.7355,1550.737,,,,0,4,4,4,1,125,65,,,,,,,,
,,611ec49716b95cd9e2e981b4,65af55811410b53e6cb3740e,2024-01-23_08h38.31.966,bars,2023.2.3,Win32,60.24096386,657b66ea316d21385b68909f,,,,,,,,,,,1550.7373,1551.7345,,,1552.2334,1552.4786,,73,73,,,,,,,,,,,,,,,,bars/000.png,bars/mask005.png,,,,,,,,,,,,0,1,,,,,,,0,2,0,2,,,,,,,,,,,1551.7345,1552.2334,1552.4788,1553.0494,space,0.55,,1553.0494,33,72,1554.0426,1554.0429,1554.0447,,,,0,5,5,5,1,40,145,,,,,,,,
,,611ec49716b95cd9e2e981b4,65af55811410b53e6cb3740e,2024-01-23_08h38.31.966,bars,2023.2.3,Win32,60.24096386,657b66ea316d21385b68909f,,,,,,,,,,,1554.0449,1555.0393,,,1555.5386,1555.7776,,165,165,,,,,,,,,,,,,,,,bars/024.png,bars/mask002.png,,,,,,,,,,,,0,2,,,,,,,0,0,2,0,,,,,,,,,,,1555.0394,1555.5385,1555.7777,1556.3611,space,0.567,,1556.3611,45,5,1557.3521,1557.3523,1557.3564,,,,0,6,6,6,1,120,170,,,,,,,,
,,611ec49716b95cd9e2e981b4,65af55811410b53e6cb3740e,2024-01-23_08h38.31.966,bars,2023.2.3,Win32,60.24096386,657b66ea316d21385b68909f,,,,,,,,,,,1557.3566,1558.3507,,,1558.8392,1559.0862,,126,126,,,,,,,,,,,,,,,,bars/049.png,bars/mask002.png,,,,,,,,,,,,2,2,,,,,,,0,2,0,3,,,,,,,,,,,1558.3509,1558.8391,1559.0862,1559.4325,space,0.3259,,1559.4329,34,11,1560.4306,1560.4308,1560.434,,,,0,7,7,7,1,160,115,,,,,,,,
,,611ec49716b95cd9e2e981b4,65af55811410b53e6cb3740e,2024-01-23_08h38.31.966,bars,2023.2.3,Win32,60.24096386,657b66ea316d21385b68909f,,,,,,,,,,,1560.4343,1561.4288,,,1561.9285,1562.1778,,146,146,,,,,,,,,,,,,,,,bars/017.png,bars/mask003.png,,,,,,,,,,,,1,1,,,,,,,0,0,1,0,,,,,,,,,,,1561.4289,1561.9283,1562.1779,1562.2345,space,0.034,,1562.2345,1,79,1563.226,1563.2262,1563.2304,,,,0,8,8,8,1,145,45,,,,,,,,
,,611ec49716b95cd9e2e981b4,65af55811410b53e6cb3740e,2024-01-23_08h38.31.966,bars,2023.2.3,Win32,60.24096386,657b66ea316d21385b68909f,,,,,,,,,,,1563.2306,1564.2302,,,1564.7243,1564.9732,,26,26,,,,,,,,,,,,,,,,bars/037.png,bars/mask005.png,,,,,,,,,,,,0,1,,,,,,,2,0,4,1,,,,,,,,,,,1564.2302,1564.7241,1564.9733,1565.0236,space,0.0258,,1565.0239,56,79,1566.0216,1566.0218,1566.025,,,,0,9,9,9,1,150,105,,,,,,,,
,,611ec49716b95cd9e2e981b4,65af55811410b53e6cb3740e,2024-01-23_08h38.31.966,bars,2023.2.3,Win32,60.24096386,657b66ea316d21385b68909f,,,,,,,,,,,1566.0252,1567.0206,,,1567.5254,1567.775,,131,131,,,,,,,,,,,,,,,,bars/007.png,bars/mask002.png,,,,,,,,,,,,0,1,,,,,,,4,0,3,0,,,,,,,,,,,1567.0208,1567.5254,1567.775,1568.3913,space,0.5996,,1568.3913,44,76,1569.3833,1569.3835,1569.3864,,,,0,10,10,10,1,175,55,,,,,,,,
,,611ec49716b95cd9e2e981b4,65af55811410b53e6cb3740e,2024-01-23_08h38.31.966,bars,2023.2.3,Win32,60.24096386,657b66ea316d21385b68909f,,,,,,,,,,,1569.3866,1570.3809,,,1570.8811,1571.1302,,59,59,,,,,,,,,,,,,,,,bars/044.png,bars/mask005.png,,,,,,,,,,,,3,1,,,,,,,6,2,6,2,,,,,,,,,,,1570.3811,1570.8809,1571.1305,1572.1524,space,0.9996,,1572.1524,16,84,1573.1432,1573.1432,1573.1466,,,,0,11,11,11,1,75,155,,,,,,,,
,,611ec49716b95cd9e2e981b4,65af55811410b53e6cb3740e,2024-01-23_08h38.31.966,bars,2023.2.3,Win32,60.24096386,657b66ea316d21385b68909f,,,,,,,,,,,1573.1469,1574.1422,,,1574.6412,1574.8806,,40,40,,,,,,,,,,,,,,,,bars/014.png,bars/mask004.png,,,,,,,,,,,,0,2,,,,,,,8,0,7,0,,,,,,,,,,,1574.1423,1574.6411,1574.8806,1577.7766,space,2.8802,,1577.7766,40,40,1578.7678,1578.768,1578.7818,,,,0,12,12,12,1,80,0,,,,,,,,
,,611ec49716b95cd9e2e981b4,65af55811410b53e6cb3740e,2024-01-23_08h38.31.966,bars,2023.2.3,Win32,60.24096386,657b66ea316d21385b68909f,,,,,,,,,,,1578.7821,1579.7836,,,1580.2825,1580.5314,,121,121,,,,,,,,,,,,,,,,bars/027.png,bars/mask001.png,,,,,,,,,,,,6,1,,,,,,,10,0,10,2,,,,,,,,,,,1579.7838,1580.2823,1580.5315,1582.0024,space,1.4479,,1582.0024,11,71,1582.9943,1582.9944,1583.0069,,,,0,13,13,13,1,110,50,,,,,,,,
,,611ec49716b95cd9e2e981b4,65af55811410b53e6cb3740e,2024-01-23_08h38.31.966,bars,2023.2.3,Win32,60.24096386,657b66ea316d21385b68909f,,,,,,,,,,,1583.0071,1584.0097,,,1584.5092,1584.7581,,127,127,,,,,,,,,,,,,,,,bars/038.png,bars/mask002.png,,,,,,,,,,,,0,1,,,,,,,8,2,8,3,,,,,,,,,,,1584.0099,1584.5089,1584.7584,1587.8428,space,3.062,,1587.8429,38,57,1588.835,1588.8352,1588.8474,,,,0,14,14,14,1,165,70,,,,,,,,
,,611ec49716b95cd9e2e981b4,65af55811410b53e6cb3740e,2024-01-23_08h38.31.966,bars,2023.2.3,Win32,60.24096386,657b66ea316d21385b68909f,,,,,,,,,,,1588.8476,1589.8502,,,1590.3497,1590.602,,60,60,,,,,,,,,,,,,,,,bars/022.png,bars/mask002.png,,,,,,,,,,,,0,1,,,,,,,10,0,10,0,,,,,,,,,,,1589.8505,1590.3497,1590.602,1592.3534,space,1.7318,,1592.3534,35,40,1593.3446,1593.3448,1593.3569,,,,0,15,15,15,1,95,20,,,,,,,,
,,611ec49716b95cd9e2e981b4,65af55811410b53e6cb3740e,2024-01-23_08h38.31.966,bars,2023.2.3,Win32,60.24096386,657b66ea316d21385b68909f,,,,,,,,,,,1593.3571,1594.3463,,,1594.8471,1595.0975,,28,28,,,,,,,,,,,,,,,,bars/034.png,bars/mask000.png,,,,,,,,,,,,0,2,,,,,,,8,0,8,1,,,,,,,,,,,1594.3463,1594.8471,1595.0975,1596.2138,space,1.0994,,1596.2138,83,37,1597.2049,1597.2051,1597.2095,,,,0,16,16,16,1,125,65,,,,,,,,
,,611ec49716b95cd9e2e981b4,65af55811410b53e6cb3740e,2024-01-23_08h38.31.966,bars,2023.2.3,Win32,60.24096386,657b66ea316d21385b68909f,,,,,,,,,,,1597.2097,1598.2093,,,1598.7087,1598.9522,,172,-8,,,,,,,,,,,,,,,,bars/040.png,bars/mask003.png,,,,,,,,,,,,1,2,,,,,,,6,0,6,1,,,,,,,,,,,1598.2093,1598.7087,1598.9524,1601.272,space,2.2969,,1601.272,32,13,1602.2636,1602.2637,1602.267,,,,0,17,17,17,1,140,5,,,,,,,,
,,611ec49716b95cd9e2e981b4,65af55811410b53e6cb3740e,2024-01-23_08h38.31.966,bars,2023.2.3,Win32,60.24096386,657b66ea316d21385b68909f,,,,,,,,,,,1602.2673,1603.2616,,,1603.7643,1604.0107,,167,167,,,,,,,,,,,,,,,,bars/024.png,bars/mask006.png,,,,,,,,,,,,2,2,,,,,,,8,2,8,2,,,,,,,,,,,1603.2618,1603.7642,1604.0108,1604.517,space,0.4836,,1604.5171,47,3,1605.509,1605.5094,1605.5123,,,,0,18,18,18,1,120,170,,,,,,,,
,,611ec49716b95cd9e2e981b4,65af55811410b53e6cb3740e,2024-01-23_08h38.31.966,bars,2023.2.3,Win32,60.24096386,657b66ea316d21385b68909f,,,,,,,,,,,1605.5126,1606.507,,,1607.0094,1607.2562,,33,33,,,,,,,,,,,,,,,,bars/033.png,bars/mask002.png,,,,,,,,,,,,6,1,,,,,,,6,4,8,5,,,,,,,,,,,1606.5072,1607.0094,1607.2564,1608.4605,space,1.1823,,1608.4605,8,58,1609.4514,1609.4514,1609.4556,,,,0,19,19,19,1,25,155,,,,,,,,
,,611ec49716b95cd9e2e981b4,65af55811410b53e6cb3740e,2024-01-23_08h38.31.966,bars,2023.2.3,Win32,60.24096386,657b66ea316d21385b68909f,,,,,,,,,,,1609.4559,1610.4501,,,1610.9501,1611.2053,,25,25,,,,,,,,,,,,,,,,bars/022.png,bars/mask003.png,,,,,,,,,,,,0,2,,,,,,,8,2,8,0,,,,,,,,,,,1610.4502,1610.9499,1611.2053,1613.02,space,1.798,,1613.02,70,5,1614.0118,1614.0121,1614.0159,,,,0,20,20,20,1,95,20,,,,,,,,
,,611ec49716b95cd9e2e981b4,65af55811410b53e6cb3740e,2024-01-23_08h38.31.966,bars,2023.2.3,Win32,60.24096386,657b66ea316d21385b68909f,,,,,,,,,,,1614.016,1615.0098,,,1615.498,1615.7419,,42,42,,,,,,,,,,,,,,,,bars/010.png,bars/mask006.png,,,,,,,,,,,,1,2,,,,,,,10,4,10,2,,,,,,,,,,,1615.0099,1615.4979,1615.7421,1617.0138,space,1.2491,,1617.0138,57,13,1618.011,1618.0111,1618.0117,,,,0,21,21,21,1,165,55,,,,,,,,
,,611ec49716b95cd9e2e981b4,65af55811410b53e6cb3740e,2024-01-23_08h38.31.966,bars,2023.2.3,Win32,60.24096386,657b66ea316d21385b68909f,,,,,,,,,,,1618.012,1619.0036,,,1619.5038,1619.7416,,76,76,,,,,,,,,,,,,,,,bars/010.png,bars/mask007.png,,,,,,,,,,,,1,2,,,,,,,10,2,10,2,,,,,,,,,,,1619.0038,1619.5035,1619.7417,1620.3577,space,0.5992,,1620.3577,89,21,1621.3497,1621.3498,1621.353,,,,0,22,22,22,1,165,55,,,,,,,,
,,611ec49716b95cd9e2e981b4,65af55811410b53e6cb3740e,2024-01-23_08h38.31.966,bars,2023.2.3,Win32,60.24096386,657b66ea316d21385b68909f,,,,,,,,,,,1621.3533,1622.3542,,,1622.8534,1623.103,,124,124,,,,,,,,,,,,,,,,bars/010.png,bars/mask002.png,,,,,,,,,,,,0,1,,,,,,,10,4,8,4,,,,,,,,,,,1622.3543,1622.8534,1623.1031,1623.7466,space,0.6182,,1623.747,41,69,1624.744,1624.7442,1624.7482,,,,0,23,23,23,1,165,55,,,,,,,,
,,611ec49716b95cd9e2e981b4,65af55811410b53e6cb3740e,2024-01-23_08h38.31.966,bars,2023.2.3,Win32,60.24096386,657b66ea316d21385b68909f,,,,,,,,,,,1624.7484,1625.7428,,,1626.2418,1626.481,,157,157,,,,,,,,,,,,,,,,bars/049.png,bars/mask007.png,,,,,,,,,,,,6,1,,,,,,,8,6,7,6,,,,,,,,,,,1625.7429,1626.2418,1626.481,1629.1106,space,2.6131,,1629.1106,3,42,1630.1026,1630.1028,1630.1146,,,,0,24,24,24,1,160,115,,,,,,,,
,,611ec49716b95cd9e2e981b4,65af55811410b53e6cb3740e,2024-01-23_08h38.31.966,bars,2023.2.3,Win32,60.24096386,657b66ea316d21385b68909f,,,,,,,,,,,1630.1148,1631.1067,,,1631.6001,1631.8493,,37,37,,,,,,,,,,,,,,,,bars/036.png,bars/mask008.png,,,,,,,,,,,,3,2,,,,,,,6,8,4,8,,,,,,,,,,,1631.1067,1631.6,1631.8494,1635.0179,space,3.146,,1635.018,72,17,1636.0091,1636.0092,1636.0219,,,,0,25,25,25,1,145,20,,,,,,,,
,,611ec49716b95cd9e2e981b4,65af55811410b53e6cb3740e,2024-01-23_08h38.31.966,bars,2023.2.3,Win32,60.24096386,657b66ea316d21385b68909f,,,,,,,,,,,1636.0222,1637.0248,,,1637.5242,1637.7627,,161,161,,,,,,,,,,,,,,,,bars/014.png,bars/mask008.png,,,,,,,,,,,,4,2,,,,,,,8,10,8,10,,,,,,,,,,,1637.025,1637.524,1637.7627,1638.9449,space,1.1655,,1638.9449,81,19,1639.9362,1639.9363,1639.9396,,,,0,26,26,26,1,80,0,,,,,,,,
,,611ec49716b95cd9e2e981b4,65af55811410b53e6cb3740e,2024-01-23_08h38.31.966,bars,2023.2.3,Win32,60.24096386,657b66ea316d21385b68909f,,,,,,,,,,,1639.94,1640.9349,,,1641.4402,1641.6841,,8,8,,,,,,,,,,,,,,,,bars/015.png,bars/mask000.png,,,,,,,,,,,,1,2,,,,,,,10,10,10,9,,,,,,,,,,,1640.935,1641.4402,1641.6843,1642.4165,space,0.7045,,1642.4167,78,28,1643.4146,1643.4149,1643.4178,,,,0,27,27,27,1,110,160,,,,,,,,
,,611ec49716b95cd9e2e981b4,65af55811410b53e6cb3740e,2024-01-23_08h38.31.966,bars,2023.2.3,Win32,60.24096386,657b66ea316d21385b68909f,,,,,,,,,,,1643.4181,1644.4129,,,1644.9012,1645.1448,,61,61,,,,,,,,,,,,,,,,bars/019.png,bars/mask009.png,,,,,,,,,,,,5,1,,,,,,,10,10,10,9,,,,,,,,,,,1644.4131,1644.9012,1645.145,1648.3133,space,3.1456,,1648.3133,16,44,1649.3053,1649.3053,1649.3182,,,,0,28,28,28,1,45,105,,,,,,,,
,,611ec49716b95cd9e2e981b4,65af55811410b53e6cb3740e,2024-01-23_08h38.31.966,bars,2023.2.3,Win32,60.24096386,657b66ea316d21385b68909f,,,,,,,,,,,1649.3184,1650.323,,,1650.8221,1651.069,,118,118,,,,,,,,,,,,,,,,bars/039.png,bars/mask008.png,,,,,,,,,,,,5,2,,,,,,,10,10,10,8,,,,,,,,,,,1650.323,1650.8221,1651.0691,1651.6054,space,0.5139,,1651.6054,57,13,1652.6021,1652.6023,1652.604,,,,0,29,29,29,1,175,105,,,,,,,,
,,611ec49716b95cd9e2e981b4,65af55811410b53e6cb3740e,2024-01-23_08h38.31.966,bars,2023.2.3,Win32,60.24096386,657b66ea316d21385b68909f,,,,,,,,,,,1652.6043,1653.5976,,,1654.0976,1654.3465,,111,111,,,,,,,,,,,,,,,,bars/019.png,bars/mask000.png,,,,,,,,,,,,6,2,,,,,,,8,8,9,8,,,,,,,,,,,1653.5977,1654.0973,1654.3466,1656.2839,space,1.9145,,1656.2839,66,6,1657.2754,1657.2757,1657.2875,,,,0,30,30,30,1,45,105,,,,,,,,
,,611ec49716b95cd9e2e981b4,65af55811410b53e6cb3740e,2024-01-23_08h38.31.966,bars,2023.2.3,Win32,60.24096386,657b66ea316d21385b68909f,,,,,,,,,,,1657.2877,1658.2905,,,1658.779,1659.023,,33,33,,,,,,,,,,,,,,,,bars/035.png,bars/mask006.png,,,,,,,,,,,,0,2,,,,,,,10,6,7,5,,,,,,,,,,,1658.2907,1658.7789,1659.0231,1660.7102,space,1.6649,,1660.7103,38,27,1661.7019,1661.702,1661.7141,,,,0,31,31,31,1,175,60,,,,,,,,
,,611ec49716b95cd9e2e981b4,65af55811410b53e6cb3740e,2024-01-23_08h38.31.966,bars,2023.2.3,Win32,60.24096386,657b66ea316d21385b68909f,,,,,,,,,,,1661.7144,1662.7055,,,1663.1993,1663.4552,,135,135,,,,,,,,,,,,,,,,bars/016.png,bars/mask009.png,,,,,,,,,,,,0,2,,,,,,,10,4,10,6,,,,,,,,,,,1662.7056,1663.1992,1663.4553,1665.2028,space,1.7311,,1665.2029,85,30,1666.1948,1666.195,1666.1977,,,,0,32,32,32,1,40,165,,,,,,,,
,,611ec49716b95cd9e2e981b4,65af55811410b53e6cb3740e,2024-01-23_08h38.31.966,bars,2023.2.3,Win32,60.24096386,657b66ea316d21385b68909f,,,,,,,,,,,1666.1979,1667.1933,,,1667.6919,1667.931,,33,33,,,,,,,,,,,,,,,,bars/004.png,bars/mask000.png,,,,,,,,,,,,6,1,,,,,,,8,6,8,8,,,,,,,,,,,1667.1934,1667.6918,1667.931,1668.614,space,0.6665,,1668.614,8,88,1669.6056,1669.6057,1669.6099,,,,0,33,33,33,1,25,125,,,,,,,,
,,611ec49716b95cd9e2e981b4,65af55811410b53e6cb3740e,2024-01-23_08h38.31.966,bars,2023.2.3,Win32,60.24096386,657b66ea316d21385b68909f,,,,,,,,,,,1669.6101,1670.604,,,1671.1089,1671.3525,,136,136,,,,,,,,,,,,,,,,bars/010.png,bars/mask008.png,,,,,,,,,,,,0,1,,,,,,,10,4,9,3,,,,,,,,,,,1670.6041,1671.1089,1671.3526,1671.8712,space,0.493,,1671.8713,29,81,1672.8706,1672.8707,1672.8712,,,,0,34,34,34,1,165,55,,,,,,,,
,,611ec49716b95cd9e2e981b4,65af55811410b53e6cb3740e,2024-01-23_08h38.31.966,bars,2023.2.3,Win32,60.24096386,657b66ea316d21385b68909f,,,,,,,,,,,1672.8717,1673.8654,,,1674.3543,1674.598,,16,16,,,,,,,,,,,,,,,,bars/005.png,bars/mask001.png,,,,,,,,,,,,8,1,,,,,,,10,2,10,3,,,,,,,,,,,1673.8655,1674.3543,1674.5982,1675.2032,space,0.5826,,1675.2032,6,56,1676.2013,1676.2013,1676.202,,,,0,35,35,35,1,10,140,,,,,,,,
,,611ec49716b95cd9e2e981b4,65af55811410b53e6cb3740e,2024-01-23_08h38.31.966,bars,2023.2.3,Win32,60.24096386,657b66ea316d21385b68909f,,,,,,,,,,,1676.2023,1677.1935,,,1677.6989,1677.9422,,59,59,,,,,,,,,,,,,,,,bars/038.png,bars/mask004.png,,,,,,,,,,,,1,2,,,,,,,10,0,10,1,,,,,,,,,,,1677.1938,1677.6988,1677.9423,1680.3955,space,2.4304,,1680.3955,74,11,1681.3929,1681.3929,1681.4065,,,,0,36,36,36,1,165,70,,,,,,,,
,,611ec49716b95cd9e2e981b4,65af55811410b53e6cb3740e,2024-01-23_08h38.31.966,bars,2023.2.3,Win32,60.24096386,657b66ea316d21385b68909f,,,,,,,,,,,1681.4067,1682.4025,,,1682.9016,1683.1401,,11,11,,,,,,,,,,,,,,,,bars/012.png,bars/mask000.png,,,,,,,,,,,,3,2,,,,,,,10,2,10,3,,,,,,,,,,,1682.4027,1682.9016,1683.1401,1683.6237,space,0.4668,,1683.6237,79,4,1684.6147,1684.6148,1684.618,,,,0,37,37,37,1,90,15,,,,,,,,
,,611ec49716b95cd9e2e981b4,65af55811410b53e6cb3740e,2024-01-23_08h38.31.966,bars,2023.2.3,Win32,60.24096386,657b66ea316d21385b68909f,,,,,,,,,,,1684.6183,1685.6133,,,1686.1127,1686.3624,,55,55,,,,,,,,,,,,,,,,bars/017.png,bars/mask005.png,,,,,,,,,,,,3,2,,,,,,,8,4,9,5,,,,,,,,,,,1685.6134,1686.1126,1686.3626,1687.8496,space,1.4671,,1687.8496,90,10,1688.8474,1688.8474,1688.8481,,,,0,38,38,38,1,145,45,,,,,,,,
,,611ec49716b95cd9e2e981b4,65af55811410b53e6cb3740e,2024-01-23_08h38.31.966,bars,2023.2.3,Win32,60.24096386,657b66ea316d21385b68909f,,,,,,,,,,,1688.8485,1689.8405,,,1690.3394,1690.5888,,133,133,,,,,,,,,,,,,,,,bars/026.png,bars/mask005.png,,,,,,,,,,,,0,2,,,,,,,10,6,10,6,,,,,,,,,,,1689.8406,1690.3392,1690.5888,1692.4258,space,1.8144,,1692.4259,82,48,1693.4242,1693.4242,1693.437,,,,0,39,39,39,1,35,85,,,,,,,,
,,611ec49716b95cd9e2e981b4,65af55811410b53e6cb3740e,2024-01-23_08h38.31.966,bars,2023.2.3,Win32,60.24096386,657b66ea316d21385b68909f,,,,,,,,,,,1693.4371,1694.4323,,,1694.9214,1695.1714,,59,59,,,,,,,,,,,,,,,,bars/045.png,bars/mask000.png,,,,,,,,,,,,0,1,,,,,,,10,8,10,8,,,,,,,,,,,1694.4323,1694.9214,1695.1714,1695.6706,space,0.4831,,1695.6706,41,49,1696.6654,1696.6654,1696.6671,,,,0,40,40,40,1,100,10,,,,,,,,
,,611ec49716b95cd9e2e981b4,65af55811410b53e6cb3740e,2024-01-23_08h38.31.966,bars,2023.2.3,Win32,60.24096386,657b66ea316d21385b68909f,,,,,,,,,,,1696.6673,1697.6606,,,1698.1601,1698.4156,,163,163,,,,,,,,,,,,,,,,bars/014.png,bars/mask004.png,,,,,,,,,,,,4,2,,,,,,,8,10,8,10,,,,,,,,,,,1697.6607,1698.1599,1698.4156,1698.9151,space,0.4828,,1698.9151,83,17,1699.9067,1699.9067,1699.9109,,,,0,41,41,41,1,80,0,,,,,,,,
,,611ec49716b95cd9e2e981b4,65af55811410b53e6cb3740e,2024-01-23_08h38.31.966,bars,2023.2.3,Win32,60.24096386,657b66ea316d21385b68909f,,,,,,,,,,,1699.9112,1700.9055,,,1701.4048,1701.6541,,13,13,,,,,,,,,,,,,,,,bars/004.png,bars/mask003.png,,,,,,,,,,,,5,1,,,,,,,10,8,9,7,,,,,,,,,,,1700.9057,1701.4047,1701.6543,1702.2601,space,0.5835,,1702.2601,12,68,1703.2517,1703.252,1703.256,,,,0,42,42,42,1,25,125,,,,,,,,
,,611ec49716b95cd9e2e981b4,65af55811410b53e6cb3740e,2024-01-23_08h38.31.966,bars,2023.2.3,Win32,60.24096386,657b66ea316d21385b68909f,,,,,,,,,,,1703.2562,1704.2502,,,1704.7498,1705.0045,,78,78,,,,,,,,,,,,,,,,bars/024.png,bars/mask002.png,,,,,,,,,,,,0,1,,,,,,,8,10,9,10,,,,,,,,,,,1704.2502,1704.7495,1705.0046,1705.5482,space,0.5173,,1705.5485,42,88,1706.5469,1706.547,1706.5499,,,,0,43,43,43,1,120,170,,,,,,,,
,,611ec49716b95cd9e2e981b4,65af55811410b53e6cb3740e,2024-01-23_08h38.31.966,bars,2023.2.3,Win32,60.24096386,657b66ea316d21385b68909f,,,,,,,,,,,1706.5503,1707.551,,,1708.0503,1708.2996,,164,164,,,,,,,,,,,,,,,,bars/034.png,bars/mask001.png,,,,,,,,,,,,0,1,,,,,,,6,8,6,5,,,,,,,,,,,1707.551,1708.0502,1708.2997,1708.8,space,0.4836,,1708.8001,39,81,1709.7916,1709.7917,1709.7946,,,,0,44,44,44,1,125,65,,,,,,,,
,,611ec49716b95cd9e2e981b4,65af55811410b53e6cb3740e,2024-01-23_08h38.31.966,bars,2023.2.3,Win32,60.24096386,657b66ea316d21385b68909f,,,,,,,,,,,1709.795,1710.7956,,,1711.2953,1711.538,,64,64,,,,,,,,,,,,,,,,bars/041.png,bars/mask002.png,,,,,,,,,,,,3,2,,,,,,,4,10,3,10,,,,,,,,,,,1710.7957,1711.2953,1711.5382,1712.0446,space,0.4841,,1712.0447,44,21,1713.0359,1713.036,1713.0403,,,,0,45,45,45,1,20,85,,,,,,,,
,,611ec49716b95cd9e2e981b4,65af55811410b53e6cb3740e,2024-01-23_08h38.31.966,bars,2023.2.3,Win32,60.24096386,657b66ea316d21385b68909f,,,,,,,,,,,1713.0406,1714.0343,,,1714.5372,1714.7833,,74,74,,,,,,,,,,,,,,,,bars/002.png,bars/mask009.png,,,,,,,,,,,,6,2,,,,,,,6,10,6,10,,,,,,,,,,,1714.0344,1714.5371,1714.7835,1715.821,space,1.015,,1715.821,56,11,1716.8137,1716.8138,1716.8167,,,,0,46,46,46,1,130,85,,,,,,,,
,,611ec49716b95cd9e2e981b4,65af55811410b53e6cb3740e,2024-01-23_08h38.31.966,bars,2023.2.3,Win32,60.24096386,657b66ea316d21385b68909f,,,,,,,,,,,1716.817,1717.8117,,,1718.3111,1718.5603,,150,-30,,,,,,,,,,,,,,,,bars/015.png,bars/mask002.png,,,,,,,,,,,,5,2,,,,,,,8,8,7,8,,,,,,,,,,,1717.8118,1718.311,1718.5605,1720.7137,space,2.1304,,1720.7137,40,10,1721.7051,1721.7053,1721.7171,,,,0,47,47,47,1,110,160,,,,,,,,
,,611ec49716b95cd9e2e981b4,65af55811410b53e6cb3740e,2024-01-23_08h38.31.966,bars,2023.2.3,Win32,60.24096386,657b66ea316d21385b68909f,,,,,,,,,,,1721.7173,1722.7203,,,1723.2232,1723.4694,,36,36,,,,,,,,,,,,,,,,bars/022.png,bars/mask000.png,,,,,,,,,,,,3,2,,,,,,,6,6,8,6,,,,,,,,,,,1722.7204,1723.2231,1723.4696,1725.7559,space,2.2637,,1725.7559,59,16,1726.7472,1726.7473,1726.7592,,,,0,48,48,48,1,95,20,,,,,,,,
,,611ec49716b95cd9e2e981b4,65af55811410b53e6cb3740e,2024-01-23_08h38.31.966,bars,2023.2.3,Win32,60.24096386,657b66ea316d21385b68909f,,,,,,,,,,,1726.7594,1727.7659,,,1728.2652,1728.517,,67,67,,,,,,,,,,,,,,,,bars/001.png,bars/mask000.png,,,,,,,,,,,,3,2,,,,,,,4,8,5,8,,,,,,,,,,,1727.7659,1728.2651,1728.517,1730.349,space,1.815,,1730.349,63,18,1731.3406,1731.3408,1731.3437,,,,0,49,49,49,1,130,85,,,,,,,,
,,611ec49716b95cd9e2e981b4,65af55811410b53e6cb3740e,2024-01-23_08h38.31.966,bars,2023.2.3,Win32,60.24096386,657b66ea316d21385b68909f,,,,,,,,,,,,,,,,,,,,,,,,,,,,,,,,,,,,,,,,,,,,,,,,,,,,,,,,,,,,,,,,,,,,,,,,,,,,,,,,,,,,,,,,,,,,,1731.3438,1791.3471,0,3,3,1,1,sequence_tables/blk035.csv
,,611ec49716b95cd9e2e981b4,65af55811410b53e6cb3740e,2024-01-23_08h38.31.966,bars,2023.2.3,Win32,60.24096386,657b66ea316d21385b68909f,,,,,,,,,,,1793.5308,1794.5224,,,1795.0212,1795.2741,,124,124,,,,,,,,,,,,,,,,bars/015.png,bars/mask003.png,,,,,,,,,,,,4,1,,,,,,,7,3,7,3,,,,,,1791.3586,1793.524,space,2.1484,,1794.5226,1795.0211,1795.2742,1797.2708,space,1.9745,,1797.2708,14,36,1798.2723,1798.2723,1798.2861,,,,0,0,0,0,1,110,160,,,,,,,,
,,611ec49716b95cd9e2e981b4,65af55811410b53e6cb3740e,2024-01-23_08h38.31.966,bars,2023.2.3,Win32,60.24096386,657b66ea316d21385b68909f,,,,,,,,,,,1798.2863,1799.2871,,,1799.7806,1800.0296,,48,48,,,,,,,,,,,,,,,,bars/007.png,bars/mask006.png,,,,,,,,,,,,0,2,,,,,,,5,1,7,0,,,,,,,,,,,1799.2871,1799.7803,1800.0298,1802.0338,space,1.9806,,1802.0338,53,7,1803.0251,1803.0251,1803.0294,,,,0,1,1,1,1,175,55,,,,,,,,
,,611ec49716b95cd9e2e981b4,65af55811410b53e6cb3740e,2024-01-23_08h38.31.966,bars,2023.2.3,Win32,60.24096386,657b66ea316d21385b68909f,,,,,,,,,,,1803.0297,1804.0237,,,1804.5228,1804.7621,,156,156,,,,,,,,,,,,,,,,bars/034.png,bars/mask005.png,,,,,,,,,,,,0,1,,,,,,,7,3,4,2,,,,,,,,,,,1804.0238,1804.5228,1804.7621,1805.8955,space,1.1166,,1805.8956,31,89,1806.8861,1806.8863,1806.89,,,,0,2,2,2,1,125,65,,,,,,,,
,,611ec49716b95cd9e2e981b4,65af55811410b53e6cb3740e,2024-01-23_08h38.31.966,bars,2023.2.3,Win32,60.24096386,657b66ea316d21385b68909f,,,,,,,,,,,1806.8901,1807.884,,,1808.3844,1808.6223,,49,49,,,,,,,,,,,,,,,,bars/001.png,bars/mask000.png,,,,,,,,,,,,0,2,,,,,,,9,5,10,5,,,,,,,,,,,1807.8841,1808.384,1808.6224,1810.4205,space,1.7931,,1810.4205,81,36,1811.4177,1811.4178,1811.4193,,,,0,3,3,3,1,130,85,,,,,,,,
,,611ec49716b95cd9e2e981b4,65af55811410b53e6cb3740e,2024-01-23_08h38.31.966,bars,2023.2.3,Win32,60.24096386,657b66ea316d21385b68909f,,,,,,,,,,,1811.4196,1812.41,,,1812.9095,1813.159,,49,49,,,,,,,,,,,,,,,,bars/035.png,bars/mask006.png,,,,,,,,,,,,4,2,,,,,,,10,7,10,6,,,,,,,,,,,1812.4101,1812.9093,1813.159,1813.6488,space,0.4672,,1813.6488,54,11,1814.6457,1814.6458,1814.6465,,,,0,4,4,4,1,175,60,,,,,,,,
,,611ec49716b95cd9e2e981b4,65af55811410b53e6cb3740e,2024-01-23_08h38.31.966,bars,2023.2.3,Win32,60.24096386,657b66ea316d21385b68909f,,,,,,,,,,,1814.6467,1815.6384,,,1816.1437,1816.3933,,113,113,,,,,,,,,,,,,,,,bars/035.png,bars/mask001.png,,,,,,,,,,,,0,2,,,,,,,10,5,10,5,,,,,,,,,,,1815.6386,1816.1437,1816.3933,1818.8734,space,2.4631,,1818.8734,62,53,1819.8658,1819.866,1819.8774,,,,0,5,5,5,1,175,60,,,,,,,,
,,611ec49716b95cd9e2e981b4,65af55811410b53e6cb3740e,2024-01-23_08h38.31.966,bars,2023.2.3,Win32,60.24096386,657b66ea316d21385b68909f,,,,,,,,,,,1819.8776,1820.8803,,,1821.3795,1821.6322,,161,161,,,,,,,,,,,,,,,,bars/041.png,bars/mask000.png,,,,,,,,,,,,0,1,,,,,,,10,7,10,7,,,,,,,,,,,1820.8805,1821.3792,1821.6323,1822.1782,space,0.5236,,1822.1784,39,76,1823.1761,1823.1763,1823.1803,,,,0,6,6,6,1,20,85,,,,,,,,
,,611ec49716b95cd9e2e981b4,65af55811410b53e6cb3740e,2024-01-23_08h38.31.966,bars,2023.2.3,Win32,60.24096386,657b66ea316d21385b68909f,,,,,,,,,,,1823.1806,1824.1746,,,1824.6741,1824.9129,,71,71,,,,,,,,,,,,,,,,bars/026.png,bars/mask002.png,,,,,,,,,,,,3,2,,,,,,,8,5,8,6,,,,,,,,,,,1824.1747,1824.6739,1824.913,1828.6575,space,3.728,,1828.6576,36,14,1829.6495,1829.6497,1829.6624,,,,0,7,7,7,1,35,85,,,,,,,,
,,611ec49716b95cd9e2e981b4,65af55811410b53e6cb3740e,2024-01-23_08h38.31.966,bars,2023.2.3,Win32,60.24096386,657b66ea316d21385b68909f,,,,,,,,,,,1829.6626,1830.6647,,,1831.1633,1831.4131,,74,74,,,,,,,,,,,,,,,,bars/004.png,bars/mask002.png,,,,,,,,,,,,0,1,,,,,,,6,7,4,7,,,,,,,,,,,1830.6648,1831.1632,1831.4133,1834.7309,space,3.295,,1834.7309,49,51,1835.7229,1835.7232,1835.7357,,,,0,8,8,8,1,25,125,,,,,,,,
,,611ec49716b95cd9e2e981b4,65af55811410b53e6cb3740e,2024-01-23_08h38.31.966,bars,2023.2.3,Win32,60.24096386,657b66ea316d21385b68909f,,,,,,,,,,,1835.736,1836.7246,,,1837.2268,1837.4759,,105,105,,,,,,,,,,,,,,,,bars/004.png,bars/mask007.png,,,,,,,,,,,,3,2,,,,,,,4,9,4,9,,,,,,,,,,,1836.7246,1837.2267,1837.4759,1840.0559,space,2.5632,,1840.0559,80,20,1841.0478,1841.048,1841.0605,,,,0,9,9,9,1,25,125,,,,,,,,
,,611ec49716b95cd9e2e981b4,65af55811410b53e6cb3740e,2024-01-23_08h38.31.966,bars,2023.2.3,Win32,60.24096386,657b66ea316d21385b68909f,,,,,,,,,,,1841.0607,1842.0661,,,1842.5623,1842.8114,,97,97,,,,,,,,,,,,,,,,bars/026.png,bars/mask001.png,,,,,,,,,,,,3,2,,,,,,,2,7,3,5,,,,,,,,,,,1842.0662,1842.5622,1842.8115,1846.4118,space,3.5779,,1846.4119,62,12,1847.4037,1847.4039,1847.4158,,,,0,10,10,10,1,35,85,,,,,,,,
,,611ec49716b95cd9e2e981b4,65af55811410b53e6cb3740e,2024-01-23_08h38.31.966,bars,2023.2.3,Win32,60.24096386,657b66ea316d21385b68909f,,,,,,,,,,,1847.416,1848.4191,,,1848.9182,1849.1737,,26,26,,,,,,,,,,,,,,,,bars/049.png,bars/mask001.png,,,,,,,,,,,,0,1,,,,,,,0,5,0,6,,,,,,,,,,,1848.4193,1848.9181,1849.1738,1850.3229,space,1.1321,,1850.3229,46,89,1851.3144,1851.3145,1851.3187,,,,0,11,11,11,1,160,115,,,,,,,,
