init_variables.started,init_variables.stopped,participant,session,date,expName,psychopyVersion,OS,frameRate,study_id,instruction_exp.started,instruction_exp.stopped,key_resp_8.keys,key_resp_8.rt,key_resp_8.duration,instruction_single.started,instruction_single.stopped,key_resp_2.keys,key_resp_2.rt,key_resp_2.duration,interval.started,interval.stopped,cue_single.started,cue_single.stopped,mask.started,mask.stopped,ori_response_single.started,res_ori,res,ori_response_single.stopped,key_resp_single.keys,key_resp_single.rt,key_resp_single.duration,disp_single.started,disp_single.stopped,key_resp.keys,key_resp.rt,key_resp.duration,single.thisRepN,single.thisTrialN,single.thisN,single.thisIndex,single.ran,ori,path,mask_path,instruction_bandit.started,instruction_bandit.stopped,key_resp_6.keys,key_resp_6.rt,key_resp_6.duration,cue_bandit.started,cue_bandit.stopped,bandit_res.keys,bandit_res.rt,bandit_res.duration,outcome_bandit.started,rew,action,outcome_bandit.stopped,bandit.thisRepN,bandit.thisTrialN,bandit.thisN,bandit.thisIndex,bandit.ran,actual_rew1,actual_rew2,rew1,rew2,instruction_task.started,instruction_task.stopped,key_resp_7.keys,key_resp_7.rt,key_resp_7.duration,wait_ready.started,wait_ready.stopped,key_resp_3.keys,key_resp_3.rt,key_resp_3.duration,cue.started,cue.stopped,ori_response.started,ori_response.stopped,key_resp_5.keys,key_resp_5.rt,key_resp_5.duration,outcome.started,diff1,diff2,outcome.stopped,disp_outcome_practice.started,disp_outcome_practice.stopped,key_resp_4.keys,key_resp_4.rt,key_resp_4.duration,trials.thisRepN,trials.thisTrialN,trials.thisN,trials.thisIndex,trials.ran,ori1,ori2,break_blk.started,break_blk.stopped,block.thisRepN,block.thisTrialN,block.thisN,block.thisIndex,block.ran,condition_file
0.0003,0.0005,61012d6d362a6eaa2ca78ebd,65af55b2180b766db35d6f43,2024-01-23_08h05.36.757,bars,2023.2.3,Linux x86_64,60.24096386,657b66ea316d21385b68909f,,,,,,,,,,,,,,,,,,,,,,,,,,,,,,,,,,,,,,,,,,,,,,,,,,,,,,,,,,,,,,,,,,,,,,,,,,,,,,,,,,,,,,,,,,,,,,,,,,,,
,,61012d6d362a6eaa2ca78ebd,65af55b2180b766db35d6f43,2024-01-23_08h05.36.757,bars,2023.2.3,Linux x86_64,60.24096386,657b66ea316d21385b68909f,0.0007,14.5098,y,14.4905,,,,,,,,,,,,,,,,,,,,,,,,,,,,,,,,,,,,,,,,,,,,,,,,,,,,,,,,,,,,,,,,,,,,,,,,,,,,,,,,,,,,,,,,,,,,,,,,
,,61012d6d362a6eaa2ca78ebd,65af55b2180b766db35d6f43,2024-01-23_08h05.36.757,bars,2023.2.3,Linux x86_64,60.24096386,657b66ea316d21385b68909f,,,,,,14.5103,32.2572,space,17.7279,,,,,,,,,,,,,,,,,,,,,,,,,,,,,,,,,,,,,,,,,,,,,,,,,,,,,,,,,,,,,,,,,,,,,,,,,,,,,,,,,,,,,,,,,,,
,,61012d6d362a6eaa2ca78ebd,65af55b2180b766db35d6f43,2024-01-23_08h05.36.757,bars,2023.2.3,Linux x86_64,60.24096386,657b66ea316d21385b68909f,,,,,,,,,,,32.2696,33.263,33.2634,33.7622,33.7625,34.0144,34.0147,16,16,51.015,space,16.9679,,51.0155,59.5999,space,8.5314,,0,0,0,2,1,145,bars/single002.png,bars/mask003.png,,,,,,,,,,,,,,,,,,,,,,,,,,,,,,,,,,,,,,,,,,,,,,,,,,,,,,,,,,,,,,,,
,,61012d6d362a6eaa2ca78ebd,65af55b2180b766db35d6f43,2024-01-23_08h05.36.757,bars,2023.2.3,Linux x86_64,60.24096386,657b66ea316d21385b68909f,,,,,,,,,,,59.6296,60.6136,60.6137,61.1153,61.1153,61.3648,61.3649,140,320,72.4203,space,11.0405,,72.4205,76.7314,space,4.2628,,0,1,1,0,1,150,bars/single000.png,bars/mask006.png,,,,,,,,,,,,,,,,,,,,,,,,,,,,,,,,,,,,,,,,,,,,,,,,,,,,,,,,,,,,,,,,
,,61012d6d362a6eaa2ca78ebd,65af55b2180b766db35d6f43,2024-01-23_08h05.36.757,bars,2023.2.3,Linux x86_64,60.24096386,657b66ea316d21385b68909f,,,,,,,,,,,76.7553,77.7317,77.7318,78.2313,78.2314,78.4833,78.4836,26,26,83.782,space,5.2841,,83.7822,86.3323,space,2.5106,,0,2,2,9,1,20,bars/single009.png,bars/mask006.png,,,,,,,,,,,,,,,,,,,,,,,,,,,,,,,,,,,,,,,,,,,,,,,,,,,,,,,,,,,,,,,,
,,61012d6d362a6eaa2ca78ebd,65af55b2180b766db35d6f43,2024-01-23_08h05.36.757,bars,2023.2.3,Linux x86_64,60.24096386,657b66ea316d21385b68909f,,,,,,,,,,,86.3336,87.332,87.3321,87.8331,87.8331,88.0841,88.0842,35,35,91.7532,space,3.6565,,91.7533,95.2493,space,3.4498,,0,3,3,3,1,20,bars/single003.png,bars/mask005.png,,,,,,,,,,,,,,,,,,,,,,,,,,,,,,,,,,,,,,,,,,,,,,,,,,,,,,,,,,,,,,,,
,,61012d6d362a6eaa2ca78ebd,65af55b2180b766db35d6f43,2024-01-23_08h05.36.757,bars,2023.2.3,Linux x86_64,60.24096386,657b66ea316d21385b68909f,,,,,,,,,,,95.2775,96.2654,96.2656,96.7525,96.7526,96.9995,96.9996,36,216,105.5022,space,8.4905,,105.5024,108.3344,space,2.7851,,0,4,4,6,1,175,bars/single006.png,bars/mask005.png,,,,,,,,,,,,,,,,,,,,,,,,,,,,,,,,,,,,,,,,,,,,,,,,,,,,,,,,,,,,,,,,
,,61012d6d362a6eaa2ca78ebd,65af55b2180b766db35d6f43,2024-01-23_08h05.36.757,bars,2023.2.3,Linux x86_64,60.24096386,657b66ea316d21385b68909f,,,,,,,,,,,108.3357,109.3338,109.3339,109.8344,109.8344,110.0835,110.0836,148,-32,117.2345,space,7.1359,,117.235,118.2841,space,1.0183,,0,5,5,8,1,160,bars/single008.png,bars/mask004.png,,,,,,,,,,,,,,,,,,,,,,,,,,,,,,,,,,,,,,,,,,,,,,,,,,,,,,,,,,,,,,,,
,,61012d6d362a6eaa2ca78ebd,65af55b2180b766db35d6f43,2024-01-23_08h05.36.757,bars,2023.2.3,Linux x86_64,60.24096386,657b66ea316d21385b68909f,,,,,,,,,,,118.285,119.2842,119.2842,119.7853,119.7855,120.036,120.0361,29,29,141.4028,space,21.3492,,141.4029,142.2712,space,0.817,,0,6,6,7,1,45,bars/single007.png,bars/mask009.png,,,,,,,,,,,,,,,,,,,,,,,,,,,,,,,,,,,,,,,,,,,,,,,,,,,,,,,,,,,,,,,,
,,61012d6d362a6eaa2ca78ebd,65af55b2180b766db35d6f43,2024-01-23_08h05.36.757,bars,2023.2.3,Linux x86_64,60.24096386,657b66ea316d21385b68909f,,,,,,,,,,,142.2721,143.2696,143.2697,143.771,143.7711,144.0197,144.0198,90,90,147.853,space,3.816,,147.8532,148.736,space,0.8382,,0,7,7,4,1,95,bars/single004.png,bars/mask004.png,,,,,,,,,,,,,,,,,,,,,,,,,,,,,,,,,,,,,,,,,,,,,,,,,,,,,,,,,,,,,,,,
,,61012d6d362a6eaa2ca78ebd,65af55b2180b766db35d6f43,2024-01-23_08h05.36.757,bars,2023.2.3,Linux x86_64,60.24096386,657b66ea316d21385b68909f,,,,,,,,,,,148.7378,149.7359,149.736,150.2355,150.2356,150.4862,150.4863,57,57,158.4872,space,7.9887,,158.4872,159.8869,space,1.3567,,0,8,8,5,1,55,bars/single005.png,bars/mask008.png,,,,,,,,,,,,,,,,,,,,,,,,,,,,,,,,,,,,,,,,,,,,,,,,,,,,,,,,,,,,,,,,
,,61012d6d362a6eaa2ca78ebd,65af55b2180b766db35d6f43,2024-01-23_08h05.36.757,bars,2023.2.3,Linux x86_64,60.24096386,657b66ea316d21385b68909f,,,,,,,,,,,159.8878,160.8893,160.8894,161.3871,161.3872,161.6376,161.6376,13,13,168.1052,space,6.4512,,168.1053,169.0038,space,0.8574,,0,9,9,1,1,20,bars/single001.png,bars/mask006.png,,,,,,,,,,,,,,,,,,,,,,,,,,,,,,,,,,,,,,,,,,,,,,,,,,,,,,,,,,,,,,,,
,,61012d6d362a6eaa2ca78ebd,65af55b2180b766db35d6f43,2024-01-23_08h05.36.757,bars,2023.2.3,Linux x86_64,60.24096386,657b66ea316d21385b68909f,,,,,,,,,,,,,,,,,,,,,,,,,,,,,,,,,,,,,169.0061,179.6213,space,10.5915,,,,,,,,,,,,,,,,,,,,,,,,,,,,,,,,,,,,,,,,,,,,,,,,,,,,,,,,,,,,
,,61012d6d362a6eaa2ca78ebd,65af55b2180b766db35d6f43,2024-01-23_08h05.36.757,bars,2023.2.3,Linux x86_64,60.24096386,657b66ea316d21385b68909f,,,,,,,,,,,,,,,,,,,,,,,,,,,,,,,,,,,,,,,,,,179.6369,182.8401,right,3.1825,,182.8406,2,2,183.8409,0,0,0,0,1,9,1,9,2,,,,,,,,,,,,,,,,,,,,,,,,,,,,,,,,,,,,,,,,,
,,61012d6d362a6eaa2ca78ebd,65af55b2180b766db35d6f43,2024-01-23_08h05.36.757,bars,2023.2.3,Linux x86_64,60.24096386,657b66ea316d21385b68909f,,,,,,,,,,,,,,,,,,,,,,,,,,,,,,,,,,,,,,,,,,183.8422,186.1903,left,2.3372,,186.1904,10,1,187.1902,0,1,1,1,1,10,0,10,1,,,,,,,,,,,,,,,,,,,,,,,,,,,,,,,,,,,,,,,,,
,,61012d6d362a6eaa2ca78ebd,65af55b2180b766db35d6f43,2024-01-23_08h05.36.757,bars,2023.2.3,Linux x86_64,60.24096386,657b66ea316d21385b68909f,,,,,,,,,,,,,,,,,,,,,,,,,,,,,,,,,,,,,,,,,,187.1917,188.957,right,1.7484,,188.9572,2,2,189.9554,0,2,2,2,1,10,2,10,2,,,,,,,,,,,,,,,,,,,,,,,,,,,,,,,,,,,,,,,,,
,,61012d6d362a6eaa2ca78ebd,65af55b2180b766db35d6f43,2024-01-23_08h05.36.757,bars,2023.2.3,Linux x86_64,60.24096386,657b66ea316d21385b68909f,,,,,,,,,,,,,,,,,,,,,,,,,,,,,,,,,,,,,,,,,,189.9824,190.3581,left,0.3654,,190.3583,7,1,191.3554,0,3,3,3,1,8,4,7,3,,,,,,,,,,,,,,,,,,,,,,,,,,,,,,,,,,,,,,,,,
,,61012d6d362a6eaa2ca78ebd,65af55b2180b766db35d6f43,2024-01-23_08h05.36.757,bars,2023.2.3,Linux x86_64,60.24096386,657b66ea316d21385b68909f,,,,,,,,,,,,,,,,,,,,,,,,,,,,,,,,,,,,,,,,,,191.3563,191.8557,left,0.4834,,191.8567,5,1,192.8555,0,4,4,4,1,6,2,5,1,,,,,,,,,,,,,,,,,,,,,,,,,,,,,,,,,,,,,,,,,
,,61012d6d362a6eaa2ca78ebd,65af55b2180b766db35d6f43,2024-01-23_08h05.36.757,bars,2023.2.3,Linux x86_64,60.24096386,657b66ea316d21385b68909f,,,,,,,,,,,,,,,,,,,,,,,,,,,,,,,,,,,,,,,,,,192.8568,193.4224,right,0.5515,,193.4225,4,2,194.423,0,5,5,5,1,4,4,4,4,,,,,,,,,,,,,,,,,,,,,,,,,,,,,,,,,,,,,,,,,
,,61012d6d362a6eaa2ca78ebd,65af55b2180b766db35d6f43,2024-01-23_08h05.36.757,bars,2023.2.3,Linux x86_64,60.24096386,657b66ea316d21385b68909f,,,,,,,,,,,,,,,,,,,,,,,,,,,,,,,,,,,,,,,,,,194.4244,194.7572,left,0.321,,194.7573,1,1,195.7556,0,6,6,6,1,2,2,1,2,,,,,,,,,,,,,,,,,,,,,,,,,,,,,,,,,,,,,,,,,
,,61012d6d362a6eaa2ca78ebd,65af55b2180b766db35d6f43,2024-01-23_08h05.36.757,bars,2023.2.3,Linux x86_64,60.24096386,657b66ea316d21385b68909f,,,,,,,,,,,,,,,,,,,,,,,,,,,,,,,,,,,,,,,,,,195.7565,196.0745,right,0.3046,,196.0745,1,2,197.0816,0,7,7,7,1,0,0,0,1,,,,,,,,,,,,,,,,,,,,,,,,,,,,,,,,,,,,,,,,,
,,61012d6d362a6eaa2ca78ebd,65af55b2180b766db35d6f43,2024-01-23_08h05.36.757,bars,2023.2.3,Linux x86_64,60.24096386,657b66ea316d21385b68909f,,,,,,,,,,,,,,,,,,,,,,,,,,,,,,,,,,,,,,,,,,197.084,197.79,right,0.6907,,197.7902,0,2,198.7917,0,8,8,8,1,0,2,1,0,,,,,,,,,,,,,,,,,,,,,,,,,,,,,,,,,,,,,,,,,
,,61012d6d362a6eaa2ca78ebd,65af55b2180b766db35d6f43,2024-01-23_08h05.36.757,bars,2023.2.3,Linux x86_64,60.24096386,657b66ea316d21385b68909f,,,,,,,,,,,,,,,,,,,,,,,,,,,,,,,,,,,,,,,,,,198.7928,199.2587,left,0.4506,,199.2588,2,1,200.2571,0,9,9,9,1,2,4,2,3,,,,,,,,,,,,,,,,,,,,,,,,,,,,,,,,,,,,,,,,,
,,61012d6d362a6eaa2ca78ebd,65af55b2180b766db35d6f43,2024-01-23_08h05.36.757,bars,2023.2.3,Linux x86_64,60.24096386,657b66ea316d21385b68909f,,,,,,,,,,,,,,,,,,,,,,,,,,,,,,,,,,,,,,,,,,200.2581,200.6397,left,0.3681,,200.6398,0,1,201.6408,0,10,10,10,1,0,2,0,3,,,,,,,,,,,,,,,,,,,,,,,,,,,,,,,,,,,,,,,,,
,,61012d6d362a6eaa2ca78ebd,65af55b2180b766db35d6f43,2024-01-23_08h05.36.757,bars,2023.2.3,Linux x86_64,60.24096386,657b66ea316d21385b68909f,,,,,,,,,,,,,,,,,,,,,,,,,,,,,,,,,,,,,,,,,,201.6427,201.9731,right,0.3167,,201.9731,3,2,202.9735,0,11,11,11,1,0,4,0,3,,,,,,,,,,,,,,,,,,,,,,,,,,,,,,,,,,,,,,,,,
,,61012d6d362a6eaa2ca78ebd,65af55b2180b766db35d6f43,2024-01-23_08h05.36.757,bars,2023.2.3,Linux x86_64,60.24096386,657b66ea316d21385b68909f,,,,,,,,,,,,,,,,,,,,,,,,,,,,,,,,,,,,,,,,,,202.9752,204.1898,right,1.201,,204.1899,6,2,205.1903,0,12,12,12,1,2,6,1,6,,,,,,,,,,,,,,,,,,,,,,,,,,,,,,,,,,,,,,,,,
,,61012d6d362a6eaa2ca78ebd,65af55b2180b766db35d6f43,2024-01-23_08h05.36.757,bars,2023.2.3,Linux x86_64,60.24096386,657b66ea316d21385b68909f,,,,,,,,,,,,,,,,,,,,,,,,,,,,,,,,,,,,,,,,,,205.192,205.5757,left,0.3688,,205.5758,1,1,206.5736,0,13,13,13,1,0,4,1,3,,,,,,,,,,,,,,,,,,,,,,,,,,,,,,,,,,,,,,,,,
,,61012d6d362a6eaa2ca78ebd,65af55b2180b766db35d6f43,2024-01-23_08h05.36.757,bars,2023.2.3,Linux x86_64,60.24096386,657b66ea316d21385b68909f,,,,,,,,,,,,,,,,,,,,,,,,,,,,,,,,,,,,,,,,,,206.5744,206.9257,left,0.3389,,206.9258,2,1,207.924,0,14,14,14,1,2,6,2,7,,,,,,,,,,,,,,,,,,,,,,,,,,,,,,,,,,,,,,,,,
,,61012d6d362a6eaa2ca78ebd,65af55b2180b766db35d6f43,2024-01-23_08h05.36.757,bars,2023.2.3,Linux x86_64,60.24096386,657b66ea316d21385b68909f,,,,,,,,,,,,,,,,,,,,,,,,,,,,,,,,,,,,,,,,,,207.9265,208.2402,right,0.3021,,208.2403,9,2,209.2406,0,15,15,15,1,4,8,3,9,,,,,,,,,,,,,,,,,,,,,,,,,,,,,,,,,,,,,,,,,
,,61012d6d362a6eaa2ca78ebd,65af55b2180b766db35d6f43,2024-01-23_08h05.36.757,bars,2023.2.3,Linux x86_64,60.24096386,657b66ea316d21385b68909f,,,,,,,,,,,,,,,,,,,,,,,,,,,,,,,,,,,,,,,,,,209.2413,209.6077,right,0.355,,209.6078,7,2,210.6074,0,16,16,16,1,6,6,7,7,,,,,,,,,,,,,,,,,,,,,,,,,,,,,,,,,,,,,,,,,
,,61012d6d362a6eaa2ca78ebd,65af55b2180b766db35d6f43,2024-01-23_08h05.36.757,bars,2023.2.3,Linux x86_64,60.24096386,657b66ea316d21385b68909f,,,,,,,,,,,,,,,,,,,,,,,,,,,,,,,,,,,,,,,,,,210.6095,211.0412,right,0.4145,,211.0421,5,2,212.0408,0,17,17,17,1,8,4,9,5,,,,,,,,,,,,,,,,,,,,,,,,,,,,,,,,,,,,,,,,,
,,61012d6d362a6eaa2ca78ebd,65af55b2180b766db35d6f43,2024-01-23_08h05.36.757,bars,2023.2.3,Linux x86_64,60.24096386,657b66ea316d21385b68909f,,,,,,,,,,,,,,,,,,,,,,,,,,,,,,,,,,,,,,,,,,212.0416,212.3409,right,0.2848,,212.3411,1,2,213.3425,0,18,18,18,1,6,2,5,1,,,,,,,,,,,,,,,,,,,,,,,,,,,,,,,,,,,,,,,,,
,,61012d6d362a6eaa2ca78ebd,65af55b2180b766db35d6f43,2024-01-23_08h05.36.757,bars,2023.2.3,Linux x86_64,60.24096386,657b66ea316d21385b68909f,,,,,,,,,,,,,,,,,,,,,,,,,,,,,,,,,,,,,,,,,,213.3433,213.7915,left,0.4315,,213.7917,7,1,214.7908,0,19,19,19,1,8,0,7,0,,,,,,,,,,,,,,,,,,,,,,,,,,,,,,,,,,,,,,,,,
,,61012d6d362a6eaa2ca78ebd,65af55b2180b766db35d6f43,2024-01-23_08h05.36.757,bars,2023.2.3,Linux x86_64,60.24096386,657b66ea316d21385b68909f,,,,,,,,,,,,,,,,,,,,,,,,,,,,,,,,,,,,,,,,,,,,,,,,,,,,,,,,,,,,214.7932,224.7954,space,9.9822,,,,,,,,,,,,,,,,,,,,,,,,,,,,,,,,,,,,,
,,61012d6d362a6eaa2ca78ebd,65af55b2180b766db35d6f43,2024-01-23_08h05.36.757,bars,2023.2.3,Linux x86_64,60.24096386,657b66ea316d21385b68909f,,,,,,,,,,,225.9574,226.9603,,,227.4603,227.7085,,60,60,,,,,,,,,,,,,,,,bars/002.png,bars/mask000.png,,,,,,,,,,,,0,2,,,,,,,10,1,8,0,,,,,,224.8206,225.9429,space,1.1064,,226.9609,227.4601,227.7093,234.31,space,6.5804,,234.3106,70,25,235.311,235.3116,241.3784,space,6.0378,,0,0,0,0,1,130,85,,,,,,,,
,,61012d6d362a6eaa2ca78ebd,65af55b2180b766db35d6f43,2024-01-23_08h05.36.757,bars,2023.2.3,Linux x86_64,60.24096386,657b66ea316d21385b68909f,,,,,,,,,,,241.4055,242.3933,,,242.8941,243.1432,,161,161,,,,,,,,,,,,,,,,bars/024.png,bars/mask000.png,,,,,,,,,,,,0,2,,,,,,,8,0,8,0,,,,,,,,,,,242.3934,242.8939,243.1433,249.0611,space,5.9046,,249.0623,41,9,250.0616,250.0617,252.8101,space,2.704,,0,1,1,1,1,120,170,,,,,,,,
,,61012d6d362a6eaa2ca78ebd,65af55b2180b766db35d6f43,2024-01-23_08h05.36.757,bars,2023.2.3,Linux x86_64,60.24096386,657b66ea316d21385b68909f,,,,,,,,,,,252.8123,253.8104,,,254.3106,254.5611,,16,16,,,,,,,,,,,,,,,,bars/043.png,bars/mask006.png,,,,,,,,,,,,3,1,,,,,,,6,0,5,0,,,,,,,,,,,253.8104,254.3105,254.5612,257.4299,space,2.8565,,257.43,14,66,258.4268,258.4268,260.977,space,2.5144,,0,2,2,2,1,30,130,,,,,,,,
,,61012d6d362a6eaa2ca78ebd,65af55b2180b766db35d6f43,2024-01-23_08h05.36.757,bars,2023.2.3,Linux x86_64,60.24096386,657b66ea316d21385b68909f,,,,,,,,,,,261.0021,261.9966,,,262.4952,262.7273,,22,22,,,,,,,,,,,,,,,,bars/031.png,bars/mask003.png,,,,,,,,,,,,0,2,,,,,,,4,2,3,0,,,,,,,,,,,261.9967,262.4951,262.7274,265.9111,space,3.1692,,265.9111,82,13,266.9119,266.9121,269.2127,space,2.2505,,0,3,3,3,1,120,35,,,,,,,,
,,61012d6d362a6eaa2ca78ebd,65af55b2180b766db35d6f43,2024-01-23_08h05.36.757,bars,2023.2.3,Linux x86_64,60.24096386,657b66ea316d21385b68909f,,,,,,,,,,,269.2136,270.212,,,270.7132,270.9618,,157,-23,,,,,,,,,,,,,,,,bars/024.png,bars/mask000.png,,,,,,,,,,,,0,2,,,,,,,6,0,5,0,,,,,,,,,,,270.212,270.7131,270.962,277.2141,space,6.239,,277.2143,37,13,278.2136,278.2137,279.0951,space,0.8272,,0,4,4,4,1,120,170,,,,,,,,
,,61012d6d362a6eaa2ca78ebd,65af55b2180b766db35d6f43,2024-01-23_08h05.36.757,bars,2023.2.3,Linux x86_64,60.24096386,657b66ea316d21385b68909f,,,,,,,,,,,279.0967,280.0962,,,280.5965,280.8465,,160,160,,,,,,,,,,,,,,,,bars/024.png,bars/mask001.png,,,,,,,,,,,,3,2,,,,,,,8,2,10,5,,,,,,,,,,,280.0963,280.5965,280.8465,286.0456,space,5.1846,,286.0458,40,10,287.0456,287.0458,288.2133,space,1.1243,,0,5,5,5,1,120,170,,,,,,,,
,,61012d6d362a6eaa2ca78ebd,65af55b2180b766db35d6f43,2024-01-23_08h05.36.757,bars,2023.2.3,Linux x86_64,60.24096386,657b66ea316d21385b68909f,,,,,,,,,,,288.2144,289.2125,,,289.7129,289.9631,,97,97,,,,,,,,,,,,,,,,bars/028.png,bars/mask000.png,,,,,,,,,,,,0,2,,,,,,,10,0,10,1,,,,,,,,,,,289.2127,289.7128,289.9632,293.33,space,3.3554,,293.3301,52,23,294.33,294.33,296.0642,space,1.6874,,0,6,6,6,1,45,120,,,,,,,,
,,61012d6d362a6eaa2ca78ebd,65af55b2180b766db35d6f43,2024-01-23_08h05.36.757,bars,2023.2.3,Linux x86_64,60.24096386,657b66ea316d21385b68909f,,,,,,,,,,,296.0653,297.0639,,,297.5647,297.8131,,25,205,,,,,,,,,,,,,,,,bars/033.png,bars/mask000.png,,,,,,,,,,,,10,1,,,,,,,10,0,10,0,,,,,,,,,,,297.064,297.5646,297.8132,301.2625,space,3.4335,,301.2625,0,50,302.2634,302.2634,304.8306,space,2.5198,,0,7,7,7,1,25,155,,,,,,,,
,,61012d6d362a6eaa2ca78ebd,65af55b2180b766db35d6f43,2024-01-23_08h05.36.757,bars,2023.2.3,Linux x86_64,60.24096386,657b66ea316d21385b68909f,,,,,,,,,,,304.8482,305.8476,,,306.3311,306.5806,,177,-3,,,,,,,,,,,,,,,,bars/044.png,bars/mask002.png,,,,,,,,,,,,0,2,,,,,,,10,0,8,0,,,,,,,,,,,305.8477,306.331,306.5807,312.1814,space,5.5862,,312.1816,78,22,313.1805,313.1805,313.9504,space,0.7165,,0,8,8,8,1,75,155,,,,,,,,
,,61012d6d362a6eaa2ca78ebd,65af55b2180b766db35d6f43,2024-01-23_08h05.36.757,bars,2023.2.3,Linux x86_64,60.24096386,657b66ea316d21385b68909f,,,,,,,,,,,313.9518,314.9486,,,315.448,315.6988,,113,113,,,,,,,,,,,,,,,,bars/007.png,bars/mask005.png,,,,,,,,,,,,0,2,,,,,,,8,0,9,0,,,,,,,,,,,314.9487,315.4478,315.6988,318.1996,space,2.4839,,318.1997,62,58,319.1998,319.1998,319.9654,space,0.7223,,0,9,9,9,1,175,55,,,,,,,,
,,61012d6d362a6eaa2ca78ebd,65af55b2180b766db35d6f43,2024-01-23_08h05.36.757,bars,2023.2.3,Linux x86_64,60.24096386,657b66ea316d21385b68909f,,,,,,,,,,,319.9673,320.9645,,,321.4665,321.7167,,158,-22,,,,,,,,,,,,,,,,bars/035.png,bars/mask005.png,,,,,,,,,,,,3,1,,,,,,,10,2,7,4,,,,,,,,,,,320.9646,321.4663,321.7168,327.6818,space,5.9478,,327.6819,17,82,328.6835,328.6835,334.5498,space,5.8186,,0,10,10,10,1,175,60,,,,,,,,
,,61012d6d362a6eaa2ca78ebd,65af55b2180b766db35d6f43,2024-01-23_08h05.36.757,bars,2023.2.3,Linux x86_64,60.24096386,657b66ea316d21385b68909f,,,,,,,,,,,334.5778,335.5665,,,336.0669,336.3006,,49,49,,,,,,,,,,,,,,,,bars/049.png,bars/mask000.png,,,,,,,,,,,,0,2,,,,,,,10,4,10,4,,,,,,,,,,,335.5666,336.0667,336.3007,340.6002,space,4.2842,,340.6003,69,66,341.5996,341.5997,342.0008,space,0.3467,,0,11,11,11,1,160,115,,,,,,,,
,,61012d6d362a6eaa2ca78ebd,65af55b2180b766db35d6f43,2024-01-23_08h05.36.757,bars,2023.2.3,Linux x86_64,60.24096386,657b66ea316d21385b68909f,,,,,,,,,,,342.0025,343,,,343.4993,343.7517,,37,217,,,,,,,,,,,,,,,,bars/017.png,bars/mask008.png,,,,,,,,,,,,6,2,,,,,,,8,6,7,8,,,,,,,,,,,343,343.4993,343.7518,348.7031,space,4.9281,,348.7031,72,8,349.7001,349.7001,351.9176,space,2.1732,,0,12,12,12,1,145,45,,,,,,,,
,,61012d6d362a6eaa2ca78ebd,65af55b2180b766db35d6f43,2024-01-23_08h05.36.757,bars,2023.2.3,Linux x86_64,60.24096386,657b66ea316d21385b68909f,,,,,,,,,,,351.9185,352.9177,,,353.419,353.6673,,99,99,,,,,,,,,,,,,,,,bars/022.png,bars/mask007.png,,,,,,,,,,,,5,1,,,,,,,6,4,6,2,,,,,,,,,,,352.9178,353.419,353.6674,361.9355,space,8.2529,,361.9357,4,79,362.9347,362.9347,363.9541,space,0.9828,,0,13,13,13,1,95,20,,,,,,,,
,,61012d6d362a6eaa2ca78ebd,65af55b2180b766db35d6f43,2024-01-23_08h05.36.757,bars,2023.2.3,Linux x86_64,60.24096386,657b66ea316d21385b68909f,,,,,,,,,,,363.9552,364.9514,,,365.4517,365.7034,,114,114,,,,,,,,,,,,,,,,bars/005.png,bars/mask006.png,,,,,,,,,,,,1,2,,,,,,,4,6,4,6,,,,,,,,,,,364.9515,365.4516,365.7036,370.4012,space,4.681,,370.4013,76,26,371.4028,371.4029,373.5023,space,2.0471,,0,14,14,14,1,10,140,,,,,,,,
,,61012d6d362a6eaa2ca78ebd,65af55b2180b766db35d6f43,2024-01-23_08h05.36.757,bars,2023.2.3,Linux x86_64,60.24096386,657b66ea316d21385b68909f,,,,,,,,,,,373.5032,374.5019,,,375.0021,375.2543,,51,51,,,,,,,,,,,,,,,,bars/010.png,bars/mask006.png,,,,,,,,,,,,3,2,,,,,,,6,4,5,3,,,,,,,,,,,374.502,375.002,375.2544,380.5035,space,5.236,,380.5036,66,4,381.503,381.5031,383.4188,space,1.8752,,0,15,15,15,1,165,55,,,,,,,,
,,61012d6d362a6eaa2ca78ebd,65af55b2180b766db35d6f43,2024-01-23_08h05.36.757,bars,2023.2.3,Linux x86_64,60.24096386,657b66ea316d21385b68909f,,,,,,,,,,,383.4206,384.4186,,,384.9183,385.1698,,151,-29,,,,,,,,,,,,,,,,bars/016.png,bars/mask003.png,,,,,,,,,,,,2,2,,,,,,,4,2,3,3,,,,,,,,,,,384.4187,384.9183,385.1702,391.1882,space,5.9989,,391.1882,69,14,392.1864,392.1864,392.9719,space,0.7398,,0,16,16,16,1,40,165,,,,,,,,
,,61012d6d362a6eaa2ca78ebd,65af55b2180b766db35d6f43,2024-01-23_08h05.36.757,bars,2023.2.3,Linux x86_64,60.24096386,657b66ea316d21385b68909f,,,,,,,,,,,392.973,393.9698,,,394.4696,394.7201,,100,100,,,,,,,,,,,,,,,,bars/002.png,bars/mask002.png,,,,,,,,,,,,2,2,,,,,,,2,4,2,4,,,,,,,,,,,393.9699,394.4695,394.7202,400.9213,space,6.1841,,400.9214,30,15,401.9204,401.9205,402.6213,space,0.6525,,0,17,17,17,1,130,85,,,,,,,,
,,61012d6d362a6eaa2ca78ebd,65af55b2180b766db35d6f43,2024-01-23_08h05.36.757,bars,2023.2.3,Linux x86_64,60.24096386,657b66ea316d21385b68909f,,,,,,,,,,,402.6222,403.6208,,,404.1211,404.3711,,121,-59,,,,,,,,,,,,,,,,bars/016.png,bars/mask004.png,,,,,,,,,,,,0,2,,,,,,,0,2,0,2,,,,,,,,,,,403.6208,404.1211,404.3713,411.0059,space,6.6235,,411.0061,81,44,412.0054,412.0056,412.7042,space,0.6525,,0,18,18,18,1,40,165,,,,,,,,
,,61012d6d362a6eaa2ca78ebd,65af55b2180b766db35d6f43,2024-01-23_08h05.36.757,bars,2023.2.3,Linux x86_64,60.24096386,657b66ea316d21385b68909f,,,,,,,,,,,412.7052,413.7043,,,414.2047,414.4548,,55,55,,,,,,,,,,,,,,,,bars/011.png,bars/mask007.png,,,,,,,,,,,,0,2,,,,,,,0,4,0,4,,,,,,,,,,,413.7043,414.2047,414.4549,421.09,space,6.6171,,421.09,75,30,422.0879,422.0881,422.6054,space,0.4691,,0,19,19,19,1,160,85,,,,,,,,
,,61012d6d362a6eaa2ca78ebd,65af55b2180b766db35d6f43,2024-01-23_08h05.36.757,bars,2023.2.3,Linux x86_64,60.24096386,657b66ea316d21385b68909f,,,,,,,,,,,422.6078,423.606,,,424.1059,424.3552,,109,109,,,,,,,,,,,,,,,,bars/047.png,bars/mask000.png,,,,,,,,,,,,0,2,,,,,,,2,2,1,3,,,,,,,,,,,423.606,424.1058,424.3553,427.3893,space,3.0223,,427.3895,86,39,428.3894,428.3895,429.9233,space,1.4922,,0,20,20,20,1,15,70,,,,,,,,
,,61012d6d362a6eaa2ca78ebd,65af55b2180b766db35d6f43,2024-01-23_08h05.36.757,bars,2023.2.3,Linux x86_64,60.24096386,657b66ea316d21385b68909f,,,,,,,,,,,429.9242,430.9222,,,431.4246,431.6718,,2,2,,,,,,,,,,,,,,,,bars/032.png,bars/mask007.png,,,,,,,,,,,,2,2,,,,,,,0,4,0,5,,,,,,,,,,,430.9222,431.4237,431.672,439.225,space,7.5412,,439.2252,57,18,440.2234,440.2237,442.5064,space,2.2397,,0,21,21,21,1,125,20,,,,,,,,
,,61012d6d362a6eaa2ca78ebd,65af55b2180b766db35d6f43,2024-01-23_08h05.36.757,bars,2023.2.3,Linux x86_64,60.24096386,657b66ea316d21385b68909f,,,,,,,,,,,442.5072,443.5072,,,444.0069,444.2594,,60,60,,,,,,,,,,,,,,,,bars/001.png,bars/mask003.png,,,,,,,,,,,,0,2,,,,,,,2,2,2,2,,,,,,,,,,,443.5073,444.0069,444.2595,451.4404,space,7.1664,,451.4405,70,25,452.4409,452.441,452.9081,space,0.4171,,0,22,22,22,1,130,85,,,,,,,,
,,61012d6d362a6eaa2ca78ebd,65af55b2180b766db35d6f43,2024-01-23_08h05.36.757,bars,2023.2.3,Linux x86_64,60.24096386,657b66ea316d21385b68909f,,,,,,,,,,,452.9091,453.9066,,,454.4088,454.6575,,80,80,,,,,,,,,,,,,,,,bars/021.png,bars/mask007.png,,,,,,,,,,,,1,2,,,,,,,0,4,0,2,,,,,,,,,,,453.9066,454.4087,454.6576,458.5108,space,3.8395,,458.5109,75,10,459.5092,459.5093,460.1911,space,0.6388,,0,23,23,23,1,155,70,,,,,,,,
,,61012d6d362a6eaa2ca78ebd,65af55b2180b766db35d6f43,2024-01-23_08h05.36.757,bars,2023.2.3,Linux x86_64,60.24096386,657b66ea316d21385b68909f,,,,,,,,,,,460.1928,461.1907,,,461.6923,461.9406,,25,25,,,,,,,,,,,,,,,,bars/014.png,bars/mask002.png,,,,,,,,,,,,0,2,,,,,,,2,2,2,1,,,,,,,,,,,461.1908,461.6923,461.9408,466.4925,space,4.5393,,466.4926,55,25,467.4914,467.4914,467.8107,space,0.2682,,0,24,24,24,1,80,0,,,,,,,,
,,61012d6d362a6eaa2ca78ebd,65af55b2180b766db35d6f43,2024-01-23_08h05.36.757,bars,2023.2.3,Linux x86_64,60.24096386,657b66ea316d21385b68909f,,,,,,,,,,,467.8116,468.8083,,,469.3085,469.5584,,45,45,,,,,,,,,,,,,,,,bars/010.png,bars/mask001.png,,,,,,,,,,,,3,2,,,,,,,4,4,3,5,,,,,,,,,,,468.8085,469.3084,469.5585,471.5272,space,1.9516,,471.5272,60,10,472.5253,472.5254,473.2256,space,0.6554,,0,25,25,25,1,165,55,,,,,,,,
,,61012d6d362a6eaa2ca78ebd,65af55b2180b766db35d6f43,2024-01-23_08h05.36.757,bars,2023.2.3,Linux x86_64,60.24096386,657b66ea316d21385b68909f,,,,,,,,,,,473.2277,474.2252,,,474.7268,474.9765,,57,57,,,,,,,,,,,,,,,,bars/036.png,bars/mask002.png,,,,,,,,,,,,0,2,,,,,,,6,2,6,3,,,,,,,,,,,474.2258,474.7259,474.9766,478.1591,space,3.1678,,478.1593,88,37,479.1591,479.1593,479.7112,space,0.5083,,0,26,26,26,1,145,20,,,,,,,,
,,61012d6d362a6eaa2ca78ebd,65af55b2180b766db35d6f43,2024-01-23_08h05.36.757,bars,2023.2.3,Linux x86_64,60.24096386,657b66ea316d21385b68909f,,,,,,,,,,,479.7122,480.7082,,,481.2082,481.4591,,115,115,,,,,,,,,,,,,,,,bars/035.png,bars/mask005.png,,,,,,,,,,,,0,2,,,,,,,8,4,7,4,,,,,,,,,,,480.7083,481.2082,481.4592,488.5101,space,7.0365,,488.5103,60,55,489.5096,489.5097,489.9452,space,0.3878,,0,27,27,27,1,175,60,,,,,,,,
,,61012d6d362a6eaa2ca78ebd,65af55b2180b766db35d6f43,2024-01-23_08h05.36.757,bars,2023.2.3,Linux x86_64,60.24096386,657b66ea316d21385b68909f,,,,,,,,,,,489.9477,490.9445,,,491.4438,491.695,,131,131,,,,,,,,,,,,,,,,bars/027.png,bars/mask008.png,,,,,,,,,,,,3,1,,,,,,,10,6,10,5,,,,,,,,,,,490.9447,491.4438,491.695,492.9266,space,1.215,,492.9267,21,81,493.9273,493.9274,495.1276,space,1.1506,,0,28,28,28,1,110,50,,,,,,,,
,,61012d6d362a6eaa2ca78ebd,65af55b2180b766db35d6f43,2024-01-23_08h05.36.757,bars,2023.2.3,Linux x86_64,60.24096386,657b66ea316d21385b68909f,,,,,,,,,,,495.1286,496.1286,,,496.6291,496.8781,,25,205,,,,,,,,,,,,,,,,bars/031.png,bars/mask000.png,,,,,,,,,,,,3,2,,,,,,,10,4,10,4,,,,,,,,,,,496.1286,496.629,496.8781,501.4483,space,4.5578,,501.4484,85,10,502.4456,502.4457,508.0275,space,5.5358,,0,29,29,29,1,120,35,,,,,,,,
,,61012d6d362a6eaa2ca78ebd,65af55b2180b766db35d6f43,2024-01-23_08h05.36.757,bars,2023.2.3,Linux x86_64,60.24096386,657b66ea316d21385b68909f,,,,,,,,,,,508.0542,509.0447,,,509.5443,509.794,,155,-25,,,,,,,,,,,,,,,,bars/013.png,bars/mask008.png,,,,,,,,,,,,0,2,,,,,,,8,6,7,5,,,,,,,,,,,509.0448,509.5443,509.7941,517.6478,space,7.8424,,517.648,80,35,518.6453,518.6454,520.2783,space,1.5857,,0,30,30,30,1,75,10,,,,,,,,
,,61012d6d362a6eaa2ca78ebd,65af55b2180b766db35d6f43,2024-01-23_08h05.36.757,bars,2023.2.3,Linux x86_64,60.24096386,657b66ea316d21385b68909f,,,,,,,,,,,520.2793,521.2791,,,521.7797,522.0292,,114,114,,,,,,,,,,,,,,,,bars/039.png,bars/mask001.png,,,,,,,,,,,,7,2,,,,,,,6,8,6,10,,,,,,,,,,,521.2791,521.7789,522.0293,529.1296,space,7.0857,,529.1297,61,9,530.1314,530.1315,531.6972,space,1.5211,,0,31,31,31,1,175,105,,,,,,,,
,,61012d6d362a6eaa2ca78ebd,65af55b2180b766db35d6f43,2024-01-23_08h05.36.757,bars,2023.2.3,Linux x86_64,60.24096386,657b66ea316d21385b68909f,,,,,,,,,,,531.6986,532.6956,,,533.1969,533.4479,,142,-38,,,,,,,,,,,,,,,,bars/008.png,bars/mask002.png,,,,,,,,,,,,0,1,,,,,,,4,10,4,10,,,,,,,,,,,532.6957,533.1968,533.4479,541.4968,space,8.0319,,541.4968,32,38,542.4967,542.4968,542.7635,space,0.2205,,0,32,32,32,1,110,0,,,,,,,,
,,61012d6d362a6eaa2ca78ebd,65af55b2180b766db35d6f43,2024-01-23_08h05.36.757,bars,2023.2.3,Linux x86_64,60.24096386,657b66ea316d21385b68909f,,,,,,,,,,,542.7645,543.7635,,,544.2637,544.5125,,114,114,,,,,,,,,,,,,,,,bars/019.png,bars/mask007.png,,,,,,,,,,,,6,2,,,,,,,2,10,2,9,,,,,,,,,,,543.7635,544.2636,544.5125,548.2346,space,3.7073,,548.2348,69,9,549.2313,549.2314,549.5487,space,0.2674,,0,33,33,33,1,45,105,,,,,,,,
,,61012d6d362a6eaa2ca78ebd,65af55b2180b766db35d6f43,2024-01-23_08h05.36.757,bars,2023.2.3,Linux x86_64,60.24096386,657b66ea316d21385b68909f,,,,,,,,,,,549.5496,550.5482,,,551.0474,551.2983,,20,200,,,,,,,,,,,,,,,,bars/045.png,bars/mask005.png,,,,,,,,,,,,5,2,,,,,,,0,8,1,7,,,,,,,,,,,550.5483,551.0473,551.2985,556.5854,space,5.2745,,556.5855,80,10,557.5826,557.5827,558.6153,space,0.9875,,0,34,34,34,1,100,10,,,,,,,,
,,61012d6d362a6eaa2ca78ebd,65af55b2180b766db35d6f43,2024-01-23_08h05.36.757,bars,2023.2.3,Linux x86_64,60.24096386,657b66ea316d21385b68909f,,,,,,,,,,,558.6161,559.6154,,,560.1152,560.3651,,22,202,,,,,,,,,,,,,,,,bars/035.png,bars/mask009.png,,,,,,,,,,,,0,1,,,,,,,0,10,0,9,,,,,,,,,,,559.6155,560.1151,560.3651,565.3816,space,5.0011,,565.3818,27,38,566.3823,566.3825,567.4656,space,1.0348,,0,35,35,35,1,175,60,,,,,,,,
,,61012d6d362a6eaa2ca78ebd,65af55b2180b766db35d6f43,2024-01-23_08h05.36.757,bars,2023.2.3,Linux x86_64,60.24096386,657b66ea316d21385b68909f,,,,,,,,,,,567.4666,568.4654,,,568.966,569.2176,,140,140,,,,,,,,,,,,,,,,bars/033.png,bars/mask008.png,,,,,,,,,,,,4,2,,,,,,,2,8,4,7,,,,,,,,,,,568.4654,568.9659,569.2177,573.4818,space,4.2522,,573.4818,65,15,574.4831,574.4831,575.1661,space,0.6394,,0,36,36,36,1,25,155,,,,,,,,
,,61012d6d362a6eaa2ca78ebd,65af55b2180b766db35d6f43,2024-01-23_08h05.36.757,bars,2023.2.3,Linux x86_64,60.24096386,657b66ea316d21385b68909f,,,,,,,,,,,575.1669,576.1656,,,576.6661,576.9153,,21,21,,,,,,,,,,,,,,,,bars/008.png,bars/mask009.png,,,,,,,,,,,,2,2,,,,,,,0,6,0,5,,,,,,,,,,,576.1667,576.666,576.9153,578.0677,space,1.1399,,578.0678,89,21,579.0661,579.0661,579.7988,space,0.7116,,0,37,37,37,1,110,0,,,,,,,,
,,61012d6d362a6eaa2ca78ebd,65af55b2180b766db35d6f43,2024-01-23_08h05.36.757,bars,2023.2.3,Linux x86_64,60.24096386,657b66ea316d21385b68909f,,,,,,,,,,,579.8005,580.7996,,,581.2994,581.5492,,57,57,,,,,,,,,,,,,,,,bars/001.png,bars/mask002.png,,,,,,,,,,,,1,2,,,,,,,2,8,2,8,,,,,,,,,,,580.7997,581.2993,581.5492,589.6667,space,8.1022,,589.6668,73,28,590.6663,590.6663,593.5504,space,2.8363,,0,38,38,38,1,130,85,,,,,,,,
,,61012d6d362a6eaa2ca78ebd,65af55b2180b766db35d6f43,2024-01-23_08h05.36.757,bars,2023.2.3,Linux x86_64,60.24096386,657b66ea316d21385b68909f,,,,,,,,,,,593.5513,594.5506,,,595.0511,595.3006,,45,45,,,,,,,,,,,,,,,,bars/038.png,bars/mask003.png,,,,,,,,,,,,2,2,,,,,,,4,10,5,10,,,,,,,,,,,594.5507,595.0511,595.3007,596.1851,space,0.8734,,596.1852,60,25,597.1837,597.1839,597.3051,space,0.1045,,0,39,39,39,1,165,70,,,,,,,,
,,61012d6d362a6eaa2ca78ebd,65af55b2180b766db35d6f43,2024-01-23_08h05.36.757,bars,2023.2.3,Linux x86_64,60.24096386,657b66ea316d21385b68909f,,,,,,,,,,,597.3062,598.3006,,,598.8007,599.0514,,52,52,,,,,,,,,,,,,,,,bars/042.png,bars/mask008.png,,,,,,,,,,,,2,2,,,,,,,6,10,5,10,,,,,,,,,,,598.3007,598.8006,599.0514,599.0872,space,0.0239,,599.0874,87,23,600.0838,600.0839,600.371,space,0.27,,0,40,40,40,1,145,75,,,,,,,,
,,61012d6d362a6eaa2ca78ebd,65af55b2180b766db35d6f43,2024-01-23_08h05.36.757,bars,2023.2.3,Linux x86_64,60.24096386,657b66ea316d21385b68909f,,,,,,,,,,,600.3743,601.3676,,,601.8671,602.1196,,126,126,,,,,,,,,,,,,,,,bars/002.png,bars/mask008.png,,,,,,,,,,,,7,1,,,,,,,8,8,8,6,,,,,,,,,,,601.3677,601.8671,602.1197,602.717,space,0.5811,,602.7171,4,41,603.7176,603.7177,604.0526,space,0.3059,,0,41,41,41,1,130,85,,,,,,,,
,,61012d6d362a6eaa2ca78ebd,65af55b2180b766db35d6f43,2024-01-23_08h05.36.757,bars,2023.2.3,Linux x86_64,60.24096386,657b66ea316d21385b68909f,,,,,,,,,,,604.0558,605.0527,,,605.5526,605.8017,,9,9,,,,,,,,,,,,,,,,bars/021.png,bars/mask001.png,,,,,,,,,,,,0,1,,,,,,,6,10,5,10,,,,,,,,,,,605.0528,605.5525,605.8018,606.4014,space,0.5869,,606.4014,34,61,607.4008,607.4009,607.7534,space,0.3344,,0,42,42,42,1,155,70,,,,,,,,
,,61012d6d362a6eaa2ca78ebd,65af55b2180b766db35d6f43,2024-01-23_08h05.36.757,bars,2023.2.3,Linux x86_64,60.24096386,657b66ea316d21385b68909f,,,,,,,,,,,607.7542,608.7525,,,609.2511,609.501,,160,160,,,,,,,,,,,,,,,,bars/019.png,bars/mask005.png,,,,,,,,,,,,0,2,,,,,,,8,10,9,10,,,,,,,,,,,608.7529,609.2511,609.5011,609.6177,space,0.1019,,609.6178,65,55,610.6193,610.6194,610.6689,space,0.0284,,0,43,43,43,1,45,105,,,,,,,,
,,61012d6d362a6eaa2ca78ebd,65af55b2180b766db35d6f43,2024-01-23_08h05.36.757,bars,2023.2.3,Linux x86_64,60.24096386,657b66ea316d21385b68909f,,,,,,,,,,,610.671,611.6689,,,612.1681,612.4181,,97,97,,,,,,,,,,,,,,,,bars/033.png,bars/mask001.png,,,,,,,,,,,,0,2,,,,,,,10,10,10,10,,,,,,,,,,,611.669,612.1681,612.4181,613.0203,space,0.5848,,613.0204,72,58,614.0186,614.0187,614.335,space,0.2972,,0,44,44,44,1,25,155,,,,,,,,
,,61012d6d362a6eaa2ca78ebd,65af55b2180b766db35d6f43,2024-01-23_08h05.36.757,bars,2023.2.3,Linux x86_64,60.24096386,657b66ea316d21385b68909f,,,,,,,,,,,614.3363,615.3346,,,615.8355,616.0864,,114,114,,,,,,,,,,,,,,,,bars/023.png,bars/mask003.png,,,,,,,,,,,,8,2,,,,,,,10,8,10,8,,,,,,,,,,,615.3346,615.8353,616.0864,617.3557,space,1.2584,,617.3558,86,1,618.3521,618.3522,619.185,space,0.8113,,0,45,45,45,1,20,115,,,,,,,,
,,61012d6d362a6eaa2ca78ebd,65af55b2180b766db35d6f43,2024-01-23_08h05.36.757,bars,2023.2.3,Linux x86_64,60.24096386,657b66ea316d21385b68909f,,,,,,,,,,,619.1858,620.1856,,,620.6852,620.9353,,31,31,,,,,,,,,,,,,,,,bars/010.png,bars/mask001.png,,,,,,,,,,,,2,2,,,,,,,10,10,10,10,,,,,,,,,,,620.1856,620.6851,620.9354,621.7525,space,0.8026,,621.7526,46,24,622.7524,622.7524,622.8023,space,0.017,,0,46,46,46,1,165,55,,,,,,,,
,,61012d6d362a6eaa2ca78ebd,65af55b2180b766db35d6f43,2024-01-23_08h05.36.757,bars,2023.2.3,Linux x86_64,60.24096386,657b66ea316d21385b68909f,,,,,,,,,,,622.8035,623.8022,,,624.3021,624.5522,,87,87,,,,,,,,,,,,,,,,bars/029.png,bars/mask009.png,,,,,,,,,,,,9,1,,,,,,,10,10,10,10,,,,,,,,,,,623.8023,624.302,624.5524,628.5374,space,3.9687,,628.5375,3,42,629.5361,629.5362,630.6694,space,1.0838,,0,47,47,47,1,90,45,,,,,,,,
,,61012d6d362a6eaa2ca78ebd,65af55b2180b766db35d6f43,2024-01-23_08h05.36.757,bars,2023.2.3,Linux x86_64,60.24096386,657b66ea316d21385b68909f,,,,,,,,,,,630.6711,631.6714,,,632.1702,632.4208,,81,81,,,,,,,,,,,,,,,,bars/029.png,bars/mask004.png,,,,,,,,,,,,7,1,,,,,,,10,10,10,10,,,,,,,,,,,631.6715,632.1702,632.421,638.9535,space,6.5193,,638.9536,9,36,639.9544,639.9544,640.7044,space,0.7047,,0,48,48,48,1,90,45,,,,,,,,
,,61012d6d362a6eaa2ca78ebd,65af55b2180b766db35d6f43,2024-01-23_08h05.36.757,bars,2023.2.3,Linux x86_64,60.24096386,657b66ea316d21385b68909f,,,,,,,,,,,640.7066,641.7033,,,642.2034,642.4533,,173,173,,,,,,,,,,,,,,,,bars/030.png,bars/mask009.png,,,,,,,,,,,,0,1,,,,,,,8,8,6,6,,,,,,,,,,,641.7034,642.2033,642.4533,644.7213,space,2.2512,,644.7214,33,72,645.7207,645.7208,646.4707,space,0.7303,,0,49,49,49,1,140,65,,,,,,,,
,,61012d6d362a6eaa2ca78ebd,65af55b2180b766db35d6f43,2024-01-23_08h05.36.757,bars,2023.2.3,Linux x86_64,60.24096386,657b66ea316d21385b68909f,,,,,,,,,,,,,,,,,,,,,,,,,,,,,,,,,,,,,,,,,,,,,,,,,,,,,,,,,,,,,,,,,,,,,,,,,,,,,,,,,,,,,,,,,,,,,646.4724,706.4775,0,0,0,1,1,sequence_tables/blk041.csv
,,61012d6d362a6eaa2ca78ebd,65af55b2180b766db35d6f43,2024-01-23_08h05.36.757,bars,2023.2.3,Linux x86_64,60.24096386,657b66ea316d21385b68909f,,,,,,,,,,,708.7273,709.7087,,,710.2084,710.4587,,124,124,,,,,,,,,,,,,,,,bars/049.png,bars/mask001.png,,,,,,,,,,,,1,2,,,,,,,4,1,4,1,,,,,,706.5055,708.7085,space,2.1906,,709.7087,710.2083,710.4588,711.8261,space,1.3494,,711.8262,36,9,712.8258,712.8265,712.8504,,,,0,0,0,0,1,160,115,,,,,,,,
,,61012d6d362a6eaa2ca78ebd,65af55b2180b766db35d6f43,2024-01-23_08h05.36.757,bars,2023.2.3,Linux x86_64,60.24096386,657b66ea316d21385b68909f,,,,,,,,,,,712.8508,713.8421,,,714.3416,714.5919,,96,96,,,,,,,,,,,,,,,,bars/002.png,bars/mask000.png,,,,,,,,,,,,0,2,,,,,,,6,0,8,0,,,,,,,,,,,713.8422,714.3415,714.5919,715.6912,space,1.0816,,715.6913,34,11,716.6919,716.692,716.7191,,,,0,1,1,1,1,130,85,,,,,,,,
,,61012d6d362a6eaa2ca78ebd,65af55b2180b766db35d6f43,2024-01-23_08h05.36.757,bars,2023.2.3,Linux x86_64,60.24096386,657b66ea316d21385b68909f,,,,,,,,,,,716.7195,717.7084,,,718.2093,718.4592,,27,27,,,,,,,,,,,,,,,,bars/022.png,bars/mask006.png,,,,,,,,,,,,2,2,,,,,,,4,2,2,2,,,,,,,,,,,717.7085,718.2093,718.4595,720.71,space,2.2373,,720.7102,68,7,721.7085,721.7085,721.7207,,,,0,2,2,2,1,95,20,,,,,,,,
,,61012d6d362a6eaa2ca78ebd,65af55b2180b766db35d6f43,2024-01-23_08h05.36.757,bars,2023.2.3,Linux x86_64,60.24096386,657b66ea316d21385b68909f,,,,,,,,,,,721.7212,722.7093,,,723.2098,723.4599,,159,159,,,,,,,,,,,,,,,,bars/014.png,bars/mask002.png,,,,,,,,,,,,0,2,,,,,,,2,0,2,0,,,,,,,,,,,722.7093,723.2098,723.4599,724.9923,space,1.5175,,724.9924,79,21,725.9932,725.9932,725.9961,,,,0,3,3,3,1,80,0,,,,,,,,
,,61012d6d362a6eaa2ca78ebd,65af55b2180b766db35d6f43,2024-01-23_08h05.36.757,bars,2023.2.3,Linux x86_64,60.24096386,657b66ea316d21385b68909f,,,,,,,,,,,725.997,726.9927,,,727.4939,727.7452,,19,19,,,,,,,,,,,,,,,,bars/018.png,bars/mask007.png,,,,,,,,,,,,0,1,,,,,,,4,0,4,0,,,,,,,,,,,726.9928,727.4938,727.7452,730.9602,space,3.1969,,730.9605,49,71,731.96,731.9601,731.9914,,,,0,4,4,4,1,150,90,,,,,,,,
,,61012d6d362a6eaa2ca78ebd,65af55b2180b766db35d6f43,2024-01-23_08h05.36.757,bars,2023.2.3,Linux x86_64,60.24096386,657b66ea316d21385b68909f,,,,,,,,,,,731.9922,732.9925,,,733.4937,733.7436,,41,41,,,,,,,,,,,,,,,,bars/000.png,bars/mask008.png,,,,,,,,,,,,3,1,,,,,,,2,2,3,1,,,,,,,,,,,732.9926,733.4936,733.7436,737.8274,space,4.0655,,737.8274,1,76,738.8276,738.8277,738.8567,,,,0,5,5,5,1,40,145,,,,,,,,
,,61012d6d362a6eaa2ca78ebd,65af55b2180b766db35d6f43,2024-01-23_08h05.36.757,bars,2023.2.3,Linux x86_64,60.24096386,657b66ea316d21385b68909f,,,,,,,,,,,738.8574,739.8598,,,740.3629,740.6106,,99,99,,,,,,,,,,,,,,,,bars/018.png,bars/mask009.png,,,,,,,,,,,,2,2,,,,,,,0,4,1,3,,,,,,,,,,,739.8599,740.3618,740.6107,744.3771,space,3.7509,,744.3771,51,9,745.3774,745.3774,745.4062,,,,0,6,6,6,1,150,90,,,,,,,,
,,61012d6d362a6eaa2ca78ebd,65af55b2180b766db35d6f43,2024-01-23_08h05.36.757,bars,2023.2.3,Linux x86_64,60.24096386,657b66ea316d21385b68909f,,,,,,,,,,,745.4068,746.411,,,746.9103,747.1623,,11,191,,,,,,,,,,,,,,,,bars/035.png,bars/mask002.png,,,,,,,,,,,,0,1,,,,,,,0,6,0,7,,,,,,,,,,,746.4111,746.9102,747.1624,751.544,space,4.3693,,751.5441,16,49,752.545,752.5452,752.5742,,,,0,7,7,7,1,175,60,,,,,,,,
,,61012d6d362a6eaa2ca78ebd,65af55b2180b766db35d6f43,2024-01-23_08h05.36.757,bars,2023.2.3,Linux x86_64,60.24096386,657b66ea316d21385b68909f,,,,,,,,,,,752.5748,753.5786,,,754.0777,754.3284,,107,107,,,,,,,,,,,,,,,,bars/025.png,bars/mask005.png,,,,,,,,,,,,2,1,,,,,,,2,8,2,8,,,,,,,,,,,753.5786,754.0777,754.3284,758.2128,space,3.8713,,758.2137,2,67,759.2124,759.2124,759.2428,,,,0,8,8,8,1,105,40,,,,,,,,
,,61012d6d362a6eaa2ca78ebd,65af55b2180b766db35d6f43,2024-01-23_08h05.36.757,bars,2023.2.3,Linux x86_64,60.24096386,657b66ea316d21385b68909f,,,,,,,,,,,759.2442,760.2454,,,760.7464,760.9955,,157,157,,,,,,,,,,,,,,,,bars/045.png,bars/mask007.png,,,,,,,,,,,,0,2,,,,,,,4,6,4,7,,,,,,,,,,,760.2455,760.7463,760.9956,763.1786,space,2.1673,,763.1788,57,33,764.1809,764.181,764.187,,,,0,9,9,9,1,100,10,,,,,,,,
,,61012d6d362a6eaa2ca78ebd,65af55b2180b766db35d6f43,2024-01-23_08h05.36.757,bars,2023.2.3,Linux x86_64,60.24096386,657b66ea316d21385b68909f,,,,,,,,,,,764.1877,765.1797,,,765.6787,765.9296,,140,140,,,,,,,,,,,,,,,,bars/049.png,bars/mask008.png,,,,,,,,,,,,0,1,,,,,,,2,8,0,8,,,,,,,,,,,765.1806,765.6787,765.9296,768.612,space,2.6675,,768.6121,20,25,769.6122,769.6123,769.6441,,,,0,10,10,10,1,160,115,,,,,,,,
,,61012d6d362a6eaa2ca78ebd,65af55b2180b766db35d6f43,2024-01-23_08h05.36.757,bars,2023.2.3,Linux x86_64,60.24096386,657b66ea316d21385b68909f,,,,,,,,,,,769.6453,770.6463,,,771.1458,771.3961,,169,169,,,,,,,,,,,,,,,,bars/048.png,bars/mask001.png,,,,,,,,,,,,6,2,,,,,,,4,10,4,8,,,,,,,,,,,770.6464,771.1457,771.3961,772.979,space,1.569,,772.9792,61,6,773.9797,773.9798,773.9868,,,,0,11,11,11,1,50,175,,,,,,,,
,,61012d6d362a6eaa2ca78ebd,65af55b2180b766db35d6f43,2024-01-23_08h05.36.757,bars,2023.2.3,Linux x86_64,60.24096386,657b66ea316d21385b68909f,,,,,,,,,,,773.9885,774.9793,,,775.4795,775.7293,,125,-55,,,,,,,,,,,,,,,,bars/006.png,bars/mask009.png,,,,,,,,,,,,2,2,,,,,,,2,8,3,10,,,,,,,,,,,774.9794,775.4794,775.7293,782.5636,space,6.8187,,782.5637,90,25,783.5639,783.5639,783.5888,,,,0,12,12,12,1,35,100,,,,,,,,
,,61012d6d362a6eaa2ca78ebd,65af55b2180b766db35d6f43,2024-01-23_08h05.36.757,bars,2023.2.3,Linux x86_64,60.24096386,657b66ea316d21385b68909f,,,,,,,,,,,783.5892,784.5802,,,785.0809,785.3307,,176,176,,,,,,,,,,,,,,,,bars/035.png,bars/mask008.png,,,,,,,,,,,,0,1,,,,,,,0,10,0,9,,,,,,,,,,,784.5803,785.0808,785.3307,786.5635,space,1.2214,,786.5635,1,64,787.5641,787.5641,787.5703,,,,0,13,13,13,1,175,60,,,,,,,,
,,61012d6d362a6eaa2ca78ebd,65af55b2180b766db35d6f43,2024-01-23_08h05.36.757,bars,2023.2.3,Linux x86_64,60.24096386,657b66ea316d21385b68909f,,,,,,,,,,,787.5714,788.5644,,,789.0642,789.3137,,148,148,,,,,,,,,,,,,,,,bars/033.png,bars/mask003.png,,,,,,,,,,,,8,2,,,,,,,2,10,1,10,,,,,,,,,,,788.5646,789.0641,789.3138,790.382,space,1.055,,790.382,57,7,791.3801,791.3803,791.3861,,,,0,14,14,14,1,25,155,,,,,,,,
,,61012d6d362a6eaa2ca78ebd,65af55b2180b766db35d6f43,2024-01-23_08h05.36.757,bars,2023.2.3,Linux x86_64,60.24096386,657b66ea316d21385b68909f,,,,,,,,,,,791.387,792.3801,,,792.8808,793.1307,,67,67,,,,,,,,,,,,,,,,bars/028.png,bars/mask002.png,,,,,,,,,,,,0,1,,,,,,,0,8,0,6,,,,,,,,,,,792.3801,792.8808,793.1307,795.1852,space,2.0418,,795.1853,22,53,796.1805,796.1806,796.2079,,,,0,15,15,15,1,45,120,,,,,,,,
,,61012d6d362a6eaa2ca78ebd,65af55b2180b766db35d6f43,2024-01-23_08h05.36.757,bars,2023.2.3,Linux x86_64,60.24096386,657b66ea316d21385b68909f,,,,,,,,,,,796.2085,797.1978,,,797.6983,797.948,,17,197,,,,,,,,,,,,,,,,bars/025.png,bars/mask001.png,,,,,,,,,,,,1,2,,,,,,,0,6,1,5,,,,,,,,,,,797.1979,797.6982,797.948,800.7319,space,2.7697,,800.732,88,23,801.7306,801.7307,801.7619,,,,0,16,16,16,1,105,40,,,,,,,,
,,61012d6d362a6eaa2ca78ebd,65af55b2180b766db35d6f43,2024-01-23_08h05.36.757,bars,2023.2.3,Linux x86_64,60.24096386,657b66ea316d21385b68909f,,,,,,,,,,,801.7626,802.7654,,,803.2656,803.5152,,113,113,,,,,,,,,,,,,,,,bars/039.png,bars/mask005.png,,,,,,,,,,,,6,2,,,,,,,0,8,0,8,,,,,,,,,,,802.7655,803.2656,803.5152,805.4998,space,1.9658,,805.5,62,8,806.4984,806.4985,806.5268,,,,0,17,17,17,1,175,105,,,,,,,,
,,61012d6d362a6eaa2ca78ebd,65af55b2180b766db35d6f43,2024-01-23_08h05.36.757,bars,2023.2.3,Linux x86_64,60.24096386,657b66ea316d21385b68909f,,,,,,,,,,,806.5273,807.5152,,,808.0162,808.2588,,78,78,,,,,,,,,,,,,,,,bars/026.png,bars/mask007.png,,,,,,,,,,,,8,2,,,,,,,0,10,0,10,,,,,,,,,,,807.5153,808.0162,808.2593,815.017,space,6.7452,,815.0172,43,7,816.0156,816.0158,816.0471,,,,0,18,18,18,1,35,85,,,,,,,,
,,61012d6d362a6eaa2ca78ebd,65af55b2180b766db35d6f43,2024-01-23_08h05.36.757,bars,2023.2.3,Linux x86_64,60.24096386,657b66ea316d21385b68909f,,,,,,,,,,,816.0479,817.0483,,,817.5487,817.7931,,157,157,,,,,,,,,,,,,,,,bars/033.png,bars/mask007.png,,,,,,,,,,,,8,2,,,,,,,2,8,2,9,,,,,,,,,,,817.049,817.5486,817.7932,818.7678,space,0.961,,818.768,48,2,819.7656,819.7657,819.7688,,,,0,19,19,19,1,25,155,,,,,,,,
,,61012d6d362a6eaa2ca78ebd,65af55b2180b766db35d6f43,2024-01-23_08h05.36.757,bars,2023.2.3,Linux x86_64,60.24096386,657b66ea316d21385b68909f,,,,,,,,,,,819.7695,820.7661,,,821.2661,821.5156,,52,232,,,,,,,,,,,,,,,,bars/027.png,bars/mask003.png,,,,,,,,,,,,7,2,,,,,,,4,6,4,7,,,,,,,,,,,820.7662,821.2661,821.5156,827.2677,space,5.7416,,827.2678,58,2,828.2676,828.2677,828.2999,,,,0,20,20,20,1,110,50,,,,,,,,
,,61012d6d362a6eaa2ca78ebd,65af55b2180b766db35d6f43,2024-01-23_08h05.36.757,bars,2023.2.3,Linux x86_64,60.24096386,657b66ea316d21385b68909f,,,,,,,,,,,828.3006,829.3003,,,829.8006,830.0499,,156,156,,,,,,,,,,,,,,,,bars/020.png,bars/mask007.png,,,,,,,,,,,,4,2,,,,,,,6,8,7,7,,,,,,,,,,,829.3004,829.8005,830.05,832.2837,space,2.2177,,832.2837,41,14,833.2841,833.2841,833.3104,,,,0,21,21,21,1,115,170,,,,,,,,
,,61012d6d362a6eaa2ca78ebd,65af55b2180b766db35d6f43,2024-01-23_08h05.36.757,bars,2023.2.3,Linux x86_64,60.24096386,657b66ea316d21385b68909f,,,,,,,,,,,833.3107,834.2996,,,834.8009,835.0498,,165,-15,,,,,,,,,,,,,,,,bars/016.png,bars/mask006.png,,,,,,,,,,,,10,2,,,,,,,4,10,5,10,,,,,,,,,,,834.2996,834.8008,835.0499,838.0333,space,2.97,,838.0335,55,0,839.0347,839.0347,839.0621,,,,0,22,22,22,1,40,165,,,,,,,,
,,61012d6d362a6eaa2ca78ebd,65af55b2180b766db35d6f43,2024-01-23_08h05.36.757,bars,2023.2.3,Linux x86_64,60.24096386,657b66ea316d21385b68909f,,,,,,,,,,,839.0628,840.0523,,,840.5503,840.8008,,158,158,,,,,,,,,,,,,,,,bars/004.png,bars/mask006.png,,,,,,,,,,,,0,2,,,,,,,6,8,7,9,,,,,,,,,,,840.0524,840.5502,840.8014,844.4006,space,3.5846,,844.4007,47,33,845.4016,845.4017,845.4314,,,,0,23,23,23,1,25,125,,,,,,,,
,,61012d6d362a6eaa2ca78ebd,65af55b2180b766db35d6f43,2024-01-23_08h05.36.757,bars,2023.2.3,Linux x86_64,60.24096386,657b66ea316d21385b68909f,,,,,,,,,,,845.4331,846.4347,,,846.9375,847.1857,,151,151,,,,,,,,,,,,,,,,bars/033.png,bars/mask008.png,,,,,,,,,,,,9,2,,,,,,,8,10,9,10,,,,,,,,,,,846.4348,846.9375,847.1858,849.7524,space,2.5491,,849.7539,54,4,850.7516,850.7517,850.78,,,,0,24,24,24,1,25,155,,,,,,,,
,,61012d6d362a6eaa2ca78ebd,65af55b2180b766db35d6f43,2024-01-23_08h05.36.757,bars,2023.2.3,Linux x86_64,60.24096386,657b66ea316d21385b68909f,,,,,,,,,,,850.781,851.7691,,,852.2676,852.5184,,51,51,,,,,,,,,,,,,,,,bars/034.png,bars/mask004.png,,,,,,,,,,,,5,2,,,,,,,10,8,10,9,,,,,,,,,,,851.7691,852.2675,852.5184,854.8531,space,2.3186,,854.8532,74,14,855.8522,855.8522,855.88,,,,0,25,25,25,1,125,65,,,,,,,,
,,61012d6d362a6eaa2ca78ebd,65af55b2180b766db35d6f43,2024-01-23_08h05.36.757,bars,2023.2.3,Linux x86_64,60.24096386,657b66ea316d21385b68909f,,,,,,,,,,,855.881,856.8847,,,857.3856,857.6354,,114,114,,,,,,,,,,,,,,,,bars/049.png,bars/mask007.png,,,,,,,,,,,,10,2,,,,,,,10,10,10,10,,,,,,,,,,,856.8847,857.3855,857.6354,861.1695,space,3.5189,,861.1695,46,1,862.1683,862.1684,862.1977,,,,0,26,26,26,1,160,115,,,,,,,,
,,61012d6d362a6eaa2ca78ebd,65af55b2180b766db35d6f43,2024-01-23_08h05.36.757,bars,2023.2.3,Linux x86_64,60.24096386,657b66ea316d21385b68909f,,,,,,,,,,,862.1984,863.1864,,,863.6854,863.9358,,74,74,,,,,,,,,,,,,,,,bars/030.png,bars/mask002.png,,,,,,,,,,,,7,2,,,,,,,8,10,7,10,,,,,,,,,,,863.1865,863.6853,863.9362,866.7034,space,2.7545,,866.7036,66,9,867.7039,867.7039,867.7323,,,,0,27,27,27,1,140,65,,,,,,,,
,,61012d6d362a6eaa2ca78ebd,65af55b2180b766db35d6f43,2024-01-23_08h05.36.757,bars,2023.2.3,Linux x86_64,60.24096386,657b66ea316d21385b68909f,,,,,,,,,,,867.7328,868.7356,,,869.236,869.4864,,61,61,,,,,,,,,,,,,,,,bars/025.png,bars/mask003.png,,,,,,,,,,,,2,2,,,,,,,10,8,10,7,,,,,,,,,,,868.7358,869.2359,869.4864,872.0537,space,2.5531,,872.0537,44,21,873.0527,873.0527,873.0827,,,,0,28,28,28,1,105,40,,,,,,,,
,,61012d6d362a6eaa2ca78ebd,65af55b2180b766db35d6f43,2024-01-23_08h05.36.757,bars,2023.2.3,Linux x86_64,60.24096386,657b66ea316d21385b68909f,,,,,,,,,,,873.0835,874.0858,,,874.5862,874.8371,,16,196,,,,,,,,,,,,,,,,bars/043.png,bars/mask008.png,,,,,,,,,,,,5,1,,,,,,,10,6,10,5,,,,,,,,,,,874.086,874.5861,874.8372,880.3881,space,5.534,,880.3883,14,66,881.3865,881.3866,881.4236,,,,0,29,29,29,1,30,130,,,,,,,,
,,61012d6d362a6eaa2ca78ebd,65af55b2180b766db35d6f43,2024-01-23_08h05.36.757,bars,2023.2.3,Linux x86_64,60.24096386,657b66ea316d21385b68909f,,,,,,,,,,,881.4243,882.4219,,,882.9205,883.17,,14,14,,,,,,,,,,,,,,,,bars/043.png,bars/mask009.png,,,,,,,,,,,,3,1,,,,,,,8,8,7,8,,,,,,,,,,,882.4221,882.9204,883.1701,884.9218,space,1.7341,,884.9219,16,64,885.9206,885.9207,885.923,,,,0,30,30,30,1,30,130,,,,,,,,
,,61012d6d362a6eaa2ca78ebd,65af55b2180b766db35d6f43,2024-01-23_08h05.36.757,bars,2023.2.3,Linux x86_64,60.24096386,657b66ea316d21385b68909f,,,,,,,,,,,885.9243,886.9212,,,887.4207,887.6719,,20,200,,,,,,,,,,,,,,,,bars/034.png,bars/mask008.png,,,,,,,,,,,,0,2,,,,,,,6,10,5,10,,,,,,,,,,,886.9213,887.4205,887.6721,890.59,space,2.9007,,890.5902,75,45,891.5874,891.5875,891.6153,,,,0,31,31,31,1,125,65,,,,,,,,
,,61012d6d362a6eaa2ca78ebd,65af55b2180b766db35d6f43,2024-01-23_08h05.36.757,bars,2023.2.3,Linux x86_64,60.24096386,657b66ea316d21385b68909f,,,,,,,,,,,891.6155,892.6048,,,893.1042,893.3539,,108,108,,,,,,,,,,,,,,,,bars/025.png,bars/mask006.png,,,,,,,,,,,,4,1,,,,,,,4,10,4,10,,,,,,,,,,,892.6049,893.1041,893.354,894.741,space,1.3726,,894.7411,3,68,895.7383,895.7385,895.7444,,,,0,32,32,32,1,105,40,,,,,,,,
,,61012d6d362a6eaa2ca78ebd,65af55b2180b766db35d6f43,2024-01-23_08h05.36.757,bars,2023.2.3,Linux x86_64,60.24096386,657b66ea316d21385b68909f,,,,,,,,,,,895.7456,896.7375,,,897.2375,897.4875,,72,72,,,,,,,,,,,,,,,,bars/042.png,bars/mask009.png,,,,,,,,,,,,9,2,,,,,,,6,10,5,10,,,,,,,,,,,896.7375,897.2374,897.4875,899.9896,space,2.4854,,899.9896,73,3,900.9881,900.9882,901.0191,,,,0,33,33,33,1,145,75,,,,,,,,
,,61012d6d362a6eaa2ca78ebd,65af55b2180b766db35d6f43,2024-01-23_08h05.36.757,bars,2023.2.3,Linux x86_64,60.24096386,657b66ea316d21385b68909f,,,,,,,,,,,901.0198,902.0211,,,902.523,902.7717,,55,55,,,,,,,,,,,,,,,,bars/048.png,bars/mask009.png,,,,,,,,,,,,3,1,,,,,,,4,10,3,10,,,,,,,,,,,902.0211,902.523,902.7717,908.738,space,5.9483,,908.738,5,60,909.7384,909.7385,909.7707,,,,0,34,34,34,1,50,175,,,,,,,,
,,61012d6d362a6eaa2ca78ebd,65af55b2180b766db35d6f43,2024-01-23_08h05.36.757,bars,2023.2.3,Linux x86_64,60.24096386,657b66ea316d21385b68909f,,,,,,,,,,,909.7714,910.7714,,,911.2719,911.5213,,49,49,,,,,,,,,,,,,,,,bars/017.png,bars/mask004.png,,,,,,,,,,,,6,2,,,,,,,6,8,6,7,,,,,,,,,,,910.7714,911.2719,911.5213,914.8224,space,3.2894,,914.823,84,4,915.822,915.822,915.8538,,,,0,35,35,35,1,145,45,,,,,,,,
,,61012d6d362a6eaa2ca78ebd,65af55b2180b766db35d6f43,2024-01-23_08h05.36.757,bars,2023.2.3,Linux x86_64,60.24096386,657b66ea316d21385b68909f,,,,,,,,,,,915.8547,916.8564,,,917.3578,917.6059,,101,101,,,,,,,,,,,,,,,,bars/019.png,bars/mask002.png,,,,,,,,,,,,9,2,,,,,,,8,10,9,10,,,,,,,,,,,916.8565,917.3577,917.606,919.3729,space,1.7498,,919.373,56,4,920.3725,920.3725,920.3743,,,,0,36,36,36,1,45,105,,,,,,,,
,,61012d6d362a6eaa2ca78ebd,65af55b2180b766db35d6f43,2024-01-23_08h05.36.757,bars,2023.2.3,Linux x86_64,60.24096386,657b66ea316d21385b68909f,,,,,,,,,,,920.375,921.3731,,,921.8731,922.1232,,64,64,,,,,,,,,,,,,,,,bars/044.png,bars/mask001.png,,,,,,,,,,,,6,1,,,,,,,10,8,10,9,,,,,,,,,,,921.3731,921.873,922.1233,926.1401,space,4.0015,,926.1403,11,89,927.1405,927.1406,927.1645,,,,0,37,37,37,1,75,155,,,,,,,,
,,61012d6d362a6eaa2ca78ebd,65af55b2180b766db35d6f43,2024-01-23_08h05.36.757,bars,2023.2.3,Linux x86_64,60.24096386,657b66ea316d21385b68909f,,,,,,,,,,,927.1649,928.156,,,928.6574,928.9074,,23,203,,,,,,,,,,,,,,,,bars/012.png,bars/mask001.png,,,,,,,,,,,,7,2,,,,,,,8,10,7,10,,,,,,,,,,,928.156,928.657,928.9075,933.1409,space,4.2176,,933.1409,67,8,934.1398,934.1399,934.1721,,,,0,38,38,38,1,90,15,,,,,,,,
,,61012d6d362a6eaa2ca78ebd,65af55b2180b766db35d6f43,2024-01-23_08h05.36.757,bars,2023.2.3,Linux x86_64,60.24096386,657b66ea316d21385b68909f,,,,,,,,,,,934.1727,935.1736,,,935.6732,935.9248,,17,197,,,,,,,,,,,,,,,,bars/041.png,bars/mask000.png,,,,,,,,,,,,5,1,,,,,,,6,10,5,10,,,,,,,,,,,935.1736,935.6731,935.9248,940.3916,space,4.4494,,940.3918,3,68,941.3903,941.3903,941.4201,,,,0,39,39,39,1,20,85,,,,,,,,
,,61012d6d362a6eaa2ca78ebd,65af55b2180b766db35d6f43,2024-01-23_08h05.36.757,bars,2023.2.3,Linux x86_64,60.24096386,657b66ea316d21385b68909f,,,,,,,,,,,941.4209,942.4244,,,942.9239,943.1744,,147,147,,,,,,,,,,,,,,,,bars/036.png,bars/mask000.png,,,,,,,,,,,,2,1,,,,,,,4,10,2,10,,,,,,,,,,,942.4252,942.9239,943.1744,946.8253,space,3.6334,,946.8255,2,53,947.8264,947.8265,947.8547,,,,0,40,40,40,1,145,20,,,,,,,,
,,61012d6d362a6eaa2ca78ebd,65af55b2180b766db35d6f43,2024-01-23_08h05.36.757,bars,2023.2.3,Linux x86_64,60.24096386,657b66ea316d21385b68909f,,,,,,,,,,,947.8556,948.8585,,,949.358,949.6083,,148,148,,,,,,,,,,,,,,,,bars/016.png,bars/mask006.png,,,,,,,,,,,,4,2,,,,,,,6,10,5,10,,,,,,,,,,,948.8585,949.3579,949.6084,953.5616,space,3.9417,,953.5617,72,17,954.5587,954.5588,954.588,,,,0,41,41,41,1,40,165,,,,,,,,
,,61012d6d362a6eaa2ca78ebd,65af55b2180b766db35d6f43,2024-01-23_08h05.36.757,bars,2023.2.3,Linux x86_64,60.24096386,657b66ea316d21385b68909f,,,,,,,,,,,954.5886,955.5914,,,956.0925,956.3421,,33,33,,,,,,,,,,,,,,,,bars/048.png,bars/mask000.png,,,,,,,,,,,,2,1,,,,,,,4,10,4,10,,,,,,,,,,,955.5914,956.0924,956.3421,959.4125,space,3.0594,,959.4126,17,38,960.4084,960.4085,960.4387,,,,0,42,42,42,1,50,175,,,,,,,,
,,61012d6d362a6eaa2ca78ebd,65af55b2180b766db35d6f43,2024-01-23_08h05.36.757,bars,2023.2.3,Linux x86_64,60.24096386,657b66ea316d21385b68909f,,,,,,,,,,,960.4394,961.4418,,,961.9421,962.1932,,38,38,,,,,,,,,,,,,,,,bars/035.png,bars/mask000.png,,,,,,,,,,,,2,2,,,,,,,2,10,1,9,,,,,,,,,,,961.4419,961.9421,962.1932,964.5952,space,2.3896,,964.5954,43,22,965.5921,965.5923,965.6181,,,,0,43,43,43,1,175,60,,,,,,,,
,,61012d6d362a6eaa2ca78ebd,65af55b2180b766db35d6f43,2024-01-23_08h05.36.757,bars,2023.2.3,Linux x86_64,60.24096386,657b66ea316d21385b68909f,,,,,,,,,,,965.6186,966.6099,,,967.1094,967.3614,,144,-36,,,,,,,,,,,,,,,,bars/004.png,bars/mask005.png,,,,,,,,,,,,2,2,,,,,,,0,8,0,6,,,,,,,,,,,966.6103,967.1087,967.3614,971.2291,space,3.8541,,971.2292,61,19,972.2263,972.2264,972.2538,,,,0,44,44,44,1,25,125,,,,,,,,
,,61012d6d362a6eaa2ca78ebd,65af55b2180b766db35d6f43,2024-01-23_08h05.36.757,bars,2023.2.3,Linux x86_64,60.24096386,657b66ea316d21385b68909f,,,,,,,,,,,972.2544,973.2433,,,973.7444,973.9937,,26,206,,,,,,,,,,,,,,,,bars/032.png,bars/mask005.png,,,,,,,,,,,,8,2,,,,,,,0,10,1,10,,,,,,,,,,,973.2435,973.7443,973.9938,981.5445,space,7.5365,,981.5445,81,6,982.5433,982.5434,982.5734,,,,0,45,45,45,1,125,20,,,,,,,,
,,61012d6d362a6eaa2ca78ebd,65af55b2180b766db35d6f43,2024-01-23_08h05.36.757,bars,2023.2.3,Linux x86_64,60.24096386,657b66ea316d21385b68909f,,,,,,,,,,,982.5739,983.5771,,,984.0772,984.3267,,139,139,,,,,,,,,,,,,,,,bars/004.png,bars/mask005.png,,,,,,,,,,,,5,2,,,,,,,2,10,2,10,,,,,,,,,,,983.5772,984.0772,984.3267,986.6437,space,2.3026,,986.6438,66,14,987.6444,987.6444,987.6734,,,,0,46,46,46,1,25,125,,,,,,,,
,,61012d6d362a6eaa2ca78ebd,65af55b2180b766db35d6f43,2024-01-23_08h05.36.757,bars,2023.2.3,Linux x86_64,60.24096386,657b66ea316d21385b68909f,,,,,,,,,,,987.6743,988.6767,,,989.1774,989.4276,,61,61,,,,,,,,,,,,,,,,bars/027.png,bars/mask002.png,,,,,,,,,,,,6,2,,,,,,,0,10,1,10,,,,,,,,,,,988.6768,989.1774,989.428,994.0273,space,4.5839,,994.0274,49,11,995.0277,995.0277,995.0549,,,,0,47,47,47,1,110,50,,,,,,,,
,,61012d6d362a6eaa2ca78ebd,65af55b2180b766db35d6f43,2024-01-23_08h05.36.757,bars,2023.2.3,Linux x86_64,60.24096386,657b66ea316d21385b68909f,,,,,,,,,,,995.0555,996.0451,,,996.5435,996.7937,,154,154,,,,,,,,,,,,,,,,bars/044.png,bars/mask003.png,,,,,,,,,,,,10,2,,,,,,,2,10,2,10,,,,,,,,,,,996.0453,996.5435,996.7938,998.5785,space,1.7717,,998.5785,79,1,999.5784,999.5785,999.6075,,,,0,48,48,48,1,75,155,,,,,,,,
,,61012d6d362a6eaa2ca78ebd,65af55b2180b766db35d6f43,2024-01-23_08h05.36.757,bars,2023.2.3,Linux x86_64,60.24096386,657b66ea316d21385b68909f,,,,,,,,,,,999.6084,1000.6111,,,1001.1122,1001.3617,,114,114,,,,,,,,,,,,,,,,bars/045.png,bars/mask008.png,,,,,,,,,,,,0,1,,,,,,,0,10,0,8,,,,,,,,,,,1000.6112,1001.112,1001.3617,1006.564,space,5.1912,,1006.5641,14,76,1007.5621,1007.5621,1007.5976,,,,0,49,49,49,1,100,10,,,,,,,,
,,61012d6d362a6eaa2ca78ebd,65af55b2180b766db35d6f43,2024-01-23_08h05.36.757,bars,2023.2.3,Linux x86_64,60.24096386,657b66ea316d21385b68909f,,,,,,,,,,,,,,,,,,,,,,,,,,,,,,,,,,,,,,,,,,,,,,,,,,,,,,,,,,,,,,,,,,,,,,,,,,,,,,,,,,,,,,,,,,,,,1007.5978,1067.5998,0,1,1,3,1,sequence_tables/blk031.csv
,,61012d6d362a6eaa2ca78ebd,65af55b2180b766db35d6f43,2024-01-23_08h05.36.757,bars,2023.2.3,Linux x86_64,60.24096386,657b66ea316d21385b68909f,,,,,,,,,,,1073.1718,1074.1351,,,1074.6336,1074.8829,,50,50,,,,,,,,,,,,,,,,bars/007.png,bars/mask006.png,,,,,,,,,,,,3,2,,,,,,,0,3,0,3,,,,,,1067.6302,1073.1331,space,5.4895,,1074.1352,1074.6335,1074.883,1079.0673,space,4.1687,,1079.0674,55,5,1080.0666,1080.0667,1080.0907,,,,0,0,0,0,1,175,55,,,,,,,,
,,61012d6d362a6eaa2ca78ebd,65af55b2180b766db35d6f43,2024-01-23_08h05.36.757,bars,2023.2.3,Linux x86_64,60.24096386,657b66ea316d21385b68909f,,,,,,,,,,,1080.0911,1081.0847,,,1081.5844,1081.8353,,119,119,,,,,,,,,,,,,,,,bars/028.png,bars/mask004.png,,,,,,,,,,,,6,2,,,,,,,2,5,0,6,,,,,,,,,,,1081.0847,1081.5843,1081.8354,1084.8677,space,3.0205,,1084.8678,74,1,1085.8673,1085.8674,1085.8877,,,,0,1,1,1,1,45,120,,,,,,,,
,,61012d6d362a6eaa2ca78ebd,65af55b2180b766db35d6f43,2024-01-23_08h05.36.757,bars,2023.2.3,Linux x86_64,60.24096386,657b66ea316d21385b68909f,,,,,,,,,,,1085.8883,1086.8841,,,1087.3844,1087.6341,,114,294,,,,,,,,,,,,,,,,bars/024.png,bars/mask003.png,,,,,,,,,,,,0,1,,,,,,,0,7,0,6,,,,,,,,,,,1086.8841,1087.3844,1087.6342,1095.2871,space,7.6329,,1095.2872,6,56,1096.2846,1096.2847,1096.3179,,,,0,2,2,2,1,120,170,,,,,,,,
,,61012d6d362a6eaa2ca78ebd,65af55b2180b766db35d6f43,2024-01-23_08h05.36.757,bars,2023.2.3,Linux x86_64,60.24096386,657b66ea316d21385b68909f,,,,,,,,,,,1096.3191,1097.3184,,,1097.8183,1098.0693,,98,98,,,,,,,,,,,,,,,,bars/026.png,bars/mask005.png,,,,,,,,,,,,3,2,,,,,,,2,5,2,5,,,,,,,,,,,1097.3185,1097.8182,1098.0693,1099.1866,space,1.1023,,1099.1867,63,13,1100.1866,1100.1866,1100.1923,,,,0,3,3,3,1,35,85,,,,,,,,
,,61012d6d362a6eaa2ca78ebd,65af55b2180b766db35d6f43,2024-01-23_08h05.36.757,bars,2023.2.3,Linux x86_64,60.24096386,657b66ea316d21385b68909f,,,,,,,,,,,1100.1931,1101.1866,,,1101.6867,1101.936,,159,159,,,,,,,,,,,,,,,,bars/005.png,bars/mask006.png,,,,,,,,,,,,3,2,,,,,,,0,7,0,7,,,,,,,,,,,1101.1867,1101.6867,1101.9361,1104.7394,space,2.7918,,1104.7394,31,19,1105.7371,1105.7372,1105.7608,,,,0,4,4,4,1,10,140,,,,,,,,
,,61012d6d362a6eaa2ca78ebd,65af55b2180b766db35d6f43,2024-01-23_08h05.36.757,bars,2023.2.3,Linux x86_64,60.24096386,657b66ea316d21385b68909f,,,,,,,,,,,1105.7612,1106.7522,,,1107.2531,1107.5018,,52,52,,,,,,,,,,,,,,,,bars/029.png,bars/mask007.png,,,,,,,,,,,,4,2,,,,,,,2,5,3,5,,,,,,,,,,,1106.7523,1107.2525,1107.5018,1111.169,space,3.655,,1111.1691,38,7,1112.1696,1112.1696,1112.1978,,,,0,5,5,5,1,90,45,,,,,,,,
,,61012d6d362a6eaa2ca78ebd,65af55b2180b766db35d6f43,2024-01-23_08h05.36.757,bars,2023.2.3,Linux x86_64,60.24096386,657b66ea316d21385b68909f,,,,,,,,,,,1112.1984,1113.2026,,,1113.7032,1113.9526,,167,-13,,,,,,,,,,,,,,,,bars/033.png,bars/mask003.png,,,,,,,,,,,,1,2,,,,,,,0,3,0,2,,,,,,,,,,,1113.2027,1113.7032,1113.9526,1117.4692,space,3.5008,,1117.4693,38,12,1118.4692,1118.4692,1118.4983,,,,0,6,6,6,1,25,155,,,,,,,,
,,61012d6d362a6eaa2ca78ebd,65af55b2180b766db35d6f43,2024-01-23_08h05.36.757,bars,2023.2.3,Linux x86_64,60.24096386,657b66ea316d21385b68909f,,,,,,,,,,,1118.4988,1119.4876,,,1119.9861,1120.2365,,62,62,,,,,,,,,,,,,,,,bars/028.png,bars/mask006.png,,,,,,,,,,,,1,1,,,,,,,2,5,3,5,,,,,,,,,,,1119.4877,1119.9861,1120.2366,1125.8702,space,5.6191,,1125.8703,17,58,1126.871,1126.8711,1126.9049,,,,0,7,7,7,1,45,120,,,,,,,,
,,61012d6d362a6eaa2ca78ebd,65af55b2180b766db35d6f43,2024-01-23_08h05.36.757,bars,2023.2.3,Linux x86_64,60.24096386,657b66ea316d21385b68909f,,,,,,,,,,,1126.9058,1127.9055,,,1128.4037,1128.6533,,82,82,,,,,,,,,,,,,,,,bars/021.png,bars/mask005.png,,,,,,,,,,,,5,2,,,,,,,0,7,0,8,,,,,,,,,,,1127.9056,1128.4037,1128.6533,1130.9873,space,2.3213,,1130.9875,73,12,1131.9867,1131.9868,1132.0131,,,,0,8,8,8,1,155,70,,,,,,,,
,,61012d6d362a6eaa2ca78ebd,65af55b2180b766db35d6f43,2024-01-23_08h05.36.757,bars,2023.2.3,Linux x86_64,60.24096386,657b66ea316d21385b68909f,,,,,,,,,,,1132.0139,1133.0034,,,1133.5041,1133.7553,,144,144,,,,,,,,,,,,,,,,bars/033.png,bars/mask003.png,,,,,,,,,,,,3,2,,,,,,,2,5,3,5,,,,,,,,,,,1133.004,1133.504,1133.7554,1137.1585,space,3.3861,,1137.1587,61,11,1138.1538,1138.1539,1138.1838,,,,0,9,9,9,1,25,155,,,,,,,,
,,61012d6d362a6eaa2ca78ebd,65af55b2180b766db35d6f43,2024-01-23_08h05.36.757,bars,2023.2.3,Linux x86_64,60.24096386,657b66ea316d21385b68909f,,,,,,,,,,,1138.1851,1139.1885,,,1139.6878,1139.9379,,53,53,,,,,,,,,,,,,,,,bars/034.png,bars/mask002.png,,,,,,,,,,,,4,2,,,,,,,0,7,1,7,,,,,,,,,,,1139.1885,1139.6878,1139.938,1143.4239,space,3.4742,,1143.4239,72,12,1144.4215,1144.4215,1144.4508,,,,0,10,10,10,1,125,65,,,,,,,,
,,61012d6d362a6eaa2ca78ebd,65af55b2180b766db35d6f43,2024-01-23_08h05.36.757,bars,2023.2.3,Linux x86_64,60.24096386,657b66ea316d21385b68909f,,,,,,,,,,,1144.4515,1145.4551,,,1145.955,1146.2043,,43,43,,,,,,,,,,,,,,,,bars/013.png,bars/mask001.png,,,,,,,,,,,,0,1,,,,,,,0,9,1,10,,,,,,,,,,,1145.4552,1145.955,1146.2044,1148.8885,space,2.6696,,1148.8885,32,33,1149.8887,1149.8894,1149.9165,,,,0,11,11,11,1,75,10,,,,,,,,
,,61012d6d362a6eaa2ca78ebd,65af55b2180b766db35d6f43,2024-01-23_08h05.36.757,bars,2023.2.3,Linux x86_64,60.24096386,657b66ea316d21385b68909f,,,,,,,,,,,1149.917,1150.9217,,,1151.425,1151.6723,,31,31,,,,,,,,,,,,,,,,bars/029.png,bars/mask007.png,,,,,,,,,,,,4,2,,,,,,,2,7,2,7,,,,,,,,,,,1150.9218,1151.4248,1151.6723,1154.3384,space,2.653,,1154.3386,59,14,1155.3385,1155.3386,1155.3689,,,,0,12,12,12,1,90,45,,,,,,,,
,,61012d6d362a6eaa2ca78ebd,65af55b2180b766db35d6f43,2024-01-23_08h05.36.757,bars,2023.2.3,Linux x86_64,60.24096386,657b66ea316d21385b68909f,,,,,,,,,,,1155.3699,1156.3717,,,1156.8722,1157.1225,,21,21,,,,,,,,,,,,,,,,bars/022.png,bars/mask002.png,,,,,,,,,,,,5,2,,,,,,,4,5,3,5,,,,,,,,,,,1156.3717,1156.8721,1157.1225,1158.1225,space,0.9871,,1158.1227,74,1,1159.1222,1159.1222,1159.149,,,,0,13,13,13,1,95,20,,,,,,,,
,,61012d6d362a6eaa2ca78ebd,65af55b2180b766db35d6f43,2024-01-23_08h05.36.757,bars,2023.2.3,Linux x86_64,60.24096386,657b66ea316d21385b68909f,,,,,,,,,,,1159.1498,1160.1388,,,1160.6391,1160.8897,,67,67,,,,,,,,,,,,,,,,bars/046.png,bars/mask003.png,,,,,,,,,,,,1,2,,,,,,,2,3,1,3,,,,,,,,,,,1160.1389,1160.6388,1160.8898,1167.4732,space,6.5681,,1167.4732,88,18,1168.4726,1168.4727,1168.5029,,,,0,14,14,14,1,155,85,,,,,,,,
,,61012d6d362a6eaa2ca78ebd,65af55b2180b766db35d6f43,2024-01-23_08h05.36.757,bars,2023.2.3,Linux x86_64,60.24096386,657b66ea316d21385b68909f,,,,,,,,,,,1168.5036,1169.5061,,,1170.0075,1170.2564,,40,40,,,,,,,,,,,,,,,,bars/035.png,bars/mask007.png,,,,,,,,,,,,1,2,,,,,,,4,1,3,3,,,,,,,,,,,1169.5061,1170.0075,1170.2564,1173.1734,space,2.9035,,1173.1735,45,20,1174.1744,1174.1744,1174.1978,,,,0,15,15,15,1,175,60,,,,,,,,
,,61012d6d362a6eaa2ca78ebd,65af55b2180b766db35d6f43,2024-01-23_08h05.36.757,bars,2023.2.3,Linux x86_64,60.24096386,657b66ea316d21385b68909f,,,,,,,,,,,1174.1983,1175.1905,,,1175.6904,1175.9404,,128,128,,,,,,,,,,,,,,,,bars/044.png,bars/mask001.png,,,,,,,,,,,,0,2,,,,,,,6,0,5,0,,,,,,,,,,,1175.1905,1175.6903,1175.9406,1176.8577,space,0.9031,,1176.8578,53,27,1177.8574,1177.8576,1177.8598,,,,0,16,16,16,1,75,155,,,,,,,,
,,61012d6d362a6eaa2ca78ebd,65af55b2180b766db35d6f43,2024-01-23_08h05.36.757,bars,2023.2.3,Linux x86_64,60.24096386,657b66ea316d21385b68909f,,,,,,,,,,,1177.8605,1178.8583,,,1179.3568,1179.6072,,59,59,,,,,,,,,,,,,,,,bars/029.png,bars/mask006.png,,,,,,,,,,,,1,2,,,,,,,4,2,5,2,,,,,,,,,,,1178.8584,1179.3568,1179.6073,1181.3067,space,1.6837,,1181.3068,31,14,1182.307,1182.3071,1182.3094,,,,0,17,17,17,1,90,45,,,,,,,,
,,61012d6d362a6eaa2ca78ebd,65af55b2180b766db35d6f43,2024-01-23_08h05.36.757,bars,2023.2.3,Linux x86_64,60.24096386,657b66ea316d21385b68909f,,,,,,,,,,,1182.311,1183.3071,,,1183.8098,1184.0578,,156,-24,,,,,,,,,,,,,,,,bars/012.png,bars/mask009.png,,,,,,,,,,,,0,2,,,,,,,6,4,7,4,,,,,,,,,,,1183.3071,1183.8097,1184.0579,1189.7408,space,5.6717,,1189.7408,66,39,1190.7413,1190.7414,1190.7735,,,,0,18,18,18,1,90,15,,,,,,,,
,,61012d6d362a6eaa2ca78ebd,65af55b2180b766db35d6f43,2024-01-23_08h05.36.757,bars,2023.2.3,Linux x86_64,60.24096386,657b66ea316d21385b68909f,,,,,,,,,,,1190.7741,1191.7748,,,1192.2747,1192.5244,,48,228,,,,,,,,,,,,,,,,bars/001.png,bars/mask008.png,,,,,,,,,,,,0,2,,,,,,,4,2,6,3,,,,,,,,,,,1191.775,1192.2747,1192.5245,1197.1925,space,4.6545,,1197.1926,82,37,1198.1942,1198.1942,1198.2222,,,,0,19,19,19,1,130,85,,,,,,,,
,,61012d6d362a6eaa2ca78ebd,65af55b2180b766db35d6f43,2024-01-23_08h05.36.757,bars,2023.2.3,Linux x86_64,60.24096386,657b66ea316d21385b68909f,,,,,,,,,,,1198.223,1199.2262,,,1199.7255,1199.9761,,164,164,,,,,,,,,,,,,,,,bars/048.png,bars/mask004.png,,,,,,,,,,,,3,2,,,,,,,6,4,8,4,,,,,,,,,,,1199.2264,1199.7254,1199.9762,1203.8912,space,3.8997,,1203.8913,66,11,1204.8921,1204.8922,1204.9187,,,,0,20,20,20,1,50,175,,,,,,,,
,,61012d6d362a6eaa2ca78ebd,65af55b2180b766db35d6f43,2024-01-23_08h05.36.757,bars,2023.2.3,Linux x86_64,60.24096386,657b66ea316d21385b68909f,,,,,,,,,,,1204.9192,1205.9089,,,1206.4096,1206.6599,,105,105,,,,,,,,,,,,,,,,bars/021.png,bars/mask009.png,,,,,,,,,,,,0,2,,,,,,,8,6,9,6,,,,,,,,,,,1205.909,1206.4094,1206.6609,1210.5088,space,3.8327,,1210.509,50,35,1211.5088,1211.509,1211.5331,,,,0,21,21,21,1,155,70,,,,,,,,
,,61012d6d362a6eaa2ca78ebd,65af55b2180b766db35d6f43,2024-01-23_08h05.36.757,bars,2023.2.3,Linux x86_64,60.24096386,657b66ea316d21385b68909f,,,,,,,,,,,1211.5344,1212.5265,,,1213.0261,1213.2771,,169,-11,,,,,,,,,,,,,,,,bars/040.png,bars/mask006.png,,,,,,,,,,,,4,2,,,,,,,10,8,9,8,,,,,,,,,,,1212.5266,1213.026,1213.2772,1218.8772,space,5.5834,,1218.8773,29,16,1219.8767,1219.8771,1219.8934,,,,0,22,22,22,1,140,5,,,,,,,,
,,61012d6d362a6eaa2ca78ebd,65af55b2180b766db35d6f43,2024-01-23_08h05.36.757,bars,2023.2.3,Linux x86_64,60.24096386,657b66ea316d21385b68909f,,,,,,,,,,,1219.8937,1220.8933,,,1221.3939,1221.6442,,131,131,,,,,,,,,,,,,,,,bars/004.png,bars/mask003.png,,,,,,,,,,,,8,2,,,,,,,8,10,7,10,,,,,,,,,,,1220.8933,1221.3938,1221.6451,1225.0982,space,3.4405,,1225.0982,74,6,1226.0938,1226.0946,1226.1237,,,,0,23,23,23,1,25,125,,,,,,,,
,,61012d6d362a6eaa2ca78ebd,65af55b2180b766db35d6f43,2024-01-23_08h05.36.757,bars,2023.2.3,Linux x86_64,60.24096386,657b66ea316d21385b68909f,,,,,,,,,,,1226.1248,1227.1275,,,1227.6275,1227.8769,,115,115,,,,,,,,,,,,,,,,bars/004.png,bars/mask007.png,,,,,,,,,,,,5,2,,,,,,,10,8,10,8,,,,,,,,,,,1227.1275,1227.6275,1227.877,1231.0941,space,3.2007,,1231.0942,90,10,1232.0951,1232.0951,1232.1234,,,,0,24,24,24,1,25,125,,,,,,,,
,,61012d6d362a6eaa2ca78ebd,65af55b2180b766db35d6f43,2024-01-23_08h05.36.757,bars,2023.2.3,Linux x86_64,60.24096386,657b66ea316d21385b68909f,,,,,,,,,,,1232.1242,1233.1124,,,1233.6132,1233.8614,,28,208,,,,,,,,,,,,,,,,bars/029.png,bars/mask001.png,,,,,,,,,,,,3,2,,,,,,,8,6,10,6,,,,,,,,,,,1233.1125,1233.6132,1233.8615,1237.9284,space,4.052,,1237.9295,62,17,1238.9279,1238.9279,1238.9564,,,,0,25,25,25,1,90,45,,,,,,,,
,,61012d6d362a6eaa2ca78ebd,65af55b2180b766db35d6f43,2024-01-23_08h05.36.757,bars,2023.2.3,Linux x86_64,60.24096386,657b66ea316d21385b68909f,,,,,,,,,,,1238.9569,1239.9454,,,1240.4471,1240.6951,,85,85,,,,,,,,,,,,,,,,bars/038.png,bars/mask005.png,,,,,,,,,,,,2,2,,,,,,,6,4,6,4,,,,,,,,,,,1239.9456,1240.4469,1240.6955,1243.0281,space,2.3175,,1243.0282,80,15,1244.0282,1244.0283,1244.0549,,,,0,26,26,26,1,165,70,,,,,,,,
,,61012d6d362a6eaa2ca78ebd,65af55b2180b766db35d6f43,2024-01-23_08h05.36.757,bars,2023.2.3,Linux x86_64,60.24096386,657b66ea316d21385b68909f,,,,,,,,,,,1244.0555,1245.0472,,,1245.5458,1245.7962,,116,116,,,,,,,,,,,,,,,,bars/023.png,bars/mask001.png,,,,,,,,,,,,7,2,,,,,,,8,6,8,7,,,,,,,,,,,1245.0472,1245.5458,1245.7963,1247.6797,space,1.8713,,1247.6798,84,1,1248.6789,1248.6789,1248.6811,,,,0,27,27,27,1,20,115,,,,,,,,
,,61012d6d362a6eaa2ca78ebd,65af55b2180b766db35d6f43,2024-01-23_08h05.36.757,bars,2023.2.3,Linux x86_64,60.24096386,657b66ea316d21385b68909f,,,,,,,,,,,1248.6819,1249.6812,,,1250.1787,1250.43,,38,38,,,,,,,,,,,,,,,,bars/036.png,bars/mask002.png,,,,,,,,,,,,4,2,,,,,,,6,8,8,10,,,,,,,,,,,1249.6813,1250.1786,1250.43,1257.6313,space,7.1899,,1257.6314,73,18,1258.6299,1258.6301,1258.6591,,,,0,28,28,28,1,145,20,,,,,,,,
,,61012d6d362a6eaa2ca78ebd,65af55b2180b766db35d6f43,2024-01-23_08h05.36.757,bars,2023.2.3,Linux x86_64,60.24096386,657b66ea316d21385b68909f,,,,,,,,,,,1258.6596,1259.6626,,,1260.163,1260.4122,,43,43,,,,,,,,,,,,,,,,bars/022.png,bars/mask009.png,,,,,,,,,,,,1,2,,,,,,,8,6,7,6,,,,,,,,,,,1259.6627,1260.1629,1260.4122,1263.3293,space,2.9029,,1263.3294,52,23,1264.3302,1264.3303,1264.3586,,,,0,29,29,29,1,95,20,,,,,,,,
,,61012d6d362a6eaa2ca78ebd,65af55b2180b766db35d6f43,2024-01-23_08h05.36.757,bars,2023.2.3,Linux x86_64,60.24096386,657b66ea316d21385b68909f,,,,,,,,,,,1264.3593,1265.3635,,,1265.8636,1266.1134,,125,305,,,,,,,,,,,,,,,,bars/005.png,bars/mask008.png,,,,,,,,,,,,4,2,,,,,,,10,8,10,8,,,,,,,,,,,1265.3636,1265.8635,1266.1137,1274.4837,space,8.3567,,1274.4838,65,15,1275.4801,1275.4801,1275.4904,,,,0,30,30,30,1,10,140,,,,,,,,
,,61012d6d362a6eaa2ca78ebd,65af55b2180b766db35d6f43,2024-01-23_08h05.36.757,bars,2023.2.3,Linux x86_64,60.24096386,657b66ea316d21385b68909f,,,,,,,,,,,1275.4906,1276.4801,,,1276.9805,1277.2315,,138,138,,,,,,,,,,,,,,,,bars/004.png,bars/mask009.png,,,,,,,,,,,,5,2,,,,,,,8,10,6,9,,,,,,,,,,,1276.4802,1276.9804,1277.2316,1278.2471,space,1.0051,,1278.2471,67,13,1279.2484,1279.2484,1279.2505,,,,0,31,31,31,1,25,125,,,,,,,,
,,61012d6d362a6eaa2ca78ebd,65af55b2180b766db35d6f43,2024-01-23_08h05.36.757,bars,2023.2.3,Linux x86_64,60.24096386,657b66ea316d21385b68909f,,,,,,,,,,,1279.2513,1280.2477,,,1280.7486,1280.9972,,62,62,,,,,,,,,,,,,,,,bars/025.png,bars/mask006.png,,,,,,,,,,,,2,2,,,,,,,6,8,6,8,,,,,,,,,,,1280.2478,1280.7486,1280.9972,1286.381,space,5.3717,,1286.3812,43,22,1287.3818,1287.3819,1287.4106,,,,0,32,32,32,1,105,40,,,,,,,,
,,61012d6d362a6eaa2ca78ebd,65af55b2180b766db35d6f43,2024-01-23_08h05.36.757,bars,2023.2.3,Linux x86_64,60.24096386,657b66ea316d21385b68909f,,,,,,,,,,,1287.4115,1288.4152,,,1288.9151,1289.1642,,98,98,,,,,,,,,,,,,,,,bars/006.png,bars/mask006.png,,,,,,,,,,,,9,2,,,,,,,8,10,8,10,,,,,,,,,,,1288.4153,1288.9151,1289.1643,1290.1645,space,0.9865,,1290.1645,63,2,1291.1645,1291.1645,1291.1673,,,,0,33,33,33,1,35,100,,,,,,,,
,,61012d6d362a6eaa2ca78ebd,65af55b2180b766db35d6f43,2024-01-23_08h05.36.757,bars,2023.2.3,Linux x86_64,60.24096386,657b66ea316d21385b68909f,,,,,,,,,,,1291.1686,1292.1652,,,1292.665,1292.9147,,61,61,,,,,,,,,,,,,,,,bars/036.png,bars/mask000.png,,,,,,,,,,,,0,2,,,,,,,6,8,6,10,,,,,,,,,,,1292.1653,1292.6649,1292.9147,1295.3849,space,2.4571,,1295.3849,84,41,1296.3815,1296.3815,1296.4107,,,,0,34,34,34,1,145,20,,,,,,,,
,,61012d6d362a6eaa2ca78ebd,65af55b2180b766db35d6f43,2024-01-23_08h05.36.757,bars,2023.2.3,Linux x86_64,60.24096386,657b66ea316d21385b68909f,,,,,,,,,,,1296.4113,1297.4155,,,1297.9154,1298.1654,,40,40,,,,,,,,,,,,,,,,bars/036.png,bars/mask009.png,,,,,,,,,,,,2,2,,,,,,,4,6,4,6,,,,,,,,,,,1297.4156,1297.9153,1298.1654,1299.916,space,1.739,,1299.9161,75,20,1300.9153,1300.9153,1300.919,,,,0,35,35,35,1,145,20,,,,,,,,
,,61012d6d362a6eaa2ca78ebd,65af55b2180b766db35d6f43,2024-01-23_08h05.36.757,bars,2023.2.3,Linux x86_64,60.24096386,657b66ea316d21385b68909f,,,,,,,,,,,1300.9199,1301.9152,,,1302.4157,1302.6663,,56,56,,,,,,,,,,,,,,,,bars/021.png,bars/mask000.png,,,,,,,,,,,,2,2,,,,,,,2,4,2,4,,,,,,,,,,,1301.9152,1302.4157,1302.6664,1306.2323,space,3.5516,,1306.2324,81,14,1307.2335,1307.2343,1307.2615,,,,0,36,36,36,1,155,70,,,,,,,,
,,61012d6d362a6eaa2ca78ebd,65af55b2180b766db35d6f43,2024-01-23_08h05.36.757,bars,2023.2.3,Linux x86_64,60.24096386,657b66ea316d21385b68909f,,,,,,,,,,,1307.262,1308.2664,,,1308.7664,1309.0158,,135,135,,,,,,,,,,,,,,,,bars/000.png,bars/mask002.png,,,,,,,,,,,,3,2,,,,,,,4,6,4,4,,,,,,,,,,,1308.2666,1308.7664,1309.0159,1311.9824,space,2.9538,,1311.9825,85,10,1312.9825,1312.9825,1313.0082,,,,0,37,37,37,1,40,145,,,,,,,,
,,61012d6d362a6eaa2ca78ebd,65af55b2180b766db35d6f43,2024-01-23_08h05.36.757,bars,2023.2.3,Linux x86_64,60.24096386,657b66ea316d21385b68909f,,,,,,,,,,,1313.0087,1314,,,1314.5016,1314.7532,,54,54,,,,,,,,,,,,,,,,bars/034.png,bars/mask003.png,,,,,,,,,,,,4,2,,,,,,,2,8,1,7,,,,,,,,,,,1314.0001,1314.5016,1314.7533,1316.3176,space,1.5475,,1316.3178,71,11,1317.3178,1317.3178,1317.3199,,,,0,38,38,38,1,125,65,,,,,,,,
,,61012d6d362a6eaa2ca78ebd,65af55b2180b766db35d6f43,2024-01-23_08h05.36.757,bars,2023.2.3,Linux x86_64,60.24096386,657b66ea316d21385b68909f,,,,,,,,,,,1317.3214,1318.3179,,,1318.8175,1319.0663,,152,152,,,,,,,,,,,,,,,,bars/005.png,bars/mask008.png,,,,,,,,,,,,6,2,,,,,,,4,10,5,10,,,,,,,,,,,1318.3185,1318.8174,1319.0664,1321.6333,space,2.5561,,1321.6334,38,12,1322.6333,1322.6334,1322.6607,,,,0,39,39,39,1,10,140,,,,,,,,
,,61012d6d362a6eaa2ca78ebd,65af55b2180b766db35d6f43,2024-01-23_08h05.36.757,bars,2023.2.3,Linux x86_64,60.24096386,657b66ea316d21385b68909f,,,,,,,,,,,1322.6613,1323.6508,,,1324.1507,1324.4001,,25,25,,,,,,,,,,,,,,,,bars/040.png,bars/mask006.png,,,,,,,,,,,,2,2,,,,,,,6,8,7,7,,,,,,,,,,,1323.6509,1324.1506,1324.4002,1326.0014,space,1.5888,,1326.0014,65,20,1327.0001,1327.0003,1327.0025,,,,0,40,40,40,1,140,5,,,,,,,,
,,61012d6d362a6eaa2ca78ebd,65af55b2180b766db35d6f43,2024-01-23_08h05.36.757,bars,2023.2.3,Linux x86_64,60.24096386,657b66ea316d21385b68909f,,,,,,,,,,,1327.004,1328.0002,,,1328.5034,1328.7532,,51,51,,,,,,,,,,,,,,,,bars/018.png,bars/mask002.png,,,,,,,,,,,,0,2,,,,,,,4,6,5,7,,,,,,,,,,,1328.0002,1328.503,1328.7532,1333.4176,space,4.6517,,1333.4177,81,39,1334.4172,1334.4178,1334.446,,,,0,41,41,41,1,150,90,,,,,,,,
,,61012d6d362a6eaa2ca78ebd,65af55b2180b766db35d6f43,2024-01-23_08h05.36.757,bars,2023.2.3,Linux x86_64,60.24096386,657b66ea316d21385b68909f,,,,,,,,,,,1334.447,1335.4358,,,1335.9348,1336.184,,55,55,,,,,,,,,,,,,,,,bars/035.png,bars/mask006.png,,,,,,,,,,,,8,2,,,,,,,6,8,6,9,,,,,,,,,,,1335.4368,1335.9347,1336.184,1340.5014,space,4.3051,,1340.5014,60,5,1341.502,1341.502,1341.5292,,,,0,42,42,42,1,175,60,,,,,,,,
,,61012d6d362a6eaa2ca78ebd,65af55b2180b766db35d6f43,2024-01-23_08h05.36.757,bars,2023.2.3,Linux x86_64,60.24096386,657b66ea316d21385b68909f,,,,,,,,,,,1341.53,1342.5182,,,1343.0191,1343.2695,,100,100,,,,,,,,,,,,,,,,bars/028.png,bars/mask004.png,,,,,,,,,,,,2,2,,,,,,,8,6,9,7,,,,,,,,,,,1342.5183,1343.019,1343.2696,1345.7203,space,2.4373,,1345.7205,55,20,1346.7198,1346.7198,1346.7438,,,,0,43,43,43,1,45,120,,,,,,,,
,,61012d6d362a6eaa2ca78ebd,65af55b2180b766db35d6f43,2024-01-23_08h05.36.757,bars,2023.2.3,Linux x86_64,60.24096386,657b66ea316d21385b68909f,,,,,,,,,,,1346.7442,1347.7358,,,1348.2356,1348.4852,,94,94,,,,,,,,,,,,,,,,bars/023.png,bars/mask004.png,,,,,,,,,,,,3,2,,,,,,,6,8,5,10,,,,,,,,,,,1347.7359,1348.2356,1348.4853,1349.4359,space,0.9362,,1349.436,74,21,1350.4351,1350.4352,1350.4384,,,,0,44,44,44,1,20,115,,,,,,,,
,,61012d6d362a6eaa2ca78ebd,65af55b2180b766db35d6f43,2024-01-23_08h05.36.757,bars,2023.2.3,Linux x86_64,60.24096386,657b66ea316d21385b68909f,,,,,,,,,,,1350.4395,1351.4352,,,1351.9372,1352.1853,,176,-4,,,,,,,,,,,,,,,,bars/032.png,bars/mask004.png,,,,,,,,,,,,2,2,,,,,,,4,10,4,9,,,,,,,,,,,1351.436,1351.9372,1352.1854,1357.3696,space,5.1717,,1357.3696,51,24,1358.3702,1358.3702,1358.3998,,,,0,45,45,45,1,125,20,,,,,,,,
,,61012d6d362a6eaa2ca78ebd,65af55b2180b766db35d6f43,2024-01-23_08h05.36.757,bars,2023.2.3,Linux x86_64,60.24096386,657b66ea316d21385b68909f,,,,,,,,,,,1358.4004,1359.4023,,,1359.903,1360.1535,,112,112,,,,,,,,,,,,,,,,bars/043.png,bars/mask004.png,,,,,,,,,,,,4,2,,,,,,,2,8,3,9,,,,,,,,,,,1359.4023,1359.9028,1360.1544,1363.9219,space,3.7526,,1363.9219,82,18,1364.9144,1364.9145,1364.9285,,,,0,46,46,46,1,30,130,,,,,,,,
,,61012d6d362a6eaa2ca78ebd,65af55b2180b766db35d6f43,2024-01-23_08h05.36.757,bars,2023.2.3,Linux x86_64,60.24096386,657b66ea316d21385b68909f,,,,,,,,,,,1364.9288,1365.9205,,,1366.4202,1366.6714,,3,183,,,,,,,,,,,,,,,,bars/016.png,bars/mask002.png,,,,,,,,,,,,4,2,,,,,,,4,6,4,9,,,,,,,,,,,1365.9206,1366.4201,1366.6715,1369.7875,space,3.1043,,1369.7876,37,18,1370.7876,1370.7877,1370.8154,,,,0,47,47,47,1,40,165,,,,,,,,
,,61012d6d362a6eaa2ca78ebd,65af55b2180b766db35d6f43,2024-01-23_08h05.36.757,bars,2023.2.3,Linux x86_64,60.24096386,657b66ea316d21385b68909f,,,,,,,,,,,1370.8161,1371.8206,,,1372.3201,1372.5717,,75,75,,,,,,,,,,,,,,,,bars/034.png,bars/mask006.png,,,,,,,,,,,,5,2,,,,,,,2,8,1,7,,,,,,,,,,,1371.8206,1372.3201,1372.5718,1374.7869,space,2.2003,,1374.7869,50,10,1375.7865,1375.7865,1375.7983,,,,0,48,48,48,1,125,65,,,,,,,,
,,61012d6d362a6eaa2ca78ebd,65af55b2180b766db35d6f43,2024-01-23_08h05.36.757,bars,2023.2.3,Linux x86_64,60.24096386,657b66ea316d21385b68909f,,,,,,,,,,,1375.7986,1376.788,,,1377.2882,1377.5377,,101,101,,,,,,,,,,,,,,,,bars/047.png,bars/mask009.png,,,,,,,,,,,,0,2,,,,,,,0,6,0,6,,,,,,,,,,,1376.7881,1377.2882,1377.5378,1381.4038,space,3.8501,,1381.4039,86,31,1382.4054,1382.4055,1382.4379,,,,0,49,49,49,1,15,70,,,,,,,,
,,61012d6d362a6eaa2ca78ebd,65af55b2180b766db35d6f43,2024-01-23_08h05.36.757,bars,2023.2.3,Linux x86_64,60.24096386,657b66ea316d21385b68909f,,,,,,,,,,,,,,,,,,,,,,,,,,,,,,,,,,,,,,,,,,,,,,,,,,,,,,,,,,,,,,,,,,,,,,,,,,,,,,,,,,,,,,,,,,,,,1382.4382,1442.4264,0,2,2,2,1,sequence_tables/blk005.csv
,,61012d6d362a6eaa2ca78ebd,65af55b2180b766db35d6f43,2024-01-23_08h05.36.757,bars,2023.2.3,Linux x86_64,60.24096386,657b66ea316d21385b68909f,,,,,,,,,,,1448.5255,1449.5093,,,1450.0095,1450.2589,,73,73,,,,,,,,,,,,,,,,bars/012.png,bars/mask001.png,,,,,,,,,,,,2,1,,,,,,,5,8,5,7,,,,,,1442.4543,1448.4933,space,6.0252,,1449.5094,1450.0093,1450.259,1455.8104,space,5.5391,,1455.8105,17,58,1456.8099,1456.8101,1456.8398,,,,0,0,0,0,1,90,15,,,,,,,,
,,61012d6d362a6eaa2ca78ebd,65af55b2180b766db35d6f43,2024-01-23_08h05.36.757,bars,2023.2.3,Linux x86_64,60.24096386,657b66ea316d21385b68909f,,,,,,,,,,,1456.8404,1457.8428,,,1458.345,1458.5942,,74,74,,,,,,,,,,,,,,,,bars/034.png,bars/mask001.png,,,,,,,,,,,,6,2,,,,,,,3,6,4,8,,,,,,,,,,,1457.8428,1458.344,1458.5943,1460.9771,space,2.3661,,1460.9773,51,9,1461.9769,1461.9771,1462.0076,,,,0,1,1,1,1,125,65,,,,,,,,
,,61012d6d362a6eaa2ca78ebd,65af55b2180b766db35d6f43,2024-01-23_08h05.36.757,bars,2023.2.3,Linux x86_64,60.24096386,657b66ea316d21385b68909f,,,,,,,,,,,1462.0082,1463.0094,,,1463.5102,1463.7608,,60,60,,,,,,,,,,,,,,,,bars/013.png,bars/mask002.png,,,,,,,,,,,,3,1,,,,,,,5,8,5,9,,,,,,,,,,,1463.0096,1463.5101,1463.7609,1469.6941,space,5.9187,,1469.6942,15,50,1470.6938,1470.694,1470.7167,,,,0,2,2,2,1,75,10,,,,,,,,
,,61012d6d362a6eaa2ca78ebd,65af55b2180b766db35d6f43,2024-01-23_08h05.36.757,bars,2023.2.3,Linux x86_64,60.24096386,657b66ea316d21385b68909f,,,,,,,,,,,1470.717,1471.7102,,,1472.2103,1472.4606,,96,96,,,,,,,,,,,,,,,,bars/049.png,bars/mask009.png,,,,,,,,,,,,2,2,,,,,,,7,6,7,5,,,,,,,,,,,1471.7102,1472.2102,1472.4606,1474.5778,space,2.1025,,1474.5779,64,19,1475.58,1475.5801,1475.6104,,,,0,3,3,3,1,160,115,,,,,,,,
,,61012d6d362a6eaa2ca78ebd,65af55b2180b766db35d6f43,2024-01-23_08h05.36.757,bars,2023.2.3,Linux x86_64,60.24096386,657b66ea316d21385b68909f,,,,,,,,,,,1475.6111,1476.6108,,,1477.1122,1477.3611,,73,73,,,,,,,,,,,,,,,,bars/046.png,bars/mask000.png,,,,,,,,,,,,1,2,,,,,,,9,4,8,2,,,,,,,,,,,1476.6109,1477.1121,1477.3612,1483.511,space,6.1357,,1483.5111,82,12,1484.5117,1484.5118,1484.5404,,,,0,4,4,4,1,155,85,,,,,,,,
,,61012d6d362a6eaa2ca78ebd,65af55b2180b766db35d6f43,2024-01-23_08h05.36.757,bars,2023.2.3,Linux x86_64,60.24096386,657b66ea316d21385b68909f,,,,,,,,,,,1484.5411,1485.545,,,1486.0447,1486.295,,142,142,,,,,,,,,,,,,,,,bars/016.png,bars/mask006.png,,,,,,,,,,,,1,2,,,,,,,7,6,8,4,,,,,,,,,,,1485.545,1486.0446,1486.2951,1491.6623,space,5.3549,,1491.6624,78,23,1492.6616,1492.6618,1492.6902,,,,0,5,5,5,1,40,165,,,,,,,,
,,61012d6d362a6eaa2ca78ebd,65af55b2180b766db35d6f43,2024-01-23_08h05.36.757,bars,2023.2.3,Linux x86_64,60.24096386,657b66ea316d21385b68909f,,,,,,,,,,,1492.691,1493.6795,,,1494.179,1494.4285,,68,68,,,,,,,,,,,,,,,,bars/027.png,bars/mask006.png,,,,,,,,,,,,3,2,,,,,,,9,8,9,7,,,,,,,,,,,1493.6795,1494.1789,1494.4286,1496.9657,space,2.5256,,1496.9658,42,18,1497.9626,1497.9628,1497.9916,,,,0,6,6,6,1,110,50,,,,,,,,
,,61012d6d362a6eaa2ca78ebd,65af55b2180b766db35d6f43,2024-01-23_08h05.36.757,bars,2023.2.3,Linux x86_64,60.24096386,657b66ea316d21385b68909f,,,,,,,,,,,1497.9924,1498.9964,,,1499.4969,1499.746,,15,15,,,,,,,,,,,,,,,,bars/015.png,bars/mask006.png,,,,,,,,,,,,0,2,,,,,,,7,10,7,10,,,,,,,,,,,1498.9966,1499.4969,1499.746,1501.1176,space,1.3594,,1501.1177,85,35,1502.1126,1502.1126,1502.1154,,,,0,7,7,7,1,110,160,,,,,,,,
,,61012d6d362a6eaa2ca78ebd,65af55b2180b766db35d6f43,2024-01-23_08h05.36.757,bars,2023.2.3,Linux x86_64,60.24096386,657b66ea316d21385b68909f,,,,,,,,,,,1502.1162,1503.1126,,,1503.6128,1503.864,,40,40,,,,,,,,,,,,,,,,bars/046.png,bars/mask006.png,,,,,,,,,,,,0,2,,,,,,,5,10,4,9,,,,,,,,,,,1503.1127,1503.6126,1503.8641,1507.2986,space,3.4232,,1507.2987,65,45,1508.2961,1508.2962,1508.3131,,,,0,8,8,8,1,155,85,,,,,,,,
,,61012d6d362a6eaa2ca78ebd,65af55b2180b766db35d6f43,2024-01-23_08h05.36.757,bars,2023.2.3,Linux x86_64,60.24096386,657b66ea316d21385b68909f,,,,,,,,,,,1508.3134,1509.3128,,,1509.814,1510.0629,,68,68,,,,,,,,,,,,,,,,bars/022.png,bars/mask007.png,,,,,,,,,,,,1,1,,,,,,,7,8,7,8,,,,,,,,,,,1509.3129,1509.814,1510.0629,1511.3645,space,1.2855,,1511.3646,27,48,1512.3633,1512.3634,1512.3691,,,,0,9,9,9,1,95,20,,,,,,,,
,,61012d6d362a6eaa2ca78ebd,65af55b2180b766db35d6f43,2024-01-23_08h05.36.757,bars,2023.2.3,Linux x86_64,60.24096386,657b66ea316d21385b68909f,,,,,,,,,,,1512.3698,1513.3629,,,1513.8637,1514.1145,,142,142,,,,,,,,,,,,,,,,bars/020.png,bars/mask001.png,,,,,,,,,,,,1,1,,,,,,,9,6,10,6,,,,,,,,,,,1513.363,1513.8636,1514.1146,1518.5308,space,4.4033,,1518.531,27,28,1519.5304,1519.5305,1519.5585,,,,0,10,10,10,1,115,170,,,,,,,,
,,61012d6d362a6eaa2ca78ebd,65af55b2180b766db35d6f43,2024-01-23_08h05.36.757,bars,2023.2.3,Linux x86_64,60.24096386,657b66ea316d21385b68909f,,,,,,,,,,,1519.559,1520.5478,,,1521.0477,1521.2975,,14,194,,,,,,,,,,,,,,,,bars/043.png,bars/mask001.png,,,,,,,,,,,,5,1,,,,,,,10,8,10,7,,,,,,,,,,,1520.548,1521.0477,1521.2976,1527.414,space,6.1012,,1527.4141,16,64,1528.4148,1528.415,1528.4417,,,,0,11,11,11,1,30,130,,,,,,,,
,,61012d6d362a6eaa2ca78ebd,65af55b2180b766db35d6f43,2024-01-23_08h05.36.757,bars,2023.2.3,Linux x86_64,60.24096386,657b66ea316d21385b68909f,,,,,,,,,,,1528.4424,1529.4315,,,1529.931,1530.1808,,132,132,,,,,,,,,,,,,,,,bars/004.png,bars/mask005.png,,,,,,,,,,,,8,2,,,,,,,8,10,10,10,,,,,,,,,,,1529.4315,1529.9309,1530.1809,1536.1491,space,5.9525,,1536.1493,73,7,1537.1487,1537.1487,1537.1795,,,,0,12,12,12,1,25,125,,,,,,,,
,,61012d6d362a6eaa2ca78ebd,65af55b2180b766db35d6f43,2024-01-23_08h05.36.757,bars,2023.2.3,Linux x86_64,60.24096386,657b66ea316d21385b68909f,,,,,,,,,,,1537.1802,1538.1817,,,1538.6823,1538.9315,,68,68,,,,,,,,,,,,,,,,bars/002.png,bars/mask001.png,,,,,,,,,,,,3,2,,,,,,,6,8,7,8,,,,,,,,,,,1538.1818,1538.6822,1538.9315,1542.0162,space,3.0702,,1542.0163,62,17,1543.0155,1543.0156,1543.0441,,,,0,13,13,13,1,130,85,,,,,,,,
,,61012d6d362a6eaa2ca78ebd,65af55b2180b766db35d6f43,2024-01-23_08h05.36.757,bars,2023.2.3,Linux x86_64,60.24096386,657b66ea316d21385b68909f,,,,,,,,,,,1543.0447,1544.0484,,,1544.5498,1544.7993,,142,142,,,,,,,,,,,,,,,,bars/046.png,bars/mask003.png,,,,,,,,,,,,1,1,,,,,,,4,10,1,10,,,,,,,,,,,1544.0485,1544.5497,1544.7994,1546.669,space,1.8593,,1546.6691,13,57,1547.6675,1547.6675,1547.6974,,,,0,14,14,14,1,155,85,,,,,,,,
,,61012d6d362a6eaa2ca78ebd,65af55b2180b766db35d6f43,2024-01-23_08h05.36.757,bars,2023.2.3,Linux x86_64,60.24096386,657b66ea316d21385b68909f,,,,,,,,,,,1547.698,1548.6987,,,1549.2007,1549.4495,,36,36,,,,,,,,,,,,,,,,bars/048.png,bars/mask000.png,,,,,,,,,,,,4,1,,,,,,,6,8,7,7,,,,,,,,,,,1548.6988,1549.2007,1549.4495,1554.1199,space,4.6578,,1554.12,14,41,1555.1171,1555.1172,1555.1458,,,,0,15,15,15,1,50,175,,,,,,,,
,,61012d6d362a6eaa2ca78ebd,65af55b2180b766db35d6f43,2024-01-23_08h05.36.757,bars,2023.2.3,Linux x86_64,60.24096386,657b66ea316d21385b68909f,,,,,,,,,,,1555.1465,1556.1496,,,1556.649,1556.8987,,67,247,,,,,,,,,,,,,,,,bars/026.png,bars/mask007.png,,,,,,,,,,,,2,2,,,,,,,4,6,3,5,,,,,,,,,,,1556.1498,1556.6489,1556.8988,1561.7866,space,4.879,,1561.7867,32,18,1562.7857,1562.7857,1562.8172,,,,0,16,16,16,1,35,85,,,,,,,,
,,61012d6d362a6eaa2ca78ebd,65af55b2180b766db35d6f43,2024-01-23_08h05.36.757,bars,2023.2.3,Linux x86_64,60.24096386,657b66ea316d21385b68909f,,,,,,,,,,,1562.8179,1563.817,,,1564.3167,1564.567,,102,102,,,,,,,,,,,,,,,,bars/038.png,bars/mask001.png,,,,,,,,,,,,0,2,,,,,,,6,8,6,8,,,,,,,,,,,1563.817,1564.3167,1564.5671,1567.8675,space,3.2869,,1567.8679,63,32,1568.8674,1568.8675,1568.8953,,,,0,17,17,17,1,165,70,,,,,,,,
,,61012d6d362a6eaa2ca78ebd,65af55b2180b766db35d6f43,2024-01-23_08h05.36.757,bars,2023.2.3,Linux x86_64,60.24096386,657b66ea316d21385b68909f,,,,,,,,,,,1568.8956,1569.8838,,,1570.3861,1570.6352,,104,104,,,,,,,,,,,,,,,,bars/009.png,bars/mask008.png,,,,,,,,,,,,8,2,,,,,,,8,10,6,8,,,,,,,,,,,1569.8839,1570.386,1570.6353,1574.3181,space,3.671,,1574.3181,89,1,1575.3182,1575.3182,1575.3412,,,,0,18,18,18,1,15,105,,,,,,,,
,,61012d6d362a6eaa2ca78ebd,65af55b2180b766db35d6f43,2024-01-23_08h05.36.757,bars,2023.2.3,Linux x86_64,60.24096386,657b66ea316d21385b68909f,,,,,,,,,,,1575.3417,1576.334,,,1576.8343,1577.0847,,135,135,,,,,,,,,,,,,,,,bars/004.png,bars/mask003.png,,,,,,,,,,,,6,2,,,,,,,6,8,6,9,,,,,,,,,,,1576.3341,1576.8343,1577.0847,1580.3352,space,3.2353,,1580.3353,70,10,1581.3354,1581.3355,1581.3624,,,,0,19,19,19,1,25,125,,,,,,,,
,,61012d6d362a6eaa2ca78ebd,65af55b2180b766db35d6f43,2024-01-23_08h05.36.757,bars,2023.2.3,Linux x86_64,60.24096386,657b66ea316d21385b68909f,,,,,,,,,,,1581.3633,1582.3517,,,1582.8516,1583.1011,,118,118,,,,,,,,,,,,,,,,bars/033.png,bars/mask006.png,,,,,,,,,,,,0,2,,,,,,,4,10,5,10,,,,,,,,,,,1582.3529,1582.8516,1583.1011,1593.152,space,10.034,,1593.1521,87,37,1594.1522,1594.1523,1594.1828,,,,0,20,20,20,1,25,155,,,,,,,,
,,61012d6d362a6eaa2ca78ebd,65af55b2180b766db35d6f43,2024-01-23_08h05.36.757,bars,2023.2.3,Linux x86_64,60.24096386,657b66ea316d21385b68909f,,,,,,,,,,,1594.1838,1595.1863,,,1595.6859,1595.9371,,138,138,,,,,,,,,,,,,,,,bars/033.png,bars/mask001.png,,,,,,,,,,,,4,2,,,,,,,2,10,1,9,,,,,,,,,,,1595.1863,1595.6858,1595.9372,1600.7358,space,4.7853,,1600.736,67,17,1601.7368,1601.737,1601.7634,,,,0,21,21,21,1,25,155,,,,,,,,
,,61012d6d362a6eaa2ca78ebd,65af55b2180b766db35d6f43,2024-01-23_08h05.36.757,bars,2023.2.3,Linux x86_64,60.24096386,657b66ea316d21385b68909f,,,,,,,,,,,1601.764,1602.7536,,,1603.253,1603.5027,,115,115,,,,,,,,,,,,,,,,bars/043.png,bars/mask009.png,,,,,,,,,,,,4,2,,,,,,,4,8,4,8,,,,,,,,,,,1602.7537,1603.2528,1603.5027,1605.7372,space,2.2197,,1605.7373,85,15,1606.7361,1606.7362,1606.7652,,,,0,22,22,22,1,30,130,,,,,,,,
,,61012d6d362a6eaa2ca78ebd,65af55b2180b766db35d6f43,2024-01-23_08h05.36.757,bars,2023.2.3,Linux x86_64,60.24096386,657b66ea316d21385b68909f,,,,,,,,,,,1606.7659,1607.7698,,,1608.2718,1608.5203,,30,30,,,,,,,,,,,,,,,,bars/013.png,bars/mask007.png,,,,,,,,,,,,2,2,,,,,,,6,6,5,6,,,,,,,,,,,1607.7699,1608.2716,1608.5204,1611.3205,space,2.7854,,1611.3206,45,20,1612.3196,1612.3197,1612.3437,,,,0,23,23,23,1,75,10,,,,,,,,
,,61012d6d362a6eaa2ca78ebd,65af55b2180b766db35d6f43,2024-01-23_08h05.36.757,bars,2023.2.3,Linux x86_64,60.24096386,657b66ea316d21385b68909f,,,,,,,,,,,1612.3442,1613.3376,,,1613.8394,1614.0875,,144,144,,,,,,,,,,,,,,,,bars/049.png,bars/mask006.png,,,,,,,,,,,,1,1,,,,,,,4,8,2,10,,,,,,,,,,,1613.3376,1613.8391,1614.0876,1616.2041,space,2.0996,,1616.2042,16,29,1617.2039,1617.204,1617.2347,,,,0,24,24,24,1,160,115,,,,,,,,
,,61012d6d362a6eaa2ca78ebd,65af55b2180b766db35d6f43,2024-01-23_08h05.36.757,bars,2023.2.3,Linux x86_64,60.24096386,657b66ea316d21385b68909f,,,,,,,,,,,1617.2354,1618.224,,,1618.7207,1618.9716,,48,48,,,,,,,,,,,,,,,,bars/036.png,bars/mask007.png,,,,,,,,,,,,1,2,,,,,,,6,10,6,10,,,,,,,,,,,1618.2241,1618.7207,1618.9716,1622.9049,space,3.922,,1622.905,83,28,1623.9044,1623.9044,1623.9379,,,,0,25,25,25,1,145,20,,,,,,,,
,,61012d6d362a6eaa2ca78ebd,65af55b2180b766db35d6f43,2024-01-23_08h05.36.757,bars,2023.2.3,Linux x86_64,60.24096386,657b66ea316d21385b68909f,,,,,,,,,,,1623.9388,1624.9379,,,1625.4383,1625.6878,,164,164,,,,,,,,,,,,,,,,bars/033.png,bars/mask002.png,,,,,,,,,,,,6,2,,,,,,,4,10,4,9,,,,,,,,,,,1624.9379,1625.4383,1625.6878,1628.505,space,2.8036,,1628.5051,41,9,1629.5051,1629.5057,1629.534,,,,0,26,26,26,1,25,155,,,,,,,,
,,61012d6d362a6eaa2ca78ebd,65af55b2180b766db35d6f43,2024-01-23_08h05.36.757,bars,2023.2.3,Linux x86_64,60.24096386,657b66ea316d21385b68909f,,,,,,,,,,,1629.5346,1630.5387,,,1631.0387,1631.2894,,45,45,,,,,,,,,,,,,,,,bars/035.png,bars/mask003.png,,,,,,,,,,,,4,2,,,,,,,6,8,6,8,,,,,,,,,,,1630.5387,1631.0386,1631.2896,1635.6052,space,4.3012,,1635.6053,50,15,1636.6048,1636.6048,1636.6336,,,,0,27,27,27,1,175,60,,,,,,,,
,,61012d6d362a6eaa2ca78ebd,65af55b2180b766db35d6f43,2024-01-23_08h05.36.757,bars,2023.2.3,Linux x86_64,60.24096386,657b66ea316d21385b68909f,,,,,,,,,,,1636.6343,1637.6381,,,1638.1389,1638.3895,,46,46,,,,,,,,,,,,,,,,bars/030.png,bars/mask004.png,,,,,,,,,,,,3,2,,,,,,,8,6,9,7,,,,,,,,,,,1637.6386,1638.1388,1638.3895,1640.6228,space,2.2203,,1640.6228,86,19,1641.6222,1641.6223,1641.6525,,,,0,28,28,28,1,140,65,,,,,,,,
,,61012d6d362a6eaa2ca78ebd,65af55b2180b766db35d6f43,2024-01-23_08h05.36.757,bars,2023.2.3,Linux x86_64,60.24096386,657b66ea316d21385b68909f,,,,,,,,,,,1641.6531,1642.6566,,,1643.1548,1643.4054,,146,146,,,,,,,,,,,,,,,,bars/040.png,bars/mask009.png,,,,,,,,,,,,7,1,,,,,,,10,8,9,8,,,,,,,,,,,1642.6567,1643.1548,1643.4055,1645.2894,space,1.8683,,1645.2894,6,39,1646.2892,1646.2903,1646.3194,,,,0,29,29,29,1,140,5,,,,,,,,
,,61012d6d362a6eaa2ca78ebd,65af55b2180b766db35d6f43,2024-01-23_08h05.36.757,bars,2023.2.3,Linux x86_64,60.24096386,657b66ea316d21385b68909f,,,,,,,,,,,1646.3201,1647.3231,,,1647.8221,1648.0732,,135,135,,,,,,,,,,,,,,,,bars/043.png,bars/mask004.png,,,,,,,,,,,,8,2,,,,,,,8,10,7,10,,,,,,,,,,,1647.3232,1647.8221,1648.0733,1652.5062,space,4.419,,1652.5063,75,5,1653.5061,1653.5061,1653.5347,,,,0,30,30,30,1,30,130,,,,,,,,
,,61012d6d362a6eaa2ca78ebd,65af55b2180b766db35d6f43,2024-01-23_08h05.36.757,bars,2023.2.3,Linux x86_64,60.24096386,657b66ea316d21385b68909f,,,,,,,,,,,1653.5353,1654.5398,,,1655.039,1655.2896,,138,138,,,,,,,,,,,,,,,,bars/008.png,bars/mask002.png,,,,,,,,,,,,1,1,,,,,,,10,10,9,10,,,,,,,,,,,1654.5399,1655.0389,1655.2897,1657.3894,space,2.084,,1657.3894,28,42,1658.3899,1658.39,1658.4184,,,,0,31,31,31,1,110,0,,,,,,,,
,,61012d6d362a6eaa2ca78ebd,65af55b2180b766db35d6f43,2024-01-23_08h05.36.757,bars,2023.2.3,Linux x86_64,60.24096386,657b66ea316d21385b68909f,,,,,,,,,,,1658.4188,1659.4075,,,1659.9068,1660.158,,43,43,,,,,,,,,,,,,,,,bars/020.png,bars/mask003.png,,,,,,,,,,,,0,2,,,,,,,10,10,10,8,,,,,,,,,,,1659.4076,1659.9067,1660.158,1663.107,space,2.931,,1663.1071,72,53,1664.1068,1664.1069,1664.1374,,,,0,32,32,32,1,115,170,,,,,,,,
,,61012d6d362a6eaa2ca78ebd,65af55b2180b766db35d6f43,2024-01-23_08h05.36.757,bars,2023.2.3,Linux x86_64,60.24096386,657b66ea316d21385b68909f,,,,,,,,,,,1664.1381,1665.1408,,,1665.6409,1665.8907,,139,139,,,,,,,,,,,,,,,,bars/044.png,bars/mask000.png,,,,,,,,,,,,5,2,,,,,,,8,8,7,10,,,,,,,,,,,1665.1409,1665.6408,1665.8908,1669.1741,space,3.2673,,1669.1741,64,16,1670.175,1670.1751,1670.2024,,,,0,33,33,33,1,75,155,,,,,,,,
,,61012d6d362a6eaa2ca78ebd,65af55b2180b766db35d6f43,2024-01-23_08h05.36.757,bars,2023.2.3,Linux x86_64,60.24096386,657b66ea316d21385b68909f,,,,,,,,,,,1670.2031,1671.1912,,,1671.6908,1671.9441,,127,127,,,,,,,,,,,,,,,,bars/003.png,bars/mask004.png,,,,,,,,,,,,3,2,,,,,,,6,6,8,6,,,,,,,,,,,1671.1913,1671.6907,1671.9442,1675.4332,space,3.4793,,1675.4332,78,13,1676.4371,1676.4373,1676.4634,,,,0,34,34,34,1,25,140,,,,,,,,
,,61012d6d362a6eaa2ca78ebd,65af55b2180b766db35d6f43,2024-01-23_08h05.36.757,bars,2023.2.3,Linux x86_64,60.24096386,657b66ea316d21385b68909f,,,,,,,,,,,1676.4637,1677.4579,,,1677.9583,1678.2082,,132,132,,,,,,,,,,,,,,,,bars/015.png,bars/mask000.png,,,,,,,,,,,,1,1,,,,,,,4,8,3,9,,,,,,,,,,,1677.458,1677.9582,1678.2083,1681.2594,space,3.0393,,1681.2595,22,28,1682.2578,1682.2579,1682.2881,,,,0,35,35,35,1,110,160,,,,,,,,
,,61012d6d362a6eaa2ca78ebd,65af55b2180b766db35d6f43,2024-01-23_08h05.36.757,bars,2023.2.3,Linux x86_64,60.24096386,657b66ea316d21385b68909f,,,,,,,,,,,1682.289,1683.2912,,,1683.7955,1684.042,,124,124,,,,,,,,,,,,,,,,bars/049.png,bars/mask006.png,,,,,,,,,,,,4,2,,,,,,,6,6,8,5,,,,,,,,,,,1683.2913,1683.7954,1684.042,1687.375,space,3.3227,,1687.3751,36,9,1688.3759,1688.3761,1688.4038,,,,0,36,36,36,1,160,115,,,,,,,,
,,61012d6d362a6eaa2ca78ebd,65af55b2180b766db35d6f43,2024-01-23_08h05.36.757,bars,2023.2.3,Linux x86_64,60.24096386,657b66ea316d21385b68909f,,,,,,,,,,,1688.4042,1689.3928,,,1689.8924,1690.1445,,18,198,,,,,,,,,,,,,,,,bars/025.png,bars/mask004.png,,,,,,,,,,,,3,2,,,,,,,4,8,4,10,,,,,,,,,,,1689.3928,1689.8923,1690.1445,1697.5105,space,7.354,,1697.5106,87,22,1698.509,1698.5091,1698.5314,,,,0,37,37,37,1,105,40,,,,,,,,
,,61012d6d362a6eaa2ca78ebd,65af55b2180b766db35d6f43,2024-01-23_08h05.36.757,bars,2023.2.3,Linux x86_64,60.24096386,657b66ea316d21385b68909f,,,,,,,,,,,1698.5318,1699.5263,,,1700.0267,1700.2762,,107,107,,,,,,,,,,,,,,,,bars/041.png,bars/mask006.png,,,,,,,,,,,,1,2,,,,,,,2,6,3,5,,,,,,,,,,,1699.5264,1700.0266,1700.2763,1702.9933,space,2.7036,,1702.9933,87,22,1703.9933,1703.9934,1704.0213,,,,0,38,38,38,1,20,85,,,,,,,,
,,61012d6d362a6eaa2ca78ebd,65af55b2180b766db35d6f43,2024-01-23_08h05.36.757,bars,2023.2.3,Linux x86_64,60.24096386,657b66ea316d21385b68909f,,,,,,,,,,,1704.0219,1705.0108,,,1705.5098,1705.7596,,133,133,,,,,,,,,,,,,,,,bars/004.png,bars/mask005.png,,,,,,,,,,,,2,2,,,,,,,0,4,0,3,,,,,,,,,,,1705.0109,1705.5098,1705.7596,1709.4101,space,3.635,,1709.4102,72,8,1710.4104,1710.4104,1710.4384,,,,0,39,39,39,1,25,125,,,,,,,,
,,61012d6d362a6eaa2ca78ebd,65af55b2180b766db35d6f43,2024-01-23_08h05.36.757,bars,2023.2.3,Linux x86_64,60.24096386,657b66ea316d21385b68909f,,,,,,,,,,,1710.4395,1711.4431,,,1711.9427,1712.1938,,149,-31,,,,,,,,,,,,,,,,bars/005.png,bars/mask007.png,,,,,,,,,,,,1,2,,,,,,,2,2,1,2,,,,,,,,,,,1711.4431,1711.9427,1712.1938,1717.8778,space,5.6731,,1717.8779,41,9,1718.8787,1718.8787,1718.9071,,,,0,40,40,40,1,10,140,,,,,,,,
,,61012d6d362a6eaa2ca78ebd,65af55b2180b766db35d6f43,2024-01-23_08h05.36.757,bars,2023.2.3,Linux x86_64,60.24096386,657b66ea316d21385b68909f,,,,,,,,,,,1718.9081,1719.913,,,1720.4107,1720.6609,,105,105,,,,,,,,,,,,,,,,bars/039.png,bars/mask004.png,,,,,,,,,,,,3,2,,,,,,,4,4,4,3,,,,,,,,,,,1719.9131,1720.4106,1720.6611,1721.8277,space,1.1535,,1721.8278,70,0,1722.8285,1722.8285,1722.8303,,,,0,41,41,41,1,175,105,,,,,,,,
,,61012d6d362a6eaa2ca78ebd,65af55b2180b766db35d6f43,2024-01-23_08h05.36.757,bars,2023.2.3,Linux x86_64,60.24096386,657b66ea316d21385b68909f,,,,,,,,,,,1722.8311,1723.8285,,,1724.3283,1724.5787,,125,125,,,,,,,,,,,,,,,,bars/011.png,bars/mask005.png,,,,,,,,,,,,0,1,,,,,,,2,6,3,5,,,,,,,,,,,1723.8286,1724.3282,1724.5788,1725.3785,space,0.7846,,1725.3786,35,40,1726.3785,1726.3785,1726.3848,,,,0,42,42,42,1,160,85,,,,,,,,
,,61012d6d362a6eaa2ca78ebd,65af55b2180b766db35d6f43,2024-01-23_08h05.36.757,bars,2023.2.3,Linux x86_64,60.24096386,657b66ea316d21385b68909f,,,,,,,,,,,1726.3861,1727.378,,,1727.8786,1728.1288,,138,138,,,,,,,,,,,,,,,,bars/010.png,bars/mask004.png,,,,,,,,,,,,0,1,,,,,,,0,4,0,3,,,,,,,,,,,1727.3781,1727.8784,1728.1289,1728.8619,space,0.7176,,1728.862,27,83,1729.8637,1729.8638,1729.8658,,,,0,43,43,43,1,165,55,,,,,,,,
,,61012d6d362a6eaa2ca78ebd,65af55b2180b766db35d6f43,2024-01-23_08h05.36.757,bars,2023.2.3,Linux x86_64,60.24096386,657b66ea316d21385b68909f,,,,,,,,,,,1729.8667,1730.8617,,,1731.3625,1731.6116,,70,70,,,,,,,,,,,,,,,,bars/029.png,bars/mask002.png,,,,,,,,,,,,0,1,,,,,,,2,2,0,2,,,,,,,,,,,1730.8618,1731.3625,1731.6117,1735.3791,space,3.7528,,1735.3791,20,25,1736.3795,1736.3796,1736.4015,,,,0,44,44,44,1,90,45,,,,,,,,
,,61012d6d362a6eaa2ca78ebd,65af55b2180b766db35d6f43,2024-01-23_08h05.36.757,bars,2023.2.3,Linux x86_64,60.24096386,657b66ea316d21385b68909f,,,,,,,,,,,1736.4019,1737.396,,,1737.8959,1738.1451,,148,148,,,,,,,,,,,,,,,,bars/033.png,bars/mask001.png,,,,,,,,,,,,1,2,,,,,,,4,0,5,1,,,,,,,,,,,1737.3961,1737.8958,1738.1451,1742.946,space,4.7867,,1742.9461,57,7,1743.9458,1743.9471,1743.9776,,,,0,45,45,45,1,25,155,,,,,,,,
,,61012d6d362a6eaa2ca78ebd,65af55b2180b766db35d6f43,2024-01-23_08h05.36.757,bars,2023.2.3,Linux x86_64,60.24096386,657b66ea316d21385b68909f,,,,,,,,,,,1743.9784,1744.9794,,,1745.4805,1745.7294,,74,74,,,,,,,,,,,,,,,,bars/039.png,bars/mask002.png,,,,,,,,,,,,0,2,,,,,,,2,0,2,1,,,,,,,,,,,1744.9794,1745.4804,1745.7295,1751.2475,space,5.5023,,1751.2476,79,31,1752.2476,1752.2476,1752.2756,,,,0,46,46,46,1,175,105,,,,,,,,
,,61012d6d362a6eaa2ca78ebd,65af55b2180b766db35d6f43,2024-01-23_08h05.36.757,bars,2023.2.3,Linux x86_64,60.24096386,657b66ea316d21385b68909f,,,,,,,,,,,1752.2762,1753.2641,,,1753.7641,1754.0137,,109,109,,,,,,,,,,,,,,,,bars/041.png,bars/mask004.png,,,,,,,,,,,,0,2,,,,,,,0,2,1,2,,,,,,,,,,,1753.2641,1753.764,1754.0139,1758.6983,space,4.6692,,1758.6985,89,24,1759.6972,1759.6973,1759.726,,,,0,47,47,47,1,20,85,,,,,,,,
,,61012d6d362a6eaa2ca78ebd,65af55b2180b766db35d6f43,2024-01-23_08h05.36.757,bars,2023.2.3,Linux x86_64,60.24096386,657b66ea316d21385b68909f,,,,,,,,,,,1759.7269,1760.7308,,,1761.2307,1761.4801,,115,115,,,,,,,,,,,,,,,,bars/047.png,bars/mask003.png,,,,,,,,,,,,0,2,,,,,,,2,0,2,0,,,,,,,,,,,1760.7309,1761.2306,1761.4801,1767.3651,space,5.8739,,1767.3652,80,45,1768.3646,1768.3647,1768.3942,,,,0,48,48,48,1,15,70,,,,,,,,
,,61012d6d362a6eaa2ca78ebd,65af55b2180b766db35d6f43,2024-01-23_08h05.36.757,bars,2023.2.3,Linux x86_64,60.24096386,657b66ea316d21385b68909f,,,,,,,,,,,1768.3949,1769.3977,,,1769.9001,1770.1485,,127,127,,,,,,,,,,,,,,,,bars/023.png,bars/mask003.png,,,,,,,,,,,,0,2,,,,,,,4,0,4,0,,,,,,,,,,,1769.3978,1769.9,1770.1486,1777.3324,space,7.1716,,1777.3324,73,12,1778.3316,1778.3317,1778.3513,,,,0,49,49,49,1,20,115,,,,,,,,
,,61012d6d362a6eaa2ca78ebd,65af55b2180b766db35d6f43,2024-01-23_08h05.36.757,bars,2023.2.3,Linux x86_64,60.24096386,657b66ea316d21385b68909f,,,,,,,,,,,,,,,,,,,,,,,,,,,,,,,,,,,,,,,,,,,,,,,,,,,,,,,,,,,,,,,,,,,,,,,,,,,,,,,,,,,,,,,,,,,,,1778.3516,1838.3534,0,3,3,0,1,sequence_tables/blk001.csv
,,61012d6d362a6eaa2ca78ebd,65af55b2180b766db35d6f43,2024-01-23_08h05.36.757,bars,2023.2.3,Linux x86_64,60.24096386,657b66ea316d21385b68909f,,,,,,,,,,,1908.348,1909.3241,,,1909.8232,1910.0741,,39,39,,,,,,,,,,,,,,,,bars/047.png,bars/mask000.png,,,,,,,,,,,,1,1,,,,,,,5,5,5,6,,,,,,1838.3767,1908.3084,space,69.9177,,1909.3242,1909.8232,1910.0742,1913.1912,space,3.1031,,1913.1914,24,31,1914.1918,1914.1919,1914.2223,,,,0,0,0,0,1,15,70,,,,,,,,
,,61012d6d362a6eaa2ca78ebd,65af55b2180b766db35d6f43,2024-01-23_08h05.36.757,bars,2023.2.3,Linux x86_64,60.24096386,657b66ea316d21385b68909f,,,,,,,,,,,1914.2237,1915.2254,,,1915.7251,1915.9768,,142,142,,,,,,,,,,,,,,,,bars/008.png,bars/mask006.png,,,,,,,,,,,,0,1,,,,,,,3,3,1,3,,,,,,,,,,,1915.2255,1915.7249,1915.977,1918.9097,space,2.9212,,1918.9099,32,38,1919.908,1919.9081,1919.9357,,,,0,1,1,1,1,110,0,,,,,,,,
,,61012d6d362a6eaa2ca78ebd,65af55b2180b766db35d6f43,2024-01-23_08h05.36.757,bars,2023.2.3,Linux x86_64,60.24096386,657b66ea316d21385b68909f,,,,,,,,,,,1919.9365,1920.9255,,,1921.4265,1921.6769,,106,106,,,,,,,,,,,,,,,,bars/034.png,bars/mask007.png,,,,,,,,,,,,1,1,,,,,,,1,5,2,7,,,,,,,,,,,1920.9255,1921.4264,1921.677,1923.0414,space,1.3528,,1923.0414,19,41,1924.0416,1924.0417,1924.0431,,,,0,2,2,2,1,125,65,,,,,,,,
,,61012d6d362a6eaa2ca78ebd,65af55b2180b766db35d6f43,2024-01-23_08h05.36.757,bars,2023.2.3,Linux x86_64,60.24096386,657b66ea316d21385b68909f,,,,,,,,,,,1924.0438,1925.0413,,,1925.5431,1925.7927,,155,155,,,,,,,,,,,,,,,,bars/000.png,bars/mask008.png,,,,,,,,,,,,6,2,,,,,,,0,7,0,9,,,,,,,,,,,1925.0414,1925.5431,1925.7927,1930.4095,space,4.6029,,1930.4096,65,10,1931.4085,1931.4086,1931.4395,,,,0,3,3,3,1,40,145,,,,,,,,
,,61012d6d362a6eaa2ca78ebd,65af55b2180b766db35d6f43,2024-01-23_08h05.36.757,bars,2023.2.3,Linux x86_64,60.24096386,657b66ea316d21385b68909f,,,,,,,,,,,1931.4404,1932.442,,,1932.9422,1933.1925,,71,71,,,,,,,,,,,,,,,,bars/041.png,bars/mask005.png,,,,,,,,,,,,2,2,,,,,,,0,5,2,4,,,,,,,,,,,1932.442,1932.9421,1933.1926,1940.1458,space,6.9395,,1940.146,51,14,1941.1451,1941.1451,1941.1756,,,,0,4,4,4,1,20,85,,,,,,,,
,,61012d6d362a6eaa2ca78ebd,65af55b2180b766db35d6f43,2024-01-23_08h05.36.757,bars,2023.2.3,Linux x86_64,60.24096386,657b66ea316d21385b68909f,,,,,,,,,,,1941.1762,1942.1783,,,1942.6774,1942.9269,,146,146,,,,,,,,,,,,,,,,bars/022.png,bars/mask006.png,,,,,,,,,,,,0,1,,,,,,,2,7,3,8,,,,,,,,,,,1942.1784,1942.6774,1942.927,1946.1296,space,3.19,,1946.1298,51,54,1947.1283,1947.1284,1947.157,,,,0,5,5,5,1,95,20,,,,,,,,
,,61012d6d362a6eaa2ca78ebd,65af55b2180b766db35d6f43,2024-01-23_08h05.36.757,bars,2023.2.3,Linux x86_64,60.24096386,657b66ea316d21385b68909f,,,,,,,,,,,1947.1577,1948.1621,,,1948.66,1948.9108,,107,107,,,,,,,,,,,,,,,,bars/041.png,bars/mask005.png,,,,,,,,,,,,3,2,,,,,,,4,9,4,10,,,,,,,,,,,1948.1622,1948.66,1948.9109,1950.1441,space,1.2183,,1950.1449,87,22,1951.1436,1951.1436,1951.1497,,,,0,6,6,6,1,20,85,,,,,,,,
,,61012d6d362a6eaa2ca78ebd,65af55b2180b766db35d6f43,2024-01-23_08h05.36.757,bars,2023.2.3,Linux x86_64,60.24096386,657b66ea316d21385b68909f,,,,,,,,,,,1951.1507,1952.1444,,,1952.6455,1952.8933,,40,40,,,,,,,,,,,,,,,,bars/043.png,bars/mask003.png,,,,,,,,,,,,1,1,,,,,,,2,10,1,9,,,,,,,,,,,1952.1445,1952.6454,1952.8933,1954.8772,space,1.9712,,1954.8772,10,90,1955.8768,1955.8769,1955.9077,,,,0,7,7,7,1,30,130,,,,,,,,
