init_variables.started,init_variables.stopped,participant,session,date,expName,psychopyVersion,OS,frameRate,study_id,instruction_exp.started,instruction_exp.stopped,key_resp_8.keys,key_resp_8.rt,key_resp_8.duration,instruction_single.started,instruction_single.stopped,key_resp_2.keys,key_resp_2.rt,key_resp_2.duration,interval.started,interval.stopped,cue_single.started,cue_single.stopped,mask.started,mask.stopped,ori_response_single.started,res_ori,res,ori_response_single.stopped,key_resp_single.keys,key_resp_single.rt,key_resp_single.duration,disp_single.started,disp_single.stopped,key_resp.keys,key_resp.rt,key_resp.duration,single.thisRepN,single.thisTrialN,single.thisN,single.thisIndex,single.ran,ori,path,mask_path,instruction_bandit.started,instruction_bandit.stopped,key_resp_6.keys,key_resp_6.rt,key_resp_6.duration,cue_bandit.started,cue_bandit.stopped,bandit_res.keys,bandit_res.rt,bandit_res.duration,outcome_bandit.started,rew,action,outcome_bandit.stopped,bandit.thisRepN,bandit.thisTrialN,bandit.thisN,bandit.thisIndex,bandit.ran,actual_rew1,actual_rew2,rew1,rew2,instruction_task.started,instruction_task.stopped,key_resp_7.keys,key_resp_7.rt,key_resp_7.duration,wait_ready.started,wait_ready.stopped,key_resp_3.keys,key_resp_3.rt,key_resp_3.duration,cue.started,cue.stopped,ori_response.started,ori_response.stopped,key_resp_5.keys,key_resp_5.rt,key_resp_5.duration,outcome.started,diff1,diff2,outcome.stopped,disp_outcome_practice.started,disp_outcome_practice.stopped,key_resp_4.keys,key_resp_4.rt,key_resp_4.duration,trials.thisRepN,trials.thisTrialN,trials.thisN,trials.thisIndex,trials.ran,ori1,ori2,break_blk.started,break_blk.stopped,block.thisRepN,block.thisTrialN,block.thisN,block.thisIndex,block.ran,condition_file
0.0003,0.0005,64fead10d35271cb8eafc1c2,65af55813f5fcc7f4ffca798,2024-01-23_08h11.10.299,bars,2023.2.3,Win32,60.24096386,657b66ea316d21385b68909f,,,,,,,,,,,,,,,,,,,,,,,,,,,,,,,,,,,,,,,,,,,,,,,,,,,,,,,,,,,,,,,,,,,,,,,,,,,,,,,,,,,,,,,,,,,,,,,,,,,,
,,64fead10d35271cb8eafc1c2,65af55813f5fcc7f4ffca798,2024-01-23_08h11.10.299,bars,2023.2.3,Win32,60.24096386,657b66ea316d21385b68909f,0.0006,16.4259,y,16.4115,,,,,,,,,,,,,,,,,,,,,,,,,,,,,,,,,,,,,,,,,,,,,,,,,,,,,,,,,,,,,,,,,,,,,,,,,,,,,,,,,,,,,,,,,,,,,,,,
,,64fead10d35271cb8eafc1c2,65af55813f5fcc7f4ffca798,2024-01-23_08h11.10.299,bars,2023.2.3,Win32,60.24096386,657b66ea316d21385b68909f,,,,,,16.426,278.9465,space,262.5031,,,,,,,,,,,,,,,,,,,,,,,,,,,,,,,,,,,,,,,,,,,,,,,,,,,,,,,,,,,,,,,,,,,,,,,,,,,,,,,,,,,,,,,,,,,
,,64fead10d35271cb8eafc1c2,65af55813f5fcc7f4ffca798,2024-01-23_08h11.10.299,bars,2023.2.3,Win32,60.24096386,657b66ea316d21385b68909f,,,,,,,,,,,278.9695,279.9569,279.9571,280.4641,280.4642,280.703,280.7034,0,180,290.512,space,9.7775,,290.5122,328.8215,space,38.2764,,0,0,0,1,1,20,bars/single001.png,bars/mask006.png,,,,,,,,,,,,,,,,,,,,,,,,,,,,,,,,,,,,,,,,,,,,,,,,,,,,,,,,,,,,,,,,
,,64fead10d35271cb8eafc1c2,65af55813f5fcc7f4ffca798,2024-01-23_08h11.10.299,bars,2023.2.3,Win32,60.24096386,657b66ea316d21385b68909f,,,,,,,,,,,328.8353,329.8234,329.8234,330.3216,330.3216,330.5777,330.5778,34,34,339.3823,space,8.7948,,339.3823,343.5475,space,4.1443,,0,1,1,6,1,175,bars/single006.png,bars/mask005.png,,,,,,,,,,,,,,,,,,,,,,,,,,,,,,,,,,,,,,,,,,,,,,,,,,,,,,,,,,,,,,,,
,,64fead10d35271cb8eafc1c2,65af55813f5fcc7f4ffca798,2024-01-23_08h11.10.299,bars,2023.2.3,Win32,60.24096386,657b66ea316d21385b68909f,,,,,,,,,,,343.5613,344.5665,344.5666,345.0479,345.048,345.2946,345.2946,174,174,352.5087,space,7.1898,,352.5089,359.0763,space,6.5489,,0,2,2,5,1,55,bars/single005.png,bars/mask008.png,,,,,,,,,,,,,,,,,,,,,,,,,,,,,,,,,,,,,,,,,,,,,,,,,,,,,,,,,,,,,,,,
,,64fead10d35271cb8eafc1c2,65af55813f5fcc7f4ffca798,2024-01-23_08h11.10.299,bars,2023.2.3,Win32,60.24096386,657b66ea316d21385b68909f,,,,,,,,,,,359.092,360.078,360.078,360.5818,360.5818,360.8227,360.8227,35,35,362.288,space,1.4582,,362.288,390.8759,space,28.5726,,0,3,3,3,1,20,bars/single003.png,bars/mask005.png,,,,,,,,,,,,,,,,,,,,,,,,,,,,,,,,,,,,,,,,,,,,,,,,,,,,,,,,,,,,,,,,
,,64fead10d35271cb8eafc1c2,65af55813f5fcc7f4ffca798,2024-01-23_08h11.10.299,bars,2023.2.3,Win32,60.24096386,657b66ea316d21385b68909f,,,,,,,,,,,390.8889,391.8879,391.888,392.3858,392.3858,392.6352,392.6353,38,218,397.3225,space,4.6805,,397.3225,409.9478,space,12.6039,,0,4,4,9,1,20,bars/single009.png,bars/mask006.png,,,,,,,,,,,,,,,,,,,,,,,,,,,,,,,,,,,,,,,,,,,,,,,,,,,,,,,,,,,,,,,,
,,64fead10d35271cb8eafc1c2,65af55813f5fcc7f4ffca798,2024-01-23_08h11.10.299,bars,2023.2.3,Win32,60.24096386,657b66ea316d21385b68909f,,,,,,,,,,,409.9627,410.9279,410.9279,411.42,411.42,411.6374,411.6374,151,151,416.3495,space,4.6999,,416.3497,421.1574,space,4.7895,,0,5,5,0,1,150,bars/single000.png,bars/mask006.png,,,,,,,,,,,,,,,,,,,,,,,,,,,,,,,,,,,,,,,,,,,,,,,,,,,,,,,,,,,,,,,,
,,64fead10d35271cb8eafc1c2,65af55813f5fcc7f4ffca798,2024-01-23_08h11.10.299,bars,2023.2.3,Win32,60.24096386,657b66ea316d21385b68909f,,,,,,,,,,,421.1717,422.1735,422.1736,422.6804,422.6805,422.9207,422.9208,87,87,426.6373,space,3.7106,,426.6374,430.1895,space,3.4797,,0,6,6,4,1,95,bars/single004.png,bars/mask004.png,,,,,,,,,,,,,,,,,,,,,,,,,,,,,,,,,,,,,,,,,,,,,,,,,,,,,,,,,,,,,,,,
,,64fead10d35271cb8eafc1c2,65af55813f5fcc7f4ffca798,2024-01-23_08h11.10.299,bars,2023.2.3,Win32,60.24096386,657b66ea316d21385b68909f,,,,,,,,,,,430.2025,431.2014,431.2014,431.6991,431.6991,431.9484,431.9484,43,43,437.0261,space,5.0597,,437.0262,441.5397,space,4.4955,,0,7,7,7,1,45,bars/single007.png,bars/mask009.png,,,,,,,,,,,,,,,,,,,,,,,,,,,,,,,,,,,,,,,,,,,,,,,,,,,,,,,,,,,,,,,,
,,64fead10d35271cb8eafc1c2,65af55813f5fcc7f4ffca798,2024-01-23_08h11.10.299,bars,2023.2.3,Win32,60.24096386,657b66ea316d21385b68909f,,,,,,,,,,,441.5509,442.5563,442.5564,443.0498,443.0499,443.288,443.2881,134,134,447.5316,space,4.2085,,447.5316,449.6713,space,2.1027,,0,8,8,2,1,145,bars/single002.png,bars/mask003.png,,,,,,,,,,,,,,,,,,,,,,,,,,,,,,,,,,,,,,,,,,,,,,,,,,,,,,,,,,,,,,,,
,,64fead10d35271cb8eafc1c2,65af55813f5fcc7f4ffca798,2024-01-23_08h11.10.299,bars,2023.2.3,Win32,60.24096386,657b66ea316d21385b68909f,,,,,,,,,,,449.6721,450.6672,450.6672,451.1646,451.1647,451.4136,451.4137,168,168,455.2142,space,3.7921,,455.2143,457.4216,space,2.1814,,0,9,9,8,1,160,bars/single008.png,bars/mask004.png,,,,,,,,,,,,,,,,,,,,,,,,,,,,,,,,,,,,,,,,,,,,,,,,,,,,,,,,,,,,,,,,
,,64fead10d35271cb8eafc1c2,65af55813f5fcc7f4ffca798,2024-01-23_08h11.10.299,bars,2023.2.3,Win32,60.24096386,657b66ea316d21385b68909f,,,,,,,,,,,,,,,,,,,,,,,,,,,,,,,,,,,,,457.4233,545.0768,space,87.6244,,,,,,,,,,,,,,,,,,,,,,,,,,,,,,,,,,,,,,,,,,,,,,,,,,,,,,,,,,,,
,,64fead10d35271cb8eafc1c2,65af55813f5fcc7f4ffca798,2024-01-23_08h11.10.299,bars,2023.2.3,Win32,60.24096386,657b66ea316d21385b68909f,,,,,,,,,,,,,,,,,,,,,,,,,,,,,,,,,,,,,,,,,,545.0926,547.2084,right,2.105,,547.2087,2,2,548.2119,0,0,0,0,1,9,1,9,2,,,,,,,,,,,,,,,,,,,,,,,,,,,,,,,,,,,,,,,,,
,,64fead10d35271cb8eafc1c2,65af55813f5fcc7f4ffca798,2024-01-23_08h11.10.299,bars,2023.2.3,Win32,60.24096386,657b66ea316d21385b68909f,,,,,,,,,,,,,,,,,,,,,,,,,,,,,,,,,,,,,,,,,,548.2125,550.7669,right,2.5409,,550.767,1,2,551.752,0,1,1,1,1,10,0,10,1,,,,,,,,,,,,,,,,,,,,,,,,,,,,,,,,,,,,,,,,,
,,64fead10d35271cb8eafc1c2,65af55813f5fcc7f4ffca798,2024-01-23_08h11.10.299,bars,2023.2.3,Win32,60.24096386,657b66ea316d21385b68909f,,,,,,,,,,,,,,,,,,,,,,,,,,,,,,,,,,,,,,,,,,551.7628,553.1239,right,1.3194,,553.124,2,2,554.1192,0,2,2,2,1,10,2,10,2,,,,,,,,,,,,,,,,,,,,,,,,,,,,,,,,,,,,,,,,,
,,64fead10d35271cb8eafc1c2,65af55813f5fcc7f4ffca798,2024-01-23_08h11.10.299,bars,2023.2.3,Win32,60.24096386,657b66ea316d21385b68909f,,,,,,,,,,,,,,,,,,,,,,,,,,,,,,,,,,,,,,,,,,554.1197,554.9158,right,0.7781,,554.916,3,2,555.9111,0,3,3,3,1,8,4,7,3,,,,,,,,,,,,,,,,,,,,,,,,,,,,,,,,,,,,,,,,,
,,64fead10d35271cb8eafc1c2,65af55813f5fcc7f4ffca798,2024-01-23_08h11.10.299,bars,2023.2.3,Win32,60.24096386,657b66ea316d21385b68909f,,,,,,,,,,,,,,,,,,,,,,,,,,,,,,,,,,,,,,,,,,555.912,556.6247,right,0.7078,,556.6248,1,2,557.6205,0,4,4,4,1,6,2,5,1,,,,,,,,,,,,,,,,,,,,,,,,,,,,,,,,,,,,,,,,,
,,64fead10d35271cb8eafc1c2,65af55813f5fcc7f4ffca798,2024-01-23_08h11.10.299,bars,2023.2.3,Win32,60.24096386,657b66ea316d21385b68909f,,,,,,,,,,,,,,,,,,,,,,,,,,,,,,,,,,,,,,,,,,557.6208,560.7905,left,3.1538,,560.7907,4,1,561.7857,0,5,5,5,1,4,4,4,4,,,,,,,,,,,,,,,,,,,,,,,,,,,,,,,,,,,,,,,,,
,,64fead10d35271cb8eafc1c2,65af55813f5fcc7f4ffca798,2024-01-23_08h11.10.299,bars,2023.2.3,Win32,60.24096386,657b66ea316d21385b68909f,,,,,,,,,,,,,,,,,,,,,,,,,,,,,,,,,,,,,,,,,,561.7952,562.601,left,0.7969,,562.6011,1,1,563.5945,0,6,6,6,1,2,2,1,2,,,,,,,,,,,,,,,,,,,,,,,,,,,,,,,,,,,,,,,,,
,,64fead10d35271cb8eafc1c2,65af55813f5fcc7f4ffca798,2024-01-23_08h11.10.299,bars,2023.2.3,Win32,60.24096386,657b66ea316d21385b68909f,,,,,,,,,,,,,,,,,,,,,,,,,,,,,,,,,,,,,,,,,,563.5952,565.2708,right,1.6592,,565.2709,1,2,566.2668,0,7,7,7,1,0,0,0,1,,,,,,,,,,,,,,,,,,,,,,,,,,,,,,,,,,,,,,,,,
,,64fead10d35271cb8eafc1c2,65af55813f5fcc7f4ffca798,2024-01-23_08h11.10.299,bars,2023.2.3,Win32,60.24096386,657b66ea316d21385b68909f,,,,,,,,,,,,,,,,,,,,,,,,,,,,,,,,,,,,,,,,,,566.2671,570.0835,left,3.7887,,570.0835,1,1,571.0789,0,8,8,8,1,0,2,1,0,,,,,,,,,,,,,,,,,,,,,,,,,,,,,,,,,,,,,,,,,
,,64fead10d35271cb8eafc1c2,65af55813f5fcc7f4ffca798,2024-01-23_08h11.10.299,bars,2023.2.3,Win32,60.24096386,657b66ea316d21385b68909f,,,,,,,,,,,,,,,,,,,,,,,,,,,,,,,,,,,,,,,,,,571.0899,571.5914,right,0.4978,,571.5914,3,2,572.5889,0,9,9,9,1,2,4,2,3,,,,,,,,,,,,,,,,,,,,,,,,,,,,,,,,,,,,,,,,,
,,64fead10d35271cb8eafc1c2,65af55813f5fcc7f4ffca798,2024-01-23_08h11.10.299,bars,2023.2.3,Win32,60.24096386,657b66ea316d21385b68909f,,,,,,,,,,,,,,,,,,,,,,,,,,,,,,,,,,,,,,,,,,572.5895,573.1036,right,0.503,,573.1037,3,2,574.1062,0,10,10,10,1,0,2,0,3,,,,,,,,,,,,,,,,,,,,,,,,,,,,,,,,,,,,,,,,,
,,64fead10d35271cb8eafc1c2,65af55813f5fcc7f4ffca798,2024-01-23_08h11.10.299,bars,2023.2.3,Win32,60.24096386,657b66ea316d21385b68909f,,,,,,,,,,,,,,,,,,,,,,,,,,,,,,,,,,,,,,,,,,574.1065,574.6303,right,0.5157,,574.6304,3,2,575.6295,0,11,11,11,1,0,4,0,3,,,,,,,,,,,,,,,,,,,,,,,,,,,,,,,,,,,,,,,,,
,,64fead10d35271cb8eafc1c2,65af55813f5fcc7f4ffca798,2024-01-23_08h11.10.299,bars,2023.2.3,Win32,60.24096386,657b66ea316d21385b68909f,,,,,,,,,,,,,,,,,,,,,,,,,,,,,,,,,,,,,,,,,,575.6303,577.8332,left,2.1717,,577.8333,1,1,578.8291,0,12,12,12,1,2,6,1,6,,,,,,,,,,,,,,,,,,,,,,,,,,,,,,,,,,,,,,,,,
,,64fead10d35271cb8eafc1c2,65af55813f5fcc7f4ffca798,2024-01-23_08h11.10.299,bars,2023.2.3,Win32,60.24096386,657b66ea316d21385b68909f,,,,,,,,,,,,,,,,,,,,,,,,,,,,,,,,,,,,,,,,,,578.8295,579.3775,right,0.5365,,579.3775,3,2,580.372,0,13,13,13,1,0,4,1,3,,,,,,,,,,,,,,,,,,,,,,,,,,,,,,,,,,,,,,,,,
,,64fead10d35271cb8eafc1c2,65af55813f5fcc7f4ffca798,2024-01-23_08h11.10.299,bars,2023.2.3,Win32,60.24096386,657b66ea316d21385b68909f,,,,,,,,,,,,,,,,,,,,,,,,,,,,,,,,,,,,,,,,,,580.3724,580.7585,right,0.3789,,580.7586,7,2,581.7492,0,14,14,14,1,2,6,2,7,,,,,,,,,,,,,,,,,,,,,,,,,,,,,,,,,,,,,,,,,
,,64fead10d35271cb8eafc1c2,65af55813f5fcc7f4ffca798,2024-01-23_08h11.10.299,bars,2023.2.3,Win32,60.24096386,657b66ea316d21385b68909f,,,,,,,,,,,,,,,,,,,,,,,,,,,,,,,,,,,,,,,,,,581.7499,582.2146,right,0.45,,582.2148,9,2,583.211,0,15,15,15,1,4,8,3,9,,,,,,,,,,,,,,,,,,,,,,,,,,,,,,,,,,,,,,,,,
,,64fead10d35271cb8eafc1c2,65af55813f5fcc7f4ffca798,2024-01-23_08h11.10.299,bars,2023.2.3,Win32,60.24096386,657b66ea316d21385b68909f,,,,,,,,,,,,,,,,,,,,,,,,,,,,,,,,,,,,,,,,,,583.2115,583.5924,right,0.368,,583.5925,7,2,584.5876,0,16,16,16,1,6,6,7,7,,,,,,,,,,,,,,,,,,,,,,,,,,,,,,,,,,,,,,,,,
,,64fead10d35271cb8eafc1c2,65af55813f5fcc7f4ffca798,2024-01-23_08h11.10.299,bars,2023.2.3,Win32,60.24096386,657b66ea316d21385b68909f,,,,,,,,,,,,,,,,,,,,,,,,,,,,,,,,,,,,,,,,,,584.5899,584.9406,right,0.3362,,584.9408,5,2,585.9343,0,17,17,17,1,8,4,9,5,,,,,,,,,,,,,,,,,,,,,,,,,,,,,,,,,,,,,,,,,
,,64fead10d35271cb8eafc1c2,65af55813f5fcc7f4ffca798,2024-01-23_08h11.10.299,bars,2023.2.3,Win32,60.24096386,657b66ea316d21385b68909f,,,,,,,,,,,,,,,,,,,,,,,,,,,,,,,,,,,,,,,,,,585.9349,586.2799,right,0.3288,,586.2799,1,2,587.2754,0,18,18,18,1,6,2,5,1,,,,,,,,,,,,,,,,,,,,,,,,,,,,,,,,,,,,,,,,,
,,64fead10d35271cb8eafc1c2,65af55813f5fcc7f4ffca798,2024-01-23_08h11.10.299,bars,2023.2.3,Win32,60.24096386,657b66ea316d21385b68909f,,,,,,,,,,,,,,,,,,,,,,,,,,,,,,,,,,,,,,,,,,587.2764,587.6594,left,0.3777,,587.6594,7,1,588.6369,0,19,19,19,1,8,0,7,0,,,,,,,,,,,,,,,,,,,,,,,,,,,,,,,,,,,,,,,,,
,,64fead10d35271cb8eafc1c2,65af55813f5fcc7f4ffca798,2024-01-23_08h11.10.299,bars,2023.2.3,Win32,60.24096386,657b66ea316d21385b68909f,,,,,,,,,,,,,,,,,,,,,,,,,,,,,,,,,,,,,,,,,,,,,,,,,,,,,,,,,,,,588.638,677.3209,space,88.6497,,,,,,,,,,,,,,,,,,,,,,,,,,,,,,,,,,,,,
,,64fead10d35271cb8eafc1c2,65af55813f5fcc7f4ffca798,2024-01-23_08h11.10.299,bars,2023.2.3,Win32,60.24096386,657b66ea316d21385b68909f,,,,,,,,,,,680.7997,681.7998,,,682.2982,682.5529,,150,150,,,,,,,,,,,,,,,,bars/010.png,bars/mask007.png,,,,,,,,,,,,4,1,,,,,,,9,9,7,10,,,,,,677.3416,680.7888,space,3.4188,,681.8001,682.298,682.5543,688.903,space,6.3101,,688.9034,15,85,689.8978,689.8981,705.1829,space,15.2631,,0,0,0,0,1,165,55,,,,,,,,
,,64fead10d35271cb8eafc1c2,65af55813f5fcc7f4ffca798,2024-01-23_08h11.10.299,bars,2023.2.3,Win32,60.24096386,657b66ea316d21385b68909f,,,,,,,,,,,705.193,706.1938,,,706.696,706.9483,,169,169,,,,,,,,,,,,,,,,bars/033.png,bars/mask007.png,,,,,,,,,,,,5,2,,,,,,,7,10,7,10,,,,,,,,,,,706.1938,706.6958,706.9483,713.2968,space,6.3355,,713.2972,36,14,714.2923,714.2925,731.2227,space,16.906,,0,1,1,1,1,25,155,,,,,,,,
,,64fead10d35271cb8eafc1c2,65af55813f5fcc7f4ffca798,2024-01-23_08h11.10.299,bars,2023.2.3,Win32,60.24096386,657b66ea316d21385b68909f,,,,,,,,,,,731.2319,732.2315,,,732.729,732.9788,,19,19,,,,,,,,,,,,,,,,bars/032.png,bars/mask006.png,,,,,,,,,,,,8,2,,,,,,,9,8,9,8,,,,,,,,,,,732.2315,732.729,732.9789,739.9976,space,6.9689,,739.9977,74,1,740.9932,740.9933,744.7773,space,3.7369,,0,2,2,2,1,125,20,,,,,,,,
,,64fead10d35271cb8eafc1c2,65af55813f5fcc7f4ffca798,2024-01-23_08h11.10.299,bars,2023.2.3,Win32,60.24096386,657b66ea316d21385b68909f,,,,,,,,,,,744.7778,745.7731,,,746.2537,746.5027,,140,140,,,,,,,,,,,,,,,,bars/035.png,bars/mask000.png,,,,,,,,,,,,0,1,,,,,,,10,6,8,7,,,,,,,,,,,745.7732,746.2537,746.5027,750.9197,space,4.403,,750.92,35,80,751.9124,751.9126,759.2918,space,7.3574,,0,3,3,3,1,175,60,,,,,,,,
,,64fead10d35271cb8eafc1c2,65af55813f5fcc7f4ffca798,2024-01-23_08h11.10.299,bars,2023.2.3,Win32,60.24096386,657b66ea316d21385b68909f,,,,,,,,,,,759.3029,760.294,,,760.7908,761.0397,,62,62,,,,,,,,,,,,,,,,bars/044.png,bars/mask003.png,,,,,,,,,,,,5,1,,,,,,,10,4,9,4,,,,,,,,,,,760.2942,760.7908,761.0397,764.6468,space,3.6011,,764.6468,13,87,765.6367,765.6367,776.1741,space,10.5177,,0,4,4,4,1,75,155,,,,,,,,
,,64fead10d35271cb8eafc1c2,65af55813f5fcc7f4ffca798,2024-01-23_08h11.10.299,bars,2023.2.3,Win32,60.24096386,657b66ea316d21385b68909f,,,,,,,,,,,776.1844,777.1917,,,777.6843,777.9341,,56,56,,,,,,,,,,,,,,,,bars/041.png,bars/mask004.png,,,,,,,,,,,,0,2,,,,,,,8,2,8,3,,,,,,,,,,,777.1919,777.6843,777.9343,783.3267,space,5.3828,,783.3268,36,29,784.3226,784.3227,795.4248,space,11.0723,,0,5,5,5,1,20,85,,,,,,,,
,,64fead10d35271cb8eafc1c2,65af55813f5fcc7f4ffca798,2024-01-23_08h11.10.299,bars,2023.2.3,Win32,60.24096386,657b66ea316d21385b68909f,,,,,,,,,,,795.4371,796.4133,,,796.9119,797.15,,132,132,,,,,,,,,,,,,,,,bars/011.png,bars/mask007.png,,,,,,,,,,,,0,1,,,,,,,6,4,6,4,,,,,,,,,,,796.4133,796.9118,797.1501,800.1753,space,3.0181,,800.1755,28,47,801.166,801.166,811.5903,space,10.3923,,0,6,6,6,1,160,85,,,,,,,,
,,64fead10d35271cb8eafc1c2,65af55813f5fcc7f4ffca798,2024-01-23_08h11.10.299,bars,2023.2.3,Win32,60.24096386,657b66ea316d21385b68909f,,,,,,,,,,,811.6044,812.6014,,,813.0989,813.3466,,25,205,,,,,,,,,,,,,,,,bars/048.png,bars/mask000.png,,,,,,,,,,,,1,1,,,,,,,8,6,9,6,,,,,,,,,,,812.6015,813.0989,813.3466,818.159,space,4.7943,,818.1591,25,30,819.1552,819.1552,821.4193,space,2.2372,,0,7,7,7,1,50,175,,,,,,,,
,,64fead10d35271cb8eafc1c2,65af55813f5fcc7f4ffca798,2024-01-23_08h11.10.299,bars,2023.2.3,Win32,60.24096386,657b66ea316d21385b68909f,,,,,,,,,,,821.4196,822.4239,,,822.9221,823.1814,,70,70,,,,,,,,,,,,,,,,bars/034.png,bars/mask005.png,,,,,,,,,,,,7,2,,,,,,,10,8,10,8,,,,,,,,,,,822.424,822.9221,823.1814,827.4521,space,4.2591,,827.4522,55,5,828.4481,828.4482,856.4271,space,27.9256,,0,8,8,8,1,125,65,,,,,,,,
,,64fead10d35271cb8eafc1c2,65af55813f5fcc7f4ffca798,2024-01-23_08h11.10.299,bars,2023.2.3,Win32,60.24096386,657b66ea316d21385b68909f,,,,,,,,,,,856.4394,857.439,,,857.9536,858.1888,,11,11,,,,,,,,,,,,,,,,bars/007.png,bars/mask003.png,,,,,,,,,,,,3,1,,,,,,,8,10,6,10,,,,,,,,,,,857.4391,857.9534,858.1889,858.6505,space,0.4488,,858.6506,16,44,859.6461,859.6462,866.6082,space,6.9507,,0,9,9,9,1,175,55,,,,,,,,
,,64fead10d35271cb8eafc1c2,65af55813f5fcc7f4ffca798,2024-01-23_08h11.10.299,bars,2023.2.3,Win32,60.24096386,657b66ea316d21385b68909f,,,,,,,,,,,866.6231,867.6118,,,868.1096,868.3522,,41,221,,,,,,,,,,,,,,,,bars/019.png,bars/mask006.png,,,,,,,,,,,,9,1,,,,,,,10,10,10,10,,,,,,,,,,,867.6118,868.1095,868.3523,891.0947,space,22.7362,,891.0948,4,64,892.0933,892.0933,904.7905,space,12.6767,,0,10,10,10,1,45,105,,,,,,,,
,,64fead10d35271cb8eafc1c2,65af55813f5fcc7f4ffca798,2024-01-23_08h11.10.299,bars,2023.2.3,Win32,60.24096386,657b66ea316d21385b68909f,,,,,,,,,,,904.8082,905.7962,,,906.2942,906.5433,,7,187,,,,,,,,,,,,,,,,bars/014.png,bars/mask002.png,,,,,,,,,,,,8,2,,,,,,,8,10,9,10,,,,,,,,,,,905.7963,906.2942,906.5433,932.9273,space,26.375,,932.9274,73,7,933.9245,933.9246,944.8464,space,10.9034,,0,11,11,11,1,80,0,,,,,,,,
,,64fead10d35271cb8eafc1c2,65af55813f5fcc7f4ffca798,2024-01-23_08h11.10.299,bars,2023.2.3,Win32,60.24096386,657b66ea316d21385b68909f,,,,,,,,,,,944.8624,945.8539,,,946.3433,946.5863,,70,70,,,,,,,,,,,,,,,,bars/046.png,bars/mask008.png,,,,,,,,,,,,4,2,,,,,,,10,8,8,7,,,,,,,,,,,945.8539,946.3432,946.5864,978.4817,space,31.8821,,978.4817,85,15,979.4774,979.4776,992.4029,space,12.9144,,0,12,12,12,1,155,85,,,,,,,,
,,64fead10d35271cb8eafc1c2,65af55813f5fcc7f4ffca798,2024-01-23_08h11.10.299,bars,2023.2.3,Win32,60.24096386,657b66ea316d21385b68909f,,,,,,,,,,,992.4164,993.4167,,,993.9155,994.1638,,173,-7,,,,,,,,,,,,,,,,bars/044.png,bars/mask000.png,,,,,,,,,,,,2,2,,,,,,,10,6,10,6,,,,,,,,,,,993.4169,993.9155,994.1638,1022.4767,space,28.2915,,1022.4769,82,18,1023.47,1023.4701,1036.9785,space,13.4837,,0,13,13,13,1,75,155,,,,,,,,
,,64fead10d35271cb8eafc1c2,65af55813f5fcc7f4ffca798,2024-01-23_08h11.10.299,bars,2023.2.3,Win32,60.24096386,657b66ea316d21385b68909f,,,,,,,,,,,1036.9907,1037.9907,,,1038.4948,1038.7375,,109,109,,,,,,,,,,,,,,,,bars/009.png,bars/mask008.png,,,,,,,,,,,,3,2,,,,,,,8,4,9,4,,,,,,,,,,,1037.9907,1038.4946,1038.7376,1059.0497,space,20.2928,,1059.0497,86,4,1060.0572,1060.0573,1082.4483,space,22.3473,,0,14,14,14,1,15,105,,,,,,,,
,,64fead10d35271cb8eafc1c2,65af55813f5fcc7f4ffca798,2024-01-23_08h11.10.299,bars,2023.2.3,Win32,60.24096386,657b66ea316d21385b68909f,,,,,,,,,,,1082.459,1083.4709,,,1083.9588,1084.2105,,47,47,,,,,,,,,,,,,,,,bars/001.png,bars/mask008.png,,,,,,,,,,,,0,2,,,,,,,10,2,10,2,,,,,,,,,,,1083.471,1083.9587,1084.2105,1104.8694,space,20.6524,,1104.8695,83,38,1105.8634,1105.8635,1118.6417,space,12.7504,,0,15,15,15,1,130,85,,,,,,,,
,,64fead10d35271cb8eafc1c2,65af55813f5fcc7f4ffca798,2024-01-23_08h11.10.299,bars,2023.2.3,Win32,60.24096386,657b66ea316d21385b68909f,,,,,,,,,,,1118.6535,1119.6556,,,1120.1519,1120.4008,,45,45,,,,,,,,,,,,,,,,bars/019.png,bars/mask005.png,,,,,,,,,,,,9,1,,,,,,,8,0,9,1,,,,,,,,,,,1119.6557,1120.1518,1120.4008,1134.3902,space,13.9656,,1134.3902,0,60,1135.3868,1135.3869,1143.0365,space,7.613,,0,16,16,16,1,45,105,,,,,,,,
,,64fead10d35271cb8eafc1c2,65af55813f5fcc7f4ffca798,2024-01-23_08h11.10.299,bars,2023.2.3,Win32,60.24096386,657b66ea316d21385b68909f,,,,,,,,,,,1143.0496,1144.0481,,,1144.5462,1144.7787,,20,20,,,,,,,,,,,,,,,,bars/031.png,bars/mask002.png,,,,,,,,,,,,0,2,,,,,,,10,0,10,0,,,,,,,,,,,1144.0481,1144.5461,1144.7788,1171.1914,space,26.4052,,1171.1915,80,15,1172.1928,1172.1929,1184.3741,space,12.1496,,0,17,17,17,1,120,35,,,,,,,,
,,64fead10d35271cb8eafc1c2,65af55813f5fcc7f4ffca798,2024-01-23_08h11.10.299,bars,2023.2.3,Win32,60.24096386,657b66ea316d21385b68909f,,,,,,,,,,,1184.3892,1185.3833,,,1185.8805,1186.1333,,10,10,,,,,,,,,,,,,,,,bars/048.png,bars/mask007.png,,,,,,,,,,,,2,2,,,,,,,10,2,10,4,,,,,,,,,,,1185.3833,1185.8805,1186.1334,1203.7397,space,17.5973,,1203.7397,40,15,1204.7356,1204.7356,1218.7417,space,13.9849,,0,18,18,18,1,50,175,,,,,,,,
,,64fead10d35271cb8eafc1c2,65af55813f5fcc7f4ffca798,2024-01-23_08h11.10.299,bars,2023.2.3,Win32,60.24096386,657b66ea316d21385b68909f,,,,,,,,,,,1218.7567,1219.7543,,,1220.2521,1220.5012,,75,255,,,,,,,,,,,,,,,,bars/021.png,bars/mask007.png,,,,,,,,,,,,3,2,,,,,,,8,4,8,4,,,,,,,,,,,1219.7544,1220.2521,1220.5012,1237.4769,space,16.9675,,1237.477,80,5,1238.4739,1238.474,1249.1293,space,10.629,,0,19,19,19,1,155,70,,,,,,,,
,,64fead10d35271cb8eafc1c2,65af55813f5fcc7f4ffca798,2024-01-23_08h11.10.299,bars,2023.2.3,Win32,60.24096386,657b66ea316d21385b68909f,,,,,,,,,,,1249.1439,1250.1391,,,1250.6366,1250.8688,,24,204,,,,,,,,,,,,,,,,bars/036.png,bars/mask008.png,,,,,,,,,,,,4,2,,,,,,,10,6,9,5,,,,,,,,,,,1250.1393,1250.6366,1250.8688,1259.0839,space,8.1972,,1259.0842,59,4,1260.107,1260.1071,1380.0888,space,119.9589,,0,20,20,20,1,145,20,,,,,,,,
,,64fead10d35271cb8eafc1c2,65af55813f5fcc7f4ffca798,2024-01-23_08h11.10.299,bars,2023.2.3,Win32,60.24096386,657b66ea316d21385b68909f,,,,,,,,,,,1380.0997,1381.0883,,,1381.5863,1381.8352,,128,128,,,,,,,,,,,,,,,,bars/004.png,bars/mask001.png,,,,,,,,,,,,4,2,,,,,,,8,4,9,4,,,,,,,,,,,1381.0883,1381.5862,1381.8352,1388.0918,space,6.2481,,1388.092,77,3,1389.1044,1389.1045,1390.6141,space,1.4679,,0,21,21,21,1,25,125,,,,,,,,
,,64fead10d35271cb8eafc1c2,65af55813f5fcc7f4ffca798,2024-01-23_08h11.10.299,bars,2023.2.3,Win32,60.24096386,657b66ea316d21385b68909f,,,,,,,,,,,1390.615,1391.6102,,,1392.108,1392.3565,,130,130,,,,,,,,,,,,,,,,bars/042.png,bars/mask002.png,,,,,,,,,,,,4,1,,,,,,,6,6,8,5,,,,,,,,,,,1391.6102,1392.1079,1392.3567,1399.4025,space,7.0386,,1399.4025,15,55,1400.4013,1400.4014,1403.4252,space,2.9882,,0,22,22,22,1,145,75,,,,,,,,
,,64fead10d35271cb8eafc1c2,65af55813f5fcc7f4ffca798,2024-01-23_08h11.10.299,bars,2023.2.3,Win32,60.24096386,657b66ea316d21385b68909f,,,,,,,,,,,1403.4263,1404.4452,,,1404.9364,1405.1842,,29,209,,,,,,,,,,,,,,,,bars/040.png,bars/mask007.png,,,,,,,,,,,,0,2,,,,,,,8,4,8,2,,,,,,,,,,,1404.4453,1404.9364,1405.1842,1410.7939,space,5.5908,,1410.7939,69,24,1411.788,1411.7882,1412.7294,space,0.9167,,0,23,23,23,1,140,5,,,,,,,,
,,64fead10d35271cb8eafc1c2,65af55813f5fcc7f4ffca798,2024-01-23_08h11.10.299,bars,2023.2.3,Win32,60.24096386,657b66ea316d21385b68909f,,,,,,,,,,,1412.7297,1413.7312,,,1414.2284,1414.4772,,16,16,,,,,,,,,,,,,,,,bars/040.png,bars/mask003.png,,,,,,,,,,,,4,2,,,,,,,10,6,10,6,,,,,,,,,,,1413.7313,1414.2283,1414.4772,1417.9292,space,3.4348,,1417.9292,56,11,1418.9248,1418.9248,1420.0367,space,1.095,,0,24,24,24,1,140,5,,,,,,,,
,,64fead10d35271cb8eafc1c2,65af55813f5fcc7f4ffca798,2024-01-23_08h11.10.299,bars,2023.2.3,Win32,60.24096386,657b66ea316d21385b68909f,,,,,,,,,,,1420.0375,1421.0323,,,1421.5391,1421.7799,,117,117,,,,,,,,,,,,,,,,bars/019.png,bars/mask006.png,,,,,,,,,,,,2,2,,,,,,,8,4,7,4,,,,,,,,,,,1421.0323,1421.539,1421.7799,1425.2973,space,3.4847,,1425.2974,72,12,1426.2763,1426.2764,1427.1887,space,0.8879,,0,25,25,25,1,45,105,,,,,,,,
,,64fead10d35271cb8eafc1c2,65af55813f5fcc7f4ffca798,2024-01-23_08h11.10.299,bars,2023.2.3,Win32,60.24096386,657b66ea316d21385b68909f,,,,,,,,,,,1427.189,1428.1849,,,1428.6826,1428.9312,,42,42,,,,,,,,,,,,,,,,bars/003.png,bars/mask003.png,,,,,,,,,,,,4,1,,,,,,,10,6,9,6,,,,,,,,,,,1428.1849,1428.6825,1428.9314,1434.5081,space,5.5707,,1434.5082,17,82,1435.5028,1435.503,1436.8151,space,1.2745,,0,26,26,26,1,25,140,,,,,,,,
,,64fead10d35271cb8eafc1c2,65af55813f5fcc7f4ffca798,2024-01-23_08h11.10.299,bars,2023.2.3,Win32,60.24096386,657b66ea316d21385b68909f,,,,,,,,,,,1436.8156,1437.8181,,,1438.3073,1438.5563,,124,124,,,,,,,,,,,,,,,,bars/003.png,bars/mask008.png,,,,,,,,,,,,2,2,,,,,,,8,4,9,4,,,,,,,,,,,1437.8182,1438.3072,1438.5564,1446.3061,space,7.7342,,1446.3062,81,16,1447.286,1447.2862,1447.7843,space,0.4727,,0,27,27,27,1,25,140,,,,,,,,
,,64fead10d35271cb8eafc1c2,65af55813f5fcc7f4ffca798,2024-01-23_08h11.10.299,bars,2023.2.3,Win32,60.24096386,657b66ea316d21385b68909f,,,,,,,,,,,1447.7848,1448.7789,,,1449.2767,1449.526,,24,24,,,,,,,,,,,,,,,,bars/022.png,bars/mask000.png,,,,,,,,,,,,5,2,,,,,,,6,6,6,6,,,,,,,,,,,1448.7789,1449.2766,1449.5261,1454.4378,space,4.8984,,1454.4378,71,4,1455.4338,1455.4338,1456.1147,space,0.6484,,0,28,28,28,1,95,20,,,,,,,,
,,64fead10d35271cb8eafc1c2,65af55813f5fcc7f4ffca798,2024-01-23_08h11.10.299,bars,2023.2.3,Win32,60.24096386,657b66ea316d21385b68909f,,,,,,,,,,,1456.1156,1457.1091,,,1457.6072,1457.856,,38,38,,,,,,,,,,,,,,,,bars/028.png,bars/mask003.png,,,,,,,,,,,,2,1,,,,,,,4,4,3,5,,,,,,,,,,,1457.1093,1457.6071,1457.856,1463.2328,space,5.3655,,1463.2328,7,82,1464.2296,1464.2297,1464.9091,space,0.65,,0,29,29,29,1,45,120,,,,,,,,
,,64fead10d35271cb8eafc1c2,65af55813f5fcc7f4ffca798,2024-01-23_08h11.10.299,bars,2023.2.3,Win32,60.24096386,657b66ea316d21385b68909f,,,,,,,,,,,1464.9097,1465.9121,,,1466.4241,1466.6429,,144,144,,,,,,,,,,,,,,,,bars/037.png,bars/mask004.png,,,,,,,,,,,,1,1,,,,,,,2,2,1,2,,,,,,,,,,,1465.9122,1466.4239,1466.6429,1469.9496,space,3.301,,1469.9496,6,39,1470.9421,1470.9422,1471.4851,space,0.5272,,0,30,30,30,1,150,105,,,,,,,,
,,64fead10d35271cb8eafc1c2,65af55813f5fcc7f4ffca798,2024-01-23_08h11.10.299,bars,2023.2.3,Win32,60.24096386,657b66ea316d21385b68909f,,,,,,,,,,,1471.4862,1472.4772,,,1472.9779,1473.2228,,15,195,,,,,,,,,,,,,,,,bars/033.png,bars/mask001.png,,,,,,,,,,,,3,1,,,,,,,4,4,4,3,,,,,,,,,,,1472.4772,1472.9779,1473.2229,1477.3882,space,4.1581,,1477.3883,10,40,1478.3842,1478.3842,1479.0014,space,0.5806,,0,31,31,31,1,25,155,,,,,,,,
,,64fead10d35271cb8eafc1c2,65af55813f5fcc7f4ffca798,2024-01-23_08h11.10.299,bars,2023.2.3,Win32,60.24096386,657b66ea316d21385b68909f,,,,,,,,,,,1479.0018,1479.9938,,,1480.4917,1480.7408,,161,161,,,,,,,,,,,,,,,,bars/048.png,bars/mask003.png,,,,,,,,,,,,1,2,,,,,,,2,2,2,1,,,,,,,,,,,1479.9938,1480.4917,1480.7409,1482.9976,space,2.223,,1482.9976,69,14,1483.9703,1483.9703,1484.6338,space,0.6004,,0,32,32,32,1,50,175,,,,,,,,
,,64fead10d35271cb8eafc1c2,65af55813f5fcc7f4ffca798,2024-01-23_08h11.10.299,bars,2023.2.3,Win32,60.24096386,657b66ea316d21385b68909f,,,,,,,,,,,1484.6342,1485.6363,,,1486.1288,1486.3826,,17,17,,,,,,,,,,,,,,,,bars/013.png,bars/mask009.png,,,,,,,,,,,,3,2,,,,,,,4,4,4,4,,,,,,,,,,,1485.6364,1486.1287,1486.3826,1488.7226,space,2.2968,,1488.7226,58,7,1489.7187,1489.7187,1492.5395,space,2.7923,,0,33,33,33,1,75,10,,,,,,,,
,,64fead10d35271cb8eafc1c2,65af55813f5fcc7f4ffca798,2024-01-23_08h11.10.299,bars,2023.2.3,Win32,60.24096386,657b66ea316d21385b68909f,,,,,,,,,,,1492.5405,1493.5363,,,1494.0329,1494.2817,,158,158,,,,,,,,,,,,,,,,bars/038.png,bars/mask002.png,,,,,,,,,,,,4,1,,,,,,,6,6,5,4,,,,,,,,,,,1493.5364,1494.0329,1494.2819,1498.9785,space,4.6808,,1498.9785,7,88,1499.9739,1499.974,1500.6058,space,0.6082,,0,34,34,34,1,165,70,,,,,,,,
,,64fead10d35271cb8eafc1c2,65af55813f5fcc7f4ffca798,2024-01-23_08h11.10.299,bars,2023.2.3,Win32,60.24096386,657b66ea316d21385b68909f,,,,,,,,,,,1500.6064,1501.5998,,,1502.0997,1502.3467,,109,109,,,,,,,,,,,,,,,,bars/047.png,bars/mask001.png,,,,,,,,,,,,0,2,,,,,,,4,4,5,3,,,,,,,,,,,1501.5999,1502.0997,1502.3467,1506.4128,space,4.0511,,1506.4129,86,39,1507.4086,1507.4086,1510.1903,space,2.7591,,0,35,35,35,1,15,70,,,,,,,,
,,64fead10d35271cb8eafc1c2,65af55813f5fcc7f4ffca798,2024-01-23_08h11.10.299,bars,2023.2.3,Win32,60.24096386,657b66ea316d21385b68909f,,,,,,,,,,,1510.2067,1511.1917,,,1511.6902,1511.9399,,154,154,,,,,,,,,,,,,,,,bars/024.png,bars/mask001.png,,,,,,,,,,,,1,2,,,,,,,2,2,3,2,,,,,,,,,,,1511.1918,1511.69,1511.9399,1516.4028,space,4.4375,,1516.4028,34,16,1517.3983,1517.3983,1517.8767,space,0.4602,,0,36,36,36,1,120,170,,,,,,,,
,,64fead10d35271cb8eafc1c2,65af55813f5fcc7f4ffca798,2024-01-23_08h11.10.299,bars,2023.2.3,Win32,60.24096386,657b66ea316d21385b68909f,,,,,,,,,,,1517.8777,1518.86,,,1519.3565,1519.6055,,133,133,,,,,,,,,,,,,,,,bars/005.png,bars/mask005.png,,,,,,,,,,,,0,2,,,,,,,0,0,0,0,,,,,,,,,,,1518.86,1519.3564,1519.6056,1523.5968,space,3.9851,,1523.5968,57,7,1524.6004,1524.6004,1526.8408,space,2.2201,,0,37,37,37,1,10,140,,,,,,,,
,,64fead10d35271cb8eafc1c2,65af55813f5fcc7f4ffca798,2024-01-23_08h11.10.299,bars,2023.2.3,Win32,60.24096386,657b66ea316d21385b68909f,,,,,,,,,,,1526.8416,1527.8412,,,1528.3344,1528.5754,,22,22,,,,,,,,,,,,,,,,bars/015.png,bars/mask003.png,,,,,,,,,,,,0,2,,,,,,,2,2,2,2,,,,,,,,,,,1527.8413,1528.3342,1528.5754,1534.5247,space,5.9424,,1534.5247,88,42,1535.5208,1535.5208,1536.162,space,0.6189,,0,38,38,38,1,110,160,,,,,,,,
,,64fead10d35271cb8eafc1c2,65af55813f5fcc7f4ffca798,2024-01-23_08h11.10.299,bars,2023.2.3,Win32,60.24096386,657b66ea316d21385b68909f,,,,,,,,,,,1536.1623,1537.1627,,,1537.6513,1537.893,,170,-10,,,,,,,,,,,,,,,,bars/013.png,bars/mask001.png,,,,,,,,,,,,2,2,,,,,,,4,4,6,5,,,,,,,,,,,1537.1627,1537.6513,1537.8931,1542.909,space,5.0096,,1542.909,85,20,1543.9016,1543.9016,1544.8131,space,0.8862,,0,39,39,39,1,75,10,,,,,,,,
,,64fead10d35271cb8eafc1c2,65af55813f5fcc7f4ffca798,2024-01-23_08h11.10.299,bars,2023.2.3,Win32,60.24096386,657b66ea316d21385b68909f,,,,,,,,,,,1544.8141,1545.8174,,,1546.308,1546.539,,172,-8,,,,,,,,,,,,,,,,bars/014.png,bars/mask000.png,,,,,,,,,,,,1,2,,,,,,,2,2,2,2,,,,,,,,,,,1545.8175,1546.3079,1546.539,1549.7154,space,3.172,,1549.7154,88,8,1550.704,1550.704,1551.3349,space,0.6052,,0,40,40,40,1,80,0,,,,,,,,
,,64fead10d35271cb8eafc1c2,65af55813f5fcc7f4ffca798,2024-01-23_08h11.10.299,bars,2023.2.3,Win32,60.24096386,657b66ea316d21385b68909f,,,,,,,,,,,1551.3358,1552.3423,,,1552.8449,1553.0993,,11,191,,,,,,,,,,,,,,,,bars/030.png,bars/mask005.png,,,,,,,,,,,,0,1,,,,,,,4,4,2,2,,,,,,,,,,,1552.3423,1552.8449,1553.0994,1557.1609,space,4.0486,0.0007,1557.1609,51,54,1558.1553,1558.1553,1559.8814,space,1.6937,,0,41,41,41,1,140,65,,,,,,,,
,,64fead10d35271cb8eafc1c2,65af55813f5fcc7f4ffca798,2024-01-23_08h11.10.299,bars,2023.2.3,Win32,60.24096386,657b66ea316d21385b68909f,,,,,,,,,,,1559.8823,1560.8767,,,1561.3789,1561.6073,,22,202,,,,,,,,,,,,,,,,bars/013.png,bars/mask000.png,,,,,,,,,,,,4,2,,,,,,,2,6,1,7,,,,,,,,,,,1560.8767,1561.3789,1561.6073,1565.6091,space,3.9838,,1565.6092,53,12,1566.6025,1566.6025,1567.5321,space,0.9056,,0,42,42,42,1,75,10,,,,,,,,
,,64fead10d35271cb8eafc1c2,65af55813f5fcc7f4ffca798,2024-01-23_08h11.10.299,bars,2023.2.3,Win32,60.24096386,657b66ea316d21385b68909f,,,,,,,,,,,1567.5323,1568.527,,,1569.0275,1569.279,,131,131,,,,,,,,,,,,,,,,bars/037.png,bars/mask008.png,,,,,,,,,,,,0,1,,,,,,,0,8,0,8,,,,,,,,,,,1568.527,1569.0275,1569.279,1574.4357,space,5.1388,,1574.4358,19,26,1575.4629,1575.463,1576.0942,space,0.5749,,0,43,43,43,1,150,105,,,,,,,,
,,64fead10d35271cb8eafc1c2,65af55813f5fcc7f4ffca798,2024-01-23_08h11.10.299,bars,2023.2.3,Win32,60.24096386,657b66ea316d21385b68909f,,,,,,,,,,,1576.0949,1577.0901,,,1577.5893,1577.8384,,151,151,,,,,,,,,,,,,,,,bars/032.png,bars/mask000.png,,,,,,,,,,,,0,1,,,,,,,0,6,1,5,,,,,,,,,,,1577.0902,1577.5891,1577.8384,1581.3907,space,3.5362,,1581.3907,26,49,1582.3835,1582.3835,1609.2349,space,26.8226,,0,44,44,44,1,125,20,,,,,,,,
,,64fead10d35271cb8eafc1c2,65af55813f5fcc7f4ffca798,2024-01-23_08h11.10.299,bars,2023.2.3,Win32,60.24096386,657b66ea316d21385b68909f,,,,,,,,,,,1609.2507,1610.2464,,,1610.7467,1610.993,,32,32,,,,,,,,,,,,,,,,bars/035.png,bars/mask003.png,,,,,,,,,,,,0,2,,,,,,,2,4,1,5,,,,,,,,,,,1610.2464,1610.7466,1610.993,1623.4897,space,12.4847,,1623.4897,37,28,1624.4845,1624.4845,1638.8928,space,14.3874,,0,45,45,45,1,175,60,,,,,,,,
,,64fead10d35271cb8eafc1c2,65af55813f5fcc7f4ffca798,2024-01-23_08h11.10.299,bars,2023.2.3,Win32,60.24096386,657b66ea316d21385b68909f,,,,,,,,,,,1638.903,1639.9022,,,1640.3991,1640.6555,,49,49,,,,,,,,,,,,,,,,bars/035.png,bars/mask008.png,,,,,,,,,,,,2,2,,,,,,,4,2,3,3,,,,,,,,,,,1639.9024,1640.3991,1640.6556,1655.1189,space,14.4392,,1655.1189,54,11,1656.1147,1656.1148,1667.9431,space,11.8038,,0,46,46,46,1,175,60,,,,,,,,
,,64fead10d35271cb8eafc1c2,65af55813f5fcc7f4ffca798,2024-01-23_08h11.10.299,bars,2023.2.3,Win32,60.24096386,657b66ea316d21385b68909f,,,,,,,,,,,1667.9556,1668.9589,,,1669.4566,1669.7054,,24,204,,,,,,,,,,,,,,,,bars/028.png,bars/mask006.png,,,,,,,,,,,,2,1,,,,,,,6,4,7,4,,,,,,,,,,,1668.959,1669.4564,1669.7055,1683.6119,space,13.8991,,1683.612,21,84,1684.6076,1684.6077,1696.2862,space,11.6562,,0,47,47,47,1,45,120,,,,,,,,
,,64fead10d35271cb8eafc1c2,65af55813f5fcc7f4ffca798,2024-01-23_08h11.10.299,bars,2023.2.3,Win32,60.24096386,657b66ea316d21385b68909f,,,,,,,,,,,1696.2987,1697.3027,,,1697.7876,1698.0328,,46,46,,,,,,,,,,,,,,,,bars/029.png,bars/mask009.png,,,,,,,,,,,,2,2,,,,,,,4,2,4,2,,,,,,,,,,,1697.3029,1697.7876,1698.0328,1708.0895,space,10.0386,,1708.0895,44,1,1709.1026,1709.1027,1714.8765,space,5.7446,,0,48,48,48,1,90,45,,,,,,,,
,,64fead10d35271cb8eafc1c2,65af55813f5fcc7f4ffca798,2024-01-23_08h11.10.299,bars,2023.2.3,Win32,60.24096386,657b66ea316d21385b68909f,,,,,,,,,,,1714.887,1715.8905,,,1716.3927,1716.6359,,149,149,,,,,,,,,,,,,,,,bars/015.png,bars/mask008.png,,,,,,,,,,,,3,2,,,,,,,6,4,6,5,,,,,,,,,,,1715.8905,1716.3926,1716.636,1722.7102,space,6.0631,,1722.7103,39,11,1723.7049,1723.7049,1725.9969,space,2.2739,,0,49,49,49,1,110,160,,,,,,,,
,,64fead10d35271cb8eafc1c2,65af55813f5fcc7f4ffca798,2024-01-23_08h11.10.299,bars,2023.2.3,Win32,60.24096386,657b66ea316d21385b68909f,,,,,,,,,,,,,,,,,,,,,,,,,,,,,,,,,,,,,,,,,,,,,,,,,,,,,,,,,,,,,,,,,,,,,,,,,,,,,,,,,,,,,,,,,,,,,1726.0039,1786.005,0,0,0,3,1,sequence_tables/blk048.csv
,,64fead10d35271cb8eafc1c2,65af55813f5fcc7f4ffca798,2024-01-23_08h11.10.299,bars,2023.2.3,Win32,60.24096386,657b66ea316d21385b68909f,,,,,,,,,,,1969.2417,1970.2044,,,1970.698,1970.9515,,130,130,,,,,,,,,,,,,,,,bars/048.png,bars/mask003.png,,,,,,,,,,,,0,2,,,,,,,8,7,10,8,,,,,,1786.0233,1969.1984,space,183.1526,,1970.2045,1970.6979,1970.9516,1973.1085,space,2.1365,,1973.1086,80,45,1974.1044,1974.1045,1974.1155,,,,0,0,0,0,1,50,175,,,,,,,,
,,64fead10d35271cb8eafc1c2,65af55813f5fcc7f4ffca798,2024-01-23_08h11.10.299,bars,2023.2.3,Win32,60.24096386,657b66ea316d21385b68909f,,,,,,,,,,,1974.1157,1975.1071,,,1975.6237,1975.8634,,47,47,,,,,,,,,,,,,,,,bars/038.png,bars/mask006.png,,,,,,,,,,,,1,2,,,,,,,6,5,6,4,,,,,,,,,,,1975.1072,1975.6236,1975.8634,1982.2528,space,6.3681,,1982.253,62,23,1983.2569,1983.257,1983.2744,,,,0,1,1,1,1,165,70,,,,,,,,
,,64fead10d35271cb8eafc1c2,65af55813f5fcc7f4ffca798,2024-01-23_08h11.10.299,bars,2023.2.3,Win32,60.24096386,657b66ea316d21385b68909f,,,,,,,,,,,1983.2747,1984.2768,,,1984.7751,1985.0243,,141,141,,,,,,,,,,,,,,,,bars/000.png,bars/mask008.png,,,,,,,,,,,,8,2,,,,,,,8,7,8,9,,,,,,,,,,,1984.2768,1984.7749,1985.0244,1987.9279,space,2.8921,,1987.928,79,4,1988.9207,1988.9207,1988.9297,,,,0,2,2,2,1,40,145,,,,,,,,
,,64fead10d35271cb8eafc1c2,65af55813f5fcc7f4ffca798,2024-01-23_08h11.10.299,bars,2023.2.3,Win32,60.24096386,657b66ea316d21385b68909f,,,,,,,,,,,1988.9298,1989.919,,,1990.4171,1990.676,,138,138,,,,,,,,,,,,,,,,bars/004.png,bars/mask005.png,,,,,,,,,,,,2,2,,,,,,,10,5,9,4,,,,,,,,,,,1989.9191,1990.4171,1990.676,1994.9798,space,4.2979,,1994.9799,67,13,1995.9765,1995.9765,1995.9921,,,,0,3,3,3,1,25,125,,,,,,,,
,,64fead10d35271cb8eafc1c2,65af55813f5fcc7f4ffca798,2024-01-23_08h11.10.299,bars,2023.2.3,Win32,60.24096386,657b66ea316d21385b68909f,,,,,,,,,,,1995.9927,1996.9884,,,1997.4864,1997.7352,,154,154,,,,,,,,,,,,,,,,bars/020.png,bars/mask008.png,,,,,,,,,,,,4,2,,,,,,,10,7,10,8,,,,,,,,,,,1996.9884,1997.4863,1997.7352,2012.2807,space,14.5398,,2012.2808,39,16,2013.2728,2013.2729,2013.291,,,,0,4,4,4,1,115,170,,,,,,,,
,,64fead10d35271cb8eafc1c2,65af55813f5fcc7f4ffca798,2024-01-23_08h11.10.299,bars,2023.2.3,Win32,60.24096386,657b66ea316d21385b68909f,,,,,,,,,,,2013.2917,2014.2814,,,2014.7785,2015.0351,,3,183,,,,,,,,,,,,,,,,bars/016.png,bars/mask005.png,,,,,,,,,,,,2,2,,,,,,,10,5,10,6,,,,,,,,,,,2014.2815,2014.7784,2015.0352,2039.8578,space,24.8111,,2039.8578,37,18,2040.8485,2040.8486,2040.8608,,,,0,5,5,5,1,40,165,,,,,,,,
,,64fead10d35271cb8eafc1c2,65af55813f5fcc7f4ffca798,2024-01-23_08h11.10.299,bars,2023.2.3,Win32,60.24096386,657b66ea316d21385b68909f,,,,,,,,,,,2040.861,2041.8614,,,2042.3587,2042.6078,,20,20,,,,,,,,,,,,,,,,bars/003.png,bars/mask002.png,,,,,,,,,,,,8,1,,,,,,,10,7,10,7,,,,,,,,,,,2041.8614,2042.3587,2042.6078,2046.2327,space,3.6188,,2046.2327,5,60,2047.221,2047.221,2047.2421,,,,0,6,6,6,1,25,140,,,,,,,,
,,64fead10d35271cb8eafc1c2,65af55813f5fcc7f4ffca798,2024-01-23_08h11.10.299,bars,2023.2.3,Win32,60.24096386,657b66ea316d21385b68909f,,,,,,,,,,,2047.2424,2048.2169,,,2048.7145,2048.9484,,117,117,,,,,,,,,,,,,,,,bars/011.png,bars/mask005.png,,,,,,,,,,,,0,2,,,,,,,10,5,9,7,,,,,,,,,,,2048.2169,2048.7144,2048.9484,2052.2829,space,3.3229,,2052.283,43,32,2053.2783,2053.2785,2053.2933,,,,0,7,7,7,1,160,85,,,,,,,,
,,64fead10d35271cb8eafc1c2,65af55813f5fcc7f4ffca798,2024-01-23_08h11.10.299,bars,2023.2.3,Win32,60.24096386,657b66ea316d21385b68909f,,,,,,,,,,,2053.2935,2054.2834,,,2054.7716,2055.0214,,34,34,,,,,,,,,,,,,,,,bars/023.png,bars/mask009.png,,,,,,,,,,,,5,1,,,,,,,8,3,9,3,,,,,,,,,,,2054.2835,2054.7716,2055.0215,2060.8526,space,5.8235,,2060.8527,14,81,2061.8409,2061.8409,2061.8526,,,,0,8,8,8,1,20,115,,,,,,,,
,,64fead10d35271cb8eafc1c2,65af55813f5fcc7f4ffca798,2024-01-23_08h11.10.299,bars,2023.2.3,Win32,60.24096386,657b66ea316d21385b68909f,,,,,,,,,,,2061.8528,2062.8391,,,2063.3346,2063.5836,,4,4,,,,,,,,,,,,,,,,bars/022.png,bars/mask000.png,,,,,,,,,,,,0,2,,,,,,,6,1,7,0,,,,,,,,,,,2062.8392,2063.3346,2063.5837,2066.7818,space,3.1911,,2066.7819,89,16,2067.7819,2067.7821,2067.7925,,,,0,9,9,9,1,95,20,,,,,,,,
,,64fead10d35271cb8eafc1c2,65af55813f5fcc7f4ffca798,2024-01-23_08h11.10.299,bars,2023.2.3,Win32,60.24096386,657b66ea316d21385b68909f,,,,,,,,,,,2067.7927,2068.7914,,,2069.2837,2069.5247,,132,132,,,,,,,,,,,,,,,,bars/006.png,bars/mask002.png,,,,,,,,,,,,0,2,,,,,,,4,3,5,4,,,,,,,,,,,2068.7915,2069.2837,2069.5247,2076.7934,space,7.2474,,2076.7936,83,32,2077.7886,2077.7886,2077.7999,,,,0,10,10,10,1,35,100,,,,,,,,
,,64fead10d35271cb8eafc1c2,65af55813f5fcc7f4ffca798,2024-01-23_08h11.10.299,bars,2023.2.3,Win32,60.24096386,657b66ea316d21385b68909f,,,,,,,,,,,2077.8,2078.8008,,,2079.2998,2079.5309,,31,31,,,,,,,,,,,,,,,,bars/031.png,bars/mask001.png,,,,,,,,,,,,0,2,,,,,,,6,1,5,0,,,,,,,,,,,2078.8009,2079.2997,2079.531,2083.4027,space,3.8651,,2083.4027,89,4,2084.3932,2084.3934,2084.4042,,,,0,11,11,11,1,120,35,,,,,,,,
,,64fead10d35271cb8eafc1c2,65af55813f5fcc7f4ffca798,2024-01-23_08h11.10.299,bars,2023.2.3,Win32,60.24096386,657b66ea316d21385b68909f,,,,,,,,,,,2084.4044,2085.4059,,,2085.8959,2086.1464,,120,120,,,,,,,,,,,,,,,,bars/006.png,bars/mask000.png,,,,,,,,,,,,0,2,,,,,,,8,0,9,1,,,,,,,,,,,2085.406,2085.8959,2086.1464,2091.4313,space,5.2733,,2091.4314,85,20,2092.4252,2092.4252,2092.4361,,,,0,12,12,12,1,35,100,,,,,,,,
,,64fead10d35271cb8eafc1c2,65af55813f5fcc7f4ffca798,2024-01-23_08h11.10.299,bars,2023.2.3,Win32,60.24096386,657b66ea316d21385b68909f,,,,,,,,,,,2092.4362,2093.4242,,,2093.919,2094.1684,,124,124,,,,,,,,,,,,,,,,bars/002.png,bars/mask002.png,,,,,,,,,,,,6,1,,,,,,,10,0,8,0,,,,,,,,,,,2093.4244,2093.9188,2094.1684,2098.663,space,4.4875,,2098.663,6,39,2099.672,2099.672,2099.683,,,,0,13,13,13,1,130,85,,,,,,,,
,,64fead10d35271cb8eafc1c2,65af55813f5fcc7f4ffca798,2024-01-23_08h11.10.299,bars,2023.2.3,Win32,60.24096386,657b66ea316d21385b68909f,,,,,,,,,,,2099.6833,2100.681,,,2101.171,2101.4237,,126,126,,,,,,,,,,,,,,,,bars/006.png,bars/mask000.png,,,,,,,,,,,,0,2,,,,,,,8,0,9,0,,,,,,,,,,,2100.681,2101.1709,2101.4237,2105.1039,space,3.6289,,2105.104,89,26,2106.0995,2106.0996,2106.1117,,,,0,14,14,14,1,35,100,,,,,,,,
,,64fead10d35271cb8eafc1c2,65af55813f5fcc7f4ffca798,2024-01-23_08h11.10.299,bars,2023.2.3,Win32,60.24096386,657b66ea316d21385b68909f,,,,,,,,,,,2106.1122,2107.1117,,,2107.6096,2107.8427,,4,184,,,,,,,,,,,,,,,,bars/032.png,bars/mask006.png,,,,,,,,,,,,0,2,,,,,,,6,0,5,1,,,,,,,,,,,2107.1118,2107.6095,2107.8429,2113.1034,space,5.2375,,2113.1035,59,16,2114.0987,2114.0987,2114.1171,,,,0,15,15,15,1,125,20,,,,,,,,
,,64fead10d35271cb8eafc1c2,65af55813f5fcc7f4ffca798,2024-01-23_08h11.10.299,bars,2023.2.3,Win32,60.24096386,657b66ea316d21385b68909f,,,,,,,,,,,2114.1174,2115.1104,,,2115.6082,2115.8578,,103,103,,,,,,,,,,,,,,,,bars/026.png,bars/mask005.png,,,,,,,,,,,,1,2,,,,,,,4,2,3,2,,,,,,,,,,,2115.1105,2115.6081,2115.8578,2119.0773,space,3.2076,,2119.0774,68,18,2120.0722,2120.0722,2120.0828,,,,0,16,16,16,1,35,85,,,,,,,,
,,64fead10d35271cb8eafc1c2,65af55813f5fcc7f4ffca798,2024-01-23_08h11.10.299,bars,2023.2.3,Win32,60.24096386,657b66ea316d21385b68909f,,,,,,,,,,,2120.083,2121.085,,,2121.5824,2121.8317,,133,133,,,,,,,,,,,,,,,,bars/037.png,bars/mask005.png,,,,,,,,,,,,2,1,,,,,,,2,0,4,1,,,,,,,,,,,2121.0855,2121.5824,2121.8318,2126.1312,space,4.2897,,2126.1312,17,28,2127.125,2127.1251,2127.1366,,,,0,17,17,17,1,150,105,,,,,,,,
,,64fead10d35271cb8eafc1c2,65af55813f5fcc7f4ffca798,2024-01-23_08h11.10.299,bars,2023.2.3,Win32,60.24096386,657b66ea316d21385b68909f,,,,,,,,,,,2127.1368,2128.1376,,,2128.6352,2128.8853,,145,145,,,,,,,,,,,,,,,,bars/004.png,bars/mask004.png,,,,,,,,,,,,0,2,,,,,,,0,0,1,1,,,,,,,,,,,2128.1376,2128.6352,2128.8853,2132.9506,space,4.0557,,2132.9507,60,20,2133.9457,2133.9457,2133.9603,,,,0,18,18,18,1,25,125,,,,,,,,
,,64fead10d35271cb8eafc1c2,65af55813f5fcc7f4ffca798,2024-01-23_08h11.10.299,bars,2023.2.3,Win32,60.24096386,657b66ea316d21385b68909f,,,,,,,,,,,2133.9604,2134.958,,,2135.4558,2135.705,,34,214,,,,,,,,,,,,,,,,bars/017.png,bars/mask008.png,,,,,,,,,,,,0,2,,,,,,,2,0,3,0,,,,,,,,,,,2134.958,2135.4558,2135.705,2139.9893,space,4.2777,,2139.9894,69,11,2140.9816,2140.9816,2140.9912,,,,0,19,19,19,1,145,45,,,,,,,,
,,64fead10d35271cb8eafc1c2,65af55813f5fcc7f4ffca798,2024-01-23_08h11.10.299,bars,2023.2.3,Win32,60.24096386,657b66ea316d21385b68909f,,,,,,,,,,,2140.9914,2141.98,,,2142.4591,2142.7174,,96,96,,,,,,,,,,,,,,,,bars/000.png,bars/mask003.png,,,,,,,,,,,,0,2,,,,,,,4,2,2,1,,,,,,,,,,,2141.98,2142.4588,2142.7174,2143.0728,space,0.3198,,2143.0728,56,49,2144.0862,2144.0863,2144.087,,,,0,20,20,20,1,40,145,,,,,,,,
,,64fead10d35271cb8eafc1c2,65af55813f5fcc7f4ffca798,2024-01-23_08h11.10.299,bars,2023.2.3,Win32,60.24096386,657b66ea316d21385b68909f,,,,,,,,,,,2144.0874,2145.0996,,,2145.5819,2145.8296,,139,-41,,,,,,,,,,,,,,,,bars/049.png,bars/mask004.png,,,,,,,,,,,,1,1,,,,,,,2,4,4,4,,,,,,,,,,,2145.0998,2145.5818,2145.8297,2149.5282,space,3.6761,,2149.5283,21,24,2150.5358,2150.5358,2150.5491,,,,0,21,21,21,1,160,115,,,,,,,,
,,64fead10d35271cb8eafc1c2,65af55813f5fcc7f4ffca798,2024-01-23_08h11.10.299,bars,2023.2.3,Win32,60.24096386,657b66ea316d21385b68909f,,,,,,,,,,,2150.5494,2151.5544,,,2152.0505,2152.2994,,171,171,,,,,,,,,,,,,,,,bars/008.png,bars/mask008.png,,,,,,,,,,,,1,2,,,,,,,0,2,0,2,,,,,,,,,,,2151.5544,2152.0504,2152.2995,2156.83,space,4.5145,,2156.8301,61,9,2157.8252,2157.8253,2157.8363,,,,0,22,22,22,1,110,0,,,,,,,,
,,64fead10d35271cb8eafc1c2,65af55813f5fcc7f4ffca798,2024-01-23_08h11.10.299,bars,2023.2.3,Win32,60.24096386,657b66ea316d21385b68909f,,,,,,,,,,,2157.8369,2158.8378,,,2159.3356,2159.5849,,97,97,,,,,,,,,,,,,,,,bars/045.png,bars/mask009.png,,,,,,,,,,,,3,1,,,,,,,2,0,3,0,,,,,,,,,,,2158.8379,2159.3355,2159.5851,2163.6183,space,4.0067,,2163.6183,3,87,2164.6232,2164.6232,2164.6341,,,,0,23,23,23,1,100,10,,,,,,,,
,,64fead10d35271cb8eafc1c2,65af55813f5fcc7f4ffca798,2024-01-23_08h11.10.299,bars,2023.2.3,Win32,60.24096386,657b66ea316d21385b68909f,,,,,,,,,,,2164.6343,2165.6346,,,2166.1234,2166.4007,,49,49,,,,,,,,,,,,,,,,bars/028.png,bars/mask007.png,,,,,,,,,,,,0,1,,,,,,,0,2,0,3,,,,,,,,,,,2165.6347,2166.1234,2166.4008,2170.2729,space,3.8512,,2170.273,4,71,2171.2672,2171.2674,2171.2776,,,,0,24,24,24,1,45,120,,,,,,,,
,,64fead10d35271cb8eafc1c2,65af55813f5fcc7f4ffca798,2024-01-23_08h11.10.299,bars,2023.2.3,Win32,60.24096386,657b66ea316d21385b68909f,,,,,,,,,,,2171.2777,2172.2796,,,2172.7785,2173.0271,,161,161,,,,,,,,,,,,,,,,bars/034.png,bars/mask008.png,,,,,,,,,,,,0,1,,,,,,,0,4,0,4,,,,,,,,,,,2172.2796,2172.7783,2173.0272,2176.9427,space,3.8975,,2176.9427,36,84,2177.9384,2177.9384,2177.948,,,,0,25,25,25,1,125,65,,,,,,,,
,,64fead10d35271cb8eafc1c2,65af55813f5fcc7f4ffca798,2024-01-23_08h11.10.299,bars,2023.2.3,Win32,60.24096386,657b66ea316d21385b68909f,,,,,,,,,,,2177.9482,2178.9564,,,2179.4491,2179.6975,,107,-73,,,,,,,,,,,,,,,,bars/027.png,bars/mask002.png,,,,,,,,,,,,4,1,,,,,,,2,2,4,1,,,,,,,,,,,2178.9565,2179.449,2179.6976,2183.9783,space,4.2745,,2183.9784,3,57,2184.9744,2184.9745,2184.9881,,,,0,26,26,26,1,110,50,,,,,,,,
,,64fead10d35271cb8eafc1c2,65af55813f5fcc7f4ffca798,2024-01-23_08h11.10.299,bars,2023.2.3,Win32,60.24096386,657b66ea316d21385b68909f,,,,,,,,,,,2184.9883,2185.9879,,,2186.4862,2186.7243,,165,-15,,,,,,,,,,,,,,,,bars/032.png,bars/mask008.png,,,,,,,,,,,,0,2,,,,,,,0,4,0,4,,,,,,,,,,,2185.988,2186.4861,2186.7244,2190.9334,space,4.1861,,2190.9336,40,35,2191.9296,2191.9297,2191.9421,,,,0,27,27,27,1,125,20,,,,,,,,
,,64fead10d35271cb8eafc1c2,65af55813f5fcc7f4ffca798,2024-01-23_08h11.10.299,bars,2023.2.3,Win32,60.24096386,657b66ea316d21385b68909f,,,,,,,,,,,2191.9428,2192.9405,,,2193.4392,2193.6871,,43,223,,,,,,,,,,,,,,,,bars/034.png,bars/mask001.png,,,,,,,,,,,,1,2,,,,,,,0,6,0,4,,,,,,,,,,,2192.9406,2193.439,2193.6871,2197.7439,space,4.0508,,2197.7439,82,22,2198.7317,2198.7317,2198.7424,,,,0,28,28,28,1,125,65,,,,,,,,
,,64fead10d35271cb8eafc1c2,65af55813f5fcc7f4ffca798,2024-01-23_08h11.10.299,bars,2023.2.3,Win32,60.24096386,657b66ea316d21385b68909f,,,,,,,,,,,2198.7425,2199.7396,,,2200.2419,2200.4911,,0,180,,,,,,,,,,,,,,,,bars/032.png,bars/mask001.png,,,,,,,,,,,,3,2,,,,,,,2,8,2,8,,,,,,,,,,,2199.7397,2200.2419,2200.4912,2205.0711,space,4.567,,2205.0711,55,20,2206.0671,2206.0672,2206.0811,,,,0,29,29,29,1,125,20,,,,,,,,
,,64fead10d35271cb8eafc1c2,65af55813f5fcc7f4ffca798,2024-01-23_08h11.10.299,bars,2023.2.3,Win32,60.24096386,657b66ea316d21385b68909f,,,,,,,,,,,2206.0812,2207.0737,,,2207.5766,2207.8258,,167,167,,,,,,,,,,,,,,,,bars/011.png,bars/mask004.png,,,,,,,,,,,,4,1,,,,,,,4,10,5,9,,,,,,,,,,,2207.0738,2207.5766,2207.8259,2214.5467,space,6.7148,,2214.5467,7,82,2215.5421,2215.5421,2215.5536,,,,0,30,30,30,1,160,85,,,,,,,,
,,64fead10d35271cb8eafc1c2,65af55813f5fcc7f4ffca798,2024-01-23_08h11.10.299,bars,2023.2.3,Win32,60.24096386,657b66ea316d21385b68909f,,,,,,,,,,,2215.5538,2216.5547,,,2217.0523,2217.3033,,141,-39,,,,,,,,,,,,,,,,bars/038.png,bars/mask000.png,,,,,,,,,,,,1,1,,,,,,,2,10,3,10,,,,,,,,,,,2216.5547,2217.0522,2217.3034,2222.2678,space,4.9583,,2222.2679,24,71,2223.2588,2223.2589,2223.2688,,,,0,31,31,31,1,165,70,,,,,,,,
,,64fead10d35271cb8eafc1c2,65af55813f5fcc7f4ffca798,2024-01-23_08h11.10.299,bars,2023.2.3,Win32,60.24096386,657b66ea316d21385b68909f,,,,,,,,,,,2223.2691,2224.2713,,,2224.769,2225.0178,,171,171,,,,,,,,,,,,,,,,bars/020.png,bars/mask000.png,,,,,,,,,,,,7,2,,,,,,,4,8,4,7,,,,,,,,,,,2224.2713,2224.7689,2225.0179,2228.7343,space,3.71,,2228.7343,56,1,2229.7315,2229.7316,2229.7487,,,,0,32,32,32,1,115,170,,,,,,,,
,,64fead10d35271cb8eafc1c2,65af55813f5fcc7f4ffca798,2024-01-23_08h11.10.299,bars,2023.2.3,Win32,60.24096386,657b66ea316d21385b68909f,,,,,,,,,,,2229.7495,2230.7433,,,2231.241,2231.4905,,31,31,,,,,,,,,,,,,,,,bars/019.png,bars/mask005.png,,,,,,,,,,,,1,1,,,,,,,2,6,2,6,,,,,,,,,,,2230.7434,2231.2408,2231.4906,2235.692,space,4.1945,,2235.692,14,74,2236.6839,2236.684,2236.7008,,,,0,33,33,33,1,45,105,,,,,,,,
,,64fead10d35271cb8eafc1c2,65af55813f5fcc7f4ffca798,2024-01-23_08h11.10.299,bars,2023.2.3,Win32,60.24096386,657b66ea316d21385b68909f,,,,,,,,,,,2236.7021,2237.6962,,,2238.1974,2238.4436,,131,131,,,,,,,,,,,,,,,,bars/037.png,bars/mask005.png,,,,,,,,,,,,0,1,,,,,,,0,4,0,1,,,,,,,,,,,2237.6963,2238.1973,2238.4436,2240.3016,space,1.8486,,2240.3017,19,26,2241.2989,2241.2989,2241.3001,,,,0,34,34,34,1,150,105,,,,,,,,
,,64fead10d35271cb8eafc1c2,65af55813f5fcc7f4ffca798,2024-01-23_08h11.10.299,bars,2023.2.3,Win32,60.24096386,657b66ea316d21385b68909f,,,,,,,,,,,2241.3009,2242.2985,,,2242.7909,2243.0399,,40,40,,,,,,,,,,,,,,,,bars/028.png,bars/mask004.png,,,,,,,,,,,,2,1,,,,,,,2,2,2,2,,,,,,,,,,,2242.2987,2242.7909,2243.04,2246.9396,space,3.8923,,2246.9397,5,80,2247.9352,2247.9353,2247.9456,,,,0,35,35,35,1,45,120,,,,,,,,
,,64fead10d35271cb8eafc1c2,65af55813f5fcc7f4ffca798,2024-01-23_08h11.10.299,bars,2023.2.3,Win32,60.24096386,657b66ea316d21385b68909f,,,,,,,,,,,2247.9458,2248.9356,,,2249.4273,2249.6783,,46,226,,,,,,,,,,,,,,,,bars/046.png,bars/mask002.png,,,,,,,,,,,,0,2,,,,,,,0,0,0,1,,,,,,,,,,,2248.9358,2249.4272,2249.6784,2254.1929,space,4.4931,,2254.1929,71,39,2255.1876,2255.1876,2255.1996,,,,0,36,36,36,1,155,85,,,,,,,,
,,64fead10d35271cb8eafc1c2,65af55813f5fcc7f4ffca798,2024-01-23_08h11.10.299,bars,2023.2.3,Win32,60.24096386,657b66ea316d21385b68909f,,,,,,,,,,,2255.1997,2256.2,,,2256.6979,2256.9464,,146,-34,,,,,,,,,,,,,,,,bars/035.png,bars/mask006.png,,,,,,,,,,,,0,1,,,,,,,2,2,2,1,,,,,,,,,,,2256.2001,2256.6978,2256.9465,2263.3364,space,6.3801,,2263.3366,29,86,2264.331,2264.331,2264.3457,,,,0,37,37,37,1,175,60,,,,,,,,
,,64fead10d35271cb8eafc1c2,65af55813f5fcc7f4ffca798,2024-01-23_08h11.10.299,bars,2023.2.3,Win32,60.24096386,657b66ea316d21385b68909f,,,,,,,,,,,2264.3459,2265.3432,,,2265.8412,2266.09,,40,220,,,,,,,,,,,,,,,,bars/036.png,bars/mask000.png,,,,,,,,,,,,0,2,,,,,,,4,0,3,0,,,,,,,,,,,2265.3433,2265.8411,2266.09,2269.625,space,3.5244,,2269.625,75,20,2270.6204,2270.6205,2270.6347,,,,0,38,38,38,1,145,20,,,,,,,,
,,64fead10d35271cb8eafc1c2,65af55813f5fcc7f4ffca798,2024-01-23_08h11.10.299,bars,2023.2.3,Win32,60.24096386,657b66ea316d21385b68909f,,,,,,,,,,,2270.6351,2271.6336,,,2272.1254,2272.3644,,32,32,,,,,,,,,,,,,,,,bars/031.png,bars/mask008.png,,,,,,,,,,,,1,2,,,,,,,2,2,3,1,,,,,,,,,,,2271.6336,2272.1254,2272.3645,2275.4541,space,3.0762,,2275.4542,88,3,2276.4489,2276.4489,2276.4622,,,,0,39,39,39,1,120,35,,,,,,,,
,,64fead10d35271cb8eafc1c2,65af55813f5fcc7f4ffca798,2024-01-23_08h11.10.299,bars,2023.2.3,Win32,60.24096386,657b66ea316d21385b68909f,,,,,,,,,,,2276.4626,2277.4583,,,2277.9553,2278.2046,,117,117,,,,,,,,,,,,,,,,bars/006.png,bars/mask007.png,,,,,,,,,,,,0,2,,,,,,,0,0,0,0,,,,,,,,,,,2277.4583,2277.9552,2278.2047,2282.7514,space,4.5355,,2282.7514,82,17,2283.7473,2283.7473,2283.7586,,,,0,40,40,40,1,35,100,,,,,,,,
,,64fead10d35271cb8eafc1c2,65af55813f5fcc7f4ffca798,2024-01-23_08h11.10.299,bars,2023.2.3,Win32,60.24096386,657b66ea316d21385b68909f,,,,,,,,,,,2283.7588,2284.7434,,,2285.2405,2285.4892,,161,-19,,,,,,,,,,,,,,,,bars/008.png,bars/mask000.png,,,,,,,,,,,,0,2,,,,,,,2,0,2,0,,,,,,,,,,,2284.7435,2285.2405,2285.4892,2289.0121,space,3.5151,,2289.0121,51,19,2290.0047,2290.0047,2290.0144,,,,0,41,41,41,1,110,0,,,,,,,,
,,64fead10d35271cb8eafc1c2,65af55813f5fcc7f4ffca798,2024-01-23_08h11.10.299,bars,2023.2.3,Win32,60.24096386,657b66ea316d21385b68909f,,,,,,,,,,,2290.0145,2291.0162,,,2291.5133,2291.7663,,14,14,,,,,,,,,,,,,,,,bars/005.png,bars/mask003.png,,,,,,,,,,,,1,1,,,,,,,0,2,1,0,,,,,,,,,,,2291.0162,2291.5132,2291.7663,2295.8446,space,4.0694,,2295.8446,4,54,2296.8402,2296.8402,2296.852,,,,0,42,42,42,1,10,140,,,,,,,,
,,64fead10d35271cb8eafc1c2,65af55813f5fcc7f4ffca798,2024-01-23_08h11.10.299,bars,2023.2.3,Win32,60.24096386,657b66ea316d21385b68909f,,,,,,,,,,,2296.8522,2297.8544,,,2298.3505,2298.5994,,141,141,,,,,,,,,,,,,,,,bars/018.png,bars/mask008.png,,,,,,,,,,,,0,1,,,,,,,0,0,0,0,,,,,,,,,,,2297.8544,2298.3504,2298.5995,2301.356,space,2.7492,,2301.356,9,51,2302.3501,2302.3501,2302.3625,,,,0,43,43,43,1,150,90,,,,,,,,
,,64fead10d35271cb8eafc1c2,65af55813f5fcc7f4ffca798,2024-01-23_08h11.10.299,bars,2023.2.3,Win32,60.24096386,657b66ea316d21385b68909f,,,,,,,,,,,2302.3627,2303.3628,,,2303.8603,2304.1098,,80,260,,,,,,,,,,,,,,,,bars/026.png,bars/mask006.png,,,,,,,,,,,,1,2,,,,,,,2,0,0,1,,,,,,,,,,,2303.3628,2303.8603,2304.1098,2309.6186,space,5.4837,,2309.6186,45,5,2310.6141,2310.6141,2310.6324,,,,0,44,44,44,1,35,85,,,,,,,,
,,64fead10d35271cb8eafc1c2,65af55813f5fcc7f4ffca798,2024-01-23_08h11.10.299,bars,2023.2.3,Win32,60.24096386,657b66ea316d21385b68909f,,,,,,,,,,,2310.6326,2311.6263,,,2312.1277,2312.3732,,34,34,,,,,,,,,,,,,,,,bars/025.png,bars/mask003.png,,,,,,,,,,,,2,2,,,,,,,0,2,1,2,,,,,,,,,,,2311.6263,2312.1277,2312.3732,2315.7588,space,3.3756,,2315.7589,71,6,2316.7382,2316.7382,2316.7488,,,,0,45,45,45,1,105,40,,,,,,,,
,,64fead10d35271cb8eafc1c2,65af55813f5fcc7f4ffca798,2024-01-23_08h11.10.299,bars,2023.2.3,Win32,60.24096386,657b66ea316d21385b68909f,,,,,,,,,,,2316.749,2317.7496,,,2318.2479,2318.4967,,31,31,,,,,,,,,,,,,,,,bars/022.png,bars/mask003.png,,,,,,,,,,,,3,2,,,,,,,0,4,1,5,,,,,,,,,,,2317.7497,2318.2478,2318.4968,2321.5018,space,2.9968,,2321.5018,64,11,2322.4978,2322.4978,2322.5119,,,,0,46,46,46,1,95,20,,,,,,,,
,,64fead10d35271cb8eafc1c2,65af55813f5fcc7f4ffca798,2024-01-23_08h11.10.299,bars,2023.2.3,Win32,60.24096386,657b66ea316d21385b68909f,,,,,,,,,,,2322.515,2323.508,,,2324.0009,2324.241,,138,-42,,,,,,,,,,,,,,,,bars/017.png,bars/mask001.png,,,,,,,,,,,,0,1,,,,,,,0,2,0,2,,,,,,,,,,,2323.508,2324.0007,2324.241,2327.7068,space,3.4533,,2327.7069,7,87,2328.7028,2328.7028,2328.7184,,,,0,47,47,47,1,145,45,,,,,,,,
,,64fead10d35271cb8eafc1c2,65af55813f5fcc7f4ffca798,2024-01-23_08h11.10.299,bars,2023.2.3,Win32,60.24096386,657b66ea316d21385b68909f,,,,,,,,,,,2328.7188,2329.7148,,,2330.2114,2330.4449,,62,62,,,,,,,,,,,,,,,,bars/044.png,bars/mask009.png,,,,,,,,,,,,1,1,,,,,,,0,0,1,0,,,,,,,,,,,2329.715,2330.2113,2330.4449,2333.6646,space,3.2032,,2333.6647,13,87,2334.6534,2334.6534,2334.6642,,,,0,48,48,48,1,75,155,,,,,,,,
,,64fead10d35271cb8eafc1c2,65af55813f5fcc7f4ffca798,2024-01-23_08h11.10.299,bars,2023.2.3,Win32,60.24096386,657b66ea316d21385b68909f,,,,,,,,,,,2334.6644,2335.6563,,,2336.1533,2336.4022,,23,203,,,,,,,,,,,,,,,,bars/032.png,bars/mask001.png,,,,,,,,,,,,1,2,,,,,,,2,2,4,1,,,,,,,,,,,2335.6564,2336.1533,2336.4023,2339.6518,space,3.2438,,2339.6518,78,3,2340.6534,2340.6535,2340.665,,,,0,49,49,49,1,125,20,,,,,,,,
,,64fead10d35271cb8eafc1c2,65af55813f5fcc7f4ffca798,2024-01-23_08h11.10.299,bars,2023.2.3,Win32,60.24096386,657b66ea316d21385b68909f,,,,,,,,,,,,,,,,,,,,,,,,,,,,,,,,,,,,,,,,,,,,,,,,,,,,,,,,,,,,,,,,,,,,,,,,,,,,,,,,,,,,,,,,,,,,,2340.6694,2400.6573,0,1,1,0,1,sequence_tables/blk044.csv
,,64fead10d35271cb8eafc1c2,65af55813f5fcc7f4ffca798,2024-01-23_08h11.10.299,bars,2023.2.3,Win32,60.24096386,657b66ea316d21385b68909f,,,,,,,,,,,2420.7651,2421.7493,,,2422.2519,2422.4968,,40,40,,,,,,,,,,,,,,,,bars/030.png,bars/mask007.png,,,,,,,,,,,,1,2,,,,,,,3,6,4,4,,,,,,2400.6684,2420.7352,space,20.0388,,2421.7493,2422.2517,2422.4969,2434.3618,space,11.8355,,2434.3619,80,25,2435.3581,2435.3582,2435.3749,,,,0,0,0,0,1,140,65,,,,,,,,
,,64fead10d35271cb8eafc1c2,65af55813f5fcc7f4ffca798,2024-01-23_08h11.10.299,bars,2023.2.3,Win32,60.24096386,657b66ea316d21385b68909f,,,,,,,,,,,2435.3753,2436.3693,,,2436.8673,2437.1216,,37,37,,,,,,,,,,,,,,,,bars/034.png,bars/mask005.png,,,,,,,,,,,,0,2,,,,,,,1,4,1,2,,,,,,,,,,,2436.3693,2436.8673,2437.1216,2441.7306,space,4.5763,,2441.7306,88,28,2442.7253,2442.7253,2442.7356,,,,0,1,1,1,1,125,65,,,,,,,,
,,64fead10d35271cb8eafc1c2,65af55813f5fcc7f4ffca798,2024-01-23_08h11.10.299,bars,2023.2.3,Win32,60.24096386,657b66ea316d21385b68909f,,,,,,,,,,,2442.7359,2443.7373,,,2444.2382,2444.4844,,129,129,,,,,,,,,,,,,,,,bars/039.png,bars/mask003.png,,,,,,,,,,,,1,2,,,,,,,0,2,0,3,,,,,,,,,,,2443.7375,2444.2381,2444.4845,2448.2553,space,3.7611,,2448.2554,46,24,2449.2469,2449.247,2449.2591,,,,0,2,2,2,1,175,105,,,,,,,,
,,64fead10d35271cb8eafc1c2,65af55813f5fcc7f4ffca798,2024-01-23_08h11.10.299,bars,2023.2.3,Win32,60.24096386,657b66ea316d21385b68909f,,,,,,,,,,,2449.2607,2450.2592,,,2450.724,2450.973,,152,-28,,,,,,,,,,,,,,,,bars/012.png,bars/mask001.png,,,,,,,,,,,,0,2,,,,,,,2,0,1,1,,,,,,,,,,,2450.2594,2450.724,2450.9731,2456.4497,space,5.4576,,2456.4497,62,43,2457.4447,2457.4447,2457.456,,,,0,3,3,3,1,90,15,,,,,,,,
,,64fead10d35271cb8eafc1c2,65af55813f5fcc7f4ffca798,2024-01-23_08h11.10.299,bars,2023.2.3,Win32,60.24096386,657b66ea316d21385b68909f,,,,,,,,,,,2457.456,2458.4571,,,2459.005,2459.2216,,6,6,,,,,,,,,,,,,,,,bars/048.png,bars/mask001.png,,,,,,,,,,,,1,2,,,,,,,0,0,0,1,,,,,,,,,,,2458.4571,2459.005,2459.2217,2461.6995,space,2.4559,,2461.6995,44,11,2462.7133,2462.7133,2462.7241,,,,0,4,4,4,1,50,175,,,,,,,,
,,64fead10d35271cb8eafc1c2,65af55813f5fcc7f4ffca798,2024-01-23_08h11.10.299,bars,2023.2.3,Win32,60.24096386,657b66ea316d21385b68909f,,,,,,,,,,,2462.7243,2463.7211,,,2464.216,2464.465,,130,130,,,,,,,,,,,,,,,,bars/037.png,bars/mask005.png,,,,,,,,,,,,0,1,,,,,,,0,0,0,0,,,,,,,,,,,2463.7212,2464.216,2464.465,2470.9231,space,6.4541,,2470.9232,20,25,2471.9165,2471.9165,2471.9282,,,,0,5,5,5,1,150,105,,,,,,,,
,,64fead10d35271cb8eafc1c2,65af55813f5fcc7f4ffca798,2024-01-23_08h11.10.299,bars,2023.2.3,Win32,60.24096386,657b66ea316d21385b68909f,,,,,,,,,,,2471.9284,2472.9293,,,2473.4257,2473.6745,,155,155,,,,,,,,,,,,,,,,bars/020.png,bars/mask007.png,,,,,,,,,,,,2,2,,,,,,,0,2,2,3,,,,,,,,,,,2472.9293,2473.4256,2473.6746,2478.1234,space,4.4305,,2478.1234,40,15,2479.1175,2479.1176,2479.1286,,,,0,6,6,6,1,115,170,,,,,,,,
,,64fead10d35271cb8eafc1c2,65af55813f5fcc7f4ffca798,2024-01-23_08h11.10.299,bars,2023.2.3,Win32,60.24096386,657b66ea316d21385b68909f,,,,,,,,,,,2479.1287,2480.1298,,,2480.6277,2480.8767,,40,220,,,,,,,,,,,,,,,,bars/010.png,bars/mask006.png,,,,,,,,,,,,0,2,,,,,,,2,0,1,0,,,,,,,,,,,2480.1299,2480.6277,2480.8767,2486.3701,space,5.4602,,2486.3702,55,15,2487.3487,2487.3488,2487.36,,,,0,7,7,7,1,165,55,,,,,,,,
,,64fead10d35271cb8eafc1c2,65af55813f5fcc7f4ffca798,2024-01-23_08h11.10.299,bars,2023.2.3,Win32,60.24096386,657b66ea316d21385b68909f,,,,,,,,,,,2487.3602,2488.3611,,,2488.8604,2489.0935,,139,139,,,,,,,,,,,,,,,,bars/037.png,bars/mask000.png,,,,,,,,,,,,3,1,,,,,,,4,2,4,1,,,,,,,,,,,2488.3611,2488.8604,2489.0936,2493.3895,space,4.2809,,2493.3899,11,34,2494.3891,2494.3892,2494.4032,,,,0,8,8,8,1,150,105,,,,,,,,
,,64fead10d35271cb8eafc1c2,65af55813f5fcc7f4ffca798,2024-01-23_08h11.10.299,bars,2023.2.3,Win32,60.24096386,657b66ea316d21385b68909f,,,,,,,,,,,2494.4033,2495.3971,,,2495.9005,2496.1446,,45,45,,,,,,,,,,,,,,,,bars/034.png,bars/mask003.png,,,,,,,,,,,,0,2,,,,,,,2,0,2,0,,,,,,,,,,,2495.3972,2495.9005,2496.1447,2501.0231,space,4.8392,,2501.0233,80,20,2502.0255,2502.0257,2502.0396,,,,0,9,9,9,1,125,65,,,,,,,,
,,64fead10d35271cb8eafc1c2,65af55813f5fcc7f4ffca798,2024-01-23_08h11.10.299,bars,2023.2.3,Win32,60.24096386,657b66ea316d21385b68909f,,,,,,,,,,,2502.0399,2503.0337,,,2503.5286,2503.7787,,21,201,,,,,,,,,,,,,,,,bars/017.png,bars/mask008.png,,,,,,,,,,,,0,2,,,,,,,4,0,4,0,,,,,,,,,,,2503.0337,2503.5286,2503.7788,2506.8146,space,3.0254,,2506.8147,56,24,2507.8103,2507.8103,2507.8222,,,,0,10,10,10,1,145,45,,,,,,,,
,,64fead10d35271cb8eafc1c2,65af55813f5fcc7f4ffca798,2024-01-23_08h11.10.299,bars,2023.2.3,Win32,60.24096386,657b66ea316d21385b68909f,,,,,,,,,,,2507.8223,2508.8225,,,2509.316,2509.57,,114,114,,,,,,,,,,,,,,,,bars/027.png,bars/mask008.png,,,,,,,,,,,,5,1,,,,,,,6,0,6,0,,,,,,,,,,,2508.8225,2509.3157,2509.57,2513.951,space,4.3493,,2513.9511,4,64,2514.9465,2514.9468,2514.9634,,,,0,11,11,11,1,110,50,,,,,,,,
,,64fead10d35271cb8eafc1c2,65af55813f5fcc7f4ffca798,2024-01-23_08h11.10.299,bars,2023.2.3,Win32,60.24096386,657b66ea316d21385b68909f,,,,,,,,,,,2514.9671,2515.9582,,,2516.4572,2516.7248,,34,34,,,,,,,,,,,,,,,,bars/017.png,bars/mask007.png,,,,,,,,,,,,1,2,,,,,,,4,0,5,1,,,,,,,,,,,2515.9582,2516.4571,2516.7248,2520.6048,space,3.8517,,2520.6049,69,11,2521.6005,2521.6005,2521.6113,,,,0,12,12,12,1,145,45,,,,,,,,
,,64fead10d35271cb8eafc1c2,65af55813f5fcc7f4ffca798,2024-01-23_08h11.10.299,bars,2023.2.3,Win32,60.24096386,657b66ea316d21385b68909f,,,,,,,,,,,2521.6115,2522.5778,,,2523.1143,2523.3597,,158,-22,,,,,,,,,,,,,,,,bars/048.png,bars/mask004.png,,,,,,,,,,,,0,2,,,,,,,6,0,6,0,,,,,,,,,,,2522.5779,2523.1142,2523.3597,2527.99,space,4.6103,,2527.9901,72,17,2528.985,2528.9851,2528.9959,,,,0,13,13,13,1,50,175,,,,,,,,
,,64fead10d35271cb8eafc1c2,65af55813f5fcc7f4ffca798,2024-01-23_08h11.10.299,bars,2023.2.3,Win32,60.24096386,657b66ea316d21385b68909f,,,,,,,,,,,2528.996,2529.9895,,,2530.494,2530.7443,,11,11,,,,,,,,,,,,,,,,bars/014.png,bars/mask004.png,,,,,,,,,,,,0,2,,,,,,,4,0,4,0,,,,,,,,,,,2529.9896,2530.494,2530.7444,2532.1616,space,1.4114,,2532.1616,69,11,2533.1507,2533.1507,2533.152,,,,0,14,14,14,1,80,0,,,,,,,,
,,64fead10d35271cb8eafc1c2,65af55813f5fcc7f4ffca798,2024-01-23_08h11.10.299,bars,2023.2.3,Win32,60.24096386,657b66ea316d21385b68909f,,,,,,,,,,,2533.1522,2534.1462,,,2534.6443,2534.9189,,27,207,,,,,,,,,,,,,,,,bars/014.png,bars/mask007.png,,,,,,,,,,,,0,2,,,,,,,2,2,1,3,,,,,,,,,,,2534.1462,2534.6443,2534.9189,2538.0145,space,3.0726,,2538.0145,53,27,2539.0054,2539.0055,2539.0149,,,,0,15,15,15,1,80,0,,,,,,,,
,,64fead10d35271cb8eafc1c2,65af55813f5fcc7f4ffca798,2024-01-23_08h11.10.299,bars,2023.2.3,Win32,60.24096386,657b66ea316d21385b68909f,,,,,,,,,,,2539.0151,2540.0038,,,2540.502,2540.7489,,94,94,,,,,,,,,,,,,,,,bars/042.png,bars/mask005.png,,,,,,,,,,,,2,2,,,,,,,4,4,5,5,,,,,,,,,,,2540.0039,2540.502,2540.749,2543.8712,space,3.0769,,2543.8712,51,19,2544.8683,2544.8684,2544.8806,,,,0,16,16,16,1,145,75,,,,,,,,
,,64fead10d35271cb8eafc1c2,65af55813f5fcc7f4ffca798,2024-01-23_08h11.10.299,bars,2023.2.3,Win32,60.24096386,657b66ea316d21385b68909f,,,,,,,,,,,2544.881,2545.8786,,,2546.3771,2546.6262,,24,204,,,,,,,,,,,,,,,,bars/046.png,bars/mask006.png,,,,,,,,,,,,0,1,,,,,,,6,6,4,6,,,,,,,,,,,2545.8787,2546.377,2546.6264,2550.3428,space,3.7001,,2550.3429,49,61,2551.3386,2551.3387,2551.3543,,,,0,17,17,17,1,155,85,,,,,,,,
,,64fead10d35271cb8eafc1c2,65af55813f5fcc7f4ffca798,2024-01-23_08h11.10.299,bars,2023.2.3,Win32,60.24096386,657b66ea316d21385b68909f,,,,,,,,,,,2551.3552,2552.351,,,2552.8512,2553.0974,,50,50,,,,,,,,,,,,,,,,bars/046.png,bars/mask009.png,,,,,,,,,,,,0,2,,,,,,,8,4,9,4,,,,,,,,,,,2552.351,2552.8511,2553.0975,2557.9598,space,4.8532,,2557.9598,75,35,2558.9552,2558.9553,2558.9675,,,,0,18,18,18,1,155,85,,,,,,,,
,,64fead10d35271cb8eafc1c2,65af55813f5fcc7f4ffca798,2024-01-23_08h11.10.299,bars,2023.2.3,Win32,60.24096386,657b66ea316d21385b68909f,,,,,,,,,,,2558.9678,2559.9554,,,2560.4495,2560.6979,,141,141,,,,,,,,,,,,,,,,bars/019.png,bars/mask008.png,,,,,,,,,,,,0,2,,,,,,,6,6,6,7,,,,,,,,,,,2559.9554,2560.4495,2560.698,2562.1596,space,1.453,,2562.1597,84,36,2563.1544,2563.1544,2563.1556,,,,0,19,19,19,1,45,105,,,,,,,,
,,64fead10d35271cb8eafc1c2,65af55813f5fcc7f4ffca798,2024-01-23_08h11.10.299,bars,2023.2.3,Win32,60.24096386,657b66ea316d21385b68909f,,,,,,,,,,,2563.156,2564.1502,,,2564.6475,2564.897,,40,40,,,,,,,,,,,,,,,,bars/007.png,bars/mask003.png,,,,,,,,,,,,3,2,,,,,,,4,8,4,6,,,,,,,,,,,2564.1502,2564.6475,2564.8971,2567.4688,space,2.5519,,2567.4689,45,15,2568.4645,2568.4645,2568.4753,,,,0,20,20,20,1,175,55,,,,,,,,
,,64fead10d35271cb8eafc1c2,65af55813f5fcc7f4ffca798,2024-01-23_08h11.10.299,bars,2023.2.3,Win32,60.24096386,657b66ea316d21385b68909f,,,,,,,,,,,2568.4754,2569.4766,,,2569.9577,2570.2067,,166,166,,,,,,,,,,,,,,,,bars/020.png,bars/mask008.png,,,,,,,,,,,,9,2,,,,,,,2,10,2,10,,,,,,,,,,,2569.4768,2569.9577,2570.2068,2572.364,space,2.1191,,2572.3641,51,4,2573.3602,2573.3604,2573.3753,,,,0,21,21,21,1,115,170,,,,,,,,
,,64fead10d35271cb8eafc1c2,65af55813f5fcc7f4ffca798,2024-01-23_08h11.10.299,bars,2023.2.3,Win32,60.24096386,657b66ea316d21385b68909f,,,,,,,,,,,2573.3765,2574.3724,,,2574.8878,2575.1353,,160,160,,,,,,,,,,,,,,,,bars/024.png,bars/mask007.png,,,,,,,,,,,,5,2,,,,,,,0,8,0,8,,,,,,,,,,,2574.3725,2574.8878,2575.1353,2585.2677,space,10.1261,,2585.2677,40,10,2586.2715,2586.2716,2586.2903,,,,0,22,22,22,1,120,170,,,,,,,,
,,64fead10d35271cb8eafc1c2,65af55813f5fcc7f4ffca798,2024-01-23_08h11.10.299,bars,2023.2.3,Win32,60.24096386,657b66ea316d21385b68909f,,,,,,,,,,,2586.2906,2587.2828,,,2587.7805,2588.0294,,131,-49,,,,,,,,,,,,,,,,bars/037.png,bars/mask005.png,,,,,,,,,,,,0,1,,,,,,,0,10,0,10,,,,,,,,,,,2587.2828,2587.7804,2588.0295,2591.998,space,3.9617,,2591.998,19,26,2592.9912,2592.9913,2593.0015,,,,0,23,23,23,1,150,105,,,,,,,,
,,64fead10d35271cb8eafc1c2,65af55813f5fcc7f4ffca798,2024-01-23_08h11.10.299,bars,2023.2.3,Win32,60.24096386,657b66ea316d21385b68909f,,,,,,,,,,,2593.0016,2594.0036,,,2594.5042,2594.7507,,103,103,,,,,,,,,,,,,,,,bars/023.png,bars/mask001.png,,,,,,,,,,,,6,2,,,,,,,0,10,0,10,,,,,,,,,,,2594.0036,2594.5039,2594.7508,2600.0843,space,5.32,,2600.0843,83,12,2601.0735,2601.0736,2601.0852,,,,0,24,24,24,1,20,115,,,,,,,,
,,64fead10d35271cb8eafc1c2,65af55813f5fcc7f4ffca798,2024-01-23_08h11.10.299,bars,2023.2.3,Win32,60.24096386,657b66ea316d21385b68909f,,,,,,,,,,,2601.0854,2602.0899,,,2602.5834,2602.832,,51,51,,,,,,,,,,,,,,,,bars/030.png,bars/mask002.png,,,,,,,,,,,,4,2,,,,,,,2,8,3,7,,,,,,,,,,,2602.09,2602.5833,2602.832,2605.4044,space,2.5647,,2605.4045,89,14,2606.4003,2606.4003,2606.4015,,,,0,25,25,25,1,140,65,,,,,,,,
,,64fead10d35271cb8eafc1c2,65af55813f5fcc7f4ffca798,2024-01-23_08h11.10.299,bars,2023.2.3,Win32,60.24096386,657b66ea316d21385b68909f,,,,,,,,,,,2606.4018,2607.3961,,,2607.8934,2608.1432,,37,37,,,,,,,,,,,,,,,,bars/025.png,bars/mask006.png,,,,,,,,,,,,5,2,,,,,,,0,6,0,6,,,,,,,,,,,2607.3961,2607.8934,2608.1432,2614.9653,space,6.7894,,2614.9653,68,3,2615.9631,2615.9631,2615.9778,,,,0,26,26,26,1,105,40,,,,,,,,
,,64fead10d35271cb8eafc1c2,65af55813f5fcc7f4ffca798,2024-01-23_08h11.10.299,bars,2023.2.3,Win32,60.24096386,657b66ea316d21385b68909f,,,,,,,,,,,2615.9779,2616.9776,,,2617.4745,2617.7176,,40,40,,,,,,,,,,,,,,,,bars/012.png,bars/mask003.png,,,,,,,,,,,,1,2,,,,,,,2,8,1,6,,,,,,,,,,,2616.9776,2617.4745,2617.7176,2621.2874,space,3.5526,,2621.2874,50,25,2622.2828,2622.2829,2622.303,,,,0,27,27,27,1,90,15,,,,,,,,
,,64fead10d35271cb8eafc1c2,65af55813f5fcc7f4ffca798,2024-01-23_08h11.10.299,bars,2023.2.3,Win32,60.24096386,657b66ea316d21385b68909f,,,,,,,,,,,2622.3036,2623.2938,,,2623.7916,2624.0402,,108,108,,,,,,,,,,,,,,,,bars/001.png,bars/mask000.png,,,,,,,,,,,,1,1,,,,,,,4,6,3,5,,,,,,,,,,,2623.2939,2623.7916,2624.0402,2625.252,space,1.1963,,2625.2521,22,23,2626.2476,2626.2476,2626.2584,,,,0,28,28,28,1,130,85,,,,,,,,
,,64fead10d35271cb8eafc1c2,65af55813f5fcc7f4ffca798,2024-01-23_08h11.10.299,bars,2023.2.3,Win32,60.24096386,657b66ea316d21385b68909f,,,,,,,,,,,2626.2586,2627.2595,,,2627.7574,2628.0064,,67,247,,,,,,,,,,,,,,,,bars/029.png,bars/mask004.png,,,,,,,,,,,,2,2,,,,,,,2,8,2,7,,,,,,,,,,,2627.2596,2627.7574,2628.0065,2639.5071,space,11.4946,,2639.5073,23,22,2640.5021,2640.5023,2640.5144,,,,0,29,29,29,1,90,45,,,,,,,,
,,64fead10d35271cb8eafc1c2,65af55813f5fcc7f4ffca798,2024-01-23_08h11.10.299,bars,2023.2.3,Win32,60.24096386,657b66ea316d21385b68909f,,,,,,,,,,,2640.5145,2641.5146,,,2642.0177,2642.2615,,68,68,,,,,,,,,,,,,,,,bars/007.png,bars/mask009.png,,,,,,,,,,,,6,2,,,,,,,0,10,1,10,,,,,,,,,,,2641.5146,2642.0176,2642.2616,2653.1477,space,10.8656,,2653.1477,73,13,2654.1453,2654.1454,2654.1649,,,,0,30,30,30,1,175,55,,,,,,,,
,,64fead10d35271cb8eafc1c2,65af55813f5fcc7f4ffca798,2024-01-23_08h11.10.299,bars,2023.2.3,Win32,60.24096386,657b66ea316d21385b68909f,,,,,,,,,,,2654.1651,2655.1695,,,2655.6703,2655.919,,60,240,,,,,,,,,,,,,,,,bars/010.png,bars/mask005.png,,,,,,,,,,,,6,2,,,,,,,2,8,1,7,,,,,,,,,,,2655.1695,2655.6703,2655.919,2664.1389,space,8.2138,,2664.1389,75,5,2665.1289,2665.129,2665.1414,,,,0,31,31,31,1,165,55,,,,,,,,
,,64fead10d35271cb8eafc1c2,65af55813f5fcc7f4ffca798,2024-01-23_08h11.10.299,bars,2023.2.3,Win32,60.24096386,657b66ea316d21385b68909f,,,,,,,,,,,2665.1415,2666.1372,,,2666.6394,2666.888,,64,244,,,,,,,,,,,,,,,,bars/027.png,bars/mask000.png,,,,,,,,,,,,3,2,,,,,,,0,6,0,6,,,,,,,,,,,2666.1373,2666.6394,2666.8881,2670.7545,space,3.8452,,2670.7545,46,14,2671.7505,2671.7505,2671.7666,,,,0,32,32,32,1,110,50,,,,,,,,
,,64fead10d35271cb8eafc1c2,65af55813f5fcc7f4ffca798,2024-01-23_08h11.10.299,bars,2023.2.3,Win32,60.24096386,657b66ea316d21385b68909f,,,,,,,,,,,2671.7671,2672.7631,,,2673.2623,2673.5099,,158,-22,,,,,,,,,,,,,,,,bars/032.png,bars/mask000.png,,,,,,,,,,,,0,1,,,,,,,2,8,4,8,,,,,,,,,,,2672.7631,2673.2623,2673.5099,2675.8479,space,2.3086,,2675.848,33,42,2676.8493,2676.8494,2676.8525,,,,0,33,33,33,1,125,20,,,,,,,,
,,64fead10d35271cb8eafc1c2,65af55813f5fcc7f4ffca798,2024-01-23_08h11.10.299,bars,2023.2.3,Win32,60.24096386,657b66ea316d21385b68909f,,,,,,,,,,,2676.8528,2677.8411,,,2678.3396,2678.5873,,50,230,,,,,,,,,,,,,,,,bars/035.png,bars/mask004.png,,,,,,,,,,,,7,2,,,,,,,0,10,0,10,,,,,,,,,,,2677.8412,2678.3395,2678.5873,2685.9384,space,7.3442,,2685.9384,55,10,2686.9696,2686.9697,2686.9808,,,,0,34,34,34,1,175,60,,,,,,,,
,,64fead10d35271cb8eafc1c2,65af55813f5fcc7f4ffca798,2024-01-23_08h11.10.299,bars,2023.2.3,Win32,60.24096386,657b66ea316d21385b68909f,,,,,,,,,,,2686.9809,2687.9774,,,2688.4785,2688.7268,,161,161,,,,,,,,,,,,,,,,bars/013.png,bars/mask009.png,,,,,,,,,,,,0,2,,,,,,,0,10,0,8,,,,,,,,,,,2687.9775,2688.4785,2688.7268,2694.1405,space,5.4062,,2694.1406,86,29,2695.1325,2695.1325,2695.1441,,,,0,35,35,35,1,75,10,,,,,,,,
,,64fead10d35271cb8eafc1c2,65af55813f5fcc7f4ffca798,2024-01-23_08h11.10.299,bars,2023.2.3,Win32,60.24096386,657b66ea316d21385b68909f,,,,,,,,,,,2695.1442,2696.1454,,,2696.6427,2696.8915,,64,64,,,,,,,,,,,,,,,,bars/048.png,bars/mask000.png,,,,,,,,,,,,0,1,,,,,,,0,10,0,9,,,,,,,,,,,2696.1454,2696.6424,2696.8915,2699.5235,space,2.626,,2699.5235,14,69,2700.5279,2700.528,2700.5394,,,,0,36,36,36,1,50,175,,,,,,,,
,,64fead10d35271cb8eafc1c2,65af55813f5fcc7f4ffca798,2024-01-23_08h11.10.299,bars,2023.2.3,Win32,60.24096386,657b66ea316d21385b68909f,,,,,,,,,,,2700.5396,2701.5221,,,2702.0194,2702.269,,162,162,,,,,,,,,,,,,,,,bars/032.png,bars/mask006.png,,,,,,,,,,,,0,1,,,,,,,2,8,2,8,,,,,,,,,,,2701.5222,2702.0193,2702.269,2704.9069,space,2.595,,2704.907,37,38,2705.9025,2705.9025,2705.9158,,,,0,37,37,37,1,125,20,,,,,,,,
,,64fead10d35271cb8eafc1c2,65af55813f5fcc7f4ffca798,2024-01-23_08h11.10.299,bars,2023.2.3,Win32,60.24096386,657b66ea316d21385b68909f,,,,,,,,,,,2705.9161,2706.9152,,,2707.4128,2707.6617,,132,-48,,,,,,,,,,,,,,,,bars/048.png,bars/mask000.png,,,,,,,,,,,,0,2,,,,,,,0,6,0,7,,,,,,,,,,,2706.9153,2707.4128,2707.6618,2710.4685,space,2.7971,,2710.4686,82,43,2711.4617,2711.4618,2711.4747,,,,0,38,38,38,1,50,175,,,,,,,,
,,64fead10d35271cb8eafc1c2,65af55813f5fcc7f4ffca798,2024-01-23_08h11.10.299,bars,2023.2.3,Win32,60.24096386,657b66ea316d21385b68909f,,,,,,,,,,,2711.4749,2712.4574,,,2712.9535,2713.2043,,158,158,,,,,,,,,,,,,,,,bars/046.png,bars/mask006.png,,,,,,,,,,,,1,1,,,,,,,0,4,1,3,,,,,,,,,,,2712.4574,2712.9534,2713.2045,2717.4692,space,4.2529,,2717.4692,3,73,2718.4577,2718.4578,2718.4704,,,,0,39,39,39,1,155,85,,,,,,,,
,,64fead10d35271cb8eafc1c2,65af55813f5fcc7f4ffca798,2024-01-23_08h11.10.299,bars,2023.2.3,Win32,60.24096386,657b66ea316d21385b68909f,,,,,,,,,,,2718.4711,2719.4665,,,2719.9586,2720.2041,,126,126,,,,,,,,,,,,,,,,bars/009.png,bars/mask009.png,,,,,,,,,,,,2,2,,,,,,,0,6,1,6,,,,,,,,,,,2719.4665,2719.9586,2720.2041,2729.1589,space,8.9455,,2729.1589,69,21,2730.148,2730.1481,2730.1615,,,,0,40,40,40,1,15,105,,,,,,,,
,,64fead10d35271cb8eafc1c2,65af55813f5fcc7f4ffca798,2024-01-23_08h11.10.299,bars,2023.2.3,Win32,60.24096386,657b66ea316d21385b68909f,,,,,,,,,,,2730.1616,2731.1599,,,2731.665,2731.9064,,141,-39,,,,,,,,,,,,,,,,bars/040.png,bars/mask001.png,,,,,,,,,,,,2,1,,,,,,,2,4,2,3,,,,,,,,,,,2731.1599,2731.665,2731.9065,2738.1794,space,6.2666,,2738.1794,1,44,2739.1752,2739.1753,2739.1879,,,,0,41,41,41,1,140,5,,,,,,,,
,,64fead10d35271cb8eafc1c2,65af55813f5fcc7f4ffca798,2024-01-23_08h11.10.299,bars,2023.2.3,Win32,60.24096386,657b66ea316d21385b68909f,,,,,,,,,,,2739.1882,2740.1874,,,2740.6921,2740.9342,,5,5,,,,,,,,,,,,,,,,bars/014.png,bars/mask006.png,,,,,,,,,,,,6,2,,,,,,,4,6,3,7,,,,,,,,,,,2740.1874,2740.692,2740.9342,2745.5475,space,4.5823,,2745.5476,75,5,2746.5514,2746.5514,2746.5641,,,,0,42,42,42,1,80,0,,,,,,,,
,,64fead10d35271cb8eafc1c2,65af55813f5fcc7f4ffca798,2024-01-23_08h11.10.299,bars,2023.2.3,Win32,60.24096386,657b66ea316d21385b68909f,,,,,,,,,,,2746.5642,2747.5556,,,2748.0533,2748.3022,,15,15,,,,,,,,,,,,,,,,bars/010.png,bars/mask007.png,,,,,,,,,,,,0,1,,,,,,,2,4,3,4,,,,,,,,,,,2747.5558,2748.0533,2748.3023,2753.2658,space,4.9505,,2753.2659,30,40,2754.2602,2754.2602,2754.2735,,,,0,43,43,43,1,165,55,,,,,,,,
,,64fead10d35271cb8eafc1c2,65af55813f5fcc7f4ffca798,2024-01-23_08h11.10.299,bars,2023.2.3,Win32,60.24096386,657b66ea316d21385b68909f,,,,,,,,,,,2754.2737,2755.2721,,,2755.7701,2756.0195,,137,-43,,,,,,,,,,,,,,,,bars/028.png,bars/mask001.png,,,,,,,,,,,,0,2,,,,,,,0,2,0,0,,,,,,,,,,,2755.2721,2755.7701,2756.0196,2760.9982,space,4.9669,,2760.9984,88,17,2761.9934,2761.9934,2762.0083,,,,0,44,44,44,1,45,120,,,,,,,,
,,64fead10d35271cb8eafc1c2,65af55813f5fcc7f4ffca798,2024-01-23_08h11.10.299,bars,2023.2.3,Win32,60.24096386,657b66ea316d21385b68909f,,,,,,,,,,,2762.0085,2762.9851,,,2763.4865,2763.7355,,142,142,,,,,,,,,,,,,,,,bars/018.png,bars/mask004.png,,,,,,,,,,,,1,1,,,,,,,2,4,2,3,,,,,,,,,,,2762.9852,2763.4864,2763.7355,2769.3779,space,5.6203,,2769.378,8,52,2770.3732,2770.3732,2770.3852,,,,0,45,45,45,1,150,90,,,,,,,,
,,64fead10d35271cb8eafc1c2,65af55813f5fcc7f4ffca798,2024-01-23_08h11.10.299,bars,2023.2.3,Win32,60.24096386,657b66ea316d21385b68909f,,,,,,,,,,,2770.3856,2771.3864,,,2771.8874,2772.1324,,56,236,,,,,,,,,,,,,,,,bars/045.png,bars/mask009.png,,,,,,,,,,,,0,1,,,,,,,4,6,4,6,,,,,,,,,,,2771.3866,2771.8873,2772.1324,2775.897,space,3.7501,,2775.8971,44,46,2776.8955,2776.8955,2776.9094,,,,0,46,46,46,1,100,10,,,,,,,,
,,64fead10d35271cb8eafc1c2,65af55813f5fcc7f4ffca798,2024-01-23_08h11.10.299,bars,2023.2.3,Win32,60.24096386,657b66ea316d21385b68909f,,,,,,,,,,,2776.9096,2777.9136,,,2778.4056,2778.654,,144,144,,,,,,,,,,,,,,,,bars/001.png,bars/mask005.png,,,,,,,,,,,,1,1,,,,,,,2,8,2,7,,,,,,,,,,,2777.9136,2778.4056,2778.6541,2782.5551,space,3.8725,,2782.5551,14,59,2783.5496,2783.5496,2783.5589,,,,0,47,47,47,1,130,85,,,,,,,,
,,64fead10d35271cb8eafc1c2,65af55813f5fcc7f4ffca798,2024-01-23_08h11.10.299,bars,2023.2.3,Win32,60.24096386,657b66ea316d21385b68909f,,,,,,,,,,,2783.5592,2784.5634,,,2785.06,2785.3091,,39,219,,,,,,,,,,,,,,,,bars/012.png,bars/mask002.png,,,,,,,,,,,,1,2,,,,,,,4,6,2,5,,,,,,,,,,,2784.5634,2785.06,2785.3091,2789.1261,space,3.7923,,2789.1261,51,24,2790.1211,2790.1212,2790.1336,,,,0,48,48,48,1,90,15,,,,,,,,
,,64fead10d35271cb8eafc1c2,65af55813f5fcc7f4ffca798,2024-01-23_08h11.10.299,bars,2023.2.3,Win32,60.24096386,657b66ea316d21385b68909f,,,,,,,,,,,2790.134,2791.1333,,,2791.6375,2791.8802,,50,230,,,,,,,,,,,,,,,,bars/007.png,bars/mask004.png,,,,,,,,,,,,7,2,,,,,,,2,8,1,8,,,,,,,,,,,2791.1335,2791.6375,2791.8802,2796.5246,space,4.6369,,2796.5246,55,5,2797.5224,2797.5225,2797.5319,,,,0,49,49,49,1,175,55,,,,,,,,
,,64fead10d35271cb8eafc1c2,65af55813f5fcc7f4ffca798,2024-01-23_08h11.10.299,bars,2023.2.3,Win32,60.24096386,657b66ea316d21385b68909f,,,,,,,,,,,,,,,,,,,,,,,,,,,,,,,,,,,,,,,,,,,,,,,,,,,,,,,,,,,,,,,,,,,,,,,,,,,,,,,,,,,,,,,,,,,,,2797.5353,2857.5292,0,2,2,4,1,sequence_tables/blk042.csv
,,64fead10d35271cb8eafc1c2,65af55813f5fcc7f4ffca798,2024-01-23_08h11.10.299,bars,2023.2.3,Win32,60.24096386,657b66ea316d21385b68909f,,,,,,,,,,,3096.7611,3097.723,,,3098.2162,3098.4704,,121,121,,,,,,,,,,,,,,,,bars/019.png,bars/mask002.png,,,,,,,,,,,,4,2,,,,,,,10,7,10,8,,,,,,2857.5419,3096.7157,space,239.1475,,3097.7231,3098.216,3098.4704,3100.7795,space,2.2796,,3100.7795,76,16,3101.7717,3101.7718,3101.7828,,,,0,0,0,0,1,45,105,,,,,,,,
,,64fead10d35271cb8eafc1c2,65af55813f5fcc7f4ffca798,2024-01-23_08h11.10.299,bars,2023.2.3,Win32,60.24096386,657b66ea316d21385b68909f,,,,,,,,,,,3101.783,3102.7889,,,3103.2822,3103.531,,66,66,,,,,,,,,,,,,,,,bars/039.png,bars/mask008.png,,,,,,,,,,,,0,2,,,,,,,10,5,10,6,,,,,,,,,,,3102.789,3103.2822,3103.531,3105.9207,space,2.3773,,3105.9207,71,39,3106.9167,3106.9169,3106.9284,,,,0,1,1,1,1,175,105,,,,,,,,
,,64fead10d35271cb8eafc1c2,65af55813f5fcc7f4ffca798,2024-01-23_08h11.10.299,bars,2023.2.3,Win32,60.24096386,657b66ea316d21385b68909f,,,,,,,,,,,3106.9286,3107.9283,,,3108.4268,3108.6693,,140,-40,,,,,,,,,,,,,,,,bars/009.png,bars/mask009.png,,,,,,,,,,,,0,2,,,,,,,10,3,9,3,,,,,,,,,,,3107.9285,3108.4268,3108.6694,3111.4466,space,2.7679,,3111.4466,55,35,3112.443,3112.443,3112.4574,,,,0,2,2,2,1,15,105,,,,,,,,
,,64fead10d35271cb8eafc1c2,65af55813f5fcc7f4ffca798,2024-01-23_08h11.10.299,bars,2023.2.3,Win32,60.24096386,657b66ea316d21385b68909f,,,,,,,,,,,3112.4576,3113.4545,,,3113.953,3114.2016,,42,42,,,,,,,,,,,,,,,,bars/034.png,bars/mask009.png,,,,,,,,,,,,0,2,,,,,,,8,1,6,0,,,,,,,,,,,3113.4546,3113.953,3114.2016,3116.0269,space,1.8113,,3116.027,83,23,3117.0273,3117.0275,3117.0391,,,,0,3,3,3,1,125,65,,,,,,,,
,,64fead10d35271cb8eafc1c2,65af55813f5fcc7f4ffca798,2024-01-23_08h11.10.299,bars,2023.2.3,Win32,60.24096386,657b66ea316d21385b68909f,,,,,,,,,,,3117.0394,3118.0346,,,3118.5326,3118.7918,,45,45,,,,,,,,,,,,,,,,bars/013.png,bars/mask005.png,,,,,,,,,,,,0,1,,,,,,,10,0,10,1,,,,,,,,,,,3118.0347,3118.5326,3118.7918,3122.1688,space,3.358,,3122.1689,30,35,3123.1624,3123.1625,3123.1803,,,,0,4,4,4,1,75,10,,,,,,,,
,,64fead10d35271cb8eafc1c2,65af55813f5fcc7f4ffca798,2024-01-23_08h11.10.299,bars,2023.2.3,Win32,60.24096386,657b66ea316d21385b68909f,,,,,,,,,,,3123.1807,3124.1772,,,3124.674,3124.9222,,106,106,,,,,,,,,,,,,,,,bars/018.png,bars/mask008.png,,,,,,,,,,,,0,2,,,,,,,8,0,9,1,,,,,,,,,,,3124.1773,3124.6738,3124.9222,3128.44,space,3.5013,,3128.4401,44,16,3129.4354,3129.4356,3129.4492,,,,0,5,5,5,1,150,90,,,,,,,,
,,64fead10d35271cb8eafc1c2,65af55813f5fcc7f4ffca798,2024-01-23_08h11.10.299,bars,2023.2.3,Win32,60.24096386,657b66ea316d21385b68909f,,,,,,,,,,,3129.4497,3130.4476,,,3130.9455,3131.2299,,135,135,,,,,,,,,,,,,,,,bars/003.png,bars/mask005.png,,,,,,,,,,,,2,2,,,,,,,6,2,7,2,,,,,,,,,,,3130.4476,3130.9454,3131.23,3135.0949,space,3.8483,,3135.0949,70,5,3136.0899,3136.09,3136.1017,,,,0,6,6,6,1,25,140,,,,,,,,
,,64fead10d35271cb8eafc1c2,65af55813f5fcc7f4ffca798,2024-01-23_08h11.10.299,bars,2023.2.3,Win32,60.24096386,657b66ea316d21385b68909f,,,,,,,,,,,3136.1018,3137.102,,,3137.6002,3137.8492,,127,127,,,,,,,,,,,,,,,,bars/021.png,bars/mask003.png,,,,,,,,,,,,1,1,,,,,,,8,0,9,0,,,,,,,,,,,3137.102,3137.6002,3137.8494,3141.5033,space,3.6484,,3141.5033,28,57,3142.4958,3142.4958,3142.5124,,,,0,7,7,7,1,155,70,,,,,,,,
,,64fead10d35271cb8eafc1c2,65af55813f5fcc7f4ffca798,2024-01-23_08h11.10.299,bars,2023.2.3,Win32,60.24096386,657b66ea316d21385b68909f,,,,,,,,,,,3142.5128,3143.504,,,3143.9569,3144.2179,,149,149,,,,,,,,,,,,,,,,bars/044.png,bars/mask008.png,,,,,,,,,,,,2,2,,,,,,,6,2,6,2,,,,,,,,,,,3143.5041,3143.9568,3144.218,3145.8811,space,1.6456,,3145.8812,74,6,3146.8775,3146.8775,3146.881,,,,0,8,8,8,1,75,155,,,,,,,,
,,64fead10d35271cb8eafc1c2,65af55813f5fcc7f4ffca798,2024-01-23_08h11.10.299,bars,2023.2.3,Win32,60.24096386,657b66ea316d21385b68909f,,,,,,,,,,,3146.8813,3147.8727,,,3148.3704,3148.6188,,33,33,,,,,,,,,,,,,,,,bars/014.png,bars/mask001.png,,,,,,,,,,,,0,2,,,,,,,8,0,6,0,,,,,,,,,,,3147.8727,3148.3704,3148.6188,3150.1635,space,1.5386,,3150.1636,47,33,3151.158,3151.1581,3151.1684,,,,0,9,9,9,1,80,0,,,,,,,,
,,64fead10d35271cb8eafc1c2,65af55813f5fcc7f4ffca798,2024-01-23_08h11.10.299,bars,2023.2.3,Win32,60.24096386,657b66ea316d21385b68909f,,,,,,,,,,,3151.1685,3152.1701,,,3152.6726,3152.917,,64,244,,,,,,,,,,,,,,,,bars/001.png,bars/mask006.png,,,,,,,,,,,,0,2,,,,,,,10,2,10,1,,,,,,,,,,,3152.1702,3152.6724,3152.917,3156.3449,space,3.4225,,3156.3449,66,21,3157.3222,3157.3223,3157.3376,,,,0,10,10,10,1,130,85,,,,,,,,
,,64fead10d35271cb8eafc1c2,65af55813f5fcc7f4ffca798,2024-01-23_08h11.10.299,bars,2023.2.3,Win32,60.24096386,657b66ea316d21385b68909f,,,,,,,,,,,3157.3378,3158.3272,,,3158.7965,3159.0406,,50,50,,,,,,,,,,,,,,,,bars/007.png,bars/mask006.png,,,,,,,,,,,,3,2,,,,,,,10,4,10,4,,,,,,,,,,,3158.3273,3158.7964,3159.0406,3163.5381,space,4.4783,,3163.5381,55,5,3164.5342,3164.5342,3164.5516,,,,0,11,11,11,1,175,55,,,,,,,,
,,64fead10d35271cb8eafc1c2,65af55813f5fcc7f4ffca798,2024-01-23_08h11.10.299,bars,2023.2.3,Win32,60.24096386,657b66ea316d21385b68909f,,,,,,,,,,,3164.5521,3165.5462,,,3166.0436,3166.2924,,173,173,,,,,,,,,,,,,,,,bars/044.png,bars/mask006.png,,,,,,,,,,,,1,2,,,,,,,10,2,8,2,,,,,,,,,,,3165.5464,3166.0436,3166.2924,3167.9026,space,1.5944,,3167.9027,82,18,3168.9062,3168.9062,3168.907,,,,0,12,12,12,1,75,155,,,,,,,,
,,64fead10d35271cb8eafc1c2,65af55813f5fcc7f4ffca798,2024-01-23_08h11.10.299,bars,2023.2.3,Win32,60.24096386,657b66ea316d21385b68909f,,,,,,,,,,,3168.9074,3169.91,,,3170.4088,3170.657,,32,32,,,,,,,,,,,,,,,,bars/012.png,bars/mask000.png,,,,,,,,,,,,2,2,,,,,,,8,4,8,4,,,,,,,,,,,3169.91,3170.4087,3170.6571,3178.773,space,8.1085,,3178.773,58,17,3179.7673,3179.7673,3179.7786,,,,0,13,13,13,1,90,15,,,,,,,,
,,64fead10d35271cb8eafc1c2,65af55813f5fcc7f4ffca798,2024-01-23_08h11.10.299,bars,2023.2.3,Win32,60.24096386,657b66ea316d21385b68909f,,,,,,,,,,,3179.7788,3180.7796,,,3181.2775,3181.5275,,145,-35,,,,,,,,,,,,,,,,bars/044.png,bars/mask002.png,,,,,,,,,,,,5,2,,,,,,,10,6,9,7,,,,,,,,,,,3180.7796,3181.2775,3181.5276,3189.6745,space,8.1385,,3189.6745,70,10,3190.6797,3190.6797,3190.6945,,,,0,14,14,14,1,75,155,,,,,,,,
,,64fead10d35271cb8eafc1c2,65af55813f5fcc7f4ffca798,2024-01-23_08h11.10.299,bars,2023.2.3,Win32,60.24096386,657b66ea316d21385b68909f,,,,,,,,,,,3190.6949,3191.6827,,,3192.1802,3192.4296,,148,-32,,,,,,,,,,,,,,,,bars/005.png,bars/mask008.png,,,,,,,,,,,,6,2,,,,,,,8,8,9,8,,,,,,,,,,,3191.6827,3192.1802,3192.4298,3198.3291,space,5.8564,,3198.3292,42,8,3199.3336,3199.3336,3199.3495,,,,0,15,15,15,1,10,140,,,,,,,,
,,64fead10d35271cb8eafc1c2,65af55813f5fcc7f4ffca798,2024-01-23_08h11.10.299,bars,2023.2.3,Win32,60.24096386,657b66ea316d21385b68909f,,,,,,,,,,,3199.3508,3200.3471,,,3200.8433,3201.0922,,160,-20,,,,,,,,,,,,,,,,bars/033.png,bars/mask009.png,,,,,,,,,,,,8,2,,,,,,,6,10,8,9,,,,,,,,,,,3200.3472,3200.8431,3201.0922,3203.4661,space,2.3387,,3203.4661,45,5,3204.4604,3204.4606,3204.4721,,,,0,16,16,16,1,25,155,,,,,,,,
,,64fead10d35271cb8eafc1c2,65af55813f5fcc7f4ffca798,2024-01-23_08h11.10.299,bars,2023.2.3,Win32,60.24096386,657b66ea316d21385b68909f,,,,,,,,,,,3204.4723,3205.4732,,,3205.9707,3206.2233,,122,122,,,,,,,,,,,,,,,,bars/011.png,bars/mask007.png,,,,,,,,,,,,0,2,,,,,,,4,10,3,10,,,,,,,,,,,3205.4732,3205.9706,3206.2233,3210.1363,space,3.874,,3210.1363,38,37,3211.1315,3211.1316,3211.1437,,,,0,17,17,17,1,160,85,,,,,,,,
,,64fead10d35271cb8eafc1c2,65af55813f5fcc7f4ffca798,2024-01-23_08h11.10.299,bars,2023.2.3,Win32,60.24096386,657b66ea316d21385b68909f,,,,,,,,,,,3211.1439,3212.1438,,,3212.6431,3212.8914,,22,202,,,,,,,,,,,,,,,,bars/024.png,bars/mask008.png,,,,,,,,,,,,0,2,,,,,,,2,10,1,9,,,,,,,,,,,3212.1438,3212.643,3212.8915,3217.2718,space,4.3697,,3217.2721,82,32,3218.2675,3218.2676,3218.2799,,,,0,18,18,18,1,120,170,,,,,,,,
,,64fead10d35271cb8eafc1c2,65af55813f5fcc7f4ffca798,2024-01-23_08h11.10.299,bars,2023.2.3,Win32,60.24096386,657b66ea316d21385b68909f,,,,,,,,,,,3218.2803,3219.2825,,,3219.7776,3220.0271,,33,213,,,,,,,,,,,,,,,,bars/045.png,bars/mask002.png,,,,,,,,,,,,2,2,,,,,,,0,8,0,8,,,,,,,,,,,3219.2827,3219.7775,3220.0272,3225.1102,space,5.0639,,3225.1102,67,23,3226.102,3226.1021,3226.116,,,,0,19,19,19,1,100,10,,,,,,,,
,,64fead10d35271cb8eafc1c2,65af55813f5fcc7f4ffca798,2024-01-23_08h11.10.299,bars,2023.2.3,Win32,60.24096386,657b66ea316d21385b68909f,,,,,,,,,,,3226.1173,3227.1125,,,3227.6107,3227.8606,,135,-45,,,,,,,,,,,,,,,,bars/003.png,bars/mask001.png,,,,,,,,,,,,8,2,,,,,,,0,10,1,10,,,,,,,,,,,3227.1126,3227.6107,3227.8606,3231.8149,space,3.9099,,3231.8149,70,5,3232.8127,3232.8128,3232.8239,,,,0,20,20,20,1,25,140,,,,,,,,
,,64fead10d35271cb8eafc1c2,65af55813f5fcc7f4ffca798,2024-01-23_08h11.10.299,bars,2023.2.3,Win32,60.24096386,657b66ea316d21385b68909f,,,,,,,,,,,3232.8241,3233.8171,,,3234.3147,3234.5638,,151,151,,,,,,,,,,,,,,,,bars/003.png,bars/mask006.png,,,,,,,,,,,,6,2,,,,,,,0,10,0,9,,,,,,,,,,,3233.8172,3234.3146,3234.564,3236.9209,space,2.349,,3236.921,54,11,3237.9156,3237.9157,3237.9251,,,,0,21,21,21,1,25,140,,,,,,,,
,,64fead10d35271cb8eafc1c2,65af55813f5fcc7f4ffca798,2024-01-23_08h11.10.299,bars,2023.2.3,Win32,60.24096386,657b66ea316d21385b68909f,,,,,,,,,,,3237.9253,3238.929,,,3239.4264,3239.6747,,135,135,,,,,,,,,,,,,,,,bars/028.png,bars/mask008.png,,,,,,,,,,,,5,2,,,,,,,2,10,2,10,,,,,,,,,,,3238.929,3239.4264,3239.6747,3244.7716,space,5.0895,,3244.7718,90,15,3245.765,3245.7651,3245.7797,,,,0,22,22,22,1,45,120,,,,,,,,
,,64fead10d35271cb8eafc1c2,65af55813f5fcc7f4ffca798,2024-01-23_08h11.10.299,bars,2023.2.3,Win32,60.24096386,657b66ea316d21385b68909f,,,,,,,,,,,3245.7798,3246.7878,,,3247.2921,3247.5452,,33,213,,,,,,,,,,,,,,,,bars/015.png,bars/mask008.png,,,,,,,,,,,,0,2,,,,,,,4,10,3,9,,,,,,,,,,,3246.7878,3247.2921,3247.5452,3252.3571,space,4.7342,,3252.3571,77,53,3253.3491,3253.3492,3253.3595,,,,0,23,23,23,1,110,160,,,,,,,,
,,64fead10d35271cb8eafc1c2,65af55813f5fcc7f4ffca798,2024-01-23_08h11.10.299,bars,2023.2.3,Win32,60.24096386,657b66ea316d21385b68909f,,,,,,,,,,,3253.3598,3254.3613,,,3254.8591,3255.1148,,20,20,,,,,,,,,,,,,,,,bars/028.png,bars/mask001.png,,,,,,,,,,,,0,1,,,,,,,2,10,2,8,,,,,,,,,,,3254.3613,3254.8589,3255.1149,3258.6593,space,3.4934,,3258.6594,25,80,3259.6547,3259.6548,3259.6654,,,,0,24,24,24,1,45,120,,,,,,,,
,,64fead10d35271cb8eafc1c2,65af55813f5fcc7f4ffca798,2024-01-23_08h11.10.299,bars,2023.2.3,Win32,60.24096386,657b66ea316d21385b68909f,,,,,,,,,,,3259.6656,3260.6714,,,3261.1606,3261.4141,,10,10,,,,,,,,,,,,,,,,bars/012.png,bars/mask004.png,,,,,,,,,,,,8,2,,,,,,,0,10,0,10,,,,,,,,,,,3260.6714,3261.1606,3261.4142,3264.9602,space,3.5311,,3264.9602,80,5,3265.9608,3265.9609,3265.9724,,,,0,25,25,25,1,90,15,,,,,,,,
,,64fead10d35271cb8eafc1c2,65af55813f5fcc7f4ffca798,2024-01-23_08h11.10.299,bars,2023.2.3,Win32,60.24096386,657b66ea316d21385b68909f,,,,,,,,,,,3265.9726,3266.9734,,,3267.4712,3267.7226,,120,120,,,,,,,,,,,,,,,,bars/034.png,bars/mask005.png,,,,,,,,,,,,0,1,,,,,,,0,10,0,10,,,,,,,,,,,3266.9734,3267.471,3267.7227,3273.5452,space,5.8003,,3273.5452,5,55,3274.5694,3274.5694,3274.5828,,,,0,26,26,26,1,125,65,,,,,,,,
,,64fead10d35271cb8eafc1c2,65af55813f5fcc7f4ffca798,2024-01-23_08h11.10.299,bars,2023.2.3,Win32,60.24096386,657b66ea316d21385b68909f,,,,,,,,,,,3274.583,3275.5745,,,3276.0712,3276.3161,,142,142,,,,,,,,,,,,,,,,bars/020.png,bars/mask002.png,,,,,,,,,,,,0,1,,,,,,,0,8,0,6,,,,,,,,,,,3275.5746,3276.0711,3276.3161,3282.1414,space,5.8174,,3282.1415,27,28,3283.116,3283.1161,3283.1259,,,,0,27,27,27,1,115,170,,,,,,,,
,,64fead10d35271cb8eafc1c2,65af55813f5fcc7f4ffca798,2024-01-23_08h11.10.299,bars,2023.2.3,Win32,60.24096386,657b66ea316d21385b68909f,,,,,,,,,,,3283.1261,3284.1156,,,3284.6066,3284.8461,,66,66,,,,,,,,,,,,,,,,bars/011.png,bars/mask008.png,,,,,,,,,,,,2,2,,,,,,,2,6,2,5,,,,,,,,,,,3284.1156,3284.6065,3284.8461,3288.1317,space,3.2592,,3288.1317,86,19,3289.1274,3289.1274,3289.1388,,,,0,28,28,28,1,160,85,,,,,,,,
,,64fead10d35271cb8eafc1c2,65af55813f5fcc7f4ffca798,2024-01-23_08h11.10.299,bars,2023.2.3,Win32,60.24096386,657b66ea316d21385b68909f,,,,,,,,,,,3289.139,3290.1394,,,3290.6376,3290.8932,,23,203,,,,,,,,,,,,,,,,bars/040.png,bars/mask000.png,,,,,,,,,,,,3,2,,,,,,,0,8,0,8,,,,,,,,,,,3290.1394,3290.6375,3290.8932,3298.5698,space,7.6631,,3298.5699,63,18,3299.5887,3299.5887,3299.6039,,,,0,29,29,29,1,140,5,,,,,,,,
,,64fead10d35271cb8eafc1c2,65af55813f5fcc7f4ffca798,2024-01-23_08h11.10.299,bars,2023.2.3,Win32,60.24096386,657b66ea316d21385b68909f,,,,,,,,,,,3299.6042,3300.6012,,,3301.0757,3301.325,,16,16,,,,,,,,,,,,,,,,bars/025.png,bars/mask004.png,,,,,,,,,,,,1,2,,,,,,,0,6,0,7,,,,,,,,,,,3300.6012,3301.0757,3301.3251,3308.5605,space,7.2154,,3308.5606,89,24,3309.5556,3309.5557,3309.567,,,,0,30,30,30,1,105,40,,,,,,,,
,,64fead10d35271cb8eafc1c2,65af55813f5fcc7f4ffca798,2024-01-23_08h11.10.299,bars,2023.2.3,Win32,60.24096386,657b66ea316d21385b68909f,,,,,,,,,,,3309.5672,3310.5676,,,3311.0657,3311.332,,50,50,,,,,,,,,,,,,,,,bars/029.png,bars/mask009.png,,,,,,,,,,,,8,2,,,,,,,0,8,1,10,,,,,,,,,,,3310.5677,3311.0657,3311.332,3313.7375,space,2.3427,,3313.7375,40,5,3314.7332,3314.7333,3314.7444,,,,0,31,31,31,1,90,45,,,,,,,,
,,64fead10d35271cb8eafc1c2,65af55813f5fcc7f4ffca798,2024-01-23_08h11.10.299,bars,2023.2.3,Win32,60.24096386,657b66ea316d21385b68909f,,,,,,,,,,,3314.7446,3315.7453,,,3316.2433,3316.5244,,41,41,,,,,,,,,,,,,,,,bars/010.png,bars/mask000.png,,,,,,,,,,,,5,2,,,,,,,0,10,0,10,,,,,,,,,,,3315.7453,3316.2432,3316.5244,3318.733,space,2.1722,,3318.733,56,14,3319.7281,3319.7281,3319.7394,,,,0,32,32,32,1,165,55,,,,,,,,
,,64fead10d35271cb8eafc1c2,65af55813f5fcc7f4ffca798,2024-01-23_08h11.10.299,bars,2023.2.3,Win32,60.24096386,657b66ea316d21385b68909f,,,,,,,,,,,3319.7396,3320.7404,,,3321.2386,3321.4876,,44,44,,,,,,,,,,,,,,,,bars/010.png,bars/mask006.png,,,,,,,,,,,,6,2,,,,,,,0,10,0,9,,,,,,,,,,,3320.7404,3321.2386,3321.4876,3325.8502,space,4.3549,,3325.8502,59,11,3326.8472,3326.8473,3326.8588,,,,0,33,33,33,1,165,55,,,,,,,,
,,64fead10d35271cb8eafc1c2,65af55813f5fcc7f4ffca798,2024-01-23_08h11.10.299,bars,2023.2.3,Win32,60.24096386,657b66ea316d21385b68909f,,,,,,,,,,,3326.859,3327.8599,,,3328.3688,3328.6116,,104,104,,,,,,,,,,,,,,,,bars/046.png,bars/mask001.png,,,,,,,,,,,,3,2,,,,,,,2,8,1,7,,,,,,,,,,,3327.86,3328.3688,3328.6116,3331.5776,space,2.9531,,3331.5777,51,19,3332.5737,3332.5738,3332.5837,,,,0,34,34,34,1,155,85,,,,,,,,
,,64fead10d35271cb8eafc1c2,65af55813f5fcc7f4ffca798,2024-01-23_08h11.10.299,bars,2023.2.3,Win32,60.24096386,657b66ea316d21385b68909f,,,,,,,,,,,3332.5839,3333.5848,,,3334.0837,3334.3354,,107,107,,,,,,,,,,,,,,,,bars/027.png,bars/mask002.png,,,,,,,,,,,,0,1,,,,,,,0,6,0,7,,,,,,,,,,,3333.5849,3334.0836,3334.3354,3336.5714,space,2.2307,,3336.5714,3,57,3337.5676,3337.5678,3337.571,,,,0,35,35,35,1,110,50,,,,,,,,
,,64fead10d35271cb8eafc1c2,65af55813f5fcc7f4ffca798,2024-01-23_08h11.10.299,bars,2023.2.3,Win32,60.24096386,657b66ea316d21385b68909f,,,,,,,,,,,3337.5713,3338.5631,,,3339.0616,3339.3113,,113,-67,,,,,,,,,,,,,,,,bars/011.png,bars/mask006.png,,,,,,,,,,,,1,2,,,,,,,0,8,2,8,,,,,,,,,,,3338.5632,3339.0615,3339.3114,3344.8195,space,5.4868,,3344.8195,47,28,3345.8152,3345.8153,3345.8286,,,,0,36,36,36,1,160,85,,,,,,,,
,,64fead10d35271cb8eafc1c2,65af55813f5fcc7f4ffca798,2024-01-23_08h11.10.299,bars,2023.2.3,Win32,60.24096386,657b66ea316d21385b68909f,,,,,,,,,,,3345.8288,3346.817,,,3347.3095,3347.5622,,54,54,,,,,,,,,,,,,,,,bars/028.png,bars/mask007.png,,,,,,,,,,,,0,1,,,,,,,0,6,0,7,,,,,,,,,,,3346.8171,3347.3093,3347.5623,3355.1814,space,7.5994,,3355.1814,9,66,3356.1818,3356.1818,3356.1944,,,,0,37,37,37,1,45,120,,,,,,,,
,,64fead10d35271cb8eafc1c2,65af55813f5fcc7f4ffca798,2024-01-23_08h11.10.299,bars,2023.2.3,Win32,60.24096386,657b66ea316d21385b68909f,,,,,,,,,,,3356.1946,3357.2007,,,3357.6972,3357.9535,,149,149,,,,,,,,,,,,,,,,bars/049.png,bars/mask005.png,,,,,,,,,,,,1,1,,,,,,,0,8,1,9,,,,,,,,,,,3357.2008,3357.6972,3357.9536,3359.8739,space,1.9106,,3359.874,11,34,3360.8657,3360.8657,3360.8805,,,,0,38,38,38,1,160,115,,,,,,,,
,,64fead10d35271cb8eafc1c2,65af55813f5fcc7f4ffca798,2024-01-23_08h11.10.299,bars,2023.2.3,Win32,60.24096386,657b66ea316d21385b68909f,,,,,,,,,,,3360.8807,3361.8788,,,3362.3769,3362.6531,,140,-40,,,,,,,,,,,,,,,,bars/004.png,bars/mask001.png,,,,,,,,,,,,4,2,,,,,,,2,6,2,7,,,,,,,,,,,3361.8789,3362.3768,3362.6531,3367.5212,space,4.8227,,3367.5213,65,15,3368.5172,3368.5172,3368.53,,,,0,39,39,39,1,25,125,,,,,,,,
,,64fead10d35271cb8eafc1c2,65af55813f5fcc7f4ffca798,2024-01-23_08h11.10.299,bars,2023.2.3,Win32,60.24096386,657b66ea316d21385b68909f,,,,,,,,,,,3368.5304,3369.5293,,,3370.0179,3370.2643,,107,107,,,,,,,,,,,,,,,,bars/041.png,bars/mask007.png,,,,,,,,,,,,1,2,,,,,,,4,4,5,3,,,,,,,,,,,3369.5294,3370.0179,3370.2643,3373.4134,space,3.1385,,3373.4135,87,22,3374.4084,3374.4084,3374.4184,,,,0,40,40,40,1,20,85,,,,,,,,
,,64fead10d35271cb8eafc1c2,65af55813f5fcc7f4ffca798,2024-01-23_08h11.10.299,bars,2023.2.3,Win32,60.24096386,657b66ea316d21385b68909f,,,,,,,,,,,3374.4186,3375.4203,,,3375.9189,3376.1681,,2,2,,,,,,,,,,,,,,,,bars/045.png,bars/mask002.png,,,,,,,,,,,,5,2,,,,,,,2,6,1,7,,,,,,,,,,,3375.4203,3375.9188,3376.1682,3380.5157,space,4.3311,,3380.5158,82,8,3381.5106,3381.5106,3381.5229,,,,0,41,41,41,1,100,10,,,,,,,,
,,64fead10d35271cb8eafc1c2,65af55813f5fcc7f4ffca798,2024-01-23_08h11.10.299,bars,2023.2.3,Win32,60.24096386,657b66ea316d21385b68909f,,,,,,,,,,,3381.523,3382.5257,,,3383.0209,3383.2704,,44,-136,,,,,,,,,,,,,,,,bars/017.png,bars/mask005.png,,,,,,,,,,,,3,2,,,,,,,4,4,3,3,,,,,,,,,,,3382.5257,3383.0209,3383.2704,3392.1314,space,8.8389,,3392.1315,79,1,3393.1272,3393.1272,3393.1384,,,,0,42,42,42,1,145,45,,,,,,,,
,,64fead10d35271cb8eafc1c2,65af55813f5fcc7f4ffca798,2024-01-23_08h11.10.299,bars,2023.2.3,Win32,60.24096386,657b66ea316d21385b68909f,,,,,,,,,,,3393.1386,3394.1395,,,3394.6374,3394.8816,,108,108,,,,,,,,,,,,,,,,bars/019.png,bars/mask009.png,,,,,,,,,,,,5,2,,,,,,,2,6,4,6,,,,,,,,,,,3394.1395,3394.6373,3394.8817,3398.4042,space,3.4919,,3398.4042,63,3,3399.4158,3399.416,3399.428,,,,0,43,43,43,1,45,105,,,,,,,,
,,64fead10d35271cb8eafc1c2,65af55813f5fcc7f4ffca798,2024-01-23_08h11.10.299,bars,2023.2.3,Win32,60.24096386,657b66ea316d21385b68909f,,,,,,,,,,,3399.4284,3400.4301,,,3400.931,3401.1755,,139,-41,,,,,,,,,,,,,,,,bars/024.png,bars/mask002.png,,,,,,,,,,,,0,1,,,,,,,0,8,0,8,,,,,,,,,,,3400.4303,3400.9309,3401.1756,3406.1873,space,5.0045,,3406.1875,19,31,3407.1829,3407.1832,3407.2025,,,,0,44,44,44,1,120,170,,,,,,,,
,,64fead10d35271cb8eafc1c2,65af55813f5fcc7f4ffca798,2024-01-23_08h11.10.299,bars,2023.2.3,Win32,60.24096386,657b66ea316d21385b68909f,,,,,,,,,,,3407.2032,3408.214,,,3408.7017,3408.9418,,139,-41,,,,,,,,,,,,,,,,bars/049.png,bars/mask008.png,,,,,,,,,,,,0,1,,,,,,,2,6,1,7,,,,,,,,,,,3408.214,3408.7017,3408.9419,3413.457,space,4.5007,,3413.4571,21,24,3414.4428,3414.4429,3414.4549,,,,0,45,45,45,1,160,115,,,,,,,,
,,64fead10d35271cb8eafc1c2,65af55813f5fcc7f4ffca798,2024-01-23_08h11.10.299,bars,2023.2.3,Win32,60.24096386,657b66ea316d21385b68909f,,,,,,,,,,,3414.455,3415.4469,,,3415.945,3416.1962,,144,144,,,,,,,,,,,,,,,,bars/009.png,bars/mask003.png,,,,,,,,,,,,0,2,,,,,,,0,4,0,4,,,,,,,,,,,3415.447,3415.9449,3416.1962,3422.5566,space,6.3064,,3422.5567,51,39,3423.5453,3423.5454,3423.557,,,,0,46,46,46,1,15,105,,,,,,,,
,,64fead10d35271cb8eafc1c2,65af55813f5fcc7f4ffca798,2024-01-23_08h11.10.299,bars,2023.2.3,Win32,60.24096386,657b66ea316d21385b68909f,,,,,,,,,,,3423.5571,3424.5588,,,3425.0564,3425.3043,,101,101,,,,,,,,,,,,,,,,bars/006.png,bars/mask000.png,,,,,,,,,,,,6,2,,,,,,,2,6,2,6,,,,,,,,,,,3424.5589,3425.0564,3425.3043,3429.835,space,4.5162,,3429.8351,66,1,3430.8523,3430.8523,3430.8686,,,,0,47,47,47,1,35,100,,,,,,,,
,,64fead10d35271cb8eafc1c2,65af55813f5fcc7f4ffca798,2024-01-23_08h11.10.299,bars,2023.2.3,Win32,60.24096386,657b66ea316d21385b68909f,,,,,,,,,,,3430.869,3431.8592,,,3432.3572,3432.607,,160,160,,,,,,,,,,,,,,,,bars/000.png,bars/mask004.png,,,,,,,,,,,,2,2,,,,,,,0,4,0,3,,,,,,,,,,,3431.8593,3432.357,3432.607,3434.8141,space,2.1521,,3434.8142,60,15,3435.809,3435.8091,3435.819,,,,0,48,48,48,1,40,145,,,,,,,,
,,64fead10d35271cb8eafc1c2,65af55813f5fcc7f4ffca798,2024-01-23_08h11.10.299,bars,2023.2.3,Win32,60.24096386,657b66ea316d21385b68909f,,,,,,,,,,,3435.8192,3436.8217,,,3437.3192,3437.5581,,54,54,,,,,,,,,,,,,,,,bars/025.png,bars/mask003.png,,,,,,,,,,,,2,2,,,,,,,2,2,2,3,,,,,,,,,,,3436.8217,3437.3192,3437.5581,3439.8344,space,2.2523,,3439.8344,51,14,3440.8475,3440.8475,3440.8644,,,,0,49,49,49,1,105,40,,,,,,,,
,,64fead10d35271cb8eafc1c2,65af55813f5fcc7f4ffca798,2024-01-23_08h11.10.299,bars,2023.2.3,Win32,60.24096386,657b66ea316d21385b68909f,,,,,,,,,,,,,,,,,,,,,,,,,,,,,,,,,,,,,,,,,,,,,,,,,,,,,,,,,,,,,,,,,,,,,,,,,,,,,,,,,,,,,,,,,,,,,3440.8712,3500.8611,0,3,3,2,1,sequence_tables/blk043.csv
,,64fead10d35271cb8eafc1c2,65af55813f5fcc7f4ffca798,2024-01-23_08h11.10.299,bars,2023.2.3,Win32,60.24096386,657b66ea316d21385b68909f,,,,,,,,,,,3511.0634,3512.0454,,,3512.5449,3512.7928,,117,-63,,,,,,,,,,,,,,,,bars/001.png,bars/mask001.png,,,,,,,,,,,,1,1,,,,,,,1,9,1,9,,,,,,3500.8781,3511.0335,space,10.1227,,3512.0455,3512.5449,3512.7929,3519.8453,space,7.0054,,3519.8453,13,32,3520.8409,3520.8409,3520.8579,,,,0,0,0,0,1,130,85,,,,,,,,
,,64fead10d35271cb8eafc1c2,65af55813f5fcc7f4ffca798,2024-01-23_08h11.10.299,bars,2023.2.3,Win32,60.24096386,657b66ea316d21385b68909f,,,,,,,,,,,3520.8583,3521.8535,,,3522.3511,3522.6112,,151,151,,,,,,,,,,,,,,,,bars/004.png,bars/mask006.png,,,,,,,,,,,,1,2,,,,,,,0,10,1,10,,,,,,,,,,,3521.8535,3522.351,3522.6112,3524.5614,space,1.9114,,3524.5614,54,26,3525.5557,3525.5559,3525.574,,,,0,1,1,1,1,25,125,,,,,,,,
,,64fead10d35271cb8eafc1c2,65af55813f5fcc7f4ffca798,2024-01-23_08h11.10.299,bars,2023.2.3,Win32,60.24096386,657b66ea316d21385b68909f,,,,,,,,,,,3525.5743,3526.5659,,,3527.0639,3527.3129,,115,115,,,,,,,,,,,,,,,,bars/030.png,bars/mask002.png,,,,,,,,,,,,0,1,,,,,,,0,8,0,8,,,,,,,,,,,3526.5659,3527.0639,3527.313,3530.2667,space,2.9422,,3530.2667,25,50,3531.2794,3531.2797,3531.2941,,,,0,2,2,2,1,140,65,,,,,,,,
,,64fead10d35271cb8eafc1c2,65af55813f5fcc7f4ffca798,2024-01-23_08h11.10.299,bars,2023.2.3,Win32,60.24096386,657b66ea316d21385b68909f,,,,,,,,,,,3531.2945,3532.299,,,3532.789,3533.0379,,142,142,,,,,,,,,,,,,,,,bars/011.png,bars/mask006.png,,,,,,,,,,,,0,1,,,,,,,2,10,1,9,,,,,,,,,,,3532.299,3532.789,3533.0379,3537.3858,space,4.3317,,3537.3858,18,57,3538.3819,3538.382,3538.3936,,,,0,3,3,3,1,160,85,,,,,,,,
,,64fead10d35271cb8eafc1c2,65af55813f5fcc7f4ffca798,2024-01-23_08h11.10.299,bars,2023.2.3,Win32,60.24096386,657b66ea316d21385b68909f,,,,,,,,,,,3538.3939,3539.3937,,,3539.8836,3540.1242,,44,44,,,,,,,,,,,,,,,,bars/044.png,bars/mask007.png,,,,,,,,,,,,0,1,,,,,,,0,10,0,10,,,,,,,,,,,3539.3937,3539.8835,3540.1243,3543.5425,space,3.4018,,3543.5425,31,69,3544.5439,3544.5439,3544.5565,,,,0,4,4,4,1,75,155,,,,,,,,
,,64fead10d35271cb8eafc1c2,65af55813f5fcc7f4ffca798,2024-01-23_08h11.10.299,bars,2023.2.3,Win32,60.24096386,657b66ea316d21385b68909f,,,,,,,,,,,3544.5573,3545.5503,,,3546.0485,3546.2972,,137,137,,,,,,,,,,,,,,,,bars/041.png,bars/mask007.png,,,,,,,,,,,,0,2,,,,,,,0,10,1,9,,,,,,,,,,,3545.5503,3546.0484,3546.2973,3549.2859,space,2.9741,,3549.286,63,52,3550.2799,3550.2799,3550.2903,,,,0,5,5,5,1,20,85,,,,,,,,
,,64fead10d35271cb8eafc1c2,65af55813f5fcc7f4ffca798,2024-01-23_08h11.10.299,bars,2023.2.3,Win32,60.24096386,657b66ea316d21385b68909f,,,,,,,,,,,3550.2904,3551.2927,,,3551.7906,3552.0669,,178,-2,,,,,,,,,,,,,,,,bars/015.png,bars/mask009.png,,,,,,,,,,,,4,2,,,,,,,2,10,2,9,,,,,,,,,,,3551.2927,3551.7906,3552.0669,3555.7903,space,3.6825,,3555.7904,68,18,3556.785,3556.7852,3556.7956,,,,0,6,6,6,1,110,160,,,,,,,,
,,64fead10d35271cb8eafc1c2,65af55813f5fcc7f4ffca798,2024-01-23_08h11.10.299,bars,2023.2.3,Win32,60.24096386,657b66ea316d21385b68909f,,,,,,,,,,,3556.7957,3557.7976,,,3558.2953,3558.5444,,46,46,,,,,,,,,,,,,,,,bars/015.png,bars/mask004.png,,,,,,,,,,,,0,1,,,,,,,0,8,0,8,,,,,,,,,,,3557.7976,3558.2953,3558.5444,3560.5413,space,1.9897,,3560.5414,64,66,3561.5311,3561.5313,3561.5426,,,,0,7,7,7,1,110,160,,,,,,,,
,,64fead10d35271cb8eafc1c2,65af55813f5fcc7f4ffca798,2024-01-23_08h11.10.299,bars,2023.2.3,Win32,60.24096386,657b66ea316d21385b68909f,,,,,,,,,,,3561.5429,3562.5435,,,3563.0422,3563.2903,,121,121,,,,,,,,,,,,,,,,bars/031.png,bars/mask006.png,,,,,,,,,,,,0,1,,,,,,,0,10,0,9,,,,,,,,,,,3562.5436,3563.0421,3563.2903,3564.95,space,1.6509,,3564.9501,1,86,3565.9926,3565.9926,3566.0069,,,,0,8,8,8,1,120,35,,,,,,,,
,,64fead10d35271cb8eafc1c2,65af55813f5fcc7f4ffca798,2024-01-23_08h11.10.299,bars,2023.2.3,Win32,60.24096386,657b66ea316d21385b68909f,,,,,,,,,,,3566.0071,3567.0075,,,3567.5076,3567.7547,,138,138,,,,,,,,,,,,,,,,bars/037.png,bars/mask008.png,,,,,,,,,,,,2,1,,,,,,,2,10,3,10,,,,,,,,,,,3567.0076,3567.5074,3567.7547,3570.7924,space,3.0318,,3570.7924,12,33,3571.7825,3571.7827,3571.7965,,,,0,9,9,9,1,150,105,,,,,,,,
