init_variables.started,init_variables.stopped,participant,session,date,expName,psychopyVersion,OS,frameRate,study_id,instruction_exp.started,instruction_exp.stopped,key_resp_8.keys,key_resp_8.rt,key_resp_8.duration,instruction_single.started,instruction_single.stopped,key_resp_2.keys,key_resp_2.rt,key_resp_2.duration,interval.started,interval.stopped,cue_single.started,cue_single.stopped,mask.started,mask.stopped,ori_response_single.started,res_ori,res,ori_response_single.stopped,key_resp_single.keys,key_resp_single.rt,key_resp_single.duration,disp_single.started,disp_single.stopped,key_resp.keys,key_resp.rt,key_resp.duration,single.thisRepN,single.thisTrialN,single.thisN,single.thisIndex,single.ran,ori,path,mask_path,instruction_bandit.started,instruction_bandit.stopped,key_resp_6.keys,key_resp_6.rt,key_resp_6.duration,cue_bandit.started,cue_bandit.stopped,bandit_res.keys,bandit_res.rt,bandit_res.duration,outcome_bandit.started,rew,action,outcome_bandit.stopped,bandit.thisRepN,bandit.thisTrialN,bandit.thisN,bandit.thisIndex,bandit.ran,actual_rew1,actual_rew2,rew1,rew2,instruction_task.started,instruction_task.stopped,key_resp_7.keys,key_resp_7.rt,key_resp_7.duration,wait_ready.started,wait_ready.stopped,key_resp_3.keys,key_resp_3.rt,key_resp_3.duration,cue.started,cue.stopped,ori_response.started,ori_response.stopped,key_resp_5.keys,key_resp_5.rt,key_resp_5.duration,outcome.started,diff1,diff2,outcome.stopped,disp_outcome_practice.started,disp_outcome_practice.stopped,key_resp_4.keys,key_resp_4.rt,key_resp_4.duration,trials.thisRepN,trials.thisTrialN,trials.thisN,trials.thisIndex,trials.ran,ori1,ori2,break_blk.started,break_blk.stopped,block.thisRepN,block.thisTrialN,block.thisN,block.thisIndex,block.ran,condition_file
0.0008,0.0012,615ed775a1a249fe4b81b7ea,65af56cbcbfd19b26dc0c439,2024-01-23_08h06.13.403,bars,2023.2.3,Win32,60.24096386,657b66ea316d21385b68909f,,,,,,,,,,,,,,,,,,,,,,,,,,,,,,,,,,,,,,,,,,,,,,,,,,,,,,,,,,,,,,,,,,,,,,,,,,,,,,,,,,,,,,,,,,,,,,,,,,,,
,,615ed775a1a249fe4b81b7ea,65af56cbcbfd19b26dc0c439,2024-01-23_08h06.13.403,bars,2023.2.3,Win32,60.24096386,657b66ea316d21385b68909f,0.0016,723.5729,y,723.5073,,,,,,,,,,,,,,,,,,,,,,,,,,,,,,,,,,,,,,,,,,,,,,,,,,,,,,,,,,,,,,,,,,,,,,,,,,,,,,,,,,,,,,,,,,,,,,,,
,,615ed775a1a249fe4b81b7ea,65af56cbcbfd19b26dc0c439,2024-01-23_08h06.13.403,bars,2023.2.3,Win32,60.24096386,657b66ea316d21385b68909f,,,,,,723.573,745.2764,space,21.6471,,,,,,,,,,,,,,,,,,,,,,,,,,,,,,,,,,,,,,,,,,,,,,,,,,,,,,,,,,,,,,,,,,,,,,,,,,,,,,,,,,,,,,,,,,,
,,615ed775a1a249fe4b81b7ea,65af56cbcbfd19b26dc0c439,2024-01-23_08h06.13.403,bars,2023.2.3,Win32,60.24096386,657b66ea316d21385b68909f,,,,,,,,,,,745.3106,746.2896,746.2897,746.7894,746.7896,747.0391,747.0394,148,148,757.1898,space,10.0799,,757.19,773.4235,space,16.2112,,0,0,0,2,1,145,bars/single002.png,bars/mask003.png,,,,,,,,,,,,,,,,,,,,,,,,,,,,,,,,,,,,,,,,,,,,,,,,,,,,,,,,,,,,,,,,
,,615ed775a1a249fe4b81b7ea,65af56cbcbfd19b26dc0c439,2024-01-23_08h06.13.403,bars,2023.2.3,Win32,60.24096386,657b66ea316d21385b68909f,,,,,,,,,,,773.433,774.4231,774.4233,774.9234,774.9235,775.1731,775.1731,37,37,786.4404,space,11.2507,,786.4405,791.9901,space,5.5242,,0,1,1,6,1,175,bars/single006.png,bars/mask005.png,,,,,,,,,,,,,,,,,,,,,,,,,,,,,,,,,,,,,,,,,,,,,,,,,,,,,,,,,,,,,,,,
,,615ed775a1a249fe4b81b7ea,65af56cbcbfd19b26dc0c439,2024-01-23_08h06.13.403,bars,2023.2.3,Win32,60.24096386,657b66ea316d21385b68909f,,,,,,,,,,,791.9992,792.9898,792.9899,793.49,793.49,793.7403,793.7403,142,142,801.4068,space,7.6499,,801.4069,805.1735,space,3.7394,,0,2,2,9,1,20,bars/single009.png,bars/mask006.png,,,,,,,,,,,,,,,,,,,,,,,,,,,,,,,,,,,,,,,,,,,,,,,,,,,,,,,,,,,,,,,,
,,615ed775a1a249fe4b81b7ea,65af56cbcbfd19b26dc0c439,2024-01-23_08h06.13.403,bars,2023.2.3,Win32,60.24096386,657b66ea316d21385b68909f,,,,,,,,,,,805.1823,806.1734,806.1735,806.6737,806.6738,806.9238,806.9238,159,159,815.3069,space,8.3665,,815.307,827.7074,space,12.3811,,0,3,3,3,1,20,bars/single003.png,bars/mask005.png,,,,,,,,,,,,,,,,,,,,,,,,,,,,,,,,,,,,,,,,,,,,,,,,,,,,,,,,,,,,,,,,
,,615ed775a1a249fe4b81b7ea,65af56cbcbfd19b26dc0c439,2024-01-23_08h06.13.403,bars,2023.2.3,Win32,60.24096386,657b66ea316d21385b68909f,,,,,,,,,,,827.7165,828.7073,828.7073,829.2073,829.2073,829.4583,829.4583,4,4,842.4579,space,12.9847,,842.458,849.7584,space,7.2685,,0,4,4,5,1,55,bars/single005.png,bars/mask008.png,,,,,,,,,,,,,,,,,,,,,,,,,,,,,,,,,,,,,,,,,,,,,,,,,,,,,,,,,,,,,,,,
,,615ed775a1a249fe4b81b7ea,65af56cbcbfd19b26dc0c439,2024-01-23_08h06.13.403,bars,2023.2.3,Win32,60.24096386,657b66ea316d21385b68909f,,,,,,,,,,,849.7678,850.7579,850.758,851.2579,851.258,851.5082,851.5082,12,12,858.3754,space,6.8515,,858.3757,862.8081,space,4.4078,,0,5,5,7,1,45,bars/single007.png,bars/mask009.png,,,,,,,,,,,,,,,,,,,,,,,,,,,,,,,,,,,,,,,,,,,,,,,,,,,,,,,,,,,,,,,,
,,615ed775a1a249fe4b81b7ea,65af56cbcbfd19b26dc0c439,2024-01-23_08h06.13.403,bars,2023.2.3,Win32,60.24096386,657b66ea316d21385b68909f,,,,,,,,,,,862.8166,863.8084,863.8085,864.3087,864.3088,864.5583,864.5585,27,27,869.7083,space,5.1442,,869.7084,872.4922,space,2.7623,,0,6,6,1,1,20,bars/single001.png,bars/mask006.png,,,,,,,,,,,,,,,,,,,,,,,,,,,,,,,,,,,,,,,,,,,,,,,,,,,,,,,,,,,,,,,,
,,615ed775a1a249fe4b81b7ea,65af56cbcbfd19b26dc0c439,2024-01-23_08h06.13.403,bars,2023.2.3,Win32,60.24096386,657b66ea316d21385b68909f,,,,,,,,,,,872.5014,873.4924,873.4925,873.9919,873.9919,874.242,874.2421,101,101,882.6586,space,8.4093,,882.6587,887.7931,space,5.1063,,0,7,7,8,1,160,bars/single008.png,bars/mask004.png,,,,,,,,,,,,,,,,,,,,,,,,,,,,,,,,,,,,,,,,,,,,,,,,,,,,,,,,,,,,,,,,
,,615ed775a1a249fe4b81b7ea,65af56cbcbfd19b26dc0c439,2024-01-23_08h06.13.403,bars,2023.2.3,Win32,60.24096386,657b66ea316d21385b68909f,,,,,,,,,,,887.8015,888.7922,888.7922,889.2923,889.2924,889.542,889.542,130,130,894.8426,space,5.2866,,894.8428,902.5757,space,7.7072,,0,8,8,0,1,150,bars/single000.png,bars/mask006.png,,,,,,,,,,,,,,,,,,,,,,,,,,,,,,,,,,,,,,,,,,,,,,,,,,,,,,,,,,,,,,,,
,,615ed775a1a249fe4b81b7ea,65af56cbcbfd19b26dc0c439,2024-01-23_08h06.13.403,bars,2023.2.3,Win32,60.24096386,657b66ea316d21385b68909f,,,,,,,,,,,902.5845,903.576,903.5761,904.0762,904.0763,904.326,904.3261,3,183,916.927,space,12.5917,,916.9271,919.4597,space,2.5129,,0,9,9,4,1,95,bars/single004.png,bars/mask004.png,,,,,,,,,,,,,,,,,,,,,,,,,,,,,,,,,,,,,,,,,,,,,,,,,,,,,,,,,,,,,,,,
,,615ed775a1a249fe4b81b7ea,65af56cbcbfd19b26dc0c439,2024-01-23_08h06.13.403,bars,2023.2.3,Win32,60.24096386,657b66ea316d21385b68909f,,,,,,,,,,,,,,,,,,,,,,,,,,,,,,,,,,,,,919.4609,936.7779,space,17.2927,,,,,,,,,,,,,,,,,,,,,,,,,,,,,,,,,,,,,,,,,,,,,,,,,,,,,,,,,,,,
,,615ed775a1a249fe4b81b7ea,65af56cbcbfd19b26dc0c439,2024-01-23_08h06.13.403,bars,2023.2.3,Win32,60.24096386,657b66ea316d21385b68909f,,,,,,,,,,,,,,,,,,,,,,,,,,,,,,,,,,,,,,,,,,936.8376,939.1945,right,2.3292,,939.1948,2,2,940.1936,0,0,0,0,1,9,1,9,2,,,,,,,,,,,,,,,,,,,,,,,,,,,,,,,,,,,,,,,,,
,,615ed775a1a249fe4b81b7ea,65af56cbcbfd19b26dc0c439,2024-01-23_08h06.13.403,bars,2023.2.3,Win32,60.24096386,657b66ea316d21385b68909f,,,,,,,,,,,,,,,,,,,,,,,,,,,,,,,,,,,,,,,,,,940.1945,940.827,left,0.6243,,940.827,10,1,941.8265,0,1,1,1,1,10,0,10,1,,,,,,,,,,,,,,,,,,,,,,,,,,,,,,,,,,,,,,,,,
,,615ed775a1a249fe4b81b7ea,65af56cbcbfd19b26dc0c439,2024-01-23_08h06.13.403,bars,2023.2.3,Win32,60.24096386,657b66ea316d21385b68909f,,,,,,,,,,,,,,,,,,,,,,,,,,,,,,,,,,,,,,,,,,941.8272,942.3603,left,0.5175,,942.3604,10,1,943.3606,0,2,2,2,1,10,2,10,2,,,,,,,,,,,,,,,,,,,,,,,,,,,,,,,,,,,,,,,,,
,,615ed775a1a249fe4b81b7ea,65af56cbcbfd19b26dc0c439,2024-01-23_08h06.13.403,bars,2023.2.3,Win32,60.24096386,657b66ea316d21385b68909f,,,,,,,,,,,,,,,,,,,,,,,,,,,,,,,,,,,,,,,,,,943.3609,943.977,left,0.6083,,943.9771,7,1,944.9767,0,3,3,3,1,8,4,7,3,,,,,,,,,,,,,,,,,,,,,,,,,,,,,,,,,,,,,,,,,
,,615ed775a1a249fe4b81b7ea,65af56cbcbfd19b26dc0c439,2024-01-23_08h06.13.403,bars,2023.2.3,Win32,60.24096386,657b66ea316d21385b68909f,,,,,,,,,,,,,,,,,,,,,,,,,,,,,,,,,,,,,,,,,,944.9775,945.8768,right,0.888,,945.877,1,2,946.8769,0,4,4,4,1,6,2,5,1,,,,,,,,,,,,,,,,,,,,,,,,,,,,,,,,,,,,,,,,,
,,615ed775a1a249fe4b81b7ea,65af56cbcbfd19b26dc0c439,2024-01-23_08h06.13.403,bars,2023.2.3,Win32,60.24096386,657b66ea316d21385b68909f,,,,,,,,,,,,,,,,,,,,,,,,,,,,,,,,,,,,,,,,,,946.8776,947.411,left,0.5188,,947.411,4,1,948.4101,0,5,5,5,1,4,4,4,4,,,,,,,,,,,,,,,,,,,,,,,,,,,,,,,,,,,,,,,,,
,,615ed775a1a249fe4b81b7ea,65af56cbcbfd19b26dc0c439,2024-01-23_08h06.13.403,bars,2023.2.3,Win32,60.24096386,657b66ea316d21385b68909f,,,,,,,,,,,,,,,,,,,,,,,,,,,,,,,,,,,,,,,,,,948.4107,948.8103,left,0.3895,,948.8104,1,1,949.8107,0,6,6,6,1,2,2,1,2,,,,,,,,,,,,,,,,,,,,,,,,,,,,,,,,,,,,,,,,,
,,615ed775a1a249fe4b81b7ea,65af56cbcbfd19b26dc0c439,2024-01-23_08h06.13.403,bars,2023.2.3,Win32,60.24096386,657b66ea316d21385b68909f,,,,,,,,,,,,,,,,,,,,,,,,,,,,,,,,,,,,,,,,,,949.8111,950.2104,left,0.3823,,950.2104,0,1,951.2101,0,7,7,7,1,0,0,0,1,,,,,,,,,,,,,,,,,,,,,,,,,,,,,,,,,,,,,,,,,
,,615ed775a1a249fe4b81b7ea,65af56cbcbfd19b26dc0c439,2024-01-23_08h06.13.403,bars,2023.2.3,Win32,60.24096386,657b66ea316d21385b68909f,,,,,,,,,,,,,,,,,,,,,,,,,,,,,,,,,,,,,,,,,,951.2108,951.6269,left,0.409,,951.627,1,1,952.6271,0,8,8,8,1,0,2,1,0,,,,,,,,,,,,,,,,,,,,,,,,,,,,,,,,,,,,,,,,,
,,615ed775a1a249fe4b81b7ea,65af56cbcbfd19b26dc0c439,2024-01-23_08h06.13.403,bars,2023.2.3,Win32,60.24096386,657b66ea316d21385b68909f,,,,,,,,,,,,,,,,,,,,,,,,,,,,,,,,,,,,,,,,,,952.6278,953.0274,right,0.3877,,953.0275,3,2,954.027,0,9,9,9,1,2,4,2,3,,,,,,,,,,,,,,,,,,,,,,,,,,,,,,,,,,,,,,,,,
,,615ed775a1a249fe4b81b7ea,65af56cbcbfd19b26dc0c439,2024-01-23_08h06.13.403,bars,2023.2.3,Win32,60.24096386,657b66ea316d21385b68909f,,,,,,,,,,,,,,,,,,,,,,,,,,,,,,,,,,,,,,,,,,954.0277,954.3434,right,0.3118,,954.3435,3,2,955.3439,0,10,10,10,1,0,2,0,3,,,,,,,,,,,,,,,,,,,,,,,,,,,,,,,,,,,,,,,,,
,,615ed775a1a249fe4b81b7ea,65af56cbcbfd19b26dc0c439,2024-01-23_08h06.13.403,bars,2023.2.3,Win32,60.24096386,657b66ea316d21385b68909f,,,,,,,,,,,,,,,,,,,,,,,,,,,,,,,,,,,,,,,,,,955.3447,955.7275,left,0.3685,,955.7277,0,1,956.7272,0,11,11,11,1,0,4,0,3,,,,,,,,,,,,,,,,,,,,,,,,,,,,,,,,,,,,,,,,,
,,615ed775a1a249fe4b81b7ea,65af56cbcbfd19b26dc0c439,2024-01-23_08h06.13.403,bars,2023.2.3,Win32,60.24096386,657b66ea316d21385b68909f,,,,,,,,,,,,,,,,,,,,,,,,,,,,,,,,,,,,,,,,,,956.7279,957.0102,right,0.2766,,957.0103,6,2,958.0103,0,12,12,12,1,2,6,1,6,,,,,,,,,,,,,,,,,,,,,,,,,,,,,,,,,,,,,,,,,
,,615ed775a1a249fe4b81b7ea,65af56cbcbfd19b26dc0c439,2024-01-23_08h06.13.403,bars,2023.2.3,Win32,60.24096386,657b66ea316d21385b68909f,,,,,,,,,,,,,,,,,,,,,,,,,,,,,,,,,,,,,,,,,,958.0111,958.2602,right,0.2393,,958.2602,3,2,959.2603,0,13,13,13,1,0,4,1,3,,,,,,,,,,,,,,,,,,,,,,,,,,,,,,,,,,,,,,,,,
,,615ed775a1a249fe4b81b7ea,65af56cbcbfd19b26dc0c439,2024-01-23_08h06.13.403,bars,2023.2.3,Win32,60.24096386,657b66ea316d21385b68909f,,,,,,,,,,,,,,,,,,,,,,,,,,,,,,,,,,,,,,,,,,959.2611,959.5441,right,0.2668,,959.5441,7,2,960.5439,0,14,14,14,1,2,6,2,7,,,,,,,,,,,,,,,,,,,,,,,,,,,,,,,,,,,,,,,,,
,,615ed775a1a249fe4b81b7ea,65af56cbcbfd19b26dc0c439,2024-01-23_08h06.13.403,bars,2023.2.3,Win32,60.24096386,657b66ea316d21385b68909f,,,,,,,,,,,,,,,,,,,,,,,,,,,,,,,,,,,,,,,,,,960.5447,960.8108,right,0.25,,960.8109,9,2,961.8102,0,15,15,15,1,4,8,3,9,,,,,,,,,,,,,,,,,,,,,,,,,,,,,,,,,,,,,,,,,
,,615ed775a1a249fe4b81b7ea,65af56cbcbfd19b26dc0c439,2024-01-23_08h06.13.403,bars,2023.2.3,Win32,60.24096386,657b66ea316d21385b68909f,,,,,,,,,,,,,,,,,,,,,,,,,,,,,,,,,,,,,,,,,,961.8108,962.1947,right,0.3707,,962.1948,7,2,963.1938,0,16,16,16,1,6,6,7,7,,,,,,,,,,,,,,,,,,,,,,,,,,,,,,,,,,,,,,,,,
,,615ed775a1a249fe4b81b7ea,65af56cbcbfd19b26dc0c439,2024-01-23_08h06.13.403,bars,2023.2.3,Win32,60.24096386,657b66ea316d21385b68909f,,,,,,,,,,,,,,,,,,,,,,,,,,,,,,,,,,,,,,,,,,963.1948,963.5442,right,0.3341,,963.5443,5,2,964.5441,0,17,17,17,1,8,4,9,5,,,,,,,,,,,,,,,,,,,,,,,,,,,,,,,,,,,,,,,,,
,,615ed775a1a249fe4b81b7ea,65af56cbcbfd19b26dc0c439,2024-01-23_08h06.13.403,bars,2023.2.3,Win32,60.24096386,657b66ea316d21385b68909f,,,,,,,,,,,,,,,,,,,,,,,,,,,,,,,,,,,,,,,,,,964.545,964.8771,right,0.3152,,964.8773,1,2,965.877,0,18,18,18,1,6,2,5,1,,,,,,,,,,,,,,,,,,,,,,,,,,,,,,,,,,,,,,,,,
,,615ed775a1a249fe4b81b7ea,65af56cbcbfd19b26dc0c439,2024-01-23_08h06.13.403,bars,2023.2.3,Win32,60.24096386,657b66ea316d21385b68909f,,,,,,,,,,,,,,,,,,,,,,,,,,,,,,,,,,,,,,,,,,965.8777,966.1607,left,0.2663,,966.1607,7,1,967.1601,0,19,19,19,1,8,0,7,0,,,,,,,,,,,,,,,,,,,,,,,,,,,,,,,,,,,,,,,,,
,,615ed775a1a249fe4b81b7ea,65af56cbcbfd19b26dc0c439,2024-01-23_08h06.13.403,bars,2023.2.3,Win32,60.24096386,657b66ea316d21385b68909f,,,,,,,,,,,,,,,,,,,,,,,,,,,,,,,,,,,,,,,,,,,,,,,,,,,,,,,,,,,,967.1611,982.1289,space,14.9548,,,,,,,,,,,,,,,,,,,,,,,,,,,,,,,,,,,,,
,,615ed775a1a249fe4b81b7ea,65af56cbcbfd19b26dc0c439,2024-01-23_08h06.13.403,bars,2023.2.3,Win32,60.24096386,657b66ea316d21385b68909f,,,,,,,,,,,984.2503,985.2443,,,985.7447,985.9943,,118,118,,,,,,,,,,,,,,,,bars/019.png,bars/mask002.png,,,,,,,,,,,,5,2,,,,,,,10,7,10,8,,,,,,982.1396,984.2448,space,2.0977,,985.2447,985.7447,985.9945,991.2618,space,5.2499,,991.262,73,13,992.2614,992.2618,996.9291,space,4.6091,,0,0,0,0,1,45,105,,,,,,,,
,,615ed775a1a249fe4b81b7ea,65af56cbcbfd19b26dc0c439,2024-01-23_08h06.13.403,bars,2023.2.3,Win32,60.24096386,657b66ea316d21385b68909f,,,,,,,,,,,996.9375,997.9277,,,998.4279,998.6778,,165,165,,,,,,,,,,,,,,,,bars/039.png,bars/mask008.png,,,,,,,,,,,,7,1,,,,,,,10,5,10,6,,,,,,,,,,,997.9277,998.4278,998.6779,1002.2281,space,3.5341,,1002.2284,10,60,1003.228,1003.2282,1005.5116,space,2.2608,,0,1,1,1,1,175,105,,,,,,,,
,,615ed775a1a249fe4b81b7ea,65af56cbcbfd19b26dc0c439,2024-01-23_08h06.13.403,bars,2023.2.3,Win32,60.24096386,657b66ea316d21385b68909f,,,,,,,,,,,1005.5123,1006.5114,,,1007.0115,1007.2612,,151,151,,,,,,,,,,,,,,,,bars/009.png,bars/mask009.png,,,,,,,,,,,,0,1,,,,,,,10,3,9,3,,,,,,,,,,,1006.5115,1007.0115,1007.2612,1011.0784,space,3.8085,,1011.0786,44,46,1012.0781,1012.0782,1013.7792,space,1.6742,,0,2,2,2,1,15,105,,,,,,,,
,,615ed775a1a249fe4b81b7ea,65af56cbcbfd19b26dc0c439,2024-01-23_08h06.13.403,bars,2023.2.3,Win32,60.24096386,657b66ea316d21385b68909f,,,,,,,,,,,1013.7796,1014.7781,,,1015.2788,1015.5283,,117,117,,,,,,,,,,,,,,,,bars/034.png,bars/mask009.png,,,,,,,,,,,,4,1,,,,,,,8,1,6,0,,,,,,,,,,,1014.7782,1015.2787,1015.5284,1018.3285,space,2.7908,,1018.3286,8,52,1019.3283,1019.3283,1028.3289,space,8.9743,,0,3,3,3,1,125,65,,,,,,,,
,,615ed775a1a249fe4b81b7ea,65af56cbcbfd19b26dc0c439,2024-01-23_08h06.13.403,bars,2023.2.3,Win32,60.24096386,657b66ea316d21385b68909f,,,,,,,,,,,1028.3382,1029.3285,,,1029.8289,1030.0783,,148,148,,,,,,,,,,,,,,,,bars/013.png,bars/mask005.png,,,,,,,,,,,,0,2,,,,,,,10,0,10,1,,,,,,,,,,,1029.3285,1029.8288,1030.0784,1033.6794,space,3.5857,,1033.6796,73,42,1034.6786,1034.6787,1036.0957,space,1.3945,,0,4,4,4,1,75,10,,,,,,,,
,,615ed775a1a249fe4b81b7ea,65af56cbcbfd19b26dc0c439,2024-01-23_08h06.13.403,bars,2023.2.3,Win32,60.24096386,657b66ea316d21385b68909f,,,,,,,,,,,1036.0963,1037.0955,,,1037.5958,1037.8456,,14,14,,,,,,,,,,,,,,,,bars/018.png,bars/mask008.png,,,,,,,,,,,,0,1,,,,,,,8,0,9,1,,,,,,,,,,,1037.0955,1037.5957,1037.8456,1042.9126,space,5.058,,1042.9128,44,76,1043.9125,1043.9126,1045.3294,space,1.3867,,0,5,5,5,1,150,90,,,,,,,,
,,615ed775a1a249fe4b81b7ea,65af56cbcbfd19b26dc0c439,2024-01-23_08h06.13.403,bars,2023.2.3,Win32,60.24096386,657b66ea316d21385b68909f,,,,,,,,,,,1045.33,1046.3294,,,1046.8289,1047.079,,130,130,,,,,,,,,,,,,,,,bars/003.png,bars/mask005.png,,,,,,,,,,,,1,2,,,,,,,6,2,7,2,,,,,,,,,,,1046.3296,1046.8288,1047.0791,1051.3464,space,4.2576,,1051.3466,75,10,1052.346,1052.346,1053.7134,space,1.3127,,0,6,6,6,1,25,140,,,,,,,,
,,615ed775a1a249fe4b81b7ea,65af56cbcbfd19b26dc0c439,2024-01-23_08h06.13.403,bars,2023.2.3,Win32,60.24096386,657b66ea316d21385b68909f,,,,,,,,,,,1053.7139,1054.7125,,,1055.213,1055.4627,,61,61,,,,,,,,,,,,,,,,bars/021.png,bars/mask003.png,,,,,,,,,,,,0,2,,,,,,,8,0,9,0,,,,,,,,,,,1054.7126,1055.2128,1055.4628,1059.6794,space,4.2123,,1059.6795,86,9,1060.6794,1060.6795,1062.0302,space,1.3221,,0,7,7,7,1,155,70,,,,,,,,
,,615ed775a1a249fe4b81b7ea,65af56cbcbfd19b26dc0c439,2024-01-23_08h06.13.403,bars,2023.2.3,Win32,60.24096386,657b66ea316d21385b68909f,,,,,,,,,,,1062.0306,1063.0292,,,1063.5297,1063.779,,128,128,,,,,,,,,,,,,,,,bars/044.png,bars/mask008.png,,,,,,,,,,,,0,2,,,,,,,6,2,6,2,,,,,,,,,,,1063.0293,1063.5295,1063.7791,1069.7134,space,5.9166,,1069.7137,53,27,1070.7135,1070.7136,1072.9468,space,2.2038,,0,8,8,8,1,75,155,,,,,,,,
,,615ed775a1a249fe4b81b7ea,65af56cbcbfd19b26dc0c439,2024-01-23_08h06.13.403,bars,2023.2.3,Win32,60.24096386,657b66ea316d21385b68909f,,,,,,,,,,,1072.9475,1073.9465,,,1074.4465,1074.6962,,134,134,,,,,,,,,,,,,,,,bars/014.png,bars/mask001.png,,,,,,,,,,,,0,2,,,,,,,8,0,6,0,,,,,,,,,,,1073.9465,1074.4464,1074.6962,1078.5967,space,3.8835,,1078.5967,54,46,1079.5971,1079.5972,1081.4135,space,1.7921,,0,9,9,9,1,80,0,,,,,,,,
,,615ed775a1a249fe4b81b7ea,65af56cbcbfd19b26dc0c439,2024-01-23_08h06.13.403,bars,2023.2.3,Win32,60.24096386,657b66ea316d21385b68909f,,,,,,,,,,,1081.4144,1082.4139,,,1082.9142,1083.1634,,69,69,,,,,,,,,,,,,,,,bars/001.png,bars/mask006.png,,,,,,,,,,,,0,2,,,,,,,10,2,10,1,,,,,,,,,,,1082.4141,1082.9141,1083.1635,1087.4964,space,4.3269,,1087.4964,61,16,1088.4968,1088.4968,1089.597,space,1.0716,,0,10,10,10,1,130,85,,,,,,,,
,,615ed775a1a249fe4b81b7ea,65af56cbcbfd19b26dc0c439,2024-01-23_08h06.13.403,bars,2023.2.3,Win32,60.24096386,657b66ea316d21385b68909f,,,,,,,,,,,1089.5978,1090.5963,,,1091.0964,1091.3467,,138,138,,,,,,,,,,,,,,,,bars/007.png,bars/mask006.png,,,,,,,,,,,,0,1,,,,,,,10,4,10,4,,,,,,,,,,,1090.5964,1091.0964,1091.3467,1095.0472,space,3.693,,1095.0474,37,83,1096.0469,1096.047,1097.3475,space,1.2313,,0,11,11,11,1,175,55,,,,,,,,
,,615ed775a1a249fe4b81b7ea,65af56cbcbfd19b26dc0c439,2024-01-23_08h06.13.403,bars,2023.2.3,Win32,60.24096386,657b66ea316d21385b68909f,,,,,,,,,,,1097.3479,1098.3467,,,1098.847,1099.0968,,98,98,,,,,,,,,,,,,,,,bars/044.png,bars/mask006.png,,,,,,,,,,,,2,1,,,,,,,10,2,8,2,,,,,,,,,,,1098.3468,1098.8469,1099.0968,1102.5307,space,3.4194,,1102.5308,23,57,1103.5299,1103.53,1104.9145,space,1.3557,,0,12,12,12,1,75,155,,,,,,,,
,,615ed775a1a249fe4b81b7ea,65af56cbcbfd19b26dc0c439,2024-01-23_08h06.13.403,bars,2023.2.3,Win32,60.24096386,657b66ea316d21385b68909f,,,,,,,,,,,1104.915,1105.9137,,,1106.4139,1106.6637,,40,40,,,,,,,,,,,,,,,,bars/012.png,bars/mask000.png,,,,,,,,,,,,1,2,,,,,,,8,4,8,4,,,,,,,,,,,1105.9138,1106.4138,1106.6638,1109.6305,space,2.954,,1109.6308,50,25,1110.6306,1110.6308,1112.3642,space,1.7059,,0,13,13,13,1,90,15,,,,,,,,
,,615ed775a1a249fe4b81b7ea,65af56cbcbfd19b26dc0c439,2024-01-23_08h06.13.403,bars,2023.2.3,Win32,60.24096386,657b66ea316d21385b68909f,,,,,,,,,,,1112.3651,1113.364,,,1113.8644,1114.1138,,122,122,,,,,,,,,,,,,,,,bars/044.png,bars/mask002.png,,,,,,,,,,,,0,2,,,,,,,10,6,9,7,,,,,,,,,,,1113.364,1113.8643,1114.1139,1118.6139,space,4.496,,1118.614,47,33,1119.6142,1119.6142,1120.448,space,0.805,,0,14,14,14,1,75,155,,,,,,,,
,,615ed775a1a249fe4b81b7ea,65af56cbcbfd19b26dc0c439,2024-01-23_08h06.13.403,bars,2023.2.3,Win32,60.24096386,657b66ea316d21385b68909f,,,,,,,,,,,1120.4487,1121.4471,,,1121.9475,1122.1975,,145,145,,,,,,,,,,,,,,,,bars/005.png,bars/mask008.png,,,,,,,,,,,,7,2,,,,,,,8,8,9,8,,,,,,,,,,,1121.4472,1121.9474,1122.1976,1128.5976,space,6.3966,,1128.5976,45,5,1129.5974,1129.5975,1130.5474,space,0.9324,,0,15,15,15,1,10,140,,,,,,,,
,,615ed775a1a249fe4b81b7ea,65af56cbcbfd19b26dc0c439,2024-01-23_08h06.13.403,bars,2023.2.3,Win32,60.24096386,657b66ea316d21385b68909f,,,,,,,,,,,1130.548,1131.5478,,,1132.0476,1132.2978,,34,34,,,,,,,,,,,,,,,,bars/033.png,bars/mask009.png,,,,,,,,,,,,6,1,,,,,,,6,10,8,9,,,,,,,,,,,1131.5479,1132.0475,1132.2978,1137.0141,space,4.7118,,1137.0142,9,59,1138.0142,1138.0142,1140.1316,space,2.0929,,0,16,16,16,1,25,155,,,,,,,,
,,615ed775a1a249fe4b81b7ea,65af56cbcbfd19b26dc0c439,2024-01-23_08h06.13.403,bars,2023.2.3,Win32,60.24096386,657b66ea316d21385b68909f,,,,,,,,,,,1140.1323,1141.1311,,,1141.6314,1141.8809,,167,167,,,,,,,,,,,,,,,,bars/011.png,bars/mask007.png,,,,,,,,,,,,2,1,,,,,,,4,10,3,10,,,,,,,,,,,1141.1312,1141.6312,1141.881,1145.8484,space,3.955,,1145.8485,7,82,1146.8476,1146.8476,1147.5482,space,0.6738,,0,17,17,17,1,160,85,,,,,,,,
,,615ed775a1a249fe4b81b7ea,65af56cbcbfd19b26dc0c439,2024-01-23_08h06.13.403,bars,2023.2.3,Win32,60.24096386,657b66ea316d21385b68909f,,,,,,,,,,,1147.5493,1148.5483,,,1149.0485,1149.2978,,90,90,,,,,,,,,,,,,,,,bars/024.png,bars/mask008.png,,,,,,,,,,,,0,1,,,,,,,2,10,1,9,,,,,,,,,,,1148.5483,1149.0484,1149.2979,1154.3821,space,5.0669,,1154.3822,30,80,1155.382,1155.3821,1160.8657,space,5.4561,,0,18,18,18,1,120,170,,,,,,,,
,,615ed775a1a249fe4b81b7ea,65af56cbcbfd19b26dc0c439,2024-01-23_08h06.13.403,bars,2023.2.3,Win32,60.24096386,657b66ea316d21385b68909f,,,,,,,,,,,1160.8747,1161.8646,,,1162.3651,1162.6151,,49,49,,,,,,,,,,,,,,,,bars/045.png,bars/mask002.png,,,,,,,,,,,,0,2,,,,,,,0,8,0,8,,,,,,,,,,,1161.8646,1162.365,1162.6151,1166.4483,space,3.8157,,1166.4484,51,39,1167.4482,1167.4483,1168.5653,space,1.0956,,0,19,19,19,1,100,10,,,,,,,,
,,615ed775a1a249fe4b81b7ea,65af56cbcbfd19b26dc0c439,2024-01-23_08h06.13.403,bars,2023.2.3,Win32,60.24096386,657b66ea316d21385b68909f,,,,,,,,,,,1168.5664,1169.5652,,,1170.0653,1170.3151,,167,167,,,,,,,,,,,,,,,,bars/003.png,bars/mask001.png,,,,,,,,,,,,1,2,,,,,,,0,10,1,10,,,,,,,,,,,1169.5653,1170.0652,1170.3151,1174.5823,space,4.2515,,1174.5824,38,27,1175.582,1175.582,1177.1651,space,1.5674,,0,20,20,20,1,25,140,,,,,,,,
,,615ed775a1a249fe4b81b7ea,65af56cbcbfd19b26dc0c439,2024-01-23_08h06.13.403,bars,2023.2.3,Win32,60.24096386,657b66ea316d21385b68909f,,,,,,,,,,,1177.1657,1178.1654,,,1178.6658,1178.9149,,29,29,,,,,,,,,,,,,,,,bars/003.png,bars/mask006.png,,,,,,,,,,,,0,1,,,,,,,0,10,0,9,,,,,,,,,,,1178.1654,1178.6656,1178.9149,1182.7157,space,3.7882,,1182.7158,4,69,1183.7157,1183.7158,1185.3486,space,1.6186,,0,21,21,21,1,25,140,,,,,,,,
,,615ed775a1a249fe4b81b7ea,65af56cbcbfd19b26dc0c439,2024-01-23_08h06.13.403,bars,2023.2.3,Win32,60.24096386,657b66ea316d21385b68909f,,,,,,,,,,,1185.3493,1186.3487,,,1186.8486,1187.0987,,107,107,,,,,,,,,,,,,,,,bars/028.png,bars/mask008.png,,,,,,,,,,,,6,2,,,,,,,2,10,2,10,,,,,,,,,,,1186.3489,1186.8486,1187.0988,1190.6656,space,3.5566,,1190.6658,62,13,1191.6658,1191.6658,1192.7163,space,1.0225,,0,22,22,22,1,45,120,,,,,,,,
,,615ed775a1a249fe4b81b7ea,65af56cbcbfd19b26dc0c439,2024-01-23_08h06.13.403,bars,2023.2.3,Win32,60.24096386,657b66ea316d21385b68909f,,,,,,,,,,,1192.7169,1193.7152,,,1194.2163,1194.4659,,59,59,,,,,,,,,,,,,,,,bars/015.png,bars/mask008.png,,,,,,,,,,,,0,1,,,,,,,4,10,3,9,,,,,,,,,,,1193.7152,1194.2163,1194.4661,1197.4992,space,3.0295,,1197.4993,51,79,1198.4991,1198.4991,1199.483,space,0.9532,,0,23,23,23,1,110,160,,,,,,,,
,,615ed775a1a249fe4b81b7ea,65af56cbcbfd19b26dc0c439,2024-01-23_08h06.13.403,bars,2023.2.3,Win32,60.24096386,657b66ea316d21385b68909f,,,,,,,,,,,1199.4834,1200.4823,,,1200.9823,1201.2326,,148,148,,,,,,,,,,,,,,,,bars/028.png,bars/mask001.png,,,,,,,,,,,,1,2,,,,,,,2,10,2,8,,,,,,,,,,,1200.4824,1200.9821,1201.2326,1205.1491,space,3.9122,,1205.1492,77,28,1206.1489,1206.1489,1207.0493,space,0.8814,,0,24,24,24,1,45,120,,,,,,,,
,,615ed775a1a249fe4b81b7ea,65af56cbcbfd19b26dc0c439,2024-01-23_08h06.13.403,bars,2023.2.3,Win32,60.24096386,657b66ea316d21385b68909f,,,,,,,,,,,1207.0502,1208.0492,,,1208.549,1208.7998,,171,171,,,,,,,,,,,,,,,,bars/012.png,bars/mask004.png,,,,,,,,,,,,2,2,,,,,,,0,10,0,10,,,,,,,,,,,1208.0493,1208.549,1208.7998,1213.8994,space,5.0955,,1213.8995,81,24,1214.9,1214.9001,1215.4664,space,0.5451,,0,25,25,25,1,90,15,,,,,,,,
,,615ed775a1a249fe4b81b7ea,65af56cbcbfd19b26dc0c439,2024-01-23_08h06.13.403,bars,2023.2.3,Win32,60.24096386,657b66ea316d21385b68909f,,,,,,,,,,,1215.4673,1216.466,,,1216.9664,1217.216,,137,137,,,,,,,,,,,,,,,,bars/034.png,bars/mask005.png,,,,,,,,,,,,0,1,,,,,,,0,10,0,10,,,,,,,,,,,1216.4661,1216.9663,1217.2161,1220.4331,space,3.2133,,1220.4332,12,72,1221.433,1221.4331,1222.2498,space,0.7998,,0,26,26,26,1,125,65,,,,,,,,
,,615ed775a1a249fe4b81b7ea,65af56cbcbfd19b26dc0c439,2024-01-23_08h06.13.403,bars,2023.2.3,Win32,60.24096386,657b66ea316d21385b68909f,,,,,,,,,,,1222.2505,1223.2493,,,1223.7498,1223.9995,,142,142,,,,,,,,,,,,,,,,bars/020.png,bars/mask002.png,,,,,,,,,,,,0,1,,,,,,,0,8,0,6,,,,,,,,,,,1223.2494,1223.7498,1223.9996,1231.0834,space,7.0758,,1231.0835,27,28,1232.083,1232.083,1232.5172,space,0.4106,,0,27,27,27,1,115,170,,,,,,,,
,,615ed775a1a249fe4b81b7ea,65af56cbcbfd19b26dc0c439,2024-01-23_08h06.13.403,bars,2023.2.3,Win32,60.24096386,657b66ea316d21385b68909f,,,,,,,,,,,1232.5179,1233.5167,,,1234.0164,1234.2667,,29,29,,,,,,,,,,,,,,,,bars/011.png,bars/mask008.png,,,,,,,,,,,,0,1,,,,,,,2,6,2,5,,,,,,,,,,,1233.5168,1234.0164,1234.2667,1237.2337,space,2.9599,,1237.2337,49,56,1238.2334,1238.2336,1239.2837,space,1.0264,,0,28,28,28,1,160,85,,,,,,,,
,,615ed775a1a249fe4b81b7ea,65af56cbcbfd19b26dc0c439,2024-01-23_08h06.13.403,bars,2023.2.3,Win32,60.24096386,657b66ea316d21385b68909f,,,,,,,,,,,1239.2845,1240.2835,,,1240.7831,1241.0332,,111,111,,,,,,,,,,,,,,,,bars/040.png,bars/mask000.png,,,,,,,,,,,,0,1,,,,,,,0,8,0,8,,,,,,,,,,,1240.2836,1240.7831,1241.0333,1245.3999,space,4.3619,,1245.3999,29,74,1246.4001,1246.4002,1248.0338,space,1.6071,,0,29,29,29,1,140,5,,,,,,,,
,,615ed775a1a249fe4b81b7ea,65af56cbcbfd19b26dc0c439,2024-01-23_08h06.13.403,bars,2023.2.3,Win32,60.24096386,657b66ea316d21385b68909f,,,,,,,,,,,1248.0346,1249.0337,,,1249.5336,1249.7838,,10,190,,,,,,,,,,,,,,,,bars/025.png,bars/mask004.png,,,,,,,,,,,,0,2,,,,,,,0,6,0,7,,,,,,,,,,,1249.0337,1249.5334,1249.7839,1253.2007,space,3.4011,,1253.2007,85,30,1254.2003,1254.2004,1255.7173,space,1.4909,,0,30,30,30,1,105,40,,,,,,,,
,,615ed775a1a249fe4b81b7ea,65af56cbcbfd19b26dc0c439,2024-01-23_08h06.13.403,bars,2023.2.3,Win32,60.24096386,657b66ea316d21385b68909f,,,,,,,,,,,1255.718,1256.7171,,,1257.2175,1257.4674,,74,74,,,,,,,,,,,,,,,,bars/029.png,bars/mask009.png,,,,,,,,,,,,0,1,,,,,,,0,8,1,10,,,,,,,,,,,1256.7172,1257.2173,1257.4675,1260.6348,space,3.1501,,1260.6348,16,29,1261.6336,1261.6337,1263.0174,space,1.3541,,0,31,31,31,1,90,45,,,,,,,,
,,615ed775a1a249fe4b81b7ea,65af56cbcbfd19b26dc0c439,2024-01-23_08h06.13.403,bars,2023.2.3,Win32,60.24096386,657b66ea316d21385b68909f,,,,,,,,,,,1263.0182,1264.0169,,,1264.5174,1264.7674,,112,112,,,,,,,,,,,,,,,,bars/010.png,bars/mask000.png,,,,,,,,,,,,0,1,,,,,,,0,10,0,10,,,,,,,,,,,1264.0169,1264.5173,1264.7674,1267.6838,space,2.9106,,1267.6839,53,57,1268.6841,1268.6841,1275.2676,space,6.5559,,0,32,32,32,1,165,55,,,,,,,,
,,615ed775a1a249fe4b81b7ea,65af56cbcbfd19b26dc0c439,2024-01-23_08h06.13.403,bars,2023.2.3,Win32,60.24096386,657b66ea316d21385b68909f,,,,,,,,,,,1275.2769,1276.2672,,,1276.7678,1277.0173,,132,132,,,,,,,,,,,,,,,,bars/010.png,bars/mask006.png,,,,,,,,,,,,0,1,,,,,,,0,10,0,9,,,,,,,,,,,1276.2673,1276.7677,1277.0173,1280.5842,space,3.562,,1280.5843,33,77,1281.584,1281.584,1283.051,space,1.4424,,0,33,33,33,1,165,55,,,,,,,,
,,615ed775a1a249fe4b81b7ea,65af56cbcbfd19b26dc0c439,2024-01-23_08h06.13.403,bars,2023.2.3,Win32,60.24096386,657b66ea316d21385b68909f,,,,,,,,,,,1283.0515,1284.0506,,,1284.5509,1284.8014,,161,161,,,,,,,,,,,,,,,,bars/046.png,bars/mask001.png,,,,,,,,,,,,1,1,,,,,,,2,8,1,7,,,,,,,,,,,1284.0507,1284.5509,1284.8016,1290.4175,space,5.6124,,1290.4176,6,76,1291.4177,1291.4178,1293.4015,space,1.9552,,0,34,34,34,1,155,85,,,,,,,,
,,615ed775a1a249fe4b81b7ea,65af56cbcbfd19b26dc0c439,2024-01-23_08h06.13.403,bars,2023.2.3,Win32,60.24096386,657b66ea316d21385b68909f,,,,,,,,,,,1293.4022,1294.4016,,,1294.9012,1295.1519,,38,38,,,,,,,,,,,,,,,,bars/027.png,bars/mask002.png,,,,,,,,,,,,4,2,,,,,,,0,6,0,7,,,,,,,,,,,1294.4016,1294.901,1295.152,1298.8018,space,3.6391,,1298.8019,72,12,1299.801,1299.8011,1301.7519,space,1.9231,,0,35,35,35,1,110,50,,,,,,,,
,,615ed775a1a249fe4b81b7ea,65af56cbcbfd19b26dc0c439,2024-01-23_08h06.13.403,bars,2023.2.3,Win32,60.24096386,657b66ea316d21385b68909f,,,,,,,,,,,1301.7525,1302.7515,,,1303.2515,1303.5011,,76,76,,,,,,,,,,,,,,,,bars/011.png,bars/mask006.png,,,,,,,,,,,,6,2,,,,,,,0,8,2,8,,,,,,,,,,,1302.7516,1303.2514,1303.5012,1306.3847,space,2.8709,,1306.3848,84,9,1307.3849,1307.385,1308.7189,space,1.3054,,0,36,36,36,1,160,85,,,,,,,,
,,615ed775a1a249fe4b81b7ea,65af56cbcbfd19b26dc0c439,2024-01-23_08h06.13.403,bars,2023.2.3,Win32,60.24096386,657b66ea316d21385b68909f,,,,,,,,,,,1308.7192,1309.7179,,,1310.2184,1310.4681,,114,114,,,,,,,,,,,,,,,,bars/028.png,bars/mask007.png,,,,,,,,,,,,6,2,,,,,,,0,6,0,7,,,,,,,,,,,1309.718,1310.2184,1310.4682,1314.1518,space,3.6755,,1314.1518,69,6,1315.1512,1315.1513,1317.0185,space,1.8527,,0,37,37,37,1,45,120,,,,,,,,
,,615ed775a1a249fe4b81b7ea,65af56cbcbfd19b26dc0c439,2024-01-23_08h06.13.403,bars,2023.2.3,Win32,60.24096386,657b66ea316d21385b68909f,,,,,,,,,,,1317.0192,1318.0183,,,1318.5184,1318.7682,,6,6,,,,,,,,,,,,,,,,bars/049.png,bars/mask005.png,,,,,,,,,,,,0,1,,,,,,,0,8,1,9,,,,,,,,,,,1318.0183,1318.5183,1318.7682,1323.9358,space,5.1513,,1323.936,26,71,1324.9354,1324.9355,1327.0524,space,2.0937,,0,38,38,38,1,160,115,,,,,,,,
,,615ed775a1a249fe4b81b7ea,65af56cbcbfd19b26dc0c439,2024-01-23_08h06.13.403,bars,2023.2.3,Win32,60.24096386,657b66ea316d21385b68909f,,,,,,,,,,,1327.0533,1328.052,,,1328.5519,1328.8022,,155,155,,,,,,,,,,,,,,,,bars/004.png,bars/mask001.png,,,,,,,,,,,,0,2,,,,,,,2,6,2,7,,,,,,,,,,,1328.0521,1328.5519,1328.8023,1331.4856,space,2.669,,1331.4856,50,30,1332.4852,1332.4852,1334.2859,space,1.7795,,0,39,39,39,1,25,125,,,,,,,,
,,615ed775a1a249fe4b81b7ea,65af56cbcbfd19b26dc0c439,2024-01-23_08h06.13.403,bars,2023.2.3,Win32,60.24096386,657b66ea316d21385b68909f,,,,,,,,,,,1334.2863,1335.2856,,,1335.7854,1336.0358,,83,83,,,,,,,,,,,,,,,,bars/041.png,bars/mask007.png,,,,,,,,,,,,3,2,,,,,,,4,4,5,3,,,,,,,,,,,1335.2856,1335.7853,1336.0358,1339.6362,space,3.5838,,1339.6363,63,2,1340.6355,1340.6356,1342.0689,space,1.4157,,0,40,40,40,1,20,85,,,,,,,,
,,615ed775a1a249fe4b81b7ea,65af56cbcbfd19b26dc0c439,2024-01-23_08h06.13.403,bars,2023.2.3,Win32,60.24096386,657b66ea316d21385b68909f,,,,,,,,,,,1342.0699,1343.0688,,,1343.5691,1343.8192,,155,155,,,,,,,,,,,,,,,,bars/045.png,bars/mask002.png,,,,,,,,,,,,0,2,,,,,,,2,6,1,7,,,,,,,,,,,1343.0689,1343.569,1343.8193,1347.553,space,3.7301,,1347.5531,55,35,1348.5528,1348.5528,1351.4525,space,2.8839,,0,41,41,41,1,100,10,,,,,,,,
,,615ed775a1a249fe4b81b7ea,65af56cbcbfd19b26dc0c439,2024-01-23_08h06.13.403,bars,2023.2.3,Win32,60.24096386,657b66ea316d21385b68909f,,,,,,,,,,,1351.4615,1352.4526,,,1352.9526,1353.2027,,41,41,,,,,,,,,,,,,,,,bars/017.png,bars/mask005.png,,,,,,,,,,,,3,2,,,,,,,4,4,3,3,,,,,,,,,,,1352.4527,1352.9526,1353.2027,1356.6196,space,3.4065,,1356.6197,76,4,1357.6197,1357.6197,1358.5527,space,0.9153,,0,42,42,42,1,145,45,,,,,,,,
,,615ed775a1a249fe4b81b7ea,65af56cbcbfd19b26dc0c439,2024-01-23_08h06.13.403,bars,2023.2.3,Win32,60.24096386,657b66ea316d21385b68909f,,,,,,,,,,,1358.5534,1359.5526,,,1360.0531,1360.3026,,119,119,,,,,,,,,,,,,,,,bars/019.png,bars/mask009.png,,,,,,,,,,,,3,2,,,,,,,2,6,4,6,,,,,,,,,,,1359.5526,1360.053,1360.3027,1362.7872,space,2.4816,,1362.7873,74,14,1363.7858,1363.7858,1364.8865,space,1.0775,,0,43,43,43,1,45,105,,,,,,,,
,,615ed775a1a249fe4b81b7ea,65af56cbcbfd19b26dc0c439,2024-01-23_08h06.13.403,bars,2023.2.3,Win32,60.24096386,657b66ea316d21385b68909f,,,,,,,,,,,1364.8872,1365.8863,,,1366.3862,1366.6364,,22,22,,,,,,,,,,,,,,,,bars/024.png,bars/mask002.png,,,,,,,,,,,,0,2,,,,,,,0,8,0,8,,,,,,,,,,,1365.8864,1366.3861,1366.6364,1369.7865,space,3.138,,1369.7867,82,32,1370.7862,1370.7862,1371.9527,space,1.149,,0,44,44,44,1,120,170,,,,,,,,
,,615ed775a1a249fe4b81b7ea,65af56cbcbfd19b26dc0c439,2024-01-23_08h06.13.403,bars,2023.2.3,Win32,60.24096386,657b66ea316d21385b68909f,,,,,,,,,,,1371.9536,1372.9537,,,1373.4532,1373.7033,,32,32,,,,,,,,,,,,,,,,bars/049.png,bars/mask008.png,,,,,,,,,,,,0,1,,,,,,,2,6,1,7,,,,,,,,,,,1372.9537,1373.4532,1373.7034,1376.1038,space,2.3933,,1376.1038,52,83,1377.1033,1377.1034,1379.4702,space,2.343,,0,45,45,45,1,160,115,,,,,,,,
,,615ed775a1a249fe4b81b7ea,65af56cbcbfd19b26dc0c439,2024-01-23_08h06.13.403,bars,2023.2.3,Win32,60.24096386,657b66ea316d21385b68909f,,,,,,,,,,,1379.4705,1380.4694,,,1380.9698,1381.2197,,42,42,,,,,,,,,,,,,,,,bars/009.png,bars/mask003.png,,,,,,,,,,,,0,1,,,,,,,0,4,0,4,,,,,,,,,,,1380.4695,1380.9698,1381.2197,1385.987,space,4.7595,,1385.9871,27,63,1386.9868,1386.9868,1389.8038,space,2.7925,,0,46,46,46,1,15,105,,,,,,,,
,,615ed775a1a249fe4b81b7ea,65af56cbcbfd19b26dc0c439,2024-01-23_08h06.13.403,bars,2023.2.3,Win32,60.24096386,657b66ea316d21385b68909f,,,,,,,,,,,1389.8046,1390.8034,,,1391.3037,1391.5534,,52,52,,,,,,,,,,,,,,,,bars/006.png,bars/mask000.png,,,,,,,,,,,,1,1,,,,,,,2,6,2,6,,,,,,,,,,,1390.8035,1391.3037,1391.5534,1394.5032,space,2.9431,,1394.5032,17,48,1395.5036,1395.5036,1396.7703,space,1.2422,,0,47,47,47,1,35,100,,,,,,,,
,,615ed775a1a249fe4b81b7ea,65af56cbcbfd19b26dc0c439,2024-01-23_08h06.13.403,bars,2023.2.3,Win32,60.24096386,657b66ea316d21385b68909f,,,,,,,,,,,1396.771,1397.7703,,,1398.2704,1398.5201,,152,152,,,,,,,,,,,,,,,,bars/000.png,bars/mask004.png,,,,,,,,,,,,2,2,,,,,,,0,4,0,3,,,,,,,,,,,1397.7703,1398.2703,1398.5202,1402.1712,space,3.636,,1402.1713,68,7,1403.17,1403.17,1404.8209,space,1.6239,,0,48,48,48,1,40,145,,,,,,,,
,,615ed775a1a249fe4b81b7ea,65af56cbcbfd19b26dc0c439,2024-01-23_08h06.13.403,bars,2023.2.3,Win32,60.24096386,657b66ea316d21385b68909f,,,,,,,,,,,1404.8215,1405.8205,,,1406.3202,1406.57,,90,90,,,,,,,,,,,,,,,,bars/025.png,bars/mask003.png,,,,,,,,,,,,1,1,,,,,,,2,2,2,3,,,,,,,,,,,1405.8206,1406.3201,1406.5701,1408.737,space,2.1619,,1408.7371,15,50,1409.7371,1409.7371,1411.287,space,1.531,,0,49,49,49,1,105,40,,,,,,,,
,,615ed775a1a249fe4b81b7ea,65af56cbcbfd19b26dc0c439,2024-01-23_08h06.13.403,bars,2023.2.3,Win32,60.24096386,657b66ea316d21385b68909f,,,,,,,,,,,,,,,,,,,,,,,,,,,,,,,,,,,,,,,,,,,,,,,,,,,,,,,,,,,,,,,,,,,,,,,,,,,,,,,,,,,,,,,,,,,,,1411.2879,1471.2896,0,0,0,3,1,sequence_tables/blk043.csv
,,615ed775a1a249fe4b81b7ea,65af56cbcbfd19b26dc0c439,2024-01-23_08h06.13.403,bars,2023.2.3,Win32,60.24096386,657b66ea316d21385b68909f,,,,,,,,,,,1473.5276,1474.5218,,,1475.0222,1475.272,,84,84,,,,,,,,,,,,,,,,bars/019.png,bars/mask001.png,,,,,,,,,,,,2,2,,,,,,,7,6,8,7,,,,,,1471.3011,1473.5228,space,2.2109,,1474.5218,1475.0221,1475.2722,1478.9226,space,3.6334,,1478.9228,39,21,1479.922,1479.9221,1479.932,,,,0,0,0,0,1,45,105,,,,,,,,
,,615ed775a1a249fe4b81b7ea,65af56cbcbfd19b26dc0c439,2024-01-23_08h06.13.403,bars,2023.2.3,Win32,60.24096386,657b66ea316d21385b68909f,,,,,,,,,,,1479.9322,1480.9225,,,1481.4223,1481.6723,,144,144,,,,,,,,,,,,,,,,bars/023.png,bars/mask009.png,,,,,,,,,,,,0,2,,,,,,,5,4,7,3,,,,,,,,,,,1480.9226,1481.4222,1481.6724,1484.7886,space,3.1112,,1484.7887,56,29,1485.7886,1485.7887,1485.7972,,,,0,1,1,1,1,20,115,,,,,,,,
,,615ed775a1a249fe4b81b7ea,65af56cbcbfd19b26dc0c439,2024-01-23_08h06.13.403,bars,2023.2.3,Win32,60.24096386,657b66ea316d21385b68909f,,,,,,,,,,,1485.7974,1486.7885,,,1487.2886,1487.539,,60,60,,,,,,,,,,,,,,,,bars/021.png,bars/mask000.png,,,,,,,,,,,,1,2,,,,,,,3,2,2,2,,,,,,,,,,,1486.7885,1487.2886,1487.539,1490.6561,space,3.0993,,1490.6562,85,10,1491.656,1491.656,1491.6647,,,,0,2,2,2,1,155,70,,,,,,,,
,,615ed775a1a249fe4b81b7ea,65af56cbcbfd19b26dc0c439,2024-01-23_08h06.13.403,bars,2023.2.3,Win32,60.24096386,657b66ea316d21385b68909f,,,,,,,,,,,1491.6649,1492.6556,,,1493.1802,1493.3221,,149,149,,,,,,,,,,,,,,,,bars/044.png,bars/mask009.png,,,,,,,,,,,,0,2,,,,,,,1,0,0,0,,,,,,,,,,,1492.6558,1493.1801,1493.3221,1497.9556,space,4.6297,,1497.9557,74,6,1498.956,1498.9561,1498.9656,,,,0,3,3,3,1,75,155,,,,,,,,
,,615ed775a1a249fe4b81b7ea,65af56cbcbfd19b26dc0c439,2024-01-23_08h06.13.403,bars,2023.2.3,Win32,60.24096386,657b66ea316d21385b68909f,,,,,,,,,,,1498.9657,1499.9563,,,1500.4563,1500.7061,,54,54,,,,,,,,,,,,,,,,bars/046.png,bars/mask000.png,,,,,,,,,,,,0,2,,,,,,,3,0,4,0,,,,,,,,,,,1499.9563,1500.4562,1500.7062,1502.8397,space,2.1198,,1502.8398,79,31,1503.839,1503.8391,1503.8482,,,,0,4,4,4,1,155,85,,,,,,,,
,,615ed775a1a249fe4b81b7ea,65af56cbcbfd19b26dc0c439,2024-01-23_08h06.13.403,bars,2023.2.3,Win32,60.24096386,657b66ea316d21385b68909f,,,,,,,,,,,1503.8484,1504.8392,,,1505.3396,1505.5892,,122,122,,,,,,,,,,,,,,,,bars/036.png,bars/mask006.png,,,,,,,,,,,,0,1,,,,,,,1,2,2,1,,,,,,,,,,,1504.8393,1505.3395,1505.5892,1507.5733,space,1.9703,,1507.5735,23,78,1508.5727,1508.5727,1508.5828,,,,0,5,5,5,1,145,20,,,,,,,,
,,615ed775a1a249fe4b81b7ea,65af56cbcbfd19b26dc0c439,2024-01-23_08h06.13.403,bars,2023.2.3,Win32,60.24096386,657b66ea316d21385b68909f,,,,,,,,,,,1508.583,1509.5729,,,1510.0727,1510.323,,116,116,,,,,,,,,,,,,,,,bars/038.png,bars/mask008.png,,,,,,,,,,,,0,2,,,,,,,0,4,0,5,,,,,,,,,,,1509.5729,1510.0726,1510.3231,1513.2726,space,2.9442,,1513.2727,49,46,1514.273,1514.273,1514.2833,,,,0,6,6,6,1,165,70,,,,,,,,
,,615ed775a1a249fe4b81b7ea,65af56cbcbfd19b26dc0c439,2024-01-23_08h06.13.403,bars,2023.2.3,Win32,60.24096386,657b66ea316d21385b68909f,,,,,,,,,,,1514.2835,1515.2725,,,1515.7728,1516.0227,,39,39,,,,,,,,,,,,,,,,bars/041.png,bars/mask006.png,,,,,,,,,,,,0,1,,,,,,,2,6,1,5,,,,,,,,,,,1515.2726,1515.7728,1516.0228,1518.6396,space,2.6067,,1518.6396,19,46,1519.6393,1519.6393,1519.6417,,,,0,7,7,7,1,20,85,,,,,,,,
,,615ed775a1a249fe4b81b7ea,65af56cbcbfd19b26dc0c439,2024-01-23_08h06.13.403,bars,2023.2.3,Win32,60.24096386,657b66ea316d21385b68909f,,,,,,,,,,,1519.6419,1520.6393,,,1521.1393,1521.3901,,69,69,,,,,,,,,,,,,,,,bars/041.png,bars/mask006.png,,,,,,,,,,,,1,2,,,,,,,4,4,3,2,,,,,,,,,,,1520.6394,1521.1393,1521.3902,1523.6402,space,2.2334,,1523.6403,49,16,1524.6399,1524.6401,1524.6494,,,,0,8,8,8,1,20,85,,,,,,,,
,,615ed775a1a249fe4b81b7ea,65af56cbcbfd19b26dc0c439,2024-01-23_08h06.13.403,bars,2023.2.3,Win32,60.24096386,657b66ea316d21385b68909f,,,,,,,,,,,1524.6496,1525.6405,,,1526.1395,1526.3896,,151,151,,,,,,,,,,,,,,,,bars/043.png,bars/mask006.png,,,,,,,,,,,,0,2,,,,,,,2,2,2,1,,,,,,,,,,,1525.6405,1526.1394,1526.3896,1529.7403,space,3.3333,,1529.7404,59,21,1530.7398,1530.7398,1530.7498,,,,0,9,9,9,1,30,130,,,,,,,,
,,615ed775a1a249fe4b81b7ea,65af56cbcbfd19b26dc0c439,2024-01-23_08h06.13.403,bars,2023.2.3,Win32,60.24096386,657b66ea316d21385b68909f,,,,,,,,,,,1530.75,1531.7396,,,1532.2399,1532.4896,,69,69,,,,,,,,,,,,,,,,bars/006.png,bars/mask006.png,,,,,,,,,,,,0,2,,,,,,,0,4,0,3,,,,,,,,,,,1531.7396,1532.2398,1532.4896,1534.6212,space,2.1225,,1534.6213,34,31,1535.6243,1535.6243,1535.6251,,,,0,10,10,10,1,35,100,,,,,,,,
,,615ed775a1a249fe4b81b7ea,65af56cbcbfd19b26dc0c439,2024-01-23_08h06.13.403,bars,2023.2.3,Win32,60.24096386,657b66ea316d21385b68909f,,,,,,,,,,,1535.6252,1536.6233,,,1537.1239,1537.3736,,110,110,,,,,,,,,,,,,,,,bars/049.png,bars/mask004.png,,,,,,,,,,,,5,2,,,,,,,0,6,1,6,,,,,,,,,,,1536.6233,1537.1239,1537.3736,1542.0573,space,4.6679,,1542.0574,50,5,1543.0571,1543.0572,1543.0666,,,,0,11,11,11,1,160,115,,,,,,,,
,,615ed775a1a249fe4b81b7ea,65af56cbcbfd19b26dc0c439,2024-01-23_08h06.13.403,bars,2023.2.3,Win32,60.24096386,657b66ea316d21385b68909f,,,,,,,,,,,1543.0667,1544.0565,,,1544.5568,1544.8066,,16,196,,,,,,,,,,,,,,,,bars/016.png,bars/mask009.png,,,,,,,,,,,,0,1,,,,,,,0,4,2,3,,,,,,,,,,,1544.0565,1544.5567,1544.8067,1546.9735,space,2.1518,,1546.9736,24,31,1547.9737,1547.9737,1547.9842,,,,0,12,12,12,1,40,165,,,,,,,,
,,615ed775a1a249fe4b81b7ea,65af56cbcbfd19b26dc0c439,2024-01-23_08h06.13.403,bars,2023.2.3,Win32,60.24096386,657b66ea316d21385b68909f,,,,,,,,,,,1547.9845,1548.9734,,,1549.3248,1549.3251,,0,0,,,,,,,,,,,,,,,,bars/018.png,bars/mask009.png,,,,,,,,,,,,0,1,,,,,,,0,6,0,5,,,,,,,,,,,1548.9735,1549.3248,1549.3251,1554.2905,space,4.9606,,1554.2906,30,90,1555.2906,1555.2906,1555.2999,,,,0,13,13,13,1,150,90,,,,,,,,
,,615ed775a1a249fe4b81b7ea,65af56cbcbfd19b26dc0c439,2024-01-23_08h06.13.403,bars,2023.2.3,Win32,60.24096386,657b66ea316d21385b68909f,,,,,,,,,,,1555.3002,1557.4692,,,1557.47,1557.4703,,21,21,,,,,,,,,,,,,,,,bars/048.png,bars/mask007.png,,,,,,,,,,,,1,2,,,,,,,2,8,1,8,,,,,,,,,,,1557.4693,1557.47,1557.4703,1560.5242,space,3.0242,,1560.5242,29,26,1561.524,1561.5242,1561.5351,,,,0,14,14,14,1,50,175,,,,,,,,
,,615ed775a1a249fe4b81b7ea,65af56cbcbfd19b26dc0c439,2024-01-23_08h06.13.403,bars,2023.2.3,Win32,60.24096386,657b66ea316d21385b68909f,,,,,,,,,,,1561.5353,1562.5236,,,1566.6667,1566.6676,,107,107,,,,,,,,,,,,,,,,bars/003.png,bars/mask000.png,,,,,,,,,,,,0,2,,,,,,,0,6,1,5,,,,,,,,,,,1562.5237,1566.6666,1566.6676,1569.7906,space,3.0946,,1569.7906,82,33,1570.7909,1570.791,1570.7996,,,,0,15,15,15,1,25,140,,,,,,,,
,,615ed775a1a249fe4b81b7ea,65af56cbcbfd19b26dc0c439,2024-01-23_08h06.13.403,bars,2023.2.3,Win32,60.24096386,657b66ea316d21385b68909f,,,,,,,,,,,1570.7998,1572.1518,,,1572.3073,1573.0787,,21,201,,,,,,,,,,,,,,,,bars/028.png,bars/mask003.png,,,,,,,,,,,,0,1,,,,,,,0,8,1,9,,,,,,,,,,,1572.1518,1572.3072,1573.0787,1576.5333,space,3.4519,,1576.5334,24,81,1577.524,1577.5241,1577.5335,,,,0,16,16,16,1,45,120,,,,,,,,
,,615ed775a1a249fe4b81b7ea,65af56cbcbfd19b26dc0c439,2024-01-23_08h06.13.403,bars,2023.2.3,Win32,60.24096386,657b66ea316d21385b68909f,,,,,,,,,,,1577.5336,1578.5244,,,1579.0243,1579.2744,,15,15,,,,,,,,,,,,,,,,bars/028.png,bars/mask006.png,,,,,,,,,,,,0,1,,,,,,,2,10,1,10,,,,,,,,,,,1578.5244,1579.0243,1579.2745,1580.8247,space,1.5329,,1580.8249,30,75,1581.8241,1581.8241,1581.833,,,,0,17,17,17,1,45,120,,,,,,,,
,,615ed775a1a249fe4b81b7ea,65af56cbcbfd19b26dc0c439,2024-01-23_08h06.13.403,bars,2023.2.3,Win32,60.24096386,657b66ea316d21385b68909f,,,,,,,,,,,1581.8333,1582.8239,,,1583.1573,1583.4075,,19,199,,,,,,,,,,,,,,,,bars/014.png,bars/mask006.png,,,,,,,,,,,,3,2,,,,,,,4,10,2,9,,,,,,,,,,,1582.8241,1583.1572,1583.4075,1587.9417,space,4.5265,,1587.9417,61,19,1588.9413,1588.9413,1588.9509,,,,0,18,18,18,1,80,0,,,,,,,,
,,615ed775a1a249fe4b81b7ea,65af56cbcbfd19b26dc0c439,2024-01-23_08h06.13.403,bars,2023.2.3,Win32,60.24096386,657b66ea316d21385b68909f,,,,,,,,,,,1588.951,1589.9413,,,1590.4415,1590.6574,,42,42,,,,,,,,,,,,,,,,bars/038.png,bars/mask007.png,,,,,,,,,,,,1,2,,,,,,,2,10,3,10,,,,,,,,,,,1589.9414,1590.4414,1590.6575,1594.2418,space,3.5754,,1594.242,57,28,1595.2414,1595.2415,1595.2519,,,,0,19,19,19,1,165,70,,,,,,,,
,,615ed775a1a249fe4b81b7ea,65af56cbcbfd19b26dc0c439,2024-01-23_08h06.13.403,bars,2023.2.3,Win32,60.24096386,657b66ea316d21385b68909f,,,,,,,,,,,1595.2521,1596.2418,,,1596.7416,1596.991,,48,48,,,,,,,,,,,,,,,,bars/025.png,bars/mask008.png,,,,,,,,,,,,6,2,,,,,,,0,8,0,8,,,,,,,,,,,1596.2419,1596.7415,1596.991,1600.425,space,3.4169,,1600.425,57,8,1601.4248,1601.4248,1601.4338,,,,0,20,20,20,1,105,40,,,,,,,,
,,615ed775a1a249fe4b81b7ea,65af56cbcbfd19b26dc0c439,2024-01-23_08h06.13.403,bars,2023.2.3,Win32,60.24096386,657b66ea316d21385b68909f,,,,,,,,,,,1601.4339,1602.4245,,,1602.9244,1603.175,,154,154,,,,,,,,,,,,,,,,bars/034.png,bars/mask004.png,,,,,,,,,,,,0,1,,,,,,,0,10,3,10,,,,,,,,,,,1602.4246,1602.9244,1603.1751,1606.0914,space,2.9108,,1606.0915,29,89,1607.0796,1607.0799,1607.0948,,,,0,21,21,21,1,125,65,,,,,,,,
,,615ed775a1a249fe4b81b7ea,65af56cbcbfd19b26dc0c439,2024-01-23_08h06.13.403,bars,2023.2.3,Win32,60.24096386,657b66ea316d21385b68909f,,,,,,,,,,,1607.0953,1608.0921,,,1608.5916,1608.758,,91,91,,,,,,,,,,,,,,,,bars/001.png,bars/mask003.png,,,,,,,,,,,,7,2,,,,,,,2,10,3,9,,,,,,,,,,,1608.0922,1608.5915,1608.758,1611.9082,space,3.1449,,1611.9082,39,6,1612.9081,1612.9081,1612.9173,,,,0,22,22,22,1,130,85,,,,,,,,
,,615ed775a1a249fe4b81b7ea,65af56cbcbfd19b26dc0c439,2024-01-23_08h06.13.403,bars,2023.2.3,Win32,60.24096386,657b66ea316d21385b68909f,,,,,,,,,,,1612.9176,1613.9083,,,1614.4083,1614.6583,,76,76,,,,,,,,,,,,,,,,bars/011.png,bars/mask009.png,,,,,,,,,,,,6,2,,,,,,,0,8,0,8,,,,,,,,,,,1613.9083,1614.4083,1614.6584,1618.4262,space,3.7561,,1618.4263,84,9,1619.4251,1619.4252,1619.4339,,,,0,23,23,23,1,160,85,,,,,,,,
,,615ed775a1a249fe4b81b7ea,65af56cbcbfd19b26dc0c439,2024-01-23_08h06.13.403,bars,2023.2.3,Win32,60.24096386,657b66ea316d21385b68909f,,,,,,,,,,,1619.434,1620.4252,,,1620.9251,1621.1751,,55,55,,,,,,,,,,,,,,,,bars/022.png,bars/mask007.png,,,,,,,,,,,,0,2,,,,,,,2,10,1,10,,,,,,,,,,,1620.4253,1620.9251,1621.1752,1624.7919,space,3.6094,,1624.7919,40,35,1625.7921,1625.7921,1625.8013,,,,0,24,24,24,1,95,20,,,,,,,,
,,615ed775a1a249fe4b81b7ea,65af56cbcbfd19b26dc0c439,2024-01-23_08h06.13.403,bars,2023.2.3,Win32,60.24096386,657b66ea316d21385b68909f,,,,,,,,,,,1625.8014,1626.7924,,,1627.2917,1627.5422,,14,194,,,,,,,,,,,,,,,,bars/017.png,bars/mask004.png,,,,,,,,,,,,0,2,,,,,,,4,8,3,8,,,,,,,,,,,1626.7925,1627.2917,1627.5422,1631.3086,space,3.752,,1631.3087,49,31,1632.3084,1632.3084,1632.3172,,,,0,25,25,25,1,145,45,,,,,,,,
,,615ed775a1a249fe4b81b7ea,65af56cbcbfd19b26dc0c439,2024-01-23_08h06.13.403,bars,2023.2.3,Win32,60.24096386,657b66ea316d21385b68909f,,,,,,,,,,,1632.3174,1633.3086,,,1633.8085,1634.0584,,151,151,,,,,,,,,,,,,,,,bars/037.png,bars/mask000.png,,,,,,,,,,,,6,1,,,,,,,6,10,6,9,,,,,,,,,,,1633.3087,1633.8085,1634.0585,1636.6586,space,2.5952,,1636.6587,1,46,1637.6587,1637.6587,1637.6685,,,,0,26,26,26,1,150,105,,,,,,,,
,,615ed775a1a249fe4b81b7ea,65af56cbcbfd19b26dc0c439,2024-01-23_08h06.13.403,bars,2023.2.3,Win32,60.24096386,657b66ea316d21385b68909f,,,,,,,,,,,1637.6687,1638.6586,,,1639.1587,1639.4087,,155,155,,,,,,,,,,,,,,,,bars/021.png,bars/mask008.png,,,,,,,,,,,,5,1,,,,,,,4,10,5,10,,,,,,,,,,,1638.6586,1639.1587,1639.4087,1642.3098,space,2.8921,,1642.3099,0,85,1643.3093,1643.3093,1643.3183,,,,0,27,27,27,1,155,70,,,,,,,,
,,615ed775a1a249fe4b81b7ea,65af56cbcbfd19b26dc0c439,2024-01-23_08h06.13.403,bars,2023.2.3,Win32,60.24096386,657b66ea316d21385b68909f,,,,,,,,,,,1643.3185,1644.309,,,1644.8089,1645.0598,,68,68,,,,,,,,,,,,,,,,bars/044.png,bars/mask003.png,,,,,,,,,,,,5,1,,,,,,,6,10,7,10,,,,,,,,,,,1644.309,1644.8088,1645.0599,1647.6929,space,2.6246,,1647.6929,7,87,1648.6925,1648.6926,1648.7015,,,,0,28,28,28,1,75,155,,,,,,,,
,,615ed775a1a249fe4b81b7ea,65af56cbcbfd19b26dc0c439,2024-01-23_08h06.13.403,bars,2023.2.3,Win32,60.24096386,657b66ea316d21385b68909f,,,,,,,,,,,1648.7016,1649.6928,,,1650.1926,1650.4423,,112,112,,,,,,,,,,,,,,,,bars/036.png,bars/mask007.png,,,,,,,,,,,,0,1,,,,,,,4,10,4,9,,,,,,,,,,,1649.6928,1650.1926,1650.4424,1653.7263,space,3.2671,,1653.7265,33,88,1654.7258,1654.7259,1654.7352,,,,0,29,29,29,1,145,20,,,,,,,,
,,615ed775a1a249fe4b81b7ea,65af56cbcbfd19b26dc0c439,2024-01-23_08h06.13.403,bars,2023.2.3,Win32,60.24096386,657b66ea316d21385b68909f,,,,,,,,,,,1654.7353,1655.7256,,,1656.2261,1656.4761,,33,33,,,,,,,,,,,,,,,,bars/034.png,bars/mask008.png,,,,,,,,,,,,0,2,,,,,,,6,8,6,8,,,,,,,,,,,1655.7258,1656.2261,1656.4761,1659.4595,space,2.9675,,1659.4596,88,32,1660.4596,1660.4597,1660.4698,,,,0,30,30,30,1,125,65,,,,,,,,
,,615ed775a1a249fe4b81b7ea,65af56cbcbfd19b26dc0c439,2024-01-23_08h06.13.403,bars,2023.2.3,Win32,60.24096386,657b66ea316d21385b68909f,,,,,,,,,,,1660.4699,1661.459,,,1661.9596,1662.2095,,92,92,,,,,,,,,,,,,,,,bars/049.png,bars/mask003.png,,,,,,,,,,,,1,2,,,,,,,4,6,5,6,,,,,,,,,,,1661.4591,1661.9595,1662.2096,1664.1268,space,1.9001,,1664.1269,68,23,1665.1262,1665.1263,1665.1273,,,,0,31,31,31,1,160,115,,,,,,,,
,,615ed775a1a249fe4b81b7ea,65af56cbcbfd19b26dc0c439,2024-01-23_08h06.13.403,bars,2023.2.3,Win32,60.24096386,657b66ea316d21385b68909f,,,,,,,,,,,1665.1276,1666.1261,,,1666.6264,1666.8768,,65,65,,,,,,,,,,,,,,,,bars/031.png,bars/mask008.png,,,,,,,,,,,,0,2,,,,,,,2,8,1,6,,,,,,,,,,,1666.1261,1666.6263,1666.8769,1668.7438,space,1.8505,,1668.7438,55,30,1669.7432,1669.7433,1669.7523,,,,0,32,32,32,1,120,35,,,,,,,,
,,615ed775a1a249fe4b81b7ea,65af56cbcbfd19b26dc0c439,2024-01-23_08h06.13.403,bars,2023.2.3,Win32,60.24096386,657b66ea316d21385b68909f,,,,,,,,,,,1669.7525,1670.7431,,,1671.2428,1671.4928,,142,142,,,,,,,,,,,,,,,,bars/023.png,bars/mask005.png,,,,,,,,,,,,1,2,,,,,,,0,6,0,6,,,,,,,,,,,1670.7432,1671.2428,1671.4928,1673.3276,space,1.818,,1673.3278,58,27,1674.3267,1674.3268,1674.328,,,,0,33,33,33,1,20,115,,,,,,,,
,,615ed775a1a249fe4b81b7ea,65af56cbcbfd19b26dc0c439,2024-01-23_08h06.13.403,bars,2023.2.3,Win32,60.24096386,657b66ea316d21385b68909f,,,,,,,,,,,1674.3284,1675.3263,,,1675.8266,1676.0766,,134,134,,,,,,,,,,,,,,,,bars/029.png,bars/mask001.png,,,,,,,,,,,,0,1,,,,,,,2,8,3,9,,,,,,,,,,,1675.3264,1675.8266,1676.0767,1678.6597,space,2.5661,,1678.6597,44,89,1679.6601,1679.6602,1679.6698,,,,0,34,34,34,1,90,45,,,,,,,,
,,615ed775a1a249fe4b81b7ea,65af56cbcbfd19b26dc0c439,2024-01-23_08h06.13.403,bars,2023.2.3,Win32,60.24096386,657b66ea316d21385b68909f,,,,,,,,,,,1679.6701,1680.6602,,,1681.1599,1681.4096,,48,48,,,,,,,,,,,,,,,,bars/010.png,bars/mask008.png,,,,,,,,,,,,7,2,,,,,,,0,10,0,9,,,,,,,,,,,1680.6602,1681.1599,1681.4096,1683.5441,space,2.1226,,1683.5442,63,7,1684.5434,1684.5434,1684.5535,,,,0,35,35,35,1,165,55,,,,,,,,
,,615ed775a1a249fe4b81b7ea,65af56cbcbfd19b26dc0c439,2024-01-23_08h06.13.403,bars,2023.2.3,Win32,60.24096386,657b66ea316d21385b68909f,,,,,,,,,,,1684.5537,1685.5437,,,1686.0435,1686.2936,,143,143,,,,,,,,,,,,,,,,bars/000.png,bars/mask006.png,,,,,,,,,,,,8,2,,,,,,,0,8,0,9,,,,,,,,,,,1685.5438,1686.0434,1686.2936,1689.244,space,2.9403,,1689.2441,77,2,1690.2438,1690.2439,1690.2526,,,,0,36,36,36,1,40,145,,,,,,,,
,,615ed775a1a249fe4b81b7ea,65af56cbcbfd19b26dc0c439,2024-01-23_08h06.13.403,bars,2023.2.3,Win32,60.24096386,657b66ea316d21385b68909f,,,,,,,,,,,1690.2527,1691.2436,,,1691.7438,1691.9935,,19,19,,,,,,,,,,,,,,,,bars/011.png,bars/mask005.png,,,,,,,,,,,,0,1,,,,,,,2,6,3,6,,,,,,,,,,,1691.2436,1691.7437,1691.9936,1694.31,space,2.3111,,1694.31,39,66,1695.3102,1695.3104,1695.3207,,,,0,37,37,37,1,160,85,,,,,,,,
,,615ed775a1a249fe4b81b7ea,65af56cbcbfd19b26dc0c439,2024-01-23_08h06.13.403,bars,2023.2.3,Win32,60.24096386,657b66ea316d21385b68909f,,,,,,,,,,,1695.3209,1696.3099,,,1696.8102,1697.0603,,167,167,,,,,,,,,,,,,,,,bars/040.png,bars/mask004.png,,,,,,,,,,,,3,2,,,,,,,4,8,4,7,,,,,,,,,,,1696.31,1696.8102,1697.0604,1699.5944,space,2.5262,,1699.5945,27,18,1700.5938,1700.5939,1700.6034,,,,0,38,38,38,1,140,5,,,,,,,,
,,615ed775a1a249fe4b81b7ea,65af56cbcbfd19b26dc0c439,2024-01-23_08h06.13.403,bars,2023.2.3,Win32,60.24096386,657b66ea316d21385b68909f,,,,,,,,,,,1700.6036,1701.5938,,,1702.0939,1702.3435,,70,70,,,,,,,,,,,,,,,,bars/004.png,bars/mask005.png,,,,,,,,,,,,0,1,,,,,,,2,6,1,6,,,,,,,,,,,1701.594,1702.0939,1702.3436,1704.5106,space,2.1547,,1704.5108,45,55,1705.5112,1705.5113,1705.5205,,,,0,39,39,39,1,25,125,,,,,,,,
,,615ed775a1a249fe4b81b7ea,65af56cbcbfd19b26dc0c439,2024-01-23_08h06.13.403,bars,2023.2.3,Win32,60.24096386,657b66ea316d21385b68909f,,,,,,,,,,,1705.5206,1706.5104,,,1707.0106,1707.2605,,3,183,,,,,,,,,,,,,,,,bars/023.png,bars/mask006.png,,,,,,,,,,,,0,1,,,,,,,0,4,0,3,,,,,,,,,,,1706.5105,1707.0106,1707.2605,1710.711,space,3.4416,,1710.7111,17,68,1711.7105,1711.7106,1711.7193,,,,0,40,40,40,1,20,115,,,,,,,,
,,615ed775a1a249fe4b81b7ea,65af56cbcbfd19b26dc0c439,2024-01-23_08h06.13.403,bars,2023.2.3,Win32,60.24096386,657b66ea316d21385b68909f,,,,,,,,,,,1711.7195,1712.7106,,,1713.2104,1713.4613,,128,128,,,,,,,,,,,,,,,,bars/011.png,bars/mask000.png,,,,,,,,,,,,0,1,,,,,,,2,6,1,5,,,,,,,,,,,1712.7106,1713.2103,1713.4613,1715.0445,space,1.5713,,1715.0447,32,43,1716.0443,1716.0445,1716.0533,,,,0,41,41,41,1,160,85,,,,,,,,
,,615ed775a1a249fe4b81b7ea,65af56cbcbfd19b26dc0c439,2024-01-23_08h06.13.403,bars,2023.2.3,Win32,60.24096386,657b66ea316d21385b68909f,,,,,,,,,,,1716.0534,1717.0441,,,1717.544,1717.7939,,70,70,,,,,,,,,,,,,,,,bars/003.png,bars/mask008.png,,,,,,,,,,,,0,1,,,,,,,4,8,4,7,,,,,,,,,,,1717.0442,1717.5439,1717.794,1720.2438,space,2.4436,,1720.2438,45,70,1721.2446,1721.2446,1721.2533,,,,0,42,42,42,1,25,140,,,,,,,,
,,615ed775a1a249fe4b81b7ea,65af56cbcbfd19b26dc0c439,2024-01-23_08h06.13.403,bars,2023.2.3,Win32,60.24096386,657b66ea316d21385b68909f,,,,,,,,,,,1721.2535,1722.2443,,,1722.7441,1722.994,,165,165,,,,,,,,,,,,,,,,bars/006.png,bars/mask001.png,,,,,,,,,,,,0,1,,,,,,,2,6,3,5,,,,,,,,,,,1722.2443,1722.7441,1722.9941,1724.7286,space,1.7206,,1724.7287,50,65,1725.7279,1725.728,1725.7363,,,,0,43,43,43,1,35,100,,,,,,,,
,,615ed775a1a249fe4b81b7ea,65af56cbcbfd19b26dc0c439,2024-01-23_08h06.13.403,bars,2023.2.3,Win32,60.24096386,657b66ea316d21385b68909f,,,,,,,,,,,1725.7365,1726.7273,,,1727.2276,1727.4774,,26,206,,,,,,,,,,,,,,,,bars/044.png,bars/mask000.png,,,,,,,,,,,,0,1,,,,,,,4,8,6,9,,,,,,,,,,,1726.7274,1727.2275,1727.4774,1730.2446,space,2.7544,,1730.2447,49,51,1731.2444,1731.2445,1731.2534,,,,0,44,44,44,1,75,155,,,,,,,,
,,615ed775a1a249fe4b81b7ea,65af56cbcbfd19b26dc0c439,2024-01-23_08h06.13.403,bars,2023.2.3,Win32,60.24096386,657b66ea316d21385b68909f,,,,,,,,,,,1731.2536,1732.2443,,,1732.7449,1732.9947,,61,61,,,,,,,,,,,,,,,,bars/021.png,bars/mask006.png,,,,,,,,,,,,4,2,,,,,,,2,6,1,6,,,,,,,,,,,1732.2443,1732.7449,1732.9949,1734.9609,space,1.9556,,1734.9609,86,9,1735.9607,1735.9608,1735.9701,,,,0,45,45,45,1,155,70,,,,,,,,
,,615ed775a1a249fe4b81b7ea,65af56cbcbfd19b26dc0c439,2024-01-23_08h06.13.403,bars,2023.2.3,Win32,60.24096386,657b66ea316d21385b68909f,,,,,,,,,,,1735.9703,1736.9618,,,1737.4611,1737.7116,,130,130,,,,,,,,,,,,,,,,bars/026.png,bars/mask002.png,,,,,,,,,,,,0,2,,,,,,,4,8,4,7,,,,,,,,,,,1736.9619,1737.4611,1737.7116,1740.2952,space,2.5721,,1740.2953,85,45,1741.2945,1741.2945,1741.3032,,,,0,46,46,46,1,35,85,,,,,,,,
,,615ed775a1a249fe4b81b7ea,65af56cbcbfd19b26dc0c439,2024-01-23_08h06.13.403,bars,2023.2.3,Win32,60.24096386,657b66ea316d21385b68909f,,,,,,,,,,,1741.3033,1742.2954,,,1742.7949,1743.0448,,32,32,,,,,,,,,,,,,,,,bars/011.png,bars/mask006.png,,,,,,,,,,,,0,1,,,,,,,6,6,7,5,,,,,,,,,,,1742.2955,1742.7948,1743.0449,1746.4951,space,3.4372,,1746.4951,52,53,1747.4947,1747.4947,1747.5041,,,,0,47,47,47,1,160,85,,,,,,,,
,,615ed775a1a249fe4b81b7ea,65af56cbcbfd19b26dc0c439,2024-01-23_08h06.13.403,bars,2023.2.3,Win32,60.24096386,657b66ea316d21385b68909f,,,,,,,,,,,1747.5044,1748.4949,,,1748.9951,1749.2448,,6,6,,,,,,,,,,,,,,,,bars/009.png,bars/mask006.png,,,,,,,,,,,,5,1,,,,,,,8,8,7,10,,,,,,,,,,,1748.4949,1748.9949,1749.2448,1751.6952,space,2.4396,,1751.6953,9,81,1752.695,1752.695,1752.704,,,,0,48,48,48,1,15,105,,,,,,,,
,,615ed775a1a249fe4b81b7ea,65af56cbcbfd19b26dc0c439,2024-01-23_08h06.13.403,bars,2023.2.3,Win32,60.24096386,657b66ea316d21385b68909f,,,,,,,,,,,1752.7042,1753.6945,,,1754.1945,1754.445,,161,161,,,,,,,,,,,,,,,,bars/022.png,bars/mask006.png,,,,,,,,,,,,0,2,,,,,,,10,6,10,6,,,,,,,,,,,1753.6945,1754.1944,1754.4451,1756.4785,space,2.0183,,1756.4786,66,39,1757.4788,1757.4789,1757.4883,,,,0,49,49,49,1,95,20,,,,,,,,
,,615ed775a1a249fe4b81b7ea,65af56cbcbfd19b26dc0c439,2024-01-23_08h06.13.403,bars,2023.2.3,Win32,60.24096386,657b66ea316d21385b68909f,,,,,,,,,,,,,,,,,,,,,,,,,,,,,,,,,,,,,,,,,,,,,,,,,,,,,,,,,,,,,,,,,,,,,,,,,,,,,,,,,,,,,,,,,,,,,1757.4883,1817.4793,0,1,1,4,1,sequence_tables/blk049.csv
,,615ed775a1a249fe4b81b7ea,65af56cbcbfd19b26dc0c439,2024-01-23_08h06.13.403,bars,2023.2.3,Win32,60.24096386,657b66ea316d21385b68909f,,,,,,,,,,,1819.0159,1819.9793,,,1820.4794,1820.7297,,161,161,,,,,,,,,,,,,,,,bars/012.png,bars/mask004.png,,,,,,,,,,,,0,2,,,,,,,8,2,9,1,,,,,,1817.5259,1818.9634,space,1.4223,,1819.9794,1820.4794,1820.7298,1823.5138,space,2.7726,,1823.514,71,34,1824.5133,1824.5133,1824.5224,,,,0,0,0,0,1,90,15,,,,,,,,
,,615ed775a1a249fe4b81b7ea,65af56cbcbfd19b26dc0c439,2024-01-23_08h06.13.403,bars,2023.2.3,Win32,60.24096386,657b66ea316d21385b68909f,,,,,,,,,,,1824.5225,1825.5129,,,1826.0134,1826.2634,,158,158,,,,,,,,,,,,,,,,bars/026.png,bars/mask000.png,,,,,,,,,,,,0,1,,,,,,,6,4,6,4,,,,,,,,,,,1825.5129,1826.0134,1826.2635,1827.3472,space,1.0685,,1827.3473,57,73,1828.3468,1828.3469,1828.3495,,,,0,1,1,1,1,35,85,,,,,,,,
,,615ed775a1a249fe4b81b7ea,65af56cbcbfd19b26dc0c439,2024-01-23_08h06.13.403,bars,2023.2.3,Win32,60.24096386,657b66ea316d21385b68909f,,,,,,,,,,,1828.3497,1829.3467,,,1829.8469,1830.097,,114,114,,,,,,,,,,,,,,,,bars/034.png,bars/mask003.png,,,,,,,,,,,,5,1,,,,,,,8,2,8,2,,,,,,,,,,,1829.3468,1829.8469,1830.0972,1831.1137,space,1.0141,,1831.1138,11,49,1832.1135,1832.1135,1832.1146,,,,0,2,2,2,1,125,65,,,,,,,,
,,615ed775a1a249fe4b81b7ea,65af56cbcbfd19b26dc0c439,2024-01-23_08h06.13.403,bars,2023.2.3,Win32,60.24096386,657b66ea316d21385b68909f,,,,,,,,,,,1832.1148,1833.1134,,,1833.6139,1833.8638,,45,45,,,,,,,,,,,,,,,,bars/028.png,bars/mask004.png,,,,,,,,,,,,5,1,,,,,,,6,4,5,5,,,,,,,,,,,1833.1135,1833.6139,1833.8638,1835.2299,space,1.3544,,1835.2299,0,75,1836.23,1836.2301,1836.2312,,,,0,3,3,3,1,45,120,,,,,,,,
,,615ed775a1a249fe4b81b7ea,65af56cbcbfd19b26dc0c439,2024-01-23_08h06.13.403,bars,2023.2.3,Win32,60.24096386,657b66ea316d21385b68909f,,,,,,,,,,,1836.2315,1837.2298,,,1837.7301,1837.9798,,21,21,,,,,,,,,,,,,,,,bars/023.png,bars/mask004.png,,,,,,,,,,,,5,1,,,,,,,4,2,5,1,,,,,,,,,,,1837.2298,1837.7301,1837.9798,1839.6636,space,1.6799,,1839.6636,1,86,1840.6636,1840.6637,1840.6647,,,,0,4,4,4,1,20,115,,,,,,,,
,,615ed775a1a249fe4b81b7ea,65af56cbcbfd19b26dc0c439,2024-01-23_08h06.13.403,bars,2023.2.3,Win32,60.24096386,657b66ea316d21385b68909f,,,,,,,,,,,1840.665,1841.6635,,,1842.1636,1842.4135,,126,126,,,,,,,,,,,,,,,,bars/017.png,bars/mask000.png,,,,,,,,,,,,1,1,,,,,,,2,0,3,2,,,,,,,,,,,1841.6635,1842.1634,1842.4136,1844.6971,space,2.2679,,1844.6972,19,81,1845.697,1845.6971,1845.7059,,,,0,5,5,5,1,145,45,,,,,,,,
,,615ed775a1a249fe4b81b7ea,65af56cbcbfd19b26dc0c439,2024-01-23_08h06.13.403,bars,2023.2.3,Win32,60.24096386,657b66ea316d21385b68909f,,,,,,,,,,,1845.7062,1846.6972,,,1847.1973,1847.4471,,20,20,,,,,,,,,,,,,,,,bars/049.png,bars/mask009.png,,,,,,,,,,,,0,1,,,,,,,0,2,1,3,,,,,,,,,,,1846.6973,1847.1972,1847.4471,1849.264,space,1.8054,,1849.2641,40,85,1850.2636,1850.2637,1850.2724,,,,0,6,6,6,1,160,115,,,,,,,,
,,615ed775a1a249fe4b81b7ea,65af56cbcbfd19b26dc0c439,2024-01-23_08h06.13.403,bars,2023.2.3,Win32,60.24096386,657b66ea316d21385b68909f,,,,,,,,,,,1850.2726,1851.2638,,,1851.7641,1852.014,,24,24,,,,,,,,,,,,,,,,bars/023.png,bars/mask007.png,,,,,,,,,,,,2,1,,,,,,,2,0,2,0,,,,,,,,,,,1851.2638,1851.7639,1852.014,1853.3143,space,1.2839,,1853.3144,4,89,1854.3143,1854.3144,1854.3155,,,,0,7,7,7,1,20,115,,,,,,,,
,,615ed775a1a249fe4b81b7ea,65af56cbcbfd19b26dc0c439,2024-01-23_08h06.13.403,bars,2023.2.3,Win32,60.24096386,657b66ea316d21385b68909f,,,,,,,,,,,1854.3158,1855.3136,,,1855.8142,1856.064,,37,37,,,,,,,,,,,,,,,,bars/037.png,bars/mask007.png,,,,,,,,,,,,0,1,,,,,,,0,2,0,2,,,,,,,,,,,1855.3136,1855.8142,1856.064,1858.4806,space,2.4101,,1858.4808,67,68,1859.4806,1859.4806,1859.482,,,,0,8,8,8,1,150,105,,,,,,,,
,,615ed775a1a249fe4b81b7ea,65af56cbcbfd19b26dc0c439,2024-01-23_08h06.13.403,bars,2023.2.3,Win32,60.24096386,657b66ea316d21385b68909f,,,,,,,,,,,1859.4822,1860.4805,,,1860.9811,1861.2308,,75,75,,,,,,,,,,,,,,,,bars/007.png,bars/mask002.png,,,,,,,,,,,,1,2,,,,,,,0,4,0,4,,,,,,,,,,,1860.4806,1860.981,1861.2309,1862.7473,space,1.4996,,1862.7474,80,20,1863.7479,1863.748,1863.7576,,,,0,9,9,9,1,175,55,,,,,,,,
,,615ed775a1a249fe4b81b7ea,65af56cbcbfd19b26dc0c439,2024-01-23_08h06.13.403,bars,2023.2.3,Win32,60.24096386,657b66ea316d21385b68909f,,,,,,,,,,,1863.7578,1864.7472,,,1865.2473,1865.4975,,17,17,,,,,,,,,,,,,,,,bars/040.png,bars/mask005.png,,,,,,,,,,,,3,2,,,,,,,0,6,3,5,,,,,,,,,,,1864.7473,1865.2472,1865.4976,1867.315,space,1.8136,,1867.315,57,12,1868.3143,1868.3144,1868.3233,,,,0,10,10,10,1,140,5,,,,,,,,
,,615ed775a1a249fe4b81b7ea,65af56cbcbfd19b26dc0c439,2024-01-23_08h06.13.403,bars,2023.2.3,Win32,60.24096386,657b66ea316d21385b68909f,,,,,,,,,,,1868.3234,1869.3145,,,1869.8143,1870.0643,,154,154,,,,,,,,,,,,,,,,bars/010.png,bars/mask004.png,,,,,,,,,,,,2,1,,,,,,,2,4,3,5,,,,,,,,,,,1869.3146,1869.8142,1870.0643,1872.3483,space,2.272,,1872.3483,11,81,1873.3475,1873.3475,1873.3503,,,,0,11,11,11,1,165,55,,,,,,,,
,,615ed775a1a249fe4b81b7ea,65af56cbcbfd19b26dc0c439,2024-01-23_08h06.13.403,bars,2023.2.3,Win32,60.24096386,657b66ea316d21385b68909f,,,,,,,,,,,1873.3504,1874.3476,,,1874.8476,1875.0971,,117,117,,,,,,,,,,,,,,,,bars/010.png,bars/mask004.png,,,,,,,,,,,,0,1,,,,,,,0,6,0,5,,,,,,,,,,,1874.3477,1874.8476,1875.0971,1876.7808,space,1.6782,,1876.7808,48,62,1877.7807,1877.7808,1877.7903,,,,0,12,12,12,1,165,55,,,,,,,,
,,615ed775a1a249fe4b81b7ea,65af56cbcbfd19b26dc0c439,2024-01-23_08h06.13.403,bars,2023.2.3,Win32,60.24096386,657b66ea316d21385b68909f,,,,,,,,,,,1877.7904,1878.7811,,,1879.2816,1879.531,,108,108,,,,,,,,,,,,,,,,bars/006.png,bars/mask006.png,,,,,,,,,,,,3,2,,,,,,,2,4,2,4,,,,,,,,,,,1878.7811,1879.2815,1879.5311,1881.5813,space,2.0378,,1881.5814,73,8,1882.5811,1882.5811,1882.5911,,,,0,13,13,13,1,35,100,,,,,,,,
,,615ed775a1a249fe4b81b7ea,65af56cbcbfd19b26dc0c439,2024-01-23_08h06.13.403,bars,2023.2.3,Win32,60.24096386,657b66ea316d21385b68909f,,,,,,,,,,,1882.5913,1883.5812,,,1884.0816,1884.3313,,158,158,,,,,,,,,,,,,,,,bars/036.png,bars/mask003.png,,,,,,,,,,,,0,1,,,,,,,0,6,0,6,,,,,,,,,,,1883.5812,1884.0815,1884.3313,1886.5643,space,2.2203,,1886.5644,13,42,1887.5648,1887.5648,1887.5756,,,,0,14,14,14,1,145,20,,,,,,,,
,,615ed775a1a249fe4b81b7ea,65af56cbcbfd19b26dc0c439,2024-01-23_08h06.13.403,bars,2023.2.3,Win32,60.24096386,657b66ea316d21385b68909f,,,,,,,,,,,1887.6089,1888.5812,,,1889.0816,1889.3314,,139,139,,,,,,,,,,,,,,,,bars/044.png,bars/mask006.png,,,,,,,,,,,,4,2,,,,,,,2,8,1,8,,,,,,,,,,,1888.5812,1889.0816,1889.3315,1890.865,space,1.5292,,1890.8651,64,16,1891.8647,1891.8647,1891.8744,,,,0,15,15,15,1,75,155,,,,,,,,
,,615ed775a1a249fe4b81b7ea,65af56cbcbfd19b26dc0c439,2024-01-23_08h06.13.403,bars,2023.2.3,Win32,60.24096386,657b66ea316d21385b68909f,,,,,,,,,,,1891.9093,1892.8812,,,1893.3813,1893.6312,,40,40,,,,,,,,,,,,,,,,bars/041.png,bars/mask004.png,,,,,,,,,,,,0,1,,,,,,,0,10,0,9,,,,,,,,,,,1892.8812,1893.3812,1893.6313,1895.5317,space,1.8846,,1895.5317,20,45,1896.5313,1896.5314,1896.541,,,,0,16,16,16,1,20,85,,,,,,,,
,,615ed775a1a249fe4b81b7ea,65af56cbcbfd19b26dc0c439,2024-01-23_08h06.13.403,bars,2023.2.3,Win32,60.24096386,657b66ea316d21385b68909f,,,,,,,,,,,1896.5412,1897.5312,,,1898.0316,1898.281,,2,2,,,,,,,,,,,,,,,,bars/040.png,bars/mask000.png,,,,,,,,,,,,9,2,,,,,,,0,10,0,10,,,,,,,,,,,1897.5312,1898.0315,1898.2811,1901.0986,space,2.8012,,1901.0987,42,3,1902.0979,1902.0979,1902.1072,,,,0,17,17,17,1,140,5,,,,,,,,
,,615ed775a1a249fe4b81b7ea,65af56cbcbfd19b26dc0c439,2024-01-23_08h06.13.403,bars,2023.2.3,Win32,60.24096386,657b66ea316d21385b68909f,,,,,,,,,,,1902.1075,1903.0983,,,1903.5978,1903.8479,,31,31,,,,,,,,,,,,,,,,bars/018.png,bars/mask000.png,,,,,,,,,,,,0,2,,,,,,,0,10,0,9,,,,,,,,,,,1903.0983,1903.5978,1903.848,1905.382,space,1.5158,,1905.3821,61,59,1906.3816,1906.3817,1906.3827,,,,0,18,18,18,1,150,90,,,,,,,,
,,615ed775a1a249fe4b81b7ea,65af56cbcbfd19b26dc0c439,2024-01-23_08h06.13.403,bars,2023.2.3,Win32,60.24096386,657b66ea316d21385b68909f,,,,,,,,,,,1906.411,1907.3982,,,1907.8981,1908.1483,,152,152,,,,,,,,,,,,,,,,bars/020.png,bars/mask005.png,,,,,,,,,,,,3,2,,,,,,,2,8,2,8,,,,,,,,,,,1907.3983,1907.8981,1908.1483,1910.0155,space,1.8515,,1910.0156,37,18,1911.0153,1911.0153,1911.0164,,,,0,19,19,19,1,115,170,,,,,,,,
,,615ed775a1a249fe4b81b7ea,65af56cbcbfd19b26dc0c439,2024-01-23_08h06.13.403,bars,2023.2.3,Win32,60.24096386,657b66ea316d21385b68909f,,,,,,,,,,,1911.0167,1912.0152,,,1912.5153,1912.7648,,67,67,,,,,,,,,,,,,,,,bars/019.png,bars/mask006.png,,,,,,,,,,,,0,1,,,,,,,0,6,1,6,,,,,,,,,,,1912.0152,1912.5153,1912.7648,1914.7662,space,1.9859,,1914.7662,22,38,1915.7653,1915.7654,1915.7749,,,,0,20,20,20,1,45,105,,,,,,,,
,,615ed775a1a249fe4b81b7ea,65af56cbcbfd19b26dc0c439,2024-01-23_08h06.13.403,bars,2023.2.3,Win32,60.24096386,657b66ea316d21385b68909f,,,,,,,,,,,1915.775,1916.7653,,,1917.2653,1917.5151,,75,75,,,,,,,,,,,,,,,,bars/044.png,bars/mask000.png,,,,,,,,,,,,2,1,,,,,,,2,8,2,5,,,,,,,,,,,1916.7653,1917.2653,1917.5151,1919.7984,space,2.2782,,1919.7985,0,80,1920.7983,1920.7984,1920.8068,,,,0,21,21,21,1,75,155,,,,,,,,
,,615ed775a1a249fe4b81b7ea,65af56cbcbfd19b26dc0c439,2024-01-23_08h06.13.403,bars,2023.2.3,Win32,60.24096386,657b66ea316d21385b68909f,,,,,,,,,,,1920.807,1921.7989,,,1922.2986,1922.5487,,19,19,,,,,,,,,,,,,,,,bars/048.png,bars/mask008.png,,,,,,,,,,,,1,2,,,,,,,4,6,4,7,,,,,,,,,,,1921.7989,1922.2986,1922.5487,1924.3654,space,1.8126,,1924.3655,31,24,1925.3655,1925.3655,1925.3681,,,,0,22,22,22,1,50,175,,,,,,,,
,,615ed775a1a249fe4b81b7ea,65af56cbcbfd19b26dc0c439,2024-01-23_08h06.13.403,bars,2023.2.3,Win32,60.24096386,657b66ea316d21385b68909f,,,,,,,,,,,1925.3682,1926.3656,,,1926.8659,1927.1153,,138,138,,,,,,,,,,,,,,,,bars/042.png,bars/mask000.png,,,,,,,,,,,,2,1,,,,,,,2,4,3,4,,,,,,,,,,,1926.3656,1926.8657,1927.1154,1929.682,space,2.559,,1929.682,7,63,1930.6823,1930.6823,1930.6923,,,,0,23,23,23,1,145,75,,,,,,,,
,,615ed775a1a249fe4b81b7ea,65af56cbcbfd19b26dc0c439,2024-01-23_08h06.13.403,bars,2023.2.3,Win32,60.24096386,657b66ea316d21385b68909f,,,,,,,,,,,1930.6926,1931.6821,,,1932.1826,1932.4322,,95,95,,,,,,,,,,,,,,,,bars/020.png,bars/mask002.png,,,,,,,,,,,,0,1,,,,,,,0,2,1,3,,,,,,,,,,,1931.6821,1932.1825,1932.4323,1934.1988,space,1.7572,,1934.1989,20,75,1935.199,1935.1991,1935.2001,,,,0,24,24,24,1,115,170,,,,,,,,
,,615ed775a1a249fe4b81b7ea,65af56cbcbfd19b26dc0c439,2024-01-23_08h06.13.403,bars,2023.2.3,Win32,60.24096386,657b66ea316d21385b68909f,,,,,,,,,,,1935.2003,1936.1998,,,1936.6989,1936.9493,,64,64,,,,,,,,,,,,,,,,bars/032.png,bars/mask008.png,,,,,,,,,,,,0,2,,,,,,,0,0,2,0,,,,,,,,,,,1936.1998,1936.6988,1936.9493,1938.949,space,1.9865,,1938.949,61,44,1939.9491,1939.9492,1939.9589,,,,0,25,25,25,1,125,20,,,,,,,,
,,615ed775a1a249fe4b81b7ea,65af56cbcbfd19b26dc0c439,2024-01-23_08h06.13.403,bars,2023.2.3,Win32,60.24096386,657b66ea316d21385b68909f,,,,,,,,,,,1939.9591,1940.9509,,,1941.4488,1941.699,,42,42,,,,,,,,,,,,,,,,bars/022.png,bars/mask001.png,,,,,,,,,,,,0,2,,,,,,,2,0,1,0,,,,,,,,,,,1940.951,1941.4488,1941.699,1944.4328,space,2.7254,,1944.433,53,22,1945.4323,1945.4326,1945.442,,,,0,26,26,26,1,95,20,,,,,,,,
,,615ed775a1a249fe4b81b7ea,65af56cbcbfd19b26dc0c439,2024-01-23_08h06.13.403,bars,2023.2.3,Win32,60.24096386,657b66ea316d21385b68909f,,,,,,,,,,,1945.4422,1946.4327,,,1946.9326,1947.1824,,18,18,,,,,,,,,,,,,,,,bars/000.png,bars/mask000.png,,,,,,,,,,,,0,1,,,,,,,0,2,0,2,,,,,,,,,,,1946.4327,1946.9325,1947.1824,1950.9667,space,3.7706,,1950.9669,22,53,1951.9658,1951.9658,1951.9753,,,,0,27,27,27,1,40,145,,,,,,,,
,,615ed775a1a249fe4b81b7ea,65af56cbcbfd19b26dc0c439,2024-01-23_08h06.13.403,bars,2023.2.3,Win32,60.24096386,657b66ea316d21385b68909f,,,,,,,,,,,1951.9756,1952.9662,,,1953.4662,1953.7163,,49,49,,,,,,,,,,,,,,,,bars/049.png,bars/mask003.png,,,,,,,,,,,,0,2,,,,,,,0,0,0,1,,,,,,,,,,,1952.9663,1953.4661,1953.7163,1955.9165,space,2.1878,,1955.9165,69,66,1956.9166,1956.9166,1956.9263,,,,0,28,28,28,1,160,115,,,,,,,,
,,615ed775a1a249fe4b81b7ea,65af56cbcbfd19b26dc0c439,2024-01-23_08h06.13.403,bars,2023.2.3,Win32,60.24096386,657b66ea316d21385b68909f,,,,,,,,,,,1956.9265,1957.9164,,,1958.4164,1958.6664,,8,8,,,,,,,,,,,,,,,,bars/038.png,bars/mask009.png,,,,,,,,,,,,0,1,,,,,,,2,0,2,0,,,,,,,,,,,1957.9164,1958.4163,1958.6667,1960.7,space,2.0166,,1960.7,23,62,1961.6994,1961.6994,1961.7101,,,,0,29,29,29,1,165,70,,,,,,,,
,,615ed775a1a249fe4b81b7ea,65af56cbcbfd19b26dc0c439,2024-01-23_08h06.13.403,bars,2023.2.3,Win32,60.24096386,657b66ea316d21385b68909f,,,,,,,,,,,1961.7103,1962.6996,,,1963.2006,1963.4495,,125,125,,,,,,,,,,,,,,,,bars/022.png,bars/mask000.png,,,,,,,,,,,,0,1,,,,,,,0,2,0,2,,,,,,,,,,,1962.6997,1963.2006,1963.4495,1967.35,space,3.8913,,1967.3501,30,75,1968.3493,1968.3494,1968.3587,,,,0,30,30,30,1,95,20,,,,,,,,
,,615ed775a1a249fe4b81b7ea,65af56cbcbfd19b26dc0c439,2024-01-23_08h06.13.403,bars,2023.2.3,Win32,60.24096386,657b66ea316d21385b68909f,,,,,,,,,,,1968.3589,1969.3493,,,1969.8501,1970.1,,13,13,,,,,,,,,,,,,,,,bars/000.png,bars/mask005.png,,,,,,,,,,,,0,1,,,,,,,2,0,1,0,,,,,,,,,,,1969.3494,1969.8501,1970.1,1972.0496,space,1.9449,,1972.0496,27,48,1973.0494,1973.0494,1973.0505,,,,0,31,31,31,1,40,145,,,,,,,,
,,615ed775a1a249fe4b81b7ea,65af56cbcbfd19b26dc0c439,2024-01-23_08h06.13.403,bars,2023.2.3,Win32,60.24096386,657b66ea316d21385b68909f,,,,,,,,,,,1973.0507,1974.0495,,,1974.5499,1974.7994,,153,153,,,,,,,,,,,,,,,,bars/007.png,bars/mask000.png,,,,,,,,,,,,1,1,,,,,,,4,2,5,2,,,,,,,,,,,1974.0495,1974.5498,1974.7995,1978.1673,space,3.3513,,1978.1673,22,82,1979.1667,1979.1668,1979.1763,,,,0,32,32,32,1,175,55,,,,,,,,
,,615ed775a1a249fe4b81b7ea,65af56cbcbfd19b26dc0c439,2024-01-23_08h06.13.403,bars,2023.2.3,Win32,60.24096386,657b66ea316d21385b68909f,,,,,,,,,,,1979.1765,1980.1669,,,1980.667,1980.9165,,148,148,,,,,,,,,,,,,,,,bars/023.png,bars/mask001.png,,,,,,,,,,,,0,2,,,,,,,2,0,3,1,,,,,,,,,,,1980.167,1980.6669,1980.9166,1982.5499,space,1.6262,,1982.55,52,33,1983.5507,1983.5508,1983.5533,,,,0,33,33,33,1,20,115,,,,,,,,
,,615ed775a1a249fe4b81b7ea,65af56cbcbfd19b26dc0c439,2024-01-23_08h06.13.403,bars,2023.2.3,Win32,60.24096386,657b66ea316d21385b68909f,,,,,,,,,,,1983.5536,1984.5497,,,1985.0501,1985.2999,,150,150,,,,,,,,,,,,,,,,bars/042.png,bars/mask002.png,,,,,,,,,,,,0,1,,,,,,,0,0,0,0,,,,,,,,,,,1984.5497,1985.0501,1985.3,1987.7665,space,2.4615,,1987.7666,5,75,1988.767,1988.7671,1988.7766,,,,0,34,34,34,1,145,75,,,,,,,,
,,615ed775a1a249fe4b81b7ea,65af56cbcbfd19b26dc0c439,2024-01-23_08h06.13.403,bars,2023.2.3,Win32,60.24096386,657b66ea316d21385b68909f,,,,,,,,,,,1988.7767,1989.7671,,,1990.2669,1990.5171,,34,34,,,,,,,,,,,,,,,,bars/031.png,bars/mask002.png,,,,,,,,,,,,1,2,,,,,,,0,2,1,1,,,,,,,,,,,1989.7673,1990.2669,1990.5171,1992.9674,space,2.4383,,1992.9677,86,1,1993.9666,1993.9667,1993.977,,,,0,35,35,35,1,120,35,,,,,,,,
,,615ed775a1a249fe4b81b7ea,65af56cbcbfd19b26dc0c439,2024-01-23_08h06.13.403,bars,2023.2.3,Win32,60.24096386,657b66ea316d21385b68909f,,,,,,,,,,,1993.9771,1994.967,,,1995.4668,1995.717,,0,0,,,,,,,,,,,,,,,,bars/039.png,bars/mask006.png,,,,,,,,,,,,0,1,,,,,,,0,0,0,0,,,,,,,,,,,1994.9671,1995.4668,1995.717,1998.6346,space,2.9036,,1998.6347,5,75,1999.6338,1999.6338,1999.6439,,,,0,36,36,36,1,175,105,,,,,,,,
,,615ed775a1a249fe4b81b7ea,65af56cbcbfd19b26dc0c439,2024-01-23_08h06.13.403,bars,2023.2.3,Win32,60.24096386,657b66ea316d21385b68909f,,,,,,,,,,,1999.6441,2000.6336,,,2001.1338,2001.3841,,140,140,,,,,,,,,,,,,,,,bars/009.png,bars/mask006.png,,,,,,,,,,,,0,2,,,,,,,0,0,0,0,,,,,,,,,,,2000.6336,2001.1337,2001.3841,2003.0171,space,1.6158,,2003.0172,55,35,2004.0171,2004.0171,2004.0274,,,,0,37,37,37,1,15,105,,,,,,,,
,,615ed775a1a249fe4b81b7ea,65af56cbcbfd19b26dc0c439,2024-01-23_08h06.13.403,bars,2023.2.3,Win32,60.24096386,657b66ea316d21385b68909f,,,,,,,,,,,2004.0276,2005.0174,,,2005.5171,2005.7674,,14,14,,,,,,,,,,,,,,,,bars/025.png,bars/mask001.png,,,,,,,,,,,,0,2,,,,,,,0,0,0,1,,,,,,,,,,,2005.0175,2005.517,2005.7675,2007.834,space,2.0489,,2007.834,89,26,2008.8341,2008.8342,2008.8435,,,,0,38,38,38,1,105,40,,,,,,,,
,,615ed775a1a249fe4b81b7ea,65af56cbcbfd19b26dc0c439,2024-01-23_08h06.13.403,bars,2023.2.3,Win32,60.24096386,657b66ea316d21385b68909f,,,,,,,,,,,2008.8436,2009.8341,,,2010.334,2010.584,,155,155,,,,,,,,,,,,,,,,bars/046.png,bars/mask002.png,,,,,,,,,,,,3,1,,,,,,,2,0,3,0,,,,,,,,,,,2009.8342,2010.3339,2010.5841,2012.9007,space,2.3005,,2012.9009,0,70,2013.9006,2013.9007,2013.9104,,,,0,39,39,39,1,155,85,,,,,,,,
,,615ed775a1a249fe4b81b7ea,65af56cbcbfd19b26dc0c439,2024-01-23_08h06.13.403,bars,2023.2.3,Win32,60.24096386,657b66ea316d21385b68909f,,,,,,,,,,,2013.9106,2014.9006,,,2015.4007,2015.6508,,25,25,,,,,,,,,,,,,,,,bars/037.png,bars/mask001.png,,,,,,,,,,,,0,1,,,,,,,4,0,4,1,,,,,,,,,,,2014.9007,2015.4007,2015.6508,2017.6846,space,2.0174,,2017.6847,55,80,2018.6841,2018.6842,2018.6937,,,,0,40,40,40,1,150,105,,,,,,,,
,,615ed775a1a249fe4b81b7ea,65af56cbcbfd19b26dc0c439,2024-01-23_08h06.13.403,bars,2023.2.3,Win32,60.24096386,657b66ea316d21385b68909f,,,,,,,,,,,2018.6939,2019.6841,,,2020.1846,2020.4343,,117,117,,,,,,,,,,,,,,,,bars/033.png,bars/mask005.png,,,,,,,,,,,,0,2,,,,,,,6,0,4,0,,,,,,,,,,,2019.6842,2020.1845,2020.4344,2023.0173,space,2.5756,,2023.0174,88,38,2024.0174,2024.0174,2024.0267,,,,0,41,41,41,1,25,155,,,,,,,,
,,615ed775a1a249fe4b81b7ea,65af56cbcbfd19b26dc0c439,2024-01-23_08h06.13.403,bars,2023.2.3,Win32,60.24096386,657b66ea316d21385b68909f,,,,,,,,,,,2024.027,2025.0176,,,2025.5179,2025.7675,,29,29,,,,,,,,,,,,,,,,bars/023.png,bars/mask004.png,,,,,,,,,,,,4,1,,,,,,,4,2,5,2,,,,,,,,,,,2025.0176,2025.5178,2025.7676,2028.051,space,2.2797,,2028.0511,9,86,2029.0512,2029.0513,2029.0607,,,,0,42,42,42,1,20,115,,,,,,,,
,,615ed775a1a249fe4b81b7ea,65af56cbcbfd19b26dc0c439,2024-01-23_08h06.13.403,bars,2023.2.3,Win32,60.24096386,657b66ea316d21385b68909f,,,,,,,,,,,2029.0609,2030.0511,,,2030.551,2030.8011,,128,128,,,,,,,,,,,,,,,,bars/036.png,bars/mask002.png,,,,,,,,,,,,3,1,,,,,,,6,0,7,1,,,,,,,,,,,2030.0512,2030.5509,2030.8013,2035.7677,space,4.9495,,2035.7678,17,72,2036.7679,2036.768,2036.7766,,,,0,43,43,43,1,145,20,,,,,,,,
,,615ed775a1a249fe4b81b7ea,65af56cbcbfd19b26dc0c439,2024-01-23_08h06.13.403,bars,2023.2.3,Win32,60.24096386,657b66ea316d21385b68909f,,,,,,,,,,,2036.7769,2037.7678,,,2038.2678,2038.5177,,54,54,,,,,,,,,,,,,,,,bars/000.png,bars/mask006.png,,,,,,,,,,,,3,1,,,,,,,4,2,6,2,,,,,,,,,,,2037.7678,2038.2677,2038.5179,2040.8355,space,2.3016,,2040.8355,14,89,2041.8349,2041.8349,2041.844,,,,0,44,44,44,1,40,145,,,,,,,,
,,615ed775a1a249fe4b81b7ea,65af56cbcbfd19b26dc0c439,2024-01-23_08h06.13.403,bars,2023.2.3,Win32,60.24096386,657b66ea316d21385b68909f,,,,,,,,,,,2041.8442,2042.8349,,,2043.3349,2043.5848,,33,33,,,,,,,,,,,,,,,,bars/020.png,bars/mask002.png,,,,,,,,,,,,0,2,,,,,,,2,4,3,4,,,,,,,,,,,2042.835,2043.3348,2043.5848,2045.3853,space,1.7831,,2045.3854,82,43,2046.3854,2046.3855,2046.3947,,,,0,45,45,45,1,115,170,,,,,,,,
,,615ed775a1a249fe4b81b7ea,65af56cbcbfd19b26dc0c439,2024-01-23_08h06.13.403,bars,2023.2.3,Win32,60.24096386,657b66ea316d21385b68909f,,,,,,,,,,,2046.3949,2047.385,,,2047.885,2048.135,,127,127,,,,,,,,,,,,,,,,bars/035.png,bars/mask001.png,,,,,,,,,,,,0,1,,,,,,,4,2,4,1,,,,,,,,,,,2047.3852,2047.8849,2048.1352,2050.0683,space,1.9224,,2050.0685,48,67,2051.068,2051.0681,2051.0707,,,,0,46,46,46,1,175,60,,,,,,,,
,,615ed775a1a249fe4b81b7ea,65af56cbcbfd19b26dc0c439,2024-01-23_08h06.13.403,bars,2023.2.3,Win32,60.24096386,657b66ea316d21385b68909f,,,,,,,,,,,2051.071,2052.0681,,,2052.5681,2052.8183,,12,12,,,,,,,,,,,,,,,,bars/048.png,bars/mask002.png,,,,,,,,,,,,0,2,,,,,,,6,0,6,0,,,,,,,,,,,2052.0682,2052.568,2052.8184,2054.9354,space,2.1002,,2054.9354,38,17,2055.9349,2055.9349,2055.9448,,,,0,47,47,47,1,50,175,,,,,,,,
,,615ed775a1a249fe4b81b7ea,65af56cbcbfd19b26dc0c439,2024-01-23_08h06.13.403,bars,2023.2.3,Win32,60.24096386,657b66ea316d21385b68909f,,,,,,,,,,,2055.9449,2056.9349,,,2057.4355,2057.6852,,53,53,,,,,,,,,,,,,,,,bars/017.png,bars/mask007.png,,,,,,,,,,,,1,2,,,,,,,4,2,5,2,,,,,,,,,,,2056.935,2057.4354,2057.6853,2059.7519,space,2.06,,2059.752,88,8,2060.7516,2060.7516,2060.7609,,,,0,48,48,48,1,145,45,,,,,,,,
,,615ed775a1a249fe4b81b7ea,65af56cbcbfd19b26dc0c439,2024-01-23_08h06.13.403,bars,2023.2.3,Win32,60.24096386,657b66ea316d21385b68909f,,,,,,,,,,,2060.7611,2061.7524,,,2062.2517,2062.502,,100,100,,,,,,,,,,,,,,,,bars/003.png,bars/mask001.png,,,,,,,,,,,,0,2,,,,,,,2,4,4,3,,,,,,,,,,,2061.7525,2062.2516,2062.502,2065.1187,space,2.6035,,2065.1188,75,40,2066.1183,2066.1183,2066.1275,,,,0,49,49,49,1,25,140,,,,,,,,
,,615ed775a1a249fe4b81b7ea,65af56cbcbfd19b26dc0c439,2024-01-23_08h06.13.403,bars,2023.2.3,Win32,60.24096386,657b66ea316d21385b68909f,,,,,,,,,,,,,,,,,,,,,,,,,,,,,,,,,,,,,,,,,,,,,,,,,,,,,,,,,,,,,,,,,,,,,,,,,,,,,,,,,,,,,,,,,,,,,2066.1276,2126.1201,0,2,2,1,1,sequence_tables/blk015.csv
,,615ed775a1a249fe4b81b7ea,65af56cbcbfd19b26dc0c439,2024-01-23_08h06.13.403,bars,2023.2.3,Win32,60.24096386,657b66ea316d21385b68909f,,,,,,,,,,,2133.9329,2134.8867,,,2135.3702,2135.6199,,88,88,,,,,,,,,,,,,,,,bars/048.png,bars/mask008.png,,,,,,,,,,,,0,1,,,,,,,5,9,5,7,,,,,,2126.1298,2133.8699,space,7.6865,,2134.8867,2135.3701,2135.62,2137.8369,space,2.2043,,2137.8369,38,87,2138.837,2138.8372,2138.8485,,,,0,0,0,0,1,50,175,,,,,,,,
,,615ed775a1a249fe4b81b7ea,65af56cbcbfd19b26dc0c439,2024-01-23_08h06.13.403,bars,2023.2.3,Win32,60.24096386,657b66ea316d21385b68909f,,,,,,,,,,,2138.8488,2139.8366,,,2140.3371,2140.5869,,107,107,,,,,,,,,,,,,,,,bars/035.png,bars/mask003.png,,,,,,,,,,,,0,2,,,,,,,7,7,10,5,,,,,,,,,,,2139.8366,2140.337,2140.5869,2142.2207,space,1.6239,,2142.2207,68,47,2143.2202,2143.2202,2143.2229,,,,0,1,1,1,1,175,60,,,,,,,,
,,615ed775a1a249fe4b81b7ea,65af56cbcbfd19b26dc0c439,2024-01-23_08h06.13.403,bars,2023.2.3,Win32,60.24096386,657b66ea316d21385b68909f,,,,,,,,,,,2143.2231,2144.2201,,,2144.7203,2144.9703,,77,77,,,,,,,,,,,,,,,,bars/018.png,bars/mask001.png,,,,,,,,,,,,2,2,,,,,,,5,5,6,3,,,,,,,,,,,2144.2202,2144.7201,2144.9704,2146.2369,space,1.2611,,2146.2369,73,13,2147.2372,2147.2373,2147.2383,,,,0,2,2,2,1,150,90,,,,,,,,
,,615ed775a1a249fe4b81b7ea,65af56cbcbfd19b26dc0c439,2024-01-23_08h06.13.403,bars,2023.2.3,Win32,60.24096386,657b66ea316d21385b68909f,,,,,,,,,,,2147.2387,2148.237,,,2148.7372,2148.9871,,145,145,,,,,,,,,,,,,,,,bars/031.png,bars/mask008.png,,,,,,,,,,,,1,1,,,,,,,7,3,6,6,,,,,,,,,,,2148.2371,2148.7371,2148.9871,2152.5372,space,3.5389,,2152.5373,25,70,2153.5371,2153.5373,2153.5479,,,,0,3,3,3,1,120,35,,,,,,,,
,,615ed775a1a249fe4b81b7ea,65af56cbcbfd19b26dc0c439,2024-01-23_08h06.13.403,bars,2023.2.3,Win32,60.24096386,657b66ea316d21385b68909f,,,,,,,,,,,2153.548,2154.5371,,,2155.0373,2155.2873,,118,118,,,,,,,,,,,,,,,,bars/040.png,bars/mask007.png,,,,,,,,,,,,2,1,,,,,,,9,5,9,6,,,,,,,,,,,2154.5371,2155.0372,2155.2873,2158.3538,space,3.0566,,2158.3539,22,67,2159.3541,2159.3542,2159.3635,,,,0,4,4,4,1,140,5,,,,,,,,
,,615ed775a1a249fe4b81b7ea,65af56cbcbfd19b26dc0c439,2024-01-23_08h06.13.403,bars,2023.2.3,Win32,60.24096386,657b66ea316d21385b68909f,,,,,,,,,,,2159.3636,2160.3541,,,2160.8542,2161.1043,,3,3,,,,,,,,,,,,,,,,bars/005.png,bars/mask005.png,,,,,,,,,,,,7,1,,,,,,,10,7,9,6,,,,,,,,,,,2160.3542,2160.8541,2161.1043,2164.4379,space,3.3198,,2164.438,7,43,2165.4373,2165.4373,2165.4471,,,,0,5,5,5,1,10,140,,,,,,,,
,,615ed775a1a249fe4b81b7ea,65af56cbcbfd19b26dc0c439,2024-01-23_08h06.13.403,bars,2023.2.3,Win32,60.24096386,657b66ea316d21385b68909f,,,,,,,,,,,2165.4473,2166.4373,,,2166.9374,2167.1876,,49,49,,,,,,,,,,,,,,,,bars/019.png,bars/mask004.png,,,,,,,,,,,,6,1,,,,,,,8,5,7,4,,,,,,,,,,,2166.4374,2166.9374,2167.1877,2169.6377,space,2.433,,2169.6378,4,56,2170.6374,2170.6375,2170.6475,,,,0,6,6,6,1,45,105,,,,,,,,
,,615ed775a1a249fe4b81b7ea,65af56cbcbfd19b26dc0c439,2024-01-23_08h06.13.403,bars,2023.2.3,Win32,60.24096386,657b66ea316d21385b68909f,,,,,,,,,,,2170.6477,2171.6374,,,2172.1377,2172.3875,,15,15,,,,,,,,,,,,,,,,bars/040.png,bars/mask007.png,,,,,,,,,,,,5,2,,,,,,,6,7,6,8,,,,,,,,,,,2171.6375,2172.1376,2172.3876,2175.0381,space,2.6362,,2175.0381,55,10,2176.0375,2176.0376,2176.0482,,,,0,7,7,7,1,140,5,,,,,,,,
,,615ed775a1a249fe4b81b7ea,65af56cbcbfd19b26dc0c439,2024-01-23_08h06.13.403,bars,2023.2.3,Win32,60.24096386,657b66ea316d21385b68909f,,,,,,,,,,,2176.0484,2177.0375,,,2177.5379,2177.7876,,5,5,,,,,,,,,,,,,,,,bars/007.png,bars/mask009.png,,,,,,,,,,,,6,1,,,,,,,8,5,9,6,,,,,,,,,,,2177.0377,2177.5379,2177.7877,2180.5878,space,2.795,,2180.5879,10,50,2181.5877,2181.5878,2181.598,,,,0,8,8,8,1,175,55,,,,,,,,
,,615ed775a1a249fe4b81b7ea,65af56cbcbfd19b26dc0c439,2024-01-23_08h06.13.403,bars,2023.2.3,Win32,60.24096386,657b66ea316d21385b68909f,,,,,,,,,,,2181.5983,2182.5877,,,2183.0884,2183.3376,,131,131,,,,,,,,,,,,,,,,bars/035.png,bars/mask002.png,,,,,,,,,,,,0,1,,,,,,,10,7,10,8,,,,,,,,,,,2182.5877,2183.0882,2183.3376,2188.3879,space,5.0448,,2188.388,44,71,2189.3878,2189.3878,2189.3964,,,,0,9,9,9,1,175,60,,,,,,,,
,,615ed775a1a249fe4b81b7ea,65af56cbcbfd19b26dc0c439,2024-01-23_08h06.13.403,bars,2023.2.3,Win32,60.24096386,657b66ea316d21385b68909f,,,,,,,,,,,2189.3965,2190.3886,,,2190.8879,2191.138,,51,51,,,,,,,,,,,,,,,,bars/016.png,bars/mask000.png,,,,,,,,,,,,5,1,,,,,,,8,9,8,9,,,,,,,,,,,2190.3886,2190.8878,2191.138,2193.3379,space,2.196,,2193.3379,11,66,2194.3382,2194.3382,2194.347,,,,0,10,10,10,1,40,165,,,,,,,,
,,615ed775a1a249fe4b81b7ea,65af56cbcbfd19b26dc0c439,2024-01-23_08h06.13.403,bars,2023.2.3,Win32,60.24096386,657b66ea316d21385b68909f,,,,,,,,,,,2194.3472,2195.3378,,,2195.838,2196.0879,,12,12,,,,,,,,,,,,,,,,bars/038.png,bars/mask008.png,,,,,,,,,,,,0,1,,,,,,,6,10,5,10,,,,,,,,,,,2195.3378,2195.8379,2196.0879,2197.9722,space,1.8716,,2197.9723,27,58,2198.9716,2198.9716,2198.9803,,,,0,11,11,11,1,165,70,,,,,,,,
,,615ed775a1a249fe4b81b7ea,65af56cbcbfd19b26dc0c439,2024-01-23_08h06.13.403,bars,2023.2.3,Win32,60.24096386,657b66ea316d21385b68909f,,,,,,,,,,,2198.9805,2199.9718,,,2200.4719,2200.7217,,56,56,,,,,,,,,,,,,,,,bars/040.png,bars/mask004.png,,,,,,,,,,,,0,2,,,,,,,8,10,10,8,,,,,,,,,,,2199.9718,2200.4719,2200.7218,2203.4049,space,2.6789,,2203.4049,84,51,2204.4051,2204.4052,2204.415,,,,0,12,12,12,1,140,5,,,,,,,,
,,615ed775a1a249fe4b81b7ea,65af56cbcbfd19b26dc0c439,2024-01-23_08h06.13.403,bars,2023.2.3,Win32,60.24096386,657b66ea316d21385b68909f,,,,,,,,,,,2204.4152,2205.4052,,,2205.9057,2206.1551,,55,55,,,,,,,,,,,,,,,,bars/046.png,bars/mask008.png,,,,,,,,,,,,0,2,,,,,,,10,10,10,8,,,,,,,,,,,2205.4052,2205.9057,2206.1552,2208.3717,space,2.2033,,2208.3717,80,30,2209.3716,2209.3716,2209.3804,,,,0,13,13,13,1,155,85,,,,,,,,
,,615ed775a1a249fe4b81b7ea,65af56cbcbfd19b26dc0c439,2024-01-23_08h06.13.403,bars,2023.2.3,Win32,60.24096386,657b66ea316d21385b68909f,,,,,,,,,,,2209.3805,2210.3719,,,2210.8718,2211.1218,,113,113,,,,,,,,,,,,,,,,bars/041.png,bars/mask000.png,,,,,,,,,,,,1,2,,,,,,,8,8,7,8,,,,,,,,,,,2210.372,2210.8718,2211.122,2214.5057,space,3.3662,,2214.5058,87,28,2215.5054,2215.5055,2215.5144,,,,0,14,14,14,1,20,85,,,,,,,,
,,615ed775a1a249fe4b81b7ea,65af56cbcbfd19b26dc0c439,2024-01-23_08h06.13.403,bars,2023.2.3,Win32,60.24096386,657b66ea316d21385b68909f,,,,,,,,,,,2215.5146,2216.5054,,,2217.0059,2217.2554,,144,144,,,,,,,,,,,,,,,,bars/000.png,bars/mask009.png,,,,,,,,,,,,6,2,,,,,,,6,6,7,6,,,,,,,,,,,2216.5054,2217.0057,2217.2555,2219.9726,space,2.7093,,2219.9726,76,1,2220.9722,2220.9722,2220.9808,,,,0,15,15,15,1,40,145,,,,,,,,
,,615ed775a1a249fe4b81b7ea,65af56cbcbfd19b26dc0c439,2024-01-23_08h06.13.403,bars,2023.2.3,Win32,60.24096386,657b66ea316d21385b68909f,,,,,,,,,,,2220.9809,2221.9722,,,2222.4718,2222.7217,,44,44,,,,,,,,,,,,,,,,bars/034.png,bars/mask007.png,,,,,,,,,,,,1,2,,,,,,,8,4,7,2,,,,,,,,,,,2221.9723,2222.4718,2222.7218,2225.6556,space,2.9305,,2225.6556,81,21,2226.6555,2226.6556,2226.6647,,,,0,16,16,16,1,125,65,,,,,,,,
,,615ed775a1a249fe4b81b7ea,65af56cbcbfd19b26dc0c439,2024-01-23_08h06.13.403,bars,2023.2.3,Win32,60.24096386,657b66ea316d21385b68909f,,,,,,,,,,,2226.6649,2227.6557,,,2228.1554,2228.4057,,135,135,,,,,,,,,,,,,,,,bars/007.png,bars/mask004.png,,,,,,,,,,,,0,1,,,,,,,10,2,9,2,,,,,,,,,,,2227.6558,2228.1554,2228.4057,2231.6065,space,3.1859,,2231.6068,40,80,2232.6062,2232.6062,2232.6157,,,,0,17,17,17,1,175,55,,,,,,,,
,,615ed775a1a249fe4b81b7ea,65af56cbcbfd19b26dc0c439,2024-01-23_08h06.13.403,bars,2023.2.3,Win32,60.24096386,657b66ea316d21385b68909f,,,,,,,,,,,2232.6161,2233.6056,,,2234.1061,2234.3557,,135,135,,,,,,,,,,,,,,,,bars/035.png,bars/mask009.png,,,,,,,,,,,,0,1,,,,,,,8,0,6,0,,,,,,,,,,,2233.6056,2234.106,2234.3559,2237.0563,space,2.6823,,2237.0564,40,75,2238.0561,2238.0562,2238.0653,,,,0,18,18,18,1,175,60,,,,,,,,
,,615ed775a1a249fe4b81b7ea,65af56cbcbfd19b26dc0c439,2024-01-23_08h06.13.403,bars,2023.2.3,Win32,60.24096386,657b66ea316d21385b68909f,,,,,,,,,,,2238.0654,2239.0556,,,2239.5564,2239.8059,,87,87,,,,,,,,,,,,,,,,bars/006.png,bars/mask005.png,,,,,,,,,,,,1,2,,,,,,,10,0,10,2,,,,,,,,,,,2239.0556,2239.5563,2239.806,2242.2562,space,2.4332,,2242.2564,52,13,2243.2557,2243.2557,2243.2657,,,,0,19,19,19,1,35,100,,,,,,,,
,,615ed775a1a249fe4b81b7ea,65af56cbcbfd19b26dc0c439,2024-01-23_08h06.13.403,bars,2023.2.3,Win32,60.24096386,657b66ea316d21385b68909f,,,,,,,,,,,2243.266,2244.2558,,,2244.7561,2245.006,,123,123,,,,,,,,,,,,,,,,bars/048.png,bars/mask001.png,,,,,,,,,,,,0,2,,,,,,,10,0,10,0,,,,,,,,,,,2244.2559,2244.7561,2245.006,2247.1725,space,2.1534,,2247.1726,73,52,2248.1729,2248.1729,2248.1741,,,,0,20,20,20,1,50,175,,,,,,,,
,,615ed775a1a249fe4b81b7ea,65af56cbcbfd19b26dc0c439,2024-01-23_08h06.13.403,bars,2023.2.3,Win32,60.24096386,657b66ea316d21385b68909f,,,,,,,,,,,2248.1744,2249.1731,,,2249.673,2249.9228,,18,18,,,,,,,,,,,,,,,,bars/006.png,bars/mask003.png,,,,,,,,,,,,2,1,,,,,,,8,0,5,0,,,,,,,,,,,2249.1732,2249.6729,2249.9228,2251.6233,space,1.6916,,2251.6233,17,82,2252.6228,2252.6228,2252.6325,,,,0,21,21,21,1,35,100,,,,,,,,
,,615ed775a1a249fe4b81b7ea,65af56cbcbfd19b26dc0c439,2024-01-23_08h06.13.403,bars,2023.2.3,Win32,60.24096386,657b66ea316d21385b68909f,,,,,,,,,,,2252.6327,2253.623,,,2254.1229,2254.373,,171,171,,,,,,,,,,,,,,,,bars/034.png,bars/mask001.png,,,,,,,,,,,,0,1,,,,,,,10,0,9,0,,,,,,,,,,,2253.623,2254.1229,2254.3731,2256.0071,space,1.6189,,2256.0073,46,74,2257.0064,2257.0065,2257.0154,,,,0,22,22,22,1,125,65,,,,,,,,
,,615ed775a1a249fe4b81b7ea,65af56cbcbfd19b26dc0c439,2024-01-23_08h06.13.403,bars,2023.2.3,Win32,60.24096386,657b66ea316d21385b68909f,,,,,,,,,,,2257.0156,2258.0064,,,2258.5062,2258.7563,,22,22,,,,,,,,,,,,,,,,bars/030.png,bars/mask007.png,,,,,,,,,,,,0,2,,,,,,,10,2,9,1,,,,,,,,,,,2258.0065,2258.5061,2258.7564,2260.9235,space,2.1632,,2260.9236,62,43,2261.9236,2261.9236,2261.9253,,,,0,23,23,23,1,140,65,,,,,,,,
,,615ed775a1a249fe4b81b7ea,65af56cbcbfd19b26dc0c439,2024-01-23_08h06.13.403,bars,2023.2.3,Win32,60.24096386,657b66ea316d21385b68909f,,,,,,,,,,,2261.9257,2262.9232,,,2263.4235,2263.6733,,5,5,,,,,,,,,,,,,,,,bars/001.png,bars/mask001.png,,,,,,,,,,,,0,1,,,,,,,8,0,8,0,,,,,,,,,,,2262.9232,2263.4233,2263.6734,2267.3566,space,3.6718,,2267.3566,55,80,2268.3565,2268.3565,2268.3668,,,,0,24,24,24,1,130,85,,,,,,,,
,,615ed775a1a249fe4b81b7ea,65af56cbcbfd19b26dc0c439,2024-01-23_08h06.13.403,bars,2023.2.3,Win32,60.24096386,657b66ea316d21385b68909f,,,,,,,,,,,2268.367,2269.357,,,2269.8569,2270.1068,,30,30,,,,,,,,,,,,,,,,bars/034.png,bars/mask009.png,,,,,,,,,,,,0,2,,,,,,,6,0,4,0,,,,,,,,,,,2269.3571,2269.8568,2270.107,2272.8407,space,2.7304,,2272.8408,85,35,2273.8398,2273.8398,2273.8494,,,,0,25,25,25,1,125,65,,,,,,,,
,,615ed775a1a249fe4b81b7ea,65af56cbcbfd19b26dc0c439,2024-01-23_08h06.13.403,bars,2023.2.3,Win32,60.24096386,657b66ea316d21385b68909f,,,,,,,,,,,2273.8496,2274.84,,,2275.3397,2275.5896,,155,155,,,,,,,,,,,,,,,,bars/004.png,bars/mask003.png,,,,,,,,,,,,0,2,,,,,,,4,2,3,1,,,,,,,,,,,2274.84,2275.3397,2275.5896,2280.791,space,5.1848,,2280.791,50,30,2281.7899,2281.79,2281.7987,,,,0,26,26,26,1,25,125,,,,,,,,
,,615ed775a1a249fe4b81b7ea,65af56cbcbfd19b26dc0c439,2024-01-23_08h06.13.403,bars,2023.2.3,Win32,60.24096386,657b66ea316d21385b68909f,,,,,,,,,,,2281.7989,2282.7899,,,2283.2901,2283.54,,96,96,,,,,,,,,,,,,,,,bars/039.png,bars/mask006.png,,,,,,,,,,,,0,2,,,,,,,2,0,2,0,,,,,,,,,,,2282.79,2283.2901,2283.54,2286.6911,space,3.1415,,2286.6911,79,9,2287.6899,2287.69,2287.6984,,,,0,27,27,27,1,175,105,,,,,,,,
,,615ed775a1a249fe4b81b7ea,65af56cbcbfd19b26dc0c439,2024-01-23_08h06.13.403,bars,2023.2.3,Win32,60.24096386,657b66ea316d21385b68909f,,,,,,,,,,,2287.6985,2288.6904,,,2289.1909,2289.44,,111,111,,,,,,,,,,,,,,,,bars/023.png,bars/mask000.png,,,,,,,,,,,,1,2,,,,,,,0,2,1,1,,,,,,,,,,,2288.6905,2289.1909,2289.44,2293.8405,space,4.3973,,2293.8406,89,4,2294.8405,2294.8406,2294.8491,,,,0,28,28,28,1,20,115,,,,,,,,
,,615ed775a1a249fe4b81b7ea,65af56cbcbfd19b26dc0c439,2024-01-23_08h06.13.403,bars,2023.2.3,Win32,60.24096386,657b66ea316d21385b68909f,,,,,,,,,,,2294.8494,2295.8404,,,2296.341,2296.5903,,92,92,,,,,,,,,,,,,,,,bars/004.png,bars/mask008.png,,,,,,,,,,,,0,2,,,,,,,2,0,3,0,,,,,,,,,,,2295.8404,2296.3407,2296.5904,2298.9744,space,2.3729,,2298.9745,67,33,2299.9742,2299.9743,2299.9754,,,,0,29,29,29,1,25,125,,,,,,,,
,,615ed775a1a249fe4b81b7ea,65af56cbcbfd19b26dc0c439,2024-01-23_08h06.13.403,bars,2023.2.3,Win32,60.24096386,657b66ea316d21385b68909f,,,,,,,,,,,2299.9757,2300.9741,,,2301.4736,2301.724,,165,165,,,,,,,,,,,,,,,,bars/045.png,bars/mask008.png,,,,,,,,,,,,0,2,,,,,,,4,2,3,1,,,,,,,,,,,2300.9742,2301.4736,2301.7241,2303.4574,space,1.7194,,2303.4574,65,25,2304.4579,2304.458,2304.4665,,,,0,30,30,30,1,100,10,,,,,,,,
,,615ed775a1a249fe4b81b7ea,65af56cbcbfd19b26dc0c439,2024-01-23_08h06.13.403,bars,2023.2.3,Win32,60.24096386,657b66ea316d21385b68909f,,,,,,,,,,,2304.4668,2305.457,,,2305.9575,2306.2071,,102,102,,,,,,,,,,,,,,,,bars/045.png,bars/mask004.png,,,,,,,,,,,,4,1,,,,,,,2,4,4,5,,,,,,,,,,,2305.4571,2305.9575,2306.2071,2310.2575,space,4.0353,,2310.2576,2,88,2311.2572,2311.2573,2311.2665,,,,0,31,31,31,1,100,10,,,,,,,,
,,615ed775a1a249fe4b81b7ea,65af56cbcbfd19b26dc0c439,2024-01-23_08h06.13.403,bars,2023.2.3,Win32,60.24096386,657b66ea316d21385b68909f,,,,,,,,,,,2311.2667,2312.2575,,,2312.7573,2313.0073,,21,21,,,,,,,,,,,,,,,,bars/025.png,bars/mask008.png,,,,,,,,,,,,2,2,,,,,,,0,6,1,5,,,,,,,,,,,2312.2575,2312.7573,2313.0073,2315.9247,space,2.9104,,2315.9247,84,19,2316.9242,2316.9242,2316.9338,,,,0,32,32,32,1,105,40,,,,,,,,
,,615ed775a1a249fe4b81b7ea,65af56cbcbfd19b26dc0c439,2024-01-23_08h06.13.403,bars,2023.2.3,Win32,60.24096386,657b66ea316d21385b68909f,,,,,,,,,,,2316.934,2317.9243,,,2318.4246,2318.6746,,29,29,,,,,,,,,,,,,,,,bars/037.png,bars/mask000.png,,,,,,,,,,,,0,1,,,,,,,0,8,0,8,,,,,,,,,,,2317.9244,2318.4244,2318.6746,2321.4241,space,2.7452,,2321.4241,59,76,2322.4244,2322.4245,2322.4342,,,,0,33,33,33,1,150,105,,,,,,,,
,,615ed775a1a249fe4b81b7ea,65af56cbcbfd19b26dc0c439,2024-01-23_08h06.13.403,bars,2023.2.3,Win32,60.24096386,657b66ea316d21385b68909f,,,,,,,,,,,2322.4343,2323.4241,,,2323.9246,2324.1744,,122,122,,,,,,,,,,,,,,,,bars/040.png,bars/mask006.png,,,,,,,,,,,,0,1,,,,,,,0,6,0,6,,,,,,,,,,,2323.4241,2323.9245,2324.1745,2326.4082,space,2.2227,,2326.4082,18,63,2327.4075,2327.4076,2327.4161,,,,0,34,34,34,1,140,5,,,,,,,,
,,615ed775a1a249fe4b81b7ea,65af56cbcbfd19b26dc0c439,2024-01-23_08h06.13.403,bars,2023.2.3,Win32,60.24096386,657b66ea316d21385b68909f,,,,,,,,,,,2327.4163,2328.4075,,,2328.9075,2329.1576,,87,87,,,,,,,,,,,,,,,,bars/025.png,bars/mask007.png,,,,,,,,,,,,0,1,,,,,,,0,8,0,7,,,,,,,,,,,2328.4075,2328.9075,2329.1577,2331.9578,space,2.7854,,2331.9578,18,47,2332.958,2332.9581,2332.9666,,,,0,35,35,35,1,105,40,,,,,,,,
,,615ed775a1a249fe4b81b7ea,65af56cbcbfd19b26dc0c439,2024-01-23_08h06.13.403,bars,2023.2.3,Win32,60.24096386,657b66ea316d21385b68909f,,,,,,,,,,,2332.9668,2333.9578,,,2334.4578,2334.7082,,119,119,,,,,,,,,,,,,,,,bars/029.png,bars/mask000.png,,,,,,,,,,,,0,1,,,,,,,2,6,2,6,,,,,,,,,,,2333.9579,2334.4578,2334.7083,2336.6089,space,1.8883,,2336.609,29,74,2337.608,2337.6081,2337.6093,,,,0,36,36,36,1,90,45,,,,,,,,
,,615ed775a1a249fe4b81b7ea,65af56cbcbfd19b26dc0c439,2024-01-23_08h06.13.403,bars,2023.2.3,Win32,60.24096386,657b66ea316d21385b68909f,,,,,,,,,,,2337.6095,2338.6078,,,2339.1078,2339.3579,,78,78,,,,,,,,,,,,,,,,bars/029.png,bars/mask007.png,,,,,,,,,,,,1,1,,,,,,,0,8,1,7,,,,,,,,,,,2338.6079,2339.1077,2339.3579,2342.3579,space,2.9912,,2342.3579,12,33,2343.3583,2343.3584,2343.3675,,,,0,37,37,37,1,90,45,,,,,,,,
,,615ed775a1a249fe4b81b7ea,65af56cbcbfd19b26dc0c439,2024-01-23_08h06.13.403,bars,2023.2.3,Win32,60.24096386,657b66ea316d21385b68909f,,,,,,,,,,,2343.3676,2344.3581,,,2344.8583,2345.108,,133,133,,,,,,,,,,,,,,,,bars/005.png,bars/mask001.png,,,,,,,,,,,,7,2,,,,,,,2,10,5,9,,,,,,,,,,,2344.3581,2344.8583,2345.108,2348.2418,space,3.1184,,2348.2418,57,7,2349.2418,2349.2418,2349.2521,,,,0,38,38,38,1,10,140,,,,,,,,
,,615ed775a1a249fe4b81b7ea,65af56cbcbfd19b26dc0c439,2024-01-23_08h06.13.403,bars,2023.2.3,Win32,60.24096386,657b66ea316d21385b68909f,,,,,,,,,,,2349.2523,2350.2417,,,2350.742,2350.9917,,23,23,,,,,,,,,,,,,,,,bars/016.png,bars/mask001.png,,,,,,,,,,,,0,1,,,,,,,0,10,0,10,,,,,,,,,,,2350.2418,2350.742,2350.9917,2353.2085,space,2.2095,,2353.2086,17,38,2354.2083,2354.2084,2354.2108,,,,0,39,39,39,1,40,165,,,,,,,,
,,615ed775a1a249fe4b81b7ea,65af56cbcbfd19b26dc0c439,2024-01-23_08h06.13.403,bars,2023.2.3,Win32,60.24096386,657b66ea316d21385b68909f,,,,,,,,,,,2354.2111,2355.2085,,,2355.7088,2355.9586,,138,138,,,,,,,,,,,,,,,,bars/025.png,bars/mask003.png,,,,,,,,,,,,0,1,,,,,,,2,10,3,10,,,,,,,,,,,2355.2086,2355.7087,2355.9587,2358.6084,space,2.645,,2358.6085,33,82,2359.6089,2359.6089,2359.6175,,,,0,40,40,40,1,105,40,,,,,,,,
,,615ed775a1a249fe4b81b7ea,65af56cbcbfd19b26dc0c439,2024-01-23_08h06.13.403,bars,2023.2.3,Win32,60.24096386,657b66ea316d21385b68909f,,,,,,,,,,,2359.6176,2360.6083,,,2361.1083,2361.3586,,11,11,,,,,,,,,,,,,,,,bars/007.png,bars/mask000.png,,,,,,,,,,,,3,1,,,,,,,4,10,6,10,,,,,,,,,,,2360.6084,2361.1082,2361.3586,2363.4257,space,2.0498,,2363.4259,16,44,2364.425,2364.4251,2364.4341,,,,0,41,41,41,1,175,55,,,,,,,,
,,615ed775a1a249fe4b81b7ea,65af56cbcbfd19b26dc0c439,2024-01-23_08h06.13.403,bars,2023.2.3,Win32,60.24096386,657b66ea316d21385b68909f,,,,,,,,,,,2364.4344,2365.426,,,2365.9255,2366.1756,,9,9,,,,,,,,,,,,,,,,bars/040.png,bars/mask006.png,,,,,,,,,,,,9,2,,,,,,,2,10,2,10,,,,,,,,,,,2365.4261,2365.9254,2366.1756,2368.5257,space,2.3387,,2368.5257,49,4,2369.5255,2369.5256,2369.5356,,,,0,42,42,42,1,140,5,,,,,,,,
,,615ed775a1a249fe4b81b7ea,65af56cbcbfd19b26dc0c439,2024-01-23_08h06.13.403,bars,2023.2.3,Win32,60.24096386,657b66ea316d21385b68909f,,,,,,,,,,,2369.5359,2370.5258,,,2371.0255,2371.2757,,148,148,,,,,,,,,,,,,,,,bars/011.png,bars/mask004.png,,,,,,,,,,,,2,1,,,,,,,4,10,4,9,,,,,,,,,,,2370.5258,2371.0255,2371.2757,2373.1587,space,1.8771,,2373.1587,12,63,2374.1587,2374.1587,2374.1614,,,,0,43,43,43,1,160,85,,,,,,,,
,,615ed775a1a249fe4b81b7ea,65af56cbcbfd19b26dc0c439,2024-01-23_08h06.13.403,bars,2023.2.3,Win32,60.24096386,657b66ea316d21385b68909f,,,,,,,,,,,2374.1616,2375.1591,,,2375.6591,2375.9091,,158,158,,,,,,,,,,,,,,,,bars/037.png,bars/mask003.png,,,,,,,,,,,,5,1,,,,,,,6,8,7,8,,,,,,,,,,,2375.1592,2375.6591,2375.9091,2377.7935,space,1.8736,,2377.7935,8,53,2378.7926,2378.7926,2378.8012,,,,0,44,44,44,1,150,105,,,,,,,,
,,615ed775a1a249fe4b81b7ea,65af56cbcbfd19b26dc0c439,2024-01-23_08h06.13.403,bars,2023.2.3,Win32,60.24096386,657b66ea316d21385b68909f,,,,,,,,,,,2378.8014,2379.7922,,,2380.2926,2380.5427,,21,21,,,,,,,,,,,,,,,,bars/031.png,bars/mask005.png,,,,,,,,,,,,5,2,,,,,,,4,10,2,10,,,,,,,,,,,2379.7922,2380.2926,2380.5427,2382.8764,space,2.3183,,2382.8766,81,14,2383.8756,2383.8758,2383.8787,,,,0,45,45,45,1,120,35,,,,,,,,
,,615ed775a1a249fe4b81b7ea,65af56cbcbfd19b26dc0c439,2024-01-23_08h06.13.403,bars,2023.2.3,Win32,60.24096386,657b66ea316d21385b68909f,,,,,,,,,,,2383.8791,2384.8758,,,2385.3761,2385.626,,116,116,,,,,,,,,,,,,,,,bars/013.png,bars/mask009.png,,,,,,,,,,,,0,1,,,,,,,2,8,2,6,,,,,,,,,,,2384.8758,2385.376,2385.6261,2387.7426,space,2.0999,,2387.7426,41,74,2388.7431,2388.7432,2388.7524,,,,0,46,46,46,1,75,10,,,,,,,,
,,615ed775a1a249fe4b81b7ea,65af56cbcbfd19b26dc0c439,2024-01-23_08h06.13.403,bars,2023.2.3,Win32,60.24096386,657b66ea316d21385b68909f,,,,,,,,,,,2388.7526,2389.7427,,,2390.2429,2390.4928,,154,154,,,,,,,,,,,,,,,,bars/028.png,bars/mask009.png,,,,,,,,,,,,0,2,,,,,,,4,6,4,7,,,,,,,,,,,2389.7428,2390.2428,2390.4929,2392.9934,space,2.484,,2392.9934,71,34,2393.9927,2393.9927,2394.0021,,,,0,47,47,47,1,45,120,,,,,,,,
,,615ed775a1a249fe4b81b7ea,65af56cbcbfd19b26dc0c439,2024-01-23_08h06.13.403,bars,2023.2.3,Win32,60.24096386,657b66ea316d21385b68909f,,,,,,,,,,,2394.0022,2394.9931,,,2395.4928,2395.7428,,172,172,,,,,,,,,,,,,,,,bars/013.png,bars/mask000.png,,,,,,,,,,,,3,2,,,,,,,2,8,2,7,,,,,,,,,,,2394.9933,2395.4928,2395.7428,2397.5093,space,1.7612,,2397.5094,83,18,2398.5091,2398.5091,2398.5177,,,,0,48,48,48,1,75,10,,,,,,,,
,,615ed775a1a249fe4b81b7ea,65af56cbcbfd19b26dc0c439,2024-01-23_08h06.13.403,bars,2023.2.3,Win32,60.24096386,657b66ea316d21385b68909f,,,,,,,,,,,2398.518,2399.5093,,,2400.0092,2400.2597,,174,174,,,,,,,,,,,,,,,,bars/023.png,bars/mask005.png,,,,,,,,,,,,0,1,,,,,,,0,10,0,10,,,,,,,,,,,2399.5094,2400.0092,2400.2597,2402.3592,space,2.0933,,2402.3593,26,59,2403.36,2403.3601,2403.3694,,,,0,49,49,49,1,20,115,,,,,,,,
,,615ed775a1a249fe4b81b7ea,65af56cbcbfd19b26dc0c439,2024-01-23_08h06.13.403,bars,2023.2.3,Win32,60.24096386,657b66ea316d21385b68909f,,,,,,,,,,,,,,,,,,,,,,,,,,,,,,,,,,,,,,,,,,,,,,,,,,,,,,,,,,,,,,,,,,,,,,,,,,,,,,,,,,,,,,,,,,,,,2403.3696,2463.3606,0,3,3,0,1,sequence_tables/blk026.csv
,,615ed775a1a249fe4b81b7ea,65af56cbcbfd19b26dc0c439,2024-01-23_08h06.13.403,bars,2023.2.3,Win32,60.24096386,657b66ea316d21385b68909f,,,,,,,,,,,2470.3906,2471.3943,,,2471.8945,2472.1444,,7,7,,,,,,,,,,,,,,,,bars/002.png,bars/mask000.png,,,,,,,,,,,,0,1,,,,,,,10,1,8,0,,,,,,2463.3702,2470.3778,space,6.9979,,2471.3944,2471.8945,2472.1445,2474.4447,space,2.2859,,2474.4449,57,78,2475.4446,2475.4446,2475.4537,,,,0,0,0,0,1,130,85,,,,,,,,
,,615ed775a1a249fe4b81b7ea,65af56cbcbfd19b26dc0c439,2024-01-23_08h06.13.403,bars,2023.2.3,Win32,60.24096386,657b66ea316d21385b68909f,,,,,,,,,,,2475.4539,2476.4442,,,2476.9446,2477.1947,,91,91,,,,,,,,,,,,,,,,bars/024.png,bars/mask000.png,,,,,,,,,,,,0,1,,,,,,,8,0,8,0,,,,,,,,,,,2476.4442,2476.9446,2477.1947,2478.8612,space,1.6507,,2478.8613,29,79,2479.8627,2479.8627,2479.871,,,,0,1,1,1,1,120,170,,,,,,,,
,,615ed775a1a249fe4b81b7ea,65af56cbcbfd19b26dc0c439,2024-01-23_08h06.13.403,bars,2023.2.3,Win32,60.24096386,657b66ea316d21385b68909f,,,,,,,,,,,2479.8712,2480.8613,,,2481.3611,2481.6113,,148,148,,,,,,,,,,,,,,,,bars/043.png,bars/mask006.png,,,,,,,,,,,,0,2,,,,,,,6,0,5,0,,,,,,,,,,,2480.8614,2481.3611,2481.6114,2483.278,space,1.6585,,2483.2781,62,18,2484.2779,2484.2779,2484.2873,,,,0,2,2,2,1,30,130,,,,,,,,
,,615ed775a1a249fe4b81b7ea,65af56cbcbfd19b26dc0c439,2024-01-23_08h06.13.403,bars,2023.2.3,Win32,60.24096386,657b66ea316d21385b68909f,,,,,,,,,,,2484.2876,2485.2778,,,2485.7779,2486.0277,,149,149,,,,,,,,,,,,,,,,bars/031.png,bars/mask003.png,,,,,,,,,,,,0,1,,,,,,,4,2,3,0,,,,,,,,,,,2485.2779,2485.7779,2486.0278,2488.4616,space,2.4184,,2488.4616,29,66,2489.4616,2489.4617,2489.4748,,,,0,3,3,3,1,120,35,,,,,,,,
,,615ed775a1a249fe4b81b7ea,65af56cbcbfd19b26dc0c439,2024-01-23_08h06.13.403,bars,2023.2.3,Win32,60.24096386,657b66ea316d21385b68909f,,,,,,,,,,,2489.4752,2490.478,,,2490.9781,2491.2278,,68,68,,,,,,,,,,,,,,,,bars/024.png,bars/mask000.png,,,,,,,,,,,,0,1,,,,,,,6,0,5,0,,,,,,,,,,,2490.4781,2490.978,2491.2279,2493.1113,space,1.8683,,2493.1114,52,78,2494.1118,2494.1118,2494.121,,,,0,4,4,4,1,120,170,,,,,,,,
,,615ed775a1a249fe4b81b7ea,65af56cbcbfd19b26dc0c439,2024-01-23_08h06.13.403,bars,2023.2.3,Win32,60.24096386,657b66ea316d21385b68909f,,,,,,,,,,,2494.1212,2495.1112,,,2495.612,2495.8618,,21,21,,,,,,,,,,,,,,,,bars/024.png,bars/mask001.png,,,,,,,,,,,,0,2,,,,,,,8,2,10,5,,,,,,,,,,,2495.1112,2495.6118,2495.8619,2497.2115,space,1.3372,,2497.2115,81,31,2498.2117,2498.2117,2498.214,,,,0,5,5,5,1,120,170,,,,,,,,
,,615ed775a1a249fe4b81b7ea,65af56cbcbfd19b26dc0c439,2024-01-23_08h06.13.403,bars,2023.2.3,Win32,60.24096386,657b66ea316d21385b68909f,,,,,,,,,,,2498.2144,2499.2117,,,2499.7119,2499.9615,,6,6,,,,,,,,,,,,,,,,bars/028.png,bars/mask000.png,,,,,,,,,,,,0,1,,,,,,,10,0,10,1,,,,,,,,,,,2499.2118,2499.7118,2499.9616,2502.0459,space,2.07,,2502.046,39,66,2503.0452,2503.0452,2503.048,,,,0,6,6,6,1,45,120,,,,,,,,
,,615ed775a1a249fe4b81b7ea,65af56cbcbfd19b26dc0c439,2024-01-23_08h06.13.403,bars,2023.2.3,Win32,60.24096386,657b66ea316d21385b68909f,,,,,,,,,,,2503.0483,2504.0452,,,2504.5453,2504.7953,,1,181,,,,,,,,,,,,,,,,bars/033.png,bars/mask000.png,,,,,,,,,,,,2,1,,,,,,,10,0,10,0,,,,,,,,,,,2504.0453,2504.5453,2504.7954,2507.3787,space,2.5705,,2507.3788,24,26,2508.3782,2508.3782,2508.3867,,,,0,7,7,7,1,25,155,,,,,,,,
,,615ed775a1a249fe4b81b7ea,65af56cbcbfd19b26dc0c439,2024-01-23_08h06.13.403,bars,2023.2.3,Win32,60.24096386,657b66ea316d21385b68909f,,,,,,,,,,,2508.3868,2509.3784,,,2509.8784,2510.1284,,107,107,,,,,,,,,,,,,,,,bars/044.png,bars/mask002.png,,,,,,,,,,,,0,1,,,,,,,10,0,8,0,,,,,,,,,,,2509.3784,2509.8784,2510.1285,2511.779,space,1.6328,,2511.7791,32,48,2512.7783,2512.7783,2512.7794,,,,0,8,8,8,1,75,155,,,,,,,,
,,615ed775a1a249fe4b81b7ea,65af56cbcbfd19b26dc0c439,2024-01-23_08h06.13.403,bars,2023.2.3,Win32,60.24096386,657b66ea316d21385b68909f,,,,,,,,,,,2512.7795,2513.7785,,,2514.2785,2514.5287,,159,159,,,,,,,,,,,,,,,,bars/007.png,bars/mask005.png,,,,,,,,,,,,4,1,,,,,,,8,0,9,0,,,,,,,,,,,2513.7786,2514.2785,2514.5289,2516.9957,space,2.4551,,2516.9958,16,76,2517.9953,2517.9953,2518.0041,,,,0,9,9,9,1,175,55,,,,,,,,
