init_variables.started,init_variables.stopped,participant,session,date,expName,psychopyVersion,OS,frameRate,study_id,instruction_exp.started,instruction_exp.stopped,key_resp_8.keys,key_resp_8.rt,key_resp_8.duration,instruction_single.started,instruction_single.stopped,key_resp_2.keys,key_resp_2.rt,key_resp_2.duration,interval.started,interval.stopped,cue_single.started,cue_single.stopped,mask.started,mask.stopped,ori_response_single.started,res_ori,res,ori_response_single.stopped,key_resp_single.keys,key_resp_single.rt,key_resp_single.duration,disp_single.started,disp_single.stopped,key_resp.keys,key_resp.rt,key_resp.duration,single.thisRepN,single.thisTrialN,single.thisN,single.thisIndex,single.ran,ori,path,mask_path,instruction_bandit.started,instruction_bandit.stopped,key_resp_6.keys,key_resp_6.rt,key_resp_6.duration,cue_bandit.started,cue_bandit.stopped,bandit_res.keys,bandit_res.rt,bandit_res.duration,outcome_bandit.started,rew,action,outcome_bandit.stopped,bandit.thisRepN,bandit.thisTrialN,bandit.thisN,bandit.thisIndex,bandit.ran,actual_rew1,actual_rew2,rew1,rew2,instruction_task.started,instruction_task.stopped,key_resp_7.keys,key_resp_7.rt,key_resp_7.duration,wait_ready.started,wait_ready.stopped,key_resp_3.keys,key_resp_3.rt,key_resp_3.duration,cue.started,cue.stopped,ori_response.started,ori_response.stopped,key_resp_5.keys,key_resp_5.rt,key_resp_5.duration,outcome.started,diff1,diff2,outcome.stopped,disp_outcome_practice.started,disp_outcome_practice.stopped,key_resp_4.keys,key_resp_4.rt,key_resp_4.duration,trials.thisRepN,trials.thisTrialN,trials.thisN,trials.thisIndex,trials.ran,ori1,ori2,break_blk.started,break_blk.stopped,block.thisRepN,block.thisTrialN,block.thisN,block.thisIndex,block.ran,condition_file
0,0,650a6bf9f420db3c591e33b3,65af5674b1b2d753c0180a3a,2024-01-23_17h04.32.737,bars,2023.2.3,Win32,59.95203837,657b66ea316d21385b68909f,,,,,,,,,,,,,,,,,,,,,,,,,,,,,,,,,,,,,,,,,,,,,,,,,,,,,,,,,,,,,,,,,,,,,,,,,,,,,,,,,,,,,,,,,,,,,,,,,,,,
,,650a6bf9f420db3c591e33b3,65af5674b1b2d753c0180a3a,2024-01-23_17h04.32.737,bars,2023.2.3,Win32,59.95203837,657b66ea316d21385b68909f,0,93.396,y,93.372,,,,,,,,,,,,,,,,,,,,,,,,,,,,,,,,,,,,,,,,,,,,,,,,,,,,,,,,,,,,,,,,,,,,,,,,,,,,,,,,,,,,,,,,,,,,,,,,
,,650a6bf9f420db3c591e33b3,65af5674b1b2d753c0180a3a,2024-01-23_17h04.32.737,bars,2023.2.3,Win32,59.95203837,657b66ea316d21385b68909f,,,,,,93.396,104.353,space,10.937,,,,,,,,,,,,,,,,,,,,,,,,,,,,,,,,,,,,,,,,,,,,,,,,,,,,,,,,,,,,,,,,,,,,,,,,,,,,,,,,,,,,,,,,,,,
,,650a6bf9f420db3c591e33b3,65af5674b1b2d753c0180a3a,2024-01-23_17h04.32.737,bars,2023.2.3,Win32,59.95203837,657b66ea316d21385b68909f,,,,,,,,,,,104.363,105.353,105.353,105.853,105.853,106.103,106.103,108,108,124.498,space,18.368,,124.499,127.83,space,3.303,,0,0,0,1,1,20,bars/single001.png,bars/mask006.png,,,,,,,,,,,,,,,,,,,,,,,,,,,,,,,,,,,,,,,,,,,,,,,,,,,,,,,,,,,,,,,,
,,650a6bf9f420db3c591e33b3,65af5674b1b2d753c0180a3a,2024-01-23_17h04.32.737,bars,2023.2.3,Win32,59.95203837,657b66ea316d21385b68909f,,,,,,,,,,,127.833,128.83,128.83,129.329,129.329,129.58,129.58,11,11,137.661,space,8.065,,137.662,140.243,space,2.563,,0,1,1,8,1,160,bars/single008.png,bars/mask004.png,,,,,,,,,,,,,,,,,,,,,,,,,,,,,,,,,,,,,,,,,,,,,,,,,,,,,,,,,,,,,,,,
,,650a6bf9f420db3c591e33b3,65af5674b1b2d753c0180a3a,2024-01-23_17h04.32.737,bars,2023.2.3,Win32,59.95203837,657b66ea316d21385b68909f,,,,,,,,,,,140.246,141.242,141.243,141.743,141.743,141.992,141.992,175,-5,145.974,space,3.968,,145.974,148.176,space,2.182,,0,2,2,0,1,150,bars/single000.png,bars/mask006.png,,,,,,,,,,,,,,,,,,,,,,,,,,,,,,,,,,,,,,,,,,,,,,,,,,,,,,,,,,,,,,,,
,,650a6bf9f420db3c591e33b3,65af5674b1b2d753c0180a3a,2024-01-23_17h04.32.737,bars,2023.2.3,Win32,59.95203837,657b66ea316d21385b68909f,,,,,,,,,,,148.181,149.174,149.174,149.673,149.673,149.924,149.925,75,75,153.656,space,3.717,,153.657,156.188,space,2.513,,0,3,3,4,1,95,bars/single004.png,bars/mask004.png,,,,,,,,,,,,,,,,,,,,,,,,,,,,,,,,,,,,,,,,,,,,,,,,,,,,,,,,,,,,,,,,
,,650a6bf9f420db3c591e33b3,65af5674b1b2d753c0180a3a,2024-01-23_17h04.32.737,bars,2023.2.3,Win32,59.95203837,657b66ea316d21385b68909f,,,,,,,,,,,156.19,157.189,157.189,157.688,157.688,157.938,157.938,2,2,160.554,space,2.601,,160.554,161.87,space,1.298,,0,4,4,9,1,20,bars/single009.png,bars/mask006.png,,,,,,,,,,,,,,,,,,,,,,,,,,,,,,,,,,,,,,,,,,,,,,,,,,,,,,,,,,,,,,,,
,,650a6bf9f420db3c591e33b3,65af5674b1b2d753c0180a3a,2024-01-23_17h04.32.737,bars,2023.2.3,Win32,59.95203837,657b66ea316d21385b68909f,,,,,,,,,,,161.873,162.87,162.87,163.37,163.37,163.62,163.621,171,171,166.885,space,3.252,,166.885,170.284,space,3.38,,0,5,5,6,1,175,bars/single006.png,bars/mask005.png,,,,,,,,,,,,,,,,,,,,,,,,,,,,,,,,,,,,,,,,,,,,,,,,,,,,,,,,,,,,,,,,
,,650a6bf9f420db3c591e33b3,65af5674b1b2d753c0180a3a,2024-01-23_17h04.32.737,bars,2023.2.3,Win32,59.95203837,657b66ea316d21385b68909f,,,,,,,,,,,170.285,171.284,171.284,171.784,171.784,172.033,172.033,17,17,173.867,space,1.819,,173.867,175.233,space,1.35,,0,6,6,3,1,20,bars/single003.png,bars/mask005.png,,,,,,,,,,,,,,,,,,,,,,,,,,,,,,,,,,,,,,,,,,,,,,,,,,,,,,,,,,,,,,,,
,,650a6bf9f420db3c591e33b3,65af5674b1b2d753c0180a3a,2024-01-23_17h04.32.737,bars,2023.2.3,Win32,59.95203837,657b66ea316d21385b68909f,,,,,,,,,,,175.234,176.233,176.233,176.733,176.733,176.982,176.982,8,188,180.084,space,3.085,,180.084,181.668,space,1.56,,0,7,7,5,1,55,bars/single005.png,bars/mask008.png,,,,,,,,,,,,,,,,,,,,,,,,,,,,,,,,,,,,,,,,,,,,,,,,,,,,,,,,,,,,,,,,
,,650a6bf9f420db3c591e33b3,65af5674b1b2d753c0180a3a,2024-01-23_17h04.32.737,bars,2023.2.3,Win32,59.95203837,657b66ea316d21385b68909f,,,,,,,,,,,181.672,182.664,182.664,183.164,183.164,183.418,183.418,85,85,186.73,space,3.3,,186.731,188.119,space,1.365,,0,8,8,7,1,45,bars/single007.png,bars/mask009.png,,,,,,,,,,,,,,,,,,,,,,,,,,,,,,,,,,,,,,,,,,,,,,,,,,,,,,,,,,,,,,,,
,,650a6bf9f420db3c591e33b3,65af5674b1b2d753c0180a3a,2024-01-23_17h04.32.737,bars,2023.2.3,Win32,59.95203837,657b66ea316d21385b68909f,,,,,,,,,,,188.12,189.115,189.115,189.616,189.616,189.865,189.866,100,100,192.362,space,2.483,,192.362,193.361,space,0.981,,0,9,9,2,1,145,bars/single002.png,bars/mask003.png,,,,,,,,,,,,,,,,,,,,,,,,,,,,,,,,,,,,,,,,,,,,,,,,,,,,,,,,,,,,,,,,
,,650a6bf9f420db3c591e33b3,65af5674b1b2d753c0180a3a,2024-01-23_17h04.32.737,bars,2023.2.3,Win32,59.95203837,657b66ea316d21385b68909f,,,,,,,,,,,,,,,,,,,,,,,,,,,,,,,,,,,,,193.361,210.273,space,16.881,,,,,,,,,,,,,,,,,,,,,,,,,,,,,,,,,,,,,,,,,,,,,,,,,,,,,,,,,,,,
,,650a6bf9f420db3c591e33b3,65af5674b1b2d753c0180a3a,2024-01-23_17h04.32.737,bars,2023.2.3,Win32,59.95203837,657b66ea316d21385b68909f,,,,,,,,,,,,,,,,,,,,,,,,,,,,,,,,,,,,,,,,,,210.282,219.207,right,8.897,,219.208,2,2,220.203,0,0,0,0,1,9,1,9,2,,,,,,,,,,,,,,,,,,,,,,,,,,,,,,,,,,,,,,,,,
,,650a6bf9f420db3c591e33b3,65af5674b1b2d753c0180a3a,2024-01-23_17h04.32.737,bars,2023.2.3,Win32,59.95203837,657b66ea316d21385b68909f,,,,,,,,,,,,,,,,,,,,,,,,,,,,,,,,,,,,,,,,,,220.209,224.587,left,4.369,,224.587,10,1,225.585,0,1,1,1,1,10,0,10,1,,,,,,,,,,,,,,,,,,,,,,,,,,,,,,,,,,,,,,,,,
,,650a6bf9f420db3c591e33b3,65af5674b1b2d753c0180a3a,2024-01-23_17h04.32.737,bars,2023.2.3,Win32,59.95203837,657b66ea316d21385b68909f,,,,,,,,,,,,,,,,,,,,,,,,,,,,,,,,,,,,,,,,,,225.587,227.102,left,1.504,,227.102,10,1,228.101,0,2,2,2,1,10,2,10,2,,,,,,,,,,,,,,,,,,,,,,,,,,,,,,,,,,,,,,,,,
,,650a6bf9f420db3c591e33b3,65af5674b1b2d753c0180a3a,2024-01-23_17h04.32.737,bars,2023.2.3,Win32,59.95203837,657b66ea316d21385b68909f,,,,,,,,,,,,,,,,,,,,,,,,,,,,,,,,,,,,,,,,,,228.104,230.284,right,2.166,,230.284,3,2,231.283,0,3,3,3,1,8,4,7,3,,,,,,,,,,,,,,,,,,,,,,,,,,,,,,,,,,,,,,,,,
,,650a6bf9f420db3c591e33b3,65af5674b1b2d753c0180a3a,2024-01-23_17h04.32.737,bars,2023.2.3,Win32,59.95203837,657b66ea316d21385b68909f,,,,,,,,,,,,,,,,,,,,,,,,,,,,,,,,,,,,,,,,,,231.285,232.233,left,0.933,,232.233,5,1,233.233,0,4,4,4,1,6,2,5,1,,,,,,,,,,,,,,,,,,,,,,,,,,,,,,,,,,,,,,,,,
,,650a6bf9f420db3c591e33b3,65af5674b1b2d753c0180a3a,2024-01-23_17h04.32.737,bars,2023.2.3,Win32,59.95203837,657b66ea316d21385b68909f,,,,,,,,,,,,,,,,,,,,,,,,,,,,,,,,,,,,,,,,,,233.233,234.266,left,1.017,,234.266,4,1,235.266,0,5,5,5,1,4,4,4,4,,,,,,,,,,,,,,,,,,,,,,,,,,,,,,,,,,,,,,,,,
,,650a6bf9f420db3c591e33b3,65af5674b1b2d753c0180a3a,2024-01-23_17h04.32.737,bars,2023.2.3,Win32,59.95203837,657b66ea316d21385b68909f,,,,,,,,,,,,,,,,,,,,,,,,,,,,,,,,,,,,,,,,,,235.268,236.099,left,0.817,,236.099,1,1,237.098,0,6,6,6,1,2,2,1,2,,,,,,,,,,,,,,,,,,,,,,,,,,,,,,,,,,,,,,,,,
,,650a6bf9f420db3c591e33b3,65af5674b1b2d753c0180a3a,2024-01-23_17h04.32.737,bars,2023.2.3,Win32,59.95203837,657b66ea316d21385b68909f,,,,,,,,,,,,,,,,,,,,,,,,,,,,,,,,,,,,,,,,,,237.099,237.615,right,0.502,,237.615,1,2,238.615,0,7,7,7,1,0,0,0,1,,,,,,,,,,,,,,,,,,,,,,,,,,,,,,,,,,,,,,,,,
,,650a6bf9f420db3c591e33b3,65af5674b1b2d753c0180a3a,2024-01-23_17h04.32.737,bars,2023.2.3,Win32,59.95203837,657b66ea316d21385b68909f,,,,,,,,,,,,,,,,,,,,,,,,,,,,,,,,,,,,,,,,,,238.616,239.215,left,0.584,,239.215,1,1,240.214,0,8,8,8,1,0,2,1,0,,,,,,,,,,,,,,,,,,,,,,,,,,,,,,,,,,,,,,,,,
,,650a6bf9f420db3c591e33b3,65af5674b1b2d753c0180a3a,2024-01-23_17h04.32.737,bars,2023.2.3,Win32,59.95203837,657b66ea316d21385b68909f,,,,,,,,,,,,,,,,,,,,,,,,,,,,,,,,,,,,,,,,,,240.22,242.297,right,2.066,,242.297,3,2,243.297,0,9,9,9,1,2,4,2,3,,,,,,,,,,,,,,,,,,,,,,,,,,,,,,,,,,,,,,,,,
,,650a6bf9f420db3c591e33b3,65af5674b1b2d753c0180a3a,2024-01-23_17h04.32.737,bars,2023.2.3,Win32,59.95203837,657b66ea316d21385b68909f,,,,,,,,,,,,,,,,,,,,,,,,,,,,,,,,,,,,,,,,,,243.298,243.78,right,0.469,,243.78,3,2,244.783,0,10,10,10,1,0,2,0,3,,,,,,,,,,,,,,,,,,,,,,,,,,,,,,,,,,,,,,,,,
,,650a6bf9f420db3c591e33b3,65af5674b1b2d753c0180a3a,2024-01-23_17h04.32.737,bars,2023.2.3,Win32,59.95203837,657b66ea316d21385b68909f,,,,,,,,,,,,,,,,,,,,,,,,,,,,,,,,,,,,,,,,,,244.787,245.18,left,0.381,,245.181,0,1,246.179,0,11,11,11,1,0,4,0,3,,,,,,,,,,,,,,,,,,,,,,,,,,,,,,,,,,,,,,,,,
,,650a6bf9f420db3c591e33b3,65af5674b1b2d753c0180a3a,2024-01-23_17h04.32.737,bars,2023.2.3,Win32,59.95203837,657b66ea316d21385b68909f,,,,,,,,,,,,,,,,,,,,,,,,,,,,,,,,,,,,,,,,,,246.184,246.779,left,0.583,,246.779,1,1,247.779,0,12,12,12,1,2,6,1,6,,,,,,,,,,,,,,,,,,,,,,,,,,,,,,,,,,,,,,,,,
,,650a6bf9f420db3c591e33b3,65af5674b1b2d753c0180a3a,2024-01-23_17h04.32.737,bars,2023.2.3,Win32,59.95203837,657b66ea316d21385b68909f,,,,,,,,,,,,,,,,,,,,,,,,,,,,,,,,,,,,,,,,,,247.78,248.179,left,0.388,,248.179,1,1,249.178,0,13,13,13,1,0,4,1,3,,,,,,,,,,,,,,,,,,,,,,,,,,,,,,,,,,,,,,,,,
,,650a6bf9f420db3c591e33b3,65af5674b1b2d753c0180a3a,2024-01-23_17h04.32.737,bars,2023.2.3,Win32,59.95203837,657b66ea316d21385b68909f,,,,,,,,,,,,,,,,,,,,,,,,,,,,,,,,,,,,,,,,,,249.179,249.461,right,0.271,,249.461,7,2,250.461,0,14,14,14,1,2,6,2,7,,,,,,,,,,,,,,,,,,,,,,,,,,,,,,,,,,,,,,,,,
,,650a6bf9f420db3c591e33b3,65af5674b1b2d753c0180a3a,2024-01-23_17h04.32.737,bars,2023.2.3,Win32,59.95203837,657b66ea316d21385b68909f,,,,,,,,,,,,,,,,,,,,,,,,,,,,,,,,,,,,,,,,,,250.463,250.995,right,0.517,,250.995,9,2,251.994,0,15,15,15,1,4,8,3,9,,,,,,,,,,,,,,,,,,,,,,,,,,,,,,,,,,,,,,,,,
,,650a6bf9f420db3c591e33b3,65af5674b1b2d753c0180a3a,2024-01-23_17h04.32.737,bars,2023.2.3,Win32,59.95203837,657b66ea316d21385b68909f,,,,,,,,,,,,,,,,,,,,,,,,,,,,,,,,,,,,,,,,,,251.995,252.478,right,0.468,,252.478,7,2,253.477,0,16,16,16,1,6,6,7,7,,,,,,,,,,,,,,,,,,,,,,,,,,,,,,,,,,,,,,,,,
,,650a6bf9f420db3c591e33b3,65af5674b1b2d753c0180a3a,2024-01-23_17h04.32.737,bars,2023.2.3,Win32,59.95203837,657b66ea316d21385b68909f,,,,,,,,,,,,,,,,,,,,,,,,,,,,,,,,,,,,,,,,,,253.478,253.927,left,0.434,,253.927,9,1,254.927,0,17,17,17,1,8,4,9,5,,,,,,,,,,,,,,,,,,,,,,,,,,,,,,,,,,,,,,,,,
,,650a6bf9f420db3c591e33b3,65af5674b1b2d753c0180a3a,2024-01-23_17h04.32.737,bars,2023.2.3,Win32,59.95203837,657b66ea316d21385b68909f,,,,,,,,,,,,,,,,,,,,,,,,,,,,,,,,,,,,,,,,,,254.928,255.293,left,0.354,,255.293,5,1,256.293,0,18,18,18,1,6,2,5,1,,,,,,,,,,,,,,,,,,,,,,,,,,,,,,,,,,,,,,,,,
,,650a6bf9f420db3c591e33b3,65af5674b1b2d753c0180a3a,2024-01-23_17h04.32.737,bars,2023.2.3,Win32,59.95203837,657b66ea316d21385b68909f,,,,,,,,,,,,,,,,,,,,,,,,,,,,,,,,,,,,,,,,,,256.295,256.943,right,0.633,,256.943,0,2,257.943,0,19,19,19,1,8,0,7,0,,,,,,,,,,,,,,,,,,,,,,,,,,,,,,,,,,,,,,,,,
,,650a6bf9f420db3c591e33b3,65af5674b1b2d753c0180a3a,2024-01-23_17h04.32.737,bars,2023.2.3,Win32,59.95203837,657b66ea316d21385b68909f,,,,,,,,,,,,,,,,,,,,,,,,,,,,,,,,,,,,,,,,,,,,,,,,,,,,,,,,,,,,257.943,265.441,space,7.475,,,,,,,,,,,,,,,,,,,,,,,,,,,,,,,,,,,,,
,,650a6bf9f420db3c591e33b3,65af5674b1b2d753c0180a3a,2024-01-23_17h04.32.737,bars,2023.2.3,Win32,59.95203837,657b66ea316d21385b68909f,,,,,,,,,,,266.5,267.489,,,267.99,268.24,,99,99,,,,,,,,,,,,,,,,bars/013.png,bars/mask001.png,,,,,,,,,,,,2,1,,,,,,,10,2,10,0,,,,,,265.448,266.491,space,1.028,,267.49,267.99,268.24,276.454,space,8.193,,276.454,24,89,277.453,277.453,284.937,space,7.453,,0,0,0,0,1,75,10,,,,,,,,
,,650a6bf9f420db3c591e33b3,65af5674b1b2d753c0180a3a,2024-01-23_17h04.32.737,bars,2023.2.3,Win32,59.95203837,657b66ea316d21385b68909f,,,,,,,,,,,284.942,285.934,,,286.435,286.684,,103,103,,,,,,,,,,,,,,,,bars/028.png,bars/mask002.png,,,,,,,,,,,,0,2,,,,,,,10,0,10,1,,,,,,,,,,,285.934,286.435,286.684,290.034,space,3.333,,290.034,58,17,291.033,291.033,295.416,space,4.356,,0,1,1,1,1,45,120,,,,,,,,
,,650a6bf9f420db3c591e33b3,65af5674b1b2d753c0180a3a,2024-01-23_17h04.32.737,bars,2023.2.3,Win32,59.95203837,657b66ea316d21385b68909f,,,,,,,,,,,295.417,296.415,,,296.915,297.164,,44,44,,,,,,,,,,,,,,,,bars/010.png,bars/mask006.png,,,,,,,,,,,,0,2,,,,,,,8,2,8,0,,,,,,,,,,,296.415,296.915,297.164,300.263,space,3.084,,300.263,59,11,301.263,301.264,303.463,space,2.181,,0,2,2,2,1,165,55,,,,,,,,
,,650a6bf9f420db3c591e33b3,65af5674b1b2d753c0180a3a,2024-01-23_17h04.32.737,bars,2023.2.3,Win32,59.95203837,657b66ea316d21385b68909f,,,,,,,,,,,303.465,304.462,,,304.962,305.212,,14,194,,,,,,,,,,,,,,,,bars/003.png,bars/mask003.png,,,,,,,,,,,,4,1,,,,,,,6,0,6,0,,,,,,,,,,,304.462,304.962,305.212,309.411,space,4.184,,309.411,11,54,310.411,310.411,312.781,space,2.345,,0,3,3,3,1,25,140,,,,,,,,
,,650a6bf9f420db3c591e33b3,65af5674b1b2d753c0180a3a,2024-01-23_17h04.32.737,bars,2023.2.3,Win32,59.95203837,657b66ea316d21385b68909f,,,,,,,,,,,312.783,313.777,,,314.276,314.526,,170,-10,,,,,,,,,,,,,,,,bars/040.png,bars/mask006.png,,,,,,,,,,,,0,2,,,,,,,8,0,8,0,,,,,,,,,,,313.779,314.276,314.526,316.476,space,1.934,,316.477,30,15,317.475,317.475,318.809,space,1.306,,0,4,4,4,1,140,5,,,,,,,,
,,650a6bf9f420db3c591e33b3,65af5674b1b2d753c0180a3a,2024-01-23_17h04.32.737,bars,2023.2.3,Win32,59.95203837,657b66ea316d21385b68909f,,,,,,,,,,,318.812,319.808,,,320.308,320.558,,150,-30,,,,,,,,,,,,,,,,bars/049.png,bars/mask006.png,,,,,,,,,,,,5,1,,,,,,,6,2,7,3,,,,,,,,,,,319.808,320.308,320.558,323.057,space,2.483,,323.057,10,35,324.057,324.057,325.191,space,1.107,,0,5,5,5,1,160,115,,,,,,,,
,,650a6bf9f420db3c591e33b3,65af5674b1b2d753c0180a3a,2024-01-23_17h04.32.737,bars,2023.2.3,Win32,59.95203837,657b66ea316d21385b68909f,,,,,,,,,,,325.193,326.19,,,326.69,326.939,,165,-15,,,,,,,,,,,,,,,,bars/008.png,bars/mask002.png,,,,,,,,,,,,2,2,,,,,,,8,4,6,3,,,,,,,,,,,326.19,326.69,326.939,330.988,space,4.035,,330.988,55,15,331.988,331.988,333.354,space,1.341,,0,6,6,6,1,110,0,,,,,,,,
,,650a6bf9f420db3c591e33b3,65af5674b1b2d753c0180a3a,2024-01-23_17h04.32.737,bars,2023.2.3,Win32,59.95203837,657b66ea316d21385b68909f,,,,,,,,,,,333.357,334.354,,,334.854,335.103,,10,190,,,,,,,,,,,,,,,,bars/007.png,bars/mask008.png,,,,,,,,,,,,3,1,,,,,,,6,2,6,3,,,,,,,,,,,334.354,334.854,335.103,337.153,space,2.035,,337.153,15,45,338.153,338.153,342.101,space,3.928,,0,7,7,7,1,175,55,,,,,,,,
,,650a6bf9f420db3c591e33b3,65af5674b1b2d753c0180a3a,2024-01-23_17h04.32.737,bars,2023.2.3,Win32,59.95203837,657b66ea316d21385b68909f,,,,,,,,,,,342.106,343.101,,,343.601,343.851,,170,-10,,,,,,,,,,,,,,,,bars/023.png,bars/mask004.png,,,,,,,,,,,,0,1,,,,,,,8,0,8,0,,,,,,,,,,,343.102,343.601,343.851,345.753,space,1.888,,345.753,30,55,346.754,346.755,347.234,space,0.464,,0,8,8,8,1,20,115,,,,,,,,
,,650a6bf9f420db3c591e33b3,65af5674b1b2d753c0180a3a,2024-01-23_17h04.32.737,bars,2023.2.3,Win32,59.95203837,657b66ea316d21385b68909f,,,,,,,,,,,347.238,348.233,,,348.733,348.983,,111,-69,,,,,,,,,,,,,,,,bars/022.png,bars/mask003.png,,,,,,,,,,,,3,1,,,,,,,6,0,7,0,,,,,,,,,,,348.233,348.733,348.983,352.466,space,3.467,,352.466,16,89,353.465,353.465,354.666,space,1.185,,0,9,9,9,1,95,20,,,,,,,,
,,650a6bf9f420db3c591e33b3,65af5674b1b2d753c0180a3a,2024-01-23_17h04.32.737,bars,2023.2.3,Win32,59.95203837,657b66ea316d21385b68909f,,,,,,,,,,,354.668,355.664,,,356.165,356.414,,120,120,,,,,,,,,,,,,,,,bars/015.png,bars/mask004.png,,,,,,,,,,,,5,1,,,,,,,8,2,7,2,,,,,,,,,,,355.664,356.165,356.414,359.346,space,2.918,,359.347,10,40,360.346,360.346,365.495,space,5.13,,0,10,10,10,1,110,160,,,,,,,,
,,650a6bf9f420db3c591e33b3,65af5674b1b2d753c0180a3a,2024-01-23_17h04.32.737,bars,2023.2.3,Win32,59.95203837,657b66ea316d21385b68909f,,,,,,,,,,,365.497,366.495,,,366.995,367.244,,16,16,,,,,,,,,,,,,,,,bars/036.png,bars/mask008.png,,,,,,,,,,,,3,2,,,,,,,6,4,6,3,,,,,,,,,,,366.495,366.995,367.245,368.978,space,1.717,,368.978,51,4,369.977,369.977,370.594,space,0.593,,0,11,11,11,1,145,20,,,,,,,,
,,650a6bf9f420db3c591e33b3,65af5674b1b2d753c0180a3a,2024-01-23_17h04.32.737,bars,2023.2.3,Win32,59.95203837,657b66ea316d21385b68909f,,,,,,,,,,,370.596,371.593,,,372.093,372.344,,92,272,,,,,,,,,,,,,,,,bars/021.png,bars/mask000.png,,,,,,,,,,,,0,2,,,,,,,4,2,4,0,,,,,,,,,,,371.593,372.093,372.344,376.292,space,3.937,,376.292,63,22,377.291,377.291,382.127,space,4.818,,0,12,12,12,1,155,70,,,,,,,,
,,650a6bf9f420db3c591e33b3,65af5674b1b2d753c0180a3a,2024-01-23_17h04.32.737,bars,2023.2.3,Win32,59.95203837,657b66ea316d21385b68909f,,,,,,,,,,,382.131,383.124,,,383.624,383.874,,66,66,,,,,,,,,,,,,,,,bars/012.png,bars/mask000.png,,,,,,,,,,,,0,1,,,,,,,2,4,2,4,,,,,,,,,,,383.124,383.624,383.874,385.356,space,1.469,,385.356,24,51,386.361,386.361,387.055,space,0.673,,0,13,13,13,1,90,15,,,,,,,,
,,650a6bf9f420db3c591e33b3,65af5674b1b2d753c0180a3a,2024-01-23_17h04.32.737,bars,2023.2.3,Win32,59.95203837,657b66ea316d21385b68909f,,,,,,,,,,,387.058,388.056,,,388.555,388.805,,0,0,,,,,,,,,,,,,,,,bars/049.png,bars/mask004.png,,,,,,,,,,,,0,1,,,,,,,0,2,0,0,,,,,,,,,,,388.056,388.555,388.805,390.355,space,1.536,,390.355,20,65,391.354,391.354,391.988,space,0.615,,0,14,14,14,1,160,115,,,,,,,,
,,650a6bf9f420db3c591e33b3,65af5674b1b2d753c0180a3a,2024-01-23_17h04.32.737,bars,2023.2.3,Win32,59.95203837,657b66ea316d21385b68909f,,,,,,,,,,,391.989,392.987,,,393.487,393.737,,102,102,,,,,,,,,,,,,,,,bars/031.png,bars/mask004.png,,,,,,,,,,,,0,1,,,,,,,0,4,0,3,,,,,,,,,,,392.987,393.487,393.738,394.937,space,1.185,,394.937,18,67,395.936,395.936,396.269,space,0.314,,0,15,15,15,1,120,35,,,,,,,,
,,650a6bf9f420db3c591e33b3,65af5674b1b2d753c0180a3a,2024-01-23_17h04.32.737,bars,2023.2.3,Win32,59.95203837,657b66ea316d21385b68909f,,,,,,,,,,,396.272,397.27,,,397.769,398.019,,4,184,,,,,,,,,,,,,,,,bars/005.png,bars/mask002.png,,,,,,,,,,,,2,1,,,,,,,2,2,3,3,,,,,,,,,,,397.27,397.769,398.019,400.286,space,2.25,,400.286,6,44,401.285,401.285,401.935,space,0.631,,0,16,16,16,1,10,140,,,,,,,,
,,650a6bf9f420db3c591e33b3,65af5674b1b2d753c0180a3a,2024-01-23_17h04.32.737,bars,2023.2.3,Win32,59.95203837,657b66ea316d21385b68909f,,,,,,,,,,,401.936,402.935,,,403.435,403.684,,143,143,,,,,,,,,,,,,,,,bars/049.png,bars/mask006.png,,,,,,,,,,,,1,1,,,,,,,4,4,2,4,,,,,,,,,,,402.935,403.435,403.684,405.584,space,1.884,,405.584,17,28,406.583,406.583,407.419,space,0.812,,0,17,17,17,1,160,115,,,,,,,,
,,650a6bf9f420db3c591e33b3,65af5674b1b2d753c0180a3a,2024-01-23_17h04.32.737,bars,2023.2.3,Win32,59.95203837,657b66ea316d21385b68909f,,,,,,,,,,,407.421,408.416,,,408.905,409.149,,170,170,,,,,,,,,,,,,,,,bars/038.png,bars/mask000.png,,,,,,,,,,,,6,1,,,,,,,6,2,7,3,,,,,,,,,,,408.416,408.905,409.149,411.632,space,2.468,,411.632,5,80,412.631,412.631,414.281,space,1.634,,0,18,18,18,1,165,70,,,,,,,,
,,650a6bf9f420db3c591e33b3,65af5674b1b2d753c0180a3a,2024-01-23_17h04.32.737,bars,2023.2.3,Win32,59.95203837,657b66ea316d21385b68909f,,,,,,,,,,,414.282,415.283,,,415.781,416.032,,8,188,,,,,,,,,,,,,,,,bars/020.png,bars/mask002.png,,,,,,,,,,,,2,2,,,,,,,4,4,3,6,,,,,,,,,,,415.284,415.781,416.032,417.697,space,1.65,,417.698,73,18,418.696,418.697,419.399,space,0.679,,0,19,19,19,1,115,170,,,,,,,,
,,650a6bf9f420db3c591e33b3,65af5674b1b2d753c0180a3a,2024-01-23_17h04.32.737,bars,2023.2.3,Win32,59.95203837,657b66ea316d21385b68909f,,,,,,,,,,,419.402,420.396,,,420.896,421.146,,43,223,,,,,,,,,,,,,,,,bars/025.png,bars/mask004.png,,,,,,,,,,,,2,2,,,,,,,6,2,6,2,,,,,,,,,,,420.396,420.896,421.146,425.245,space,4.084,,425.245,62,3,426.244,426.244,428.447,space,2.185,,0,20,20,20,1,105,40,,,,,,,,
,,650a6bf9f420db3c591e33b3,65af5674b1b2d753c0180a3a,2024-01-23_17h04.32.737,bars,2023.2.3,Win32,59.95203837,657b66ea316d21385b68909f,,,,,,,,,,,428.449,429.443,,,429.944,430.193,,21,21,,,,,,,,,,,,,,,,bars/019.png,bars/mask009.png,,,,,,,,,,,,2,1,,,,,,,8,4,10,7,,,,,,,,,,,429.443,429.943,430.193,432.459,space,2.251,,432.459,24,84,433.459,433.459,434.059,space,0.573,,0,21,21,21,1,45,105,,,,,,,,
,,650a6bf9f420db3c591e33b3,65af5674b1b2d753c0180a3a,2024-01-23_17h04.32.737,bars,2023.2.3,Win32,59.95203837,657b66ea316d21385b68909f,,,,,,,,,,,434.062,435.059,,,435.559,435.808,,111,111,,,,,,,,,,,,,,,,bars/040.png,bars/mask007.png,,,,,,,,,,,,0,1,,,,,,,10,6,10,6,,,,,,,,,,,435.059,435.559,435.808,438.664,space,2.844,,438.664,29,74,439.657,439.657,440.441,space,0.766,,0,22,22,22,1,140,5,,,,,,,,
,,650a6bf9f420db3c591e33b3,65af5674b1b2d753c0180a3a,2024-01-23_17h04.32.737,bars,2023.2.3,Win32,59.95203837,657b66ea316d21385b68909f,,,,,,,,,,,440.441,441.44,,,441.94,442.193,,70,70,,,,,,,,,,,,,,,,bars/000.png,bars/mask009.png,,,,,,,,,,,,0,1,,,,,,,8,4,8,3,,,,,,,,,,,441.44,441.94,442.193,444.623,space,2.417,,444.623,30,75,445.622,445.622,449.488,space,3.847,,0,23,23,23,1,40,145,,,,,,,,
,,650a6bf9f420db3c591e33b3,65af5674b1b2d753c0180a3a,2024-01-23_17h04.32.737,bars,2023.2.3,Win32,59.95203837,657b66ea316d21385b68909f,,,,,,,,,,,449.489,450.49,,,450.987,451.238,,37,37,,,,,,,,,,,,,,,,bars/043.png,bars/mask001.png,,,,,,,,,,,,5,1,,,,,,,6,6,6,8,,,,,,,,,,,450.491,450.987,451.239,452.072,space,0.818,,452.072,7,87,453.07,453.07,453.721,space,0.631,,0,24,24,24,1,30,130,,,,,,,,
,,650a6bf9f420db3c591e33b3,65af5674b1b2d753c0180a3a,2024-01-23_17h04.32.737,bars,2023.2.3,Win32,59.95203837,657b66ea316d21385b68909f,,,,,,,,,,,453.723,454.72,,,455.22,455.47,,164,-16,,,,,,,,,,,,,,,,bars/011.png,bars/mask005.png,,,,,,,,,,,,4,1,,,,,,,4,8,5,8,,,,,,,,,,,454.72,455.219,455.47,457.886,space,2.401,,457.886,4,79,458.885,458.885,459.585,space,0.681,,0,25,25,25,1,160,85,,,,,,,,
,,650a6bf9f420db3c591e33b3,65af5674b1b2d753c0180a3a,2024-01-23_17h04.32.737,bars,2023.2.3,Win32,59.95203837,657b66ea316d21385b68909f,,,,,,,,,,,459.588,460.585,,,461.085,461.335,,58,58,,,,,,,,,,,,,,,,bars/048.png,bars/mask004.png,,,,,,,,,,,,4,1,,,,,,,6,10,6,10,,,,,,,,,,,460.585,461.084,461.335,463.552,space,2.203,,463.552,8,63,464.551,464.551,465.65,space,1.082,,0,26,26,26,1,50,175,,,,,,,,
,,650a6bf9f420db3c591e33b3,65af5674b1b2d753c0180a3a,2024-01-23_17h04.32.737,bars,2023.2.3,Win32,59.95203837,657b66ea316d21385b68909f,,,,,,,,,,,465.653,466.65,,,467.149,467.399,,6,6,,,,,,,,,,,,,,,,bars/043.png,bars/mask002.png,,,,,,,,,,,,0,1,,,,,,,4,8,2,7,,,,,,,,,,,466.65,467.149,467.401,471.449,space,4.034,,471.449,24,56,472.448,472.448,473.814,space,1.35,,0,27,27,27,1,30,130,,,,,,,,
,,650a6bf9f420db3c591e33b3,65af5674b1b2d753c0180a3a,2024-01-23_17h04.32.737,bars,2023.2.3,Win32,59.95203837,657b66ea316d21385b68909f,,,,,,,,,,,473.815,474.814,,,475.313,475.564,,96,96,,,,,,,,,,,,,,,,bars/008.png,bars/mask008.png,,,,,,,,,,,,4,1,,,,,,,6,10,8,10,,,,,,,,,,,474.814,475.313,475.564,480.262,space,4.685,,480.262,14,84,481.262,481.262,481.812,space,0.534,,0,28,28,28,1,110,0,,,,,,,,
,,650a6bf9f420db3c591e33b3,65af5674b1b2d753c0180a3a,2024-01-23_17h04.32.737,bars,2023.2.3,Win32,59.95203837,657b66ea316d21385b68909f,,,,,,,,,,,481.814,482.812,,,483.311,483.562,,104,104,,,,,,,,,,,,,,,,bars/014.png,bars/mask002.png,,,,,,,,,,,,1,1,,,,,,,8,10,7,10,,,,,,,,,,,482.812,483.311,483.562,487.962,space,4.385,,487.964,24,76,488.96,488.96,489.91,space,0.929,,0,29,29,29,1,80,0,,,,,,,,
,,650a6bf9f420db3c591e33b3,65af5674b1b2d753c0180a3a,2024-01-23_17h04.32.737,bars,2023.2.3,Win32,59.95203837,657b66ea316d21385b68909f,,,,,,,,,,,489.914,490.909,,,491.409,491.659,,175,175,,,,,,,,,,,,,,,,bars/049.png,bars/mask007.png,,,,,,,,,,,,3,1,,,,,,,6,10,6,10,,,,,,,,,,,490.909,491.409,491.659,492.759,space,1.085,,492.759,15,60,493.758,493.758,494.525,space,0.749,,0,30,30,30,1,160,115,,,,,,,,
,,650a6bf9f420db3c591e33b3,65af5674b1b2d753c0180a3a,2024-01-23_17h04.32.737,bars,2023.2.3,Win32,59.95203837,657b66ea316d21385b68909f,,,,,,,,,,,494.527,495.524,,,496.025,496.275,,69,69,,,,,,,,,,,,,,,,bars/033.png,bars/mask009.png,,,,,,,,,,,,0,1,,,,,,,8,8,10,9,,,,,,,,,,,495.524,496.025,496.275,498.524,space,2.235,,498.524,44,86,499.523,499.523,500.256,space,0.714,,0,31,31,31,1,25,155,,,,,,,,
,,650a6bf9f420db3c591e33b3,65af5674b1b2d753c0180a3a,2024-01-23_17h04.32.737,bars,2023.2.3,Win32,59.95203837,657b66ea316d21385b68909f,,,,,,,,,,,500.258,501.256,,,501.756,502.006,,47,47,,,,,,,,,,,,,,,,bars/048.png,bars/mask000.png,,,,,,,,,,,,9,1,,,,,,,10,6,10,6,,,,,,,,,,,501.257,501.756,502.006,503.789,space,1.769,,503.789,3,52,504.789,504.789,506.021,space,1.216,,0,32,32,32,1,50,175,,,,,,,,
,,650a6bf9f420db3c591e33b3,65af5674b1b2d753c0180a3a,2024-01-23_17h04.32.737,bars,2023.2.3,Win32,59.95203837,657b66ea316d21385b68909f,,,,,,,,,,,506.024,507.021,,,507.521,507.77,,168,-12,,,,,,,,,,,,,,,,bars/009.png,bars/mask000.png,,,,,,,,,,,,1,1,,,,,,,10,8,10,7,,,,,,,,,,,507.021,507.521,507.77,512.27,space,4.484,,512.271,27,63,513.269,513.269,514.036,space,0.747,,0,33,33,33,1,15,105,,,,,,,,
,,650a6bf9f420db3c591e33b3,65af5674b1b2d753c0180a3a,2024-01-23_17h04.32.737,bars,2023.2.3,Win32,59.95203837,657b66ea316d21385b68909f,,,,,,,,,,,514.038,515.035,,,515.535,515.785,,14,14,,,,,,,,,,,,,,,,bars/007.png,bars/mask001.png,,,,,,,,,,,,3,1,,,,,,,8,6,7,6,,,,,,,,,,,515.035,515.535,515.785,518.002,space,2.203,,518.002,19,41,519.003,519.004,519.652,space,0.629,,0,34,34,34,1,175,55,,,,,,,,
,,650a6bf9f420db3c591e33b3,65af5674b1b2d753c0180a3a,2024-01-23_17h04.32.737,bars,2023.2.3,Win32,59.95203837,657b66ea316d21385b68909f,,,,,,,,,,,519.655,520.65,,,521.151,521.4,,178,178,,,,,,,,,,,,,,,,bars/017.png,bars/mask004.png,,,,,,,,,,,,0,1,,,,,,,10,4,10,5,,,,,,,,,,,520.65,521.151,521.4,524.933,space,3.518,,524.933,33,47,525.932,525.932,526.983,space,1.031,,0,35,35,35,1,145,45,,,,,,,,
,,650a6bf9f420db3c591e33b3,65af5674b1b2d753c0180a3a,2024-01-23_17h04.32.737,bars,2023.2.3,Win32,59.95203837,657b66ea316d21385b68909f,,,,,,,,,,,526.984,527.982,,,528.482,528.732,,112,112,,,,,,,,,,,,,,,,bars/001.png,bars/mask004.png,,,,,,,,,,,,4,1,,,,,,,10,6,10,8,,,,,,,,,,,527.982,528.482,528.732,532.381,space,3.633,,532.381,18,27,533.381,533.381,533.747,space,0.347,,0,36,36,36,1,130,85,,,,,,,,
,,650a6bf9f420db3c591e33b3,65af5674b1b2d753c0180a3a,2024-01-23_17h04.32.737,bars,2023.2.3,Win32,59.95203837,657b66ea316d21385b68909f,,,,,,,,,,,533.749,534.747,,,535.246,535.497,,163,163,,,,,,,,,,,,,,,,bars/002.png,bars/mask002.png,,,,,,,,,,,,0,1,,,,,,,10,4,10,3,,,,,,,,,,,534.747,535.246,535.497,537.213,space,1.701,,537.213,33,78,538.212,538.213,539.012,space,0.783,,0,37,37,37,1,130,85,,,,,,,,
,,650a6bf9f420db3c591e33b3,65af5674b1b2d753c0180a3a,2024-01-23_17h04.32.737,bars,2023.2.3,Win32,59.95203837,657b66ea316d21385b68909f,,,,,,,,,,,539.013,540.012,,,540.512,540.762,,119,119,,,,,,,,,,,,,,,,bars/038.png,bars/mask005.png,,,,,,,,,,,,0,1,,,,,,,8,2,7,3,,,,,,,,,,,540.012,540.512,540.762,542.344,space,1.57,,542.344,46,49,543.345,543.345,543.978,space,0.618,,0,38,38,38,1,165,70,,,,,,,,
,,650a6bf9f420db3c591e33b3,65af5674b1b2d753c0180a3a,2024-01-23_17h04.32.737,bars,2023.2.3,Win32,59.95203837,657b66ea316d21385b68909f,,,,,,,,,,,543.98,544.977,,,545.477,545.727,,49,49,,,,,,,,,,,,,,,,bars/019.png,bars/mask006.png,,,,,,,,,,,,7,1,,,,,,,10,4,8,4,,,,,,,,,,,544.977,545.477,545.727,547.792,space,2.052,,547.793,4,56,548.792,548.792,549.476,space,0.666,,0,39,39,39,1,45,105,,,,,,,,
,,650a6bf9f420db3c591e33b3,65af5674b1b2d753c0180a3a,2024-01-23_17h04.32.737,bars,2023.2.3,Win32,59.95203837,657b66ea316d21385b68909f,,,,,,,,,,,549.477,550.475,,,550.975,551.225,,102,-78,,,,,,,,,,,,,,,,bars/014.png,bars/mask007.png,,,,,,,,,,,,2,1,,,,,,,8,2,7,3,,,,,,,,,,,550.475,550.975,551.225,556.108,space,4.868,,556.109,22,78,557.107,557.107,557.69,space,0.563,,0,40,40,40,1,80,0,,,,,,,,
,,650a6bf9f420db3c591e33b3,65af5674b1b2d753c0180a3a,2024-01-23_17h04.32.737,bars,2023.2.3,Win32,59.95203837,657b66ea316d21385b68909f,,,,,,,,,,,557.694,558.692,,,559.191,559.441,,49,49,,,,,,,,,,,,,,,,bars/029.png,bars/mask009.png,,,,,,,,,,,,3,2,,,,,,,6,4,6,4,,,,,,,,,,,558.693,559.19,559.442,560.39,space,0.934,,560.39,41,4,561.391,561.391,561.772,space,0.354,,0,41,41,41,1,90,45,,,,,,,,
,,650a6bf9f420db3c591e33b3,65af5674b1b2d753c0180a3a,2024-01-23_17h04.32.737,bars,2023.2.3,Win32,59.95203837,657b66ea316d21385b68909f,,,,,,,,,,,561.774,562.772,,,563.272,563.522,,176,-4,,,,,,,,,,,,,,,,bars/045.png,bars/mask007.png,,,,,,,,,,,,3,2,,,,,,,4,6,5,5,,,,,,,,,,,562.772,563.272,563.522,566.721,space,3.184,,566.721,76,14,567.721,567.721,568.67,space,0.93,,0,42,42,42,1,100,10,,,,,,,,
,,650a6bf9f420db3c591e33b3,65af5674b1b2d753c0180a3a,2024-01-23_17h04.32.737,bars,2023.2.3,Win32,59.95203837,657b66ea316d21385b68909f,,,,,,,,,,,568.671,569.67,,,570.173,570.42,,41,41,,,,,,,,,,,,,,,,bars/007.png,bars/mask004.png,,,,,,,,,,,,2,2,,,,,,,2,4,1,3,,,,,,,,,,,569.67,570.172,570.42,572.636,space,2.201,,572.636,46,14,573.635,573.635,574.636,space,0.983,,0,43,43,43,1,175,55,,,,,,,,
,,650a6bf9f420db3c591e33b3,65af5674b1b2d753c0180a3a,2024-01-23_17h04.32.737,bars,2023.2.3,Win32,59.95203837,657b66ea316d21385b68909f,,,,,,,,,,,574.637,575.635,,,576.135,576.385,,75,75,,,,,,,,,,,,,,,,bars/048.png,bars/mask005.png,,,,,,,,,,,,0,1,,,,,,,0,6,0,7,,,,,,,,,,,575.635,576.135,576.385,580.167,space,3.771,,580.167,25,80,581.167,581.167,581.752,space,0.567,,0,44,44,44,1,50,175,,,,,,,,
,,650a6bf9f420db3c591e33b3,65af5674b1b2d753c0180a3a,2024-01-23_17h04.32.737,bars,2023.2.3,Win32,59.95203837,657b66ea316d21385b68909f,,,,,,,,,,,581.754,582.749,,,583.25,583.499,,7,187,,,,,,,,,,,,,,,,bars/032.png,bars/mask000.png,,,,,,,,,,,,5,2,,,,,,,0,8,0,9,,,,,,,,,,,582.749,583.25,583.499,585.749,space,2.237,,585.749,62,13,586.755,586.755,587.482,space,0.703,,0,45,45,45,1,125,20,,,,,,,,
,,650a6bf9f420db3c591e33b3,65af5674b1b2d753c0180a3a,2024-01-23_17h04.32.737,bars,2023.2.3,Win32,59.95203837,657b66ea316d21385b68909f,,,,,,,,,,,587.486,588.481,,,588.982,589.231,,100,100,,,,,,,,,,,,,,,,bars/038.png,bars/mask001.png,,,,,,,,,,,,0,2,,,,,,,0,6,0,7,,,,,,,,,,,588.481,588.982,589.231,591.347,space,2.102,,591.348,65,30,592.347,592.347,593.113,space,0.75,,0,46,46,46,1,165,70,,,,,,,,
,,650a6bf9f420db3c591e33b3,65af5674b1b2d753c0180a3a,2024-01-23_17h04.32.737,bars,2023.2.3,Win32,59.95203837,657b66ea316d21385b68909f,,,,,,,,,,,593.117,594.113,,,594.613,594.863,,158,158,,,,,,,,,,,,,,,,bars/035.png,bars/mask008.png,,,,,,,,,,,,1,1,,,,,,,2,8,3,7,,,,,,,,,,,594.113,594.613,594.863,598.862,space,3.983,,598.862,17,82,599.861,599.861,600.744,space,0.858,,0,47,47,47,1,175,60,,,,,,,,
,,650a6bf9f420db3c591e33b3,65af5674b1b2d753c0180a3a,2024-01-23_17h04.32.737,bars,2023.2.3,Win32,59.95203837,657b66ea316d21385b68909f,,,,,,,,,,,600.747,601.744,,,602.244,602.494,,110,110,,,,,,,,,,,,,,,,bars/024.png,bars/mask003.png,,,,,,,,,,,,0,1,,,,,,,0,6,0,5,,,,,,,,,,,601.744,602.244,602.494,605.693,space,3.184,,605.693,10,60,606.693,606.693,607.142,space,0.431,,0,48,48,48,1,120,170,,,,,,,,
,,650a6bf9f420db3c591e33b3,65af5674b1b2d753c0180a3a,2024-01-23_17h04.32.737,bars,2023.2.3,Win32,59.95203837,657b66ea316d21385b68909f,,,,,,,,,,,607.144,608.143,,,608.642,608.892,,44,44,,,,,,,,,,,,,,,,bars/023.png,bars/mask006.png,,,,,,,,,,,,0,1,,,,,,,0,8,1,7,,,,,,,,,,,608.143,608.642,608.892,609.692,space,0.784,,609.692,24,71,610.691,610.691,611.008,space,0.298,,0,49,49,49,1,20,115,,,,,,,,
,,650a6bf9f420db3c591e33b3,65af5674b1b2d753c0180a3a,2024-01-23_17h04.32.737,bars,2023.2.3,Win32,59.95203837,657b66ea316d21385b68909f,,,,,,,,,,,,,,,,,,,,,,,,,,,,,,,,,,,,,,,,,,,,,,,,,,,,,,,,,,,,,,,,,,,,,,,,,,,,,,,,,,,,,,,,,,,,,611.009,683.297,0,0,0,1,1,sequence_tables/blk013.csv
,,650a6bf9f420db3c591e33b3,65af5674b1b2d753c0180a3a,2024-01-23_17h04.32.737,bars,2023.2.3,Win32,59.95203837,657b66ea316d21385b68909f,,,,,,,,,,,812.659,813.647,,,814.147,814.397,,3,3,,,,,,,,,,,,,,,,bars/012.png,bars/mask004.png,,,,,,,,,,,,1,2,,,,,,,8,2,9,1,,,,,,683.303,812.653,space,129.315,,813.647,814.147,814.397,818.512,space,4.101,,818.512,87,12,819.512,819.512,819.521,,,,0,0,0,0,1,90,15,,,,,,,,
,,650a6bf9f420db3c591e33b3,65af5674b1b2d753c0180a3a,2024-01-23_17h04.32.737,bars,2023.2.3,Win32,59.95203837,657b66ea316d21385b68909f,,,,,,,,,,,819.521,820.512,,,821.012,821.261,,74,74,,,,,,,,,,,,,,,,bars/026.png,bars/mask000.png,,,,,,,,,,,,3,2,,,,,,,6,4,6,4,,,,,,,,,,,820.512,821.012,821.261,824.494,space,3.217,,824.494,39,11,825.493,825.493,825.499,,,,0,1,1,1,1,35,85,,,,,,,,
,,650a6bf9f420db3c591e33b3,65af5674b1b2d753c0180a3a,2024-01-23_17h04.32.737,bars,2023.2.3,Win32,59.95203837,657b66ea316d21385b68909f,,,,,,,,,,,825.5,826.493,,,826.993,827.243,,49,49,,,,,,,,,,,,,,,,bars/034.png,bars/mask003.png,,,,,,,,,,,,1,2,,,,,,,8,2,8,2,,,,,,,,,,,826.493,826.993,827.243,828.027,space,0.769,,828.028,76,16,829.027,829.027,829.031,,,,0,2,2,2,1,125,65,,,,,,,,
,,650a6bf9f420db3c591e33b3,65af5674b1b2d753c0180a3a,2024-01-23_17h04.32.737,bars,2023.2.3,Win32,59.95203837,657b66ea316d21385b68909f,,,,,,,,,,,829.031,830.026,,,830.526,830.775,,66,66,,,,,,,,,,,,,,,,bars/028.png,bars/mask004.png,,,,,,,,,,,,2,1,,,,,,,6,4,5,5,,,,,,,,,,,830.027,830.525,830.776,832.942,space,2.152,,832.942,21,54,833.941,833.941,833.949,,,,0,3,3,3,1,45,120,,,,,,,,
,,650a6bf9f420db3c591e33b3,65af5674b1b2d753c0180a3a,2024-01-23_17h04.32.737,bars,2023.2.3,Win32,59.95203837,657b66ea316d21385b68909f,,,,,,,,,,,833.949,834.941,,,835.449,835.691,,178,-2,,,,,,,,,,,,,,,,bars/023.png,bars/mask004.png,,,,,,,,,,,,1,1,,,,,,,4,2,5,1,,,,,,,,,,,834.941,835.449,835.691,837.574,space,1.868,,837.574,22,63,838.573,838.573,838.578,,,,0,4,4,4,1,20,115,,,,,,,,
,,650a6bf9f420db3c591e33b3,65af5674b1b2d753c0180a3a,2024-01-23_17h04.32.737,bars,2023.2.3,Win32,59.95203837,657b66ea316d21385b68909f,,,,,,,,,,,838.579,839.573,,,840.073,840.323,,60,60,,,,,,,,,,,,,,,,bars/017.png,bars/mask000.png,,,,,,,,,,,,1,2,,,,,,,2,0,3,2,,,,,,,,,,,839.573,840.073,840.323,843.673,space,3.334,,843.674,85,15,844.672,844.672,844.681,,,,0,5,5,5,1,145,45,,,,,,,,
,,650a6bf9f420db3c591e33b3,65af5674b1b2d753c0180a3a,2024-01-23_17h04.32.737,bars,2023.2.3,Win32,59.95203837,657b66ea316d21385b68909f,,,,,,,,,,,844.682,845.672,,,846.172,846.421,,158,-22,,,,,,,,,,,,,,,,bars/049.png,bars/mask009.png,,,,,,,,,,,,1,1,,,,,,,0,2,1,3,,,,,,,,,,,845.672,846.171,846.421,848.787,space,2.35,,848.787,2,43,849.787,849.787,849.794,,,,0,6,6,6,1,160,115,,,,,,,,
,,650a6bf9f420db3c591e33b3,65af5674b1b2d753c0180a3a,2024-01-23_17h04.32.737,bars,2023.2.3,Win32,59.95203837,657b66ea316d21385b68909f,,,,,,,,,,,849.795,850.787,,,851.286,851.536,,136,136,,,,,,,,,,,,,,,,bars/023.png,bars/mask007.png,,,,,,,,,,,,0,2,,,,,,,2,0,2,0,,,,,,,,,,,850.787,851.286,851.538,853.786,space,2.234,,853.786,64,21,854.785,854.785,854.794,,,,0,7,7,7,1,20,115,,,,,,,,
,,650a6bf9f420db3c591e33b3,65af5674b1b2d753c0180a3a,2024-01-23_17h04.32.737,bars,2023.2.3,Win32,59.95203837,657b66ea316d21385b68909f,,,,,,,,,,,854.794,855.785,,,856.285,856.535,,150,150,,,,,,,,,,,,,,,,bars/037.png,bars/mask007.png,,,,,,,,,,,,0,1,,,,,,,0,2,0,2,,,,,,,,,,,855.785,856.285,856.535,860.569,space,4.022,,860.57,0,45,861.566,861.566,861.574,,,,0,8,8,8,1,150,105,,,,,,,,
,,650a6bf9f420db3c591e33b3,65af5674b1b2d753c0180a3a,2024-01-23_17h04.32.737,bars,2023.2.3,Win32,59.95203837,657b66ea316d21385b68909f,,,,,,,,,,,861.574,862.567,,,863.067,863.316,,57,57,,,,,,,,,,,,,,,,bars/007.png,bars/mask002.png,,,,,,,,,,,,4,2,,,,,,,0,4,0,4,,,,,,,,,,,862.567,863.067,863.316,865.816,space,2.485,,865.816,62,2,866.815,866.815,866.822,,,,0,9,9,9,1,175,55,,,,,,,,
,,650a6bf9f420db3c591e33b3,65af5674b1b2d753c0180a3a,2024-01-23_17h04.32.737,bars,2023.2.3,Win32,59.95203837,657b66ea316d21385b68909f,,,,,,,,,,,866.822,867.815,,,868.315,868.565,,164,-16,,,,,,,,,,,,,,,,bars/040.png,bars/mask005.png,,,,,,,,,,,,2,2,,,,,,,0,6,3,5,,,,,,,,,,,867.815,868.315,868.565,872.314,space,3.736,,872.314,24,21,873.313,873.313,873.317,,,,0,10,10,10,1,140,5,,,,,,,,
,,650a6bf9f420db3c591e33b3,65af5674b1b2d753c0180a3a,2024-01-23_17h04.32.737,bars,2023.2.3,Win32,59.95203837,657b66ea316d21385b68909f,,,,,,,,,,,873.319,874.313,,,874.813,875.063,,165,165,,,,,,,,,,,,,,,,bars/010.png,bars/mask004.png,,,,,,,,,,,,3,1,,,,,,,2,4,3,5,,,,,,,,,,,874.313,874.813,875.063,876.83,space,1.75,,876.831,0,70,877.829,877.829,877.839,,,,0,11,11,11,1,165,55,,,,,,,,
,,650a6bf9f420db3c591e33b3,65af5674b1b2d753c0180a3a,2024-01-23_17h04.32.737,bars,2023.2.3,Win32,59.95203837,657b66ea316d21385b68909f,,,,,,,,,,,877.84,878.828,,,879.328,879.578,,1,1,,,,,,,,,,,,,,,,bars/010.png,bars/mask004.png,,,,,,,,,,,,0,1,,,,,,,0,6,0,5,,,,,,,,,,,878.828,879.328,879.578,881.645,space,2.05,,881.645,16,54,882.644,882.644,882.648,,,,0,12,12,12,1,165,55,,,,,,,,
,,650a6bf9f420db3c591e33b3,65af5674b1b2d753c0180a3a,2024-01-23_17h04.32.737,bars,2023.2.3,Win32,59.95203837,657b66ea316d21385b68909f,,,,,,,,,,,882.65,883.643,,,884.144,884.393,,79,79,,,,,,,,,,,,,,,,bars/006.png,bars/mask006.png,,,,,,,,,,,,1,2,,,,,,,2,4,2,4,,,,,,,,,,,883.643,884.143,884.393,886.127,space,1.718,,886.127,44,21,887.126,887.126,887.134,,,,0,13,13,13,1,35,100,,,,,,,,
,,650a6bf9f420db3c591e33b3,65af5674b1b2d753c0180a3a,2024-01-23_17h04.32.737,bars,2023.2.3,Win32,59.95203837,657b66ea316d21385b68909f,,,,,,,,,,,887.134,888.126,,,888.626,888.877,,157,-23,,,,,,,,,,,,,,,,bars/036.png,bars/mask003.png,,,,,,,,,,,,0,1,,,,,,,0,6,0,6,,,,,,,,,,,888.127,888.626,888.877,891.624,space,2.734,,891.625,12,43,892.625,892.625,892.632,,,,0,14,14,14,1,145,20,,,,,,,,
,,650a6bf9f420db3c591e33b3,65af5674b1b2d753c0180a3a,2024-01-23_17h04.32.737,bars,2023.2.3,Win32,59.95203837,657b66ea316d21385b68909f,,,,,,,,,,,892.632,893.624,,,894.124,894.374,,81,81,,,,,,,,,,,,,,,,bars/044.png,bars/mask006.png,,,,,,,,,,,,1,1,,,,,,,2,8,1,8,,,,,,,,,,,893.624,894.124,894.374,895.091,space,0.702,,895.091,6,74,896.091,896.091,896.095,,,,0,15,15,15,1,75,155,,,,,,,,
,,650a6bf9f420db3c591e33b3,65af5674b1b2d753c0180a3a,2024-01-23_17h04.32.737,bars,2023.2.3,Win32,59.95203837,657b66ea316d21385b68909f,,,,,,,,,,,896.096,897.09,,,897.59,897.84,,107,107,,,,,,,,,,,,,,,,bars/041.png,bars/mask004.png,,,,,,,,,,,,2,2,,,,,,,0,10,0,9,,,,,,,,,,,897.091,897.59,897.84,900.356,space,2.501,,900.357,87,22,901.355,901.355,901.362,,,,0,16,16,16,1,20,85,,,,,,,,
,,650a6bf9f420db3c591e33b3,65af5674b1b2d753c0180a3a,2024-01-23_17h04.32.737,bars,2023.2.3,Win32,59.95203837,657b66ea316d21385b68909f,,,,,,,,,,,901.362,902.355,,,902.855,903.105,,102,102,,,,,,,,,,,,,,,,bars/040.png,bars/mask000.png,,,,,,,,,,,,0,1,,,,,,,0,10,0,10,,,,,,,,,,,902.355,902.855,903.105,904.072,space,0.951,,904.072,38,83,905.076,905.076,905.078,,,,0,17,17,17,1,140,5,,,,,,,,
,,650a6bf9f420db3c591e33b3,65af5674b1b2d753c0180a3a,2024-01-23_17h04.32.737,bars,2023.2.3,Win32,59.95203837,657b66ea316d21385b68909f,,,,,,,,,,,905.079,906.071,,,906.57,906.821,,80,80,,,,,,,,,,,,,,,,bars/018.png,bars/mask000.png,,,,,,,,,,,,6,2,,,,,,,0,10,0,9,,,,,,,,,,,906.071,906.57,906.821,910.236,space,3.401,,910.236,70,10,911.239,911.24,911.246,,,,0,18,18,18,1,150,90,,,,,,,,
,,650a6bf9f420db3c591e33b3,65af5674b1b2d753c0180a3a,2024-01-23_17h04.32.737,bars,2023.2.3,Win32,59.95203837,657b66ea316d21385b68909f,,,,,,,,,,,911.247,912.237,,,912.735,912.986,,132,132,,,,,,,,,,,,,,,,bars/020.png,bars/mask005.png,,,,,,,,,,,,1,1,,,,,,,2,8,2,8,,,,,,,,,,,912.238,912.735,912.986,915.035,space,2.034,,915.035,17,38,916.034,916.034,916.043,,,,0,19,19,19,1,115,170,,,,,,,,
,,650a6bf9f420db3c591e33b3,65af5674b1b2d753c0180a3a,2024-01-23_17h04.32.737,bars,2023.2.3,Win32,59.95203837,657b66ea316d21385b68909f,,,,,,,,,,,916.043,917.034,,,917.535,917.784,,16,16,,,,,,,,,,,,,,,,bars/019.png,bars/mask006.png,,,,,,,,,,,,0,1,,,,,,,0,6,1,6,,,,,,,,,,,917.034,917.535,917.784,918.601,space,0.802,,918.601,29,89,919.601,919.601,919.606,,,,0,20,20,20,1,45,105,,,,,,,,
,,650a6bf9f420db3c591e33b3,65af5674b1b2d753c0180a3a,2024-01-23_17h04.32.737,bars,2023.2.3,Win32,59.95203837,657b66ea316d21385b68909f,,,,,,,,,,,919.606,920.6,,,921.099,921.35,,76,76,,,,,,,,,,,,,,,,bars/044.png,bars/mask000.png,,,,,,,,,,,,2,1,,,,,,,2,8,2,5,,,,,,,,,,,920.6,921.099,921.35,924.249,space,2.884,,924.249,1,79,925.249,925.249,925.254,,,,0,21,21,21,1,75,155,,,,,,,,
,,650a6bf9f420db3c591e33b3,65af5674b1b2d753c0180a3a,2024-01-23_17h04.32.737,bars,2023.2.3,Win32,59.95203837,657b66ea316d21385b68909f,,,,,,,,,,,925.255,926.248,,,926.748,926.998,,11,191,,,,,,,,,,,,,,,,bars/048.png,bars/mask008.png,,,,,,,,,,,,3,2,,,,,,,4,6,4,7,,,,,,,,,,,926.248,926.748,926.998,929.015,space,2.002,,929.015,39,16,930.014,930.014,930.022,,,,0,22,22,22,1,50,175,,,,,,,,
,,650a6bf9f420db3c591e33b3,65af5674b1b2d753c0180a3a,2024-01-23_17h04.32.737,bars,2023.2.3,Win32,59.95203837,657b66ea316d21385b68909f,,,,,,,,,,,930.023,931.013,,,931.513,931.763,,121,121,,,,,,,,,,,,,,,,bars/042.png,bars/mask000.png,,,,,,,,,,,,1,1,,,,,,,2,4,3,4,,,,,,,,,,,931.013,931.513,931.763,933.78,space,2,,933.78,24,46,934.779,934.78,934.786,,,,0,23,23,23,1,145,75,,,,,,,,
,,650a6bf9f420db3c591e33b3,65af5674b1b2d753c0180a3a,2024-01-23_17h04.32.737,bars,2023.2.3,Win32,59.95203837,657b66ea316d21385b68909f,,,,,,,,,,,934.786,935.779,,,936.279,936.529,,105,105,,,,,,,,,,,,,,,,bars/020.png,bars/mask002.png,,,,,,,,,,,,1,1,,,,,,,0,2,1,3,,,,,,,,,,,935.779,936.279,936.529,938.128,space,1.584,,938.128,10,65,939.128,939.128,939.133,,,,0,24,24,24,1,115,170,,,,,,,,
,,650a6bf9f420db3c591e33b3,65af5674b1b2d753c0180a3a,2024-01-23_17h04.32.737,bars,2023.2.3,Win32,59.95203837,657b66ea316d21385b68909f,,,,,,,,,,,939.134,940.128,,,940.627,940.878,,93,93,,,,,,,,,,,,,,,,bars/032.png,bars/mask008.png,,,,,,,,,,,,0,1,,,,,,,0,0,2,0,,,,,,,,,,,940.128,940.627,940.878,943.526,space,2.635,,943.526,32,73,944.526,944.526,944.53,,,,0,25,25,25,1,125,20,,,,,,,,
,,650a6bf9f420db3c591e33b3,65af5674b1b2d753c0180a3a,2024-01-23_17h04.32.737,bars,2023.2.3,Win32,59.95203837,657b66ea316d21385b68909f,,,,,,,,,,,944.531,945.526,,,946.03,946.279,,91,91,,,,,,,,,,,,,,,,bars/022.png,bars/mask001.png,,,,,,,,,,,,1,1,,,,,,,2,0,1,0,,,,,,,,,,,945.526,946.029,946.279,947.342,space,1.05,,947.343,4,71,948.342,948.342,948.349,,,,0,26,26,26,1,95,20,,,,,,,,
,,650a6bf9f420db3c591e33b3,65af5674b1b2d753c0180a3a,2024-01-23_17h04.32.737,bars,2023.2.3,Win32,59.95203837,657b66ea316d21385b68909f,,,,,,,,,,,948.349,949.342,,,949.842,950.091,,73,73,,,,,,,,,,,,,,,,bars/000.png,bars/mask000.png,,,,,,,,,,,,0,1,,,,,,,0,2,0,2,,,,,,,,,,,949.342,949.842,950.091,950.892,space,0.786,,950.892,33,72,951.891,951.891,951.897,,,,0,27,27,27,1,40,145,,,,,,,,
,,650a6bf9f420db3c591e33b3,65af5674b1b2d753c0180a3a,2024-01-23_17h04.32.737,bars,2023.2.3,Win32,59.95203837,657b66ea316d21385b68909f,,,,,,,,,,,951.897,952.891,,,953.39,953.64,,128,128,,,,,,,,,,,,,,,,bars/049.png,bars/mask003.png,,,,,,,,,,,,1,2,,,,,,,0,0,0,1,,,,,,,,,,,952.891,953.39,953.64,956.673,space,3.02,,956.673,32,13,957.673,957.673,957.681,,,,0,28,28,28,1,160,115,,,,,,,,
,,650a6bf9f420db3c591e33b3,65af5674b1b2d753c0180a3a,2024-01-23_17h04.32.737,bars,2023.2.3,Win32,59.95203837,657b66ea316d21385b68909f,,,,,,,,,,,957.681,958.672,,,959.172,959.423,,165,-15,,,,,,,,,,,,,,,,bars/038.png,bars/mask009.png,,,,,,,,,,,,2,1,,,,,,,2,0,2,0,,,,,,,,,,,958.672,959.172,959.423,961.338,space,1.903,,961.338,0,85,962.338,962.338,962.345,,,,0,29,29,29,1,165,70,,,,,,,,
,,650a6bf9f420db3c591e33b3,65af5674b1b2d753c0180a3a,2024-01-23_17h04.32.737,bars,2023.2.3,Win32,59.95203837,657b66ea316d21385b68909f,,,,,,,,,,,962.345,963.338,,,963.838,964.088,,90,90,,,,,,,,,,,,,,,,bars/022.png,bars/mask000.png,,,,,,,,,,,,0,1,,,,,,,0,2,0,2,,,,,,,,,,,963.338,963.838,964.088,966.57,space,2.467,,966.571,5,70,967.57,967.57,967.575,,,,0,30,30,30,1,95,20,,,,,,,,
,,650a6bf9f420db3c591e33b3,65af5674b1b2d753c0180a3a,2024-01-23_17h04.32.737,bars,2023.2.3,Win32,59.95203837,657b66ea316d21385b68909f,,,,,,,,,,,967.576,968.57,,,969.07,969.32,,24,204,,,,,,,,,,,,,,,,bars/000.png,bars/mask005.png,,,,,,,,,,,,0,1,,,,,,,2,0,1,0,,,,,,,,,,,968.57,969.07,969.32,971.735,space,2.4,,971.735,16,59,972.735,972.735,972.74,,,,0,31,31,31,1,40,145,,,,,,,,
,,650a6bf9f420db3c591e33b3,65af5674b1b2d753c0180a3a,2024-01-23_17h04.32.737,bars,2023.2.3,Win32,59.95203837,657b66ea316d21385b68909f,,,,,,,,,,,972.741,973.734,,,974.235,974.484,,170,-10,,,,,,,,,,,,,,,,bars/007.png,bars/mask000.png,,,,,,,,,,,,4,1,,,,,,,4,2,5,2,,,,,,,,,,,973.734,974.235,974.484,978.466,space,3.968,,978.466,5,65,979.466,979.466,979.47,,,,0,32,32,32,1,175,55,,,,,,,,
,,650a6bf9f420db3c591e33b3,65af5674b1b2d753c0180a3a,2024-01-23_17h04.32.737,bars,2023.2.3,Win32,59.95203837,657b66ea316d21385b68909f,,,,,,,,,,,979.472,980.469,,,980.968,981.216,,20,200,,,,,,,,,,,,,,,,bars/023.png,bars/mask001.png,,,,,,,,,,,,3,1,,,,,,,2,0,3,1,,,,,,,,,,,980.47,980.967,981.217,985.281,space,4.05,,985.282,0,85,986.281,986.281,986.287,,,,0,33,33,33,1,20,115,,,,,,,,
,,650a6bf9f420db3c591e33b3,65af5674b1b2d753c0180a3a,2024-01-23_17h04.32.737,bars,2023.2.3,Win32,59.95203837,657b66ea316d21385b68909f,,,,,,,,,,,986.288,987.281,,,987.781,988.031,,169,-11,,,,,,,,,,,,,,,,bars/042.png,bars/mask002.png,,,,,,,,,,,,0,1,,,,,,,0,0,0,0,,,,,,,,,,,987.281,987.781,988.031,990.463,space,2.417,,990.464,24,86,991.463,991.463,991.469,,,,0,34,34,34,1,145,75,,,,,,,,
,,650a6bf9f420db3c591e33b3,65af5674b1b2d753c0180a3a,2024-01-23_17h04.32.737,bars,2023.2.3,Win32,59.95203837,657b66ea316d21385b68909f,,,,,,,,,,,991.47,992.463,,,992.963,993.212,,118,118,,,,,,,,,,,,,,,,bars/031.png,bars/mask002.png,,,,,,,,,,,,1,1,,,,,,,0,2,1,1,,,,,,,,,,,992.463,992.963,993.212,995.461,space,2.235,,995.462,2,83,996.461,996.461,996.467,,,,0,35,35,35,1,120,35,,,,,,,,
,,650a6bf9f420db3c591e33b3,65af5674b1b2d753c0180a3a,2024-01-23_17h04.32.737,bars,2023.2.3,Win32,59.95203837,657b66ea316d21385b68909f,,,,,,,,,,,996.467,997.461,,,997.961,998.211,,94,94,,,,,,,,,,,,,,,,bars/039.png,bars/mask006.png,,,,,,,,,,,,0,2,,,,,,,0,0,0,0,,,,,,,,,,,997.462,997.961,998.211,1000.477,space,2.251,,1000.477,81,11,1001.477,1001.477,1001.484,,,,0,36,36,36,1,175,105,,,,,,,,
,,650a6bf9f420db3c591e33b3,65af5674b1b2d753c0180a3a,2024-01-23_17h04.32.737,bars,2023.2.3,Win32,59.95203837,657b66ea316d21385b68909f,,,,,,,,,,,1001.485,1002.476,,,1002.976,1003.226,,11,191,,,,,,,,,,,,,,,,bars/009.png,bars/mask006.png,,,,,,,,,,,,0,1,,,,,,,0,0,0,0,,,,,,,,,,,1002.476,1002.976,1003.226,1006.48,space,3.24,,1006.48,4,86,1007.475,1007.475,1007.483,,,,0,37,37,37,1,15,105,,,,,,,,
,,650a6bf9f420db3c591e33b3,65af5674b1b2d753c0180a3a,2024-01-23_17h04.32.737,bars,2023.2.3,Win32,59.95203837,657b66ea316d21385b68909f,,,,,,,,,,,1007.483,1008.475,,,1008.974,1009.224,,101,101,,,,,,,,,,,,,,,,bars/025.png,bars/mask001.png,,,,,,,,,,,,0,1,,,,,,,0,0,0,1,,,,,,,,,,,1008.475,1008.974,1009.225,1011.24,space,2.001,,1011.24,4,61,1012.24,1012.24,1012.246,,,,0,38,38,38,1,105,40,,,,,,,,
,,650a6bf9f420db3c591e33b3,65af5674b1b2d753c0180a3a,2024-01-23_17h04.32.737,bars,2023.2.3,Win32,59.95203837,657b66ea316d21385b68909f,,,,,,,,,,,1012.247,1013.239,,,1013.74,1013.99,,3,183,,,,,,,,,,,,,,,,bars/046.png,bars/mask002.png,,,,,,,,,,,,0,1,,,,,,,2,0,3,0,,,,,,,,,,,1013.239,1013.74,1013.99,1015.773,space,1.769,,1015.775,28,82,1016.773,1016.773,1016.78,,,,0,39,39,39,1,155,85,,,,,,,,
,,650a6bf9f420db3c591e33b3,65af5674b1b2d753c0180a3a,2024-01-23_17h04.32.737,bars,2023.2.3,Win32,59.95203837,657b66ea316d21385b68909f,,,,,,,,,,,1016.781,1017.772,,,1018.272,1018.521,,11,11,,,,,,,,,,,,,,,,bars/037.png,bars/mask001.png,,,,,,,,,,,,0,1,,,,,,,4,0,4,1,,,,,,,,,,,1017.772,1018.272,1018.521,1020.604,space,2.069,,1020.605,41,86,1021.605,1021.605,1021.61,,,,0,40,40,40,1,150,105,,,,,,,,
,,650a6bf9f420db3c591e33b3,65af5674b1b2d753c0180a3a,2024-01-23_17h04.32.737,bars,2023.2.3,Win32,59.95203837,657b66ea316d21385b68909f,,,,,,,,,,,1021.61,1022.604,,,1023.104,1023.354,,68,68,,,,,,,,,,,,,,,,bars/033.png,bars/mask005.png,,,,,,,,,,,,0,1,,,,,,,6,0,4,0,,,,,,,,,,,1022.604,1023.104,1023.354,1025.669,space,2.304,,1025.669,43,87,1026.67,1026.67,1026.674,,,,0,41,41,41,1,25,155,,,,,,,,
,,650a6bf9f420db3c591e33b3,65af5674b1b2d753c0180a3a,2024-01-23_17h04.32.737,bars,2023.2.3,Win32,59.95203837,657b66ea316d21385b68909f,,,,,,,,,,,1026.675,1027.669,,,1028.169,1028.419,,34,34,,,,,,,,,,,,,,,,bars/023.png,bars/mask004.png,,,,,,,,,,,,3,1,,,,,,,4,2,5,2,,,,,,,,,,,1027.67,1028.169,1028.419,1030.135,space,1.7,,1030.135,14,81,1031.135,1031.135,1031.141,,,,0,42,42,42,1,20,115,,,,,,,,
,,650a6bf9f420db3c591e33b3,65af5674b1b2d753c0180a3a,2024-01-23_17h04.32.737,bars,2023.2.3,Win32,59.95203837,657b66ea316d21385b68909f,,,,,,,,,,,1031.141,1032.134,,,1032.635,1032.885,,164,164,,,,,,,,,,,,,,,,bars/036.png,bars/mask002.png,,,,,,,,,,,,3,1,,,,,,,6,0,7,1,,,,,,,,,,,1032.134,1032.635,1032.885,1035.383,space,2.485,,1035.383,19,36,1036.383,1036.383,1036.389,,,,0,43,43,43,1,145,20,,,,,,,,
,,650a6bf9f420db3c591e33b3,65af5674b1b2d753c0180a3a,2024-01-23_17h04.32.737,bars,2023.2.3,Win32,59.95203837,657b66ea316d21385b68909f,,,,,,,,,,,1036.389,1037.383,,,1037.883,1038.133,,60,60,,,,,,,,,,,,,,,,bars/000.png,bars/mask006.png,,,,,,,,,,,,2,1,,,,,,,4,2,6,2,,,,,,,,,,,1037.384,1037.883,1038.133,1041.332,space,3.185,,1041.332,20,85,1042.331,1042.331,1042.338,,,,0,44,44,44,1,40,145,,,,,,,,
,,650a6bf9f420db3c591e33b3,65af5674b1b2d753c0180a3a,2024-01-23_17h04.32.737,bars,2023.2.3,Win32,59.95203837,657b66ea316d21385b68909f,,,,,,,,,,,1042.338,1043.331,,,1043.832,1044.081,,100,100,,,,,,,,,,,,,,,,bars/020.png,bars/mask002.png,,,,,,,,,,,,2,1,,,,,,,2,4,3,4,,,,,,,,,,,1043.331,1043.832,1044.081,1047.147,space,3.051,,1047.147,15,70,1048.147,1048.147,1048.152,,,,0,45,45,45,1,115,170,,,,,,,,
,,650a6bf9f420db3c591e33b3,65af5674b1b2d753c0180a3a,2024-01-23_17h04.32.737,bars,2023.2.3,Win32,59.95203837,657b66ea316d21385b68909f,,,,,,,,,,,1048.153,1049.146,,,1049.646,1049.896,,16,196,,,,,,,,,,,,,,,,bars/035.png,bars/mask001.png,,,,,,,,,,,,1,1,,,,,,,4,2,4,1,,,,,,,,,,,1049.147,1049.646,1049.896,1051.598,space,1.685,,1051.599,21,44,1052.595,1052.595,1052.602,,,,0,46,46,46,1,175,60,,,,,,,,
,,650a6bf9f420db3c591e33b3,65af5674b1b2d753c0180a3a,2024-01-23_17h04.32.737,bars,2023.2.3,Win32,59.95203837,657b66ea316d21385b68909f,,,,,,,,,,,1052.603,1053.595,,,1054.095,1054.345,,60,60,,,,,,,,,,,,,,,,bars/048.png,bars/mask002.png,,,,,,,,,,,,4,1,,,,,,,6,0,6,0,,,,,,,,,,,1053.595,1054.095,1054.345,1057.21,space,2.85,,1057.211,10,65,1058.21,1058.21,1058.216,,,,0,47,47,47,1,50,175,,,,,,,,
,,650a6bf9f420db3c591e33b3,65af5674b1b2d753c0180a3a,2024-01-23_17h04.32.737,bars,2023.2.3,Win32,59.95203837,657b66ea316d21385b68909f,,,,,,,,,,,1058.217,1059.21,,,1059.71,1059.96,,78,78,,,,,,,,,,,,,,,,bars/017.png,bars/mask007.png,,,,,,,,,,,,0,2,,,,,,,4,2,5,2,,,,,,,,,,,1059.211,1059.71,1059.96,1061.746,space,1.775,,1061.746,67,33,1062.743,1062.743,1062.75,,,,0,48,48,48,1,145,45,,,,,,,,
,,650a6bf9f420db3c591e33b3,65af5674b1b2d753c0180a3a,2024-01-23_17h04.32.737,bars,2023.2.3,Win32,59.95203837,657b66ea316d21385b68909f,,,,,,,,,,,1062.75,1063.742,,,1064.242,1064.492,,53,53,,,,,,,,,,,,,,,,bars/003.png,bars/mask001.png,,,,,,,,,,,,0,1,,,,,,,2,4,4,3,,,,,,,,,,,1063.742,1064.242,1064.492,1067.874,space,3.369,,1067.874,28,87,1068.874,1068.874,1068.882,,,,0,49,49,49,1,25,140,,,,,,,,
,,650a6bf9f420db3c591e33b3,65af5674b1b2d753c0180a3a,2024-01-23_17h04.32.737,bars,2023.2.3,Win32,59.95203837,657b66ea316d21385b68909f,,,,,,,,,,,,,,,,,,,,,,,,,,,,,,,,,,,,,,,,,,,,,,,,,,,,,,,,,,,,,,,,,,,,,,,,,,,,,,,,,,,,,,,,,,,,,1068.882,1128.875,0,1,1,4,1,sequence_tables/blk015.csv
,,650a6bf9f420db3c591e33b3,65af5674b1b2d753c0180a3a,2024-01-23_17h04.32.737,bars,2023.2.3,Win32,59.95203837,657b66ea316d21385b68909f,,,,,,,,,,,1137.016,1138.02,,,1138.52,1138.77,,173,173,,,,,,,,,,,,,,,,bars/007.png,bars/mask006.png,,,,,,,,,,,,0,1,,,,,,,0,3,0,3,,,,,,1128.881,1137.006,space,8.111,,1138.021,1138.52,1138.77,1141.903,space,3.117,,1141.903,2,62,1142.902,1142.902,1142.908,,,,0,0,0,0,1,175,55,,,,,,,,
,,650a6bf9f420db3c591e33b3,65af5674b1b2d753c0180a3a,2024-01-23_17h04.32.737,bars,2023.2.3,Win32,59.95203837,657b66ea316d21385b68909f,,,,,,,,,,,1142.909,1143.902,,,1144.402,1144.652,,24,204,,,,,,,,,,,,,,,,bars/028.png,bars/mask004.png,,,,,,,,,,,,0,1,,,,,,,2,5,0,6,,,,,,,,,,,1143.902,1144.402,1144.652,1146.619,space,1.952,,1146.62,21,84,1147.618,1147.618,1147.626,,,,0,1,1,1,1,45,120,,,,,,,,
,,650a6bf9f420db3c591e33b3,65af5674b1b2d753c0180a3a,2024-01-23_17h04.32.737,bars,2023.2.3,Win32,59.95203837,657b66ea316d21385b68909f,,,,,,,,,,,1147.626,1148.618,,,1149.117,1149.367,,171,171,,,,,,,,,,,,,,,,bars/024.png,bars/mask003.png,,,,,,,,,,,,6,2,,,,,,,0,7,0,6,,,,,,,,,,,1148.618,1149.117,1149.367,1151.884,space,2.505,,1151.884,51,1,1152.883,1152.883,1152.896,,,,0,2,2,2,1,120,170,,,,,,,,
,,650a6bf9f420db3c591e33b3,65af5674b1b2d753c0180a3a,2024-01-23_17h04.32.737,bars,2023.2.3,Win32,59.95203837,657b66ea316d21385b68909f,,,,,,,,,,,1152.896,1153.899,,,1154.4,1154.649,,100,100,,,,,,,,,,,,,,,,bars/026.png,bars/mask005.png,,,,,,,,,,,,3,2,,,,,,,2,5,2,5,,,,,,,,,,,1153.899,1154.4,1154.649,1158.815,space,4.149,,1158.815,65,15,1159.814,1159.814,1159.821,,,,0,3,3,3,1,35,85,,,,,,,,
,,650a6bf9f420db3c591e33b3,65af5674b1b2d753c0180a3a,2024-01-23_17h04.32.737,bars,2023.2.3,Win32,59.95203837,657b66ea316d21385b68909f,,,,,,,,,,,1159.822,1160.814,,,1161.314,1161.564,,9,9,,,,,,,,,,,,,,,,bars/005.png,bars/mask006.png,,,,,,,,,,,,0,1,,,,,,,0,7,0,7,,,,,,,,,,,1160.814,1161.314,1161.564,1163.647,space,2.07,,1163.647,1,49,1164.646,1164.646,1164.654,,,,0,4,4,4,1,10,140,,,,,,,,
,,650a6bf9f420db3c591e33b3,65af5674b1b2d753c0180a3a,2024-01-23_17h04.32.737,bars,2023.2.3,Win32,59.95203837,657b66ea316d21385b68909f,,,,,,,,,,,1164.654,1165.646,,,1166.145,1166.396,,82,82,,,,,,,,,,,,,,,,bars/029.png,bars/mask007.png,,,,,,,,,,,,2,1,,,,,,,2,5,3,5,,,,,,,,,,,1165.646,1166.145,1166.396,1169.279,space,2.868,,1169.279,8,37,1170.278,1170.278,1170.283,,,,0,5,5,5,1,90,45,,,,,,,,
,,650a6bf9f420db3c591e33b3,65af5674b1b2d753c0180a3a,2024-01-23_17h04.32.737,bars,2023.2.3,Win32,59.95203837,657b66ea316d21385b68909f,,,,,,,,,,,1170.283,1171.278,,,1171.778,1172.027,,171,171,,,,,,,,,,,,,,,,bars/033.png,bars/mask003.png,,,,,,,,,,,,1,2,,,,,,,0,3,0,2,,,,,,,,,,,1171.278,1171.778,1172.027,1173.927,space,1.885,,1173.927,34,16,1174.926,1174.927,1174.933,,,,0,6,6,6,1,25,155,,,,,,,,
,,650a6bf9f420db3c591e33b3,65af5674b1b2d753c0180a3a,2024-01-23_17h04.32.737,bars,2023.2.3,Win32,59.95203837,657b66ea316d21385b68909f,,,,,,,,,,,1174.934,1175.927,,,1176.426,1176.676,,46,46,,,,,,,,,,,,,,,,bars/028.png,bars/mask006.png,,,,,,,,,,,,3,1,,,,,,,2,5,3,5,,,,,,,,,,,1175.927,1176.426,1176.676,1178.445,space,1.755,,1178.445,1,74,1179.442,1179.442,1179.449,,,,0,7,7,7,1,45,120,,,,,,,,
,,650a6bf9f420db3c591e33b3,65af5674b1b2d753c0180a3a,2024-01-23_17h04.32.737,bars,2023.2.3,Win32,59.95203837,657b66ea316d21385b68909f,,,,,,,,,,,1179.449,1180.442,,,1180.942,1181.193,,154,-26,,,,,,,,,,,,,,,,bars/021.png,bars/mask005.png,,,,,,,,,,,,0,1,,,,,,,0,7,0,8,,,,,,,,,,,1180.442,1180.942,1181.195,1185.211,space,4.003,,1185.212,1,84,1186.207,1186.207,1186.215,,,,0,8,8,8,1,155,70,,,,,,,,
,,650a6bf9f420db3c591e33b3,65af5674b1b2d753c0180a3a,2024-01-23_17h04.32.737,bars,2023.2.3,Win32,59.95203837,657b66ea316d21385b68909f,,,,,,,,,,,1186.215,1187.206,,,1187.706,1187.956,,28,28,,,,,,,,,,,,,,,,bars/033.png,bars/mask003.png,,,,,,,,,,,,3,1,,,,,,,2,5,3,5,,,,,,,,,,,1187.206,1187.706,1187.956,1188.989,space,1.019,,1188.99,3,53,1189.989,1189.989,1189.994,,,,0,9,9,9,1,25,155,,,,,,,,
,,650a6bf9f420db3c591e33b3,65af5674b1b2d753c0180a3a,2024-01-23_17h04.32.737,bars,2023.2.3,Win32,59.95203837,657b66ea316d21385b68909f,,,,,,,,,,,1189.996,1190.988,,,1191.489,1191.739,,99,99,,,,,,,,,,,,,,,,bars/034.png,bars/mask002.png,,,,,,,,,,,,0,1,,,,,,,0,7,1,7,,,,,,,,,,,1190.989,1191.489,1191.739,1195.488,space,3.732,,1195.488,26,34,1196.493,1196.494,1196.496,,,,0,10,10,10,1,125,65,,,,,,,,
,,650a6bf9f420db3c591e33b3,65af5674b1b2d753c0180a3a,2024-01-23_17h04.32.737,bars,2023.2.3,Win32,59.95203837,657b66ea316d21385b68909f,,,,,,,,,,,1196.496,1197.487,,,1197.99,1198.241,,63,63,,,,,,,,,,,,,,,,bars/013.png,bars/mask001.png,,,,,,,,,,,,1,1,,,,,,,0,9,1,10,,,,,,,,,,,1197.487,1197.989,1198.241,1200.502,space,2.248,,1200.502,12,53,1201.502,1201.502,1201.507,,,,0,11,11,11,1,75,10,,,,,,,,
,,650a6bf9f420db3c591e33b3,65af5674b1b2d753c0180a3a,2024-01-23_17h04.32.737,bars,2023.2.3,Win32,59.95203837,657b66ea316d21385b68909f,,,,,,,,,,,1201.508,1202.502,,,1203.002,1203.252,,18,18,,,,,,,,,,,,,,,,bars/029.png,bars/mask007.png,,,,,,,,,,,,1,2,,,,,,,2,7,2,7,,,,,,,,,,,1202.502,1203.002,1203.252,1204.102,space,0.834,,1204.102,72,27,1205.101,1205.101,1205.109,,,,0,12,12,12,1,90,45,,,,,,,,
,,650a6bf9f420db3c591e33b3,65af5674b1b2d753c0180a3a,2024-01-23_17h04.32.737,bars,2023.2.3,Win32,59.95203837,657b66ea316d21385b68909f,,,,,,,,,,,1205.109,1206.101,,,1206.601,1206.851,,67,67,,,,,,,,,,,,,,,,bars/022.png,bars/mask002.png,,,,,,,,,,,,0,1,,,,,,,4,5,3,5,,,,,,,,,,,1206.101,1206.601,1206.851,1210.833,space,3.971,,1210.833,28,47,1211.834,1211.836,1211.844,,,,0,13,13,13,1,95,20,,,,,,,,
,,650a6bf9f420db3c591e33b3,65af5674b1b2d753c0180a3a,2024-01-23_17h04.32.737,bars,2023.2.3,Win32,59.95203837,657b66ea316d21385b68909f,,,,,,,,,,,1211.845,1212.85,,,1213.349,1213.599,,143,143,,,,,,,,,,,,,,,,bars/046.png,bars/mask003.png,,,,,,,,,,,,1,1,,,,,,,2,3,1,3,,,,,,,,,,,1212.85,1213.349,1213.599,1214.448,space,0.839,,1214.448,12,58,1215.449,1215.449,1215.455,,,,0,14,14,14,1,155,85,,,,,,,,
,,650a6bf9f420db3c591e33b3,65af5674b1b2d753c0180a3a,2024-01-23_17h04.32.737,bars,2023.2.3,Win32,59.95203837,657b66ea316d21385b68909f,,,,,,,,,,,1215.455,1216.448,,,1216.948,1217.198,,74,74,,,,,,,,,,,,,,,,bars/035.png,bars/mask007.png,,,,,,,,,,,,2,2,,,,,,,4,1,3,3,,,,,,,,,,,1216.448,1216.948,1217.198,1218.848,space,1.634,,1218.848,79,14,1219.847,1219.848,1219.856,,,,0,15,15,15,1,175,60,,,,,,,,
,,650a6bf9f420db3c591e33b3,65af5674b1b2d753c0180a3a,2024-01-23_17h04.32.737,bars,2023.2.3,Win32,59.95203837,657b66ea316d21385b68909f,,,,,,,,,,,1219.856,1220.847,,,1221.347,1221.596,,156,-24,,,,,,,,,,,,,,,,bars/044.png,bars/mask001.png,,,,,,,,,,,,0,2,,,,,,,6,0,5,0,,,,,,,,,,,1220.847,1221.347,1221.596,1224.329,space,2.716,,1224.329,81,1,1225.329,1225.329,1225.335,,,,0,16,16,16,1,75,155,,,,,,,,
,,650a6bf9f420db3c591e33b3,65af5674b1b2d753c0180a3a,2024-01-23_17h04.32.737,bars,2023.2.3,Win32,59.95203837,657b66ea316d21385b68909f,,,,,,,,,,,1225.336,1226.329,,,1226.829,1227.078,,37,37,,,,,,,,,,,,,,,,bars/029.png,bars/mask006.png,,,,,,,,,,,,1,2,,,,,,,4,2,5,2,,,,,,,,,,,1226.329,1226.829,1227.078,1230.044,space,2.95,,1230.044,53,8,1231.044,1231.044,1231.049,,,,0,17,17,17,1,90,45,,,,,,,,
,,650a6bf9f420db3c591e33b3,65af5674b1b2d753c0180a3a,2024-01-23_17h04.32.737,bars,2023.2.3,Win32,59.95203837,657b66ea316d21385b68909f,,,,,,,,,,,1231.05,1232.044,,,1232.544,1232.794,,112,112,,,,,,,,,,,,,,,,bars/012.png,bars/mask009.png,,,,,,,,,,,,2,1,,,,,,,6,4,7,4,,,,,,,,,,,1232.044,1232.544,1232.794,1236.076,space,3.267,,1236.076,22,83,1237.076,1237.076,1237.083,,,,0,18,18,18,1,90,15,,,,,,,,
,,650a6bf9f420db3c591e33b3,65af5674b1b2d753c0180a3a,2024-01-23_17h04.32.737,bars,2023.2.3,Win32,59.95203837,657b66ea316d21385b68909f,,,,,,,,,,,1237.083,1238.075,,,1238.575,1238.825,,109,109,,,,,,,,,,,,,,,,bars/001.png,bars/mask008.png,,,,,,,,,,,,2,1,,,,,,,4,2,6,3,,,,,,,,,,,1238.075,1238.575,1238.825,1241.175,space,2.335,,1241.175,21,24,1242.174,1242.174,1242.18,,,,0,19,19,19,1,130,85,,,,,,,,
,,650a6bf9f420db3c591e33b3,65af5674b1b2d753c0180a3a,2024-01-23_17h04.32.737,bars,2023.2.3,Win32,59.95203837,657b66ea316d21385b68909f,,,,,,,,,,,1242.18,1243.174,,,1243.673,1243.924,,25,25,,,,,,,,,,,,,,,,bars/048.png,bars/mask004.png,,,,,,,,,,,,1,1,,,,,,,6,4,8,4,,,,,,,,,,,1243.174,1243.673,1243.924,1245.523,space,1.583,,1245.523,25,30,1246.526,1246.527,1246.532,,,,0,20,20,20,1,50,175,,,,,,,,
,,650a6bf9f420db3c591e33b3,65af5674b1b2d753c0180a3a,2024-01-23_17h04.32.737,bars,2023.2.3,Win32,59.95203837,657b66ea316d21385b68909f,,,,,,,,,,,1246.532,1247.523,,,1248.023,1248.272,,94,94,,,,,,,,,,,,,,,,bars/021.png,bars/mask009.png,,,,,,,,,,,,1,2,,,,,,,8,6,9,6,,,,,,,,,,,1247.523,1248.022,1248.272,1253.204,space,4.918,,1253.206,61,24,1254.204,1254.204,1254.213,,,,0,21,21,21,1,155,70,,,,,,,,
,,650a6bf9f420db3c591e33b3,65af5674b1b2d753c0180a3a,2024-01-23_17h04.32.737,bars,2023.2.3,Win32,59.95203837,657b66ea316d21385b68909f,,,,,,,,,,,1254.214,1255.204,,,1255.703,1255.953,,149,149,,,,,,,,,,,,,,,,bars/040.png,bars/mask006.png,,,,,,,,,,,,6,1,,,,,,,10,8,9,8,,,,,,,,,,,1255.204,1255.703,1255.954,1257.87,space,1.902,,1257.87,9,36,1258.869,1258.869,1258.878,,,,0,22,22,22,1,140,5,,,,,,,,
,,650a6bf9f420db3c591e33b3,65af5674b1b2d753c0180a3a,2024-01-23_17h04.32.737,bars,2023.2.3,Win32,59.95203837,657b66ea316d21385b68909f,,,,,,,,,,,1258.878,1259.869,,,1260.369,1260.619,,10,10,,,,,,,,,,,,,,,,bars/004.png,bars/mask003.png,,,,,,,,,,,,4,1,,,,,,,8,10,7,10,,,,,,,,,,,1259.869,1260.369,1260.619,1261.485,space,0.851,,1261.485,15,65,1262.485,1262.485,1262.489,,,,0,23,23,23,1,25,125,,,,,,,,
,,650a6bf9f420db3c591e33b3,65af5674b1b2d753c0180a3a,2024-01-23_17h04.32.737,bars,2023.2.3,Win32,59.95203837,657b66ea316d21385b68909f,,,,,,,,,,,1262.491,1263.484,,,1263.984,1264.235,,100,100,,,,,,,,,,,,,,,,bars/004.png,bars/mask007.png,,,,,,,,,,,,1,2,,,,,,,10,8,10,8,,,,,,,,,,,1263.484,1263.984,1264.235,1266.617,space,2.368,,1266.617,75,25,1267.617,1267.617,1267.624,,,,0,24,24,24,1,25,125,,,,,,,,
,,650a6bf9f420db3c591e33b3,65af5674b1b2d753c0180a3a,2024-01-23_17h04.32.737,bars,2023.2.3,Win32,59.95203837,657b66ea316d21385b68909f,,,,,,,,,,,1267.624,1268.617,,,1269.116,1269.366,,79,79,,,,,,,,,,,,,,,,bars/029.png,bars/mask001.png,,,,,,,,,,,,6,1,,,,,,,8,6,10,6,,,,,,,,,,,1268.617,1269.116,1269.366,1270.233,space,0.851,,1270.233,11,34,1271.233,1271.233,1271.24,,,,0,25,25,25,1,90,45,,,,,,,,
,,650a6bf9f420db3c591e33b3,65af5674b1b2d753c0180a3a,2024-01-23_17h04.32.737,bars,2023.2.3,Win32,59.95203837,657b66ea316d21385b68909f,,,,,,,,,,,1271.24,1272.232,,,1272.732,1272.982,,155,155,,,,,,,,,,,,,,,,bars/038.png,bars/mask005.png,,,,,,,,,,,,4,1,,,,,,,6,4,6,4,,,,,,,,,,,1272.232,1272.732,1272.982,1276.964,space,3.968,,1276.964,10,85,1277.963,1277.963,1277.969,,,,0,26,26,26,1,165,70,,,,,,,,
,,650a6bf9f420db3c591e33b3,65af5674b1b2d753c0180a3a,2024-01-23_17h04.32.737,bars,2023.2.3,Win32,59.95203837,657b66ea316d21385b68909f,,,,,,,,,,,1277.97,1278.964,,,1279.464,1279.713,,18,18,,,,,,,,,,,,,,,,bars/023.png,bars/mask001.png,,,,,,,,,,,,7,1,,,,,,,8,6,8,7,,,,,,,,,,,1278.964,1279.464,1279.713,1281.648,space,1.918,,1281.649,2,83,1282.646,1282.646,1282.655,,,,0,27,27,27,1,20,115,,,,,,,,
,,650a6bf9f420db3c591e33b3,65af5674b1b2d753c0180a3a,2024-01-23_17h04.32.737,bars,2023.2.3,Win32,59.95203837,657b66ea316d21385b68909f,,,,,,,,,,,1282.655,1283.646,,,1284.146,1284.395,,107,107,,,,,,,,,,,,,,,,bars/036.png,bars/mask002.png,,,,,,,,,,,,0,1,,,,,,,6,8,8,10,,,,,,,,,,,1283.647,1284.146,1284.395,1286.362,space,1.953,,1286.362,38,87,1287.362,1287.362,1287.368,,,,0,28,28,28,1,145,20,,,,,,,,
,,650a6bf9f420db3c591e33b3,65af5674b1b2d753c0180a3a,2024-01-23_17h04.32.737,bars,2023.2.3,Win32,59.95203837,657b66ea316d21385b68909f,,,,,,,,,,,1287.368,1288.361,,,1288.861,1289.111,,132,-48,,,,,,,,,,,,,,,,bars/022.png,bars/mask009.png,,,,,,,,,,,,0,1,,,,,,,8,6,7,6,,,,,,,,,,,1288.361,1288.861,1289.111,1292.477,space,3.35,,1292.477,37,68,1293.476,1293.476,1293.481,,,,0,29,29,29,1,95,20,,,,,,,,
,,650a6bf9f420db3c591e33b3,65af5674b1b2d753c0180a3a,2024-01-23_17h04.32.737,bars,2023.2.3,Win32,59.95203837,657b66ea316d21385b68909f,,,,,,,,,,,1293.482,1294.475,,,1294.975,1295.226,,25,205,,,,,,,,,,,,,,,,bars/005.png,bars/mask008.png,,,,,,,,,,,,5,1,,,,,,,10,8,10,8,,,,,,,,,,,1294.475,1294.975,1295.226,1297.675,space,2.433,,1297.675,15,65,1298.675,1298.675,1298.679,,,,0,30,30,30,1,10,140,,,,,,,,
,,650a6bf9f420db3c591e33b3,65af5674b1b2d753c0180a3a,2024-01-23_17h04.32.737,bars,2023.2.3,Win32,59.95203837,657b66ea316d21385b68909f,,,,,,,,,,,1298.681,1299.675,,,1300.179,1300.424,,47,227,,,,,,,,,,,,,,,,bars/004.png,bars/mask009.png,,,,,,,,,,,,2,1,,,,,,,8,10,6,9,,,,,,,,,,,1299.675,1300.179,1300.424,1304.123,space,3.685,,1304.123,22,78,1305.123,1305.123,1305.128,,,,0,31,31,31,1,25,125,,,,,,,,
,,650a6bf9f420db3c591e33b3,65af5674b1b2d753c0180a3a,2024-01-23_17h04.32.737,bars,2023.2.3,Win32,59.95203837,657b66ea316d21385b68909f,,,,,,,,,,,1305.129,1306.123,,,1306.623,1306.873,,5,5,,,,,,,,,,,,,,,,bars/025.png,bars/mask006.png,,,,,,,,,,,,0,2,,,,,,,6,8,6,8,,,,,,,,,,,1306.123,1306.623,1306.873,1309.271,space,2.383,,1309.271,80,35,1310.272,1310.272,1310.279,,,,0,32,32,32,1,105,40,,,,,,,,
,,650a6bf9f420db3c591e33b3,65af5674b1b2d753c0180a3a,2024-01-23_17h04.32.737,bars,2023.2.3,Win32,59.95203837,657b66ea316d21385b68909f,,,,,,,,,,,1310.28,1311.271,,,1311.775,1312.02,,20,20,,,,,,,,,,,,,,,,bars/006.png,bars/mask006.png,,,,,,,,,,,,4,1,,,,,,,8,10,8,10,,,,,,,,,,,1311.272,1311.773,1312.02,1315.587,space,3.549,,1315.587,15,80,1316.586,1316.587,1316.595,,,,0,33,33,33,1,35,100,,,,,,,,
,,650a6bf9f420db3c591e33b3,65af5674b1b2d753c0180a3a,2024-01-23_17h04.32.737,bars,2023.2.3,Win32,59.95203837,657b66ea316d21385b68909f,,,,,,,,,,,1316.595,1317.586,,,1318.086,1318.336,,158,-22,,,,,,,,,,,,,,,,bars/036.png,bars/mask000.png,,,,,,,,,,,,3,1,,,,,,,6,8,6,10,,,,,,,,,,,1317.586,1318.086,1318.336,1321.301,space,2.95,,1321.301,13,42,1322.301,1322.301,1322.307,,,,0,34,34,34,1,145,20,,,,,,,,
,,650a6bf9f420db3c591e33b3,65af5674b1b2d753c0180a3a,2024-01-23_17h04.32.737,bars,2023.2.3,Win32,59.95203837,657b66ea316d21385b68909f,,,,,,,,,,,1322.307,1323.301,,,1323.801,1324.051,,21,21,,,,,,,,,,,,,,,,bars/036.png,bars/mask009.png,,,,,,,,,,,,6,2,,,,,,,4,6,4,6,,,,,,,,,,,1323.301,1323.801,1324.051,1326.017,space,1.951,,1326.017,56,1,1327.017,1327.017,1327.024,,,,0,35,35,35,1,145,20,,,,,,,,
,,650a6bf9f420db3c591e33b3,65af5674b1b2d753c0180a3a,2024-01-23_17h04.32.737,bars,2023.2.3,Win32,59.95203837,657b66ea316d21385b68909f,,,,,,,,,,,1327.025,1328.016,,,1328.516,1328.766,,95,95,,,,,,,,,,,,,,,,bars/021.png,bars/mask000.png,,,,,,,,,,,,1,2,,,,,,,2,4,2,4,,,,,,,,,,,1328.016,1328.516,1328.766,1331.182,space,2.399,,1331.182,60,25,1332.182,1332.182,1332.187,,,,0,36,36,36,1,155,70,,,,,,,,
,,650a6bf9f420db3c591e33b3,65af5674b1b2d753c0180a3a,2024-01-23_17h04.32.737,bars,2023.2.3,Win32,59.95203837,657b66ea316d21385b68909f,,,,,,,,,,,1332.188,1333.181,,,1333.681,1333.931,,8,8,,,,,,,,,,,,,,,,bars/000.png,bars/mask002.png,,,,,,,,,,,,0,1,,,,,,,4,6,4,4,,,,,,,,,,,1333.181,1333.681,1333.931,1337.43,space,3.485,,1337.43,32,43,1338.43,1338.43,1338.436,,,,0,37,37,37,1,40,145,,,,,,,,
,,650a6bf9f420db3c591e33b3,65af5674b1b2d753c0180a3a,2024-01-23_17h04.32.737,bars,2023.2.3,Win32,59.95203837,657b66ea316d21385b68909f,,,,,,,,,,,1338.437,1339.429,,,1339.93,1340.179,,152,152,,,,,,,,,,,,,,,,bars/034.png,bars/mask003.png,,,,,,,,,,,,0,1,,,,,,,2,8,1,7,,,,,,,,,,,1339.429,1339.93,1340.179,1342.096,space,1.902,,1342.096,27,87,1343.095,1343.095,1343.099,,,,0,38,38,38,1,125,65,,,,,,,,
,,650a6bf9f420db3c591e33b3,65af5674b1b2d753c0180a3a,2024-01-23_17h04.32.737,bars,2023.2.3,Win32,59.95203837,657b66ea316d21385b68909f,,,,,,,,,,,1343.1,1344.095,,,1344.595,1344.845,,41,41,,,,,,,,,,,,,,,,bars/005.png,bars/mask008.png,,,,,,,,,,,,0,1,,,,,,,4,10,5,10,,,,,,,,,,,1344.095,1344.595,1344.845,1346.862,space,1.999,,1346.863,31,81,1347.86,1347.861,1347.869,,,,0,39,39,39,1,10,140,,,,,,,,
,,650a6bf9f420db3c591e33b3,65af5674b1b2d753c0180a3a,2024-01-23_17h04.32.737,bars,2023.2.3,Win32,59.95203837,657b66ea316d21385b68909f,,,,,,,,,,,1347.869,1348.86,,,1349.36,1349.611,,173,-7,,,,,,,,,,,,,,,,bars/040.png,bars/mask006.png,,,,,,,,,,,,4,2,,,,,,,6,8,7,7,,,,,,,,,,,1348.86,1349.36,1349.611,1352.943,space,3.317,,1352.944,33,12,1353.942,1353.942,1353.951,,,,0,40,40,40,1,140,5,,,,,,,,
,,650a6bf9f420db3c591e33b3,65af5674b1b2d753c0180a3a,2024-01-23_17h04.32.737,bars,2023.2.3,Win32,59.95203837,657b66ea316d21385b68909f,,,,,,,,,,,1353.951,1354.942,,,1355.441,1355.692,,0,180,,,,,,,,,,,,,,,,bars/018.png,bars/mask002.png,,,,,,,,,,,,0,1,,,,,,,4,6,5,7,,,,,,,,,,,1354.942,1355.441,1355.692,1359.374,space,3.668,,1359.375,30,90,1360.374,1360.374,1360.382,,,,0,41,41,41,1,150,90,,,,,,,,
,,650a6bf9f420db3c591e33b3,65af5674b1b2d753c0180a3a,2024-01-23_17h04.32.737,bars,2023.2.3,Win32,59.95203837,657b66ea316d21385b68909f,,,,,,,,,,,1360.382,1361.374,,,1361.874,1362.123,,142,142,,,,,,,,,,,,,,,,bars/035.png,bars/mask006.png,,,,,,,,,,,,0,1,,,,,,,6,8,6,9,,,,,,,,,,,1361.374,1361.874,1362.123,1364.572,space,2.432,,1364.572,33,82,1365.572,1365.572,1365.578,,,,0,42,42,42,1,175,60,,,,,,,,
,,650a6bf9f420db3c591e33b3,65af5674b1b2d753c0180a3a,2024-01-23_17h04.32.737,bars,2023.2.3,Win32,59.95203837,657b66ea316d21385b68909f,,,,,,,,,,,1365.578,1366.571,,,1367.071,1367.321,,56,56,,,,,,,,,,,,,,,,bars/028.png,bars/mask004.png,,,,,,,,,,,,6,1,,,,,,,8,6,9,7,,,,,,,,,,,1366.572,1367.071,1367.321,1369.154,space,1.82,,1369.155,11,64,1370.154,1370.154,1370.158,,,,0,43,43,43,1,45,120,,,,,,,,
,,650a6bf9f420db3c591e33b3,65af5674b1b2d753c0180a3a,2024-01-23_17h04.32.737,bars,2023.2.3,Win32,59.95203837,657b66ea316d21385b68909f,,,,,,,,,,,1370.16,1371.154,,,1371.654,1371.904,,38,38,,,,,,,,,,,,,,,,bars/023.png,bars/mask004.png,,,,,,,,,,,,2,1,,,,,,,6,8,5,10,,,,,,,,,,,1371.154,1371.654,1371.904,1373.62,space,1.702,,1373.62,18,77,1374.619,1374.62,1374.624,,,,0,44,44,44,1,20,115,,,,,,,,
,,650a6bf9f420db3c591e33b3,65af5674b1b2d753c0180a3a,2024-01-23_17h04.32.737,bars,2023.2.3,Win32,59.95203837,657b66ea316d21385b68909f,,,,,,,,,,,1374.625,1375.62,,,1376.119,1376.369,,103,103,,,,,,,,,,,,,,,,bars/032.png,bars/mask004.png,,,,,,,,,,,,1,1,,,,,,,4,10,4,9,,,,,,,,,,,1375.62,1376.119,1376.369,1378.535,space,2.149,,1378.536,22,83,1379.535,1379.535,1379.541,,,,0,45,45,45,1,125,20,,,,,,,,
,,650a6bf9f420db3c591e33b3,65af5674b1b2d753c0180a3a,2024-01-23_17h04.32.737,bars,2023.2.3,Win32,59.95203837,657b66ea316d21385b68909f,,,,,,,,,,,1379.541,1380.534,,,1381.034,1381.284,,49,49,,,,,,,,,,,,,,,,bars/043.png,bars/mask004.png,,,,,,,,,,,,1,1,,,,,,,2,8,3,9,,,,,,,,,,,1380.534,1381.034,1381.284,1382.936,space,1.635,,1382.938,19,81,1383.933,1383.933,1383.942,,,,0,46,46,46,1,30,130,,,,,,,,
,,650a6bf9f420db3c591e33b3,65af5674b1b2d753c0180a3a,2024-01-23_17h04.32.737,bars,2023.2.3,Win32,59.95203837,657b66ea316d21385b68909f,,,,,,,,,,,1383.942,1384.933,,,1385.433,1385.683,,76,76,,,,,,,,,,,,,,,,bars/016.png,bars/mask002.png,,,,,,,,,,,,0,1,,,,,,,4,6,4,9,,,,,,,,,,,1384.933,1385.433,1385.683,1389.466,space,3.767,,1389.466,36,89,1390.465,1390.465,1390.471,,,,0,47,47,47,1,40,165,,,,,,,,
,,650a6bf9f420db3c591e33b3,65af5674b1b2d753c0180a3a,2024-01-23_17h04.32.737,bars,2023.2.3,Win32,59.95203837,657b66ea316d21385b68909f,,,,,,,,,,,1390.471,1391.465,,,1391.964,1392.215,,157,-23,,,,,,,,,,,,,,,,bars/034.png,bars/mask006.png,,,,,,,,,,,,0,1,,,,,,,2,8,1,7,,,,,,,,,,,1391.465,1391.964,1392.215,1394.897,space,2.668,,1394.897,32,88,1395.896,1395.897,1395.903,,,,0,48,48,48,1,125,65,,,,,,,,
,,650a6bf9f420db3c591e33b3,65af5674b1b2d753c0180a3a,2024-01-23_17h04.32.737,bars,2023.2.3,Win32,59.95203837,657b66ea316d21385b68909f,,,,,,,,,,,1395.903,1396.896,,,1397.396,1397.646,,158,-22,,,,,,,,,,,,,,,,bars/047.png,bars/mask009.png,,,,,,,,,,,,0,1,,,,,,,0,6,0,6,,,,,,,,,,,1396.896,1397.396,1397.646,1400.496,space,2.835,,1400.496,37,88,1401.496,1401.496,1401.501,,,,0,49,49,49,1,15,70,,,,,,,,
,,650a6bf9f420db3c591e33b3,65af5674b1b2d753c0180a3a,2024-01-23_17h04.32.737,bars,2023.2.3,Win32,59.95203837,657b66ea316d21385b68909f,,,,,,,,,,,,,,,,,,,,,,,,,,,,,,,,,,,,,,,,,,,,,,,,,,,,,,,,,,,,,,,,,,,,,,,,,,,,,,,,,,,,,,,,,,,,,1401.501,1460.861,0,2,2,3,1,sequence_tables/blk005.csv
,,650a6bf9f420db3c591e33b3,65af5674b1b2d753c0180a3a,2024-01-23_17h04.32.737,bars,2023.2.3,Win32,59.95203837,657b66ea316d21385b68909f,,,,,,,,,,,1494.546,1495.534,,,1496.034,1496.284,,100,100,,,,,,,,,,,,,,,,bars/042.png,bars/mask007.png,,,,,,,,,,,,1,2,,,,,,,10,7,10,6,,,,,,1460.864,1494.537,space,33.651,,1495.534,1496.034,1496.284,1498.517,space,2.217,,1498.517,45,25,1499.516,1499.516,1499.524,,,,0,0,0,0,1,145,75,,,,,,,,
,,650a6bf9f420db3c591e33b3,65af5674b1b2d753c0180a3a,2024-01-23_17h04.32.737,bars,2023.2.3,Win32,59.95203837,657b66ea316d21385b68909f,,,,,,,,,,,1499.525,1500.516,,,1501.016,1501.266,,81,81,,,,,,,,,,,,,,,,bars/015.png,bars/mask009.png,,,,,,,,,,,,0,1,,,,,,,8,5,5,5,,,,,,,,,,,1500.516,1501.016,1501.266,1504.348,space,3.068,,1504.348,29,79,1505.348,1505.348,1505.356,,,,0,1,1,1,1,110,160,,,,,,,,
,,650a6bf9f420db3c591e33b3,65af5674b1b2d753c0180a3a,2024-01-23_17h04.32.737,bars,2023.2.3,Win32,59.95203837,657b66ea316d21385b68909f,,,,,,,,,,,1505.356,1506.348,,,1506.848,1507.097,,154,-26,,,,,,,,,,,,,,,,bars/010.png,bars/mask007.png,,,,,,,,,,,,6,1,,,,,,,10,3,10,3,,,,,,,,,,,1506.348,1506.847,1507.097,1509.763,space,2.652,,1509.764,11,81,1510.763,1510.763,1510.767,,,,0,2,2,2,1,165,55,,,,,,,,
,,650a6bf9f420db3c591e33b3,65af5674b1b2d753c0180a3a,2024-01-23_17h04.32.737,bars,2023.2.3,Win32,59.95203837,657b66ea316d21385b68909f,,,,,,,,,,,1510.769,1511.763,,,1512.263,1512.512,,9,189,,,,,,,,,,,,,,,,bars/041.png,bars/mask008.png,,,,,,,,,,,,6,1,,,,,,,10,1,10,1,,,,,,,,,,,1511.763,1512.263,1512.512,1514.379,space,1.852,,1514.379,11,76,1515.379,1515.379,1515.383,,,,0,3,3,3,1,20,85,,,,,,,,
,,650a6bf9f420db3c591e33b3,65af5674b1b2d753c0180a3a,2024-01-23_17h04.32.737,bars,2023.2.3,Win32,59.95203837,657b66ea316d21385b68909f,,,,,,,,,,,1515.385,1516.378,,,1516.878,1517.128,,64,64,,,,,,,,,,,,,,,,bars/030.png,bars/mask007.png,,,,,,,,,,,,4,2,,,,,,,8,3,7,4,,,,,,,,,,,1516.378,1516.878,1517.128,1518.095,space,0.951,,1518.095,76,1,1519.094,1519.094,1519.101,,,,0,4,4,4,1,140,65,,,,,,,,
,,650a6bf9f420db3c591e33b3,65af5674b1b2d753c0180a3a,2024-01-23_17h04.32.737,bars,2023.2.3,Win32,59.95203837,657b66ea316d21385b68909f,,,,,,,,,,,1519.101,1520.093,,,1520.594,1520.844,,40,40,,,,,,,,,,,,,,,,bars/034.png,bars/mask007.png,,,,,,,,,,,,1,2,,,,,,,10,5,9,4,,,,,,,,,,,1520.093,1520.593,1520.844,1522.56,space,1.701,,1522.56,85,25,1523.559,1523.559,1523.561,,,,0,5,5,5,1,125,65,,,,,,,,
,,650a6bf9f420db3c591e33b3,65af5674b1b2d753c0180a3a,2024-01-23_17h04.32.737,bars,2023.2.3,Win32,59.95203837,657b66ea316d21385b68909f,,,,,,,,,,,1523.563,1524.561,,,1525.059,1525.309,,22,22,,,,,,,,,,,,,,,,bars/004.png,bars/mask008.png,,,,,,,,,,,,8,1,,,,,,,8,7,9,7,,,,,,,,,,,1524.561,1525.059,1525.309,1528.792,space,3.469,,1528.793,3,77,1529.791,1529.791,1529.8,,,,0,6,6,6,1,25,125,,,,,,,,
,,650a6bf9f420db3c591e33b3,65af5674b1b2d753c0180a3a,2024-01-23_17h04.32.737,bars,2023.2.3,Win32,59.95203837,657b66ea316d21385b68909f,,,,,,,,,,,1529.8,1530.791,,,1531.291,1531.541,,64,64,,,,,,,,,,,,,,,,bars/045.png,bars/mask000.png,,,,,,,,,,,,0,1,,,,,,,6,5,6,4,,,,,,,,,,,1530.791,1531.291,1531.541,1533.606,space,2.051,,1533.607,36,54,1534.606,1534.606,1534.612,,,,0,7,7,7,1,100,10,,,,,,,,
,,650a6bf9f420db3c591e33b3,65af5674b1b2d753c0180a3a,2024-01-23_17h04.32.737,bars,2023.2.3,Win32,59.95203837,657b66ea316d21385b68909f,,,,,,,,,,,1534.612,1535.606,,,1536.106,1536.356,,105,-75,,,,,,,,,,,,,,,,bars/034.png,bars/mask005.png,,,,,,,,,,,,3,1,,,,,,,8,7,9,9,,,,,,,,,,,1535.606,1536.106,1536.356,1540.271,space,3.9,,1540.271,20,40,1541.271,1541.271,1541.277,,,,0,8,8,8,1,125,65,,,,,,,,
,,650a6bf9f420db3c591e33b3,65af5674b1b2d753c0180a3a,2024-01-23_17h04.32.737,bars,2023.2.3,Win32,59.95203837,657b66ea316d21385b68909f,,,,,,,,,,,1541.278,1542.271,,,1542.771,1543.021,,22,202,,,,,,,,,,,,,,,,bars/043.png,bars/mask001.png,,,,,,,,,,,,7,1,,,,,,,10,9,10,9,,,,,,,,,,,1542.271,1542.771,1543.021,1545.32,space,2.284,,1545.32,8,72,1546.32,1546.32,1546.323,,,,0,9,9,9,1,30,130,,,,,,,,
,,650a6bf9f420db3c591e33b3,65af5674b1b2d753c0180a3a,2024-01-23_17h04.32.737,bars,2023.2.3,Win32,59.95203837,657b66ea316d21385b68909f,,,,,,,,,,,1546.325,1547.32,,,1547.819,1548.069,,0,0,,,,,,,,,,,,,,,,bars/023.png,bars/mask008.png,,,,,,,,,,,,3,1,,,,,,,10,10,10,10,,,,,,,,,,,1547.32,1547.819,1548.069,1549.035,space,0.952,,1549.036,20,65,1550.035,1550.035,1550.041,,,,0,10,10,10,1,20,115,,,,,,,,
,,650a6bf9f420db3c591e33b3,65af5674b1b2d753c0180a3a,2024-01-23_17h04.32.737,bars,2023.2.3,Win32,59.95203837,657b66ea316d21385b68909f,,,,,,,,,,,1550.041,1551.035,,,1551.535,1551.784,,61,61,,,,,,,,,,,,,,,,bars/030.png,bars/mask001.png,,,,,,,,,,,,8,2,,,,,,,10,10,10,9,,,,,,,,,,,1551.035,1551.535,1551.784,1552.601,space,0.801,,1552.601,79,4,1553.601,1553.601,1553.608,,,,0,11,11,11,1,140,65,,,,,,,,
,,650a6bf9f420db3c591e33b3,65af5674b1b2d753c0180a3a,2024-01-23_17h04.32.737,bars,2023.2.3,Win32,59.95203837,657b66ea316d21385b68909f,,,,,,,,,,,1553.608,1554.601,,,1555.101,1555.35,,101,101,,,,,,,,,,,,,,,,bars/034.png,bars/mask001.png,,,,,,,,,,,,1,1,,,,,,,8,8,7,9,,,,,,,,,,,1554.601,1555.101,1555.35,1558.466,space,3.104,,1558.466,24,36,1559.465,1559.465,1559.473,,,,0,12,12,12,1,125,65,,,,,,,,
,,650a6bf9f420db3c591e33b3,65af5674b1b2d753c0180a3a,2024-01-23_17h04.32.737,bars,2023.2.3,Win32,59.95203837,657b66ea316d21385b68909f,,,,,,,,,,,1559.473,1560.468,,,1560.966,1561.215,,13,193,,,,,,,,,,,,,,,,bars/024.png,bars/mask003.png,,,,,,,,,,,,2,2,,,,,,,10,10,10,10,,,,,,,,,,,1560.469,1560.966,1561.215,1562.815,space,1.584,,1562.815,73,23,1563.814,1563.815,1563.823,,,,0,13,13,13,1,120,170,,,,,,,,
,,650a6bf9f420db3c591e33b3,65af5674b1b2d753c0180a3a,2024-01-23_17h04.32.737,bars,2023.2.3,Win32,59.95203837,657b66ea316d21385b68909f,,,,,,,,,,,1563.824,1564.815,,,1565.314,1565.569,,55,55,,,,,,,,,,,,,,,,bars/028.png,bars/mask007.png,,,,,,,,,,,,7,1,,,,,,,10,10,10,10,,,,,,,,,,,1564.815,1565.314,1565.569,1568.08,space,2.5,,1568.08,10,65,1569.08,1569.08,1569.087,,,,0,14,14,14,1,45,120,,,,,,,,
,,650a6bf9f420db3c591e33b3,65af5674b1b2d753c0180a3a,2024-01-23_17h04.32.737,bars,2023.2.3,Win32,59.95203837,657b66ea316d21385b68909f,,,,,,,,,,,1569.088,1570.079,,,1570.58,1570.83,,97,97,,,,,,,,,,,,,,,,bars/031.png,bars/mask001.png,,,,,,,,,,,,2,1,,,,,,,8,8,8,8,,,,,,,,,,,1570.079,1570.58,1570.83,1571.562,space,0.718,,1571.562,23,62,1572.562,1572.562,1572.568,,,,0,15,15,15,1,120,35,,,,,,,,
,,650a6bf9f420db3c591e33b3,65af5674b1b2d753c0180a3a,2024-01-23_17h04.32.737,bars,2023.2.3,Win32,59.95203837,657b66ea316d21385b68909f,,,,,,,,,,,1572.568,1573.562,,,1574.062,1574.311,,143,143,,,,,,,,,,,,,,,,bars/014.png,bars/mask004.png,,,,,,,,,,,,0,2,,,,,,,6,10,5,8,,,,,,,,,,,1573.562,1574.062,1574.311,1576.794,space,2.468,,1576.795,63,37,1577.794,1577.795,1577.801,,,,0,16,16,16,1,80,0,,,,,,,,
,,650a6bf9f420db3c591e33b3,65af5674b1b2d753c0180a3a,2024-01-23_17h04.32.737,bars,2023.2.3,Win32,59.95203837,657b66ea316d21385b68909f,,,,,,,,,,,1577.801,1578.794,,,1579.294,1579.544,,99,99,,,,,,,,,,,,,,,,bars/032.png,bars/mask000.png,,,,,,,,,,,,1,1,,,,,,,4,10,5,10,,,,,,,,,,,1578.794,1579.294,1579.544,1581.609,space,2.051,,1581.61,26,79,1582.609,1582.609,1582.616,,,,0,17,17,17,1,125,20,,,,,,,,
,,650a6bf9f420db3c591e33b3,65af5674b1b2d753c0180a3a,2024-01-23_17h04.32.737,bars,2023.2.3,Win32,59.95203837,657b66ea316d21385b68909f,,,,,,,,,,,1582.616,1583.609,,,1584.109,1584.359,,89,89,,,,,,,,,,,,,,,,bars/008.png,bars/mask006.png,,,,,,,,,,,,2,1,,,,,,,6,8,5,9,,,,,,,,,,,1583.609,1584.109,1584.359,1587.224,space,2.852,,1587.224,21,89,1588.224,1588.224,1588.229,,,,0,18,18,18,1,110,0,,,,,,,,
,,650a6bf9f420db3c591e33b3,65af5674b1b2d753c0180a3a,2024-01-23_17h04.32.737,bars,2023.2.3,Win32,59.95203837,657b66ea316d21385b68909f,,,,,,,,,,,1588.23,1589.224,,,1589.724,1589.973,,138,138,,,,,,,,,,,,,,,,bars/021.png,bars/mask009.png,,,,,,,,,,,,4,1,,,,,,,8,10,9,10,,,,,,,,,,,1589.224,1589.724,1589.973,1592.973,space,2.983,,1592.973,17,68,1593.972,1593.972,1593.978,,,,0,19,19,19,1,155,70,,,,,,,,
,,650a6bf9f420db3c591e33b3,65af5674b1b2d753c0180a3a,2024-01-23_17h04.32.737,bars,2023.2.3,Win32,59.95203837,657b66ea316d21385b68909f,,,,,,,,,,,1593.979,1594.976,,,1595.473,1595.722,,168,168,,,,,,,,,,,,,,,,bars/005.png,bars/mask002.png,,,,,,,,,,,,3,1,,,,,,,10,10,10,9,,,,,,,,,,,1594.976,1595.473,1595.722,1598.338,space,2.601,,1598.339,22,28,1599.337,1599.337,1599.344,,,,0,20,20,20,1,10,140,,,,,,,,
,,650a6bf9f420db3c591e33b3,65af5674b1b2d753c0180a3a,2024-01-23_17h04.32.737,bars,2023.2.3,Win32,59.95203837,657b66ea316d21385b68909f,,,,,,,,,,,1599.344,1600.338,,,1600.838,1601.088,,82,82,,,,,,,,,,,,,,,,bars/048.png,bars/mask006.png,,,,,,,,,,,,0,1,,,,,,,10,8,10,8,,,,,,,,,,,1600.338,1600.838,1601.088,1604.308,space,3.208,,1604.308,32,87,1605.303,1605.303,1605.309,,,,0,21,21,21,1,50,175,,,,,,,,
,,650a6bf9f420db3c591e33b3,65af5674b1b2d753c0180a3a,2024-01-23_17h04.32.737,bars,2023.2.3,Win32,59.95203837,657b66ea316d21385b68909f,,,,,,,,,,,1605.309,1606.302,,,1606.802,1607.052,,166,-14,,,,,,,,,,,,,,,,bars/036.png,bars/mask002.png,,,,,,,,,,,,2,1,,,,,,,8,6,8,4,,,,,,,,,,,1606.302,1606.802,1607.053,1609.535,space,2.469,,1609.535,21,34,1610.534,1610.534,1610.539,,,,0,22,22,22,1,145,20,,,,,,,,
,,650a6bf9f420db3c591e33b3,65af5674b1b2d753c0180a3a,2024-01-23_17h04.32.737,bars,2023.2.3,Win32,59.95203837,657b66ea316d21385b68909f,,,,,,,,,,,1610.54,1611.534,,,1612.034,1612.273,,169,-11,,,,,,,,,,,,,,,,bars/017.png,bars/mask003.png,,,,,,,,,,,,1,1,,,,,,,6,4,5,4,,,,,,,,,,,1611.534,1612.034,1612.273,1614.7,space,2.419,,1614.7,24,56,1615.699,1615.699,1615.705,,,,0,23,23,23,1,145,45,,,,,,,,
,,650a6bf9f420db3c591e33b3,65af5674b1b2d753c0180a3a,2024-01-23_17h04.32.737,bars,2023.2.3,Win32,59.95203837,657b66ea316d21385b68909f,,,,,,,,,,,1615.705,1616.7,,,1617.199,1617.449,,0,180,,,,,,,,,,,,,,,,bars/021.png,bars/mask008.png,,,,,,,,,,,,1,1,,,,,,,8,6,8,7,,,,,,,,,,,1616.7,1617.199,1617.449,1620.366,space,2.904,,1620.366,25,70,1621.365,1621.365,1621.369,,,,0,24,24,24,1,155,70,,,,,,,,
,,650a6bf9f420db3c591e33b3,65af5674b1b2d753c0180a3a,2024-01-23_17h04.32.737,bars,2023.2.3,Win32,59.95203837,657b66ea316d21385b68909f,,,,,,,,,,,1621.371,1622.365,,,1622.865,1623.115,,61,61,,,,,,,,,,,,,,,,bars/048.png,bars/mask006.png,,,,,,,,,,,,4,1,,,,,,,6,8,7,7,,,,,,,,,,,1622.365,1622.865,1623.115,1625.297,space,2.169,,1625.297,11,66,1626.297,1626.297,1626.3,,,,0,25,25,25,1,50,175,,,,,,,,
,,650a6bf9f420db3c591e33b3,65af5674b1b2d753c0180a3a,2024-01-23_17h04.32.737,bars,2023.2.3,Win32,59.95203837,657b66ea316d21385b68909f,,,,,,,,,,,1626.302,1627.297,,,1627.796,1628.047,,172,-8,,,,,,,,,,,,,,,,bars/017.png,bars/mask001.png,,,,,,,,,,,,1,1,,,,,,,8,10,8,10,,,,,,,,,,,1627.297,1627.796,1628.047,1631.014,space,2.95,,1631.016,27,53,1632.011,1632.011,1632.018,,,,0,26,26,26,1,145,45,,,,,,,,
,,650a6bf9f420db3c591e33b3,65af5674b1b2d753c0180a3a,2024-01-23_17h04.32.737,bars,2023.2.3,Win32,59.95203837,657b66ea316d21385b68909f,,,,,,,,,,,1632.019,1633.012,,,1633.511,1633.761,,105,105,,,,,,,,,,,,,,,,bars/040.png,bars/mask007.png,,,,,,,,,,,,0,1,,,,,,,6,10,6,10,,,,,,,,,,,1633.012,1633.511,1633.761,1636.161,space,2.386,,1636.161,35,80,1637.161,1637.161,1637.166,,,,0,27,27,27,1,140,5,,,,,,,,
,,650a6bf9f420db3c591e33b3,65af5674b1b2d753c0180a3a,2024-01-23_17h04.32.737,bars,2023.2.3,Win32,59.95203837,657b66ea316d21385b68909f,,,,,,,,,,,1637.167,1638.16,,,1638.66,1638.91,,63,63,,,,,,,,,,,,,,,,bars/003.png,bars/mask002.png,,,,,,,,,,,,0,1,,,,,,,8,10,9,10,,,,,,,,,,,1638.16,1638.66,1638.91,1642.176,space,3.25,,1642.176,38,77,1643.176,1643.176,1643.181,,,,0,28,28,28,1,25,140,,,,,,,,
,,650a6bf9f420db3c591e33b3,65af5674b1b2d753c0180a3a,2024-01-23_17h04.32.737,bars,2023.2.3,Win32,59.95203837,657b66ea316d21385b68909f,,,,,,,,,,,1643.182,1644.175,,,1644.675,1644.924,,125,125,,,,,,,,,,,,,,,,bars/045.png,bars/mask004.png,,,,,,,,,,,,2,1,,,,,,,10,10,10,10,,,,,,,,,,,1644.175,1644.675,1644.924,1645.842,space,0.904,,1645.843,25,65,1646.841,1646.841,1646.845,,,,0,29,29,29,1,100,10,,,,,,,,
,,650a6bf9f420db3c591e33b3,65af5674b1b2d753c0180a3a,2024-01-23_17h04.32.737,bars,2023.2.3,Win32,59.95203837,657b66ea316d21385b68909f,,,,,,,,,,,1646.847,1647.841,,,1648.34,1648.59,,104,104,,,,,,,,,,,,,,,,bars/024.png,bars/mask005.png,,,,,,,,,,,,4,1,,,,,,,8,8,9,7,,,,,,,,,,,1647.841,1648.34,1648.59,1651.142,space,2.54,,1651.143,16,66,1652.139,1652.139,1652.143,,,,0,30,30,30,1,120,170,,,,,,,,
,,650a6bf9f420db3c591e33b3,65af5674b1b2d753c0180a3a,2024-01-23_17h04.32.737,bars,2023.2.3,Win32,59.95203837,657b66ea316d21385b68909f,,,,,,,,,,,1652.145,1653.138,,,1653.639,1653.888,,72,72,,,,,,,,,,,,,,,,bars/026.png,bars/mask008.png,,,,,,,,,,,,5,2,,,,,,,10,6,8,8,,,,,,,,,,,1653.138,1653.639,1653.888,1654.539,space,0.638,,1654.539,37,13,1655.538,1655.538,1655.545,,,,0,31,31,31,1,35,85,,,,,,,,
,,650a6bf9f420db3c591e33b3,65af5674b1b2d753c0180a3a,2024-01-23_17h04.32.737,bars,2023.2.3,Win32,59.95203837,657b66ea316d21385b68909f,,,,,,,,,,,1655.546,1656.538,,,1657.038,1657.288,,68,68,,,,,,,,,,,,,,,,bars/004.png,bars/mask002.png,,,,,,,,,,,,0,1,,,,,,,10,8,10,9,,,,,,,,,,,1656.538,1657.038,1657.288,1660.121,space,2.818,,1660.121,43,57,1661.12,1661.12,1661.127,,,,0,32,32,32,1,25,125,,,,,,,,
,,650a6bf9f420db3c591e33b3,65af5674b1b2d753c0180a3a,2024-01-23_17h04.32.737,bars,2023.2.3,Win32,59.95203837,657b66ea316d21385b68909f,,,,,,,,,,,1661.127,1662.12,,,1662.619,1662.87,,101,101,,,,,,,,,,,,,,,,bars/015.png,bars/mask001.png,,,,,,,,,,,,7,1,,,,,,,10,10,10,10,,,,,,,,,,,1662.12,1662.619,1662.87,1666.819,space,3.935,,1666.821,9,59,1667.818,1667.818,1667.825,,,,0,33,33,33,1,110,160,,,,,,,,
,,650a6bf9f420db3c591e33b3,65af5674b1b2d753c0180a3a,2024-01-23_17h04.32.737,bars,2023.2.3,Win32,59.95203837,657b66ea316d21385b68909f,,,,,,,,,,,1667.826,1668.818,,,1669.318,1669.568,,141,141,,,,,,,,,,,,,,,,bars/040.png,bars/mask000.png,,,,,,,,,,,,7,1,,,,,,,8,8,7,9,,,,,,,,,,,1668.818,1669.318,1669.568,1670.468,space,0.884,,1670.468,1,44,1671.468,1671.468,1671.473,,,,0,34,34,34,1,140,5,,,,,,,,
,,650a6bf9f420db3c591e33b3,65af5674b1b2d753c0180a3a,2024-01-23_17h04.32.737,bars,2023.2.3,Win32,59.95203837,657b66ea316d21385b68909f,,,,,,,,,,,1671.473,1672.467,,,1672.967,1673.217,,141,141,,,,,,,,,,,,,,,,bars/036.png,bars/mask009.png,,,,,,,,,,,,5,1,,,,,,,6,10,6,9,,,,,,,,,,,1672.467,1672.967,1673.217,1676.815,space,3.583,,1676.816,4,59,1677.815,1677.815,1677.821,,,,0,35,35,35,1,145,20,,,,,,,,
,,650a6bf9f420db3c591e33b3,65af5674b1b2d753c0180a3a,2024-01-23_17h04.32.737,bars,2023.2.3,Win32,59.95203837,657b66ea316d21385b68909f,,,,,,,,,,,1677.821,1678.815,,,1679.315,1679.565,,20,20,,,,,,,,,,,,,,,,bars/006.png,bars/mask002.png,,,,,,,,,,,,2,1,,,,,,,4,8,3,6,,,,,,,,,,,1678.815,1679.315,1679.565,1681.547,space,1.967,,1681.547,15,80,1682.547,1682.547,1682.553,,,,0,36,36,36,1,35,100,,,,,,,,
,,650a6bf9f420db3c591e33b3,65af5674b1b2d753c0180a3a,2024-01-23_17h04.32.737,bars,2023.2.3,Win32,59.95203837,657b66ea316d21385b68909f,,,,,,,,,,,1682.553,1683.547,,,1684.047,1684.297,,158,-22,,,,,,,,,,,,,,,,bars/010.png,bars/mask008.png,,,,,,,,,,,,5,1,,,,,,,6,10,6,10,,,,,,,,,,,1683.547,1684.047,1684.297,1687.096,space,2.782,,1687.096,7,77,1688.096,1688.096,1688.098,,,,0,37,37,37,1,165,55,,,,,,,,
,,650a6bf9f420db3c591e33b3,65af5674b1b2d753c0180a3a,2024-01-23_17h04.32.737,bars,2023.2.3,Win32,59.95203837,657b66ea316d21385b68909f,,,,,,,,,,,1688.1,1689.098,,,1689.595,1689.845,,165,-15,,,,,,,,,,,,,,,,bars/021.png,bars/mask008.png,,,,,,,,,,,,7,1,,,,,,,8,10,10,10,,,,,,,,,,,1689.098,1689.595,1689.845,1693.294,space,3.434,,1693.294,10,85,1694.294,1694.294,1694.299,,,,0,38,38,38,1,155,70,,,,,,,,
,,650a6bf9f420db3c591e33b3,65af5674b1b2d753c0180a3a,2024-01-23_17h04.32.737,bars,2023.2.3,Win32,59.95203837,657b66ea316d21385b68909f,,,,,,,,,,,1694.3,1695.294,,,1695.794,1696.043,,127,-53,,,,,,,,,,,,,,,,bars/008.png,bars/mask000.png,,,,,,,,,,,,4,1,,,,,,,10,8,9,7,,,,,,,,,,,1695.294,1695.794,1696.043,1699.026,space,2.967,,1699.026,17,53,1700.028,1700.029,1700.034,,,,0,39,39,39,1,110,0,,,,,,,,
,,650a6bf9f420db3c591e33b3,65af5674b1b2d753c0180a3a,2024-01-23_17h04.32.737,bars,2023.2.3,Win32,59.95203837,657b66ea316d21385b68909f,,,,,,,,,,,1700.034,1701.025,,,1701.526,1701.775,,6,6,,,,,,,,,,,,,,,,bars/017.png,bars/mask007.png,,,,,,,,,,,,0,2,,,,,,,10,6,9,5,,,,,,,,,,,1701.025,1701.525,1701.775,1704.16,space,2.371,,1704.161,41,39,1705.158,1705.158,1705.165,,,,0,40,40,40,1,145,45,,,,,,,,
,,650a6bf9f420db3c591e33b3,65af5674b1b2d753c0180a3a,2024-01-23_17h04.32.737,bars,2023.2.3,Win32,59.95203837,657b66ea316d21385b68909f,,,,,,,,,,,1705.166,1706.157,,,1706.657,1706.907,,155,-25,,,,,,,,,,,,,,,,bars/018.png,bars/mask008.png,,,,,,,,,,,,8,1,,,,,,,10,4,9,5,,,,,,,,,,,1706.157,1706.657,1706.907,1709.14,space,2.218,,1709.14,5,65,1710.139,1710.139,1710.148,,,,0,41,41,41,1,150,90,,,,,,,,
,,650a6bf9f420db3c591e33b3,65af5674b1b2d753c0180a3a,2024-01-23_17h04.32.737,bars,2023.2.3,Win32,59.95203837,657b66ea316d21385b68909f,,,,,,,,,,,1710.148,1711.139,,,1711.639,1711.878,,24,24,,,,,,,,,,,,,,,,bars/035.png,bars/mask003.png,,,,,,,,,,,,0,1,,,,,,,8,2,10,2,,,,,,,,,,,1711.139,1711.639,1711.878,1714.155,space,2.266,,1714.155,29,36,1715.155,1715.155,1715.16,,,,0,42,42,42,1,175,60,,,,,,,,
,,650a6bf9f420db3c591e33b3,65af5674b1b2d753c0180a3a,2024-01-23_17h04.32.737,bars,2023.2.3,Win32,59.95203837,657b66ea316d21385b68909f,,,,,,,,,,,1715.16,1716.162,,,1716.654,1716.904,,39,39,,,,,,,,,,,,,,,,bars/019.png,bars/mask000.png,,,,,,,,,,,,5,1,,,,,,,6,4,6,3,,,,,,,,,,,1716.162,1716.654,1716.904,1717.654,space,0.737,,1717.654,6,66,1718.653,1718.653,1718.659,,,,0,43,43,43,1,45,105,,,,,,,,
,,650a6bf9f420db3c591e33b3,65af5674b1b2d753c0180a3a,2024-01-23_17h04.32.737,bars,2023.2.3,Win32,59.95203837,657b66ea316d21385b68909f,,,,,,,,,,,1718.659,1719.653,,,1720.154,1720.404,,73,253,,,,,,,,,,,,,,,,bars/012.png,bars/mask006.png,,,,,,,,,,,,2,1,,,,,,,4,2,4,4,,,,,,,,,,,1719.653,1720.154,1720.404,1724.102,space,3.688,,1724.102,17,58,1725.102,1725.102,1725.107,,,,0,44,44,44,1,90,15,,,,,,,,
,,650a6bf9f420db3c591e33b3,65af5674b1b2d753c0180a3a,2024-01-23_17h04.32.737,bars,2023.2.3,Win32,59.95203837,657b66ea316d21385b68909f,,,,,,,,,,,1725.107,1726.101,,,1726.602,1726.851,,105,105,,,,,,,,,,,,,,,,bars/025.png,bars/mask009.png,,,,,,,,,,,,2,1,,,,,,,2,0,2,2,,,,,,,,,,,1726.101,1726.602,1726.851,1729.417,space,2.552,,1729.417,0,65,1730.417,1730.417,1730.421,,,,0,45,45,45,1,105,40,,,,,,,,
,,650a6bf9f420db3c591e33b3,65af5674b1b2d753c0180a3a,2024-01-23_17h04.32.737,bars,2023.2.3,Win32,59.95203837,657b66ea316d21385b68909f,,,,,,,,,,,1730.422,1731.417,,,1731.916,1732.166,,74,74,,,,,,,,,,,,,,,,bars/027.png,bars/mask004.png,,,,,,,,,,,,0,2,,,,,,,4,0,5,0,,,,,,,,,,,1731.417,1731.916,1732.166,1735.099,space,2.918,,1735.099,36,24,1736.101,1736.101,1736.111,,,,0,46,46,46,1,110,50,,,,,,,,
,,650a6bf9f420db3c591e33b3,65af5674b1b2d753c0180a3a,2024-01-23_17h04.32.737,bars,2023.2.3,Win32,59.95203837,657b66ea316d21385b68909f,,,,,,,,,,,1736.111,1737.115,,,1737.615,1737.864,,43,43,,,,,,,,,,,,,,,,bars/022.png,bars/mask007.png,,,,,,,,,,,,1,2,,,,,,,2,2,3,3,,,,,,,,,,,1737.116,1737.615,1737.864,1742.397,space,4.515,,1742.397,52,23,1743.396,1743.397,1743.402,,,,0,47,47,47,1,95,20,,,,,,,,
,,650a6bf9f420db3c591e33b3,65af5674b1b2d753c0180a3a,2024-01-23_17h04.32.737,bars,2023.2.3,Win32,59.95203837,657b66ea316d21385b68909f,,,,,,,,,,,1743.402,1744.396,,,1744.897,1745.146,,99,99,,,,,,,,,,,,,,,,bars/025.png,bars/mask002.png,,,,,,,,,,,,0,1,,,,,,,0,4,0,3,,,,,,,,,,,1744.396,1744.896,1745.146,1748.929,space,3.766,,1748.929,6,59,1749.928,1749.928,1749.935,,,,0,48,48,48,1,105,40,,,,,,,,
,,650a6bf9f420db3c591e33b3,65af5674b1b2d753c0180a3a,2024-01-23_17h04.32.737,bars,2023.2.3,Win32,59.95203837,657b66ea316d21385b68909f,,,,,,,,,,,1749.936,1750.927,,,1751.428,1751.678,,80,80,,,,,,,,,,,,,,,,bars/039.png,bars/mask006.png,,,,,,,,,,,,0,2,,,,,,,0,2,1,2,,,,,,,,,,,1750.927,1751.428,1751.678,1754.026,space,2.333,,1754.026,85,25,1755.027,1755.027,1755.034,,,,0,49,49,49,1,175,105,,,,,,,,
,,650a6bf9f420db3c591e33b3,65af5674b1b2d753c0180a3a,2024-01-23_17h04.32.737,bars,2023.2.3,Win32,59.95203837,657b66ea316d21385b68909f,,,,,,,,,,,,,,,,,,,,,,,,,,,,,,,,,,,,,,,,,,,,,,,,,,,,,,,,,,,,,,,,,,,,,,,,,,,,,,,,,,,,,,,,,,,,,1755.035,1823.189,0,3,3,2,1,sequence_tables/blk039.csv
,,650a6bf9f420db3c591e33b3,65af5674b1b2d753c0180a3a,2024-01-23_17h04.32.737,bars,2023.2.3,Win32,59.95203837,657b66ea316d21385b68909f,,,,,,,,,,,1901.828,1902.832,,,1903.331,1903.582,,98,98,,,,,,,,,,,,,,,,bars/012.png,bars/mask009.png,,,,,,,,,,,,1,1,,,,,,,3,3,2,3,,,,,,1823.192,1901.819,space,78.606,,1902.832,1903.331,1903.582,1906.881,space,3.284,,1906.881,8,83,1907.88,1907.881,1907.888,,,,0,0,0,0,1,90,15,,,,,,,,
,,650a6bf9f420db3c591e33b3,65af5674b1b2d753c0180a3a,2024-01-23_17h04.32.737,bars,2023.2.3,Win32,59.95203837,657b66ea316d21385b68909f,,,,,,,,,,,1907.889,1908.88,,,1909.381,1909.63,,98,98,,,,,,,,,,,,,,,,bars/018.png,bars/mask005.png,,,,,,,,,,,,1,2,,,,,,,1,1,1,2,,,,,,,,,,,1908.88,1909.38,1909.63,1911.046,space,1.402,,1911.047,52,8,1912.046,1912.046,1912.054,,,,0,1,1,1,1,150,90,,,,,,,,
,,650a6bf9f420db3c591e33b3,65af5674b1b2d753c0180a3a,2024-01-23_17h04.32.737,bars,2023.2.3,Win32,59.95203837,657b66ea316d21385b68909f,,,,,,,,,,,1912.055,1913.045,,,1913.546,1913.795,,67,247,,,,,,,,,,,,,,,,bars/048.png,bars/mask004.png,,,,,,,,,,,,2,1,,,,,,,3,0,4,0,,,,,,,,,,,1913.045,1913.546,1913.795,1917.711,space,3.9,,1917.711,17,72,1918.711,1918.711,1918.717,,,,0,2,2,2,1,50,175,,,,,,,,
,,650a6bf9f420db3c591e33b3,65af5674b1b2d753c0180a3a,2024-01-23_17h04.32.737,bars,2023.2.3,Win32,59.95203837,657b66ea316d21385b68909f,,,,,,,,,,,1918.718,1919.71,,,1920.21,1920.46,,76,76,,,,,,,,,,,,,,,,bars/014.png,bars/mask009.png,,,,,,,,,,,,0,1,,,,,,,1,2,0,4,,,,,,,,,,,1919.711,1920.21,1920.461,1922.409,space,1.935,,1922.409,4,76,1923.409,1923.409,1923.415,,,,0,3,3,3,1,80,0,,,,,,,,
,,650a6bf9f420db3c591e33b3,65af5674b1b2d753c0180a3a,2024-01-23_17h04.32.737,bars,2023.2.3,Win32,59.95203837,657b66ea316d21385b68909f,,,,,,,,,,,1923.415,1924.409,,,1924.909,1925.159,,83,83,,,,,,,,,,,,,,,,bars/015.png,bars/mask002.png,,,,,,,,,,,,0,1,,,,,,,3,4,4,4,,,,,,,,,,,1924.409,1924.909,1925.159,1926.109,space,0.935,,1926.109,27,77,1927.108,1927.108,1927.111,,,,0,4,4,4,1,110,160,,,,,,,,
,,650a6bf9f420db3c591e33b3,65af5674b1b2d753c0180a3a,2024-01-23_17h04.32.737,bars,2023.2.3,Win32,59.95203837,657b66ea316d21385b68909f,,,,,,,,,,,1927.112,1928.108,,,1928.608,1928.861,,107,107,,,,,,,,,,,,,,,,bars/025.png,bars/mask006.png,,,,,,,,,,,,2,1,,,,,,,1,6,2,6,,,,,,,,,,,1928.108,1928.608,1928.862,1930.458,space,1.583,,1930.459,2,67,1931.457,1931.457,1931.464,,,,0,5,5,5,1,105,40,,,,,,,,
,,650a6bf9f420db3c591e33b3,65af5674b1b2d753c0180a3a,2024-01-23_17h04.32.737,bars,2023.2.3,Win32,59.95203837,657b66ea316d21385b68909f,,,,,,,,,,,1931.465,1932.457,,,1932.957,1933.207,,79,79,,,,,,,,,,,,,,,,bars/039.png,bars/mask007.png,,,,,,,,,,,,1,2,,,,,,,0,8,0,6,,,,,,,,,,,1932.457,1932.957,1933.207,1933.807,space,0.584,,1933.807,84,26,1934.806,1934.806,1934.815,,,,0,6,6,6,1,175,105,,,,,,,,
,,650a6bf9f420db3c591e33b3,65af5674b1b2d753c0180a3a,2024-01-23_17h04.32.737,bars,2023.2.3,Win32,59.95203837,657b66ea316d21385b68909f,,,,,,,,,,,1934.815,1935.806,,,1936.306,1936.556,,113,113,,,,,,,,,,,,,,,,bars/000.png,bars/mask001.png,,,,,,,,,,,,0,2,,,,,,,0,6,0,6,,,,,,,,,,,1935.806,1936.306,1936.556,1937.622,space,1.05,,1937.623,73,32,1938.622,1938.622,1938.628,,,,0,7,7,7,1,40,145,,,,,,,,
,,650a6bf9f420db3c591e33b3,65af5674b1b2d753c0180a3a,2024-01-23_17h04.32.737,bars,2023.2.3,Win32,59.95203837,657b66ea316d21385b68909f,,,,,,,,,,,1938.628,1939.621,,,1940.121,1940.371,,148,148,,,,,,,,,,,,,,,,bars/040.png,bars/mask003.png,,,,,,,,,,,,1,1,,,,,,,2,4,1,4,,,,,,,,,,,1939.621,1940.121,1940.371,1941.921,space,1.534,,1941.921,8,37,1942.921,1942.921,1942.927,,,,0,8,8,8,1,140,5,,,,,,,,
,,650a6bf9f420db3c591e33b3,65af5674b1b2d753c0180a3a,2024-01-23_17h04.32.737,bars,2023.2.3,Win32,59.95203837,657b66ea316d21385b68909f,,,,,,,,,,,1942.927,1943.92,,,1944.42,1944.67,,111,111,,,,,,,,,,,,,,,,bars/030.png,bars/mask005.png,,,,,,,,,,,,0,1,,,,,,,4,6,3,6,,,,,,,,,,,1943.92,1944.42,1944.67,1946.405,space,1.723,,1946.405,29,46,1947.402,1947.402,1947.407,,,,0,9,9,9,1,140,65,,,,,,,,
,,650a6bf9f420db3c591e33b3,65af5674b1b2d753c0180a3a,2024-01-23_17h04.32.737,bars,2023.2.3,Win32,59.95203837,657b66ea316d21385b68909f,,,,,,,,,,,1947.408,1948.402,,,1948.902,1949.151,,96,96,,,,,,,,,,,,,,,,bars/022.png,bars/mask000.png,,,,,,,,,,,,7,1,,,,,,,6,8,7,9,,,,,,,,,,,1948.402,1948.902,1949.152,1951.151,space,1.983,,1951.152,1,76,1952.151,1952.151,1952.154,,,,0,10,10,10,1,95,20,,,,,,,,
,,650a6bf9f420db3c591e33b3,65af5674b1b2d753c0180a3a,2024-01-23_17h04.32.737,bars,2023.2.3,Win32,59.95203837,657b66ea316d21385b68909f,,,,,,,,,,,1952.155,1953.151,,,1953.651,1953.9,,128,128,,,,,,,,,,,,,,,,bars/011.png,bars/mask005.png,,,,,,,,,,,,0,1,,,,,,,4,6,4,5,,,,,,,,,,,1953.151,1953.651,1953.9,1957.25,space,3.335,,1957.25,32,43,1958.259,1958.259,1958.26,,,,0,11,11,11,1,160,85,,,,,,,,
,,650a6bf9f420db3c591e33b3,65af5674b1b2d753c0180a3a,2024-01-23_17h04.32.737,bars,2023.2.3,Win32,59.95203837,657b66ea316d21385b68909f,,,,,,,,,,,1958.26,1959.249,,,1959.749,1959.999,,74,74,,,,,,,,,,,,,,,,bars/029.png,bars/mask001.png,,,,,,,,,,,,1,1,,,,,,,2,8,2,9,,,,,,,,,,,1959.249,1959.749,1959.999,1961.499,space,1.485,,1961.499,16,29,1962.498,1962.498,1962.501,,,,0,12,12,12,1,90,45,,,,,,,,
,,650a6bf9f420db3c591e33b3,65af5674b1b2d753c0180a3a,2024-01-23_17h04.32.737,bars,2023.2.3,Win32,59.95203837,657b66ea316d21385b68909f,,,,,,,,,,,1962.503,1963.498,,,1963.998,1964.248,,165,165,,,,,,,,,,,,,,,,bars/007.png,bars/mask000.png,,,,,,,,,,,,1,1,,,,,,,0,10,1,9,,,,,,,,,,,1963.498,1963.998,1964.248,1967.098,space,2.834,,1967.099,10,70,1968.097,1968.097,1968.106,,,,0,13,13,13,1,175,55,,,,,,,,
,,650a6bf9f420db3c591e33b3,65af5674b1b2d753c0180a3a,2024-01-23_17h04.32.737,bars,2023.2.3,Win32,59.95203837,657b66ea316d21385b68909f,,,,,,,,,,,1968.106,1969.097,,,1969.596,1969.846,,34,34,,,,,,,,,,,,,,,,bars/005.png,bars/mask001.png,,,,,,,,,,,,0,1,,,,,,,2,10,1,10,,,,,,,,,,,1969.097,1969.596,1969.846,1972.178,space,2.316,,1972.179,24,74,1973.179,1973.179,1973.185,,,,0,14,14,14,1,10,140,,,,,,,,
,,650a6bf9f420db3c591e33b3,65af5674b1b2d753c0180a3a,2024-01-23_17h04.32.737,bars,2023.2.3,Win32,59.95203837,657b66ea316d21385b68909f,,,,,,,,,,,1973.185,1974.178,,,1974.678,1974.927,,64,64,,,,,,,,,,,,,,,,bars/025.png,bars/mask009.png,,,,,,,,,,,,2,2,,,,,,,0,8,0,8,,,,,,,,,,,1974.178,1974.678,1974.928,1976.377,space,1.434,,1976.377,41,24,1977.377,1977.377,1977.385,,,,0,15,15,15,1,105,40,,,,,,,,
,,650a6bf9f420db3c591e33b3,65af5674b1b2d753c0180a3a,2024-01-23_17h04.32.737,bars,2023.2.3,Win32,59.95203837,657b66ea316d21385b68909f,,,,,,,,,,,1977.386,1978.376,,,1978.877,1979.127,,19,19,,,,,,,,,,,,,,,,bars/024.png,bars/mask005.png,,,,,,,,,,,,0,2,,,,,,,0,10,1,8,,,,,,,,,,,1978.376,1978.877,1979.127,1982.742,space,3.6,,1982.742,79,29,1983.742,1983.742,1983.748,,,,0,16,16,16,1,120,170,,,,,,,,
,,650a6bf9f420db3c591e33b3,65af5674b1b2d753c0180a3a,2024-01-23_17h04.32.737,bars,2023.2.3,Win32,59.95203837,657b66ea316d21385b68909f,,,,,,,,,,,1983.748,1984.742,,,1985.241,1985.491,,9,189,,,,,,,,,,,,,,,,bars/040.png,bars/mask000.png,,,,,,,,,,,,8,2,,,,,,,0,10,0,9,,,,,,,,,,,1984.742,1985.241,1985.491,1987.708,space,2.204,,1987.708,49,4,1988.707,1988.707,1988.712,,,,0,17,17,17,1,140,5,,,,,,,,
,,650a6bf9f420db3c591e33b3,65af5674b1b2d753c0180a3a,2024-01-23_17h04.32.737,bars,2023.2.3,Win32,59.95203837,657b66ea316d21385b68909f,,,,,,,,,,,1988.713,1989.707,,,1990.207,1990.457,,92,92,,,,,,,,,,,,,,,,bars/018.png,bars/mask003.png,,,,,,,,,,,,9,2,,,,,,,2,10,2,10,,,,,,,,,,,1989.707,1990.207,1990.457,1994.556,space,4.086,,1994.556,58,2,1995.556,1995.556,1995.56,,,,0,18,18,18,1,150,90,,,,,,,,
,,650a6bf9f420db3c591e33b3,65af5674b1b2d753c0180a3a,2024-01-23_17h04.32.737,bars,2023.2.3,Win32,59.95203837,657b66ea316d21385b68909f,,,,,,,,,,,1995.562,1996.556,,,1997.055,1997.305,,82,82,,,,,,,,,,,,,,,,bars/027.png,bars/mask001.png,,,,,,,,,,,,0,1,,,,,,,4,8,5,8,,,,,,,,,,,1996.556,1997.055,1997.305,2000.094,space,2.777,,2000.094,28,32,2001.088,2001.088,2001.096,,,,0,19,19,19,1,110,50,,,,,,,,
