init_variables.started,init_variables.stopped,participant,session,date,expName,psychopyVersion,OS,frameRate,study_id,instruction_exp.started,instruction_exp.stopped,key_resp_8.keys,key_resp_8.rt,key_resp_8.duration,instruction_single.started,instruction_single.stopped,key_resp_2.keys,key_resp_2.rt,key_resp_2.duration,interval.started,interval.stopped,cue_single.started,cue_single.stopped,mask.started,mask.stopped,ori_response_single.started,res_ori,res,ori_response_single.stopped,key_resp_single.keys,key_resp_single.rt,key_resp_single.duration,disp_single.started,disp_single.stopped,key_resp.keys,key_resp.rt,key_resp.duration,single.thisRepN,single.thisTrialN,single.thisN,single.thisIndex,single.ran,ori,path,mask_path,instruction_bandit.started,instruction_bandit.stopped,key_resp_6.keys,key_resp_6.rt,key_resp_6.duration,cue_bandit.started,cue_bandit.stopped,bandit_res.keys,bandit_res.rt,bandit_res.duration,outcome_bandit.started,rew,action,outcome_bandit.stopped,bandit.thisRepN,bandit.thisTrialN,bandit.thisN,bandit.thisIndex,bandit.ran,actual_rew1,actual_rew2,rew1,rew2,instruction_task.started,instruction_task.stopped,key_resp_7.keys,key_resp_7.rt,key_resp_7.duration,wait_ready.started,wait_ready.stopped,key_resp_3.keys,key_resp_3.rt,key_resp_3.duration,cue.started,cue.stopped,ori_response.started,ori_response.stopped,key_resp_5.keys,key_resp_5.rt,key_resp_5.duration,outcome.started,diff1,diff2,outcome.stopped,disp_outcome_practice.started,disp_outcome_practice.stopped,key_resp_4.keys,key_resp_4.rt,key_resp_4.duration,trials.thisRepN,trials.thisTrialN,trials.thisN,trials.thisIndex,trials.ran,ori1,ori2,break_blk.started,break_blk.stopped,block.thisRepN,block.thisTrialN,block.thisN,block.thisIndex,block.ran,condition_file
1E-04,0.0002,5c55c7cb9b583c000159f790,65af55d03505e22b54cd2196,2024-01-23_07h00.44.044,bars,2023.2.3,Win32,59.88023952,657b66ea316d21385b68909f,,,,,,,,,,,,,,,,,,,,,,,,,,,,,,,,,,,,,,,,,,,,,,,,,,,,,,,,,,,,,,,,,,,,,,,,,,,,,,,,,,,,,,,,,,,,,,,,,,,,
,,5c55c7cb9b583c000159f790,65af55d03505e22b54cd2196,2024-01-23_07h00.44.044,bars,2023.2.3,Win32,59.88023952,657b66ea316d21385b68909f,0.0003,12.7934,y,12.7851,,,,,,,,,,,,,,,,,,,,,,,,,,,,,,,,,,,,,,,,,,,,,,,,,,,,,,,,,,,,,,,,,,,,,,,,,,,,,,,,,,,,,,,,,,,,,,,,
,,5c55c7cb9b583c000159f790,65af55d03505e22b54cd2196,2024-01-23_07h00.44.044,bars,2023.2.3,Win32,59.88023952,657b66ea316d21385b68909f,,,,,,12.7935,74.854,space,62.0461,,,,,,,,,,,,,,,,,,,,,,,,,,,,,,,,,,,,,,,,,,,,,,,,,,,,,,,,,,,,,,,,,,,,,,,,,,,,,,,,,,,,,,,,,,,
,,5c55c7cb9b583c000159f790,65af55d03505e22b54cd2196,2024-01-23_07h00.44.044,bars,2023.2.3,Win32,59.88023952,657b66ea316d21385b68909f,,,,,,,,,,,74.8574,75.8539,75.854,76.3539,76.354,76.6038,76.604,91,91,95.9525,space,19.3272,,95.9526,117.2495,space,21.2832,,0,0,0,3,1,20,bars/single003.png,bars/mask005.png,,,,,,,,,,,,,,,,,,,,,,,,,,,,,,,,,,,,,,,,,,,,,,,,,,,,,,,,,,,,,,,,
,,5c55c7cb9b583c000159f790,65af55d03505e22b54cd2196,2024-01-23_07h00.44.044,bars,2023.2.3,Win32,59.88023952,657b66ea316d21385b68909f,,,,,,,,,,,117.2556,118.2493,118.2494,118.7488,118.7489,118.9991,118.9991,114,114,122.8156,space,3.7997,,122.8156,133.6309,space,10.7969,,0,1,1,9,1,20,bars/single009.png,bars/mask006.png,,,,,,,,,,,,,,,,,,,,,,,,,,,,,,,,,,,,,,,,,,,,,,,,,,,,,,,,,,,,,,,,
,,5c55c7cb9b583c000159f790,65af55d03505e22b54cd2196,2024-01-23_07h00.44.044,bars,2023.2.3,Win32,59.88023952,657b66ea316d21385b68909f,,,,,,,,,,,133.6372,134.631,134.631,135.1309,135.1309,135.3813,135.3814,165,165,139.3805,space,3.9862,,139.3805,147.2298,space,7.8254,,0,2,2,8,1,160,bars/single008.png,bars/mask004.png,,,,,,,,,,,,,,,,,,,,,,,,,,,,,,,,,,,,,,,,,,,,,,,,,,,,,,,,,,,,,,,,
,,5c55c7cb9b583c000159f790,65af55d03505e22b54cd2196,2024-01-23_07h00.44.044,bars,2023.2.3,Win32,59.88023952,657b66ea316d21385b68909f,,,,,,,,,,,147.2359,148.2295,148.2295,148.7294,148.7294,148.9793,148.9794,179,-1,156.0619,space,7.0663,,156.0619,161.2278,space,5.1498,,0,3,3,4,1,95,bars/single004.png,bars/mask004.png,,,,,,,,,,,,,,,,,,,,,,,,,,,,,,,,,,,,,,,,,,,,,,,,,,,,,,,,,,,,,,,,
,,5c55c7cb9b583c000159f790,65af55d03505e22b54cd2196,2024-01-23_07h00.44.044,bars,2023.2.3,Win32,59.88023952,657b66ea316d21385b68909f,,,,,,,,,,,161.2338,162.228,162.2281,162.7279,162.728,162.9779,162.9779,120,120,165.6608,space,2.6723,,165.6608,172.4771,space,6.792,,0,4,4,2,1,145,bars/single002.png,bars/mask003.png,,,,,,,,,,,,,,,,,,,,,,,,,,,,,,,,,,,,,,,,,,,,,,,,,,,,,,,,,,,,,,,,
,,5c55c7cb9b583c000159f790,65af55d03505e22b54cd2196,2024-01-23_07h00.44.044,bars,2023.2.3,Win32,59.88023952,657b66ea316d21385b68909f,,,,,,,,,,,172.483,173.4767,173.4768,173.9767,173.9767,174.2268,174.2269,143,143,179.2929,space,5.0525,,179.293,182.2423,space,2.937,,0,5,5,6,1,175,bars/single006.png,bars/mask005.png,,,,,,,,,,,,,,,,,,,,,,,,,,,,,,,,,,,,,,,,,,,,,,,,,,,,,,,,,,,,,,,,
,,5c55c7cb9b583c000159f790,65af55d03505e22b54cd2196,2024-01-23_07h00.44.044,bars,2023.2.3,Win32,59.88023952,657b66ea316d21385b68909f,,,,,,,,,,,182.2482,183.2422,183.2422,183.7424,183.7424,183.9922,183.9922,31,31,189.3083,space,5.3058,,189.3083,192.7913,space,3.4631,,0,6,6,5,1,55,bars/single005.png,bars/mask008.png,,,,,,,,,,,,,,,,,,,,,,,,,,,,,,,,,,,,,,,,,,,,,,,,,,,,,,,,,,,,,,,,
,,5c55c7cb9b583c000159f790,65af55d03505e22b54cd2196,2024-01-23_07h00.44.044,bars,2023.2.3,Win32,59.88023952,657b66ea316d21385b68909f,,,,,,,,,,,192.7973,193.791,193.7911,194.2914,194.2914,194.5414,194.5414,156,156,197.7577,space,3.2002,,197.7577,199.2239,space,1.4478,,0,7,7,1,1,20,bars/single001.png,bars/mask006.png,,,,,,,,,,,,,,,,,,,,,,,,,,,,,,,,,,,,,,,,,,,,,,,,,,,,,,,,,,,,,,,,
,,5c55c7cb9b583c000159f790,65af55d03505e22b54cd2196,2024-01-23_07h00.44.044,bars,2023.2.3,Win32,59.88023952,657b66ea316d21385b68909f,,,,,,,,,,,199.2241,200.2238,200.2238,200.7236,200.7236,200.9736,200.9736,38,38,202.7069,space,1.7249,,202.7069,206.0238,space,3.3097,,0,8,8,7,1,45,bars/single007.png,bars/mask009.png,,,,,,,,,,,,,,,,,,,,,,,,,,,,,,,,,,,,,,,,,,,,,,,,,,,,,,,,,,,,,,,,
,,5c55c7cb9b583c000159f790,65af55d03505e22b54cd2196,2024-01-23_07h00.44.044,bars,2023.2.3,Win32,59.88023952,657b66ea316d21385b68909f,,,,,,,,,,,206.0299,207.0235,207.0235,207.5237,207.5238,207.7732,207.7732,163,163,211.106,space,3.3175,,211.106,212.8559,space,1.735,,0,9,9,0,1,150,bars/single000.png,bars/mask006.png,,,,,,,,,,,,,,,,,,,,,,,,,,,,,,,,,,,,,,,,,,,,,,,,,,,,,,,,,,,,,,,,
,,5c55c7cb9b583c000159f790,65af55d03505e22b54cd2196,2024-01-23_07h00.44.044,bars,2023.2.3,Win32,59.88023952,657b66ea316d21385b68909f,,,,,,,,,,,,,,,,,,,,,,,,,,,,,,,,,,,,,212.8567,258.5182,space,45.651,,,,,,,,,,,,,,,,,,,,,,,,,,,,,,,,,,,,,,,,,,,,,,,,,,,,,,,,,,,,
,,5c55c7cb9b583c000159f790,65af55d03505e22b54cd2196,2024-01-23_07h00.44.044,bars,2023.2.3,Win32,59.88023952,657b66ea316d21385b68909f,,,,,,,,,,,,,,,,,,,,,,,,,,,,,,,,,,,,,,,,,,258.5255,261.5345,right,3.0025,,261.5347,2,2,262.5343,0,0,0,0,1,9,1,9,2,,,,,,,,,,,,,,,,,,,,,,,,,,,,,,,,,,,,,,,,,
,,5c55c7cb9b583c000159f790,65af55d03505e22b54cd2196,2024-01-23_07h00.44.044,bars,2023.2.3,Win32,59.88023952,657b66ea316d21385b68909f,,,,,,,,,,,,,,,,,,,,,,,,,,,,,,,,,,,,,,,,,,262.5348,264.6676,right,2.1227,,264.6676,1,2,265.6673,0,1,1,1,1,10,0,10,1,,,,,,,,,,,,,,,,,,,,,,,,,,,,,,,,,,,,,,,,,
,,5c55c7cb9b583c000159f790,65af55d03505e22b54cd2196,2024-01-23_07h00.44.044,bars,2023.2.3,Win32,59.88023952,657b66ea316d21385b68909f,,,,,,,,,,,,,,,,,,,,,,,,,,,,,,,,,,,,,,,,,,265.6676,267.3507,right,1.666,,267.3508,2,2,268.3503,0,2,2,2,1,10,2,10,2,,,,,,,,,,,,,,,,,,,,,,,,,,,,,,,,,,,,,,,,,
,,5c55c7cb9b583c000159f790,65af55d03505e22b54cd2196,2024-01-23_07h00.44.044,bars,2023.2.3,Win32,59.88023952,657b66ea316d21385b68909f,,,,,,,,,,,,,,,,,,,,,,,,,,,,,,,,,,,,,,,,,,268.3506,270.0832,right,1.7191,,270.0833,3,2,271.083,0,3,3,3,1,8,4,7,3,,,,,,,,,,,,,,,,,,,,,,,,,,,,,,,,,,,,,,,,,
,,5c55c7cb9b583c000159f790,65af55d03505e22b54cd2196,2024-01-23_07h00.44.044,bars,2023.2.3,Win32,59.88023952,657b66ea316d21385b68909f,,,,,,,,,,,,,,,,,,,,,,,,,,,,,,,,,,,,,,,,,,271.0889,273.6829,right,2.5916,,273.6829,1,2,274.683,0,4,4,4,1,6,2,5,1,,,,,,,,,,,,,,,,,,,,,,,,,,,,,,,,,,,,,,,,,
,,5c55c7cb9b583c000159f790,65af55d03505e22b54cd2196,2024-01-23_07h00.44.044,bars,2023.2.3,Win32,59.88023952,657b66ea316d21385b68909f,,,,,,,,,,,,,,,,,,,,,,,,,,,,,,,,,,,,,,,,,,274.6891,275.6994,right,0.9994,,275.6995,4,2,276.6994,0,5,5,5,1,4,4,4,4,,,,,,,,,,,,,,,,,,,,,,,,,,,,,,,,,,,,,,,,,
,,5c55c7cb9b583c000159f790,65af55d03505e22b54cd2196,2024-01-23_07h00.44.044,bars,2023.2.3,Win32,59.88023952,657b66ea316d21385b68909f,,,,,,,,,,,,,,,,,,,,,,,,,,,,,,,,,,,,,,,,,,276.6998,277.7827,right,1.066,,277.7827,2,2,278.7825,0,6,6,6,1,2,2,1,2,,,,,,,,,,,,,,,,,,,,,,,,,,,,,,,,,,,,,,,,,
,,5c55c7cb9b583c000159f790,65af55d03505e22b54cd2196,2024-01-23_07h00.44.044,bars,2023.2.3,Win32,59.88023952,657b66ea316d21385b68909f,,,,,,,,,,,,,,,,,,,,,,,,,,,,,,,,,,,,,,,,,,278.7829,281.6653,right,2.8759,,281.6654,1,2,282.6654,0,7,7,7,1,0,0,0,1,,,,,,,,,,,,,,,,,,,,,,,,,,,,,,,,,,,,,,,,,
,,5c55c7cb9b583c000159f790,65af55d03505e22b54cd2196,2024-01-23_07h00.44.044,bars,2023.2.3,Win32,59.88023952,657b66ea316d21385b68909f,,,,,,,,,,,,,,,,,,,,,,,,,,,,,,,,,,,,,,,,,,282.6715,284.8818,left,2.2002,,284.8818,1,1,285.8818,0,8,8,8,1,0,2,1,0,,,,,,,,,,,,,,,,,,,,,,,,,,,,,,,,,,,,,,,,,
,,5c55c7cb9b583c000159f790,65af55d03505e22b54cd2196,2024-01-23_07h00.44.044,bars,2023.2.3,Win32,59.88023952,657b66ea316d21385b68909f,,,,,,,,,,,,,,,,,,,,,,,,,,,,,,,,,,,,,,,,,,285.8821,286.4486,right,0.5504,,286.4487,3,2,287.4483,0,9,9,9,1,2,4,2,3,,,,,,,,,,,,,,,,,,,,,,,,,,,,,,,,,,,,,,,,,
,,5c55c7cb9b583c000159f790,65af55d03505e22b54cd2196,2024-01-23_07h00.44.044,bars,2023.2.3,Win32,59.88023952,657b66ea316d21385b68909f,,,,,,,,,,,,,,,,,,,,,,,,,,,,,,,,,,,,,,,,,,287.4485,288.2316,right,0.7654,,288.2317,3,2,289.2314,0,10,10,10,1,0,2,0,3,,,,,,,,,,,,,,,,,,,,,,,,,,,,,,,,,,,,,,,,,
,,5c55c7cb9b583c000159f790,65af55d03505e22b54cd2196,2024-01-23_07h00.44.044,bars,2023.2.3,Win32,59.88023952,657b66ea316d21385b68909f,,,,,,,,,,,,,,,,,,,,,,,,,,,,,,,,,,,,,,,,,,289.2318,289.8817,right,0.6338,,289.8817,3,2,290.8815,0,11,11,11,1,0,4,0,3,,,,,,,,,,,,,,,,,,,,,,,,,,,,,,,,,,,,,,,,,
,,5c55c7cb9b583c000159f790,65af55d03505e22b54cd2196,2024-01-23_07h00.44.044,bars,2023.2.3,Win32,59.88023952,657b66ea316d21385b68909f,,,,,,,,,,,,,,,,,,,,,,,,,,,,,,,,,,,,,,,,,,290.8818,291.781,right,0.8928,,291.781,6,2,292.7811,0,12,12,12,1,2,6,1,6,,,,,,,,,,,,,,,,,,,,,,,,,,,,,,,,,,,,,,,,,
,,5c55c7cb9b583c000159f790,65af55d03505e22b54cd2196,2024-01-23_07h00.44.044,bars,2023.2.3,Win32,59.88023952,657b66ea316d21385b68909f,,,,,,,,,,,,,,,,,,,,,,,,,,,,,,,,,,,,,,,,,,292.7816,293.7142,right,0.9241,,293.7142,3,2,294.7142,0,13,13,13,1,0,4,1,3,,,,,,,,,,,,,,,,,,,,,,,,,,,,,,,,,,,,,,,,,
,,5c55c7cb9b583c000159f790,65af55d03505e22b54cd2196,2024-01-23_07h00.44.044,bars,2023.2.3,Win32,59.88023952,657b66ea316d21385b68909f,,,,,,,,,,,,,,,,,,,,,,,,,,,,,,,,,,,,,,,,,,294.7145,295.7472,right,1.0157,,295.7473,7,2,296.7473,0,14,14,14,1,2,6,2,7,,,,,,,,,,,,,,,,,,,,,,,,,,,,,,,,,,,,,,,,,
,,5c55c7cb9b583c000159f790,65af55d03505e22b54cd2196,2024-01-23_07h00.44.044,bars,2023.2.3,Win32,59.88023952,657b66ea316d21385b68909f,,,,,,,,,,,,,,,,,,,,,,,,,,,,,,,,,,,,,,,,,,296.7477,297.3308,right,0.5745,,297.3308,9,2,298.3302,0,15,15,15,1,4,8,3,9,,,,,,,,,,,,,,,,,,,,,,,,,,,,,,,,,,,,,,,,,
,,5c55c7cb9b583c000159f790,65af55d03505e22b54cd2196,2024-01-23_07h00.44.044,bars,2023.2.3,Win32,59.88023952,657b66ea316d21385b68909f,,,,,,,,,,,,,,,,,,,,,,,,,,,,,,,,,,,,,,,,,,298.3307,299.0136,right,0.675,,299.0136,7,2,300.0136,0,16,16,16,1,6,6,7,7,,,,,,,,,,,,,,,,,,,,,,,,,,,,,,,,,,,,,,,,,
,,5c55c7cb9b583c000159f790,65af55d03505e22b54cd2196,2024-01-23_07h00.44.044,bars,2023.2.3,Win32,59.88023952,657b66ea316d21385b68909f,,,,,,,,,,,,,,,,,,,,,,,,,,,,,,,,,,,,,,,,,,300.0141,301.23,right,1.2002,,301.23,5,2,302.2301,0,17,17,17,1,8,4,9,5,,,,,,,,,,,,,,,,,,,,,,,,,,,,,,,,,,,,,,,,,
,,5c55c7cb9b583c000159f790,65af55d03505e22b54cd2196,2024-01-23_07h00.44.044,bars,2023.2.3,Win32,59.88023952,657b66ea316d21385b68909f,,,,,,,,,,,,,,,,,,,,,,,,,,,,,,,,,,,,,,,,,,302.2305,302.8631,right,0.6201,,302.8632,1,2,303.8632,0,18,18,18,1,6,2,5,1,,,,,,,,,,,,,,,,,,,,,,,,,,,,,,,,,,,,,,,,,
,,5c55c7cb9b583c000159f790,65af55d03505e22b54cd2196,2024-01-23_07h00.44.044,bars,2023.2.3,Win32,59.88023952,657b66ea316d21385b68909f,,,,,,,,,,,,,,,,,,,,,,,,,,,,,,,,,,,,,,,,,,303.8636,304.48,right,0.6043,,304.4801,0,2,305.4796,0,19,19,19,1,8,0,7,0,,,,,,,,,,,,,,,,,,,,,,,,,,,,,,,,,,,,,,,,,
,,5c55c7cb9b583c000159f790,65af55d03505e22b54cd2196,2024-01-23_07h00.44.044,bars,2023.2.3,Win32,59.88023952,657b66ea316d21385b68909f,,,,,,,,,,,,,,,,,,,,,,,,,,,,,,,,,,,,,,,,,,,,,,,,,,,,,,,,,,,,305.48,332.4939,space,27.0016,,,,,,,,,,,,,,,,,,,,,,,,,,,,,,,,,,,,,
,,5c55c7cb9b583c000159f790,65af55d03505e22b54cd2196,2024-01-23_07h00.44.044,bars,2023.2.3,Win32,59.88023952,657b66ea316d21385b68909f,,,,,,,,,,,333.7465,334.7438,,,335.2432,335.4933,,56,56,,,,,,,,,,,,,,,,bars/018.png,bars/mask005.png,,,,,,,,,,,,0,2,,,,,,,9,7,10,7,,,,,,332.501,333.744,space,1.2347,,334.7441,335.2432,335.4934,338.5931,space,3.0882,,338.5932,86,34,339.5931,339.5933,350.7255,space,11.1196,,0,0,0,0,1,150,90,,,,,,,,
,,5c55c7cb9b583c000159f790,65af55d03505e22b54cd2196,2024-01-23_07h00.44.044,bars,2023.2.3,Win32,59.88023952,657b66ea316d21385b68909f,,,,,,,,,,,350.7316,351.725,,,352.2249,352.475,,61,61,,,,,,,,,,,,,,,,bars/038.png,bars/mask001.png,,,,,,,,,,,,3,2,,,,,,,7,5,7,4,,,,,,,,,,,351.7251,352.2249,352.475,355.9743,space,3.4876,,355.9745,76,9,356.9747,356.9747,359.0407,space,2.0443,,0,1,1,1,1,165,70,,,,,,,,
,,5c55c7cb9b583c000159f790,65af55d03505e22b54cd2196,2024-01-23_07h00.44.044,bars,2023.2.3,Win32,59.88023952,657b66ea316d21385b68909f,,,,,,,,,,,359.041,360.0405,,,360.5405,360.791,,95,95,,,,,,,,,,,,,,,,bars/002.png,bars/mask001.png,,,,,,,,,,,,5,2,,,,,,,5,7,3,7,,,,,,,,,,,360.0406,360.5404,360.791,365.24,space,4.4335,,365.24,35,10,366.24,366.2401,370.9065,space,4.643,,0,2,2,2,1,130,85,,,,,,,,
,,5c55c7cb9b583c000159f790,65af55d03505e22b54cd2196,2024-01-23_07h00.44.044,bars,2023.2.3,Win32,59.88023952,657b66ea316d21385b68909f,,,,,,,,,,,370.9124,371.9063,,,372.4059,372.6562,,99,99,,,,,,,,,,,,,,,,bars/046.png,bars/mask004.png,,,,,,,,,,,,3,2,,,,,,,7,5,6,6,,,,,,,,,,,371.9063,372.4059,372.6563,374.8395,space,2.1674,,374.8395,56,14,375.8388,375.8388,377.3887,space,1.5373,,0,3,3,3,1,155,85,,,,,,,,
,,5c55c7cb9b583c000159f790,65af55d03505e22b54cd2196,2024-01-23_07h00.44.044,bars,2023.2.3,Win32,59.88023952,657b66ea316d21385b68909f,,,,,,,,,,,377.3891,378.3888,,,378.889,379.1387,,159,159,,,,,,,,,,,,,,,,bars/033.png,bars/mask009.png,,,,,,,,,,,,6,2,,,,,,,9,7,9,7,,,,,,,,,,,378.3888,378.8889,379.1387,381.9716,space,2.8235,,381.9718,46,4,382.9716,382.9716,386.288,space,3.2972,,0,4,4,4,1,25,155,,,,,,,,
,,5c55c7cb9b583c000159f790,65af55d03505e22b54cd2196,2024-01-23_07h00.44.044,bars,2023.2.3,Win32,59.88023952,657b66ea316d21385b68909f,,,,,,,,,,,386.2883,387.2876,,,387.7879,388.0381,,24,24,,,,,,,,,,,,,,,,bars/007.png,bars/mask002.png,,,,,,,,,,,,0,1,,,,,,,7,5,6,5,,,,,,,,,,,387.2877,387.7878,388.0382,392.2373,space,4.1939,,392.2374,29,31,393.237,393.2371,396.0038,space,2.7418,,0,5,5,5,1,175,55,,,,,,,,
,,5c55c7cb9b583c000159f790,65af55d03505e22b54cd2196,2024-01-23_07h00.44.044,bars,2023.2.3,Win32,59.88023952,657b66ea316d21385b68909f,,,,,,,,,,,396.0042,397.0036,,,397.5035,397.7535,,99,99,,,,,,,,,,,,,,,,bars/018.png,bars/mask008.png,,,,,,,,,,,,2,2,,,,,,,5,3,5,3,,,,,,,,,,,397.0036,397.5035,397.7536,399.3698,space,1.6058,,399.37,51,9,400.3696,400.3696,404.5864,space,4.1984,,0,6,6,6,1,150,90,,,,,,,,
,,5c55c7cb9b583c000159f790,65af55d03505e22b54cd2196,2024-01-23_07h00.44.044,bars,2023.2.3,Win32,59.88023952,657b66ea316d21385b68909f,,,,,,,,,,,404.5921,405.5862,,,406.0858,406.3357,,83,83,,,,,,,,,,,,,,,,bars/042.png,bars/mask006.png,,,,,,,,,,,,1,2,,,,,,,7,1,7,2,,,,,,,,,,,405.5862,406.0858,406.3357,411.002,space,4.6517,,411.0021,62,8,412.0019,412.0019,414.0516,space,2.0335,,0,7,7,7,1,145,75,,,,,,,,
,,5c55c7cb9b583c000159f790,65af55d03505e22b54cd2196,2024-01-23_07h00.44.044,bars,2023.2.3,Win32,59.88023952,657b66ea316d21385b68909f,,,,,,,,,,,414.0519,415.0517,,,415.5513,415.8016,,30,30,,,,,,,,,,,,,,,,bars/013.png,bars/mask000.png,,,,,,,,,,,,1,2,,,,,,,9,3,9,3,,,,,,,,,,,415.0517,415.5513,415.8016,419.4848,space,3.6751,,419.4848,45,20,420.4845,420.4846,422.4681,space,1.9595,,0,8,8,8,1,75,10,,,,,,,,
,,5c55c7cb9b583c000159f790,65af55d03505e22b54cd2196,2024-01-23_07h00.44.044,bars,2023.2.3,Win32,59.88023952,657b66ea316d21385b68909f,,,,,,,,,,,422.4686,423.4675,,,423.9674,424.2174,,171,-9,,,,,,,,,,,,,,,,bars/040.png,bars/mask007.png,,,,,,,,,,,,4,2,,,,,,,10,5,10,8,,,,,,,,,,,423.4675,423.9674,424.2174,428.4001,space,4.1787,,428.4001,31,14,429.4004,429.4004,431.5667,space,2.1441,,0,9,9,9,1,140,5,,,,,,,,
,,5c55c7cb9b583c000159f790,65af55d03505e22b54cd2196,2024-01-23_07h00.44.044,bars,2023.2.3,Win32,59.88023952,657b66ea316d21385b68909f,,,,,,,,,,,431.5671,432.5666,,,433.0666,433.3161,,38,38,,,,,,,,,,,,,,,,bars/035.png,bars/mask000.png,,,,,,,,,,,,1,2,,,,,,,8,7,7,5,,,,,,,,,,,432.5667,433.0666,433.3162,435.3994,space,2.0739,,435.3994,43,22,436.3991,436.3991,437.4657,space,1.0601,,0,10,10,10,1,175,60,,,,,,,,
,,5c55c7cb9b583c000159f790,65af55d03505e22b54cd2196,2024-01-23_07h00.44.044,bars,2023.2.3,Win32,59.88023952,657b66ea316d21385b68909f,,,,,,,,,,,437.4661,438.4657,,,438.9656,439.2156,,76,76,,,,,,,,,,,,,,,,bars/039.png,bars/mask002.png,,,,,,,,,,,,0,2,,,,,,,10,5,10,5,,,,,,,,,,,438.4657,438.9656,439.2157,441.082,space,1.8596,,441.0821,81,29,442.082,442.082,442.9986,space,0.9005,,0,11,11,11,1,175,105,,,,,,,,
,,5c55c7cb9b583c000159f790,65af55d03505e22b54cd2196,2024-01-23_07h00.44.044,bars,2023.2.3,Win32,59.88023952,657b66ea316d21385b68909f,,,,,,,,,,,442.9989,443.9987,,,444.4984,444.7483,,151,151,,,,,,,,,,,,,,,,bars/016.png,bars/mask006.png,,,,,,,,,,,,1,2,,,,,,,10,3,8,2,,,,,,,,,,,443.9989,444.4983,444.7483,447.9146,space,3.1565,,447.9147,69,14,448.9145,448.9146,450.0646,space,1.1359,,0,12,12,12,1,40,165,,,,,,,,
,,5c55c7cb9b583c000159f790,65af55d03505e22b54cd2196,2024-01-23_07h00.44.044,bars,2023.2.3,Win32,59.88023952,657b66ea316d21385b68909f,,,,,,,,,,,450.0649,451.0643,,,451.5643,451.8143,,154,-26,,,,,,,,,,,,,,,,bars/043.png,bars/mask000.png,,,,,,,,,,,,1,2,,,,,,,8,5,7,5,,,,,,,,,,,451.0644,451.5642,451.8144,455.3806,space,3.5488,,455.3807,56,24,456.3806,456.3806,457.2146,space,0.8233,,0,13,13,13,1,30,130,,,,,,,,
,,5c55c7cb9b583c000159f790,65af55d03505e22b54cd2196,2024-01-23_07h00.44.044,bars,2023.2.3,Win32,59.88023952,657b66ea316d21385b68909f,,,,,,,,,,,457.2149,458.2136,,,458.7136,458.9635,,128,128,,,,,,,,,,,,,,,,bars/035.png,bars/mask006.png,,,,,,,,,,,,0,1,,,,,,,10,7,9,6,,,,,,,,,,,458.2136,458.7136,458.9635,460.53,space,1.5634,,460.5301,47,68,461.5299,461.53,462.4799,space,0.932,,0,14,14,14,1,175,60,,,,,,,,
,,5c55c7cb9b583c000159f790,65af55d03505e22b54cd2196,2024-01-23_07h00.44.044,bars,2023.2.3,Win32,59.88023952,657b66ea316d21385b68909f,,,,,,,,,,,462.4802,463.4797,,,463.9797,464.2296,,22,22,,,,,,,,,,,,,,,,bars/016.png,bars/mask000.png,,,,,,,,,,,,4,1,,,,,,,8,9,9,10,,,,,,,,,,,463.4797,463.9797,464.2296,467.7294,space,3.4944,,467.7294,18,37,468.7291,468.7292,469.8125,space,1.0703,,0,15,15,15,1,40,165,,,,,,,,
,,5c55c7cb9b583c000159f790,65af55d03505e22b54cd2196,2024-01-23_07h00.44.044,bars,2023.2.3,Win32,59.88023952,657b66ea316d21385b68909f,,,,,,,,,,,469.8128,470.8122,,,471.3122,471.5622,,129,129,,,,,,,,,,,,,,,,bars/002.png,bars/mask004.png,,,,,,,,,,,,6,1,,,,,,,6,10,6,10,,,,,,,,,,,470.8123,471.3122,471.5622,475.8617,space,4.2957,,475.8617,1,44,476.8616,476.8617,479.4449,space,2.5618,,0,16,16,16,1,130,85,,,,,,,,
,,5c55c7cb9b583c000159f790,65af55d03505e22b54cd2196,2024-01-23_07h00.44.044,bars,2023.2.3,Win32,59.88023952,657b66ea316d21385b68909f,,,,,,,,,,,479.4452,480.4446,,,480.9447,481.1946,,63,63,,,,,,,,,,,,,,,,bars/022.png,bars/mask000.png,,,,,,,,,,,,0,1,,,,,,,8,10,8,8,,,,,,,,,,,480.4446,480.9446,481.1946,486.5107,space,5.312,,486.5107,32,43,487.5105,487.5105,488.4606,space,0.9358,,0,17,17,17,1,95,20,,,,,,,,
,,5c55c7cb9b583c000159f790,65af55d03505e22b54cd2196,2024-01-23_07h00.44.044,bars,2023.2.3,Win32,59.88023952,657b66ea316d21385b68909f,,,,,,,,,,,488.461,489.4604,,,489.9602,490.2103,,108,108,,,,,,,,,,,,,,,,bars/044.png,bars/mask006.png,,,,,,,,,,,,0,1,,,,,,,10,10,10,10,,,,,,,,,,,489.4604,489.9602,490.2103,492.1435,space,1.9235,,492.1436,33,47,493.1437,493.1437,493.8933,space,0.7338,,0,18,18,18,1,75,155,,,,,,,,
,,5c55c7cb9b583c000159f790,65af55d03505e22b54cd2196,2024-01-23_07h00.44.044,bars,2023.2.3,Win32,59.88023952,657b66ea316d21385b68909f,,,,,,,,,,,493.8937,494.8931,,,495.393,495.643,,156,156,,,,,,,,,,,,,,,,bars/042.png,bars/mask002.png,,,,,,,,,,,,5,1,,,,,,,8,10,8,10,,,,,,,,,,,494.8932,495.393,495.6431,496.7429,space,1.0884,,496.7429,11,81,497.7427,497.7428,498.8927,space,1.1425,,0,19,19,19,1,145,75,,,,,,,,
,,5c55c7cb9b583c000159f790,65af55d03505e22b54cd2196,2024-01-23_07h00.44.044,bars,2023.2.3,Win32,59.88023952,657b66ea316d21385b68909f,,,,,,,,,,,498.8929,499.8926,,,500.3926,500.6425,,135,135,,,,,,,,,,,,,,,,bars/008.png,bars/mask008.png,,,,,,,,,,,,1,1,,,,,,,6,10,6,10,,,,,,,,,,,499.8926,500.3925,500.6425,501.7591,space,1.1064,,501.7592,25,45,502.7589,502.7589,503.7756,space,0.9988,,0,20,20,20,1,110,0,,,,,,,,
,,5c55c7cb9b583c000159f790,65af55d03505e22b54cd2196,2024-01-23_07h00.44.044,bars,2023.2.3,Win32,59.88023952,657b66ea316d21385b68909f,,,,,,,,,,,503.7759,504.7754,,,505.2754,505.5253,,150,-30,,,,,,,,,,,,,,,,bars/023.png,bars/mask003.png,,,,,,,,,,,,0,2,,,,,,,8,10,10,10,,,,,,,,,,,504.7754,505.2753,505.5254,511.5081,space,5.9662,,511.5082,50,35,512.5079,512.5079,513.6745,space,1.1544,,0,21,21,21,1,20,115,,,,,,,,
,,5c55c7cb9b583c000159f790,65af55d03505e22b54cd2196,2024-01-23_07h00.44.044,bars,2023.2.3,Win32,59.88023952,657b66ea316d21385b68909f,,,,,,,,,,,513.6748,514.6743,,,515.1745,515.4243,,76,76,,,,,,,,,,,,,,,,bars/036.png,bars/mask000.png,,,,,,,,,,,,0,2,,,,,,,6,8,8,8,,,,,,,,,,,514.6743,515.1745,515.4243,519.0574,space,3.6198,,519.0574,69,56,520.0571,520.0572,527.3731,space,7.3013,,0,22,22,22,1,145,20,,,,,,,,
,,5c55c7cb9b583c000159f790,65af55d03505e22b54cd2196,2024-01-23_07h00.44.044,bars,2023.2.3,Win32,59.88023952,657b66ea316d21385b68909f,,,,,,,,,,,527.3791,528.3737,,,528.8736,529.1233,,17,17,,,,,,,,,,,,,,,,bars/044.png,bars/mask002.png,,,,,,,,,,,,0,2,,,,,,,8,10,7,9,,,,,,,,,,,528.3737,528.8735,529.1233,530.4228,space,1.2869,,530.4229,58,42,531.423,531.423,532.3062,space,0.8795,,0,23,23,23,1,75,155,,,,,,,,
,,5c55c7cb9b583c000159f790,65af55d03505e22b54cd2196,2024-01-23_07h00.44.044,bars,2023.2.3,Win32,59.88023952,657b66ea316d21385b68909f,,,,,,,,,,,532.3065,533.3061,,,533.8057,534.0562,,50,230,,,,,,,,,,,,,,,,bars/017.png,bars/mask008.png,,,,,,,,,,,,8,2,,,,,,,6,10,7,10,,,,,,,,,,,533.3062,533.8057,534.0562,537.5554,space,3.4859,,537.5555,85,5,538.5553,538.5553,539.7056,space,1.132,,0,24,24,24,1,145,45,,,,,,,,
,,5c55c7cb9b583c000159f790,65af55d03505e22b54cd2196,2024-01-23_07h00.44.044,bars,2023.2.3,Win32,59.88023952,657b66ea316d21385b68909f,,,,,,,,,,,539.7059,540.7054,,,541.205,541.4552,,142,142,,,,,,,,,,,,,,,,bars/032.png,bars/mask009.png,,,,,,,,,,,,2,1,,,,,,,4,8,4,8,,,,,,,,,,,540.7054,541.2049,541.4553,546.7885,space,5.3164,,546.7885,17,58,547.7881,547.7881,549.3213,space,1.5083,,0,25,25,25,1,125,20,,,,,,,,
,,5c55c7cb9b583c000159f790,65af55d03505e22b54cd2196,2024-01-23_07h00.44.044,bars,2023.2.3,Win32,59.88023952,657b66ea316d21385b68909f,,,,,,,,,,,549.3216,550.3213,,,550.8212,551.0706,,34,34,,,,,,,,,,,,,,,,bars/040.png,bars/mask004.png,,,,,,,,,,,,0,2,,,,,,,2,10,3,10,,,,,,,,,,,550.3213,550.8212,551.0706,551.7044,space,0.6167,,551.7044,74,29,552.7038,552.7038,553.4374,space,0.7154,,0,26,26,26,1,140,5,,,,,,,,
,,5c55c7cb9b583c000159f790,65af55d03505e22b54cd2196,2024-01-23_07h00.44.044,bars,2023.2.3,Win32,59.88023952,657b66ea316d21385b68909f,,,,,,,,,,,553.4378,554.4372,,,554.9371,555.1872,,130,130,,,,,,,,,,,,,,,,bars/018.png,bars/mask007.png,,,,,,,,,,,,0,1,,,,,,,0,8,0,9,,,,,,,,,,,554.4373,554.9371,555.1872,557.9703,space,2.7659,,557.9703,20,40,558.9701,558.9701,560.02,space,1.0302,,0,27,27,27,1,150,90,,,,,,,,
,,5c55c7cb9b583c000159f790,65af55d03505e22b54cd2196,2024-01-23_07h00.44.044,bars,2023.2.3,Win32,59.88023952,657b66ea316d21385b68909f,,,,,,,,,,,560.0203,561.0196,,,561.5201,561.7697,,33,213,,,,,,,,,,,,,,,,bars/007.png,bars/mask008.png,,,,,,,,,,,,3,2,,,,,,,0,10,0,10,,,,,,,,,,,561.0197,561.5201,561.7698,566.8192,space,5.0472,,566.8193,38,22,567.8188,567.8189,568.9854,space,1.1551,,0,28,28,28,1,175,55,,,,,,,,
,,5c55c7cb9b583c000159f790,65af55d03505e22b54cd2196,2024-01-23_07h00.44.044,bars,2023.2.3,Win32,59.88023952,657b66ea316d21385b68909f,,,,,,,,,,,568.9857,569.9859,,,570.4853,570.7358,,106,106,,,,,,,,,,,,,,,,bars/049.png,bars/mask009.png,,,,,,,,,,,,6,2,,,,,,,2,10,2,9,,,,,,,,,,,569.9859,570.4853,570.7358,571.8019,space,1.0575,,571.802,54,9,572.8021,572.8022,574.6186,space,1.8096,,0,29,29,29,1,160,115,,,,,,,,
,,5c55c7cb9b583c000159f790,65af55d03505e22b54cd2196,2024-01-23_07h00.44.044,bars,2023.2.3,Win32,59.88023952,657b66ea316d21385b68909f,,,,,,,,,,,574.619,575.6183,,,576.1185,576.3682,,149,-31,,,,,,,,,,,,,,,,bars/033.png,bars/mask005.png,,,,,,,,,,,,6,2,,,,,,,0,8,0,8,,,,,,,,,,,575.6183,576.1185,576.3682,579.7847,space,3.4008,,579.7847,56,6,580.7842,580.7843,582.0011,space,1.194,,0,30,30,30,1,25,155,,,,,,,,
,,5c55c7cb9b583c000159f790,65af55d03505e22b54cd2196,2024-01-23_07h00.44.044,bars,2023.2.3,Win32,59.88023952,657b66ea316d21385b68909f,,,,,,,,,,,582.0015,583.0011,,,583.501,583.7511,,42,222,,,,,,,,,,,,,,,,bars/025.png,bars/mask004.png,,,,,,,,,,,,8,2,,,,,,,2,10,3,9,,,,,,,,,,,583.0012,583.5008,583.7511,588.6672,space,4.9017,,588.6673,63,2,589.6669,589.667,591.2,space,1.5181,,0,31,31,31,1,105,40,,,,,,,,
,,5c55c7cb9b583c000159f790,65af55d03505e22b54cd2196,2024-01-23_07h00.44.044,bars,2023.2.3,Win32,59.88023952,657b66ea316d21385b68909f,,,,,,,,,,,591.2004,592.2,,,592.7,592.95,,122,-58,,,,,,,,,,,,,,,,bars/019.png,bars/mask005.png,,,,,,,,,,,,4,2,,,,,,,4,10,3,10,,,,,,,,,,,592.2001,592.6999,592.95,598.6825,space,5.7298,,598.6825,77,17,599.6825,599.6826,600.5656,space,0.8664,,0,32,32,32,1,45,105,,,,,,,,
,,5c55c7cb9b583c000159f790,65af55d03505e22b54cd2196,2024-01-23_07h00.44.044,bars,2023.2.3,Win32,59.88023952,657b66ea316d21385b68909f,,,,,,,,,,,600.5659,601.5658,,,602.0659,602.3153,,109,-71,,,,,,,,,,,,,,,,bars/044.png,bars/mask001.png,,,,,,,,,,,,0,1,,,,,,,2,10,4,10,,,,,,,,,,,601.5658,602.0658,602.3154,606.9815,space,4.658,,606.9816,34,46,607.9821,607.9822,609.0314,space,1.0353,,0,33,33,33,1,75,155,,,,,,,,
,,5c55c7cb9b583c000159f790,65af55d03505e22b54cd2196,2024-01-23_07h00.44.044,bars,2023.2.3,Win32,59.88023952,657b66ea316d21385b68909f,,,,,,,,,,,609.0319,610.0314,,,610.5314,610.7816,,6,6,,,,,,,,,,,,,,,,bars/001.png,bars/mask008.png,,,,,,,,,,,,0,1,,,,,,,0,8,0,8,,,,,,,,,,,610.0315,610.5314,610.7817,611.7647,space,0.9686,,611.7647,56,79,612.7645,612.7645,613.4646,space,0.6848,,0,34,34,34,1,130,85,,,,,,,,
,,5c55c7cb9b583c000159f790,65af55d03505e22b54cd2196,2024-01-23_07h00.44.044,bars,2023.2.3,Win32,59.88023952,657b66ea316d21385b68909f,,,,,,,,,,,613.4651,614.464,,,614.9641,615.2143,,70,70,,,,,,,,,,,,,,,,bars/025.png,bars/mask009.png,,,,,,,,,,,,0,2,,,,,,,2,6,2,6,,,,,,,,,,,614.464,614.9641,615.2143,617.1638,space,1.9459,,617.1638,35,30,618.164,618.164,618.9471,space,0.7711,,0,35,35,35,1,105,40,,,,,,,,
,,5c55c7cb9b583c000159f790,65af55d03505e22b54cd2196,2024-01-23_07h00.44.044,bars,2023.2.3,Win32,59.88023952,657b66ea316d21385b68909f,,,,,,,,,,,618.9474,619.9474,,,620.447,620.697,,32,32,,,,,,,,,,,,,,,,bars/036.png,bars/mask006.png,,,,,,,,,,,,2,2,,,,,,,4,4,4,4,,,,,,,,,,,619.9474,620.447,620.697,623.3473,space,2.6385,,623.3473,67,12,624.3466,624.3466,625.297,space,0.9328,,0,36,36,36,1,145,20,,,,,,,,
,,5c55c7cb9b583c000159f790,65af55d03505e22b54cd2196,2024-01-23_07h00.44.044,bars,2023.2.3,Win32,59.88023952,657b66ea316d21385b68909f,,,,,,,,,,,625.2975,626.2968,,,626.7967,627.0462,,150,-30,,,,,,,,,,,,,,,,bars/004.png,bars/mask001.png,,,,,,,,,,,,1,2,,,,,,,2,6,3,8,,,,,,,,,,,626.2968,626.7967,627.0462,629.8798,space,2.8166,,629.8799,55,25,630.879,630.879,631.8456,space,0.954,,0,37,37,37,1,25,125,,,,,,,,
,,5c55c7cb9b583c000159f790,65af55d03505e22b54cd2196,2024-01-23_07h00.44.044,bars,2023.2.3,Win32,59.88023952,657b66ea316d21385b68909f,,,,,,,,,,,631.8458,632.8459,,,633.3454,633.5959,,33,33,,,,,,,,,,,,,,,,bars/017.png,bars/mask008.png,,,,,,,,,,,,4,2,,,,,,,4,8,4,7,,,,,,,,,,,632.8459,633.3454,633.596,639.5286,space,5.9156,,639.5287,68,12,640.5286,640.5286,641.6613,space,1.1091,,0,38,38,38,1,145,45,,,,,,,,
,,5c55c7cb9b583c000159f790,65af55d03505e22b54cd2196,2024-01-23_07h00.44.044,bars,2023.2.3,Win32,59.88023952,657b66ea316d21385b68909f,,,,,,,,,,,641.6615,642.6615,,,643.1615,643.4113,,78,78,,,,,,,,,,,,,,,,bars/002.png,bars/mask002.png,,,,,,,,,,,,8,2,,,,,,,6,10,5,10,,,,,,,,,,,642.6615,643.1615,643.4113,648.1113,space,4.6835,,648.1114,52,7,649.1104,649.1105,650.3104,space,1.1842,,0,39,39,39,1,130,85,,,,,,,,
,,5c55c7cb9b583c000159f790,65af55d03505e22b54cd2196,2024-01-23_07h00.44.044,bars,2023.2.3,Win32,59.88023952,657b66ea316d21385b68909f,,,,,,,,,,,650.3108,651.3105,,,651.8109,652.0602,,94,94,,,,,,,,,,,,,,,,bars/026.png,bars/mask004.png,,,,,,,,,,,,6,2,,,,,,,8,8,6,8,,,,,,,,,,,651.3106,651.8109,652.0603,653.96,space,1.8863,,653.9601,59,9,654.9604,654.9604,656.1432,space,1.1621,,0,40,40,40,1,35,85,,,,,,,,
,,5c55c7cb9b583c000159f790,65af55d03505e22b54cd2196,2024-01-23_07h00.44.044,bars,2023.2.3,Win32,59.88023952,657b66ea316d21385b68909f,,,,,,,,,,,656.1437,657.1429,,,657.6429,657.8929,,91,-89,,,,,,,,,,,,,,,,bars/049.png,bars/mask008.png,,,,,,,,,,,,1,2,,,,,,,6,6,5,6,,,,,,,,,,,657.143,657.6429,657.893,663.9089,space,6.0126,,663.909,69,24,664.9093,664.9093,665.9088,space,0.9815,,0,41,41,41,1,160,115,,,,,,,,
,,5c55c7cb9b583c000159f790,65af55d03505e22b54cd2196,2024-01-23_07h00.44.044,bars,2023.2.3,Win32,59.88023952,657b66ea316d21385b68909f,,,,,,,,,,,665.9093,666.9086,,,667.4086,667.6586,,62,62,,,,,,,,,,,,,,,,bars/017.png,bars/mask008.png,,,,,,,,,,,,3,2,,,,,,,4,8,6,7,,,,,,,,,,,666.9086,667.4086,667.6586,669.992,space,2.3168,,669.992,83,17,670.9917,670.9917,671.8414,space,0.8316,,0,42,42,42,1,145,45,,,,,,,,
,,5c55c7cb9b583c000159f790,65af55d03505e22b54cd2196,2024-01-23_07h00.44.044,bars,2023.2.3,Win32,59.88023952,657b66ea316d21385b68909f,,,,,,,,,,,671.8416,672.8415,,,673.3416,673.592,,79,79,,,,,,,,,,,,,,,,bars/023.png,bars/mask001.png,,,,,,,,,,,,0,2,,,,,,,6,10,5,9,,,,,,,,,,,672.8416,673.3416,673.5921,676.5076,space,2.9118,,676.5076,59,36,677.5078,677.5078,678.5246,space,0.9918,,0,43,43,43,1,20,115,,,,,,,,
,,5c55c7cb9b583c000159f790,65af55d03505e22b54cd2196,2024-01-23_07h00.44.044,bars,2023.2.3,Win32,59.88023952,657b66ea316d21385b68909f,,,,,,,,,,,678.5251,679.5247,,,680.0243,680.2745,,129,129,,,,,,,,,,,,,,,,bars/016.png,bars/mask007.png,,,,,,,,,,,,0,2,,,,,,,4,8,4,6,,,,,,,,,,,679.5248,680.0242,680.2745,682.7907,space,2.4997,,682.7908,89,36,683.7905,683.7905,684.2073,space,0.4034,,0,44,44,44,1,40,165,,,,,,,,
,,5c55c7cb9b583c000159f790,65af55d03505e22b54cd2196,2024-01-23_07h00.44.044,bars,2023.2.3,Win32,59.88023952,657b66ea316d21385b68909f,,,,,,,,,,,684.2077,685.2071,,,685.707,685.9568,,107,107,,,,,,,,,,,,,,,,bars/018.png,bars/mask006.png,,,,,,,,,,,,3,2,,,,,,,6,10,6,8,,,,,,,,,,,685.2072,685.7069,685.9568,689.6233,space,3.6508,,689.6233,43,17,690.623,690.6231,691.1398,space,0.5069,,0,45,45,45,1,150,90,,,,,,,,
,,5c55c7cb9b583c000159f790,65af55d03505e22b54cd2196,2024-01-23_07h00.44.044,bars,2023.2.3,Win32,59.88023952,657b66ea316d21385b68909f,,,,,,,,,,,691.1403,692.1396,,,692.6396,692.8895,,118,-62,,,,,,,,,,,,,,,,bars/040.png,bars/mask008.png,,,,,,,,,,,,2,1,,,,,,,8,10,9,10,,,,,,,,,,,692.1396,692.6396,692.8895,697.8229,space,4.9199,,697.8229,22,67,698.8222,698.8222,699.572,space,0.7283,,0,46,46,46,1,140,5,,,,,,,,
,,5c55c7cb9b583c000159f790,65af55d03505e22b54cd2196,2024-01-23_07h00.44.044,bars,2023.2.3,Win32,59.88023952,657b66ea316d21385b68909f,,,,,,,,,,,699.5724,700.5717,,,701.0718,701.3217,,25,25,,,,,,,,,,,,,,,,bars/009.png,bars/mask008.png,,,,,,,,,,,,7,1,,,,,,,10,8,10,8,,,,,,,,,,,700.5717,701.0718,701.3217,704.9047,space,3.5803,,704.9047,10,80,705.9045,705.9046,708.0044,space,2.0861,,0,47,47,47,1,15,105,,,,,,,,
,,5c55c7cb9b583c000159f790,65af55d03505e22b54cd2196,2024-01-23_07h00.44.044,bars,2023.2.3,Win32,59.88023952,657b66ea316d21385b68909f,,,,,,,,,,,708.0046,709.0044,,,709.5044,709.7544,,177,-3,,,,,,,,,,,,,,,,bars/038.png,bars/mask006.png,,,,,,,,,,,,6,1,,,,,,,10,6,10,7,,,,,,,,,,,709.0044,709.5043,709.7544,711.8043,space,2.0334,,711.8044,12,73,712.8042,712.8042,713.6872,space,0.8732,,0,48,48,48,1,165,70,,,,,,,,
,,5c55c7cb9b583c000159f790,65af55d03505e22b54cd2196,2024-01-23_07h00.44.044,bars,2023.2.3,Win32,59.88023952,657b66ea316d21385b68909f,,,,,,,,,,,713.6876,714.6873,,,715.1876,715.4374,,151,151,,,,,,,,,,,,,,,,bars/041.png,bars/mask004.png,,,,,,,,,,,,0,1,,,,,,,8,8,8,7,,,,,,,,,,,714.6874,715.1875,715.4374,717.9537,space,2.5028,,717.9538,49,66,718.9532,718.9532,719.8535,space,0.8783,,0,49,49,49,1,20,85,,,,,,,,
,,5c55c7cb9b583c000159f790,65af55d03505e22b54cd2196,2024-01-23_07h00.44.044,bars,2023.2.3,Win32,59.88023952,657b66ea316d21385b68909f,,,,,,,,,,,,,,,,,,,,,,,,,,,,,,,,,,,,,,,,,,,,,,,,,,,,,,,,,,,,,,,,,,,,,,,,,,,,,,,,,,,,,,,,,,,,,719.8544,779.8475,0,0,0,0,1,sequence_tables/blk032.csv
,,5c55c7cb9b583c000159f790,65af55d03505e22b54cd2196,2024-01-23_07h00.44.044,bars,2023.2.3,Win32,59.88023952,657b66ea316d21385b68909f,,,,,,,,,,,782.883,783.88,,,784.3798,784.6297,,109,109,,,,,,,,,,,,,,,,bars/006.png,bars/mask006.png,,,,,,,,,,,,5,2,,,,,,,4,7,3,7,,,,,,779.8538,782.8799,space,3.0208,,783.8801,784.3797,784.6297,786.713,space,2.0782,,786.7131,74,9,787.7127,787.7128,787.7139,,,,0,0,0,0,1,35,100,,,,,,,,
,,5c55c7cb9b583c000159f790,65af55d03505e22b54cd2196,2024-01-23_07h00.44.044,bars,2023.2.3,Win32,59.88023952,657b66ea316d21385b68909f,,,,,,,,,,,787.7141,788.7132,,,789.2133,789.4628,,113,113,,,,,,,,,,,,,,,,bars/026.png,bars/mask009.png,,,,,,,,,,,,0,2,,,,,,,6,5,7,5,,,,,,,,,,,788.7132,789.2131,789.4629,791.779,space,2.3114,,791.779,78,28,792.7791,792.7792,792.7855,,,,0,1,1,1,1,35,85,,,,,,,,
,,5c55c7cb9b583c000159f790,65af55d03505e22b54cd2196,2024-01-23_07h00.44.044,bars,2023.2.3,Win32,59.88023952,657b66ea316d21385b68909f,,,,,,,,,,,792.7856,793.779,,,794.2791,794.5289,,104,104,,,,,,,,,,,,,,,,bars/025.png,bars/mask000.png,,,,,,,,,,,,4,1,,,,,,,4,3,4,4,,,,,,,,,,,793.779,794.279,794.5289,798.2285,space,3.6923,,798.2285,1,64,799.2285,799.2285,799.2352,,,,0,2,2,2,1,105,40,,,,,,,,
,,5c55c7cb9b583c000159f790,65af55d03505e22b54cd2196,2024-01-23_07h00.44.044,bars,2023.2.3,Win32,59.88023952,657b66ea316d21385b68909f,,,,,,,,,,,799.2353,800.2283,,,800.7285,800.9782,,76,76,,,,,,,,,,,,,,,,bars/022.png,bars/mask001.png,,,,,,,,,,,,1,1,,,,,,,2,5,2,5,,,,,,,,,,,800.2283,800.7285,800.9782,803.9781,space,2.9839,,803.9781,19,56,804.9778,804.9779,804.984,,,,0,3,3,3,1,95,20,,,,,,,,
,,5c55c7cb9b583c000159f790,65af55d03505e22b54cd2196,2024-01-23_07h00.44.044,bars,2023.2.3,Win32,59.88023952,657b66ea316d21385b68909f,,,,,,,,,,,804.9841,805.9778,,,806.4779,806.7277,,76,76,,,,,,,,,,,,,,,,bars/035.png,bars/mask006.png,,,,,,,,,,,,2,2,,,,,,,0,3,1,4,,,,,,,,,,,805.9778,806.4779,806.7277,809.8607,space,3.1173,,809.8608,81,16,810.8605,810.8606,810.8674,,,,0,4,4,4,1,175,60,,,,,,,,
,,5c55c7cb9b583c000159f790,65af55d03505e22b54cd2196,2024-01-23_07h00.44.044,bars,2023.2.3,Win32,59.88023952,657b66ea316d21385b68909f,,,,,,,,,,,810.8675,811.8604,,,812.3602,812.6105,,1,181,,,,,,,,,,,,,,,,bars/014.png,bars/mask009.png,,,,,,,,,,,,2,2,,,,,,,0,5,0,2,,,,,,,,,,,811.8604,812.3602,812.6105,814.3267,space,1.7022,,814.3267,79,1,815.3265,815.3265,815.3269,,,,0,5,5,5,1,80,0,,,,,,,,
,,5c55c7cb9b583c000159f790,65af55d03505e22b54cd2196,2024-01-23_07h00.44.044,bars,2023.2.3,Win32,59.88023952,657b66ea316d21385b68909f,,,,,,,,,,,815.3272,816.3266,,,816.8267,817.0764,,109,109,,,,,,,,,,,,,,,,bars/037.png,bars/mask002.png,,,,,,,,,,,,5,2,,,,,,,2,7,3,6,,,,,,,,,,,816.3267,816.8266,817.0764,818.5596,space,1.4808,,818.5596,41,4,819.5598,819.5598,819.5607,,,,0,6,6,6,1,150,105,,,,,,,,
,,5c55c7cb9b583c000159f790,65af55d03505e22b54cd2196,2024-01-23_07h00.44.044,bars,2023.2.3,Win32,59.88023952,657b66ea316d21385b68909f,,,,,,,,,,,819.5609,820.5596,,,821.0595,821.3096,,30,30,,,,,,,,,,,,,,,,bars/031.png,bars/mask007.png,,,,,,,,,,,,8,2,,,,,,,0,9,0,9,,,,,,,,,,,820.5597,821.0595,821.3096,822.1762,space,0.8491,,822.1762,90,5,823.1759,823.1759,823.1765,,,,0,7,7,7,1,120,35,,,,,,,,
,,5c55c7cb9b583c000159f790,65af55d03505e22b54cd2196,2024-01-23_07h00.44.044,bars,2023.2.3,Win32,59.88023952,657b66ea316d21385b68909f,,,,,,,,,,,823.1767,824.1761,,,824.6761,824.9259,,93,93,,,,,,,,,,,,,,,,bars/002.png,bars/mask009.png,,,,,,,,,,,,7,2,,,,,,,0,10,0,10,,,,,,,,,,,824.1762,824.676,824.9259,827.3423,space,2.3998,,827.3423,37,8,828.3421,828.3421,828.3484,,,,0,8,8,8,1,130,85,,,,,,,,
,,5c55c7cb9b583c000159f790,65af55d03505e22b54cd2196,2024-01-23_07h00.44.044,bars,2023.2.3,Win32,59.88023952,657b66ea316d21385b68909f,,,,,,,,,,,828.3485,829.3422,,,829.8417,830.0917,,59,59,,,,,,,,,,,,,,,,bars/017.png,bars/mask007.png,,,,,,,,,,,,5,2,,,,,,,2,10,2,10,,,,,,,,,,,829.3422,829.8417,830.0918,833.8919,space,3.7881,,833.8919,86,14,834.892,834.892,834.898,,,,0,9,9,9,1,145,45,,,,,,,,
,,5c55c7cb9b583c000159f790,65af55d03505e22b54cd2196,2024-01-23_07h00.44.044,bars,2023.2.3,Win32,59.88023952,657b66ea316d21385b68909f,,,,,,,,,,,834.8981,835.8919,,,836.3913,836.6413,,159,159,,,,,,,,,,,,,,,,bars/012.png,bars/mask008.png,,,,,,,,,,,,0,2,,,,,,,4,10,4,10,,,,,,,,,,,835.8919,836.3913,836.6414,838.8244,space,2.168,,838.8244,69,36,839.8244,839.8245,839.8253,,,,0,10,10,10,1,90,15,,,,,,,,
,,5c55c7cb9b583c000159f790,65af55d03505e22b54cd2196,2024-01-23_07h00.44.044,bars,2023.2.3,Win32,59.88023952,657b66ea316d21385b68909f,,,,,,,,,,,839.8256,840.8243,,,841.3242,841.574,,176,176,,,,,,,,,,,,,,,,bars/001.png,bars/mask004.png,,,,,,,,,,,,0,1,,,,,,,2,10,0,10,,,,,,,,,,,840.8243,841.3242,841.574,842.0408,space,0.4555,,842.0408,46,89,843.0402,843.0403,843.0414,,,,0,11,11,11,1,130,85,,,,,,,,
,,5c55c7cb9b583c000159f790,65af55d03505e22b54cd2196,2024-01-23_07h00.44.044,bars,2023.2.3,Win32,59.88023952,657b66ea316d21385b68909f,,,,,,,,,,,843.0416,844.0406,,,844.5405,844.7905,,118,118,,,,,,,,,,,,,,,,bars/004.png,bars/mask003.png,,,,,,,,,,,,8,2,,,,,,,4,10,4,10,,,,,,,,,,,844.0406,844.5405,844.7905,847.6734,space,2.8682,,847.6734,87,7,848.6733,848.6733,848.6808,,,,0,12,12,12,1,25,125,,,,,,,,
,,5c55c7cb9b583c000159f790,65af55d03505e22b54cd2196,2024-01-23_07h00.44.044,bars,2023.2.3,Win32,59.88023952,657b66ea316d21385b68909f,,,,,,,,,,,848.6809,849.6737,,,850.1735,850.4231,,117,117,,,,,,,,,,,,,,,,bars/004.png,bars/mask002.png,,,,,,,,,,,,5,2,,,,,,,6,8,5,7,,,,,,,,,,,849.6737,850.1735,850.4232,852.456,space,2.0254,,852.456,88,8,853.4562,853.4562,853.4567,,,,0,13,13,13,1,25,125,,,,,,,,
,,5c55c7cb9b583c000159f790,65af55d03505e22b54cd2196,2024-01-23_07h00.44.044,bars,2023.2.3,Win32,59.88023952,657b66ea316d21385b68909f,,,,,,,,,,,853.4571,854.4561,,,854.956,855.2063,,62,62,,,,,,,,,,,,,,,,bars/047.png,bars/mask009.png,,,,,,,,,,,,7,2,,,,,,,4,10,4,10,,,,,,,,,,,854.4561,854.956,855.2063,856.7723,space,1.5609,,856.7723,47,8,857.7726,857.7726,857.7732,,,,0,14,14,14,1,15,70,,,,,,,,
,,5c55c7cb9b583c000159f790,65af55d03505e22b54cd2196,2024-01-23_07h00.44.044,bars,2023.2.3,Win32,59.88023952,657b66ea316d21385b68909f,,,,,,,,,,,857.7734,858.7723,,,859.2723,859.5219,,137,137,,,,,,,,,,,,,,,,bars/005.png,bars/mask003.png,,,,,,,,,,,,9,2,,,,,,,2,10,2,10,,,,,,,,,,,858.7723,859.2723,859.5219,861.0219,space,1.4909,,861.022,53,3,862.0216,862.0216,862.0278,,,,0,15,15,15,1,10,140,,,,,,,,
,,5c55c7cb9b583c000159f790,65af55d03505e22b54cd2196,2024-01-23_07h00.44.044,bars,2023.2.3,Win32,59.88023952,657b66ea316d21385b68909f,,,,,,,,,,,862.028,863.0218,,,863.5216,863.7719,,55,55,,,,,,,,,,,,,,,,bars/041.png,bars/mask008.png,,,,,,,,,,,,0,2,,,,,,,4,10,5,8,,,,,,,,,,,863.0218,863.5215,863.772,866.1878,space,2.4119,,866.1879,35,30,867.1881,867.1881,867.1942,,,,0,16,16,16,1,20,85,,,,,,,,
,,5c55c7cb9b583c000159f790,65af55d03505e22b54cd2196,2024-01-23_07h00.44.044,bars,2023.2.3,Win32,59.88023952,657b66ea316d21385b68909f,,,,,,,,,,,867.1943,868.188,,,868.6876,868.938,,60,60,,,,,,,,,,,,,,,,bars/011.png,bars/mask005.png,,,,,,,,,,,,1,2,,,,,,,6,10,9,9,,,,,,,,,,,868.188,868.6876,868.938,869.4543,space,0.4995,,869.4544,80,25,870.4546,870.4547,870.4553,,,,0,17,17,17,1,160,85,,,,,,,,
,,5c55c7cb9b583c000159f790,65af55d03505e22b54cd2196,2024-01-23_07h00.44.044,bars,2023.2.3,Win32,59.88023952,657b66ea316d21385b68909f,,,,,,,,,,,870.4556,871.4544,,,871.9544,872.2042,,152,-28,,,,,,,,,,,,,,,,bars/001.png,bars/mask000.png,,,,,,,,,,,,2,1,,,,,,,8,8,7,9,,,,,,,,,,,871.4544,871.9543,872.2042,875.0709,space,2.8502,,875.0709,22,67,876.0708,876.0709,876.0778,,,,0,18,18,18,1,130,85,,,,,,,,
,,5c55c7cb9b583c000159f790,65af55d03505e22b54cd2196,2024-01-23_07h00.44.044,bars,2023.2.3,Win32,59.88023952,657b66ea316d21385b68909f,,,,,,,,,,,876.078,877.0706,,,877.5705,877.8203,,26,26,,,,,,,,,,,,,,,,bars/032.png,bars/mask008.png,,,,,,,,,,,,7,2,,,,,,,6,10,7,9,,,,,,,,,,,877.0707,877.5705,877.8204,879.9199,space,2.0834,,879.9199,81,6,880.9202,880.9202,880.9273,,,,0,19,19,19,1,125,20,,,,,,,,
,,5c55c7cb9b583c000159f790,65af55d03505e22b54cd2196,2024-01-23_07h00.44.044,bars,2023.2.3,Win32,59.88023952,657b66ea316d21385b68909f,,,,,,,,,,,880.9273,881.9196,,,882.4201,882.6699,,45,45,,,,,,,,,,,,,,,,bars/010.png,bars/mask008.png,,,,,,,,,,,,6,2,,,,,,,4,8,4,9,,,,,,,,,,,881.9196,882.4201,882.6699,883.4695,space,0.7935,,883.4696,60,10,884.4696,884.4697,884.4703,,,,0,20,20,20,1,165,55,,,,,,,,
,,5c55c7cb9b583c000159f790,65af55d03505e22b54cd2196,2024-01-23_07h00.44.044,bars,2023.2.3,Win32,59.88023952,657b66ea316d21385b68909f,,,,,,,,,,,884.4705,885.4693,,,885.9692,886.2191,,13,13,,,,,,,,,,,,,,,,bars/047.png,bars/mask000.png,,,,,,,,,,,,3,1,,,,,,,2,10,3,10,,,,,,,,,,,885.4693,885.9692,886.2191,887.2697,space,1.0326,,887.2698,2,57,888.2695,888.2695,888.2709,,,,0,21,21,21,1,15,70,,,,,,,,
,,5c55c7cb9b583c000159f790,65af55d03505e22b54cd2196,2024-01-23_07h00.44.044,bars,2023.2.3,Win32,59.88023952,657b66ea316d21385b68909f,,,,,,,,,,,888.271,889.2696,,,889.7695,890.0191,,44,44,,,,,,,,,,,,,,,,bars/047.png,bars/mask006.png,,,,,,,,,,,,1,2,,,,,,,4,10,4,9,,,,,,,,,,,889.2696,889.7694,890.0191,891.569,space,1.54,,891.569,29,26,892.5686,892.5686,892.5751,,,,0,22,22,22,1,15,70,,,,,,,,
,,5c55c7cb9b583c000159f790,65af55d03505e22b54cd2196,2024-01-23_07h00.44.044,bars,2023.2.3,Win32,59.88023952,657b66ea316d21385b68909f,,,,,,,,,,,892.5752,893.5688,,,894.0687,894.3186,,78,78,,,,,,,,,,,,,,,,bars/034.png,bars/mask007.png,,,,,,,,,,,,5,2,,,,,,,6,8,5,8,,,,,,,,,,,893.5688,894.0687,894.3186,895.6183,space,1.2841,,895.6183,47,13,896.6186,896.6187,896.6193,,,,0,23,23,23,1,125,65,,,,,,,,
,,5c55c7cb9b583c000159f790,65af55d03505e22b54cd2196,2024-01-23_07h00.44.044,bars,2023.2.3,Win32,59.88023952,657b66ea316d21385b68909f,,,,,,,,,,,896.6195,897.6182,,,898.118,898.3681,,1,1,,,,,,,,,,,,,,,,bars/008.png,bars/mask006.png,,,,,,,,,,,,10,2,,,,,,,4,10,2,10,,,,,,,,,,,897.6182,898.118,898.3682,900.8344,space,2.4623,,900.8344,71,1,901.8347,901.8347,901.8354,,,,0,24,24,24,1,110,0,,,,,,,,
,,5c55c7cb9b583c000159f790,65af55d03505e22b54cd2196,2024-01-23_07h00.44.044,bars,2023.2.3,Win32,59.88023952,657b66ea316d21385b68909f,,,,,,,,,,,901.8355,902.8344,,,903.3344,903.584,,36,36,,,,,,,,,,,,,,,,bars/033.png,bars/mask004.png,,,,,,,,,,,,1,1,,,,,,,2,8,2,9,,,,,,,,,,,902.8344,903.3344,903.584,905.6338,space,2.0466,,905.6338,11,61,906.6343,906.6343,906.641,,,,0,25,25,25,1,25,155,,,,,,,,
,,5c55c7cb9b583c000159f790,65af55d03505e22b54cd2196,2024-01-23_07h00.44.044,bars,2023.2.3,Win32,59.88023952,657b66ea316d21385b68909f,,,,,,,,,,,906.6411,907.6339,,,908.1339,908.3837,,115,115,,,,,,,,,,,,,,,,bars/021.png,bars/mask008.png,,,,,,,,,,,,0,1,,,,,,,4,10,4,10,,,,,,,,,,,907.6339,908.1339,908.3837,911.15,space,2.7572,,911.15,40,45,912.1498,912.1498,912.1559,,,,0,26,26,26,1,155,70,,,,,,,,
,,5c55c7cb9b583c000159f790,65af55d03505e22b54cd2196,2024-01-23_07h00.44.044,bars,2023.2.3,Win32,59.88023952,657b66ea316d21385b68909f,,,,,,,,,,,912.156,913.15,,,913.65,913.8998,,82,82,,,,,,,,,,,,,,,,bars/043.png,bars/mask008.png,,,,,,,,,,,,0,2,,,,,,,6,8,5,7,,,,,,,,,,,913.15,913.6499,913.8998,914.3665,space,0.451,,914.3667,52,48,915.3661,915.3662,915.3674,,,,0,27,27,27,1,30,130,,,,,,,,
,,5c55c7cb9b583c000159f790,65af55d03505e22b54cd2196,2024-01-23_07h00.44.044,bars,2023.2.3,Win32,59.88023952,657b66ea316d21385b68909f,,,,,,,,,,,915.3675,916.3662,,,916.8663,917.1165,,54,54,,,,,,,,,,,,,,,,bars/025.png,bars/mask002.png,,,,,,,,,,,,5,2,,,,,,,8,10,7,10,,,,,,,,,,,916.3662,916.8663,917.1165,918.1658,space,1.0375,,918.1658,51,14,919.166,919.1661,919.167,,,,0,28,28,28,1,105,40,,,,,,,,
,,5c55c7cb9b583c000159f790,65af55d03505e22b54cd2196,2024-01-23_07h00.44.044,bars,2023.2.3,Win32,59.88023952,657b66ea316d21385b68909f,,,,,,,,,,,919.1672,920.1659,,,920.6659,920.9155,,106,106,,,,,,,,,,,,,,,,bars/023.png,bars/mask005.png,,,,,,,,,,,,5,2,,,,,,,10,8,10,7,,,,,,,,,,,920.1659,920.6659,920.9155,924.0656,space,3.1345,,924.0656,86,9,925.0656,925.0656,925.0718,,,,0,29,29,29,1,20,115,,,,,,,,
,,5c55c7cb9b583c000159f790,65af55d03505e22b54cd2196,2024-01-23_07h00.44.044,bars,2023.2.3,Win32,59.88023952,657b66ea316d21385b68909f,,,,,,,,,,,925.072,926.0653,,,926.5653,926.8153,,96,96,,,,,,,,,,,,,,,,bars/041.png,bars/mask002.png,,,,,,,,,,,,4,2,,,,,,,8,6,8,7,,,,,,,,,,,926.0654,926.5653,926.8153,927.9648,space,1.1464,,927.9648,76,11,928.9651,928.9651,928.966,,,,0,30,30,30,1,20,85,,,,,,,,
,,5c55c7cb9b583c000159f790,65af55d03505e22b54cd2196,2024-01-23_07h00.44.044,bars,2023.2.3,Win32,59.88023952,657b66ea316d21385b68909f,,,,,,,,,,,928.9661,929.9649,,,930.4651,930.7149,,127,127,,,,,,,,,,,,,,,,bars/019.png,bars/mask007.png,,,,,,,,,,,,1,2,,,,,,,10,4,10,5,,,,,,,,,,,929.965,930.4651,930.7149,932.9646,space,2.2336,,932.9647,82,22,933.9645,933.9645,933.9707,,,,0,31,31,31,1,45,105,,,,,,,,
,,5c55c7cb9b583c000159f790,65af55d03505e22b54cd2196,2024-01-23_07h00.44.044,bars,2023.2.3,Win32,59.88023952,657b66ea316d21385b68909f,,,,,,,,,,,933.9708,934.9642,,,935.4643,935.7145,,101,101,,,,,,,,,,,,,,,,bars/009.png,bars/mask003.png,,,,,,,,,,,,2,2,,,,,,,10,2,10,2,,,,,,,,,,,934.9642,935.4643,935.7145,938.9304,space,3.2093,,938.9305,86,4,939.931,939.931,939.9372,,,,0,32,32,32,1,15,105,,,,,,,,
,,5c55c7cb9b583c000159f790,65af55d03505e22b54cd2196,2024-01-23_07h00.44.044,bars,2023.2.3,Win32,59.88023952,657b66ea316d21385b68909f,,,,,,,,,,,939.9374,940.9307,,,941.4304,941.6801,,150,150,,,,,,,,,,,,,,,,bars/005.png,bars/mask004.png,,,,,,,,,,,,4,2,,,,,,,10,4,10,6,,,,,,,,,,,940.9307,941.4304,941.6801,942.3633,space,0.68,,942.3633,40,10,943.3632,943.3632,943.3638,,,,0,33,33,33,1,10,140,,,,,,,,
,,5c55c7cb9b583c000159f790,65af55d03505e22b54cd2196,2024-01-23_07h00.44.044,bars,2023.2.3,Win32,59.88023952,657b66ea316d21385b68909f,,,,,,,,,,,943.3639,944.3635,,,944.8634,945.1133,,178,178,,,,,,,,,,,,,,,,bars/011.png,bars/mask009.png,,,,,,,,,,,,2,1,,,,,,,8,6,6,7,,,,,,,,,,,944.3635,944.8634,945.1133,945.6463,space,0.5275,,945.6463,18,87,946.6468,946.6468,946.6479,,,,0,34,34,34,1,160,85,,,,,,,,
,,5c55c7cb9b583c000159f790,65af55d03505e22b54cd2196,2024-01-23_07h00.44.044,bars,2023.2.3,Win32,59.88023952,657b66ea316d21385b68909f,,,,,,,,,,,946.648,947.6464,,,948.1463,948.3963,,29,29,,,,,,,,,,,,,,,,bars/021.png,bars/mask001.png,,,,,,,,,,,,0,2,,,,,,,6,8,7,7,,,,,,,,,,,947.6464,948.1463,948.3963,949.296,space,0.8953,,949.296,54,41,950.2961,950.2961,950.2976,,,,0,35,35,35,1,155,70,,,,,,,,
,,5c55c7cb9b583c000159f790,65af55d03505e22b54cd2196,2024-01-23_07h00.44.044,bars,2023.2.3,Win32,59.88023952,657b66ea316d21385b68909f,,,,,,,,,,,950.2977,951.2959,,,951.796,952.0459,,136,136,,,,,,,,,,,,,,,,bars/004.png,bars/mask006.png,,,,,,,,,,,,6,2,,,,,,,8,10,9,10,,,,,,,,,,,951.2959,951.7959,952.046,954.1289,space,2.0739,,954.1289,69,11,955.1288,955.1289,955.135,,,,0,36,36,36,1,25,125,,,,,,,,
,,5c55c7cb9b583c000159f790,65af55d03505e22b54cd2196,2024-01-23_07h00.44.044,bars,2023.2.3,Win32,59.88023952,657b66ea316d21385b68909f,,,,,,,,,,,955.1351,956.1288,,,956.6286,956.8785,,100,100,,,,,,,,,,,,,,,,bars/002.png,bars/mask001.png,,,,,,,,,,,,4,2,,,,,,,10,8,10,8,,,,,,,,,,,956.1288,956.6285,956.8785,959.562,space,2.6673,,959.562,30,15,960.5617,960.5617,960.5678,,,,0,37,37,37,1,130,85,,,,,,,,
,,5c55c7cb9b583c000159f790,65af55d03505e22b54cd2196,2024-01-23_07h00.44.044,bars,2023.2.3,Win32,59.88023952,657b66ea316d21385b68909f,,,,,,,,,,,960.5679,961.5617,,,962.0619,962.3117,,109,109,,,,,,,,,,,,,,,,bars/005.png,bars/mask003.png,,,,,,,,,,,,0,2,,,,,,,8,10,9,10,,,,,,,,,,,961.5617,962.0617,962.3118,964.3778,space,2.0543,,964.3779,81,31,965.3776,965.3776,965.3782,,,,0,38,38,38,1,10,140,,,,,,,,
,,5c55c7cb9b583c000159f790,65af55d03505e22b54cd2196,2024-01-23_07h00.44.044,bars,2023.2.3,Win32,59.88023952,657b66ea316d21385b68909f,,,,,,,,,,,965.3785,966.3775,,,966.8777,967.1277,,90,90,,,,,,,,,,,,,,,,bars/018.png,bars/mask007.png,,,,,,,,,,,,9,2,,,,,,,6,8,5,9,,,,,,,,,,,966.3775,966.8777,967.1277,969.2609,space,2.1184,,969.2609,60,0,970.2605,970.2605,970.2666,,,,0,39,39,39,1,150,90,,,,,,,,
,,5c55c7cb9b583c000159f790,65af55d03505e22b54cd2196,2024-01-23_07h00.44.044,bars,2023.2.3,Win32,59.88023952,657b66ea316d21385b68909f,,,,,,,,,,,970.2667,971.2605,,,971.7606,972.0105,,114,114,,,,,,,,,,,,,,,,bars/040.png,bars/mask000.png,,,,,,,,,,,,1,1,,,,,,,4,6,4,6,,,,,,,,,,,971.2606,971.7606,972.0105,973.9103,space,1.8834,,973.9103,26,71,974.9104,974.9104,974.9171,,,,0,40,40,40,1,140,5,,,,,,,,
,,5c55c7cb9b583c000159f790,65af55d03505e22b54cd2196,2024-01-23_07h00.44.044,bars,2023.2.3,Win32,59.88023952,657b66ea316d21385b68909f,,,,,,,,,,,974.9173,975.9101,,,976.41,976.6602,,115,115,,,,,,,,,,,,,,,,bars/026.png,bars/mask005.png,,,,,,,,,,,,0,2,,,,,,,2,8,2,8,,,,,,,,,,,975.9101,976.41,976.6602,977.3602,space,0.6911,,977.3603,80,30,978.3599,978.3599,978.3614,,,,0,41,41,41,1,35,85,,,,,,,,
,,5c55c7cb9b583c000159f790,65af55d03505e22b54cd2196,2024-01-23_07h00.44.044,bars,2023.2.3,Win32,59.88023952,657b66ea316d21385b68909f,,,,,,,,,,,978.3615,979.3598,,,979.8598,980.1099,,121,121,,,,,,,,,,,,,,,,bars/045.png,bars/mask002.png,,,,,,,,,,,,1,1,,,,,,,4,10,2,10,,,,,,,,,,,979.3598,979.8597,980.1099,981.743,space,1.6171,,981.743,21,69,982.743,982.743,982.7495,,,,0,42,42,42,1,100,10,,,,,,,,
,,5c55c7cb9b583c000159f790,65af55d03505e22b54cd2196,2024-01-23_07h00.44.044,bars,2023.2.3,Win32,59.88023952,657b66ea316d21385b68909f,,,,,,,,,,,982.7496,983.7429,,,984.2429,984.4924,,101,101,,,,,,,,,,,,,,,,bars/025.png,bars/mask006.png,,,,,,,,,,,,5,1,,,,,,,6,8,6,8,,,,,,,,,,,983.7429,984.2428,984.4924,988.8086,space,4.3013,,988.8087,4,61,989.8084,989.8084,989.8144,,,,0,43,43,43,1,105,40,,,,,,,,
,,5c55c7cb9b583c000159f790,65af55d03505e22b54cd2196,2024-01-23_07h00.44.044,bars,2023.2.3,Win32,59.88023952,657b66ea316d21385b68909f,,,,,,,,,,,989.8146,990.809,,,991.3086,991.5585,,93,93,,,,,,,,,,,,,,,,bars/002.png,bars/mask002.png,,,,,,,,,,,,7,2,,,,,,,4,10,5,10,,,,,,,,,,,990.809,991.3085,991.5585,993.2915,space,1.7255,,993.2916,37,8,994.2915,994.2916,994.2985,,,,0,44,44,44,1,130,85,,,,,,,,
,,5c55c7cb9b583c000159f790,65af55d03505e22b54cd2196,2024-01-23_07h00.44.044,bars,2023.2.3,Win32,59.88023952,657b66ea316d21385b68909f,,,,,,,,,,,994.2986,995.2915,,,995.7914,996.0414,,95,95,,,,,,,,,,,,,,,,bars/031.png,bars/mask008.png,,,,,,,,,,,,0,1,,,,,,,2,8,2,8,,,,,,,,,,,995.2916,995.7914,996.0414,997.8576,space,1.8037,,997.8577,25,60,998.8579,998.8579,998.8645,,,,0,45,45,45,1,120,35,,,,,,,,
,,5c55c7cb9b583c000159f790,65af55d03505e22b54cd2196,2024-01-23_07h00.44.044,bars,2023.2.3,Win32,59.88023952,657b66ea316d21385b68909f,,,,,,,,,,,998.8647,999.8577,,,1000.3576,1000.6078,,142,142,,,,,,,,,,,,,,,,bars/040.png,bars/mask002.png,,,,,,,,,,,,0,1,,,,,,,0,10,0,10,,,,,,,,,,,999.8577,1000.3576,1000.6078,1002.8237,space,2.2131,,1002.8237,2,43,1003.824,1003.824,1003.8245,,,,0,46,46,46,1,140,5,,,,,,,,
,,5c55c7cb9b583c000159f790,65af55d03505e22b54cd2196,2024-01-23_07h00.44.044,bars,2023.2.3,Win32,59.88023952,657b66ea316d21385b68909f,,,,,,,,,,,1003.8248,1004.8245,,,1005.3237,1005.5738,,31,31,,,,,,,,,,,,,,,,bars/031.png,bars/mask008.png,,,,,,,,,,,,6,2,,,,,,,0,8,0,7,,,,,,,,,,,1004.8246,1005.3237,1005.5738,1008.7401,space,3.1545,,1008.7402,89,4,1009.7396,1009.7396,1009.7464,,,,0,47,47,47,1,120,35,,,,,,,,
,,5c55c7cb9b583c000159f790,65af55d03505e22b54cd2196,2024-01-23_07h00.44.044,bars,2023.2.3,Win32,59.88023952,657b66ea316d21385b68909f,,,,,,,,,,,1009.7466,1010.7399,,,1011.2399,1011.4898,,31,211,,,,,,,,,,,,,,,,bars/031.png,bars/mask008.png,,,,,,,,,,,,9,2,,,,,,,0,10,0,10,,,,,,,,,,,1010.7399,1011.2399,1011.4898,1014.2731,space,2.769,,1014.2732,89,4,1015.2727,1015.2727,1015.2787,,,,0,48,48,48,1,120,35,,,,,,,,
,,5c55c7cb9b583c000159f790,65af55d03505e22b54cd2196,2024-01-23_07h00.44.044,bars,2023.2.3,Win32,59.88023952,657b66ea316d21385b68909f,,,,,,,,,,,1015.2788,1016.2726,,,1016.7726,1017.0225,,148,148,,,,,,,,,,,,,,,,bars/004.png,bars/mask006.png,,,,,,,,,,,,2,2,,,,,,,2,8,2,10,,,,,,,,,,,1016.2727,1016.7726,1017.0225,1019.6552,space,2.6168,,1019.6553,57,23,1020.6555,1020.6555,1020.6616,,,,0,49,49,49,1,25,125,,,,,,,,
,,5c55c7cb9b583c000159f790,65af55d03505e22b54cd2196,2024-01-23_07h00.44.044,bars,2023.2.3,Win32,59.88023952,657b66ea316d21385b68909f,,,,,,,,,,,,,,,,,,,,,,,,,,,,,,,,,,,,,,,,,,,,,,,,,,,,,,,,,,,,,,,,,,,,,,,,,,,,,,,,,,,,,,,,,,,,,1020.6616,1080.6493,0,1,1,1,1,sequence_tables/blk037.csv
,,5c55c7cb9b583c000159f790,65af55d03505e22b54cd2196,2024-01-23_07h00.44.044,bars,2023.2.3,Win32,59.88023952,657b66ea316d21385b68909f,,,,,,,,,,,1081.3016,1082.2993,,,1082.7992,1083.049,,73,73,,,,,,,,,,,,,,,,bars/021.png,bars/mask007.png,,,,,,,,,,,,0,2,,,,,,,6,1,6,0,,,,,,1080.6557,1081.299,space,0.6368,,1082.2993,1082.7992,1083.049,1086.3654,space,3.3019,,1086.3654,82,3,1087.3652,1087.3653,1087.3718,,,,0,0,0,0,1,155,70,,,,,,,,
,,5c55c7cb9b583c000159f790,65af55d03505e22b54cd2196,2024-01-23_07h00.44.044,bars,2023.2.3,Win32,59.88023952,657b66ea316d21385b68909f,,,,,,,,,,,1087.3719,1088.3651,,,1088.8657,1089.1149,,52,232,,,,,,,,,,,,,,,,bars/010.png,bars/mask006.png,,,,,,,,,,,,3,2,,,,,,,8,3,8,3,,,,,,,,,,,1088.3652,1088.8656,1089.115,1093.9643,space,4.8391,,1093.9643,67,3,1094.9645,1094.9646,1094.9706,,,,0,1,1,1,1,165,55,,,,,,,,
,,5c55c7cb9b583c000159f790,65af55d03505e22b54cd2196,2024-01-23_07h00.44.044,bars,2023.2.3,Win32,59.88023952,657b66ea316d21385b68909f,,,,,,,,,,,1094.9707,1095.9643,,,1096.4641,1096.7142,,85,85,,,,,,,,,,,,,,,,bars/018.png,bars/mask005.png,,,,,,,,,,,,5,2,,,,,,,10,5,10,6,,,,,,,,,,,1095.9644,1096.4641,1096.7143,1100.2473,space,3.5168,,1100.2473,65,5,1101.2471,1101.2471,1101.2531,,,,0,2,2,2,1,150,90,,,,,,,,
,,5c55c7cb9b583c000159f790,65af55d03505e22b54cd2196,2024-01-23_07h00.44.044,bars,2023.2.3,Win32,59.88023952,657b66ea316d21385b68909f,,,,,,,,,,,1101.2532,1102.247,,,1102.7471,1102.9967,,85,85,,,,,,,,,,,,,,,,bars/006.png,bars/mask006.png,,,,,,,,,,,,1,2,,,,,,,10,3,9,2,,,,,,,,,,,1102.2471,1102.747,1102.9967,1106.3297,space,3.3282,,1106.3298,50,15,1107.3298,1107.3298,1107.3359,,,,0,3,3,3,1,35,100,,,,,,,,
,,5c55c7cb9b583c000159f790,65af55d03505e22b54cd2196,2024-01-23_07h00.44.044,bars,2023.2.3,Win32,59.88023952,657b66ea316d21385b68909f,,,,,,,,,,,1107.336,1108.3298,,,1108.8298,1109.0794,,53,53,,,,,,,,,,,,,,,,bars/029.png,bars/mask002.png,,,,,,,,,,,,1,2,,,,,,,8,1,7,1,,,,,,,,,,,1108.3299,1108.8298,1109.0794,1111.3962,space,2.3003,,1111.3962,37,8,1112.3958,1112.3958,1112.3962,,,,0,4,4,4,1,90,45,,,,,,,,
,,5c55c7cb9b583c000159f790,65af55d03505e22b54cd2196,2024-01-23_07h00.44.044,bars,2023.2.3,Win32,59.88023952,657b66ea316d21385b68909f,,,,,,,,,,,1112.3965,1113.3956,,,1113.8959,1114.1455,,156,156,,,,,,,,,,,,,,,,bars/024.png,bars/mask006.png,,,,,,,,,,,,0,2,,,,,,,6,0,6,0,,,,,,,,,,,1113.3956,1113.8958,1114.1455,1117.7618,space,3.6122,,1117.7618,36,14,1118.7619,1118.7619,1118.7678,,,,0,5,5,5,1,120,170,,,,,,,,
,,5c55c7cb9b583c000159f790,65af55d03505e22b54cd2196,2024-01-23_07h00.44.044,bars,2023.2.3,Win32,59.88023952,657b66ea316d21385b68909f,,,,,,,,,,,1118.7679,1119.7621,,,1120.2622,1120.5115,,135,135,,,,,,,,,,,,,,,,bars/009.png,bars/mask007.png,,,,,,,,,,,,0,2,,,,,,,8,0,7,1,,,,,,,,,,,1119.7621,1120.2621,1120.5115,1123.0446,space,2.5268,,1123.0446,60,30,1124.0448,1124.0448,1124.0509,,,,0,6,6,6,1,15,105,,,,,,,,
,,5c55c7cb9b583c000159f790,65af55d03505e22b54cd2196,2024-01-23_07h00.44.044,bars,2023.2.3,Win32,59.88023952,657b66ea316d21385b68909f,,,,,,,,,,,1124.0511,1125.0447,,,1125.5446,1125.7947,,77,77,,,,,,,,,,,,,,,,bars/021.png,bars/mask000.png,,,,,,,,,,,,2,2,,,,,,,10,2,10,3,,,,,,,,,,,1125.0447,1125.5446,1125.7947,1128.1107,space,2.3116,,1128.1108,78,7,1129.111,1129.111,1129.1171,,,,0,7,7,7,1,155,70,,,,,,,,
,,5c55c7cb9b583c000159f790,65af55d03505e22b54cd2196,2024-01-23_07h00.44.044,bars,2023.2.3,Win32,59.88023952,657b66ea316d21385b68909f,,,,,,,,,,,1129.1173,1130.1111,,,1130.6107,1130.8607,,129,129,,,,,,,,,,,,,,,,bars/049.png,bars/mask000.png,,,,,,,,,,,,0,2,,,,,,,8,0,9,0,,,,,,,,,,,1130.1111,1130.6107,1130.8608,1134.3436,space,3.4801,,1134.3436,31,14,1135.3436,1135.3436,1135.3502,,,,0,8,8,8,1,160,115,,,,,,,,
,,5c55c7cb9b583c000159f790,65af55d03505e22b54cd2196,2024-01-23_07h00.44.044,bars,2023.2.3,Win32,59.88023952,657b66ea316d21385b68909f,,,,,,,,,,,1135.3503,1136.3435,,,1136.8432,1137.0937,,133,133,,,,,,,,,,,,,,,,bars/020.png,bars/mask004.png,,,,,,,,,,,,3,1,,,,,,,6,0,8,0,,,,,,,,,,,1136.3435,1136.8432,1137.0937,1139.9096,space,2.8086,,1139.9097,18,37,1140.9098,1140.9098,1140.9167,,,,0,9,9,9,1,115,170,,,,,,,,
,,5c55c7cb9b583c000159f790,65af55d03505e22b54cd2196,2024-01-23_07h00.44.044,bars,2023.2.3,Win32,59.88023952,657b66ea316d21385b68909f,,,,,,,,,,,1140.9168,1141.9097,,,1142.4095,1142.6595,,45,45,,,,,,,,,,,,,,,,bars/035.png,bars/mask006.png,,,,,,,,,,,,0,2,,,,,,,4,2,3,0,,,,,,,,,,,1141.9097,1142.4095,1142.6595,1145.1256,space,2.4543,,1145.1257,50,15,1146.1258,1146.1259,1146.1325,,,,0,10,10,10,1,175,60,,,,,,,,
,,5c55c7cb9b583c000159f790,65af55d03505e22b54cd2196,2024-01-23_07h00.44.044,bars,2023.2.3,Win32,59.88023952,657b66ea316d21385b68909f,,,,,,,,,,,1146.1327,1147.1257,,,1147.6256,1147.8757,,130,130,,,,,,,,,,,,,,,,bars/014.png,bars/mask003.png,,,,,,,,,,,,0,2,,,,,,,2,0,2,1,,,,,,,,,,,1147.1257,1147.6256,1147.8757,1148.4921,space,0.6083,,1148.4921,50,50,1149.492,1149.492,1149.4927,,,,0,11,11,11,1,80,0,,,,,,,,
,,5c55c7cb9b583c000159f790,65af55d03505e22b54cd2196,2024-01-23_07h00.44.044,bars,2023.2.3,Win32,59.88023952,657b66ea316d21385b68909f,,,,,,,,,,,1149.4928,1150.4918,,,1150.992,1151.2422,,129,129,,,,,,,,,,,,,,,,bars/015.png,bars/mask001.png,,,,,,,,,,,,2,1,,,,,,,4,2,6,2,,,,,,,,,,,1150.4918,1150.9919,1151.2422,1153.2914,space,2.0421,,1153.2915,19,31,1154.2916,1154.2917,1154.2929,,,,0,12,12,12,1,110,160,,,,,,,,
,,5c55c7cb9b583c000159f790,65af55d03505e22b54cd2196,2024-01-23_07h00.44.044,bars,2023.2.3,Win32,59.88023952,657b66ea316d21385b68909f,,,,,,,,,,,1154.2931,1155.2915,,,1155.7916,1156.0415,,60,60,,,,,,,,,,,,,,,,bars/037.png,bars/mask002.png,,,,,,,,,,,,0,2,,,,,,,2,0,2,2,,,,,,,,,,,1155.2915,1155.7916,1156.0415,1156.9245,space,0.8783,,1156.9245,90,45,1157.9249,1157.9249,1157.9263,,,,0,13,13,13,1,150,105,,,,,,,,
,,5c55c7cb9b583c000159f790,65af55d03505e22b54cd2196,2024-01-23_07h00.44.044,bars,2023.2.3,Win32,59.88023952,657b66ea316d21385b68909f,,,,,,,,,,,1157.9264,1158.9245,,,1159.4243,1159.6741,,134,134,,,,,,,,,,,,,,,,bars/030.png,bars/mask006.png,,,,,,,,,,,,5,1,,,,,,,4,0,6,0,,,,,,,,,,,1158.9245,1159.4241,1159.6741,1160.6745,space,0.9832,,1160.6745,6,69,1161.6739,1161.674,1161.6751,,,,0,14,14,14,1,140,65,,,,,,,,
,,5c55c7cb9b583c000159f790,65af55d03505e22b54cd2196,2024-01-23_07h00.44.044,bars,2023.2.3,Win32,59.88023952,657b66ea316d21385b68909f,,,,,,,,,,,1161.6753,1162.6744,,,1163.1743,1163.4237,,152,152,,,,,,,,,,,,,,,,bars/048.png,bars/mask009.png,,,,,,,,,,,,1,2,,,,,,,6,2,6,3,,,,,,,,,,,1162.6744,1163.1743,1163.4238,1165.1407,space,1.6996,,1165.1408,78,23,1166.1403,1166.1404,1166.1417,,,,0,15,15,15,1,50,175,,,,,,,,
,,5c55c7cb9b583c000159f790,65af55d03505e22b54cd2196,2024-01-23_07h00.44.044,bars,2023.2.3,Win32,59.88023952,657b66ea316d21385b68909f,,,,,,,,,,,1166.1419,1167.1403,,,1167.6403,1167.8899,,177,177,,,,,,,,,,,,,,,,bars/007.png,bars/mask006.png,,,,,,,,,,,,8,1,,,,,,,8,4,9,2,,,,,,,,,,,1167.1404,1167.6403,1167.8899,1169.823,space,1.9283,,1169.823,2,58,1170.8237,1170.8237,1170.8306,,,,0,16,16,16,1,175,55,,,,,,,,
,,5c55c7cb9b583c000159f790,65af55d03505e22b54cd2196,2024-01-23_07h00.44.044,bars,2023.2.3,Win32,59.88023952,657b66ea316d21385b68909f,,,,,,,,,,,1170.8307,1171.8232,,,1172.3232,1172.5731,,163,163,,,,,,,,,,,,,,,,bars/009.png,bars/mask004.png,,,,,,,,,,,,0,1,,,,,,,6,2,5,1,,,,,,,,,,,1171.8232,1172.3232,1172.5731,1175.5896,space,3.0001,,1175.5896,32,58,1176.5893,1176.5893,1176.5954,,,,0,17,17,17,1,15,105,,,,,,,,
,,5c55c7cb9b583c000159f790,65af55d03505e22b54cd2196,2024-01-23_07h00.44.044,bars,2023.2.3,Win32,59.88023952,657b66ea316d21385b68909f,,,,,,,,,,,1176.5955,1177.5889,,,1178.0893,1178.3391,,161,161,,,,,,,,,,,,,,,,bars/007.png,bars/mask004.png,,,,,,,,,,,,2,1,,,,,,,4,0,4,0,,,,,,,,,,,1177.589,1178.0893,1178.3391,1178.8392,space,0.4839,,1178.8392,14,74,1179.8386,1179.8386,1179.8393,,,,0,18,18,18,1,175,55,,,,,,,,
,,5c55c7cb9b583c000159f790,65af55d03505e22b54cd2196,2024-01-23_07h00.44.044,bars,2023.2.3,Win32,59.88023952,657b66ea316d21385b68909f,,,,,,,,,,,1179.8394,1180.8388,,,1181.3389,1181.5885,,96,96,,,,,,,,,,,,,,,,bars/026.png,bars/mask005.png,,,,,,,,,,,,1,2,,,,,,,6,2,6,2,,,,,,,,,,,1180.8389,1181.3388,1181.5885,1183.9883,space,2.3957,,1183.9884,61,11,1184.9887,1184.9887,1184.9951,,,,0,19,19,19,1,35,85,,,,,,,,
,,5c55c7cb9b583c000159f790,65af55d03505e22b54cd2196,2024-01-23_07h00.44.044,bars,2023.2.3,Win32,59.88023952,657b66ea316d21385b68909f,,,,,,,,,,,1184.9952,1185.9885,,,1186.4886,1186.7382,,132,132,,,,,,,,,,,,,,,,bars/018.png,bars/mask007.png,,,,,,,,,,,,3,1,,,,,,,8,4,7,6,,,,,,,,,,,1185.9886,1186.4885,1186.7382,1189.0214,space,2.2769,,1189.0215,18,42,1190.0214,1190.0214,1190.0279,,,,0,20,20,20,1,150,90,,,,,,,,
,,5c55c7cb9b583c000159f790,65af55d03505e22b54cd2196,2024-01-23_07h00.44.044,bars,2023.2.3,Win32,59.88023952,657b66ea316d21385b68909f,,,,,,,,,,,1190.028,1191.0215,,,1191.5213,1191.7711,,70,70,,,,,,,,,,,,,,,,bars/018.png,bars/mask003.png,,,,,,,,,,,,3,2,,,,,,,10,6,9,8,,,,,,,,,,,1191.0215,1191.5213,1191.7711,1194.1375,space,2.3542,,1194.1376,80,20,1195.1371,1195.1371,1195.1438,,,,0,21,21,21,1,150,90,,,,,,,,
,,5c55c7cb9b583c000159f790,65af55d03505e22b54cd2196,2024-01-23_07h00.44.044,bars,2023.2.3,Win32,59.88023952,657b66ea316d21385b68909f,,,,,,,,,,,1195.144,1196.1374,,,1196.6377,1196.8872,,97,97,,,,,,,,,,,,,,,,bars/041.png,bars/mask006.png,,,,,,,,,,,,2,2,,,,,,,8,4,8,4,,,,,,,,,,,1196.1375,1196.6376,1196.8872,1200.6365,space,3.7383,,1200.6366,77,12,1201.6369,1201.6369,1201.6431,,,,0,22,22,22,1,20,85,,,,,,,,
,,5c55c7cb9b583c000159f790,65af55d03505e22b54cd2196,2024-01-23_07h00.44.044,bars,2023.2.3,Win32,59.88023952,657b66ea316d21385b68909f,,,,,,,,,,,1201.6431,1202.6365,,,1203.1366,1203.3863,,164,-16,,,,,,,,,,,,,,,,bars/016.png,bars/mask006.png,,,,,,,,,,,,1,2,,,,,,,10,2,10,1,,,,,,,,,,,1202.6366,1203.1366,1203.3863,1207.086,space,3.6892,,1207.086,56,1,1208.086,1208.086,1208.0922,,,,0,23,23,23,1,40,165,,,,,,,,
,,5c55c7cb9b583c000159f790,65af55d03505e22b54cd2196,2024-01-23_07h00.44.044,bars,2023.2.3,Win32,59.88023952,657b66ea316d21385b68909f,,,,,,,,,,,1208.0924,1209.0856,,,1209.5859,1209.836,,65,65,,,,,,,,,,,,,,,,bars/011.png,bars/mask002.png,,,,,,,,,,,,1,2,,,,,,,10,4,10,4,,,,,,,,,,,1209.0856,1209.5859,1209.8361,1210.4356,space,0.5923,,1210.4357,85,20,1211.4357,1211.4358,1211.4362,,,,0,24,24,24,1,160,85,,,,,,,,
,,5c55c7cb9b583c000159f790,65af55d03505e22b54cd2196,2024-01-23_07h00.44.044,bars,2023.2.3,Win32,59.88023952,657b66ea316d21385b68909f,,,,,,,,,,,1211.4364,1212.4355,,,1212.9354,1213.1853,,117,117,,,,,,,,,,,,,,,,bars/007.png,bars/mask009.png,,,,,,,,,,,,0,1,,,,,,,10,6,9,5,,,,,,,,,,,1212.4355,1212.9354,1213.1853,1215.6353,space,2.4475,,1215.6353,58,62,1216.6349,1216.6349,1216.636,,,,0,25,25,25,1,175,55,,,,,,,,
,,5c55c7cb9b583c000159f790,65af55d03505e22b54cd2196,2024-01-23_07h00.44.044,bars,2023.2.3,Win32,59.88023952,657b66ea316d21385b68909f,,,,,,,,,,,1216.6361,1217.6351,,,1218.1349,1218.3846,,53,233,,,,,,,,,,,,,,,,bars/002.png,bars/mask008.png,,,,,,,,,,,,0,2,,,,,,,10,8,10,9,,,,,,,,,,,1217.6351,1218.1349,1218.3846,1222.2843,space,3.8838,,1222.2843,77,32,1223.2845,1223.2845,1223.2912,,,,0,26,26,26,1,130,85,,,,,,,,
,,5c55c7cb9b583c000159f790,65af55d03505e22b54cd2196,2024-01-23_07h00.44.044,bars,2023.2.3,Win32,59.88023952,657b66ea316d21385b68909f,,,,,,,,,,,1223.2913,1224.2843,,,1224.7845,1225.0339,,166,166,,,,,,,,,,,,,,,,bars/008.png,bars/mask002.png,,,,,,,,,,,,5,2,,,,,,,10,10,10,10,,,,,,,,,,,1224.2843,1224.7845,1225.0339,1228.3173,space,3.2658,,1228.3173,56,14,1229.3169,1229.3169,1229.3232,,,,0,27,27,27,1,110,0,,,,,,,,
,,5c55c7cb9b583c000159f790,65af55d03505e22b54cd2196,2024-01-23_07h00.44.044,bars,2023.2.3,Win32,59.88023952,657b66ea316d21385b68909f,,,,,,,,,,,1229.3233,1230.3172,,,1230.8167,1231.0672,,169,-11,,,,,,,,,,,,,,,,bars/024.png,bars/mask000.png,,,,,,,,,,,,9,2,,,,,,,8,10,8,9,,,,,,,,,,,1230.3173,1230.8167,1231.0672,1233.6334,space,2.5571,,1233.6334,49,1,1234.633,1234.633,1234.6337,,,,0,28,28,28,1,120,170,,,,,,,,
,,5c55c7cb9b583c000159f790,65af55d03505e22b54cd2196,2024-01-23_07h00.44.044,bars,2023.2.3,Win32,59.88023952,657b66ea316d21385b68909f,,,,,,,,,,,1234.6338,1235.6331,,,1236.1336,1236.3829,,175,-5,,,,,,,,,,,,,,,,bars/033.png,bars/mask009.png,,,,,,,,,,,,3,2,,,,,,,6,8,5,8,,,,,,,,,,,1235.6331,1236.1336,1236.383,1238.8826,space,2.495,,1238.8826,30,20,1239.8827,1239.8827,1239.8889,,,,0,29,29,29,1,25,155,,,,,,,,
,,5c55c7cb9b583c000159f790,65af55d03505e22b54cd2196,2024-01-23_07h00.44.044,bars,2023.2.3,Win32,59.88023952,657b66ea316d21385b68909f,,,,,,,,,,,1239.8889,1240.8825,,,1241.3826,1241.6328,,147,147,,,,,,,,,,,,,,,,bars/004.png,bars/mask004.png,,,,,,,,,,,,3,2,,,,,,,4,10,5,10,,,,,,,,,,,1240.8825,1241.3826,1241.6328,1242.2488,space,0.5995,,1242.2489,58,22,1243.249,1243.249,1243.2496,,,,0,30,30,30,1,25,125,,,,,,,,
,,5c55c7cb9b583c000159f790,65af55d03505e22b54cd2196,2024-01-23_07h00.44.044,bars,2023.2.3,Win32,59.88023952,657b66ea316d21385b68909f,,,,,,,,,,,1243.2498,1244.2487,,,1244.7489,1244.9992,,12,192,,,,,,,,,,,,,,,,bars/012.png,bars/mask004.png,,,,,,,,,,,,8,2,,,,,,,2,8,1,9,,,,,,,,,,,1244.2487,1244.7488,1244.9992,1246.6818,space,1.6771,,1246.6818,78,3,1247.6816,1247.6816,1247.6823,,,,0,31,31,31,1,90,15,,,,,,,,
,,5c55c7cb9b583c000159f790,65af55d03505e22b54cd2196,2024-01-23_07h00.44.044,bars,2023.2.3,Win32,59.88023952,657b66ea316d21385b68909f,,,,,,,,,,,1247.6826,1248.6818,,,1249.1818,1249.4319,,42,42,,,,,,,,,,,,,,,,bars/033.png,bars/mask008.png,,,,,,,,,,,,0,1,,,,,,,0,10,0,7,,,,,,,,,,,1248.6819,1249.1818,1249.4319,1250.9646,space,1.5288,,1250.9646,17,67,1251.9646,1251.9646,1251.9657,,,,0,32,32,32,1,25,155,,,,,,,,
,,5c55c7cb9b583c000159f790,65af55d03505e22b54cd2196,2024-01-23_07h00.44.044,bars,2023.2.3,Win32,59.88023952,657b66ea316d21385b68909f,,,,,,,,,,,1251.9658,1252.9647,,,1253.4647,1253.7152,,52,52,,,,,,,,,,,,,,,,bars/026.png,bars/mask003.png,,,,,,,,,,,,1,1,,,,,,,2,8,2,7,,,,,,,,,,,1252.9647,1253.4647,1253.7152,1256.8474,space,3.1211,,1256.8474,17,33,1257.8475,1257.8475,1257.8537,,,,0,33,33,33,1,35,85,,,,,,,,
,,5c55c7cb9b583c000159f790,65af55d03505e22b54cd2196,2024-01-23_07h00.44.044,bars,2023.2.3,Win32,59.88023952,657b66ea316d21385b68909f,,,,,,,,,,,1257.8538,1258.8473,,,1259.3474,1259.5974,,111,111,,,,,,,,,,,,,,,,bars/009.png,bars/mask007.png,,,,,,,,,,,,8,2,,,,,,,0,10,1,10,,,,,,,,,,,1258.8473,1259.3473,1259.5975,1260.2139,space,0.6012,,1260.2139,84,6,1261.2138,1261.2139,1261.2155,,,,0,34,34,34,1,15,105,,,,,,,,
,,5c55c7cb9b583c000159f790,65af55d03505e22b54cd2196,2024-01-23_07h00.44.044,bars,2023.2.3,Win32,59.88023952,657b66ea316d21385b68909f,,,,,,,,,,,1261.2157,1262.2138,,,1262.7138,1262.964,,174,174,,,,,,,,,,,,,,,,bars/005.png,bars/mask006.png,,,,,,,,,,,,0,1,,,,,,,2,10,1,10,,,,,,,,,,,1262.2138,1262.7138,1262.964,1263.9304,space,0.9504,,1263.9304,16,34,1264.93,1264.93,1264.9355,,,,0,35,35,35,1,10,140,,,,,,,,
,,5c55c7cb9b583c000159f790,65af55d03505e22b54cd2196,2024-01-23_07h00.44.044,bars,2023.2.3,Win32,59.88023952,657b66ea316d21385b68909f,,,,,,,,,,,1264.9357,1265.9301,,,1266.43,1266.6798,,94,94,,,,,,,,,,,,,,,,bars/013.png,bars/mask005.png,,,,,,,,,,,,1,1,,,,,,,4,10,4,9,,,,,,,,,,,1265.9301,1266.43,1266.6799,1267.5467,space,0.8518,,1267.5468,19,84,1268.5465,1268.5465,1268.547,,,,0,36,36,36,1,75,10,,,,,,,,
,,5c55c7cb9b583c000159f790,65af55d03505e22b54cd2196,2024-01-23_07h00.44.044,bars,2023.2.3,Win32,59.88023952,657b66ea316d21385b68909f,,,,,,,,,,,1268.5471,1269.546,,,1270.0463,1270.2964,,42,42,,,,,,,,,,,,,,,,bars/028.png,bars/mask007.png,,,,,,,,,,,,5,1,,,,,,,6,10,6,9,,,,,,,,,,,1269.5461,1270.0463,1270.2964,1272.4793,space,2.1749,,1272.4793,3,78,1273.4794,1273.4795,1273.4856,,,,0,37,37,37,1,45,120,,,,,,,,
,,5c55c7cb9b583c000159f790,65af55d03505e22b54cd2196,2024-01-23_07h00.44.044,bars,2023.2.3,Win32,59.88023952,657b66ea316d21385b68909f,,,,,,,,,,,1273.4857,1274.479,,,1274.9788,1275.229,,143,143,,,,,,,,,,,,,,,,bars/024.png,bars/mask004.png,,,,,,,,,,,,2,1,,,,,,,8,10,9,8,,,,,,,,,,,1274.4791,1274.9788,1275.2291,1277.9286,space,2.6933,,1277.9286,23,27,1278.9286,1278.9287,1278.9348,,,,0,38,38,38,1,120,170,,,,,,,,
,,5c55c7cb9b583c000159f790,65af55d03505e22b54cd2196,2024-01-23_07h00.44.044,bars,2023.2.3,Win32,59.88023952,657b66ea316d21385b68909f,,,,,,,,,,,1278.935,1279.9286,,,1280.4285,1280.6785,,115,-65,,,,,,,,,,,,,,,,bars/001.png,bars/mask006.png,,,,,,,,,,,,4,1,,,,,,,6,8,7,9,,,,,,,,,,,1279.9286,1280.4285,1280.6785,1284.5281,space,3.835,,1284.5282,15,30,1285.5279,1285.528,1285.5343,,,,0,39,39,39,1,130,85,,,,,,,,
,,5c55c7cb9b583c000159f790,65af55d03505e22b54cd2196,2024-01-23_07h00.44.044,bars,2023.2.3,Win32,59.88023952,657b66ea316d21385b68909f,,,,,,,,,,,1285.5344,1286.5279,,,1287.0279,1287.2777,,105,105,,,,,,,,,,,,,,,,bars/039.png,bars/mask009.png,,,,,,,,,,,,6,2,,,,,,,4,6,4,6,,,,,,,,,,,1286.528,1287.0279,1287.2778,1291.5771,space,4.2898,,1291.5771,70,0,1292.5769,1292.577,1292.5836,,,,0,40,40,40,1,175,105,,,,,,,,
,,5c55c7cb9b583c000159f790,65af55d03505e22b54cd2196,2024-01-23_07h00.44.044,bars,2023.2.3,Win32,59.88023952,657b66ea316d21385b68909f,,,,,,,,,,,1292.5838,1293.5771,,,1294.0771,1294.3271,,21,201,,,,,,,,,,,,,,,,bars/036.png,bars/mask008.png,,,,,,,,,,,,9,2,,,,,,,6,8,6,9,,,,,,,,,,,1293.5771,1294.0771,1294.3271,1297.1602,space,2.8173,,1297.1602,56,1,1298.16,1298.16,1298.1662,,,,0,41,41,41,1,145,20,,,,,,,,
,,5c55c7cb9b583c000159f790,65af55d03505e22b54cd2196,2024-01-23_07h00.44.044,bars,2023.2.3,Win32,59.88023952,657b66ea316d21385b68909f,,,,,,,,,,,1298.1663,1299.1599,,,1299.6598,1299.9098,,9,189,,,,,,,,,,,,,,,,bars/020.png,bars/mask003.png,,,,,,,,,,,,4,2,,,,,,,4,10,3,10,,,,,,,,,,,1299.1599,1299.6598,1299.9099,1304.3091,space,4.3931,,1304.3091,74,19,1305.3094,1305.3094,1305.3156,,,,0,42,42,42,1,115,170,,,,,,,,
,,5c55c7cb9b583c000159f790,65af55d03505e22b54cd2196,2024-01-23_07h00.44.044,bars,2023.2.3,Win32,59.88023952,657b66ea316d21385b68909f,,,,,,,,,,,1305.3157,1306.3089,,,1306.8092,1307.0591,,19,19,,,,,,,,,,,,,,,,bars/007.png,bars/mask003.png,,,,,,,,,,,,0,1,,,,,,,2,10,2,10,,,,,,,,,,,1306.3089,1306.8092,1307.0591,1309.3423,space,2.2722,,1309.3423,24,36,1310.3421,1310.3421,1310.3434,,,,0,43,43,43,1,175,55,,,,,,,,
,,5c55c7cb9b583c000159f790,65af55d03505e22b54cd2196,2024-01-23_07h00.44.044,bars,2023.2.3,Win32,59.88023952,657b66ea316d21385b68909f,,,,,,,,,,,1310.3436,1311.3422,,,1311.8421,1312.092,,156,-24,,,,,,,,,,,,,,,,bars/044.png,bars/mask002.png,,,,,,,,,,,,10,2,,,,,,,0,10,1,10,,,,,,,,,,,1311.3422,1311.8421,1312.092,1315.8416,space,3.747,,1315.8417,81,1,1316.8416,1316.8416,1316.8482,,,,0,44,44,44,1,75,155,,,,,,,,
,,5c55c7cb9b583c000159f790,65af55d03505e22b54cd2196,2024-01-23_07h00.44.044,bars,2023.2.3,Win32,59.88023952,657b66ea316d21385b68909f,,,,,,,,,,,1316.8483,1317.8413,,,1318.3413,1318.5914,,158,158,,,,,,,,,,,,,,,,bars/000.png,bars/mask009.png,,,,,,,,,,,,5,2,,,,,,,2,10,1,9,,,,,,,,,,,1317.8413,1318.3412,1318.5914,1320.0741,space,1.4784,,1320.0741,62,13,1321.0742,1321.0742,1321.0804,,,,0,45,45,45,1,40,145,,,,,,,,
,,5c55c7cb9b583c000159f790,65af55d03505e22b54cd2196,2024-01-23_07h00.44.044,bars,2023.2.3,Win32,59.88023952,657b66ea316d21385b68909f,,,,,,,,,,,1321.0806,1322.0741,,,1322.5739,1322.8243,,108,108,,,,,,,,,,,,,,,,bars/024.png,bars/mask009.png,,,,,,,,,,,,0,1,,,,,,,0,10,0,10,,,,,,,,,,,1322.0741,1322.5739,1322.8243,1324.1907,space,1.3511,,1324.1907,12,62,1325.1905,1325.1905,1325.1971,,,,0,46,46,46,1,120,170,,,,,,,,
,,5c55c7cb9b583c000159f790,65af55d03505e22b54cd2196,2024-01-23_07h00.44.044,bars,2023.2.3,Win32,59.88023952,657b66ea316d21385b68909f,,,,,,,,,,,1325.1973,1326.1905,,,1326.6905,1326.9401,,45,45,,,,,,,,,,,,,,,,bars/016.png,bars/mask002.png,,,,,,,,,,,,3,1,,,,,,,2,8,3,7,,,,,,,,,,,1326.1905,1326.6905,1326.9401,1328.0401,space,1.0857,,1328.0401,5,60,1329.0403,1329.0403,1329.0464,,,,0,47,47,47,1,40,165,,,,,,,,
,,5c55c7cb9b583c000159f790,65af55d03505e22b54cd2196,2024-01-23_07h00.44.044,bars,2023.2.3,Win32,59.88023952,657b66ea316d21385b68909f,,,,,,,,,,,1329.0466,1330.0403,,,1330.5404,1330.79,,33,33,,,,,,,,,,,,,,,,bars/032.png,bars/mask007.png,,,,,,,,,,,,5,2,,,,,,,4,10,5,8,,,,,,,,,,,1330.0403,1330.5404,1330.79,1332.7562,space,1.9529,,1332.7563,88,13,1333.7567,1333.7567,1333.7631,,,,0,48,48,48,1,125,20,,,,,,,,
,,5c55c7cb9b583c000159f790,65af55d03505e22b54cd2196,2024-01-23_07h00.44.044,bars,2023.2.3,Win32,59.88023952,657b66ea316d21385b68909f,,,,,,,,,,,1333.7633,1334.7566,,,1335.2559,1335.5062,,63,63,,,,,,,,,,,,,,,,bars/024.png,bars/mask007.png,,,,,,,,,,,,0,1,,,,,,,6,8,6,10,,,,,,,,,,,1334.7566,1335.2559,1335.5062,1337.7724,space,2.2539,,1337.7724,57,73,1338.7721,1338.7722,1338.7732,,,,0,49,49,49,1,120,170,,,,,,,,
,,5c55c7cb9b583c000159f790,65af55d03505e22b54cd2196,2024-01-23_07h00.44.044,bars,2023.2.3,Win32,59.88023952,657b66ea316d21385b68909f,,,,,,,,,,,,,,,,,,,,,,,,,,,,,,,,,,,,,,,,,,,,,,,,,,,,,,,,,,,,,,,,,,,,,,,,,,,,,,,,,,,,,,,,,,,,,1338.7732,1398.7662,0,2,2,3,1,sequence_tables/blk045.csv
,,5c55c7cb9b583c000159f790,65af55d03505e22b54cd2196,2024-01-23_07h00.44.044,bars,2023.2.3,Win32,59.88023952,657b66ea316d21385b68909f,,,,,,,,,,,1416.755,1417.7477,,,1418.2479,1418.4975,,69,69,,,,,,,,,,,,,,,,bars/000.png,bars/mask001.png,,,,,,,,,,,,0,1,,,,,,,10,7,10,7,,,,,,1398.7729,1416.7475,space,17.9658,,1417.7477,1418.2479,1418.4975,1420.9474,space,2.4332,,1420.9474,29,76,1421.9471,1421.9472,1421.9534,,,,0,0,0,0,1,40,145,,,,,,,,
,,5c55c7cb9b583c000159f790,65af55d03505e22b54cd2196,2024-01-23_07h00.44.044,bars,2023.2.3,Win32,59.88023952,657b66ea316d21385b68909f,,,,,,,,,,,1421.9535,1422.947,,,1423.4471,1423.6973,,121,121,,,,,,,,,,,,,,,,bars/047.png,bars/mask004.png,,,,,,,,,,,,0,2,,,,,,,8,9,8,8,,,,,,,,,,,1422.9471,1423.447,1423.6974,1424.9967,space,1.2856,,1424.9967,74,51,1425.9968,1425.9968,1425.998,,,,0,1,1,1,1,15,70,,,,,,,,
,,5c55c7cb9b583c000159f790,65af55d03505e22b54cd2196,2024-01-23_07h00.44.044,bars,2023.2.3,Win32,59.88023952,657b66ea316d21385b68909f,,,,,,,,,,,1425.9981,1426.9967,,,1427.4968,1427.7463,,112,112,,,,,,,,,,,,,,,,bars/026.png,bars/mask008.png,,,,,,,,,,,,1,2,,,,,,,6,7,4,7,,,,,,,,,,,1426.9967,1427.4967,1427.7463,1429.9965,space,2.2438,,1429.9966,77,27,1430.9964,1430.9965,1431.0028,,,,0,2,2,2,1,35,85,,,,,,,,
,,5c55c7cb9b583c000159f790,65af55d03505e22b54cd2196,2024-01-23_07h00.44.044,bars,2023.2.3,Win32,59.88023952,657b66ea316d21385b68909f,,,,,,,,,,,1431.003,1431.9963,,,1432.4964,1432.7457,,34,34,,,,,,,,,,,,,,,,bars/036.png,bars/mask001.png,,,,,,,,,,,,5,2,,,,,,,8,9,8,10,,,,,,,,,,,1431.9963,1432.4964,1432.7458,1435.3289,space,2.5694,,1435.3289,69,14,1436.3289,1436.329,1436.335,,,,0,3,3,3,1,145,20,,,,,,,,
,,5c55c7cb9b583c000159f790,65af55d03505e22b54cd2196,2024-01-23_07h00.44.044,bars,2023.2.3,Win32,59.88023952,657b66ea316d21385b68909f,,,,,,,,,,,1436.3351,1437.3287,,,1437.8288,1438.0788,,135,135,,,,,,,,,,,,,,,,bars/043.png,bars/mask006.png,,,,,,,,,,,,6,2,,,,,,,10,7,9,7,,,,,,,,,,,1437.3287,1437.8288,1438.0789,1439.979,space,1.8877,,1439.9791,75,5,1440.9788,1440.9788,1440.9852,,,,0,4,4,4,1,30,130,,,,,,,,
,,5c55c7cb9b583c000159f790,65af55d03505e22b54cd2196,2024-01-23_07h00.44.044,bars,2023.2.3,Win32,59.88023952,657b66ea316d21385b68909f,,,,,,,,,,,1440.9854,1441.9784,,,1442.4784,1442.7283,,109,109,,,,,,,,,,,,,,,,bars/001.png,bars/mask000.png,,,,,,,,,,,,2,1,,,,,,,8,5,8,7,,,,,,,,,,,1441.9784,1442.4783,1442.7284,1443.8947,space,1.1557,,1443.8947,21,24,1444.8948,1444.8948,1444.9016,,,,0,5,5,5,1,130,85,,,,,,,,
,,5c55c7cb9b583c000159f790,65af55d03505e22b54cd2196,2024-01-23_07h00.44.044,bars,2023.2.3,Win32,59.88023952,657b66ea316d21385b68909f,,,,,,,,,,,1444.9018,1445.8946,,,1446.3946,1446.6445,,143,-37,,,,,,,,,,,,,,,,bars/033.png,bars/mask007.png,,,,,,,,,,,,2,2,,,,,,,10,3,10,3,,,,,,,,,,,1445.8946,1446.3946,1446.6445,1451.5775,space,4.9206,,1451.5775,62,12,1452.5773,1452.5773,1452.5841,,,,0,6,6,6,1,25,155,,,,,,,,
,,5c55c7cb9b583c000159f790,65af55d03505e22b54cd2196,2024-01-23_07h00.44.044,bars,2023.2.3,Win32,59.88023952,657b66ea316d21385b68909f,,,,,,,,,,,1452.5843,1453.5772,,,1454.0773,1454.3271,,27,27,,,,,,,,,,,,,,,,bars/012.png,bars/mask001.png,,,,,,,,,,,,1,2,,,,,,,8,5,6,2,,,,,,,,,,,1453.5772,1454.0773,1454.3272,1457.8435,space,3.5018,,1457.8436,63,12,1458.8434,1458.8434,1458.8496,,,,0,7,7,7,1,90,15,,,,,,,,
,,5c55c7cb9b583c000159f790,65af55d03505e22b54cd2196,2024-01-23_07h00.44.044,bars,2023.2.3,Win32,59.88023952,657b66ea316d21385b68909f,,,,,,,,,,,1458.8497,1459.8433,,,1460.3433,1460.5931,,154,154,,,,,,,,,,,,,,,,bars/024.png,bars/mask003.png,,,,,,,,,,,,1,2,,,,,,,10,3,10,2,,,,,,,,,,,1459.8433,1460.3433,1460.5931,1462.276,space,1.6723,,1462.2761,34,16,1463.2763,1463.2763,1463.2825,,,,0,8,8,8,1,120,170,,,,,,,,
,,5c55c7cb9b583c000159f790,65af55d03505e22b54cd2196,2024-01-23_07h00.44.044,bars,2023.2.3,Win32,59.88023952,657b66ea316d21385b68909f,,,,,,,,,,,1463.2826,1464.2762,,,1464.776,1465.026,,97,97,,,,,,,,,,,,,,,,bars/018.png,bars/mask008.png,,,,,,,,,,,,2,2,,,,,,,10,1,10,3,,,,,,,,,,,1464.2763,1464.776,1465.026,1467.1929,space,2.1493,,1467.1929,53,7,1468.1927,1468.1927,1468.1988,,,,0,9,9,9,1,150,90,,,,,,,,
,,5c55c7cb9b583c000159f790,65af55d03505e22b54cd2196,2024-01-23_07h00.44.044,bars,2023.2.3,Win32,59.88023952,657b66ea316d21385b68909f,,,,,,,,,,,1468.1989,1469.1926,,,1469.6922,1469.9421,,36,36,,,,,,,,,,,,,,,,bars/000.png,bars/mask005.png,,,,,,,,,,,,8,1,,,,,,,8,0,9,0,,,,,,,,,,,1469.1926,1469.6921,1469.9421,1470.9754,space,1.0184,,1470.9755,4,71,1471.9749,1471.9749,1471.9762,,,,0,10,10,10,1,40,145,,,,,,,,
,,5c55c7cb9b583c000159f790,65af55d03505e22b54cd2196,2024-01-23_07h00.44.044,bars,2023.2.3,Win32,59.88023952,657b66ea316d21385b68909f,,,,,,,,,,,1471.9763,1472.9752,,,1473.4757,1473.7254,,162,162,,,,,,,,,,,,,,,,bars/017.png,bars/mask008.png,,,,,,,,,,,,3,1,,,,,,,6,2,7,2,,,,,,,,,,,1472.9752,1473.4757,1473.7254,1474.3415,space,0.6047,,1474.3415,17,63,1475.3416,1475.3416,1475.3421,,,,0,11,11,11,1,145,45,,,,,,,,
,,5c55c7cb9b583c000159f790,65af55d03505e22b54cd2196,2024-01-23_07h00.44.044,bars,2023.2.3,Win32,59.88023952,657b66ea316d21385b68909f,,,,,,,,,,,1475.3423,1476.3415,,,1476.8417,1477.0915,,14,14,,,,,,,,,,,,,,,,bars/036.png,bars/mask007.png,,,,,,,,,,,,0,2,,,,,,,8,0,9,0,,,,,,,,,,,1476.3415,1476.8416,1477.0915,1477.5749,space,0.4791,,1477.575,49,6,1478.5748,1478.5748,1478.5761,,,,0,12,12,12,1,145,20,,,,,,,,
,,5c55c7cb9b583c000159f790,65af55d03505e22b54cd2196,2024-01-23_07h00.44.044,bars,2023.2.3,Win32,59.88023952,657b66ea316d21385b68909f,,,,,,,,,,,1478.5762,1479.5747,,,1480.0742,1480.3244,,113,113,,,,,,,,,,,,,,,,bars/021.png,bars/mask009.png,,,,,,,,,,,,0,1,,,,,,,10,2,9,0,,,,,,,,,,,1479.5747,1480.0742,1480.3244,1482.3906,space,2.0591,,1482.3906,42,43,1483.3907,1483.3907,1483.3975,,,,0,13,13,13,1,155,70,,,,,,,,
,,5c55c7cb9b583c000159f790,65af55d03505e22b54cd2196,2024-01-23_07h00.44.044,bars,2023.2.3,Win32,59.88023952,657b66ea316d21385b68909f,,,,,,,,,,,1483.3976,1484.3903,,,1484.8905,1485.1407,,141,141,,,,,,,,,,,,,,,,bars/046.png,bars/mask002.png,,,,,,,,,,,,5,1,,,,,,,8,4,10,6,,,,,,,,,,,1484.3904,1484.8905,1485.1407,1485.5403,space,0.3903,,1485.5403,14,56,1486.5406,1486.5406,1486.5414,,,,0,14,14,14,1,155,85,,,,,,,,
,,5c55c7cb9b583c000159f790,65af55d03505e22b54cd2196,2024-01-23_07h00.44.044,bars,2023.2.3,Win32,59.88023952,657b66ea316d21385b68909f,,,,,,,,,,,1486.5416,1487.5409,,,1488.0403,1488.2902,,65,65,,,,,,,,,,,,,,,,bars/023.png,bars/mask000.png,,,,,,,,,,,,0,1,,,,,,,10,2,10,3,,,,,,,,,,,1487.5409,1488.0403,1488.2903,1489.24,space,0.9385,,1489.24,45,50,1490.2401,1490.2401,1490.2407,,,,0,15,15,15,1,20,115,,,,,,,,
,,5c55c7cb9b583c000159f790,65af55d03505e22b54cd2196,2024-01-23_07h00.44.044,bars,2023.2.3,Win32,59.88023952,657b66ea316d21385b68909f,,,,,,,,,,,1490.2409,1491.2397,,,1491.7396,1491.9897,,88,88,,,,,,,,,,,,,,,,bars/022.png,bars/mask002.png,,,,,,,,,,,,5,1,,,,,,,8,0,7,0,,,,,,,,,,,1491.2398,1491.7396,1491.9897,1493.5732,space,1.5766,,1493.5732,7,68,1494.573,1494.573,1494.5737,,,,0,16,16,16,1,95,20,,,,,,,,
,,5c55c7cb9b583c000159f790,65af55d03505e22b54cd2196,2024-01-23_07h00.44.044,bars,2023.2.3,Win32,59.88023952,657b66ea316d21385b68909f,,,,,,,,,,,1494.5738,1495.5728,,,1496.0728,1496.3227,,86,86,,,,,,,,,,,,,,,,bars/043.png,bars/mask000.png,,,,,,,,,,,,0,2,,,,,,,10,0,10,0,,,,,,,,,,,1495.5728,1496.0728,1496.3228,1498.4223,space,2.0937,,1498.4223,56,44,1499.4225,1499.4225,1499.4291,,,,0,17,17,17,1,30,130,,,,,,,,
,,5c55c7cb9b583c000159f790,65af55d03505e22b54cd2196,2024-01-23_07h00.44.044,bars,2023.2.3,Win32,59.88023952,657b66ea316d21385b68909f,,,,,,,,,,,1499.4292,1500.4221,,,1500.9223,1501.1729,,63,63,,,,,,,,,,,,,,,,bars/010.png,bars/mask005.png,,,,,,,,,,,,3,2,,,,,,,10,2,9,4,,,,,,,,,,,1500.4221,1500.9223,1501.1729,1502.3225,space,1.1356,,1502.3225,78,8,1503.3217,1503.3217,1503.3223,,,,0,18,18,18,1,165,55,,,,,,,,
,,5c55c7cb9b583c000159f790,65af55d03505e22b54cd2196,2024-01-23_07h00.44.044,bars,2023.2.3,Win32,59.88023952,657b66ea316d21385b68909f,,,,,,,,,,,1503.3225,1504.322,,,1504.8217,1505.0719,,69,69,,,,,,,,,,,,,,,,bars/005.png,bars/mask006.png,,,,,,,,,,,,0,1,,,,,,,10,4,10,4,,,,,,,,,,,1504.322,1504.8216,1505.0719,1506.0226,space,0.9331,,1506.0226,59,71,1507.0217,1507.0217,1507.0229,,,,0,19,19,19,1,10,140,,,,,,,,
,,5c55c7cb9b583c000159f790,65af55d03505e22b54cd2196,2024-01-23_07h00.44.044,bars,2023.2.3,Win32,59.88023952,657b66ea316d21385b68909f,,,,,,,,,,,1507.023,1508.0215,,,1508.5215,1508.7714,,132,132,,,,,,,,,,,,,,,,bars/040.png,bars/mask003.png,,,,,,,,,,,,7,1,,,,,,,10,6,9,6,,,,,,,,,,,1508.0215,1508.5215,1508.7715,1509.7045,space,0.9201,,1509.7045,8,53,1510.7046,1510.7047,1510.7054,,,,0,20,20,20,1,140,5,,,,,,,,
,,5c55c7cb9b583c000159f790,65af55d03505e22b54cd2196,2024-01-23_07h00.44.044,bars,2023.2.3,Win32,59.88023952,657b66ea316d21385b68909f,,,,,,,,,,,1510.7056,1511.7045,,,1512.2047,1512.4544,,142,142,,,,,,,,,,,,,,,,bars/013.png,bars/mask005.png,,,,,,,,,,,,0,2,,,,,,,8,4,7,2,,,,,,,,,,,1511.7045,1512.2047,1512.4545,1514.1712,space,1.7035,,1514.1712,67,48,1515.1709,1515.1709,1515.1778,,,,0,21,21,21,1,75,10,,,,,,,,
,,5c55c7cb9b583c000159f790,65af55d03505e22b54cd2196,2024-01-23_07h00.44.044,bars,2023.2.3,Win32,59.88023952,657b66ea316d21385b68909f,,,,,,,,,,,1515.1779,1516.1704,,,1516.6707,1516.9205,,8,8,,,,,,,,,,,,,,,,bars/045.png,bars/mask008.png,,,,,,,,,,,,7,2,,,,,,,10,6,9,8,,,,,,,,,,,1516.1704,1516.6707,1516.9205,1518.1205,space,1.1864,,1518.1205,88,2,1519.1206,1519.1206,1519.127,,,,0,22,22,22,1,100,10,,,,,,,,
,,5c55c7cb9b583c000159f790,65af55d03505e22b54cd2196,2024-01-23_07h00.44.044,bars,2023.2.3,Win32,59.88023952,657b66ea316d21385b68909f,,,,,,,,,,,1519.1271,1520.12,,,1520.62,1520.8701,,132,132,,,,,,,,,,,,,,,,bars/049.png,bars/mask007.png,,,,,,,,,,,,1,2,,,,,,,10,4,10,2,,,,,,,,,,,1520.1201,1520.6199,1520.8702,1523.1535,space,2.2702,,1523.1535,28,17,1524.1533,1524.1533,1524.1595,,,,0,23,23,23,1,160,115,,,,,,,,
,,5c55c7cb9b583c000159f790,65af55d03505e22b54cd2196,2024-01-23_07h00.44.044,bars,2023.2.3,Win32,59.88023952,657b66ea316d21385b68909f,,,,,,,,,,,1524.1597,1525.1532,,,1525.6529,1525.9029,,54,54,,,,,,,,,,,,,,,,bars/017.png,bars/mask005.png,,,,,,,,,,,,1,2,,,,,,,10,2,10,2,,,,,,,,,,,1525.1532,1525.6528,1525.903,1528.87,space,2.9493,,1528.87,89,9,1529.8693,1529.8693,1529.8754,,,,0,24,24,24,1,145,45,,,,,,,,
,,5c55c7cb9b583c000159f790,65af55d03505e22b54cd2196,2024-01-23_07h00.44.044,bars,2023.2.3,Win32,59.88023952,657b66ea316d21385b68909f,,,,,,,,,,,1529.8755,1530.8693,,,1531.3697,1531.6188,,21,21,,,,,,,,,,,,,,,,bars/003.png,bars/mask006.png,,,,,,,,,,,,6,1,,,,,,,8,4,7,4,,,,,,,,,,,1530.8693,1531.3697,1531.6189,1532.2025,space,0.5713,,1532.2025,4,61,1533.2023,1533.2023,1533.2038,,,,0,25,25,25,1,25,140,,,,,,,,
,,5c55c7cb9b583c000159f790,65af55d03505e22b54cd2196,2024-01-23_07h00.44.044,bars,2023.2.3,Win32,59.88023952,657b66ea316d21385b68909f,,,,,,,,,,,1533.2039,1534.2025,,,1534.7021,1534.9518,,58,58,,,,,,,,,,,,,,,,bars/036.png,bars/mask000.png,,,,,,,,,,,,0,2,,,,,,,10,6,10,6,,,,,,,,,,,1534.2025,1534.7021,1534.9518,1535.6188,space,0.6601,,1535.6188,87,38,1536.6182,1536.6182,1536.6194,,,,0,26,26,26,1,145,20,,,,,,,,
,,5c55c7cb9b583c000159f790,65af55d03505e22b54cd2196,2024-01-23_07h00.44.044,bars,2023.2.3,Win32,59.88023952,657b66ea316d21385b68909f,,,,,,,,,,,1536.6196,1537.6185,,,1538.1186,1538.3682,,64,64,,,,,,,,,,,,,,,,bars/029.png,bars/mask000.png,,,,,,,,,,,,3,2,,,,,,,10,8,10,8,,,,,,,,,,,1537.6185,1538.1184,1538.3683,1540.2017,space,1.8169,,1540.2017,26,19,1541.2015,1541.2015,1541.2078,,,,0,27,27,27,1,90,45,,,,,,,,
,,5c55c7cb9b583c000159f790,65af55d03505e22b54cd2196,2024-01-23_07h00.44.044,bars,2023.2.3,Win32,59.88023952,657b66ea316d21385b68909f,,,,,,,,,,,1541.2079,1542.2013,,,1542.7015,1542.9509,,92,92,,,,,,,,,,,,,,,,bars/037.png,bars/mask009.png,,,,,,,,,,,,5,2,,,,,,,8,10,10,9,,,,,,,,,,,1542.2013,1542.7015,1542.9509,1543.401,space,0.4447,,1543.401,58,13,1544.4008,1544.4008,1544.4015,,,,0,28,28,28,1,150,105,,,,,,,,
,,5c55c7cb9b583c000159f790,65af55d03505e22b54cd2196,2024-01-23_07h00.44.044,bars,2023.2.3,Win32,59.88023952,657b66ea316d21385b68909f,,,,,,,,,,,1544.4018,1545.401,,,1545.9007,1546.1511,,99,99,,,,,,,,,,,,,,,,bars/045.png,bars/mask003.png,,,,,,,,,,,,10,1,,,,,,,10,10,10,10,,,,,,,,,,,1545.4011,1545.9006,1546.1511,1547.5339,space,1.3719,,1547.534,1,89,1548.534,1548.534,1548.5353,,,,0,29,29,29,1,100,10,,,,,,,,
,,5c55c7cb9b583c000159f790,65af55d03505e22b54cd2196,2024-01-23_07h00.44.044,bars,2023.2.3,Win32,59.88023952,657b66ea316d21385b68909f,,,,,,,,,,,1548.5354,1549.5339,,,1550.0339,1550.2836,,74,74,,,,,,,,,,,,,,,,bars/018.png,bars/mask008.png,,,,,,,,,,,,5,2,,,,,,,8,10,6,10,,,,,,,,,,,1549.5339,1550.0338,1550.2836,1553.6165,space,3.3287,,1553.6165,76,16,1554.6168,1554.6168,1554.6236,,,,0,30,30,30,1,150,90,,,,,,,,
,,5c55c7cb9b583c000159f790,65af55d03505e22b54cd2196,2024-01-23_07h00.44.044,bars,2023.2.3,Win32,59.88023952,657b66ea316d21385b68909f,,,,,,,,,,,1554.6237,1555.6163,,,1556.1166,1556.3669,,151,151,,,,,,,,,,,,,,,,bars/044.png,bars/mask009.png,,,,,,,,,,,,8,2,,,,,,,6,8,8,9,,,,,,,,,,,1555.6163,1556.1165,1556.3669,1556.8996,space,0.5285,,1556.8996,76,4,1557.8998,1557.8998,1557.9003,,,,0,31,31,31,1,75,155,,,,,,,,
,,5c55c7cb9b583c000159f790,65af55d03505e22b54cd2196,2024-01-23_07h00.44.044,bars,2023.2.3,Win32,59.88023952,657b66ea316d21385b68909f,,,,,,,,,,,1557.9005,1558.8998,,,1559.3998,1559.6495,,57,57,,,,,,,,,,,,,,,,bars/015.png,bars/mask006.png,,,,,,,,,,,,0,1,,,,,,,4,10,4,10,,,,,,,,,,,1558.8998,1559.3997,1559.6495,1560.2828,space,0.6178,,1560.2828,53,77,1561.2827,1561.2827,1561.284,,,,0,32,32,32,1,110,160,,,,,,,,
,,5c55c7cb9b583c000159f790,65af55d03505e22b54cd2196,2024-01-23_07h00.44.044,bars,2023.2.3,Win32,59.88023952,657b66ea316d21385b68909f,,,,,,,,,,,1561.2841,1562.2825,,,1562.7825,1563.0321,,126,126,,,,,,,,,,,,,,,,bars/025.png,bars/mask003.png,,,,,,,,,,,,1,1,,,,,,,2,8,2,8,,,,,,,,,,,1562.2826,1562.7825,1563.0322,1564.482,space,1.4458,,1564.4821,21,86,1565.4819,1565.4819,1565.488,,,,0,33,33,33,1,105,40,,,,,,,,
,,5c55c7cb9b583c000159f790,65af55d03505e22b54cd2196,2024-01-23_07h00.44.044,bars,2023.2.3,Win32,59.88023952,657b66ea316d21385b68909f,,,,,,,,,,,1565.4881,1566.4822,,,1566.9819,1567.232,,48,228,,,,,,,,,,,,,,,,bars/046.png,bars/mask006.png,,,,,,,,,,,,0,2,,,,,,,4,6,5,6,,,,,,,,,,,1566.4822,1566.9818,1567.232,1570.1819,space,2.9336,,1570.1819,73,37,1571.1817,1571.1817,1571.1885,,,,0,34,34,34,1,155,85,,,,,,,,
,,5c55c7cb9b583c000159f790,65af55d03505e22b54cd2196,2024-01-23_07h00.44.044,bars,2023.2.3,Win32,59.88023952,657b66ea316d21385b68909f,,,,,,,,,,,1571.1887,1572.1815,,,1572.6817,1572.9316,,151,151,,,,,,,,,,,,,,,,bars/033.png,bars/mask000.png,,,,,,,,,,,,3,2,,,,,,,2,4,2,4,,,,,,,,,,,1572.1815,1572.6816,1572.9316,1573.7812,space,0.8447,,1573.7812,54,4,1574.7816,1574.7818,1574.7823,,,,0,35,35,35,1,25,155,,,,,,,,
,,5c55c7cb9b583c000159f790,65af55d03505e22b54cd2196,2024-01-23_07h00.44.044,bars,2023.2.3,Win32,59.88023952,657b66ea316d21385b68909f,,,,,,,,,,,1574.7824,1575.7812,,,1576.2811,1576.5311,,132,132,,,,,,,,,,,,,,,,bars/000.png,bars/mask001.png,,,,,,,,,,,,1,2,,,,,,,4,2,4,1,,,,,,,,,,,1575.7812,1576.2811,1576.5311,1577.0978,space,0.5513,,1577.0978,88,13,1578.0976,1578.0976,1578.0984,,,,0,36,36,36,1,40,145,,,,,,,,
,,5c55c7cb9b583c000159f790,65af55d03505e22b54cd2196,2024-01-23_07h00.44.044,bars,2023.2.3,Win32,59.88023952,657b66ea316d21385b68909f,,,,,,,,,,,1578.0987,1579.0973,,,1579.5974,1579.8475,,43,223,,,,,,,,,,,,,,,,bars/042.png,bars/mask002.png,,,,,,,,,,,,0,2,,,,,,,2,0,0,0,,,,,,,,,,,1579.0973,1579.5974,1579.8476,1582.7803,space,2.9167,,1582.7804,78,32,1583.7805,1583.7805,1583.7867,,,,0,37,37,37,1,145,75,,,,,,,,
,,5c55c7cb9b583c000159f790,65af55d03505e22b54cd2196,2024-01-23_07h00.44.044,bars,2023.2.3,Win32,59.88023952,657b66ea316d21385b68909f,,,,,,,,,,,1583.7868,1584.7803,,,1585.2799,1585.5301,,16,16,,,,,,,,,,,,,,,,bars/004.png,bars/mask008.png,,,,,,,,,,,,0,1,,,,,,,0,0,0,2,,,,,,,,,,,1584.7803,1585.2799,1585.5301,1586.0799,space,0.5362,,1586.0799,9,71,1587.0797,1587.0797,1587.0811,,,,0,38,38,38,1,25,125,,,,,,,,
,,5c55c7cb9b583c000159f790,65af55d03505e22b54cd2196,2024-01-23_07h00.44.044,bars,2023.2.3,Win32,59.88023952,657b66ea316d21385b68909f,,,,,,,,,,,1587.0813,1588.0799,,,1588.5801,1588.83,,24,24,,,,,,,,,,,,,,,,bars/028.png,bars/mask001.png,,,,,,,,,,,,1,1,,,,,,,2,0,2,0,,,,,,,,,,,1588.0799,1588.58,1588.83,1589.3795,space,0.5442,,1589.3796,21,84,1590.3799,1590.3799,1590.3806,,,,0,39,39,39,1,45,120,,,,,,,,
,,5c55c7cb9b583c000159f790,65af55d03505e22b54cd2196,2024-01-23_07h00.44.044,bars,2023.2.3,Win32,59.88023952,657b66ea316d21385b68909f,,,,,,,,,,,1590.3808,1591.38,,,1591.8795,1592.1292,,99,99,,,,,,,,,,,,,,,,bars/010.png,bars/mask007.png,,,,,,,,,,,,0,2,,,,,,,4,0,3,0,,,,,,,,,,,1591.38,1591.8795,1592.1292,1593.1295,space,0.9841,,1593.1296,66,44,1594.1293,1594.1294,1594.1306,,,,0,40,40,40,1,165,55,,,,,,,,
,,5c55c7cb9b583c000159f790,65af55d03505e22b54cd2196,2024-01-23_07h00.44.044,bars,2023.2.3,Win32,59.88023952,657b66ea316d21385b68909f,,,,,,,,,,,1594.1308,1595.1292,,,1595.6292,1595.8791,,103,103,,,,,,,,,,,,,,,,bars/038.png,bars/mask006.png,,,,,,,,,,,,0,2,,,,,,,2,0,3,0,,,,,,,,,,,1595.1292,1595.6292,1595.8791,1597.5287,space,1.6378,,1597.5287,62,33,1598.5287,1598.5287,1598.5294,,,,0,41,41,41,1,165,70,,,,,,,,
,,5c55c7cb9b583c000159f790,65af55d03505e22b54cd2196,2024-01-23_07h00.44.044,bars,2023.2.3,Win32,59.88023952,657b66ea316d21385b68909f,,,,,,,,,,,1598.5296,1599.5287,,,1600.0288,1600.2786,,179,179,,,,,,,,,,,,,,,,bars/034.png,bars/mask000.png,,,,,,,,,,,,0,1,,,,,,,0,0,1,0,,,,,,,,,,,1599.5287,1600.0288,1600.2786,1602.3782,space,2.0934,,1602.3782,54,66,1603.3781,1603.3781,1603.3845,,,,0,42,42,42,1,125,65,,,,,,,,
,,5c55c7cb9b583c000159f790,65af55d03505e22b54cd2196,2024-01-23_07h00.44.044,bars,2023.2.3,Win32,59.88023952,657b66ea316d21385b68909f,,,,,,,,,,,1603.3846,1604.3783,,,1604.8782,1605.1283,,79,79,,,,,,,,,,,,,,,,bars/046.png,bars/mask004.png,,,,,,,,,,,,2,2,,,,,,,2,2,1,2,,,,,,,,,,,1604.3783,1604.8782,1605.1283,1606.0944,space,0.9625,,1606.0944,76,6,1607.0946,1607.0946,1607.0962,,,,0,43,43,43,1,155,85,,,,,,,,
,,5c55c7cb9b583c000159f790,65af55d03505e22b54cd2196,2024-01-23_07h00.44.044,bars,2023.2.3,Win32,59.88023952,657b66ea316d21385b68909f,,,,,,,,,,,1607.0965,1608.095,,,1608.5943,1608.8443,,176,176,,,,,,,,,,,,,,,,bars/033.png,bars/mask001.png,,,,,,,,,,,,1,2,,,,,,,4,4,4,3,,,,,,,,,,,1608.095,1608.5942,1608.8443,1611.7771,space,2.9291,,1611.7771,29,21,1612.7771,1612.7771,1612.7833,,,,0,44,44,44,1,25,155,,,,,,,,
,,5c55c7cb9b583c000159f790,65af55d03505e22b54cd2196,2024-01-23_07h00.44.044,bars,2023.2.3,Win32,59.88023952,657b66ea316d21385b68909f,,,,,,,,,,,1612.7834,1613.7773,,,1614.2773,1614.5272,,15,195,,,,,,,,,,,,,,,,bars/022.png,bars/mask001.png,,,,,,,,,,,,2,2,,,,,,,6,2,6,2,,,,,,,,,,,1613.7774,1614.2773,1614.5272,1618.3265,space,3.7931,,1618.3265,80,5,1619.3264,1619.3264,1619.3326,,,,0,45,45,45,1,95,20,,,,,,,,
,,5c55c7cb9b583c000159f790,65af55d03505e22b54cd2196,2024-01-23_07h00.44.044,bars,2023.2.3,Win32,59.88023952,657b66ea316d21385b68909f,,,,,,,,,,,1619.3328,1620.3267,,,1620.8265,1621.0764,,25,205,,,,,,,,,,,,,,,,bars/028.png,bars/mask007.png,,,,,,,,,,,,3,1,,,,,,,8,0,8,0,,,,,,,,,,,1620.3267,1620.8265,1621.0765,1624.626,space,3.5428,,1624.626,20,85,1625.626,1625.626,1625.6325,,,,0,46,46,46,1,45,120,,,,,,,,
,,5c55c7cb9b583c000159f790,65af55d03505e22b54cd2196,2024-01-23_07h00.44.044,bars,2023.2.3,Win32,59.88023952,657b66ea316d21385b68909f,,,,,,,,,,,1625.6327,1626.6263,,,1627.1256,1627.3758,,159,159,,,,,,,,,,,,,,,,bars/011.png,bars/mask003.png,,,,,,,,,,,,9,1,,,,,,,10,2,9,2,,,,,,,,,,,1626.6263,1627.1255,1627.3758,1629.8253,space,2.4446,,1629.8253,1,74,1630.8255,1630.8255,1630.8259,,,,0,47,47,47,1,160,85,,,,,,,,
,,5c55c7cb9b583c000159f790,65af55d03505e22b54cd2196,2024-01-23_07h00.44.044,bars,2023.2.3,Win32,59.88023952,657b66ea316d21385b68909f,,,,,,,,,,,1630.8261,1631.8252,,,1632.3249,1632.5752,,15,15,,,,,,,,,,,,,,,,bars/008.png,bars/mask009.png,,,,,,,,,,,,0,2,,,,,,,8,0,9,0,,,,,,,,,,,1631.8253,1632.3249,1632.5752,1634.3082,space,1.7173,,1634.3083,85,15,1635.3081,1635.3081,1635.3146,,,,0,48,48,48,1,110,0,,,,,,,,
,,5c55c7cb9b583c000159f790,65af55d03505e22b54cd2196,2024-01-23_07h00.44.044,bars,2023.2.3,Win32,59.88023952,657b66ea316d21385b68909f,,,,,,,,,,,1635.3148,1636.3081,,,1636.8083,1637.0582,,97,97,,,,,,,,,,,,,,,,bars/001.png,bars/mask008.png,,,,,,,,,,,,1,2,,,,,,,10,2,9,1,,,,,,,,,,,1636.3082,1636.8083,1637.0582,1639.0917,space,2.0161,,1639.0917,33,12,1640.0915,1640.0915,1640.0975,,,,0,49,49,49,1,130,85,,,,,,,,
,,5c55c7cb9b583c000159f790,65af55d03505e22b54cd2196,2024-01-23_07h00.44.044,bars,2023.2.3,Win32,59.88023952,657b66ea316d21385b68909f,,,,,,,,,,,,,,,,,,,,,,,,,,,,,,,,,,,,,,,,,,,,,,,,,,,,,,,,,,,,,,,,,,,,,,,,,,,,,,,,,,,,,,,,,,,,,1640.0977,1700.1015,0,3,3,2,1,sequence_tables/blk006.csv
,,5c55c7cb9b583c000159f790,65af55d03505e22b54cd2196,2024-01-23_07h00.44.044,bars,2023.2.3,Win32,59.88023952,657b66ea316d21385b68909f,,,,,,,,,,,1700.3716,1701.3682,,,1701.8681,1702.1181,,37,37,,,,,,,,,,,,,,,,bars/006.png,bars/mask003.png,,,,,,,,,,,,1,1,,,,,,,0,10,1,9,,,,,,1700.1081,1700.368,space,0.2473,,1701.3683,1701.868,1702.1182,1702.9015,space,0.768,,1702.9016,2,63,1703.9014,1703.9014,1703.9027,,,,0,0,0,0,1,35,100,,,,,,,,
,,5c55c7cb9b583c000159f790,65af55d03505e22b54cd2196,2024-01-23_07h00.44.044,bars,2023.2.3,Win32,59.88023952,657b66ea316d21385b68909f,,,,,,,,,,,1703.9029,1704.9009,,,1705.4013,1705.651,,105,105,,,,,,,,,,,,,,,,bars/035.png,bars/mask006.png,,,,,,,,,,,,0,2,,,,,,,0,10,0,10,,,,,,,,,,,1704.9009,1705.4013,1705.6511,1706.2675,space,0.6029,,1706.2675,70,45,1707.2676,1707.2676,1707.2689,,,,0,1,1,1,1,175,60,,,,,,,,
,,5c55c7cb9b583c000159f790,65af55d03505e22b54cd2196,2024-01-23_07h00.44.044,bars,2023.2.3,Win32,59.88023952,657b66ea316d21385b68909f,,,,,,,,,,,1707.2691,1708.2672,,,1708.7675,1709.0173,,174,174,,,,,,,,,,,,,,,,bars/008.png,bars/mask003.png,,,,,,,,,,,,8,2,,,,,,,0,10,0,10,,,,,,,,,,,1708.2672,1708.7675,1709.0173,1709.7004,space,0.6707,,1709.7005,64,6,1710.7004,1710.7004,1710.701,,,,0,2,2,2,1,110,0,,,,,,,,
,,5c55c7cb9b583c000159f790,65af55d03505e22b54cd2196,2024-01-23_07h00.44.044,bars,2023.2.3,Win32,59.88023952,657b66ea316d21385b68909f,,,,,,,,,,,1710.7012,1711.7007,,,1712.2005,1712.4503,,49,49,,,,,,,,,,,,,,,,bars/000.png,bars/mask003.png,,,,,,,,,,,,0,1,,,,,,,0,8,0,9,,,,,,,,,,,1711.7007,1712.2005,1712.4503,1714.1666,space,1.7068,,1714.1666,9,84,1715.1667,1715.1668,1715.1679,,,,0,3,3,3,1,40,145,,,,,,,,
,,5c55c7cb9b583c000159f790,65af55d03505e22b54cd2196,2024-01-23_07h00.44.044,bars,2023.2.3,Win32,59.88023952,657b66ea316d21385b68909f,,,,,,,,,,,1715.168,1716.1667,,,1716.6667,1716.9166,,50,50,,,,,,,,,,,,,,,,bars/043.png,bars/mask009.png,,,,,,,,,,,,1,1,,,,,,,2,10,3,10,,,,,,,,,,,1716.1667,1716.6666,1716.9166,1721.3825,space,4.4548,,1721.3825,20,80,1722.3826,1722.3826,1722.3888,,,,0,4,4,4,1,30,130,,,,,,,,
,,5c55c7cb9b583c000159f790,65af55d03505e22b54cd2196,2024-01-23_07h00.44.044,bars,2023.2.3,Win32,59.88023952,657b66ea316d21385b68909f,,,,,,,,,,,1722.3889,1723.3822,,,1723.8825,1724.1327,,121,121,,,,,,,,,,,,,,,,bars/004.png,bars/mask002.png,,,,,,,,,,,,9,2,,,,,,,0,10,0,10,,,,,,,,,,,1723.3823,1723.8824,1724.1328,1725.8655,space,1.7224,,1725.8655,84,4,1726.8652,1726.8652,1726.8719,,,,0,5,5,5,1,25,125,,,,,,,,
,,5c55c7cb9b583c000159f790,65af55d03505e22b54cd2196,2024-01-23_07h00.44.044,bars,2023.2.3,Win32,59.88023952,657b66ea316d21385b68909f,,,,,,,,,,,1726.872,1727.8654,,,1728.3654,1728.6154,,111,111,,,,,,,,,,,,,,,,bars/049.png,bars/mask006.png,,,,,,,,,,,,9,2,,,,,,,2,10,1,10,,,,,,,,,,,1727.8655,1728.3654,1728.6155,1729.9649,space,1.3434,,1729.9649,49,4,1730.965,1730.9651,1730.9657,,,,0,6,6,6,1,160,115,,,,,,,,
,,5c55c7cb9b583c000159f790,65af55d03505e22b54cd2196,2024-01-23_07h00.44.044,bars,2023.2.3,Win32,59.88023952,657b66ea316d21385b68909f,,,,,,,,,,,1730.9659,1731.9649,,,1732.465,1732.7149,,50,50,,,,,,,,,,,,,,,,bars/007.png,bars/mask003.png,,,,,,,,,,,,8,2,,,,,,,0,10,0,9,,,,,,,,,,,1731.9651,1732.465,1732.7149,1735.9644,space,3.2352,,1735.9644,55,5,1736.9641,1736.9642,1736.9702,,,,0,7,7,7,1,175,55,,,,,,,,
,,5c55c7cb9b583c000159f790,65af55d03505e22b54cd2196,2024-01-23_07h00.44.044,bars,2023.2.3,Win32,59.88023952,657b66ea316d21385b68909f,,,,,,,,,,,1736.9704,1737.9644,,,1738.4644,1738.7143,,82,82,,,,,,,,,,,,,,,,bars/010.png,bars/mask007.png,,,,,,,,,,,,1,2,,,,,,,2,8,2,7,,,,,,,,,,,1737.9644,1738.4644,1738.7143,1740.1975,space,1.4672,,1740.1975,83,27,1741.197,1741.197,1741.1978,,,,0,8,8,8,1,165,55,,,,,,,,
,,5c55c7cb9b583c000159f790,65af55d03505e22b54cd2196,2024-01-23_07h00.44.044,bars,2023.2.3,Win32,59.88023952,657b66ea316d21385b68909f,,,,,,,,,,,1741.1981,1742.1972,,,1742.6973,1742.947,,32,32,,,,,,,,,,,,,,,,bars/029.png,bars/mask006.png,,,,,,,,,,,,3,2,,,,,,,0,6,1,6,,,,,,,,,,,1742.1972,1742.6973,1742.947,1744.0478,space,1.0834,,1744.0478,58,13,1745.0468,1745.0468,1745.0474,,,,0,9,9,9,1,90,45,,,,,,,,
,,5c55c7cb9b583c000159f790,65af55d03505e22b54cd2196,2024-01-23_07h00.44.044,bars,2023.2.3,Win32,59.88023952,657b66ea316d21385b68909f,,,,,,,,,,,1745.0476,1746.0469,,,1746.5468,1746.7967,,52,52,,,,,,,,,,,,,,,,bars/025.png,bars/mask006.png,,,,,,,,,,,,4,2,,,,,,,2,8,2,7,,,,,,,,,,,1746.0469,1746.5467,1746.7968,1747.7632,space,0.959,,1747.7632,53,12,1748.7634,1748.7634,1748.7639,,,,0,10,10,10,1,105,40,,,,,,,,
,,5c55c7cb9b583c000159f790,65af55d03505e22b54cd2196,2024-01-23_07h00.44.044,bars,2023.2.3,Win32,59.88023952,657b66ea316d21385b68909f,,,,,,,,,,,1748.764,1749.7635,,,1750.2633,1750.513,,7,7,,,,,,,,,,,,,,,,bars/044.png,bars/mask008.png,,,,,,,,,,,,0,2,,,,,,,0,6,0,6,,,,,,,,,,,1749.7635,1750.2633,1750.5131,1751.1294,space,0.6063,,1751.1295,68,32,1752.1295,1752.1296,1752.1304,,,,0,11,11,11,1,75,155,,,,,,,,
