init_variables.started,init_variables.stopped,participant,session,date,expName,psychopyVersion,OS,frameRate,study_id,instruction_exp.started,instruction_exp.stopped,key_resp_8.keys,key_resp_8.rt,key_resp_8.duration,instruction_single.started,instruction_single.stopped,key_resp_2.keys,key_resp_2.rt,key_resp_2.duration,interval.started,interval.stopped,cue_single.started,cue_single.stopped,mask.started,mask.stopped,ori_response_single.started,res_ori,res,ori_response_single.stopped,key_resp_single.keys,key_resp_single.rt,key_resp_single.duration,disp_single.started,disp_single.stopped,key_resp.keys,key_resp.rt,key_resp.duration,single.thisRepN,single.thisTrialN,single.thisN,single.thisIndex,single.ran,ori,path,mask_path,instruction_bandit.started,instruction_bandit.stopped,key_resp_6.keys,key_resp_6.rt,key_resp_6.duration,cue_bandit.started,cue_bandit.stopped,bandit_res.keys,bandit_res.rt,bandit_res.duration,outcome_bandit.started,rew,action,outcome_bandit.stopped,bandit.thisRepN,bandit.thisTrialN,bandit.thisN,bandit.thisIndex,bandit.ran,actual_rew1,actual_rew2,rew1,rew2,instruction_task.started,instruction_task.stopped,key_resp_7.keys,key_resp_7.rt,key_resp_7.duration,wait_ready.started,wait_ready.stopped,key_resp_3.keys,key_resp_3.rt,key_resp_3.duration,cue.started,cue.stopped,ori_response.started,ori_response.stopped,key_resp_5.keys,key_resp_5.rt,key_resp_5.duration,outcome.started,diff1,diff2,outcome.stopped,disp_outcome_practice.started,disp_outcome_practice.stopped,key_resp_4.keys,key_resp_4.rt,key_resp_4.duration,trials.thisRepN,trials.thisTrialN,trials.thisN,trials.thisIndex,trials.ran,ori1,ori2,break_blk.started,break_blk.stopped,block.thisRepN,block.thisTrialN,block.thisN,block.thisIndex,block.ran,condition_file
0.0003,0.0003,64b469b7e8466658269e356b,65af56bbf3ebe8cc90bc71f1,2024-01-23_19h10.44.672,bars,2023.2.3,Win32,120.4819277,657b66ea316d21385b68909f,,,,,,,,,,,,,,,,,,,,,,,,,,,,,,,,,,,,,,,,,,,,,,,,,,,,,,,,,,,,,,,,,,,,,,,,,,,,,,,,,,,,,,,,,,,,,,,,,,,,
,,64b469b7e8466658269e356b,65af56bbf3ebe8cc90bc71f1,2024-01-23_19h10.44.672,bars,2023.2.3,Win32,120.4819277,657b66ea316d21385b68909f,0.0005,9.0305,y,9.0202,,,,,,,,,,,,,,,,,,,,,,,,,,,,,,,,,,,,,,,,,,,,,,,,,,,,,,,,,,,,,,,,,,,,,,,,,,,,,,,,,,,,,,,,,,,,,,,,
,,64b469b7e8466658269e356b,65af56bbf3ebe8cc90bc71f1,2024-01-23_19h10.44.672,bars,2023.2.3,Win32,120.4819277,657b66ea316d21385b68909f,,,,,,9.0309,17.2922,space,8.2435,,,,,,,,,,,,,,,,,,,,,,,,,,,,,,,,,,,,,,,,,,,,,,,,,,,,,,,,,,,,,,,,,,,,,,,,,,,,,,,,,,,,,,,,,,,
,,64b469b7e8466658269e356b,65af56bbf3ebe8cc90bc71f1,2024-01-23_19h10.44.672,bars,2023.2.3,Win32,120.4819277,657b66ea316d21385b68909f,,,,,,,,,,,17.2955,18.2959,18.296,18.7959,18.796,19.046,19.0461,145,145,26.5964,space,7.4367,,26.5965,45.739,space,19.1274,,0,0,0,2,1,145,bars/single002.png,bars/mask003.png,,,,,,,,,,,,,,,,,,,,,,,,,,,,,,,,,,,,,,,,,,,,,,,,,,,,,,,,,,,,,,,,
,,64b469b7e8466658269e356b,65af56bbf3ebe8cc90bc71f1,2024-01-23_19h10.44.672,bars,2023.2.3,Win32,120.4819277,657b66ea316d21385b68909f,,,,,,,,,,,45.7524,46.7461,46.7462,47.246,47.246,47.4961,47.4961,8,188,52.2545,space,4.7511,,52.2545,56.588,space,4.3186,,0,1,1,1,1,20,bars/single001.png,bars/mask006.png,,,,,,,,,,,,,,,,,,,,,,,,,,,,,,,,,,,,,,,,,,,,,,,,,,,,,,,,,,,,,,,,
,,64b469b7e8466658269e356b,65af56bbf3ebe8cc90bc71f1,2024-01-23_19h10.44.672,bars,2023.2.3,Win32,120.4819277,657b66ea316d21385b68909f,,,,,,,,,,,56.594,57.5878,57.5878,58.0878,58.0878,58.3379,58.3379,3,3,63.6213,space,5.2765,,63.6213,67.6212,space,3.989,,0,2,2,6,1,175,bars/single006.png,bars/mask005.png,,,,,,,,,,,,,,,,,,,,,,,,,,,,,,,,,,,,,,,,,,,,,,,,,,,,,,,,,,,,,,,,
,,64b469b7e8466658269e356b,65af56bbf3ebe8cc90bc71f1,2024-01-23_19h10.44.672,bars,2023.2.3,Win32,120.4819277,657b66ea316d21385b68909f,,,,,,,,,,,67.6271,68.6212,68.6212,69.1213,69.1213,69.3711,69.3711,64,64,72.0463,space,2.6701,,72.0463,79.2298,space,7.1684,,0,3,3,5,1,55,bars/single005.png,bars/mask008.png,,,,,,,,,,,,,,,,,,,,,,,,,,,,,,,,,,,,,,,,,,,,,,,,,,,,,,,,,,,,,,,,
,,64b469b7e8466658269e356b,65af56bbf3ebe8cc90bc71f1,2024-01-23_19h10.44.672,bars,2023.2.3,Win32,120.4819277,657b66ea316d21385b68909f,,,,,,,,,,,79.2365,80.2379,80.2379,80.7379,80.7379,80.988,80.988,86,86,85.5547,space,4.5613,,85.5547,88.9795,space,3.4103,,0,4,4,4,1,95,bars/single004.png,bars/mask004.png,,,,,,,,,,,,,,,,,,,,,,,,,,,,,,,,,,,,,,,,,,,,,,,,,,,,,,,,,,,,,,,,
,,64b469b7e8466658269e356b,65af56bbf3ebe8cc90bc71f1,2024-01-23_19h10.44.672,bars,2023.2.3,Win32,120.4819277,657b66ea316d21385b68909f,,,,,,,,,,,88.9856,89.9797,89.9798,90.4797,90.4797,90.7297,90.7297,154,-26,94.8463,space,4.1085,,94.8463,97.3819,space,2.525,,0,5,5,0,1,150,bars/single000.png,bars/mask006.png,,,,,,,,,,,,,,,,,,,,,,,,,,,,,,,,,,,,,,,,,,,,,,,,,,,,,,,,,,,,,,,,
,,64b469b7e8466658269e356b,65af56bbf3ebe8cc90bc71f1,2024-01-23_19h10.44.672,bars,2023.2.3,Win32,120.4819277,657b66ea316d21385b68909f,,,,,,,,,,,97.382,98.3815,98.3815,98.8817,98.8817,99.1335,99.1335,24,24,101.7737,space,2.632,,101.7737,105.0462,space,3.26,,0,6,6,9,1,20,bars/single009.png,bars/mask006.png,,,,,,,,,,,,,,,,,,,,,,,,,,,,,,,,,,,,,,,,,,,,,,,,,,,,,,,,,,,,,,,,
,,64b469b7e8466658269e356b,65af56bbf3ebe8cc90bc71f1,2024-01-23_19h10.44.672,bars,2023.2.3,Win32,120.4819277,657b66ea316d21385b68909f,,,,,,,,,,,105.0523,106.0469,106.0469,106.5463,106.5463,106.7963,106.7963,39,219,110.7636,space,3.9518,,110.7637,113.1096,space,2.3335,,0,7,7,7,1,45,bars/single007.png,bars/mask009.png,,,,,,,,,,,,,,,,,,,,,,,,,,,,,,,,,,,,,,,,,,,,,,,,,,,,,,,,,,,,,,,,
,,64b469b7e8466658269e356b,65af56bbf3ebe8cc90bc71f1,2024-01-23_19h10.44.672,bars,2023.2.3,Win32,120.4819277,657b66ea316d21385b68909f,,,,,,,,,,,113.1099,114.1047,114.1048,114.607,114.607,114.8546,114.8546,145,-35,119.4631,space,4.6043,,119.4631,122.2382,space,2.7645,,0,8,8,8,1,160,bars/single008.png,bars/mask004.png,,,,,,,,,,,,,,,,,,,,,,,,,,,,,,,,,,,,,,,,,,,,,,,,,,,,,,,,,,,,,,,,
,,64b469b7e8466658269e356b,65af56bbf3ebe8cc90bc71f1,2024-01-23_19h10.44.672,bars,2023.2.3,Win32,120.4819277,657b66ea316d21385b68909f,,,,,,,,,,,122.2453,123.2463,123.2463,123.7419,123.7419,123.9919,123.9919,28,208,127.2154,space,3.2155,,127.2154,130.5155,space,3.291,,0,9,9,3,1,20,bars/single003.png,bars/mask005.png,,,,,,,,,,,,,,,,,,,,,,,,,,,,,,,,,,,,,,,,,,,,,,,,,,,,,,,,,,,,,,,,
,,64b469b7e8466658269e356b,65af56bbf3ebe8cc90bc71f1,2024-01-23_19h10.44.672,bars,2023.2.3,Win32,120.4819277,657b66ea316d21385b68909f,,,,,,,,,,,,,,,,,,,,,,,,,,,,,,,,,,,,,130.5217,163.1553,space,32.622,,,,,,,,,,,,,,,,,,,,,,,,,,,,,,,,,,,,,,,,,,,,,,,,,,,,,,,,,,,,
,,64b469b7e8466658269e356b,65af56bbf3ebe8cc90bc71f1,2024-01-23_19h10.44.672,bars,2023.2.3,Win32,120.4819277,657b66ea316d21385b68909f,,,,,,,,,,,,,,,,,,,,,,,,,,,,,,,,,,,,,,,,,,163.1626,166.205,left,3.034,,166.2051,9,1,167.2048,0,0,0,0,1,9,1,9,2,,,,,,,,,,,,,,,,,,,,,,,,,,,,,,,,,,,,,,,,,
,,64b469b7e8466658269e356b,65af56bbf3ebe8cc90bc71f1,2024-01-23_19h10.44.672,bars,2023.2.3,Win32,120.4819277,657b66ea316d21385b68909f,,,,,,,,,,,,,,,,,,,,,,,,,,,,,,,,,,,,,,,,,,167.2051,168.649,left,1.4315,,168.6491,10,1,169.6465,0,1,1,1,1,10,0,10,1,,,,,,,,,,,,,,,,,,,,,,,,,,,,,,,,,,,,,,,,,
,,64b469b7e8466658269e356b,65af56bbf3ebe8cc90bc71f1,2024-01-23_19h10.44.672,bars,2023.2.3,Win32,120.4819277,657b66ea316d21385b68909f,,,,,,,,,,,,,,,,,,,,,,,,,,,,,,,,,,,,,,,,,,169.6467,170.68,left,1.0184,,170.68,10,1,171.6798,0,2,2,2,1,10,2,10,2,,,,,,,,,,,,,,,,,,,,,,,,,,,,,,,,,,,,,,,,,
,,64b469b7e8466658269e356b,65af56bbf3ebe8cc90bc71f1,2024-01-23_19h10.44.672,bars,2023.2.3,Win32,120.4819277,657b66ea316d21385b68909f,,,,,,,,,,,,,,,,,,,,,,,,,,,,,,,,,,,,,,,,,,171.68,172.7717,left,1.0801,,172.7717,7,1,173.7714,0,3,3,3,1,8,4,7,3,,,,,,,,,,,,,,,,,,,,,,,,,,,,,,,,,,,,,,,,,
,,64b469b7e8466658269e356b,65af56bbf3ebe8cc90bc71f1,2024-01-23_19h10.44.672,bars,2023.2.3,Win32,120.4819277,657b66ea316d21385b68909f,,,,,,,,,,,,,,,,,,,,,,,,,,,,,,,,,,,,,,,,,,173.7716,174.693,right,0.911,,174.6931,1,2,175.6881,0,4,4,4,1,6,2,5,1,,,,,,,,,,,,,,,,,,,,,,,,,,,,,,,,,,,,,,,,,
,,64b469b7e8466658269e356b,65af56bbf3ebe8cc90bc71f1,2024-01-23_19h10.44.672,bars,2023.2.3,Win32,120.4819277,657b66ea316d21385b68909f,,,,,,,,,,,,,,,,,,,,,,,,,,,,,,,,,,,,,,,,,,175.6883,176.1633,left,0.4561,,176.1633,4,1,177.1632,0,5,5,5,1,4,4,4,4,,,,,,,,,,,,,,,,,,,,,,,,,,,,,,,,,,,,,,,,,
,,64b469b7e8466658269e356b,65af56bbf3ebe8cc90bc71f1,2024-01-23_19h10.44.672,bars,2023.2.3,Win32,120.4819277,657b66ea316d21385b68909f,,,,,,,,,,,,,,,,,,,,,,,,,,,,,,,,,,,,,,,,,,177.1634,177.8746,left,0.701,,177.8746,1,1,178.8717,0,6,6,6,1,2,2,1,2,,,,,,,,,,,,,,,,,,,,,,,,,,,,,,,,,,,,,,,,,
,,64b469b7e8466658269e356b,65af56bbf3ebe8cc90bc71f1,2024-01-23_19h10.44.672,bars,2023.2.3,Win32,120.4819277,657b66ea316d21385b68909f,,,,,,,,,,,,,,,,,,,,,,,,,,,,,,,,,,,,,,,,,,178.8717,179.105,right,0.2219,,179.105,1,2,180.1049,0,7,7,7,1,0,0,0,1,,,,,,,,,,,,,,,,,,,,,,,,,,,,,,,,,,,,,,,,,
,,64b469b7e8466658269e356b,65af56bbf3ebe8cc90bc71f1,2024-01-23_19h10.44.672,bars,2023.2.3,Win32,120.4819277,657b66ea316d21385b68909f,,,,,,,,,,,,,,,,,,,,,,,,,,,,,,,,,,,,,,,,,,180.1051,180.8383,right,0.7206,,180.8383,0,2,181.8327,0,8,8,8,1,0,2,1,0,,,,,,,,,,,,,,,,,,,,,,,,,,,,,,,,,,,,,,,,,
,,64b469b7e8466658269e356b,65af56bbf3ebe8cc90bc71f1,2024-01-23_19h10.44.672,bars,2023.2.3,Win32,120.4819277,657b66ea316d21385b68909f,,,,,,,,,,,,,,,,,,,,,,,,,,,,,,,,,,,,,,,,,,181.8329,182.4216,right,0.5776,,182.4216,3,2,183.4215,0,9,9,9,1,2,4,2,3,,,,,,,,,,,,,,,,,,,,,,,,,,,,,,,,,,,,,,,,,
,,64b469b7e8466658269e356b,65af56bbf3ebe8cc90bc71f1,2024-01-23_19h10.44.672,bars,2023.2.3,Win32,120.4819277,657b66ea316d21385b68909f,,,,,,,,,,,,,,,,,,,,,,,,,,,,,,,,,,,,,,,,,,183.4218,185.2466,left,1.8105,,185.2466,0,1,186.2465,0,10,10,10,1,0,2,0,3,,,,,,,,,,,,,,,,,,,,,,,,,,,,,,,,,,,,,,,,,
,,64b469b7e8466658269e356b,65af56bbf3ebe8cc90bc71f1,2024-01-23_19h10.44.672,bars,2023.2.3,Win32,120.4819277,657b66ea316d21385b68909f,,,,,,,,,,,,,,,,,,,,,,,,,,,,,,,,,,,,,,,,,,186.2467,186.5013,right,0.2419,,186.5013,3,2,187.4966,0,11,11,11,1,0,4,0,3,,,,,,,,,,,,,,,,,,,,,,,,,,,,,,,,,,,,,,,,,
,,64b469b7e8466658269e356b,65af56bbf3ebe8cc90bc71f1,2024-01-23_19h10.44.672,bars,2023.2.3,Win32,120.4819277,657b66ea316d21385b68909f,,,,,,,,,,,,,,,,,,,,,,,,,,,,,,,,,,,,,,,,,,187.4968,188.1884,right,0.6778,,188.1884,6,2,189.1883,0,12,12,12,1,2,6,1,6,,,,,,,,,,,,,,,,,,,,,,,,,,,,,,,,,,,,,,,,,
,,64b469b7e8466658269e356b,65af56bbf3ebe8cc90bc71f1,2024-01-23_19h10.44.672,bars,2023.2.3,Win32,120.4819277,657b66ea316d21385b68909f,,,,,,,,,,,,,,,,,,,,,,,,,,,,,,,,,,,,,,,,,,189.1885,189.7717,right,0.5655,,189.7718,3,2,190.7656,0,13,13,13,1,0,4,1,3,,,,,,,,,,,,,,,,,,,,,,,,,,,,,,,,,,,,,,,,,
,,64b469b7e8466658269e356b,65af56bbf3ebe8cc90bc71f1,2024-01-23_19h10.44.672,bars,2023.2.3,Win32,120.4819277,657b66ea316d21385b68909f,,,,,,,,,,,,,,,,,,,,,,,,,,,,,,,,,,,,,,,,,,190.7658,191.7821,left,1.0082,,191.7821,2,1,192.7799,0,14,14,14,1,2,6,2,7,,,,,,,,,,,,,,,,,,,,,,,,,,,,,,,,,,,,,,,,,
,,64b469b7e8466658269e356b,65af56bbf3ebe8cc90bc71f1,2024-01-23_19h10.44.672,bars,2023.2.3,Win32,120.4819277,657b66ea316d21385b68909f,,,,,,,,,,,,,,,,,,,,,,,,,,,,,,,,,,,,,,,,,,192.78,193.18,right,0.3862,,193.18,9,2,194.18,0,15,15,15,1,4,8,3,9,,,,,,,,,,,,,,,,,,,,,,,,,,,,,,,,,,,,,,,,,
,,64b469b7e8466658269e356b,65af56bbf3ebe8cc90bc71f1,2024-01-23_19h10.44.672,bars,2023.2.3,Win32,120.4819277,657b66ea316d21385b68909f,,,,,,,,,,,,,,,,,,,,,,,,,,,,,,,,,,,,,,,,,,194.1801,194.455,right,0.2633,,194.4551,7,2,195.4549,0,16,16,16,1,6,6,7,7,,,,,,,,,,,,,,,,,,,,,,,,,,,,,,,,,,,,,,,,,
,,64b469b7e8466658269e356b,65af56bbf3ebe8cc90bc71f1,2024-01-23_19h10.44.672,bars,2023.2.3,Win32,120.4819277,657b66ea316d21385b68909f,,,,,,,,,,,,,,,,,,,,,,,,,,,,,,,,,,,,,,,,,,195.455,195.7429,right,0.2752,,195.7429,5,2,196.7383,0,17,17,17,1,8,4,9,5,,,,,,,,,,,,,,,,,,,,,,,,,,,,,,,,,,,,,,,,,
,,64b469b7e8466658269e356b,65af56bbf3ebe8cc90bc71f1,2024-01-23_19h10.44.672,bars,2023.2.3,Win32,120.4819277,657b66ea316d21385b68909f,,,,,,,,,,,,,,,,,,,,,,,,,,,,,,,,,,,,,,,,,,196.7386,198.4551,right,1.7063,,198.4552,1,2,199.455,0,18,18,18,1,6,2,5,1,,,,,,,,,,,,,,,,,,,,,,,,,,,,,,,,,,,,,,,,,
,,64b469b7e8466658269e356b,65af56bbf3ebe8cc90bc71f1,2024-01-23_19h10.44.672,bars,2023.2.3,Win32,120.4819277,657b66ea316d21385b68909f,,,,,,,,,,,,,,,,,,,,,,,,,,,,,,,,,,,,,,,,,,199.461,199.599,left,0.1336,,199.599,7,1,200.5966,0,19,19,19,1,8,0,7,0,,,,,,,,,,,,,,,,,,,,,,,,,,,,,,,,,,,,,,,,,
,,64b469b7e8466658269e356b,65af56bbf3ebe8cc90bc71f1,2024-01-23_19h10.44.672,bars,2023.2.3,Win32,120.4819277,657b66ea316d21385b68909f,,,,,,,,,,,,,,,,,,,,,,,,,,,,,,,,,,,,,,,,,,,,,,,,,,,,,,,,,,,,200.597,233.1996,space,32.5897,,,,,,,,,,,,,,,,,,,,,,,,,,,,,,,,,,,,,
,,64b469b7e8466658269e356b,65af56bbf3ebe8cc90bc71f1,2024-01-23_19h10.44.672,bars,2023.2.3,Win32,120.4819277,657b66ea316d21385b68909f,,,,,,,,,,,235.1991,236.1969,,,236.6969,236.9407,,31,31,,,,,,,,,,,,,,,,bars/047.png,bars/mask000.png,,,,,,,,,,,,2,1,,,,,,,5,5,5,6,,,,,,233.207,235.1969,space,1.9833,,236.197,236.6969,236.9408,241.7153,space,4.7604,,241.7157,16,39,242.7136,242.7138,271.6307,space,28.9047,,0,0,0,0,1,15,70,,,,,,,,
,,64b469b7e8466658269e356b,65af56bbf3ebe8cc90bc71f1,2024-01-23_19h10.44.672,bars,2023.2.3,Win32,120.4819277,657b66ea316d21385b68909f,,,,,,,,,,,271.6371,272.6387,,,273.1387,273.3886,,135,-45,,,,,,,,,,,,,,,,bars/008.png,bars/mask006.png,,,,,,,,,,,,0,1,,,,,,,3,3,1,3,,,,,,,,,,,272.6388,273.1387,273.3886,277.3805,space,3.9846,,277.3806,25,45,278.3805,278.3805,341.9974,space,63.6021,,0,1,1,1,1,110,0,,,,,,,,
,,64b469b7e8466658269e356b,65af56bbf3ebe8cc90bc71f1,2024-01-23_19h10.44.672,bars,2023.2.3,Win32,120.4819277,657b66ea316d21385b68909f,,,,,,,,,,,342.0036,343.0056,,,343.4974,343.7473,,127,127,,,,,,,,,,,,,,,,bars/034.png,bars/mask007.png,,,,,,,,,,,,2,1,,,,,,,1,5,2,7,,,,,,,,,,,343.0057,343.4974,343.7473,346.2056,space,2.4531,,346.2058,2,62,347.2056,347.2056,362.5724,space,15.3559,,0,2,2,2,1,125,65,,,,,,,,
,,64b469b7e8466658269e356b,65af56bbf3ebe8cc90bc71f1,2024-01-23_19h10.44.672,bars,2023.2.3,Win32,120.4819277,657b66ea316d21385b68909f,,,,,,,,,,,362.5785,363.5726,,,364.0724,364.3224,,129,129,,,,,,,,,,,,,,,,bars/000.png,bars/mask008.png,,,,,,,,,,,,4,2,,,,,,,0,7,0,9,,,,,,,,,,,363.5726,364.0724,364.3224,367.6308,space,3.3002,,367.6308,89,16,368.6307,368.6307,373.1892,space,4.5425,,0,3,3,3,1,40,145,,,,,,,,
,,64b469b7e8466658269e356b,65af56bbf3ebe8cc90bc71f1,2024-01-23_19h10.44.672,bars,2023.2.3,Win32,120.4819277,657b66ea316d21385b68909f,,,,,,,,,,,373.195,374.189,,,374.6891,374.9391,,109,109,,,,,,,,,,,,,,,,bars/041.png,bars/mask005.png,,,,,,,,,,,,1,2,,,,,,,0,5,2,4,,,,,,,,,,,374.1891,374.6891,374.9391,377.6406,space,2.692,,377.6406,89,24,378.6391,378.6391,386.8226,space,8.1685,,0,4,4,4,1,20,85,,,,,,,,
,,64b469b7e8466658269e356b,65af56bbf3ebe8cc90bc71f1,2024-01-23_19h10.44.672,bars,2023.2.3,Win32,120.4819277,657b66ea316d21385b68909f,,,,,,,,,,,386.8288,387.8307,,,388.3309,388.5809,,75,75,,,,,,,,,,,,,,,,bars/022.png,bars/mask006.png,,,,,,,,,,,,1,1,,,,,,,2,7,3,8,,,,,,,,,,,387.8307,388.3309,388.5809,390.4059,space,1.8169,,390.4059,20,55,391.4058,391.4058,395.1393,space,3.7169,,0,5,5,5,1,95,20,,,,,,,,
,,64b469b7e8466658269e356b,65af56bbf3ebe8cc90bc71f1,2024-01-23_19h10.44.672,bars,2023.2.3,Win32,120.4819277,657b66ea316d21385b68909f,,,,,,,,,,,395.1452,396.1392,,,396.6393,396.8892,,75,75,,,,,,,,,,,,,,,,bars/041.png,bars/mask005.png,,,,,,,,,,,,7,2,,,,,,,4,9,4,10,,,,,,,,,,,396.1392,396.6392,396.8892,400.581,space,3.6871,,400.581,55,10,401.5809,401.5809,404.6476,space,3.0523,,0,6,6,6,1,20,85,,,,,,,,
,,64b469b7e8466658269e356b,65af56bbf3ebe8cc90bc71f1,2024-01-23_19h10.44.672,bars,2023.2.3,Win32,120.4819277,657b66ea316d21385b68909f,,,,,,,,,,,404.6535,405.6476,,,406.1477,406.3976,,142,142,,,,,,,,,,,,,,,,bars/043.png,bars/mask003.png,,,,,,,,,,,,5,2,,,,,,,2,10,1,9,,,,,,,,,,,405.6476,406.1477,406.3977,408.5984,space,2.192,,408.5985,68,12,409.5975,409.5975,413.681,space,4.0684,,0,7,7,7,1,30,130,,,,,,,,
,,64b469b7e8466658269e356b,65af56bbf3ebe8cc90bc71f1,2024-01-23_19h10.44.672,bars,2023.2.3,Win32,120.4819277,657b66ea316d21385b68909f,,,,,,,,,,,413.6869,414.6812,,,415.181,415.4309,,37,217,,,,,,,,,,,,,,,,bars/013.png,bars/mask002.png,,,,,,,,,,,,1,2,,,,,,,4,8,2,8,,,,,,,,,,,414.6812,415.181,415.4309,418.5061,space,3.0668,,418.5062,38,27,419.506,419.506,422.4226,space,2.9018,,0,8,8,8,1,75,10,,,,,,,,
,,64b469b7e8466658269e356b,65af56bbf3ebe8cc90bc71f1,2024-01-23_19h10.44.672,bars,2023.2.3,Win32,120.4819277,657b66ea316d21385b68909f,,,,,,,,,,,422.4227,423.4226,,,423.9226,424.1727,,101,101,,,,,,,,,,,,,,,,bars/045.png,bars/mask005.png,,,,,,,,,,,,7,1,,,,,,,6,6,7,7,,,,,,,,,,,423.4226,423.9226,424.1727,426.5726,space,2.3917,,426.5727,1,89,427.5726,427.5727,489.7646,space,62.1769,,0,9,9,9,1,100,10,,,,,,,,
,,64b469b7e8466658269e356b,65af56bbf3ebe8cc90bc71f1,2024-01-23_19h10.44.672,bars,2023.2.3,Win32,120.4819277,657b66ea316d21385b68909f,,,,,,,,,,,489.7712,490.7646,,,491.2649,491.5146,,25,25,,,,,,,,,,,,,,,,bars/005.png,bars/mask000.png,,,,,,,,,,,,2,1,,,,,,,4,4,3,6,,,,,,,,,,,490.7646,491.2649,491.5147,494.9979,space,3.4777,,494.9979,15,65,495.9979,495.9979,499.7812,space,3.7694,,0,10,10,10,1,10,140,,,,,,,,
,,64b469b7e8466658269e356b,65af56bbf3ebe8cc90bc71f1,2024-01-23_19h10.44.672,bars,2023.2.3,Win32,120.4819277,657b66ea316d21385b68909f,,,,,,,,,,,499.7883,500.7813,,,501.2812,501.5312,,27,27,,,,,,,,,,,,,,,,bars/019.png,bars/mask004.png,,,,,,,,,,,,2,1,,,,,,,6,6,6,8,,,,,,,,,,,500.7813,501.2812,501.5312,502.8313,space,1.2919,,502.8313,18,78,503.8313,503.8313,505.7646,space,1.9203,,0,11,11,11,1,45,105,,,,,,,,
,,64b469b7e8466658269e356b,65af56bbf3ebe8cc90bc71f1,2024-01-23_19h10.44.672,bars,2023.2.3,Win32,120.4819277,657b66ea316d21385b68909f,,,,,,,,,,,505.7649,506.7645,,,507.2648,507.5148,,29,29,,,,,,,,,,,,,,,,bars/022.png,bars/mask006.png,,,,,,,,,,,,5,2,,,,,,,8,8,8,7,,,,,,,,,,,506.7645,507.2647,507.5149,510.6488,space,3.1273,,510.6488,66,9,511.648,511.648,513.5979,space,1.9377,,0,12,12,12,1,95,20,,,,,,,,
,,64b469b7e8466658269e356b,65af56bbf3ebe8cc90bc71f1,2024-01-23_19h10.44.672,bars,2023.2.3,Win32,120.4819277,657b66ea316d21385b68909f,,,,,,,,,,,513.5981,514.598,,,515.0981,515.3479,,14,194,,,,,,,,,,,,,,,,bars/020.png,bars/mask000.png,,,,,,,,,,,,1,2,,,,,,,10,6,10,3,,,,,,,,,,,514.598,515.0981,515.348,517.2897,space,1.9338,,517.2898,79,24,518.2897,518.2897,523.1502,space,4.849,,0,13,13,13,1,115,170,,,,,,,,
,,64b469b7e8466658269e356b,65af56bbf3ebe8cc90bc71f1,2024-01-23_19h10.44.672,bars,2023.2.3,Win32,120.4819277,657b66ea316d21385b68909f,,,,,,,,,,,523.1561,524.1563,,,524.6563,524.9063,,114,114,,,,,,,,,,,,,,,,bars/045.png,bars/mask003.png,,,,,,,,,,,,4,1,,,,,,,10,4,8,5,,,,,,,,,,,524.1563,524.6562,524.9063,528.1814,space,3.2692,,528.1814,14,76,529.1814,529.1814,533.0814,space,3.8856,,0,14,14,14,1,100,10,,,,,,,,
,,64b469b7e8466658269e356b,65af56bbf3ebe8cc90bc71f1,2024-01-23_19h10.44.672,bars,2023.2.3,Win32,120.4819277,657b66ea316d21385b68909f,,,,,,,,,,,533.0874,534.0813,,,534.5814,534.8313,,61,61,,,,,,,,,,,,,,,,bars/048.png,bars/mask002.png,,,,,,,,,,,,6,1,,,,,,,10,6,10,5,,,,,,,,,,,534.0813,534.5814,534.8313,538.8571,space,4.0179,,538.8571,11,66,539.8564,539.8565,541.9398,space,2.0699,,0,15,15,15,1,50,175,,,,,,,,
,,64b469b7e8466658269e356b,65af56bbf3ebe8cc90bc71f1,2024-01-23_19h10.44.672,bars,2023.2.3,Win32,120.4819277,657b66ea316d21385b68909f,,,,,,,,,,,541.9401,542.9398,,,543.4397,543.6898,,116,116,,,,,,,,,,,,,,,,bars/025.png,bars/mask005.png,,,,,,,,,,,,6,1,,,,,,,10,8,10,9,,,,,,,,,,,542.9398,543.4397,543.6898,545.5816,space,1.8841,,545.5817,11,76,546.5815,546.5815,547.6815,space,1.0879,,0,16,16,16,1,105,40,,,,,,,,
,,64b469b7e8466658269e356b,65af56bbf3ebe8cc90bc71f1,2024-01-23_19h10.44.672,bars,2023.2.3,Win32,120.4819277,657b66ea316d21385b68909f,,,,,,,,,,,547.6817,548.6815,,,549.1816,549.4316,,117,117,,,,,,,,,,,,,,,,bars/020.png,bars/mask000.png,,,,,,,,,,,,7,1,,,,,,,8,10,8,8,,,,,,,,,,,548.6816,549.1816,549.4316,552.4316,space,2.9918,,552.4316,2,53,553.4314,553.4314,556.0398,space,2.5964,,0,17,17,17,1,115,170,,,,,,,,
,,64b469b7e8466658269e356b,65af56bbf3ebe8cc90bc71f1,2024-01-23_19h10.44.672,bars,2023.2.3,Win32,120.4819277,657b66ea316d21385b68909f,,,,,,,,,,,556.0457,557.0398,,,557.5398,557.7897,,125,125,,,,,,,,,,,,,,,,bars/025.png,bars/mask000.png,,,,,,,,,,,,1,1,,,,,,,6,8,4,9,,,,,,,,,,,557.0398,557.5398,557.7897,559.0732,space,1.2756,,559.0732,20,85,560.0737,560.0737,561.0483,space,0.9601,,0,18,18,18,1,105,40,,,,,,,,
,,64b469b7e8466658269e356b,65af56bbf3ebe8cc90bc71f1,2024-01-23_19h10.44.672,bars,2023.2.3,Win32,120.4819277,657b66ea316d21385b68909f,,,,,,,,,,,561.0485,562.0482,,,562.5482,562.7981,,160,160,,,,,,,,,,,,,,,,bars/014.png,bars/mask008.png,,,,,,,,,,,,2,2,,,,,,,4,6,5,5,,,,,,,,,,,562.0482,562.5482,562.7981,564.39,space,1.5836,,564.39,80,20,565.3898,565.3898,566.2405,space,0.8406,,0,19,19,19,1,80,0,,,,,,,,
,,64b469b7e8466658269e356b,65af56bbf3ebe8cc90bc71f1,2024-01-23_19h10.44.672,bars,2023.2.3,Win32,120.4819277,657b66ea316d21385b68909f,,,,,,,,,,,566.2412,567.2398,,,567.74,567.9897,,81,81,,,,,,,,,,,,,,,,bars/046.png,bars/mask004.png,,,,,,,,,,,,8,2,,,,,,,6,8,7,9,,,,,,,,,,,567.2398,567.7399,567.9897,570.3149,space,2.3207,,570.315,74,4,571.3148,571.3148,572.9732,space,1.6437,,0,20,20,20,1,155,85,,,,,,,,
,,64b469b7e8466658269e356b,65af56bbf3ebe8cc90bc71f1,2024-01-23_19h10.44.672,bars,2023.2.3,Win32,120.4819277,657b66ea316d21385b68909f,,,,,,,,,,,572.9734,573.9737,,,574.4688,574.7188,,98,98,,,,,,,,,,,,,,,,bars/039.png,bars/mask006.png,,,,,,,,,,,,8,2,,,,,,,4,10,5,10,,,,,,,,,,,573.9737,574.4688,574.7189,576.5504,space,1.8234,,576.5504,77,7,577.552,577.552,578.5173,space,0.9567,,0,21,21,21,1,175,105,,,,,,,,
,,64b469b7e8466658269e356b,65af56bbf3ebe8cc90bc71f1,2024-01-23_19h10.44.672,bars,2023.2.3,Win32,120.4819277,657b66ea316d21385b68909f,,,,,,,,,,,578.5175,579.5168,,,580.0169,580.2687,,104,104,,,,,,,,,,,,,,,,bars/006.png,bars/mask000.png,,,,,,,,,,,,9,2,,,,,,,2,8,2,10,,,,,,,,,,,579.5169,580.0169,580.2688,582.4839,space,2.207,,582.484,69,4,583.4854,583.4854,584.4505,space,0.9565,,0,22,22,22,1,35,100,,,,,,,,
,,64b469b7e8466658269e356b,65af56bbf3ebe8cc90bc71f1,2024-01-23_19h10.44.672,bars,2023.2.3,Win32,120.4819277,657b66ea316d21385b68909f,,,,,,,,,,,584.4507,585.4502,,,585.9522,586.2021,,130,130,,,,,,,,,,,,,,,,bars/037.png,bars/mask002.png,,,,,,,,,,,,0,1,,,,,,,0,6,0,6,,,,,,,,,,,585.4502,585.9522,586.2021,588.4171,space,2.2068,,588.4171,20,25,589.4187,589.4188,591.6755,space,2.2481,,0,23,23,23,1,150,105,,,,,,,,
,,64b469b7e8466658269e356b,65af56bbf3ebe8cc90bc71f1,2024-01-23_19h10.44.672,bars,2023.2.3,Win32,120.4819277,657b66ea316d21385b68909f,,,,,,,,,,,591.6756,592.677,,,593.1772,593.4252,,31,31,,,,,,,,,,,,,,,,bars/032.png,bars/mask003.png,,,,,,,,,,,,6,2,,,,,,,2,8,2,9,,,,,,,,,,,592.677,593.1772,593.4252,595.4523,space,2.0188,,595.4523,86,11,596.452,596.452,597.1983,space,0.7225,,0,24,24,24,1,125,20,,,,,,,,
,,64b469b7e8466658269e356b,65af56bbf3ebe8cc90bc71f1,2024-01-23_19h10.44.672,bars,2023.2.3,Win32,120.4819277,657b66ea316d21385b68909f,,,,,,,,,,,597.1985,598.1984,,,598.6946,598.9399,,49,229,,,,,,,,,,,,,,,,bars/035.png,bars/mask003.png,,,,,,,,,,,,6,2,,,,,,,0,10,0,10,,,,,,,,,,,598.1984,598.6946,598.9399,602.4486,space,3.4929,,602.4487,54,11,603.4483,603.4483,604.4594,space,0.9979,,0,25,25,25,1,175,60,,,,,,,,
,,64b469b7e8466658269e356b,65af56bbf3ebe8cc90bc71f1,2024-01-23_19h10.44.672,bars,2023.2.3,Win32,120.4819277,657b66ea316d21385b68909f,,,,,,,,,,,604.4595,605.4589,,,605.953,606.1983,,162,-18,,,,,,,,,,,,,,,,bars/033.png,bars/mask008.png,,,,,,,,,,,,7,2,,,,,,,0,8,0,9,,,,,,,,,,,605.4589,605.953,606.1983,609.0984,space,2.8839,,609.0984,43,7,610.0983,610.0983,610.7733,space,0.664,,0,26,26,26,1,25,155,,,,,,,,
,,64b469b7e8466658269e356b,65af56bbf3ebe8cc90bc71f1,2024-01-23_19h10.44.672,bars,2023.2.3,Win32,120.4819277,657b66ea316d21385b68909f,,,,,,,,,,,610.7736,611.7733,,,612.2734,612.5234,,134,134,,,,,,,,,,,,,,,,bars/005.png,bars/mask003.png,,,,,,,,,,,,4,2,,,,,,,0,6,3,5,,,,,,,,,,,611.7733,612.2734,612.5234,615.8568,space,3.3177,,615.8568,56,6,616.8566,616.8566,618.3258,space,1.456,,0,27,27,27,1,10,140,,,,,,,,
,,64b469b7e8466658269e356b,65af56bbf3ebe8cc90bc71f1,2024-01-23_19h10.44.672,bars,2023.2.3,Win32,120.4819277,657b66ea316d21385b68909f,,,,,,,,,,,618.326,619.3234,,,619.8234,620.0733,,149,149,,,,,,,,,,,,,,,,bars/030.png,bars/mask001.png,,,,,,,,,,,,1,1,,,,,,,0,8,1,8,,,,,,,,,,,619.3234,619.8233,620.0733,623.4427,space,3.3587,,623.4427,9,84,624.44,624.44,625.7402,space,1.281,,0,28,28,28,1,140,65,,,,,,,,
,,64b469b7e8466658269e356b,65af56bbf3ebe8cc90bc71f1,2024-01-23_19h10.44.672,bars,2023.2.3,Win32,120.4819277,657b66ea316d21385b68909f,,,,,,,,,,,625.7403,626.7401,,,627.24,627.49,,110,110,,,,,,,,,,,,,,,,bars/023.png,bars/mask005.png,,,,,,,,,,,,7,2,,,,,,,0,6,2,8,,,,,,,,,,,626.7401,627.24,627.49,629.3072,space,1.8029,,629.3073,90,5,630.3067,630.3067,630.9651,space,0.6447,,0,29,29,29,1,20,115,,,,,,,,
,,64b469b7e8466658269e356b,65af56bbf3ebe8cc90bc71f1,2024-01-23_19h10.44.672,bars,2023.2.3,Win32,120.4819277,657b66ea316d21385b68909f,,,,,,,,,,,630.9653,631.959,,,632.4567,632.7067,,66,66,,,,,,,,,,,,,,,,bars/025.png,bars/mask007.png,,,,,,,,,,,,1,2,,,,,,,0,8,0,7,,,,,,,,,,,631.959,632.4567,632.7068,635.6235,space,2.9102,,635.6235,39,26,636.6235,636.6236,637.2402,space,0.596,,0,30,30,30,1,105,40,,,,,,,,
,,64b469b7e8466658269e356b,65af56bbf3ebe8cc90bc71f1,2024-01-23_19h10.44.672,bars,2023.2.3,Win32,120.4819277,657b66ea316d21385b68909f,,,,,,,,,,,637.2404,638.2401,,,638.7402,638.9902,,74,74,,,,,,,,,,,,,,,,bars/038.png,bars/mask002.png,,,,,,,,,,,,9,2,,,,,,,2,10,0,10,,,,,,,,,,,638.2402,638.7402,638.9902,641.1659,space,2.1685,,641.166,89,4,642.1653,642.1653,642.7984,space,0.6187,,0,31,31,31,1,165,70,,,,,,,,
,,64b469b7e8466658269e356b,65af56bbf3ebe8cc90bc71f1,2024-01-23_19h10.44.672,bars,2023.2.3,Win32,120.4819277,657b66ea316d21385b68909f,,,,,,,,,,,642.7987,643.7984,,,644.2986,644.5484,,79,79,,,,,,,,,,,,,,,,bars/002.png,bars/mask009.png,,,,,,,,,,,,7,2,,,,,,,4,10,5,9,,,,,,,,,,,643.7984,644.2986,644.5484,648.1402,space,3.5836,,648.1402,51,6,649.1403,649.1403,649.6404,space,0.485,,0,32,32,32,1,130,85,,,,,,,,
,,64b469b7e8466658269e356b,65af56bbf3ebe8cc90bc71f1,2024-01-23_19h10.44.672,bars,2023.2.3,Win32,120.4819277,657b66ea316d21385b68909f,,,,,,,,,,,649.6405,650.6405,,,651.1402,651.3902,,70,70,,,,,,,,,,,,,,,,bars/047.png,bars/mask001.png,,,,,,,,,,,,8,2,,,,,,,6,8,7,8,,,,,,,,,,,650.6405,651.1402,651.3902,654.2819,space,2.8864,,654.2819,55,0,655.2819,655.2819,655.6235,space,0.3309,,0,33,33,33,1,15,70,,,,,,,,
,,64b469b7e8466658269e356b,65af56bbf3ebe8cc90bc71f1,2024-01-23_19h10.44.672,bars,2023.2.3,Win32,120.4819277,657b66ea316d21385b68909f,,,,,,,,,,,655.6237,656.6235,,,657.1235,657.3736,,117,-63,,,,,,,,,,,,,,,,bars/023.png,bars/mask002.png,,,,,,,,,,,,7,2,,,,,,,4,6,4,7,,,,,,,,,,,656.6235,657.1235,657.3736,660.7902,space,3.4086,,660.7903,83,2,661.7903,661.7903,662.5152,space,0.7101,,0,34,34,34,1,20,115,,,,,,,,
,,64b469b7e8466658269e356b,65af56bbf3ebe8cc90bc71f1,2024-01-23_19h10.44.672,bars,2023.2.3,Win32,120.4819277,657b66ea316d21385b68909f,,,,,,,,,,,662.5154,663.5152,,,664.0153,664.2654,,113,113,,,,,,,,,,,,,,,,bars/039.png,bars/mask000.png,,,,,,,,,,,,5,2,,,,,,,6,8,6,7,,,,,,,,,,,663.5153,664.0153,664.2654,666.066,space,1.7921,,666.066,62,8,667.0652,667.0652,667.9987,space,0.9186,,0,35,35,35,1,175,105,,,,,,,,
,,64b469b7e8466658269e356b,65af56bbf3ebe8cc90bc71f1,2024-01-23_19h10.44.672,bars,2023.2.3,Win32,120.4819277,657b66ea316d21385b68909f,,,,,,,,,,,667.9989,668.9985,,,669.4987,669.7486,,115,115,,,,,,,,,,,,,,,,bars/006.png,bars/mask008.png,,,,,,,,,,,,5,2,,,,,,,8,10,7,9,,,,,,,,,,,668.9986,669.4987,669.7486,672.4903,space,2.737,,672.4903,80,15,673.4902,673.4903,674.1236,space,0.6186,,0,36,36,36,1,35,100,,,,,,,,
,,64b469b7e8466658269e356b,65af56bbf3ebe8cc90bc71f1,2024-01-23_19h10.44.672,bars,2023.2.3,Win32,120.4819277,657b66ea316d21385b68909f,,,,,,,,,,,674.1238,675.1237,,,675.6243,675.8737,,173,-7,,,,,,,,,,,,,,,,bars/033.png,bars/mask006.png,,,,,,,,,,,,4,2,,,,,,,10,10,9,10,,,,,,,,,,,675.1237,675.6243,675.8737,679.3402,space,3.4619,,679.3403,32,18,680.3402,680.3403,681.1905,space,0.8351,,0,37,37,37,1,25,155,,,,,,,,
,,64b469b7e8466658269e356b,65af56bbf3ebe8cc90bc71f1,2024-01-23_19h10.44.672,bars,2023.2.3,Win32,120.4819277,657b66ea316d21385b68909f,,,,,,,,,,,681.1907,682.1903,,,682.6904,682.9403,,140,140,,,,,,,,,,,,,,,,bars/000.png,bars/mask005.png,,,,,,,,,,,,7,2,,,,,,,10,8,10,8,,,,,,,,,,,682.1904,682.6903,682.9403,684.9487,space,2.0004,,684.9487,80,5,685.9487,685.9487,686.5154,space,0.5593,,0,38,38,38,1,40,145,,,,,,,,
,,64b469b7e8466658269e356b,65af56bbf3ebe8cc90bc71f1,2024-01-23_19h10.44.672,bars,2023.2.3,Win32,120.4819277,657b66ea316d21385b68909f,,,,,,,,,,,686.5155,687.5153,,,688.0154,688.2653,,9,189,,,,,,,,,,,,,,,,bars/014.png,bars/mask005.png,,,,,,,,,,,,6,2,,,,,,,10,10,10,9,,,,,,,,,,,687.5154,688.0153,688.2653,691.0071,space,2.7373,,691.0071,71,9,692.007,692.0071,692.7321,space,0.71,,0,39,39,39,1,80,0,,,,,,,,
,,64b469b7e8466658269e356b,65af56bbf3ebe8cc90bc71f1,2024-01-23_19h10.44.672,bars,2023.2.3,Win32,120.4819277,657b66ea316d21385b68909f,,,,,,,,,,,692.7322,693.7318,,,694.2321,694.4821,,78,78,,,,,,,,,,,,,,,,bars/046.png,bars/mask002.png,,,,,,,,,,,,6,2,,,,,,,10,8,9,8,,,,,,,,,,,693.7319,694.2321,694.4821,696.9903,space,2.5005,,696.9904,77,7,697.9904,697.9904,698.7571,space,0.7583,,0,40,40,40,1,155,85,,,,,,,,
,,64b469b7e8466658269e356b,65af56bbf3ebe8cc90bc71f1,2024-01-23_19h10.44.672,bars,2023.2.3,Win32,120.4819277,657b66ea316d21385b68909f,,,,,,,,,,,698.7573,699.757,,,700.2571,700.5071,,4,184,,,,,,,,,,,,,,,,bars/048.png,bars/mask000.png,,,,,,,,,,,,5,2,,,,,,,8,6,7,7,,,,,,,,,,,699.757,700.2571,700.5071,703.3071,space,2.7918,,703.3071,46,9,704.3071,704.3072,704.9155,space,0.5955,,0,41,41,41,1,50,175,,,,,,,,
,,64b469b7e8466658269e356b,65af56bbf3ebe8cc90bc71f1,2024-01-23_19h10.44.672,bars,2023.2.3,Win32,120.4819277,657b66ea316d21385b68909f,,,,,,,,,,,704.9159,705.9154,,,706.4154,706.6655,,96,96,,,,,,,,,,,,,,,,bars/018.png,bars/mask007.png,,,,,,,,,,,,2,2,,,,,,,10,4,10,3,,,,,,,,,,,705.9155,706.4154,706.6655,707.7237,space,1.0521,,707.7237,54,6,708.7236,708.7237,711.0322,space,2.3022,,0,42,42,42,1,150,90,,,,,,,,
,,64b469b7e8466658269e356b,65af56bbf3ebe8cc90bc71f1,2024-01-23_19h10.44.672,bars,2023.2.3,Win32,120.4819277,657b66ea316d21385b68909f,,,,,,,,,,,711.0324,712.032,,,712.5322,712.7822,,119,119,,,,,,,,,,,,,,,,bars/025.png,bars/mask004.png,,,,,,,,,,,,5,1,,,,,,,10,6,10,6,,,,,,,,,,,712.032,712.5322,712.7822,715.7654,space,2.9765,,715.7654,14,79,716.7655,716.7655,717.3656,space,0.5849,,0,43,43,43,1,105,40,,,,,,,,
,,64b469b7e8466658269e356b,65af56bbf3ebe8cc90bc71f1,2024-01-23_19h10.44.672,bars,2023.2.3,Win32,120.4819277,657b66ea316d21385b68909f,,,,,,,,,,,717.3657,718.3655,,,718.8655,719.1156,,25,205,,,,,,,,,,,,,,,,bars/016.png,bars/mask003.png,,,,,,,,,,,,5,1,,,,,,,10,4,9,5,,,,,,,,,,,718.3655,718.8654,719.1156,723.2074,space,4.0882,,723.2074,15,40,724.2071,724.2071,724.8321,space,0.6102,,0,44,44,44,1,40,165,,,,,,,,
,,64b469b7e8466658269e356b,65af56bbf3ebe8cc90bc71f1,2024-01-23_19h10.44.672,bars,2023.2.3,Win32,120.4819277,657b66ea316d21385b68909f,,,,,,,,,,,724.8323,725.8322,,,726.3323,726.5822,,25,25,,,,,,,,,,,,,,,,bars/007.png,bars/mask005.png,,,,,,,,,,,,0,2,,,,,,,8,2,7,0,,,,,,,,,,,725.8322,726.3322,726.5822,729.5989,space,3.0086,,729.599,30,30,730.5989,730.5989,731.7322,space,1.1182,,0,45,45,45,1,175,55,,,,,,,,
,,64b469b7e8466658269e356b,65af56bbf3ebe8cc90bc71f1,2024-01-23_19h10.44.672,bars,2023.2.3,Win32,120.4819277,657b66ea316d21385b68909f,,,,,,,,,,,731.7325,732.7332,,,733.2322,733.4821,,134,134,,,,,,,,,,,,,,,,bars/037.png,bars/mask006.png,,,,,,,,,,,,2,1,,,,,,,6,4,4,4,,,,,,,,,,,732.7333,733.2321,733.4821,734.2989,space,0.8104,,734.2989,16,29,735.2989,735.2989,737.0905,space,1.7798,,0,46,46,46,1,150,105,,,,,,,,
,,64b469b7e8466658269e356b,65af56bbf3ebe8cc90bc71f1,2024-01-23_19h10.44.672,bars,2023.2.3,Win32,120.4819277,657b66ea316d21385b68909f,,,,,,,,,,,737.0907,738.0906,,,738.5906,738.8405,,54,54,,,,,,,,,,,,,,,,bars/030.png,bars/mask006.png,,,,,,,,,,,,1,2,,,,,,,8,2,9,1,,,,,,,,,,,738.0906,738.5906,738.8405,740.0073,space,1.1585,,740.0073,86,11,741.0072,741.0072,742.1573,space,1.1413,,0,47,47,47,1,140,65,,,,,,,,
,,64b469b7e8466658269e356b,65af56bbf3ebe8cc90bc71f1,2024-01-23_19h10.44.672,bars,2023.2.3,Win32,120.4819277,657b66ea316d21385b68909f,,,,,,,,,,,742.1575,743.1573,,,743.6573,743.9072,,139,139,,,,,,,,,,,,,,,,bars/049.png,bars/mask007.png,,,,,,,,,,,,3,1,,,,,,,10,0,10,0,,,,,,,,,,,743.1573,743.6573,743.9072,745.9574,space,2.0419,,745.9574,21,24,746.9574,746.9574,747.6322,space,0.6599,,0,48,48,48,1,160,115,,,,,,,,
,,64b469b7e8466658269e356b,65af56bbf3ebe8cc90bc71f1,2024-01-23_19h10.44.672,bars,2023.2.3,Win32,120.4819277,657b66ea316d21385b68909f,,,,,,,,,,,747.6324,748.6323,,,749.1322,749.3821,,144,144,,,,,,,,,,,,,,,,bars/031.png,bars/mask005.png,,,,,,,,,,,,2,1,,,,,,,10,2,10,3,,,,,,,,,,,748.6323,749.1322,749.3822,751.049,space,1.6594,,751.049,24,71,752.049,752.049,752.6074,space,0.5545,,0,49,49,49,1,120,35,,,,,,,,
,,64b469b7e8466658269e356b,65af56bbf3ebe8cc90bc71f1,2024-01-23_19h10.44.672,bars,2023.2.3,Win32,120.4819277,657b66ea316d21385b68909f,,,,,,,,,,,,,,,,,,,,,,,,,,,,,,,,,,,,,,,,,,,,,,,,,,,,,,,,,,,,,,,,,,,,,,,,,,,,,,,,,,,,,,,,,,,,,752.6078,812.6079,0,0,0,4,1,sequence_tables/blk024.csv
,,64b469b7e8466658269e356b,65af56bbf3ebe8cc90bc71f1,2024-01-23_19h10.44.672,bars,2023.2.3,Win32,120.4819277,657b66ea316d21385b68909f,,,,,,,,,,,831.5083,832.4992,,,832.9992,833.2493,,140,140,,,,,,,,,,,,,,,,bars/018.png,bars/mask003.png,,,,,,,,,,,,5,1,,,,,,,8,3,7,2,,,,,,812.6141,831.4992,space,18.8807,,832.4992,832.9992,833.2493,834.9411,space,1.6835,,834.9411,10,50,835.9409,835.9409,835.9472,,,,0,0,0,0,1,150,90,,,,,,,,
,,64b469b7e8466658269e356b,65af56bbf3ebe8cc90bc71f1,2024-01-23_19h10.44.672,bars,2023.2.3,Win32,120.4819277,657b66ea316d21385b68909f,,,,,,,,,,,835.9473,836.9411,,,837.4409,837.6909,,42,42,,,,,,,,,,,,,,,,bars/006.png,bars/mask001.png,,,,,,,,,,,,5,1,,,,,,,6,5,6,4,,,,,,,,,,,836.9411,837.4409,837.691,838.666,space,0.967,,838.666,7,58,839.6659,839.6659,839.6721,,,,0,1,1,1,1,35,100,,,,,,,,
,,64b469b7e8466658269e356b,65af56bbf3ebe8cc90bc71f1,2024-01-23_19h10.44.672,bars,2023.2.3,Win32,120.4819277,657b66ea316d21385b68909f,,,,,,,,,,,839.6722,840.6659,,,841.166,841.416,,49,229,,,,,,,,,,,,,,,,bars/010.png,bars/mask007.png,,,,,,,,,,,,2,2,,,,,,,8,3,8,3,,,,,,,,,,,840.666,841.166,841.416,845.4494,space,4.0258,,845.4495,64,6,846.4493,846.4493,846.4558,,,,0,2,2,2,1,165,55,,,,,,,,
,,64b469b7e8466658269e356b,65af56bbf3ebe8cc90bc71f1,2024-01-23_19h10.44.672,bars,2023.2.3,Win32,120.4819277,657b66ea316d21385b68909f,,,,,,,,,,,846.456,847.4577,,,847.9578,848.2075,,30,210,,,,,,,,,,,,,,,,bars/004.png,bars/mask009.png,,,,,,,,,,,,4,1,,,,,,,6,5,5,5,,,,,,,,,,,847.4577,847.9577,848.2075,851.4992,space,3.2836,,851.4992,5,85,852.4992,852.4992,852.5059,,,,0,3,3,3,1,25,125,,,,,,,,
,,64b469b7e8466658269e356b,65af56bbf3ebe8cc90bc71f1,2024-01-23_19h10.44.672,bars,2023.2.3,Win32,120.4819277,657b66ea316d21385b68909f,,,,,,,,,,,852.506,853.5078,,,854.0076,854.2578,,129,129,,,,,,,,,,,,,,,,bars/031.png,bars/mask006.png,,,,,,,,,,,,6,1,,,,,,,8,3,9,3,,,,,,,,,,,853.5078,854.0076,854.2578,855.266,space,1.001,,855.266,9,86,856.266,856.266,856.2664,,,,0,4,4,4,1,120,35,,,,,,,,
,,64b469b7e8466658269e356b,65af56bbf3ebe8cc90bc71f1,2024-01-23_19h10.44.672,bars,2023.2.3,Win32,120.4819277,657b66ea316d21385b68909f,,,,,,,,,,,856.2665,857.266,,,857.7661,858.016,,35,215,,,,,,,,,,,,,,,,bars/003.png,bars/mask003.png,,,,,,,,,,,,4,1,,,,,,,6,1,6,2,,,,,,,,,,,857.266,857.7661,858.016,861.1994,space,3.1753,,861.1994,10,75,862.1995,862.1995,862.2056,,,,0,5,5,5,1,25,140,,,,,,,,
,,64b469b7e8466658269e356b,65af56bbf3ebe8cc90bc71f1,2024-01-23_19h10.44.672,bars,2023.2.3,Win32,120.4819277,657b66ea316d21385b68909f,,,,,,,,,,,862.2057,863.2077,,,863.7078,863.9578,,71,71,,,,,,,,,,,,,,,,bars/044.png,bars/mask000.png,,,,,,,,,,,,3,1,,,,,,,4,3,3,3,,,,,,,,,,,863.2077,863.7078,863.9578,868.2327,space,4.2678,,868.2327,4,84,869.2328,869.2328,869.2388,,,,0,6,6,6,1,75,155,,,,,,,,
,,64b469b7e8466658269e356b,65af56bbf3ebe8cc90bc71f1,2024-01-23_19h10.44.672,bars,2023.2.3,Win32,120.4819277,657b66ea316d21385b68909f,,,,,,,,,,,869.239,870.2411,,,870.7411,870.991,,58,58,,,,,,,,,,,,,,,,bars/027.png,bars/mask008.png,,,,,,,,,,,,1,2,,,,,,,6,1,7,1,,,,,,,,,,,870.2412,870.7411,870.9911,872.4163,space,1.4172,,872.4163,52,8,873.4162,873.4162,873.417,,,,0,7,7,7,1,110,50,,,,,,,,
,,64b469b7e8466658269e356b,65af56bbf3ebe8cc90bc71f1,2024-01-23_19h10.44.672,bars,2023.2.3,Win32,120.4819277,657b66ea316d21385b68909f,,,,,,,,,,,873.4171,874.4162,,,874.9161,875.1659,,134,134,,,,,,,,,,,,,,,,bars/032.png,bars/mask003.png,,,,,,,,,,,,6,1,,,,,,,8,3,9,4,,,,,,,,,,,874.4162,874.9161,875.1659,876.9329,space,1.7632,,876.9329,9,66,877.9327,877.9327,877.9394,,,,0,8,8,8,1,125,20,,,,,,,,
,,64b469b7e8466658269e356b,65af56bbf3ebe8cc90bc71f1,2024-01-23_19h10.44.672,bars,2023.2.3,Win32,120.4819277,657b66ea316d21385b68909f,,,,,,,,,,,877.9395,878.9411,,,879.4411,879.6915,,16,16,,,,,,,,,,,,,,,,bars/009.png,bars/mask005.png,,,,,,,,,,,,8,1,,,,,,,10,1,8,1,,,,,,,,,,,878.9411,879.4411,879.6915,882.7245,space,3.0261,,882.7245,1,89,883.7245,883.7245,883.7305,,,,0,9,9,9,1,15,105,,,,,,,,
,,64b469b7e8466658269e356b,65af56bbf3ebe8cc90bc71f1,2024-01-23_19h10.44.672,bars,2023.2.3,Win32,120.4819277,657b66ea316d21385b68909f,,,,,,,,,,,883.7306,884.7245,,,885.2245,885.4744,,71,71,,,,,,,,,,,,,,,,bars/044.png,bars/mask007.png,,,,,,,,,,,,6,1,,,,,,,8,3,7,1,,,,,,,,,,,884.7245,885.2245,885.4744,886.958,space,1.4753,,886.958,4,84,887.9578,887.9578,887.9639,,,,0,10,10,10,1,75,155,,,,,,,,
,,64b469b7e8466658269e356b,65af56bbf3ebe8cc90bc71f1,2024-01-23_19h10.44.672,bars,2023.2.3,Win32,120.4819277,657b66ea316d21385b68909f,,,,,,,,,,,887.964,888.9578,,,889.4579,889.7078,,27,207,,,,,,,,,,,,,,,,bars/041.png,bars/mask000.png,,,,,,,,,,,,6,1,,,,,,,10,1,8,2,,,,,,,,,,,888.9578,889.4579,889.7078,893.1078,space,3.3919,,893.1078,7,58,894.1079,894.1079,894.1139,,,,0,11,11,11,1,20,85,,,,,,,,
,,64b469b7e8466658269e356b,65af56bbf3ebe8cc90bc71f1,2024-01-23_19h10.44.672,bars,2023.2.3,Win32,120.4819277,657b66ea316d21385b68909f,,,,,,,,,,,894.1141,895.1166,,,895.6161,895.8662,,129,129,,,,,,,,,,,,,,,,bars/015.png,bars/mask002.png,,,,,,,,,,,,4,1,,,,,,,10,0,10,0,,,,,,,,,,,895.1166,895.6161,895.8662,898.2662,space,2.3945,,898.2662,19,31,899.2661,899.2661,899.2666,,,,0,12,12,12,1,110,160,,,,,,,,
,,64b469b7e8466658269e356b,65af56bbf3ebe8cc90bc71f1,2024-01-23_19h10.44.672,bars,2023.2.3,Win32,120.4819277,657b66ea316d21385b68909f,,,,,,,,,,,899.2667,900.2662,,,900.7663,901.0163,,134,134,,,,,,,,,,,,,,,,bars/018.png,bars/mask000.png,,,,,,,,,,,,4,1,,,,,,,8,2,9,2,,,,,,,,,,,900.2662,900.7663,901.0163,904.0829,space,3.0587,,904.0829,16,44,905.083,905.083,905.089,,,,0,13,13,13,1,150,90,,,,,,,,
,,64b469b7e8466658269e356b,65af56bbf3ebe8cc90bc71f1,2024-01-23_19h10.44.672,bars,2023.2.3,Win32,120.4819277,657b66ea316d21385b68909f,,,,,,,,,,,905.0891,906.0912,,,906.5911,906.8412,,46,226,,,,,,,,,,,,,,,,bars/029.png,bars/mask005.png,,,,,,,,,,,,6,2,,,,,,,10,4,8,6,,,,,,,,,,,906.0912,906.5911,906.8413,910.1912,space,3.3457,,910.1912,44,1,911.1911,911.1911,911.1977,,,,0,14,14,14,1,90,45,,,,,,,,
,,64b469b7e8466658269e356b,65af56bbf3ebe8cc90bc71f1,2024-01-23_19h10.44.672,bars,2023.2.3,Win32,120.4819277,657b66ea316d21385b68909f,,,,,,,,,,,911.1978,912.1997,,,912.6996,912.9496,,25,205,,,,,,,,,,,,,,,,bars/032.png,bars/mask003.png,,,,,,,,,,,,5,2,,,,,,,8,6,8,6,,,,,,,,,,,912.1997,912.6996,912.9496,915.833,space,2.8764,,915.833,80,5,916.8329,916.8329,916.839,,,,0,15,15,15,1,125,20,,,,,,,,
,,64b469b7e8466658269e356b,65af56bbf3ebe8cc90bc71f1,2024-01-23_19h10.44.672,bars,2023.2.3,Win32,120.4819277,657b66ea316d21385b68909f,,,,,,,,,,,916.8391,917.8329,,,918.333,918.583,,19,199,,,,,,,,,,,,,,,,bars/022.png,bars/mask004.png,,,,,,,,,,,,9,2,,,,,,,10,8,10,9,,,,,,,,,,,917.8329,918.3329,918.583,921.8997,space,3.3096,,921.8997,76,1,922.8996,922.8996,922.9057,,,,0,16,16,16,1,95,20,,,,,,,,
,,64b469b7e8466658269e356b,65af56bbf3ebe8cc90bc71f1,2024-01-23_19h10.44.672,bars,2023.2.3,Win32,120.4819277,657b66ea316d21385b68909f,,,,,,,,,,,922.9058,923.908,,,924.408,924.658,,160,160,,,,,,,,,,,,,,,,bars/033.png,bars/mask002.png,,,,,,,,,,,,8,2,,,,,,,10,10,10,10,,,,,,,,,,,923.908,924.408,924.658,927.3913,space,2.7252,,927.3913,45,5,928.3914,928.3914,928.3981,,,,0,17,17,17,1,25,155,,,,,,,,
,,64b469b7e8466658269e356b,65af56bbf3ebe8cc90bc71f1,2024-01-23_19h10.44.672,bars,2023.2.3,Win32,120.4819277,657b66ea316d21385b68909f,,,,,,,,,,,928.3982,929.3912,,,929.8914,930.1413,,156,-24,,,,,,,,,,,,,,,,bars/044.png,bars/mask007.png,,,,,,,,,,,,9,2,,,,,,,8,8,9,9,,,,,,,,,,,929.3912,929.8913,930.1413,934.7246,space,4.5787,,934.7246,81,1,935.7247,935.7247,935.731,,,,0,18,18,18,1,75,155,,,,,,,,
,,64b469b7e8466658269e356b,65af56bbf3ebe8cc90bc71f1,2024-01-23_19h10.44.672,bars,2023.2.3,Win32,120.4819277,657b66ea316d21385b68909f,,,,,,,,,,,935.7311,936.7329,,,937.233,937.483,,158,158,,,,,,,,,,,,,,,,bars/044.png,bars/mask004.png,,,,,,,,,,,,9,2,,,,,,,6,10,5,10,,,,,,,,,,,936.7329,937.233,937.483,938.3331,space,0.8419,,938.3331,83,3,939.3331,939.3331,939.3333,,,,0,19,19,19,1,75,155,,,,,,,,
,,64b469b7e8466658269e356b,65af56bbf3ebe8cc90bc71f1,2024-01-23_19h10.44.672,bars,2023.2.3,Win32,120.4819277,657b66ea316d21385b68909f,,,,,,,,,,,939.3334,940.3331,,,940.8331,941.083,,63,63,,,,,,,,,,,,,,,,bars/042.png,bars/mask008.png,,,,,,,,,,,,5,2,,,,,,,8,10,7,8,,,,,,,,,,,940.3332,940.8331,941.083,944.7081,space,3.6168,,944.7081,82,12,945.7081,945.7081,945.7147,,,,0,20,20,20,1,145,75,,,,,,,,
,,64b469b7e8466658269e356b,65af56bbf3ebe8cc90bc71f1,2024-01-23_19h10.44.672,bars,2023.2.3,Win32,120.4819277,657b66ea316d21385b68909f,,,,,,,,,,,945.7148,946.7164,,,947.2165,947.4664,,47,47,,,,,,,,,,,,,,,,bars/031.png,bars/mask005.png,,,,,,,,,,,,5,2,,,,,,,6,8,5,8,,,,,,,,,,,946.7165,947.2165,947.4664,948.8081,space,1.3335,,948.8082,73,12,949.8081,949.8081,949.8147,,,,0,21,21,21,1,120,35,,,,,,,,
,,64b469b7e8466658269e356b,65af56bbf3ebe8cc90bc71f1,2024-01-23_19h10.44.672,bars,2023.2.3,Win32,120.4819277,657b66ea316d21385b68909f,,,,,,,,,,,949.8147,950.8164,,,951.3165,951.5664,,112,112,,,,,,,,,,,,,,,,bars/009.png,bars/mask005.png,,,,,,,,,,,,8,2,,,,,,,4,10,3,10,,,,,,,,,,,950.8164,951.3164,951.5664,955.1504,space,3.5753,,955.1504,83,7,956.1497,956.1497,956.1568,,,,0,22,22,22,1,15,105,,,,,,,,
,,64b469b7e8466658269e356b,65af56bbf3ebe8cc90bc71f1,2024-01-23_19h10.44.672,bars,2023.2.3,Win32,120.4819277,657b66ea316d21385b68909f,,,,,,,,,,,956.1569,957.1582,,,957.6581,957.9082,,55,55,,,,,,,,,,,,,,,,bars/007.png,bars/mask008.png,,,,,,,,,,,,10,2,,,,,,,2,10,2,10,,,,,,,,,,,957.1582,957.6581,957.9082,960.3498,space,2.4348,,960.3498,60,0,961.3498,961.3498,961.3502,,,,0,23,23,23,1,175,55,,,,,,,,
,,64b469b7e8466658269e356b,65af56bbf3ebe8cc90bc71f1,2024-01-23_19h10.44.672,bars,2023.2.3,Win32,120.4819277,657b66ea316d21385b68909f,,,,,,,,,,,961.3503,962.3497,,,962.8498,963.0998,,66,66,,,,,,,,,,,,,,,,bars/010.png,bars/mask001.png,,,,,,,,,,,,5,2,,,,,,,0,8,0,8,,,,,,,,,,,962.3497,962.8498,963.0998,965.0081,space,1.9003,,965.0081,81,11,966.0082,966.0082,966.0144,,,,0,24,24,24,1,165,55,,,,,,,,
,,64b469b7e8466658269e356b,65af56bbf3ebe8cc90bc71f1,2024-01-23_19h10.44.672,bars,2023.2.3,Win32,120.4819277,657b66ea316d21385b68909f,,,,,,,,,,,966.0146,967.0164,,,967.5165,967.7666,,93,93,,,,,,,,,,,,,,,,bars/001.png,bars/mask000.png,,,,,,,,,,,,3,2,,,,,,,2,6,3,4,,,,,,,,,,,967.0164,967.5165,967.7666,970.0249,space,2.2504,,970.0249,37,8,971.0248,971.0248,971.031,,,,0,25,25,25,1,130,85,,,,,,,,
,,64b469b7e8466658269e356b,65af56bbf3ebe8cc90bc71f1,2024-01-23_19h10.44.672,bars,2023.2.3,Win32,120.4819277,657b66ea316d21385b68909f,,,,,,,,,,,971.0311,972.0332,,,972.5332,972.783,,77,77,,,,,,,,,,,,,,,,bars/012.png,bars/mask008.png,,,,,,,,,,,,0,1,,,,,,,0,8,0,6,,,,,,,,,,,972.0332,972.5332,972.783,976.1583,space,3.3705,,976.1583,13,62,977.1581,977.1581,977.1646,,,,0,26,26,26,1,90,15,,,,,,,,
,,64b469b7e8466658269e356b,65af56bbf3ebe8cc90bc71f1,2024-01-23_19h10.44.672,bars,2023.2.3,Win32,120.4819277,657b66ea316d21385b68909f,,,,,,,,,,,977.1648,978.1666,,,978.6666,978.9165,,82,82,,,,,,,,,,,,,,,,bars/013.png,bars/mask000.png,,,,,,,,,,,,3,1,,,,,,,2,10,4,9,,,,,,,,,,,978.1666,978.6666,978.9165,980.475,space,1.551,,980.475,7,72,981.475,981.475,981.4752,,,,0,27,27,27,1,75,10,,,,,,,,
,,64b469b7e8466658269e356b,65af56bbf3ebe8cc90bc71f1,2024-01-23_19h10.44.672,bars,2023.2.3,Win32,120.4819277,657b66ea316d21385b68909f,,,,,,,,,,,981.4754,982.4748,,,982.9749,983.2249,,156,156,,,,,,,,,,,,,,,,bars/044.png,bars/mask005.png,,,,,,,,,,,,9,2,,,,,,,0,8,0,9,,,,,,,,,,,982.4749,982.9749,983.2249,985.5249,space,2.2938,,985.5249,81,1,986.5249,986.5249,986.5314,,,,0,28,28,28,1,75,155,,,,,,,,
,,64b469b7e8466658269e356b,65af56bbf3ebe8cc90bc71f1,2024-01-23_19h10.44.672,bars,2023.2.3,Win32,120.4819277,657b66ea316d21385b68909f,,,,,,,,,,,986.5316,987.5332,,,988.0332,988.2832,,146,146,,,,,,,,,,,,,,,,bars/005.png,bars/mask008.png,,,,,,,,,,,,8,2,,,,,,,0,10,0,10,,,,,,,,,,,987.5332,988.0332,988.2832,990.8082,space,2.5169,,990.8082,44,6,991.8082,991.8082,991.8143,,,,0,29,29,29,1,10,140,,,,,,,,
,,64b469b7e8466658269e356b,65af56bbf3ebe8cc90bc71f1,2024-01-23_19h10.44.672,bars,2023.2.3,Win32,120.4819277,657b66ea316d21385b68909f,,,,,,,,,,,991.8144,992.8165,,,993.3166,993.5666,,81,81,,,,,,,,,,,,,,,,bars/046.png,bars/mask007.png,,,,,,,,,,,,8,2,,,,,,,2,8,0,9,,,,,,,,,,,992.8165,993.3166,993.5666,995.6416,space,2.067,,995.6416,74,4,996.6415,996.6415,996.6475,,,,0,30,30,30,1,155,85,,,,,,,,
,,64b469b7e8466658269e356b,65af56bbf3ebe8cc90bc71f1,2024-01-23_19h10.44.672,bars,2023.2.3,Win32,120.4819277,657b66ea316d21385b68909f,,,,,,,,,,,996.6477,997.65,,,998.1499,998.4,,21,21,,,,,,,,,,,,,,,,bars/036.png,bars/mask002.png,,,,,,,,,,,,5,2,,,,,,,0,6,1,5,,,,,,,,,,,997.65,998.1499,998.4,1000.8167,space,2.41,,1000.8167,56,1,1001.8167,1001.8167,1001.8228,,,,0,31,31,31,1,145,20,,,,,,,,
,,64b469b7e8466658269e356b,65af56bbf3ebe8cc90bc71f1,2024-01-23_19h10.44.672,bars,2023.2.3,Win32,120.4819277,657b66ea316d21385b68909f,,,,,,,,,,,1001.8229,1002.825,,,1003.3251,1003.5751,,168,-12,,,,,,,,,,,,,,,,bars/005.png,bars/mask008.png,,,,,,,,,,,,1,1,,,,,,,2,4,2,3,,,,,,,,,,,1002.825,1003.325,1003.5751,1006.2083,space,2.6252,,1006.2083,22,28,1007.2084,1007.2084,1007.2151,,,,0,32,32,32,1,10,140,,,,,,,,
,,64b469b7e8466658269e356b,65af56bbf3ebe8cc90bc71f1,2024-01-23_19h10.44.672,bars,2023.2.3,Win32,120.4819277,657b66ea316d21385b68909f,,,,,,,,,,,1007.2152,1008.2166,,,1008.7166,1008.9666,,100,100,,,,,,,,,,,,,,,,bars/025.png,bars/mask005.png,,,,,,,,,,,,3,1,,,,,,,4,2,4,2,,,,,,,,,,,1008.2166,1008.7166,1008.9666,1012.2834,space,3.3087,,1012.2834,5,60,1013.2833,1013.2834,1013.2894,,,,0,33,33,33,1,105,40,,,,,,,,
,,64b469b7e8466658269e356b,65af56bbf3ebe8cc90bc71f1,2024-01-23_19h10.44.672,bars,2023.2.3,Win32,120.4819277,657b66ea316d21385b68909f,,,,,,,,,,,1013.2895,1014.2833,,,1014.7834,1015.0334,,176,176,,,,,,,,,,,,,,,,bars/039.png,bars/mask003.png,,,,,,,,,,,,5,1,,,,,,,6,0,5,1,,,,,,,,,,,1014.2833,1014.7833,1015.0334,1016.0584,space,1.0184,,1016.0584,1,71,1017.0583,1017.0584,1017.0588,,,,0,34,34,34,1,175,105,,,,,,,,
,,64b469b7e8466658269e356b,65af56bbf3ebe8cc90bc71f1,2024-01-23_19h10.44.672,bars,2023.2.3,Win32,120.4819277,657b66ea316d21385b68909f,,,,,,,,,,,1017.0589,1018.0582,,,1018.5583,1018.8083,,19,199,,,,,,,,,,,,,,,,bars/016.png,bars/mask009.png,,,,,,,,,,,,1,1,,,,,,,4,2,2,4,,,,,,,,,,,1018.0582,1018.5583,1018.8083,1020.8418,space,2.0274,,1020.8418,21,34,1021.8416,1021.8416,1021.8478,,,,0,35,35,35,1,40,165,,,,,,,,
,,64b469b7e8466658269e356b,65af56bbf3ebe8cc90bc71f1,2024-01-23_19h10.44.672,bars,2023.2.3,Win32,120.4819277,657b66ea316d21385b68909f,,,,,,,,,,,1021.8479,1022.8417,,,1023.3417,1023.5917,,167,-13,,,,,,,,,,,,,,,,bars/000.png,bars/mask003.png,,,,,,,,,,,,1,2,,,,,,,2,4,2,4,,,,,,,,,,,1022.8418,1023.3417,1023.5917,1026.0835,space,2.484,,1026.0836,53,22,1027.0834,1027.0835,1027.09,,,,0,36,36,36,1,40,145,,,,,,,,
,,64b469b7e8466658269e356b,65af56bbf3ebe8cc90bc71f1,2024-01-23_19h10.44.672,bars,2023.2.3,Win32,120.4819277,657b66ea316d21385b68909f,,,,,,,,,,,1027.0901,1028.0918,,,1028.5918,1028.8427,,106,106,,,,,,,,,,,,,,,,bars/008.png,bars/mask009.png,,,,,,,,,,,,3,1,,,,,,,4,2,4,3,,,,,,,,,,,1028.0918,1028.5917,1028.8427,1030.2918,space,1.4412,,1030.2918,4,74,1031.2919,1031.2919,1031.2928,,,,0,37,37,37,1,110,0,,,,,,,,
,,64b469b7e8466658269e356b,65af56bbf3ebe8cc90bc71f1,2024-01-23_19h10.44.672,bars,2023.2.3,Win32,120.4819277,657b66ea316d21385b68909f,,,,,,,,,,,1031.2929,1032.2918,,,1032.7916,1033.0416,,87,87,,,,,,,,,,,,,,,,bars/018.png,bars/mask007.png,,,,,,,,,,,,5,2,,,,,,,6,4,6,5,,,,,,,,,,,1032.2918,1032.7916,1033.0416,1035.8435,space,2.792,,1035.8436,63,3,1036.8416,1036.8416,1036.8485,,,,0,38,38,38,1,150,90,,,,,,,,
,,64b469b7e8466658269e356b,65af56bbf3ebe8cc90bc71f1,2024-01-23_19h10.44.672,bars,2023.2.3,Win32,120.4819277,657b66ea316d21385b68909f,,,,,,,,,,,1036.8486,1037.8503,,,1038.35,1038.6,,101,101,,,,,,,,,,,,,,,,bars/009.png,bars/mask001.png,,,,,,,,,,,,6,2,,,,,,,4,6,6,7,,,,,,,,,,,1037.8504,1038.35,1038.6,1040.1335,space,1.5268,,1040.1335,86,4,1041.1335,1041.1335,1041.1339,,,,0,39,39,39,1,15,105,,,,,,,,
,,64b469b7e8466658269e356b,65af56bbf3ebe8cc90bc71f1,2024-01-23_19h10.44.672,bars,2023.2.3,Win32,120.4819277,657b66ea316d21385b68909f,,,,,,,,,,,1041.1341,1042.1334,,,1042.6334,1042.8791,,14,14,,,,,,,,,,,,,,,,bars/014.png,bars/mask005.png,,,,,,,,,,,,2,2,,,,,,,6,4,7,4,,,,,,,,,,,1042.1335,1042.6334,1042.8791,1044.4358,space,1.5486,,1044.4358,66,14,1045.4354,1045.4354,1045.4357,,,,0,40,40,40,1,80,0,,,,,,,,
,,64b469b7e8466658269e356b,65af56bbf3ebe8cc90bc71f1,2024-01-23_19h10.44.672,bars,2023.2.3,Win32,120.4819277,657b66ea316d21385b68909f,,,,,,,,,,,1045.4358,1046.4372,,,1046.9373,1047.1887,,166,-14,,,,,,,,,,,,,,,,bars/003.png,bars/mask003.png,,,,,,,,,,,,0,2,,,,,,,4,2,5,1,,,,,,,,,,,1046.4372,1046.9373,1047.1887,1049.3387,space,2.1418,,1049.3387,39,26,1050.3371,1050.3371,1050.3433,,,,0,41,41,41,1,25,140,,,,,,,,
,,64b469b7e8466658269e356b,65af56bbf3ebe8cc90bc71f1,2024-01-23_19h10.44.672,bars,2023.2.3,Win32,120.4819277,657b66ea316d21385b68909f,,,,,,,,,,,1050.3433,1051.3417,,,1051.8416,1052.0918,,127,-53,,,,,,,,,,,,,,,,bars/025.png,bars/mask006.png,,,,,,,,,,,,1,1,,,,,,,2,4,3,4,,,,,,,,,,,1051.3417,1051.8416,1052.0918,1055.2548,space,3.1526,,1055.2548,22,87,1056.2501,1056.2501,1056.2566,,,,0,42,42,42,1,105,40,,,,,,,,
,,64b469b7e8466658269e356b,65af56bbf3ebe8cc90bc71f1,2024-01-23_19h10.44.672,bars,2023.2.3,Win32,120.4819277,657b66ea316d21385b68909f,,,,,,,,,,,1056.2567,1057.2519,,,1057.75,1058.0001,,64,64,,,,,,,,,,,,,,,,bars/047.png,bars/mask007.png,,,,,,,,,,,,1,2,,,,,,,4,2,5,1,,,,,,,,,,,1057.2519,1057.75,1058.0001,1059.1836,space,1.1644,,1059.1836,49,6,1060.1834,1060.1835,1060.1843,,,,0,43,43,43,1,15,70,,,,,,,,
,,64b469b7e8466658269e356b,65af56bbf3ebe8cc90bc71f1,2024-01-23_19h10.44.672,bars,2023.2.3,Win32,120.4819277,657b66ea316d21385b68909f,,,,,,,,,,,1060.1845,1061.1834,,,1061.6775,1061.9252,,59,59,,,,,,,,,,,,,,,,bars/007.png,bars/mask004.png,,,,,,,,,,,,0,2,,,,,,,6,0,5,0,,,,,,,,,,,1061.1834,1061.6775,1061.9252,1064.3443,space,2.4172,,1064.3443,64,4,1065.3441,1065.3441,1065.3501,,,,0,44,44,44,1,175,55,,,,,,,,
,,64b469b7e8466658269e356b,65af56bbf3ebe8cc90bc71f1,2024-01-23_19h10.44.672,bars,2023.2.3,Win32,120.4819277,657b66ea316d21385b68909f,,,,,,,,,,,1065.3502,1066.3501,,,1066.8503,1067.1001,,143,143,,,,,,,,,,,,,,,,bars/002.png,bars/mask007.png,,,,,,,,,,,,5,1,,,,,,,8,0,9,0,,,,,,,,,,,1066.3501,1066.8503,1067.1002,1068.4919,space,1.3799,,1068.4919,13,58,1069.4919,1069.4919,1069.4927,,,,0,45,45,45,1,130,85,,,,,,,,
,,64b469b7e8466658269e356b,65af56bbf3ebe8cc90bc71f1,2024-01-23_19h10.44.672,bars,2023.2.3,Win32,120.4819277,657b66ea316d21385b68909f,,,,,,,,,,,1069.4928,1070.4919,,,1070.9857,1071.2337,,110,110,,,,,,,,,,,,,,,,bars/045.png,bars/mask009.png,,,,,,,,,,,,5,1,,,,,,,6,0,8,0,,,,,,,,,,,1070.4919,1070.9857,1071.2338,1073.4753,space,2.2252,,1073.4753,10,80,1074.4752,1074.4752,1074.4811,,,,0,46,46,46,1,100,10,,,,,,,,
,,64b469b7e8466658269e356b,65af56bbf3ebe8cc90bc71f1,2024-01-23_19h10.44.672,bars,2023.2.3,Win32,120.4819277,657b66ea316d21385b68909f,,,,,,,,,,,1074.4813,1075.4835,,,1075.9835,1076.2298,,115,115,,,,,,,,,,,,,,,,bars/015.png,bars/mask005.png,,,,,,,,,,,,7,1,,,,,,,8,2,8,3,,,,,,,,,,,1075.4835,1075.9835,1076.2298,1077.9586,space,1.7172,,1077.9586,5,45,1078.9547,1078.9547,1078.9551,,,,0,47,47,47,1,110,160,,,,,,,,
,,64b469b7e8466658269e356b,65af56bbf3ebe8cc90bc71f1,2024-01-23_19h10.44.672,bars,2023.2.3,Win32,120.4819277,657b66ea316d21385b68909f,,,,,,,,,,,1078.9551,1079.9502,,,1080.4502,1080.7002,,21,201,,,,,,,,,,,,,,,,bars/033.png,bars/mask003.png,,,,,,,,,,,,9,1,,,,,,,10,4,10,3,,,,,,,,,,,1079.9502,1080.4502,1080.7002,1082.0754,space,1.3616,,1082.0754,4,46,1083.0753,1083.0753,1083.0755,,,,0,48,48,48,1,25,155,,,,,,,,
,,64b469b7e8466658269e356b,65af56bbf3ebe8cc90bc71f1,2024-01-23_19h10.44.672,bars,2023.2.3,Win32,120.4819277,657b66ea316d21385b68909f,,,,,,,,,,,1083.0756,1084.0713,,,1084.567,1084.817,,80,80,,,,,,,,,,,,,,,,bars/029.png,bars/mask002.png,,,,,,,,,,,,7,1,,,,,,,10,2,10,2,,,,,,,,,,,1084.0713,1084.567,1084.817,1086.5486,space,1.7298,,1086.5486,10,35,1087.5503,1087.5503,1087.5505,,,,0,49,49,49,1,90,45,,,,,,,,
,,64b469b7e8466658269e356b,65af56bbf3ebe8cc90bc71f1,2024-01-23_19h10.44.672,bars,2023.2.3,Win32,120.4819277,657b66ea316d21385b68909f,,,,,,,,,,,,,,,,,,,,,,,,,,,,,,,,,,,,,,,,,,,,,,,,,,,,,,,,,,,,,,,,,,,,,,,,,,,,,,,,,,,,,,,,,,,,,1087.5506,1147.5511,0,1,1,1,1,sequence_tables/blk046.csv
,,64b469b7e8466658269e356b,65af56bbf3ebe8cc90bc71f1,2024-01-23_19h10.44.672,bars,2023.2.3,Win32,120.4819277,657b66ea316d21385b68909f,,,,,,,,,,,1153.8009,1154.8005,,,1155.3006,1155.5423,,23,23,,,,,,,,,,,,,,,,bars/047.png,bars/mask002.png,,,,,,,,,,,,4,1,,,,,,,5,1,6,1,,,,,,1147.5575,1153.7922,space,6.2179,,1154.8005,1155.3006,1155.5423,1158.0343,space,2.4899,,1158.0344,8,47,1159.0338,1159.0339,1159.0399,,,,0,0,0,0,1,15,70,,,,,,,,
,,64b469b7e8466658269e356b,65af56bbf3ebe8cc90bc71f1,2024-01-23_19h10.44.672,bars,2023.2.3,Win32,120.4819277,657b66ea316d21385b68909f,,,,,,,,,,,1159.04,1160.0361,,,1160.5338,1160.786,,110,110,,,,,,,,,,,,,,,,bars/025.png,bars/mask002.png,,,,,,,,,,,,3,1,,,,,,,3,0,3,0,,,,,,,,,,,1160.0361,1160.5338,1160.7861,1163.2672,space,2.4787,,1163.2673,5,70,1164.2633,1164.2633,1164.2693,,,,0,1,1,1,1,105,40,,,,,,,,
,,64b469b7e8466658269e356b,65af56bbf3ebe8cc90bc71f1,2024-01-23_19h10.44.672,bars,2023.2.3,Win32,120.4819277,657b66ea316d21385b68909f,,,,,,,,,,,1164.2694,1165.2694,,,1165.7673,1166.0172,,23,203,,,,,,,,,,,,,,,,bars/012.png,bars/mask007.png,,,,,,,,,,,,1,2,,,,,,,5,0,4,1,,,,,,,,,,,1165.2694,1165.7672,1166.0172,1169.4756,space,3.4448,,1169.4757,67,8,1170.4757,1170.4757,1170.4823,,,,0,2,2,2,1,90,15,,,,,,,,
,,64b469b7e8466658269e356b,65af56bbf3ebe8cc90bc71f1,2024-01-23_19h10.44.672,bars,2023.2.3,Win32,120.4819277,657b66ea316d21385b68909f,,,,,,,,,,,1170.4824,1171.4839,,,1171.9841,1172.2339,,113,113,,,,,,,,,,,,,,,,bars/045.png,bars/mask005.png,,,,,,,,,,,,2,1,,,,,,,3,0,3,2,,,,,,,,,,,1171.4839,1171.9841,1172.2339,1176.2588,space,4.0111,,1176.2588,13,77,1177.2588,1177.2589,1177.2654,,,,0,3,3,3,1,100,10,,,,,,,,
,,64b469b7e8466658269e356b,65af56bbf3ebe8cc90bc71f1,2024-01-23_19h10.44.672,bars,2023.2.3,Win32,120.4819277,657b66ea316d21385b68909f,,,,,,,,,,,1177.2655,1178.2673,,,1178.7695,1179.0173,,64,64,,,,,,,,,,,,,,,,bars/034.png,bars/mask003.png,,,,,,,,,,,,1,2,,,,,,,1,0,2,1,,,,,,,,,,,1178.2673,1178.7695,1179.0173,1180.3422,space,1.3188,,1180.3422,61,1,1181.3422,1181.3422,1181.3431,,,,0,4,4,4,1,125,65,,,,,,,,
,,64b469b7e8466658269e356b,65af56bbf3ebe8cc90bc71f1,2024-01-23_19h10.44.672,bars,2023.2.3,Win32,120.4819277,657b66ea316d21385b68909f,,,,,,,,,,,1181.3433,1182.3423,,,1182.8423,1183.0923,,47,227,,,,,,,,,,,,,,,,bars/000.png,bars/mask005.png,,,,,,,,,,,,0,1,,,,,,,0,2,0,2,,,,,,,,,,,1182.3423,1182.8423,1183.0923,1186.6506,space,3.554,,1186.6506,7,82,1187.6506,1187.6506,1187.6574,,,,0,5,5,5,1,40,145,,,,,,,,
,,64b469b7e8466658269e356b,65af56bbf3ebe8cc90bc71f1,2024-01-23_19h10.44.672,bars,2023.2.3,Win32,120.4819277,657b66ea316d21385b68909f,,,,,,,,,,,1187.6575,1188.6591,,,1189.1591,1189.409,,173,-7,,,,,,,,,,,,,,,,bars/024.png,bars/mask002.png,,,,,,,,,,,,0,2,,,,,,,0,0,2,0,,,,,,,,,,,1188.6592,1189.1591,1189.409,1193.6589,space,4.2335,,1193.6589,53,3,1194.659,1194.659,1194.6655,,,,0,6,6,6,1,120,170,,,,,,,,
,,64b469b7e8466658269e356b,65af56bbf3ebe8cc90bc71f1,2024-01-23_19h10.44.672,bars,2023.2.3,Win32,120.4819277,657b66ea316d21385b68909f,,,,,,,,,,,1194.6656,1195.6742,,,1196.1697,1196.4174,,150,150,,,,,,,,,,,,,,,,bars/049.png,bars/mask002.png,,,,,,,,,,,,0,1,,,,,,,0,2,0,3,,,,,,,,,,,1195.6742,1196.1697,1196.4174,1197.9924,space,1.5731,,1197.9925,10,35,1198.9922,1198.9923,1198.9932,,,,0,7,7,7,1,160,115,,,,,,,,
,,64b469b7e8466658269e356b,65af56bbf3ebe8cc90bc71f1,2024-01-23_19h10.44.672,bars,2023.2.3,Win32,120.4819277,657b66ea316d21385b68909f,,,,,,,,,,,1198.9935,1199.9946,,,1200.4886,1200.7387,,156,-24,,,,,,,,,,,,,,,,bars/017.png,bars/mask003.png,,,,,,,,,,,,1,1,,,,,,,0,0,1,0,,,,,,,,,,,1199.9946,1200.4885,1200.7387,1204.5595,space,3.8145,,1204.5595,11,69,1205.5552,1205.5552,1205.5612,,,,0,8,8,8,1,145,45,,,,,,,,
,,64b469b7e8466658269e356b,65af56bbf3ebe8cc90bc71f1,2024-01-23_19h10.44.672,bars,2023.2.3,Win32,120.4819277,657b66ea316d21385b68909f,,,,,,,,,,,1205.5614,1206.5591,,,1207.059,1207.309,,108,108,,,,,,,,,,,,,,,,bars/037.png,bars/mask005.png,,,,,,,,,,,,1,2,,,,,,,2,0,4,1,,,,,,,,,,,1206.5592,1207.0589,1207.309,1210.3257,space,3.0085,,1210.3257,42,3,1211.3257,1211.3257,1211.3323,,,,0,9,9,9,1,150,105,,,,,,,,
,,64b469b7e8466658269e356b,65af56bbf3ebe8cc90bc71f1,2024-01-23_19h10.44.672,bars,2023.2.3,Win32,120.4819277,657b66ea316d21385b68909f,,,,,,,,,,,1211.3324,1212.334,,,1212.8364,1213.0841,,68,68,,,,,,,,,,,,,,,,bars/007.png,bars/mask002.png,,,,,,,,,,,,0,2,,,,,,,4,0,3,0,,,,,,,,,,,1212.334,1212.8364,1213.0841,1216.4926,space,3.4057,,1216.4926,73,13,1217.4886,1217.4886,1217.4946,,,,0,10,10,10,1,175,55,,,,,,,,
,,64b469b7e8466658269e356b,65af56bbf3ebe8cc90bc71f1,2024-01-23_19h10.44.672,bars,2023.2.3,Win32,120.4819277,657b66ea316d21385b68909f,,,,,,,,,,,1217.4948,1218.4924,,,1218.9944,1219.2425,,54,234,,,,,,,,,,,,,,,,bars/044.png,bars/mask005.png,,,,,,,,,,,,2,1,,,,,,,6,2,6,2,,,,,,,,,,,1218.4924,1218.9943,1219.2426,1222.1091,space,2.8638,,1222.1091,21,79,1223.1092,1223.1092,1223.1157,,,,0,11,11,11,1,75,155,,,,,,,,
,,64b469b7e8466658269e356b,65af56bbf3ebe8cc90bc71f1,2024-01-23_19h10.44.672,bars,2023.2.3,Win32,120.4819277,657b66ea316d21385b68909f,,,,,,,,,,,1223.1157,1224.1174,,,1224.6174,1224.8638,,69,69,,,,,,,,,,,,,,,,bars/014.png,bars/mask004.png,,,,,,,,,,,,4,1,,,,,,,8,0,7,0,,,,,,,,,,,1224.1174,1224.6174,1224.8639,1227.9841,space,3.1149,,1227.9841,11,69,1228.9863,1228.9863,1228.9926,,,,0,12,12,12,1,80,0,,,,,,,,
,,64b469b7e8466658269e356b,65af56bbf3ebe8cc90bc71f1,2024-01-23_19h10.44.672,bars,2023.2.3,Win32,120.4819277,657b66ea316d21385b68909f,,,,,,,,,,,1228.9927,1229.9924,,,1230.4924,1230.7424,,101,101,,,,,,,,,,,,,,,,bars/027.png,bars/mask001.png,,,,,,,,,,,,7,1,,,,,,,10,0,10,2,,,,,,,,,,,1229.9924,1230.4924,1230.7425,1234.2258,space,3.4716,,1234.2258,9,51,1235.2258,1235.2258,1235.2319,,,,0,13,13,13,1,110,50,,,,,,,,
,,64b469b7e8466658269e356b,65af56bbf3ebe8cc90bc71f1,2024-01-23_19h10.44.672,bars,2023.2.3,Win32,120.4819277,657b66ea316d21385b68909f,,,,,,,,,,,1235.2321,1236.2342,,,1236.7342,1236.9842,,135,135,,,,,,,,,,,,,,,,bars/038.png,bars/mask002.png,,,,,,,,,,,,0,1,,,,,,,8,2,8,3,,,,,,,,,,,1236.2342,1236.7341,1236.9842,1238.3925,space,1.4043,,1238.3925,30,65,1239.3943,1239.3943,1239.3947,,,,0,14,14,14,1,165,70,,,,,,,,
,,64b469b7e8466658269e356b,65af56bbf3ebe8cc90bc71f1,2024-01-23_19h10.44.672,bars,2023.2.3,Win32,120.4819277,657b66ea316d21385b68909f,,,,,,,,,,,1239.3948,1240.3925,,,1240.8924,1241.1423,,34,34,,,,,,,,,,,,,,,,bars/022.png,bars/mask002.png,,,,,,,,,,,,0,2,,,,,,,10,0,10,0,,,,,,,,,,,1240.3925,1240.8924,1241.1423,1243.2425,space,2.0851,,1243.2425,61,14,1244.243,1244.243,1244.2659,,,,0,15,15,15,1,95,20,,,,,,,,
,,64b469b7e8466658269e356b,65af56bbf3ebe8cc90bc71f1,2024-01-23_19h10.44.672,bars,2023.2.3,Win32,120.4819277,657b66ea316d21385b68909f,,,,,,,,,,,1244.2662,1245.2677,,,1245.7675,1246.0138,,108,108,,,,,,,,,,,,,,,,bars/034.png,bars/mask000.png,,,,,,,,,,,,3,1,,,,,,,8,0,8,1,,,,,,,,,,,1245.2677,1245.7675,1246.0139,1247.7765,space,1.7555,,1247.7766,17,43,1248.7759,1248.7759,1248.7767,,,,0,16,16,16,1,125,65,,,,,,,,
,,64b469b7e8466658269e356b,65af56bbf3ebe8cc90bc71f1,2024-01-23_19h10.44.672,bars,2023.2.3,Win32,120.4819277,657b66ea316d21385b68909f,,,,,,,,,,,1248.7769,1249.7758,,,1250.2759,1250.5259,,141,141,,,,,,,,,,,,,,,,bars/040.png,bars/mask003.png,,,,,,,,,,,,6,1,,,,,,,6,0,6,1,,,,,,,,,,,1249.7758,1250.2759,1250.5259,1251.6094,space,1.078,,1251.6094,1,44,1252.6092,1252.6092,1252.6095,,,,0,17,17,17,1,140,5,,,,,,,,
,,64b469b7e8466658269e356b,65af56bbf3ebe8cc90bc71f1,2024-01-23_19h10.44.672,bars,2023.2.3,Win32,120.4819277,657b66ea316d21385b68909f,,,,,,,,,,,1252.6096,1253.6091,,,1254.1091,1254.3593,,147,147,,,,,,,,,,,,,,,,bars/024.png,bars/mask006.png,,,,,,,,,,,,0,2,,,,,,,8,2,8,2,,,,,,,,,,,1253.6091,1254.1091,1254.3593,1256.2927,space,1.9166,,1256.2927,27,23,1257.2925,1257.2925,1257.2934,,,,0,18,18,18,1,120,170,,,,,,,,
,,64b469b7e8466658269e356b,65af56bbf3ebe8cc90bc71f1,2024-01-23_19h10.44.672,bars,2023.2.3,Win32,120.4819277,657b66ea316d21385b68909f,,,,,,,,,,,1257.2936,1258.2948,,,1258.7925,1259.0425,,168,168,,,,,,,,,,,,,,,,bars/033.png,bars/mask002.png,,,,,,,,,,,,3,2,,,,,,,6,4,8,5,,,,,,,,,,,1258.2948,1258.7925,1259.0426,1261.1759,space,2.1309,,1261.1759,37,13,1262.176,1262.176,1262.182,,,,0,19,19,19,1,25,155,,,,,,,,
,,64b469b7e8466658269e356b,65af56bbf3ebe8cc90bc71f1,2024-01-23_19h10.44.672,bars,2023.2.3,Win32,120.4819277,657b66ea316d21385b68909f,,,,,,,,,,,1262.1821,1263.1841,,,1263.6782,1263.9282,,19,19,,,,,,,,,,,,,,,,bars/022.png,bars/mask003.png,,,,,,,,,,,,0,2,,,,,,,8,2,8,0,,,,,,,,,,,1263.1841,1263.6782,1263.9282,1266.9926,space,3.0625,,1266.9926,76,1,1267.9882,1267.9882,1267.9942,,,,0,20,20,20,1,95,20,,,,,,,,
,,64b469b7e8466658269e356b,65af56bbf3ebe8cc90bc71f1,2024-01-23_19h10.44.672,bars,2023.2.3,Win32,120.4819277,657b66ea316d21385b68909f,,,,,,,,,,,1267.9944,1268.9927,,,1269.4926,1269.7426,,143,143,,,,,,,,,,,,,,,,bars/010.png,bars/mask006.png,,,,,,,,,,,,3,1,,,,,,,10,4,10,2,,,,,,,,,,,1268.9927,1269.4926,1269.7426,1272.3177,space,2.5676,,1272.3177,22,88,1273.3176,1273.3176,1273.3242,,,,0,21,21,21,1,165,55,,,,,,,,
,,64b469b7e8466658269e356b,65af56bbf3ebe8cc90bc71f1,2024-01-23_19h10.44.672,bars,2023.2.3,Win32,120.4819277,657b66ea316d21385b68909f,,,,,,,,,,,1273.3243,1274.326,,,1274.8259,1275.0758,,178,-2,,,,,,,,,,,,,,,,bars/010.png,bars/mask007.png,,,,,,,,,,,,6,1,,,,,,,10,2,10,2,,,,,,,,,,,1274.326,1274.8259,1275.0759,1277.0927,space,2.0048,,1277.0927,13,57,1278.0949,1278.0949,1278.1009,,,,0,22,22,22,1,165,55,,,,,,,,
,,64b469b7e8466658269e356b,65af56bbf3ebe8cc90bc71f1,2024-01-23_19h10.44.672,bars,2023.2.3,Win32,120.4819277,657b66ea316d21385b68909f,,,,,,,,,,,1278.101,1279.0948,,,1279.5927,1279.8426,,16,16,,,,,,,,,,,,,,,,bars/010.png,bars/mask002.png,,,,,,,,,,,,0,1,,,,,,,10,4,8,4,,,,,,,,,,,1279.0949,1279.5926,1279.8426,1282.1427,space,2.2949,,1282.1427,31,39,1283.1426,1283.1427,1283.1501,,,,0,23,23,23,1,165,55,,,,,,,,
,,64b469b7e8466658269e356b,65af56bbf3ebe8cc90bc71f1,2024-01-23_19h10.44.672,bars,2023.2.3,Win32,120.4819277,657b66ea316d21385b68909f,,,,,,,,,,,1283.1502,1284.1555,,,1284.6533,1284.9011,,123,123,,,,,,,,,,,,,,,,bars/049.png,bars/mask007.png,,,,,,,,,,,,4,2,,,,,,,8,6,7,6,,,,,,,,,,,1284.1555,1284.6533,1284.9012,1287.2617,space,2.3588,,1287.2618,37,8,1288.2592,1288.2593,1288.2657,,,,0,24,24,24,1,160,115,,,,,,,,
,,64b469b7e8466658269e356b,65af56bbf3ebe8cc90bc71f1,2024-01-23_19h10.44.672,bars,2023.2.3,Win32,120.4819277,657b66ea316d21385b68909f,,,,,,,,,,,1288.2659,1289.2721,,,1289.7677,1290.0176,,163,-17,,,,,,,,,,,,,,,,bars/036.png,bars/mask008.png,,,,,,,,,,,,2,1,,,,,,,6,8,4,8,,,,,,,,,,,1289.2721,1289.7677,1290.0176,1293.8011,space,3.7781,,1293.8011,18,37,1294.8033,1294.8033,1294.8098,,,,0,25,25,25,1,145,20,,,,,,,,
,,64b469b7e8466658269e356b,65af56bbf3ebe8cc90bc71f1,2024-01-23_19h10.44.672,bars,2023.2.3,Win32,120.4819277,657b66ea316d21385b68909f,,,,,,,,,,,1294.81,1295.8094,,,1296.3094,1296.5594,,176,176,,,,,,,,,,,,,,,,bars/014.png,bars/mask008.png,,,,,,,,,,,,9,2,,,,,,,8,10,8,10,,,,,,,,,,,1295.8094,1296.3094,1296.5594,1299.5511,space,2.9865,,1299.5511,84,4,1300.5534,1300.5534,1300.5618,,,,0,26,26,26,1,80,0,,,,,,,,
,,64b469b7e8466658269e356b,65af56bbf3ebe8cc90bc71f1,2024-01-23_19h10.44.672,bars,2023.2.3,Win32,120.4819277,657b66ea316d21385b68909f,,,,,,,,,,,1300.5619,1301.5596,,,1302.0594,1302.3094,,161,161,,,,,,,,,,,,,,,,bars/015.png,bars/mask000.png,,,,,,,,,,,,9,2,,,,,,,10,10,10,9,,,,,,,,,,,1301.5596,1302.0594,1302.3094,1303.7452,space,1.4338,,1303.7452,51,1,1304.7427,1304.7427,1304.743,,,,0,27,27,27,1,110,160,,,,,,,,
,,64b469b7e8466658269e356b,65af56bbf3ebe8cc90bc71f1,2024-01-23_19h10.44.672,bars,2023.2.3,Win32,120.4819277,657b66ea316d21385b68909f,,,,,,,,,,,1304.7431,1305.7427,,,1306.2427,1306.4867,,84,84,,,,,,,,,,,,,,,,bars/019.png,bars/mask009.png,,,,,,,,,,,,3,2,,,,,,,10,10,10,9,,,,,,,,,,,1305.7428,1306.2427,1306.4868,1308.9452,space,2.4504,,1308.9452,39,21,1309.9427,1309.9427,1309.9489,,,,0,28,28,28,1,45,105,,,,,,,,
,,64b469b7e8466658269e356b,65af56bbf3ebe8cc90bc71f1,2024-01-23_19h10.44.672,bars,2023.2.3,Win32,120.4819277,657b66ea316d21385b68909f,,,,,,,,,,,1309.949,1310.945,,,1311.4447,1311.695,,104,104,,,,,,,,,,,,,,,,bars/039.png,bars/mask008.png,,,,,,,,,,,,8,2,,,,,,,10,10,10,8,,,,,,,,,,,1310.945,1311.4446,1311.6951,1315.1929,space,3.4918,,1315.1929,71,1,1316.1929,1316.1929,1316.199,,,,0,29,29,29,1,175,105,,,,,,,,
,,64b469b7e8466658269e356b,65af56bbf3ebe8cc90bc71f1,2024-01-23_19h10.44.672,bars,2023.2.3,Win32,120.4819277,657b66ea316d21385b68909f,,,,,,,,,,,1316.1991,1317.2012,,,1317.7057,1317.9511,,92,92,,,,,,,,,,,,,,,,bars/019.png,bars/mask000.png,,,,,,,,,,,,5,2,,,,,,,8,8,9,8,,,,,,,,,,,1317.2012,1317.7057,1317.9511,1319.6929,space,1.7261,,1319.6929,47,13,1320.6928,1320.6928,1320.6989,,,,0,30,30,30,1,45,105,,,,,,,,
,,64b469b7e8466658269e356b,65af56bbf3ebe8cc90bc71f1,2024-01-23_19h10.44.672,bars,2023.2.3,Win32,120.4819277,657b66ea316d21385b68909f,,,,,,,,,,,1320.699,1321.695,,,1322.1929,1322.4428,,53,53,,,,,,,,,,,,,,,,bars/035.png,bars/mask006.png,,,,,,,,,,,,4,2,,,,,,,10,6,7,5,,,,,,,,,,,1321.695,1322.1929,1322.4429,1323.768,space,1.3198,,1323.768,58,7,1324.768,1324.7681,1324.7687,,,,0,31,31,31,1,175,60,,,,,,,,
,,64b469b7e8466658269e356b,65af56bbf3ebe8cc90bc71f1,2024-01-23_19h10.44.672,bars,2023.2.3,Win32,120.4819277,657b66ea316d21385b68909f,,,,,,,,,,,1324.7689,1325.764,,,1326.2596,1326.5095,,142,142,,,,,,,,,,,,,,,,bars/016.png,bars/mask009.png,,,,,,,,,,,,1,2,,,,,,,10,4,10,6,,,,,,,,,,,1325.7641,1326.2596,1326.5095,1328.0678,space,1.5562,,1328.0678,78,23,1329.0678,1329.0678,1329.0682,,,,0,32,32,32,1,40,165,,,,,,,,
,,64b469b7e8466658269e356b,65af56bbf3ebe8cc90bc71f1,2024-01-23_19h10.44.672,bars,2023.2.3,Win32,120.4819277,657b66ea316d21385b68909f,,,,,,,,,,,1329.0682,1330.0679,,,1330.5678,1330.8179,,24,204,,,,,,,,,,,,,,,,bars/004.png,bars/mask000.png,,,,,,,,,,,,8,1,,,,,,,8,6,8,8,,,,,,,,,,,1330.068,1330.5678,1330.8179,1332.8289,space,2.0004,,1332.8289,1,79,1333.8261,1333.8261,1333.8328,,,,0,33,33,33,1,25,125,,,,,,,,
,,64b469b7e8466658269e356b,65af56bbf3ebe8cc90bc71f1,2024-01-23_19h10.44.672,bars,2023.2.3,Win32,120.4819277,657b66ea316d21385b68909f,,,,,,,,,,,1333.8329,1334.8346,,,1335.3368,1335.5846,,174,174,,,,,,,,,,,,,,,,bars/010.png,bars/mask008.png,,,,,,,,,,,,6,1,,,,,,,10,4,9,3,,,,,,,,,,,1334.8346,1335.3368,1335.5846,1338.0679,space,2.472,,1338.0679,9,61,1339.0678,1339.0679,1339.074,,,,0,34,34,34,1,165,55,,,,,,,,
,,64b469b7e8466658269e356b,65af56bbf3ebe8cc90bc71f1,2024-01-23_19h10.44.672,bars,2023.2.3,Win32,120.4819277,657b66ea316d21385b68909f,,,,,,,,,,,1339.074,1340.0703,,,1340.5678,1340.8179,,11,191,,,,,,,,,,,,,,,,bars/005.png,bars/mask001.png,,,,,,,,,,,,10,1,,,,,,,10,2,10,3,,,,,,,,,,,1340.0703,1340.5678,1340.8179,1343.943,space,3.1172,,1343.943,1,51,1344.943,1344.943,1344.9491,,,,0,35,35,35,1,10,140,,,,,,,,
,,64b469b7e8466658269e356b,65af56bbf3ebe8cc90bc71f1,2024-01-23_19h10.44.672,bars,2023.2.3,Win32,120.4819277,657b66ea316d21385b68909f,,,,,,,,,,,1344.9492,1345.9452,,,1346.4429,1346.693,,171,-9,,,,,,,,,,,,,,,,bars/038.png,bars/mask004.png,,,,,,,,,,,,8,1,,,,,,,10,0,10,1,,,,,,,,,,,1345.9452,1346.4429,1346.693,1349.5345,space,2.8342,,1349.5346,6,79,1350.5286,1350.5286,1350.5349,,,,0,36,36,36,1,165,70,,,,,,,,
,,64b469b7e8466658269e356b,65af56bbf3ebe8cc90bc71f1,2024-01-23_19h10.44.672,bars,2023.2.3,Win32,120.4819277,657b66ea316d21385b68909f,,,,,,,,,,,1350.535,1351.5346,,,1352.0346,1352.2847,,113,113,,,,,,,,,,,,,,,,bars/012.png,bars/mask000.png,,,,,,,,,,,,2,1,,,,,,,10,2,10,3,,,,,,,,,,,1351.5346,1352.0346,1352.2847,1353.8763,space,1.5821,,1353.8763,23,82,1354.8762,1354.8762,1354.8765,,,,0,37,37,37,1,90,15,,,,,,,,
,,64b469b7e8466658269e356b,65af56bbf3ebe8cc90bc71f1,2024-01-23_19h10.44.672,bars,2023.2.3,Win32,120.4819277,657b66ea316d21385b68909f,,,,,,,,,,,1354.8766,1355.8724,,,1356.368,1356.618,,131,131,,,,,,,,,,,,,,,,bars/017.png,bars/mask005.png,,,,,,,,,,,,5,1,,,,,,,8,4,9,5,,,,,,,,,,,1355.8724,1356.368,1356.618,1357.9514,space,1.3272,,1357.9514,14,86,1358.9536,1358.9536,1358.9539,,,,0,38,38,38,1,145,45,,,,,,,,
,,64b469b7e8466658269e356b,65af56bbf3ebe8cc90bc71f1,2024-01-23_19h10.44.672,bars,2023.2.3,Win32,120.4819277,657b66ea316d21385b68909f,,,,,,,,,,,1358.9541,1359.9519,,,1360.4514,1360.7014,,38,38,,,,,,,,,,,,,,,,bars/026.png,bars/mask005.png,,,,,,,,,,,,9,1,,,,,,,10,6,10,6,,,,,,,,,,,1359.9519,1360.4514,1360.7014,1363.0516,space,2.3446,,1363.0516,3,47,1364.0514,1364.0515,1364.0574,,,,0,39,39,39,1,35,85,,,,,,,,
,,64b469b7e8466658269e356b,65af56bbf3ebe8cc90bc71f1,2024-01-23_19h10.44.672,bars,2023.2.3,Win32,120.4819277,657b66ea316d21385b68909f,,,,,,,,,,,1364.0575,1365.0513,,,1365.5515,1365.7976,,111,111,,,,,,,,,,,,,,,,bars/045.png,bars/mask000.png,,,,,,,,,,,,6,1,,,,,,,10,8,10,8,,,,,,,,,,,1365.0513,1365.5515,1365.7976,1369.1229,space,3.3185,,1369.1229,11,79,1370.1181,1370.1181,1370.1241,,,,0,40,40,40,1,100,10,,,,,,,,
,,64b469b7e8466658269e356b,65af56bbf3ebe8cc90bc71f1,2024-01-23_19h10.44.672,bars,2023.2.3,Win32,120.4819277,657b66ea316d21385b68909f,,,,,,,,,,,1370.1242,1371.1181,,,1371.6143,1371.8596,,74,74,,,,,,,,,,,,,,,,bars/014.png,bars/mask004.png,,,,,,,,,,,,6,1,,,,,,,8,10,8,10,,,,,,,,,,,1371.1181,1371.6143,1371.8596,1373.5264,space,1.6627,,1373.5264,6,74,1374.5264,1374.5264,1374.5324,,,,0,41,41,41,1,80,0,,,,,,,,
,,64b469b7e8466658269e356b,65af56bbf3ebe8cc90bc71f1,2024-01-23_19h10.44.672,bars,2023.2.3,Win32,120.4819277,657b66ea316d21385b68909f,,,,,,,,,,,1374.5325,1375.5286,,,1376.0264,1376.2763,,20,200,,,,,,,,,,,,,,,,bars/004.png,bars/mask003.png,,,,,,,,,,,,8,1,,,,,,,10,8,9,7,,,,,,,,,,,1375.5286,1376.0264,1376.2763,1378.7514,space,2.4691,,1378.7514,5,75,1379.7514,1379.7514,1379.7518,,,,0,42,42,42,1,25,125,,,,,,,,
,,64b469b7e8466658269e356b,65af56bbf3ebe8cc90bc71f1,2024-01-23_19h10.44.672,bars,2023.2.3,Win32,120.4819277,657b66ea316d21385b68909f,,,,,,,,,,,1379.7519,1380.7536,,,1381.2514,1381.5014,,135,135,,,,,,,,,,,,,,,,bars/024.png,bars/mask002.png,,,,,,,,,,,,5,1,,,,,,,8,10,9,10,,,,,,,,,,,1380.7537,1381.2513,1381.5014,1382.1895,space,0.6776,,1382.1895,15,35,1383.187,1383.187,1383.1873,,,,0,43,43,43,1,120,170,,,,,,,,
,,64b469b7e8466658269e356b,65af56bbf3ebe8cc90bc71f1,2024-01-23_19h10.44.672,bars,2023.2.3,Win32,120.4819277,657b66ea316d21385b68909f,,,,,,,,,,,1383.1874,1384.1847,,,1384.6847,1384.9347,,113,113,,,,,,,,,,,,,,,,bars/034.png,bars/mask001.png,,,,,,,,,,,,4,1,,,,,,,6,8,6,5,,,,,,,,,,,1384.1847,1384.6847,1384.9347,1386.5184,space,1.5787,,1386.5184,12,48,1387.5181,1387.5181,1387.5186,,,,0,44,44,44,1,125,65,,,,,,,,
,,64b469b7e8466658269e356b,65af56bbf3ebe8cc90bc71f1,2024-01-23_19h10.44.672,bars,2023.2.3,Win32,120.4819277,657b66ea316d21385b68909f,,,,,,,,,,,1387.5187,1388.5203,,,1389.018,1389.2703,,103,103,,,,,,,,,,,,,,,,bars/041.png,bars/mask002.png,,,,,,,,,,,,4,2,,,,,,,4,10,3,10,,,,,,,,,,,1388.5203,1389.018,1389.2703,1391.9598,space,2.6863,,1391.9598,83,18,1392.9598,1392.9598,1392.9662,,,,0,45,45,45,1,20,85,,,,,,,,
,,64b469b7e8466658269e356b,65af56bbf3ebe8cc90bc71f1,2024-01-23_19h10.44.672,bars,2023.2.3,Win32,120.4819277,657b66ea316d21385b68909f,,,,,,,,,,,1392.9663,1393.9704,,,1394.4682,1394.718,,78,78,,,,,,,,,,,,,,,,bars/002.png,bars/mask009.png,,,,,,,,,,,,8,2,,,,,,,6,10,6,10,,,,,,,,,,,1393.9704,1394.4682,1394.718,1397.1601,space,2.4391,,1397.1601,52,7,1398.1643,1398.1643,1398.1704,,,,0,46,46,46,1,130,85,,,,,,,,
,,64b469b7e8466658269e356b,65af56bbf3ebe8cc90bc71f1,2024-01-23_19h10.44.672,bars,2023.2.3,Win32,120.4819277,657b66ea316d21385b68909f,,,,,,,,,,,1398.1705,1399.1681,,,1399.6682,1399.9181,,159,-21,,,,,,,,,,,,,,,,bars/015.png,bars/mask002.png,,,,,,,,,,,,8,2,,,,,,,8,8,7,8,,,,,,,,,,,1399.1681,1399.6682,1399.9181,1402.5183,space,2.5945,,1402.5183,49,1,1403.5181,1403.5181,1403.5241,,,,0,47,47,47,1,110,160,,,,,,,,
,,64b469b7e8466658269e356b,65af56bbf3ebe8cc90bc71f1,2024-01-23_19h10.44.672,bars,2023.2.3,Win32,120.4819277,657b66ea316d21385b68909f,,,,,,,,,,,1403.5242,1404.5182,,,1405.0183,1405.2682,,20,200,,,,,,,,,,,,,,,,bars/022.png,bars/mask000.png,,,,,,,,,,,,6,2,,,,,,,6,6,8,6,,,,,,,,,,,1404.5182,1405.0183,1405.2682,1408.4265,space,3.1535,,1408.4265,75,0,1409.4267,1409.4267,1409.4327,,,,0,48,48,48,1,95,20,,,,,,,,
,,64b469b7e8466658269e356b,65af56bbf3ebe8cc90bc71f1,2024-01-23_19h10.44.672,bars,2023.2.3,Win32,120.4819277,657b66ea316d21385b68909f,,,,,,,,,,,1409.4328,1410.4267,,,1410.9267,1411.1765,,95,95,,,,,,,,,,,,,,,,bars/001.png,bars/mask000.png,,,,,,,,,,,,5,2,,,,,,,4,8,5,8,,,,,,,,,,,1410.4267,1410.9266,1411.1765,1412.7267,space,1.542,,1412.7267,35,10,1413.7266,1413.7266,1413.727,,,,0,49,49,49,1,130,85,,,,,,,,
,,64b469b7e8466658269e356b,65af56bbf3ebe8cc90bc71f1,2024-01-23_19h10.44.672,bars,2023.2.3,Win32,120.4819277,657b66ea316d21385b68909f,,,,,,,,,,,,,,,,,,,,,,,,,,,,,,,,,,,,,,,,,,,,,,,,,,,,,,,,,,,,,,,,,,,,,,,,,,,,,,,,,,,,,,,,,,,,,1413.7271,1473.7269,0,2,2,2,1,sequence_tables/blk035.csv
,,64b469b7e8466658269e356b,65af56bbf3ebe8cc90bc71f1,2024-01-23_19h10.44.672,bars,2023.2.3,Win32,120.4819277,657b66ea316d21385b68909f,,,,,,,,,,,1478.8274,1479.827,,,1480.3269,1480.5768,,138,138,,,,,,,,,,,,,,,,bars/042.png,bars/mask007.png,,,,,,,,,,,,8,1,,,,,,,10,7,10,6,,,,,,1473.7332,1478.8187,space,5.0823,,1479.827,1480.3269,1480.5768,1482.9436,space,2.3587,,1482.9436,7,63,1483.9437,1483.9437,1483.9532,,,,0,0,0,0,1,145,75,,,,,,,,
,,64b469b7e8466658269e356b,65af56bbf3ebe8cc90bc71f1,2024-01-23_19h10.44.672,bars,2023.2.3,Win32,120.4819277,657b66ea316d21385b68909f,,,,,,,,,,,1483.9533,1484.952,,,1485.4518,1485.694,,118,118,,,,,,,,,,,,,,,,bars/015.png,bars/mask009.png,,,,,,,,,,,,4,1,,,,,,,8,5,5,5,,,,,,,,,,,1484.952,1485.4518,1485.694,1487.0603,space,1.36,,1487.0603,8,42,1488.0602,1488.0602,1488.0662,,,,0,1,1,1,1,110,160,,,,,,,,
,,64b469b7e8466658269e356b,65af56bbf3ebe8cc90bc71f1,2024-01-23_19h10.44.672,bars,2023.2.3,Win32,120.4819277,657b66ea316d21385b68909f,,,,,,,,,,,1488.0663,1489.0602,,,1489.5601,1489.8102,,145,145,,,,,,,,,,,,,,,,bars/010.png,bars/mask007.png,,,,,,,,,,,,3,1,,,,,,,10,3,10,3,,,,,,,,,,,1489.0602,1489.5601,1489.8102,1490.6353,space,0.8188,,1490.6353,20,90,1491.6354,1491.6354,1491.6356,,,,0,2,2,2,1,165,55,,,,,,,,
,,64b469b7e8466658269e356b,65af56bbf3ebe8cc90bc71f1,2024-01-23_19h10.44.672,bars,2023.2.3,Win32,120.4819277,657b66ea316d21385b68909f,,,,,,,,,,,1491.6357,1492.6398,,,1493.1352,1493.3852,,104,104,,,,,,,,,,,,,,,,bars/041.png,bars/mask008.png,,,,,,,,,,,,0,2,,,,,,,10,1,10,1,,,,,,,,,,,1492.6399,1493.1352,1493.3852,1495.6268,space,2.2377,,1495.6268,84,19,1496.627,1496.627,1496.6335,,,,0,3,3,3,1,20,85,,,,,,,,
,,64b469b7e8466658269e356b,65af56bbf3ebe8cc90bc71f1,2024-01-23_19h10.44.672,bars,2023.2.3,Win32,120.4819277,657b66ea316d21385b68909f,,,,,,,,,,,1496.6335,1497.6353,,,1498.1353,1498.3852,,141,141,,,,,,,,,,,,,,,,bars/030.png,bars/mask007.png,,,,,,,,,,,,7,1,,,,,,,8,3,7,4,,,,,,,,,,,1497.6353,1498.1353,1498.3853,1499.8547,space,1.4656,,1499.8548,1,76,1500.852,1500.852,1500.8528,,,,0,4,4,4,1,140,65,,,,,,,,
,,64b469b7e8466658269e356b,65af56bbf3ebe8cc90bc71f1,2024-01-23_19h10.44.672,bars,2023.2.3,Win32,120.4819277,657b66ea316d21385b68909f,,,,,,,,,,,1500.8528,1501.8518,,,1502.3548,1502.6019,,125,-55,,,,,,,,,,,,,,,,bars/034.png,bars/mask007.png,,,,,,,,,,,,9,1,,,,,,,10,5,9,4,,,,,,,,,,,1501.8519,1502.3547,1502.6019,1505.7793,space,3.1753,,1505.7793,0,60,1506.7807,1506.7807,1506.7867,,,,0,5,5,5,1,125,65,,,,,,,,
,,64b469b7e8466658269e356b,65af56bbf3ebe8cc90bc71f1,2024-01-23_19h10.44.672,bars,2023.2.3,Win32,120.4819277,657b66ea316d21385b68909f,,,,,,,,,,,1506.7869,1507.7852,,,1508.2853,1508.5292,,35,35,,,,,,,,,,,,,,,,bars/004.png,bars/mask008.png,,,,,,,,,,,,6,1,,,,,,,8,7,9,7,,,,,,,,,,,1507.7852,1508.2852,1508.5292,1511.5959,space,3.0652,,1511.5959,10,90,1512.5981,1512.5981,1512.6041,,,,0,6,6,6,1,25,125,,,,,,,,
,,64b469b7e8466658269e356b,65af56bbf3ebe8cc90bc71f1,2024-01-23_19h10.44.672,bars,2023.2.3,Win32,120.4819277,657b66ea316d21385b68909f,,,,,,,,,,,1512.6042,1513.602,,,1514.102,1514.3519,,106,106,,,,,,,,,,,,,,,,bars/045.png,bars/mask000.png,,,,,,,,,,,,5,1,,,,,,,6,5,6,4,,,,,,,,,,,1513.602,1514.102,1514.3519,1516.3019,space,1.9478,,1516.3019,6,84,1517.3018,1517.3018,1517.3022,,,,0,7,7,7,1,100,10,,,,,,,,
,,64b469b7e8466658269e356b,65af56bbf3ebe8cc90bc71f1,2024-01-23_19h10.44.672,bars,2023.2.3,Win32,120.4819277,657b66ea316d21385b68909f,,,,,,,,,,,1517.3023,1518.302,,,1518.8019,1519.0459,,121,121,,,,,,,,,,,,,,,,bars/034.png,bars/mask005.png,,,,,,,,,,,,8,1,,,,,,,8,7,9,9,,,,,,,,,,,1518.302,1518.8019,1519.046,1520.9212,space,1.8735,,1520.9212,4,56,1521.9186,1521.9186,1521.9246,,,,0,8,8,8,1,125,65,,,,,,,,
,,64b469b7e8466658269e356b,65af56bbf3ebe8cc90bc71f1,2024-01-23_19h10.44.672,bars,2023.2.3,Win32,120.4819277,657b66ea316d21385b68909f,,,,,,,,,,,1521.9247,1522.9209,,,1523.4187,1523.6687,,33,213,,,,,,,,,,,,,,,,bars/043.png,bars/mask001.png,,,,,,,,,,,,9,1,,,,,,,10,9,10,9,,,,,,,,,,,1522.9209,1523.4187,1523.6687,1526.077,space,2.4007,,1526.077,3,83,1527.077,1527.077,1527.0832,,,,0,9,9,9,1,30,130,,,,,,,,
,,64b469b7e8466658269e356b,65af56bbf3ebe8cc90bc71f1,2024-01-23_19h10.44.672,bars,2023.2.3,Win32,120.4819277,657b66ea316d21385b68909f,,,,,,,,,,,1527.0833,1528.0815,,,1528.5793,1528.8269,,17,17,,,,,,,,,,,,,,,,bars/023.png,bars/mask008.png,,,,,,,,,,,,9,1,,,,,,,10,10,10,10,,,,,,,,,,,1528.0816,1528.5792,1528.827,1531.0353,space,2.2045,,1531.0353,3,82,1532.0354,1532.0354,1532.0413,,,,0,10,10,10,1,20,115,,,,,,,,
,,64b469b7e8466658269e356b,65af56bbf3ebe8cc90bc71f1,2024-01-23_19h10.44.672,bars,2023.2.3,Win32,120.4819277,657b66ea316d21385b68909f,,,,,,,,,,,1532.0414,1533.0353,,,1533.5354,1533.7854,,123,123,,,,,,,,,,,,,,,,bars/030.png,bars/mask001.png,,,,,,,,,,,,4,1,,,,,,,10,10,10,9,,,,,,,,,,,1533.0353,1533.5354,1533.7854,1536.2938,space,2.5007,,1536.2938,17,58,1537.2937,1537.2937,1537.2997,,,,0,11,11,11,1,140,65,,,,,,,,
,,64b469b7e8466658269e356b,65af56bbf3ebe8cc90bc71f1,2024-01-23_19h10.44.672,bars,2023.2.3,Win32,120.4819277,657b66ea316d21385b68909f,,,,,,,,,,,1537.2999,1538.302,,,1538.8022,1539.0521,,138,138,,,,,,,,,,,,,,,,bars/034.png,bars/mask001.png,,,,,,,,,,,,4,1,,,,,,,8,8,7,9,,,,,,,,,,,1538.3021,1538.8022,1539.0521,1540.7271,space,1.6708,,1540.7272,13,73,1541.727,1541.727,1541.7273,,,,0,12,12,12,1,125,65,,,,,,,,
,,64b469b7e8466658269e356b,65af56bbf3ebe8cc90bc71f1,2024-01-23_19h10.44.672,bars,2023.2.3,Win32,120.4819277,657b66ea316d21385b68909f,,,,,,,,,,,1541.7275,1542.7271,,,1543.2272,1543.4772,,135,135,,,,,,,,,,,,,,,,bars/024.png,bars/mask003.png,,,,,,,,,,,,5,1,,,,,,,10,10,10,10,,,,,,,,,,,1542.7272,1543.2272,1543.4772,1545.9356,space,2.4548,,1545.9356,15,35,1546.9355,1546.9355,1546.9416,,,,0,13,13,13,1,120,170,,,,,,,,
,,64b469b7e8466658269e356b,65af56bbf3ebe8cc90bc71f1,2024-01-23_19h10.44.672,bars,2023.2.3,Win32,120.4819277,657b66ea316d21385b68909f,,,,,,,,,,,1546.9417,1547.9379,,,1548.4353,1548.6854,,116,116,,,,,,,,,,,,,,,,bars/028.png,bars/mask007.png,,,,,,,,,,,,9,2,,,,,,,10,10,10,10,,,,,,,,,,,1547.9379,1548.4353,1548.6855,1550.6356,space,1.942,,1550.6356,71,4,1551.6355,1551.6356,1551.6363,,,,0,14,14,14,1,45,120,,,,,,,,
,,64b469b7e8466658269e356b,65af56bbf3ebe8cc90bc71f1,2024-01-23_19h10.44.672,bars,2023.2.3,Win32,120.4819277,657b66ea316d21385b68909f,,,,,,,,,,,1551.6364,1552.6354,,,1553.1355,1553.3854,,54,54,,,,,,,,,,,,,,,,bars/031.png,bars/mask001.png,,,,,,,,,,,,3,2,,,,,,,8,8,8,8,,,,,,,,,,,1552.6354,1553.1354,1553.3854,1556.2606,space,2.8668,,1556.2607,66,19,1557.2605,1557.2605,1557.2667,,,,0,15,15,15,1,120,35,,,,,,,,
,,64b469b7e8466658269e356b,65af56bbf3ebe8cc90bc71f1,2024-01-23_19h10.44.672,bars,2023.2.3,Win32,120.4819277,657b66ea316d21385b68909f,,,,,,,,,,,1557.2667,1558.2689,,,1558.7688,1559.0188,,18,18,,,,,,,,,,,,,,,,bars/014.png,bars/mask004.png,,,,,,,,,,,,3,2,,,,,,,6,10,5,8,,,,,,,,,,,1558.2689,1558.7688,1559.0188,1562.619,space,3.5919,,1562.619,62,18,1563.6188,1563.6188,1563.6249,,,,0,16,16,16,1,80,0,,,,,,,,
,,64b469b7e8466658269e356b,65af56bbf3ebe8cc90bc71f1,2024-01-23_19h10.44.672,bars,2023.2.3,Win32,120.4819277,657b66ea316d21385b68909f,,,,,,,,,,,1563.625,1564.619,,,1565.1189,1565.3689,,18,18,,,,,,,,,,,,,,,,bars/032.png,bars/mask000.png,,,,,,,,,,,,9,2,,,,,,,4,10,5,10,,,,,,,,,,,1564.619,1565.1189,1565.3689,1567.4357,space,2.0613,,1567.4357,73,2,1568.4355,1568.4355,1568.442,,,,0,17,17,17,1,125,20,,,,,,,,
,,64b469b7e8466658269e356b,65af56bbf3ebe8cc90bc71f1,2024-01-23_19h10.44.672,bars,2023.2.3,Win32,120.4819277,657b66ea316d21385b68909f,,,,,,,,,,,1568.4421,1569.4439,,,1569.944,1570.1939,,7,7,,,,,,,,,,,,,,,,bars/008.png,bars/mask006.png,,,,,,,,,,,,7,2,,,,,,,6,8,5,9,,,,,,,,,,,1569.4439,1569.944,1570.1939,1573.0106,space,2.8086,,1573.0106,77,7,1574.0106,1574.0106,1574.0168,,,,0,18,18,18,1,110,0,,,,,,,,
,,64b469b7e8466658269e356b,65af56bbf3ebe8cc90bc71f1,2024-01-23_19h10.44.672,bars,2023.2.3,Win32,120.4819277,657b66ea316d21385b68909f,,,,,,,,,,,1574.0169,1575.0189,,,1575.5189,1575.7689,,84,84,,,,,,,,,,,,,,,,bars/021.png,bars/mask009.png,,,,,,,,,,,,5,2,,,,,,,8,10,9,10,,,,,,,,,,,1575.0189,1575.5188,1575.769,1578.7273,space,2.9522,,1578.7273,71,14,1579.7273,1579.7273,1579.7333,,,,0,19,19,19,1,155,70,,,,,,,,
,,64b469b7e8466658269e356b,65af56bbf3ebe8cc90bc71f1,2024-01-23_19h10.44.672,bars,2023.2.3,Win32,120.4819277,657b66ea316d21385b68909f,,,,,,,,,,,1579.7334,1580.7272,,,1581.2273,1581.4772,,132,-48,,,,,,,,,,,,,,,,bars/005.png,bars/mask002.png,,,,,,,,,,,,7,2,,,,,,,10,10,10,9,,,,,,,,,,,1580.7272,1581.2273,1581.4772,1584.5356,space,3.0501,,1584.5356,58,8,1585.5357,1585.5357,1585.5418,,,,0,20,20,20,1,10,140,,,,,,,,
,,64b469b7e8466658269e356b,65af56bbf3ebe8cc90bc71f1,2024-01-23_19h10.44.672,bars,2023.2.3,Win32,120.4819277,657b66ea316d21385b68909f,,,,,,,,,,,1585.5419,1586.5357,,,1587.0393,1587.2856,,160,160,,,,,,,,,,,,,,,,bars/048.png,bars/mask006.png,,,,,,,,,,,,4,2,,,,,,,10,8,10,8,,,,,,,,,,,1586.5357,1587.0393,1587.2857,1589.9525,space,2.6592,,1589.9525,70,15,1590.9523,1590.9524,1590.9584,,,,0,21,21,21,1,50,175,,,,,,,,
,,64b469b7e8466658269e356b,65af56bbf3ebe8cc90bc71f1,2024-01-23_19h10.44.672,bars,2023.2.3,Win32,120.4819277,657b66ea316d21385b68909f,,,,,,,,,,,1590.9585,1591.9523,,,1592.4523,1592.7022,,19,199,,,,,,,,,,,,,,,,bars/036.png,bars/mask002.png,,,,,,,,,,,,4,2,,,,,,,8,6,8,4,,,,,,,,,,,1591.9524,1592.4523,1592.7023,1595.4773,space,2.7686,,1595.4773,54,1,1596.4773,1596.4773,1596.4833,,,,0,22,22,22,1,145,20,,,,,,,,
,,64b469b7e8466658269e356b,65af56bbf3ebe8cc90bc71f1,2024-01-23_19h10.44.672,bars,2023.2.3,Win32,120.4819277,657b66ea316d21385b68909f,,,,,,,,,,,1596.4834,1597.4772,,,1597.9773,1598.2273,,52,52,,,,,,,,,,,,,,,,bars/017.png,bars/mask003.png,,,,,,,,,,,,3,2,,,,,,,6,4,5,4,,,,,,,,,,,1597.4772,1597.9773,1598.2273,1602.1607,space,3.9252,,1602.1607,87,7,1603.1607,1603.1607,1603.1668,,,,0,23,23,23,1,145,45,,,,,,,,
,,64b469b7e8466658269e356b,65af56bbf3ebe8cc90bc71f1,2024-01-23_19h10.44.672,bars,2023.2.3,Win32,120.4819277,657b66ea316d21385b68909f,,,,,,,,,,,1603.1669,1604.1607,,,1604.6607,1604.9108,,142,142,,,,,,,,,,,,,,,,bars/021.png,bars/mask008.png,,,,,,,,,,,,5,1,,,,,,,8,6,8,7,,,,,,,,,,,1604.1607,1604.6607,1604.9108,1605.8108,space,0.8919,,1605.8108,13,72,1606.8106,1606.8106,1606.8114,,,,0,24,24,24,1,155,70,,,,,,,,
,,64b469b7e8466658269e356b,65af56bbf3ebe8cc90bc71f1,2024-01-23_19h10.44.672,bars,2023.2.3,Win32,120.4819277,657b66ea316d21385b68909f,,,,,,,,,,,1606.8115,1607.8108,,,1608.3108,1608.5608,,77,77,,,,,,,,,,,,,,,,bars/048.png,bars/mask006.png,,,,,,,,,,,,1,1,,,,,,,6,8,7,7,,,,,,,,,,,1607.8109,1608.3108,1608.5608,1612.6441,space,4.0772,,1612.6441,27,82,1613.6441,1613.6441,1613.65,,,,0,25,25,25,1,50,175,,,,,,,,
,,64b469b7e8466658269e356b,65af56bbf3ebe8cc90bc71f1,2024-01-23_19h10.44.672,bars,2023.2.3,Win32,120.4819277,657b66ea316d21385b68909f,,,,,,,,,,,1613.6502,1614.6439,,,1615.1441,1615.3941,,56,56,,,,,,,,,,,,,,,,bars/017.png,bars/mask001.png,,,,,,,,,,,,6,2,,,,,,,8,10,8,10,,,,,,,,,,,1614.6439,1615.1441,1615.3941,1617.444,space,2.0439,,1617.444,89,11,1618.4441,1618.4441,1618.4504,,,,0,26,26,26,1,145,45,,,,,,,,
,,64b469b7e8466658269e356b,65af56bbf3ebe8cc90bc71f1,2024-01-23_19h10.44.672,bars,2023.2.3,Win32,120.4819277,657b66ea316d21385b68909f,,,,,,,,,,,1618.4506,1619.4524,,,1619.9525,1620.2025,,13,193,,,,,,,,,,,,,,,,bars/040.png,bars/mask007.png,,,,,,,,,,,,7,2,,,,,,,6,10,6,10,,,,,,,,,,,1619.4524,1619.9525,1620.2025,1624.2857,space,4.0752,,1624.2857,53,8,1625.2857,1625.2857,1625.292,,,,0,27,27,27,1,140,5,,,,,,,,
,,64b469b7e8466658269e356b,65af56bbf3ebe8cc90bc71f1,2024-01-23_19h10.44.672,bars,2023.2.3,Win32,120.4819277,657b66ea316d21385b68909f,,,,,,,,,,,1625.2922,1626.2942,,,1626.794,1627.0441,,140,140,,,,,,,,,,,,,,,,bars/003.png,bars/mask002.png,,,,,,,,,,,,10,2,,,,,,,8,10,9,10,,,,,,,,,,,1626.2942,1626.794,1627.0441,1628.7108,space,1.659,,1628.7108,65,0,1629.7108,1629.7108,1629.7111,,,,0,28,28,28,1,25,140,,,,,,,,
,,64b469b7e8466658269e356b,65af56bbf3ebe8cc90bc71f1,2024-01-23_19h10.44.672,bars,2023.2.3,Win32,120.4819277,657b66ea316d21385b68909f,,,,,,,,,,,1629.7112,1630.7107,,,1631.2109,1631.4607,,11,191,,,,,,,,,,,,,,,,bars/045.png,bars/mask004.png,,,,,,,,,,,,10,2,,,,,,,10,10,10,10,,,,,,,,,,,1630.7107,1631.2109,1631.4607,1634.1942,space,2.7252,,1634.1942,89,1,1635.1945,1635.1945,1635.2114,,,,0,29,29,29,1,100,10,,,,,,,,
,,64b469b7e8466658269e356b,65af56bbf3ebe8cc90bc71f1,2024-01-23_19h10.44.672,bars,2023.2.3,Win32,120.4819277,657b66ea316d21385b68909f,,,,,,,,,,,1635.2117,1636.2108,,,1636.7108,1636.9608,,1,181,,,,,,,,,,,,,,,,bars/024.png,bars/mask005.png,,,,,,,,,,,,4,2,,,,,,,8,8,9,7,,,,,,,,,,,1636.2108,1636.7108,1636.9608,1639.3692,space,2.4048,,1639.3693,61,11,1640.3691,1640.3691,1640.3755,,,,0,30,30,30,1,120,170,,,,,,,,
,,64b469b7e8466658269e356b,65af56bbf3ebe8cc90bc71f1,2024-01-23_19h10.44.672,bars,2023.2.3,Win32,120.4819277,657b66ea316d21385b68909f,,,,,,,,,,,1640.3756,1641.3735,,,1641.8713,1642.119,,89,89,,,,,,,,,,,,,,,,bars/026.png,bars/mask008.png,,,,,,,,,,,,7,2,,,,,,,10,6,8,8,,,,,,,,,,,1641.3735,1641.8713,1642.1191,1644.2154,space,2.0944,,1644.2154,54,4,1645.2108,1645.2108,1645.2168,,,,0,31,31,31,1,35,85,,,,,,,,
,,64b469b7e8466658269e356b,65af56bbf3ebe8cc90bc71f1,2024-01-23_19h10.44.672,bars,2023.2.3,Win32,120.4819277,657b66ea316d21385b68909f,,,,,,,,,,,1645.2169,1646.2109,,,1646.7108,1646.963,,120,-60,,,,,,,,,,,,,,,,bars/004.png,bars/mask002.png,,,,,,,,,,,,8,2,,,,,,,10,8,10,9,,,,,,,,,,,1646.2109,1646.7108,1646.9631,1650.3525,space,3.3849,,1650.3525,85,5,1651.3571,1651.3571,1651.3631,,,,0,32,32,32,1,25,125,,,,,,,,
,,64b469b7e8466658269e356b,65af56bbf3ebe8cc90bc71f1,2024-01-23_19h10.44.672,bars,2023.2.3,Win32,120.4819277,657b66ea316d21385b68909f,,,,,,,,,,,1651.3632,1652.363,,,1652.8632,1653.1107,,146,146,,,,,,,,,,,,,,,,bars/015.png,bars/mask001.png,,,,,,,,,,,,5,2,,,,,,,10,10,10,10,,,,,,,,,,,1652.363,1652.8632,1653.1107,1654.7988,space,1.6774,,1654.7988,36,14,1655.7963,1655.7963,1655.797,,,,0,33,33,33,1,110,160,,,,,,,,
,,64b469b7e8466658269e356b,65af56bbf3ebe8cc90bc71f1,2024-01-23_19h10.44.672,bars,2023.2.3,Win32,120.4819277,657b66ea316d21385b68909f,,,,,,,,,,,1655.7972,1656.7941,,,1657.2903,1657.5381,,8,8,,,,,,,,,,,,,,,,bars/040.png,bars/mask000.png,,,,,,,,,,,,8,2,,,,,,,8,8,7,9,,,,,,,,,,,1656.7941,1657.2903,1657.5381,1660.1693,space,2.6233,,1660.1693,48,3,1661.1691,1661.1691,1661.1752,,,,0,34,34,34,1,140,5,,,,,,,,
,,64b469b7e8466658269e356b,65af56bbf3ebe8cc90bc71f1,2024-01-23_19h10.44.672,bars,2023.2.3,Win32,120.4819277,657b66ea316d21385b68909f,,,,,,,,,,,1661.1752,1662.1737,,,1662.6739,1662.9195,,17,17,,,,,,,,,,,,,,,,bars/036.png,bars/mask009.png,,,,,,,,,,,,8,2,,,,,,,6,10,6,9,,,,,,,,,,,1662.1737,1662.6739,1662.9195,1665.7526,space,2.8244,,1665.7526,52,3,1666.7526,1666.7526,1666.7585,,,,0,35,35,35,1,145,20,,,,,,,,
,,64b469b7e8466658269e356b,65af56bbf3ebe8cc90bc71f1,2024-01-23_19h10.44.672,bars,2023.2.3,Win32,120.4819277,657b66ea316d21385b68909f,,,,,,,,,,,1666.7587,1667.7526,,,1668.2527,1668.5026,,107,107,,,,,,,,,,,,,,,,bars/006.png,bars/mask002.png,,,,,,,,,,,,5,2,,,,,,,4,8,3,6,,,,,,,,,,,1667.7526,1668.2527,1668.5026,1670.8692,space,2.3502,,1670.8692,72,7,1671.8694,1671.8694,1671.8696,,,,0,36,36,36,1,35,100,,,,,,,,
,,64b469b7e8466658269e356b,65af56bbf3ebe8cc90bc71f1,2024-01-23_19h10.44.672,bars,2023.2.3,Win32,120.4819277,657b66ea316d21385b68909f,,,,,,,,,,,1671.8697,1672.8654,,,1673.3649,1673.613,,66,66,,,,,,,,,,,,,,,,bars/010.png,bars/mask008.png,,,,,,,,,,,,6,2,,,,,,,6,10,6,10,,,,,,,,,,,1672.8654,1673.3649,1673.613,1675.6898,space,2.0687,,1675.6898,81,11,1676.6896,1676.6896,1676.6959,,,,0,37,37,37,1,165,55,,,,,,,,
,,64b469b7e8466658269e356b,65af56bbf3ebe8cc90bc71f1,2024-01-23_19h10.44.672,bars,2023.2.3,Win32,120.4819277,657b66ea316d21385b68909f,,,,,,,,,,,1676.696,1677.6943,,,1678.1944,1678.4442,,84,84,,,,,,,,,,,,,,,,bars/021.png,bars/mask008.png,,,,,,,,,,,,5,2,,,,,,,8,10,10,10,,,,,,,,,,,1677.6943,1678.1944,1678.4442,1681.7483,space,3.2935,,1681.7483,71,14,1682.7443,1682.7443,1682.7504,,,,0,38,38,38,1,155,70,,,,,,,,
,,64b469b7e8466658269e356b,65af56bbf3ebe8cc90bc71f1,2024-01-23_19h10.44.672,bars,2023.2.3,Win32,120.4819277,657b66ea316d21385b68909f,,,,,,,,,,,1682.7505,1683.7464,,,1684.2443,1684.4942,,1,1,,,,,,,,,,,,,,,,bars/008.png,bars/mask000.png,,,,,,,,,,,,7,2,,,,,,,10,8,9,7,,,,,,,,,,,1683.7464,1684.2443,1684.4942,1687.0322,space,2.5252,,1687.0322,71,1,1688.0277,1688.0277,1688.0337,,,,0,39,39,39,1,110,0,,,,,,,,
,,64b469b7e8466658269e356b,65af56bbf3ebe8cc90bc71f1,2024-01-23_19h10.44.672,bars,2023.2.3,Win32,120.4819277,657b66ea316d21385b68909f,,,,,,,,,,,1688.0337,1689.0276,,,1689.5275,1689.7776,,43,43,,,,,,,,,,,,,,,,bars/017.png,bars/mask007.png,,,,,,,,,,,,5,2,,,,,,,10,6,9,5,,,,,,,,,,,1689.0276,1689.5275,1689.7776,1690.7323,space,0.9528,,1690.7323,78,2,1691.7276,1691.7276,1691.7279,,,,0,40,40,40,1,145,45,,,,,,,,
,,64b469b7e8466658269e356b,65af56bbf3ebe8cc90bc71f1,2024-01-23_19h10.44.672,bars,2023.2.3,Win32,120.4819277,657b66ea316d21385b68909f,,,,,,,,,,,1691.728,1692.7323,,,1693.2278,1693.4778,,98,98,,,,,,,,,,,,,,,,bars/018.png,bars/mask008.png,,,,,,,,,,,,4,2,,,,,,,10,4,9,5,,,,,,,,,,,1692.7323,1693.2277,1693.4778,1695.8611,space,2.3758,,1695.8611,52,8,1696.8611,1696.8611,1696.8671,,,,0,41,41,41,1,150,90,,,,,,,,
,,64b469b7e8466658269e356b,65af56bbf3ebe8cc90bc71f1,2024-01-23_19h10.44.672,bars,2023.2.3,Win32,120.4819277,657b66ea316d21385b68909f,,,,,,,,,,,1696.8673,1697.8633,,,1698.3656,1698.6111,,73,73,,,,,,,,,,,,,,,,bars/035.png,bars/mask003.png,,,,,,,,,,,,1,2,,,,,,,8,2,10,2,,,,,,,,,,,1697.8633,1698.3656,1698.6111,1701.4277,space,2.7998,,1701.4277,78,13,1702.4217,1702.4217,1702.4281,,,,0,42,42,42,1,175,60,,,,,,,,
,,64b469b7e8466658269e356b,65af56bbf3ebe8cc90bc71f1,2024-01-23_19h10.44.672,bars,2023.2.3,Win32,120.4819277,657b66ea316d21385b68909f,,,,,,,,,,,1702.4283,1703.4277,,,1703.9276,1704.1716,,41,221,,,,,,,,,,,,,,,,bars/019.png,bars/mask000.png,,,,,,,,,,,,5,1,,,,,,,6,4,6,3,,,,,,,,,,,1703.4277,1703.9276,1704.1716,1706.9695,space,2.79,,1706.9695,4,64,1707.9694,1707.9694,1707.9763,,,,0,43,43,43,1,45,105,,,,,,,,
,,64b469b7e8466658269e356b,65af56bbf3ebe8cc90bc71f1,2024-01-23_19h10.44.672,bars,2023.2.3,Win32,120.4819277,657b66ea316d21385b68909f,,,,,,,,,,,1707.9765,1708.9778,,,1709.4776,1709.7222,,96,96,,,,,,,,,,,,,,,,bars/012.png,bars/mask006.png,,,,,,,,,,,,3,1,,,,,,,4,2,4,4,,,,,,,,,,,1708.9778,1709.4776,1709.7222,1711.7907,space,2.0608,,1711.7908,6,81,1712.7882,1712.7882,1712.7943,,,,0,44,44,44,1,90,15,,,,,,,,
,,64b469b7e8466658269e356b,65af56bbf3ebe8cc90bc71f1,2024-01-23_19h10.44.672,bars,2023.2.3,Win32,120.4819277,657b66ea316d21385b68909f,,,,,,,,,,,1712.7944,1713.7944,,,1714.2944,1714.549,,105,105,,,,,,,,,,,,,,,,bars/025.png,bars/mask009.png,,,,,,,,,,,,2,1,,,,,,,2,0,2,2,,,,,,,,,,,1713.7944,1714.2944,1714.549,1718.6719,space,4.1209,,1718.6719,0,65,1719.6694,1719.6694,1719.6755,,,,0,45,45,45,1,105,40,,,,,,,,
,,64b469b7e8466658269e356b,65af56bbf3ebe8cc90bc71f1,2024-01-23_19h10.44.672,bars,2023.2.3,Win32,120.4819277,657b66ea316d21385b68909f,,,,,,,,,,,1719.6755,1720.6695,,,1721.1695,1721.4134,,114,114,,,,,,,,,,,,,,,,bars/027.png,bars/mask004.png,,,,,,,,,,,,4,1,,,,,,,4,0,5,0,,,,,,,,,,,1720.6695,1721.1695,1721.4134,1725.6613,space,4.2432,,1725.6613,4,64,1726.6611,1726.6612,1726.6671,,,,0,46,46,46,1,110,50,,,,,,,,
,,64b469b7e8466658269e356b,65af56bbf3ebe8cc90bc71f1,2024-01-23_19h10.44.672,bars,2023.2.3,Win32,120.4819277,657b66ea316d21385b68909f,,,,,,,,,,,1726.6673,1727.6611,,,1728.1658,1728.4134,,95,95,,,,,,,,,,,,,,,,bars/022.png,bars/mask007.png,,,,,,,,,,,,3,1,,,,,,,2,2,3,3,,,,,,,,,,,1727.6611,1728.1658,1728.4134,1729.3444,space,0.9192,,1729.3444,0,75,1730.3406,1730.3406,1730.3409,,,,0,47,47,47,1,95,20,,,,,,,,
,,64b469b7e8466658269e356b,65af56bbf3ebe8cc90bc71f1,2024-01-23_19h10.44.672,bars,2023.2.3,Win32,120.4819277,657b66ea316d21385b68909f,,,,,,,,,,,1730.341,1731.3361,,,1731.8362,1732.0861,,105,105,,,,,,,,,,,,,,,,bars/025.png,bars/mask002.png,,,,,,,,,,,,0,1,,,,,,,0,4,0,3,,,,,,,,,,,1731.3361,1731.8362,1732.0861,1735.8028,space,3.7069,,1735.8028,0,65,1736.8028,1736.8028,1736.809,,,,0,48,48,48,1,105,40,,,,,,,,
,,64b469b7e8466658269e356b,65af56bbf3ebe8cc90bc71f1,2024-01-23_19h10.44.672,bars,2023.2.3,Win32,120.4819277,657b66ea316d21385b68909f,,,,,,,,,,,1736.8091,1737.8028,,,1738.3028,1738.5529,,105,105,,,,,,,,,,,,,,,,bars/039.png,bars/mask006.png,,,,,,,,,,,,2,2,,,,,,,0,2,1,2,,,,,,,,,,,1737.8028,1738.3028,1738.5529,1741.278,space,2.717,,1741.278,70,0,1742.2779,1742.2779,1742.2845,,,,0,49,49,49,1,175,105,,,,,,,,
,,64b469b7e8466658269e356b,65af56bbf3ebe8cc90bc71f1,2024-01-23_19h10.44.672,bars,2023.2.3,Win32,120.4819277,657b66ea316d21385b68909f,,,,,,,,,,,,,,,,,,,,,,,,,,,,,,,,,,,,,,,,,,,,,,,,,,,,,,,,,,,,,,,,,,,,,,,,,,,,,,,,,,,,,,,,,,,,,1742.2847,1802.2864,0,3,3,0,1,sequence_tables/blk039.csv
,,64b469b7e8466658269e356b,65af56bbf3ebe8cc90bc71f1,2024-01-23_19h10.44.672,bars,2023.2.3,Win32,120.4819277,657b66ea316d21385b68909f,,,,,,,,,,,1809.8389,1810.8364,,,1811.3365,1811.5864,,61,61,,,,,,,,,,,,,,,,bars/028.png,bars/mask008.png,,,,,,,,,,,,4,1,,,,,,,9,4,9,4,,,,,,1802.2929,1809.8283,space,7.5252,,1810.8364,1811.3365,1811.5864,1814.514,space,2.9255,,1814.514,16,59,1815.5115,1815.5115,1815.5181,,,,0,0,0,0,1,45,120,,,,,,,,
,,64b469b7e8466658269e356b,65af56bbf3ebe8cc90bc71f1,2024-01-23_19h10.44.672,bars,2023.2.3,Win32,120.4819277,657b66ea316d21385b68909f,,,,,,,,,,,1815.5183,1816.5198,,,1817.0198,1817.2637,,127,127,,,,,,,,,,,,,,,,bars/034.png,bars/mask000.png,,,,,,,,,,,,7,1,,,,,,,7,2,7,0,,,,,,,,,,,1816.5198,1817.0198,1817.2638,1819.6306,space,2.3587,,1819.6306,2,62,1820.6285,1820.6286,1820.6459,,,,0,1,1,1,1,125,65,,,,,,,,
,,64b469b7e8466658269e356b,65af56bbf3ebe8cc90bc71f1,2024-01-23_19h10.44.672,bars,2023.2.3,Win32,120.4819277,657b66ea316d21385b68909f,,,,,,,,,,,1820.6461,1821.6449,,,1822.1448,1822.3949,,100,100,,,,,,,,,,,,,,,,bars/012.png,bars/mask005.png,,,,,,,,,,,,5,1,,,,,,,9,0,8,1,,,,,,,,,,,1821.6449,1822.1448,1822.3949,1824.22,space,1.8218,,1824.22,10,85,1825.2197,1825.2198,1825.2258,,,,0,2,2,2,1,90,15,,,,,,,,
,,64b469b7e8466658269e356b,65af56bbf3ebe8cc90bc71f1,2024-01-23_19h10.44.672,bars,2023.2.3,Win32,120.4819277,657b66ea316d21385b68909f,,,,,,,,,,,1825.2259,1826.2199,,,1826.7199,1826.9697,,154,-26,,,,,,,,,,,,,,,,bars/018.png,bars/mask003.png,,,,,,,,,,,,7,1,,,,,,,7,2,8,2,,,,,,,,,,,1826.2199,1826.7199,1826.9697,1829.5287,space,2.5551,,1829.5288,4,64,1830.5283,1830.5283,1830.5343,,,,0,3,3,3,1,150,90,,,,,,,,
,,64b469b7e8466658269e356b,65af56bbf3ebe8cc90bc71f1,2024-01-23_19h10.44.672,bars,2023.2.3,Win32,120.4819277,657b66ea316d21385b68909f,,,,,,,,,,,1830.5344,1831.5304,,,1832.0282,1832.2782,,23,203,,,,,,,,,,,,,,,,bars/003.png,bars/mask005.png,,,,,,,,,,,,8,1,,,,,,,9,4,9,4,,,,,,,,,,,1831.5304,1832.0282,1832.2782,1835.8866,space,3.6037,,1835.8866,2,63,1836.8867,1836.8867,1836.8927,,,,0,4,4,4,1,25,140,,,,,,,,
,,64b469b7e8466658269e356b,65af56bbf3ebe8cc90bc71f1,2024-01-23_19h10.44.672,bars,2023.2.3,Win32,120.4819277,657b66ea316d21385b68909f,,,,,,,,,,,1836.8928,1837.8865,,,1838.3911,1838.6367,,146,146,,,,,,,,,,,,,,,,bars/037.png,bars/mask007.png,,,,,,,,,,,,9,1,,,,,,,10,6,10,6,,,,,,,,,,,1837.8865,1838.3911,1838.6367,1840.3997,space,1.7611,,1840.3997,4,41,1841.395,1841.395,1841.3952,,,,0,5,5,5,1,150,105,,,,,,,,
,,64b469b7e8466658269e356b,65af56bbf3ebe8cc90bc71f1,2024-01-23_19h10.44.672,bars,2023.2.3,Win32,120.4819277,657b66ea316d21385b68909f,,,,,,,,,,,1841.3954,1842.3972,,,1842.8973,1843.1449,,78,78,,,,,,,,,,,,,,,,bars/022.png,bars/mask005.png,,,,,,,,,,,,4,1,,,,,,,8,4,9,6,,,,,,,,,,,1842.3972,1842.8973,1843.1449,1845.2308,space,2.0822,,1845.2308,17,58,1846.2282,1846.2283,1846.2286,,,,0,6,6,6,1,95,20,,,,,,,,
,,64b469b7e8466658269e356b,65af56bbf3ebe8cc90bc71f1,2024-01-23_19h10.44.672,bars,2023.2.3,Win32,120.4819277,657b66ea316d21385b68909f,,,,,,,,,,,1846.2288,1847.2283,,,1847.7283,1847.9722,,115,-65,,,,,,,,,,,,,,,,bars/020.png,bars/mask002.png,,,,,,,,,,,,10,1,,,,,,,10,2,10,2,,,,,,,,,,,1847.2283,1847.7283,1847.9722,1851.6451,space,3.6602,,1851.6451,0,55,1852.645,1852.6451,1852.6513,,,,0,7,7,7,1,115,170,,,,,,,,
,,64b469b7e8466658269e356b,65af56bbf3ebe8cc90bc71f1,2024-01-23_19h10.44.672,bars,2023.2.3,Win32,120.4819277,657b66ea316d21385b68909f,,,,,,,,,,,1852.6514,1853.6494,,,1854.145,1854.3968,,56,56,,,,,,,,,,,,,,,,bars/043.png,bars/mask006.png,,,,,,,,,,,,1,1,,,,,,,10,4,10,4,,,,,,,,,,,1853.6494,1854.145,1854.3968,1855.8201,space,1.4101,,1855.8201,26,74,1856.82,1856.82,1856.8266,,,,0,8,8,8,1,30,130,,,,,,,,
,,64b469b7e8466658269e356b,65af56bbf3ebe8cc90bc71f1,2024-01-23_19h10.44.672,bars,2023.2.3,Win32,120.4819277,657b66ea316d21385b68909f,,,,,,,,,,,1856.8266,1857.8284,,,1858.3306,1858.5783,,8,8,,,,,,,,,,,,,,,,bars/039.png,bars/mask001.png,,,,,,,,,,,,3,1,,,,,,,8,6,6,5,,,,,,,,,,,1857.8284,1858.3306,1858.5783,1862.0034,space,3.4187,,1862.0034,13,83,1863.0034,1863.0034,1863.0095,,,,0,9,9,9,1,175,105,,,,,,,,
,,64b469b7e8466658269e356b,65af56bbf3ebe8cc90bc71f1,2024-01-23_19h10.44.672,bars,2023.2.3,Win32,120.4819277,657b66ea316d21385b68909f,,,,,,,,,,,1863.0096,1864.0055,,,1864.5,1864.7451,,86,86,,,,,,,,,,,,,,,,bars/022.png,bars/mask004.png,,,,,,,,,,,,4,1,,,,,,,6,4,6,5,,,,,,,,,,,1864.0055,1864.5,1864.7451,1866.445,space,1.6936,,1866.445,9,66,1867.4451,1867.4451,1867.4454,,,,0,10,10,10,1,95,20,,,,,,,,
,,64b469b7e8466658269e356b,65af56bbf3ebe8cc90bc71f1,2024-01-23_19h10.44.672,bars,2023.2.3,Win32,120.4819277,657b66ea316d21385b68909f,,,,,,,,,,,1867.4455,1868.445,,,1868.9451,1869.195,,9,189,,,,,,,,,,,,,,,,bars/007.png,bars/mask006.png,,,,,,,,,,,,2,1,,,,,,,4,2,3,2,,,,,,,,,,,1868.4451,1868.945,1869.195,1872.0784,space,2.8669,,1872.0784,14,46,1873.0784,1873.0784,1873.0845,,,,0,11,11,11,1,175,55,,,,,,,,
