init_variables.started,init_variables.stopped,participant,session,date,expName,psychopyVersion,OS,frameRate,study_id,instruction_exp.started,instruction_exp.stopped,key_resp_8.keys,key_resp_8.rt,key_resp_8.duration,instruction_single.started,instruction_single.stopped,key_resp_2.keys,key_resp_2.rt,key_resp_2.duration,interval.started,interval.stopped,cue_single.started,cue_single.stopped,mask.started,mask.stopped,ori_response_single.started,res_ori,res,ori_response_single.stopped,key_resp_single.keys,key_resp_single.rt,key_resp_single.duration,disp_single.started,disp_single.stopped,key_resp.keys,key_resp.rt,key_resp.duration,single.thisRepN,single.thisTrialN,single.thisN,single.thisIndex,single.ran,ori,path,mask_path,instruction_bandit.started,instruction_bandit.stopped,key_resp_6.keys,key_resp_6.rt,key_resp_6.duration,cue_bandit.started,cue_bandit.stopped,bandit_res.keys,bandit_res.rt,bandit_res.duration,outcome_bandit.started,rew,action,outcome_bandit.stopped,bandit.thisRepN,bandit.thisTrialN,bandit.thisN,bandit.thisIndex,bandit.ran,actual_rew1,actual_rew2,rew1,rew2,instruction_task.started,instruction_task.stopped,key_resp_7.keys,key_resp_7.rt,key_resp_7.duration,wait_ready.started,wait_ready.stopped,key_resp_3.keys,key_resp_3.rt,key_resp_3.duration,cue.started,cue.stopped,ori_response.started,ori_response.stopped,key_resp_5.keys,key_resp_5.rt,key_resp_5.duration,outcome.started,diff1,diff2,outcome.stopped,disp_outcome_practice.started,disp_outcome_practice.stopped,key_resp_4.keys,key_resp_4.rt,key_resp_4.duration,trials.thisRepN,trials.thisTrialN,trials.thisN,trials.thisIndex,trials.ran,ori1,ori2,break_blk.started,break_blk.stopped,block.thisRepN,block.thisTrialN,block.thisN,block.thisIndex,block.ran,condition_file
0,0,65a6598ce71a234ef2b83b31,65af56b1928510ff1336ce75,2024-01-23_01h20.12.953,bars,2023.2.3,Win32,62.5,657b66ea316d21385b68909f,,,,,,,,,,,,,,,,,,,,,,,,,,,,,,,,,,,,,,,,,,,,,,,,,,,,,,,,,,,,,,,,,,,,,,,,,,,,,,,,,,,,,,,,,,,,,,,,,,,,
,,65a6598ce71a234ef2b83b31,65af56b1928510ff1336ce75,2024-01-23_01h20.12.953,bars,2023.2.3,Win32,62.5,657b66ea316d21385b68909f,0,84.913,y,84.885,,,,,,,,,,,,,,,,,,,,,,,,,,,,,,,,,,,,,,,,,,,,,,,,,,,,,,,,,,,,,,,,,,,,,,,,,,,,,,,,,,,,,,,,,,,,,,,,
,,65a6598ce71a234ef2b83b31,65af56b1928510ff1336ce75,2024-01-23_01h20.12.953,bars,2023.2.3,Win32,62.5,657b66ea316d21385b68909f,,,,,,84.913,98.8,space,13.858,,,,,,,,,,,,,,,,,,,,,,,,,,,,,,,,,,,,,,,,,,,,,,,,,,,,,,,,,,,,,,,,,,,,,,,,,,,,,,,,,,,,,,,,,,,
,,65a6598ce71a234ef2b83b31,65af56b1928510ff1336ce75,2024-01-23_01h20.12.953,bars,2023.2.3,Win32,62.5,657b66ea316d21385b68909f,,,,,,,,,,,98.827,99.819,99.82,100.316,100.317,100.564,100.565,90,90,111.523,space,10.912,,111.524,115.482,space,3.897,,0,0,0,2,1,145,bars/single002.png,bars/mask003.png,,,,,,,,,,,,,,,,,,,,,,,,,,,,,,,,,,,,,,,,,,,,,,,,,,,,,,,,,,,,,,,,
,,65a6598ce71a234ef2b83b31,65af56b1928510ff1336ce75,2024-01-23_01h20.12.953,bars,2023.2.3,Win32,62.5,657b66ea316d21385b68909f,,,,,,,,,,,115.483,116.481,116.481,116.981,116.981,117.231,117.231,110,110,121.643,space,4.398,,121.643,126.64,space,4.963,,0,1,1,8,1,160,bars/single008.png,bars/mask004.png,,,,,,,,,,,,,,,,,,,,,,,,,,,,,,,,,,,,,,,,,,,,,,,,,,,,,,,,,,,,,,,,
,,65a6598ce71a234ef2b83b31,65af56b1928510ff1336ce75,2024-01-23_01h20.12.953,bars,2023.2.3,Win32,62.5,657b66ea316d21385b68909f,,,,,,,,,,,126.675,127.653,127.653,128.152,128.152,128.406,128.406,27,27,135.994,space,7.573,,135.994,140.557,space,4.527,,0,2,2,1,1,20,bars/single001.png,bars/mask006.png,,,,,,,,,,,,,,,,,,,,,,,,,,,,,,,,,,,,,,,,,,,,,,,,,,,,,,,,,,,,,,,,
,,65a6598ce71a234ef2b83b31,65af56b1928510ff1336ce75,2024-01-23_01h20.12.953,bars,2023.2.3,Win32,62.5,657b66ea316d21385b68909f,,,,,,,,,,,140.598,141.558,141.558,142.056,142.056,142.31,142.31,89,89,147.916,space,5.591,,147.916,152.063,space,4.11,,0,3,3,4,1,95,bars/single004.png,bars/mask004.png,,,,,,,,,,,,,,,,,,,,,,,,,,,,,,,,,,,,,,,,,,,,,,,,,,,,,,,,,,,,,,,,
,,65a6598ce71a234ef2b83b31,65af56b1928510ff1336ce75,2024-01-23_01h20.12.953,bars,2023.2.3,Win32,62.5,657b66ea316d21385b68909f,,,,,,,,,,,152.107,153.065,153.065,153.562,153.562,153.81,153.81,39,39,156.826,space,3.006,,156.826,364.421,space,207.547,,0,4,4,7,1,45,bars/single007.png,bars/mask009.png,,,,,,,,,,,,,,,,,,,,,,,,,,,,,,,,,,,,,,,,,,,,,,,,,,,,,,,,,,,,,,,,
,,65a6598ce71a234ef2b83b31,65af56b1928510ff1336ce75,2024-01-23_01h20.12.953,bars,2023.2.3,Win32,62.5,657b66ea316d21385b68909f,,,,,,,,,,,364.464,365.436,365.436,365.937,365.937,366.186,366.186,83,83,370.103,space,3.9,,370.104,371.147,space,0.978,,0,5,5,5,1,55,bars/single005.png,bars/mask008.png,,,,,,,,,,,,,,,,,,,,,,,,,,,,,,,,,,,,,,,,,,,,,,,,,,,,,,,,,,,,,,,,
,,65a6598ce71a234ef2b83b31,65af56b1928510ff1336ce75,2024-01-23_01h20.12.953,bars,2023.2.3,Win32,62.5,657b66ea316d21385b68909f,,,,,,,,,,,371.148,372.146,372.146,372.646,372.646,372.896,372.896,0,0,376.029,space,3.115,,376.029,377.607,space,1.559,,0,6,6,3,1,20,bars/single003.png,bars/mask005.png,,,,,,,,,,,,,,,,,,,,,,,,,,,,,,,,,,,,,,,,,,,,,,,,,,,,,,,,,,,,,,,,
,,65a6598ce71a234ef2b83b31,65af56b1928510ff1336ce75,2024-01-23_01h20.12.953,bars,2023.2.3,Win32,62.5,657b66ea316d21385b68909f,,,,,,,,,,,377.609,378.606,378.607,379.106,379.106,379.357,379.357,30,210,384.318,space,4.945,,384.318,386.748,space,2.378,,0,7,7,9,1,20,bars/single009.png,bars/mask006.png,,,,,,,,,,,,,,,,,,,,,,,,,,,,,,,,,,,,,,,,,,,,,,,,,,,,,,,,,,,,,,,,
,,65a6598ce71a234ef2b83b31,65af56b1928510ff1336ce75,2024-01-23_01h20.12.953,bars,2023.2.3,Win32,62.5,657b66ea316d21385b68909f,,,,,,,,,,,386.782,387.764,387.764,388.264,388.264,388.514,388.514,0,180,393.01,space,4.483,,393.01,394.409,space,1.337,,0,8,8,6,1,175,bars/single006.png,bars/mask005.png,,,,,,,,,,,,,,,,,,,,,,,,,,,,,,,,,,,,,,,,,,,,,,,,,,,,,,,,,,,,,,,,
,,65a6598ce71a234ef2b83b31,65af56b1928510ff1336ce75,2024-01-23_01h20.12.953,bars,2023.2.3,Win32,62.5,657b66ea316d21385b68909f,,,,,,,,,,,394.411,395.406,395.407,395.905,395.906,396.155,396.155,147,147,398.671,space,2.5,,398.671,400.107,space,1.389,,0,9,9,0,1,150,bars/single000.png,bars/mask006.png,,,,,,,,,,,,,,,,,,,,,,,,,,,,,,,,,,,,,,,,,,,,,,,,,,,,,,,,,,,,,,,,
,,65a6598ce71a234ef2b83b31,65af56b1928510ff1336ce75,2024-01-23_01h20.12.953,bars,2023.2.3,Win32,62.5,657b66ea316d21385b68909f,,,,,,,,,,,,,,,,,,,,,,,,,,,,,,,,,,,,,400.111,409.029,space,8.871,,,,,,,,,,,,,,,,,,,,,,,,,,,,,,,,,,,,,,,,,,,,,,,,,,,,,,,,,,,,
,,65a6598ce71a234ef2b83b31,65af56b1928510ff1336ce75,2024-01-23_01h20.12.953,bars,2023.2.3,Win32,62.5,657b66ea316d21385b68909f,,,,,,,,,,,,,,,,,,,,,,,,,,,,,,,,,,,,,,,,,,409.069,409.91,left,0.808,,409.912,9,1,410.909,0,0,0,0,1,9,1,9,2,,,,,,,,,,,,,,,,,,,,,,,,,,,,,,,,,,,,,,,,,
,,65a6598ce71a234ef2b83b31,65af56b1928510ff1336ce75,2024-01-23_01h20.12.953,bars,2023.2.3,Win32,62.5,657b66ea316d21385b68909f,,,,,,,,,,,,,,,,,,,,,,,,,,,,,,,,,,,,,,,,,,410.911,411.642,left,0.715,,411.642,10,1,412.64,0,1,1,1,1,10,0,10,1,,,,,,,,,,,,,,,,,,,,,,,,,,,,,,,,,,,,,,,,,
,,65a6598ce71a234ef2b83b31,65af56b1928510ff1336ce75,2024-01-23_01h20.12.953,bars,2023.2.3,Win32,62.5,657b66ea316d21385b68909f,,,,,,,,,,,,,,,,,,,,,,,,,,,,,,,,,,,,,,,,,,412.642,413.273,left,0.617,,413.273,10,1,414.273,0,2,2,2,1,10,2,10,2,,,,,,,,,,,,,,,,,,,,,,,,,,,,,,,,,,,,,,,,,
,,65a6598ce71a234ef2b83b31,65af56b1928510ff1336ce75,2024-01-23_01h20.12.953,bars,2023.2.3,Win32,62.5,657b66ea316d21385b68909f,,,,,,,,,,,,,,,,,,,,,,,,,,,,,,,,,,,,,,,,,,414.274,414.79,left,0.508,,414.791,7,1,415.788,0,3,3,3,1,8,4,7,3,,,,,,,,,,,,,,,,,,,,,,,,,,,,,,,,,,,,,,,,,
,,65a6598ce71a234ef2b83b31,65af56b1928510ff1336ce75,2024-01-23_01h20.12.953,bars,2023.2.3,Win32,62.5,657b66ea316d21385b68909f,,,,,,,,,,,,,,,,,,,,,,,,,,,,,,,,,,,,,,,,,,415.79,416.354,left,0.55,,416.354,5,1,417.352,0,4,4,4,1,6,2,5,1,,,,,,,,,,,,,,,,,,,,,,,,,,,,,,,,,,,,,,,,,
,,65a6598ce71a234ef2b83b31,65af56b1928510ff1336ce75,2024-01-23_01h20.12.953,bars,2023.2.3,Win32,62.5,657b66ea316d21385b68909f,,,,,,,,,,,,,,,,,,,,,,,,,,,,,,,,,,,,,,,,,,417.353,417.853,right,0.484,,417.853,4,2,418.851,0,5,5,5,1,4,4,4,4,,,,,,,,,,,,,,,,,,,,,,,,,,,,,,,,,,,,,,,,,
,,65a6598ce71a234ef2b83b31,65af56b1928510ff1336ce75,2024-01-23_01h20.12.953,bars,2023.2.3,Win32,62.5,657b66ea316d21385b68909f,,,,,,,,,,,,,,,,,,,,,,,,,,,,,,,,,,,,,,,,,,418.851,419.318,left,0.455,,419.318,1,1,420.315,0,6,6,6,1,2,2,1,2,,,,,,,,,,,,,,,,,,,,,,,,,,,,,,,,,,,,,,,,,
,,65a6598ce71a234ef2b83b31,65af56b1928510ff1336ce75,2024-01-23_01h20.12.953,bars,2023.2.3,Win32,62.5,657b66ea316d21385b68909f,,,,,,,,,,,,,,,,,,,,,,,,,,,,,,,,,,,,,,,,,,420.317,420.816,left,0.485,,420.816,0,1,421.815,0,7,7,7,1,0,0,0,1,,,,,,,,,,,,,,,,,,,,,,,,,,,,,,,,,,,,,,,,,
,,65a6598ce71a234ef2b83b31,65af56b1928510ff1336ce75,2024-01-23_01h20.12.953,bars,2023.2.3,Win32,62.5,657b66ea316d21385b68909f,,,,,,,,,,,,,,,,,,,,,,,,,,,,,,,,,,,,,,,,,,421.816,422.3,right,0.477,,422.3,0,2,423.297,0,8,8,8,1,0,2,1,0,,,,,,,,,,,,,,,,,,,,,,,,,,,,,,,,,,,,,,,,,
,,65a6598ce71a234ef2b83b31,65af56b1928510ff1336ce75,2024-01-23_01h20.12.953,bars,2023.2.3,Win32,62.5,657b66ea316d21385b68909f,,,,,,,,,,,,,,,,,,,,,,,,,,,,,,,,,,,,,,,,,,423.299,423.912,left,0.603,,423.913,2,1,424.912,0,9,9,9,1,2,4,2,3,,,,,,,,,,,,,,,,,,,,,,,,,,,,,,,,,,,,,,,,,
,,65a6598ce71a234ef2b83b31,65af56b1928510ff1336ce75,2024-01-23_01h20.12.953,bars,2023.2.3,Win32,62.5,657b66ea316d21385b68909f,,,,,,,,,,,,,,,,,,,,,,,,,,,,,,,,,,,,,,,,,,424.913,425.397,left,0.475,,425.397,0,1,426.393,0,10,10,10,1,0,2,0,3,,,,,,,,,,,,,,,,,,,,,,,,,,,,,,,,,,,,,,,,,
,,65a6598ce71a234ef2b83b31,65af56b1928510ff1336ce75,2024-01-23_01h20.12.953,bars,2023.2.3,Win32,62.5,657b66ea316d21385b68909f,,,,,,,,,,,,,,,,,,,,,,,,,,,,,,,,,,,,,,,,,,426.393,426.876,left,0.469,,426.876,0,1,427.875,0,11,11,11,1,0,4,0,3,,,,,,,,,,,,,,,,,,,,,,,,,,,,,,,,,,,,,,,,,
,,65a6598ce71a234ef2b83b31,65af56b1928510ff1336ce75,2024-01-23_01h20.12.953,bars,2023.2.3,Win32,62.5,657b66ea316d21385b68909f,,,,,,,,,,,,,,,,,,,,,,,,,,,,,,,,,,,,,,,,,,427.878,428.225,right,0.336,,428.225,6,2,429.224,0,12,12,12,1,2,6,1,6,,,,,,,,,,,,,,,,,,,,,,,,,,,,,,,,,,,,,,,,,
,,65a6598ce71a234ef2b83b31,65af56b1928510ff1336ce75,2024-01-23_01h20.12.953,bars,2023.2.3,Win32,62.5,657b66ea316d21385b68909f,,,,,,,,,,,,,,,,,,,,,,,,,,,,,,,,,,,,,,,,,,429.225,429.825,right,0.585,,429.825,3,2,430.822,0,13,13,13,1,0,4,1,3,,,,,,,,,,,,,,,,,,,,,,,,,,,,,,,,,,,,,,,,,
,,65a6598ce71a234ef2b83b31,65af56b1928510ff1336ce75,2024-01-23_01h20.12.953,bars,2023.2.3,Win32,62.5,657b66ea316d21385b68909f,,,,,,,,,,,,,,,,,,,,,,,,,,,,,,,,,,,,,,,,,,430.825,431.475,left,0.635,,431.475,2,1,432.471,0,14,14,14,1,2,6,2,7,,,,,,,,,,,,,,,,,,,,,,,,,,,,,,,,,,,,,,,,,
,,65a6598ce71a234ef2b83b31,65af56b1928510ff1336ce75,2024-01-23_01h20.12.953,bars,2023.2.3,Win32,62.5,657b66ea316d21385b68909f,,,,,,,,,,,,,,,,,,,,,,,,,,,,,,,,,,,,,,,,,,432.472,432.987,right,0.501,,432.988,9,2,433.986,0,15,15,15,1,4,8,3,9,,,,,,,,,,,,,,,,,,,,,,,,,,,,,,,,,,,,,,,,,
,,65a6598ce71a234ef2b83b31,65af56b1928510ff1336ce75,2024-01-23_01h20.12.953,bars,2023.2.3,Win32,62.5,657b66ea316d21385b68909f,,,,,,,,,,,,,,,,,,,,,,,,,,,,,,,,,,,,,,,,,,433.987,435.153,right,1.147,,435.153,7,2,436.151,0,16,16,16,1,6,6,7,7,,,,,,,,,,,,,,,,,,,,,,,,,,,,,,,,,,,,,,,,,
,,65a6598ce71a234ef2b83b31,65af56b1928510ff1336ce75,2024-01-23_01h20.12.953,bars,2023.2.3,Win32,62.5,657b66ea316d21385b68909f,,,,,,,,,,,,,,,,,,,,,,,,,,,,,,,,,,,,,,,,,,436.152,436.734,right,0.566,,436.734,5,2,437.732,0,17,17,17,1,8,4,9,5,,,,,,,,,,,,,,,,,,,,,,,,,,,,,,,,,,,,,,,,,
,,65a6598ce71a234ef2b83b31,65af56b1928510ff1336ce75,2024-01-23_01h20.12.953,bars,2023.2.3,Win32,62.5,657b66ea316d21385b68909f,,,,,,,,,,,,,,,,,,,,,,,,,,,,,,,,,,,,,,,,,,437.734,438.182,right,0.438,,438.182,1,2,439.18,0,18,18,18,1,6,2,5,1,,,,,,,,,,,,,,,,,,,,,,,,,,,,,,,,,,,,,,,,,
,,65a6598ce71a234ef2b83b31,65af56b1928510ff1336ce75,2024-01-23_01h20.12.953,bars,2023.2.3,Win32,62.5,657b66ea316d21385b68909f,,,,,,,,,,,,,,,,,,,,,,,,,,,,,,,,,,,,,,,,,,439.18,439.53,left,0.332,,439.53,7,1,440.53,0,19,19,19,1,8,0,7,0,,,,,,,,,,,,,,,,,,,,,,,,,,,,,,,,,,,,,,,,,
,,65a6598ce71a234ef2b83b31,65af56b1928510ff1336ce75,2024-01-23_01h20.12.953,bars,2023.2.3,Win32,62.5,657b66ea316d21385b68909f,,,,,,,,,,,,,,,,,,,,,,,,,,,,,,,,,,,,,,,,,,,,,,,,,,,,,,,,,,,,440.532,454.234,space,13.682,,,,,,,,,,,,,,,,,,,,,,,,,,,,,,,,,,,,,
,,65a6598ce71a234ef2b83b31,65af56b1928510ff1336ce75,2024-01-23_01h20.12.953,bars,2023.2.3,Win32,62.5,657b66ea316d21385b68909f,,,,,,,,,,,456.319,457.313,,,457.814,458.062,,119,119,,,,,,,,,,,,,,,,bars/034.png,bars/mask002.png,,,,,,,,,,,,6,1,,,,,,,7,2,8,3,,,,,,454.276,456.299,space,2.005,,457.314,457.813,458.064,462.777,space,4.69,,462.779,6,54,463.773,463.774,473.916,space,10.108,,0,0,0,0,1,125,65,,,,,,,,
,,65a6598ce71a234ef2b83b31,65af56b1928510ff1336ce75,2024-01-23_01h20.12.953,bars,2023.2.3,Win32,62.5,657b66ea316d21385b68909f,,,,,,,,,,,473.959,474.928,,,475.428,475.678,,85,85,,,,,,,,,,,,,,,,bars/033.png,bars/mask008.png,,,,,,,,,,,,0,1,,,,,,,9,4,8,5,,,,,,,,,,,474.928,475.428,475.678,480.025,space,4.333,,480.025,60,70,481.023,481.024,486.118,space,5.033,,0,1,1,1,1,25,155,,,,,,,,
,,65a6598ce71a234ef2b83b31,65af56b1928510ff1336ce75,2024-01-23_01h20.12.953,bars,2023.2.3,Win32,62.5,657b66ea316d21385b68909f,,,,,,,,,,,486.155,487.133,,,487.633,487.883,,49,49,,,,,,,,,,,,,,,,bars/032.png,bars/mask009.png,,,,,,,,,,,,0,2,,,,,,,7,6,6,6,,,,,,,,,,,487.133,487.633,487.883,491.001,space,3.096,,491.001,76,29,491.995,491.995,494.162,space,2.105,,0,2,2,2,1,125,20,,,,,,,,
,,65a6598ce71a234ef2b83b31,65af56b1928510ff1336ce75,2024-01-23_01h20.12.953,bars,2023.2.3,Win32,62.5,657b66ea316d21385b68909f,,,,,,,,,,,494.163,495.159,,,495.66,495.909,,132,132,,,,,,,,,,,,,,,,bars/030.png,bars/mask004.png,,,,,,,,,,,,4,1,,,,,,,5,8,6,9,,,,,,,,,,,495.159,495.66,495.909,498.456,space,2.531,,498.456,8,67,499.455,499.455,501.354,space,1.836,,0,3,3,3,1,140,65,,,,,,,,
,,65a6598ce71a234ef2b83b31,65af56b1928510ff1336ce75,2024-01-23_01h20.12.953,bars,2023.2.3,Win32,62.5,657b66ea316d21385b68909f,,,,,,,,,,,501.356,502.353,,,502.851,503.101,,17,17,,,,,,,,,,,,,,,,bars/012.png,bars/mask003.png,,,,,,,,,,,,6,2,,,,,,,3,6,2,6,,,,,,,,,,,502.353,502.851,503.101,507.031,space,3.915,,507.032,73,2,508.03,508.03,509.348,space,1.25,,0,4,4,4,1,90,15,,,,,,,,
,,65a6598ce71a234ef2b83b31,65af56b1928510ff1336ce75,2024-01-23_01h20.12.953,bars,2023.2.3,Win32,62.5,657b66ea316d21385b68909f,,,,,,,,,,,509.35,510.344,,,510.844,511.093,,134,134,,,,,,,,,,,,,,,,bars/015.png,bars/mask007.png,,,,,,,,,,,,1,1,,,,,,,5,4,4,5,,,,,,,,,,,510.344,510.844,511.093,513.408,space,2.297,,513.408,24,26,514.407,514.407,515.706,space,1.228,,0,5,5,5,1,110,160,,,,,,,,
,,65a6598ce71a234ef2b83b31,65af56b1928510ff1336ce75,2024-01-23_01h20.12.953,bars,2023.2.3,Win32,62.5,657b66ea316d21385b68909f,,,,,,,,,,,515.708,516.704,,,517.206,517.454,,20,20,,,,,,,,,,,,,,,,bars/012.png,bars/mask003.png,,,,,,,,,,,,3,2,,,,,,,3,2,3,3,,,,,,,,,,,516.704,517.206,517.454,520.053,space,2.588,,520.053,70,5,521.051,521.051,522.516,space,1.402,,0,6,6,6,1,90,15,,,,,,,,
,,65a6598ce71a234ef2b83b31,65af56b1928510ff1336ce75,2024-01-23_01h20.12.953,bars,2023.2.3,Win32,62.5,657b66ea316d21385b68909f,,,,,,,,,,,522.517,523.514,,,524.014,524.264,,158,-22,,,,,,,,,,,,,,,,bars/014.png,bars/mask006.png,,,,,,,,,,,,1,2,,,,,,,1,4,2,3,,,,,,,,,,,523.514,524.014,524.264,528.511,space,4.236,,528.511,78,22,529.508,529.508,530.924,space,1.365,,0,7,7,7,1,80,0,,,,,,,,
,,65a6598ce71a234ef2b83b31,65af56b1928510ff1336ce75,2024-01-23_01h20.12.953,bars,2023.2.3,Win32,62.5,657b66ea316d21385b68909f,,,,,,,,,,,530.926,531.924,,,532.423,532.673,,160,160,,,,,,,,,,,,,,,,bars/035.png,bars/mask000.png,,,,,,,,,,,,0,1,,,,,,,0,2,0,3,,,,,,,,,,,531.924,532.423,532.673,536.203,space,3.512,,536.203,15,80,537.201,537.201,538.9,space,1.643,,0,8,8,8,1,175,60,,,,,,,,
,,65a6598ce71a234ef2b83b31,65af56b1928510ff1336ce75,2024-01-23_01h20.12.953,bars,2023.2.3,Win32,62.5,657b66ea316d21385b68909f,,,,,,,,,,,538.901,539.899,,,540.397,540.648,,137,137,,,,,,,,,,,,,,,,bars/021.png,bars/mask000.png,,,,,,,,,,,,0,1,,,,,,,0,4,0,5,,,,,,,,,,,539.899,540.397,540.648,542.564,space,1.904,,542.564,18,67,543.563,543.563,545.047,space,1.468,,0,9,9,9,1,155,70,,,,,,,,
,,65a6598ce71a234ef2b83b31,65af56b1928510ff1336ce75,2024-01-23_01h20.12.953,bars,2023.2.3,Win32,62.5,657b66ea316d21385b68909f,,,,,,,,,,,545.049,546.043,,,546.544,546.792,,126,126,,,,,,,,,,,,,,,,bars/001.png,bars/mask001.png,,,,,,,,,,,,0,1,,,,,,,0,6,0,6,,,,,,,,,,,546.043,546.544,546.792,550.888,space,4.084,,550.888,4,41,551.886,551.886,553.153,space,1.206,,0,10,10,10,1,130,85,,,,,,,,
,,65a6598ce71a234ef2b83b31,65af56b1928510ff1336ce75,2024-01-23_01h20.12.953,bars,2023.2.3,Win32,62.5,657b66ea316d21385b68909f,,,,,,,,,,,553.155,554.151,,,554.651,554.9,,88,88,,,,,,,,,,,,,,,,bars/018.png,bars/mask006.png,,,,,,,,,,,,7,2,,,,,,,2,8,2,8,,,,,,,,,,,554.151,554.651,554.9,557.881,space,2.967,,557.881,62,2,558.88,558.88,560.18,space,1.239,,0,11,11,11,1,150,90,,,,,,,,
,,65a6598ce71a234ef2b83b31,65af56b1928510ff1336ce75,2024-01-23_01h20.12.953,bars,2023.2.3,Win32,62.5,657b66ea316d21385b68909f,,,,,,,,,,,560.181,561.177,,,561.678,561.927,,142,142,,,,,,,,,,,,,,,,bars/033.png,bars/mask003.png,,,,,,,,,,,,3,2,,,,,,,4,6,5,6,,,,,,,,,,,561.177,561.678,561.927,564.709,space,2.767,,564.709,63,13,565.707,565.707,566.939,space,1.174,,0,12,12,12,1,25,155,,,,,,,,
,,65a6598ce71a234ef2b83b31,65af56b1928510ff1336ce75,2024-01-23_01h20.12.953,bars,2023.2.3,Win32,62.5,657b66ea316d21385b68909f,,,,,,,,,,,566.94,567.937,,,568.437,568.686,,163,163,,,,,,,,,,,,,,,,bars/015.png,bars/mask009.png,,,,,,,,,,,,7,2,,,,,,,2,8,1,8,,,,,,,,,,,567.938,568.437,568.687,570.137,space,1.437,,570.137,53,3,571.135,571.135,572.3,space,1.149,,0,13,13,13,1,110,160,,,,,,,,
,,65a6598ce71a234ef2b83b31,65af56b1928510ff1336ce75,2024-01-23_01h20.12.953,bars,2023.2.3,Win32,62.5,657b66ea316d21385b68909f,,,,,,,,,,,572.303,573.298,,,573.799,574.048,,100,100,,,,,,,,,,,,,,,,bars/006.png,bars/mask005.png,,,,,,,,,,,,10,2,,,,,,,4,10,3,10,,,,,,,,,,,573.298,573.799,574.048,577.578,space,3.515,,577.579,65,0,578.577,578.577,580.159,space,1.536,,0,14,14,14,1,35,100,,,,,,,,
,,65a6598ce71a234ef2b83b31,65af56b1928510ff1336ce75,2024-01-23_01h20.12.953,bars,2023.2.3,Win32,62.5,657b66ea316d21385b68909f,,,,,,,,,,,580.161,581.158,,,581.658,581.907,,115,115,,,,,,,,,,,,,,,,bars/024.png,bars/mask009.png,,,,,,,,,,,,3,1,,,,,,,2,10,3,9,,,,,,,,,,,581.158,581.658,581.907,584.158,space,2.24,,584.158,5,55,585.154,585.155,586.689,space,1.474,,0,15,15,15,1,120,170,,,,,,,,
,,65a6598ce71a234ef2b83b31,65af56b1928510ff1336ce75,2024-01-23_01h20.12.953,bars,2023.2.3,Win32,62.5,657b66ea316d21385b68909f,,,,,,,,,,,586.69,587.685,,,588.185,588.434,,100,100,,,,,,,,,,,,,,,,bars/026.png,bars/mask002.png,,,,,,,,,,,,4,2,,,,,,,0,10,0,8,,,,,,,,,,,587.685,588.185,588.434,593.616,space,5.169,,593.616,65,15,594.613,594.613,595.71,space,1.035,,0,16,16,16,1,35,85,,,,,,,,
,,65a6598ce71a234ef2b83b31,65af56b1928510ff1336ce75,2024-01-23_01h20.12.953,bars,2023.2.3,Win32,62.5,657b66ea316d21385b68909f,,,,,,,,,,,595.713,596.709,,,597.209,597.459,,122,-58,,,,,,,,,,,,,,,,bars/040.png,bars/mask004.png,,,,,,,,,,,,1,1,,,,,,,2,8,2,10,,,,,,,,,,,596.709,597.209,597.459,602.505,space,5.028,,602.505,18,63,603.502,603.503,604.651,space,1.084,,0,17,17,17,1,140,5,,,,,,,,
,,65a6598ce71a234ef2b83b31,65af56b1928510ff1336ce75,2024-01-23_01h20.12.953,bars,2023.2.3,Win32,62.5,657b66ea316d21385b68909f,,,,,,,,,,,604.656,605.65,,,606.151,606.401,,138,138,,,,,,,,,,,,,,,,bars/016.png,bars/mask004.png,,,,,,,,,,,,1,2,,,,,,,4,10,5,10,,,,,,,,,,,605.651,606.15,606.401,609.78,space,3.364,,609.781,82,27,610.779,610.78,611.828,space,0.985,,0,18,18,18,1,40,165,,,,,,,,
,,65a6598ce71a234ef2b83b31,65af56b1928510ff1336ce75,2024-01-23_01h20.12.953,bars,2023.2.3,Win32,62.5,657b66ea316d21385b68909f,,,,,,,,,,,611.828,612.827,,,613.327,613.576,,89,89,,,,,,,,,,,,,,,,bars/011.png,bars/mask009.png,,,,,,,,,,,,9,2,,,,,,,6,10,5,10,,,,,,,,,,,612.827,613.327,613.576,616.94,space,3.351,,616.941,71,4,617.939,617.939,619.455,space,1.477,,0,19,19,19,1,160,85,,,,,,,,
,,65a6598ce71a234ef2b83b31,65af56b1928510ff1336ce75,2024-01-23_01h20.12.953,bars,2023.2.3,Win32,62.5,657b66ea316d21385b68909f,,,,,,,,,,,619.457,620.452,,,620.951,621.202,,102,102,,,,,,,,,,,,,,,,bars/009.png,bars/mask002.png,,,,,,,,,,,,9,2,,,,,,,8,10,9,10,,,,,,,,,,,620.452,620.951,621.202,624.183,space,2.967,,624.183,87,3,625.181,625.181,626.331,space,1.097,,0,20,20,20,1,15,105,,,,,,,,
,,65a6598ce71a234ef2b83b31,65af56b1928510ff1336ce75,2024-01-23_01h20.12.953,bars,2023.2.3,Win32,62.5,657b66ea316d21385b68909f,,,,,,,,,,,626.332,627.329,,,627.829,628.078,,21,201,,,,,,,,,,,,,,,,bars/040.png,bars/mask002.png,,,,,,,,,,,,5,2,,,,,,,6,8,6,10,,,,,,,,,,,627.33,627.828,628.079,633.257,space,5.162,,633.257,61,16,634.258,634.258,635.191,space,0.874,,0,21,21,21,1,140,5,,,,,,,,
,,65a6598ce71a234ef2b83b31,65af56b1928510ff1336ce75,2024-01-23_01h20.12.953,bars,2023.2.3,Win32,62.5,657b66ea316d21385b68909f,,,,,,,,,,,635.192,636.188,,,636.687,636.937,,92,92,,,,,,,,,,,,,,,,bars/011.png,bars/mask001.png,,,,,,,,,,,,4,2,,,,,,,4,6,6,5,,,,,,,,,,,636.188,636.687,636.937,641.299,space,4.345,,641.299,68,7,642.298,642.298,643.08,space,0.73,,0,22,22,22,1,160,85,,,,,,,,
,,65a6598ce71a234ef2b83b31,65af56b1928510ff1336ce75,2024-01-23_01h20.12.953,bars,2023.2.3,Win32,62.5,657b66ea316d21385b68909f,,,,,,,,,,,643.081,644.079,,,644.579,644.829,,136,136,,,,,,,,,,,,,,,,bars/040.png,bars/mask008.png,,,,,,,,,,,,2,1,,,,,,,2,8,2,8,,,,,,,,,,,644.079,644.579,644.829,647.344,space,2.506,,647.344,4,49,648.342,648.342,649.292,space,0.923,,0,23,23,23,1,140,5,,,,,,,,
,,65a6598ce71a234ef2b83b31,65af56b1928510ff1336ce75,2024-01-23_01h20.12.953,bars,2023.2.3,Win32,62.5,657b66ea316d21385b68909f,,,,,,,,,,,649.293,650.29,,,650.79,651.039,,104,104,,,,,,,,,,,,,,,,bars/039.png,bars/mask008.png,,,,,,,,,,,,10,2,,,,,,,4,10,4,10,,,,,,,,,,,650.29,650.79,651.04,653.52,space,2.468,,653.52,71,1,654.519,654.519,655.619,space,1.029,,0,24,24,24,1,175,105,,,,,,,,
,,65a6598ce71a234ef2b83b31,65af56b1928510ff1336ce75,2024-01-23_01h20.12.953,bars,2023.2.3,Win32,62.5,657b66ea316d21385b68909f,,,,,,,,,,,655.62,656.618,,,657.117,657.367,,7,187,,,,,,,,,,,,,,,,bars/035.png,bars/mask003.png,,,,,,,,,,,,2,1,,,,,,,2,8,3,7,,,,,,,,,,,656.618,657.117,657.367,659.032,space,1.652,,659.032,12,53,660.03,660.031,660.715,space,0.658,,0,25,25,25,1,175,60,,,,,,,,
,,65a6598ce71a234ef2b83b31,65af56b1928510ff1336ce75,2024-01-23_01h20.12.953,bars,2023.2.3,Win32,62.5,657b66ea316d21385b68909f,,,,,,,,,,,660.716,661.713,,,662.213,662.462,,93,93,,,,,,,,,,,,,,,,bars/026.png,bars/mask000.png,,,,,,,,,,,,7,2,,,,,,,0,10,0,10,,,,,,,,,,,661.713,662.213,662.463,665.642,space,3.162,,665.642,58,8,666.642,666.642,667.557,space,0.853,,0,26,26,26,1,35,85,,,,,,,,
,,65a6598ce71a234ef2b83b31,65af56b1928510ff1336ce75,2024-01-23_01h20.12.953,bars,2023.2.3,Win32,62.5,657b66ea316d21385b68909f,,,,,,,,,,,667.558,668.556,,,669.055,669.304,,153,-27,,,,,,,,,,,,,,,,bars/020.png,bars/mask007.png,,,,,,,,,,,,4,2,,,,,,,2,10,2,10,,,,,,,,,,,668.556,669.055,669.304,674.25,space,4.931,,674.251,38,17,675.249,675.249,676.099,space,0.793,,0,27,27,27,1,115,170,,,,,,,,
,,65a6598ce71a234ef2b83b31,65af56b1928510ff1336ce75,2024-01-23_01h20.12.953,bars,2023.2.3,Win32,62.5,657b66ea316d21385b68909f,,,,,,,,,,,676.101,677.097,,,677.597,677.846,,104,104,,,,,,,,,,,,,,,,bars/009.png,bars/mask009.png,,,,,,,,,,,,10,2,,,,,,,0,10,1,10,,,,,,,,,,,677.097,677.597,677.847,680.611,space,2.751,,680.611,89,1,681.609,681.609,682.426,space,0.763,,0,28,28,28,1,15,105,,,,,,,,
,,65a6598ce71a234ef2b83b31,65af56b1928510ff1336ce75,2024-01-23_01h20.12.953,bars,2023.2.3,Win32,62.5,657b66ea316d21385b68909f,,,,,,,,,,,682.426,683.424,,,683.924,684.173,,114,-66,,,,,,,,,,,,,,,,bars/026.png,bars/mask002.png,,,,,,,,,,,,0,2,,,,,,,0,8,2,8,,,,,,,,,,,683.424,683.923,684.173,688.354,space,4.165,,688.354,79,29,689.351,689.352,690.119,space,0.715,,0,29,29,29,1,35,85,,,,,,,,
,,65a6598ce71a234ef2b83b31,65af56b1928510ff1336ce75,2024-01-23_01h20.12.953,bars,2023.2.3,Win32,62.5,657b66ea316d21385b68909f,,,,,,,,,,,690.119,691.116,,,691.615,691.865,,94,94,,,,,,,,,,,,,,,,bars/042.png,bars/mask000.png,,,,,,,,,,,,4,2,,,,,,,0,10,0,10,,,,,,,,,,,691.117,691.615,691.865,697.128,space,5.249,,697.128,51,19,698.127,698.127,698.844,space,0.662,,0,30,30,30,1,145,75,,,,,,,,
,,65a6598ce71a234ef2b83b31,65af56b1928510ff1336ce75,2024-01-23_01h20.12.953,bars,2023.2.3,Win32,62.5,657b66ea316d21385b68909f,,,,,,,,,,,698.846,699.843,,,700.342,700.594,,54,54,,,,,,,,,,,,,,,,bars/029.png,bars/mask006.png,,,,,,,,,,,,6,2,,,,,,,0,10,0,9,,,,,,,,,,,699.843,700.342,700.594,704.138,space,3.528,,704.139,36,9,705.137,705.137,705.903,space,0.712,,0,31,31,31,1,90,45,,,,,,,,
,,65a6598ce71a234ef2b83b31,65af56b1928510ff1336ce75,2024-01-23_01h20.12.953,bars,2023.2.3,Win32,62.5,657b66ea316d21385b68909f,,,,,,,,,,,705.905,706.901,,,707.4,707.653,,89,89,,,,,,,,,,,,,,,,bars/031.png,bars/mask001.png,,,,,,,,,,,,0,1,,,,,,,0,8,0,8,,,,,,,,,,,706.901,707.4,707.653,711.233,space,3.571,,711.233,31,54,712.23,712.23,712.95,space,0.661,,0,32,32,32,1,120,35,,,,,,,,
,,65a6598ce71a234ef2b83b31,65af56b1928510ff1336ce75,2024-01-23_01h20.12.953,bars,2023.2.3,Win32,62.5,657b66ea316d21385b68909f,,,,,,,,,,,712.952,713.945,,,714.444,714.693,,77,77,,,,,,,,,,,,,,,,bars/030.png,bars/mask004.png,,,,,,,,,,,,4,2,,,,,,,0,6,0,6,,,,,,,,,,,713.945,714.444,714.693,718.374,space,3.665,,718.374,63,12,719.373,719.373,720.056,space,0.62,,0,33,33,33,1,140,65,,,,,,,,
,,65a6598ce71a234ef2b83b31,65af56b1928510ff1336ce75,2024-01-23_01h20.12.953,bars,2023.2.3,Win32,62.5,657b66ea316d21385b68909f,,,,,,,,,,,720.06,721.055,,,721.554,721.803,,92,92,,,,,,,,,,,,,,,,bars/047.png,bars/mask002.png,,,,,,,,,,,,1,2,,,,,,,0,4,0,3,,,,,,,,,,,721.055,721.553,721.803,725.25,space,3.431,,725.25,77,22,726.249,726.249,726.982,space,0.67,,0,34,34,34,1,15,70,,,,,,,,
,,65a6598ce71a234ef2b83b31,65af56b1928510ff1336ce75,2024-01-23_01h20.12.953,bars,2023.2.3,Win32,62.5,657b66ea316d21385b68909f,,,,,,,,,,,726.984,727.981,,,728.48,728.729,,87,87,,,,,,,,,,,,,,,,bars/007.png,bars/mask002.png,,,,,,,,,,,,0,2,,,,,,,2,2,4,1,,,,,,,,,,,727.981,728.48,728.729,733.509,space,4.77,,733.51,88,32,734.508,734.508,735.076,space,0.52,,0,35,35,35,1,175,55,,,,,,,,
,,65a6598ce71a234ef2b83b31,65af56b1928510ff1336ce75,2024-01-23_01h20.12.953,bars,2023.2.3,Win32,62.5,657b66ea316d21385b68909f,,,,,,,,,,,735.078,736.073,,,736.573,736.822,,64,64,,,,,,,,,,,,,,,,bars/025.png,bars/mask001.png,,,,,,,,,,,,0,2,,,,,,,0,0,2,0,,,,,,,,,,,736.073,736.572,736.822,739.387,space,2.55,,739.387,41,24,740.384,740.385,741,space,0.579,,0,36,36,36,1,105,40,,,,,,,,
,,65a6598ce71a234ef2b83b31,65af56b1928510ff1336ce75,2024-01-23_01h20.12.953,bars,2023.2.3,Win32,62.5,657b66ea316d21385b68909f,,,,,,,,,,,741.001,742,,,742.499,742.749,,106,106,,,,,,,,,,,,,,,,bars/026.png,bars/mask000.png,,,,,,,,,,,,0,2,,,,,,,0,2,0,1,,,,,,,,,,,742,742.499,742.749,743.934,space,1.167,,743.934,71,21,744.931,744.931,745.696,space,0.714,,0,37,37,37,1,35,85,,,,,,,,
,,65a6598ce71a234ef2b83b31,65af56b1928510ff1336ce75,2024-01-23_01h20.12.953,bars,2023.2.3,Win32,62.5,657b66ea316d21385b68909f,,,,,,,,,,,745.698,746.696,,,747.196,747.445,,81,81,,,,,,,,,,,,,,,,bars/041.png,bars/mask009.png,,,,,,,,,,,,2,2,,,,,,,2,4,3,2,,,,,,,,,,,746.696,747.196,747.445,750.826,space,3.368,,750.826,61,4,751.824,751.824,752.291,space,0.41,,0,38,38,38,1,20,85,,,,,,,,
,,65a6598ce71a234ef2b83b31,65af56b1928510ff1336ce75,2024-01-23_01h20.12.953,bars,2023.2.3,Win32,62.5,657b66ea316d21385b68909f,,,,,,,,,,,752.295,753.289,,,753.789,754.038,,132,132,,,,,,,,,,,,,,,,bars/037.png,bars/mask000.png,,,,,,,,,,,,1,1,,,,,,,4,2,3,1,,,,,,,,,,,753.289,753.789,754.039,756.253,space,2.2,,756.253,18,27,757.251,757.251,757.752,space,0.439,,0,39,39,39,1,150,105,,,,,,,,
,,65a6598ce71a234ef2b83b31,65af56b1928510ff1336ce75,2024-01-23_01h20.12.953,bars,2023.2.3,Win32,62.5,657b66ea316d21385b68909f,,,,,,,,,,,757.755,758.75,,,759.249,759.5,,111,111,,,,,,,,,,,,,,,,bars/005.png,bars/mask004.png,,,,,,,,,,,,0,2,,,,,,,6,0,5,0,,,,,,,,,,,758.75,759.249,759.5,760.849,space,1.336,,760.85,79,29,761.847,761.847,762.497,space,0.619,,0,40,40,40,1,10,140,,,,,,,,
,,65a6598ce71a234ef2b83b31,65af56b1928510ff1336ce75,2024-01-23_01h20.12.953,bars,2023.2.3,Win32,62.5,657b66ea316d21385b68909f,,,,,,,,,,,762.5,763.496,,,763.996,764.245,,13,193,,,,,,,,,,,,,,,,bars/040.png,bars/mask009.png,,,,,,,,,,,,2,2,,,,,,,8,2,10,3,,,,,,,,,,,763.496,763.996,764.245,766.06,space,1.804,,766.06,53,8,767.058,767.058,767.641,space,0.549,,0,41,41,41,1,140,5,,,,,,,,
,,65a6598ce71a234ef2b83b31,65af56b1928510ff1336ce75,2024-01-23_01h20.12.953,bars,2023.2.3,Win32,62.5,657b66ea316d21385b68909f,,,,,,,,,,,767.644,768.641,,,769.14,769.39,,24,24,,,,,,,,,,,,,,,,bars/045.png,bars/mask005.png,,,,,,,,,,,,2,2,,,,,,,6,4,7,4,,,,,,,,,,,768.641,769.14,769.39,780.229,space,10.823,,780.23,76,14,781.228,781.228,781.929,space,0.648,,0,42,42,42,1,100,10,,,,,,,,
,,65a6598ce71a234ef2b83b31,65af56b1928510ff1336ce75,2024-01-23_01h20.12.953,bars,2023.2.3,Win32,62.5,657b66ea316d21385b68909f,,,,,,,,,,,781.93,782.927,,,783.426,783.676,,138,138,,,,,,,,,,,,,,,,bars/028.png,bars/mask008.png,,,,,,,,,,,,2,2,,,,,,,4,6,4,6,,,,,,,,,,,782.927,783.426,783.676,785.558,space,1.867,,785.558,87,18,786.557,786.557,787.291,space,0.709,,0,43,43,43,1,45,120,,,,,,,,
,,65a6598ce71a234ef2b83b31,65af56b1928510ff1336ce75,2024-01-23_01h20.12.953,bars,2023.2.3,Win32,62.5,657b66ea316d21385b68909f,,,,,,,,,,,787.293,788.288,,,788.788,789.038,,128,-52,,,,,,,,,,,,,,,,bars/023.png,bars/mask002.png,,,,,,,,,,,,5,2,,,,,,,6,8,5,9,,,,,,,,,,,788.288,788.788,789.038,794.2,space,5.148,,794.2,72,13,795.199,795.199,796.098,space,0.845,,0,44,44,44,1,20,115,,,,,,,,
,,65a6598ce71a234ef2b83b31,65af56b1928510ff1336ce75,2024-01-23_01h20.12.953,bars,2023.2.3,Win32,62.5,657b66ea316d21385b68909f,,,,,,,,,,,796.099,797.096,,,797.596,797.845,,2,182,,,,,,,,,,,,,,,,bars/032.png,bars/mask006.png,,,,,,,,,,,,4,2,,,,,,,8,10,7,10,,,,,,,,,,,797.096,797.596,797.845,800.01,space,2.149,,800.011,57,18,801.009,801.009,801.676,space,0.646,,0,45,45,45,1,125,20,,,,,,,,
,,65a6598ce71a234ef2b83b31,65af56b1928510ff1336ce75,2024-01-23_01h20.12.953,bars,2023.2.3,Win32,62.5,657b66ea316d21385b68909f,,,,,,,,,,,801.677,802.674,,,803.174,803.423,,155,155,,,,,,,,,,,,,,,,bars/015.png,bars/mask009.png,,,,,,,,,,,,8,2,,,,,,,6,8,5,9,,,,,,,,,,,802.674,803.174,803.424,806.938,space,3.506,,806.938,45,5,807.935,807.935,808.868,space,0.88,,0,46,46,46,1,110,160,,,,,,,,
,,65a6598ce71a234ef2b83b31,65af56b1928510ff1336ce75,2024-01-23_01h20.12.953,bars,2023.2.3,Win32,62.5,657b66ea316d21385b68909f,,,,,,,,,,,808.869,809.866,,,810.366,810.616,,57,57,,,,,,,,,,,,,,,,bars/029.png,bars/mask008.png,,,,,,,,,,,,4,2,,,,,,,4,6,3,7,,,,,,,,,,,809.867,810.366,810.616,813.616,space,2.992,,813.616,33,12,814.612,814.612,815.562,space,0.894,,0,47,47,47,1,90,45,,,,,,,,
,,65a6598ce71a234ef2b83b31,65af56b1928510ff1336ce75,2024-01-23_01h20.12.953,bars,2023.2.3,Win32,62.5,657b66ea316d21385b68909f,,,,,,,,,,,815.564,816.562,,,817.06,817.311,,132,132,,,,,,,,,,,,,,,,bars/027.png,bars/mask001.png,,,,,,,,,,,,1,1,,,,,,,6,8,3,8,,,,,,,,,,,816.562,817.06,817.311,841.123,space,23.803,,841.123,22,82,842.119,842.119,843.001,space,0.824,,0,48,48,48,1,110,50,,,,,,,,
,,65a6598ce71a234ef2b83b31,65af56b1928510ff1336ce75,2024-01-23_01h20.12.953,bars,2023.2.3,Win32,62.5,657b66ea316d21385b68909f,,,,,,,,,,,843.002,844,,,844.499,844.749,,55,55,,,,,,,,,,,,,,,,bars/029.png,bars/mask006.png,,,,,,,,,,,,7,2,,,,,,,4,10,4,10,,,,,,,,,,,844,844.499,844.749,848.713,space,3.947,,848.713,35,10,849.711,849.712,850.512,space,0.75,,0,49,49,49,1,90,45,,,,,,,,
,,65a6598ce71a234ef2b83b31,65af56b1928510ff1336ce75,2024-01-23_01h20.12.953,bars,2023.2.3,Win32,62.5,657b66ea316d21385b68909f,,,,,,,,,,,,,,,,,,,,,,,,,,,,,,,,,,,,,,,,,,,,,,,,,,,,,,,,,,,,,,,,,,,,,,,,,,,,,,,,,,,,,,,,,,,,,850.514,890.811,0,0,0,0,1,sequence_tables/blk010.csv
,,65a6598ce71a234ef2b83b31,65af56b1928510ff1336ce75,2024-01-23_01h20.12.953,bars,2023.2.3,Win32,62.5,657b66ea316d21385b68909f,,,,,,,,,,,892.001,892.986,,,893.485,893.734,,145,145,,,,,,,,,,,,,,,,bars/038.png,bars/mask001.png,,,,,,,,,,,,1,1,,,,,,,3,6,4,7,,,,,,890.835,891.97,space,1.11,,892.986,893.485,893.734,896.499,space,2.75,,896.499,20,75,897.498,897.498,897.541,,,,0,0,0,0,1,165,70,,,,,,,,
,,65a6598ce71a234ef2b83b31,65af56b1928510ff1336ce75,2024-01-23_01h20.12.953,bars,2023.2.3,Win32,62.5,657b66ea316d21385b68909f,,,,,,,,,,,897.542,898.53,,,899.033,899.279,,35,35,,,,,,,,,,,,,,,,bars/042.png,bars/mask005.png,,,,,,,,,,,,0,2,,,,,,,5,8,3,7,,,,,,,,,,,898.53,899.033,899.279,902.926,space,3.633,,902.926,70,40,903.925,903.925,903.969,,,,0,1,1,1,1,145,75,,,,,,,,
,,65a6598ce71a234ef2b83b31,65af56b1928510ff1336ce75,2024-01-23_01h20.12.953,bars,2023.2.3,Win32,62.5,657b66ea316d21385b68909f,,,,,,,,,,,903.97,904.973,,,905.474,905.724,,7,7,,,,,,,,,,,,,,,,bars/014.png,bars/mask007.png,,,,,,,,,,,,8,2,,,,,,,7,10,8,10,,,,,,,,,,,904.973,905.474,905.724,910.252,space,4.515,,910.252,73,7,911.251,911.251,911.296,,,,0,2,2,2,1,80,0,,,,,,,,
,,65a6598ce71a234ef2b83b31,65af56b1928510ff1336ce75,2024-01-23_01h20.12.953,bars,2023.2.3,Win32,62.5,657b66ea316d21385b68909f,,,,,,,,,,,911.297,912.286,,,912.783,913.033,,149,149,,,,,,,,,,,,,,,,bars/049.png,bars/mask003.png,,,,,,,,,,,,3,1,,,,,,,5,10,5,10,,,,,,,,,,,912.286,912.783,913.033,914.265,space,1.218,,914.265,11,34,915.263,915.263,915.282,,,,0,3,3,3,1,160,115,,,,,,,,
,,65a6598ce71a234ef2b83b31,65af56b1928510ff1336ce75,2024-01-23_01h20.12.953,bars,2023.2.3,Win32,62.5,657b66ea316d21385b68909f,,,,,,,,,,,915.283,916.279,,,916.779,917.028,,12,12,,,,,,,,,,,,,,,,bars/008.png,bars/mask008.png,,,,,,,,,,,,5,2,,,,,,,3,10,2,8,,,,,,,,,,,916.279,916.779,917.028,921.141,space,4.098,,921.142,82,12,922.14,922.14,922.181,,,,0,4,4,4,1,110,0,,,,,,,,
,,65a6598ce71a234ef2b83b31,65af56b1928510ff1336ce75,2024-01-23_01h20.12.953,bars,2023.2.3,Win32,62.5,657b66ea316d21385b68909f,,,,,,,,,,,922.182,923.172,,,923.672,923.922,,53,53,,,,,,,,,,,,,,,,bars/007.png,bars/mask004.png,,,,,,,,,,,,8,2,,,,,,,1,10,1,9,,,,,,,,,,,923.172,923.672,923.922,926.852,space,2.921,,926.852,58,2,927.85,927.851,927.868,,,,0,5,5,5,1,175,55,,,,,,,,
,,65a6598ce71a234ef2b83b31,65af56b1928510ff1336ce75,2024-01-23_01h20.12.953,bars,2023.2.3,Win32,62.5,657b66ea316d21385b68909f,,,,,,,,,,,927.869,928.866,,,929.365,929.615,,144,144,,,,,,,,,,,,,,,,bars/044.png,bars/mask000.png,,,,,,,,,,,,6,2,,,,,,,3,10,1,10,,,,,,,,,,,928.866,929.365,929.615,934.71,space,5.079,,934.71,69,11,935.709,935.709,935.731,,,,0,6,6,6,1,75,155,,,,,,,,
,,65a6598ce71a234ef2b83b31,65af56b1928510ff1336ce75,2024-01-23_01h20.12.953,bars,2023.2.3,Win32,62.5,657b66ea316d21385b68909f,,,,,,,,,,,935.732,936.726,,,937.225,937.474,,150,150,,,,,,,,,,,,,,,,bars/018.png,bars/mask007.png,,,,,,,,,,,,5,1,,,,,,,5,10,5,10,,,,,,,,,,,936.726,937.225,937.474,938.856,space,1.376,,938.856,0,60,939.856,939.856,939.859,,,,0,7,7,7,1,150,90,,,,,,,,
,,65a6598ce71a234ef2b83b31,65af56b1928510ff1336ce75,2024-01-23_01h20.12.953,bars,2023.2.3,Win32,62.5,657b66ea316d21385b68909f,,,,,,,,,,,939.86,940.855,,,941.354,941.604,,157,-23,,,,,,,,,,,,,,,,bars/038.png,bars/mask000.png,,,,,,,,,,,,5,1,,,,,,,7,8,7,9,,,,,,,,,,,940.855,941.354,941.604,944.935,space,3.318,,944.935,8,87,945.934,945.934,945.979,,,,0,8,8,8,1,165,70,,,,,,,,
,,65a6598ce71a234ef2b83b31,65af56b1928510ff1336ce75,2024-01-23_01h20.12.953,bars,2023.2.3,Win32,62.5,657b66ea316d21385b68909f,,,,,,,,,,,945.979,946.982,,,947.482,947.731,,164,164,,,,,,,,,,,,,,,,bars/023.png,bars/mask008.png,,,,,,,,,,,,0,1,,,,,,,5,6,7,5,,,,,,,,,,,946.982,947.481,947.731,949.447,space,1.706,,949.447,36,49,950.447,950.447,950.449,,,,0,9,9,9,1,20,115,,,,,,,,
,,65a6598ce71a234ef2b83b31,65af56b1928510ff1336ce75,2024-01-23_01h20.12.953,bars,2023.2.3,Win32,62.5,657b66ea316d21385b68909f,,,,,,,,,,,950.451,951.444,,,951.945,952.194,,153,153,,,,,,,,,,,,,,,,bars/020.png,bars/mask004.png,,,,,,,,,,,,4,2,,,,,,,7,8,7,10,,,,,,,,,,,951.445,951.945,952.194,994.937,space,42.726,,994.937,38,17,995.935,995.935,995.973,,,,0,10,10,10,1,115,170,,,,,,,,
,,65a6598ce71a234ef2b83b31,65af56b1928510ff1336ce75,2024-01-23_01h20.12.953,bars,2023.2.3,Win32,62.5,657b66ea316d21385b68909f,,,,,,,,,,,995.973,996.966,,,997.469,997.716,,150,150,,,,,,,,,,,,,,,,bars/023.png,bars/mask000.png,,,,,,,,,,,,0,2,,,,,,,9,10,8,9,,,,,,,,,,,996.966,997.469,997.716,1002.795,space,5.067,,1002.795,50,35,1003.794,1003.794,1003.847,,,,0,11,11,11,1,20,115,,,,,,,,
,,65a6598ce71a234ef2b83b31,65af56b1928510ff1336ce75,2024-01-23_01h20.12.953,bars,2023.2.3,Win32,62.5,657b66ea316d21385b68909f,,,,,,,,,,,1003.849,1004.842,,,1005.342,1005.591,,140,-40,,,,,,,,,,,,,,,,bars/043.png,bars/mask008.png,,,,,,,,,,,,7,2,,,,,,,10,10,9,10,,,,,,,,,,,1004.843,1005.342,1005.591,1008.823,space,3.216,,1008.823,70,10,1009.821,1009.821,1009.837,,,,0,12,12,12,1,30,130,,,,,,,,
,,65a6598ce71a234ef2b83b31,65af56b1928510ff1336ce75,2024-01-23_01h20.12.953,bars,2023.2.3,Win32,62.5,657b66ea316d21385b68909f,,,,,,,,,,,1009.838,1010.836,,,1011.336,1011.586,,97,97,,,,,,,,,,,,,,,,bars/039.png,bars/mask005.png,,,,,,,,,,,,6,2,,,,,,,8,8,8,8,,,,,,,,,,,1010.836,1011.336,1011.586,1041.874,space,30.275,,1041.874,78,8,1042.871,1042.871,1042.891,,,,0,13,13,13,1,175,105,,,,,,,,
,,65a6598ce71a234ef2b83b31,65af56b1928510ff1336ce75,2024-01-23_01h20.12.953,bars,2023.2.3,Win32,62.5,657b66ea316d21385b68909f,,,,,,,,,,,1042.891,1043.887,,,1044.388,1044.637,,118,118,,,,,,,,,,,,,,,,bars/004.png,bars/mask006.png,,,,,,,,,,,,8,2,,,,,,,10,10,10,10,,,,,,,,,,,1043.887,1044.388,1044.637,1048.584,space,3.932,,1048.584,87,7,1049.583,1049.583,1049.627,,,,0,14,14,14,1,25,125,,,,,,,,
,,65a6598ce71a234ef2b83b31,65af56b1928510ff1336ce75,2024-01-23_01h20.12.953,bars,2023.2.3,Win32,62.5,657b66ea316d21385b68909f,,,,,,,,,,,1049.628,1050.616,,,1051.114,1051.365,,28,28,,,,,,,,,,,,,,,,bars/045.png,bars/mask001.png,,,,,,,,,,,,4,2,,,,,,,8,10,6,10,,,,,,,,,,,1050.616,1051.114,1051.365,1056.659,space,5.282,,1056.66,72,18,1057.658,1057.658,1057.703,,,,0,15,15,15,1,100,10,,,,,,,,
,,65a6598ce71a234ef2b83b31,65af56b1928510ff1336ce75,2024-01-23_01h20.12.953,bars,2023.2.3,Win32,62.5,657b66ea316d21385b68909f,,,,,,,,,,,1057.703,1058.696,,,1059.189,1059.439,,9,9,,,,,,,,,,,,,,,,bars/012.png,bars/mask009.png,,,,,,,,,,,,7,2,,,,,,,10,10,10,9,,,,,,,,,,,1058.697,1059.189,1059.439,1061.071,space,1.619,,1061.071,81,6,1062.069,1062.069,1062.073,,,,0,16,16,16,1,90,15,,,,,,,,
,,65a6598ce71a234ef2b83b31,65af56b1928510ff1336ce75,2024-01-23_01h20.12.953,bars,2023.2.3,Win32,62.5,657b66ea316d21385b68909f,,,,,,,,,,,1062.075,1063.069,,,1063.569,1063.818,,89,89,,,,,,,,,,,,,,,,bars/042.png,bars/mask004.png,,,,,,,,,,,,5,2,,,,,,,10,10,10,10,,,,,,,,,,,1063.069,1063.569,1063.818,1068.782,space,4.95,,1068.782,56,14,1069.782,1069.782,1069.821,,,,0,17,17,17,1,145,75,,,,,,,,
,,65a6598ce71a234ef2b83b31,65af56b1928510ff1336ce75,2024-01-23_01h20.12.953,bars,2023.2.3,Win32,62.5,657b66ea316d21385b68909f,,,,,,,,,,,1069.821,1070.811,,,1071.311,1071.561,,97,97,,,,,,,,,,,,,,,,bars/021.png,bars/mask000.png,,,,,,,,,,,,1,2,,,,,,,10,10,9,10,,,,,,,,,,,1070.812,1071.311,1071.561,1075.39,space,3.816,,1075.391,58,27,1076.388,1076.388,1076.423,,,,0,18,18,18,1,155,70,,,,,,,,
,,65a6598ce71a234ef2b83b31,65af56b1928510ff1336ce75,2024-01-23_01h20.12.953,bars,2023.2.3,Win32,62.5,657b66ea316d21385b68909f,,,,,,,,,,,1076.423,1077.421,,,1077.921,1078.171,,20,200,,,,,,,,,,,,,,,,bars/014.png,bars/mask001.png,,,,,,,,,,,,3,2,,,,,,,8,8,10,8,,,,,,,,,,,1077.421,1077.921,1078.171,1080.236,space,2.052,,1080.236,60,20,1081.235,1081.235,1081.274,,,,0,19,19,19,1,80,0,,,,,,,,
,,65a6598ce71a234ef2b83b31,65af56b1928510ff1336ce75,2024-01-23_01h20.12.953,bars,2023.2.3,Win32,62.5,657b66ea316d21385b68909f,,,,,,,,,,,1081.274,1082.267,,,1082.767,1083.017,,146,-34,,,,,,,,,,,,,,,,bars/005.png,bars/mask003.png,,,,,,,,,,,,4,2,,,,,,,10,6,10,5,,,,,,,,,,,1082.268,1082.767,1083.017,1086.465,space,3.43,,1086.465,44,6,1087.462,1087.462,1087.507,,,,0,20,20,20,1,10,140,,,,,,,,
,,65a6598ce71a234ef2b83b31,65af56b1928510ff1336ce75,2024-01-23_01h20.12.953,bars,2023.2.3,Win32,62.5,657b66ea316d21385b68909f,,,,,,,,,,,1087.508,1088.511,,,1089.01,1089.26,,100,100,,,,,,,,,,,,,,,,bars/006.png,bars/mask008.png,,,,,,,,,,,,5,2,,,,,,,10,4,10,5,,,,,,,,,,,1088.511,1089.01,1089.26,1091.957,space,2.68,,1091.957,65,0,1092.957,1092.957,1092.96,,,,0,21,21,21,1,35,100,,,,,,,,
,,65a6598ce71a234ef2b83b31,65af56b1928510ff1336ce75,2024-01-23_01h20.12.953,bars,2023.2.3,Win32,62.5,657b66ea316d21385b68909f,,,,,,,,,,,1092.961,1093.956,,,1094.455,1094.704,,96,96,,,,,,,,,,,,,,,,bars/042.png,bars/mask003.png,,,,,,,,,,,,0,2,,,,,,,8,2,9,0,,,,,,,,,,,1093.956,1094.455,1094.705,1098.055,space,3.335,,1098.056,49,21,1099.05,1099.05,1099.086,,,,0,22,22,22,1,145,75,,,,,,,,
,,65a6598ce71a234ef2b83b31,65af56b1928510ff1336ce75,2024-01-23_01h20.12.953,bars,2023.2.3,Win32,62.5,657b66ea316d21385b68909f,,,,,,,,,,,1099.087,1100.082,,,1100.583,1100.835,,171,-9,,,,,,,,,,,,,,,,bars/013.png,bars/mask005.png,,,,,,,,,,,,1,2,,,,,,,6,4,6,3,,,,,,,,,,,1100.082,1100.583,1100.835,1103.58,space,2.732,,1103.58,84,19,1104.578,1104.578,1104.614,,,,0,23,23,23,1,75,10,,,,,,,,
,,65a6598ce71a234ef2b83b31,65af56b1928510ff1336ce75,2024-01-23_01h20.12.953,bars,2023.2.3,Win32,62.5,657b66ea316d21385b68909f,,,,,,,,,,,1104.616,1105.611,,,1106.11,1106.36,,139,139,,,,,,,,,,,,,,,,bars/044.png,bars/mask008.png,,,,,,,,,,,,3,2,,,,,,,8,6,8,6,,,,,,,,,,,1105.611,1106.11,1106.36,1130.088,space,23.718,,1130.088,64,16,1131.086,1131.087,1131.128,,,,0,24,24,24,1,75,155,,,,,,,,
,,65a6598ce71a234ef2b83b31,65af56b1928510ff1336ce75,2024-01-23_01h20.12.953,bars,2023.2.3,Win32,62.5,657b66ea316d21385b68909f,,,,,,,,,,,1131.128,1132.118,,,1132.618,1132.868,,89,89,,,,,,,,,,,,,,,,bars/039.png,bars/mask001.png,,,,,,,,,,,,2,2,,,,,,,10,4,10,5,,,,,,,,,,,1132.118,1132.617,1132.868,1135.764,space,2.882,,1135.764,86,16,1136.764,1136.764,1136.799,,,,0,25,25,25,1,175,105,,,,,,,,
,,65a6598ce71a234ef2b83b31,65af56b1928510ff1336ce75,2024-01-23_01h20.12.953,bars,2023.2.3,Win32,62.5,657b66ea316d21385b68909f,,,,,,,,,,,1136.801,1137.795,,,1138.295,1138.545,,149,149,,,,,,,,,,,,,,,,bars/044.png,bars/mask008.png,,,,,,,,,,,,2,2,,,,,,,10,2,10,2,,,,,,,,,,,1137.795,1138.295,1138.545,1141.06,space,2.508,,1141.06,74,6,1142.057,1142.057,1142.075,,,,0,26,26,26,1,75,155,,,,,,,,
,,65a6598ce71a234ef2b83b31,65af56b1928510ff1336ce75,2024-01-23_01h20.12.953,bars,2023.2.3,Win32,62.5,657b66ea316d21385b68909f,,,,,,,,,,,1142.076,1143.078,,,1143.573,1143.822,,29,209,,,,,,,,,,,,,,,,bars/029.png,bars/mask004.png,,,,,,,,,,,,2,2,,,,,,,8,4,7,4,,,,,,,,,,,1143.079,1143.573,1143.823,1147.004,space,3.169,,1147.004,61,16,1148.003,1148.003,1148.045,,,,0,27,27,27,1,90,45,,,,,,,,
,,65a6598ce71a234ef2b83b31,65af56b1928510ff1336ce75,2024-01-23_01h20.12.953,bars,2023.2.3,Win32,62.5,657b66ea316d21385b68909f,,,,,,,,,,,1148.045,1149.035,,,1149.534,1149.783,,44,224,,,,,,,,,,,,,,,,bars/029.png,bars/mask000.png,,,,,,,,,,,,7,2,,,,,,,6,6,4,7,,,,,,,,,,,1149.035,1149.534,1149.784,1153.699,space,3.905,,1153.699,46,1,1154.695,1154.695,1154.729,,,,0,28,28,28,1,90,45,,,,,,,,
,,65a6598ce71a234ef2b83b31,65af56b1928510ff1336ce75,2024-01-23_01h20.12.953,bars,2023.2.3,Win32,62.5,657b66ea316d21385b68909f,,,,,,,,,,,1154.73,1155.728,,,1156.228,1156.477,,4,184,,,,,,,,,,,,,,,,bars/014.png,bars/mask004.png,,,,,,,,,,,,3,2,,,,,,,4,4,3,4,,,,,,,,,,,1155.728,1156.227,1156.477,1161.49,space,5,,1161.49,76,4,1162.488,1162.488,1162.518,,,,0,29,29,29,1,80,0,,,,,,,,
,,65a6598ce71a234ef2b83b31,65af56b1928510ff1336ce75,2024-01-23_01h20.12.953,bars,2023.2.3,Win32,62.5,657b66ea316d21385b68909f,,,,,,,,,,,1162.519,1163.52,,,1164.02,1164.272,,147,147,,,,,,,,,,,,,,,,bars/044.png,bars/mask001.png,,,,,,,,,,,,2,2,,,,,,,6,2,6,3,,,,,,,,,,,1163.52,1164.02,1164.272,1167.783,space,3.496,,1167.783,72,8,1168.781,1168.781,1168.822,,,,0,30,30,30,1,75,155,,,,,,,,
,,65a6598ce71a234ef2b83b31,65af56b1928510ff1336ce75,2024-01-23_01h20.12.953,bars,2023.2.3,Win32,62.5,657b66ea316d21385b68909f,,,,,,,,,,,1168.824,1169.814,,,1170.315,1170.564,,145,145,,,,,,,,,,,,,,,,bars/043.png,bars/mask000.png,,,,,,,,,,,,0,2,,,,,,,4,0,5,0,,,,,,,,,,,1169.814,1170.313,1170.564,1172.013,space,1.433,,1172.014,65,15,1173.011,1173.012,1173.015,,,,0,31,31,31,1,30,130,,,,,,,,
,,65a6598ce71a234ef2b83b31,65af56b1928510ff1336ce75,2024-01-23_01h20.12.953,bars,2023.2.3,Win32,62.5,657b66ea316d21385b68909f,,,,,,,,,,,1173.015,1174.01,,,1174.51,1174.759,,82,82,,,,,,,,,,,,,,,,bars/007.png,bars/mask001.png,,,,,,,,,,,,0,2,,,,,,,6,2,6,2,,,,,,,,,,,1174.01,1174.51,1174.759,1176.026,space,1.249,,1176.026,87,27,1177.024,1177.024,1177.025,,,,0,32,32,32,1,175,55,,,,,,,,
,,65a6598ce71a234ef2b83b31,65af56b1928510ff1336ce75,2024-01-23_01h20.12.953,bars,2023.2.3,Win32,62.5,657b66ea316d21385b68909f,,,,,,,,,,,1177.027,1178.023,,,1178.523,1178.772,,161,161,,,,,,,,,,,,,,,,bars/036.png,bars/mask004.png,,,,,,,,,,,,5,1,,,,,,,8,4,10,5,,,,,,,,,,,1178.023,1178.522,1178.772,1182.136,space,3.354,,1182.136,16,39,1183.134,1183.135,1183.18,,,,0,33,33,33,1,145,20,,,,,,,,
,,65a6598ce71a234ef2b83b31,65af56b1928510ff1336ce75,2024-01-23_01h20.12.953,bars,2023.2.3,Win32,62.5,657b66ea316d21385b68909f,,,,,,,,,,,1183.18,1184.185,,,1184.683,1184.933,,148,148,,,,,,,,,,,,,,,,bars/030.png,bars/mask000.png,,,,,,,,,,,,6,1,,,,,,,10,6,8,5,,,,,,,,,,,1184.185,1184.683,1184.933,1187.748,space,2.797,,1187.748,8,83,1188.746,1188.746,1188.781,,,,0,34,34,34,1,140,65,,,,,,,,
,,65a6598ce71a234ef2b83b31,65af56b1928510ff1336ce75,2024-01-23_01h20.12.953,bars,2023.2.3,Win32,62.5,657b66ea316d21385b68909f,,,,,,,,,,,1188.782,1189.778,,,1190.277,1190.527,,156,156,,,,,,,,,,,,,,,,bars/042.png,bars/mask000.png,,,,,,,,,,,,6,1,,,,,,,10,8,10,8,,,,,,,,,,,1189.778,1190.277,1190.527,1191.576,space,1.034,,1191.576,11,81,1192.575,1192.575,1192.578,,,,0,35,35,35,1,145,75,,,,,,,,
,,65a6598ce71a234ef2b83b31,65af56b1928510ff1336ce75,2024-01-23_01h20.12.953,bars,2023.2.3,Win32,62.5,657b66ea316d21385b68909f,,,,,,,,,,,1192.579,1193.574,,,1194.073,1194.323,,139,-41,,,,,,,,,,,,,,,,bars/040.png,bars/mask005.png,,,,,,,,,,,,8,1,,,,,,,8,10,8,10,,,,,,,,,,,1193.574,1194.073,1194.323,1197.954,space,3.615,,1197.954,1,46,1198.953,1198.953,1198.992,,,,0,36,36,36,1,140,5,,,,,,,,
,,65a6598ce71a234ef2b83b31,65af56b1928510ff1336ce75,2024-01-23_01h20.12.953,bars,2023.2.3,Win32,62.5,657b66ea316d21385b68909f,,,,,,,,,,,1198.993,1199.985,,,1200.486,1200.734,,134,134,,,,,,,,,,,,,,,,bars/005.png,bars/mask002.png,,,,,,,,,,,,7,2,,,,,,,6,10,5,9,,,,,,,,,,,1199.985,1200.486,1200.734,1204.065,space,3.32,,1204.065,56,6,1205.064,1205.065,1205.1,,,,0,37,37,37,1,10,140,,,,,,,,
,,65a6598ce71a234ef2b83b31,65af56b1928510ff1336ce75,2024-01-23_01h20.12.953,bars,2023.2.3,Win32,62.5,657b66ea316d21385b68909f,,,,,,,,,,,1205.1,1206.096,,,1206.595,1206.844,,84,84,,,,,,,,,,,,,,,,bars/019.png,bars/mask007.png,,,,,,,,,,,,2,2,,,,,,,4,8,4,8,,,,,,,,,,,1206.096,1206.595,1206.844,1211.458,space,4.599,,1211.459,39,21,1212.456,1212.456,1212.499,,,,0,38,38,38,1,45,105,,,,,,,,
,,65a6598ce71a234ef2b83b31,65af56b1928510ff1336ce75,2024-01-23_01h20.12.953,bars,2023.2.3,Win32,62.5,657b66ea316d21385b68909f,,,,,,,,,,,1212.499,1213.487,,,1213.988,1214.237,,125,125,,,,,,,,,,,,,,,,bars/024.png,bars/mask008.png,,,,,,,,,,,,2,1,,,,,,,2,6,2,5,,,,,,,,,,,1213.487,1213.988,1214.237,1215.852,space,1.604,,1215.852,5,45,1216.851,1216.851,1216.856,,,,0,39,39,39,1,120,170,,,,,,,,
,,65a6598ce71a234ef2b83b31,65af56b1928510ff1336ce75,2024-01-23_01h20.12.953,bars,2023.2.3,Win32,62.5,657b66ea316d21385b68909f,,,,,,,,,,,1216.857,1217.85,,,1218.35,1218.599,,45,45,,,,,,,,,,,,,,,,bars/029.png,bars/mask003.png,,,,,,,,,,,,7,2,,,,,,,4,8,5,7,,,,,,,,,,,1217.85,1218.35,1218.599,1224.578,space,5.967,,1224.578,45,0,1225.576,1225.576,1225.615,,,,0,40,40,40,1,90,45,,,,,,,,
,,65a6598ce71a234ef2b83b31,65af56b1928510ff1336ce75,2024-01-23_01h20.12.953,bars,2023.2.3,Win32,62.5,657b66ea316d21385b68909f,,,,,,,,,,,1225.616,1226.608,,,1227.107,1227.358,,81,81,,,,,,,,,,,,,,,,bars/011.png,bars/mask006.png,,,,,,,,,,,,4,2,,,,,,,2,6,2,5,,,,,,,,,,,1226.608,1227.107,1227.358,1230.555,space,3.184,,1230.556,79,4,1231.554,1231.554,1231.586,,,,0,41,41,41,1,160,85,,,,,,,,
,,65a6598ce71a234ef2b83b31,65af56b1928510ff1336ce75,2024-01-23_01h20.12.953,bars,2023.2.3,Win32,62.5,657b66ea316d21385b68909f,,,,,,,,,,,1231.587,1232.586,,,1233.085,1233.335,,157,157,,,,,,,,,,,,,,,,bars/048.png,bars/mask005.png,,,,,,,,,,,,1,2,,,,,,,0,4,0,3,,,,,,,,,,,1232.586,1233.085,1233.335,1235.717,space,2.37,,1235.718,73,18,1236.714,1236.715,1236.736,,,,0,42,42,42,1,50,175,,,,,,,,
,,65a6598ce71a234ef2b83b31,65af56b1928510ff1336ce75,2024-01-23_01h20.12.953,bars,2023.2.3,Win32,62.5,657b66ea316d21385b68909f,,,,,,,,,,,1236.736,1237.73,,,1238.23,1238.484,,121,121,,,,,,,,,,,,,,,,bars/017.png,bars/mask006.png,,,,,,,,,,,,0,1,,,,,,,2,2,1,3,,,,,,,,,,,1237.73,1238.23,1238.484,1243.211,space,4.709,,1243.211,24,76,1244.208,1244.208,1244.246,,,,0,43,43,43,1,145,45,,,,,,,,
,,65a6598ce71a234ef2b83b31,65af56b1928510ff1336ce75,2024-01-23_01h20.12.953,bars,2023.2.3,Win32,62.5,657b66ea316d21385b68909f,,,,,,,,,,,1244.247,1245.24,,,1245.74,1245.989,,90,90,,,,,,,,,,,,,,,,bars/038.png,bars/mask004.png,,,,,,,,,,,,1,2,,,,,,,4,4,5,4,,,,,,,,,,,1245.24,1245.74,1245.989,1251.218,space,5.215,,1251.218,75,20,1252.219,1252.219,1252.264,,,,0,44,44,44,1,165,70,,,,,,,,
,,65a6598ce71a234ef2b83b31,65af56b1928510ff1336ce75,2024-01-23_01h20.12.953,bars,2023.2.3,Win32,62.5,657b66ea316d21385b68909f,,,,,,,,,,,1252.265,1253.266,,,1253.765,1254.015,,56,236,,,,,,,,,,,,,,,,bars/017.png,bars/mask004.png,,,,,,,,,,,,1,2,,,,,,,6,2,5,2,,,,,,,,,,,1253.266,1253.765,1254.016,1259.776,space,5.747,,1259.776,89,11,1260.775,1260.775,1260.816,,,,0,45,45,45,1,145,45,,,,,,,,
,,65a6598ce71a234ef2b83b31,65af56b1928510ff1336ce75,2024-01-23_01h20.12.953,bars,2023.2.3,Win32,62.5,657b66ea316d21385b68909f,,,,,,,,,,,1260.817,1261.808,,,1262.307,1262.556,,141,141,,,,,,,,,,,,,,,,bars/043.png,bars/mask006.png,,,,,,,,,,,,1,2,,,,,,,4,4,5,2,,,,,,,,,,,1261.808,1262.307,1262.557,1265.438,space,2.867,,1265.438,69,11,1266.436,1266.436,1266.472,,,,0,46,46,46,1,30,130,,,,,,,,
,,65a6598ce71a234ef2b83b31,65af56b1928510ff1336ce75,2024-01-23_01h20.12.953,bars,2023.2.3,Win32,62.5,657b66ea316d21385b68909f,,,,,,,,,,,1266.473,1267.469,,,1267.969,1268.218,,131,131,,,,,,,,,,,,,,,,bars/009.png,bars/mask006.png,,,,,,,,,,,,0,2,,,,,,,6,2,7,2,,,,,,,,,,,1267.469,1267.968,1268.218,1270.337,space,2.111,,1270.337,64,26,1271.332,1271.332,1271.335,,,,0,47,47,47,1,15,105,,,,,,,,
,,65a6598ce71a234ef2b83b31,65af56b1928510ff1336ce75,2024-01-23_01h20.12.953,bars,2023.2.3,Win32,62.5,657b66ea316d21385b68909f,,,,,,,,,,,1271.336,1272.331,,,1272.83,1273.082,,168,168,,,,,,,,,,,,,,,,bars/033.png,bars/mask009.png,,,,,,,,,,,,2,2,,,,,,,4,4,3,3,,,,,,,,,,,1272.331,1272.83,1273.082,1274.995,space,1.901,,1274.995,37,13,1275.994,1275.994,1276.03,,,,0,48,48,48,1,25,155,,,,,,,,
,,65a6598ce71a234ef2b83b31,65af56b1928510ff1336ce75,2024-01-23_01h20.12.953,bars,2023.2.3,Win32,62.5,657b66ea316d21385b68909f,,,,,,,,,,,1276.032,1277.027,,,1277.525,1277.775,,141,141,,,,,,,,,,,,,,,,bars/017.png,bars/mask008.png,,,,,,,,,,,,1,1,,,,,,,2,2,1,2,,,,,,,,,,,1277.027,1277.525,1277.775,1282.306,space,4.523,,1282.306,4,84,1283.303,1283.303,1283.348,,,,0,49,49,49,1,145,45,,,,,,,,
,,65a6598ce71a234ef2b83b31,65af56b1928510ff1336ce75,2024-01-23_01h20.12.953,bars,2023.2.3,Win32,62.5,657b66ea316d21385b68909f,,,,,,,,,,,,,,,,,,,,,,,,,,,,,,,,,,,,,,,,,,,,,,,,,,,,,,,,,,,,,,,,,,,,,,,,,,,,,,,,,,,,,,,,,,,,,1283.349,1334.635,0,1,1,2,1,sequence_tables/blk020.csv
,,65a6598ce71a234ef2b83b31,65af56b1928510ff1336ce75,2024-01-23_01h20.12.953,bars,2023.2.3,Win32,62.5,657b66ea316d21385b68909f,,,,,,,,,,,1335.947,1336.934,,,1337.434,1337.683,,147,147,,,,,,,,,,,,,,,,bars/015.png,bars/mask003.png,,,,,,,,,,,,2,2,,,,,,,7,3,7,3,,,,,,1334.66,1335.919,space,1.226,,1336.934,1337.434,1337.684,1339.414,space,1.714,,1339.415,37,13,1340.414,1340.414,1340.42,,,,0,0,0,0,1,110,160,,,,,,,,
,,65a6598ce71a234ef2b83b31,65af56b1928510ff1336ce75,2024-01-23_01h20.12.953,bars,2023.2.3,Win32,62.5,657b66ea316d21385b68909f,,,,,,,,,,,1340.421,1341.412,,,1341.916,1342.162,,148,148,,,,,,,,,,,,,,,,bars/007.png,bars/mask006.png,,,,,,,,,,,,1,1,,,,,,,5,1,7,0,,,,,,,,,,,1341.412,1341.916,1342.162,1346.008,space,3.829,,1346.008,27,87,1347.007,1347.007,1347.046,,,,0,1,1,1,1,175,55,,,,,,,,
,,65a6598ce71a234ef2b83b31,65af56b1928510ff1336ce75,2024-01-23_01h20.12.953,bars,2023.2.3,Win32,62.5,657b66ea316d21385b68909f,,,,,,,,,,,1347.046,1348.04,,,1348.54,1348.788,,102,102,,,,,,,,,,,,,,,,bars/034.png,bars/mask005.png,,,,,,,,,,,,1,1,,,,,,,7,3,4,2,,,,,,,,,,,1348.04,1348.539,1348.789,1351.572,space,2.773,,1351.573,23,37,1352.568,1352.568,1352.615,,,,0,2,2,2,1,125,65,,,,,,,,
,,65a6598ce71a234ef2b83b31,65af56b1928510ff1336ce75,2024-01-23_01h20.12.953,bars,2023.2.3,Win32,62.5,657b66ea316d21385b68909f,,,,,,,,,,,1352.615,1353.617,,,1354.117,1354.366,,103,103,,,,,,,,,,,,,,,,bars/001.png,bars/mask000.png,,,,,,,,,,,,2,2,,,,,,,9,5,10,5,,,,,,,,,,,1353.618,1354.117,1354.367,1356.982,space,2.602,,1356.982,27,18,1357.98,1357.98,1358.027,,,,0,3,3,3,1,130,85,,,,,,,,
,,65a6598ce71a234ef2b83b31,65af56b1928510ff1336ce75,2024-01-23_01h20.12.953,bars,2023.2.3,Win32,62.5,657b66ea316d21385b68909f,,,,,,,,,,,1358.028,1359.029,,,1359.529,1359.778,,153,-27,,,,,,,,,,,,,,,,bars/035.png,bars/mask006.png,,,,,,,,,,,,3,1,,,,,,,10,7,10,6,,,,,,,,,,,1359.029,1359.528,1359.781,1364.164,space,4.375,,1364.164,22,87,1365.156,1365.156,1365.201,,,,0,4,4,4,1,175,60,,,,,,,,
,,65a6598ce71a234ef2b83b31,65af56b1928510ff1336ce75,2024-01-23_01h20.12.953,bars,2023.2.3,Win32,62.5,657b66ea316d21385b68909f,,,,,,,,,,,1365.202,1366.204,,,1366.705,1366.954,,164,164,,,,,,,,,,,,,,,,bars/035.png,bars/mask001.png,,,,,,,,,,,,6,1,,,,,,,10,5,10,5,,,,,,,,,,,1366.205,1366.705,1366.954,1370.118,space,3.153,,1370.118,11,76,1371.117,1371.117,1371.156,,,,0,5,5,5,1,175,60,,,,,,,,
,,65a6598ce71a234ef2b83b31,65af56b1928510ff1336ce75,2024-01-23_01h20.12.953,bars,2023.2.3,Win32,62.5,657b66ea316d21385b68909f,,,,,,,,,,,1371.158,1372.151,,,1372.649,1372.899,,107,107,,,,,,,,,,,,,,,,bars/041.png,bars/mask000.png,,,,,,,,,,,,2,2,,,,,,,10,7,10,7,,,,,,,,,,,1372.151,1372.649,1372.899,1376.047,space,3.131,,1376.047,87,22,1377.046,1377.046,1377.083,,,,0,6,6,6,1,20,85,,,,,,,,
,,65a6598ce71a234ef2b83b31,65af56b1928510ff1336ce75,2024-01-23_01h20.12.953,bars,2023.2.3,Win32,62.5,657b66ea316d21385b68909f,,,,,,,,,,,1377.084,1378.076,,,1378.576,1378.826,,99,99,,,,,,,,,,,,,,,,bars/026.png,bars/mask002.png,,,,,,,,,,,,3,2,,,,,,,8,5,8,6,,,,,,,,,,,1378.076,1378.576,1378.826,1381.14,space,2.298,,1381.14,64,14,1382.14,1382.14,1382.177,,,,0,7,7,7,1,35,85,,,,,,,,
,,65a6598ce71a234ef2b83b31,65af56b1928510ff1336ce75,2024-01-23_01h20.12.953,bars,2023.2.3,Win32,62.5,657b66ea316d21385b68909f,,,,,,,,,,,1382.178,1383.171,,,1383.672,1383.921,,151,-29,,,,,,,,,,,,,,,,bars/004.png,bars/mask002.png,,,,,,,,,,,,1,2,,,,,,,6,7,4,7,,,,,,,,,,,1383.171,1383.672,1383.921,1388.184,space,4.246,,1388.184,54,26,1389.182,1389.182,1389.216,,,,0,8,8,8,1,25,125,,,,,,,,
,,65a6598ce71a234ef2b83b31,65af56b1928510ff1336ce75,2024-01-23_01h20.12.953,bars,2023.2.3,Win32,62.5,657b66ea316d21385b68909f,,,,,,,,,,,1389.217,1390.215,,,1390.714,1390.964,,142,142,,,,,,,,,,,,,,,,bars/004.png,bars/mask007.png,,,,,,,,,,,,4,2,,,,,,,4,9,4,9,,,,,,,,,,,1390.215,1390.714,1390.964,1393.398,space,2.423,,1393.399,63,17,1394.394,1394.394,1394.428,,,,0,9,9,9,1,25,125,,,,,,,,
,,65a6598ce71a234ef2b83b31,65af56b1928510ff1336ce75,2024-01-23_01h20.12.953,bars,2023.2.3,Win32,62.5,657b66ea316d21385b68909f,,,,,,,,,,,1394.429,1395.427,,,1395.926,1396.175,,108,108,,,,,,,,,,,,,,,,bars/026.png,bars/mask001.png,,,,,,,,,,,,1,2,,,,,,,2,7,3,5,,,,,,,,,,,1395.427,1395.926,1396.175,1398.541,space,2.354,,1398.542,73,23,1399.539,1399.54,1399.581,,,,0,10,10,10,1,35,85,,,,,,,,
,,65a6598ce71a234ef2b83b31,65af56b1928510ff1336ce75,2024-01-23_01h20.12.953,bars,2023.2.3,Win32,62.5,657b66ea316d21385b68909f,,,,,,,,,,,1399.583,1400.571,,,1401.073,1401.32,,129,129,,,,,,,,,,,,,,,,bars/049.png,bars/mask001.png,,,,,,,,,,,,3,2,,,,,,,0,5,0,6,,,,,,,,,,,1400.572,1401.073,1401.32,1404.551,space,3.215,,1404.551,31,14,1405.549,1405.549,1405.588,,,,0,11,11,11,1,160,115,,,,,,,,
,,65a6598ce71a234ef2b83b31,65af56b1928510ff1336ce75,2024-01-23_01h20.12.953,bars,2023.2.3,Win32,62.5,657b66ea316d21385b68909f,,,,,,,,,,,1405.588,1406.582,,,1407.082,1407.331,,94,94,,,,,,,,,,,,,,,,bars/011.png,bars/mask007.png,,,,,,,,,,,,1,2,,,,,,,0,3,1,2,,,,,,,,,,,1406.582,1407.081,1407.331,1409.796,space,2.444,,1409.796,66,9,1410.795,1410.795,1410.799,,,,0,12,12,12,1,160,85,,,,,,,,
,,65a6598ce71a234ef2b83b31,65af56b1928510ff1336ce75,2024-01-23_01h20.12.953,bars,2023.2.3,Win32,62.5,657b66ea316d21385b68909f,,,,,,,,,,,1410.801,1411.794,,,1412.293,1412.543,,98,98,,,,,,,,,,,,,,,,bars/002.png,bars/mask002.png,,,,,,,,,,,,1,2,,,,,,,0,1,0,1,,,,,,,,,,,1411.794,1412.293,1412.543,1416.006,space,3.446,,1416.006,32,13,1417.007,1417.007,1417.04,,,,0,13,13,13,1,130,85,,,,,,,,
,,65a6598ce71a234ef2b83b31,65af56b1928510ff1336ce75,2024-01-23_01h20.12.953,bars,2023.2.3,Win32,62.5,657b66ea316d21385b68909f,,,,,,,,,,,1417.041,1418.037,,,1418.536,1418.787,,0,0,,,,,,,,,,,,,,,,bars/013.png,bars/mask003.png,,,,,,,,,,,,3,2,,,,,,,2,3,4,4,,,,,,,,,,,1418.038,1418.536,1418.787,1422.45,space,3.648,,1422.45,75,10,1423.449,1423.449,1423.488,,,,0,14,14,14,1,75,10,,,,,,,,
,,65a6598ce71a234ef2b83b31,65af56b1928510ff1336ce75,2024-01-23_01h20.12.953,bars,2023.2.3,Win32,62.5,657b66ea316d21385b68909f,,,,,,,,,,,1423.488,1424.481,,,1424.981,1425.23,,16,16,,,,,,,,,,,,,,,,bars/045.png,bars/mask003.png,,,,,,,,,,,,4,2,,,,,,,4,5,4,5,,,,,,,,,,,1424.481,1424.98,1425.23,1427.761,space,2.517,,1427.761,84,6,1428.76,1428.76,1428.765,,,,0,15,15,15,1,100,10,,,,,,,,
,,65a6598ce71a234ef2b83b31,65af56b1928510ff1336ce75,2024-01-23_01h20.12.953,bars,2023.2.3,Win32,62.5,657b66ea316d21385b68909f,,,,,,,,,,,1428.767,1429.759,,,1430.259,1430.509,,168,-12,,,,,,,,,,,,,,,,bars/010.png,bars/mask001.png,,,,,,,,,,,,4,1,,,,,,,6,7,4,6,,,,,,,,,,,1429.759,1430.259,1430.509,1432.357,space,1.837,,1432.358,3,67,1433.356,1433.356,1433.392,,,,0,16,16,16,1,165,55,,,,,,,,
,,65a6598ce71a234ef2b83b31,65af56b1928510ff1336ce75,2024-01-23_01h20.12.953,bars,2023.2.3,Win32,62.5,657b66ea316d21385b68909f,,,,,,,,,,,1433.393,1434.388,,,1434.888,1435.137,,171,-9,,,,,,,,,,,,,,,,bars/021.png,bars/mask001.png,,,,,,,,,,,,2,1,,,,,,,4,5,5,5,,,,,,,,,,,1434.388,1434.888,1435.137,1437.336,space,2.185,,1437.336,16,79,1438.334,1438.334,1438.375,,,,0,17,17,17,1,155,70,,,,,,,,
,,65a6598ce71a234ef2b83b31,65af56b1928510ff1336ce75,2024-01-23_01h20.12.953,bars,2023.2.3,Win32,62.5,657b66ea316d21385b68909f,,,,,,,,,,,1438.375,1439.366,,,1439.865,1440.116,,145,-35,,,,,,,,,,,,,,,,bars/019.png,bars/mask009.png,,,,,,,,,,,,0,2,,,,,,,6,3,5,3,,,,,,,,,,,1439.366,1439.865,1440.116,1443.847,space,3.722,,1443.847,80,40,1444.849,1444.849,1444.886,,,,0,18,18,18,1,45,105,,,,,,,,
,,65a6598ce71a234ef2b83b31,65af56b1928510ff1336ce75,2024-01-23_01h20.12.953,bars,2023.2.3,Win32,62.5,657b66ea316d21385b68909f,,,,,,,,,,,1444.886,1445.877,,,1446.377,1446.626,,8,188,,,,,,,,,,,,,,,,bars/008.png,bars/mask007.png,,,,,,,,,,,,0,2,,,,,,,4,1,5,0,,,,,,,,,,,1445.877,1446.377,1446.627,1448.309,space,1.669,,1448.309,78,8,1449.308,1449.308,1449.351,,,,0,19,19,19,1,110,0,,,,,,,,
,,65a6598ce71a234ef2b83b31,65af56b1928510ff1336ce75,2024-01-23_01h20.12.953,bars,2023.2.3,Win32,62.5,657b66ea316d21385b68909f,,,,,,,,,,,1449.352,1450.356,,,1450.855,1451.105,,1,1,,,,,,,,,,,,,,,,bars/012.png,bars/mask005.png,,,,,,,,,,,,2,2,,,,,,,2,3,2,3,,,,,,,,,,,1450.356,1450.855,1451.105,1452.903,space,1.782,,1452.903,89,14,1453.902,1453.902,1453.936,,,,0,20,20,20,1,90,15,,,,,,,,
,,65a6598ce71a234ef2b83b31,65af56b1928510ff1336ce75,2024-01-23_01h20.12.953,bars,2023.2.3,Win32,62.5,657b66ea316d21385b68909f,,,,,,,,,,,1453.937,1454.934,,,1455.434,1455.684,,109,109,,,,,,,,,,,,,,,,bars/039.png,bars/mask002.png,,,,,,,,,,,,3,2,,,,,,,4,5,4,4,,,,,,,,,,,1454.934,1455.434,1455.684,1458.381,space,2.683,,1458.382,66,4,1459.38,1459.38,1459.413,,,,0,21,21,21,1,175,105,,,,,,,,
,,65a6598ce71a234ef2b83b31,65af56b1928510ff1336ce75,2024-01-23_01h20.12.953,bars,2023.2.3,Win32,62.5,657b66ea316d21385b68909f,,,,,,,,,,,1459.414,1460.413,,,1460.912,1461.163,,1,181,,,,,,,,,,,,,,,,bars/008.png,bars/mask007.png,,,,,,,,,,,,2,2,,,,,,,2,3,3,2,,,,,,,,,,,1460.413,1460.912,1461.163,1466.177,space,5.005,,1466.177,71,1,1467.173,1467.174,1467.215,,,,0,22,22,22,1,110,0,,,,,,,,
,,65a6598ce71a234ef2b83b31,65af56b1928510ff1336ce75,2024-01-23_01h20.12.953,bars,2023.2.3,Win32,62.5,657b66ea316d21385b68909f,,,,,,,,,,,1467.216,1468.205,,,1468.703,1468.954,,5,5,,,,,,,,,,,,,,,,bars/013.png,bars/mask001.png,,,,,,,,,,,,0,2,,,,,,,0,1,1,0,,,,,,,,,,,1468.205,1468.703,1468.954,1473.135,space,4.168,,1473.135,70,5,1474.132,1474.133,1474.174,,,,0,23,23,23,1,75,10,,,,,,,,
,,65a6598ce71a234ef2b83b31,65af56b1928510ff1336ce75,2024-01-23_01h20.12.953,bars,2023.2.3,Win32,62.5,657b66ea316d21385b68909f,,,,,,,,,,,1474.175,1475.165,,,1475.664,1475.914,,93,93,,,,,,,,,,,,,,,,bars/021.png,bars/mask002.png,,,,,,,,,,,,0,2,,,,,,,0,0,0,1,,,,,,,,,,,1475.165,1475.664,1475.914,1478.212,space,2.283,,1478.212,62,23,1479.211,1479.211,1479.245,,,,0,24,24,24,1,155,70,,,,,,,,
,,65a6598ce71a234ef2b83b31,65af56b1928510ff1336ce75,2024-01-23_01h20.12.953,bars,2023.2.3,Win32,62.5,657b66ea316d21385b68909f,,,,,,,,,,,1479.246,1480.242,,,1480.742,1480.992,,10,190,,,,,,,,,,,,,,,,bars/022.png,bars/mask000.png,,,,,,,,,,,,1,2,,,,,,,0,0,0,1,,,,,,,,,,,1480.243,1480.742,1480.992,1484.842,space,3.84,,1484.842,85,10,1485.838,1485.838,1485.881,,,,0,25,25,25,1,95,20,,,,,,,,
,,65a6598ce71a234ef2b83b31,65af56b1928510ff1336ce75,2024-01-23_01h20.12.953,bars,2023.2.3,Win32,62.5,657b66ea316d21385b68909f,,,,,,,,,,,1485.881,1486.87,,,1487.369,1487.619,,149,149,,,,,,,,,,,,,,,,bars/015.png,bars/mask003.png,,,,,,,,,,,,0,2,,,,,,,0,0,1,0,,,,,,,,,,,1486.87,1487.369,1487.619,1493.081,space,5.446,,1493.081,39,11,1494.079,1494.079,1494.111,,,,0,26,26,26,1,110,160,,,,,,,,
,,65a6598ce71a234ef2b83b31,65af56b1928510ff1336ce75,2024-01-23_01h20.12.953,bars,2023.2.3,Win32,62.5,657b66ea316d21385b68909f,,,,,,,,,,,1494.112,1495.112,,,1495.613,1495.861,,144,144,,,,,,,,,,,,,,,,bars/003.png,bars/mask008.png,,,,,,,,,,,,2,2,,,,,,,0,2,1,2,,,,,,,,,,,1495.112,1495.613,1495.861,1498.975,space,3.097,,1498.975,61,4,1499.974,1499.974,1500.011,,,,0,27,27,27,1,25,140,,,,,,,,
,,65a6598ce71a234ef2b83b31,65af56b1928510ff1336ce75,2024-01-23_01h20.12.953,bars,2023.2.3,Win32,62.5,657b66ea316d21385b68909f,,,,,,,,,,,1500.012,1501.006,,,1501.506,1501.755,,51,51,,,,,,,,,,,,,,,,bars/030.png,bars/mask002.png,,,,,,,,,,,,3,2,,,,,,,2,4,1,6,,,,,,,,,,,1501.006,1501.505,1501.755,1505.169,space,3.403,,1505.169,89,14,1506.168,1506.168,1506.203,,,,0,28,28,28,1,140,65,,,,,,,,
,,65a6598ce71a234ef2b83b31,65af56b1928510ff1336ce75,2024-01-23_01h20.12.953,bars,2023.2.3,Win32,62.5,657b66ea316d21385b68909f,,,,,,,,,,,1506.205,1507.199,,,1507.7,1507.949,,105,105,,,,,,,,,,,,,,,,bars/039.png,bars/mask002.png,,,,,,,,,,,,2,2,,,,,,,0,2,0,2,,,,,,,,,,,1507.2,1507.7,1507.95,1511.38,space,3.419,,1511.38,70,0,1512.378,1512.378,1512.419,,,,0,29,29,29,1,175,105,,,,,,,,
,,65a6598ce71a234ef2b83b31,65af56b1928510ff1336ce75,2024-01-23_01h20.12.953,bars,2023.2.3,Win32,62.5,657b66ea316d21385b68909f,,,,,,,,,,,1512.42,1513.411,,,1513.91,1514.16,,147,147,,,,,,,,,,,,,,,,bars/000.png,bars/mask008.png,,,,,,,,,,,,6,2,,,,,,,0,4,1,6,,,,,,,,,,,1513.411,1513.91,1514.16,1516.508,space,2.334,,1516.508,73,2,1517.506,1517.506,1517.543,,,,0,30,30,30,1,40,145,,,,,,,,
,,65a6598ce71a234ef2b83b31,65af56b1928510ff1336ce75,2024-01-23_01h20.12.953,bars,2023.2.3,Win32,62.5,657b66ea316d21385b68909f,,,,,,,,,,,1517.544,1518.539,,,1519.039,1519.288,,119,119,,,,,,,,,,,,,,,,bars/043.png,bars/mask005.png,,,,,,,,,,,,1,2,,,,,,,2,2,2,2,,,,,,,,,,,1518.539,1519.038,1519.288,1521.453,space,2.15,,1521.453,89,11,1522.452,1522.452,1522.498,,,,0,31,31,31,1,30,130,,,,,,,,
,,65a6598ce71a234ef2b83b31,65af56b1928510ff1336ce75,2024-01-23_01h20.12.953,bars,2023.2.3,Win32,62.5,657b66ea316d21385b68909f,,,,,,,,,,,1522.498,1523.501,,,1524,1524.253,,20,200,,,,,,,,,,,,,,,,bars/012.png,bars/mask007.png,,,,,,,,,,,,3,2,,,,,,,4,4,4,3,,,,,,,,,,,1523.501,1524,1524.253,1528.313,space,4.05,,1528.313,70,5,1529.312,1529.312,1529.346,,,,0,32,32,32,1,90,15,,,,,,,,
,,65a6598ce71a234ef2b83b31,65af56b1928510ff1336ce75,2024-01-23_01h20.12.953,bars,2023.2.3,Win32,62.5,657b66ea316d21385b68909f,,,,,,,,,,,1529.347,1530.344,,,1530.844,1531.094,,139,-41,,,,,,,,,,,,,,,,bars/034.png,bars/mask007.png,,,,,,,,,,,,3,1,,,,,,,6,6,6,5,,,,,,,,,,,1530.344,1530.843,1531.095,1536.224,space,5.119,,1536.224,14,74,1537.221,1537.221,1537.265,,,,0,33,33,33,1,125,65,,,,,,,,
,,65a6598ce71a234ef2b83b31,65af56b1928510ff1336ce75,2024-01-23_01h20.12.953,bars,2023.2.3,Win32,62.5,657b66ea316d21385b68909f,,,,,,,,,,,1537.265,1538.254,,,1538.752,1539.002,,79,79,,,,,,,,,,,,,,,,bars/006.png,bars/mask009.png,,,,,,,,,,,,2,2,,,,,,,8,8,7,7,,,,,,,,,,,1538.254,1538.752,1539.003,1540.785,space,1.768,,1540.786,44,21,1541.783,1541.783,1541.82,,,,0,34,34,34,1,35,100,,,,,,,,
,,65a6598ce71a234ef2b83b31,65af56b1928510ff1336ce75,2024-01-23_01h20.12.953,bars,2023.2.3,Win32,62.5,657b66ea316d21385b68909f,,,,,,,,,,,1541.821,1542.815,,,1543.315,1543.564,,126,126,,,,,,,,,,,,,,,,bars/025.png,bars/mask008.png,,,,,,,,,,,,2,1,,,,,,,6,10,6,10,,,,,,,,,,,1542.815,1543.315,1543.564,1548.495,space,4.919,,1548.495,21,86,1549.492,1549.492,1549.531,,,,0,35,35,35,1,105,40,,,,,,,,
,,65a6598ce71a234ef2b83b31,65af56b1928510ff1336ce75,2024-01-23_01h20.12.953,bars,2023.2.3,Win32,62.5,657b66ea316d21385b68909f,,,,,,,,,,,1549.532,1550.524,,,1551.024,1551.273,,152,-28,,,,,,,,,,,,,,,,bars/018.png,bars/mask006.png,,,,,,,,,,,,7,1,,,,,,,8,10,7,8,,,,,,,,,,,1550.524,1551.024,1551.273,1556.401,space,5.113,,1556.401,2,62,1557.401,1557.401,1557.445,,,,0,36,36,36,1,150,90,,,,,,,,
,,65a6598ce71a234ef2b83b31,65af56b1928510ff1336ce75,2024-01-23_01h20.12.953,bars,2023.2.3,Win32,62.5,657b66ea316d21385b68909f,,,,,,,,,,,1557.446,1558.449,,,1558.949,1559.199,,35,215,,,,,,,,,,,,,,,,bars/028.png,bars/mask008.png,,,,,,,,,,,,4,1,,,,,,,6,10,6,10,,,,,,,,,,,1558.449,1558.949,1559.199,1562.863,space,3.651,,1562.863,10,85,1563.861,1563.861,1563.903,,,,0,37,37,37,1,45,120,,,,,,,,
,,65a6598ce71a234ef2b83b31,65af56b1928510ff1336ce75,2024-01-23_01h20.12.953,bars,2023.2.3,Win32,62.5,657b66ea316d21385b68909f,,,,,,,,,,,1563.903,1564.893,,,1565.393,1565.642,,132,132,,,,,,,,,,,,,,,,bars/004.png,bars/mask001.png,,,,,,,,,,,,8,2,,,,,,,8,10,7,10,,,,,,,,,,,1564.893,1565.393,1565.643,1570.538,space,4.88,,1570.538,73,7,1571.537,1571.537,1571.577,,,,0,38,38,38,1,25,125,,,,,,,,
,,65a6598ce71a234ef2b83b31,65af56b1928510ff1336ce75,2024-01-23_01h20.12.953,bars,2023.2.3,Win32,62.5,657b66ea316d21385b68909f,,,,,,,,,,,1571.578,1572.569,,,1573.069,1573.318,,114,114,,,,,,,,,,,,,,,,bars/020.png,bars/mask004.png,,,,,,,,,,,,6,1,,,,,,,6,10,6,10,,,,,,,,,,,1572.57,1573.069,1573.318,1576.033,space,2.7,,1576.033,1,56,1577.032,1577.032,1577.075,,,,0,39,39,39,1,115,170,,,,,,,,
,,65a6598ce71a234ef2b83b31,65af56b1928510ff1336ce75,2024-01-23_01h20.12.953,bars,2023.2.3,Win32,62.5,657b66ea316d21385b68909f,,,,,,,,,,,1577.076,1578.064,,,1578.564,1578.813,,119,-61,,,,,,,,,,,,,,,,bars/002.png,bars/mask009.png,,,,,,,,,,,,6,1,,,,,,,8,10,9,10,,,,,,,,,,,1578.064,1578.564,1578.814,1582.31,space,3.482,,1582.31,11,34,1583.309,1583.309,1583.341,,,,0,40,40,40,1,130,85,,,,,,,,
,,65a6598ce71a234ef2b83b31,65af56b1928510ff1336ce75,2024-01-23_01h20.12.953,bars,2023.2.3,Win32,62.5,657b66ea316d21385b68909f,,,,,,,,,,,1583.343,1584.341,,,1584.841,1585.09,,146,146,,,,,,,,,,,,,,,,bars/040.png,bars/mask009.png,,,,,,,,,,,,4,1,,,,,,,6,8,5,7,,,,,,,,,,,1584.341,1584.841,1585.09,1589.353,space,4.252,,1589.354,6,39,1590.352,1590.352,1590.394,,,,0,41,41,41,1,140,5,,,,,,,,
,,65a6598ce71a234ef2b83b31,65af56b1928510ff1336ce75,2024-01-23_01h20.12.953,bars,2023.2.3,Win32,62.5,657b66ea316d21385b68909f,,,,,,,,,,,1590.395,1591.385,,,1591.884,1592.134,,138,-42,,,,,,,,,,,,,,,,bars/003.png,bars/mask007.png,,,,,,,,,,,,7,2,,,,,,,8,10,9,8,,,,,,,,,,,1591.385,1591.884,1592.134,1596.928,space,4.776,,1596.929,67,2,1597.929,1597.929,1597.982,,,,0,42,42,42,1,25,140,,,,,,,,
,,65a6598ce71a234ef2b83b31,65af56b1928510ff1336ce75,2024-01-23_01h20.12.953,bars,2023.2.3,Win32,62.5,657b66ea316d21385b68909f,,,,,,,,,,,1597.984,1598.975,,,1599.476,1599.726,,154,-26,,,,,,,,,,,,,,,,bars/038.png,bars/mask000.png,,,,,,,,,,,,5,1,,,,,,,10,8,8,8,,,,,,,,,,,1598.976,1599.476,1599.726,1608.434,space,8.696,,1608.435,11,84,1609.433,1609.433,1609.478,,,,0,43,43,43,1,165,70,,,,,,,,
,,65a6598ce71a234ef2b83b31,65af56b1928510ff1336ce75,2024-01-23_01h20.12.953,bars,2023.2.3,Win32,62.5,657b66ea316d21385b68909f,,,,,,,,,,,1609.479,1610.487,,,1610.981,1611.231,,148,148,,,,,,,,,,,,,,,,bars/044.png,bars/mask001.png,,,,,,,,,,,,6,2,,,,,,,10,6,9,8,,,,,,,,,,,1610.487,1610.981,1611.231,1615.014,space,3.765,,1615.014,73,7,1616.01,1616.01,1616.064,,,,0,44,44,44,1,75,155,,,,,,,,
,,65a6598ce71a234ef2b83b31,65af56b1928510ff1336ce75,2024-01-23_01h20.12.953,bars,2023.2.3,Win32,62.5,657b66ea316d21385b68909f,,,,,,,,,,,1616.065,1617.059,,,1617.559,1617.808,,1,181,,,,,,,,,,,,,,,,bars/048.png,bars/mask000.png,,,,,,,,,,,,6,2,,,,,,,10,4,10,7,,,,,,,,,,,1617.059,1617.559,1617.809,1621.511,space,3.694,,1621.511,49,6,1622.503,1622.504,1622.542,,,,0,45,45,45,1,50,175,,,,,,,,
,,65a6598ce71a234ef2b83b31,65af56b1928510ff1336ce75,2024-01-23_01h20.12.953,bars,2023.2.3,Win32,62.5,657b66ea316d21385b68909f,,,,,,,,,,,1622.544,1623.536,,,1624.036,1624.285,,153,-27,,,,,,,,,,,,,,,,bars/049.png,bars/mask000.png,,,,,,,,,,,,7,1,,,,,,,8,2,9,1,,,,,,,,,,,1623.536,1624.036,1624.286,1628.932,space,4.633,,1628.932,7,38,1629.929,1629.929,1629.967,,,,0,46,46,46,1,160,115,,,,,,,,
,,65a6598ce71a234ef2b83b31,65af56b1928510ff1336ce75,2024-01-23_01h20.12.953,bars,2023.2.3,Win32,62.5,657b66ea316d21385b68909f,,,,,,,,,,,1629.968,1630.963,,,1631.462,1631.712,,148,148,,,,,,,,,,,,,,,,bars/039.png,bars/mask008.png,,,,,,,,,,,,1,1,,,,,,,6,4,7,5,,,,,,,,,,,1630.963,1631.462,1631.712,1634.475,space,2.754,,1634.475,27,43,1635.475,1635.475,1635.507,,,,0,47,47,47,1,175,105,,,,,,,,
,,65a6598ce71a234ef2b83b31,65af56b1928510ff1336ce75,2024-01-23_01h20.12.953,bars,2023.2.3,Win32,62.5,657b66ea316d21385b68909f,,,,,,,,,,,1635.508,1636.508,,,1637.006,1637.256,,144,-36,,,,,,,,,,,,,,,,bars/048.png,bars/mask006.png,,,,,,,,,,,,0,2,,,,,,,4,2,1,2,,,,,,,,,,,1636.508,1637.005,1637.256,1640.104,space,2.835,,1640.104,86,31,1641.102,1641.102,1641.143,,,,0,48,48,48,1,50,175,,,,,,,,
,,65a6598ce71a234ef2b83b31,65af56b1928510ff1336ce75,2024-01-23_01h20.12.953,bars,2023.2.3,Win32,62.5,657b66ea316d21385b68909f,,,,,,,,,,,1641.144,1642.135,,,1642.635,1642.884,,153,-27,,,,,,,,,,,,,,,,bars/046.png,bars/mask000.png,,,,,,,,,,,,5,1,,,,,,,6,0,5,0,,,,,,,,,,,1642.135,1642.634,1642.884,1646.546,space,3.646,,1646.546,2,68,1647.546,1647.546,1647.569,,,,0,49,49,49,1,155,85,,,,,,,,
,,65a6598ce71a234ef2b83b31,65af56b1928510ff1336ce75,2024-01-23_01h20.12.953,bars,2023.2.3,Win32,62.5,657b66ea316d21385b68909f,,,,,,,,,,,,,,,,,,,,,,,,,,,,,,,,,,,,,,,,,,,,,,,,,,,,,,,,,,,,,,,,,,,,,,,,,,,,,,,,,,,,,,,,,,,,,1647.57,1804.831,0,2,2,4,1,sequence_tables/blk021.csv
,,65a6598ce71a234ef2b83b31,65af56b1928510ff1336ce75,2024-01-23_01h20.12.953,bars,2023.2.3,Win32,62.5,657b66ea316d21385b68909f,,,,,,,,,,,1805.818,1806.807,,,1807.306,1807.556,,148,148,,,,,,,,,,,,,,,,bars/007.png,bars/mask002.png,,,,,,,,,,,,0,1,,,,,,,2,9,1,9,,,,,,1804.878,1805.791,space,0.891,,1806.808,1807.306,1807.556,1810.088,space,2.521,,1810.089,27,87,1811.086,1811.086,1811.128,,,,0,0,0,0,1,175,55,,,,,,,,
,,65a6598ce71a234ef2b83b31,65af56b1928510ff1336ce75,2024-01-23_01h20.12.953,bars,2023.2.3,Win32,62.5,657b66ea316d21385b68909f,,,,,,,,,,,1811.129,1812.117,,,1812.618,1812.867,,127,127,,,,,,,,,,,,,,,,bars/043.png,bars/mask004.png,,,,,,,,,,,,5,2,,,,,,,4,7,7,6,,,,,,,,,,,1812.118,1812.618,1812.867,1814.898,space,2.02,,1814.898,83,3,1815.897,1815.897,1815.938,,,,0,1,1,1,1,30,130,,,,,,,,
,,65a6598ce71a234ef2b83b31,65af56b1928510ff1336ce75,2024-01-23_01h20.12.953,bars,2023.2.3,Win32,62.5,657b66ea316d21385b68909f,,,,,,,,,,,1815.94,1816.93,,,1817.43,1817.679,,16,196,,,,,,,,,,,,,,,,bars/032.png,bars/mask002.png,,,,,,,,,,,,7,2,,,,,,,6,9,6,8,,,,,,,,,,,1816.93,1817.429,1817.679,1819.744,space,2.048,,1819.744,71,4,1820.743,1820.743,1820.745,,,,0,2,2,2,1,125,20,,,,,,,,
,,65a6598ce71a234ef2b83b31,65af56b1928510ff1336ce75,2024-01-23_01h20.12.953,bars,2023.2.3,Win32,62.5,657b66ea316d21385b68909f,,,,,,,,,,,1820.746,1821.741,,,1822.241,1822.491,,109,109,,,,,,,,,,,,,,,,bars/039.png,bars/mask004.png,,,,,,,,,,,,7,2,,,,,,,8,7,6,8,,,,,,,,,,,1821.742,1822.241,1822.491,1838.692,space,16.185,,1838.692,66,4,1839.691,1839.691,1839.735,,,,0,3,3,3,1,175,105,,,,,,,,
,,65a6598ce71a234ef2b83b31,65af56b1928510ff1336ce75,2024-01-23_01h20.12.953,bars,2023.2.3,Win32,62.5,657b66ea316d21385b68909f,,,,,,,,,,,1839.736,1840.74,,,1841.24,1841.49,,115,115,,,,,,,,,,,,,,,,bars/004.png,bars/mask000.png,,,,,,,,,,,,6,2,,,,,,,6,9,5,9,,,,,,,,,,,1840.74,1841.24,1841.49,1843.721,space,2.215,,1843.721,90,10,1844.719,1844.72,1844.759,,,,0,4,4,4,1,25,125,,,,,,,,
,,65a6598ce71a234ef2b83b31,65af56b1928510ff1336ce75,2024-01-23_01h20.12.953,bars,2023.2.3,Win32,62.5,657b66ea316d21385b68909f,,,,,,,,,,,1844.761,1845.752,,,1846.252,1846.502,,71,71,,,,,,,,,,,,,,,,bars/025.png,bars/mask004.png,,,,,,,,,,,,0,2,,,,,,,8,7,8,8,,,,,,,,,,,1845.752,1846.251,1846.502,1851.197,space,4.681,,1851.197,34,31,1852.195,1852.195,1852.235,,,,0,5,5,5,1,105,40,,,,,,,,
,,65a6598ce71a234ef2b83b31,65af56b1928510ff1336ce75,2024-01-23_01h20.12.953,bars,2023.2.3,Win32,62.5,657b66ea316d21385b68909f,,,,,,,,,,,1852.236,1853.227,,,1853.726,1853.977,,99,99,,,,,,,,,,,,,,,,bars/019.png,bars/mask000.png,,,,,,,,,,,,6,2,,,,,,,6,5,6,7,,,,,,,,,,,1853.227,1853.726,1853.977,1857.69,space,3.7,,1857.69,54,6,1858.688,1858.689,1858.727,,,,0,6,6,6,1,45,105,,,,,,,,
,,65a6598ce71a234ef2b83b31,65af56b1928510ff1336ce75,2024-01-23_01h20.12.953,bars,2023.2.3,Win32,62.5,657b66ea316d21385b68909f,,,,,,,,,,,1858.728,1859.722,,,1860.221,1860.471,,96,96,,,,,,,,,,,,,,,,bars/043.png,bars/mask007.png,,,,,,,,,,,,0,2,,,,,,,4,7,2,6,,,,,,,,,,,1859.723,1860.22,1860.471,1865.901,space,5.42,,1865.901,66,34,1866.897,1866.897,1866.933,,,,0,7,7,7,1,30,130,,,,,,,,
,,65a6598ce71a234ef2b83b31,65af56b1928510ff1336ce75,2024-01-23_01h20.12.953,bars,2023.2.3,Win32,62.5,657b66ea316d21385b68909f,,,,,,,,,,,1866.933,1867.93,,,1868.429,1868.679,,84,84,,,,,,,,,,,,,,,,bars/038.png,bars/mask008.png,,,,,,,,,,,,4,2,,,,,,,2,9,2,8,,,,,,,,,,,1867.93,1868.429,1868.68,1872.626,space,3.932,,1872.626,81,14,1873.624,1873.624,1873.665,,,,0,8,8,8,1,165,70,,,,,,,,
,,65a6598ce71a234ef2b83b31,65af56b1928510ff1336ce75,2024-01-23_01h20.12.953,bars,2023.2.3,Win32,62.5,657b66ea316d21385b68909f,,,,,,,,,,,1873.665,1874.656,,,1875.157,1875.407,,133,133,,,,,,,,,,,,,,,,bars/028.png,bars/mask009.png,,,,,,,,,,,,6,2,,,,,,,0,10,1,10,,,,,,,,,,,1874.657,1875.157,1875.407,1879.002,space,3.581,,1879.003,88,13,1880.001,1880.002,1880.037,,,,0,9,9,9,1,45,120,,,,,,,,
,,65a6598ce71a234ef2b83b31,65af56b1928510ff1336ce75,2024-01-23_01h20.12.953,bars,2023.2.3,Win32,62.5,657b66ea316d21385b68909f,,,,,,,,,,,1880.038,1881.034,,,1881.532,1881.783,,118,118,,,,,,,,,,,,,,,,bars/009.png,bars/mask001.png,,,,,,,,,,,,4,2,,,,,,,2,8,3,7,,,,,,,,,,,1881.034,1881.532,1881.783,1884.231,space,2.433,,1884.232,77,13,1885.229,1885.229,1885.265,,,,0,10,10,10,1,15,105,,,,,,,,
,,65a6598ce71a234ef2b83b31,65af56b1928510ff1336ce75,2024-01-23_01h20.12.953,bars,2023.2.3,Win32,62.5,657b66ea316d21385b68909f,,,,,,,,,,,1885.266,1886.261,,,1886.762,1887.011,,124,124,,,,,,,,,,,,,,,,bars/004.png,bars/mask006.png,,,,,,,,,,,,10,2,,,,,,,0,10,0,10,,,,,,,,,,,1886.261,1886.762,1887.011,1890.358,space,3.334,,1890.358,81,1,1891.356,1891.356,1891.393,,,,0,11,11,11,1,25,125,,,,,,,,
,,65a6598ce71a234ef2b83b31,65af56b1928510ff1336ce75,2024-01-23_01h20.12.953,bars,2023.2.3,Win32,62.5,657b66ea316d21385b68909f,,,,,,,,,,,1891.393,1892.389,,,1892.888,1893.142,,134,134,,,,,,,,,,,,,,,,bars/003.png,bars/mask004.png,,,,,,,,,,,,5,2,,,,,,,2,8,2,6,,,,,,,,,,,1892.389,1892.888,1893.142,1895.369,space,2.22,,1895.369,71,6,1896.369,1896.369,1896.406,,,,0,12,12,12,1,25,140,,,,,,,,
,,65a6598ce71a234ef2b83b31,65af56b1928510ff1336ce75,2024-01-23_01h20.12.953,bars,2023.2.3,Win32,62.5,657b66ea316d21385b68909f,,,,,,,,,,,1896.407,1897.401,,,1897.901,1898.15,,13,13,,,,,,,,,,,,,,,,bars/016.png,bars/mask000.png,,,,,,,,,,,,0,1,,,,,,,4,10,5,9,,,,,,,,,,,1897.401,1897.901,1898.15,1900.699,space,2.537,,1900.699,27,28,1901.696,1901.696,1901.704,,,,0,13,13,13,1,40,165,,,,,,,,
,,65a6598ce71a234ef2b83b31,65af56b1928510ff1336ce75,2024-01-23_01h20.12.953,bars,2023.2.3,Win32,62.5,657b66ea316d21385b68909f,,,,,,,,,,,1901.705,1902.695,,,1903.195,1903.445,,109,109,,,,,,,,,,,,,,,,bars/041.png,bars/mask001.png,,,,,,,,,,,,2,2,,,,,,,2,10,2,10,,,,,,,,,,,1902.695,1903.195,1903.445,1905.876,space,2.417,,1905.876,89,24,1906.876,1906.876,1906.912,,,,0,14,14,14,1,20,85,,,,,,,,
,,65a6598ce71a234ef2b83b31,65af56b1928510ff1336ce75,2024-01-23_01h20.12.953,bars,2023.2.3,Win32,62.5,657b66ea316d21385b68909f,,,,,,,,,,,1906.913,1907.908,,,1908.407,1908.657,,98,98,,,,,,,,,,,,,,,,bars/030.png,bars/mask007.png,,,,,,,,,,,,0,2,,,,,,,0,10,0,10,,,,,,,,,,,1907.908,1908.407,1908.657,1910.905,space,2.235,,1910.905,42,33,1911.903,1911.903,1911.943,,,,0,15,15,15,1,140,65,,,,,,,,
,,65a6598ce71a234ef2b83b31,65af56b1928510ff1336ce75,2024-01-23_01h20.12.953,bars,2023.2.3,Win32,62.5,657b66ea316d21385b68909f,,,,,,,,,,,1911.944,1912.936,,,1913.436,1913.685,,109,109,,,,,,,,,,,,,,,,bars/004.png,bars/mask006.png,,,,,,,,,,,,5,2,,,,,,,2,10,2,10,,,,,,,,,,,1912.936,1913.435,1913.685,1917.281,space,3.585,,1917.282,84,16,1918.28,1918.28,1918.314,,,,0,16,16,16,1,25,125,,,,,,,,
,,65a6598ce71a234ef2b83b31,65af56b1928510ff1336ce75,2024-01-23_01h20.12.953,bars,2023.2.3,Win32,62.5,657b66ea316d21385b68909f,,,,,,,,,,,1918.314,1919.312,,,1919.811,1920.061,,138,138,,,,,,,,,,,,,,,,bars/030.png,bars/mask004.png,,,,,,,,,,,,0,1,,,,,,,0,10,0,8,,,,,,,,,,,1919.313,1919.811,1920.061,1924.576,space,4.501,,1924.576,2,73,1925.574,1925.574,1925.62,,,,0,17,17,17,1,140,65,,,,,,,,
,,65a6598ce71a234ef2b83b31,65af56b1928510ff1336ce75,2024-01-23_01h20.12.953,bars,2023.2.3,Win32,62.5,657b66ea316d21385b68909f,,,,,,,,,,,1925.62,1926.622,,,1927.122,1927.371,,95,95,,,,,,,,,,,,,,,,bars/013.png,bars/mask008.png,,,,,,,,,,,,1,1,,,,,,,2,10,2,10,,,,,,,,,,,1926.623,1927.122,1927.371,1931.435,space,4.05,,1931.435,20,85,1932.433,1932.433,1932.475,,,,0,18,18,18,1,75,10,,,,,,,,
,,65a6598ce71a234ef2b83b31,65af56b1928510ff1336ce75,2024-01-23_01h20.12.953,bars,2023.2.3,Win32,62.5,657b66ea316d21385b68909f,,,,,,,,,,,1932.475,1933.465,,,1933.965,1934.214,,93,93,,,,,,,,,,,,,,,,bars/018.png,bars/mask001.png,,,,,,,,,,,,9,2,,,,,,,0,10,1,10,,,,,,,,,,,1933.466,1933.965,1934.214,1938.964,space,4.74,,1938.964,57,3,1939.96,1939.96,1940.005,,,,0,19,19,19,1,150,90,,,,,,,,
,,65a6598ce71a234ef2b83b31,65af56b1928510ff1336ce75,2024-01-23_01h20.12.953,bars,2023.2.3,Win32,62.5,657b66ea316d21385b68909f,,,,,,,,,,,1940.006,1941.007,,,1941.508,1941.758,,119,119,,,,,,,,,,,,,,,,bars/045.png,bars/mask009.png,,,,,,,,,,,,0,1,,,,,,,2,10,1,8,,,,,,,,,,,1941.007,1941.508,1941.758,1946.254,space,4.483,,1946.254,19,71,1947.251,1947.251,1947.288,,,,0,20,20,20,1,100,10,,,,,,,,
,,65a6598ce71a234ef2b83b31,65af56b1928510ff1336ce75,2024-01-23_01h20.12.953,bars,2023.2.3,Win32,62.5,657b66ea316d21385b68909f,,,,,,,,,,,1947.289,1948.284,,,1948.783,1949.034,,150,150,,,,,,,,,,,,,,,,bars/043.png,bars/mask005.png,,,,,,,,,,,,3,2,,,,,,,4,8,3,8,,,,,,,,,,,1948.284,1948.783,1949.034,1950.882,space,1.836,,1950.882,60,20,1951.881,1951.881,1951.888,,,,0,21,21,21,1,30,130,,,,,,,,
,,65a6598ce71a234ef2b83b31,65af56b1928510ff1336ce75,2024-01-23_01h20.12.953,bars,2023.2.3,Win32,62.5,657b66ea316d21385b68909f,,,,,,,,,,,1951.889,1952.88,,,1953.38,1953.629,,92,92,,,,,,,,,,,,,,,,bars/024.png,bars/mask003.png,,,,,,,,,,,,0,1,,,,,,,6,10,7,10,,,,,,,,,,,1952.88,1953.38,1953.629,1958.042,space,4.402,,1958.043,28,78,1959.041,1959.041,1959.084,,,,0,22,22,22,1,120,170,,,,,,,,
,,65a6598ce71a234ef2b83b31,65af56b1928510ff1336ce75,2024-01-23_01h20.12.953,bars,2023.2.3,Win32,62.5,657b66ea316d21385b68909f,,,,,,,,,,,1959.085,1960.09,,,1960.589,1960.84,,151,-29,,,,,,,,,,,,,,,,bars/049.png,bars/mask003.png,,,,,,,,,,,,3,1,,,,,,,4,10,4,10,,,,,,,,,,,1960.09,1960.589,1960.84,1964.186,space,3.334,,1964.186,9,36,1965.184,1965.185,1965.235,,,,0,23,23,23,1,160,115,,,,,,,,
,,65a6598ce71a234ef2b83b31,65af56b1928510ff1336ce75,2024-01-23_01h20.12.953,bars,2023.2.3,Win32,62.5,657b66ea316d21385b68909f,,,,,,,,,,,1965.235,1966.233,,,1966.732,1966.982,,120,-60,,,,,,,,,,,,,,,,bars/046.png,bars/mask008.png,,,,,,,,,,,,0,2,,,,,,,6,8,5,9,,,,,,,,,,,1966.233,1966.732,1966.982,1971.811,space,4.819,,1971.811,35,35,1972.81,1972.81,1972.853,,,,0,24,24,24,1,155,85,,,,,,,,
,,65a6598ce71a234ef2b83b31,65af56b1928510ff1336ce75,2024-01-23_01h20.12.953,bars,2023.2.3,Win32,62.5,657b66ea316d21385b68909f,,,,,,,,,,,1972.853,1973.843,,,1974.344,1974.592,,154,154,,,,,,,,,,,,,,,,bars/021.png,bars/mask009.png,,,,,,,,,,,,4,1,,,,,,,4,6,4,7,,,,,,,,,,,1973.843,1974.344,1974.592,1977.66,space,3.059,,1977.66,1,84,1978.655,1978.655,1978.693,,,,0,25,25,25,1,155,70,,,,,,,,
,,65a6598ce71a234ef2b83b31,65af56b1928510ff1336ce75,2024-01-23_01h20.12.953,bars,2023.2.3,Win32,62.5,657b66ea316d21385b68909f,,,,,,,,,,,1978.694,1979.687,,,1980.186,1980.436,,47,47,,,,,,,,,,,,,,,,bars/034.png,bars/mask005.png,,,,,,,,,,,,3,2,,,,,,,2,8,1,8,,,,,,,,,,,1979.687,1980.186,1980.436,1984.798,space,4.347,,1984.799,78,18,1985.797,1985.797,1985.838,,,,0,26,26,26,1,125,65,,,,,,,,
,,65a6598ce71a234ef2b83b31,65af56b1928510ff1336ce75,2024-01-23_01h20.12.953,bars,2023.2.3,Win32,62.5,657b66ea316d21385b68909f,,,,,,,,,,,1985.838,1986.832,,,1987.331,1987.579,,8,8,,,,,,,,,,,,,,,,bars/012.png,bars/mask008.png,,,,,,,,,,,,7,2,,,,,,,4,10,5,9,,,,,,,,,,,1986.832,1987.331,1987.579,1991.359,space,3.764,,1991.359,82,7,1992.358,1992.358,1992.389,,,,0,27,27,27,1,90,15,,,,,,,,
,,65a6598ce71a234ef2b83b31,65af56b1928510ff1336ce75,2024-01-23_01h20.12.953,bars,2023.2.3,Win32,62.5,657b66ea316d21385b68909f,,,,,,,,,,,1992.392,1993.39,,,1993.89,1994.139,,156,-24,,,,,,,,,,,,,,,,bars/015.png,bars/mask009.png,,,,,,,,,,,,8,2,,,,,,,2,10,2,9,,,,,,,,,,,1993.39,1993.889,1994.139,1998.37,space,4.214,,1998.37,46,4,1999.368,1999.368,1999.409,,,,0,28,28,28,1,110,160,,,,,,,,
,,65a6598ce71a234ef2b83b31,65af56b1928510ff1336ce75,2024-01-23_01h20.12.953,bars,2023.2.3,Win32,62.5,657b66ea316d21385b68909f,,,,,,,,,,,1999.41,2000.4,,,2000.899,2001.15,,165,-15,,,,,,,,,,,,,,,,bars/015.png,bars/mask000.png,,,,,,,,,,,,7,2,,,,,,,0,8,0,8,,,,,,,,,,,2000.4,2000.899,2001.15,2005.862,space,4.699,,2005.862,55,5,2006.86,2006.86,2006.895,,,,0,29,29,29,1,110,160,,,,,,,,
,,65a6598ce71a234ef2b83b31,65af56b1928510ff1336ce75,2024-01-23_01h20.12.953,bars,2023.2.3,Win32,62.5,657b66ea316d21385b68909f,,,,,,,,,,,2006.896,2007.892,,,2008.392,2008.642,,45,225,,,,,,,,,,,,,,,,bars/035.png,bars/mask000.png,,,,,,,,,,,,5,2,,,,,,,2,10,2,9,,,,,,,,,,,2007.893,2008.392,2008.642,2014.986,space,6.329,,2014.986,50,15,2015.985,2015.985,2016.022,,,,0,30,30,30,1,175,60,,,,,,,,
,,65a6598ce71a234ef2b83b31,65af56b1928510ff1336ce75,2024-01-23_01h20.12.953,bars,2023.2.3,Win32,62.5,657b66ea316d21385b68909f,,,,,,,,,,,2016.023,2017.017,,,2017.517,2017.766,,102,-78,,,,,,,,,,,,,,,,bars/019.png,bars/mask008.png,,,,,,,,,,,,7,2,,,,,,,0,8,0,8,,,,,,,,,,,2017.017,2017.517,2017.766,2022.581,space,4.807,,2022.581,57,3,2023.577,2023.577,2023.608,,,,0,31,31,31,1,45,105,,,,,,,,
,,65a6598ce71a234ef2b83b31,65af56b1928510ff1336ce75,2024-01-23_01h20.12.953,bars,2023.2.3,Win32,62.5,657b66ea316d21385b68909f,,,,,,,,,,,2023.609,2024.61,,,2025.11,2025.358,,14,194,,,,,,,,,,,,,,,,bars/048.png,bars/mask007.png,,,,,,,,,,,,2,2,,,,,,,0,6,0,5,,,,,,,,,,,2024.61,2025.109,2025.358,2030.57,space,5.197,,2030.57,36,19,2031.569,2031.569,2031.607,,,,0,32,32,32,1,50,175,,,,,,,,
,,65a6598ce71a234ef2b83b31,65af56b1928510ff1336ce75,2024-01-23_01h20.12.953,bars,2023.2.3,Win32,62.5,657b66ea316d21385b68909f,,,,,,,,,,,2031.609,2032.601,,,2033.101,2033.35,,162,-18,,,,,,,,,,,,,,,,bars/016.png,bars/mask003.png,,,,,,,,,,,,4,2,,,,,,,0,4,1,4,,,,,,,,,,,2032.601,2033.101,2033.35,2036.248,space,2.884,,2036.249,58,3,2037.247,2037.248,2037.285,,,,0,33,33,33,1,40,165,,,,,,,,
,,65a6598ce71a234ef2b83b31,65af56b1928510ff1336ce75,2024-01-23_01h20.12.953,bars,2023.2.3,Win32,62.5,657b66ea316d21385b68909f,,,,,,,,,,,2037.286,2038.28,,,2038.78,2039.029,,29,209,,,,,,,,,,,,,,,,bars/027.png,bars/mask000.png,,,,,,,,,,,,2,2,,,,,,,0,6,1,6,,,,,,,,,,,2038.28,2038.78,2039.029,2041.942,space,2.901,,2041.942,81,21,2042.94,2042.94,2042.958,,,,0,34,34,34,1,110,50,,,,,,,,
,,65a6598ce71a234ef2b83b31,65af56b1928510ff1336ce75,2024-01-23_01h20.12.953,bars,2023.2.3,Win32,62.5,657b66ea316d21385b68909f,,,,,,,,,,,2042.958,2043.957,,,2044.457,2044.709,,21,201,,,,,,,,,,,,,,,,bars/022.png,bars/mask003.png,,,,,,,,,,,,7,2,,,,,,,2,8,2,7,,,,,,,,,,,2043.957,2044.456,2044.71,2049.404,space,4.678,,2049.404,74,1,2050.4,2050.4,2050.435,,,,0,35,35,35,1,95,20,,,,,,,,
,,65a6598ce71a234ef2b83b31,65af56b1928510ff1336ce75,2024-01-23_01h20.12.953,bars,2023.2.3,Win32,62.5,657b66ea316d21385b68909f,,,,,,,,,,,2050.435,2051.433,,,2051.933,2052.183,,21,201,,,,,,,,,,,,,,,,bars/012.png,bars/mask000.png,,,,,,,,,,,,5,2,,,,,,,4,6,4,6,,,,,,,,,,,2051.433,2051.933,2052.183,2054.635,space,2.435,,2054.635,69,6,2055.629,2055.63,2055.678,,,,0,36,36,36,1,90,15,,,,,,,,
,,65a6598ce71a234ef2b83b31,65af56b1928510ff1336ce75,2024-01-23_01h20.12.953,bars,2023.2.3,Win32,62.5,657b66ea316d21385b68909f,,,,,,,,,,,2055.68,2056.678,,,2057.178,2057.427,,169,169,,,,,,,,,,,,,,,,bars/035.png,bars/mask000.png,,,,,,,,,,,,5,1,,,,,,,6,8,6,8,,,,,,,,,,,2056.678,2057.178,2057.428,2059.01,space,1.572,,2059.01,6,71,2060.008,2060.008,2060.014,,,,0,37,37,37,1,175,60,,,,,,,,
,,65a6598ce71a234ef2b83b31,65af56b1928510ff1336ce75,2024-01-23_01h20.12.953,bars,2023.2.3,Win32,62.5,657b66ea316d21385b68909f,,,,,,,,,,,2060.016,2061.007,,,2061.506,2061.756,,87,-93,,,,,,,,,,,,,,,,bars/026.png,bars/mask007.png,,,,,,,,,,,,6,2,,,,,,,8,6,8,6,,,,,,,,,,,2061.007,2061.506,2061.756,2066.852,space,5.084,,2066.852,52,2,2067.85,2067.85,2067.897,,,,0,38,38,38,1,35,85,,,,,,,,
,,65a6598ce71a234ef2b83b31,65af56b1928510ff1336ce75,2024-01-23_01h20.12.953,bars,2023.2.3,Win32,62.5,657b66ea316d21385b68909f,,,,,,,,,,,2067.897,2068.9,,,2069.399,2069.648,,86,86,,,,,,,,,,,,,,,,bars/018.png,bars/mask004.png,,,,,,,,,,,,3,2,,,,,,,6,4,4,4,,,,,,,,,,,2068.9,2069.399,2069.648,2072.713,space,3.051,,2072.713,64,4,2073.711,2073.711,2073.751,,,,0,39,39,39,1,150,90,,,,,,,,
,,65a6598ce71a234ef2b83b31,65af56b1928510ff1336ce75,2024-01-23_01h20.12.953,bars,2023.2.3,Win32,62.5,657b66ea316d21385b68909f,,,,,,,,,,,2073.752,2074.743,,,2075.243,2075.493,,6,186,,,,,,,,,,,,,,,,bars/008.png,bars/mask007.png,,,,,,,,,,,,4,2,,,,,,,4,6,5,5,,,,,,,,,,,2074.743,2075.243,2075.493,2077.208,space,1.703,,2077.21,76,6,2078.207,2078.207,2078.243,,,,0,40,40,40,1,110,0,,,,,,,,
,,65a6598ce71a234ef2b83b31,65af56b1928510ff1336ce75,2024-01-23_01h20.12.953,bars,2023.2.3,Win32,62.5,657b66ea316d21385b68909f,,,,,,,,,,,2078.244,2079.241,,,2079.739,2079.989,,95,95,,,,,,,,,,,,,,,,bars/019.png,bars/mask008.png,,,,,,,,,,,,5,2,,,,,,,6,8,8,8,,,,,,,,,,,2079.241,2079.739,2079.989,2084.068,space,4.066,,2084.068,50,10,2085.067,2085.067,2085.103,,,,0,41,41,41,1,45,105,,,,,,,,
,,65a6598ce71a234ef2b83b31,65af56b1928510ff1336ce75,2024-01-23_01h20.12.953,bars,2023.2.3,Win32,62.5,657b66ea316d21385b68909f,,,,,,,,,,,2085.104,2086.099,,,2086.599,2086.849,,88,88,,,,,,,,,,,,,,,,bars/002.png,bars/mask003.png,,,,,,,,,,,,6,2,,,,,,,8,6,7,7,,,,,,,,,,,2086.099,2086.599,2086.849,2088.531,space,1.671,,2088.531,42,3,2089.529,2089.529,2089.533,,,,0,42,42,42,1,130,85,,,,,,,,
,,65a6598ce71a234ef2b83b31,65af56b1928510ff1336ce75,2024-01-23_01h20.12.953,bars,2023.2.3,Win32,62.5,657b66ea316d21385b68909f,,,,,,,,,,,2089.534,2090.528,,,2091.028,2091.278,,168,168,,,,,,,,,,,,,,,,bars/023.png,bars/mask008.png,,,,,,,,,,,,0,1,,,,,,,6,4,6,5,,,,,,,,,,,2090.528,2091.028,2091.278,2095.59,space,4.296,,2095.59,32,53,2096.588,2096.588,2096.611,,,,0,43,43,43,1,20,115,,,,,,,,
,,65a6598ce71a234ef2b83b31,65af56b1928510ff1336ce75,2024-01-23_01h20.12.953,bars,2023.2.3,Win32,62.5,657b66ea316d21385b68909f,,,,,,,,,,,2096.611,2097.605,,,2098.105,2098.354,,103,103,,,,,,,,,,,,,,,,bars/037.png,bars/mask009.png,,,,,,,,,,,,2,2,,,,,,,4,2,5,2,,,,,,,,,,,2097.605,2098.105,2098.354,2099.27,space,0.904,,2099.27,47,2,2100.268,2100.269,2100.306,,,,0,44,44,44,1,150,105,,,,,,,,
,,65a6598ce71a234ef2b83b31,65af56b1928510ff1336ce75,2024-01-23_01h20.12.953,bars,2023.2.3,Win32,62.5,657b66ea316d21385b68909f,,,,,,,,,,,2100.307,2101.302,,,2101.801,2102.051,,1,1,,,,,,,,,,,,,,,,bars/032.png,bars/mask001.png,,,,,,,,,,,,0,2,,,,,,,2,0,4,0,,,,,,,,,,,2101.302,2101.801,2102.051,2104.7,space,2.634,,2104.7,56,19,2105.696,2105.697,2105.722,,,,0,45,45,45,1,125,20,,,,,,,,
,,65a6598ce71a234ef2b83b31,65af56b1928510ff1336ce75,2024-01-23_01h20.12.953,bars,2023.2.3,Win32,62.5,657b66ea316d21385b68909f,,,,,,,,,,,2105.722,2106.717,,,2107.212,2107.462,,85,85,,,,,,,,,,,,,,,,bars/002.png,bars/mask002.png,,,,,,,,,,,,0,2,,,,,,,4,0,2,0,,,,,,,,,,,2106.717,2107.212,2107.462,2111.49,space,4.019,,2111.49,45,0,2112.49,2112.49,2112.512,,,,0,46,46,46,1,130,85,,,,,,,,
,,65a6598ce71a234ef2b83b31,65af56b1928510ff1336ce75,2024-01-23_01h20.12.953,bars,2023.2.3,Win32,62.5,657b66ea316d21385b68909f,,,,,,,,,,,2112.513,2113.506,,,2114.005,2114.255,,109,109,,,,,,,,,,,,,,,,bars/019.png,bars/mask000.png,,,,,,,,,,,,1,2,,,,,,,2,2,1,1,,,,,,,,,,,2113.506,2114.005,2114.255,2117.17,space,2.9,,2117.17,64,4,2118.168,2118.168,2118.209,,,,0,47,47,47,1,45,105,,,,,,,,
,,65a6598ce71a234ef2b83b31,65af56b1928510ff1336ce75,2024-01-23_01h20.12.953,bars,2023.2.3,Win32,62.5,657b66ea316d21385b68909f,,,,,,,,,,,2118.209,2119.2,,,2119.7,2119.949,,148,148,,,,,,,,,,,,,,,,bars/009.png,bars/mask004.png,,,,,,,,,,,,0,2,,,,,,,4,0,4,0,,,,,,,,,,,2119.2,2119.7,2119.949,2121.681,space,1.718,,2121.681,47,43,2122.68,2122.68,2122.703,,,,0,48,48,48,1,15,105,,,,,,,,
,,65a6598ce71a234ef2b83b31,65af56b1928510ff1336ce75,2024-01-23_01h20.12.953,bars,2023.2.3,Win32,62.5,657b66ea316d21385b68909f,,,,,,,,,,,2122.704,2123.695,,,2124.195,2124.445,,162,-18,,,,,,,,,,,,,,,,bars/000.png,bars/mask008.png,,,,,,,,,,,,0,2,,,,,,,6,0,6,1,,,,,,,,,,,2123.695,2124.195,2124.445,2128.192,space,3.736,,2128.192,58,17,2129.19,2129.19,2129.223,,,,0,49,49,49,1,40,145,,,,,,,,
,,65a6598ce71a234ef2b83b31,65af56b1928510ff1336ce75,2024-01-23_01h20.12.953,bars,2023.2.3,Win32,62.5,657b66ea316d21385b68909f,,,,,,,,,,,,,,,,,,,,,,,,,,,,,,,,,,,,,,,,,,,,,,,,,,,,,,,,,,,,,,,,,,,,,,,,,,,,,,,,,,,,,,,,,,,,,2129.223,2234.959,0,3,3,1,1,sequence_tables/blk030.csv
,,65a6598ce71a234ef2b83b31,65af56b1928510ff1336ce75,2024-01-23_01h20.12.953,bars,2023.2.3,Win32,62.5,657b66ea316d21385b68909f,,,,,,,,,,,2235.945,2236.934,,,2237.433,2237.683,,105,105,,,,,,,,,,,,,,,,bars/002.png,bars/mask000.png,,,,,,,,,,,,0,2,,,,,,,10,1,8,0,,,,,,2234.982,2235.935,space,0.935,,2236.934,2237.433,2237.683,2240.181,space,2.488,,2240.181,25,20,2241.18,2241.18,2241.198,,,,0,0,0,0,1,130,85,,,,,,,,
,,65a6598ce71a234ef2b83b31,65af56b1928510ff1336ce75,2024-01-23_01h20.12.953,bars,2023.2.3,Win32,62.5,657b66ea316d21385b68909f,,,,,,,,,,,2241.198,2242.195,,,2242.695,2242.945,,112,112,,,,,,,,,,,,,,,,bars/024.png,bars/mask000.png,,,,,,,,,,,,6,1,,,,,,,8,0,8,0,,,,,,,,,,,2242.195,2242.695,2242.945,2244.41,space,1.457,,2244.41,8,58,2245.408,2245.409,2245.429,,,,0,1,1,1,1,120,170,,,,,,,,
,,65a6598ce71a234ef2b83b31,65af56b1928510ff1336ce75,2024-01-23_01h20.12.953,bars,2023.2.3,Win32,62.5,657b66ea316d21385b68909f,,,,,,,,,,,2245.43,2246.424,,,2246.924,2247.174,,93,93,,,,,,,,,,,,,,,,bars/043.png,bars/mask006.png,,,,,,,,,,,,0,2,,,,,,,6,0,5,0,,,,,,,,,,,2246.424,2246.924,2247.174,2250.754,space,3.564,,2250.754,63,37,2251.753,2251.753,2251.777,,,,0,2,2,2,1,30,130,,,,,,,,
,,65a6598ce71a234ef2b83b31,65af56b1928510ff1336ce75,2024-01-23_01h20.12.953,bars,2023.2.3,Win32,62.5,657b66ea316d21385b68909f,,,,,,,,,,,2251.777,2252.769,,,2253.268,2253.517,,45,45,,,,,,,,,,,,,,,,bars/031.png,bars/mask003.png,,,,,,,,,,,,0,2,,,,,,,4,2,3,0,,,,,,,,,,,2252.769,2253.268,2253.518,2256.132,space,2.598,,2256.132,75,10,2257.131,2257.131,2257.151,,,,0,3,3,3,1,120,35,,,,,,,,
,,65a6598ce71a234ef2b83b31,65af56b1928510ff1336ce75,2024-01-23_01h20.12.953,bars,2023.2.3,Win32,62.5,657b66ea316d21385b68909f,,,,,,,,,,,2257.152,2258.146,,,2258.646,2258.895,,158,-22,,,,,,,,,,,,,,,,bars/024.png,bars/mask000.png,,,,,,,,,,,,0,2,,,,,,,6,0,5,0,,,,,,,,,,,2258.146,2258.646,2258.895,2262.226,space,3.316,,2262.227,38,12,2263.225,2263.225,2263.243,,,,0,4,4,4,1,120,170,,,,,,,,
,,65a6598ce71a234ef2b83b31,65af56b1928510ff1336ce75,2024-01-23_01h20.12.953,bars,2023.2.3,Win32,62.5,657b66ea316d21385b68909f,,,,,,,,,,,2263.244,2264.24,,,2264.74,2264.99,,112,112,,,,,,,,,,,,,,,,bars/024.png,bars/mask001.png,,,,,,,,,,,,7,1,,,,,,,8,2,10,5,,,,,,,,,,,2264.24,2264.74,2264.99,2266.973,space,1.976,,2266.973,8,58,2267.97,2267.97,2267.988,,,,0,5,5,5,1,120,170,,,,,,,,
,,65a6598ce71a234ef2b83b31,65af56b1928510ff1336ce75,2024-01-23_01h20.12.953,bars,2023.2.3,Win32,62.5,657b66ea316d21385b68909f,,,,,,,,,,,2267.989,2268.986,,,2269.486,2269.735,,135,135,,,,,,,,,,,,,,,,bars/028.png,bars/mask000.png,,,,,,,,,,,,1,2,,,,,,,10,0,10,1,,,,,,,,,,,2268.986,2269.486,2269.735,2272.066,space,2.323,,2272.066,90,15,2273.066,2273.066,2273.086,,,,0,6,6,6,1,45,120,,,,,,,,
,,65a6598ce71a234ef2b83b31,65af56b1928510ff1336ce75,2024-01-23_01h20.12.953,bars,2023.2.3,Win32,62.5,657b66ea316d21385b68909f,,,,,,,,,,,2273.086,2274.081,,,2274.58,2274.83,,166,-14,,,,,,,,,,,,,,,,bars/033.png,bars/mask000.png,,,,,,,,,,,,0,2,,,,,,,10,0,10,0,,,,,,,,,,,2274.081,2274.58,2274.83,2277.345,space,2.498,,2277.345,39,11,2278.344,2278.344,2278.364,,,,0,7,7,7,1,25,155,,,,,,,,
,,65a6598ce71a234ef2b83b31,65af56b1928510ff1336ce75,2024-01-23_01h20.12.953,bars,2023.2.3,Win32,62.5,657b66ea316d21385b68909f,,,,,,,,,,,2278.365,2279.359,,,2279.859,2280.108,,86,86,,,,,,,,,,,,,,,,bars/044.png,bars/mask002.png,,,,,,,,,,,,5,1,,,,,,,10,0,8,0,,,,,,,,,,,2279.359,2279.859,2280.108,2281.341,space,1.218,,2281.341,11,69,2282.34,2282.34,2282.345,,,,0,8,8,8,1,75,155,,,,,,,,
,,65a6598ce71a234ef2b83b31,65af56b1928510ff1336ce75,2024-01-23_01h20.12.953,bars,2023.2.3,Win32,62.5,657b66ea316d21385b68909f,,,,,,,,,,,2282.346,2283.339,,,2283.839,2284.09,,164,164,,,,,,,,,,,,,,,,bars/007.png,bars/mask005.png,,,,,,,,,,,,6,1,,,,,,,8,0,9,0,,,,,,,,,,,2283.339,2283.838,2284.09,2287.653,space,3.554,,2287.653,11,71,2288.651,2288.651,2288.678,,,,0,9,9,9,1,175,55,,,,,,,,
,,65a6598ce71a234ef2b83b31,65af56b1928510ff1336ce75,2024-01-23_01h20.12.953,bars,2023.2.3,Win32,62.5,657b66ea316d21385b68909f,,,,,,,,,,,2288.678,2289.682,,,2290.182,2290.432,,164,164,,,,,,,,,,,,,,,,bars/035.png,bars/mask005.png,,,,,,,,,,,,4,1,,,,,,,10,2,7,4,,,,,,,,,,,2289.682,2290.182,2290.432,2291.681,space,1.239,,2291.682,11,76,2292.68,2292.68,2292.683,,,,0,10,10,10,1,175,60,,,,,,,,
,,65a6598ce71a234ef2b83b31,65af56b1928510ff1336ce75,2024-01-23_01h20.12.953,bars,2023.2.3,Win32,62.5,657b66ea316d21385b68909f,,,,,,,,,,,2292.685,2293.679,,,2294.179,2294.428,,158,-22,,,,,,,,,,,,,,,,bars/049.png,bars/mask000.png,,,,,,,,,,,,9,1,,,,,,,10,4,10,4,,,,,,,,,,,2293.679,2294.179,2294.428,2296.327,space,1.882,,2296.327,2,43,2297.326,2297.326,2297.362,,,,0,11,11,11,1,160,115,,,,,,,,
,,65a6598ce71a234ef2b83b31,65af56b1928510ff1336ce75,2024-01-23_01h20.12.953,bars,2023.2.3,Win32,62.5,657b66ea316d21385b68909f,,,,,,,,,,,2297.362,2298.358,,,2298.857,2299.111,,127,127,,,,,,,,,,,,,,,,bars/017.png,bars/mask008.png,,,,,,,,,,,,3,1,,,,,,,8,6,7,8,,,,,,,,,,,2298.358,2298.857,2299.111,2302.987,space,3.862,,2302.987,18,82,2303.986,2303.986,2304.02,,,,0,12,12,12,1,145,45,,,,,,,,
,,65a6598ce71a234ef2b83b31,65af56b1928510ff1336ce75,2024-01-23_01h20.12.953,bars,2023.2.3,Win32,62.5,657b66ea316d21385b68909f,,,,,,,,,,,2304.021,2305.018,,,2305.517,2305.767,,8,8,,,,,,,,,,,,,,,,bars/022.png,bars/mask007.png,,,,,,,,,,,,1,2,,,,,,,6,4,6,2,,,,,,,,,,,2305.018,2305.517,2305.767,2307.633,space,1.855,,2307.633,87,12,2308.631,2308.631,2308.638,,,,0,13,13,13,1,95,20,,,,,,,,
,,65a6598ce71a234ef2b83b31,65af56b1928510ff1336ce75,2024-01-23_01h20.12.953,bars,2023.2.3,Win32,62.5,657b66ea316d21385b68909f,,,,,,,,,,,2308.639,2309.629,,,2310.13,2310.38,,143,143,,,,,,,,,,,,,,,,bars/005.png,bars/mask006.png,,,,,,,,,,,,5,2,,,,,,,4,6,4,6,,,,,,,,,,,2309.63,2310.13,2310.38,2315.228,space,4.833,,2315.228,47,3,2316.223,2316.223,2316.259,,,,0,14,14,14,1,10,140,,,,,,,,
,,65a6598ce71a234ef2b83b31,65af56b1928510ff1336ce75,2024-01-23_01h20.12.953,bars,2023.2.3,Win32,62.5,657b66ea316d21385b68909f,,,,,,,,,,,2316.259,2317.256,,,2317.755,2318.005,,40,40,,,,,,,,,,,,,,,,bars/010.png,bars/mask006.png,,,,,,,,,,,,2,2,,,,,,,6,4,5,3,,,,,,,,,,,2317.257,2317.755,2318.005,2320.519,space,2.499,,2320.52,55,15,2321.518,2321.518,2321.559,,,,0,15,15,15,1,165,55,,,,,,,,
,,65a6598ce71a234ef2b83b31,65af56b1928510ff1336ce75,2024-01-23_01h20.12.953,bars,2023.2.3,Win32,62.5,657b66ea316d21385b68909f,,,,,,,,,,,2321.559,2322.556,,,2323.05,2323.303,,104,104,,,,,,,,,,,,,,,,bars/016.png,bars/mask003.png,,,,,,,,,,,,0,2,,,,,,,4,2,3,3,,,,,,,,,,,2322.556,2323.05,2323.303,2323.438,space,0.126,,2323.438,64,61,2324.433,2324.433,2324.434,,,,0,16,16,16,1,40,165,,,,,,,,
,,65a6598ce71a234ef2b83b31,65af56b1928510ff1336ce75,2024-01-23_01h20.12.953,bars,2023.2.3,Win32,62.5,657b66ea316d21385b68909f,,,,,,,,,,,2324.436,2325.432,,,2325.931,2326.181,,95,95,,,,,,,,,,,,,,,,bars/002.png,bars/mask002.png,,,,,,,,,,,,3,2,,,,,,,2,4,2,4,,,,,,,,,,,2325.432,2325.931,2326.181,2329.861,space,3.665,,2329.861,35,10,2330.86,2330.86,2330.899,,,,0,17,17,17,1,130,85,,,,,,,,
,,65a6598ce71a234ef2b83b31,65af56b1928510ff1336ce75,2024-01-23_01h20.12.953,bars,2023.2.3,Win32,62.5,657b66ea316d21385b68909f,,,,,,,,,,,2330.899,2331.892,,,2332.392,2332.641,,169,169,,,,,,,,,,,,,,,,bars/016.png,bars/mask004.png,,,,,,,,,,,,2,2,,,,,,,0,2,0,2,,,,,,,,,,,2331.892,2332.392,2332.642,2335.175,space,2.522,,2335.175,51,4,2336.172,2336.172,2336.196,,,,0,18,18,18,1,40,165,,,,,,,,
,,65a6598ce71a234ef2b83b31,65af56b1928510ff1336ce75,2024-01-23_01h20.12.953,bars,2023.2.3,Win32,62.5,657b66ea316d21385b68909f,,,,,,,,,,,2336.196,2337.19,,,2337.686,2337.935,,75,75,,,,,,,,,,,,,,,,bars/011.png,bars/mask007.png,,,,,,,,,,,,3,2,,,,,,,0,4,0,4,,,,,,,,,,,2337.19,2337.686,2337.936,2341.103,space,3.159,,2341.103,85,10,2342.1,2342.1,2342.139,,,,0,19,19,19,1,160,85,,,,,,,,
,,65a6598ce71a234ef2b83b31,65af56b1928510ff1336ce75,2024-01-23_01h20.12.953,bars,2023.2.3,Win32,62.5,657b66ea316d21385b68909f,,,,,,,,,,,2342.14,2343.13,,,2343.63,2343.88,,57,57,,,,,,,,,,,,,,,,bars/047.png,bars/mask000.png,,,,,,,,,,,,2,2,,,,,,,2,2,1,3,,,,,,,,,,,2343.131,2343.63,2343.88,2347.559,space,3.664,,2347.559,42,13,2348.559,2348.559,2348.594,,,,0,20,20,20,1,15,70,,,,,,,,
,,65a6598ce71a234ef2b83b31,65af56b1928510ff1336ce75,2024-01-23_01h20.12.953,bars,2023.2.3,Win32,62.5,657b66ea316d21385b68909f,,,,,,,,,,,2348.596,2349.591,,,2350.091,2350.34,,177,177,,,,,,,,,,,,,,,,bars/032.png,bars/mask007.png,,,,,,,,,,,,1,2,,,,,,,0,4,0,5,,,,,,,,,,,2349.591,2350.091,2350.34,2355.336,space,4.984,,2355.336,52,23,2356.333,2356.334,2356.351,,,,0,21,21,21,1,125,20,,,,,,,,
,,65a6598ce71a234ef2b83b31,65af56b1928510ff1336ce75,2024-01-23_01h20.12.953,bars,2023.2.3,Win32,62.5,657b66ea316d21385b68909f,,,,,,,,,,,2356.351,2357.351,,,2357.85,2358.1,,101,101,,,,,,,,,,,,,,,,bars/001.png,bars/mask003.png,,,,,,,,,,,,1,2,,,,,,,2,2,2,2,,,,,,,,,,,2357.351,2357.85,2358.101,2359.931,space,1.821,,2359.931,29,16,2360.93,2360.93,2360.933,,,,0,22,22,22,1,130,85,,,,,,,,
,,65a6598ce71a234ef2b83b31,65af56b1928510ff1336ce75,2024-01-23_01h20.12.953,bars,2023.2.3,Win32,62.5,657b66ea316d21385b68909f,,,,,,,,,,,2360.933,2361.929,,,2362.429,2362.679,,163,163,,,,,,,,,,,,,,,,bars/021.png,bars/mask007.png,,,,,,,,,,,,0,1,,,,,,,0,4,0,2,,,,,,,,,,,2361.929,2362.429,2362.679,2366.113,space,3.426,,2366.113,8,87,2367.107,2367.107,2367.148,,,,0,23,23,23,1,155,70,,,,,,,,
