init_variables.started,init_variables.stopped,participant,session,date,expName,psychopyVersion,OS,frameRate,study_id,instruction_exp.started,instruction_exp.stopped,key_resp_8.keys,key_resp_8.rt,key_resp_8.duration,instruction_single.started,instruction_single.stopped,key_resp_2.keys,key_resp_2.rt,key_resp_2.duration,interval.started,interval.stopped,cue_single.started,cue_single.stopped,mask.started,mask.stopped,ori_response_single.started,res_ori,res,ori_response_single.stopped,key_resp_single.keys,key_resp_single.rt,key_resp_single.duration,disp_single.started,disp_single.stopped,key_resp.keys,key_resp.rt,key_resp.duration,single.thisRepN,single.thisTrialN,single.thisN,single.thisIndex,single.ran,ori,path,mask_path,instruction_bandit.started,instruction_bandit.stopped,key_resp_6.keys,key_resp_6.rt,key_resp_6.duration,cue_bandit.started,cue_bandit.stopped,bandit_res.keys,bandit_res.rt,bandit_res.duration,outcome_bandit.started,rew,action,outcome_bandit.stopped,bandit.thisRepN,bandit.thisTrialN,bandit.thisN,bandit.thisIndex,bandit.ran,actual_rew1,actual_rew2,rew1,rew2,instruction_task.started,instruction_task.stopped,key_resp_7.keys,key_resp_7.rt,key_resp_7.duration,wait_ready.started,wait_ready.stopped,key_resp_3.keys,key_resp_3.rt,key_resp_3.duration,cue.started,cue.stopped,ori_response.started,ori_response.stopped,key_resp_5.keys,key_resp_5.rt,key_resp_5.duration,outcome.started,diff1,diff2,outcome.stopped,disp_outcome_practice.started,disp_outcome_practice.stopped,key_resp_4.keys,key_resp_4.rt,key_resp_4.duration,trials.thisRepN,trials.thisTrialN,trials.thisN,trials.thisIndex,trials.ran,ori1,ori2,break_blk.started,break_blk.stopped,block.thisRepN,block.thisTrialN,block.thisN,block.thisIndex,block.ran,condition_file
0.0003,0.0003,5ff81ab8d6f3fa546efbad4e,65af590c8504a42db6af8020,2024-01-23_06h19.05.553,bars,2023.2.3,Win32,11.99040767,657b66ea316d21385b68909f,,,,,,,,,,,,,,,,,,,,,,,,,,,,,,,,,,,,,,,,,,,,,,,,,,,,,,,,,,,,,,,,,,,,,,,,,,,,,,,,,,,,,,,,,,,,,,,,,,,,
,,5ff81ab8d6f3fa546efbad4e,65af590c8504a42db6af8020,2024-01-23_06h19.05.553,bars,2023.2.3,Win32,11.99040767,657b66ea316d21385b68909f,0.0005,5.6591,y,5.5913,,,,,,,,,,,,,,,,,,,,,,,,,,,,,,,,,,,,,,,,,,,,,,,,,,,,,,,,,,,,,,,,,,,,,,,,,,,,,,,,,,,,,,,,,,,,,,,,
,,5ff81ab8d6f3fa546efbad4e,65af590c8504a42db6af8020,2024-01-23_06h19.05.553,bars,2023.2.3,Win32,11.99040767,657b66ea316d21385b68909f,,,,,,5.6592,12.8831,space,7.1441,,,,,,,,,,,,,,,,,,,,,,,,,,,,,,,,,,,,,,,,,,,,,,,,,,,,,,,,,,,,,,,,,,,,,,,,,,,,,,,,,,,,,,,,,,,
,,5ff81ab8d6f3fa546efbad4e,65af590c8504a42db6af8020,2024-01-23_06h19.05.553,bars,2023.2.3,Win32,11.99040767,657b66ea316d21385b68909f,,,,,,,,,,,12.8862,13.8518,13.8519,14.3114,14.3114,14.5408,14.5408,105,105,18.8802,space,4.2696,,18.8803,23.5515,space,4.6048,,0,0,0,4,1,95,bars/single004.png,bars/mask004.png,,,,,,,,,,,,,,,,,,,,,,,,,,,,,,,,,,,,,,,,,,,,,,,,,,,,,,,,,,,,,,,,
,,5ff81ab8d6f3fa546efbad4e,65af590c8504a42db6af8020,2024-01-23_06h19.05.553,bars,2023.2.3,Win32,11.99040767,657b66ea316d21385b68909f,,,,,,,,,,,23.552,24.5037,24.5037,24.9694,24.9694,25.1946,25.1946,160,160,33.178,space,7.9066,,33.1781,36.568,space,3.3184,,0,1,1,0,1,150,bars/single000.png,bars/mask006.png,,,,,,,,,,,,,,,,,,,,,,,,,,,,,,,,,,,,,,,,,,,,,,,,,,,,,,,,,,,,,,,,
,,5ff81ab8d6f3fa546efbad4e,65af590c8504a42db6af8020,2024-01-23_06h19.05.553,bars,2023.2.3,Win32,11.99040767,657b66ea316d21385b68909f,,,,,,,,,,,36.5683,37.5728,37.5729,38.0902,38.0903,38.3203,38.3203,154,154,42.5358,space,4.1448,,42.5358,45.8389,space,3.2346,,0,2,2,6,1,175,bars/single006.png,bars/mask005.png,,,,,,,,,,,,,,,,,,,,,,,,,,,,,,,,,,,,,,,,,,,,,,,,,,,,,,,,,,,,,,,,
,,5ff81ab8d6f3fa546efbad4e,65af590c8504a42db6af8020,2024-01-23_06h19.05.553,bars,2023.2.3,Win32,11.99040767,657b66ea316d21385b68909f,,,,,,,,,,,45.8392,46.8406,46.8406,47.2987,47.2987,47.5165,47.5165,35,35,58.4974,space,10.9158,,58.4974,60.7522,space,2.1782,,0,3,3,7,1,45,bars/single007.png,bars/mask009.png,,,,,,,,,,,,,,,,,,,,,,,,,,,,,,,,,,,,,,,,,,,,,,,,,,,,,,,,,,,,,,,,
,,5ff81ab8d6f3fa546efbad4e,65af590c8504a42db6af8020,2024-01-23_06h19.05.553,bars,2023.2.3,Win32,11.99040767,657b66ea316d21385b68909f,,,,,,,,,,,60.7524,61.7666,61.7666,62.2746,62.2746,62.4911,62.4911,167,167,64.7008,space,2.1453,,64.7008,66.6723,space,1.9085,,0,4,4,8,1,160,bars/single008.png,bars/mask004.png,,,,,,,,,,,,,,,,,,,,,,,,,,,,,,,,,,,,,,,,,,,,,,,,,,,,,,,,,,,,,,,,
,,5ff81ab8d6f3fa546efbad4e,65af590c8504a42db6af8020,2024-01-23_06h19.05.553,bars,2023.2.3,Win32,11.99040767,657b66ea316d21385b68909f,,,,,,,,,,,66.6726,67.6242,67.6242,68.0889,68.0889,68.3081,68.3081,22,22,73.0365,space,4.6603,,73.0365,75.0706,space,1.9545,,0,5,5,9,1,20,bars/single009.png,bars/mask006.png,,,,,,,,,,,,,,,,,,,,,,,,,,,,,,,,,,,,,,,,,,,,,,,,,,,,,,,,,,,,,,,,
,,5ff81ab8d6f3fa546efbad4e,65af590c8504a42db6af8020,2024-01-23_06h19.05.553,bars,2023.2.3,Win32,11.99040767,657b66ea316d21385b68909f,,,,,,,,,,,75.0708,76.0524,76.0524,76.571,76.571,76.7825,76.7825,159,159,80.9067,space,4.0564,,80.9067,82.1916,space,1.2103,,0,6,6,2,1,145,bars/single002.png,bars/mask003.png,,,,,,,,,,,,,,,,,,,,,,,,,,,,,,,,,,,,,,,,,,,,,,,,,,,,,,,,,,,,,,,,
,,5ff81ab8d6f3fa546efbad4e,65af590c8504a42db6af8020,2024-01-23_06h19.05.553,bars,2023.2.3,Win32,11.99040767,657b66ea316d21385b68909f,,,,,,,,,,,82.1919,83.2007,83.2007,83.7052,83.7053,83.9336,83.9336,18,198,88.2773,space,4.2788,,88.2773,89.4994,space,1.1512,,0,7,7,3,1,20,bars/single003.png,bars/mask005.png,,,,,,,,,,,,,,,,,,,,,,,,,,,,,,,,,,,,,,,,,,,,,,,,,,,,,,,,,,,,,,,,
,,5ff81ab8d6f3fa546efbad4e,65af590c8504a42db6af8020,2024-01-23_06h19.05.553,bars,2023.2.3,Win32,11.99040767,657b66ea316d21385b68909f,,,,,,,,,,,89.4996,90.5162,90.5162,91.033,91.033,91.2537,91.2538,23,203,98.7263,space,7.4101,,98.7263,100.163,space,1.3659,1E-04,0,8,8,5,1,55,bars/single005.png,bars/mask008.png,,,,,,,,,,,,,,,,,,,,,,,,,,,,,,,,,,,,,,,,,,,,,,,,,,,,,,,,,,,,,,,,
,,5ff81ab8d6f3fa546efbad4e,65af590c8504a42db6af8020,2024-01-23_06h19.05.553,bars,2023.2.3,Win32,11.99040767,657b66ea316d21385b68909f,,,,,,,,,,,100.1632,101.1171,101.1171,101.5688,101.5688,101.7888,101.7888,17,17,104.4398,space,2.5821,,104.4398,112.2955,space,7.7741,,0,9,9,1,1,20,bars/single001.png,bars/mask006.png,,,,,,,,,,,,,,,,,,,,,,,,,,,,,,,,,,,,,,,,,,,,,,,,,,,,,,,,,,,,,,,,
,,5ff81ab8d6f3fa546efbad4e,65af590c8504a42db6af8020,2024-01-23_06h19.05.553,bars,2023.2.3,Win32,11.99040767,657b66ea316d21385b68909f,,,,,,,,,,,,,,,,,,,,,,,,,,,,,,,,,,,,,112.3006,124.784,space,12.4114,,,,,,,,,,,,,,,,,,,,,,,,,,,,,,,,,,,,,,,,,,,,,,,,,,,,,,,,,,,,
,,5ff81ab8d6f3fa546efbad4e,65af590c8504a42db6af8020,2024-01-23_06h19.05.553,bars,2023.2.3,Win32,11.99040767,657b66ea316d21385b68909f,,,,,,,,,,,,,,,,,,,,,,,,,,,,,,,,,,,,,,,,,,124.7904,126.505,left,1.643,,126.5051,9,1,127.4532,0,0,0,0,1,9,1,9,2,,,,,,,,,,,,,,,,,,,,,,,,,,,,,,,,,,,,,,,,,
,,5ff81ab8d6f3fa546efbad4e,65af590c8504a42db6af8020,2024-01-23_06h19.05.553,bars,2023.2.3,Win32,11.99040767,657b66ea316d21385b68909f,,,,,,,,,,,,,,,,,,,,,,,,,,,,,,,,,,,,,,,,,,127.4534,128.0572,left,0.5399,,128.0572,10,1,129.0731,0,1,1,1,1,10,0,10,1,,,,,,,,,,,,,,,,,,,,,,,,,,,,,,,,,,,,,,,,,
,,5ff81ab8d6f3fa546efbad4e,65af590c8504a42db6af8020,2024-01-23_06h19.05.553,bars,2023.2.3,Win32,11.99040767,657b66ea316d21385b68909f,,,,,,,,,,,,,,,,,,,,,,,,,,,,,,,,,,,,,,,,,,129.0733,129.6807,left,0.5344,,129.6807,10,1,130.6944,0,2,2,2,1,10,2,10,2,,,,,,,,,,,,,,,,,,,,,,,,,,,,,,,,,,,,,,,,,
,,5ff81ab8d6f3fa546efbad4e,65af590c8504a42db6af8020,2024-01-23_06h19.05.553,bars,2023.2.3,Win32,11.99040767,657b66ea316d21385b68909f,,,,,,,,,,,,,,,,,,,,,,,,,,,,,,,,,,,,,,,,,,130.6946,131.1412,left,0.3789,,131.1412,7,1,132.0937,0,3,3,3,1,8,4,7,3,,,,,,,,,,,,,,,,,,,,,,,,,,,,,,,,,,,,,,,,,
,,5ff81ab8d6f3fa546efbad4e,65af590c8504a42db6af8020,2024-01-23_06h19.05.553,bars,2023.2.3,Win32,11.99040767,657b66ea316d21385b68909f,,,,,,,,,,,,,,,,,,,,,,,,,,,,,,,,,,,,,,,,,,132.094,132.6052,right,0.4386,0.0001,132.6052,1,2,133.6229,0,4,4,4,1,6,2,5,1,,,,,,,,,,,,,,,,,,,,,,,,,,,,,,,,,,,,,,,,,
,,5ff81ab8d6f3fa546efbad4e,65af590c8504a42db6af8020,2024-01-23_06h19.05.553,bars,2023.2.3,Win32,11.99040767,657b66ea316d21385b68909f,,,,,,,,,,,,,,,,,,,,,,,,,,,,,,,,,,,,,,,,,,133.6233,134.0596,left,0.3704,,134.0596,4,1,135.074,0,5,5,5,1,4,4,4,4,,,,,,,,,,,,,,,,,,,,,,,,,,,,,,,,,,,,,,,,,
,,5ff81ab8d6f3fa546efbad4e,65af590c8504a42db6af8020,2024-01-23_06h19.05.553,bars,2023.2.3,Win32,11.99040767,657b66ea316d21385b68909f,,,,,,,,,,,,,,,,,,,,,,,,,,,,,,,,,,,,,,,,,,135.0743,135.5239,right,0.3828,,135.5239,2,2,136.5005,0,6,6,6,1,2,2,1,2,,,,,,,,,,,,,,,,,,,,,,,,,,,,,,,,,,,,,,,,,
,,5ff81ab8d6f3fa546efbad4e,65af590c8504a42db6af8020,2024-01-23_06h19.05.553,bars,2023.2.3,Win32,11.99040767,657b66ea316d21385b68909f,,,,,,,,,,,,,,,,,,,,,,,,,,,,,,,,,,,,,,,,,,136.5007,136.8741,left,0.3094,,136.8742,0,1,137.833,0,7,7,7,1,0,0,0,1,,,,,,,,,,,,,,,,,,,,,,,,,,,,,,,,,,,,,,,,,
,,5ff81ab8d6f3fa546efbad4e,65af590c8504a42db6af8020,2024-01-23_06h19.05.553,bars,2023.2.3,Win32,11.99040767,657b66ea316d21385b68909f,,,,,,,,,,,,,,,,,,,,,,,,,,,,,,,,,,,,,,,,,,137.8332,138.6461,right,0.7432,,138.6462,0,2,139.6414,0,8,8,8,1,0,2,1,0,,,,,,,,,,,,,,,,,,,,,,,,,,,,,,,,,,,,,,,,,
,,5ff81ab8d6f3fa546efbad4e,65af590c8504a42db6af8020,2024-01-23_06h19.05.553,bars,2023.2.3,Win32,11.99040767,657b66ea316d21385b68909f,,,,,,,,,,,,,,,,,,,,,,,,,,,,,,,,,,,,,,,,,,139.6415,140.0787,right,0.3643,,140.0787,3,2,141.0496,0,9,9,9,1,2,4,2,3,,,,,,,,,,,,,,,,,,,,,,,,,,,,,,,,,,,,,,,,,
,,5ff81ab8d6f3fa546efbad4e,65af590c8504a42db6af8020,2024-01-23_06h19.05.553,bars,2023.2.3,Win32,11.99040767,657b66ea316d21385b68909f,,,,,,,,,,,,,,,,,,,,,,,,,,,,,,,,,,,,,,,,,,141.0498,141.4173,left,0.2928,,141.4173,0,1,142.4238,0,10,10,10,1,0,2,0,3,,,,,,,,,,,,,,,,,,,,,,,,,,,,,,,,,,,,,,,,,
,,5ff81ab8d6f3fa546efbad4e,65af590c8504a42db6af8020,2024-01-23_06h19.05.553,bars,2023.2.3,Win32,11.99040767,657b66ea316d21385b68909f,,,,,,,,,,,,,,,,,,,,,,,,,,,,,,,,,,,,,,,,,,142.424,142.7969,right,0.3034,,142.7969,3,2,143.818,0,11,11,11,1,0,4,0,3,,,,,,,,,,,,,,,,,,,,,,,,,,,,,,,,,,,,,,,,,
,,5ff81ab8d6f3fa546efbad4e,65af590c8504a42db6af8020,2024-01-23_06h19.05.553,bars,2023.2.3,Win32,11.99040767,657b66ea316d21385b68909f,,,,,,,,,,,,,,,,,,,,,,,,,,,,,,,,,,,,,,,,,,143.8182,144.1168,right,0.2348,,144.1168,6,2,145.1372,0,12,12,12,1,2,6,1,6,,,,,,,,,,,,,,,,,,,,,,,,,,,,,,,,,,,,,,,,,
,,5ff81ab8d6f3fa546efbad4e,65af590c8504a42db6af8020,2024-01-23_06h19.05.553,bars,2023.2.3,Win32,11.99040767,657b66ea316d21385b68909f,,,,,,,,,,,,,,,,,,,,,,,,,,,,,,,,,,,,,,,,,,145.1375,145.5086,right,0.3044,,145.5086,3,2,146.506,0,13,13,13,1,0,4,1,3,,,,,,,,,,,,,,,,,,,,,,,,,,,,,,,,,,,,,,,,,
,,5ff81ab8d6f3fa546efbad4e,65af590c8504a42db6af8020,2024-01-23_06h19.05.553,bars,2023.2.3,Win32,11.99040767,657b66ea316d21385b68909f,,,,,,,,,,,,,,,,,,,,,,,,,,,,,,,,,,,,,,,,,,146.5061,146.7349,left,0.1654,,146.735,2,1,147.7513,0,14,14,14,1,2,6,2,7,,,,,,,,,,,,,,,,,,,,,,,,,,,,,,,,,,,,,,,,,
,,5ff81ab8d6f3fa546efbad4e,65af590c8504a42db6af8020,2024-01-23_06h19.05.553,bars,2023.2.3,Win32,11.99040767,657b66ea316d21385b68909f,,,,,,,,,,,,,,,,,,,,,,,,,,,,,,,,,,,,,,,,,,147.7516,147.975,right,0.1566,,147.975,9,2,148.9696,0,15,15,15,1,4,8,3,9,,,,,,,,,,,,,,,,,,,,,,,,,,,,,,,,,,,,,,,,,
,,5ff81ab8d6f3fa546efbad4e,65af590c8504a42db6af8020,2024-01-23_06h19.05.553,bars,2023.2.3,Win32,11.99040767,657b66ea316d21385b68909f,,,,,,,,,,,,,,,,,,,,,,,,,,,,,,,,,,,,,,,,,,148.9698,149.3374,right,0.306,,149.3375,7,2,150.3639,0,16,16,16,1,6,6,7,7,,,,,,,,,,,,,,,,,,,,,,,,,,,,,,,,,,,,,,,,,
,,5ff81ab8d6f3fa546efbad4e,65af590c8504a42db6af8020,2024-01-23_06h19.05.553,bars,2023.2.3,Win32,11.99040767,657b66ea316d21385b68909f,,,,,,,,,,,,,,,,,,,,,,,,,,,,,,,,,,,,,,,,,,150.3641,150.8969,right,0.4689,,150.8969,5,2,151.8616,0,17,17,17,1,8,4,9,5,,,,,,,,,,,,,,,,,,,,,,,,,,,,,,,,,,,,,,,,,
,,5ff81ab8d6f3fa546efbad4e,65af590c8504a42db6af8020,2024-01-23_06h19.05.553,bars,2023.2.3,Win32,11.99040767,657b66ea316d21385b68909f,,,,,,,,,,,,,,,,,,,,,,,,,,,,,,,,,,,,,,,,,,151.8618,152.093,left,0.1673,,152.093,5,1,153.0977,0,18,18,18,1,6,2,5,1,,,,,,,,,,,,,,,,,,,,,,,,,,,,,,,,,,,,,,,,,
,,5ff81ab8d6f3fa546efbad4e,65af590c8504a42db6af8020,2024-01-23_06h19.05.553,bars,2023.2.3,Win32,11.99040767,657b66ea316d21385b68909f,,,,,,,,,,,,,,,,,,,,,,,,,,,,,,,,,,,,,,,,,,153.0979,153.5457,right,0.384,,153.5457,0,2,154.5081,0,19,19,19,1,8,0,7,0,,,,,,,,,,,,,,,,,,,,,,,,,,,,,,,,,,,,,,,,,
,,5ff81ab8d6f3fa546efbad4e,65af590c8504a42db6af8020,2024-01-23_06h19.05.553,bars,2023.2.3,Win32,11.99040767,657b66ea316d21385b68909f,,,,,,,,,,,,,,,,,,,,,,,,,,,,,,,,,,,,,,,,,,,,,,,,,,,,,,,,,,,,154.5085,264.5687,space,109.9874,,,,,,,,,,,,,,,,,,,,,,,,,,,,,,,,,,,,,
,,5ff81ab8d6f3fa546efbad4e,65af590c8504a42db6af8020,2024-01-23_06h19.05.553,bars,2023.2.3,Win32,11.99040767,657b66ea316d21385b68909f,,,,,,,,,,,265.9125,266.868,,,267.3218,267.5481,,162,162,,,,,,,,,,,,,,,,bars/015.png,bars/mask003.png,,,,,,,,,,,,3,2,,,,,,,7,3,7,3,,,,,,264.5752,265.9102,space,1.2738,,266.8681,267.3218,267.5484,271.7994,space,4.1799,,271.7995,52,2,272.8143,272.8144,277.0043,space,4.1238,,0,0,0,0,1,110,160,,,,,,,,
,,5ff81ab8d6f3fa546efbad4e,65af590c8504a42db6af8020,2024-01-23_06h19.05.553,bars,2023.2.3,Win32,11.99040767,657b66ea316d21385b68909f,,,,,,,,,,,277.0093,277.9706,,,278.4358,278.6505,,157,157,,,,,,,,,,,,,,,,bars/007.png,bars/mask006.png,,,,,,,,,,,,3,1,,,,,,,5,1,7,0,,,,,,,,,,,277.9707,278.4358,278.6505,281.3478,space,2.6321,,281.3479,18,78,282.353,282.353,285.1062,space,2.6801,,0,1,1,1,1,175,55,,,,,,,,
,,5ff81ab8d6f3fa546efbad4e,65af590c8504a42db6af8020,2024-01-23_06h19.05.553,bars,2023.2.3,Win32,11.99040767,657b66ea316d21385b68909f,,,,,,,,,,,285.1064,286.1041,,,286.6047,286.821,,103,103,,,,,,,,,,,,,,,,bars/034.png,bars/mask005.png,,,,,,,,,,,,1,1,,,,,,,7,3,4,2,,,,,,,,,,,286.1041,286.6047,286.821,289.7894,space,2.897,,289.7894,22,38,290.7479,290.7479,292.2337,space,1.4145,,0,2,2,2,1,125,65,,,,,,,,
,,5ff81ab8d6f3fa546efbad4e,65af590c8504a42db6af8020,2024-01-23_06h19.05.553,bars,2023.2.3,Win32,11.99040767,657b66ea316d21385b68909f,,,,,,,,,,,292.2339,293.2431,,,293.7004,293.935,,107,107,,,,,,,,,,,,,,,,bars/001.png,bars/mask000.png,,,,,,,,,,,,1,2,,,,,,,9,5,10,5,,,,,,,,,,,293.2432,293.7004,293.935,298.5554,space,4.5549,,298.5555,23,22,299.563,299.563,301.0891,space,1.4545,,0,3,3,3,1,130,85,,,,,,,,
,,5ff81ab8d6f3fa546efbad4e,65af590c8504a42db6af8020,2024-01-23_06h19.05.553,bars,2023.2.3,Win32,11.99040767,657b66ea316d21385b68909f,,,,,,,,,,,301.0893,302.0376,,,302.5438,302.7586,,140,140,,,,,,,,,,,,,,,,bars/035.png,bars/mask006.png,,,,,,,,,,,,0,1,,,,,,,10,7,10,6,,,,,,,,,,,302.0377,302.5438,302.7586,305.8765,space,3.0468,,305.8765,35,80,306.8306,306.8306,308.3383,space,1.4354,,0,4,4,4,1,175,60,,,,,,,,
,,5ff81ab8d6f3fa546efbad4e,65af590c8504a42db6af8020,2024-01-23_06h19.05.553,bars,2023.2.3,Win32,11.99040767,657b66ea316d21385b68909f,,,,,,,,,,,308.3386,309.2824,,,309.7329,309.9666,,162,-18,,,,,,,,,,,,,,,,bars/035.png,bars/mask001.png,,,,,,,,,,,,6,1,,,,,,,10,5,10,5,,,,,,,,,,,309.2824,309.7328,309.9666,317.9279,space,7.8909,,317.9279,13,78,318.8802,318.8802,320.0221,space,1.0703,,0,5,5,5,1,175,60,,,,,,,,
,,5ff81ab8d6f3fa546efbad4e,65af590c8504a42db6af8020,2024-01-23_06h19.05.553,bars,2023.2.3,Win32,11.99040767,657b66ea316d21385b68909f,,,,,,,,,,,320.0224,320.9652,,,321.4189,321.6445,,28,28,,,,,,,,,,,,,,,,bars/041.png,bars/mask000.png,,,,,,,,,,,,7,1,,,,,,,10,7,10,7,,,,,,,,,,,320.9652,321.4189,321.6445,324.0287,space,2.3076,,324.0288,8,57,324.9914,324.9915,326.4101,space,1.3453,,0,6,6,6,1,20,85,,,,,,,,
,,5ff81ab8d6f3fa546efbad4e,65af590c8504a42db6af8020,2024-01-23_06h19.05.553,bars,2023.2.3,Win32,11.99040767,657b66ea316d21385b68909f,,,,,,,,,,,326.4104,327.3807,,,327.887,328.1199,,19,19,,,,,,,,,,,,,,,,bars/026.png,bars/mask002.png,,,,,,,,,,,,4,1,,,,,,,8,5,8,6,,,,,,,,,,,327.3807,327.887,328.1199,331.3102,space,3.1166,,331.3103,16,66,332.25,332.25,333.0959,space,0.7629,,0,7,7,7,1,35,85,,,,,,,,
,,5ff81ab8d6f3fa546efbad4e,65af590c8504a42db6af8020,2024-01-23_06h19.05.553,bars,2023.2.3,Win32,11.99040767,657b66ea316d21385b68909f,,,,,,,,,,,333.0962,334.1,,,334.6119,334.852,,9,189,,,,,,,,,,,,,,,,bars/004.png,bars/mask002.png,,,,,,,,,,,,2,1,,,,,,,6,7,4,7,,,,,,,,,,,334.1,334.6118,334.852,340.4358,space,5.511,,340.4358,16,64,341.4067,341.4067,342.3967,space,0.9179,,0,8,8,8,1,25,125,,,,,,,,
,,5ff81ab8d6f3fa546efbad4e,65af590c8504a42db6af8020,2024-01-23_06h19.05.553,bars,2023.2.3,Win32,11.99040767,657b66ea316d21385b68909f,,,,,,,,,,,342.3969,343.4195,,,343.9359,344.1638,,148,-32,,,,,,,,,,,,,,,,bars/004.png,bars/mask007.png,,,,,,,,,,,,2,2,,,,,,,4,9,4,9,,,,,,,,,,,343.4195,343.9359,344.1638,347.5832,space,3.3466,,347.5832,57,23,348.5808,348.5808,349.6775,space,1.014,,0,9,9,9,1,25,125,,,,,,,,
,,5ff81ab8d6f3fa546efbad4e,65af590c8504a42db6af8020,2024-01-23_06h19.05.553,bars,2023.2.3,Win32,11.99040767,657b66ea316d21385b68909f,,,,,,,,,,,349.6778,350.6393,,,351.1548,351.3747,,46,46,,,,,,,,,,,,,,,,bars/026.png,bars/mask001.png,,,,,,,,,,,,2,1,,,,,,,2,7,3,5,,,,,,,,,,,350.6393,351.1548,351.3748,353.2072,space,1.7675,,353.2072,11,39,354.198,354.1981,354.9316,space,0.6611,,0,10,10,10,1,35,85,,,,,,,,
,,5ff81ab8d6f3fa546efbad4e,65af590c8504a42db6af8020,2024-01-23_06h19.05.553,bars,2023.2.3,Win32,11.99040767,657b66ea316d21385b68909f,,,,,,,,,,,354.932,355.9049,,,356.3451,356.5657,,151,-29,,,,,,,,,,,,,,,,bars/049.png,bars/mask001.png,,,,,,,,,,,,0,1,,,,,,,0,5,0,6,,,,,,,,,,,355.905,356.345,356.5658,362.4481,space,5.8063,,362.4481,9,36,363.4566,363.4567,364.4423,space,0.9066,,0,11,11,11,1,160,115,,,,,,,,
,,5ff81ab8d6f3fa546efbad4e,65af590c8504a42db6af8020,2024-01-23_06h19.05.553,bars,2023.2.3,Win32,11.99040767,657b66ea316d21385b68909f,,,,,,,,,,,364.4426,365.4456,,,365.8965,366.1144,,60,240,,,,,,,,,,,,,,,,bars/011.png,bars/mask007.png,,,,,,,,,,,,0,2,,,,,,,0,3,1,2,,,,,,,,,,,365.4457,365.8965,366.1145,372.8351,space,6.6489,,372.8351,80,25,373.7882,373.7882,374.8188,space,0.9546,,0,12,12,12,1,160,85,,,,,,,,
,,5ff81ab8d6f3fa546efbad4e,65af590c8504a42db6af8020,2024-01-23_06h19.05.553,bars,2023.2.3,Win32,11.99040767,657b66ea316d21385b68909f,,,,,,,,,,,374.8192,375.7713,,,376.224,376.4422,,87,87,,,,,,,,,,,,,,,,bars/002.png,bars/mask002.png,,,,,,,,,,,,1,2,,,,,,,0,1,0,1,,,,,,,,,,,375.7713,376.2239,376.4423,378.0629,space,1.5475,,378.0629,43,2,379.0204,379.0204,380.3244,space,1.2303,,0,13,13,13,1,130,85,,,,,,,,
,,5ff81ab8d6f3fa546efbad4e,65af590c8504a42db6af8020,2024-01-23_06h19.05.553,bars,2023.2.3,Win32,11.99040767,657b66ea316d21385b68909f,,,,,,,,,,,380.3247,381.3308,,,381.7715,381.9941,,72,72,,,,,,,,,,,,,,,,bars/013.png,bars/mask003.png,,,,,,,,,,,,4,1,,,,,,,2,3,4,4,,,,,,,,,,,381.3308,381.7715,381.9942,384.9443,space,2.877,,384.9444,3,62,385.9545,385.9546,386.9506,space,0.9134,,0,14,14,14,1,75,10,,,,,,,,
,,5ff81ab8d6f3fa546efbad4e,65af590c8504a42db6af8020,2024-01-23_06h19.05.553,bars,2023.2.3,Win32,11.99040767,657b66ea316d21385b68909f,,,,,,,,,,,386.9508,387.9628,,,388.482,388.7058,,98,98,,,,,,,,,,,,,,,,bars/045.png,bars/mask003.png,,,,,,,,,,,,4,1,,,,,,,4,5,4,5,,,,,,,,,,,387.9629,388.482,388.7059,389.7568,space,0.979,,389.7568,2,88,390.757,390.757,391.6608,space,0.8315,,0,15,15,15,1,100,10,,,,,,,,
,,5ff81ab8d6f3fa546efbad4e,65af590c8504a42db6af8020,2024-01-23_06h19.05.553,bars,2023.2.3,Win32,11.99040767,657b66ea316d21385b68909f,,,,,,,,,,,391.6611,392.6128,,,393.0654,393.3003,,128,128,,,,,,,,,,,,,,,,bars/010.png,bars/mask001.png,,,,,,,,,,,,0,1,,,,,,,6,7,4,6,,,,,,,,,,,392.6128,393.0653,393.3003,398.3044,space,4.94,,398.3044,37,73,399.2756,399.2757,400.3406,space,0.987,,0,16,16,16,1,165,55,,,,,,,,
,,5ff81ab8d6f3fa546efbad4e,65af590c8504a42db6af8020,2024-01-23_06h19.05.553,bars,2023.2.3,Win32,11.99040767,657b66ea316d21385b68909f,,,,,,,,,,,400.3409,401.2998,,,401.8185,402.0403,,171,171,,,,,,,,,,,,,,,,bars/021.png,bars/mask001.png,,,,,,,,,,,,2,1,,,,,,,4,5,5,5,,,,,,,,,,,401.2999,401.8184,402.0404,404.5103,space,2.3997,,404.5103,16,79,405.5194,405.5194,406.5243,space,0.9338,,0,17,17,17,1,155,70,,,,,,,,
,,5ff81ab8d6f3fa546efbad4e,65af590c8504a42db6af8020,2024-01-23_06h19.05.553,bars,2023.2.3,Win32,11.99040767,657b66ea316d21385b68909f,,,,,,,,,,,406.5246,407.4745,,,407.9743,408.2054,,100,100,,,,,,,,,,,,,,,,bars/019.png,bars/mask009.png,,,,,,,,,,,,3,2,,,,,,,6,3,5,3,,,,,,,,,,,407.4746,407.9743,408.2054,412.0857,space,3.8126,,412.0857,55,5,413.0747,413.0747,414.1314,space,0.9834,,0,18,18,18,1,45,105,,,,,,,,
,,5ff81ab8d6f3fa546efbad4e,65af590c8504a42db6af8020,2024-01-23_06h19.05.553,bars,2023.2.3,Win32,11.99040767,657b66ea316d21385b68909f,,,,,,,,,,,414.1316,415.0922,,,415.5639,415.7816,,156,156,,,,,,,,,,,,,,,,bars/008.png,bars/mask007.png,,,,,,,,,,,,0,2,,,,,,,4,1,5,0,,,,,,,,,,,415.0922,415.5639,415.7816,420.3874,space,4.5337,,420.3874,46,24,421.3514,421.3514,422.4256,space,0.9986,,0,19,19,19,1,110,0,,,,,,,,
,,5ff81ab8d6f3fa546efbad4e,65af590c8504a42db6af8020,2024-01-23_06h19.05.553,bars,2023.2.3,Win32,11.99040767,657b66ea316d21385b68909f,,,,,,,,,,,422.4258,423.4274,,,423.9351,424.1516,,20,20,,,,,,,,,,,,,,,,bars/012.png,bars/mask005.png,,,,,,,,,,,,3,2,,,,,,,2,3,2,3,,,,,,,,,,,423.4275,423.9351,424.1516,428.5602,space,4.3418,,428.5603,70,5,429.533,429.533,430.701,space,1.0855,,0,20,20,20,1,90,15,,,,,,,,
,,5ff81ab8d6f3fa546efbad4e,65af590c8504a42db6af8020,2024-01-23_06h19.05.553,bars,2023.2.3,Win32,11.99040767,657b66ea316d21385b68909f,,,,,,,,,,,430.7012,431.6553,,,432.1078,432.3253,,155,155,,,,,,,,,,,,,,,,bars/039.png,bars/mask002.png,,,,,,,,,,,,1,1,,,,,,,4,5,4,4,,,,,,,,,,,431.6553,432.1077,432.3254,436.9341,space,4.5424,,436.9341,20,50,437.9326,437.9327,439.0684,space,1.0574,,0,21,21,21,1,175,105,,,,,,,,
,,5ff81ab8d6f3fa546efbad4e,65af590c8504a42db6af8020,2024-01-23_06h19.05.553,bars,2023.2.3,Win32,11.99040767,657b66ea316d21385b68909f,,,,,,,,,,,439.0686,440.0794,,,440.5905,440.8037,,7,187,,,,,,,,,,,,,,,,bars/008.png,bars/mask007.png,,,,,,,,,,,,2,2,,,,,,,2,3,3,2,,,,,,,,,,,440.0795,440.5905,440.8037,446.7507,space,5.8739,,446.7507,77,7,447.7197,447.7197,455.4486,space,7.6555,,0,22,22,22,1,110,0,,,,,,,,
,,5ff81ab8d6f3fa546efbad4e,65af590c8504a42db6af8020,2024-01-23_06h19.05.553,bars,2023.2.3,Win32,11.99040767,657b66ea316d21385b68909f,,,,,,,,,,,455.4541,456.4618,,,456.9608,457.1858,,25,25,,,,,,,,,,,,,,,,bars/013.png,bars/mask001.png,,,,,,,,,,,,0,2,,,,,,,0,1,1,0,,,,,,,,,,,456.4618,456.9608,457.1859,461.9773,space,4.7275,,461.9773,50,15,462.9968,462.9968,463.8405,space,0.7708,,0,23,23,23,1,75,10,,,,,,,,
,,5ff81ab8d6f3fa546efbad4e,65af590c8504a42db6af8020,2024-01-23_06h19.05.553,bars,2023.2.3,Win32,11.99040767,657b66ea316d21385b68909f,,,,,,,,,,,463.8408,464.7936,,,465.2998,465.525,,55,55,,,,,,,,,,,,,,,,bars/021.png,bars/mask002.png,,,,,,,,,,,,1,2,,,,,,,0,0,0,1,,,,,,,,,,,464.7937,465.2998,465.525,470.3481,space,4.7574,,470.3482,80,15,471.306,471.306,473.2376,space,1.8566,,0,24,24,24,1,155,70,,,,,,,,
,,5ff81ab8d6f3fa546efbad4e,65af590c8504a42db6af8020,2024-01-23_06h19.05.553,bars,2023.2.3,Win32,11.99040767,657b66ea316d21385b68909f,,,,,,,,,,,473.2379,474.2132,,,474.675,474.905,,152,152,,,,,,,,,,,,,,,,bars/022.png,bars/mask000.png,,,,,,,,,,,,0,2,,,,,,,0,0,0,1,,,,,,,,,,,474.2132,474.6749,474.9051,477.6665,space,2.6853,,477.6666,57,48,478.6227,478.6228,481.9558,space,3.2654,,0,25,25,25,1,95,20,,,,,,,,
,,5ff81ab8d6f3fa546efbad4e,65af590c8504a42db6af8020,2024-01-23_06h19.05.553,bars,2023.2.3,Win32,11.99040767,657b66ea316d21385b68909f,,,,,,,,,,,481.9561,482.9186,,,483.3674,483.5982,,140,140,,,,,,,,,,,,,,,,bars/015.png,bars/mask003.png,,,,,,,,,,,,0,2,,,,,,,0,0,1,0,,,,,,,,,,,482.9186,483.3673,483.5982,486.5068,space,2.8413,,486.5068,30,20,487.448,487.4481,488.5173,space,0.9983,,0,26,26,26,1,110,160,,,,,,,,
,,5ff81ab8d6f3fa546efbad4e,65af590c8504a42db6af8020,2024-01-23_06h19.05.553,bars,2023.2.3,Win32,11.99040767,657b66ea316d21385b68909f,,,,,,,,,,,488.5174,489.5311,,,489.9842,490.2078,,154,154,,,,,,,,,,,,,,,,bars/003.png,bars/mask008.png,,,,,,,,,,,,1,2,,,,,,,0,2,1,2,,,,,,,,,,,489.5311,489.9842,490.2078,492.4385,space,2.1611,,492.4385,51,14,493.4426,493.4426,495.7137,space,2.2012,,0,27,27,27,1,25,140,,,,,,,,
,,5ff81ab8d6f3fa546efbad4e,65af590c8504a42db6af8020,2024-01-23_06h19.05.553,bars,2023.2.3,Win32,11.99040767,657b66ea316d21385b68909f,,,,,,,,,,,495.714,496.7352,,,497.1895,497.4158,,110,110,,,,,,,,,,,,,,,,bars/030.png,bars/mask002.png,,,,,,,,,,,,0,1,,,,,,,2,4,1,6,,,,,,,,,,,496.7352,497.1895,497.4158,499.7756,space,2.2912,,499.7757,30,45,500.7379,500.7379,501.9884,space,1.1768,,0,28,28,28,1,140,65,,,,,,,,
,,5ff81ab8d6f3fa546efbad4e,65af590c8504a42db6af8020,2024-01-23_06h19.05.553,bars,2023.2.3,Win32,11.99040767,657b66ea316d21385b68909f,,,,,,,,,,,501.9887,503.0098,,,503.5186,503.7318,,164,164,,,,,,,,,,,,,,,,bars/039.png,bars/mask002.png,,,,,,,,,,,,0,1,,,,,,,0,2,0,2,,,,,,,,,,,503.0098,503.5186,503.7318,508.7734,space,4.9711,,508.7734,11,59,509.7832,509.7833,515.9274,space,6.0733,,0,29,29,29,1,175,105,,,,,,,,
,,5ff81ab8d6f3fa546efbad4e,65af590c8504a42db6af8020,2024-01-23_06h19.05.553,bars,2023.2.3,Win32,11.99040767,657b66ea316d21385b68909f,,,,,,,,,,,515.9277,516.8972,,,517.4246,517.6461,,147,147,,,,,,,,,,,,,,,,bars/000.png,bars/mask008.png,,,,,,,,,,,,6,2,,,,,,,0,4,1,6,,,,,,,,,,,516.8972,517.4246,517.6461,524.8486,space,7.13,,524.8487,73,2,525.8635,525.8636,533.8007,space,7.8571,,0,30,30,30,1,40,145,,,,,,,,
,,5ff81ab8d6f3fa546efbad4e,65af590c8504a42db6af8020,2024-01-23_06h19.05.553,bars,2023.2.3,Win32,11.99040767,657b66ea316d21385b68909f,,,,,,,,,,,533.8011,534.8053,,,535.3043,535.5225,,117,117,,,,,,,,,,,,,,,,bars/043.png,bars/mask005.png,,,,,,,,,,,,1,2,,,,,,,2,2,2,2,,,,,,,,,,,534.8054,535.3043,535.5225,537.4348,space,1.8381,,537.4348,87,13,538.4622,538.4622,539.624,space,1.0841,,0,31,31,31,1,30,130,,,,,,,,
,,5ff81ab8d6f3fa546efbad4e,65af590c8504a42db6af8020,2024-01-23_06h19.05.553,bars,2023.2.3,Win32,11.99040767,657b66ea316d21385b68909f,,,,,,,,,,,539.6242,540.6208,,,541.0755,541.2898,,118,118,,,,,,,,,,,,,,,,bars/012.png,bars/mask007.png,,,,,,,,,,,,0,1,,,,,,,4,4,4,3,,,,,,,,,,,540.6209,541.0755,541.2898,544.7865,space,3.427,,544.7866,28,77,545.7255,545.7255,546.6359,space,0.8433,,0,32,32,32,1,90,15,,,,,,,,
,,5ff81ab8d6f3fa546efbad4e,65af590c8504a42db6af8020,2024-01-23_06h19.05.553,bars,2023.2.3,Win32,11.99040767,657b66ea316d21385b68909f,,,,,,,,,,,546.6361,547.6187,,,548.1432,548.3764,,141,-39,,,,,,,,,,,,,,,,bars/034.png,bars/mask007.png,,,,,,,,,,,,3,1,,,,,,,6,6,6,5,,,,,,,,,,,547.6187,548.1432,548.3764,553.5331,space,5.083,,553.5331,16,76,554.4804,554.4805,561.1303,space,6.5782,,0,33,33,33,1,125,65,,,,,,,,
,,5ff81ab8d6f3fa546efbad4e,65af590c8504a42db6af8020,2024-01-23_06h19.05.553,bars,2023.2.3,Win32,11.99040767,657b66ea316d21385b68909f,,,,,,,,,,,561.1353,562.1447,,,562.5983,562.8314,,22,22,,,,,,,,,,,,,,,,bars/006.png,bars/mask009.png,,,,,,,,,,,,4,1,,,,,,,8,8,7,7,,,,,,,,,,,562.1447,562.5982,562.8314,566.7646,space,3.8601,,566.7646,13,78,567.7773,567.7773,568.8423,space,0.9956,,0,34,34,34,1,35,100,,,,,,,,
,,5ff81ab8d6f3fa546efbad4e,65af590c8504a42db6af8020,2024-01-23_06h19.05.553,bars,2023.2.3,Win32,11.99040767,657b66ea316d21385b68909f,,,,,,,,,,,568.8426,569.7958,,,570.2611,570.487,,106,106,,,,,,,,,,,,,,,,bars/025.png,bars/mask008.png,,,,,,,,,,,,6,1,,,,,,,6,10,6,10,,,,,,,,,,,569.7958,570.2611,570.487,579.0088,space,8.4486,,579.0089,1,66,579.9623,579.9624,581.8208,space,1.7798,,0,35,35,35,1,105,40,,,,,,,,
,,5ff81ab8d6f3fa546efbad4e,65af590c8504a42db6af8020,2024-01-23_06h19.05.553,bars,2023.2.3,Win32,11.99040767,657b66ea316d21385b68909f,,,,,,,,,,,581.8211,582.77,,,583.2092,583.4315,,140,-40,,,,,,,,,,,,,,,,bars/018.png,bars/mask006.png,,,,,,,,,,,,5,1,,,,,,,8,10,7,8,,,,,,,,,,,582.77,583.2092,583.4315,588.9992,space,5.4977,,588.9992,10,50,590.0034,590.0034,591.0011,space,0.924,,0,36,36,36,1,150,90,,,,,,,,
,,5ff81ab8d6f3fa546efbad4e,65af590c8504a42db6af8020,2024-01-23_06h19.05.553,bars,2023.2.3,Win32,11.99040767,657b66ea316d21385b68909f,,,,,,,,,,,591.0014,591.9483,,,592.4523,592.6777,,41,41,,,,,,,,,,,,,,,,bars/028.png,bars/mask008.png,,,,,,,,,,,,5,1,,,,,,,6,10,6,10,,,,,,,,,,,591.9484,592.4523,592.6778,598.4838,space,5.7347,,598.4838,4,79,599.439,599.4391,600.1183,space,0.6082,,0,37,37,37,1,45,120,,,,,,,,
,,5ff81ab8d6f3fa546efbad4e,65af590c8504a42db6af8020,2024-01-23_06h19.05.553,bars,2023.2.3,Win32,11.99040767,657b66ea316d21385b68909f,,,,,,,,,,,600.1186,601.0929,,,601.6146,601.8417,,22,202,,,,,,,,,,,,,,,,bars/004.png,bars/mask001.png,,,,,,,,,,,,6,1,,,,,,,8,10,7,10,,,,,,,,,,,601.0929,601.6146,601.8417,606.8728,space,4.9547,,606.8729,3,77,607.891,607.8911,608.3416,space,0.3757,,0,38,38,38,1,25,125,,,,,,,,
,,5ff81ab8d6f3fa546efbad4e,65af590c8504a42db6af8020,2024-01-23_06h19.05.553,bars,2023.2.3,Win32,11.99040767,657b66ea316d21385b68909f,,,,,,,,,,,608.342,609.2999,,,609.7436,609.9705,,137,137,,,,,,,,,,,,,,,,bars/020.png,bars/mask004.png,,,,,,,,,,,,2,1,,,,,,,6,10,6,10,,,,,,,,,,,609.2999,609.7436,609.9706,612.9558,space,2.9202,,612.9558,22,33,613.9119,613.9119,619.617,space,5.6294,,0,39,39,39,1,115,170,,,,,,,,
,,5ff81ab8d6f3fa546efbad4e,65af590c8504a42db6af8020,2024-01-23_06h19.05.553,bars,2023.2.3,Win32,11.99040767,657b66ea316d21385b68909f,,,,,,,,,,,619.6222,620.6411,,,621.0853,621.3046,,135,135,,,,,,,,,,,,,,,,bars/002.png,bars/mask009.png,,,,,,,,,,,,8,1,,,,,,,8,10,9,10,,,,,,,,,,,620.6411,621.0853,621.3046,624.2914,space,2.9179,,624.2914,5,50,625.3144,625.3144,626.5337,space,1.1478,,0,40,40,40,1,130,85,,,,,,,,
,,5ff81ab8d6f3fa546efbad4e,65af590c8504a42db6af8020,2024-01-23_06h19.05.553,bars,2023.2.3,Win32,11.99040767,657b66ea316d21385b68909f,,,,,,,,,,,626.5341,627.5366,,,628.0448,628.2698,,136,136,,,,,,,,,,,,,,,,bars/040.png,bars/mask009.png,,,,,,,,,,,,4,1,,,,,,,6,8,5,7,,,,,,,,,,,627.5366,628.0448,628.2698,632.7953,space,4.4607,,632.7953,4,49,633.8089,633.8089,635.6216,space,1.7388,,0,41,41,41,1,140,5,,,,,,,,
,,5ff81ab8d6f3fa546efbad4e,65af590c8504a42db6af8020,2024-01-23_06h19.05.553,bars,2023.2.3,Win32,11.99040767,657b66ea316d21385b68909f,,,,,,,,,,,635.6219,636.6289,,,637.081,637.2928,,7,187,,,,,,,,,,,,,,,,bars/003.png,bars/mask007.png,,,,,,,,,,,,4,1,,,,,,,8,10,9,8,,,,,,,,,,,636.6289,637.081,637.2928,642.2099,space,4.8519,,642.2099,18,47,643.2021,643.2022,644.0676,space,0.7909,,0,42,42,42,1,25,140,,,,,,,,
,,5ff81ab8d6f3fa546efbad4e,65af590c8504a42db6af8020,2024-01-23_06h19.05.553,bars,2023.2.3,Win32,11.99040767,657b66ea316d21385b68909f,,,,,,,,,,,644.0678,645.0718,,,645.5736,645.786,,163,-17,,,,,,,,,,,,,,,,bars/038.png,bars/mask000.png,,,,,,,,,,,,7,1,,,,,,,10,8,8,8,,,,,,,,,,,645.0718,645.5736,645.786,648.5518,space,2.6961,,648.5518,2,87,649.5643,649.5643,650.3402,space,0.7096,,0,43,43,43,1,165,70,,,,,,,,
,,5ff81ab8d6f3fa546efbad4e,65af590c8504a42db6af8020,2024-01-23_06h19.05.553,bars,2023.2.3,Win32,11.99040767,657b66ea316d21385b68909f,,,,,,,,,,,650.3403,651.3273,,,651.7826,652.0041,,61,61,,,,,,,,,,,,,,,,bars/044.png,bars/mask001.png,,,,,,,,,,,,5,1,,,,,,,10,6,9,8,,,,,,,,,,,651.3273,651.7826,652.0041,655.9297,space,3.8561,,655.9297,14,86,656.8779,656.8779,657.5539,space,0.5982,,0,44,44,44,1,75,155,,,,,,,,
,,5ff81ab8d6f3fa546efbad4e,65af590c8504a42db6af8020,2024-01-23_06h19.05.553,bars,2023.2.3,Win32,11.99040767,657b66ea316d21385b68909f,,,,,,,,,,,657.5541,658.5596,,,659.0062,659.226,,50,50,,,,,,,,,,,,,,,,bars/048.png,bars/mask000.png,,,,,,,,,,,,10,1,,,,,,,10,4,10,7,,,,,,,,,,,658.5596,659.0062,659.2261,660.4095,space,1.1108,,660.4095,0,55,661.4249,661.4249,662.098,space,0.595,,0,45,45,45,1,50,175,,,,,,,,
,,5ff81ab8d6f3fa546efbad4e,65af590c8504a42db6af8020,2024-01-23_06h19.05.553,bars,2023.2.3,Win32,11.99040767,657b66ea316d21385b68909f,,,,,,,,,,,662.0982,663.0433,,,663.5365,663.7436,,136,136,,,,,,,,,,,,,,,,bars/049.png,bars/mask000.png,,,,,,,,,,,,0,2,,,,,,,8,2,9,1,,,,,,,,,,,663.0433,663.5365,663.7436,666.6663,space,2.8489,,666.6663,24,21,667.6693,667.6693,669.5109,space,1.763,,0,46,46,46,1,160,115,,,,,,,,
,,5ff81ab8d6f3fa546efbad4e,65af590c8504a42db6af8020,2024-01-23_06h19.05.553,bars,2023.2.3,Win32,11.99040767,657b66ea316d21385b68909f,,,,,,,,,,,669.5111,670.5037,,,671.0039,671.2176,,160,-20,,,,,,,,,,,,,,,,bars/039.png,bars/mask008.png,,,,,,,,,,,,4,1,,,,,,,6,4,7,5,,,,,,,,,,,670.5037,671.0038,671.2176,676.896,space,5.6121,,676.896,15,55,677.8581,677.8581,678.5593,space,0.6272,,0,47,47,47,1,175,105,,,,,,,,
,,5ff81ab8d6f3fa546efbad4e,65af590c8504a42db6af8020,2024-01-23_06h19.05.553,bars,2023.2.3,Win32,11.99040767,657b66ea316d21385b68909f,,,,,,,,,,,678.5596,679.558,,,680.0206,680.2394,,33,33,,,,,,,,,,,,,,,,bars/048.png,bars/mask006.png,,,,,,,,,,,,0,1,,,,,,,4,2,1,2,,,,,,,,,,,679.558,680.0205,680.2394,682.0492,space,1.7413,,682.0492,17,38,683.0499,683.0499,696.2259,space,13.1006,,0,48,48,48,1,50,175,,,,,,,,
,,5ff81ab8d6f3fa546efbad4e,65af590c8504a42db6af8020,2024-01-23_06h19.05.553,bars,2023.2.3,Win32,11.99040767,657b66ea316d21385b68909f,,,,,,,,,,,696.2314,697.1708,,,697.6097,697.8342,,167,-13,,,,,,,,,,,,,,,,bars/046.png,bars/mask000.png,,,,,,,,,,,,3,1,,,,,,,6,0,5,0,,,,,,,,,,,697.1708,697.6096,697.8342,699.7127,space,1.8139,,699.7127,12,82,700.7096,700.7097,701.1672,space,0.3863,,0,49,49,49,1,155,85,,,,,,,,
,,5ff81ab8d6f3fa546efbad4e,65af590c8504a42db6af8020,2024-01-23_06h19.05.553,bars,2023.2.3,Win32,11.99040767,657b66ea316d21385b68909f,,,,,,,,,,,,,,,,,,,,,,,,,,,,,,,,,,,,,,,,,,,,,,,,,,,,,,,,,,,,,,,,,,,,,,,,,,,,,,,,,,,,,,,,,,,,,701.1676,764.6951,0,0,0,3,1,sequence_tables/blk021.csv
,,5ff81ab8d6f3fa546efbad4e,65af590c8504a42db6af8020,2024-01-23_06h19.05.553,bars,2023.2.3,Win32,11.99040767,657b66ea316d21385b68909f,,,,,,,,,,,770.0365,771.0163,,,771.5154,771.7276,,116,116,,,,,,,,,,,,,,,,bars/030.png,bars/mask007.png,,,,,,,,,,,,1,1,,,,,,,3,6,4,4,,,,,,764.701,770.0293,space,5.2557,,771.0164,771.5154,771.7276,774.3761,space,2.575,,774.3761,24,51,775.327,775.327,775.3275,,,,0,0,0,0,1,140,65,,,,,,,,
,,5ff81ab8d6f3fa546efbad4e,65af590c8504a42db6af8020,2024-01-23_06h19.05.553,bars,2023.2.3,Win32,11.99040767,657b66ea316d21385b68909f,,,,,,,,,,,775.3276,776.3451,,,776.8664,777.0988,,125,125,,,,,,,,,,,,,,,,bars/034.png,bars/mask005.png,,,,,,,,,,,,1,1,,,,,,,1,4,1,2,,,,,,,,,,,776.3451,776.8664,777.0988,781.7343,space,4.5637,,781.7343,0,60,782.6905,782.6905,782.6909,,,,0,1,1,1,1,125,65,,,,,,,,
,,5ff81ab8d6f3fa546efbad4e,65af590c8504a42db6af8020,2024-01-23_06h19.05.553,bars,2023.2.3,Win32,11.99040767,657b66ea316d21385b68909f,,,,,,,,,,,782.6911,783.6822,,,784.1875,784.4171,,142,142,,,,,,,,,,,,,,,,bars/039.png,bars/mask003.png,,,,,,,,,,,,0,1,,,,,,,0,2,0,3,,,,,,,,,,,783.6822,784.1874,784.4171,788.7904,space,4.3026,,788.7904,33,37,789.7376,789.7376,789.738,,,,0,2,2,2,1,175,105,,,,,,,,
,,5ff81ab8d6f3fa546efbad4e,65af590c8504a42db6af8020,2024-01-23_06h19.05.553,bars,2023.2.3,Win32,11.99040767,657b66ea316d21385b68909f,,,,,,,,,,,789.7381,790.7445,,,791.1853,791.4047,,172,172,,,,,,,,,,,,,,,,bars/012.png,bars/mask001.png,,,,,,,,,,,,0,2,,,,,,,2,0,1,1,,,,,,,,,,,790.7445,791.1852,791.4047,799.2649,space,7.7906,,799.2649,82,23,800.278,800.278,800.2797,,,,0,3,3,3,1,90,15,,,,,,,,
,,5ff81ab8d6f3fa546efbad4e,65af590c8504a42db6af8020,2024-01-23_06h19.05.553,bars,2023.2.3,Win32,11.99040767,657b66ea316d21385b68909f,,,,,,,,,,,800.2799,801.2404,,,801.6874,801.9044,,170,-10,,,,,,,,,,,,,,,,bars/048.png,bars/mask001.png,,,,,,,,,,,,1,2,,,,,,,0,0,0,1,,,,,,,,,,,801.2404,801.6874,801.9045,806.5693,space,4.6044,,806.5693,60,5,807.5788,807.5788,807.5793,,,,0,4,4,4,1,50,175,,,,,,,,
,,5ff81ab8d6f3fa546efbad4e,65af590c8504a42db6af8020,2024-01-23_06h19.05.553,bars,2023.2.3,Win32,11.99040767,657b66ea316d21385b68909f,,,,,,,,,,,807.5795,808.5427,,,809.0638,809.2859,,152,-28,,,,,,,,,,,,,,,,bars/037.png,bars/mask005.png,,,,,,,,,,,,0,1,,,,,,,0,0,0,0,,,,,,,,,,,808.5427,809.0638,809.286,815.8211,space,6.464,,815.8211,2,47,816.8198,816.8198,816.8256,,,,0,5,5,5,1,150,105,,,,,,,,
,,5ff81ab8d6f3fa546efbad4e,65af590c8504a42db6af8020,2024-01-23_06h19.05.553,bars,2023.2.3,Win32,11.99040767,657b66ea316d21385b68909f,,,,,,,,,,,816.8257,817.828,,,818.3325,818.5542,,162,162,,,,,,,,,,,,,,,,bars/020.png,bars/mask007.png,,,,,,,,,,,,2,2,,,,,,,0,2,2,3,,,,,,,,,,,817.8281,818.3325,818.5542,820.612,space,1.9893,,820.6121,47,8,821.6256,821.6256,821.6315,,,,0,6,6,6,1,115,170,,,,,,,,
,,5ff81ab8d6f3fa546efbad4e,65af590c8504a42db6af8020,2024-01-23_06h19.05.553,bars,2023.2.3,Win32,11.99040767,657b66ea316d21385b68909f,,,,,,,,,,,821.6316,822.6227,,,823.1462,823.3649,,24,204,,,,,,,,,,,,,,,,bars/010.png,bars/mask006.png,,,,,,,,,,,,0,2,,,,,,,2,0,1,0,,,,,,,,,,,822.6228,823.1462,823.3649,828.5063,space,5.0703,,828.5063,39,31,829.4745,829.4745,829.475,,,,0,7,7,7,1,165,55,,,,,,,,
,,5ff81ab8d6f3fa546efbad4e,65af590c8504a42db6af8020,2024-01-23_06h19.05.553,bars,2023.2.3,Win32,11.99040767,657b66ea316d21385b68909f,,,,,,,,,,,829.4751,830.4736,,,830.9816,831.2103,,142,-38,,,,,,,,,,,,,,,,bars/037.png,bars/mask000.png,,,,,,,,,,,,3,1,,,,,,,4,2,4,1,,,,,,,,,,,830.4736,830.9815,831.2103,837.0897,space,5.8092,,837.0897,8,37,838.0751,838.0751,838.0763,,,,0,8,8,8,1,150,105,,,,,,,,
,,5ff81ab8d6f3fa546efbad4e,65af590c8504a42db6af8020,2024-01-23_06h19.05.553,bars,2023.2.3,Win32,11.99040767,657b66ea316d21385b68909f,,,,,,,,,,,838.0765,839.0807,,,839.5326,839.7481,,40,220,,,,,,,,,,,,,,,,bars/034.png,bars/mask003.png,,,,,,,,,,,,0,2,,,,,,,2,0,2,0,,,,,,,,,,,839.0807,839.5325,839.7481,846.0864,space,6.2756,,846.0864,85,25,847.0315,847.0315,847.0327,,,,0,9,9,9,1,125,65,,,,,,,,
,,5ff81ab8d6f3fa546efbad4e,65af590c8504a42db6af8020,2024-01-23_06h19.05.553,bars,2023.2.3,Win32,11.99040767,657b66ea316d21385b68909f,,,,,,,,,,,847.0328,848.0346,,,848.5391,848.771,,50,50,,,,,,,,,,,,,,,,bars/017.png,bars/mask008.png,,,,,,,,,,,,0,2,,,,,,,4,0,4,0,,,,,,,,,,,848.0346,848.5391,848.771,852.5564,space,3.7219,,852.5564,85,5,853.526,853.5261,853.5266,,,,0,10,10,10,1,145,45,,,,,,,,
,,5ff81ab8d6f3fa546efbad4e,65af590c8504a42db6af8020,2024-01-23_06h19.05.553,bars,2023.2.3,Win32,11.99040767,657b66ea316d21385b68909f,,,,,,,,,,,853.5267,854.4766,,,854.9901,855.2062,,62,62,,,,,,,,,,,,,,,,bars/027.png,bars/mask008.png,,,,,,,,,,,,0,2,,,,,,,6,0,6,0,,,,,,,,,,,854.4767,854.9901,855.2063,861.4147,space,6.1344,,861.4148,48,12,862.4333,862.4333,862.4338,,,,0,11,11,11,1,110,50,,,,,,,,
,,5ff81ab8d6f3fa546efbad4e,65af590c8504a42db6af8020,2024-01-23_06h19.05.553,bars,2023.2.3,Win32,11.99040767,657b66ea316d21385b68909f,,,,,,,,,,,862.4339,863.4444,,,863.8989,864.1146,,129,129,,,,,,,,,,,,,,,,bars/017.png,bars/mask007.png,,,,,,,,,,,,2,1,,,,,,,4,0,5,1,,,,,,,,,,,863.4444,863.8989,864.1146,871.0296,space,6.8432,,871.0297,16,84,871.9778,871.9778,871.979,,,,0,12,12,12,1,145,45,,,,,,,,
,,5ff81ab8d6f3fa546efbad4e,65af590c8504a42db6af8020,2024-01-23_06h19.05.553,bars,2023.2.3,Win32,11.99040767,657b66ea316d21385b68909f,,,,,,,,,,,871.9791,872.9349,,,873.3907,873.6139,,33,33,,,,,,,,,,,,,,,,bars/048.png,bars/mask004.png,,,,,,,,,,,,3,1,,,,,,,6,0,6,0,,,,,,,,,,,872.9349,873.3907,873.6139,876.6995,space,3.0254,,876.6996,17,38,877.7084,877.7084,877.709,,,,0,13,13,13,1,50,175,,,,,,,,
,,5ff81ab8d6f3fa546efbad4e,65af590c8504a42db6af8020,2024-01-23_06h19.05.553,bars,2023.2.3,Win32,11.99040767,657b66ea316d21385b68909f,,,,,,,,,,,877.7092,878.7083,,,879.2231,879.4891,,42,42,,,,,,,,,,,,,,,,bars/014.png,bars/mask004.png,,,,,,,,,,,,0,1,,,,,,,4,0,4,0,,,,,,,,,,,878.7083,879.2231,879.4891,882.4082,space,2.8495,,882.4082,38,42,883.4119,883.412,883.4125,,,,0,14,14,14,1,80,0,,,,,,,,
,,5ff81ab8d6f3fa546efbad4e,65af590c8504a42db6af8020,2024-01-23_06h19.05.553,bars,2023.2.3,Win32,11.99040767,657b66ea316d21385b68909f,,,,,,,,,,,883.4126,884.3733,,,884.8915,885.1213,,62,62,,,,,,,,,,,,,,,,bars/014.png,bars/mask007.png,,,,,,,,,,,,0,1,,,,,,,2,2,1,3,,,,,,,,,,,884.3733,884.8914,885.1213,890.4665,space,5.2858,,890.4666,18,62,891.4703,891.4703,891.4706,,,,0,15,15,15,1,80,0,,,,,,,,
,,5ff81ab8d6f3fa546efbad4e,65af590c8504a42db6af8020,2024-01-23_06h19.05.553,bars,2023.2.3,Win32,11.99040767,657b66ea316d21385b68909f,,,,,,,,,,,891.4707,892.4888,,,892.9315,893.1489,,73,73,,,,,,,,,,,,,,,,bars/042.png,bars/mask005.png,,,,,,,,,,,,5,2,,,,,,,4,4,5,5,,,,,,,,,,,892.4888,892.9315,893.149,899.2431,space,6.0278,,899.2431,72,2,900.1815,900.1815,900.1828,,,,0,16,16,16,1,145,75,,,,,,,,
,,5ff81ab8d6f3fa546efbad4e,65af590c8504a42db6af8020,2024-01-23_06h19.05.553,bars,2023.2.3,Win32,11.99040767,657b66ea316d21385b68909f,,,,,,,,,,,900.1829,901.1276,,,901.6181,901.847,,74,74,,,,,,,,,,,,,,,,bars/046.png,bars/mask006.png,,,,,,,,,,,,4,2,,,,,,,6,6,4,6,,,,,,,,,,,901.1276,901.618,901.847,909.8302,space,7.9175,,909.8302,81,11,910.771,910.771,910.7715,,,,0,17,17,17,1,155,85,,,,,,,,
,,5ff81ab8d6f3fa546efbad4e,65af590c8504a42db6af8020,2024-01-23_06h19.05.553,bars,2023.2.3,Win32,11.99040767,657b66ea316d21385b68909f,,,,,,,,,,,910.7717,911.7816,,,912.2712,912.489,,74,74,,,,,,,,,,,,,,,,bars/046.png,bars/mask009.png,,,,,,,,,,,,3,2,,,,,,,8,4,9,4,,,,,,,,,,,911.7816,912.2712,912.489,913.9772,space,1.4164,,913.9772,81,11,914.9718,914.9718,914.9721,,,,0,18,18,18,1,155,85,,,,,,,,
,,5ff81ab8d6f3fa546efbad4e,65af590c8504a42db6af8020,2024-01-23_06h19.05.553,bars,2023.2.3,Win32,11.99040767,657b66ea316d21385b68909f,,,,,,,,,,,914.9722,915.9188,,,916.4186,916.6339,,104,-76,,,,,,,,,,,,,,,,bars/019.png,bars/mask008.png,,,,,,,,,,,,7,2,,,,,,,6,6,6,7,,,,,,,,,,,915.9188,916.4186,916.634,923.949,space,7.2488,,923.949,59,1,924.9535,924.9536,924.954,,,,0,19,19,19,1,45,105,,,,,,,,
,,5ff81ab8d6f3fa546efbad4e,65af590c8504a42db6af8020,2024-01-23_06h19.05.553,bars,2023.2.3,Win32,11.99040767,657b66ea316d21385b68909f,,,,,,,,,,,924.9542,925.8962,,,926.3585,926.5819,,61,61,,,,,,,,,,,,,,,,bars/007.png,bars/mask003.png,,,,,,,,,,,,5,2,,,,,,,4,8,4,6,,,,,,,,,,,925.8962,926.3585,926.5819,933.704,space,7.0595,,933.704,66,6,934.663,934.663,934.6635,,,,0,20,20,20,1,175,55,,,,,,,,
,,5ff81ab8d6f3fa546efbad4e,65af590c8504a42db6af8020,2024-01-23_06h19.05.553,bars,2023.2.3,Win32,11.99040767,657b66ea316d21385b68909f,,,,,,,,,,,934.6639,935.6882,,,936.1892,936.4123,,159,-21,,,,,,,,,,,,,,,,bars/020.png,bars/mask008.png,,,,,,,,,,,,6,2,,,,,,,2,10,2,10,,,,,,,,,,,935.6882,936.1891,936.4124,943.6023,space,7.1264,,943.6023,44,11,944.5457,944.5457,944.5461,,,,0,21,21,21,1,115,170,,,,,,,,
,,5ff81ab8d6f3fa546efbad4e,65af590c8504a42db6af8020,2024-01-23_06h19.05.553,bars,2023.2.3,Win32,11.99040767,657b66ea316d21385b68909f,,,,,,,,,,,944.5462,945.5529,,,946.0545,946.2827,,7,7,,,,,,,,,,,,,,,,bars/024.png,bars/mask007.png,,,,,,,,,,,,3,2,,,,,,,0,8,0,8,,,,,,,,,,,945.5529,946.0545,946.2827,947.6606,space,1.3151,,947.6606,67,17,948.6545,948.6546,948.6551,,,,0,22,22,22,1,120,170,,,,,,,,
,,5ff81ab8d6f3fa546efbad4e,65af590c8504a42db6af8020,2024-01-23_06h19.05.553,bars,2023.2.3,Win32,11.99040767,657b66ea316d21385b68909f,,,,,,,,,,,948.6552,949.6509,,,950.1478,950.3643,,60,60,,,,,,,,,,,,,,,,bars/037.png,bars/mask005.png,,,,,,,,,,,,0,2,,,,,,,0,10,0,10,,,,,,,,,,,949.6509,950.1478,950.3643,955.1504,space,4.7168,,955.1505,90,45,956.1094,956.1094,956.1098,,,,0,23,23,23,1,150,105,,,,,,,,
,,5ff81ab8d6f3fa546efbad4e,65af590c8504a42db6af8020,2024-01-23_06h19.05.553,bars,2023.2.3,Win32,11.99040767,657b66ea316d21385b68909f,,,,,,,,,,,956.11,957.1232,,,957.6264,957.8402,,113,113,,,,,,,,,,,,,,,,bars/023.png,bars/mask001.png,,,,,,,,,,,,9,2,,,,,,,0,10,0,10,,,,,,,,,,,957.1232,957.6264,957.8402,965.7776,space,7.8745,,965.7776,87,2,966.7309,966.7309,966.7316,,,,0,24,24,24,1,20,115,,,,,,,,
,,5ff81ab8d6f3fa546efbad4e,65af590c8504a42db6af8020,2024-01-23_06h19.05.553,bars,2023.2.3,Win32,11.99040767,657b66ea316d21385b68909f,,,,,,,,,,,966.7318,967.7358,,,968.245,968.4691,,58,58,,,,,,,,,,,,,,,,bars/030.png,bars/mask002.png,,,,,,,,,,,,5,2,,,,,,,2,8,3,7,,,,,,,,,,,967.7359,968.245,968.4691,974.78,space,6.2452,,974.7801,82,7,975.7326,975.7326,975.7331,,,,0,25,25,25,1,140,65,,,,,,,,
,,5ff81ab8d6f3fa546efbad4e,65af590c8504a42db6af8020,2024-01-23_06h19.05.553,bars,2023.2.3,Win32,11.99040767,657b66ea316d21385b68909f,,,,,,,,,,,975.7333,976.7254,,,977.2222,977.4524,,44,44,,,,,,,,,,,,,,,,bars/025.png,bars/mask006.png,,,,,,,,,,,,5,2,,,,,,,0,6,0,6,,,,,,,,,,,976.7254,977.2222,977.4524,980.6669,space,3.142,,980.6669,61,4,981.6375,981.6375,981.638,,,,0,26,26,26,1,105,40,,,,,,,,
,,5ff81ab8d6f3fa546efbad4e,65af590c8504a42db6af8020,2024-01-23_06h19.05.553,bars,2023.2.3,Win32,11.99040767,657b66ea316d21385b68909f,,,,,,,,,,,981.6381,982.653,,,983.1617,983.3755,,173,173,,,,,,,,,,,,,,,,bars/012.png,bars/mask003.png,,,,,,,,,,,,2,2,,,,,,,2,8,1,6,,,,,,,,,,,982.653,983.1617,983.3755,989.8447,space,6.4043,,989.8447,83,22,990.8051,990.8051,990.8056,,,,0,27,27,27,1,90,15,,,,,,,,
,,5ff81ab8d6f3fa546efbad4e,65af590c8504a42db6af8020,2024-01-23_06h19.05.553,bars,2023.2.3,Win32,11.99040767,657b66ea316d21385b68909f,,,,,,,,,,,990.8057,991.7604,,,992.2078,992.4361,,109,109,,,,,,,,,,,,,,,,bars/001.png,bars/mask000.png,,,,,,,,,,,,1,1,,,,,,,4,6,3,5,,,,,,,,,,,991.7604,992.2078,992.4361,997.4165,space,4.9152,,997.4165,21,24,998.4219,998.4219,998.4231,,,,0,28,28,28,1,130,85,,,,,,,,
,,5ff81ab8d6f3fa546efbad4e,65af590c8504a42db6af8020,2024-01-23_06h19.05.553,bars,2023.2.3,Win32,11.99040767,657b66ea316d21385b68909f,,,,,,,,,,,998.4232,999.4282,,,999.8706,1000.0947,,38,38,,,,,,,,,,,,,,,,bars/029.png,bars/mask004.png,,,,,,,,,,,,5,2,,,,,,,2,8,2,7,,,,,,,,,,,999.4282,999.8706,1000.0948,1003.0048,space,2.8377,,1003.0048,52,7,1003.9609,1003.9609,1003.9667,,,,0,29,29,29,1,90,45,,,,,,,,
,,5ff81ab8d6f3fa546efbad4e,65af590c8504a42db6af8020,2024-01-23_06h19.05.553,bars,2023.2.3,Win32,11.99040767,657b66ea316d21385b68909f,,,,,,,,,,,1003.9667,1004.9767,,,1005.4157,1005.6505,,58,58,,,,,,,,,,,,,,,,bars/007.png,bars/mask009.png,,,,,,,,,,,,9,2,,,,,,,0,10,1,10,,,,,,,,,,,1004.9767,1005.4157,1005.6505,1009.2913,space,3.5683,,1009.2913,63,3,1010.2587,1010.2587,1010.2639,,,,0,30,30,30,1,175,55,,,,,,,,
,,5ff81ab8d6f3fa546efbad4e,65af590c8504a42db6af8020,2024-01-23_06h19.05.553,bars,2023.2.3,Win32,11.99040767,657b66ea316d21385b68909f,,,,,,,,,,,1010.2641,1011.2867,,,1011.7941,1012.0203,,34,214,,,,,,,,,,,,,,,,bars/010.png,bars/mask005.png,,,,,,,,,,,,2,2,,,,,,,2,8,1,7,,,,,,,,,,,1011.2867,1011.7941,1012.0203,1016.875,space,4.7817,,1016.875,49,21,1017.8438,1017.8438,1017.8443,,,,0,31,31,31,1,165,55,,,,,,,,
,,5ff81ab8d6f3fa546efbad4e,65af590c8504a42db6af8020,2024-01-23_06h19.05.553,bars,2023.2.3,Win32,11.99040767,657b66ea316d21385b68909f,,,,,,,,,,,1017.8443,1018.8558,,,1019.358,1019.5887,,40,40,,,,,,,,,,,,,,,,bars/027.png,bars/mask000.png,,,,,,,,,,,,4,2,,,,,,,0,6,0,6,,,,,,,,,,,1018.8558,1019.358,1019.5887,1028.6279,space,8.9704,,1028.628,70,10,1029.5846,1029.5847,1029.59,,,,0,32,32,32,1,110,50,,,,,,,,
,,5ff81ab8d6f3fa546efbad4e,65af590c8504a42db6af8020,2024-01-23_06h19.05.553,bars,2023.2.3,Win32,11.99040767,657b66ea316d21385b68909f,,,,,,,,,,,1029.5902,1030.5496,,,1031.0394,1031.2594,,178,178,,,,,,,,,,,,,,,,bars/032.png,bars/mask000.png,,,,,,,,,,,,2,2,,,,,,,2,8,4,8,,,,,,,,,,,1030.5496,1031.0393,1031.2594,1035.7999,space,4.477,,1035.7999,53,22,1036.8093,1036.8093,1036.8098,,,,0,33,33,33,1,125,20,,,,,,,,
,,5ff81ab8d6f3fa546efbad4e,65af590c8504a42db6af8020,2024-01-23_06h19.05.553,bars,2023.2.3,Win32,11.99040767,657b66ea316d21385b68909f,,,,,,,,,,,1036.8099,1037.7977,,,1038.25,1038.4766,,43,43,,,,,,,,,,,,,,,,bars/035.png,bars/mask004.png,,,,,,,,,,,,4,2,,,,,,,0,10,0,10,,,,,,,,,,,1037.7977,1038.25,1038.4767,1040.7672,space,2.2274,,1040.7673,48,17,1041.762,1041.7621,1041.7625,,,,0,34,34,34,1,175,60,,,,,,,,
,,5ff81ab8d6f3fa546efbad4e,65af590c8504a42db6af8020,2024-01-23_06h19.05.553,bars,2023.2.3,Win32,11.99040767,657b66ea316d21385b68909f,,,,,,,,,,,1041.7626,1042.7223,,,1043.2284,1043.4518,,18,18,,,,,,,,,,,,,,,,bars/013.png,bars/mask009.png,,,,,,,,,,,,6,2,,,,,,,0,10,0,8,,,,,,,,,,,1042.7223,1043.2284,1043.4519,1049.0149,space,5.4911,,1049.015,57,8,1049.9643,1049.9643,1049.9648,,,,0,35,35,35,1,75,10,,,,,,,,
,,5ff81ab8d6f3fa546efbad4e,65af590c8504a42db6af8020,2024-01-23_06h19.05.553,bars,2023.2.3,Win32,11.99040767,657b66ea316d21385b68909f,,,,,,,,,,,1049.965,1050.9706,,,1051.4795,1051.694,,162,-18,,,,,,,,,,,,,,,,bars/048.png,bars/mask000.png,,,,,,,,,,,,5,2,,,,,,,0,10,0,9,,,,,,,,,,,1050.9706,1051.4794,1051.694,1059.6911,space,7.9339,,1059.6911,68,13,1060.649,1060.6491,1060.6496,,,,0,36,36,36,1,50,175,,,,,,,,
,,5ff81ab8d6f3fa546efbad4e,65af590c8504a42db6af8020,2024-01-23_06h19.05.553,bars,2023.2.3,Win32,11.99040767,657b66ea316d21385b68909f,,,,,,,,,,,1060.6497,1061.5928,,,1062.0556,1062.2693,,176,176,,,,,,,,,,,,,,,,bars/032.png,bars/mask006.png,,,,,,,,,,,,2,2,,,,,,,2,8,2,8,,,,,,,,,,,1061.5928,1062.0555,1062.2693,1067.4559,space,5.1135,,1067.4559,51,24,1068.4793,1068.4793,1068.4798,,,,0,37,37,37,1,125,20,,,,,,,,
,,5ff81ab8d6f3fa546efbad4e,65af590c8504a42db6af8020,2024-01-23_06h19.05.553,bars,2023.2.3,Win32,11.99040767,657b66ea316d21385b68909f,,,,,,,,,,,1068.4799,1069.4321,,,1069.943,1070.1615,,176,176,,,,,,,,,,,,,,,,bars/048.png,bars/mask000.png,,,,,,,,,,,,7,2,,,,,,,0,6,0,7,,,,,,,,,,,1069.4321,1069.943,1070.1615,1074.1835,space,3.9483,,1074.1835,54,1,1075.1486,1075.1486,1075.1491,,,,0,38,38,38,1,50,175,,,,,,,,
,,5ff81ab8d6f3fa546efbad4e,65af590c8504a42db6af8020,2024-01-23_06h19.05.553,bars,2023.2.3,Win32,11.99040767,657b66ea316d21385b68909f,,,,,,,,,,,1075.1492,1076.0917,,,1076.5979,1076.8187,,21,201,,,,,,,,,,,,,,,,bars/046.png,bars/mask006.png,,,,,,,,,,,,0,1,,,,,,,0,4,1,3,,,,,,,,,,,1076.0918,1076.5979,1076.8187,1080.3556,space,3.4702,,1080.3556,46,64,1081.3669,1081.3669,1081.3679,,,,0,39,39,39,1,155,85,,,,,,,,
,,5ff81ab8d6f3fa546efbad4e,65af590c8504a42db6af8020,2024-01-23_06h19.05.553,bars,2023.2.3,Win32,11.99040767,657b66ea316d21385b68909f,,,,,,,,,,,1081.3681,1082.3765,,,1082.8859,1083.1044,,79,79,,,,,,,,,,,,,,,,bars/009.png,bars/mask009.png,,,,,,,,,,,,1,2,,,,,,,0,6,1,6,,,,,,,,,,,1082.3765,1082.8859,1083.1044,1088.9594,space,5.7807,,1088.9595,64,26,1089.963,1089.963,1089.9642,,,,0,40,40,40,1,15,105,,,,,,,,
,,5ff81ab8d6f3fa546efbad4e,65af590c8504a42db6af8020,2024-01-23_06h19.05.553,bars,2023.2.3,Win32,11.99040767,657b66ea316d21385b68909f,,,,,,,,,,,1089.9643,1090.9126,,,1091.4255,1091.6461,,116,116,,,,,,,,,,,,,,,,bars/040.png,bars/mask001.png,,,,,,,,,,,,0,1,,,,,,,2,4,2,3,,,,,,,,,,,1090.9126,1091.4255,1091.6461,1096.3533,space,4.6468,,1096.3533,24,69,1097.3394,1097.3394,1097.3406,,,,0,41,41,41,1,140,5,,,,,,,,
,,5ff81ab8d6f3fa546efbad4e,65af590c8504a42db6af8020,2024-01-23_06h19.05.553,bars,2023.2.3,Win32,11.99040767,657b66ea316d21385b68909f,,,,,,,,,,,1097.3407,1098.2823,,,1098.7847,1098.9887,,97,97,,,,,,,,,,,,,,,,bars/014.png,bars/mask006.png,,,,,,,,,,,,1,1,,,,,,,4,6,3,7,,,,,,,,,,,1098.2823,1098.7847,1098.9888,1103.5362,space,4.4765,,1103.5363,17,83,1104.4964,1104.4964,1104.497,,,,0,42,42,42,1,80,0,,,,,,,,
,,5ff81ab8d6f3fa546efbad4e,65af590c8504a42db6af8020,2024-01-23_06h19.05.553,bars,2023.2.3,Win32,11.99040767,657b66ea316d21385b68909f,,,,,,,,,,,1104.4971,1105.4821,,,1105.982,1106.1994,,52,52,,,,,,,,,,,,,,,,bars/010.png,bars/mask007.png,,,,,,,,,,,,4,2,,,,,,,2,4,3,4,,,,,,,,,,,1105.4821,1105.982,1106.1994,1110.6719,space,4.4012,,1110.6719,67,3,1111.6365,1111.6365,1111.6377,,,,0,43,43,43,1,165,55,,,,,,,,
,,5ff81ab8d6f3fa546efbad4e,65af590c8504a42db6af8020,2024-01-23_06h19.05.553,bars,2023.2.3,Win32,11.99040767,657b66ea316d21385b68909f,,,,,,,,,,,1111.6377,1112.6424,,,1113.0982,1113.3194,,111,111,,,,,,,,,,,,,,,,bars/028.png,bars/mask001.png,,,,,,,,,,,,0,2,,,,,,,0,2,0,0,,,,,,,,,,,1112.6424,1113.0982,1113.3194,1119.1788,space,5.798,,1119.1789,66,9,1120.1829,1120.1829,1120.1834,,,,0,44,44,44,1,45,120,,,,,,,,
,,5ff81ab8d6f3fa546efbad4e,65af590c8504a42db6af8020,2024-01-23_06h19.05.553,bars,2023.2.3,Win32,11.99040767,657b66ea316d21385b68909f,,,,,,,,,,,1120.1835,1121.1712,,,1121.6717,1121.8783,,107,107,,,,,,,,,,,,,,,,bars/018.png,bars/mask004.png,,,,,,,,,,,,1,2,,,,,,,2,4,2,3,,,,,,,,,,,1121.1712,1121.6717,1121.8783,1128.6476,space,6.7027,,1128.6476,43,17,1129.668,1129.668,1129.6684,,,,0,45,45,45,1,150,90,,,,,,,,
,,5ff81ab8d6f3fa546efbad4e,65af590c8504a42db6af8020,2024-01-23_06h19.05.553,bars,2023.2.3,Win32,11.99040767,657b66ea316d21385b68909f,,,,,,,,,,,1129.6685,1130.6318,,,1131.1554,1131.381,,124,124,,,,,,,,,,,,,,,,bars/045.png,bars/mask009.png,,,,,,,,,,,,1,1,,,,,,,4,6,4,6,,,,,,,,,,,1130.6318,1131.1554,1131.381,1134.8039,space,3.3595,,1134.8039,24,66,1135.7776,1135.7776,1135.7787,,,,0,46,46,46,1,100,10,,,,,,,,
,,5ff81ab8d6f3fa546efbad4e,65af590c8504a42db6af8020,2024-01-23_06h19.05.553,bars,2023.2.3,Win32,11.99040767,657b66ea316d21385b68909f,,,,,,,,,,,1135.7789,1136.7844,,,1137.2233,1137.4384,,20,20,,,,,,,,,,,,,,,,bars/001.png,bars/mask005.png,,,,,,,,,,,,0,2,,,,,,,2,8,2,7,,,,,,,,,,,1136.7845,1137.2232,1137.4384,1138.7368,space,1.2288,,1138.7369,70,65,1139.7199,1139.7199,1139.7212,,,,0,47,47,47,1,130,85,,,,,,,,
,,5ff81ab8d6f3fa546efbad4e,65af590c8504a42db6af8020,2024-01-23_06h19.05.553,bars,2023.2.3,Win32,11.99040767,657b66ea316d21385b68909f,,,,,,,,,,,1139.7214,1140.7334,,,1141.2458,1141.4568,,77,77,,,,,,,,,,,,,,,,bars/012.png,bars/mask002.png,,,,,,,,,,,,1,1,,,,,,,4,6,2,5,,,,,,,,,,,1140.7335,1141.2458,1141.4568,1146.5542,space,5.0311,,1146.5543,13,62,1147.5612,1147.5612,1147.5624,,,,0,48,48,48,1,90,15,,,,,,,,
,,5ff81ab8d6f3fa546efbad4e,65af590c8504a42db6af8020,2024-01-23_06h19.05.553,bars,2023.2.3,Win32,11.99040767,657b66ea316d21385b68909f,,,,,,,,,,,1147.5625,1148.5134,,,1148.9543,1149.1694,,18,18,,,,,,,,,,,,,,,,bars/007.png,bars/mask004.png,,,,,,,,,,,,0,1,,,,,,,2,8,1,8,,,,,,,,,,,1148.5134,1148.9543,1149.1694,1150.3996,space,1.1648,,1150.3996,23,37,1151.4016,1151.4017,1151.4021,,,,0,49,49,49,1,175,55,,,,,,,,
,,5ff81ab8d6f3fa546efbad4e,65af590c8504a42db6af8020,2024-01-23_06h19.05.553,bars,2023.2.3,Win32,11.99040767,657b66ea316d21385b68909f,,,,,,,,,,,,,,,,,,,,,,,,,,,,,,,,,,,,,,,,,,,,,,,,,,,,,,,,,,,,,,,,,,,,,,,,,,,,,,,,,,,,,,,,,,,,,1151.4022,1249.0213,0,1,1,1,1,sequence_tables/blk042.csv
,,5ff81ab8d6f3fa546efbad4e,65af590c8504a42db6af8020,2024-01-23_06h19.05.553,bars,2023.2.3,Win32,11.99040767,657b66ea316d21385b68909f,,,,,,,,,,,1250.5582,1251.5615,,,1252.0795,1252.2954,,105,105,,,,,,,,,,,,,,,,bars/006.png,bars/mask003.png,,,,,,,,,,,,8,2,,,,,,,0,10,1,9,,,,,,1249.027,1250.5562,space,1.465,,1251.5615,1252.0795,1252.2954,1255.9127,space,3.5543,,1255.9128,70,5,1256.9254,1256.9254,1256.9266,,,,0,0,0,0,1,35,100,,,,,,,,
,,5ff81ab8d6f3fa546efbad4e,65af590c8504a42db6af8020,2024-01-23_06h19.05.553,bars,2023.2.3,Win32,11.99040767,657b66ea316d21385b68909f,,,,,,,,,,,1256.9267,1257.9324,,,1258.4351,1258.6702,,58,58,,,,,,,,,,,,,,,,bars/035.png,bars/mask006.png,,,,,,,,,,,,9,2,,,,,,,0,10,0,10,,,,,,,,,,,1257.9324,1258.4351,1258.6702,1261.605,space,2.8718,,1261.605,63,2,1262.5826,1262.5826,1262.5833,,,,0,1,1,1,1,175,60,,,,,,,,
,,5ff81ab8d6f3fa546efbad4e,65af590c8504a42db6af8020,2024-01-23_06h19.05.553,bars,2023.2.3,Win32,11.99040767,657b66ea316d21385b68909f,,,,,,,,,,,1262.5835,1263.5999,,,1264.0528,1264.2754,,171,171,,,,,,,,,,,,,,,,bars/008.png,bars/mask003.png,,,,,,,,,,,,7,2,,,,,,,0,10,0,10,,,,,,,,,,,1263.5999,1264.0528,1264.2754,1267.9399,space,3.6043,,1267.94,61,9,1268.8992,1268.8992,1268.9044,,,,0,2,2,2,1,110,0,,,,,,,,
,,5ff81ab8d6f3fa546efbad4e,65af590c8504a42db6af8020,2024-01-23_06h19.05.553,bars,2023.2.3,Win32,11.99040767,657b66ea316d21385b68909f,,,,,,,,,,,1268.9045,1269.9127,,,1270.3679,1270.5935,,164,164,,,,,,,,,,,,,,,,bars/000.png,bars/mask003.png,,,,,,,,,,,,3,2,,,,,,,0,8,0,9,,,,,,,,,,,1269.9127,1270.3679,1270.5935,1276.0912,space,5.4315,,1276.0912,56,19,1277.1056,1277.1056,1277.1061,,,,0,3,3,3,1,40,145,,,,,,,,
,,5ff81ab8d6f3fa546efbad4e,65af590c8504a42db6af8020,2024-01-23_06h19.05.553,bars,2023.2.3,Win32,11.99040767,657b66ea316d21385b68909f,,,,,,,,,,,1277.1062,1278.1267,,,1278.5913,1278.8256,,150,150,,,,,,,,,,,,,,,,bars/043.png,bars/mask009.png,,,,,,,,,,,,3,2,,,,,,,2,10,3,10,,,,,,,,,,,1278.1267,1278.5913,1278.8256,1279.8915,space,0.994,,1279.8915,60,20,1280.8371,1280.8371,1280.8377,,,,0,4,4,4,1,30,130,,,,,,,,
,,5ff81ab8d6f3fa546efbad4e,65af590c8504a42db6af8020,2024-01-23_06h19.05.553,bars,2023.2.3,Win32,11.99040767,657b66ea316d21385b68909f,,,,,,,,,,,1280.8378,1281.8511,,,1282.3596,1282.5698,,158,-22,,,,,,,,,,,,,,,,bars/004.png,bars/mask002.png,,,,,,,,,,,,0,2,,,,,,,0,10,0,10,,,,,,,,,,,1281.8511,1282.3596,1282.5698,1286.2952,space,3.6609,,1286.2952,47,33,1287.318,1287.3181,1287.3185,,,,0,5,5,5,1,25,125,,,,,,,,
,,5ff81ab8d6f3fa546efbad4e,65af590c8504a42db6af8020,2024-01-23_06h19.05.553,bars,2023.2.3,Win32,11.99040767,657b66ea316d21385b68909f,,,,,,,,,,,1287.3186,1288.2738,,,1288.7208,1288.9373,,142,142,,,,,,,,,,,,,,,,bars/049.png,bars/mask006.png,,,,,,,,,,,,0,1,,,,,,,2,10,1,10,,,,,,,,,,,1288.2739,1288.7208,1288.9373,1294.6664,space,5.6661,,1294.6665,18,27,1295.67,1295.67,1295.6759,,,,0,6,6,6,1,160,115,,,,,,,,
,,5ff81ab8d6f3fa546efbad4e,65af590c8504a42db6af8020,2024-01-23_06h19.05.553,bars,2023.2.3,Win32,11.99040767,657b66ea316d21385b68909f,,,,,,,,,,,1295.676,1296.6746,,,1297.126,1297.3527,,62,62,,,,,,,,,,,,,,,,bars/007.png,bars/mask003.png,,,,,,,,,,,,7,2,,,,,,,0,10,0,9,,,,,,,,,,,1296.6746,1297.1259,1297.3527,1302.2745,space,4.8587,,1302.2746,67,7,1303.2763,1303.2763,1303.2821,,,,0,7,7,7,1,175,55,,,,,,,,
,,5ff81ab8d6f3fa546efbad4e,65af590c8504a42db6af8020,2024-01-23_06h19.05.553,bars,2023.2.3,Win32,11.99040767,657b66ea316d21385b68909f,,,,,,,,,,,1303.2823,1304.2293,,,1304.6864,1304.9016,,47,47,,,,,,,,,,,,,,,,bars/010.png,bars/mask007.png,,,,,,,,,,,,5,2,,,,,,,2,8,2,7,,,,,,,,,,,1304.2293,1304.6864,1304.9016,1309.1294,space,4.1607,,1309.1294,62,8,1310.0898,1310.0899,1310.0905,,,,0,8,8,8,1,165,55,,,,,,,,
,,5ff81ab8d6f3fa546efbad4e,65af590c8504a42db6af8020,2024-01-23_06h19.05.553,bars,2023.2.3,Win32,11.99040767,657b66ea316d21385b68909f,,,,,,,,,,,1310.0906,1311.1135,,,1311.6237,1311.8327,,52,232,,,,,,,,,,,,,,,,bars/029.png,bars/mask006.png,,,,,,,,,,,,5,2,,,,,,,0,6,1,6,,,,,,,,,,,1311.1136,1311.6237,1311.8327,1319.2131,space,7.3143,,1319.2131,38,7,1320.2044,1320.2044,1320.2049,,,,0,9,9,9,1,90,45,,,,,,,,
,,5ff81ab8d6f3fa546efbad4e,65af590c8504a42db6af8020,2024-01-23_06h19.05.553,bars,2023.2.3,Win32,11.99040767,657b66ea316d21385b68909f,,,,,,,,,,,1320.205,1321.208,,,1321.6567,1321.8886,,52,52,,,,,,,,,,,,,,,,bars/025.png,bars/mask006.png,,,,,,,,,,,,4,2,,,,,,,2,8,2,7,,,,,,,,,,,1321.208,1321.6567,1321.8886,1329.2102,space,7.2585,,1329.2102,53,12,1330.2295,1330.2295,1330.2299,,,,0,10,10,10,1,105,40,,,,,,,,
,,5ff81ab8d6f3fa546efbad4e,65af590c8504a42db6af8020,2024-01-23_06h19.05.553,bars,2023.2.3,Win32,11.99040767,657b66ea316d21385b68909f,,,,,,,,,,,1330.2301,1331.1959,,,1331.7155,1331.9432,,136,136,,,,,,,,,,,,,,,,bars/044.png,bars/mask008.png,,,,,,,,,,,,2,2,,,,,,,0,6,0,6,,,,,,,,,,,1331.1959,1331.7155,1331.9432,1338.6553,space,6.6508,,1338.6554,61,19,1339.6809,1339.6809,1339.6814,,,,0,11,11,11,1,75,155,,,,,,,,
,,5ff81ab8d6f3fa546efbad4e,65af590c8504a42db6af8020,2024-01-23_06h19.05.553,bars,2023.2.3,Win32,11.99040767,657b66ea316d21385b68909f,,,,,,,,,,,1339.6814,1340.6892,,,1341.1399,1341.3642,,137,137,,,,,,,,,,,,,,,,bars/021.png,bars/mask006.png,,,,,,,,,,,,0,1,,,,,,,0,4,0,5,,,,,,,,,,,1340.6893,1341.1399,1341.3643,1344.0272,space,2.5996,,1344.0272,18,67,1344.9821,1344.9821,1344.9831,,,,0,12,12,12,1,155,70,,,,,,,,
,,5ff81ab8d6f3fa546efbad4e,65af590c8504a42db6af8020,2024-01-23_06h19.05.553,bars,2023.2.3,Win32,11.99040767,657b66ea316d21385b68909f,,,,,,,,,,,1344.9833,1345.9241,,,1346.4372,1346.6677,,107,107,,,,,,,,,,,,,,,,bars/006.png,bars/mask009.png,,,,,,,,,,,,2,2,,,,,,,2,2,2,3,,,,,,,,,,,1345.9241,1346.4372,1346.6677,1353.3094,space,6.579,,1353.3094,72,7,1354.3211,1354.3211,1354.3268,,,,0,13,13,13,1,35,100,,,,,,,,
,,5ff81ab8d6f3fa546efbad4e,65af590c8504a42db6af8020,2024-01-23_06h19.05.553,bars,2023.2.3,Win32,11.99040767,657b66ea316d21385b68909f,,,,,,,,,,,1354.3269,1355.3201,,,1355.7603,1355.9767,,17,17,,,,,,,,,,,,,,,,bars/015.png,bars/mask000.png,,,,,,,,,,,,0,2,,,,,,,4,4,5,4,,,,,,,,,,,1355.3201,1355.7602,1355.9767,1360.342,space,4.2995,,1360.342,87,37,1361.3338,1361.3338,1361.3396,,,,0,14,14,14,1,110,160,,,,,,,,
,,5ff81ab8d6f3fa546efbad4e,65af590c8504a42db6af8020,2024-01-23_06h19.05.553,bars,2023.2.3,Win32,11.99040767,657b66ea316d21385b68909f,,,,,,,,,,,1361.3397,1362.3377,,,1362.8558,1363.0753,,105,105,,,,,,,,,,,,,,,,bars/006.png,bars/mask006.png,,,,,,,,,,,,3,2,,,,,,,2,6,0,3,,,,,,,,,,,1362.3377,1362.8557,1363.0754,1369.0056,space,5.8673,,1369.0056,70,5,1369.961,1369.9611,1369.9615,,,,0,15,15,15,1,35,100,,,,,,,,
,,5ff81ab8d6f3fa546efbad4e,65af590c8504a42db6af8020,2024-01-23_06h19.05.553,bars,2023.2.3,Win32,11.99040767,657b66ea316d21385b68909f,,,,,,,,,,,1369.9617,1370.9804,,,1371.4941,1371.7142,,160,-20,,,,,,,,,,,,,,,,bars/044.png,bars/mask000.png,,,,,,,,,,,,3,2,,,,,,,4,4,3,4,,,,,,,,,,,1370.9805,1371.4941,1371.7142,1375.9309,space,4.1556,,1375.9309,85,5,1376.9358,1376.9358,1376.941,,,,0,16,16,16,1,75,155,,,,,,,,
,,5ff81ab8d6f3fa546efbad4e,65af590c8504a42db6af8020,2024-01-23_06h19.05.553,bars,2023.2.3,Win32,11.99040767,657b66ea316d21385b68909f,,,,,,,,,,,1376.9411,1377.9542,,,1378.4018,1378.6238,,12,192,,,,,,,,,,,,,,,,bars/013.png,bars/mask001.png,,,,,,,,,,,,5,2,,,,,,,2,6,3,5,,,,,,,,,,,1377.9542,1378.4018,1378.6239,1383.8547,space,5.1595,,1383.8548,63,2,1384.8091,1384.8091,1384.8095,,,,0,17,17,17,1,75,10,,,,,,,,
,,5ff81ab8d6f3fa546efbad4e,65af590c8504a42db6af8020,2024-01-23_06h19.05.553,bars,2023.2.3,Win32,11.99040767,657b66ea316d21385b68909f,,,,,,,,,,,1384.8096,1385.7492,,,1386.2571,1386.4796,,11,11,,,,,,,,,,,,,,,,bars/008.png,bars/mask004.png,,,,,,,,,,,,5,2,,,,,,,4,8,5,8,,,,,,,,,,,1385.7493,1386.2571,1386.4797,1390.8964,space,4.3508,,1390.8964,81,11,1391.8404,1391.8404,1391.8408,,,,0,18,18,18,1,110,0,,,,,,,,
,,5ff81ab8d6f3fa546efbad4e,65af590c8504a42db6af8020,2024-01-23_06h19.05.553,bars,2023.2.3,Win32,11.99040767,657b66ea316d21385b68909f,,,,,,,,,,,1391.8409,1392.8522,,,1393.2926,1393.5155,,178,-2,,,,,,,,,,,,,,,,bars/045.png,bars/mask006.png,,,,,,,,,,,,6,2,,,,,,,6,10,7,10,,,,,,,,,,,1392.8523,1393.2926,1393.5156,1398.081,space,4.4917,,1398.081,78,12,1399.0876,1399.0876,1399.088,,,,0,19,19,19,1,100,10,,,,,,,,
,,5ff81ab8d6f3fa546efbad4e,65af590c8504a42db6af8020,2024-01-23_06h19.05.553,bars,2023.2.3,Win32,11.99040767,657b66ea316d21385b68909f,,,,,,,,,,,1399.0881,1400.0939,,,1400.6011,1400.8259,,114,114,,,,,,,,,,,,,,,,bars/006.png,bars/mask007.png,,,,,,,,,,,,5,2,,,,,,,8,10,8,10,,,,,,,,,,,1400.0939,1400.6011,1400.8259,1403.2011,space,2.3113,,1403.2013,79,14,1404.2043,1404.2044,1404.2049,,,,0,20,20,20,1,35,100,,,,,,,,
,,5ff81ab8d6f3fa546efbad4e,65af590c8504a42db6af8020,2024-01-23_06h19.05.553,bars,2023.2.3,Win32,11.99040767,657b66ea316d21385b68909f,,,,,,,,,,,1404.2051,1405.1554,,,1405.6652,1405.884,,139,-41,,,,,,,,,,,,,,,,bars/004.png,bars/mask002.png,,,,,,,,,,,,4,2,,,,,,,10,8,10,8,,,,,,,,,,,1405.1554,1405.6652,1405.884,1410.6583,space,4.7086,,1410.6584,66,14,1411.6543,1411.6543,1411.6596,,,,0,21,21,21,1,25,125,,,,,,,,
,,5ff81ab8d6f3fa546efbad4e,65af590c8504a42db6af8020,2024-01-23_06h19.05.553,bars,2023.2.3,Win32,11.99040767,657b66ea316d21385b68909f,,,,,,,,,,,1411.6597,1412.5984,,,1413.0642,1413.2902,,157,157,,,,,,,,,,,,,,,,bars/048.png,bars/mask006.png,,,,,,,,,,,,4,2,,,,,,,10,10,10,10,,,,,,,,,,,1412.5984,1413.0642,1413.2903,1416.3557,space,2.9923,,1416.3558,73,18,1417.2939,1417.2939,1417.2944,,,,0,22,22,22,1,50,175,,,,,,,,
,,5ff81ab8d6f3fa546efbad4e,65af590c8504a42db6af8020,2024-01-23_06h19.05.553,bars,2023.2.3,Win32,11.99040767,657b66ea316d21385b68909f,,,,,,,,,,,1417.2946,1418.2909,,,1418.8066,1419.0268,,157,157,,,,,,,,,,,,,,,,bars/014.png,bars/mask000.png,,,,,,,,,,,,2,2,,,,,,,8,8,8,8,,,,,,,,,,,1418.291,1418.8065,1419.0268,1421.7091,space,2.6199,,1421.7091,77,23,1422.6801,1422.6801,1422.6805,,,,0,23,23,23,1,80,0,,,,,,,,
,,5ff81ab8d6f3fa546efbad4e,65af590c8504a42db6af8020,2024-01-23_06h19.05.553,bars,2023.2.3,Win32,11.99040767,657b66ea316d21385b68909f,,,,,,,,,,,1422.6807,1423.699,,,1424.1447,1424.3815,,172,172,,,,,,,,,,,,,,,,bars/016.png,bars/mask009.png,,,,,,,,,,,,8,2,,,,,,,6,10,5,10,,,,,,,,,,,1423.699,1424.1447,1424.3815,1426.2919,space,1.8481,,1426.2919,48,7,1427.2897,1427.2897,1427.2902,,,,0,24,24,24,1,40,165,,,,,,,,
,,5ff81ab8d6f3fa546efbad4e,65af590c8504a42db6af8020,2024-01-23_06h19.05.553,bars,2023.2.3,Win32,11.99040767,657b66ea316d21385b68909f,,,,,,,,,,,1427.2904,1428.3071,,,1428.8139,1429.0466,,166,-14,,,,,,,,,,,,,,,,bars/008.png,bars/mask003.png,,,,,,,,,,,,5,2,,,,,,,4,10,6,10,,,,,,,,,,,1428.3071,1428.8139,1429.0466,1437.0655,space,7.9461,,1437.0655,56,14,1438.047,1438.0471,1438.0478,,,,0,25,25,25,1,110,0,,,,,,,,
,,5ff81ab8d6f3fa546efbad4e,65af590c8504a42db6af8020,2024-01-23_06h19.05.553,bars,2023.2.3,Win32,11.99040767,657b66ea316d21385b68909f,,,,,,,,,,,1438.0481,1439.0292,,,1439.4998,1439.7341,,163,-17,,,,,,,,,,,,,,,,bars/044.png,bars/mask005.png,,,,,,,,,,,,6,2,,,,,,,2,8,1,8,,,,,,,,,,,1439.0292,1439.4997,1439.7342,1442.2962,space,2.4901,,1442.2963,88,8,1443.244,1443.244,1443.2445,,,,0,26,26,26,1,75,155,,,,,,,,
,,5ff81ab8d6f3fa546efbad4e,65af590c8504a42db6af8020,2024-01-23_06h19.05.553,bars,2023.2.3,Win32,11.99040767,657b66ea316d21385b68909f,,,,,,,,,,,1443.2445,1444.2491,,,1444.7604,1444.985,,22,22,,,,,,,,,,,,,,,,bars/047.png,bars/mask003.png,,,,,,,,,,,,3,1,,,,,,,4,10,4,8,,,,,,,,,,,1444.2491,1444.7604,1444.985,1451.6652,space,6.6129,,1451.6652,7,48,1452.6066,1452.6066,1452.6076,,,,0,27,27,27,1,15,70,,,,,,,,
,,5ff81ab8d6f3fa546efbad4e,65af590c8504a42db6af8020,2024-01-23_06h19.05.553,bars,2023.2.3,Win32,11.99040767,657b66ea316d21385b68909f,,,,,,,,,,,1452.6078,1453.6004,,,1454.0541,1454.2673,,116,116,,,,,,,,,,,,,,,,bars/028.png,bars/mask004.png,,,,,,,,,,,,9,2,,,,,,,6,8,7,10,,,,,,,,,,,1453.6004,1454.0541,1454.2673,1459.5002,space,5.1594,,1459.5002,71,4,1460.5077,1460.5078,1460.5089,,,,0,28,28,28,1,45,120,,,,,,,,
,,5ff81ab8d6f3fa546efbad4e,65af590c8504a42db6af8020,2024-01-23_06h19.05.553,bars,2023.2.3,Win32,11.99040767,657b66ea316d21385b68909f,,,,,,,,,,,1460.5091,1461.5255,,,1462.0486,1462.2651,,108,108,,,,,,,,,,,,,,,,bars/039.png,bars/mask000.png,,,,,,,,,,,,5,2,,,,,,,4,6,3,6,,,,,,,,,,,1461.5255,1462.0486,1462.2651,1470.3044,space,7.9792,,1470.3045,67,3,1471.3208,1471.3208,1471.3213,,,,0,29,29,29,1,175,105,,,,,,,,
,,5ff81ab8d6f3fa546efbad4e,65af590c8504a42db6af8020,2024-01-23_06h19.05.553,bars,2023.2.3,Win32,11.99040767,657b66ea316d21385b68909f,,,,,,,,,,,1471.3215,1472.2741,,,1472.7774,1472.9949,,116,116,,,,,,,,,,,,,,,,bars/019.png,bars/mask005.png,,,,,,,,,,,,4,2,,,,,,,6,8,6,7,,,,,,,,,,,1472.2741,1472.7774,1472.9949,1476.5636,space,3.5012,,1476.5636,71,11,1477.5606,1477.5606,1477.5611,,,,0,30,30,30,1,45,105,,,,,,,,
,,5ff81ab8d6f3fa546efbad4e,65af590c8504a42db6af8020,2024-01-23_06h19.05.553,bars,2023.2.3,Win32,11.99040767,657b66ea316d21385b68909f,,,,,,,,,,,1477.5612,1478.5064,,,1479.0206,1479.2451,,140,140,,,,,,,,,,,,,,,,bars/049.png,bars/mask002.png,,,,,,,,,,,,3,1,,,,,,,8,10,8,10,,,,,,,,,,,1478.5064,1479.0206,1479.2451,1481.069,space,1.7587,,1481.069,20,25,1482.0091,1482.0092,1482.0103,,,,0,31,31,31,1,160,115,,,,,,,,
,,5ff81ab8d6f3fa546efbad4e,65af590c8504a42db6af8020,2024-01-23_06h19.05.553,bars,2023.2.3,Win32,11.99040767,657b66ea316d21385b68909f,,,,,,,,,,,1482.0103,1482.9593,,,1483.4034,1483.6197,,10,190,,,,,,,,,,,,,,,,bars/032.png,bars/mask006.png,,,,,,,,,,,,5,2,,,,,,,6,8,5,7,,,,,,,,,,,1482.9593,1483.4034,1483.6197,1487.0406,space,3.3473,,1487.0406,65,10,1488.0473,1488.0473,1488.0484,,,,0,32,32,32,1,125,20,,,,,,,,
,,5ff81ab8d6f3fa546efbad4e,65af590c8504a42db6af8020,2024-01-23_06h19.05.553,bars,2023.2.3,Win32,11.99040767,657b66ea316d21385b68909f,,,,,,,,,,,1488.0484,1489.0549,,,1489.5579,1489.7736,,125,125,,,,,,,,,,,,,,,,bars/043.png,bars/mask005.png,,,,,,,,,,,,5,2,,,,,,,4,6,2,6,,,,,,,,,,,1489.0549,1489.5579,1489.7737,1492.1488,space,2.3127,,1492.1488,85,5,1493.1673,1493.1673,1493.1677,,,,0,33,33,33,1,30,130,,,,,,,,
,,5ff81ab8d6f3fa546efbad4e,65af590c8504a42db6af8020,2024-01-23_06h19.05.553,bars,2023.2.3,Win32,11.99040767,657b66ea316d21385b68909f,,,,,,,,,,,1493.1679,1494.1882,,,1494.6389,1494.862,,24,24,,,,,,,,,,,,,,,,bars/022.png,bars/mask001.png,,,,,,,,,,,,7,2,,,,,,,6,8,7,8,,,,,,,,,,,1494.1882,1494.6389,1494.8621,1498.3418,space,3.4119,,1498.3418,71,4,1499.3396,1499.3397,1499.3401,,,,0,34,34,34,1,95,20,,,,,,,,
,,5ff81ab8d6f3fa546efbad4e,65af590c8504a42db6af8020,2024-01-23_06h19.05.553,bars,2023.2.3,Win32,11.99040767,657b66ea316d21385b68909f,,,,,,,,,,,1499.3403,1500.3161,,,1500.7669,1501.005,,116,116,,,,,,,,,,,,,,,,bars/006.png,bars/mask009.png,,,,,,,,,,,,2,2,,,,,,,4,6,3,5,,,,,,,,,,,1500.3161,1500.7669,1501.005,1502.5138,space,1.4414,,1502.5138,81,16,1503.4649,1503.4649,1503.4655,,,,0,35,35,35,1,35,100,,,,,,,,
,,5ff81ab8d6f3fa546efbad4e,65af590c8504a42db6af8020,2024-01-23_06h19.05.553,bars,2023.2.3,Win32,11.99040767,657b66ea316d21385b68909f,,,,,,,,,,,1503.4656,1504.4894,,,1504.9495,1505.1735,,166,-14,,,,,,,,,,,,,,,,bars/045.png,bars/mask003.png,,,,,,,,,,,,2,2,,,,,,,2,8,0,9,,,,,,,,,,,1504.4894,1504.9495,1505.1736,1510.5564,space,5.3156,,1510.5564,66,24,1511.5573,1511.5573,1511.5626,,,,0,36,36,36,1,100,10,,,,,,,,
,,5ff81ab8d6f3fa546efbad4e,65af590c8504a42db6af8020,2024-01-23_06h19.05.553,bars,2023.2.3,Win32,11.99040767,657b66ea316d21385b68909f,,,,,,,,,,,1511.5627,1512.5508,,,1513.0732,1513.2957,,109,-71,,,,,,,,,,,,,,,,bars/009.png,bars/mask007.png,,,,,,,,,,,,4,2,,,,,,,0,6,0,5,,,,,,,,,,,1512.5508,1513.0732,1513.2957,1519.8396,space,6.4812,,1519.8396,86,4,1520.8022,1520.8022,1520.8027,,,,0,37,37,37,1,15,105,,,,,,,,
,,5ff81ab8d6f3fa546efbad4e,65af590c8504a42db6af8020,2024-01-23_06h19.05.553,bars,2023.2.3,Win32,11.99040767,657b66ea316d21385b68909f,,,,,,,,,,,1520.8028,1521.7634,,,1522.2781,1522.5,,75,75,,,,,,,,,,,,,,,,bars/009.png,bars/mask009.png,,,,,,,,,,,,0,2,,,,,,,0,4,1,5,,,,,,,,,,,1521.7634,1522.2781,1522.5,1525.0679,space,2.4953,,1525.0679,60,30,1526.0254,1526.0254,1526.0258,,,,0,38,38,38,1,15,105,,,,,,,,
,,5ff81ab8d6f3fa546efbad4e,65af590c8504a42db6af8020,2024-01-23_06h19.05.553,bars,2023.2.3,Win32,11.99040767,657b66ea316d21385b68909f,,,,,,,,,,,1526.0259,1527.0365,,,1527.4975,1527.725,,42,42,,,,,,,,,,,,,,,,bars/026.png,bars/mask002.png,,,,,,,,,,,,2,1,,,,,,,0,2,2,3,,,,,,,,,,,1527.0365,1527.4975,1527.725,1528.7437,space,0.9528,,1528.7437,7,43,1529.7035,1529.7035,1529.7046,,,,0,39,39,39,1,35,85,,,,,,,,
,,5ff81ab8d6f3fa546efbad4e,65af590c8504a42db6af8020,2024-01-23_06h19.05.553,bars,2023.2.3,Win32,11.99040767,657b66ea316d21385b68909f,,,,,,,,,,,1529.7048,1530.6632,,,1531.1888,1531.4005,,57,57,,,,,,,,,,,,,,,,bars/042.png,bars/mask000.png,,,,,,,,,,,,2,2,,,,,,,0,4,0,5,,,,,,,,,,,1530.6633,1531.1888,1531.4005,1535.4418,space,3.9721,,1535.4419,88,18,1536.4611,1536.4611,1536.4668,,,,0,40,40,40,1,145,75,,,,,,,,
,,5ff81ab8d6f3fa546efbad4e,65af590c8504a42db6af8020,2024-01-23_06h19.05.553,bars,2023.2.3,Win32,11.99040767,657b66ea316d21385b68909f,,,,,,,,,,,1536.4669,1537.4818,,,1537.9205,1538.1464,,65,65,,,,,,,,,,,,,,,,bars/026.png,bars/mask005.png,,,,,,,,,,,,1,2,,,,,,,0,2,1,2,,,,,,,,,,,1537.4818,1537.9204,1538.1464,1545.6994,space,7.4816,,1545.6994,30,20,1546.655,1546.655,1546.6556,,,,0,41,41,41,1,35,85,,,,,,,,
,,5ff81ab8d6f3fa546efbad4e,65af590c8504a42db6af8020,2024-01-23_06h19.05.553,bars,2023.2.3,Win32,11.99040767,657b66ea316d21385b68909f,,,,,,,,,,,1546.6558,1547.6419,,,1548.1007,1548.3174,,160,-20,,,,,,,,,,,,,,,,bars/033.png,bars/mask001.png,,,,,,,,,,,,1,2,,,,,,,0,0,0,1,,,,,,,,,,,1547.6419,1548.1007,1548.3174,1554.1981,space,5.8143,,1554.1981,45,5,1555.1663,1555.1664,1555.1716,,,,0,42,42,42,1,25,155,,,,,,,,
,,5ff81ab8d6f3fa546efbad4e,65af590c8504a42db6af8020,2024-01-23_06h19.05.553,bars,2023.2.3,Win32,11.99040767,657b66ea316d21385b68909f,,,,,,,,,,,1555.1717,1556.1999,,,1556.6381,1556.8623,,98,-82,,,,,,,,,,,,,,,,bars/001.png,bars/mask008.png,,,,,,,,,,,,0,2,,,,,,,0,0,2,0,,,,,,,,,,,1556.1999,1556.6381,1556.8623,1563.8656,space,6.9312,,1563.8656,32,13,1564.8091,1564.8093,1564.8097,,,,0,43,43,43,1,130,85,,,,,,,,
,,5ff81ab8d6f3fa546efbad4e,65af590c8504a42db6af8020,2024-01-23_06h19.05.553,bars,2023.2.3,Win32,11.99040767,657b66ea316d21385b68909f,,,,,,,,,,,1564.8097,1565.7735,,,1566.2185,1566.4413,,11,191,,,,,,,,,,,,,,,,bars/035.png,bars/mask006.png,,,,,,,,,,,,0,1,,,,,,,0,0,0,1,,,,,,,,,,,1565.7735,1566.2185,1566.4413,1572.7485,space,6.2418,,1572.7485,16,49,1573.7174,1573.7174,1573.7186,,,,0,44,44,44,1,175,60,,,,,,,,
,,5ff81ab8d6f3fa546efbad4e,65af590c8504a42db6af8020,2024-01-23_06h19.05.553,bars,2023.2.3,Win32,11.99040767,657b66ea316d21385b68909f,,,,,,,,,,,1573.7187,1574.6945,,,1575.152,1575.377,,109,-71,,,,,,,,,,,,,,,,bars/001.png,bars/mask000.png,,,,,,,,,,,,0,1,,,,,,,2,2,1,4,,,,,,,,,,,1574.6945,1575.1519,1575.377,1583.2965,space,7.85,,1583.2965,21,24,1584.3024,1584.3025,1584.303,,,,0,45,45,45,1,130,85,,,,,,,,
,,5ff81ab8d6f3fa546efbad4e,65af590c8504a42db6af8020,2024-01-23_06h19.05.553,bars,2023.2.3,Win32,11.99040767,657b66ea316d21385b68909f,,,,,,,,,,,1584.3031,1585.2765,,,1585.7957,1586.0144,,18,18,,,,,,,,,,,,,,,,bars/005.png,bars/mask000.png,,,,,,,,,,,,4,1,,,,,,,4,4,5,4,,,,,,,,,,,1585.2765,1585.7957,1586.0144,1591.3552,space,5.2784,,1591.3552,8,58,1592.353,1592.353,1592.3582,,,,0,46,46,46,1,10,140,,,,,,,,
,,5ff81ab8d6f3fa546efbad4e,65af590c8504a42db6af8020,2024-01-23_06h19.05.553,bars,2023.2.3,Win32,11.99040767,657b66ea316d21385b68909f,,,,,,,,,,,1592.3583,1593.37,,,1593.8739,1594.0933,,154,154,,,,,,,,,,,,,,,,bars/008.png,bars/mask004.png,,,,,,,,,,,,0,2,,,,,,,2,2,1,2,,,,,,,,,,,1593.37,1593.8739,1594.0934,1596.1237,space,1.9585,,1596.1237,44,26,1597.1341,1597.1341,1597.1352,,,,0,47,47,47,1,110,0,,,,,,,,
,,5ff81ab8d6f3fa546efbad4e,65af590c8504a42db6af8020,2024-01-23_06h19.05.553,bars,2023.2.3,Win32,11.99040767,657b66ea316d21385b68909f,,,,,,,,,,,1597.1353,1598.0741,,,1598.5419,1598.7624,,121,121,,,,,,,,,,,,,,,,bars/006.png,bars/mask006.png,,,,,,,,,,,,0,2,,,,,,,4,0,4,1,,,,,,,,,,,1598.0741,1598.5419,1598.7624,1600.8992,space,2.0634,,1600.8992,86,21,1601.9216,1601.9216,1601.9268,,,,0,48,48,48,1,35,100,,,,,,,,
,,5ff81ab8d6f3fa546efbad4e,65af590c8504a42db6af8020,2024-01-23_06h19.05.553,bars,2023.2.3,Win32,11.99040767,657b66ea316d21385b68909f,,,,,,,,,,,1601.9269,1602.9313,,,1603.4362,1603.6526,,9,189,,,,,,,,,,,,,,,,bars/033.png,bars/mask008.png,,,,,,,,,,,,0,1,,,,,,,2,0,1,0,,,,,,,,,,,1602.9313,1603.4362,1603.6526,1608.6885,space,4.9631,,1608.6885,16,34,1609.6645,1609.6645,1609.6702,,,,0,49,49,49,1,25,155,,,,,,,,
,,5ff81ab8d6f3fa546efbad4e,65af590c8504a42db6af8020,2024-01-23_06h19.05.553,bars,2023.2.3,Win32,11.99040767,657b66ea316d21385b68909f,,,,,,,,,,,,,,,,,,,,,,,,,,,,,,,,,,,,,,,,,,,,,,,,,,,,,,,,,,,,,,,,,,,,,,,,,,,,,,,,,,,,,,,,,,,,,1609.6702,1663.48,0,2,2,0,1,sequence_tables/blk017.csv
,,5ff81ab8d6f3fa546efbad4e,65af590c8504a42db6af8020,2024-01-23_06h19.05.553,bars,2023.2.3,Win32,11.99040767,657b66ea316d21385b68909f,,,,,,,,,,,1690.3364,1691.2986,,,1691.7523,1691.9799,,97,97,,,,,,,,,,,,,,,,bars/018.png,bars/mask003.png,,,,,,,,,,,,2,2,,,,,,,8,3,7,2,,,,,,1663.4855,1690.3256,space,26.7774,,1691.2986,1691.7523,1691.9799,1698.9075,space,6.858,,1698.9076,53,7,1699.8458,1699.8458,1699.8516,,,,0,0,0,0,1,150,90,,,,,,,,
,,5ff81ab8d6f3fa546efbad4e,65af590c8504a42db6af8020,2024-01-23_06h19.05.553,bars,2023.2.3,Win32,11.99040767,657b66ea316d21385b68909f,,,,,,,,,,,1699.8517,1700.8016,,,1701.2584,1701.4806,,110,110,,,,,,,,,,,,,,,,bars/006.png,bars/mask001.png,,,,,,,,,,,,3,2,,,,,,,6,5,6,4,,,,,,,,,,,1700.8016,1701.2584,1701.4806,1704.5262,space,2.9749,,1704.5263,75,10,1705.4725,1705.4725,1705.473,,,,0,1,1,1,1,35,100,,,,,,,,
,,5ff81ab8d6f3fa546efbad4e,65af590c8504a42db6af8020,2024-01-23_06h19.05.553,bars,2023.2.3,Win32,11.99040767,657b66ea316d21385b68909f,,,,,,,,,,,1705.4731,1706.4807,,,1706.9958,1707.2157,,71,71,,,,,,,,,,,,,,,,bars/010.png,bars/mask007.png,,,,,,,,,,,,1,2,,,,,,,8,3,8,3,,,,,,,,,,,1706.4807,1706.9958,1707.2157,1714.2755,space,6.9882,,1714.2755,86,16,1715.2814,1715.2815,1715.2818,,,,0,2,2,2,1,165,55,,,,,,,,
,,5ff81ab8d6f3fa546efbad4e,65af590c8504a42db6af8020,2024-01-23_06h19.05.553,bars,2023.2.3,Win32,11.99040767,657b66ea316d21385b68909f,,,,,,,,,,,1715.2819,1716.2209,,,1716.7274,1716.9653,,33,33,,,,,,,,,,,,,,,,bars/004.png,bars/mask009.png,,,,,,,,,,,,4,1,,,,,,,6,5,5,5,,,,,,,,,,,1716.2209,1716.7274,1716.9653,1723.0182,space,5.9834,,1723.0182,8,88,1723.9573,1723.9574,1723.9585,,,,0,3,3,3,1,25,125,,,,,,,,
,,5ff81ab8d6f3fa546efbad4e,65af590c8504a42db6af8020,2024-01-23_06h19.05.553,bars,2023.2.3,Win32,11.99040767,657b66ea316d21385b68909f,,,,,,,,,,,1723.9586,1724.9582,,,1725.4698,1725.6938,,117,117,,,,,,,,,,,,,,,,bars/031.png,bars/mask006.png,,,,,,,,,,,,8,1,,,,,,,8,3,9,3,,,,,,,,,,,1724.9582,1725.4698,1725.6938,1734.019,space,8.2533,,1734.019,3,82,1734.977,1734.977,1734.9774,,,,0,4,4,4,1,120,35,,,,,,,,
,,5ff81ab8d6f3fa546efbad4e,65af590c8504a42db6af8020,2024-01-23_06h19.05.553,bars,2023.2.3,Win32,11.99040767,657b66ea316d21385b68909f,,,,,,,,,,,1734.9776,1735.987,,,1736.4368,1736.6648,,13,193,,,,,,,,,,,,,,,,bars/003.png,bars/mask003.png,,,,,,,,,,,,4,1,,,,,,,6,1,6,2,,,,,,,,,,,1735.987,1736.4368,1736.6648,1745.0287,space,8.2917,,1745.0287,12,53,1746.033,1746.033,1746.0336,,,,0,5,5,5,1,25,140,,,,,,,,
,,5ff81ab8d6f3fa546efbad4e,65af590c8504a42db6af8020,2024-01-23_06h19.05.553,bars,2023.2.3,Win32,11.99040767,657b66ea316d21385b68909f,,,,,,,,,,,1746.0337,1747.0606,,,1747.5702,1747.7839,,37,217,,,,,,,,,,,,,,,,bars/044.png,bars/mask000.png,,,,,,,,,,,,0,1,,,,,,,4,3,3,3,,,,,,,,,,,1747.0606,1747.5701,1747.7839,1751.5217,space,3.6643,,1751.5217,38,62,1752.4933,1752.4933,1752.4937,,,,0,6,6,6,1,75,155,,,,,,,,
,,5ff81ab8d6f3fa546efbad4e,65af590c8504a42db6af8020,2024-01-23_06h19.05.553,bars,2023.2.3,Win32,11.99040767,657b66ea316d21385b68909f,,,,,,,,,,,1752.4938,1753.4467,,,1753.8873,1754.1148,,129,129,,,,,,,,,,,,,,,,bars/027.png,bars/mask008.png,,,,,,,,,,,,3,1,,,,,,,6,1,7,1,,,,,,,,,,,1753.4467,1753.8873,1754.1148,1756.2852,space,2.0985,,1756.2852,19,79,1757.2426,1757.2426,1757.2431,,,,0,7,7,7,1,110,50,,,,,,,,
,,5ff81ab8d6f3fa546efbad4e,65af590c8504a42db6af8020,2024-01-23_06h19.05.553,bars,2023.2.3,Win32,11.99040767,657b66ea316d21385b68909f,,,,,,,,,,,1757.2431,1758.2489,,,1758.7626,1758.9814,,137,137,,,,,,,,,,,,,,,,bars/032.png,bars/mask003.png,,,,,,,,,,,,5,1,,,,,,,8,3,9,4,,,,,,,,,,,1758.249,1758.7625,1758.9814,1761.5326,space,2.4852,,1761.5326,12,63,1762.4939,1762.4939,1762.4944,,,,0,8,8,8,1,125,20,,,,,,,,
,,5ff81ab8d6f3fa546efbad4e,65af590c8504a42db6af8020,2024-01-23_06h19.05.553,bars,2023.2.3,Win32,11.99040767,657b66ea316d21385b68909f,,,,,,,,,,,1762.4945,1763.4435,,,1763.9617,1764.1895,,14,14,,,,,,,,,,,,,,,,bars/009.png,bars/mask005.png,,,,,,,,,,,,8,1,,,,,,,10,1,8,1,,,,,,,,,,,1763.4435,1763.9617,1764.1895,1766.7607,space,2.5016,,1766.7608,1,89,1767.7077,1767.7078,1767.7082,,,,0,9,9,9,1,15,105,,,,,,,,
,,5ff81ab8d6f3fa546efbad4e,65af590c8504a42db6af8020,2024-01-23_06h19.05.553,bars,2023.2.3,Win32,11.99040767,657b66ea316d21385b68909f,,,,,,,,,,,1767.7083,1768.6695,,,1769.1121,1769.3251,,42,42,,,,,,,,,,,,,,,,bars/044.png,bars/mask007.png,,,,,,,,,,,,0,1,,,,,,,8,3,7,1,,,,,,,,,,,1768.6695,1769.112,1769.3252,1776.8975,space,7.4998,,1776.8975,33,67,1777.9017,1777.9017,1777.9021,,,,0,10,10,10,1,75,155,,,,,,,,
,,5ff81ab8d6f3fa546efbad4e,65af590c8504a42db6af8020,2024-01-23_06h19.05.553,bars,2023.2.3,Win32,11.99040767,657b66ea316d21385b68909f,,,,,,,,,,,1777.9023,1778.9021,,,1779.4108,1779.6465,,29,209,,,,,,,,,,,,,,,,bars/041.png,bars/mask000.png,,,,,,,,,,,,6,1,,,,,,,10,1,8,2,,,,,,,,,,,1778.9022,1779.4108,1779.6465,1784.7151,space,4.9991,,1784.7151,9,56,1785.6711,1785.6711,1785.6715,,,,0,11,11,11,1,20,85,,,,,,,,
,,5ff81ab8d6f3fa546efbad4e,65af590c8504a42db6af8020,2024-01-23_06h19.05.553,bars,2023.2.3,Win32,11.99040767,657b66ea316d21385b68909f,,,,,,,,,,,1785.6716,1786.6868,,,1787.2076,1787.4311,,131,131,,,,,,,,,,,,,,,,bars/015.png,bars/mask002.png,,,,,,,,,,,,3,1,,,,,,,10,0,10,0,,,,,,,,,,,1786.6868,1787.2076,1787.4311,1790.0075,space,2.5058,,1790.0075,21,29,1790.9992,1790.9992,1790.9997,,,,0,12,12,12,1,110,160,,,,,,,,
,,5ff81ab8d6f3fa546efbad4e,65af590c8504a42db6af8020,2024-01-23_06h19.05.553,bars,2023.2.3,Win32,11.99040767,657b66ea316d21385b68909f,,,,,,,,,,,1790.9997,1791.9463,,,1792.3866,1792.6099,,155,155,,,,,,,,,,,,,,,,bars/018.png,bars/mask000.png,,,,,,,,,,,,8,1,,,,,,,8,2,9,2,,,,,,,,,,,1791.9464,1792.3866,1792.6099,1795.5313,space,2.8477,,1795.5313,5,65,1796.5295,1796.5296,1796.53,,,,0,13,13,13,1,150,90,,,,,,,,
,,5ff81ab8d6f3fa546efbad4e,65af590c8504a42db6af8020,2024-01-23_06h19.05.553,bars,2023.2.3,Win32,11.99040767,657b66ea316d21385b68909f,,,,,,,,,,,1796.5301,1797.4857,,,1797.9401,1798.1616,,117,117,,,,,,,,,,,,,,,,bars/029.png,bars/mask005.png,,,,,,,,,,,,1,1,,,,,,,10,4,8,6,,,,,,,,,,,1797.4857,1797.9401,1798.1617,1800.9002,space,2.6666,,1800.9003,27,72,1801.8577,1801.8577,1801.8582,,,,0,14,14,14,1,90,45,,,,,,,,
,,5ff81ab8d6f3fa546efbad4e,65af590c8504a42db6af8020,2024-01-23_06h19.05.553,bars,2023.2.3,Win32,11.99040767,657b66ea316d21385b68909f,,,,,,,,,,,1801.8582,1802.8629,,,1803.3758,1803.5932,,136,136,,,,,,,,,,,,,,,,bars/032.png,bars/mask003.png,,,,,,,,,,,,5,1,,,,,,,8,6,8,6,,,,,,,,,,,1802.863,1803.3757,1803.5932,1807.9528,space,4.2903,,1807.9528,11,64,1808.9026,1808.9026,1808.9032,,,,0,15,15,15,1,125,20,,,,,,,,
,,5ff81ab8d6f3fa546efbad4e,65af590c8504a42db6af8020,2024-01-23_06h19.05.553,bars,2023.2.3,Win32,11.99040767,657b66ea316d21385b68909f,,,,,,,,,,,1808.9033,1809.8532,,,1810.299,1810.5218,,52,52,,,,,,,,,,,,,,,,bars/022.png,bars/mask004.png,,,,,,,,,,,,0,2,,,,,,,10,8,10,9,,,,,,,,,,,1809.8532,1810.2989,1810.5218,1814.7145,space,4.1221,,1814.7145,43,32,1815.7244,1815.7244,1815.7255,,,,0,16,16,16,1,95,20,,,,,,,,
,,5ff81ab8d6f3fa546efbad4e,65af590c8504a42db6af8020,2024-01-23_06h19.05.553,bars,2023.2.3,Win32,11.99040767,657b66ea316d21385b68909f,,,,,,,,,,,1815.7256,1816.6798,,,1817.1239,1817.3498,,18,18,,,,,,,,,,,,,,,,bars/033.png,bars/mask002.png,,,,,,,,,,,,8,1,,,,,,,10,10,10,10,,,,,,,,,,,1816.6798,1817.1239,1817.3499,1821.2356,space,3.8161,,1821.2356,7,43,1822.1939,1822.1939,1822.195,,,,0,17,17,17,1,25,155,,,,,,,,
,,5ff81ab8d6f3fa546efbad4e,65af590c8504a42db6af8020,2024-01-23_06h19.05.553,bars,2023.2.3,Win32,11.99040767,657b66ea316d21385b68909f,,,,,,,,,,,1822.1952,1823.138,,,1823.5935,1823.8147,,34,34,,,,,,,,,,,,,,,,bars/044.png,bars/mask007.png,,,,,,,,,,,,0,1,,,,,,,8,8,9,9,,,,,,,,,,,1823.138,1823.5935,1823.8147,1829.1193,space,5.2415,,1829.1193,41,59,1830.1315,1830.1315,1830.1319,,,,0,18,18,18,1,75,155,,,,,,,,
,,5ff81ab8d6f3fa546efbad4e,65af590c8504a42db6af8020,2024-01-23_06h19.05.553,bars,2023.2.3,Win32,11.99040767,657b66ea316d21385b68909f,,,,,,,,,,,1830.132,1831.0862,,,1831.5315,1831.7571,,45,45,,,,,,,,,,,,,,,,bars/044.png,bars/mask004.png,,,,,,,,,,,,0,1,,,,,,,6,10,5,10,,,,,,,,,,,1831.0862,1831.5315,1831.7571,1837.3105,space,5.48,,1837.3105,30,70,1838.2786,1838.2786,1838.279,,,,0,19,19,19,1,75,155,,,,,,,,
,,5ff81ab8d6f3fa546efbad4e,65af590c8504a42db6af8020,2024-01-23_06h19.05.553,bars,2023.2.3,Win32,11.99040767,657b66ea316d21385b68909f,,,,,,,,,,,1838.2791,1839.2869,,,1839.7406,1839.9459,,50,50,,,,,,,,,,,,,,,,bars/042.png,bars/mask008.png,,,,,,,,,,,,1,2,,,,,,,8,10,7,8,,,,,,,,,,,1839.2869,1839.7405,1839.9459,1846.7068,space,6.7004,,1846.7069,85,25,1847.725,1847.725,1847.7261,,,,0,20,20,20,1,145,75,,,,,,,,
,,5ff81ab8d6f3fa546efbad4e,65af590c8504a42db6af8020,2024-01-23_06h19.05.553,bars,2023.2.3,Win32,11.99040767,657b66ea316d21385b68909f,,,,,,,,,,,1847.7262,1848.7286,,,1849.1907,1849.41,,132,132,,,,,,,,,,,,,,,,bars/031.png,bars/mask005.png,,,,,,,,,,,,3,1,,,,,,,6,8,5,8,,,,,,,,,,,1848.7286,1849.1906,1849.41,1854.4563,space,4.978,,1854.4564,12,83,1855.4598,1855.4599,1855.4609,,,,0,21,21,21,1,120,35,,,,,,,,
,,5ff81ab8d6f3fa546efbad4e,65af590c8504a42db6af8020,2024-01-23_06h19.05.553,bars,2023.2.3,Win32,11.99040767,657b66ea316d21385b68909f,,,,,,,,,,,1855.461,1856.4613,,,1856.9675,1857.1964,,24,204,,,,,,,,,,,,,,,,bars/009.png,bars/mask005.png,,,,,,,,,,,,2,1,,,,,,,4,10,3,10,,,,,,,,,,,1856.4613,1856.9675,1857.1964,1860.1906,space,2.9335,,1860.1906,9,81,1861.1855,1861.1855,1861.186,,,,0,22,22,22,1,15,105,,,,,,,,
,,5ff81ab8d6f3fa546efbad4e,65af590c8504a42db6af8020,2024-01-23_06h19.05.553,bars,2023.2.3,Win32,11.99040767,657b66ea316d21385b68909f,,,,,,,,,,,1861.186,1862.1467,,,1862.6652,1862.8867,,147,147,,,,,,,,,,,,,,,,bars/007.png,bars/mask008.png,,,,,,,,,,,,0,1,,,,,,,2,10,2,10,,,,,,,,,,,1862.1468,1862.6652,1862.8867,1868.2814,space,5.3317,,1868.2814,28,88,1869.2441,1869.2441,1869.2447,,,,0,23,23,23,1,175,55,,,,,,,,
,,5ff81ab8d6f3fa546efbad4e,65af590c8504a42db6af8020,2024-01-23_06h19.05.553,bars,2023.2.3,Win32,11.99040767,657b66ea316d21385b68909f,,,,,,,,,,,1869.2447,1870.1992,,,1870.7005,1870.9181,,56,56,,,,,,,,,,,,,,,,bars/010.png,bars/mask001.png,,,,,,,,,,,,8,2,,,,,,,0,8,0,8,,,,,,,,,,,1870.1992,1870.7005,1870.9181,1873.8449,space,2.8552,,1873.8449,71,1,1874.8634,1874.8634,1874.8647,,,,0,24,24,24,1,165,55,,,,,,,,
,,5ff81ab8d6f3fa546efbad4e,65af590c8504a42db6af8020,2024-01-23_06h19.05.553,bars,2023.2.3,Win32,11.99040767,657b66ea316d21385b68909f,,,,,,,,,,,1874.8647,1875.8122,,,1876.263,1876.4789,,108,108,,,,,,,,,,,,,,,,bars/001.png,bars/mask000.png,,,,,,,,,,,,1,1,,,,,,,2,6,3,4,,,,,,,,,,,1875.8123,1876.2629,1876.479,1882.0405,space,5.4905,,1882.0406,22,23,1883.0527,1883.0527,1883.0538,,,,0,25,25,25,1,130,85,,,,,,,,
,,5ff81ab8d6f3fa546efbad4e,65af590c8504a42db6af8020,2024-01-23_06h19.05.553,bars,2023.2.3,Win32,11.99040767,657b66ea316d21385b68909f,,,,,,,,,,,1883.054,1884.0224,,,1884.4753,1884.7036,,20,200,,,,,,,,,,,,,,,,bars/012.png,bars/mask008.png,,,,,,,,,,,,5,2,,,,,,,0,8,0,6,,,,,,,,,,,1884.0224,1884.4753,1884.7036,1889.8103,space,5.0441,,1889.8103,70,5,1890.7779,1890.7779,1890.779,,,,0,26,26,26,1,90,15,,,,,,,,
,,5ff81ab8d6f3fa546efbad4e,65af590c8504a42db6af8020,2024-01-23_06h19.05.553,bars,2023.2.3,Win32,11.99040767,657b66ea316d21385b68909f,,,,,,,,,,,1890.7791,1891.7711,,,1892.2236,1892.4331,,1,1,,,,,,,,,,,,,,,,bars/013.png,bars/mask000.png,,,,,,,,,,,,6,2,,,,,,,2,10,4,9,,,,,,,,,,,1891.7711,1892.2236,1892.4331,1895.3741,space,2.8733,,1895.3741,74,9,1896.3489,1896.3489,1896.3493,,,,0,27,27,27,1,75,10,,,,,,,,
,,5ff81ab8d6f3fa546efbad4e,65af590c8504a42db6af8020,2024-01-23_06h19.05.553,bars,2023.2.3,Win32,11.99040767,657b66ea316d21385b68909f,,,,,,,,,,,1896.3494,1897.2999,,,1897.7995,1898.0068,,163,163,,,,,,,,,,,,,,,,bars/044.png,bars/mask005.png,,,,,,,,,,,,7,2,,,,,,,0,8,0,9,,,,,,,,,,,1897.2999,1897.7995,1898.0068,1902.8527,space,4.7747,,1902.8527,88,8,1903.8078,1903.8078,1903.8082,,,,0,28,28,28,1,75,155,,,,,,,,
,,5ff81ab8d6f3fa546efbad4e,65af590c8504a42db6af8020,2024-01-23_06h19.05.553,bars,2023.2.3,Win32,11.99040767,657b66ea316d21385b68909f,,,,,,,,,,,1903.8083,1904.8112,,,1905.3184,1905.5382,,159,-21,,,,,,,,,,,,,,,,bars/005.png,bars/mask008.png,,,,,,,,,,,,4,2,,,,,,,0,10,0,10,,,,,,,,,,,1904.8112,1905.3183,1905.5382,1911.0825,space,5.4812,,1911.0825,31,19,1912.0308,1912.0309,1912.0313,,,,0,29,29,29,1,10,140,,,,,,,,
,,5ff81ab8d6f3fa546efbad4e,65af590c8504a42db6af8020,2024-01-23_06h19.05.553,bars,2023.2.3,Win32,11.99040767,657b66ea316d21385b68909f,,,,,,,,,,,1912.0315,1913.0397,,,1913.5589,1913.7764,,48,48,,,,,,,,,,,,,,,,bars/046.png,bars/mask007.png,,,,,,,,,,,,0,2,,,,,,,2,8,0,9,,,,,,,,,,,1913.0397,1913.5589,1913.7765,1920.7447,space,6.9,,1920.7447,73,37,1921.7624,1921.7624,1921.7628,,,,0,30,30,30,1,155,85,,,,,,,,
,,5ff81ab8d6f3fa546efbad4e,65af590c8504a42db6af8020,2024-01-23_06h19.05.553,bars,2023.2.3,Win32,11.99040767,657b66ea316d21385b68909f,,,,,,,,,,,1921.763,1922.7741,,,1923.2953,1923.5092,,18,198,,,,,,,,,,,,,,,,bars/036.png,bars/mask002.png,,,,,,,,,,,,5,2,,,,,,,0,6,1,5,,,,,,,,,,,1922.7741,1923.2953,1923.5092,1933.1404,space,9.5682,,1933.1404,53,2,1934.1062,1934.1063,1934.1066,,,,0,31,31,31,1,145,20,,,,,,,,
,,5ff81ab8d6f3fa546efbad4e,65af590c8504a42db6af8020,2024-01-23_06h19.05.553,bars,2023.2.3,Win32,11.99040767,657b66ea316d21385b68909f,,,,,,,,,,,1934.1068,1935.0664,,,1935.5096,1935.7468,,157,157,,,,,,,,,,,,,,,,bars/005.png,bars/mask008.png,,,,,,,,,,,,1,2,,,,,,,2,4,2,3,,,,,,,,,,,1935.0664,1935.5096,1935.7468,1938.2092,space,2.3934,,1938.2092,33,17,1939.1578,1939.1578,1939.1583,,,,0,32,32,32,1,10,140,,,,,,,,
,,5ff81ab8d6f3fa546efbad4e,65af590c8504a42db6af8020,2024-01-23_06h19.05.553,bars,2023.2.3,Win32,11.99040767,657b66ea316d21385b68909f,,,,,,,,,,,1939.1584,1940.1409,,,1940.5932,1940.8246,,26,26,,,,,,,,,,,,,,,,bars/025.png,bars/mask005.png,,,,,,,,,,,,1,2,,,,,,,4,2,4,2,,,,,,,,,,,1940.1409,1940.5931,1940.8246,1946.6136,space,5.7225,,1946.6137,79,14,1947.6266,1947.6266,1947.6271,,,,0,33,33,33,1,105,40,,,,,,,,
,,5ff81ab8d6f3fa546efbad4e,65af590c8504a42db6af8020,2024-01-23_06h19.05.553,bars,2023.2.3,Win32,11.99040767,657b66ea316d21385b68909f,,,,,,,,,,,1947.6271,1948.6322,,,1949.1547,1949.3953,,158,158,,,,,,,,,,,,,,,,bars/039.png,bars/mask003.png,,,,,,,,,,,,2,1,,,,,,,6,0,5,1,,,,,,,,,,,1948.6322,1949.1547,1949.3954,1952.4051,space,2.9432,,1952.4051,17,53,1953.3553,1953.3553,1953.361,,,,0,34,34,34,1,175,105,,,,,,,,
,,5ff81ab8d6f3fa546efbad4e,65af590c8504a42db6af8020,2024-01-23_06h19.05.553,bars,2023.2.3,Win32,11.99040767,657b66ea316d21385b68909f,,,,,,,,,,,1953.3612,1954.3571,,,1954.8289,1955.0448,,10,10,,,,,,,,,,,,,,,,bars/016.png,bars/mask009.png,,,,,,,,,,,,1,2,,,,,,,4,2,2,4,,,,,,,,,,,1954.3571,1954.8289,1955.0448,1959.3566,space,4.2435,,1959.3566,30,25,1960.296,1960.2961,1960.3017,,,,0,35,35,35,1,40,165,,,,,,,,
,,5ff81ab8d6f3fa546efbad4e,65af590c8504a42db6af8020,2024-01-23_06h19.05.553,bars,2023.2.3,Win32,11.99040767,657b66ea316d21385b68909f,,,,,,,,,,,1960.3018,1961.309,,,1961.8215,1962.0337,,151,151,,,,,,,,,,,,,,,,bars/000.png,bars/mask003.png,,,,,,,,,,,,3,2,,,,,,,2,4,2,4,,,,,,,,,,,1961.309,1961.8215,1962.0337,1966.5819,space,4.4812,,1966.5819,69,6,1967.5875,1967.5875,1967.5882,,,,0,36,36,36,1,40,145,,,,,,,,
,,5ff81ab8d6f3fa546efbad4e,65af590c8504a42db6af8020,2024-01-23_06h19.05.553,bars,2023.2.3,Win32,11.99040767,657b66ea316d21385b68909f,,,,,,,,,,,1967.5882,1968.5342,,,1968.9991,1969.2269,,163,163,,,,,,,,,,,,,,,,bars/008.png,bars/mask009.png,,,,,,,,,,,,1,2,,,,,,,4,2,4,3,,,,,,,,,,,1968.5342,1968.999,1969.2269,1974.8794,space,5.5789,,1974.8795,53,17,1975.8846,1975.8846,1975.8851,,,,0,37,37,37,1,110,0,,,,,,,,
,,5ff81ab8d6f3fa546efbad4e,65af590c8504a42db6af8020,2024-01-23_06h19.05.553,bars,2023.2.3,Win32,11.99040767,657b66ea316d21385b68909f,,,,,,,,,,,1975.8852,1976.8692,,,1977.3674,1977.5869,,100,100,,,,,,,,,,,,,,,,bars/018.png,bars/mask007.png,,,,,,,,,,,,3,2,,,,,,,6,4,6,5,,,,,,,,,,,1976.8692,1977.3674,1977.5869,1978.967,space,1.3062,,1978.967,50,10,1979.9671,1979.9671,1979.9677,,,,0,38,38,38,1,150,90,,,,,,,,
,,5ff81ab8d6f3fa546efbad4e,65af590c8504a42db6af8020,2024-01-23_06h19.05.553,bars,2023.2.3,Win32,11.99040767,657b66ea316d21385b68909f,,,,,,,,,,,1979.9678,1980.9813,,,1981.5089,1981.7267,,20,20,,,,,,,,,,,,,,,,bars/009.png,bars/mask001.png,,,,,,,,,,,,5,1,,,,,,,4,6,6,7,,,,,,,,,,,1980.9813,1981.5089,1981.7267,1983.9011,space,2.1132,,1983.9011,5,85,1984.9036,1984.9036,1984.9047,,,,0,39,39,39,1,15,105,,,,,,,,
,,5ff81ab8d6f3fa546efbad4e,65af590c8504a42db6af8020,2024-01-23_06h19.05.553,bars,2023.2.3,Win32,11.99040767,657b66ea316d21385b68909f,,,,,,,,,,,1984.9048,1985.9247,,,1986.4253,1986.6346,,103,103,,,,,,,,,,,,,,,,bars/014.png,bars/mask005.png,,,,,,,,,,,,2,1,,,,,,,6,4,7,4,,,,,,,,,,,1985.9247,1986.4253,1986.6346,1989.5166,space,2.8108,,1989.5166,23,77,1990.4803,1990.4803,1990.4807,,,,0,40,40,40,1,80,0,,,,,,,,
,,5ff81ab8d6f3fa546efbad4e,65af590c8504a42db6af8020,2024-01-23_06h19.05.553,bars,2023.2.3,Win32,11.99040767,657b66ea316d21385b68909f,,,,,,,,,,,1990.4808,1991.4775,,,1991.9747,1992.1862,,165,-15,,,,,,,,,,,,,,,,bars/003.png,bars/mask003.png,,,,,,,,,,,,0,2,,,,,,,4,2,5,1,,,,,,,,,,,1991.4775,1991.9747,1992.1862,1994.8059,space,2.5568,,1994.8059,40,25,1995.7884,1995.7884,1995.7896,,,,0,41,41,41,1,25,140,,,,,,,,
,,5ff81ab8d6f3fa546efbad4e,65af590c8504a42db6af8020,2024-01-23_06h19.05.553,bars,2023.2.3,Win32,11.99040767,657b66ea316d21385b68909f,,,,,,,,,,,1995.7897,1996.8124,,,1997.3253,1997.5519,,27,27,,,,,,,,,,,,,,,,bars/025.png,bars/mask006.png,,,,,,,,,,,,2,2,,,,,,,2,4,3,4,,,,,,,,,,,1996.8124,1997.3252,1997.5519,2002.2714,space,4.6585,,2002.2714,78,13,2003.2222,2003.2222,2003.2225,,,,0,42,42,42,1,105,40,,,,,,,,
,,5ff81ab8d6f3fa546efbad4e,65af590c8504a42db6af8020,2024-01-23_06h19.05.553,bars,2023.2.3,Win32,11.99040767,657b66ea316d21385b68909f,,,,,,,,,,,2003.2227,2004.1795,,,2004.6332,2004.8583,,58,58,,,,,,,,,,,,,,,,bars/047.png,bars/mask007.png,,,,,,,,,,,,1,2,,,,,,,4,2,5,1,,,,,,,,,,,2004.1795,2004.6332,2004.8583,2012.4817,space,7.5635,,2012.4817,43,12,2013.4306,2013.4306,2013.431,,,,0,43,43,43,1,15,70,,,,,,,,
,,5ff81ab8d6f3fa546efbad4e,65af590c8504a42db6af8020,2024-01-23_06h19.05.553,bars,2023.2.3,Win32,11.99040767,657b66ea316d21385b68909f,,,,,,,,,,,2013.4311,2014.4389,,,2014.9539,2015.1736,,11,191,,,,,,,,,,,,,,,,bars/007.png,bars/mask004.png,,,,,,,,,,,,2,1,,,,,,,6,0,5,0,,,,,,,,,,,2014.4389,2014.9539,2015.1736,2018.8142,space,3.5711,,2018.8142,16,44,2019.7657,2019.7657,2019.7669,,,,0,44,44,44,1,175,55,,,,,,,,
,,5ff81ab8d6f3fa546efbad4e,65af590c8504a42db6af8020,2024-01-23_06h19.05.553,bars,2023.2.3,Win32,11.99040767,657b66ea316d21385b68909f,,,,,,,,,,,2019.7669,2020.7698,,,2021.22,2021.4362,,61,61,,,,,,,,,,,,,,,,bars/002.png,bars/mask007.png,,,,,,,,,,,,0,2,,,,,,,8,0,9,0,,,,,,,,,,,2020.7698,2021.22,2021.4362,2028.5248,space,7.0231,,2028.5248,69,24,2029.5378,2029.5378,2029.5389,,,,0,45,45,45,1,130,85,,,,,,,,
,,5ff81ab8d6f3fa546efbad4e,65af590c8504a42db6af8020,2024-01-23_06h19.05.553,bars,2023.2.3,Win32,11.99040767,657b66ea316d21385b68909f,,,,,,,,,,,2029.539,2030.4803,,,2030.9975,2031.2236,,111,111,,,,,,,,,,,,,,,,bars/045.png,bars/mask009.png,,,,,,,,,,,,5,1,,,,,,,6,0,8,0,,,,,,,,,,,2030.4803,2030.9975,2031.2237,2036.1991,space,4.9103,,2036.1991,11,79,2037.1898,2037.1898,2037.1955,,,,0,46,46,46,1,100,10,,,,,,,,
,,5ff81ab8d6f3fa546efbad4e,65af590c8504a42db6af8020,2024-01-23_06h19.05.553,bars,2023.2.3,Win32,11.99040767,657b66ea316d21385b68909f,,,,,,,,,,,2037.1957,2038.196,,,2038.646,2038.8631,,117,117,,,,,,,,,,,,,,,,bars/015.png,bars/mask005.png,,,,,,,,,,,,6,1,,,,,,,8,2,8,3,,,,,,,,,,,2038.196,2038.646,2038.8632,2040.5079,space,1.5733,,2040.5079,7,43,2041.4627,2041.4627,2041.4631,,,,0,47,47,47,1,110,160,,,,,,,,
,,5ff81ab8d6f3fa546efbad4e,65af590c8504a42db6af8020,2024-01-23_06h19.05.553,bars,2023.2.3,Win32,11.99040767,657b66ea316d21385b68909f,,,,,,,,,,,2041.4632,2042.4125,,,2042.9142,2043.1297,,18,18,,,,,,,,,,,,,,,,bars/033.png,bars/mask003.png,,,,,,,,,,,,8,1,,,,,,,10,4,10,3,,,,,,,,,,,2042.4126,2042.9141,2043.1297,2048.4129,space,5.2116,,2048.4129,7,43,2049.4256,2049.4256,2049.4261,,,,0,48,48,48,1,25,155,,,,,,,,
,,5ff81ab8d6f3fa546efbad4e,65af590c8504a42db6af8020,2024-01-23_06h19.05.553,bars,2023.2.3,Win32,11.99040767,657b66ea316d21385b68909f,,,,,,,,,,,2049.4263,2050.3909,,,2050.8327,2051.0487,,47,47,,,,,,,,,,,,,,,,bars/029.png,bars/mask002.png,,,,,,,,,,,,2,2,,,,,,,10,2,10,2,,,,,,,,,,,2050.3909,2050.8327,2051.0487,2054.105,space,2.9906,,2054.1051,43,2,2055.0985,2055.0985,2055.0996,,,,0,49,49,49,1,90,45,,,,,,,,
,,5ff81ab8d6f3fa546efbad4e,65af590c8504a42db6af8020,2024-01-23_06h19.05.553,bars,2023.2.3,Win32,11.99040767,657b66ea316d21385b68909f,,,,,,,,,,,,,,,,,,,,,,,,,,,,,,,,,,,,,,,,,,,,,,,,,,,,,,,,,,,,,,,,,,,,,,,,,,,,,,,,,,,,,,,,,,,,,2055.0997,2166.5479,0,3,3,4,1,sequence_tables/blk046.csv
,,5ff81ab8d6f3fa546efbad4e,65af590c8504a42db6af8020,2024-01-23_06h19.05.553,bars,2023.2.3,Win32,11.99040767,657b66ea316d21385b68909f,,,,,,,,,,,2168.1746,2169.126,,,2169.6411,2169.8635,,149,149,,,,,,,,,,,,,,,,bars/024.png,bars/mask003.png,,,,,,,,,,,,1,2,,,,,,,1,3,2,3,,,,,,2166.5541,2168.1728,space,1.5583,0.0001,2169.126,2169.641,2169.8636,2172.5659,space,2.6302,,2172.566,29,21,2173.5861,2173.5861,2173.5867,,,,0,0,0,0,1,120,170,,,,,,,,
,,5ff81ab8d6f3fa546efbad4e,65af590c8504a42db6af8020,2024-01-23_06h19.05.553,bars,2023.2.3,Win32,11.99040767,657b66ea316d21385b68909f,,,,,,,,,,,2173.5868,2174.5395,,,2175.0536,2175.2817,,18,18,,,,,,,,,,,,,,,,bars/047.png,bars/mask000.png,,,,,,,,,,,,4,1,,,,,,,3,5,4,6,,,,,,,,,,,2174.5395,2175.0535,2175.2817,2177.5658,space,2.222,,2177.5658,3,52,2178.5188,2178.5188,2178.5198,,,,0,1,1,1,1,15,70,,,,,,,,
,,5ff81ab8d6f3fa546efbad4e,65af590c8504a42db6af8020,2024-01-23_06h19.05.553,bars,2023.2.3,Win32,11.99040767,657b66ea316d21385b68909f,,,,,,,,,,,2178.52,2179.5155,,,2179.97,2180.1953,,169,-11,,,,,,,,,,,,,,,,bars/046.png,bars/mask000.png,,,,,,,,,,,,1,1,,,,,,,1,3,2,3,,,,,,,,,,,2179.5155,2179.97,2180.1953,2184.5973,space,4.3403,,2184.5973,14,84,2185.5505,2185.5505,2185.5509,,,,0,2,2,2,1,155,85,,,,,,,,
,,5ff81ab8d6f3fa546efbad4e,65af590c8504a42db6af8020,2024-01-23_06h19.05.553,bars,2023.2.3,Win32,11.99040767,657b66ea316d21385b68909f,,,,,,,,,,,2185.5511,2186.5767,,,2187.0322,2187.2618,,141,141,,,,,,,,,,,,,,,,bars/032.png,bars/mask001.png,,,,,,,,,,,,0,1,,,,,,,0,1,1,1,,,,,,,,,,,2186.5767,2187.0322,2187.2618,2188.3981,space,1.0745,,2188.3981,16,59,2189.3527,2189.3527,2189.3533,,,,0,3,3,3,1,125,20,,,,,,,,
,,5ff81ab8d6f3fa546efbad4e,65af590c8504a42db6af8020,2024-01-23_06h19.05.553,bars,2023.2.3,Win32,11.99040767,657b66ea316d21385b68909f,,,,,,,,,,,2189.3537,2190.3443,,,2190.8653,2191.0766,,32,32,,,,,,,,,,,,,,,,bars/007.png,bars/mask002.png,,,,,,,,,,,,1,2,,,,,,,2,3,1,3,,,,,,,,,,,2190.3443,2190.8653,2191.0766,2192.0591,space,0.9207,,2192.0591,37,23,2193.0116,2193.0117,2193.0128,,,,0,4,4,4,1,175,55,,,,,,,,
,,5ff81ab8d6f3fa546efbad4e,65af590c8504a42db6af8020,2024-01-23_06h19.05.553,bars,2023.2.3,Win32,11.99040767,657b66ea316d21385b68909f,,,,,,,,,,,2193.0129,2193.9704,,,2194.4171,2194.6474,,103,103,,,,,,,,,,,,,,,,bars/001.png,bars/mask001.png,,,,,,,,,,,,0,2,,,,,,,4,1,3,1,,,,,,,,,,,2193.9705,2194.4171,2194.6474,2196.8581,space,2.141,,2196.8582,27,18,2197.8484,2197.8485,2197.8536,,,,0,5,5,5,1,130,85,,,,,,,,
,,5ff81ab8d6f3fa546efbad4e,65af590c8504a42db6af8020,2024-01-23_06h19.05.553,bars,2023.2.3,Win32,11.99040767,657b66ea316d21385b68909f,,,,,,,,,,,2197.8538,2198.8572,,,2199.3081,2199.5347,,153,153,,,,,,,,,,,,,,,,bars/038.png,bars/mask004.png,,,,,,,,,,,,3,1,,,,,,,6,3,5,2,,,,,,,,,,,2198.8572,2199.3081,2199.5347,2202.8772,space,3.2716,,2202.8772,12,83,2203.8191,2203.8191,2203.8249,,,,0,6,6,6,1,165,70,,,,,,,,
,,5ff81ab8d6f3fa546efbad4e,65af590c8504a42db6af8020,2024-01-23_06h19.05.553,bars,2023.2.3,Win32,11.99040767,657b66ea316d21385b68909f,,,,,,,,,,,2203.825,2204.8192,,,2205.278,2205.4901,,141,141,,,,,,,,,,,,,,,,bars/048.png,bars/mask007.png,,,,,,,,,,,,0,2,,,,,,,4,5,5,4,,,,,,,,,,,2204.8192,2205.278,2205.4901,2206.5147,space,0.9566,,2206.5147,89,34,2207.519,2207.519,2207.5201,,,,0,7,7,7,1,50,175,,,,,,,,
,,5ff81ab8d6f3fa546efbad4e,65af590c8504a42db6af8020,2024-01-23_06h19.05.553,bars,2023.2.3,Win32,11.99040767,657b66ea316d21385b68909f,,,,,,,,,,,2207.5203,2208.5203,,,2209.041,2209.2565,,135,135,,,,,,,,,,,,,,,,bars/031.png,bars/mask004.png,,,,,,,,,,,,4,1,,,,,,,6,7,7,8,,,,,,,,,,,2208.5204,2209.041,2209.2566,2216.7069,space,7.382,,2216.7069,15,80,2217.668,2217.668,2217.669,,,,0,8,8,8,1,120,35,,,,,,,,
,,5ff81ab8d6f3fa546efbad4e,65af590c8504a42db6af8020,2024-01-23_06h19.05.553,bars,2023.2.3,Win32,11.99040767,657b66ea316d21385b68909f,,,,,,,,,,,2217.6692,2218.626,,,2219.1433,2219.3727,,45,45,,,,,,,,,,,,,,,,bars/026.png,bars/mask003.png,,,,,,,,,,,,3,1,,,,,,,4,9,5,8,,,,,,,,,,,2218.6261,2219.1432,2219.3727,2222.5095,space,3.0702,,2222.5095,10,40,2223.5143,2223.5143,2223.5148,,,,0,9,9,9,1,35,85,,,,,,,,
,,5ff81ab8d6f3fa546efbad4e,65af590c8504a42db6af8020,2024-01-23_06h19.05.553,bars,2023.2.3,Win32,11.99040767,657b66ea316d21385b68909f,,,,,,,,,,,2223.5149,2224.5293,,,2224.9756,2225.201,,132,132,,,,,,,,,,,,,,,,bars/042.png,bars/mask006.png,,,,,,,,,,,,3,1,,,,,,,6,10,6,10,,,,,,,,,,,2224.5293,2224.9755,2225.2011,2228.4849,space,3.2123,,2228.4849,13,57,2229.4829,2229.483,2229.4835,,,,0,10,10,10,1,145,75,,,,,,,,
,,5ff81ab8d6f3fa546efbad4e,65af590c8504a42db6af8020,2024-01-23_06h19.05.553,bars,2023.2.3,Win32,11.99040767,657b66ea316d21385b68909f,,,,,,,,,,,2229.4835,2230.4514,,,2230.9163,2231.1331,,137,137,,,,,,,,,,,,,,,,bars/040.png,bars/mask007.png,,,,,,,,,,,,8,1,,,,,,,8,8,9,9,,,,,,,,,,,2230.4514,2230.9163,2231.1331,2237.744,space,6.5474,,2237.7441,3,48,2238.698,2238.698,2238.6985,,,,0,11,11,11,1,140,5,,,,,,,,
