init_variables.started,init_variables.stopped,participant,session,date,expName,psychopyVersion,OS,frameRate,study_id,instruction_exp.started,instruction_exp.stopped,key_resp_8.keys,key_resp_8.rt,key_resp_8.duration,instruction_single.started,instruction_single.stopped,key_resp_2.keys,key_resp_2.rt,key_resp_2.duration,interval.started,interval.stopped,cue_single.started,cue_single.stopped,mask.started,mask.stopped,ori_response_single.started,res_ori,res,ori_response_single.stopped,key_resp_single.keys,key_resp_single.rt,key_resp_single.duration,disp_single.started,disp_single.stopped,key_resp.keys,key_resp.rt,key_resp.duration,single.thisRepN,single.thisTrialN,single.thisN,single.thisIndex,single.ran,ori,path,mask_path,instruction_bandit.started,instruction_bandit.stopped,key_resp_6.keys,key_resp_6.rt,key_resp_6.duration,cue_bandit.started,cue_bandit.stopped,bandit_res.keys,bandit_res.rt,bandit_res.duration,outcome_bandit.started,rew,action,outcome_bandit.stopped,bandit.thisRepN,bandit.thisTrialN,bandit.thisN,bandit.thisIndex,bandit.ran,actual_rew1,actual_rew2,rew1,rew2,instruction_task.started,instruction_task.stopped,key_resp_7.keys,key_resp_7.rt,key_resp_7.duration,wait_ready.started,wait_ready.stopped,key_resp_3.keys,key_resp_3.rt,key_resp_3.duration,cue.started,cue.stopped,ori_response.started,ori_response.stopped,key_resp_5.keys,key_resp_5.rt,key_resp_5.duration,outcome.started,diff1,diff2,outcome.stopped,disp_outcome_practice.started,disp_outcome_practice.stopped,key_resp_4.keys,key_resp_4.rt,key_resp_4.duration,trials.thisRepN,trials.thisTrialN,trials.thisN,trials.thisIndex,trials.ran,ori1,ori2,break_blk.started,break_blk.stopped,block.thisRepN,block.thisTrialN,block.thisN,block.thisIndex,block.ran,condition_file
0.0008,0.0009,5c1550c32b16ba0001c95536,65af55854aa07d90bbee3cc8,2024-01-23_08h00.37.252,bars,2023.2.3,Win32,59.52380952,657b66ea316d21385b68909f,,,,,,,,,,,,,,,,,,,,,,,,,,,,,,,,,,,,,,,,,,,,,,,,,,,,,,,,,,,,,,,,,,,,,,,,,,,,,,,,,,,,,,,,,,,,,,,,,,,,
,,5c1550c32b16ba0001c95536,65af55854aa07d90bbee3cc8,2024-01-23_08h00.37.252,bars,2023.2.3,Win32,59.52380952,657b66ea316d21385b68909f,0.0011,17.2463,y,17.2283,,,,,,,,,,,,,,,,,,,,,,,,,,,,,,,,,,,,,,,,,,,,,,,,,,,,,,,,,,,,,,,,,,,,,,,,,,,,,,,,,,,,,,,,,,,,,,,,
,,5c1550c32b16ba0001c95536,65af55854aa07d90bbee3cc8,2024-01-23_08h00.37.252,bars,2023.2.3,Win32,59.52380952,657b66ea316d21385b68909f,,,,,,17.2465,27.1164,space,9.8526,,,,,,,,,,,,,,,,,,,,,,,,,,,,,,,,,,,,,,,,,,,,,,,,,,,,,,,,,,,,,,,,,,,,,,,,,,,,,,,,,,,,,,,,,,,
,,5c1550c32b16ba0001c95536,65af55854aa07d90bbee3cc8,2024-01-23_08h00.37.252,bars,2023.2.3,Win32,59.52380952,657b66ea316d21385b68909f,,,,,,,,,,,27.1291,28.1188,28.119,28.6169,28.6171,28.8666,28.8667,61,61,32.3559,space,3.4664,,32.356,39.561,space,7.1734,,0,0,0,1,1,20,bars/single001.png,bars/mask006.png,,,,,,,,,,,,,,,,,,,,,,,,,,,,,,,,,,,,,,,,,,,,,,,,,,,,,,,,,,,,,,,,
,,5c1550c32b16ba0001c95536,65af55854aa07d90bbee3cc8,2024-01-23_08h00.37.252,bars,2023.2.3,Win32,59.52380952,657b66ea316d21385b68909f,,,,,,,,,,,39.5693,40.5615,40.5615,41.0619,41.062,41.3122,41.3122,84,84,45.0995,space,3.772,,45.0995,48.7171,space,3.5987,,0,1,1,5,1,55,bars/single005.png,bars/mask008.png,,,,,,,,,,,,,,,,,,,,,,,,,,,,,,,,,,,,,,,,,,,,,,,,,,,,,,,,,,,,,,,,
,,5c1550c32b16ba0001c95536,65af55854aa07d90bbee3cc8,2024-01-23_08h00.37.252,bars,2023.2.3,Win32,59.52380952,657b66ea316d21385b68909f,,,,,,,,,,,48.7276,49.7206,49.7206,50.2211,50.2211,50.4714,50.4714,20,200,53.4745,space,2.9889,,53.4746,54.5755,space,1.0798,,0,2,2,7,1,45,bars/single007.png,bars/mask009.png,,,,,,,,,,,,,,,,,,,,,,,,,,,,,,,,,,,,,,,,,,,,,,,,,,,,,,,,,,,,,,,,
,,5c1550c32b16ba0001c95536,65af55854aa07d90bbee3cc8,2024-01-23_08h00.37.252,bars,2023.2.3,Win32,59.52380952,657b66ea316d21385b68909f,,,,,,,,,,,54.5758,55.5766,55.5767,56.077,56.077,56.3273,56.3273,1,181,58.4795,space,2.1363,,58.4795,62.472,space,3.9793,,0,3,3,6,1,175,bars/single006.png,bars/mask005.png,,,,,,,,,,,,,,,,,,,,,,,,,,,,,,,,,,,,,,,,,,,,,,,,,,,,,,,,,,,,,,,,
,,5c1550c32b16ba0001c95536,65af55854aa07d90bbee3cc8,2024-01-23_08h00.37.252,bars,2023.2.3,Win32,59.52380952,657b66ea316d21385b68909f,,,,,,,,,,,62.4865,63.4846,63.4847,63.9859,63.9859,64.2401,64.2401,95,95,68.3703,space,4.1132,,68.3703,71.7759,space,3.3828,,0,4,4,4,1,95,bars/single004.png,bars/mask004.png,,,,,,,,,,,,,,,,,,,,,,,,,,,,,,,,,,,,,,,,,,,,,,,,,,,,,,,,,,,,,,,,
,,5c1550c32b16ba0001c95536,65af55854aa07d90bbee3cc8,2024-01-23_08h00.37.252,bars,2023.2.3,Win32,59.52380952,657b66ea316d21385b68909f,,,,,,,,,,,71.784,72.7767,72.7767,73.2772,73.2772,73.5275,73.5275,14,14,75.6777,space,2.1364,,75.6778,79.1408,space,3.447,,0,5,5,9,1,20,bars/single009.png,bars/mask006.png,,,,,,,,,,,,,,,,,,,,,,,,,,,,,,,,,,,,,,,,,,,,,,,,,,,,,,,,,,,,,,,,
,,5c1550c32b16ba0001c95536,65af55854aa07d90bbee3cc8,2024-01-23_08h00.37.252,bars,2023.2.3,Win32,59.52380952,657b66ea316d21385b68909f,,,,,,,,,,,79.1412,80.1344,80.1344,80.6348,80.6349,80.8851,80.8851,140,140,82.9209,space,2.0208,,82.921,84.8224,space,1.8857,,0,6,6,8,1,160,bars/single008.png,bars/mask004.png,,,,,,,,,,,,,,,,,,,,,,,,,,,,,,,,,,,,,,,,,,,,,,,,,,,,,,,,,,,,,,,,
,,5c1550c32b16ba0001c95536,65af55854aa07d90bbee3cc8,2024-01-23_08h00.37.252,bars,2023.2.3,Win32,59.52380952,657b66ea316d21385b68909f,,,,,,,,,,,84.8227,85.8233,85.8234,86.3566,86.3566,86.5751,86.5751,1,1,89.5443,space,2.9538,,89.5443,92.4298,space,2.8617,,0,7,7,3,1,20,bars/single003.png,bars/mask005.png,,,,,,,,,,,,,,,,,,,,,,,,,,,,,,,,,,,,,,,,,,,,,,,,,,,,,,,,,,,,,,,,
,,5c1550c32b16ba0001c95536,65af55854aa07d90bbee3cc8,2024-01-23_08h00.37.252,bars,2023.2.3,Win32,59.52380952,657b66ea316d21385b68909f,,,,,,,,,,,92.4302,93.4305,93.4305,93.9311,93.9311,94.1813,94.1813,145,145,96.6172,space,2.4195,,96.6173,105.6596,space,9.0259,,0,8,8,0,1,150,bars/single000.png,bars/mask006.png,,,,,,,,,,,,,,,,,,,,,,,,,,,,,,,,,,,,,,,,,,,,,,,,,,,,,,,,,,,,,,,,
,,5c1550c32b16ba0001c95536,65af55854aa07d90bbee3cc8,2024-01-23_08h00.37.252,bars,2023.2.3,Win32,59.52380952,657b66ea316d21385b68909f,,,,,,,,,,,105.668,106.6604,106.6605,107.1609,107.1609,107.4111,107.4112,144,-36,113.8846,space,6.4568,,113.8847,145.3995,space,31.4949,,0,9,9,2,1,145,bars/single002.png,bars/mask003.png,,,,,,,,,,,,,,,,,,,,,,,,,,,,,,,,,,,,,,,,,,,,,,,,,,,,,,,,,,,,,,,,
,,5c1550c32b16ba0001c95536,65af55854aa07d90bbee3cc8,2024-01-23_08h00.37.252,bars,2023.2.3,Win32,59.52380952,657b66ea316d21385b68909f,,,,,,,,,,,,,,,,,,,,,,,,,,,,,,,,,,,,,145.4084,197.9999,space,52.5798,,,,,,,,,,,,,,,,,,,,,,,,,,,,,,,,,,,,,,,,,,,,,,,,,,,,,,,,,,,,
,,5c1550c32b16ba0001c95536,65af55854aa07d90bbee3cc8,2024-01-23_08h00.37.252,bars,2023.2.3,Win32,59.52380952,657b66ea316d21385b68909f,,,,,,,,,,,,,,,,,,,,,,,,,,,,,,,,,,,,,,,,,,198.0102,200.6217,left,2.5955,,200.6218,9,1,201.6219,0,0,0,0,1,9,1,9,2,,,,,,,,,,,,,,,,,,,,,,,,,,,,,,,,,,,,,,,,,
,,5c1550c32b16ba0001c95536,65af55854aa07d90bbee3cc8,2024-01-23_08h00.37.252,bars,2023.2.3,Win32,59.52380952,657b66ea316d21385b68909f,,,,,,,,,,,,,,,,,,,,,,,,,,,,,,,,,,,,,,,,,,201.6225,202.9072,right,1.2685,,202.9072,1,2,203.9075,0,1,1,1,1,10,0,10,1,,,,,,,,,,,,,,,,,,,,,,,,,,,,,,,,,,,,,,,,,
,,5c1550c32b16ba0001c95536,65af55854aa07d90bbee3cc8,2024-01-23_08h00.37.252,bars,2023.2.3,Win32,59.52380952,657b66ea316d21385b68909f,,,,,,,,,,,,,,,,,,,,,,,,,,,,,,,,,,,,,,,,,,203.9078,204.3922,left,0.4676,,204.3923,10,1,205.3923,0,2,2,2,1,10,2,10,2,,,,,,,,,,,,,,,,,,,,,,,,,,,,,,,,,,,,,,,,,
,,5c1550c32b16ba0001c95536,65af55854aa07d90bbee3cc8,2024-01-23_08h00.37.252,bars,2023.2.3,Win32,59.52380952,657b66ea316d21385b68909f,,,,,,,,,,,,,,,,,,,,,,,,,,,,,,,,,,,,,,,,,,205.3927,205.8768,left,0.4674,,205.8768,7,1,206.877,0,3,3,3,1,8,4,7,3,,,,,,,,,,,,,,,,,,,,,,,,,,,,,,,,,,,,,,,,,
,,5c1550c32b16ba0001c95536,65af55854aa07d90bbee3cc8,2024-01-23_08h00.37.252,bars,2023.2.3,Win32,59.52380952,657b66ea316d21385b68909f,,,,,,,,,,,,,,,,,,,,,,,,,,,,,,,,,,,,,,,,,,206.8775,207.4951,left,0.6011,,207.4951,5,1,208.4954,0,4,4,4,1,6,2,5,1,,,,,,,,,,,,,,,,,,,,,,,,,,,,,,,,,,,,,,,,,
,,5c1550c32b16ba0001c95536,65af55854aa07d90bbee3cc8,2024-01-23_08h00.37.252,bars,2023.2.3,Win32,59.52380952,657b66ea316d21385b68909f,,,,,,,,,,,,,,,,,,,,,,,,,,,,,,,,,,,,,,,,,,208.4959,208.9138,right,0.4039,,208.9138,4,2,209.9135,0,5,5,5,1,4,4,4,4,,,,,,,,,,,,,,,,,,,,,,,,,,,,,,,,,,,,,,,,,
,,5c1550c32b16ba0001c95536,65af55854aa07d90bbee3cc8,2024-01-23_08h00.37.252,bars,2023.2.3,Win32,59.52380952,657b66ea316d21385b68909f,,,,,,,,,,,,,,,,,,,,,,,,,,,,,,,,,,,,,,,,,,209.9139,210.2479,right,0.3176,,210.2479,2,2,211.2481,0,6,6,6,1,2,2,1,2,,,,,,,,,,,,,,,,,,,,,,,,,,,,,,,,,,,,,,,,,
,,5c1550c32b16ba0001c95536,65af55854aa07d90bbee3cc8,2024-01-23_08h00.37.252,bars,2023.2.3,Win32,59.52380952,657b66ea316d21385b68909f,,,,,,,,,,,,,,,,,,,,,,,,,,,,,,,,,,,,,,,,,,211.2486,211.499,left,0.2343,,211.4991,0,1,212.4994,0,7,7,7,1,0,0,0,1,,,,,,,,,,,,,,,,,,,,,,,,,,,,,,,,,,,,,,,,,
,,5c1550c32b16ba0001c95536,65af55854aa07d90bbee3cc8,2024-01-23_08h00.37.252,bars,2023.2.3,Win32,59.52380952,657b66ea316d21385b68909f,,,,,,,,,,,,,,,,,,,,,,,,,,,,,,,,,,,,,,,,,,212.4998,212.8337,left,0.3188,,212.8337,1,1,213.834,0,8,8,8,1,0,2,1,0,,,,,,,,,,,,,,,,,,,,,,,,,,,,,,,,,,,,,,,,,
,,5c1550c32b16ba0001c95536,65af55854aa07d90bbee3cc8,2024-01-23_08h00.37.252,bars,2023.2.3,Win32,59.52380952,657b66ea316d21385b68909f,,,,,,,,,,,,,,,,,,,,,,,,,,,,,,,,,,,,,,,,,,213.8345,214.2684,right,0.4177,,214.2685,3,2,215.2693,0,9,9,9,1,2,4,2,3,,,,,,,,,,,,,,,,,,,,,,,,,,,,,,,,,,,,,,,,,
,,5c1550c32b16ba0001c95536,65af55854aa07d90bbee3cc8,2024-01-23_08h00.37.252,bars,2023.2.3,Win32,59.52380952,657b66ea316d21385b68909f,,,,,,,,,,,,,,,,,,,,,,,,,,,,,,,,,,,,,,,,,,215.2695,215.5863,left,0.3005,,215.5865,0,1,216.5873,0,10,10,10,1,0,2,0,3,,,,,,,,,,,,,,,,,,,,,,,,,,,,,,,,,,,,,,,,,
,,5c1550c32b16ba0001c95536,65af55854aa07d90bbee3cc8,2024-01-23_08h00.37.252,bars,2023.2.3,Win32,59.52380952,657b66ea316d21385b68909f,,,,,,,,,,,,,,,,,,,,,,,,,,,,,,,,,,,,,,,,,,216.5879,216.9045,right,0.3008,,216.9045,3,2,217.9047,0,11,11,11,1,0,4,0,3,,,,,,,,,,,,,,,,,,,,,,,,,,,,,,,,,,,,,,,,,
,,5c1550c32b16ba0001c95536,65af55854aa07d90bbee3cc8,2024-01-23_08h00.37.252,bars,2023.2.3,Win32,59.52380952,657b66ea316d21385b68909f,,,,,,,,,,,,,,,,,,,,,,,,,,,,,,,,,,,,,,,,,,217.9053,218.189,right,0.2678,,218.1891,6,2,219.1893,0,12,12,12,1,2,6,1,6,,,,,,,,,,,,,,,,,,,,,,,,,,,,,,,,,,,,,,,,,
,,5c1550c32b16ba0001c95536,65af55854aa07d90bbee3cc8,2024-01-23_08h00.37.252,bars,2023.2.3,Win32,59.52380952,657b66ea316d21385b68909f,,,,,,,,,,,,,,,,,,,,,,,,,,,,,,,,,,,,,,,,,,219.1899,219.4576,right,0.2538,,219.4577,3,2,220.4572,0,13,13,13,1,0,4,1,3,,,,,,,,,,,,,,,,,,,,,,,,,,,,,,,,,,,,,,,,,
,,5c1550c32b16ba0001c95536,65af55854aa07d90bbee3cc8,2024-01-23_08h00.37.252,bars,2023.2.3,Win32,59.52380952,657b66ea316d21385b68909f,,,,,,,,,,,,,,,,,,,,,,,,,,,,,,,,,,,,,,,,,,220.4578,220.7083,left,0.2342,,220.7083,2,1,221.7086,0,14,14,14,1,2,6,2,7,,,,,,,,,,,,,,,,,,,,,,,,,,,,,,,,,,,,,,,,,
,,5c1550c32b16ba0001c95536,65af55854aa07d90bbee3cc8,2024-01-23_08h00.37.252,bars,2023.2.3,Win32,59.52380952,657b66ea316d21385b68909f,,,,,,,,,,,,,,,,,,,,,,,,,,,,,,,,,,,,,,,,,,221.7091,221.9928,left,0.2674,,221.9928,3,1,222.9937,0,15,15,15,1,4,8,3,9,,,,,,,,,,,,,,,,,,,,,,,,,,,,,,,,,,,,,,,,,
,,5c1550c32b16ba0001c95536,65af55854aa07d90bbee3cc8,2024-01-23_08h00.37.252,bars,2023.2.3,Win32,59.52380952,657b66ea316d21385b68909f,,,,,,,,,,,,,,,,,,,,,,,,,,,,,,,,,,,,,,,,,,222.9942,223.3752,left,0.3675,,223.3752,7,1,224.3747,0,16,16,16,1,6,6,7,7,,,,,,,,,,,,,,,,,,,,,,,,,,,,,,,,,,,,,,,,,
,,5c1550c32b16ba0001c95536,65af55854aa07d90bbee3cc8,2024-01-23_08h00.37.252,bars,2023.2.3,Win32,59.52380952,657b66ea316d21385b68909f,,,,,,,,,,,,,,,,,,,,,,,,,,,,,,,,,,,,,,,,,,224.3752,224.676,left,0.2844,,224.676,9,1,225.6761,0,17,17,17,1,8,4,9,5,,,,,,,,,,,,,,,,,,,,,,,,,,,,,,,,,,,,,,,,,
,,5c1550c32b16ba0001c95536,65af55854aa07d90bbee3cc8,2024-01-23_08h00.37.252,bars,2023.2.3,Win32,59.52380952,657b66ea316d21385b68909f,,,,,,,,,,,,,,,,,,,,,,,,,,,,,,,,,,,,,,,,,,225.6765,225.9773,left,0.2847,,225.9774,5,1,226.9774,0,18,18,18,1,6,2,5,1,,,,,,,,,,,,,,,,,,,,,,,,,,,,,,,,,,,,,,,,,
,,5c1550c32b16ba0001c95536,65af55854aa07d90bbee3cc8,2024-01-23_08h00.37.252,bars,2023.2.3,Win32,59.52380952,657b66ea316d21385b68909f,,,,,,,,,,,,,,,,,,,,,,,,,,,,,,,,,,,,,,,,,,226.978,227.2452,right,0.2512,,227.2452,0,2,228.2453,0,19,19,19,1,8,0,7,0,,,,,,,,,,,,,,,,,,,,,,,,,,,,,,,,,,,,,,,,,
,,5c1550c32b16ba0001c95536,65af55854aa07d90bbee3cc8,2024-01-23_08h00.37.252,bars,2023.2.3,Win32,59.52380952,657b66ea316d21385b68909f,,,,,,,,,,,,,,,,,,,,,,,,,,,,,,,,,,,,,,,,,,,,,,,,,,,,,,,,,,,,228.2459,238.7573,space,10.4939,,,,,,,,,,,,,,,,,,,,,,,,,,,,,,,,,,,,,
,,5c1550c32b16ba0001c95536,65af55854aa07d90bbee3cc8,2024-01-23_08h00.37.252,bars,2023.2.3,Win32,59.52380952,657b66ea316d21385b68909f,,,,,,,,,,,239.8646,240.861,,,241.3617,241.6117,,62,62,,,,,,,,,,,,,,,,bars/038.png,bars/mask001.png,,,,,,,,,,,,5,2,,,,,,,3,6,4,7,,,,,,238.7674,239.8616,space,1.0849,,240.8612,241.3617,241.612,244.3984,space,2.7698,,244.3986,77,8,245.3991,245.3993,251.7877,space,6.3727,,0,0,0,0,1,165,70,,,,,,,,
,,5c1550c32b16ba0001c95536,65af55854aa07d90bbee3cc8,2024-01-23_08h00.37.252,bars,2023.2.3,Win32,59.52380952,657b66ea316d21385b68909f,,,,,,,,,,,251.7983,252.7896,,,253.2902,253.5403,,138,138,,,,,,,,,,,,,,,,bars/042.png,bars/mask005.png,,,,,,,,,,,,2,1,,,,,,,5,8,3,7,,,,,,,,,,,252.7896,253.2902,253.5404,255.4258,space,1.8699,,255.426,7,63,256.4265,256.4265,257.3778,space,0.9353,,0,1,1,1,1,145,75,,,,,,,,
,,5c1550c32b16ba0001c95536,65af55854aa07d90bbee3cc8,2024-01-23_08h00.37.252,bars,2023.2.3,Win32,59.52380952,657b66ea316d21385b68909f,,,,,,,,,,,257.3781,258.3785,,,258.8791,259.1292,,176,-4,,,,,,,,,,,,,,,,bars/014.png,bars/mask007.png,,,,,,,,,,,,9,2,,,,,,,7,10,8,10,,,,,,,,,,,258.3786,258.8791,259.1292,261.265,space,2.1193,,261.2651,84,4,262.2657,262.2658,263.6674,space,1.3853,,0,2,2,2,1,80,0,,,,,,,,
,,5c1550c32b16ba0001c95536,65af55854aa07d90bbee3cc8,2024-01-23_08h00.37.252,bars,2023.2.3,Win32,59.52380952,657b66ea316d21385b68909f,,,,,,,,,,,263.6677,264.6681,,,265.1687,265.4189,,109,109,,,,,,,,,,,,,,,,bars/049.png,bars/mask003.png,,,,,,,,,,,,8,2,,,,,,,5,10,5,10,,,,,,,,,,,264.6682,265.1687,265.4189,268.7057,space,3.2704,,268.7057,51,6,269.7064,269.7064,270.7079,space,0.9813,,0,3,3,3,1,160,115,,,,,,,,
,,5c1550c32b16ba0001c95536,65af55854aa07d90bbee3cc8,2024-01-23_08h00.37.252,bars,2023.2.3,Win32,59.52380952,657b66ea316d21385b68909f,,,,,,,,,,,270.7082,271.7084,,,272.209,272.4593,,3,3,,,,,,,,,,,,,,,,bars/008.png,bars/mask008.png,,,,,,,,,,,,7,2,,,,,,,3,10,2,8,,,,,,,,,,,271.7085,272.209,272.4593,275.2956,space,2.82,,275.2957,73,3,276.2963,276.2964,278.5322,space,2.2156,,0,4,4,4,1,110,0,,,,,,,,
,,5c1550c32b16ba0001c95536,65af55854aa07d90bbee3cc8,2024-01-23_08h00.37.252,bars,2023.2.3,Win32,59.52380952,657b66ea316d21385b68909f,,,,,,,,,,,278.5326,279.533,,,280.034,280.2837,,62,62,,,,,,,,,,,,,,,,bars/007.png,bars/mask004.png,,,,,,,,,,,,7,2,,,,,,,1,10,1,9,,,,,,,,,,,279.533,280.034,280.2837,283.0367,space,2.7365,,283.0369,67,7,284.0374,284.0374,287.7414,space,3.6839,,0,5,5,5,1,175,55,,,,,,,,
,,5c1550c32b16ba0001c95536,65af55854aa07d90bbee3cc8,2024-01-23_08h00.37.252,bars,2023.2.3,Win32,59.52380952,657b66ea316d21385b68909f,,,,,,,,,,,287.7496,288.742,,,289.2427,289.4929,,174,174,,,,,,,,,,,,,,,,bars/044.png,bars/mask000.png,,,,,,,,,,,,4,2,,,,,,,3,10,1,10,,,,,,,,,,,288.7421,289.2427,289.4929,290.4941,space,0.9847,,290.4943,81,19,291.4949,291.4949,292.2125,space,0.7013,,0,6,6,6,1,75,155,,,,,,,,
,,5c1550c32b16ba0001c95536,65af55854aa07d90bbee3cc8,2024-01-23_08h00.37.252,bars,2023.2.3,Win32,59.52380952,657b66ea316d21385b68909f,,,,,,,,,,,292.2128,293.2132,,,293.7138,293.964,,77,77,,,,,,,,,,,,,,,,bars/018.png,bars/mask007.png,,,,,,,,,,,,6,2,,,,,,,5,10,5,10,,,,,,,,,,,293.2133,293.7138,293.964,295.4323,space,1.452,,295.4325,73,13,296.4332,296.4332,297.034,space,0.5845,,0,7,7,7,1,150,90,,,,,,,,
,,5c1550c32b16ba0001c95536,65af55854aa07d90bbee3cc8,2024-01-23_08h00.37.252,bars,2023.2.3,Win32,59.52380952,657b66ea316d21385b68909f,,,,,,,,,,,297.0344,298.0347,,,298.5366,298.7862,,134,134,,,,,,,,,,,,,,,,bars/038.png,bars/mask000.png,,,,,,,,,,,,0,1,,,,,,,7,8,7,9,,,,,,,,,,,298.0348,298.5366,298.7862,301.2048,space,2.4026,,301.2049,31,64,302.206,302.206,302.5228,space,0.2958,,0,8,8,8,1,165,70,,,,,,,,
,,5c1550c32b16ba0001c95536,65af55854aa07d90bbee3cc8,2024-01-23_08h00.37.252,bars,2023.2.3,Win32,59.52380952,657b66ea316d21385b68909f,,,,,,,,,,,302.5232,303.5235,,,304.024,304.2743,,58,58,,,,,,,,,,,,,,,,bars/023.png,bars/mask008.png,,,,,,,,,,,,0,1,,,,,,,5,6,7,5,,,,,,,,,,,303.5235,304.024,304.2743,307.3614,space,3.0721,,307.3614,38,57,308.3617,308.3617,309.1294,space,0.7479,,0,9,9,9,1,20,115,,,,,,,,
,,5c1550c32b16ba0001c95536,65af55854aa07d90bbee3cc8,2024-01-23_08h00.37.252,bars,2023.2.3,Win32,59.52380952,657b66ea316d21385b68909f,,,,,,,,,,,309.1299,310.1301,,,310.6307,310.8809,,155,155,,,,,,,,,,,,,,,,bars/020.png,bars/mask004.png,,,,,,,,,,,,5,2,,,,,,,7,8,7,10,,,,,,,,,,,310.1301,310.6307,310.8809,312.6175,space,1.722,,312.6175,40,15,313.617,313.617,314.2345,space,0.5962,,0,10,10,10,1,115,170,,,,,,,,
,,5c1550c32b16ba0001c95536,65af55854aa07d90bbee3cc8,2024-01-23_08h00.37.252,bars,2023.2.3,Win32,59.52380952,657b66ea316d21385b68909f,,,,,,,,,,,314.2349,315.2352,,,315.7357,315.9864,,95,95,,,,,,,,,,,,,,,,bars/023.png,bars/mask000.png,,,,,,,,,,,,3,2,,,,,,,9,10,8,9,,,,,,,,,,,315.2352,315.7357,315.9864,318.0884,space,2.0855,,318.0885,75,20,319.0891,319.0892,319.5898,space,0.4808,,0,11,11,11,1,20,115,,,,,,,,
,,5c1550c32b16ba0001c95536,65af55854aa07d90bbee3cc8,2024-01-23_08h00.37.252,bars,2023.2.3,Win32,59.52380952,657b66ea316d21385b68909f,,,,,,,,,,,319.5901,320.5905,,,321.0911,321.3412,,49,49,,,,,,,,,,,,,,,,bars/043.png,bars/mask008.png,,,,,,,,,,,,3,1,,,,,,,10,10,9,10,,,,,,,,,,,320.5906,321.0911,321.3413,324.4948,space,3.137,,324.4948,19,81,325.4954,325.4955,325.9796,space,0.4617,,0,12,12,12,1,30,130,,,,,,,,
,,5c1550c32b16ba0001c95536,65af55854aa07d90bbee3cc8,2024-01-23_08h00.37.252,bars,2023.2.3,Win32,59.52380952,657b66ea316d21385b68909f,,,,,,,,,,,325.9799,326.9802,,,327.4808,327.7311,,88,88,,,,,,,,,,,,,,,,bars/039.png,bars/mask005.png,,,,,,,,,,,,3,2,,,,,,,8,8,8,8,,,,,,,,,,,326.9803,327.4808,327.7311,330.534,space,2.7872,,330.5341,87,17,331.5348,331.5348,331.8854,space,0.3285,,0,13,13,13,1,175,105,,,,,,,,
,,5c1550c32b16ba0001c95536,65af55854aa07d90bbee3cc8,2024-01-23_08h00.37.252,bars,2023.2.3,Win32,59.52380952,657b66ea316d21385b68909f,,,,,,,,,,,331.8858,332.8861,,,333.3868,333.6369,,136,136,,,,,,,,,,,,,,,,bars/004.png,bars/mask006.png,,,,,,,,,,,,6,2,,,,,,,10,10,10,10,,,,,,,,,,,332.8862,333.3868,333.6369,335.6892,space,2.0359,,335.6894,69,11,336.69,336.69,337.1073,space,0.401,,0,14,14,14,1,25,125,,,,,,,,
,,5c1550c32b16ba0001c95536,65af55854aa07d90bbee3cc8,2024-01-23_08h00.37.252,bars,2023.2.3,Win32,59.52380952,657b66ea316d21385b68909f,,,,,,,,,,,337.1077,338.1081,,,338.6086,338.8589,,174,174,,,,,,,,,,,,,,,,bars/045.png,bars/mask001.png,,,,,,,,,,,,5,2,,,,,,,8,10,6,10,,,,,,,,,,,338.1081,338.6085,338.8589,341.9962,space,3.1202,,341.9962,74,16,342.9966,342.9966,343.5971,space,0.5801,,0,15,15,15,1,100,10,,,,,,,,
,,5c1550c32b16ba0001c95536,65af55854aa07d90bbee3cc8,2024-01-23_08h00.37.252,bars,2023.2.3,Win32,59.52380952,657b66ea316d21385b68909f,,,,,,,,,,,343.5975,344.5978,,,345.0983,345.3487,,165,165,,,,,,,,,,,,,,,,bars/012.png,bars/mask009.png,,,,,,,,,,,,0,2,,,,,,,10,10,10,9,,,,,,,,,,,344.5978,345.0983,345.3487,348.4186,space,3.0533,,348.4186,75,30,349.4193,349.4193,349.7867,space,0.3474,,0,16,16,16,1,90,15,,,,,,,,
,,5c1550c32b16ba0001c95536,65af55854aa07d90bbee3cc8,2024-01-23_08h00.37.252,bars,2023.2.3,Win32,59.52380952,657b66ea316d21385b68909f,,,,,,,,,,,349.787,350.7873,,,351.288,351.5382,,64,64,,,,,,,,,,,,,,,,bars/042.png,bars/mask004.png,,,,,,,,,,,,6,2,,,,,,,10,10,10,10,,,,,,,,,,,350.7873,351.288,351.5382,353.5904,space,2.036,,353.5904,81,11,354.591,354.5912,355.1588,space,0.5512,,0,17,17,17,1,145,75,,,,,,,,
,,5c1550c32b16ba0001c95536,65af55854aa07d90bbee3cc8,2024-01-23_08h00.37.252,bars,2023.2.3,Win32,59.52380952,657b66ea316d21385b68909f,,,,,,,,,,,355.1591,356.1594,,,356.66,356.9101,,94,94,,,,,,,,,,,,,,,,bars/021.png,bars/mask000.png,,,,,,,,,,,,2,2,,,,,,,10,10,9,10,,,,,,,,,,,356.1594,356.6599,356.9102,359.196,space,2.2696,,359.1961,61,24,360.1968,360.1968,360.7142,space,0.4981,,0,18,18,18,1,155,70,,,,,,,,
,,5c1550c32b16ba0001c95536,65af55854aa07d90bbee3cc8,2024-01-23_08h00.37.252,bars,2023.2.3,Win32,59.52380952,657b66ea316d21385b68909f,,,,,,,,,,,360.7145,361.715,,,362.2155,362.4657,,6,6,,,,,,,,,,,,,,,,bars/014.png,bars/mask001.png,,,,,,,,,,,,6,2,,,,,,,8,8,10,8,,,,,,,,,,,361.715,362.2155,362.4657,364.0153,space,1.535,,364.0154,74,6,365.0151,365.0151,365.6175,space,0.584,,0,19,19,19,1,80,0,,,,,,,,
,,5c1550c32b16ba0001c95536,65af55854aa07d90bbee3cc8,2024-01-23_08h00.37.252,bars,2023.2.3,Win32,59.52380952,657b66ea316d21385b68909f,,,,,,,,,,,365.6177,366.6167,,,367.1173,367.3676,,124,124,,,,,,,,,,,,,,,,bars/005.png,bars/mask003.png,,,,,,,,,,,,2,2,,,,,,,10,6,10,5,,,,,,,,,,,366.6168,367.1172,367.3677,369.4372,space,2.053,,369.4373,66,16,370.4372,370.4372,370.7555,space,0.3011,,0,20,20,20,1,10,140,,,,,,,,
,,5c1550c32b16ba0001c95536,65af55854aa07d90bbee3cc8,2024-01-23_08h00.37.252,bars,2023.2.3,Win32,59.52380952,657b66ea316d21385b68909f,,,,,,,,,,,370.7557,371.7553,,,372.2561,372.5063,,55,55,,,,,,,,,,,,,,,,bars/006.png,bars/mask008.png,,,,,,,,,,,,3,1,,,,,,,10,4,10,5,,,,,,,,,,,371.7553,372.2561,372.5064,374.459,space,1.9362,,374.459,20,45,375.4588,375.4588,375.8293,space,0.3485,,0,21,21,21,1,35,100,,,,,,,,
,,5c1550c32b16ba0001c95536,65af55854aa07d90bbee3cc8,2024-01-23_08h00.37.252,bars,2023.2.3,Win32,59.52380952,657b66ea316d21385b68909f,,,,,,,,,,,375.8296,376.83,,,377.3306,377.5809,,76,76,,,,,,,,,,,,,,,,bars/042.png,bars/mask003.png,,,,,,,,,,,,0,2,,,,,,,8,2,9,0,,,,,,,,,,,376.83,377.3305,377.5809,380.3838,space,2.7865,,380.3839,69,1,381.3844,381.3846,381.8531,space,0.4489,,0,22,22,22,1,145,75,,,,,,,,
,,5c1550c32b16ba0001c95536,65af55854aa07d90bbee3cc8,2024-01-23_08h00.37.252,bars,2023.2.3,Win32,59.52380952,657b66ea316d21385b68909f,,,,,,,,,,,381.8533,382.8527,,,383.3536,383.6034,,45,45,,,,,,,,,,,,,,,,bars/013.png,bars/mask005.png,,,,,,,,,,,,0,1,,,,,,,6,4,6,3,,,,,,,,,,,382.8527,383.3535,383.6035,385.1893,space,1.5711,,385.1893,30,35,386.1893,386.1894,386.5573,space,0.3526,,0,23,23,23,1,75,10,,,,,,,,
,,5c1550c32b16ba0001c95536,65af55854aa07d90bbee3cc8,2024-01-23_08h00.37.252,bars,2023.2.3,Win32,59.52380952,657b66ea316d21385b68909f,,,,,,,,,,,386.5575,387.5576,,,388.058,388.3081,,13,13,,,,,,,,,,,,,,,,bars/044.png,bars/mask008.png,,,,,,,,,,,,0,2,,,,,,,8,6,8,6,,,,,,,,,,,387.5576,388.058,388.3082,389.8612,space,1.5386,,389.8612,62,38,390.8612,390.8612,391.3616,space,0.4838,,0,24,24,24,1,75,155,,,,,,,,
,,5c1550c32b16ba0001c95536,65af55854aa07d90bbee3cc8,2024-01-23_08h00.37.252,bars,2023.2.3,Win32,59.52380952,657b66ea316d21385b68909f,,,,,,,,,,,391.3618,392.3625,,,392.863,393.1133,,169,-11,,,,,,,,,,,,,,,,bars/039.png,bars/mask001.png,,,,,,,,,,,,8,1,,,,,,,10,4,10,5,,,,,,,,,,,392.3625,392.863,393.1133,395.8495,space,2.72,,395.8495,6,64,396.8503,396.8504,397.2009,space,0.3283,,0,25,25,25,1,175,105,,,,,,,,
,,5c1550c32b16ba0001c95536,65af55854aa07d90bbee3cc8,2024-01-23_08h00.37.252,bars,2023.2.3,Win32,59.52380952,657b66ea316d21385b68909f,,,,,,,,,,,397.2012,398.2016,,,398.7022,398.9524,,54,54,,,,,,,,,,,,,,,,bars/044.png,bars/mask008.png,,,,,,,,,,,,3,1,,,,,,,10,2,10,2,,,,,,,,,,,398.2016,398.7022,398.9525,401.7553,space,2.7866,,401.7554,21,79,402.7562,402.7562,403.0405,space,0.2649,,0,26,26,26,1,75,155,,,,,,,,
,,5c1550c32b16ba0001c95536,65af55854aa07d90bbee3cc8,2024-01-23_08h00.37.252,bars,2023.2.3,Win32,59.52380952,657b66ea316d21385b68909f,,,,,,,,,,,403.0415,404.0408,,,404.5416,404.7915,,55,55,,,,,,,,,,,,,,,,bars/029.png,bars/mask004.png,,,,,,,,,,,,3,2,,,,,,,8,4,7,4,,,,,,,,,,,404.0408,404.5416,404.7917,407.3943,space,2.5866,,407.3943,35,10,408.3951,408.3952,408.6956,space,0.2778,,0,27,27,27,1,90,45,,,,,,,,
,,5c1550c32b16ba0001c95536,65af55854aa07d90bbee3cc8,2024-01-23_08h00.37.252,bars,2023.2.3,Win32,59.52380952,657b66ea316d21385b68909f,,,,,,,,,,,408.6958,409.6965,,,410.197,410.4471,,82,82,,,,,,,,,,,,,,,,bars/029.png,bars/mask000.png,,,,,,,,,,,,3,1,,,,,,,6,6,4,7,,,,,,,,,,,409.6965,410.197,410.4472,412.1157,space,1.6523,,412.1157,8,37,413.1165,413.1166,413.4671,space,0.3299,,0,28,28,28,1,90,45,,,,,,,,
,,5c1550c32b16ba0001c95536,65af55854aa07d90bbee3cc8,2024-01-23_08h00.37.252,bars,2023.2.3,Win32,59.52380952,657b66ea316d21385b68909f,,,,,,,,,,,413.4673,414.4681,,,414.9685,415.2186,,174,174,,,,,,,,,,,,,,,,bars/014.png,bars/mask004.png,,,,,,,,,,,,3,2,,,,,,,4,4,3,4,,,,,,,,,,,414.4681,414.9685,415.2186,417.4042,space,2.1693,,417.4042,86,6,418.4051,418.4052,419.0226,space,0.5948,,0,29,29,29,1,80,0,,,,,,,,
,,5c1550c32b16ba0001c95536,65af55854aa07d90bbee3cc8,2024-01-23_08h00.37.252,bars,2023.2.3,Win32,59.52380952,657b66ea316d21385b68909f,,,,,,,,,,,419.0228,420.0234,,,420.524,420.7742,,172,172,,,,,,,,,,,,,,,,bars/044.png,bars/mask001.png,,,,,,,,,,,,1,2,,,,,,,6,2,6,3,,,,,,,,,,,420.0234,420.524,420.7742,422.7429,space,1.9526,,422.743,83,17,423.7437,423.7438,424.0943,space,0.3303,,0,30,30,30,1,75,155,,,,,,,,
,,5c1550c32b16ba0001c95536,65af55854aa07d90bbee3cc8,2024-01-23_08h00.37.252,bars,2023.2.3,Win32,59.52380952,657b66ea316d21385b68909f,,,,,,,,,,,424.0945,425.0951,,,425.5957,425.8459,,60,60,,,,,,,,,,,,,,,,bars/043.png,bars/mask000.png,,,,,,,,,,,,0,1,,,,,,,4,0,5,0,,,,,,,,,,,425.0952,425.5957,425.8459,427.7982,space,1.936,,427.7983,30,70,428.799,428.799,429.1828,space,0.3675,,0,31,31,31,1,30,130,,,,,,,,
,,5c1550c32b16ba0001c95536,65af55854aa07d90bbee3cc8,2024-01-23_08h00.37.252,bars,2023.2.3,Win32,59.52380952,657b66ea316d21385b68909f,,,,,,,,,,,429.1831,430.1836,,,430.6841,430.9343,,60,60,,,,,,,,,,,,,,,,bars/007.png,bars/mask001.png,,,,,,,,,,,,2,2,,,,,,,6,2,6,2,,,,,,,,,,,430.1836,430.6841,430.9343,433.4369,space,2.4863,,433.437,65,5,434.4379,434.4379,434.7051,space,0.2477,,0,32,32,32,1,175,55,,,,,,,,
,,5c1550c32b16ba0001c95536,65af55854aa07d90bbee3cc8,2024-01-23_08h00.37.252,bars,2023.2.3,Win32,59.52380952,657b66ea316d21385b68909f,,,,,,,,,,,434.7055,435.7057,,,436.2062,436.4565,,163,163,,,,,,,,,,,,,,,,bars/036.png,bars/mask004.png,,,,,,,,,,,,4,1,,,,,,,8,4,10,5,,,,,,,,,,,435.7057,436.2062,436.4565,438.1084,space,1.6356,,438.1084,18,37,439.1091,439.1092,439.5264,space,0.4008,,0,33,33,33,1,145,20,,,,,,,,
,,5c1550c32b16ba0001c95536,65af55854aa07d90bbee3cc8,2024-01-23_08h00.37.252,bars,2023.2.3,Win32,59.52380952,657b66ea316d21385b68909f,,,,,,,,,,,439.5266,440.5272,,,441.0278,441.278,,75,75,,,,,,,,,,,,,,,,bars/030.png,bars/mask000.png,,,,,,,,,,,,3,2,,,,,,,10,6,8,5,,,,,,,,,,,440.5272,441.0278,441.2781,443.7139,space,2.4196,,443.7139,65,10,444.7147,444.7147,444.9985,space,0.2622,,0,34,34,34,1,140,65,,,,,,,,
,,5c1550c32b16ba0001c95536,65af55854aa07d90bbee3cc8,2024-01-23_08h00.37.252,bars,2023.2.3,Win32,59.52380952,657b66ea316d21385b68909f,,,,,,,,,,,444.9988,445.9994,,,446.4999,446.7501,,83,83,,,,,,,,,,,,,,,,bars/042.png,bars/mask000.png,,,,,,,,,,,,6,2,,,,,,,10,8,10,8,,,,,,,,,,,445.9994,446.4999,446.7501,447.7015,space,0.9375,,447.7015,62,8,448.7021,448.7021,449.2197,space,0.5015,,0,35,35,35,1,145,75,,,,,,,,
,,5c1550c32b16ba0001c95536,65af55854aa07d90bbee3cc8,2024-01-23_08h00.37.252,bars,2023.2.3,Win32,59.52380952,657b66ea316d21385b68909f,,,,,,,,,,,449.22,450.2198,,,450.7206,450.9707,,12,12,,,,,,,,,,,,,,,,bars/040.png,bars/mask005.png,,,,,,,,,,,,8,2,,,,,,,8,10,8,10,,,,,,,,,,,450.2199,450.7205,450.9707,453.3737,space,2.3874,,453.3737,52,7,454.374,454.3741,454.7747,space,0.381,,0,36,36,36,1,140,5,,,,,,,,
,,5c1550c32b16ba0001c95536,65af55854aa07d90bbee3cc8,2024-01-23_08h00.37.252,bars,2023.2.3,Win32,59.52380952,657b66ea316d21385b68909f,,,,,,,,,,,454.7751,455.7754,,,456.276,456.5262,,157,157,,,,,,,,,,,,,,,,bars/005.png,bars/mask002.png,,,,,,,,,,,,4,2,,,,,,,6,10,5,9,,,,,,,,,,,455.7755,456.276,456.5262,457.9945,space,1.4518,,457.9946,33,17,458.9956,458.9956,459.3127,space,0.3007,,0,37,37,37,1,10,140,,,,,,,,
,,5c1550c32b16ba0001c95536,65af55854aa07d90bbee3cc8,2024-01-23_08h00.37.252,bars,2023.2.3,Win32,59.52380952,657b66ea316d21385b68909f,,,,,,,,,,,459.3129,460.3133,,,460.8139,461.0641,,84,84,,,,,,,,,,,,,,,,bars/019.png,bars/mask007.png,,,,,,,,,,,,2,2,,,,,,,4,8,4,8,,,,,,,,,,,460.3133,460.8138,461.0641,465.0517,space,3.9712,,465.0517,39,21,466.0524,466.0524,466.3031,space,0.2309,,0,38,38,38,1,45,105,,,,,,,,
,,5c1550c32b16ba0001c95536,65af55854aa07d90bbee3cc8,2024-01-23_08h00.37.252,bars,2023.2.3,Win32,59.52380952,657b66ea316d21385b68909f,,,,,,,,,,,466.3034,467.3036,,,467.8041,468.0545,,122,122,,,,,,,,,,,,,,,,bars/024.png,bars/mask008.png,,,,,,,,,,,,2,1,,,,,,,2,6,2,5,,,,,,,,,,,467.3037,467.8041,468.0545,470.6572,space,2.5866,,470.6573,2,48,471.658,471.658,471.9251,space,0.2458,,0,39,39,39,1,120,170,,,,,,,,
,,5c1550c32b16ba0001c95536,65af55854aa07d90bbee3cc8,2024-01-23_08h00.37.252,bars,2023.2.3,Win32,59.52380952,657b66ea316d21385b68909f,,,,,,,,,,,471.9255,472.9259,,,473.4265,473.6766,,69,69,,,,,,,,,,,,,,,,bars/029.png,bars/mask003.png,,,,,,,,,,,,2,1,,,,,,,4,8,5,7,,,,,,,,,,,472.9259,473.4265,473.6767,476.1627,space,2.4701,,476.1628,21,24,477.1635,477.1635,477.4473,space,0.2641,,0,40,40,40,1,90,45,,,,,,,,
,,5c1550c32b16ba0001c95536,65af55854aa07d90bbee3cc8,2024-01-23_08h00.37.252,bars,2023.2.3,Win32,59.52380952,657b66ea316d21385b68909f,,,,,,,,,,,477.4478,478.4481,,,478.9487,479.1989,,96,96,,,,,,,,,,,,,,,,bars/011.png,bars/mask006.png,,,,,,,,,,,,3,2,,,,,,,2,6,2,5,,,,,,,,,,,478.4481,478.9486,479.1989,482.2187,space,3.0035,,482.2189,64,11,483.2195,483.2196,483.4368,space,0.1957,,0,41,41,41,1,160,85,,,,,,,,
,,5c1550c32b16ba0001c95536,65af55854aa07d90bbee3cc8,2024-01-23_08h00.37.252,bars,2023.2.3,Win32,59.52380952,657b66ea316d21385b68909f,,,,,,,,,,,483.4371,484.4373,,,484.938,485.1881,,13,13,,,,,,,,,,,,,,,,bars/048.png,bars/mask005.png,,,,,,,,,,,,1,2,,,,,,,0,4,0,3,,,,,,,,,,,484.4374,484.9379,485.1881,487.5741,space,2.3696,,487.5742,37,18,488.5749,488.5749,488.8587,space,0.2641,,0,42,42,42,1,50,175,,,,,,,,
,,5c1550c32b16ba0001c95536,65af55854aa07d90bbee3cc8,2024-01-23_08h00.37.252,bars,2023.2.3,Win32,59.52380952,657b66ea316d21385b68909f,,,,,,,,,,,488.8591,489.8595,,,490.36,490.6103,,19,19,,,,,,,,,,,,,,,,bars/017.png,bars/mask006.png,,,,,,,,,,,,0,2,,,,,,,2,2,1,3,,,,,,,,,,,489.8595,490.36,490.6103,491.3946,space,0.7673,,491.3946,54,26,492.3952,492.3953,492.8461,space,0.4342,,0,43,43,43,1,145,45,,,,,,,,
,,5c1550c32b16ba0001c95536,65af55854aa07d90bbee3cc8,2024-01-23_08h00.37.252,bars,2023.2.3,Win32,59.52380952,657b66ea316d21385b68909f,,,,,,,,,,,492.8464,493.8468,,,494.3473,494.5976,,130,130,,,,,,,,,,,,,,,,bars/038.png,bars/mask004.png,,,,,,,,,,,,0,1,,,,,,,4,4,5,4,,,,,,,,,,,493.8469,494.3473,494.5977,496.1994,space,1.5856,,496.1995,35,60,497.2005,497.2006,497.484,space,0.2614,,0,44,44,44,1,165,70,,,,,,,,
,,5c1550c32b16ba0001c95536,65af55854aa07d90bbee3cc8,2024-01-23_08h00.37.252,bars,2023.2.3,Win32,59.52380952,657b66ea316d21385b68909f,,,,,,,,,,,497.4843,498.4847,,,498.9853,499.2355,,57,57,,,,,,,,,,,,,,,,bars/017.png,bars/mask004.png,,,,,,,,,,,,1,2,,,,,,,6,2,5,2,,,,,,,,,,,498.4848,498.9853,499.2355,502.1386,space,2.8869,,502.1386,88,12,503.1394,503.1394,503.49,space,0.3289,,0,45,45,45,1,145,45,,,,,,,,
,,5c1550c32b16ba0001c95536,65af55854aa07d90bbee3cc8,2024-01-23_08h00.37.252,bars,2023.2.3,Win32,59.52380952,657b66ea316d21385b68909f,,,,,,,,,,,503.4903,504.4907,,,504.9913,505.2415,,163,163,,,,,,,,,,,,,,,,bars/043.png,bars/mask006.png,,,,,,,,,,,,0,2,,,,,,,4,4,5,2,,,,,,,,,,,504.4908,504.9913,505.2415,507.0769,space,1.819,,507.0769,47,33,508.0647,508.0647,508.5116,space,0.419,,0,46,46,46,1,30,130,,,,,,,,
,,5c1550c32b16ba0001c95536,65af55854aa07d90bbee3cc8,2024-01-23_08h00.37.252,bars,2023.2.3,Win32,59.52380952,657b66ea316d21385b68909f,,,,,,,,,,,508.512,509.5124,,,510.0135,510.2632,,41,41,,,,,,,,,,,,,,,,bars/009.png,bars/mask006.png,,,,,,,,,,,,1,1,,,,,,,6,2,7,2,,,,,,,,,,,509.5125,510.0135,510.2632,511.8984,space,1.6188,,511.8984,26,64,512.8991,512.8992,513.2163,space,0.3007,,0,47,47,47,1,15,105,,,,,,,,
,,5c1550c32b16ba0001c95536,65af55854aa07d90bbee3cc8,2024-01-23_08h00.37.252,bars,2023.2.3,Win32,59.52380952,657b66ea316d21385b68909f,,,,,,,,,,,513.2167,514.2171,,,514.7176,514.9679,,26,206,,,,,,,,,,,,,,,,bars/033.png,bars/mask009.png,,,,,,,,,,,,3,1,,,,,,,4,4,3,3,,,,,,,,,,,514.2171,514.7176,514.9679,518.1213,space,3.137,,518.1213,1,51,519.1221,519.1221,519.3896,space,0.2485,,0,48,48,48,1,25,155,,,,,,,,
,,5c1550c32b16ba0001c95536,65af55854aa07d90bbee3cc8,2024-01-23_08h00.37.252,bars,2023.2.3,Win32,59.52380952,657b66ea316d21385b68909f,,,,,,,,,,,519.3899,520.3903,,,520.8905,521.1407,,138,-42,,,,,,,,,,,,,,,,bars/017.png,bars/mask008.png,,,,,,,,,,,,1,1,,,,,,,2,2,1,2,,,,,,,,,,,520.3903,520.8905,521.1407,525.0948,space,3.938,,525.0949,7,87,526.0957,526.0958,526.4796,space,0.3638,,0,49,49,49,1,145,45,,,,,,,,
,,5c1550c32b16ba0001c95536,65af55854aa07d90bbee3cc8,2024-01-23_08h00.37.252,bars,2023.2.3,Win32,59.52380952,657b66ea316d21385b68909f,,,,,,,,,,,,,,,,,,,,,,,,,,,,,,,,,,,,,,,,,,,,,,,,,,,,,,,,,,,,,,,,,,,,,,,,,,,,,,,,,,,,,,,,,,,,,526.4802,586.4732,0,0,0,3,1,sequence_tables/blk020.csv
,,5c1550c32b16ba0001c95536,65af55854aa07d90bbee3cc8,2024-01-23_08h00.37.252,bars,2023.2.3,Win32,59.52380952,657b66ea316d21385b68909f,,,,,,,,,,,588.3131,589.3089,,,589.8093,590.0595,,55,55,,,,,,,,,,,,,,,,bars/010.png,bars/mask007.png,,,,,,,,,,,,10,2,,,,,,,9,9,7,10,,,,,,586.4817,588.3092,space,1.8196,,589.3089,589.8093,590.0596,591.6279,space,1.5521,,591.628,70,0,592.6288,592.6288,592.6382,,,,0,0,0,0,1,165,55,,,,,,,,
,,5c1550c32b16ba0001c95536,65af55854aa07d90bbee3cc8,2024-01-23_08h00.37.252,bars,2023.2.3,Win32,59.52380952,657b66ea316d21385b68909f,,,,,,,,,,,592.6384,593.6297,,,594.1303,594.3806,,172,-8,,,,,,,,,,,,,,,,bars/033.png,bars/mask007.png,,,,,,,,,,,,4,2,,,,,,,7,10,7,10,,,,,,,,,,,593.6297,594.1302,594.3807,598.4514,space,4.0549,,598.4515,33,17,599.4522,599.4522,599.4606,,,,0,1,1,1,1,25,155,,,,,,,,
,,5c1550c32b16ba0001c95536,65af55854aa07d90bbee3cc8,2024-01-23_08h00.37.252,bars,2023.2.3,Win32,59.52380952,657b66ea316d21385b68909f,,,,,,,,,,,599.4609,600.4533,,,600.9538,601.2041,,24,24,,,,,,,,,,,,,,,,bars/032.png,bars/mask006.png,,,,,,,,,,,,7,2,,,,,,,9,8,9,8,,,,,,,,,,,600.4533,600.9538,601.2041,604.6556,space,3.437,,604.6557,79,4,605.6564,605.6564,605.6648,,,,0,2,2,2,1,125,20,,,,,,,,
,,5c1550c32b16ba0001c95536,65af55854aa07d90bbee3cc8,2024-01-23_08h00.37.252,bars,2023.2.3,Win32,59.52380952,657b66ea316d21385b68909f,,,,,,,,,,,605.6651,606.6569,,,607.1576,607.4078,,55,55,,,,,,,,,,,,,,,,bars/035.png,bars/mask000.png,,,,,,,,,,,,6,2,,,,,,,10,6,8,7,,,,,,,,,,,606.6569,607.1575,607.4079,609.9109,space,2.4869,,609.9109,60,5,610.9112,610.9112,610.9197,,,,0,3,3,3,1,175,60,,,,,,,,
,,5c1550c32b16ba0001c95536,65af55854aa07d90bbee3cc8,2024-01-23_08h00.37.252,bars,2023.2.3,Win32,59.52380952,657b66ea316d21385b68909f,,,,,,,,,,,610.9199,611.9121,,,612.4127,612.6631,,158,158,,,,,,,,,,,,,,,,bars/044.png,bars/mask003.png,,,,,,,,,,,,4,2,,,,,,,10,4,9,4,,,,,,,,,,,611.9121,612.4126,612.6631,614.4322,space,1.7529,,614.4322,83,3,615.4325,615.4325,615.441,,,,0,4,4,4,1,75,155,,,,,,,,
,,5c1550c32b16ba0001c95536,65af55854aa07d90bbee3cc8,2024-01-23_08h00.37.252,bars,2023.2.3,Win32,59.52380952,657b66ea316d21385b68909f,,,,,,,,,,,615.4411,616.4332,,,616.9337,617.1842,,103,-77,,,,,,,,,,,,,,,,bars/041.png,bars/mask004.png,,,,,,,,,,,,1,2,,,,,,,8,2,8,3,,,,,,,,,,,616.4332,616.9337,617.1842,621.5561,space,4.3554,,621.5561,83,18,622.5562,622.5562,622.5648,,,,0,5,5,5,1,20,85,,,,,,,,
,,5c1550c32b16ba0001c95536,65af55854aa07d90bbee3cc8,2024-01-23_08h00.37.252,bars,2023.2.3,Win32,59.52380952,657b66ea316d21385b68909f,,,,,,,,,,,622.5649,623.5571,,,624.0609,624.3079,,92,92,,,,,,,,,,,,,,,,bars/011.png,bars/mask007.png,,,,,,,,,,,,3,2,,,,,,,6,4,6,4,,,,,,,,,,,623.5572,624.0609,624.3079,625.8436,space,1.5195,,625.8436,68,7,626.8435,626.8435,626.852,,,,0,6,6,6,1,160,85,,,,,,,,
,,5c1550c32b16ba0001c95536,65af55854aa07d90bbee3cc8,2024-01-23_08h00.37.252,bars,2023.2.3,Win32,59.52380952,657b66ea316d21385b68909f,,,,,,,,,,,626.8521,627.8448,,,628.348,628.5982,,2,2,,,,,,,,,,,,,,,,bars/048.png,bars/mask000.png,,,,,,,,,,,,5,2,,,,,,,8,6,9,6,,,,,,,,,,,627.8448,628.348,628.5982,630.885,space,2.2731,,630.885,48,7,631.8848,631.8848,631.8929,,,,0,7,7,7,1,50,175,,,,,,,,
,,5c1550c32b16ba0001c95536,65af55854aa07d90bbee3cc8,2024-01-23_08h00.37.252,bars,2023.2.3,Win32,59.52380952,657b66ea316d21385b68909f,,,,,,,,,,,631.8931,632.8858,,,633.3864,633.6367,,71,71,,,,,,,,,,,,,,,,bars/034.png,bars/mask005.png,,,,,,,,,,,,6,2,,,,,,,10,8,10,8,,,,,,,,,,,632.8858,633.3864,633.6367,636.1227,space,2.4697,,636.1227,54,6,637.1234,637.1234,637.1315,,,,0,8,8,8,1,125,65,,,,,,,,
,,5c1550c32b16ba0001c95536,65af55854aa07d90bbee3cc8,2024-01-23_08h00.37.252,bars,2023.2.3,Win32,59.52380952,657b66ea316d21385b68909f,,,,,,,,,,,637.1317,638.1244,,,638.6249,638.8752,,20,200,,,,,,,,,,,,,,,,bars/007.png,bars/mask003.png,,,,,,,,,,,,1,1,,,,,,,8,10,6,10,,,,,,,,,,,638.1244,638.6249,638.8752,640.9775,space,2.0857,,640.9775,25,35,641.9783,641.9783,641.9873,,,,0,9,9,9,1,175,55,,,,,,,,
,,5c1550c32b16ba0001c95536,65af55854aa07d90bbee3cc8,2024-01-23_08h00.37.252,bars,2023.2.3,Win32,59.52380952,657b66ea316d21385b68909f,,,,,,,,,,,641.9874,642.9792,,,643.48,643.73,,93,93,,,,,,,,,,,,,,,,bars/019.png,bars/mask006.png,,,,,,,,,,,,6,2,,,,,,,10,10,10,10,,,,,,,,,,,642.9792,643.4799,643.73,644.7312,space,0.9851,,644.7312,48,12,645.732,645.7321,645.7335,,,,0,10,10,10,1,45,105,,,,,,,,
,,5c1550c32b16ba0001c95536,65af55854aa07d90bbee3cc8,2024-01-23_08h00.37.252,bars,2023.2.3,Win32,59.52380952,657b66ea316d21385b68909f,,,,,,,,,,,645.7337,646.733,,,647.2335,647.4837,,179,-1,,,,,,,,,,,,,,,,bars/014.png,bars/mask002.png,,,,,,,,,,,,10,2,,,,,,,8,10,9,10,,,,,,,,,,,646.733,647.2335,647.4837,650.8039,space,3.3042,,650.804,81,1,651.8047,651.8047,651.813,,,,0,11,11,11,1,80,0,,,,,,,,
,,5c1550c32b16ba0001c95536,65af55854aa07d90bbee3cc8,2024-01-23_08h00.37.252,bars,2023.2.3,Win32,59.52380952,657b66ea316d21385b68909f,,,,,,,,,,,651.8131,652.8057,,,653.3062,653.5566,,86,86,,,,,,,,,,,,,,,,bars/046.png,bars/mask008.png,,,,,,,,,,,,7,2,,,,,,,10,8,8,7,,,,,,,,,,,652.8057,653.3062,653.5567,656.3094,space,2.7367,,656.3095,69,1,657.3102,657.3103,657.3185,,,,0,12,12,12,1,155,85,,,,,,,,
,,5c1550c32b16ba0001c95536,65af55854aa07d90bbee3cc8,2024-01-23_08h00.37.252,bars,2023.2.3,Win32,59.52380952,657b66ea316d21385b68909f,,,,,,,,,,,657.3186,658.3112,,,658.8117,659.062,,158,158,,,,,,,,,,,,,,,,bars/044.png,bars/mask000.png,,,,,,,,,,,,5,2,,,,,,,10,6,10,6,,,,,,,,,,,658.3112,658.8117,659.062,662.649,space,3.5713,,662.6491,83,3,663.6499,663.6499,663.6581,,,,0,13,13,13,1,75,155,,,,,,,,
,,5c1550c32b16ba0001c95536,65af55854aa07d90bbee3cc8,2024-01-23_08h00.37.252,bars,2023.2.3,Win32,59.52380952,657b66ea316d21385b68909f,,,,,,,,,,,663.6583,664.6509,,,665.1514,665.4016,,107,107,,,,,,,,,,,,,,,,bars/009.png,bars/mask008.png,,,,,,,,,,,,4,2,,,,,,,8,4,9,4,,,,,,,,,,,664.6509,665.1514,665.4016,668.4382,space,3.0204,,668.4382,88,2,669.4391,669.4391,669.4498,,,,0,14,14,14,1,15,105,,,,,,,,
,,5c1550c32b16ba0001c95536,65af55854aa07d90bbee3cc8,2024-01-23_08h00.37.252,bars,2023.2.3,Win32,59.52380952,657b66ea316d21385b68909f,,,,,,,,,,,669.4499,670.44,,,670.9405,671.1908,,106,106,,,,,,,,,,,,,,,,bars/001.png,bars/mask008.png,,,,,,,,,,,,1,2,,,,,,,10,2,10,2,,,,,,,,,,,670.44,670.9405,671.1908,673.0598,space,1.8523,,673.0598,24,21,674.0603,674.0603,674.0607,,,,0,15,15,15,1,130,85,,,,,,,,
,,5c1550c32b16ba0001c95536,65af55854aa07d90bbee3cc8,2024-01-23_08h00.37.252,bars,2023.2.3,Win32,59.52380952,657b66ea316d21385b68909f,,,,,,,,,,,674.061,675.0612,,,675.5618,675.812,,97,97,,,,,,,,,,,,,,,,bars/019.png,bars/mask005.png,,,,,,,,,,,,1,2,,,,,,,8,0,9,1,,,,,,,,,,,675.0613,675.5618,675.812,679.1321,space,3.3047,,679.1321,52,8,680.133,680.133,680.1412,,,,0,16,16,16,1,45,105,,,,,,,,
,,5c1550c32b16ba0001c95536,65af55854aa07d90bbee3cc8,2024-01-23_08h00.37.252,bars,2023.2.3,Win32,59.52380952,657b66ea316d21385b68909f,,,,,,,,,,,680.1413,681.134,,,681.6346,681.8848,,23,203,,,,,,,,,,,,,,,,bars/031.png,bars/mask002.png,,,,,,,,,,,,0,2,,,,,,,10,0,10,0,,,,,,,,,,,681.134,681.6346,681.8848,685.5218,space,3.6211,,685.5218,83,12,686.5226,686.5227,686.5313,,,,0,17,17,17,1,120,35,,,,,,,,
,,5c1550c32b16ba0001c95536,65af55854aa07d90bbee3cc8,2024-01-23_08h00.37.252,bars,2023.2.3,Win32,59.52380952,657b66ea316d21385b68909f,,,,,,,,,,,686.5315,687.5238,,,688.0242,688.2744,,67,247,,,,,,,,,,,,,,,,bars/048.png,bars/mask007.png,,,,,,,,,,,,4,1,,,,,,,10,2,10,4,,,,,,,,,,,687.5238,688.0242,688.2746,692.6791,space,4.3884,,692.6791,17,72,693.6799,693.6799,693.6889,,,,0,18,18,18,1,50,175,,,,,,,,
,,5c1550c32b16ba0001c95536,65af55854aa07d90bbee3cc8,2024-01-23_08h00.37.252,bars,2023.2.3,Win32,59.52380952,657b66ea316d21385b68909f,,,,,,,,,,,693.689,694.681,,,695.1814,695.4316,,90,90,,,,,,,,,,,,,,,,bars/021.png,bars/mask007.png,,,,,,,,,,,,1,2,,,,,,,8,4,8,4,,,,,,,,,,,694.681,695.1814,695.4317,698.9853,space,3.5377,,698.9853,65,20,699.9862,699.9863,699.9956,,,,0,19,19,19,1,155,70,,,,,,,,
,,5c1550c32b16ba0001c95536,65af55854aa07d90bbee3cc8,2024-01-23_08h00.37.252,bars,2023.2.3,Win32,59.52380952,657b66ea316d21385b68909f,,,,,,,,,,,699.9958,700.9871,,,701.4877,701.738,,164,-16,,,,,,,,,,,,,,,,bars/036.png,bars/mask008.png,,,,,,,,,,,,3,1,,,,,,,10,6,9,5,,,,,,,,,,,700.9872,701.4877,701.738,705.1418,space,3.3881,,705.1418,19,36,706.1427,706.1427,706.1517,,,,0,20,20,20,1,145,20,,,,,,,,
,,5c1550c32b16ba0001c95536,65af55854aa07d90bbee3cc8,2024-01-23_08h00.37.252,bars,2023.2.3,Win32,59.52380952,657b66ea316d21385b68909f,,,,,,,,,,,706.1519,707.1434,,,707.6438,707.894,,155,-25,,,,,,,,,,,,,,,,bars/004.png,bars/mask001.png,,,,,,,,,,,,0,2,,,,,,,8,4,9,4,,,,,,,,,,,707.1434,707.6438,707.894,710.7471,space,2.8369,,710.7471,50,30,711.748,711.748,711.7571,,,,0,21,21,21,1,25,125,,,,,,,,
,,5c1550c32b16ba0001c95536,65af55854aa07d90bbee3cc8,2024-01-23_08h00.37.252,bars,2023.2.3,Win32,59.52380952,657b66ea316d21385b68909f,,,,,,,,,,,711.7573,712.7489,,,713.2494,713.4997,,152,-28,,,,,,,,,,,,,,,,bars/042.png,bars/mask002.png,,,,,,,,,,,,6,1,,,,,,,6,6,8,5,,,,,,,,,,,712.7489,713.2494,713.4997,716.703,space,3.1871,,716.7031,7,77,717.7038,717.7039,717.7131,,,,0,22,22,22,1,145,75,,,,,,,,
,,5c1550c32b16ba0001c95536,65af55854aa07d90bbee3cc8,2024-01-23_08h00.37.252,bars,2023.2.3,Win32,59.52380952,657b66ea316d21385b68909f,,,,,,,,,,,717.7133,718.7048,,,719.2055,719.4556,,136,-44,,,,,,,,,,,,,,,,bars/040.png,bars/mask007.png,,,,,,,,,,,,7,1,,,,,,,8,4,8,2,,,,,,,,,,,718.7048,719.2055,719.4556,722.9769,space,3.5074,,722.9769,4,49,723.9768,723.9769,723.9849,,,,0,23,23,23,1,140,5,,,,,,,,
,,5c1550c32b16ba0001c95536,65af55854aa07d90bbee3cc8,2024-01-23_08h00.37.252,bars,2023.2.3,Win32,59.52380952,657b66ea316d21385b68909f,,,,,,,,,,,723.9852,724.9778,,,725.4783,725.7286,,119,119,,,,,,,,,,,,,,,,bars/040.png,bars/mask003.png,,,,,,,,,,,,3,1,,,,,,,10,6,10,6,,,,,,,,,,,724.9778,725.4783,725.7286,726.4127,space,0.668,,726.4127,21,66,727.4136,727.4136,727.414,,,,0,24,24,24,1,140,5,,,,,,,,
,,5c1550c32b16ba0001c95536,65af55854aa07d90bbee3cc8,2024-01-23_08h00.37.252,bars,2023.2.3,Win32,59.52380952,657b66ea316d21385b68909f,,,,,,,,,,,727.4141,728.4146,,,728.915,729.1652,,51,51,,,,,,,,,,,,,,,,bars/019.png,bars/mask006.png,,,,,,,,,,,,6,1,,,,,,,8,4,7,4,,,,,,,,,,,728.4146,728.915,729.1653,730.9672,space,1.7851,,730.9672,6,54,731.9681,731.9681,731.9689,,,,0,25,25,25,1,45,105,,,,,,,,
,,5c1550c32b16ba0001c95536,65af55854aa07d90bbee3cc8,2024-01-23_08h00.37.252,bars,2023.2.3,Win32,59.52380952,657b66ea316d21385b68909f,,,,,,,,,,,731.9691,732.9692,,,733.4696,733.7199,,55,55,,,,,,,,,,,,,,,,bars/003.png,bars/mask003.png,,,,,,,,,,,,0,1,,,,,,,10,6,9,6,,,,,,,,,,,732.9692,733.4695,733.7199,735.3386,space,1.6022,,735.3386,30,85,736.3391,736.3392,736.3396,,,,0,26,26,26,1,25,140,,,,,,,,
,,5c1550c32b16ba0001c95536,65af55854aa07d90bbee3cc8,2024-01-23_08h00.37.252,bars,2023.2.3,Win32,59.52380952,657b66ea316d21385b68909f,,,,,,,,,,,736.3398,737.3401,,,737.8406,738.0909,,53,53,,,,,,,,,,,,,,,,bars/003.png,bars/mask008.png,,,,,,,,,,,,1,1,,,,,,,8,4,9,4,,,,,,,,,,,737.3401,737.8406,738.0909,741.5946,space,3.4873,,741.5946,28,87,742.5953,742.5953,742.6035,,,,0,27,27,27,1,25,140,,,,,,,,
,,5c1550c32b16ba0001c95536,65af55854aa07d90bbee3cc8,2024-01-23_08h00.37.252,bars,2023.2.3,Win32,59.52380952,657b66ea316d21385b68909f,,,,,,,,,,,742.6038,743.5963,,,744.0969,744.3472,,87,87,,,,,,,,,,,,,,,,bars/022.png,bars/mask000.png,,,,,,,,,,,,4,1,,,,,,,6,6,6,6,,,,,,,,,,,743.5963,744.0969,744.3472,746.3159,space,1.9526,,746.316,8,67,747.3167,747.3167,747.325,,,,0,28,28,28,1,95,20,,,,,,,,
,,5c1550c32b16ba0001c95536,65af55854aa07d90bbee3cc8,2024-01-23_08h00.37.252,bars,2023.2.3,Win32,59.52380952,657b66ea316d21385b68909f,,,,,,,,,,,747.3252,748.3177,,,748.8183,749.0729,,50,230,,,,,,,,,,,,,,,,bars/028.png,bars/mask003.png,,,,,,,,,,,,3,1,,,,,,,4,4,3,5,,,,,,,,,,,748.3177,748.8182,749.0729,752.4052,space,3.3209,,752.4053,5,70,753.406,753.406,753.4143,,,,0,29,29,29,1,45,120,,,,,,,,
,,5c1550c32b16ba0001c95536,65af55854aa07d90bbee3cc8,2024-01-23_08h00.37.252,bars,2023.2.3,Win32,59.52380952,657b66ea316d21385b68909f,,,,,,,,,,,753.4145,754.4072,,,754.9077,755.1579,,137,137,,,,,,,,,,,,,,,,bars/037.png,bars/mask004.png,,,,,,,,,,,,1,1,,,,,,,2,2,1,2,,,,,,,,,,,754.4072,754.9077,755.1579,756.793,space,1.619,,756.793,13,32,757.7938,757.7938,757.7943,,,,0,30,30,30,1,150,105,,,,,,,,
,,5c1550c32b16ba0001c95536,65af55854aa07d90bbee3cc8,2024-01-23_08h00.37.252,bars,2023.2.3,Win32,59.52380952,657b66ea316d21385b68909f,,,,,,,,,,,757.7945,758.7948,,,759.2954,759.5456,,26,26,,,,,,,,,,,,,,,,bars/033.png,bars/mask001.png,,,,,,,,,,,,4,1,,,,,,,4,4,4,3,,,,,,,,,,,758.7948,759.2954,759.5456,761.2808,space,1.719,,761.2808,1,51,762.2817,762.2817,762.2821,,,,0,31,31,31,1,25,155,,,,,,,,
,,5c1550c32b16ba0001c95536,65af55854aa07d90bbee3cc8,2024-01-23_08h00.37.252,bars,2023.2.3,Win32,59.52380952,657b66ea316d21385b68909f,,,,,,,,,,,762.2823,763.2827,,,763.7832,764.0334,,59,59,,,,,,,,,,,,,,,,bars/048.png,bars/mask003.png,,,,,,,,,,,,1,1,,,,,,,2,2,2,1,,,,,,,,,,,763.2827,763.7832,764.0335,765.702,space,1.6527,,765.702,9,64,766.7029,766.7029,766.7035,,,,0,32,32,32,1,50,175,,,,,,,,
,,5c1550c32b16ba0001c95536,65af55854aa07d90bbee3cc8,2024-01-23_08h00.37.252,bars,2023.2.3,Win32,59.52380952,657b66ea316d21385b68909f,,,,,,,,,,,766.7037,767.7038,,,768.2043,768.4544,,47,227,,,,,,,,,,,,,,,,bars/013.png,bars/mask009.png,,,,,,,,,,,,0,1,,,,,,,4,4,4,4,,,,,,,,,,,767.7038,768.2043,768.4545,771.1741,space,2.7034,,771.1741,28,37,772.1749,772.175,772.1833,,,,0,33,33,33,1,75,10,,,,,,,,
,,5c1550c32b16ba0001c95536,65af55854aa07d90bbee3cc8,2024-01-23_08h00.37.252,bars,2023.2.3,Win32,59.52380952,657b66ea316d21385b68909f,,,,,,,,,,,772.1834,773.1759,,,773.6764,773.9266,,47,227,,,,,,,,,,,,,,,,bars/038.png,bars/mask002.png,,,,,,,,,,,,1,2,,,,,,,6,6,5,4,,,,,,,,,,,773.1759,773.6764,773.9266,777.9141,space,3.9713,,777.9141,62,23,778.9149,778.9149,778.9242,,,,0,34,34,34,1,165,70,,,,,,,,
,,5c1550c32b16ba0001c95536,65af55854aa07d90bbee3cc8,2024-01-23_08h00.37.252,bars,2023.2.3,Win32,59.52380952,657b66ea316d21385b68909f,,,,,,,,,,,778.9243,779.9159,,,780.4164,780.6667,,51,231,,,,,,,,,,,,,,,,bars/047.png,bars/mask001.png,,,,,,,,,,,,1,2,,,,,,,4,4,5,3,,,,,,,,,,,779.9159,780.4164,780.6668,784.1369,space,3.4554,,784.137,36,19,785.1378,785.1378,785.146,,,,0,35,35,35,1,15,70,,,,,,,,
,,5c1550c32b16ba0001c95536,65af55854aa07d90bbee3cc8,2024-01-23_08h00.37.252,bars,2023.2.3,Win32,59.52380952,657b66ea316d21385b68909f,,,,,,,,,,,785.1462,786.1388,,,786.6393,786.8896,,161,-19,,,,,,,,,,,,,,,,bars/024.png,bars/mask001.png,,,,,,,,,,,,1,2,,,,,,,2,2,3,2,,,,,,,,,,,786.1388,786.6393,786.8896,789.9929,space,3.0885,,789.9929,41,9,790.994,790.994,791.0023,,,,0,36,36,36,1,120,170,,,,,,,,
,,5c1550c32b16ba0001c95536,65af55854aa07d90bbee3cc8,2024-01-23_08h00.37.252,bars,2023.2.3,Win32,59.52380952,657b66ea316d21385b68909f,,,,,,,,,,,791.0025,791.9947,,,792.4952,792.7454,,9,189,,,,,,,,,,,,,,,,bars/005.png,bars/mask005.png,,,,,,,,,,,,0,1,,,,,,,0,0,0,0,,,,,,,,,,,791.9947,792.4951,792.7454,795.2147,space,2.4527,,795.2147,1,49,796.2155,796.2155,796.2245,,,,0,37,37,37,1,10,140,,,,,,,,
,,5c1550c32b16ba0001c95536,65af55854aa07d90bbee3cc8,2024-01-23_08h00.37.252,bars,2023.2.3,Win32,59.52380952,657b66ea316d21385b68909f,,,,,,,,,,,796.2246,797.2165,,,797.7171,797.9673,,147,147,,,,,,,,,,,,,,,,bars/015.png,bars/mask003.png,,,,,,,,,,,,1,2,,,,,,,2,2,2,2,,,,,,,,,,,797.2165,797.717,797.9673,798.7183,space,0.7348,,798.7183,37,13,799.719,799.7191,799.7204,,,,0,38,38,38,1,110,160,,,,,,,,
,,5c1550c32b16ba0001c95536,65af55854aa07d90bbee3cc8,2024-01-23_08h00.37.252,bars,2023.2.3,Win32,59.52380952,657b66ea316d21385b68909f,,,,,,,,,,,799.7207,800.72,,,801.2205,801.4709,,27,27,,,,,,,,,,,,,,,,bars/013.png,bars/mask001.png,,,,,,,,,,,,2,2,,,,,,,4,4,6,5,,,,,,,,,,,800.7201,801.2205,801.4709,804.0571,space,2.5706,,804.0572,48,17,805.0581,805.0581,805.0663,,,,0,39,39,39,1,75,10,,,,,,,,
,,5c1550c32b16ba0001c95536,65af55854aa07d90bbee3cc8,2024-01-23_08h00.37.252,bars,2023.2.3,Win32,59.52380952,657b66ea316d21385b68909f,,,,,,,,,,,805.0664,806.0591,,,806.5594,806.8096,,169,-11,,,,,,,,,,,,,,,,bars/014.png,bars/mask000.png,,,,,,,,,,,,1,2,,,,,,,2,2,2,2,,,,,,,,,,,806.0592,806.5594,806.8096,808.895,space,2.0697,,808.895,89,11,809.8959,809.8959,809.904,,,,0,40,40,40,1,80,0,,,,,,,,
,,5c1550c32b16ba0001c95536,65af55854aa07d90bbee3cc8,2024-01-23_08h00.37.252,bars,2023.2.3,Win32,59.52380952,657b66ea316d21385b68909f,,,,,,,,,,,809.9042,810.8968,,,811.3974,811.6476,,65,65,,,,,,,,,,,,,,,,bars/030.png,bars/mask005.png,,,,,,,,,,,,2,2,,,,,,,4,4,2,2,,,,,,,,,,,810.8969,811.3974,811.6476,813.7498,space,2.0865,,813.7498,75,0,814.7507,814.7507,814.7511,,,,0,41,41,41,1,140,65,,,,,,,,
,,5c1550c32b16ba0001c95536,65af55854aa07d90bbee3cc8,2024-01-23_08h00.37.252,bars,2023.2.3,Win32,59.52380952,657b66ea316d21385b68909f,,,,,,,,,,,814.7514,815.7517,,,816.2522,816.5025,,26,26,,,,,,,,,,,,,,,,bars/013.png,bars/mask000.png,,,,,,,,,,,,3,2,,,,,,,2,6,1,7,,,,,,,,,,,815.7517,816.2522,816.5025,818.1723,space,1.6558,,818.1723,49,16,819.1721,819.1721,819.1807,,,,0,42,42,42,1,75,10,,,,,,,,
,,5c1550c32b16ba0001c95536,65af55854aa07d90bbee3cc8,2024-01-23_08h00.37.252,bars,2023.2.3,Win32,59.52380952,657b66ea316d21385b68909f,,,,,,,,,,,819.1807,820.1727,,,820.6733,820.9235,,103,103,,,,,,,,,,,,,,,,bars/037.png,bars/mask008.png,,,,,,,,,,,,7,2,,,,,,,0,8,0,8,,,,,,,,,,,820.1728,820.6732,820.9236,823.5763,space,2.6367,,823.5763,47,2,824.5772,824.5772,824.5855,,,,0,43,43,43,1,150,105,,,,,,,,
,,5c1550c32b16ba0001c95536,65af55854aa07d90bbee3cc8,2024-01-23_08h00.37.252,bars,2023.2.3,Win32,59.52380952,657b66ea316d21385b68909f,,,,,,,,,,,824.5857,825.5782,,,826.0787,826.329,,17,17,,,,,,,,,,,,,,,,bars/032.png,bars/mask000.png,,,,,,,,,,,,5,2,,,,,,,0,6,1,5,,,,,,,,,,,825.5782,826.0787,826.329,828.9651,space,2.62,,828.9651,72,3,829.9659,829.9659,829.974,,,,0,44,44,44,1,125,20,,,,,,,,
,,5c1550c32b16ba0001c95536,65af55854aa07d90bbee3cc8,2024-01-23_08h00.37.252,bars,2023.2.3,Win32,59.52380952,657b66ea316d21385b68909f,,,,,,,,,,,829.9743,830.9669,,,831.4673,831.7177,,44,44,,,,,,,,,,,,,,,,bars/035.png,bars/mask003.png,,,,,,,,,,,,2,2,,,,,,,2,4,1,5,,,,,,,,,,,830.9669,831.4673,831.7177,833.2863,space,1.5524,,833.2863,49,16,834.2873,834.2873,834.2879,,,,0,45,45,45,1,175,60,,,,,,,,
,,5c1550c32b16ba0001c95536,65af55854aa07d90bbee3cc8,2024-01-23_08h00.37.252,bars,2023.2.3,Win32,59.52380952,657b66ea316d21385b68909f,,,,,,,,,,,834.2884,835.2878,,,835.7884,836.0386,,48,48,,,,,,,,,,,,,,,,bars/035.png,bars/mask008.png,,,,,,,,,,,,2,2,,,,,,,4,2,3,3,,,,,,,,,,,835.2878,835.7883,836.0387,839.4088,space,3.3541,,839.4089,53,12,840.4096,840.4097,840.4177,,,,0,46,46,46,1,175,60,,,,,,,,
,,5c1550c32b16ba0001c95536,65af55854aa07d90bbee3cc8,2024-01-23_08h00.37.252,bars,2023.2.3,Win32,59.52380952,657b66ea316d21385b68909f,,,,,,,,,,,840.4178,841.4106,,,841.9111,842.1614,,123,123,,,,,,,,,,,,,,,,bars/028.png,bars/mask006.png,,,,,,,,,,,,4,2,,,,,,,6,4,7,4,,,,,,,,,,,841.4106,841.9111,842.1614,843.93,space,1.7527,,843.93,78,3,844.9308,844.9309,844.9313,,,,0,47,47,47,1,45,120,,,,,,,,
,,5c1550c32b16ba0001c95536,65af55854aa07d90bbee3cc8,2024-01-23_08h00.37.252,bars,2023.2.3,Win32,59.52380952,657b66ea316d21385b68909f,,,,,,,,,,,844.9315,845.9318,,,846.4324,846.6826,,64,64,,,,,,,,,,,,,,,,bars/029.png,bars/mask009.png,,,,,,,,,,,,1,2,,,,,,,4,2,4,2,,,,,,,,,,,845.9318,846.4323,846.6826,848.7681,space,2.0694,,848.7682,26,19,849.769,849.769,849.7786,,,,0,48,48,48,1,90,45,,,,,,,,
,,5c1550c32b16ba0001c95536,65af55854aa07d90bbee3cc8,2024-01-23_08h00.37.252,bars,2023.2.3,Win32,59.52380952,657b66ea316d21385b68909f,,,,,,,,,,,849.7787,850.7699,,,851.2706,851.5208,,126,126,,,,,,,,,,,,,,,,bars/015.png,bars/mask008.png,,,,,,,,,,,,3,1,,,,,,,6,4,6,5,,,,,,,,,,,850.77,851.2705,851.5208,854.4741,space,2.9371,,854.4741,16,34,855.4747,855.4747,855.4842,,,,0,49,49,49,1,110,160,,,,,,,,
,,5c1550c32b16ba0001c95536,65af55854aa07d90bbee3cc8,2024-01-23_08h00.37.252,bars,2023.2.3,Win32,59.52380952,657b66ea316d21385b68909f,,,,,,,,,,,,,,,,,,,,,,,,,,,,,,,,,,,,,,,,,,,,,,,,,,,,,,,,,,,,,,,,,,,,,,,,,,,,,,,,,,,,,,,,,,,,,855.4843,915.4843,0,1,1,2,1,sequence_tables/blk048.csv
,,5c1550c32b16ba0001c95536,65af55854aa07d90bbee3cc8,2024-01-23_08h00.37.252,bars,2023.2.3,Win32,59.52380952,657b66ea316d21385b68909f,,,,,,,,,,,1036.3167,1037.3058,,,1037.8064,1038.0565,,60,60,,,,,,,,,,,,,,,,bars/030.png,bars/mask007.png,,,,,,,,,,,,3,2,,,,,,,3,6,4,4,,,,,,915.4931,1036.305,space,120.802,,1037.3059,1037.8064,1038.0566,1040.4765,space,2.4052,,1040.4765,80,5,1041.4767,1041.4767,1041.486,,,,0,0,0,0,1,140,65,,,,,,,,
,,5c1550c32b16ba0001c95536,65af55854aa07d90bbee3cc8,2024-01-23_08h00.37.252,bars,2023.2.3,Win32,59.52380952,657b66ea316d21385b68909f,,,,,,,,,,,1041.4862,1042.4776,,,1042.9782,1043.2285,,75,75,,,,,,,,,,,,,,,,bars/034.png,bars/mask005.png,,,,,,,,,,,,1,2,,,,,,,1,4,1,2,,,,,,,,,,,1042.4777,1042.9781,1043.2285,1045.7645,space,2.5199,,1045.7647,50,10,1046.7653,1046.7654,1046.7741,,,,0,1,1,1,1,125,65,,,,,,,,
,,5c1550c32b16ba0001c95536,65af55854aa07d90bbee3cc8,2024-01-23_08h00.37.252,bars,2023.2.3,Win32,59.52380952,657b66ea316d21385b68909f,,,,,,,,,,,1046.7744,1047.7662,,,1048.2668,1048.517,,102,102,,,,,,,,,,,,,,,,bars/039.png,bars/mask003.png,,,,,,,,,,,,3,2,,,,,,,0,2,0,3,,,,,,,,,,,1047.7663,1048.2668,1048.517,1051.8525,space,3.3207,,1051.8525,73,3,1052.8525,1052.8526,1052.8611,,,,0,2,2,2,1,175,105,,,,,,,,
,,5c1550c32b16ba0001c95536,65af55854aa07d90bbee3cc8,2024-01-23_08h00.37.252,bars,2023.2.3,Win32,59.52380952,657b66ea316d21385b68909f,,,,,,,,,,,1052.8612,1053.8532,,,1054.3537,1054.604,,7,187,,,,,,,,,,,,,,,,bars/012.png,bars/mask001.png,,,,,,,,,,,,1,2,,,,,,,2,0,1,1,,,,,,,,,,,1053.8532,1054.3537,1054.604,1057.291,space,2.6706,,1057.291,83,8,1058.2907,1058.2907,1058.2993,,,,0,3,3,3,1,90,15,,,,,,,,
,,5c1550c32b16ba0001c95536,65af55854aa07d90bbee3cc8,2024-01-23_08h00.37.252,bars,2023.2.3,Win32,59.52380952,657b66ea316d21385b68909f,,,,,,,,,,,1058.2995,1059.2918,,,1059.7927,1060.0428,,102,102,,,,,,,,,,,,,,,,bars/048.png,bars/mask001.png,,,,,,,,,,,,0,1,,,,,,,0,0,0,1,,,,,,,,,,,1059.2919,1059.7927,1060.0428,1062.8798,space,2.8207,,1062.8798,52,73,1063.8799,1063.8799,1063.8894,,,,0,4,4,4,1,50,175,,,,,,,,
,,5c1550c32b16ba0001c95536,65af55854aa07d90bbee3cc8,2024-01-23_08h00.37.252,bars,2023.2.3,Win32,59.52380952,657b66ea316d21385b68909f,,,,,,,,,,,1063.8896,1064.8808,,,1065.3816,1065.6319,,174,-6,,,,,,,,,,,,,,,,bars/037.png,bars/mask005.png,,,,,,,,,,,,0,1,,,,,,,0,0,0,0,,,,,,,,,,,1064.8808,1065.3815,1065.6319,1068.888,space,3.2376,,1068.888,24,69,1069.8884,1069.8884,1069.8969,,,,0,5,5,5,1,150,105,,,,,,,,
,,5c1550c32b16ba0001c95536,65af55854aa07d90bbee3cc8,2024-01-23_08h00.37.252,bars,2023.2.3,Win32,59.52380952,657b66ea316d21385b68909f,,,,,,,,,,,1069.897,1070.8894,,,1071.39,1071.6402,,170,-10,,,,,,,,,,,,,,,,bars/020.png,bars/mask007.png,,,,,,,,,,,,3,2,,,,,,,0,2,2,3,,,,,,,,,,,1070.8894,1071.39,1071.6402,1076.1949,space,4.5384,,1076.1949,55,0,1077.1956,1077.1957,1077.2049,,,,0,6,6,6,1,115,170,,,,,,,,
,,5c1550c32b16ba0001c95536,65af55854aa07d90bbee3cc8,2024-01-23_08h00.37.252,bars,2023.2.3,Win32,59.52380952,657b66ea316d21385b68909f,,,,,,,,,,,1077.205,1078.1967,,,1078.6972,1078.9476,,48,228,,,,,,,,,,,,,,,,bars/010.png,bars/mask006.png,,,,,,,,,,,,0,2,,,,,,,2,0,1,0,,,,,,,,,,,1078.1967,1078.6972,1078.9476,1082.3523,space,3.3902,,1082.3523,63,7,1083.3518,1083.3518,1083.3604,,,,0,7,7,7,1,165,55,,,,,,,,
,,5c1550c32b16ba0001c95536,65af55854aa07d90bbee3cc8,2024-01-23_08h00.37.252,bars,2023.2.3,Win32,59.52380952,657b66ea316d21385b68909f,,,,,,,,,,,1083.3606,1084.3529,,,1084.8534,1085.1036,,103,103,,,,,,,,,,,,,,,,bars/037.png,bars/mask000.png,,,,,,,,,,,,1,2,,,,,,,4,2,4,1,,,,,,,,,,,1084.3529,1084.8534,1085.1036,1086.8221,space,1.7024,,1086.8222,47,2,1087.8236,1087.8236,1087.8243,,,,0,8,8,8,1,150,105,,,,,,,,
,,5c1550c32b16ba0001c95536,65af55854aa07d90bbee3cc8,2024-01-23_08h00.37.252,bars,2023.2.3,Win32,59.52380952,657b66ea316d21385b68909f,,,,,,,,,,,1087.8248,1088.8239,,,1089.3245,1089.5746,,39,39,,,,,,,,,,,,,,,,bars/034.png,bars/mask003.png,,,,,,,,,,,,0,2,,,,,,,2,0,2,0,,,,,,,,,,,1088.8239,1089.3244,1089.5747,1092.8127,space,3.2232,,1092.8127,86,26,1093.8123,1093.8123,1093.8209,,,,0,9,9,9,1,125,65,,,,,,,,
,,5c1550c32b16ba0001c95536,65af55854aa07d90bbee3cc8,2024-01-23_08h00.37.252,bars,2023.2.3,Win32,59.52380952,657b66ea316d21385b68909f,,,,,,,,,,,1093.821,1094.8133,,,1095.3138,1095.5641,,36,36,,,,,,,,,,,,,,,,bars/017.png,bars/mask008.png,,,,,,,,,,,,0,2,,,,,,,4,0,4,0,,,,,,,,,,,1094.8133,1095.3138,1095.5641,1096.5164,space,0.9376,,1096.5165,71,9,1097.5159,1097.516,1097.5166,,,,0,10,10,10,1,145,45,,,,,,,,
,,5c1550c32b16ba0001c95536,65af55854aa07d90bbee3cc8,2024-01-23_08h00.37.252,bars,2023.2.3,Win32,59.52380952,657b66ea316d21385b68909f,,,,,,,,,,,1097.5168,1098.5168,,,1099.0175,1099.2677,,17,197,,,,,,,,,,,,,,,,bars/027.png,bars/mask008.png,,,,,,,,,,,,0,2,,,,,,,6,0,6,0,,,,,,,,,,,1098.5169,1099.0175,1099.2677,1104.64,space,5.3559,,1104.64,87,33,1105.6412,1105.6412,1105.6508,,,,0,11,11,11,1,110,50,,,,,,,,
,,5c1550c32b16ba0001c95536,65af55854aa07d90bbee3cc8,2024-01-23_08h00.37.252,bars,2023.2.3,Win32,59.52380952,657b66ea316d21385b68909f,,,,,,,,,,,1105.6511,1106.6418,,,1107.1421,1107.3925,,139,139,,,,,,,,,,,,,,,,bars/017.png,bars/mask007.png,,,,,,,,,,,,4,1,,,,,,,4,0,5,1,,,,,,,,,,,1106.6418,1107.1421,1107.3926,1108.2101,space,0.8017,,1108.2101,6,86,1109.211,1109.211,1109.2128,,,,0,12,12,12,1,145,45,,,,,,,,
,,5c1550c32b16ba0001c95536,65af55854aa07d90bbee3cc8,2024-01-23_08h00.37.252,bars,2023.2.3,Win32,59.52380952,657b66ea316d21385b68909f,,,,,,,,,,,1109.213,1110.2119,,,1110.7125,1110.9627,,164,-16,,,,,,,,,,,,,,,,bars/048.png,bars/mask004.png,,,,,,,,,,,,0,2,,,,,,,6,0,6,0,,,,,,,,,,,1110.2119,1110.7124,1110.9627,1114.0142,space,3.0368,,1114.0142,66,11,1115.0143,1115.0143,1115.0241,,,,0,13,13,13,1,50,175,,,,,,,,
,,5c1550c32b16ba0001c95536,65af55854aa07d90bbee3cc8,2024-01-23_08h00.37.252,bars,2023.2.3,Win32,59.52380952,657b66ea316d21385b68909f,,,,,,,,,,,1115.0243,1116.015,,,1116.5158,1116.7659,,158,158,,,,,,,,,,,,,,,,bars/014.png,bars/mask004.png,,,,,,,,,,,,0,2,,,,,,,4,0,4,0,,,,,,,,,,,1116.0151,1116.5157,1116.7659,1122.0722,space,5.2897,,1122.0722,78,22,1123.0723,1123.0724,1123.0815,,,,0,14,14,14,1,80,0,,,,,,,,
,,5c1550c32b16ba0001c95536,65af55854aa07d90bbee3cc8,2024-01-23_08h00.37.252,bars,2023.2.3,Win32,59.52380952,657b66ea316d21385b68909f,,,,,,,,,,,1123.0818,1124.0747,,,1124.5738,1124.8241,,167,-13,,,,,,,,,,,,,,,,bars/014.png,bars/mask007.png,,,,,,,,,,,,2,2,,,,,,,2,2,1,3,,,,,,,,,,,1124.0747,1124.5738,1124.8241,1126.3598,space,1.5192,,1126.3598,87,13,1127.3597,1127.3597,1127.3684,,,,0,15,15,15,1,80,0,,,,,,,,
,,5c1550c32b16ba0001c95536,65af55854aa07d90bbee3cc8,2024-01-23_08h00.37.252,bars,2023.2.3,Win32,59.52380952,657b66ea316d21385b68909f,,,,,,,,,,,1127.3687,1128.3613,,,1128.8614,1129.1118,,104,104,,,,,,,,,,,,,,,,bars/042.png,bars/mask005.png,,,,,,,,,,,,0,2,,,,,,,4,4,5,5,,,,,,,,,,,1128.3613,1128.8614,1129.1118,1133.5837,space,4.4554,,1133.5837,41,29,1134.5837,1134.5838,1134.5925,,,,0,16,16,16,1,145,75,,,,,,,,
,,5c1550c32b16ba0001c95536,65af55854aa07d90bbee3cc8,2024-01-23_08h00.37.252,bars,2023.2.3,Win32,59.52380952,657b66ea316d21385b68909f,,,,,,,,,,,1134.5927,1135.5841,,,1136.0854,1136.3356,,133,133,,,,,,,,,,,,,,,,bars/046.png,bars/mask006.png,,,,,,,,,,,,1,1,,,,,,,6,6,4,6,,,,,,,,,,,1135.5841,1136.0854,1136.3356,1138.9223,space,2.5704,,1138.9223,22,48,1139.9228,1139.9228,1139.9327,,,,0,17,17,17,1,155,85,,,,,,,,
,,5c1550c32b16ba0001c95536,65af55854aa07d90bbee3cc8,2024-01-23_08h00.37.252,bars,2023.2.3,Win32,59.52380952,657b66ea316d21385b68909f,,,,,,,,,,,1139.9328,1140.9234,,,1141.424,1141.6742,,141,141,,,,,,,,,,,,,,,,bars/046.png,bars/mask009.png,,,,,,,,,,,,5,1,,,,,,,8,4,9,4,,,,,,,,,,,1140.9234,1141.424,1141.6742,1158.4286,space,16.7381,,1158.4287,14,56,1159.4284,1159.4284,1159.437,,,,0,18,18,18,1,155,85,,,,,,,,
,,5c1550c32b16ba0001c95536,65af55854aa07d90bbee3cc8,2024-01-23_08h00.37.252,bars,2023.2.3,Win32,59.52380952,657b66ea316d21385b68909f,,,,,,,,,,,1159.4372,1160.4289,,,1160.9317,1161.1798,,84,84,,,,,,,,,,,,,,,,bars/019.png,bars/mask008.png,,,,,,,,,,,,2,2,,,,,,,6,6,6,7,,,,,,,,,,,1160.4289,1160.9317,1161.1798,1164.9003,space,3.7043,,1164.9003,39,21,1165.9011,1165.9011,1165.9103,,,,0,19,19,19,1,45,105,,,,,,,,
,,5c1550c32b16ba0001c95536,65af55854aa07d90bbee3cc8,2024-01-23_08h00.37.252,bars,2023.2.3,Win32,59.52380952,657b66ea316d21385b68909f,,,,,,,,,,,1165.9106,1166.9022,,,1167.4026,1167.6529,,23,203,,,,,,,,,,,,,,,,bars/007.png,bars/mask003.png,,,,,,,,,,,,0,1,,,,,,,4,8,4,6,,,,,,,,,,,1166.9022,1167.4026,1167.6529,1170.1389,space,2.4698,,1170.1389,28,32,1171.1397,1171.1397,1171.1487,,,,0,20,20,20,1,175,55,,,,,,,,
,,5c1550c32b16ba0001c95536,65af55854aa07d90bbee3cc8,2024-01-23_08h00.37.252,bars,2023.2.3,Win32,59.52380952,657b66ea316d21385b68909f,,,,,,,,,,,1171.1489,1172.1407,,,1172.6412,1172.8919,,143,143,,,,,,,,,,,,,,,,bars/020.png,bars/mask008.png,,,,,,,,,,,,1,2,,,,,,,2,10,2,10,,,,,,,,,,,1172.1407,1172.6412,1172.8919,1175.2773,space,2.37,,1175.2774,28,27,1176.2782,1176.2782,1176.2873,,,,0,21,21,21,1,115,170,,,,,,,,
,,5c1550c32b16ba0001c95536,65af55854aa07d90bbee3cc8,2024-01-23_08h00.37.252,bars,2023.2.3,Win32,59.52380952,657b66ea316d21385b68909f,,,,,,,,,,,1176.2878,1177.2791,,,1177.7796,1178.0299,,144,144,,,,,,,,,,,,,,,,bars/024.png,bars/mask007.png,,,,,,,,,,,,0,1,,,,,,,0,8,0,8,,,,,,,,,,,1177.2791,1177.7796,1178.0299,1180.4658,space,2.4199,,1180.4658,24,26,1181.4667,1181.4667,1181.4756,,,,0,22,22,22,1,120,170,,,,,,,,
,,5c1550c32b16ba0001c95536,65af55854aa07d90bbee3cc8,2024-01-23_08h00.37.252,bars,2023.2.3,Win32,59.52380952,657b66ea316d21385b68909f,,,,,,,,,,,1181.4759,1182.4676,,,1182.9682,1183.2184,,63,63,,,,,,,,,,,,,,,,bars/037.png,bars/mask005.png,,,,,,,,,,,,0,2,,,,,,,0,10,0,10,,,,,,,,,,,1182.4676,1182.9682,1183.2184,1185.8545,space,2.62,,1185.8546,87,42,1186.8554,1186.8554,1186.8647,,,,0,23,23,23,1,150,105,,,,,,,,
,,5c1550c32b16ba0001c95536,65af55854aa07d90bbee3cc8,2024-01-23_08h00.37.252,bars,2023.2.3,Win32,59.52380952,657b66ea316d21385b68909f,,,,,,,,,,,1186.865,1187.8564,,,1188.3569,1188.6072,,137,-43,,,,,,,,,,,,,,,,bars/023.png,bars/mask001.png,,,,,,,,,,,,3,2,,,,,,,0,10,0,10,,,,,,,,,,,1187.8564,1188.3569,1188.6073,1193.7463,space,5.1221,,1193.7463,63,22,1194.7466,1194.7466,1194.7547,,,,0,24,24,24,1,20,115,,,,,,,,
,,5c1550c32b16ba0001c95536,65af55854aa07d90bbee3cc8,2024-01-23_08h00.37.252,bars,2023.2.3,Win32,59.52380952,657b66ea316d21385b68909f,,,,,,,,,,,1194.7548,1195.7475,,,1196.2481,1196.4984,,68,68,,,,,,,,,,,,,,,,bars/030.png,bars/mask002.png,,,,,,,,,,,,6,2,,,,,,,2,8,3,7,,,,,,,,,,,1195.7475,1196.2481,1196.4984,1199.7518,space,3.2374,,1199.7518,72,3,1200.7526,1200.7526,1200.7607,,,,0,25,25,25,1,140,65,,,,,,,,
,,5c1550c32b16ba0001c95536,65af55854aa07d90bbee3cc8,2024-01-23_08h00.37.252,bars,2023.2.3,Win32,59.52380952,657b66ea316d21385b68909f,,,,,,,,,,,1200.7609,1201.7535,,,1202.2541,1202.5044,,57,57,,,,,,,,,,,,,,,,bars/025.png,bars/mask006.png,,,,,,,,,,,,3,2,,,,,,,0,6,0,6,,,,,,,,,,,1201.7536,1202.2541,1202.5044,1204.69,space,2.1691,,1204.69,48,17,1205.6908,1205.6908,1205.699,,,,0,26,26,26,1,105,40,,,,,,,,
,,5c1550c32b16ba0001c95536,65af55854aa07d90bbee3cc8,2024-01-23_08h00.37.252,bars,2023.2.3,Win32,59.52380952,657b66ea316d21385b68909f,,,,,,,,,,,1205.6992,1206.6919,,,1207.1923,1207.4426,,26,26,,,,,,,,,,,,,,,,bars/012.png,bars/mask003.png,,,,,,,,,,,,4,2,,,,,,,2,8,1,6,,,,,,,,,,,1206.6919,1207.1923,1207.4426,1210.0964,space,2.6397,,1210.0964,64,11,1211.0963,1211.0963,1211.1044,,,,0,27,27,27,1,90,15,,,,,,,,
,,5c1550c32b16ba0001c95536,65af55854aa07d90bbee3cc8,2024-01-23_08h00.37.252,bars,2023.2.3,Win32,59.52380952,657b66ea316d21385b68909f,,,,,,,,,,,1211.1046,1212.0972,,,1212.5978,1212.8481,,89,89,,,,,,,,,,,,,,,,bars/001.png,bars/mask000.png,,,,,,,,,,,,4,2,,,,,,,4,6,3,5,,,,,,,,,,,1212.0972,1212.5978,1212.8481,1214.1161,space,1.2515,,1214.1161,41,4,1215.1169,1215.1169,1215.1174,,,,0,28,28,28,1,130,85,,,,,,,,
,,5c1550c32b16ba0001c95536,65af55854aa07d90bbee3cc8,2024-01-23_08h00.37.252,bars,2023.2.3,Win32,59.52380952,657b66ea316d21385b68909f,,,,,,,,,,,1215.1177,1216.1179,,,1216.6185,1216.8689,,75,75,,,,,,,,,,,,,,,,bars/029.png,bars/mask004.png,,,,,,,,,,,,1,1,,,,,,,2,8,2,7,,,,,,,,,,,1216.1179,1216.6184,1216.869,1220.3723,space,3.4888,,1220.3723,15,30,1221.3732,1221.3732,1221.3822,,,,0,29,29,29,1,90,45,,,,,,,,
,,5c1550c32b16ba0001c95536,65af55854aa07d90bbee3cc8,2024-01-23_08h00.37.252,bars,2023.2.3,Win32,59.52380952,657b66ea316d21385b68909f,,,,,,,,,,,1221.3823,1222.3744,,,1222.8747,1223.125,,6,6,,,,,,,,,,,,,,,,bars/007.png,bars/mask009.png,,,,,,,,,,,,1,1,,,,,,,0,10,1,10,,,,,,,,,,,1222.3744,1222.8747,1223.125,1225.344,space,2.2028,,1225.344,11,49,1226.3448,1226.3448,1226.3531,,,,0,30,30,30,1,175,55,,,,,,,,
,,5c1550c32b16ba0001c95536,65af55854aa07d90bbee3cc8,2024-01-23_08h00.37.252,bars,2023.2.3,Win32,59.52380952,657b66ea316d21385b68909f,,,,,,,,,,,1226.3533,1227.3457,,,1227.8464,1228.0966,,39,39,,,,,,,,,,,,,,,,bars/010.png,bars/mask005.png,,,,,,,,,,,,3,2,,,,,,,2,8,1,7,,,,,,,,,,,1227.3457,1227.8463,1228.0966,1229.3812,space,1.2689,,1229.3812,54,16,1230.3822,1230.3822,1230.3839,,,,0,31,31,31,1,165,55,,,,,,,,
,,5c1550c32b16ba0001c95536,65af55854aa07d90bbee3cc8,2024-01-23_08h00.37.252,bars,2023.2.3,Win32,59.52380952,657b66ea316d21385b68909f,,,,,,,,,,,1230.3843,1231.3831,,,1231.8837,1232.1342,,32,212,,,,,,,,,,,,,,,,bars/027.png,bars/mask000.png,,,,,,,,,,,,2,2,,,,,,,0,6,0,6,,,,,,,,,,,1231.3832,1231.8837,1232.1343,1234.77,space,2.6196,,1234.77,78,18,1235.7708,1235.7709,1235.779,,,,0,32,32,32,1,110,50,,,,,,,,
,,5c1550c32b16ba0001c95536,65af55854aa07d90bbee3cc8,2024-01-23_08h00.37.252,bars,2023.2.3,Win32,59.52380952,657b66ea316d21385b68909f,,,,,,,,,,,1235.7792,1236.7718,,,1237.2724,1237.5226,,125,125,,,,,,,,,,,,,,,,bars/032.png,bars/mask000.png,,,,,,,,,,,,4,1,,,,,,,2,8,4,8,,,,,,,,,,,1236.7719,1237.2724,1237.5226,1238.8575,space,1.3186,,1238.8575,0,75,1239.8583,1239.8583,1239.8672,,,,0,33,33,33,1,125,20,,,,,,,,
,,5c1550c32b16ba0001c95536,65af55854aa07d90bbee3cc8,2024-01-23_08h00.37.252,bars,2023.2.3,Win32,59.52380952,657b66ea316d21385b68909f,,,,,,,,,,,1239.8676,1240.8593,,,1241.3598,1241.61,,163,163,,,,,,,,,,,,,,,,bars/035.png,bars/mask004.png,,,,,,,,,,,,0,1,,,,,,,0,10,0,10,,,,,,,,,,,1240.8593,1241.3597,1241.61,1242.8281,space,1.2018,,1242.8281,12,77,1243.8292,1243.8292,1243.8372,,,,0,34,34,34,1,175,60,,,,,,,,
,,5c1550c32b16ba0001c95536,65af55854aa07d90bbee3cc8,2024-01-23_08h00.37.252,bars,2023.2.3,Win32,59.52380952,657b66ea316d21385b68909f,,,,,,,,,,,1243.8374,1244.8306,,,1245.3306,1245.5807,,15,195,,,,,,,,,,,,,,,,bars/013.png,bars/mask009.png,,,,,,,,,,,,7,2,,,,,,,0,10,0,8,,,,,,,,,,,1244.8306,1245.3306,1245.5807,1248.517,space,2.9207,,1248.5171,60,5,1249.5179,1249.518,1249.527,,,,0,35,35,35,1,75,10,,,,,,,,
,,5c1550c32b16ba0001c95536,65af55854aa07d90bbee3cc8,2024-01-23_08h00.37.252,bars,2023.2.3,Win32,59.52380952,657b66ea316d21385b68909f,,,,,,,,,,,1249.5272,1250.5189,,,1251.0194,1251.2696,,167,167,,,,,,,,,,,,,,,,bars/048.png,bars/mask000.png,,,,,,,,,,,,7,2,,,,,,,0,10,0,9,,,,,,,,,,,1250.5189,1251.0194,1251.2696,1253.2384,space,1.9527,,1253.2384,63,8,1254.2392,1254.2393,1254.2476,,,,0,36,36,36,1,50,175,,,,,,,,
,,5c1550c32b16ba0001c95536,65af55854aa07d90bbee3cc8,2024-01-23_08h00.37.252,bars,2023.2.3,Win32,59.52380952,657b66ea316d21385b68909f,,,,,,,,,,,1254.2477,1255.2403,,,1255.7408,1255.9911,,178,178,,,,,,,,,,,,,,,,bars/032.png,bars/mask006.png,,,,,,,,,,,,2,2,,,,,,,2,8,2,8,,,,,,,,,,,1255.2403,1255.7408,1255.9911,1259.2111,space,3.2034,,1259.2111,53,22,1260.2119,1260.2119,1260.22,,,,0,37,37,37,1,125,20,,,,,,,,
,,5c1550c32b16ba0001c95536,65af55854aa07d90bbee3cc8,2024-01-23_08h00.37.252,bars,2023.2.3,Win32,59.52380952,657b66ea316d21385b68909f,,,,,,,,,,,1260.2202,1261.2129,,,1261.7134,1261.9637,,171,171,,,,,,,,,,,,,,,,bars/048.png,bars/mask000.png,,,,,,,,,,,,6,2,,,,,,,0,6,0,7,,,,,,,,,,,1261.2129,1261.7134,1261.9637,1264.1827,space,2.2026,,1264.1827,59,4,1265.1836,1265.1836,1265.184,,,,0,38,38,38,1,50,175,,,,,,,,
,,5c1550c32b16ba0001c95536,65af55854aa07d90bbee3cc8,2024-01-23_08h00.37.252,bars,2023.2.3,Win32,59.52380952,657b66ea316d21385b68909f,,,,,,,,,,,1265.1842,1266.1846,,,1266.6851,1266.9354,,74,74,,,,,,,,,,,,,,,,bars/046.png,bars/mask006.png,,,,,,,,,,,,2,2,,,,,,,0,4,1,3,,,,,,,,,,,1266.1846,1266.6851,1266.9354,1269.3879,space,2.4363,,1269.388,81,11,1270.3887,1270.3887,1270.3969,,,,0,39,39,39,1,155,85,,,,,,,,
,,5c1550c32b16ba0001c95536,65af55854aa07d90bbee3cc8,2024-01-23_08h00.37.252,bars,2023.2.3,Win32,59.52380952,657b66ea316d21385b68909f,,,,,,,,,,,1270.397,1271.3897,,,1271.8902,1272.1405,,116,-64,,,,,,,,,,,,,,,,bars/009.png,bars/mask009.png,,,,,,,,,,,,4,2,,,,,,,0,6,1,6,,,,,,,,,,,1271.3897,1271.8902,1272.1405,1276.128,space,3.9713,,1276.128,79,11,1277.1288,1277.1289,1277.137,,,,0,40,40,40,1,15,105,,,,,,,,
,,5c1550c32b16ba0001c95536,65af55854aa07d90bbee3cc8,2024-01-23_08h00.37.252,bars,2023.2.3,Win32,59.52380952,657b66ea316d21385b68909f,,,,,,,,,,,1277.1371,1278.1298,,,1278.6304,1278.8805,,5,185,,,,,,,,,,,,,,,,bars/040.png,bars/mask001.png,,,,,,,,,,,,3,2,,,,,,,2,4,2,3,,,,,,,,,,,1278.1298,1278.6303,1278.8805,1280.4657,space,1.5687,,1280.4657,45,0,1281.467,1281.467,1281.4674,,,,0,41,41,41,1,140,5,,,,,,,,
,,5c1550c32b16ba0001c95536,65af55854aa07d90bbee3cc8,2024-01-23_08h00.37.252,bars,2023.2.3,Win32,59.52380952,657b66ea316d21385b68909f,,,,,,,,,,,1281.4676,1282.4678,,,1282.968,1283.2182,,164,164,,,,,,,,,,,,,,,,bars/014.png,bars/mask006.png,,,,,,,,,,,,3,2,,,,,,,4,6,3,7,,,,,,,,,,,1282.4678,1282.9679,1283.2183,1287.4059,space,4.1719,,1287.4059,84,16,1288.4068,1288.4068,1288.4152,,,,0,42,42,42,1,80,0,,,,,,,,
,,5c1550c32b16ba0001c95536,65af55854aa07d90bbee3cc8,2024-01-23_08h00.37.252,bars,2023.2.3,Win32,59.52380952,657b66ea316d21385b68909f,,,,,,,,,,,1288.4154,1289.4077,,,1289.9082,1290.1585,,47,47,,,,,,,,,,,,,,,,bars/010.png,bars/mask007.png,,,,,,,,,,,,3,2,,,,,,,2,4,3,4,,,,,,,,,,,1289.4077,1289.9082,1290.1585,1291.9271,space,1.7523,,1291.9271,62,8,1292.9279,1292.9279,1292.9283,,,,0,43,43,43,1,165,55,,,,,,,,
,,5c1550c32b16ba0001c95536,65af55854aa07d90bbee3cc8,2024-01-23_08h00.37.252,bars,2023.2.3,Win32,59.52380952,657b66ea316d21385b68909f,,,,,,,,,,,1292.9286,1293.9289,,,1294.4294,1294.6797,,103,103,,,,,,,,,,,,,,,,bars/028.png,bars/mask001.png,,,,,,,,,,,,0,2,,,,,,,0,2,0,0,,,,,,,,,,,1293.9289,1294.4294,1294.6797,1296.1145,space,1.4185,,1296.1145,58,17,1297.1154,1297.1154,1297.1159,,,,0,44,44,44,1,45,120,,,,,,,,
,,5c1550c32b16ba0001c95536,65af55854aa07d90bbee3cc8,2024-01-23_08h00.37.252,bars,2023.2.3,Win32,59.52380952,657b66ea316d21385b68909f,,,,,,,,,,,1297.1161,1298.1164,,,1298.617,1298.8671,,92,92,,,,,,,,,,,,,,,,bars/018.png,bars/mask004.png,,,,,,,,,,,,3,2,,,,,,,2,4,2,3,,,,,,,,,,,1298.1165,1298.617,1298.8672,1302.8546,space,3.9714,,1302.8546,58,2,1303.8555,1303.8555,1303.8636,,,,0,45,45,45,1,150,90,,,,,,,,
,,5c1550c32b16ba0001c95536,65af55854aa07d90bbee3cc8,2024-01-23_08h00.37.252,bars,2023.2.3,Win32,59.52380952,657b66ea316d21385b68909f,,,,,,,,,,,1303.8638,1304.8571,,,1305.357,1305.6072,,40,40,,,,,,,,,,,,,,,,bars/045.png,bars/mask009.png,,,,,,,,,,,,0,2,,,,,,,4,6,4,6,,,,,,,,,,,1304.8571,1305.357,1305.6073,1307.0588,space,1.4353,,1307.0588,60,30,1308.0597,1308.0597,1308.068,,,,0,46,46,46,1,100,10,,,,,,,,
,,5c1550c32b16ba0001c95536,65af55854aa07d90bbee3cc8,2024-01-23_08h00.37.252,bars,2023.2.3,Win32,59.52380952,657b66ea316d21385b68909f,,,,,,,,,,,1308.0682,1309.0606,,,1309.5612,1309.8115,,109,109,,,,,,,,,,,,,,,,bars/001.png,bars/mask005.png,,,,,,,,,,,,1,1,,,,,,,2,8,2,7,,,,,,,,,,,1309.0607,1309.5612,1309.8115,1312.7645,space,2.9365,,1312.7645,21,24,1313.7653,1313.7653,1313.7744,,,,0,47,47,47,1,130,85,,,,,,,,
,,5c1550c32b16ba0001c95536,65af55854aa07d90bbee3cc8,2024-01-23_08h00.37.252,bars,2023.2.3,Win32,59.52380952,657b66ea316d21385b68909f,,,,,,,,,,,1313.7745,1314.7663,,,1315.267,1315.5171,,31,31,,,,,,,,,,,,,,,,bars/012.png,bars/mask002.png,,,,,,,,,,,,2,2,,,,,,,4,6,2,5,,,,,,,,,,,1314.7664,1315.267,1315.5171,1317.586,space,2.0525,,1317.586,59,16,1318.5868,1318.5869,1318.5959,,,,0,48,48,48,1,90,15,,,,,,,,
,,5c1550c32b16ba0001c95536,65af55854aa07d90bbee3cc8,2024-01-23_08h00.37.252,bars,2023.2.3,Win32,59.52380952,657b66ea316d21385b68909f,,,,,,,,,,,1318.596,1319.588,,,1320.0883,1320.3386,,32,32,,,,,,,,,,,,,,,,bars/007.png,bars/mask004.png,,,,,,,,,,,,2,2,,,,,,,2,8,1,8,,,,,,,,,,,1319.588,1320.0883,1320.3386,1321.7735,space,1.419,,1321.7735,37,23,1322.7743,1322.7743,1322.7748,,,,0,49,49,49,1,175,55,,,,,,,,
,,5c1550c32b16ba0001c95536,65af55854aa07d90bbee3cc8,2024-01-23_08h00.37.252,bars,2023.2.3,Win32,59.52380952,657b66ea316d21385b68909f,,,,,,,,,,,,,,,,,,,,,,,,,,,,,,,,,,,,,,,,,,,,,,,,,,,,,,,,,,,,,,,,,,,,,,,,,,,,,,,,,,,,,,,,,,,,,1322.775,1382.7673,0,2,2,0,1,sequence_tables/blk042.csv
,,5c1550c32b16ba0001c95536,65af55854aa07d90bbee3cc8,2024-01-23_08h00.37.252,bars,2023.2.3,Win32,59.52380952,657b66ea316d21385b68909f,,,,,,,,,,,1428.8594,1429.8478,,,1430.3484,1430.5986,,77,77,,,,,,,,,,,,,,,,bars/047.png,bars/mask002.png,,,,,,,,,,,,1,2,,,,,,,5,1,6,1,,,,,,1382.7761,1428.8471,space,46.0584,,1429.8479,1430.3483,1430.5986,1432.7677,space,2.1526,,1432.7677,62,7,1433.7684,1433.7684,1433.7766,,,,0,0,0,0,1,15,70,,,,,,,,
,,5c1550c32b16ba0001c95536,65af55854aa07d90bbee3cc8,2024-01-23_08h00.37.252,bars,2023.2.3,Win32,59.52380952,657b66ea316d21385b68909f,,,,,,,,,,,1433.7768,1434.7695,,,1435.2699,1435.5202,,33,33,,,,,,,,,,,,,,,,bars/025.png,bars/mask002.png,,,,,,,,,,,,0,2,,,,,,,3,0,3,0,,,,,,,,,,,1434.7695,1435.2699,1435.5202,1436.9885,space,1.4522,,1436.9885,72,7,1437.9894,1437.9894,1437.9898,,,,0,1,1,1,1,105,40,,,,,,,,
,,5c1550c32b16ba0001c95536,65af55854aa07d90bbee3cc8,2024-01-23_08h00.37.252,bars,2023.2.3,Win32,59.52380952,657b66ea316d21385b68909f,,,,,,,,,,,1437.9899,1438.9903,,,1439.4909,1439.7411,,9,9,,,,,,,,,,,,,,,,bars/012.png,bars/mask007.png,,,,,,,,,,,,1,2,,,,,,,5,0,4,1,,,,,,,,,,,1438.9903,1439.4909,1439.7411,1441.0425,space,1.2853,,1441.0425,81,6,1442.0435,1442.0435,1442.0439,,,,0,2,2,2,1,90,15,,,,,,,,
,,5c1550c32b16ba0001c95536,65af55854aa07d90bbee3cc8,2024-01-23_08h00.37.252,bars,2023.2.3,Win32,59.52380952,657b66ea316d21385b68909f,,,,,,,,,,,1442.0441,1443.0444,,,1443.5449,1443.7951,,98,98,,,,,,,,,,,,,,,,bars/045.png,bars/mask005.png,,,,,,,,,,,,3,1,,,,,,,3,0,3,2,,,,,,,,,,,1443.0444,1443.5449,1443.7951,1446.1977,space,2.3863,,1446.1977,2,88,1447.1985,1447.1985,1447.2074,,,,0,3,3,3,1,100,10,,,,,,,,
,,5c1550c32b16ba0001c95536,65af55854aa07d90bbee3cc8,2024-01-23_08h00.37.252,bars,2023.2.3,Win32,59.52380952,657b66ea316d21385b68909f,,,,,,,,,,,1447.2075,1448.1995,,,1448.7,1448.9503,,118,118,,,,,,,,,,,,,,,,bars/034.png,bars/mask003.png,,,,,,,,,,,,2,1,,,,,,,1,0,2,1,,,,,,,,,,,1448.1995,1448.7,1448.9503,1450.6688,space,1.7024,,1450.6689,7,53,1451.6696,1451.6697,1451.6777,,,,0,4,4,4,1,125,65,,,,,,,,
,,5c1550c32b16ba0001c95536,65af55854aa07d90bbee3cc8,2024-01-23_08h00.37.252,bars,2023.2.3,Win32,59.52380952,657b66ea316d21385b68909f,,,,,,,,,,,1451.6778,1452.6706,,,1453.1711,1453.4214,,19,199,,,,,,,,,,,,,,,,bars/000.png,bars/mask005.png,,,,,,,,,,,,0,1,,,,,,,0,2,0,2,,,,,,,,,,,1452.6706,1453.1711,1453.4214,1455.4736,space,2.036,,1455.4736,21,54,1456.4745,1456.4745,1456.4749,,,,0,5,5,5,1,40,145,,,,,,,,
,,5c1550c32b16ba0001c95536,65af55854aa07d90bbee3cc8,2024-01-23_08h00.37.252,bars,2023.2.3,Win32,59.52380952,657b66ea316d21385b68909f,,,,,,,,,,,1456.4752,1457.4754,,,1457.9759,1458.2262,,159,-21,,,,,,,,,,,,,,,,bars/024.png,bars/mask002.png,,,,,,,,,,,,0,2,,,,,,,0,0,2,0,,,,,,,,,,,1457.4755,1457.9759,1458.2262,1461.5297,space,3.2876,,1461.5297,39,11,1462.5305,1462.5305,1462.5393,,,,0,6,6,6,1,120,170,,,,,,,,
,,5c1550c32b16ba0001c95536,65af55854aa07d90bbee3cc8,2024-01-23_08h00.37.252,bars,2023.2.3,Win32,59.52380952,657b66ea316d21385b68909f,,,,,,,,,,,1462.5395,1463.5318,,,1464.032,1464.2823,,93,93,,,,,,,,,,,,,,,,bars/049.png,bars/mask002.png,,,,,,,,,,,,1,2,,,,,,,0,2,0,3,,,,,,,,,,,1463.5318,1464.032,1464.2823,1466.6681,space,2.372,,1466.6681,67,22,1467.6689,1467.6689,1467.6772,,,,0,7,7,7,1,160,115,,,,,,,,
,,5c1550c32b16ba0001c95536,65af55854aa07d90bbee3cc8,2024-01-23_08h00.37.252,bars,2023.2.3,Win32,59.52380952,657b66ea316d21385b68909f,,,,,,,,,,,1467.6774,1468.67,,,1469.1582,1469.404,,51,51,,,,,,,,,,,,,,,,bars/017.png,bars/mask003.png,,,,,,,,,,,,0,2,,,,,,,0,0,1,0,,,,,,,,,,,1468.67,1469.1582,1469.4041,1471.3061,space,1.8863,,1471.3061,86,6,1472.3069,1472.3069,1472.3074,,,,0,8,8,8,1,145,45,,,,,,,,
,,5c1550c32b16ba0001c95536,65af55854aa07d90bbee3cc8,2024-01-23_08h00.37.252,bars,2023.2.3,Win32,59.52380952,657b66ea316d21385b68909f,,,,,,,,,,,1472.3076,1473.3079,,,1473.8084,1474.0586,,105,105,,,,,,,,,,,,,,,,bars/037.png,bars/mask005.png,,,,,,,,,,,,1,2,,,,,,,2,0,4,1,,,,,,,,,,,1473.3079,1473.8084,1474.0586,1476.1442,space,2.0696,,1476.1443,45,0,1477.145,1477.1451,1477.1533,,,,0,9,9,9,1,150,105,,,,,,,,
,,5c1550c32b16ba0001c95536,65af55854aa07d90bbee3cc8,2024-01-23_08h00.37.252,bars,2023.2.3,Win32,59.52380952,657b66ea316d21385b68909f,,,,,,,,,,,1477.1534,1478.146,,,1478.6467,1478.8969,,38,38,,,,,,,,,,,,,,,,bars/007.png,bars/mask002.png,,,,,,,,,,,,0,2,,,,,,,4,0,3,0,,,,,,,,,,,1478.146,1478.6467,1478.8969,1480.7822,space,1.8693,,1480.7822,43,17,1481.783,1481.783,1481.7911,,,,0,10,10,10,1,175,55,,,,,,,,
,,5c1550c32b16ba0001c95536,65af55854aa07d90bbee3cc8,2024-01-23_08h00.37.252,bars,2023.2.3,Win32,59.52380952,657b66ea316d21385b68909f,,,,,,,,,,,1481.7912,1482.784,,,1483.2846,1483.5351,,37,217,,,,,,,,,,,,,,,,bars/044.png,bars/mask005.png,,,,,,,,,,,,0,1,,,,,,,6,2,6,2,,,,,,,,,,,1482.784,1483.2845,1483.5351,1486.4544,space,2.9032,,1486.4544,38,62,1487.4554,1487.4554,1487.4646,,,,0,11,11,11,1,75,155,,,,,,,,
,,5c1550c32b16ba0001c95536,65af55854aa07d90bbee3cc8,2024-01-23_08h00.37.252,bars,2023.2.3,Win32,59.52380952,657b66ea316d21385b68909f,,,,,,,,,,,1487.4649,1488.4564,,,1488.9569,1489.2072,,82,82,,,,,,,,,,,,,,,,bars/014.png,bars/mask004.png,,,,,,,,,,,,7,1,,,,,,,8,0,7,0,,,,,,,,,,,1488.4564,1488.9569,1489.2072,1491.6266,space,2.4029,,1491.6266,2,82,1492.6272,1492.6273,1492.6277,,,,0,12,12,12,1,80,0,,,,,,,,
,,5c1550c32b16ba0001c95536,65af55854aa07d90bbee3cc8,2024-01-23_08h00.37.252,bars,2023.2.3,Win32,59.52380952,657b66ea316d21385b68909f,,,,,,,,,,,1492.6279,1493.6281,,,1494.1286,1494.379,,113,113,,,,,,,,,,,,,,,,bars/027.png,bars/mask001.png,,,,,,,,,,,,9,1,,,,,,,10,0,10,2,,,,,,,,,,,1493.6282,1494.1286,1494.379,1496.1641,space,1.7691,,1496.1642,3,63,1497.1654,1497.1654,1497.1736,,,,0,13,13,13,1,110,50,,,,,,,,
,,5c1550c32b16ba0001c95536,65af55854aa07d90bbee3cc8,2024-01-23_08h00.37.252,bars,2023.2.3,Win32,59.52380952,657b66ea316d21385b68909f,,,,,,,,,,,1497.1737,1498.1662,,,1498.6665,1498.9169,,158,-22,,,,,,,,,,,,,,,,bars/038.png,bars/mask002.png,,,,,,,,,,,,6,1,,,,,,,8,2,8,3,,,,,,,,,,,1498.1662,1498.6665,1498.9169,1500.8856,space,1.9529,,1500.8856,7,88,1501.8864,1501.8864,1501.8946,,,,0,14,14,14,1,165,70,,,,,,,,
,,5c1550c32b16ba0001c95536,65af55854aa07d90bbee3cc8,2024-01-23_08h00.37.252,bars,2023.2.3,Win32,59.52380952,657b66ea316d21385b68909f,,,,,,,,,,,1501.8947,1502.8875,,,1503.3879,1503.6386,,78,78,,,,,,,,,,,,,,,,bars/022.png,bars/mask002.png,,,,,,,,,,,,4,1,,,,,,,10,0,10,0,,,,,,,,,,,1502.8875,1503.3879,1503.6386,1505.8072,space,2.1527,,1505.8072,17,58,1506.808,1506.808,1506.8085,,,,0,15,15,15,1,95,20,,,,,,,,
,,5c1550c32b16ba0001c95536,65af55854aa07d90bbee3cc8,2024-01-23_08h00.37.252,bars,2023.2.3,Win32,59.52380952,657b66ea316d21385b68909f,,,,,,,,,,,1506.8087,1507.8094,,,1508.3095,1508.5597,,125,125,,,,,,,,,,,,,,,,bars/034.png,bars/mask000.png,,,,,,,,,,,,8,1,,,,,,,8,0,8,1,,,,,,,,,,,1507.8094,1508.3094,1508.5598,1509.9279,space,1.3522,,1509.9279,0,60,1510.9287,1510.9287,1510.9292,,,,0,16,16,16,1,125,65,,,,,,,,
,,5c1550c32b16ba0001c95536,65af55854aa07d90bbee3cc8,2024-01-23_08h00.37.252,bars,2023.2.3,Win32,59.52380952,657b66ea316d21385b68909f,,,,,,,,,,,1510.9295,1511.9299,,,1512.4303,1512.6806,,113,113,,,,,,,,,,,,,,,,bars/040.png,bars/mask003.png,,,,,,,,,,,,1,1,,,,,,,6,0,6,1,,,,,,,,,,,1511.9299,1512.4303,1512.6806,1514.6159,space,1.9194,,1514.6159,27,72,1515.6168,1515.6168,1515.625,,,,0,17,17,17,1,140,5,,,,,,,,
,,5c1550c32b16ba0001c95536,65af55854aa07d90bbee3cc8,2024-01-23_08h00.37.252,bars,2023.2.3,Win32,59.52380952,657b66ea316d21385b68909f,,,,,,,,,,,1515.6252,1516.6178,,,1517.1183,1517.3685,,112,112,,,,,,,,,,,,,,,,bars/024.png,bars/mask006.png,,,,,,,,,,,,6,1,,,,,,,8,2,8,2,,,,,,,,,,,1516.6178,1517.1183,1517.3685,1520.3884,space,3.0036,,1520.3884,8,58,1521.3892,1521.3892,1521.3986,,,,0,18,18,18,1,120,170,,,,,,,,
,,5c1550c32b16ba0001c95536,65af55854aa07d90bbee3cc8,2024-01-23_08h00.37.252,bars,2023.2.3,Win32,59.52380952,657b66ea316d21385b68909f,,,,,,,,,,,1521.3988,1522.3902,,,1522.8907,1523.141,,28,28,,,,,,,,,,,,,,,,bars/033.png,bars/mask002.png,,,,,,,,,,,,7,1,,,,,,,6,4,8,5,,,,,,,,,,,1522.3902,1522.8907,1523.141,1524.2923,space,1.1373,,1524.2923,3,53,1525.2931,1525.2931,1525.3012,,,,0,19,19,19,1,25,155,,,,,,,,
,,5c1550c32b16ba0001c95536,65af55854aa07d90bbee3cc8,2024-01-23_08h00.37.252,bars,2023.2.3,Win32,59.52380952,657b66ea316d21385b68909f,,,,,,,,,,,1525.3014,1526.2941,,,1526.7947,1527.0558,,105,-75,,,,,,,,,,,,,,,,bars/022.png,bars/mask003.png,,,,,,,,,,,,5,1,,,,,,,8,2,8,0,,,,,,,,,,,1526.2942,1526.7947,1527.0558,1531.7497,space,4.683,,1531.7497,10,85,1532.7506,1532.7506,1532.7589,,,,0,20,20,20,1,95,20,,,,,,,,
,,5c1550c32b16ba0001c95536,65af55854aa07d90bbee3cc8,2024-01-23_08h00.37.252,bars,2023.2.3,Win32,59.52380952,657b66ea316d21385b68909f,,,,,,,,,,,1532.7591,1533.7515,,,1534.252,1534.5023,,0,0,,,,,,,,,,,,,,,,bars/010.png,bars/mask006.png,,,,,,,,,,,,5,1,,,,,,,10,4,10,2,,,,,,,,,,,1533.7515,1534.252,1534.5023,1536.0874,space,1.569,,1536.0874,15,55,1537.0889,1537.0889,1537.0975,,,,0,21,21,21,1,165,55,,,,,,,,
,,5c1550c32b16ba0001c95536,65af55854aa07d90bbee3cc8,2024-01-23_08h00.37.252,bars,2023.2.3,Win32,59.52380952,657b66ea316d21385b68909f,,,,,,,,,,,1537.0976,1538.0896,,,1538.5897,1538.84,,168,168,,,,,,,,,,,,,,,,bars/010.png,bars/mask007.png,,,,,,,,,,,,9,1,,,,,,,10,2,10,2,,,,,,,,,,,1538.0897,1538.5897,1538.84,1540.4584,space,1.6023,,1540.4584,3,67,1541.4595,1541.4595,1541.4677,,,,0,22,22,22,1,165,55,,,,,,,,
,,5c1550c32b16ba0001c95536,65af55854aa07d90bbee3cc8,2024-01-23_08h00.37.252,bars,2023.2.3,Win32,59.52380952,657b66ea316d21385b68909f,,,,,,,,,,,1541.4679,1542.4603,,,1542.9609,1543.211,,167,167,,,,,,,,,,,,,,,,bars/010.png,bars/mask002.png,,,,,,,,,,,,7,1,,,,,,,10,4,8,4,,,,,,,,,,,1542.4603,1542.9609,1543.211,1545.0964,space,1.8689,,1545.0964,2,68,1546.0973,1546.0973,1546.1051,,,,0,23,23,23,1,165,55,,,,,,,,
,,5c1550c32b16ba0001c95536,65af55854aa07d90bbee3cc8,2024-01-23_08h00.37.252,bars,2023.2.3,Win32,59.52380952,657b66ea316d21385b68909f,,,,,,,,,,,1546.1053,1547.0982,,,1547.5987,1547.849,,153,153,,,,,,,,,,,,,,,,bars/049.png,bars/mask007.png,,,,,,,,,,,,5,1,,,,,,,8,6,7,6,,,,,,,,,,,1547.0983,1547.5987,1547.849,1549.4007,space,1.5352,,1549.4007,7,38,1550.4015,1550.4015,1550.4019,,,,0,24,24,24,1,160,115,,,,,,,,
,,5c1550c32b16ba0001c95536,65af55854aa07d90bbee3cc8,2024-01-23_08h00.37.252,bars,2023.2.3,Win32,59.52380952,657b66ea316d21385b68909f,,,,,,,,,,,1550.4022,1551.4024,,,1551.9031,1552.1532,,173,173,,,,,,,,,,,,,,,,bars/036.png,bars/mask008.png,,,,,,,,,,,,1,2,,,,,,,6,8,4,8,,,,,,,,,,,1551.4025,1551.9031,1552.1533,1552.9709,space,0.8012,,1552.971,28,27,1553.9718,1553.9718,1553.9731,,,,0,25,25,25,1,145,20,,,,,,,,
,,5c1550c32b16ba0001c95536,65af55854aa07d90bbee3cc8,2024-01-23_08h00.37.252,bars,2023.2.3,Win32,59.52380952,657b66ea316d21385b68909f,,,,,,,,,,,1553.9733,1554.9727,,,1555.4733,1555.7235,,159,159,,,,,,,,,,,,,,,,bars/014.png,bars/mask008.png,,,,,,,,,,,,3,2,,,,,,,8,10,8,10,,,,,,,,,,,1554.9727,1555.4733,1555.7235,1557.3761,space,1.6395,,1557.3761,79,21,1558.3761,1558.3762,1558.3766,,,,0,26,26,26,1,80,0,,,,,,,,
,,5c1550c32b16ba0001c95536,65af55854aa07d90bbee3cc8,2024-01-23_08h00.37.252,bars,2023.2.3,Win32,59.52380952,657b66ea316d21385b68909f,,,,,,,,,,,1558.3768,1559.3772,,,1559.8777,1560.1279,,170,-10,,,,,,,,,,,,,,,,bars/015.png,bars/mask000.png,,,,,,,,,,,,6,2,,,,,,,10,10,10,9,,,,,,,,,,,1559.3772,1559.8776,1560.1279,1562.3139,space,2.1708,,1562.3139,60,10,1563.3144,1563.3145,1563.3225,,,,0,27,27,27,1,110,160,,,,,,,,
,,5c1550c32b16ba0001c95536,65af55854aa07d90bbee3cc8,2024-01-23_08h00.37.252,bars,2023.2.3,Win32,59.52380952,657b66ea316d21385b68909f,,,,,,,,,,,1563.3227,1564.3155,,,1564.8159,1565.0662,,93,93,,,,,,,,,,,,,,,,bars/019.png,bars/mask009.png,,,,,,,,,,,,5,2,,,,,,,10,10,10,9,,,,,,,,,,,1564.3155,1564.8159,1565.0662,1568.8871,space,3.8043,,1568.8871,48,12,1569.8875,1569.8875,1569.8956,,,,0,28,28,28,1,45,105,,,,,,,,
,,5c1550c32b16ba0001c95536,65af55854aa07d90bbee3cc8,2024-01-23_08h00.37.252,bars,2023.2.3,Win32,59.52380952,657b66ea316d21385b68909f,,,,,,,,,,,1569.896,1570.8886,,,1571.3895,1571.6393,,109,109,,,,,,,,,,,,,,,,bars/039.png,bars/mask008.png,,,,,,,,,,,,7,2,,,,,,,10,10,10,8,,,,,,,,,,,1570.8887,1571.3895,1571.6393,1573.6749,space,2.0193,,1573.6749,66,4,1574.6757,1574.6757,1574.6762,,,,0,29,29,29,1,175,105,,,,,,,,
,,5c1550c32b16ba0001c95536,65af55854aa07d90bbee3cc8,2024-01-23_08h00.37.252,bars,2023.2.3,Win32,59.52380952,657b66ea316d21385b68909f,,,,,,,,,,,1574.6764,1575.6767,,,1576.1773,1576.4283,,101,101,,,,,,,,,,,,,,,,bars/019.png,bars/mask000.png,,,,,,,,,,,,7,2,,,,,,,8,8,9,8,,,,,,,,,,,1575.6767,1576.1773,1576.4283,1578.6465,space,2.2028,,1578.6465,56,4,1579.6473,1579.6473,1579.6554,,,,0,30,30,30,1,45,105,,,,,,,,
,,5c1550c32b16ba0001c95536,65af55854aa07d90bbee3cc8,2024-01-23_08h00.37.252,bars,2023.2.3,Win32,59.52380952,657b66ea316d21385b68909f,,,,,,,,,,,1579.6556,1580.6484,,,1581.1488,1581.3991,,62,62,,,,,,,,,,,,,,,,bars/035.png,bars/mask006.png,,,,,,,,,,,,5,2,,,,,,,10,6,7,5,,,,,,,,,,,1580.6484,1581.1488,1581.3991,1584.0521,space,2.6391,,1584.0521,67,2,1585.0527,1585.0527,1585.0608,,,,0,31,31,31,1,175,60,,,,,,,,
,,5c1550c32b16ba0001c95536,65af55854aa07d90bbee3cc8,2024-01-23_08h00.37.252,bars,2023.2.3,Win32,59.52380952,657b66ea316d21385b68909f,,,,,,,,,,,1585.061,1586.0537,,,1586.5546,1586.8044,,161,161,,,,,,,,,,,,,,,,bars/016.png,bars/mask009.png,,,,,,,,,,,,5,2,,,,,,,10,4,10,6,,,,,,,,,,,1586.0537,1586.5546,1586.8045,1588.9907,space,2.1702,,1588.9908,59,4,1589.991,1589.991,1589.9991,,,,0,32,32,32,1,40,165,,,,,,,,
,,5c1550c32b16ba0001c95536,65af55854aa07d90bbee3cc8,2024-01-23_08h00.37.252,bars,2023.2.3,Win32,59.52380952,657b66ea316d21385b68909f,,,,,,,,,,,1589.9992,1590.992,,,1591.4925,1591.7427,,114,114,,,,,,,,,,,,,,,,bars/004.png,bars/mask000.png,,,,,,,,,,,,5,2,,,,,,,8,6,8,8,,,,,,,,,,,1590.992,1591.4925,1591.7427,1593.7949,space,2.0364,,1593.7949,89,11,1594.7962,1594.7962,1594.7968,,,,0,33,33,33,1,25,125,,,,,,,,
,,5c1550c32b16ba0001c95536,65af55854aa07d90bbee3cc8,2024-01-23_08h00.37.252,bars,2023.2.3,Win32,59.52380952,657b66ea316d21385b68909f,,,,,,,,,,,1594.797,1595.7969,,,1596.2974,1596.5475,,30,30,,,,,,,,,,,,,,,,bars/010.png,bars/mask008.png,,,,,,,,,,,,0,2,,,,,,,10,4,9,3,,,,,,,,,,,1595.7969,1596.2974,1596.5475,1598.4496,space,1.8865,,1598.4497,45,25,1599.4507,1599.4507,1599.4588,,,,0,34,34,34,1,165,55,,,,,,,,
,,5c1550c32b16ba0001c95536,65af55854aa07d90bbee3cc8,2024-01-23_08h00.37.252,bars,2023.2.3,Win32,59.52380952,657b66ea316d21385b68909f,,,,,,,,,,,1599.4589,1600.4515,,,1600.9519,1601.2022,,155,-25,,,,,,,,,,,,,,,,bars/005.png,bars/mask001.png,,,,,,,,,,,,2,2,,,,,,,10,2,10,3,,,,,,,,,,,1600.4515,1600.9519,1601.2022,1603.088,space,1.8729,,1603.0881,35,15,1604.0885,1604.0886,1604.097,,,,0,35,35,35,1,10,140,,,,,,,,
,,5c1550c32b16ba0001c95536,65af55854aa07d90bbee3cc8,2024-01-23_08h00.37.252,bars,2023.2.3,Win32,59.52380952,657b66ea316d21385b68909f,,,,,,,,,,,1604.0971,1605.0894,,,1605.59,1605.8401,,82,82,,,,,,,,,,,,,,,,bars/038.png,bars/mask004.png,,,,,,,,,,,,1,2,,,,,,,10,0,10,1,,,,,,,,,,,1605.0895,1605.5899,1605.8401,1609.0602,space,3.2042,,1609.0603,83,12,1610.061,1610.0611,1610.0693,,,,0,36,36,36,1,165,70,,,,,,,,
,,5c1550c32b16ba0001c95536,65af55854aa07d90bbee3cc8,2024-01-23_08h00.37.252,bars,2023.2.3,Win32,59.52380952,657b66ea316d21385b68909f,,,,,,,,,,,1610.0694,1611.062,,,1611.5626,1611.8128,,80,80,,,,,,,,,,,,,,,,bars/012.png,bars/mask000.png,,,,,,,,,,,,7,1,,,,,,,10,2,10,3,,,,,,,,,,,1611.062,1611.5626,1611.8128,1613.7816,space,1.9524,,1613.7816,10,65,1614.7824,1614.7825,1614.7838,,,,0,37,37,37,1,90,15,,,,,,,,
,,5c1550c32b16ba0001c95536,65af55854aa07d90bbee3cc8,2024-01-23_08h00.37.252,bars,2023.2.3,Win32,59.52380952,657b66ea316d21385b68909f,,,,,,,,,,,1614.784,1615.7834,,,1616.2842,1616.5342,,141,141,,,,,,,,,,,,,,,,bars/017.png,bars/mask005.png,,,,,,,,,,,,8,1,,,,,,,8,4,9,5,,,,,,,,,,,1615.7835,1616.2842,1616.5342,1619.571,space,3.0207,,1619.571,4,84,1620.5715,1620.5715,1620.5796,,,,0,38,38,38,1,145,45,,,,,,,,
,,5c1550c32b16ba0001c95536,65af55854aa07d90bbee3cc8,2024-01-23_08h00.37.252,bars,2023.2.3,Win32,59.52380952,657b66ea316d21385b68909f,,,,,,,,,,,1620.5797,1621.5725,,,1622.073,1622.3233,,40,40,,,,,,,,,,,,,,,,bars/026.png,bars/mask005.png,,,,,,,,,,,,8,1,,,,,,,10,6,10,6,,,,,,,,,,,1621.5725,1622.073,1622.3233,1624.4089,space,2.0709,,1624.4089,5,45,1625.4096,1625.4096,1625.4178,,,,0,39,39,39,1,35,85,,,,,,,,
,,5c1550c32b16ba0001c95536,65af55854aa07d90bbee3cc8,2024-01-23_08h00.37.252,bars,2023.2.3,Win32,59.52380952,657b66ea316d21385b68909f,,,,,,,,,,,1625.4179,1626.4107,,,1626.9113,1627.1615,,107,107,,,,,,,,,,,,,,,,bars/045.png,bars/mask000.png,,,,,,,,,,,,8,1,,,,,,,10,8,10,8,,,,,,,,,,,1626.4107,1626.9113,1627.1615,1629.4472,space,2.2693,,1629.4473,7,83,1630.4481,1630.4481,1630.4561,,,,0,40,40,40,1,100,10,,,,,,,,
,,5c1550c32b16ba0001c95536,65af55854aa07d90bbee3cc8,2024-01-23_08h00.37.252,bars,2023.2.3,Win32,59.52380952,657b66ea316d21385b68909f,,,,,,,,,,,1630.4563,1631.449,,,1631.9496,1632.1999,,77,77,,,,,,,,,,,,,,,,bars/014.png,bars/mask004.png,,,,,,,,,,,,7,1,,,,,,,8,10,8,10,,,,,,,,,,,1631.449,1631.9495,1632.1999,1634.4689,space,2.2545,,1634.4689,3,77,1635.4697,1635.4697,1635.478,,,,0,41,41,41,1,80,0,,,,,,,,
,,5c1550c32b16ba0001c95536,65af55854aa07d90bbee3cc8,2024-01-23_08h00.37.252,bars,2023.2.3,Win32,59.52380952,657b66ea316d21385b68909f,,,,,,,,,,,1635.4781,1636.4708,,,1636.9712,1637.2215,,14,194,,,,,,,,,,,,,,,,bars/004.png,bars/mask003.png,,,,,,,,,,,,6,1,,,,,,,10,8,9,7,,,,,,,,,,,1636.4708,1636.9712,1637.2215,1640.208,space,2.9703,,1640.208,11,69,1641.2088,1641.2089,1641.217,,,,0,42,42,42,1,25,125,,,,,,,,
,,5c1550c32b16ba0001c95536,65af55854aa07d90bbee3cc8,2024-01-23_08h00.37.252,bars,2023.2.3,Win32,59.52380952,657b66ea316d21385b68909f,,,,,,,,,,,1641.2172,1642.2098,,,1642.7103,1642.9605,,109,109,,,,,,,,,,,,,,,,bars/024.png,bars/mask002.png,,,,,,,,,,,,6,1,,,,,,,8,10,9,10,,,,,,,,,,,1642.2098,1642.7103,1642.9606,1643.7615,space,0.7843,,1643.7615,11,61,1644.7623,1644.7623,1644.7628,,,,0,43,43,43,1,120,170,,,,,,,,
,,5c1550c32b16ba0001c95536,65af55854aa07d90bbee3cc8,2024-01-23_08h00.37.252,bars,2023.2.3,Win32,59.52380952,657b66ea316d21385b68909f,,,,,,,,,,,1644.7631,1645.7634,,,1646.2638,1646.5141,,133,133,,,,,,,,,,,,,,,,bars/034.png,bars/mask001.png,,,,,,,,,,,,4,1,,,,,,,6,8,6,5,,,,,,,,,,,1645.7634,1646.2638,1646.5142,1648.3661,space,1.8366,,1648.3661,8,68,1649.367,1649.367,1649.3769,,,,0,44,44,44,1,125,65,,,,,,,,
,,5c1550c32b16ba0001c95536,65af55854aa07d90bbee3cc8,2024-01-23_08h00.37.252,bars,2023.2.3,Win32,59.52380952,657b66ea316d21385b68909f,,,,,,,,,,,1649.3773,1650.3679,,,1650.8684,1651.1187,,103,103,,,,,,,,,,,,,,,,bars/041.png,bars/mask002.png,,,,,,,,,,,,4,2,,,,,,,4,10,3,10,,,,,,,,,,,1650.3679,1650.8684,1651.1187,1653.9383,space,2.8034,,1653.9383,83,18,1654.9392,1654.9392,1654.9483,,,,0,45,45,45,1,20,85,,,,,,,,
,,5c1550c32b16ba0001c95536,65af55854aa07d90bbee3cc8,2024-01-23_08h00.37.252,bars,2023.2.3,Win32,59.52380952,657b66ea316d21385b68909f,,,,,,,,,,,1654.9484,1655.9401,,,1656.4406,1656.6909,,94,94,,,,,,,,,,,,,,,,bars/002.png,bars/mask009.png,,,,,,,,,,,,7,2,,,,,,,6,10,6,10,,,,,,,,,,,1655.9401,1656.4406,1656.6909,1659.5281,space,2.824,,1659.5281,36,9,1660.528,1660.5281,1660.5361,,,,0,46,46,46,1,130,85,,,,,,,,
,,5c1550c32b16ba0001c95536,65af55854aa07d90bbee3cc8,2024-01-23_08h00.37.252,bars,2023.2.3,Win32,59.52380952,657b66ea316d21385b68909f,,,,,,,,,,,1660.5363,1661.5291,,,1662.0295,1662.2798,,116,-64,,,,,,,,,,,,,,,,bars/015.png,bars/mask002.png,,,,,,,,,,,,6,1,,,,,,,8,8,7,8,,,,,,,,,,,1661.5291,1662.0295,1662.2798,1665.65,space,3.354,,1665.65,6,44,1666.6507,1666.6507,1666.6598,,,,0,47,47,47,1,110,160,,,,,,,,
,,5c1550c32b16ba0001c95536,65af55854aa07d90bbee3cc8,2024-01-23_08h00.37.252,bars,2023.2.3,Win32,59.52380952,657b66ea316d21385b68909f,,,,,,,,,,,1666.6601,1667.6516,,,1668.1521,1668.4023,,17,17,,,,,,,,,,,,,,,,bars/022.png,bars/mask000.png,,,,,,,,,,,,5,2,,,,,,,6,6,8,6,,,,,,,,,,,1667.6517,1668.1521,1668.4023,1669.4882,space,1.0723,,1669.4882,78,3,1670.4878,1670.4878,1670.4896,,,,0,48,48,48,1,95,20,,,,,,,,
,,5c1550c32b16ba0001c95536,65af55854aa07d90bbee3cc8,2024-01-23_08h00.37.252,bars,2023.2.3,Win32,59.52380952,657b66ea316d21385b68909f,,,,,,,,,,,1670.4897,1671.4888,,,1671.9894,1672.2395,,111,111,,,,,,,,,,,,,,,,bars/001.png,bars/mask000.png,,,,,,,,,,,,2,1,,,,,,,4,8,5,8,,,,,,,,,,,1671.4888,1671.9894,1672.2395,1675.744,space,3.4906,,1675.744,19,26,1676.744,1676.744,1676.753,,,,0,49,49,49,1,130,85,,,,,,,,
,,5c1550c32b16ba0001c95536,65af55854aa07d90bbee3cc8,2024-01-23_08h00.37.252,bars,2023.2.3,Win32,59.52380952,657b66ea316d21385b68909f,,,,,,,,,,,,,,,,,,,,,,,,,,,,,,,,,,,,,,,,,,,,,,,,,,,,,,,,,,,,,,,,,,,,,,,,,,,,,,,,,,,,,,,,,,,,,1676.7531,1736.7539,0,3,3,4,1,sequence_tables/blk035.csv
,,5c1550c32b16ba0001c95536,65af55854aa07d90bbee3cc8,2024-01-23_08h00.37.252,bars,2023.2.3,Win32,59.52380952,657b66ea316d21385b68909f,,,,,,,,,,,1911.9217,1912.913,,,1913.4135,1913.6638,,117,117,,,,,,,,,,,,,,,,bars/001.png,bars/mask001.png,,,,,,,,,,,,1,1,,,,,,,1,9,1,9,,,,,,1736.7627,1911.9104,space,175.1394,,1912.913,1913.4135,1913.6638,1915.5159,space,1.8361,,1915.5159,13,32,1916.5166,1916.5166,1916.5252,,,,0,0,0,0,1,130,85,,,,,,,,
,,5c1550c32b16ba0001c95536,65af55854aa07d90bbee3cc8,2024-01-23_08h00.37.252,bars,2023.2.3,Win32,59.52380952,657b66ea316d21385b68909f,,,,,,,,,,,1916.5254,1917.5175,,,1918.0181,1918.2685,,127,127,,,,,,,,,,,,,,,,bars/004.png,bars/mask006.png,,,,,,,,,,,,9,2,,,,,,,0,10,1,10,,,,,,,,,,,1917.5176,1918.0181,1918.2685,1920.9046,space,2.6199,,1920.9047,78,2,1921.9054,1921.9054,1921.9069,,,,0,1,1,1,1,25,125,,,,,,,,
,,5c1550c32b16ba0001c95536,65af55854aa07d90bbee3cc8,2024-01-23_08h00.37.252,bars,2023.2.3,Win32,59.52380952,657b66ea316d21385b68909f,,,,,,,,,,,1921.9071,1922.9064,,,1923.4067,1923.6571,,62,62,,,,,,,,,,,,,,,,bars/030.png,bars/mask002.png,,,,,,,,,,,,7,2,,,,,,,0,8,0,8,,,,,,,,,,,1922.9064,1923.4067,1923.6571,1926.7771,space,3.1035,,1926.7771,78,3,1927.7779,1927.7779,1927.7863,,,,0,2,2,2,1,140,65,,,,,,,,
,,5c1550c32b16ba0001c95536,65af55854aa07d90bbee3cc8,2024-01-23_08h00.37.252,bars,2023.2.3,Win32,59.52380952,657b66ea316d21385b68909f,,,,,,,,,,,1927.7864,1928.7789,,,1929.2794,1929.5296,,79,79,,,,,,,,,,,,,,,,bars/011.png,bars/mask006.png,,,,,,,,,,,,7,2,,,,,,,2,10,1,9,,,,,,,,,,,1928.7789,1929.2794,1929.5296,1933.4171,space,3.8707,,1933.4172,81,6,1934.4178,1934.4178,1934.4262,,,,0,3,3,3,1,160,85,,,,,,,,
,,5c1550c32b16ba0001c95536,65af55854aa07d90bbee3cc8,2024-01-23_08h00.37.252,bars,2023.2.3,Win32,59.52380952,657b66ea316d21385b68909f,,,,,,,,,,,1934.4264,1935.4188,,,1935.9194,1936.1695,,155,155,,,,,,,,,,,,,,,,bars/044.png,bars/mask007.png,,,,,,,,,,,,10,2,,,,,,,0,10,0,10,,,,,,,,,,,1935.4189,1935.9194,1936.1695,1938.6391,space,2.4531,,1938.6391,80,0,1939.6397,1939.6397,1939.6481,,,,0,4,4,4,1,75,155,,,,,,,,
,,5c1550c32b16ba0001c95536,65af55854aa07d90bbee3cc8,2024-01-23_08h00.37.252,bars,2023.2.3,Win32,59.52380952,657b66ea316d21385b68909f,,,,,,,,,,,1939.6484,1940.6407,,,1941.1413,1941.3914,,113,-67,,,,,,,,,,,,,,,,bars/041.png,bars/mask007.png,,,,,,,,,,,,1,2,,,,,,,0,10,1,9,,,,,,,,,,,1940.6407,1941.1413,1941.3914,1944.962,space,3.5541,,1944.962,87,28,1945.9627,1945.9627,1945.9711,,,,0,5,5,5,1,20,85,,,,,,,,
,,5c1550c32b16ba0001c95536,65af55854aa07d90bbee3cc8,2024-01-23_08h00.37.252,bars,2023.2.3,Win32,59.52380952,657b66ea316d21385b68909f,,,,,,,,,,,1945.9712,1946.9636,,,1947.4642,1947.7146,,58,58,,,,,,,,,,,,,,,,bars/015.png,bars/mask009.png,,,,,,,,,,,,0,1,,,,,,,2,10,2,9,,,,,,,,,,,1946.9637,1947.4641,1947.7146,1950.5175,space,2.7864,,1950.5177,52,78,1951.5181,1951.5181,1951.5273,,,,0,6,6,6,1,110,160,,,,,,,,
,,5c1550c32b16ba0001c95536,65af55854aa07d90bbee3cc8,2024-01-23_08h00.37.252,bars,2023.2.3,Win32,59.52380952,657b66ea316d21385b68909f,,,,,,,,,,,1951.5276,1952.5191,,,1953.0197,1953.2699,,122,122,,,,,,,,,,,,,,,,bars/015.png,bars/mask004.png,,,,,,,,,,,,0,1,,,,,,,0,8,0,8,,,,,,,,,,,1952.5191,1953.0197,1953.2699,1956.5735,space,3.2872,,1956.5736,12,38,1957.5743,1957.5743,1957.5826,,,,0,7,7,7,1,110,160,,,,,,,,
,,5c1550c32b16ba0001c95536,65af55854aa07d90bbee3cc8,2024-01-23_08h00.37.252,bars,2023.2.3,Win32,59.52380952,657b66ea316d21385b68909f,,,,,,,,,,,1957.5827,1958.5727,,,1959.0733,1959.3233,,45,45,,,,,,,,,,,,,,,,bars/031.png,bars/mask006.png,,,,,,,,,,,,6,2,,,,,,,0,10,0,9,,,,,,,,,,,1958.5727,1959.0733,1959.3233,1961.2597,space,1.9197,,1961.2597,75,10,1962.2601,1962.2602,1962.2699,,,,0,8,8,8,1,120,35,,,,,,,,
,,5c1550c32b16ba0001c95536,65af55854aa07d90bbee3cc8,2024-01-23_08h00.37.252,bars,2023.2.3,Win32,59.52380952,657b66ea316d21385b68909f,,,,,,,,,,,1962.2701,1963.2604,,,1963.7615,1964.0116,,81,81,,,,,,,,,,,,,,,,bars/037.png,bars/mask008.png,,,,,,,,,,,,2,2,,,,,,,2,10,3,10,,,,,,,,,,,1963.2604,1963.7615,1964.0117,1964.1623,space,0.134,,1964.1623,69,24,1965.1623,1965.1623,1965.1631,,,,0,9,9,9,1,150,105,,,,,,,,
,,5c1550c32b16ba0001c95536,65af55854aa07d90bbee3cc8,2024-01-23_08h00.37.252,bars,2023.2.3,Win32,59.52380952,657b66ea316d21385b68909f,,,,,,,,,,,1965.1632,1966.1654,,,1966.6642,1966.9204,,117,-63,,,,,,,,,,,,,,,,bars/011.png,bars/mask009.png,,,,,,,,,,,,0,2,,,,,,,4,10,4,10,,,,,,,,,,,1966.1656,1966.6642,1966.9205,1970.4207,space,3.4878,,1970.4208,43,32,1971.4213,1971.4214,1971.43,,,,0,10,10,10,1,160,85,,,,,,,,
,,5c1550c32b16ba0001c95536,65af55854aa07d90bbee3cc8,2024-01-23_08h00.37.252,bars,2023.2.3,Win32,59.52380952,657b66ea316d21385b68909f,,,,,,,,,,,1971.4302,1972.4225,,,1972.9228,1973.1733,,54,54,,,,,,,,,,,,,,,,bars/018.png,bars/mask001.png,,,,,,,,,,,,0,2,,,,,,,2,10,3,10,,,,,,,,,,,1972.4225,1972.9228,1973.1733,1975.6425,space,2.4528,,1975.6425,84,36,1976.6433,1976.6433,1976.6517,,,,0,11,11,11,1,150,90,,,,,,,,
,,5c1550c32b16ba0001c95536,65af55854aa07d90bbee3cc8,2024-01-23_08h00.37.252,bars,2023.2.3,Win32,59.52380952,657b66ea316d21385b68909f,,,,,,,,,,,1976.6518,1977.6442,,,1978.1447,1978.3952,,42,42,,,,,,,,,,,,,,,,bars/047.png,bars/mask004.png,,,,,,,,,,,,0,1,,,,,,,4,8,4,8,,,,,,,,,,,1977.6443,1978.1447,1978.3952,1981.7152,space,3.3036,,1981.7152,27,28,1982.716,1982.716,1982.7257,,,,0,12,12,12,1,15,70,,,,,,,,
