init_variables.started,init_variables.stopped,participant,session,date,expName,psychopyVersion,OS,frameRate,study_id,instruction_exp.started,instruction_exp.stopped,key_resp_8.keys,key_resp_8.rt,key_resp_8.duration,instruction_single.started,instruction_single.stopped,key_resp_2.keys,key_resp_2.rt,key_resp_2.duration,interval.started,interval.stopped,cue_single.started,cue_single.stopped,mask.started,mask.stopped,ori_response_single.started,res_ori,res,ori_response_single.stopped,key_resp_single.keys,key_resp_single.rt,key_resp_single.duration,disp_single.started,disp_single.stopped,key_resp.keys,key_resp.rt,key_resp.duration,single.thisRepN,single.thisTrialN,single.thisN,single.thisIndex,single.ran,ori,path,mask_path,instruction_bandit.started,instruction_bandit.stopped,key_resp_6.keys,key_resp_6.rt,key_resp_6.duration,cue_bandit.started,cue_bandit.stopped,bandit_res.keys,bandit_res.rt,bandit_res.duration,outcome_bandit.started,rew,action,outcome_bandit.stopped,bandit.thisRepN,bandit.thisTrialN,bandit.thisN,bandit.thisIndex,bandit.ran,actual_rew1,actual_rew2,rew1,rew2,instruction_task.started,instruction_task.stopped,key_resp_7.keys,key_resp_7.rt,key_resp_7.duration,wait_ready.started,wait_ready.stopped,key_resp_3.keys,key_resp_3.rt,key_resp_3.duration,cue.started,cue.stopped,ori_response.started,ori_response.stopped,key_resp_5.keys,key_resp_5.rt,key_resp_5.duration,outcome.started,diff1,diff2,outcome.stopped,disp_outcome_practice.started,disp_outcome_practice.stopped,key_resp_4.keys,key_resp_4.rt,key_resp_4.duration,trials.thisRepN,trials.thisTrialN,trials.thisN,trials.thisIndex,trials.ran,ori1,ori2,break_blk.started,break_blk.stopped,block.thisRepN,block.thisTrialN,block.thisN,block.thisIndex,block.ran,condition_file
0.0003,0.0005,653178c7d58b18168deb79bd,65af66c3ba3c4b3e69317330,2024-01-23_21h39.59.872,bars,2023.2.3,Win32,144.9275362,657b66ea316d21385b68909f,,,,,,,,,,,,,,,,,,,,,,,,,,,,,,,,,,,,,,,,,,,,,,,,,,,,,,,,,,,,,,,,,,,,,,,,,,,,,,,,,,,,,,,,,,,,,,,,,,,,
,,653178c7d58b18168deb79bd,65af66c3ba3c4b3e69317330,2024-01-23_21h39.59.872,bars,2023.2.3,Win32,144.9275362,657b66ea316d21385b68909f,0.0006,1.5952,y,1.5872,,,,,,,,,,,,,,,,,,,,,,,,,,,,,,,,,,,,,,,,,,,,,,,,,,,,,,,,,,,,,,,,,,,,,,,,,,,,,,,,,,,,,,,,,,,,,,,,
,,653178c7d58b18168deb79bd,65af66c3ba3c4b3e69317330,2024-01-23_21h39.59.872,bars,2023.2.3,Win32,144.9275362,657b66ea316d21385b68909f,,,,,,1.5953,3.3835,space,1.778,,,,,,,,,,,,,,,,,,,,,,,,,,,,,,,,,,,,,,,,,,,,,,,,,,,,,,,,,,,,,,,,,,,,,,,,,,,,,,,,,,,,,,,,,,,
,,653178c7d58b18168deb79bd,65af66c3ba3c4b3e69317330,2024-01-23_21h39.59.872,bars,2023.2.3,Win32,144.9275362,657b66ea316d21385b68909f,,,,,,,,,,,3.389,4.3851,4.3853,4.8864,4.8865,5.1375,5.1376,172,-8,8.3511,space,3.1945,,8.3513,9.4363,space,1.0717,,0,0,0,9,1,20,bars/single009.png,bars/mask006.png,,,,,,,,,,,,,,,,,,,,,,,,,,,,,,,,,,,,,,,,,,,,,,,,,,,,,,,,,,,,,,,,
,,653178c7d58b18168deb79bd,65af66c3ba3c4b3e69317330,2024-01-23_21h39.59.872,bars,2023.2.3,Win32,144.9275362,657b66ea316d21385b68909f,,,,,,,,,,,9.4367,10.4379,10.438,10.939,10.939,11.1894,11.1894,101,101,11.3702,space,0.1786,,11.3702,11.9827,space,0.6053,,0,1,1,2,1,145,bars/single002.png,bars/mask003.png,,,,,,,,,,,,,,,,,,,,,,,,,,,,,,,,,,,,,,,,,,,,,,,,,,,,,,,,,,,,,,,,
,,653178c7d58b18168deb79bd,65af66c3ba3c4b3e69317330,2024-01-23_21h39.59.872,bars,2023.2.3,Win32,144.9275362,657b66ea316d21385b68909f,,,,,,,,,,,11.983,12.9844,12.9844,13.4856,13.4856,13.7358,13.7359,167,167,13.875,space,0.1361,,13.875,16.6927,space,2.8114,,0,2,2,5,1,55,bars/single005.png,bars/mask008.png,,,,,,,,,,,,,,,,,,,,,,,,,,,,,,,,,,,,,,,,,,,,,,,,,,,,,,,,,,,,,,,,
,,653178c7d58b18168deb79bd,65af66c3ba3c4b3e69317330,2024-01-23_21h39.59.872,bars,2023.2.3,Win32,144.9275362,657b66ea316d21385b68909f,,,,,,,,,,,16.693,17.6946,17.6947,18.1954,18.1955,18.4461,18.4461,158,-22,21.4446,space,2.9943,,21.4447,27.2262,space,5.7791,,0,3,3,0,1,150,bars/single000.png,bars/mask006.png,,,,,,,,,,,,,,,,,,,,,,,,,,,,,,,,,,,,,,,,,,,,,,,,,,,,,,,,,,,,,,,,
,,653178c7d58b18168deb79bd,65af66c3ba3c4b3e69317330,2024-01-23_21h39.59.872,bars,2023.2.3,Win32,144.9275362,657b66ea316d21385b68909f,,,,,,,,,,,27.2265,28.2281,28.2281,28.7291,28.7291,28.9796,28.9797,87,87,30.5521,space,1.5651,,30.5521,31.2825,space,0.7266,,0,4,4,4,1,95,bars/single004.png,bars/mask004.png,,,,,,,,,,,,,,,,,,,,,,,,,,,,,,,,,,,,,,,,,,,,,,,,,,,,,,,,,,,,,,,,
,,653178c7d58b18168deb79bd,65af66c3ba3c4b3e69317330,2024-01-23_21h39.59.872,bars,2023.2.3,Win32,144.9275362,657b66ea316d21385b68909f,,,,,,,,,,,31.2827,32.2844,32.2844,32.7852,32.7852,33.0358,33.0358,163,163,34.8865,space,1.8448,,34.8866,36.3059,space,1.4162,,0,5,5,8,1,160,bars/single008.png,bars/mask004.png,,,,,,,,,,,,,,,,,,,,,,,,,,,,,,,,,,,,,,,,,,,,,,,,,,,,,,,,,,,,,,,,
,,653178c7d58b18168deb79bd,65af66c3ba3c4b3e69317330,2024-01-23_21h39.59.872,bars,2023.2.3,Win32,144.9275362,657b66ea316d21385b68909f,,,,,,,,,,,36.3062,37.3078,37.3078,37.8086,37.8087,38.059,38.0591,178,178,39.3742,space,1.3088,,39.3742,40.432,space,1.0499,,0,6,6,6,1,175,bars/single006.png,bars/mask005.png,,,,,,,,,,,,,,,,,,,,,,,,,,,,,,,,,,,,,,,,,,,,,,,,,,,,,,,,,,,,,,,,
,,653178c7d58b18168deb79bd,65af66c3ba3c4b3e69317330,2024-01-23_21h39.59.872,bars,2023.2.3,Win32,144.9275362,657b66ea316d21385b68909f,,,,,,,,,,,40.4322,41.4334,41.4334,41.9345,41.9346,42.1848,42.1849,23,203,43.4233,space,1.2315,,43.4233,44.2861,space,0.8551,,0,7,7,3,1,20,bars/single003.png,bars/mask005.png,,,,,,,,,,,,,,,,,,,,,,,,,,,,,,,,,,,,,,,,,,,,,,,,,,,,,,,,,,,,,,,,
,,653178c7d58b18168deb79bd,65af66c3ba3c4b3e69317330,2024-01-23_21h39.59.872,bars,2023.2.3,Win32,144.9275362,657b66ea316d21385b68909f,,,,,,,,,,,44.2863,45.2879,45.2879,45.7888,45.7888,46.0393,46.0393,27,27,46.554,space,0.5129,,46.554,47.3404,space,0.7812,,0,8,8,1,1,20,bars/single001.png,bars/mask006.png,,,,,,,,,,,,,,,,,,,,,,,,,,,,,,,,,,,,,,,,,,,,,,,,,,,,,,,,,,,,,,,,
,,653178c7d58b18168deb79bd,65af66c3ba3c4b3e69317330,2024-01-23_21h39.59.872,bars,2023.2.3,Win32,144.9275362,657b66ea316d21385b68909f,,,,,,,,,,,47.3406,48.3423,48.3424,48.8431,48.8431,49.0936,49.0936,24,204,53.2055,space,4.1063,,53.2056,54.0752,space,0.8641,,0,9,9,7,1,45,bars/single007.png,bars/mask009.png,,,,,,,,,,,,,,,,,,,,,,,,,,,,,,,,,,,,,,,,,,,,,,,,,,,,,,,,,,,,,,,,
,,653178c7d58b18168deb79bd,65af66c3ba3c4b3e69317330,2024-01-23_21h39.59.872,bars,2023.2.3,Win32,144.9275362,657b66ea316d21385b68909f,,,,,,,,,,,,,,,,,,,,,,,,,,,,,,,,,,,,,54.0755,57.6446,space,3.5585,,,,,,,,,,,,,,,,,,,,,,,,,,,,,,,,,,,,,,,,,,,,,,,,,,,,,,,,,,,,
,,653178c7d58b18168deb79bd,65af66c3ba3c4b3e69317330,2024-01-23_21h39.59.872,bars,2023.2.3,Win32,144.9275362,657b66ea316d21385b68909f,,,,,,,,,,,,,,,,,,,,,,,,,,,,,,,,,,,,,,,,,,57.6462,59.4326,left,1.7725,,59.4328,9,1,60.4345,0,0,0,0,1,9,1,9,2,,,,,,,,,,,,,,,,,,,,,,,,,,,,,,,,,,,,,,,,,
,,653178c7d58b18168deb79bd,65af66c3ba3c4b3e69317330,2024-01-23_21h39.59.872,bars,2023.2.3,Win32,144.9275362,657b66ea316d21385b68909f,,,,,,,,,,,,,,,,,,,,,,,,,,,,,,,,,,,,,,,,,,60.4349,60.7334,left,0.2933,,60.7335,10,1,61.7352,0,1,1,1,1,10,0,10,1,,,,,,,,,,,,,,,,,,,,,,,,,,,,,,,,,,,,,,,,,
,,653178c7d58b18168deb79bd,65af66c3ba3c4b3e69317330,2024-01-23_21h39.59.872,bars,2023.2.3,Win32,144.9275362,657b66ea316d21385b68909f,,,,,,,,,,,,,,,,,,,,,,,,,,,,,,,,,,,,,,,,,,61.7354,62.0207,left,0.2806,,62.0207,10,1,63.0157,0,2,2,2,1,10,2,10,2,,,,,,,,,,,,,,,,,,,,,,,,,,,,,,,,,,,,,,,,,
,,653178c7d58b18168deb79bd,65af66c3ba3c4b3e69317330,2024-01-23_21h39.59.872,bars,2023.2.3,Win32,144.9275362,657b66ea316d21385b68909f,,,,,,,,,,,,,,,,,,,,,,,,,,,,,,,,,,,,,,,,,,63.0162,63.3079,left,0.2881,,63.308,7,1,64.3095,0,3,3,3,1,8,4,7,3,,,,,,,,,,,,,,,,,,,,,,,,,,,,,,,,,,,,,,,,,
,,653178c7d58b18168deb79bd,65af66c3ba3c4b3e69317330,2024-01-23_21h39.59.872,bars,2023.2.3,Win32,144.9275362,657b66ea316d21385b68909f,,,,,,,,,,,,,,,,,,,,,,,,,,,,,,,,,,,,,,,,,,64.3098,64.7898,left,0.4743,,64.7899,5,1,65.7916,0,4,4,4,1,6,2,5,1,,,,,,,,,,,,,,,,,,,,,,,,,,,,,,,,,,,,,,,,,
,,653178c7d58b18168deb79bd,65af66c3ba3c4b3e69317330,2024-01-23_21h39.59.872,bars,2023.2.3,Win32,144.9275362,657b66ea316d21385b68909f,,,,,,,,,,,,,,,,,,,,,,,,,,,,,,,,,,,,,,,,,,65.7919,66.5013,right,0.7043,,66.5014,4,2,67.5029,0,5,5,5,1,4,4,4,4,,,,,,,,,,,,,,,,,,,,,,,,,,,,,,,,,,,,,,,,,
,,653178c7d58b18168deb79bd,65af66c3ba3c4b3e69317330,2024-01-23_21h39.59.872,bars,2023.2.3,Win32,144.9275362,657b66ea316d21385b68909f,,,,,,,,,,,,,,,,,,,,,,,,,,,,,,,,,,,,,,,,,,67.5031,67.7257,left,0.2174,,67.7258,1,1,68.7277,0,6,6,6,1,2,2,1,2,,,,,,,,,,,,,,,,,,,,,,,,,,,,,,,,,,,,,,,,,
,,653178c7d58b18168deb79bd,65af66c3ba3c4b3e69317330,2024-01-23_21h39.59.872,bars,2023.2.3,Win32,144.9275362,657b66ea316d21385b68909f,,,,,,,,,,,,,,,,,,,,,,,,,,,,,,,,,,,,,,,,,,68.728,68.9223,right,0.1925,,68.9224,1,2,69.9242,0,7,7,7,1,0,0,0,1,,,,,,,,,,,,,,,,,,,,,,,,,,,,,,,,,,,,,,,,,
,,653178c7d58b18168deb79bd,65af66c3ba3c4b3e69317330,2024-01-23_21h39.59.872,bars,2023.2.3,Win32,144.9275362,657b66ea316d21385b68909f,,,,,,,,,,,,,,,,,,,,,,,,,,,,,,,,,,,,,,,,,,69.9247,70.0703,right,0.1396,,70.0703,0,2,71.0653,0,8,8,8,1,0,2,1,0,,,,,,,,,,,,,,,,,,,,,,,,,,,,,,,,,,,,,,,,,
,,653178c7d58b18168deb79bd,65af66c3ba3c4b3e69317330,2024-01-23_21h39.59.872,bars,2023.2.3,Win32,144.9275362,657b66ea316d21385b68909f,,,,,,,,,,,,,,,,,,,,,,,,,,,,,,,,,,,,,,,,,,71.0656,71.1143,left,0.0463,,71.1143,2,1,72.1158,0,9,9,9,1,2,4,2,3,,,,,,,,,,,,,,,,,,,,,,,,,,,,,,,,,,,,,,,,,
,,653178c7d58b18168deb79bd,65af66c3ba3c4b3e69317330,2024-01-23_21h39.59.872,bars,2023.2.3,Win32,144.9275362,657b66ea316d21385b68909f,,,,,,,,,,,,,,,,,,,,,,,,,,,,,,,,,,,,,,,,,,72.1161,72.387,left,0.2677,,72.3871,0,1,73.3891,0,10,10,10,1,0,2,0,3,,,,,,,,,,,,,,,,,,,,,,,,,,,,,,,,,,,,,,,,,
,,653178c7d58b18168deb79bd,65af66c3ba3c4b3e69317330,2024-01-23_21h39.59.872,bars,2023.2.3,Win32,144.9275362,657b66ea316d21385b68909f,,,,,,,,,,,,,,,,,,,,,,,,,,,,,,,,,,,,,,,,,,73.3894,73.7161,right,0.3226,,73.7162,3,2,74.7179,0,11,11,11,1,0,4,0,3,,,,,,,,,,,,,,,,,,,,,,,,,,,,,,,,,,,,,,,,,
,,653178c7d58b18168deb79bd,65af66c3ba3c4b3e69317330,2024-01-23_21h39.59.872,bars,2023.2.3,Win32,144.9275362,657b66ea316d21385b68909f,,,,,,,,,,,,,,,,,,,,,,,,,,,,,,,,,,,,,,,,,,74.718,75.2676,right,0.5462,,75.2676,6,2,76.2624,0,12,12,12,1,2,6,1,6,,,,,,,,,,,,,,,,,,,,,,,,,,,,,,,,,,,,,,,,,
,,653178c7d58b18168deb79bd,65af66c3ba3c4b3e69317330,2024-01-23_21h39.59.872,bars,2023.2.3,Win32,144.9275362,657b66ea316d21385b68909f,,,,,,,,,,,,,,,,,,,,,,,,,,,,,,,,,,,,,,,,,,76.2627,78.0784,right,1.8095,,78.0784,3,2,79.0733,0,13,13,13,1,0,4,1,3,,,,,,,,,,,,,,,,,,,,,,,,,,,,,,,,,,,,,,,,,
,,653178c7d58b18168deb79bd,65af66c3ba3c4b3e69317330,2024-01-23_21h39.59.872,bars,2023.2.3,Win32,144.9275362,657b66ea316d21385b68909f,,,,,,,,,,,,,,,,,,,,,,,,,,,,,,,,,,,,,,,,,,79.0734,79.3239,left,0.2465,,79.3239,2,1,80.3256,0,14,14,14,1,2,6,2,7,,,,,,,,,,,,,,,,,,,,,,,,,,,,,,,,,,,,,,,,,
,,653178c7d58b18168deb79bd,65af66c3ba3c4b3e69317330,2024-01-23_21h39.59.872,bars,2023.2.3,Win32,144.9275362,657b66ea316d21385b68909f,,,,,,,,,,,,,,,,,,,,,,,,,,,,,,,,,,,,,,,,,,80.3259,80.5901,right,0.2587,,80.5901,9,2,81.5849,0,15,15,15,1,4,8,3,9,,,,,,,,,,,,,,,,,,,,,,,,,,,,,,,,,,,,,,,,,
,,653178c7d58b18168deb79bd,65af66c3ba3c4b3e69317330,2024-01-23_21h39.59.872,bars,2023.2.3,Win32,144.9275362,657b66ea316d21385b68909f,,,,,,,,,,,,,,,,,,,,,,,,,,,,,,,,,,,,,,,,,,81.5852,81.9468,right,0.3593,,81.9468,7,2,82.9486,0,16,16,16,1,6,6,7,7,,,,,,,,,,,,,,,,,,,,,,,,,,,,,,,,,,,,,,,,,
,,653178c7d58b18168deb79bd,65af66c3ba3c4b3e69317330,2024-01-23_21h39.59.872,bars,2023.2.3,Win32,144.9275362,657b66ea316d21385b68909f,,,,,,,,,,,,,,,,,,,,,,,,,,,,,,,,,,,,,,,,,,82.9488,83.248,right,0.2926,,83.248,5,2,84.2497,0,17,17,17,1,8,4,9,5,,,,,,,,,,,,,,,,,,,,,,,,,,,,,,,,,,,,,,,,,
,,653178c7d58b18168deb79bd,65af66c3ba3c4b3e69317330,2024-01-23_21h39.59.872,bars,2023.2.3,Win32,144.9275362,657b66ea316d21385b68909f,,,,,,,,,,,,,,,,,,,,,,,,,,,,,,,,,,,,,,,,,,84.2499,84.688,right,0.431,,84.6881,1,2,85.6899,0,18,18,18,1,6,2,5,1,,,,,,,,,,,,,,,,,,,,,,,,,,,,,,,,,,,,,,,,,
,,653178c7d58b18168deb79bd,65af66c3ba3c4b3e69317330,2024-01-23_21h39.59.872,bars,2023.2.3,Win32,144.9275362,657b66ea316d21385b68909f,,,,,,,,,,,,,,,,,,,,,,,,,,,,,,,,,,,,,,,,,,85.6902,86.0379,left,0.3429,,86.0379,7,1,87.0396,0,19,19,19,1,8,0,7,0,,,,,,,,,,,,,,,,,,,,,,,,,,,,,,,,,,,,,,,,,
,,653178c7d58b18168deb79bd,65af66c3ba3c4b3e69317330,2024-01-23_21h39.59.872,bars,2023.2.3,Win32,144.9275362,657b66ea316d21385b68909f,,,,,,,,,,,,,,,,,,,,,,,,,,,,,,,,,,,,,,,,,,,,,,,,,,,,,,,,,,,,87.04,90.303,space,3.2532,,,,,,,,,,,,,,,,,,,,,,,,,,,,,,,,,,,,,
,,653178c7d58b18168deb79bd,65af66c3ba3c4b3e69317330,2024-01-23_21h39.59.872,bars,2023.2.3,Win32,144.9275362,657b66ea316d21385b68909f,,,,,,,,,,,90.946,91.9448,,,92.4465,92.6961,,79,79,,,,,,,,,,,,,,,,bars/029.png,bars/mask002.png,,,,,,,,,,,,3,1,,,,,,,2,3,5,3,,,,,,90.3109,90.9432,space,0.6231,,91.9449,92.4464,92.6963,95.7226,space,3.018,,95.7227,11,34,96.7248,96.7249,101.2622,space,4.5296,,0,0,0,0,1,90,45,,,,,,,,
,,653178c7d58b18168deb79bd,65af66c3ba3c4b3e69317330,2024-01-23_21h39.59.872,bars,2023.2.3,Win32,144.9275362,657b66ea316d21385b68909f,,,,,,,,,,,101.2695,102.2633,,,102.7634,103.014,,29,209,,,,,,,,,,,,,,,,bars/023.png,bars/mask009.png,,,,,,,,,,,,2,1,,,,,,,4,1,3,1,,,,,,,,,,,102.2633,102.7634,103.014,106.9865,space,3.9641,,106.9867,9,86,107.9884,107.9884,109.8125,space,1.8129,,0,1,1,1,1,20,115,,,,,,,,
,,653178c7d58b18168deb79bd,65af66c3ba3c4b3e69317330,2024-01-23_21h39.59.872,bars,2023.2.3,Win32,144.9275362,657b66ea316d21385b68909f,,,,,,,,,,,109.8128,110.8133,,,111.3151,111.5656,,24,24,,,,,,,,,,,,,,,,bars/031.png,bars/mask008.png,,,,,,,,,,,,0,2,,,,,,,6,0,5,0,,,,,,,,,,,110.8134,111.315,111.5657,113.674,space,2.1017,,113.674,84,11,114.6747,114.6747,115.3644,space,0.6821,,0,2,2,2,1,120,35,,,,,,,,
,,653178c7d58b18168deb79bd,65af66c3ba3c4b3e69317330,2024-01-23_21h39.59.872,bars,2023.2.3,Win32,144.9275362,657b66ea316d21385b68909f,,,,,,,,,,,115.3647,116.3659,,,116.8671,117.1166,,60,60,,,,,,,,,,,,,,,,bars/028.png,bars/mask008.png,,,,,,,,,,,,2,1,,,,,,,4,2,4,2,,,,,,,,,,,116.366,116.8671,117.1166,120.9436,space,3.8147,,120.9436,15,60,121.9452,121.9452,126.7321,space,4.7691,,0,3,3,3,1,45,120,,,,,,,,
,,653178c7d58b18168deb79bd,65af66c3ba3c4b3e69317330,2024-01-23_21h39.59.872,bars,2023.2.3,Win32,144.9275362,657b66ea316d21385b68909f,,,,,,,,,,,126.7397,127.7338,,,128.2348,128.485,,110,110,,,,,,,,,,,,,,,,bars/009.png,bars/mask005.png,,,,,,,,,,,,3,2,,,,,,,6,4,6,4,,,,,,,,,,,127.7339,128.2348,128.485,129.1252,space,0.6353,,129.1253,85,5,130.1201,130.1202,130.6767,space,0.5482,,0,4,4,4,1,15,105,,,,,,,,
,,653178c7d58b18168deb79bd,65af66c3ba3c4b3e69317330,2024-01-23_21h39.59.872,bars,2023.2.3,Win32,144.9275362,657b66ea316d21385b68909f,,,,,,,,,,,130.6771,131.6787,,,132.1795,132.43,,2,182,,,,,,,,,,,,,,,,bars/014.png,bars/mask001.png,,,,,,,,,,,,2,2,,,,,,,4,2,3,2,,,,,,,,,,,131.6787,132.1795,132.43,133.7242,space,1.29,,133.7243,78,2,134.7192,134.7193,135.1646,space,0.4377,,0,5,5,5,1,80,0,,,,,,,,
,,653178c7d58b18168deb79bd,65af66c3ba3c4b3e69317330,2024-01-23_21h39.59.872,bars,2023.2.3,Win32,144.9275362,657b66ea316d21385b68909f,,,,,,,,,,,135.1652,136.1662,,,136.6672,136.9176,,178,178,,,,,,,,,,,,,,,,bars/007.png,bars/mask004.png,,,,,,,,,,,,2,1,,,,,,,2,4,2,5,,,,,,,,,,,136.1663,136.6671,136.9176,137.3283,space,0.4035,,137.3283,3,57,138.3299,138.3299,138.8099,space,0.4744,,0,6,6,6,1,175,55,,,,,,,,
,,653178c7d58b18168deb79bd,65af66c3ba3c4b3e69317330,2024-01-23_21h39.59.872,bars,2023.2.3,Win32,144.9275362,657b66ea316d21385b68909f,,,,,,,,,,,138.8102,139.8119,,,140.3129,140.5633,,52,52,,,,,,,,,,,,,,,,bars/034.png,bars/mask002.png,,,,,,,,,,,,1,2,,,,,,,4,2,5,2,,,,,,,,,,,139.8119,140.3129,140.5633,144.7376,space,4.1724,,144.7376,73,13,145.7327,145.7328,146.9502,space,1.2016,,0,7,7,7,1,125,65,,,,,,,,
,,653178c7d58b18168deb79bd,65af66c3ba3c4b3e69317330,2024-01-23_21h39.59.872,bars,2023.2.3,Win32,144.9275362,657b66ea316d21385b68909f,,,,,,,,,,,146.9507,147.952,,,148.453,148.7034,,23,203,,,,,,,,,,,,,,,,bars/004.png,bars/mask004.png,,,,,,,,,,,,2,1,,,,,,,2,4,2,6,,,,,,,,,,,147.9521,148.453,148.7034,152.6555,space,3.9448,,152.6556,2,78,153.6572,153.6572,154.2139,space,0.5419,,0,8,8,8,1,25,125,,,,,,,,
,,653178c7d58b18168deb79bd,65af66c3ba3c4b3e69317330,2024-01-23_21h39.59.872,bars,2023.2.3,Win32,144.9275362,657b66ea316d21385b68909f,,,,,,,,,,,154.2142,155.2157,,,155.7167,155.967,,125,125,,,,,,,,,,,,,,,,bars/040.png,bars/mask005.png,,,,,,,,,,,,0,1,,,,,,,0,2,0,2,,,,,,,,,,,155.2157,155.7167,155.967,156.6281,space,0.6568,,156.6281,15,60,157.6299,157.6299,159.1677,space,1.5296,,0,9,9,9,1,140,5,,,,,,,,
,,653178c7d58b18168deb79bd,65af66c3ba3c4b3e69317330,2024-01-23_21h39.59.872,bars,2023.2.3,Win32,144.9275362,657b66ea316d21385b68909f,,,,,,,,,,,159.168,160.1693,,,160.6704,160.9208,,93,273,,,,,,,,,,,,,,,,bars/001.png,bars/mask004.png,,,,,,,,,,,,4,2,,,,,,,0,4,0,5,,,,,,,,,,,160.1693,160.6704,160.9209,165.7006,space,4.7752,,165.7007,37,8,166.7023,166.7023,167.2245,space,0.5052,,0,10,10,10,1,130,85,,,,,,,,
,,653178c7d58b18168deb79bd,65af66c3ba3c4b3e69317330,2024-01-23_21h39.59.872,bars,2023.2.3,Win32,144.9275362,657b66ea316d21385b68909f,,,,,,,,,,,167.2248,168.2262,,,168.7271,168.9776,,97,97,,,,,,,,,,,,,,,,bars/002.png,bars/mask008.png,,,,,,,,,,,,0,2,,,,,,,2,2,1,0,,,,,,,,,,,168.2262,168.727,168.9776,170.8561,space,1.8715,,170.8562,33,12,171.8509,171.8509,172.3171,space,0.4532,,0,11,11,11,1,130,85,,,,,,,,
,,653178c7d58b18168deb79bd,65af66c3ba3c4b3e69317330,2024-01-23_21h39.59.872,bars,2023.2.3,Win32,144.9275362,657b66ea316d21385b68909f,,,,,,,,,,,172.3174,173.3188,,,173.8199,174.0704,,125,125,,,,,,,,,,,,,,,,bars/037.png,bars/mask005.png,,,,,,,,,,,,2,2,,,,,,,4,4,5,5,,,,,,,,,,,173.3188,173.8199,174.0704,175.9907,space,1.9143,,175.9908,25,20,176.9925,176.9925,177.5075,space,0.5108,,0,12,12,12,1,150,105,,,,,,,,
,,653178c7d58b18168deb79bd,65af66c3ba3c4b3e69317330,2024-01-23_21h39.59.872,bars,2023.2.3,Win32,144.9275362,657b66ea316d21385b68909f,,,,,,,,,,,177.5078,178.5093,,,179.0102,179.2605,,97,97,,,,,,,,,,,,,,,,bars/039.png,bars/mask004.png,,,,,,,,,,,,2,2,,,,,,,2,2,0,3,,,,,,,,,,,178.5093,179.0102,179.2606,182.1829,space,2.9156,,182.1829,78,8,183.1845,183.1845,183.7064,space,0.5105,,0,13,13,13,1,175,105,,,,,,,,
,,653178c7d58b18168deb79bd,65af66c3ba3c4b3e69317330,2024-01-23_21h39.59.872,bars,2023.2.3,Win32,144.9275362,657b66ea316d21385b68909f,,,,,,,,,,,183.7067,184.7082,,,185.2093,185.4599,,175,-5,,,,,,,,,,,,,,,,bars/039.png,bars/mask006.png,,,,,,,,,,,,5,1,,,,,,,4,4,5,4,,,,,,,,,,,184.7083,185.2093,185.4599,187.1087,space,1.6441,,187.1088,0,70,188.1037,188.1037,188.3959,space,0.2788,,0,14,14,14,1,175,105,,,,,,,,
,,653178c7d58b18168deb79bd,65af66c3ba3c4b3e69317330,2024-01-23_21h39.59.872,bars,2023.2.3,Win32,144.9275362,657b66ea316d21385b68909f,,,,,,,,,,,188.3961,189.3986,,,189.8987,190.1491,,87,87,,,,,,,,,,,,,,,,bars/022.png,bars/mask002.png,,,,,,,,,,,,1,1,,,,,,,2,6,1,7,,,,,,,,,,,189.3986,189.8987,190.1491,191.603,space,1.4516,,191.6031,8,67,192.5988,192.5989,193.12,space,0.5094,,0,15,15,15,1,95,20,,,,,,,,
,,653178c7d58b18168deb79bd,65af66c3ba3c4b3e69317330,2024-01-23_21h39.59.872,bars,2023.2.3,Win32,144.9275362,657b66ea316d21385b68909f,,,,,,,,,,,193.1202,194.1218,,,194.6227,194.8739,,129,129,,,,,,,,,,,,,,,,bars/000.png,bars/mask006.png,,,,,,,,,,,,2,2,,,,,,,4,4,2,5,,,,,,,,,,,194.1219,194.6226,194.874,195.5772,space,0.6962,,195.5773,89,16,196.5777,196.5778,197.1278,space,0.5376,,0,16,16,16,1,40,145,,,,,,,,
,,653178c7d58b18168deb79bd,65af66c3ba3c4b3e69317330,2024-01-23_21h39.59.872,bars,2023.2.3,Win32,144.9275362,657b66ea316d21385b68909f,,,,,,,,,,,197.1281,198.1294,,,198.6302,198.8813,,3,3,,,,,,,,,,,,,,,,bars/032.png,bars/mask005.png,,,,,,,,,,,,1,2,,,,,,,6,2,5,2,,,,,,,,,,,198.1294,198.6302,198.8814,200.7465,space,1.858,,200.7466,58,17,201.7472,201.7472,202.0883,space,0.3248,,0,17,17,17,1,125,20,,,,,,,,
,,653178c7d58b18168deb79bd,65af66c3ba3c4b3e69317330,2024-01-23_21h39.59.872,bars,2023.2.3,Win32,144.9275362,657b66ea316d21385b68909f,,,,,,,,,,,202.0885,203.0907,,,203.5909,203.8414,,14,14,,,,,,,,,,,,,,,,bars/012.png,bars/mask009.png,,,,,,,,,,,,3,2,,,,,,,8,4,7,3,,,,,,,,,,,203.0908,203.5909,203.8414,204.392,space,0.5494,,204.3921,76,1,205.3937,205.3937,205.8033,space,0.4011,,0,18,18,18,1,90,15,,,,,,,,
,,653178c7d58b18168deb79bd,65af66c3ba3c4b3e69317330,2024-01-23_21h39.59.872,bars,2023.2.3,Win32,144.9275362,657b66ea316d21385b68909f,,,,,,,,,,,205.8037,206.7994,,,207.2993,207.5505,,90,90,,,,,,,,,,,,,,,,bars/027.png,bars/mask003.png,,,,,,,,,,,,2,1,,,,,,,6,2,5,3,,,,,,,,,,,206.7994,207.2993,207.5505,209.9026,space,2.3452,,209.9026,20,40,210.903,210.9031,211.3419,space,0.4272,,0,19,19,19,1,110,50,,,,,,,,
,,653178c7d58b18168deb79bd,65af66c3ba3c4b3e69317330,2024-01-23_21h39.59.872,bars,2023.2.3,Win32,144.9275362,657b66ea316d21385b68909f,,,,,,,,,,,211.3421,212.3437,,,212.8445,213.0949,,27,27,,,,,,,,,,,,,,,,bars/039.png,bars/mask004.png,,,,,,,,,,,,0,1,,,,,,,8,4,8,2,,,,,,,,,,,212.3437,212.8444,213.0949,214.87,space,1.7739,,214.87,32,78,215.8709,215.8711,216.3161,space,0.4281,,0,20,20,20,1,175,105,,,,,,,,
,,653178c7d58b18168deb79bd,65af66c3ba3c4b3e69317330,2024-01-23_21h39.59.872,bars,2023.2.3,Win32,144.9275362,657b66ea316d21385b68909f,,,,,,,,,,,216.3164,217.3179,,,217.8189,218.0694,,107,-73,,,,,,,,,,,,,,,,bars/008.png,bars/mask005.png,,,,,,,,,,,,5,1,,,,,,,6,6,5,6,,,,,,,,,,,217.3179,217.8189,218.0694,221.9863,space,3.9143,,221.9863,3,73,222.9814,222.9815,223.9418,space,0.9462,,0,21,21,21,1,110,0,,,,,,,,
,,653178c7d58b18168deb79bd,65af66c3ba3c4b3e69317330,2024-01-23_21h39.59.872,bars,2023.2.3,Win32,144.9275362,657b66ea316d21385b68909f,,,,,,,,,,,223.9422,224.9434,,,225.4444,225.6947,,158,158,,,,,,,,,,,,,,,,bars/000.png,bars/mask001.png,,,,,,,,,,,,2,2,,,,,,,8,4,9,4,,,,,,,,,,,224.9434,225.4444,225.6947,226.2861,space,0.5853,,226.2861,62,13,227.281,227.281,227.8586,space,0.5714,,0,22,22,22,1,40,145,,,,,,,,
,,653178c7d58b18168deb79bd,65af66c3ba3c4b3e69317330,2024-01-23_21h39.59.872,bars,2023.2.3,Win32,144.9275362,657b66ea316d21385b68909f,,,,,,,,,,,227.8589,228.8611,,,229.3614,229.6127,,74,74,,,,,,,,,,,,,,,,bars/028.png,bars/mask002.png,,,,,,,,,,,,0,1,,,,,,,10,2,10,2,,,,,,,,,,,228.8611,229.3613,229.6127,231.9439,space,2.3243,,231.9439,29,46,232.9444,232.9444,233.2506,space,0.2967,,0,23,23,23,1,45,120,,,,,,,,
,,653178c7d58b18168deb79bd,65af66c3ba3c4b3e69317330,2024-01-23_21h39.59.872,bars,2023.2.3,Win32,144.9275362,657b66ea316d21385b68909f,,,,,,,,,,,233.251,234.2524,,,234.7533,235.004,,164,164,,,,,,,,,,,,,,,,bars/020.png,bars/mask009.png,,,,,,,,,,,,5,2,,,,,,,10,4,10,6,,,,,,,,,,,234.2524,234.7533,235.0041,237.1747,space,2.1582,,237.1747,49,6,238.1765,238.1765,238.6357,space,0.4448,,0,24,24,24,1,115,170,,,,,,,,
,,653178c7d58b18168deb79bd,65af66c3ba3c4b3e69317330,2024-01-23_21h39.59.872,bars,2023.2.3,Win32,144.9275362,657b66ea316d21385b68909f,,,,,,,,,,,238.6361,239.6383,,,240.1394,240.3892,,126,126,,,,,,,,,,,,,,,,bars/007.png,bars/mask009.png,,,,,,,,,,,,0,1,,,,,,,10,6,9,7,,,,,,,,,,,239.6384,240.1394,240.3892,240.8899,space,0.4932,,240.8899,49,71,241.8847,241.885,242.5738,space,0.6777,,0,25,25,25,1,175,55,,,,,,,,
,,653178c7d58b18168deb79bd,65af66c3ba3c4b3e69317330,2024-01-23_21h39.59.872,bars,2023.2.3,Win32,144.9275362,657b66ea316d21385b68909f,,,,,,,,,,,242.5741,243.5763,,,244.0772,244.3282,,67,67,,,,,,,,,,,,,,,,bars/035.png,bars/mask005.png,,,,,,,,,,,,6,2,,,,,,,10,8,10,8,,,,,,,,,,,243.5763,244.0772,244.3282,247.9031,space,3.5638,,247.9032,72,7,248.8987,248.8987,249.4278,space,0.5168,,0,26,26,26,1,175,60,,,,,,,,
,,653178c7d58b18168deb79bd,65af66c3ba3c4b3e69317330,2024-01-23_21h39.59.872,bars,2023.2.3,Win32,144.9275362,657b66ea316d21385b68909f,,,,,,,,,,,249.4281,250.4294,,,250.9297,251.18,,108,108,,,,,,,,,,,,,,,,bars/037.png,bars/mask008.png,,,,,,,,,,,,9,2,,,,,,,10,10,10,10,,,,,,,,,,,250.4294,250.9297,251.18,251.7713,space,0.5822,,251.7713,42,3,252.7663,252.7664,253.5256,space,0.7516,,0,27,27,27,1,150,105,,,,,,,,
,,653178c7d58b18168deb79bd,65af66c3ba3c4b3e69317330,2024-01-23_21h39.59.872,bars,2023.2.3,Win32,144.9275362,657b66ea316d21385b68909f,,,,,,,,,,,253.5258,254.5265,,,255.0273,255.278,,69,-111,,,,,,,,,,,,,,,,bars/027.png,bars/mask009.png,,,,,,,,,,,,3,2,,,,,,,10,8,10,8,,,,,,,,,,,254.5265,255.0273,255.278,259.9892,space,4.7037,,259.9892,41,19,260.99,260.99,261.4354,space,0.433,,0,28,28,28,1,110,50,,,,,,,,
,,653178c7d58b18168deb79bd,65af66c3ba3c4b3e69317330,2024-01-23_21h39.59.872,bars,2023.2.3,Win32,144.9275362,657b66ea316d21385b68909f,,,,,,,,,,,261.4356,262.4371,,,262.9388,263.1885,,79,79,,,,,,,,,,,,,,,,bars/034.png,bars/mask000.png,,,,,,,,,,,,5,2,,,,,,,8,10,8,10,,,,,,,,,,,262.4373,262.9388,263.1889,265.6305,space,2.4289,,265.6305,46,14,266.6265,266.6265,267.2935,space,0.652,,0,29,29,29,1,125,65,,,,,,,,
,,653178c7d58b18168deb79bd,65af66c3ba3c4b3e69317330,2024-01-23_21h39.59.872,bars,2023.2.3,Win32,144.9275362,657b66ea316d21385b68909f,,,,,,,,,,,267.2939,268.2953,,,268.797,269.0468,,57,57,,,,,,,,,,,,,,,,bars/025.png,bars/mask007.png,,,,,,,,,,,,4,2,,,,,,,6,10,7,10,,,,,,,,,,,268.2953,268.797,269.0468,270.9055,space,1.8511,,270.9055,48,17,271.9064,271.9064,272.3032,space,0.373,,0,30,30,30,1,105,40,,,,,,,,
,,653178c7d58b18168deb79bd,65af66c3ba3c4b3e69317330,2024-01-23_21h39.59.872,bars,2023.2.3,Win32,144.9275362,657b66ea316d21385b68909f,,,,,,,,,,,272.3034,273.3046,,,273.8056,274.0562,,91,91,,,,,,,,,,,,,,,,bars/011.png,bars/mask009.png,,,,,,,,,,,,8,2,,,,,,,4,10,3,10,,,,,,,,,,,273.3049,273.8056,274.0562,275.6641,space,1.6004,,275.6641,69,6,276.6652,276.6652,277.181,space,0.5081,,0,31,31,31,1,160,85,,,,,,,,
,,653178c7d58b18168deb79bd,65af66c3ba3c4b3e69317330,2024-01-23_21h39.59.872,bars,2023.2.3,Win32,144.9275362,657b66ea316d21385b68909f,,,,,,,,,,,277.1813,278.1819,,,278.6829,278.9341,,138,-42,,,,,,,,,,,,,,,,bars/004.png,bars/mask006.png,,,,,,,,,,,,6,2,,,,,,,6,10,7,10,,,,,,,,,,,278.1819,278.6829,278.9341,282.0444,space,3.1034,,282.0444,67,13,283.045,283.0452,283.7202,space,0.6589,,0,32,32,32,1,25,125,,,,,,,,
,,653178c7d58b18168deb79bd,65af66c3ba3c4b3e69317330,2024-01-23_21h39.59.872,bars,2023.2.3,Win32,144.9275362,657b66ea316d21385b68909f,,,,,,,,,,,283.7205,284.7228,,,285.2229,285.4741,,89,89,,,,,,,,,,,,,,,,bars/039.png,bars/mask003.png,,,,,,,,,,,,4,2,,,,,,,4,10,3,9,,,,,,,,,,,284.7228,285.2229,285.4741,289.0774,space,3.5924,,289.0774,86,16,290.08,290.0801,290.8598,space,0.7693,,0,33,33,33,1,175,105,,,,,,,,
,,653178c7d58b18168deb79bd,65af66c3ba3c4b3e69317330,2024-01-23_21h39.59.872,bars,2023.2.3,Win32,144.9275362,657b66ea316d21385b68909f,,,,,,,,,,,290.8601,291.8603,,,292.3615,292.612,,6,6,,,,,,,,,,,,,,,,bars/036.png,bars/mask000.png,,,,,,,,,,,,4,2,,,,,,,6,8,8,8,,,,,,,,,,,291.8603,292.3614,292.612,294.7335,space,2.1097,,294.7336,41,14,295.7285,295.7285,296.3757,space,0.632,,0,34,34,34,1,145,20,,,,,,,,
,,653178c7d58b18168deb79bd,65af66c3ba3c4b3e69317330,2024-01-23_21h39.59.872,bars,2023.2.3,Win32,144.9275362,657b66ea316d21385b68909f,,,,,,,,,,,296.376,297.3775,,,297.8784,298.1289,,85,85,,,,,,,,,,,,,,,,bars/026.png,bars/mask004.png,,,,,,,,,,,,6,2,,,,,,,4,6,4,6,,,,,,,,,,,297.3775,297.8784,298.1289,299.3051,space,1.1691,,299.3051,50,0,300.3066,300.3066,300.6963,space,0.3817,,0,35,35,35,1,35,85,,,,,,,,
,,653178c7d58b18168deb79bd,65af66c3ba3c4b3e69317330,2024-01-23_21h39.59.872,bars,2023.2.3,Win32,144.9275362,657b66ea316d21385b68909f,,,,,,,,,,,300.6966,301.698,,,302.1992,302.4495,,157,-23,,,,,,,,,,,,,,,,bars/003.png,bars/mask003.png,,,,,,,,,,,,2,2,,,,,,,2,4,1,4,,,,,,,,,,,301.698,302.1991,302.4496,304.37,space,1.9184,,304.37,48,17,305.3716,305.3716,305.6639,space,0.2836,,0,36,36,36,1,25,140,,,,,,,,
,,653178c7d58b18168deb79bd,65af66c3ba3c4b3e69317330,2024-01-23_21h39.59.872,bars,2023.2.3,Win32,144.9275362,657b66ea316d21385b68909f,,,,,,,,,,,305.6643,306.6657,,,307.1667,307.4171,,90,270,,,,,,,,,,,,,,,,bars/041.png,bars/mask003.png,,,,,,,,,,,,0,2,,,,,,,0,2,1,0,,,,,,,,,,,306.6658,307.1666,307.4171,311.7793,space,4.358,,311.7793,70,5,312.7744,312.7744,313.1222,space,0.3364,,0,37,37,37,1,20,85,,,,,,,,
,,653178c7d58b18168deb79bd,65af66c3ba3c4b3e69317330,2024-01-23_21h39.59.872,bars,2023.2.3,Win32,144.9275362,657b66ea316d21385b68909f,,,,,,,,,,,313.1224,314.124,,,314.6251,314.8754,,80,80,,,,,,,,,,,,,,,,bars/041.png,bars/mask005.png,,,,,,,,,,,,1,2,,,,,,,2,0,2,1,,,,,,,,,,,314.124,314.625,314.8755,318.0481,space,3.1652,,318.0482,60,5,319.0431,319.0431,319.5301,space,0.4696,,0,38,38,38,1,20,85,,,,,,,,
,,653178c7d58b18168deb79bd,65af66c3ba3c4b3e69317330,2024-01-23_21h39.59.872,bars,2023.2.3,Win32,144.9275362,657b66ea316d21385b68909f,,,,,,,,,,,319.5304,320.532,,,321.033,321.2834,,179,179,,,,,,,,,,,,,,,,bars/032.png,bars/mask007.png,,,,,,,,,,,,1,2,,,,,,,4,2,5,2,,,,,,,,,,,320.532,321.0329,321.2834,324.8873,space,3.5969,,324.8873,54,21,325.8892,325.8892,326.3135,space,0.4132,,0,39,39,39,1,125,20,,,,,,,,
,,653178c7d58b18168deb79bd,65af66c3ba3c4b3e69317330,2024-01-23_21h39.59.872,bars,2023.2.3,Win32,144.9275362,657b66ea316d21385b68909f,,,,,,,,,,,326.3138,327.3153,,,327.8164,328.0669,,89,89,,,,,,,,,,,,,,,,bars/001.png,bars/mask000.png,,,,,,,,,,,,1,2,,,,,,,6,0,7,1,,,,,,,,,,,327.3153,327.8164,328.0669,329.3679,space,1.2936,,329.3679,41,4,330.3628,330.3629,330.6689,space,0.299,,0,40,40,40,1,130,85,,,,,,,,
,,653178c7d58b18168deb79bd,65af66c3ba3c4b3e69317330,2024-01-23_21h39.59.872,bars,2023.2.3,Win32,144.9275362,657b66ea316d21385b68909f,,,,,,,,,,,330.6692,331.6708,,,332.1716,332.4223,,175,175,,,,,,,,,,,,,,,,bars/020.png,bars/mask007.png,,,,,,,,,,,,2,2,,,,,,,4,2,4,2,,,,,,,,,,,331.6708,332.1715,332.4223,334.1476,space,1.7217,,334.1476,60,5,335.1426,335.1427,335.5253,space,0.3754,,0,41,41,41,1,115,170,,,,,,,,
,,653178c7d58b18168deb79bd,65af66c3ba3c4b3e69317330,2024-01-23_21h39.59.872,bars,2023.2.3,Win32,144.9275362,657b66ea316d21385b68909f,,,,,,,,,,,335.5256,336.5271,,,337.028,337.2784,,108,108,,,,,,,,,,,,,,,,bars/028.png,bars/mask003.png,,,,,,,,,,,,2,2,,,,,,,2,4,1,3,,,,,,,,,,,336.5271,337.028,337.2784,341.2374,space,3.9533,,341.2375,63,12,342.239,342.239,342.8027,space,0.5521,,0,42,42,42,1,45,120,,,,,,,,
,,653178c7d58b18168deb79bd,65af66c3ba3c4b3e69317330,2024-01-23_21h39.59.872,bars,2023.2.3,Win32,144.9275362,657b66ea316d21385b68909f,,,,,,,,,,,342.8029,343.8045,,,344.3055,344.5559,,130,130,,,,,,,,,,,,,,,,bars/049.png,bars/mask000.png,,,,,,,,,,,,1,2,,,,,,,0,2,1,1,,,,,,,,,,,343.8045,344.3055,344.5559,346.7348,space,2.1772,,346.7349,30,15,347.7362,347.7362,348.4384,space,0.6883,,0,43,43,43,1,160,115,,,,,,,,
,,653178c7d58b18168deb79bd,65af66c3ba3c4b3e69317330,2024-01-23_21h39.59.872,bars,2023.2.3,Win32,144.9275362,657b66ea316d21385b68909f,,,,,,,,,,,348.4387,349.4342,,,349.9352,350.1848,,161,-19,,,,,,,,,,,,,,,,bars/015.png,bars/mask000.png,,,,,,,,,,,,4,2,,,,,,,0,4,0,4,,,,,,,,,,,349.4342,349.9352,350.1848,352.7105,space,2.5134,,352.7105,51,1,353.7057,353.7057,354.2063,space,0.4836,,0,44,44,44,1,110,160,,,,,,,,
,,653178c7d58b18168deb79bd,65af66c3ba3c4b3e69317330,2024-01-23_21h39.59.872,bars,2023.2.3,Win32,144.9275362,657b66ea316d21385b68909f,,,,,,,,,,,354.2064,355.208,,,355.7095,355.9593,,176,-4,,,,,,,,,,,,,,,,bars/014.png,bars/mask006.png,,,,,,,,,,,,8,2,,,,,,,0,6,0,9,,,,,,,,,,,355.208,355.7095,355.9593,359.3697,space,3.402,,359.3698,84,4,360.3703,360.3704,360.7879,space,0.4039,,0,45,45,45,1,80,0,,,,,,,,
,,653178c7d58b18168deb79bd,65af66c3ba3c4b3e69317330,2024-01-23_21h39.59.872,bars,2023.2.3,Win32,144.9275362,657b66ea316d21385b68909f,,,,,,,,,,,360.7881,361.7897,,,362.2849,362.534,,166,166,,,,,,,,,,,,,,,,bars/024.png,bars/mask004.png,,,,,,,,,,,,3,2,,,,,,,2,4,2,3,,,,,,,,,,,361.7897,362.2849,362.534,365.3599,space,2.8183,,365.3599,46,4,366.3615,366.3615,367.0913,space,0.7182,,0,46,46,46,1,120,170,,,,,,,,
,,653178c7d58b18168deb79bd,65af66c3ba3c4b3e69317330,2024-01-23_21h39.59.872,bars,2023.2.3,Win32,144.9275362,657b66ea316d21385b68909f,,,,,,,,,,,367.0916,368.087,,,368.5872,368.8375,,51,231,,,,,,,,,,,,,,,,bars/047.png,bars/mask002.png,,,,,,,,,,,,1,2,,,,,,,0,2,1,2,,,,,,,,,,,368.0871,368.5872,368.8375,371.6775,space,2.8387,,371.6775,36,19,372.6788,372.6788,373.2345,space,0.5426,,0,47,47,47,1,15,70,,,,,,,,
,,653178c7d58b18168deb79bd,65af66c3ba3c4b3e69317330,2024-01-23_21h39.59.872,bars,2023.2.3,Win32,144.9275362,657b66ea316d21385b68909f,,,,,,,,,,,373.2348,374.2374,,,374.7376,374.9879,,169,169,,,,,,,,,,,,,,,,bars/000.png,bars/mask006.png,,,,,,,,,,,,1,2,,,,,,,0,4,2,5,,,,,,,,,,,374.2375,374.7376,374.9879,377.7085,space,2.7162,,377.7086,51,24,378.7103,378.7103,379.4768,space,0.7541,,0,48,48,48,1,40,145,,,,,,,,
,,653178c7d58b18168deb79bd,65af66c3ba3c4b3e69317330,2024-01-23_21h39.59.872,bars,2023.2.3,Win32,144.9275362,657b66ea316d21385b68909f,,,,,,,,,,,379.477,380.4774,,,380.9783,381.2289,,76,76,,,,,,,,,,,,,,,,bars/025.png,bars/mask008.png,,,,,,,,,,,,0,1,,,,,,,2,2,1,3,,,,,,,,,,,380.4775,380.9783,381.2289,383.8112,space,2.5746,,383.8112,29,36,384.8125,384.8125,385.6061,space,0.7831,,0,49,49,49,1,105,40,,,,,,,,
,,653178c7d58b18168deb79bd,65af66c3ba3c4b3e69317330,2024-01-23_21h39.59.872,bars,2023.2.3,Win32,144.9275362,657b66ea316d21385b68909f,,,,,,,,,,,,,,,,,,,,,,,,,,,,,,,,,,,,,,,,,,,,,,,,,,,,,,,,,,,,,,,,,,,,,,,,,,,,,,,,,,,,,,,,,,,,,385.6067,445.6065,0,0,0,4,1,sequence_tables/blk016.csv
,,653178c7d58b18168deb79bd,65af66c3ba3c4b3e69317330,2024-01-23_21h39.59.872,bars,2023.2.3,Win32,144.9275362,657b66ea316d21385b68909f,,,,,,,,,,,446.4587,447.4568,,,447.9578,448.2084,,90,90,,,,,,,,,,,,,,,,bars/019.png,bars/mask001.png,,,,,,,,,,,,4,2,,,,,,,7,6,8,7,,,,,,445.6143,446.4552,space,0.8337,,447.4568,447.9578,448.2084,451.0539,space,2.8391,,451.054,45,15,452.0489,452.0489,452.0577,,,,0,0,0,0,1,45,105,,,,,,,,
,,653178c7d58b18168deb79bd,65af66c3ba3c4b3e69317330,2024-01-23_21h39.59.872,bars,2023.2.3,Win32,144.9275362,657b66ea316d21385b68909f,,,,,,,,,,,452.0578,453.0576,,,453.5587,453.8091,,106,106,,,,,,,,,,,,,,,,bars/023.png,bars/mask009.png,,,,,,,,,,,,2,2,,,,,,,5,4,7,3,,,,,,,,,,,453.0576,453.5586,453.8092,455.9658,space,2.15,,455.9658,86,9,456.9718,456.9718,456.9812,,,,0,1,1,1,1,20,115,,,,,,,,
,,653178c7d58b18168deb79bd,65af66c3ba3c4b3e69317330,2024-01-23_21h39.59.872,bars,2023.2.3,Win32,144.9275362,657b66ea316d21385b68909f,,,,,,,,,,,456.9813,457.9764,,,458.4775,458.7279,,86,86,,,,,,,,,,,,,,,,bars/021.png,bars/mask000.png,,,,,,,,,,,,1,2,,,,,,,3,2,2,2,,,,,,,,,,,457.9764,458.4774,458.728,461.8099,space,3.0798,,461.81,69,16,462.8049,462.8049,462.8122,,,,0,2,2,2,1,155,70,,,,,,,,
,,653178c7d58b18168deb79bd,65af66c3ba3c4b3e69317330,2024-01-23_21h39.59.872,bars,2023.2.3,Win32,144.9275362,657b66ea316d21385b68909f,,,,,,,,,,,462.8124,463.8138,,,464.3149,464.5652,,165,165,,,,,,,,,,,,,,,,bars/044.png,bars/mask009.png,,,,,,,,,,,,0,2,,,,,,,1,0,0,0,,,,,,,,,,,463.8138,464.3149,464.5654,465.0802,space,0.5071,,465.0802,90,10,466.0752,466.0752,466.0758,,,,0,3,3,3,1,75,155,,,,,,,,
,,653178c7d58b18168deb79bd,65af66c3ba3c4b3e69317330,2024-01-23_21h39.59.872,bars,2023.2.3,Win32,144.9275362,657b66ea316d21385b68909f,,,,,,,,,,,466.076,467.0768,,,467.5779,467.8281,,140,140,,,,,,,,,,,,,,,,bars/046.png,bars/mask000.png,,,,,,,,,,,,2,1,,,,,,,3,0,4,0,,,,,,,,,,,467.0768,467.5779,467.8281,468.1901,space,0.356,,468.1902,15,55,469.192,469.192,469.1933,,,,0,4,4,4,1,155,85,,,,,,,,
,,653178c7d58b18168deb79bd,65af66c3ba3c4b3e69317330,2024-01-23_21h39.59.872,bars,2023.2.3,Win32,144.9275362,657b66ea316d21385b68909f,,,,,,,,,,,469.1934,470.1938,,,470.6949,470.9452,,149,149,,,,,,,,,,,,,,,,bars/036.png,bars/mask006.png,,,,,,,,,,,,2,1,,,,,,,1,2,2,1,,,,,,,,,,,470.1938,470.6949,470.9452,474.2223,space,3.271,,474.2223,4,51,475.224,475.224,475.2327,,,,0,5,5,5,1,145,20,,,,,,,,
,,653178c7d58b18168deb79bd,65af66c3ba3c4b3e69317330,2024-01-23_21h39.59.872,bars,2023.2.3,Win32,144.9275362,657b66ea316d21385b68909f,,,,,,,,,,,475.2328,476.2329,,,476.7338,476.9843,,74,74,,,,,,,,,,,,,,,,bars/038.png,bars/mask008.png,,,,,,,,,,,,4,2,,,,,,,0,4,0,5,,,,,,,,,,,476.2329,476.7337,476.9843,479.8228,space,2.8323,,479.8228,89,4,480.8178,480.8178,480.8265,,,,0,6,6,6,1,165,70,,,,,,,,
,,653178c7d58b18168deb79bd,65af66c3ba3c4b3e69317330,2024-01-23_21h39.59.872,bars,2023.2.3,Win32,144.9275362,657b66ea316d21385b68909f,,,,,,,,,,,480.8267,481.8268,,,482.3277,482.5781,,98,98,,,,,,,,,,,,,,,,bars/041.png,bars/mask006.png,,,,,,,,,,,,3,2,,,,,,,2,6,1,5,,,,,,,,,,,481.8268,482.3277,482.5781,485.9872,space,3.406,,485.9872,78,13,486.982,486.982,486.9897,,,,0,7,7,7,1,20,85,,,,,,,,
,,653178c7d58b18168deb79bd,65af66c3ba3c4b3e69317330,2024-01-23_21h39.59.872,bars,2023.2.3,Win32,144.9275362,657b66ea316d21385b68909f,,,,,,,,,,,486.9898,487.991,,,488.4919,488.7424,,94,94,,,,,,,,,,,,,,,,bars/041.png,bars/mask006.png,,,,,,,,,,,,1,2,,,,,,,4,4,3,2,,,,,,,,,,,487.991,488.4919,488.7425,491.7133,space,2.9695,,491.7133,74,9,492.715,492.715,492.7225,,,,0,8,8,8,1,20,85,,,,,,,,
,,653178c7d58b18168deb79bd,65af66c3ba3c4b3e69317330,2024-01-23_21h39.59.872,bars,2023.2.3,Win32,144.9275362,657b66ea316d21385b68909f,,,,,,,,,,,492.7227,493.724,,,494.2248,494.4754,,38,38,,,,,,,,,,,,,,,,bars/043.png,bars/mask006.png,,,,,,,,,,,,1,1,,,,,,,2,2,2,1,,,,,,,,,,,493.724,494.2248,494.4754,496.4025,space,1.9247,,496.4025,8,88,497.3976,497.3976,497.3989,,,,0,9,9,9,1,30,130,,,,,,,,
,,653178c7d58b18168deb79bd,65af66c3ba3c4b3e69317330,2024-01-23_21h39.59.872,bars,2023.2.3,Win32,144.9275362,657b66ea316d21385b68909f,,,,,,,,,,,497.3991,498.3994,,,498.9003,499.1508,,60,60,,,,,,,,,,,,,,,,bars/006.png,bars/mask006.png,,,,,,,,,,,,0,1,,,,,,,0,4,0,3,,,,,,,,,,,498.3994,498.9002,499.1508,499.4848,space,0.3293,,499.4848,25,40,500.4796,500.4797,500.4801,,,,0,10,10,10,1,35,100,,,,,,,,
,,653178c7d58b18168deb79bd,65af66c3ba3c4b3e69317330,2024-01-23_21h39.59.872,bars,2023.2.3,Win32,144.9275362,657b66ea316d21385b68909f,,,,,,,,,,,500.4803,501.4817,,,501.9825,502.233,,129,129,,,,,,,,,,,,,,,,bars/049.png,bars/mask004.png,,,,,,,,,,,,3,2,,,,,,,0,6,1,6,,,,,,,,,,,501.4817,501.9824,502.233,502.8034,space,0.5669,,502.8034,31,14,503.7983,503.7983,503.7994,,,,0,11,11,11,1,160,115,,,,,,,,
,,653178c7d58b18168deb79bd,65af66c3ba3c4b3e69317330,2024-01-23_21h39.59.872,bars,2023.2.3,Win32,144.9275362,657b66ea316d21385b68909f,,,,,,,,,,,503.7997,504.8003,,,505.3014,505.5516,,0,0,,,,,,,,,,,,,,,,bars/016.png,bars/mask009.png,,,,,,,,,,,,2,2,,,,,,,0,4,2,3,,,,,,,,,,,504.8003,505.3013,505.5516,506.1222,space,0.5681,,506.1222,40,15,507.1171,507.1171,507.1175,,,,0,12,12,12,1,40,165,,,,,,,,
,,653178c7d58b18168deb79bd,65af66c3ba3c4b3e69317330,2024-01-23_21h39.59.872,bars,2023.2.3,Win32,144.9275362,657b66ea316d21385b68909f,,,,,,,,,,,507.1176,508.119,,,508.62,508.8704,,97,97,,,,,,,,,,,,,,,,bars/018.png,bars/mask009.png,,,,,,,,,,,,4,2,,,,,,,0,6,0,5,,,,,,,,,,,508.119,508.62,508.8705,512.1821,space,3.3058,,512.1822,53,7,513.1839,513.184,513.193,,,,0,13,13,13,1,150,90,,,,,,,,
,,653178c7d58b18168deb79bd,65af66c3ba3c4b3e69317330,2024-01-23_21h39.59.872,bars,2023.2.3,Win32,144.9275362,657b66ea316d21385b68909f,,,,,,,,,,,513.1932,514.1929,,,514.6938,514.9442,,1,1,,,,,,,,,,,,,,,,bars/048.png,bars/mask007.png,,,,,,,,,,,,6,2,,,,,,,2,8,1,8,,,,,,,,,,,514.193,514.6938,514.9442,517.8803,space,2.9291,,517.8804,49,6,518.882,518.8821,518.8892,,,,0,14,14,14,1,50,175,,,,,,,,
,,653178c7d58b18168deb79bd,65af66c3ba3c4b3e69317330,2024-01-23_21h39.59.872,bars,2023.2.3,Win32,144.9275362,657b66ea316d21385b68909f,,,,,,,,,,,518.8894,519.8842,,,520.3849,520.6355,,165,165,,,,,,,,,,,,,,,,bars/003.png,bars/mask000.png,,,,,,,,,,,,1,2,,,,,,,0,6,1,5,,,,,,,,,,,519.8843,520.3849,520.6355,521.2338,space,0.5959,,521.2338,40,25,522.2286,522.2287,522.2293,,,,0,15,15,15,1,25,140,,,,,,,,
,,653178c7d58b18168deb79bd,65af66c3ba3c4b3e69317330,2024-01-23_21h39.59.872,bars,2023.2.3,Win32,144.9275362,657b66ea316d21385b68909f,,,,,,,,,,,522.2295,523.2306,,,523.7314,523.982,,96,96,,,,,,,,,,,,,,,,bars/028.png,bars/mask003.png,,,,,,,,,,,,2,2,,,,,,,0,8,1,9,,,,,,,,,,,523.2306,523.7314,523.982,527.565,space,3.5783,,527.5651,51,24,528.5668,528.5668,528.5751,,,,0,16,16,16,1,45,120,,,,,,,,
,,653178c7d58b18168deb79bd,65af66c3ba3c4b3e69317330,2024-01-23_21h39.59.872,bars,2023.2.3,Win32,144.9275362,657b66ea316d21385b68909f,,,,,,,,,,,528.5752,529.5756,,,530.0767,530.3271,,86,86,,,,,,,,,,,,,,,,bars/028.png,bars/mask006.png,,,,,,,,,,,,0,2,,,,,,,2,10,1,10,,,,,,,,,,,529.5757,530.0767,530.3271,530.8351,space,0.5042,,530.8351,41,34,531.8369,531.8369,531.8372,,,,0,17,17,17,1,45,120,,,,,,,,
,,653178c7d58b18168deb79bd,65af66c3ba3c4b3e69317330,2024-01-23_21h39.59.872,bars,2023.2.3,Win32,144.9275362,657b66ea316d21385b68909f,,,,,,,,,,,531.8373,532.8389,,,533.3398,533.5902,,179,179,,,,,,,,,,,,,,,,bars/014.png,bars/mask006.png,,,,,,,,,,,,9,2,,,,,,,4,10,2,9,,,,,,,,,,,532.8389,533.3398,533.5902,534.5991,space,1.002,,534.5991,81,1,535.6009,535.6009,535.6016,,,,0,18,18,18,1,80,0,,,,,,,,
,,653178c7d58b18168deb79bd,65af66c3ba3c4b3e69317330,2024-01-23_21h39.59.872,bars,2023.2.3,Win32,144.9275362,657b66ea316d21385b68909f,,,,,,,,,,,535.6019,536.6027,,,537.1037,537.3542,,73,73,,,,,,,,,,,,,,,,bars/038.png,bars/mask007.png,,,,,,,,,,,,9,2,,,,,,,2,10,3,10,,,,,,,,,,,536.6027,537.1036,537.3543,538.9475,space,1.5889,,538.9475,88,3,539.9424,539.9424,539.9507,,,,0,19,19,19,1,165,70,,,,,,,,
,,653178c7d58b18168deb79bd,65af66c3ba3c4b3e69317330,2024-01-23_21h39.59.872,bars,2023.2.3,Win32,144.9275362,657b66ea316d21385b68909f,,,,,,,,,,,539.9507,540.9511,,,541.452,541.7025,,75,75,,,,,,,,,,,,,,,,bars/025.png,bars/mask008.png,,,,,,,,,,,,0,1,,,,,,,0,8,0,8,,,,,,,,,,,540.9511,541.452,541.7026,543.7481,space,2.0419,,543.7481,30,35,544.743,544.7431,544.7513,,,,0,20,20,20,1,105,40,,,,,,,,
,,653178c7d58b18168deb79bd,65af66c3ba3c4b3e69317330,2024-01-23_21h39.59.872,bars,2023.2.3,Win32,144.9275362,657b66ea316d21385b68909f,,,,,,,,,,,544.7514,545.7517,,,546.2527,546.5034,,77,77,,,,,,,,,,,,,,,,bars/034.png,bars/mask004.png,,,,,,,,,,,,6,2,,,,,,,0,10,3,10,,,,,,,,,,,545.7517,546.2527,546.5034,550.0027,space,3.4961,,550.0028,48,12,550.9978,550.9979,551.0071,,,,0,21,21,21,1,125,65,,,,,,,,
,,653178c7d58b18168deb79bd,65af66c3ba3c4b3e69317330,2024-01-23_21h39.59.872,bars,2023.2.3,Win32,144.9275362,657b66ea316d21385b68909f,,,,,,,,,,,551.0072,552.0067,,,552.5075,552.758,,94,94,,,,,,,,,,,,,,,,bars/001.png,bars/mask003.png,,,,,,,,,,,,6,2,,,,,,,2,10,3,9,,,,,,,,,,,552.0067,552.5075,552.7581,553.252,space,0.4895,,553.252,36,9,554.2469,554.2469,554.2475,,,,0,22,22,22,1,130,85,,,,,,,,
,,653178c7d58b18168deb79bd,65af66c3ba3c4b3e69317330,2024-01-23_21h39.59.872,bars,2023.2.3,Win32,144.9275362,657b66ea316d21385b68909f,,,,,,,,,,,554.2477,555.2488,,,555.7498,556,,54,54,,,,,,,,,,,,,,,,bars/011.png,bars/mask009.png,,,,,,,,,,,,0,2,,,,,,,0,8,0,8,,,,,,,,,,,555.2488,555.7498,556.0001,556.2505,space,0.2474,,556.2506,74,31,557.2524,557.2524,557.253,,,,0,23,23,23,1,160,85,,,,,,,,
,,653178c7d58b18168deb79bd,65af66c3ba3c4b3e69317330,2024-01-23_21h39.59.872,bars,2023.2.3,Win32,144.9275362,657b66ea316d21385b68909f,,,,,,,,,,,557.2532,558.2543,,,558.7553,559.0057,,88,88,,,,,,,,,,,,,,,,bars/022.png,bars/mask007.png,,,,,,,,,,,,1,1,,,,,,,2,10,1,10,,,,,,,,,,,558.2544,558.7553,559.0058,560.9469,space,1.9382,,560.9469,7,68,561.942,561.942,561.9505,,,,0,24,24,24,1,95,20,,,,,,,,
,,653178c7d58b18168deb79bd,65af66c3ba3c4b3e69317330,2024-01-23_21h39.59.872,bars,2023.2.3,Win32,144.9275362,657b66ea316d21385b68909f,,,,,,,,,,,561.9506,562.9507,,,563.4517,563.7021,,57,57,,,,,,,,,,,,,,,,bars/017.png,bars/mask004.png,,,,,,,,,,,,5,2,,,,,,,4,8,3,8,,,,,,,,,,,562.9507,563.4517,563.7022,566.8538,space,3.1454,,566.854,88,12,567.8558,567.8558,567.8648,,,,0,25,25,25,1,145,45,,,,,,,,
,,653178c7d58b18168deb79bd,65af66c3ba3c4b3e69317330,2024-01-23_21h39.59.872,bars,2023.2.3,Win32,144.9275362,657b66ea316d21385b68909f,,,,,,,,,,,567.865,568.8645,,,569.3654,569.6159,,110,110,,,,,,,,,,,,,,,,bars/037.png,bars/mask000.png,,,,,,,,,,,,8,2,,,,,,,6,10,6,9,,,,,,,,,,,568.8645,569.3654,569.6159,572.1763,space,2.5535,,572.1763,40,5,573.1712,573.1713,573.1795,,,,0,26,26,26,1,150,105,,,,,,,,
,,653178c7d58b18168deb79bd,65af66c3ba3c4b3e69317330,2024-01-23_21h39.59.872,bars,2023.2.3,Win32,144.9275362,657b66ea316d21385b68909f,,,,,,,,,,,573.1797,574.1799,,,574.6809,574.9314,,102,102,,,,,,,,,,,,,,,,bars/021.png,bars/mask008.png,,,,,,,,,,,,0,2,,,,,,,4,10,5,10,,,,,,,,,,,574.1799,574.6808,574.9314,578.0762,space,3.1394,,578.0762,53,32,579.078,579.078,579.0875,,,,0,27,27,27,1,155,70,,,,,,,,
,,653178c7d58b18168deb79bd,65af66c3ba3c4b3e69317330,2024-01-23_21h39.59.872,bars,2023.2.3,Win32,144.9275362,657b66ea316d21385b68909f,,,,,,,,,,,579.0877,580.0868,,,580.5878,580.8382,,65,65,,,,,,,,,,,,,,,,bars/044.png,bars/mask003.png,,,,,,,,,,,,5,1,,,,,,,6,10,7,10,,,,,,,,,,,580.0869,580.5878,580.8382,584.5537,space,3.7139,,584.5537,10,90,585.5555,585.5555,585.5631,,,,0,28,28,28,1,75,155,,,,,,,,
,,653178c7d58b18168deb79bd,65af66c3ba3c4b3e69317330,2024-01-23_21h39.59.872,bars,2023.2.3,Win32,144.9275362,657b66ea316d21385b68909f,,,,,,,,,,,585.5632,586.5644,,,587.0653,587.3158,,0,0,,,,,,,,,,,,,,,,bars/036.png,bars/mask007.png,,,,,,,,,,,,3,2,,,,,,,4,10,4,9,,,,,,,,,,,586.5644,587.0653,587.3158,589.8135,space,2.4916,,589.8136,35,20,590.8153,590.8153,590.8243,,,,0,29,29,29,1,145,20,,,,,,,,
,,653178c7d58b18168deb79bd,65af66c3ba3c4b3e69317330,2024-01-23_21h39.59.872,bars,2023.2.3,Win32,144.9275362,657b66ea316d21385b68909f,,,,,,,,,,,590.8245,591.8241,,,592.3252,592.5755,,99,99,,,,,,,,,,,,,,,,bars/034.png,bars/mask008.png,,,,,,,,,,,,1,1,,,,,,,6,8,6,8,,,,,,,,,,,591.8242,592.3251,592.5755,596.0751,space,3.4963,,596.0751,26,34,597.0701,597.0701,597.0783,,,,0,30,30,30,1,125,65,,,,,,,,
,,653178c7d58b18168deb79bd,65af66c3ba3c4b3e69317330,2024-01-23_21h39.59.872,bars,2023.2.3,Win32,144.9275362,657b66ea316d21385b68909f,,,,,,,,,,,597.0785,598.079,,,598.5797,598.8305,,145,145,,,,,,,,,,,,,,,,bars/049.png,bars/mask003.png,,,,,,,,,,,,3,1,,,,,,,4,6,5,6,,,,,,,,,,,598.079,598.5797,598.8305,599.3244,space,0.4887,,599.3245,15,30,600.3262,600.3262,600.3267,,,,0,31,31,31,1,160,115,,,,,,,,
,,653178c7d58b18168deb79bd,65af66c3ba3c4b3e69317330,2024-01-23_21h39.59.872,bars,2023.2.3,Win32,144.9275362,657b66ea316d21385b68909f,,,,,,,,,,,600.3269,601.328,,,601.8289,602.0793,,174,174,,,,,,,,,,,,,,,,bars/031.png,bars/mask008.png,,,,,,,,,,,,0,2,,,,,,,2,8,1,6,,,,,,,,,,,601.3281,601.8289,602.0793,602.5874,space,0.5047,,602.5874,54,41,603.5891,603.5891,603.5905,,,,0,32,32,32,1,120,35,,,,,,,,
,,653178c7d58b18168deb79bd,65af66c3ba3c4b3e69317330,2024-01-23_21h39.59.872,bars,2023.2.3,Win32,144.9275362,657b66ea316d21385b68909f,,,,,,,,,,,603.5907,604.5911,,,605.0921,605.3425,,42,42,,,,,,,,,,,,,,,,bars/023.png,bars/mask005.png,,,,,,,,,,,,0,1,,,,,,,0,6,0,6,,,,,,,,,,,604.5911,605.092,605.3425,607.2423,space,1.8961,,607.2424,22,73,608.2438,608.2438,608.2458,,,,0,33,33,33,1,20,115,,,,,,,,
,,653178c7d58b18168deb79bd,65af66c3ba3c4b3e69317330,2024-01-23_21h39.59.872,bars,2023.2.3,Win32,144.9275362,657b66ea316d21385b68909f,,,,,,,,,,,608.2461,609.2457,,,609.7465,609.9978,,66,66,,,,,,,,,,,,,,,,bars/029.png,bars/mask001.png,,,,,,,,,,,,3,2,,,,,,,2,8,3,9,,,,,,,,,,,609.2457,609.7465,609.9978,613.9987,space,3.994,,613.9987,24,21,614.9997,614.9997,615.0095,,,,0,34,34,34,1,90,45,,,,,,,,
,,653178c7d58b18168deb79bd,65af66c3ba3c4b3e69317330,2024-01-23_21h39.59.872,bars,2023.2.3,Win32,144.9275362,657b66ea316d21385b68909f,,,,,,,,,,,615.0098,616.009,,,616.5091,616.7596,,170,-10,,,,,,,,,,,,,,,,bars/010.png,bars/mask008.png,,,,,,,,,,,,0,1,,,,,,,0,10,0,9,,,,,,,,,,,616.009,616.5091,616.7596,618.1312,space,1.3634,,618.1312,5,65,619.1321,619.1322,619.1338,,,,0,35,35,35,1,165,55,,,,,,,,
,,653178c7d58b18168deb79bd,65af66c3ba3c4b3e69317330,2024-01-23_21h39.59.872,bars,2023.2.3,Win32,144.9275362,657b66ea316d21385b68909f,,,,,,,,,,,619.1341,620.1339,,,620.6351,620.8854,,145,-35,,,,,,,,,,,,,,,,bars/000.png,bars/mask006.png,,,,,,,,,,,,9,2,,,,,,,0,8,0,9,,,,,,,,,,,620.134,620.6351,620.8854,624.3783,space,3.484,,624.3783,75,0,625.3807,625.3808,625.3901,,,,0,36,36,36,1,40,145,,,,,,,,
,,653178c7d58b18168deb79bd,65af66c3ba3c4b3e69317330,2024-01-23_21h39.59.872,bars,2023.2.3,Win32,144.9275362,657b66ea316d21385b68909f,,,,,,,,,,,625.3903,626.3896,,,626.89,627.1402,,98,98,,,,,,,,,,,,,,,,bars/011.png,bars/mask005.png,,,,,,,,,,,,3,2,,,,,,,2,6,3,6,,,,,,,,,,,626.3896,626.89,627.1402,630.46,space,3.3185,,630.46,62,13,631.4607,631.4607,631.4693,,,,0,37,37,37,1,160,85,,,,,,,,
,,653178c7d58b18168deb79bd,65af66c3ba3c4b3e69317330,2024-01-23_21h39.59.872,bars,2023.2.3,Win32,144.9275362,657b66ea316d21385b68909f,,,,,,,,,,,631.4694,632.4696,,,632.9705,633.2219,,175,-5,,,,,,,,,,,,,,,,bars/040.png,bars/mask004.png,,,,,,,,,,,,5,2,,,,,,,4,8,4,7,,,,,,,,,,,632.4696,632.9705,633.222,637.0198,space,3.7886,,637.0199,35,10,638.0149,638.0149,638.0237,,,,0,38,38,38,1,140,5,,,,,,,,
,,653178c7d58b18168deb79bd,65af66c3ba3c4b3e69317330,2024-01-23_21h39.59.872,bars,2023.2.3,Win32,144.9275362,657b66ea316d21385b68909f,,,,,,,,,,,638.0239,639.0235,,,639.5244,639.775,,107,107,,,,,,,,,,,,,,,,bars/004.png,bars/mask005.png,,,,,,,,,,,,2,2,,,,,,,2,6,1,6,,,,,,,,,,,639.0235,639.5244,639.775,642.4048,space,2.6243,,642.4049,82,18,643.3998,643.3999,643.4089,,,,0,39,39,39,1,25,125,,,,,,,,
,,653178c7d58b18168deb79bd,65af66c3ba3c4b3e69317330,2024-01-23_21h39.59.872,bars,2023.2.3,Win32,144.9275362,657b66ea316d21385b68909f,,,,,,,,,,,643.4091,644.4086,,,644.9097,645.1601,,101,101,,,,,,,,,,,,,,,,bars/023.png,bars/mask006.png,,,,,,,,,,,,2,2,,,,,,,0,4,0,3,,,,,,,,,,,644.4087,644.9096,645.1601,645.5359,space,0.3686,,645.5359,81,14,646.5375,646.5376,646.5382,,,,0,40,40,40,1,20,115,,,,,,,,
,,653178c7d58b18168deb79bd,65af66c3ba3c4b3e69317330,2024-01-23_21h39.59.872,bars,2023.2.3,Win32,144.9275362,657b66ea316d21385b68909f,,,,,,,,,,,646.5384,647.5395,,,648.0352,648.2838,,76,76,,,,,,,,,,,,,,,,bars/011.png,bars/mask000.png,,,,,,,,,,,,4,2,,,,,,,2,6,1,5,,,,,,,,,,,647.5395,648.0351,648.2838,652.3334,space,4.044,,652.3334,84,9,653.3351,653.3352,653.3504,,,,0,41,41,41,1,160,85,,,,,,,,
,,653178c7d58b18168deb79bd,65af66c3ba3c4b3e69317330,2024-01-23_21h39.59.872,bars,2023.2.3,Win32,144.9275362,657b66ea316d21385b68909f,,,,,,,,,,,653.3506,654.3508,,,654.8519,655.1021,,67,67,,,,,,,,,,,,,,,,bars/003.png,bars/mask008.png,,,,,,,,,,,,0,1,,,,,,,4,8,4,7,,,,,,,,,,,654.3509,654.8519,655.1021,655.6798,space,0.5707,,655.6798,42,73,656.6815,656.6815,656.6829,,,,0,42,42,42,1,25,140,,,,,,,,
,,653178c7d58b18168deb79bd,65af66c3ba3c4b3e69317330,2024-01-23_21h39.59.872,bars,2023.2.3,Win32,144.9275362,657b66ea316d21385b68909f,,,,,,,,,,,656.6831,657.6834,,,658.1845,658.435,,74,74,,,,,,,,,,,,,,,,bars/006.png,bars/mask001.png,,,,,,,,,,,,1,2,,,,,,,2,6,3,5,,,,,,,,,,,657.6834,658.1845,658.4351,660.877,space,2.4363,,660.8771,39,26,661.8787,661.8787,661.8863,,,,0,43,43,43,1,35,100,,,,,,,,
,,653178c7d58b18168deb79bd,65af66c3ba3c4b3e69317330,2024-01-23_21h39.59.872,bars,2023.2.3,Win32,144.9275362,657b66ea316d21385b68909f,,,,,,,,,,,661.8864,662.8876,,,663.3886,663.6391,,66,66,,,,,,,,,,,,,,,,bars/044.png,bars/mask000.png,,,,,,,,,,,,4,1,,,,,,,4,8,6,9,,,,,,,,,,,662.8876,663.3885,663.6392,667.236,space,3.5927,,667.2361,9,89,668.231,668.2311,668.2392,,,,0,44,44,44,1,75,155,,,,,,,,
,,653178c7d58b18168deb79bd,65af66c3ba3c4b3e69317330,2024-01-23_21h39.59.872,bars,2023.2.3,Win32,144.9275362,657b66ea316d21385b68909f,,,,,,,,,,,668.2393,669.2398,,,669.7407,669.9913,,81,261,,,,,,,,,,,,,,,,bars/021.png,bars/mask006.png,,,,,,,,,,,,4,2,,,,,,,2,6,1,6,,,,,,,,,,,669.2399,669.7407,669.9913,674.5134,space,4.5202,,674.5134,74,11,675.5083,675.5084,675.5165,,,,0,45,45,45,1,155,70,,,,,,,,
,,653178c7d58b18168deb79bd,65af66c3ba3c4b3e69317330,2024-01-23_21h39.59.872,bars,2023.2.3,Win32,144.9275362,657b66ea316d21385b68909f,,,,,,,,,,,675.5168,676.5172,,,677.0184,677.2686,,72,72,,,,,,,,,,,,,,,,bars/026.png,bars/mask002.png,,,,,,,,,,,,4,2,,,,,,,4,8,4,7,,,,,,,,,,,676.5173,677.0184,677.2687,679.2028,space,1.9315,,679.2029,37,13,680.1977,680.1977,680.2057,,,,0,46,46,46,1,35,85,,,,,,,,
,,653178c7d58b18168deb79bd,65af66c3ba3c4b3e69317330,2024-01-23_21h39.59.872,bars,2023.2.3,Win32,144.9275362,657b66ea316d21385b68909f,,,,,,,,,,,680.2059,681.2067,,,681.7078,681.9579,,162,162,,,,,,,,,,,,,,,,bars/011.png,bars/mask006.png,,,,,,,,,,,,7,1,,,,,,,6,6,7,5,,,,,,,,,,,681.2067,681.7077,681.958,683.8366,space,1.8735,,683.8367,2,77,684.8385,684.8385,684.8471,,,,0,47,47,47,1,160,85,,,,,,,,
,,653178c7d58b18168deb79bd,65af66c3ba3c4b3e69317330,2024-01-23_21h39.59.872,bars,2023.2.3,Win32,144.9275362,657b66ea316d21385b68909f,,,,,,,,,,,684.8472,685.8473,,,686.3482,686.5987,,107,107,,,,,,,,,,,,,,,,bars/009.png,bars/mask006.png,,,,,,,,,,,,9,2,,,,,,,8,8,7,10,,,,,,,,,,,685.8474,686.3482,686.5987,688.1292,space,1.5291,,688.1293,88,2,689.1241,689.1241,689.1252,,,,0,48,48,48,1,15,105,,,,,,,,
,,653178c7d58b18168deb79bd,65af66c3ba3c4b3e69317330,2024-01-23_21h39.59.872,bars,2023.2.3,Win32,144.9275362,657b66ea316d21385b68909f,,,,,,,,,,,689.1255,690.1262,,,690.6272,690.8776,,89,-91,,,,,,,,,,,,,,,,bars/022.png,bars/mask006.png,,,,,,,,,,,,8,1,,,,,,,10,6,10,6,,,,,,,,,,,690.1262,690.6271,690.8776,694.6831,space,3.8019,,694.6832,6,69,695.6782,695.6782,695.6879,,,,0,49,49,49,1,95,20,,,,,,,,
,,653178c7d58b18168deb79bd,65af66c3ba3c4b3e69317330,2024-01-23_21h39.59.872,bars,2023.2.3,Win32,144.9275362,657b66ea316d21385b68909f,,,,,,,,,,,,,,,,,,,,,,,,,,,,,,,,,,,,,,,,,,,,,,,,,,,,,,,,,,,,,,,,,,,,,,,,,,,,,,,,,,,,,,,,,,,,,695.6881,755.6863,0,1,1,3,1,sequence_tables/blk049.csv
,,653178c7d58b18168deb79bd,65af66c3ba3c4b3e69317330,2024-01-23_21h39.59.872,bars,2023.2.3,Win32,144.9275362,657b66ea316d21385b68909f,,,,,,,,,,,767.0309,768.0219,,,768.5228,768.7737,,74,74,,,,,,,,,,,,,,,,bars/038.png,bars/mask001.png,,,,,,,,,,,,6,2,,,,,,,3,6,4,7,,,,,,755.6944,767.0199,space,11.3205,,768.0219,768.5228,768.7738,772.4268,space,3.6462,,772.4268,89,4,773.4278,773.4279,773.4357,,,,0,0,0,0,1,165,70,,,,,,,,
,,653178c7d58b18168deb79bd,65af66c3ba3c4b3e69317330,2024-01-23_21h39.59.872,bars,2023.2.3,Win32,144.9275362,657b66ea316d21385b68909f,,,,,,,,,,,773.4359,774.4366,,,774.9376,775.1891,,80,80,,,,,,,,,,,,,,,,bars/042.png,bars/mask005.png,,,,,,,,,,,,6,2,,,,,,,5,8,3,7,,,,,,,,,,,774.4368,774.9375,775.1892,776.6774,space,1.4778,,776.6774,65,5,777.6726,777.6726,777.6796,,,,0,1,1,1,1,145,75,,,,,,,,
,,653178c7d58b18168deb79bd,65af66c3ba3c4b3e69317330,2024-01-23_21h39.59.872,bars,2023.2.3,Win32,144.9275362,657b66ea316d21385b68909f,,,,,,,,,,,777.6797,778.6807,,,779.1912,779.4321,,6,186,,,,,,,,,,,,,,,,bars/014.png,bars/mask007.png,,,,,,,,,,,,8,2,,,,,,,7,10,8,10,,,,,,,,,,,778.6807,779.1912,779.4321,782.7648,space,3.326,,782.7648,74,6,783.7666,783.7668,783.7745,,,,0,2,2,2,1,80,0,,,,,,,,
,,653178c7d58b18168deb79bd,65af66c3ba3c4b3e69317330,2024-01-23_21h39.59.872,bars,2023.2.3,Win32,144.9275362,657b66ea316d21385b68909f,,,,,,,,,,,783.7747,784.7755,,,785.2764,785.5272,,131,131,,,,,,,,,,,,,,,,bars/049.png,bars/mask003.png,,,,,,,,,,,,5,2,,,,,,,5,10,5,10,,,,,,,,,,,784.7755,785.2763,785.5272,787.6976,space,2.1683,,787.6976,29,16,788.6994,788.6995,788.7,,,,0,3,3,3,1,160,115,,,,,,,,
,,653178c7d58b18168deb79bd,65af66c3ba3c4b3e69317330,2024-01-23_21h39.59.872,bars,2023.2.3,Win32,144.9275362,657b66ea316d21385b68909f,,,,,,,,,,,788.7002,789.7014,,,790.2023,790.4527,,179,179,,,,,,,,,,,,,,,,bars/008.png,bars/mask008.png,,,,,,,,,,,,8,2,,,,,,,3,10,2,8,,,,,,,,,,,789.7014,790.2022,790.4527,793.4096,space,2.9552,,793.4096,69,1,794.4045,794.4045,794.4123,,,,0,4,4,4,1,110,0,,,,,,,,
,,653178c7d58b18168deb79bd,65af66c3ba3c4b3e69317330,2024-01-23_21h39.59.872,bars,2023.2.3,Win32,144.9275362,657b66ea316d21385b68909f,,,,,,,,,,,794.4124,795.4134,,,795.9145,796.1647,,1,181,,,,,,,,,,,,,,,,bars/007.png,bars/mask004.png,,,,,,,,,,,,1,1,,,,,,,1,10,1,9,,,,,,,,,,,795.4134,795.9144,796.1647,799.094,space,2.9236,,799.094,6,54,800.0957,800.0957,800.1042,,,,0,5,5,5,1,175,55,,,,,,,,
,,653178c7d58b18168deb79bd,65af66c3ba3c4b3e69317330,2024-01-23_21h39.59.872,bars,2023.2.3,Win32,144.9275362,657b66ea316d21385b68909f,,,,,,,,,,,800.1044,801.105,,,801.6055,801.8559,,137,137,,,,,,,,,,,,,,,,bars/044.png,bars/mask000.png,,,,,,,,,,,,4,2,,,,,,,3,10,1,10,,,,,,,,,,,801.105,801.6055,801.8559,804.9663,space,3.1045,,804.9663,62,18,805.9678,805.9678,805.9758,,,,0,6,6,6,1,75,155,,,,,,,,
,,653178c7d58b18168deb79bd,65af66c3ba3c4b3e69317330,2024-01-23_21h39.59.872,bars,2023.2.3,Win32,144.9275362,657b66ea316d21385b68909f,,,,,,,,,,,805.976,806.9768,,,807.4776,807.7281,,86,86,,,,,,,,,,,,,,,,bars/018.png,bars/mask007.png,,,,,,,,,,,,9,2,,,,,,,5,10,5,10,,,,,,,,,,,806.9768,807.4776,807.7281,811.0052,space,3.2713,,811.0052,64,4,812.0069,812.0069,812.0155,,,,0,7,7,7,1,150,90,,,,,,,,
,,653178c7d58b18168deb79bd,65af66c3ba3c4b3e69317330,2024-01-23_21h39.59.872,bars,2023.2.3,Win32,144.9275362,657b66ea316d21385b68909f,,,,,,,,,,,812.0157,813.0158,,,813.517,813.7672,,32,32,,,,,,,,,,,,,,,,bars/038.png,bars/mask000.png,,,,,,,,,,,,0,2,,,,,,,7,8,7,9,,,,,,,,,,,813.0158,813.517,813.7672,817.573,space,3.8,,817.573,47,38,818.5681,818.5681,818.5781,,,,0,8,8,8,1,165,70,,,,,,,,
,,653178c7d58b18168deb79bd,65af66c3ba3c4b3e69317330,2024-01-23_21h39.59.872,bars,2023.2.3,Win32,144.9275362,657b66ea316d21385b68909f,,,,,,,,,,,818.5783,819.5771,,,820.0775,820.3279,,70,70,,,,,,,,,,,,,,,,bars/023.png,bars/mask008.png,,,,,,,,,,,,0,2,,,,,,,5,6,7,5,,,,,,,,,,,819.5771,820.0775,820.3279,826.7152,space,6.3829,,826.7152,50,45,827.7168,827.7169,827.7173,,,,0,9,9,9,1,20,115,,,,,,,,
,,653178c7d58b18168deb79bd,65af66c3ba3c4b3e69317330,2024-01-23_21h39.59.872,bars,2023.2.3,Win32,144.9275362,657b66ea316d21385b68909f,,,,,,,,,,,827.7174,828.7187,,,829.2197,829.471,,166,166,,,,,,,,,,,,,,,,bars/020.png,bars/mask004.png,,,,,,,,,,,,9,2,,,,,,,7,8,7,10,,,,,,,,,,,828.7187,829.2197,829.471,832.3727,space,2.8877,,832.3728,51,4,833.3733,833.3733,833.3815,,,,0,10,10,10,1,115,170,,,,,,,,
,,653178c7d58b18168deb79bd,65af66c3ba3c4b3e69317330,2024-01-23_21h39.59.872,bars,2023.2.3,Win32,144.9275362,657b66ea316d21385b68909f,,,,,,,,,,,833.3817,834.3821,,,834.8833,835.1336,,143,143,,,,,,,,,,,,,,,,bars/023.png,bars/mask000.png,,,,,,,,,,,,1,2,,,,,,,9,10,8,9,,,,,,,,,,,834.3821,834.8832,835.1336,835.6493,space,0.5081,,835.6494,57,28,836.6513,836.6513,836.6518,,,,0,11,11,11,1,20,115,,,,,,,,
,,653178c7d58b18168deb79bd,65af66c3ba3c4b3e69317330,2024-01-23_21h39.59.872,bars,2023.2.3,Win32,144.9275362,657b66ea316d21385b68909f,,,,,,,,,,,836.6521,837.6521,,,838.1529,838.4043,,52,52,,,,,,,,,,,,,,,,bars/043.png,bars/mask008.png,,,,,,,,,,,,2,1,,,,,,,10,10,9,10,,,,,,,,,,,837.6522,838.1529,838.4043,840.2264,space,1.8191,,840.2264,22,78,841.2282,841.2282,841.2378,,,,0,12,12,12,1,30,130,,,,,,,,
,,653178c7d58b18168deb79bd,65af66c3ba3c4b3e69317330,2024-01-23_21h39.59.872,bars,2023.2.3,Win32,144.9275362,657b66ea316d21385b68909f,,,,,,,,,,,841.2379,842.237,,,842.7379,842.9884,,168,-12,,,,,,,,,,,,,,,,bars/039.png,bars/mask005.png,,,,,,,,,,,,6,1,,,,,,,8,8,8,8,,,,,,,,,,,842.2371,842.7379,842.9884,845.2845,space,2.2912,,845.2845,7,63,846.2796,846.2796,846.2878,,,,0,13,13,13,1,175,105,,,,,,,,
,,653178c7d58b18168deb79bd,65af66c3ba3c4b3e69317330,2024-01-23_21h39.59.872,bars,2023.2.3,Win32,144.9275362,657b66ea316d21385b68909f,,,,,,,,,,,846.2879,847.2881,,,847.7894,848.0396,,131,131,,,,,,,,,,,,,,,,bars/004.png,bars/mask006.png,,,,,,,,,,,,8,2,,,,,,,10,10,10,10,,,,,,,,,,,847.2882,847.7892,848.0396,850.9341,space,2.888,,850.9341,74,6,851.9356,851.9357,851.9443,,,,0,14,14,14,1,25,125,,,,,,,,
,,653178c7d58b18168deb79bd,65af66c3ba3c4b3e69317330,2024-01-23_21h39.59.872,bars,2023.2.3,Win32,144.9275362,657b66ea316d21385b68909f,,,,,,,,,,,851.9444,852.9445,,,853.4455,853.6961,,84,84,,,,,,,,,,,,,,,,bars/045.png,bars/mask001.png,,,,,,,,,,,,3,1,,,,,,,8,10,6,10,,,,,,,,,,,852.9445,853.4455,853.6961,854.1902,space,0.4888,,854.1902,16,74,855.1917,855.1918,855.1928,,,,0,15,15,15,1,100,10,,,,,,,,
,,653178c7d58b18168deb79bd,65af66c3ba3c4b3e69317330,2024-01-23_21h39.59.872,bars,2023.2.3,Win32,144.9275362,657b66ea316d21385b68909f,,,,,,,,,,,855.1931,856.1939,,,856.6947,856.9451,,21,21,,,,,,,,,,,,,,,,bars/012.png,bars/mask009.png,,,,,,,,,,,,7,2,,,,,,,10,10,10,9,,,,,,,,,,,856.194,856.6947,856.9451,858.5037,space,1.5514,,858.5037,69,6,859.4984,859.4984,859.5075,,,,0,16,16,16,1,90,15,,,,,,,,
,,653178c7d58b18168deb79bd,65af66c3ba3c4b3e69317330,2024-01-23_21h39.59.872,bars,2023.2.3,Win32,144.9275362,657b66ea316d21385b68909f,,,,,,,,,,,859.5076,860.5074,,,861.0084,861.2588,,127,-53,,,,,,,,,,,,,,,,bars/042.png,bars/mask004.png,,,,,,,,,,,,4,1,,,,,,,10,10,10,10,,,,,,,,,,,860.5074,861.0084,861.2588,864.9115,space,3.6458,,864.9115,18,52,865.9133,865.9133,865.9221,,,,0,17,17,17,1,145,75,,,,,,,,
,,653178c7d58b18168deb79bd,65af66c3ba3c4b3e69317330,2024-01-23_21h39.59.872,bars,2023.2.3,Win32,144.9275362,657b66ea316d21385b68909f,,,,,,,,,,,865.9223,866.922,,,867.4232,867.6735,,167,167,,,,,,,,,,,,,,,,bars/021.png,bars/mask000.png,,,,,,,,,,,,5,1,,,,,,,10,10,9,10,,,,,,,,,,,866.922,867.4231,867.6735,869.7886,space,2.1096,,869.7886,12,83,870.7836,870.7836,870.7844,,,,0,18,18,18,1,155,70,,,,,,,,
,,653178c7d58b18168deb79bd,65af66c3ba3c4b3e69317330,2024-01-23_21h39.59.872,bars,2023.2.3,Win32,144.9275362,657b66ea316d21385b68909f,,,,,,,,,,,870.7846,871.7854,,,872.2865,872.5368,,0,180,,,,,,,,,,,,,,,,bars/014.png,bars/mask001.png,,,,,,,,,,,,8,2,,,,,,,8,8,10,8,,,,,,,,,,,871.7854,872.2865,872.5368,875.1113,space,2.5675,,875.1113,80,0,876.1129,876.1129,876.121,,,,0,19,19,19,1,80,0,,,,,,,,
,,653178c7d58b18168deb79bd,65af66c3ba3c4b3e69317330,2024-01-23_21h39.59.872,bars,2023.2.3,Win32,144.9275362,657b66ea316d21385b68909f,,,,,,,,,,,876.1212,877.1218,,,877.6229,877.8732,,177,-3,,,,,,,,,,,,,,,,bars/005.png,bars/mask003.png,,,,,,,,,,,,6,1,,,,,,,10,6,10,5,,,,,,,,,,,877.1218,877.6228,877.8732,879.9744,space,2.0944,,879.9744,13,37,880.9761,880.9762,880.9776,,,,0,20,20,20,1,10,140,,,,,,,,
,,653178c7d58b18168deb79bd,65af66c3ba3c4b3e69317330,2024-01-23_21h39.59.872,bars,2023.2.3,Win32,144.9275362,657b66ea316d21385b68909f,,,,,,,,,,,880.9778,881.978,,,882.479,882.7296,,84,84,,,,,,,,,,,,,,,,bars/006.png,bars/mask008.png,,,,,,,,,,,,2,2,,,,,,,10,4,10,5,,,,,,,,,,,881.9781,882.479,882.7296,886.076,space,3.3415,,886.076,49,16,887.0709,887.0709,887.079,,,,0,21,21,21,1,35,100,,,,,,,,
,,653178c7d58b18168deb79bd,65af66c3ba3c4b3e69317330,2024-01-23_21h39.59.872,bars,2023.2.3,Win32,144.9275362,657b66ea316d21385b68909f,,,,,,,,,,,887.0791,888.0799,,,888.5808,888.8314,,168,168,,,,,,,,,,,,,,,,bars/042.png,bars/mask003.png,,,,,,,,,,,,2,1,,,,,,,8,2,9,0,,,,,,,,,,,888.0799,888.5808,888.8314,892.3863,space,3.5502,,892.3864,23,87,893.3815,893.3815,893.3899,,,,0,22,22,22,1,145,75,,,,,,,,
,,653178c7d58b18168deb79bd,65af66c3ba3c4b3e69317330,2024-01-23_21h39.59.872,bars,2023.2.3,Win32,144.9275362,657b66ea316d21385b68909f,,,,,,,,,,,893.3899,894.3904,,,894.8911,895.1418,,178,178,,,,,,,,,,,,,,,,bars/013.png,bars/mask005.png,,,,,,,,,,,,2,2,,,,,,,6,4,6,3,,,,,,,,,,,894.3905,894.8911,895.1419,898.8858,space,3.7363,,898.8858,77,12,899.8866,899.8866,899.8952,,,,0,23,23,23,1,75,10,,,,,,,,
,,653178c7d58b18168deb79bd,65af66c3ba3c4b3e69317330,2024-01-23_21h39.59.872,bars,2023.2.3,Win32,144.9275362,657b66ea316d21385b68909f,,,,,,,,,,,899.8954,900.8955,,,901.3967,901.6478,,53,53,,,,,,,,,,,,,,,,bars/044.png,bars/mask008.png,,,,,,,,,,,,2,1,,,,,,,8,6,8,6,,,,,,,,,,,900.8955,901.3967,901.6478,903.9221,space,2.2667,,903.9221,22,78,904.9244,904.9244,904.9254,,,,0,24,24,24,1,75,155,,,,,,,,
,,653178c7d58b18168deb79bd,65af66c3ba3c4b3e69317330,2024-01-23_21h39.59.872,bars,2023.2.3,Win32,144.9275362,657b66ea316d21385b68909f,,,,,,,,,,,904.9256,905.9256,,,906.4274,906.6772,,3,183,,,,,,,,,,,,,,,,bars/039.png,bars/mask001.png,,,,,,,,,,,,7,1,,,,,,,10,4,10,5,,,,,,,,,,,905.9257,906.4273,906.6772,909.3349,space,2.6447,,909.3349,8,78,910.3366,910.3366,910.3437,,,,0,25,25,25,1,175,105,,,,,,,,
,,653178c7d58b18168deb79bd,65af66c3ba3c4b3e69317330,2024-01-23_21h39.59.872,bars,2023.2.3,Win32,144.9275362,657b66ea316d21385b68909f,,,,,,,,,,,910.3438,911.3385,,,911.8396,912.09,,66,66,,,,,,,,,,,,,,,,bars/044.png,bars/mask008.png,,,,,,,,,,,,7,1,,,,,,,10,2,10,2,,,,,,,,,,,911.3386,911.8395,912.09,913.7668,space,1.6704,,913.7668,9,89,914.7686,914.7687,914.7692,,,,0,26,26,26,1,75,155,,,,,,,,
,,653178c7d58b18168deb79bd,65af66c3ba3c4b3e69317330,2024-01-23_21h39.59.872,bars,2023.2.3,Win32,144.9275362,657b66ea316d21385b68909f,,,,,,,,,,,914.7694,915.7706,,,916.2715,916.5218,,59,59,,,,,,,,,,,,,,,,bars/029.png,bars/mask004.png,,,,,,,,,,,,2,2,,,,,,,8,4,7,4,,,,,,,,,,,915.7706,916.2715,916.5218,918.477,space,1.9502,,918.4771,31,14,919.4717,919.4718,919.4821,,,,0,27,27,27,1,90,45,,,,,,,,
,,653178c7d58b18168deb79bd,65af66c3ba3c4b3e69317330,2024-01-23_21h39.59.872,bars,2023.2.3,Win32,144.9275362,657b66ea316d21385b68909f,,,,,,,,,,,919.4823,920.4806,,,920.9818,921.2322,,73,73,,,,,,,,,,,,,,,,bars/029.png,bars/mask000.png,,,,,,,,,,,,2,1,,,,,,,6,6,4,7,,,,,,,,,,,920.4806,920.9818,921.2322,922.1923,space,0.9526,,922.1923,17,28,923.1875,923.1875,923.2057,,,,0,28,28,28,1,90,45,,,,,,,,
,,653178c7d58b18168deb79bd,65af66c3ba3c4b3e69317330,2024-01-23_21h39.59.872,bars,2023.2.3,Win32,144.9275362,657b66ea316d21385b68909f,,,,,,,,,,,923.206,924.203,,,924.704,924.9541,,179,179,,,,,,,,,,,,,,,,bars/014.png,bars/mask004.png,,,,,,,,,,,,4,2,,,,,,,4,4,3,4,,,,,,,,,,,924.2031,924.704,924.9542,927.5215,space,2.5662,,927.5215,81,1,928.5165,928.5165,928.5247,,,,0,29,29,29,1,80,0,,,,,,,,
,,653178c7d58b18168deb79bd,65af66c3ba3c4b3e69317330,2024-01-23_21h39.59.872,bars,2023.2.3,Win32,144.9275362,657b66ea316d21385b68909f,,,,,,,,,,,928.5248,929.5255,,,930.0265,930.2767,,63,63,,,,,,,,,,,,,,,,bars/044.png,bars/mask001.png,,,,,,,,,,,,4,1,,,,,,,6,2,6,3,,,,,,,,,,,929.5255,930.0264,930.2767,931.5292,space,1.2511,,931.5292,12,88,932.5308,932.5309,932.5322,,,,0,30,30,30,1,75,155,,,,,,,,
,,653178c7d58b18168deb79bd,65af66c3ba3c4b3e69317330,2024-01-23_21h39.59.872,bars,2023.2.3,Win32,144.9275362,657b66ea316d21385b68909f,,,,,,,,,,,932.5324,933.533,,,934.0338,934.2841,,35,215,,,,,,,,,,,,,,,,bars/043.png,bars/mask000.png,,,,,,,,,,,,4,1,,,,,,,4,0,5,0,,,,,,,,,,,933.533,934.0337,934.2841,938.4867,space,4.1948,,938.4868,5,85,939.4884,939.4885,939.496,,,,0,31,31,31,1,30,130,,,,,,,,
,,653178c7d58b18168deb79bd,65af66c3ba3c4b3e69317330,2024-01-23_21h39.59.872,bars,2023.2.3,Win32,144.9275362,657b66ea316d21385b68909f,,,,,,,,,,,939.496,940.4974,,,940.9983,941.2486,,179,-1,,,,,,,,,,,,,,,,bars/007.png,bars/mask001.png,,,,,,,,,,,,5,1,,,,,,,6,2,6,2,,,,,,,,,,,940.4974,940.9983,941.2486,945.2772,space,4.0236,,945.2773,4,56,946.279,946.279,946.2867,,,,0,32,32,32,1,175,55,,,,,,,,
,,653178c7d58b18168deb79bd,65af66c3ba3c4b3e69317330,2024-01-23_21h39.59.872,bars,2023.2.3,Win32,144.9275362,657b66ea316d21385b68909f,,,,,,,,,,,946.2869,947.2877,,,947.7888,948.0393,,149,149,,,,,,,,,,,,,,,,bars/036.png,bars/mask004.png,,,,,,,,,,,,9,1,,,,,,,8,4,10,5,,,,,,,,,,,947.2877,947.7887,948.0393,948.589,space,0.5441,,948.589,4,51,949.5907,949.5907,949.5914,,,,0,33,33,33,1,145,20,,,,,,,,
,,653178c7d58b18168deb79bd,65af66c3ba3c4b3e69317330,2024-01-23_21h39.59.872,bars,2023.2.3,Win32,144.9275362,657b66ea316d21385b68909f,,,,,,,,,,,949.5916,950.5926,,,951.0935,951.3439,,95,95,,,,,,,,,,,,,,,,bars/030.png,bars/mask000.png,,,,,,,,,,,,0,2,,,,,,,10,6,8,5,,,,,,,,,,,950.5927,951.0935,951.3439,953.8488,space,2.5037,,953.8488,45,30,954.8504,954.8504,954.8584,,,,0,34,34,34,1,140,65,,,,,,,,
,,653178c7d58b18168deb79bd,65af66c3ba3c4b3e69317330,2024-01-23_21h39.59.872,bars,2023.2.3,Win32,144.9275362,657b66ea316d21385b68909f,,,,,,,,,,,954.8587,955.8593,,,956.3603,956.6108,,157,-23,,,,,,,,,,,,,,,,bars/042.png,bars/mask000.png,,,,,,,,,,,,6,1,,,,,,,10,8,10,8,,,,,,,,,,,955.8593,956.3602,956.6108,960.7156,space,4.1004,,960.7156,12,82,961.7113,961.7113,961.72,,,,0,35,35,35,1,145,75,,,,,,,,
,,653178c7d58b18168deb79bd,65af66c3ba3c4b3e69317330,2024-01-23_21h39.59.872,bars,2023.2.3,Win32,144.9275362,657b66ea316d21385b68909f,,,,,,,,,,,961.7202,962.72,,,963.2206,963.4718,,164,-16,,,,,,,,,,,,,,,,bars/040.png,bars/mask005.png,,,,,,,,,,,,3,2,,,,,,,8,10,8,10,,,,,,,,,,,962.72,963.2204,963.4719,965.2657,space,1.7866,,965.2657,24,21,966.2619,966.2619,966.2637,,,,0,36,36,36,1,140,5,,,,,,,,
,,653178c7d58b18168deb79bd,65af66c3ba3c4b3e69317330,2024-01-23_21h39.59.872,bars,2023.2.3,Win32,144.9275362,657b66ea316d21385b68909f,,,,,,,,,,,966.264,967.2633,,,967.7634,968.0149,,170,170,,,,,,,,,,,,,,,,bars/005.png,bars/mask002.png,,,,,,,,,,,,2,1,,,,,,,6,10,5,9,,,,,,,,,,,967.2633,967.7634,968.0149,971.2841,space,3.2592,,971.2841,20,30,972.2798,972.2798,972.289,,,,0,37,37,37,1,10,140,,,,,,,,
,,653178c7d58b18168deb79bd,65af66c3ba3c4b3e69317330,2024-01-23_21h39.59.872,bars,2023.2.3,Win32,144.9275362,657b66ea316d21385b68909f,,,,,,,,,,,972.2893,973.2877,,,973.7888,974.0393,,75,75,,,,,,,,,,,,,,,,bars/019.png,bars/mask007.png,,,,,,,,,,,,0,2,,,,,,,4,8,4,8,,,,,,,,,,,973.288,973.7888,974.0393,977.1354,space,3.089,,977.1355,30,30,978.1371,978.1371,978.1445,,,,0,38,38,38,1,45,105,,,,,,,,
,,653178c7d58b18168deb79bd,65af66c3ba3c4b3e69317330,2024-01-23_21h39.59.872,bars,2023.2.3,Win32,144.9275362,657b66ea316d21385b68909f,,,,,,,,,,,978.1445,979.1398,,,979.6402,979.8907,,163,163,,,,,,,,,,,,,,,,bars/024.png,bars/mask008.png,,,,,,,,,,,,4,2,,,,,,,2,6,2,5,,,,,,,,,,,979.1399,979.6402,979.8907,983.0989,space,3.2008,,983.0989,43,7,984.0995,984.0995,984.1071,,,,0,39,39,39,1,120,170,,,,,,,,
,,653178c7d58b18168deb79bd,65af66c3ba3c4b3e69317330,2024-01-23_21h39.59.872,bars,2023.2.3,Win32,144.9275362,657b66ea316d21385b68909f,,,,,,,,,,,984.1073,985.1089,,,985.6094,985.8602,,60,60,,,,,,,,,,,,,,,,bars/029.png,bars/mask003.png,,,,,,,,,,,,4,2,,,,,,,4,8,5,7,,,,,,,,,,,985.1089,985.6093,985.8602,987.6133,space,1.7411,,987.6133,30,15,988.615,988.615,988.6155,,,,0,40,40,40,1,90,45,,,,,,,,
,,653178c7d58b18168deb79bd,65af66c3ba3c4b3e69317330,2024-01-23_21h39.59.872,bars,2023.2.3,Win32,144.9275362,657b66ea316d21385b68909f,,,,,,,,,,,988.6156,989.617,,,990.118,990.3684,,110,110,,,,,,,,,,,,,,,,bars/011.png,bars/mask006.png,,,,,,,,,,,,1,2,,,,,,,2,6,2,5,,,,,,,,,,,989.617,990.1179,990.3684,990.7373,space,0.3674,,990.7373,50,25,991.7389,991.739,991.7394,,,,0,41,41,41,1,160,85,,,,,,,,
,,653178c7d58b18168deb79bd,65af66c3ba3c4b3e69317330,2024-01-23_21h39.59.872,bars,2023.2.3,Win32,144.9275362,657b66ea316d21385b68909f,,,,,,,,,,,991.7397,992.7412,,,993.2419,993.4923,,172,-8,,,,,,,,,,,,,,,,bars/048.png,bars/mask005.png,,,,,,,,,,,,3,2,,,,,,,0,4,0,3,,,,,,,,,,,992.7413,993.2418,993.4923,995.051,space,1.5552,,995.051,58,3,996.0526,996.0526,996.0531,,,,0,42,42,42,1,50,175,,,,,,,,
,,653178c7d58b18168deb79bd,65af66c3ba3c4b3e69317330,2024-01-23_21h39.59.872,bars,2023.2.3,Win32,144.9275362,657b66ea316d21385b68909f,,,,,,,,,,,996.0533,997.0545,,,997.5554,997.806,,59,59,,,,,,,,,,,,,,,,bars/017.png,bars/mask006.png,,,,,,,,,,,,2,2,,,,,,,2,2,1,3,,,,,,,,,,,997.0547,997.5554,997.806,1001.0273,space,3.2171,,1001.0273,86,14,1002.0223,1002.0223,1002.031,,,,0,43,43,43,1,145,45,,,,,,,,
,,653178c7d58b18168deb79bd,65af66c3ba3c4b3e69317330,2024-01-23_21h39.59.872,bars,2023.2.3,Win32,144.9275362,657b66ea316d21385b68909f,,,,,,,,,,,1002.0314,1003.0309,,,1003.5319,1003.7827,,132,132,,,,,,,,,,,,,,,,bars/038.png,bars/mask004.png,,,,,,,,,,,,0,1,,,,,,,4,4,5,4,,,,,,,,,,,1003.0309,1003.5319,1003.7827,1005.1534,space,1.3685,,1005.1534,33,62,1006.155,1006.1551,1006.1562,,,,0,44,44,44,1,165,70,,,,,,,,
,,653178c7d58b18168deb79bd,65af66c3ba3c4b3e69317330,2024-01-23_21h39.59.872,bars,2023.2.3,Win32,144.9275362,657b66ea316d21385b68909f,,,,,,,,,,,1006.1563,1007.1566,,,1007.6576,1007.908,,170,170,,,,,,,,,,,,,,,,bars/017.png,bars/mask004.png,,,,,,,,,,,,1,1,,,,,,,6,2,5,2,,,,,,,,,,,1007.1566,1007.6576,1007.908,1010.8372,space,2.9234,,1010.8372,25,55,1011.8322,1011.8322,1011.8407,,,,0,45,45,45,1,145,45,,,,,,,,
,,653178c7d58b18168deb79bd,65af66c3ba3c4b3e69317330,2024-01-23_21h39.59.872,bars,2023.2.3,Win32,144.9275362,657b66ea316d21385b68909f,,,,,,,,,,,1011.8409,1012.8409,,,1013.3418,1013.5924,,163,163,,,,,,,,,,,,,,,,bars/043.png,bars/mask006.png,,,,,,,,,,,,0,2,,,,,,,4,4,5,2,,,,,,,,,,,1012.8409,1013.3418,1013.5924,1014.2256,space,0.6316,,1014.2256,47,33,1015.2273,1015.2273,1015.2285,,,,0,46,46,46,1,30,130,,,,,,,,
,,653178c7d58b18168deb79bd,65af66c3ba3c4b3e69317330,2024-01-23_21h39.59.872,bars,2023.2.3,Win32,144.9275362,657b66ea316d21385b68909f,,,,,,,,,,,1015.2287,1016.2293,,,1016.7302,1016.9807,,0,0,,,,,,,,,,,,,,,,bars/009.png,bars/mask006.png,,,,,,,,,,,,4,1,,,,,,,6,2,7,2,,,,,,,,,,,1016.2293,1016.7302,1016.9807,1018.706,space,1.7222,,1018.7061,15,75,1019.7009,1019.7009,1019.7087,,,,0,47,47,47,1,15,105,,,,,,,,
,,653178c7d58b18168deb79bd,65af66c3ba3c4b3e69317330,2024-01-23_21h39.59.872,bars,2023.2.3,Win32,144.9275362,657b66ea316d21385b68909f,,,,,,,,,,,1019.7088,1020.7099,,,1021.2109,1021.4611,,8,8,,,,,,,,,,,,,,,,bars/033.png,bars/mask009.png,,,,,,,,,,,,1,1,,,,,,,4,4,3,3,,,,,,,,,,,1020.71,1021.2108,1021.4611,1024.3138,space,2.8508,,1024.3139,17,33,1025.3157,1025.3157,1025.3231,,,,0,48,48,48,1,25,155,,,,,,,,
,,653178c7d58b18168deb79bd,65af66c3ba3c4b3e69317330,2024-01-23_21h39.59.872,bars,2023.2.3,Win32,144.9275362,657b66ea316d21385b68909f,,,,,,,,,,,1025.3233,1026.3244,,,1026.8256,1027.0759,,159,-21,,,,,,,,,,,,,,,,bars/017.png,bars/mask008.png,,,,,,,,,,,,1,1,,,,,,,2,2,1,2,,,,,,,,,,,1026.3244,1026.8255,1027.076,1030.4225,space,3.3405,,1030.4226,14,66,1031.4174,1031.4174,1031.4253,,,,0,49,49,49,1,145,45,,,,,,,,
,,653178c7d58b18168deb79bd,65af66c3ba3c4b3e69317330,2024-01-23_21h39.59.872,bars,2023.2.3,Win32,144.9275362,657b66ea316d21385b68909f,,,,,,,,,,,,,,,,,,,,,,,,,,,,,,,,,,,,,,,,,,,,,,,,,,,,,,,,,,,,,,,,,,,,,,,,,,,,,,,,,,,,,,,,,,,,,1031.4254,1080.0257,0,2,2,0,1,sequence_tables/blk020.csv
,,653178c7d58b18168deb79bd,65af66c3ba3c4b3e69317330,2024-01-23_21h39.59.872,bars,2023.2.3,Win32,144.9275362,657b66ea316d21385b68909f,,,,,,,,,,,1083.2821,1084.2801,,,1084.781,1085.0315,,172,-8,,,,,,,,,,,,,,,,bars/008.png,bars/mask004.png,,,,,,,,,,,,7,2,,,,,,,2,8,2,9,,,,,,1080.0338,1083.2784,space,3.2359,,1084.2801,1084.781,1085.0315,1087.8782,space,2.8447,,1087.8782,62,8,1088.8792,1088.8792,1088.888,,,,0,0,0,0,1,110,0,,,,,,,,
,,653178c7d58b18168deb79bd,65af66c3ba3c4b3e69317330,2024-01-23_21h39.59.872,bars,2023.2.3,Win32,144.9275362,657b66ea316d21385b68909f,,,,,,,,,,,1088.8881,1089.8889,,,1090.3889,1090.6396,,43,43,,,,,,,,,,,,,,,,bars/031.png,bars/mask006.png,,,,,,,,,,,,7,2,,,,,,,4,10,5,10,,,,,,,,,,,1089.889,1090.3888,1090.6396,1094.2165,space,3.5696,,1094.2166,77,8,1095.2172,1095.2173,1095.2282,,,,0,1,1,1,1,120,35,,,,,,,,
,,653178c7d58b18168deb79bd,65af66c3ba3c4b3e69317330,2024-01-23_21h39.59.872,bars,2023.2.3,Win32,144.9275362,657b66ea316d21385b68909f,,,,,,,,,,,1095.2283,1096.2271,,,1096.7273,1096.9778,,99,99,,,,,,,,,,,,,,,,bars/011.png,bars/mask003.png,,,,,,,,,,,,4,2,,,,,,,6,8,7,7,,,,,,,,,,,1096.2271,1096.7273,1096.9778,1098.8494,space,1.8642,,1098.8495,61,14,1099.8447,1099.8447,1099.8452,,,,0,2,2,2,1,160,85,,,,,,,,
,,653178c7d58b18168deb79bd,65af66c3ba3c4b3e69317330,2024-01-23_21h39.59.872,bars,2023.2.3,Win32,144.9275362,657b66ea316d21385b68909f,,,,,,,,,,,1099.8453,1100.846,,,1101.3471,1101.5973,,8,188,,,,,,,,,,,,,,,,bars/006.png,bars/mask001.png,,,,,,,,,,,,1,1,,,,,,,8,10,7,9,,,,,,,,,,,1100.846,1101.347,1101.5973,1104.0951,space,2.4914,,1104.0952,27,88,1105.0906,1105.0907,1105.0988,,,,0,3,3,3,1,35,100,,,,,,,,
,,653178c7d58b18168deb79bd,65af66c3ba3c4b3e69317330,2024-01-23_21h39.59.872,bars,2023.2.3,Win32,144.9275362,657b66ea316d21385b68909f,,,,,,,,,,,1105.0989,1106.0991,,,1106.6007,1106.8503,,53,53,,,,,,,,,,,,,,,,bars/043.png,bars/mask005.png,,,,,,,,,,,,2,1,,,,,,,10,8,10,7,,,,,,,,,,,1106.0991,1106.6007,1106.8503,1109.9674,space,3.1098,,1109.9675,23,77,1110.9692,1110.9692,1110.9766,,,,0,4,4,4,1,30,130,,,,,,,,
,,653178c7d58b18168deb79bd,65af66c3ba3c4b3e69317330,2024-01-23_21h39.59.872,bars,2023.2.3,Win32,144.9275362,657b66ea316d21385b68909f,,,,,,,,,,,1110.9767,1111.9785,,,1112.4796,1112.7298,,33,33,,,,,,,,,,,,,,,,bars/019.png,bars/mask006.png,,,,,,,,,,,,5,1,,,,,,,8,6,9,5,,,,,,,,,,,1111.9785,1112.4796,1112.7298,1113.3914,space,0.6545,,1113.3915,12,72,1114.393,1114.393,1114.3937,,,,0,5,5,5,1,45,105,,,,,,,,
,,653178c7d58b18168deb79bd,65af66c3ba3c4b3e69317330,2024-01-23_21h39.59.872,bars,2023.2.3,Win32,144.9275362,657b66ea316d21385b68909f,,,,,,,,,,,1114.3939,1115.3943,,,1115.8949,1116.1453,,175,-5,,,,,,,,,,,,,,,,bars/007.png,bars/mask009.png,,,,,,,,,,,,5,1,,,,,,,6,4,5,5,,,,,,,,,,,1115.3943,1115.8949,1116.1454,1119.0813,space,2.9345,,1119.0814,0,60,1120.0764,1120.0764,1120.0862,,,,0,6,6,6,1,175,55,,,,,,,,
,,653178c7d58b18168deb79bd,65af66c3ba3c4b3e69317330,2024-01-23_21h39.59.872,bars,2023.2.3,Win32,144.9275362,657b66ea316d21385b68909f,,,,,,,,,,,1120.0866,1121.0852,,,1121.5865,1121.8375,,43,223,,,,,,,,,,,,,,,,bars/006.png,bars/mask006.png,,,,,,,,,,,,5,1,,,,,,,8,2,7,1,,,,,,,,,,,1121.0852,1121.5864,1121.8375,1124.7727,space,2.93,,1124.7727,8,57,1125.7683,1125.7683,1125.7764,,,,0,7,7,7,1,35,100,,,,,,,,
,,653178c7d58b18168deb79bd,65af66c3ba3c4b3e69317330,2024-01-23_21h39.59.872,bars,2023.2.3,Win32,144.9275362,657b66ea316d21385b68909f,,,,,,,,,,,1125.7765,1126.7763,,,1127.2775,1127.5277,,177,-3,,,,,,,,,,,,,,,,bars/007.png,bars/mask007.png,,,,,,,,,,,,6,1,,,,,,,6,0,6,0,,,,,,,,,,,1126.7763,1127.2775,1127.5278,1129.136,space,1.6068,,1129.136,2,58,1130.1368,1130.1369,1130.1447,,,,0,8,8,8,1,175,55,,,,,,,,
,,653178c7d58b18168deb79bd,65af66c3ba3c4b3e69317330,2024-01-23_21h39.59.872,bars,2023.2.3,Win32,144.9275362,657b66ea316d21385b68909f,,,,,,,,,,,1130.1447,1131.1464,,,1131.6474,1131.8971,,34,214,,,,,,,,,,,,,,,,bars/047.png,bars/mask000.png,,,,,,,,,,,,1,1,,,,,,,4,2,4,0,,,,,,,,,,,1131.1464,1131.6474,1131.8971,1136.3996,space,4.495,,1136.3997,19,36,1137.4004,1137.4004,1137.4078,,,,0,9,9,9,1,15,70,,,,,,,,
,,653178c7d58b18168deb79bd,65af66c3ba3c4b3e69317330,2024-01-23_21h39.59.872,bars,2023.2.3,Win32,144.9275362,657b66ea316d21385b68909f,,,,,,,,,,,1137.4078,1138.4101,,,1138.9106,1139.1612,,0,0,,,,,,,,,,,,,,,,bars/032.png,bars/mask009.png,,,,,,,,,,,,1,2,,,,,,,2,4,3,4,,,,,,,,,,,1138.4101,1138.9105,1139.1612,1141.1784,space,2.0084,,1141.1784,55,20,1142.1735,1142.1735,1142.1815,,,,0,10,10,10,1,125,20,,,,,,,,
,,653178c7d58b18168deb79bd,65af66c3ba3c4b3e69317330,2024-01-23_21h39.59.872,bars,2023.2.3,Win32,144.9275362,657b66ea316d21385b68909f,,,,,,,,,,,1142.1817,1143.182,,,1143.6831,1143.9346,,168,-12,,,,,,,,,,,,,,,,bars/036.png,bars/mask005.png,,,,,,,,,,,,1,1,,,,,,,4,6,5,6,,,,,,,,,,,1143.182,1143.6831,1143.9347,1145.8897,space,1.9485,,1145.8897,23,32,1146.8905,1146.8905,1146.8981,,,,0,11,11,11,1,145,20,,,,,,,,
,,653178c7d58b18168deb79bd,65af66c3ba3c4b3e69317330,2024-01-23_21h39.59.872,bars,2023.2.3,Win32,144.9275362,657b66ea316d21385b68909f,,,,,,,,,,,1146.8982,1147.8998,,,1148.4012,1148.6506,,169,169,,,,,,,,,,,,,,,,bars/045.png,bars/mask006.png,,,,,,,,,,,,1,2,,,,,,,2,4,3,3,,,,,,,,,,,1147.8998,1148.4012,1148.6506,1149.0348,space,0.3828,,1149.0348,69,21,1150.035,1150.035,1150.0363,,,,0,12,12,12,1,100,10,,,,,,,,
,,653178c7d58b18168deb79bd,65af66c3ba3c4b3e69317330,2024-01-23_21h39.59.872,bars,2023.2.3,Win32,144.9275362,657b66ea316d21385b68909f,,,,,,,,,,,1150.0364,1151.0369,,,1151.5388,1151.7885,,4,4,,,,,,,,,,,,,,,,bars/048.png,bars/mask004.png,,,,,,,,,,,,4,2,,,,,,,4,6,2,5,,,,,,,,,,,1151.037,1151.5388,1151.7885,1152.1779,space,0.3872,,1152.1781,46,9,1153.1731,1153.1731,1153.1735,,,,0,13,13,13,1,50,175,,,,,,,,
,,653178c7d58b18168deb79bd,65af66c3ba3c4b3e69317330,2024-01-23_21h39.59.872,bars,2023.2.3,Win32,144.9275362,657b66ea316d21385b68909f,,,,,,,,,,,1153.1737,1154.1757,,,1154.676,1154.9263,,76,76,,,,,,,,,,,,,,,,bars/039.png,bars/mask001.png,,,,,,,,,,,,0,2,,,,,,,2,8,2,10,,,,,,,,,,,1154.1758,1154.676,1154.9263,1157.2499,space,2.3215,,1157.25,81,29,1158.2457,1158.2458,1158.2541,,,,0,14,14,14,1,175,105,,,,,,,,
,,653178c7d58b18168deb79bd,65af66c3ba3c4b3e69317330,2024-01-23_21h39.59.872,bars,2023.2.3,Win32,144.9275362,657b66ea316d21385b68909f,,,,,,,,,,,1158.2542,1159.2536,,,1159.7546,1160.0061,,107,107,,,,,,,,,,,,,,,,bars/013.png,bars/mask004.png,,,,,,,,,,,,0,1,,,,,,,0,6,0,5,,,,,,,,,,,1159.2536,1159.7546,1160.0061,1161.8837,space,1.8682,,1161.8837,32,83,1162.8787,1162.8787,1162.8876,,,,0,15,15,15,1,75,10,,,,,,,,
,,653178c7d58b18168deb79bd,65af66c3ba3c4b3e69317330,2024-01-23_21h39.59.872,bars,2023.2.3,Win32,144.9275362,657b66ea316d21385b68909f,,,,,,,,,,,1162.8877,1163.8874,,,1164.3887,1164.6396,,175,175,,,,,,,,,,,,,,,,bars/033.png,bars/mask007.png,,,,,,,,,,,,1,2,,,,,,,2,4,1,3,,,,,,,,,,,1163.8874,1164.3887,1164.6397,1166.6863,space,2.0397,,1166.6864,30,20,1167.6863,1167.6863,1167.6883,,,,0,16,16,16,1,25,155,,,,,,,,
,,653178c7d58b18168deb79bd,65af66c3ba3c4b3e69317330,2024-01-23_21h39.59.872,bars,2023.2.3,Win32,144.9275362,657b66ea316d21385b68909f,,,,,,,,,,,1167.6886,1168.6882,,,1169.189,1169.4397,,98,98,,,,,,,,,,,,,,,,bars/002.png,bars/mask007.png,,,,,,,,,,,,3,2,,,,,,,4,6,3,5,,,,,,,,,,,1168.6882,1169.1889,1169.4397,1171.2348,space,1.7858,,1171.2348,32,13,1172.2363,1172.2364,1172.2437,,,,0,17,17,17,1,130,85,,,,,,,,
,,653178c7d58b18168deb79bd,65af66c3ba3c4b3e69317330,2024-01-23_21h39.59.872,bars,2023.2.3,Win32,144.9275362,657b66ea316d21385b68909f,,,,,,,,,,,1172.2438,1173.2461,,,1173.7463,1173.9967,,176,176,,,,,,,,,,,,,,,,bars/008.png,bars/mask009.png,,,,,,,,,,,,3,2,,,,,,,2,4,2,3,,,,,,,,,,,1173.2461,1173.7462,1173.9967,1174.6031,space,0.6051,,1174.6032,66,4,1175.6037,1175.6037,1175.6044,,,,0,18,18,18,1,110,0,,,,,,,,
,,653178c7d58b18168deb79bd,65af66c3ba3c4b3e69317330,2024-01-23_21h39.59.872,bars,2023.2.3,Win32,144.9275362,657b66ea316d21385b68909f,,,,,,,,,,,1175.6047,1176.5996,,,1177.0999,1177.3508,,97,97,,,,,,,,,,,,,,,,bars/011.png,bars/mask006.png,,,,,,,,,,,,1,2,,,,,,,0,2,0,1,,,,,,,,,,,1176.5996,1177.0999,1177.3508,1180.6966,space,3.3443,,1180.6966,63,12,1181.6916,1181.6916,1181.7003,,,,0,19,19,19,1,160,85,,,,,,,,
,,653178c7d58b18168deb79bd,65af66c3ba3c4b3e69317330,2024-01-23_21h39.59.872,bars,2023.2.3,Win32,144.9275362,657b66ea316d21385b68909f,,,,,,,,,,,1181.7005,1182.7004,,,1183.2014,1183.4519,,93,93,,,,,,,,,,,,,,,,bars/027.png,bars/mask002.png,,,,,,,,,,,,0,1,,,,,,,2,0,1,0,,,,,,,,,,,1182.7004,1183.2014,1183.4519,1186.4922,space,3.0359,,1186.4922,17,43,1187.4872,1187.4872,1187.5057,,,,0,20,20,20,1,110,50,,,,,,,,
,,653178c7d58b18168deb79bd,65af66c3ba3c4b3e69317330,2024-01-23_21h39.59.872,bars,2023.2.3,Win32,144.9275362,657b66ea316d21385b68909f,,,,,,,,,,,1187.506,1188.503,,,1189.004,1189.2542,,114,114,,,,,,,,,,,,,,,,bars/042.png,bars/mask009.png,,,,,,,,,,,,0,1,,,,,,,0,2,0,3,,,,,,,,,,,1188.503,1189.004,1189.2543,1193.1783,space,3.9208,,1193.1784,31,39,1194.1802,1194.1802,1194.1882,,,,0,21,21,21,1,145,75,,,,,,,,
,,653178c7d58b18168deb79bd,65af66c3ba3c4b3e69317330,2024-01-23_21h39.59.872,bars,2023.2.3,Win32,144.9275362,657b66ea316d21385b68909f,,,,,,,,,,,1194.1883,1195.1891,,,1195.6902,1195.9405,,98,98,,,,,,,,,,,,,,,,bars/001.png,bars/mask002.png,,,,,,,,,,,,1,2,,,,,,,0,0,0,2,,,,,,,,,,,1195.1891,1195.6902,1195.9405,1199.6627,space,3.7151,,1199.6628,32,13,1200.6577,1200.6578,1200.6675,,,,0,22,22,22,1,130,85,,,,,,,,
,,653178c7d58b18168deb79bd,65af66c3ba3c4b3e69317330,2024-01-23_21h39.59.872,bars,2023.2.3,Win32,144.9275362,657b66ea316d21385b68909f,,,,,,,,,,,1200.6677,1201.6664,,,1202.1673,1202.4179,,95,95,,,,,,,,,,,,,,,,bars/014.png,bars/mask001.png,,,,,,,,,,,,1,1,,,,,,,0,0,2,1,,,,,,,,,,,1201.6664,1202.1673,1202.4179,1203.2948,space,0.8701,,1203.2948,15,85,1204.2964,1204.2964,1204.3069,,,,0,23,23,23,1,80,0,,,,,,,,
,,653178c7d58b18168deb79bd,65af66c3ba3c4b3e69317330,2024-01-23_21h39.59.872,bars,2023.2.3,Win32,144.9275362,657b66ea316d21385b68909f,,,,,,,,,,,1204.3071,1205.3051,,,1205.8061,1206.0566,,69,69,,,,,,,,,,,,,,,,bars/025.png,bars/mask002.png,,,,,,,,,,,,0,2,,,,,,,0,0,0,2,,,,,,,,,,,1205.3051,1205.806,1206.0566,1207.3784,space,1.3191,,1207.3784,36,29,1208.3735,1208.3735,1208.3817,,,,0,24,24,24,1,105,40,,,,,,,,
,,653178c7d58b18168deb79bd,65af66c3ba3c4b3e69317330,2024-01-23_21h39.59.872,bars,2023.2.3,Win32,144.9275362,657b66ea316d21385b68909f,,,,,,,,,,,1208.3818,1209.3823,,,1209.8832,1210.1336,,172,-8,,,,,,,,,,,,,,,,bars/014.png,bars/mask002.png,,,,,,,,,,,,0,2,,,,,,,0,0,0,0,,,,,,,,,,,1209.3823,1209.8832,1210.1336,1212.8818,space,2.7457,,1212.8818,88,8,1213.8767,1213.8768,1213.8848,,,,0,25,25,25,1,80,0,,,,,,,,
,,653178c7d58b18168deb79bd,65af66c3ba3c4b3e69317330,2024-01-23_21h39.59.872,bars,2023.2.3,Win32,144.9275362,657b66ea316d21385b68909f,,,,,,,,,,,1213.885,1214.8857,,,1215.3865,1215.6371,,166,-14,,,,,,,,,,,,,,,,bars/036.png,bars/mask001.png,,,,,,,,,,,,1,1,,,,,,,2,0,3,0,,,,,,,,,,,1214.8857,1215.3865,1215.6371,1219.3732,space,3.7301,,1219.3732,21,34,1220.3752,1220.3753,1220.3831,,,,0,26,26,26,1,145,20,,,,,,,,
,,653178c7d58b18168deb79bd,65af66c3ba3c4b3e69317330,2024-01-23_21h39.59.872,bars,2023.2.3,Win32,144.9275362,657b66ea316d21385b68909f,,,,,,,,,,,1220.3833,1221.3837,,,1221.885,1222.1355,,176,176,,,,,,,,,,,,,,,,bars/014.png,bars/mask004.png,,,,,,,,,,,,1,2,,,,,,,4,2,5,1,,,,,,,,,,,1221.3837,1221.885,1222.1355,1224.9321,space,2.7914,,1224.9321,84,4,1225.9273,1225.9274,1225.936,,,,0,27,27,27,1,80,0,,,,,,,,
,,653178c7d58b18168deb79bd,65af66c3ba3c4b3e69317330,2024-01-23_21h39.59.872,bars,2023.2.3,Win32,144.9275362,657b66ea316d21385b68909f,,,,,,,,,,,1225.9361,1226.937,,,1227.4378,1227.6877,,3,3,,,,,,,,,,,,,,,,bars/009.png,bars/mask004.png,,,,,,,,,,,,4,1,,,,,,,6,4,7,4,,,,,,,,,,,1226.937,1227.4378,1227.6878,1229.0104,space,1.3152,,1229.0104,12,78,1230.0111,1230.0111,1230.0123,,,,0,28,28,28,1,15,105,,,,,,,,
,,653178c7d58b18168deb79bd,65af66c3ba3c4b3e69317330,2024-01-23_21h39.59.872,bars,2023.2.3,Win32,144.9275362,657b66ea316d21385b68909f,,,,,,,,,,,1230.0125,1231.0134,,,1231.5142,1231.7649,,143,-37,,,,,,,,,,,,,,,,bars/049.png,bars/mask005.png,,,,,,,,,,,,2,1,,,,,,,4,2,4,3,,,,,,,,,,,1231.0135,1231.5142,1231.7649,1235.8346,space,4.0661,,1235.8347,17,28,1236.8365,1236.8365,1236.8442,,,,0,29,29,29,1,160,115,,,,,,,,
,,653178c7d58b18168deb79bd,65af66c3ba3c4b3e69317330,2024-01-23_21h39.59.872,bars,2023.2.3,Win32,144.9275362,657b66ea316d21385b68909f,,,,,,,,,,,1236.8443,1237.8451,,,1238.3463,1238.5968,,158,-22,,,,,,,,,,,,,,,,bars/015.png,bars/mask002.png,,,,,,,,,,,,0,2,,,,,,,6,0,8,0,,,,,,,,,,,1237.8452,1238.3463,1238.5968,1241.6997,space,3.098,,1241.6997,48,2,1242.7015,1242.7015,1242.7092,,,,0,30,30,30,1,110,160,,,,,,,,
,,653178c7d58b18168deb79bd,65af66c3ba3c4b3e69317330,2024-01-23_21h39.59.872,bars,2023.2.3,Win32,144.9275362,657b66ea316d21385b68909f,,,,,,,,,,,1242.7093,1243.7103,,,1244.2113,1244.4618,,151,151,,,,,,,,,,,,,,,,bars/046.png,bars/mask008.png,,,,,,,,,,,,4,1,,,,,,,4,2,5,3,,,,,,,,,,,1243.7105,1244.2113,1244.4619,1245.2272,space,0.7618,,1245.2272,4,66,1246.229,1246.229,1246.23,,,,0,31,31,31,1,155,85,,,,,,,,
,,653178c7d58b18168deb79bd,65af66c3ba3c4b3e69317330,2024-01-23_21h39.59.872,bars,2023.2.3,Win32,144.9275362,657b66ea316d21385b68909f,,,,,,,,,,,1246.2302,1247.2308,,,1247.7318,1247.9822,,4,4,,,,,,,,,,,,,,,,bars/017.png,bars/mask000.png,,,,,,,,,,,,0,1,,,,,,,2,4,1,4,,,,,,,,,,,1247.2309,1247.7317,1247.9822,1251.3439,space,3.3596,,1251.3439,39,41,1252.3445,1252.3445,1252.3518,,,,0,32,32,32,1,145,45,,,,,,,,
,,653178c7d58b18168deb79bd,65af66c3ba3c4b3e69317330,2024-01-23_21h39.59.872,bars,2023.2.3,Win32,144.9275362,657b66ea316d21385b68909f,,,,,,,,,,,1252.3519,1253.3533,,,1253.8544,1254.1048,,137,137,,,,,,,,,,,,,,,,bars/038.png,bars/mask009.png,,,,,,,,,,,,0,1,,,,,,,4,2,4,1,,,,,,,,,,,1253.3533,1253.8543,1254.1048,1254.738,space,0.6246,,1254.738,28,67,1255.7329,1255.7329,1255.7336,,,,0,33,33,33,1,165,70,,,,,,,,
,,653178c7d58b18168deb79bd,65af66c3ba3c4b3e69317330,2024-01-23_21h39.59.872,bars,2023.2.3,Win32,144.9275362,657b66ea316d21385b68909f,,,,,,,,,,,1255.7338,1256.7348,,,1257.2367,1257.4869,,175,-5,,,,,,,,,,,,,,,,bars/000.png,bars/mask000.png,,,,,,,,,,,,0,2,,,,,,,2,4,4,5,,,,,,,,,,,1256.7348,1257.2367,1257.4869,1259.6293,space,2.1314,,1259.6293,45,30,1260.6308,1260.6308,1260.6404,,,,0,34,34,34,1,40,145,,,,,,,,
,,653178c7d58b18168deb79bd,65af66c3ba3c4b3e69317330,2024-01-23_21h39.59.872,bars,2023.2.3,Win32,144.9275362,657b66ea316d21385b68909f,,,,,,,,,,,1260.6405,1261.6407,,,1262.1414,1262.3912,,157,157,,,,,,,,,,,,,,,,bars/049.png,bars/mask008.png,,,,,,,,,,,,5,1,,,,,,,4,6,5,6,,,,,,,,,,,1261.6408,1262.1414,1262.3912,1262.9548,space,0.5603,,1262.9549,3,42,1263.9498,1263.9498,1263.9512,,,,0,35,35,35,1,160,115,,,,,,,,
,,653178c7d58b18168deb79bd,65af66c3ba3c4b3e69317330,2024-01-23_21h39.59.872,bars,2023.2.3,Win32,144.9275362,657b66ea316d21385b68909f,,,,,,,,,,,1263.9514,1264.9515,,,1265.4524,1265.7037,,57,57,,,,,,,,,,,,,,,,bars/037.png,bars/mask008.png,,,,,,,,,,,,0,2,,,,,,,6,4,6,4,,,,,,,,,,,1264.9516,1265.4524,1265.7037,1265.8146,space,0.0999,,1265.8146,87,48,1266.8165,1266.8165,1266.8178,,,,0,36,36,36,1,150,105,,,,,,,,
,,653178c7d58b18168deb79bd,65af66c3ba3c4b3e69317330,2024-01-23_21h39.59.872,bars,2023.2.3,Win32,144.9275362,657b66ea316d21385b68909f,,,,,,,,,,,1266.818,1267.819,,,1268.3199,1268.5704,,170,170,,,,,,,,,,,,,,,,bars/020.png,bars/mask002.png,,,,,,,,,,,,2,2,,,,,,,8,2,9,2,,,,,,,,,,,1267.8191,1268.3199,1268.5704,1270.0741,space,1.4969,,1270.0741,55,0,1271.075,1271.0751,1271.0757,,,,0,37,37,37,1,115,170,,,,,,,,
,,653178c7d58b18168deb79bd,65af66c3ba3c4b3e69317330,2024-01-23_21h39.59.872,bars,2023.2.3,Win32,144.9275362,657b66ea316d21385b68909f,,,,,,,,,,,1271.076,1272.0761,,,1272.577,1272.8275,,4,184,,,,,,,,,,,,,,,,bars/016.png,bars/mask009.png,,,,,,,,,,,,1,2,,,,,,,10,4,7,4,,,,,,,,,,,1272.0762,1272.577,1272.8275,1277.5735,space,4.7384,,1277.5735,36,19,1278.5742,1278.5744,1278.5821,,,,0,38,38,38,1,40,165,,,,,,,,
,,653178c7d58b18168deb79bd,65af66c3ba3c4b3e69317330,2024-01-23_21h39.59.872,bars,2023.2.3,Win32,144.9275362,657b66ea316d21385b68909f,,,,,,,,,,,1278.5822,1279.5841,,,1280.084,1280.3346,,11,11,,,,,,,,,,,,,,,,bars/045.png,bars/mask006.png,,,,,,,,,,,,5,2,,,,,,,10,6,10,5,,,,,,,,,,,1279.5841,1280.084,1280.3346,1280.3554,space,0.0111,,1280.3555,89,1,1281.3573,1281.3573,1281.3578,,,,0,39,39,39,1,100,10,,,,,,,,
,,653178c7d58b18168deb79bd,65af66c3ba3c4b3e69317330,2024-01-23_21h39.59.872,bars,2023.2.3,Win32,144.9275362,657b66ea316d21385b68909f,,,,,,,,,,,1281.3579,1282.3601,,,1282.8601,1283.1106,,134,134,,,,,,,,,,,,,,,,bars/016.png,bars/mask000.png,,,,,,,,,,,,0,2,,,,,,,8,4,10,4,,,,,,,,,,,1282.3601,1282.86,1283.1106,1283.5074,space,0.3927,,1283.5074,86,31,1284.5099,1284.5099,1284.5105,,,,0,40,40,40,1,40,165,,,,,,,,
,,653178c7d58b18168deb79bd,65af66c3ba3c4b3e69317330,2024-01-23_21h39.59.872,bars,2023.2.3,Win32,144.9275362,657b66ea316d21385b68909f,,,,,,,,,,,1284.5107,1285.5112,,,1286.012,1286.2624,,179,179,,,,,,,,,,,,,,,,bars/005.png,bars/mask001.png,,,,,,,,,,,,6,1,,,,,,,10,2,10,2,,,,,,,,,,,1285.5112,1286.0119,1286.2624,1290.1099,space,3.8353,,1290.1099,11,39,1291.1117,1291.1118,1291.1224,,,,0,41,41,41,1,10,140,,,,,,,,
,,653178c7d58b18168deb79bd,65af66c3ba3c4b3e69317330,2024-01-23_21h39.59.872,bars,2023.2.3,Win32,144.9275362,657b66ea316d21385b68909f,,,,,,,,,,,1291.1226,1292.1204,,,1292.6215,1292.8718,,4,184,,,,,,,,,,,,,,,,bars/016.png,bars/mask003.png,,,,,,,,,,,,0,2,,,,,,,10,0,10,0,,,,,,,,,,,1292.1205,1292.6214,1292.8718,1297.1999,space,4.3221,,1297.1999,36,19,1298.2014,1298.2014,1298.2096,,,,0,42,42,42,1,40,165,,,,,,,,
,,653178c7d58b18168deb79bd,65af66c3ba3c4b3e69317330,2024-01-23_21h39.59.872,bars,2023.2.3,Win32,144.9275362,657b66ea316d21385b68909f,,,,,,,,,,,1298.2097,1299.2102,,,1299.7113,1299.9616,,131,131,,,,,,,,,,,,,,,,bars/037.png,bars/mask000.png,,,,,,,,,,,,3,1,,,,,,,8,0,8,1,,,,,,,,,,,1299.2102,1299.7112,1299.9616,1301.9373,space,1.9737,,1301.9374,19,26,1302.9322,1302.9322,1302.9402,,,,0,43,43,43,1,150,105,,,,,,,,
,,653178c7d58b18168deb79bd,65af66c3ba3c4b3e69317330,2024-01-23_21h39.59.872,bars,2023.2.3,Win32,144.9275362,657b66ea316d21385b68909f,,,,,,,,,,,1302.9403,1303.9412,,,1304.4421,1304.6926,,179,-1,,,,,,,,,,,,,,,,bars/000.png,bars/mask004.png,,,,,,,,,,,,0,2,,,,,,,10,2,10,0,,,,,,,,,,,1303.9412,1304.4421,1304.6926,1308.8601,space,4.1632,,1308.8602,41,34,1309.8621,1309.8621,1309.8707,,,,0,44,44,44,1,40,145,,,,,,,,
,,653178c7d58b18168deb79bd,65af66c3ba3c4b3e69317330,2024-01-23_21h39.59.872,bars,2023.2.3,Win32,144.9275362,657b66ea316d21385b68909f,,,,,,,,,,,1309.8708,1310.8708,,,1311.3717,1311.6224,,111,111,,,,,,,,,,,,,,,,bars/049.png,bars/mask004.png,,,,,,,,,,,,3,2,,,,,,,10,4,10,4,,,,,,,,,,,1310.8708,1311.3717,1311.6224,1313.0626,space,1.4332,,1313.0626,49,4,1314.0652,1314.0652,1314.0658,,,,0,45,45,45,1,160,115,,,,,,,,
,,653178c7d58b18168deb79bd,65af66c3ba3c4b3e69317330,2024-01-23_21h39.59.872,bars,2023.2.3,Win32,144.9275362,657b66ea316d21385b68909f,,,,,,,,,,,1314.0661,1315.066,,,1315.567,1315.8175,,77,77,,,,,,,,,,,,,,,,bars/030.png,bars/mask000.png,,,,,,,,,,,,3,2,,,,,,,8,6,9,5,,,,,,,,,,,1315.0661,1315.567,1315.8175,1318.6913,space,2.8703,,1318.6914,63,12,1319.6864,1319.6864,1319.6939,,,,0,46,46,46,1,140,65,,,,,,,,
,,653178c7d58b18168deb79bd,65af66c3ba3c4b3e69317330,2024-01-23_21h39.59.872,bars,2023.2.3,Win32,144.9275362,657b66ea316d21385b68909f,,,,,,,,,,,1319.6941,1320.6946,,,1321.1958,1321.446,,3,3,,,,,,,,,,,,,,,,bars/048.png,bars/mask001.png,,,,,,,,,,,,6,2,,,,,,,10,8,9,8,,,,,,,,,,,1320.6948,1321.1958,1321.446,1322.0864,space,0.6286,,1322.0864,47,8,1323.0881,1323.0882,1323.0887,,,,0,47,47,47,1,50,175,,,,,,,,
,,653178c7d58b18168deb79bd,65af66c3ba3c4b3e69317330,2024-01-23_21h39.59.872,bars,2023.2.3,Win32,144.9275362,657b66ea316d21385b68909f,,,,,,,,,,,1323.0889,1324.09,,,1324.5916,1324.8416,,74,74,,,,,,,,,,,,,,,,bars/025.png,bars/mask000.png,,,,,,,,,,,,0,1,,,,,,,10,6,10,7,,,,,,,,,,,1324.0901,1324.5916,1324.8416,1328.1882,space,3.3361,,1328.1882,31,34,1329.1907,1329.1907,1329.1991,,,,0,48,48,48,1,105,40,,,,,,,,
,,653178c7d58b18168deb79bd,65af66c3ba3c4b3e69317330,2024-01-23_21h39.59.872,bars,2023.2.3,Win32,144.9275362,657b66ea316d21385b68909f,,,,,,,,,,,1329.1993,1330.1986,,,1330.6996,1330.95,,118,118,,,,,,,,,,,,,,,,bars/011.png,bars/mask009.png,,,,,,,,,,,,0,2,,,,,,,8,8,9,9,,,,,,,,,,,1330.1989,1330.6995,1330.95,1337.693,space,6.7406,,1337.693,42,33,1338.6943,1338.6943,1338.7018,,,,0,49,49,49,1,160,85,,,,,,,,
,,653178c7d58b18168deb79bd,65af66c3ba3c4b3e69317330,2024-01-23_21h39.59.872,bars,2023.2.3,Win32,144.9275362,657b66ea316d21385b68909f,,,,,,,,,,,,,,,,,,,,,,,,,,,,,,,,,,,,,,,,,,,,,,,,,,,,,,,,,,,,,,,,,,,,,,,,,,,,,,,,,,,,,,,,,,,,,1338.7018,1395.7415,0,3,3,1,1,sequence_tables/blk038.csv
,,653178c7d58b18168deb79bd,65af66c3ba3c4b3e69317330,2024-01-23_21h39.59.872,bars,2023.2.3,Win32,144.9275362,657b66ea316d21385b68909f,,,,,,,,,,,1396.7023,1397.7006,,,1398.2024,1398.4521,,112,112,,,,,,,,,,,,,,,,bars/018.png,bars/mask005.png,,,,,,,,,,,,2,2,,,,,,,9,7,10,7,,,,,,1395.7418,1396.6979,space,0.9521,,1397.7006,1398.2023,1398.4521,1400.7611,space,2.3018,,1400.7613,38,22,1401.7563,1401.7564,1401.764,,,,0,0,0,0,1,150,90,,,,,,,,
,,653178c7d58b18168deb79bd,65af66c3ba3c4b3e69317330,2024-01-23_21h39.59.872,bars,2023.2.3,Win32,144.9275362,657b66ea316d21385b68909f,,,,,,,,,,,1401.7641,1402.765,,,1403.2668,1403.5172,,68,68,,,,,,,,,,,,,,,,bars/038.png,bars/mask001.png,,,,,,,,,,,,4,2,,,,,,,7,5,7,4,,,,,,,,,,,1402.765,1403.2667,1403.5172,1404.6865,space,1.1624,,1404.6866,83,2,1405.687,1405.687,1405.6875,,,,0,1,1,1,1,165,70,,,,,,,,
,,653178c7d58b18168deb79bd,65af66c3ba3c4b3e69317330,2024-01-23_21h39.59.872,bars,2023.2.3,Win32,144.9275362,657b66ea316d21385b68909f,,,,,,,,,,,1405.6878,1406.6897,,,1407.1898,1407.4408,,90,90,,,,,,,,,,,,,,,,bars/002.png,bars/mask001.png,,,,,,,,,,,,6,2,,,,,,,5,7,3,7,,,,,,,,,,,1406.6898,1407.1898,1407.4408,1410.7661,space,3.3125,,1410.7661,40,5,1411.761,1411.761,1411.7683,,,,0,2,2,2,1,130,85,,,,,,,,
,,653178c7d58b18168deb79bd,65af66c3ba3c4b3e69317330,2024-01-23_21h39.59.872,bars,2023.2.3,Win32,144.9275362,657b66ea316d21385b68909f,,,,,,,,,,,1411.7685,1412.7698,,,1413.2707,1413.5219,,140,140,,,,,,,,,,,,,,,,bars/046.png,bars/mask004.png,,,,,,,,,,,,3,1,,,,,,,7,5,6,6,,,,,,,,,,,1412.7698,1413.2707,1413.5219,1417.794,space,4.2653,,1417.7941,15,55,1418.7951,1418.7952,1418.804,,,,0,3,3,3,1,155,85,,,,,,,,
,,653178c7d58b18168deb79bd,65af66c3ba3c4b3e69317330,2024-01-23_21h39.59.872,bars,2023.2.3,Win32,144.9275362,657b66ea316d21385b68909f,,,,,,,,,,,1418.8042,1419.8037,,,1420.3047,1420.5551,,167,167,,,,,,,,,,,,,,,,bars/033.png,bars/mask009.png,,,,,,,,,,,,4,2,,,,,,,9,7,9,7,,,,,,,,,,,1419.8037,1420.3047,1420.5551,1426.0528,space,5.4898,,1426.0528,38,12,1427.0536,1427.0536,1427.063,,,,0,4,4,4,1,25,155,,,,,,,,
,,653178c7d58b18168deb79bd,65af66c3ba3c4b3e69317330,2024-01-23_21h39.59.872,bars,2023.2.3,Win32,144.9275362,657b66ea316d21385b68909f,,,,,,,,,,,1427.0634,1428.0628,,,1428.5639,1428.8137,,5,5,,,,,,,,,,,,,,,,bars/007.png,bars/mask002.png,,,,,,,,,,,,4,1,,,,,,,7,5,6,5,,,,,,,,,,,1428.0628,1428.5639,1428.8137,1430.6297,space,1.8097,,1430.6297,10,50,1431.6253,1431.6254,1431.6265,,,,0,5,5,5,1,175,55,,,,,,,,
,,653178c7d58b18168deb79bd,65af66c3ba3c4b3e69317330,2024-01-23_21h39.59.872,bars,2023.2.3,Win32,144.9275362,657b66ea316d21385b68909f,,,,,,,,,,,1431.6266,1432.6266,,,1433.128,1433.3777,,110,110,,,,,,,,,,,,,,,,bars/018.png,bars/mask008.png,,,,,,,,,,,,1,2,,,,,,,5,3,5,3,,,,,,,,,,,1432.6266,1433.128,1433.3777,1437.942,space,4.5575,,1437.942,40,20,1438.937,1438.937,1438.9381,,,,0,6,6,6,1,150,90,,,,,,,,
,,653178c7d58b18168deb79bd,65af66c3ba3c4b3e69317330,2024-01-23_21h39.59.872,bars,2023.2.3,Win32,144.9275362,657b66ea316d21385b68909f,,,,,,,,,,,1438.9382,1439.9636,,,1440.4589,1440.6909,,26,206,,,,,,,,,,,,,,,,bars/042.png,bars/mask006.png,,,,,,,,,,,,0,2,,,,,,,7,1,7,2,,,,,,,,,,,1439.9637,1440.4589,1440.6909,1445.5754,space,4.8777,,1445.5755,61,49,1446.5762,1446.5763,1446.5773,,,,0,7,7,7,1,145,75,,,,,,,,
,,653178c7d58b18168deb79bd,65af66c3ba3c4b3e69317330,2024-01-23_21h39.59.872,bars,2023.2.3,Win32,144.9275362,657b66ea316d21385b68909f,,,,,,,,,,,1446.5777,1447.5781,,,1448.079,1448.3302,,178,-2,,,,,,,,,,,,,,,,bars/013.png,bars/mask000.png,,,,,,,,,,,,2,2,,,,,,,9,3,9,3,,,,,,,,,,,1447.5781,1448.079,1448.3302,1449.8332,space,1.4962,,1449.8332,77,12,1450.8343,1450.8343,1450.835,,,,0,8,8,8,1,75,10,,,,,,,,
,,653178c7d58b18168deb79bd,65af66c3ba3c4b3e69317330,2024-01-23_21h39.59.872,bars,2023.2.3,Win32,144.9275362,657b66ea316d21385b68909f,,,,,,,,,,,1450.8352,1451.8361,,,1452.3371,1452.5882,,164,-16,,,,,,,,,,,,,,,,bars/040.png,bars/mask007.png,,,,,,,,,,,,2,2,,,,,,,10,5,10,8,,,,,,,,,,,1451.8362,1452.337,1452.5882,1454.0623,space,1.4633,,1454.0624,24,21,1455.0575,1455.0575,1455.0582,,,,0,9,9,9,1,140,5,,,,,,,,
,,653178c7d58b18168deb79bd,65af66c3ba3c4b3e69317330,2024-01-23_21h39.59.872,bars,2023.2.3,Win32,144.9275362,657b66ea316d21385b68909f,,,,,,,,,,,1455.0586,1456.06,,,1456.561,1456.8114,,65,65,,,,,,,,,,,,,,,,bars/035.png,bars/mask000.png,,,,,,,,,,,,4,2,,,,,,,8,7,7,5,,,,,,,,,,,1456.06,1456.5609,1456.8114,1460.658,space,3.8385,,1460.658,70,5,1461.6605,1461.6605,1461.6612,,,,0,10,10,10,1,175,60,,,,,,,,
,,653178c7d58b18168deb79bd,65af66c3ba3c4b3e69317330,2024-01-23_21h39.59.872,bars,2023.2.3,Win32,144.9275362,657b66ea316d21385b68909f,,,,,,,,,,,1461.6615,1462.6625,,,1463.1633,1463.414,,99,99,,,,,,,,,,,,,,,,bars/039.png,bars/mask002.png,,,,,,,,,,,,4,2,,,,,,,10,5,10,5,,,,,,,,,,,1462.6625,1463.1633,1463.414,1463.9839,space,0.558,,1463.984,76,6,1464.9863,1464.9863,1464.9871,,,,0,11,11,11,1,175,105,,,,,,,,
,,653178c7d58b18168deb79bd,65af66c3ba3c4b3e69317330,2024-01-23_21h39.59.872,bars,2023.2.3,Win32,144.9275362,657b66ea316d21385b68909f,,,,,,,,,,,1464.9875,1465.9886,,,1466.4893,1466.7393,,54,54,,,,,,,,,,,,,,,,bars/016.png,bars/mask006.png,,,,,,,,,,,,4,1,,,,,,,10,3,8,2,,,,,,,,,,,1465.9886,1466.4893,1466.7393,1467.2678,space,0.5242,,1467.2679,14,69,1468.2631,1468.2631,1468.2717,,,,0,12,12,12,1,40,165,,,,,,,,
,,653178c7d58b18168deb79bd,65af66c3ba3c4b3e69317330,2024-01-23_21h39.59.872,bars,2023.2.3,Win32,144.9275362,657b66ea316d21385b68909f,,,,,,,,,,,1468.272,1469.2715,,,1469.7732,1470.0234,,128,128,,,,,,,,,,,,,,,,bars/043.png,bars/mask000.png,,,,,,,,,,,,5,2,,,,,,,8,5,7,5,,,,,,,,,,,1469.2715,1469.7732,1470.0234,1471.3458,space,1.3157,,1471.3458,82,2,1472.3471,1472.3471,1472.3491,,,,0,13,13,13,1,30,130,,,,,,,,
,,653178c7d58b18168deb79bd,65af66c3ba3c4b3e69317330,2024-01-23_21h39.59.872,bars,2023.2.3,Win32,144.9275362,657b66ea316d21385b68909f,,,,,,,,,,,1472.3493,1473.3491,,,1473.8496,1474.1005,,29,29,,,,,,,,,,,,,,,,bars/035.png,bars/mask006.png,,,,,,,,,,,,0,2,,,,,,,10,7,9,6,,,,,,,,,,,1473.3491,1473.8495,1474.1006,1476.0488,space,1.9415,,1476.0489,34,31,1477.0506,1477.0506,1477.0517,,,,0,14,14,14,1,175,60,,,,,,,,
