init_variables.started,init_variables.stopped,participant,session,date,expName,psychopyVersion,OS,frameRate,study_id,instruction_exp.started,instruction_exp.stopped,key_resp_8.keys,key_resp_8.rt,key_resp_8.duration,instruction_single.started,instruction_single.stopped,key_resp_2.keys,key_resp_2.rt,key_resp_2.duration,interval.started,interval.stopped,cue_single.started,cue_single.stopped,mask.started,mask.stopped,ori_response_single.started,res_ori,res,ori_response_single.stopped,key_resp_single.keys,key_resp_single.rt,key_resp_single.duration,disp_single.started,disp_single.stopped,key_resp.keys,key_resp.rt,key_resp.duration,single.thisRepN,single.thisTrialN,single.thisN,single.thisIndex,single.ran,ori,path,mask_path,instruction_bandit.started,instruction_bandit.stopped,key_resp_6.keys,key_resp_6.rt,key_resp_6.duration,cue_bandit.started,cue_bandit.stopped,bandit_res.keys,bandit_res.rt,bandit_res.duration,outcome_bandit.started,rew,action,outcome_bandit.stopped,bandit.thisRepN,bandit.thisTrialN,bandit.thisN,bandit.thisIndex,bandit.ran,actual_rew1,actual_rew2,rew1,rew2,instruction_task.started,instruction_task.stopped,key_resp_7.keys,key_resp_7.rt,key_resp_7.duration,wait_ready.started,wait_ready.stopped,key_resp_3.keys,key_resp_3.rt,key_resp_3.duration,cue.started,cue.stopped,ori_response.started,ori_response.stopped,key_resp_5.keys,key_resp_5.rt,key_resp_5.duration,outcome.started,diff1,diff2,outcome.stopped,disp_outcome_practice.started,disp_outcome_practice.stopped,key_resp_4.keys,key_resp_4.rt,key_resp_4.duration,trials.thisRepN,trials.thisTrialN,trials.thisN,trials.thisIndex,trials.ran,ori1,ori2,break_blk.started,break_blk.stopped,block.thisRepN,block.thisTrialN,block.thisN,block.thisIndex,block.ran,condition_file
0.0002,0.0002,5c579b1191c0ad0001cfd373,65b1a1d8f6e3a1d54d48fb89,2024-01-24_15h49.29.870,bars,2023.2.3,Win32,60.24096386,657b66ea316d21385b68909f,,,,,,,,,,,,,,,,,,,,,,,,,,,,,,,,,,,,,,,,,,,,,,,,,,,,,,,,,,,,,,,,,,,,,,,,,,,,,,,,,,,,,,,,,,,,,,,,,,,,
,,5c579b1191c0ad0001cfd373,65b1a1d8f6e3a1d54d48fb89,2024-01-24_15h49.29.870,bars,2023.2.3,Win32,60.24096386,657b66ea316d21385b68909f,0.0004,5.9203,y,5.912,,,,,,,,,,,,,,,,,,,,,,,,,,,,,,,,,,,,,,,,,,,,,,,,,,,,,,,,,,,,,,,,,,,,,,,,,,,,,,,,,,,,,,,,,,,,,,,,
,,5c579b1191c0ad0001cfd373,65b1a1d8f6e3a1d54d48fb89,2024-01-24_15h49.29.870,bars,2023.2.3,Win32,60.24096386,657b66ea316d21385b68909f,,,,,,5.9204,17.3821,space,11.4469,,,,,,,,,,,,,,,,,,,,,,,,,,,,,,,,,,,,,,,,,,,,,,,,,,,,,,,,,,,,,,,,,,,,,,,,,,,,,,,,,,,,,,,,,,,
,,5c579b1191c0ad0001cfd373,65b1a1d8f6e3a1d54d48fb89,2024-01-24_15h49.29.870,bars,2023.2.3,Win32,60.24096386,657b66ea316d21385b68909f,,,,,,,,,,,17.3862,18.3846,18.3847,18.8834,18.8835,19.1335,19.1337,4,4,24.6244,space,5.4716,,24.6246,27.6258,space,2.9819,,0,0,0,6,1,175,bars/single006.png,bars/mask005.png,,,,,,,,,,,,,,,,,,,,,,,,,,,,,,,,,,,,,,,,,,,,,,,,,,,,,,,,,,,,,,,,
,,5c579b1191c0ad0001cfd373,65b1a1d8f6e3a1d54d48fb89,2024-01-24_15h49.29.870,bars,2023.2.3,Win32,60.24096386,657b66ea316d21385b68909f,,,,,,,,,,,27.6263,28.6262,28.6263,29.1286,29.1286,29.3789,29.3789,62,62,44.4086,space,14.9942,,44.4086,76.4746,space,32.0349,,0,1,1,9,1,20,bars/single009.png,bars/mask006.png,,,,,,,,,,,,,,,,,,,,,,,,,,,,,,,,,,,,,,,,,,,,,,,,,,,,,,,,,,,,,,,,
,,5c579b1191c0ad0001cfd373,65b1a1d8f6e3a1d54d48fb89,2024-01-24_15h49.29.870,bars,2023.2.3,Win32,60.24096386,657b66ea316d21385b68909f,,,,,,,,,,,76.4811,77.475,77.475,77.9762,77.9764,78.2254,78.2254,0,0,80.4781,space,2.2207,,80.4782,81.8968,space,1.3894,,0,2,2,1,1,20,bars/single001.png,bars/mask006.png,,,,,,,,,,,,,,,,,,,,,,,,,,,,,,,,,,,,,,,,,,,,,,,,,,,,,,,,,,,,,,,,
,,5c579b1191c0ad0001cfd373,65b1a1d8f6e3a1d54d48fb89,2024-01-24_15h49.29.870,bars,2023.2.3,Win32,60.24096386,657b66ea316d21385b68909f,,,,,,,,,,,81.8971,82.8973,82.8974,83.3977,83.3977,83.648,83.6481,43,43,86.668,space,2.9959,,86.6681,89.6707,space,2.9839,,0,3,3,7,1,45,bars/single007.png,bars/mask009.png,,,,,,,,,,,,,,,,,,,,,,,,,,,,,,,,,,,,,,,,,,,,,,,,,,,,,,,,,,,,,,,,
,,5c579b1191c0ad0001cfd373,65b1a1d8f6e3a1d54d48fb89,2024-01-24_15h49.29.870,bars,2023.2.3,Win32,60.24096386,657b66ea316d21385b68909f,,,,,,,,,,,89.6714,90.6716,90.6718,91.1721,91.1722,91.4223,91.4224,83,83,95.3262,space,3.8852,,95.3263,97.1785,space,1.821,,0,4,4,4,1,95,bars/single004.png,bars/mask004.png,,,,,,,,,,,,,,,,,,,,,,,,,,,,,,,,,,,,,,,,,,,,,,,,,,,,,,,,,,,,,,,,
,,5c579b1191c0ad0001cfd373,65b1a1d8f6e3a1d54d48fb89,2024-01-24_15h49.29.870,bars,2023.2.3,Win32,60.24096386,657b66ea316d21385b68909f,,,,,,,,,,,97.1791,98.1813,98.1813,98.6796,98.6797,98.9301,98.9301,45,45,104.0186,space,5.0575,,104.0189,105.7203,space,1.6734,,0,5,5,3,1,20,bars/single003.png,bars/mask005.png,,,,,,,,,,,,,,,,,,,,,,,,,,,,,,,,,,,,,,,,,,,,,,,,,,,,,,,,,,,,,,,,
,,5c579b1191c0ad0001cfd373,65b1a1d8f6e3a1d54d48fb89,2024-01-24_15h49.29.870,bars,2023.2.3,Win32,60.24096386,657b66ea316d21385b68909f,,,,,,,,,,,105.7207,106.7209,106.7209,107.2215,107.2216,107.4718,107.4719,153,153,108.2226,space,0.724,,108.2227,109.3593,space,1.1182,,0,6,6,8,1,160,bars/single008.png,bars/mask004.png,,,,,,,,,,,,,,,,,,,,,,,,,,,,,,,,,,,,,,,,,,,,,,,,,,,,,,,,,,,,,,,,
,,5c579b1191c0ad0001cfd373,65b1a1d8f6e3a1d54d48fb89,2024-01-24_15h49.29.870,bars,2023.2.3,Win32,60.24096386,657b66ea316d21385b68909f,,,,,,,,,,,109.3594,110.3581,110.3582,110.8586,110.8588,111.1088,111.1089,74,74,114.0114,space,2.8788,,114.0114,114.7461,space,0.7039,,0,7,7,5,1,55,bars/single005.png,bars/mask008.png,,,,,,,,,,,,,,,,,,,,,,,,,,,,,,,,,,,,,,,,,,,,,,,,,,,,,,,,,,,,,,,,
,,5c579b1191c0ad0001cfd373,65b1a1d8f6e3a1d54d48fb89,2024-01-24_15h49.29.870,bars,2023.2.3,Win32,60.24096386,657b66ea316d21385b68909f,,,,,,,,,,,114.7466,115.7468,115.7469,116.2473,116.2473,116.497,116.497,164,-16,119.05,space,2.5223,,119.0501,120.068,space,0.9946,,0,8,8,0,1,150,bars/single000.png,bars/mask006.png,,,,,,,,,,,,,,,,,,,,,,,,,,,,,,,,,,,,,,,,,,,,,,,,,,,,,,,,,,,,,,,,
,,5c579b1191c0ad0001cfd373,65b1a1d8f6e3a1d54d48fb89,2024-01-24_15h49.29.870,bars,2023.2.3,Win32,60.24096386,657b66ea316d21385b68909f,,,,,,,,,,,120.0685,121.0685,121.0687,121.569,121.569,121.8195,121.8195,107,107,124.2382,space,2.3925,,124.2382,125.4729,space,1.2043,,0,9,9,2,1,145,bars/single002.png,bars/mask003.png,,,,,,,,,,,,,,,,,,,,,,,,,,,,,,,,,,,,,,,,,,,,,,,,,,,,,,,,,,,,,,,,
,,5c579b1191c0ad0001cfd373,65b1a1d8f6e3a1d54d48fb89,2024-01-24_15h49.29.870,bars,2023.2.3,Win32,60.24096386,657b66ea316d21385b68909f,,,,,,,,,,,,,,,,,,,,,,,,,,,,,,,,,,,,,125.4739,130.9794,space,5.4826,,,,,,,,,,,,,,,,,,,,,,,,,,,,,,,,,,,,,,,,,,,,,,,,,,,,,,,,,,,,
,,5c579b1191c0ad0001cfd373,65b1a1d8f6e3a1d54d48fb89,2024-01-24_15h49.29.870,bars,2023.2.3,Win32,60.24096386,657b66ea316d21385b68909f,,,,,,,,,,,,,,,,,,,,,,,,,,,,,,,,,,,,,,,,,,130.9876,131.9294,left,0.9209,,131.9295,9,1,132.9309,0,0,0,0,1,9,1,9,2,,,,,,,,,,,,,,,,,,,,,,,,,,,,,,,,,,,,,,,,,
,,5c579b1191c0ad0001cfd373,65b1a1d8f6e3a1d54d48fb89,2024-01-24_15h49.29.870,bars,2023.2.3,Win32,60.24096386,657b66ea316d21385b68909f,,,,,,,,,,,,,,,,,,,,,,,,,,,,,,,,,,,,,,,,,,132.9314,133.7314,left,0.777,,133.7314,10,1,134.7321,0,1,1,1,1,10,0,10,1,,,,,,,,,,,,,,,,,,,,,,,,,,,,,,,,,,,,,,,,,
,,5c579b1191c0ad0001cfd373,65b1a1d8f6e3a1d54d48fb89,2024-01-24_15h49.29.870,bars,2023.2.3,Win32,60.24096386,657b66ea316d21385b68909f,,,,,,,,,,,,,,,,,,,,,,,,,,,,,,,,,,,,,,,,,,134.7327,135.3664,right,0.6075,,135.3665,2,2,136.367,0,2,2,2,1,10,2,10,2,,,,,,,,,,,,,,,,,,,,,,,,,,,,,,,,,,,,,,,,,
,,5c579b1191c0ad0001cfd373,65b1a1d8f6e3a1d54d48fb89,2024-01-24_15h49.29.870,bars,2023.2.3,Win32,60.24096386,657b66ea316d21385b68909f,,,,,,,,,,,,,,,,,,,,,,,,,,,,,,,,,,,,,,,,,,136.3675,136.718,left,0.3242,,136.7182,7,1,137.7186,0,3,3,3,1,8,4,7,3,,,,,,,,,,,,,,,,,,,,,,,,,,,,,,,,,,,,,,,,,
,,5c579b1191c0ad0001cfd373,65b1a1d8f6e3a1d54d48fb89,2024-01-24_15h49.29.870,bars,2023.2.3,Win32,60.24096386,657b66ea316d21385b68909f,,,,,,,,,,,,,,,,,,,,,,,,,,,,,,,,,,,,,,,,,,137.7192,138.136,left,0.3889,,138.1362,5,1,139.1367,0,4,4,4,1,6,2,5,1,,,,,,,,,,,,,,,,,,,,,,,,,,,,,,,,,,,,,,,,,
,,5c579b1191c0ad0001cfd373,65b1a1d8f6e3a1d54d48fb89,2024-01-24_15h49.29.870,bars,2023.2.3,Win32,60.24096386,657b66ea316d21385b68909f,,,,,,,,,,,,,,,,,,,,,,,,,,,,,,,,,,,,,,,,,,139.1375,139.487,left,0.3308,,139.487,4,1,140.488,0,5,5,5,1,4,4,4,4,,,,,,,,,,,,,,,,,,,,,,,,,,,,,,,,,,,,,,,,,
,,5c579b1191c0ad0001cfd373,65b1a1d8f6e3a1d54d48fb89,2024-01-24_15h49.29.870,bars,2023.2.3,Win32,60.24096386,657b66ea316d21385b68909f,,,,,,,,,,,,,,,,,,,,,,,,,,,,,,,,,,,,,,,,,,140.4884,140.8215,right,0.3076,,140.8216,2,2,141.8225,0,6,6,6,1,2,2,1,2,,,,,,,,,,,,,,,,,,,,,,,,,,,,,,,,,,,,,,,,,
,,5c579b1191c0ad0001cfd373,65b1a1d8f6e3a1d54d48fb89,2024-01-24_15h49.29.870,bars,2023.2.3,Win32,60.24096386,657b66ea316d21385b68909f,,,,,,,,,,,,,,,,,,,,,,,,,,,,,,,,,,,,,,,,,,141.8234,142.1401,left,0.2845,,142.1402,0,1,143.1408,0,7,7,7,1,0,0,0,1,,,,,,,,,,,,,,,,,,,,,,,,,,,,,,,,,,,,,,,,,
,,5c579b1191c0ad0001cfd373,65b1a1d8f6e3a1d54d48fb89,2024-01-24_15h49.29.870,bars,2023.2.3,Win32,60.24096386,657b66ea316d21385b68909f,,,,,,,,,,,,,,,,,,,,,,,,,,,,,,,,,,,,,,,,,,143.1414,143.374,right,0.2146,,143.3741,0,2,144.3752,0,8,8,8,1,0,2,1,0,,,,,,,,,,,,,,,,,,,,,,,,,,,,,,,,,,,,,,,,,
,,5c579b1191c0ad0001cfd373,65b1a1d8f6e3a1d54d48fb89,2024-01-24_15h49.29.870,bars,2023.2.3,Win32,60.24096386,657b66ea316d21385b68909f,,,,,,,,,,,,,,,,,,,,,,,,,,,,,,,,,,,,,,,,,,144.3758,144.6923,right,0.2924,,144.6923,3,2,145.693,0,9,9,9,1,2,4,2,3,,,,,,,,,,,,,,,,,,,,,,,,,,,,,,,,,,,,,,,,,
,,5c579b1191c0ad0001cfd373,65b1a1d8f6e3a1d54d48fb89,2024-01-24_15h49.29.870,bars,2023.2.3,Win32,60.24096386,657b66ea316d21385b68909f,,,,,,,,,,,,,,,,,,,,,,,,,,,,,,,,,,,,,,,,,,145.6938,145.9932,left,0.2785,,145.9934,0,1,146.9944,0,10,10,10,1,0,2,0,3,,,,,,,,,,,,,,,,,,,,,,,,,,,,,,,,,,,,,,,,,
,,5c579b1191c0ad0001cfd373,65b1a1d8f6e3a1d54d48fb89,2024-01-24_15h49.29.870,bars,2023.2.3,Win32,60.24096386,657b66ea316d21385b68909f,,,,,,,,,,,,,,,,,,,,,,,,,,,,,,,,,,,,,,,,,,146.995,147.2946,right,0.2736,,147.2946,3,2,148.2955,0,11,11,11,1,0,4,0,3,,,,,,,,,,,,,,,,,,,,,,,,,,,,,,,,,,,,,,,,,
,,5c579b1191c0ad0001cfd373,65b1a1d8f6e3a1d54d48fb89,2024-01-24_15h49.29.870,bars,2023.2.3,Win32,60.24096386,657b66ea316d21385b68909f,,,,,,,,,,,,,,,,,,,,,,,,,,,,,,,,,,,,,,,,,,148.296,148.5462,right,0.2193,,148.5463,6,2,149.5469,0,12,12,12,1,2,6,1,6,,,,,,,,,,,,,,,,,,,,,,,,,,,,,,,,,,,,,,,,,
,,5c579b1191c0ad0001cfd373,65b1a1d8f6e3a1d54d48fb89,2024-01-24_15h49.29.870,bars,2023.2.3,Win32,60.24096386,657b66ea316d21385b68909f,,,,,,,,,,,,,,,,,,,,,,,,,,,,,,,,,,,,,,,,,,149.5476,149.9812,right,0.4011,,149.9814,3,2,150.9817,0,13,13,13,1,0,4,1,3,,,,,,,,,,,,,,,,,,,,,,,,,,,,,,,,,,,,,,,,,
,,5c579b1191c0ad0001cfd373,65b1a1d8f6e3a1d54d48fb89,2024-01-24_15h49.29.870,bars,2023.2.3,Win32,60.24096386,657b66ea316d21385b68909f,,,,,,,,,,,,,,,,,,,,,,,,,,,,,,,,,,,,,,,,,,150.9821,151.3325,left,0.3183,,151.3326,2,1,152.333,0,14,14,14,1,2,6,2,7,,,,,,,,,,,,,,,,,,,,,,,,,,,,,,,,,,,,,,,,,
,,5c579b1191c0ad0001cfd373,65b1a1d8f6e3a1d54d48fb89,2024-01-24_15h49.29.870,bars,2023.2.3,Win32,60.24096386,657b66ea316d21385b68909f,,,,,,,,,,,,,,,,,,,,,,,,,,,,,,,,,,,,,,,,,,152.3337,152.934,right,0.5749,,152.9341,9,2,153.9346,0,15,15,15,1,4,8,3,9,,,,,,,,,,,,,,,,,,,,,,,,,,,,,,,,,,,,,,,,,
,,5c579b1191c0ad0001cfd373,65b1a1d8f6e3a1d54d48fb89,2024-01-24_15h49.29.870,bars,2023.2.3,Win32,60.24096386,657b66ea316d21385b68909f,,,,,,,,,,,,,,,,,,,,,,,,,,,,,,,,,,,,,,,,,,153.9353,154.3871,right,0.4338,,154.3871,7,2,155.3861,0,16,16,16,1,6,6,7,7,,,,,,,,,,,,,,,,,,,,,,,,,,,,,,,,,,,,,,,,,
,,5c579b1191c0ad0001cfd373,65b1a1d8f6e3a1d54d48fb89,2024-01-24_15h49.29.870,bars,2023.2.3,Win32,60.24096386,657b66ea316d21385b68909f,,,,,,,,,,,,,,,,,,,,,,,,,,,,,,,,,,,,,,,,,,155.3869,155.8534,right,0.4352,,155.8534,5,2,156.8542,0,17,17,17,1,8,4,9,5,,,,,,,,,,,,,,,,,,,,,,,,,,,,,,,,,,,,,,,,,
,,5c579b1191c0ad0001cfd373,65b1a1d8f6e3a1d54d48fb89,2024-01-24_15h49.29.870,bars,2023.2.3,Win32,60.24096386,657b66ea316d21385b68909f,,,,,,,,,,,,,,,,,,,,,,,,,,,,,,,,,,,,,,,,,,156.8549,157.5052,left,0.6208,,157.5053,5,1,158.5059,0,18,18,18,1,6,2,5,1,,,,,,,,,,,,,,,,,,,,,,,,,,,,,,,,,,,,,,,,,
,,5c579b1191c0ad0001cfd373,65b1a1d8f6e3a1d54d48fb89,2024-01-24_15h49.29.870,bars,2023.2.3,Win32,60.24096386,657b66ea316d21385b68909f,,,,,,,,,,,,,,,,,,,,,,,,,,,,,,,,,,,,,,,,,,158.5067,159.0066,right,0.4823,,159.0066,0,2,160.0074,0,19,19,19,1,8,0,7,0,,,,,,,,,,,,,,,,,,,,,,,,,,,,,,,,,,,,,,,,,
,,5c579b1191c0ad0001cfd373,65b1a1d8f6e3a1d54d48fb89,2024-01-24_15h49.29.870,bars,2023.2.3,Win32,60.24096386,657b66ea316d21385b68909f,,,,,,,,,,,,,,,,,,,,,,,,,,,,,,,,,,,,,,,,,,,,,,,,,,,,,,,,,,,,160.0084,166.9484,space,6.9162,,,,,,,,,,,,,,,,,,,,,,,,,,,,,,,,,,,,,
,,5c579b1191c0ad0001cfd373,65b1a1d8f6e3a1d54d48fb89,2024-01-24_15h49.29.870,bars,2023.2.3,Win32,60.24096386,657b66ea316d21385b68909f,,,,,,,,,,,167.5674,168.5656,,,169.0671,169.3166,,78,78,,,,,,,,,,,,,,,,bars/047.png,bars/mask002.png,,,,,,,,,,,,1,2,,,,,,,5,1,6,1,,,,,,166.9565,167.5647,space,0.5923,,168.5658,169.067,169.3171,172.203,space,2.8552,,172.2032,63,8,173.2046,173.2047,175.4069,space,2.1702,,0,0,0,0,1,15,70,,,,,,,,
,,5c579b1191c0ad0001cfd373,65b1a1d8f6e3a1d54d48fb89,2024-01-24_15h49.29.870,bars,2023.2.3,Win32,60.24096386,657b66ea316d21385b68909f,,,,,,,,,,,175.4074,176.4072,,,176.9078,177.1599,,105,105,,,,,,,,,,,,,,,,bars/025.png,bars/mask002.png,,,,,,,,,,,,3,1,,,,,,,3,0,3,0,,,,,,,,,,,176.4073,176.9078,177.1599,178.5755,space,1.3973,,178.5756,0,65,179.5764,179.5765,181.1117,space,1.5064,,0,1,1,1,1,105,40,,,,,,,,
,,5c579b1191c0ad0001cfd373,65b1a1d8f6e3a1d54d48fb89,2024-01-24_15h49.29.870,bars,2023.2.3,Win32,60.24096386,657b66ea316d21385b68909f,,,,,,,,,,,181.1119,182.1129,,,182.6133,182.8636,,72,72,,,,,,,,,,,,,,,,bars/012.png,bars/mask007.png,,,,,,,,,,,,2,1,,,,,,,5,0,4,1,,,,,,,,,,,182.1131,182.6131,182.8637,184.968,space,2.0865,,184.9681,18,57,185.9661,185.9663,186.8339,space,0.8365,,0,2,2,2,1,90,15,,,,,,,,
,,5c579b1191c0ad0001cfd373,65b1a1d8f6e3a1d54d48fb89,2024-01-24_15h49.29.870,bars,2023.2.3,Win32,60.24096386,657b66ea316d21385b68909f,,,,,,,,,,,186.8342,187.8348,,,188.3359,188.586,,4,184,,,,,,,,,,,,,,,,bars/045.png,bars/mask005.png,,,,,,,,,,,,2,2,,,,,,,3,0,3,2,,,,,,,,,,,187.8349,188.3358,188.5861,190.3374,space,1.721,,190.3374,84,6,191.3386,191.3387,192.457,space,1.0881,,0,3,3,3,1,100,10,,,,,,,,
,,5c579b1191c0ad0001cfd373,65b1a1d8f6e3a1d54d48fb89,2024-01-24_15h49.29.870,bars,2023.2.3,Win32,60.24096386,657b66ea316d21385b68909f,,,,,,,,,,,192.4575,193.4575,,,193.958,194.2081,,82,82,,,,,,,,,,,,,,,,bars/034.png,bars/mask003.png,,,,,,,,,,,,0,2,,,,,,,1,0,2,1,,,,,,,,,,,193.4576,193.9578,194.2082,196.5109,space,2.2751,,196.511,43,17,197.5115,197.5116,199.2304,space,1.6853,,0,4,4,4,1,125,65,,,,,,,,
,,5c579b1191c0ad0001cfd373,65b1a1d8f6e3a1d54d48fb89,2024-01-24_15h49.29.870,bars,2023.2.3,Win32,60.24096386,657b66ea316d21385b68909f,,,,,,,,,,,199.2312,200.2308,,,200.7313,200.9815,,147,147,,,,,,,,,,,,,,,,bars/000.png,bars/mask005.png,,,,,,,,,,,,2,2,,,,,,,0,2,0,2,,,,,,,,,,,200.2309,200.7312,200.9816,206.3373,space,5.3256,,206.3375,73,2,207.338,207.3383,208.7562,space,1.3849,,0,5,5,5,1,40,145,,,,,,,,
,,5c579b1191c0ad0001cfd373,65b1a1d8f6e3a1d54d48fb89,2024-01-24_15h49.29.870,bars,2023.2.3,Win32,60.24096386,657b66ea316d21385b68909f,,,,,,,,,,,208.7567,209.757,,,210.2576,210.5078,,11,191,,,,,,,,,,,,,,,,bars/024.png,bars/mask002.png,,,,,,,,,,,,0,2,,,,,,,0,0,2,0,,,,,,,,,,,209.757,210.2575,210.5079,213.3434,space,2.8155,,213.3435,71,21,214.3447,214.3449,216.6305,space,2.2667,,0,6,6,6,1,120,170,,,,,,,,
,,5c579b1191c0ad0001cfd373,65b1a1d8f6e3a1d54d48fb89,2024-01-24_15h49.29.870,bars,2023.2.3,Win32,60.24096386,657b66ea316d21385b68909f,,,,,,,,,,,216.631,217.6312,,,218.1317,218.3819,,94,94,,,,,,,,,,,,,,,,bars/049.png,bars/mask002.png,,,,,,,,,,,,1,2,,,,,,,0,2,0,3,,,,,,,,,,,217.6313,218.1317,218.382,222.2698,space,3.8542,,222.27,66,21,223.2702,223.2703,223.888,space,0.5893,,0,7,7,7,1,160,115,,,,,,,,
,,5c579b1191c0ad0001cfd373,65b1a1d8f6e3a1d54d48fb89,2024-01-24_15h49.29.870,bars,2023.2.3,Win32,60.24096386,657b66ea316d21385b68909f,,,,,,,,,,,223.8886,224.8883,,,225.3894,225.6393,,175,175,,,,,,,,,,,,,,,,bars/017.png,bars/mask003.png,,,,,,,,,,,,0,1,,,,,,,0,0,1,0,,,,,,,,,,,224.8884,225.3893,225.6394,230.4942,space,4.8359,,230.4944,30,50,231.4955,231.4956,232.0961,space,0.5715,,0,8,8,8,1,145,45,,,,,,,,
,,5c579b1191c0ad0001cfd373,65b1a1d8f6e3a1d54d48fb89,2024-01-24_15h49.29.870,bars,2023.2.3,Win32,60.24096386,657b66ea316d21385b68909f,,,,,,,,,,,232.0967,233.0968,,,233.5976,233.8473,,113,113,,,,,,,,,,,,,,,,bars/037.png,bars/mask005.png,,,,,,,,,,,,1,2,,,,,,,2,0,4,1,,,,,,,,,,,233.097,233.5975,233.8473,234.7814,space,0.9075,,234.7815,37,8,235.7828,235.7828,236.3333,space,0.5243,,0,9,9,9,1,150,105,,,,,,,,
,,5c579b1191c0ad0001cfd373,65b1a1d8f6e3a1d54d48fb89,2024-01-24_15h49.29.870,bars,2023.2.3,Win32,60.24096386,657b66ea316d21385b68909f,,,,,,,,,,,236.3337,237.3343,,,237.835,238.0851,,10,190,,,,,,,,,,,,,,,,bars/007.png,bars/mask002.png,,,,,,,,,,,,2,1,,,,,,,4,0,3,0,,,,,,,,,,,237.3344,237.835,238.0851,242.4558,space,4.366,,242.4558,15,45,243.4573,243.4573,244.1094,space,0.6343,,0,10,10,10,1,175,55,,,,,,,,
,,5c579b1191c0ad0001cfd373,65b1a1d8f6e3a1d54d48fb89,2024-01-24_15h49.29.870,bars,2023.2.3,Win32,60.24096386,657b66ea316d21385b68909f,,,,,,,,,,,244.1097,245.1088,,,245.6093,245.8595,,101,101,,,,,,,,,,,,,,,,bars/044.png,bars/mask005.png,,,,,,,,,,,,1,1,,,,,,,6,2,6,2,,,,,,,,,,,245.109,245.6092,245.8596,249.4648,space,3.5872,,249.4648,26,54,250.464,250.4641,251.3316,space,0.8353,,0,11,11,11,1,75,155,,,,,,,,
,,5c579b1191c0ad0001cfd373,65b1a1d8f6e3a1d54d48fb89,2024-01-24_15h49.29.870,bars,2023.2.3,Win32,60.24096386,657b66ea316d21385b68909f,,,,,,,,,,,251.3323,252.3326,,,252.8333,253.0837,,105,105,,,,,,,,,,,,,,,,bars/014.png,bars/mask004.png,,,,,,,,,,,,1,1,,,,,,,8,0,7,0,,,,,,,,,,,252.3327,252.8332,253.0838,255.6859,space,2.5761,,255.6861,25,75,256.6872,256.6873,257.4374,space,0.7316,,0,12,12,12,1,80,0,,,,,,,,
,,5c579b1191c0ad0001cfd373,65b1a1d8f6e3a1d54d48fb89,2024-01-24_15h49.29.870,bars,2023.2.3,Win32,60.24096386,657b66ea316d21385b68909f,,,,,,,,,,,257.4377,258.4386,,,258.9391,259.1894,,112,112,,,,,,,,,,,,,,,,bars/027.png,bars/mask001.png,,,,,,,,,,,,9,1,,,,,,,10,0,10,2,,,,,,,,,,,258.4387,258.9391,259.1895,261.8086,space,2.5977,,261.8086,2,62,262.8098,262.8099,263.6442,space,0.8027,,0,13,13,13,1,110,50,,,,,,,,
,,5c579b1191c0ad0001cfd373,65b1a1d8f6e3a1d54d48fb89,2024-01-24_15h49.29.870,bars,2023.2.3,Win32,60.24096386,657b66ea316d21385b68909f,,,,,,,,,,,263.6449,264.647,,,265.1455,265.3956,,149,149,,,,,,,,,,,,,,,,bars/038.png,bars/mask002.png,,,,,,,,,,,,4,1,,,,,,,8,2,8,3,,,,,,,,,,,264.647,265.1454,265.3958,267.2305,space,1.8161,,267.2305,16,79,268.2319,268.232,268.832,space,0.5794,,0,14,14,14,1,165,70,,,,,,,,
,,5c579b1191c0ad0001cfd373,65b1a1d8f6e3a1d54d48fb89,2024-01-24_15h49.29.870,bars,2023.2.3,Win32,60.24096386,657b66ea316d21385b68909f,,,,,,,,,,,268.8328,269.8335,,,270.3337,270.5842,,90,90,,,,,,,,,,,,,,,,bars/022.png,bars/mask002.png,,,,,,,,,,,,8,1,,,,,,,10,0,10,0,,,,,,,,,,,269.8336,270.3337,270.5842,272.2026,space,1.5947,,272.2026,5,70,273.2034,273.2035,273.8378,space,0.6082,,0,15,15,15,1,95,20,,,,,,,,
,,5c579b1191c0ad0001cfd373,65b1a1d8f6e3a1d54d48fb89,2024-01-24_15h49.29.870,bars,2023.2.3,Win32,60.24096386,657b66ea316d21385b68909f,,,,,,,,,,,273.8381,274.8385,,,275.339,275.5912,,134,134,,,,,,,,,,,,,,,,bars/034.png,bars/mask000.png,,,,,,,,,,,,6,1,,,,,,,8,0,8,1,,,,,,,,,,,274.8386,275.3389,275.5912,280.0934,space,4.492,,280.0934,9,69,281.0945,281.0945,281.4452,space,0.3249,,0,16,16,16,1,125,65,,,,,,,,
,,5c579b1191c0ad0001cfd373,65b1a1d8f6e3a1d54d48fb89,2024-01-24_15h49.29.870,bars,2023.2.3,Win32,60.24096386,657b66ea316d21385b68909f,,,,,,,,,,,281.4457,282.4459,,,282.9466,283.1966,,123,123,,,,,,,,,,,,,,,,bars/040.png,bars/mask003.png,,,,,,,,,,,,3,1,,,,,,,6,0,6,1,,,,,,,,,,,282.446,282.9465,283.1967,288.1348,space,4.9106,,288.1348,17,62,289.1358,289.1359,289.553,space,0.3869,,0,17,17,17,1,140,5,,,,,,,,
,,5c579b1191c0ad0001cfd373,65b1a1d8f6e3a1d54d48fb89,2024-01-24_15h49.29.870,bars,2023.2.3,Win32,60.24096386,657b66ea316d21385b68909f,,,,,,,,,,,289.5533,290.554,,,291.0545,291.3049,,116,116,,,,,,,,,,,,,,,,bars/024.png,bars/mask006.png,,,,,,,,,,,,7,1,,,,,,,8,2,8,2,,,,,,,,,,,290.5541,291.0545,291.305,294.5444,space,3.2198,,294.5444,4,54,295.5424,295.5425,295.8591,space,0.2927,,0,18,18,18,1,120,170,,,,,,,,
,,5c579b1191c0ad0001cfd373,65b1a1d8f6e3a1d54d48fb89,2024-01-24_15h49.29.870,bars,2023.2.3,Win32,60.24096386,657b66ea316d21385b68909f,,,,,,,,,,,295.8594,296.8605,,,297.3607,297.6111,,4,4,,,,,,,,,,,,,,,,bars/033.png,bars/mask002.png,,,,,,,,,,,,2,1,,,,,,,6,4,8,5,,,,,,,,,,,296.8606,297.3606,297.6111,298.3119,space,0.6716,,298.3121,21,29,299.3127,299.3127,299.7305,space,0.3943,,0,19,19,19,1,25,155,,,,,,,,
,,5c579b1191c0ad0001cfd373,65b1a1d8f6e3a1d54d48fb89,2024-01-24_15h49.29.870,bars,2023.2.3,Win32,60.24096386,657b66ea316d21385b68909f,,,,,,,,,,,299.7308,300.7307,,,301.231,301.4811,,85,85,,,,,,,,,,,,,,,,bars/022.png,bars/mask003.png,,,,,,,,,,,,5,1,,,,,,,8,2,8,0,,,,,,,,,,,300.7307,301.231,301.4812,302.9495,space,1.4422,,302.9496,10,65,303.9504,303.9505,304.3013,space,0.318,,0,20,20,20,1,95,20,,,,,,,,
,,5c579b1191c0ad0001cfd373,65b1a1d8f6e3a1d54d48fb89,2024-01-24_15h49.29.870,bars,2023.2.3,Win32,60.24096386,657b66ea316d21385b68909f,,,,,,,,,,,304.3016,305.3022,,,305.8026,306.0525,,139,139,,,,,,,,,,,,,,,,bars/010.png,bars/mask006.png,,,,,,,,,,,,1,1,,,,,,,10,4,10,2,,,,,,,,,,,305.3024,305.8025,306.0526,307.8384,space,1.7587,,307.8384,26,84,308.8389,308.839,309.1559,space,0.2925,,0,21,21,21,1,165,55,,,,,,,,
,,5c579b1191c0ad0001cfd373,65b1a1d8f6e3a1d54d48fb89,2024-01-24_15h49.29.870,bars,2023.2.3,Win32,60.24096386,657b66ea316d21385b68909f,,,,,,,,,,,309.1563,310.1566,,,310.6576,310.9077,,148,148,,,,,,,,,,,,,,,,bars/010.png,bars/mask007.png,,,,,,,,,,,,4,1,,,,,,,10,2,10,2,,,,,,,,,,,310.1567,310.6575,310.9078,312.3263,space,1.3994,,312.3264,17,87,313.3268,313.3268,313.6439,space,0.285,,0,22,22,22,1,165,55,,,,,,,,
,,5c579b1191c0ad0001cfd373,65b1a1d8f6e3a1d54d48fb89,2024-01-24_15h49.29.870,bars,2023.2.3,Win32,60.24096386,657b66ea316d21385b68909f,,,,,,,,,,,313.6445,314.6446,,,315.1453,315.3953,,0,0,,,,,,,,,,,,,,,,bars/010.png,bars/mask002.png,,,,,,,,,,,,4,1,,,,,,,10,4,8,4,,,,,,,,,,,314.6446,315.1452,315.3954,317.8649,space,2.4397,,317.865,15,55,318.8678,318.8678,318.9661,space,0.0677,,0,23,23,23,1,165,55,,,,,,,,
,,5c579b1191c0ad0001cfd373,65b1a1d8f6e3a1d54d48fb89,2024-01-24_15h49.29.870,bars,2023.2.3,Win32,60.24096386,657b66ea316d21385b68909f,,,,,,,,,,,318.9668,319.9664,,,320.4673,320.7174,,162,162,,,,,,,,,,,,,,,,bars/049.png,bars/mask007.png,,,,,,,,,,,,7,1,,,,,,,8,6,7,6,,,,,,,,,,,319.9665,320.4672,320.7175,326.5568,space,5.8131,,326.5569,2,47,327.5576,327.5577,327.8744,space,0.294,,0,24,24,24,1,160,115,,,,,,,,
,,5c579b1191c0ad0001cfd373,65b1a1d8f6e3a1d54d48fb89,2024-01-24_15h49.29.870,bars,2023.2.3,Win32,60.24096386,657b66ea316d21385b68909f,,,,,,,,,,,327.8747,328.8756,,,329.3759,329.6264,,141,141,,,,,,,,,,,,,,,,bars/036.png,bars/mask008.png,,,,,,,,,,,,3,1,,,,,,,6,8,4,8,,,,,,,,,,,328.8757,329.3759,329.6264,332.6295,space,2.9699,,332.6297,4,59,333.6301,333.6302,333.9638,space,0.3082,,0,25,25,25,1,145,20,,,,,,,,
,,5c579b1191c0ad0001cfd373,65b1a1d8f6e3a1d54d48fb89,2024-01-24_15h49.29.870,bars,2023.2.3,Win32,60.24096386,657b66ea316d21385b68909f,,,,,,,,,,,333.9644,334.9651,,,335.4656,335.7156,,60,60,,,,,,,,,,,,,,,,bars/014.png,bars/mask008.png,,,,,,,,,,,,3,1,,,,,,,8,10,8,10,,,,,,,,,,,334.9651,335.4656,335.7156,336.7863,space,1.0679,,336.7863,20,60,337.7844,337.7846,338.2685,space,0.4517,,0,26,26,26,1,80,0,,,,,,,,
,,5c579b1191c0ad0001cfd373,65b1a1d8f6e3a1d54d48fb89,2024-01-24_15h49.29.870,bars,2023.2.3,Win32,60.24096386,657b66ea316d21385b68909f,,,,,,,,,,,338.2688,339.2694,,,339.7699,340.0199,,106,106,,,,,,,,,,,,,,,,bars/015.png,bars/mask000.png,,,,,,,,,,,,9,1,,,,,,,10,10,10,9,,,,,,,,,,,339.2695,339.7697,340.0201,342.9084,space,2.8856,,342.9084,4,54,343.9071,343.9072,344.2245,space,0.2882,,0,27,27,27,1,110,160,,,,,,,,
,,5c579b1191c0ad0001cfd373,65b1a1d8f6e3a1d54d48fb89,2024-01-24_15h49.29.870,bars,2023.2.3,Win32,60.24096386,657b66ea316d21385b68909f,,,,,,,,,,,344.2248,345.225,,,345.7256,345.976,,44,44,,,,,,,,,,,,,,,,bars/019.png,bars/mask009.png,,,,,,,,,,,,10,1,,,,,,,10,10,10,9,,,,,,,,,,,345.2251,345.7256,345.9761,346.6952,space,0.7008,,346.6952,1,61,347.6941,347.6942,348.028,space,0.3097,,0,28,28,28,1,45,105,,,,,,,,
,,5c579b1191c0ad0001cfd373,65b1a1d8f6e3a1d54d48fb89,2024-01-24_15h49.29.870,bars,2023.2.3,Win32,60.24096386,657b66ea316d21385b68909f,,,,,,,,,,,348.0283,349.029,,,349.5294,349.7799,,169,169,,,,,,,,,,,,,,,,bars/039.png,bars/mask008.png,,,,,,,,,,,,8,1,,,,,,,10,10,10,8,,,,,,,,,,,349.0291,349.5294,349.7799,351.5819,space,1.7691,,351.5819,6,64,352.5825,352.5826,353.0999,space,0.4847,,0,29,29,29,1,175,105,,,,,,,,
,,5c579b1191c0ad0001cfd373,65b1a1d8f6e3a1d54d48fb89,2024-01-24_15h49.29.870,bars,2023.2.3,Win32,60.24096386,657b66ea316d21385b68909f,,,,,,,,,,,353.1005,354.1006,,,354.6011,354.8515,,28,28,,,,,,,,,,,,,,,,bars/019.png,bars/mask000.png,,,,,,,,,,,,4,1,,,,,,,8,8,9,8,,,,,,,,,,,354.1007,354.601,354.8515,356.0049,space,1.1508,,356.005,17,77,357.0035,357.0035,357.2867,space,0.2639,,0,30,30,30,1,45,105,,,,,,,,
,,5c579b1191c0ad0001cfd373,65b1a1d8f6e3a1d54d48fb89,2024-01-24_15h49.29.870,bars,2023.2.3,Win32,60.24096386,657b66ea316d21385b68909f,,,,,,,,,,,357.287,358.2881,,,358.7886,359.0388,,179,179,,,,,,,,,,,,,,,,bars/035.png,bars/mask006.png,,,,,,,,,,,,6,1,,,,,,,10,6,7,5,,,,,,,,,,,358.2882,358.7886,359.039,361.6584,space,2.5958,,361.6584,4,61,362.6593,362.6593,362.9099,space,0.2243,,0,31,31,31,1,175,60,,,,,,,,
,,5c579b1191c0ad0001cfd373,65b1a1d8f6e3a1d54d48fb89,2024-01-24_15h49.29.870,bars,2023.2.3,Win32,60.24096386,657b66ea316d21385b68909f,,,,,,,,,,,362.9104,363.9105,,,364.4107,364.6611,,21,21,,,,,,,,,,,,,,,,bars/016.png,bars/mask009.png,,,,,,,,,,,,4,1,,,,,,,10,4,10,6,,,,,,,,,,,363.9106,364.4106,364.6611,367.2971,space,2.614,,367.2971,19,36,368.3003,368.3004,369.1658,space,0.8411,,0,32,32,32,1,40,165,,,,,,,,
,,5c579b1191c0ad0001cfd373,65b1a1d8f6e3a1d54d48fb89,2024-01-24_15h49.29.870,bars,2023.2.3,Win32,60.24096386,657b66ea316d21385b68909f,,,,,,,,,,,369.1666,370.1667,,,370.6671,370.9175,,19,19,,,,,,,,,,,,,,,,bars/004.png,bars/mask000.png,,,,,,,,,,,,6,1,,,,,,,8,6,8,8,,,,,,,,,,,370.1668,370.6671,370.9175,373.2389,space,2.3032,,373.2389,6,74,374.2375,374.2376,374.4709,space,0.2055,,0,33,33,33,1,25,125,,,,,,,,
,,5c579b1191c0ad0001cfd373,65b1a1d8f6e3a1d54d48fb89,2024-01-24_15h49.29.870,bars,2023.2.3,Win32,60.24096386,657b66ea316d21385b68909f,,,,,,,,,,,374.4712,375.4718,,,375.9721,376.2226,,155,155,,,,,,,,,,,,,,,,bars/010.png,bars/mask008.png,,,,,,,,,,,,6,1,,,,,,,10,4,9,3,,,,,,,,,,,375.4719,375.972,376.2227,379.2763,space,3.0285,,379.2764,10,80,380.2764,380.2764,380.3454,space,0.0505,,0,34,34,34,1,165,55,,,,,,,,
,,5c579b1191c0ad0001cfd373,65b1a1d8f6e3a1d54d48fb89,2024-01-24_15h49.29.870,bars,2023.2.3,Win32,60.24096386,657b66ea316d21385b68909f,,,,,,,,,,,380.3456,381.3443,,,381.845,382.0949,,14,14,,,,,,,,,,,,,,,,bars/005.png,bars/mask001.png,,,,,,,,,,,,9,1,,,,,,,10,2,10,3,,,,,,,,,,,381.3444,381.845,382.0949,382.8797,space,0.756,,382.8799,4,54,383.88,383.88,384.1135,space,0.2107,,0,35,35,35,1,10,140,,,,,,,,
,,5c579b1191c0ad0001cfd373,65b1a1d8f6e3a1d54d48fb89,2024-01-24_15h49.29.870,bars,2023.2.3,Win32,60.24096386,657b66ea316d21385b68909f,,,,,,,,,,,384.114,385.1145,,,385.6153,385.8657,,171,171,,,,,,,,,,,,,,,,bars/038.png,bars/mask004.png,,,,,,,,,,,,8,1,,,,,,,10,0,10,1,,,,,,,,,,,385.1145,385.6152,385.8657,386.6,space,0.7052,,386.6,6,79,387.6005,387.6006,387.7673,space,0.1462,,0,36,36,36,1,165,70,,,,,,,,
,,5c579b1191c0ad0001cfd373,65b1a1d8f6e3a1d54d48fb89,2024-01-24_15h49.29.870,bars,2023.2.3,Win32,60.24096386,657b66ea316d21385b68909f,,,,,,,,,,,387.7676,388.7683,,,389.2688,389.5191,,100,100,,,,,,,,,,,,,,,,bars/012.png,bars/mask000.png,,,,,,,,,,,,7,1,,,,,,,10,2,10,3,,,,,,,,,,,388.7683,389.2688,389.5192,390.1869,space,0.6514,,390.187,10,85,391.1875,391.1876,391.3879,space,0.1751,,0,37,37,37,1,90,15,,,,,,,,
,,5c579b1191c0ad0001cfd373,65b1a1d8f6e3a1d54d48fb89,2024-01-24_15h49.29.870,bars,2023.2.3,Win32,60.24096386,657b66ea316d21385b68909f,,,,,,,,,,,391.3884,392.3886,,,392.8893,393.1396,,171,171,,,,,,,,,,,,,,,,bars/017.png,bars/mask005.png,,,,,,,,,,,,1,1,,,,,,,8,4,9,5,,,,,,,,,,,392.3887,392.8892,393.1396,394.5079,space,1.3359,,394.508,26,54,395.5084,395.5084,395.7923,space,0.2544,,0,38,38,38,1,145,45,,,,,,,,
,,5c579b1191c0ad0001cfd373,65b1a1d8f6e3a1d54d48fb89,2024-01-24_15h49.29.870,bars,2023.2.3,Win32,60.24096386,657b66ea316d21385b68909f,,,,,,,,,,,395.7927,396.7932,,,397.2938,397.5441,,48,48,,,,,,,,,,,,,,,,bars/026.png,bars/mask005.png,,,,,,,,,,,,6,1,,,,,,,10,6,10,6,,,,,,,,,,,396.7933,397.2937,397.5442,398.5949,space,1.0269,,398.595,13,37,399.5958,399.5959,399.8129,space,0.1911,,0,39,39,39,1,35,85,,,,,,,,
,,5c579b1191c0ad0001cfd373,65b1a1d8f6e3a1d54d48fb89,2024-01-24_15h49.29.870,bars,2023.2.3,Win32,60.24096386,657b66ea316d21385b68909f,,,,,,,,,,,399.8135,400.8136,,,401.3147,401.5647,,131,131,,,,,,,,,,,,,,,,bars/045.png,bars/mask000.png,,,,,,,,,,,,0,1,,,,,,,10,8,10,8,,,,,,,,,,,400.8136,401.3146,401.5648,406.1026,space,4.5101,,406.1027,31,59,407.1033,407.1034,407.6225,space,0.5003,,0,40,40,40,1,100,10,,,,,,,,
,,5c579b1191c0ad0001cfd373,65b1a1d8f6e3a1d54d48fb89,2024-01-24_15h49.29.870,bars,2023.2.3,Win32,60.24096386,657b66ea316d21385b68909f,,,,,,,,,,,407.6229,408.6215,,,409.1221,409.3725,,87,87,,,,,,,,,,,,,,,,bars/014.png,bars/mask004.png,,,,,,,,,,,,6,1,,,,,,,8,10,8,10,,,,,,,,,,,408.6215,409.122,409.3726,411.7582,space,2.3818,,411.7583,7,87,412.7587,412.7589,413.1098,space,0.3176,,0,41,41,41,1,80,0,,,,,,,,
,,5c579b1191c0ad0001cfd373,65b1a1d8f6e3a1d54d48fb89,2024-01-24_15h49.29.870,bars,2023.2.3,Win32,60.24096386,657b66ea316d21385b68909f,,,,,,,,,,,413.1103,414.11,,,414.6109,414.8612,,19,199,,,,,,,,,,,,,,,,bars/004.png,bars/mask003.png,,,,,,,,,,,,7,1,,,,,,,10,8,9,7,,,,,,,,,,,414.1101,414.6108,414.8613,416.6127,space,1.7188,,416.6128,6,74,417.6137,417.6138,417.9976,space,0.3644,,0,42,42,42,1,25,125,,,,,,,,
,,5c579b1191c0ad0001cfd373,65b1a1d8f6e3a1d54d48fb89,2024-01-24_15h49.29.870,bars,2023.2.3,Win32,60.24096386,657b66ea316d21385b68909f,,,,,,,,,,,417.9979,418.9987,,,419.4993,419.7491,,102,102,,,,,,,,,,,,,,,,bars/024.png,bars/mask002.png,,,,,,,,,,,,4,1,,,,,,,8,10,9,10,,,,,,,,,,,418.9987,419.4992,419.7491,421.7513,space,1.9898,,421.7513,18,68,422.7522,422.7522,423.2023,space,0.4262,,0,43,43,43,1,120,170,,,,,,,,
,,5c579b1191c0ad0001cfd373,65b1a1d8f6e3a1d54d48fb89,2024-01-24_15h49.29.870,bars,2023.2.3,Win32,60.24096386,657b66ea316d21385b68909f,,,,,,,,,,,423.2026,424.206,,,424.7043,424.9544,,126,126,,,,,,,,,,,,,,,,bars/034.png,bars/mask001.png,,,,,,,,,,,,6,1,,,,,,,6,8,6,5,,,,,,,,,,,424.206,424.7042,424.9545,427.3739,space,2.3868,,427.374,1,61,428.3747,428.3748,428.7273,space,0.3344,,0,44,44,44,1,125,65,,,,,,,,
,,5c579b1191c0ad0001cfd373,65b1a1d8f6e3a1d54d48fb89,2024-01-24_15h49.29.870,bars,2023.2.3,Win32,60.24096386,657b66ea316d21385b68909f,,,,,,,,,,,428.7275,429.7258,,,430.2268,430.4768,,55,55,,,,,,,,,,,,,,,,bars/041.png,bars/mask002.png,,,,,,,,,,,,0,2,,,,,,,4,10,3,10,,,,,,,,,,,429.7259,430.2267,430.4768,432.8455,space,2.3504,,432.8455,35,30,433.8466,433.8466,434.8475,space,0.9803,,0,45,45,45,1,20,85,,,,,,,,
,,5c579b1191c0ad0001cfd373,65b1a1d8f6e3a1d54d48fb89,2024-01-24_15h49.29.870,bars,2023.2.3,Win32,60.24096386,657b66ea316d21385b68909f,,,,,,,,,,,434.8477,435.8487,,,436.3493,436.5991,,140,140,,,,,,,,,,,,,,,,bars/002.png,bars/mask009.png,,,,,,,,,,,,4,1,,,,,,,6,10,6,10,,,,,,,,,,,435.8488,436.3493,436.5992,441.5545,space,4.9481,,441.5546,10,55,442.5552,442.5553,442.6553,space,0.0717,,0,46,46,46,1,130,85,,,,,,,,
,,5c579b1191c0ad0001cfd373,65b1a1d8f6e3a1d54d48fb89,2024-01-24_15h49.29.870,bars,2023.2.3,Win32,60.24096386,657b66ea316d21385b68909f,,,,,,,,,,,442.6556,443.6564,,,444.1574,444.4071,,97,97,,,,,,,,,,,,,,,,bars/015.png,bars/mask002.png,,,,,,,,,,,,4,1,,,,,,,8,8,7,8,,,,,,,,,,,443.6566,444.1573,444.4072,445.4085,space,0.9713,,445.4085,13,63,446.4089,446.4091,446.7266,space,0.2899,,0,47,47,47,1,110,160,,,,,,,,
,,5c579b1191c0ad0001cfd373,65b1a1d8f6e3a1d54d48fb89,2024-01-24_15h49.29.870,bars,2023.2.3,Win32,60.24096386,657b66ea316d21385b68909f,,,,,,,,,,,446.7272,447.7271,,,448.2294,448.4779,,116,116,,,,,,,,,,,,,,,,bars/022.png,bars/mask000.png,,,,,,,,,,,,2,1,,,,,,,6,6,8,6,,,,,,,,,,,447.7271,448.2293,448.478,451.4808,space,2.9727,,451.4808,21,84,452.4814,452.4814,452.6819,space,0.1685,,0,48,48,48,1,95,20,,,,,,,,
,,5c579b1191c0ad0001cfd373,65b1a1d8f6e3a1d54d48fb89,2024-01-24_15h49.29.870,bars,2023.2.3,Win32,60.24096386,657b66ea316d21385b68909f,,,,,,,,,,,452.6821,453.683,,,454.1834,454.4343,,102,102,,,,,,,,,,,,,,,,bars/001.png,bars/mask000.png,,,,,,,,,,,,3,2,,,,,,,4,8,5,8,,,,,,,,,,,453.683,454.1834,454.4343,456.1858,space,1.7294,,456.186,28,17,457.1865,457.1865,457.4705,space,0.2564,,0,49,49,49,1,130,85,,,,,,,,
,,5c579b1191c0ad0001cfd373,65b1a1d8f6e3a1d54d48fb89,2024-01-24_15h49.29.870,bars,2023.2.3,Win32,60.24096386,657b66ea316d21385b68909f,,,,,,,,,,,,,,,,,,,,,,,,,,,,,,,,,,,,,,,,,,,,,,,,,,,,,,,,,,,,,,,,,,,,,,,,,,,,,,,,,,,,,,,,,,,,,457.4713,517.4642,0,0,0,4,1,sequence_tables/blk035.csv
,,5c579b1191c0ad0001cfd373,65b1a1d8f6e3a1d54d48fb89,2024-01-24_15h49.29.870,bars,2023.2.3,Win32,60.24096386,657b66ea316d21385b68909f,,,,,,,,,,,522.1276,523.1188,,,523.6192,523.8695,,169,169,,,,,,,,,,,,,,,,bars/007.png,bars/mask002.png,,,,,,,,,,,,1,1,,,,,,,2,9,1,9,,,,,,517.4714,522.1177,space,4.6223,,523.1188,523.6192,523.8695,526.6057,space,2.7031,,526.6058,6,66,527.6065,527.6066,527.6145,,,,0,0,0,0,1,175,55,,,,,,,,
,,5c579b1191c0ad0001cfd373,65b1a1d8f6e3a1d54d48fb89,2024-01-24_15h49.29.870,bars,2023.2.3,Win32,60.24096386,657b66ea316d21385b68909f,,,,,,,,,,,527.6147,528.6075,,,529.108,529.3583,,20,200,,,,,,,,,,,,,,,,bars/043.png,bars/mask004.png,,,,,,,,,,,,5,1,,,,,,,4,7,7,6,,,,,,,,,,,528.6075,529.1079,529.3583,532.2949,space,2.9235,,532.2949,10,70,533.2956,533.2956,533.3024,,,,0,1,1,1,1,30,130,,,,,,,,
,,5c579b1191c0ad0001cfd373,65b1a1d8f6e3a1d54d48fb89,2024-01-24_15h49.29.870,bars,2023.2.3,Win32,60.24096386,657b66ea316d21385b68909f,,,,,,,,,,,533.3026,534.2965,,,534.7971,535.0472,,148,-32,,,,,,,,,,,,,,,,bars/032.png,bars/mask002.png,,,,,,,,,,,,1,1,,,,,,,6,9,6,8,,,,,,,,,,,534.2965,534.797,535.0473,537.4667,space,2.4118,,537.4667,23,52,538.4675,538.4675,538.4747,,,,0,2,2,2,1,125,20,,,,,,,,
,,5c579b1191c0ad0001cfd373,65b1a1d8f6e3a1d54d48fb89,2024-01-24_15h49.29.870,bars,2023.2.3,Win32,60.24096386,657b66ea316d21385b68909f,,,,,,,,,,,538.4749,539.4683,,,539.9688,540.219,,0,180,,,,,,,,,,,,,,,,bars/039.png,bars/mask004.png,,,,,,,,,,,,5,1,,,,,,,8,7,6,8,,,,,,,,,,,539.4684,539.9688,540.2191,543.7224,space,3.4952,,543.7225,5,75,544.7236,544.7236,544.7306,,,,0,3,3,3,1,175,105,,,,,,,,
,,5c579b1191c0ad0001cfd373,65b1a1d8f6e3a1d54d48fb89,2024-01-24_15h49.29.870,bars,2023.2.3,Win32,60.24096386,657b66ea316d21385b68909f,,,,,,,,,,,544.7307,545.7244,,,546.2252,546.4752,,14,194,,,,,,,,,,,,,,,,bars/004.png,bars/mask000.png,,,,,,,,,,,,3,1,,,,,,,6,9,5,9,,,,,,,,,,,545.7244,546.2252,546.4754,549.2113,space,2.7266,,549.2113,11,69,550.2123,550.2123,550.219,,,,0,4,4,4,1,25,125,,,,,,,,
,,5c579b1191c0ad0001cfd373,65b1a1d8f6e3a1d54d48fb89,2024-01-24_15h49.29.870,bars,2023.2.3,Win32,60.24096386,657b66ea316d21385b68909f,,,,,,,,,,,550.2191,551.2135,,,551.7139,551.9645,,117,117,,,,,,,,,,,,,,,,bars/025.png,bars/mask004.png,,,,,,,,,,,,5,1,,,,,,,8,7,8,8,,,,,,,,,,,551.2135,551.7139,551.9645,554.4497,space,2.4784,,554.4497,12,77,555.4509,555.4509,555.4518,,,,0,5,5,5,1,105,40,,,,,,,,
,,5c579b1191c0ad0001cfd373,65b1a1d8f6e3a1d54d48fb89,2024-01-24_15h49.29.870,bars,2023.2.3,Win32,60.24096386,657b66ea316d21385b68909f,,,,,,,,,,,555.4521,556.4519,,,556.9524,557.2025,,38,38,,,,,,,,,,,,,,,,bars/019.png,bars/mask000.png,,,,,,,,,,,,5,1,,,,,,,6,5,6,7,,,,,,,,,,,556.4519,556.9524,557.2025,558.3037,space,1.0966,,558.3038,7,67,559.3049,559.305,559.306,,,,0,6,6,6,1,45,105,,,,,,,,
,,5c579b1191c0ad0001cfd373,65b1a1d8f6e3a1d54d48fb89,2024-01-24_15h49.29.870,bars,2023.2.3,Win32,60.24096386,657b66ea316d21385b68909f,,,,,,,,,,,559.3063,560.3057,,,560.8063,561.0566,,44,44,,,,,,,,,,,,,,,,bars/043.png,bars/mask007.png,,,,,,,,,,,,1,1,,,,,,,4,7,2,6,,,,,,,,,,,560.3057,560.8062,561.0566,562.1408,space,1.068,,562.1409,14,86,563.1418,563.1418,563.1429,,,,0,7,7,7,1,30,130,,,,,,,,
,,5c579b1191c0ad0001cfd373,65b1a1d8f6e3a1d54d48fb89,2024-01-24_15h49.29.870,bars,2023.2.3,Win32,60.24096386,657b66ea316d21385b68909f,,,,,,,,,,,563.1432,564.1429,,,564.6434,564.8939,,3,183,,,,,,,,,,,,,,,,bars/038.png,bars/mask008.png,,,,,,,,,,,,1,1,,,,,,,2,9,2,8,,,,,,,,,,,564.143,564.6434,564.8939,569.0145,space,4.1083,,569.0145,18,67,570.0156,570.0156,570.022,,,,0,8,8,8,1,165,70,,,,,,,,
,,5c579b1191c0ad0001cfd373,65b1a1d8f6e3a1d54d48fb89,2024-01-24_15h49.29.870,bars,2023.2.3,Win32,60.24096386,657b66ea316d21385b68909f,,,,,,,,,,,570.0222,571.0165,,,571.5169,571.7671,,43,43,,,,,,,,,,,,,,,,bars/028.png,bars/mask009.png,,,,,,,,,,,,1,1,,,,,,,0,10,1,10,,,,,,,,,,,571.0165,571.5169,571.7671,572.518,space,0.7396,,572.518,2,77,573.5189,573.5189,573.5201,,,,0,9,9,9,1,45,120,,,,,,,,
,,5c579b1191c0ad0001cfd373,65b1a1d8f6e3a1d54d48fb89,2024-01-24_15h49.29.870,bars,2023.2.3,Win32,60.24096386,657b66ea316d21385b68909f,,,,,,,,,,,573.5204,574.5197,,,575.0204,575.2708,,116,116,,,,,,,,,,,,,,,,bars/009.png,bars/mask001.png,,,,,,,,,,,,4,2,,,,,,,2,8,3,7,,,,,,,,,,,574.5198,575.0204,575.2708,577.2395,space,1.9552,,577.2395,79,11,578.24,578.2401,578.247,,,,0,10,10,10,1,15,105,,,,,,,,
,,5c579b1191c0ad0001cfd373,65b1a1d8f6e3a1d54d48fb89,2024-01-24_15h49.29.870,bars,2023.2.3,Win32,60.24096386,657b66ea316d21385b68909f,,,,,,,,,,,578.2472,579.2413,,,579.7418,579.9918,,122,122,,,,,,,,,,,,,,,,bars/004.png,bars/mask006.png,,,,,,,,,,,,9,2,,,,,,,0,10,0,10,,,,,,,,,,,579.2414,579.7418,579.9918,581.3764,space,1.3704,,581.3765,83,3,582.3777,582.3777,582.3786,,,,0,11,11,11,1,25,125,,,,,,,,
,,5c579b1191c0ad0001cfd373,65b1a1d8f6e3a1d54d48fb89,2024-01-24_15h49.29.870,bars,2023.2.3,Win32,60.24096386,657b66ea316d21385b68909f,,,,,,,,,,,582.379,583.3788,,,583.8792,584.1295,,163,163,,,,,,,,,,,,,,,,bars/003.png,bars/mask004.png,,,,,,,,,,,,1,2,,,,,,,2,8,2,6,,,,,,,,,,,583.3788,583.8792,584.1296,585.1806,space,1.023,,585.1807,42,23,586.1817,586.1817,586.1826,,,,0,12,12,12,1,25,140,,,,,,,,
,,5c579b1191c0ad0001cfd373,65b1a1d8f6e3a1d54d48fb89,2024-01-24_15h49.29.870,bars,2023.2.3,Win32,60.24096386,657b66ea316d21385b68909f,,,,,,,,,,,586.1829,587.1824,,,587.6831,587.9333,,2,2,,,,,,,,,,,,,,,,bars/016.png,bars/mask000.png,,,,,,,,,,,,4,2,,,,,,,4,10,5,9,,,,,,,,,,,587.1824,587.683,587.9334,589.8854,space,1.9499,,589.8855,38,17,590.8865,590.8865,590.8872,,,,0,13,13,13,1,40,165,,,,,,,,
,,5c579b1191c0ad0001cfd373,65b1a1d8f6e3a1d54d48fb89,2024-01-24_15h49.29.870,bars,2023.2.3,Win32,60.24096386,657b66ea316d21385b68909f,,,,,,,,,,,590.8875,591.8875,,,592.3877,592.6382,,88,88,,,,,,,,,,,,,,,,bars/041.png,bars/mask001.png,,,,,,,,,,,,9,2,,,,,,,2,10,2,10,,,,,,,,,,,591.8875,592.3876,592.6384,594.123,space,1.4522,,594.123,68,3,595.1238,595.1238,595.1249,,,,0,14,14,14,1,20,85,,,,,,,,
,,5c579b1191c0ad0001cfd373,65b1a1d8f6e3a1d54d48fb89,2024-01-24_15h49.29.870,bars,2023.2.3,Win32,60.24096386,657b66ea316d21385b68909f,,,,,,,,,,,595.1252,596.1248,,,596.6252,596.8756,,102,102,,,,,,,,,,,,,,,,bars/030.png,bars/mask007.png,,,,,,,,,,,,0,2,,,,,,,0,10,0,10,,,,,,,,,,,596.1248,596.6252,596.8756,599.0609,space,2.1826,,599.0609,38,37,600.0621,600.0621,600.0692,,,,0,15,15,15,1,140,65,,,,,,,,
,,5c579b1191c0ad0001cfd373,65b1a1d8f6e3a1d54d48fb89,2024-01-24_15h49.29.870,bars,2023.2.3,Win32,60.24096386,657b66ea316d21385b68909f,,,,,,,,,,,600.0692,601.0628,,,601.5636,601.8137,,128,128,,,,,,,,,,,,,,,,bars/004.png,bars/mask006.png,,,,,,,,,,,,9,2,,,,,,,2,10,2,10,,,,,,,,,,,601.0629,601.5635,601.8137,605.8345,space,4.0121,,605.8345,77,3,606.8353,606.8354,606.8422,,,,0,16,16,16,1,25,125,,,,,,,,
,,5c579b1191c0ad0001cfd373,65b1a1d8f6e3a1d54d48fb89,2024-01-24_15h49.29.870,bars,2023.2.3,Win32,60.24096386,657b66ea316d21385b68909f,,,,,,,,,,,606.8423,607.8363,,,608.3369,608.5874,,65,-115,,,,,,,,,,,,,,,,bars/030.png,bars/mask004.png,,,,,,,,,,,,8,2,,,,,,,0,10,0,8,,,,,,,,,,,607.8364,608.3368,608.5874,612.6914,space,4.0946,,612.6914,75,0,613.6923,613.6923,613.6992,,,,0,17,17,17,1,140,65,,,,,,,,
,,5c579b1191c0ad0001cfd373,65b1a1d8f6e3a1d54d48fb89,2024-01-24_15h49.29.870,bars,2023.2.3,Win32,60.24096386,657b66ea316d21385b68909f,,,,,,,,,,,613.6993,614.693,,,615.1939,615.444,,0,180,,,,,,,,,,,,,,,,bars/013.png,bars/mask008.png,,,,,,,,,,,,7,2,,,,,,,2,10,2,10,,,,,,,,,,,614.6931,615.1938,615.4441,618.6306,space,3.1742,,618.6307,75,10,619.6316,619.6316,619.6385,,,,0,18,18,18,1,75,10,,,,,,,,
,,5c579b1191c0ad0001cfd373,65b1a1d8f6e3a1d54d48fb89,2024-01-24_15h49.29.870,bars,2023.2.3,Win32,60.24096386,657b66ea316d21385b68909f,,,,,,,,,,,619.6386,620.6324,,,621.1331,621.3831,,95,95,,,,,,,,,,,,,,,,bars/018.png,bars/mask001.png,,,,,,,,,,,,8,2,,,,,,,0,10,1,10,,,,,,,,,,,620.6325,621.133,621.3831,624.6031,space,3.2107,,624.6031,55,5,625.6042,625.6042,625.6109,,,,0,19,19,19,1,150,90,,,,,,,,
,,5c579b1191c0ad0001cfd373,65b1a1d8f6e3a1d54d48fb89,2024-01-24_15h49.29.870,bars,2023.2.3,Win32,60.24096386,657b66ea316d21385b68909f,,,,,,,,,,,625.6109,626.6051,,,627.1059,627.3557,,19,19,,,,,,,,,,,,,,,,bars/045.png,bars/mask009.png,,,,,,,,,,,,6,2,,,,,,,2,10,1,8,,,,,,,,,,,626.6051,627.1059,627.3557,629.1078,space,1.7355,,629.1078,81,9,630.1086,630.1086,630.1158,,,,0,20,20,20,1,100,10,,,,,,,,
,,5c579b1191c0ad0001cfd373,65b1a1d8f6e3a1d54d48fb89,2024-01-24_15h49.29.870,bars,2023.2.3,Win32,60.24096386,657b66ea316d21385b68909f,,,,,,,,,,,630.1158,631.1095,,,631.6101,631.8603,,115,115,,,,,,,,,,,,,,,,bars/043.png,bars/mask005.png,,,,,,,,,,,,4,2,,,,,,,4,8,3,8,,,,,,,,,,,631.1096,631.61,631.8603,633.0449,space,1.1693,,633.0449,85,15,634.0458,634.0459,634.0467,,,,0,21,21,21,1,30,130,,,,,,,,
,,5c579b1191c0ad0001cfd373,65b1a1d8f6e3a1d54d48fb89,2024-01-24_15h49.29.870,bars,2023.2.3,Win32,60.24096386,657b66ea316d21385b68909f,,,,,,,,,,,634.047,635.0467,,,635.5474,635.7975,,4,4,,,,,,,,,,,,,,,,bars/024.png,bars/mask003.png,,,,,,,,,,,,5,2,,,,,,,6,10,7,10,,,,,,,,,,,635.0467,635.5474,635.7975,637.8331,space,2.0203,,637.8331,64,14,638.8339,638.834,638.841,,,,0,22,22,22,1,120,170,,,,,,,,
,,5c579b1191c0ad0001cfd373,65b1a1d8f6e3a1d54d48fb89,2024-01-24_15h49.29.870,bars,2023.2.3,Win32,60.24096386,657b66ea316d21385b68909f,,,,,,,,,,,638.8411,639.8352,,,640.3354,640.5856,,111,111,,,,,,,,,,,,,,,,bars/049.png,bars/mask003.png,,,,,,,,,,,,9,2,,,,,,,4,10,4,10,,,,,,,,,,,639.8352,640.3353,640.5856,641.7704,space,1.1768,,641.7704,49,4,642.771,642.771,642.772,,,,0,23,23,23,1,160,115,,,,,,,,
,,5c579b1191c0ad0001cfd373,65b1a1d8f6e3a1d54d48fb89,2024-01-24_15h49.29.870,bars,2023.2.3,Win32,60.24096386,657b66ea316d21385b68909f,,,,,,,,,,,642.7724,643.7721,,,644.2726,644.523,,68,68,,,,,,,,,,,,,,,,bars/046.png,bars/mask008.png,,,,,,,,,,,,4,2,,,,,,,6,8,5,9,,,,,,,,,,,643.7722,644.2726,644.523,646.1245,space,1.5853,,646.1246,87,17,647.1254,647.1254,647.1263,,,,0,24,24,24,1,155,85,,,,,,,,
,,5c579b1191c0ad0001cfd373,65b1a1d8f6e3a1d54d48fb89,2024-01-24_15h49.29.870,bars,2023.2.3,Win32,60.24096386,657b66ea316d21385b68909f,,,,,,,,,,,647.1266,648.1263,,,648.6271,648.8775,,93,93,,,,,,,,,,,,,,,,bars/021.png,bars/mask009.png,,,,,,,,,,,,2,2,,,,,,,4,6,4,7,,,,,,,,,,,648.1264,648.627,648.8776,651.9303,space,3.021,,651.9304,62,23,652.9313,652.9313,652.9385,,,,0,25,25,25,1,155,70,,,,,,,,
,,5c579b1191c0ad0001cfd373,65b1a1d8f6e3a1d54d48fb89,2024-01-24_15h49.29.870,bars,2023.2.3,Win32,60.24096386,657b66ea316d21385b68909f,,,,,,,,,,,652.9386,653.9325,,,654.4327,654.6832,,61,61,,,,,,,,,,,,,,,,bars/034.png,bars/mask005.png,,,,,,,,,,,,7,2,,,,,,,2,8,1,8,,,,,,,,,,,653.9325,654.4326,654.6833,657.0189,space,2.325,,657.0189,64,4,658.0198,658.0198,658.0268,,,,0,26,26,26,1,125,65,,,,,,,,
,,5c579b1191c0ad0001cfd373,65b1a1d8f6e3a1d54d48fb89,2024-01-24_15h49.29.870,bars,2023.2.3,Win32,60.24096386,657b66ea316d21385b68909f,,,,,,,,,,,658.027,659.0207,,,659.521,659.7714,,174,-6,,,,,,,,,,,,,,,,bars/012.png,bars/mask008.png,,,,,,,,,,,,3,2,,,,,,,4,10,5,9,,,,,,,,,,,659.0207,659.521,659.7715,661.1064,space,1.3267,,661.1064,84,21,662.1067,662.1068,662.1179,,,,0,27,27,27,1,90,15,,,,,,,,
,,5c579b1191c0ad0001cfd373,65b1a1d8f6e3a1d54d48fb89,2024-01-24_15h49.29.870,bars,2023.2.3,Win32,60.24096386,657b66ea316d21385b68909f,,,,,,,,,,,662.1181,663.1078,,,663.6084,663.8586,,164,-16,,,,,,,,,,,,,,,,bars/015.png,bars/mask009.png,,,,,,,,,,,,8,2,,,,,,,2,10,2,9,,,,,,,,,,,663.1079,663.6084,663.8586,666.3278,space,2.4472,,666.3279,54,4,667.3289,667.329,667.3356,,,,0,28,28,28,1,110,160,,,,,,,,
,,5c579b1191c0ad0001cfd373,65b1a1d8f6e3a1d54d48fb89,2024-01-24_15h49.29.870,bars,2023.2.3,Win32,60.24096386,657b66ea316d21385b68909f,,,,,,,,,,,667.3356,668.33,,,668.8304,669.0806,,167,-13,,,,,,,,,,,,,,,,bars/015.png,bars/mask000.png,,,,,,,,,,,,6,2,,,,,,,0,8,0,8,,,,,,,,,,,668.3301,668.8303,669.0807,671.2164,space,2.1202,,671.2165,57,7,672.2171,672.2172,672.224,,,,0,29,29,29,1,110,160,,,,,,,,
,,5c579b1191c0ad0001cfd373,65b1a1d8f6e3a1d54d48fb89,2024-01-24_15h49.29.870,bars,2023.2.3,Win32,60.24096386,657b66ea316d21385b68909f,,,,,,,,,,,672.2241,673.2179,,,673.7189,673.9692,,69,69,,,,,,,,,,,,,,,,bars/035.png,bars/mask000.png,,,,,,,,,,,,6,2,,,,,,,2,10,2,9,,,,,,,,,,,673.2179,673.7188,673.9693,678.4902,space,4.4894,,678.4902,74,9,679.4913,679.4914,679.4981,,,,0,30,30,30,1,175,60,,,,,,,,
,,5c579b1191c0ad0001cfd373,65b1a1d8f6e3a1d54d48fb89,2024-01-24_15h49.29.870,bars,2023.2.3,Win32,60.24096386,657b66ea316d21385b68909f,,,,,,,,,,,679.4982,680.4923,,,680.9924,681.2427,,89,89,,,,,,,,,,,,,,,,bars/019.png,bars/mask008.png,,,,,,,,,,,,4,2,,,,,,,0,8,0,8,,,,,,,,,,,680.4924,680.9924,681.2428,684.9138,space,3.6389,,684.9139,44,16,685.9144,685.9145,685.9222,,,,0,31,31,31,1,45,105,,,,,,,,
,,5c579b1191c0ad0001cfd373,65b1a1d8f6e3a1d54d48fb89,2024-01-24_15h49.29.870,bars,2023.2.3,Win32,60.24096386,657b66ea316d21385b68909f,,,,,,,,,,,685.9223,686.9154,,,687.4158,687.6661,,161,161,,,,,,,,,,,,,,,,bars/048.png,bars/mask007.png,,,,,,,,,,,,3,2,,,,,,,0,6,0,5,,,,,,,,,,,686.9154,687.4157,687.6661,691.8534,space,4.1601,,691.8534,69,14,692.8547,692.8547,692.8614,,,,0,32,32,32,1,50,175,,,,,,,,
,,5c579b1191c0ad0001cfd373,65b1a1d8f6e3a1d54d48fb89,2024-01-24_15h49.29.870,bars,2023.2.3,Win32,60.24096386,657b66ea316d21385b68909f,,,,,,,,,,,692.8616,693.8575,,,694.3562,694.6064,,159,159,,,,,,,,,,,,,,,,bars/016.png,bars/mask003.png,,,,,,,,,,,,3,2,,,,,,,0,4,1,4,,,,,,,,,,,693.8575,694.356,694.6064,696.4085,space,1.7713,,696.4085,61,6,697.4092,697.4093,697.4102,,,,0,33,33,33,1,40,165,,,,,,,,
,,5c579b1191c0ad0001cfd373,65b1a1d8f6e3a1d54d48fb89,2024-01-24_15h49.29.870,bars,2023.2.3,Win32,60.24096386,657b66ea316d21385b68909f,,,,,,,,,,,697.4105,698.4105,,,698.9107,699.1608,,70,70,,,,,,,,,,,,,,,,bars/027.png,bars/mask000.png,,,,,,,,,,,,2,2,,,,,,,0,6,1,6,,,,,,,,,,,698.4105,698.9105,699.1609,700.5958,space,1.4098,,700.5959,40,20,701.5966,701.5966,701.5975,,,,0,34,34,34,1,110,50,,,,,,,,
,,5c579b1191c0ad0001cfd373,65b1a1d8f6e3a1d54d48fb89,2024-01-24_15h49.29.870,bars,2023.2.3,Win32,60.24096386,657b66ea316d21385b68909f,,,,,,,,,,,701.5977,702.5989,,,703.098,703.3487,,7,187,,,,,,,,,,,,,,,,bars/022.png,bars/mask003.png,,,,,,,,,,,,4,2,,,,,,,2,8,2,7,,,,,,,,,,,702.599,703.0979,703.3488,707.2523,space,3.8777,,707.2523,88,13,708.2532,708.2532,708.261,,,,0,35,35,35,1,95,20,,,,,,,,
,,5c579b1191c0ad0001cfd373,65b1a1d8f6e3a1d54d48fb89,2024-01-24_15h49.29.870,bars,2023.2.3,Win32,60.24096386,657b66ea316d21385b68909f,,,,,,,,,,,708.2611,709.2544,,,709.7549,710.005,,9,189,,,,,,,,,,,,,,,,bars/012.png,bars/mask000.png,,,,,,,,,,,,5,2,,,,,,,4,6,4,6,,,,,,,,,,,709.2545,709.7548,710.005,712.925,space,2.9013,,712.9251,81,6,713.9258,713.9258,713.933,,,,0,36,36,36,1,90,15,,,,,,,,
,,5c579b1191c0ad0001cfd373,65b1a1d8f6e3a1d54d48fb89,2024-01-24_15h49.29.870,bars,2023.2.3,Win32,60.24096386,657b66ea316d21385b68909f,,,,,,,,,,,713.9331,714.9265,,,715.4289,715.6776,,91,91,,,,,,,,,,,,,,,,bars/035.png,bars/mask000.png,,,,,,,,,,,,0,2,,,,,,,6,8,6,8,,,,,,,,,,,714.9267,715.4289,715.6777,718.3802,space,2.6772,,718.3803,84,31,719.381,719.381,719.3883,,,,0,37,37,37,1,175,60,,,,,,,,
,,5c579b1191c0ad0001cfd373,65b1a1d8f6e3a1d54d48fb89,2024-01-24_15h49.29.870,bars,2023.2.3,Win32,60.24096386,657b66ea316d21385b68909f,,,,,,,,,,,719.3884,720.3819,,,720.8826,721.1327,,69,69,,,,,,,,,,,,,,,,bars/026.png,bars/mask007.png,,,,,,,,,,,,3,2,,,,,,,8,6,8,6,,,,,,,,,,,720.382,720.8824,721.1329,724.5695,space,3.4078,,724.5696,34,16,725.5704,725.5704,725.5781,,,,0,38,38,38,1,35,85,,,,,,,,
,,5c579b1191c0ad0001cfd373,65b1a1d8f6e3a1d54d48fb89,2024-01-24_15h49.29.870,bars,2023.2.3,Win32,60.24096386,657b66ea316d21385b68909f,,,,,,,,,,,725.5782,726.5712,,,727.0723,727.3224,,102,102,,,,,,,,,,,,,,,,bars/018.png,bars/mask004.png,,,,,,,,,,,,2,2,,,,,,,6,4,4,4,,,,,,,,,,,726.5713,727.0722,727.3225,729.3077,space,1.953,,729.3079,48,12,730.3084,730.3085,730.3158,,,,0,39,39,39,1,150,90,,,,,,,,
,,5c579b1191c0ad0001cfd373,65b1a1d8f6e3a1d54d48fb89,2024-01-24_15h49.29.870,bars,2023.2.3,Win32,60.24096386,657b66ea316d21385b68909f,,,,,,,,,,,730.3159,731.3096,,,731.8101,732.0603,,111,111,,,,,,,,,,,,,,,,bars/008.png,bars/mask007.png,,,,,,,,,,,,5,1,,,,,,,4,6,5,5,,,,,,,,,,,731.3096,731.8101,732.0604,734.2289,space,2.1497,,734.2289,1,69,735.2301,735.2302,735.2326,,,,0,40,40,40,1,110,0,,,,,,,,
,,5c579b1191c0ad0001cfd373,65b1a1d8f6e3a1d54d48fb89,2024-01-24_15h49.29.870,bars,2023.2.3,Win32,60.24096386,657b66ea316d21385b68909f,,,,,,,,,,,735.233,736.2309,,,736.7318,736.9816,,45,225,,,,,,,,,,,,,,,,bars/019.png,bars/mask008.png,,,,,,,,,,,,8,1,,,,,,,6,8,8,8,,,,,,,,,,,736.2309,736.7318,736.9816,741.2026,space,4.189,,741.2026,0,60,742.2038,742.2039,742.2109,,,,0,41,41,41,1,45,105,,,,,,,,
,,5c579b1191c0ad0001cfd373,65b1a1d8f6e3a1d54d48fb89,2024-01-24_15h49.29.870,bars,2023.2.3,Win32,60.24096386,657b66ea316d21385b68909f,,,,,,,,,,,742.211,743.2048,,,743.7052,743.9556,,170,-10,,,,,,,,,,,,,,,,bars/002.png,bars/mask003.png,,,,,,,,,,,,0,1,,,,,,,8,6,7,7,,,,,,,,,,,743.2049,743.705,743.9557,746.0578,space,2.071,,746.0579,40,85,747.0582,747.0583,747.0654,,,,0,42,42,42,1,130,85,,,,,,,,
,,5c579b1191c0ad0001cfd373,65b1a1d8f6e3a1d54d48fb89,2024-01-24_15h49.29.870,bars,2023.2.3,Win32,60.24096386,657b66ea316d21385b68909f,,,,,,,,,,,747.0655,748.0597,,,748.5603,748.8103,,21,201,,,,,,,,,,,,,,,,bars/023.png,bars/mask008.png,,,,,,,,,,,,6,1,,,,,,,6,4,6,5,,,,,,,,,,,748.0597,748.5602,748.8103,750.562,space,1.7201,,750.5621,1,86,751.5628,751.5628,751.5634,,,,0,43,43,43,1,20,115,,,,,,,,
,,5c579b1191c0ad0001cfd373,65b1a1d8f6e3a1d54d48fb89,2024-01-24_15h49.29.870,bars,2023.2.3,Win32,60.24096386,657b66ea316d21385b68909f,,,,,,,,,,,751.5636,752.5644,,,753.0648,753.3146,,149,-31,,,,,,,,,,,,,,,,bars/037.png,bars/mask009.png,,,,,,,,,,,,5,1,,,,,,,4,2,5,2,,,,,,,,,,,752.5644,753.0648,753.3147,756.118,space,2.7912,,756.1181,1,44,757.1185,757.1186,757.1257,,,,0,44,44,44,1,150,105,,,,,,,,
,,5c579b1191c0ad0001cfd373,65b1a1d8f6e3a1d54d48fb89,2024-01-24_15h49.29.870,bars,2023.2.3,Win32,60.24096386,657b66ea316d21385b68909f,,,,,,,,,,,757.1257,758.1196,,,758.62,758.8704,,100,100,,,,,,,,,,,,,,,,bars/032.png,bars/mask001.png,,,,,,,,,,,,1,1,,,,,,,2,0,4,0,,,,,,,,,,,758.1197,758.62,758.8705,762.8239,space,3.9314,,762.824,25,80,763.8254,763.8254,763.8324,,,,0,45,45,45,1,125,20,,,,,,,,
,,5c579b1191c0ad0001cfd373,65b1a1d8f6e3a1d54d48fb89,2024-01-24_15h49.29.870,bars,2023.2.3,Win32,60.24096386,657b66ea316d21385b68909f,,,,,,,,,,,763.8326,764.8264,,,765.3268,765.577,,146,-34,,,,,,,,,,,,,,,,bars/002.png,bars/mask002.png,,,,,,,,,,,,1,1,,,,,,,4,0,2,0,,,,,,,,,,,764.8265,765.3267,765.577,768.0122,space,2.4036,,768.0123,16,61,769.0138,769.0138,769.0213,,,,0,46,46,46,1,130,85,,,,,,,,
,,5c579b1191c0ad0001cfd373,65b1a1d8f6e3a1d54d48fb89,2024-01-24_15h49.29.870,bars,2023.2.3,Win32,60.24096386,657b66ea316d21385b68909f,,,,,,,,,,,769.0214,770.0144,,,770.5152,770.7657,,89,89,,,,,,,,,,,,,,,,bars/019.png,bars/mask000.png,,,,,,,,,,,,0,2,,,,,,,2,2,1,1,,,,,,,,,,,770.0145,770.5151,770.7657,772.834,space,2.0369,,772.834,44,16,773.8353,773.8354,773.8429,,,,0,47,47,47,1,45,105,,,,,,,,
,,5c579b1191c0ad0001cfd373,65b1a1d8f6e3a1d54d48fb89,2024-01-24_15h49.29.870,bars,2023.2.3,Win32,60.24096386,657b66ea316d21385b68909f,,,,,,,,,,,773.843,774.836,,,775.3367,775.5869,,104,104,,,,,,,,,,,,,,,,bars/009.png,bars/mask004.png,,,,,,,,,,,,0,2,,,,,,,4,0,4,0,,,,,,,,,,,774.8361,775.3366,775.587,777.8558,space,2.2475,,777.8558,89,1,778.8569,778.857,778.8643,,,,0,48,48,48,1,15,105,,,,,,,,
,,5c579b1191c0ad0001cfd373,65b1a1d8f6e3a1d54d48fb89,2024-01-24_15h49.29.870,bars,2023.2.3,Win32,60.24096386,657b66ea316d21385b68909f,,,,,,,,,,,778.8644,779.8577,,,780.3585,780.6085,,41,41,,,,,,,,,,,,,,,,bars/000.png,bars/mask008.png,,,,,,,,,,,,6,1,,,,,,,6,0,6,1,,,,,,,,,,,779.8577,780.3584,780.6086,783.4612,space,2.8258,,783.4613,1,76,784.4625,784.4625,784.4695,,,,0,49,49,49,1,40,145,,,,,,,,
,,5c579b1191c0ad0001cfd373,65b1a1d8f6e3a1d54d48fb89,2024-01-24_15h49.29.870,bars,2023.2.3,Win32,60.24096386,657b66ea316d21385b68909f,,,,,,,,,,,,,,,,,,,,,,,,,,,,,,,,,,,,,,,,,,,,,,,,,,,,,,,,,,,,,,,,,,,,,,,,,,,,,,,,,,,,,,,,,,,,,784.4696,844.4723,0,1,1,1,1,sequence_tables/blk030.csv
,,5c579b1191c0ad0001cfd373,65b1a1d8f6e3a1d54d48fb89,2024-01-24_15h49.29.870,bars,2023.2.3,Win32,60.24096386,657b66ea316d21385b68909f,,,,,,,,,,,845.7434,846.7407,,,847.2418,847.4917,,123,123,,,,,,,,,,,,,,,,bars/049.png,bars/mask001.png,,,,,,,,,,,,1,2,,,,,,,4,1,4,1,,,,,,844.4797,845.7404,space,1.2411,,846.7407,847.2418,847.4918,849.8107,space,2.2935,,849.8108,37,8,850.8117,850.8117,850.8189,,,,0,0,0,0,1,160,115,,,,,,,,
,,5c579b1191c0ad0001cfd373,65b1a1d8f6e3a1d54d48fb89,2024-01-24_15h49.29.870,bars,2023.2.3,Win32,60.24096386,657b66ea316d21385b68909f,,,,,,,,,,,850.8191,851.8128,,,852.3132,852.5636,,125,125,,,,,,,,,,,,,,,,bars/002.png,bars/mask000.png,,,,,,,,,,,,7,1,,,,,,,6,0,8,0,,,,,,,,,,,851.8129,852.3131,852.5637,854.0487,space,1.4535,,854.0488,5,40,855.0492,855.0493,855.0567,,,,0,1,1,1,1,130,85,,,,,,,,
,,5c579b1191c0ad0001cfd373,65b1a1d8f6e3a1d54d48fb89,2024-01-24_15h49.29.870,bars,2023.2.3,Win32,60.24096386,657b66ea316d21385b68909f,,,,,,,,,,,855.0568,856.0505,,,856.5506,856.8014,,86,86,,,,,,,,,,,,,,,,bars/022.png,bars/mask006.png,,,,,,,,,,,,1,1,,,,,,,4,2,2,2,,,,,,,,,,,856.0507,856.5506,856.8015,860.271,space,3.4485,,860.2711,9,66,861.2721,861.2722,861.2794,,,,0,2,2,2,1,95,20,,,,,,,,
,,5c579b1191c0ad0001cfd373,65b1a1d8f6e3a1d54d48fb89,2024-01-24_15h49.29.870,bars,2023.2.3,Win32,60.24096386,657b66ea316d21385b68909f,,,,,,,,,,,861.2794,862.2733,,,862.7737,863.0242,,59,59,,,,,,,,,,,,,,,,bars/014.png,bars/mask002.png,,,,,,,,,,,,1,1,,,,,,,2,0,2,0,,,,,,,,,,,862.2733,862.7737,863.0242,864.9758,space,1.9298,,864.9758,21,59,865.977,865.9771,865.9782,,,,0,3,3,3,1,80,0,,,,,,,,
,,5c579b1191c0ad0001cfd373,65b1a1d8f6e3a1d54d48fb89,2024-01-24_15h49.29.870,bars,2023.2.3,Win32,60.24096386,657b66ea316d21385b68909f,,,,,,,,,,,865.9785,866.9777,,,867.4788,867.7286,,171,-9,,,,,,,,,,,,,,,,bars/018.png,bars/mask007.png,,,,,,,,,,,,1,1,,,,,,,4,0,4,0,,,,,,,,,,,866.9777,867.4787,867.7287,869.566,space,1.8181,,869.566,21,81,870.5648,870.565,870.5722,,,,0,4,4,4,1,150,90,,,,,,,,
,,5c579b1191c0ad0001cfd373,65b1a1d8f6e3a1d54d48fb89,2024-01-24_15h49.29.870,bars,2023.2.3,Win32,60.24096386,657b66ea316d21385b68909f,,,,,,,,,,,870.5722,871.566,,,872.0665,872.3166,,59,59,,,,,,,,,,,,,,,,bars/000.png,bars/mask008.png,,,,,,,,,,,,1,1,,,,,,,2,2,3,1,,,,,,,,,,,871.5661,872.0665,872.3167,873.1841,space,0.8372,,873.1841,19,86,874.1852,874.1852,874.1864,,,,0,5,5,5,1,40,145,,,,,,,,
,,5c579b1191c0ad0001cfd373,65b1a1d8f6e3a1d54d48fb89,2024-01-24_15h49.29.870,bars,2023.2.3,Win32,60.24096386,657b66ea316d21385b68909f,,,,,,,,,,,874.1867,875.1857,,,875.6868,875.937,,87,87,,,,,,,,,,,,,,,,bars/018.png,bars/mask009.png,,,,,,,,,,,,3,2,,,,,,,0,4,1,3,,,,,,,,,,,875.1857,875.6867,875.937,878.64,space,2.6727,,878.64,63,3,879.6406,879.6408,879.6485,,,,0,6,6,6,1,150,90,,,,,,,,
,,5c579b1191c0ad0001cfd373,65b1a1d8f6e3a1d54d48fb89,2024-01-24_15h49.29.870,bars,2023.2.3,Win32,60.24096386,657b66ea316d21385b68909f,,,,,,,,,,,879.6487,880.6415,,,881.1424,881.392,,67,67,,,,,,,,,,,,,,,,bars/035.png,bars/mask002.png,,,,,,,,,,,,5,2,,,,,,,0,6,0,7,,,,,,,,,,,880.6416,881.1423,881.3922,885.3971,space,3.9858,,885.3971,72,7,886.3972,886.3973,886.4045,,,,0,7,7,7,1,175,60,,,,,,,,
,,5c579b1191c0ad0001cfd373,65b1a1d8f6e3a1d54d48fb89,2024-01-24_15h49.29.870,bars,2023.2.3,Win32,60.24096386,657b66ea316d21385b68909f,,,,,,,,,,,886.4046,887.3982,,,887.8988,888.1492,,54,54,,,,,,,,,,,,,,,,bars/025.png,bars/mask005.png,,,,,,,,,,,,4,2,,,,,,,2,8,2,8,,,,,,,,,,,887.3983,887.8988,888.1492,891.0355,space,2.86,,891.0355,51,14,892.036,892.036,892.0434,,,,0,8,8,8,1,105,40,,,,,,,,
,,5c579b1191c0ad0001cfd373,65b1a1d8f6e3a1d54d48fb89,2024-01-24_15h49.29.870,bars,2023.2.3,Win32,60.24096386,657b66ea316d21385b68909f,,,,,,,,,,,892.0436,893.0372,,,893.5376,893.788,,10,10,,,,,,,,,,,,,,,,bars/045.png,bars/mask007.png,,,,,,,,,,,,7,2,,,,,,,4,6,4,7,,,,,,,,,,,893.0373,893.5376,893.788,894.7056,space,0.9094,,894.7057,90,0,895.7065,895.7066,895.7076,,,,0,9,9,9,1,100,10,,,,,,,,
,,5c579b1191c0ad0001cfd373,65b1a1d8f6e3a1d54d48fb89,2024-01-24_15h49.29.870,bars,2023.2.3,Win32,60.24096386,657b66ea316d21385b68909f,,,,,,,,,,,895.7079,896.7096,,,897.2079,897.4583,,136,136,,,,,,,,,,,,,,,,bars/049.png,bars/mask008.png,,,,,,,,,,,,2,2,,,,,,,2,8,0,8,,,,,,,,,,,896.7096,897.2079,897.4585,900.6946,space,3.2151,,900.6946,24,21,901.6956,901.6956,901.7014,,,,0,10,10,10,1,160,115,,,,,,,,
,,5c579b1191c0ad0001cfd373,65b1a1d8f6e3a1d54d48fb89,2024-01-24_15h49.29.870,bars,2023.2.3,Win32,60.24096386,657b66ea316d21385b68909f,,,,,,,,,,,901.7015,902.6971,,,903.1975,903.4475,,162,-18,,,,,,,,,,,,,,,,bars/048.png,bars/mask001.png,,,,,,,,,,,,5,2,,,,,,,4,10,4,8,,,,,,,,,,,902.6972,903.1974,903.4475,905.4666,space,2.0103,,905.4668,68,13,906.4669,906.4669,906.4675,,,,0,11,11,11,1,50,175,,,,,,,,
,,5c579b1191c0ad0001cfd373,65b1a1d8f6e3a1d54d48fb89,2024-01-24_15h49.29.870,bars,2023.2.3,Win32,60.24096386,657b66ea316d21385b68909f,,,,,,,,,,,906.4679,907.4682,,,907.969,908.2189,,103,103,,,,,,,,,,,,,,,,bars/006.png,bars/mask009.png,,,,,,,,,,,,9,2,,,,,,,2,8,3,10,,,,,,,,,,,907.4683,907.9688,908.2189,909.3368,space,1.1026,,909.3368,68,3,910.3379,910.3379,910.339,,,,0,12,12,12,1,35,100,,,,,,,,
,,5c579b1191c0ad0001cfd373,65b1a1d8f6e3a1d54d48fb89,2024-01-24_15h49.29.870,bars,2023.2.3,Win32,60.24096386,657b66ea316d21385b68909f,,,,,,,,,,,910.3392,911.3388,,,911.8394,912.0892,,66,66,,,,,,,,,,,,,,,,bars/035.png,bars/mask008.png,,,,,,,,,,,,7,2,,,,,,,0,10,0,9,,,,,,,,,,,911.3388,911.8393,912.0892,913.3911,space,1.2802,,913.3911,71,6,914.3915,914.3916,914.3926,,,,0,13,13,13,1,175,60,,,,,,,,
,,5c579b1191c0ad0001cfd373,65b1a1d8f6e3a1d54d48fb89,2024-01-24_15h49.29.870,bars,2023.2.3,Win32,60.24096386,657b66ea316d21385b68909f,,,,,,,,,,,914.3928,915.3927,,,915.8933,916.1437,,176,176,,,,,,,,,,,,,,,,bars/033.png,bars/mask003.png,,,,,,,,,,,,3,2,,,,,,,2,10,1,10,,,,,,,,,,,915.3928,915.8931,916.1438,917.8618,space,1.6975,,917.8619,29,21,918.8626,918.8626,918.8698,,,,0,14,14,14,1,25,155,,,,,,,,
,,5c579b1191c0ad0001cfd373,65b1a1d8f6e3a1d54d48fb89,2024-01-24_15h49.29.870,bars,2023.2.3,Win32,60.24096386,657b66ea316d21385b68909f,,,,,,,,,,,918.8699,919.8639,,,920.3645,920.615,,127,127,,,,,,,,,,,,,,,,bars/028.png,bars/mask002.png,,,,,,,,,,,,5,2,,,,,,,0,8,0,6,,,,,,,,,,,919.864,920.3645,920.6151,921.9355,space,1.3023,,921.9355,82,7,922.9336,922.9337,922.9406,,,,0,15,15,15,1,45,120,,,,,,,,
,,5c579b1191c0ad0001cfd373,65b1a1d8f6e3a1d54d48fb89,2024-01-24_15h49.29.870,bars,2023.2.3,Win32,60.24096386,657b66ea316d21385b68909f,,,,,,,,,,,922.9408,923.9346,,,924.4353,924.6873,,19,199,,,,,,,,,,,,,,,,bars/025.png,bars/mask001.png,,,,,,,,,,,,2,2,,,,,,,0,6,1,5,,,,,,,,,,,923.9347,924.4353,924.6874,926.7544,space,2.058,,926.7545,86,21,927.7551,927.7551,927.7621,,,,0,16,16,16,1,105,40,,,,,,,,
,,5c579b1191c0ad0001cfd373,65b1a1d8f6e3a1d54d48fb89,2024-01-24_15h49.29.870,bars,2023.2.3,Win32,60.24096386,657b66ea316d21385b68909f,,,,,,,,,,,927.7621,928.7557,,,929.2571,929.5069,,104,104,,,,,,,,,,,,,,,,bars/039.png,bars/mask005.png,,,,,,,,,,,,8,2,,,,,,,0,8,0,8,,,,,,,,,,,928.7557,929.257,929.507,931.4594,space,1.927,,931.4594,71,1,932.4602,932.4602,932.4611,,,,0,17,17,17,1,175,105,,,,,,,,
,,5c579b1191c0ad0001cfd373,65b1a1d8f6e3a1d54d48fb89,2024-01-24_15h49.29.870,bars,2023.2.3,Win32,60.24096386,657b66ea316d21385b68909f,,,,,,,,,,,932.4613,933.4607,,,933.9611,934.2115,,55,55,,,,,,,,,,,,,,,,bars/026.png,bars/mask007.png,,,,,,,,,,,,0,1,,,,,,,0,10,0,10,,,,,,,,,,,933.4608,933.961,934.2115,937.1643,space,2.926,,937.1643,20,30,938.1652,938.1652,938.1732,,,,0,18,18,18,1,35,85,,,,,,,,
,,5c579b1191c0ad0001cfd373,65b1a1d8f6e3a1d54d48fb89,2024-01-24_15h49.29.870,bars,2023.2.3,Win32,60.24096386,657b66ea316d21385b68909f,,,,,,,,,,,938.1734,939.1664,,,939.6667,939.917,,160,160,,,,,,,,,,,,,,,,bars/033.png,bars/mask007.png,,,,,,,,,,,,8,2,,,,,,,2,8,2,9,,,,,,,,,,,939.1665,939.6666,939.9171,943.6043,space,3.6555,,943.6044,45,5,944.6053,944.6053,944.6128,,,,0,19,19,19,1,25,155,,,,,,,,
,,5c579b1191c0ad0001cfd373,65b1a1d8f6e3a1d54d48fb89,2024-01-24_15h49.29.870,bars,2023.2.3,Win32,60.24096386,657b66ea316d21385b68909f,,,,,,,,,,,944.613,945.6064,,,946.1068,946.357,,52,52,,,,,,,,,,,,,,,,bars/027.png,bars/mask003.png,,,,,,,,,,,,7,2,,,,,,,4,6,4,7,,,,,,,,,,,945.6064,946.1068,946.3571,948.5087,space,2.1328,,948.5087,58,2,949.5102,949.5102,949.5174,,,,0,20,20,20,1,110,50,,,,,,,,
,,5c579b1191c0ad0001cfd373,65b1a1d8f6e3a1d54d48fb89,2024-01-24_15h49.29.870,bars,2023.2.3,Win32,60.24096386,657b66ea316d21385b68909f,,,,,,,,,,,949.5175,950.5114,,,951.0116,951.2618,,178,-2,,,,,,,,,,,,,,,,bars/020.png,bars/mask007.png,,,,,,,,,,,,5,2,,,,,,,6,8,7,7,,,,,,,,,,,950.5115,951.0116,951.2618,953.517,space,2.2368,,953.517,63,8,954.5151,954.5152,954.516,,,,0,21,21,21,1,115,170,,,,,,,,
,,5c579b1191c0ad0001cfd373,65b1a1d8f6e3a1d54d48fb89,2024-01-24_15h49.29.870,bars,2023.2.3,Win32,60.24096386,657b66ea316d21385b68909f,,,,,,,,,,,954.5164,955.516,,,956.0168,956.2668,,173,-7,,,,,,,,,,,,,,,,bars/016.png,bars/mask006.png,,,,,,,,,,,,7,2,,,,,,,4,10,5,10,,,,,,,,,,,955.5161,956.0166,956.2668,958.4881,space,2.2032,,958.4881,47,8,959.4868,959.4868,959.4948,,,,0,22,22,22,1,40,165,,,,,,,,
,,5c579b1191c0ad0001cfd373,65b1a1d8f6e3a1d54d48fb89,2024-01-24_15h49.29.870,bars,2023.2.3,Win32,60.24096386,657b66ea316d21385b68909f,,,,,,,,,,,959.4949,960.4879,,,960.9883,961.2382,,114,114,,,,,,,,,,,,,,,,bars/004.png,bars/mask006.png,,,,,,,,,,,,6,2,,,,,,,6,8,7,9,,,,,,,,,,,960.4879,960.9883,961.2382,963.8748,space,2.6112,,963.8748,89,11,964.8757,964.8757,964.8828,,,,0,23,23,23,1,25,125,,,,,,,,
,,5c579b1191c0ad0001cfd373,65b1a1d8f6e3a1d54d48fb89,2024-01-24_15h49.29.870,bars,2023.2.3,Win32,60.24096386,657b66ea316d21385b68909f,,,,,,,,,,,964.8828,965.8763,,,966.3789,966.6288,,175,-5,,,,,,,,,,,,,,,,bars/033.png,bars/mask008.png,,,,,,,,,,,,3,2,,,,,,,8,10,9,10,,,,,,,,,,,965.8763,966.3789,966.6288,968.7127,space,2.0777,,968.7127,30,20,969.7135,969.7135,969.7207,,,,0,24,24,24,1,25,155,,,,,,,,
,,5c579b1191c0ad0001cfd373,65b1a1d8f6e3a1d54d48fb89,2024-01-24_15h49.29.870,bars,2023.2.3,Win32,60.24096386,657b66ea316d21385b68909f,,,,,,,,,,,969.7208,970.7143,,,971.215,971.4654,,37,37,,,,,,,,,,,,,,,,bars/034.png,bars/mask004.png,,,,,,,,,,,,1,2,,,,,,,10,8,10,9,,,,,,,,,,,970.7143,971.215,971.4655,972.2164,space,0.735,,972.2165,88,28,973.2172,973.2172,973.218,,,,0,25,25,25,1,125,65,,,,,,,,
,,5c579b1191c0ad0001cfd373,65b1a1d8f6e3a1d54d48fb89,2024-01-24_15h49.29.870,bars,2023.2.3,Win32,60.24096386,657b66ea316d21385b68909f,,,,,,,,,,,973.2182,974.2199,,,974.7183,974.9688,,101,101,,,,,,,,,,,,,,,,bars/049.png,bars/mask007.png,,,,,,,,,,,,5,2,,,,,,,10,10,10,10,,,,,,,,,,,974.22,974.7183,974.9689,976.9565,space,1.9681,,976.9565,59,14,977.955,977.9551,977.9623,,,,0,26,26,26,1,160,115,,,,,,,,
,,5c579b1191c0ad0001cfd373,65b1a1d8f6e3a1d54d48fb89,2024-01-24_15h49.29.870,bars,2023.2.3,Win32,60.24096386,657b66ea316d21385b68909f,,,,,,,,,,,977.9625,978.9561,,,979.4563,979.707,,66,66,,,,,,,,,,,,,,,,bars/030.png,bars/mask002.png,,,,,,,,,,,,10,2,,,,,,,8,10,7,10,,,,,,,,,,,978.9563,979.4563,979.7071,982.9269,space,3.1982,,982.927,74,1,983.9276,983.9276,983.9348,,,,0,27,27,27,1,140,65,,,,,,,,
,,5c579b1191c0ad0001cfd373,65b1a1d8f6e3a1d54d48fb89,2024-01-24_15h49.29.870,bars,2023.2.3,Win32,60.24096386,657b66ea316d21385b68909f,,,,,,,,,,,983.9348,984.9288,,,985.4297,985.6796,,51,51,,,,,,,,,,,,,,,,bars/025.png,bars/mask003.png,,,,,,,,,,,,4,2,,,,,,,10,8,10,7,,,,,,,,,,,984.929,985.4295,985.6796,987.9655,space,2.2582,,987.9656,54,11,988.9659,988.966,988.9724,,,,0,28,28,28,1,105,40,,,,,,,,
,,5c579b1191c0ad0001cfd373,65b1a1d8f6e3a1d54d48fb89,2024-01-24_15h49.29.870,bars,2023.2.3,Win32,60.24096386,657b66ea316d21385b68909f,,,,,,,,,,,988.9726,989.9665,,,990.4677,990.7178,,103,103,,,,,,,,,,,,,,,,bars/043.png,bars/mask008.png,,,,,,,,,,,,0,2,,,,,,,10,6,10,5,,,,,,,,,,,989.9666,990.4676,990.7179,992.1692,space,1.4275,,992.1693,73,27,993.1704,993.1704,993.1772,,,,0,29,29,29,1,30,130,,,,,,,,
,,5c579b1191c0ad0001cfd373,65b1a1d8f6e3a1d54d48fb89,2024-01-24_15h49.29.870,bars,2023.2.3,Win32,60.24096386,657b66ea316d21385b68909f,,,,,,,,,,,993.1773,994.1712,,,994.6715,994.9222,,142,142,,,,,,,,,,,,,,,,bars/043.png,bars/mask009.png,,,,,,,,,,,,5,2,,,,,,,8,8,7,8,,,,,,,,,,,994.1713,994.6715,994.9222,995.723,space,0.7844,,995.7231,68,12,996.7241,996.7241,996.7248,,,,0,30,30,30,1,30,130,,,,,,,,
,,5c579b1191c0ad0001cfd373,65b1a1d8f6e3a1d54d48fb89,2024-01-24_15h49.29.870,bars,2023.2.3,Win32,60.24096386,657b66ea316d21385b68909f,,,,,,,,,,,996.725,997.725,,,998.2251,998.4756,,73,73,,,,,,,,,,,,,,,,bars/034.png,bars/mask008.png,,,,,,,,,,,,7,2,,,,,,,6,10,5,10,,,,,,,,,,,997.7251,998.2251,998.4756,999.2429,space,0.7422,,999.2429,52,8,1000.244,1000.2442,1000.245,,,,0,31,31,31,1,125,65,,,,,,,,
,,5c579b1191c0ad0001cfd373,65b1a1d8f6e3a1d54d48fb89,2024-01-24_15h49.29.870,bars,2023.2.3,Win32,60.24096386,657b66ea316d21385b68909f,,,,,,,,,,,1000.2453,1001.245,,,1001.7454,1001.9959,,36,36,,,,,,,,,,,,,,,,bars/025.png,bars/mask006.png,,,,,,,,,,,,9,2,,,,,,,4,10,4,10,,,,,,,,,,,1001.245,1001.7454,1001.9959,1004.3313,space,2.3089,,1004.3314,69,4,1005.3324,1005.3324,1005.3393,,,,0,32,32,32,1,105,40,,,,,,,,
,,5c579b1191c0ad0001cfd373,65b1a1d8f6e3a1d54d48fb89,2024-01-24_15h49.29.870,bars,2023.2.3,Win32,60.24096386,657b66ea316d21385b68909f,,,,,,,,,,,1005.3394,1006.3333,,,1006.8336,1007.0842,,74,74,,,,,,,,,,,,,,,,bars/042.png,bars/mask009.png,,,,,,,,,,,,10,2,,,,,,,6,10,5,10,,,,,,,,,,,1006.3333,1006.8336,1007.0843,1009.4034,space,2.3032,,1009.4035,71,1,1010.4041,1010.4042,1010.4118,,,,0,33,33,33,1,145,75,,,,,,,,
,,5c579b1191c0ad0001cfd373,65b1a1d8f6e3a1d54d48fb89,2024-01-24_15h49.29.870,bars,2023.2.3,Win32,60.24096386,657b66ea316d21385b68909f,,,,,,,,,,,1010.412,1011.4049,,,1011.9055,1012.1557,,174,174,,,,,,,,,,,,,,,,bars/048.png,bars/mask009.png,,,,,,,,,,,,10,2,,,,,,,4,10,3,10,,,,,,,,,,,1011.4051,1011.9054,1012.1558,1012.8068,space,0.6213,,1012.8068,56,1,1013.8075,1013.8076,1013.8085,,,,0,34,34,34,1,50,175,,,,,,,,
,,5c579b1191c0ad0001cfd373,65b1a1d8f6e3a1d54d48fb89,2024-01-24_15h49.29.870,bars,2023.2.3,Win32,60.24096386,657b66ea316d21385b68909f,,,,,,,,,,,1013.8088,1014.8086,,,1015.309,1015.5594,,56,56,,,,,,,,,,,,,,,,bars/017.png,bars/mask004.png,,,,,,,,,,,,4,2,,,,,,,6,8,6,7,,,,,,,,,,,1014.8086,1015.3089,1015.5594,1017.4608,space,1.8894,,1017.4608,89,11,1018.4624,1018.4625,1018.4631,,,,0,35,35,35,1,145,45,,,,,,,,
,,5c579b1191c0ad0001cfd373,65b1a1d8f6e3a1d54d48fb89,2024-01-24_15h49.29.870,bars,2023.2.3,Win32,60.24096386,657b66ea316d21385b68909f,,,,,,,,,,,1018.4632,1019.4633,,,1019.9636,1020.2138,,96,96,,,,,,,,,,,,,,,,bars/019.png,bars/mask002.png,,,,,,,,,,,,7,2,,,,,,,8,10,9,10,,,,,,,,,,,1019.4634,1019.9636,1020.214,1022.3161,space,2.0754,,1022.3162,51,9,1023.3168,1023.3169,1023.3241,,,,0,36,36,36,1,45,105,,,,,,,,
,,5c579b1191c0ad0001cfd373,65b1a1d8f6e3a1d54d48fb89,2024-01-24_15h49.29.870,bars,2023.2.3,Win32,60.24096386,657b66ea316d21385b68909f,,,,,,,,,,,1023.3243,1024.318,,,1024.8185,1025.0684,,163,163,,,,,,,,,,,,,,,,bars/044.png,bars/mask001.png,,,,,,,,,,,,7,2,,,,,,,10,8,10,9,,,,,,,,,,,1024.318,1024.8185,1025.0684,1025.92,space,0.8448,,1025.9201,88,8,1026.9206,1026.9206,1026.9276,,,,0,37,37,37,1,75,155,,,,,,,,
,,5c579b1191c0ad0001cfd373,65b1a1d8f6e3a1d54d48fb89,2024-01-24_15h49.29.870,bars,2023.2.3,Win32,60.24096386,657b66ea316d21385b68909f,,,,,,,,,,,1026.9277,1027.9216,,,1028.4218,1028.6727,,178,-2,,,,,,,,,,,,,,,,bars/012.png,bars/mask001.png,,,,,,,,,,,,4,2,,,,,,,8,10,7,10,,,,,,,,,,,1027.9216,1028.4217,1028.6728,1030.5076,space,1.8022,,1030.5077,88,17,1031.508,1031.508,1031.5152,,,,0,38,38,38,1,90,15,,,,,,,,
,,5c579b1191c0ad0001cfd373,65b1a1d8f6e3a1d54d48fb89,2024-01-24_15h49.29.870,bars,2023.2.3,Win32,60.24096386,657b66ea316d21385b68909f,,,,,,,,,,,1031.5153,1032.5096,,,1033.01,1033.2604,,95,95,,,,,,,,,,,,,,,,bars/041.png,bars/mask000.png,,,,,,,,,,,,7,2,,,,,,,6,10,5,10,,,,,,,,,,,1032.5097,1033.0099,1033.2604,1034.762,space,1.4689,,1034.7621,75,10,1035.7626,1035.7627,1035.7638,,,,0,39,39,39,1,20,85,,,,,,,,
,,5c579b1191c0ad0001cfd373,65b1a1d8f6e3a1d54d48fb89,2024-01-24_15h49.29.870,bars,2023.2.3,Win32,60.24096386,657b66ea316d21385b68909f,,,,,,,,,,,1035.764,1036.7632,,,1037.2641,1037.5143,,20,20,,,,,,,,,,,,,,,,bars/036.png,bars/mask000.png,,,,,,,,,,,,10,2,,,,,,,4,10,2,10,,,,,,,,,,,1036.7632,1037.2641,1037.5144,1040.2676,space,2.7366,,1040.2678,55,0,1041.2681,1041.2683,1041.275,,,,0,40,40,40,1,145,20,,,,,,,,
,,5c579b1191c0ad0001cfd373,65b1a1d8f6e3a1d54d48fb89,2024-01-24_15h49.29.870,bars,2023.2.3,Win32,60.24096386,657b66ea316d21385b68909f,,,,,,,,,,,1041.2752,1042.2691,,,1042.77,1043.0198,,172,-8,,,,,,,,,,,,,,,,bars/016.png,bars/mask006.png,,,,,,,,,,,,8,2,,,,,,,6,10,5,10,,,,,,,,,,,1042.2691,1042.7699,1043.0199,1046.0392,space,2.9974,,1046.0392,48,7,1047.0405,1047.0407,1047.0477,,,,0,41,41,41,1,40,165,,,,,,,,
,,5c579b1191c0ad0001cfd373,65b1a1d8f6e3a1d54d48fb89,2024-01-24_15h49.29.870,bars,2023.2.3,Win32,60.24096386,657b66ea316d21385b68909f,,,,,,,,,,,1047.0479,1048.0417,,,1048.5421,1048.7925,,152,152,,,,,,,,,,,,,,,,bars/048.png,bars/mask000.png,,,,,,,,,,,,2,2,,,,,,,4,10,4,10,,,,,,,,,,,1048.0417,1048.5421,1048.7925,1049.5927,space,0.7845,,1049.5928,78,23,1050.594,1050.594,1050.5951,,,,0,42,42,42,1,50,175,,,,,,,,
,,5c579b1191c0ad0001cfd373,65b1a1d8f6e3a1d54d48fb89,2024-01-24_15h49.29.870,bars,2023.2.3,Win32,60.24096386,657b66ea316d21385b68909f,,,,,,,,,,,1050.5953,1051.5952,,,1052.0955,1052.3459,,54,54,,,,,,,,,,,,,,,,bars/035.png,bars/mask000.png,,,,,,,,,,,,7,2,,,,,,,2,10,1,9,,,,,,,,,,,1051.5953,1052.0954,1052.346,1053.5307,space,1.1527,,1053.5308,59,6,1054.5313,1054.5313,1054.5326,,,,0,43,43,43,1,175,60,,,,,,,,
,,5c579b1191c0ad0001cfd373,65b1a1d8f6e3a1d54d48fb89,2024-01-24_15h49.29.870,bars,2023.2.3,Win32,60.24096386,657b66ea316d21385b68909f,,,,,,,,,,,1054.5328,1055.5322,,,1056.0328,1056.2833,,132,132,,,,,,,,,,,,,,,,bars/004.png,bars/mask005.png,,,,,,,,,,,,5,2,,,,,,,0,8,0,6,,,,,,,,,,,1055.5323,1056.0327,1056.2834,1057.4177,space,1.1028,,1057.4177,73,7,1058.4183,1058.4184,1058.4192,,,,0,44,44,44,1,25,125,,,,,,,,
,,5c579b1191c0ad0001cfd373,65b1a1d8f6e3a1d54d48fb89,2024-01-24_15h49.29.870,bars,2023.2.3,Win32,60.24096386,657b66ea316d21385b68909f,,,,,,,,,,,1058.4193,1059.4196,,,1059.9202,1060.1702,,30,30,,,,,,,,,,,,,,,,bars/032.png,bars/mask005.png,,,,,,,,,,,,7,2,,,,,,,0,10,1,10,,,,,,,,,,,1059.4197,1059.9201,1060.1702,1062.3396,space,2.1591,,1062.3397,85,10,1063.3404,1063.3404,1063.347,,,,0,45,45,45,1,125,20,,,,,,,,
,,5c579b1191c0ad0001cfd373,65b1a1d8f6e3a1d54d48fb89,2024-01-24_15h49.29.870,bars,2023.2.3,Win32,60.24096386,657b66ea316d21385b68909f,,,,,,,,,,,1063.3472,1064.3409,,,1064.8412,1065.0919,,112,112,,,,,,,,,,,,,,,,bars/004.png,bars/mask005.png,,,,,,,,,,,,6,2,,,,,,,2,10,2,10,,,,,,,,,,,1064.341,1064.8412,1065.092,1067.6781,space,2.5733,,1067.6781,87,13,1068.6786,1068.6786,1068.6855,,,,0,46,46,46,1,25,125,,,,,,,,
,,5c579b1191c0ad0001cfd373,65b1a1d8f6e3a1d54d48fb89,2024-01-24_15h49.29.870,bars,2023.2.3,Win32,60.24096386,657b66ea316d21385b68909f,,,,,,,,,,,1068.6856,1069.6796,,,1070.1803,1070.4313,,74,74,,,,,,,,,,,,,,,,bars/027.png,bars/mask002.png,,,,,,,,,,,,2,2,,,,,,,0,10,1,10,,,,,,,,,,,1069.6796,1070.1802,1070.4313,1071.3811,space,0.9308,,1071.3811,36,24,1072.3824,1072.3824,1072.3832,,,,0,47,47,47,1,110,50,,,,,,,,
,,5c579b1191c0ad0001cfd373,65b1a1d8f6e3a1d54d48fb89,2024-01-24_15h49.29.870,bars,2023.2.3,Win32,60.24096386,657b66ea316d21385b68909f,,,,,,,,,,,1072.3834,1073.3834,,,1073.8839,1074.1339,,32,32,,,,,,,,,,,,,,,,bars/044.png,bars/mask003.png,,,,,,,,,,,,0,1,,,,,,,2,10,2,10,,,,,,,,,,,1073.3834,1073.8838,1074.1339,1076.3198,space,2.1629,,1076.3198,43,57,1077.3204,1077.3206,1077.3282,,,,0,48,48,48,1,75,155,,,,,,,,
,,5c579b1191c0ad0001cfd373,65b1a1d8f6e3a1d54d48fb89,2024-01-24_15h49.29.870,bars,2023.2.3,Win32,60.24096386,657b66ea316d21385b68909f,,,,,,,,,,,1077.3283,1078.3218,,,1078.8221,1079.0724,,14,14,,,,,,,,,,,,,,,,bars/045.png,bars/mask008.png,,,,,,,,,,,,7,2,,,,,,,0,10,0,8,,,,,,,,,,,1078.3218,1078.822,1079.0725,1082.6262,space,3.5287,,1082.6263,86,4,1083.6269,1083.6269,1083.6347,,,,0,49,49,49,1,100,10,,,,,,,,
,,5c579b1191c0ad0001cfd373,65b1a1d8f6e3a1d54d48fb89,2024-01-24_15h49.29.870,bars,2023.2.3,Win32,60.24096386,657b66ea316d21385b68909f,,,,,,,,,,,,,,,,,,,,,,,,,,,,,,,,,,,,,,,,,,,,,,,,,,,,,,,,,,,,,,,,,,,,,,,,,,,,,,,,,,,,,,,,,,,,,1083.6347,1143.637,0,2,2,3,1,sequence_tables/blk031.csv
,,5c579b1191c0ad0001cfd373,65b1a1d8f6e3a1d54d48fb89,2024-01-24_15h49.29.870,bars,2023.2.3,Win32,60.24096386,657b66ea316d21385b68909f,,,,,,,,,,,1144.8919,1145.8887,,,1146.3894,1146.6397,,86,86,,,,,,,,,,,,,,,,bars/012.png,bars/mask009.png,,,,,,,,,,,,2,1,,,,,,,3,3,2,3,,,,,,1143.6442,1144.8887,space,1.229,,1145.8888,1146.3894,1146.6398,1147.8741,space,1.2087,,1147.8742,4,71,1148.8753,1148.8754,1148.8773,,,,0,0,0,0,1,90,15,,,,,,,,
,,5c579b1191c0ad0001cfd373,65b1a1d8f6e3a1d54d48fb89,2024-01-24_15h49.29.870,bars,2023.2.3,Win32,60.24096386,657b66ea316d21385b68909f,,,,,,,,,,,1148.8776,1149.8764,,,1150.3768,1150.6271,,101,101,,,,,,,,,,,,,,,,bars/018.png,bars/mask005.png,,,,,,,,,,,,1,2,,,,,,,1,1,1,2,,,,,,,,,,,1149.8765,1150.3767,1150.6271,1152.398,space,1.7686,,1152.398,49,11,1153.3963,1153.3963,1153.3984,,,,0,1,1,1,1,150,90,,,,,,,,
,,5c579b1191c0ad0001cfd373,65b1a1d8f6e3a1d54d48fb89,2024-01-24_15h49.29.870,bars,2023.2.3,Win32,60.24096386,657b66ea316d21385b68909f,,,,,,,,,,,1153.3987,1154.3974,,,1154.898,1155.1483,,131,131,,,,,,,,,,,,,,,,bars/048.png,bars/mask004.png,,,,,,,,,,,,0,2,,,,,,,3,0,4,0,,,,,,,,,,,1154.3974,1154.898,1155.1483,1158.4184,space,3.2442,,1158.4186,81,44,1159.419,1159.4191,1159.4263,,,,0,2,2,2,1,50,175,,,,,,,,
,,5c579b1191c0ad0001cfd373,65b1a1d8f6e3a1d54d48fb89,2024-01-24_15h49.29.870,bars,2023.2.3,Win32,60.24096386,657b66ea316d21385b68909f,,,,,,,,,,,1159.4265,1160.4201,,,1160.9206,1161.171,,75,75,,,,,,,,,,,,,,,,bars/014.png,bars/mask009.png,,,,,,,,,,,,0,1,,,,,,,1,2,0,4,,,,,,,,,,,1160.4202,1160.9205,1161.171,1161.8886,space,0.6863,,1161.8887,5,75,1162.8893,1162.8893,1162.8914,,,,0,3,3,3,1,80,0,,,,,,,,
,,5c579b1191c0ad0001cfd373,65b1a1d8f6e3a1d54d48fb89,2024-01-24_15h49.29.870,bars,2023.2.3,Win32,60.24096386,657b66ea316d21385b68909f,,,,,,,,,,,1162.8917,1163.8902,,,1164.3908,1164.641,,165,165,,,,,,,,,,,,,,,,bars/015.png,bars/mask002.png,,,,,,,,,,,,3,2,,,,,,,3,4,4,4,,,,,,,,,,,1163.8902,1164.3908,1164.641,1167.0597,space,2.4003,,1167.0597,55,5,1168.0609,1168.061,1168.0682,,,,0,4,4,4,1,110,160,,,,,,,,
,,5c579b1191c0ad0001cfd373,65b1a1d8f6e3a1d54d48fb89,2024-01-24_15h49.29.870,bars,2023.2.3,Win32,60.24096386,657b66ea316d21385b68909f,,,,,,,,,,,1168.0683,1169.0621,,,1169.5626,1169.8128,,22,22,,,,,,,,,,,,,,,,bars/025.png,bars/mask006.png,,,,,,,,,,,,2,2,,,,,,,1,6,2,6,,,,,,,,,,,1169.0621,1169.5626,1169.8129,1171.3145,space,1.4766,,1171.3147,83,18,1172.3153,1172.3153,1172.3225,,,,0,5,5,5,1,105,40,,,,,,,,
,,5c579b1191c0ad0001cfd373,65b1a1d8f6e3a1d54d48fb89,2024-01-24_15h49.29.870,bars,2023.2.3,Win32,60.24096386,657b66ea316d21385b68909f,,,,,,,,,,,1172.3226,1173.3164,,,1173.8169,1174.0672,,91,91,,,,,,,,,,,,,,,,bars/039.png,bars/mask007.png,,,,,,,,,,,,3,2,,,,,,,0,8,0,6,,,,,,,,,,,1173.3164,1173.8168,1174.0672,1177.0706,space,2.9738,,1177.0707,84,14,1178.0707,1178.0708,1178.0779,,,,0,6,6,6,1,175,105,,,,,,,,
,,5c579b1191c0ad0001cfd373,65b1a1d8f6e3a1d54d48fb89,2024-01-24_15h49.29.870,bars,2023.2.3,Win32,60.24096386,657b66ea316d21385b68909f,,,,,,,,,,,1178.078,1179.0719,,,1179.5725,1179.823,,136,136,,,,,,,,,,,,,,,,bars/000.png,bars/mask001.png,,,,,,,,,,,,4,2,,,,,,,0,6,0,6,,,,,,,,,,,1179.0721,1179.5725,1179.823,1183.8105,space,3.9628,,1183.8105,84,9,1184.8108,1184.8108,1184.8172,,,,0,7,7,7,1,40,145,,,,,,,,
,,5c579b1191c0ad0001cfd373,65b1a1d8f6e3a1d54d48fb89,2024-01-24_15h49.29.870,bars,2023.2.3,Win32,60.24096386,657b66ea316d21385b68909f,,,,,,,,,,,1184.8174,1185.8122,,,1186.3123,1186.565,,8,188,,,,,,,,,,,,,,,,bars/040.png,bars/mask003.png,,,,,,,,,,,,4,2,,,,,,,2,4,1,4,,,,,,,,,,,1185.8124,1186.3123,1186.565,1188.7317,space,2.1641,,1188.7317,48,3,1189.7326,1189.7327,1189.7337,,,,0,8,8,8,1,140,5,,,,,,,,
,,5c579b1191c0ad0001cfd373,65b1a1d8f6e3a1d54d48fb89,2024-01-24_15h49.29.870,bars,2023.2.3,Win32,60.24096386,657b66ea316d21385b68909f,,,,,,,,,,,1189.7339,1190.734,,,1191.2343,1191.4843,,45,45,,,,,,,,,,,,,,,,bars/030.png,bars/mask005.png,,,,,,,,,,,,2,2,,,,,,,4,6,3,6,,,,,,,,,,,1190.734,1191.2342,1191.4844,1192.1039,space,0.6013,,1192.104,85,20,1193.1025,1193.1026,1193.1036,,,,0,9,9,9,1,140,65,,,,,,,,
,,5c579b1191c0ad0001cfd373,65b1a1d8f6e3a1d54d48fb89,2024-01-24_15h49.29.870,bars,2023.2.3,Win32,60.24096386,657b66ea316d21385b68909f,,,,,,,,,,,1193.1038,1194.1036,,,1194.6042,1194.8539,,26,26,,,,,,,,,,,,,,,,bars/022.png,bars/mask000.png,,,,,,,,,,,,7,2,,,,,,,6,8,7,9,,,,,,,,,,,1194.1036,1194.6041,1194.8539,1195.9721,space,1.1153,,1195.9722,69,6,1196.9729,1196.973,1196.9736,,,,0,10,10,10,1,95,20,,,,,,,,
,,5c579b1191c0ad0001cfd373,65b1a1d8f6e3a1d54d48fb89,2024-01-24_15h49.29.870,bars,2023.2.3,Win32,60.24096386,657b66ea316d21385b68909f,,,,,,,,,,,1196.9737,1197.9743,,,1198.4745,1198.7252,,63,63,,,,,,,,,,,,,,,,bars/011.png,bars/mask005.png,,,,,,,,,,,,1,2,,,,,,,4,6,4,5,,,,,,,,,,,1197.9743,1198.4745,1198.7252,1199.5256,space,0.7806,,1199.5256,83,22,1200.5266,1200.5266,1200.5277,,,,0,11,11,11,1,160,85,,,,,,,,
,,5c579b1191c0ad0001cfd373,65b1a1d8f6e3a1d54d48fb89,2024-01-24_15h49.29.870,bars,2023.2.3,Win32,60.24096386,657b66ea316d21385b68909f,,,,,,,,,,,1200.5279,1201.5277,,,1202.0284,1202.2782,,50,50,,,,,,,,,,,,,,,,bars/029.png,bars/mask001.png,,,,,,,,,,,,8,2,,,,,,,2,8,2,9,,,,,,,,,,,1201.5278,1202.0283,1202.2782,1203.0796,space,0.7951,,1203.0796,40,5,1204.0802,1204.0803,1204.0814,,,,0,12,12,12,1,90,45,,,,,,,,
,,5c579b1191c0ad0001cfd373,65b1a1d8f6e3a1d54d48fb89,2024-01-24_15h49.29.870,bars,2023.2.3,Win32,60.24096386,657b66ea316d21385b68909f,,,,,,,,,,,1204.0816,1205.0809,,,1205.5819,1205.832,,14,14,,,,,,,,,,,,,,,,bars/007.png,bars/mask000.png,,,,,,,,,,,,0,1,,,,,,,0,10,1,9,,,,,,,,,,,1205.081,1205.5818,1205.8321,1206.3159,space,0.4565,,1206.316,19,41,1207.3167,1207.3167,1207.3189,,,,0,13,13,13,1,175,55,,,,,,,,
,,5c579b1191c0ad0001cfd373,65b1a1d8f6e3a1d54d48fb89,2024-01-24_15h49.29.870,bars,2023.2.3,Win32,60.24096386,657b66ea316d21385b68909f,,,,,,,,,,,1207.3191,1208.3177,,,1208.8182,1209.0684,,129,129,,,,,,,,,,,,,,,,bars/005.png,bars/mask001.png,,,,,,,,,,,,6,2,,,,,,,2,10,1,10,,,,,,,,,,,1208.3178,1208.8182,1209.0684,1211.59,space,2.5031,,1211.59,61,11,1212.5887,1212.5888,1212.5964,,,,0,14,14,14,1,10,140,,,,,,,,
,,5c579b1191c0ad0001cfd373,65b1a1d8f6e3a1d54d48fb89,2024-01-24_15h49.29.870,bars,2023.2.3,Win32,60.24096386,657b66ea316d21385b68909f,,,,,,,,,,,1212.5966,1213.5896,,,1214.0905,1214.3405,,56,56,,,,,,,,,,,,,,,,bars/025.png,bars/mask009.png,,,,,,,,,,,,4,2,,,,,,,0,8,0,8,,,,,,,,,,,1213.5896,1214.0904,1214.3406,1217.2288,space,2.8695,,1217.2288,49,16,1218.2276,1218.2276,1218.2344,,,,0,15,15,15,1,105,40,,,,,,,,
,,5c579b1191c0ad0001cfd373,65b1a1d8f6e3a1d54d48fb89,2024-01-24_15h49.29.870,bars,2023.2.3,Win32,60.24096386,657b66ea316d21385b68909f,,,,,,,,,,,1218.2344,1219.2284,,,1219.7292,1219.9791,,136,136,,,,,,,,,,,,,,,,bars/024.png,bars/mask005.png,,,,,,,,,,,,0,1,,,,,,,0,10,1,8,,,,,,,,,,,1219.2284,1219.7291,1219.9791,1220.8465,space,0.8621,,1220.8466,16,34,1221.8477,1221.8478,1221.8549,,,,0,16,16,16,1,120,170,,,,,,,,
,,5c579b1191c0ad0001cfd373,65b1a1d8f6e3a1d54d48fb89,2024-01-24_15h49.29.870,bars,2023.2.3,Win32,60.24096386,657b66ea316d21385b68909f,,,,,,,,,,,1221.8551,1222.8487,,,1223.3494,1223.5996,,21,201,,,,,,,,,,,,,,,,bars/040.png,bars/mask000.png,,,,,,,,,,,,4,2,,,,,,,0,10,0,9,,,,,,,,,,,1222.8487,1223.3494,1223.5997,1226.6864,space,3.057,,1226.6864,61,16,1227.6873,1227.6873,1227.6948,,,,0,17,17,17,1,140,5,,,,,,,,
,,5c579b1191c0ad0001cfd373,65b1a1d8f6e3a1d54d48fb89,2024-01-24_15h49.29.870,bars,2023.2.3,Win32,60.24096386,657b66ea316d21385b68909f,,,,,,,,,,,1227.6949,1228.6881,,,1229.1887,1229.4387,,112,112,,,,,,,,,,,,,,,,bars/018.png,bars/mask003.png,,,,,,,,,,,,3,2,,,,,,,2,10,2,10,,,,,,,,,,,1228.6881,1229.1886,1229.4388,1230.5565,space,1.1139,,1230.5566,38,22,1231.5575,1231.5577,1231.5588,,,,0,18,18,18,1,150,90,,,,,,,,
,,5c579b1191c0ad0001cfd373,65b1a1d8f6e3a1d54d48fb89,2024-01-24_15h49.29.870,bars,2023.2.3,Win32,60.24096386,657b66ea316d21385b68909f,,,,,,,,,,,1231.5591,1232.5588,,,1233.0593,1233.3095,,79,79,,,,,,,,,,,,,,,,bars/027.png,bars/mask001.png,,,,,,,,,,,,0,2,,,,,,,4,8,5,8,,,,,,,,,,,1232.5588,1233.0593,1233.3095,1235.5948,space,2.2596,,1235.5948,31,29,1236.596,1236.5961,1236.6033,,,,0,19,19,19,1,110,50,,,,,,,,
,,5c579b1191c0ad0001cfd373,65b1a1d8f6e3a1d54d48fb89,2024-01-24_15h49.29.870,bars,2023.2.3,Win32,60.24096386,657b66ea316d21385b68909f,,,,,,,,,,,1236.6035,1237.5971,,,1238.0974,1238.3479,,45,45,,,,,,,,,,,,,,,,bars/042.png,bars/mask007.png,,,,,,,,,,,,0,2,,,,,,,6,10,7,10,,,,,,,,,,,1237.5973,1238.0974,1238.3479,1238.9654,space,0.589,,1238.9656,80,30,1239.9661,1239.9661,1239.9671,,,,0,20,20,20,1,145,75,,,,,,,,
,,5c579b1191c0ad0001cfd373,65b1a1d8f6e3a1d54d48fb89,2024-01-24_15h49.29.870,bars,2023.2.3,Win32,60.24096386,657b66ea316d21385b68909f,,,,,,,,,,,1239.9673,1240.9671,,,1241.4678,1241.7196,,90,90,,,,,,,,,,,,,,,,bars/041.png,bars/mask000.png,,,,,,,,,,,,6,2,,,,,,,8,8,7,7,,,,,,,,,,,1240.9672,1241.4677,1241.7197,1242.6186,space,0.8892,,1242.6186,70,5,1243.6196,1243.6196,1243.6206,,,,0,21,21,21,1,20,85,,,,,,,,
,,5c579b1191c0ad0001cfd373,65b1a1d8f6e3a1d54d48fb89,2024-01-24_15h49.29.870,bars,2023.2.3,Win32,60.24096386,657b66ea316d21385b68909f,,,,,,,,,,,1243.6209,1244.6207,,,1245.1208,1245.3712,,24,24,,,,,,,,,,,,,,,,bars/012.png,bars/mask003.png,,,,,,,,,,,,7,2,,,,,,,6,10,6,10,,,,,,,,,,,1244.6207,1245.1208,1245.3713,1246.4892,space,1.1011,,1246.4893,66,9,1247.4898,1247.4899,1247.4906,,,,0,22,22,22,1,90,15,,,,,,,,
,,5c579b1191c0ad0001cfd373,65b1a1d8f6e3a1d54d48fb89,2024-01-24_15h49.29.870,bars,2023.2.3,Win32,60.24096386,657b66ea316d21385b68909f,,,,,,,,,,,1247.4908,1248.4914,,,1248.9914,1249.2419,,98,98,,,,,,,,,,,,,,,,bars/019.png,bars/mask006.png,,,,,,,,,,,,5,2,,,,,,,4,8,3,7,,,,,,,,,,,1248.4915,1248.9914,1249.242,1249.7925,space,0.527,,1249.7925,53,7,1250.7936,1250.7937,1250.7947,,,,0,23,23,23,1,45,105,,,,,,,,
,,5c579b1191c0ad0001cfd373,65b1a1d8f6e3a1d54d48fb89,2024-01-24_15h49.29.870,bars,2023.2.3,Win32,60.24096386,657b66ea316d21385b68909f,,,,,,,,,,,1250.7949,1251.7945,,,1252.2951,1252.5451,,62,62,,,,,,,,,,,,,,,,bars/035.png,bars/mask001.png,,,,,,,,,,,,9,2,,,,,,,6,10,6,10,,,,,,,,,,,1251.7946,1252.295,1252.5453,1254.8642,space,2.2953,,1254.8642,67,2,1255.8652,1255.8653,1255.8723,,,,0,24,24,24,1,175,60,,,,,,,,
,,5c579b1191c0ad0001cfd373,65b1a1d8f6e3a1d54d48fb89,2024-01-24_15h49.29.870,bars,2023.2.3,Win32,60.24096386,657b66ea316d21385b68909f,,,,,,,,,,,1255.8724,1256.8664,,,1257.3665,1257.6171,,162,162,,,,,,,,,,,,,,,,bars/044.png,bars/mask009.png,,,,,,,,,,,,7,2,,,,,,,8,10,8,9,,,,,,,,,,,1256.8664,1257.3665,1257.6172,1258.2506,space,0.6077,,1258.2507,87,7,1259.2518,1259.2519,1259.2528,,,,0,25,25,25,1,75,155,,,,,,,,
,,5c579b1191c0ad0001cfd373,65b1a1d8f6e3a1d54d48fb89,2024-01-24_15h49.29.870,bars,2023.2.3,Win32,60.24096386,657b66ea316d21385b68909f,,,,,,,,,,,1259.2531,1260.2525,,,1260.7534,1261.0034,,179,179,,,,,,,,,,,,,,,,bars/024.png,bars/mask003.png,,,,,,,,,,,,6,2,,,,,,,10,8,10,8,,,,,,,,,,,1260.2526,1260.7534,1261.0035,1264.6573,space,3.645,,1264.6574,59,9,1265.6579,1265.6579,1265.6654,,,,0,26,26,26,1,120,170,,,,,,,,
,,5c579b1191c0ad0001cfd373,65b1a1d8f6e3a1d54d48fb89,2024-01-24_15h49.29.870,bars,2023.2.3,Win32,60.24096386,657b66ea316d21385b68909f,,,,,,,,,,,1265.6655,1266.6589,,,1267.1597,1267.4097,,31,31,,,,,,,,,,,,,,,,bars/031.png,bars/mask004.png,,,,,,,,,,,,9,2,,,,,,,10,10,10,10,,,,,,,,,,,1266.6589,1267.1596,1267.4098,1268.1612,space,0.7264,,1268.1613,89,4,1269.1615,1269.1616,1269.1627,,,,0,27,27,27,1,120,35,,,,,,,,
,,5c579b1191c0ad0001cfd373,65b1a1d8f6e3a1d54d48fb89,2024-01-24_15h49.29.870,bars,2023.2.3,Win32,60.24096386,657b66ea316d21385b68909f,,,,,,,,,,,1269.1629,1270.1626,,,1270.6633,1270.9133,,75,75,,,,,,,,,,,,,,,,bars/042.png,bars/mask007.png,,,,,,,,,,,,10,2,,,,,,,8,10,8,10,,,,,,,,,,,1270.1627,1270.6632,1270.9135,1273.7496,space,2.8074,,1273.7496,70,0,1274.7505,1274.7505,1274.7584,,,,0,28,28,28,1,145,75,,,,,,,,
,,5c579b1191c0ad0001cfd373,65b1a1d8f6e3a1d54d48fb89,2024-01-24_15h49.29.870,bars,2023.2.3,Win32,60.24096386,657b66ea316d21385b68909f,,,,,,,,,,,1274.7585,1275.7513,,,1276.2523,1276.5024,,81,81,,,,,,,,,,,,,,,,bars/001.png,bars/mask005.png,,,,,,,,,,,,8,2,,,,,,,10,8,9,9,,,,,,,,,,,1275.7513,1276.2523,1276.5025,1277.4199,space,0.8982,,1277.42,49,4,1278.4226,1278.4226,1278.4232,,,,0,29,29,29,1,130,85,,,,,,,,
,,5c579b1191c0ad0001cfd373,65b1a1d8f6e3a1d54d48fb89,2024-01-24_15h49.29.870,bars,2023.2.3,Win32,60.24096386,657b66ea316d21385b68909f,,,,,,,,,,,1278.4233,1279.4217,,,1279.9236,1280.1728,,63,63,,,,,,,,,,,,,,,,bars/023.png,bars/mask005.png,,,,,,,,,,,,0,1,,,,,,,8,10,7,10,,,,,,,,,,,1279.4218,1279.9236,1280.1728,1282.3912,space,2.1957,,1282.3913,43,52,1283.3922,1283.3923,1283.4,,,,0,30,30,30,1,20,115,,,,,,,,
,,5c579b1191c0ad0001cfd373,65b1a1d8f6e3a1d54d48fb89,2024-01-24_15h49.29.870,bars,2023.2.3,Win32,60.24096386,657b66ea316d21385b68909f,,,,,,,,,,,1283.4002,1284.3935,,,1284.894,1285.1444,,35,35,,,,,,,,,,,,,,,,bars/022.png,bars/mask000.png,,,,,,,,,,,,5,2,,,,,,,6,10,5,10,,,,,,,,,,,1284.3936,1284.894,1285.1444,1286.0622,space,0.8965,,1286.0622,60,15,1287.063,1287.063,1287.065,,,,0,31,31,31,1,95,20,,,,,,,,
,,5c579b1191c0ad0001cfd373,65b1a1d8f6e3a1d54d48fb89,2024-01-24_15h49.29.870,bars,2023.2.3,Win32,60.24096386,657b66ea316d21385b68909f,,,,,,,,,,,1287.0651,1288.0643,,,1288.5643,1288.8146,,70,70,,,,,,,,,,,,,,,,bars/049.png,bars/mask003.png,,,,,,,,,,,,0,2,,,,,,,4,10,1,9,,,,,,,,,,,1288.0644,1288.5643,1288.8147,1289.3819,space,0.5371,,1289.382,90,45,1290.3826,1290.3827,1290.3837,,,,0,32,32,32,1,160,115,,,,,,,,
,,5c579b1191c0ad0001cfd373,65b1a1d8f6e3a1d54d48fb89,2024-01-24_15h49.29.870,bars,2023.2.3,Win32,60.24096386,657b66ea316d21385b68909f,,,,,,,,,,,1290.3839,1291.3839,,,1291.8846,1292.1349,,17,17,,,,,,,,,,,,,,,,bars/012.png,bars/mask008.png,,,,,,,,,,,,7,2,,,,,,,2,8,2,8,,,,,,,,,,,1291.384,1291.8844,1292.1349,1293.2196,space,1.0517,,1293.2199,73,2,1294.22,1294.22,1294.2269,,,,0,33,33,33,1,90,15,,,,,,,,
,,5c579b1191c0ad0001cfd373,65b1a1d8f6e3a1d54d48fb89,2024-01-24_15h49.29.870,bars,2023.2.3,Win32,60.24096386,657b66ea316d21385b68909f,,,,,,,,,,,1294.227,1295.2207,,,1295.7214,1295.9717,,81,81,,,,,,,,,,,,,,,,bars/026.png,bars/mask009.png,,,,,,,,,,,,7,2,,,,,,,4,6,5,8,,,,,,,,,,,1295.2208,1295.7214,1295.9717,1296.5723,space,0.573,,1296.5723,46,4,1297.5732,1297.5732,1297.5743,,,,0,34,34,34,1,35,85,,,,,,,,
,,5c579b1191c0ad0001cfd373,65b1a1d8f6e3a1d54d48fb89,2024-01-24_15h49.29.870,bars,2023.2.3,Win32,60.24096386,657b66ea316d21385b68909f,,,,,,,,,,,1297.5745,1298.5743,,,1299.0749,1299.3252,,95,95,,,,,,,,,,,,,,,,bars/043.png,bars/mask007.png,,,,,,,,,,,,0,2,,,,,,,6,8,5,9,,,,,,,,,,,1298.5744,1299.0749,1299.3252,1301.7775,space,2.4359,,1301.7776,65,35,1302.7784,1302.7784,1302.7857,,,,0,35,35,35,1,30,130,,,,,,,,
,,5c579b1191c0ad0001cfd373,65b1a1d8f6e3a1d54d48fb89,2024-01-24_15h49.29.870,bars,2023.2.3,Win32,60.24096386,657b66ea316d21385b68909f,,,,,,,,,,,1302.7858,1303.7796,,,1304.2799,1304.5304,,65,65,,,,,,,,,,,,,,,,bars/042.png,bars/mask006.png,,,,,,,,,,,,6,2,,,,,,,8,10,9,9,,,,,,,,,,,1303.7797,1304.2799,1304.5305,1307.3998,space,2.8464,,1307.3998,80,10,1308.4007,1308.4008,1308.4075,,,,0,36,36,36,1,145,75,,,,,,,,
,,5c579b1191c0ad0001cfd373,65b1a1d8f6e3a1d54d48fb89,2024-01-24_15h49.29.870,bars,2023.2.3,Win32,60.24096386,657b66ea316d21385b68909f,,,,,,,,,,,1308.4076,1309.4018,,,1309.9024,1310.1525,,149,149,,,,,,,,,,,,,,,,bars/003.png,bars/mask007.png,,,,,,,,,,,,6,2,,,,,,,10,8,9,9,,,,,,,,,,,1309.4019,1309.9023,1310.1526,1310.6867,space,0.5042,,1310.6867,56,9,1311.6893,1311.6894,1311.6899,,,,0,37,37,37,1,25,140,,,,,,,,
,,5c579b1191c0ad0001cfd373,65b1a1d8f6e3a1d54d48fb89,2024-01-24_15h49.29.870,bars,2023.2.3,Win32,60.24096386,657b66ea316d21385b68909f,,,,,,,,,,,1311.6901,1312.6881,,,1313.1891,1313.4388,,80,80,,,,,,,,,,,,,,,,bars/026.png,bars/mask005.png,,,,,,,,,,,,8,2,,,,,,,10,10,10,10,,,,,,,,,,,1312.6881,1313.1889,1313.439,1314.123,space,0.6736,,1314.123,45,5,1315.124,1315.1241,1315.1251,,,,0,38,38,38,1,35,85,,,,,,,,
,,5c579b1191c0ad0001cfd373,65b1a1d8f6e3a1d54d48fb89,2024-01-24_15h49.29.870,bars,2023.2.3,Win32,60.24096386,657b66ea316d21385b68909f,,,,,,,,,,,1315.1253,1316.125,,,1316.6256,1316.8761,,40,40,,,,,,,,,,,,,,,,bars/047.png,bars/mask009.png,,,,,,,,,,,,2,1,,,,,,,10,10,10,10,,,,,,,,,,,1316.1251,1316.6256,1316.8762,1318.6114,space,1.7087,,1318.6114,25,30,1319.6121,1319.6121,1319.6139,,,,0,39,39,39,1,15,70,,,,,,,,
,,5c579b1191c0ad0001cfd373,65b1a1d8f6e3a1d54d48fb89,2024-01-24_15h49.29.870,bars,2023.2.3,Win32,60.24096386,657b66ea316d21385b68909f,,,,,,,,,,,1319.614,1320.6128,,,1321.1135,1321.3636,,146,146,,,,,,,,,,,,,,,,bars/048.png,bars/mask001.png,,,,,,,,,,,,0,2,,,,,,,8,8,7,7,,,,,,,,,,,1320.6129,1321.1134,1321.3636,1323.6828,space,2.2933,,1323.6828,84,29,1324.6834,1324.6835,1324.6909,,,,0,40,40,40,1,50,175,,,,,,,,
,,5c579b1191c0ad0001cfd373,65b1a1d8f6e3a1d54d48fb89,2024-01-24_15h49.29.870,bars,2023.2.3,Win32,60.24096386,657b66ea316d21385b68909f,,,,,,,,,,,1324.691,1325.6848,,,1326.1852,1326.4355,,125,125,,,,,,,,,,,,,,,,bars/000.png,bars/mask007.png,,,,,,,,,,,,2,2,,,,,,,10,6,10,7,,,,,,,,,,,1325.6849,1326.1852,1326.4355,1331.4406,space,4.9969,,1331.4408,85,20,1332.4414,1332.4414,1332.4485,,,,0,41,41,41,1,40,145,,,,,,,,
,,5c579b1191c0ad0001cfd373,65b1a1d8f6e3a1d54d48fb89,2024-01-24_15h49.29.870,bars,2023.2.3,Win32,60.24096386,657b66ea316d21385b68909f,,,,,,,,,,,1332.4487,1333.4418,,,1333.9427,1334.1929,,103,103,,,,,,,,,,,,,,,,bars/049.png,bars/mask006.png,,,,,,,,,,,,2,2,,,,,,,10,4,10,4,,,,,,,,,,,1333.4419,1333.9426,1334.1931,1336.0974,space,1.8854,,1336.0974,57,12,1337.096,1337.096,1337.1033,,,,0,42,42,42,1,160,115,,,,,,,,
,,5c579b1191c0ad0001cfd373,65b1a1d8f6e3a1d54d48fb89,2024-01-24_15h49.29.870,bars,2023.2.3,Win32,60.24096386,657b66ea316d21385b68909f,,,,,,,,,,,1337.1034,1338.0969,,,1338.5975,1338.8477,,74,74,,,,,,,,,,,,,,,,bars/010.png,bars/mask008.png,,,,,,,,,,,,3,2,,,,,,,8,6,7,7,,,,,,,,,,,1338.097,1338.5975,1338.8478,1339.9489,space,1.0886,,1339.9491,89,19,1340.9499,1340.95,1340.951,,,,0,43,43,43,1,165,55,,,,,,,,
,,5c579b1191c0ad0001cfd373,65b1a1d8f6e3a1d54d48fb89,2024-01-24_15h49.29.870,bars,2023.2.3,Win32,60.24096386,657b66ea316d21385b68909f,,,,,,,,,,,1340.9512,1341.9506,,,1342.4513,1342.7013,,100,100,,,,,,,,,,,,,,,,bars/005.png,bars/mask004.png,,,,,,,,,,,,0,2,,,,,,,10,8,10,9,,,,,,,,,,,1341.9507,1342.4513,1342.7014,1344.6031,space,1.883,,1344.6031,90,40,1345.6046,1345.6046,1345.6057,,,,0,44,44,44,1,10,140,,,,,,,,
,,5c579b1191c0ad0001cfd373,65b1a1d8f6e3a1d54d48fb89,2024-01-24_15h49.29.870,bars,2023.2.3,Win32,60.24096386,657b66ea316d21385b68909f,,,,,,,,,,,1345.6058,1346.6052,,,1347.1059,1347.3563,,178,-2,,,,,,,,,,,,,,,,bars/013.png,bars/mask001.png,,,,,,,,,,,,6,2,,,,,,,10,10,10,10,,,,,,,,,,,1346.6052,1347.1058,1347.3564,1348.174,space,0.7877,,1348.1742,77,12,1349.1748,1349.1749,1349.1758,,,,0,45,45,45,1,75,10,,,,,,,,
,,5c579b1191c0ad0001cfd373,65b1a1d8f6e3a1d54d48fb89,2024-01-24_15h49.29.870,bars,2023.2.3,Win32,60.24096386,657b66ea316d21385b68909f,,,,,,,,,,,1349.1762,1350.1756,,,1350.6759,1350.9264,,115,115,,,,,,,,,,,,,,,,bars/004.png,bars/mask009.png,,,,,,,,,,,,5,2,,,,,,,8,8,7,8,,,,,,,,,,,1350.1756,1350.6759,1350.9265,1354.0465,space,3.0976,,1354.0465,90,10,1355.0472,1355.0473,1355.0545,,,,0,46,46,46,1,25,125,,,,,,,,
,,5c579b1191c0ad0001cfd373,65b1a1d8f6e3a1d54d48fb89,2024-01-24_15h49.29.870,bars,2023.2.3,Win32,60.24096386,657b66ea316d21385b68909f,,,,,,,,,,,1355.0546,1356.0478,,,1356.5489,1356.7987,,12,12,,,,,,,,,,,,,,,,bars/022.png,bars/mask007.png,,,,,,,,,,,,7,2,,,,,,,10,10,10,10,,,,,,,,,,,1356.0479,1356.5489,1356.7988,1357.5326,space,0.7292,,1357.5326,83,8,1358.5337,1358.5337,1358.535,,,,0,47,47,47,1,95,20,,,,,,,,
,,5c579b1191c0ad0001cfd373,65b1a1d8f6e3a1d54d48fb89,2024-01-24_15h49.29.870,bars,2023.2.3,Win32,60.24096386,657b66ea316d21385b68909f,,,,,,,,,,,1358.5352,1359.535,,,1360.0354,1360.2857,,8,8,,,,,,,,,,,,,,,,bars/008.png,bars/mask009.png,,,,,,,,,,,,6,2,,,,,,,8,8,8,8,,,,,,,,,,,1359.535,1360.0354,1360.2858,1361.7375,space,1.4257,,1361.7375,78,8,1362.7382,1362.7383,1362.745,,,,0,48,48,48,1,110,0,,,,,,,,
,,5c579b1191c0ad0001cfd373,65b1a1d8f6e3a1d54d48fb89,2024-01-24_15h49.29.870,bars,2023.2.3,Win32,60.24096386,657b66ea316d21385b68909f,,,,,,,,,,,1362.7451,1363.7392,,,1364.2397,1364.4901,,48,48,,,,,,,,,,,,,,,,bars/008.png,bars/mask004.png,,,,,,,,,,,,0,2,,,,,,,10,6,10,6,,,,,,,,,,,1363.7392,1364.2396,1364.4901,1364.9908,space,0.4701,,1364.9908,62,48,1365.9912,1365.9912,1365.9923,,,,0,49,49,49,1,110,0,,,,,,,,
,,5c579b1191c0ad0001cfd373,65b1a1d8f6e3a1d54d48fb89,2024-01-24_15h49.29.870,bars,2023.2.3,Win32,60.24096386,657b66ea316d21385b68909f,,,,,,,,,,,,,,,,,,,,,,,,,,,,,,,,,,,,,,,,,,,,,,,,,,,,,,,,,,,,,,,,,,,,,,,,,,,,,,,,,,,,,,,,,,,,,1365.9924,1425.9846,0,3,3,2,1,sequence_tables/blk029.csv
,,5c579b1191c0ad0001cfd373,65b1a1d8f6e3a1d54d48fb89,2024-01-24_15h49.29.870,bars,2023.2.3,Win32,60.24096386,657b66ea316d21385b68909f,,,,,,,,,,,1427.2387,1428.2367,,,1428.737,1428.9873,,111,111,,,,,,,,,,,,,,,,bars/004.png,bars/mask007.png,,,,,,,,,,,,4,2,,,,,,,1,9,1,7,,,,,,1425.993,1427.2355,space,1.2322,,1428.2368,1428.7369,1428.9874,1431.1729,space,2.1723,,1431.1729,86,14,1432.1738,1432.1738,1432.1808,,,,0,0,0,0,1,25,125,,,,,,,,
,,5c579b1191c0ad0001cfd373,65b1a1d8f6e3a1d54d48fb89,2024-01-24_15h49.29.870,bars,2023.2.3,Win32,60.24096386,657b66ea316d21385b68909f,,,,,,,,,,,1432.181,1433.1748,,,1433.6753,1433.9256,,41,41,,,,,,,,,,,,,,,,bars/008.png,bars/mask004.png,,,,,,,,,,,,0,2,,,,,,,3,7,5,6,,,,,,,,,,,1433.1748,1433.6752,1433.9256,1434.7931,space,0.8583,,1434.7931,69,41,1435.7941,1435.7942,1435.795,,,,0,1,1,1,1,110,0,,,,,,,,
,,5c579b1191c0ad0001cfd373,65b1a1d8f6e3a1d54d48fb89,2024-01-24_15h49.29.870,bars,2023.2.3,Win32,60.24096386,657b66ea316d21385b68909f,,,,,,,,,,,1435.7953,1436.7954,,,1437.2956,1437.5458,,29,29,,,,,,,,,,,,,,,,bars/032.png,bars/mask001.png,,,,,,,,,,,,6,2,,,,,,,5,9,4,9,,,,,,,,,,,1436.7954,1437.2955,1437.5458,1439.8815,space,2.3198,,1439.8815,84,9,1440.8823,1440.8824,1440.8892,,,,0,2,2,2,1,125,20,,,,,,,,
,,5c579b1191c0ad0001cfd373,65b1a1d8f6e3a1d54d48fb89,2024-01-24_15h49.29.870,bars,2023.2.3,Win32,60.24096386,657b66ea316d21385b68909f,,,,,,,,,,,1440.8893,1441.8835,,,1442.384,1442.6342,,5,185,,,,,,,,,,,,,,,,bars/036.png,bars/mask007.png,,,,,,,,,,,,5,2,,,,,,,3,7,5,10,,,,,,,,,,,1441.8836,1442.384,1442.6343,1446.0209,space,3.3811,,1446.0209,40,15,1447.0219,1447.0219,1447.0296,,,,0,3,3,3,1,145,20,,,,,,,,
,,5c579b1191c0ad0001cfd373,65b1a1d8f6e3a1d54d48fb89,2024-01-24_15h49.29.870,bars,2023.2.3,Win32,60.24096386,657b66ea316d21385b68909f,,,,,,,,,,,1447.0296,1448.0229,,,1448.5237,1448.7736,,52,52,,,,,,,,,,,,,,,,bars/034.png,bars/mask007.png,,,,,,,,,,,,2,2,,,,,,,1,5,1,4,,,,,,,,,,,1448.023,1448.5236,1448.7736,1451.6099,space,2.8202,,1451.6099,73,13,1452.611,1452.611,1452.6186,,,,0,4,4,4,1,125,65,,,,,,,,
,,5c579b1191c0ad0001cfd373,65b1a1d8f6e3a1d54d48fb89,2024-01-24_15h49.29.870,bars,2023.2.3,Win32,60.24096386,657b66ea316d21385b68909f,,,,,,,,,,,1452.6187,1453.6119,,,1454.1124,1454.3628,,123,-57,,,,,,,,,,,,,,,,bars/023.png,bars/mask000.png,,,,,,,,,,,,1,2,,,,,,,3,3,5,1,,,,,,,,,,,1453.6119,1454.1124,1454.3628,1458.35,space,3.9729,,1458.3501,77,8,1459.3508,1459.3509,1459.3579,,,,0,5,5,5,1,20,115,,,,,,,,
,,5c579b1191c0ad0001cfd373,65b1a1d8f6e3a1d54d48fb89,2024-01-24_15h49.29.870,bars,2023.2.3,Win32,60.24096386,657b66ea316d21385b68909f,,,,,,,,,,,1459.358,1460.3518,,,1460.8524,1461.1026,,74,74,,,,,,,,,,,,,,,,bars/001.png,bars/mask002.png,,,,,,,,,,,,1,2,,,,,,,5,1,7,2,,,,,,,,,,,1460.3518,1460.8524,1461.1027,1462.4371,space,1.3207,,1462.4371,56,11,1463.4383,1463.4383,1463.4393,,,,0,6,6,6,1,130,85,,,,,,,,
,,5c579b1191c0ad0001cfd373,65b1a1d8f6e3a1d54d48fb89,2024-01-24_15h49.29.870,bars,2023.2.3,Win32,60.24096386,657b66ea316d21385b68909f,,,,,,,,,,,1463.4395,1464.4393,,,1464.9401,1465.19,,115,115,,,,,,,,,,,,,,,,bars/003.png,bars/mask004.png,,,,,,,,,,,,0,2,,,,,,,3,3,3,3,,,,,,,,,,,1464.4393,1464.94,1465.19,1467.6589,space,2.4655,,1467.6589,90,25,1468.6601,1468.6601,1468.6675,,,,0,7,7,7,1,25,140,,,,,,,,
,,5c579b1191c0ad0001cfd373,65b1a1d8f6e3a1d54d48fb89,2024-01-24_15h49.29.870,bars,2023.2.3,Win32,60.24096386,657b66ea316d21385b68909f,,,,,,,,,,,1468.6676,1469.6611,,,1470.1617,1470.4118,,49,49,,,,,,,,,,,,,,,,bars/007.png,bars/mask008.png,,,,,,,,,,,,1,2,,,,,,,5,1,3,1,,,,,,,,,,,1469.6612,1470.1616,1470.4118,1472.8807,space,2.4595,,1472.8809,54,6,1473.8819,1473.8819,1473.8828,,,,0,8,8,8,1,175,55,,,,,,,,
,,5c579b1191c0ad0001cfd373,65b1a1d8f6e3a1d54d48fb89,2024-01-24_15h49.29.870,bars,2023.2.3,Win32,60.24096386,657b66ea316d21385b68909f,,,,,,,,,,,1473.8832,1474.883,,,1475.3832,1475.6337,,8,8,,,,,,,,,,,,,,,,bars/020.png,bars/mask001.png,,,,,,,,,,,,2,2,,,,,,,3,3,2,5,,,,,,,,,,,1474.883,1475.3832,1475.6338,1477.2853,space,1.6466,,1477.2853,73,18,1478.2862,1478.2863,1478.2935,,,,0,9,9,9,1,115,170,,,,,,,,
,,5c579b1191c0ad0001cfd373,65b1a1d8f6e3a1d54d48fb89,2024-01-24_15h49.29.870,bars,2023.2.3,Win32,60.24096386,657b66ea316d21385b68909f,,,,,,,,,,,1478.2936,1479.2875,,,1479.788,1480.0381,,114,114,,,,,,,,,,,,,,,,bars/005.png,bars/mask004.png,,,,,,,,,,,,0,2,,,,,,,1,1,0,0,,,,,,,,,,,1479.2876,1479.788,1480.0382,1480.7887,space,0.7369,,1480.7888,76,26,1481.7899,1481.7899,1481.791,,,,0,10,10,10,1,10,140,,,,,,,,
,,5c579b1191c0ad0001cfd373,65b1a1d8f6e3a1d54d48fb89,2024-01-24_15h49.29.870,bars,2023.2.3,Win32,60.24096386,657b66ea316d21385b68909f,,,,,,,,,,,1481.7914,1482.7908,,,1483.2913,1483.5416,,135,135,,,,,,,,,,,,,,,,bars/000.png,bars/mask003.png,,,,,,,,,,,,0,2,,,,,,,3,0,3,0,,,,,,,,,,,1482.7908,1483.2913,1483.5417,1485.1431,space,1.5945,,1485.1432,85,10,1486.1442,1486.1443,1486.1517,,,,0,11,11,11,1,40,145,,,,,,,,
,,5c579b1191c0ad0001cfd373,65b1a1d8f6e3a1d54d48fb89,2024-01-24_15h49.29.870,bars,2023.2.3,Win32,60.24096386,657b66ea316d21385b68909f,,,,,,,,,,,1486.1519,1487.1453,,,1487.6459,1487.8959,,16,196,,,,,,,,,,,,,,,,bars/007.png,bars/mask009.png,,,,,,,,,,,,2,1,,,,,,,5,0,6,0,,,,,,,,,,,1487.1454,1487.6458,1487.896,1492.6341,space,4.7279,,1492.6341,21,39,1493.635,1493.635,1493.6427,,,,0,12,12,12,1,175,55,,,,,,,,
,,5c579b1191c0ad0001cfd373,65b1a1d8f6e3a1d54d48fb89,2024-01-24_15h49.29.870,bars,2023.2.3,Win32,60.24096386,657b66ea316d21385b68909f,,,,,,,,,,,1493.6429,1494.6363,,,1495.1367,1495.3868,,38,38,,,,,,,,,,,,,,,,bars/048.png,bars/mask009.png,,,,,,,,,,,,4,1,,,,,,,7,2,7,2,,,,,,,,,,,1494.6363,1495.1366,1495.3868,1496.3876,space,0.9895,,1496.3876,12,43,1497.389,1497.389,1497.3898,,,,0,13,13,13,1,50,175,,,,,,,,
