init_variables.started,init_variables.stopped,participant,session,date,expName,psychopyVersion,OS,frameRate,study_id,instruction_exp.started,instruction_exp.stopped,key_resp_8.keys,key_resp_8.rt,key_resp_8.duration,instruction_single.started,instruction_single.stopped,key_resp_2.keys,key_resp_2.rt,key_resp_2.duration,interval.started,interval.stopped,cue_single.started,cue_single.stopped,mask.started,mask.stopped,ori_response_single.started,res_ori,res,ori_response_single.stopped,key_resp_single.keys,key_resp_single.rt,key_resp_single.duration,disp_single.started,disp_single.stopped,key_resp.keys,key_resp.rt,key_resp.duration,single.thisRepN,single.thisTrialN,single.thisN,single.thisIndex,single.ran,ori,path,mask_path,instruction_bandit.started,instruction_bandit.stopped,key_resp_6.keys,key_resp_6.rt,key_resp_6.duration,cue_bandit.started,cue_bandit.stopped,bandit_res.keys,bandit_res.rt,bandit_res.duration,outcome_bandit.started,rew,action,outcome_bandit.stopped,bandit.thisRepN,bandit.thisTrialN,bandit.thisN,bandit.thisIndex,bandit.ran,actual_rew1,actual_rew2,rew1,rew2,instruction_task.started,instruction_task.stopped,key_resp_7.keys,key_resp_7.rt,key_resp_7.duration,wait_ready.started,wait_ready.stopped,key_resp_3.keys,key_resp_3.rt,key_resp_3.duration,cue.started,cue.stopped,ori_response.started,ori_response.stopped,key_resp_5.keys,key_resp_5.rt,key_resp_5.duration,outcome.started,diff1,diff2,outcome.stopped,disp_outcome_practice.started,disp_outcome_practice.stopped,key_resp_4.keys,key_resp_4.rt,key_resp_4.duration,trials.thisRepN,trials.thisTrialN,trials.thisN,trials.thisIndex,trials.ran,ori1,ori2,break_blk.started,break_blk.stopped,block.thisRepN,block.thisTrialN,block.thisN,block.thisIndex,block.ran,condition_file
0.001,0.0014,6135d819f5555fe9776deb7e,65af554d9e24a972e38d42b4,2024-01-23_07h01.47.832,bars,2023.2.3,Win32,60.00960154,657b66ea316d21385b68909f,,,,,,,,,,,,,,,,,,,,,,,,,,,,,,,,,,,,,,,,,,,,,,,,,,,,,,,,,,,,,,,,,,,,,,,,,,,,,,,,,,,,,,,,,,,,,,,,,,,,
,,6135d819f5555fe9776deb7e,65af554d9e24a972e38d42b4,2024-01-23_07h01.47.832,bars,2023.2.3,Win32,60.00960154,657b66ea316d21385b68909f,0.0018,8.0582,y,8.0371,,,,,,,,,,,,,,,,,,,,,,,,,,,,,,,,,,,,,,,,,,,,,,,,,,,,,,,,,,,,,,,,,,,,,,,,,,,,,,,,,,,,,,,,,,,,,,,,
,,6135d819f5555fe9776deb7e,65af554d9e24a972e38d42b4,2024-01-23_07h01.47.832,bars,2023.2.3,Win32,60.00960154,657b66ea316d21385b68909f,,,,,,8.0585,18.6904,space,10.6108,,,,,,,,,,,,,,,,,,,,,,,,,,,,,,,,,,,,,,,,,,,,,,,,,,,,,,,,,,,,,,,,,,,,,,,,,,,,,,,,,,,,,,,,,,,
,,6135d819f5555fe9776deb7e,65af554d9e24a972e38d42b4,2024-01-23_07h01.47.832,bars,2023.2.3,Win32,60.00960154,657b66ea316d21385b68909f,,,,,,,,,,,18.7001,19.7062,19.7064,20.1976,20.198,20.4387,20.439,0,0,25.7734,space,5.2732,,25.7752,33.0733,space,7.248,,0,0,0,0,1,150,bars/single000.png,bars/mask006.png,,,,,,,,,,,,,,,,,,,,,,,,,,,,,,,,,,,,,,,,,,,,,,,,,,,,,,,,,,,,,,,,
,,6135d819f5555fe9776deb7e,65af554d9e24a972e38d42b4,2024-01-23_07h01.47.832,bars,2023.2.3,Win32,60.00960154,657b66ea316d21385b68909f,,,,,,,,,,,33.0887,34.09,34.09,34.5973,34.5974,34.8298,34.8298,24,24,40.53,space,5.6835,,40.5301,44.8621,space,4.3027,,0,1,1,8,1,160,bars/single008.png,bars/mask004.png,,,,,,,,,,,,,,,,,,,,,,,,,,,,,,,,,,,,,,,,,,,,,,,,,,,,,,,,,,,,,,,,
,,6135d819f5555fe9776deb7e,65af554d9e24a972e38d42b4,2024-01-23_07h01.47.832,bars,2023.2.3,Win32,60.00960154,657b66ea316d21385b68909f,,,,,,,,,,,44.879,45.8724,45.8724,46.3718,46.3719,46.6228,46.6228,147,-33,52.2387,space,5.6023,,52.2388,55.6067,space,3.3338,,0,2,2,2,1,145,bars/single002.png,bars/mask003.png,,,,,,,,,,,,,,,,,,,,,,,,,,,,,,,,,,,,,,,,,,,,,,,,,,,,,,,,,,,,,,,,
,,6135d819f5555fe9776deb7e,65af554d9e24a972e38d42b4,2024-01-23_07h01.47.832,bars,2023.2.3,Win32,60.00960154,657b66ea316d21385b68909f,,,,,,,,,,,55.6186,56.6072,56.6073,57.0967,57.0968,57.3467,57.3467,141,141,61.7435,space,4.3773,,61.7437,63.7979,space,2.0291,,0,3,3,9,1,20,bars/single009.png,bars/mask006.png,,,,,,,,,,,,,,,,,,,,,,,,,,,,,,,,,,,,,,,,,,,,,,,,,,,,,,,,,,,,,,,,
,,6135d819f5555fe9776deb7e,65af554d9e24a972e38d42b4,2024-01-23_07h01.47.832,bars,2023.2.3,Win32,60.00960154,657b66ea316d21385b68909f,,,,,,,,,,,63.7985,64.7894,64.7895,65.2958,65.2958,65.5484,65.5485,27,27,70.6322,space,5.0688,,70.6323,73.2643,space,2.6026,,0,4,4,6,1,175,bars/single006.png,bars/mask005.png,,,,,,,,,,,,,,,,,,,,,,,,,,,,,,,,,,,,,,,,,,,,,,,,,,,,,,,,,,,,,,,,
,,6135d819f5555fe9776deb7e,65af554d9e24a972e38d42b4,2024-01-23_07h01.47.832,bars,2023.2.3,Win32,60.00960154,657b66ea316d21385b68909f,,,,,,,,,,,73.2793,74.2739,74.2739,74.7723,74.7724,75.0316,75.0317,170,-10,80.0277,space,4.9801,,80.0278,81.6079,space,1.5439,,0,5,5,4,1,95,bars/single004.png,bars/mask004.png,,,,,,,,,,,,,,,,,,,,,,,,,,,,,,,,,,,,,,,,,,,,,,,,,,,,,,,,,,,,,,,,
,,6135d819f5555fe9776deb7e,65af554d9e24a972e38d42b4,2024-01-23_07h01.47.832,bars,2023.2.3,Win32,60.00960154,657b66ea316d21385b68909f,,,,,,,,,,,81.6085,82.607,82.6071,83.1071,83.1071,83.3488,83.3489,75,75,87.2231,space,3.8557,,87.2233,88.4419,space,1.1936,,0,6,6,5,1,55,bars/single005.png,bars/mask008.png,,,,,,,,,,,,,,,,,,,,,,,,,,,,,,,,,,,,,,,,,,,,,,,,,,,,,,,,,,,,,,,,
,,6135d819f5555fe9776deb7e,65af554d9e24a972e38d42b4,2024-01-23_07h01.47.832,bars,2023.2.3,Win32,60.00960154,657b66ea316d21385b68909f,,,,,,,,,,,88.4435,89.4476,89.4477,89.9483,89.9483,90.1931,90.1931,11,191,93.4163,space,3.1999,,93.4164,95.4246,space,1.9806,,0,7,7,1,1,20,bars/single001.png,bars/mask006.png,,,,,,,,,,,,,,,,,,,,,,,,,,,,,,,,,,,,,,,,,,,,,,,,,,,,,,,,,,,,,,,,
,,6135d819f5555fe9776deb7e,65af554d9e24a972e38d42b4,2024-01-23_07h01.47.832,bars,2023.2.3,Win32,60.00960154,657b66ea316d21385b68909f,,,,,,,,,,,95.4251,96.4231,96.4231,96.9236,96.9237,97.1636,97.1637,37,37,98.882,space,1.6999,,98.882,100.1472,space,1.2499,,0,8,8,7,1,45,bars/single007.png,bars/mask009.png,,,,,,,,,,,,,,,,,,,,,,,,,,,,,,,,,,,,,,,,,,,,,,,,,,,,,,,,,,,,,,,,
,,6135d819f5555fe9776deb7e,65af554d9e24a972e38d42b4,2024-01-23_07h01.47.832,bars,2023.2.3,Win32,60.00960154,657b66ea316d21385b68909f,,,,,,,,,,,100.1476,101.1487,101.1487,101.641,101.6411,101.8904,101.891,17,17,107.3995,space,5.4864,,107.3996,108.9912,space,1.565,,0,9,9,3,1,20,bars/single003.png,bars/mask005.png,,,,,,,,,,,,,,,,,,,,,,,,,,,,,,,,,,,,,,,,,,,,,,,,,,,,,,,,,,,,,,,,
,,6135d819f5555fe9776deb7e,65af554d9e24a972e38d42b4,2024-01-23_07h01.47.832,bars,2023.2.3,Win32,60.00960154,657b66ea316d21385b68909f,,,,,,,,,,,,,,,,,,,,,,,,,,,,,,,,,,,,,108.9934,138.0514,space,29.0306,,,,,,,,,,,,,,,,,,,,,,,,,,,,,,,,,,,,,,,,,,,,,,,,,,,,,,,,,,,,
,,6135d819f5555fe9776deb7e,65af554d9e24a972e38d42b4,2024-01-23_07h01.47.832,bars,2023.2.3,Win32,60.00960154,657b66ea316d21385b68909f,,,,,,,,,,,,,,,,,,,,,,,,,,,,,,,,,,,,,,,,,,138.069,141.6756,left,3.5449,,141.6762,9,1,142.6801,0,0,0,0,1,9,1,9,2,,,,,,,,,,,,,,,,,,,,,,,,,,,,,,,,,,,,,,,,,
,,6135d819f5555fe9776deb7e,65af554d9e24a972e38d42b4,2024-01-23_07h01.47.832,bars,2023.2.3,Win32,60.00960154,657b66ea316d21385b68909f,,,,,,,,,,,,,,,,,,,,,,,,,,,,,,,,,,,,,,,,,,142.6808,144.3511,left,1.6517,,144.3511,10,1,145.3408,0,1,1,1,1,10,0,10,1,,,,,,,,,,,,,,,,,,,,,,,,,,,,,,,,,,,,,,,,,
,,6135d819f5555fe9776deb7e,65af554d9e24a972e38d42b4,2024-01-23_07h01.47.832,bars,2023.2.3,Win32,60.00960154,657b66ea316d21385b68909f,,,,,,,,,,,,,,,,,,,,,,,,,,,,,,,,,,,,,,,,,,145.3429,146.0428,right,0.6718,,146.043,2,2,147.0404,0,2,2,2,1,10,2,10,2,,,,,,,,,,,,,,,,,,,,,,,,,,,,,,,,,,,,,,,,,
,,6135d819f5555fe9776deb7e,65af554d9e24a972e38d42b4,2024-01-23_07h01.47.832,bars,2023.2.3,Win32,60.00960154,657b66ea316d21385b68909f,,,,,,,,,,,,,,,,,,,,,,,,,,,,,,,,,,,,,,,,,,147.0424,147.643,left,0.5683,,147.6431,7,1,148.643,0,3,3,3,1,8,4,7,3,,,,,,,,,,,,,,,,,,,,,,,,,,,,,,,,,,,,,,,,,
,,6135d819f5555fe9776deb7e,65af554d9e24a972e38d42b4,2024-01-23_07h01.47.832,bars,2023.2.3,Win32,60.00960154,657b66ea316d21385b68909f,,,,,,,,,,,,,,,,,,,,,,,,,,,,,,,,,,,,,,,,,,148.6437,149.1176,left,0.4528,,149.1176,5,1,150.1095,0,4,4,4,1,6,2,5,1,,,,,,,,,,,,,,,,,,,,,,,,,,,,,,,,,,,,,,,,,
,,6135d819f5555fe9776deb7e,65af554d9e24a972e38d42b4,2024-01-23_07h01.47.832,bars,2023.2.3,Win32,60.00960154,657b66ea316d21385b68909f,,,,,,,,,,,,,,,,,,,,,,,,,,,,,,,,,,,,,,,,,,150.1099,150.6263,left,0.4843,,150.6265,4,1,151.6318,0,5,5,5,1,4,4,4,4,,,,,,,,,,,,,,,,,,,,,,,,,,,,,,,,,,,,,,,,,
,,6135d819f5555fe9776deb7e,65af554d9e24a972e38d42b4,2024-01-23_07h01.47.832,bars,2023.2.3,Win32,60.00960154,657b66ea316d21385b68909f,,,,,,,,,,,,,,,,,,,,,,,,,,,,,,,,,,,,,,,,,,151.6323,152.061,right,0.4114,,152.061,2,2,153.0657,0,6,6,6,1,2,2,1,2,,,,,,,,,,,,,,,,,,,,,,,,,,,,,,,,,,,,,,,,,
,,6135d819f5555fe9776deb7e,65af554d9e24a972e38d42b4,2024-01-23_07h01.47.832,bars,2023.2.3,Win32,60.00960154,657b66ea316d21385b68909f,,,,,,,,,,,,,,,,,,,,,,,,,,,,,,,,,,,,,,,,,,153.0662,153.4753,left,0.3886,,153.4753,0,1,154.4745,0,7,7,7,1,0,0,0,1,,,,,,,,,,,,,,,,,,,,,,,,,,,,,,,,,,,,,,,,,
,,6135d819f5555fe9776deb7e,65af554d9e24a972e38d42b4,2024-01-23_07h01.47.832,bars,2023.2.3,Win32,60.00960154,657b66ea316d21385b68909f,,,,,,,,,,,,,,,,,,,,,,,,,,,,,,,,,,,,,,,,,,154.4768,154.9266,right,0.4267,,154.9267,0,2,155.9239,0,8,8,8,1,0,2,1,0,,,,,,,,,,,,,,,,,,,,,,,,,,,,,,,,,,,,,,,,,
,,6135d819f5555fe9776deb7e,65af554d9e24a972e38d42b4,2024-01-23_07h01.47.832,bars,2023.2.3,Win32,60.00960154,657b66ea316d21385b68909f,,,,,,,,,,,,,,,,,,,,,,,,,,,,,,,,,,,,,,,,,,155.9262,156.7755,right,0.8218,,156.7756,3,2,157.7813,0,9,9,9,1,2,4,2,3,,,,,,,,,,,,,,,,,,,,,,,,,,,,,,,,,,,,,,,,,
,,6135d819f5555fe9776deb7e,65af554d9e24a972e38d42b4,2024-01-23_07h01.47.832,bars,2023.2.3,Win32,60.00960154,657b66ea316d21385b68909f,,,,,,,,,,,,,,,,,,,,,,,,,,,,,,,,,,,,,,,,,,157.7819,158.2347,left,0.4341,,158.2349,0,1,159.224,0,10,10,10,1,0,2,0,3,,,,,,,,,,,,,,,,,,,,,,,,,,,,,,,,,,,,,,,,,
,,6135d819f5555fe9776deb7e,65af554d9e24a972e38d42b4,2024-01-23_07h01.47.832,bars,2023.2.3,Win32,60.00960154,657b66ea316d21385b68909f,,,,,,,,,,,,,,,,,,,,,,,,,,,,,,,,,,,,,,,,,,159.2265,159.9811,left,0.7312,,159.9811,0,1,160.9765,0,11,11,11,1,0,4,0,3,,,,,,,,,,,,,,,,,,,,,,,,,,,,,,,,,,,,,,,,,
,,6135d819f5555fe9776deb7e,65af554d9e24a972e38d42b4,2024-01-23_07h01.47.832,bars,2023.2.3,Win32,60.00960154,657b66ea316d21385b68909f,,,,,,,,,,,,,,,,,,,,,,,,,,,,,,,,,,,,,,,,,,160.9771,161.5815,right,0.5844,,161.5816,6,2,162.5838,0,12,12,12,1,2,6,1,6,,,,,,,,,,,,,,,,,,,,,,,,,,,,,,,,,,,,,,,,,
,,6135d819f5555fe9776deb7e,65af554d9e24a972e38d42b4,2024-01-23_07h01.47.832,bars,2023.2.3,Win32,60.00960154,657b66ea316d21385b68909f,,,,,,,,,,,,,,,,,,,,,,,,,,,,,,,,,,,,,,,,,,162.5843,163.0678,right,0.47,,163.0679,3,2,164.0582,0,13,13,13,1,0,4,1,3,,,,,,,,,,,,,,,,,,,,,,,,,,,,,,,,,,,,,,,,,
,,6135d819f5555fe9776deb7e,65af554d9e24a972e38d42b4,2024-01-23_07h01.47.832,bars,2023.2.3,Win32,60.00960154,657b66ea316d21385b68909f,,,,,,,,,,,,,,,,,,,,,,,,,,,,,,,,,,,,,,,,,,164.0602,164.4765,left,0.3871,,164.4766,2,1,165.4672,0,14,14,14,1,2,6,2,7,,,,,,,,,,,,,,,,,,,,,,,,,,,,,,,,,,,,,,,,,
,,6135d819f5555fe9776deb7e,65af554d9e24a972e38d42b4,2024-01-23_07h01.47.832,bars,2023.2.3,Win32,60.00960154,657b66ea316d21385b68909f,,,,,,,,,,,,,,,,,,,,,,,,,,,,,,,,,,,,,,,,,,165.4679,165.8012,right,0.3174,,165.8013,9,2,166.7927,0,15,15,15,1,4,8,3,9,,,,,,,,,,,,,,,,,,,,,,,,,,,,,,,,,,,,,,,,,
,,6135d819f5555fe9776deb7e,65af554d9e24a972e38d42b4,2024-01-23_07h01.47.832,bars,2023.2.3,Win32,60.00960154,657b66ea316d21385b68909f,,,,,,,,,,,,,,,,,,,,,,,,,,,,,,,,,,,,,,,,,,166.7935,167.1593,right,0.3412,,167.1596,7,2,168.1589,0,16,16,16,1,6,6,7,7,,,,,,,,,,,,,,,,,,,,,,,,,,,,,,,,,,,,,,,,,
,,6135d819f5555fe9776deb7e,65af554d9e24a972e38d42b4,2024-01-23_07h01.47.832,bars,2023.2.3,Win32,60.00960154,657b66ea316d21385b68909f,,,,,,,,,,,,,,,,,,,,,,,,,,,,,,,,,,,,,,,,,,168.1595,168.5323,left,0.3493,,168.5323,9,1,169.5249,0,17,17,17,1,8,4,9,5,,,,,,,,,,,,,,,,,,,,,,,,,,,,,,,,,,,,,,,,,
,,6135d819f5555fe9776deb7e,65af554d9e24a972e38d42b4,2024-01-23_07h01.47.832,bars,2023.2.3,Win32,60.00960154,657b66ea316d21385b68909f,,,,,,,,,,,,,,,,,,,,,,,,,,,,,,,,,,,,,,,,,,169.5269,169.8654,left,0.3173,,169.8654,5,1,170.8604,0,18,18,18,1,6,2,5,1,,,,,,,,,,,,,,,,,,,,,,,,,,,,,,,,,,,,,,,,,
,,6135d819f5555fe9776deb7e,65af554d9e24a972e38d42b4,2024-01-23_07h01.47.832,bars,2023.2.3,Win32,60.00960154,657b66ea316d21385b68909f,,,,,,,,,,,,,,,,,,,,,,,,,,,,,,,,,,,,,,,,,,170.8609,171.1613,right,0.2765,,171.1614,0,2,172.1651,0,19,19,19,1,8,0,7,0,,,,,,,,,,,,,,,,,,,,,,,,,,,,,,,,,,,,,,,,,
,,6135d819f5555fe9776deb7e,65af554d9e24a972e38d42b4,2024-01-23_07h01.47.832,bars,2023.2.3,Win32,60.00960154,657b66ea316d21385b68909f,,,,,,,,,,,,,,,,,,,,,,,,,,,,,,,,,,,,,,,,,,,,,,,,,,,,,,,,,,,,172.166,179.3436,space,7.148,,,,,,,,,,,,,,,,,,,,,,,,,,,,,,,,,,,,,
,,6135d819f5555fe9776deb7e,65af554d9e24a972e38d42b4,2024-01-23_07h01.47.832,bars,2023.2.3,Win32,60.00960154,657b66ea316d21385b68909f,,,,,,,,,,,180.3517,181.3505,,,181.8418,182.0919,,26,26,,,,,,,,,,,,,,,,bars/007.png,bars/mask002.png,,,,,,,,,,,,0,2,,,,,,,2,9,1,9,,,,,,179.364,180.3441,space,0.9672,,181.3507,181.8414,182.0929,185.5177,space,3.3997,,185.5185,31,29,186.5097,186.5099,188.6602,space,2.1097,,0,0,0,0,1,175,55,,,,,,,,
,,6135d819f5555fe9776deb7e,65af554d9e24a972e38d42b4,2024-01-23_07h01.47.832,bars,2023.2.3,Win32,60.00960154,657b66ea316d21385b68909f,,,,,,,,,,,188.661,189.6591,,,190.1582,190.4086,,164,-16,,,,,,,,,,,,,,,,bars/043.png,bars/mask004.png,,,,,,,,,,,,0,2,,,,,,,4,7,7,6,,,,,,,,,,,189.6593,190.1579,190.4089,193.3449,space,2.9097,,193.3449,46,34,194.3439,194.344,195.3938,space,1.0183,,0,1,1,1,1,30,130,,,,,,,,
,,6135d819f5555fe9776deb7e,65af554d9e24a972e38d42b4,2024-01-23_07h01.47.832,bars,2023.2.3,Win32,60.00960154,657b66ea316d21385b68909f,,,,,,,,,,,195.3955,196.3936,,,196.8925,197.1334,,11,11,,,,,,,,,,,,,,,,bars/032.png,bars/mask002.png,,,,,,,,,,,,6,2,,,,,,,6,9,6,8,,,,,,,,,,,196.3938,196.8921,197.1334,198.8174,space,1.6686,,198.8174,66,9,199.8105,199.8107,200.8267,space,0.9869,,0,2,2,2,1,125,20,,,,,,,,
,,6135d819f5555fe9776deb7e,65af554d9e24a972e38d42b4,2024-01-23_07h01.47.832,bars,2023.2.3,Win32,60.00960154,657b66ea316d21385b68909f,,,,,,,,,,,200.8272,201.8257,,,202.3276,202.5836,,163,163,,,,,,,,,,,,,,,,bars/039.png,bars/mask004.png,,,,,,,,,,,,4,1,,,,,,,8,7,6,8,,,,,,,,,,,201.826,202.3275,202.5838,207.3186,space,4.7182,,207.3187,12,58,208.3087,208.309,208.8984,space,0.5486,,0,3,3,3,1,175,105,,,,,,,,
,,6135d819f5555fe9776deb7e,65af554d9e24a972e38d42b4,2024-01-23_07h01.47.832,bars,2023.2.3,Win32,60.00960154,657b66ea316d21385b68909f,,,,,,,,,,,208.8989,209.8934,,,210.3852,210.6356,,17,197,,,,,,,,,,,,,,,,bars/004.png,bars/mask000.png,,,,,,,,,,,,4,1,,,,,,,6,9,5,9,,,,,,,,,,,209.8934,210.385,210.6357,214.5524,space,3.9019,,214.5525,8,72,215.5459,215.546,215.7096,space,0.1338,,0,4,4,4,1,25,125,,,,,,,,
,,6135d819f5555fe9776deb7e,65af554d9e24a972e38d42b4,2024-01-23_07h01.47.832,bars,2023.2.3,Win32,60.00960154,657b66ea316d21385b68909f,,,,,,,,,,,215.7106,216.7095,,,217.2097,217.4596,,78,78,,,,,,,,,,,,,,,,bars/025.png,bars/mask004.png,,,,,,,,,,,,1,1,,,,,,,8,7,8,8,,,,,,,,,,,216.7095,217.2095,217.4596,220.0606,space,2.5811,,220.0607,27,38,221.0488,221.0488,221.6198,space,0.5312,,0,5,5,5,1,105,40,,,,,,,,
,,6135d819f5555fe9776deb7e,65af554d9e24a972e38d42b4,2024-01-23_07h01.47.832,bars,2023.2.3,Win32,60.00960154,657b66ea316d21385b68909f,,,,,,,,,,,221.621,222.6117,,,223.1091,223.3593,,107,107,,,,,,,,,,,,,,,,bars/019.png,bars/mask000.png,,,,,,,,,,,,7,2,,,,,,,6,5,6,7,,,,,,,,,,,222.6117,223.1088,223.3595,226.8192,space,3.4364,,226.8193,62,2,227.8097,227.81,228.5182,space,0.6685,,0,6,6,6,1,45,105,,,,,,,,
,,6135d819f5555fe9776deb7e,65af554d9e24a972e38d42b4,2024-01-23_07h01.47.832,bars,2023.2.3,Win32,60.00960154,657b66ea316d21385b68909f,,,,,,,,,,,228.5187,229.5101,,,230.0111,230.2617,,66,66,,,,,,,,,,,,,,,,bars/043.png,bars/mask007.png,,,,,,,,,,,,0,1,,,,,,,4,7,2,6,,,,,,,,,,,229.5105,230.0109,230.2618,234.7598,space,4.4731,,234.7602,36,64,235.769,235.769,236.4775,space,0.677,,0,7,7,7,1,30,130,,,,,,,,
,,6135d819f5555fe9776deb7e,65af554d9e24a972e38d42b4,2024-01-23_07h01.47.832,bars,2023.2.3,Win32,60.00960154,657b66ea316d21385b68909f,,,,,,,,,,,236.4782,237.4759,,,237.9777,238.2271,,65,65,,,,,,,,,,,,,,,,bars/038.png,bars/mask008.png,,,,,,,,,,,,7,2,,,,,,,2,9,2,8,,,,,,,,,,,237.4762,237.9776,238.2272,242.7784,space,4.5336,,242.7785,80,5,243.777,243.7772,244.5703,space,0.7652,,0,8,8,8,1,165,70,,,,,,,,
,,6135d819f5555fe9776deb7e,65af554d9e24a972e38d42b4,2024-01-23_07h01.47.832,bars,2023.2.3,Win32,60.00960154,657b66ea316d21385b68909f,,,,,,,,,,,244.5712,245.5605,,,246.0617,246.3118,,102,102,,,,,,,,,,,,,,,,bars/028.png,bars/mask009.png,,,,,,,,,,,,4,2,,,,,,,0,10,1,10,,,,,,,,,,,245.5607,246.0616,246.3118,249.0336,space,2.6993,,249.0336,57,18,250.0348,250.0349,250.7617,space,0.6948,,0,9,9,9,1,45,120,,,,,,,,
,,6135d819f5555fe9776deb7e,65af554d9e24a972e38d42b4,2024-01-23_07h01.47.832,bars,2023.2.3,Win32,60.00960154,657b66ea316d21385b68909f,,,,,,,,,,,250.7623,251.7606,,,252.261,252.5023,,176,-4,,,,,,,,,,,,,,,,bars/009.png,bars/mask001.png,,,,,,,,,,,,1,1,,,,,,,2,8,3,7,,,,,,,,,,,251.7606,252.2609,252.5023,256.7032,space,4.1866,,256.7033,19,71,257.6936,257.6938,258.3794,space,0.6546,,0,10,10,10,1,15,105,,,,,,,,
,,6135d819f5555fe9776deb7e,65af554d9e24a972e38d42b4,2024-01-23_07h01.47.832,bars,2023.2.3,Win32,60.00960154,657b66ea316d21385b68909f,,,,,,,,,,,258.3798,259.3693,,,259.8601,260.1123,,17,197,,,,,,,,,,,,,,,,bars/004.png,bars/mask006.png,,,,,,,,,,,,0,1,,,,,,,0,10,0,10,,,,,,,,,,,259.3694,259.86,260.1124,263.9788,space,3.8391,,263.9789,8,72,264.9778,264.978,265.6297,space,0.611,,0,11,11,11,1,25,125,,,,,,,,
,,6135d819f5555fe9776deb7e,65af554d9e24a972e38d42b4,2024-01-23_07h01.47.832,bars,2023.2.3,Win32,60.00960154,657b66ea316d21385b68909f,,,,,,,,,,,265.6304,266.6363,,,267.1283,267.379,,143,143,,,,,,,,,,,,,,,,bars/003.png,bars/mask004.png,,,,,,,,,,,,5,2,,,,,,,2,8,2,6,,,,,,,,,,,266.6364,267.1282,267.3791,272.0204,space,4.6181,,272.0205,62,3,273.0115,273.0118,273.6956,space,0.6342,,0,12,12,12,1,25,140,,,,,,,,
,,6135d819f5555fe9776deb7e,65af554d9e24a972e38d42b4,2024-01-23_07h01.47.832,bars,2023.2.3,Win32,60.00960154,657b66ea316d21385b68909f,,,,,,,,,,,273.6964,274.6939,,,275.1962,275.4462,,13,13,,,,,,,,,,,,,,,,bars/016.png,bars/mask000.png,,,,,,,,,,,,0,1,,,,,,,4,10,5,9,,,,,,,,,,,274.6943,275.1961,275.4463,276.5874,space,1.1181,,276.5874,27,28,277.5791,277.5793,277.9507,space,0.3436,,0,13,13,13,1,40,165,,,,,,,,
,,6135d819f5555fe9776deb7e,65af554d9e24a972e38d42b4,2024-01-23_07h01.47.832,bars,2023.2.3,Win32,60.00960154,657b66ea316d21385b68909f,,,,,,,,,,,277.951,278.9436,,,279.4453,279.6858,,77,77,,,,,,,,,,,,,,,,bars/041.png,bars/mask001.png,,,,,,,,,,,,7,2,,,,,,,2,10,2,10,,,,,,,,,,,278.9438,279.4451,279.6858,283.5952,space,3.8991,,283.5953,57,8,284.5964,284.5965,285.3541,space,0.7315,,0,14,14,14,1,20,85,,,,,,,,
,,6135d819f5555fe9776deb7e,65af554d9e24a972e38d42b4,2024-01-23_07h01.47.832,bars,2023.2.3,Win32,60.00960154,657b66ea316d21385b68909f,,,,,,,,,,,285.3545,286.3437,,,286.8463,287.1034,,79,79,,,,,,,,,,,,,,,,bars/030.png,bars/mask007.png,,,,,,,,,,,,5,2,,,,,,,0,10,0,10,,,,,,,,,,,286.344,286.8462,287.1034,289.9025,space,2.783,,289.9026,61,14,290.8944,290.8949,291.655,space,0.7298,,0,15,15,15,1,140,65,,,,,,,,
,,6135d819f5555fe9776deb7e,65af554d9e24a972e38d42b4,2024-01-23_07h01.47.832,bars,2023.2.3,Win32,60.00960154,657b66ea316d21385b68909f,,,,,,,,,,,291.6559,292.6465,,,293.137,293.3796,,114,114,,,,,,,,,,,,,,,,bars/004.png,bars/mask006.png,,,,,,,,,,,,6,2,,,,,,,2,10,2,10,,,,,,,,,,,292.6465,293.1369,293.3797,295.6207,space,2.2174,,295.6208,89,11,296.6116,296.6118,297.0469,space,0.4045,,0,16,16,16,1,25,125,,,,,,,,
,,6135d819f5555fe9776deb7e,65af554d9e24a972e38d42b4,2024-01-23_07h01.47.832,bars,2023.2.3,Win32,60.00960154,657b66ea316d21385b68909f,,,,,,,,,,,297.0484,298.0439,,,298.5469,298.7956,,137,137,,,,,,,,,,,,,,,,bars/030.png,bars/mask004.png,,,,,,,,,,,,0,1,,,,,,,0,10,0,8,,,,,,,,,,,298.0442,298.5468,298.7956,301.4455,space,2.6189,,301.4458,3,72,302.4438,302.4442,302.8124,space,0.3302,,0,17,17,17,1,140,65,,,,,,,,
,,6135d819f5555fe9776deb7e,65af554d9e24a972e38d42b4,2024-01-23_07h01.47.832,bars,2023.2.3,Win32,60.00960154,657b66ea316d21385b68909f,,,,,,,,,,,302.8133,303.8118,,,304.3122,304.5623,,40,40,,,,,,,,,,,,,,,,bars/013.png,bars/mask008.png,,,,,,,,,,,,0,2,,,,,,,2,10,2,10,,,,,,,,,,,303.8119,304.3121,304.5624,306.4962,space,1.9188,,306.4962,35,30,307.4951,307.4952,308.1128,space,0.5835,,0,18,18,18,1,75,10,,,,,,,,
,,6135d819f5555fe9776deb7e,65af554d9e24a972e38d42b4,2024-01-23_07h01.47.832,bars,2023.2.3,Win32,60.00960154,657b66ea316d21385b68909f,,,,,,,,,,,308.1146,309.1107,,,309.6037,309.8459,,101,101,,,,,,,,,,,,,,,,bars/018.png,bars/mask001.png,,,,,,,,,,,,6,2,,,,,,,0,10,1,10,,,,,,,,,,,309.1109,309.6036,309.846,313.5036,space,3.6335,,313.5037,49,11,314.4947,314.4949,314.8383,space,0.3132,,0,19,19,19,1,150,90,,,,,,,,
,,6135d819f5555fe9776deb7e,65af554d9e24a972e38d42b4,2024-01-23_07h01.47.832,bars,2023.2.3,Win32,60.00960154,657b66ea316d21385b68909f,,,,,,,,,,,314.8391,315.8291,,,316.3293,316.5703,,179,-1,,,,,,,,,,,,,,,,bars/045.png,bars/mask009.png,,,,,,,,,,,,5,2,,,,,,,2,10,1,8,,,,,,,,,,,315.8292,316.3287,316.5705,319.1495,space,2.5626,,319.1496,79,11,320.1459,320.1463,320.532,space,0.3564,,0,20,20,20,1,100,10,,,,,,,,
,,6135d819f5555fe9776deb7e,65af554d9e24a972e38d42b4,2024-01-23_07h01.47.832,bars,2023.2.3,Win32,60.00960154,657b66ea316d21385b68909f,,,,,,,,,,,320.5328,321.5285,,,322.0296,322.2794,,132,132,,,,,,,,,,,,,,,,bars/043.png,bars/mask005.png,,,,,,,,,,,,7,2,,,,,,,4,8,3,8,,,,,,,,,,,321.5288,322.0294,322.2796,324.9645,space,2.6604,,324.9646,78,2,325.9612,325.9614,326.4557,space,0.4664,,0,21,21,21,1,30,130,,,,,,,,
,,6135d819f5555fe9776deb7e,65af554d9e24a972e38d42b4,2024-01-23_07h01.47.832,bars,2023.2.3,Win32,60.00960154,657b66ea316d21385b68909f,,,,,,,,,,,326.4564,327.4462,,,327.9372,328.1877,,170,-10,,,,,,,,,,,,,,,,bars/024.png,bars/mask003.png,,,,,,,,,,,,10,2,,,,,,,6,10,7,10,,,,,,,,,,,327.4463,327.9372,328.1878,332.3453,space,4.1353,,332.3461,50,0,333.3473,333.3474,333.93,space,0.555,,0,22,22,22,1,120,170,,,,,,,,
,,6135d819f5555fe9776deb7e,65af554d9e24a972e38d42b4,2024-01-23_07h01.47.832,bars,2023.2.3,Win32,60.00960154,657b66ea316d21385b68909f,,,,,,,,,,,333.9305,334.9289,,,335.4189,335.6716,,107,107,,,,,,,,,,,,,,,,bars/049.png,bars/mask003.png,,,,,,,,,,,,7,2,,,,,,,4,10,4,10,,,,,,,,,,,334.9292,335.4189,335.6717,338.5047,space,2.8191,,338.5047,53,8,339.4963,339.4965,339.8648,space,0.3285,,0,23,23,23,1,160,115,,,,,,,,
,,6135d819f5555fe9776deb7e,65af554d9e24a972e38d42b4,2024-01-23_07h01.47.832,bars,2023.2.3,Win32,60.00960154,657b66ea316d21385b68909f,,,,,,,,,,,339.8655,340.8617,,,341.3644,341.6146,,119,119,,,,,,,,,,,,,,,,bars/046.png,bars/mask008.png,,,,,,,,,,,,0,2,,,,,,,6,8,5,9,,,,,,,,,,,340.8622,341.3643,341.6146,344.1131,space,2.469,,344.1134,36,34,345.1117,345.1118,345.5215,space,0.3804,,0,24,24,24,1,155,85,,,,,,,,
,,6135d819f5555fe9776deb7e,65af554d9e24a972e38d42b4,2024-01-23_07h01.47.832,bars,2023.2.3,Win32,60.00960154,657b66ea316d21385b68909f,,,,,,,,,,,345.522,346.5125,,,347.0205,347.2638,,145,145,,,,,,,,,,,,,,,,bars/021.png,bars/mask009.png,,,,,,,,,,,,3,1,,,,,,,4,6,4,7,,,,,,,,,,,346.5126,347.0205,347.2638,349.0721,space,1.7842,,349.0722,10,75,350.063,350.0632,350.4965,space,0.3937,,0,25,25,25,1,155,70,,,,,,,,
,,6135d819f5555fe9776deb7e,65af554d9e24a972e38d42b4,2024-01-23_07h01.47.832,bars,2023.2.3,Win32,60.00960154,657b66ea316d21385b68909f,,,,,,,,,,,350.4972,351.4957,,,351.9972,352.2464,,40,40,,,,,,,,,,,,,,,,bars/034.png,bars/mask005.png,,,,,,,,,,,,1,2,,,,,,,2,8,1,8,,,,,,,,,,,351.496,351.9971,352.2466,356.2797,space,4.0166,,356.2797,85,25,357.2797,357.2799,357.8964,space,0.582,,0,26,26,26,1,125,65,,,,,,,,
,,6135d819f5555fe9776deb7e,65af554d9e24a972e38d42b4,2024-01-23_07h01.47.832,bars,2023.2.3,Win32,60.00960154,657b66ea316d21385b68909f,,,,,,,,,,,357.8968,358.897,,,359.3965,359.6475,,14,194,,,,,,,,,,,,,,,,bars/012.png,bars/mask008.png,,,,,,,,,,,,9,2,,,,,,,4,10,5,9,,,,,,,,,,,358.8971,359.3964,359.6475,361.613,space,1.9507,,361.6131,76,1,362.6125,362.6127,363.0478,space,0.402,,0,27,27,27,1,90,15,,,,,,,,
,,6135d819f5555fe9776deb7e,65af554d9e24a972e38d42b4,2024-01-23_07h01.47.832,bars,2023.2.3,Win32,60.00960154,657b66ea316d21385b68909f,,,,,,,,,,,363.0487,364.0467,,,364.5462,364.7963,,156,156,,,,,,,,,,,,,,,,bars/015.png,bars/mask009.png,,,,,,,,,,,,8,2,,,,,,,2,10,2,9,,,,,,,,,,,364.047,364.546,364.7965,369.7302,space,4.9161,,369.7303,46,4,370.7308,370.7308,371.1471,space,0.3789,,0,28,28,28,1,110,160,,,,,,,,
,,6135d819f5555fe9776deb7e,65af554d9e24a972e38d42b4,2024-01-23_07h01.47.832,bars,2023.2.3,Win32,60.00960154,657b66ea316d21385b68909f,,,,,,,,,,,371.148,372.1467,,,372.6477,372.8973,,170,170,,,,,,,,,,,,,,,,bars/015.png,bars/mask000.png,,,,,,,,,,,,5,2,,,,,,,0,8,0,8,,,,,,,,,,,372.1468,372.6477,372.8974,376.6311,space,3.7136,,376.6311,60,10,377.6208,377.6209,377.9965,space,0.3396,,0,29,29,29,1,110,160,,,,,,,,
,,6135d819f5555fe9776deb7e,65af554d9e24a972e38d42b4,2024-01-23_07h01.47.832,bars,2023.2.3,Win32,60.00960154,657b66ea316d21385b68909f,,,,,,,,,,,377.9985,378.9985,,,379.502,379.7485,,55,55,,,,,,,,,,,,,,,,bars/035.png,bars/mask000.png,,,,,,,,,,,,8,2,,,,,,,2,10,2,9,,,,,,,,,,,378.9986,379.5019,379.7486,382.3731,space,2.6076,,382.3731,60,5,383.364,383.3642,383.7889,space,0.3986,,0,30,30,30,1,175,60,,,,,,,,
,,6135d819f5555fe9776deb7e,65af554d9e24a972e38d42b4,2024-01-23_07h01.47.832,bars,2023.2.3,Win32,60.00960154,657b66ea316d21385b68909f,,,,,,,,,,,383.7901,384.7821,,,385.2801,385.5209,,78,78,,,,,,,,,,,,,,,,bars/019.png,bars/mask008.png,,,,,,,,,,,,1,2,,,,,,,0,8,0,8,,,,,,,,,,,384.7823,385.2798,385.5209,388.3722,space,2.8335,,388.3723,33,27,389.3644,389.3646,389.7154,space,0.3222,,0,31,31,31,1,45,105,,,,,,,,
,,6135d819f5555fe9776deb7e,65af554d9e24a972e38d42b4,2024-01-23_07h01.47.832,bars,2023.2.3,Win32,60.00960154,657b66ea316d21385b68909f,,,,,,,,,,,389.7161,390.7156,,,391.2212,391.4653,,163,163,,,,,,,,,,,,,,,,bars/048.png,bars/mask007.png,,,,,,,,,,,,3,2,,,,,,,0,6,0,5,,,,,,,,,,,390.7156,391.2211,391.4655,394.0475,space,2.5596,,394.0479,67,12,395.0481,395.0482,395.3725,space,0.2953,,0,32,32,32,1,50,175,,,,,,,,
,,6135d819f5555fe9776deb7e,65af554d9e24a972e38d42b4,2024-01-23_07h01.47.832,bars,2023.2.3,Win32,60.00960154,657b66ea316d21385b68909f,,,,,,,,,,,395.3728,396.3634,,,396.8653,397.1157,,140,140,,,,,,,,,,,,,,,,bars/016.png,bars/mask003.png,,,,,,,,,,,,1,2,,,,,,,0,4,1,4,,,,,,,,,,,396.3638,396.8653,397.1158,400.4877,space,3.3509,,400.4878,80,25,401.488,401.4881,401.8142,space,0.2978,,0,33,33,33,1,40,165,,,,,,,,
,,6135d819f5555fe9776deb7e,65af554d9e24a972e38d42b4,2024-01-23_07h01.47.832,bars,2023.2.3,Win32,60.00960154,657b66ea316d21385b68909f,,,,,,,,,,,401.8153,402.8151,,,403.3139,403.5634,,67,67,,,,,,,,,,,,,,,,bars/027.png,bars/mask000.png,,,,,,,,,,,,3,2,,,,,,,0,6,1,6,,,,,,,,,,,402.8152,403.3137,403.5638,406.5062,space,2.9171,,406.5064,43,17,407.4991,407.4991,407.8493,space,0.3118,,0,34,34,34,1,110,50,,,,,,,,
,,6135d819f5555fe9776deb7e,65af554d9e24a972e38d42b4,2024-01-23_07h01.47.832,bars,2023.2.3,Win32,60.00960154,657b66ea316d21385b68909f,,,,,,,,,,,407.8501,408.8565,,,409.3541,409.5967,,57,57,,,,,,,,,,,,,,,,bars/022.png,bars/mask003.png,,,,,,,,,,,,0,2,,,,,,,2,8,2,7,,,,,,,,,,,408.8565,409.3541,409.597,413.2682,space,3.6454,,413.2683,38,37,414.2649,414.2652,414.6155,space,0.3187,,0,35,35,35,1,95,20,,,,,,,,
,,6135d819f5555fe9776deb7e,65af554d9e24a972e38d42b4,2024-01-23_07h01.47.832,bars,2023.2.3,Win32,60.00960154,657b66ea316d21385b68909f,,,,,,,,,,,414.6166,415.6147,,,416.1164,416.3659,,7,187,,,,,,,,,,,,,,,,bars/012.png,bars/mask000.png,,,,,,,,,,,,4,2,,,,,,,4,6,4,6,,,,,,,,,,,415.6149,416.1163,416.3661,418.3011,space,1.9105,,418.3012,83,8,419.2983,419.2986,419.6563,space,0.3344,,0,36,36,36,1,90,15,,,,,,,,
,,6135d819f5555fe9776deb7e,65af554d9e24a972e38d42b4,2024-01-23_07h01.47.832,bars,2023.2.3,Win32,60.00960154,657b66ea316d21385b68909f,,,,,,,,,,,419.6568,420.6481,,,421.1499,421.3969,,165,165,,,,,,,,,,,,,,,,bars/035.png,bars/mask000.png,,,,,,,,,,,,4,1,,,,,,,6,8,6,8,,,,,,,,,,,420.6484,421.1498,421.3971,423.8568,space,2.4394,,423.8569,10,75,424.8496,424.8497,425.6489,space,0.7683,,0,37,37,37,1,175,60,,,,,,,,
,,6135d819f5555fe9776deb7e,65af554d9e24a972e38d42b4,2024-01-23_07h01.47.832,bars,2023.2.3,Win32,60.00960154,657b66ea316d21385b68909f,,,,,,,,,,,425.6494,426.6488,,,427.1472,427.3905,,68,68,,,,,,,,,,,,,,,,bars/026.png,bars/mask007.png,,,,,,,,,,,,3,2,,,,,,,8,6,8,6,,,,,,,,,,,426.6489,427.1469,427.3905,431.7826,space,4.3704,,431.7827,33,17,432.773,432.7731,433.1911,space,0.3843,,0,38,38,38,1,35,85,,,,,,,,
,,6135d819f5555fe9776deb7e,65af554d9e24a972e38d42b4,2024-01-23_07h01.47.832,bars,2023.2.3,Win32,60.00960154,657b66ea316d21385b68909f,,,,,,,,,,,433.1916,434.1831,,,434.6828,434.9305,,157,157,,,,,,,,,,,,,,,,bars/018.png,bars/mask004.png,,,,,,,,,,,,3,1,,,,,,,6,4,4,4,,,,,,,,,,,434.1832,434.6826,434.9306,438.0491,space,3.101,,438.0491,7,67,439.0478,439.048,439.2687,space,0.1905,,0,39,39,39,1,150,90,,,,,,,,
,,6135d819f5555fe9776deb7e,65af554d9e24a972e38d42b4,2024-01-23_07h01.47.832,bars,2023.2.3,Win32,60.00960154,657b66ea316d21385b68909f,,,,,,,,,,,439.2692,440.2666,,,440.7658,441.0159,,173,173,,,,,,,,,,,,,,,,bars/008.png,bars/mask007.png,,,,,,,,,,,,4,2,,,,,,,4,6,5,5,,,,,,,,,,,440.2668,440.7654,441.0161,445.7073,space,4.6698,,445.7074,63,7,446.6977,446.6982,447.0318,space,0.2896,,0,40,40,40,1,110,0,,,,,,,,
,,6135d819f5555fe9776deb7e,65af554d9e24a972e38d42b4,2024-01-23_07h01.47.832,bars,2023.2.3,Win32,60.00960154,657b66ea316d21385b68909f,,,,,,,,,,,447.0325,448.0318,,,448.5315,448.7815,,75,75,,,,,,,,,,,,,,,,bars/019.png,bars/mask008.png,,,,,,,,,,,,0,2,,,,,,,6,8,8,8,,,,,,,,,,,448.032,448.5313,448.7818,451.8663,space,3.0692,,451.8664,30,30,452.8653,452.8654,453.2001,space,0.2957,,0,41,41,41,1,45,105,,,,,,,,
,,6135d819f5555fe9776deb7e,65af554d9e24a972e38d42b4,2024-01-23_07h01.47.832,bars,2023.2.3,Win32,60.00960154,657b66ea316d21385b68909f,,,,,,,,,,,453.2007,454.1981,,,454.7002,454.9495,,79,79,,,,,,,,,,,,,,,,bars/002.png,bars/mask003.png,,,,,,,,,,,,6,2,,,,,,,8,6,7,7,,,,,,,,,,,454.1984,454.7001,454.9496,458.8188,space,3.8432,,458.8191,51,6,459.8162,459.8164,460.15,space,0.2981,,0,42,42,42,1,130,85,,,,,,,,
,,6135d819f5555fe9776deb7e,65af554d9e24a972e38d42b4,2024-01-23_07h01.47.832,bars,2023.2.3,Win32,60.00960154,657b66ea316d21385b68909f,,,,,,,,,,,460.151,461.148,,,461.6407,461.8826,,102,102,,,,,,,,,,,,,,,,bars/023.png,bars/mask008.png,,,,,,,,,,,,3,2,,,,,,,6,4,6,5,,,,,,,,,,,461.1481,461.6407,461.8827,463.751,space,1.844,,463.751,82,13,464.7408,464.7409,465.0657,space,0.2898,,0,43,43,43,1,20,115,,,,,,,,
,,6135d819f5555fe9776deb7e,65af554d9e24a972e38d42b4,2024-01-23_07h01.47.832,bars,2023.2.3,Win32,60.00960154,657b66ea316d21385b68909f,,,,,,,,,,,465.0671,466.0707,,,466.5649,466.8156,,100,100,,,,,,,,,,,,,,,,bars/037.png,bars/mask009.png,,,,,,,,,,,,2,2,,,,,,,4,2,5,2,,,,,,,,,,,466.0707,466.5647,466.8157,469.5239,space,2.6833,,469.524,50,5,470.5174,470.5175,470.8337,space,0.29,,0,44,44,44,1,150,105,,,,,,,,
,,6135d819f5555fe9776deb7e,65af554d9e24a972e38d42b4,2024-01-23_07h01.47.832,bars,2023.2.3,Win32,60.00960154,657b66ea316d21385b68909f,,,,,,,,,,,470.835,471.8311,,,472.3324,472.5834,,18,18,,,,,,,,,,,,,,,,bars/032.png,bars/mask001.png,,,,,,,,,,,,0,2,,,,,,,2,0,4,0,,,,,,,,,,,471.8313,472.3322,472.5837,475.3252,space,2.718,,475.3252,73,2,476.3175,476.3175,476.3737,space,0.0274,,0,45,45,45,1,125,20,,,,,,,,
,,6135d819f5555fe9776deb7e,65af554d9e24a972e38d42b4,2024-01-23_07h01.47.832,bars,2023.2.3,Win32,60.00960154,657b66ea316d21385b68909f,,,,,,,,,,,476.3743,477.3663,,,477.8675,478.1152,,101,101,,,,,,,,,,,,,,,,bars/002.png,bars/mask002.png,,,,,,,,,,,,0,2,,,,,,,4,0,2,0,,,,,,,,,,,477.3667,477.8671,478.1154,480.7422,space,2.6036,,480.7423,29,16,481.7337,481.734,482.1085,space,0.3444,,0,46,46,46,1,130,85,,,,,,,,
,,6135d819f5555fe9776deb7e,65af554d9e24a972e38d42b4,2024-01-23_07h01.47.832,bars,2023.2.3,Win32,60.00960154,657b66ea316d21385b68909f,,,,,,,,,,,482.1093,483.1009,,,483.6003,483.8524,,74,74,,,,,,,,,,,,,,,,bars/019.png,bars/mask000.png,,,,,,,,,,,,0,1,,,,,,,2,2,1,1,,,,,,,,,,,483.1011,483.6003,483.8524,487.5585,space,3.6872,,487.5587,29,31,488.5506,488.5506,488.64,space,0.0507,,0,47,47,47,1,45,105,,,,,,,,
,,6135d819f5555fe9776deb7e,65af554d9e24a972e38d42b4,2024-01-23_07h01.47.832,bars,2023.2.3,Win32,60.00960154,657b66ea316d21385b68909f,,,,,,,,,,,488.6403,489.6382,,,490.1362,490.3837,,24,204,,,,,,,,,,,,,,,,bars/009.png,bars/mask004.png,,,,,,,,,,,,3,1,,,,,,,4,0,4,0,,,,,,,,,,,489.6382,490.1362,490.3837,494.79,space,4.3816,,494.79,9,81,495.7833,495.7836,496.4847,space,0.6687,,0,48,48,48,1,15,105,,,,,,,,
,,6135d819f5555fe9776deb7e,65af554d9e24a972e38d42b4,2024-01-23_07h01.47.832,bars,2023.2.3,Win32,60.00960154,657b66ea316d21385b68909f,,,,,,,,,,,496.4854,497.4853,,,497.985,498.2232,,30,30,,,,,,,,,,,,,,,,bars/000.png,bars/mask008.png,,,,,,,,,,,,4,1,,,,,,,6,0,6,1,,,,,,,,,,,497.4854,497.985,498.2232,500.5182,space,2.2701,,500.5183,10,65,501.5165,501.5167,501.8675,space,0.3152,,0,49,49,49,1,40,145,,,,,,,,
,,6135d819f5555fe9776deb7e,65af554d9e24a972e38d42b4,2024-01-23_07h01.47.832,bars,2023.2.3,Win32,60.00960154,657b66ea316d21385b68909f,,,,,,,,,,,,,,,,,,,,,,,,,,,,,,,,,,,,,,,,,,,,,,,,,,,,,,,,,,,,,,,,,,,,,,,,,,,,,,,,,,,,,,,,,,,,,501.8685,561.8759,0,0,0,1,1,sequence_tables/blk030.csv
,,6135d819f5555fe9776deb7e,65af554d9e24a972e38d42b4,2024-01-23_07h01.47.832,bars,2023.2.3,Win32,60.00960154,657b66ea316d21385b68909f,,,,,,,,,,,563.8133,564.8024,,,565.3026,565.5534,,69,69,,,,,,,,,,,,,,,,bars/029.png,bars/mask002.png,,,,,,,,,,,,2,1,,,,,,,2,3,5,3,,,,,,561.8924,563.802,space,1.9001,,564.8024,565.3026,565.5536,568.1284,space,2.5543,,568.1285,21,24,569.1246,569.1247,569.1407,,,,0,0,0,0,1,90,45,,,,,,,,
,,6135d819f5555fe9776deb7e,65af554d9e24a972e38d42b4,2024-01-23_07h01.47.832,bars,2023.2.3,Win32,60.00960154,657b66ea316d21385b68909f,,,,,,,,,,,569.1414,570.1439,,,570.6363,570.8866,,106,106,,,,,,,,,,,,,,,,bars/023.png,bars/mask009.png,,,,,,,,,,,,1,2,,,,,,,4,1,3,1,,,,,,,,,,,570.144,570.6361,570.8867,573.2096,space,2.3013,,573.2097,86,9,574.2027,574.2028,574.22,,,,0,1,1,1,1,20,115,,,,,,,,
,,6135d819f5555fe9776deb7e,65af554d9e24a972e38d42b4,2024-01-23_07h01.47.832,bars,2023.2.3,Win32,60.00960154,657b66ea316d21385b68909f,,,,,,,,,,,574.2204,575.2189,,,575.7183,575.9685,,55,55,,,,,,,,,,,,,,,,bars/031.png,bars/mask008.png,,,,,,,,,,,,0,2,,,,,,,6,0,5,0,,,,,,,,,,,575.2189,575.7181,575.9686,577.0361,space,1.0509,,577.0362,65,20,578.0276,578.0276,578.044,,,,0,2,2,2,1,120,35,,,,,,,,
,,6135d819f5555fe9776deb7e,65af554d9e24a972e38d42b4,2024-01-23_07h01.47.832,bars,2023.2.3,Win32,60.00960154,657b66ea316d21385b68909f,,,,,,,,,,,578.0445,579.0356,,,579.5344,579.7859,,49,49,,,,,,,,,,,,,,,,bars/028.png,bars/mask008.png,,,,,,,,,,,,3,1,,,,,,,4,2,4,2,,,,,,,,,,,579.0357,579.5342,579.786,581.8683,space,2.0665,,581.8684,4,71,582.8688,582.8688,582.8845,,,,0,3,3,3,1,45,120,,,,,,,,
,,6135d819f5555fe9776deb7e,65af554d9e24a972e38d42b4,2024-01-23_07h01.47.832,bars,2023.2.3,Win32,60.00960154,657b66ea316d21385b68909f,,,,,,,,,,,582.8859,583.8884,,,584.3941,584.636,,113,113,,,,,,,,,,,,,,,,bars/009.png,bars/mask005.png,,,,,,,,,,,,3,2,,,,,,,6,4,6,4,,,,,,,,,,,583.8885,584.394,584.6361,586.5943,space,1.9353,,586.5944,82,8,587.5855,587.5858,587.5922,,,,0,4,4,4,1,15,105,,,,,,,,
,,6135d819f5555fe9776deb7e,65af554d9e24a972e38d42b4,2024-01-23_07h01.47.832,bars,2023.2.3,Win32,60.00960154,657b66ea316d21385b68909f,,,,,,,,,,,587.5928,588.5854,,,589.0872,589.3386,,2,2,,,,,,,,,,,,,,,,bars/014.png,bars/mask001.png,,,,,,,,,,,,2,2,,,,,,,4,2,3,2,,,,,,,,,,,588.5857,589.0871,589.3387,593.7597,space,4.3992,,593.7597,78,2,594.7531,594.7533,594.7708,,,,0,5,5,5,1,80,0,,,,,,,,
,,6135d819f5555fe9776deb7e,65af554d9e24a972e38d42b4,2024-01-23_07h01.47.832,bars,2023.2.3,Win32,60.00960154,657b66ea316d21385b68909f,,,,,,,,,,,594.7716,595.7695,,,596.2704,596.5205,,106,106,,,,,,,,,,,,,,,,bars/007.png,bars/mask004.png,,,,,,,,,,,,0,2,,,,,,,2,4,2,5,,,,,,,,,,,595.7697,596.2704,596.5206,598.4956,space,1.9534,,598.4957,69,51,599.4938,599.4939,599.4951,,,,0,6,6,6,1,175,55,,,,,,,,
,,6135d819f5555fe9776deb7e,65af554d9e24a972e38d42b4,2024-01-23_07h01.47.832,bars,2023.2.3,Win32,60.00960154,657b66ea316d21385b68909f,,,,,,,,,,,599.4957,600.4858,,,600.993,601.2374,,55,55,,,,,,,,,,,,,,,,bars/034.png,bars/mask002.png,,,,,,,,,,,,1,2,,,,,,,4,2,5,2,,,,,,,,,,,600.486,600.9929,601.2375,603.8046,space,2.5408,,603.8047,70,10,604.8032,604.8033,604.8174,,,,0,7,7,7,1,125,65,,,,,,,,
,,6135d819f5555fe9776deb7e,65af554d9e24a972e38d42b4,2024-01-23_07h01.47.832,bars,2023.2.3,Win32,60.00960154,657b66ea316d21385b68909f,,,,,,,,,,,604.8179,605.8278,,,606.3182,606.5778,,13,13,,,,,,,,,,,,,,,,bars/004.png,bars/mask004.png,,,,,,,,,,,,1,1,,,,,,,2,4,2,6,,,,,,,,,,,605.8278,606.3181,606.5779,609.5711,space,2.971,,609.5711,12,68,610.5702,610.5704,610.5836,,,,0,8,8,8,1,25,125,,,,,,,,
,,6135d819f5555fe9776deb7e,65af554d9e24a972e38d42b4,2024-01-23_07h01.47.832,bars,2023.2.3,Win32,60.00960154,657b66ea316d21385b68909f,,,,,,,,,,,610.5839,611.5891,,,612.078,612.318,,141,141,,,,,,,,,,,,,,,,bars/040.png,bars/mask005.png,,,,,,,,,,,,0,1,,,,,,,0,2,0,2,,,,,,,,,,,611.5892,612.078,612.3181,635.2457,space,22.9177,,635.2458,1,44,636.237,636.2372,636.2518,,,,0,9,9,9,1,140,5,,,,,,,,
,,6135d819f5555fe9776deb7e,65af554d9e24a972e38d42b4,2024-01-23_07h01.47.832,bars,2023.2.3,Win32,60.00960154,657b66ea316d21385b68909f,,,,,,,,,,,636.2527,637.2537,,,637.7544,638.003,,119,119,,,,,,,,,,,,,,,,bars/001.png,bars/mask004.png,,,,,,,,,,,,0,1,,,,,,,0,4,0,5,,,,,,,,,,,637.2537,637.7543,638.0032,642.8702,space,4.8536,,642.8702,11,34,643.87,643.87,643.8836,,,,0,10,10,10,1,130,85,,,,,,,,
,,6135d819f5555fe9776deb7e,65af554d9e24a972e38d42b4,2024-01-23_07h01.47.832,bars,2023.2.3,Win32,60.00960154,657b66ea316d21385b68909f,,,,,,,,,,,643.8843,644.8871,,,645.3878,645.6376,,69,69,,,,,,,,,,,,,,,,bars/002.png,bars/mask008.png,,,,,,,,,,,,0,2,,,,,,,2,2,1,0,,,,,,,,,,,644.8872,645.3876,645.6377,647.4714,space,1.8172,,647.4715,61,16,648.4708,648.4709,648.4928,,,,0,11,11,11,1,130,85,,,,,,,,
,,6135d819f5555fe9776deb7e,65af554d9e24a972e38d42b4,2024-01-23_07h01.47.832,bars,2023.2.3,Win32,60.00960154,657b66ea316d21385b68909f,,,,,,,,,,,648.4938,649.4875,,,649.9879,650.2378,,118,118,,,,,,,,,,,,,,,,bars/037.png,bars/mask005.png,,,,,,,,,,,,3,2,,,,,,,4,4,5,5,,,,,,,,,,,649.4875,649.9878,650.2379,653.5044,space,3.2513,,653.5045,32,13,654.5053,654.5054,654.5242,,,,0,12,12,12,1,150,105,,,,,,,,
,,6135d819f5555fe9776deb7e,65af554d9e24a972e38d42b4,2024-01-23_07h01.47.832,bars,2023.2.3,Win32,60.00960154,657b66ea316d21385b68909f,,,,,,,,,,,654.5247,655.5202,,,656.0212,656.2736,,107,107,,,,,,,,,,,,,,,,bars/039.png,bars/mask004.png,,,,,,,,,,,,3,2,,,,,,,2,2,0,3,,,,,,,,,,,655.5204,656.021,656.2737,659.7409,space,3.4466,,659.741,68,2,660.7366,660.7369,660.7503,,,,0,13,13,13,1,175,105,,,,,,,,
,,6135d819f5555fe9776deb7e,65af554d9e24a972e38d42b4,2024-01-23_07h01.47.832,bars,2023.2.3,Win32,60.00960154,657b66ea316d21385b68909f,,,,,,,,,,,660.7511,661.7405,,,662.2375,662.4873,,144,144,,,,,,,,,,,,,,,,bars/039.png,bars/mask006.png,,,,,,,,,,,,0,1,,,,,,,4,4,5,4,,,,,,,,,,,661.7407,662.2373,662.4876,663.7131,space,1.201,,663.7133,31,39,664.7033,664.7034,664.7198,,,,0,14,14,14,1,175,105,,,,,,,,
,,6135d819f5555fe9776deb7e,65af554d9e24a972e38d42b4,2024-01-23_07h01.47.832,bars,2023.2.3,Win32,60.00960154,657b66ea316d21385b68909f,,,,,,,,,,,664.721,665.7206,,,666.2225,666.4716,,31,31,,,,,,,,,,,,,,,,bars/022.png,bars/mask002.png,,,,,,,,,,,,4,2,,,,,,,2,6,1,7,,,,,,,,,,,665.7209,666.2224,666.4716,668.1878,space,1.6844,,668.1882,64,11,669.1867,669.1869,669.2051,,,,0,15,15,15,1,95,20,,,,,,,,
,,6135d819f5555fe9776deb7e,65af554d9e24a972e38d42b4,2024-01-23_07h01.47.832,bars,2023.2.3,Win32,60.00960154,657b66ea316d21385b68909f,,,,,,,,,,,669.2056,670.2028,,,670.7044,670.956,,146,-34,,,,,,,,,,,,,,,,bars/000.png,bars/mask006.png,,,,,,,,,,,,5,2,,,,,,,4,4,2,5,,,,,,,,,,,670.2029,670.704,670.956,675.0384,space,4.0581,,675.0386,74,1,676.0462,676.0463,676.0606,,,,0,16,16,16,1,40,145,,,,,,,,
,,6135d819f5555fe9776deb7e,65af554d9e24a972e38d42b4,2024-01-23_07h01.47.832,bars,2023.2.3,Win32,60.00960154,657b66ea316d21385b68909f,,,,,,,,,,,676.0612,677.0593,,,677.5537,677.804,,16,196,,,,,,,,,,,,,,,,bars/032.png,bars/mask005.png,,,,,,,,,,,,2,2,,,,,,,6,2,5,2,,,,,,,,,,,677.0594,677.5536,677.8044,681.8133,space,3.9857,,681.8135,71,4,682.8051,682.8055,682.8255,,,,0,17,17,17,1,125,20,,,,,,,,
,,6135d819f5555fe9776deb7e,65af554d9e24a972e38d42b4,2024-01-23_07h01.47.832,bars,2023.2.3,Win32,60.00960154,657b66ea316d21385b68909f,,,,,,,,,,,682.826,683.822,,,684.3228,684.5711,,15,15,,,,,,,,,,,,,,,,bars/012.png,bars/mask009.png,,,,,,,,,,,,3,2,,,,,,,8,4,7,3,,,,,,,,,,,683.8222,684.3226,684.5712,688.3379,space,3.7369,,688.338,75,0,689.3386,689.3386,689.3537,,,,0,18,18,18,1,90,15,,,,,,,,
,,6135d819f5555fe9776deb7e,65af554d9e24a972e38d42b4,2024-01-23_07h01.47.832,bars,2023.2.3,Win32,60.00960154,657b66ea316d21385b68909f,,,,,,,,,,,689.3555,690.3563,,,690.8545,691.1046,,63,63,,,,,,,,,,,,,,,,bars/027.png,bars/mask003.png,,,,,,,,,,,,2,2,,,,,,,6,2,5,3,,,,,,,,,,,690.3565,690.8543,691.1051,694.9046,space,3.7738,,694.9049,47,13,695.9136,695.9136,695.9323,,,,0,19,19,19,1,110,50,,,,,,,,
,,6135d819f5555fe9776deb7e,65af554d9e24a972e38d42b4,2024-01-23_07h01.47.832,bars,2023.2.3,Win32,60.00960154,657b66ea316d21385b68909f,,,,,,,,,,,695.9329,696.922,,,697.4211,697.6714,,145,145,,,,,,,,,,,,,,,,bars/039.png,bars/mask004.png,,,,,,,,,,,,0,1,,,,,,,8,4,8,2,,,,,,,,,,,696.922,697.4209,697.6715,700.0555,space,2.3697,,700.0555,30,40,701.0543,701.0546,701.0747,,,,0,20,20,20,1,175,105,,,,,,,,
,,6135d819f5555fe9776deb7e,65af554d9e24a972e38d42b4,2024-01-23_07h01.47.832,bars,2023.2.3,Win32,60.00960154,657b66ea316d21385b68909f,,,,,,,,,,,701.0752,702.0715,,,702.5734,702.8231,,8,188,,,,,,,,,,,,,,,,bars/008.png,bars/mask005.png,,,,,,,,,,,,4,2,,,,,,,6,6,5,6,,,,,,,,,,,702.0718,702.5733,702.8231,707.5387,space,4.6895,,707.5388,78,8,708.5304,708.5304,708.5475,,,,0,21,21,21,1,110,0,,,,,,,,
,,6135d819f5555fe9776deb7e,65af554d9e24a972e38d42b4,2024-01-23_07h01.47.832,bars,2023.2.3,Win32,60.00960154,657b66ea316d21385b68909f,,,,,,,,,,,708.548,709.5394,,,710.0393,710.2879,,151,151,,,,,,,,,,,,,,,,bars/000.png,bars/mask001.png,,,,,,,,,,,,3,2,,,,,,,8,4,9,4,,,,,,,,,,,709.5394,710.0393,710.2881,714.105,space,3.7969,,714.1052,69,6,715.1064,715.1065,715.1243,,,,0,22,22,22,1,40,145,,,,,,,,
,,6135d819f5555fe9776deb7e,65af554d9e24a972e38d42b4,2024-01-23_07h01.47.832,bars,2023.2.3,Win32,60.00960154,657b66ea316d21385b68909f,,,,,,,,,,,715.1248,716.1307,,,716.6213,716.8721,,45,45,,,,,,,,,,,,,,,,bars/028.png,bars/mask002.png,,,,,,,,,,,,10,1,,,,,,,10,2,10,2,,,,,,,,,,,716.1307,716.6211,716.8722,720.0475,space,3.1502,,720.0476,0,75,721.0387,721.0391,721.0591,,,,0,23,23,23,1,45,120,,,,,,,,
,,6135d819f5555fe9776deb7e,65af554d9e24a972e38d42b4,2024-01-23_07h01.47.832,bars,2023.2.3,Win32,60.00960154,657b66ea316d21385b68909f,,,,,,,,,,,721.0593,722.0573,,,722.5565,722.8044,,119,119,,,,,,,,,,,,,,,,bars/020.png,bars/mask009.png,,,,,,,,,,,,9,1,,,,,,,10,4,10,6,,,,,,,,,,,722.0573,722.5564,722.8045,725.6984,space,2.8844,,725.6985,4,51,726.6904,726.6905,726.709,,,,0,24,24,24,1,115,170,,,,,,,,
,,6135d819f5555fe9776deb7e,65af554d9e24a972e38d42b4,2024-01-23_07h01.47.832,bars,2023.2.3,Win32,60.00960154,657b66ea316d21385b68909f,,,,,,,,,,,726.7097,727.7071,,,728.2088,728.4562,,54,54,,,,,,,,,,,,,,,,bars/007.png,bars/mask009.png,,,,,,,,,,,,7,2,,,,,,,10,6,9,7,,,,,,,,,,,727.7071,728.2087,728.4564,731.696,space,3.2158,,731.696,59,1,732.6891,732.6893,732.7078,,,,0,25,25,25,1,175,55,,,,,,,,
,,6135d819f5555fe9776deb7e,65af554d9e24a972e38d42b4,2024-01-23_07h01.47.832,bars,2023.2.3,Win32,60.00960154,657b66ea316d21385b68909f,,,,,,,,,,,732.7086,733.7062,,,734.2065,734.4571,,3,3,,,,,,,,,,,,,,,,bars/035.png,bars/mask005.png,,,,,,,,,,,,7,1,,,,,,,10,8,10,8,,,,,,,,,,,733.7065,734.2064,734.4573,738.1425,space,3.6775,,738.1426,8,57,739.1398,739.1398,739.1623,,,,0,26,26,26,1,175,60,,,,,,,,
,,6135d819f5555fe9776deb7e,65af554d9e24a972e38d42b4,2024-01-23_07h01.47.832,bars,2023.2.3,Win32,60.00960154,657b66ea316d21385b68909f,,,,,,,,,,,739.1631,740.1553,,,740.6569,740.9066,,114,114,,,,,,,,,,,,,,,,bars/037.png,bars/mask008.png,,,,,,,,,,,,7,2,,,,,,,10,10,10,10,,,,,,,,,,,740.1555,740.6568,740.9067,747.3728,space,6.4466,,747.373,36,9,748.3724,748.3726,748.3914,,,,0,27,27,27,1,150,105,,,,,,,,
,,6135d819f5555fe9776deb7e,65af554d9e24a972e38d42b4,2024-01-23_07h01.47.832,bars,2023.2.3,Win32,60.00960154,657b66ea316d21385b68909f,,,,,,,,,,,748.3921,749.3905,,,749.8886,750.1391,,64,64,,,,,,,,,,,,,,,,bars/027.png,bars/mask009.png,,,,,,,,,,,,4,2,,,,,,,10,8,10,8,,,,,,,,,,,749.3906,749.8884,750.1393,754.3237,space,4.1713,,754.3238,46,14,755.3235,755.3236,755.3416,,,,0,28,28,28,1,110,50,,,,,,,,
,,6135d819f5555fe9776deb7e,65af554d9e24a972e38d42b4,2024-01-23_07h01.47.832,bars,2023.2.3,Win32,60.00960154,657b66ea316d21385b68909f,,,,,,,,,,,755.3423,756.3402,,,756.8415,757.0812,,97,97,,,,,,,,,,,,,,,,bars/034.png,bars/mask000.png,,,,,,,,,,,,1,1,,,,,,,8,10,8,10,,,,,,,,,,,756.3403,756.8415,757.0813,760.3491,space,3.2615,,760.3492,28,32,761.3389,761.3393,761.3581,,,,0,29,29,29,1,125,65,,,,,,,,
,,6135d819f5555fe9776deb7e,65af554d9e24a972e38d42b4,2024-01-23_07h01.47.832,bars,2023.2.3,Win32,60.00960154,657b66ea316d21385b68909f,,,,,,,,,,,761.3587,762.3487,,,762.8418,763.0808,,70,70,,,,,,,,,,,,,,,,bars/025.png,bars/mask007.png,,,,,,,,,,,,0,2,,,,,,,6,10,7,10,,,,,,,,,,,762.3488,762.8417,763.0809,765.0585,space,1.9598,,765.0585,35,30,766.0653,766.0654,766.0814,,,,0,30,30,30,1,105,40,,,,,,,,
,,6135d819f5555fe9776deb7e,65af554d9e24a972e38d42b4,2024-01-23_07h01.47.832,bars,2023.2.3,Win32,60.00960154,657b66ea316d21385b68909f,,,,,,,,,,,766.082,767.0729,,,767.5732,767.8241,,116,116,,,,,,,,,,,,,,,,bars/011.png,bars/mask009.png,,,,,,,,,,,,0,2,,,,,,,4,10,3,10,,,,,,,,,,,767.073,767.5731,767.8242,769.458,space,1.6107,,769.4581,44,31,770.4574,770.4576,770.4597,,,,0,31,31,31,1,160,85,,,,,,,,
,,6135d819f5555fe9776deb7e,65af554d9e24a972e38d42b4,2024-01-23_07h01.47.832,bars,2023.2.3,Win32,60.00960154,657b66ea316d21385b68909f,,,,,,,,,,,770.4606,771.4565,,,771.9571,772.2073,,50,50,,,,,,,,,,,,,,,,bars/004.png,bars/mask006.png,,,,,,,,,,,,1,1,,,,,,,6,10,7,10,,,,,,,,,,,771.4568,771.9569,772.2073,775.7569,space,3.5358,,775.7571,25,75,776.7573,776.7573,776.7756,,,,0,32,32,32,1,25,125,,,,,,,,
,,6135d819f5555fe9776deb7e,65af554d9e24a972e38d42b4,2024-01-23_07h01.47.832,bars,2023.2.3,Win32,60.00960154,657b66ea316d21385b68909f,,,,,,,,,,,776.776,777.7743,,,778.273,778.5121,,170,170,,,,,,,,,,,,,,,,bars/039.png,bars/mask003.png,,,,,,,,,,,,3,1,,,,,,,4,10,3,9,,,,,,,,,,,777.7744,778.2727,778.5121,782.3084,space,3.7697,,782.3085,5,65,783.3069,783.3071,783.3238,,,,0,33,33,33,1,175,105,,,,,,,,
,,6135d819f5555fe9776deb7e,65af554d9e24a972e38d42b4,2024-01-23_07h01.47.832,bars,2023.2.3,Win32,60.00960154,657b66ea316d21385b68909f,,,,,,,,,,,783.3244,784.3232,,,784.8243,785.0744,,21,21,,,,,,,,,,,,,,,,bars/036.png,bars/mask000.png,,,,,,,,,,,,8,2,,,,,,,6,8,8,8,,,,,,,,,,,784.3234,784.8242,785.0746,789.0074,space,3.907,,789.0075,56,1,790.0089,790.009,790.0262,,,,0,34,34,34,1,145,20,,,,,,,,
,,6135d819f5555fe9776deb7e,65af554d9e24a972e38d42b4,2024-01-23_07h01.47.832,bars,2023.2.3,Win32,60.00960154,657b66ea316d21385b68909f,,,,,,,,,,,790.0269,791.0254,,,791.5239,791.7758,,101,101,,,,,,,,,,,,,,,,bars/026.png,bars/mask004.png,,,,,,,,,,,,3,2,,,,,,,4,6,4,6,,,,,,,,,,,791.0255,791.5237,791.7758,793.4503,space,1.6537,,793.4504,66,16,794.4409,794.4411,794.4446,,,,0,35,35,35,1,35,85,,,,,,,,
,,6135d819f5555fe9776deb7e,65af554d9e24a972e38d42b4,2024-01-23_07h01.47.832,bars,2023.2.3,Win32,60.00960154,657b66ea316d21385b68909f,,,,,,,,,,,794.4456,795.4401,,,795.9323,796.1757,,144,144,,,,,,,,,,,,,,,,bars/003.png,bars/mask003.png,,,,,,,,,,,,3,2,,,,,,,2,4,1,4,,,,,,,,,,,795.4404,795.9323,796.1757,800.5666,space,4.3673,,800.5667,61,4,801.5592,801.5592,801.5743,,,,0,36,36,36,1,25,140,,,,,,,,
,,6135d819f5555fe9776deb7e,65af554d9e24a972e38d42b4,2024-01-23_07h01.47.832,bars,2023.2.3,Win32,60.00960154,657b66ea316d21385b68909f,,,,,,,,,,,801.5755,802.575,,,803.0738,803.3273,,61,61,,,,,,,,,,,,,,,,bars/041.png,bars/mask003.png,,,,,,,,,,,,0,2,,,,,,,0,2,1,0,,,,,,,,,,,802.5753,803.0735,803.3274,806.6666,space,3.3198,,806.6668,41,24,807.6575,807.6576,807.6753,,,,0,37,37,37,1,20,85,,,,,,,,
,,6135d819f5555fe9776deb7e,65af554d9e24a972e38d42b4,2024-01-23_07h01.47.832,bars,2023.2.3,Win32,60.00960154,657b66ea316d21385b68909f,,,,,,,,,,,807.6759,808.6747,,,809.1833,809.4241,,70,70,,,,,,,,,,,,,,,,bars/041.png,bars/mask005.png,,,,,,,,,,,,1,2,,,,,,,2,0,2,1,,,,,,,,,,,808.6748,809.1833,809.4244,811.6166,space,2.1669,,811.6167,50,15,812.6076,812.6076,812.622,,,,0,38,38,38,1,20,85,,,,,,,,
,,6135d819f5555fe9776deb7e,65af554d9e24a972e38d42b4,2024-01-23_07h01.47.832,bars,2023.2.3,Win32,60.00960154,657b66ea316d21385b68909f,,,,,,,,,,,812.6227,813.6238,,,814.1262,814.3751,,13,13,,,,,,,,,,,,,,,,bars/032.png,bars/mask007.png,,,,,,,,,,,,2,2,,,,,,,4,2,5,2,,,,,,,,,,,813.624,814.1262,814.3751,816.2425,space,1.8409,,816.2425,68,7,817.2405,817.2407,817.2435,,,,0,39,39,39,1,125,20,,,,,,,,
,,6135d819f5555fe9776deb7e,65af554d9e24a972e38d42b4,2024-01-23_07h01.47.832,bars,2023.2.3,Win32,60.00960154,657b66ea316d21385b68909f,,,,,,,,,,,817.2447,818.2417,,,818.7407,818.9922,,71,71,,,,,,,,,,,,,,,,bars/001.png,bars/mask000.png,,,,,,,,,,,,1,2,,,,,,,6,0,7,1,,,,,,,,,,,818.2417,818.7405,818.9922,821.6589,space,2.6428,,821.659,59,14,822.6574,822.6575,822.6712,,,,0,40,40,40,1,130,85,,,,,,,,
,,6135d819f5555fe9776deb7e,65af554d9e24a972e38d42b4,2024-01-23_07h01.47.832,bars,2023.2.3,Win32,60.00960154,657b66ea316d21385b68909f,,,,,,,,,,,822.6715,823.6597,,,824.1574,824.4166,,159,159,,,,,,,,,,,,,,,,bars/020.png,bars/mask007.png,,,,,,,,,,,,1,2,,,,,,,4,2,4,2,,,,,,,,,,,823.6597,824.1572,824.4166,826.0509,space,1.6178,,826.051,44,11,827.0483,827.0484,827.0493,,,,0,41,41,41,1,115,170,,,,,,,,
,,6135d819f5555fe9776deb7e,65af554d9e24a972e38d42b4,2024-01-23_07h01.47.832,bars,2023.2.3,Win32,60.00960154,657b66ea316d21385b68909f,,,,,,,,,,,827.0497,828.0414,,,828.5428,828.7926,,159,159,,,,,,,,,,,,,,,,bars/028.png,bars/mask003.png,,,,,,,,,,,,0,2,,,,,,,2,4,1,3,,,,,,,,,,,828.0417,828.5426,828.7928,833.9974,space,5.1835,,833.9974,66,39,834.9924,834.9924,835.0087,,,,0,42,42,42,1,45,120,,,,,,,,
,,6135d819f5555fe9776deb7e,65af554d9e24a972e38d42b4,2024-01-23_07h01.47.832,bars,2023.2.3,Win32,60.00960154,657b66ea316d21385b68909f,,,,,,,,,,,835.0091,836.0076,,,836.5086,836.7642,,127,127,,,,,,,,,,,,,,,,bars/049.png,bars/mask000.png,,,,,,,,,,,,1,2,,,,,,,0,2,1,1,,,,,,,,,,,836.0078,836.5084,836.7642,841.9434,space,5.1563,,841.9436,33,12,842.9435,842.9436,842.9594,,,,0,43,43,43,1,160,115,,,,,,,,
,,6135d819f5555fe9776deb7e,65af554d9e24a972e38d42b4,2024-01-23_07h01.47.832,bars,2023.2.3,Win32,60.00960154,657b66ea316d21385b68909f,,,,,,,,,,,842.9603,843.9592,,,844.467,844.7075,,34,34,,,,,,,,,,,,,,,,bars/015.png,bars/mask000.png,,,,,,,,,,,,0,2,,,,,,,0,4,0,4,,,,,,,,,,,843.9594,844.4669,844.7077,847.2841,space,2.5673,,847.2842,76,54,848.276,848.2761,848.2922,,,,0,44,44,44,1,110,160,,,,,,,,
,,6135d819f5555fe9776deb7e,65af554d9e24a972e38d42b4,2024-01-23_07h01.47.832,bars,2023.2.3,Win32,60.00960154,657b66ea316d21385b68909f,,,,,,,,,,,848.2928,849.2839,,,849.7836,850.0334,,69,69,,,,,,,,,,,,,,,,bars/014.png,bars/mask006.png,,,,,,,,,,,,0,1,,,,,,,0,6,0,9,,,,,,,,,,,849.2839,849.7836,850.0334,852.3267,space,2.2738,,852.3267,11,69,853.3256,853.3258,853.3316,,,,0,45,45,45,1,80,0,,,,,,,,
,,6135d819f5555fe9776deb7e,65af554d9e24a972e38d42b4,2024-01-23_07h01.47.832,bars,2023.2.3,Win32,60.00960154,657b66ea316d21385b68909f,,,,,,,,,,,853.332,854.3321,,,854.826,855.0767,,16,196,,,,,,,,,,,,,,,,bars/024.png,bars/mask004.png,,,,,,,,,,,,0,2,,,,,,,2,4,2,3,,,,,,,,,,,854.3322,854.8259,855.0767,857.1817,space,2.0813,,857.1818,76,26,858.1772,858.1773,858.1959,,,,0,46,46,46,1,120,170,,,,,,,,
,,6135d819f5555fe9776deb7e,65af554d9e24a972e38d42b4,2024-01-23_07h01.47.832,bars,2023.2.3,Win32,60.00960154,657b66ea316d21385b68909f,,,,,,,,,,,858.1965,859.1926,,,859.6928,859.9421,,68,68,,,,,,,,,,,,,,,,bars/047.png,bars/mask002.png,,,,,,,,,,,,2,2,,,,,,,0,2,1,2,,,,,,,,,,,859.1926,859.6928,859.9423,862.4926,space,2.5338,,862.4927,53,2,863.491,863.4912,863.5105,,,,0,47,47,47,1,15,70,,,,,,,,
,,6135d819f5555fe9776deb7e,65af554d9e24a972e38d42b4,2024-01-23_07h01.47.832,bars,2023.2.3,Win32,60.00960154,657b66ea316d21385b68909f,,,,,,,,,,,863.5109,864.4989,,,864.9983,865.2433,,143,143,,,,,,,,,,,,,,,,bars/000.png,bars/mask006.png,,,,,,,,,,,,5,2,,,,,,,0,4,2,5,,,,,,,,,,,864.499,864.9982,865.2434,866.6272,space,1.3544,,866.6272,77,2,867.6273,867.6274,867.6287,,,,0,48,48,48,1,40,145,,,,,,,,
,,6135d819f5555fe9776deb7e,65af554d9e24a972e38d42b4,2024-01-23_07h01.47.832,bars,2023.2.3,Win32,60.00960154,657b66ea316d21385b68909f,,,,,,,,,,,867.6298,868.6247,,,869.1343,869.3761,,42,42,,,,,,,,,,,,,,,,bars/025.png,bars/mask008.png,,,,,,,,,,,,3,2,,,,,,,2,2,1,3,,,,,,,,,,,868.6249,869.1342,869.3762,871.5518,space,2.1523,,871.5519,63,2,872.5423,872.5425,872.5561,,,,0,49,49,49,1,105,40,,,,,,,,
,,6135d819f5555fe9776deb7e,65af554d9e24a972e38d42b4,2024-01-23_07h01.47.832,bars,2023.2.3,Win32,60.00960154,657b66ea316d21385b68909f,,,,,,,,,,,,,,,,,,,,,,,,,,,,,,,,,,,,,,,,,,,,,,,,,,,,,,,,,,,,,,,,,,,,,,,,,,,,,,,,,,,,,,,,,,,,,872.5563,932.5459,0,1,1,0,1,sequence_tables/blk016.csv
,,6135d819f5555fe9776deb7e,65af554d9e24a972e38d42b4,2024-01-23_07h01.47.832,bars,2023.2.3,Win32,60.00960154,657b66ea316d21385b68909f,,,,,,,,,,,944.9181,945.896,,,946.4007,946.6442,,60,60,,,,,,,,,,,,,,,,bars/013.png,bars/mask001.png,,,,,,,,,,,,5,1,,,,,,,10,2,10,0,,,,,,932.5589,944.8942,space,12.3237,,945.8961,946.4007,946.6445,949.6449,space,2.9736,,949.6452,15,50,950.6454,950.6454,950.6633,,,,0,0,0,0,1,75,10,,,,,,,,
,,6135d819f5555fe9776deb7e,65af554d9e24a972e38d42b4,2024-01-23_07h01.47.832,bars,2023.2.3,Win32,60.00960154,657b66ea316d21385b68909f,,,,,,,,,,,950.6638,951.6625,,,952.1519,952.3987,,118,118,,,,,,,,,,,,,,,,bars/028.png,bars/mask002.png,,,,,,,,,,,,1,2,,,,,,,10,0,10,1,,,,,,,,,,,951.6626,952.1518,952.3987,954.2536,space,1.8341,,954.2537,73,2,955.2435,955.2436,955.263,,,,0,1,1,1,1,45,120,,,,,,,,
,,6135d819f5555fe9776deb7e,65af554d9e24a972e38d42b4,2024-01-23_07h01.47.832,bars,2023.2.3,Win32,60.00960154,657b66ea316d21385b68909f,,,,,,,,,,,955.2636,956.2601,,,956.7534,957.0034,,67,67,,,,,,,,,,,,,,,,bars/010.png,bars/mask006.png,,,,,,,,,,,,0,2,,,,,,,8,2,8,0,,,,,,,,,,,956.2602,956.7533,957.0035,959.0961,space,2.0737,,959.0962,82,12,960.0963,960.0964,960.1092,,,,0,2,2,2,1,165,55,,,,,,,,
,,6135d819f5555fe9776deb7e,65af554d9e24a972e38d42b4,2024-01-23_07h01.47.832,bars,2023.2.3,Win32,60.00960154,657b66ea316d21385b68909f,,,,,,,,,,,960.1094,961.1131,,,961.6195,961.8625,,107,107,,,,,,,,,,,,,,,,bars/003.png,bars/mask003.png,,,,,,,,,,,,0,2,,,,,,,6,0,6,0,,,,,,,,,,,961.1132,961.6195,961.8626,964.5194,space,2.6329,,964.5195,82,33,965.5114,965.5117,965.5246,,,,0,3,3,3,1,25,140,,,,,,,,
,,6135d819f5555fe9776deb7e,65af554d9e24a972e38d42b4,2024-01-23_07h01.47.832,bars,2023.2.3,Win32,60.00960154,657b66ea316d21385b68909f,,,,,,,,,,,965.5253,966.5285,,,967.0291,967.2796,,20,20,,,,,,,,,,,,,,,,bars/040.png,bars/mask006.png,,,,,,,,,,,,0,2,,,,,,,8,0,8,0,,,,,,,,,,,966.5287,967.029,967.2798,968.6546,space,1.3517,,968.6546,60,15,969.6527,969.6527,969.6696,,,,0,4,4,4,1,140,5,,,,,,,,
,,6135d819f5555fe9776deb7e,65af554d9e24a972e38d42b4,2024-01-23_07h01.47.832,bars,2023.2.3,Win32,60.00960154,657b66ea316d21385b68909f,,,,,,,,,,,969.6702,970.6636,,,971.162,971.4117,,124,124,,,,,,,,,,,,,,,,bars/049.png,bars/mask006.png,,,,,,,,,,,,2,2,,,,,,,6,2,7,3,,,,,,,,,,,970.6636,971.1618,971.4119,979.3211,space,7.8867,,979.3212,36,9,980.3114,980.3117,980.3287,,,,0,5,5,5,1,160,115,,,,,,,,
,,6135d819f5555fe9776deb7e,65af554d9e24a972e38d42b4,2024-01-23_07h01.47.832,bars,2023.2.3,Win32,60.00960154,657b66ea316d21385b68909f,,,,,,,,,,,980.3295,981.3375,,,981.8317,982.0802,,39,39,,,,,,,,,,,,,,,,bars/008.png,bars/mask002.png,,,,,,,,,,,,0,2,,,,,,,8,4,6,3,,,,,,,,,,,981.3376,981.8316,982.0802,990.0964,space,7.9852,,990.0966,71,39,991.0964,991.0965,991.1154,,,,0,6,6,6,1,110,0,,,,,,,,
,,6135d819f5555fe9776deb7e,65af554d9e24a972e38d42b4,2024-01-23_07h01.47.832,bars,2023.2.3,Win32,60.00960154,657b66ea316d21385b68909f,,,,,,,,,,,991.1158,992.112,,,992.613,992.8674,,45,45,,,,,,,,,,,,,,,,bars/007.png,bars/mask008.png,,,,,,,,,,,,2,2,,,,,,,6,2,6,3,,,,,,,,,,,992.1121,992.613,992.8674,995.2658,space,2.378,,995.2658,50,10,996.262,996.2623,996.2757,,,,0,7,7,7,1,175,55,,,,,,,,
,,6135d819f5555fe9776deb7e,65af554d9e24a972e38d42b4,2024-01-23_07h01.47.832,bars,2023.2.3,Win32,60.00960154,657b66ea316d21385b68909f,,,,,,,,,,,996.2759,997.264,,,997.7621,998.0124,,96,96,,,,,,,,,,,,,,,,bars/023.png,bars/mask004.png,,,,,,,,,,,,0,2,,,,,,,8,0,8,0,,,,,,,,,,,997.2641,997.7618,998.0125,1002.5548,space,4.5173,,1002.5548,76,19,1003.5468,1003.5469,1003.564,,,,0,8,8,8,1,20,115,,,,,,,,
,,6135d819f5555fe9776deb7e,65af554d9e24a972e38d42b4,2024-01-23_07h01.47.832,bars,2023.2.3,Win32,60.00960154,657b66ea316d21385b68909f,,,,,,,,,,,1003.5648,1004.5701,,,1005.0615,1005.3124,,66,66,,,,,,,,,,,,,,,,bars/022.png,bars/mask003.png,,,,,,,,,,,,0,1,,,,,,,6,0,7,0,,,,,,,,,,,1004.5701,1005.0614,1005.3124,1009.7891,space,4.4683,,1009.7892,29,46,1010.779,1010.7791,1010.8009,,,,0,9,9,9,1,95,20,,,,,,,,
,,6135d819f5555fe9776deb7e,65af554d9e24a972e38d42b4,2024-01-23_07h01.47.832,bars,2023.2.3,Win32,60.00960154,657b66ea316d21385b68909f,,,,,,,,,,,1010.8017,1011.7973,,,1012.3018,1012.5467,,101,101,,,,,,,,,,,,,,,,bars/015.png,bars/mask004.png,,,,,,,,,,,,5,1,,,,,,,8,2,7,2,,,,,,,,,,,1011.7975,1012.3017,1012.547,1016.4807,space,3.9055,,1016.481,9,59,1017.4691,1017.4692,1017.486,,,,0,10,10,10,1,110,160,,,,,,,,
,,6135d819f5555fe9776deb7e,65af554d9e24a972e38d42b4,2024-01-23_07h01.47.832,bars,2023.2.3,Win32,60.00960154,657b66ea316d21385b68909f,,,,,,,,,,,1017.4866,1018.4806,,,1018.9803,1019.2295,,164,-16,,,,,,,,,,,,,,,,bars/036.png,bars/mask008.png,,,,,,,,,,,,2,1,,,,,,,6,4,6,3,,,,,,,,,,,1018.4806,1018.9802,1019.2298,1023.0466,space,3.8058,,1023.0467,19,36,1024.0463,1024.0464,1024.0608,,,,0,11,11,11,1,145,20,,,,,,,,
,,6135d819f5555fe9776deb7e,65af554d9e24a972e38d42b4,2024-01-23_07h01.47.832,bars,2023.2.3,Win32,60.00960154,657b66ea316d21385b68909f,,,,,,,,,,,1024.0615,1025.0636,,,1025.5631,1025.8132,,77,77,,,,,,,,,,,,,,,,bars/021.png,bars/mask000.png,,,,,,,,,,,,0,2,,,,,,,4,2,4,0,,,,,,,,,,,1025.0637,1025.5629,1025.8133,1030.0636,space,4.2355,,1030.0637,78,7,1031.0637,1031.0638,1031.0893,,,,0,12,12,12,1,155,70,,,,,,,,
,,6135d819f5555fe9776deb7e,65af554d9e24a972e38d42b4,2024-01-23_07h01.47.832,bars,2023.2.3,Win32,60.00960154,657b66ea316d21385b68909f,,,,,,,,,,,1031.0898,1032.0808,,,1032.5706,1032.8133,,7,187,,,,,,,,,,,,,,,,bars/012.png,bars/mask000.png,,,,,,,,,,,,3,2,,,,,,,2,4,2,4,,,,,,,,,,,1032.0808,1032.5705,1032.8135,1035.1826,space,2.3431,,1035.1827,83,8,1036.1882,1036.1883,1036.2065,,,,0,13,13,13,1,90,15,,,,,,,,
,,6135d819f5555fe9776deb7e,65af554d9e24a972e38d42b4,2024-01-23_07h01.47.832,bars,2023.2.3,Win32,60.00960154,657b66ea316d21385b68909f,,,,,,,,,,,1036.2068,1037.1977,,,1037.6962,1037.9462,,107,107,,,,,,,,,,,,,,,,bars/049.png,bars/mask004.png,,,,,,,,,,,,0,2,,,,,,,0,2,0,0,,,,,,,,,,,1037.1977,1037.6961,1037.9469,1041.2302,space,3.2654,,1041.2304,53,8,1042.2307,1042.2307,1042.247,,,,0,14,14,14,1,160,115,,,,,,,,
,,6135d819f5555fe9776deb7e,65af554d9e24a972e38d42b4,2024-01-23_07h01.47.832,bars,2023.2.3,Win32,60.00960154,657b66ea316d21385b68909f,,,,,,,,,,,1042.2473,1043.2478,,,1043.7464,1044.0051,,69,69,,,,,,,,,,,,,,,,bars/031.png,bars/mask004.png,,,,,,,,,,,,0,2,,,,,,,0,4,0,3,,,,,,,,,,,1043.248,1043.7461,1044.0051,1048.0145,space,3.9857,,1048.0151,51,34,1049.0127,1049.0128,1049.0318,,,,0,15,15,15,1,120,35,,,,,,,,
,,6135d819f5555fe9776deb7e,65af554d9e24a972e38d42b4,2024-01-23_07h01.47.832,bars,2023.2.3,Win32,60.00960154,657b66ea316d21385b68909f,,,,,,,,,,,1049.0322,1050.0299,,,1050.5308,1050.7726,,135,135,,,,,,,,,,,,,,,,bars/005.png,bars/mask002.png,,,,,,,,,,,,3,2,,,,,,,2,2,3,3,,,,,,,,,,,1050.0301,1050.5307,1050.7726,1054.04,space,3.2529,,1054.0401,55,5,1055.0308,1055.0309,1055.0479,,,,0,16,16,16,1,10,140,,,,,,,,
,,6135d819f5555fe9776deb7e,65af554d9e24a972e38d42b4,2024-01-23_07h01.47.832,bars,2023.2.3,Win32,60.00960154,657b66ea316d21385b68909f,,,,,,,,,,,1055.0488,1056.0482,,,1056.5478,1056.7967,,70,70,,,,,,,,,,,,,,,,bars/049.png,bars/mask006.png,,,,,,,,,,,,0,2,,,,,,,4,4,2,4,,,,,,,,,,,1056.0483,1056.5478,1056.7968,1059.1141,space,2.2984,,1059.1142,90,45,1060.1144,1060.1145,1060.1321,,,,0,17,17,17,1,160,115,,,,,,,,
,,6135d819f5555fe9776deb7e,65af554d9e24a972e38d42b4,2024-01-23_07h01.47.832,bars,2023.2.3,Win32,60.00960154,657b66ea316d21385b68909f,,,,,,,,,,,1060.1337,1061.131,,,1061.6303,1061.8808,,52,232,,,,,,,,,,,,,,,,bars/038.png,bars/mask000.png,,,,,,,,,,,,1,2,,,,,,,6,2,7,3,,,,,,,,,,,1061.1311,1061.6301,1061.8809,1065.8153,space,3.9171,,1065.8153,67,18,1066.8044,1066.8046,1066.8264,,,,0,18,18,18,1,165,70,,,,,,,,
,,6135d819f5555fe9776deb7e,65af554d9e24a972e38d42b4,2024-01-23_07h01.47.832,bars,2023.2.3,Win32,60.00960154,657b66ea316d21385b68909f,,,,,,,,,,,1066.8269,1067.8149,,,1068.3046,1068.5559,,163,-17,,,,,,,,,,,,,,,,bars/020.png,bars/mask002.png,,,,,,,,,,,,5,2,,,,,,,4,4,3,6,,,,,,,,,,,1067.815,1068.3046,1068.5559,1071.7731,space,3.2036,,1071.7731,48,7,1072.7649,1072.7649,1072.7828,,,,0,19,19,19,1,115,170,,,,,,,,
,,6135d819f5555fe9776deb7e,65af554d9e24a972e38d42b4,2024-01-23_07h01.47.832,bars,2023.2.3,Win32,60.00960154,657b66ea316d21385b68909f,,,,,,,,,,,1072.7833,1073.7805,,,1074.2826,1074.5324,,37,37,,,,,,,,,,,,,,,,bars/025.png,bars/mask004.png,,,,,,,,,,,,2,2,,,,,,,6,2,6,2,,,,,,,,,,,1073.7806,1074.2826,1074.5325,1076.2063,space,1.65,,1076.2064,68,3,1077.2029,1077.2029,1077.2037,,,,0,20,20,20,1,105,40,,,,,,,,
,,6135d819f5555fe9776deb7e,65af554d9e24a972e38d42b4,2024-01-23_07h01.47.832,bars,2023.2.3,Win32,60.00960154,657b66ea316d21385b68909f,,,,,,,,,,,1077.2043,1078.1986,,,1078.7032,1078.9567,,63,63,,,,,,,,,,,,,,,,bars/019.png,bars/mask009.png,,,,,,,,,,,,4,1,,,,,,,8,4,10,7,,,,,,,,,,,1078.1988,1078.7031,1078.9567,1081.1568,space,2.1937,,1081.1569,18,42,1082.1468,1082.1471,1082.1664,,,,0,21,21,21,1,45,105,,,,,,,,
,,6135d819f5555fe9776deb7e,65af554d9e24a972e38d42b4,2024-01-23_07h01.47.832,bars,2023.2.3,Win32,60.00960154,657b66ea316d21385b68909f,,,,,,,,,,,1082.1667,1083.1639,,,1083.666,1083.906,,26,26,,,,,,,,,,,,,,,,bars/040.png,bars/mask007.png,,,,,,,,,,,,2,2,,,,,,,10,6,10,6,,,,,,,,,,,1083.1641,1083.6659,1083.906,1085.1398,space,1.226,,1085.1398,66,21,1086.1316,1086.1317,1086.1554,,,,0,22,22,22,1,140,5,,,,,,,,
,,6135d819f5555fe9776deb7e,65af554d9e24a972e38d42b4,2024-01-23_07h01.47.832,bars,2023.2.3,Win32,60.00960154,657b66ea316d21385b68909f,,,,,,,,,,,1086.156,1087.1487,,,1087.6478,1087.8982,,165,165,,,,,,,,,,,,,,,,bars/000.png,bars/mask009.png,,,,,,,,,,,,1,2,,,,,,,8,4,8,3,,,,,,,,,,,1087.1487,1087.6476,1087.8982,1090.482,space,2.5704,,1090.482,55,20,1091.4813,1091.4815,1091.4979,,,,0,23,23,23,1,40,145,,,,,,,,
,,6135d819f5555fe9776deb7e,65af554d9e24a972e38d42b4,2024-01-23_07h01.47.832,bars,2023.2.3,Win32,60.00960154,657b66ea316d21385b68909f,,,,,,,,,,,1091.4982,1092.4978,,,1093.0065,1093.2487,,13,13,,,,,,,,,,,,,,,,bars/043.png,bars/mask001.png,,,,,,,,,,,,3,1,,,,,,,6,6,6,8,,,,,,,,,,,1092.4978,1093.0064,1093.2488,1096.021,space,2.748,,1096.021,17,63,1097.0158,1097.016,1097.0377,,,,0,24,24,24,1,30,130,,,,,,,,
,,6135d819f5555fe9776deb7e,65af554d9e24a972e38d42b4,2024-01-23_07h01.47.832,bars,2023.2.3,Win32,60.00960154,657b66ea316d21385b68909f,,,,,,,,,,,1097.0382,1098.0333,,,1098.5229,1098.7638,,83,83,,,,,,,,,,,,,,,,bars/011.png,bars/mask005.png,,,,,,,,,,,,7,2,,,,,,,4,8,5,8,,,,,,,,,,,1098.0333,1098.5228,1098.7639,1100.317,space,1.5257,,1100.3172,77,2,1101.3164,1101.3164,1101.3222,,,,0,25,25,25,1,160,85,,,,,,,,
,,6135d819f5555fe9776deb7e,65af554d9e24a972e38d42b4,2024-01-23_07h01.47.832,bars,2023.2.3,Win32,60.00960154,657b66ea316d21385b68909f,,,,,,,,,,,1101.3227,1102.3148,,,1102.8237,1103.0664,,169,-11,,,,,,,,,,,,,,,,bars/048.png,bars/mask004.png,,,,,,,,,,,,8,2,,,,,,,6,10,6,10,,,,,,,,,,,1102.315,1102.8237,1103.0665,1105.3743,space,2.2857,,1105.3744,61,6,1106.3664,1106.3665,1106.3844,,,,0,26,26,26,1,50,175,,,,,,,,
,,6135d819f5555fe9776deb7e,65af554d9e24a972e38d42b4,2024-01-23_07h01.47.832,bars,2023.2.3,Win32,60.00960154,657b66ea316d21385b68909f,,,,,,,,,,,1106.3846,1107.3808,,,1107.8735,1108.1241,,143,-37,,,,,,,,,,,,,,,,bars/043.png,bars/mask002.png,,,,,,,,,,,,4,2,,,,,,,4,8,2,7,,,,,,,,,,,1107.3811,1107.8735,1108.1241,1111.1496,space,3.0026,,1111.1498,67,13,1112.1492,1112.1496,1112.1699,,,,0,27,27,27,1,30,130,,,,,,,,
,,6135d819f5555fe9776deb7e,65af554d9e24a972e38d42b4,2024-01-23_07h01.47.832,bars,2023.2.3,Win32,60.00960154,657b66ea316d21385b68909f,,,,,,,,,,,1112.1706,1113.1659,,,1113.657,1113.9,,171,-9,,,,,,,,,,,,,,,,bars/008.png,bars/mask008.png,,,,,,,,,,,,7,2,,,,,,,6,10,8,10,,,,,,,,,,,1113.166,1113.6569,1113.9001,1116.6024,space,2.6796,,1116.6028,61,9,1117.5985,1117.5989,1117.612,,,,0,28,28,28,1,110,0,,,,,,,,
,,6135d819f5555fe9776deb7e,65af554d9e24a972e38d42b4,2024-01-23_07h01.47.832,bars,2023.2.3,Win32,60.00960154,657b66ea316d21385b68909f,,,,,,,,,,,1117.6123,1118.615,,,1119.1064,1119.3503,,162,162,,,,,,,,,,,,,,,,bars/014.png,bars/mask002.png,,,,,,,,,,,,4,2,,,,,,,8,10,7,10,,,,,,,,,,,1118.6152,1119.1064,1119.3504,1123.3078,space,3.9495,,1123.3078,82,18,1124.2983,1124.2986,1124.3135,,,,0,29,29,29,1,80,0,,,,,,,,
,,6135d819f5555fe9776deb7e,65af554d9e24a972e38d42b4,2024-01-23_07h01.47.832,bars,2023.2.3,Win32,60.00960154,657b66ea316d21385b68909f,,,,,,,,,,,1124.3138,1125.3067,,,1125.7982,1126.0482,,97,97,,,,,,,,,,,,,,,,bars/049.png,bars/mask007.png,,,,,,,,,,,,4,2,,,,,,,6,10,6,10,,,,,,,,,,,1125.3068,1125.7981,1126.0484,1128.1154,space,2.0389,,1128.1156,63,18,1129.116,1129.116,1129.13,,,,0,30,30,30,1,160,115,,,,,,,,
,,6135d819f5555fe9776deb7e,65af554d9e24a972e38d42b4,2024-01-23_07h01.47.832,bars,2023.2.3,Win32,60.00960154,657b66ea316d21385b68909f,,,,,,,,,,,1129.1303,1130.1407,,,1130.6313,1130.8838,,158,158,,,,,,,,,,,,,,,,bars/033.png,bars/mask009.png,,,,,,,,,,,,8,2,,,,,,,8,8,10,9,,,,,,,,,,,1130.1408,1130.631,1130.8842,1135.4577,space,4.5532,,1135.4577,47,3,1136.449,1136.449,1136.4675,,,,0,31,31,31,1,25,155,,,,,,,,
,,6135d819f5555fe9776deb7e,65af554d9e24a972e38d42b4,2024-01-23_07h01.47.832,bars,2023.2.3,Win32,60.00960154,657b66ea316d21385b68909f,,,,,,,,,,,1136.4682,1137.4736,,,1137.9744,1138.2172,,163,-17,,,,,,,,,,,,,,,,bars/048.png,bars/mask000.png,,,,,,,,,,,,4,2,,,,,,,10,6,10,6,,,,,,,,,,,1137.4736,1137.9744,1138.2173,1142.8085,space,4.5672,,1142.8086,67,12,1143.7999,1143.8,1143.8138,,,,0,32,32,32,1,50,175,,,,,,,,
,,6135d819f5555fe9776deb7e,65af554d9e24a972e38d42b4,2024-01-23_07h01.47.832,bars,2023.2.3,Win32,60.00960154,657b66ea316d21385b68909f,,,,,,,,,,,1143.814,1144.8221,,,1145.3168,1145.5723,,78,78,,,,,,,,,,,,,,,,bars/009.png,bars/mask000.png,,,,,,,,,,,,1,2,,,,,,,10,8,10,7,,,,,,,,,,,1144.8221,1145.3167,1145.5723,1147.384,space,1.7898,,1147.3843,63,27,1148.3823,1148.3825,1148.3844,,,,0,33,33,33,1,15,105,,,,,,,,
,,6135d819f5555fe9776deb7e,65af554d9e24a972e38d42b4,2024-01-23_07h01.47.832,bars,2023.2.3,Win32,60.00960154,657b66ea316d21385b68909f,,,,,,,,,,,1148.3854,1149.3837,,,1149.875,1150.117,,76,76,,,,,,,,,,,,,,,,bars/007.png,bars/mask001.png,,,,,,,,,,,,2,2,,,,,,,8,6,7,6,,,,,,,,,,,1149.3838,1149.8749,1150.1171,1151.7347,space,1.5885,,1151.7348,81,21,1152.7318,1152.732,1152.7457,,,,0,34,34,34,1,175,55,,,,,,,,
,,6135d819f5555fe9776deb7e,65af554d9e24a972e38d42b4,2024-01-23_07h01.47.832,bars,2023.2.3,Win32,60.00960154,657b66ea316d21385b68909f,,,,,,,,,,,1152.7463,1153.7347,,,1154.2319,1154.4748,,59,59,,,,,,,,,,,,,,,,bars/017.png,bars/mask004.png,,,,,,,,,,,,3,2,,,,,,,10,4,10,5,,,,,,,,,,,1153.7347,1154.2318,1154.4748,1158.9005,space,4.4082,,1158.9006,86,14,1159.8992,1159.8995,1159.9145,,,,0,35,35,35,1,145,45,,,,,,,,
,,6135d819f5555fe9776deb7e,65af554d9e24a972e38d42b4,2024-01-23_07h01.47.832,bars,2023.2.3,Win32,60.00960154,657b66ea316d21385b68909f,,,,,,,,,,,1159.9163,1160.9242,,,1161.4163,1161.668,,66,66,,,,,,,,,,,,,,,,bars/001.png,bars/mask004.png,,,,,,,,,,,,3,2,,,,,,,10,6,10,8,,,,,,,,,,,1160.9242,1161.4162,1161.668,1162.5203,space,0.831,,1162.5204,64,19,1163.5168,1163.517,1163.5191,,,,0,36,36,36,1,130,85,,,,,,,,
,,6135d819f5555fe9776deb7e,65af554d9e24a972e38d42b4,2024-01-23_07h01.47.832,bars,2023.2.3,Win32,60.00960154,657b66ea316d21385b68909f,,,,,,,,,,,1163.5198,1164.5251,,,1165.0178,1165.2678,,106,106,,,,,,,,,,,,,,,,bars/002.png,bars/mask002.png,,,,,,,,,,,,1,2,,,,,,,10,4,10,3,,,,,,,,,,,1164.5252,1165.0176,1165.2679,1168.3333,space,3.0367,,1168.3337,24,21,1169.3342,1169.3342,1169.352,,,,0,37,37,37,1,130,85,,,,,,,,
,,6135d819f5555fe9776deb7e,65af554d9e24a972e38d42b4,2024-01-23_07h01.47.832,bars,2023.2.3,Win32,60.00960154,657b66ea316d21385b68909f,,,,,,,,,,,1169.3534,1170.351,,,1170.8502,1171.1003,,73,73,,,,,,,,,,,,,,,,bars/038.png,bars/mask005.png,,,,,,,,,,,,3,2,,,,,,,8,2,7,3,,,,,,,,,,,1170.3511,1170.8499,1171.1004,1174.834,space,3.7158,,1174.8341,88,3,1175.8258,1175.8259,1175.8457,,,,0,38,38,38,1,165,70,,,,,,,,
,,6135d819f5555fe9776deb7e,65af554d9e24a972e38d42b4,2024-01-23_07h01.47.832,bars,2023.2.3,Win32,60.00960154,657b66ea316d21385b68909f,,,,,,,,,,,1175.8465,1176.8503,,,1177.351,1177.6012,,70,70,,,,,,,,,,,,,,,,bars/019.png,bars/mask006.png,,,,,,,,,,,,1,1,,,,,,,10,4,8,4,,,,,,,,,,,1176.8507,1177.3509,1177.6014,1180.0236,space,2.3982,,1180.0236,25,35,1181.0187,1181.0187,1181.0394,,,,0,39,39,39,1,45,105,,,,,,,,
,,6135d819f5555fe9776deb7e,65af554d9e24a972e38d42b4,2024-01-23_07h01.47.832,bars,2023.2.3,Win32,60.00960154,657b66ea316d21385b68909f,,,,,,,,,,,1181.0398,1182.034,,,1182.5343,1182.7831,,12,192,,,,,,,,,,,,,,,,bars/014.png,bars/mask007.png,,,,,,,,,,,,2,2,,,,,,,8,2,7,3,,,,,,,,,,,1182.0341,1182.5342,1182.7832,1188.2675,space,5.4706,,1188.2677,68,12,1189.2703,1189.2703,1189.2891,,,,0,40,40,40,1,80,0,,,,,,,,
,,6135d819f5555fe9776deb7e,65af554d9e24a972e38d42b4,2024-01-23_07h01.47.832,bars,2023.2.3,Win32,60.00960154,657b66ea316d21385b68909f,,,,,,,,,,,1189.2894,1190.2845,,,1190.7855,1191.0418,,75,75,,,,,,,,,,,,,,,,bars/029.png,bars/mask009.png,,,,,,,,,,,,3,1,,,,,,,6,4,6,4,,,,,,,,,,,1190.2846,1190.7854,1191.0419,1194.4406,space,3.3842,,1194.4406,15,30,1195.4344,1195.4344,1195.4553,,,,0,41,41,41,1,90,45,,,,,,,,
,,6135d819f5555fe9776deb7e,65af554d9e24a972e38d42b4,2024-01-23_07h01.47.832,bars,2023.2.3,Win32,60.00960154,657b66ea316d21385b68909f,,,,,,,,,,,1195.4559,1196.4569,,,1196.9594,1197.201,,114,114,,,,,,,,,,,,,,,,bars/045.png,bars/mask007.png,,,,,,,,,,,,3,1,,,,,,,4,6,5,5,,,,,,,,,,,1196.457,1196.9594,1197.2011,1200.7361,space,3.5032,,1200.7361,14,76,1201.7243,1201.7244,1201.7431,,,,0,42,42,42,1,100,10,,,,,,,,
,,6135d819f5555fe9776deb7e,65af554d9e24a972e38d42b4,2024-01-23_07h01.47.832,bars,2023.2.3,Win32,60.00960154,657b66ea316d21385b68909f,,,,,,,,,,,1201.7438,1202.7348,,,1203.2338,1203.4837,,58,58,,,,,,,,,,,,,,,,bars/007.png,bars/mask004.png,,,,,,,,,,,,3,2,,,,,,,2,4,1,3,,,,,,,,,,,1202.7348,1203.2336,1203.4839,1205.7002,space,2.2041,,1205.7003,63,3,1206.7019,1206.7021,1206.7075,,,,0,43,43,43,1,175,55,,,,,,,,
,,6135d819f5555fe9776deb7e,65af554d9e24a972e38d42b4,2024-01-23_07h01.47.832,bars,2023.2.3,Win32,60.00960154,657b66ea316d21385b68909f,,,,,,,,,,,1206.7079,1207.7018,,,1208.2025,1208.4527,,161,161,,,,,,,,,,,,,,,,bars/048.png,bars/mask005.png,,,,,,,,,,,,4,2,,,,,,,0,6,0,7,,,,,,,,,,,1207.7019,1208.202,1208.4527,1211.0769,space,2.6164,,1211.077,69,14,1212.068,1212.0681,1212.0875,,,,0,44,44,44,1,50,175,,,,,,,,
,,6135d819f5555fe9776deb7e,65af554d9e24a972e38d42b4,2024-01-23_07h01.47.832,bars,2023.2.3,Win32,60.00960154,657b66ea316d21385b68909f,,,,,,,,,,,1212.0882,1213.0847,,,1213.5758,1213.8182,,18,18,,,,,,,,,,,,,,,,bars/032.png,bars/mask000.png,,,,,,,,,,,,8,2,,,,,,,0,8,0,9,,,,,,,,,,,1213.0848,1213.5757,1213.8184,1215.5675,space,1.7185,,1215.5678,73,2,1216.5696,1216.5697,1216.5709,,,,0,45,45,45,1,125,20,,,,,,,,
,,6135d819f5555fe9776deb7e,65af554d9e24a972e38d42b4,2024-01-23_07h01.47.832,bars,2023.2.3,Win32,60.00960154,657b66ea316d21385b68909f,,,,,,,,,,,1216.5715,1217.5674,,,1218.0684,1218.3099,,60,60,,,,,,,,,,,,,,,,bars/038.png,bars/mask001.png,,,,,,,,,,,,5,2,,,,,,,0,6,0,7,,,,,,,,,,,1217.5675,1218.0684,1218.3099,1221.76,space,3.4346,,1221.7601,75,10,1222.7507,1222.7509,1222.7665,,,,0,46,46,46,1,165,70,,,,,,,,
,,6135d819f5555fe9776deb7e,65af554d9e24a972e38d42b4,2024-01-23_07h01.47.832,bars,2023.2.3,Win32,60.00960154,657b66ea316d21385b68909f,,,,,,,,,,,1222.768,1223.7674,,,1224.2687,1224.5264,,149,-31,,,,,,,,,,,,,,,,bars/035.png,bars/mask008.png,,,,,,,,,,,,0,1,,,,,,,2,8,3,7,,,,,,,,,,,1223.7676,1224.2685,1224.5265,1228.4921,space,3.951,,1228.4922,26,89,1229.4858,1229.4859,1229.5079,,,,0,47,47,47,1,175,60,,,,,,,,
,,6135d819f5555fe9776deb7e,65af554d9e24a972e38d42b4,2024-01-23_07h01.47.832,bars,2023.2.3,Win32,60.00960154,657b66ea316d21385b68909f,,,,,,,,,,,1229.5086,1230.5024,,,1231.0027,1231.2535,,7,187,,,,,,,,,,,,,,,,bars/024.png,bars/mask003.png,,,,,,,,,,,,2,2,,,,,,,0,6,0,5,,,,,,,,,,,1230.5024,1231.0026,1231.2536,1232.8763,space,1.5996,,1232.8763,67,17,1233.8711,1233.8713,1233.8906,,,,0,48,48,48,1,120,170,,,,,,,,
,,6135d819f5555fe9776deb7e,65af554d9e24a972e38d42b4,2024-01-23_07h01.47.832,bars,2023.2.3,Win32,60.00960154,657b66ea316d21385b68909f,,,,,,,,,,,1233.8912,1234.8839,,,1235.3868,1235.6368,,39,219,,,,,,,,,,,,,,,,bars/023.png,bars/mask006.png,,,,,,,,,,,,0,1,,,,,,,0,8,1,7,,,,,,,,,,,1234.8841,1235.3867,1235.6368,1239.4754,space,3.8153,,1239.4755,19,76,1240.4701,1240.4702,1240.4915,,,,0,49,49,49,1,20,115,,,,,,,,
,,6135d819f5555fe9776deb7e,65af554d9e24a972e38d42b4,2024-01-23_07h01.47.832,bars,2023.2.3,Win32,60.00960154,657b66ea316d21385b68909f,,,,,,,,,,,,,,,,,,,,,,,,,,,,,,,,,,,,,,,,,,,,,,,,,,,,,,,,,,,,,,,,,,,,,,,,,,,,,,,,,,,,,,,,,,,,,1240.4917,1300.4871,0,2,2,2,1,sequence_tables/blk013.csv
,,6135d819f5555fe9776deb7e,65af554d9e24a972e38d42b4,2024-01-23_07h01.47.832,bars,2023.2.3,Win32,60.00960154,657b66ea316d21385b68909f,,,,,,,,,,,1306.9312,1307.9206,,,1308.4193,1308.6595,,103,103,,,,,,,,,,,,,,,,bars/049.png,bars/mask001.png,,,,,,,,,,,,1,2,,,,,,,4,1,4,1,,,,,,1300.5036,1306.9051,space,6.3843,,1307.9207,1308.419,1308.6596,1311.9629,space,3.2848,,1311.963,57,12,1312.9545,1312.9547,1312.9774,,,,0,0,0,0,1,160,115,,,,,,,,
,,6135d819f5555fe9776deb7e,65af554d9e24a972e38d42b4,2024-01-23_07h01.47.832,bars,2023.2.3,Win32,60.00960154,657b66ea316d21385b68909f,,,,,,,,,,,1312.9782,1313.9707,,,1314.4711,1314.7195,,84,84,,,,,,,,,,,,,,,,bars/002.png,bars/mask000.png,,,,,,,,,,,,0,2,,,,,,,6,0,8,0,,,,,,,,,,,1313.9707,1314.471,1314.7198,1320.7377,space,6.0016,,1320.7379,46,1,1321.7379,1321.7379,1321.7551,,,,0,1,1,1,1,130,85,,,,,,,,
,,6135d819f5555fe9776deb7e,65af554d9e24a972e38d42b4,2024-01-23_07h01.47.832,bars,2023.2.3,Win32,60.00960154,657b66ea316d21385b68909f,,,,,,,,,,,1321.7553,1322.7599,,,1323.2544,1323.5068,,69,69,,,,,,,,,,,,,,,,bars/022.png,bars/mask006.png,,,,,,,,,,,,0,1,,,,,,,4,2,2,2,,,,,,,,,,,1322.7599,1323.2542,1323.5068,1327.2724,space,3.739,,1327.2725,26,49,1328.2721,1328.2724,1328.2913,,,,0,2,2,2,1,95,20,,,,,,,,
,,6135d819f5555fe9776deb7e,65af554d9e24a972e38d42b4,2024-01-23_07h01.47.832,bars,2023.2.3,Win32,60.00960154,657b66ea316d21385b68909f,,,,,,,,,,,1328.2917,1329.2893,,,1329.7889,1330.0368,,26,26,,,,,,,,,,,,,,,,bars/014.png,bars/mask002.png,,,,,,,,,,,,0,2,,,,,,,2,0,2,0,,,,,,,,,,,1329.2893,1329.7887,1330.0371,1333.1906,space,3.1294,,1333.1909,54,26,1334.1904,1334.1904,1334.2071,,,,0,3,3,3,1,80,0,,,,,,,,
,,6135d819f5555fe9776deb7e,65af554d9e24a972e38d42b4,2024-01-23_07h01.47.832,bars,2023.2.3,Win32,60.00960154,657b66ea316d21385b68909f,,,,,,,,,,,1334.2074,1335.205,,,1335.7038,1335.9544,,98,98,,,,,,,,,,,,,,,,bars/018.png,bars/mask007.png,,,,,,,,,,,,0,2,,,,,,,4,0,4,0,,,,,,,,,,,1335.2051,1335.7035,1335.9545,1338.021,space,2.0533,,1338.021,52,8,1339.0207,1339.0208,1339.0369,,,,0,4,4,4,1,150,90,,,,,,,,
,,6135d819f5555fe9776deb7e,65af554d9e24a972e38d42b4,2024-01-23_07h01.47.832,bars,2023.2.3,Win32,60.00960154,657b66ea316d21385b68909f,,,,,,,,,,,1339.0378,1340.0404,,,1340.5368,1340.7878,,152,152,,,,,,,,,,,,,,,,bars/000.png,bars/mask008.png,,,,,,,,,,,,1,2,,,,,,,2,2,3,1,,,,,,,,,,,1340.0405,1340.5367,1340.788,1343.094,space,2.2815,,1343.0941,68,7,1344.0964,1344.0964,1344.1134,,,,0,5,5,5,1,40,145,,,,,,,,
,,6135d819f5555fe9776deb7e,65af554d9e24a972e38d42b4,2024-01-23_07h01.47.832,bars,2023.2.3,Win32,60.00960154,657b66ea316d21385b68909f,,,,,,,,,,,1344.1138,1345.1048,,,1345.6038,1345.8541,,102,-78,,,,,,,,,,,,,,,,bars/018.png,bars/mask009.png,,,,,,,,,,,,2,2,,,,,,,0,4,1,3,,,,,,,,,,,1345.1049,1345.6035,1345.8544,1349.2386,space,3.3673,,1349.2387,48,12,1350.2385,1350.2386,1350.2548,,,,0,6,6,6,1,150,90,,,,,,,,
,,6135d819f5555fe9776deb7e,65af554d9e24a972e38d42b4,2024-01-23_07h01.47.832,bars,2023.2.3,Win32,60.00960154,657b66ea316d21385b68909f,,,,,,,,,,,1350.2554,1351.2561,,,1351.7619,1352.0073,,161,161,,,,,,,,,,,,,,,,bars/035.png,bars/mask002.png,,,,,,,,,,,,0,1,,,,,,,0,6,0,7,,,,,,,,,,,1351.2562,1351.7619,1352.0074,1357.4548,space,5.432,,1357.4551,14,79,1358.4551,1358.4553,1358.4713,,,,0,7,7,7,1,175,60,,,,,,,,
,,6135d819f5555fe9776deb7e,65af554d9e24a972e38d42b4,2024-01-23_07h01.47.832,bars,2023.2.3,Win32,60.00960154,657b66ea316d21385b68909f,,,,,,,,,,,1358.4724,1359.4728,,,1359.9707,1360.2229,,67,67,,,,,,,,,,,,,,,,bars/025.png,bars/mask005.png,,,,,,,,,,,,1,2,,,,,,,2,8,2,8,,,,,,,,,,,1359.4728,1359.9704,1360.223,1361.44,space,1.1886,,1361.44,38,27,1362.4301,1362.4302,1362.436,,,,0,8,8,8,1,105,40,,,,,,,,
,,6135d819f5555fe9776deb7e,65af554d9e24a972e38d42b4,2024-01-23_07h01.47.832,bars,2023.2.3,Win32,60.00960154,657b66ea316d21385b68909f,,,,,,,,,,,1362.4366,1363.4396,,,1363.9435,1364.1882,,36,36,,,,,,,,,,,,,,,,bars/045.png,bars/mask007.png,,,,,,,,,,,,1,2,,,,,,,4,6,4,7,,,,,,,,,,,1363.4396,1363.9433,1364.1886,1366.5557,space,2.3355,,1366.5558,64,26,1367.5457,1367.5458,1367.5615,,,,0,9,9,9,1,100,10,,,,,,,,
,,6135d819f5555fe9776deb7e,65af554d9e24a972e38d42b4,2024-01-23_07h01.47.832,bars,2023.2.3,Win32,60.00960154,657b66ea316d21385b68909f,,,,,,,,,,,1367.5619,1368.5638,,,1369.0758,1369.3136,,116,116,,,,,,,,,,,,,,,,bars/049.png,bars/mask008.png,,,,,,,,,,,,8,2,,,,,,,2,8,0,8,,,,,,,,,,,1368.5639,1369.0757,1369.3136,1370.9616,space,1.6339,,1370.9617,44,1,1371.9544,1371.9546,1371.9582,,,,0,10,10,10,1,160,115,,,,,,,,
,,6135d819f5555fe9776deb7e,65af554d9e24a972e38d42b4,2024-01-23_07h01.47.832,bars,2023.2.3,Win32,60.00960154,657b66ea316d21385b68909f,,,,,,,,,,,1371.9588,1372.9629,,,1373.4545,1373.7045,,150,150,,,,,,,,,,,,,,,,bars/048.png,bars/mask001.png,,,,,,,,,,,,1,2,,,,,,,4,10,4,8,,,,,,,,,,,1372.9629,1373.4543,1373.7046,1375.2977,space,1.5684,,1375.2977,80,25,1376.2882,1376.2883,1376.2891,,,,0,11,11,11,1,50,175,,,,,,,,
,,6135d819f5555fe9776deb7e,65af554d9e24a972e38d42b4,2024-01-23_07h01.47.832,bars,2023.2.3,Win32,60.00960154,657b66ea316d21385b68909f,,,,,,,,,,,1376.2898,1377.2879,,,1377.7888,1378.0396,,70,70,,,,,,,,,,,,,,,,bars/006.png,bars/mask009.png,,,,,,,,,,,,0,2,,,,,,,2,8,3,10,,,,,,,,,,,1377.288,1377.7887,1378.0396,1379.872,space,1.8167,,1379.872,35,30,1380.8716,1380.8718,1380.8736,,,,0,12,12,12,1,35,100,,,,,,,,
,,6135d819f5555fe9776deb7e,65af554d9e24a972e38d42b4,2024-01-23_07h01.47.832,bars,2023.2.3,Win32,60.00960154,657b66ea316d21385b68909f,,,,,,,,,,,1380.875,1381.8714,,,1382.3726,1382.6217,,75,75,,,,,,,,,,,,,,,,bars/035.png,bars/mask008.png,,,,,,,,,,,,5,2,,,,,,,0,10,0,9,,,,,,,,,,,1381.8716,1382.3725,1382.6217,1383.6392,space,1.0026,,1383.6393,80,15,1384.638,1384.6382,1384.64,,,,0,13,13,13,1,175,60,,,,,,,,
,,6135d819f5555fe9776deb7e,65af554d9e24a972e38d42b4,2024-01-23_07h01.47.832,bars,2023.2.3,Win32,60.00960154,657b66ea316d21385b68909f,,,,,,,,,,,1384.6415,1385.6381,,,1386.1382,1386.3883,,169,-11,,,,,,,,,,,,,,,,bars/033.png,bars/mask003.png,,,,,,,,,,,,5,2,,,,,,,2,10,1,10,,,,,,,,,,,1385.6383,1386.1381,1386.3885,1388.19,space,1.7816,,1388.1902,36,14,1389.1896,1389.1897,1389.2033,,,,0,14,14,14,1,25,155,,,,,,,,
,,6135d819f5555fe9776deb7e,65af554d9e24a972e38d42b4,2024-01-23_07h01.47.832,bars,2023.2.3,Win32,60.00960154,657b66ea316d21385b68909f,,,,,,,,,,,1389.2041,1390.2054,,,1390.7068,1390.9566,,109,109,,,,,,,,,,,,,,,,bars/028.png,bars/mask002.png,,,,,,,,,,,,4,2,,,,,,,0,8,0,6,,,,,,,,,,,1390.2055,1390.7066,1390.9568,1392.4146,space,1.4349,,1392.4146,64,11,1393.4055,1393.4056,1393.4176,,,,0,15,15,15,1,45,120,,,,,,,,
,,6135d819f5555fe9776deb7e,65af554d9e24a972e38d42b4,2024-01-23_07h01.47.832,bars,2023.2.3,Win32,60.00960154,657b66ea316d21385b68909f,,,,,,,,,,,1393.4182,1394.4228,,,1394.9129,1395.1561,,62,62,,,,,,,,,,,,,,,,bars/025.png,bars/mask001.png,,,,,,,,,,,,1,2,,,,,,,0,6,1,5,,,,,,,,,,,1394.4229,1394.9127,1395.1563,1396.7571,space,1.5776,,1396.7572,43,22,1397.7559,1397.7562,1397.7731,,,,0,16,16,16,1,105,40,,,,,,,,
,,6135d819f5555fe9776deb7e,65af554d9e24a972e38d42b4,2024-01-23_07h01.47.832,bars,2023.2.3,Win32,60.00960154,657b66ea316d21385b68909f,,,,,,,,,,,1397.7734,1398.7728,,,1399.2736,1399.5115,,107,107,,,,,,,,,,,,,,,,bars/039.png,bars/mask005.png,,,,,,,,,,,,7,2,,,,,,,0,8,0,8,,,,,,,,,,,1398.773,1399.2735,1399.5115,1402.4396,space,2.9078,,1402.4398,68,2,1403.4419,1403.442,1403.4589,,,,0,17,17,17,1,175,105,,,,,,,,
,,6135d819f5555fe9776deb7e,65af554d9e24a972e38d42b4,2024-01-23_07h01.47.832,bars,2023.2.3,Win32,60.00960154,657b66ea316d21385b68909f,,,,,,,,,,,1403.4591,1404.4478,,,1404.9389,1405.189,,72,72,,,,,,,,,,,,,,,,bars/026.png,bars/mask007.png,,,,,,,,,,,,6,2,,,,,,,0,10,0,10,,,,,,,,,,,1404.4478,1404.9387,1405.1893,1408.0733,space,2.855,,1408.0733,37,13,1409.0815,1409.0815,1409.0994,,,,0,18,18,18,1,35,85,,,,,,,,
,,6135d819f5555fe9776deb7e,65af554d9e24a972e38d42b4,2024-01-23_07h01.47.832,bars,2023.2.3,Win32,60.00960154,657b66ea316d21385b68909f,,,,,,,,,,,1409.1002,1410.0897,,,1410.5891,1410.8395,,169,-11,,,,,,,,,,,,,,,,bars/033.png,bars/mask007.png,,,,,,,,,,,,5,2,,,,,,,2,8,2,9,,,,,,,,,,,1410.0898,1410.589,1410.8396,1412.8068,space,1.9463,,1412.8069,36,14,1413.8064,1413.8064,1413.8206,,,,0,19,19,19,1,25,155,,,,,,,,
,,6135d819f5555fe9776deb7e,65af554d9e24a972e38d42b4,2024-01-23_07h01.47.832,bars,2023.2.3,Win32,60.00960154,657b66ea316d21385b68909f,,,,,,,,,,,1413.8213,1414.8231,,,1415.332,1415.5721,,33,33,,,,,,,,,,,,,,,,bars/027.png,bars/mask003.png,,,,,,,,,,,,3,2,,,,,,,4,6,4,7,,,,,,,,,,,1414.8232,1415.3319,1415.5723,1420.5564,space,4.9542,,1420.5565,77,17,1421.558,1421.558,1421.5731,,,,0,20,20,20,1,110,50,,,,,,,,
,,6135d819f5555fe9776deb7e,65af554d9e24a972e38d42b4,2024-01-23_07h01.47.832,bars,2023.2.3,Win32,60.00960154,657b66ea316d21385b68909f,,,,,,,,,,,1421.5738,1422.5646,,,1423.0579,1423.2988,,13,13,,,,,,,,,,,,,,,,bars/020.png,bars/mask007.png,,,,,,,,,,,,2,2,,,,,,,6,8,7,7,,,,,,,,,,,1422.5646,1423.0578,1423.2988,1428.4411,space,5.1238,,1428.4412,78,23,1429.4301,1429.4302,1429.4472,,,,0,21,21,21,1,115,170,,,,,,,,
,,6135d819f5555fe9776deb7e,65af554d9e24a972e38d42b4,2024-01-23_07h01.47.832,bars,2023.2.3,Win32,60.00960154,657b66ea316d21385b68909f,,,,,,,,,,,1429.4477,1430.4399,,,1430.9406,1431.1896,,169,169,,,,,,,,,,,,,,,,bars/016.png,bars/mask006.png,,,,,,,,,,,,9,2,,,,,,,4,10,5,10,,,,,,,,,,,1430.44,1430.9406,1431.1898,1432.5408,space,1.3331,,1432.5408,51,4,1433.5403,1433.5404,1433.5612,,,,0,22,22,22,1,40,165,,,,,,,,
,,6135d819f5555fe9776deb7e,65af554d9e24a972e38d42b4,2024-01-23_07h01.47.832,bars,2023.2.3,Win32,60.00960154,657b66ea316d21385b68909f,,,,,,,,,,,1433.5619,1434.5564,,,1435.0567,1435.3065,,107,107,,,,,,,,,,,,,,,,bars/004.png,bars/mask006.png,,,,,,,,,,,,4,2,,,,,,,6,8,7,9,,,,,,,,,,,1434.5565,1435.0564,1435.3066,1439.4735,space,4.1517,,1439.4735,82,18,1440.473,1440.4731,1440.4863,,,,0,23,23,23,1,25,125,,,,,,,,
,,6135d819f5555fe9776deb7e,65af554d9e24a972e38d42b4,2024-01-23_07h01.47.832,bars,2023.2.3,Win32,60.00960154,657b66ea316d21385b68909f,,,,,,,,,,,1440.4866,1441.4897,,,1441.9904,1442.2411,,169,169,,,,,,,,,,,,,,,,bars/033.png,bars/mask008.png,,,,,,,,,,,,5,2,,,,,,,8,10,9,10,,,,,,,,,,,1441.4899,1441.9903,1442.2411,1443.7739,space,1.513,,1443.774,36,14,1444.7735,1444.7735,1444.7749,,,,0,24,24,24,1,25,155,,,,,,,,
,,6135d819f5555fe9776deb7e,65af554d9e24a972e38d42b4,2024-01-23_07h01.47.832,bars,2023.2.3,Win32,60.00960154,657b66ea316d21385b68909f,,,,,,,,,,,1444.776,1445.7747,,,1446.2733,1446.5234,,55,55,,,,,,,,,,,,,,,,bars/034.png,bars/mask004.png,,,,,,,,,,,,6,2,,,,,,,10,8,10,9,,,,,,,,,,,1445.7747,1446.2731,1446.5236,1449.1075,space,2.5683,,1449.1076,70,10,1450.107,1450.1072,1450.1316,,,,0,25,25,25,1,125,65,,,,,,,,
,,6135d819f5555fe9776deb7e,65af554d9e24a972e38d42b4,2024-01-23_07h01.47.832,bars,2023.2.3,Win32,60.00960154,657b66ea316d21385b68909f,,,,,,,,,,,1450.1321,1451.1236,,,1451.6247,1451.8742,,103,103,,,,,,,,,,,,,,,,bars/049.png,bars/mask007.png,,,,,,,,,,,,6,2,,,,,,,10,10,10,10,,,,,,,,,,,1451.1237,1451.6246,1451.8744,1453.0574,space,1.1651,,1453.0574,57,12,1454.0561,1454.0564,1454.0581,,,,0,26,26,26,1,160,115,,,,,,,,
,,6135d819f5555fe9776deb7e,65af554d9e24a972e38d42b4,2024-01-23_07h01.47.832,bars,2023.2.3,Win32,60.00960154,657b66ea316d21385b68909f,,,,,,,,,,,1454.059,1455.0572,,,1455.5569,1455.808,,68,68,,,,,,,,,,,,,,,,bars/030.png,bars/mask002.png,,,,,,,,,,,,9,2,,,,,,,8,10,7,10,,,,,,,,,,,1455.0572,1455.5566,1455.808,1457.8575,space,2.0317,,1457.8576,72,3,1458.8566,1458.8569,1458.8588,,,,0,27,27,27,1,140,65,,,,,,,,
,,6135d819f5555fe9776deb7e,65af554d9e24a972e38d42b4,2024-01-23_07h01.47.832,bars,2023.2.3,Win32,60.00960154,657b66ea316d21385b68909f,,,,,,,,,,,1458.8601,1459.8565,,,1460.3578,1460.6077,,56,56,,,,,,,,,,,,,,,,bars/025.png,bars/mask003.png,,,,,,,,,,,,3,2,,,,,,,10,8,10,7,,,,,,,,,,,1459.8566,1460.3578,1460.6077,1462.774,space,2.1518,,1462.7741,49,16,1463.7753,1463.7754,1463.7938,,,,0,28,28,28,1,105,40,,,,,,,,
,,6135d819f5555fe9776deb7e,65af554d9e24a972e38d42b4,2024-01-23_07h01.47.832,bars,2023.2.3,Win32,60.00960154,657b66ea316d21385b68909f,,,,,,,,,,,1463.7943,1464.7924,,,1465.2828,1465.5246,,134,134,,,,,,,,,,,,,,,,bars/043.png,bars/mask008.png,,,,,,,,,,,,4,2,,,,,,,10,6,10,5,,,,,,,,,,,1464.7924,1465.2827,1465.5246,1468.7995,space,3.2503,,1468.7995,76,4,1469.7918,1469.7919,1469.8116,,,,0,29,29,29,1,30,130,,,,,,,,
,,6135d819f5555fe9776deb7e,65af554d9e24a972e38d42b4,2024-01-23_07h01.47.832,bars,2023.2.3,Win32,60.00960154,657b66ea316d21385b68909f,,,,,,,,,,,1469.8121,1470.8086,,,1471.3077,1471.5574,,112,-68,,,,,,,,,,,,,,,,bars/043.png,bars/mask009.png,,,,,,,,,,,,3,2,,,,,,,8,8,7,8,,,,,,,,,,,1470.8088,1471.3074,1471.5575,1475.4506,space,3.8676,,1475.4507,82,18,1476.4408,1476.441,1476.4608,,,,0,30,30,30,1,30,130,,,,,,,,
,,6135d819f5555fe9776deb7e,65af554d9e24a972e38d42b4,2024-01-23_07h01.47.832,bars,2023.2.3,Win32,60.00960154,657b66ea316d21385b68909f,,,,,,,,,,,1476.4615,1477.4577,,,1477.9598,1478.2066,,32,32,,,,,,,,,,,,,,,,bars/034.png,bars/mask008.png,,,,,,,,,,,,0,2,,,,,,,6,10,5,10,,,,,,,,,,,1477.4579,1477.9598,1478.2068,1480.2318,space,2.0153,,1480.2318,87,33,1481.2233,1481.2234,1481.2261,,,,0,31,31,31,1,125,65,,,,,,,,
,,6135d819f5555fe9776deb7e,65af554d9e24a972e38d42b4,2024-01-23_07h01.47.832,bars,2023.2.3,Win32,60.00960154,657b66ea316d21385b68909f,,,,,,,,,,,1481.2275,1482.2235,,,1482.7249,1482.9804,,57,57,,,,,,,,,,,,,,,,bars/025.png,bars/mask006.png,,,,,,,,,,,,4,2,,,,,,,4,10,4,10,,,,,,,,,,,1482.2238,1482.7247,1482.9804,1485.7644,space,2.7652,,1485.7644,48,17,1486.7662,1486.7663,1486.7845,,,,0,32,32,32,1,105,40,,,,,,,,
,,6135d819f5555fe9776deb7e,65af554d9e24a972e38d42b4,2024-01-23_07h01.47.832,bars,2023.2.3,Win32,60.00960154,657b66ea316d21385b68909f,,,,,,,,,,,1486.7851,1487.7767,,,1488.2743,1488.5243,,68,68,,,,,,,,,,,,,,,,bars/042.png,bars/mask009.png,,,,,,,,,,,,8,2,,,,,,,6,10,5,10,,,,,,,,,,,1487.7768,1488.274,1488.5245,1490.9839,space,2.4348,,1490.984,77,7,1491.9777,1491.9777,1491.9944,,,,0,33,33,33,1,145,75,,,,,,,,
,,6135d819f5555fe9776deb7e,65af554d9e24a972e38d42b4,2024-01-23_07h01.47.832,bars,2023.2.3,Win32,60.00960154,657b66ea316d21385b68909f,,,,,,,,,,,1491.9947,1492.9931,,,1493.4908,1493.7413,,162,162,,,,,,,,,,,,,,,,bars/048.png,bars/mask009.png,,,,,,,,,,,,6,2,,,,,,,4,10,3,10,,,,,,,,,,,1492.9932,1493.4904,1493.7415,1497.4926,space,3.7268,,1497.4928,68,13,1498.4828,1498.4829,1498.4989,,,,0,34,34,34,1,50,175,,,,,,,,
,,6135d819f5555fe9776deb7e,65af554d9e24a972e38d42b4,2024-01-23_07h01.47.832,bars,2023.2.3,Win32,60.00960154,657b66ea316d21385b68909f,,,,,,,,,,,1498.4992,1499.4932,,,1499.9924,1500.2333,,46,46,,,,,,,,,,,,,,,,bars/017.png,bars/mask004.png,,,,,,,,,,,,7,2,,,,,,,6,8,6,7,,,,,,,,,,,1499.4933,1499.9924,1500.2334,1502.701,space,2.4514,,1502.701,81,1,1503.6905,1503.6906,1503.6938,,,,0,35,35,35,1,145,45,,,,,,,,
,,6135d819f5555fe9776deb7e,65af554d9e24a972e38d42b4,2024-01-23_07h01.47.832,bars,2023.2.3,Win32,60.00960154,657b66ea316d21385b68909f,,,,,,,,,,,1503.6947,1504.6991,,,1505.1949,1505.4502,,91,91,,,,,,,,,,,,,,,,bars/019.png,bars/mask002.png,,,,,,,,,,,,5,2,,,,,,,8,10,9,10,,,,,,,,,,,1504.6992,1505.1947,1505.4502,1509.132,space,3.6661,,1509.1321,46,14,1510.1236,1510.1237,1510.1398,,,,0,36,36,36,1,45,105,,,,,,,,
,,6135d819f5555fe9776deb7e,65af554d9e24a972e38d42b4,2024-01-23_07h01.47.832,bars,2023.2.3,Win32,60.00960154,657b66ea316d21385b68909f,,,,,,,,,,,1510.1404,1511.1408,,,1511.6419,1511.8924,,163,-17,,,,,,,,,,,,,,,,bars/044.png,bars/mask001.png,,,,,,,,,,,,7,2,,,,,,,10,8,10,9,,,,,,,,,,,1511.141,1511.6418,1511.8925,1514.3681,space,2.4517,,1514.3681,88,8,1515.3599,1515.3602,1515.3787,,,,0,37,37,37,1,75,155,,,,,,,,
,,6135d819f5555fe9776deb7e,65af554d9e24a972e38d42b4,2024-01-23_07h01.47.832,bars,2023.2.3,Win32,60.00960154,657b66ea316d21385b68909f,,,,,,,,,,,1515.3792,1516.3772,,,1516.8764,1517.1171,,11,11,,,,,,,,,,,,,,,,bars/012.png,bars/mask001.png,,,,,,,,,,,,9,2,,,,,,,8,10,7,10,,,,,,,,,,,1516.3773,1516.8764,1517.1171,1520.5828,space,3.4495,,1520.5828,79,4,1521.5755,1521.5759,1521.5946,,,,0,38,38,38,1,90,15,,,,,,,,
,,6135d819f5555fe9776deb7e,65af554d9e24a972e38d42b4,2024-01-23_07h01.47.832,bars,2023.2.3,Win32,60.00960154,657b66ea316d21385b68909f,,,,,,,,,,,1521.5948,1522.5937,,,1523.1004,1523.344,,63,63,,,,,,,,,,,,,,,,bars/041.png,bars/mask000.png,,,,,,,,,,,,3,2,,,,,,,6,10,5,10,,,,,,,,,,,1522.5938,1523.1004,1523.3441,1524.4346,space,1.0675,,1524.4347,43,22,1525.4247,1525.425,1525.4276,,,,0,39,39,39,1,20,85,,,,,,,,
,,6135d819f5555fe9776deb7e,65af554d9e24a972e38d42b4,2024-01-23_07h01.47.832,bars,2023.2.3,Win32,60.00960154,657b66ea316d21385b68909f,,,,,,,,,,,1525.4285,1526.4262,,,1526.9348,1527.1754,,8,188,,,,,,,,,,,,,,,,bars/036.png,bars/mask000.png,,,,,,,,,,,,6,2,,,,,,,4,10,2,10,,,,,,,,,,,1526.4264,1526.9347,1527.1755,1530.935,space,3.7341,,1530.935,43,12,1531.9257,1531.9259,1531.9449,,,,0,40,40,40,1,145,20,,,,,,,,
,,6135d819f5555fe9776deb7e,65af554d9e24a972e38d42b4,2024-01-23_07h01.47.832,bars,2023.2.3,Win32,60.00960154,657b66ea316d21385b68909f,,,,,,,,,,,1531.9452,1532.9427,,,1533.4516,1533.6919,,23,23,,,,,,,,,,,,,,,,bars/016.png,bars/mask006.png,,,,,,,,,,,,2,1,,,,,,,6,10,5,10,,,,,,,,,,,1532.9428,1533.4515,1533.6921,1536.2352,space,2.5174,,1536.2353,17,38,1537.2316,1537.2317,1537.2515,,,,0,41,41,41,1,40,165,,,,,,,,
,,6135d819f5555fe9776deb7e,65af554d9e24a972e38d42b4,2024-01-23_07h01.47.832,bars,2023.2.3,Win32,60.00960154,657b66ea316d21385b68909f,,,,,,,,,,,1537.2521,1538.2432,,,1538.7429,1538.9928,,168,168,,,,,,,,,,,,,,,,bars/048.png,bars/mask000.png,,,,,,,,,,,,8,2,,,,,,,4,10,4,10,,,,,,,,,,,1538.2432,1538.7428,1538.993,1540.8765,space,1.8672,,1540.8766,62,7,1541.8756,1541.8758,1541.8831,,,,0,42,42,42,1,50,175,,,,,,,,
,,6135d819f5555fe9776deb7e,65af554d9e24a972e38d42b4,2024-01-23_07h01.47.832,bars,2023.2.3,Win32,60.00960154,657b66ea316d21385b68909f,,,,,,,,,,,1541.8838,1542.8766,,,1543.3756,1543.6263,,143,143,,,,,,,,,,,,,,,,bars/035.png,bars/mask000.png,,,,,,,,,,,,0,1,,,,,,,2,10,1,9,,,,,,,,,,,1542.8766,1543.3754,1543.6264,1545.0771,space,1.4291,,1545.0771,32,83,1546.0754,1546.0757,1546.0829,,,,0,43,43,43,1,175,60,,,,,,,,
,,6135d819f5555fe9776deb7e,65af554d9e24a972e38d42b4,2024-01-23_07h01.47.832,bars,2023.2.3,Win32,60.00960154,657b66ea316d21385b68909f,,,,,,,,,,,1546.0836,1547.0769,,,1547.5761,1547.8257,,13,13,,,,,,,,,,,,,,,,bars/004.png,bars/mask005.png,,,,,,,,,,,,0,1,,,,,,,0,8,0,6,,,,,,,,,,,1547.0771,1547.5757,1547.8258,1551.5096,space,3.6703,,1551.5097,12,68,1552.5094,1552.5094,1552.5271,,,,0,44,44,44,1,25,125,,,,,,,,
,,6135d819f5555fe9776deb7e,65af554d9e24a972e38d42b4,2024-01-23_07h01.47.832,bars,2023.2.3,Win32,60.00960154,657b66ea316d21385b68909f,,,,,,,,,,,1552.5276,1553.5277,,,1554.0317,1554.2793,,15,15,,,,,,,,,,,,,,,,bars/032.png,bars/mask005.png,,,,,,,,,,,,8,2,,,,,,,0,10,1,10,,,,,,,,,,,1553.5278,1554.0317,1554.2793,1555.378,space,1.0834,,1555.3781,70,5,1556.3754,1556.3757,1556.3986,,,,0,45,45,45,1,125,20,,,,,,,,
,,6135d819f5555fe9776deb7e,65af554d9e24a972e38d42b4,2024-01-23_07h01.47.832,bars,2023.2.3,Win32,60.00960154,657b66ea316d21385b68909f,,,,,,,,,,,1556.3991,1557.3935,,,1557.894,1558.1521,,136,136,,,,,,,,,,,,,,,,bars/004.png,bars/mask005.png,,,,,,,,,,,,6,2,,,,,,,2,10,2,10,,,,,,,,,,,1557.3937,1557.8932,1558.1521,1561.9612,space,3.7859,,1561.9614,69,11,1562.9614,1562.9615,1562.9809,,,,0,46,46,46,1,25,125,,,,,,,,
,,6135d819f5555fe9776deb7e,65af554d9e24a972e38d42b4,2024-01-23_07h01.47.832,bars,2023.2.3,Win32,60.00960154,657b66ea316d21385b68909f,,,,,,,,,,,1562.9814,1563.9768,,,1564.4778,1564.7274,,118,118,,,,,,,,,,,,,,,,bars/027.png,bars/mask002.png,,,,,,,,,,,,1,1,,,,,,,0,10,1,10,,,,,,,,,,,1563.9769,1564.4777,1564.7276,1567.3423,space,2.5899,,1567.3425,8,68,1568.3461,1568.3462,1568.3628,,,,0,47,47,47,1,110,50,,,,,,,,
,,6135d819f5555fe9776deb7e,65af554d9e24a972e38d42b4,2024-01-23_07h01.47.832,bars,2023.2.3,Win32,60.00960154,657b66ea316d21385b68909f,,,,,,,,,,,1568.3631,1569.3619,,,1569.8589,1570.109,,61,61,,,,,,,,,,,,,,,,bars/044.png,bars/mask003.png,,,,,,,,,,,,1,1,,,,,,,2,10,2,10,,,,,,,,,,,1569.362,1569.8588,1570.1093,1573.0304,space,2.9113,,1573.0304,14,86,1574.0262,1574.0264,1574.0407,,,,0,48,48,48,1,75,155,,,,,,,,
,,6135d819f5555fe9776deb7e,65af554d9e24a972e38d42b4,2024-01-23_07h01.47.832,bars,2023.2.3,Win32,60.00960154,657b66ea316d21385b68909f,,,,,,,,,,,1574.041,1575.0352,,,1575.5267,1575.7783,,121,121,,,,,,,,,,,,,,,,bars/045.png,bars/mask008.png,,,,,,,,,,,,0,1,,,,,,,0,10,0,8,,,,,,,,,,,1575.0352,1575.5265,1575.7784,1578.4021,space,2.6027,,1578.4022,21,69,1579.3926,1579.3929,1579.4092,,,,0,49,49,49,1,100,10,,,,,,,,
,,6135d819f5555fe9776deb7e,65af554d9e24a972e38d42b4,2024-01-23_07h01.47.832,bars,2023.2.3,Win32,60.00960154,657b66ea316d21385b68909f,,,,,,,,,,,,,,,,,,,,,,,,,,,,,,,,,,,,,,,,,,,,,,,,,,,,,,,,,,,,,,,,,,,,,,,,,,,,,,,,,,,,,,,,,,,,,1579.4094,1639.4121,0,3,3,3,1,sequence_tables/blk031.csv
,,6135d819f5555fe9776deb7e,65af554d9e24a972e38d42b4,2024-01-23_07h01.47.832,bars,2023.2.3,Win32,60.00960154,657b66ea316d21385b68909f,,,,,,,,,,,1642.9229,1643.9135,,,1644.4125,1644.662,,100,100,,,,,,,,,,,,,,,,bars/018.png,bars/mask003.png,,,,,,,,,,,,1,2,,,,,,,8,3,7,2,,,,,,1639.4267,1642.9132,space,3.4686,,1643.9136,1644.4125,1644.6622,1646.299,space,1.6184,,1646.2991,50,10,1647.2945,1647.2948,1647.3014,,,,0,0,0,0,1,150,90,,,,,,,,
,,6135d819f5555fe9776deb7e,65af554d9e24a972e38d42b4,2024-01-23_07h01.47.832,bars,2023.2.3,Win32,60.00960154,657b66ea316d21385b68909f,,,,,,,,,,,1647.302,1648.2951,,,1648.7947,1649.046,,110,110,,,,,,,,,,,,,,,,bars/006.png,bars/mask001.png,,,,,,,,,,,,3,2,,,,,,,6,5,6,4,,,,,,,,,,,1648.2951,1648.7945,1649.0461,1652.0125,space,2.9461,,1652.0126,75,10,1653.0127,1653.0128,1653.026,,,,0,1,1,1,1,35,100,,,,,,,,
,,6135d819f5555fe9776deb7e,65af554d9e24a972e38d42b4,2024-01-23_07h01.47.832,bars,2023.2.3,Win32,60.00960154,657b66ea316d21385b68909f,,,,,,,,,,,1653.0263,1654.0293,,,1654.5301,1654.78,,60,60,,,,,,,,,,,,,,,,bars/010.png,bars/mask007.png,,,,,,,,,,,,3,2,,,,,,,8,3,8,3,,,,,,,,,,,1654.0294,1654.53,1654.7802,1659.3159,space,4.5126,,1659.3159,75,5,1660.3123,1660.3125,1660.3255,,,,0,2,2,2,1,165,55,,,,,,,,
,,6135d819f5555fe9776deb7e,65af554d9e24a972e38d42b4,2024-01-23_07h01.47.832,bars,2023.2.3,Win32,60.00960154,657b66ea316d21385b68909f,,,,,,,,,,,1660.3259,1661.3297,,,1661.8302,1662.0878,,152,152,,,,,,,,,,,,,,,,bars/004.png,bars/mask009.png,,,,,,,,,,,,0,2,,,,,,,6,5,5,5,,,,,,,,,,,1661.3297,1661.83,1662.0878,1664.77,space,2.6666,,1664.77,53,27,1665.7619,1665.762,1665.7765,,,,0,3,3,3,1,25,125,,,,,,,,
,,6135d819f5555fe9776deb7e,65af554d9e24a972e38d42b4,2024-01-23_07h01.47.832,bars,2023.2.3,Win32,60.00960154,657b66ea316d21385b68909f,,,,,,,,,,,1665.7772,1666.7681,,,1667.262,1667.5116,,61,61,,,,,,,,,,,,,,,,bars/031.png,bars/mask006.png,,,,,,,,,,,,0,2,,,,,,,8,3,9,3,,,,,,,,,,,1666.7682,1667.2619,1667.5116,1669.2138,space,1.6902,,1669.2139,59,26,1670.2118,1670.212,1670.2272,,,,0,4,4,4,1,120,35,,,,,,,,
,,6135d819f5555fe9776deb7e,65af554d9e24a972e38d42b4,2024-01-23_07h01.47.832,bars,2023.2.3,Win32,60.00960154,657b66ea316d21385b68909f,,,,,,,,,,,1670.2282,1671.2196,,,1671.7117,1671.9624,,129,129,,,,,,,,,,,,,,,,bars/003.png,bars/mask003.png,,,,,,,,,,,,1,2,,,,,,,6,1,6,2,,,,,,,,,,,1671.2197,1671.7113,1671.9625,1672.72,space,0.7351,,1672.7201,76,11,1673.7134,1673.7135,1673.7158,,,,0,5,5,5,1,25,140,,,,,,,,
,,6135d819f5555fe9776deb7e,65af554d9e24a972e38d42b4,2024-01-23_07h01.47.832,bars,2023.2.3,Win32,60.00960154,657b66ea316d21385b68909f,,,,,,,,,,,1673.7171,1674.7117,,,1675.213,1675.4634,,133,133,,,,,,,,,,,,,,,,bars/044.png,bars/mask000.png,,,,,,,,,,,,1,2,,,,,,,4,3,3,3,,,,,,,,,,,1674.712,1675.2128,1675.4634,1678.8139,space,3.3362,,1678.8139,58,22,1679.8132,1679.8132,1679.8339,,,,0,6,6,6,1,75,155,,,,,,,,
,,6135d819f5555fe9776deb7e,65af554d9e24a972e38d42b4,2024-01-23_07h01.47.832,bars,2023.2.3,Win32,60.00960154,657b66ea316d21385b68909f,,,,,,,,,,,1679.8351,1680.8303,,,1681.3292,1681.5798,,72,72,,,,,,,,,,,,,,,,bars/027.png,bars/mask008.png,,,,,,,,,,,,0,2,,,,,,,6,1,7,1,,,,,,,,,,,1680.8304,1681.329,1681.5799,1685.513,space,3.9172,,1685.5131,38,22,1686.5127,1686.5129,1686.5328,,,,0,7,7,7,1,110,50,,,,,,,,
,,6135d819f5555fe9776deb7e,65af554d9e24a972e38d42b4,2024-01-23_07h01.47.832,bars,2023.2.3,Win32,60.00960154,657b66ea316d21385b68909f,,,,,,,,,,,1686.5343,1687.5297,,,1688.0295,1688.2808,,7,187,,,,,,,,,,,,,,,,bars/032.png,bars/mask003.png,,,,,,,,,,,,2,2,,,,,,,8,3,9,4,,,,,,,,,,,1687.5299,1688.0295,1688.2809,1691.3642,space,3.067,,1691.3644,62,13,1692.3627,1692.3627,1692.3847,,,,0,8,8,8,1,125,20,,,,,,,,
,,6135d819f5555fe9776deb7e,65af554d9e24a972e38d42b4,2024-01-23_07h01.47.832,bars,2023.2.3,Win32,60.00960154,657b66ea316d21385b68909f,,,,,,,,,,,1692.3858,1693.3806,,,1693.8803,1694.1296,,98,98,,,,,,,,,,,,,,,,bars/009.png,bars/mask005.png,,,,,,,,,,,,1,2,,,,,,,10,1,8,1,,,,,,,,,,,1693.3806,1693.8803,1694.1297,1699.5135,space,5.3696,,1699.5135,83,7,1700.5138,1700.5138,1700.5366,,,,0,9,9,9,1,15,105,,,,,,,,
,,6135d819f5555fe9776deb7e,65af554d9e24a972e38d42b4,2024-01-23_07h01.47.832,bars,2023.2.3,Win32,60.00960154,657b66ea316d21385b68909f,,,,,,,,,,,1700.5374,1701.5298,,,1702.0295,1702.2794,,159,-21,,,,,,,,,,,,,,,,bars/044.png,bars/mask007.png,,,,,,,,,,,,1,2,,,,,,,8,3,7,1,,,,,,,,,,,1701.5298,1702.0293,1702.2794,1705.8138,space,3.5198,,1705.8139,84,4,1706.8142,1706.8142,1706.8305,,,,0,10,10,10,1,75,155,,,,,,,,
,,6135d819f5555fe9776deb7e,65af554d9e24a972e38d42b4,2024-01-23_07h01.47.832,bars,2023.2.3,Win32,60.00960154,657b66ea316d21385b68909f,,,,,,,,,,,1706.8309,1707.8292,,,1708.3319,1708.5892,,72,72,,,,,,,,,,,,,,,,bars/041.png,bars/mask000.png,,,,,,,,,,,,1,2,,,,,,,10,1,8,2,,,,,,,,,,,1707.8294,1708.3319,1708.5893,1711.3487,space,2.7319,,1711.3488,52,13,1712.347,1712.347,1712.3665,,,,0,11,11,11,1,20,85,,,,,,,,
,,6135d819f5555fe9776deb7e,65af554d9e24a972e38d42b4,2024-01-23_07h01.47.832,bars,2023.2.3,Win32,60.00960154,657b66ea316d21385b68909f,,,,,,,,,,,1712.3672,1713.363,,,1713.8649,1714.1125,,115,115,,,,,,,,,,,,,,,,bars/015.png,bars/mask002.png,,,,,,,,,,,,8,1,,,,,,,10,0,10,0,,,,,,,,,,,1713.3633,1713.8649,1714.1126,1716.3966,space,2.2681,,1716.3968,5,45,1717.3981,1717.3983,1717.4049,,,,0,12,12,12,1,110,160,,,,,,,,
