init_variables.started,init_variables.stopped,participant,session,date,expName,psychopyVersion,OS,frameRate,study_id,instruction_exp.started,instruction_exp.stopped,key_resp_8.keys,key_resp_8.rt,key_resp_8.duration,instruction_single.started,instruction_single.stopped,key_resp_2.keys,key_resp_2.rt,key_resp_2.duration,interval.started,interval.stopped,cue_single.started,cue_single.stopped,mask.started,mask.stopped,ori_response_single.started,res_ori,res,ori_response_single.stopped,key_resp_single.keys,key_resp_single.rt,key_resp_single.duration,disp_single.started,disp_single.stopped,key_resp.keys,key_resp.rt,key_resp.duration,single.thisRepN,single.thisTrialN,single.thisN,single.thisIndex,single.ran,ori,path,mask_path,instruction_bandit.started,instruction_bandit.stopped,key_resp_6.keys,key_resp_6.rt,key_resp_6.duration,cue_bandit.started,cue_bandit.stopped,bandit_res.keys,bandit_res.rt,bandit_res.duration,outcome_bandit.started,rew,action,outcome_bandit.stopped,bandit.thisRepN,bandit.thisTrialN,bandit.thisN,bandit.thisIndex,bandit.ran,actual_rew1,actual_rew2,rew1,rew2,instruction_task.started,instruction_task.stopped,key_resp_7.keys,key_resp_7.rt,key_resp_7.duration,wait_ready.started,wait_ready.stopped,key_resp_3.keys,key_resp_3.rt,key_resp_3.duration,cue.started,cue.stopped,ori_response.started,ori_response.stopped,key_resp_5.keys,key_resp_5.rt,key_resp_5.duration,outcome.started,diff1,diff2,outcome.stopped,disp_outcome_practice.started,disp_outcome_practice.stopped,key_resp_4.keys,key_resp_4.rt,key_resp_4.duration,trials.thisRepN,trials.thisTrialN,trials.thisN,trials.thisIndex,trials.ran,ori1,ori2,break_blk.started,break_blk.stopped,block.thisRepN,block.thisTrialN,block.thisN,block.thisIndex,block.ran,condition_file
0.0004,0.0005,6594e0c8679c1dee303c33b8,65af5804cbfd19b26dc0c460,2024-01-23_07h09.25.487,bars,2023.2.3,MacIntel,59.88023952,657b66ea316d21385b68909f,,,,,,,,,,,,,,,,,,,,,,,,,,,,,,,,,,,,,,,,,,,,,,,,,,,,,,,,,,,,,,,,,,,,,,,,,,,,,,,,,,,,,,,,,,,,,,,,,,,,
,,6594e0c8679c1dee303c33b8,65af5804cbfd19b26dc0c460,2024-01-23_07h09.25.487,bars,2023.2.3,MacIntel,59.88023952,657b66ea316d21385b68909f,0.0007,431.0886,y,431.0626,,,,,,,,,,,,,,,,,,,,,,,,,,,,,,,,,,,,,,,,,,,,,,,,,,,,,,,,,,,,,,,,,,,,,,,,,,,,,,,,,,,,,,,,,,,,,,,,
,,6594e0c8679c1dee303c33b8,65af5804cbfd19b26dc0c460,2024-01-23_07h09.25.487,bars,2023.2.3,MacIntel,59.88023952,657b66ea316d21385b68909f,,,,,,431.0889,443.5795,space,12.4789,,,,,,,,,,,,,,,,,,,,,,,,,,,,,,,,,,,,,,,,,,,,,,,,,,,,,,,,,,,,,,,,,,,,,,,,,,,,,,,,,,,,,,,,,,,
,,6594e0c8679c1dee303c33b8,65af5804cbfd19b26dc0c460,2024-01-23_07h09.25.487,bars,2023.2.3,MacIntel,59.88023952,657b66ea316d21385b68909f,,,,,,,,,,,443.585,444.5832,444.5833,445.0823,445.0824,445.3326,445.3327,26,206,458.5757,space,13.2208,,458.576,463.5035,space,4.8963,,0,0,0,3,1,20,bars/single003.png,bars/mask005.png,,,,,,,,,,,,,,,,,,,,,,,,,,,,,,,,,,,,,,,,,,,,,,,,,,,,,,,,,,,,,,,,
,,6594e0c8679c1dee303c33b8,65af5804cbfd19b26dc0c460,2024-01-23_07h09.25.487,bars,2023.2.3,MacIntel,59.88023952,657b66ea316d21385b68909f,,,,,,,,,,,463.5127,464.5036,464.5037,465.0046,465.0046,465.2549,465.2549,129,129,470.1158,space,4.849,,470.1159,472.5363,space,2.4007,,0,1,1,8,1,160,bars/single008.png,bars/mask004.png,,,,,,,,,,,,,,,,,,,,,,,,,,,,,,,,,,,,,,,,,,,,,,,,,,,,,,,,,,,,,,,,
,,6594e0c8679c1dee303c33b8,65af5804cbfd19b26dc0c460,2024-01-23_07h09.25.487,bars,2023.2.3,MacIntel,59.88023952,657b66ea316d21385b68909f,,,,,,,,,,,472.5366,473.5378,473.5378,474.0389,474.0389,474.2896,474.2897,29,209,479.5167,space,5.2048,,479.5167,481.3534,space,1.8168,,0,2,2,1,1,20,bars/single001.png,bars/mask006.png,,,,,,,,,,,,,,,,,,,,,,,,,,,,,,,,,,,,,,,,,,,,,,,,,,,,,,,,,,,,,,,,
,,6594e0c8679c1dee303c33b8,65af5804cbfd19b26dc0c460,2024-01-23_07h09.25.487,bars,2023.2.3,MacIntel,59.88023952,657b66ea316d21385b68909f,,,,,,,,,,,481.3536,482.3563,482.3563,482.8563,482.8563,483.1082,483.1082,117,117,484.4266,space,1.3084,,484.4266,485.8638,space,1.4232,,0,3,3,2,1,145,bars/single002.png,bars/mask003.png,,,,,,,,,,,,,,,,,,,,,,,,,,,,,,,,,,,,,,,,,,,,,,,,,,,,,,,,,,,,,,,,
,,6594e0c8679c1dee303c33b8,65af5804cbfd19b26dc0c460,2024-01-23_07h09.25.487,bars,2023.2.3,MacIntel,59.88023952,657b66ea316d21385b68909f,,,,,,,,,,,485.8642,486.8645,486.8645,487.3656,487.3657,487.6158,487.6158,79,79,491.8239,space,4.1869,,491.8239,494.13,space,2.2795,,0,4,4,5,1,55,bars/single005.png,bars/mask008.png,,,,,,,,,,,,,,,,,,,,,,,,,,,,,,,,,,,,,,,,,,,,,,,,,,,,,,,,,,,,,,,,
,,6594e0c8679c1dee303c33b8,65af5804cbfd19b26dc0c460,2024-01-23_07h09.25.487,bars,2023.2.3,MacIntel,59.88023952,657b66ea316d21385b68909f,,,,,,,,,,,494.1304,495.1308,495.1308,495.6317,495.6317,495.8818,495.8819,91,91,506.4695,space,10.5659,,506.4696,508.3569,space,1.8655,,0,5,5,4,1,95,bars/single004.png,bars/mask004.png,,,,,,,,,,,,,,,,,,,,,,,,,,,,,,,,,,,,,,,,,,,,,,,,,,,,,,,,,,,,,,,,
,,6594e0c8679c1dee303c33b8,65af5804cbfd19b26dc0c460,2024-01-23_07h09.25.487,bars,2023.2.3,MacIntel,59.88023952,657b66ea316d21385b68909f,,,,,,,,,,,508.3572,509.3606,509.3606,509.8595,509.8595,510.111,510.1111,179,179,520.3653,space,10.2397,,520.3654,521.967,space,1.5817,,0,6,6,6,1,175,bars/single006.png,bars/mask005.png,,,,,,,,,,,,,,,,,,,,,,,,,,,,,,,,,,,,,,,,,,,,,,,,,,,,,,,,,,,,,,,,
,,6594e0c8679c1dee303c33b8,65af5804cbfd19b26dc0c460,2024-01-23_07h09.25.487,bars,2023.2.3,MacIntel,59.88023952,657b66ea316d21385b68909f,,,,,,,,,,,521.9673,522.9696,522.9696,523.47,523.47,523.7202,523.7202,46,46,531.1191,space,7.381,,531.1191,533.9752,space,2.8353,,0,7,7,7,1,45,bars/single007.png,bars/mask009.png,,,,,,,,,,,,,,,,,,,,,,,,,,,,,,,,,,,,,,,,,,,,,,,,,,,,,,,,,,,,,,,,
,,6594e0c8679c1dee303c33b8,65af5804cbfd19b26dc0c460,2024-01-23_07h09.25.487,bars,2023.2.3,MacIntel,59.88023952,657b66ea316d21385b68909f,,,,,,,,,,,533.9756,534.9755,534.9756,535.4767,535.4767,535.7275,535.7275,128,128,546.2497,space,10.5006,,546.2497,551.5922,space,5.3231,,0,8,8,0,1,150,bars/single000.png,bars/mask006.png,,,,,,,,,,,,,,,,,,,,,,,,,,,,,,,,,,,,,,,,,,,,,,,,,,,,,,,,,,,,,,,,
,,6594e0c8679c1dee303c33b8,65af5804cbfd19b26dc0c460,2024-01-23_07h09.25.487,bars,2023.2.3,MacIntel,59.88023952,657b66ea316d21385b68909f,,,,,,,,,,,551.6012,552.5938,552.5938,553.098,553.098,553.3469,553.347,18,18,556.1354,space,2.774,,556.1354,557.5208,space,1.366,,0,9,9,9,1,20,bars/single009.png,bars/mask006.png,,,,,,,,,,,,,,,,,,,,,,,,,,,,,,,,,,,,,,,,,,,,,,,,,,,,,,,,,,,,,,,,
,,6594e0c8679c1dee303c33b8,65af5804cbfd19b26dc0c460,2024-01-23_07h09.25.487,bars,2023.2.3,MacIntel,59.88023952,657b66ea316d21385b68909f,,,,,,,,,,,,,,,,,,,,,,,,,,,,,,,,,,,,,557.5215,567.0241,space,9.4784,,,,,,,,,,,,,,,,,,,,,,,,,,,,,,,,,,,,,,,,,,,,,,,,,,,,,,,,,,,,
,,6594e0c8679c1dee303c33b8,65af5804cbfd19b26dc0c460,2024-01-23_07h09.25.487,bars,2023.2.3,MacIntel,59.88023952,657b66ea316d21385b68909f,,,,,,,,,,,,,,,,,,,,,,,,,,,,,,,,,,,,,,,,,,567.035,568.1593,left,1.1016,,568.1593,9,1,569.1602,0,0,0,0,1,9,1,9,2,,,,,,,,,,,,,,,,,,,,,,,,,,,,,,,,,,,,,,,,,
,,6594e0c8679c1dee303c33b8,65af5804cbfd19b26dc0c460,2024-01-23_07h09.25.487,bars,2023.2.3,MacIntel,59.88023952,657b66ea316d21385b68909f,,,,,,,,,,,,,,,,,,,,,,,,,,,,,,,,,,,,,,,,,,569.1605,569.6289,left,0.4539,,569.629,10,1,570.6296,0,1,1,1,1,10,0,10,1,,,,,,,,,,,,,,,,,,,,,,,,,,,,,,,,,,,,,,,,,
,,6594e0c8679c1dee303c33b8,65af5804cbfd19b26dc0c460,2024-01-23_07h09.25.487,bars,2023.2.3,MacIntel,59.88023952,657b66ea316d21385b68909f,,,,,,,,,,,,,,,,,,,,,,,,,,,,,,,,,,,,,,,,,,570.6299,571.0993,left,0.4459,,571.0993,10,1,572.0991,0,2,2,2,1,10,2,10,2,,,,,,,,,,,,,,,,,,,,,,,,,,,,,,,,,,,,,,,,,
,,6594e0c8679c1dee303c33b8,65af5804cbfd19b26dc0c460,2024-01-23_07h09.25.487,bars,2023.2.3,MacIntel,59.88023952,657b66ea316d21385b68909f,,,,,,,,,,,,,,,,,,,,,,,,,,,,,,,,,,,,,,,,,,572.0995,572.5005,left,0.3819,,572.5005,7,1,573.5021,0,3,3,3,1,8,4,7,3,,,,,,,,,,,,,,,,,,,,,,,,,,,,,,,,,,,,,,,,,
,,6594e0c8679c1dee303c33b8,65af5804cbfd19b26dc0c460,2024-01-23_07h09.25.487,bars,2023.2.3,MacIntel,59.88023952,657b66ea316d21385b68909f,,,,,,,,,,,,,,,,,,,,,,,,,,,,,,,,,,,,,,,,,,573.5023,574.07,left,0.5508,,574.0701,5,1,575.0717,0,4,4,4,1,6,2,5,1,,,,,,,,,,,,,,,,,,,,,,,,,,,,,,,,,,,,,,,,,
,,6594e0c8679c1dee303c33b8,65af5804cbfd19b26dc0c460,2024-01-23_07h09.25.487,bars,2023.2.3,MacIntel,59.88023952,657b66ea316d21385b68909f,,,,,,,,,,,,,,,,,,,,,,,,,,,,,,,,,,,,,,,,,,575.0721,575.3388,right,0.2451,,575.339,4,2,576.3408,0,5,5,5,1,4,4,4,4,,,,,,,,,,,,,,,,,,,,,,,,,,,,,,,,,,,,,,,,,
,,6594e0c8679c1dee303c33b8,65af5804cbfd19b26dc0c460,2024-01-23_07h09.25.487,bars,2023.2.3,MacIntel,59.88023952,657b66ea316d21385b68909f,,,,,,,,,,,,,,,,,,,,,,,,,,,,,,,,,,,,,,,,,,576.3411,576.8593,left,0.4958,,576.8594,1,1,577.8606,0,6,6,6,1,2,2,1,2,,,,,,,,,,,,,,,,,,,,,,,,,,,,,,,,,,,,,,,,,
,,6594e0c8679c1dee303c33b8,65af5804cbfd19b26dc0c460,2024-01-23_07h09.25.487,bars,2023.2.3,MacIntel,59.88023952,657b66ea316d21385b68909f,,,,,,,,,,,,,,,,,,,,,,,,,,,,,,,,,,,,,,,,,,577.861,578.0111,right,0.1302,,578.0112,1,2,579.013,0,7,7,7,1,0,0,0,1,,,,,,,,,,,,,,,,,,,,,,,,,,,,,,,,,,,,,,,,,
,,6594e0c8679c1dee303c33b8,65af5804cbfd19b26dc0c460,2024-01-23_07h09.25.487,bars,2023.2.3,MacIntel,59.88023952,657b66ea316d21385b68909f,,,,,,,,,,,,,,,,,,,,,,,,,,,,,,,,,,,,,,,,,,579.0133,579.649,right,0.6195,,579.649,0,2,580.6509,0,8,8,8,1,0,2,1,0,,,,,,,,,,,,,,,,,,,,,,,,,,,,,,,,,,,,,,,,,
,,6594e0c8679c1dee303c33b8,65af5804cbfd19b26dc0c460,2024-01-23_07h09.25.487,bars,2023.2.3,MacIntel,59.88023952,657b66ea316d21385b68909f,,,,,,,,,,,,,,,,,,,,,,,,,,,,,,,,,,,,,,,,,,580.6513,580.7998,left,0.1332,,580.7998,2,1,581.8019,0,9,9,9,1,2,4,2,3,,,,,,,,,,,,,,,,,,,,,,,,,,,,,,,,,,,,,,,,,
,,6594e0c8679c1dee303c33b8,65af5804cbfd19b26dc0c460,2024-01-23_07h09.25.487,bars,2023.2.3,MacIntel,59.88023952,657b66ea316d21385b68909f,,,,,,,,,,,,,,,,,,,,,,,,,,,,,,,,,,,,,,,,,,581.8023,582.9213,left,1.0954,,582.9213,0,1,583.9231,0,10,10,10,1,0,2,0,3,,,,,,,,,,,,,,,,,,,,,,,,,,,,,,,,,,,,,,,,,
,,6594e0c8679c1dee303c33b8,65af5804cbfd19b26dc0c460,2024-01-23_07h09.25.487,bars,2023.2.3,MacIntel,59.88023952,657b66ea316d21385b68909f,,,,,,,,,,,,,,,,,,,,,,,,,,,,,,,,,,,,,,,,,,583.9234,584.191,right,0.2468,,584.191,3,2,585.1928,0,11,11,11,1,0,4,0,3,,,,,,,,,,,,,,,,,,,,,,,,,,,,,,,,,,,,,,,,,
,,6594e0c8679c1dee303c33b8,65af5804cbfd19b26dc0c460,2024-01-23_07h09.25.487,bars,2023.2.3,MacIntel,59.88023952,657b66ea316d21385b68909f,,,,,,,,,,,,,,,,,,,,,,,,,,,,,,,,,,,,,,,,,,585.1932,585.7761,right,0.5631,,585.7761,6,2,586.7778,0,12,12,12,1,2,6,1,6,,,,,,,,,,,,,,,,,,,,,,,,,,,,,,,,,,,,,,,,,
,,6594e0c8679c1dee303c33b8,65af5804cbfd19b26dc0c460,2024-01-23_07h09.25.487,bars,2023.2.3,MacIntel,59.88023952,657b66ea316d21385b68909f,,,,,,,,,,,,,,,,,,,,,,,,,,,,,,,,,,,,,,,,,,586.778,587.0457,right,0.2529,,587.0457,3,2,588.0474,0,13,13,13,1,0,4,1,3,,,,,,,,,,,,,,,,,,,,,,,,,,,,,,,,,,,,,,,,,
,,6594e0c8679c1dee303c33b8,65af5804cbfd19b26dc0c460,2024-01-23_07h09.25.487,bars,2023.2.3,MacIntel,59.88023952,657b66ea316d21385b68909f,,,,,,,,,,,,,,,,,,,,,,,,,,,,,,,,,,,,,,,,,,588.0477,588.3648,left,0.2956,,588.365,2,1,589.3662,0,14,14,14,1,2,6,2,7,,,,,,,,,,,,,,,,,,,,,,,,,,,,,,,,,,,,,,,,,
,,6594e0c8679c1dee303c33b8,65af5804cbfd19b26dc0c460,2024-01-23_07h09.25.487,bars,2023.2.3,MacIntel,59.88023952,657b66ea316d21385b68909f,,,,,,,,,,,,,,,,,,,,,,,,,,,,,,,,,,,,,,,,,,589.3665,589.7357,right,0.3565,,589.7359,9,2,590.7366,0,15,15,15,1,4,8,3,9,,,,,,,,,,,,,,,,,,,,,,,,,,,,,,,,,,,,,,,,,
,,6594e0c8679c1dee303c33b8,65af5804cbfd19b26dc0c460,2024-01-23_07h09.25.487,bars,2023.2.3,MacIntel,59.88023952,657b66ea316d21385b68909f,,,,,,,,,,,,,,,,,,,,,,,,,,,,,,,,,,,,,,,,,,590.737,590.9704,right,0.2223,,590.9704,7,2,591.9716,0,16,16,16,1,6,6,7,7,,,,,,,,,,,,,,,,,,,,,,,,,,,,,,,,,,,,,,,,,
,,6594e0c8679c1dee303c33b8,65af5804cbfd19b26dc0c460,2024-01-23_07h09.25.487,bars,2023.2.3,MacIntel,59.88023952,657b66ea316d21385b68909f,,,,,,,,,,,,,,,,,,,,,,,,,,,,,,,,,,,,,,,,,,591.972,592.3074,right,0.3135,,592.3075,5,2,593.3091,0,17,17,17,1,8,4,9,5,,,,,,,,,,,,,,,,,,,,,,,,,,,,,,,,,,,,,,,,,
,,6594e0c8679c1dee303c33b8,65af5804cbfd19b26dc0c460,2024-01-23_07h09.25.487,bars,2023.2.3,MacIntel,59.88023952,657b66ea316d21385b68909f,,,,,,,,,,,,,,,,,,,,,,,,,,,,,,,,,,,,,,,,,,593.3094,593.9937,right,0.6669,,593.9937,1,2,594.9942,0,18,18,18,1,6,2,5,1,,,,,,,,,,,,,,,,,,,,,,,,,,,,,,,,,,,,,,,,,
,,6594e0c8679c1dee303c33b8,65af5804cbfd19b26dc0c460,2024-01-23_07h09.25.487,bars,2023.2.3,MacIntel,59.88023952,657b66ea316d21385b68909f,,,,,,,,,,,,,,,,,,,,,,,,,,,,,,,,,,,,,,,,,,594.9946,595.3803,left,0.3604,,595.3804,7,1,596.3806,0,19,19,19,1,8,0,7,0,,,,,,,,,,,,,,,,,,,,,,,,,,,,,,,,,,,,,,,,,
,,6594e0c8679c1dee303c33b8,65af5804cbfd19b26dc0c460,2024-01-23_07h09.25.487,bars,2023.2.3,MacIntel,59.88023952,657b66ea316d21385b68909f,,,,,,,,,,,,,,,,,,,,,,,,,,,,,,,,,,,,,,,,,,,,,,,,,,,,,,,,,,,,596.381,605.0146,space,8.6185,,,,,,,,,,,,,,,,,,,,,,,,,,,,,,,,,,,,,
,,6594e0c8679c1dee303c33b8,65af5804cbfd19b26dc0c460,2024-01-23_07h09.25.487,bars,2023.2.3,MacIntel,59.88023952,657b66ea316d21385b68909f,,,,,,,,,,,606.0214,607.0181,,,607.5196,607.7702,,81,81,,,,,,,,,,,,,,,,bars/047.png,bars/mask000.png,,,,,,,,,,,,4,2,,,,,,,5,5,5,6,,,,,,605.0255,606.0172,space,0.9798,,607.0182,607.5196,607.7704,613.4146,space,5.6291,,613.4148,66,11,614.4162,614.4164,619.1417,space,4.7092,,0,0,0,0,1,15,70,,,,,,,,
,,6594e0c8679c1dee303c33b8,65af5804cbfd19b26dc0c460,2024-01-23_07h09.25.487,bars,2023.2.3,MacIntel,59.88023952,657b66ea316d21385b68909f,,,,,,,,,,,619.1519,620.1437,,,620.6447,620.8973,,111,111,,,,,,,,,,,,,,,,bars/008.png,bars/mask006.png,,,,,,,,,,,,1,1,,,,,,,3,3,1,3,,,,,,,,,,,620.1437,620.6447,620.8973,624.0521,space,3.1401,,624.0522,1,69,625.0541,625.0541,626.0555,space,0.9798,,0,1,1,1,1,110,0,,,,,,,,
,,6594e0c8679c1dee303c33b8,65af5804cbfd19b26dc0c460,2024-01-23_07h09.25.487,bars,2023.2.3,MacIntel,59.88023952,657b66ea316d21385b68909f,,,,,,,,,,,626.0557,627.0577,,,627.5601,627.8088,,49,49,,,,,,,,,,,,,,,,bars/034.png,bars/mask007.png,,,,,,,,,,,,3,2,,,,,,,1,5,2,7,,,,,,,,,,,627.0577,627.56,627.8088,633.7381,space,5.9184,,633.7381,76,16,634.7402,634.7402,639.8678,space,5.1043,,0,2,2,2,1,125,65,,,,,,,,
,,6594e0c8679c1dee303c33b8,65af5804cbfd19b26dc0c460,2024-01-23_07h09.25.487,bars,2023.2.3,MacIntel,59.88023952,657b66ea316d21385b68909f,,,,,,,,,,,639.8776,640.868,,,641.371,641.6198,,149,149,,,,,,,,,,,,,,,,bars/000.png,bars/mask008.png,,,,,,,,,,,,8,2,,,,,,,0,7,0,9,,,,,,,,,,,640.868,641.3709,641.6198,643.5738,space,1.9387,,643.5739,71,4,644.5751,644.5752,646.9803,space,2.3915,,0,3,3,3,1,40,145,,,,,,,,
,,6594e0c8679c1dee303c33b8,65af5804cbfd19b26dc0c460,2024-01-23_07h09.25.487,bars,2023.2.3,MacIntel,59.88023952,657b66ea316d21385b68909f,,,,,,,,,,,646.9806,647.9819,,,648.4829,648.7349,,90,90,,,,,,,,,,,,,,,,bars/041.png,bars/mask005.png,,,,,,,,,,,,3,2,,,,,,,0,5,2,4,,,,,,,,,,,647.9819,648.4829,648.7349,651.2575,space,2.4983,,651.2575,70,5,652.2574,652.2574,656.065,space,3.7799,,0,4,4,4,1,20,85,,,,,,,,
,,6594e0c8679c1dee303c33b8,65af5804cbfd19b26dc0c460,2024-01-23_07h09.25.487,bars,2023.2.3,MacIntel,59.88023952,657b66ea316d21385b68909f,,,,,,,,,,,656.0738,657.0691,,,657.5679,657.8182,,76,76,,,,,,,,,,,,,,,,bars/022.png,bars/mask006.png,,,,,,,,,,,,1,1,,,,,,,2,7,3,8,,,,,,,,,,,657.0691,657.5678,657.8182,662.1604,space,4.3263,,662.1604,19,56,663.1622,663.1623,665.0166,space,1.8318,,0,5,5,5,1,95,20,,,,,,,,
,,6594e0c8679c1dee303c33b8,65af5804cbfd19b26dc0c460,2024-01-23_07h09.25.487,bars,2023.2.3,MacIntel,59.88023952,657b66ea316d21385b68909f,,,,,,,,,,,665.0169,666.0177,,,666.5187,666.7702,,27,27,,,,,,,,,,,,,,,,bars/041.png,bars/mask005.png,,,,,,,,,,,,3,1,,,,,,,4,9,4,10,,,,,,,,,,,666.0178,666.5187,666.7702,671.6291,space,4.8381,,671.6291,7,58,672.6309,672.631,679.0118,space,6.3571,,0,6,6,6,1,20,85,,,,,,,,
,,6594e0c8679c1dee303c33b8,65af5804cbfd19b26dc0c460,2024-01-23_07h09.25.487,bars,2023.2.3,MacIntel,59.88023952,657b66ea316d21385b68909f,,,,,,,,,,,679.0204,680.014,,,680.5132,680.7649,,135,135,,,,,,,,,,,,,,,,bars/043.png,bars/mask003.png,,,,,,,,,,,,8,2,,,,,,,2,10,1,9,,,,,,,,,,,680.014,680.5131,680.7649,684.454,space,3.674,,684.454,75,5,685.4567,685.4567,687.6606,space,2.1815,,0,7,7,7,1,30,130,,,,,,,,
,,6594e0c8679c1dee303c33b8,65af5804cbfd19b26dc0c460,2024-01-23_07h09.25.487,bars,2023.2.3,MacIntel,59.88023952,657b66ea316d21385b68909f,,,,,,,,,,,687.6609,688.6625,,,689.1632,689.4141,,27,207,,,,,,,,,,,,,,,,bars/013.png,bars/mask002.png,,,,,,,,,,,,3,2,,,,,,,4,8,2,8,,,,,,,,,,,688.6625,689.1632,689.4141,696.9458,space,7.511,,696.9459,48,17,697.9473,697.9473,706.765,space,8.7973,,0,8,8,8,1,75,10,,,,,,,,
,,6594e0c8679c1dee303c33b8,65af5804cbfd19b26dc0c460,2024-01-23_07h09.25.487,bars,2023.2.3,MacIntel,59.88023952,657b66ea316d21385b68909f,,,,,,,,,,,706.7744,707.7692,,,708.2685,708.5193,,121,121,,,,,,,,,,,,,,,,bars/045.png,bars/mask005.png,,,,,,,,,,,,2,1,,,,,,,6,6,7,7,,,,,,,,,,,707.7693,708.2685,708.5193,709.9045,space,1.37,,709.9045,21,69,710.9069,710.9069,714.1643,space,3.2393,,0,9,9,9,1,100,10,,,,,,,,
,,6594e0c8679c1dee303c33b8,65af5804cbfd19b26dc0c460,2024-01-23_07h09.25.487,bars,2023.2.3,MacIntel,59.88023952,657b66ea316d21385b68909f,,,,,,,,,,,714.1732,715.1647,,,715.6655,715.9163,,145,145,,,,,,,,,,,,,,,,bars/005.png,bars/mask000.png,,,,,,,,,,,,5,2,,,,,,,4,4,3,6,,,,,,,,,,,715.1647,715.6655,715.9163,718.3881,space,2.4567,,718.3881,45,5,719.3897,719.3897,720.9109,space,1.4935,,0,10,10,10,1,10,140,,,,,,,,
,,6594e0c8679c1dee303c33b8,65af5804cbfd19b26dc0c460,2024-01-23_07h09.25.487,bars,2023.2.3,MacIntel,59.88023952,657b66ea316d21385b68909f,,,,,,,,,,,720.9112,721.9129,,,722.4136,722.6629,,89,89,,,,,,,,,,,,,,,,bars/019.png,bars/mask004.png,,,,,,,,,,,,4,2,,,,,,,6,6,6,8,,,,,,,,,,,721.913,722.4136,722.6629,729.8941,space,7.2079,,729.8941,44,16,730.8976,730.8977,733.3356,space,2.4155,,0,11,11,11,1,45,105,,,,,,,,
,,6594e0c8679c1dee303c33b8,65af5804cbfd19b26dc0c460,2024-01-23_07h09.25.487,bars,2023.2.3,MacIntel,59.88023952,657b66ea316d21385b68909f,,,,,,,,,,,733.3359,734.3358,,,734.8381,735.0884,,12,12,,,,,,,,,,,,,,,,bars/022.png,bars/mask006.png,,,,,,,,,,,,5,2,,,,,,,8,8,8,7,,,,,,,,,,,734.3359,734.838,735.0885,740.834,space,5.7268,,740.8341,83,8,741.8342,741.8342,743.2529,space,1.4005,,0,12,12,12,1,95,20,,,,,,,,
,,6594e0c8679c1dee303c33b8,65af5804cbfd19b26dc0c460,2024-01-23_07h09.25.487,bars,2023.2.3,MacIntel,59.88023952,657b66ea316d21385b68909f,,,,,,,,,,,743.2532,744.2565,,,744.7568,745.0069,,161,161,,,,,,,,,,,,,,,,bars/020.png,bars/mask000.png,,,,,,,,,,,,2,2,,,,,,,10,6,10,3,,,,,,,,,,,744.2566,744.7567,745.0069,746.0268,space,1.002,,746.0269,46,9,747.0278,747.0278,748.2303,space,1.1815,,0,13,13,13,1,115,170,,,,,,,,
,,6594e0c8679c1dee303c33b8,65af5804cbfd19b26dc0c460,2024-01-23_07h09.25.487,bars,2023.2.3,MacIntel,59.88023952,657b66ea316d21385b68909f,,,,,,,,,,,748.2306,749.2335,,,749.7331,749.9835,,100,100,,,,,,,,,,,,,,,,bars/045.png,bars/mask003.png,,,,,,,,,,,,8,1,,,,,,,10,4,8,5,,,,,,,,,,,749.2336,749.733,749.9836,751.9888,space,1.9906,,751.9888,0,90,752.9894,752.9894,754.7097,space,1.694,,0,14,14,14,1,100,10,,,,,,,,
,,6594e0c8679c1dee303c33b8,65af5804cbfd19b26dc0c460,2024-01-23_07h09.25.487,bars,2023.2.3,MacIntel,59.88023952,657b66ea316d21385b68909f,,,,,,,,,,,754.7101,755.7133,,,756.2123,756.4628,,38,38,,,,,,,,,,,,,,,,bars/048.png,bars/mask002.png,,,,,,,,,,,,6,1,,,,,,,10,6,10,5,,,,,,,,,,,755.7133,756.2123,756.4628,760.9716,space,4.4947,,760.9717,12,43,761.9735,761.9735,763.1608,space,1.163,,0,15,15,15,1,50,175,,,,,,,,
,,6594e0c8679c1dee303c33b8,65af5804cbfd19b26dc0c460,2024-01-23_07h09.25.487,bars,2023.2.3,MacIntel,59.88023952,657b66ea316d21385b68909f,,,,,,,,,,,763.1611,764.1629,,,764.6638,764.9129,,124,124,,,,,,,,,,,,,,,,bars/025.png,bars/mask005.png,,,,,,,,,,,,4,1,,,,,,,10,8,10,9,,,,,,,,,,,764.1629,764.6638,764.9129,766.4843,space,1.5581,,766.4843,19,84,767.4847,767.4848,768.671,space,1.1712,,0,16,16,16,1,105,40,,,,,,,,
,,6594e0c8679c1dee303c33b8,65af5804cbfd19b26dc0c460,2024-01-23_07h09.25.487,bars,2023.2.3,MacIntel,59.88023952,657b66ea316d21385b68909f,,,,,,,,,,,768.6713,769.6723,,,770.1731,770.4234,,153,153,,,,,,,,,,,,,,,,bars/020.png,bars/mask000.png,,,,,,,,,,,,3,2,,,,,,,8,10,8,8,,,,,,,,,,,769.6723,770.173,770.4234,775.7176,space,5.2739,,775.7177,38,17,776.7209,776.7209,778.6401,space,1.8938,,0,17,17,17,1,115,170,,,,,,,,
,,6594e0c8679c1dee303c33b8,65af5804cbfd19b26dc0c460,2024-01-23_07h09.25.487,bars,2023.2.3,MacIntel,59.88023952,657b66ea316d21385b68909f,,,,,,,,,,,778.6404,779.6416,,,780.1427,780.3934,,112,112,,,,,,,,,,,,,,,,bars/025.png,bars/mask000.png,,,,,,,,,,,,3,1,,,,,,,6,8,4,9,,,,,,,,,,,779.6416,780.1426,780.3934,781.5297,space,1.1184,,781.5297,7,72,782.5307,782.5307,786.1213,space,3.5728,,0,18,18,18,1,105,40,,,,,,,,
,,6594e0c8679c1dee303c33b8,65af5804cbfd19b26dc0c460,2024-01-23_07h09.25.487,bars,2023.2.3,MacIntel,59.88023952,657b66ea316d21385b68909f,,,,,,,,,,,786.1299,787.1234,,,787.624,787.8764,,120,120,,,,,,,,,,,,,,,,bars/014.png,bars/mask008.png,,,,,,,,,,,,0,1,,,,,,,4,6,5,5,,,,,,,,,,,787.1235,787.624,787.8764,793.2364,space,5.3472,,793.2364,40,60,794.2379,794.2379,799.8316,space,5.5741,,0,19,19,19,1,80,0,,,,,,,,
,,6594e0c8679c1dee303c33b8,65af5804cbfd19b26dc0c460,2024-01-23_07h09.25.487,bars,2023.2.3,MacIntel,59.88023952,657b66ea316d21385b68909f,,,,,,,,,,,799.8408,800.8351,,,801.3348,801.5858,,79,79,,,,,,,,,,,,,,,,bars/046.png,bars/mask004.png,,,,,,,,,,,,7,2,,,,,,,6,8,7,9,,,,,,,,,,,800.8351,801.3348,801.5858,805.5265,space,3.9188,,805.5265,76,6,806.5288,806.5289,807.9818,space,1.4282,,0,20,20,20,1,155,85,,,,,,,,
,,6594e0c8679c1dee303c33b8,65af5804cbfd19b26dc0c460,2024-01-23_07h09.25.487,bars,2023.2.3,MacIntel,59.88023952,657b66ea316d21385b68909f,,,,,,,,,,,807.982,808.9826,,,809.4864,809.7346,,101,101,,,,,,,,,,,,,,,,bars/039.png,bars/mask006.png,,,,,,,,,,,,9,2,,,,,,,4,10,5,10,,,,,,,,,,,808.9826,809.4864,809.7346,816.6331,space,6.8813,,816.6331,74,4,817.6337,817.6337,818.8695,space,1.2182,,0,21,21,21,1,175,105,,,,,,,,
,,6594e0c8679c1dee303c33b8,65af5804cbfd19b26dc0c460,2024-01-23_07h09.25.487,bars,2023.2.3,MacIntel,59.88023952,657b66ea316d21385b68909f,,,,,,,,,,,818.8698,819.8712,,,820.3723,820.6232,,114,114,,,,,,,,,,,,,,,,bars/006.png,bars/mask000.png,,,,,,,,,,,,5,2,,,,,,,2,8,2,10,,,,,,,,,,,819.8712,820.3722,820.6232,827.3693,space,6.7299,,827.3694,79,14,828.3722,828.3722,829.3561,space,0.9664,,0,22,22,22,1,35,100,,,,,,,,
,,6594e0c8679c1dee303c33b8,65af5804cbfd19b26dc0c460,2024-01-23_07h09.25.487,bars,2023.2.3,MacIntel,59.88023952,657b66ea316d21385b68909f,,,,,,,,,,,829.3564,830.3587,,,830.8597,831.1099,,105,105,,,,,,,,,,,,,,,,bars/037.png,bars/mask002.png,,,,,,,,,,,,6,2,,,,,,,0,6,0,6,,,,,,,,,,,830.3587,830.8596,831.1099,834.6339,space,3.5132,,834.634,45,0,835.6354,835.6354,837.7744,space,2.1208,,0,23,23,23,1,150,105,,,,,,,,
,,6594e0c8679c1dee303c33b8,65af5804cbfd19b26dc0c460,2024-01-23_07h09.25.487,bars,2023.2.3,MacIntel,59.88023952,657b66ea316d21385b68909f,,,,,,,,,,,837.7748,838.7757,,,839.2767,839.5271,,0,180,,,,,,,,,,,,,,,,bars/032.png,bars/mask003.png,,,,,,,,,,,,3,2,,,,,,,2,8,2,9,,,,,,,,,,,838.7757,839.2767,839.5271,847.6099,space,8.0636,,847.61,55,20,848.6111,848.6111,850.6989,space,2.061,,0,24,24,24,1,125,20,,,,,,,,
,,6594e0c8679c1dee303c33b8,65af5804cbfd19b26dc0c460,2024-01-23_07h09.25.487,bars,2023.2.3,MacIntel,59.88023952,657b66ea316d21385b68909f,,,,,,,,,,,850.6992,851.7006,,,852.2022,852.4535,,31,31,,,,,,,,,,,,,,,,bars/035.png,bars/mask003.png,,,,,,,,,,,,0,2,,,,,,,0,10,0,10,,,,,,,,,,,851.7006,852.2021,852.4535,857.2954,space,4.8216,,857.2955,36,29,858.2972,858.2973,864.0427,space,5.7205,,0,25,25,25,1,175,60,,,,,,,,
,,6594e0c8679c1dee303c33b8,65af5804cbfd19b26dc0c460,2024-01-23_07h09.25.487,bars,2023.2.3,MacIntel,59.88023952,657b66ea316d21385b68909f,,,,,,,,,,,864.0543,865.0442,,,865.5459,865.7956,,49,49,,,,,,,,,,,,,,,,bars/033.png,bars/mask008.png,,,,,,,,,,,,0,1,,,,,,,0,8,0,9,,,,,,,,,,,865.0442,865.5459,865.7957,867.6491,space,1.832,,867.6492,24,74,868.651,868.651,870.7888,space,2.1185,,0,26,26,26,1,25,155,,,,,,,,
,,6594e0c8679c1dee303c33b8,65af5804cbfd19b26dc0c460,2024-01-23_07h09.25.487,bars,2023.2.3,MacIntel,59.88023952,657b66ea316d21385b68909f,,,,,,,,,,,870.7891,871.7922,,,872.2919,872.5439,,130,-50,,,,,,,,,,,,,,,,bars/005.png,bars/mask003.png,,,,,,,,,,,,3,2,,,,,,,0,6,3,5,,,,,,,,,,,871.7922,872.2919,872.544,880.5746,space,8.0161,,880.5746,60,10,881.5762,881.5763,884.7671,space,3.1673,,0,27,27,27,1,10,140,,,,,,,,
,,6594e0c8679c1dee303c33b8,65af5804cbfd19b26dc0c460,2024-01-23_07h09.25.487,bars,2023.2.3,MacIntel,59.88023952,657b66ea316d21385b68909f,,,,,,,,,,,884.7674,885.77,,,886.269,886.5219,,59,59,,,,,,,,,,,,,,,,bars/030.png,bars/mask001.png,,,,,,,,,,,,6,2,,,,,,,0,8,1,8,,,,,,,,,,,885.77,886.2689,886.522,891.9315,space,5.3954,,891.9315,81,6,892.9324,892.9325,895.1385,space,2.1779,,0,28,28,28,1,140,65,,,,,,,,
,,6594e0c8679c1dee303c33b8,65af5804cbfd19b26dc0c460,2024-01-23_07h09.25.487,bars,2023.2.3,MacIntel,59.88023952,657b66ea316d21385b68909f,,,,,,,,,,,895.1389,896.1379,,,896.6408,896.8898,,120,120,,,,,,,,,,,,,,,,bars/023.png,bars/mask005.png,,,,,,,,,,,,7,2,,,,,,,0,6,2,8,,,,,,,,,,,896.138,896.6408,896.8899,902.4009,space,5.4875,,902.4009,80,5,903.4026,903.4027,904.4547,space,1.0304,,0,29,29,29,1,20,115,,,,,,,,
,,6594e0c8679c1dee303c33b8,65af5804cbfd19b26dc0c460,2024-01-23_07h09.25.487,bars,2023.2.3,MacIntel,59.88023952,657b66ea316d21385b68909f,,,,,,,,,,,904.4551,905.4568,,,905.9577,906.2082,,35,35,,,,,,,,,,,,,,,,bars/025.png,bars/mask007.png,,,,,,,,,,,,6,2,,,,,,,0,8,0,7,,,,,,,,,,,905.4568,905.9577,906.2082,908.531,space,2.298,,908.5311,70,5,909.5316,909.5317,910.7185,space,1.1717,,0,30,30,30,1,105,40,,,,,,,,
,,6594e0c8679c1dee303c33b8,65af5804cbfd19b26dc0c460,2024-01-23_07h09.25.487,bars,2023.2.3,MacIntel,59.88023952,657b66ea316d21385b68909f,,,,,,,,,,,910.7188,911.7198,,,912.2213,912.4708,,58,58,,,,,,,,,,,,,,,,bars/038.png,bars/mask002.png,,,,,,,,,,,,6,2,,,,,,,2,10,0,10,,,,,,,,,,,911.7198,912.2212,912.4708,918.3334,space,5.8476,,918.3335,73,12,919.3341,919.3342,921.2897,space,1.9342,,0,31,31,31,1,165,70,,,,,,,,
,,6594e0c8679c1dee303c33b8,65af5804cbfd19b26dc0c460,2024-01-23_07h09.25.487,bars,2023.2.3,MacIntel,59.88023952,657b66ea316d21385b68909f,,,,,,,,,,,921.29,922.2902,,,922.791,923.0438,,91,91,,,,,,,,,,,,,,,,bars/002.png,bars/mask009.png,,,,,,,,,,,,7,2,,,,,,,4,10,5,9,,,,,,,,,,,922.2902,922.791,923.0438,925.9989,space,2.9343,,925.9989,39,6,927.0008,927.0009,927.9029,space,0.8788,,0,32,32,32,1,130,85,,,,,,,,
,,6594e0c8679c1dee303c33b8,65af5804cbfd19b26dc0c460,2024-01-23_07h09.25.487,bars,2023.2.3,MacIntel,59.88023952,657b66ea316d21385b68909f,,,,,,,,,,,927.9032,928.9054,,,929.4041,929.6544,,77,77,,,,,,,,,,,,,,,,bars/047.png,bars/mask001.png,,,,,,,,,,,,6,2,,,,,,,6,8,7,8,,,,,,,,,,,928.9054,929.404,929.6544,935.1507,space,5.4723,,935.1509,62,7,936.1524,936.1524,936.9202,space,0.7446,,0,33,33,33,1,15,70,,,,,,,,
,,6594e0c8679c1dee303c33b8,65af5804cbfd19b26dc0c460,2024-01-23_07h09.25.487,bars,2023.2.3,MacIntel,59.88023952,657b66ea316d21385b68909f,,,,,,,,,,,936.9205,937.9209,,,938.4217,938.6721,,126,126,,,,,,,,,,,,,,,,bars/023.png,bars/mask002.png,,,,,,,,,,,,4,2,,,,,,,4,6,4,7,,,,,,,,,,,937.9209,938.4215,938.6721,945.6553,space,6.9648,,945.6553,74,11,946.6545,946.6545,948.9443,space,2.2688,,0,34,34,34,1,20,115,,,,,,,,
,,6594e0c8679c1dee303c33b8,65af5804cbfd19b26dc0c460,2024-01-23_07h09.25.487,bars,2023.2.3,MacIntel,59.88023952,657b66ea316d21385b68909f,,,,,,,,,,,948.9445,949.944,,,950.4469,950.6973,,97,97,,,,,,,,,,,,,,,,bars/039.png,bars/mask000.png,,,,,,,,,,,,5,2,,,,,,,6,8,6,7,,,,,,,,,,,949.944,950.4469,950.6973,952.7016,space,1.983,,952.7016,78,8,953.702,953.7022,954.6551,space,0.9318,,0,35,35,35,1,175,105,,,,,,,,
,,6594e0c8679c1dee303c33b8,65af5804cbfd19b26dc0c460,2024-01-23_07h09.25.487,bars,2023.2.3,MacIntel,59.88023952,657b66ea316d21385b68909f,,,,,,,,,,,954.6554,955.6558,,,956.1566,956.4073,,93,93,,,,,,,,,,,,,,,,bars/006.png,bars/mask008.png,,,,,,,,,,,,7,2,,,,,,,8,10,7,9,,,,,,,,,,,955.6558,956.1566,956.4073,961.8518,space,5.4307,,961.8518,58,7,962.8534,962.8534,963.723,space,0.8454,,0,36,36,36,1,35,100,,,,,,,,
,,6594e0c8679c1dee303c33b8,65af5804cbfd19b26dc0c460,2024-01-23_07h09.25.487,bars,2023.2.3,MacIntel,59.88023952,657b66ea316d21385b68909f,,,,,,,,,,,963.7233,964.7237,,,965.2247,965.475,,155,155,,,,,,,,,,,,,,,,bars/033.png,bars/mask006.png,,,,,,,,,,,,10,2,,,,,,,10,10,9,10,,,,,,,,,,,964.7237,965.2247,965.475,972.3388,space,6.8507,,972.3389,50,0,973.3422,973.3422,974.9441,space,1.5751,,0,37,37,37,1,25,155,,,,,,,,
,,6594e0c8679c1dee303c33b8,65af5804cbfd19b26dc0c460,2024-01-23_07h09.25.487,bars,2023.2.3,MacIntel,59.88023952,657b66ea316d21385b68909f,,,,,,,,,,,974.9444,975.9465,,,976.4467,976.6984,,144,144,,,,,,,,,,,,,,,,bars/000.png,bars/mask005.png,,,,,,,,,,,,8,2,,,,,,,10,8,10,8,,,,,,,,,,,975.9465,976.4467,976.6984,978.3006,space,1.5891,,978.3007,76,1,979.3025,979.3025,980.2053,space,0.8893,,0,38,38,38,1,40,145,,,,,,,,
,,6594e0c8679c1dee303c33b8,65af5804cbfd19b26dc0c460,2024-01-23_07h09.25.487,bars,2023.2.3,MacIntel,59.88023952,657b66ea316d21385b68909f,,,,,,,,,,,980.2056,981.2079,,,981.7077,981.9578,,18,198,,,,,,,,,,,,,,,,bars/014.png,bars/mask005.png,,,,,,,,,,,,4,2,,,,,,,10,10,10,9,,,,,,,,,,,981.208,981.7077,981.9579,991.894,space,9.9132,,991.894,62,18,992.8959,992.896,994.8166,space,1.8981,,0,39,39,39,1,80,0,,,,,,,,
,,6594e0c8679c1dee303c33b8,65af5804cbfd19b26dc0c460,2024-01-23_07h09.25.487,bars,2023.2.3,MacIntel,59.88023952,657b66ea316d21385b68909f,,,,,,,,,,,994.8168,995.8184,,,996.3205,996.5702,,79,79,,,,,,,,,,,,,,,,bars/046.png,bars/mask002.png,,,,,,,,,,,,6,2,,,,,,,10,8,9,8,,,,,,,,,,,995.8184,996.3205,996.5703,1003.6173,space,7.0281,,1003.6174,76,6,1004.6187,1004.6188,1005.7056,space,1.0663,,0,40,40,40,1,155,85,,,,,,,,
,,6594e0c8679c1dee303c33b8,65af5804cbfd19b26dc0c460,2024-01-23_07h09.25.487,bars,2023.2.3,MacIntel,59.88023952,657b66ea316d21385b68909f,,,,,,,,,,,1005.706,1006.7075,,,1007.2091,1007.4578,,7,187,,,,,,,,,,,,,,,,bars/048.png,bars/mask000.png,,,,,,,,,,,,4,2,,,,,,,8,6,7,7,,,,,,,,,,,1006.7075,1007.2091,1007.4578,1012.6015,space,5.1322,,1012.6016,43,12,1013.6042,1013.6042,1014.6552,space,1.0319,,0,41,41,41,1,50,175,,,,,,,,
,,6594e0c8679c1dee303c33b8,65af5804cbfd19b26dc0c460,2024-01-23_07h09.25.487,bars,2023.2.3,MacIntel,59.88023952,657b66ea316d21385b68909f,,,,,,,,,,,1014.6555,1015.6594,,,1016.1603,1016.4092,,92,92,,,,,,,,,,,,,,,,bars/018.png,bars/mask007.png,,,,,,,,,,,,3,2,,,,,,,10,4,10,3,,,,,,,,,,,1015.6595,1016.1603,1016.4093,1018.5322,space,2.1085,,1018.5323,58,2,1019.532,1019.532,1020.9857,space,1.4315,,0,42,42,42,1,150,90,,,,,,,,
,,6594e0c8679c1dee303c33b8,65af5804cbfd19b26dc0c460,2024-01-23_07h09.25.487,bars,2023.2.3,MacIntel,59.88023952,657b66ea316d21385b68909f,,,,,,,,,,,1020.986,1021.9866,,,1022.488,1022.7387,,123,123,,,,,,,,,,,,,,,,bars/025.png,bars/mask004.png,,,,,,,,,,,,4,1,,,,,,,10,6,10,6,,,,,,,,,,,1021.9867,1022.488,1022.7387,1030.923,space,8.168,,1030.9231,18,83,1031.9242,1031.9242,1032.977,space,1.0274,,0,43,43,43,1,105,40,,,,,,,,
,,6594e0c8679c1dee303c33b8,65af5804cbfd19b26dc0c460,2024-01-23_07h09.25.487,bars,2023.2.3,MacIntel,59.88023952,657b66ea316d21385b68909f,,,,,,,,,,,1032.9774,1033.9775,,,1034.4791,1034.7288,,45,45,,,,,,,,,,,,,,,,bars/016.png,bars/mask003.png,,,,,,,,,,,,8,1,,,,,,,10,4,9,5,,,,,,,,,,,1033.9776,1034.479,1034.7288,1042.2101,space,7.4698,,1042.2101,5,60,1043.212,1043.212,1044.1482,space,0.913,,0,44,44,44,1,40,165,,,,,,,,
,,6594e0c8679c1dee303c33b8,65af5804cbfd19b26dc0c460,2024-01-23_07h09.25.487,bars,2023.2.3,MacIntel,59.88023952,657b66ea316d21385b68909f,,,,,,,,,,,1044.1485,1045.1505,,,1045.6516,1045.9007,,31,31,,,,,,,,,,,,,,,,bars/007.png,bars/mask005.png,,,,,,,,,,,,0,2,,,,,,,8,2,7,0,,,,,,,,,,,1045.1505,1045.6516,1045.9007,1054.436,space,8.519,,1054.4362,36,24,1055.4363,1055.4363,1059.9786,space,4.5124,,0,45,45,45,1,175,55,,,,,,,,
,,6594e0c8679c1dee303c33b8,65af5804cbfd19b26dc0c460,2024-01-23_07h09.25.487,bars,2023.2.3,MacIntel,59.88023952,657b66ea316d21385b68909f,,,,,,,,,,,1059.9903,1060.9803,,,1061.4828,1061.7318,,151,151,,,,,,,,,,,,,,,,bars/037.png,bars/mask006.png,,,,,,,,,,,,4,1,,,,,,,6,4,4,4,,,,,,,,,,,1060.9803,1061.4828,1061.7318,1064.706,space,2.9544,,1064.706,1,46,1065.7081,1065.7082,1067.1592,space,1.4211,,0,46,46,46,1,150,105,,,,,,,,
,,6594e0c8679c1dee303c33b8,65af5804cbfd19b26dc0c460,2024-01-23_07h09.25.487,bars,2023.2.3,MacIntel,59.88023952,657b66ea316d21385b68909f,,,,,,,,,,,1067.1595,1068.1638,,,1068.6622,1068.9126,,47,47,,,,,,,,,,,,,,,,bars/030.png,bars/mask006.png,,,,,,,,,,,,0,2,,,,,,,8,2,9,1,,,,,,,,,,,1068.1639,1068.6621,1068.9127,1070.5827,space,1.6478,,1070.5827,87,18,1071.5842,1071.5843,1072.9208,space,1.3122,,0,47,47,47,1,140,65,,,,,,,,
,,6594e0c8679c1dee303c33b8,65af5804cbfd19b26dc0c460,2024-01-23_07h09.25.487,bars,2023.2.3,MacIntel,59.88023952,657b66ea316d21385b68909f,,,,,,,,,,,1072.921,1073.9235,,,1074.425,1074.674,,156,-24,,,,,,,,,,,,,,,,bars/049.png,bars/mask007.png,,,,,,,,,,,,9,1,,,,,,,10,0,10,0,,,,,,,,,,,1073.9236,1074.425,1074.674,1080.8203,space,6.1281,,1080.8204,4,41,1081.8214,1081.8214,1083.1241,space,1.2838,,0,48,48,48,1,160,115,,,,,,,,
,,6594e0c8679c1dee303c33b8,65af5804cbfd19b26dc0c460,2024-01-23_07h09.25.487,bars,2023.2.3,MacIntel,59.88023952,657b66ea316d21385b68909f,,,,,,,,,,,1083.1243,1084.1267,,,1084.6277,1084.8787,,132,132,,,,,,,,,,,,,,,,bars/031.png,bars/mask005.png,,,,,,,,,,,,6,1,,,,,,,10,2,10,3,,,,,,,,,,,1084.1267,1084.6276,1084.8787,1090.7058,space,5.81,,1090.7058,12,83,1091.7083,1091.7084,1093.2109,space,1.4805,,0,49,49,49,1,120,35,,,,,,,,
,,6594e0c8679c1dee303c33b8,65af5804cbfd19b26dc0c460,2024-01-23_07h09.25.487,bars,2023.2.3,MacIntel,59.88023952,657b66ea316d21385b68909f,,,,,,,,,,,,,,,,,,,,,,,,,,,,,,,,,,,,,,,,,,,,,,,,,,,,,,,,,,,,,,,,,,,,,,,,,,,,,,,,,,,,,,,,,,,,,1093.2116,1153.2121,0,0,0,4,1,sequence_tables/blk024.csv
,,6594e0c8679c1dee303c33b8,65af5804cbfd19b26dc0c460,2024-01-23_07h09.25.487,bars,2023.2.3,MacIntel,59.88023952,657b66ea316d21385b68909f,,,,,,,,,,,1158.6702,1159.6581,,,1160.1594,1160.41,,128,128,,,,,,,,,,,,,,,,bars/049.png,bars/mask001.png,,,,,,,,,,,,1,2,,,,,,,4,1,4,1,,,,,,1153.2219,1158.6566,space,5.4245,,1159.6581,1160.1594,1160.41,1168.2087,space,7.78,,1168.2087,32,13,1169.2127,1169.2128,1169.2245,,,,0,0,0,0,1,160,115,,,,,,,,
,,6594e0c8679c1dee303c33b8,65af5804cbfd19b26dc0c460,2024-01-23_07h09.25.487,bars,2023.2.3,MacIntel,59.88023952,657b66ea316d21385b68909f,,,,,,,,,,,1169.2248,1170.2287,,,1170.7302,1170.9807,,89,89,,,,,,,,,,,,,,,,bars/002.png,bars/mask000.png,,,,,,,,,,,,0,2,,,,,,,6,0,8,0,,,,,,,,,,,1170.2287,1170.7302,1170.9808,1177.6444,space,6.6472,,1177.6444,41,4,1178.6459,1178.6459,1178.6575,,,,0,1,1,1,1,130,85,,,,,,,,
,,6594e0c8679c1dee303c33b8,65af5804cbfd19b26dc0c460,2024-01-23_07h09.25.487,bars,2023.2.3,MacIntel,59.88023952,657b66ea316d21385b68909f,,,,,,,,,,,1178.6578,1179.6475,,,1180.1483,1180.3991,,98,-82,,,,,,,,,,,,,,,,bars/022.png,bars/mask006.png,,,,,,,,,,,,2,1,,,,,,,4,2,2,2,,,,,,,,,,,1179.6475,1180.1483,1180.3991,1190.0523,space,9.6401,,1190.0524,3,78,1191.0535,1191.0535,1191.0639,,,,0,2,2,2,1,95,20,,,,,,,,
,,6594e0c8679c1dee303c33b8,65af5804cbfd19b26dc0c460,2024-01-23_07h09.25.487,bars,2023.2.3,MacIntel,59.88023952,657b66ea316d21385b68909f,,,,,,,,,,,1191.0641,1192.0563,,,1192.5566,1192.8068,,16,196,,,,,,,,,,,,,,,,bars/014.png,bars/mask002.png,,,,,,,,,,,,0,2,,,,,,,2,0,2,0,,,,,,,,,,,1192.0563,1192.5566,1192.8068,1195.5792,space,2.7658,,1195.5792,64,16,1196.5811,1196.5812,1196.5939,,,,0,3,3,3,1,80,0,,,,,,,,
,,6594e0c8679c1dee303c33b8,65af5804cbfd19b26dc0c460,2024-01-23_07h09.25.487,bars,2023.2.3,MacIntel,59.88023952,657b66ea316d21385b68909f,,,,,,,,,,,1196.5941,1197.5831,,,1198.0845,1198.3348,,130,130,,,,,,,,,,,,,,,,bars/018.png,bars/mask007.png,,,,,,,,,,,,1,1,,,,,,,4,0,4,0,,,,,,,,,,,1197.5831,1198.0844,1198.3349,1205.2483,space,6.8981,,1205.2483,20,40,1206.2521,1206.2521,1206.2643,,,,0,4,4,4,1,150,90,,,,,,,,
,,6594e0c8679c1dee303c33b8,65af5804cbfd19b26dc0c460,2024-01-23_07h09.25.487,bars,2023.2.3,MacIntel,59.88023952,657b66ea316d21385b68909f,,,,,,,,,,,1206.2644,1207.2521,,,1207.7533,1208.0039,,150,150,,,,,,,,,,,,,,,,bars/000.png,bars/mask008.png,,,,,,,,,,,,1,2,,,,,,,2,2,3,1,,,,,,,,,,,1207.2521,1207.7532,1208.0039,1210.1763,space,2.1547,,1210.1763,70,5,1211.1763,1211.1764,1211.1865,,,,0,5,5,5,1,40,145,,,,,,,,
,,6594e0c8679c1dee303c33b8,65af5804cbfd19b26dc0c460,2024-01-23_07h09.25.487,bars,2023.2.3,MacIntel,59.88023952,657b66ea316d21385b68909f,,,,,,,,,,,1211.1866,1212.1798,,,1212.679,1212.9314,,136,136,,,,,,,,,,,,,,,,bars/018.png,bars/mask009.png,,,,,,,,,,,,1,1,,,,,,,0,4,1,3,,,,,,,,,,,1212.1798,1212.679,1212.9315,1218.3085,space,5.3651,,1218.3086,14,46,1219.3106,1219.3107,1219.3212,,,,0,6,6,6,1,150,90,,,,,,,,
,,6594e0c8679c1dee303c33b8,65af5804cbfd19b26dc0c460,2024-01-23_07h09.25.487,bars,2023.2.3,MacIntel,59.88023952,657b66ea316d21385b68909f,,,,,,,,,,,1219.3215,1220.3125,,,1220.8123,1221.0656,,45,45,,,,,,,,,,,,,,,,bars/035.png,bars/mask002.png,,,,,,,,,,,,4,2,,,,,,,0,6,0,7,,,,,,,,,,,1220.3125,1220.8123,1221.0656,1223.0329,space,1.9526,,1223.0329,50,15,1224.0361,1224.0361,1224.0461,,,,0,7,7,7,1,175,60,,,,,,,,
,,6594e0c8679c1dee303c33b8,65af5804cbfd19b26dc0c460,2024-01-23_07h09.25.487,bars,2023.2.3,MacIntel,59.88023952,657b66ea316d21385b68909f,,,,,,,,,,,1224.0463,1225.0377,,,1225.5392,1225.7887,,49,49,,,,,,,,,,,,,,,,bars/025.png,bars/mask005.png,,,,,,,,,,,,6,2,,,,,,,2,8,2,8,,,,,,,,,,,1225.0377,1225.5392,1225.7887,1228.3617,space,2.5536,,1228.3618,56,9,1229.3625,1229.3625,1229.3717,,,,0,8,8,8,1,105,40,,,,,,,,
,,6594e0c8679c1dee303c33b8,65af5804cbfd19b26dc0c460,2024-01-23_07h09.25.487,bars,2023.2.3,MacIntel,59.88023952,657b66ea316d21385b68909f,,,,,,,,,,,1229.3718,1230.3642,,,1230.8677,1231.116,,37,37,,,,,,,,,,,,,,,,bars/045.png,bars/mask007.png,,,,,,,,,,,,1,2,,,,,,,4,6,4,7,,,,,,,,,,,1230.3642,1230.8677,1231.116,1234.8082,space,3.676,,1234.8082,63,27,1235.8083,1235.8084,1235.8176,,,,0,9,9,9,1,100,10,,,,,,,,
,,6594e0c8679c1dee303c33b8,65af5804cbfd19b26dc0c460,2024-01-23_07h09.25.487,bars,2023.2.3,MacIntel,59.88023952,657b66ea316d21385b68909f,,,,,,,,,,,1235.8178,1236.8117,,,1237.3114,1237.5619,,150,150,,,,,,,,,,,,,,,,bars/049.png,bars/mask008.png,,,,,,,,,,,,0,1,,,,,,,2,8,0,8,,,,,,,,,,,1236.8117,1237.3112,1237.562,1242.656,space,5.0743,,1242.6561,10,35,1243.6576,1243.6577,1243.6677,,,,0,10,10,10,1,160,115,,,,,,,,
,,6594e0c8679c1dee303c33b8,65af5804cbfd19b26dc0c460,2024-01-23_07h09.25.487,bars,2023.2.3,MacIntel,59.88023952,657b66ea316d21385b68909f,,,,,,,,,,,1243.6679,1247.9502,,,1247.9596,1247.96,,46,46,,,,,,,,,,,,,,,,bars/048.png,bars/mask001.png,,,,,,,,,,,,3,1,,,,,,,4,10,4,8,,,,,,,,,,,1247.9503,1247.9596,1247.96,1250.4706,space,2.4967,,1250.4706,4,51,1251.4727,1251.4727,1251.4735,,,,0,11,11,11,1,50,175,,,,,,,,
,,6594e0c8679c1dee303c33b8,65af5804cbfd19b26dc0c460,2024-01-23_07h09.25.487,bars,2023.2.3,MacIntel,59.88023952,657b66ea316d21385b68909f,,,,,,,,,,,1251.4739,1252.4747,,,1252.9758,1253.2283,,86,86,,,,,,,,,,,,,,,,bars/006.png,bars/mask009.png,,,,,,,,,,,,5,2,,,,,,,2,8,3,10,,,,,,,,,,,1252.4748,1252.9758,1253.2284,1260.6604,space,7.4083,,1260.6604,51,14,1261.6595,1261.6596,1261.6731,,,,0,12,12,12,1,35,100,,,,,,,,
,,6594e0c8679c1dee303c33b8,65af5804cbfd19b26dc0c460,2024-01-23_07h09.25.487,bars,2023.2.3,MacIntel,59.88023952,657b66ea316d21385b68909f,,,,,,,,,,,1261.6733,1262.6657,,,1263.1626,1263.4124,,50,50,,,,,,,,,,,,,,,,bars/035.png,bars/mask008.png,,,,,,,,,,,,6,2,,,,,,,0,10,0,9,,,,,,,,,,,1262.6658,1263.1626,1263.4124,1271.5811,space,8.1554,,1271.5812,55,10,1272.5811,1272.5811,1272.5938,,,,0,13,13,13,1,175,60,,,,,,,,
,,6594e0c8679c1dee303c33b8,65af5804cbfd19b26dc0c460,2024-01-23_07h09.25.487,bars,2023.2.3,MacIntel,59.88023952,657b66ea316d21385b68909f,,,,,,,,,,,1272.594,1273.5836,,,1274.0856,1274.3363,,1,181,,,,,,,,,,,,,,,,bars/033.png,bars/mask003.png,,,,,,,,,,,,0,1,,,,,,,2,10,1,10,,,,,,,,,,,1273.5836,1274.0855,1274.3363,1281.0977,space,6.7467,,1281.0977,24,26,1282.1012,1282.1012,1282.1119,,,,0,14,14,14,1,25,155,,,,,,,,
,,6594e0c8679c1dee303c33b8,65af5804cbfd19b26dc0c460,2024-01-23_07h09.25.487,bars,2023.2.3,MacIntel,59.88023952,657b66ea316d21385b68909f,,,,,,,,,,,1282.1121,1283.103,,,1283.6043,1283.8552,,62,62,,,,,,,,,,,,,,,,bars/028.png,bars/mask002.png,,,,,,,,,,,,0,1,,,,,,,0,8,0,6,,,,,,,,,,,1283.103,1283.6043,1283.8552,1291.9527,space,8.083,,1291.9527,17,58,1292.9561,1292.9562,1292.9659,,,,0,15,15,15,1,45,120,,,,,,,,
,,6594e0c8679c1dee303c33b8,65af5804cbfd19b26dc0c460,2024-01-23_07h09.25.487,bars,2023.2.3,MacIntel,59.88023952,657b66ea316d21385b68909f,,,,,,,,,,,1292.9662,1293.9568,,,1294.4573,1294.7084,,53,53,,,,,,,,,,,,,,,,bars/025.png,bars/mask001.png,,,,,,,,,,,,3,2,,,,,,,0,6,1,5,,,,,,,,,,,1293.9569,1294.4573,1294.7084,1298.3506,space,3.6265,,1298.3506,52,13,1299.3507,1299.3507,1299.3617,,,,0,16,16,16,1,105,40,,,,,,,,
,,6594e0c8679c1dee303c33b8,65af5804cbfd19b26dc0c460,2024-01-23_07h09.25.487,bars,2023.2.3,MacIntel,59.88023952,657b66ea316d21385b68909f,,,,,,,,,,,1299.3618,1300.3525,,,1300.8532,1301.1039,,112,112,,,,,,,,,,,,,,,,bars/039.png,bars/mask005.png,,,,,,,,,,,,6,2,,,,,,,0,8,0,8,,,,,,,,,,,1300.3525,1300.8532,1301.104,1302.9244,space,1.8119,,1302.9244,63,7,1303.9297,1303.9297,1303.9413,,,,0,17,17,17,1,175,105,,,,,,,,
,,6594e0c8679c1dee303c33b8,65af5804cbfd19b26dc0c460,2024-01-23_07h09.25.487,bars,2023.2.3,MacIntel,59.88023952,657b66ea316d21385b68909f,,,,,,,,,,,1303.9415,1304.9469,,,1305.4455,1305.6963,,74,74,,,,,,,,,,,,,,,,bars/026.png,bars/mask007.png,,,,,,,,,,,,6,2,,,,,,,0,10,0,10,,,,,,,,,,,1304.9469,1305.4455,1305.6963,1310.3392,space,4.6359,,1310.3393,39,11,1311.3448,1311.3449,1311.3563,,,,0,18,18,18,1,35,85,,,,,,,,
,,6594e0c8679c1dee303c33b8,65af5804cbfd19b26dc0c460,2024-01-23_07h09.25.487,bars,2023.2.3,MacIntel,59.88023952,657b66ea316d21385b68909f,,,,,,,,,,,1311.3565,1312.3457,,,1312.847,1313.0978,,170,-10,,,,,,,,,,,,,,,,bars/033.png,bars/mask007.png,,,,,,,,,,,,5,2,,,,,,,2,8,2,9,,,,,,,,,,,1312.3457,1312.847,1313.0978,1317.1034,space,3.9925,,1317.1034,35,15,1318.1056,1318.1056,1318.115,,,,0,19,19,19,1,25,155,,,,,,,,
,,6594e0c8679c1dee303c33b8,65af5804cbfd19b26dc0c460,2024-01-23_07h09.25.487,bars,2023.2.3,MacIntel,59.88023952,657b66ea316d21385b68909f,,,,,,,,,,,1318.1152,1319.1086,,,1319.6089,1319.8579,,57,57,,,,,,,,,,,,,,,,bars/027.png,bars/mask003.png,,,,,,,,,,,,5,2,,,,,,,4,6,4,7,,,,,,,,,,,1319.1087,1319.6088,1319.8579,1325.8028,space,5.9266,,1325.8028,53,7,1326.8067,1326.8067,1326.8185,,,,0,20,20,20,1,110,50,,,,,,,,
,,6594e0c8679c1dee303c33b8,65af5804cbfd19b26dc0c460,2024-01-23_07h09.25.487,bars,2023.2.3,MacIntel,59.88023952,657b66ea316d21385b68909f,,,,,,,,,,,1326.8187,1327.8066,,,1328.3085,1328.5589,,156,156,,,,,,,,,,,,,,,,bars/020.png,bars/mask007.png,,,,,,,,,,,,4,2,,,,,,,6,8,7,7,,,,,,,,,,,1327.8066,1328.3085,1328.559,1332.9854,space,4.4071,,1332.9855,41,14,1333.9884,1333.9884,1333.9977,,,,0,21,21,21,1,115,170,,,,,,,,
,,6594e0c8679c1dee303c33b8,65af5804cbfd19b26dc0c460,2024-01-23_07h09.25.487,bars,2023.2.3,MacIntel,59.88023952,657b66ea316d21385b68909f,,,,,,,,,,,1333.9979,1334.9879,,,1335.4888,1335.7393,,0,0,,,,,,,,,,,,,,,,bars/016.png,bars/mask006.png,,,,,,,,,,,,5,2,,,,,,,4,10,5,10,,,,,,,,,,,1334.9879,1335.4887,1335.7393,1342.1848,space,6.4347,,1342.1849,40,15,1343.1883,1343.1883,1343.1979,,,,0,22,22,22,1,40,165,,,,,,,,
,,6594e0c8679c1dee303c33b8,65af5804cbfd19b26dc0c460,2024-01-23_07h09.25.487,bars,2023.2.3,MacIntel,59.88023952,657b66ea316d21385b68909f,,,,,,,,,,,1343.1981,1344.1885,,,1344.6919,1344.9402,,134,134,,,,,,,,,,,,,,,,bars/004.png,bars/mask006.png,,,,,,,,,,,,6,2,,,,,,,6,8,7,9,,,,,,,,,,,1344.1885,1344.6919,1344.9403,1348.367,space,3.4163,,1348.367,71,9,1349.366,1349.366,1349.3782,,,,0,23,23,23,1,25,125,,,,,,,,
,,6594e0c8679c1dee303c33b8,65af5804cbfd19b26dc0c460,2024-01-23_07h09.25.487,bars,2023.2.3,MacIntel,59.88023952,657b66ea316d21385b68909f,,,,,,,,,,,1349.3784,1350.3678,,,1350.8687,1351.1193,,168,168,,,,,,,,,,,,,,,,bars/033.png,bars/mask008.png,,,,,,,,,,,,6,2,,,,,,,8,10,9,10,,,,,,,,,,,1350.3678,1350.8687,1351.1193,1353.7935,space,2.663,,1353.7935,37,13,1354.7948,1354.7949,1354.8041,,,,0,24,24,24,1,25,155,,,,,,,,
,,6594e0c8679c1dee303c33b8,65af5804cbfd19b26dc0c460,2024-01-23_07h09.25.487,bars,2023.2.3,MacIntel,59.88023952,657b66ea316d21385b68909f,,,,,,,,,,,1354.8044,1355.7963,,,1356.2976,1356.5482,,75,75,,,,,,,,,,,,,,,,bars/034.png,bars/mask004.png,,,,,,,,,,,,6,2,,,,,,,10,8,10,9,,,,,,,,,,,1355.7964,1356.2976,1356.5483,1358.8675,space,2.307,,1358.8676,50,10,1359.8709,1359.8709,1359.88,,,,0,25,25,25,1,125,65,,,,,,,,
,,6594e0c8679c1dee303c33b8,65af5804cbfd19b26dc0c460,2024-01-23_07h09.25.487,bars,2023.2.3,MacIntel,59.88023952,657b66ea316d21385b68909f,,,,,,,,,,,1359.8802,1360.8734,,,1361.3759,1361.6232,,124,124,,,,,,,,,,,,,,,,bars/049.png,bars/mask007.png,,,,,,,,,,,,7,2,,,,,,,10,10,10,10,,,,,,,,,,,1360.8735,1361.3759,1361.6232,1370.1903,space,8.5574,,1370.1903,36,9,1371.1789,1371.179,1371.1888,,,,0,26,26,26,1,160,115,,,,,,,,
,,6594e0c8679c1dee303c33b8,65af5804cbfd19b26dc0c460,2024-01-23_07h09.25.487,bars,2023.2.3,MacIntel,59.88023952,657b66ea316d21385b68909f,,,,,,,,,,,1371.189,1372.1775,,,1372.6658,1372.9125,,57,57,,,,,,,,,,,,,,,,bars/030.png,bars/mask002.png,,,,,,,,,,,,7,2,,,,,,,8,10,7,10,,,,,,,,,,,1372.1775,1372.6657,1372.9126,1379.4588,space,6.5268,,1379.4588,83,8,1380.4611,1380.4611,1380.472,,,,0,27,27,27,1,140,65,,,,,,,,
,,6594e0c8679c1dee303c33b8,65af5804cbfd19b26dc0c460,2024-01-23_07h09.25.487,bars,2023.2.3,MacIntel,59.88023952,657b66ea316d21385b68909f,,,,,,,,,,,1380.4721,1381.4657,,,1381.9636,1382.2156,,52,52,,,,,,,,,,,,,,,,bars/025.png,bars/mask003.png,,,,,,,,,,,,4,2,,,,,,,10,8,10,7,,,,,,,,,,,1381.4657,1381.9635,1382.2156,1389.7458,space,7.5141,,1389.7458,53,12,1390.7483,1390.7483,1390.7601,,,,0,28,28,28,1,105,40,,,,,,,,
,,6594e0c8679c1dee303c33b8,65af5804cbfd19b26dc0c460,2024-01-23_07h09.25.487,bars,2023.2.3,MacIntel,59.88023952,657b66ea316d21385b68909f,,,,,,,,,,,1390.7604,1391.7497,,,1392.2379,1392.4846,,40,40,,,,,,,,,,,,,,,,bars/043.png,bars/mask008.png,,,,,,,,,,,,7,1,,,,,,,10,6,10,5,,,,,,,,,,,1391.7497,1392.2379,1392.4846,1395.0241,space,2.5282,,1395.0242,10,90,1396.0256,1396.0256,1396.0356,,,,0,29,29,29,1,30,130,,,,,,,,
,,6594e0c8679c1dee303c33b8,65af5804cbfd19b26dc0c460,2024-01-23_07h09.25.487,bars,2023.2.3,MacIntel,59.88023952,657b66ea316d21385b68909f,,,,,,,,,,,1396.0358,1397.0287,,,1397.5281,1397.7783,,22,22,,,,,,,,,,,,,,,,bars/043.png,bars/mask009.png,,,,,,,,,,,,5,1,,,,,,,8,8,7,8,,,,,,,,,,,1397.0287,1397.528,1397.7783,1409.4701,space,11.6675,,1409.4701,8,72,1410.4737,1410.4737,1410.4829,,,,0,30,30,30,1,30,130,,,,,,,,
,,6594e0c8679c1dee303c33b8,65af5804cbfd19b26dc0c460,2024-01-23_07h09.25.487,bars,2023.2.3,MacIntel,59.88023952,657b66ea316d21385b68909f,,,,,,,,,,,1410.4832,1411.4717,,,1411.9777,1412.2232,,130,130,,,,,,,,,,,,,,,,bars/034.png,bars/mask008.png,,,,,,,,,,,,4,1,,,,,,,6,10,5,10,,,,,,,,,,,1411.4718,1411.9776,1412.2233,1417.9035,space,5.669,,1417.9035,5,65,1418.9032,1418.9032,1418.9127,,,,0,31,31,31,1,125,65,,,,,,,,
,,6594e0c8679c1dee303c33b8,65af5804cbfd19b26dc0c460,2024-01-23_07h09.25.487,bars,2023.2.3,MacIntel,59.88023952,657b66ea316d21385b68909f,,,,,,,,,,,1418.9129,1419.9051,,,1420.4064,1420.6558,,111,111,,,,,,,,,,,,,,,,bars/025.png,bars/mask006.png,,,,,,,,,,,,3,1,,,,,,,4,10,4,10,,,,,,,,,,,1419.9051,1420.4064,1420.6559,1427.8391,space,7.1708,,1427.8391,6,71,1428.839,1428.8391,1428.8502,,,,0,32,32,32,1,105,40,,,,,,,,
,,6594e0c8679c1dee303c33b8,65af5804cbfd19b26dc0c460,2024-01-23_07h09.25.487,bars,2023.2.3,MacIntel,59.88023952,657b66ea316d21385b68909f,,,,,,,,,,,1428.8505,1429.8415,,,1430.3427,1430.5927,,73,73,,,,,,,,,,,,,,,,bars/042.png,bars/mask009.png,,,,,,,,,,,,9,2,,,,,,,6,10,5,10,,,,,,,,,,,1429.8416,1430.3427,1430.5927,1433.599,space,2.9954,,1433.599,72,2,1434.6003,1434.6004,1434.6107,,,,0,33,33,33,1,145,75,,,,,,,,
,,6594e0c8679c1dee303c33b8,65af5804cbfd19b26dc0c460,2024-01-23_07h09.25.487,bars,2023.2.3,MacIntel,59.88023952,657b66ea316d21385b68909f,,,,,,,,,,,1434.6109,1435.6042,,,1436.1042,1436.3545,,9,189,,,,,,,,,,,,,,,,bars/048.png,bars/mask009.png,,,,,,,,,,,,5,2,,,,,,,4,10,3,10,,,,,,,,,,,1435.6042,1436.1042,1436.3546,1445.823,space,9.4518,,1445.823,41,14,1446.8257,1446.8257,1446.8352,,,,0,34,34,34,1,50,175,,,,,,,,
,,6594e0c8679c1dee303c33b8,65af5804cbfd19b26dc0c460,2024-01-23_07h09.25.487,bars,2023.2.3,MacIntel,59.88023952,657b66ea316d21385b68909f,,,,,,,,,,,1446.8355,1447.8283,,,1448.3301,1448.5779,,48,48,,,,,,,,,,,,,,,,bars/017.png,bars/mask004.png,,,,,,,,,,,,6,2,,,,,,,6,8,6,7,,,,,,,,,,,1447.8283,1448.3301,1448.5779,1451.5679,space,2.9797,,1451.5679,83,3,1452.5563,1452.5564,1452.5655,,,,0,35,35,35,1,145,45,,,,,,,,
,,6594e0c8679c1dee303c33b8,65af5804cbfd19b26dc0c460,2024-01-23_07h09.25.487,bars,2023.2.3,MacIntel,59.88023952,657b66ea316d21385b68909f,,,,,,,,,,,1452.5657,1453.5562,,,1454.0558,1454.307,,93,93,,,,,,,,,,,,,,,,bars/019.png,bars/mask002.png,,,,,,,,,,,,6,2,,,,,,,8,10,9,10,,,,,,,,,,,1453.5563,1454.0558,1454.307,1458.1324,space,3.8037,,1458.1324,48,12,1459.1324,1459.1324,1459.1427,,,,0,36,36,36,1,45,105,,,,,,,,
,,6594e0c8679c1dee303c33b8,65af5804cbfd19b26dc0c460,2024-01-23_07h09.25.487,bars,2023.2.3,MacIntel,59.88023952,657b66ea316d21385b68909f,,,,,,,,,,,1459.1429,1460.1347,,,1460.6367,1460.8868,,173,173,,,,,,,,,,,,,,,,bars/044.png,bars/mask001.png,,,,,,,,,,,,4,2,,,,,,,10,8,10,9,,,,,,,,,,,1460.1347,1460.6367,1460.8869,1466.163,space,5.2606,,1466.163,82,18,1467.1646,1467.1646,1467.174,,,,0,37,37,37,1,75,155,,,,,,,,
,,6594e0c8679c1dee303c33b8,65af5804cbfd19b26dc0c460,2024-01-23_07h09.25.487,bars,2023.2.3,MacIntel,59.88023952,657b66ea316d21385b68909f,,,,,,,,,,,1467.1742,1468.1666,,,1468.668,1468.9058,,72,72,,,,,,,,,,,,,,,,bars/012.png,bars/mask001.png,,,,,,,,,,,,3,1,,,,,,,8,10,7,10,,,,,,,,,,,1468.1667,1468.668,1468.9059,1473.4609,space,4.5448,,1473.4609,18,57,1474.4625,1474.4625,1474.4723,,,,0,38,38,38,1,90,15,,,,,,,,
,,6594e0c8679c1dee303c33b8,65af5804cbfd19b26dc0c460,2024-01-23_07h09.25.487,bars,2023.2.3,MacIntel,59.88023952,657b66ea316d21385b68909f,,,,,,,,,,,1474.4725,1475.4647,,,1475.9702,1476.2161,,109,109,,,,,,,,,,,,,,,,bars/041.png,bars/mask000.png,,,,,,,,,,,,2,2,,,,,,,6,10,5,10,,,,,,,,,,,1475.4647,1475.9702,1476.2161,1479.7245,space,3.4938,,1479.7245,89,24,1480.7244,1480.7245,1480.7345,,,,0,39,39,39,1,20,85,,,,,,,,
,,6594e0c8679c1dee303c33b8,65af5804cbfd19b26dc0c460,2024-01-23_07h09.25.487,bars,2023.2.3,MacIntel,59.88023952,657b66ea316d21385b68909f,,,,,,,,,,,1480.7346,1481.7268,,,1482.2277,1482.4783,,25,205,,,,,,,,,,,,,,,,bars/036.png,bars/mask000.png,,,,,,,,,,,,8,2,,,,,,,4,10,2,10,,,,,,,,,,,1481.7269,1482.2277,1482.4783,1489.2607,space,6.7612,,1489.2608,60,5,1490.2634,1490.2634,1490.2755,,,,0,40,40,40,1,145,20,,,,,,,,
,,6594e0c8679c1dee303c33b8,65af5804cbfd19b26dc0c460,2024-01-23_07h09.25.487,bars,2023.2.3,MacIntel,59.88023952,657b66ea316d21385b68909f,,,,,,,,,,,1490.2757,1491.2791,,,1491.78,1492.0323,,13,13,,,,,,,,,,,,,,,,bars/016.png,bars/mask006.png,,,,,,,,,,,,0,1,,,,,,,6,10,5,10,,,,,,,,,,,1491.2792,1491.78,1492.0323,1497.6083,space,5.5621,,1497.6084,27,28,1498.6119,1498.612,1498.6224,,,,0,41,41,41,1,40,165,,,,,,,,
,,6594e0c8679c1dee303c33b8,65af5804cbfd19b26dc0c460,2024-01-23_07h09.25.487,bars,2023.2.3,MacIntel,59.88023952,657b66ea316d21385b68909f,,,,,,,,,,,1498.6226,1499.6122,,,1500.1151,1500.3655,,53,53,,,,,,,,,,,,,,,,bars/048.png,bars/mask000.png,,,,,,,,,,,,4,1,,,,,,,4,10,4,10,,,,,,,,,,,1499.6122,1500.1151,1500.3655,1503.4199,space,3.0424,,1503.4199,3,58,1504.4218,1504.4219,1504.4336,,,,0,42,42,42,1,50,175,,,,,,,,
,,6594e0c8679c1dee303c33b8,65af5804cbfd19b26dc0c460,2024-01-23_07h09.25.487,bars,2023.2.3,MacIntel,59.88023952,657b66ea316d21385b68909f,,,,,,,,,,,1504.4337,1505.4256,,,1505.9246,1506.177,,10,10,,,,,,,,,,,,,,,,bars/035.png,bars/mask000.png,,,,,,,,,,,,1,1,,,,,,,2,10,1,9,,,,,,,,,,,1505.4257,1505.9246,1506.1771,1509.4988,space,3.3069,,1509.4989,15,50,1510.5002,1510.5002,1510.5117,,,,0,43,43,43,1,175,60,,,,,,,,
,,6594e0c8679c1dee303c33b8,65af5804cbfd19b26dc0c460,2024-01-23_07h09.25.487,bars,2023.2.3,MacIntel,59.88023952,657b66ea316d21385b68909f,,,,,,,,,,,1510.5119,1511.5042,,,1512.0033,1512.2542,,134,134,,,,,,,,,,,,,,,,bars/004.png,bars/mask005.png,,,,,,,,,,,,4,2,,,,,,,0,8,0,6,,,,,,,,,,,1511.5042,1512.0032,1512.2543,1517.4316,space,5.1609,,1517.4317,71,9,1518.4332,1518.4332,1518.4457,,,,0,44,44,44,1,25,125,,,,,,,,
,,6594e0c8679c1dee303c33b8,65af5804cbfd19b26dc0c460,2024-01-23_07h09.25.487,bars,2023.2.3,MacIntel,59.88023952,657b66ea316d21385b68909f,,,,,,,,,,,1518.4459,1519.4363,,,1519.9377,1520.186,,15,195,,,,,,,,,,,,,,,,bars/032.png,bars/mask005.png,,,,,,,,,,,,8,2,,,,,,,0,10,1,10,,,,,,,,,,,1519.4364,1519.9376,1520.186,1530.2244,space,10.0259,,1530.2244,70,5,1531.2254,1531.2255,1531.2349,,,,0,45,45,45,1,125,20,,,,,,,,
,,6594e0c8679c1dee303c33b8,65af5804cbfd19b26dc0c460,2024-01-23_07h09.25.487,bars,2023.2.3,MacIntel,59.88023952,657b66ea316d21385b68909f,,,,,,,,,,,1531.235,1532.228,,,1532.7275,1532.9802,,140,140,,,,,,,,,,,,,,,,bars/004.png,bars/mask005.png,,,,,,,,,,,,5,2,,,,,,,2,10,2,10,,,,,,,,,,,1532.228,1532.7275,1532.9802,1534.3497,space,1.3573,,1534.3498,65,15,1535.3496,1535.3496,1535.3613,,,,0,46,46,46,1,25,125,,,,,,,,
,,6594e0c8679c1dee303c33b8,65af5804cbfd19b26dc0c460,2024-01-23_07h09.25.487,bars,2023.2.3,MacIntel,59.88023952,657b66ea316d21385b68909f,,,,,,,,,,,1535.3614,1536.3532,,,1536.8525,1537.1042,,121,121,,,,,,,,,,,,,,,,bars/027.png,bars/mask002.png,,,,,,,,,,,,1,1,,,,,,,0,10,1,10,,,,,,,,,,,1536.3532,1536.8525,1537.1042,1542.7807,space,5.6635,,1542.7807,11,71,1543.785,1543.785,1543.7959,,,,0,47,47,47,1,110,50,,,,,,,,
,,6594e0c8679c1dee303c33b8,65af5804cbfd19b26dc0c460,2024-01-23_07h09.25.487,bars,2023.2.3,MacIntel,59.88023952,657b66ea316d21385b68909f,,,,,,,,,,,1543.7961,1544.7844,,,1545.2855,1545.5362,,176,176,,,,,,,,,,,,,,,,bars/044.png,bars/mask003.png,,,,,,,,,,,,3,2,,,,,,,2,10,2,10,,,,,,,,,,,1544.7844,1545.2855,1545.5362,1546.7721,space,1.2182,,1546.7721,79,21,1547.7747,1547.7748,1547.7765,,,,0,48,48,48,1,75,155,,,,,,,,
,,6594e0c8679c1dee303c33b8,65af5804cbfd19b26dc0c460,2024-01-23_07h09.25.487,bars,2023.2.3,MacIntel,59.88023952,657b66ea316d21385b68909f,,,,,,,,,,,1547.7768,1548.7766,,,1549.2773,1549.5293,,39,219,,,,,,,,,,,,,,,,bars/045.png,bars/mask008.png,,,,,,,,,,,,0,2,,,,,,,0,10,0,8,,,,,,,,,,,1548.7767,1549.2772,1549.5293,1555.2737,space,5.7287,,1555.2738,61,29,1556.2742,1556.2743,1556.2838,,,,0,49,49,49,1,100,10,,,,,,,,
,,6594e0c8679c1dee303c33b8,65af5804cbfd19b26dc0c460,2024-01-23_07h09.25.487,bars,2023.2.3,MacIntel,59.88023952,657b66ea316d21385b68909f,,,,,,,,,,,,,,,,,,,,,,,,,,,,,,,,,,,,,,,,,,,,,,,,,,,,,,,,,,,,,,,,,,,,,,,,,,,,,,,,,,,,,,,,,,,,,1556.284,1616.2776,0,1,1,2,1,sequence_tables/blk031.csv
,,6594e0c8679c1dee303c33b8,65af5804cbfd19b26dc0c460,2024-01-23_07h09.25.487,bars,2023.2.3,MacIntel,59.88023952,657b66ea316d21385b68909f,,,,,,,,,,,1624.3242,1625.3109,,,1625.8123,1626.0615,,67,67,,,,,,,,,,,,,,,,bars/038.png,bars/mask000.png,,,,,,,,,,,,5,2,,,,,,,2,7,0,6,,,,,,1616.2891,1624.3108,space,8.0123,,1625.3109,1625.8123,1626.0615,1633.593,space,7.5166,,1633.593,82,3,1634.5962,1634.5962,1634.6057,,,,0,0,0,0,1,165,70,,,,,,,,
,,6594e0c8679c1dee303c33b8,65af5804cbfd19b26dc0c460,2024-01-23_07h09.25.487,bars,2023.2.3,MacIntel,59.88023952,657b66ea316d21385b68909f,,,,,,,,,,,1634.6058,1635.5972,,,1636.0984,1636.3486,,135,135,,,,,,,,,,,,,,,,bars/049.png,bars/mask005.png,,,,,,,,,,,,3,2,,,,,,,0,9,1,10,,,,,,,,,,,1635.5973,1636.0984,1636.3487,1640.3901,space,4.0182,,1640.3902,25,20,1641.3917,1641.3918,1641.4034,,,,0,1,1,1,1,160,115,,,,,,,,
,,6594e0c8679c1dee303c33b8,65af5804cbfd19b26dc0c460,2024-01-23_07h09.25.487,bars,2023.2.3,MacIntel,59.88023952,657b66ea316d21385b68909f,,,,,,,,,,,1641.4035,1642.3952,,,1642.8951,1643.1468,,58,58,,,,,,,,,,,,,,,,bars/026.png,bars/mask009.png,,,,,,,,,,,,0,1,,,,,,,0,7,1,7,,,,,,,,,,,1642.3953,1642.8951,1643.1468,1648.5235,space,5.3614,,1648.5236,23,27,1649.5247,1649.5248,1649.5372,,,,0,2,2,2,1,35,85,,,,,,,,
,,6594e0c8679c1dee303c33b8,65af5804cbfd19b26dc0c460,2024-01-23_07h09.25.487,bars,2023.2.3,MacIntel,59.88023952,657b66ea316d21385b68909f,,,,,,,,,,,1649.5373,1650.5269,,,1651.0282,1651.2787,,103,103,,,,,,,,,,,,,,,,bars/041.png,bars/mask009.png,,,,,,,,,,,,4,2,,,,,,,2,9,1,9,,,,,,,,,,,1650.527,1651.0282,1651.2787,1654.7015,space,3.4064,,1654.7016,83,18,1655.7051,1655.7051,1655.7154,,,,0,3,3,3,1,20,85,,,,,,,,
,,6594e0c8679c1dee303c33b8,65af5804cbfd19b26dc0c460,2024-01-23_07h09.25.487,bars,2023.2.3,MacIntel,59.88023952,657b66ea316d21385b68909f,,,,,,,,,,,1655.7155,1656.7069,,,1657.2079,1657.4579,,163,163,,,,,,,,,,,,,,,,bars/024.png,bars/mask000.png,,,,,,,,,,,,8,2,,,,,,,4,10,4,10,,,,,,,,,,,1656.7069,1657.2079,1657.4579,1661.5148,space,4.0464,,1661.5149,43,7,1662.5171,1662.5171,1662.5285,,,,0,4,4,4,1,120,170,,,,,,,,
,,6594e0c8679c1dee303c33b8,65af5804cbfd19b26dc0c460,2024-01-23_07h09.25.487,bars,2023.2.3,MacIntel,59.88023952,657b66ea316d21385b68909f,,,,,,,,,,,1662.5286,1663.5183,,,1664.0199,1664.2704,,136,136,,,,,,,,,,,,,,,,bars/028.png,bars/mask003.png,,,,,,,,,,,,5,2,,,,,,,2,10,0,10,,,,,,,,,,,1663.5183,1664.0199,1664.2705,1675.1932,space,10.9039,,1675.1933,89,16,1676.1957,1676.1957,1676.2053,,,,0,5,5,5,1,45,120,,,,,,,,
,,6594e0c8679c1dee303c33b8,65af5804cbfd19b26dc0c460,2024-01-23_07h09.25.487,bars,2023.2.3,MacIntel,59.88023952,657b66ea316d21385b68909f,,,,,,,,,,,1676.2056,1677.1961,,,1677.6986,1677.9486,,57,237,,,,,,,,,,,,,,,,bars/035.png,bars/mask007.png,,,,,,,,,,,,8,2,,,,,,,4,10,5,9,,,,,,,,,,,1677.1962,1677.6985,1677.9486,1686.8317,space,8.868,,1686.8317,62,3,1687.8333,1687.8333,1687.8461,,,,0,6,6,6,1,175,60,,,,,,,,
,,6594e0c8679c1dee303c33b8,65af5804cbfd19b26dc0c460,2024-01-23_07h09.25.487,bars,2023.2.3,MacIntel,59.88023952,657b66ea316d21385b68909f,,,,,,,,,,,1687.8464,1688.8375,,,1689.3376,1689.5883,,62,62,,,,,,,,,,,,,,,,bars/038.png,bars/mask006.png,,,,,,,,,,,,6,2,,,,,,,2,8,2,8,,,,,,,,,,,1688.8376,1689.3376,1689.5883,1691.8107,space,2.2002,,1691.8108,77,8,1692.8101,1692.8101,1692.8222,,,,0,7,7,7,1,165,70,,,,,,,,
,,6594e0c8679c1dee303c33b8,65af5804cbfd19b26dc0c460,2024-01-23_07h09.25.487,bars,2023.2.3,MacIntel,59.88023952,657b66ea316d21385b68909f,,,,,,,,,,,1692.8224,1693.8132,,,1694.3137,1694.5642,,29,29,,,,,,,,,,,,,,,,bars/029.png,bars/mask009.png,,,,,,,,,,,,5,2,,,,,,,0,10,0,10,,,,,,,,,,,1693.8132,1694.3136,1694.5642,1699.2229,space,4.6383,,1699.223,61,16,1700.2264,1700.2264,1700.2384,,,,0,8,8,8,1,90,45,,,,,,,,
,,6594e0c8679c1dee303c33b8,65af5804cbfd19b26dc0c460,2024-01-23_07h09.25.487,bars,2023.2.3,MacIntel,59.88023952,657b66ea316d21385b68909f,,,,,,,,,,,1700.2386,1701.2267,,,1701.7297,1701.9777,,158,-22,,,,,,,,,,,,,,,,bars/016.png,bars/mask005.png,,,,,,,,,,,,6,2,,,,,,,2,8,2,8,,,,,,,,,,,1701.2268,1701.7297,1701.9778,1712.1322,space,10.1386,,1712.1322,62,7,1713.1348,1713.1349,1713.1448,,,,0,9,9,9,1,40,165,,,,,,,,
,,6594e0c8679c1dee303c33b8,65af5804cbfd19b26dc0c460,2024-01-23_07h09.25.487,bars,2023.2.3,MacIntel,59.88023952,657b66ea316d21385b68909f,,,,,,,,,,,1713.145,1714.137,,,1714.6377,1714.8874,,59,239,,,,,,,,,,,,,,,,bars/035.png,bars/mask003.png,,,,,,,,,,,,10,2,,,,,,,0,10,0,10,,,,,,,,,,,1714.137,1714.6377,1714.8875,1722.8695,space,7.9602,,1722.8695,64,1,1723.8716,1723.8716,1723.8837,,,,0,10,10,10,1,175,60,,,,,,,,
,,6594e0c8679c1dee303c33b8,65af5804cbfd19b26dc0c460,2024-01-23_07h09.25.487,bars,2023.2.3,MacIntel,59.88023952,657b66ea316d21385b68909f,,,,,,,,,,,1723.8839,1724.8742,,,1725.3744,1725.6261,,79,79,,,,,,,,,,,,,,,,bars/006.png,bars/mask002.png,,,,,,,,,,,,2,2,,,,,,,0,8,1,8,,,,,,,,,,,1724.8742,1725.3744,1725.6261,1729.3502,space,3.711,,1729.3503,44,21,1730.3509,1730.351,1730.3629,,,,0,11,11,11,1,35,100,,,,,,,,
,,6594e0c8679c1dee303c33b8,65af5804cbfd19b26dc0c460,2024-01-23_07h09.25.487,bars,2023.2.3,MacIntel,59.88023952,657b66ea316d21385b68909f,,,,,,,,,,,1730.363,1731.3528,,,1731.8537,1732.1041,,162,162,,,,,,,,,,,,,,,,bars/010.png,bars/mask001.png,,,,,,,,,,,,1,1,,,,,,,0,6,1,5,,,,,,,,,,,1731.3528,1731.8536,1732.1041,1738.4349,space,6.3103,,1738.4349,3,73,1739.4355,1739.4355,1739.4467,,,,0,12,12,12,1,165,55,,,,,,,,
,,6594e0c8679c1dee303c33b8,65af5804cbfd19b26dc0c460,2024-01-23_07h09.25.487,bars,2023.2.3,MacIntel,59.88023952,657b66ea316d21385b68909f,,,,,,,,,,,1739.4468,1740.4372,,,1740.9385,1741.1889,,105,105,,,,,,,,,,,,,,,,bars/009.png,bars/mask005.png,,,,,,,,,,,,2,2,,,,,,,2,4,3,2,,,,,,,,,,,1740.4372,1740.9384,1741.189,1743.8624,space,2.6564,,1743.8625,90,0,1744.8643,1744.8644,1744.8773,,,,0,13,13,13,1,15,105,,,,,,,,
,,6594e0c8679c1dee303c33b8,65af5804cbfd19b26dc0c460,2024-01-23_07h09.25.487,bars,2023.2.3,MacIntel,59.88023952,657b66ea316d21385b68909f,,,,,,,,,,,1744.8775,1745.8657,,,1746.3669,1746.6176,,62,62,,,,,,,,,,,,,,,,bars/026.png,bars/mask000.png,,,,,,,,,,,,0,2,,,,,,,0,2,0,1,,,,,,,,,,,1745.8657,1746.3668,1746.6176,1748.6548,space,2.0211,,1748.6548,27,23,1749.6552,1749.6552,1749.6557,,,,0,14,14,14,1,35,85,,,,,,,,
,,6594e0c8679c1dee303c33b8,65af5804cbfd19b26dc0c460,2024-01-23_07h09.25.487,bars,2023.2.3,MacIntel,59.88023952,657b66ea316d21385b68909f,,,,,,,,,,,1749.656,1750.6576,,,1751.1586,1751.409,,157,157,,,,,,,,,,,,,,,,bars/016.png,bars/mask006.png,,,,,,,,,,,,1,2,,,,,,,2,0,2,1,,,,,,,,,,,1750.6577,1751.1585,1751.409,1754.0494,space,2.6169,,1754.0494,63,8,1755.0493,1755.0493,1755.0584,,,,0,15,15,15,1,40,165,,,,,,,,
,,6594e0c8679c1dee303c33b8,65af5804cbfd19b26dc0c460,2024-01-23_07h09.25.487,bars,2023.2.3,MacIntel,59.88023952,657b66ea316d21385b68909f,,,,,,,,,,,1755.0586,1756.0523,,,1756.553,1756.803,,37,37,,,,,,,,,,,,,,,,bars/003.png,bars/mask001.png,,,,,,,,,,,,0,1,,,,,,,0,2,0,3,,,,,,,,,,,1756.0523,1756.553,1756.803,1760.1764,space,3.3508,,1760.1765,12,77,1761.181,1761.181,1761.1946,,,,0,16,16,16,1,25,140,,,,,,,,
,,6594e0c8679c1dee303c33b8,65af5804cbfd19b26dc0c460,2024-01-23_07h09.25.487,bars,2023.2.3,MacIntel,59.88023952,657b66ea316d21385b68909f,,,,,,,,,,,1761.1949,1762.1977,,,1762.6979,1762.9484,,68,68,,,,,,,,,,,,,,,,bars/026.png,bars/mask003.png,,,,,,,,,,,,0,2,,,,,,,2,0,2,0,,,,,,,,,,,1762.1978,1762.6978,1762.9484,1770.615,space,7.649,,1770.615,33,17,1771.6173,1771.6174,1771.6305,,,,0,17,17,17,1,35,85,,,,,,,,
,,6594e0c8679c1dee303c33b8,65af5804cbfd19b26dc0c460,2024-01-23_07h09.25.487,bars,2023.2.3,MacIntel,59.88023952,657b66ea316d21385b68909f,,,,,,,,,,,1771.6308,1772.6184,,,1773.1189,1773.371,,46,46,,,,,,,,,,,,,,,,bars/044.png,bars/mask001.png,,,,,,,,,,,,0,1,,,,,,,4,2,5,1,,,,,,,,,,,1772.6184,1773.1189,1773.371,1778.6803,space,5.2935,,1778.6804,29,71,1779.6814,1779.6814,1779.6916,,,,0,18,18,18,1,75,155,,,,,,,,
,,6594e0c8679c1dee303c33b8,65af5804cbfd19b26dc0c460,2024-01-23_07h09.25.487,bars,2023.2.3,MacIntel,59.88023952,657b66ea316d21385b68909f,,,,,,,,,,,1779.6918,1780.6848,,,1781.1859,1781.4364,,69,249,,,,,,,,,,,,,,,,bars/017.png,bars/mask002.png,,,,,,,,,,,,1,2,,,,,,,2,4,3,5,,,,,,,,,,,1780.6848,1781.1859,1781.4364,1789.5024,space,8.0442,,1789.5024,76,24,1790.5045,1790.5047,1790.5151,,,,0,19,19,19,1,145,45,,,,,,,,
,,6594e0c8679c1dee303c33b8,65af5804cbfd19b26dc0c460,2024-01-23_07h09.25.487,bars,2023.2.3,MacIntel,59.88023952,657b66ea316d21385b68909f,,,,,,,,,,,1790.5154,1791.5048,,,1792.0072,1792.2572,,136,-44,,,,,,,,,,,,,,,,bars/037.png,bars/mask009.png,,,,,,,,,,,,2,1,,,,,,,4,6,4,8,,,,,,,,,,,1791.5048,1792.0072,1792.2572,1803.9135,space,11.6347,,1803.9136,14,31,1804.9145,1804.9145,1804.9247,,,,0,20,20,20,1,150,105,,,,,,,,
,,6594e0c8679c1dee303c33b8,65af5804cbfd19b26dc0c460,2024-01-23_07h09.25.487,bars,2023.2.3,MacIntel,59.88023952,657b66ea316d21385b68909f,,,,,,,,,,,1804.9249,1805.916,,,1806.4183,1806.6683,,127,127,,,,,,,,,,,,,,,,bars/032.png,bars/mask009.png,,,,,,,,,,,,3,1,,,,,,,2,4,3,4,,,,,,,,,,,1805.916,1806.4183,1806.6683,1812.2458,space,5.559,,1812.2458,2,73,1813.2476,1813.2476,1813.2598,,,,0,21,21,21,1,125,20,,,,,,,,
,,6594e0c8679c1dee303c33b8,65af5804cbfd19b26dc0c460,2024-01-23_07h09.25.487,bars,2023.2.3,MacIntel,59.88023952,657b66ea316d21385b68909f,,,,,,,,,,,1813.2601,1814.2496,,,1814.7503,1815.0029,,114,114,,,,,,,,,,,,,,,,bars/025.png,bars/mask002.png,,,,,,,,,,,,2,1,,,,,,,4,2,3,2,,,,,,,,,,,1814.2496,1814.7503,1815.003,1817.8905,space,2.8783,,1817.8905,9,74,1818.8922,1818.8923,1818.9022,,,,0,22,22,22,1,105,40,,,,,,,,
,,6594e0c8679c1dee303c33b8,65af5804cbfd19b26dc0c460,2024-01-23_07h09.25.487,bars,2023.2.3,MacIntel,59.88023952,657b66ea316d21385b68909f,,,,,,,,,,,1818.9025,1819.8942,,,1820.3949,1820.6455,,42,42,,,,,,,,,,,,,,,,bars/030.png,bars/mask003.png,,,,,,,,,,,,1,2,,,,,,,2,4,1,3,,,,,,,,,,,1819.8942,1820.3949,1820.6456,1825.607,space,4.9371,,1825.6071,82,23,1826.6087,1826.6087,1826.6187,,,,0,23,23,23,1,140,65,,,,,,,,
,,6594e0c8679c1dee303c33b8,65af5804cbfd19b26dc0c460,2024-01-23_07h09.25.487,bars,2023.2.3,MacIntel,59.88023952,657b66ea316d21385b68909f,,,,,,,,,,,1826.6189,1827.6093,,,1828.111,1828.3606,,30,30,,,,,,,,,,,,,,,,bars/016.png,bars/mask003.png,,,,,,,,,,,,0,1,,,,,,,0,2,0,3,,,,,,,,,,,1827.6093,1828.111,1828.3606,1832.4853,space,4.1091,,1832.4854,10,45,1833.4738,1833.4738,1833.4859,,,,0,24,24,24,1,40,165,,,,,,,,
,,6594e0c8679c1dee303c33b8,65af5804cbfd19b26dc0c460,2024-01-23_07h09.25.487,bars,2023.2.3,MacIntel,59.88023952,657b66ea316d21385b68909f,,,,,,,,,,,1833.4861,1834.4896,,,1834.9915,1835.2421,,62,62,,,,,,,,,,,,,,,,bars/029.png,bars/mask003.png,,,,,,,,,,,,0,2,,,,,,,2,0,4,0,,,,,,,,,,,1834.4896,1834.9915,1835.2421,1838.0483,space,2.7832,,1838.0483,28,17,1839.0496,1839.0497,1839.0598,,,,0,25,25,25,1,90,45,,,,,,,,
,,6594e0c8679c1dee303c33b8,65af5804cbfd19b26dc0c460,2024-01-23_07h09.25.487,bars,2023.2.3,MacIntel,59.88023952,657b66ea316d21385b68909f,,,,,,,,,,,1839.0601,1840.0502,,,1840.5531,1840.8037,,142,142,,,,,,,,,,,,,,,,bars/021.png,bars/mask009.png,,,,,,,,,,,,1,1,,,,,,,0,0,1,1,,,,,,,,,,,1840.0502,1840.5531,1840.8037,1843.9745,space,3.1502,,1843.9745,13,72,1844.977,1844.977,1844.9897,,,,0,26,26,26,1,155,70,,,,,,,,
,,6594e0c8679c1dee303c33b8,65af5804cbfd19b26dc0c460,2024-01-23_07h09.25.487,bars,2023.2.3,MacIntel,59.88023952,657b66ea316d21385b68909f,,,,,,,,,,,1844.9898,1845.9786,,,1846.4821,1846.7304,,31,31,,,,,,,,,,,,,,,,bars/009.png,bars/mask002.png,,,,,,,,,,,,1,1,,,,,,,2,0,3,0,,,,,,,,,,,1845.9786,1846.482,1846.7305,1849.1187,space,2.3723,,1849.1187,16,74,1850.1215,1850.1215,1850.1306,,,,0,27,27,27,1,15,105,,,,,,,,
,,6594e0c8679c1dee303c33b8,65af5804cbfd19b26dc0c460,2024-01-23_07h09.25.487,bars,2023.2.3,MacIntel,59.88023952,657b66ea316d21385b68909f,,,,,,,,,,,1850.1308,1851.1238,,,1851.6232,1851.8737,,154,154,,,,,,,,,,,,,,,,bars/003.png,bars/mask004.png,,,,,,,,,,,,1,2,,,,,,,0,2,0,2,,,,,,,,,,,1851.1238,1851.6232,1851.8737,1854.1134,space,2.2196,,1854.1134,51,14,1855.1139,1855.1139,1855.1266,,,,0,28,28,28,1,25,140,,,,,,,,
,,6594e0c8679c1dee303c33b8,65af5804cbfd19b26dc0c460,2024-01-23_07h09.25.487,bars,2023.2.3,MacIntel,59.88023952,657b66ea316d21385b68909f,,,,,,,,,,,1855.1268,1856.1152,,,1856.6176,1856.8682,,164,164,,,,,,,,,,,,,,,,bars/007.png,bars/mask003.png,,,,,,,,,,,,0,1,,,,,,,0,0,0,0,,,,,,,,,,,1856.1152,1856.6175,1856.8682,1864.9,space,8.0198,,1864.9001,11,71,1865.9029,1865.9029,1865.9132,,,,0,29,29,29,1,175,55,,,,,,,,
,,6594e0c8679c1dee303c33b8,65af5804cbfd19b26dc0c460,2024-01-23_07h09.25.487,bars,2023.2.3,MacIntel,59.88023952,657b66ea316d21385b68909f,,,,,,,,,,,1865.9134,1866.9038,,,1867.4042,1867.6547,,38,218,,,,,,,,,,,,,,,,bars/036.png,bars/mask009.png,,,,,,,,,,,,0,2,,,,,,,0,0,1,0,,,,,,,,,,,1866.9038,1867.4042,1867.6547,1877.393,space,9.7186,,1877.393,73,18,1878.3938,1878.3938,1878.4039,,,,0,30,30,30,1,145,20,,,,,,,,
,,6594e0c8679c1dee303c33b8,65af5804cbfd19b26dc0c460,2024-01-23_07h09.25.487,bars,2023.2.3,MacIntel,59.88023952,657b66ea316d21385b68909f,,,,,,,,,,,1878.4041,1879.3959,,,1879.8959,1880.1472,,121,121,,,,,,,,,,,,,,,,bars/018.png,bars/mask004.png,,,,,,,,,,,,0,1,,,,,,,2,0,2,2,,,,,,,,,,,1879.3959,1879.8959,1880.1472,1887.9796,space,7.8209,,1887.9797,29,31,1888.9801,1888.9801,1888.9903,,,,0,31,31,31,1,150,90,,,,,,,,
,,6594e0c8679c1dee303c33b8,65af5804cbfd19b26dc0c460,2024-01-23_07h09.25.487,bars,2023.2.3,MacIntel,59.88023952,657b66ea316d21385b68909f,,,,,,,,,,,1888.9904,1889.9842,,,1890.4831,1890.7349,,174,174,,,,,,,,,,,,,,,,bars/033.png,bars/mask000.png,,,,,,,,,,,,0,2,,,,,,,4,2,4,1,,,,,,,,,,,1889.9842,1890.4831,1890.7349,1896.5621,space,5.8172,,1896.5621,31,19,1897.5639,1897.5639,1897.5751,,,,0,32,32,32,1,25,155,,,,,,,,
,,6594e0c8679c1dee303c33b8,65af5804cbfd19b26dc0c460,2024-01-23_07h09.25.487,bars,2023.2.3,MacIntel,59.88023952,657b66ea316d21385b68909f,,,,,,,,,,,1897.5753,1898.5667,,,1899.0672,1899.3175,,159,-21,,,,,,,,,,,,,,,,bars/035.png,bars/mask003.png,,,,,,,,,,,,3,1,,,,,,,6,4,7,4,,,,,,,,,,,1898.5667,1899.0672,1899.3175,1905.1122,space,5.7782,,1905.1122,16,81,1906.1164,1906.1164,1906.1265,,,,0,33,33,33,1,175,60,,,,,,,,
,,6594e0c8679c1dee303c33b8,65af5804cbfd19b26dc0c460,2024-01-23_07h09.25.487,bars,2023.2.3,MacIntel,59.88023952,657b66ea316d21385b68909f,,,,,,,,,,,1906.1266,1907.1185,,,1907.6178,1907.8692,,51,51,,,,,,,,,,,,,,,,bars/043.png,bars/mask000.png,,,,,,,,,,,,2,1,,,,,,,8,2,8,2,,,,,,,,,,,1907.1185,1907.6177,1907.8693,1913.0446,space,5.1635,,1913.0446,21,79,1914.0461,1914.0461,1914.0552,,,,0,34,34,34,1,30,130,,,,,,,,
,,6594e0c8679c1dee303c33b8,65af5804cbfd19b26dc0c460,2024-01-23_07h09.25.487,bars,2023.2.3,MacIntel,59.88023952,657b66ea316d21385b68909f,,,,,,,,,,,1914.0555,1915.0495,,,1915.5506,1915.8012,,50,50,,,,,,,,,,,,,,,,bars/028.png,bars/mask001.png,,,,,,,,,,,,8,1,,,,,,,10,0,10,0,,,,,,,,,,,1915.0495,1915.5506,1915.8013,1921.6962,space,5.88,,1921.6962,5,70,1922.6974,1922.6975,1922.7067,,,,0,35,35,35,1,45,120,,,,,,,,
,,6594e0c8679c1dee303c33b8,65af5804cbfd19b26dc0c460,2024-01-23_07h09.25.487,bars,2023.2.3,MacIntel,59.88023952,657b66ea316d21385b68909f,,,,,,,,,,,1922.707,1923.7002,,,1924.1999,1924.4501,,10,10,,,,,,,,,,,,,,,,bars/047.png,bars/mask005.png,,,,,,,,,,,,8,1,,,,,,,8,0,9,0,,,,,,,,,,,1923.7003,1924.1999,1924.4501,1926.6714,space,2.2062,,1926.6715,5,60,1927.6745,1927.6746,1927.6862,,,,0,36,36,36,1,15,70,,,,,,,,
,,6594e0c8679c1dee303c33b8,65af5804cbfd19b26dc0c460,2024-01-23_07h09.25.487,bars,2023.2.3,MacIntel,59.88023952,657b66ea316d21385b68909f,,,,,,,,,,,1927.6865,1928.6759,,,1929.1776,1929.4269,,146,146,,,,,,,,,,,,,,,,bars/017.png,bars/mask001.png,,,,,,,,,,,,9,1,,,,,,,10,2,9,3,,,,,,,,,,,1928.6759,1929.1776,1929.4269,1932.8514,space,3.4028,,1932.8514,1,79,1933.8519,1933.8519,1933.8614,,,,0,37,37,37,1,145,45,,,,,,,,
,,6594e0c8679c1dee303c33b8,65af5804cbfd19b26dc0c460,2024-01-23_07h09.25.487,bars,2023.2.3,MacIntel,59.88023952,657b66ea316d21385b68909f,,,,,,,,,,,1933.8615,1934.856,,,1935.3553,1935.6059,,119,119,,,,,,,,,,,,,,,,bars/002.png,bars/mask003.png,,,,,,,,,,,,6,1,,,,,,,8,0,9,0,,,,,,,,,,,1934.856,1935.3553,1935.6059,1941.2662,space,5.6494,,1941.2662,11,34,1942.2686,1942.2687,1942.2781,,,,0,38,38,38,1,130,85,,,,,,,,
,,6594e0c8679c1dee303c33b8,65af5804cbfd19b26dc0c460,2024-01-23_07h09.25.487,bars,2023.2.3,MacIntel,59.88023952,657b66ea316d21385b68909f,,,,,,,,,,,1942.2783,1943.2714,,,1943.7718,1944.0235,,144,144,,,,,,,,,,,,,,,,bars/042.png,bars/mask006.png,,,,,,,,,,,,10,1,,,,,,,10,0,10,0,,,,,,,,,,,1943.2714,1943.7718,1944.0235,1951.0868,space,7.0484,,1951.0868,1,69,1952.0895,1952.0895,1952.0989,,,,0,39,39,39,1,145,75,,,,,,,,
,,6594e0c8679c1dee303c33b8,65af5804cbfd19b26dc0c460,2024-01-23_07h09.25.487,bars,2023.2.3,MacIntel,59.88023952,657b66ea316d21385b68909f,,,,,,,,,,,1952.0991,1953.0903,,,1953.5911,1953.8415,,130,130,,,,,,,,,,,,,,,,bars/015.png,bars/mask005.png,,,,,,,,,,,,3,1,,,,,,,10,0,10,0,,,,,,,,,,,1953.0903,1953.5911,1953.8415,1962.1275,space,8.2628,,1962.1276,20,30,1963.1266,1963.1266,1963.1358,,,,0,40,40,40,1,110,160,,,,,,,,
,,6594e0c8679c1dee303c33b8,65af5804cbfd19b26dc0c460,2024-01-23_07h09.25.487,bars,2023.2.3,MacIntel,59.88023952,657b66ea316d21385b68909f,,,,,,,,,,,1963.1359,1964.1309,,,1964.6316,1964.8821,,97,97,,,,,,,,,,,,,,,,bars/018.png,bars/mask004.png,,,,,,,,,,,,0,2,,,,,,,8,0,6,0,,,,,,,,,,,1964.1309,1964.6315,1964.8822,1972.6473,space,7.7423,,1972.6474,53,7,1973.6492,1973.6492,1973.662,,,,0,41,41,41,1,150,90,,,,,,,,
,,6594e0c8679c1dee303c33b8,65af5804cbfd19b26dc0c460,2024-01-23_07h09.25.487,bars,2023.2.3,MacIntel,59.88023952,657b66ea316d21385b68909f,,,,,,,,,,,1973.6623,1974.6681,,,1975.167,1975.4177,,33,213,,,,,,,,,,,,,,,,bars/023.png,bars/mask005.png,,,,,,,,,,,,6,1,,,,,,,10,2,10,3,,,,,,,,,,,1974.6682,1975.167,1975.4177,1982.1472,space,6.7156,,1982.1473,13,82,1983.1497,1983.1497,1983.1618,,,,0,42,42,42,1,20,115,,,,,,,,
,,6594e0c8679c1dee303c33b8,65af5804cbfd19b26dc0c460,2024-01-23_07h09.25.487,bars,2023.2.3,MacIntel,59.88023952,657b66ea316d21385b68909f,,,,,,,,,,,1983.162,1984.152,,,1984.6521,1984.903,,29,29,,,,,,,,,,,,,,,,bars/004.png,bars/mask008.png,,,,,,,,,,,,8,1,,,,,,,8,4,9,4,,,,,,,,,,,1984.1521,1984.6521,1984.9031,1987.8421,space,2.9277,,1987.8421,4,84,1988.8444,1988.8444,1988.8539,,,,0,43,43,43,1,25,125,,,,,,,,
,,6594e0c8679c1dee303c33b8,65af5804cbfd19b26dc0c460,2024-01-23_07h09.25.487,bars,2023.2.3,MacIntel,59.88023952,657b66ea316d21385b68909f,,,,,,,,,,,1988.8541,1989.8477,,,1990.349,1990.5979,,123,123,,,,,,,,,,,,,,,,bars/031.png,bars/mask004.png,,,,,,,,,,,,8,1,,,,,,,10,2,9,1,,,,,,,,,,,1989.8478,1990.349,1990.598,1998.7139,space,8.1036,,1998.7139,3,88,1999.7162,1999.7163,1999.7256,,,,0,44,44,44,1,120,35,,,,,,,,
,,6594e0c8679c1dee303c33b8,65af5804cbfd19b26dc0c460,2024-01-23_07h09.25.487,bars,2023.2.3,MacIntel,59.88023952,657b66ea316d21385b68909f,,,,,,,,,,,1999.7258,2000.7175,,,2001.2183,2001.4694,,121,121,,,,,,,,,,,,,,,,bars/032.png,bars/mask003.png,,,,,,,,,,,,7,1,,,,,,,8,0,8,0,,,,,,,,,,,2000.7175,2001.2183,2001.4694,2003.5061,space,2.0164,,2003.5061,4,79,2004.5084,2004.5084,2004.5182,,,,0,45,45,45,1,125,20,,,,,,,,
,,6594e0c8679c1dee303c33b8,65af5804cbfd19b26dc0c460,2024-01-23_07h09.25.487,bars,2023.2.3,MacIntel,59.88023952,657b66ea316d21385b68909f,,,,,,,,,,,2004.5184,2005.5123,,,2006.0114,2006.2634,,102,102,,,,,,,,,,,,,,,,bars/031.png,bars/mask005.png,,,,,,,,,,,,3,1,,,,,,,6,0,8,1,,,,,,,,,,,2005.5123,2006.0113,2006.2634,2011.6895,space,5.4105,,2011.6896,18,67,2012.6939,2012.6939,2012.7029,,,,0,46,46,46,1,120,35,,,,,,,,
,,6594e0c8679c1dee303c33b8,65af5804cbfd19b26dc0c460,2024-01-23_07h09.25.487,bars,2023.2.3,MacIntel,59.88023952,657b66ea316d21385b68909f,,,,,,,,,,,2012.7031,2013.6931,,,2014.1961,2014.4443,,147,147,,,,,,,,,,,,,,,,bars/003.png,bars/mask006.png,,,,,,,,,,,,0,2,,,,,,,8,0,7,0,,,,,,,,,,,2013.6931,2014.196,2014.4443,2022.345,space,7.8835,,2022.345,58,7,2023.3454,2023.3454,2023.3556,,,,0,47,47,47,1,25,140,,,,,,,,
,,6594e0c8679c1dee303c33b8,65af5804cbfd19b26dc0c460,2024-01-23_07h09.25.487,bars,2023.2.3,MacIntel,59.88023952,657b66ea316d21385b68909f,,,,,,,,,,,2023.3558,2024.3476,,,2024.8486,2025.0989,,129,-51,,,,,,,,,,,,,,,,bars/040.png,bars/mask000.png,,,,,,,,,,,,4,1,,,,,,,6,2,6,3,,,,,,,,,,,2024.3477,2024.8486,2025.099,2031.7132,space,6.5998,,2031.7132,11,56,2032.714,2032.714,2032.7259,,,,0,48,48,48,1,140,5,,,,,,,,
,,6594e0c8679c1dee303c33b8,65af5804cbfd19b26dc0c460,2024-01-23_07h09.25.487,bars,2023.2.3,MacIntel,59.88023952,657b66ea316d21385b68909f,,,,,,,,,,,2032.7262,2033.716,,,2034.2166,2034.4672,,137,137,,,,,,,,,,,,,,,,bars/005.png,bars/mask000.png,,,,,,,,,,,,3,2,,,,,,,4,4,4,3,,,,,,,,,,,2033.716,2034.2166,2034.4673,2037.7405,space,3.2579,,2037.7405,53,3,2038.7423,2038.7423,2038.7522,,,,0,49,49,49,1,10,140,,,,,,,,
,,6594e0c8679c1dee303c33b8,65af5804cbfd19b26dc0c460,2024-01-23_07h09.25.487,bars,2023.2.3,MacIntel,59.88023952,657b66ea316d21385b68909f,,,,,,,,,,,,,,,,,,,,,,,,,,,,,,,,,,,,,,,,,,,,,,,,,,,,,,,,,,,,,,,,,,,,,,,,,,,,,,,,,,,,,,,,,,,,,2038.7525,2079.9257,0,2,2,0,1,sequence_tables/blk019.csv
,,6594e0c8679c1dee303c33b8,65af5804cbfd19b26dc0c460,2024-01-23_07h09.25.487,bars,2023.2.3,MacIntel,59.88023952,657b66ea316d21385b68909f,,,,,,,,,,,2081.4661,2082.4629,,,2082.9643,2083.2149,,137,137,,,,,,,,,,,,,,,,bars/000.png,bars/mask001.png,,,,,,,,,,,,5,2,,,,,,,10,7,10,7,,,,,,2079.9348,2081.4603,space,1.5149,,2082.463,2082.9643,2083.215,2084.8362,space,1.6028,,2084.8363,83,8,2085.8389,2085.8389,2085.8396,,,,0,0,0,0,1,40,145,,,,,,,,
,,6594e0c8679c1dee303c33b8,65af5804cbfd19b26dc0c460,2024-01-23_07h09.25.487,bars,2023.2.3,MacIntel,59.88023952,657b66ea316d21385b68909f,,,,,,,,,,,2085.8398,2086.8389,,,2087.3388,2087.5904,,53,53,,,,,,,,,,,,,,,,bars/047.png,bars/mask004.png,,,,,,,,,,,,3,2,,,,,,,8,9,8,8,,,,,,,,,,,2086.839,2087.3388,2087.5904,2095.4883,space,7.8814,,2095.4884,38,17,2096.4918,2096.4918,2096.5037,,,,0,1,1,1,1,15,70,,,,,,,,
,,6594e0c8679c1dee303c33b8,65af5804cbfd19b26dc0c460,2024-01-23_07h09.25.487,bars,2023.2.3,MacIntel,59.88023952,657b66ea316d21385b68909f,,,,,,,,,,,2096.5039,2097.4936,,,2097.9937,2098.2429,,59,59,,,,,,,,,,,,,,,,bars/026.png,bars/mask008.png,,,,,,,,,,,,1,1,,,,,,,6,7,4,7,,,,,,,,,,,2097.4937,2097.9937,2098.243,2102.6706,space,4.4157,,2102.6706,24,26,2103.6706,2103.6706,2103.6837,,,,0,2,2,2,1,35,85,,,,,,,,
,,6594e0c8679c1dee303c33b8,65af5804cbfd19b26dc0c460,2024-01-23_07h09.25.487,bars,2023.2.3,MacIntel,59.88023952,657b66ea316d21385b68909f,,,,,,,,,,,2103.684,2104.6744,,,2105.1735,2105.4242,,26,26,,,,,,,,,,,,,,,,bars/036.png,bars/mask001.png,,,,,,,,,,,,8,2,,,,,,,8,9,8,10,,,,,,,,,,,2104.6744,2105.1734,2105.4242,2114.2747,space,8.844,,2114.2747,61,6,2115.2627,2115.2628,2115.2732,,,,0,3,3,3,1,145,20,,,,,,,,
,,6594e0c8679c1dee303c33b8,65af5804cbfd19b26dc0c460,2024-01-23_07h09.25.487,bars,2023.2.3,MacIntel,59.88023952,657b66ea316d21385b68909f,,,,,,,,,,,2115.2733,2116.2618,,,2116.7627,2117.0156,,136,136,,,,,,,,,,,,,,,,bars/043.png,bars/mask006.png,,,,,,,,,,,,6,2,,,,,,,10,7,9,7,,,,,,,,,,,2116.2619,2116.7627,2117.0156,2120.6709,space,3.6419,,2120.6709,74,6,2121.6729,2121.6729,2121.6826,,,,0,4,4,4,1,30,130,,,,,,,,
,,6594e0c8679c1dee303c33b8,65af5804cbfd19b26dc0c460,2024-01-23_07h09.25.487,bars,2023.2.3,MacIntel,59.88023952,657b66ea316d21385b68909f,,,,,,,,,,,2121.6828,2122.6762,,,2123.1757,2123.426,,108,108,,,,,,,,,,,,,,,,bars/001.png,bars/mask000.png,,,,,,,,,,,,2,1,,,,,,,8,5,8,7,,,,,,,,,,,2122.6762,2123.1756,2123.426,2129.9892,space,6.554,,2129.9893,22,23,2130.9914,2130.9914,2131.0035,,,,0,5,5,5,1,130,85,,,,,,,,
,,6594e0c8679c1dee303c33b8,65af5804cbfd19b26dc0c460,2024-01-23_07h09.25.487,bars,2023.2.3,MacIntel,59.88023952,657b66ea316d21385b68909f,,,,,,,,,,,2131.0037,2131.9929,,,2132.4938,2132.7457,,53,53,,,,,,,,,,,,,,,,bars/033.png,bars/mask007.png,,,,,,,,,,,,1,1,,,,,,,10,3,10,3,,,,,,,,,,,2131.9929,2132.4938,2132.7458,2136.235,space,3.4678,,2136.2351,28,78,2137.2382,2137.2383,2137.2474,,,,0,6,6,6,1,25,155,,,,,,,,
,,6594e0c8679c1dee303c33b8,65af5804cbfd19b26dc0c460,2024-01-23_07h09.25.487,bars,2023.2.3,MacIntel,59.88023952,657b66ea316d21385b68909f,,,,,,,,,,,2137.2476,2138.2401,,,2138.7411,2138.9909,,17,197,,,,,,,,,,,,,,,,bars/012.png,bars/mask001.png,,,,,,,,,,,,2,2,,,,,,,8,5,6,2,,,,,,,,,,,2138.2401,2138.7411,2138.9909,2145.5556,space,6.5432,,2145.5556,73,2,2146.5547,2146.5547,2146.5669,,,,0,7,7,7,1,90,15,,,,,,,,
,,6594e0c8679c1dee303c33b8,65af5804cbfd19b26dc0c460,2024-01-23_07h09.25.487,bars,2023.2.3,MacIntel,59.88023952,657b66ea316d21385b68909f,,,,,,,,,,,2146.5672,2147.5585,,,2148.0592,2148.3086,,12,192,,,,,,,,,,,,,,,,bars/024.png,bars/mask003.png,,,,,,,,,,,,1,2,,,,,,,10,3,10,2,,,,,,,,,,,2147.5585,2148.0592,2148.3086,2154.9058,space,6.5862,,2154.9059,72,22,2155.8938,2155.8939,2155.9038,,,,0,8,8,8,1,120,170,,,,,,,,
,,6594e0c8679c1dee303c33b8,65af5804cbfd19b26dc0c460,2024-01-23_07h09.25.487,bars,2023.2.3,MacIntel,59.88023952,657b66ea316d21385b68909f,,,,,,,,,,,2155.9039,2156.8921,,,2157.3933,2157.6437,,134,-46,,,,,,,,,,,,,,,,bars/018.png,bars/mask008.png,,,,,,,,,,,,5,1,,,,,,,10,1,10,3,,,,,,,,,,,2156.8921,2157.3933,2157.6437,2163.6894,space,6.0287,,2163.6894,16,44,2164.6922,2164.6923,2164.7025,,,,0,9,9,9,1,150,90,,,,,,,,
,,6594e0c8679c1dee303c33b8,65af5804cbfd19b26dc0c460,2024-01-23_07h09.25.487,bars,2023.2.3,MacIntel,59.88023952,657b66ea316d21385b68909f,,,,,,,,,,,2164.7028,2165.6955,,,2166.1962,2166.4444,,40,40,,,,,,,,,,,,,,,,bars/000.png,bars/mask005.png,,,,,,,,,,,,9,1,,,,,,,8,0,9,0,,,,,,,,,,,2165.6955,2166.1962,2166.4444,2169.9684,space,3.5125,,2169.9684,0,75,2170.9718,2170.9719,2170.981,,,,0,10,10,10,1,40,145,,,,,,,,
,,6594e0c8679c1dee303c33b8,65af5804cbfd19b26dc0c460,2024-01-23_07h09.25.487,bars,2023.2.3,MacIntel,59.88023952,657b66ea316d21385b68909f,,,,,,,,,,,2170.9813,2171.9733,,,2172.4732,2172.723,,153,-27,,,,,,,,,,,,,,,,bars/017.png,bars/mask008.png,,,,,,,,,,,,5,1,,,,,,,6,2,7,2,,,,,,,,,,,2171.9734,2172.4732,2172.7231,2177.9201,space,5.1839,,2177.9201,8,72,2178.9202,2178.9202,2178.9308,,,,0,11,11,11,1,145,45,,,,,,,,
,,6594e0c8679c1dee303c33b8,65af5804cbfd19b26dc0c460,2024-01-23_07h09.25.487,bars,2023.2.3,MacIntel,59.88023952,657b66ea316d21385b68909f,,,,,,,,,,,2178.931,2179.9212,,,2180.4258,2180.6763,,134,134,,,,,,,,,,,,,,,,bars/036.png,bars/mask007.png,,,,,,,,,,,,6,1,,,,,,,8,0,9,0,,,,,,,,,,,2179.9212,2180.4257,2180.6763,2185.3984,space,4.7049,,2185.3984,11,66,2186.4005,2186.4005,2186.4125,,,,0,12,12,12,1,145,20,,,,,,,,
,,6594e0c8679c1dee303c33b8,65af5804cbfd19b26dc0c460,2024-01-23_07h09.25.487,bars,2023.2.3,MacIntel,59.88023952,657b66ea316d21385b68909f,,,,,,,,,,,2186.4127,2187.4024,,,2187.9044,2188.1541,,143,143,,,,,,,,,,,,,,,,bars/021.png,bars/mask009.png,,,,,,,,,,,,5,1,,,,,,,10,2,9,0,,,,,,,,,,,2187.4025,2187.9043,2188.1541,2192.4648,space,4.291,,2192.4649,12,73,2193.4657,2193.4658,2193.4748,,,,0,13,13,13,1,155,70,,,,,,,,
,,6594e0c8679c1dee303c33b8,65af5804cbfd19b26dc0c460,2024-01-23_07h09.25.487,bars,2023.2.3,MacIntel,59.88023952,657b66ea316d21385b68909f,,,,,,,,,,,2193.475,2194.4661,,,2194.9709,2195.2183,,144,-36,,,,,,,,,,,,,,,,bars/046.png,bars/mask002.png,,,,,,,,,,,,6,1,,,,,,,8,4,10,6,,,,,,,,,,,2194.4661,2194.9709,2195.2183,2199.5264,space,4.2923,,2199.5264,11,59,2200.5278,2200.5278,2200.5383,,,,0,14,14,14,1,155,85,,,,,,,,
,,6594e0c8679c1dee303c33b8,65af5804cbfd19b26dc0c460,2024-01-23_07h09.25.487,bars,2023.2.3,MacIntel,59.88023952,657b66ea316d21385b68909f,,,,,,,,,,,2200.5385,2201.5306,,,2202.0314,2202.2819,,32,212,,,,,,,,,,,,,,,,bars/023.png,bars/mask000.png,,,,,,,,,,,,6,1,,,,,,,10,2,10,3,,,,,,,,,,,2201.5306,2202.0314,2202.2819,2207.4762,space,5.1861,,2207.4762,12,83,2208.4788,2208.4788,2208.4893,,,,0,15,15,15,1,20,115,,,,,,,,
,,6594e0c8679c1dee303c33b8,65af5804cbfd19b26dc0c460,2024-01-23_07h09.25.487,bars,2023.2.3,MacIntel,59.88023952,657b66ea316d21385b68909f,,,,,,,,,,,2208.4894,2209.4792,,,2209.9834,2210.2314,,103,103,,,,,,,,,,,,,,,,bars/022.png,bars/mask002.png,,,,,,,,,,,,5,1,,,,,,,8,0,7,0,,,,,,,,,,,2209.4793,2209.9834,2210.2314,2217.4451,space,7.1979,,2217.4452,8,83,2218.4492,2218.4492,2218.4615,,,,0,16,16,16,1,95,20,,,,,,,,
,,6594e0c8679c1dee303c33b8,65af5804cbfd19b26dc0c460,2024-01-23_07h09.25.487,bars,2023.2.3,MacIntel,59.88023952,657b66ea316d21385b68909f,,,,,,,,,,,2218.4618,2219.4495,,,2219.9509,2220.2002,,30,30,,,,,,,,,,,,,,,,bars/043.png,bars/mask000.png,,,,,,,,,,,,10,1,,,,,,,10,0,10,0,,,,,,,,,,,2219.4495,2219.9508,2220.2002,2225.7108,space,5.5007,,2225.7108,0,80,2226.7134,2226.7134,2226.7224,,,,0,17,17,17,1,30,130,,,,,,,,
,,6594e0c8679c1dee303c33b8,65af5804cbfd19b26dc0c460,2024-01-23_07h09.25.487,bars,2023.2.3,MacIntel,59.88023952,657b66ea316d21385b68909f,,,,,,,,,,,2226.7226,2227.7164,,,2228.2176,2228.4682,,145,145,,,,,,,,,,,,,,,,bars/010.png,bars/mask005.png,,,,,,,,,,,,3,1,,,,,,,10,2,9,4,,,,,,,,,,,2227.7164,2228.2176,2228.4683,2236.5175,space,8.0336,,2236.5176,20,90,2237.5208,2237.5209,2237.5304,,,,0,18,18,18,1,165,55,,,,,,,,
,,6594e0c8679c1dee303c33b8,65af5804cbfd19b26dc0c460,2024-01-23_07h09.25.487,bars,2023.2.3,MacIntel,59.88023952,657b66ea316d21385b68909f,,,,,,,,,,,2237.5306,2238.5216,,,2239.0229,2239.2719,,19,199,,,,,,,,,,,,,,,,bars/005.png,bars/mask006.png,,,,,,,,,,,,7,1,,,,,,,10,4,10,4,,,,,,,,,,,2238.5217,2239.0229,2239.2719,2247.5724,space,8.283,,2247.5724,9,59,2248.5729,2248.5729,2248.5824,,,,0,19,19,19,1,10,140,,,,,,,,
,,6594e0c8679c1dee303c33b8,65af5804cbfd19b26dc0c460,2024-01-23_07h09.25.487,bars,2023.2.3,MacIntel,59.88023952,657b66ea316d21385b68909f,,,,,,,,,,,2248.5825,2249.5777,,,2250.0777,2250.3302,,113,-67,,,,,,,,,,,,,,,,bars/040.png,bars/mask003.png,,,,,,,,,,,,1,1,,,,,,,10,6,9,6,,,,,,,,,,,2249.5778,2250.0777,2250.3302,2259.0127,space,8.6672,,2259.0127,27,72,2260.0144,2260.0144,2260.0236,,,,0,20,20,20,1,140,5,,,,,,,,
,,6594e0c8679c1dee303c33b8,65af5804cbfd19b26dc0c460,2024-01-23_07h09.25.487,bars,2023.2.3,MacIntel,59.88023952,657b66ea316d21385b68909f,,,,,,,,,,,2260.0238,2261.014,,,2261.5148,2261.7698,,26,26,,,,,,,,,,,,,,,,bars/013.png,bars/mask005.png,,,,,,,,,,,,1,2,,,,,,,8,4,7,2,,,,,,,,,,,2261.014,2261.5148,2261.7698,2264.855,space,3.0729,,2264.855,49,16,2265.8603,2265.8603,2265.8704,,,,0,21,21,21,1,75,10,,,,,,,,
,,6594e0c8679c1dee303c33b8,65af5804cbfd19b26dc0c460,2024-01-23_07h09.25.487,bars,2023.2.3,MacIntel,59.88023952,657b66ea316d21385b68909f,,,,,,,,,,,2265.8706,2266.8609,,,2267.3603,2267.6106,,49,49,,,,,,,,,,,,,,,,bars/045.png,bars/mask008.png,,,,,,,,,,,,0,2,,,,,,,10,6,9,8,,,,,,,,,,,2266.8609,2267.3602,2267.6106,2277.3301,space,9.7142,,2277.3302,51,39,2278.319,2278.319,2278.3302,,,,0,22,22,22,1,100,10,,,,,,,,
,,6594e0c8679c1dee303c33b8,65af5804cbfd19b26dc0c460,2024-01-23_07h09.25.487,bars,2023.2.3,MacIntel,59.88023952,657b66ea316d21385b68909f,,,,,,,,,,,2278.3304,2279.3187,,,2279.8224,2280.0687,,5,5,,,,,,,,,,,,,,,,bars/049.png,bars/mask007.png,,,,,,,,,,,,2,1,,,,,,,10,4,10,2,,,,,,,,,,,2279.3187,2279.8224,2280.0688,2287.0672,space,6.9867,,2287.0673,25,70,2288.0681,2288.0682,2288.0781,,,,0,23,23,23,1,160,115,,,,,,,,
,,6594e0c8679c1dee303c33b8,65af5804cbfd19b26dc0c460,2024-01-23_07h09.25.487,bars,2023.2.3,MacIntel,59.88023952,657b66ea316d21385b68909f,,,,,,,,,,,2288.0782,2289.0693,,,2289.5705,2289.8213,,148,148,,,,,,,,,,,,,,,,bars/017.png,bars/mask005.png,,,,,,,,,,,,9,1,,,,,,,10,2,10,2,,,,,,,,,,,2289.0694,2289.5705,2289.8213,2291.4751,space,1.6312,,2291.4752,3,77,2292.4763,2292.4764,2292.4856,,,,0,24,24,24,1,145,45,,,,,,,,
,,6594e0c8679c1dee303c33b8,65af5804cbfd19b26dc0c460,2024-01-23_07h09.25.487,bars,2023.2.3,MacIntel,59.88023952,657b66ea316d21385b68909f,,,,,,,,,,,2292.4858,2293.478,,,2293.9793,2294.2311,,58,58,,,,,,,,,,,,,,,,bars/003.png,bars/mask006.png,,,,,,,,,,,,0,1,,,,,,,8,4,7,4,,,,,,,,,,,2293.478,2293.9793,2294.2311,2297.1524,space,2.9075,,2297.1524,33,82,2298.1543,2298.1544,2298.1652,,,,0,25,25,25,1,25,140,,,,,,,,
,,6594e0c8679c1dee303c33b8,65af5804cbfd19b26dc0c460,2024-01-23_07h09.25.487,bars,2023.2.3,MacIntel,59.88023952,657b66ea316d21385b68909f,,,,,,,,,,,2298.1654,2299.1574,,,2299.6582,2299.9079,,24,204,,,,,,,,,,,,,,,,bars/036.png,bars/mask000.png,,,,,,,,,,,,5,2,,,,,,,10,6,10,6,,,,,,,,,,,2299.1575,2299.6582,2299.9079,2310.6135,space,10.6902,,2310.6136,59,4,2311.6148,2311.6149,2311.6251,,,,0,26,26,26,1,145,20,,,,,,,,
,,6594e0c8679c1dee303c33b8,65af5804cbfd19b26dc0c460,2024-01-23_07h09.25.487,bars,2023.2.3,MacIntel,59.88023952,657b66ea316d21385b68909f,,,,,,,,,,,2311.6253,2312.6172,,,2313.117,2313.3694,,57,57,,,,,,,,,,,,,,,,bars/029.png,bars/mask000.png,,,,,,,,,,,,5,2,,,,,,,10,8,10,8,,,,,,,,,,,2312.6172,2313.117,2313.3695,2318.5456,space,5.1617,,2318.5457,33,12,2319.5466,2319.5466,2319.5582,,,,0,27,27,27,1,90,45,,,,,,,,
,,6594e0c8679c1dee303c33b8,65af5804cbfd19b26dc0c460,2024-01-23_07h09.25.487,bars,2023.2.3,MacIntel,59.88023952,657b66ea316d21385b68909f,,,,,,,,,,,2319.5584,2320.5486,,,2321.0505,2321.3001,,124,124,,,,,,,,,,,,,,,,bars/037.png,bars/mask009.png,,,,,,,,,,,,3,2,,,,,,,8,10,10,9,,,,,,,,,,,2320.5487,2321.0505,2321.3001,2327.0961,space,5.7776,,2327.0961,26,19,2328.0965,2328.0965,2328.1071,,,,0,28,28,28,1,150,105,,,,,,,,
,,6594e0c8679c1dee303c33b8,65af5804cbfd19b26dc0c460,2024-01-23_07h09.25.487,bars,2023.2.3,MacIntel,59.88023952,657b66ea316d21385b68909f,,,,,,,,,,,2328.1072,2329.0999,,,2329.6014,2329.8504,,36,36,,,,,,,,,,,,,,,,bars/045.png,bars/mask003.png,,,,,,,,,,,,1,2,,,,,,,10,10,10,10,,,,,,,,,,,2329.0999,2329.6014,2329.8504,2332.0379,space,2.1658,,2332.0379,64,26,2333.0416,2333.0417,2333.0527,,,,0,29,29,29,1,100,10,,,,,,,,
,,6594e0c8679c1dee303c33b8,65af5804cbfd19b26dc0c460,2024-01-23_07h09.25.487,bars,2023.2.3,MacIntel,59.88023952,657b66ea316d21385b68909f,,,,,,,,,,,2333.0528,2334.0418,,,2334.5425,2334.793,,132,-48,,,,,,,,,,,,,,,,bars/018.png,bars/mask008.png,,,,,,,,,,,,2,1,,,,,,,8,10,6,10,,,,,,,,,,,2334.0418,2334.5425,2334.793,2342.4416,space,7.6356,,2342.4417,18,42,2343.4433,2343.4433,2343.4559,,,,0,30,30,30,1,150,90,,,,,,,,
,,6594e0c8679c1dee303c33b8,65af5804cbfd19b26dc0c460,2024-01-23_07h09.25.487,bars,2023.2.3,MacIntel,59.88023952,657b66ea316d21385b68909f,,,,,,,,,,,2343.4561,2344.4453,,,2344.9464,2345.197,,56,56,,,,,,,,,,,,,,,,bars/044.png,bars/mask009.png,,,,,,,,,,,,3,1,,,,,,,6,8,8,9,,,,,,,,,,,2344.4453,2344.9464,2345.197,2351.2422,space,6.0328,,2351.2422,19,81,2352.2443,2352.2443,2352.2564,,,,0,31,31,31,1,75,155,,,,,,,,
,,6594e0c8679c1dee303c33b8,65af5804cbfd19b26dc0c460,2024-01-23_07h09.25.487,bars,2023.2.3,MacIntel,59.88023952,657b66ea316d21385b68909f,,,,,,,,,,,2352.2567,2353.2465,,,2353.7479,2353.9977,,133,133,,,,,,,,,,,,,,,,bars/015.png,bars/mask006.png,,,,,,,,,,,,1,1,,,,,,,4,10,4,10,,,,,,,,,,,2353.2465,2353.7479,2353.9978,2362.5314,space,8.5157,,2362.5314,23,27,2363.5346,2363.5346,2363.5449,,,,0,32,32,32,1,110,160,,,,,,,,
,,6594e0c8679c1dee303c33b8,65af5804cbfd19b26dc0c460,2024-01-23_07h09.25.487,bars,2023.2.3,MacIntel,59.88023952,657b66ea316d21385b68909f,,,,,,,,,,,2363.5451,2364.5372,,,2365.0363,2365.2867,,37,217,,,,,,,,,,,,,,,,bars/025.png,bars/mask003.png,,,,,,,,,,,,7,2,,,,,,,2,8,2,8,,,,,,,,,,,2364.5372,2365.0363,2365.2867,2376.1752,space,10.8711,,2376.1752,68,3,2377.1775,2377.1775,2377.1877,,,,0,33,33,33,1,105,40,,,,,,,,
,,6594e0c8679c1dee303c33b8,65af5804cbfd19b26dc0c460,2024-01-23_07h09.25.487,bars,2023.2.3,MacIntel,59.88023952,657b66ea316d21385b68909f,,,,,,,,,,,2377.1879,2378.1788,,,2378.6811,2378.9307,,80,80,,,,,,,,,,,,,,,,bars/046.png,bars/mask006.png,,,,,,,,,,,,5,2,,,,,,,4,6,5,6,,,,,,,,,,,2378.1788,2378.6811,2378.9307,2381.5695,space,2.6168,,2381.5695,75,5,2382.5708,2382.5708,2382.5824,,,,0,34,34,34,1,155,85,,,,,,,,
,,6594e0c8679c1dee303c33b8,65af5804cbfd19b26dc0c460,2024-01-23_07h09.25.487,bars,2023.2.3,MacIntel,59.88023952,657b66ea316d21385b68909f,,,,,,,,,,,2382.5826,2383.574,,,2384.0756,2384.3244,,157,-23,,,,,,,,,,,,,,,,bars/033.png,bars/mask000.png,,,,,,,,,,,,4,2,,,,,,,2,4,2,4,,,,,,,,,,,2383.574,2384.0755,2384.3244,2389.4676,space,5.1292,,2389.4677,48,2,2390.4708,2390.4708,2390.4812,,,,0,35,35,35,1,25,155,,,,,,,,
,,6594e0c8679c1dee303c33b8,65af5804cbfd19b26dc0c460,2024-01-23_07h09.25.487,bars,2023.2.3,MacIntel,59.88023952,657b66ea316d21385b68909f,,,,,,,,,,,2390.4813,2391.4717,,,2391.9725,2392.2232,,144,144,,,,,,,,,,,,,,,,bars/000.png,bars/mask001.png,,,,,,,,,,,,1,2,,,,,,,4,2,4,1,,,,,,,,,,,2391.4718,2391.9725,2392.2232,2394.4443,space,2.2013,,2394.4443,76,1,2395.446,2395.4461,2395.4572,,,,0,36,36,36,1,40,145,,,,,,,,
,,6594e0c8679c1dee303c33b8,65af5804cbfd19b26dc0c460,2024-01-23_07h09.25.487,bars,2023.2.3,MacIntel,59.88023952,657b66ea316d21385b68909f,,,,,,,,,,,2395.4575,2396.4488,,,2396.9491,2397.1995,,151,151,,,,,,,,,,,,,,,,bars/042.png,bars/mask002.png,,,,,,,,,,,,0,1,,,,,,,2,0,0,0,,,,,,,,,,,2396.4488,2396.9491,2397.1995,2403.0614,space,5.8397,,2403.0614,6,76,2404.0625,2404.0625,2404.0727,,,,0,37,37,37,1,145,75,,,,,,,,
,,6594e0c8679c1dee303c33b8,65af5804cbfd19b26dc0c460,2024-01-23_07h09.25.487,bars,2023.2.3,MacIntel,59.88023952,657b66ea316d21385b68909f,,,,,,,,,,,2404.0729,2405.0666,,,2405.5669,2405.8173,,143,-37,,,,,,,,,,,,,,,,bars/004.png,bars/mask008.png,,,,,,,,,,,,1,2,,,,,,,0,0,0,2,,,,,,,,,,,2405.0667,2405.5669,2405.8173,2411.8636,space,6.0216,,2411.8637,62,18,2412.8638,2412.8638,2412.8763,,,,0,38,38,38,1,25,125,,,,,,,,
,,6594e0c8679c1dee303c33b8,65af5804cbfd19b26dc0c460,2024-01-23_07h09.25.487,bars,2023.2.3,MacIntel,59.88023952,657b66ea316d21385b68909f,,,,,,,,,,,2412.8764,2413.8661,,,2414.3687,2414.6186,,112,112,,,,,,,,,,,,,,,,bars/028.png,bars/mask001.png,,,,,,,,,,,,0,2,,,,,,,2,0,2,0,,,,,,,,,,,2413.8661,2414.3686,2414.6186,2421.3638,space,6.7342,,2421.3638,67,8,2422.367,2422.367,2422.3764,,,,0,39,39,39,1,45,120,,,,,,,,
,,6594e0c8679c1dee303c33b8,65af5804cbfd19b26dc0c460,2024-01-23_07h09.25.487,bars,2023.2.3,MacIntel,59.88023952,657b66ea316d21385b68909f,,,,,,,,,,,2422.3766,2423.3679,,,2423.8689,2424.1192,,27,207,,,,,,,,,,,,,,,,bars/010.png,bars/mask007.png,,,,,,,,,,,,0,2,,,,,,,4,0,3,0,,,,,,,,,,,2423.3679,2423.8689,2424.1192,2432.6709,space,8.5369,,2432.6709,42,28,2433.6712,2433.6713,2433.6807,,,,0,40,40,40,1,165,55,,,,,,,,
,,6594e0c8679c1dee303c33b8,65af5804cbfd19b26dc0c460,2024-01-23_07h09.25.487,bars,2023.2.3,MacIntel,59.88023952,657b66ea316d21385b68909f,,,,,,,,,,,2433.6809,2434.6744,,,2435.1747,2435.4252,,82,82,,,,,,,,,,,,,,,,bars/038.png,bars/mask006.png,,,,,,,,,,,,0,2,,,,,,,2,0,3,0,,,,,,,,,,,2434.6744,2435.1747,2435.4252,2437.5962,space,2.1497,,2437.5962,83,12,2438.5986,2438.5987,2438.6095,,,,0,41,41,41,1,165,70,,,,,,,,
,,6594e0c8679c1dee303c33b8,65af5804cbfd19b26dc0c460,2024-01-23_07h09.25.487,bars,2023.2.3,MacIntel,59.88023952,657b66ea316d21385b68909f,,,,,,,,,,,2438.6096,2439.6006,,,2440.1009,2440.3516,,124,124,,,,,,,,,,,,,,,,bars/034.png,bars/mask000.png,,,,,,,,,,,,1,1,,,,,,,0,0,1,0,,,,,,,,,,,2439.6007,2440.1009,2440.3517,2443.9586,space,3.5926,,2443.9587,1,59,2444.9625,2444.9625,2444.9749,,,,0,42,42,42,1,125,65,,,,,,,,
,,6594e0c8679c1dee303c33b8,65af5804cbfd19b26dc0c460,2024-01-23_07h09.25.487,bars,2023.2.3,MacIntel,59.88023952,657b66ea316d21385b68909f,,,,,,,,,,,2444.9751,2445.9793,,,2446.4802,2446.7327,,157,-23,,,,,,,,,,,,,,,,bars/046.png,bars/mask004.png,,,,,,,,,,,,1,1,,,,,,,2,2,1,2,,,,,,,,,,,2445.9793,2446.4802,2446.7327,2451.5901,space,4.8428,,2451.5901,2,72,2452.5941,2452.5942,2452.6059,,,,0,43,43,43,1,155,85,,,,,,,,
,,6594e0c8679c1dee303c33b8,65af5804cbfd19b26dc0c460,2024-01-23_07h09.25.487,bars,2023.2.3,MacIntel,59.88023952,657b66ea316d21385b68909f,,,,,,,,,,,2452.6061,2453.5972,,,2454.0952,2454.3454,,24,24,,,,,,,,,,,,,,,,bars/033.png,bars/mask001.png,,,,,,,,,,,,4,1,,,,,,,4,4,4,3,,,,,,,,,,,2453.5972,2454.0952,2454.3454,2460.943,space,6.5813,,2460.943,1,49,2461.9441,2461.9441,2461.9533,,,,0,44,44,44,1,25,155,,,,,,,,
,,6594e0c8679c1dee303c33b8,65af5804cbfd19b26dc0c460,2024-01-23_07h09.25.487,bars,2023.2.3,MacIntel,59.88023952,657b66ea316d21385b68909f,,,,,,,,,,,2461.9535,2462.9478,,,2463.4471,2463.6971,,90,90,,,,,,,,,,,,,,,,bars/022.png,bars/mask001.png,,,,,,,,,,,,5,1,,,,,,,6,2,6,2,,,,,,,,,,,2462.9478,2463.447,2463.6971,2465.6679,space,1.9548,,2465.6679,5,70,2466.6706,2466.6706,2466.6796,,,,0,45,45,45,1,95,20,,,,,,,,
,,6594e0c8679c1dee303c33b8,65af5804cbfd19b26dc0c460,2024-01-23_07h09.25.487,bars,2023.2.3,MacIntel,59.88023952,657b66ea316d21385b68909f,,,,,,,,,,,2466.6798,2467.6735,,,2468.1742,2468.4231,,40,40,,,,,,,,,,,,,,,,bars/028.png,bars/mask007.png,,,,,,,,,,,,7,1,,,,,,,8,0,8,0,,,,,,,,,,,2467.6735,2468.1742,2468.4232,2473.8678,space,5.426,,2473.8679,5,80,2474.8694,2474.8694,2474.8783,,,,0,46,46,46,1,45,120,,,,,,,,
,,6594e0c8679c1dee303c33b8,65af5804cbfd19b26dc0c460,2024-01-23_07h09.25.487,bars,2023.2.3,MacIntel,59.88023952,657b66ea316d21385b68909f,,,,,,,,,,,2474.8786,2475.8711,,,2476.3726,2476.6231,,152,152,,,,,,,,,,,,,,,,bars/011.png,bars/mask003.png,,,,,,,,,,,,7,1,,,,,,,10,2,9,2,,,,,,,,,,,2475.8711,2476.3725,2476.6231,2479.2958,space,2.6623,,2479.2958,8,67,2480.2985,2480.2985,2480.3075,,,,0,47,47,47,1,160,85,,,,,,,,
,,6594e0c8679c1dee303c33b8,65af5804cbfd19b26dc0c460,2024-01-23_07h09.25.487,bars,2023.2.3,MacIntel,59.88023952,657b66ea316d21385b68909f,,,,,,,,,,,2480.3077,2481.2995,,,2481.8006,2482.05,,103,103,,,,,,,,,,,,,,,,bars/008.png,bars/mask009.png,,,,,,,,,,,,7,1,,,,,,,8,0,9,0,,,,,,,,,,,2481.2996,2481.8006,2482.0501,2492.5725,space,10.5139,,2492.5725,7,77,2493.5729,2493.573,2493.5823,,,,0,48,48,48,1,110,0,,,,,,,,
,,6594e0c8679c1dee303c33b8,65af5804cbfd19b26dc0c460,2024-01-23_07h09.25.487,bars,2023.2.3,MacIntel,59.88023952,657b66ea316d21385b68909f,,,,,,,,,,,2493.5825,2494.5747,,,2495.076,2495.3282,,125,-55,,,,,,,,,,,,,,,,bars/001.png,bars/mask008.png,,,,,,,,,,,,8,1,,,,,,,10,2,9,1,,,,,,,,,,,2494.5748,2495.076,2495.3283,2501.9241,space,6.5839,,2501.9241,5,40,2502.9248,2502.9248,2502.9345,,,,0,49,49,49,1,130,85,,,,,,,,
,,6594e0c8679c1dee303c33b8,65af5804cbfd19b26dc0c460,2024-01-23_07h09.25.487,bars,2023.2.3,MacIntel,59.88023952,657b66ea316d21385b68909f,,,,,,,,,,,,,,,,,,,,,,,,,,,,,,,,,,,,,,,,,,,,,,,,,,,,,,,,,,,,,,,,,,,,,,,,,,,,,,,,,,,,,,,,,,,,,2502.9347,2552.2554,0,3,3,1,1,sequence_tables/blk006.csv
,,6594e0c8679c1dee303c33b8,65af5804cbfd19b26dc0c460,2024-01-23_07h09.25.487,bars,2023.2.3,MacIntel,59.88023952,657b66ea316d21385b68909f,,,,,,,,,,,2553.832,2554.8269,,,2555.3276,2555.5786,,140,140,,,,,,,,,,,,,,,,bars/000.png,bars/mask009.png,,,,,,,,,,,,4,2,,,,,,,5,5,4,5,,,,,,2552.2645,2553.8275,space,1.5391,,2554.827,2555.3276,2555.5787,2563.3443,space,7.7441,,2563.3443,80,5,2564.3462,2564.3462,2564.3591,,,,0,0,0,0,1,40,145,,,,,,,,
,,6594e0c8679c1dee303c33b8,65af5804cbfd19b26dc0c460,2024-01-23_07h09.25.487,bars,2023.2.3,MacIntel,59.88023952,657b66ea316d21385b68909f,,,,,,,,,,,2564.3593,2565.3478,,,2565.8488,2566.0992,,139,139,,,,,,,,,,,,,,,,bars/043.png,bars/mask007.png,,,,,,,,,,,,1,2,,,,,,,3,3,2,2,,,,,,,,,,,2565.3479,2565.8488,2566.0992,2568.1887,space,2.0701,,2568.1888,71,9,2569.1908,2569.1908,2569.2023,,,,0,1,1,1,1,30,130,,,,,,,,
,,6594e0c8679c1dee303c33b8,65af5804cbfd19b26dc0c460,2024-01-23_07h09.25.487,bars,2023.2.3,MacIntel,59.88023952,657b66ea316d21385b68909f,,,,,,,,,,,2569.2025,2570.1908,,,2570.6935,2570.9451,,38,38,,,,,,,,,,,,,,,,bars/003.png,bars/mask008.png,,,,,,,,,,,,3,1,,,,,,,5,1,6,1,,,,,,,,,,,2570.1909,2570.6935,2570.9451,2574.1004,space,3.1393,,2574.1004,13,78,2575.101,2575.1011,2575.1111,,,,0,2,2,2,1,25,140,,,,,,,,
,,6594e0c8679c1dee303c33b8,65af5804cbfd19b26dc0c460,2024-01-23_07h09.25.487,bars,2023.2.3,MacIntel,59.88023952,657b66ea316d21385b68909f,,,,,,,,,,,2575.1112,2576.106,,,2576.6032,2576.8556,,29,29,,,,,,,,,,,,,,,,bars/023.png,bars/mask004.png,,,,,,,,,,,,4,1,,,,,,,3,3,5,4,,,,,,,,,,,2576.106,2576.6032,2576.8557,2580.7634,space,3.8926,,2580.7634,9,86,2581.7655,2581.7655,2581.7766,,,,0,3,3,3,1,20,115,,,,,,,,
,,6594e0c8679c1dee303c33b8,65af5804cbfd19b26dc0c460,2024-01-23_07h09.25.487,bars,2023.2.3,MacIntel,59.88023952,657b66ea316d21385b68909f,,,,,,,,,,,2581.7768,2582.7663,,,2583.2683,2583.5187,,130,-50,,,,,,,,,,,,,,,,bars/040.png,bars/mask008.png,,,,,,,,,,,,1,1,,,,,,,1,5,1,5,,,,,,,,,,,2582.7663,2583.2683,2583.5187,2591.535,space,7.9941,,2591.535,10,55,2592.5346,2592.5347,2592.5438,,,,0,4,4,4,1,140,5,,,,,,,,
,,6594e0c8679c1dee303c33b8,65af5804cbfd19b26dc0c460,2024-01-23_07h09.25.487,bars,2023.2.3,MacIntel,59.88023952,657b66ea316d21385b68909f,,,,,,,,,,,2592.544,2593.5374,,,2594.0376,2594.2905,,42,222,,,,,,,,,,,,,,,,bars/007.png,bars/mask001.png,,,,,,,,,,,,1,2,,,,,,,0,3,0,2,,,,,,,,,,,2593.5375,2594.0376,2594.2905,2599.6684,space,5.355,,2599.6685,47,13,2600.6695,2600.6696,2600.68,,,,0,5,5,5,1,175,55,,,,,,,,
,,6594e0c8679c1dee303c33b8,65af5804cbfd19b26dc0c460,2024-01-23_07h09.25.487,bars,2023.2.3,MacIntel,59.88023952,657b66ea316d21385b68909f,,,,,,,,,,,2600.6802,2601.6698,,,2602.1703,2602.425,,83,83,,,,,,,,,,,,,,,,bars/013.png,bars/mask003.png,,,,,,,,,,,,2,1,,,,,,,2,1,3,1,,,,,,,,,,,2601.6698,2602.1703,2602.425,2611.0391,space,8.6017,,2611.0391,8,73,2612.0417,2612.0417,2612.0528,,,,0,6,6,6,1,75,10,,,,,,,,
,,6594e0c8679c1dee303c33b8,65af5804cbfd19b26dc0c460,2024-01-23_07h09.25.487,bars,2023.2.3,MacIntel,59.88023952,657b66ea316d21385b68909f,,,,,,,,,,,2612.053,2613.0439,,,2613.543,2613.7936,,121,121,,,,,,,,,,,,,,,,bars/008.png,bars/mask001.png,,,,,,,,,,,,3,1,,,,,,,4,3,5,3,,,,,,,,,,,2613.044,2613.543,2613.7936,2618.5536,space,4.7482,,2618.5537,11,59,2619.5562,2619.5562,2619.5653,,,,0,7,7,7,1,110,0,,,,,,,,
,,6594e0c8679c1dee303c33b8,65af5804cbfd19b26dc0c460,2024-01-23_07h09.25.487,bars,2023.2.3,MacIntel,59.88023952,657b66ea316d21385b68909f,,,,,,,,,,,2619.5655,2620.559,,,2621.0598,2621.3101,,114,114,,,,,,,,,,,,,,,,bars/012.png,bars/mask003.png,,,,,,,,,,,,0,1,,,,,,,2,5,1,6,,,,,,,,,,,2620.559,2621.0597,2621.3101,2626.7027,space,5.3781,,2626.7028,24,81,2627.7056,2627.7057,2627.7152,,,,0,8,8,8,1,90,15,,,,,,,,
