init_variables.started,init_variables.stopped,participant,session,date,expName,psychopyVersion,OS,frameRate,study_id,instruction_exp.started,instruction_exp.stopped,key_resp_8.keys,key_resp_8.rt,key_resp_8.duration,instruction_single.started,instruction_single.stopped,key_resp_2.keys,key_resp_2.rt,key_resp_2.duration,interval.started,interval.stopped,cue_single.started,cue_single.stopped,mask.started,mask.stopped,ori_response_single.started,res_ori,res,ori_response_single.stopped,key_resp_single.keys,key_resp_single.rt,key_resp_single.duration,disp_single.started,disp_single.stopped,key_resp.keys,key_resp.rt,key_resp.duration,single.thisRepN,single.thisTrialN,single.thisN,single.thisIndex,single.ran,ori,path,mask_path,instruction_bandit.started,instruction_bandit.stopped,key_resp_6.keys,key_resp_6.rt,key_resp_6.duration,cue_bandit.started,cue_bandit.stopped,bandit_res.keys,bandit_res.rt,bandit_res.duration,outcome_bandit.started,rew,action,outcome_bandit.stopped,bandit.thisRepN,bandit.thisTrialN,bandit.thisN,bandit.thisIndex,bandit.ran,actual_rew1,actual_rew2,rew1,rew2,instruction_task.started,instruction_task.stopped,key_resp_7.keys,key_resp_7.rt,key_resp_7.duration,wait_ready.started,wait_ready.stopped,key_resp_3.keys,key_resp_3.rt,key_resp_3.duration,cue.started,cue.stopped,ori_response.started,ori_response.stopped,key_resp_5.keys,key_resp_5.rt,key_resp_5.duration,outcome.started,diff1,diff2,outcome.stopped,disp_outcome_practice.started,disp_outcome_practice.stopped,key_resp_4.keys,key_resp_4.rt,key_resp_4.duration,trials.thisRepN,trials.thisTrialN,trials.thisN,trials.thisIndex,trials.ran,ori1,ori2,break_blk.started,break_blk.stopped,block.thisRepN,block.thisTrialN,block.thisN,block.thisIndex,block.ran,condition_file
0.0011,0.0014,60c9c994c019ca2e1836e7d7,65af56ab4abd09284145a1a7,2024-01-23_08h15.15.697,bars,2023.2.3,Win32,59.88023952,657b66ea316d21385b68909f,,,,,,,,,,,,,,,,,,,,,,,,,,,,,,,,,,,,,,,,,,,,,,,,,,,,,,,,,,,,,,,,,,,,,,,,,,,,,,,,,,,,,,,,,,,,,,,,,,,,
,,60c9c994c019ca2e1836e7d7,65af56ab4abd09284145a1a7,2024-01-23_08h15.15.697,bars,2023.2.3,Win32,59.88023952,657b66ea316d21385b68909f,0.002,12.809,y,12.7883,,,,,,,,,,,,,,,,,,,,,,,,,,,,,,,,,,,,,,,,,,,,,,,,,,,,,,,,,,,,,,,,,,,,,,,,,,,,,,,,,,,,,,,,,,,,,,,,
,,60c9c994c019ca2e1836e7d7,65af56ab4abd09284145a1a7,2024-01-23_08h15.15.697,bars,2023.2.3,Win32,59.88023952,657b66ea316d21385b68909f,,,,,,12.8092,37.9339,space,25.1079,,,,,,,,,,,,,,,,,,,,,,,,,,,,,,,,,,,,,,,,,,,,,,,,,,,,,,,,,,,,,,,,,,,,,,,,,,,,,,,,,,,,,,,,,,,
,,60c9c994c019ca2e1836e7d7,65af56ab4abd09284145a1a7,2024-01-23_08h15.15.697,bars,2023.2.3,Win32,59.88023952,657b66ea316d21385b68909f,,,,,,,,,,,37.9426,38.9381,38.9382,39.4439,39.4442,39.6762,39.6765,69,69,47.8363,space,8.1017,,47.8365,57.8168,space,9.9538,,0,0,0,8,1,160,bars/single008.png,bars/mask004.png,,,,,,,,,,,,,,,,,,,,,,,,,,,,,,,,,,,,,,,,,,,,,,,,,,,,,,,,,,,,,,,,
,,60c9c994c019ca2e1836e7d7,65af56ab4abd09284145a1a7,2024-01-23_08h15.15.697,bars,2023.2.3,Win32,59.88023952,657b66ea316d21385b68909f,,,,,,,,,,,57.8338,58.8241,58.8241,59.3168,59.317,59.5642,59.5642,91,91,68.5055,space,8.9141,,68.5056,81.601,space,13.065,,0,1,1,7,1,45,bars/single007.png,bars/mask009.png,,,,,,,,,,,,,,,,,,,,,,,,,,,,,,,,,,,,,,,,,,,,,,,,,,,,,,,,,,,,,,,,
,,60c9c994c019ca2e1836e7d7,65af56ab4abd09284145a1a7,2024-01-23_08h15.15.697,bars,2023.2.3,Win32,59.88023952,657b66ea316d21385b68909f,,,,,,,,,,,81.6159,82.6076,82.6078,83.1066,83.1067,83.3663,83.3663,36,36,92.1136,space,8.7308,,92.1137,97.0809,space,4.9398,,0,2,2,6,1,175,bars/single006.png,bars/mask005.png,,,,,,,,,,,,,,,,,,,,,,,,,,,,,,,,,,,,,,,,,,,,,,,,,,,,,,,,,,,,,,,,
,,60c9c994c019ca2e1836e7d7,65af56ab4abd09284145a1a7,2024-01-23_08h15.15.697,bars,2023.2.3,Win32,59.88023952,657b66ea316d21385b68909f,,,,,,,,,,,97.1057,98.0854,98.0855,98.5907,98.5908,98.8342,98.8343,127,127,100.8126,space,1.9504,,100.8128,103.0939,space,2.2649,,0,3,3,4,1,95,bars/single004.png,bars/mask004.png,,,,,,,,,,,,,,,,,,,,,,,,,,,,,,,,,,,,,,,,,,,,,,,,,,,,,,,,,,,,,,,,
,,60c9c994c019ca2e1836e7d7,65af56ab4abd09284145a1a7,2024-01-23_08h15.15.697,bars,2023.2.3,Win32,59.88023952,657b66ea316d21385b68909f,,,,,,,,,,,103.0944,104.0828,104.0829,104.5819,104.5819,104.8415,104.8416,3,183,107.9591,space,3.1007,,107.9591,109.9875,space,2.0131,,0,4,4,9,1,20,bars/single009.png,bars/mask006.png,,,,,,,,,,,,,,,,,,,,,,,,,,,,,,,,,,,,,,,,,,,,,,,,,,,,,,,,,,,,,,,,
,,60c9c994c019ca2e1836e7d7,65af56ab4abd09284145a1a7,2024-01-23_08h15.15.697,bars,2023.2.3,Win32,59.88023952,657b66ea316d21385b68909f,,,,,,,,,,,109.9881,110.9812,110.9812,111.4894,111.4894,111.7303,111.7304,117,117,117.9453,space,6.1823,,117.9454,132.85,space,14.879,,0,5,5,3,1,20,bars/single003.png,bars/mask005.png,,,,,,,,,,,,,,,,,,,,,,,,,,,,,,,,,,,,,,,,,,,,,,,,,,,,,,,,,,,,,,,,
,,60c9c994c019ca2e1836e7d7,65af56ab4abd09284145a1a7,2024-01-23_08h15.15.697,bars,2023.2.3,Win32,59.88023952,657b66ea316d21385b68909f,,,,,,,,,,,132.8641,133.8557,133.8558,134.3493,134.3494,134.5903,134.5904,36,216,164.3758,space,29.7582,,164.3759,239.1043,space,74.6642,,0,6,6,2,1,145,bars/single002.png,bars/mask003.png,,,,,,,,,,,,,,,,,,,,,,,,,,,,,,,,,,,,,,,,,,,,,,,,,,,,,,,,,,,,,,,,
,,60c9c994c019ca2e1836e7d7,65af56ab4abd09284145a1a7,2024-01-23_08h15.15.697,bars,2023.2.3,Win32,59.88023952,657b66ea316d21385b68909f,,,,,,,,,,,239.1274,240.1299,240.1299,240.6204,240.6204,240.8702,240.8703,168,168,247.035,space,6.1326,,247.035,251.5671,space,4.5053,,0,7,7,5,1,55,bars/single005.png,bars/mask008.png,,,,,,,,,,,,,,,,,,,,,,,,,,,,,,,,,,,,,,,,,,,,,,,,,,,,,,,,,,,,,,,,
,,60c9c994c019ca2e1836e7d7,65af56ab4abd09284145a1a7,2024-01-23_08h15.15.697,bars,2023.2.3,Win32,59.88023952,657b66ea316d21385b68909f,,,,,,,,,,,251.5815,252.583,252.583,253.082,253.082,253.3419,253.342,48,48,257.6581,space,4.2995,,257.6581,273.3758,space,15.6863,,0,8,8,1,1,20,bars/single001.png,bars/mask006.png,,,,,,,,,,,,,,,,,,,,,,,,,,,,,,,,,,,,,,,,,,,,,,,,,,,,,,,,,,,,,,,,
,,60c9c994c019ca2e1836e7d7,65af56ab4abd09284145a1a7,2024-01-23_08h15.15.697,bars,2023.2.3,Win32,59.88023952,657b66ea316d21385b68909f,,,,,,,,,,,273.3764,274.3752,274.3752,274.8845,274.8845,275.1248,275.1249,163,163,277.0516,space,1.9002,,277.0517,278.2671,space,1.2003,,0,9,9,0,1,150,bars/single000.png,bars/mask006.png,,,,,,,,,,,,,,,,,,,,,,,,,,,,,,,,,,,,,,,,,,,,,,,,,,,,,,,,,,,,,,,,
,,60c9c994c019ca2e1836e7d7,65af56ab4abd09284145a1a7,2024-01-23_08h15.15.697,bars,2023.2.3,Win32,59.88023952,657b66ea316d21385b68909f,,,,,,,,,,,,,,,,,,,,,,,,,,,,,,,,,,,,,278.2681,314.9624,space,36.6698,,,,,,,,,,,,,,,,,,,,,,,,,,,,,,,,,,,,,,,,,,,,,,,,,,,,,,,,,,,,
,,60c9c994c019ca2e1836e7d7,65af56ab4abd09284145a1a7,2024-01-23_08h15.15.697,bars,2023.2.3,Win32,59.88023952,657b66ea316d21385b68909f,,,,,,,,,,,,,,,,,,,,,,,,,,,,,,,,,,,,,,,,,,314.9812,319.2792,left,4.272,,319.2797,9,1,320.2765,0,0,0,0,1,9,1,9,2,,,,,,,,,,,,,,,,,,,,,,,,,,,,,,,,,,,,,,,,,
,,60c9c994c019ca2e1836e7d7,65af56ab4abd09284145a1a7,2024-01-23_08h15.15.697,bars,2023.2.3,Win32,59.88023952,657b66ea316d21385b68909f,,,,,,,,,,,,,,,,,,,,,,,,,,,,,,,,,,,,,,,,,,320.2778,324.0039,left,3.6992,,324.0041,10,1,324.993,0,1,1,1,1,10,0,10,1,,,,,,,,,,,,,,,,,,,,,,,,,,,,,,,,,,,,,,,,,
,,60c9c994c019ca2e1836e7d7,65af56ab4abd09284145a1a7,2024-01-23_08h15.15.697,bars,2023.2.3,Win32,59.88023952,657b66ea316d21385b68909f,,,,,,,,,,,,,,,,,,,,,,,,,,,,,,,,,,,,,,,,,,325.0152,328.0399,right,3.0169,,328.0401,2,2,329.0399,0,2,2,2,1,10,2,10,2,,,,,,,,,,,,,,,,,,,,,,,,,,,,,,,,,,,,,,,,,
,,60c9c994c019ca2e1836e7d7,65af56ab4abd09284145a1a7,2024-01-23_08h15.15.697,bars,2023.2.3,Win32,59.88023952,657b66ea316d21385b68909f,,,,,,,,,,,,,,,,,,,,,,,,,,,,,,,,,,,,,,,,,,329.0543,329.9899,left,0.9178,,329.99,7,1,330.9892,0,3,3,3,1,8,4,7,3,,,,,,,,,,,,,,,,,,,,,,,,,,,,,,,,,,,,,,,,,
,,60c9c994c019ca2e1836e7d7,65af56ab4abd09284145a1a7,2024-01-23_08h15.15.697,bars,2023.2.3,Win32,59.88023952,657b66ea316d21385b68909f,,,,,,,,,,,,,,,,,,,,,,,,,,,,,,,,,,,,,,,,,,330.9897,331.6591,left,0.6423,,331.6593,5,1,332.6558,0,4,4,4,1,6,2,5,1,,,,,,,,,,,,,,,,,,,,,,,,,,,,,,,,,,,,,,,,,
,,60c9c994c019ca2e1836e7d7,65af56ab4abd09284145a1a7,2024-01-23_08h15.15.697,bars,2023.2.3,Win32,59.88023952,657b66ea316d21385b68909f,,,,,,,,,,,,,,,,,,,,,,,,,,,,,,,,,,,,,,,,,,332.6571,333.3005,left,0.6177,,333.3005,4,1,334.2882,0,5,5,5,1,4,4,4,4,,,,,,,,,,,,,,,,,,,,,,,,,,,,,,,,,,,,,,,,,
,,60c9c994c019ca2e1836e7d7,65af56ab4abd09284145a1a7,2024-01-23_08h15.15.697,bars,2023.2.3,Win32,59.88023952,657b66ea316d21385b68909f,,,,,,,,,,,,,,,,,,,,,,,,,,,,,,,,,,,,,,,,,,334.2887,334.6922,right,0.3777,,334.6924,2,2,335.6879,0,6,6,6,1,2,2,1,2,,,,,,,,,,,,,,,,,,,,,,,,,,,,,,,,,,,,,,,,,
,,60c9c994c019ca2e1836e7d7,65af56ab4abd09284145a1a7,2024-01-23_08h15.15.697,bars,2023.2.3,Win32,59.88023952,657b66ea316d21385b68909f,,,,,,,,,,,,,,,,,,,,,,,,,,,,,,,,,,,,,,,,,,335.6887,336.7221,left,1.0003,,336.7223,0,1,337.7215,0,7,7,7,1,0,0,0,1,,,,,,,,,,,,,,,,,,,,,,,,,,,,,,,,,,,,,,,,,
,,60c9c994c019ca2e1836e7d7,65af56ab4abd09284145a1a7,2024-01-23_08h15.15.697,bars,2023.2.3,Win32,59.88023952,657b66ea316d21385b68909f,,,,,,,,,,,,,,,,,,,,,,,,,,,,,,,,,,,,,,,,,,337.7223,338.8873,left,1.1405,,338.8874,1,1,339.8858,0,8,8,8,1,0,2,1,0,,,,,,,,,,,,,,,,,,,,,,,,,,,,,,,,,,,,,,,,,
,,60c9c994c019ca2e1836e7d7,65af56ab4abd09284145a1a7,2024-01-23_08h15.15.697,bars,2023.2.3,Win32,59.88023952,657b66ea316d21385b68909f,,,,,,,,,,,,,,,,,,,,,,,,,,,,,,,,,,,,,,,,,,339.8868,340.27,right,0.3515,,340.27,3,2,341.2693,0,9,9,9,1,2,4,2,3,,,,,,,,,,,,,,,,,,,,,,,,,,,,,,,,,,,,,,,,,
,,60c9c994c019ca2e1836e7d7,65af56ab4abd09284145a1a7,2024-01-23_08h15.15.697,bars,2023.2.3,Win32,59.88023952,657b66ea316d21385b68909f,,,,,,,,,,,,,,,,,,,,,,,,,,,,,,,,,,,,,,,,,,341.2703,341.6703,right,0.3914,,341.6704,3,2,342.6773,0,10,10,10,1,0,2,0,3,,,,,,,,,,,,,,,,,,,,,,,,,,,,,,,,,,,,,,,,,
,,60c9c994c019ca2e1836e7d7,65af56ab4abd09284145a1a7,2024-01-23_08h15.15.697,bars,2023.2.3,Win32,59.88023952,657b66ea316d21385b68909f,,,,,,,,,,,,,,,,,,,,,,,,,,,,,,,,,,,,,,,,,,342.6778,342.9864,left,0.2922,,342.9864,0,1,343.9848,0,11,11,11,1,0,4,0,3,,,,,,,,,,,,,,,,,,,,,,,,,,,,,,,,,,,,,,,,,
,,60c9c994c019ca2e1836e7d7,65af56ab4abd09284145a1a7,2024-01-23_08h15.15.697,bars,2023.2.3,Win32,59.88023952,657b66ea316d21385b68909f,,,,,,,,,,,,,,,,,,,,,,,,,,,,,,,,,,,,,,,,,,343.9853,344.2788,right,0.2674,,344.2788,6,2,345.2677,0,12,12,12,1,2,6,1,6,,,,,,,,,,,,,,,,,,,,,,,,,,,,,,,,,,,,,,,,,
,,60c9c994c019ca2e1836e7d7,65af56ab4abd09284145a1a7,2024-01-23_08h15.15.697,bars,2023.2.3,Win32,59.88023952,657b66ea316d21385b68909f,,,,,,,,,,,,,,,,,,,,,,,,,,,,,,,,,,,,,,,,,,345.2682,345.5276,right,0.2332,,345.5276,3,2,346.5177,0,13,13,13,1,0,4,1,3,,,,,,,,,,,,,,,,,,,,,,,,,,,,,,,,,,,,,,,,,
,,60c9c994c019ca2e1836e7d7,65af56ab4abd09284145a1a7,2024-01-23_08h15.15.697,bars,2023.2.3,Win32,59.88023952,657b66ea316d21385b68909f,,,,,,,,,,,,,,,,,,,,,,,,,,,,,,,,,,,,,,,,,,346.5182,346.829,left,0.2848,,346.8291,2,1,347.8175,0,14,14,14,1,2,6,2,7,,,,,,,,,,,,,,,,,,,,,,,,,,,,,,,,,,,,,,,,,
,,60c9c994c019ca2e1836e7d7,65af56ab4abd09284145a1a7,2024-01-23_08h15.15.697,bars,2023.2.3,Win32,59.88023952,657b66ea316d21385b68909f,,,,,,,,,,,,,,,,,,,,,,,,,,,,,,,,,,,,,,,,,,347.8191,347.8449,right,0.0015,,347.845,9,2,348.8327,0,15,15,15,1,4,8,3,9,,,,,,,,,,,,,,,,,,,,,,,,,,,,,,,,,,,,,,,,,
,,60c9c994c019ca2e1836e7d7,65af56ab4abd09284145a1a7,2024-01-23_08h15.15.697,bars,2023.2.3,Win32,59.88023952,657b66ea316d21385b68909f,,,,,,,,,,,,,,,,,,,,,,,,,,,,,,,,,,,,,,,,,,348.8331,349.3285,right,0.4683,,349.3285,7,2,350.3168,0,16,16,16,1,6,6,7,7,,,,,,,,,,,,,,,,,,,,,,,,,,,,,,,,,,,,,,,,,
,,60c9c994c019ca2e1836e7d7,65af56ab4abd09284145a1a7,2024-01-23_08h15.15.697,bars,2023.2.3,Win32,59.88023952,657b66ea316d21385b68909f,,,,,,,,,,,,,,,,,,,,,,,,,,,,,,,,,,,,,,,,,,350.3177,350.6593,right,0.3166,,350.6593,5,2,351.6557,0,17,17,17,1,8,4,9,5,,,,,,,,,,,,,,,,,,,,,,,,,,,,,,,,,,,,,,,,,
,,60c9c994c019ca2e1836e7d7,65af56ab4abd09284145a1a7,2024-01-23_08h15.15.697,bars,2023.2.3,Win32,59.88023952,657b66ea316d21385b68909f,,,,,,,,,,,,,,,,,,,,,,,,,,,,,,,,,,,,,,,,,,351.6565,352.0757,left,0.4,,352.0758,5,1,353.0645,0,18,18,18,1,6,2,5,1,,,,,,,,,,,,,,,,,,,,,,,,,,,,,,,,,,,,,,,,,
,,60c9c994c019ca2e1836e7d7,65af56ab4abd09284145a1a7,2024-01-23_08h15.15.697,bars,2023.2.3,Win32,59.88023952,657b66ea316d21385b68909f,,,,,,,,,,,,,,,,,,,,,,,,,,,,,,,,,,,,,,,,,,353.065,353.2431,right,0.1519,,353.2433,0,2,354.2316,0,19,19,19,1,8,0,7,0,,,,,,,,,,,,,,,,,,,,,,,,,,,,,,,,,,,,,,,,,
,,60c9c994c019ca2e1836e7d7,65af56ab4abd09284145a1a7,2024-01-23_08h15.15.697,bars,2023.2.3,Win32,59.88023952,657b66ea316d21385b68909f,,,,,,,,,,,,,,,,,,,,,,,,,,,,,,,,,,,,,,,,,,,,,,,,,,,,,,,,,,,,354.2327,375.5856,space,21.3269,,,,,,,,,,,,,,,,,,,,,,,,,,,,,,,,,,,,,
,,60c9c994c019ca2e1836e7d7,65af56ab4abd09284145a1a7,2024-01-23_08h15.15.697,bars,2023.2.3,Win32,59.88023952,657b66ea316d21385b68909f,,,,,,,,,,,378.2573,379.2568,,,379.7558,380.0055,,102,102,,,,,,,,,,,,,,,,bars/047.png,bars/mask008.png,,,,,,,,,,,,0,2,,,,,,,1,6,1,7,,,,,,375.6031,378.2502,space,2.632,,379.2572,379.7557,380.0059,383.6403,space,3.6072,,383.6406,87,32,384.6378,384.6381,415.489,space,30.8329,,0,0,0,0,1,15,70,,,,,,,,
,,60c9c994c019ca2e1836e7d7,65af56ab4abd09284145a1a7,2024-01-23_08h15.15.697,bars,2023.2.3,Win32,59.88023952,657b66ea316d21385b68909f,,,,,,,,,,,415.5045,416.4942,,,416.9933,417.2439,,31,31,,,,,,,,,,,,,,,,bars/028.png,bars/mask009.png,,,,,,,,,,,,1,1,,,,,,,3,4,2,5,,,,,,,,,,,416.4944,416.9932,417.244,422.5081,space,5.2358,,422.5083,14,89,423.4973,423.4975,432.2566,space,8.7112,,0,1,1,1,1,45,120,,,,,,,,
,,60c9c994c019ca2e1836e7d7,65af56ab4abd09284145a1a7,2024-01-23_08h15.15.697,bars,2023.2.3,Win32,59.88023952,657b66ea316d21385b68909f,,,,,,,,,,,432.2729,433.2712,,,433.772,434.0219,,73,73,,,,,,,,,,,,,,,,bars/031.png,bars/mask001.png,,,,,,,,,,,,0,2,,,,,,,1,6,2,5,,,,,,,,,,,433.2713,433.7718,434.022,437.1379,space,3.0994,,437.1381,47,38,438.1359,438.136,440.4529,space,2.2806,,0,2,2,2,1,120,35,,,,,,,,
,,60c9c994c019ca2e1836e7d7,65af56ab4abd09284145a1a7,2024-01-23_08h15.15.697,bars,2023.2.3,Win32,59.88023952,657b66ea316d21385b68909f,,,,,,,,,,,440.4808,441.4686,,,441.9679,442.2175,,48,48,,,,,,,,,,,,,,,,bars/036.png,bars/mask004.png,,,,,,,,,,,,0,2,,,,,,,3,4,3,5,,,,,,,,,,,441.4688,441.9678,442.2175,446.5776,space,4.3329,,446.5776,83,28,447.5666,447.5666,475.2085,space,27.6088,,0,3,3,3,1,145,20,,,,,,,,
,,60c9c994c019ca2e1836e7d7,65af56ab4abd09284145a1a7,2024-01-23_08h15.15.697,bars,2023.2.3,Win32,59.88023952,657b66ea316d21385b68909f,,,,,,,,,,,475.2244,476.2167,,,476.7062,476.9559,,105,105,,,,,,,,,,,,,,,,bars/029.png,bars/mask003.png,,,,,,,,,,,,1,1,,,,,,,1,6,1,6,,,,,,,,,,,476.2168,476.7061,476.9561,480.022,space,3.0386,,480.0221,15,60,481.0155,481.0155,487.7046,space,6.6427,,0,4,4,4,1,90,45,,,,,,,,
,,60c9c994c019ca2e1836e7d7,65af56ab4abd09284145a1a7,2024-01-23_08h15.15.697,bars,2023.2.3,Win32,59.88023952,657b66ea316d21385b68909f,,,,,,,,,,,487.7326,488.7076,,,489.2122,489.4531,,61,61,,,,,,,,,,,,,,,,bars/021.png,bars/mask003.png,,,,,,,,,,,,3,2,,,,,,,3,4,4,4,,,,,,,,,,,488.7077,489.2122,489.4531,494.462,space,4.9832,,494.4621,86,9,495.4508,495.4509,496.7167,space,1.2338,,0,5,5,5,1,155,70,,,,,,,,
,,60c9c994c019ca2e1836e7d7,65af56ab4abd09284145a1a7,2024-01-23_08h15.15.697,bars,2023.2.3,Win32,59.88023952,657b66ea316d21385b68909f,,,,,,,,,,,496.7172,497.7258,,,498.2157,498.4651,,58,58,,,,,,,,,,,,,,,,bars/032.png,bars/mask005.png,,,,,,,,,,,,0,2,,,,,,,5,6,4,6,,,,,,,,,,,497.7258,498.2157,498.4653,500.9419,space,2.4501,,500.9421,67,38,501.9317,501.9317,502.975,space,1.0009,,0,6,6,6,1,125,20,,,,,,,,
,,60c9c994c019ca2e1836e7d7,65af56ab4abd09284145a1a7,2024-01-23_08h15.15.697,bars,2023.2.3,Win32,59.88023952,657b66ea316d21385b68909f,,,,,,,,,,,502.9757,503.9638,,,504.4649,504.7062,,151,151,,,,,,,,,,,,,,,,bars/010.png,bars/mask009.png,,,,,,,,,,,,5,1,,,,,,,7,4,9,4,,,,,,,,,,,503.9638,504.4648,504.7063,505.9909,space,1.2673,,505.991,14,84,506.9897,506.9898,540.3148,space,33.3055,,0,7,7,7,1,165,55,,,,,,,,
,,60c9c994c019ca2e1836e7d7,65af56ab4abd09284145a1a7,2024-01-23_08h15.15.697,bars,2023.2.3,Win32,59.88023952,657b66ea316d21385b68909f,,,,,,,,,,,540.3463,541.3178,,,541.819,542.0682,,134,134,,,,,,,,,,,,,,,,bars/017.png,bars/mask008.png,,,,,,,,,,,,6,1,,,,,,,9,6,9,7,,,,,,,,,,,541.3179,541.8189,542.0683,544.7775,space,2.6995,,544.7775,11,89,545.7664,545.7666,546.7856,space,0.9861,,0,8,8,8,1,145,45,,,,,,,,
,,60c9c994c019ca2e1836e7d7,65af56ab4abd09284145a1a7,2024-01-23_08h15.15.697,bars,2023.2.3,Win32,59.88023952,657b66ea316d21385b68909f,,,,,,,,,,,546.7865,547.7826,,,548.2831,548.5317,,134,134,,,,,,,,,,,,,,,,bars/030.png,bars/mask000.png,,,,,,,,,,,,8,1,,,,,,,10,4,10,5,,,,,,,,,,,547.7827,548.283,548.5317,550.6489,space,2.1032,,550.6491,6,69,551.6483,551.6483,552.6645,space,0.9685,,0,9,9,9,1,140,65,,,,,,,,
,,60c9c994c019ca2e1836e7d7,65af56ab4abd09284145a1a7,2024-01-23_08h15.15.697,bars,2023.2.3,Win32,59.88023952,657b66ea316d21385b68909f,,,,,,,,,,,552.6653,553.6733,,,554.1727,554.4139,,160,160,,,,,,,,,,,,,,,,bars/031.png,bars/mask002.png,,,,,,,,,,,,0,1,,,,,,,8,2,9,3,,,,,,,,,,,553.6734,554.1727,554.4139,555.2399,space,0.7997,,555.2399,40,55,556.2303,556.2303,557.1235,space,0.8671,,0,10,10,10,1,120,35,,,,,,,,
,,60c9c994c019ca2e1836e7d7,65af56ab4abd09284145a1a7,2024-01-23_08h15.15.697,bars,2023.2.3,Win32,59.88023952,657b66ea316d21385b68909f,,,,,,,,,,,557.1241,558.1284,,,558.6286,558.8783,,53,53,,,,,,,,,,,,,,,,bars/012.png,bars/mask007.png,,,,,,,,,,,,0,1,,,,,,,6,4,6,5,,,,,,,,,,,558.1284,558.6284,558.8784,564.1276,space,5.233,,564.1276,37,38,565.1268,565.1269,566.4361,space,1.2729,,0,11,11,11,1,90,15,,,,,,,,
,,60c9c994c019ca2e1836e7d7,65af56ab4abd09284145a1a7,2024-01-23_08h15.15.697,bars,2023.2.3,Win32,59.88023952,657b66ea316d21385b68909f,,,,,,,,,,,566.4365,567.4254,,,567.926,568.1762,,99,99,,,,,,,,,,,,,,,,bars/011.png,bars/mask000.png,,,,,,,,,,,,3,2,,,,,,,8,6,8,5,,,,,,,,,,,567.4255,567.926,568.1763,570.4258,space,2.2199,,570.4258,61,14,571.4248,571.4249,572.2117,space,0.7569,,0,12,12,12,1,160,85,,,,,,,,
,,60c9c994c019ca2e1836e7d7,65af56ab4abd09284145a1a7,2024-01-23_08h15.15.697,bars,2023.2.3,Win32,59.88023952,657b66ea316d21385b68909f,,,,,,,,,,,572.2122,573.2182,,,573.7124,573.9564,,36,36,,,,,,,,,,,,,,,,bars/002.png,bars/mask006.png,,,,,,,,,,,,0,2,,,,,,,6,4,5,4,,,,,,,,,,,573.2182,573.7123,573.9564,575.5684,space,1.5853,,575.5684,86,49,576.5722,576.5723,577.2931,space,0.6932,,0,13,13,13,1,130,85,,,,,,,,
,,60c9c994c019ca2e1836e7d7,65af56ab4abd09284145a1a7,2024-01-23_08h15.15.697,bars,2023.2.3,Win32,59.88023952,657b66ea316d21385b68909f,,,,,,,,,,,577.294,578.2884,,,578.7889,579.0386,,116,116,,,,,,,,,,,,,,,,bars/045.png,bars/mask004.png,,,,,,,,,,,,3,1,,,,,,,8,6,7,5,,,,,,,,,,,578.2885,578.7888,579.0386,583.1715,space,4.1064,,583.1715,16,74,584.1702,584.1703,598.2757,space,14.0753,,0,14,14,14,1,100,10,,,,,,,,
,,60c9c994c019ca2e1836e7d7,65af56ab4abd09284145a1a7,2024-01-23_08h15.15.697,bars,2023.2.3,Win32,59.88023952,657b66ea316d21385b68909f,,,,,,,,,,,598.2934,599.2818,,,599.7824,600.0312,,56,56,,,,,,,,,,,,,,,,bars/041.png,bars/mask008.png,,,,,,,,,,,,0,2,,,,,,,6,8,6,9,,,,,,,,,,,599.2819,599.7823,600.0313,605.6231,space,5.5656,,605.6232,36,29,606.6131,606.6131,607.8786,space,1.2139,,0,15,15,15,1,20,85,,,,,,,,
,,60c9c994c019ca2e1836e7d7,65af56ab4abd09284145a1a7,2024-01-23_08h15.15.697,bars,2023.2.3,Win32,59.88023952,657b66ea316d21385b68909f,,,,,,,,,,,607.8794,608.878,,,609.379,609.629,,149,149,,,,,,,,,,,,,,,,bars/038.png,bars/mask006.png,,,,,,,,,,,,4,1,,,,,,,8,10,9,10,,,,,,,,,,,608.8781,609.3789,609.629,619.7584,space,10.1129,,619.7585,16,79,620.7579,620.7581,774.8068,space,154.0131,,0,16,16,16,1,165,70,,,,,,,,
,,60c9c994c019ca2e1836e7d7,65af56ab4abd09284145a1a7,2024-01-23_08h15.15.697,bars,2023.2.3,Win32,59.88023952,657b66ea316d21385b68909f,,,,,,,,,,,774.8075,775.8046,,,776.3046,776.5545,,136,136,,,,,,,,,,,,,,,,bars/012.png,bars/mask001.png,,,,,,,,,,,,0,1,,,,,,,6,10,5,8,,,,,,,,,,,775.8047,776.3045,776.5545,779.5711,space,3.0015,,779.5711,46,59,780.57,780.5701,781.62,space,1.017,,0,17,17,17,1,90,15,,,,,,,,
,,60c9c994c019ca2e1836e7d7,65af56ab4abd09284145a1a7,2024-01-23_08h15.15.697,bars,2023.2.3,Win32,59.88023952,657b66ea316d21385b68909f,,,,,,,,,,,781.6205,782.6202,,,783.1198,783.37,,63,63,,,,,,,,,,,,,,,,bars/015.png,bars/mask009.png,,,,,,,,,,,,0,1,,,,,,,4,10,4,10,,,,,,,,,,,782.6203,783.1197,783.3701,787.9353,space,4.5524,,787.9355,47,83,788.9338,788.9338,789.584,space,0.6151,,0,18,18,18,1,110,160,,,,,,,,
,,60c9c994c019ca2e1836e7d7,65af56ab4abd09284145a1a7,2024-01-23_08h15.15.697,bars,2023.2.3,Win32,59.88023952,657b66ea316d21385b68909f,,,,,,,,,,,789.5845,790.5832,,,791.0844,791.3341,,125,125,,,,,,,,,,,,,,,,bars/004.png,bars/mask007.png,,,,,,,,,,,,8,2,,,,,,,6,8,6,8,,,,,,,,,,,790.5833,791.0843,791.3341,792.8999,space,1.5498,,792.8999,80,0,793.9004,793.9006,794.6668,space,0.7425,,0,19,19,19,1,25,125,,,,,,,,
,,60c9c994c019ca2e1836e7d7,65af56ab4abd09284145a1a7,2024-01-23_08h15.15.697,bars,2023.2.3,Win32,59.88023952,657b66ea316d21385b68909f,,,,,,,,,,,794.6677,795.6656,,,796.1652,796.4152,,4,4,,,,,,,,,,,,,,,,bars/032.png,bars/mask002.png,,,,,,,,,,,,3,2,,,,,,,4,6,4,6,,,,,,,,,,,795.6657,796.1651,796.4152,796.5484,space,0.1177,,796.5485,59,16,797.549,797.5491,798.2491,space,0.6806,,0,20,20,20,1,125,20,,,,,,,,
,,60c9c994c019ca2e1836e7d7,65af56ab4abd09284145a1a7,2024-01-23_08h15.15.697,bars,2023.2.3,Win32,59.88023952,657b66ea316d21385b68909f,,,,,,,,,,,798.2501,799.2474,,,799.7403,799.9902,,134,134,,,,,,,,,,,,,,,,bars/045.png,bars/mask009.png,,,,,,,,,,,,0,1,,,,,,,2,8,3,8,,,,,,,,,,,799.2475,799.7403,799.9903,800.7241,space,0.7174,,800.7242,34,56,801.7228,801.7229,802.3415,space,0.5842,,0,21,21,21,1,100,10,,,,,,,,
,,60c9c994c019ca2e1836e7d7,65af56ab4abd09284145a1a7,2024-01-23_08h15.15.697,bars,2023.2.3,Win32,59.88023952,657b66ea316d21385b68909f,,,,,,,,,,,802.3424,803.3301,,,803.8295,804.0792,,6,6,,,,,,,,,,,,,,,,bars/007.png,bars/mask000.png,,,,,,,,,,,,3,1,,,,,,,4,6,5,8,,,,,,,,,,,803.3302,803.8293,804.0793,804.1731,space,0.0672,,804.1731,11,49,805.1722,805.1723,805.4286,space,0.2332,,0,22,22,22,1,175,55,,,,,,,,
,,60c9c994c019ca2e1836e7d7,65af56ab4abd09284145a1a7,2024-01-23_08h15.15.697,bars,2023.2.3,Win32,59.88023952,657b66ea316d21385b68909f,,,,,,,,,,,805.4291,806.4211,,,806.9122,807.1614,,123,123,,,,,,,,,,,,,,,,bars/023.png,bars/mask001.png,,,,,,,,,,,,7,2,,,,,,,6,8,4,9,,,,,,,,,,,806.4212,806.9122,807.1614,807.9742,space,0.7844,,807.9743,77,8,808.9768,808.9768,809.8781,space,0.8686,,0,23,23,23,1,20,115,,,,,,,,
,,60c9c994c019ca2e1836e7d7,65af56ab4abd09284145a1a7,2024-01-23_08h15.15.697,bars,2023.2.3,Win32,59.88023952,657b66ea316d21385b68909f,,,,,,,,,,,809.8789,810.8692,,,811.36,811.611,,38,38,,,,,,,,,,,,,,,,bars/025.png,bars/mask001.png,,,,,,,,,,,,7,2,,,,,,,8,6,8,8,,,,,,,,,,,810.8692,811.3599,811.6111,811.6391,space,0.0017,,811.6391,67,2,812.6434,812.6434,813.3591,space,0.6835,,0,24,24,24,1,105,40,,,,,,,,
,,60c9c994c019ca2e1836e7d7,65af56ab4abd09284145a1a7,2024-01-23_08h15.15.697,bars,2023.2.3,Win32,59.88023952,657b66ea316d21385b68909f,,,,,,,,,,,813.3596,814.368,,,814.8687,815.1185,,20,20,,,,,,,,,,,,,,,,bars/035.png,bars/mask000.png,,,,,,,,,,,,1,1,,,,,,,6,8,7,8,,,,,,,,,,,814.368,814.8685,815.1187,816.854,space,1.7186,,816.8541,25,40,817.858,817.8581,817.8969,space,0.0015,,0,25,25,25,1,175,60,,,,,,,,
,,60c9c994c019ca2e1836e7d7,65af56ab4abd09284145a1a7,2024-01-23_08h15.15.697,bars,2023.2.3,Win32,59.88023952,657b66ea316d21385b68909f,,,,,,,,,,,817.8974,818.8905,,,819.3907,819.6411,,121,121,,,,,,,,,,,,,,,,bars/012.png,bars/mask001.png,,,,,,,,,,,,0,1,,,,,,,4,6,5,5,,,,,,,,,,,818.8905,819.3906,819.6411,821.35,space,1.683,,821.3501,31,74,822.3398,822.3398,822.4421,space,0.0758,,0,26,26,26,1,90,15,,,,,,,,
,,60c9c994c019ca2e1836e7d7,65af56ab4abd09284145a1a7,2024-01-23_08h15.15.697,bars,2023.2.3,Win32,59.88023952,657b66ea316d21385b68909f,,,,,,,,,,,822.4429,823.4391,,,823.939,824.189,,16,196,,,,,,,,,,,,,,,,bars/017.png,bars/mask007.png,,,,,,,,,,,,0,2,,,,,,,6,4,6,3,,,,,,,,,,,823.4391,823.9389,824.189,826.782,space,2.5661,,826.782,51,29,827.7709,827.771,827.8004,space,0.0017,,0,27,27,27,1,145,45,,,,,,,,
,,60c9c994c019ca2e1836e7d7,65af56ab4abd09284145a1a7,2024-01-23_08h15.15.697,bars,2023.2.3,Win32,59.88023952,657b66ea316d21385b68909f,,,,,,,,,,,827.8009,828.8048,,,829.3044,829.5535,,28,208,,,,,,,,,,,,,,,,bars/001.png,bars/mask005.png,,,,,,,,,,,,0,2,,,,,,,8,2,6,2,,,,,,,,,,,828.8049,829.3044,829.5536,839.1616,space,9.5818,,839.1617,78,57,840.1506,840.1507,844.6892,space,4.5125,,0,28,28,28,1,130,85,,,,,,,,
,,60c9c994c019ca2e1836e7d7,65af56ab4abd09284145a1a7,2024-01-23_08h15.15.697,bars,2023.2.3,Win32,59.88023952,657b66ea316d21385b68909f,,,,,,,,,,,844.6896,845.6828,,,846.1811,846.4318,,58,58,,,,,,,,,,,,,,,,bars/015.png,bars/mask004.png,,,,,,,,,,,,0,1,,,,,,,6,0,7,0,,,,,,,,,,,845.6828,846.1811,846.4319,846.9267,space,0.4688,,846.9268,52,78,847.9147,847.9147,849.0424,space,1.1016,,0,29,29,29,1,110,160,,,,,,,,
,,60c9c994c019ca2e1836e7d7,65af56ab4abd09284145a1a7,2024-01-23_08h15.15.697,bars,2023.2.3,Win32,59.88023952,657b66ea316d21385b68909f,,,,,,,,,,,849.0433,850.0307,,,850.5398,850.7899,,134,134,,,,,,,,,,,,,,,,bars/004.png,bars/mask009.png,,,,,,,,,,,,0,2,,,,,,,8,0,9,0,,,,,,,,,,,850.0308,850.5397,850.7901,851.1567,space,0.3501,,851.1568,71,9,852.1455,852.1455,853.0255,space,0.8522,,0,30,30,30,1,25,125,,,,,,,,
,,60c9c994c019ca2e1836e7d7,65af56ab4abd09284145a1a7,2024-01-23_08h15.15.697,bars,2023.2.3,Win32,59.88023952,657b66ea316d21385b68909f,,,,,,,,,,,853.0264,854.0218,,,854.5122,854.7618,,75,75,,,,,,,,,,,,,,,,bars/043.png,bars/mask003.png,,,,,,,,,,,,0,1,,,,,,,10,0,10,2,,,,,,,,,,,854.0218,854.5122,854.7619,858.538,space,3.7642,,858.5382,45,55,859.5272,859.5273,864.152,space,4.5957,,0,31,31,31,1,30,130,,,,,,,,
,,60c9c994c019ca2e1836e7d7,65af56ab4abd09284145a1a7,2024-01-23_08h15.15.697,bars,2023.2.3,Win32,59.88023952,657b66ea316d21385b68909f,,,,,,,,,,,864.1658,865.1589,,,865.6588,865.9081,,14,14,,,,,,,,,,,,,,,,bars/044.png,bars/mask002.png,,,,,,,,,,,,0,2,,,,,,,10,0,9,0,,,,,,,,,,,865.1589,865.6586,865.9082,866.6512,space,0.7169,,866.6512,61,39,867.6413,867.6415,868.9008,space,1.2333,,0,32,32,32,1,75,155,,,,,,,,
,,60c9c994c019ca2e1836e7d7,65af56ab4abd09284145a1a7,2024-01-23_08h15.15.697,bars,2023.2.3,Win32,59.88023952,657b66ea316d21385b68909f,,,,,,,,,,,868.9011,869.8896,,,870.3835,870.6241,,75,75,,,,,,,,,,,,,,,,bars/020.png,bars/mask000.png,,,,,,,,,,,,0,1,,,,,,,10,0,10,1,,,,,,,,,,,869.8896,870.3833,870.6242,877.1876,space,6.5364,,877.1877,40,85,878.1874,878.1875,888.6758,space,10.434,,0,33,33,33,1,115,170,,,,,,,,
,,60c9c994c019ca2e1836e7d7,65af56ab4abd09284145a1a7,2024-01-23_08h15.15.697,bars,2023.2.3,Win32,59.88023952,657b66ea316d21385b68909f,,,,,,,,,,,888.7069,889.6847,,,890.1841,890.4335,,137,137,,,,,,,,,,,,,,,,bars/000.png,bars/mask005.png,,,,,,,,,,,,1,2,,,,,,,8,2,9,2,,,,,,,,,,,889.6847,890.1841,890.4338,891.7496,space,1.2841,,891.7496,83,8,892.7427,892.7428,893.7165,space,0.9518,,0,34,34,34,1,40,145,,,,,,,,
,,60c9c994c019ca2e1836e7d7,65af56ab4abd09284145a1a7,2024-01-23_08h15.15.697,bars,2023.2.3,Win32,59.88023952,657b66ea316d21385b68909f,,,,,,,,,,,893.7169,894.715,,,895.2221,895.4656,,112,112,,,,,,,,,,,,,,,,bars/045.png,bars/mask002.png,,,,,,,,,,,,6,1,,,,,,,10,4,10,5,,,,,,,,,,,894.7151,895.222,895.4656,898.0767,space,2.6008,,898.0768,12,78,899.0803,899.0804,901.0302,space,1.9193,,0,35,35,35,1,100,10,,,,,,,,
,,60c9c994c019ca2e1836e7d7,65af56ab4abd09284145a1a7,2024-01-23_08h15.15.697,bars,2023.2.3,Win32,59.88023952,657b66ea316d21385b68909f,,,,,,,,,,,901.031,902.0295,,,902.5299,902.7785,,15,195,,,,,,,,,,,,,,,,bars/011.png,bars/mask004.png,,,,,,,,,,,,0,1,,,,,,,8,6,7,5,,,,,,,,,,,902.0297,902.5299,902.7786,906.2784,space,3.4868,,906.2784,35,70,907.2777,907.2778,909.9949,space,2.6761,,0,36,36,36,1,160,85,,,,,,,,
,,60c9c994c019ca2e1836e7d7,65af56ab4abd09284145a1a7,2024-01-23_08h15.15.697,bars,2023.2.3,Win32,59.88023952,657b66ea316d21385b68909f,,,,,,,,,,,909.9954,910.9938,,,911.493,911.7434,,10,190,,,,,,,,,,,,,,,,bars/034.png,bars/mask006.png,,,,,,,,,,,,0,2,,,,,,,6,8,7,9,,,,,,,,,,,910.9939,911.4928,911.7435,917.7198,space,5.9501,,917.7199,65,55,918.7239,918.7241,919.7905,space,1.0265,,0,37,37,37,1,125,65,,,,,,,,
,,60c9c994c019ca2e1836e7d7,65af56ab4abd09284145a1a7,2024-01-23_08h15.15.697,bars,2023.2.3,Win32,59.88023952,657b66ea316d21385b68909f,,,,,,,,,,,919.791,920.7899,,,921.2833,921.5237,,81,81,,,,,,,,,,,,,,,,bars/025.png,bars/mask000.png,,,,,,,,,,,,2,1,,,,,,,8,6,8,7,,,,,,,,,,,920.7899,921.2832,921.5237,924.0988,space,2.5497,,924.0988,24,41,925.0887,925.0887,935.1785,space,10.0429,,0,38,38,38,1,105,40,,,,,,,,
,,60c9c994c019ca2e1836e7d7,65af56ab4abd09284145a1a7,2024-01-23_08h15.15.697,bars,2023.2.3,Win32,59.88023952,657b66ea316d21385b68909f,,,,,,,,,,,935.1931,936.1853,,,936.6772,936.918,,113,113,,,,,,,,,,,,,,,,bars/012.png,bars/mask005.png,,,,,,,,,,,,2,1,,,,,,,10,4,9,3,,,,,,,,,,,936.1854,936.6771,936.918,941.3435,space,4.3994,,941.3435,23,82,942.3322,942.3323,944.9999,space,2.6399,,0,39,39,39,1,90,15,,,,,,,,
,,60c9c994c019ca2e1836e7d7,65af56ab4abd09284145a1a7,2024-01-23_08h15.15.697,bars,2023.2.3,Win32,59.88023952,657b66ea316d21385b68909f,,,,,,,,,,,945.001,945.9976,,,946.4915,946.7311,,78,78,,,,,,,,,,,,,,,,bars/038.png,bars/mask002.png,,,,,,,,,,,,2,2,,,,,,,10,2,10,3,,,,,,,,,,,945.9977,946.4913,946.7313,952.3459,space,5.5826,,952.346,87,8,953.3456,953.3457,954.9788,space,1.5753,,0,40,40,40,1,165,70,,,,,,,,
,,60c9c994c019ca2e1836e7d7,65af56ab4abd09284145a1a7,2024-01-23_08h15.15.697,bars,2023.2.3,Win32,59.88023952,657b66ea316d21385b68909f,,,,,,,,,,,954.9798,955.9881,,,956.4782,956.7277,,14,194,,,,,,,,,,,,,,,,bars/028.png,bars/mask003.png,,,,,,,,,,,,0,1,,,,,,,10,0,10,0,,,,,,,,,,,955.9881,956.4781,956.7278,996.2746,space,39.5204,,996.2746,31,74,997.2738,997.2739,999.035,space,1.7297,,0,41,41,41,1,45,120,,,,,,,,
,,60c9c994c019ca2e1836e7d7,65af56ab4abd09284145a1a7,2024-01-23_08h15.15.697,bars,2023.2.3,Win32,59.88023952,657b66ea316d21385b68909f,,,,,,,,,,,999.0359,1000.0293,,,1000.5228,1000.7633,,56,56,,,,,,,,,,,,,,,,bars/014.png,bars/mask004.png,,,,,,,,,,,,2,1,,,,,,,10,2,10,2,,,,,,,,,,,1000.0293,1000.5228,1000.7634,1001.7404,space,0.9511,,1001.7405,24,56,1002.7385,1002.7385,1002.9965,space,0.2372,,0,42,42,42,1,80,0,,,,,,,,
,,60c9c994c019ca2e1836e7d7,65af56ab4abd09284145a1a7,2024-01-23_08h15.15.697,bars,2023.2.3,Win32,59.88023952,657b66ea316d21385b68909f,,,,,,,,,,,1002.9979,1003.9951,,,1004.4943,1004.7371,,125,125,,,,,,,,,,,,,,,,bars/017.png,bars/mask008.png,,,,,,,,,,,,3,1,,,,,,,8,0,8,0,,,,,,,,,,,1003.9952,1004.4943,1004.7372,1009.0539,space,4.2997,,1009.054,20,80,1010.0437,1010.0438,1010.9094,space,0.8245,,0,43,43,43,1,145,45,,,,,,,,
,,60c9c994c019ca2e1836e7d7,65af56ab4abd09284145a1a7,2024-01-23_08h15.15.697,bars,2023.2.3,Win32,59.88023952,657b66ea316d21385b68909f,,,,,,,,,,,1010.9102,1011.9088,,,1012.4094,1012.6685,,103,103,,,,,,,,,,,,,,,,bars/031.png,bars/mask008.png,,,,,,,,,,,,3,1,,,,,,,6,0,6,0,,,,,,,,,,,1011.9088,1012.4093,1012.6686,1013.6868,space,1.0009,,1013.6868,17,68,1014.675,1014.675,1015.4846,space,0.7837,,0,44,44,44,1,120,35,,,,,,,,
,,60c9c994c019ca2e1836e7d7,65af56ab4abd09284145a1a7,2024-01-23_08h15.15.697,bars,2023.2.3,Win32,59.88023952,657b66ea316d21385b68909f,,,,,,,,,,,1015.485,1016.4735,,,1016.9641,1017.2073,,144,144,,,,,,,,,,,,,,,,bars/032.png,bars/mask001.png,,,,,,,,,,,,1,1,,,,,,,4,0,4,0,,,,,,,,,,,1016.4736,1016.964,1017.2073,1019.024,space,1.7854,,1019.024,19,56,1020.0228,1020.023,1024.7163,space,4.6523,,0,45,45,45,1,125,20,,,,,,,,
,,60c9c994c019ca2e1836e7d7,65af56ab4abd09284145a1a7,2024-01-23_08h15.15.697,bars,2023.2.3,Win32,59.88023952,657b66ea316d21385b68909f,,,,,,,,,,,1024.7478,1025.7206,,,1026.221,1026.4704,,35,35,,,,,,,,,,,,,,,,bars/040.png,bars/mask000.png,,,,,,,,,,,,0,2,,,,,,,6,2,4,2,,,,,,,,,,,1025.7207,1026.2209,1026.4704,1026.4874,space,0.0009,,1026.4875,75,30,1027.4867,1027.4869,1028.4154,space,0.91,,0,46,46,46,1,140,5,,,,,,,,
,,60c9c994c019ca2e1836e7d7,65af56ab4abd09284145a1a7,2024-01-23_08h15.15.697,bars,2023.2.3,Win32,59.88023952,657b66ea316d21385b68909f,,,,,,,,,,,1028.4162,1029.4191,,,1029.9125,1030.1531,,29,209,,,,,,,,,,,,,,,,bars/027.png,bars/mask008.png,,,,,,,,,,,,1,2,,,,,,,4,4,4,4,,,,,,,,,,,1029.4191,1029.9124,1030.1531,1035.3947,space,5.2155,,1035.3947,81,21,1036.385,1036.3851,1036.8807,space,0.468,,0,47,47,47,1,110,50,,,,,,,,
,,60c9c994c019ca2e1836e7d7,65af56ab4abd09284145a1a7,2024-01-23_08h15.15.697,bars,2023.2.3,Win32,59.88023952,657b66ea316d21385b68909f,,,,,,,,,,,1036.8815,1037.8845,,,1038.3782,1038.6165,,50,50,,,,,,,,,,,,,,,,bars/031.png,bars/mask001.png,,,,,,,,,,,,3,2,,,,,,,6,6,7,5,,,,,,,,,,,1037.8845,1038.3781,1038.6166,1040.0099,space,1.3671,,1040.0099,70,15,1040.9993,1040.9995,1041.7164,space,0.6859,,0,48,48,48,1,120,35,,,,,,,,
,,60c9c994c019ca2e1836e7d7,65af56ab4abd09284145a1a7,2024-01-23_08h15.15.697,bars,2023.2.3,Win32,59.88023952,657b66ea316d21385b68909f,,,,,,,,,,,1041.7174,1042.7157,,,1043.2152,1043.4581,,137,137,,,,,,,,,,,,,,,,bars/016.png,bars/mask000.png,,,,,,,,,,,,1,2,,,,,,,8,8,9,8,,,,,,,,,,,1042.7157,1043.2151,1043.4582,1048.4139,space,4.9333,,1048.414,83,28,1049.4134,1049.4134,1051.4119,space,1.9663,,0,49,49,49,1,40,165,,,,,,,,
,,60c9c994c019ca2e1836e7d7,65af56ab4abd09284145a1a7,2024-01-23_08h15.15.697,bars,2023.2.3,Win32,59.88023952,657b66ea316d21385b68909f,,,,,,,,,,,,,,,,,,,,,,,,,,,,,,,,,,,,,,,,,,,,,,,,,,,,,,,,,,,,,,,,,,,,,,,,,,,,,,,,,,,,,,,,,,,,,1051.4132,1111.4086,0,0,0,0,1,sequence_tables/blk034.csv
,,60c9c994c019ca2e1836e7d7,65af56ab4abd09284145a1a7,2024-01-23_08h15.15.697,bars,2023.2.3,Win32,59.88023952,657b66ea316d21385b68909f,,,,,,,,,,,1113.9427,1114.9474,,,1115.4403,1115.6903,,134,134,,,,,,,,,,,,,,,,bars/013.png,bars/mask001.png,,,,,,,,,,,,0,2,,,,,,,10,2,10,0,,,,,,1111.4231,1113.9347,space,2.5006,,1114.9475,1115.4402,1115.6903,1117.8185,space,2.115,,1117.8187,59,56,1118.8161,1118.8162,1118.8185,,,,0,0,0,0,1,75,10,,,,,,,,
,,60c9c994c019ca2e1836e7d7,65af56ab4abd09284145a1a7,2024-01-23_08h15.15.697,bars,2023.2.3,Win32,59.88023952,657b66ea316d21385b68909f,,,,,,,,,,,1118.8193,1119.8222,,,1120.3217,1120.578,,70,70,,,,,,,,,,,,,,,,bars/028.png,bars/mask002.png,,,,,,,,,,,,2,1,,,,,,,10,0,10,1,,,,,,,,,,,1119.8222,1120.3217,1120.578,1121.7321,space,1.1339,,1121.7322,25,50,1122.7208,1122.7208,1122.7241,,,,0,1,1,1,1,45,120,,,,,,,,
,,60c9c994c019ca2e1836e7d7,65af56ab4abd09284145a1a7,2024-01-23_08h15.15.697,bars,2023.2.3,Win32,59.88023952,657b66ea316d21385b68909f,,,,,,,,,,,1122.7245,1123.7303,,,1124.2202,1124.4643,,68,68,,,,,,,,,,,,,,,,bars/010.png,bars/mask006.png,,,,,,,,,,,,0,2,,,,,,,8,2,8,0,,,,,,,,,,,1123.7303,1124.2201,1124.4643,1125.8811,space,1.4017,,1125.8811,83,13,1126.8697,1126.8697,1126.8722,,,,0,2,2,2,1,165,55,,,,,,,,
,,60c9c994c019ca2e1836e7d7,65af56ab4abd09284145a1a7,2024-01-23_08h15.15.697,bars,2023.2.3,Win32,59.88023952,657b66ea316d21385b68909f,,,,,,,,,,,1126.8725,1127.8784,,,1128.3698,1128.6189,,118,118,,,,,,,,,,,,,,,,bars/003.png,bars/mask003.png,,,,,,,,,,,,0,2,,,,,,,6,0,6,0,,,,,,,,,,,1127.8784,1128.3697,1128.619,1129.2529,space,0.6011,,1129.2529,87,22,1130.246,1130.246,1130.247,,,,0,3,3,3,1,25,140,,,,,,,,
,,60c9c994c019ca2e1836e7d7,65af56ab4abd09284145a1a7,2024-01-23_08h15.15.697,bars,2023.2.3,Win32,59.88023952,657b66ea316d21385b68909f,,,,,,,,,,,1130.2473,1131.2514,,,1131.7616,1132.001,,60,60,,,,,,,,,,,,,,,,bars/040.png,bars/mask006.png,,,,,,,,,,,,0,2,,,,,,,8,0,8,0,,,,,,,,,,,1131.2514,1131.7615,1132.0012,1136.1937,space,4.1659,,1136.1937,80,55,1137.1837,1137.1839,1137.2056,,,,0,4,4,4,1,140,5,,,,,,,,
,,60c9c994c019ca2e1836e7d7,65af56ab4abd09284145a1a7,2024-01-23_08h15.15.697,bars,2023.2.3,Win32,59.88023952,657b66ea316d21385b68909f,,,,,,,,,,,1137.2059,1138.1989,,,1138.7076,1138.9555,,37,217,,,,,,,,,,,,,,,,bars/049.png,bars/mask006.png,,,,,,,,,,,,0,1,,,,,,,6,2,7,3,,,,,,,,,,,1138.1989,1138.7075,1138.9556,1143.8423,space,4.8791,,1143.8423,57,78,1144.8305,1144.8306,1144.8463,,,,0,5,5,5,1,160,115,,,,,,,,
,,60c9c994c019ca2e1836e7d7,65af56ab4abd09284145a1a7,2024-01-23_08h15.15.697,bars,2023.2.3,Win32,59.88023952,657b66ea316d21385b68909f,,,,,,,,,,,1144.8468,1145.846,,,1146.3387,1146.5904,,73,73,,,,,,,,,,,,,,,,bars/008.png,bars/mask002.png,,,,,,,,,,,,0,1,,,,,,,8,4,6,3,,,,,,,,,,,1145.8461,1146.3385,1146.5904,1150.6893,space,4.082,,1150.6893,37,73,1151.6778,1151.6779,1151.6915,,,,0,6,6,6,1,110,0,,,,,,,,
,,60c9c994c019ca2e1836e7d7,65af56ab4abd09284145a1a7,2024-01-23_08h15.15.697,bars,2023.2.3,Win32,59.88023952,657b66ea316d21385b68909f,,,,,,,,,,,1151.6919,1152.6943,,,1153.1938,1153.4328,,92,92,,,,,,,,,,,,,,,,bars/007.png,bars/mask008.png,,,,,,,,,,,,0,2,,,,,,,6,2,6,3,,,,,,,,,,,1152.6944,1153.1937,1153.4329,1154.6059,space,1.1657,,1154.606,83,37,1155.5935,1155.5936,1155.5961,,,,0,7,7,7,1,175,55,,,,,,,,
,,60c9c994c019ca2e1836e7d7,65af56ab4abd09284145a1a7,2024-01-23_08h15.15.697,bars,2023.2.3,Win32,59.88023952,657b66ea316d21385b68909f,,,,,,,,,,,1155.5965,1156.5938,,,1157.086,1157.3261,,128,128,,,,,,,,,,,,,,,,bars/023.png,bars/mask004.png,,,,,,,,,,,,0,2,,,,,,,8,0,8,0,,,,,,,,,,,1156.5938,1157.086,1157.3261,1159.2046,space,1.8514,,1159.2046,72,13,1160.1927,1160.1928,1160.2226,,,,0,8,8,8,1,20,115,,,,,,,,
,,60c9c994c019ca2e1836e7d7,65af56ab4abd09284145a1a7,2024-01-23_08h15.15.697,bars,2023.2.3,Win32,59.88023952,657b66ea316d21385b68909f,,,,,,,,,,,1160.2233,1161.2182,,,1161.7087,1161.9583,,173,-7,,,,,,,,,,,,,,,,bars/022.png,bars/mask003.png,,,,,,,,,,,,0,2,,,,,,,6,0,7,0,,,,,,,,,,,1161.2182,1161.7086,1161.9584,1165.1407,space,3.1728,,1165.1407,78,27,1166.1395,1166.1396,1166.1533,,,,0,9,9,9,1,95,20,,,,,,,,
,,60c9c994c019ca2e1836e7d7,65af56ab4abd09284145a1a7,2024-01-23_08h15.15.697,bars,2023.2.3,Win32,59.88023952,657b66ea316d21385b68909f,,,,,,,,,,,1166.1536,1167.1563,,,1167.6499,1167.8907,,95,95,,,,,,,,,,,,,,,,bars/015.png,bars/mask004.png,,,,,,,,,,,,4,1,,,,,,,8,2,7,2,,,,,,,,,,,1167.1563,1167.6498,1167.8907,1170.0839,space,2.1686,,1170.084,15,65,1171.0816,1171.0817,1171.1139,,,,0,10,10,10,1,110,160,,,,,,,,
,,60c9c994c019ca2e1836e7d7,65af56ab4abd09284145a1a7,2024-01-23_08h15.15.697,bars,2023.2.3,Win32,59.88023952,657b66ea316d21385b68909f,,,,,,,,,,,1171.1145,1172.1048,,,1172.6042,1172.8536,,155,155,,,,,,,,,,,,,,,,bars/036.png,bars/mask008.png,,,,,,,,,,,,4,1,,,,,,,6,4,6,3,,,,,,,,,,,1172.105,1172.6041,1172.8537,1179.8786,space,6.9988,,1179.8786,10,45,1180.8682,1180.8683,1180.9002,,,,0,11,11,11,1,145,20,,,,,,,,
,,60c9c994c019ca2e1836e7d7,65af56ab4abd09284145a1a7,2024-01-23_08h15.15.697,bars,2023.2.3,Win32,59.88023952,657b66ea316d21385b68909f,,,,,,,,,,,1180.9012,1181.9016,,,1182.402,1182.6603,,125,125,,,,,,,,,,,,,,,,bars/021.png,bars/mask000.png,,,,,,,,,,,,0,1,,,,,,,4,2,4,0,,,,,,,,,,,1181.9016,1182.402,1182.6604,1183.9181,space,1.2346,,1183.9182,30,55,1184.9175,1184.9176,1184.9484,,,,0,12,12,12,1,155,70,,,,,,,,
,,60c9c994c019ca2e1836e7d7,65af56ab4abd09284145a1a7,2024-01-23_08h15.15.697,bars,2023.2.3,Win32,59.88023952,657b66ea316d21385b68909f,,,,,,,,,,,1184.9496,1185.9434,,,1186.443,1186.6931,,98,98,,,,,,,,,,,,,,,,bars/012.png,bars/mask000.png,,,,,,,,,,,,1,1,,,,,,,2,4,2,4,,,,,,,,,,,1185.9435,1186.443,1186.6932,1188.6773,space,1.9674,,1188.6775,8,83,1189.6822,1189.6822,1189.7127,,,,0,13,13,13,1,90,15,,,,,,,,
,,60c9c994c019ca2e1836e7d7,65af56ab4abd09284145a1a7,2024-01-23_08h15.15.697,bars,2023.2.3,Win32,59.88023952,657b66ea316d21385b68909f,,,,,,,,,,,1189.7136,1190.7152,,,1191.2148,1191.4641,,102,102,,,,,,,,,,,,,,,,bars/049.png,bars/mask004.png,,,,,,,,,,,,0,2,,,,,,,0,2,0,0,,,,,,,,,,,1190.7153,1191.2147,1191.4641,1192.7143,space,1.2353,,1192.7144,58,13,1193.7143,1193.7144,1193.7168,,,,0,14,14,14,1,160,115,,,,,,,,
,,60c9c994c019ca2e1836e7d7,65af56ab4abd09284145a1a7,2024-01-23_08h15.15.697,bars,2023.2.3,Win32,59.88023952,657b66ea316d21385b68909f,,,,,,,,,,,1193.7172,1194.7143,,,1195.2079,1195.4552,,145,145,,,,,,,,,,,,,,,,bars/031.png,bars/mask004.png,,,,,,,,,,,,0,1,,,,,,,0,4,0,3,,,,,,,,,,,1194.7143,1195.2078,1195.4553,1197.3225,space,1.8501,,1197.3226,25,70,1198.3138,1198.3138,1198.3177,,,,0,15,15,15,1,120,35,,,,,,,,
,,60c9c994c019ca2e1836e7d7,65af56ab4abd09284145a1a7,2024-01-23_08h15.15.697,bars,2023.2.3,Win32,59.88023952,657b66ea316d21385b68909f,,,,,,,,,,,1198.3185,1199.3112,,,1199.8111,1200.0715,,57,57,,,,,,,,,,,,,,,,bars/005.png,bars/mask002.png,,,,,,,,,,,,0,1,,,,,,,2,2,3,3,,,,,,,,,,,1199.3113,1199.811,1200.0715,1201.7051,space,1.6173,,1201.7052,47,83,1202.6941,1202.6941,1202.696,,,,0,16,16,16,1,10,140,,,,,,,,
,,60c9c994c019ca2e1836e7d7,65af56ab4abd09284145a1a7,2024-01-23_08h15.15.697,bars,2023.2.3,Win32,59.88023952,657b66ea316d21385b68909f,,,,,,,,,,,1202.6967,1203.687,,,1204.1779,1204.4197,,94,94,,,,,,,,,,,,,,,,bars/049.png,bars/mask006.png,,,,,,,,,,,,1,2,,,,,,,4,4,2,4,,,,,,,,,,,1203.6871,1204.1777,1204.4198,1206.2387,space,1.8111,,1206.2388,66,21,1207.2432,1207.2433,1207.2768,,,,0,17,17,17,1,160,115,,,,,,,,
,,60c9c994c019ca2e1836e7d7,65af56ab4abd09284145a1a7,2024-01-23_08h15.15.697,bars,2023.2.3,Win32,59.88023952,657b66ea316d21385b68909f,,,,,,,,,,,1207.2773,1208.2682,,,1208.7581,1209.0018,,99,99,,,,,,,,,,,,,,,,bars/038.png,bars/mask000.png,,,,,,,,,,,,0,2,,,,,,,6,2,7,3,,,,,,,,,,,1208.2683,1208.7581,1209.0018,1214.7023,space,5.6833,,1214.7024,66,29,1215.7068,1215.7068,1215.739,,,,0,18,18,18,1,165,70,,,,,,,,
,,60c9c994c019ca2e1836e7d7,65af56ab4abd09284145a1a7,2024-01-23_08h15.15.697,bars,2023.2.3,Win32,59.88023952,657b66ea316d21385b68909f,,,,,,,,,,,1215.7395,1216.7489,,,1217.2401,1217.4986,,88,88,,,,,,,,,,,,,,,,bars/020.png,bars/mask002.png,,,,,,,,,,,,0,1,,,,,,,4,4,3,6,,,,,,,,,,,1216.7489,1217.24,1217.4987,1221.6483,space,4.1332,,1221.6483,27,82,1222.6368,1222.6368,1222.6522,,,,0,19,19,19,1,115,170,,,,,,,,
,,60c9c994c019ca2e1836e7d7,65af56ab4abd09284145a1a7,2024-01-23_08h15.15.697,bars,2023.2.3,Win32,59.88023952,657b66ea316d21385b68909f,,,,,,,,,,,1222.6526,1223.6531,,,1224.1467,1224.3867,,47,47,,,,,,,,,,,,,,,,bars/025.png,bars/mask004.png,,,,,,,,,,,,2,2,,,,,,,6,2,6,2,,,,,,,,,,,1223.6532,1224.1467,1224.3867,1228.5791,space,4.1664,,1228.5792,58,7,1229.5688,1229.5688,1229.5842,,,,0,20,20,20,1,105,40,,,,,,,,
,,60c9c994c019ca2e1836e7d7,65af56ab4abd09284145a1a7,2024-01-23_08h15.15.697,bars,2023.2.3,Win32,59.88023952,657b66ea316d21385b68909f,,,,,,,,,,,1229.5846,1230.5909,,,1231.0849,1231.3248,,29,29,,,,,,,,,,,,,,,,bars/019.png,bars/mask009.png,,,,,,,,,,,,5,1,,,,,,,8,4,10,7,,,,,,,,,,,1230.5909,1231.0848,1231.3248,1236.145,space,4.7995,,1236.1451,16,76,1237.133,1237.1331,1237.1637,,,,0,21,21,21,1,45,105,,,,,,,,
,,60c9c994c019ca2e1836e7d7,65af56ab4abd09284145a1a7,2024-01-23_08h15.15.697,bars,2023.2.3,Win32,59.88023952,657b66ea316d21385b68909f,,,,,,,,,,,1237.1648,1238.1654,,,1238.6651,1238.9153,,165,-15,,,,,,,,,,,,,,,,bars/040.png,bars/mask007.png,,,,,,,,,,,,2,2,,,,,,,10,6,10,6,,,,,,,,,,,1238.1654,1238.665,1238.9154,1242.6002,space,3.6582,,1242.6003,25,20,1243.5977,1243.5977,1243.6203,,,,0,22,22,22,1,140,5,,,,,,,,
,,60c9c994c019ca2e1836e7d7,65af56ab4abd09284145a1a7,2024-01-23_08h15.15.697,bars,2023.2.3,Win32,59.88023952,657b66ea316d21385b68909f,,,,,,,,,,,1243.6206,1244.6232,,,1245.1144,1245.3625,,52,52,,,,,,,,,,,,,,,,bars/000.png,bars/mask009.png,,,,,,,,,,,,5,1,,,,,,,8,4,8,3,,,,,,,,,,,1244.6233,1245.1144,1245.3625,1248.3138,space,2.9337,,1248.3139,12,87,1249.3113,1249.3113,1249.3267,,,,0,23,23,23,1,40,145,,,,,,,,
,,60c9c994c019ca2e1836e7d7,65af56ab4abd09284145a1a7,2024-01-23_08h15.15.697,bars,2023.2.3,Win32,59.88023952,657b66ea316d21385b68909f,,,,,,,,,,,1249.3275,1250.3216,,,1250.8116,1251.061,,62,62,,,,,,,,,,,,,,,,bars/043.png,bars/mask001.png,,,,,,,,,,,,0,1,,,,,,,6,6,6,8,,,,,,,,,,,1250.3222,1250.8115,1251.061,1253.37,space,2.2971,,1253.37,32,68,1254.3605,1254.3606,1254.3911,,,,0,24,24,24,1,30,130,,,,,,,,
,,60c9c994c019ca2e1836e7d7,65af56ab4abd09284145a1a7,2024-01-23_08h15.15.697,bars,2023.2.3,Win32,59.88023952,657b66ea316d21385b68909f,,,,,,,,,,,1254.3921,1255.393,,,1255.886,1256.1277,,144,144,,,,,,,,,,,,,,,,bars/011.png,bars/mask005.png,,,,,,,,,,,,2,1,,,,,,,4,8,5,8,,,,,,,,,,,1255.3931,1255.8859,1256.1277,1257.4788,space,1.326,,1257.4789,16,59,1258.4848,1258.4849,1258.5003,,,,0,25,25,25,1,160,85,,,,,,,,
,,60c9c994c019ca2e1836e7d7,65af56ab4abd09284145a1a7,2024-01-23_08h15.15.697,bars,2023.2.3,Win32,59.88023952,657b66ea316d21385b68909f,,,,,,,,,,,1258.5006,1259.4913,,,1259.9917,1260.2421,,147,147,,,,,,,,,,,,,,,,bars/048.png,bars/mask004.png,,,,,,,,,,,,1,2,,,,,,,6,10,6,10,,,,,,,,,,,1259.4913,1259.9916,1260.2422,1262.5578,space,2.2992,,1262.5578,83,28,1263.5568,1263.5569,1263.5938,,,,0,26,26,26,1,50,175,,,,,,,,
,,60c9c994c019ca2e1836e7d7,65af56ab4abd09284145a1a7,2024-01-23_08h15.15.697,bars,2023.2.3,Win32,59.88023952,657b66ea316d21385b68909f,,,,,,,,,,,1263.5946,1264.5893,,,1265.0905,1265.3486,,111,111,,,,,,,,,,,,,,,,bars/043.png,bars/mask002.png,,,,,,,,,,,,3,2,,,,,,,4,8,2,7,,,,,,,,,,,1264.5893,1265.0904,1265.3487,1267.5194,space,2.1523,,1267.5195,81,19,1268.5211,1268.5212,1268.5353,,,,0,27,27,27,1,30,130,,,,,,,,
,,60c9c994c019ca2e1836e7d7,65af56ab4abd09284145a1a7,2024-01-23_08h15.15.697,bars,2023.2.3,Win32,59.88023952,657b66ea316d21385b68909f,,,,,,,,,,,1268.5356,1269.5468,,,1270.038,1270.2883,,100,100,,,,,,,,,,,,,,,,bars/008.png,bars/mask008.png,,,,,,,,,,,,5,1,,,,,,,6,10,8,10,,,,,,,,,,,1269.5468,1270.0379,1270.2883,1272.0816,space,1.7658,,1272.0816,10,80,1273.0702,1273.0702,1273.0857,,,,0,28,28,28,1,110,0,,,,,,,,
,,60c9c994c019ca2e1836e7d7,65af56ab4abd09284145a1a7,2024-01-23_08h15.15.697,bars,2023.2.3,Win32,59.88023952,657b66ea316d21385b68909f,,,,,,,,,,,1273.0861,1274.0873,,,1274.5805,1274.8295,,90,90,,,,,,,,,,,,,,,,bars/014.png,bars/mask002.png,,,,,,,,,,,,5,1,,,,,,,8,10,7,10,,,,,,,,,,,1274.0873,1274.5804,1274.8296,1276.2194,space,1.3666,,1276.2194,10,90,1277.2191,1277.2192,1277.2216,,,,0,29,29,29,1,80,0,,,,,,,,
,,60c9c994c019ca2e1836e7d7,65af56ab4abd09284145a1a7,2024-01-23_08h15.15.697,bars,2023.2.3,Win32,59.88023952,657b66ea316d21385b68909f,,,,,,,,,,,1277.2225,1278.2186,,,1278.7183,1278.9683,,39,39,,,,,,,,,,,,,,,,bars/049.png,bars/mask007.png,,,,,,,,,,,,0,1,,,,,,,6,10,6,10,,,,,,,,,,,1278.2187,1278.7182,1278.9683,1286.403,space,7.4081,,1286.4031,59,76,1287.3992,1287.3992,1287.4321,,,,0,30,30,30,1,160,115,,,,,,,,
,,60c9c994c019ca2e1836e7d7,65af56ab4abd09284145a1a7,2024-01-23_08h15.15.697,bars,2023.2.3,Win32,59.88023952,657b66ea316d21385b68909f,,,,,,,,,,,1287.4328,1288.4257,,,1288.9156,1289.1657,,53,53,,,,,,,,,,,,,,,,bars/033.png,bars/mask009.png,,,,,,,,,,,,1,1,,,,,,,8,8,10,9,,,,,,,,,,,1288.4258,1288.9154,1289.1658,1291.4918,space,2.3133,,1291.492,28,78,1292.4921,1292.4921,1292.5222,,,,0,31,31,31,1,25,155,,,,,,,,
,,60c9c994c019ca2e1836e7d7,65af56ab4abd09284145a1a7,2024-01-23_08h15.15.697,bars,2023.2.3,Win32,59.88023952,657b66ea316d21385b68909f,,,,,,,,,,,1292.5229,1293.5132,,,1294.0136,1294.263,,102,102,,,,,,,,,,,,,,,,bars/048.png,bars/mask000.png,,,,,,,,,,,,0,1,,,,,,,10,6,10,6,,,,,,,,,,,1293.5133,1294.0135,1294.2631,1298.4732,space,4.1977,,1298.4733,52,73,1299.4611,1299.4611,1299.4748,,,,0,32,32,32,1,50,175,,,,,,,,
,,60c9c994c019ca2e1836e7d7,65af56ab4abd09284145a1a7,2024-01-23_08h15.15.697,bars,2023.2.3,Win32,59.88023952,657b66ea316d21385b68909f,,,,,,,,,,,1299.475,1300.4671,,,1300.9719,1301.2112,,50,50,,,,,,,,,,,,,,,,bars/009.png,bars/mask000.png,,,,,,,,,,,,0,1,,,,,,,10,8,10,7,,,,,,,,,,,1300.4672,1300.9718,1301.2113,1301.3544,space,0.1177,,1301.3544,35,55,1302.3447,1302.3447,1302.3464,,,,0,33,33,33,1,15,105,,,,,,,,
,,60c9c994c019ca2e1836e7d7,65af56ab4abd09284145a1a7,2024-01-23_08h15.15.697,bars,2023.2.3,Win32,59.88023952,657b66ea316d21385b68909f,,,,,,,,,,,1302.347,1303.3438,,,1303.85,1304.0925,,100,100,,,,,,,,,,,,,,,,bars/007.png,bars/mask001.png,,,,,,,,,,,,0,2,,,,,,,8,6,7,6,,,,,,,,,,,1303.344,1303.8499,1304.0926,1306.2765,space,2.1565,,1306.2766,75,45,1307.2687,1307.2689,1307.2731,,,,0,34,34,34,1,175,55,,,,,,,,
,,60c9c994c019ca2e1836e7d7,65af56ab4abd09284145a1a7,2024-01-23_08h15.15.697,bars,2023.2.3,Win32,59.88023952,657b66ea316d21385b68909f,,,,,,,,,,,1307.2738,1308.2755,,,1308.7756,1309.0255,,64,64,,,,,,,,,,,,,,,,bars/017.png,bars/mask004.png,,,,,,,,,,,,2,2,,,,,,,10,4,10,5,,,,,,,,,,,1308.2756,1308.7756,1309.0256,1311.9686,space,2.9333,,1311.9686,81,19,1312.9577,1312.9578,1312.9727,,,,0,35,35,35,1,145,45,,,,,,,,
,,60c9c994c019ca2e1836e7d7,65af56ab4abd09284145a1a7,2024-01-23_08h15.15.697,bars,2023.2.3,Win32,59.88023952,657b66ea316d21385b68909f,,,,,,,,,,,1312.9731,1313.9735,,,1314.4735,1314.7231,,40,40,,,,,,,,,,,,,,,,bars/001.png,bars/mask004.png,,,,,,,,,,,,0,2,,,,,,,10,6,10,8,,,,,,,,,,,1313.9735,1314.4734,1314.7232,1316.6173,space,1.8684,,1316.6174,90,45,1317.6161,1317.6162,1317.6179,,,,0,36,36,36,1,130,85,,,,,,,,
,,60c9c994c019ca2e1836e7d7,65af56ab4abd09284145a1a7,2024-01-23_08h15.15.697,bars,2023.2.3,Win32,59.88023952,657b66ea316d21385b68909f,,,,,,,,,,,1317.6186,1318.6158,,,1319.1045,1319.3548,,120,120,,,,,,,,,,,,,,,,bars/002.png,bars/mask002.png,,,,,,,,,,,,7,1,,,,,,,10,4,10,3,,,,,,,,,,,1318.6158,1319.1045,1319.3548,1321.0292,space,1.6481,,1321.0293,10,35,1322.0214,1322.0215,1322.0571,,,,0,37,37,37,1,130,85,,,,,,,,
,,60c9c994c019ca2e1836e7d7,65af56ab4abd09284145a1a7,2024-01-23_08h15.15.697,bars,2023.2.3,Win32,59.88023952,657b66ea316d21385b68909f,,,,,,,,,,,1322.0579,1323.0531,,,1323.5542,1323.8039,,137,137,,,,,,,,,,,,,,,,bars/038.png,bars/mask005.png,,,,,,,,,,,,0,1,,,,,,,8,2,7,3,,,,,,,,,,,1323.0532,1323.5541,1323.8039,1330.3617,space,6.5485,,1330.3618,28,67,1331.3498,1331.3499,1331.3676,,,,0,38,38,38,1,165,70,,,,,,,,
,,60c9c994c019ca2e1836e7d7,65af56ab4abd09284145a1a7,2024-01-23_08h15.15.697,bars,2023.2.3,Win32,59.88023952,657b66ea316d21385b68909f,,,,,,,,,,,1331.368,1332.3593,,,1332.8507,1333.0924,,161,161,,,,,,,,,,,,,,,,bars/019.png,bars/mask006.png,,,,,,,,,,,,0,2,,,,,,,10,4,8,4,,,,,,,,,,,1332.3593,1332.8506,1333.0925,1337.2328,space,4.1239,,1337.2329,64,56,1338.2309,1338.2309,1338.2488,,,,0,39,39,39,1,45,105,,,,,,,,
,,60c9c994c019ca2e1836e7d7,65af56ab4abd09284145a1a7,2024-01-23_08h15.15.697,bars,2023.2.3,Win32,59.88023952,657b66ea316d21385b68909f,,,,,,,,,,,1338.2494,1339.2472,,,1339.7475,1339.9975,,38,38,,,,,,,,,,,,,,,,bars/014.png,bars/mask007.png,,,,,,,,,,,,0,2,,,,,,,8,2,7,3,,,,,,,,,,,1339.2473,1339.7474,1339.9975,1344.9236,space,4.9005,,1344.9237,42,38,1345.9116,1345.9116,1345.9261,,,,0,40,40,40,1,80,0,,,,,,,,
,,60c9c994c019ca2e1836e7d7,65af56ab4abd09284145a1a7,2024-01-23_08h15.15.697,bars,2023.2.3,Win32,59.88023952,657b66ea316d21385b68909f,,,,,,,,,,,1345.9265,1346.9282,,,1347.4283,1347.6788,,170,-10,,,,,,,,,,,,,,,,bars/029.png,bars/mask009.png,,,,,,,,,,,,0,2,,,,,,,6,4,6,4,,,,,,,,,,,1346.9283,1347.4282,1347.6788,1350.7407,space,3.0356,,1350.7407,80,55,1351.7442,1351.7443,1351.7589,,,,0,41,41,41,1,90,45,,,,,,,,
,,60c9c994c019ca2e1836e7d7,65af56ab4abd09284145a1a7,2024-01-23_08h15.15.697,bars,2023.2.3,Win32,59.88023952,657b66ea316d21385b68909f,,,,,,,,,,,1351.7595,1352.7552,,,1353.2439,1353.4939,,133,133,,,,,,,,,,,,,,,,bars/045.png,bars/mask007.png,,,,,,,,,,,,0,1,,,,,,,4,6,5,5,,,,,,,,,,,1352.7553,1353.2438,1353.4939,1357.0043,space,3.4843,,1357.0044,33,57,1358.0018,1358.0018,1358.0315,,,,0,42,42,42,1,100,10,,,,,,,,
,,60c9c994c019ca2e1836e7d7,65af56ab4abd09284145a1a7,2024-01-23_08h15.15.697,bars,2023.2.3,Win32,59.88023952,657b66ea316d21385b68909f,,,,,,,,,,,1358.0319,1359.0259,,,1359.5245,1359.7837,,136,136,,,,,,,,,,,,,,,,bars/007.png,bars/mask004.png,,,,,,,,,,,,0,1,,,,,,,2,4,1,3,,,,,,,,,,,1359.0259,1359.5244,1359.7838,1364.2346,space,4.4345,,1364.2347,39,81,1365.2231,1365.2233,1365.2583,,,,0,43,43,43,1,175,55,,,,,,,,
,,60c9c994c019ca2e1836e7d7,65af56ab4abd09284145a1a7,2024-01-23_08h15.15.697,bars,2023.2.3,Win32,59.88023952,657b66ea316d21385b68909f,,,,,,,,,,,1365.2586,1366.2547,,,1366.7473,1366.9976,,77,77,,,,,,,,,,,,,,,,bars/048.png,bars/mask005.png,,,,,,,,,,,,0,1,,,,,,,0,6,0,7,,,,,,,,,,,1366.2549,1366.7473,1366.9976,1368.5811,space,1.5668,,1368.5812,27,82,1369.5805,1369.5806,1369.5815,,,,0,44,44,44,1,50,175,,,,,,,,
,,60c9c994c019ca2e1836e7d7,65af56ab4abd09284145a1a7,2024-01-23_08h15.15.697,bars,2023.2.3,Win32,59.88023952,657b66ea316d21385b68909f,,,,,,,,,,,1369.582,1370.5712,,,1371.0708,1371.3147,,129,129,,,,,,,,,,,,,,,,bars/032.png,bars/mask000.png,,,,,,,,,,,,0,1,,,,,,,0,8,0,9,,,,,,,,,,,1370.5712,1371.0707,1371.3147,1373.8302,space,2.5004,,1373.8303,4,71,1374.8185,1374.8185,1374.835,,,,0,45,45,45,1,125,20,,,,,,,,
,,60c9c994c019ca2e1836e7d7,65af56ab4abd09284145a1a7,2024-01-23_08h15.15.697,bars,2023.2.3,Win32,59.88023952,657b66ea316d21385b68909f,,,,,,,,,,,1374.8355,1375.8447,,,1376.3351,1376.5853,,39,39,,,,,,,,,,,,,,,,bars/038.png,bars/mask001.png,,,,,,,,,,,,0,2,,,,,,,0,6,0,7,,,,,,,,,,,1375.8448,1376.335,1376.5853,1378.4472,space,1.8356,,1378.4472,54,31,1379.4355,1379.4356,1379.4402,,,,0,46,46,46,1,165,70,,,,,,,,
,,60c9c994c019ca2e1836e7d7,65af56ab4abd09284145a1a7,2024-01-23_08h15.15.697,bars,2023.2.3,Win32,59.88023952,657b66ea316d21385b68909f,,,,,,,,,,,1379.4408,1380.4341,,,1380.9339,1381.1837,,93,93,,,,,,,,,,,,,,,,bars/035.png,bars/mask008.png,,,,,,,,,,,,0,2,,,,,,,2,8,3,7,,,,,,,,,,,1380.4341,1380.9339,1381.1838,1383.0172,space,1.8166,,1383.0172,82,33,1384.0168,1384.0169,1384.0439,,,,0,47,47,47,1,175,60,,,,,,,,
,,60c9c994c019ca2e1836e7d7,65af56ab4abd09284145a1a7,2024-01-23_08h15.15.697,bars,2023.2.3,Win32,59.88023952,657b66ea316d21385b68909f,,,,,,,,,,,1384.0442,1385.0499,,,1385.5485,1385.7988,,153,153,,,,,,,,,,,,,,,,bars/024.png,bars/mask003.png,,,,,,,,,,,,2,2,,,,,,,0,6,0,5,,,,,,,,,,,1385.05,1385.5485,1385.7989,1387.4085,space,1.5832,,1387.4085,33,17,1388.3986,1388.3987,1388.4223,,,,0,48,48,48,1,120,170,,,,,,,,
,,60c9c994c019ca2e1836e7d7,65af56ab4abd09284145a1a7,2024-01-23_08h15.15.697,bars,2023.2.3,Win32,59.88023952,657b66ea316d21385b68909f,,,,,,,,,,,1388.4226,1389.4232,,,1389.9149,1390.1634,,144,144,,,,,,,,,,,,,,,,bars/023.png,bars/mask006.png,,,,,,,,,,,,0,2,,,,,,,0,8,1,7,,,,,,,,,,,1389.4233,1389.9149,1390.1634,1392.6767,space,2.5023,,1392.6768,56,29,1393.6732,1393.6733,1393.6751,,,,0,49,49,49,1,20,115,,,,,,,,
,,60c9c994c019ca2e1836e7d7,65af56ab4abd09284145a1a7,2024-01-23_08h15.15.697,bars,2023.2.3,Win32,59.88023952,657b66ea316d21385b68909f,,,,,,,,,,,,,,,,,,,,,,,,,,,,,,,,,,,,,,,,,,,,,,,,,,,,,,,,,,,,,,,,,,,,,,,,,,,,,,,,,,,,,,,,,,,,,1393.6754,1453.6762,0,1,1,1,1,sequence_tables/blk013.csv
,,60c9c994c019ca2e1836e7d7,65af56ab4abd09284145a1a7,2024-01-23_08h15.15.697,bars,2023.2.3,Win32,59.88023952,657b66ea316d21385b68909f,,,,,,,,,,,1508.3973,1509.3791,,,1509.8728,1510.1226,,118,118,,,,,,,,,,,,,,,,bars/038.png,bars/mask001.png,,,,,,,,,,,,0,1,,,,,,,3,6,4,7,,,,,,1453.6907,1508.3615,space,54.6579,,1509.3791,1509.8728,1510.1227,1512.2564,space,2.1053,,1512.2565,47,48,1513.2659,1513.2661,1513.3002,,,,0,0,0,0,1,165,70,,,,,,,,
,,60c9c994c019ca2e1836e7d7,65af56ab4abd09284145a1a7,2024-01-23_08h15.15.697,bars,2023.2.3,Win32,59.88023952,657b66ea316d21385b68909f,,,,,,,,,,,1513.3009,1514.2978,,,1514.7883,1515.0388,,37,37,,,,,,,,,,,,,,,,bars/042.png,bars/mask005.png,,,,,,,,,,,,0,2,,,,,,,5,8,3,7,,,,,,,,,,,1514.2978,1514.7882,1515.0389,1517.0153,space,1.9501,,1517.0153,72,38,1518.0052,1518.0053,1518.0102,,,,0,1,1,1,1,145,75,,,,,,,,
,,60c9c994c019ca2e1836e7d7,65af56ab4abd09284145a1a7,2024-01-23_08h15.15.697,bars,2023.2.3,Win32,59.88023952,657b66ea316d21385b68909f,,,,,,,,,,,1518.011,1519.0034,,,1519.5049,1519.7639,,37,37,,,,,,,,,,,,,,,,bars/014.png,bars/mask007.png,,,,,,,,,,,,0,2,,,,,,,7,10,8,10,,,,,,,,,,,1519.0035,1519.5048,1519.764,1521.1636,space,1.384,,1521.1636,43,37,1522.1532,1522.1532,1522.155,,,,0,2,2,2,1,80,0,,,,,,,,
,,60c9c994c019ca2e1836e7d7,65af56ab4abd09284145a1a7,2024-01-23_08h15.15.697,bars,2023.2.3,Win32,59.88023952,657b66ea316d21385b68909f,,,,,,,,,,,1522.1557,1523.1525,,,1523.6528,1523.9029,,122,122,,,,,,,,,,,,,,,,bars/049.png,bars/mask003.png,,,,,,,,,,,,8,2,,,,,,,5,10,5,10,,,,,,,,,,,1523.1527,1523.6527,1523.9031,1526.7968,space,2.8681,,1526.7968,38,7,1527.8013,1527.8014,1527.8314,,,,0,3,3,3,1,160,115,,,,,,,,
,,60c9c994c019ca2e1836e7d7,65af56ab4abd09284145a1a7,2024-01-23_08h15.15.697,bars,2023.2.3,Win32,59.88023952,657b66ea316d21385b68909f,,,,,,,,,,,1527.8316,1528.8337,,,1529.334,1529.5773,,125,125,,,,,,,,,,,,,,,,bars/008.png,bars/mask008.png,,,,,,,,,,,,1,1,,,,,,,3,10,2,8,,,,,,,,,,,1528.8338,1529.334,1529.5773,1531.0097,space,1.4163,,1531.0098,15,55,1532.002,1532.0021,1532.0068,,,,0,4,4,4,1,110,0,,,,,,,,
,,60c9c994c019ca2e1836e7d7,65af56ab4abd09284145a1a7,2024-01-23_08h15.15.697,bars,2023.2.3,Win32,59.88023952,657b66ea316d21385b68909f,,,,,,,,,,,1532.0077,1533.0075,,,1533.4988,1533.748,,101,101,,,,,,,,,,,,,,,,bars/007.png,bars/mask004.png,,,,,,,,,,,,0,2,,,,,,,1,10,1,9,,,,,,,,,,,1533.0075,1533.4988,1533.748,1536.9763,space,3.2009,,1536.9764,74,46,1537.9808,1537.9809,1538.0056,,,,0,5,5,5,1,175,55,,,,,,,,
,,60c9c994c019ca2e1836e7d7,65af56ab4abd09284145a1a7,2024-01-23_08h15.15.697,bars,2023.2.3,Win32,59.88023952,657b66ea316d21385b68909f,,,,,,,,,,,1538.0059,1539.002,,,1539.5067,1539.756,,146,146,,,,,,,,,,,,,,,,bars/044.png,bars/mask000.png,,,,,,,,,,,,7,2,,,,,,,3,10,1,10,,,,,,,,,,,1539.0021,1539.5066,1539.7561,1541.8803,space,2.1071,,1541.8804,71,9,1542.8885,1542.8886,1542.9026,,,,0,6,6,6,1,75,155,,,,,,,,
,,60c9c994c019ca2e1836e7d7,65af56ab4abd09284145a1a7,2024-01-23_08h15.15.697,bars,2023.2.3,Win32,59.88023952,657b66ea316d21385b68909f,,,,,,,,,,,1542.9029,1543.8963,,,1544.3955,1544.6463,,134,134,,,,,,,,,,,,,,,,bars/018.png,bars/mask007.png,,,,,,,,,,,,2,1,,,,,,,5,10,5,10,,,,,,,,,,,1543.8965,1544.3955,1544.6463,1547.0954,space,2.4207,,1547.0955,16,44,1548.0944,1548.0944,1548.1288,,,,0,7,7,7,1,150,90,,,,,,,,
,,60c9c994c019ca2e1836e7d7,65af56ab4abd09284145a1a7,2024-01-23_08h15.15.697,bars,2023.2.3,Win32,59.88023952,657b66ea316d21385b68909f,,,,,,,,,,,1548.1295,1549.1277,,,1549.6277,1549.8761,,43,43,,,,,,,,,,,,,,,,bars/038.png,bars/mask000.png,,,,,,,,,,,,1,2,,,,,,,7,8,7,9,,,,,,,,,,,1549.1278,1549.6277,1549.8762,1557.702,space,7.7975,,1557.702,58,27,1558.6918,1558.6919,1558.7276,,,,0,8,8,8,1,165,70,,,,,,,,
,,60c9c994c019ca2e1836e7d7,65af56ab4abd09284145a1a7,2024-01-23_08h15.15.697,bars,2023.2.3,Win32,59.88023952,657b66ea316d21385b68909f,,,,,,,,,,,1558.7281,1559.7169,,,1560.2067,1560.4662,,32,32,,,,,,,,,,,,,,,,bars/023.png,bars/mask008.png,,,,,,,,,,,,4,1,,,,,,,5,6,7,5,,,,,,,,,,,1559.7171,1560.2067,1560.4662,1566.7987,space,6.3156,,1566.7988,12,83,1567.7882,1567.7882,1567.8244,,,,0,9,9,9,1,20,115,,,,,,,,
,,60c9c994c019ca2e1836e7d7,65af56ab4abd09284145a1a7,2024-01-23_08h15.15.697,bars,2023.2.3,Win32,59.88023952,657b66ea316d21385b68909f,,,,,,,,,,,1567.8252,1568.8204,,,1569.3306,1569.5707,,46,46,,,,,,,,,,,,,,,,bars/020.png,bars/mask004.png,,,,,,,,,,,,0,2,,,,,,,7,8,7,10,,,,,,,,,,,1568.8205,1569.3306,1569.5707,1572.3851,space,2.7877,,1572.3852,69,56,1573.3863,1573.3863,1573.4029,,,,0,10,10,10,1,115,170,,,,,,,,
,,60c9c994c019ca2e1836e7d7,65af56ab4abd09284145a1a7,2024-01-23_08h15.15.697,bars,2023.2.3,Win32,59.88023952,657b66ea316d21385b68909f,,,,,,,,,,,1573.4036,1574.4023,,,1574.8942,1575.1351,,45,45,,,,,,,,,,,,,,,,bars/023.png,bars/mask000.png,,,,,,,,,,,,1,1,,,,,,,9,10,8,9,,,,,,,,,,,1574.4023,1574.8942,1575.1351,1576.3948,space,1.2338,,1576.3948,25,70,1577.3837,1577.3838,1577.3885,,,,0,11,11,11,1,20,115,,,,,,,,
,,60c9c994c019ca2e1836e7d7,65af56ab4abd09284145a1a7,2024-01-23_08h15.15.697,bars,2023.2.3,Win32,59.88023952,657b66ea316d21385b68909f,,,,,,,,,,,1577.389,1578.3771,,,1578.8676,1579.1103,,131,131,,,,,,,,,,,,,,,,bars/043.png,bars/mask008.png,,,,,,,,,,,,10,2,,,,,,,10,10,9,10,,,,,,,,,,,1578.3772,1578.8675,1579.1104,1580.5433,space,1.4167,,1580.5434,79,1,1581.5333,1581.5333,1581.5382,,,,0,12,12,12,1,30,130,,,,,,,,
,,60c9c994c019ca2e1836e7d7,65af56ab4abd09284145a1a7,2024-01-23_08h15.15.697,bars,2023.2.3,Win32,59.88023952,657b66ea316d21385b68909f,,,,,,,,,,,1581.5399,1582.5416,,,1583.0331,1583.2827,,150,150,,,,,,,,,,,,,,,,bars/039.png,bars/mask005.png,,,,,,,,,,,,1,1,,,,,,,8,8,8,8,,,,,,,,,,,1582.5417,1583.033,1583.2827,1586.6755,space,3.3827,,1586.6757,25,45,1587.6643,1587.6643,1587.6798,,,,0,13,13,13,1,175,105,,,,,,,,
,,60c9c994c019ca2e1836e7d7,65af56ab4abd09284145a1a7,2024-01-23_08h15.15.697,bars,2023.2.3,Win32,59.88023952,657b66ea316d21385b68909f,,,,,,,,,,,1587.6802,1588.6811,,,1589.1798,1589.4366,,35,215,,,,,,,,,,,,,,,,bars/004.png,bars/mask006.png,,,,,,,,,,,,7,1,,,,,,,10,10,10,10,,,,,,,,,,,1588.6812,1589.1796,1589.4367,1593.9628,space,4.5057,,1593.9628,10,90,1594.9615,1594.9615,1594.9755,,,,0,14,14,14,1,25,125,,,,,,,,
,,60c9c994c019ca2e1836e7d7,65af56ab4abd09284145a1a7,2024-01-23_08h15.15.697,bars,2023.2.3,Win32,59.88023952,657b66ea316d21385b68909f,,,,,,,,,,,1594.9759,1595.9778,,,1596.4782,1596.7276,,14,14,,,,,,,,,,,,,,,,bars/045.png,bars/mask001.png,,,,,,,,,,,,9,2,,,,,,,8,10,6,10,,,,,,,,,,,1595.9779,1596.478,1596.7277,1597.906,space,1.1519,,1597.9061,86,4,1598.9037,1598.9038,1598.908,,,,0,15,15,15,1,100,10,,,,,,,,
,,60c9c994c019ca2e1836e7d7,65af56ab4abd09284145a1a7,2024-01-23_08h15.15.697,bars,2023.2.3,Win32,59.88023952,657b66ea316d21385b68909f,,,,,,,,,,,1598.9094,1599.9102,,,1600.4101,1600.6536,,42,42,,,,,,,,,,,,,,,,bars/012.png,bars/mask009.png,,,,,,,,,,,,1,2,,,,,,,10,10,10,9,,,,,,,,,,,1599.9102,1600.41,1600.6536,1607.0689,space,6.4001,,1607.069,48,27,1608.067,1608.067,1608.0944,,,,0,16,16,16,1,90,15,,,,,,,,
,,60c9c994c019ca2e1836e7d7,65af56ab4abd09284145a1a7,2024-01-23_08h15.15.697,bars,2023.2.3,Win32,59.88023952,657b66ea316d21385b68909f,,,,,,,,,,,1608.0951,1609.0894,,,1609.6001,1609.8393,,21,21,,,,,,,,,,,,,,,,bars/042.png,bars/mask004.png,,,,,,,,,,,,0,2,,,,,,,10,10,10,10,,,,,,,,,,,1609.0895,1609.6001,1609.8393,1611.8248,space,1.9584,,1611.825,56,54,1612.8223,1612.8224,1612.8578,,,,0,17,17,17,1,145,75,,,,,,,,
,,60c9c994c019ca2e1836e7d7,65af56ab4abd09284145a1a7,2024-01-23_08h15.15.697,bars,2023.2.3,Win32,59.88023952,657b66ea316d21385b68909f,,,,,,,,,,,1612.8587,1613.855,,,1614.3554,1614.5976,,97,97,,,,,,,,,,,,,,,,bars/021.png,bars/mask000.png,,,,,,,,,,,,1,2,,,,,,,10,10,9,10,,,,,,,,,,,1613.855,1614.3553,1614.5976,1619.098,space,4.4831,,1619.098,58,27,1620.0868,1620.0868,1620.1135,,,,0,18,18,18,1,155,70,,,,,,,,
,,60c9c994c019ca2e1836e7d7,65af56ab4abd09284145a1a7,2024-01-23_08h15.15.697,bars,2023.2.3,Win32,59.88023952,657b66ea316d21385b68909f,,,,,,,,,,,1620.1138,1621.1028,,,1621.6022,1621.8525,,89,89,,,,,,,,,,,,,,,,bars/014.png,bars/mask001.png,,,,,,,,,,,,7,1,,,,,,,8,8,10,8,,,,,,,,,,,1621.1029,1621.6021,1621.8526,1623.7452,space,1.8797,,1623.7452,9,89,1624.7344,1624.7345,1624.7671,,,,0,19,19,19,1,80,0,,,,,,,,
,,60c9c994c019ca2e1836e7d7,65af56ab4abd09284145a1a7,2024-01-23_08h15.15.697,bars,2023.2.3,Win32,59.88023952,657b66ea316d21385b68909f,,,,,,,,,,,1624.7679,1625.7684,,,1626.2578,1626.5016,,92,92,,,,,,,,,,,,,,,,bars/005.png,bars/mask003.png,,,,,,,,,,,,0,2,,,,,,,10,6,10,5,,,,,,,,,,,1625.7685,1626.2578,1626.5017,1629.2937,space,2.7826,,1629.2937,82,48,1630.2835,1630.2836,1630.2993,,,,0,20,20,20,1,10,140,,,,,,,,
,,60c9c994c019ca2e1836e7d7,65af56ab4abd09284145a1a7,2024-01-23_08h15.15.697,bars,2023.2.3,Win32,59.88023952,657b66ea316d21385b68909f,,,,,,,,,,,1630.2998,1631.2998,,,1631.7991,1632.0486,,67,67,,,,,,,,,,,,,,,,bars/006.png,bars/mask008.png,,,,,,,,,,,,0,1,,,,,,,10,4,10,5,,,,,,,,,,,1631.2999,1631.7989,1632.0487,1634.4266,space,2.3505,,1634.4268,32,33,1635.4147,1635.4148,1635.4429,,,,0,21,21,21,1,35,100,,,,,,,,
,,60c9c994c019ca2e1836e7d7,65af56ab4abd09284145a1a7,2024-01-23_08h15.15.697,bars,2023.2.3,Win32,59.88023952,657b66ea316d21385b68909f,,,,,,,,,,,1635.4433,1636.431,,,1636.9243,1637.164,,51,51,,,,,,,,,,,,,,,,bars/042.png,bars/mask003.png,,,,,,,,,,,,0,2,,,,,,,8,2,9,0,,,,,,,,,,,1636.4312,1636.9242,1637.1641,1639.391,space,2.1999,,1639.3911,86,24,1640.3793,1640.3793,1640.3833,,,,0,22,22,22,1,145,75,,,,,,,,
,,60c9c994c019ca2e1836e7d7,65af56ab4abd09284145a1a7,2024-01-23_08h15.15.697,bars,2023.2.3,Win32,59.88023952,657b66ea316d21385b68909f,,,,,,,,,,,1640.384,1641.3784,,,1641.8793,1642.129,,34,34,,,,,,,,,,,,,,,,bars/013.png,bars/mask005.png,,,,,,,,,,,,1,2,,,,,,,6,4,6,3,,,,,,,,,,,1641.3784,1641.8793,1642.129,1644.507,space,2.3683,,1644.5071,41,24,1645.5212,1645.5213,1645.5499,,,,0,23,23,23,1,75,10,,,,,,,,
,,60c9c994c019ca2e1836e7d7,65af56ab4abd09284145a1a7,2024-01-23_08h15.15.697,bars,2023.2.3,Win32,59.88023952,657b66ea316d21385b68909f,,,,,,,,,,,1645.5502,1646.5451,,,1647.0433,1647.294,,44,44,,,,,,,,,,,,,,,,bars/044.png,bars/mask008.png,,,,,,,,,,,,0,1,,,,,,,8,6,8,6,,,,,,,,,,,1646.5452,1647.0433,1647.2941,1652.0874,space,4.7665,,1652.0875,31,69,1653.076,1653.076,1653.1103,,,,0,24,24,24,1,75,155,,,,,,,,
,,60c9c994c019ca2e1836e7d7,65af56ab4abd09284145a1a7,2024-01-23_08h15.15.697,bars,2023.2.3,Win32,59.88023952,657b66ea316d21385b68909f,,,,,,,,,,,1653.1105,1654.1014,,,1654.5916,1654.8514,,117,117,,,,,,,,,,,,,,,,bars/039.png,bars/mask001.png,,,,,,,,,,,,3,2,,,,,,,10,4,10,5,,,,,,,,,,,1654.1015,1654.5915,1654.8515,1657.2841,space,2.4173,,1657.2841,58,12,1658.2742,1658.2742,1658.2901,,,,0,25,25,25,1,175,105,,,,,,,,
,,60c9c994c019ca2e1836e7d7,65af56ab4abd09284145a1a7,2024-01-23_08h15.15.697,bars,2023.2.3,Win32,59.88023952,657b66ea316d21385b68909f,,,,,,,,,,,1658.2905,1659.2903,,,1659.7996,1660.0394,,154,154,,,,,,,,,,,,,,,,bars/044.png,bars/mask008.png,,,,,,,,,,,,2,2,,,,,,,10,2,10,2,,,,,,,,,,,1659.2904,1659.7995,1660.0395,1661.623,space,1.5498,,1661.6231,79,1,1662.6155,1662.6155,1662.6172,,,,0,26,26,26,1,75,155,,,,,,,,
,,60c9c994c019ca2e1836e7d7,65af56ab4abd09284145a1a7,2024-01-23_08h15.15.697,bars,2023.2.3,Win32,59.88023952,657b66ea316d21385b68909f,,,,,,,,,,,1662.6179,1663.6221,,,1664.1311,1664.372,,179,179,,,,,,,,,,,,,,,,bars/029.png,bars/mask004.png,,,,,,,,,,,,0,2,,,,,,,8,4,7,4,,,,,,,,,,,1663.6221,1664.131,1664.3721,1666.1775,space,1.7799,,1666.1776,89,46,1667.1803,1667.1804,1667.2097,,,,0,27,27,27,1,90,45,,,,,,,,
,,60c9c994c019ca2e1836e7d7,65af56ab4abd09284145a1a7,2024-01-23_08h15.15.697,bars,2023.2.3,Win32,59.88023952,657b66ea316d21385b68909f,,,,,,,,,,,1667.21,1668.2035,,,1668.7036,1668.9537,,126,126,,,,,,,,,,,,,,,,bars/029.png,bars/mask000.png,,,,,,,,,,,,0,1,,,,,,,6,6,4,7,,,,,,,,,,,1668.2035,1668.7034,1668.9537,1670.5652,space,1.6,,1670.5652,36,81,1671.5615,1671.5617,1671.577,,,,0,28,28,28,1,90,45,,,,,,,,
,,60c9c994c019ca2e1836e7d7,65af56ab4abd09284145a1a7,2024-01-23_08h15.15.697,bars,2023.2.3,Win32,59.88023952,657b66ea316d21385b68909f,,,,,,,,,,,1671.5773,1672.5678,,,1673.0687,1673.318,,83,83,,,,,,,,,,,,,,,,bars/014.png,bars/mask004.png,,,,,,,,,,,,3,1,,,,,,,4,4,3,4,,,,,,,,,,,1672.5679,1673.0686,1673.318,1675.9794,space,2.6484,,1675.9795,3,83,1676.9674,1676.9674,1676.9981,,,,0,29,29,29,1,80,0,,,,,,,,
,,60c9c994c019ca2e1836e7d7,65af56ab4abd09284145a1a7,2024-01-23_08h15.15.697,bars,2023.2.3,Win32,59.88023952,657b66ea316d21385b68909f,,,,,,,,,,,1676.9987,1678.001,,,1678.5005,1678.7503,,76,76,,,,,,,,,,,,,,,,bars/044.png,bars/mask001.png,,,,,,,,,,,,6,1,,,,,,,6,2,6,3,,,,,,,,,,,1678.0011,1678.5004,1678.7503,1681.4264,space,2.666,,1681.4265,1,79,1682.4157,1682.416,1682.4486,,,,0,30,30,30,1,75,155,,,,,,,,
,,60c9c994c019ca2e1836e7d7,65af56ab4abd09284145a1a7,2024-01-23_08h15.15.697,bars,2023.2.3,Win32,59.88023952,657b66ea316d21385b68909f,,,,,,,,,,,1682.4489,1683.4582,,,1683.9584,1684.1984,,37,37,,,,,,,,,,,,,,,,bars/043.png,bars/mask000.png,,,,,,,,,,,,4,1,,,,,,,4,0,5,0,,,,,,,,,,,1683.4582,1683.9584,1684.1985,1686.5253,space,2.3003,,1686.5255,7,87,1687.5139,1687.5139,1687.5405,,,,0,31,31,31,1,30,130,,,,,,,,
,,60c9c994c019ca2e1836e7d7,65af56ab4abd09284145a1a7,2024-01-23_08h15.15.697,bars,2023.2.3,Win32,59.88023952,657b66ea316d21385b68909f,,,,,,,,,,,1687.541,1688.5289,,,1689.0287,1689.2787,,30,30,,,,,,,,,,,,,,,,bars/007.png,bars/mask001.png,,,,,,,,,,,,0,2,,,,,,,6,2,6,2,,,,,,,,,,,1688.529,1689.0286,1689.2787,1690.7627,space,1.4688,,1690.7628,35,25,1691.7619,1691.7619,1691.7647,,,,0,32,32,32,1,175,55,,,,,,,,
,,60c9c994c019ca2e1836e7d7,65af56ab4abd09284145a1a7,2024-01-23_08h15.15.697,bars,2023.2.3,Win32,59.88023952,657b66ea316d21385b68909f,,,,,,,,,,,1691.765,1692.7621,,,1693.2713,1693.5115,,27,27,,,,,,,,,,,,,,,,bars/036.png,bars/mask004.png,,,,,,,,,,,,4,2,,,,,,,8,4,10,5,,,,,,,,,,,1692.7622,1693.2712,1693.5116,1695.0373,space,1.4998,,1695.0374,62,7,1696.027,1696.0271,1696.0281,,,,0,33,33,33,1,145,20,,,,,,,,
,,60c9c994c019ca2e1836e7d7,65af56ab4abd09284145a1a7,2024-01-23_08h15.15.697,bars,2023.2.3,Win32,59.88023952,657b66ea316d21385b68909f,,,,,,,,,,,1696.0287,1697.0364,,,1697.5275,1697.7762,,31,31,,,,,,,,,,,,,,,,bars/030.png,bars/mask000.png,,,,,,,,,,,,0,2,,,,,,,10,6,8,5,,,,,,,,,,,1697.0365,1697.5275,1697.7762,1699.486,space,1.6819,,1699.4861,71,34,1700.4764,1700.4765,1700.4782,,,,0,34,34,34,1,140,65,,,,,,,,
,,60c9c994c019ca2e1836e7d7,65af56ab4abd09284145a1a7,2024-01-23_08h15.15.697,bars,2023.2.3,Win32,59.88023952,657b66ea316d21385b68909f,,,,,,,,,,,1700.4789,1701.4759,,,1701.9744,1702.2254,,122,122,,,,,,,,,,,,,,,,bars/042.png,bars/mask000.png,,,,,,,,,,,,2,1,,,,,,,10,8,10,8,,,,,,,,,,,1701.476,1701.9744,1702.2256,1703.3866,space,1.1352,,1703.3867,23,47,1704.3835,1704.3835,1704.3861,,,,0,35,35,35,1,145,75,,,,,,,,
,,60c9c994c019ca2e1836e7d7,65af56ab4abd09284145a1a7,2024-01-23_08h15.15.697,bars,2023.2.3,Win32,59.88023952,657b66ea316d21385b68909f,,,,,,,,,,,1704.3864,1705.391,,,1705.8904,1706.1396,,109,109,,,,,,,,,,,,,,,,bars/040.png,bars/mask005.png,,,,,,,,,,,,0,1,,,,,,,8,10,8,10,,,,,,,,,,,1705.3912,1705.8904,1706.1397,1707.9512,space,1.7841,,1707.9513,31,76,1708.9392,1708.9392,1708.9403,,,,0,36,36,36,1,140,5,,,,,,,,
,,60c9c994c019ca2e1836e7d7,65af56ab4abd09284145a1a7,2024-01-23_08h15.15.697,bars,2023.2.3,Win32,59.88023952,657b66ea316d21385b68909f,,,,,,,,,,,1708.9407,1709.9389,,,1710.4381,1710.689,,10,10,,,,,,,,,,,,,,,,bars/005.png,bars/mask002.png,,,,,,,,,,,,5,1,,,,,,,6,10,5,9,,,,,,,,,,,1709.9389,1710.4381,1710.6891,1711.8594,space,1.143,,1711.8595,0,50,1712.8547,1712.8547,1712.8565,,,,0,37,37,37,1,10,140,,,,,,,,
,,60c9c994c019ca2e1836e7d7,65af56ab4abd09284145a1a7,2024-01-23_08h15.15.697,bars,2023.2.3,Win32,59.88023952,657b66ea316d21385b68909f,,,,,,,,,,,1712.8573,1713.8547,,,1714.3635,1714.6038,,101,101,,,,,,,,,,,,,,,,bars/019.png,bars/mask007.png,,,,,,,,,,,,7,2,,,,,,,4,8,4,8,,,,,,,,,,,1713.8547,1714.3634,1714.6039,1716.2634,space,1.633,,1716.2634,56,4,1717.2541,1717.2542,1717.2835,,,,0,38,38,38,1,45,105,,,,,,,,
,,60c9c994c019ca2e1836e7d7,65af56ab4abd09284145a1a7,2024-01-23_08h15.15.697,bars,2023.2.3,Win32,59.88023952,657b66ea316d21385b68909f,,,,,,,,,,,1717.2837,1718.296,,,1718.7868,1719.0355,,120,120,,,,,,,,,,,,,,,,bars/024.png,bars/mask008.png,,,,,,,,,,,,2,1,,,,,,,2,6,2,5,,,,,,,,,,,1718.296,1718.7866,1719.0356,1720.446,space,1.3836,,1720.446,0,50,1721.4345,1721.4346,1721.4496,,,,0,39,39,39,1,120,170,,,,,,,,
,,60c9c994c019ca2e1836e7d7,65af56ab4abd09284145a1a7,2024-01-23_08h15.15.697,bars,2023.2.3,Win32,59.88023952,657b66ea316d21385b68909f,,,,,,,,,,,1721.45,1722.4526,,,1722.9506,1723.2017,,145,145,,,,,,,,,,,,,,,,bars/029.png,bars/mask003.png,,,,,,,,,,,,0,1,,,,,,,4,8,5,7,,,,,,,,,,,1722.4527,1722.9505,1723.2019,1725.0109,space,1.7834,,1725.011,55,80,1725.9998,1725.9998,1726.0136,,,,0,40,40,40,1,90,45,,,,,,,,
,,60c9c994c019ca2e1836e7d7,65af56ab4abd09284145a1a7,2024-01-23_08h15.15.697,bars,2023.2.3,Win32,59.88023952,657b66ea316d21385b68909f,,,,,,,,,,,1726.014,1727.01,,,1727.5011,1727.7503,,144,144,,,,,,,,,,,,,,,,bars/011.png,bars/mask006.png,,,,,,,,,,,,1,1,,,,,,,2,6,2,5,,,,,,,,,,,1727.0101,1727.501,1727.7504,1729.2779,space,1.501,,1729.2781,16,59,1730.2917,1730.2918,1730.2927,,,,0,41,41,41,1,160,85,,,,,,,,
,,60c9c994c019ca2e1836e7d7,65af56ab4abd09284145a1a7,2024-01-23_08h15.15.697,bars,2023.2.3,Win32,59.88023952,657b66ea316d21385b68909f,,,,,,,,,,,1730.2931,1731.2826,,,1731.7823,1732.0262,,169,169,,,,,,,,,,,,,,,,bars/048.png,bars/mask005.png,,,,,,,,,,,,2,2,,,,,,,0,4,0,3,,,,,,,,,,,1731.2826,1731.7823,1732.0263,1733.2769,space,1.2349,,1733.2769,61,6,1734.2808,1734.2808,1734.2835,,,,0,42,42,42,1,50,175,,,,,,,,
,,60c9c994c019ca2e1836e7d7,65af56ab4abd09284145a1a7,2024-01-23_08h15.15.697,bars,2023.2.3,Win32,59.88023952,657b66ea316d21385b68909f,,,,,,,,,,,1734.2839,1735.281,,,1735.7727,1736.013,,178,178,,,,,,,,,,,,,,,,bars/017.png,bars/mask006.png,,,,,,,,,,,,0,1,,,,,,,2,2,1,3,,,,,,,,,,,1735.2811,1735.7726,1736.0131,1737.8296,space,1.7837,,1737.8297,33,47,1738.8361,1738.8361,1738.8405,,,,0,43,43,43,1,145,45,,,,,,,,
,,60c9c994c019ca2e1836e7d7,65af56ab4abd09284145a1a7,2024-01-23_08h15.15.697,bars,2023.2.3,Win32,59.88023952,657b66ea316d21385b68909f,,,,,,,,,,,1738.8413,1739.8464,,,1740.3352,1740.5801,,5,5,,,,,,,,,,,,,,,,bars/038.png,bars/mask004.png,,,,,,,,,,,,2,1,,,,,,,4,4,5,4,,,,,,,,,,,1739.8465,1740.3351,1740.5802,1742.4899,space,1.8841,,1742.49,20,65,1743.4873,1743.4874,1743.5017,,,,0,44,44,44,1,165,70,,,,,,,,
,,60c9c994c019ca2e1836e7d7,65af56ab4abd09284145a1a7,2024-01-23_08h15.15.697,bars,2023.2.3,Win32,59.88023952,657b66ea316d21385b68909f,,,,,,,,,,,1743.502,1744.4939,,,1744.9877,1745.2265,,40,40,,,,,,,,,,,,,,,,bars/017.png,bars/mask004.png,,,,,,,,,,,,2,2,,,,,,,6,2,5,2,,,,,,,,,,,1744.4939,1744.9877,1745.2265,1746.9884,space,1.7344,,1746.9885,75,5,1747.9774,1747.9775,1748.0113,,,,0,45,45,45,1,145,45,,,,,,,,
,,60c9c994c019ca2e1836e7d7,65af56ab4abd09284145a1a7,2024-01-23_08h15.15.697,bars,2023.2.3,Win32,59.88023952,657b66ea316d21385b68909f,,,,,,,,,,,1748.0121,1749.0191,,,1749.5148,1749.7584,,149,149,,,,,,,,,,,,,,,,bars/043.png,bars/mask006.png,,,,,,,,,,,,1,2,,,,,,,4,4,5,2,,,,,,,,,,,1749.0191,1749.5148,1749.7585,1752.4859,space,2.7003,,1752.4859,61,19,1753.4904,1753.4904,1753.5044,,,,0,46,46,46,1,30,130,,,,,,,,
,,60c9c994c019ca2e1836e7d7,65af56ab4abd09284145a1a7,2024-01-23_08h15.15.697,bars,2023.2.3,Win32,59.88023952,657b66ea316d21385b68909f,,,,,,,,,,,1753.5047,1754.5073,,,1755.0079,1755.2576,,102,102,,,,,,,,,,,,,,,,bars/009.png,bars/mask006.png,,,,,,,,,,,,2,2,,,,,,,6,2,7,2,,,,,,,,,,,1754.5074,1755.0078,1755.2576,1758.1064,space,2.8211,,1758.1065,87,3,1759.1157,1759.1158,1759.146,,,,0,47,47,47,1,15,105,,,,,,,,
,,60c9c994c019ca2e1836e7d7,65af56ab4abd09284145a1a7,2024-01-23_08h15.15.697,bars,2023.2.3,Win32,59.88023952,657b66ea316d21385b68909f,,,,,,,,,,,1759.1465,1760.1384,,,1760.6392,1760.8888,,49,49,,,,,,,,,,,,,,,,bars/033.png,bars/mask009.png,,,,,,,,,,,,1,1,,,,,,,4,4,3,3,,,,,,,,,,,1760.1385,1760.6392,1760.8889,1762.4057,space,1.5005,,1762.4057,24,74,1763.4051,1763.4052,1763.4278,,,,0,48,48,48,1,25,155,,,,,,,,
,,60c9c994c019ca2e1836e7d7,65af56ab4abd09284145a1a7,2024-01-23_08h15.15.697,bars,2023.2.3,Win32,59.88023952,657b66ea316d21385b68909f,,,,,,,,,,,1763.4281,1764.4228,,,1764.9216,1765.1708,,116,116,,,,,,,,,,,,,,,,bars/017.png,bars/mask008.png,,,,,,,,,,,,0,1,,,,,,,2,2,1,2,,,,,,,,,,,1764.4228,1764.9215,1765.1708,1768.0195,space,2.8335,,1768.0195,29,71,1769.0187,1769.0188,1769.0327,,,,0,49,49,49,1,145,45,,,,,,,,
,,60c9c994c019ca2e1836e7d7,65af56ab4abd09284145a1a7,2024-01-23_08h15.15.697,bars,2023.2.3,Win32,59.88023952,657b66ea316d21385b68909f,,,,,,,,,,,,,,,,,,,,,,,,,,,,,,,,,,,,,,,,,,,,,,,,,,,,,,,,,,,,,,,,,,,,,,,,,,,,,,,,,,,,,,,,,,,,,1769.0329,1829.0258,0,2,2,2,1,sequence_tables/blk020.csv
,,60c9c994c019ca2e1836e7d7,65af56ab4abd09284145a1a7,2024-01-23_08h15.15.697,bars,2023.2.3,Win32,59.88023952,657b66ea316d21385b68909f,,,,,,,,,,,1865.454,1866.4351,,,1866.9281,1867.1693,,102,102,,,,,,,,,,,,,,,,bars/000.png,bars/mask001.png,,,,,,,,,,,,0,2,,,,,,,10,7,10,7,,,,,,1829.0581,1865.4304,space,36.3652,,1866.4353,1866.9281,1867.1694,1869.1787,space,1.9829,,1869.1788,62,43,1870.1691,1870.1692,1870.205,,,,0,0,0,0,1,40,145,,,,,,,,
,,60c9c994c019ca2e1836e7d7,65af56ab4abd09284145a1a7,2024-01-23_08h15.15.697,bars,2023.2.3,Win32,59.88023952,657b66ea316d21385b68909f,,,,,,,,,,,1870.2058,1871.2011,,,1871.7011,1871.9439,,29,29,,,,,,,,,,,,,,,,bars/047.png,bars/mask004.png,,,,,,,,,,,,4,1,,,,,,,8,9,8,8,,,,,,,,,,,1871.2011,1871.701,1871.9439,1875.9675,space,4.0017,,1875.9676,14,41,1876.9655,1876.9655,1876.9806,,,,0,1,1,1,1,15,70,,,,,,,,
,,60c9c994c019ca2e1836e7d7,65af56ab4abd09284145a1a7,2024-01-23_08h15.15.697,bars,2023.2.3,Win32,59.88023952,657b66ea316d21385b68909f,,,,,,,,,,,1876.981,1877.9833,,,1878.4762,1878.7161,,59,59,,,,,,,,,,,,,,,,bars/026.png,bars/mask008.png,,,,,,,,,,,,1,1,,,,,,,6,7,4,7,,,,,,,,,,,1877.9834,1878.476,1878.7161,1879.5146,space,0.7726,,1879.5146,24,26,1880.5158,1880.5159,1880.518,,,,0,2,2,2,1,35,85,,,,,,,,
,,60c9c994c019ca2e1836e7d7,65af56ab4abd09284145a1a7,2024-01-23_08h15.15.697,bars,2023.2.3,Win32,59.88023952,657b66ea316d21385b68909f,,,,,,,,,,,1880.5187,1881.5204,,,1882.0138,1882.2637,,136,136,,,,,,,,,,,,,,,,bars/036.png,bars/mask001.png,,,,,,,,,,,,6,1,,,,,,,8,9,8,10,,,,,,,,,,,1881.5204,1882.0138,1882.2638,1885.4132,space,3.1337,,1885.4132,9,64,1886.4138,1886.414,1886.4453,,,,0,3,3,3,1,145,20,,,,,,,,
,,60c9c994c019ca2e1836e7d7,65af56ab4abd09284145a1a7,2024-01-23_08h15.15.697,bars,2023.2.3,Win32,59.88023952,657b66ea316d21385b68909f,,,,,,,,,,,1886.4459,1887.4461,,,1887.9459,1888.2051,,147,147,,,,,,,,,,,,,,,,bars/043.png,bars/mask006.png,,,,,,,,,,,,3,2,,,,,,,10,7,9,7,,,,,,,,,,,1887.4461,1887.9457,1888.2051,1889.5287,space,1.3022,,1889.5287,63,17,1890.5382,1890.5382,1890.5421,,,,0,4,4,4,1,30,130,,,,,,,,
,,60c9c994c019ca2e1836e7d7,65af56ab4abd09284145a1a7,2024-01-23_08h15.15.697,bars,2023.2.3,Win32,59.88023952,657b66ea316d21385b68909f,,,,,,,,,,,1890.5428,1891.537,,,1892.0375,1892.287,,161,161,,,,,,,,,,,,,,,,bars/001.png,bars/mask000.png,,,,,,,,,,,,0,1,,,,,,,8,5,8,7,,,,,,,,,,,1891.537,1892.0375,1892.287,1894.3906,space,2.0864,,1894.3906,31,76,1895.3863,1895.3864,1895.3907,,,,0,5,5,5,1,130,85,,,,,,,,
,,60c9c994c019ca2e1836e7d7,65af56ab4abd09284145a1a7,2024-01-23_08h15.15.697,bars,2023.2.3,Win32,59.88023952,657b66ea316d21385b68909f,,,,,,,,,,,1895.3917,1896.4023,,,1896.8927,1897.1424,,130,130,,,,,,,,,,,,,,,,bars/033.png,bars/mask007.png,,,,,,,,,,,,0,2,,,,,,,10,3,10,3,,,,,,,,,,,1896.4023,1896.8926,1897.1424,1898.2092,space,1.0349,,1898.2093,75,25,1899.2141,1899.2141,1899.2166,,,,0,6,6,6,1,25,155,,,,,,,,
,,60c9c994c019ca2e1836e7d7,65af56ab4abd09284145a1a7,2024-01-23_08h15.15.697,bars,2023.2.3,Win32,59.88023952,657b66ea316d21385b68909f,,,,,,,,,,,1899.217,1900.2082,,,1900.7082,1900.9582,,28,28,,,,,,,,,,,,,,,,bars/012.png,bars/mask001.png,,,,,,,,,,,,1,2,,,,,,,8,5,6,2,,,,,,,,,,,1900.2083,1900.7081,1900.9584,1902.8694,space,1.9006,,1902.8695,62,13,1903.8669,1903.867,1903.8973,,,,0,7,7,7,1,90,15,,,,,,,,
,,60c9c994c019ca2e1836e7d7,65af56ab4abd09284145a1a7,2024-01-23_08h15.15.697,bars,2023.2.3,Win32,59.88023952,657b66ea316d21385b68909f,,,,,,,,,,,1903.8979,1904.8903,,,1905.3898,1905.6394,,138,138,,,,,,,,,,,,,,,,bars/024.png,bars/mask003.png,,,,,,,,,,,,4,1,,,,,,,10,3,10,2,,,,,,,,,,,1904.8903,1905.3897,1905.6395,1906.3735,space,0.7179,,1906.3735,18,32,1907.373,1907.373,1907.3773,,,,0,8,8,8,1,120,170,,,,,,,,
,,60c9c994c019ca2e1836e7d7,65af56ab4abd09284145a1a7,2024-01-23_08h15.15.697,bars,2023.2.3,Win32,59.88023952,657b66ea316d21385b68909f,,,,,,,,,,,1907.378,1908.3725,,,1908.8728,1909.1222,,52,52,,,,,,,,,,,,,,,,bars/018.png,bars/mask008.png,,,,,,,,,,,,0,2,,,,,,,10,1,10,3,,,,,,,,,,,1908.3727,1908.8727,1909.1223,1910.9881,space,1.8492,,1910.9881,82,38,1911.9875,1911.9875,1912.0028,,,,0,9,9,9,1,150,90,,,,,,,,
,,60c9c994c019ca2e1836e7d7,65af56ab4abd09284145a1a7,2024-01-23_08h15.15.697,bars,2023.2.3,Win32,59.88023952,657b66ea316d21385b68909f,,,,,,,,,,,1912.0034,1913.0042,,,1913.5034,1913.7539,,133,133,,,,,,,,,,,,,,,,bars/000.png,bars/mask005.png,,,,,,,,,,,,0,2,,,,,,,8,0,9,0,,,,,,,,,,,1913.0042,1913.5034,1913.754,1915.9362,space,2.1662,,1915.9363,87,12,1916.9362,1916.9364,1916.9627,,,,0,10,10,10,1,40,145,,,,,,,,
,,60c9c994c019ca2e1836e7d7,65af56ab4abd09284145a1a7,2024-01-23_08h15.15.697,bars,2023.2.3,Win32,59.88023952,657b66ea316d21385b68909f,,,,,,,,,,,1916.9631,1917.9521,,,1918.4527,1918.7033,,27,27,,,,,,,,,,,,,,,,bars/017.png,bars/mask008.png,,,,,,,,,,,,1,2,,,,,,,6,2,7,2,,,,,,,,,,,1917.9523,1918.4526,1918.7033,1919.9118,space,1.1838,,1919.9118,62,18,1920.9022,1920.9023,1920.9038,,,,0,11,11,11,1,145,45,,,,,,,,
,,60c9c994c019ca2e1836e7d7,65af56ab4abd09284145a1a7,2024-01-23_08h15.15.697,bars,2023.2.3,Win32,59.88023952,657b66ea316d21385b68909f,,,,,,,,,,,1920.9046,1921.8934,,,1922.385,1922.6346,,118,118,,,,,,,,,,,,,,,,bars/036.png,bars/mask007.png,,,,,,,,,,,,1,1,,,,,,,8,0,9,0,,,,,,,,,,,1921.8935,1922.3849,1922.6347,1923.6616,space,1.0169,,1923.6618,27,82,1924.6502,1924.6503,1924.6559,,,,0,12,12,12,1,145,20,,,,,,,,
,,60c9c994c019ca2e1836e7d7,65af56ab4abd09284145a1a7,2024-01-23_08h15.15.697,bars,2023.2.3,Win32,59.88023952,657b66ea316d21385b68909f,,,,,,,,,,,1924.6567,1925.6508,,,1926.1582,1926.4095,,151,151,,,,,,,,,,,,,,,,bars/021.png,bars/mask009.png,,,,,,,,,,,,8,1,,,,,,,10,2,9,0,,,,,,,,,,,1925.6508,1926.1582,1926.4096,1929.7253,space,3.3001,,1929.7253,4,81,1930.7152,1930.7153,1930.7457,,,,0,13,13,13,1,155,70,,,,,,,,
,,60c9c994c019ca2e1836e7d7,65af56ab4abd09284145a1a7,2024-01-23_08h15.15.697,bars,2023.2.3,Win32,59.88023952,657b66ea316d21385b68909f,,,,,,,,,,,1930.7468,1931.7578,,,1932.2473,1932.4973,,152,-28,,,,,,,,,,,,,,,,bars/046.png,bars/mask002.png,,,,,,,,,,,,9,1,,,,,,,8,4,10,6,,,,,,,,,,,1931.7578,1932.2473,1932.4973,1939.1219,space,6.6153,,1939.122,3,67,1940.1216,1940.1217,1940.1514,,,,0,14,14,14,1,155,85,,,,,,,,
,,60c9c994c019ca2e1836e7d7,65af56ab4abd09284145a1a7,2024-01-23_08h15.15.697,bars,2023.2.3,Win32,59.88023952,657b66ea316d21385b68909f,,,,,,,,,,,1940.1518,1941.1442,,,1941.6448,1941.8876,,36,216,,,,,,,,,,,,,,,,bars/023.png,bars/mask000.png,,,,,,,,,,,,5,1,,,,,,,10,2,10,3,,,,,,,,,,,1941.1443,1941.6447,1941.8877,1947.1824,space,5.279,,1947.1824,16,79,1948.1756,1948.1757,1948.197,,,,0,15,15,15,1,20,115,,,,,,,,
,,60c9c994c019ca2e1836e7d7,65af56ab4abd09284145a1a7,2024-01-23_08h15.15.697,bars,2023.2.3,Win32,59.88023952,657b66ea316d21385b68909f,,,,,,,,,,,1948.1973,1949.1974,,,1949.6928,1949.9417,,144,144,,,,,,,,,,,,,,,,bars/022.png,bars/mask002.png,,,,,,,,,,,,0,1,,,,,,,8,0,7,0,,,,,,,,,,,1949.1974,1949.6928,1949.9419,1953.5984,space,3.6303,,1953.5985,49,56,1954.5898,1954.5899,1954.6143,,,,0,16,16,16,1,95,20,,,,,,,,
,,60c9c994c019ca2e1836e7d7,65af56ab4abd09284145a1a7,2024-01-23_08h15.15.697,bars,2023.2.3,Win32,59.88023952,657b66ea316d21385b68909f,,,,,,,,,,,1954.6146,1955.6054,,,1956.1058,1956.3551,,34,214,,,,,,,,,,,,,,,,bars/043.png,bars/mask000.png,,,,,,,,,,,,9,1,,,,,,,10,0,10,0,,,,,,,,,,,1955.6054,1956.1057,1956.3552,1960.1045,space,3.7343,,1960.1046,4,84,1961.1043,1961.1043,1961.1393,,,,0,17,17,17,1,30,130,,,,,,,,
,,60c9c994c019ca2e1836e7d7,65af56ab4abd09284145a1a7,2024-01-23_08h15.15.697,bars,2023.2.3,Win32,59.88023952,657b66ea316d21385b68909f,,,,,,,,,,,1961.1401,1962.1377,,,1962.6374,1962.8876,,50,50,,,,,,,,,,,,,,,,bars/010.png,bars/mask005.png,,,,,,,,,,,,3,2,,,,,,,10,2,9,4,,,,,,,,,,,1962.1378,1962.6374,1962.8877,1967.368,space,4.4527,,1967.3681,65,5,1968.3676,1968.3676,1968.3829,,,,0,18,18,18,1,165,55,,,,,,,,
,,60c9c994c019ca2e1836e7d7,65af56ab4abd09284145a1a7,2024-01-23_08h15.15.697,bars,2023.2.3,Win32,59.88023952,657b66ea316d21385b68909f,,,,,,,,,,,1968.3833,1969.3843,,,1969.8739,1970.1176,,29,29,,,,,,,,,,,,,,,,bars/005.png,bars/mask006.png,,,,,,,,,,,,4,1,,,,,,,10,4,10,4,,,,,,,,,,,1969.3844,1969.8738,1970.1176,1972.3176,space,2.1735,,1972.3177,19,69,1973.3169,1973.317,1973.333,,,,0,19,19,19,1,10,140,,,,,,,,
,,60c9c994c019ca2e1836e7d7,65af56ab4abd09284145a1a7,2024-01-23_08h15.15.697,bars,2023.2.3,Win32,59.88023952,657b66ea316d21385b68909f,,,,,,,,,,,1973.3334,1974.3261,,,1974.8166,1975.0661,,52,52,,,,,,,,,,,,,,,,bars/040.png,bars/mask003.png,,,,,,,,,,,,0,2,,,,,,,10,6,9,6,,,,,,,,,,,1974.3262,1974.8165,1975.0662,1978.382,space,3.2833,,1978.3821,88,47,1979.3823,1979.3824,1979.3864,,,,0,20,20,20,1,140,5,,,,,,,,
,,60c9c994c019ca2e1836e7d7,65af56ab4abd09284145a1a7,2024-01-23_08h15.15.697,bars,2023.2.3,Win32,59.88023952,657b66ea316d21385b68909f,,,,,,,,,,,1979.3871,1980.3812,,,1980.8804,1981.1305,,124,124,,,,,,,,,,,,,,,,bars/013.png,bars/mask005.png,,,,,,,,,,,,0,1,,,,,,,8,4,7,2,,,,,,,,,,,1980.3813,1980.8803,1981.1306,1985.3806,space,4.2355,,1985.3808,49,66,1986.3789,1986.3789,1986.3949,,,,0,21,21,21,1,75,10,,,,,,,,
,,60c9c994c019ca2e1836e7d7,65af56ab4abd09284145a1a7,2024-01-23_08h15.15.697,bars,2023.2.3,Win32,59.88023952,657b66ea316d21385b68909f,,,,,,,,,,,1986.3953,1987.3963,,,1987.8951,1988.1449,,27,27,,,,,,,,,,,,,,,,bars/045.png,bars/mask008.png,,,,,,,,,,,,3,2,,,,,,,10,6,9,8,,,,,,,,,,,1987.3964,1987.895,1988.145,1990.7114,space,2.5491,,1990.7116,73,17,1991.7114,1991.7115,1991.7278,,,,0,22,22,22,1,100,10,,,,,,,,
,,60c9c994c019ca2e1836e7d7,65af56ab4abd09284145a1a7,2024-01-23_08h15.15.697,bars,2023.2.3,Win32,59.88023952,657b66ea316d21385b68909f,,,,,,,,,,,1991.7281,1992.7371,,,1993.2269,1993.4764,,33,33,,,,,,,,,,,,,,,,bars/049.png,bars/mask007.png,,,,,,,,,,,,0,1,,,,,,,10,4,10,2,,,,,,,,,,,1992.7371,1993.2269,1993.4765,1995.189,space,1.6996,,1995.189,53,82,1996.1921,1996.1922,1996.1951,,,,0,23,23,23,1,160,115,,,,,,,,
,,60c9c994c019ca2e1836e7d7,65af56ab4abd09284145a1a7,2024-01-23_08h15.15.697,bars,2023.2.3,Win32,59.88023952,657b66ea316d21385b68909f,,,,,,,,,,,1996.1956,1997.2026,,,1997.6917,1997.9414,,142,142,,,,,,,,,,,,,,,,bars/017.png,bars/mask005.png,,,,,,,,,,,,9,1,,,,,,,10,2,10,2,,,,,,,,,,,1997.2027,1997.6916,1997.9415,2000.2685,space,2.3,,2000.2685,3,83,2001.2571,2001.2572,2001.2925,,,,0,24,24,24,1,145,45,,,,,,,,
,,60c9c994c019ca2e1836e7d7,65af56ab4abd09284145a1a7,2024-01-23_08h15.15.697,bars,2023.2.3,Win32,59.88023952,657b66ea316d21385b68909f,,,,,,,,,,,2001.2928,2002.2906,,,2002.7835,2003.0238,,35,215,,,,,,,,,,,,,,,,bars/003.png,bars/mask006.png,,,,,,,,,,,,5,1,,,,,,,8,4,7,4,,,,,,,,,,,2002.2907,2002.7834,2003.0239,2006.7729,space,3.7166,,2006.773,10,75,2007.7716,2007.7717,2007.8003,,,,0,25,25,25,1,25,140,,,,,,,,
,,60c9c994c019ca2e1836e7d7,65af56ab4abd09284145a1a7,2024-01-23_08h15.15.697,bars,2023.2.3,Win32,59.88023952,657b66ea316d21385b68909f,,,,,,,,,,,2007.8006,2008.814,,,2009.3159,2009.554,,58,58,,,,,,,,,,,,,,,,bars/036.png,bars/mask000.png,,,,,,,,,,,,0,2,,,,,,,10,6,10,6,,,,,,,,,,,2008.8141,2009.3158,2009.5542,2013.2303,space,3.6495,,2013.2304,87,38,2014.2192,2014.2193,2014.2358,,,,0,26,26,26,1,145,20,,,,,,,,
,,60c9c994c019ca2e1836e7d7,65af56ab4abd09284145a1a7,2024-01-23_08h15.15.697,bars,2023.2.3,Win32,59.88023952,657b66ea316d21385b68909f,,,,,,,,,,,2014.2363,2015.2361,,,2015.7286,2015.9681,,132,132,,,,,,,,,,,,,,,,bars/029.png,bars/mask000.png,,,,,,,,,,,,0,1,,,,,,,10,8,10,8,,,,,,,,,,,2015.2361,2015.7285,2015.9681,2021.1293,space,5.1363,,2021.1294,42,87,2022.134,2022.1341,2022.1664,,,,0,27,27,27,1,90,45,,,,,,,,
,,60c9c994c019ca2e1836e7d7,65af56ab4abd09284145a1a7,2024-01-23_08h15.15.697,bars,2023.2.3,Win32,59.88023952,657b66ea316d21385b68909f,,,,,,,,,,,2022.1673,2023.1599,,,2023.6501,2023.8992,,151,151,,,,,,,,,,,,,,,,bars/037.png,bars/mask009.png,,,,,,,,,,,,10,1,,,,,,,8,10,10,9,,,,,,,,,,,2023.1599,2023.6501,2023.8992,2025.1186,space,1.1919,,2025.1186,1,46,2026.1158,2026.1159,2026.1181,,,,0,28,28,28,1,150,105,,,,,,,,
,,60c9c994c019ca2e1836e7d7,65af56ab4abd09284145a1a7,2024-01-23_08h15.15.697,bars,2023.2.3,Win32,59.88023952,657b66ea316d21385b68909f,,,,,,,,,,,2026.1188,2027.1151,,,2027.6258,2027.8682,,74,74,,,,,,,,,,,,,,,,bars/045.png,bars/mask003.png,,,,,,,,,,,,1,1,,,,,,,10,10,10,10,,,,,,,,,,,2027.1152,2027.6257,2027.8684,2031.1306,space,3.2365,,2031.1308,26,64,2032.1234,2032.1234,2032.1535,,,,0,29,29,29,1,100,10,,,,,,,,
,,60c9c994c019ca2e1836e7d7,65af56ab4abd09284145a1a7,2024-01-23_08h15.15.697,bars,2023.2.3,Win32,59.88023952,657b66ea316d21385b68909f,,,,,,,,,,,2032.1542,2033.1458,,,2033.6469,2033.896,,123,123,,,,,,,,,,,,,,,,bars/018.png,bars/mask008.png,,,,,,,,,,,,1,1,,,,,,,8,10,6,10,,,,,,,,,,,2033.1458,2033.6468,2033.8961,2038.0115,space,4.0994,,2038.0115,27,33,2039.0115,2039.0117,2039.0455,,,,0,30,30,30,1,150,90,,,,,,,,
,,60c9c994c019ca2e1836e7d7,65af56ab4abd09284145a1a7,2024-01-23_08h15.15.697,bars,2023.2.3,Win32,59.88023952,657b66ea316d21385b68909f,,,,,,,,,,,2039.0462,2040.0444,,,2040.554,2040.7944,,158,158,,,,,,,,,,,,,,,,bars/044.png,bars/mask009.png,,,,,,,,,,,,8,2,,,,,,,6,8,8,9,,,,,,,,,,,2040.0446,2040.5539,2040.7944,2042.428,space,1.6014,,2042.4281,83,3,2043.4259,2043.426,2043.4409,,,,0,31,31,31,1,75,155,,,,,,,,
,,60c9c994c019ca2e1836e7d7,65af56ab4abd09284145a1a7,2024-01-23_08h15.15.697,bars,2023.2.3,Win32,59.88023952,657b66ea316d21385b68909f,,,,,,,,,,,2043.4412,2044.4433,,,2044.943,2045.1932,,129,129,,,,,,,,,,,,,,,,bars/015.png,bars/mask006.png,,,,,,,,,,,,1,1,,,,,,,4,10,4,10,,,,,,,,,,,2044.4435,2044.9429,2045.1932,2048.4844,space,3.2659,,2048.4845,19,31,2049.4748,2049.4749,2049.5038,,,,0,32,32,32,1,110,160,,,,,,,,
,,60c9c994c019ca2e1836e7d7,65af56ab4abd09284145a1a7,2024-01-23_08h15.15.697,bars,2023.2.3,Win32,59.88023952,657b66ea316d21385b68909f,,,,,,,,,,,2049.5042,2050.5071,,,2051.0068,2051.2571,,160,160,,,,,,,,,,,,,,,,bars/025.png,bars/mask003.png,,,,,,,,,,,,0,1,,,,,,,2,8,2,8,,,,,,,,,,,2050.5071,2051.0067,2051.2571,2052.2068,space,0.9382,,2052.2069,55,60,2053.2063,2053.2063,2053.2079,,,,0,33,33,33,1,105,40,,,,,,,,
,,60c9c994c019ca2e1836e7d7,65af56ab4abd09284145a1a7,2024-01-23_08h15.15.697,bars,2023.2.3,Win32,59.88023952,657b66ea316d21385b68909f,,,,,,,,,,,2053.2085,2054.2055,,,2054.6985,2054.9487,,51,51,,,,,,,,,,,,,,,,bars/046.png,bars/mask006.png,,,,,,,,,,,,0,2,,,,,,,4,6,5,6,,,,,,,,,,,2054.2056,2054.6985,2054.9488,2056.5158,space,1.5504,,2056.5159,76,34,2057.5055,2057.5056,2057.5378,,,,0,34,34,34,1,155,85,,,,,,,,
,,60c9c994c019ca2e1836e7d7,65af56ab4abd09284145a1a7,2024-01-23_08h15.15.697,bars,2023.2.3,Win32,59.88023952,657b66ea316d21385b68909f,,,,,,,,,,,2057.5383,2058.5379,,,2059.0379,2059.2873,,147,147,,,,,,,,,,,,,,,,bars/033.png,bars/mask000.png,,,,,,,,,,,,3,2,,,,,,,2,4,2,4,,,,,,,,,,,2058.538,2059.0378,2059.2874,2060.6207,space,1.3161,,2060.6207,58,8,2061.6138,2061.6139,2061.6156,,,,0,35,35,35,1,25,155,,,,,,,,
,,60c9c994c019ca2e1836e7d7,65af56ab4abd09284145a1a7,2024-01-23_08h15.15.697,bars,2023.2.3,Win32,59.88023952,657b66ea316d21385b68909f,,,,,,,,,,,2061.6164,2062.6194,,,2063.1188,2063.3699,,128,128,,,,,,,,,,,,,,,,bars/000.png,bars/mask001.png,,,,,,,,,,,,0,2,,,,,,,4,2,4,1,,,,,,,,,,,2062.6195,2063.1188,2063.37,2065.146,space,1.7669,,2065.1461,88,17,2066.1359,2066.1359,2066.1376,,,,0,36,36,36,1,40,145,,,,,,,,
,,60c9c994c019ca2e1836e7d7,65af56ab4abd09284145a1a7,2024-01-23_08h15.15.697,bars,2023.2.3,Win32,59.88023952,657b66ea316d21385b68909f,,,,,,,,,,,2066.1383,2067.1358,,,2067.634,2067.8846,,36,36,,,,,,,,,,,,,,,,bars/042.png,bars/mask002.png,,,,,,,,,,,,0,2,,,,,,,2,0,0,0,,,,,,,,,,,2067.1358,2067.634,2067.8847,2069.8792,space,1.9678,,2069.8794,71,39,2070.8675,2070.8676,2070.8697,,,,0,37,37,37,1,145,75,,,,,,,,
,,60c9c994c019ca2e1836e7d7,65af56ab4abd09284145a1a7,2024-01-23_08h15.15.697,bars,2023.2.3,Win32,59.88023952,657b66ea316d21385b68909f,,,,,,,,,,,2070.8706,2071.8667,,,2072.3596,2072.6004,,44,44,,,,,,,,,,,,,,,,bars/004.png,bars/mask008.png,,,,,,,,,,,,0,1,,,,,,,0,0,0,2,,,,,,,,,,,2071.8669,2072.3595,2072.6005,2074.6409,space,2.0141,,2074.6409,19,81,2075.6322,2075.6322,2075.6484,,,,0,38,38,38,1,25,125,,,,,,,,
,,60c9c994c019ca2e1836e7d7,65af56ab4abd09284145a1a7,2024-01-23_08h15.15.697,bars,2023.2.3,Win32,59.88023952,657b66ea316d21385b68909f,,,,,,,,,,,2075.6489,2076.6578,,,2077.1478,2077.3877,,169,169,,,,,,,,,,,,,,,,bars/028.png,bars/mask001.png,,,,,,,,,,,,0,2,,,,,,,2,0,2,0,,,,,,,,,,,2076.6579,2077.1477,2077.3878,2078.1157,space,0.7076,,2078.1157,56,49,2079.1142,2079.1143,2079.1166,,,,0,39,39,39,1,45,120,,,,,,,,
,,60c9c994c019ca2e1836e7d7,65af56ab4abd09284145a1a7,2024-01-23_08h15.15.697,bars,2023.2.3,Win32,59.88023952,657b66ea316d21385b68909f,,,,,,,,,,,2079.117,2080.1206,,,2080.6156,2080.8633,,44,44,,,,,,,,,,,,,,,,bars/010.png,bars/mask007.png,,,,,,,,,,,,0,2,,,,,,,4,0,3,0,,,,,,,,,,,2080.1208,2080.6154,2080.8635,2082.7743,space,1.8848,,2082.7744,59,11,2083.7632,2083.7633,2083.7908,,,,0,40,40,40,1,165,55,,,,,,,,
,,60c9c994c019ca2e1836e7d7,65af56ab4abd09284145a1a7,2024-01-23_08h15.15.697,bars,2023.2.3,Win32,59.88023952,657b66ea316d21385b68909f,,,,,,,,,,,2083.7911,2084.7951,,,2085.2951,2085.5456,,171,171,,,,,,,,,,,,,,,,bars/038.png,bars/mask006.png,,,,,,,,,,,,2,1,,,,,,,2,0,3,0,,,,,,,,,,,2084.7952,2085.295,2085.5457,2086.8061,space,1.2487,,2086.8062,6,79,2087.795,2087.7952,2087.7978,,,,0,41,41,41,1,165,70,,,,,,,,
,,60c9c994c019ca2e1836e7d7,65af56ab4abd09284145a1a7,2024-01-23_08h15.15.697,bars,2023.2.3,Win32,59.88023952,657b66ea316d21385b68909f,,,,,,,,,,,2087.7982,2088.7939,,,2089.2873,2089.5373,,136,136,,,,,,,,,,,,,,,,bars/034.png,bars/mask000.png,,,,,,,,,,,,1,1,,,,,,,0,0,1,0,,,,,,,,,,,2088.7939,2089.2872,2089.5373,2090.9698,space,1.4196,,2090.9699,11,71,2091.9598,2091.9598,2091.9607,,,,0,42,42,42,1,125,65,,,,,,,,
,,60c9c994c019ca2e1836e7d7,65af56ab4abd09284145a1a7,2024-01-23_08h15.15.697,bars,2023.2.3,Win32,59.88023952,657b66ea316d21385b68909f,,,,,,,,,,,2091.9611,2092.9595,,,2093.4598,2093.7091,,40,40,,,,,,,,,,,,,,,,bars/046.png,bars/mask004.png,,,,,,,,,,,,0,2,,,,,,,2,2,1,2,,,,,,,,,,,2092.9595,2093.4597,2093.7092,2095.5084,space,1.7839,,2095.5085,65,45,2096.5083,2096.5083,2096.5107,,,,0,43,43,43,1,155,85,,,,,,,,
,,60c9c994c019ca2e1836e7d7,65af56ab4abd09284145a1a7,2024-01-23_08h15.15.697,bars,2023.2.3,Win32,59.88023952,657b66ea316d21385b68909f,,,,,,,,,,,2096.511,2097.5077,,,2098.0181,2098.2582,,31,31,,,,,,,,,,,,,,,,bars/033.png,bars/mask001.png,,,,,,,,,,,,3,1,,,,,,,4,4,4,3,,,,,,,,,,,2097.5078,2098.0181,2098.2582,2104.2561,space,5.9881,,2104.2561,6,56,2105.2557,2105.2559,2105.2715,,,,0,44,44,44,1,25,155,,,,,,,,
,,60c9c994c019ca2e1836e7d7,65af56ab4abd09284145a1a7,2024-01-23_08h15.15.697,bars,2023.2.3,Win32,59.88023952,657b66ea316d21385b68909f,,,,,,,,,,,2105.2719,2106.265,,,2106.7545,2107.0052,,29,29,,,,,,,,,,,,,,,,bars/022.png,bars/mask001.png,,,,,,,,,,,,1,2,,,,,,,6,2,6,2,,,,,,,,,,,2106.2651,2106.7544,2107.0053,2111.0475,space,4.0164,,2111.0476,66,9,2112.0361,2112.0361,2112.0687,,,,0,45,45,45,1,95,20,,,,,,,,
,,60c9c994c019ca2e1836e7d7,65af56ab4abd09284145a1a7,2024-01-23_08h15.15.697,bars,2023.2.3,Win32,59.88023952,657b66ea316d21385b68909f,,,,,,,,,,,2112.0695,2113.0753,,,2113.569,2113.8131,,18,18,,,,,,,,,,,,,,,,bars/028.png,bars/mask007.png,,,,,,,,,,,,1,1,,,,,,,8,0,8,0,,,,,,,,,,,2113.0754,2113.5689,2113.8133,2115.7154,space,1.8862,,2115.7155,27,78,2116.7175,2116.7176,2116.7216,,,,0,46,46,46,1,45,120,,,,,,,,
,,60c9c994c019ca2e1836e7d7,65af56ab4abd09284145a1a7,2024-01-23_08h15.15.697,bars,2023.2.3,Win32,59.88023952,657b66ea316d21385b68909f,,,,,,,,,,,2116.7228,2117.718,,,2118.218,2118.4613,,166,166,,,,,,,,,,,,,,,,bars/011.png,bars/mask003.png,,,,,,,,,,,,7,1,,,,,,,10,2,9,2,,,,,,,,,,,2117.718,2118.2179,2118.4614,2121.5117,space,3.0339,,2121.5118,6,81,2122.5168,2122.5169,2122.5307,,,,0,47,47,47,1,160,85,,,,,,,,
,,60c9c994c019ca2e1836e7d7,65af56ab4abd09284145a1a7,2024-01-23_08h15.15.697,bars,2023.2.3,Win32,59.88023952,657b66ea316d21385b68909f,,,,,,,,,,,2122.5316,2123.5331,,,2124.0323,2124.2911,,91,91,,,,,,,,,,,,,,,,bars/008.png,bars/mask009.png,,,,,,,,,,,,3,1,,,,,,,8,0,9,0,,,,,,,,,,,2123.5332,2124.0322,2124.2912,2126.7929,space,2.4945,,2126.793,19,89,2127.7982,2127.7983,2127.8119,,,,0,48,48,48,1,110,0,,,,,,,,
,,60c9c994c019ca2e1836e7d7,65af56ab4abd09284145a1a7,2024-01-23_08h15.15.697,bars,2023.2.3,Win32,59.88023952,657b66ea316d21385b68909f,,,,,,,,,,,2127.8122,2128.8143,,,2129.3146,2129.5644,,68,68,,,,,,,,,,,,,,,,bars/001.png,bars/mask008.png,,,,,,,,,,,,0,2,,,,,,,10,2,9,1,,,,,,,,,,,2128.8144,2129.3145,2129.5645,2132.2566,space,2.6662,,2132.2567,62,17,2133.2479,2133.248,2133.2838,,,,0,49,49,49,1,130,85,,,,,,,,
,,60c9c994c019ca2e1836e7d7,65af56ab4abd09284145a1a7,2024-01-23_08h15.15.697,bars,2023.2.3,Win32,59.88023952,657b66ea316d21385b68909f,,,,,,,,,,,,,,,,,,,,,,,,,,,,,,,,,,,,,,,,,,,,,,,,,,,,,,,,,,,,,,,,,,,,,,,,,,,,,,,,,,,,,,,,,,,,,2133.2841,2193.2756,0,3,3,4,1,sequence_tables/blk006.csv
,,60c9c994c019ca2e1836e7d7,65af56ab4abd09284145a1a7,2024-01-23_08h15.15.697,bars,2023.2.3,Win32,59.88023952,657b66ea316d21385b68909f,,,,,,,,,,,2215.7872,2216.7677,,,2217.2682,2217.5072,,115,115,,,,,,,,,,,,,,,,bars/012.png,bars/mask001.png,,,,,,,,,,,,1,1,,,,,,,5,8,5,7,,,,,,2193.2905,2215.7616,space,22.4583,,2216.7678,2217.2681,2217.5073,2220.6662,space,3.1344,,2220.6663,25,80,2221.6667,2221.6668,2221.7045,,,,0,0,0,0,1,90,15,,,,,,,,
,,60c9c994c019ca2e1836e7d7,65af56ab4abd09284145a1a7,2024-01-23_08h15.15.697,bars,2023.2.3,Win32,59.88023952,657b66ea316d21385b68909f,,,,,,,,,,,2221.7052,2222.6989,,,2223.1994,2223.449,,168,168,,,,,,,,,,,,,,,,bars/034.png,bars/mask001.png,,,,,,,,,,,,0,1,,,,,,,3,6,4,8,,,,,,,,,,,2222.699,2223.1993,2223.4491,2228.297,space,4.831,,2228.2972,43,77,2229.296,2229.2961,2229.3115,,,,0,1,1,1,1,125,65,,,,,,,,
,,60c9c994c019ca2e1836e7d7,65af56ab4abd09284145a1a7,2024-01-23_08h15.15.697,bars,2023.2.3,Win32,59.88023952,657b66ea316d21385b68909f,,,,,,,,,,,2229.3126,2230.3126,,,2230.8125,2231.0624,,68,68,,,,,,,,,,,,,,,,bars/013.png,bars/mask002.png,,,,,,,,,,,,4,1,,,,,,,5,8,5,9,,,,,,,,,,,2230.3127,2230.8124,2231.0625,2238.3055,space,7.2277,,2238.3056,7,58,2239.3098,2239.3098,2239.3266,,,,0,2,2,2,1,75,10,,,,,,,,
,,60c9c994c019ca2e1836e7d7,65af56ab4abd09284145a1a7,2024-01-23_08h15.15.697,bars,2023.2.3,Win32,59.88023952,657b66ea316d21385b68909f,,,,,,,,,,,2239.3271,2240.3331,,,2240.828,2241.0686,,118,118,,,,,,,,,,,,,,,,bars/049.png,bars/mask009.png,,,,,,,,,,,,5,2,,,,,,,7,6,7,5,,,,,,,,,,,2240.3332,2240.8279,2241.0686,2250.4393,space,9.3516,,2250.4393,42,3,2251.4398,2251.4398,2251.4636,,,,0,3,3,3,1,160,115,,,,,,,,
,,60c9c994c019ca2e1836e7d7,65af56ab4abd09284145a1a7,2024-01-23_08h15.15.697,bars,2023.2.3,Win32,59.88023952,657b66ea316d21385b68909f,,,,,,,,,,,2251.4641,2252.4559,,,2252.9553,2253.2052,,154,154,,,,,,,,,,,,,,,,bars/046.png,bars/mask000.png,,,,,,,,,,,,8,1,,,,,,,9,4,8,2,,,,,,,,,,,2252.456,2252.9553,2253.2053,2255.1555,space,1.9342,,2255.1555,1,69,2256.1544,2256.1544,2256.1722,,,,0,4,4,4,1,155,85,,,,,,,,
,,60c9c994c019ca2e1836e7d7,65af56ab4abd09284145a1a7,2024-01-23_08h15.15.697,bars,2023.2.3,Win32,59.88023952,657b66ea316d21385b68909f,,,,,,,,,,,2256.1727,2257.1711,,,2257.6709,2257.9202,,156,-24,,,,,,,,,,,,,,,,bars/016.png,bars/mask006.png,,,,,,,,,,,,3,2,,,,,,,7,6,8,4,,,,,,,,,,,2257.1712,2257.6709,2257.9203,2261.3032,space,3.3686,,2261.3033,64,9,2262.3019,2262.302,2262.3179,,,,0,5,5,5,1,40,165,,,,,,,,
,,60c9c994c019ca2e1836e7d7,65af56ab4abd09284145a1a7,2024-01-23_08h15.15.697,bars,2023.2.3,Win32,59.88023952,657b66ea316d21385b68909f,,,,,,,,,,,2262.3185,2263.3185,,,2263.8182,2264.0685,,91,91,,,,,,,,,,,,,,,,bars/027.png,bars/mask006.png,,,,,,,,,,,,3,1,,,,,,,9,8,9,7,,,,,,,,,,,2263.3185,2263.8182,2264.0686,2267.6667,space,3.5825,,2267.6668,19,41,2268.6669,2268.6669,2268.6828,,,,0,6,6,6,1,110,50,,,,,,,,
,,60c9c994c019ca2e1836e7d7,65af56ab4abd09284145a1a7,2024-01-23_08h15.15.697,bars,2023.2.3,Win32,59.88023952,657b66ea316d21385b68909f,,,,,,,,,,,2268.6832,2269.683,,,2270.1835,2270.4332,,30,30,,,,,,,,,,,,,,,,bars/015.png,bars/mask006.png,,,,,,,,,,,,0,2,,,,,,,7,10,7,10,,,,,,,,,,,2269.683,2270.1834,2270.4332,2273.8818,space,3.432,,2273.8818,80,50,2274.8816,2274.8817,2274.9157,,,,0,7,7,7,1,110,160,,,,,,,,
,,60c9c994c019ca2e1836e7d7,65af56ab4abd09284145a1a7,2024-01-23_08h15.15.697,bars,2023.2.3,Win32,59.88023952,657b66ea316d21385b68909f,,,,,,,,,,,2274.9164,2275.9063,,,2276.3969,2276.6575,,164,-16,,,,,,,,,,,,,,,,bars/046.png,bars/mask006.png,,,,,,,,,,,,3,1,,,,,,,5,10,4,9,,,,,,,,,,,2275.9064,2276.3968,2276.6575,2281.1988,space,4.5242,,2281.1989,9,79,2282.1878,2282.1878,2282.2035,,,,0,8,8,8,1,155,85,,,,,,,,
,,60c9c994c019ca2e1836e7d7,65af56ab4abd09284145a1a7,2024-01-23_08h15.15.697,bars,2023.2.3,Win32,59.88023952,657b66ea316d21385b68909f,,,,,,,,,,,2282.2038,2283.1956,,,2283.6955,2283.9456,,161,161,,,,,,,,,,,,,,,,bars/022.png,bars/mask007.png,,,,,,,,,,,,0,2,,,,,,,7,8,7,8,,,,,,,,,,,2283.1956,2283.6955,2283.9457,2287.304,space,3.3327,,2287.3041,66,39,2288.2931,2288.2931,2288.3097,,,,0,9,9,9,1,95,20,,,,,,,,
,,60c9c994c019ca2e1836e7d7,65af56ab4abd09284145a1a7,2024-01-23_08h15.15.697,bars,2023.2.3,Win32,59.88023952,657b66ea316d21385b68909f,,,,,,,,,,,2288.3101,2289.3087,,,2289.8018,2290.0427,,100,100,,,,,,,,,,,,,,,,bars/020.png,bars/mask001.png,,,,,,,,,,,,5,1,,,,,,,9,6,10,6,,,,,,,,,,,2289.3088,2289.8017,2290.0428,2292.9692,space,2.9,,2292.9693,15,70,2293.9577,2293.9578,2293.9803,,,,0,10,10,10,1,115,170,,,,,,,,
