init_variables.started,init_variables.stopped,participant,session,date,expName,psychopyVersion,OS,frameRate,study_id,instruction_exp.started,instruction_exp.stopped,key_resp_8.keys,key_resp_8.rt,key_resp_8.duration,instruction_single.started,instruction_single.stopped,key_resp_2.keys,key_resp_2.rt,key_resp_2.duration,interval.started,interval.stopped,cue_single.started,cue_single.stopped,mask.started,mask.stopped,ori_response_single.started,res_ori,res,ori_response_single.stopped,key_resp_single.keys,key_resp_single.rt,key_resp_single.duration,disp_single.started,disp_single.stopped,key_resp.keys,key_resp.rt,key_resp.duration,single.thisRepN,single.thisTrialN,single.thisN,single.thisIndex,single.ran,ori,path,mask_path,instruction_bandit.started,instruction_bandit.stopped,key_resp_6.keys,key_resp_6.rt,key_resp_6.duration,cue_bandit.started,cue_bandit.stopped,bandit_res.keys,bandit_res.rt,bandit_res.duration,outcome_bandit.started,rew,action,outcome_bandit.stopped,bandit.thisRepN,bandit.thisTrialN,bandit.thisN,bandit.thisIndex,bandit.ran,actual_rew1,actual_rew2,rew1,rew2,instruction_task.started,instruction_task.stopped,key_resp_7.keys,key_resp_7.rt,key_resp_7.duration,wait_ready.started,wait_ready.stopped,key_resp_3.keys,key_resp_3.rt,key_resp_3.duration,cue.started,cue.stopped,ori_response.started,ori_response.stopped,key_resp_5.keys,key_resp_5.rt,key_resp_5.duration,outcome.started,diff1,diff2,outcome.stopped,disp_outcome_practice.started,disp_outcome_practice.stopped,key_resp_4.keys,key_resp_4.rt,key_resp_4.duration,trials.thisRepN,trials.thisTrialN,trials.thisN,trials.thisIndex,trials.ran,ori1,ori2,break_blk.started,break_blk.stopped,block.thisRepN,block.thisTrialN,block.thisN,block.thisIndex,block.ran,condition_file
0.0018,0.0021,6175c8df7d130a584b8d9d5c,65af55a774eb1d0e84c24b1a,2024-01-23_08h09.40.138,bars,2023.2.3,Win32,59.99880002,657b66ea316d21385b68909f,,,,,,,,,,,,,,,,,,,,,,,,,,,,,,,,,,,,,,,,,,,,,,,,,,,,,,,,,,,,,,,,,,,,,,,,,,,,,,,,,,,,,,,,,,,,,,,,,,,,
,,6175c8df7d130a584b8d9d5c,65af55a774eb1d0e84c24b1a,2024-01-23_08h09.40.138,bars,2023.2.3,Win32,59.99880002,657b66ea316d21385b68909f,0.004,5.9601,y,5.9278,,,,,,,,,,,,,,,,,,,,,,,,,,,,,,,,,,,,,,,,,,,,,,,,,,,,,,,,,,,,,,,,,,,,,,,,,,,,,,,,,,,,,,,,,,,,,,,,
,,6175c8df7d130a584b8d9d5c,65af55a774eb1d0e84c24b1a,2024-01-23_08h09.40.138,bars,2023.2.3,Win32,59.99880002,657b66ea316d21385b68909f,,,,,,5.9607,18.6815,space,12.694,,,,,,,,,,,,,,,,,,,,,,,,,,,,,,,,,,,,,,,,,,,,,,,,,,,,,,,,,,,,,,,,,,,,,,,,,,,,,,,,,,,,,,,,,,,
,,6175c8df7d130a584b8d9d5c,65af55a774eb1d0e84c24b1a,2024-01-23_08h09.40.138,bars,2023.2.3,Win32,59.99880002,657b66ea316d21385b68909f,,,,,,,,,,,18.6949,19.6964,19.6967,20.1884,20.1886,20.4278,20.428,71,71,24.6226,space,4.1489,,24.623,27.756,space,3.0932,,0,0,0,5,1,55,bars/single005.png,bars/mask008.png,,,,,,,,,,,,,,,,,,,,,,,,,,,,,,,,,,,,,,,,,,,,,,,,,,,,,,,,,,,,,,,,
,,6175c8df7d130a584b8d9d5c,65af55a774eb1d0e84c24b1a,2024-01-23_08h09.40.138,bars,2023.2.3,Win32,59.99880002,657b66ea316d21385b68909f,,,,,,,,,,,27.7569,28.7636,28.7638,29.251,29.2511,29.4935,29.4935,152,152,32.7574,space,3.2389,,32.7576,36.6265,space,3.839,,0,1,1,9,1,20,bars/single009.png,bars/mask006.png,,,,,,,,,,,,,,,,,,,,,,,,,,,,,,,,,,,,,,,,,,,,,,,,,,,,,,,,,,,,,,,,
,,6175c8df7d130a584b8d9d5c,65af55a774eb1d0e84c24b1a,2024-01-23_08h09.40.138,bars,2023.2.3,Win32,59.99880002,657b66ea316d21385b68909f,,,,,,,,,,,36.6282,37.6206,37.6207,38.0977,38.0977,38.3459,38.3459,111,111,42.9405,space,4.5705,,42.9406,45.5043,space,2.5318,,0,2,2,7,1,45,bars/single007.png,bars/mask009.png,,,,,,,,,,,,,,,,,,,,,,,,,,,,,,,,,,,,,,,,,,,,,,,,,,,,,,,,,,,,,,,,
,,6175c8df7d130a584b8d9d5c,65af55a774eb1d0e84c24b1a,2024-01-23_08h09.40.138,bars,2023.2.3,Win32,59.99880002,657b66ea316d21385b68909f,,,,,,,,,,,45.5062,46.5001,46.5002,47.0097,47.0098,47.2663,47.2664,49,49,52.5198,space,5.2302,,52.5198,55.8902,space,3.3262,,0,3,3,0,1,150,bars/single000.png,bars/mask006.png,,,,,,,,,,,,,,,,,,,,,,,,,,,,,,,,,,,,,,,,,,,,,,,,,,,,,,,,,,,,,,,,
,,6175c8df7d130a584b8d9d5c,65af55a774eb1d0e84c24b1a,2024-01-23_08h09.40.138,bars,2023.2.3,Win32,59.99880002,657b66ea316d21385b68909f,,,,,,,,,,,55.9092,56.9114,56.9115,57.3938,57.3938,57.6342,57.6343,76,76,61.3078,space,3.6519,,61.3078,64.6081,space,3.2586,,0,4,4,4,1,95,bars/single004.png,bars/mask004.png,,,,,,,,,,,,,,,,,,,,,,,,,,,,,,,,,,,,,,,,,,,,,,,,,,,,,,,,,,,,,,,,
,,6175c8df7d130a584b8d9d5c,65af55a774eb1d0e84c24b1a,2024-01-23_08h09.40.138,bars,2023.2.3,Win32,59.99880002,657b66ea316d21385b68909f,,,,,,,,,,,64.6094,65.5838,65.5838,66.081,66.0811,66.3257,66.3258,73,73,69.8762,space,3.5244,,69.8763,72.0579,space,2.1424,,0,5,5,1,1,20,bars/single001.png,bars/mask006.png,,,,,,,,,,,,,,,,,,,,,,,,,,,,,,,,,,,,,,,,,,,,,,,,,,,,,,,,,,,,,,,,
,,6175c8df7d130a584b8d9d5c,65af55a774eb1d0e84c24b1a,2024-01-23_08h09.40.138,bars,2023.2.3,Win32,59.99880002,657b66ea316d21385b68909f,,,,,,,,,,,72.0592,73.055,73.0551,73.5532,73.5532,73.8001,73.8002,32,32,79.1584,space,5.3376,,79.1586,82.8422,space,3.639,,0,6,6,6,1,175,bars/single006.png,bars/mask005.png,,,,,,,,,,,,,,,,,,,,,,,,,,,,,,,,,,,,,,,,,,,,,,,,,,,,,,,,,,,,,,,,
,,6175c8df7d130a584b8d9d5c,65af55a774eb1d0e84c24b1a,2024-01-23_08h09.40.138,bars,2023.2.3,Win32,59.99880002,657b66ea316d21385b68909f,,,,,,,,,,,82.8434,83.8421,83.8423,84.3371,84.3371,84.5961,84.5962,127,127,118.0749,space,33.4538,,118.0751,122.8074,space,4.686,,0,7,7,3,1,20,bars/single003.png,bars/mask005.png,,,,,,,,,,,,,,,,,,,,,,,,,,,,,,,,,,,,,,,,,,,,,,,,,,,,,,,,,,,,,,,,
,,6175c8df7d130a584b8d9d5c,65af55a774eb1d0e84c24b1a,2024-01-23_08h09.40.138,bars,2023.2.3,Win32,59.99880002,657b66ea316d21385b68909f,,,,,,,,,,,122.8268,123.8188,123.8188,124.3012,124.3012,124.545,124.545,58,58,175.0058,space,50.4367,,175.0059,176.1515,space,1.102,,0,8,8,8,1,160,bars/single008.png,bars/mask004.png,,,,,,,,,,,,,,,,,,,,,,,,,,,,,,,,,,,,,,,,,,,,,,,,,,,,,,,,,,,,,,,,
,,6175c8df7d130a584b8d9d5c,65af55a774eb1d0e84c24b1a,2024-01-23_08h09.40.138,bars,2023.2.3,Win32,59.99880002,657b66ea316d21385b68909f,,,,,,,,,,,176.1535,177.1368,177.1369,177.6328,177.6329,177.8801,177.8801,13,13,183.3587,space,5.4567,,183.3588,185.874,space,2.4758,,0,9,9,2,1,145,bars/single002.png,bars/mask003.png,,,,,,,,,,,,,,,,,,,,,,,,,,,,,,,,,,,,,,,,,,,,,,,,,,,,,,,,,,,,,,,,
,,6175c8df7d130a584b8d9d5c,65af55a774eb1d0e84c24b1a,2024-01-23_08h09.40.138,bars,2023.2.3,Win32,59.99880002,657b66ea316d21385b68909f,,,,,,,,,,,,,,,,,,,,,,,,,,,,,,,,,,,,,185.8758,199.3366,space,13.4334,,,,,,,,,,,,,,,,,,,,,,,,,,,,,,,,,,,,,,,,,,,,,,,,,,,,,,,,,,,,
,,6175c8df7d130a584b8d9d5c,65af55a774eb1d0e84c24b1a,2024-01-23_08h09.40.138,bars,2023.2.3,Win32,59.99880002,657b66ea316d21385b68909f,,,,,,,,,,,,,,,,,,,,,,,,,,,,,,,,,,,,,,,,,,199.363,678.6619,left,479.2658,,678.6624,9,1,679.6653,0,0,0,0,1,9,1,9,2,,,,,,,,,,,,,,,,,,,,,,,,,,,,,,,,,,,,,,,,,
,,6175c8df7d130a584b8d9d5c,65af55a774eb1d0e84c24b1a,2024-01-23_08h09.40.138,bars,2023.2.3,Win32,59.99880002,657b66ea316d21385b68909f,,,,,,,,,,,,,,,,,,,,,,,,,,,,,,,,,,,,,,,,,,679.6666,681.103,right,1.4178,,681.103,1,2,682.1053,0,1,1,1,1,10,0,10,1,,,,,,,,,,,,,,,,,,,,,,,,,,,,,,,,,,,,,,,,,
,,6175c8df7d130a584b8d9d5c,65af55a774eb1d0e84c24b1a,2024-01-23_08h09.40.138,bars,2023.2.3,Win32,59.99880002,657b66ea316d21385b68909f,,,,,,,,,,,,,,,,,,,,,,,,,,,,,,,,,,,,,,,,,,682.1063,683.2005,left,1.0742,,683.2006,10,1,684.1956,0,2,2,2,1,10,2,10,2,,,,,,,,,,,,,,,,,,,,,,,,,,,,,,,,,,,,,,,,,
,,6175c8df7d130a584b8d9d5c,65af55a774eb1d0e84c24b1a,2024-01-23_08h09.40.138,bars,2023.2.3,Win32,59.99880002,657b66ea316d21385b68909f,,,,,,,,,,,,,,,,,,,,,,,,,,,,,,,,,,,,,,,,,,684.1967,685.6466,left,1.4327,,685.6466,7,1,686.6398,0,3,3,3,1,8,4,7,3,,,,,,,,,,,,,,,,,,,,,,,,,,,,,,,,,,,,,,,,,
,,6175c8df7d130a584b8d9d5c,65af55a774eb1d0e84c24b1a,2024-01-23_08h09.40.138,bars,2023.2.3,Win32,59.99880002,657b66ea316d21385b68909f,,,,,,,,,,,,,,,,,,,,,,,,,,,,,,,,,,,,,,,,,,686.6408,687.6468,right,0.9862,,687.647,1,2,688.6475,0,4,4,4,1,6,2,5,1,,,,,,,,,,,,,,,,,,,,,,,,,,,,,,,,,,,,,,,,,
,,6175c8df7d130a584b8d9d5c,65af55a774eb1d0e84c24b1a,2024-01-23_08h09.40.138,bars,2023.2.3,Win32,59.99880002,657b66ea316d21385b68909f,,,,,,,,,,,,,,,,,,,,,,,,,,,,,,,,,,,,,,,,,,688.6485,689.3909,left,0.7223,,689.3909,4,1,690.3885,0,5,5,5,1,4,4,4,4,,,,,,,,,,,,,,,,,,,,,,,,,,,,,,,,,,,,,,,,,
,,6175c8df7d130a584b8d9d5c,65af55a774eb1d0e84c24b1a,2024-01-23_08h09.40.138,bars,2023.2.3,Win32,59.99880002,657b66ea316d21385b68909f,,,,,,,,,,,,,,,,,,,,,,,,,,,,,,,,,,,,,,,,,,690.3894,692.231,right,1.8244,,692.2311,2,2,693.2268,0,6,6,6,1,2,2,1,2,,,,,,,,,,,,,,,,,,,,,,,,,,,,,,,,,,,,,,,,,
,,6175c8df7d130a584b8d9d5c,65af55a774eb1d0e84c24b1a,2024-01-23_08h09.40.138,bars,2023.2.3,Win32,59.99880002,657b66ea316d21385b68909f,,,,,,,,,,,,,,,,,,,,,,,,,,,,,,,,,,,,,,,,,,693.2442,694.2713,left,1.0128,,694.2713,0,1,695.2769,0,7,7,7,1,0,0,0,1,,,,,,,,,,,,,,,,,,,,,,,,,,,,,,,,,,,,,,,,,
,,6175c8df7d130a584b8d9d5c,65af55a774eb1d0e84c24b1a,2024-01-23_08h09.40.138,bars,2023.2.3,Win32,59.99880002,657b66ea316d21385b68909f,,,,,,,,,,,,,,,,,,,,,,,,,,,,,,,,,,,,,,,,,,695.2781,696.3755,right,1.0801,,696.3755,0,2,697.3781,0,8,8,8,1,0,2,1,0,,,,,,,,,,,,,,,,,,,,,,,,,,,,,,,,,,,,,,,,,
,,6175c8df7d130a584b8d9d5c,65af55a774eb1d0e84c24b1a,2024-01-23_08h09.40.138,bars,2023.2.3,Win32,59.99880002,657b66ea316d21385b68909f,,,,,,,,,,,,,,,,,,,,,,,,,,,,,,,,,,,,,,,,,,697.3792,698.4043,left,1.0071,,698.4044,2,1,699.4044,0,9,9,9,1,2,4,2,3,,,,,,,,,,,,,,,,,,,,,,,,,,,,,,,,,,,,,,,,,
,,6175c8df7d130a584b8d9d5c,65af55a774eb1d0e84c24b1a,2024-01-23_08h09.40.138,bars,2023.2.3,Win32,59.99880002,657b66ea316d21385b68909f,,,,,,,,,,,,,,,,,,,,,,,,,,,,,,,,,,,,,,,,,,699.4053,700.2949,right,0.8686,,700.295,3,2,701.2914,0,10,10,10,1,0,2,0,3,,,,,,,,,,,,,,,,,,,,,,,,,,,,,,,,,,,,,,,,,
,,6175c8df7d130a584b8d9d5c,65af55a774eb1d0e84c24b1a,2024-01-23_08h09.40.138,bars,2023.2.3,Win32,59.99880002,657b66ea316d21385b68909f,,,,,,,,,,,,,,,,,,,,,,,,,,,,,,,,,,,,,,,,,,701.2947,702.0676,left,0.7559,,702.0677,0,1,703.0627,0,11,11,11,1,0,4,0,3,,,,,,,,,,,,,,,,,,,,,,,,,,,,,,,,,,,,,,,,,
,,6175c8df7d130a584b8d9d5c,65af55a774eb1d0e84c24b1a,2024-01-23_08h09.40.138,bars,2023.2.3,Win32,59.99880002,657b66ea316d21385b68909f,,,,,,,,,,,,,,,,,,,,,,,,,,,,,,,,,,,,,,,,,,703.0636,703.8476,right,0.766,,703.8477,6,2,704.8379,0,12,12,12,1,2,6,1,6,,,,,,,,,,,,,,,,,,,,,,,,,,,,,,,,,,,,,,,,,
,,6175c8df7d130a584b8d9d5c,65af55a774eb1d0e84c24b1a,2024-01-23_08h09.40.138,bars,2023.2.3,Win32,59.99880002,657b66ea316d21385b68909f,,,,,,,,,,,,,,,,,,,,,,,,,,,,,,,,,,,,,,,,,,704.8388,705.75,left,0.8897,,705.75,1,1,706.732,0,13,13,13,1,0,4,1,3,,,,,,,,,,,,,,,,,,,,,,,,,,,,,,,,,,,,,,,,,
,,6175c8df7d130a584b8d9d5c,65af55a774eb1d0e84c24b1a,2024-01-23_08h09.40.138,bars,2023.2.3,Win32,59.99880002,657b66ea316d21385b68909f,,,,,,,,,,,,,,,,,,,,,,,,,,,,,,,,,,,,,,,,,,706.7329,708.1295,right,1.3777,,708.1295,7,2,709.1291,0,14,14,14,1,2,6,2,7,,,,,,,,,,,,,,,,,,,,,,,,,,,,,,,,,,,,,,,,,
,,6175c8df7d130a584b8d9d5c,65af55a774eb1d0e84c24b1a,2024-01-23_08h09.40.138,bars,2023.2.3,Win32,59.99880002,657b66ea316d21385b68909f,,,,,,,,,,,,,,,,,,,,,,,,,,,,,,,,,,,,,,,,,,709.1468,710.0067,left,0.844,,710.0067,3,1,711.0115,0,15,15,15,1,4,8,3,9,,,,,,,,,,,,,,,,,,,,,,,,,,,,,,,,,,,,,,,,,
,,6175c8df7d130a584b8d9d5c,65af55a774eb1d0e84c24b1a,2024-01-23_08h09.40.138,bars,2023.2.3,Win32,59.99880002,657b66ea316d21385b68909f,,,,,,,,,,,,,,,,,,,,,,,,,,,,,,,,,,,,,,,,,,711.0125,711.8154,right,0.7842,,711.8155,7,2,712.8218,0,16,16,16,1,6,6,7,7,,,,,,,,,,,,,,,,,,,,,,,,,,,,,,,,,,,,,,,,,
,,6175c8df7d130a584b8d9d5c,65af55a774eb1d0e84c24b1a,2024-01-23_08h09.40.138,bars,2023.2.3,Win32,59.99880002,657b66ea316d21385b68909f,,,,,,,,,,,,,,,,,,,,,,,,,,,,,,,,,,,,,,,,,,712.8238,713.4129,left,0.5679,,713.4129,9,1,714.4002,0,17,17,17,1,8,4,9,5,,,,,,,,,,,,,,,,,,,,,,,,,,,,,,,,,,,,,,,,,
,,6175c8df7d130a584b8d9d5c,65af55a774eb1d0e84c24b1a,2024-01-23_08h09.40.138,bars,2023.2.3,Win32,59.99880002,657b66ea316d21385b68909f,,,,,,,,,,,,,,,,,,,,,,,,,,,,,,,,,,,,,,,,,,714.4013,715.2494,right,0.828,,715.2495,1,2,716.2447,0,18,18,18,1,6,2,5,1,,,,,,,,,,,,,,,,,,,,,,,,,,,,,,,,,,,,,,,,,
,,6175c8df7d130a584b8d9d5c,65af55a774eb1d0e84c24b1a,2024-01-23_08h09.40.138,bars,2023.2.3,Win32,59.99880002,657b66ea316d21385b68909f,,,,,,,,,,,,,,,,,,,,,,,,,,,,,,,,,,,,,,,,,,716.2457,716.7744,left,0.5099,,716.7745,7,1,717.7805,0,19,19,19,1,8,0,7,0,,,,,,,,,,,,,,,,,,,,,,,,,,,,,,,,,,,,,,,,,
,,6175c8df7d130a584b8d9d5c,65af55a774eb1d0e84c24b1a,2024-01-23_08h09.40.138,bars,2023.2.3,Win32,59.99880002,657b66ea316d21385b68909f,,,,,,,,,,,,,,,,,,,,,,,,,,,,,,,,,,,,,,,,,,,,,,,,,,,,,,,,,,,,717.7816,723.6351,space,5.8285,,,,,,,,,,,,,,,,,,,,,,,,,,,,,,,,,,,,,
,,6175c8df7d130a584b8d9d5c,65af55a774eb1d0e84c24b1a,2024-01-23_08h09.40.138,bars,2023.2.3,Win32,59.99880002,657b66ea316d21385b68909f,,,,,,,,,,,725.4837,726.4654,,,726.9503,727.2082,,90,90,,,,,,,,,,,,,,,,bars/029.png,bars/mask002.png,,,,,,,,,,,,5,1,,,,,,,2,3,5,3,,,,,,723.6587,725.4764,space,1.7988,,726.4657,726.9503,727.2085,736.6847,space,9.4521,,736.6854,0,45,737.6838,737.6841,742.6855,space,4.9712,,0,0,0,0,1,90,45,,,,,,,,
,,6175c8df7d130a584b8d9d5c,65af55a774eb1d0e84c24b1a,2024-01-23_08h09.40.138,bars,2023.2.3,Win32,59.99880002,657b66ea316d21385b68909f,,,,,,,,,,,742.703,743.6964,,,744.1966,744.4472,,91,91,,,,,,,,,,,,,,,,bars/023.png,bars/mask009.png,,,,,,,,,,,,0,2,,,,,,,4,1,3,1,,,,,,,,,,,743.6965,744.1965,744.4472,752.632,space,8.165,,752.6322,71,24,753.6211,753.6212,756.8538,space,3.1905,,0,1,1,1,1,20,115,,,,,,,,
,,6175c8df7d130a584b8d9d5c,65af55a774eb1d0e84c24b1a,2024-01-23_08h09.40.138,bars,2023.2.3,Win32,59.99880002,657b66ea316d21385b68909f,,,,,,,,,,,756.8546,757.8372,,,758.3197,758.5648,,131,131,,,,,,,,,,,,,,,,bars/031.png,bars/mask008.png,,,,,,,,,,,,3,1,,,,,,,6,0,5,0,,,,,,,,,,,757.8372,758.3196,758.5649,764.3562,space,5.7702,,764.3564,11,84,765.3506,765.3508,769.0587,space,3.6677,,0,2,2,2,1,120,35,,,,,,,,
,,6175c8df7d130a584b8d9d5c,65af55a774eb1d0e84c24b1a,2024-01-23_08h09.40.138,bars,2023.2.3,Win32,59.99880002,657b66ea316d21385b68909f,,,,,,,,,,,769.0754,770.0686,,,770.5752,770.8055,,40,40,,,,,,,,,,,,,,,,bars/028.png,bars/mask008.png,,,,,,,,,,,,3,1,,,,,,,4,2,4,2,,,,,,,,,,,770.0686,770.5752,770.8056,774.5159,space,3.6864,,774.5161,5,80,775.5025,775.5025,777.3172,space,1.7758,,0,3,3,3,1,45,120,,,,,,,,
,,6175c8df7d130a584b8d9d5c,65af55a774eb1d0e84c24b1a,2024-01-23_08h09.40.138,bars,2023.2.3,Win32,59.99880002,657b66ea316d21385b68909f,,,,,,,,,,,777.3181,778.3183,,,778.8199,779.085,,122,122,,,,,,,,,,,,,,,,bars/009.png,bars/mask005.png,,,,,,,,,,,,2,2,,,,,,,6,4,6,4,,,,,,,,,,,778.3184,778.8198,779.0851,784.7779,space,5.6728,,784.778,73,17,785.777,785.7771,788.15,space,2.328,,0,4,4,4,1,15,105,,,,,,,,
,,6175c8df7d130a584b8d9d5c,65af55a774eb1d0e84c24b1a,2024-01-23_08h09.40.138,bars,2023.2.3,Win32,59.99880002,657b66ea316d21385b68909f,,,,,,,,,,,788.1511,789.1388,,,789.6205,789.8835,,112,112,,,,,,,,,,,,,,,,bars/014.png,bars/mask001.png,,,,,,,,,,,,0,1,,,,,,,4,2,3,2,,,,,,,,,,,789.1388,789.6204,789.8836,793.3709,space,3.4674,,793.3709,32,68,794.3693,794.3693,796.909,space,2.4989,,0,5,5,5,1,80,0,,,,,,,,
,,6175c8df7d130a584b8d9d5c,65af55a774eb1d0e84c24b1a,2024-01-23_08h09.40.138,bars,2023.2.3,Win32,59.99880002,657b66ea316d21385b68909f,,,,,,,,,,,796.9098,797.8996,,,798.3922,798.6511,,174,174,,,,,,,,,,,,,,,,bars/007.png,bars/mask004.png,,,,,,,,,,,,2,1,,,,,,,2,4,2,5,,,,,,,,,,,797.8996,798.3922,798.6511,802.5995,space,3.9276,,802.5995,1,61,803.5915,803.5915,807.3186,space,3.6894,,0,6,6,6,1,175,55,,,,,,,,
,,6175c8df7d130a584b8d9d5c,65af55a774eb1d0e84c24b1a,2024-01-23_08h09.40.138,bars,2023.2.3,Win32,59.99880002,657b66ea316d21385b68909f,,,,,,,,,,,807.336,808.3254,,,808.8172,809.0842,,36,36,,,,,,,,,,,,,,,,bars/034.png,bars/mask002.png,,,,,,,,,,,,0,2,,,,,,,4,2,5,2,,,,,,,,,,,808.3255,808.8172,809.0843,812.1744,space,3.0692,,812.1745,89,29,813.1724,813.1725,814.9561,space,1.7433,,0,7,7,7,1,125,65,,,,,,,,
,,6175c8df7d130a584b8d9d5c,65af55a774eb1d0e84c24b1a,2024-01-23_08h09.40.138,bars,2023.2.3,Win32,59.99880002,657b66ea316d21385b68909f,,,,,,,,,,,814.9586,815.9406,,,816.4219,816.6576,,53,53,,,,,,,,,,,,,,,,bars/004.png,bars/mask004.png,,,,,,,,,,,,0,1,,,,,,,2,4,2,6,,,,,,,,,,,815.9407,816.4217,816.6576,819.9697,space,3.2908,,819.9698,28,72,820.9745,820.9746,823.4731,space,2.4574,,0,8,8,8,1,25,125,,,,,,,,
,,6175c8df7d130a584b8d9d5c,65af55a774eb1d0e84c24b1a,2024-01-23_08h09.40.138,bars,2023.2.3,Win32,59.99880002,657b66ea316d21385b68909f,,,,,,,,,,,823.4736,824.4717,,,824.9684,825.2206,,113,113,,,,,,,,,,,,,,,,bars/040.png,bars/mask005.png,,,,,,,,,,,,0,1,,,,,,,0,2,0,2,,,,,,,,,,,824.4718,824.9683,825.2206,829.6702,space,4.4283,,829.6702,27,72,830.6858,830.6858,834.0638,space,3.3409,,0,9,9,9,1,140,5,,,,,,,,
,,6175c8df7d130a584b8d9d5c,65af55a774eb1d0e84c24b1a,2024-01-23_08h09.40.138,bars,2023.2.3,Win32,59.99880002,657b66ea316d21385b68909f,,,,,,,,,,,834.0811,835.0705,,,835.5562,835.7918,,144,144,,,,,,,,,,,,,,,,bars/001.png,bars/mask004.png,,,,,,,,,,,,0,1,,,,,,,0,4,0,5,,,,,,,,,,,835.0706,835.5562,835.7918,842.8564,space,7.0431,,842.8565,14,59,843.8448,843.8448,846.6168,space,2.7325,,0,10,10,10,1,130,85,,,,,,,,
,,6175c8df7d130a584b8d9d5c,65af55a774eb1d0e84c24b1a,2024-01-23_08h09.40.138,bars,2023.2.3,Win32,59.99880002,657b66ea316d21385b68909f,,,,,,,,,,,846.6182,847.6059,,,848.1032,848.3398,,53,53,,,,,,,,,,,,,,,,bars/002.png,bars/mask008.png,,,,,,,,,,,,0,2,,,,,,,2,2,1,0,,,,,,,,,,,847.6059,848.1031,848.3399,854.4283,space,6.0676,,854.4284,77,32,855.4201,855.4201,856.8595,space,1.3994,,0,11,11,11,1,130,85,,,,,,,,
,,6175c8df7d130a584b8d9d5c,65af55a774eb1d0e84c24b1a,2024-01-23_08h09.40.138,bars,2023.2.3,Win32,59.99880002,657b66ea316d21385b68909f,,,,,,,,,,,856.8609,857.8455,,,858.334,858.5872,,56,56,,,,,,,,,,,,,,,,bars/037.png,bars/mask005.png,,,,,,,,,,,,0,2,,,,,,,4,4,5,5,,,,,,,,,,,857.8455,858.334,858.5873,865.0058,space,6.3988,,865.0059,86,49,866.0209,866.0209,868.7734,space,2.7153,,0,12,12,12,1,150,105,,,,,,,,
,,6175c8df7d130a584b8d9d5c,65af55a774eb1d0e84c24b1a,2024-01-23_08h09.40.138,bars,2023.2.3,Win32,59.99880002,657b66ea316d21385b68909f,,,,,,,,,,,868.7907,869.7814,,,870.2879,870.5414,,129,129,,,,,,,,,,,,,,,,bars/039.png,bars/mask004.png,,,,,,,,,,,,1,2,,,,,,,2,2,0,3,,,,,,,,,,,869.7814,870.2878,870.5414,872.8948,space,2.3322,,872.8948,46,24,873.8824,873.8825,876.0146,space,2.0954,,0,13,13,13,1,175,105,,,,,,,,
,,6175c8df7d130a584b8d9d5c,65af55a774eb1d0e84c24b1a,2024-01-23_08h09.40.138,bars,2023.2.3,Win32,59.99880002,657b66ea316d21385b68909f,,,,,,,,,,,876.0151,877.0214,,,877.5217,877.765,,103,103,,,,,,,,,,,,,,,,bars/039.png,bars/mask006.png,,,,,,,,,,,,4,2,,,,,,,4,4,5,4,,,,,,,,,,,877.0214,877.5216,877.765,881.1904,space,3.4025,,881.1904,72,2,882.2049,882.205,884.3242,space,2.0862,,0,14,14,14,1,175,105,,,,,,,,
,,6175c8df7d130a584b8d9d5c,65af55a774eb1d0e84c24b1a,2024-01-23_08h09.40.138,bars,2023.2.3,Win32,59.99880002,657b66ea316d21385b68909f,,,,,,,,,,,884.3254,885.3319,,,885.8326,886.0719,,129,129,,,,,,,,,,,,,,,,bars/022.png,bars/mask002.png,,,,,,,,,,,,0,1,,,,,,,2,6,1,7,,,,,,,,,,,885.3319,885.8326,886.072,892.9422,space,6.837,,892.9422,34,71,893.9295,893.9296,896.3411,space,2.37,,0,15,15,15,1,95,20,,,,,,,,
,,6175c8df7d130a584b8d9d5c,65af55a774eb1d0e84c24b1a,2024-01-23_08h09.40.138,bars,2023.2.3,Win32,59.99880002,657b66ea316d21385b68909f,,,,,,,,,,,896.3421,897.3251,,,897.8099,898.0727,,105,105,,,,,,,,,,,,,,,,bars/000.png,bars/mask006.png,,,,,,,,,,,,0,2,,,,,,,4,4,2,5,,,,,,,,,,,897.3253,897.8097,898.0727,902.0244,space,3.9321,,902.0245,65,40,903.0243,903.0244,904.4745,space,1.3969,,0,16,16,16,1,40,145,,,,,,,,
,,6175c8df7d130a584b8d9d5c,65af55a774eb1d0e84c24b1a,2024-01-23_08h09.40.138,bars,2023.2.3,Win32,59.99880002,657b66ea316d21385b68909f,,,,,,,,,,,904.4753,905.4738,,,905.9733,906.2099,,144,144,,,,,,,,,,,,,,,,bars/032.png,bars/mask005.png,,,,,,,,,,,,2,1,,,,,,,6,2,5,2,,,,,,,,,,,905.4739,905.9733,906.21,910.2736,space,4.0423,,910.2736,19,56,911.2603,911.2603,913.3672,space,2.0691,,0,17,17,17,1,125,20,,,,,,,,
,,6175c8df7d130a584b8d9d5c,65af55a774eb1d0e84c24b1a,2024-01-23_08h09.40.138,bars,2023.2.3,Win32,59.99880002,657b66ea316d21385b68909f,,,,,,,,,,,913.3681,914.3591,,,914.8567,915.1101,,138,138,,,,,,,,,,,,,,,,bars/012.png,bars/mask009.png,,,,,,,,,,,,0,1,,,,,,,8,4,7,3,,,,,,,,,,,914.3591,914.8566,915.1101,920.4858,space,5.3542,,920.4859,48,57,921.4945,921.4945,923.304,space,1.775,,0,18,18,18,1,90,15,,,,,,,,
,,6175c8df7d130a584b8d9d5c,65af55a774eb1d0e84c24b1a,2024-01-23_08h09.40.138,bars,2023.2.3,Win32,59.99880002,657b66ea316d21385b68909f,,,,,,,,,,,923.3046,924.3075,,,924.7983,925.0324,,91,91,,,,,,,,,,,,,,,,bars/027.png,bars/mask003.png,,,,,,,,,,,,2,1,,,,,,,6,2,5,3,,,,,,,,,,,924.3077,924.7982,925.0325,930.0659,space,5.0128,,930.066,19,41,931.058,931.0581,935.445,space,4.3497,,0,19,19,19,1,110,50,,,,,,,,
,,6175c8df7d130a584b8d9d5c,65af55a774eb1d0e84c24b1a,2024-01-23_08h09.40.138,bars,2023.2.3,Win32,59.99880002,657b66ea316d21385b68909f,,,,,,,,,,,935.4618,936.4486,,,936.937,937.192,,117,117,,,,,,,,,,,,,,,,bars/039.png,bars/mask004.png,,,,,,,,,,,,1,2,,,,,,,8,4,8,2,,,,,,,,,,,936.4487,936.937,937.1921,941.9871,space,4.7749,,941.9871,58,12,942.9818,942.9819,944.7432,space,1.7214,,0,20,20,20,1,175,105,,,,,,,,
,,6175c8df7d130a584b8d9d5c,65af55a774eb1d0e84c24b1a,2024-01-23_08h09.40.138,bars,2023.2.3,Win32,59.99880002,657b66ea316d21385b68909f,,,,,,,,,,,944.7441,945.7588,,,946.2503,946.5027,,107,107,,,,,,,,,,,,,,,,bars/008.png,bars/mask005.png,,,,,,,,,,,,5,1,,,,,,,6,6,5,6,,,,,,,,,,,945.7588,946.2503,946.5027,953.0642,space,6.5389,,953.0643,3,73,954.0629,954.0629,955.6674,space,1.5631,,0,21,21,21,1,110,0,,,,,,,,
,,6175c8df7d130a584b8d9d5c,65af55a774eb1d0e84c24b1a,2024-01-23_08h09.40.138,bars,2023.2.3,Win32,59.99880002,657b66ea316d21385b68909f,,,,,,,,,,,955.668,956.6595,,,957.1651,957.4191,,11,191,,,,,,,,,,,,,,,,bars/000.png,bars/mask001.png,,,,,,,,,,,,0,1,,,,,,,8,4,9,4,,,,,,,,,,,956.6596,957.1651,957.4192,962.6542,space,5.217,,962.6542,29,46,963.6458,963.6458,966.3513,space,2.6675,,0,22,22,22,1,40,145,,,,,,,,
,,6175c8df7d130a584b8d9d5c,65af55a774eb1d0e84c24b1a,2024-01-23_08h09.40.138,bars,2023.2.3,Win32,59.99880002,657b66ea316d21385b68909f,,,,,,,,,,,966.3689,967.359,,,967.853,968.0845,,48,48,,,,,,,,,,,,,,,,bars/028.png,bars/mask002.png,,,,,,,,,,,,9,1,,,,,,,10,2,10,2,,,,,,,,,,,967.359,967.8528,968.0845,974.7782,space,6.6723,,974.7783,3,72,975.7671,975.7672,979.6467,space,3.8405,,0,23,23,23,1,45,120,,,,,,,,
,,6175c8df7d130a584b8d9d5c,65af55a774eb1d0e84c24b1a,2024-01-23_08h09.40.138,bars,2023.2.3,Win32,59.99880002,657b66ea316d21385b68909f,,,,,,,,,,,979.6473,980.6387,,,981.1277,981.3807,,53,53,,,,,,,,,,,,,,,,bars/020.png,bars/mask009.png,,,,,,,,,,,,0,1,,,,,,,10,4,10,6,,,,,,,,,,,980.6387,981.1276,981.3808,984.0189,space,2.6169,,984.0189,62,63,985.0114,985.0115,987.0899,space,2.04,,0,24,24,24,1,115,170,,,,,,,,
,,6175c8df7d130a584b8d9d5c,65af55a774eb1d0e84c24b1a,2024-01-23_08h09.40.138,bars,2023.2.3,Win32,59.99880002,657b66ea316d21385b68909f,,,,,,,,,,,987.0906,988.0949,,,988.5985,988.8503,,128,128,,,,,,,,,,,,,,,,bars/007.png,bars/mask009.png,,,,,,,,,,,,0,1,,,,,,,10,6,9,7,,,,,,,,,,,988.095,988.5985,988.8504,994.8964,space,6.0247,,994.8965,47,73,995.8828,995.8829,997.2902,space,1.3676,,0,25,25,25,1,175,55,,,,,,,,
,,6175c8df7d130a584b8d9d5c,65af55a774eb1d0e84c24b1a,2024-01-23_08h09.40.138,bars,2023.2.3,Win32,59.99880002,657b66ea316d21385b68909f,,,,,,,,,,,997.2912,998.2858,,,998.7789,999.0153,,168,-12,,,,,,,,,,,,,,,,bars/035.png,bars/mask005.png,,,,,,,,,,,,8,1,,,,,,,10,8,10,8,,,,,,,,,,,998.2859,998.7788,999.0153,1003.4505,space,4.4147,,1003.4505,7,72,1004.4489,1004.4489,1006.6587,space,2.1727,,0,26,26,26,1,175,60,,,,,,,,
,,6175c8df7d130a584b8d9d5c,65af55a774eb1d0e84c24b1a,2024-01-23_08h09.40.138,bars,2023.2.3,Win32,59.99880002,657b66ea316d21385b68909f,,,,,,,,,,,1006.6595,1007.6662,,,1008.1571,1008.4133,,172,172,,,,,,,,,,,,,,,,bars/037.png,bars/mask008.png,,,,,,,,,,,,3,1,,,,,,,10,10,10,10,,,,,,,,,,,1007.6662,1008.157,1008.4134,1011.9968,space,3.5636,,1011.9969,22,67,1012.9957,1012.9957,1015.6484,space,2.6149,,0,27,27,27,1,150,105,,,,,,,,
,,6175c8df7d130a584b8d9d5c,65af55a774eb1d0e84c24b1a,2024-01-23_08h09.40.138,bars,2023.2.3,Win32,59.99880002,657b66ea316d21385b68909f,,,,,,,,,,,1015.6489,1016.6546,,,1017.1638,1017.4019,,157,157,,,,,,,,,,,,,,,,bars/027.png,bars/mask009.png,,,,,,,,,,,,0,1,,,,,,,10,8,10,8,,,,,,,,,,,1016.6546,1017.1638,1017.4019,1021.8806,space,4.4575,,1021.8806,47,73,1022.8802,1022.8803,1024.5413,space,1.6237,,0,28,28,28,1,110,50,,,,,,,,
,,6175c8df7d130a584b8d9d5c,65af55a774eb1d0e84c24b1a,2024-01-23_08h09.40.138,bars,2023.2.3,Win32,59.99880002,657b66ea316d21385b68909f,,,,,,,,,,,1024.5419,1025.5469,,,1026.0336,1026.2799,,119,119,,,,,,,,,,,,,,,,bars/034.png,bars/mask000.png,,,,,,,,,,,,6,1,,,,,,,8,10,8,10,,,,,,,,,,,1025.547,1026.0335,1026.28,1030.4749,space,4.1759,,1030.475,6,54,1031.4806,1031.4807,1033.4989,space,1.9793,,0,29,29,29,1,125,65,,,,,,,,
,,6175c8df7d130a584b8d9d5c,65af55a774eb1d0e84c24b1a,2024-01-23_08h09.40.138,bars,2023.2.3,Win32,59.99880002,657b66ea316d21385b68909f,,,,,,,,,,,1033.5001,1034.4886,,,1034.9948,1035.2402,,137,137,,,,,,,,,,,,,,,,bars/025.png,bars/mask007.png,,,,,,,,,,,,0,1,,,,,,,6,10,7,10,,,,,,,,,,,1034.4886,1034.9948,1035.2403,1038.2321,space,2.9723,,1038.2322,32,83,1039.2152,1039.2153,1040.6093,space,1.3539,,0,30,30,30,1,105,40,,,,,,,,
,,6175c8df7d130a584b8d9d5c,65af55a774eb1d0e84c24b1a,2024-01-23_08h09.40.138,bars,2023.2.3,Win32,59.99880002,657b66ea316d21385b68909f,,,,,,,,,,,1040.61,1041.5985,,,1042.1033,1042.3581,,123,123,,,,,,,,,,,,,,,,bars/011.png,bars/mask009.png,,,,,,,,,,,,0,1,,,,,,,4,10,3,10,,,,,,,,,,,1041.5985,1042.1032,1042.3581,1045.8311,space,3.4522,,1045.8312,37,38,1046.8296,1046.8297,1048.6963,space,1.828,,0,31,31,31,1,160,85,,,,,,,,
,,6175c8df7d130a584b8d9d5c,65af55a774eb1d0e84c24b1a,2024-01-23_08h09.40.138,bars,2023.2.3,Win32,59.99880002,657b66ea316d21385b68909f,,,,,,,,,,,1048.697,1049.6842,,,1050.1762,1050.4149,,140,-40,,,,,,,,,,,,,,,,bars/004.png,bars/mask006.png,,,,,,,,,,,,5,2,,,,,,,6,10,7,10,,,,,,,,,,,1049.6843,1050.1761,1050.415,1055.8369,space,5.4023,,1055.8369,65,15,1056.8356,1056.8357,1058.5925,space,1.7171,,0,32,32,32,1,25,125,,,,,,,,
,,6175c8df7d130a584b8d9d5c,65af55a774eb1d0e84c24b1a,2024-01-23_08h09.40.138,bars,2023.2.3,Win32,59.99880002,657b66ea316d21385b68909f,,,,,,,,,,,1058.5937,1059.6154,,,1060.1095,1060.3594,,32,32,,,,,,,,,,,,,,,,bars/039.png,bars/mask003.png,,,,,,,,,,,,0,1,,,,,,,4,10,3,9,,,,,,,,,,,1059.6155,1060.1095,1060.3594,1066.4938,space,6.1116,,1066.4938,37,73,1067.4995,1067.4996,1068.7679,space,1.2259,,0,33,33,33,1,175,105,,,,,,,,
,,6175c8df7d130a584b8d9d5c,65af55a774eb1d0e84c24b1a,2024-01-23_08h09.40.138,bars,2023.2.3,Win32,59.99880002,657b66ea316d21385b68909f,,,,,,,,,,,1068.769,1069.7551,,,1070.2432,1070.4918,,167,-13,,,,,,,,,,,,,,,,bars/036.png,bars/mask000.png,,,,,,,,,,,,2,1,,,,,,,6,8,8,8,,,,,,,,,,,1069.7552,1070.2431,1070.4919,1076.4016,space,5.8854,,1076.4016,22,33,1077.3875,1077.3876,1078.9349,space,1.5095,,0,34,34,34,1,145,20,,,,,,,,
,,6175c8df7d130a584b8d9d5c,65af55a774eb1d0e84c24b1a,2024-01-23_08h09.40.138,bars,2023.2.3,Win32,59.99880002,657b66ea316d21385b68909f,,,,,,,,,,,1078.9353,1079.9291,,,1080.8979,1080.8997,,170,170,,,,,,,,,,,,,,,,bars/026.png,bars/mask004.png,,,,,,,,,,,,0,1,,,,,,,4,6,4,6,,,,,,,,,,,1079.9293,1080.8979,1080.8998,1085.1634,space,4.246,,1085.1635,45,85,1086.1531,1086.1531,1088.2925,space,2.1015,,0,35,35,35,1,35,85,,,,,,,,
,,6175c8df7d130a584b8d9d5c,65af55a774eb1d0e84c24b1a,2024-01-23_08h09.40.138,bars,2023.2.3,Win32,59.99880002,657b66ea316d21385b68909f,,,,,,,,,,,1088.2934,1089.3099,,,1089.804,1090.0521,,38,38,,,,,,,,,,,,,,,,bars/003.png,bars/mask003.png,,,,,,,,,,,,1,1,,,,,,,2,4,1,4,,,,,,,,,,,1089.3099,1089.8039,1090.0522,1097.5527,space,7.4812,,1097.5528,13,78,1098.551,1098.5511,1099.9126,space,1.3114,,0,36,36,36,1,25,140,,,,,,,,
,,6175c8df7d130a584b8d9d5c,65af55a774eb1d0e84c24b1a,2024-01-23_08h09.40.138,bars,2023.2.3,Win32,59.99880002,657b66ea316d21385b68909f,,,,,,,,,,,1099.913,1100.8937,,,1101.3886,1101.6221,,32,32,,,,,,,,,,,,,,,,bars/041.png,bars/mask003.png,,,,,,,,,,,,1,1,,,,,,,0,2,1,0,,,,,,,,,,,1100.8937,1101.3886,1101.6222,1104.7506,space,3.1055,,1104.7508,12,53,1105.7273,1105.7275,1107.9393,space,2.1743,,0,37,37,37,1,20,85,,,,,,,,
,,6175c8df7d130a584b8d9d5c,65af55a774eb1d0e84c24b1a,2024-01-23_08h09.40.138,bars,2023.2.3,Win32,59.99880002,657b66ea316d21385b68909f,,,,,,,,,,,1107.9398,1108.9302,,,1109.4194,1109.6748,,29,29,,,,,,,,,,,,,,,,bars/041.png,bars/mask005.png,,,,,,,,,,,,1,1,,,,,,,2,0,2,1,,,,,,,,,,,1108.9302,1109.4194,1109.6748,1113.886,space,4.1894,,1113.8862,9,56,1114.8853,1114.8854,1117.137,space,2.219,,0,38,38,38,1,20,85,,,,,,,,
,,6175c8df7d130a584b8d9d5c,65af55a774eb1d0e84c24b1a,2024-01-23_08h09.40.138,bars,2023.2.3,Win32,59.99880002,657b66ea316d21385b68909f,,,,,,,,,,,1117.1378,1118.1377,,,1118.6521,1118.8899,,30,30,,,,,,,,,,,,,,,,bars/032.png,bars/mask007.png,,,,,,,,,,,,1,2,,,,,,,4,2,5,2,,,,,,,,,,,1118.1378,1118.6521,1118.89,1127.8564,space,8.9452,,1127.8565,85,10,1128.8698,1128.8699,1130.3577,space,1.4451,,0,39,39,39,1,125,20,,,,,,,,
,,6175c8df7d130a584b8d9d5c,65af55a774eb1d0e84c24b1a,2024-01-23_08h09.40.138,bars,2023.2.3,Win32,59.99880002,657b66ea316d21385b68909f,,,,,,,,,,,1130.3587,1131.3559,,,1131.8599,1132.1071,,149,149,,,,,,,,,,,,,,,,bars/001.png,bars/mask000.png,,,,,,,,,,,,3,1,,,,,,,6,0,7,1,,,,,,,,,,,1131.3561,1131.8598,1132.1073,1140.7011,space,8.5721,,1140.7015,19,64,1141.6978,1141.6979,1144.1285,space,2.3819,,0,40,40,40,1,130,85,,,,,,,,
,,6175c8df7d130a584b8d9d5c,65af55a774eb1d0e84c24b1a,2024-01-23_08h09.40.138,bars,2023.2.3,Win32,59.99880002,657b66ea316d21385b68909f,,,,,,,,,,,1144.1299,1145.1334,,,1145.6406,1145.8742,,149,149,,,,,,,,,,,,,,,,bars/020.png,bars/mask007.png,,,,,,,,,,,,1,2,,,,,,,4,2,4,2,,,,,,,,,,,1145.1334,1145.6406,1145.8743,1152.0482,space,6.1528,,1152.0484,34,21,1153.0409,1153.041,1159.539,space,6.4534,,0,41,41,41,1,115,170,,,,,,,,
,,6175c8df7d130a584b8d9d5c,65af55a774eb1d0e84c24b1a,2024-01-23_08h09.40.138,bars,2023.2.3,Win32,59.99880002,657b66ea316d21385b68909f,,,,,,,,,,,1159.5574,1160.5555,,,1161.0426,1161.2886,,133,133,,,,,,,,,,,,,,,,bars/028.png,bars/mask003.png,,,,,,,,,,,,2,2,,,,,,,2,4,1,3,,,,,,,,,,,1160.5555,1161.0426,1161.2887,1163.6906,space,2.3823,,1163.6906,88,13,1164.6906,1164.6906,1166.5843,space,1.8536,,0,42,42,42,1,45,120,,,,,,,,
,,6175c8df7d130a584b8d9d5c,65af55a774eb1d0e84c24b1a,2024-01-23_08h09.40.138,bars,2023.2.3,Win32,59.99880002,657b66ea316d21385b68909f,,,,,,,,,,,1166.5851,1167.5608,,,1168.0488,1168.3051,,47,47,,,,,,,,,,,,,,,,bars/049.png,bars/mask000.png,,,,,,,,,,,,0,1,,,,,,,0,2,1,1,,,,,,,,,,,1167.5609,1168.0487,1168.3052,1171.715,space,3.3895,,1171.715,67,68,1172.7169,1172.7169,1174.0403,space,1.2814,,0,43,43,43,1,160,115,,,,,,,,
,,6175c8df7d130a584b8d9d5c,65af55a774eb1d0e84c24b1a,2024-01-23_08h09.40.138,bars,2023.2.3,Win32,59.99880002,657b66ea316d21385b68909f,,,,,,,,,,,1174.0407,1175.0436,,,1175.5425,1175.7927,,144,144,,,,,,,,,,,,,,,,bars/015.png,bars/mask000.png,,,,,,,,,,,,2,2,,,,,,,0,4,0,4,,,,,,,,,,,1175.0436,1175.5424,1175.7927,1181.1163,space,5.3025,,1181.1164,34,16,1182.1115,1182.1115,1184.4596,space,2.3097,,0,44,44,44,1,110,160,,,,,,,,
,,6175c8df7d130a584b8d9d5c,65af55a774eb1d0e84c24b1a,2024-01-23_08h09.40.138,bars,2023.2.3,Win32,59.99880002,657b66ea316d21385b68909f,,,,,,,,,,,1184.4606,1185.4436,,,1185.9265,1186.1647,,161,161,,,,,,,,,,,,,,,,bars/014.png,bars/mask006.png,,,,,,,,,,,,3,2,,,,,,,0,6,0,9,,,,,,,,,,,1185.4436,1185.9264,1186.1647,1191.7255,space,5.5416,,1191.7255,81,19,1192.7269,1192.727,1194.283,space,1.5185,,0,45,45,45,1,80,0,,,,,,,,
,,6175c8df7d130a584b8d9d5c,65af55a774eb1d0e84c24b1a,2024-01-23_08h09.40.138,bars,2023.2.3,Win32,59.99880002,657b66ea316d21385b68909f,,,,,,,,,,,1194.2839,1195.2849,,,1195.7856,1196.0235,,3,183,,,,,,,,,,,,,,,,bars/024.png,bars/mask004.png,,,,,,,,,,,,2,2,,,,,,,2,4,2,3,,,,,,,,,,,1195.285,1195.7856,1196.0235,1200.3208,space,4.2777,,1200.3209,63,13,1201.3125,1201.3126,1204.0918,space,2.7431,,0,46,46,46,1,120,170,,,,,,,,
,,6175c8df7d130a584b8d9d5c,65af55a774eb1d0e84c24b1a,2024-01-23_08h09.40.138,bars,2023.2.3,Win32,59.99880002,657b66ea316d21385b68909f,,,,,,,,,,,1204.11,1205.1028,,,1205.5925,1205.8307,,165,165,,,,,,,,,,,,,,,,bars/047.png,bars/mask002.png,,,,,,,,,,,,0,1,,,,,,,0,2,1,2,,,,,,,,,,,1205.1029,1205.5924,1205.8308,1211.6038,space,5.7524,,1211.604,30,85,1212.6087,1212.6087,1213.9705,space,1.3184,,0,47,47,47,1,15,70,,,,,,,,
,,6175c8df7d130a584b8d9d5c,65af55a774eb1d0e84c24b1a,2024-01-23_08h09.40.138,bars,2023.2.3,Win32,59.99880002,657b66ea316d21385b68909f,,,,,,,,,,,1213.9715,1214.971,,,1215.4754,1215.6944,,47,47,,,,,,,,,,,,,,,,bars/000.png,bars/mask006.png,,,,,,,,,,,,2,1,,,,,,,0,4,2,5,,,,,,,,,,,1214.971,1215.4752,1215.6946,1218.3625,space,2.6463,,1218.3626,7,82,1219.3638,1219.3639,1221.2488,space,1.8456,,0,48,48,48,1,40,145,,,,,,,,
,,6175c8df7d130a584b8d9d5c,65af55a774eb1d0e84c24b1a,2024-01-23_08h09.40.138,bars,2023.2.3,Win32,59.99880002,657b66ea316d21385b68909f,,,,,,,,,,,1221.2499,1222.2438,,,1222.7323,1222.9925,,163,163,,,,,,,,,,,,,,,,bars/025.png,bars/mask008.png,,,,,,,,,,,,0,2,,,,,,,2,2,1,3,,,,,,,,,,,1222.2439,1222.7323,1222.9926,1226.4428,space,3.4297,,1226.4428,58,57,1227.445,1227.445,1229.4377,space,1.9535,,0,49,49,49,1,105,40,,,,,,,,
,,6175c8df7d130a584b8d9d5c,65af55a774eb1d0e84c24b1a,2024-01-23_08h09.40.138,bars,2023.2.3,Win32,59.99880002,657b66ea316d21385b68909f,,,,,,,,,,,,,,,,,,,,,,,,,,,,,,,,,,,,,,,,,,,,,,,,,,,,,,,,,,,,,,,,,,,,,,,,,,,,,,,,,,,,,,,,,,,,,1229.4395,1289.4335,0,0,0,1,1,sequence_tables/blk016.csv
,,6175c8df7d130a584b8d9d5c,65af55a774eb1d0e84c24b1a,2024-01-23_08h09.40.138,bars,2023.2.3,Win32,59.99880002,657b66ea316d21385b68909f,,,,,,,,,,,1295.9028,1296.8899,,,1297.3861,1297.6265,,59,59,,,,,,,,,,,,,,,,bars/041.png,bars/mask001.png,,,,,,,,,,,,0,2,,,,,,,4,2,4,1,,,,,,1289.4522,1295.8751,space,6.4075,,1296.89,1297.3861,1297.6267,1303.927,space,6.2805,,1303.9272,39,26,1304.9297,1304.9298,1304.9498,,,,0,0,0,0,1,20,85,,,,,,,,
,,6175c8df7d130a584b8d9d5c,65af55a774eb1d0e84c24b1a,2024-01-23_08h09.40.138,bars,2023.2.3,Win32,59.99880002,657b66ea316d21385b68909f,,,,,,,,,,,1304.9501,1305.9428,,,1306.4351,1306.6749,,89,89,,,,,,,,,,,,,,,,bars/029.png,bars/mask005.png,,,,,,,,,,,,3,1,,,,,,,2,4,3,3,,,,,,,,,,,1305.9428,1306.435,1306.675,1311.0599,space,4.3663,,1311.0601,1,44,1312.0663,1312.0664,1312.0858,,,,0,1,1,1,1,90,45,,,,,,,,
,,6175c8df7d130a584b8d9d5c,65af55a774eb1d0e84c24b1a,2024-01-23_08h09.40.138,bars,2023.2.3,Win32,59.99880002,657b66ea316d21385b68909f,,,,,,,,,,,1312.0862,1313.075,,,1313.5642,1313.8141,,148,148,,,,,,,,,,,,,,,,bars/031.png,bars/mask005.png,,,,,,,,,,,,0,1,,,,,,,0,6,0,6,,,,,,,,,,,1313.0751,1313.5642,1313.8142,1318.6604,space,4.8269,,1318.6604,28,67,1319.664,1319.6642,1319.6831,,,,0,2,2,2,1,120,35,,,,,,,,
,,6175c8df7d130a584b8d9d5c,65af55a774eb1d0e84c24b1a,2024-01-23_08h09.40.138,bars,2023.2.3,Win32,59.99880002,657b66ea316d21385b68909f,,,,,,,,,,,1319.6836,1320.6504,,,1321.1396,1321.3814,,23,203,,,,,,,,,,,,,,,,bars/035.png,bars/mask006.png,,,,,,,,,,,,0,1,,,,,,,2,4,0,5,,,,,,,,,,,1320.6505,1321.1396,1321.3815,1327.045,space,5.6436,,1327.045,28,37,1328.0509,1328.051,1328.0706,,,,0,3,3,3,1,175,60,,,,,,,,
,,6175c8df7d130a584b8d9d5c,65af55a774eb1d0e84c24b1a,2024-01-23_08h09.40.138,bars,2023.2.3,Win32,59.99880002,657b66ea316d21385b68909f,,,,,,,,,,,1328.071,1329.0613,,,1329.5595,1329.8149,,53,53,,,,,,,,,,,,,,,,bars/036.png,bars/mask005.png,,,,,,,,,,,,0,2,,,,,,,0,2,0,3,,,,,,,,,,,1329.0614,1329.5595,1329.815,1333.5667,space,3.7317,,1333.5668,88,33,1334.5667,1334.5668,1334.5885,,,,0,4,4,4,1,145,20,,,,,,,,
,,6175c8df7d130a584b8d9d5c,65af55a774eb1d0e84c24b1a,2024-01-23_08h09.40.138,bars,2023.2.3,Win32,59.99880002,657b66ea316d21385b68909f,,,,,,,,,,,1334.5889,1335.5855,,,1336.0765,1336.3183,,89,89,,,,,,,,,,,,,,,,bars/005.png,bars/mask008.png,,,,,,,,,,,,0,2,,,,,,,0,4,0,5,,,,,,,,,,,1335.5855,1336.0765,1336.3183,1340.7909,space,4.4523,,1340.7909,79,51,1341.7849,1341.785,1341.8029,,,,0,5,5,5,1,10,140,,,,,,,,
,,6175c8df7d130a584b8d9d5c,65af55a774eb1d0e84c24b1a,2024-01-23_08h09.40.138,bars,2023.2.3,Win32,59.99880002,657b66ea316d21385b68909f,,,,,,,,,,,1341.8033,1342.7941,,,1343.2703,1343.5217,,84,84,,,,,,,,,,,,,,,,bars/039.png,bars/mask008.png,,,,,,,,,,,,0,2,,,,,,,0,2,0,1,,,,,,,,,,,1342.7941,1343.2702,1343.5217,1344.3921,space,0.8491,,1344.3922,89,21,1345.3995,1345.3995,1345.4014,,,,0,6,6,6,1,175,105,,,,,,,,
,,6175c8df7d130a584b8d9d5c,65af55a774eb1d0e84c24b1a,2024-01-23_08h09.40.138,bars,2023.2.3,Win32,59.99880002,657b66ea316d21385b68909f,,,,,,,,,,,1345.4022,1346.4032,,,1346.8835,1347.1253,,134,134,,,,,,,,,,,,,,,,bars/037.png,bars/mask009.png,,,,,,,,,,,,0,1,,,,,,,0,0,1,1,,,,,,,,,,,1346.4032,1346.8835,1347.1253,1350.3081,space,3.1633,,1350.3082,16,29,1351.2889,1351.2889,1351.3085,,,,0,7,7,7,1,150,105,,,,,,,,
,,6175c8df7d130a584b8d9d5c,65af55a774eb1d0e84c24b1a,2024-01-23_08h09.40.138,bars,2023.2.3,Win32,59.99880002,657b66ea316d21385b68909f,,,,,,,,,,,1351.3089,1352.3,,,1352.7923,1353.0439,,49,49,,,,,,,,,,,,,,,,bars/049.png,bars/mask001.png,,,,,,,,,,,,0,2,,,,,,,0,2,0,2,,,,,,,,,,,1352.3,1352.7922,1353.044,1358.1886,space,5.1223,,1358.1887,69,66,1359.179,1359.1791,1359.2008,,,,0,8,8,8,1,160,115,,,,,,,,
,,6175c8df7d130a584b8d9d5c,65af55a774eb1d0e84c24b1a,2024-01-23_08h09.40.138,bars,2023.2.3,Win32,59.99880002,657b66ea316d21385b68909f,,,,,,,,,,,1359.2013,1360.1871,,,1360.686,1360.9235,,151,151,,,,,,,,,,,,,,,,bars/011.png,bars/mask003.png,,,,,,,,,,,,1,1,,,,,,,2,0,1,1,,,,,,,,,,,1360.1872,1360.686,1360.9235,1364.6687,space,3.7239,,1364.6687,9,66,1365.6593,1365.6593,1365.6798,,,,0,9,9,9,1,160,85,,,,,,,,
,,6175c8df7d130a584b8d9d5c,65af55a774eb1d0e84c24b1a,2024-01-23_08h09.40.138,bars,2023.2.3,Win32,59.99880002,657b66ea316d21385b68909f,,,,,,,,,,,1365.6801,1366.7003,,,1367.201,1367.4339,,171,-9,,,,,,,,,,,,,,,,bars/040.png,bars/mask003.png,,,,,,,,,,,,0,2,,,,,,,0,0,0,0,,,,,,,,,,,1366.7003,1367.201,1367.434,1373.3562,space,5.9028,,1373.3564,31,14,1374.3673,1374.3673,1374.388,,,,0,10,10,10,1,140,5,,,,,,,,
,,6175c8df7d130a584b8d9d5c,65af55a774eb1d0e84c24b1a,2024-01-23_08h09.40.138,bars,2023.2.3,Win32,59.99880002,657b66ea316d21385b68909f,,,,,,,,,,,1374.3884,1375.384,,,1375.8689,1376.1216,,70,70,,,,,,,,,,,,,,,,bars/033.png,bars/mask004.png,,,,,,,,,,,,0,1,,,,,,,2,2,3,3,,,,,,,,,,,1375.384,1375.8688,1376.1217,1379.036,space,2.8931,,1379.036,45,85,1380.0251,1380.0251,1380.0457,,,,0,11,11,11,1,25,155,,,,,,,,
,,6175c8df7d130a584b8d9d5c,65af55a774eb1d0e84c24b1a,2024-01-23_08h09.40.138,bars,2023.2.3,Win32,59.99880002,657b66ea316d21385b68909f,,,,,,,,,,,1380.0461,1381.0372,,,1381.5268,1381.7848,,154,154,,,,,,,,,,,,,,,,bars/019.png,bars/mask001.png,,,,,,,,,,,,0,2,,,,,,,0,0,0,0,,,,,,,,,,,1381.0373,1381.5267,1381.7849,1387.3138,space,5.5085,,1387.3139,71,49,1388.3177,1388.3177,1388.3386,,,,0,12,12,12,1,45,105,,,,,,,,
,,6175c8df7d130a584b8d9d5c,65af55a774eb1d0e84c24b1a,2024-01-23_08h09.40.138,bars,2023.2.3,Win32,59.99880002,657b66ea316d21385b68909f,,,,,,,,,,,1388.3389,1389.3398,,,1389.8225,1390.0854,,146,-34,,,,,,,,,,,,,,,,bars/019.png,bars/mask003.png,,,,,,,,,,,,0,2,,,,,,,0,2,0,0,,,,,,,,,,,1389.3398,1389.8224,1390.0854,1395.4459,space,5.3401,,1395.4459,79,41,1396.4228,1396.4228,1396.4412,,,,0,13,13,13,1,45,105,,,,,,,,
,,6175c8df7d130a584b8d9d5c,65af55a774eb1d0e84c24b1a,2024-01-23_08h09.40.138,bars,2023.2.3,Win32,59.99880002,657b66ea316d21385b68909f,,,,,,,,,,,1396.4414,1397.4222,,,1397.9192,1398.1689,,141,-39,,,,,,,,,,,,,,,,bars/019.png,bars/mask005.png,,,,,,,,,,,,0,2,,,,,,,0,4,0,4,,,,,,,,,,,1397.4223,1397.9192,1398.169,1402.5817,space,4.393,,1402.5817,84,36,1403.5827,1403.5828,1403.6032,,,,0,14,14,14,1,45,105,,,,,,,,
,,6175c8df7d130a584b8d9d5c,65af55a774eb1d0e84c24b1a,2024-01-23_08h09.40.138,bars,2023.2.3,Win32,59.99880002,657b66ea316d21385b68909f,,,,,,,,,,,1403.604,1404.6193,,,1405.1137,1405.3698,,52,52,,,,,,,,,,,,,,,,bars/005.png,bars/mask002.png,,,,,,,,,,,,0,1,,,,,,,2,2,3,2,,,,,,,,,,,1404.6193,1405.1136,1405.3698,1409.7207,space,4.3357,,1409.7207,42,88,1410.7209,1410.721,1410.7413,,,,0,15,15,15,1,10,140,,,,,,,,
,,6175c8df7d130a584b8d9d5c,65af55a774eb1d0e84c24b1a,2024-01-23_08h09.40.138,bars,2023.2.3,Win32,59.99880002,657b66ea316d21385b68909f,,,,,,,,,,,1410.7421,1411.7259,,,1412.2201,1412.469,,147,147,,,,,,,,,,,,,,,,bars/022.png,bars/mask007.png,,,,,,,,,,,,0,1,,,,,,,0,0,0,0,,,,,,,,,,,1411.726,1412.22,1412.4691,1420.1046,space,7.616,,1420.1046,52,53,1421.0922,1421.0922,1421.1125,,,,0,16,16,16,1,95,20,,,,,,,,
,,6175c8df7d130a584b8d9d5c,65af55a774eb1d0e84c24b1a,2024-01-23_08h09.40.138,bars,2023.2.3,Win32,59.99880002,657b66ea316d21385b68909f,,,,,,,,,,,1421.1128,1422.1161,,,1422.6079,1422.8549,,112,112,,,,,,,,,,,,,,,,bars/042.png,bars/mask003.png,,,,,,,,,,,,0,1,,,,,,,0,2,0,2,,,,,,,,,,,1422.1161,1422.6079,1422.8552,1426.192,space,3.3174,,1426.192,33,37,1427.1917,1427.1918,1427.2115,,,,0,17,17,17,1,145,75,,,,,,,,
,,6175c8df7d130a584b8d9d5c,65af55a774eb1d0e84c24b1a,2024-01-23_08h09.40.138,bars,2023.2.3,Win32,59.99880002,657b66ea316d21385b68909f,,,,,,,,,,,1427.2119,1428.2042,,,1428.6909,1428.9242,,115,115,,,,,,,,,,,,,,,,bars/008.png,bars/mask007.png,,,,,,,,,,,,0,1,,,,,,,0,4,0,2,,,,,,,,,,,1428.2042,1428.6908,1428.9242,1433.4473,space,4.5012,,1433.4473,5,65,1434.4378,1434.4379,1434.4561,,,,0,18,18,18,1,110,0,,,,,,,,
,,6175c8df7d130a584b8d9d5c,65af55a774eb1d0e84c24b1a,2024-01-23_08h09.40.138,bars,2023.2.3,Win32,59.99880002,657b66ea316d21385b68909f,,,,,,,,,,,1434.4565,1435.4502,,,1435.9435,1436.1879,,165,165,,,,,,,,,,,,,,,,bars/021.png,bars/mask005.png,,,,,,,,,,,,3,1,,,,,,,2,6,4,8,,,,,,,,,,,1435.4503,1435.9434,1436.1879,1439.8392,space,3.6313,,1439.8392,10,85,1440.8375,1440.8375,1440.8568,,,,0,19,19,19,1,155,70,,,,,,,,
,,6175c8df7d130a584b8d9d5c,65af55a774eb1d0e84c24b1a,2024-01-23_08h09.40.138,bars,2023.2.3,Win32,59.99880002,657b66ea316d21385b68909f,,,,,,,,,,,1440.8571,1441.852,,,1442.3555,1442.5923,,14,194,,,,,,,,,,,,,,,,bars/048.png,bars/mask009.png,,,,,,,,,,,,1,2,,,,,,,0,4,0,3,,,,,,,,,,,1441.852,1442.3555,1442.5923,1448.1201,space,5.5064,,1448.1202,36,19,1449.126,1449.1261,1449.1467,,,,0,20,20,20,1,50,175,,,,,,,,
,,6175c8df7d130a584b8d9d5c,65af55a774eb1d0e84c24b1a,2024-01-23_08h09.40.138,bars,2023.2.3,Win32,59.99880002,657b66ea316d21385b68909f,,,,,,,,,,,1449.1471,1450.1282,,,1450.6173,1450.8689,,149,-31,,,,,,,,,,,,,,,,bars/040.png,bars/mask006.png,,,,,,,,,,,,2,1,,,,,,,2,6,3,7,,,,,,,,,,,1450.1283,1450.6172,1450.8691,1455.9007,space,4.9956,,1455.9007,9,36,1456.8781,1456.8782,1456.8978,,,,0,21,21,21,1,140,5,,,,,,,,
,,6175c8df7d130a584b8d9d5c,65af55a774eb1d0e84c24b1a,2024-01-23_08h09.40.138,bars,2023.2.3,Win32,59.99880002,657b66ea316d21385b68909f,,,,,,,,,,,1456.8982,1457.8927,,,1458.3912,1458.6428,,149,149,,,,,,,,,,,,,,,,bars/007.png,bars/mask006.png,,,,,,,,,,,,0,1,,,,,,,0,8,0,9,,,,,,,,,,,1457.8927,1458.3912,1458.6428,1461.6074,space,2.9428,,1461.6074,26,86,1462.616,1462.616,1462.6358,,,,0,22,22,22,1,175,55,,,,,,,,
,,6175c8df7d130a584b8d9d5c,65af55a774eb1d0e84c24b1a,2024-01-23_08h09.40.138,bars,2023.2.3,Win32,59.99880002,657b66ea316d21385b68909f,,,,,,,,,,,1462.6361,1463.6406,,,1464.1321,1464.3736,,129,129,,,,,,,,,,,,,,,,bars/019.png,bars/mask008.png,,,,,,,,,,,,1,2,,,,,,,0,6,1,5,,,,,,,,,,,1463.6406,1464.1321,1464.3736,1471.1152,space,6.7219,,1471.1152,84,24,1472.1064,1472.1065,1472.1279,,,,0,23,23,23,1,45,105,,,,,,,,
,,6175c8df7d130a584b8d9d5c,65af55a774eb1d0e84c24b1a,2024-01-23_08h09.40.138,bars,2023.2.3,Win32,59.99880002,657b66ea316d21385b68909f,,,,,,,,,,,1472.1284,1473.1099,,,1473.6086,1473.8436,,164,164,,,,,,,,,,,,,,,,bars/008.png,bars/mask006.png,,,,,,,,,,,,4,2,,,,,,,2,8,2,9,,,,,,,,,,,1473.1099,1473.6086,1473.8436,1478.27,space,4.4055,,1478.2701,54,16,1479.2597,1479.2598,1479.2782,,,,0,24,24,24,1,110,0,,,,,,,,
,,6175c8df7d130a584b8d9d5c,65af55a774eb1d0e84c24b1a,2024-01-23_08h09.40.138,bars,2023.2.3,Win32,59.99880002,657b66ea316d21385b68909f,,,,,,,,,,,1479.2786,1480.2604,,,1480.7488,1481.0025,,40,220,,,,,,,,,,,,,,,,bars/040.png,bars/mask003.png,,,,,,,,,,,,0,2,,,,,,,0,10,1,10,,,,,,,,,,,1480.2604,1480.7488,1481.0025,1486.8489,space,5.8244,,1486.8489,80,35,1487.8529,1487.8529,1487.8711,,,,0,25,25,25,1,140,5,,,,,,,,
,,6175c8df7d130a584b8d9d5c,65af55a774eb1d0e84c24b1a,2024-01-23_08h09.40.138,bars,2023.2.3,Win32,59.99880002,657b66ea316d21385b68909f,,,,,,,,,,,1487.8715,1488.88,,,1489.3637,1489.6089,,122,122,,,,,,,,,,,,,,,,bars/035.png,bars/mask000.png,,,,,,,,,,,,0,1,,,,,,,2,8,3,9,,,,,,,,,,,1488.88,1489.3637,1489.609,1493.4951,space,3.8667,,1493.4952,53,62,1494.4809,1494.4809,1494.501,,,,0,26,26,26,1,175,60,,,,,,,,
,,6175c8df7d130a584b8d9d5c,65af55a774eb1d0e84c24b1a,2024-01-23_08h09.40.138,bars,2023.2.3,Win32,59.99880002,657b66ea316d21385b68909f,,,,,,,,,,,1494.5015,1495.4958,,,1495.9921,1496.2509,,49,49,,,,,,,,,,,,,,,,bars/044.png,bars/mask000.png,,,,,,,,,,,,0,1,,,,,,,0,10,0,10,,,,,,,,,,,1495.4958,1495.992,1496.2509,1502.0071,space,5.7367,,1502.0072,26,74,1503.0004,1503.0005,1503.0198,,,,0,27,27,27,1,75,155,,,,,,,,
,,6175c8df7d130a584b8d9d5c,65af55a774eb1d0e84c24b1a,2024-01-23_08h09.40.138,bars,2023.2.3,Win32,59.99880002,657b66ea316d21385b68909f,,,,,,,,,,,1503.0203,1504.0111,,,1504.5093,1504.7618,,57,57,,,,,,,,,,,,,,,,bars/041.png,bars/mask000.png,,,,,,,,,,,,1,2,,,,,,,0,10,0,10,,,,,,,,,,,1504.0111,1504.5092,1504.7619,1511.0166,space,6.2339,,1511.0166,37,28,1512.0126,1512.0127,1512.0354,,,,0,28,28,28,1,20,85,,,,,,,,
,,6175c8df7d130a584b8d9d5c,65af55a774eb1d0e84c24b1a,2024-01-23_08h09.40.138,bars,2023.2.3,Win32,59.99880002,657b66ea316d21385b68909f,,,,,,,,,,,1512.036,1513.0181,,,1513.4976,1513.7296,,74,254,,,,,,,,,,,,,,,,bars/033.png,bars/mask007.png,,,,,,,,,,,,0,1,,,,,,,0,10,1,10,,,,,,,,,,,1513.0181,1513.4975,1513.7297,1518.6936,space,4.9429,,1518.6937,49,81,1519.6801,1519.6801,1519.699,,,,0,29,29,29,1,25,155,,,,,,,,
,,6175c8df7d130a584b8d9d5c,65af55a774eb1d0e84c24b1a,2024-01-23_08h09.40.138,bars,2023.2.3,Win32,59.99880002,657b66ea316d21385b68909f,,,,,,,,,,,1519.6995,1520.701,,,1521.2089,1521.463,,29,209,,,,,,,,,,,,,,,,bars/049.png,bars/mask008.png,,,,,,,,,,,,0,1,,,,,,,2,8,2,6,,,,,,,,,,,1520.7011,1521.2088,1521.463,1526.1364,space,4.6528,,1526.1364,49,86,1527.1375,1527.1375,1527.1559,,,,0,30,30,30,1,160,115,,,,,,,,
,,6175c8df7d130a584b8d9d5c,65af55a774eb1d0e84c24b1a,2024-01-23_08h09.40.138,bars,2023.2.3,Win32,59.99880002,657b66ea316d21385b68909f,,,,,,,,,,,1527.1563,1528.1603,,,1528.6602,1528.9009,,61,-119,,,,,,,,,,,,,,,,bars/038.png,bars/mask001.png,,,,,,,,,,,,5,2,,,,,,,4,6,4,7,,,,,,,,,,,1528.1603,1528.6602,1528.901,1535.4727,space,6.5508,,1535.4728,76,9,1536.449,1536.449,1536.4716,,,,0,31,31,31,1,165,70,,,,,,,,
,,6175c8df7d130a584b8d9d5c,65af55a774eb1d0e84c24b1a,2024-01-23_08h09.40.138,bars,2023.2.3,Win32,59.99880002,657b66ea316d21385b68909f,,,,,,,,,,,1536.4719,1537.4501,,,1537.9317,1538.1775,,161,161,,,,,,,,,,,,,,,,bars/015.png,bars/mask008.png,,,,,,,,,,,,10,2,,,,,,,2,8,1,10,,,,,,,,,,,1537.4501,1537.9317,1538.1775,1541.8287,space,3.6313,,1541.8287,51,1,1542.8202,1542.8203,1542.8385,,,,0,32,32,32,1,110,160,,,,,,,,
,,6175c8df7d130a584b8d9d5c,65af55a774eb1d0e84c24b1a,2024-01-23_08h09.40.138,bars,2023.2.3,Win32,59.99880002,657b66ea316d21385b68909f,,,,,,,,,,,1542.8389,1543.8315,,,1544.3201,1544.5718,,62,62,,,,,,,,,,,,,,,,bars/021.png,bars/mask001.png,,,,,,,,,,,,6,2,,,,,,,0,10,1,8,,,,,,,,,,,1543.8315,1544.32,1544.5718,1548.7236,space,4.1295,,1548.7236,87,8,1549.7301,1549.7301,1549.7482,,,,0,33,33,33,1,155,70,,,,,,,,
,,6175c8df7d130a584b8d9d5c,65af55a774eb1d0e84c24b1a,2024-01-23_08h09.40.138,bars,2023.2.3,Win32,59.99880002,657b66ea316d21385b68909f,,,,,,,,,,,1549.7486,1550.7389,,,1551.2302,1551.482,,165,165,,,,,,,,,,,,,,,,bars/017.png,bars/mask006.png,,,,,,,,,,,,1,1,,,,,,,2,8,2,9,,,,,,,,,,,1550.7389,1551.2302,1551.482,1556.0431,space,4.5403,,1556.0433,20,60,1557.0311,1557.0312,1557.0514,,,,0,34,34,34,1,145,45,,,,,,,,
,,6175c8df7d130a584b8d9d5c,65af55a774eb1d0e84c24b1a,2024-01-23_08h09.40.138,bars,2023.2.3,Win32,59.99880002,657b66ea316d21385b68909f,,,,,,,,,,,1557.0518,1558.0573,,,1558.5621,1558.8142,,17,197,,,,,,,,,,,,,,,,bars/036.png,bars/mask005.png,,,,,,,,,,,,6,2,,,,,,,4,6,4,7,,,,,,,,,,,1558.0574,1558.562,1558.8142,1564.6833,space,5.8491,,1564.6833,52,3,1565.6657,1565.6658,1565.6872,,,,0,35,35,35,1,145,20,,,,,,,,
,,6175c8df7d130a584b8d9d5c,65af55a774eb1d0e84c24b1a,2024-01-23_08h09.40.138,bars,2023.2.3,Win32,59.99880002,657b66ea316d21385b68909f,,,,,,,,,,,1565.6877,1566.6788,,,1567.1735,1567.4298,,172,172,,,,,,,,,,,,,,,,bars/007.png,bars/mask000.png,,,,,,,,,,,,6,1,,,,,,,6,4,7,2,,,,,,,,,,,1566.6788,1567.1735,1567.4299,1573.0671,space,5.6177,,1573.0672,3,63,1574.0496,1574.0497,1574.0705,,,,0,36,36,36,1,175,55,,,,,,,,
,,6175c8df7d130a584b8d9d5c,65af55a774eb1d0e84c24b1a,2024-01-23_08h09.40.138,bars,2023.2.3,Win32,59.99880002,657b66ea316d21385b68909f,,,,,,,,,,,1574.071,1575.0499,,,1575.5165,1575.7518,,172,172,,,,,,,,,,,,,,,,bars/037.png,bars/mask006.png,,,,,,,,,,,,1,1,,,,,,,4,6,5,6,,,,,,,,,,,1575.0499,1575.5164,1575.7519,1580.9547,space,5.1753,,1580.9548,22,67,1581.9354,1581.9355,1581.9522,,,,0,37,37,37,1,150,105,,,,,,,,
,,6175c8df7d130a584b8d9d5c,65af55a774eb1d0e84c24b1a,2024-01-23_08h09.40.138,bars,2023.2.3,Win32,59.99880002,657b66ea316d21385b68909f,,,,,,,,,,,1581.9525,1582.9529,,,1583.449,1583.6967,,28,28,,,,,,,,,,,,,,,,bars/023.png,bars/mask007.png,,,,,,,,,,,,2,1,,,,,,,2,8,3,9,,,,,,,,,,,1582.953,1583.449,1583.6968,1588.2642,space,4.5479,,1588.2642,8,87,1589.2695,1589.2695,1589.2884,,,,0,38,38,38,1,20,115,,,,,,,,
,,6175c8df7d130a584b8d9d5c,65af55a774eb1d0e84c24b1a,2024-01-23_08h09.40.138,bars,2023.2.3,Win32,59.99880002,657b66ea316d21385b68909f,,,,,,,,,,,1589.2887,1590.2801,,,1590.7745,1591.0193,,167,-13,,,,,,,,,,,,,,,,bars/049.png,bars/mask006.png,,,,,,,,,,,,1,1,,,,,,,0,10,1,10,,,,,,,,,,,1590.2801,1590.7744,1591.0193,1595.8484,space,4.8078,,1595.8485,7,52,1596.8339,1596.834,1596.8514,,,,0,39,39,39,1,160,115,,,,,,,,
,,6175c8df7d130a584b8d9d5c,65af55a774eb1d0e84c24b1a,2024-01-23_08h09.40.138,bars,2023.2.3,Win32,59.99880002,657b66ea316d21385b68909f,,,,,,,,,,,1596.8517,1597.8492,,,1598.3535,1598.5849,,178,178,,,,,,,,,,,,,,,,bars/046.png,bars/mask008.png,,,,,,,,,,,,0,1,,,,,,,2,10,2,10,,,,,,,,,,,1597.8492,1598.3534,1598.5851,1604.6315,space,6.025,,1604.6315,23,87,1605.6226,1605.6227,1605.6409,,,,0,40,40,40,1,155,85,,,,,,,,
,,6175c8df7d130a584b8d9d5c,65af55a774eb1d0e84c24b1a,2024-01-23_08h09.40.138,bars,2023.2.3,Win32,59.99880002,657b66ea316d21385b68909f,,,,,,,,,,,1605.6415,1606.6478,,,1607.1404,1607.3847,,157,-23,,,,,,,,,,,,,,,,bars/041.png,bars/mask008.png,,,,,,,,,,,,0,1,,,,,,,4,8,3,6,,,,,,,,,,,1606.6478,1607.1404,1607.3847,1613.5762,space,6.171,,1613.5763,43,72,1614.5779,1614.5779,1614.596,,,,0,41,41,41,1,20,85,,,,,,,,
,,6175c8df7d130a584b8d9d5c,65af55a774eb1d0e84c24b1a,2024-01-23_08h09.40.138,bars,2023.2.3,Win32,59.99880002,657b66ea316d21385b68909f,,,,,,,,,,,1614.5973,1615.5857,,,1616.0881,1616.3387,,74,74,,,,,,,,,,,,,,,,bars/038.png,bars/mask006.png,,,,,,,,,,,,8,2,,,,,,,6,10,5,9,,,,,,,,,,,1615.5858,1616.088,1616.3388,1620.1345,space,3.7747,,1620.1347,89,4,1621.1371,1621.1372,1621.1568,,,,0,42,42,42,1,165,70,,,,,,,,
,,6175c8df7d130a584b8d9d5c,65af55a774eb1d0e84c24b1a,2024-01-23_08h09.40.138,bars,2023.2.3,Win32,59.99880002,657b66ea316d21385b68909f,,,,,,,,,,,1621.1573,1622.141,,,1622.6293,1622.8678,,124,304,,,,,,,,,,,,,,,,bars/023.png,bars/mask005.png,,,,,,,,,,,,6,2,,,,,,,4,10,5,9,,,,,,,,,,,1622.1411,1622.6293,1622.8678,1629.1231,space,6.2352,,1629.1231,76,9,1630.126,1630.1261,1630.1441,,,,0,43,43,43,1,20,115,,,,,,,,
,,6175c8df7d130a584b8d9d5c,65af55a774eb1d0e84c24b1a,2024-01-23_08h09.40.138,bars,2023.2.3,Win32,59.99880002,657b66ea316d21385b68909f,,,,,,,,,,,1630.1446,1631.1526,,,1631.6457,1631.8733,,53,233,,,,,,,,,,,,,,,,bars/044.png,bars/mask001.png,,,,,,,,,,,,1,1,,,,,,,2,10,3,10,,,,,,,,,,,1631.1526,1631.6456,1631.8733,1637.2672,space,5.3751,,1637.2673,22,78,1638.2672,1638.2673,1638.2878,,,,0,44,44,44,1,75,155,,,,,,,,
,,6175c8df7d130a584b8d9d5c,65af55a774eb1d0e84c24b1a,2024-01-23_08h09.40.138,bars,2023.2.3,Win32,59.99880002,657b66ea316d21385b68909f,,,,,,,,,,,1638.2881,1639.2698,,,1639.771,1640.0042,,155,155,,,,,,,,,,,,,,,,bars/047.png,bars/mask008.png,,,,,,,,,,,,0,1,,,,,,,0,10,0,10,,,,,,,,,,,1639.2698,1639.771,1640.0043,1644.4264,space,4.4006,,1644.4265,40,85,1645.4064,1645.4064,1645.425,,,,0,45,45,45,1,15,70,,,,,,,,
,,6175c8df7d130a584b8d9d5c,65af55a774eb1d0e84c24b1a,2024-01-23_08h09.40.138,bars,2023.2.3,Win32,59.99880002,657b66ea316d21385b68909f,,,,,,,,,,,1645.4254,1646.4196,,,1646.9109,1647.1496,,124,-56,,,,,,,,,,,,,,,,bars/041.png,bars/mask009.png,,,,,,,,,,,,0,2,,,,,,,0,10,1,10,,,,,,,,,,,1646.4197,1646.9108,1647.1497,1653.3012,space,6.1312,,1653.3012,76,39,1654.3065,1654.3066,1654.3253,,,,0,46,46,46,1,20,85,,,,,,,,
,,6175c8df7d130a584b8d9d5c,65af55a774eb1d0e84c24b1a,2024-01-23_08h09.40.138,bars,2023.2.3,Win32,59.99880002,657b66ea316d21385b68909f,,,,,,,,,,,1654.326,1655.3052,,,1655.808,1656.0569,,126,126,,,,,,,,,,,,,,,,bars/019.png,bars/mask002.png,,,,,,,,,,,,3,2,,,,,,,0,10,3,10,,,,,,,,,,,1655.3053,1655.808,1656.0569,1660.1252,space,4.0414,,1660.1253,81,21,1661.1062,1661.1062,1661.1245,,,,0,47,47,47,1,45,105,,,,,,,,
,,6175c8df7d130a584b8d9d5c,65af55a774eb1d0e84c24b1a,2024-01-23_08h09.40.138,bars,2023.2.3,Win32,59.99880002,657b66ea316d21385b68909f,,,,,,,,,,,1661.1248,1662.1177,,,1662.6174,1662.8547,,158,158,,,,,,,,,,,,,,,,bars/007.png,bars/mask007.png,,,,,,,,,,,,0,1,,,,,,,0,10,0,10,,,,,,,,,,,1662.1178,1662.6174,1662.8547,1667.5138,space,4.6377,,1667.5139,17,77,1668.5096,1668.5097,1668.5292,,,,0,48,48,48,1,175,55,,,,,,,,
,,6175c8df7d130a584b8d9d5c,65af55a774eb1d0e84c24b1a,2024-01-23_08h09.40.138,bars,2023.2.3,Win32,59.99880002,657b66ea316d21385b68909f,,,,,,,,,,,1668.5296,1669.5204,,,1670.0185,1670.2784,,168,168,,,,,,,,,,,,,,,,bars/030.png,bars/mask005.png,,,,,,,,,,,,0,1,,,,,,,2,8,1,8,,,,,,,,,,,1669.5204,1670.0184,1670.2784,1675.6571,space,5.3609,,1675.6571,28,77,1676.6581,1676.6581,1676.6766,,,,0,49,49,49,1,140,65,,,,,,,,
,,6175c8df7d130a584b8d9d5c,65af55a774eb1d0e84c24b1a,2024-01-23_08h09.40.138,bars,2023.2.3,Win32,59.99880002,657b66ea316d21385b68909f,,,,,,,,,,,,,,,,,,,,,,,,,,,,,,,,,,,,,,,,,,,,,,,,,,,,,,,,,,,,,,,,,,,,,,,,,,,,,,,,,,,,,,,,,,,,,1676.6769,1736.6748,0,1,1,3,1,sequence_tables/blk012.csv
,,6175c8df7d130a584b8d9d5c,65af55a774eb1d0e84c24b1a,2024-01-23_08h09.40.138,bars,2023.2.3,Win32,59.99880002,657b66ea316d21385b68909f,,,,,,,,,,,1739.452,1740.4516,,,1740.9453,1741.1798,,150,150,,,,,,,,,,,,,,,,bars/025.png,bars/mask008.png,,,,,,,,,,,,0,1,,,,,,,5,7,6,8,,,,,,1736.6941,1739.4403,space,2.7304,,1740.4516,1740.9453,1741.1798,1746.2072,space,5.0058,,1746.2073,45,70,1747.2113,1747.2113,1747.2315,,,,0,0,0,0,1,105,40,,,,,,,,
,,6175c8df7d130a584b8d9d5c,65af55a774eb1d0e84c24b1a,2024-01-23_08h09.40.138,bars,2023.2.3,Win32,59.99880002,657b66ea316d21385b68909f,,,,,,,,,,,1747.232,1748.21,,,1748.7086,1748.9565,,152,152,,,,,,,,,,,,,,,,bars/007.png,bars/mask000.png,,,,,,,,,,,,1,1,,,,,,,7,9,5,8,,,,,,,,,,,1748.2101,1748.7086,1748.9565,1754.6683,space,5.6922,,1754.6684,23,83,1755.6899,1755.6899,1755.7101,,,,0,1,1,1,1,175,55,,,,,,,,
,,6175c8df7d130a584b8d9d5c,65af55a774eb1d0e84c24b1a,2024-01-23_08h09.40.138,bars,2023.2.3,Win32,59.99880002,657b66ea316d21385b68909f,,,,,,,,,,,1755.7105,1756.7126,,,1757.2068,1757.4591,,2,182,,,,,,,,,,,,,,,,bars/010.png,bars/mask001.png,,,,,,,,,,,,2,1,,,,,,,5,10,4,10,,,,,,,,,,,1756.7128,1757.2068,1757.4592,1761.9051,space,4.4293,,1761.9053,17,53,1762.8933,1762.8933,1762.9118,,,,0,2,2,2,1,165,55,,,,,,,,
,,6175c8df7d130a584b8d9d5c,65af55a774eb1d0e84c24b1a,2024-01-23_08h09.40.138,bars,2023.2.3,Win32,59.99880002,657b66ea316d21385b68909f,,,,,,,,,,,1762.9122,1763.9022,,,1764.3907,1764.6445,,44,44,,,,,,,,,,,,,,,,bars/019.png,bars/mask006.png,,,,,,,,,,,,2,1,,,,,,,3,10,2,9,,,,,,,,,,,1763.9022,1764.3906,1764.6445,1765.2652,space,0.5998,,1765.2653,1,61,1766.2626,1766.2627,1766.2642,,,,0,3,3,3,1,45,105,,,,,,,,
,,6175c8df7d130a584b8d9d5c,65af55a774eb1d0e84c24b1a,2024-01-23_08h09.40.138,bars,2023.2.3,Win32,59.99880002,657b66ea316d21385b68909f,,,,,,,,,,,1766.2654,1767.2735,,,1767.7449,1767.9981,,53,53,,,,,,,,,,,,,,,,bars/039.png,bars/mask007.png,,,,,,,,,,,,0,2,,,,,,,1,10,0,10,,,,,,,,,,,1767.2735,1767.7449,1767.9981,1773.1632,space,5.1443,,1773.1633,58,52,1774.146,1774.1461,1774.1674,,,,0,4,4,4,1,175,105,,,,,,,,
,,6175c8df7d130a584b8d9d5c,65af55a774eb1d0e84c24b1a,2024-01-23_08h09.40.138,bars,2023.2.3,Win32,59.99880002,657b66ea316d21385b68909f,,,,,,,,,,,1774.1678,1775.1765,,,1775.6772,1775.9327,,32,32,,,,,,,,,,,,,,,,bars/049.png,bars/mask004.png,,,,,,,,,,,,0,1,,,,,,,0,10,1,10,,,,,,,,,,,1775.1765,1775.6771,1775.9327,1780.556,space,4.603,,1780.5561,52,83,1781.5496,1781.5496,1781.5695,,,,0,5,5,5,1,160,115,,,,,,,,
,,6175c8df7d130a584b8d9d5c,65af55a774eb1d0e84c24b1a,2024-01-23_08h09.40.138,bars,2023.2.3,Win32,59.99880002,657b66ea316d21385b68909f,,,,,,,,,,,1781.5702,1782.5756,,,1783.0658,1783.304,,146,146,,,,,,,,,,,,,,,,bars/032.png,bars/mask009.png,,,,,,,,,,,,0,1,,,,,,,2,8,1,10,,,,,,,,,,,1782.5756,1783.0657,1783.3041,1792.3953,space,9.0735,,1792.3955,21,54,1793.3894,1793.3895,1793.4109,,,,0,6,6,6,1,125,20,,,,,,,,
,,6175c8df7d130a584b8d9d5c,65af55a774eb1d0e84c24b1a,2024-01-23_08h09.40.138,bars,2023.2.3,Win32,59.99880002,657b66ea316d21385b68909f,,,,,,,,,,,1793.4113,1794.4258,,,1794.9132,1795.1651,,159,159,,,,,,,,,,,,,,,,bars/036.png,bars/mask004.png,,,,,,,,,,,,0,1,,,,,,,0,6,0,5,,,,,,,,,,,1794.4259,1794.9131,1795.1651,1800.7086,space,5.5205,,1800.7087,14,41,1801.7036,1801.7037,1801.7227,,,,0,7,7,7,1,145,20,,,,,,,,
,,6175c8df7d130a584b8d9d5c,65af55a774eb1d0e84c24b1a,2024-01-23_08h09.40.138,bars,2023.2.3,Win32,59.99880002,657b66ea316d21385b68909f,,,,,,,,,,,1801.7232,1802.7255,,,1803.2134,1803.468,,30,210,,,,,,,,,,,,,,,,bars/016.png,bars/mask009.png,,,,,,,,,,,,1,1,,,,,,,0,8,1,7,,,,,,,,,,,1802.7256,1803.2134,1803.468,1808.7622,space,5.2737,,1808.7623,10,45,1809.7627,1809.7627,1809.7807,,,,0,8,8,8,1,40,165,,,,,,,,
,,6175c8df7d130a584b8d9d5c,65af55a774eb1d0e84c24b1a,2024-01-23_08h09.40.138,bars,2023.2.3,Win32,59.99880002,657b66ea316d21385b68909f,,,,,,,,,,,1809.7811,1810.7797,,,1811.2795,1811.5139,,156,156,,,,,,,,,,,,,,,,bars/045.png,bars/mask003.png,,,,,,,,,,,,0,2,,,,,,,0,6,0,5,,,,,,,,,,,1810.7797,1811.2795,1811.5139,1817.1112,space,5.5761,,1817.1116,56,34,1818.1002,1818.1002,1818.1295,,,,0,9,9,9,1,100,10,,,,,,,,
,,6175c8df7d130a584b8d9d5c,65af55a774eb1d0e84c24b1a,2024-01-23_08h09.40.138,bars,2023.2.3,Win32,59.99880002,657b66ea316d21385b68909f,,,,,,,,,,,1818.1299,1819.1315,,,1819.6303,1819.8774,,28,208,,,,,,,,,,,,,,,,bars/003.png,bars/mask009.png,,,,,,,,,,,,1,1,,,,,,,0,8,1,8,,,,,,,,,,,1819.1315,1819.6303,1819.8775,1825.322,space,5.4254,,1825.3222,3,68,1826.3131,1826.3132,1826.3337,,,,0,10,10,10,1,25,140,,,,,,,,
,,6175c8df7d130a584b8d9d5c,65af55a774eb1d0e84c24b1a,2024-01-23_08h09.40.138,bars,2023.2.3,Win32,59.99880002,657b66ea316d21385b68909f,,,,,,,,,,,1826.3341,1827.3299,,,1827.8275,1828.0742,,169,169,,,,,,,,,,,,,,,,bars/013.png,bars/mask009.png,,,,,,,,,,,,3,2,,,,,,,0,10,0,10,,,,,,,,,,,1827.33,1827.8275,1828.0742,1833.1825,space,5.0868,,1833.1825,86,21,1834.1778,1834.1779,1834.1978,,,,0,11,11,11,1,75,10,,,,,,,,
,,6175c8df7d130a584b8d9d5c,65af55a774eb1d0e84c24b1a,2024-01-23_08h09.40.138,bars,2023.2.3,Win32,59.99880002,657b66ea316d21385b68909f,,,,,,,,,,,1834.1984,1835.1889,,,1835.6946,1835.9448,,61,61,,,,,,,,,,,,,,,,bars/023.png,bars/mask005.png,,,,,,,,,,,,0,1,,,,,,,0,8,0,8,,,,,,,,,,,1835.1889,1835.6945,1835.9448,1839.435,space,3.4709,,1839.435,41,54,1840.44,1840.44,1840.4593,,,,0,12,12,12,1,20,115,,,,,,,,
,,6175c8df7d130a584b8d9d5c,65af55a774eb1d0e84c24b1a,2024-01-23_08h09.40.138,bars,2023.2.3,Win32,59.99880002,657b66ea316d21385b68909f,,,,,,,,,,,1840.46,1841.4633,,,1841.9584,1842.2114,,165,165,,,,,,,,,,,,,,,,bars/023.png,bars/mask009.png,,,,,,,,,,,,0,1,,,,,,,2,6,2,5,,,,,,,,,,,1841.4635,1841.9584,1842.2115,1846.4441,space,4.2129,,1846.4442,35,50,1847.4403,1847.4403,1847.4593,,,,0,13,13,13,1,20,115,,,,,,,,
,,6175c8df7d130a584b8d9d5c,65af55a774eb1d0e84c24b1a,2024-01-23_08h09.40.138,bars,2023.2.3,Win32,59.99880002,657b66ea316d21385b68909f,,,,,,,,,,,1847.4601,1848.4524,,,1848.9408,1849.1668,,65,65,,,,,,,,,,,,,,,,bars/036.png,bars/mask009.png,,,,,,,,,,,,0,2,,,,,,,0,8,1,8,,,,,,,,,,,1848.4525,1848.9407,1849.1668,1853.857,space,4.6694,,1853.8571,80,45,1854.8569,1854.8569,1854.8769,,,,0,14,14,14,1,145,20,,,,,,,,
,,6175c8df7d130a584b8d9d5c,65af55a774eb1d0e84c24b1a,2024-01-23_08h09.40.138,bars,2023.2.3,Win32,59.99880002,657b66ea316d21385b68909f,,,,,,,,,,,1854.8778,1855.8724,,,1856.3742,1856.5996,,143,143,,,,,,,,,,,,,,,,bars/013.png,bars/mask002.png,,,,,,,,,,,,0,2,,,,,,,2,10,0,10,,,,,,,,,,,1855.8725,1856.3741,1856.5997,1863.4584,space,6.8374,,1863.4585,68,47,1864.4606,1864.4607,1864.4799,,,,0,15,15,15,1,75,10,,,,,,,,
,,6175c8df7d130a584b8d9d5c,65af55a774eb1d0e84c24b1a,2024-01-23_08h09.40.138,bars,2023.2.3,Win32,59.99880002,657b66ea316d21385b68909f,,,,,,,,,,,1864.4803,1865.4826,,,1865.9861,1866.2357,,152,152,,,,,,,,,,,,,,,,bars/012.png,bars/mask004.png,,,,,,,,,,,,0,2,,,,,,,4,10,2,10,,,,,,,,,,,1865.4827,1865.986,1866.2358,1874.4271,space,8.1705,,1874.4273,62,43,1875.4267,1875.4269,1875.4472,,,,0,16,16,16,1,90,15,,,,,,,,
,,6175c8df7d130a584b8d9d5c,65af55a774eb1d0e84c24b1a,2024-01-23_08h09.40.138,bars,2023.2.3,Win32,59.99880002,657b66ea316d21385b68909f,,,,,,,,,,,1875.4477,1876.4495,,,1876.9478,1877.1886,,32,212,,,,,,,,,,,,,,,,bars/037.png,bars/mask001.png,,,,,,,,,,,,0,1,,,,,,,2,8,2,9,,,,,,,,,,,1876.4495,1876.9476,1877.1887,1887.0941,space,9.8849,,1887.0941,62,73,1888.0884,1888.0884,1888.1089,,,,0,17,17,17,1,150,105,,,,,,,,
,,6175c8df7d130a584b8d9d5c,65af55a774eb1d0e84c24b1a,2024-01-23_08h09.40.138,bars,2023.2.3,Win32,59.99880002,657b66ea316d21385b68909f,,,,,,,,,,,1888.1093,1889.115,,,1889.6204,1889.8555,,42,222,,,,,,,,,,,,,,,,bars/037.png,bars/mask004.png,,,,,,,,,,,,0,2,,,,,,,0,6,0,7,,,,,,,,,,,1889.115,1889.6204,1889.8556,1897.1497,space,7.2724,,1897.1498,72,63,1898.1522,1898.1522,1898.173,,,,0,18,18,18,1,150,105,,,,,,,,
,,6175c8df7d130a584b8d9d5c,65af55a774eb1d0e84c24b1a,2024-01-23_08h09.40.138,bars,2023.2.3,Win32,59.99880002,657b66ea316d21385b68909f,,,,,,,,,,,1898.1741,1899.1785,,,1899.6673,1899.9027,,79,79,,,,,,,,,,,,,,,,bars/046.png,bars/mask009.png,,,,,,,,,,,,2,2,,,,,,,0,4,2,3,,,,,,,,,,,1899.1785,1899.6672,1899.903,1903.319,space,3.3944,,1903.3191,76,6,1904.3101,1904.3102,1904.3282,,,,0,19,19,19,1,155,85,,,,,,,,
,,6175c8df7d130a584b8d9d5c,65af55a774eb1d0e84c24b1a,2024-01-23_08h09.40.138,bars,2023.2.3,Win32,59.99880002,657b66ea316d21385b68909f,,,,,,,,,,,1904.3285,1905.3355,,,1905.8267,1906.0657,,142,142,,,,,,,,,,,,,,,,bars/019.png,bars/mask005.png,,,,,,,,,,,,0,2,,,,,,,2,2,1,1,,,,,,,,,,,1905.3355,1905.8267,1906.0658,1910.053,space,3.968,,1910.0531,83,37,1911.0661,1911.0663,1911.0841,,,,0,20,20,20,1,45,105,,,,,,,,
,,6175c8df7d130a584b8d9d5c,65af55a774eb1d0e84c24b1a,2024-01-23_08h09.40.138,bars,2023.2.3,Win32,59.99880002,657b66ea316d21385b68909f,,,,,,,,,,,1911.0845,1912.0745,,,1912.5662,1912.8111,,49,229,,,,,,,,,,,,,,,,bars/027.png,bars/mask006.png,,,,,,,,,,,,0,2,,,,,,,4,0,4,0,,,,,,,,,,,1912.0746,1912.5661,1912.8112,1918.3744,space,5.5421,,1918.3744,61,1,1919.3685,1919.3685,1919.3867,,,,0,21,21,21,1,110,50,,,,,,,,
,,6175c8df7d130a584b8d9d5c,65af55a774eb1d0e84c24b1a,2024-01-23_08h09.40.138,bars,2023.2.3,Win32,59.99880002,657b66ea316d21385b68909f,,,,,,,,,,,1919.3875,1920.3752,,,1920.855,1921.1002,,72,72,,,,,,,,,,,,,,,,bars/035.png,bars/mask009.png,,,,,,,,,,,,0,2,,,,,,,2,0,3,0,,,,,,,,,,,1920.3754,1920.855,1921.1002,1925.7141,space,4.5939,,1925.7146,77,12,1926.7199,1926.7199,1926.738,,,,0,22,22,22,1,175,60,,,,,,,,
,,6175c8df7d130a584b8d9d5c,65af55a774eb1d0e84c24b1a,2024-01-23_08h09.40.138,bars,2023.2.3,Win32,59.99880002,657b66ea316d21385b68909f,,,,,,,,,,,1926.7384,1927.7448,,,1928.2435,1928.4837,,157,157,,,,,,,,,,,,,,,,bars/013.png,bars/mask008.png,,,,,,,,,,,,0,2,,,,,,,0,0,1,0,,,,,,,,,,,1927.7449,1928.2434,1928.4837,1933.0236,space,4.5199,,1933.0236,82,33,1934.0195,1934.0196,1934.038,,,,0,23,23,23,1,75,10,,,,,,,,
,,6175c8df7d130a584b8d9d5c,65af55a774eb1d0e84c24b1a,2024-01-23_08h09.40.138,bars,2023.2.3,Win32,59.99880002,657b66ea316d21385b68909f,,,,,,,,,,,1934.0384,1935.0348,,,1935.5177,1935.7677,,172,172,,,,,,,,,,,,,,,,bars/026.png,bars/mask009.png,,,,,,,,,,,,0,1,,,,,,,2,2,2,1,,,,,,,,,,,1935.0348,1935.5176,1935.7677,1942.3796,space,6.593,,1942.3797,43,87,1943.3677,1943.3678,1943.3897,,,,0,24,24,24,1,35,85,,,,,,,,
,,6175c8df7d130a584b8d9d5c,65af55a774eb1d0e84c24b1a,2024-01-23_08h09.40.138,bars,2023.2.3,Win32,59.99880002,657b66ea316d21385b68909f,,,,,,,,,,,1943.39,1944.3904,,,1944.8876,1945.1193,,170,170,,,,,,,,,,,,,,,,bars/006.png,bars/mask000.png,,,,,,,,,,,,0,1,,,,,,,0,0,0,0,,,,,,,,,,,1944.3904,1944.8875,1945.1193,1954.4948,space,9.3439,,1954.495,45,70,1955.499,1955.499,1955.5212,,,,0,25,25,25,1,35,100,,,,,,,,
,,6175c8df7d130a584b8d9d5c,65af55a774eb1d0e84c24b1a,2024-01-23_08h09.40.138,bars,2023.2.3,Win32,59.99880002,657b66ea316d21385b68909f,,,,,,,,,,,1955.5219,1956.5142,,,1957.002,1957.2426,,64,64,,,,,,,,,,,,,,,,bars/018.png,bars/mask002.png,,,,,,,,,,,,0,2,,,,,,,0,0,0,0,,,,,,,,,,,1956.5142,1957.0019,1957.2426,1961.284,space,4.0202,,1961.2841,86,26,1962.286,1962.2861,1962.305,,,,0,26,26,26,1,150,90,,,,,,,,
,,6175c8df7d130a584b8d9d5c,65af55a774eb1d0e84c24b1a,2024-01-23_08h09.40.138,bars,2023.2.3,Win32,59.99880002,657b66ea316d21385b68909f,,,,,,,,,,,1962.3053,1963.289,,,1963.7946,1964.0496,,162,162,,,,,,,,,,,,,,,,bars/009.png,bars/mask006.png,,,,,,,,,,,,0,1,,,,,,,2,0,2,1,,,,,,,,,,,1963.289,1963.7944,1964.0497,1968.7783,space,4.7066,,1968.7783,33,57,1969.7588,1969.759,1969.778,,,,0,27,27,27,1,15,105,,,,,,,,
,,6175c8df7d130a584b8d9d5c,65af55a774eb1d0e84c24b1a,2024-01-23_08h09.40.138,bars,2023.2.3,Win32,59.99880002,657b66ea316d21385b68909f,,,,,,,,,,,1969.7784,1970.7809,,,1971.2861,1971.5361,,36,36,,,,,,,,,,,,,,,,bars/016.png,bars/mask006.png,,,,,,,,,,,,2,1,,,,,,,0,2,2,2,,,,,,,,,,,1970.7809,1971.2861,1971.5361,1977.3569,space,5.8019,,1977.357,4,51,1978.3533,1978.3533,1978.374,,,,0,28,28,28,1,40,165,,,,,,,,
,,6175c8df7d130a584b8d9d5c,65af55a774eb1d0e84c24b1a,2024-01-23_08h09.40.138,bars,2023.2.3,Win32,59.99880002,657b66ea316d21385b68909f,,,,,,,,,,,1978.3744,1979.3733,,,1979.8574,1980.0994,,160,160,,,,,,,,,,,,,,,,bars/039.png,bars/mask007.png,,,,,,,,,,,,1,1,,,,,,,2,0,1,0,,,,,,,,,,,1979.3734,1979.8574,1980.0995,1984.35,space,4.229,,1984.35,15,55,1985.3501,1985.3501,1985.3708,,,,0,29,29,29,1,175,105,,,,,,,,
,,6175c8df7d130a584b8d9d5c,65af55a774eb1d0e84c24b1a,2024-01-23_08h09.40.138,bars,2023.2.3,Win32,59.99880002,657b66ea316d21385b68909f,,,,,,,,,,,1985.3713,1986.3593,,,1986.8454,1987.0739,,144,144,,,,,,,,,,,,,,,,bars/024.png,bars/mask006.png,,,,,,,,,,,,0,1,,,,,,,0,2,1,3,,,,,,,,,,,1986.3593,1986.8453,1987.0739,1993.3352,space,6.2405,,1993.3352,24,26,1994.3373,1994.3374,1994.3556,,,,0,30,30,30,1,120,170,,,,,,,,
,,6175c8df7d130a584b8d9d5c,65af55a774eb1d0e84c24b1a,2024-01-23_08h09.40.138,bars,2023.2.3,Win32,59.99880002,657b66ea316d21385b68909f,,,,,,,,,,,1994.3559,1995.3467,,,1995.8432,1996.1041,,48,48,,,,,,,,,,,,,,,,bars/035.png,bars/mask000.png,,,,,,,,,,,,1,2,,,,,,,0,0,0,1,,,,,,,,,,,1995.3467,1995.8431,1996.1042,2002.5557,space,6.4318,,2002.5557,53,12,2003.5157,2003.5158,2003.5392,,,,0,31,31,31,1,175,60,,,,,,,,
,,6175c8df7d130a584b8d9d5c,65af55a774eb1d0e84c24b1a,2024-01-23_08h09.40.138,bars,2023.2.3,Win32,59.99880002,657b66ea316d21385b68909f,,,,,,,,,,,2003.5399,2004.5305,,,2005.022,2005.2612,,26,26,,,,,,,,,,,,,,,,bars/012.png,bars/mask005.png,,,,,,,,,,,,1,2,,,,,,,2,2,2,2,,,,,,,,,,,2004.5306,2005.0219,2005.2612,2011.1913,space,5.9123,,2011.1913,64,11,2012.1898,2012.1898,2012.2086,,,,0,32,32,32,1,90,15,,,,,,,,
,,6175c8df7d130a584b8d9d5c,65af55a774eb1d0e84c24b1a,2024-01-23_08h09.40.138,bars,2023.2.3,Win32,59.99880002,657b66ea316d21385b68909f,,,,,,,,,,,2012.2089,2013.2168,,,2013.7163,2013.9553,,148,148,,,,,,,,,,,,,,,,bars/004.png,bars/mask003.png,,,,,,,,,,,,1,2,,,,,,,4,4,4,6,,,,,,,,,,,2013.2169,2013.7162,2013.9553,2019.6511,space,5.6752,,2019.6511,57,23,2020.639,2020.639,2020.658,,,,0,33,33,33,1,25,125,,,,,,,,
,,6175c8df7d130a584b8d9d5c,65af55a774eb1d0e84c24b1a,2024-01-23_08h09.40.138,bars,2023.2.3,Win32,59.99880002,657b66ea316d21385b68909f,,,,,,,,,,,2020.6583,2021.6538,,,2022.1565,2022.4231,,168,168,,,,,,,,,,,,,,,,bars/025.png,bars/mask006.png,,,,,,,,,,,,0,2,,,,,,,6,2,7,2,,,,,,,,,,,2021.6538,2022.1565,2022.4231,2029.213,space,6.7704,,2029.2131,63,52,2030.2118,2030.2119,2030.2308,,,,0,34,34,34,1,105,40,,,,,,,,
,,6175c8df7d130a584b8d9d5c,65af55a774eb1d0e84c24b1a,2024-01-23_08h09.40.138,bars,2023.2.3,Win32,59.99880002,657b66ea316d21385b68909f,,,,,,,,,,,2030.2312,2031.2134,,,2031.7234,2031.965,,148,148,,,,,,,,,,,,,,,,bars/035.png,bars/mask002.png,,,,,,,,,,,,0,1,,,,,,,4,4,4,4,,,,,,,,,,,2031.2135,2031.7234,2031.965,2043.7774,space,11.7945,,2043.7775,27,88,2044.7612,2044.7613,2044.7822,,,,0,35,35,35,1,175,60,,,,,,,,
,,6175c8df7d130a584b8d9d5c,65af55a774eb1d0e84c24b1a,2024-01-23_08h09.40.138,bars,2023.2.3,Win32,59.99880002,657b66ea316d21385b68909f,,,,,,,,,,,2044.7827,2045.7899,,,2046.2841,2046.5084,,40,40,,,,,,,,,,,,,,,,bars/012.png,bars/mask009.png,,,,,,,,,,,,1,2,,,,,,,2,6,3,5,,,,,,,,,,,2045.79,2046.2841,2046.5086,2055.7605,space,9.2196,,2055.7605,50,25,2056.7595,2056.7596,2056.78,,,,0,36,36,36,1,90,15,,,,,,,,
,,6175c8df7d130a584b8d9d5c,65af55a774eb1d0e84c24b1a,2024-01-23_08h09.40.138,bars,2023.2.3,Win32,59.99880002,657b66ea316d21385b68909f,,,,,,,,,,,2056.7804,2057.774,,,2058.2658,2058.5079,,162,162,,,,,,,,,,,,,,,,bars/026.png,bars/mask000.png,,,,,,,,,,,,0,1,,,,,,,4,8,4,7,,,,,,,,,,,2057.7742,2058.2658,2058.5079,2064.9711,space,6.4438,,2064.9711,53,77,2065.9613,2065.9614,2065.9818,,,,0,37,37,37,1,35,85,,,,,,,,
,,6175c8df7d130a584b8d9d5c,65af55a774eb1d0e84c24b1a,2024-01-23_08h09.40.138,bars,2023.2.3,Win32,59.99880002,657b66ea316d21385b68909f,,,,,,,,,,,2065.9822,2066.9866,,,2067.4623,2067.6954,,21,21,,,,,,,,,,,,,,,,bars/033.png,bars/mask006.png,,,,,,,,,,,,6,1,,,,,,,6,10,7,10,,,,,,,,,,,2066.9866,2067.4623,2067.6955,2074.61,space,6.8932,,2074.6101,4,46,2075.611,2075.6111,2075.6298,,,,0,38,38,38,1,25,155,,,,,,,,
,,6175c8df7d130a584b8d9d5c,65af55a774eb1d0e84c24b1a,2024-01-23_08h09.40.138,bars,2023.2.3,Win32,59.99880002,657b66ea316d21385b68909f,,,,,,,,,,,2075.6303,2076.6221,,,2077.1432,2077.3797,,5,5,,,,,,,,,,,,,,,,bars/015.png,bars/mask005.png,,,,,,,,,,,,1,2,,,,,,,8,8,8,8,,,,,,,,,,,2076.6221,2077.1431,2077.3797,2081.1308,space,3.7306,,2081.1308,75,25,2082.1362,2082.1362,2082.1563,,,,0,39,39,39,1,110,160,,,,,,,,
,,6175c8df7d130a584b8d9d5c,65af55a774eb1d0e84c24b1a,2024-01-23_08h09.40.138,bars,2023.2.3,Win32,59.99880002,657b66ea316d21385b68909f,,,,,,,,,,,2082.1567,2083.1562,,,2083.6532,2083.9089,,6,186,,,,,,,,,,,,,,,,bars/023.png,bars/mask006.png,,,,,,,,,,,,5,1,,,,,,,10,6,10,5,,,,,,,,,,,2083.1564,2083.6531,2083.909,2087.5947,space,3.6668,,2087.5948,14,71,2088.5822,2088.5823,2088.6016,,,,0,40,40,40,1,20,115,,,,,,,,
,,6175c8df7d130a584b8d9d5c,65af55a774eb1d0e84c24b1a,2024-01-23_08h09.40.138,bars,2023.2.3,Win32,59.99880002,657b66ea316d21385b68909f,,,,,,,,,,,2088.6019,2089.5793,,,2090.0771,2090.3111,,124,124,,,,,,,,,,,,,,,,bars/005.png,bars/mask003.png,,,,,,,,,,,,3,2,,,,,,,8,8,7,7,,,,,,,,,,,2089.5793,2090.077,2090.3112,2093.6059,space,3.2628,,2093.6062,66,16,2094.6019,2094.6019,2094.6211,,,,0,41,41,41,1,10,140,,,,,,,,
,,6175c8df7d130a584b8d9d5c,65af55a774eb1d0e84c24b1a,2024-01-23_08h09.40.138,bars,2023.2.3,Win32,59.99880002,657b66ea316d21385b68909f,,,,,,,,,,,2094.6215,2095.6191,,,2096.127,2096.364,,129,129,,,,,,,,,,,,,,,,bars/016.png,bars/mask002.png,,,,,,,,,,,,0,2,,,,,,,10,10,10,10,,,,,,,,,,,2095.6191,2096.127,2096.3641,2102.0309,space,5.6457,,2102.031,89,36,2103.031,2103.0311,2103.0496,,,,0,42,42,42,1,40,165,,,,,,,,
,,6175c8df7d130a584b8d9d5c,65af55a774eb1d0e84c24b1a,2024-01-23_08h09.40.138,bars,2023.2.3,Win32,59.99880002,657b66ea316d21385b68909f,,,,,,,,,,,2103.05,2104.04,,,2104.5474,2104.7834,,165,165,,,,,,,,,,,,,,,,bars/008.png,bars/mask005.png,,,,,,,,,,,,5,2,,,,,,,10,10,9,10,,,,,,,,,,,2104.04,2104.5474,2104.7834,2108.9786,space,4.1734,,2108.9787,55,15,2109.9797,2109.9797,2109.999,,,,0,43,43,43,1,110,0,,,,,,,,
,,6175c8df7d130a584b8d9d5c,65af55a774eb1d0e84c24b1a,2024-01-23_08h09.40.138,bars,2023.2.3,Win32,59.99880002,657b66ea316d21385b68909f,,,,,,,,,,,2109.9994,2110.9815,,,2111.4653,2111.7041,,125,-55,,,,,,,,,,,,,,,,bars/035.png,bars/mask000.png,,,,,,,,,,,,0,1,,,,,,,10,10,10,10,,,,,,,,,,,2110.9816,2111.4653,2111.7041,2116.4194,space,4.6969,,2116.4194,50,65,2117.4238,2117.4238,2117.4468,,,,0,44,44,44,1,175,60,,,,,,,,
,,6175c8df7d130a584b8d9d5c,65af55a774eb1d0e84c24b1a,2024-01-23_08h09.40.138,bars,2023.2.3,Win32,59.99880002,657b66ea316d21385b68909f,,,,,,,,,,,2117.4472,2118.4363,,,2118.931,2119.1676,,154,154,,,,,,,,,,,,,,,,bars/048.png,bars/mask006.png,,,,,,,,,,,,2,2,,,,,,,10,8,10,6,,,,,,,,,,,2118.4363,2118.9309,2119.1677,2125.7994,space,6.6107,,2125.7995,76,21,2126.7995,2126.7995,2126.8216,,,,0,45,45,45,1,50,175,,,,,,,,
,,6175c8df7d130a584b8d9d5c,65af55a774eb1d0e84c24b1a,2024-01-23_08h09.40.138,bars,2023.2.3,Win32,59.99880002,657b66ea316d21385b68909f,,,,,,,,,,,2126.822,2127.8293,,,2128.3155,2128.5654,,165,165,,,,,,,,,,,,,,,,bars/000.png,bars/mask001.png,,,,,,,,,,,,2,2,,,,,,,8,6,6,6,,,,,,,,,,,2127.8294,2128.3154,2128.5654,2134.2362,space,5.6445,,2134.2363,55,20,2135.2327,2135.2327,2135.2521,,,,0,46,46,46,1,40,145,,,,,,,,
,,6175c8df7d130a584b8d9d5c,65af55a774eb1d0e84c24b1a,2024-01-23_08h09.40.138,bars,2023.2.3,Win32,59.99880002,657b66ea316d21385b68909f,,,,,,,,,,,2135.2525,2136.2472,,,2136.7432,2136.9964,,31,31,,,,,,,,,,,,,,,,bars/005.png,bars/mask002.png,,,,,,,,,,,,3,1,,,,,,,10,4,10,4,,,,,,,,,,,2136.2473,2136.7432,2136.9964,2144.0032,space,6.9864,,2144.0032,21,71,2145.0049,2145.005,2145.0314,,,,0,47,47,47,1,10,140,,,,,,,,
,,6175c8df7d130a584b8d9d5c,65af55a774eb1d0e84c24b1a,2024-01-23_08h09.40.138,bars,2023.2.3,Win32,59.99880002,657b66ea316d21385b68909f,,,,,,,,,,,2145.0322,2146.0217,,,2146.513,2146.7503,,162,162,,,,,,,,,,,,,,,,bars/003.png,bars/mask006.png,,,,,,,,,,,,1,2,,,,,,,8,2,7,2,,,,,,,,,,,2146.0217,2146.513,2146.7504,2154.3987,space,7.6266,,2154.3988,43,22,2155.3963,2155.3964,2155.4182,,,,0,48,48,48,1,25,140,,,,,,,,
,,6175c8df7d130a584b8d9d5c,65af55a774eb1d0e84c24b1a,2024-01-23_08h09.40.138,bars,2023.2.3,Win32,59.99880002,657b66ea316d21385b68909f,,,,,,,,,,,2155.4186,2156.3833,,,2156.8832,2157.1177,,36,36,,,,,,,,,,,,,,,,bars/024.png,bars/mask002.png,,,,,,,,,,,,0,2,,,,,,,10,0,10,0,,,,,,,,,,,2156.3833,2156.8831,2157.1177,2163.8521,space,6.7133,,2163.8521,84,46,2164.8511,2164.8511,2164.8706,,,,0,49,49,49,1,120,170,,,,,,,,
,,6175c8df7d130a584b8d9d5c,65af55a774eb1d0e84c24b1a,2024-01-23_08h09.40.138,bars,2023.2.3,Win32,59.99880002,657b66ea316d21385b68909f,,,,,,,,,,,,,,,,,,,,,,,,,,,,,,,,,,,,,,,,,,,,,,,,,,,,,,,,,,,,,,,,,,,,,,,,,,,,,,,,,,,,,,,,,,,,,2164.8708,2224.8846,0,2,2,4,1,sequence_tables/blk002.csv
,,6175c8df7d130a584b8d9d5c,65af55a774eb1d0e84c24b1a,2024-01-23_08h09.40.138,bars,2023.2.3,Win32,59.99880002,657b66ea316d21385b68909f,,,,,,,,,,,2233.505,2234.4874,,,2234.9856,2235.2271,,150,150,,,,,,,,,,,,,,,,bars/032.png,bars/mask004.png,,,,,,,,,,,,1,1,,,,,,,9,8,9,9,,,,,,2224.9033,2233.4753,space,8.5553,,2234.4875,2234.9856,2235.2271,2241.3033,space,6.0572,,2241.3034,25,50,2242.2714,2242.2715,2242.2921,,,,0,0,0,0,1,125,20,,,,,,,,
,,6175c8df7d130a584b8d9d5c,65af55a774eb1d0e84c24b1a,2024-01-23_08h09.40.138,bars,2023.2.3,Win32,59.99880002,657b66ea316d21385b68909f,,,,,,,,,,,2242.2926,2243.2804,,,2243.7895,2244.0483,,73,73,,,,,,,,,,,,,,,,bars/049.png,bars/mask000.png,,,,,,,,,,,,0,2,,,,,,,7,10,7,10,,,,,,,,,,,2243.2804,2243.7892,2244.0484,2250.721,space,6.6534,,2250.7211,87,42,2251.7216,2251.7216,2251.7437,,,,0,1,1,1,1,160,115,,,,,,,,
,,6175c8df7d130a584b8d9d5c,65af55a774eb1d0e84c24b1a,2024-01-23_08h09.40.138,bars,2023.2.3,Win32,59.99880002,657b66ea316d21385b68909f,,,,,,,,,,,2251.7441,2252.7221,,,2253.2197,2253.4561,,154,154,,,,,,,,,,,,,,,,bars/020.png,bars/mask006.png,,,,,,,,,,,,5,2,,,,,,,9,10,9,10,,,,,,,,,,,2252.7222,2253.2197,2253.4562,2260.4013,space,6.9231,,2260.4014,39,16,2261.3937,2261.3938,2261.4133,,,,0,2,2,2,1,115,170,,,,,,,,
,,6175c8df7d130a584b8d9d5c,65af55a774eb1d0e84c24b1a,2024-01-23_08h09.40.138,bars,2023.2.3,Win32,59.99880002,657b66ea316d21385b68909f,,,,,,,,,,,2261.4138,2262.3903,,,2262.8894,2263.1406,,24,204,,,,,,,,,,,,,,,,bars/009.png,bars/mask006.png,,,,,,,,,,,,6,1,,,,,,,7,8,8,6,,,,,,,,,,,2262.3903,2262.8894,2263.1406,2268.0607,space,4.899,,2268.0608,9,81,2269.0506,2269.0506,2269.0721,,,,0,3,3,3,1,15,105,,,,,,,,
,,6175c8df7d130a584b8d9d5c,65af55a774eb1d0e84c24b1a,2024-01-23_08h09.40.138,bars,2023.2.3,Win32,59.99880002,657b66ea316d21385b68909f,,,,,,,,,,,2269.0726,2270.0765,,,2270.5589,2270.7956,,64,64,,,,,,,,,,,,,,,,bars/047.png,bars/mask003.png,,,,,,,,,,,,8,2,,,,,,,5,10,6,10,,,,,,,,,,,2270.0765,2270.5587,2270.7956,2274.5051,space,3.6887,,2274.5052,49,6,2275.5057,2275.5067,2275.5311,,,,0,4,4,4,1,15,70,,,,,,,,
,,6175c8df7d130a584b8d9d5c,65af55a774eb1d0e84c24b1a,2024-01-23_08h09.40.138,bars,2023.2.3,Win32,59.99880002,657b66ea316d21385b68909f,,,,,,,,,,,2275.5318,2276.5248,,,2277.0214,2277.2772,,38,218,,,,,,,,,,,,,,,,bars/020.png,bars/mask006.png,,,,,,,,,,,,0,2,,,,,,,7,8,7,8,,,,,,,,,,,2276.5248,2277.0213,2277.2772,2282.8867,space,5.5865,,2282.887,77,48,2283.885,2283.8851,2283.9056,,,,0,5,5,5,1,115,170,,,,,,,,
,,6175c8df7d130a584b8d9d5c,65af55a774eb1d0e84c24b1a,2024-01-23_08h09.40.138,bars,2023.2.3,Win32,59.99880002,657b66ea316d21385b68909f,,,,,,,,,,,2283.9062,2284.9005,,,2285.4084,2285.6592,,117,117,,,,,,,,,,,,,,,,bars/006.png,bars/mask007.png,,,,,,,,,,,,2,2,,,,,,,9,6,9,5,,,,,,,,,,,2284.9005,2285.4082,2285.6592,2290.6668,space,4.9866,,2290.6669,82,17,2291.6409,2291.6409,2291.6584,,,,0,6,6,6,1,35,100,,,,,,,,
,,6175c8df7d130a584b8d9d5c,65af55a774eb1d0e84c24b1a,2024-01-23_08h09.40.138,bars,2023.2.3,Win32,59.99880002,657b66ea316d21385b68909f,,,,,,,,,,,2291.6588,2292.6552,,,2293.1454,2293.4068,,65,65,,,,,,,,,,,,,,,,bars/031.png,bars/mask007.png,,,,,,,,,,,,0,2,,,,,,,7,4,7,2,,,,,,,,,,,2292.6552,2293.1452,2293.4068,2298.0884,space,4.6619,,2298.0886,55,30,2299.0854,2299.0855,2299.1039,,,,0,7,7,7,1,120,35,,,,,,,,
,,6175c8df7d130a584b8d9d5c,65af55a774eb1d0e84c24b1a,2024-01-23_08h09.40.138,bars,2023.2.3,Win32,59.99880002,657b66ea316d21385b68909f,,,,,,,,,,,2299.1049,2300.1062,,,2300.5816,2300.8256,,144,144,,,,,,,,,,,,,,,,bars/047.png,bars/mask000.png,,,,,,,,,,,,0,1,,,,,,,5,2,6,3,,,,,,,,,,,2300.1062,2300.5816,2300.8256,2304.7898,space,3.9421,,2304.7899,51,74,2305.7895,2305.7895,2305.8105,,,,0,8,8,8,1,15,70,,,,,,,,
,,6175c8df7d130a584b8d9d5c,65af55a774eb1d0e84c24b1a,2024-01-23_08h09.40.138,bars,2023.2.3,Win32,59.99880002,657b66ea316d21385b68909f,,,,,,,,,,,2305.8109,2306.8058,,,2307.3096,2307.5663,,89,89,,,,,,,,,,,,,,,,bars/039.png,bars/mask002.png,,,,,,,,,,,,2,2,,,,,,,7,4,8,4,,,,,,,,,,,2306.806,2307.3095,2307.5663,2311.5532,space,3.9647,,2311.5533,86,16,2312.5465,2312.5465,2312.5661,,,,0,9,9,9,1,175,105,,,,,,,,
,,6175c8df7d130a584b8d9d5c,65af55a774eb1d0e84c24b1a,2024-01-23_08h09.40.138,bars,2023.2.3,Win32,59.99880002,657b66ea316d21385b68909f,,,,,,,,,,,2312.5666,2313.5564,,,2314.0472,2314.2897,,58,238,,,,,,,,,,,,,,,,bars/046.png,bars/mask004.png,,,,,,,,,,,,0,2,,,,,,,9,2,10,2,,,,,,,,,,,2313.5564,2314.0472,2314.2898,2320.1107,space,5.8014,,2320.1107,83,27,2321.1068,2321.1069,2321.1262,,,,0,10,10,10,1,155,85,,,,,,,,
,,6175c8df7d130a584b8d9d5c,65af55a774eb1d0e84c24b1a,2024-01-23_08h09.40.138,bars,2023.2.3,Win32,59.99880002,657b66ea316d21385b68909f,,,,,,,,,,,2321.1266,2322.1291,,,2322.6124,2322.8596,,68,68,,,,,,,,,,,,,,,,bars/003.png,bars/mask009.png,,,,,,,,,,,,0,1,,,,,,,7,0,7,0,,,,,,,,,,,2322.1291,2322.6124,2322.8597,2327.9447,space,5.0645,,2327.9448,43,72,2328.9407,2328.9408,2328.9603,,,,0,11,11,11,1,25,140,,,,,,,,
,,6175c8df7d130a584b8d9d5c,65af55a774eb1d0e84c24b1a,2024-01-23_08h09.40.138,bars,2023.2.3,Win32,59.99880002,657b66ea316d21385b68909f,,,,,,,,,,,2328.9608,2329.958,,,2330.4501,2330.7079,,166,166,,,,,,,,,,,,,,,,bars/022.png,bars/mask008.png,,,,,,,,,,,,0,2,,,,,,,9,0,9,0,,,,,,,,,,,2329.958,2330.45,2330.7081,2335.6538,space,4.9261,,2335.6538,71,34,2336.6483,2336.6484,2336.6693,,,,0,12,12,12,1,95,20,,,,,,,,
,,6175c8df7d130a584b8d9d5c,65af55a774eb1d0e84c24b1a,2024-01-23_08h09.40.138,bars,2023.2.3,Win32,59.99880002,657b66ea316d21385b68909f,,,,,,,,,,,2336.6699,2337.6576,,,2338.1442,2338.3787,,21,21,,,,,,,,,,,,,,,,bars/037.png,bars/mask002.png,,,,,,,,,,,,0,1,,,,,,,10,0,10,2,,,,,,,,,,,2337.6576,2338.1442,2338.3787,2343.6628,space,5.2633,,2343.6629,51,84,2344.6534,2344.6535,2344.6746,,,,0,13,13,13,1,150,105,,,,,,,,
,,6175c8df7d130a584b8d9d5c,65af55a774eb1d0e84c24b1a,2024-01-23_08h09.40.138,bars,2023.2.3,Win32,59.99880002,657b66ea316d21385b68909f,,,,,,,,,,,2344.6751,2345.6771,,,2346.1669,2346.4109,,116,116,,,,,,,,,,,,,,,,bars/028.png,bars/mask005.png,,,,,,,,,,,,0,2,,,,,,,10,2,8,0,,,,,,,,,,,2345.6772,2346.1669,2346.4109,2350.9025,space,4.4698,,2350.9026,71,4,2351.9011,2351.9011,2351.9223,,,,0,14,14,14,1,45,120,,,,,,,,
,,6175c8df7d130a584b8d9d5c,65af55a774eb1d0e84c24b1a,2024-01-23_08h09.40.138,bars,2023.2.3,Win32,59.99880002,657b66ea316d21385b68909f,,,,,,,,,,,2351.9252,2352.9207,,,2353.4254,2353.6784,,18,18,,,,,,,,,,,,,,,,bars/018.png,bars/mask004.png,,,,,,,,,,,,0,1,,,,,,,8,4,8,4,,,,,,,,,,,2352.9207,2353.4252,2353.6784,2358.152,space,4.4534,,2358.152,48,72,2359.1425,2359.1425,2359.162,,,,0,15,15,15,1,150,90,,,,,,,,
,,6175c8df7d130a584b8d9d5c,65af55a774eb1d0e84c24b1a,2024-01-23_08h09.40.138,bars,2023.2.3,Win32,59.99880002,657b66ea316d21385b68909f,,,,,,,,,,,2359.1623,2360.1524,,,2360.6426,2360.8959,,120,-60,,,,,,,,,,,,,,,,bars/039.png,bars/mask002.png,,,,,,,,,,,,1,2,,,,,,,10,2,10,2,,,,,,,,,,,2360.1524,2360.6426,2360.896,2366.1552,space,5.2389,,2366.1552,55,15,2367.1454,2367.1455,2367.166,,,,0,16,16,16,1,175,105,,,,,,,,
,,6175c8df7d130a584b8d9d5c,65af55a774eb1d0e84c24b1a,2024-01-23_08h09.40.138,bars,2023.2.3,Win32,59.99880002,657b66ea316d21385b68909f,,,,,,,,,,,2367.1792,2368.1673,,,2368.6762,2368.9328,,169,169,,,,,,,,,,,,,,,,bars/021.png,bars/mask003.png,,,,,,,,,,,,4,1,,,,,,,8,0,8,1,,,,,,,,,,,2368.1673,2368.6762,2368.9328,2373.3433,space,4.3894,,2373.3434,14,81,2374.3129,2374.3129,2374.3326,,,,0,17,17,17,1,155,70,,,,,,,,
,,6175c8df7d130a584b8d9d5c,65af55a774eb1d0e84c24b1a,2024-01-23_08h09.40.138,bars,2023.2.3,Win32,59.99880002,657b66ea316d21385b68909f,,,,,,,,,,,2374.3331,2375.3268,,,2375.8204,2376.0492,,175,175,,,,,,,,,,,,,,,,bars/002.png,bars/mask002.png,,,,,,,,,,,,0,1,,,,,,,6,0,5,0,,,,,,,,,,,2375.3268,2375.8191,2376.0493,2381.7839,space,5.7137,,2381.784,45,90,2382.7603,2382.7607,2382.7806,,,,0,18,18,18,1,130,85,,,,,,,,
,,6175c8df7d130a584b8d9d5c,65af55a774eb1d0e84c24b1a,2024-01-23_08h09.40.138,bars,2023.2.3,Win32,59.99880002,657b66ea316d21385b68909f,,,,,,,,,,,2382.781,2383.7639,,,2384.2636,2384.5129,,173,173,,,,,,,,,,,,,,,,bars/000.png,bars/mask000.png,,,,,,,,,,,,0,2,,,,,,,8,0,9,0,,,,,,,,,,,2383.7639,2384.2636,2384.5129,2388.9691,space,4.4355,,2388.9692,47,28,2389.9736,2389.9736,2389.9945,,,,0,19,19,19,1,40,145,,,,,,,,
,,6175c8df7d130a584b8d9d5c,65af55a774eb1d0e84c24b1a,2024-01-23_08h09.40.138,bars,2023.2.3,Win32,59.99880002,657b66ea316d21385b68909f,,,,,,,,,,,2389.995,2390.985,,,2391.4895,2391.7444,,170,170,,,,,,,,,,,,,,,,bars/008.png,bars/mask002.png,,,,,,,,,,,,1,2,,,,,,,6,2,5,1,,,,,,,,,,,2390.9851,2391.4895,2391.7445,2398.2666,space,6.5027,,2398.2667,60,10,2399.2608,2399.2609,2399.2804,,,,0,20,20,20,1,110,0,,,,,,,,
,,6175c8df7d130a584b8d9d5c,65af55a774eb1d0e84c24b1a,2024-01-23_08h09.40.138,bars,2023.2.3,Win32,59.99880002,657b66ea316d21385b68909f,,,,,,,,,,,2399.2809,2400.2798,,,2400.767,2401.0056,,164,164,,,,,,,,,,,,,,,,bars/028.png,bars/mask001.png,,,,,,,,,,,,0,2,,,,,,,4,0,4,0,,,,,,,,,,,2400.2799,2400.7669,2401.0056,2407.459,space,6.4305,,2407.4591,61,44,2408.4536,2408.4537,2408.4734,,,,0,21,21,21,1,45,120,,,,,,,,
,,6175c8df7d130a584b8d9d5c,65af55a774eb1d0e84c24b1a,2024-01-23_08h09.40.138,bars,2023.2.3,Win32,59.99880002,657b66ea316d21385b68909f,,,,,,,,,,,2408.4737,2409.462,,,2409.9594,2410.21,,2,182,,,,,,,,,,,,,,,,bars/029.png,bars/mask000.png,,,,,,,,,,,,0,2,,,,,,,6,0,5,0,,,,,,,,,,,2409.462,2409.9593,2410.21,2416.0877,space,5.8566,,2416.0878,88,43,2417.0829,2417.083,2417.1018,,,,0,22,22,22,1,90,45,,,,,,,,
,,6175c8df7d130a584b8d9d5c,65af55a774eb1d0e84c24b1a,2024-01-23_08h09.40.138,bars,2023.2.3,Win32,59.99880002,657b66ea316d21385b68909f,,,,,,,,,,,2417.1022,2418.0972,,,2418.5976,2418.8375,,39,219,,,,,,,,,,,,,,,,bars/040.png,bars/mask009.png,,,,,,,,,,,,0,2,,,,,,,4,0,4,0,,,,,,,,,,,2418.0972,2418.5975,2418.8375,2423.6133,space,4.7545,,2423.6133,79,34,2424.6146,2424.6146,2424.6339,,,,0,23,23,23,1,140,5,,,,,,,,
,,6175c8df7d130a584b8d9d5c,65af55a774eb1d0e84c24b1a,2024-01-23_08h09.40.138,bars,2023.2.3,Win32,59.99880002,657b66ea316d21385b68909f,,,,,,,,,,,2424.6343,2425.6294,,,2426.1,2426.3332,,168,168,,,,,,,,,,,,,,,,bars/038.png,bars/mask008.png,,,,,,,,,,,,5,1,,,,,,,6,0,5,0,,,,,,,,,,,2425.6295,2426.0999,2426.3332,2431.3294,space,4.9729,,2431.3295,3,82,2432.3161,2432.3161,2432.3353,,,,0,24,24,24,1,165,70,,,,,,,,
,,6175c8df7d130a584b8d9d5c,65af55a774eb1d0e84c24b1a,2024-01-23_08h09.40.138,bars,2023.2.3,Win32,59.99880002,657b66ea316d21385b68909f,,,,,,,,,,,2432.3356,2433.3271,,,2433.8215,2434.0742,,178,178,,,,,,,,,,,,,,,,bars/038.png,bars/mask000.png,,,,,,,,,,,,4,1,,,,,,,8,2,7,2,,,,,,,,,,,2433.3272,2433.8214,2434.0743,2440.4991,space,6.4021,,2440.4992,13,72,2441.4999,2441.4999,2441.5181,,,,0,25,25,25,1,165,70,,,,,,,,
,,6175c8df7d130a584b8d9d5c,65af55a774eb1d0e84c24b1a,2024-01-23_08h09.40.138,bars,2023.2.3,Win32,59.99880002,657b66ea316d21385b68909f,,,,,,,,,,,2441.5184,2442.5102,,,2443.0166,2443.267,,22,22,,,,,,,,,,,,,,,,bars/028.png,bars/mask008.png,,,,,,,,,,,,2,1,,,,,,,10,4,10,4,,,,,,,,,,,2442.5103,2443.0165,2443.267,2448.932,space,5.6445,,2448.9321,23,82,2449.9311,2449.9311,2449.9501,,,,0,26,26,26,1,45,120,,,,,,,,
,,6175c8df7d130a584b8d9d5c,65af55a774eb1d0e84c24b1a,2024-01-23_08h09.40.138,bars,2023.2.3,Win32,59.99880002,657b66ea316d21385b68909f,,,,,,,,,,,2449.9505,2450.9534,,,2451.4351,2451.6811,,176,176,,,,,,,,,,,,,,,,bars/021.png,bars/mask003.png,,,,,,,,,,,,3,1,,,,,,,10,6,9,8,,,,,,,,,,,2450.9535,2451.4351,2451.6811,2456.7105,space,5.0103,,2456.7105,21,74,2457.7043,2457.7044,2457.7224,,,,0,27,27,27,1,155,70,,,,,,,,
,,6175c8df7d130a584b8d9d5c,65af55a774eb1d0e84c24b1a,2024-01-23_08h09.40.138,bars,2023.2.3,Win32,59.99880002,657b66ea316d21385b68909f,,,,,,,,,,,2457.7228,2458.717,,,2459.2057,2459.4447,,116,116,,,,,,,,,,,,,,,,bars/041.png,bars/mask009.png,,,,,,,,,,,,0,2,,,,,,,8,4,6,5,,,,,,,,,,,2458.717,2459.2056,2459.4447,2464.2329,space,4.7671,,2464.2329,84,31,2465.2266,2465.2266,2465.2461,,,,0,28,28,28,1,20,85,,,,,,,,
,,6175c8df7d130a584b8d9d5c,65af55a774eb1d0e84c24b1a,2024-01-23_08h09.40.138,bars,2023.2.3,Win32,59.99880002,657b66ea316d21385b68909f,,,,,,,,,,,2465.2471,2466.2525,,,2466.7485,2467.0014,,54,234,,,,,,,,,,,,,,,,bars/045.png,bars/mask005.png,,,,,,,,,,,,0,2,,,,,,,10,2,10,2,,,,,,,,,,,2466.2525,2466.7484,2467.0015,2473.0106,space,5.9894,,2473.0106,46,44,2473.9871,2473.9871,2474.0051,,,,0,29,29,29,1,100,10,,,,,,,,
,,6175c8df7d130a584b8d9d5c,65af55a774eb1d0e84c24b1a,2024-01-23_08h09.40.138,bars,2023.2.3,Win32,59.99880002,657b66ea316d21385b68909f,,,,,,,,,,,2474.0056,2474.9988,,,2475.5016,2475.7404,,177,177,,,,,,,,,,,,,,,,bars/031.png,bars/mask008.png,,,,,,,,,,,,0,2,,,,,,,10,0,10,0,,,,,,,,,,,2474.9989,2475.5015,2475.7404,2481.8635,space,6.1022,,2481.8636,57,38,2482.8637,2482.8637,2482.8832,,,,0,30,30,30,1,120,35,,,,,,,,
,,6175c8df7d130a584b8d9d5c,65af55a774eb1d0e84c24b1a,2024-01-23_08h09.40.138,bars,2023.2.3,Win32,59.99880002,657b66ea316d21385b68909f,,,,,,,,,,,2482.8836,2483.8744,,,2484.3539,2484.5941,,102,102,,,,,,,,,,,,,,,,bars/029.png,bars/mask009.png,,,,,,,,,,,,4,1,,,,,,,8,0,7,0,,,,,,,,,,,2483.8745,2484.3538,2484.5941,2489.4067,space,4.7906,,2489.4068,12,57,2490.3957,2490.3958,2490.4169,,,,0,31,31,31,1,90,45,,,,,,,,
,,6175c8df7d130a584b8d9d5c,65af55a774eb1d0e84c24b1a,2024-01-23_08h09.40.138,bars,2023.2.3,Win32,59.99880002,657b66ea316d21385b68909f,,,,,,,,,,,2490.4175,2491.4194,,,2491.9204,2492.1542,,49,229,,,,,,,,,,,,,,,,bars/039.png,bars/mask007.png,,,,,,,,,,,,0,1,,,,,,,6,2,6,4,,,,,,,,,,,2491.4195,2491.9203,2492.1543,2496.4445,space,4.2692,,2496.4447,54,56,2497.4217,2497.4217,2497.4393,,,,0,32,32,32,1,175,105,,,,,,,,
,,6175c8df7d130a584b8d9d5c,65af55a774eb1d0e84c24b1a,2024-01-23_08h09.40.138,bars,2023.2.3,Win32,59.99880002,657b66ea316d21385b68909f,,,,,,,,,,,2497.4396,2498.4232,,,2498.908,2499.1606,,0,0,,,,,,,,,,,,,,,,bars/040.png,bars/mask005.png,,,,,,,,,,,,4,2,,,,,,,4,4,5,5,,,,,,,,,,,2498.4233,2498.9079,2499.1606,2502.2736,space,3.0952,,2502.2736,40,5,2503.2702,2503.2703,2503.2896,,,,0,33,33,33,1,140,5,,,,,,,,
,,6175c8df7d130a584b8d9d5c,65af55a774eb1d0e84c24b1a,2024-01-23_08h09.40.138,bars,2023.2.3,Win32,59.99880002,657b66ea316d21385b68909f,,,,,,,,,,,2503.2901,2504.2785,,,2504.7674,2505.0151,,59,59,,,,,,,,,,,,,,,,bars/006.png,bars/mask005.png,,,,,,,,,,,,1,1,,,,,,,6,2,7,3,,,,,,,,,,,2504.2785,2504.7674,2505.0153,2507.8521,space,2.8208,,2507.8521,24,41,2508.8512,2508.8513,2508.8711,,,,0,34,34,34,1,35,100,,,,,,,,
,,6175c8df7d130a584b8d9d5c,65af55a774eb1d0e84c24b1a,2024-01-23_08h09.40.138,bars,2023.2.3,Win32,59.99880002,657b66ea316d21385b68909f,,,,,,,,,,,2508.8714,2509.8755,,,2510.3545,2510.5951,,13,193,,,,,,,,,,,,,,,,bars/028.png,bars/mask008.png,,,,,,,,,,,,0,1,,,,,,,4,0,3,0,,,,,,,,,,,2509.8756,2510.3544,2510.5952,2514.3611,space,3.7436,,2514.3611,32,73,2515.3492,2515.3493,2515.368,,,,0,35,35,35,1,45,120,,,,,,,,
,,6175c8df7d130a584b8d9d5c,65af55a774eb1d0e84c24b1a,2024-01-23_08h09.40.138,bars,2023.2.3,Win32,59.99880002,657b66ea316d21385b68909f,,,,,,,,,,,2515.3684,2516.3547,,,2516.8449,2517.0851,,99,99,,,,,,,,,,,,,,,,bars/004.png,bars/mask000.png,,,,,,,,,,,,0,2,,,,,,,6,0,6,1,,,,,,,,,,,2516.3547,2516.8449,2517.0852,2522.0755,space,4.9709,,2522.0756,74,26,2523.0853,2523.0854,2523.1047,,,,0,36,36,36,1,25,125,,,,,,,,
,,6175c8df7d130a584b8d9d5c,65af55a774eb1d0e84c24b1a,2024-01-23_08h09.40.138,bars,2023.2.3,Win32,59.99880002,657b66ea316d21385b68909f,,,,,,,,,,,2523.1051,2524.0937,,,2524.5857,2524.8398,,75,255,,,,,,,,,,,,,,,,bars/015.png,bars/mask001.png,,,,,,,,,,,,0,1,,,,,,,4,2,3,4,,,,,,,,,,,2524.0938,2524.5856,2524.8399,2529.3472,space,4.4859,,2529.3472,35,85,2530.3526,2530.3527,2530.3715,,,,0,37,37,37,1,110,160,,,,,,,,
,,6175c8df7d130a584b8d9d5c,65af55a774eb1d0e84c24b1a,2024-01-23_08h09.40.138,bars,2023.2.3,Win32,59.99880002,657b66ea316d21385b68909f,,,,,,,,,,,2530.372,2531.3601,,,2531.8419,2532.0731,,31,31,,,,,,,,,,,,,,,,bars/030.png,bars/mask008.png,,,,,,,,,,,,0,2,,,,,,,2,4,2,4,,,,,,,,,,,2531.3601,2531.8419,2532.0731,2536.9528,space,4.8579,,2536.9529,71,34,2537.9484,2537.9485,2537.9704,,,,0,38,38,38,1,140,65,,,,,,,,
,,6175c8df7d130a584b8d9d5c,65af55a774eb1d0e84c24b1a,2024-01-23_08h09.40.138,bars,2023.2.3,Win32,59.99880002,657b66ea316d21385b68909f,,,,,,,,,,,2537.9708,2538.9638,,,2539.4471,2539.6232,,154,154,,,,,,,,,,,,,,,,bars/023.png,bars/mask004.png,,,,,,,,,,,,0,2,,,,,,,0,2,0,2,,,,,,,,,,,2538.9638,2539.447,2539.6233,2544.4118,space,4.7667,,2544.4119,46,39,2545.4046,2545.4047,2545.4222,,,,0,39,39,39,1,20,115,,,,,,,,
,,6175c8df7d130a584b8d9d5c,65af55a774eb1d0e84c24b1a,2024-01-23_08h09.40.138,bars,2023.2.3,Win32,59.99880002,657b66ea316d21385b68909f,,,,,,,,,,,2545.4226,2546.424,,,2546.9225,2547.1617,,57,237,,,,,,,,,,,,,,,,bars/024.png,bars/mask002.png,,,,,,,,,,,,0,1,,,,,,,2,4,3,5,,,,,,,,,,,2546.4241,2546.9224,2547.1619,2552.7256,space,5.5454,,2552.7257,63,67,2553.7173,2553.7174,2553.7385,,,,0,40,40,40,1,120,170,,,,,,,,
,,6175c8df7d130a584b8d9d5c,65af55a774eb1d0e84c24b1a,2024-01-23_08h09.40.138,bars,2023.2.3,Win32,59.99880002,657b66ea316d21385b68909f,,,,,,,,,,,2553.7389,2554.7411,,,2555.2074,2555.4403,,167,-13,,,,,,,,,,,,,,,,bars/047.png,bars/mask008.png,,,,,,,,,,,,0,1,,,,,,,4,2,2,2,,,,,,,,,,,2554.7411,2555.2073,2555.4403,2558.6108,space,3.1495,,2558.6109,28,83,2559.6057,2559.6057,2559.6237,,,,0,41,41,41,1,15,70,,,,,,,,
,,6175c8df7d130a584b8d9d5c,65af55a774eb1d0e84c24b1a,2024-01-23_08h09.40.138,bars,2023.2.3,Win32,59.99880002,657b66ea316d21385b68909f,,,,,,,,,,,2559.6244,2560.6234,,,2561.1281,2561.3583,,112,112,,,,,,,,,,,,,,,,bars/020.png,bars/mask006.png,,,,,,,,,,,,5,1,,,,,,,6,0,5,0,,,,,,,,,,,2560.6234,2561.1281,2561.3583,2566.1805,space,4.8017,,2566.1805,3,58,2567.184,2567.1842,2567.2022,,,,0,42,42,42,1,115,170,,,,,,,,
,,6175c8df7d130a584b8d9d5c,65af55a774eb1d0e84c24b1a,2024-01-23_08h09.40.138,bars,2023.2.3,Win32,59.99880002,657b66ea316d21385b68909f,,,,,,,,,,,2567.2031,2568.1918,,,2568.6796,2568.9319,,30,30,,,,,,,,,,,,,,,,bars/045.png,bars/mask009.png,,,,,,,,,,,,0,2,,,,,,,8,0,8,0,,,,,,,,,,,2568.1918,2568.6795,2568.9319,2573.2838,space,4.3291,,2573.2839,70,20,2574.2792,2574.2793,2574.3017,,,,0,43,43,43,1,100,10,,,,,,,,
,,6175c8df7d130a584b8d9d5c,65af55a774eb1d0e84c24b1a,2024-01-23_08h09.40.138,bars,2023.2.3,Win32,59.99880002,657b66ea316d21385b68909f,,,,,,,,,,,2574.3021,2575.3052,,,2575.8126,2576.0609,,154,154,,,,,,,,,,,,,,,,bars/043.png,bars/mask007.png,,,,,,,,,,,,0,2,,,,,,,6,0,7,0,,,,,,,,,,,2575.3053,2575.8125,2576.061,2579.3735,space,3.2914,,2579.3735,56,24,2580.3618,2580.3618,2580.3789,,,,0,44,44,44,1,30,130,,,,,,,,
,,6175c8df7d130a584b8d9d5c,65af55a774eb1d0e84c24b1a,2024-01-23_08h09.40.138,bars,2023.2.3,Win32,59.99880002,657b66ea316d21385b68909f,,,,,,,,,,,2580.3795,2581.376,,,2581.8779,2582.1156,,172,172,,,,,,,,,,,,,,,,bars/041.png,bars/mask001.png,,,,,,,,,,,,1,1,,,,,,,8,0,9,0,,,,,,,,,,,2581.376,2581.8778,2582.1156,2588.6967,space,6.558,,2588.6968,28,87,2589.6755,2589.6759,2589.6968,,,,0,45,45,45,1,20,85,,,,,,,,
,,6175c8df7d130a584b8d9d5c,65af55a774eb1d0e84c24b1a,2024-01-23_08h09.40.138,bars,2023.2.3,Win32,59.99880002,657b66ea316d21385b68909f,,,,,,,,,,,2589.6973,2590.7061,,,2591.2123,2591.4611,,178,178,,,,,,,,,,,,,,,,bars/039.png,bars/mask001.png,,,,,,,,,,,,7,1,,,,,,,10,2,8,2,,,,,,,,,,,2590.7061,2591.2123,2591.4611,2597.7403,space,6.2512,,2597.7404,3,73,2598.7443,2598.7444,2598.7639,,,,0,46,46,46,1,175,105,,,,,,,,
,,6175c8df7d130a584b8d9d5c,65af55a774eb1d0e84c24b1a,2024-01-23_08h09.40.138,bars,2023.2.3,Win32,59.99880002,657b66ea316d21385b68909f,,,,,,,,,,,2598.7641,2599.7536,,,2600.2587,2600.5064,,160,160,,,,,,,,,,,,,,,,bars/005.png,bars/mask008.png,,,,,,,,,,,,1,2,,,,,,,8,4,7,4,,,,,,,,,,,2599.7537,2600.2586,2600.5065,2607.1943,space,6.6681,,2607.1944,30,20,2608.1932,2608.1933,2608.2132,,,,0,47,47,47,1,10,140,,,,,,,,
,,6175c8df7d130a584b8d9d5c,65af55a774eb1d0e84c24b1a,2024-01-23_08h09.40.138,bars,2023.2.3,Win32,59.99880002,657b66ea316d21385b68909f,,,,,,,,,,,2608.2136,2609.1946,,,2609.6767,2609.926,,2,182,,,,,,,,,,,,,,,,bars/023.png,bars/mask002.png,,,,,,,,,,,,2,1,,,,,,,6,6,5,5,,,,,,,,,,,2609.1946,2609.6766,2609.926,2614.9353,space,4.989,,2614.9354,18,67,2615.9417,2615.9418,2615.9609,,,,0,48,48,48,1,20,115,,,,,,,,
,,6175c8df7d130a584b8d9d5c,65af55a774eb1d0e84c24b1a,2024-01-23_08h09.40.138,bars,2023.2.3,Win32,59.99880002,657b66ea316d21385b68909f,,,,,,,,,,,2615.9613,2616.9511,,,2617.4311,2617.6624,,165,165,,,,,,,,,,,,,,,,bars/021.png,bars/mask005.png,,,,,,,,,,,,3,1,,,,,,,4,4,4,5,,,,,,,,,,,2616.9511,2617.431,2617.6624,2624.4875,space,6.8045,,2624.4876,10,85,2625.4755,2625.4756,2625.4954,,,,0,49,49,49,1,155,70,,,,,,,,
,,6175c8df7d130a584b8d9d5c,65af55a774eb1d0e84c24b1a,2024-01-23_08h09.40.138,bars,2023.2.3,Win32,59.99880002,657b66ea316d21385b68909f,,,,,,,,,,,,,,,,,,,,,,,,,,,,,,,,,,,,,,,,,,,,,,,,,,,,,,,,,,,,,,,,,,,,,,,,,,,,,,,,,,,,,,,,,,,,,2625.4958,2685.4863,0,3,3,2,1,sequence_tables/blk000.csv
,,6175c8df7d130a584b8d9d5c,65af55a774eb1d0e84c24b1a,2024-01-23_08h09.40.138,bars,2023.2.3,Win32,59.99880002,657b66ea316d21385b68909f,,,,,,,,,,,2693.2824,2694.1982,,,2694.6957,2694.932,,152,152,,,,,,,,,,,,,,,,bars/034.png,bars/mask002.png,,,,,,,,,,,,1,1,,,,,,,7,2,8,3,,,,,,2685.5055,2693.1812,space,7.625,,2694.1983,2694.6957,2694.9321,2699.333,space,4.3802,,2699.3331,27,87,2700.321,2700.3211,2700.3389,,,,0,0,0,0,1,125,65,,,,,,,,
,,6175c8df7d130a584b8d9d5c,65af55a774eb1d0e84c24b1a,2024-01-23_08h09.40.138,bars,2023.2.3,Win32,59.99880002,657b66ea316d21385b68909f,,,,,,,,,,,2700.3393,2701.3404,,,2701.8399,2702.0791,,67,67,,,,,,,,,,,,,,,,bars/033.png,bars/mask008.png,,,,,,,,,,,,0,1,,,,,,,9,4,8,5,,,,,,,,,,,2701.3405,2701.8399,2702.0791,2706.0727,space,3.9746,,2706.0727,42,88,2707.0804,2707.0805,2707.0987,,,,0,1,1,1,1,25,155,,,,,,,,
,,6175c8df7d130a584b8d9d5c,65af55a774eb1d0e84c24b1a,2024-01-23_08h09.40.138,bars,2023.2.3,Win32,59.99880002,657b66ea316d21385b68909f,,,,,,,,,,,2707.0993,2708.0901,,,2708.5832,2708.8214,,141,141,,,,,,,,,,,,,,,,bars/032.png,bars/mask009.png,,,,,,,,,,,,3,1,,,,,,,7,6,6,6,,,,,,,,,,,2708.0901,2708.5832,2708.8214,2714.5347,space,5.6887,,2714.5347,16,59,2715.5329,2715.5329,2715.5512,,,,0,2,2,2,1,125,20,,,,,,,,
,,6175c8df7d130a584b8d9d5c,65af55a774eb1d0e84c24b1a,2024-01-23_08h09.40.138,bars,2023.2.3,Win32,59.99880002,657b66ea316d21385b68909f,,,,,,,,,,,2715.5515,2716.5596,,,2717.05,2717.2893,,93,93,,,,,,,,,,,,,,,,bars/030.png,bars/mask004.png,,,,,,,,,,,,1,2,,,,,,,5,8,6,9,,,,,,,,,,,2716.5597,2717.0499,2717.2893,2720.7007,space,3.3922,,2720.7007,47,28,2721.6833,2721.6834,2721.7032,,,,0,3,3,3,1,140,65,,,,,,,,
,,6175c8df7d130a584b8d9d5c,65af55a774eb1d0e84c24b1a,2024-01-23_08h09.40.138,bars,2023.2.3,Win32,59.99880002,657b66ea316d21385b68909f,,,,,,,,,,,2721.7036,2722.7031,,,2723.2141,2723.4556,,6,186,,,,,,,,,,,,,,,,bars/012.png,bars/mask003.png,,,,,,,,,,,,4,2,,,,,,,3,6,2,6,,,,,,,,,,,2722.7031,2723.214,2723.4557,2726.988,space,3.5131,,2726.9882,84,9,2727.9904,2727.9904,2728.008,,,,0,4,4,4,1,90,15,,,,,,,,
,,6175c8df7d130a584b8d9d5c,65af55a774eb1d0e84c24b1a,2024-01-23_08h09.40.138,bars,2023.2.3,Win32,59.99880002,657b66ea316d21385b68909f,,,,,,,,,,,2728.0084,2729.0087,,,2729.5023,2729.7482,,99,99,,,,,,,,,,,,,,,,bars/015.png,bars/mask007.png,,,,,,,,,,,,3,1,,,,,,,5,4,4,5,,,,,,,,,,,2729.0087,2729.5023,2729.7483,2733.291,space,3.5229,,2733.291,11,61,2734.2688,2734.2689,2734.2935,,,,0,5,5,5,1,110,160,,,,,,,,
,,6175c8df7d130a584b8d9d5c,65af55a774eb1d0e84c24b1a,2024-01-23_08h09.40.138,bars,2023.2.3,Win32,59.99880002,657b66ea316d21385b68909f,,,,,,,,,,,2734.2939,2735.3153,,,2735.8025,2736.035,,118,118,,,,,,,,,,,,,,,,bars/012.png,bars/mask003.png,,,,,,,,,,,,0,1,,,,,,,3,2,3,3,,,,,,,,,,,2735.3153,2735.8018,2736.0351,2739.1613,space,3.1047,,2739.1616,28,77,2740.1494,2740.1494,2740.1683,,,,0,6,6,6,1,90,15,,,,,,,,
,,6175c8df7d130a584b8d9d5c,65af55a774eb1d0e84c24b1a,2024-01-23_08h09.40.138,bars,2023.2.3,Win32,59.99880002,657b66ea316d21385b68909f,,,,,,,,,,,2740.1687,2741.1527,,,2741.659,2741.9,,26,26,,,,,,,,,,,,,,,,bars/014.png,bars/mask006.png,,,,,,,,,,,,0,2,,,,,,,1,4,2,3,,,,,,,,,,,2741.1527,2741.659,2741.9001,2746.5695,space,4.6381,,2746.5695,54,26,2747.5685,2747.5685,2747.5889,,,,0,7,7,7,1,80,0,,,,,,,,
,,6175c8df7d130a584b8d9d5c,65af55a774eb1d0e84c24b1a,2024-01-23_08h09.40.138,bars,2023.2.3,Win32,59.99880002,657b66ea316d21385b68909f,,,,,,,,,,,2747.5894,2748.583,,,2749.0716,2749.3269,,100,100,,,,,,,,,,,,,,,,bars/035.png,bars/mask000.png,,,,,,,,,,,,0,2,,,,,,,0,2,0,3,,,,,,,,,,,2748.583,2749.0716,2749.327,2754.425,space,5.0764,,2754.4252,75,40,2755.4231,2755.4231,2755.4403,,,,0,8,8,8,1,175,60,,,,,,,,
,,6175c8df7d130a584b8d9d5c,65af55a774eb1d0e84c24b1a,2024-01-23_08h09.40.138,bars,2023.2.3,Win32,59.99880002,657b66ea316d21385b68909f,,,,,,,,,,,2755.441,2756.4325,,,2756.92,2757.17,,175,-5,,,,,,,,,,,,,,,,bars/021.png,bars/mask000.png,,,,,,,,,,,,0,1,,,,,,,0,4,0,5,,,,,,,,,,,2756.4326,2756.9199,2757.1701,2760.7703,space,3.579,,2760.7709,20,75,2761.7722,2761.7722,2761.7928,,,,0,9,9,9,1,155,70,,,,,,,,
,,6175c8df7d130a584b8d9d5c,65af55a774eb1d0e84c24b1a,2024-01-23_08h09.40.138,bars,2023.2.3,Win32,59.99880002,657b66ea316d21385b68909f,,,,,,,,,,,2761.7933,2762.77,,,2763.2618,2763.4877,,155,155,,,,,,,,,,,,,,,,bars/001.png,bars/mask001.png,,,,,,,,,,,,0,1,,,,,,,0,6,0,6,,,,,,,,,,,2762.7701,2763.2618,2763.4878,2769.4881,space,5.9798,,2769.4882,25,70,2770.4775,2770.4775,2770.4956,,,,0,10,10,10,1,130,85,,,,,,,,
