init_variables.started,init_variables.stopped,participant,session,date,expName,psychopyVersion,OS,frameRate,study_id,instruction_exp.started,instruction_exp.stopped,key_resp_8.keys,key_resp_8.rt,key_resp_8.duration,instruction_single.started,instruction_single.stopped,key_resp_2.keys,key_resp_2.rt,key_resp_2.duration,interval.started,interval.stopped,cue_single.started,cue_single.stopped,mask.started,mask.stopped,ori_response_single.started,res_ori,res,ori_response_single.stopped,key_resp_single.keys,key_resp_single.rt,key_resp_single.duration,disp_single.started,disp_single.stopped,key_resp.keys,key_resp.rt,key_resp.duration,single.thisRepN,single.thisTrialN,single.thisN,single.thisIndex,single.ran,ori,path,mask_path,instruction_bandit.started,instruction_bandit.stopped,key_resp_6.keys,key_resp_6.rt,key_resp_6.duration,cue_bandit.started,cue_bandit.stopped,bandit_res.keys,bandit_res.rt,bandit_res.duration,outcome_bandit.started,rew,action,outcome_bandit.stopped,bandit.thisRepN,bandit.thisTrialN,bandit.thisN,bandit.thisIndex,bandit.ran,actual_rew1,actual_rew2,rew1,rew2,instruction_task.started,instruction_task.stopped,key_resp_7.keys,key_resp_7.rt,key_resp_7.duration,wait_ready.started,wait_ready.stopped,key_resp_3.keys,key_resp_3.rt,key_resp_3.duration,cue.started,cue.stopped,ori_response.started,ori_response.stopped,key_resp_5.keys,key_resp_5.rt,key_resp_5.duration,outcome.started,diff1,diff2,outcome.stopped,disp_outcome_practice.started,disp_outcome_practice.stopped,key_resp_4.keys,key_resp_4.rt,key_resp_4.duration,trials.thisRepN,trials.thisTrialN,trials.thisN,trials.thisIndex,trials.ran,ori1,ori2,break_blk.started,break_blk.stopped,block.thisRepN,block.thisTrialN,block.thisN,block.thisIndex,block.ran,condition_file
0.0003,0.0005,6151ec9f471555755f408e15,65af52feba138c82e9dc71bd,2024-01-23_07h49.18.490,bars,2023.2.3,Win32,59.88023952,657b66ea316d21385b68909f,,,,,,,,,,,,,,,,,,,,,,,,,,,,,,,,,,,,,,,,,,,,,,,,,,,,,,,,,,,,,,,,,,,,,,,,,,,,,,,,,,,,,,,,,,,,,,,,,,,,
,,6151ec9f471555755f408e15,65af52feba138c82e9dc71bd,2024-01-23_07h49.18.490,bars,2023.2.3,Win32,59.88023952,657b66ea316d21385b68909f,0.0007,10.1456,y,10.1209,,,,,,,,,,,,,,,,,,,,,,,,,,,,,,,,,,,,,,,,,,,,,,,,,,,,,,,,,,,,,,,,,,,,,,,,,,,,,,,,,,,,,,,,,,,,,,,,
,,6151ec9f471555755f408e15,65af52feba138c82e9dc71bd,2024-01-23_07h49.18.490,bars,2023.2.3,Win32,59.88023952,657b66ea316d21385b68909f,,,,,,10.1459,22.3673,space,12.189,,,,,,,,,,,,,,,,,,,,,,,,,,,,,,,,,,,,,,,,,,,,,,,,,,,,,,,,,,,,,,,,,,,,,,,,,,,,,,,,,,,,,,,,,,,
,,6151ec9f471555755f408e15,65af52feba138c82e9dc71bd,2024-01-23_07h49.18.490,bars,2023.2.3,Win32,59.88023952,657b66ea316d21385b68909f,,,,,,,,,,,22.3735,23.3601,23.3604,23.8604,23.8605,24.1131,24.1132,90,90,37.2031,space,13.0446,,37.2034,50.1727,space,12.9127,,0,0,0,1,1,20,bars/single001.png,bars/mask006.png,,,,,,,,,,,,,,,,,,,,,,,,,,,,,,,,,,,,,,,,,,,,,,,,,,,,,,,,,,,,,,,,
,,6151ec9f471555755f408e15,65af52feba138c82e9dc71bd,2024-01-23_07h49.18.490,bars,2023.2.3,Win32,59.88023952,657b66ea316d21385b68909f,,,,,,,,,,,50.1863,51.1622,51.1625,51.6836,51.6837,51.9099,51.9099,40,40,61.4303,space,9.4786,,61.4303,76.1823,space,14.7089,,0,1,1,6,1,175,bars/single006.png,bars/mask005.png,,,,,,,,,,,,,,,,,,,,,,,,,,,,,,,,,,,,,,,,,,,,,,,,,,,,,,,,,,,,,,,,
,,6151ec9f471555755f408e15,65af52feba138c82e9dc71bd,2024-01-23_07h49.18.490,bars,2023.2.3,Win32,59.88023952,657b66ea316d21385b68909f,,,,,,,,,,,76.1949,77.2129,77.2129,77.6819,77.6821,77.9229,77.9229,157,-23,85.2671,space,7.313,,85.2671,88.7891,space,3.4747,,0,2,2,9,1,20,bars/single009.png,bars/mask006.png,,,,,,,,,,,,,,,,,,,,,,,,,,,,,,,,,,,,,,,,,,,,,,,,,,,,,,,,,,,,,,,,
,,6151ec9f471555755f408e15,65af52feba138c82e9dc71bd,2024-01-23_07h49.18.490,bars,2023.2.3,Win32,59.88023952,657b66ea316d21385b68909f,,,,,,,,,,,88.7901,89.7806,89.7808,90.2781,90.2781,90.5307,90.5307,8,8,94.9475,space,4.3869,,94.9475,97.7967,space,2.808,,0,3,3,0,1,150,bars/single000.png,bars/mask006.png,,,,,,,,,,,,,,,,,,,,,,,,,,,,,,,,,,,,,,,,,,,,,,,,,,,,,,,,,,,,,,,,
,,6151ec9f471555755f408e15,65af52feba138c82e9dc71bd,2024-01-23_07h49.18.490,bars,2023.2.3,Win32,59.88023952,657b66ea316d21385b68909f,,,,,,,,,,,97.8073,98.775,98.775,99.2686,99.2688,99.5063,99.5063,127,127,107.2648,space,7.7194,,107.2648,118.2808,space,10.9802,,0,4,4,5,1,55,bars/single005.png,bars/mask008.png,,,,,,,,,,,,,,,,,,,,,,,,,,,,,,,,,,,,,,,,,,,,,,,,,,,,,,,,,,,,,,,,
,,6151ec9f471555755f408e15,65af52feba138c82e9dc71bd,2024-01-23_07h49.18.490,bars,2023.2.3,Win32,59.88023952,657b66ea316d21385b68909f,,,,,,,,,,,118.2969,119.2681,119.2681,119.7649,119.765,120.0144,120.0145,150,150,123.5436,space,3.5005,,123.5437,129.3049,space,5.7268,,0,5,5,8,1,160,bars/single008.png,bars/mask004.png,,,,,,,,,,,,,,,,,,,,,,,,,,,,,,,,,,,,,,,,,,,,,,,,,,,,,,,,,,,,,,,,
,,6151ec9f471555755f408e15,65af52feba138c82e9dc71bd,2024-01-23_07h49.18.490,bars,2023.2.3,Win32,59.88023952,657b66ea316d21385b68909f,,,,,,,,,,,129.3162,130.2984,130.2985,130.7958,130.7959,131.0344,131.0346,9,9,134.8462,space,3.7673,,134.8463,139.6045,space,4.7234,,0,6,6,7,1,45,bars/single007.png,bars/mask009.png,,,,,,,,,,,,,,,,,,,,,,,,,,,,,,,,,,,,,,,,,,,,,,,,,,,,,,,,,,,,,,,,
,,6151ec9f471555755f408e15,65af52feba138c82e9dc71bd,2024-01-23_07h49.18.490,bars,2023.2.3,Win32,59.88023952,657b66ea316d21385b68909f,,,,,,,,,,,139.6166,140.6124,140.6126,141.1006,141.1006,141.3557,141.3558,128,128,146.4489,space,5.0526,,146.4489,153.1755,space,6.691,,0,7,7,2,1,145,bars/single002.png,bars/mask003.png,,,,,,,,,,,,,,,,,,,,,,,,,,,,,,,,,,,,,,,,,,,,,,,,,,,,,,,,,,,,,,,,
,,6151ec9f471555755f408e15,65af52feba138c82e9dc71bd,2024-01-23_07h49.18.490,bars,2023.2.3,Win32,59.88023952,657b66ea316d21385b68909f,,,,,,,,,,,153.1861,154.1951,154.1951,154.6708,154.6709,154.9037,154.9038,29,29,157.5994,space,2.6535,,157.5994,162.994,space,5.3476,,0,8,8,3,1,20,bars/single003.png,bars/mask005.png,,,,,,,,,,,,,,,,,,,,,,,,,,,,,,,,,,,,,,,,,,,,,,,,,,,,,,,,,,,,,,,,
,,6151ec9f471555755f408e15,65af52feba138c82e9dc71bd,2024-01-23_07h49.18.490,bars,2023.2.3,Win32,59.88023952,657b66ea316d21385b68909f,,,,,,,,,,,163.0046,163.9931,163.9931,164.5175,164.5175,164.7623,164.7623,20,20,171.0455,space,6.2649,,171.0455,185.2282,space,14.1472,,0,9,9,4,1,95,bars/single004.png,bars/mask004.png,,,,,,,,,,,,,,,,,,,,,,,,,,,,,,,,,,,,,,,,,,,,,,,,,,,,,,,,,,,,,,,,
,,6151ec9f471555755f408e15,65af52feba138c82e9dc71bd,2024-01-23_07h49.18.490,bars,2023.2.3,Win32,59.88023952,657b66ea316d21385b68909f,,,,,,,,,,,,,,,,,,,,,,,,,,,,,,,,,,,,,185.2413,217.3971,space,32.1231,,,,,,,,,,,,,,,,,,,,,,,,,,,,,,,,,,,,,,,,,,,,,,,,,,,,,,,,,,,,
,,6151ec9f471555755f408e15,65af52feba138c82e9dc71bd,2024-01-23_07h49.18.490,bars,2023.2.3,Win32,59.88023952,657b66ea316d21385b68909f,,,,,,,,,,,,,,,,,,,,,,,,,,,,,,,,,,,,,,,,,,217.4163,221.599,left,4.155,,221.5993,9,1,222.6046,0,0,0,0,1,9,1,9,2,,,,,,,,,,,,,,,,,,,,,,,,,,,,,,,,,,,,,,,,,
,,6151ec9f471555755f408e15,65af52feba138c82e9dc71bd,2024-01-23_07h49.18.490,bars,2023.2.3,Win32,59.88023952,657b66ea316d21385b68909f,,,,,,,,,,,,,,,,,,,,,,,,,,,,,,,,,,,,,,,,,,222.6055,224.2158,right,1.5692,,224.2158,1,2,225.2063,0,1,1,1,1,10,0,10,1,,,,,,,,,,,,,,,,,,,,,,,,,,,,,,,,,,,,,,,,,
,,6151ec9f471555755f408e15,65af52feba138c82e9dc71bd,2024-01-23_07h49.18.490,bars,2023.2.3,Win32,59.88023952,657b66ea316d21385b68909f,,,,,,,,,,,,,,,,,,,,,,,,,,,,,,,,,,,,,,,,,,225.207,226.0767,left,0.8317,,226.0767,10,1,227.0772,0,2,2,2,1,10,2,10,2,,,,,,,,,,,,,,,,,,,,,,,,,,,,,,,,,,,,,,,,,
,,6151ec9f471555755f408e15,65af52feba138c82e9dc71bd,2024-01-23_07h49.18.490,bars,2023.2.3,Win32,59.88023952,657b66ea316d21385b68909f,,,,,,,,,,,,,,,,,,,,,,,,,,,,,,,,,,,,,,,,,,227.0775,228.0619,left,0.9584,,228.062,7,1,229.0652,0,3,3,3,1,8,4,7,3,,,,,,,,,,,,,,,,,,,,,,,,,,,,,,,,,,,,,,,,,
,,6151ec9f471555755f408e15,65af52feba138c82e9dc71bd,2024-01-23_07h49.18.490,bars,2023.2.3,Win32,59.88023952,657b66ea316d21385b68909f,,,,,,,,,,,,,,,,,,,,,,,,,,,,,,,,,,,,,,,,,,229.066,231.0247,left,1.9119,,231.0248,5,1,232.0068,0,4,4,4,1,6,2,5,1,,,,,,,,,,,,,,,,,,,,,,,,,,,,,,,,,,,,,,,,,
,,6151ec9f471555755f408e15,65af52feba138c82e9dc71bd,2024-01-23_07h49.18.490,bars,2023.2.3,Win32,59.88023952,657b66ea316d21385b68909f,,,,,,,,,,,,,,,,,,,,,,,,,,,,,,,,,,,,,,,,,,232.0187,232.6366,right,0.5891,,232.6367,4,2,233.6384,0,5,5,5,1,4,4,4,4,,,,,,,,,,,,,,,,,,,,,,,,,,,,,,,,,,,,,,,,,
,,6151ec9f471555755f408e15,65af52feba138c82e9dc71bd,2024-01-23_07h49.18.490,bars,2023.2.3,Win32,59.88023952,657b66ea316d21385b68909f,,,,,,,,,,,,,,,,,,,,,,,,,,,,,,,,,,,,,,,,,,233.6391,234.9863,left,1.3082,,234.9864,1,1,235.9764,0,6,6,6,1,2,2,1,2,,,,,,,,,,,,,,,,,,,,,,,,,,,,,,,,,,,,,,,,,
,,6151ec9f471555755f408e15,65af52feba138c82e9dc71bd,2024-01-23_07h49.18.490,bars,2023.2.3,Win32,59.88023952,657b66ea316d21385b68909f,,,,,,,,,,,,,,,,,,,,,,,,,,,,,,,,,,,,,,,,,,235.9916,236.6539,right,0.6399,,236.6541,1,2,237.6196,0,7,7,7,1,0,0,0,1,,,,,,,,,,,,,,,,,,,,,,,,,,,,,,,,,,,,,,,,,
,,6151ec9f471555755f408e15,65af52feba138c82e9dc71bd,2024-01-23_07h49.18.490,bars,2023.2.3,Win32,59.88023952,657b66ea316d21385b68909f,,,,,,,,,,,,,,,,,,,,,,,,,,,,,,,,,,,,,,,,,,237.6201,238.1791,left,0.5292,,238.1791,1,1,239.1482,0,8,8,8,1,0,2,1,0,,,,,,,,,,,,,,,,,,,,,,,,,,,,,,,,,,,,,,,,,
,,6151ec9f471555755f408e15,65af52feba138c82e9dc71bd,2024-01-23_07h49.18.490,bars,2023.2.3,Win32,59.88023952,657b66ea316d21385b68909f,,,,,,,,,,,,,,,,,,,,,,,,,,,,,,,,,,,,,,,,,,239.1491,240.0258,right,0.8303,,240.0258,3,2,241.0252,0,9,9,9,1,2,4,2,3,,,,,,,,,,,,,,,,,,,,,,,,,,,,,,,,,,,,,,,,,
,,6151ec9f471555755f408e15,65af52feba138c82e9dc71bd,2024-01-23_07h49.18.490,bars,2023.2.3,Win32,59.88023952,657b66ea316d21385b68909f,,,,,,,,,,,,,,,,,,,,,,,,,,,,,,,,,,,,,,,,,,241.026,243.3343,left,2.2504,,243.3344,0,1,244.335,0,10,10,10,1,0,2,0,3,,,,,,,,,,,,,,,,,,,,,,,,,,,,,,,,,,,,,,,,,
,,6151ec9f471555755f408e15,65af52feba138c82e9dc71bd,2024-01-23_07h49.18.490,bars,2023.2.3,Win32,59.88023952,657b66ea316d21385b68909f,,,,,,,,,,,,,,,,,,,,,,,,,,,,,,,,,,,,,,,,,,244.3474,245.2619,right,0.884,,245.262,3,2,246.2612,0,11,11,11,1,0,4,0,3,,,,,,,,,,,,,,,,,,,,,,,,,,,,,,,,,,,,,,,,,
,,6151ec9f471555755f408e15,65af52feba138c82e9dc71bd,2024-01-23_07h49.18.490,bars,2023.2.3,Win32,59.88023952,657b66ea316d21385b68909f,,,,,,,,,,,,,,,,,,,,,,,,,,,,,,,,,,,,,,,,,,246.2615,247.7623,left,1.4734,,247.7623,1,1,248.7568,0,12,12,12,1,2,6,1,6,,,,,,,,,,,,,,,,,,,,,,,,,,,,,,,,,,,,,,,,,
,,6151ec9f471555755f408e15,65af52feba138c82e9dc71bd,2024-01-23_07h49.18.490,bars,2023.2.3,Win32,59.88023952,657b66ea316d21385b68909f,,,,,,,,,,,,,,,,,,,,,,,,,,,,,,,,,,,,,,,,,,248.7576,251.1068,right,2.3095,,251.107,3,2,252.0811,0,13,13,13,1,0,4,1,3,,,,,,,,,,,,,,,,,,,,,,,,,,,,,,,,,,,,,,,,,
,,6151ec9f471555755f408e15,65af52feba138c82e9dc71bd,2024-01-23_07h49.18.490,bars,2023.2.3,Win32,59.88023952,657b66ea316d21385b68909f,,,,,,,,,,,,,,,,,,,,,,,,,,,,,,,,,,,,,,,,,,252.0818,253.0619,right,0.934,,253.062,7,2,254.0519,0,14,14,14,1,2,6,2,7,,,,,,,,,,,,,,,,,,,,,,,,,,,,,,,,,,,,,,,,,
,,6151ec9f471555755f408e15,65af52feba138c82e9dc71bd,2024-01-23_07h49.18.490,bars,2023.2.3,Win32,59.88023952,657b66ea316d21385b68909f,,,,,,,,,,,,,,,,,,,,,,,,,,,,,,,,,,,,,,,,,,254.0527,255.4291,left,1.3342,,255.4291,3,1,256.3948,0,15,15,15,1,4,8,3,9,,,,,,,,,,,,,,,,,,,,,,,,,,,,,,,,,,,,,,,,,
,,6151ec9f471555755f408e15,65af52feba138c82e9dc71bd,2024-01-23_07h49.18.490,bars,2023.2.3,Win32,59.88023952,657b66ea316d21385b68909f,,,,,,,,,,,,,,,,,,,,,,,,,,,,,,,,,,,,,,,,,,256.4061,257.5698,left,1.1245,,257.5698,7,1,258.5656,0,16,16,16,1,6,6,7,7,,,,,,,,,,,,,,,,,,,,,,,,,,,,,,,,,,,,,,,,,
,,6151ec9f471555755f408e15,65af52feba138c82e9dc71bd,2024-01-23_07h49.18.490,bars,2023.2.3,Win32,59.88023952,657b66ea316d21385b68909f,,,,,,,,,,,,,,,,,,,,,,,,,,,,,,,,,,,,,,,,,,258.5664,260.398,right,1.7868,,260.3982,5,2,261.3737,0,17,17,17,1,8,4,9,5,,,,,,,,,,,,,,,,,,,,,,,,,,,,,,,,,,,,,,,,,
,,6151ec9f471555755f408e15,65af52feba138c82e9dc71bd,2024-01-23_07h49.18.490,bars,2023.2.3,Win32,59.88023952,657b66ea316d21385b68909f,,,,,,,,,,,,,,,,,,,,,,,,,,,,,,,,,,,,,,,,,,261.3743,264.1731,left,2.7617,,264.1732,5,1,265.1506,0,18,18,18,1,6,2,5,1,,,,,,,,,,,,,,,,,,,,,,,,,,,,,,,,,,,,,,,,,
,,6151ec9f471555755f408e15,65af52feba138c82e9dc71bd,2024-01-23_07h49.18.490,bars,2023.2.3,Win32,59.88023952,657b66ea316d21385b68909f,,,,,,,,,,,,,,,,,,,,,,,,,,,,,,,,,,,,,,,,,,265.1627,270.3955,left,5.2004,,270.3955,7,1,271.4105,0,19,19,19,1,8,0,7,0,,,,,,,,,,,,,,,,,,,,,,,,,,,,,,,,,,,,,,,,,
,,6151ec9f471555755f408e15,65af52feba138c82e9dc71bd,2024-01-23_07h49.18.490,bars,2023.2.3,Win32,59.88023952,657b66ea316d21385b68909f,,,,,,,,,,,,,,,,,,,,,,,,,,,,,,,,,,,,,,,,,,,,,,,,,,,,,,,,,,,,271.4112,275.6786,space,4.2394,,,,,,,,,,,,,,,,,,,,,,,,,,,,,,,,,,,,,
,,6151ec9f471555755f408e15,65af52feba138c82e9dc71bd,2024-01-23_07h49.18.490,bars,2023.2.3,Win32,59.88023952,657b66ea316d21385b68909f,,,,,,,,,,,277.8708,278.8722,,,279.3639,279.5809,,92,92,,,,,,,,,,,,,,,,bars/004.png,bars/mask002.png,,,,,,,,,,,,0,2,,,,,,,8,4,8,5,,,,,,275.6919,277.8628,space,2.1466,,278.8726,279.3637,279.5815,282.9658,space,3.3366,,282.9661,67,33,283.9784,283.9785,294.3647,space,10.3494,,0,0,0,0,1,25,125,,,,,,,,
,,6151ec9f471555755f408e15,65af52feba138c82e9dc71bd,2024-01-23_07h49.18.490,bars,2023.2.3,Win32,59.88023952,657b66ea316d21385b68909f,,,,,,,,,,,294.3765,295.3669,,,295.8636,296.1002,,52,52,,,,,,,,,,,,,,,,bars/013.png,bars/mask008.png,,,,,,,,,,,,2,1,,,,,,,10,6,10,8,,,,,,,,,,,295.3671,295.8635,296.1002,299.944,space,3.8142,,299.9441,23,42,300.9596,300.9597,305.3868,space,4.3848,,0,1,1,1,1,75,10,,,,,,,,
,,6151ec9f471555755f408e15,65af52feba138c82e9dc71bd,2024-01-23_07h49.18.490,bars,2023.2.3,Win32,59.88023952,657b66ea316d21385b68909f,,,,,,,,,,,305.4018,306.3958,,,306.8948,307.1448,,128,128,,,,,,,,,,,,,,,,bars/015.png,bars/mask009.png,,,,,,,,,,,,4,1,,,,,,,10,4,10,5,,,,,,,,,,,306.396,306.8947,307.1449,310.9211,space,3.7268,,310.9212,18,32,311.901,311.901,315.2299,space,3.2821,,0,2,2,2,1,110,160,,,,,,,,
,,6151ec9f471555755f408e15,65af52feba138c82e9dc71bd,2024-01-23_07h49.18.490,bars,2023.2.3,Win32,59.88023952,657b66ea316d21385b68909f,,,,,,,,,,,315.2408,316.2077,,,316.6882,316.9046,,115,115,,,,,,,,,,,,,,,,bars/024.png,bars/mask001.png,,,,,,,,,,,,7,1,,,,,,,8,6,8,5,,,,,,,,,,,316.2078,316.6882,316.9047,321.7149,space,4.7804,,321.7149,5,55,322.6885,322.6886,326.853,space,4.1171,,0,3,3,3,1,120,170,,,,,,,,
,,6151ec9f471555755f408e15,65af52feba138c82e9dc71bd,2024-01-23_07h49.18.490,bars,2023.2.3,Win32,59.88023952,657b66ea316d21385b68909f,,,,,,,,,,,326.8644,327.8694,,,328.3529,328.569,,106,106,,,,,,,,,,,,,,,,bars/002.png,bars/mask003.png,,,,,,,,,,,,3,2,,,,,,,10,8,10,9,,,,,,,,,,,327.8694,328.3528,328.569,330.7414,space,2.1408,,330.7414,24,21,331.7612,331.7613,335.2467,space,3.4396,,0,4,4,4,1,130,85,,,,,,,,
,,6151ec9f471555755f408e15,65af52feba138c82e9dc71bd,2024-01-23_07h49.18.490,bars,2023.2.3,Win32,59.88023952,657b66ea316d21385b68909f,,,,,,,,,,,335.2474,336.2471,,,336.7467,337.0219,,70,-110,,,,,,,,,,,,,,,,bars/025.png,bars/mask005.png,,,,,,,,,,,,0,2,,,,,,,8,10,8,10,,,,,,,,,,,336.2473,336.7466,337.0219,342.898,space,5.8437,,342.8982,35,30,343.9024,343.9024,345.5449,space,1.6076,,0,5,5,5,1,105,40,,,,,,,,
,,6151ec9f471555755f408e15,65af52feba138c82e9dc71bd,2024-01-23_07h49.18.490,bars,2023.2.3,Win32,59.88023952,657b66ea316d21385b68909f,,,,,,,,,,,345.5452,346.5231,,,347.034,347.2735,,34,34,,,,,,,,,,,,,,,,bars/007.png,bars/mask002.png,,,,,,,,,,,,3,2,,,,,,,10,10,10,10,,,,,,,,,,,346.5233,347.0338,347.2736,354.2109,space,6.8996,,354.2109,39,21,355.2217,355.2219,358.2234,space,2.9562,,0,6,6,6,1,175,55,,,,,,,,
,,6151ec9f471555755f408e15,65af52feba138c82e9dc71bd,2024-01-23_07h49.18.490,bars,2023.2.3,Win32,59.88023952,657b66ea316d21385b68909f,,,,,,,,,,,358.2241,359.2052,,,359.7082,359.9342,,69,69,,,,,,,,,,,,,,,,bars/016.png,bars/mask007.png,,,,,,,,,,,,0,1,,,,,,,8,10,7,10,,,,,,,,,,,359.2053,359.7082,359.9342,363.2254,space,3.2484,,363.2255,29,84,364.223,364.2231,364.9902,space,0.7232,,0,7,7,7,1,40,165,,,,,,,,
,,6151ec9f471555755f408e15,65af52feba138c82e9dc71bd,2024-01-23_07h49.18.490,bars,2023.2.3,Win32,59.88023952,657b66ea316d21385b68909f,,,,,,,,,,,364.9908,366.0013,,,366.5008,366.7444,,101,101,,,,,,,,,,,,,,,,bars/018.png,bars/mask008.png,,,,,,,,,,,,6,2,,,,,,,6,10,6,10,,,,,,,,,,,366.0013,366.5008,366.7445,370.2375,space,3.4659,,370.2376,49,11,371.2333,371.2334,374.9969,space,3.7181,,0,8,8,8,1,150,90,,,,,,,,
,,6151ec9f471555755f408e15,65af52feba138c82e9dc71bd,2024-01-23_07h49.18.490,bars,2023.2.3,Win32,59.88023952,657b66ea316d21385b68909f,,,,,,,,,,,375.0117,376.0232,,,376.5021,376.7202,,110,110,,,,,,,,,,,,,,,,bars/019.png,bars/mask003.png,,,,,,,,,,,,7,2,,,,,,,8,8,8,8,,,,,,,,,,,376.0233,376.5021,376.7204,380.7939,space,4.0447,,380.7939,65,5,381.8264,381.8264,387.0429,space,5.1803,,0,9,9,9,1,45,105,,,,,,,,
,,6151ec9f471555755f408e15,65af52feba138c82e9dc71bd,2024-01-23_07h49.18.490,bars,2023.2.3,Win32,59.88023952,657b66ea316d21385b68909f,,,,,,,,,,,387.0536,388.0381,,,388.5604,388.7943,,56,56,,,,,,,,,,,,,,,,bars/024.png,bars/mask000.png,,,,,,,,,,,,0,1,,,,,,,6,10,4,10,,,,,,,,,,,388.0382,388.5603,388.7944,394.2268,space,5.3835,,394.2269,64,66,395.2045,395.2046,403.6952,space,8.4494,,0,10,10,10,1,120,170,,,,,,,,
,,6151ec9f471555755f408e15,65af52feba138c82e9dc71bd,2024-01-23_07h49.18.490,bars,2023.2.3,Win32,59.88023952,657b66ea316d21385b68909f,,,,,,,,,,,403.707,404.7008,,,405.2108,405.4605,,117,117,,,,,,,,,,,,,,,,bars/020.png,bars/mask005.png,,,,,,,,,,,,3,1,,,,,,,4,8,3,10,,,,,,,,,,,404.701,405.2108,405.4605,409.7554,space,4.2637,,409.7556,2,53,410.7622,410.7624,414.1425,space,3.332,,0,11,11,11,1,115,170,,,,,,,,
,,6151ec9f471555755f408e15,65af52feba138c82e9dc71bd,2024-01-23_07h49.18.490,bars,2023.2.3,Win32,59.88023952,657b66ea316d21385b68909f,,,,,,,,,,,414.1428,415.1123,,,415.6149,415.8378,,122,122,,,,,,,,,,,,,,,,bars/007.png,bars/mask006.png,,,,,,,,,,,,0,1,,,,,,,6,6,6,5,,,,,,,,,,,415.1125,415.6149,415.838,424.3781,space,8.5016,,424.3781,53,67,425.3752,425.3752,429.7114,space,4.2985,,0,12,12,12,1,175,55,,,,,,,,
,,6151ec9f471555755f408e15,65af52feba138c82e9dc71bd,2024-01-23_07h49.18.490,bars,2023.2.3,Win32,59.88023952,657b66ea316d21385b68909f,,,,,,,,,,,429.7223,430.6893,,,431.1672,431.4121,,118,-62,,,,,,,,,,,,,,,,bars/011.png,bars/mask006.png,,,,,,,,,,,,0,2,,,,,,,8,8,7,7,,,,,,,,,,,430.6894,431.1671,431.4122,435.5508,space,4.0907,,435.5509,42,33,436.5302,436.5304,439.1444,space,2.5659,,0,13,13,13,1,160,85,,,,,,,,
,,6151ec9f471555755f408e15,65af52feba138c82e9dc71bd,2024-01-23_07h49.18.490,bars,2023.2.3,Win32,59.88023952,657b66ea316d21385b68909f,,,,,,,,,,,439.1448,440.1507,,,440.6138,440.8366,,44,44,,,,,,,,,,,,,,,,bars/011.png,bars/mask007.png,,,,,,,,,,,,0,2,,,,,,,6,10,6,10,,,,,,,,,,,440.1508,440.6137,440.8368,443.8625,space,3.0072,,443.8626,64,41,444.8544,444.8546,446.5288,space,1.6245,,0,14,14,14,1,160,85,,,,,,,,
,,6151ec9f471555755f408e15,65af52feba138c82e9dc71bd,2024-01-23_07h49.18.490,bars,2023.2.3,Win32,59.88023952,657b66ea316d21385b68909f,,,,,,,,,,,446.5296,447.5332,,,448.0251,448.2775,,53,53,,,,,,,,,,,,,,,,bars/029.png,bars/mask000.png,,,,,,,,,,,,7,2,,,,,,,4,10,5,10,,,,,,,,,,,447.5332,448.0251,448.2776,456.016,space,7.7085,,456.0161,37,8,457.0011,457.0012,458.3504,space,1.3038,,0,15,15,15,1,90,45,,,,,,,,
,,6151ec9f471555755f408e15,65af52feba138c82e9dc71bd,2024-01-23_07h49.18.490,bars,2023.2.3,Win32,59.88023952,657b66ea316d21385b68909f,,,,,,,,,,,458.3507,459.3313,,,459.812,460.05,,147,147,,,,,,,,,,,,,,,,bars/000.png,bars/mask003.png,,,,,,,,,,,,7,2,,,,,,,2,8,3,7,,,,,,,,,,,459.3314,459.8118,460.0502,462.8382,space,2.7454,,462.8382,73,2,463.8329,463.8329,467.2109,space,3.3332,,0,16,16,16,1,40,145,,,,,,,,
,,6151ec9f471555755f408e15,65af52feba138c82e9dc71bd,2024-01-23_07h49.18.490,bars,2023.2.3,Win32,59.88023952,657b66ea316d21385b68909f,,,,,,,,,,,467.2223,468.2298,,,468.7093,468.9349,,158,158,,,,,,,,,,,,,,,,bars/023.png,bars/mask009.png,,,,,,,,,,,,0,1,,,,,,,4,6,4,7,,,,,,,,,,,468.2299,468.7092,468.935,475.4253,space,6.4593,,475.4253,42,43,476.4121,476.4122,479.3858,space,2.923,,0,17,17,17,1,20,115,,,,,,,,
,,6151ec9f471555755f408e15,65af52feba138c82e9dc71bd,2024-01-23_07h49.18.490,bars,2023.2.3,Win32,59.88023952,657b66ea316d21385b68909f,,,,,,,,,,,479.3867,480.3764,,,480.8615,481.1208,,37,217,,,,,,,,,,,,,,,,bars/036.png,bars/mask006.png,,,,,,,,,,,,2,2,,,,,,,6,4,6,5,,,,,,,,,,,480.3765,480.8612,481.1209,488.8645,space,7.7033,,488.8645,72,17,489.8463,489.8464,499.7351,space,9.8396,,0,18,18,18,1,145,20,,,,,,,,
,,6151ec9f471555755f408e15,65af52feba138c82e9dc71bd,2024-01-23_07h49.18.490,bars,2023.2.3,Win32,59.88023952,657b66ea316d21385b68909f,,,,,,,,,,,499.7518,500.7596,,,501.2559,501.4997,,29,29,,,,,,,,,,,,,,,,bars/048.png,bars/mask006.png,,,,,,,,,,,,1,1,,,,,,,4,2,3,3,,,,,,,,,,,500.7597,501.2559,501.4998,505.8959,space,4.3543,,505.896,21,34,506.8856,506.8857,516.128,space,9.1985,,0,19,19,19,1,50,175,,,,,,,,
,,6151ec9f471555755f408e15,65af52feba138c82e9dc71bd,2024-01-23_07h49.18.490,bars,2023.2.3,Win32,59.88023952,657b66ea316d21385b68909f,,,,,,,,,,,516.1395,517.1525,,,517.6422,517.909,,57,57,,,,,,,,,,,,,,,,bars/021.png,bars/mask007.png,,,,,,,,,,,,0,2,,,,,,,2,0,1,0,,,,,,,,,,,517.1526,517.6422,517.909,522.3463,space,4.411,,522.3463,82,13,523.3442,523.3443,524.904,space,1.5107,,0,20,20,20,1,155,70,,,,,,,,
,,6151ec9f471555755f408e15,65af52feba138c82e9dc71bd,2024-01-23_07h49.18.490,bars,2023.2.3,Win32,59.88023952,657b66ea316d21385b68909f,,,,,,,,,,,524.9043,525.8845,,,526.3844,526.6353,,9,9,,,,,,,,,,,,,,,,bars/002.png,bars/mask009.png,,,,,,,,,,,,0,1,,,,,,,4,0,5,0,,,,,,,,,,,525.8845,526.3844,526.6353,527.9595,space,1.2982,,527.9595,59,76,528.955,528.9551,530.583,space,1.588,,0,21,21,21,1,130,85,,,,,,,,
,,6151ec9f471555755f408e15,65af52feba138c82e9dc71bd,2024-01-23_07h49.18.490,bars,2023.2.3,Win32,59.88023952,657b66ea316d21385b68909f,,,,,,,,,,,530.5835,531.5925,,,532.0744,532.3197,,125,125,,,,,,,,,,,,,,,,bars/008.png,bars/mask005.png,,,,,,,,,,,,3,1,,,,,,,6,0,5,0,,,,,,,,,,,531.5926,532.0744,532.3198,535.5658,space,3.2173,,535.5659,15,55,536.5441,536.5443,539.1539,space,2.5585,,0,22,22,22,1,110,0,,,,,,,,
,,6151ec9f471555755f408e15,65af52feba138c82e9dc71bd,2024-01-23_07h49.18.490,bars,2023.2.3,Win32,59.88023952,657b66ea316d21385b68909f,,,,,,,,,,,539.1653,540.1655,,,540.6368,540.8616,,121,121,,,,,,,,,,,,,,,,bars/049.png,bars/mask000.png,,,,,,,,,,,,0,2,,,,,,,8,0,8,0,,,,,,,,,,,540.1656,540.6368,540.8616,544.0419,space,3.1525,,544.042,39,6,545.0241,545.0242,546.3768,space,1.2989,,0,23,23,23,1,160,115,,,,,,,,
,,6151ec9f471555755f408e15,65af52feba138c82e9dc71bd,2024-01-23_07h49.18.490,bars,2023.2.3,Win32,59.88023952,657b66ea316d21385b68909f,,,,,,,,,,,546.377,547.3911,,,547.8683,548.1173,,145,-35,,,,,,,,,,,,,,,,bars/048.png,bars/mask004.png,,,,,,,,,,,,0,2,,,,,,,10,0,10,2,,,,,,,,,,,547.3912,547.8682,548.1174,552.1248,space,3.9653,,552.1248,85,30,553.1247,553.1247,556.91,space,3.7507,,0,24,24,24,1,50,175,,,,,,,,
,,6151ec9f471555755f408e15,65af52feba138c82e9dc71bd,2024-01-23_07h49.18.490,bars,2023.2.3,Win32,59.88023952,657b66ea316d21385b68909f,,,,,,,,,,,556.9208,557.9245,,,558.4164,558.6496,,40,40,,,,,,,,,,,,,,,,bars/016.png,bars/mask007.png,,,,,,,,,,,,10,1,,,,,,,10,2,10,3,,,,,,,,,,,557.9245,558.4163,558.6497,561.0939,space,2.4021,,561.094,0,55,562.0881,562.0882,565.2263,space,3.0955,,0,25,25,25,1,40,165,,,,,,,,
,,6151ec9f471555755f408e15,65af52feba138c82e9dc71bd,2024-01-23_07h49.18.490,bars,2023.2.3,Win32,59.88023952,657b66ea316d21385b68909f,,,,,,,,,,,565.2268,566.2257,,,566.7433,566.9857,,37,37,,,,,,,,,,,,,,,,bars/025.png,bars/mask005.png,,,,,,,,,,,,3,2,,,,,,,8,4,7,3,,,,,,,,,,,566.2257,566.7432,566.9858,570.2983,space,3.2639,,570.2983,68,3,571.2743,571.2744,572.6262,space,1.3082,,0,26,26,26,1,105,40,,,,,,,,
,,6151ec9f471555755f408e15,65af52feba138c82e9dc71bd,2024-01-23_07h49.18.490,bars,2023.2.3,Win32,59.88023952,657b66ea316d21385b68909f,,,,,,,,,,,572.6265,573.6179,,,574.136,574.409,,9,9,,,,,,,,,,,,,,,,bars/049.png,bars/mask004.png,,,,,,,,,,,,0,1,,,,,,,6,2,7,2,,,,,,,,,,,573.6181,574.136,574.4091,576.0036,space,1.567,,576.0036,29,74,576.9834,576.9834,579.4593,space,2.43,,0,27,27,27,1,160,115,,,,,,,,
,,6151ec9f471555755f408e15,65af52feba138c82e9dc71bd,2024-01-23_07h49.18.490,bars,2023.2.3,Win32,59.88023952,657b66ea316d21385b68909f,,,,,,,,,,,579.46,580.4285,,,580.9242,581.1675,,3,3,,,,,,,,,,,,,,,,bars/038.png,bars/mask005.png,,,,,,,,,,,,1,1,,,,,,,4,0,3,1,,,,,,,,,,,580.4286,580.9241,581.1675,582.7426,space,1.5567,,582.7426,18,67,583.7488,583.7491,586.2655,space,2.4715,,0,28,28,28,1,165,70,,,,,,,,
,,6151ec9f471555755f408e15,65af52feba138c82e9dc71bd,2024-01-23_07h49.18.490,bars,2023.2.3,Win32,59.88023952,657b66ea316d21385b68909f,,,,,,,,,,,586.2663,587.2813,,,587.7623,587.9793,,65,65,,,,,,,,,,,,,,,,bars/020.png,bars/mask008.png,,,,,,,,,,,,0,1,,,,,,,6,2,6,1,,,,,,,,,,,587.2814,587.7622,587.9795,590.637,space,2.6115,,590.637,50,75,591.6252,591.6253,594.5476,space,2.8816,,0,29,29,29,1,115,170,,,,,,,,
,,6151ec9f471555755f408e15,65af52feba138c82e9dc71bd,2024-01-23_07h49.18.490,bars,2023.2.3,Win32,59.88023952,657b66ea316d21385b68909f,,,,,,,,,,,594.5626,595.5747,,,596.0553,596.3182,,30,30,,,,,,,,,,,,,,,,bars/003.png,bars/mask006.png,,,,,,,,,,,,2,1,,,,,,,4,0,2,1,,,,,,,,,,,595.5747,596.055,596.3183,599.531,space,3.1944,,599.531,5,70,600.5066,600.5066,603.5277,space,2.9828,,0,30,30,30,1,25,140,,,,,,,,
,,6151ec9f471555755f408e15,65af52feba138c82e9dc71bd,2024-01-23_07h49.18.490,bars,2023.2.3,Win32,59.88023952,657b66ea316d21385b68909f,,,,,,,,,,,603.5437,604.5264,,,605.0065,605.239,,136,-44,,,,,,,,,,,,,,,,bars/019.png,bars/mask005.png,,,,,,,,,,,,0,2,,,,,,,2,2,1,3,,,,,,,,,,,604.5265,605.0063,605.239,608.2986,space,3.0308,,608.2987,89,31,609.3153,609.3154,612.0297,space,2.6689,,0,31,31,31,1,45,105,,,,,,,,
,,6151ec9f471555755f408e15,65af52feba138c82e9dc71bd,2024-01-23_07h49.18.490,bars,2023.2.3,Win32,59.88023952,657b66ea316d21385b68909f,,,,,,,,,,,612.0304,613.0337,,,613.5492,613.7922,,122,-58,,,,,,,,,,,,,,,,bars/032.png,bars/mask004.png,,,,,,,,,,,,3,1,,,,,,,4,4,3,4,,,,,,,,,,,613.0337,613.5491,613.7923,617.8585,space,4.0386,,617.8586,3,78,618.8641,618.8643,621.5126,space,2.6031,,0,32,32,32,1,125,20,,,,,,,,
,,6151ec9f471555755f408e15,65af52feba138c82e9dc71bd,2024-01-23_07h49.18.490,bars,2023.2.3,Win32,59.88023952,657b66ea316d21385b68909f,,,,,,,,,,,621.5133,622.4794,,,622.9774,623.2134,,34,34,,,,,,,,,,,,,,,,bars/024.png,bars/mask005.png,,,,,,,,,,,,0,2,,,,,,,6,6,4,4,,,,,,,,,,,622.4795,622.9772,623.2134,626.6083,space,3.3497,,626.6083,86,44,627.5948,627.5949,628.8712,space,1.2277,,0,33,33,33,1,120,170,,,,,,,,
,,6151ec9f471555755f408e15,65af52feba138c82e9dc71bd,2024-01-23_07h49.18.490,bars,2023.2.3,Win32,59.88023952,657b66ea316d21385b68909f,,,,,,,,,,,628.8718,629.8742,,,630.3626,630.5774,,41,41,,,,,,,,,,,,,,,,bars/020.png,bars/mask006.png,,,,,,,,,,,,0,2,,,,,,,4,8,4,8,,,,,,,,,,,629.8742,630.3625,630.5776,631.7241,space,1.0984,,631.7242,74,51,632.7419,632.7419,634.896,space,2.1222,,0,34,34,34,1,115,170,,,,,,,,
,,6151ec9f471555755f408e15,65af52feba138c82e9dc71bd,2024-01-23_07h49.18.490,bars,2023.2.3,Win32,59.88023952,657b66ea316d21385b68909f,,,,,,,,,,,634.8966,635.8936,,,636.3902,636.6132,,89,89,,,,,,,,,,,,,,,,bars/013.png,bars/mask004.png,,,,,,,,,,,,1,1,,,,,,,2,10,1,9,,,,,,,,,,,635.8938,636.3902,636.6132,638.6993,space,2.0518,,638.6994,14,79,639.7241,639.7241,641.3459,space,1.5896,,0,35,35,35,1,75,10,,,,,,,,
,,6151ec9f471555755f408e15,65af52feba138c82e9dc71bd,2024-01-23_07h49.18.490,bars,2023.2.3,Win32,59.88023952,657b66ea316d21385b68909f,,,,,,,,,,,641.3465,642.3412,,,642.849,643.0936,,55,55,,,,,,,,,,,,,,,,bars/033.png,bars/mask000.png,,,,,,,,,,,,0,1,,,,,,,4,8,3,8,,,,,,,,,,,642.3412,642.8489,643.0937,644.2031,space,1.0617,,644.2032,30,80,645.1948,645.195,646.2488,space,1.0053,,0,36,36,36,1,25,155,,,,,,,,
,,6151ec9f471555755f408e15,65af52feba138c82e9dc71bd,2024-01-23_07h49.18.490,bars,2023.2.3,Win32,59.88023952,657b66ea316d21385b68909f,,,,,,,,,,,646.2494,647.2272,,,647.7333,647.965,,140,140,,,,,,,,,,,,,,,,bars/034.png,bars/mask009.png,,,,,,,,,,,,1,1,,,,,,,2,6,2,5,,,,,,,,,,,647.2274,647.7333,647.965,649.0665,space,1.0723,,649.0666,15,75,650.0629,650.0631,650.6267,space,0.5184,,0,37,37,37,1,125,65,,,,,,,,
,,6151ec9f471555755f408e15,65af52feba138c82e9dc71bd,2024-01-23_07h49.18.490,bars,2023.2.3,Win32,59.88023952,657b66ea316d21385b68909f,,,,,,,,,,,650.6269,651.6246,,,652.1007,652.3455,,156,-24,,,,,,,,,,,,,,,,bars/018.png,bars/mask002.png,,,,,,,,,,,,3,1,,,,,,,4,8,4,10,,,,,,,,,,,651.6247,652.1006,652.3456,655.2202,space,2.8275,,655.2202,6,66,656.2243,656.2245,657.7634,space,1.5021,,0,38,38,38,1,150,90,,,,,,,,
,,6151ec9f471555755f408e15,65af52feba138c82e9dc71bd,2024-01-23_07h49.18.490,bars,2023.2.3,Win32,59.88023952,657b66ea316d21385b68909f,,,,,,,,,,,657.7641,658.7528,,,659.2345,659.4807,,14,14,,,,,,,,,,,,,,,,bars/015.png,bars/mask002.png,,,,,,,,,,,,0,2,,,,,,,2,6,2,5,,,,,,,,,,,658.7531,659.2345,659.4808,660.5189,space,0.9947,,660.5189,84,34,661.5101,661.5103,661.9986,space,0.4382,,0,39,39,39,1,110,160,,,,,,,,
,,6151ec9f471555755f408e15,65af52feba138c82e9dc71bd,2024-01-23_07h49.18.490,bars,2023.2.3,Win32,59.88023952,657b66ea316d21385b68909f,,,,,,,,,,,661.9994,662.9905,,,663.4726,663.7005,,65,65,,,,,,,,,,,,,,,,bars/046.png,bars/mask001.png,,,,,,,,,,,,2,2,,,,,,,4,8,2,7,,,,,,,,,,,662.9905,663.4726,663.7005,665.5396,space,1.8103,,665.5398,90,20,666.5342,666.5343,667.7498,space,1.1724,,0,40,40,40,1,155,85,,,,,,,,
,,6151ec9f471555755f408e15,65af52feba138c82e9dc71bd,2024-01-23_07h49.18.490,bars,2023.2.3,Win32,59.88023952,657b66ea316d21385b68909f,,,,,,,,,,,667.7506,668.7418,,,669.2195,669.4632,,27,27,,,,,,,,,,,,,,,,bars/041.png,bars/mask004.png,,,,,,,,,,,,4,1,,,,,,,6,10,5,10,,,,,,,,,,,668.7419,669.2195,669.4633,670.3252,space,0.8331,,670.3253,7,58,671.3404,671.3405,672.1662,space,0.7942,,0,41,41,41,1,20,85,,,,,,,,
,,6151ec9f471555755f408e15,65af52feba138c82e9dc71bd,2024-01-23_07h49.18.490,bars,2023.2.3,Win32,59.88023952,657b66ea316d21385b68909f,,,,,,,,,,,672.1668,673.1327,,,673.6322,673.891,,13,13,,,,,,,,,,,,,,,,bars/022.png,bars/mask004.png,,,,,,,,,,,,8,2,,,,,,,8,8,8,10,,,,,,,,,,,673.1328,673.6321,673.891,674.5902,space,0.6717,,674.5902,82,7,675.577,675.5773,676.1922,space,0.5655,,0,42,42,42,1,95,20,,,,,,,,
,,6151ec9f471555755f408e15,65af52feba138c82e9dc71bd,2024-01-23_07h49.18.490,bars,2023.2.3,Win32,59.88023952,657b66ea316d21385b68909f,,,,,,,,,,,676.1929,677.1911,,,677.6711,677.9102,,108,108,,,,,,,,,,,,,,,,bars/042.png,bars/mask002.png,,,,,,,,,,,,0,2,,,,,,,10,6,10,6,,,,,,,,,,,677.1911,677.671,677.9102,679.8385,space,1.8944,,679.8385,37,33,680.8219,680.822,681.6401,space,0.7652,,0,43,43,43,1,145,75,,,,,,,,
,,6151ec9f471555755f408e15,65af52feba138c82e9dc71bd,2024-01-23_07h49.18.490,bars,2023.2.3,Win32,59.88023952,657b66ea316d21385b68909f,,,,,,,,,,,681.6406,682.6401,,,683.1327,683.3974,,169,169,,,,,,,,,,,,,,,,bars/015.png,bars/mask007.png,,,,,,,,,,,,4,2,,,,,,,8,4,10,5,,,,,,,,,,,682.6401,683.1326,683.3974,684.4949,space,1.0636,,684.4951,59,9,685.5017,685.5017,686.4814,space,0.9328,,0,44,44,44,1,110,160,,,,,,,,
,,6151ec9f471555755f408e15,65af52feba138c82e9dc71bd,2024-01-23_07h49.18.490,bars,2023.2.3,Win32,59.88023952,657b66ea316d21385b68909f,,,,,,,,,,,686.4818,687.4727,,,687.9545,688.2005,,138,138,,,,,,,,,,,,,,,,bars/044.png,bars/mask007.png,,,,,,,,,,,,1,2,,,,,,,6,2,7,2,,,,,,,,,,,687.473,687.9544,688.2005,688.3859,space,0.1559,,688.3859,63,17,689.3904,689.3904,690.0747,space,0.6316,,0,45,45,45,1,75,155,,,,,,,,
,,6151ec9f471555755f408e15,65af52feba138c82e9dc71bd,2024-01-23_07h49.18.490,bars,2023.2.3,Win32,59.88023952,657b66ea316d21385b68909f,,,,,,,,,,,690.0755,691.0537,,,691.5404,691.7908,,158,158,,,,,,,,,,,,,,,,bars/037.png,bars/mask007.png,,,,,,,,,,,,4,1,,,,,,,4,0,5,0,,,,,,,,,,,691.0538,691.5404,691.791,693.4242,space,1.5831,,693.4242,8,53,694.4195,694.4196,696.6575,space,2.1949,,0,46,46,46,1,150,105,,,,,,,,
,,6151ec9f471555755f408e15,65af52feba138c82e9dc71bd,2024-01-23_07h49.18.490,bars,2023.2.3,Win32,59.88023952,657b66ea316d21385b68909f,,,,,,,,,,,696.6578,697.6727,,,698.1565,698.4109,,64,64,,,,,,,,,,,,,,,,bars/044.png,bars/mask005.png,,,,,,,,,,,,1,1,,,,,,,2,2,2,2,,,,,,,,,,,697.6727,698.1565,698.4109,699.0822,space,0.6367,,699.0823,11,89,700.0636,700.0638,700.7588,space,0.6442,,0,47,47,47,1,75,155,,,,,,,,
,,6151ec9f471555755f408e15,65af52feba138c82e9dc71bd,2024-01-23_07h49.18.490,bars,2023.2.3,Win32,59.88023952,657b66ea316d21385b68909f,,,,,,,,,,,700.7591,701.7599,,,702.2674,702.4934,,38,38,,,,,,,,,,,,,,,,bars/017.png,bars/mask004.png,,,,,,,,,,,,4,2,,,,,,,0,4,1,5,,,,,,,,,,,701.7601,702.2674,702.4935,703.382,space,0.8406,,703.3821,73,7,704.3736,704.3737,705.7711,space,1.3665,,0,48,48,48,1,145,45,,,,,,,,
,,6151ec9f471555755f408e15,65af52feba138c82e9dc71bd,2024-01-23_07h49.18.490,bars,2023.2.3,Win32,59.88023952,657b66ea316d21385b68909f,,,,,,,,,,,705.7714,706.7523,,,707.2471,707.4811,,147,147,,,,,,,,,,,,,,,,bars/029.png,bars/mask004.png,,,,,,,,,,,,0,1,,,,,,,2,2,3,2,,,,,,,,,,,706.7524,707.247,707.4811,708.677,space,1.1502,,708.6771,57,78,709.6722,709.6723,710.9979,space,1.2923,,0,49,49,49,1,90,45,,,,,,,,
,,6151ec9f471555755f408e15,65af52feba138c82e9dc71bd,2024-01-23_07h49.18.490,bars,2023.2.3,Win32,59.88023952,657b66ea316d21385b68909f,,,,,,,,,,,,,,,,,,,,,,,,,,,,,,,,,,,,,,,,,,,,,,,,,,,,,,,,,,,,,,,,,,,,,,,,,,,,,,,,,,,,,,,,,,,,,710.9988,771.0078,0,0,0,2,1,sequence_tables/blk028.csv
,,6151ec9f471555755f408e15,65af52feba138c82e9dc71bd,2024-01-23_07h49.18.490,bars,2023.2.3,Win32,59.88023952,657b66ea316d21385b68909f,,,,,,,,,,,774.8605,775.8387,,,776.3143,776.5742,,159,159,,,,,,,,,,,,,,,,bars/007.png,bars/mask002.png,,,,,,,,,,,,0,1,,,,,,,2,9,1,9,,,,,,771.0242,774.8538,space,3.8058,,775.8388,776.3141,776.5743,777.8382,space,1.2366,,777.8382,16,76,778.8396,778.8397,778.8405,,,,0,0,0,0,1,175,55,,,,,,,,
,,6151ec9f471555755f408e15,65af52feba138c82e9dc71bd,2024-01-23_07h49.18.490,bars,2023.2.3,Win32,59.88023952,657b66ea316d21385b68909f,,,,,,,,,,,778.8406,779.8296,,,780.2998,780.516,,64,64,,,,,,,,,,,,,,,,bars/043.png,bars/mask004.png,,,,,,,,,,,,0,1,,,,,,,4,7,7,6,,,,,,,,,,,779.8298,780.2997,780.5161,782.3236,space,1.7781,,782.3236,34,66,783.3009,783.3009,783.3145,,,,0,1,1,1,1,30,130,,,,,,,,
,,6151ec9f471555755f408e15,65af52feba138c82e9dc71bd,2024-01-23_07h49.18.490,bars,2023.2.3,Win32,59.88023952,657b66ea316d21385b68909f,,,,,,,,,,,783.3152,784.3065,,,784.8166,785.0492,,60,60,,,,,,,,,,,,,,,,bars/032.png,bars/mask002.png,,,,,,,,,,,,0,2,,,,,,,6,9,6,8,,,,,,,,,,,784.3065,784.8166,785.0493,786.8298,space,1.7628,,786.8299,65,40,787.8211,787.8212,787.8333,,,,0,2,2,2,1,125,20,,,,,,,,
,,6151ec9f471555755f408e15,65af52feba138c82e9dc71bd,2024-01-23_07h49.18.490,bars,2023.2.3,Win32,59.88023952,657b66ea316d21385b68909f,,,,,,,,,,,787.8334,788.827,,,789.3449,789.5931,,12,12,,,,,,,,,,,,,,,,bars/039.png,bars/mask004.png,,,,,,,,,,,,3,1,,,,,,,8,7,6,8,,,,,,,,,,,788.8271,789.3448,789.5931,790.5985,space,0.959,,790.5985,17,87,791.5964,791.5965,791.6098,,,,0,3,3,3,1,175,105,,,,,,,,
,,6151ec9f471555755f408e15,65af52feba138c82e9dc71bd,2024-01-23_07h49.18.490,bars,2023.2.3,Win32,59.88023952,657b66ea316d21385b68909f,,,,,,,,,,,791.61,792.5956,,,793.0905,793.3463,,114,114,,,,,,,,,,,,,,,,bars/004.png,bars/mask000.png,,,,,,,,,,,,6,2,,,,,,,6,9,5,9,,,,,,,,,,,792.5957,793.0905,793.3463,794.2939,space,0.9029,,794.294,89,11,795.3294,795.3294,795.3332,,,,0,4,4,4,1,25,125,,,,,,,,
,,6151ec9f471555755f408e15,65af52feba138c82e9dc71bd,2024-01-23_07h49.18.490,bars,2023.2.3,Win32,59.88023952,657b66ea316d21385b68909f,,,,,,,,,,,795.3337,796.3366,,,796.8172,797.0719,,104,104,,,,,,,,,,,,,,,,bars/025.png,bars/mask004.png,,,,,,,,,,,,8,1,,,,,,,8,7,8,8,,,,,,,,,,,796.3366,796.8171,797.0719,798.0911,space,0.9685,,798.0911,1,64,799.0919,799.0919,799.0955,,,,0,5,5,5,1,105,40,,,,,,,,
,,6151ec9f471555755f408e15,65af52feba138c82e9dc71bd,2024-01-23_07h49.18.490,bars,2023.2.3,Win32,59.88023952,657b66ea316d21385b68909f,,,,,,,,,,,799.096,800.0877,,,800.5672,800.8109,,52,52,,,,,,,,,,,,,,,,bars/019.png,bars/mask000.png,,,,,,,,,,,,5,1,,,,,,,6,5,6,7,,,,,,,,,,,800.0877,800.5671,800.811,801.4722,space,0.6156,,801.4722,7,53,802.4905,802.4905,802.4913,,,,0,6,6,6,1,45,105,,,,,,,,
,,6151ec9f471555755f408e15,65af52feba138c82e9dc71bd,2024-01-23_07h49.18.490,bars,2023.2.3,Win32,59.88023952,657b66ea316d21385b68909f,,,,,,,,,,,802.4916,803.4896,,,803.9773,804.2308,,161,161,,,,,,,,,,,,,,,,bars/043.png,bars/mask007.png,,,,,,,,,,,,0,2,,,,,,,4,7,2,6,,,,,,,,,,,803.4896,803.9772,804.2309,804.9915,space,0.7178,,804.9915,49,31,805.981,805.9811,805.9851,,,,0,7,7,7,1,30,130,,,,,,,,
,,6151ec9f471555755f408e15,65af52feba138c82e9dc71bd,2024-01-23_07h49.18.490,bars,2023.2.3,Win32,59.88023952,657b66ea316d21385b68909f,,,,,,,,,,,805.9856,806.9879,,,807.4825,807.7399,,70,70,,,,,,,,,,,,,,,,bars/038.png,bars/mask008.png,,,,,,,,,,,,8,2,,,,,,,2,9,2,8,,,,,,,,,,,806.9879,807.4825,807.7399,808.7008,space,0.9276,,808.7008,85,0,809.6891,809.6893,809.6905,,,,0,8,8,8,1,165,70,,,,,,,,
,,6151ec9f471555755f408e15,65af52feba138c82e9dc71bd,2024-01-23_07h49.18.490,bars,2023.2.3,Win32,59.88023952,657b66ea316d21385b68909f,,,,,,,,,,,809.6909,810.6824,,,811.177,811.4156,,109,109,,,,,,,,,,,,,,,,bars/028.png,bars/mask009.png,,,,,,,,,,,,6,2,,,,,,,0,10,1,10,,,,,,,,,,,810.6825,811.1769,811.4157,812.1563,space,0.6982,,812.1563,64,11,813.1268,813.1269,813.1286,,,,0,9,9,9,1,45,120,,,,,,,,
,,6151ec9f471555755f408e15,65af52feba138c82e9dc71bd,2024-01-23_07h49.18.490,bars,2023.2.3,Win32,59.88023952,657b66ea316d21385b68909f,,,,,,,,,,,813.1291,814.1353,,,814.6487,814.904,,74,74,,,,,,,,,,,,,,,,bars/009.png,bars/mask001.png,,,,,,,,,,,,0,2,,,,,,,2,8,3,7,,,,,,,,,,,814.1354,814.6486,814.904,815.522,space,0.5912,,815.522,59,31,816.5278,816.528,816.5295,,,,0,10,10,10,1,15,105,,,,,,,,
,,6151ec9f471555755f408e15,65af52feba138c82e9dc71bd,2024-01-23_07h49.18.490,bars,2023.2.3,Win32,59.88023952,657b66ea316d21385b68909f,,,,,,,,,,,816.53,817.5104,,,817.9949,818.2464,,81,81,,,,,,,,,,,,,,,,bars/004.png,bars/mask006.png,,,,,,,,,,,,0,2,,,,,,,0,10,0,10,,,,,,,,,,,817.5105,817.9948,818.2465,819.6242,space,1.3345,,819.6243,56,44,820.5929,820.593,820.5945,,,,0,11,11,11,1,25,125,,,,,,,,
,,6151ec9f471555755f408e15,65af52feba138c82e9dc71bd,2024-01-23_07h49.18.490,bars,2023.2.3,Win32,59.88023952,657b66ea316d21385b68909f,,,,,,,,,,,820.5949,821.5662,,,822.0634,822.2989,,69,69,,,,,,,,,,,,,,,,bars/003.png,bars/mask004.png,,,,,,,,,,,,0,1,,,,,,,2,8,2,6,,,,,,,,,,,821.5662,822.0633,822.299,823.6496,space,1.3196,,823.6498,44,71,824.6412,824.6413,824.6549,,,,0,12,12,12,1,25,140,,,,,,,,
,,6151ec9f471555755f408e15,65af52feba138c82e9dc71bd,2024-01-23_07h49.18.490,bars,2023.2.3,Win32,59.88023952,657b66ea316d21385b68909f,,,,,,,,,,,824.6551,825.6412,,,826.1577,826.4076,,142,142,,,,,,,,,,,,,,,,bars/016.png,bars/mask000.png,,,,,,,,,,,,2,2,,,,,,,4,10,5,9,,,,,,,,,,,825.6413,826.1577,826.4077,827.2228,space,0.785,,827.2228,78,23,828.2248,828.2249,828.2294,,,,0,13,13,13,1,40,165,,,,,,,,
,,6151ec9f471555755f408e15,65af52feba138c82e9dc71bd,2024-01-23_07h49.18.490,bars,2023.2.3,Win32,59.88023952,657b66ea316d21385b68909f,,,,,,,,,,,828.2301,829.1988,,,829.6813,829.8997,,79,79,,,,,,,,,,,,,,,,bars/041.png,bars/mask001.png,,,,,,,,,,,,8,2,,,,,,,2,10,2,10,,,,,,,,,,,829.1989,829.6811,829.8997,832.0141,space,2.0855,,832.0143,59,6,833.0208,833.0208,833.0329,,,,0,14,14,14,1,20,85,,,,,,,,
,,6151ec9f471555755f408e15,65af52feba138c82e9dc71bd,2024-01-23_07h49.18.490,bars,2023.2.3,Win32,59.88023952,657b66ea316d21385b68909f,,,,,,,,,,,833.033,834.0387,,,834.5279,834.7824,,22,22,,,,,,,,,,,,,,,,bars/030.png,bars/mask007.png,,,,,,,,,,,,0,2,,,,,,,0,10,0,10,,,,,,,,,,,834.0388,834.5278,834.7826,835.7896,space,0.966,,835.7897,62,43,836.7931,836.7931,836.7945,,,,0,15,15,15,1,140,65,,,,,,,,
,,6151ec9f471555755f408e15,65af52feba138c82e9dc71bd,2024-01-23_07h49.18.490,bars,2023.2.3,Win32,59.88023952,657b66ea316d21385b68909f,,,,,,,,,,,836.7948,837.7945,,,838.2671,838.498,,162,162,,,,,,,,,,,,,,,,bars/004.png,bars/mask006.png,,,,,,,,,,,,0,2,,,,,,,2,10,2,10,,,,,,,,,,,837.7945,838.2671,838.498,839.1732,space,0.6466,,839.1732,43,37,840.1879,840.1879,840.1886,,,,0,16,16,16,1,25,125,,,,,,,,
,,6151ec9f471555755f408e15,65af52feba138c82e9dc71bd,2024-01-23_07h49.18.490,bars,2023.2.3,Win32,59.88023952,657b66ea316d21385b68909f,,,,,,,,,,,840.1888,841.2112,,,841.7101,841.9488,,166,166,,,,,,,,,,,,,,,,bars/030.png,bars/mask004.png,,,,,,,,,,,,0,1,,,,,,,0,10,0,8,,,,,,,,,,,841.2112,841.7101,841.9488,842.7193,space,0.7407,,842.7193,26,79,843.7111,843.7113,843.7158,,,,0,17,17,17,1,140,65,,,,,,,,
,,6151ec9f471555755f408e15,65af52feba138c82e9dc71bd,2024-01-23_07h49.18.490,bars,2023.2.3,Win32,59.88023952,657b66ea316d21385b68909f,,,,,,,,,,,843.7164,844.7089,,,845.1956,845.4297,,166,166,,,,,,,,,,,,,,,,bars/013.png,bars/mask008.png,,,,,,,,,,,,2,2,,,,,,,2,10,2,10,,,,,,,,,,,844.709,845.1955,845.4298,846.105,space,0.6317,,846.105,89,24,847.094,847.0941,847.0977,,,,0,18,18,18,1,75,10,,,,,,,,
,,6151ec9f471555755f408e15,65af52feba138c82e9dc71bd,2024-01-23_07h49.18.490,bars,2023.2.3,Win32,59.88023952,657b66ea316d21385b68909f,,,,,,,,,,,847.0981,848.0758,,,848.5816,848.8378,,166,166,,,,,,,,,,,,,,,,bars/018.png,bars/mask001.png,,,,,,,,,,,,0,1,,,,,,,0,10,1,10,,,,,,,,,,,848.0759,848.5816,848.8379,849.6111,space,0.7451,,849.6112,16,76,850.579,850.579,850.5813,,,,0,19,19,19,1,150,90,,,,,,,,
,,6151ec9f471555755f408e15,65af52feba138c82e9dc71bd,2024-01-23_07h49.18.490,bars,2023.2.3,Win32,59.88023952,657b66ea316d21385b68909f,,,,,,,,,,,850.5816,851.5721,,,852.0743,852.324,,151,151,,,,,,,,,,,,,,,,bars/045.png,bars/mask009.png,,,,,,,,,,,,0,2,,,,,,,2,10,1,8,,,,,,,,,,,851.5721,852.0742,852.3241,853.1582,space,0.8041,,853.1583,51,39,854.1394,854.1395,854.1431,,,,0,20,20,20,1,100,10,,,,,,,,
,,6151ec9f471555755f408e15,65af52feba138c82e9dc71bd,2024-01-23_07h49.18.490,bars,2023.2.3,Win32,59.88023952,657b66ea316d21385b68909f,,,,,,,,,,,854.1436,855.1261,,,855.6426,855.8752,,127,127,,,,,,,,,,,,,,,,bars/043.png,bars/mask005.png,,,,,,,,,,,,7,2,,,,,,,4,8,3,8,,,,,,,,,,,855.1264,855.6425,855.8752,857.2392,space,1.3355,,857.2393,83,3,858.2283,858.2284,858.2292,,,,0,21,21,21,1,30,130,,,,,,,,
,,6151ec9f471555755f408e15,65af52feba138c82e9dc71bd,2024-01-23_07h49.18.490,bars,2023.2.3,Win32,59.88023952,657b66ea316d21385b68909f,,,,,,,,,,,858.23,859.2444,,,859.7575,859.9801,,174,174,,,,,,,,,,,,,,,,bars/024.png,bars/mask003.png,,,,,,,,,,,,9,2,,,,,,,6,10,7,10,,,,,,,,,,,859.2444,859.7573,859.9801,861.5843,space,1.5734,,861.5844,54,4,862.5758,862.5759,862.5775,,,,0,22,22,22,1,120,170,,,,,,,,
,,6151ec9f471555755f408e15,65af52feba138c82e9dc71bd,2024-01-23_07h49.18.490,bars,2023.2.3,Win32,59.88023952,657b66ea316d21385b68909f,,,,,,,,,,,862.5778,863.5634,,,864.0634,864.3294,,66,66,,,,,,,,,,,,,,,,bars/049.png,bars/mask003.png,,,,,,,,,,,,0,2,,,,,,,4,10,4,10,,,,,,,,,,,863.5636,864.0633,864.3295,865.5785,space,1.2062,,865.5785,86,49,866.5441,866.5442,866.5459,,,,0,23,23,23,1,160,115,,,,,,,,
,,6151ec9f471555755f408e15,65af52feba138c82e9dc71bd,2024-01-23_07h49.18.490,bars,2023.2.3,Win32,59.88023952,657b66ea316d21385b68909f,,,,,,,,,,,866.5463,867.5582,,,868.026,868.2505,,120,120,,,,,,,,,,,,,,,,bars/046.png,bars/mask008.png,,,,,,,,,,,,0,2,,,,,,,6,8,5,9,,,,,,,,,,,867.5582,868.0259,868.2505,869.3233,space,1.0426,,869.3234,35,35,870.3351,870.3351,870.3364,,,,0,24,24,24,1,155,85,,,,,,,,
,,6151ec9f471555755f408e15,65af52feba138c82e9dc71bd,2024-01-23_07h49.18.490,bars,2023.2.3,Win32,59.88023952,657b66ea316d21385b68909f,,,,,,,,,,,870.3368,871.325,,,871.8296,872.074,,114,114,,,,,,,,,,,,,,,,bars/021.png,bars/mask009.png,,,,,,,,,,,,0,1,,,,,,,4,6,4,7,,,,,,,,,,,871.3251,871.8295,872.0741,874.2289,space,2.1256,,874.2289,41,44,875.2223,875.2224,875.2262,,,,0,25,25,25,1,155,70,,,,,,,,
,,6151ec9f471555755f408e15,65af52feba138c82e9dc71bd,2024-01-23_07h49.18.490,bars,2023.2.3,Win32,59.88023952,657b66ea316d21385b68909f,,,,,,,,,,,875.2266,876.2222,,,876.699,876.956,,41,41,,,,,,,,,,,,,,,,bars/034.png,bars/mask005.png,,,,,,,,,,,,2,2,,,,,,,2,8,1,8,,,,,,,,,,,876.2222,876.699,876.9561,877.8224,space,0.8389,,877.8224,84,24,878.8237,878.8238,878.8277,,,,0,26,26,26,1,125,65,,,,,,,,
,,6151ec9f471555755f408e15,65af52feba138c82e9dc71bd,2024-01-23_07h49.18.490,bars,2023.2.3,Win32,59.88023952,657b66ea316d21385b68909f,,,,,,,,,,,878.8283,879.8296,,,880.339,880.6039,,164,164,,,,,,,,,,,,,,,,bars/012.png,bars/mask008.png,,,,,,,,,,,,0,2,,,,,,,4,10,5,9,,,,,,,,,,,879.8297,880.339,880.6039,881.3592,space,0.7286,,881.3593,74,31,882.3322,882.3322,882.333,,,,0,27,27,27,1,90,15,,,,,,,,
,,6151ec9f471555755f408e15,65af52feba138c82e9dc71bd,2024-01-23_07h49.18.490,bars,2023.2.3,Win32,59.88023952,657b66ea316d21385b68909f,,,,,,,,,,,882.3333,883.3237,,,883.839,884.0913,,175,175,,,,,,,,,,,,,,,,bars/015.png,bars/mask009.png,,,,,,,,,,,,5,2,,,,,,,2,10,2,9,,,,,,,,,,,883.3238,883.839,884.0914,884.7784,space,0.6576,,884.7785,65,15,885.773,885.773,885.7738,,,,0,28,28,28,1,110,160,,,,,,,,
,,6151ec9f471555755f408e15,65af52feba138c82e9dc71bd,2024-01-23_07h49.18.490,bars,2023.2.3,Win32,59.88023952,657b66ea316d21385b68909f,,,,,,,,,,,885.7747,886.7571,,,887.2501,887.4796,,174,174,,,,,,,,,,,,,,,,bars/015.png,bars/mask000.png,,,,,,,,,,,,4,2,,,,,,,0,8,0,8,,,,,,,,,,,886.7571,887.2501,887.4796,888.1739,space,0.6515,,888.174,64,14,889.153,889.1531,889.1543,,,,0,29,29,29,1,110,160,,,,,,,,
,,6151ec9f471555755f408e15,65af52feba138c82e9dc71bd,2024-01-23_07h49.18.490,bars,2023.2.3,Win32,59.88023952,657b66ea316d21385b68909f,,,,,,,,,,,889.1548,890.1475,,,890.6633,890.9258,,154,154,,,,,,,,,,,,,,,,bars/035.png,bars/mask000.png,,,,,,,,,,,,1,1,,,,,,,2,10,2,9,,,,,,,,,,,890.1476,890.6631,890.9259,891.8555,space,0.8833,,891.8556,21,86,892.8669,892.8669,892.8702,,,,0,30,30,30,1,175,60,,,,,,,,
,,6151ec9f471555755f408e15,65af52feba138c82e9dc71bd,2024-01-23_07h49.18.490,bars,2023.2.3,Win32,59.88023952,657b66ea316d21385b68909f,,,,,,,,,,,892.8706,893.8707,,,894.3629,894.5999,,168,168,,,,,,,,,,,,,,,,bars/019.png,bars/mask008.png,,,,,,,,,,,,0,1,,,,,,,0,8,0,8,,,,,,,,,,,893.8708,894.3628,894.5999,895.2722,space,0.6432,,895.2723,57,63,896.2486,896.2486,896.25,,,,0,31,31,31,1,45,105,,,,,,,,
,,6151ec9f471555755f408e15,65af52feba138c82e9dc71bd,2024-01-23_07h49.18.490,bars,2023.2.3,Win32,59.88023952,657b66ea316d21385b68909f,,,,,,,,,,,896.2505,897.2669,,,897.754,898.0168,,17,17,,,,,,,,,,,,,,,,bars/048.png,bars/mask007.png,,,,,,,,,,,,1,2,,,,,,,0,6,0,5,,,,,,,,,,,897.267,897.754,898.0168,898.723,space,0.6768,,898.723,33,22,899.7168,899.7168,899.72,,,,0,32,32,32,1,50,175,,,,,,,,
,,6151ec9f471555755f408e15,65af52feba138c82e9dc71bd,2024-01-23_07h49.18.490,bars,2023.2.3,Win32,59.88023952,657b66ea316d21385b68909f,,,,,,,,,,,899.7204,900.7203,,,901.2219,901.4615,,93,93,,,,,,,,,,,,,,,,bars/016.png,bars/mask003.png,,,,,,,,,,,,0,1,,,,,,,0,4,1,4,,,,,,,,,,,900.7203,901.2218,901.4615,902.1772,space,0.6853,,902.1772,53,72,903.2058,903.2058,903.2093,,,,0,33,33,33,1,40,165,,,,,,,,
,,6151ec9f471555755f408e15,65af52feba138c82e9dc71bd,2024-01-23_07h49.18.490,bars,2023.2.3,Win32,59.88023952,657b66ea316d21385b68909f,,,,,,,,,,,903.2097,904.1996,,,904.6967,904.9277,,147,147,,,,,,,,,,,,,,,,bars/027.png,bars/mask000.png,,,,,,,,,,,,0,1,,,,,,,0,6,1,6,,,,,,,,,,,904.1996,904.6966,904.9277,905.7394,space,0.7834,,905.7394,37,83,906.7442,906.7448,906.7464,,,,0,34,34,34,1,110,50,,,,,,,,
,,6151ec9f471555755f408e15,65af52feba138c82e9dc71bd,2024-01-23_07h49.18.490,bars,2023.2.3,Win32,59.88023952,657b66ea316d21385b68909f,,,,,,,,,,,906.7467,907.7571,,,908.2376,908.4938,,148,148,,,,,,,,,,,,,,,,bars/022.png,bars/mask003.png,,,,,,,,,,,,0,2,,,,,,,2,8,2,7,,,,,,,,,,,907.7572,908.2375,908.4939,910.2922,space,1.7643,,910.2922,53,52,911.2573,911.2575,911.2712,,,,0,35,35,35,1,95,20,,,,,,,,
,,6151ec9f471555755f408e15,65af52feba138c82e9dc71bd,2024-01-23_07h49.18.490,bars,2023.2.3,Win32,59.88023952,657b66ea316d21385b68909f,,,,,,,,,,,911.2713,912.2709,,,912.7723,912.9856,,62,62,,,,,,,,,,,,,,,,bars/012.png,bars/mask000.png,,,,,,,,,,,,0,1,,,,,,,4,6,4,6,,,,,,,,,,,912.2709,912.7723,912.9857,913.7239,space,0.7111,,913.7239,28,47,914.7386,914.7386,914.742,,,,0,36,36,36,1,90,15,,,,,,,,
,,6151ec9f471555755f408e15,65af52feba138c82e9dc71bd,2024-01-23_07h49.18.490,bars,2023.2.3,Win32,59.88023952,657b66ea316d21385b68909f,,,,,,,,,,,914.7424,915.7382,,,916.2299,916.4915,,98,98,,,,,,,,,,,,,,,,bars/035.png,bars/mask000.png,,,,,,,,,,,,0,2,,,,,,,6,8,6,8,,,,,,,,,,,915.7382,916.2299,916.4916,918.0482,space,1.5092,,918.0483,77,38,919.0563,919.0564,919.0596,,,,0,37,37,37,1,175,60,,,,,,,,
,,6151ec9f471555755f408e15,65af52feba138c82e9dc71bd,2024-01-23_07h49.18.490,bars,2023.2.3,Win32,59.88023952,657b66ea316d21385b68909f,,,,,,,,,,,919.06,920.0619,,,920.5509,920.7996,,126,126,,,,,,,,,,,,,,,,bars/026.png,bars/mask007.png,,,,,,,,,,,,0,2,,,,,,,8,6,8,6,,,,,,,,,,,920.0619,920.5509,920.7997,921.6783,space,0.8471,,921.6784,89,41,922.6761,922.6762,922.6776,,,,0,38,38,38,1,35,85,,,,,,,,
,,6151ec9f471555755f408e15,65af52feba138c82e9dc71bd,2024-01-23_07h49.18.490,bars,2023.2.3,Win32,59.88023952,657b66ea316d21385b68909f,,,,,,,,,,,922.678,923.6911,,,924.1898,924.4254,,43,43,,,,,,,,,,,,,,,,bars/018.png,bars/mask004.png,,,,,,,,,,,,0,2,,,,,,,6,4,4,4,,,,,,,,,,,923.6912,924.1898,924.4254,926.3104,space,1.856,,926.3106,73,47,927.3246,927.3247,927.3256,,,,0,39,39,39,1,150,90,,,,,,,,
,,6151ec9f471555755f408e15,65af52feba138c82e9dc71bd,2024-01-23_07h49.18.490,bars,2023.2.3,Win32,59.88023952,657b66ea316d21385b68909f,,,,,,,,,,,927.3258,928.32,,,928.8285,929.0654,,151,151,,,,,,,,,,,,,,,,bars/008.png,bars/mask007.png,,,,,,,,,,,,0,2,,,,,,,4,6,5,5,,,,,,,,,,,928.32,928.8284,929.0655,930.3366,space,1.2424,,930.3366,41,29,931.307,931.3071,931.3087,,,,0,40,40,40,1,110,0,,,,,,,,
,,6151ec9f471555755f408e15,65af52feba138c82e9dc71bd,2024-01-23_07h49.18.490,bars,2023.2.3,Win32,59.88023952,657b66ea316d21385b68909f,,,,,,,,,,,931.3093,932.2983,,,932.7889,933.0478,,143,-37,,,,,,,,,,,,,,,,bars/019.png,bars/mask008.png,,,,,,,,,,,,0,2,,,,,,,6,8,8,8,,,,,,,,,,,932.2984,932.7889,933.0478,936.0893,space,3.0117,,936.0893,82,38,937.0959,937.096,937.1133,,,,0,41,41,41,1,45,105,,,,,,,,
,,6151ec9f471555755f408e15,65af52feba138c82e9dc71bd,2024-01-23_07h49.18.490,bars,2023.2.3,Win32,59.88023952,657b66ea316d21385b68909f,,,,,,,,,,,937.1136,938.1172,,,938.615,938.8539,,35,35,,,,,,,,,,,,,,,,bars/002.png,bars/mask003.png,,,,,,,,,,,,0,2,,,,,,,8,6,7,7,,,,,,,,,,,938.1173,938.615,938.8539,942.3443,space,3.4634,,942.3443,85,50,943.3282,943.3283,943.3412,,,,0,42,42,42,1,130,85,,,,,,,,
,,6151ec9f471555755f408e15,65af52feba138c82e9dc71bd,2024-01-23_07h49.18.490,bars,2023.2.3,Win32,59.88023952,657b66ea316d21385b68909f,,,,,,,,,,,943.3414,944.3448,,,944.8503,945.0971,,66,66,,,,,,,,,,,,,,,,bars/023.png,bars/mask008.png,,,,,,,,,,,,0,1,,,,,,,6,4,6,5,,,,,,,,,,,944.3448,944.8503,945.0971,947.7842,space,2.6566,,947.7843,46,49,948.8038,948.8038,948.8166,,,,0,43,43,43,1,20,115,,,,,,,,
,,6151ec9f471555755f408e15,65af52feba138c82e9dc71bd,2024-01-23_07h49.18.490,bars,2023.2.3,Win32,59.88023952,657b66ea316d21385b68909f,,,,,,,,,,,948.8168,949.7948,,,950.2795,950.525,,149,149,,,,,,,,,,,,,,,,bars/037.png,bars/mask009.png,,,,,,,,,,,,5,1,,,,,,,4,2,5,2,,,,,,,,,,,949.7948,950.2795,950.525,951.5523,space,0.998,,951.5523,1,44,952.5409,952.541,952.5425,,,,0,44,44,44,1,150,105,,,,,,,,
,,6151ec9f471555755f408e15,65af52feba138c82e9dc71bd,2024-01-23_07h49.18.490,bars,2023.2.3,Win32,59.88023952,657b66ea316d21385b68909f,,,,,,,,,,,952.5429,953.5432,,,954.0417,954.278,,66,66,,,,,,,,,,,,,,,,bars/032.png,bars/mask001.png,,,,,,,,,,,,0,2,,,,,,,2,0,4,0,,,,,,,,,,,953.5432,954.0416,954.278,955.2201,space,0.9082,,955.2202,59,46,956.2315,956.2316,956.2344,,,,0,45,45,45,1,125,20,,,,,,,,
,,6151ec9f471555755f408e15,65af52feba138c82e9dc71bd,2024-01-23_07h49.18.490,bars,2023.2.3,Win32,59.88023952,657b66ea316d21385b68909f,,,,,,,,,,,956.2347,957.2365,,,957.7128,957.9606,,126,126,,,,,,,,,,,,,,,,bars/002.png,bars/mask002.png,,,,,,,,,,,,2,1,,,,,,,4,0,2,0,,,,,,,,,,,957.2365,957.7128,957.9607,958.9103,space,0.9206,,958.9105,4,41,959.9108,959.9109,959.9145,,,,0,46,46,46,1,130,85,,,,,,,,
,,6151ec9f471555755f408e15,65af52feba138c82e9dc71bd,2024-01-23_07h49.18.490,bars,2023.2.3,Win32,59.88023952,657b66ea316d21385b68909f,,,,,,,,,,,959.9149,960.911,,,961.3954,961.627,,111,111,,,,,,,,,,,,,,,,bars/019.png,bars/mask000.png,,,,,,,,,,,,1,2,,,,,,,2,2,1,1,,,,,,,,,,,960.911,961.3954,961.627,962.5228,space,0.8674,,962.5229,66,6,963.5222,963.5222,963.5255,,,,0,47,47,47,1,45,105,,,,,,,,
,,6151ec9f471555755f408e15,65af52feba138c82e9dc71bd,2024-01-23_07h49.18.490,bars,2023.2.3,Win32,59.88023952,657b66ea316d21385b68909f,,,,,,,,,,,963.5258,964.5224,,,965.0122,965.245,,139,139,,,,,,,,,,,,,,,,bars/009.png,bars/mask004.png,,,,,,,,,,,,0,2,,,,,,,4,0,4,0,,,,,,,,,,,964.5224,965.0121,965.2451,966.1749,space,0.9015,,966.1749,56,34,967.1573,967.1574,967.1587,,,,0,48,48,48,1,15,105,,,,,,,,
,,6151ec9f471555755f408e15,65af52feba138c82e9dc71bd,2024-01-23_07h49.18.490,bars,2023.2.3,Win32,59.88023952,657b66ea316d21385b68909f,,,,,,,,,,,967.159,968.1486,,,968.6329,968.8632,,32,32,,,,,,,,,,,,,,,,bars/000.png,bars/mask008.png,,,,,,,,,,,,4,1,,,,,,,6,0,6,1,,,,,,,,,,,968.1486,968.6329,968.8632,969.817,space,0.9256,,969.8171,8,67,970.838,970.838,970.8414,,,,0,49,49,49,1,40,145,,,,,,,,
,,6151ec9f471555755f408e15,65af52feba138c82e9dc71bd,2024-01-23_07h49.18.490,bars,2023.2.3,Win32,59.88023952,657b66ea316d21385b68909f,,,,,,,,,,,,,,,,,,,,,,,,,,,,,,,,,,,,,,,,,,,,,,,,,,,,,,,,,,,,,,,,,,,,,,,,,,,,,,,,,,,,,,,,,,,,,970.8415,1030.8376,0,1,1,4,1,sequence_tables/blk030.csv
,,6151ec9f471555755f408e15,65af52feba138c82e9dc71bd,2024-01-23_07h49.18.490,bars,2023.2.3,Win32,59.88023952,657b66ea316d21385b68909f,,,,,,,,,,,1031.6043,1032.5749,,,1033.0503,1033.2659,,10,10,,,,,,,,,,,,,,,,bars/002.png,bars/mask008.png,,,,,,,,,,,,0,1,,,,,,,4,1,3,0,,,,,,1030.8502,1031.5972,space,0.7243,,1032.5751,1033.0502,1033.2659,1035.8525,space,2.5567,,1035.8526,60,75,1036.848,1036.8481,1036.8489,,,,0,0,0,0,1,130,85,,,,,,,,
,,6151ec9f471555755f408e15,65af52feba138c82e9dc71bd,2024-01-23_07h49.18.490,bars,2023.2.3,Win32,59.88023952,657b66ea316d21385b68909f,,,,,,,,,,,1036.8492,1037.8475,,,1038.3625,1038.6117,,33,33,,,,,,,,,,,,,,,,bars/034.png,bars/mask002.png,,,,,,,,,,,,0,2,,,,,,,6,0,5,0,,,,,,,,,,,1037.8475,1038.3624,1038.6118,1044.6143,space,5.9599,,1044.6144,88,32,1045.6122,1045.6123,1045.6287,,,,0,1,1,1,1,125,65,,,,,,,,
,,6151ec9f471555755f408e15,65af52feba138c82e9dc71bd,2024-01-23_07h49.18.490,bars,2023.2.3,Win32,59.88023952,657b66ea316d21385b68909f,,,,,,,,,,,1045.629,1046.6218,,,1047.1117,1047.3603,,92,92,,,,,,,,,,,,,,,,bars/007.png,bars/mask004.png,,,,,,,,,,,,0,2,,,,,,,4,0,4,3,,,,,,,,,,,1046.6218,1047.1117,1047.3603,1047.9601,space,0.5699,,1047.9601,83,37,1048.9331,1048.9332,1048.934,,,,0,2,2,2,1,175,55,,,,,,,,
,,6151ec9f471555755f408e15,65af52feba138c82e9dc71bd,2024-01-23_07h49.18.490,bars,2023.2.3,Win32,59.88023952,657b66ea316d21385b68909f,,,,,,,,,,,1048.9343,1049.9424,,,1050.471,1050.6971,,136,136,,,,,,,,,,,,,,,,bars/030.png,bars/mask009.png,,,,,,,,,,,,3,1,,,,,,,2,2,3,1,,,,,,,,,,,1049.9425,1050.4709,1050.6972,1051.524,space,0.7885,,1051.524,4,71,1052.5087,1052.5088,1052.5121,,,,0,3,3,3,1,140,65,,,,,,,,
,,6151ec9f471555755f408e15,65af52feba138c82e9dc71bd,2024-01-23_07h49.18.490,bars,2023.2.3,Win32,59.88023952,657b66ea316d21385b68909f,,,,,,,,,,,1052.5125,1053.5075,,,1054.0087,1054.2391,,25,25,,,,,,,,,,,,,,,,bars/028.png,bars/mask006.png,,,,,,,,,,,,1,1,,,,,,,4,4,4,4,,,,,,,,,,,1053.5075,1054.0086,1054.2391,1054.8588,space,0.57,,1054.8589,20,85,1055.8614,1055.8615,1055.8629,,,,0,4,4,4,1,45,120,,,,,,,,
,,6151ec9f471555755f408e15,65af52feba138c82e9dc71bd,2024-01-23_07h49.18.490,bars,2023.2.3,Win32,59.88023952,657b66ea316d21385b68909f,,,,,,,,,,,1055.8633,1056.8547,,,1057.3642,1057.5888,,93,93,,,,,,,,,,,,,,,,bars/009.png,bars/mask004.png,,,,,,,,,,,,4,2,,,,,,,2,6,2,6,,,,,,,,,,,1056.8548,1057.3642,1057.5889,1058.2582,space,0.621,,1058.2582,78,12,1059.2394,1059.2394,1059.2427,,,,0,5,5,5,1,15,105,,,,,,,,
,,6151ec9f471555755f408e15,65af52feba138c82e9dc71bd,2024-01-23_07h49.18.490,bars,2023.2.3,Win32,59.88023952,657b66ea316d21385b68909f,,,,,,,,,,,1059.2434,1060.2408,,,1060.7407,1060.9815,,131,131,,,,,,,,,,,,,,,,bars/009.png,bars/mask009.png,,,,,,,,,,,,1,2,,,,,,,4,4,5,4,,,,,,,,,,,1060.2409,1060.7406,1060.9816,1061.6781,space,0.6628,,1061.6781,64,26,1062.6719,1062.6719,1062.6725,,,,0,6,6,6,1,15,105,,,,,,,,
,,6151ec9f471555755f408e15,65af52feba138c82e9dc71bd,2024-01-23_07h49.18.490,bars,2023.2.3,Win32,59.88023952,657b66ea316d21385b68909f,,,,,,,,,,,1062.6729,1063.6419,,,1064.1279,1064.3694,,169,-11,,,,,,,,,,,,,,,,bars/016.png,bars/mask002.png,,,,,,,,,,,,4,2,,,,,,,2,6,1,5,,,,,,,,,,,1063.6419,1064.1279,1064.3694,1065.1027,space,0.7073,,1065.1027,51,4,1066.0949,1066.095,1066.0961,,,,0,7,7,7,1,40,165,,,,,,,,
,,6151ec9f471555755f408e15,65af52feba138c82e9dc71bd,2024-01-23_07h49.18.490,bars,2023.2.3,Win32,59.88023952,657b66ea316d21385b68909f,,,,,,,,,,,1066.0964,1067.0657,,,1067.5485,1067.7788,,34,34,,,,,,,,,,,,,,,,bars/002.png,bars/mask000.png,,,,,,,,,,,,0,2,,,,,,,0,4,0,5,,,,,,,,,,,1067.0657,1067.5484,1067.7788,1068.3959,space,0.5869,,1068.3959,84,51,1069.4086,1069.4086,1069.4093,,,,0,8,8,8,1,130,85,,,,,,,,
,,6151ec9f471555755f408e15,65af52feba138c82e9dc71bd,2024-01-23_07h49.18.490,bars,2023.2.3,Win32,59.88023952,657b66ea316d21385b68909f,,,,,,,,,,,1069.4095,1070.4209,,,1070.9002,1071.1644,,44,44,,,,,,,,,,,,,,,,bars/039.png,bars/mask009.png,,,,,,,,,,,,0,1,,,,,,,2,6,3,5,,,,,,,,,,,1070.421,1070.9002,1071.1644,1071.7746,space,0.5798,,1071.7747,49,61,1072.7757,1072.7759,1072.7796,,,,0,9,9,9,1,175,105,,,,,,,,
,,6151ec9f471555755f408e15,65af52feba138c82e9dc71bd,2024-01-23_07h49.18.490,bars,2023.2.3,Win32,59.88023952,657b66ea316d21385b68909f,,,,,,,,,,,1072.7802,1073.7451,,,1074.2208,1074.4623,,129,129,,,,,,,,,,,,,,,,bars/016.png,bars/mask008.png,,,,,,,,,,,,0,2,,,,,,,4,8,7,8,,,,,,,,,,,1073.7451,1074.2208,1074.4623,1075.045,space,0.552,,1075.045,89,36,1076.0595,1076.0596,1076.0634,,,,0,10,10,10,1,40,165,,,,,,,,
,,6151ec9f471555755f408e15,65af52feba138c82e9dc71bd,2024-01-23_07h49.18.490,bars,2023.2.3,Win32,59.88023952,657b66ea316d21385b68909f,,,,,,,,,,,1076.0639,1077.0621,,,1077.5414,1077.7572,,65,65,,,,,,,,,,,,,,,,bars/002.png,bars/mask001.png,,,,,,,,,,,,3,2,,,,,,,2,10,3,8,,,,,,,,,,,1077.0621,1077.5413,1077.7574,1078.425,space,0.6189,,1078.4251,65,20,1079.4042,1079.4043,1079.405,,,,0,11,11,11,1,130,85,,,,,,,,
,,6151ec9f471555755f408e15,65af52feba138c82e9dc71bd,2024-01-23_07h49.18.490,bars,2023.2.3,Win32,59.88023952,657b66ea316d21385b68909f,,,,,,,,,,,1079.4052,1080.3806,,,1080.8801,1081.1222,,133,133,,,,,,,,,,,,,,,,bars/015.png,bars/mask006.png,,,,,,,,,,,,0,1,,,,,,,0,10,2,10,,,,,,,,,,,1080.3806,1080.88,1081.1222,1081.8419,space,0.6904,,1081.842,23,27,1082.8445,1082.8447,1082.8476,,,,0,12,12,12,1,110,160,,,,,,,,
,,6151ec9f471555755f408e15,65af52feba138c82e9dc71bd,2024-01-23_07h49.18.490,bars,2023.2.3,Win32,59.88023952,657b66ea316d21385b68909f,,,,,,,,,,,1082.8479,1083.8287,,,1084.3113,1084.5658,,69,69,,,,,,,,,,,,,,,,bars/019.png,bars/mask002.png,,,,,,,,,,,,0,1,,,,,,,2,8,2,8,,,,,,,,,,,1083.8287,1084.3111,1084.5659,1085.1895,space,0.5934,,1085.1896,24,36,1086.1708,1086.1709,1086.1722,,,,0,13,13,13,1,45,105,,,,,,,,
,,6151ec9f471555755f408e15,65af52feba138c82e9dc71bd,2024-01-23_07h49.18.490,bars,2023.2.3,Win32,59.88023952,657b66ea316d21385b68909f,,,,,,,,,,,1086.1726,1087.1688,,,1087.6809,1087.9213,,15,15,,,,,,,,,,,,,,,,bars/020.png,bars/mask008.png,,,,,,,,,,,,1,2,,,,,,,4,6,5,5,,,,,,,,,,,1087.1688,1087.6808,1087.9214,1088.4703,space,0.5225,,1088.4703,80,25,1089.477,1089.4772,1089.4804,,,,0,14,14,14,1,115,170,,,,,,,,
,,6151ec9f471555755f408e15,65af52feba138c82e9dc71bd,2024-01-23_07h49.18.490,bars,2023.2.3,Win32,59.88023952,657b66ea316d21385b68909f,,,,,,,,,,,1089.4808,1090.4652,,,1090.9569,1091.1904,,53,53,,,,,,,,,,,,,,,,bars/001.png,bars/mask008.png,,,,,,,,,,,,0,2,,,,,,,6,8,5,8,,,,,,,,,,,1090.4653,1090.9569,1091.1905,1091.8076,space,0.5886,,1091.8076,77,32,1092.7766,1092.7766,1092.7774,,,,0,15,15,15,1,130,85,,,,,,,,
,,6151ec9f471555755f408e15,65af52feba138c82e9dc71bd,2024-01-23_07h49.18.490,bars,2023.2.3,Win32,59.88023952,657b66ea316d21385b68909f,,,,,,,,,,,1092.7776,1093.7629,,,1094.2718,1094.5079,,175,-5,,,,,,,,,,,,,,,,bars/049.png,bars/mask001.png,,,,,,,,,,,,4,1,,,,,,,8,6,8,7,,,,,,,,,,,1093.763,1094.2718,1094.5079,1094.9988,space,0.4538,,1094.9988,15,60,1096.0032,1096.0032,1096.0068,,,,0,16,16,16,1,160,115,,,,,,,,
,,6151ec9f471555755f408e15,65af52feba138c82e9dc71bd,2024-01-23_07h49.18.490,bars,2023.2.3,Win32,59.88023952,657b66ea316d21385b68909f,,,,,,,,,,,1096.0074,1097.0065,,,1097.5044,1097.7549,,164,164,,,,,,,,,,,,,,,,bars/023.png,bars/mask002.png,,,,,,,,,,,,0,1,,,,,,,10,4,10,3,,,,,,,,,,,1097.0066,1097.5044,1097.7549,1098.3082,space,0.5237,,1098.3082,36,49,1099.3072,1099.3074,1099.3089,,,,0,17,17,17,1,20,115,,,,,,,,
,,6151ec9f471555755f408e15,65af52feba138c82e9dc71bd,2024-01-23_07h49.18.490,bars,2023.2.3,Win32,59.88023952,657b66ea316d21385b68909f,,,,,,,,,,,1099.3093,1100.3021,,,1100.8027,1101.0664,,96,96,,,,,,,,,,,,,,,,bars/044.png,bars/mask001.png,,,,,,,,,,,,3,1,,,,,,,10,2,10,2,,,,,,,,,,,1100.3022,1100.8027,1101.0665,1101.644,space,0.5446,,1101.6441,21,59,1102.6254,1102.6255,1102.627,,,,0,18,18,18,1,75,155,,,,,,,,
,,6151ec9f471555755f408e15,65af52feba138c82e9dc71bd,2024-01-23_07h49.18.490,bars,2023.2.3,Win32,59.88023952,657b66ea316d21385b68909f,,,,,,,,,,,1102.6274,1103.629,,,1104.1138,1104.3607,,95,95,,,,,,,,,,,,,,,,bars/027.png,bars/mask005.png,,,,,,,,,,,,5,1,,,,,,,8,4,9,4,,,,,,,,,,,1103.629,1104.1137,1104.3607,1104.8437,space,0.4528,,1104.8437,15,45,1105.8328,1105.8329,1105.8342,,,,0,19,19,19,1,110,50,,,,,,,,
,,6151ec9f471555755f408e15,65af52feba138c82e9dc71bd,2024-01-23_07h49.18.490,bars,2023.2.3,Win32,59.88023952,657b66ea316d21385b68909f,,,,,,,,,,,1105.8346,1106.8526,,,1107.352,1107.5854,,172,172,,,,,,,,,,,,,,,,bars/041.png,bars/mask001.png,,,,,,,,,,,,1,1,,,,,,,10,2,10,3,,,,,,,,,,,1106.8527,1107.3519,1107.5855,1108.0874,space,0.4758,,1108.0875,28,87,1109.0768,1109.077,1109.0783,,,,0,20,20,20,1,20,85,,,,,,,,
,,6151ec9f471555755f408e15,65af52feba138c82e9dc71bd,2024-01-23_07h49.18.490,bars,2023.2.3,Win32,59.88023952,657b66ea316d21385b68909f,,,,,,,,,,,1109.0786,1110.0876,,,1110.5799,1110.8156,,134,134,,,,,,,,,,,,,,,,bars/017.png,bars/mask001.png,,,,,,,,,,,,6,1,,,,,,,10,0,9,0,,,,,,,,,,,1110.0877,1110.5799,1110.8156,1111.4891,space,0.6328,,1111.4892,11,89,1112.4586,1112.4587,1112.46,,,,0,21,21,21,1,145,45,,,,,,,,
,,6151ec9f471555755f408e15,65af52feba138c82e9dc71bd,2024-01-23_07h49.18.490,bars,2023.2.3,Win32,59.88023952,657b66ea316d21385b68909f,,,,,,,,,,,1112.4605,1113.4541,,,1113.9385,1114.166,,99,99,,,,,,,,,,,,,,,,bars/043.png,bars/mask007.png,,,,,,,,,,,,0,2,,,,,,,8,0,7,0,,,,,,,,,,,1113.4541,1113.9384,1114.166,1114.8541,space,0.6583,,1114.8541,69,31,1115.8227,1115.8227,1115.826,,,,0,22,22,22,1,30,130,,,,,,,,
,,6151ec9f471555755f408e15,65af52feba138c82e9dc71bd,2024-01-23_07h49.18.490,bars,2023.2.3,Win32,59.88023952,657b66ea316d21385b68909f,,,,,,,,,,,1115.8264,1116.8021,,,1117.294,1117.5151,,171,171,,,,,,,,,,,,,,,,bars/012.png,bars/mask003.png,,,,,,,,,,,,0,2,,,,,,,6,0,4,0,,,,,,,,,,,1116.8022,1117.2938,1117.5152,1118.036,space,0.5023,,1118.036,81,24,1119.0366,1119.0367,1119.038,,,,0,23,23,23,1,90,15,,,,,,,,
,,6151ec9f471555755f408e15,65af52feba138c82e9dc71bd,2024-01-23_07h49.18.490,bars,2023.2.3,Win32,59.88023952,657b66ea316d21385b68909f,,,,,,,,,,,1119.0384,1120.0153,,,1120.5114,1120.7397,,103,103,,,,,,,,,,,,,,,,bars/039.png,bars/mask004.png,,,,,,,,,,,,0,2,,,,,,,8,0,8,0,,,,,,,,,,,1120.0153,1120.5114,1120.7397,1121.2425,space,0.4681,,1121.2425,72,2,1122.2296,1122.2297,1122.2311,,,,0,24,24,24,1,175,105,,,,,,,,
,,6151ec9f471555755f408e15,65af52feba138c82e9dc71bd,2024-01-23_07h49.18.490,bars,2023.2.3,Win32,59.88023952,657b66ea316d21385b68909f,,,,,,,,,,,1122.2314,1123.2119,,,1123.6963,1123.9251,,98,98,,,,,,,,,,,,,,,,bars/032.png,bars/mask007.png,,,,,,,,,,,,0,1,,,,,,,6,0,5,0,,,,,,,,,,,1123.2121,1123.6963,1123.9252,1124.5087,space,0.5489,,1124.5089,27,78,1125.501,1125.5011,1125.5045,,,,0,25,25,25,1,125,20,,,,,,,,
,,6151ec9f471555755f408e15,65af52feba138c82e9dc71bd,2024-01-23_07h49.18.490,bars,2023.2.3,Win32,59.88023952,657b66ea316d21385b68909f,,,,,,,,,,,1125.5049,1126.5099,,,1126.9854,1127.2512,,93,93,,,,,,,,,,,,,,,,bars/008.png,bars/mask001.png,,,,,,,,,,,,3,1,,,,,,,8,2,7,4,,,,,,,,,,,1126.51,1126.9853,1127.2512,1127.7504,space,0.4712,,1127.7505,17,87,1128.74,1128.7401,1128.7414,,,,0,26,26,26,1,110,0,,,,,,,,
,,6151ec9f471555755f408e15,65af52feba138c82e9dc71bd,2024-01-23_07h49.18.490,bars,2023.2.3,Win32,59.88023952,657b66ea316d21385b68909f,,,,,,,,,,,1128.7417,1129.7367,,,1130.2074,1130.4316,,18,18,,,,,,,,,,,,,,,,bars/036.png,bars/mask002.png,,,,,,,,,,,,1,2,,,,,,,6,0,6,1,,,,,,,,,,,1129.7367,1130.2072,1130.4317,1131.0038,space,0.5424,,1131.0038,53,2,1131.9871,1131.9872,1131.9907,,,,0,27,27,27,1,145,20,,,,,,,,
,,6151ec9f471555755f408e15,65af52feba138c82e9dc71bd,2024-01-23_07h49.18.490,bars,2023.2.3,Win32,59.88023952,657b66ea316d21385b68909f,,,,,,,,,,,1131.9911,1132.9714,,,1133.4627,1133.7207,,139,139,,,,,,,,,,,,,,,,bars/012.png,bars/mask003.png,,,,,,,,,,,,0,1,,,,,,,4,2,4,3,,,,,,,,,,,1132.9716,1133.4626,1133.7207,1134.3481,space,0.6001,,1134.3481,49,56,1135.3415,1135.3415,1135.3449,,,,0,28,28,28,1,90,15,,,,,,,,
,,6151ec9f471555755f408e15,65af52feba138c82e9dc71bd,2024-01-23_07h49.18.490,bars,2023.2.3,Win32,59.88023952,657b66ea316d21385b68909f,,,,,,,,,,,1135.3453,1136.3414,,,1136.832,1137.0847,,111,111,,,,,,,,,,,,,,,,bars/040.png,bars/mask009.png,,,,,,,,,,,,0,1,,,,,,,2,0,2,0,,,,,,,,,,,1136.3415,1136.832,1137.0848,1137.6295,space,0.5183,,1137.6295,29,74,1138.6306,1138.6306,1138.6315,,,,0,29,29,29,1,140,5,,,,,,,,
,,6151ec9f471555755f408e15,65af52feba138c82e9dc71bd,2024-01-23_07h49.18.490,bars,2023.2.3,Win32,59.88023952,657b66ea316d21385b68909f,,,,,,,,,,,1138.6323,1139.6243,,,1140.1206,1140.3785,,70,70,,,,,,,,,,,,,,,,bars/047.png,bars/mask007.png,,,,,,,,,,,,0,2,,,,,,,4,0,4,0,,,,,,,,,,,1139.6244,1140.1205,1140.3785,1140.9375,space,0.5278,,1140.9375,55,0,1141.9231,1141.9233,1141.9267,,,,0,30,30,30,1,15,70,,,,,,,,
,,6151ec9f471555755f408e15,65af52feba138c82e9dc71bd,2024-01-23_07h49.18.490,bars,2023.2.3,Win32,59.88023952,657b66ea316d21385b68909f,,,,,,,,,,,1141.9272,1142.9205,,,1143.4279,1143.6795,,18,18,,,,,,,,,,,,,,,,bars/035.png,bars/mask005.png,,,,,,,,,,,,0,1,,,,,,,2,0,0,0,,,,,,,,,,,1142.9205,1143.4278,1143.6796,1143.9204,space,0.1995,,1143.9205,23,42,1144.9233,1144.9235,1144.9266,,,,0,31,31,31,1,175,60,,,,,,,,
,,6151ec9f471555755f408e15,65af52feba138c82e9dc71bd,2024-01-23_07h49.18.490,bars,2023.2.3,Win32,59.88023952,657b66ea316d21385b68909f,,,,,,,,,,,1144.9271,1145.9095,,,1146.4265,1146.6777,,43,43,,,,,,,,,,,,,,,,bars/026.png,bars/mask009.png,,,,,,,,,,,,0,1,,,,,,,0,0,0,0,,,,,,,,,,,1145.9096,1146.4263,1146.6778,1147.9705,space,1.2499,,1147.9706,8,42,1148.987,1148.987,1148.9878,,,,0,32,32,32,1,35,85,,,,,,,,
,,6151ec9f471555755f408e15,65af52feba138c82e9dc71bd,2024-01-23_07h49.18.490,bars,2023.2.3,Win32,59.88023952,657b66ea316d21385b68909f,,,,,,,,,,,1148.9879,1149.9888,,,1150.4958,1150.7435,,149,149,,,,,,,,,,,,,,,,bars/000.png,bars/mask004.png,,,,,,,,,,,,3,2,,,,,,,0,2,0,3,,,,,,,,,,,1149.9888,1150.4958,1150.7436,1151.8765,space,1.0882,,1151.8765,71,4,1152.8724,1152.8725,1152.876,,,,0,33,33,33,1,40,145,,,,,,,,
,,6151ec9f471555755f408e15,65af52feba138c82e9dc71bd,2024-01-23_07h49.18.490,bars,2023.2.3,Win32,59.88023952,657b66ea316d21385b68909f,,,,,,,,,,,1152.8764,1153.8872,,,1154.3711,1154.6374,,73,73,,,,,,,,,,,,,,,,bars/010.png,bars/mask003.png,,,,,,,,,,,,2,2,,,,,,,2,4,0,4,,,,,,,,,,,1153.8872,1154.371,1154.6375,1155.8048,space,1.1399,,1155.8049,88,18,1156.7801,1156.7801,1156.781,,,,0,34,34,34,1,165,55,,,,,,,,
,,6151ec9f471555755f408e15,65af52feba138c82e9dc71bd,2024-01-23_07h49.18.490,bars,2023.2.3,Win32,59.88023952,657b66ea316d21385b68909f,,,,,,,,,,,1156.7813,1157.7853,,,1158.3206,1158.5417,,164,-16,,,,,,,,,,,,,,,,bars/012.png,bars/mask003.png,,,,,,,,,,,,0,2,,,,,,,4,6,5,5,,,,,,,,,,,1157.7854,1158.3206,1158.5417,1159.5538,space,0.981,,1159.5538,74,31,1160.5363,1160.5363,1160.5371,,,,0,35,35,35,1,90,15,,,,,,,,
,,6151ec9f471555755f408e15,65af52feba138c82e9dc71bd,2024-01-23_07h49.18.490,bars,2023.2.3,Win32,59.88023952,657b66ea316d21385b68909f,,,,,,,,,,,1160.5372,1161.5479,,,1162.0456,1162.2728,,87,87,,,,,,,,,,,,,,,,bars/032.png,bars/mask003.png,,,,,,,,,,,,0,1,,,,,,,6,4,6,3,,,,,,,,,,,1161.548,1162.0454,1162.2729,1163.5192,space,1.199,,1163.5193,38,67,1164.489,1164.4891,1164.502,,,,0,36,36,36,1,125,20,,,,,,,,
,,6151ec9f471555755f408e15,65af52feba138c82e9dc71bd,2024-01-23_07h49.18.490,bars,2023.2.3,Win32,59.88023952,657b66ea316d21385b68909f,,,,,,,,,,,1164.5022,1165.5139,,,1166.0208,1166.2514,,26,26,,,,,,,,,,,,,,,,bars/023.png,bars/mask005.png,,,,,,,,,,,,3,1,,,,,,,4,6,4,6,,,,,,,,,,,1165.5139,1166.0208,1166.2514,1168.5258,space,2.2496,,1168.5259,6,89,1169.5114,1169.5115,1169.5242,,,,0,37,37,37,1,20,115,,,,,,,,
,,6151ec9f471555755f408e15,65af52feba138c82e9dc71bd,2024-01-23_07h49.18.490,bars,2023.2.3,Win32,59.88023952,657b66ea316d21385b68909f,,,,,,,,,,,1169.5244,1170.506,,,1170.9995,1171.2316,,176,-4,,,,,,,,,,,,,,,,bars/025.png,bars/mask002.png,,,,,,,,,,,,0,2,,,,,,,2,8,2,8,,,,,,,,,,,1170.5061,1170.9994,1171.2316,1172.6444,space,1.3939,,1172.6445,71,44,1173.6254,1173.6255,1173.6292,,,,0,38,38,38,1,105,40,,,,,,,,
,,6151ec9f471555755f408e15,65af52feba138c82e9dc71bd,2024-01-23_07h49.18.490,bars,2023.2.3,Win32,59.88023952,657b66ea316d21385b68909f,,,,,,,,,,,1173.6296,1174.6221,,,1175.1293,1175.3479,,124,124,,,,,,,,,,,,,,,,bars/049.png,bars/mask009.png,,,,,,,,,,,,7,2,,,,,,,4,10,4,10,,,,,,,,,,,1174.6223,1175.1293,1175.3479,1176.1038,space,0.7265,,1176.1038,36,9,1177.1198,1177.1199,1177.1206,,,,0,39,39,39,1,160,115,,,,,,,,
,,6151ec9f471555755f408e15,65af52feba138c82e9dc71bd,2024-01-23_07h49.18.490,bars,2023.2.3,Win32,59.88023952,657b66ea316d21385b68909f,,,,,,,,,,,1177.1208,1178.1367,,,1178.6361,1178.8732,,111,111,,,,,,,,,,,,,,,,bars/047.png,bars/mask007.png,,,,,,,,,,,,0,2,,,,,,,2,8,3,8,,,,,,,,,,,1178.1367,1178.636,1178.8733,1179.6572,space,0.7545,,1179.6573,84,41,1180.6361,1180.6361,1180.6367,,,,0,40,40,40,1,15,70,,,,,,,,
,,6151ec9f471555755f408e15,65af52feba138c82e9dc71bd,2024-01-23_07h49.18.490,bars,2023.2.3,Win32,59.88023952,657b66ea316d21385b68909f,,,,,,,,,,,1180.637,1181.6249,,,1182.115,1182.3764,,9,9,,,,,,,,,,,,,,,,bars/048.png,bars/mask005.png,,,,,,,,,,,,3,2,,,,,,,4,6,4,6,,,,,,,,,,,1181.6249,1182.115,1182.3765,1183.069,space,0.6485,,1183.0691,41,14,1184.0722,1184.0723,1184.0738,,,,0,41,41,41,1,50,175,,,,,,,,
,,6151ec9f471555755f408e15,65af52feba138c82e9dc71bd,2024-01-23_07h49.18.490,bars,2023.2.3,Win32,59.88023952,657b66ea316d21385b68909f,,,,,,,,,,,1184.0742,1185.086,,,1185.5649,1185.8071,,33,33,,,,,,,,,,,,,,,,bars/003.png,bars/mask008.png,,,,,,,,,,,,3,1,,,,,,,6,8,4,10,,,,,,,,,,,1185.086,1185.5648,1185.8072,1186.7899,space,0.9361,,1186.79,8,73,1187.7973,1187.7974,1187.8004,,,,0,42,42,42,1,25,140,,,,,,,,
,,6151ec9f471555755f408e15,65af52feba138c82e9dc71bd,2024-01-23_07h49.18.490,bars,2023.2.3,Win32,59.88023952,657b66ea316d21385b68909f,,,,,,,,,,,1187.8007,1188.8077,,,1189.2844,1189.5068,,94,94,,,,,,,,,,,,,,,,bars/037.png,bars/mask004.png,,,,,,,,,,,,6,2,,,,,,,8,10,8,10,,,,,,,,,,,1188.8078,1189.2844,1189.5069,1190.2073,space,0.6532,,1190.2074,56,11,1191.2371,1191.2371,1191.2409,,,,0,43,43,43,1,150,105,,,,,,,,
,,6151ec9f471555755f408e15,65af52feba138c82e9dc71bd,2024-01-23_07h49.18.490,bars,2023.2.3,Win32,59.88023952,657b66ea316d21385b68909f,,,,,,,,,,,1191.2414,1192.2358,,,1192.7067,1192.9592,,161,161,,,,,,,,,,,,,,,,bars/038.png,bars/mask000.png,,,,,,,,,,,,4,1,,,,,,,6,10,5,10,,,,,,,,,,,1192.2358,1192.7067,1192.9592,1194.4105,space,1.422,,1194.4106,4,89,1195.3899,1195.39,1195.4075,,,,0,44,44,44,1,165,70,,,,,,,,
,,6151ec9f471555755f408e15,65af52feba138c82e9dc71bd,2024-01-23_07h49.18.490,bars,2023.2.3,Win32,59.88023952,657b66ea316d21385b68909f,,,,,,,,,,,1195.4078,1196.4025,,,1196.9149,1197.1866,,119,119,,,,,,,,,,,,,,,,bars/041.png,bars/mask008.png,,,,,,,,,,,,0,2,,,,,,,4,10,4,10,,,,,,,,,,,1196.4025,1196.9149,1197.1866,1197.8505,space,0.636,,1197.8505,81,34,1198.8535,1198.8536,1198.857,,,,0,45,45,45,1,20,85,,,,,,,,
,,6151ec9f471555755f408e15,65af52feba138c82e9dc71bd,2024-01-23_07h49.18.490,bars,2023.2.3,Win32,59.88023952,657b66ea316d21385b68909f,,,,,,,,,,,1198.8575,1199.8257,,,1200.3091,1200.5874,,43,43,,,,,,,,,,,,,,,,bars/017.png,bars/mask001.png,,,,,,,,,,,,8,2,,,,,,,6,10,6,9,,,,,,,,,,,1199.8257,1200.309,1200.5875,1201.3559,space,0.7411,,1201.3559,78,2,1202.3535,1202.3535,1202.3544,,,,0,46,46,46,1,145,45,,,,,,,,
,,6151ec9f471555755f408e15,65af52feba138c82e9dc71bd,2024-01-23_07h49.18.490,bars,2023.2.3,Win32,59.88023952,657b66ea316d21385b68909f,,,,,,,,,,,1202.3547,1203.3595,,,1203.8468,1204.0869,,153,153,,,,,,,,,,,,,,,,bars/004.png,bars/mask006.png,,,,,,,,,,,,1,2,,,,,,,4,8,2,8,,,,,,,,,,,1203.3596,1203.8467,1204.0869,1204.8757,space,0.7612,,1204.8757,52,28,1205.885,1205.885,1205.8857,,,,0,47,47,47,1,25,125,,,,,,,,
,,6151ec9f471555755f408e15,65af52feba138c82e9dc71bd,2024-01-23_07h49.18.490,bars,2023.2.3,Win32,59.88023952,657b66ea316d21385b68909f,,,,,,,,,,,1205.8858,1206.8773,,,1207.3718,1207.61,,146,146,,,,,,,,,,,,,,,,bars/029.png,bars/mask002.png,,,,,,,,,,,,0,1,,,,,,,6,10,6,10,,,,,,,,,,,1206.8774,1207.3717,1207.6101,1209.2815,space,1.6281,,1209.2815,56,79,1210.2702,1210.2702,1210.2877,,,,0,48,48,48,1,90,45,,,,,,,,
,,6151ec9f471555755f408e15,65af52feba138c82e9dc71bd,2024-01-23_07h49.18.490,bars,2023.2.3,Win32,59.88023952,657b66ea316d21385b68909f,,,,,,,,,,,1210.288,1211.2902,,,1211.7867,1212.0387,,119,119,,,,,,,,,,,,,,,,bars/034.png,bars/mask001.png,,,,,,,,,,,,5,1,,,,,,,4,10,6,10,,,,,,,,,,,1211.2903,1211.7866,1212.0388,1212.696,space,0.6283,,1212.696,6,54,1213.6716,1213.6717,1213.673,,,,0,49,49,49,1,125,65,,,,,,,,
,,6151ec9f471555755f408e15,65af52feba138c82e9dc71bd,2024-01-23_07h49.18.490,bars,2023.2.3,Win32,59.88023952,657b66ea316d21385b68909f,,,,,,,,,,,,,,,,,,,,,,,,,,,,,,,,,,,,,,,,,,,,,,,,,,,,,,,,,,,,,,,,,,,,,,,,,,,,,,,,,,,,,,,,,,,,,1213.6731,1273.6481,0,2,2,3,1,sequence_tables/blk008.csv
,,6151ec9f471555755f408e15,65af52feba138c82e9dc71bd,2024-01-23_07h49.18.490,bars,2023.2.3,Win32,59.88023952,657b66ea316d21385b68909f,,,,,,,,,,,1274.9983,1276.0017,,,1276.5043,1276.7486,,60,60,,,,,,,,,,,,,,,,bars/038.png,bars/mask000.png,,,,,,,,,,,,4,2,,,,,,,2,7,0,6,,,,,,1273.6644,1274.9919,space,1.3009,,1276.0018,1276.5043,1276.7486,1277.3632,space,0.5842,,1277.3633,75,10,1278.3525,1278.3525,1278.3557,,,,0,0,0,0,1,165,70,,,,,,,,
,,6151ec9f471555755f408e15,65af52feba138c82e9dc71bd,2024-01-23_07h49.18.490,bars,2023.2.3,Win32,59.88023952,657b66ea316d21385b68909f,,,,,,,,,,,1278.3561,1279.362,,,1279.854,1280.109,,110,110,,,,,,,,,,,,,,,,bars/049.png,bars/mask005.png,,,,,,,,,,,,8,2,,,,,,,0,9,1,10,,,,,,,,,,,1279.3621,1279.8539,1280.109,1280.6296,space,0.4928,,1280.6297,50,5,1281.6341,1281.6342,1281.6357,,,,0,1,1,1,1,160,115,,,,,,,,
,,6151ec9f471555755f408e15,65af52feba138c82e9dc71bd,2024-01-23_07h49.18.490,bars,2023.2.3,Win32,59.88023952,657b66ea316d21385b68909f,,,,,,,,,,,1281.6365,1282.6464,,,1283.1461,1283.3976,,63,63,,,,,,,,,,,,,,,,bars/026.png,bars/mask009.png,,,,,,,,,,,,2,2,,,,,,,0,7,1,7,,,,,,,,,,,1282.6466,1283.146,1283.3976,1283.836,space,0.4094,,1283.836,28,22,1284.8281,1284.8283,1284.8296,,,,0,2,2,2,1,35,85,,,,,,,,
,,6151ec9f471555755f408e15,65af52feba138c82e9dc71bd,2024-01-23_07h49.18.490,bars,2023.2.3,Win32,59.88023952,657b66ea316d21385b68909f,,,,,,,,,,,1284.83,1285.8302,,,1286.3289,1286.568,,11,11,,,,,,,,,,,,,,,,bars/041.png,bars/mask009.png,,,,,,,,,,,,1,1,,,,,,,2,9,1,9,,,,,,,,,,,1285.8302,1286.3289,1286.568,1286.6702,space,0.0696,,1286.6702,9,74,1287.6719,1287.6719,1287.6753,,,,0,3,3,3,1,20,85,,,,,,,,
,,6151ec9f471555755f408e15,65af52feba138c82e9dc71bd,2024-01-23_07h49.18.490,bars,2023.2.3,Win32,59.88023952,657b66ea316d21385b68909f,,,,,,,,,,,1287.6757,1288.6786,,,1289.1702,1289.411,,117,117,,,,,,,,,,,,,,,,bars/024.png,bars/mask000.png,,,,,,,,,,,,4,1,,,,,,,4,10,4,10,,,,,,,,,,,1288.6787,1289.1702,1289.411,1289.8701,space,0.4288,,1289.8701,3,53,1290.8693,1290.8693,1290.8702,,,,0,4,4,4,1,120,170,,,,,,,,
,,6151ec9f471555755f408e15,65af52feba138c82e9dc71bd,2024-01-23_07h49.18.490,bars,2023.2.3,Win32,59.88023952,657b66ea316d21385b68909f,,,,,,,,,,,1290.8705,1291.8697,,,1292.3562,1292.6101,,76,76,,,,,,,,,,,,,,,,bars/028.png,bars/mask003.png,,,,,,,,,,,,0,1,,,,,,,2,10,0,10,,,,,,,,,,,1291.8697,1292.3562,1292.6102,1292.7682,space,0.1159,,1292.7682,31,44,1293.7714,1293.7715,1293.7732,,,,0,5,5,5,1,45,120,,,,,,,,
,,6151ec9f471555755f408e15,65af52feba138c82e9dc71bd,2024-01-23_07h49.18.490,bars,2023.2.3,Win32,59.88023952,657b66ea316d21385b68909f,,,,,,,,,,,1293.7736,1294.7641,,,1295.2545,1295.4976,,71,71,,,,,,,,,,,,,,,,bars/035.png,bars/mask007.png,,,,,,,,,,,,6,2,,,,,,,4,10,5,9,,,,,,,,,,,1294.7642,1295.2544,1295.4976,1296.0366,space,0.508,,1296.0366,76,11,1297.0378,1297.0379,1297.0412,,,,0,6,6,6,1,175,60,,,,,,,,
,,6151ec9f471555755f408e15,65af52feba138c82e9dc71bd,2024-01-23_07h49.18.490,bars,2023.2.3,Win32,59.88023952,657b66ea316d21385b68909f,,,,,,,,,,,1297.0416,1298.0428,,,1298.5342,1298.772,,20,20,,,,,,,,,,,,,,,,bars/038.png,bars/mask006.png,,,,,,,,,,,,0,1,,,,,,,2,8,2,8,,,,,,,,,,,1298.0429,1298.5342,1298.772,1299.348,space,0.5464,,1299.3481,35,50,1300.3545,1300.3546,1300.358,,,,0,7,7,7,1,165,70,,,,,,,,
,,6151ec9f471555755f408e15,65af52feba138c82e9dc71bd,2024-01-23_07h49.18.490,bars,2023.2.3,Win32,59.88023952,657b66ea316d21385b68909f,,,,,,,,,,,1300.3582,1301.3622,,,1301.8453,1302.0914,,32,32,,,,,,,,,,,,,,,,bars/029.png,bars/mask009.png,,,,,,,,,,,,6,2,,,,,,,0,10,0,10,,,,,,,,,,,1301.3622,1301.8453,1302.0914,1302.6007,space,0.4802,,1302.6007,58,13,1303.5936,1303.5936,1303.597,,,,0,8,8,8,1,90,45,,,,,,,,
,,6151ec9f471555755f408e15,65af52feba138c82e9dc71bd,2024-01-23_07h49.18.490,bars,2023.2.3,Win32,59.88023952,657b66ea316d21385b68909f,,,,,,,,,,,1303.5973,1304.5978,,,1305.1042,1305.353,,67,67,,,,,,,,,,,,,,,,bars/016.png,bars/mask005.png,,,,,,,,,,,,0,1,,,,,,,2,8,2,8,,,,,,,,,,,1304.5978,1305.104,1305.3533,1307.6006,space,2.1987,,1307.6007,27,82,1308.5812,1308.5813,1308.5849,,,,0,9,9,9,1,40,165,,,,,,,,
,,6151ec9f471555755f408e15,65af52feba138c82e9dc71bd,2024-01-23_07h49.18.490,bars,2023.2.3,Win32,59.88023952,657b66ea316d21385b68909f,,,,,,,,,,,1308.5854,1309.6002,,,1310.1097,1310.3424,,126,126,,,,,,,,,,,,,,,,bars/035.png,bars/mask003.png,,,,,,,,,,,,0,1,,,,,,,0,10,0,10,,,,,,,,,,,1309.6002,1310.1097,1310.3425,1311.5534,space,1.183,,1311.5535,49,66,1312.5313,1312.5314,1312.5327,,,,0,10,10,10,1,175,60,,,,,,,,
,,6151ec9f471555755f408e15,65af52feba138c82e9dc71bd,2024-01-23_07h49.18.490,bars,2023.2.3,Win32,59.88023952,657b66ea316d21385b68909f,,,,,,,,,,,1312.533,1313.5057,,,1313.9811,1314.2232,,70,70,,,,,,,,,,,,,,,,bars/006.png,bars/mask002.png,,,,,,,,,,,,0,2,,,,,,,0,8,1,8,,,,,,,,,,,1313.5057,1313.9811,1314.2232,1315.1153,space,0.8459,,1315.1154,35,30,1316.0988,1316.0989,1316.102,,,,0,11,11,11,1,35,100,,,,,,,,
,,6151ec9f471555755f408e15,65af52feba138c82e9dc71bd,2024-01-23_07h49.18.490,bars,2023.2.3,Win32,59.88023952,657b66ea316d21385b68909f,,,,,,,,,,,1316.1024,1317.1089,,,1317.613,1317.8516,,1,1,,,,,,,,,,,,,,,,bars/010.png,bars/mask001.png,,,,,,,,,,,,0,1,,,,,,,0,6,1,5,,,,,,,,,,,1317.1089,1317.613,1317.8517,1318.4315,space,0.5521,,1318.4315,16,54,1319.4134,1319.4134,1319.4165,,,,0,12,12,12,1,165,55,,,,,,,,
,,6151ec9f471555755f408e15,65af52feba138c82e9dc71bd,2024-01-23_07h49.18.490,bars,2023.2.3,Win32,59.88023952,657b66ea316d21385b68909f,,,,,,,,,,,1319.4169,1320.4091,,,1320.9117,1321.1428,,157,157,,,,,,,,,,,,,,,,bars/009.png,bars/mask005.png,,,,,,,,,,,,0,1,,,,,,,2,4,3,2,,,,,,,,,,,1320.4092,1320.9117,1321.1429,1321.87,space,0.6847,,1321.87,38,52,1322.8757,1322.8757,1322.8766,,,,0,13,13,13,1,15,105,,,,,,,,
,,6151ec9f471555755f408e15,65af52feba138c82e9dc71bd,2024-01-23_07h49.18.490,bars,2023.2.3,Win32,59.88023952,657b66ea316d21385b68909f,,,,,,,,,,,1322.8769,1323.8791,,,1324.3478,1324.5789,,67,67,,,,,,,,,,,,,,,,bars/026.png,bars/mask000.png,,,,,,,,,,,,0,2,,,,,,,0,2,0,1,,,,,,,,,,,1323.8791,1324.3478,1324.579,1325.6287,space,1.0193,,1325.6287,32,18,1326.6225,1326.6226,1326.6262,,,,0,14,14,14,1,35,85,,,,,,,,
,,6151ec9f471555755f408e15,65af52feba138c82e9dc71bd,2024-01-23_07h49.18.490,bars,2023.2.3,Win32,59.88023952,657b66ea316d21385b68909f,,,,,,,,,,,1326.6267,1327.6058,,,1328.0901,1328.3427,,147,147,,,,,,,,,,,,,,,,bars/016.png,bars/mask006.png,,,,,,,,,,,,0,2,,,,,,,2,0,2,1,,,,,,,,,,,1327.606,1328.09,1328.3428,1329.2415,space,0.8555,,1329.2415,73,18,1330.2339,1330.234,1330.2347,,,,0,15,15,15,1,40,165,,,,,,,,
,,6151ec9f471555755f408e15,65af52feba138c82e9dc71bd,2024-01-23_07h49.18.490,bars,2023.2.3,Win32,59.88023952,657b66ea316d21385b68909f,,,,,,,,,,,1330.235,1331.2422,,,1331.7333,1331.9735,,66,66,,,,,,,,,,,,,,,,bars/003.png,bars/mask001.png,,,,,,,,,,,,0,1,,,,,,,0,2,0,3,,,,,,,,,,,1331.2422,1331.7333,1331.9735,1332.9011,space,0.8981,,1332.9012,41,74,1333.8727,1333.8728,1333.8856,,,,0,16,16,16,1,25,140,,,,,,,,
,,6151ec9f471555755f408e15,65af52feba138c82e9dc71bd,2024-01-23_07h49.18.490,bars,2023.2.3,Win32,59.88023952,657b66ea316d21385b68909f,,,,,,,,,,,1333.8858,1334.8833,,,1335.3762,1335.6106,,120,120,,,,,,,,,,,,,,,,bars/026.png,bars/mask003.png,,,,,,,,,,,,0,2,,,,,,,2,0,2,0,,,,,,,,,,,1334.8833,1335.3762,1335.6106,1336.3896,space,0.7478,,1336.3897,85,35,1337.3722,1337.3723,1337.3763,,,,0,17,17,17,1,35,85,,,,,,,,
,,6151ec9f471555755f408e15,65af52feba138c82e9dc71bd,2024-01-23_07h49.18.490,bars,2023.2.3,Win32,59.88023952,657b66ea316d21385b68909f,,,,,,,,,,,1337.3768,1338.3543,,,1338.855,1339.1169,,54,54,,,,,,,,,,,,,,,,bars/044.png,bars/mask001.png,,,,,,,,,,,,2,1,,,,,,,4,2,5,1,,,,,,,,,,,1338.3543,1338.8549,1339.117,1339.8303,space,0.6869,,1339.8303,21,79,1340.8415,1340.8417,1340.8448,,,,0,18,18,18,1,75,155,,,,,,,,
,,6151ec9f471555755f408e15,65af52feba138c82e9dc71bd,2024-01-23_07h49.18.490,bars,2023.2.3,Win32,59.88023952,657b66ea316d21385b68909f,,,,,,,,,,,1340.8452,1341.8497,,,1342.3266,1342.5575,,55,55,,,,,,,,,,,,,,,,bars/017.png,bars/mask002.png,,,,,,,,,,,,3,2,,,,,,,2,4,3,5,,,,,,,,,,,1341.8497,1342.3266,1342.5575,1345.219,space,2.6331,,1345.219,90,10,1346.2344,1346.2346,1346.238,,,,0,19,19,19,1,145,45,,,,,,,,
,,6151ec9f471555755f408e15,65af52feba138c82e9dc71bd,2024-01-23_07h49.18.490,bars,2023.2.3,Win32,59.88023952,657b66ea316d21385b68909f,,,,,,,,,,,1346.2385,1347.2041,,,1347.6962,1347.9275,,45,45,,,,,,,,,,,,,,,,bars/037.png,bars/mask009.png,,,,,,,,,,,,0,2,,,,,,,4,6,4,8,,,,,,,,,,,1347.2042,1347.6962,1347.9275,1350.3169,space,2.3597,,1350.3169,75,60,1351.325,1351.3251,1351.3359,,,,0,20,20,20,1,150,105,,,,,,,,
,,6151ec9f471555755f408e15,65af52feba138c82e9dc71bd,2024-01-23_07h49.18.490,bars,2023.2.3,Win32,59.88023952,657b66ea316d21385b68909f,,,,,,,,,,,1351.3363,1352.3211,,,1352.8381,1353.0872,,19,19,,,,,,,,,,,,,,,,bars/032.png,bars/mask009.png,,,,,,,,,,,,4,2,,,,,,,2,4,3,4,,,,,,,,,,,1352.3213,1352.838,1353.0873,1357.8469,space,4.7122,,1357.8469,74,1,1358.8195,1358.8197,1358.832,,,,0,21,21,21,1,125,20,,,,,,,,
,,6151ec9f471555755f408e15,65af52feba138c82e9dc71bd,2024-01-23_07h49.18.490,bars,2023.2.3,Win32,59.88023952,657b66ea316d21385b68909f,,,,,,,,,,,1358.8323,1359.8306,,,1360.3285,1360.5733,,66,66,,,,,,,,,,,,,,,,bars/025.png,bars/mask002.png,,,,,,,,,,,,0,2,,,,,,,4,2,3,2,,,,,,,,,,,1359.8306,1360.3285,1360.5733,1363.2389,space,2.637,,1363.2389,39,26,1364.2274,1364.2275,1364.2383,,,,0,22,22,22,1,105,40,,,,,,,,
,,6151ec9f471555755f408e15,65af52feba138c82e9dc71bd,2024-01-23_07h49.18.490,bars,2023.2.3,Win32,59.88023952,657b66ea316d21385b68909f,,,,,,,,,,,1364.2385,1365.2354,,,1365.7119,1365.9549,,63,63,,,,,,,,,,,,,,,,bars/030.png,bars/mask003.png,,,,,,,,,,,,3,2,,,,,,,2,4,1,3,,,,,,,,,,,1365.2354,1365.7119,1365.9549,1368.3119,space,2.323,,1368.3119,77,2,1369.3002,1369.3002,1369.3011,,,,0,23,23,23,1,140,65,,,,,,,,
,,6151ec9f471555755f408e15,65af52feba138c82e9dc71bd,2024-01-23_07h49.18.490,bars,2023.2.3,Win32,59.88023952,657b66ea316d21385b68909f,,,,,,,,,,,1369.3014,1370.2829,,,1370.7704,1371.0247,,61,61,,,,,,,,,,,,,,,,bars/016.png,bars/mask003.png,,,,,,,,,,,,0,1,,,,,,,0,2,0,3,,,,,,,,,,,1370.2829,1370.7703,1371.0247,1371.8158,space,0.7617,,1371.8158,21,76,1372.8193,1372.8194,1372.8234,,,,0,24,24,24,1,40,165,,,,,,,,
,,6151ec9f471555755f408e15,65af52feba138c82e9dc71bd,2024-01-23_07h49.18.490,bars,2023.2.3,Win32,59.88023952,657b66ea316d21385b68909f,,,,,,,,,,,1372.8241,1373.8257,,,1374.3116,1374.5549,,64,64,,,,,,,,,,,,,,,,bars/029.png,bars/mask003.png,,,,,,,,,,,,0,2,,,,,,,2,0,4,0,,,,,,,,,,,1373.8257,1374.3115,1374.5549,1375.7957,space,1.2121,,1375.7958,26,19,1376.7996,1376.7996,1376.8027,,,,0,25,25,25,1,90,45,,,,,,,,
,,6151ec9f471555755f408e15,65af52feba138c82e9dc71bd,2024-01-23_07h49.18.490,bars,2023.2.3,Win32,59.88023952,657b66ea316d21385b68909f,,,,,,,,,,,1376.8032,1377.8019,,,1378.3049,1378.5412,,54,54,,,,,,,,,,,,,,,,bars/021.png,bars/mask009.png,,,,,,,,,,,,0,2,,,,,,,0,0,1,1,,,,,,,,,,,1377.802,1378.3048,1378.5412,1379.6692,space,1.0981,,1379.6692,79,16,1380.6555,1380.6556,1380.6571,,,,0,26,26,26,1,155,70,,,,,,,,
,,6151ec9f471555755f408e15,65af52feba138c82e9dc71bd,2024-01-23_07h49.18.490,bars,2023.2.3,Win32,59.88023952,657b66ea316d21385b68909f,,,,,,,,,,,1380.6574,1381.6414,,,1382.1339,1382.3716,,3,3,,,,,,,,,,,,,,,,bars/009.png,bars/mask002.png,,,,,,,,,,,,2,1,,,,,,,2,0,3,0,,,,,,,,,,,1381.6415,1382.1339,1382.3716,1383.5724,space,1.1719,,1383.5725,12,78,1384.5588,1384.559,1384.5773,,,,0,27,27,27,1,15,105,,,,,,,,
,,6151ec9f471555755f408e15,65af52feba138c82e9dc71bd,2024-01-23_07h49.18.490,bars,2023.2.3,Win32,59.88023952,657b66ea316d21385b68909f,,,,,,,,,,,1384.5776,1385.5685,,,1386.0446,1386.2914,,92,92,,,,,,,,,,,,,,,,bars/003.png,bars/mask004.png,,,,,,,,,,,,0,2,,,,,,,0,2,0,2,,,,,,,,,,,1385.5686,1386.0445,1386.2914,1386.9219,space,0.6007,,1386.9219,67,48,1387.9187,1387.9188,1387.9224,,,,0,28,28,28,1,25,140,,,,,,,,
,,6151ec9f471555755f408e15,65af52feba138c82e9dc71bd,2024-01-23_07h49.18.490,bars,2023.2.3,Win32,59.88023952,657b66ea316d21385b68909f,,,,,,,,,,,1387.9228,1388.8941,,,1389.3883,1389.625,,178,-2,,,,,,,,,,,,,,,,bars/007.png,bars/mask003.png,,,,,,,,,,,,0,1,,,,,,,0,0,0,0,,,,,,,,,,,1388.8941,1389.3883,1389.625,1390.2761,space,0.6221,,1390.2761,3,57,1391.3029,1391.3029,1391.3066,,,,0,29,29,29,1,175,55,,,,,,,,
,,6151ec9f471555755f408e15,65af52feba138c82e9dc71bd,2024-01-23_07h49.18.490,bars,2023.2.3,Win32,59.88023952,657b66ea316d21385b68909f,,,,,,,,,,,1391.3072,1392.311,,,1392.8076,1393.053,,77,77,,,,,,,,,,,,,,,,bars/036.png,bars/mask009.png,,,,,,,,,,,,0,2,,,,,,,0,0,1,0,,,,,,,,,,,1392.3112,1392.8076,1393.0531,1393.8569,space,0.775,,1393.857,68,57,1394.8551,1394.8551,1394.8586,,,,0,30,30,30,1,145,20,,,,,,,,
,,6151ec9f471555755f408e15,65af52feba138c82e9dc71bd,2024-01-23_07h49.18.490,bars,2023.2.3,Win32,59.88023952,657b66ea316d21385b68909f,,,,,,,,,,,1394.859,1395.8604,,,1396.3292,1396.5671,,49,49,,,,,,,,,,,,,,,,bars/018.png,bars/mask004.png,,,,,,,,,,,,0,2,,,,,,,2,0,2,2,,,,,,,,,,,1395.8605,1396.3292,1396.5671,1397.4026,space,0.8087,,1397.4027,79,41,1398.4052,1398.4053,1398.4066,,,,0,31,31,31,1,150,90,,,,,,,,
,,6151ec9f471555755f408e15,65af52feba138c82e9dc71bd,2024-01-23_07h49.18.490,bars,2023.2.3,Win32,59.88023952,657b66ea316d21385b68909f,,,,,,,,,,,1398.4071,1399.3987,,,1399.8944,1400.1337,,42,42,,,,,,,,,,,,,,,,bars/033.png,bars/mask000.png,,,,,,,,,,,,2,1,,,,,,,4,2,4,1,,,,,,,,,,,1399.3987,1399.8943,1400.1337,1400.8271,space,0.6668,,1400.8272,17,67,1401.8306,1401.8307,1401.8344,,,,0,32,32,32,1,25,155,,,,,,,,
,,6151ec9f471555755f408e15,65af52feba138c82e9dc71bd,2024-01-23_07h49.18.490,bars,2023.2.3,Win32,59.88023952,657b66ea316d21385b68909f,,,,,,,,,,,1401.835,1402.8252,,,1403.3279,1403.5731,,148,148,,,,,,,,,,,,,,,,bars/035.png,bars/mask003.png,,,,,,,,,,,,1,1,,,,,,,6,4,7,4,,,,,,,,,,,1402.8253,1403.3278,1403.5732,1404.3178,space,0.714,,1404.3179,27,88,1405.3135,1405.3135,1405.3149,,,,0,33,33,33,1,175,60,,,,,,,,
,,6151ec9f471555755f408e15,65af52feba138c82e9dc71bd,2024-01-23_07h49.18.490,bars,2023.2.3,Win32,59.88023952,657b66ea316d21385b68909f,,,,,,,,,,,1405.3153,1406.2908,,,1406.7837,1407.0213,,138,138,,,,,,,,,,,,,,,,bars/043.png,bars/mask000.png,,,,,,,,,,,,1,2,,,,,,,8,2,8,2,,,,,,,,,,,1406.2909,1406.7836,1407.0213,1408.3166,space,1.2671,,1408.3166,72,8,1409.3361,1409.3362,1409.3391,,,,0,34,34,34,1,30,130,,,,,,,,
,,6151ec9f471555755f408e15,65af52feba138c82e9dc71bd,2024-01-23_07h49.18.490,bars,2023.2.3,Win32,59.88023952,657b66ea316d21385b68909f,,,,,,,,,,,1409.3395,1410.328,,,1410.8282,1411.0751,,40,40,,,,,,,,,,,,,,,,bars/028.png,bars/mask001.png,,,,,,,,,,,,8,1,,,,,,,10,0,10,0,,,,,,,,,,,1410.328,1410.8281,1411.0752,1413.1999,space,2.091,,1413.1999,5,80,1414.1908,1414.191,1414.2051,,,,0,35,35,35,1,45,120,,,,,,,,
,,6151ec9f471555755f408e15,65af52feba138c82e9dc71bd,2024-01-23_07h49.18.490,bars,2023.2.3,Win32,59.88023952,657b66ea316d21385b68909f,,,,,,,,,,,1414.2052,1415.2179,,,1415.704,1415.9686,,131,131,,,,,,,,,,,,,,,,bars/047.png,bars/mask005.png,,,,,,,,,,,,0,2,,,,,,,8,0,9,0,,,,,,,,,,,1415.218,1415.704,1415.9688,1416.7788,space,0.7825,,1416.7788,64,61,1417.7764,1417.7765,1417.7797,,,,0,36,36,36,1,15,70,,,,,,,,
,,6151ec9f471555755f408e15,65af52feba138c82e9dc71bd,2024-01-23_07h49.18.490,bars,2023.2.3,Win32,59.88023952,657b66ea316d21385b68909f,,,,,,,,,,,1417.7801,1418.7917,,,1419.2934,1419.5411,,6,6,,,,,,,,,,,,,,,,bars/017.png,bars/mask001.png,,,,,,,,,,,,0,2,,,,,,,10,2,9,3,,,,,,,,,,,1418.7918,1419.2934,1419.5412,1428.1424,space,8.5713,,1428.1424,41,39,1429.1202,1429.1203,1429.1327,,,,0,37,37,37,1,145,45,,,,,,,,
,,6151ec9f471555755f408e15,65af52feba138c82e9dc71bd,2024-01-23_07h49.18.490,bars,2023.2.3,Win32,59.88023952,657b66ea316d21385b68909f,,,,,,,,,,,1429.1328,1430.1378,,,1430.627,1430.8627,,125,125,,,,,,,,,,,,,,,,bars/002.png,bars/mask003.png,,,,,,,,,,,,8,1,,,,,,,8,0,9,0,,,,,,,,,,,1430.1379,1430.627,1430.8627,1432.5671,space,1.6746,,1432.5672,5,40,1433.5775,1433.5776,1433.5897,,,,0,38,38,38,1,130,85,,,,,,,,
,,6151ec9f471555755f408e15,65af52feba138c82e9dc71bd,2024-01-23_07h49.18.490,bars,2023.2.3,Win32,59.88023952,657b66ea316d21385b68909f,,,,,,,,,,,1433.59,1434.5907,,,1435.0913,1435.3348,,90,90,,,,,,,,,,,,,,,,bars/042.png,bars/mask006.png,,,,,,,,,,,,0,2,,,,,,,10,0,10,0,,,,,,,,,,,1434.5908,1435.0912,1435.3349,1435.9642,space,0.6026,,1435.9643,55,15,1436.9897,1436.9897,1436.9938,,,,0,39,39,39,1,145,75,,,,,,,,
,,6151ec9f471555755f408e15,65af52feba138c82e9dc71bd,2024-01-23_07h49.18.490,bars,2023.2.3,Win32,59.88023952,657b66ea316d21385b68909f,,,,,,,,,,,1436.9943,1437.98,,,1438.4778,1438.7159,,110,110,,,,,,,,,,,,,,,,bars/015.png,bars/mask005.png,,,,,,,,,,,,10,1,,,,,,,10,0,10,0,,,,,,,,,,,1437.98,1438.4777,1438.716,1439.4181,space,0.6757,,1439.4181,0,50,1440.4212,1440.4213,1440.4245,,,,0,40,40,40,1,110,160,,,,,,,,
,,6151ec9f471555755f408e15,65af52feba138c82e9dc71bd,2024-01-23_07h49.18.490,bars,2023.2.3,Win32,59.88023952,657b66ea316d21385b68909f,,,,,,,,,,,1440.425,1441.3974,,,1441.8867,1442.128,,145,145,,,,,,,,,,,,,,,,bars/018.png,bars/mask004.png,,,,,,,,,,,,5,1,,,,,,,8,0,6,0,,,,,,,,,,,1441.3974,1441.8866,1442.128,1442.8361,space,0.6772,,1442.8361,5,55,1443.8371,1443.8371,1443.8387,,,,0,41,41,41,1,150,90,,,,,,,,
,,6151ec9f471555755f408e15,65af52feba138c82e9dc71bd,2024-01-23_07h49.18.490,bars,2023.2.3,Win32,59.88023952,657b66ea316d21385b68909f,,,,,,,,,,,1443.8391,1444.8427,,,1445.3413,1445.5686,,46,46,,,,,,,,,,,,,,,,bars/023.png,bars/mask005.png,,,,,,,,,,,,1,1,,,,,,,10,2,10,3,,,,,,,,,,,1444.8428,1445.3412,1445.5687,1446.2491,space,0.6308,,1446.2491,26,69,1447.2268,1447.2268,1447.2277,,,,0,42,42,42,1,20,115,,,,,,,,
,,6151ec9f471555755f408e15,65af52feba138c82e9dc71bd,2024-01-23_07h49.18.490,bars,2023.2.3,Win32,59.88023952,657b66ea316d21385b68909f,,,,,,,,,,,1447.228,1448.234,,,1448.7243,1448.9711,,115,115,,,,,,,,,,,,,,,,bars/004.png,bars/mask008.png,,,,,,,,,,,,3,2,,,,,,,8,4,9,4,,,,,,,,,,,1448.234,1448.7242,1448.9712,1449.6959,space,0.6783,,1449.6959,90,10,1450.6889,1450.6889,1450.6923,,,,0,43,43,43,1,25,125,,,,,,,,
,,6151ec9f471555755f408e15,65af52feba138c82e9dc71bd,2024-01-23_07h49.18.490,bars,2023.2.3,Win32,59.88023952,657b66ea316d21385b68909f,,,,,,,,,,,1450.6928,1451.6805,,,1452.2177,1452.4509,,29,29,,,,,,,,,,,,,,,,bars/031.png,bars/mask004.png,,,,,,,,,,,,1,2,,,,,,,10,2,9,1,,,,,,,,,,,1451.6807,1452.2177,1452.4509,1453.1427,space,0.6643,,1453.1427,89,6,1454.144,1454.144,1454.1447,,,,0,44,44,44,1,120,35,,,,,,,,
,,6151ec9f471555755f408e15,65af52feba138c82e9dc71bd,2024-01-23_07h49.18.490,bars,2023.2.3,Win32,59.88023952,657b66ea316d21385b68909f,,,,,,,,,,,1454.1448,1455.1342,,,1455.6342,1455.8786,,174,-6,,,,,,,,,,,,,,,,bars/032.png,bars/mask003.png,,,,,,,,,,,,0,2,,,,,,,8,0,8,0,,,,,,,,,,,1455.1342,1455.6342,1455.8786,1456.8993,space,0.9923,,1456.8994,49,26,1457.8998,1457.8998,1457.9012,,,,0,45,45,45,1,125,20,,,,,,,,
,,6151ec9f471555755f408e15,65af52feba138c82e9dc71bd,2024-01-23_07h49.18.490,bars,2023.2.3,Win32,59.88023952,657b66ea316d21385b68909f,,,,,,,,,,,1457.9016,1458.9152,,,1459.395,1459.6429,,87,-93,,,,,,,,,,,,,,,,bars/031.png,bars/mask005.png,,,,,,,,,,,,0,1,,,,,,,6,0,8,1,,,,,,,,,,,1458.9153,1459.395,1459.643,1464.5004,space,4.826,,1464.5005,33,52,1465.4892,1465.4892,1465.5067,,,,0,46,46,46,1,120,35,,,,,,,,
,,6151ec9f471555755f408e15,65af52feba138c82e9dc71bd,2024-01-23_07h49.18.490,bars,2023.2.3,Win32,59.88023952,657b66ea316d21385b68909f,,,,,,,,,,,1465.5069,1466.4838,,,1466.9799,1467.2183,,73,73,,,,,,,,,,,,,,,,bars/003.png,bars/mask006.png,,,,,,,,,,,,0,1,,,,,,,8,0,7,0,,,,,,,,,,,1466.4839,1466.9797,1467.2183,1469.1087,space,1.8653,,1469.1087,48,67,1470.087,1470.0871,1470.0886,,,,0,47,47,47,1,25,140,,,,,,,,
,,6151ec9f471555755f408e15,65af52feba138c82e9dc71bd,2024-01-23_07h49.18.490,bars,2023.2.3,Win32,59.88023952,657b66ea316d21385b68909f,,,,,,,,,,,1470.089,1471.0895,,,1471.5872,1471.8228,,42,42,,,,,,,,,,,,,,,,bars/040.png,bars/mask000.png,,,,,,,,,,,,0,2,,,,,,,6,2,6,3,,,,,,,,,,,1471.0896,1471.5871,1471.8228,1472.6957,space,0.8446,,1472.6957,82,37,1473.6899,1473.6899,1473.6935,,,,0,48,48,48,1,140,5,,,,,,,,
,,6151ec9f471555755f408e15,65af52feba138c82e9dc71bd,2024-01-23_07h49.18.490,bars,2023.2.3,Win32,59.88023952,657b66ea316d21385b68909f,,,,,,,,,,,1473.6938,1474.6707,,,1475.1492,1475.4104,,137,137,,,,,,,,,,,,,,,,bars/005.png,bars/mask000.png,,,,,,,,,,,,3,2,,,,,,,4,4,4,3,,,,,,,,,,,1474.6708,1475.1491,1475.4104,1476.0509,space,0.6109,,1476.0509,53,3,1477.0517,1477.0518,1477.0525,,,,0,49,49,49,1,10,140,,,,,,,,
,,6151ec9f471555755f408e15,65af52feba138c82e9dc71bd,2024-01-23_07h49.18.490,bars,2023.2.3,Win32,59.88023952,657b66ea316d21385b68909f,,,,,,,,,,,,,,,,,,,,,,,,,,,,,,,,,,,,,,,,,,,,,,,,,,,,,,,,,,,,,,,,,,,,,,,,,,,,,,,,,,,,,,,,,,,,,1477.0526,1537.0668,0,3,3,1,1,sequence_tables/blk019.csv
,,6151ec9f471555755f408e15,65af52feba138c82e9dc71bd,2024-01-23_07h49.18.490,bars,2023.2.3,Win32,59.88023952,657b66ea316d21385b68909f,,,,,,,,,,,1538.376,1539.3512,,,1539.8576,1540.0988,,51,51,,,,,,,,,,,,,,,,bars/013.png,bars/mask001.png,,,,,,,,,,,,2,1,,,,,,,10,2,10,0,,,,,,1537.0791,1538.3709,space,1.2697,,1539.3513,1539.8576,1540.0988,1541.7015,space,1.5752,,1541.7016,24,41,1542.7114,1542.7114,1542.7148,,,,0,0,0,0,1,75,10,,,,,,,,
,,6151ec9f471555755f408e15,65af52feba138c82e9dc71bd,2024-01-23_07h49.18.490,bars,2023.2.3,Win32,59.88023952,657b66ea316d21385b68909f,,,,,,,,,,,1542.7153,1543.7186,,,1544.217,1544.4539,,133,133,,,,,,,,,,,,,,,,bars/028.png,bars/mask002.png,,,,,,,,,,,,1,2,,,,,,,10,0,10,1,,,,,,,,,,,1543.7187,1544.2169,1544.454,1545.7505,space,1.2503,,1545.7506,88,13,1546.732,1546.7322,1546.7353,,,,0,1,1,1,1,45,120,,,,,,,,
,,6151ec9f471555755f408e15,65af52feba138c82e9dc71bd,2024-01-23_07h49.18.490,bars,2023.2.3,Win32,59.88023952,657b66ea316d21385b68909f,,,,,,,,,,,1546.7356,1547.7149,,,1548.2105,1548.4519,,70,70,,,,,,,,,,,,,,,,bars/010.png,bars/mask006.png,,,,,,,,,,,,0,2,,,,,,,8,2,8,0,,,,,,,,,,,1547.715,1548.2104,1548.4519,1548.9782,space,0.4935,,1548.9782,85,15,1549.9837,1549.9837,1549.9844,,,,0,2,2,2,1,165,55,,,,,,,,
,,6151ec9f471555755f408e15,65af52feba138c82e9dc71bd,2024-01-23_07h49.18.490,bars,2023.2.3,Win32,59.88023952,657b66ea316d21385b68909f,,,,,,,,,,,1549.9846,1550.9738,,,1551.4736,1551.7175,,145,145,,,,,,,,,,,,,,,,bars/003.png,bars/mask003.png,,,,,,,,,,,,0,2,,,,,,,6,0,6,0,,,,,,,,,,,1550.9738,1551.4736,1551.7175,1552.2447,space,0.4995,,1552.2447,60,5,1553.2397,1553.2397,1553.2411,,,,0,3,3,3,1,25,140,,,,,,,,
,,6151ec9f471555755f408e15,65af52feba138c82e9dc71bd,2024-01-23_07h49.18.490,bars,2023.2.3,Win32,59.88023952,657b66ea316d21385b68909f,,,,,,,,,,,1553.2414,1554.2187,,,1554.7248,1554.9699,,34,34,,,,,,,,,,,,,,,,bars/040.png,bars/mask006.png,,,,,,,,,,,,0,2,,,,,,,8,0,8,0,,,,,,,,,,,1554.2188,1554.7248,1554.97,1555.4998,space,0.5005,,1555.4998,74,29,1556.4849,1556.485,1556.4866,,,,0,4,4,4,1,140,5,,,,,,,,
,,6151ec9f471555755f408e15,65af52feba138c82e9dc71bd,2024-01-23_07h49.18.490,bars,2023.2.3,Win32,59.88023952,657b66ea316d21385b68909f,,,,,,,,,,,1556.4869,1557.4695,,,1557.9666,1558.2118,,143,143,,,,,,,,,,,,,,,,bars/049.png,bars/mask006.png,,,,,,,,,,,,3,1,,,,,,,6,2,7,3,,,,,,,,,,,1557.4697,1557.9666,1558.2118,1558.7666,space,0.5169,,1558.7667,17,28,1559.7655,1559.7656,1559.7685,,,,0,5,5,5,1,160,115,,,,,,,,
,,6151ec9f471555755f408e15,65af52feba138c82e9dc71bd,2024-01-23_07h49.18.490,bars,2023.2.3,Win32,59.88023952,657b66ea316d21385b68909f,,,,,,,,,,,1559.7689,1560.7725,,,1561.2586,1561.5067,,67,67,,,,,,,,,,,,,,,,bars/008.png,bars/mask002.png,,,,,,,,,,,,0,1,,,,,,,8,4,6,3,,,,,,,,,,,1560.7726,1561.2585,1561.5067,1562.1189,space,0.5786,,1562.119,43,67,1563.132,1563.132,1563.1327,,,,0,6,6,6,1,110,0,,,,,,,,
,,6151ec9f471555755f408e15,65af52feba138c82e9dc71bd,2024-01-23_07h49.18.490,bars,2023.2.3,Win32,59.88023952,657b66ea316d21385b68909f,,,,,,,,,,,1563.1328,1564.1284,,,1564.6227,1564.8612,,49,49,,,,,,,,,,,,,,,,bars/007.png,bars/mask008.png,,,,,,,,,,,,2,2,,,,,,,6,2,6,3,,,,,,,,,,,1564.1285,1564.6226,1564.8612,1565.4776,space,0.5855,,1565.4776,54,6,1566.4591,1566.4591,1566.4621,,,,0,7,7,7,1,175,55,,,,,,,,
,,6151ec9f471555755f408e15,65af52feba138c82e9dc71bd,2024-01-23_07h49.18.490,bars,2023.2.3,Win32,59.88023952,657b66ea316d21385b68909f,,,,,,,,,,,1566.4625,1567.4579,,,1567.9409,1568.1951,,109,109,,,,,,,,,,,,,,,,bars/023.png,bars/mask004.png,,,,,,,,,,,,0,2,,,,,,,8,0,8,0,,,,,,,,,,,1567.4579,1567.9408,1568.1951,1568.9177,space,0.6927,,1568.9178,89,6,1569.8884,1569.8884,1569.8899,,,,0,8,8,8,1,20,115,,,,,,,,
,,6151ec9f471555755f408e15,65af52feba138c82e9dc71bd,2024-01-23_07h49.18.490,bars,2023.2.3,Win32,59.88023952,657b66ea316d21385b68909f,,,,,,,,,,,1569.8903,1570.866,,,1571.3578,1571.5835,,117,117,,,,,,,,,,,,,,,,bars/022.png,bars/mask003.png,,,,,,,,,,,,2,1,,,,,,,6,0,7,0,,,,,,,,,,,1570.8661,1571.3578,1571.5836,1572.4541,space,0.8206,,1572.4542,22,83,1573.4595,1573.4595,1573.4633,,,,0,9,9,9,1,95,20,,,,,,,,
,,6151ec9f471555755f408e15,65af52feba138c82e9dc71bd,2024-01-23_07h49.18.490,bars,2023.2.3,Win32,59.88023952,657b66ea316d21385b68909f,,,,,,,,,,,1573.4636,1574.4681,,,1574.967,1575.2104,,111,111,,,,,,,,,,,,,,,,bars/015.png,bars/mask004.png,,,,,,,,,,,,7,1,,,,,,,8,2,7,2,,,,,,,,,,,1574.4681,1574.9669,1575.2104,1578.9236,space,3.6846,,1578.9236,1,49,1579.915,1579.915,1579.9314,,,,0,10,10,10,1,110,160,,,,,,,,
,,6151ec9f471555755f408e15,65af52feba138c82e9dc71bd,2024-01-23_07h49.18.490,bars,2023.2.3,Win32,59.88023952,657b66ea316d21385b68909f,,,,,,,,,,,1579.9315,1580.9206,,,1581.409,1581.6552,,8,8,,,,,,,,,,,,,,,,bars/036.png,bars/mask008.png,,,,,,,,,,,,2,2,,,,,,,6,4,6,3,,,,,,,,,,,1580.9207,1581.4089,1581.6552,1582.9845,space,1.296,,1582.9845,43,12,1583.9883,1583.9884,1583.9912,,,,0,11,11,11,1,145,20,,,,,,,,
,,6151ec9f471555755f408e15,65af52feba138c82e9dc71bd,2024-01-23_07h49.18.490,bars,2023.2.3,Win32,59.88023952,657b66ea316d21385b68909f,,,,,,,,,,,1583.9916,1585.0063,,,1585.5169,1585.7446,,56,56,,,,,,,,,,,,,,,,bars/021.png,bars/mask000.png,,,,,,,,,,,,0,2,,,,,,,4,2,4,0,,,,,,,,,,,1585.0065,1585.5168,1585.7446,1586.5001,space,0.7178,,1586.5001,81,14,1587.4678,1587.4679,1587.4692,,,,0,12,12,12,1,155,70,,,,,,,,
