init_variables.started,init_variables.stopped,participant,session,date,expName,psychopyVersion,OS,frameRate,study_id,instruction_exp.started,instruction_exp.stopped,key_resp_8.keys,key_resp_8.rt,key_resp_8.duration,instruction_single.started,instruction_single.stopped,key_resp_2.keys,key_resp_2.rt,key_resp_2.duration,interval.started,interval.stopped,cue_single.started,cue_single.stopped,mask.started,mask.stopped,ori_response_single.started,res_ori,res,ori_response_single.stopped,key_resp_single.keys,key_resp_single.rt,key_resp_single.duration,disp_single.started,disp_single.stopped,key_resp.keys,key_resp.rt,key_resp.duration,single.thisRepN,single.thisTrialN,single.thisN,single.thisIndex,single.ran,ori,path,mask_path,instruction_bandit.started,instruction_bandit.stopped,key_resp_6.keys,key_resp_6.rt,key_resp_6.duration,cue_bandit.started,cue_bandit.stopped,bandit_res.keys,bandit_res.rt,bandit_res.duration,outcome_bandit.started,rew,action,outcome_bandit.stopped,bandit.thisRepN,bandit.thisTrialN,bandit.thisN,bandit.thisIndex,bandit.ran,actual_rew1,actual_rew2,rew1,rew2,instruction_task.started,instruction_task.stopped,key_resp_7.keys,key_resp_7.rt,key_resp_7.duration,wait_ready.started,wait_ready.stopped,key_resp_3.keys,key_resp_3.rt,key_resp_3.duration,cue.started,cue.stopped,ori_response.started,ori_response.stopped,key_resp_5.keys,key_resp_5.rt,key_resp_5.duration,outcome.started,diff1,diff2,outcome.stopped,disp_outcome_practice.started,disp_outcome_practice.stopped,key_resp_4.keys,key_resp_4.rt,key_resp_4.duration,trials.thisRepN,trials.thisTrialN,trials.thisN,trials.thisIndex,trials.ran,ori1,ori2,break_blk.started,break_blk.stopped,block.thisRepN,block.thisTrialN,block.thisN,block.thisIndex,block.ran,condition_file
0.0002,0.0003,659e3309ae35db2b1664bf89,65af550c8504a42db6af7f98,2024-01-23_15h00.15.967,bars,2023.2.3,Win32,7.496589052,657b66ea316d21385b68909f,,,,,,,,,,,,,,,,,,,,,,,,,,,,,,,,,,,,,,,,,,,,,,,,,,,,,,,,,,,,,,,,,,,,,,,,,,,,,,,,,,,,,,,,,,,,,,,,,,,,
,,659e3309ae35db2b1664bf89,65af550c8504a42db6af7f98,2024-01-23_15h00.15.967,bars,2023.2.3,Win32,7.496589052,657b66ea316d21385b68909f,0.0005,10.1805,y,10.0529,,,,,,,,,,,,,,,,,,,,,,,,,,,,,,,,,,,,,,,,,,,,,,,,,,,,,,,,,,,,,,,,,,,,,,,,,,,,,,,,,,,,,,,,,,,,,,,,
,,659e3309ae35db2b1664bf89,65af550c8504a42db6af7f98,2024-01-23_15h00.15.967,bars,2023.2.3,Win32,7.496589052,657b66ea316d21385b68909f,,,,,,10.1806,26.1498,space,15.8393,0.0002,,,,,,,,,,,,,,,,,,,,,,,,,,,,,,,,,,,,,,,,,,,,,,,,,,,,,,,,,,,,,,,,,,,,,,,,,,,,,,,,,,,,,,,,,,
,,659e3309ae35db2b1664bf89,65af550c8504a42db6af7f98,2024-01-23_15h00.15.967,bars,2023.2.3,Win32,7.496589052,657b66ea316d21385b68909f,,,,,,,,,,,26.1547,27.1695,27.1696,27.6547,27.655,27.8899,27.8901,21,201,36.0395,space,8.0299,,36.0396,45.4827,space,9.3258,,0,0,0,1,1,20,bars/single001.png,bars/mask006.png,,,,,,,,,,,,,,,,,,,,,,,,,,,,,,,,,,,,,,,,,,,,,,,,,,,,,,,,,,,,,,,,
,,659e3309ae35db2b1664bf89,65af550c8504a42db6af7f98,2024-01-23_15h00.15.967,bars,2023.2.3,Win32,7.496589052,657b66ea316d21385b68909f,,,,,,,,,,,45.4886,46.4254,46.4255,46.8949,46.895,47.1334,47.1336,91,91,54.2028,space,6.9596,,54.2029,57.9313,space,3.6134,0.0002,0,1,1,4,1,95,bars/single004.png,bars/mask004.png,,,,,,,,,,,,,,,,,,,,,,,,,,,,,,,,,,,,,,,,,,,,,,,,,,,,,,,,,,,,,,,,
,,659e3309ae35db2b1664bf89,65af550c8504a42db6af7f98,2024-01-23_15h00.15.967,bars,2023.2.3,Win32,7.496589052,657b66ea316d21385b68909f,,,,,,,,,,,57.9369,58.9628,58.9629,59.4278,59.4278,59.6634,59.6634,37,217,74.8783,space,15.091,,74.8784,78.4769,space,3.4849,9.99999E-05,0,2,2,7,1,45,bars/single007.png,bars/mask009.png,,,,,,,,,,,,,,,,,,,,,,,,,,,,,,,,,,,,,,,,,,,,,,,,,,,,,,,,,,,,,,,,
,,659e3309ae35db2b1664bf89,65af550c8504a42db6af7f98,2024-01-23_15h00.15.967,bars,2023.2.3,Win32,7.496589052,657b66ea316d21385b68909f,,,,,,,,,,,78.4825,79.5072,79.5073,79.9863,79.9864,80.227,80.2271,53,53,83.1903,space,2.8542,,83.1904,86.7162,space,3.4017,,0,3,3,5,1,55,bars/single005.png,bars/mask008.png,,,,,,,,,,,,,,,,,,,,,,,,,,,,,,,,,,,,,,,,,,,,,,,,,,,,,,,,,,,,,,,,
,,659e3309ae35db2b1664bf89,65af550c8504a42db6af7f98,2024-01-23_15h00.15.967,bars,2023.2.3,Win32,7.496589052,657b66ea316d21385b68909f,,,,,,,,,,,86.7164,87.7348,87.7348,88.2007,88.2007,88.4327,88.4327,15,15,97.6087,space,9.062,,97.6088,99.6114,space,1.8811,,0,4,4,9,1,20,bars/single009.png,bars/mask006.png,,,,,,,,,,,,,,,,,,,,,,,,,,,,,,,,,,,,,,,,,,,,,,,,,,,,,,,,,,,,,,,,
,,659e3309ae35db2b1664bf89,65af550c8504a42db6af7f98,2024-01-23_15h00.15.967,bars,2023.2.3,Win32,7.496589052,657b66ea316d21385b68909f,,,,,,,,,,,99.6121,100.6316,100.6317,101.1268,101.1269,101.3671,101.3671,148,148,106.0867,space,4.6019,,106.0868,107.807,space,1.5955,,0,5,5,2,1,145,bars/single002.png,bars/mask003.png,,,,,,,,,,,,,,,,,,,,,,,,,,,,,,,,,,,,,,,,,,,,,,,,,,,,,,,,,,,,,,,,
,,659e3309ae35db2b1664bf89,65af550c8504a42db6af7f98,2024-01-23_15h00.15.967,bars,2023.2.3,Win32,7.496589052,657b66ea316d21385b68909f,,,,,,,,,,,107.8075,108.8198,108.8199,109.2851,109.2851,109.53,109.5301,28,208,117.0767,space,7.4296,0.0002,117.0768,118.8968,space,1.7062,,0,6,6,3,1,20,bars/single003.png,bars/mask005.png,,,,,,,,,,,,,,,,,,,,,,,,,,,,,,,,,,,,,,,,,,,,,,,,,,,,,,,,,,,,,,,,
,,659e3309ae35db2b1664bf89,65af550c8504a42db6af7f98,2024-01-23_15h00.15.967,bars,2023.2.3,Win32,7.496589052,657b66ea316d21385b68909f,,,,,,,,,,,118.8973,119.8136,119.8137,120.2868,120.2869,120.5275,120.5276,176,176,131.7657,space,11.1284,,131.7658,132.8598,space,0.9713,,0,7,7,6,1,175,bars/single006.png,bars/mask005.png,,,,,,,,,,,,,,,,,,,,,,,,,,,,,,,,,,,,,,,,,,,,,,,,,,,,,,,,,,,,,,,,
,,659e3309ae35db2b1664bf89,65af550c8504a42db6af7f98,2024-01-23_15h00.15.967,bars,2023.2.3,Win32,7.496589052,657b66ea316d21385b68909f,,,,,,,,,,,132.8602,133.7884,133.7884,134.2652,134.2653,134.4959,134.4959,144,-36,141.1801,space,6.571,,141.1803,142.4144,space,1.1044,,0,8,8,0,1,150,bars/single000.png,bars/mask006.png,,,,,,,,,,,,,,,,,,,,,,,,,,,,,,,,,,,,,,,,,,,,,,,,,,,,,,,,,,,,,,,,
,,659e3309ae35db2b1664bf89,65af550c8504a42db6af7f98,2024-01-23_15h00.15.967,bars,2023.2.3,Win32,7.496589052,657b66ea316d21385b68909f,,,,,,,,,,,142.4148,143.3283,143.3284,143.8015,143.8016,144.0334,144.0335,164,164,153.3583,space,9.2096,0.0002,153.3583,154.3411,space,0.8542,,0,9,9,8,1,160,bars/single008.png,bars/mask004.png,,,,,,,,,,,,,,,,,,,,,,,,,,,,,,,,,,,,,,,,,,,,,,,,,,,,,,,,,,,,,,,,
,,659e3309ae35db2b1664bf89,65af550c8504a42db6af7f98,2024-01-23_15h00.15.967,bars,2023.2.3,Win32,7.496589052,657b66ea316d21385b68909f,,,,,,,,,,,,,,,,,,,,,,,,,,,,,,,,,,,,,154.3418,164.0678,space,9.6148,,,,,,,,,,,,,,,,,,,,,,,,,,,,,,,,,,,,,,,,,,,,,,,,,,,,,,,,,,,,
,,659e3309ae35db2b1664bf89,65af550c8504a42db6af7f98,2024-01-23_15h00.15.967,bars,2023.2.3,Win32,7.496589052,657b66ea316d21385b68909f,,,,,,,,,,,,,,,,,,,,,,,,,,,,,,,,,,,,,,,,,,164.0748,167.0964,left,2.9138,,167.0966,9,1,168.0261,0,0,0,0,1,9,1,9,2,,,,,,,,,,,,,,,,,,,,,,,,,,,,,,,,,,,,,,,,,
,,659e3309ae35db2b1664bf89,65af550c8504a42db6af7f98,2024-01-23_15h00.15.967,bars,2023.2.3,Win32,7.496589052,657b66ea316d21385b68909f,,,,,,,,,,,,,,,,,,,,,,,,,,,,,,,,,,,,,,,,,,168.0267,170.0664,left,1.9307,,170.0665,10,1,171.0424,0,1,1,1,1,10,0,10,1,,,,,,,,,,,,,,,,,,,,,,,,,,,,,,,,,,,,,,,,,
,,659e3309ae35db2b1664bf89,65af550c8504a42db6af7f98,2024-01-23_15h00.15.967,bars,2023.2.3,Win32,7.496589052,657b66ea316d21385b68909f,,,,,,,,,,,,,,,,,,,,,,,,,,,,,,,,,,,,,,,,,,171.0503,174.2783,right,3.1127,,174.2784,2,2,175.2933,0,2,2,2,1,10,2,10,2,,,,,,,,,,,,,,,,,,,,,,,,,,,,,,,,,,,,,,,,,
,,659e3309ae35db2b1664bf89,65af550c8504a42db6af7f98,2024-01-23_15h00.15.967,bars,2023.2.3,Win32,7.496589052,657b66ea316d21385b68909f,,,,,,,,,,,,,,,,,,,,,,,,,,,,,,,,,,,,,,,,,,175.2991,176.0198,left,0.6038,,176.0199,7,1,177.0371,0,3,3,3,1,8,4,7,3,,,,,,,,,,,,,,,,,,,,,,,,,,,,,,,,,,,,,,,,,
,,659e3309ae35db2b1664bf89,65af550c8504a42db6af7f98,2024-01-23_15h00.15.967,bars,2023.2.3,Win32,7.496589052,657b66ea316d21385b68909f,,,,,,,,,,,,,,,,,,,,,,,,,,,,,,,,,,,,,,,,,,177.0375,179.187,left,2.0397,,179.187,5,1,180.2135,0,4,4,4,1,6,2,5,1,,,,,,,,,,,,,,,,,,,,,,,,,,,,,,,,,,,,,,,,,
,,659e3309ae35db2b1664bf89,65af550c8504a42db6af7f98,2024-01-23_15h00.15.967,bars,2023.2.3,Win32,7.496589052,657b66ea316d21385b68909f,,,,,,,,,,,,,,,,,,,,,,,,,,,,,,,,,,,,,,,,,,180.214,180.8149,right,0.4807,,180.8149,4,2,181.7361,0,5,5,5,1,4,4,4,4,,,,,,,,,,,,,,,,,,,,,,,,,,,,,,,,,,,,,,,,,
,,659e3309ae35db2b1664bf89,65af550c8504a42db6af7f98,2024-01-23_15h00.15.967,bars,2023.2.3,Win32,7.496589052,657b66ea316d21385b68909f,,,,,,,,,,,,,,,,,,,,,,,,,,,,,,,,,,,,,,,,,,181.7366,182.45,right,0.6042,,182.45,2,2,183.4617,0,6,6,6,1,2,2,1,2,,,,,,,,,,,,,,,,,,,,,,,,,,,,,,,,,,,,,,,,,
,,659e3309ae35db2b1664bf89,65af550c8504a42db6af7f98,2024-01-23_15h00.15.967,bars,2023.2.3,Win32,7.496589052,657b66ea316d21385b68909f,,,,,,,,,,,,,,,,,,,,,,,,,,,,,,,,,,,,,,,,,,183.4621,184.4143,left,0.8421,,184.4143,0,1,185.4327,0,7,7,7,1,0,0,0,1,,,,,,,,,,,,,,,,,,,,,,,,,,,,,,,,,,,,,,,,,
,,659e3309ae35db2b1664bf89,65af550c8504a42db6af7f98,2024-01-23_15h00.15.967,bars,2023.2.3,Win32,7.496589052,657b66ea316d21385b68909f,,,,,,,,,,,,,,,,,,,,,,,,,,,,,,,,,,,,,,,,,,185.4331,186.0228,right,0.4798,,186.0229,0,2,186.9396,0,8,8,8,1,0,2,1,0,,,,,,,,,,,,,,,,,,,,,,,,,,,,,,,,,,,,,,,,,
,,659e3309ae35db2b1664bf89,65af550c8504a42db6af7f98,2024-01-23_15h00.15.967,bars,2023.2.3,Win32,7.496589052,657b66ea316d21385b68909f,,,,,,,,,,,,,,,,,,,,,,,,,,,,,,,,,,,,,,,,,,186.94,187.6699,right,0.614,0.0002,187.6699,3,2,188.5998,0,9,9,9,1,2,4,2,3,,,,,,,,,,,,,,,,,,,,,,,,,,,,,,,,,,,,,,,,,
,,659e3309ae35db2b1664bf89,65af550c8504a42db6af7f98,2024-01-23_15h00.15.967,bars,2023.2.3,Win32,7.496589052,657b66ea316d21385b68909f,,,,,,,,,,,,,,,,,,,,,,,,,,,,,,,,,,,,,,,,,,188.6001,189.662,right,0.952,,189.6621,3,2,190.6824,0,10,10,10,1,0,2,0,3,,,,,,,,,,,,,,,,,,,,,,,,,,,,,,,,,,,,,,,,,
,,659e3309ae35db2b1664bf89,65af550c8504a42db6af7f98,2024-01-23_15h00.15.967,bars,2023.2.3,Win32,7.496589052,657b66ea316d21385b68909f,,,,,,,,,,,,,,,,,,,,,,,,,,,,,,,,,,,,,,,,,,190.6829,191.7735,left,0.9815,,191.7736,0,1,192.7433,0,11,11,11,1,0,4,0,3,,,,,,,,,,,,,,,,,,,,,,,,,,,,,,,,,,,,,,,,,
,,659e3309ae35db2b1664bf89,65af550c8504a42db6af7f98,2024-01-23_15h00.15.967,bars,2023.2.3,Win32,7.496589052,657b66ea316d21385b68909f,,,,,,,,,,,,,,,,,,,,,,,,,,,,,,,,,,,,,,,,,,192.7438,193.3332,right,0.4791,,193.3332,6,2,194.3531,0,12,12,12,1,2,6,1,6,,,,,,,,,,,,,,,,,,,,,,,,,,,,,,,,,,,,,,,,,
,,659e3309ae35db2b1664bf89,65af550c8504a42db6af7f98,2024-01-23_15h00.15.967,bars,2023.2.3,Win32,7.496589052,657b66ea316d21385b68909f,,,,,,,,,,,,,,,,,,,,,,,,,,,,,,,,,,,,,,,,,,194.3535,194.9458,right,0.4828,,194.9459,3,2,195.9637,0,13,13,13,1,0,4,1,3,,,,,,,,,,,,,,,,,,,,,,,,,,,,,,,,,,,,,,,,,
,,659e3309ae35db2b1664bf89,65af550c8504a42db6af7f98,2024-01-23_15h00.15.967,bars,2023.2.3,Win32,7.496589052,657b66ea316d21385b68909f,,,,,,,,,,,,,,,,,,,,,,,,,,,,,,,,,,,,,,,,,,195.9641,197.7587,left,1.6847,,197.7588,2,1,198.7759,0,14,14,14,1,2,6,2,7,,,,,,,,,,,,,,,,,,,,,,,,,,,,,,,,,,,,,,,,,
,,659e3309ae35db2b1664bf89,65af550c8504a42db6af7f98,2024-01-23_15h00.15.967,bars,2023.2.3,Win32,7.496589052,657b66ea316d21385b68909f,,,,,,,,,,,,,,,,,,,,,,,,,,,,,,,,,,,,,,,,,,198.7762,199.5043,left,0.6176,,199.5044,3,1,200.4352,0,15,15,15,1,4,8,3,9,,,,,,,,,,,,,,,,,,,,,,,,,,,,,,,,,,,,,,,,,
,,659e3309ae35db2b1664bf89,65af550c8504a42db6af7f98,2024-01-23_15h00.15.967,bars,2023.2.3,Win32,7.496589052,657b66ea316d21385b68909f,,,,,,,,,,,,,,,,,,,,,,,,,,,,,,,,,,,,,,,,,,200.4357,201.1677,left,0.6223,,201.1678,7,1,202.1848,0,16,16,16,1,6,6,7,7,,,,,,,,,,,,,,,,,,,,,,,,,,,,,,,,,,,,,,,,,
,,659e3309ae35db2b1664bf89,65af550c8504a42db6af7f98,2024-01-23_15h00.15.967,bars,2023.2.3,Win32,7.496589052,657b66ea316d21385b68909f,,,,,,,,,,,,,,,,,,,,,,,,,,,,,,,,,,,,,,,,,,202.1853,203.0188,left,0.7218,,203.0188,9,1,203.9459,0,17,17,17,1,8,4,9,5,,,,,,,,,,,,,,,,,,,,,,,,,,,,,,,,,,,,,,,,,
,,659e3309ae35db2b1664bf89,65af550c8504a42db6af7f98,2024-01-23_15h00.15.967,bars,2023.2.3,Win32,7.496589052,657b66ea316d21385b68909f,,,,,,,,,,,,,,,,,,,,,,,,,,,,,,,,,,,,,,,,,,203.9464,204.7736,left,0.7179,0.0002,204.7736,5,1,205.7932,0,18,18,18,1,6,2,5,1,,,,,,,,,,,,,,,,,,,,,,,,,,,,,,,,,,,,,,,,,
,,659e3309ae35db2b1664bf89,65af550c8504a42db6af7f98,2024-01-23_15h00.15.967,bars,2023.2.3,Win32,7.496589052,657b66ea316d21385b68909f,,,,,,,,,,,,,,,,,,,,,,,,,,,,,,,,,,,,,,,,,,205.7936,206.7646,right,0.8604,,206.7647,0,2,207.7889,0,19,19,19,1,8,0,7,0,,,,,,,,,,,,,,,,,,,,,,,,,,,,,,,,,,,,,,,,,
,,659e3309ae35db2b1664bf89,65af550c8504a42db6af7f98,2024-01-23_15h00.15.967,bars,2023.2.3,Win32,7.496589052,657b66ea316d21385b68909f,,,,,,,,,,,,,,,,,,,,,,,,,,,,,,,,,,,,,,,,,,,,,,,,,,,,,,,,,,,,207.7894,223.8071,space,15.9043,,,,,,,,,,,,,,,,,,,,,,,,,,,,,,,,,,,,,
,,659e3309ae35db2b1664bf89,65af550c8504a42db6af7f98,2024-01-23_15h00.15.967,bars,2023.2.3,Win32,7.496589052,657b66ea316d21385b68909f,,,,,,,,,,,224.8501,225.879,,,226.3511,226.5881,,50,50,,,,,,,,,,,,,,,,bars/028.png,bars/mask008.png,,,,,,,,,,,,8,1,,,,,,,9,4,9,4,,,,,,223.8143,224.8478,space,0.9304,0.0003,225.8793,226.351,226.5884,233.3142,space,6.6053,0.0002,233.3143,5,70,234.2635,234.2636,241.1259,space,6.7471,,0,0,0,0,1,45,120,,,,,,,,
,,659e3309ae35db2b1664bf89,65af550c8504a42db6af7f98,2024-01-23_15h00.15.967,bars,2023.2.3,Win32,7.496589052,657b66ea316d21385b68909f,,,,,,,,,,,241.1314,242.054,,,242.5253,242.7721,,123,-57,,,,,,,,,,,,,,,,bars/034.png,bars/mask000.png,,,,,,,,,,,,7,1,,,,,,,7,2,7,0,,,,,,,,,,,242.054,242.5252,242.7722,254.2976,space,11.4144,9.99999E-05,254.2976,2,58,255.2233,255.2234,260.5239,space,5.1751,,0,1,1,1,1,125,65,,,,,,,,
,,659e3309ae35db2b1664bf89,65af550c8504a42db6af7f98,2024-01-23_15h00.15.967,bars,2023.2.3,Win32,7.496589052,657b66ea316d21385b68909f,,,,,,,,,,,260.5295,261.446,,,261.935,262.1814,,87,87,,,,,,,,,,,,,,,,bars/012.png,bars/mask005.png,,,,,,,,,,,,7,1,,,,,,,9,0,8,1,,,,,,,,,,,261.446,261.9349,262.1814,270.594,space,8.3012,0.0002,270.5941,3,72,271.5402,271.5402,274.9886,space,3.3291,,0,2,2,2,1,90,15,,,,,,,,
,,659e3309ae35db2b1664bf89,65af550c8504a42db6af7f98,2024-01-23_15h00.15.967,bars,2023.2.3,Win32,7.496589052,657b66ea316d21385b68909f,,,,,,,,,,,274.9942,275.9343,,,276.4222,276.6677,,150,150,,,,,,,,,,,,,,,,bars/018.png,bars/mask003.png,,,,,,,,,,,,8,1,,,,,,,7,2,8,2,,,,,,,,,,,275.9343,276.4221,276.6678,289.6697,space,12.8896,9.99999E-05,289.6698,0,60,290.6064,290.6065,293.6902,space,2.947,,0,3,3,3,1,150,90,,,,,,,,
,,659e3309ae35db2b1664bf89,65af550c8504a42db6af7f98,2024-01-23_15h00.15.967,bars,2023.2.3,Win32,7.496589052,657b66ea316d21385b68909f,,,,,,,,,,,293.6905,294.6661,,,295.1445,295.3918,,14,14,,,,,,,,,,,,,,,,bars/003.png,bars/mask005.png,,,,,,,,,,,,6,1,,,,,,,9,4,9,4,,,,,,,,,,,294.6661,295.1444,295.3919,302.1287,space,6.6196,,302.1288,11,54,303.0221,303.0221,306.5141,space,3.3727,,0,4,4,4,1,25,140,,,,,,,,
,,659e3309ae35db2b1664bf89,65af550c8504a42db6af7f98,2024-01-23_15h00.15.967,bars,2023.2.3,Win32,7.496589052,657b66ea316d21385b68909f,,,,,,,,,,,306.5197,307.4513,,,307.9353,308.1807,,158,158,,,,,,,,,,,,,,,,bars/037.png,bars/mask007.png,,,,,,,,,,,,7,1,,,,,,,10,6,10,6,,,,,,,,,,,307.4514,307.9352,308.1808,313.1051,space,4.8103,,313.1051,8,53,314.067,314.0671,315.1098,space,0.9072,,0,5,5,5,1,150,105,,,,,,,,
,,659e3309ae35db2b1664bf89,65af550c8504a42db6af7f98,2024-01-23_15h00.15.967,bars,2023.2.3,Win32,7.496589052,657b66ea316d21385b68909f,,,,,,,,,,,315.1102,316.0625,,,316.5436,316.7862,,86,86,,,,,,,,,,,,,,,,bars/022.png,bars/mask005.png,,,,,,,,,,,,6,1,,,,,,,8,4,9,6,,,,,,,,,,,316.0626,316.5435,316.7862,322.6498,space,5.7495,,322.6498,9,66,323.5872,323.5873,326.6062,space,2.8983,,0,6,6,6,1,95,20,,,,,,,,
,,659e3309ae35db2b1664bf89,65af550c8504a42db6af7f98,2024-01-23_15h00.15.967,bars,2023.2.3,Win32,7.496589052,657b66ea316d21385b68909f,,,,,,,,,,,326.6067,327.5571,,,328.0504,328.2918,,171,171,,,,,,,,,,,,,,,,bars/020.png,bars/mask002.png,,,,,,,,,,,,2,2,,,,,,,10,2,10,2,,,,,,,,,,,327.5571,328.0503,328.2919,332.0053,space,3.5964,,332.0053,56,1,332.967,332.9671,334.239,space,1.153,,0,7,7,7,1,115,170,,,,,,,,
,,659e3309ae35db2b1664bf89,65af550c8504a42db6af7f98,2024-01-23_15h00.15.967,bars,2023.2.3,Win32,7.496589052,657b66ea316d21385b68909f,,,,,,,,,,,334.2394,335.2164,,,335.6962,335.9367,,32,32,,,,,,,,,,,,,,,,bars/043.png,bars/mask006.png,,,,,,,,,,,,9,1,,,,,,,10,4,10,4,,,,,,,,,,,335.2165,335.6962,335.9368,338.1555,space,2.1052,,338.1556,2,82,339.0997,339.0997,340.1512,space,0.916,,0,8,8,8,1,30,130,,,,,,,,
,,659e3309ae35db2b1664bf89,65af550c8504a42db6af7f98,2024-01-23_15h00.15.967,bars,2023.2.3,Win32,7.496589052,657b66ea316d21385b68909f,,,,,,,,,,,340.1515,341.0908,,,341.5787,341.8227,,4,184,,,,,,,,,,,,,,,,bars/039.png,bars/mask001.png,,,,,,,,,,,,4,1,,,,,,,8,6,6,5,,,,,,,,,,,341.0908,341.5787,341.8227,355.0631,space,13.1228,,355.0632,9,79,356.0543,356.0544,357.9784,space,1.794,,0,9,9,9,1,175,105,,,,,,,,
,,659e3309ae35db2b1664bf89,65af550c8504a42db6af7f98,2024-01-23_15h00.15.967,bars,2023.2.3,Win32,7.496589052,657b66ea316d21385b68909f,,,,,,,,,,,357.9788,358.9243,,,359.4142,359.6583,,88,88,,,,,,,,,,,,,,,,bars/022.png,bars/mask004.png,,,,,,,,,,,,5,1,,,,,,,6,4,6,5,,,,,,,,,,,358.9243,359.4141,359.6584,371.9046,space,12.1266,,371.9046,7,68,372.8646,372.8646,373.9113,space,0.9258,,0,10,10,10,1,95,20,,,,,,,,
,,659e3309ae35db2b1664bf89,65af550c8504a42db6af7f98,2024-01-23_15h00.15.967,bars,2023.2.3,Win32,7.496589052,657b66ea316d21385b68909f,,,,,,,,,,,373.9117,374.8519,,,375.3482,375.5956,,1,181,,,,,,,,,,,,,,,,bars/007.png,bars/mask006.png,,,,,,,,,,,,2,1,,,,,,,4,2,3,2,,,,,,,,,,,374.852,375.3482,375.5956,388.0257,space,12.3147,,388.0257,6,54,388.9992,388.9993,390.0469,space,0.9231,,0,11,11,11,1,175,55,,,,,,,,
,,659e3309ae35db2b1664bf89,65af550c8504a42db6af7f98,2024-01-23_15h00.15.967,bars,2023.2.3,Win32,7.496589052,657b66ea316d21385b68909f,,,,,,,,,,,390.0473,390.9803,,,391.4752,391.731,,131,131,,,,,,,,,,,,,,,,bars/043.png,bars/mask005.png,,,,,,,,,,,,2,2,,,,,,,2,0,3,2,,,,,,,,,,,390.9803,391.4752,391.731,394.7153,space,2.8652,,394.7154,79,1,395.6821,395.6822,396.9773,space,1.1748,,0,12,12,12,1,30,130,,,,,,,,
,,659e3309ae35db2b1664bf89,65af550c8504a42db6af7f98,2024-01-23_15h00.15.967,bars,2023.2.3,Win32,7.496589052,657b66ea316d21385b68909f,,,,,,,,,,,396.9776,397.9472,,,398.4396,398.685,,96,96,,,,,,,,,,,,,,,,bars/039.png,bars/mask007.png,,,,,,,,,,,,0,2,,,,,,,4,0,4,0,,,,,,,,,,,397.9473,398.4396,398.6851,405.1019,space,6.2986,,405.102,79,9,406.0861,406.0862,407.3012,space,1.0818,,0,13,13,13,1,175,105,,,,,,,,
,,659e3309ae35db2b1664bf89,65af550c8504a42db6af7f98,2024-01-23_15h00.15.967,bars,2023.2.3,Win32,7.496589052,657b66ea316d21385b68909f,,,,,,,,,,,407.3016,408.2037,,,408.699,408.9439,,30,210,,,,,,,,,,,,,,,,bars/004.png,bars/mask009.png,,,,,,,,,,,,4,1,,,,,,,6,2,5,2,,,,,,,,,,,408.2037,408.699,408.9439,427.7688,space,18.696,0.0001,427.7688,5,85,428.7483,428.7484,430.065,space,1.187,,0,14,14,14,1,25,125,,,,,,,,
,,659e3309ae35db2b1664bf89,65af550c8504a42db6af7f98,2024-01-23_15h00.15.967,bars,2023.2.3,Win32,7.496589052,657b66ea316d21385b68909f,,,,,,,,,,,430.0654,431.0926,,,431.5907,431.8398,,156,156,,,,,,,,,,,,,,,,bars/049.png,bars/mask004.png,,,,,,,,,,,,9,1,,,,,,,8,4,10,6,,,,,,,,,,,431.0927,431.5907,431.8399,433.0827,space,1.1267,,433.0828,4,41,434.0443,434.0443,435.2462,space,1.0722,,0,15,15,15,1,160,115,,,,,,,,
,,659e3309ae35db2b1664bf89,65af550c8504a42db6af7f98,2024-01-23_15h00.15.967,bars,2023.2.3,Win32,7.496589052,657b66ea316d21385b68909f,,,,,,,,,,,435.2467,436.2277,,,436.7256,436.9726,,136,-44,,,,,,,,,,,,,,,,bars/034.png,bars/mask002.png,,,,,,,,,,,,6,1,,,,,,,10,6,10,7,,,,,,,,,,,436.2277,436.7256,436.9726,443.5369,space,6.4489,,443.537,11,71,444.504,444.5041,445.6878,space,1.0633,,0,16,16,16,1,125,65,,,,,,,,
,,659e3309ae35db2b1664bf89,65af550c8504a42db6af7f98,2024-01-23_15h00.15.967,bars,2023.2.3,Win32,7.496589052,657b66ea316d21385b68909f,,,,,,,,,,,445.6882,446.6462,,,447.1458,447.4014,,161,161,,,,,,,,,,,,,,,,bars/011.png,bars/mask000.png,,,,,,,,,,,,8,1,,,,,,,8,4,8,5,,,,,,,,,,,446.6463,447.1458,447.4014,448.307,space,0.7777,,448.3071,1,76,449.2672,449.2673,450.3179,space,0.9193,,0,17,17,17,1,160,85,,,,,,,,
,,659e3309ae35db2b1664bf89,65af550c8504a42db6af7f98,2024-01-23_15h00.15.967,bars,2023.2.3,Win32,7.496589052,657b66ea316d21385b68909f,,,,,,,,,,,450.3185,451.2825,,,451.7797,451.9667,,91,91,,,,,,,,,,,,,,,,bars/012.png,bars/mask004.png,,,,,,,,,,,,5,1,,,,,,,6,6,5,6,,,,,,,,,,,451.2825,451.7797,451.9667,456.5421,space,4.4509,,456.5421,1,76,457.5056,457.5057,458.9483,space,1.3149,,0,18,18,18,1,90,15,,,,,,,,
,,659e3309ae35db2b1664bf89,65af550c8504a42db6af7f98,2024-01-23_15h00.15.967,bars,2023.2.3,Win32,7.496589052,657b66ea316d21385b68909f,,,,,,,,,,,458.9487,459.904,,,460.3995,460.6566,,1,181,,,,,,,,,,,,,,,,bars/007.png,bars/mask005.png,,,,,,,,,,,,6,1,,,,,,,8,8,8,8,,,,,,,,,,,459.9041,460.3994,460.6567,472.6213,space,11.849,,472.6214,6,54,473.6358,473.6358,474.8399,space,1.0648,,0,19,19,19,1,175,55,,,,,,,,
,,659e3309ae35db2b1664bf89,65af550c8504a42db6af7f98,2024-01-23_15h00.15.967,bars,2023.2.3,Win32,7.496589052,657b66ea316d21385b68909f,,,,,,,,,,,474.8405,475.8078,,,476.3046,476.557,,128,128,,,,,,,,,,,,,,,,bars/037.png,bars/mask004.png,,,,,,,,,,,,3,1,,,,,,,10,6,10,5,,,,,,,,,,,475.8079,476.3046,476.557,485.5338,space,8.8559,,485.5338,22,23,486.5238,486.5238,488.2387,space,1.5777,,0,20,20,20,1,150,105,,,,,,,,
,,659e3309ae35db2b1664bf89,65af550c8504a42db6af7f98,2024-01-23_15h00.15.967,bars,2023.2.3,Win32,7.496589052,657b66ea316d21385b68909f,,,,,,,,,,,488.2391,489.2388,,,489.7503,489.9969,,140,140,,,,,,,,,,,,,,,,bars/030.png,bars/mask003.png,,,,,,,,,,,,8,1,,,,,,,8,8,8,8,,,,,,,,,,,489.2389,489.7502,489.997,493.0854,space,2.9524,,493.0855,0,75,494.0483,494.0485,495.8299,space,1.6602,,0,21,21,21,1,140,65,,,,,,,,
,,659e3309ae35db2b1664bf89,65af550c8504a42db6af7f98,2024-01-23_15h00.15.967,bars,2023.2.3,Win32,7.496589052,657b66ea316d21385b68909f,,,,,,,,,,,495.8303,496.7926,,,497.2958,497.5467,,165,-15,,,,,,,,,,,,,,,,bars/010.png,bars/mask000.png,,,,,,,,,,,,4,1,,,,,,,6,10,4,10,,,,,,,,,,,496.7926,497.2958,497.5468,506.8755,space,9.2122,,506.8755,0,70,507.8509,507.8509,512.9906,space,5.0043,,0,22,22,22,1,165,55,,,,,,,,
,,659e3309ae35db2b1664bf89,65af550c8504a42db6af7f98,2024-01-23_15h00.15.967,bars,2023.2.3,Win32,7.496589052,657b66ea316d21385b68909f,,,,,,,,,,,512.9962,513.9824,,,514.4726,514.7199,,173,173,,,,,,,,,,,,,,,,bars/033.png,bars/mask008.png,,,,,,,,,,,,4,2,,,,,,,4,10,4,9,,,,,,,,,,,513.9825,514.4726,514.7199,517.9513,space,3.1144,,517.9514,32,18,518.9252,518.9252,519.9668,space,0.9187,,0,23,23,23,1,25,155,,,,,,,,
,,659e3309ae35db2b1664bf89,65af550c8504a42db6af7f98,2024-01-23_15h00.15.967,bars,2023.2.3,Win32,7.496589052,657b66ea316d21385b68909f,,,,,,,,,,,519.9672,520.9288,,,521.4226,521.6808,,79,79,,,,,,,,,,,,,,,,bars/046.png,bars/mask002.png,,,,,,,,,,,,6,2,,,,,,,6,8,7,8,,,,,,,,,,,520.9288,521.4225,521.6808,535.2497,space,13.4403,0.0003,535.2497,76,6,536.2398,536.2399,537.1821,space,0.812,,0,24,24,24,1,155,85,,,,,,,,
,,659e3309ae35db2b1664bf89,65af550c8504a42db6af7f98,2024-01-23_15h00.15.967,bars,2023.2.3,Win32,7.496589052,657b66ea316d21385b68909f,,,,,,,,,,,537.1824,538.1531,,,538.6646,538.915,,9,9,,,,,,,,,,,,,,,,bars/045.png,bars/mask000.png,,,,,,,,,,,,4,2,,,,,,,8,6,9,4,,,,,,,,,,,538.1532,538.6646,538.915,546.7136,space,7.6822,0.0002,546.7136,89,1,547.6996,547.6997,549.1711,space,1.3478,,0,25,25,25,1,100,10,,,,,,,,
,,659e3309ae35db2b1664bf89,65af550c8504a42db6af7f98,2024-01-23_15h00.15.967,bars,2023.2.3,Win32,7.496589052,657b66ea316d21385b68909f,,,,,,,,,,,549.1714,550.1431,,,550.6536,550.9024,,16,196,,,,,,,,,,,,,,,,bars/022.png,bars/mask008.png,,,,,,,,,,,,4,2,,,,,,,10,4,10,5,,,,,,,,,,,550.1431,550.6535,550.9025,558.665,space,7.64,,558.6651,79,4,559.6521,559.6521,560.5715,space,0.7906,,0,26,26,26,1,95,20,,,,,,,,
,,659e3309ae35db2b1664bf89,65af550c8504a42db6af7f98,2024-01-23_15h00.15.967,bars,2023.2.3,Win32,7.496589052,657b66ea316d21385b68909f,,,,,,,,,,,560.5718,561.5533,,,562.0525,562.3152,,38,38,,,,,,,,,,,,,,,,bars/031.png,bars/mask006.png,,,,,,,,,,,,5,2,,,,,,,8,6,9,5,,,,,,,,,,,561.5534,562.0525,562.3153,569.1892,space,6.7454,,569.1892,82,3,570.1769,570.1769,571.1078,space,0.8003,,0,27,27,27,1,120,35,,,,,,,,
,,659e3309ae35db2b1664bf89,65af550c8504a42db6af7f98,2024-01-23_15h00.15.967,bars,2023.2.3,Win32,7.496589052,657b66ea316d21385b68909f,,,,,,,,,,,571.1082,572.0823,,,572.5873,572.8343,,71,71,,,,,,,,,,,,,,,,bars/038.png,bars/mask009.png,,,,,,,,,,,,10,2,,,,,,,10,8,10,10,,,,,,,,,,,572.0824,572.5873,572.8344,579.0884,space,6.1311,,579.0885,86,1,580.1068,580.1069,581.3275,space,1.0795,,0,28,28,28,1,165,70,,,,,,,,
,,659e3309ae35db2b1664bf89,65af550c8504a42db6af7f98,2024-01-23_15h00.15.967,bars,2023.2.3,Win32,7.496589052,657b66ea316d21385b68909f,,,,,,,,,,,581.3278,582.3128,,,582.8129,583.0689,,23,23,,,,,,,,,,,,,,,,bars/036.png,bars/mask003.png,,,,,,,,,,,,5,2,,,,,,,8,6,10,6,,,,,,,,,,,582.3129,582.8128,583.069,585.0113,space,1.8188,,585.0114,58,3,585.9271,585.9272,586.9825,space,0.927,,0,29,29,29,1,145,20,,,,,,,,
,,659e3309ae35db2b1664bf89,65af550c8504a42db6af7f98,2024-01-23_15h00.15.967,bars,2023.2.3,Win32,7.496589052,657b66ea316d21385b68909f,,,,,,,,,,,586.983,587.9655,,,588.4681,588.7207,,177,-3,,,,,,,,,,,,,,,,bars/008.png,bars/mask001.png,,,,,,,,,,,,8,2,,,,,,,6,8,7,9,,,,,,,,,,,587.9656,588.468,588.7208,600.9584,space,12.1132,,600.9586,67,3,601.941,601.9411,602.8619,space,0.7979,,0,30,30,30,1,110,0,,,,,,,,
,,659e3309ae35db2b1664bf89,65af550c8504a42db6af7f98,2024-01-23_15h00.15.967,bars,2023.2.3,Win32,7.496589052,657b66ea316d21385b68909f,,,,,,,,,,,602.8623,603.8333,,,604.3518,604.6106,,12,192,,,,,,,,,,,,,,,,bars/012.png,bars/mask001.png,,,,,,,,,,,,5,2,,,,,,,4,6,3,6,,,,,,,,,,,603.8333,604.3518,604.6107,618.1356,space,13.4079,,618.1356,78,3,619.1183,619.1183,620.1783,space,0.931,,0,31,31,31,1,90,15,,,,,,,,
,,659e3309ae35db2b1664bf89,65af550c8504a42db6af7f98,2024-01-23_15h00.15.967,bars,2023.2.3,Win32,7.496589052,657b66ea316d21385b68909f,,,,,,,,,,,620.1788,621.1456,,,621.6456,621.893,,118,118,,,,,,,,,,,,,,,,bars/043.png,bars/mask001.png,,,,,,,,,,,,2,2,,,,,,,6,4,5,3,,,,,,,,,,,621.1457,621.6455,621.8931,628.3623,space,6.3484,,628.3623,88,12,629.3357,629.3357,630.3995,space,0.9399,,0,32,32,32,1,30,130,,,,,,,,
,,659e3309ae35db2b1664bf89,65af550c8504a42db6af7f98,2024-01-23_15h00.15.967,bars,2023.2.3,Win32,7.496589052,657b66ea316d21385b68909f,,,,,,,,,,,630.4,631.3709,,,631.9437,632.0945,,172,-8,,,,,,,,,,,,,,,,bars/016.png,bars/mask003.png,,,,,,,,,,,,2,2,,,,,,,8,2,10,2,,,,,,,,,,,631.371,631.9436,632.0946,634.7806,space,2.5667,,634.7807,48,7,635.7594,635.7594,636.9576,space,1.0592,,0,33,33,33,1,40,165,,,,,,,,
,,659e3309ae35db2b1664bf89,65af550c8504a42db6af7f98,2024-01-23_15h00.15.967,bars,2023.2.3,Win32,7.496589052,657b66ea316d21385b68909f,,,,,,,,,,,636.958,637.939,,,638.4482,638.6951,,140,-40,,,,,,,,,,,,,,,,bars/004.png,bars/mask004.png,,,,,,,,,,,,0,2,,,,,,,6,0,6,0,,,,,,,,,,,637.9391,638.4481,638.6951,647.3137,space,8.4879,,647.3138,65,15,648.2827,648.2827,649.891,space,1.4725,,0,34,34,34,1,25,125,,,,,,,,
,,659e3309ae35db2b1664bf89,65af550c8504a42db6af7f98,2024-01-23_15h00.15.967,bars,2023.2.3,Win32,7.496589052,657b66ea316d21385b68909f,,,,,,,,,,,649.8914,650.8707,,,651.3713,651.6253,,36,36,,,,,,,,,,,,,,,,bars/006.png,bars/mask000.png,,,,,,,,,,,,1,1,,,,,,,4,0,1,0,,,,,,,,,,,650.8708,651.3713,651.6253,657.5987,space,5.8521,0.0001,657.5987,1,64,658.5737,658.5738,660.8346,space,2.12,,0,35,35,35,1,35,100,,,,,,,,
,,659e3309ae35db2b1664bf89,65af550c8504a42db6af7f98,2024-01-23_15h00.15.967,bars,2023.2.3,Win32,7.496589052,657b66ea316d21385b68909f,,,,,,,,,,,660.835,661.8006,,,662.3135,662.5759,,38,218,,,,,,,,,,,,,,,,bars/031.png,bars/mask001.png,,,,,,,,,,,,3,2,,,,,,,6,2,6,3,,,,,,,,,,,661.8006,662.3134,662.576,670.5826,space,7.889,,670.5827,82,3,671.5543,671.5543,672.7501,space,1.058,,0,36,36,36,1,120,35,,,,,,,,
,,659e3309ae35db2b1664bf89,65af550c8504a42db6af7f98,2024-01-23_15h00.15.967,bars,2023.2.3,Win32,7.496589052,657b66ea316d21385b68909f,,,,,,,,,,,672.7504,673.7241,,,674.243,674.417,,2,2,,,,,,,,,,,,,,,,bars/045.png,bars/mask001.png,,,,,,,,,,,,1,2,,,,,,,4,0,5,1,,,,,,,,,,,673.7241,674.2429,674.417,682.5225,space,7.9887,,682.5225,82,8,683.5146,683.5146,685.5562,space,1.9067,,0,37,37,37,1,100,10,,,,,,,,
,,659e3309ae35db2b1664bf89,65af550c8504a42db6af7f98,2024-01-23_15h00.15.967,bars,2023.2.3,Win32,7.496589052,657b66ea316d21385b68909f,,,,,,,,,,,685.5565,686.5467,,,687.0683,687.3359,,179,179,,,,,,,,,,,,,,,,bars/048.png,bars/mask001.png,,,,,,,,,,,,0,2,,,,,,,2,0,1,0,,,,,,,,,,,686.5468,687.0683,687.336,699.8121,space,12.3588,0.0002,699.8121,51,4,700.8219,700.8219,702.4171,space,1.4602,,0,38,38,38,1,50,175,,,,,,,,
,,659e3309ae35db2b1664bf89,65af550c8504a42db6af7f98,2024-01-23_15h00.15.967,bars,2023.2.3,Win32,7.496589052,657b66ea316d21385b68909f,,,,,,,,,,,702.4175,703.3932,,,703.9002,704.1607,,149,-31,,,,,,,,,,,,,,,,bars/017.png,bars/mask004.png,,,,,,,,,,,,0,1,,,,,,,0,2,0,2,,,,,,,,,,,703.3933,703.9002,704.1608,711.5535,space,7.2721,,711.5535,4,76,712.5264,712.5264,713.5953,space,0.9394,,0,39,39,39,1,145,45,,,,,,,,
,,659e3309ae35db2b1664bf89,65af550c8504a42db6af7f98,2024-01-23_15h00.15.967,bars,2023.2.3,Win32,7.496589052,657b66ea316d21385b68909f,,,,,,,,,,,713.5959,714.5844,,,715.0943,715.3493,,104,104,,,,,,,,,,,,,,,,bars/045.png,bars/mask002.png,,,,,,,,,,,,1,1,,,,,,,0,0,1,2,,,,,,,,,,,714.5845,715.0942,715.3494,725.679,space,10.2125,,725.6791,4,86,726.6545,726.6545,728.0779,space,1.2934,,0,40,40,40,1,100,10,,,,,,,,
,,659e3309ae35db2b1664bf89,65af550c8504a42db6af7f98,2024-01-23_15h00.15.967,bars,2023.2.3,Win32,7.496589052,657b66ea316d21385b68909f,,,,,,,,,,,728.0783,729.0423,,,729.5421,729.7902,,24,24,,,,,,,,,,,,,,,,bars/023.png,bars/mask009.png,,,,,,,,,,,,0,1,,,,,,,0,0,0,0,,,,,,,,,,,729.0423,729.5421,729.7902,734.7111,space,4.7947,,734.7112,4,89,735.7005,735.7006,738.7801,space,2.9527,,0,41,41,41,1,20,115,,,,,,,,
,,659e3309ae35db2b1664bf89,65af550c8504a42db6af7f98,2024-01-23_15h00.15.967,bars,2023.2.3,Win32,7.496589052,657b66ea316d21385b68909f,,,,,,,,,,,738.7805,739.7512,,,740.2747,740.5341,,6,186,,,,,,,,,,,,,,,,bars/014.png,bars/mask005.png,,,,,,,,,,,,1,2,,,,,,,2,0,1,1,,,,,,,,,,,739.7512,740.2747,740.5341,742.9543,space,2.3027,0.0002,742.9543,74,6,743.9293,743.9293,745.2037,space,1.1362,,0,42,42,42,1,80,0,,,,,,,,
,,659e3309ae35db2b1664bf89,65af550c8504a42db6af7f98,2024-01-23_15h00.15.967,bars,2023.2.3,Win32,7.496589052,657b66ea316d21385b68909f,,,,,,,,,,,745.2041,746.1635,,,746.6604,746.9078,,75,75,,,,,,,,,,,,,,,,bars/014.png,bars/mask003.png,,,,,,,,,,,,0,1,,,,,,,0,0,0,0,,,,,,,,,,,746.1636,746.6603,746.9078,756.0702,space,9.0453,,756.0702,5,75,757.0371,757.0371,758.2322,space,1.0723,,0,43,43,43,1,80,0,,,,,,,,
,,659e3309ae35db2b1664bf89,65af550c8504a42db6af7f98,2024-01-23_15h00.15.967,bars,2023.2.3,Win32,7.496589052,657b66ea316d21385b68909f,,,,,,,,,,,758.2327,759.2029,,,759.7169,759.9664,,90,90,,,,,,,,,,,,,,,,bars/023.png,bars/mask006.png,,,,,,,,,,,,0,2,,,,,,,2,0,2,1,,,,,,,,,,,759.203,759.7168,759.9665,770.4096,space,10.3249,,770.4096,70,25,771.4116,771.4117,774.794,space,3.242,,0,44,44,44,1,20,115,,,,,,,,
,,659e3309ae35db2b1664bf89,65af550c8504a42db6af7f98,2024-01-23_15h00.15.967,bars,2023.2.3,Win32,7.496589052,657b66ea316d21385b68909f,,,,,,,,,,,774.7944,775.7823,,,776.2881,776.535,,65,245,,,,,,,,,,,,,,,,bars/007.png,bars/mask008.png,,,,,,,,,,,,1,2,,,,,,,4,2,4,2,,,,,,,,,,,775.7824,776.288,776.535,788.4364,space,11.7785,,788.4365,70,10,789.4154,789.4154,792.466,space,2.9094,,0,45,45,45,1,175,55,,,,,,,,
,,659e3309ae35db2b1664bf89,65af550c8504a42db6af7f98,2024-01-23_15h00.15.967,bars,2023.2.3,Win32,7.496589052,657b66ea316d21385b68909f,,,,,,,,,,,792.4716,793.4341,,,793.9432,794.1937,,71,71,,,,,,,,,,,,,,,,bars/021.png,bars/mask002.png,,,,,,,,,,,,4,2,,,,,,,2,4,2,4,,,,,,,,,,,793.4342,793.9432,794.1938,800.8682,space,6.5523,,800.8682,84,1,801.8713,801.8714,803.4775,space,1.4805,,0,46,46,46,1,155,70,,,,,,,,
,,659e3309ae35db2b1664bf89,65af550c8504a42db6af7f98,2024-01-23_15h00.15.967,bars,2023.2.3,Win32,7.496589052,657b66ea316d21385b68909f,,,,,,,,,,,803.4778,804.4504,,,804.9508,805.1997,,151,-29,,,,,,,,,,,,,,,,bars/044.png,bars/mask008.png,,,,,,,,,,,,2,2,,,,,,,4,2,4,2,,,,,,,,,,,804.4505,804.9507,805.1998,826.554,space,21.2319,0.0002,826.554,76,4,827.494,827.494,828.9416,space,1.3078,,0,47,47,47,1,75,155,,,,,,,,
,,659e3309ae35db2b1664bf89,65af550c8504a42db6af7f98,2024-01-23_15h00.15.967,bars,2023.2.3,Win32,7.496589052,657b66ea316d21385b68909f,,,,,,,,,,,828.9417,829.8703,,,830.3009,830.588,,122,122,,,,,,,,,,,,,,,,bars/023.png,bars/mask008.png,,,,,,,,,,,,0,2,,,,,,,6,0,5,0,,,,,,,,,,,829.8704,830.3009,830.5881,842.7809,space,12.064,,842.7809,78,7,843.7493,843.7493,845.124,space,1.2328,,0,48,48,48,1,20,115,,,,,,,,
,,659e3309ae35db2b1664bf89,65af550c8504a42db6af7f98,2024-01-23_15h00.15.967,bars,2023.2.3,Win32,7.496589052,657b66ea316d21385b68909f,,,,,,,,,,,845.1242,846.0746,,,846.4862,846.6253,,159,159,,,,,,,,,,,,,,,,bars/046.png,bars/mask007.png,,,,,,,,,,,,5,1,,,,,,,4,0,6,0,,,,,,,,,,,846.0746,846.4861,846.6254,854.7283,space,7.9592,9.99999E-05,854.7283,4,74,855.6419,855.642,856.7212,space,0.9221,,0,49,49,49,1,155,85,,,,,,,,
,,659e3309ae35db2b1664bf89,65af550c8504a42db6af7f98,2024-01-23_15h00.15.967,bars,2023.2.3,Win32,7.496589052,657b66ea316d21385b68909f,,,,,,,,,,,,,,,,,,,,,,,,,,,,,,,,,,,,,,,,,,,,,,,,,,,,,,,,,,,,,,,,,,,,,,,,,,,,,,,,,,,,,,,,,,,,,856.7219,916.6947,0,0,0,2,1,sequence_tables/blk027.csv
,,659e3309ae35db2b1664bf89,65af550c8504a42db6af7f98,2024-01-23_15h00.15.967,bars,2023.2.3,Win32,7.496589052,657b66ea316d21385b68909f,,,,,,,,,,,919.7058,920.6783,,,921.0907,921.3752,,38,38,,,,,,,,,,,,,,,,bars/007.png,bars/mask006.png,,,,,,,,,,,,1,2,,,,,,,0,3,0,3,,,,,,916.7009,919.7037,space,2.8788,,920.6784,921.0906,921.3753,928.0244,space,6.5254,,928.0245,43,17,928.9829,928.983,928.9899,,,,0,0,0,0,1,175,55,,,,,,,,
,,659e3309ae35db2b1664bf89,65af550c8504a42db6af7f98,2024-01-23_15h00.15.967,bars,2023.2.3,Win32,7.496589052,657b66ea316d21385b68909f,,,,,,,,,,,928.9901,929.9408,,,930.3617,930.4993,,49,229,,,,,,,,,,,,,,,,bars/028.png,bars/mask004.png,,,,,,,,,,,,0,1,,,,,,,2,5,0,6,,,,,,,,,,,929.9409,930.3616,930.4993,944.6865,space,14.0644,9.99999E-05,944.6866,4,71,945.7227,945.7228,945.7303,,,,0,1,1,1,1,45,120,,,,,,,,
,,659e3309ae35db2b1664bf89,65af550c8504a42db6af7f98,2024-01-23_15h00.15.967,bars,2023.2.3,Win32,7.496589052,657b66ea316d21385b68909f,,,,,,,,,,,945.7304,946.6884,,,947.1317,947.407,,168,168,,,,,,,,,,,,,,,,bars/024.png,bars/mask003.png,,,,,,,,,,,,6,2,,,,,,,0,7,0,6,,,,,,,,,,,946.6884,947.1316,947.407,960.2851,space,12.7519,,960.2852,48,2,961.2315,961.2316,961.2396,,,,0,2,2,2,1,120,170,,,,,,,,
,,659e3309ae35db2b1664bf89,65af550c8504a42db6af7f98,2024-01-23_15h00.15.967,bars,2023.2.3,Win32,7.496589052,657b66ea316d21385b68909f,,,,,,,,,,,961.2397,962.1866,,,962.6,962.8703,,81,81,,,,,,,,,,,,,,,,bars/026.png,bars/mask005.png,,,,,,,,,,,,4,2,,,,,,,2,5,2,5,,,,,,,,,,,962.1866,962.6,962.8703,974.0357,space,11.0443,,974.0357,46,4,974.9827,974.9828,974.9891,,,,0,3,3,3,1,35,85,,,,,,,,
,,659e3309ae35db2b1664bf89,65af550c8504a42db6af7f98,2024-01-23_15h00.15.967,bars,2023.2.3,Win32,7.496589052,657b66ea316d21385b68909f,,,,,,,,,,,974.9893,975.9485,,,976.3706,976.6375,,143,-37,,,,,,,,,,,,,,,,bars/005.png,bars/mask006.png,,,,,,,,,,,,6,2,,,,,,,0,7,0,7,,,,,,,,,,,975.9485,976.3706,976.6376,986.791,space,10.0307,,986.7911,47,3,987.7425,987.7425,987.7489,,,,0,4,4,4,1,10,140,,,,,,,,
,,659e3309ae35db2b1664bf89,65af550c8504a42db6af7f98,2024-01-23_15h00.15.967,bars,2023.2.3,Win32,7.496589052,657b66ea316d21385b68909f,,,,,,,,,,,987.7491,988.6876,,,989.0616,989.1977,,42,42,,,,,,,,,,,,,,,,bars/029.png,bars/mask007.png,,,,,,,,,,,,5,2,,,,,,,2,5,3,5,,,,,,,,,,,988.6876,989.0616,989.1977,1002.0884,space,12.7663,9.99999E-05,1002.0884,48,3,1003.0186,1003.0186,1003.027,,,,0,5,5,5,1,90,45,,,,,,,,
,,659e3309ae35db2b1664bf89,65af550c8504a42db6af7f98,2024-01-23_15h00.15.967,bars,2023.2.3,Win32,7.496589052,657b66ea316d21385b68909f,,,,,,,,,,,1003.0272,1003.9975,,,1004.4121,1004.6969,,163,163,,,,,,,,,,,,,,,,bars/033.png,bars/mask003.png,,,,,,,,,,,,1,2,,,,,,,0,3,0,2,,,,,,,,,,,1003.9975,1004.412,1004.697,1011.1947,space,6.3657,0.0001,1011.1947,42,8,1012.1656,1012.1656,1012.1736,,,,0,6,6,6,1,25,155,,,,,,,,
,,659e3309ae35db2b1664bf89,65af550c8504a42db6af7f98,2024-01-23_15h00.15.967,bars,2023.2.3,Win32,7.496589052,657b66ea316d21385b68909f,,,,,,,,,,,1012.1738,1013.1463,,,1013.5736,1013.716,,128,128,,,,,,,,,,,,,,,,bars/028.png,bars/mask006.png,,,,,,,,,,,,4,2,,,,,,,2,5,3,5,,,,,,,,,,,1013.1463,1013.5736,1013.716,1023.3265,space,9.4899,,1023.3265,83,8,1024.2924,1024.2924,1024.3001,,,,0,7,7,7,1,45,120,,,,,,,,
,,659e3309ae35db2b1664bf89,65af550c8504a42db6af7f98,2024-01-23_15h00.15.967,bars,2023.2.3,Win32,7.496589052,657b66ea316d21385b68909f,,,,,,,,,,,1024.3003,1025.2485,,,1025.6616,1025.9586,,81,81,,,,,,,,,,,,,,,,bars/021.png,bars/mask005.png,,,,,,,,,,,,5,2,,,,,,,0,7,0,8,,,,,,,,,,,1025.2485,1025.6616,1025.9586,1030.9648,space,4.8846,0.0002,1030.9649,74,11,1031.938,1031.9381,1031.9438,,,,0,8,8,8,1,155,70,,,,,,,,
,,659e3309ae35db2b1664bf89,65af550c8504a42db6af7f98,2024-01-23_15h00.15.967,bars,2023.2.3,Win32,7.496589052,657b66ea316d21385b68909f,,,,,,,,,,,1031.9439,1032.8972,,,1033.3157,1033.5938,,157,-23,,,,,,,,,,,,,,,,bars/033.png,bars/mask003.png,,,,,,,,,,,,5,2,,,,,,,2,5,3,5,,,,,,,,,,,1032.8972,1033.3156,1033.5939,1044.7313,space,11.0177,0.0002,1044.7314,48,2,1045.662,1045.662,1045.67,,,,0,9,9,9,1,25,155,,,,,,,,
,,659e3309ae35db2b1664bf89,65af550c8504a42db6af7f98,2024-01-23_15h00.15.967,bars,2023.2.3,Win32,7.496589052,657b66ea316d21385b68909f,,,,,,,,,,,1045.6701,1046.6122,,,1047.0206,1047.1732,,65,245,,,,,,,,,,,,,,,,bars/034.png,bars/mask002.png,,,,,,,,,,,,7,2,,,,,,,0,7,1,7,,,,,,,,,,,1046.6122,1047.0206,1047.1733,1062.6367,space,15.3325,0.0001,1062.6368,60,0,1063.5973,1063.5974,1063.6039,,,,0,10,10,10,1,125,65,,,,,,,,
,,659e3309ae35db2b1664bf89,65af550c8504a42db6af7f98,2024-01-23_15h00.15.967,bars,2023.2.3,Win32,7.496589052,657b66ea316d21385b68909f,,,,,,,,,,,1063.604,1064.5356,,,1064.9568,1065.2573,,20,20,,,,,,,,,,,,,,,,bars/013.png,bars/mask001.png,,,,,,,,,,,,7,2,,,,,,,0,9,1,10,,,,,,,,,,,1064.5356,1064.9567,1065.2573,1082.7258,space,17.34,0.0002,1082.7258,55,10,1083.6616,1083.6617,1083.6683,,,,0,11,11,11,1,75,10,,,,,,,,
,,659e3309ae35db2b1664bf89,65af550c8504a42db6af7f98,2024-01-23_15h00.15.967,bars,2023.2.3,Win32,7.496589052,657b66ea316d21385b68909f,,,,,,,,,,,1083.6684,1084.6415,,,1085.0583,1085.3491,,39,39,,,,,,,,,,,,,,,,bars/029.png,bars/mask007.png,,,,,,,,,,,,6,2,,,,,,,2,7,2,7,,,,,,,,,,,1084.6415,1085.0583,1085.3492,1099.9789,space,14.4983,,1099.9789,51,6,1100.9345,1100.9346,1100.9432,,,,0,12,12,12,1,90,45,,,,,,,,
,,659e3309ae35db2b1664bf89,65af550c8504a42db6af7f98,2024-01-23_15h00.15.967,bars,2023.2.3,Win32,7.496589052,657b66ea316d21385b68909f,,,,,,,,,,,1100.9434,1101.8961,,,1102.3074,1102.588,,26,26,,,,,,,,,,,,,,,,bars/022.png,bars/mask002.png,,,,,,,,,,,,4,2,,,,,,,4,5,3,5,,,,,,,,,,,1101.8961,1102.3074,1102.588,1113.6811,space,10.9479,0.0001,1113.6812,69,6,1114.6126,1114.6127,1114.6189,,,,0,13,13,13,1,95,20,,,,,,,,
,,659e3309ae35db2b1664bf89,65af550c8504a42db6af7f98,2024-01-23_15h00.15.967,bars,2023.2.3,Win32,7.496589052,657b66ea316d21385b68909f,,,,,,,,,,,1114.619,1115.5672,,,1115.9984,1116.2844,,80,80,,,,,,,,,,,,,,,,bars/046.png,bars/mask003.png,,,,,,,,,,,,3,2,,,,,,,2,3,1,3,,,,,,,,,,,1115.5672,1115.9984,1116.2845,1123.2956,space,6.8673,,1123.2956,75,5,1124.2539,1124.254,1124.2596,,,,0,14,14,14,1,155,85,,,,,,,,
,,659e3309ae35db2b1664bf89,65af550c8504a42db6af7f98,2024-01-23_15h00.15.967,bars,2023.2.3,Win32,7.496589052,657b66ea316d21385b68909f,,,,,,,,,,,1124.2598,1125.2017,,,1125.6296,1125.7708,,167,167,,,,,,,,,,,,,,,,bars/035.png,bars/mask007.png,,,,,,,,,,,,2,1,,,,,,,4,1,3,3,,,,,,,,,,,1125.2018,1125.6295,1125.7708,1130.6787,space,4.7809,,1130.6789,8,73,1131.6125,1131.6125,1131.6217,,,,0,15,15,15,1,175,60,,,,,,,,
,,659e3309ae35db2b1664bf89,65af550c8504a42db6af7f98,2024-01-23_15h00.15.967,bars,2023.2.3,Win32,7.496589052,657b66ea316d21385b68909f,,,,,,,,,,,1131.6219,1132.5862,,,1133.0073,1133.2804,,74,74,,,,,,,,,,,,,,,,bars/044.png,bars/mask001.png,,,,,,,,,,,,5,1,,,,,,,6,0,5,0,,,,,,,,,,,1132.5863,1133.0072,1133.2804,1140.0041,space,6.596,9.99999E-05,1140.0042,1,81,1140.962,1140.9621,1140.9718,,,,0,16,16,16,1,75,155,,,,,,,,
,,659e3309ae35db2b1664bf89,65af550c8504a42db6af7f98,2024-01-23_15h00.15.967,bars,2023.2.3,Win32,7.496589052,657b66ea316d21385b68909f,,,,,,,,,,,1140.972,1141.9028,,,1142.316,1142.6135,,78,78,,,,,,,,,,,,,,,,bars/029.png,bars/mask006.png,,,,,,,,,,,,3,1,,,,,,,4,2,5,2,,,,,,,,,,,1141.9028,1142.3159,1142.6136,1144.8142,space,2.0725,0.0004,1144.8143,12,33,1145.7981,1145.7981,1145.8004,,,,0,17,17,17,1,90,45,,,,,,,,
,,659e3309ae35db2b1664bf89,65af550c8504a42db6af7f98,2024-01-23_15h00.15.967,bars,2023.2.3,Win32,7.496589052,657b66ea316d21385b68909f,,,,,,,,,,,1145.8011,1146.7675,,,1147.1873,1147.4717,,86,86,,,,,,,,,,,,,,,,bars/012.png,bars/mask009.png,,,,,,,,,,,,6,1,,,,,,,6,4,7,4,,,,,,,,,,,1146.7676,1147.1873,1147.4717,1159.0319,space,11.4379,,1159.032,4,71,1159.9975,1159.9976,1160.004,,,,0,18,18,18,1,90,15,,,,,,,,
,,659e3309ae35db2b1664bf89,65af550c8504a42db6af7f98,2024-01-23_15h00.15.967,bars,2023.2.3,Win32,7.496589052,657b66ea316d21385b68909f,,,,,,,,,,,1160.0042,1160.9483,,,1161.387,1161.5444,,132,132,,,,,,,,,,,,,,,,bars/001.png,bars/mask008.png,,,,,,,,,,,,6,1,,,,,,,4,2,6,3,,,,,,,,,,,1160.9483,1161.387,1161.5444,1173.0217,space,11.357,0.0001,1173.0217,2,47,1174.0026,1174.0026,1174.0088,,,,0,19,19,19,1,130,85,,,,,,,,
,,659e3309ae35db2b1664bf89,65af550c8504a42db6af7f98,2024-01-23_15h00.15.967,bars,2023.2.3,Win32,7.496589052,657b66ea316d21385b68909f,,,,,,,,,,,1174.009,1174.9576,,,1175.3812,1175.6605,,55,55,,,,,,,,,,,,,,,,bars/048.png,bars/mask004.png,,,,,,,,,,,,7,1,,,,,,,6,4,8,4,,,,,,,,,,,1174.9576,1175.3811,1175.6605,1186.2669,space,10.477,,1186.267,5,60,1187.2391,1187.2391,1187.2469,,,,0,20,20,20,1,50,175,,,,,,,,
,,659e3309ae35db2b1664bf89,65af550c8504a42db6af7f98,2024-01-23_15h00.15.967,bars,2023.2.3,Win32,7.496589052,657b66ea316d21385b68909f,,,,,,,,,,,1187.2471,1188.1566,,,1188.5938,1188.7361,,153,153,,,,,,,,,,,,,,,,bars/021.png,bars/mask009.png,,,,,,,,,,,,8,1,,,,,,,8,6,9,6,,,,,,,,,,,1188.1566,1188.5937,1188.7361,1193.4083,space,4.5405,,1193.4084,2,83,1194.4039,1194.404,1194.4118,,,,0,21,21,21,1,155,70,,,,,,,,
,,659e3309ae35db2b1664bf89,65af550c8504a42db6af7f98,2024-01-23_15h00.15.967,bars,2023.2.3,Win32,7.496589052,657b66ea316d21385b68909f,,,,,,,,,,,1194.4119,1195.3726,,,1195.8012,1196.0869,,149,149,,,,,,,,,,,,,,,,bars/040.png,bars/mask006.png,,,,,,,,,,,,6,1,,,,,,,10,8,9,8,,,,,,,,,,,1195.3726,1195.8012,1196.0869,1199.1238,space,2.9056,0.0001,1199.1238,9,36,1200.069,1200.069,1200.0751,,,,0,22,22,22,1,140,5,,,,,,,,
,,659e3309ae35db2b1664bf89,65af550c8504a42db6af7f98,2024-01-23_15h00.15.967,bars,2023.2.3,Win32,7.496589052,657b66ea316d21385b68909f,,,,,,,,,,,1200.0753,1201.0266,,,1201.4781,1201.6248,,18,18,,,,,,,,,,,,,,,,bars/004.png,bars/mask003.png,,,,,,,,,,,,5,1,,,,,,,8,10,7,10,,,,,,,,,,,1201.0266,1201.478,1201.6248,1222.2705,space,20.5177,0.0001,1222.2706,7,73,1223.2289,1223.229,1223.2382,,,,0,23,23,23,1,25,125,,,,,,,,
,,659e3309ae35db2b1664bf89,65af550c8504a42db6af7f98,2024-01-23_15h00.15.967,bars,2023.2.3,Win32,7.496589052,657b66ea316d21385b68909f,,,,,,,,,,,1223.2384,1224.1816,,,1224.5987,1224.7381,,21,21,,,,,,,,,,,,,,,,bars/004.png,bars/mask007.png,,,,,,,,,,,,9,1,,,,,,,10,8,10,8,,,,,,,,,,,1224.1817,1224.5986,1224.7382,1239.2531,space,14.3883,,1239.2532,4,76,1240.2037,1240.2037,1240.2114,,,,0,24,24,24,1,25,125,,,,,,,,
,,659e3309ae35db2b1664bf89,65af550c8504a42db6af7f98,2024-01-23_15h00.15.967,bars,2023.2.3,Win32,7.496589052,657b66ea316d21385b68909f,,,,,,,,,,,1240.2116,1241.1546,,,1241.5912,1241.8657,,81,81,,,,,,,,,,,,,,,,bars/029.png,bars/mask001.png,,,,,,,,,,,,7,1,,,,,,,8,6,10,6,,,,,,,,,,,1241.1547,1241.5912,1241.8657,1247.6538,space,5.6665,,1247.6538,9,36,1248.5434,1248.5435,1248.5515,,,,0,25,25,25,1,90,45,,,,,,,,
,,659e3309ae35db2b1664bf89,65af550c8504a42db6af7f98,2024-01-23_15h00.15.967,bars,2023.2.3,Win32,7.496589052,657b66ea316d21385b68909f,,,,,,,,,,,1248.5517,1249.5106,,,1249.9307,1250.0751,,156,156,,,,,,,,,,,,,,,,bars/038.png,bars/mask005.png,,,,,,,,,,,,4,1,,,,,,,6,4,6,4,,,,,,,,,,,1249.5107,1249.9307,1250.0752,1260.9781,space,10.778,,1260.9781,9,86,1261.9467,1261.9467,1261.9526,,,,0,26,26,26,1,165,70,,,,,,,,
,,659e3309ae35db2b1664bf89,65af550c8504a42db6af7f98,2024-01-23_15h00.15.967,bars,2023.2.3,Win32,7.496589052,657b66ea316d21385b68909f,,,,,,,,,,,1261.9527,1262.9454,,,1263.451,1263.5876,,128,128,,,,,,,,,,,,,,,,bars/023.png,bars/mask001.png,,,,,,,,,,,,4,2,,,,,,,8,6,8,7,,,,,,,,,,,1262.9455,1263.4509,1263.5876,1268.3719,space,4.6641,,1268.3721,72,13,1269.3278,1269.3279,1269.3349,,,,0,27,27,27,1,20,115,,,,,,,,
,,659e3309ae35db2b1664bf89,65af550c8504a42db6af7f98,2024-01-23_15h00.15.967,bars,2023.2.3,Win32,7.496589052,657b66ea316d21385b68909f,,,,,,,,,,,1269.3352,1270.3198,,,1270.7381,1271.0255,,22,202,,,,,,,,,,,,,,,,bars/036.png,bars/mask002.png,,,,,,,,,,,,9,2,,,,,,,6,8,8,10,,,,,,,,,,,1270.3198,1270.7381,1271.0256,1289.2652,space,18.1178,,1289.2653,57,2,1290.2128,1290.2129,1290.2206,,,,0,28,28,28,1,145,20,,,,,,,,
,,659e3309ae35db2b1664bf89,65af550c8504a42db6af7f98,2024-01-23_15h00.15.967,bars,2023.2.3,Win32,7.496589052,657b66ea316d21385b68909f,,,,,,,,,,,1290.2208,1291.2584,,,1291.6914,1291.8289,,23,203,,,,,,,,,,,,,,,,bars/022.png,bars/mask009.png,,,,,,,,,,,,5,2,,,,,,,8,6,7,6,,,,,,,,,,,1291.2584,1291.6914,1291.8289,1305.9706,space,14.0094,,1305.9706,72,3,1306.9487,1306.9487,1306.9552,,,,0,29,29,29,1,95,20,,,,,,,,
,,659e3309ae35db2b1664bf89,65af550c8504a42db6af7f98,2024-01-23_15h00.15.967,bars,2023.2.3,Win32,7.496589052,657b66ea316d21385b68909f,,,,,,,,,,,1306.9555,1307.9613,,,1308.3893,1308.6817,,142,-38,,,,,,,,,,,,,,,,bars/005.png,bars/mask008.png,,,,,,,,,,,,7,2,,,,,,,10,8,10,8,,,,,,,,,,,1307.9613,1308.3892,1308.6817,1321.1651,space,12.3584,0.0004,1321.1652,48,2,1322.1511,1322.1511,1322.1576,,,,0,30,30,30,1,10,140,,,,,,,,
,,659e3309ae35db2b1664bf89,65af550c8504a42db6af7f98,2024-01-23_15h00.15.967,bars,2023.2.3,Win32,7.496589052,657b66ea316d21385b68909f,,,,,,,,,,,1322.1578,1323.1178,,,1323.582,1323.8558,,128,-52,,,,,,,,,,,,,,,,bars/004.png,bars/mask009.png,,,,,,,,,,,,8,2,,,,,,,8,10,6,9,,,,,,,,,,,1323.1179,1323.5819,1323.8558,1337.4993,space,13.5076,0.0001,1337.4993,77,3,1338.4613,1338.4613,1338.4674,,,,0,31,31,31,1,25,125,,,,,,,,
,,659e3309ae35db2b1664bf89,65af550c8504a42db6af7f98,2024-01-23_15h00.15.967,bars,2023.2.3,Win32,7.496589052,657b66ea316d21385b68909f,,,,,,,,,,,1338.4676,1339.4161,,,1339.8314,1340.1163,,50,50,,,,,,,,,,,,,,,,bars/025.png,bars/mask006.png,,,,,,,,,,,,5,2,,,,,,,6,8,6,8,,,,,,,,,,,1339.4161,1339.8313,1340.1164,1345.806,space,5.5629,,1345.8061,55,10,1346.7853,1346.7853,1346.7913,,,,0,32,32,32,1,105,40,,,,,,,,
,,659e3309ae35db2b1664bf89,65af550c8504a42db6af7f98,2024-01-23_15h00.15.967,bars,2023.2.3,Win32,7.496589052,657b66ea316d21385b68909f,,,,,,,,,,,1346.7916,1347.7544,,,1348.1856,1348.4741,,98,98,,,,,,,,,,,,,,,,bars/006.png,bars/mask006.png,,,,,,,,,,,,9,2,,,,,,,8,10,8,10,,,,,,,,,,,1347.7545,1348.1855,1348.4741,1358.0774,space,9.4645,0.0002,1358.0774,63,2,1359.0981,1359.0981,1359.1046,,,,0,33,33,33,1,35,100,,,,,,,,
,,659e3309ae35db2b1664bf89,65af550c8504a42db6af7f98,2024-01-23_15h00.15.967,bars,2023.2.3,Win32,7.496589052,657b66ea316d21385b68909f,,,,,,,,,,,1359.1047,1360.0751,,,1360.4909,1360.6372,,13,193,,,,,,,,,,,,,,,,bars/036.png,bars/mask000.png,,,,,,,,,,,,8,2,,,,,,,6,8,6,10,,,,,,,,,,,1360.0752,1360.4909,1360.6372,1375.5248,space,14.7516,0.0003,1375.5249,48,7,1376.5262,1376.5262,1376.5322,,,,0,34,34,34,1,145,20,,,,,,,,
,,659e3309ae35db2b1664bf89,65af550c8504a42db6af7f98,2024-01-23_15h00.15.967,bars,2023.2.3,Win32,7.496589052,657b66ea316d21385b68909f,,,,,,,,,,,1376.5324,1377.513,,,1377.9294,1378.1966,,21,21,,,,,,,,,,,,,,,,bars/036.png,bars/mask009.png,,,,,,,,,,,,6,2,,,,,,,4,6,4,6,,,,,,,,,,,1377.513,1377.9294,1378.1966,1390.1816,space,11.8295,0.0002,1390.1816,56,1,1391.1119,1391.112,1391.1209,,,,0,35,35,35,1,145,20,,,,,,,,
,,659e3309ae35db2b1664bf89,65af550c8504a42db6af7f98,2024-01-23_15h00.15.967,bars,2023.2.3,Win32,7.496589052,657b66ea316d21385b68909f,,,,,,,,,,,1391.1211,1392.0918,,,1392.6617,1392.8422,,78,78,,,,,,,,,,,,,,,,bars/021.png,bars/mask000.png,,,,,,,,,,,,3,2,,,,,,,2,4,2,4,,,,,,,,,,,1392.0918,1392.6616,1392.8423,1405.1432,space,12.1325,,1405.1433,77,8,1406.0432,1406.0433,1406.0503,,,,0,36,36,36,1,155,70,,,,,,,,
,,659e3309ae35db2b1664bf89,65af550c8504a42db6af7f98,2024-01-23_15h00.15.967,bars,2023.2.3,Win32,7.496589052,657b66ea316d21385b68909f,,,,,,,,,,,1406.0505,1406.9661,,,1407.4546,1407.6054,,59,59,,,,,,,,,,,,,,,,bars/000.png,bars/mask002.png,,,,,,,,,,,,1,1,,,,,,,4,6,4,4,,,,,,,,,,,1406.9661,1407.4546,1407.6055,1432.7235,space,24.9899,9.99999E-05,1432.7236,19,86,1433.7297,1433.7297,1433.7391,,,,0,37,37,37,1,40,145,,,,,,,,
,,659e3309ae35db2b1664bf89,65af550c8504a42db6af7f98,2024-01-23_15h00.15.967,bars,2023.2.3,Win32,7.496589052,657b66ea316d21385b68909f,,,,,,,,,,,1433.7393,1434.6607,,,1435.1076,1435.2594,,132,132,,,,,,,,,,,,,,,,bars/034.png,bars/mask003.png,,,,,,,,,,,,1,1,,,,,,,2,8,1,7,,,,,,,,,,,1434.6608,1435.1076,1435.2594,1441.5272,space,6.117,0.0001,1441.5273,7,67,1442.5019,1442.5019,1442.5086,,,,0,38,38,38,1,125,65,,,,,,,,
,,659e3309ae35db2b1664bf89,65af550c8504a42db6af7f98,2024-01-23_15h00.15.967,bars,2023.2.3,Win32,7.496589052,657b66ea316d21385b68909f,,,,,,,,,,,1442.5087,1443.5145,,,1444.0206,1444.1924,,143,143,,,,,,,,,,,,,,,,bars/005.png,bars/mask008.png,,,,,,,,,,,,9,2,,,,,,,4,10,5,10,,,,,,,,,,,1443.5146,1444.0206,1444.1924,1449.4397,space,5.095,,1449.4399,47,3,1450.4144,1450.4146,1450.4226,,,,0,39,39,39,1,10,140,,,,,,,,
,,659e3309ae35db2b1664bf89,65af550c8504a42db6af7f98,2024-01-23_15h00.15.967,bars,2023.2.3,Win32,7.496589052,657b66ea316d21385b68909f,,,,,,,,,,,1450.4227,1451.3187,,,1451.7566,1451.9355,,13,13,,,,,,,,,,,,,,,,bars/040.png,bars/mask006.png,,,,,,,,,,,,5,2,,,,,,,6,8,7,7,,,,,,,,,,,1451.3187,1451.7566,1451.9356,1465.6053,space,13.513,,1465.6053,53,8,1466.5324,1466.5324,1466.5393,,,,0,40,40,40,1,140,5,,,,,,,,
,,659e3309ae35db2b1664bf89,65af550c8504a42db6af7f98,2024-01-23_15h00.15.967,bars,2023.2.3,Win32,7.496589052,657b66ea316d21385b68909f,,,,,,,,,,,1466.5394,1467.4496,,,1467.9708,1468.1171,,99,99,,,,,,,,,,,,,,,,bars/018.png,bars/mask002.png,,,,,,,,,,,,5,2,,,,,,,4,6,5,7,,,,,,,,,,,1467.4497,1467.9708,1468.1172,1484.5675,space,16.3134,9.99999E-05,1484.5677,51,9,1485.5047,1485.5047,1485.514,,,,0,41,41,41,1,150,90,,,,,,,,
,,659e3309ae35db2b1664bf89,65af550c8504a42db6af7f98,2024-01-23_15h00.15.967,bars,2023.2.3,Win32,7.496589052,657b66ea316d21385b68909f,,,,,,,,,,,1485.5142,1486.4214,,,1486.8709,1487.0294,,74,74,,,,,,,,,,,,,,,,bars/035.png,bars/mask006.png,,,,,,,,,,,,5,2,,,,,,,6,8,6,9,,,,,,,,,,,1486.4215,1486.8709,1487.0294,1505.2119,space,18.0531,,1505.2121,79,14,1506.2156,1506.2156,1506.2227,,,,0,42,42,42,1,175,60,,,,,,,,
,,659e3309ae35db2b1664bf89,65af550c8504a42db6af7f98,2024-01-23_15h00.15.967,bars,2023.2.3,Win32,7.496589052,657b66ea316d21385b68909f,,,,,,,,,,,1506.2229,1507.14,,,1507.6098,1507.7632,,115,115,,,,,,,,,,,,,,,,bars/028.png,bars/mask004.png,,,,,,,,,,,,6,2,,,,,,,8,6,9,7,,,,,,,,,,,1507.14,1507.6097,1507.7633,1524.5525,space,16.6529,,1524.5525,70,5,1525.5808,1525.5808,1525.5888,,,,0,43,43,43,1,45,120,,,,,,,,
,,659e3309ae35db2b1664bf89,65af550c8504a42db6af7f98,2024-01-23_15h00.15.967,bars,2023.2.3,Win32,7.496589052,657b66ea316d21385b68909f,,,,,,,,,,,1525.589,1526.6264,,,1527.1144,1527.2695,,121,121,,,,,,,,,,,,,,,,bars/023.png,bars/mask004.png,,,,,,,,,,,,8,2,,,,,,,6,8,5,10,,,,,,,,,,,1526.6265,1527.1144,1527.2695,1539.4233,space,12.0216,,1539.4233,79,6,1540.4434,1540.4434,1540.4501,,,,0,44,44,44,1,20,115,,,,,,,,
,,659e3309ae35db2b1664bf89,65af550c8504a42db6af7f98,2024-01-23_15h00.15.967,bars,2023.2.3,Win32,7.496589052,657b66ea316d21385b68909f,,,,,,,,,,,1540.4503,1541.3501,,,1541.8231,1541.968,,16,196,,,,,,,,,,,,,,,,bars/032.png,bars/mask004.png,,,,,,,,,,,,8,2,,,,,,,4,10,4,9,,,,,,,,,,,1541.3501,1541.8231,1541.9681,1554.2414,space,12.1341,,1554.2415,71,4,1555.1997,1555.1998,1555.2089,,,,0,45,45,45,1,125,20,,,,,,,,
,,659e3309ae35db2b1664bf89,65af550c8504a42db6af7f98,2024-01-23_15h00.15.967,bars,2023.2.3,Win32,7.496589052,657b66ea316d21385b68909f,,,,,,,,,,,1555.209,1556.1264,,,1556.5848,1556.7274,,136,-44,,,,,,,,,,,,,,,,bars/043.png,bars/mask004.png,,,,,,,,,,,,7,2,,,,,,,2,8,3,9,,,,,,,,,,,1556.1265,1556.5847,1556.7275,1570.737,space,13.8704,,1570.737,74,6,1571.6497,1571.6497,1571.6568,,,,0,46,46,46,1,30,130,,,,,,,,
,,659e3309ae35db2b1664bf89,65af550c8504a42db6af7f98,2024-01-23_15h00.15.967,bars,2023.2.3,Win32,7.496589052,657b66ea316d21385b68909f,,,,,,,,,,,1571.6569,1572.6897,,,1573.153,1573.3087,,160,160,,,,,,,,,,,,,,,,bars/016.png,bars/mask002.png,,,,,,,,,,,,8,2,,,,,,,4,6,4,9,,,,,,,,,,,1572.6898,1573.153,1573.3088,1594.6417,space,21.2089,,1594.6417,60,5,1595.6882,1595.6884,1595.698,,,,0,47,47,47,1,40,165,,,,,,,,
,,659e3309ae35db2b1664bf89,65af550c8504a42db6af7f98,2024-01-23_15h00.15.967,bars,2023.2.3,Win32,7.496589052,657b66ea316d21385b68909f,,,,,,,,,,,1595.6981,1596.7098,,,1597.1922,1597.3433,,74,74,,,,,,,,,,,,,,,,bars/034.png,bars/mask006.png,,,,,,,,,,,,5,2,,,,,,,2,8,1,7,,,,,,,,,,,1596.7099,1597.1922,1597.3433,1607.6642,space,10.1857,,1607.6642,51,9,1608.6138,1608.6139,1608.6231,,,,0,48,48,48,1,125,65,,,,,,,,
,,659e3309ae35db2b1664bf89,65af550c8504a42db6af7f98,2024-01-23_15h00.15.967,bars,2023.2.3,Win32,7.496589052,657b66ea316d21385b68909f,,,,,,,,,,,1608.6234,1609.6174,,,1610.1358,1610.3152,,73,73,,,,,,,,,,,,,,,,bars/047.png,bars/mask009.png,,,,,,,,,,,,5,2,,,,,,,0,6,0,6,,,,,,,,,,,1609.6174,1610.1357,1610.3153,1618.0804,space,7.6201,0.0002,1618.0804,58,3,1618.977,1618.9771,1618.985,,,,0,49,49,49,1,15,70,,,,,,,,
,,659e3309ae35db2b1664bf89,65af550c8504a42db6af7f98,2024-01-23_15h00.15.967,bars,2023.2.3,Win32,7.496589052,657b66ea316d21385b68909f,,,,,,,,,,,,,,,,,,,,,,,,,,,,,,,,,,,,,,,,,,,,,,,,,,,,,,,,,,,,,,,,,,,,,,,,,,,,,,,,,,,,,,,,,,,,,1618.9851,1678.9369,0,1,1,4,1,sequence_tables/blk005.csv
,,659e3309ae35db2b1664bf89,65af550c8504a42db6af7f98,2024-01-23_15h00.15.967,bars,2023.2.3,Win32,7.496589052,657b66ea316d21385b68909f,,,,,,,,,,,1683.0184,1683.8834,,,1684.2745,1684.4487,,9,9,,,,,,,,,,,,,,,,bars/040.png,bars/mask001.png,,,,,,,,,,,,3,2,,,,,,,9,4,9,4,,,,,,1678.9434,1683.0161,space,3.9314,0.0002,1683.8836,1684.2745,1684.4488,1693.6255,space,9.0364,0.0001,1693.6255,49,4,1694.5387,1694.5387,1694.5474,,,,0,0,0,0,1,140,5,,,,,,,,
,,659e3309ae35db2b1664bf89,65af550c8504a42db6af7f98,2024-01-23_15h00.15.967,bars,2023.2.3,Win32,7.496589052,657b66ea316d21385b68909f,,,,,,,,,,,1694.5476,1695.442,,,1695.8981,1696.0495,,70,70,,,,,,,,,,,,,,,,bars/034.png,bars/mask005.png,,,,,,,,,,,,5,2,,,,,,,10,6,10,6,,,,,,,,,,,1695.442,1695.8981,1696.0495,1712.9729,space,16.7826,9.99999E-05,1712.9729,55,5,1713.8945,1713.8945,1713.9023,,,,0,1,1,1,1,125,65,,,,,,,,
,,659e3309ae35db2b1664bf89,65af550c8504a42db6af7f98,2024-01-23_15h00.15.967,bars,2023.2.3,Win32,7.496589052,657b66ea316d21385b68909f,,,,,,,,,,,1713.9023,1714.8039,,,1715.2882,1715.4471,,148,148,,,,,,,,,,,,,,,,bars/000.png,bars/mask009.png,,,,,,,,,,,,5,2,,,,,,,8,4,8,5,,,,,,,,,,,1714.804,1715.2882,1715.4472,1726.2279,space,10.6471,9.99999E-05,1726.2281,72,3,1727.2351,1727.2352,1727.2451,,,,0,2,2,2,1,40,145,,,,,,,,
,,659e3309ae35db2b1664bf89,65af550c8504a42db6af7f98,2024-01-23_15h00.15.967,bars,2023.2.3,Win32,7.496589052,657b66ea316d21385b68909f,,,,,,,,,,,1727.2452,1728.2979,,,1728.8074,1728.976,,69,69,,,,,,,,,,,,,,,,bars/035.png,bars/mask008.png,,,,,,,,,,,,5,2,,,,,,,6,6,6,7,,,,,,,,,,,1728.2979,1728.8073,1728.976,1748.9904,space,19.8635,,1748.9905,74,9,1749.9042,1749.9043,1749.9122,,,,0,3,3,3,1,175,60,,,,,,,,
,,659e3309ae35db2b1664bf89,65af550c8504a42db6af7f98,2024-01-23_15h00.15.967,bars,2023.2.3,Win32,7.496589052,657b66ea316d21385b68909f,,,,,,,,,,,1749.9123,1750.8697,,,1751.3284,1751.4697,,78,78,,,,,,,,,,,,,,,,bars/002.png,bars/mask005.png,,,,,,,,,,,,6,2,,,,,,,4,8,3,8,,,,,,,,,,,1750.8698,1751.3284,1751.4697,1764.2137,space,12.6191,,1764.2137,52,7,1765.1294,1765.1295,1765.138,,,,0,4,4,4,1,130,85,,,,,,,,
,,659e3309ae35db2b1664bf89,65af550c8504a42db6af7f98,2024-01-23_15h00.15.967,bars,2023.2.3,Win32,7.496589052,657b66ea316d21385b68909f,,,,,,,,,,,1765.1382,1766.0648,,,1766.5655,1766.7225,,86,86,,,,,,,,,,,,,,,,bars/018.png,bars/mask006.png,,,,,,,,,,,,9,2,,,,,,,2,10,1,10,,,,,,,,,,,1766.0649,1766.5655,1766.7225,1771.3209,space,4.4545,0.0002,1771.3209,64,4,1772.3198,1772.3199,1772.3284,,,,0,5,5,5,1,150,90,,,,,,,,
,,659e3309ae35db2b1664bf89,65af550c8504a42db6af7f98,2024-01-23_15h00.15.967,bars,2023.2.3,Win32,7.496589052,657b66ea316d21385b68909f,,,,,,,,,,,1772.3286,1773.3351,,,1773.8486,1774.0038,,163,-17,,,,,,,,,,,,,,,,bars/033.png,bars/mask008.png,,,,,,,,,,,,6,2,,,,,,,4,8,4,8,,,,,,,,,,,1773.3351,1773.8485,1774.0039,1799.0723,space,24.9286,0.0003,1799.0724,42,8,1799.9838,1799.9838,1799.9918,,,,0,6,6,6,1,25,155,,,,,,,,
,,659e3309ae35db2b1664bf89,65af550c8504a42db6af7f98,2024-01-23_15h00.15.967,bars,2023.2.3,Win32,7.496589052,657b66ea316d21385b68909f,,,,,,,,,,,1799.992,1801.0141,,,1801.5607,1801.7365,,16,196,,,,,,,,,,,,,,,,bars/014.png,bars/mask001.png,,,,,,,,,,,,5,2,,,,,,,2,10,1,10,,,,,,,,,,,1801.0142,1801.5606,1801.7365,1812.9568,space,11.0583,,1812.9569,64,16,1813.8891,1813.8891,1813.8963,,,,0,7,7,7,1,80,0,,,,,,,,
,,659e3309ae35db2b1664bf89,65af550c8504a42db6af7f98,2024-01-23_15h00.15.967,bars,2023.2.3,Win32,7.496589052,657b66ea316d21385b68909f,,,,,,,,,,,1813.8964,1814.8558,,,1815.3353,1815.4909,,108,108,,,,,,,,,,,,,,,,bars/027.png,bars/mask005.png,,,,,,,,,,,,4,1,,,,,,,4,8,4,7,,,,,,,,,,,1814.8558,1815.3353,1815.491,1826.519,space,10.8982,0.0002,1826.5191,2,58,1827.4769,1827.477,1827.486,,,,0,8,8,8,1,110,50,,,,,,,,
,,659e3309ae35db2b1664bf89,65af550c8504a42db6af7f98,2024-01-23_15h00.15.967,bars,2023.2.3,Win32,7.496589052,657b66ea316d21385b68909f,,,,,,,,,,,1827.4862,1828.3913,,,1828.8326,1828.9919,,25,25,,,,,,,,,,,,,,,,bars/003.png,bars/mask006.png,,,,,,,,,,,,2,1,,,,,,,2,6,2,7,,,,,,,,,,,1828.3913,1828.8326,1828.9919,1832.4668,space,3.2075,,1832.4668,0,65,1833.4955,1833.4955,1833.5056,,,,0,9,9,9,1,25,140,,,,,,,,
,,659e3309ae35db2b1664bf89,65af550c8504a42db6af7f98,2024-01-23_15h00.15.967,bars,2023.2.3,Win32,7.496589052,657b66ea316d21385b68909f,,,,,,,,,,,1833.5059,1834.4811,,,1834.9498,1835.1177,,16,16,,,,,,,,,,,,,,,,bars/045.png,bars/mask006.png,,,,,,,,,,,,6,2,,,,,,,4,8,3,7,,,,,,,,,,,1834.4811,1834.9497,1835.1177,1851.7115,space,16.4522,0.0001,1851.7116,84,6,1852.6329,1852.633,1852.6417,,,,0,10,10,10,1,100,10,,,,,,,,
,,659e3309ae35db2b1664bf89,65af550c8504a42db6af7f98,2024-01-23_15h00.15.967,bars,2023.2.3,Win32,7.496589052,657b66ea316d21385b68909f,,,,,,,,,,,1852.6418,1853.5772,,,1854.135,1854.3054,,23,203,,,,,,,,,,,,,,,,bars/032.png,bars/mask003.png,,,,,,,,,,,,6,2,,,,,,,2,6,1,7,,,,,,,,,,,1853.5772,1854.135,1854.3054,1873.8361,space,19.4056,9.99999E-05,1873.8361,78,3,1874.7369,1874.7369,1874.7465,,,,0,11,11,11,1,125,20,,,,,,,,
,,659e3309ae35db2b1664bf89,65af550c8504a42db6af7f98,2024-01-23_15h00.15.967,bars,2023.2.3,Win32,7.496589052,657b66ea316d21385b68909f,,,,,,,,,,,1874.7466,1875.6426,,,1876.1072,1876.2698,,95,95,,,,,,,,,,,,,,,,bars/019.png,bars/mask001.png,,,,,,,,,,,,4,2,,,,,,,4,4,4,6,,,,,,,,,,,1875.6426,1876.1072,1876.2698,1890.5822,space,14.1633,0.0001,1890.5822,50,10,1891.6057,1891.6057,1891.6142,,,,0,12,12,12,1,45,105,,,,,,,,
,,659e3309ae35db2b1664bf89,65af550c8504a42db6af7f98,2024-01-23_15h00.15.967,bars,2023.2.3,Win32,7.496589052,657b66ea316d21385b68909f,,,,,,,,,,,1891.6144,1892.527,,,1893.0501,1893.2347,,94,94,,,,,,,,,,,,,,,,bars/002.png,bars/mask003.png,,,,,,,,,,,,4,2,,,,,,,2,6,1,6,,,,,,,,,,,1892.527,1893.0501,1893.2348,1897.3188,space,3.9279,,1897.3188,36,9,1898.2825,1898.2825,1898.2908,,,,0,13,13,13,1,130,85,,,,,,,,
,,659e3309ae35db2b1664bf89,65af550c8504a42db6af7f98,2024-01-23_15h00.15.967,bars,2023.2.3,Win32,7.496589052,657b66ea316d21385b68909f,,,,,,,,,,,1898.291,1899.2572,,,1899.6264,1899.8023,,138,138,,,,,,,,,,,,,,,,bars/030.png,bars/mask007.png,,,,,,,,,,,,4,1,,,,,,,4,4,4,4,,,,,,,,,,,1899.2572,1899.6263,1899.8024,1917.9715,space,18.0295,0.0001,1917.9715,2,73,1919.0086,1919.0086,1919.0183,,,,0,14,14,14,1,140,65,,,,,,,,
,,659e3309ae35db2b1664bf89,65af550c8504a42db6af7f98,2024-01-23_15h00.15.967,bars,2023.2.3,Win32,7.496589052,657b66ea316d21385b68909f,,,,,,,,,,,1919.0186,1919.9213,,,1920.4545,1920.6243,,163,163,,,,,,,,,,,,,,,,bars/039.png,bars/mask006.png,,,,,,,,,,,,4,1,,,,,,,6,2,6,3,,,,,,,,,,,1919.9214,1920.4544,1920.6243,1929.6506,space,8.8673,0,1929.6507,12,58,1930.68,1930.68,1930.6873,,,,0,15,15,15,1,175,105,,,,,,,,
,,659e3309ae35db2b1664bf89,65af550c8504a42db6af7f98,2024-01-23_15h00.15.967,bars,2023.2.3,Win32,7.496589052,657b66ea316d21385b68909f,,,,,,,,,,,1930.6874,1931.6826,,,1932.21,1932.3908,,149,-31,,,,,,,,,,,,,,,,bars/002.png,bars/mask004.png,,,,,,,,,,,,3,1,,,,,,,8,0,8,0,,,,,,,,,,,1931.6826,1932.21,1932.3908,1950.9506,space,18.4047,,1950.9508,19,64,1951.8963,1951.8964,1951.9048,,,,0,16,16,16,1,130,85,,,,,,,,
,,659e3309ae35db2b1664bf89,65af550c8504a42db6af7f98,2024-01-23_15h00.15.967,bars,2023.2.3,Win32,7.496589052,657b66ea316d21385b68909f,,,,,,,,,,,1951.905,1952.8637,,,1953.448,1953.6037,,8,8,,,,,,,,,,,,,,,,bars/008.png,bars/mask002.png,,,,,,,,,,,,2,2,,,,,,,6,2,6,3,,,,,,,,,,,1952.8637,1953.4479,1953.6038,1967.4625,space,13.7142,0.0002,1967.4625,78,8,1968.3911,1968.3911,1968.3998,,,,0,17,17,17,1,110,0,,,,,,,,
,,659e3309ae35db2b1664bf89,65af550c8504a42db6af7f98,2024-01-23_15h00.15.967,bars,2023.2.3,Win32,7.496589052,657b66ea316d21385b68909f,,,,,,,,,,,1968.3999,1969.398,,,1969.7648,1969.946,,148,-32,,,,,,,,,,,,,,,,bars/018.png,bars/mask007.png,,,,,,,,,,,,1,1,,,,,,,4,4,1,4,,,,,,,,,,,1969.398,1969.7647,1969.946,1982.9429,space,12.8499,,1982.943,2,58,1983.9447,1983.9447,1983.9537,,,,0,18,18,18,1,150,90,,,,,,,,
,,659e3309ae35db2b1664bf89,65af550c8504a42db6af7f98,2024-01-23_15h00.15.967,bars,2023.2.3,Win32,7.496589052,657b66ea316d21385b68909f,,,,,,,,,,,1983.9538,1984.9128,,,1985.3934,1985.5548,,100,100,,,,,,,,,,,,,,,,bars/037.png,bars/mask009.png,,,,,,,,,,,,3,2,,,,,,,2,2,3,3,,,,,,,,,,,1984.9129,1985.3934,1985.5548,1994.0693,space,8.3662,,1994.0693,50,5,1995.0206,1995.0206,1995.0307,,,,0,19,19,19,1,150,105,,,,,,,,
,,659e3309ae35db2b1664bf89,65af550c8504a42db6af7f98,2024-01-23_15h00.15.967,bars,2023.2.3,Win32,7.496589052,657b66ea316d21385b68909f,,,,,,,,,,,1995.031,1996.0676,,,1996.5164,1996.6807,,111,111,,,,,,,,,,,,,,,,bars/049.png,bars/mask006.png,,,,,,,,,,,,3,2,,,,,,,0,4,1,3,,,,,,,,,,,1996.0677,1996.5164,1996.6807,1999.8551,space,3.0389,,1999.8551,49,4,2000.8698,2000.8698,2000.876,,,,0,20,20,20,1,160,115,,,,,,,,
,,659e3309ae35db2b1664bf89,65af550c8504a42db6af7f98,2024-01-23_15h00.15.967,bars,2023.2.3,Win32,7.496589052,657b66ea316d21385b68909f,,,,,,,,,,,2000.8762,2001.8661,,,2002.3913,2002.5602,,23,203,,,,,,,,,,,,,,,,bars/036.png,bars/mask009.png,,,,,,,,,,,,4,2,,,,,,,0,2,1,4,,,,,,,,,,,2001.8661,2002.3912,2002.5603,2017.8613,space,15.1484,,2017.8614,58,3,2018.7798,2018.7799,2018.788,,,,0,21,21,21,1,145,20,,,,,,,,
,,659e3309ae35db2b1664bf89,65af550c8504a42db6af7f98,2024-01-23_15h00.15.967,bars,2023.2.3,Win32,7.496589052,657b66ea316d21385b68909f,,,,,,,,,,,2018.7882,2019.7074,,,2020.233,2020.4048,,152,152,,,,,,,,,,,,,,,,bars/049.png,bars/mask004.png,,,,,,,,,,,,2,1,,,,,,,2,0,3,1,,,,,,,,,,,2019.7074,2020.2329,2020.4049,2025.6033,space,5.0454,0.0004,2025.6033,8,37,2026.5051,2026.5051,2026.5139,,,,0,22,22,22,1,160,115,,,,,,,,
,,659e3309ae35db2b1664bf89,65af550c8504a42db6af7f98,2024-01-23_15h00.15.967,bars,2023.2.3,Win32,7.496589052,657b66ea316d21385b68909f,,,,,,,,,,,2026.514,2027.422,,,2027.8685,2028.0395,,111,111,,,,,,,,,,,,,,,,bars/019.png,bars/mask006.png,,,,,,,,,,,,3,2,,,,,,,0,2,0,4,,,,,,,,,,,2027.422,2027.8685,2028.0395,2041.125,space,12.9383,9.99999E-05,2041.1251,66,6,2042.1486,2042.1486,2042.1574,,,,0,23,23,23,1,45,105,,,,,,,,
,,659e3309ae35db2b1664bf89,65af550c8504a42db6af7f98,2024-01-23_15h00.15.967,bars,2023.2.3,Win32,7.496589052,657b66ea316d21385b68909f,,,,,,,,,,,2042.1576,2043.1436,,,2043.6602,2043.8243,,73,253,,,,,,,,,,,,,,,,bars/027.png,bars/mask005.png,,,,,,,,,,,,1,2,,,,,,,2,4,2,4,,,,,,,,,,,2043.1436,2043.6601,2043.8244,2062.4364,space,18.4467,,2062.4365,37,23,2063.455,2063.455,2063.4622,,,,0,24,24,24,1,110,50,,,,,,,,
,,659e3309ae35db2b1664bf89,65af550c8504a42db6af7f98,2024-01-23_15h00.15.967,bars,2023.2.3,Win32,7.496589052,657b66ea316d21385b68909f,,,,,,,,,,,2063.4624,2064.4248,,,2064.784,2064.9558,,82,82,,,,,,,,,,,,,,,,bars/026.png,bars/mask008.png,,,,,,,,,,,,4,2,,,,,,,0,6,0,4,,,,,,,,,,,2064.4248,2064.7838,2064.9559,2077.3708,space,12.252,0.0002,2077.3708,47,3,2078.2844,2078.2845,2078.2909,,,,0,25,25,25,1,35,85,,,,,,,,
,,659e3309ae35db2b1664bf89,65af550c8504a42db6af7f98,2024-01-23_15h00.15.967,bars,2023.2.3,Win32,7.496589052,657b66ea316d21385b68909f,,,,,,,,,,,2078.291,2079.1945,,,2079.6514,2079.8136,,2,2,,,,,,,,,,,,,,,,bars/024.png,bars/mask003.png,,,,,,,,,,,,5,2,,,,,,,0,8,1,8,,,,,,,,,,,2079.1945,2079.6514,2079.8136,2084.0496,space,4.104,,2084.0497,62,12,2085.055,2085.0551,2085.0629,,,,0,26,26,26,1,120,170,,,,,,,,
,,659e3309ae35db2b1664bf89,65af550c8504a42db6af7f98,2024-01-23_15h00.15.967,bars,2023.2.3,Win32,7.496589052,657b66ea316d21385b68909f,,,,,,,,,,,2085.063,2086.0511,,,2086.5003,2086.6434,,162,-18,,,,,,,,,,,,,,,,bars/044.png,bars/mask009.png,,,,,,,,,,,,6,2,,,,,,,0,6,0,8,,,,,,,,,,,2086.0512,2086.5002,2086.6434,2096.0941,space,9.3282,,2096.0941,87,7,2097.1203,2097.1204,2097.1275,,,,0,27,27,27,1,75,155,,,,,,,,
,,659e3309ae35db2b1664bf89,65af550c8504a42db6af7f98,2024-01-23_15h00.15.967,bars,2023.2.3,Win32,7.496589052,657b66ea316d21385b68909f,,,,,,,,,,,2097.1277,2098.1359,,,2098.615,2098.7618,,174,174,,,,,,,,,,,,,,,,bars/045.png,bars/mask009.png,,,,,,,,,,,,1,2,,,,,,,2,4,1,3,,,,,,,,,,,2098.1359,2098.615,2098.762,2122.8963,space,23.9903,,2122.8964,74,16,2123.9044,2123.9045,2123.9132,,,,0,28,28,28,1,100,10,,,,,,,,
,,659e3309ae35db2b1664bf89,65af550c8504a42db6af7f98,2024-01-23_15h00.15.967,bars,2023.2.3,Win32,7.496589052,657b66ea316d21385b68909f,,,,,,,,,,,2123.9134,2124.9158,,,2125.4235,2125.608,,26,206,,,,,,,,,,,,,,,,bars/005.png,bars/mask009.png,,,,,,,,,,,,1,1,,,,,,,4,6,3,4,,,,,,,,,,,2124.9159,2125.4234,2125.6081,2143.6704,space,17.8919,,2143.6705,16,66,2144.68,2144.68,2144.688,,,,0,29,29,29,1,10,140,,,,,,,,
,,659e3309ae35db2b1664bf89,65af550c8504a42db6af7f98,2024-01-23_15h00.15.967,bars,2023.2.3,Win32,7.496589052,657b66ea316d21385b68909f,,,,,,,,,,,2144.6882,2145.706,,,2146.2211,2146.3947,,103,103,,,,,,,,,,,,,,,,bars/009.png,bars/mask002.png,,,,,,,,,,,,5,2,,,,,,,2,4,1,5,,,,,,,,,,,2145.7061,2146.221,2146.3948,2153.6332,space,7.0795,0.0001,2153.6332,88,2,2154.6101,2154.6102,2154.6183,,,,0,30,30,30,1,15,105,,,,,,,,
,,659e3309ae35db2b1664bf89,65af550c8504a42db6af7f98,2024-01-23_15h00.15.967,bars,2023.2.3,Win32,7.496589052,657b66ea316d21385b68909f,,,,,,,,,,,2154.6186,2155.6267,,,2156.1115,2156.282,,78,78,,,,,,,,,,,,,,,,bars/038.png,bars/mask005.png,,,,,,,,,,,,4,2,,,,,,,4,6,4,6,,,,,,,,,,,2155.6268,2156.1115,2156.282,2168.1365,space,11.7052,0.0002,2168.1366,87,8,2169.0915,2169.0916,2169.0988,,,,0,31,31,31,1,165,70,,,,,,,,
,,659e3309ae35db2b1664bf89,65af550c8504a42db6af7f98,2024-01-23_15h00.15.967,bars,2023.2.3,Win32,7.496589052,657b66ea316d21385b68909f,,,,,,,,,,,2169.0989,2170.0621,,,2170.5554,2170.7157,,45,45,,,,,,,,,,,,,,,,bars/031.png,bars/mask001.png,,,,,,,,,,,,3,2,,,,,,,6,4,5,5,,,,,,,,,,,2170.0621,2170.5552,2170.7158,2183.7402,space,12.8772,9.99999E-05,2183.7403,75,10,2184.7425,2184.7425,2184.7504,,,,0,32,32,32,1,120,35,,,,,,,,
,,659e3309ae35db2b1664bf89,65af550c8504a42db6af7f98,2024-01-23_15h00.15.967,bars,2023.2.3,Win32,7.496589052,657b66ea316d21385b68909f,,,,,,,,,,,2184.7506,2185.7396,,,2186.2499,2186.4275,,111,111,,,,,,,,,,,,,,,,bars/012.png,bars/mask003.png,,,,,,,,,,,,3,1,,,,,,,8,6,9,8,,,,,,,,,,,2185.7396,2186.2498,2186.4275,2202.1031,space,15.472,0,2202.1031,21,84,2203.0062,2203.0063,2203.0156,,,,0,33,33,33,1,90,15,,,,,,,,
,,659e3309ae35db2b1664bf89,65af550c8504a42db6af7f98,2024-01-23_15h00.15.967,bars,2023.2.3,Win32,7.496589052,657b66ea316d21385b68909f,,,,,,,,,,,2203.0157,2204.0142,,,2204.3888,2204.572,,144,144,,,,,,,,,,,,,,,,bars/036.png,bars/mask009.png,,,,,,,,,,,,6,1,,,,,,,6,8,6,7,,,,,,,,,,,2204.0142,2204.3887,2204.572,2218.654,space,13.9237,,2218.654,1,56,2219.5847,2219.5848,2219.5914,,,,0,34,34,34,1,145,20,,,,,,,,
,,659e3309ae35db2b1664bf89,65af550c8504a42db6af7f98,2024-01-23_15h00.15.967,bars,2023.2.3,Win32,7.496589052,657b66ea316d21385b68909f,,,,,,,,,,,2219.5915,2220.4935,,,2220.9097,2221.0532,,114,114,,,,,,,,,,,,,,,,bars/045.png,bars/mask003.png,,,,,,,,,,,,3,1,,,,,,,4,10,5,10,,,,,,,,,,,2220.4935,2220.9097,2221.0532,2239.0248,space,17.8452,,2239.0249,14,76,2239.9411,2239.9411,2239.9472,,,,0,35,35,35,1,100,10,,,,,,,,
,,659e3309ae35db2b1664bf89,65af550c8504a42db6af7f98,2024-01-23_15h00.15.967,bars,2023.2.3,Win32,7.496589052,657b66ea316d21385b68909f,,,,,,,,,,,2239.9473,2240.9315,,,2241.3976,2241.5476,,132,132,,,,,,,,,,,,,,,,bars/043.png,bars/mask004.png,,,,,,,,,,,,9,2,,,,,,,6,10,6,10,,,,,,,,,,,2240.9315,2241.3975,2241.5477,2257.5489,space,15.848,,2257.5489,78,2,2258.5348,2258.5349,2258.5416,,,,0,36,36,36,1,30,130,,,,,,,,
,,659e3309ae35db2b1664bf89,65af550c8504a42db6af7f98,2024-01-23_15h00.15.967,bars,2023.2.3,Win32,7.496589052,657b66ea316d21385b68909f,,,,,,,,,,,2258.5417,2259.5273,,,2260.0079,2260.1656,,8,188,,,,,,,,,,,,,,,,bars/045.png,bars/mask009.png,,,,,,,,,,,,7,2,,,,,,,8,8,8,7,,,,,,,,,,,2259.5274,2260.0078,2260.1657,2273.9462,space,13.6411,0.0003,2273.9462,88,2,2274.9298,2274.9298,2274.9371,,,,0,37,37,37,1,100,10,,,,,,,,
,,659e3309ae35db2b1664bf89,65af550c8504a42db6af7f98,2024-01-23_15h00.15.967,bars,2023.2.3,Win32,7.496589052,657b66ea316d21385b68909f,,,,,,,,,,,2274.9373,2275.8366,,,2276.3324,2276.5,,44,44,,,,,,,,,,,,,,,,bars/029.png,bars/mask001.png,,,,,,,,,,,,10,2,,,,,,,10,10,10,10,,,,,,,,,,,2275.8368,2276.3324,2276.5001,2284.2849,space,7.6256,,2284.2849,46,1,2285.3052,2285.3077,2285.315,,,,0,38,38,38,1,90,45,,,,,,,,
,,659e3309ae35db2b1664bf89,65af550c8504a42db6af7f98,2024-01-23_15h00.15.967,bars,2023.2.3,Win32,7.496589052,657b66ea316d21385b68909f,,,,,,,,,,,2285.3151,2286.3065,,,2286.822,2286.9884,,65,65,,,,,,,,,,,,,,,,bars/038.png,bars/mask000.png,,,,,,,,,,,,8,2,,,,,,,8,10,7,10,,,,,,,,,,,2286.3065,2286.8219,2286.9885,2298.177,space,11.0288,0.0002,2298.177,80,5,2299.1443,2299.1443,2299.1506,,,,0,39,39,39,1,165,70,,,,,,,,
,,659e3309ae35db2b1664bf89,65af550c8504a42db6af7f98,2024-01-23_15h00.15.967,bars,2023.2.3,Win32,7.496589052,657b66ea316d21385b68909f,,,,,,,,,,,2299.1507,2300.1534,,,2300.5961,2300.7588,,86,86,,,,,,,,,,,,,,,,bars/011.png,bars/mask005.png,,,,,,,,,,,,9,2,,,,,,,6,10,8,9,,,,,,,,,,,2300.1535,2300.5961,2300.7588,2315.215,space,14.3292,,2315.215,74,1,2316.1139,2316.114,2316.1206,,,,0,40,40,40,1,160,85,,,,,,,,
,,659e3309ae35db2b1664bf89,65af550c8504a42db6af7f98,2024-01-23_15h00.15.967,bars,2023.2.3,Win32,7.496589052,657b66ea316d21385b68909f,,,,,,,,,,,2316.1207,2317.1166,,,2317.628,2317.7936,,16,196,,,,,,,,,,,,,,,,bars/014.png,bars/mask007.png,,,,,,,,,,,,5,2,,,,,,,8,10,8,10,,,,,,,,,,,2317.1166,2317.6279,2317.7937,2336.6679,space,18.7189,,2336.668,64,16,2337.6652,2337.6652,2337.6715,,,,0,41,41,41,1,80,0,,,,,,,,
,,659e3309ae35db2b1664bf89,65af550c8504a42db6af7f98,2024-01-23_15h00.15.967,bars,2023.2.3,Win32,7.496589052,657b66ea316d21385b68909f,,,,,,,,,,,2337.6717,2338.6812,,,2339.173,2339.3373,,64,64,,,,,,,,,,,,,,,,bars/047.png,bars/mask002.png,,,,,,,,,,,,6,2,,,,,,,6,8,4,7,,,,,,,,,,,2338.6813,2339.173,2339.3374,2354.7054,space,15.2154,0.0001,2354.7054,49,6,2355.6808,2355.6808,2355.6868,,,,0,42,42,42,1,15,70,,,,,,,,
,,659e3309ae35db2b1664bf89,65af550c8504a42db6af7f98,2024-01-23_15h00.15.967,bars,2023.2.3,Win32,7.496589052,657b66ea316d21385b68909f,,,,,,,,,,,2355.6869,2356.5986,,,2357.1146,2357.2916,,99,99,,,,,,,,,,,,,,,,bars/019.png,bars/mask006.png,,,,,,,,,,,,6,2,,,,,,,8,6,10,7,,,,,,,,,,,2356.5987,2357.1146,2357.2917,2365.2631,space,7.8147,,2365.2632,54,6,2366.2808,2366.2808,2366.2885,,,,0,43,43,43,1,45,105,,,,,,,,
,,659e3309ae35db2b1664bf89,65af550c8504a42db6af7f98,2024-01-23_15h00.15.967,bars,2023.2.3,Win32,7.496589052,657b66ea316d21385b68909f,,,,,,,,,,,2366.2887,2367.2902,,,2367.8122,2367.9853,,136,136,,,,,,,,,,,,,,,,bars/005.png,bars/mask001.png,,,,,,,,,,,,3,2,,,,,,,10,4,10,3,,,,,,,,,,,2367.2903,2367.8122,2367.9854,2388.59,space,20.4427,,2388.5901,54,4,2389.5577,2389.5577,2389.5656,,,,0,44,44,44,1,10,140,,,,,,,,
,,659e3309ae35db2b1664bf89,65af550c8504a42db6af7f98,2024-01-23_15h00.15.967,bars,2023.2.3,Win32,7.496589052,657b66ea316d21385b68909f,,,,,,,,,,,2389.5658,2390.6237,,,2390.9914,2391.1442,,31,211,,,,,,,,,,,,,,,,bars/003.png,bars/mask003.png,,,,,,,,,,,,8,1,,,,,,,10,2,10,1,,,,,,,,,,,2390.624,2390.9913,2391.1442,2407.0929,space,15.7942,0.0004,2407.093,6,71,2408.0539,2408.0539,2408.0605,,,,0,45,45,45,1,25,140,,,,,,,,
,,659e3309ae35db2b1664bf89,65af550c8504a42db6af7f98,2024-01-23_15h00.15.967,bars,2023.2.3,Win32,7.496589052,657b66ea316d21385b68909f,,,,,,,,,,,2408.0606,2409.045,,,2409.5717,2409.7367,,160,160,,,,,,,,,,,,,,,,bars/021.png,bars/mask005.png,,,,,,,,,,,,8,1,,,,,,,8,0,10,0,,,,,,,,,,,2409.045,2409.5716,2409.7367,2415.3022,space,5.4062,9.99999E-05,2415.3023,5,90,2416.2333,2416.2334,2416.2436,,,,0,46,46,46,1,155,70,,,,,,,,
,,659e3309ae35db2b1664bf89,65af550c8504a42db6af7f98,2024-01-23_15h00.15.967,bars,2023.2.3,Win32,7.496589052,657b66ea316d21385b68909f,,,,,,,,,,,2416.2439,2417.1831,,,2417.695,2417.8721,,150,150,,,,,,,,,,,,,,,,bars/021.png,bars/mask005.png,,,,,,,,,,,,8,1,,,,,,,10,0,10,0,,,,,,,,,,,2417.1831,2417.6949,2417.8722,2429.7421,space,11.7242,0.0001,2429.7421,5,80,2430.7544,2430.7544,2430.7615,,,,0,47,47,47,1,155,70,,,,,,,,
,,659e3309ae35db2b1664bf89,65af550c8504a42db6af7f98,2024-01-23_15h00.15.967,bars,2023.2.3,Win32,7.496589052,657b66ea316d21385b68909f,,,,,,,,,,,2430.7616,2431.6353,,,2432.1282,2432.2774,,149,-31,,,,,,,,,,,,,,,,bars/018.png,bars/mask003.png,,,,,,,,,,,,10,1,,,,,,,10,0,10,0,,,,,,,,,,,2431.6355,2432.1281,2432.2774,2444.0296,space,11.5969,,2444.0296,1,59,2444.9513,2444.9514,2444.9596,,,,0,48,48,48,1,150,90,,,,,,,,
,,659e3309ae35db2b1664bf89,65af550c8504a42db6af7f98,2024-01-23_15h00.15.967,bars,2023.2.3,Win32,7.496589052,657b66ea316d21385b68909f,,,,,,,,,,,2444.9597,2445.9845,,,2446.4668,2446.6232,,150,-30,,,,,,,,,,,,,,,,bars/042.png,bars/mask004.png,,,,,,,,,,,,8,1,,,,,,,10,0,10,0,,,,,,,,,,,2445.9846,2446.4667,2446.6232,2457.0971,space,10.3425,,2457.0971,5,75,2458.107,2458.1071,2458.1144,,,,0,49,49,49,1,145,75,,,,,,,,
,,659e3309ae35db2b1664bf89,65af550c8504a42db6af7f98,2024-01-23_15h00.15.967,bars,2023.2.3,Win32,7.496589052,657b66ea316d21385b68909f,,,,,,,,,,,,,,,,,,,,,,,,,,,,,,,,,,,,,,,,,,,,,,,,,,,,,,,,,,,,,,,,,,,,,,,,,,,,,,,,,,,,,,,,,,,,,2458.1145,2518.1721,0,2,2,3,1,sequence_tables/blk018.csv
,,659e3309ae35db2b1664bf89,65af550c8504a42db6af7f98,2024-01-23_15h00.15.967,bars,2023.2.3,Win32,7.496589052,657b66ea316d21385b68909f,,,,,,,,,,,2561.4335,2562.3375,,,2562.7143,2562.895,,87,87,,,,,,,,,,,,,,,,bars/012.png,bars/mask001.png,,,,,,,,,,,,5,1,,,,,,,5,8,5,7,,,,,,2518.1813,2561.426,space,43.0861,0.0001,2562.3376,2562.7143,2562.8951,2573.4033,space,10.3535,0.0002,2573.4034,3,72,2574.3667,2574.3667,2574.3758,,,,0,0,0,0,1,90,15,,,,,,,,
,,659e3309ae35db2b1664bf89,65af550c8504a42db6af7f98,2024-01-23_15h00.15.967,bars,2023.2.3,Win32,7.496589052,657b66ea316d21385b68909f,,,,,,,,,,,2574.3761,2575.3157,,,2575.7698,2575.9386,,140,-40,,,,,,,,,,,,,,,,bars/034.png,bars/mask001.png,,,,,,,,,,,,2,1,,,,,,,3,6,4,8,,,,,,,,,,,2575.3157,2575.7697,2575.9387,2592.0144,space,15.9386,0,2592.0145,15,75,2592.9217,2592.9217,2592.9308,,,,0,1,1,1,1,125,65,,,,,,,,
,,659e3309ae35db2b1664bf89,65af550c8504a42db6af7f98,2024-01-23_15h00.15.967,bars,2023.2.3,Win32,7.496589052,657b66ea316d21385b68909f,,,,,,,,,,,2592.931,2593.9328,,,2594.3859,2594.5515,,76,76,,,,,,,,,,,,,,,,bars/013.png,bars/mask002.png,,,,,,,,,,,,5,1,,,,,,,5,8,5,9,,,,,,,,,,,2593.9328,2594.3859,2594.5516,2602.4649,space,7.785,,2602.4649,1,66,2603.4822,2603.4822,2603.4894,,,,0,2,2,2,1,75,10,,,,,,,,
,,659e3309ae35db2b1664bf89,65af550c8504a42db6af7f98,2024-01-23_15h00.15.967,bars,2023.2.3,Win32,7.496589052,657b66ea316d21385b68909f,,,,,,,,,,,2603.4895,2604.4696,,,2604.9286,2605.0927,,164,164,,,,,,,,,,,,,,,,bars/049.png,bars/mask009.png,,,,,,,,,,,,6,1,,,,,,,7,6,7,5,,,,,,,,,,,2604.4697,2604.9286,2605.0928,2611.6705,space,6.4472,,2611.6705,4,49,2612.6749,2612.6749,2612.6816,,,,0,3,3,3,1,160,115,,,,,,,,
,,659e3309ae35db2b1664bf89,65af550c8504a42db6af7f98,2024-01-23_15h00.15.967,bars,2023.2.3,Win32,7.496589052,657b66ea316d21385b68909f,,,,,,,,,,,2612.6817,2613.5947,,,2614.1067,2614.2729,,160,-20,,,,,,,,,,,,,,,,bars/046.png,bars/mask000.png,,,,,,,,,,,,7,1,,,,,,,9,4,8,2,,,,,,,,,,,2613.5948,2614.1065,2614.2729,2624.4482,space,10.0199,0,2624.4482,5,75,2625.3981,2625.3982,2625.4049,,,,0,4,4,4,1,155,85,,,,,,,,
,,659e3309ae35db2b1664bf89,65af550c8504a42db6af7f98,2024-01-23_15h00.15.967,bars,2023.2.3,Win32,7.496589052,657b66ea316d21385b68909f,,,,,,,,,,,2625.405,2626.2993,,,2626.7702,2626.9161,,30,210,,,,,,,,,,,,,,,,bars/016.png,bars/mask006.png,,,,,,,,,,,,5,1,,,,,,,7,6,8,4,,,,,,,,,,,2626.2993,2626.7702,2626.9161,2640.9268,space,13.8793,,2640.9269,10,45,2641.8305,2641.8305,2641.8375,,,,0,5,5,5,1,40,165,,,,,,,,
,,659e3309ae35db2b1664bf89,65af550c8504a42db6af7f98,2024-01-23_15h00.15.967,bars,2023.2.3,Win32,7.496589052,657b66ea316d21385b68909f,,,,,,,,,,,2641.8376,2642.8011,,,2643.3165,2643.4826,,119,119,,,,,,,,,,,,,,,,bars/027.png,bars/mask006.png,,,,,,,,,,,,6,1,,,,,,,9,8,9,7,,,,,,,,,,,2642.8011,2643.3165,2643.4826,2652.8901,space,9.2555,,2652.8901,9,69,2653.9269,2653.9269,2653.9362,,,,0,6,6,6,1,110,50,,,,,,,,
,,659e3309ae35db2b1664bf89,65af550c8504a42db6af7f98,2024-01-23_15h00.15.967,bars,2023.2.3,Win32,7.496589052,657b66ea316d21385b68909f,,,,,,,,,,,2653.9366,2654.8321,,,2655.3741,2655.5368,,28,28,,,,,,,,,,,,,,,,bars/015.png,bars/mask006.png,,,,,,,,,,,,0,2,,,,,,,7,10,7,10,,,,,,,,,,,2654.8321,2655.3741,2655.5368,2656.6214,space,0.936,,2656.6214,82,48,2657.6583,2657.6583,2657.66,,,,0,7,7,7,1,110,160,,,,,,,,
,,659e3309ae35db2b1664bf89,65af550c8504a42db6af7f98,2024-01-23_15h00.15.967,bars,2023.2.3,Win32,7.496589052,657b66ea316d21385b68909f,,,,,,,,,,,2657.6602,2658.5954,,,2659.1099,2659.2775,,164,-16,,,,,,,,,,,,,,,,bars/046.png,bars/mask006.png,,,,,,,,,,,,3,1,,,,,,,5,10,4,9,,,,,,,,,,,2658.5954,2659.1099,2659.2775,2670.3724,space,10.9368,,2670.3724,9,79,2671.3729,2671.3729,2671.3828,,,,0,8,8,8,1,155,85,,,,,,,,
,,659e3309ae35db2b1664bf89,65af550c8504a42db6af7f98,2024-01-23_15h00.15.967,bars,2023.2.3,Win32,7.496589052,657b66ea316d21385b68909f,,,,,,,,,,,2671.3833,2672.4219,,,2672.9381,2673.1062,,82,82,,,,,,,,,,,,,,,,bars/022.png,bars/mask007.png,,,,,,,,,,,,4,1,,,,,,,7,8,7,8,,,,,,,,,,,2672.4219,2672.9381,2673.1062,2683.7261,space,10.4508,0.0002,2683.7262,13,62,2684.6521,2684.6521,2684.6617,,,,0,9,9,9,1,95,20,,,,,,,,
,,659e3309ae35db2b1664bf89,65af550c8504a42db6af7f98,2024-01-23_15h00.15.967,bars,2023.2.3,Win32,7.496589052,657b66ea316d21385b68909f,,,,,,,,,,,2684.6618,2685.5545,,,2686.0288,2686.2139,,109,109,,,,,,,,,,,,,,,,bars/020.png,bars/mask001.png,,,,,,,,,,,,8,1,,,,,,,9,6,10,6,,,,,,,,,,,2685.5546,2686.0287,2686.2141,2695.0655,space,8.7046,,2695.0656,6,61,2695.983,2695.9831,2695.9891,,,,0,10,10,10,1,115,170,,,,,,,,
,,659e3309ae35db2b1664bf89,65af550c8504a42db6af7f98,2024-01-23_15h00.15.967,bars,2023.2.3,Win32,7.496589052,657b66ea316d21385b68909f,,,,,,,,,,,2695.9891,2696.8981,,,2697.3616,2697.5181,,33,33,,,,,,,,,,,,,,,,bars/043.png,bars/mask001.png,,,,,,,,,,,,9,1,,,,,,,10,8,10,7,,,,,,,,,,,2696.8981,2697.3616,2697.5182,2704.9796,space,7.3196,9.99999E-05,2704.9796,3,83,2705.8804,2705.8804,2705.8899,,,,0,11,11,11,1,30,130,,,,,,,,
,,659e3309ae35db2b1664bf89,65af550c8504a42db6af7f98,2024-01-23_15h00.15.967,bars,2023.2.3,Win32,7.496589052,657b66ea316d21385b68909f,,,,,,,,,,,2705.8901,2706.8121,,,2707.2922,2707.4457,,25,25,,,,,,,,,,,,,,,,bars/004.png,bars/mask005.png,,,,,,,,,,,,10,1,,,,,,,8,10,10,10,,,,,,,,,,,2706.8122,2707.2922,2707.4457,2721.5689,space,13.9828,0.0001,2721.5689,0,80,2722.5625,2722.5626,2722.5691,,,,0,12,12,12,1,25,125,,,,,,,,
,,659e3309ae35db2b1664bf89,65af550c8504a42db6af7f98,2024-01-23_15h00.15.967,bars,2023.2.3,Win32,7.496589052,657b66ea316d21385b68909f,,,,,,,,,,,2722.5692,2723.5666,,,2724.0759,2724.243,,141,141,,,,,,,,,,,,,,,,bars/002.png,bars/mask001.png,,,,,,,,,,,,4,1,,,,,,,6,8,7,8,,,,,,,,,,,2723.5667,2724.0758,2724.243,2733.5841,space,9.1919,0.0001,2733.5841,11,56,2734.5999,2734.5999,2734.6086,,,,0,13,13,13,1,130,85,,,,,,,,
,,659e3309ae35db2b1664bf89,65af550c8504a42db6af7f98,2024-01-23_15h00.15.967,bars,2023.2.3,Win32,7.496589052,657b66ea316d21385b68909f,,,,,,,,,,,2734.6087,2735.5461,,,2736.0249,2736.1844,,144,144,,,,,,,,,,,,,,,,bars/046.png,bars/mask003.png,,,,,,,,,,,,1,1,,,,,,,4,10,1,10,,,,,,,,,,,2735.5461,2736.0248,2736.1845,2745.6177,space,9.3058,9.99999E-05,2745.6177,11,59,2746.6289,2746.629,2746.6372,,,,0,14,14,14,1,155,85,,,,,,,,
,,659e3309ae35db2b1664bf89,65af550c8504a42db6af7f98,2024-01-23_15h00.15.967,bars,2023.2.3,Win32,7.496589052,657b66ea316d21385b68909f,,,,,,,,,,,2746.6374,2747.5635,,,2748.0965,2748.2649,,167,167,,,,,,,,,,,,,,,,bars/048.png,bars/mask000.png,,,,,,,,,,,,5,2,,,,,,,6,8,7,7,,,,,,,,,,,2747.5635,2748.0964,2748.2649,2755.3551,space,6.959,,2755.3552,63,8,2756.251,2756.251,2756.2611,,,,0,15,15,15,1,50,175,,,,,,,,
,,659e3309ae35db2b1664bf89,65af550c8504a42db6af7f98,2024-01-23_15h00.15.967,bars,2023.2.3,Win32,7.496589052,657b66ea316d21385b68909f,,,,,,,,,,,2756.2614,2757.1751,,,2757.6374,2757.8077,,79,79,,,,,,,,,,,,,,,,bars/026.png,bars/mask007.png,,,,,,,,,,,,4,2,,,,,,,4,6,3,5,,,,,,,,,,,2757.1752,2757.6374,2757.8078,2768.6253,space,10.6699,0.0005,2768.6255,44,6,2769.5809,2769.5809,2769.5899,,,,0,16,16,16,1,35,85,,,,,,,,
,,659e3309ae35db2b1664bf89,65af550c8504a42db6af7f98,2024-01-23_15h00.15.967,bars,2023.2.3,Win32,7.496589052,657b66ea316d21385b68909f,,,,,,,,,,,2769.59,2770.6763,,,2771.1778,2771.3563,,74,74,,,,,,,,,,,,,,,,bars/038.png,bars/mask001.png,,,,,,,,,,,,7,2,,,,,,,6,8,6,8,,,,,,,,,,,2770.6764,2771.1777,2771.3564,2787.6975,space,16.1936,,2787.6975,89,4,2788.6298,2788.6299,2788.6384,,,,0,17,17,17,1,165,70,,,,,,,,
,,659e3309ae35db2b1664bf89,65af550c8504a42db6af7f98,2024-01-23_15h00.15.967,bars,2023.2.3,Win32,7.496589052,657b66ea316d21385b68909f,,,,,,,,,,,2788.6386,2789.6171,,,2790.1174,2790.2818,,99,99,,,,,,,,,,,,,,,,bars/009.png,bars/mask008.png,,,,,,,,,,,,6,2,,,,,,,8,10,6,8,,,,,,,,,,,2789.6171,2790.1173,2790.2818,2804.6624,space,14.2318,,2804.6624,84,6,2805.5457,2805.5458,2805.5561,,,,0,18,18,18,1,15,105,,,,,,,,
,,659e3309ae35db2b1664bf89,65af550c8504a42db6af7f98,2024-01-23_15h00.15.967,bars,2023.2.3,Win32,7.496589052,657b66ea316d21385b68909f,,,,,,,,,,,2805.5564,2806.4462,,,2806.9276,2807.0871,,124,124,,,,,,,,,,,,,,,,bars/004.png,bars/mask003.png,,,,,,,,,,,,9,2,,,,,,,6,8,6,9,,,,,,,,,,,2806.4462,2806.9276,2807.0871,2816.8733,space,9.6345,0.0002,2816.8734,81,1,2817.8334,2817.8335,2817.8404,,,,0,19,19,19,1,25,125,,,,,,,,
,,659e3309ae35db2b1664bf89,65af550c8504a42db6af7f98,2024-01-23_15h00.15.967,bars,2023.2.3,Win32,7.496589052,657b66ea316d21385b68909f,,,,,,,,,,,2817.8405,2818.7373,,,2819.2051,2819.3689,,157,-23,,,,,,,,,,,,,,,,bars/033.png,bars/mask006.png,,,,,,,,,,,,9,2,,,,,,,4,10,5,10,,,,,,,,,,,2818.7374,2819.205,2819.3691,2838.9266,space,19.4139,,2838.9266,48,2,2839.7762,2839.7762,2839.7831,,,,0,20,20,20,1,25,155,,,,,,,,
,,659e3309ae35db2b1664bf89,65af550c8504a42db6af7f98,2024-01-23_15h00.15.967,bars,2023.2.3,Win32,7.496589052,657b66ea316d21385b68909f,,,,,,,,,,,2839.7838,2840.8264,,,2841.3269,2841.5032,,158,158,,,,,,,,,,,,,,,,bars/033.png,bars/mask001.png,,,,,,,,,,,,8,2,,,,,,,2,10,1,9,,,,,,,,,,,2840.8264,2841.3269,2841.5033,2858.3362,space,16.6838,0,2858.3363,47,3,2859.2581,2859.2581,2859.2659,,,,0,21,21,21,1,25,155,,,,,,,,
,,659e3309ae35db2b1664bf89,65af550c8504a42db6af7f98,2024-01-23_15h00.15.967,bars,2023.2.3,Win32,7.496589052,657b66ea316d21385b68909f,,,,,,,,,,,2859.2665,2860.2424,,,2860.7095,2861.0406,,141,-39,,,,,,,,,,,,,,,,bars/043.png,bars/mask009.png,,,,,,,,,,,,5,2,,,,,,,4,8,4,8,,,,,,,,,,,2860.2424,2860.7095,2861.0407,2886.5278,space,25.3391,,2886.5279,69,11,2887.4491,2887.4492,2887.4582,,,,0,22,22,22,1,30,130,,,,,,,,
,,659e3309ae35db2b1664bf89,65af550c8504a42db6af7f98,2024-01-23_15h00.15.967,bars,2023.2.3,Win32,7.496589052,657b66ea316d21385b68909f,,,,,,,,,,,2887.4584,2888.3469,,,2888.8293,2888.9928,,10,10,,,,,,,,,,,,,,,,bars/013.png,bars/mask007.png,,,,,,,,,,,,6,2,,,,,,,6,6,5,6,,,,,,,,,,,2888.3469,2888.8292,2888.9928,2901.3829,space,12.251,,2901.3829,65,0,2902.3734,2902.3735,2902.3814,,,,0,23,23,23,1,75,10,,,,,,,,
,,659e3309ae35db2b1664bf89,65af550c8504a42db6af7f98,2024-01-23_15h00.15.967,bars,2023.2.3,Win32,7.496589052,657b66ea316d21385b68909f,,,,,,,,,,,2902.3815,2903.3637,,,2903.8887,2904.0454,,119,119,,,,,,,,,,,,,,,,bars/049.png,bars/mask006.png,,,,,,,,,,,,9,2,,,,,,,4,8,2,10,,,,,,,,,,,2903.3637,2903.8886,2904.0455,2926.3514,space,22.1812,,2926.3515,41,4,2927.2585,2927.2585,2927.2678,,,,0,24,24,24,1,160,115,,,,,,,,
,,659e3309ae35db2b1664bf89,65af550c8504a42db6af7f98,2024-01-23_15h00.15.967,bars,2023.2.3,Win32,7.496589052,657b66ea316d21385b68909f,,,,,,,,,,,2927.268,2928.1961,,,2928.6667,2928.8269,,19,199,,,,,,,,,,,,,,,,bars/036.png,bars/mask007.png,,,,,,,,,,,,10,2,,,,,,,6,10,6,10,,,,,,,,,,,2928.1962,2928.6667,2928.8269,2941.2274,space,12.2594,0.0002,2941.2275,54,1,2942.222,2942.222,2942.2297,,,,0,25,25,25,1,145,20,,,,,,,,
,,659e3309ae35db2b1664bf89,65af550c8504a42db6af7f98,2024-01-23_15h00.15.967,bars,2023.2.3,Win32,7.496589052,657b66ea316d21385b68909f,,,,,,,,,,,2942.2299,2943.1419,,,2943.6615,2943.8397,,162,162,,,,,,,,,,,,,,,,bars/033.png,bars/mask002.png,,,,,,,,,,,,7,2,,,,,,,4,10,4,9,,,,,,,,,,,2943.1419,2943.6615,2943.8398,2949.7881,space,5.7984,,2949.7881,43,7,2950.7742,2950.7742,2950.7815,,,,0,26,26,26,1,25,155,,,,,,,,
,,659e3309ae35db2b1664bf89,65af550c8504a42db6af7f98,2024-01-23_15h00.15.967,bars,2023.2.3,Win32,7.496589052,657b66ea316d21385b68909f,,,,,,,,,,,2950.7816,2951.7979,,,2952.33,2952.4991,,64,244,,,,,,,,,,,,,,,,bars/035.png,bars/mask003.png,,,,,,,,,,,,7,2,,,,,,,6,8,6,8,,,,,,,,,,,2951.7979,2952.33,2952.4993,2968.8772,space,16.2165,,2968.8773,69,4,2969.8226,2969.8226,2969.8317,,,,0,27,27,27,1,175,60,,,,,,,,
,,659e3309ae35db2b1664bf89,65af550c8504a42db6af7f98,2024-01-23_15h00.15.967,bars,2023.2.3,Win32,7.496589052,657b66ea316d21385b68909f,,,,,,,,,,,2969.8319,2970.8177,,,2971.2431,2971.4195,,69,249,,,,,,,,,,,,,,,,bars/030.png,bars/mask004.png,,,,,,,,,,,,6,2,,,,,,,8,6,9,7,,,,,,,,,,,2970.8177,2971.2431,2971.4195,2992.3137,space,20.7427,,2992.3137,71,4,2993.3801,2993.3801,2993.3895,,,,0,28,28,28,1,140,65,,,,,,,,
,,659e3309ae35db2b1664bf89,65af550c8504a42db6af7f98,2024-01-23_15h00.15.967,bars,2023.2.3,Win32,7.496589052,657b66ea316d21385b68909f,,,,,,,,,,,2993.3897,2994.2835,,,2994.82,2994.988,,17,197,,,,,,,,,,,,,,,,bars/040.png,bars/mask009.png,,,,,,,,,,,,5,2,,,,,,,10,8,9,8,,,,,,,,,,,2994.2835,2994.82,2994.988,3005.2556,space,10.1049,9.99999E-05,3005.2557,57,12,3006.1779,3006.1779,3006.1878,,,,0,29,29,29,1,140,5,,,,,,,,
,,659e3309ae35db2b1664bf89,65af550c8504a42db6af7f98,2024-01-23_15h00.15.967,bars,2023.2.3,Win32,7.496589052,657b66ea316d21385b68909f,,,,,,,,,,,3006.1879,3007.113,,,3007.5884,3007.7476,,138,138,,,,,,,,,,,,,,,,bars/043.png,bars/mask004.png,,,,,,,,,,,,7,2,,,,,,,8,10,7,10,,,,,,,,,,,3007.113,3007.5883,3007.7476,3019.9926,space,12.0904,,3019.9928,72,8,3020.9873,3020.9873,3020.9954,,,,0,30,30,30,1,30,130,,,,,,,,
,,659e3309ae35db2b1664bf89,65af550c8504a42db6af7f98,2024-01-23_15h00.15.967,bars,2023.2.3,Win32,7.496589052,657b66ea316d21385b68909f,,,,,,,,,,,3020.9955,3021.9196,,,3022.4583,3022.6422,,1,1,,,,,,,,,,,,,,,,bars/008.png,bars/mask002.png,,,,,,,,,,,,10,2,,,,,,,10,10,9,10,,,,,,,,,,,3021.9196,3022.4583,3022.6423,3027.8151,space,5.0195,9.99999E-05,3027.8151,71,1,3028.7313,3028.7314,3028.7381,,,,0,31,31,31,1,110,0,,,,,,,,
,,659e3309ae35db2b1664bf89,65af550c8504a42db6af7f98,2024-01-23_15h00.15.967,bars,2023.2.3,Win32,7.496589052,657b66ea316d21385b68909f,,,,,,,,,,,3028.7384,3029.6825,,,3030.0754,3030.245,,164,164,,,,,,,,,,,,,,,,bars/020.png,bars/mask003.png,,,,,,,,,,,,6,2,,,,,,,10,10,10,8,,,,,,,,,,,3029.6825,3030.0753,3030.245,3038.3149,space,7.9212,,3038.315,49,6,3039.2171,3039.2171,3039.2252,,,,0,32,32,32,1,115,170,,,,,,,,
,,659e3309ae35db2b1664bf89,65af550c8504a42db6af7f98,2024-01-23_15h00.15.967,bars,2023.2.3,Win32,7.496589052,657b66ea316d21385b68909f,,,,,,,,,,,3039.2253,3040.0658,,,3040.5532,3040.7027,,155,155,,,,,,,,,,,,,,,,bars/044.png,bars/mask000.png,,,,,,,,,,,,10,2,,,,,,,8,8,7,10,,,,,,,,,,,3040.0658,3040.553,3040.7028,3048.1793,space,7.3207,9.99999E-05,3048.1793,80,0,3049.1975,3049.1975,3049.204,,,,0,33,33,33,1,75,155,,,,,,,,
,,659e3309ae35db2b1664bf89,65af550c8504a42db6af7f98,2024-01-23_15h00.15.967,bars,2023.2.3,Win32,7.496589052,657b66ea316d21385b68909f,,,,,,,,,,,3049.2042,3050.2459,,,3050.7298,3050.9055,,155,-25,,,,,,,,,,,,,,,,bars/003.png,bars/mask004.png,,,,,,,,,,,,3,2,,,,,,,6,6,8,6,,,,,,,,,,,3050.2459,3050.7298,3050.9055,3067.8358,space,16.7909,,3067.8358,50,15,3068.7398,3068.7399,3068.7482,,,,0,34,34,34,1,25,140,,,,,,,,
,,659e3309ae35db2b1664bf89,65af550c8504a42db6af7f98,2024-01-23_15h00.15.967,bars,2023.2.3,Win32,7.496589052,657b66ea316d21385b68909f,,,,,,,,,,,3068.7484,3069.6805,,,3070.1648,3070.3394,,169,-11,,,,,,,,,,,,,,,,bars/015.png,bars/mask000.png,,,,,,,,,,,,6,2,,,,,,,4,8,3,9,,,,,,,,,,,3069.6806,3070.1648,3070.3394,3084.3867,space,13.9002,,3084.3868,59,9,3085.2902,3085.2902,3085.2965,,,,0,35,35,35,1,110,160,,,,,,,,
,,659e3309ae35db2b1664bf89,65af550c8504a42db6af7f98,2024-01-23_15h00.15.967,bars,2023.2.3,Win32,7.496589052,657b66ea316d21385b68909f,,,,,,,,,,,3085.2966,3086.1862,,,3086.6582,3086.8359,,127,127,,,,,,,,,,,,,,,,bars/049.png,bars/mask006.png,,,,,,,,,,,,3,2,,,,,,,6,6,8,5,,,,,,,,,,,3086.1863,3086.6582,3086.8359,3098.0873,space,11.106,,3098.0874,33,12,3098.9674,3098.9675,3098.9756,,,,0,36,36,36,1,160,115,,,,,,,,
,,659e3309ae35db2b1664bf89,65af550c8504a42db6af7f98,2024-01-23_15h00.15.967,bars,2023.2.3,Win32,7.496589052,657b66ea316d21385b68909f,,,,,,,,,,,3098.9757,3099.987,,,3100.4989,3100.677,,48,48,,,,,,,,,,,,,,,,bars/025.png,bars/mask004.png,,,,,,,,,,,,7,2,,,,,,,4,8,4,10,,,,,,,,,,,3099.987,3100.4989,3100.6771,3117.2054,space,16.3741,,3117.2055,57,8,3118.1184,3118.1185,3118.1261,,,,0,37,37,37,1,105,40,,,,,,,,
,,659e3309ae35db2b1664bf89,65af550c8504a42db6af7f98,2024-01-23_15h00.15.967,bars,2023.2.3,Win32,7.496589052,657b66ea316d21385b68909f,,,,,,,,,,,3118.1262,3119.1276,,,3119.6386,3119.811,,85,85,,,,,,,,,,,,,,,,bars/041.png,bars/mask006.png,,,,,,,,,,,,5,2,,,,,,,2,6,3,5,,,,,,,,,,,3119.1276,3119.6386,3119.8111,3140.8727,space,20.921,0.0002,3140.8727,65,0,3141.8293,3141.8293,3141.8381,,,,0,38,38,38,1,20,85,,,,,,,,
,,659e3309ae35db2b1664bf89,65af550c8504a42db6af7f98,2024-01-23_15h00.15.967,bars,2023.2.3,Win32,7.496589052,657b66ea316d21385b68909f,,,,,,,,,,,3141.8382,3142.8252,,,3143.3414,3143.5078,,119,119,,,,,,,,,,,,,,,,bars/004.png,bars/mask005.png,,,,,,,,,,,,2,2,,,,,,,0,4,0,3,,,,,,,,,,,3142.8252,3143.3413,3143.5078,3154.7843,space,11.1163,0.0002,3154.7843,86,6,3155.7251,3155.7252,3155.733,,,,0,39,39,39,1,25,125,,,,,,,,
,,659e3309ae35db2b1664bf89,65af550c8504a42db6af7f98,2024-01-23_15h00.15.967,bars,2023.2.3,Win32,7.496589052,657b66ea316d21385b68909f,,,,,,,,,,,3155.7331,3156.7609,,,3157.1526,3157.3153,,27,27,,,,,,,,,,,,,,,,bars/005.png,bars/mask007.png,,,,,,,,,,,,0,1,,,,,,,2,2,1,2,,,,,,,,,,,3156.7609,3157.1526,3157.3154,3175.3032,space,17.859,0.0004,3175.3033,17,67,3176.35,3176.3501,3176.3613,,,,0,40,40,40,1,10,140,,,,,,,,
,,659e3309ae35db2b1664bf89,65af550c8504a42db6af7f98,2024-01-23_15h00.15.967,bars,2023.2.3,Win32,7.496589052,657b66ea316d21385b68909f,,,,,,,,,,,3176.3615,3177.269,,,3177.7339,3177.8962,,17,17,,,,,,,,,,,,,,,,bars/039.png,bars/mask004.png,,,,,,,,,,,,1,1,,,,,,,4,4,4,3,,,,,,,,,,,3177.269,3177.7339,3177.8962,3185.2915,space,7.2502,0.0008,3185.2915,22,88,3186.2162,3186.2162,3186.2243,,,,0,41,41,41,1,175,105,,,,,,,,
,,659e3309ae35db2b1664bf89,65af550c8504a42db6af7f98,2024-01-23_15h00.15.967,bars,2023.2.3,Win32,7.496589052,657b66ea316d21385b68909f,,,,,,,,,,,3186.2245,3187.1336,,,3187.6238,3187.7837,,96,96,,,,,,,,,,,,,,,,bars/011.png,bars/mask005.png,,,,,,,,,,,,3,2,,,,,,,2,6,3,5,,,,,,,,,,,3187.1336,3187.6237,3187.7838,3207.9297,space,20.0065,0.0002,3207.9297,64,11,3208.8595,3208.8595,3208.8663,,,,0,42,42,42,1,160,85,,,,,,,,
,,659e3309ae35db2b1664bf89,65af550c8504a42db6af7f98,2024-01-23_15h00.15.967,bars,2023.2.3,Win32,7.496589052,657b66ea316d21385b68909f,,,,,,,,,,,3208.8663,3209.7615,,,3210.2235,3210.369,,67,67,,,,,,,,,,,,,,,,bars/010.png,bars/mask004.png,,,,,,,,,,,,2,2,,,,,,,0,4,0,3,,,,,,,,,,,3209.7616,3210.2235,3210.3691,3224.3849,space,13.8684,0.0002,3224.385,82,12,3225.3833,3225.3833,3225.3911,,,,0,43,43,43,1,165,55,,,,,,,,
,,659e3309ae35db2b1664bf89,65af550c8504a42db6af7f98,2024-01-23_15h00.15.967,bars,2023.2.3,Win32,7.496589052,657b66ea316d21385b68909f,,,,,,,,,,,3225.3911,3226.364,,,3226.8398,3226.9857,,34,214,,,,,,,,,,,,,,,,bars/029.png,bars/mask002.png,,,,,,,,,,,,1,2,,,,,,,2,2,0,2,,,,,,,,,,,3226.3641,3226.8398,3226.9857,3236.5881,space,9.457,,3236.5881,56,11,3237.5102,3237.5103,3237.5171,,,,0,44,44,44,1,90,45,,,,,,,,
,,659e3309ae35db2b1664bf89,65af550c8504a42db6af7f98,2024-01-23_15h00.15.967,bars,2023.2.3,Win32,7.496589052,657b66ea316d21385b68909f,,,,,,,,,,,3237.5172,3238.5063,,,3238.9596,3239.1203,,23,203,,,,,,,,,,,,,,,,bars/033.png,bars/mask001.png,,,,,,,,,,,,5,1,,,,,,,4,0,5,1,,,,,,,,,,,3238.5063,3238.9596,3239.1203,3250.2208,space,10.9599,0.0002,3250.2208,2,48,3251.1431,3251.1431,3251.152,,,,0,45,45,45,1,25,155,,,,,,,,
,,659e3309ae35db2b1664bf89,65af550c8504a42db6af7f98,2024-01-23_15h00.15.967,bars,2023.2.3,Win32,7.496589052,657b66ea316d21385b68909f,,,,,,,,,,,3251.1522,3252.0149,,,3252.4256,3252.5973,,8,8,,,,,,,,,,,,,,,,bars/039.png,bars/mask002.png,,,,,,,,,,,,1,1,,,,,,,2,0,2,1,,,,,,,,,,,3252.0149,3252.4255,3252.5973,3265.1782,space,12.4216,0.001,3265.1783,13,83,3266.1665,3266.1666,3266.1726,,,,0,46,46,46,1,175,105,,,,,,,,
,,659e3309ae35db2b1664bf89,65af550c8504a42db6af7f98,2024-01-23_15h00.15.967,bars,2023.2.3,Win32,7.496589052,657b66ea316d21385b68909f,,,,,,,,,,,3266.1728,3267.1532,,,3267.6229,3267.7879,,17,197,,,,,,,,,,,,,,,,bars/041.png,bars/mask004.png,,,,,,,,,,,,1,1,,,,,,,0,2,1,2,,,,,,,,,,,3267.1532,3267.6229,3267.788,3286.0195,space,18.0858,,3286.0196,3,68,3287.0045,3287.0046,3287.012,,,,0,47,47,47,1,20,85,,,,,,,,
,,659e3309ae35db2b1664bf89,65af550c8504a42db6af7f98,2024-01-23_15h00.15.967,bars,2023.2.3,Win32,7.496589052,657b66ea316d21385b68909f,,,,,,,,,,,3287.0122,3287.943,,,3288.4104,3288.5685,,11,11,,,,,,,,,,,,,,,,bars/047.png,bars/mask003.png,,,,,,,,,,,,2,1,,,,,,,2,0,2,0,,,,,,,,,,,3287.943,3288.4104,3288.5685,3294.6667,space,5.9688,0.0003,3294.6667,4,59,3295.6764,3295.6765,3295.6846,,,,0,48,48,48,1,15,70,,,,,,,,
,,659e3309ae35db2b1664bf89,65af550c8504a42db6af7f98,2024-01-23_15h00.15.967,bars,2023.2.3,Win32,7.496589052,657b66ea316d21385b68909f,,,,,,,,,,,3295.6848,3296.6867,,,3297.1786,3297.3339,,123,123,,,,,,,,,,,,,,,,bars/023.png,bars/mask003.png,,,,,,,,,,,,0,2,,,,,,,4,0,4,0,,,,,,,,,,,3296.6867,3297.1785,3297.3339,3301.9531,space,4.492,,3301.9531,77,8,3302.9508,3302.9508,3302.96,,,,0,49,49,49,1,20,115,,,,,,,,
,,659e3309ae35db2b1664bf89,65af550c8504a42db6af7f98,2024-01-23_15h00.15.967,bars,2023.2.3,Win32,7.496589052,657b66ea316d21385b68909f,,,,,,,,,,,,,,,,,,,,,,,,,,,,,,,,,,,,,,,,,,,,,,,,,,,,,,,,,,,,,,,,,,,,,,,,,,,,,,,,,,,,,,,,,,,,,3302.9602,3362.9057,0,3,3,0,1,sequence_tables/blk001.csv
,,659e3309ae35db2b1664bf89,65af550c8504a42db6af7f98,2024-01-23_15h00.15.967,bars,2023.2.3,Win32,7.496589052,657b66ea316d21385b68909f,,,,,,,,,,,3378.7993,3379.7003,,,3380.168,3380.3282,,85,265,,,,,,,,,,,,,,,,bars/013.png,bars/mask001.png,,,,,,,,,,,,7,1,,,,,,,10,2,10,0,,,,,,3362.9118,3378.7911,space,15.7267,,3379.7003,3380.168,3380.3283,3399.9129,space,19.4579,,3399.913,10,75,3400.934,3400.9341,3400.9441,,,,0,0,0,0,1,75,10,,,,,,,,
,,659e3309ae35db2b1664bf89,65af550c8504a42db6af7f98,2024-01-23_15h00.15.967,bars,2023.2.3,Win32,7.496589052,657b66ea316d21385b68909f,,,,,,,,,,,3400.9443,3401.8425,,,3402.3072,3402.454,,44,44,,,,,,,,,,,,,,,,bars/028.png,bars/mask002.png,,,,,,,,,,,,10,1,,,,,,,10,0,10,1,,,,,,,,,,,3401.8425,3402.3072,3402.454,3412.7801,space,10.1899,,3412.7801,1,76,3413.7074,3413.7074,3413.715,,,,0,1,1,1,1,45,120,,,,,,,,
,,659e3309ae35db2b1664bf89,65af550c8504a42db6af7f98,2024-01-23_15h00.15.967,bars,2023.2.3,Win32,7.496589052,657b66ea316d21385b68909f,,,,,,,,,,,3413.7152,3414.6867,,,3415.176,3415.3412,,24,24,,,,,,,,,,,,,,,,bars/010.png,bars/mask006.png,,,,,,,,,,,,0,2,,,,,,,8,2,8,0,,,,,,,,,,,3414.6867,3415.1759,3415.3412,3416.4616,space,0.9578,,3416.4616,39,31,3417.3968,3417.3968,3417.3978,,,,0,2,2,2,1,165,55,,,,,,,,
,,659e3309ae35db2b1664bf89,65af550c8504a42db6af7f98,2024-01-23_15h00.15.967,bars,2023.2.3,Win32,7.496589052,657b66ea316d21385b68909f,,,,,,,,,,,3417.3979,3418.356,,,3418.8262,3418.9769,,25,25,,,,,,,,,,,,,,,,bars/003.png,bars/mask003.png,,,,,,,,,,,,6,1,,,,,,,6,0,6,0,,,,,,,,,,,3418.356,3418.8262,3418.9769,3428.549,space,9.4337,0.0002,3428.5491,0,65,3429.4737,3429.4738,3429.4829,,,,0,3,3,3,1,25,140,,,,,,,,
,,659e3309ae35db2b1664bf89,65af550c8504a42db6af7f98,2024-01-23_15h00.15.967,bars,2023.2.3,Win32,7.496589052,657b66ea316d21385b68909f,,,,,,,,,,,3429.4831,3430.5022,,,3430.948,3431.1036,,153,153,,,,,,,,,,,,,,,,bars/040.png,bars/mask006.png,,,,,,,,,,,,5,1,,,,,,,8,0,8,0,,,,,,,,,,,3430.5022,3430.948,3431.1036,3436.7079,space,5.4756,,3436.708,13,32,3437.7127,3437.7127,3437.7191,,,,0,4,4,4,1,140,5,,,,,,,,
,,659e3309ae35db2b1664bf89,65af550c8504a42db6af7f98,2024-01-23_15h00.15.967,bars,2023.2.3,Win32,7.496589052,657b66ea316d21385b68909f,,,,,,,,,,,3437.7192,3438.6808,,,3439.1509,3439.3075,,158,158,,,,,,,,,,,,,,,,bars/049.png,bars/mask006.png,,,,,,,,,,,,7,1,,,,,,,6,2,7,3,,,,,,,,,,,3438.6808,3439.1509,3439.3075,3446.3373,space,6.7787,,3446.3374,2,43,3447.3025,3447.3025,3447.3092,,,,0,5,5,5,1,160,115,,,,,,,,
,,659e3309ae35db2b1664bf89,65af550c8504a42db6af7f98,2024-01-23_15h00.15.967,bars,2023.2.3,Win32,7.496589052,657b66ea316d21385b68909f,,,,,,,,,,,3447.3093,3448.2732,,,3448.7724,3448.9336,,111,111,,,,,,,,,,,,,,,,bars/008.png,bars/mask002.png,,,,,,,,,,,,6,1,,,,,,,8,4,6,3,,,,,,,,,,,3448.2732,3448.7724,3448.9336,3455.7498,space,6.6601,0.0002,3455.7499,1,69,3456.7768,3456.7769,3456.7839,,,,0,6,6,6,1,110,0,,,,,,,,
,,659e3309ae35db2b1664bf89,65af550c8504a42db6af7f98,2024-01-23_15h00.15.967,bars,2023.2.3,Win32,7.496589052,657b66ea316d21385b68909f,,,,,,,,,,,3456.7843,3457.6776,,,3458.1124,3458.267,,158,-22,,,,,,,,,,,,,,,,bars/007.png,bars/mask008.png,,,,,,,,,,,,3,1,,,,,,,6,2,6,3,,,,,,,,,,,3457.6776,3458.1124,3458.267,3472.9512,space,14.5449,,3472.9512,17,77,3473.8967,3473.8967,3473.9057,,,,0,7,7,7,1,175,55,,,,,,,,
,,659e3309ae35db2b1664bf89,65af550c8504a42db6af7f98,2024-01-23_15h00.15.967,bars,2023.2.3,Win32,7.496589052,657b66ea316d21385b68909f,,,,,,,,,,,3473.9068,3474.8227,,,3475.2866,3475.4299,,10,190,,,,,,,,,,,,,,,,bars/023.png,bars/mask004.png,,,,,,,,,,,,5,1,,,,,,,8,0,8,0,,,,,,,,,,,3474.8227,3475.2866,3475.43,3490.3682,space,14.8073,,3490.3682,10,75,3491.4004,3491.4005,3491.4096,,,,0,8,8,8,1,20,115,,,,,,,,
,,659e3309ae35db2b1664bf89,65af550c8504a42db6af7f98,2024-01-23_15h00.15.967,bars,2023.2.3,Win32,7.496589052,657b66ea316d21385b68909f,,,,,,,,,,,3491.4098,3492.441,,,3492.9028,3493.0571,,81,81,,,,,,,,,,,,,,,,bars/022.png,bars/mask003.png,,,,,,,,,,,,4,1,,,,,,,6,0,7,0,,,,,,,,,,,3492.441,3492.9027,3493.0571,3496.1316,space,2.9364,0.0002,3496.1316,14,61,3497.0388,3497.0388,3497.0446,,,,0,9,9,9,1,95,20,,,,,,,,
