init_variables.started,init_variables.stopped,participant,session,date,expName,psychopyVersion,OS,frameRate,study_id,instruction_exp.started,instruction_exp.stopped,key_resp_8.keys,key_resp_8.rt,key_resp_8.duration,instruction_single.started,instruction_single.stopped,key_resp_2.keys,key_resp_2.rt,key_resp_2.duration,interval.started,interval.stopped,cue_single.started,cue_single.stopped,mask.started,mask.stopped,ori_response_single.started,res_ori,res,ori_response_single.stopped,key_resp_single.keys,key_resp_single.rt,key_resp_single.duration,disp_single.started,disp_single.stopped,key_resp.keys,key_resp.rt,key_resp.duration,single.thisRepN,single.thisTrialN,single.thisN,single.thisIndex,single.ran,ori,path,mask_path,instruction_bandit.started,instruction_bandit.stopped,key_resp_6.keys,key_resp_6.rt,key_resp_6.duration,cue_bandit.started,cue_bandit.stopped,bandit_res.keys,bandit_res.rt,bandit_res.duration,outcome_bandit.started,rew,action,outcome_bandit.stopped,bandit.thisRepN,bandit.thisTrialN,bandit.thisN,bandit.thisIndex,bandit.ran,actual_rew1,actual_rew2,rew1,rew2,instruction_task.started,instruction_task.stopped,key_resp_7.keys,key_resp_7.rt,key_resp_7.duration,wait_ready.started,wait_ready.stopped,key_resp_3.keys,key_resp_3.rt,key_resp_3.duration,cue.started,cue.stopped,ori_response.started,ori_response.stopped,key_resp_5.keys,key_resp_5.rt,key_resp_5.duration,outcome.started,diff1,diff2,outcome.stopped,disp_outcome_practice.started,disp_outcome_practice.stopped,key_resp_4.keys,key_resp_4.rt,key_resp_4.duration,trials.thisRepN,trials.thisTrialN,trials.thisN,trials.thisIndex,trials.ran,ori1,ori2,break_blk.started,break_blk.stopped,block.thisRepN,block.thisTrialN,block.thisN,block.thisIndex,block.ran,condition_file
0.0013,0.0016,650304bf5cec6751f3c6b4c4,65af54ce1502ba3ac8b6198b,2024-01-23_07h56.11.779,bars,2023.2.3,Win32,59.88023952,657b66ea316d21385b68909f,,,,,,,,,,,,,,,,,,,,,,,,,,,,,,,,,,,,,,,,,,,,,,,,,,,,,,,,,,,,,,,,,,,,,,,,,,,,,,,,,,,,,,,,,,,,,,,,,,,,
,,650304bf5cec6751f3c6b4c4,65af54ce1502ba3ac8b6198b,2024-01-23_07h56.11.779,bars,2023.2.3,Win32,59.88023952,657b66ea316d21385b68909f,0.0019,299.5412,y,299.5229,,,,,,,,,,,,,,,,,,,,,,,,,,,,,,,,,,,,,,,,,,,,,,,,,,,,,,,,,,,,,,,,,,,,,,,,,,,,,,,,,,,,,,,,,,,,,,,,
,,650304bf5cec6751f3c6b4c4,65af54ce1502ba3ac8b6198b,2024-01-23_07h56.11.779,bars,2023.2.3,Win32,59.88023952,657b66ea316d21385b68909f,,,,,,299.5414,318.5913,space,19.0409,,,,,,,,,,,,,,,,,,,,,,,,,,,,,,,,,,,,,,,,,,,,,,,,,,,,,,,,,,,,,,,,,,,,,,,,,,,,,,,,,,,,,,,,,,,
,,650304bf5cec6751f3c6b4c4,65af54ce1502ba3ac8b6198b,2024-01-23_07h56.11.779,bars,2023.2.3,Win32,59.88023952,657b66ea316d21385b68909f,,,,,,,,,,,318.5986,319.5906,319.5908,320.0904,320.0905,320.3403,320.3404,141,141,338.801,space,18.4396,,338.8011,345.6821,space,6.8466,,0,0,0,1,1,20,bars/single001.png,bars/mask006.png,,,,,,,,,,,,,,,,,,,,,,,,,,,,,,,,,,,,,,,,,,,,,,,,,,,,,,,,,,,,,,,,
,,650304bf5cec6751f3c6b4c4,65af54ce1502ba3ac8b6198b,2024-01-23_07h56.11.779,bars,2023.2.3,Win32,59.88023952,657b66ea316d21385b68909f,,,,,,,,,,,345.6926,346.6812,346.6812,347.1812,347.1812,347.4312,347.4312,60,60,359.1437,space,11.7043,,359.1438,361.1429,space,1.9798,,0,1,1,0,1,150,bars/single000.png,bars/mask006.png,,,,,,,,,,,,,,,,,,,,,,,,,,,,,,,,,,,,,,,,,,,,,,,,,,,,,,,,,,,,,,,,
,,650304bf5cec6751f3c6b4c4,65af54ce1502ba3ac8b6198b,2024-01-23_07h56.11.779,bars,2023.2.3,Win32,59.88023952,657b66ea316d21385b68909f,,,,,,,,,,,361.1432,362.1427,362.1427,362.6425,362.6426,362.8923,362.8923,142,142,363.7423,space,0.8362,,363.7423,364.342,space,0.5846,,0,2,2,9,1,20,bars/single009.png,bars/mask006.png,,,,,,,,,,,,,,,,,,,,,,,,,,,,,,,,,,,,,,,,,,,,,,,,,,,,,,,,,,,,,,,,
,,650304bf5cec6751f3c6b4c4,65af54ce1502ba3ac8b6198b,2024-01-23_07h56.11.779,bars,2023.2.3,Win32,59.88023952,657b66ea316d21385b68909f,,,,,,,,,,,364.3423,365.3416,365.3416,365.8416,365.8416,366.0913,366.0913,63,63,390.1,space,23.9992,,390.1001,391.4494,space,1.3339,,0,3,3,5,1,55,bars/single005.png,bars/mask008.png,,,,,,,,,,,,,,,,,,,,,,,,,,,,,,,,,,,,,,,,,,,,,,,,,,,,,,,,,,,,,,,,
,,650304bf5cec6751f3c6b4c4,65af54ce1502ba3ac8b6198b,2024-01-23_07h56.11.779,bars,2023.2.3,Win32,59.88023952,657b66ea316d21385b68909f,,,,,,,,,,,391.4497,392.4491,392.4491,392.9489,392.9489,393.1989,393.199,135,135,394.5152,space,1.3006,,394.5152,395.548,space,1.022,,0,4,4,6,1,175,bars/single006.png,bars/mask005.png,,,,,,,,,,,,,,,,,,,,,,,,,,,,,,,,,,,,,,,,,,,,,,,,,,,,,,,,,,,,,,,,
,,650304bf5cec6751f3c6b4c4,65af54ce1502ba3ac8b6198b,2024-01-23_07h56.11.779,bars,2023.2.3,Win32,59.88023952,657b66ea316d21385b68909f,,,,,,,,,,,395.5483,396.5478,396.5478,397.0475,397.0476,397.2977,397.2977,80,80,398.1638,space,0.8605,,398.1638,416.9575,space,18.7825,,0,5,5,2,1,145,bars/single002.png,bars/mask003.png,,,,,,,,,,,,,,,,,,,,,,,,,,,,,,,,,,,,,,,,,,,,,,,,,,,,,,,,,,,,,,,,
,,650304bf5cec6751f3c6b4c4,65af54ce1502ba3ac8b6198b,2024-01-23_07h56.11.779,bars,2023.2.3,Win32,59.88023952,657b66ea316d21385b68909f,,,,,,,,,,,416.9698,417.9738,417.9738,418.4737,418.4738,418.7236,418.7237,83,83,418.9237,space,0.1874,,418.9237,420.223,space,1.2886,,0,6,6,8,1,160,bars/single008.png,bars/mask004.png,,,,,,,,,,,,,,,,,,,,,,,,,,,,,,,,,,,,,,,,,,,,,,,,,,,,,,,,,,,,,,,,
,,650304bf5cec6751f3c6b4c4,65af54ce1502ba3ac8b6198b,2024-01-23_07h56.11.779,bars,2023.2.3,Win32,59.88023952,657b66ea316d21385b68909f,,,,,,,,,,,420.2234,421.2226,421.2227,421.7225,421.7226,421.9726,421.9726,138,138,424.1384,space,2.1596,,424.1384,430.8532,space,6.709,,0,7,7,3,1,20,bars/single003.png,bars/mask005.png,,,,,,,,,,,,,,,,,,,,,,,,,,,,,,,,,,,,,,,,,,,,,,,,,,,,,,,,,,,,,,,,
,,650304bf5cec6751f3c6b4c4,65af54ce1502ba3ac8b6198b,2024-01-23_07h56.11.779,bars,2023.2.3,Win32,59.88023952,657b66ea316d21385b68909f,,,,,,,,,,,430.8642,431.8523,431.8524,432.3522,432.3523,432.6022,432.6022,132,132,433.6684,space,1.0587,,433.6684,434.3183,space,0.6306,,0,8,8,4,1,95,bars/single004.png,bars/mask004.png,,,,,,,,,,,,,,,,,,,,,,,,,,,,,,,,,,,,,,,,,,,,,,,,,,,,,,,,,,,,,,,,
,,650304bf5cec6751f3c6b4c4,65af54ce1502ba3ac8b6198b,2024-01-23_07h56.11.779,bars,2023.2.3,Win32,59.88023952,657b66ea316d21385b68909f,,,,,,,,,,,434.3187,435.3179,435.3179,435.8178,435.8178,436.0677,436.0678,157,157,539.8325,space,103.7569,,539.8326,540.599,space,0.7444,,0,9,9,7,1,45,bars/single007.png,bars/mask009.png,,,,,,,,,,,,,,,,,,,,,,,,,,,,,,,,,,,,,,,,,,,,,,,,,,,,,,,,,,,,,,,,
,,650304bf5cec6751f3c6b4c4,65af54ce1502ba3ac8b6198b,2024-01-23_07h56.11.779,bars,2023.2.3,Win32,59.88023952,657b66ea316d21385b68909f,,,,,,,,,,,,,,,,,,,,,,,,,,,,,,,,,,,,,540.5998,540.8993,space,0.2801,,,,,,,,,,,,,,,,,,,,,,,,,,,,,,,,,,,,,,,,,,,,,,,,,,,,,,,,,,,,
,,650304bf5cec6751f3c6b4c4,65af54ce1502ba3ac8b6198b,2024-01-23_07h56.11.779,bars,2023.2.3,Win32,59.88023952,657b66ea316d21385b68909f,,,,,,,,,,,,,,,,,,,,,,,,,,,,,,,,,,,,,,,,,,540.9028,557.6772,right,16.7634,,557.6774,2,2,558.6763,0,0,0,0,1,9,1,9,2,,,,,,,,,,,,,,,,,,,,,,,,,,,,,,,,,,,,,,,,,
,,650304bf5cec6751f3c6b4c4,65af54ce1502ba3ac8b6198b,2024-01-23_07h56.11.779,bars,2023.2.3,Win32,59.88023952,657b66ea316d21385b68909f,,,,,,,,,,,,,,,,,,,,,,,,,,,,,,,,,,,,,,,,,,558.6767,560.8254,right,2.143,,560.8254,1,2,561.8252,0,1,1,1,1,10,0,10,1,,,,,,,,,,,,,,,,,,,,,,,,,,,,,,,,,,,,,,,,,
,,650304bf5cec6751f3c6b4c4,65af54ce1502ba3ac8b6198b,2024-01-23_07h56.11.779,bars,2023.2.3,Win32,59.88023952,657b66ea316d21385b68909f,,,,,,,,,,,,,,,,,,,,,,,,,,,,,,,,,,,,,,,,,,561.8254,564.391,right,2.5481,,564.3911,2,2,565.3907,0,2,2,2,1,10,2,10,2,,,,,,,,,,,,,,,,,,,,,,,,,,,,,,,,,,,,,,,,,
,,650304bf5cec6751f3c6b4c4,65af54ce1502ba3ac8b6198b,2024-01-23_07h56.11.779,bars,2023.2.3,Win32,59.88023952,657b66ea316d21385b68909f,,,,,,,,,,,,,,,,,,,,,,,,,,,,,,,,,,,,,,,,,,565.401,565.8739,left,0.4575,,565.874,7,1,566.8735,0,3,3,3,1,8,4,7,3,,,,,,,,,,,,,,,,,,,,,,,,,,,,,,,,,,,,,,,,,
,,650304bf5cec6751f3c6b4c4,65af54ce1502ba3ac8b6198b,2024-01-23_07h56.11.779,bars,2023.2.3,Win32,59.88023952,657b66ea316d21385b68909f,,,,,,,,,,,,,,,,,,,,,,,,,,,,,,,,,,,,,,,,,,566.8737,567.6234,left,0.7356,,567.6235,5,1,568.6228,0,4,4,4,1,6,2,5,1,,,,,,,,,,,,,,,,,,,,,,,,,,,,,,,,,,,,,,,,,
,,650304bf5cec6751f3c6b4c4,65af54ce1502ba3ac8b6198b,2024-01-23_07h56.11.779,bars,2023.2.3,Win32,59.88023952,657b66ea316d21385b68909f,,,,,,,,,,,,,,,,,,,,,,,,,,,,,,,,,,,,,,,,,,568.6231,569.3062,right,0.673,,569.3062,4,2,570.3056,0,5,5,5,1,4,4,4,4,,,,,,,,,,,,,,,,,,,,,,,,,,,,,,,,,,,,,,,,,
,,650304bf5cec6751f3c6b4c4,65af54ce1502ba3ac8b6198b,2024-01-23_07h56.11.779,bars,2023.2.3,Win32,59.88023952,657b66ea316d21385b68909f,,,,,,,,,,,,,,,,,,,,,,,,,,,,,,,,,,,,,,,,,,570.3058,570.7554,left,0.4412,,570.7554,1,1,571.755,0,6,6,6,1,2,2,1,2,,,,,,,,,,,,,,,,,,,,,,,,,,,,,,,,,,,,,,,,,
,,650304bf5cec6751f3c6b4c4,65af54ce1502ba3ac8b6198b,2024-01-23_07h56.11.779,bars,2023.2.3,Win32,59.88023952,657b66ea316d21385b68909f,,,,,,,,,,,,,,,,,,,,,,,,,,,,,,,,,,,,,,,,,,571.7554,572.1551,right,0.3853,,572.1552,1,2,573.1546,0,7,7,7,1,0,0,0,1,,,,,,,,,,,,,,,,,,,,,,,,,,,,,,,,,,,,,,,,,
,,650304bf5cec6751f3c6b4c4,65af54ce1502ba3ac8b6198b,2024-01-23_07h56.11.779,bars,2023.2.3,Win32,59.88023952,657b66ea316d21385b68909f,,,,,,,,,,,,,,,,,,,,,,,,,,,,,,,,,,,,,,,,,,573.1548,573.6879,right,0.5245,,573.688,0,2,574.6876,0,8,8,8,1,0,2,1,0,,,,,,,,,,,,,,,,,,,,,,,,,,,,,,,,,,,,,,,,,
,,650304bf5cec6751f3c6b4c4,65af54ce1502ba3ac8b6198b,2024-01-23_07h56.11.779,bars,2023.2.3,Win32,59.88023952,657b66ea316d21385b68909f,,,,,,,,,,,,,,,,,,,,,,,,,,,,,,,,,,,,,,,,,,574.6879,575.1705,left,0.4752,,575.1706,2,1,576.1702,0,9,9,9,1,2,4,2,3,,,,,,,,,,,,,,,,,,,,,,,,,,,,,,,,,,,,,,,,,
,,650304bf5cec6751f3c6b4c4,65af54ce1502ba3ac8b6198b,2024-01-23_07h56.11.779,bars,2023.2.3,Win32,59.88023952,657b66ea316d21385b68909f,,,,,,,,,,,,,,,,,,,,,,,,,,,,,,,,,,,,,,,,,,576.1705,576.5535,left,0.366,,576.5536,0,1,577.5531,0,10,10,10,1,0,2,0,3,,,,,,,,,,,,,,,,,,,,,,,,,,,,,,,,,,,,,,,,,
,,650304bf5cec6751f3c6b4c4,65af54ce1502ba3ac8b6198b,2024-01-23_07h56.11.779,bars,2023.2.3,Win32,59.88023952,657b66ea316d21385b68909f,,,,,,,,,,,,,,,,,,,,,,,,,,,,,,,,,,,,,,,,,,577.5535,577.8531,left,0.294,,577.8531,0,1,578.8527,0,11,11,11,1,0,4,0,3,,,,,,,,,,,,,,,,,,,,,,,,,,,,,,,,,,,,,,,,,
,,650304bf5cec6751f3c6b4c4,65af54ce1502ba3ac8b6198b,2024-01-23_07h56.11.779,bars,2023.2.3,Win32,59.88023952,657b66ea316d21385b68909f,,,,,,,,,,,,,,,,,,,,,,,,,,,,,,,,,,,,,,,,,,578.8529,579.2362,right,0.37,,579.2363,6,2,580.2355,0,12,12,12,1,2,6,1,6,,,,,,,,,,,,,,,,,,,,,,,,,,,,,,,,,,,,,,,,,
,,650304bf5cec6751f3c6b4c4,65af54ce1502ba3ac8b6198b,2024-01-23_07h56.11.779,bars,2023.2.3,Win32,59.88023952,657b66ea316d21385b68909f,,,,,,,,,,,,,,,,,,,,,,,,,,,,,,,,,,,,,,,,,,580.2359,580.5524,right,0.3072,,580.5525,3,2,581.5518,0,13,13,13,1,0,4,1,3,,,,,,,,,,,,,,,,,,,,,,,,,,,,,,,,,,,,,,,,,
,,650304bf5cec6751f3c6b4c4,65af54ce1502ba3ac8b6198b,2024-01-23_07h56.11.779,bars,2023.2.3,Win32,59.88023952,657b66ea316d21385b68909f,,,,,,,,,,,,,,,,,,,,,,,,,,,,,,,,,,,,,,,,,,581.552,581.9684,right,0.4067,,581.9684,7,2,582.9679,0,14,14,14,1,2,6,2,7,,,,,,,,,,,,,,,,,,,,,,,,,,,,,,,,,,,,,,,,,
,,650304bf5cec6751f3c6b4c4,65af54ce1502ba3ac8b6198b,2024-01-23_07h56.11.779,bars,2023.2.3,Win32,59.88023952,657b66ea316d21385b68909f,,,,,,,,,,,,,,,,,,,,,,,,,,,,,,,,,,,,,,,,,,582.9683,583.2681,right,0.2891,,583.2681,9,2,584.2675,0,15,15,15,1,4,8,3,9,,,,,,,,,,,,,,,,,,,,,,,,,,,,,,,,,,,,,,,,,
,,650304bf5cec6751f3c6b4c4,65af54ce1502ba3ac8b6198b,2024-01-23_07h56.11.779,bars,2023.2.3,Win32,59.88023952,657b66ea316d21385b68909f,,,,,,,,,,,,,,,,,,,,,,,,,,,,,,,,,,,,,,,,,,584.2678,584.6011,right,0.3213,,584.6011,7,2,585.6004,0,16,16,16,1,6,6,7,7,,,,,,,,,,,,,,,,,,,,,,,,,,,,,,,,,,,,,,,,,
,,650304bf5cec6751f3c6b4c4,65af54ce1502ba3ac8b6198b,2024-01-23_07h56.11.779,bars,2023.2.3,Win32,59.88023952,657b66ea316d21385b68909f,,,,,,,,,,,,,,,,,,,,,,,,,,,,,,,,,,,,,,,,,,585.6007,586.6002,left,0.9822,,586.6003,9,1,587.5997,0,17,17,17,1,8,4,9,5,,,,,,,,,,,,,,,,,,,,,,,,,,,,,,,,,,,,,,,,,
,,650304bf5cec6751f3c6b4c4,65af54ce1502ba3ac8b6198b,2024-01-23_07h56.11.779,bars,2023.2.3,Win32,59.88023952,657b66ea316d21385b68909f,,,,,,,,,,,,,,,,,,,,,,,,,,,,,,,,,,,,,,,,,,587.6001,588.3999,right,0.796,,588.4,1,2,589.3991,0,18,18,18,1,6,2,5,1,,,,,,,,,,,,,,,,,,,,,,,,,,,,,,,,,,,,,,,,,
,,650304bf5cec6751f3c6b4c4,65af54ce1502ba3ac8b6198b,2024-01-23_07h56.11.779,bars,2023.2.3,Win32,59.88023952,657b66ea316d21385b68909f,,,,,,,,,,,,,,,,,,,,,,,,,,,,,,,,,,,,,,,,,,589.3994,589.7326,right,0.3219,,589.7326,0,2,590.732,0,19,19,19,1,8,0,7,0,,,,,,,,,,,,,,,,,,,,,,,,,,,,,,,,,,,,,,,,,
,,650304bf5cec6751f3c6b4c4,65af54ce1502ba3ac8b6198b,2024-01-23_07h56.11.779,bars,2023.2.3,Win32,59.88023952,657b66ea316d21385b68909f,,,,,,,,,,,,,,,,,,,,,,,,,,,,,,,,,,,,,,,,,,,,,,,,,,,,,,,,,,,,590.7326,612.1253,space,21.3688,,,,,,,,,,,,,,,,,,,,,,,,,,,,,,,,,,,,,
,,650304bf5cec6751f3c6b4c4,65af54ce1502ba3ac8b6198b,2024-01-23_07h56.11.779,bars,2023.2.3,Win32,59.88023952,657b66ea316d21385b68909f,,,,,,,,,,,614.0804,615.0738,,,615.574,615.8236,,142,142,,,,,,,,,,,,,,,,bars/028.png,bars/mask008.png,,,,,,,,,,,,1,2,,,,,,,9,4,9,4,,,,,,612.1377,614.0743,space,1.9258,,615.0739,615.5739,615.8238,620.7058,space,4.8596,,620.706,83,22,621.7054,621.7055,623.7879,space,2.0581,,0,0,0,0,1,45,120,,,,,,,,
,,650304bf5cec6751f3c6b4c4,65af54ce1502ba3ac8b6198b,2024-01-23_07h56.11.779,bars,2023.2.3,Win32,59.88023952,657b66ea316d21385b68909f,,,,,,,,,,,623.7883,624.7871,,,625.2874,625.5369,,131,131,,,,,,,,,,,,,,,,bars/034.png,bars/mask000.png,,,,,,,,,,,,6,1,,,,,,,7,2,7,0,,,,,,,,,,,624.7872,625.2873,625.537,626.3866,space,0.8438,,626.3867,6,66,627.3863,627.3864,627.8696,space,0.4589,,0,1,1,1,1,125,65,,,,,,,,
,,650304bf5cec6751f3c6b4c4,65af54ce1502ba3ac8b6198b,2024-01-23_07h56.11.779,bars,2023.2.3,Win32,59.88023952,657b66ea316d21385b68909f,,,,,,,,,,,627.8699,628.8691,,,629.3689,629.6189,,91,91,,,,,,,,,,,,,,,,bars/012.png,bars/mask005.png,,,,,,,,,,,,8,1,,,,,,,9,0,8,1,,,,,,,,,,,628.8692,629.3689,629.6189,630.9352,space,1.3101,,630.9352,1,76,631.9348,631.9348,632.7845,space,0.8417,,0,2,2,2,1,90,15,,,,,,,,
,,650304bf5cec6751f3c6b4c4,65af54ce1502ba3ac8b6198b,2024-01-23_07h56.11.779,bars,2023.2.3,Win32,59.88023952,657b66ea316d21385b68909f,,,,,,,,,,,632.7848,633.7842,,,634.2842,634.5339,,30,30,,,,,,,,,,,,,,,,bars/018.png,bars/mask003.png,,,,,,,,,,,,0,2,,,,,,,7,2,8,2,,,,,,,,,,,633.7842,634.2842,634.534,636.2001,space,1.649,,636.2001,60,60,637.1996,637.1997,637.7995,space,0.5869,,0,3,3,3,1,150,90,,,,,,,,
,,650304bf5cec6751f3c6b4c4,65af54ce1502ba3ac8b6198b,2024-01-23_07h56.11.779,bars,2023.2.3,Win32,59.88023952,657b66ea316d21385b68909f,,,,,,,,,,,637.7999,638.7991,,,639.299,639.5489,,25,25,,,,,,,,,,,,,,,,bars/003.png,bars/mask005.png,,,,,,,,,,,,9,1,,,,,,,9,4,9,4,,,,,,,,,,,638.7991,639.2989,639.549,640.3152,space,0.7617,,640.3153,0,65,641.315,641.315,641.9648,space,0.6278,,0,4,4,4,1,25,140,,,,,,,,
,,650304bf5cec6751f3c6b4c4,65af54ce1502ba3ac8b6198b,2024-01-23_07h56.11.779,bars,2023.2.3,Win32,59.88023952,657b66ea316d21385b68909f,,,,,,,,,,,641.9652,642.9646,,,643.4642,643.7141,,131,131,,,,,,,,,,,,,,,,bars/037.png,bars/mask007.png,,,,,,,,,,,,4,1,,,,,,,10,6,10,6,,,,,,,,,,,642.9647,643.4641,643.7142,644.3645,space,0.6432,,644.3646,19,26,645.3636,645.3637,646.2634,space,0.8826,,0,5,5,5,1,150,105,,,,,,,,
,,650304bf5cec6751f3c6b4c4,65af54ce1502ba3ac8b6198b,2024-01-23_07h56.11.779,bars,2023.2.3,Win32,59.88023952,657b66ea316d21385b68909f,,,,,,,,,,,646.2636,647.2629,,,647.7627,648.0127,,71,71,,,,,,,,,,,,,,,,bars/022.png,bars/mask005.png,,,,,,,,,,,,2,1,,,,,,,8,4,9,6,,,,,,,,,,,647.2629,647.7627,648.0127,649.1958,space,1.1662,,649.1959,24,51,650.1954,650.1954,650.7784,space,0.5633,,0,6,6,6,1,95,20,,,,,,,,
,,650304bf5cec6751f3c6b4c4,65af54ce1502ba3ac8b6198b,2024-01-23_07h56.11.779,bars,2023.2.3,Win32,59.88023952,657b66ea316d21385b68909f,,,,,,,,,,,650.7788,651.7781,,,652.278,652.5278,,150,150,,,,,,,,,,,,,,,,bars/020.png,bars/mask002.png,,,,,,,,,,,,1,2,,,,,,,10,2,10,2,,,,,,,,,,,651.7782,652.278,652.5278,653.1776,space,0.6429,,653.1776,35,20,654.1773,654.1773,654.7272,space,0.531,,0,7,7,7,1,115,170,,,,,,,,
,,650304bf5cec6751f3c6b4c4,65af54ce1502ba3ac8b6198b,2024-01-23_07h56.11.779,bars,2023.2.3,Win32,59.88023952,657b66ea316d21385b68909f,,,,,,,,,,,654.7276,655.7267,,,656.2266,656.4765,,42,42,,,,,,,,,,,,,,,,bars/043.png,bars/mask006.png,,,,,,,,,,,,6,1,,,,,,,10,4,10,4,,,,,,,,,,,655.7268,656.2266,656.4765,656.71,space,0.2157,,656.71,12,88,657.7095,657.7095,658.2927,space,0.5617,,0,8,8,8,1,30,130,,,,,,,,
,,650304bf5cec6751f3c6b4c4,65af54ce1502ba3ac8b6198b,2024-01-23_07h56.11.779,bars,2023.2.3,Win32,59.88023952,657b66ea316d21385b68909f,,,,,,,,,,,658.2929,659.2922,,,659.7921,660.0419,,52,52,,,,,,,,,,,,,,,,bars/039.png,bars/mask001.png,,,,,,,,,,,,0,2,,,,,,,8,6,6,5,,,,,,,,,,,659.2922,659.7921,660.0419,660.5919,space,0.5338,,660.5919,57,53,661.5914,661.5914,661.7414,space,0.1327,,0,9,9,9,1,175,105,,,,,,,,
,,650304bf5cec6751f3c6b4c4,65af54ce1502ba3ac8b6198b,2024-01-23_07h56.11.779,bars,2023.2.3,Win32,59.88023952,657b66ea316d21385b68909f,,,,,,,,,,,661.7417,662.741,,,663.2409,663.4907,,118,118,,,,,,,,,,,,,,,,bars/022.png,bars/mask004.png,,,,,,,,,,,,1,1,,,,,,,6,4,6,5,,,,,,,,,,,662.741,663.2409,663.4908,664.4738,space,0.975,,664.4738,23,82,665.4734,665.4735,668.4558,space,2.9664,,0,10,10,10,1,95,20,,,,,,,,
,,650304bf5cec6751f3c6b4c4,65af54ce1502ba3ac8b6198b,2024-01-23_07h56.11.779,bars,2023.2.3,Win32,59.88023952,657b66ea316d21385b68909f,,,,,,,,,,,668.4669,669.4554,,,669.9554,670.2052,,119,119,,,,,,,,,,,,,,,,bars/007.png,bars/mask006.png,,,,,,,,,,,,0,1,,,,,,,4,2,3,2,,,,,,,,,,,669.4554,669.9554,670.2052,676.67,space,6.4546,,676.67,56,64,677.6692,677.6692,677.7694,space,0.0818,,0,11,11,11,1,175,55,,,,,,,,
,,650304bf5cec6751f3c6b4c4,65af54ce1502ba3ac8b6198b,2024-01-23_07h56.11.779,bars,2023.2.3,Win32,59.88023952,657b66ea316d21385b68909f,,,,,,,,,,,677.7698,678.7689,,,679.2689,679.5187,,61,61,,,,,,,,,,,,,,,,bars/043.png,bars/mask005.png,,,,,,,,,,,,0,1,,,,,,,2,0,3,2,,,,,,,,,,,678.769,679.2689,679.5187,679.5523,space,0.0185,,679.5523,31,69,680.5517,680.5517,681.2349,space,0.6641,,0,12,12,12,1,30,130,,,,,,,,
,,650304bf5cec6751f3c6b4c4,65af54ce1502ba3ac8b6198b,2024-01-23_07h56.11.779,bars,2023.2.3,Win32,59.88023952,657b66ea316d21385b68909f,,,,,,,,,,,681.2352,682.2344,,,682.7343,682.9841,,154,154,,,,,,,,,,,,,,,,bars/039.png,bars/mask007.png,,,,,,,,,,,,1,1,,,,,,,4,0,4,0,,,,,,,,,,,682.2344,682.7343,682.9842,683.6508,space,0.6505,,683.6508,21,49,684.6502,684.6502,685.2334,space,0.5736,,0,13,13,13,1,175,105,,,,,,,,
,,650304bf5cec6751f3c6b4c4,65af54ce1502ba3ac8b6198b,2024-01-23_07h56.11.779,bars,2023.2.3,Win32,59.88023952,657b66ea316d21385b68909f,,,,,,,,,,,685.2337,686.2331,,,686.7331,686.9827,,103,103,,,,,,,,,,,,,,,,bars/004.png,bars/mask009.png,,,,,,,,,,,,1,2,,,,,,,6,2,5,2,,,,,,,,,,,686.2331,686.733,686.9828,690.9483,space,3.9477,,690.9484,78,22,691.9479,691.9479,693.5308,space,1.5557,,0,14,14,14,1,25,125,,,,,,,,
,,650304bf5cec6751f3c6b4c4,65af54ce1502ba3ac8b6198b,2024-01-23_07h56.11.779,bars,2023.2.3,Win32,59.88023952,657b66ea316d21385b68909f,,,,,,,,,,,693.5311,694.5304,,,695.0302,695.28,,146,146,,,,,,,,,,,,,,,,bars/049.png,bars/mask004.png,,,,,,,,,,,,5,1,,,,,,,8,4,10,6,,,,,,,,,,,694.5304,695.0301,695.2801,696.0297,space,0.7436,,696.0298,14,31,697.0295,697.0295,697.3962,space,0.3413,,0,15,15,15,1,160,115,,,,,,,,
,,650304bf5cec6751f3c6b4c4,65af54ce1502ba3ac8b6198b,2024-01-23_07h56.11.779,bars,2023.2.3,Win32,59.88023952,657b66ea316d21385b68909f,,,,,,,,,,,697.3966,698.3957,,,698.8956,699.1454,,130,130,,,,,,,,,,,,,,,,bars/034.png,bars/mask002.png,,,,,,,,,,,,8,1,,,,,,,10,6,10,7,,,,,,,,,,,698.3957,698.8956,699.1454,699.9786,space,0.8208,,699.9786,5,65,700.9781,700.9782,701.4281,space,0.4386,,0,16,16,16,1,125,65,,,,,,,,
,,650304bf5cec6751f3c6b4c4,65af54ce1502ba3ac8b6198b,2024-01-23_07h56.11.779,bars,2023.2.3,Win32,59.88023952,657b66ea316d21385b68909f,,,,,,,,,,,701.4283,702.4277,,,702.9275,703.1773,,153,153,,,,,,,,,,,,,,,,bars/011.png,bars/mask000.png,,,,,,,,,,,,6,1,,,,,,,8,4,8,5,,,,,,,,,,,702.4278,702.9274,703.1774,704.377,space,1.1872,,704.3771,7,68,705.3766,705.3766,705.8431,space,0.4579,,0,17,17,17,1,160,85,,,,,,,,
,,650304bf5cec6751f3c6b4c4,65af54ce1502ba3ac8b6198b,2024-01-23_07h56.11.779,bars,2023.2.3,Win32,59.88023952,657b66ea316d21385b68909f,,,,,,,,,,,705.8434,706.8428,,,707.3427,707.5925,,81,81,,,,,,,,,,,,,,,,bars/012.png,bars/mask004.png,,,,,,,,,,,,4,1,,,,,,,6,6,5,6,,,,,,,,,,,706.8428,707.3427,707.5925,708.2757,space,0.6713,,708.2757,9,66,709.2752,709.2753,709.7087,space,0.4275,,0,18,18,18,1,90,15,,,,,,,,
,,650304bf5cec6751f3c6b4c4,65af54ce1502ba3ac8b6198b,2024-01-23_07h56.11.779,bars,2023.2.3,Win32,59.88023952,657b66ea316d21385b68909f,,,,,,,,,,,709.7089,710.7081,,,711.208,711.4579,,86,86,,,,,,,,,,,,,,,,bars/007.png,bars/mask005.png,,,,,,,,,,,,0,2,,,,,,,8,8,8,8,,,,,,,,,,,710.7081,711.208,711.458,712.3409,space,0.8709,,712.341,89,31,713.3406,713.3406,713.6571,space,0.3005,,0,19,19,19,1,175,55,,,,,,,,
,,650304bf5cec6751f3c6b4c4,65af54ce1502ba3ac8b6198b,2024-01-23_07h56.11.779,bars,2023.2.3,Win32,59.88023952,657b66ea316d21385b68909f,,,,,,,,,,,713.6574,714.6568,,,715.1567,715.4066,,167,167,,,,,,,,,,,,,,,,bars/037.png,bars/mask004.png,,,,,,,,,,,,4,1,,,,,,,10,6,10,5,,,,,,,,,,,714.6568,715.1567,715.4066,722.3543,space,6.9302,,722.3544,17,62,723.354,723.3541,724.3706,space,0.9996,,0,20,20,20,1,150,105,,,,,,,,
,,650304bf5cec6751f3c6b4c4,65af54ce1502ba3ac8b6198b,2024-01-23_07h56.11.779,bars,2023.2.3,Win32,59.88023952,657b66ea316d21385b68909f,,,,,,,,,,,724.3709,725.3698,,,725.8696,726.1196,,104,104,,,,,,,,,,,,,,,,bars/030.png,bars/mask003.png,,,,,,,,,,,,0,1,,,,,,,8,8,8,8,,,,,,,,,,,725.3698,725.8696,726.1196,727.7359,space,1.5986,,727.7359,36,39,728.7355,728.7356,728.8854,space,0.1244,,0,21,21,21,1,140,65,,,,,,,,
,,650304bf5cec6751f3c6b4c4,65af54ce1502ba3ac8b6198b,2024-01-23_07h56.11.779,bars,2023.2.3,Win32,59.88023952,657b66ea316d21385b68909f,,,,,,,,,,,728.8856,729.885,,,730.3852,730.6348,,139,139,,,,,,,,,,,,,,,,bars/010.png,bars/mask000.png,,,,,,,,,,,,1,1,,,,,,,6,10,4,10,,,,,,,,,,,729.8851,730.3851,730.6348,730.7348,space,0.0898,,730.7348,26,84,731.7345,731.7345,732.4341,space,0.6924,,0,22,22,22,1,165,55,,,,,,,,
,,650304bf5cec6751f3c6b4c4,65af54ce1502ba3ac8b6198b,2024-01-23_07h56.11.779,bars,2023.2.3,Win32,59.88023952,657b66ea316d21385b68909f,,,,,,,,,,,732.4344,733.4338,,,733.9336,734.1836,,135,135,,,,,,,,,,,,,,,,bars/033.png,bars/mask008.png,,,,,,,,,,,,3,2,,,,,,,4,10,4,9,,,,,,,,,,,733.4338,733.9336,734.1836,734.6169,space,0.4149,,734.6169,70,20,735.6164,735.6164,736.3495,space,0.7152,,0,23,23,23,1,25,155,,,,,,,,
,,650304bf5cec6751f3c6b4c4,65af54ce1502ba3ac8b6198b,2024-01-23_07h56.11.779,bars,2023.2.3,Win32,59.88023952,657b66ea316d21385b68909f,,,,,,,,,,,736.3497,737.3492,,,737.8489,738.0989,,28,28,,,,,,,,,,,,,,,,bars/046.png,bars/mask002.png,,,,,,,,,,,,0,1,,,,,,,6,8,7,8,,,,,,,,,,,737.3493,737.8489,738.099,738.1657,space,0.0511,,738.1657,53,57,739.1654,739.1654,739.2819,space,0.1014,,0,24,24,24,1,155,85,,,,,,,,
,,650304bf5cec6751f3c6b4c4,65af54ce1502ba3ac8b6198b,2024-01-23_07h56.11.779,bars,2023.2.3,Win32,59.88023952,657b66ea316d21385b68909f,,,,,,,,,,,739.2821,740.2814,,,740.7815,741.0312,,99,99,,,,,,,,,,,,,,,,bars/045.png,bars/mask000.png,,,,,,,,,,,,9,1,,,,,,,8,6,9,4,,,,,,,,,,,740.2815,740.7814,741.0312,741.6977,space,0.661,,741.6978,1,89,742.6973,742.6973,742.9805,space,0.2714,,0,25,25,25,1,100,10,,,,,,,,
,,650304bf5cec6751f3c6b4c4,65af54ce1502ba3ac8b6198b,2024-01-23_07h56.11.779,bars,2023.2.3,Win32,59.88023952,657b66ea316d21385b68909f,,,,,,,,,,,742.9809,743.9802,,,744.4801,744.7301,,3,3,,,,,,,,,,,,,,,,bars/022.png,bars/mask008.png,,,,,,,,,,,,2,2,,,,,,,10,4,10,5,,,,,,,,,,,743.9802,744.4801,744.7302,745.5963,space,0.8603,,745.5964,88,17,746.5959,746.596,747.5458,space,0.9333,,0,26,26,26,1,95,20,,,,,,,,
,,650304bf5cec6751f3c6b4c4,65af54ce1502ba3ac8b6198b,2024-01-23_07h56.11.779,bars,2023.2.3,Win32,59.88023952,657b66ea316d21385b68909f,,,,,,,,,,,747.5461,748.5453,,,749.0453,749.2951,,137,137,,,,,,,,,,,,,,,,bars/031.png,bars/mask006.png,,,,,,,,,,,,4,1,,,,,,,8,6,9,5,,,,,,,,,,,748.5453,749.0453,749.2951,750.0115,space,0.7108,,750.0115,17,78,751.0113,751.0114,757.8422,space,6.8174,,0,27,27,27,1,120,35,,,,,,,,
,,650304bf5cec6751f3c6b4c4,65af54ce1502ba3ac8b6198b,2024-01-23_07h56.11.779,bars,2023.2.3,Win32,59.88023952,657b66ea316d21385b68909f,,,,,,,,,,,757.8527,758.8419,,,759.3418,759.5916,,27,27,,,,,,,,,,,,,,,,bars/038.png,bars/mask009.png,,,,,,,,,,,,0,1,,,,,,,10,8,10,10,,,,,,,,,,,758.842,759.3417,759.5916,759.9916,space,0.3916,,759.9916,42,43,760.9912,760.9912,762.8576,space,1.848,,0,28,28,28,1,165,70,,,,,,,,
,,650304bf5cec6751f3c6b4c4,65af54ce1502ba3ac8b6198b,2024-01-23_07h56.11.779,bars,2023.2.3,Win32,59.88023952,657b66ea316d21385b68909f,,,,,,,,,,,762.858,763.8569,,,764.3567,764.6067,,144,144,,,,,,,,,,,,,,,,bars/036.png,bars/mask003.png,,,,,,,,,,,,10,1,,,,,,,8,6,10,6,,,,,,,,,,,763.8569,764.3567,764.6067,766.2562,space,1.6343,,766.2562,1,56,767.2557,767.2557,768.0054,space,0.7381,,0,29,29,29,1,145,20,,,,,,,,
,,650304bf5cec6751f3c6b4c4,65af54ce1502ba3ac8b6198b,2024-01-23_07h56.11.779,bars,2023.2.3,Win32,59.88023952,657b66ea316d21385b68909f,,,,,,,,,,,768.0058,769.0051,,,769.505,769.7548,,174,174,,,,,,,,,,,,,,,,bars/008.png,bars/mask001.png,,,,,,,,,,,,7,2,,,,,,,6,8,7,9,,,,,,,,,,,769.0051,769.505,769.7549,769.8714,space,0.1079,,769.8715,64,6,770.8711,770.8711,771.5044,space,0.6095,,0,30,30,30,1,110,0,,,,,,,,
,,650304bf5cec6751f3c6b4c4,65af54ce1502ba3ac8b6198b,2024-01-23_07h56.11.779,bars,2023.2.3,Win32,59.88023952,657b66ea316d21385b68909f,,,,,,,,,,,771.5046,772.5039,,,773.0039,773.2535,,170,170,,,,,,,,,,,,,,,,bars/012.png,bars/mask001.png,,,,,,,,,,,,1,2,,,,,,,4,6,3,6,,,,,,,,,,,772.5039,773.0038,773.2536,773.6203,space,0.3536,,773.6204,80,25,774.6199,774.62,779.2849,space,4.6565,,0,31,31,31,1,90,15,,,,,,,,
,,650304bf5cec6751f3c6b4c4,65af54ce1502ba3ac8b6198b,2024-01-23_07h56.11.779,bars,2023.2.3,Win32,59.88023952,657b66ea316d21385b68909f,,,,,,,,,,,779.2969,780.2847,,,780.7845,781.0344,,76,76,,,,,,,,,,,,,,,,bars/043.png,bars/mask001.png,,,,,,,,,,,,0,1,,,,,,,6,4,5,3,,,,,,,,,,,780.2847,780.7845,781.0344,781.3342,space,0.2901,,781.3343,46,54,782.334,782.334,783.2502,space,0.9022,,0,32,32,32,1,30,130,,,,,,,,
,,650304bf5cec6751f3c6b4c4,65af54ce1502ba3ac8b6198b,2024-01-23_07h56.11.779,bars,2023.2.3,Win32,59.88023952,657b66ea316d21385b68909f,,,,,,,,,,,783.2505,784.2499,,,784.7498,784.9996,,98,98,,,,,,,,,,,,,,,,bars/016.png,bars/mask003.png,,,,,,,,,,,,0,1,,,,,,,8,2,10,2,,,,,,,,,,,784.2499,784.7498,784.9996,785.0664,space,0.0592,,785.0664,58,67,786.0659,786.0659,787.9989,space,1.919,,0,33,33,33,1,40,165,,,,,,,,
,,650304bf5cec6751f3c6b4c4,65af54ce1502ba3ac8b6198b,2024-01-23_07h56.11.779,bars,2023.2.3,Win32,59.88023952,657b66ea316d21385b68909f,,,,,,,,,,,787.9992,788.9983,,,789.4981,789.7482,,107,107,,,,,,,,,,,,,,,,bars/004.png,bars/mask004.png,,,,,,,,,,,,0,2,,,,,,,6,0,6,0,,,,,,,,,,,788.9983,789.4981,789.7483,790.3312,space,0.5777,,790.3312,82,18,791.3308,791.3309,791.9141,space,0.5662,,0,34,34,34,1,25,125,,,,,,,,
,,650304bf5cec6751f3c6b4c4,65af54ce1502ba3ac8b6198b,2024-01-23_07h56.11.779,bars,2023.2.3,Win32,59.88023952,657b66ea316d21385b68909f,,,,,,,,,,,791.9144,792.9137,,,793.4135,793.6634,,137,137,,,,,,,,,,,,,,,,bars/006.png,bars/mask000.png,,,,,,,,,,,,0,2,,,,,,,4,0,1,0,,,,,,,,,,,792.9137,793.4135,793.6635,794.2466,space,0.5754,,794.2467,78,37,795.2462,795.2463,795.3461,space,0.0897,,0,35,35,35,1,35,100,,,,,,,,
,,650304bf5cec6751f3c6b4c4,65af54ce1502ba3ac8b6198b,2024-01-23_07h56.11.779,bars,2023.2.3,Win32,59.88023952,657b66ea316d21385b68909f,,,,,,,,,,,795.3464,796.3459,,,796.8458,797.0956,,42,42,,,,,,,,,,,,,,,,bars/031.png,bars/mask001.png,,,,,,,,,,,,2,2,,,,,,,6,2,6,3,,,,,,,,,,,796.3459,796.8457,797.0956,798.7784,space,1.6773,,798.7785,78,7,799.778,799.7781,800.2115,space,0.4259,,0,36,36,36,1,120,35,,,,,,,,
,,650304bf5cec6751f3c6b4c4,65af54ce1502ba3ac8b6198b,2024-01-23_07h56.11.779,bars,2023.2.3,Win32,59.88023952,657b66ea316d21385b68909f,,,,,,,,,,,800.2119,801.211,,,801.7108,801.9606,,146,146,,,,,,,,,,,,,,,,bars/045.png,bars/mask001.png,,,,,,,,,,,,0,2,,,,,,,4,0,5,1,,,,,,,,,,,801.211,801.7107,801.9607,802.877,space,0.9084,,802.877,46,44,803.8766,803.8767,805.4429,space,1.5495,,0,37,37,37,1,100,10,,,,,,,,
,,650304bf5cec6751f3c6b4c4,65af54ce1502ba3ac8b6198b,2024-01-23_07h56.11.779,bars,2023.2.3,Win32,59.88023952,657b66ea316d21385b68909f,,,,,,,,,,,805.4432,806.4425,,,806.9423,807.1921,,74,74,,,,,,,,,,,,,,,,bars/048.png,bars/mask001.png,,,,,,,,,,,,0,1,,,,,,,2,0,1,0,,,,,,,,,,,806.4425,806.9423,807.1922,808.4585,space,1.2522,,808.4585,24,79,809.4581,809.4582,810.2911,space,0.819,,0,38,38,38,1,50,175,,,,,,,,
,,650304bf5cec6751f3c6b4c4,65af54ce1502ba3ac8b6198b,2024-01-23_07h56.11.779,bars,2023.2.3,Win32,59.88023952,657b66ea316d21385b68909f,,,,,,,,,,,810.2914,811.2908,,,811.7907,812.0405,,135,135,,,,,,,,,,,,,,,,bars/017.png,bars/mask004.png,,,,,,,,,,,,0,1,,,,,,,0,2,0,2,,,,,,,,,,,811.2908,811.7907,812.0406,813.9066,space,1.8603,,813.9066,10,90,814.9063,814.9063,815.5893,space,0.6572,,0,39,39,39,1,145,45,,,,,,,,
,,650304bf5cec6751f3c6b4c4,65af54ce1502ba3ac8b6198b,2024-01-23_07h56.11.779,bars,2023.2.3,Win32,59.88023952,657b66ea316d21385b68909f,,,,,,,,,,,815.5896,816.5889,,,817.0889,817.3388,,98,98,,,,,,,,,,,,,,,,bars/045.png,bars/mask002.png,,,,,,,,,,,,1,1,,,,,,,0,0,1,2,,,,,,,,,,,816.5889,817.0889,817.3388,819.7048,space,2.3488,,819.7049,2,88,820.7043,820.7043,820.7876,space,0.0641,,0,40,40,40,1,100,10,,,,,,,,
,,650304bf5cec6751f3c6b4c4,65af54ce1502ba3ac8b6198b,2024-01-23_07h56.11.779,bars,2023.2.3,Win32,59.88023952,657b66ea316d21385b68909f,,,,,,,,,,,820.7879,821.7872,,,822.2871,822.537,,33,33,,,,,,,,,,,,,,,,bars/023.png,bars/mask009.png,,,,,,,,,,,,0,1,,,,,,,0,0,0,0,,,,,,,,,,,821.7872,822.287,822.5371,822.6538,space,0.1029,,822.6538,13,82,823.6532,823.6533,825.0861,space,1.423,,0,41,41,41,1,20,115,,,,,,,,
,,650304bf5cec6751f3c6b4c4,65af54ce1502ba3ac8b6198b,2024-01-23_07h56.11.779,bars,2023.2.3,Win32,59.88023952,657b66ea316d21385b68909f,,,,,,,,,,,825.0864,826.0857,,,826.5857,826.8355,,120,120,,,,,,,,,,,,,,,,bars/014.png,bars/mask005.png,,,,,,,,,,,,0,1,,,,,,,2,0,1,1,,,,,,,,,,,826.0858,826.5856,826.8356,827.4688,space,0.6174,,827.4689,40,60,828.4684,828.4684,829.1348,space,0.6569,,0,42,42,42,1,80,0,,,,,,,,
,,650304bf5cec6751f3c6b4c4,65af54ce1502ba3ac8b6198b,2024-01-23_07h56.11.779,bars,2023.2.3,Win32,59.88023952,657b66ea316d21385b68909f,,,,,,,,,,,829.1351,830.1344,,,830.6343,830.8841,,3,3,,,,,,,,,,,,,,,,bars/014.png,bars/mask003.png,,,,,,,,,,,,0,2,,,,,,,0,0,0,0,,,,,,,,,,,830.1344,830.6343,830.8841,831.7007,space,0.8007,,831.7008,77,3,832.7003,832.7003,833.2001,space,0.4864,,0,43,43,43,1,80,0,,,,,,,,
,,650304bf5cec6751f3c6b4c4,65af54ce1502ba3ac8b6198b,2024-01-23_07h56.11.779,bars,2023.2.3,Win32,59.88023952,657b66ea316d21385b68909f,,,,,,,,,,,833.2003,834.1997,,,834.6996,834.9495,,65,65,,,,,,,,,,,,,,,,bars/023.png,bars/mask006.png,,,,,,,,,,,,0,1,,,,,,,2,0,2,1,,,,,,,,,,,834.1997,834.6996,834.9496,835.0328,space,0.0661,,835.0328,45,50,836.0324,836.0324,836.3657,space,0.3216,,0,44,44,44,1,20,115,,,,,,,,
,,650304bf5cec6751f3c6b4c4,65af54ce1502ba3ac8b6198b,2024-01-23_07h56.11.779,bars,2023.2.3,Win32,59.88023952,657b66ea316d21385b68909f,,,,,,,,,,,836.366,837.3652,,,837.8654,838.1152,,75,75,,,,,,,,,,,,,,,,bars/007.png,bars/mask008.png,,,,,,,,,,,,1,2,,,,,,,4,2,4,2,,,,,,,,,,,837.3653,837.8654,838.1152,838.2317,space,0.1076,,838.2317,80,20,839.2313,839.2313,839.4148,space,0.1633,,0,45,45,45,1,175,55,,,,,,,,
,,650304bf5cec6751f3c6b4c4,65af54ce1502ba3ac8b6198b,2024-01-23_07h56.11.779,bars,2023.2.3,Win32,59.88023952,657b66ea316d21385b68909f,,,,,,,,,,,839.4151,840.4143,,,840.9141,841.164,,171,171,,,,,,,,,,,,,,,,bars/021.png,bars/mask002.png,,,,,,,,,,,,1,1,,,,,,,2,4,2,4,,,,,,,,,,,840.4143,840.9141,841.1641,841.8305,space,0.6579,,841.8305,16,79,842.8302,842.8302,843.4636,space,0.6111,,0,46,46,46,1,155,70,,,,,,,,
,,650304bf5cec6751f3c6b4c4,65af54ce1502ba3ac8b6198b,2024-01-23_07h56.11.779,bars,2023.2.3,Win32,59.88023952,657b66ea316d21385b68909f,,,,,,,,,,,843.4639,844.4631,,,844.9628,845.2126,,54,54,,,,,,,,,,,,,,,,bars/044.png,bars/mask008.png,,,,,,,,,,,,1,1,,,,,,,4,2,4,2,,,,,,,,,,,844.4631,844.9628,845.2127,848.0284,space,2.8099,,848.0284,21,79,849.0281,849.0281,849.7946,space,0.7461,,0,47,47,47,1,75,155,,,,,,,,
,,650304bf5cec6751f3c6b4c4,65af54ce1502ba3ac8b6198b,2024-01-23_07h56.11.779,bars,2023.2.3,Win32,59.88023952,657b66ea316d21385b68909f,,,,,,,,,,,849.7949,850.7942,,,851.294,851.544,,2,2,,,,,,,,,,,,,,,,bars/023.png,bars/mask008.png,,,,,,,,,,,,2,1,,,,,,,6,0,5,0,,,,,,,,,,,850.7942,851.294,851.544,851.8604,space,0.313,,851.8604,18,67,852.86,852.8601,853.4934,space,0.6164,,0,48,48,48,1,20,115,,,,,,,,
,,650304bf5cec6751f3c6b4c4,65af54ce1502ba3ac8b6198b,2024-01-23_07h56.11.779,bars,2023.2.3,Win32,59.88023952,657b66ea316d21385b68909f,,,,,,,,,,,853.4936,854.4929,,,854.9927,855.2426,,113,113,,,,,,,,,,,,,,,,bars/046.png,bars/mask007.png,,,,,,,,,,,,0,2,,,,,,,4,0,6,0,,,,,,,,,,,854.4929,854.9927,855.2426,924.886,space,69.635,,924.886,42,28,925.8855,925.8855,925.9129,space,0.0009,,0,49,49,49,1,155,85,,,,,,,,
,,650304bf5cec6751f3c6b4c4,65af54ce1502ba3ac8b6198b,2024-01-23_07h56.11.779,bars,2023.2.3,Win32,59.88023952,657b66ea316d21385b68909f,,,,,,,,,,,,,,,,,,,,,,,,,,,,,,,,,,,,,,,,,,,,,,,,,,,,,,,,,,,,,,,,,,,,,,,,,,,,,,,,,,,,,,,,,,,,,925.9135,985.9161,0,0,0,1,1,sequence_tables/blk027.csv
,,650304bf5cec6751f3c6b4c4,65af54ce1502ba3ac8b6198b,2024-01-23_07h56.11.779,bars,2023.2.3,Win32,59.88023952,657b66ea316d21385b68909f,,,,,,,,,,,988.886,989.8805,,,990.3804,990.6302,,9,9,,,,,,,,,,,,,,,,bars/010.png,bars/mask007.png,,,,,,,,,,,,1,1,,,,,,,9,9,7,10,,,,,,985.9355,988.8809,space,2.9265,,989.8806,990.3804,990.6303,990.7471,space,0.1009,,990.7472,24,46,991.7467,991.7467,991.7505,,,,0,0,0,0,1,165,55,,,,,,,,
,,650304bf5cec6751f3c6b4c4,65af54ce1502ba3ac8b6198b,2024-01-23_07h56.11.779,bars,2023.2.3,Win32,59.88023952,657b66ea316d21385b68909f,,,,,,,,,,,991.7508,992.7462,,,993.2461,993.4961,,12,12,,,,,,,,,,,,,,,,bars/033.png,bars/mask007.png,,,,,,,,,,,,4,1,,,,,,,7,10,7,10,,,,,,,,,,,992.7462,993.2461,993.4961,993.7126,space,0.2057,,993.7127,13,37,994.7122,994.7123,994.7129,,,,0,1,1,1,1,25,155,,,,,,,,
,,650304bf5cec6751f3c6b4c4,65af54ce1502ba3ac8b6198b,2024-01-23_07h56.11.779,bars,2023.2.3,Win32,59.88023952,657b66ea316d21385b68909f,,,,,,,,,,,994.7131,995.7118,,,996.2117,996.4616,,21,21,,,,,,,,,,,,,,,,bars/032.png,bars/mask006.png,,,,,,,,,,,,8,2,,,,,,,9,8,9,8,,,,,,,,,,,995.7119,996.2117,996.4616,998.0109,space,1.5409,,998.011,76,1,999.0107,999.0108,999.0139,,,,0,2,2,2,1,125,20,,,,,,,,
,,650304bf5cec6751f3c6b4c4,65af54ce1502ba3ac8b6198b,2024-01-23_07h56.11.779,bars,2023.2.3,Win32,59.88023952,657b66ea316d21385b68909f,,,,,,,,,,,999.0142,1000.0104,,,1000.5103,1000.7603,,74,74,,,,,,,,,,,,,,,,bars/035.png,bars/mask000.png,,,,,,,,,,,,4,2,,,,,,,10,6,8,7,,,,,,,,,,,1000.0105,1000.5103,1000.7603,1004.6757,space,3.9003,,1004.6758,79,14,1005.6753,1005.6754,1005.699,,,,0,3,3,3,1,175,60,,,,,,,,
,,650304bf5cec6751f3c6b4c4,65af54ce1502ba3ac8b6198b,2024-01-23_07h56.11.779,bars,2023.2.3,Win32,59.88023952,657b66ea316d21385b68909f,,,,,,,,,,,1005.6994,1006.6915,,,1007.1914,1007.4411,,130,130,,,,,,,,,,,,,,,,bars/044.png,bars/mask003.png,,,,,,,,,,,,1,2,,,,,,,10,4,9,4,,,,,,,,,,,1006.6916,1007.1913,1007.4411,1009.5574,space,2.1066,,1009.5574,55,25,1010.557,1010.5571,1010.5734,,,,0,4,4,4,1,75,155,,,,,,,,
,,650304bf5cec6751f3c6b4c4,65af54ce1502ba3ac8b6198b,2024-01-23_07h56.11.779,bars,2023.2.3,Win32,59.88023952,657b66ea316d21385b68909f,,,,,,,,,,,1010.5736,1011.5733,,,1012.0732,1012.323,,1,1,,,,,,,,,,,,,,,,bars/041.png,bars/mask004.png,,,,,,,,,,,,3,1,,,,,,,8,2,8,3,,,,,,,,,,,1011.5734,1012.073,1012.323,1051.8598,space,39.5219,,1051.8598,19,84,1052.8593,1052.8594,1052.8808,,,,0,5,5,5,1,20,85,,,,,,,,
,,650304bf5cec6751f3c6b4c4,65af54ce1502ba3ac8b6198b,2024-01-23_07h56.11.779,bars,2023.2.3,Win32,59.88023952,657b66ea316d21385b68909f,,,,,,,,,,,1052.881,1053.8757,,,1054.3755,1054.6254,,130,130,,,,,,,,,,,,,,,,bars/011.png,bars/mask007.png,,,,,,,,,,,,0,1,,,,,,,6,4,6,4,,,,,,,,,,,1053.8758,1054.3755,1054.6255,1055.092,space,0.4544,,1055.0921,30,45,1056.0915,1056.0915,1056.0922,,,,0,6,6,6,1,160,85,,,,,,,,
,,650304bf5cec6751f3c6b4c4,65af54ce1502ba3ac8b6198b,2024-01-23_07h56.11.779,bars,2023.2.3,Win32,59.88023952,657b66ea316d21385b68909f,,,,,,,,,,,1056.0924,1057.0912,,,1057.5912,1057.841,,3,3,,,,,,,,,,,,,,,,bars/048.png,bars/mask000.png,,,,,,,,,,,,4,2,,,,,,,8,6,9,6,,,,,,,,,,,1057.0913,1057.5912,1057.8411,1075.7349,space,17.8891,,1075.7349,47,8,1076.7345,1076.7345,1076.7488,,,,0,7,7,7,1,50,175,,,,,,,,
,,650304bf5cec6751f3c6b4c4,65af54ce1502ba3ac8b6198b,2024-01-23_07h56.11.779,bars,2023.2.3,Win32,59.88023952,657b66ea316d21385b68909f,,,,,,,,,,,1076.7489,1077.7509,,,1078.2507,1078.5007,,32,32,,,,,,,,,,,,,,,,bars/034.png,bars/mask005.png,,,,,,,,,,,,0,2,,,,,,,10,8,10,8,,,,,,,,,,,1077.751,1078.2507,1078.5007,1079.1672,space,0.6506,,1079.1672,87,33,1080.1668,1080.1668,1080.1676,,,,0,8,8,8,1,125,65,,,,,,,,
,,650304bf5cec6751f3c6b4c4,65af54ce1502ba3ac8b6198b,2024-01-23_07h56.11.779,bars,2023.2.3,Win32,59.88023952,657b66ea316d21385b68909f,,,,,,,,,,,1080.1683,1081.1664,,,1081.6663,1081.9162,,54,54,,,,,,,,,,,,,,,,bars/007.png,bars/mask003.png,,,,,,,,,,,,10,2,,,,,,,8,10,6,10,,,,,,,,,,,1081.1664,1081.6663,1081.9163,1084.1654,space,2.2336,,1084.1655,59,1,1085.165,1085.1651,1085.1851,,,,0,9,9,9,1,175,55,,,,,,,,
,,650304bf5cec6751f3c6b4c4,65af54ce1502ba3ac8b6198b,2024-01-23_07h56.11.779,bars,2023.2.3,Win32,59.88023952,657b66ea316d21385b68909f,,,,,,,,,,,1085.1853,1086.1813,,,1086.6813,1086.9311,,107,107,,,,,,,,,,,,,,,,bars/019.png,bars/mask006.png,,,,,,,,,,,,9,2,,,,,,,10,10,10,10,,,,,,,,,,,1086.1814,1086.6813,1086.9311,1091.9627,space,5.022,,1091.9628,62,2,1092.9624,1092.9624,1092.9817,,,,0,10,10,10,1,45,105,,,,,,,,
,,650304bf5cec6751f3c6b4c4,65af54ce1502ba3ac8b6198b,2024-01-23_07h56.11.779,bars,2023.2.3,Win32,59.88023952,657b66ea316d21385b68909f,,,,,,,,,,,1092.9818,1093.979,,,1094.4787,1094.7286,,83,83,,,,,,,,,,,,,,,,bars/014.png,bars/mask002.png,,,,,,,,,,,,8,1,,,,,,,8,10,9,10,,,,,,,,,,,1093.979,1094.4787,1094.7286,1097.0109,space,2.2728,,1097.0109,3,83,1098.0107,1098.0108,1098.0276,,,,0,11,11,11,1,80,0,,,,,,,,
,,650304bf5cec6751f3c6b4c4,65af54ce1502ba3ac8b6198b,2024-01-23_07h56.11.779,bars,2023.2.3,Win32,59.88023952,657b66ea316d21385b68909f,,,,,,,,,,,1098.0277,1099.027,,,1099.527,1099.777,,11,11,,,,,,,,,,,,,,,,bars/046.png,bars/mask008.png,,,,,,,,,,,,0,1,,,,,,,10,8,8,7,,,,,,,,,,,1099.027,1099.5269,1099.777,1102.8925,space,3.0998,,1102.8925,36,74,1103.8921,1103.8921,1103.9073,,,,0,12,12,12,1,155,85,,,,,,,,
,,650304bf5cec6751f3c6b4c4,65af54ce1502ba3ac8b6198b,2024-01-23_07h56.11.779,bars,2023.2.3,Win32,59.88023952,657b66ea316d21385b68909f,,,,,,,,,,,1103.9074,1104.9084,,,1105.4081,1105.6583,,118,118,,,,,,,,,,,,,,,,bars/044.png,bars/mask000.png,,,,,,,,,,,,0,2,,,,,,,10,6,10,6,,,,,,,,,,,1104.9085,1105.4081,1105.6583,1109.8568,space,4.1822,,1109.8568,43,37,1110.8565,1110.8565,1110.8732,,,,0,13,13,13,1,75,155,,,,,,,,
,,650304bf5cec6751f3c6b4c4,65af54ce1502ba3ac8b6198b,2024-01-23_07h56.11.779,bars,2023.2.3,Win32,59.88023952,657b66ea316d21385b68909f,,,,,,,,,,,1110.8735,1111.8727,,,1112.3725,1112.6226,,27,27,,,,,,,,,,,,,,,,bars/009.png,bars/mask008.png,,,,,,,,,,,,5,1,,,,,,,8,4,9,4,,,,,,,,,,,1111.8727,1112.3725,1112.6227,1113.8054,space,1.1785,,1113.8055,12,78,1114.8051,1114.8052,1114.8253,,,,0,14,14,14,1,15,105,,,,,,,,
,,650304bf5cec6751f3c6b4c4,65af54ce1502ba3ac8b6198b,2024-01-23_07h56.11.779,bars,2023.2.3,Win32,59.88023952,657b66ea316d21385b68909f,,,,,,,,,,,1114.8254,1115.8214,,,1116.3212,1116.5712,,63,63,,,,,,,,,,,,,,,,bars/001.png,bars/mask008.png,,,,,,,,,,,,1,2,,,,,,,10,2,10,2,,,,,,,,,,,1115.8215,1116.3212,1116.5712,1116.6211,space,0.0409,,1116.6212,67,22,1117.6208,1117.6208,1117.6243,,,,0,15,15,15,1,130,85,,,,,,,,
,,650304bf5cec6751f3c6b4c4,65af54ce1502ba3ac8b6198b,2024-01-23_07h56.11.779,bars,2023.2.3,Win32,59.88023952,657b66ea316d21385b68909f,,,,,,,,,,,1117.6246,1118.6204,,,1119.1203,1119.3701,,138,138,,,,,,,,,,,,,,,,bars/019.png,bars/mask005.png,,,,,,,,,,,,0,2,,,,,,,8,0,9,1,,,,,,,,,,,1118.6205,1119.1202,1119.3702,1121.8027,space,2.4192,,1121.8028,87,33,1122.8022,1122.8022,1122.8142,,,,0,16,16,16,1,45,105,,,,,,,,
,,650304bf5cec6751f3c6b4c4,65af54ce1502ba3ac8b6198b,2024-01-23_07h56.11.779,bars,2023.2.3,Win32,59.88023952,657b66ea316d21385b68909f,,,,,,,,,,,1122.8144,1123.802,,,1124.3019,1124.5517,,119,119,,,,,,,,,,,,,,,,bars/031.png,bars/mask002.png,,,,,,,,,,,,10,1,,,,,,,10,0,10,0,,,,,,,,,,,1123.802,1124.3019,1124.5517,1126.4843,space,1.9254,,1126.4844,1,84,1127.4843,1127.4843,1127.5053,,,,0,17,17,17,1,120,35,,,,,,,,
,,650304bf5cec6751f3c6b4c4,65af54ce1502ba3ac8b6198b,2024-01-23_07h56.11.779,bars,2023.2.3,Win32,59.88023952,657b66ea316d21385b68909f,,,,,,,,,,,1127.5056,1128.5003,,,1129.0003,1129.2503,,76,76,,,,,,,,,,,,,,,,bars/048.png,bars/mask007.png,,,,,,,,,,,,1,1,,,,,,,10,2,10,4,,,,,,,,,,,1128.5004,1129.0002,1129.2504,1130.583,space,1.317,,1130.583,26,81,1131.5841,1131.5842,1131.5849,,,,0,18,18,18,1,50,175,,,,,,,,
,,650304bf5cec6751f3c6b4c4,65af54ce1502ba3ac8b6198b,2024-01-23_07h56.11.779,bars,2023.2.3,Win32,59.88023952,657b66ea316d21385b68909f,,,,,,,,,,,1131.5851,1132.5822,,,1133.0821,1133.3322,,8,8,,,,,,,,,,,,,,,,bars/021.png,bars/mask007.png,,,,,,,,,,,,0,1,,,,,,,8,4,8,4,,,,,,,,,,,1132.5822,1133.0821,1133.3322,1255.208,space,121.8597,,1255.2081,33,62,1256.2073,1256.2074,1256.228,,,,0,19,19,19,1,155,70,,,,,,,,
,,650304bf5cec6751f3c6b4c4,65af54ce1502ba3ac8b6198b,2024-01-23_07h56.11.779,bars,2023.2.3,Win32,59.88023952,657b66ea316d21385b68909f,,,,,,,,,,,1256.2283,1257.2235,,,1257.7235,1257.9734,,147,147,,,,,,,,,,,,,,,,bars/036.png,bars/mask008.png,,,,,,,,,,,,8,1,,,,,,,10,6,9,5,,,,,,,,,,,1257.2236,1257.7235,1257.9734,1258.5564,space,0.5712,,1258.5564,2,53,1259.5561,1259.5561,1259.5568,,,,0,20,20,20,1,145,20,,,,,,,,
,,650304bf5cec6751f3c6b4c4,65af54ce1502ba3ac8b6198b,2024-01-23_07h56.11.779,bars,2023.2.3,Win32,59.88023952,657b66ea316d21385b68909f,,,,,,,,,,,1259.557,1260.5559,,,1261.0557,1261.3057,,177,177,,,,,,,,,,,,,,,,bars/004.png,bars/mask001.png,,,,,,,,,,,,1,1,,,,,,,8,4,9,4,,,,,,,,,,,1260.556,1261.0557,1261.3057,1275.8508,space,14.541,,1275.8508,28,52,1276.8504,1276.8505,1276.8705,,,,0,21,21,21,1,25,125,,,,,,,,
,,650304bf5cec6751f3c6b4c4,65af54ce1502ba3ac8b6198b,2024-01-23_07h56.11.779,bars,2023.2.3,Win32,59.88023952,657b66ea316d21385b68909f,,,,,,,,,,,1276.8707,1277.8668,,,1278.3677,1278.6172,,147,147,,,,,,,,,,,,,,,,bars/042.png,bars/mask002.png,,,,,,,,,,,,7,1,,,,,,,6,6,8,5,,,,,,,,,,,1277.8668,1278.3677,1278.6172,1279.2525,space,0.6299,,1279.2525,2,72,1280.2492,1280.2492,1280.2504,,,,0,22,22,22,1,145,75,,,,,,,,
,,650304bf5cec6751f3c6b4c4,65af54ce1502ba3ac8b6198b,2024-01-23_07h56.11.779,bars,2023.2.3,Win32,59.88023952,657b66ea316d21385b68909f,,,,,,,,,,,1280.2515,1281.2488,,,1281.7487,1281.9986,,56,56,,,,,,,,,,,,,,,,bars/040.png,bars/mask007.png,,,,,,,,,,,,0,2,,,,,,,8,4,8,2,,,,,,,,,,,1281.2488,1281.7487,1281.9986,1291.5289,space,9.5151,,1291.5289,84,51,1292.5282,1292.5282,1292.5489,,,,0,23,23,23,1,140,5,,,,,,,,
,,650304bf5cec6751f3c6b4c4,65af54ce1502ba3ac8b6198b,2024-01-23_07h56.11.779,bars,2023.2.3,Win32,59.88023952,657b66ea316d21385b68909f,,,,,,,,,,,1292.5492,1293.5447,,,1294.0444,1294.2945,,33,33,,,,,,,,,,,,,,,,bars/040.png,bars/mask003.png,,,,,,,,,,,,0,2,,,,,,,10,6,10,6,,,,,,,,,,,1293.5448,1294.0444,1294.2945,1294.6445,space,0.3339,,1294.6445,73,28,1295.644,1295.644,1295.6445,,,,0,24,24,24,1,140,5,,,,,,,,
,,650304bf5cec6751f3c6b4c4,65af54ce1502ba3ac8b6198b,2024-01-23_07h56.11.779,bars,2023.2.3,Win32,59.88023952,657b66ea316d21385b68909f,,,,,,,,,,,1295.6447,1296.6436,,,1297.1435,1297.3933,,120,120,,,,,,,,,,,,,,,,bars/019.png,bars/mask006.png,,,,,,,,,,,,2,2,,,,,,,8,4,7,4,,,,,,,,,,,1296.6436,1297.1434,1297.3934,1297.4934,space,0.0841,,1297.4935,75,15,1298.493,1298.493,1298.4939,,,,0,25,25,25,1,45,105,,,,,,,,
,,650304bf5cec6751f3c6b4c4,65af54ce1502ba3ac8b6198b,2024-01-23_07h56.11.779,bars,2023.2.3,Win32,59.88023952,657b66ea316d21385b68909f,,,,,,,,,,,1298.4944,1299.4925,,,1299.9925,1300.2423,,7,7,,,,,,,,,,,,,,,,bars/003.png,bars/mask003.png,,,,,,,,,,,,4,1,,,,,,,10,6,9,6,,,,,,,,,,,1299.4925,1299.9924,1300.2423,1301.3586,space,1.1084,,1301.3586,18,47,1302.3583,1302.3583,1302.3611,,,,0,26,26,26,1,25,140,,,,,,,,
,,650304bf5cec6751f3c6b4c4,65af54ce1502ba3ac8b6198b,2024-01-23_07h56.11.779,bars,2023.2.3,Win32,59.88023952,657b66ea316d21385b68909f,,,,,,,,,,,1302.3615,1303.3579,,,1303.8581,1304.1079,,87,87,,,,,,,,,,,,,,,,bars/003.png,bars/mask008.png,,,,,,,,,,,,0,2,,,,,,,8,4,9,4,,,,,,,,,,,1303.3579,1303.858,1304.1079,1305.0577,space,0.9364,,1305.0577,62,53,1306.0571,1306.0572,1306.0604,,,,0,27,27,27,1,25,140,,,,,,,,
,,650304bf5cec6751f3c6b4c4,65af54ce1502ba3ac8b6198b,2024-01-23_07h56.11.779,bars,2023.2.3,Win32,59.88023952,657b66ea316d21385b68909f,,,,,,,,,,,1306.0607,1307.0568,,,1307.5566,1307.8065,,44,44,,,,,,,,,,,,,,,,bars/022.png,bars/mask000.png,,,,,,,,,,,,1,2,,,,,,,6,6,6,6,,,,,,,,,,,1307.0568,1307.5566,1307.8065,1308.4062,space,0.5922,,1308.4063,51,24,1309.4059,1309.406,1309.4068,,,,0,28,28,28,1,95,20,,,,,,,,
,,650304bf5cec6751f3c6b4c4,65af54ce1502ba3ac8b6198b,2024-01-23_07h56.11.779,bars,2023.2.3,Win32,59.88023952,657b66ea316d21385b68909f,,,,,,,,,,,1309.4071,1310.4057,,,1310.9054,1311.1554,,106,106,,,,,,,,,,,,,,,,bars/028.png,bars/mask003.png,,,,,,,,,,,,3,2,,,,,,,4,4,3,5,,,,,,,,,,,1310.4058,1310.9053,1311.1554,1311.4386,space,0.2677,,1311.4387,61,14,1312.4383,1312.4384,1312.4391,,,,0,29,29,29,1,45,120,,,,,,,,
,,650304bf5cec6751f3c6b4c4,65af54ce1502ba3ac8b6198b,2024-01-23_07h56.11.779,bars,2023.2.3,Win32,59.88023952,657b66ea316d21385b68909f,,,,,,,,,,,1312.4394,1313.438,,,1313.9378,1314.1876,,34,34,,,,,,,,,,,,,,,,bars/037.png,bars/mask004.png,,,,,,,,,,,,0,1,,,,,,,2,2,1,2,,,,,,,,,,,1313.438,1313.9377,1314.1876,1314.3709,space,0.1755,,1314.3709,64,71,1315.3705,1315.3706,1315.3742,,,,0,30,30,30,1,150,105,,,,,,,,
,,650304bf5cec6751f3c6b4c4,65af54ce1502ba3ac8b6198b,2024-01-23_07h56.11.779,bars,2023.2.3,Win32,59.88023952,657b66ea316d21385b68909f,,,,,,,,,,,1315.3745,1316.3703,,,1316.8701,1317.1202,,5,5,,,,,,,,,,,,,,,,bars/033.png,bars/mask001.png,,,,,,,,,,,,1,1,,,,,,,4,4,4,3,,,,,,,,,,,1316.3704,1316.8701,1317.1203,1317.9197,space,0.7905,,1317.9197,20,30,1318.9195,1318.9195,1318.9204,,,,0,31,31,31,1,25,155,,,,,,,,
,,650304bf5cec6751f3c6b4c4,65af54ce1502ba3ac8b6198b,2024-01-23_07h56.11.779,bars,2023.2.3,Win32,59.88023952,657b66ea316d21385b68909f,,,,,,,,,,,1318.9206,1319.919,,,1320.4189,1320.6689,,18,18,,,,,,,,,,,,,,,,bars/048.png,bars/mask003.png,,,,,,,,,,,,0,2,,,,,,,2,2,2,1,,,,,,,,,,,1319.9191,1320.4189,1320.6689,1320.6854,space,0.0094,,1320.6855,32,23,1321.6852,1321.6852,1321.6889,,,,0,32,32,32,1,50,175,,,,,,,,
,,650304bf5cec6751f3c6b4c4,65af54ce1502ba3ac8b6198b,2024-01-23_07h56.11.779,bars,2023.2.3,Win32,59.88023952,657b66ea316d21385b68909f,,,,,,,,,,,1321.6893,1322.6849,,,1323.1858,1323.4345,,122,122,,,,,,,,,,,,,,,,bars/013.png,bars/mask009.png,,,,,,,,,,,,0,1,,,,,,,4,4,4,4,,,,,,,,,,,1322.685,1323.1857,1323.4345,1349.5923,space,26.1413,,1349.5923,47,68,1350.5924,1350.5924,1350.6207,,,,0,33,33,33,1,75,10,,,,,,,,
,,650304bf5cec6751f3c6b4c4,65af54ce1502ba3ac8b6198b,2024-01-23_07h56.11.779,bars,2023.2.3,Win32,59.88023952,657b66ea316d21385b68909f,,,,,,,,,,,1350.6211,1351.6259,,,1352.1138,1352.3579,,20,20,,,,,,,,,,,,,,,,bars/038.png,bars/mask002.png,,,,,,,,,,,,0,1,,,,,,,6,6,5,4,,,,,,,,,,,1351.626,1352.1138,1352.358,1414.2873,space,61.9227,,1414.2873,35,50,1415.2867,1415.2868,1415.3135,,,,0,34,34,34,1,165,70,,,,,,,,
,,650304bf5cec6751f3c6b4c4,65af54ce1502ba3ac8b6198b,2024-01-23_07h56.11.779,bars,2023.2.3,Win32,59.88023952,657b66ea316d21385b68909f,,,,,,,,,,,1415.3139,1416.3031,,,1416.8031,1417.0528,,163,163,,,,,,,,,,,,,,,,bars/047.png,bars/mask001.png,,,,,,,,,,,,0,1,,,,,,,4,4,5,3,,,,,,,,,,,1416.3031,1416.803,1417.053,1417.0696,space,0.002,,1417.0696,32,87,1437.1049,1437.1049,1437.121,,,,0,35,35,35,1,15,70,,,,,,,,
,,650304bf5cec6751f3c6b4c4,65af54ce1502ba3ac8b6198b,2024-01-23_07h56.11.779,bars,2023.2.3,Win32,59.88023952,657b66ea316d21385b68909f,,,,,,,,,,,1437.1214,1437.1318,,,1437.1324,1437.1328,,92,92,,,,,,,,,,,,,,,,bars/024.png,bars/mask001.png,,,,,,,,,,,,0,1,,,,,,,2,2,3,2,,,,,,,,,,,1437.1318,1437.1324,1437.1328,1442.4945,space,5.3444,,1442.4946,28,78,1443.4941,1443.4941,1443.5135,,,,0,36,36,36,1,120,170,,,,,,,,
,,650304bf5cec6751f3c6b4c4,65af54ce1502ba3ac8b6198b,2024-01-23_07h56.11.779,bars,2023.2.3,Win32,59.88023952,657b66ea316d21385b68909f,,,,,,,,,,,1443.5139,1444.5102,,,1445.0103,1445.2599,,175,-5,,,,,,,,,,,,,,,,bars/005.png,bars/mask005.png,,,,,,,,,,,,0,1,,,,,,,0,0,0,0,,,,,,,,,,,1444.5103,1445.0103,1445.26,1451.0082,space,5.7325,,1451.0082,15,35,1452.0078,1452.0078,1452.0276,,,,0,37,37,37,1,10,140,,,,,,,,
,,650304bf5cec6751f3c6b4c4,65af54ce1502ba3ac8b6198b,2024-01-23_07h56.11.779,bars,2023.2.3,Win32,59.88023952,657b66ea316d21385b68909f,,,,,,,,,,,1452.0279,1453.0242,,,1453.5241,1453.7739,,19,19,,,,,,,,,,,,,,,,bars/015.png,bars/mask003.png,,,,,,,,,,,,0,2,,,,,,,2,2,2,2,,,,,,,,,,,1453.0242,1453.5241,1453.774,1453.8408,space,0.0544,,1453.8408,89,39,1454.8401,1454.8401,1454.8434,,,,0,38,38,38,1,110,160,,,,,,,,
,,650304bf5cec6751f3c6b4c4,65af54ce1502ba3ac8b6198b,2024-01-23_07h56.11.779,bars,2023.2.3,Win32,59.88023952,657b66ea316d21385b68909f,,,,,,,,,,,1454.8437,1455.8398,,,1456.3396,1456.5894,,39,39,,,,,,,,,,,,,,,,bars/013.png,bars/mask001.png,,,,,,,,,,,,0,2,,,,,,,4,4,6,5,,,,,,,,,,,1455.8398,1456.3396,1456.5894,1463.6039,space,7.0093,,1463.6039,36,29,1464.6035,1464.6035,1464.6238,,,,0,39,39,39,1,75,10,,,,,,,,
,,650304bf5cec6751f3c6b4c4,65af54ce1502ba3ac8b6198b,2024-01-23_07h56.11.779,bars,2023.2.3,Win32,59.88023952,657b66ea316d21385b68909f,,,,,,,,,,,1464.6239,1482.328,,,1482.3479,1482.3486,,140,140,,,,,,,,,,,,,,,,bars/014.png,bars/mask000.png,,,,,,,,,,,,0,2,,,,,,,2,2,2,2,,,,,,,,,,,1482.328,1482.3478,1482.3486,1489.012,space,6.6467,,1489.012,60,40,1490.0115,1490.0115,1490.0247,,,,0,40,40,40,1,80,0,,,,,,,,
,,650304bf5cec6751f3c6b4c4,65af54ce1502ba3ac8b6198b,2024-01-23_07h56.11.779,bars,2023.2.3,Win32,59.88023952,657b66ea316d21385b68909f,,,,,,,,,,,1490.025,1491.0281,,,1491.5277,1491.7776,,33,33,,,,,,,,,,,,,,,,bars/030.png,bars/mask005.png,,,,,,,,,,,,0,2,,,,,,,4,4,2,2,,,,,,,,,,,1491.0281,1491.5277,1491.7776,1492.2444,space,0.4523,,1492.2445,73,32,1493.2437,1493.2437,1493.2446,,,,0,41,41,41,1,140,65,,,,,,,,
,,650304bf5cec6751f3c6b4c4,65af54ce1502ba3ac8b6198b,2024-01-23_07h56.11.779,bars,2023.2.3,Win32,59.88023952,657b66ea316d21385b68909f,,,,,,,,,,,1493.2448,1494.2434,,,1494.7431,1494.9932,,96,96,,,,,,,,,,,,,,,,bars/013.png,bars/mask000.png,,,,,,,,,,,,0,1,,,,,,,2,6,1,7,,,,,,,,,,,1494.2434,1494.7431,1494.9933,1506.506,space,11.5032,,1506.5061,21,86,1507.5057,1507.5057,1507.522,,,,0,42,42,42,1,75,10,,,,,,,,
,,650304bf5cec6751f3c6b4c4,65af54ce1502ba3ac8b6198b,2024-01-23_07h56.11.779,bars,2023.2.3,Win32,59.88023952,657b66ea316d21385b68909f,,,,,,,,,,,1507.5223,1508.522,,,1509.0218,1509.2718,,165,165,,,,,,,,,,,,,,,,bars/037.png,bars/mask008.png,,,,,,,,,,,,0,1,,,,,,,0,8,0,8,,,,,,,,,,,1508.5221,1509.0217,1509.2718,1509.2885,space,0.0007,,1509.2885,15,60,1510.2881,1510.2881,1510.2887,,,,0,43,43,43,1,150,105,,,,,,,,
,,650304bf5cec6751f3c6b4c4,65af54ce1502ba3ac8b6198b,2024-01-23_07h56.11.779,bars,2023.2.3,Win32,59.88023952,657b66ea316d21385b68909f,,,,,,,,,,,1510.289,1511.2876,,,1511.7875,1512.0373,,151,151,,,,,,,,,,,,,,,,bars/032.png,bars/mask000.png,,,,,,,,,,,,0,1,,,,,,,0,6,1,5,,,,,,,,,,,1511.2877,1511.7875,1512.0374,1512.854,space,0.8022,,1512.854,26,49,1513.8533,1513.8534,1513.854,,,,0,44,44,44,1,125,20,,,,,,,,
,,650304bf5cec6751f3c6b4c4,65af54ce1502ba3ac8b6198b,2024-01-23_07h56.11.779,bars,2023.2.3,Win32,59.88023952,657b66ea316d21385b68909f,,,,,,,,,,,1513.8544,1514.8531,,,1515.3529,1515.6027,,10,10,,,,,,,,,,,,,,,,bars/035.png,bars/mask003.png,,,,,,,,,,,,1,1,,,,,,,2,4,1,5,,,,,,,,,,,1514.8532,1515.3529,1515.6027,1516.2026,space,0.5963,,1516.2027,15,50,1517.2023,1517.2023,1517.2031,,,,0,45,45,45,1,175,60,,,,,,,,
,,650304bf5cec6751f3c6b4c4,65af54ce1502ba3ac8b6198b,2024-01-23_07h56.11.779,bars,2023.2.3,Win32,59.88023952,657b66ea316d21385b68909f,,,,,,,,,,,1517.2033,1518.2019,,,1518.7018,1518.9516,,129,129,,,,,,,,,,,,,,,,bars/035.png,bars/mask008.png,,,,,,,,,,,,0,1,,,,,,,4,2,3,3,,,,,,,,,,,1518.2019,1518.7018,1518.9516,1519.0185,space,0.0553,,1519.0186,46,69,1520.0179,1520.0179,1520.0185,,,,0,46,46,46,1,175,60,,,,,,,,
,,650304bf5cec6751f3c6b4c4,65af54ce1502ba3ac8b6198b,2024-01-23_07h56.11.779,bars,2023.2.3,Win32,59.88023952,657b66ea316d21385b68909f,,,,,,,,,,,1520.0187,1521.0177,,,1521.5176,1521.7674,,75,75,,,,,,,,,,,,,,,,bars/028.png,bars/mask006.png,,,,,,,,,,,,0,1,,,,,,,6,4,7,4,,,,,,,,,,,1521.0177,1521.5175,1521.7674,1522.8838,space,1.1113,,1522.8838,30,45,1523.8833,1523.8833,1523.8961,,,,0,47,47,47,1,45,120,,,,,,,,
,,650304bf5cec6751f3c6b4c4,65af54ce1502ba3ac8b6198b,2024-01-23_07h56.11.779,bars,2023.2.3,Win32,59.88023952,657b66ea316d21385b68909f,,,,,,,,,,,1523.8962,1524.8998,,,1525.4007,1525.6495,,154,154,,,,,,,,,,,,,,,,bars/029.png,bars/mask009.png,,,,,,,,,,,,0,1,,,,,,,4,2,4,2,,,,,,,,,,,1524.8999,1525.4006,1525.6495,1761.7363,space,236.0768,,1761.7363,64,71,1762.736,1762.736,1762.749,,,,0,48,48,48,1,90,45,,,,,,,,
,,650304bf5cec6751f3c6b4c4,65af54ce1502ba3ac8b6198b,2024-01-23_07h56.11.779,bars,2023.2.3,Win32,59.88023952,657b66ea316d21385b68909f,,,,,,,,,,,1762.7492,1763.7522,,,1764.2521,1764.502,,11,11,,,,,,,,,,,,,,,,bars/015.png,bars/mask008.png,,,,,,,,,,,,0,2,,,,,,,6,4,6,5,,,,,,,,,,,1763.7523,1764.252,1764.5021,1764.7851,space,0.2778,,1764.7852,81,31,1765.7849,1765.785,1765.7881,,,,0,49,49,49,1,110,160,,,,,,,,
,,650304bf5cec6751f3c6b4c4,65af54ce1502ba3ac8b6198b,2024-01-23_07h56.11.779,bars,2023.2.3,Win32,59.88023952,657b66ea316d21385b68909f,,,,,,,,,,,,,,,,,,,,,,,,,,,,,,,,,,,,,,,,,,,,,,,,,,,,,,,,,,,,,,,,,,,,,,,,,,,,,,,,,,,,,,,,,,,,,1765.7883,1842.2864,0,1,1,0,1,sequence_tables/blk048.csv
,,650304bf5cec6751f3c6b4c4,65af54ce1502ba3ac8b6198b,2024-01-23_07h56.11.779,bars,2023.2.3,Win32,59.88023952,657b66ea316d21385b68909f,,,,,,,,,,,1971.0613,1972.0486,,,1972.5485,1972.7983,,81,81,,,,,,,,,,,,,,,,bars/042.png,bars/mask000.png,,,,,,,,,,,,2,2,,,,,,,5,5,5,2,,,,,,1842.3109,1971.0326,space,128.7074,,1972.0487,1972.5485,1972.7983,1973.5481,space,0.7343,,1973.5482,64,6,1974.5479,1974.548,1974.5488,,,,0,0,0,0,1,145,75,,,,,,,,
,,650304bf5cec6751f3c6b4c4,65af54ce1502ba3ac8b6198b,2024-01-23_07h56.11.779,bars,2023.2.3,Win32,59.88023952,657b66ea316d21385b68909f,,,,,,,,,,,1974.5492,1975.5474,,,1976.0473,1976.2972,,14,14,,,,,,,,,,,,,,,,bars/034.png,bars/mask005.png,,,,,,,,,,,,0,2,,,,,,,7,3,8,4,,,,,,,,,,,1975.5474,1976.0472,1976.2972,1977.1303,space,0.8185,,1977.1304,69,51,1978.1299,1978.13,1978.1307,,,,0,1,1,1,1,125,65,,,,,,,,
,,650304bf5cec6751f3c6b4c4,65af54ce1502ba3ac8b6198b,2024-01-23_07h56.11.779,bars,2023.2.3,Win32,59.88023952,657b66ea316d21385b68909f,,,,,,,,,,,1978.1309,1979.1295,,,1979.6294,1979.8792,,38,38,,,,,,,,,,,,,,,,bars/031.png,bars/mask006.png,,,,,,,,,,,,5,2,,,,,,,5,5,4,6,,,,,,,,,,,1979.1295,1979.6294,1979.8793,1980.2792,space,0.3866,,1980.2793,82,3,1981.2789,1981.2789,1981.2798,,,,0,2,2,2,1,120,35,,,,,,,,
,,650304bf5cec6751f3c6b4c4,65af54ce1502ba3ac8b6198b,2024-01-23_07h56.11.779,bars,2023.2.3,Win32,59.88023952,657b66ea316d21385b68909f,,,,,,,,,,,1981.2802,1982.2784,,,1982.7784,1983.0284,,41,41,,,,,,,,,,,,,,,,bars/028.png,bars/mask001.png,,,,,,,,,,,,6,1,,,,,,,7,7,7,7,,,,,,,,,,,1982.2784,1982.7784,1983.0284,1983.7448,space,0.7109,,1983.7449,4,79,1984.7442,1984.7443,1984.7464,,,,0,3,3,3,1,45,120,,,,,,,,
,,650304bf5cec6751f3c6b4c4,65af54ce1502ba3ac8b6198b,2024-01-23_07h56.11.779,bars,2023.2.3,Win32,59.88023952,657b66ea316d21385b68909f,,,,,,,,,,,1984.747,1985.7439,,,1986.2438,1986.4937,,65,65,,,,,,,,,,,,,,,,bars/007.png,bars/mask004.png,,,,,,,,,,,,3,2,,,,,,,5,5,6,4,,,,,,,,,,,1985.7439,1986.2438,1986.4937,1987.3936,space,0.8877,,1987.3937,70,10,1988.3931,1988.3931,1988.3963,,,,0,4,4,4,1,175,55,,,,,,,,
,,650304bf5cec6751f3c6b4c4,65af54ce1502ba3ac8b6198b,2024-01-23_07h56.11.779,bars,2023.2.3,Win32,59.88023952,657b66ea316d21385b68909f,,,,,,,,,,,1988.3965,1989.3927,,,1989.8926,1990.1424,,43,43,,,,,,,,,,,,,,,,bars/012.png,bars/mask009.png,,,,,,,,,,,,1,2,,,,,,,7,7,8,8,,,,,,,,,,,1989.3927,1989.8925,1990.1424,2234.6932,space,244.5453,,2234.6932,47,28,2235.6928,2235.6928,2235.7125,,,,0,5,5,5,1,90,15,,,,,,,,
,,650304bf5cec6751f3c6b4c4,65af54ce1502ba3ac8b6198b,2024-01-23_07h56.11.779,bars,2023.2.3,Win32,59.88023952,657b66ea316d21385b68909f,,,,,,,,,,,2235.7127,2236.7089,,,2237.2091,2237.4588,,48,48,,,,,,,,,,,,,,,,bars/026.png,bars/mask002.png,,,,,,,,,,,,4,1,,,,,,,9,9,7,9,,,,,,,,,,,2236.7089,2237.2091,2237.4588,2237.5091,space,0.0357,,2237.5092,13,37,2238.5084,2238.5086,2238.5137,,,,0,6,6,6,1,35,85,,,,,,,,
,,650304bf5cec6751f3c6b4c4,65af54ce1502ba3ac8b6198b,2024-01-23_07h56.11.779,bars,2023.2.3,Win32,59.88023952,657b66ea316d21385b68909f,,,,,,,,,,,2238.5139,2239.5082,,,2240.0081,2240.258,,45,45,,,,,,,,,,,,,,,,bars/038.png,bars/mask004.png,,,,,,,,,,,,1,2,,,,,,,10,10,10,8,,,,,,,,,,,2239.5083,2240.0081,2240.258,2240.358,space,0.0869,,2240.3581,60,25,2241.3575,2241.3575,2241.3608,,,,0,7,7,7,1,165,70,,,,,,,,
,,650304bf5cec6751f3c6b4c4,65af54ce1502ba3ac8b6198b,2024-01-23_07h56.11.779,bars,2023.2.3,Win32,59.88023952,657b66ea316d21385b68909f,,,,,,,,,,,2241.3612,2242.3572,,,2242.8572,2243.1068,,166,166,,,,,,,,,,,,,,,,bars/032.png,bars/mask007.png,,,,,,,,,,,,0,2,,,,,,,10,10,10,10,,,,,,,,,,,2242.3572,2242.8572,2243.1068,2259.6015,space,16.4884,,2259.6016,41,34,2260.601,2260.601,2260.6184,,,,0,8,8,8,1,125,20,,,,,,,,
,,650304bf5cec6751f3c6b4c4,65af54ce1502ba3ac8b6198b,2024-01-23_07h56.11.779,bars,2023.2.3,Win32,59.88023952,657b66ea316d21385b68909f,,,,,,,,,,,2260.6186,2261.6174,,,2262.1172,2262.3674,,148,148,,,,,,,,,,,,,,,,bars/035.png,bars/mask005.png,,,,,,,,,,,,1,1,,,,,,,8,10,9,10,,,,,,,,,,,2261.6174,2262.1172,2262.3674,2262.5507,space,0.1684,,2262.5508,27,88,2263.5501,2263.5502,2263.5543,,,,0,9,9,9,1,175,60,,,,,,,,
,,650304bf5cec6751f3c6b4c4,65af54ce1502ba3ac8b6198b,2024-01-23_07h56.11.779,bars,2023.2.3,Win32,59.88023952,657b66ea316d21385b68909f,,,,,,,,,,,2263.5548,2264.5497,,,2265.0496,2265.2995,,23,23,,,,,,,,,,,,,,,,bars/026.png,bars/mask002.png,,,,,,,,,,,,4,1,,,,,,,6,8,7,7,,,,,,,,,,,2264.5497,2265.0495,2265.2996,2265.416,space,0.1099,,2265.416,12,62,2266.4156,2266.4157,2266.4162,,,,0,10,10,10,1,35,85,,,,,,,,
,,650304bf5cec6751f3c6b4c4,65af54ce1502ba3ac8b6198b,2024-01-23_07h56.11.779,bars,2023.2.3,Win32,59.88023952,657b66ea316d21385b68909f,,,,,,,,,,,2266.4165,2267.4153,,,2267.9152,2268.1651,,49,49,,,,,,,,,,,,,,,,bars/049.png,bars/mask005.png,,,,,,,,,,,,0,2,,,,,,,4,6,5,5,,,,,,,,,,,2267.4153,2267.9151,2268.1652,2268.1822,space,0.0014,,2268.1822,69,66,2269.1815,2269.1816,2269.1853,,,,0,11,11,11,1,160,115,,,,,,,,
,,650304bf5cec6751f3c6b4c4,65af54ce1502ba3ac8b6198b,2024-01-23_07h56.11.779,bars,2023.2.3,Win32,59.88023952,657b66ea316d21385b68909f,,,,,,,,,,,2269.1858,2270.1811,,,2270.6812,2270.9309,,99,99,,,,,,,,,,,,,,,,bars/025.png,bars/mask004.png,,,,,,,,,,,,5,1,,,,,,,6,4,6,3,,,,,,,,,,,2270.1811,2270.6811,2270.9309,2271.0309,space,0.0843,,2271.0311,6,59,2272.0305,2272.0305,2272.0337,,,,0,12,12,12,1,105,40,,,,,,,,
,,650304bf5cec6751f3c6b4c4,65af54ce1502ba3ac8b6198b,2024-01-23_07h56.11.779,bars,2023.2.3,Win32,59.88023952,657b66ea316d21385b68909f,,,,,,,,,,,2272.0341,2273.0302,,,2273.5301,2273.78,,83,83,,,,,,,,,,,,,,,,bars/004.png,bars/mask003.png,,,,,,,,,,,,0,2,,,,,,,8,6,6,6,,,,,,,,,,,2273.0302,2273.5301,2273.78,2273.9133,space,0.1181,,2273.9134,58,42,2274.913,2274.913,2274.916,,,,0,13,13,13,1,25,125,,,,,,,,
,,650304bf5cec6751f3c6b4c4,65af54ce1502ba3ac8b6198b,2024-01-23_07h56.11.779,bars,2023.2.3,Win32,59.88023952,657b66ea316d21385b68909f,,,,,,,,,,,2274.9163,2275.9124,,,2276.4124,2276.6623,,155,155,,,,,,,,,,,,,,,,bars/042.png,bars/mask003.png,,,,,,,,,,,,3,1,,,,,,,6,4,5,4,,,,,,,,,,,2275.9124,2276.4123,2276.6623,2276.7955,space,0.1264,,2276.7955,10,80,2277.7952,2277.7953,2277.797,,,,0,14,14,14,1,145,75,,,,,,,,
,,650304bf5cec6751f3c6b4c4,65af54ce1502ba3ac8b6198b,2024-01-23_07h56.11.779,bars,2023.2.3,Win32,59.88023952,657b66ea316d21385b68909f,,,,,,,,,,,2277.798,2278.795,,,2279.2947,2279.5446,,90,90,,,,,,,,,,,,,,,,bars/039.png,bars/mask005.png,,,,,,,,,,,,1,2,,,,,,,4,2,3,2,,,,,,,,,,,2278.795,2279.2947,2279.5446,2280.861,space,1.3022,,2280.861,85,15,2281.8605,2281.8605,2281.8636,,,,0,15,15,15,1,175,105,,,,,,,,
,,650304bf5cec6751f3c6b4c4,65af54ce1502ba3ac8b6198b,2024-01-23_07h56.11.779,bars,2023.2.3,Win32,59.88023952,657b66ea316d21385b68909f,,,,,,,,,,,2281.864,2282.8601,,,2283.3601,2283.6099,,135,135,,,,,,,,,,,,,,,,bars/031.png,bars/mask008.png,,,,,,,,,,,,2,1,,,,,,,2,4,3,5,,,,,,,,,,,2282.8601,2283.36,2283.61,2284.0097,space,0.3929,,2284.0098,15,80,2285.0093,2285.0094,2285.012,,,,0,16,16,16,1,120,35,,,,,,,,
,,650304bf5cec6751f3c6b4c4,65af54ce1502ba3ac8b6198b,2024-01-23_07h56.11.779,bars,2023.2.3,Win32,59.88023952,657b66ea316d21385b68909f,,,,,,,,,,,2285.0122,2286.009,,,2286.509,2286.7588,,134,134,,,,,,,,,,,,,,,,bars/019.png,bars/mask009.png,,,,,,,,,,,,0,2,,,,,,,0,2,0,4,,,,,,,,,,,2286.0091,2286.509,2286.7588,2293.8066,space,7.0391,,2293.8067,89,29,2294.8061,2294.8061,2294.8231,,,,0,17,17,17,1,45,105,,,,,,,,
,,650304bf5cec6751f3c6b4c4,65af54ce1502ba3ac8b6198b,2024-01-23_07h56.11.779,bars,2023.2.3,Win32,59.88023952,657b66ea316d21385b68909f,,,,,,,,,,,2294.8233,2295.8225,,,2296.3223,2296.5722,,105,105,,,,,,,,,,,,,,,,bars/042.png,bars/mask003.png,,,,,,,,,,,,0,2,,,,,,,0,0,2,1,,,,,,,,,,,2295.8226,2296.3223,2296.5722,2296.9388,space,0.3603,,2296.9389,40,30,2297.9383,2297.9383,2297.9392,,,,0,18,18,18,1,145,75,,,,,,,,
,,650304bf5cec6751f3c6b4c4,65af54ce1502ba3ac8b6198b,2024-01-23_07h56.11.779,bars,2023.2.3,Win32,59.88023952,657b66ea316d21385b68909f,,,,,,,,,,,2297.9394,2298.9381,,,2299.4381,2299.6878,,138,138,,,,,,,,,,,,,,,,bars/041.png,bars/mask004.png,,,,,,,,,,,,0,2,,,,,,,0,0,1,0,,,,,,,,,,,2298.9382,2299.438,2299.688,2300.0376,space,0.3442,,2300.0377,62,53,2301.0373,2301.0373,2301.0383,,,,0,19,19,19,1,20,85,,,,,,,,
,,650304bf5cec6751f3c6b4c4,65af54ce1502ba3ac8b6198b,2024-01-23_07h56.11.779,bars,2023.2.3,Win32,59.88023952,657b66ea316d21385b68909f,,,,,,,,,,,2301.0385,2302.0371,,,2302.5368,2302.7868,,27,27,,,,,,,,,,,,,,,,bars/041.png,bars/mask008.png,,,,,,,,,,,,2,1,,,,,,,2,2,3,2,,,,,,,,,,,2302.0372,2302.5368,2302.7868,2303.4705,space,0.6737,,2303.4706,7,58,2304.4695,2304.4696,2304.4715,,,,0,20,20,20,1,20,85,,,,,,,,
,,650304bf5cec6751f3c6b4c4,65af54ce1502ba3ac8b6198b,2024-01-23_07h56.11.779,bars,2023.2.3,Win32,59.88023952,657b66ea316d21385b68909f,,,,,,,,,,,2304.4726,2305.4691,,,2305.9691,2306.2188,,63,63,,,,,,,,,,,,,,,,bars/021.png,bars/mask006.png,,,,,,,,,,,,0,2,,,,,,,0,0,0,0,,,,,,,,,,,2305.4691,2305.9691,2306.2188,2306.769,space,0.5335,,2306.7691,88,7,2307.7685,2307.7685,2307.7722,,,,0,21,21,21,1,155,70,,,,,,,,
,,650304bf5cec6751f3c6b4c4,65af54ce1502ba3ac8b6198b,2024-01-23_07h56.11.779,bars,2023.2.3,Win32,59.88023952,657b66ea316d21385b68909f,,,,,,,,,,,2307.7728,2308.7684,,,2309.268,2309.5178,,31,31,,,,,,,,,,,,,,,,bars/015.png,bars/mask009.png,,,,,,,,,,,,0,2,,,,,,,0,2,0,2,,,,,,,,,,,2308.7685,2309.268,2309.5178,2309.8346,space,0.3025,,2309.8346,79,51,2310.8341,2310.8342,2310.8349,,,,0,22,22,22,1,110,160,,,,,,,,
,,650304bf5cec6751f3c6b4c4,65af54ce1502ba3ac8b6198b,2024-01-23_07h56.11.779,bars,2023.2.3,Win32,59.88023952,657b66ea316d21385b68909f,,,,,,,,,,,2310.8351,2311.8338,,,2312.3336,2312.5836,,50,50,,,,,,,,,,,,,,,,bars/005.png,bars/mask007.png,,,,,,,,,,,,0,1,,,,,,,2,4,2,6,,,,,,,,,,,2311.8339,2312.3336,2312.5837,2313.3665,space,0.7717,,2313.3666,40,90,2314.3662,2314.3662,2314.3696,,,,0,23,23,23,1,10,140,,,,,,,,
,,650304bf5cec6751f3c6b4c4,65af54ce1502ba3ac8b6198b,2024-01-23_07h56.11.779,bars,2023.2.3,Win32,59.88023952,657b66ea316d21385b68909f,,,,,,,,,,,2314.3698,2315.3657,,,2315.8657,2316.1158,,164,164,,,,,,,,,,,,,,,,bars/026.png,bars/mask000.png,,,,,,,,,,,,0,1,,,,,,,4,2,5,3,,,,,,,,,,,2315.3658,2315.8657,2316.1158,2319.7146,space,3.5913,,2319.7147,51,79,2320.7141,2320.7141,2320.7317,,,,0,24,24,24,1,35,85,,,,,,,,
,,650304bf5cec6751f3c6b4c4,65af54ce1502ba3ac8b6198b,2024-01-23_07h56.11.779,bars,2023.2.3,Win32,59.88023952,657b66ea316d21385b68909f,,,,,,,,,,,2320.7319,2321.7304,,,2322.2303,2322.4801,,125,125,,,,,,,,,,,,,,,,bars/040.png,bars/mask000.png,,,,,,,,,,,,1,1,,,,,,,2,4,2,4,,,,,,,,,,,2321.7305,2322.2302,2322.4802,2322.6635,space,0.1786,,2322.6635,15,60,2323.6631,2323.6632,2323.6638,,,,0,25,25,25,1,140,5,,,,,,,,
,,650304bf5cec6751f3c6b4c4,65af54ce1502ba3ac8b6198b,2024-01-23_07h56.11.779,bars,2023.2.3,Win32,59.88023952,657b66ea316d21385b68909f,,,,,,,,,,,2323.664,2324.6627,,,2325.1626,2325.4125,,68,68,,,,,,,,,,,,,,,,bars/034.png,bars/mask004.png,,,,,,,,,,,,6,2,,,,,,,0,6,0,7,,,,,,,,,,,2324.6628,2325.1626,2325.4125,2325.6459,space,0.2154,,2325.646,57,3,2326.6453,2326.6453,2326.6485,,,,0,26,26,26,1,125,65,,,,,,,,
,,650304bf5cec6751f3c6b4c4,65af54ce1502ba3ac8b6198b,2024-01-23_07h56.11.779,bars,2023.2.3,Win32,59.88023952,657b66ea316d21385b68909f,,,,,,,,,,,2326.6488,2327.645,,,2328.1449,2328.3948,,32,32,,,,,,,,,,,,,,,,bars/038.png,bars/mask000.png,,,,,,,,,,,,0,2,,,,,,,2,8,2,9,,,,,,,,,,,2327.6451,2328.1449,2328.3948,3333.7743,space,1005.372,,3333.7744,47,38,3334.7738,3334.7739,3334.7867,,,,0,27,27,27,1,165,70,,,,,,,,
,,650304bf5cec6751f3c6b4c4,65af54ce1502ba3ac8b6198b,2024-01-23_07h56.11.779,bars,2023.2.3,Win32,59.88023952,657b66ea316d21385b68909f,,,,,,,,,,,3334.7869,3335.7902,,,3336.29,3336.54,,113,113,,,,,,,,,,,,,,,,bars/004.png,bars/mask006.png,,,,,,,,,,,,3,2,,,,,,,0,6,0,5,,,,,,,,,,,3335.7902,3336.2899,3336.54,3336.6732,space,0.1243,,3336.6732,88,12,3337.6743,3337.6744,3337.6754,,,,0,28,28,28,1,25,125,,,,,,,,
,,650304bf5cec6751f3c6b4c4,65af54ce1502ba3ac8b6198b,2024-01-23_07h56.11.779,bars,2023.2.3,Win32,59.88023952,657b66ea316d21385b68909f,,,,,,,,,,,3337.6759,3338.6729,,,3339.1723,3339.4225,,148,148,,,,,,,,,,,,,,,,bars/018.png,bars/mask008.png,,,,,,,,,,,,0,1,,,,,,,0,4,0,4,,,,,,,,,,,3338.6729,3339.1723,3339.4225,3339.4389,space,0.0096,,3339.4389,2,58,3340.4392,3340.4392,3340.4415,,,,0,29,29,29,1,150,90,,,,,,,,
,,650304bf5cec6751f3c6b4c4,65af54ce1502ba3ac8b6198b,2024-01-23_07h56.11.779,bars,2023.2.3,Win32,59.88023952,657b66ea316d21385b68909f,,,,,,,,,,,3340.4428,3341.4381,,,3341.9382,3342.1879,,92,92,,,,,,,,,,,,,,,,bars/032.png,bars/mask007.png,,,,,,,,,,,,0,1,,,,,,,2,6,2,7,,,,,,,,,,,3341.4381,3341.9381,3342.1879,3342.2547,space,0.0493,,3342.2547,33,72,3343.2543,3343.2543,3343.255,,,,0,30,30,30,1,125,20,,,,,,,,
,,650304bf5cec6751f3c6b4c4,65af54ce1502ba3ac8b6198b,2024-01-23_07h56.11.779,bars,2023.2.3,Win32,59.88023952,657b66ea316d21385b68909f,,,,,,,,,,,3343.2553,3344.254,,,3344.7539,3345.0037,,40,40,,,,,,,,,,,,,,,,bars/031.png,bars/mask002.png,,,,,,,,,,,,3,2,,,,,,,0,4,0,4,,,,,,,,,,,3344.254,3344.7538,3345.0037,3348.6359,space,3.6164,,3348.6359,80,5,3349.6353,3349.6354,3349.649,,,,0,31,31,31,1,120,35,,,,,,,,
,,650304bf5cec6751f3c6b4c4,65af54ce1502ba3ac8b6198b,2024-01-23_07h56.11.779,bars,2023.2.3,Win32,59.88023952,657b66ea316d21385b68909f,,,,,,,,,,,3349.6492,3350.6517,,,3351.1516,3351.4015,,79,79,,,,,,,,,,,,,,,,bars/021.png,bars/mask001.png,,,,,,,,,,,,4,2,,,,,,,2,6,2,5,,,,,,,,,,,3350.6518,3351.1516,3351.4015,3351.4848,space,0.0755,,3351.4848,76,9,3352.4845,3352.4846,3352.4855,,,,0,32,32,32,1,155,70,,,,,,,,
,,650304bf5cec6751f3c6b4c4,65af54ce1502ba3ac8b6198b,2024-01-23_07h56.11.779,bars,2023.2.3,Win32,59.88023952,657b66ea316d21385b68909f,,,,,,,,,,,3352.4859,3353.4841,,,3353.9839,3354.2339,,40,40,,,,,,,,,,,,,,,,bars/009.png,bars/mask001.png,,,,,,,,,,,,1,1,,,,,,,4,4,4,5,,,,,,,,,,,3353.4841,3353.9839,3354.2339,3357.4662,space,3.2175,,3357.4663,25,65,3358.4657,3358.4657,3358.4798,,,,0,33,33,33,1,15,105,,,,,,,,
,,650304bf5cec6751f3c6b4c4,65af54ce1502ba3ac8b6198b,2024-01-23_07h56.11.779,bars,2023.2.3,Win32,59.88023952,657b66ea316d21385b68909f,,,,,,,,,,,3358.4801,3359.4821,,,3359.9819,3360.2318,,110,110,,,,,,,,,,,,,,,,bars/029.png,bars/mask000.png,,,,,,,,,,,,1,1,,,,,,,2,2,2,2,,,,,,,,,,,3359.4821,3359.9819,3360.2319,3378.9423,space,18.6993,,3378.9423,20,65,3379.9418,3379.9418,3379.9612,,,,0,34,34,34,1,90,45,,,,,,,,
,,650304bf5cec6751f3c6b4c4,65af54ce1502ba3ac8b6198b,2024-01-23_07h56.11.779,bars,2023.2.3,Win32,59.88023952,657b66ea316d21385b68909f,,,,,,,,,,,3379.9615,3380.9582,,,3381.4581,3381.7081,,17,17,,,,,,,,,,,,,,,,bars/017.png,bars/mask000.png,,,,,,,,,,,,0,2,,,,,,,0,0,0,0,,,,,,,,,,,3380.9582,3381.4581,3381.7081,3381.958,space,0.2366,,3381.958,52,28,3382.9574,3382.9575,3382.9605,,,,0,35,35,35,1,145,45,,,,,,,,
,,650304bf5cec6751f3c6b4c4,65af54ce1502ba3ac8b6198b,2024-01-23_07h56.11.779,bars,2023.2.3,Win32,59.88023952,657b66ea316d21385b68909f,,,,,,,,,,,3382.9608,3383.9572,,,3384.457,3384.707,,178,178,,,,,,,,,,,,,,,,bars/011.png,bars/mask006.png,,,,,,,,,,,,1,1,,,,,,,2,2,3,2,,,,,,,,,,,3383.9572,3384.457,3384.707,3384.9737,space,0.2603,,3384.9738,18,87,3385.9731,3385.9731,3385.9751,,,,0,36,36,36,1,160,85,,,,,,,,
,,650304bf5cec6751f3c6b4c4,65af54ce1502ba3ac8b6198b,2024-01-23_07h56.11.779,bars,2023.2.3,Win32,59.88023952,657b66ea316d21385b68909f,,,,,,,,,,,3385.9766,3386.9729,,,3387.473,3387.7227,,154,154,,,,,,,,,,,,,,,,bars/018.png,bars/mask000.png,,,,,,,,,,,,3,1,,,,,,,4,0,3,0,,,,,,,,,,,3386.9729,3387.4729,3387.7227,3387.7893,space,0.0558,,3387.7894,4,64,3388.789,3388.789,3388.7898,,,,0,37,37,37,1,150,90,,,,,,,,
,,650304bf5cec6751f3c6b4c4,65af54ce1502ba3ac8b6198b,2024-01-23_07h56.11.779,bars,2023.2.3,Win32,59.88023952,657b66ea316d21385b68909f,,,,,,,,,,,3388.7904,3389.7886,,,3390.2884,3390.5382,,134,134,,,,,,,,,,,,,,,,bars/015.png,bars/mask008.png,,,,,,,,,,,,0,1,,,,,,,2,2,2,3,,,,,,,,,,,3389.7887,3390.2884,3390.5383,3402.1509,space,11.6064,,3402.1509,24,26,3403.1508,3403.1508,3403.1683,,,,0,38,38,38,1,110,160,,,,,,,,
,,650304bf5cec6751f3c6b4c4,65af54ce1502ba3ac8b6198b,2024-01-23_07h56.11.779,bars,2023.2.3,Win32,59.88023952,657b66ea316d21385b68909f,,,,,,,,,,,3403.1685,3404.1669,,,3404.6668,3404.9168,,74,74,,,,,,,,,,,,,,,,bars/025.png,bars/mask001.png,,,,,,,,,,,,0,1,,,,,,,4,4,5,5,,,,,,,,,,,3404.1669,3404.6668,3404.9168,3405.1501,space,0.2211,,3405.1502,31,34,3406.1496,3406.1496,3406.1502,,,,0,39,39,39,1,105,40,,,,,,,,
,,650304bf5cec6751f3c6b4c4,65af54ce1502ba3ac8b6198b,2024-01-23_07h56.11.779,bars,2023.2.3,Win32,59.88023952,657b66ea316d21385b68909f,,,,,,,,,,,3406.1505,3407.1493,,,3407.6492,3407.8991,,36,36,,,,,,,,,,,,,,,,bars/028.png,bars/mask000.png,,,,,,,,,,,,4,1,,,,,,,6,2,6,1,,,,,,,,,,,3407.1494,3407.6492,3407.8992,3408.0157,space,0.1064,,3408.0157,9,84,3409.0154,3409.0155,3409.0164,,,,0,40,40,40,1,45,120,,,,,,,,
,,650304bf5cec6751f3c6b4c4,65af54ce1502ba3ac8b6198b,2024-01-23_07h56.11.779,bars,2023.2.3,Win32,59.88023952,657b66ea316d21385b68909f,,,,,,,,,,,3409.0168,3410.015,,,3410.5149,3410.7647,,151,151,,,,,,,,,,,,,,,,bars/040.png,bars/mask008.png,,,,,,,,,,,,2,1,,,,,,,4,4,3,4,,,,,,,,,,,3410.0151,3410.5148,3410.7648,3410.8984,space,0.1222,,3410.8986,11,34,3411.8978,3411.8978,3411.8984,,,,0,41,41,41,1,140,5,,,,,,,,
,,650304bf5cec6751f3c6b4c4,65af54ce1502ba3ac8b6198b,2024-01-23_07h56.11.779,bars,2023.2.3,Win32,59.88023952,657b66ea316d21385b68909f,,,,,,,,,,,3411.8988,3412.8974,,,3413.3974,3413.6472,,142,142,,,,,,,,,,,,,,,,bars/047.png,bars/mask009.png,,,,,,,,,,,,0,1,,,,,,,6,2,5,1,,,,,,,,,,,3412.8975,3413.3974,3413.6472,3413.8972,space,0.2356,,3413.8972,53,72,3414.8967,3414.8967,3414.8975,,,,0,42,42,42,1,15,70,,,,,,,,
,,650304bf5cec6751f3c6b4c4,65af54ce1502ba3ac8b6198b,2024-01-23_07h56.11.779,bars,2023.2.3,Win32,59.88023952,657b66ea316d21385b68909f,,,,,,,,,,,3414.8977,3415.8963,,,3416.3962,3416.6462,,170,170,,,,,,,,,,,,,,,,bars/035.png,bars/mask004.png,,,,,,,,,,,,7,1,,,,,,,8,0,8,0,,,,,,,,,,,3415.8963,3416.3962,3416.6462,3416.7961,space,0.1373,,3416.7961,5,70,3417.7957,3417.7957,3417.7965,,,,0,43,43,43,1,175,60,,,,,,,,
,,650304bf5cec6751f3c6b4c4,65af54ce1502ba3ac8b6198b,2024-01-23_07h56.11.779,bars,2023.2.3,Win32,59.88023952,657b66ea316d21385b68909f,,,,,,,,,,,3417.7968,3418.7954,,,3419.2953,3419.5451,,135,135,,,,,,,,,,,,,,,,bars/011.png,bars/mask005.png,,,,,,,,,,,,1,1,,,,,,,6,2,7,0,,,,,,,,,,,3418.7955,3419.2953,3419.5452,3419.7119,space,0.1505,,3419.7119,25,50,3420.7115,3420.7115,3420.7121,,,,0,44,44,44,1,160,85,,,,,,,,
,,650304bf5cec6751f3c6b4c4,65af54ce1502ba3ac8b6198b,2024-01-23_07h56.11.779,bars,2023.2.3,Win32,59.88023952,657b66ea316d21385b68909f,,,,,,,,,,,3420.7124,3421.7111,,,3422.211,3422.4609,,139,139,,,,,,,,,,,,,,,,bars/007.png,bars/mask004.png,,,,,,,,,,,,0,1,,,,,,,4,4,5,5,,,,,,,,,,,3421.7112,3422.211,3422.461,3422.4941,space,0.0239,,3422.4941,36,84,3423.4938,3423.4938,3423.4946,,,,0,45,45,45,1,175,55,,,,,,,,
,,650304bf5cec6751f3c6b4c4,65af54ce1502ba3ac8b6198b,2024-01-23_07h56.11.779,bars,2023.2.3,Win32,59.88023952,657b66ea316d21385b68909f,,,,,,,,,,,3423.4949,3424.4935,,,3424.9934,3425.2433,,98,98,,,,,,,,,,,,,,,,bars/014.png,bars/mask004.png,,,,,,,,,,,,3,1,,,,,,,6,6,7,4,,,,,,,,,,,3424.4935,3424.9934,3425.2433,3461.3145,space,36.0619,,3461.3145,18,82,3462.3139,3462.314,3462.3337,,,,0,46,46,46,1,80,0,,,,,,,,
,,650304bf5cec6751f3c6b4c4,65af54ce1502ba3ac8b6198b,2024-01-23_07h56.11.779,bars,2023.2.3,Win32,59.88023952,657b66ea316d21385b68909f,,,,,,,,,,,3462.3339,3463.3304,,,3463.8306,3464.0805,,81,-99,,,,,,,,,,,,,,,,bars/028.png,bars/mask006.png,,,,,,,,,,,,0,1,,,,,,,4,8,3,6,,,,,,,,,,,3463.3304,3463.8305,3464.0805,3471.8609,space,7.7646,,3471.8609,36,39,3472.8604,3472.8605,3472.8806,,,,0,47,47,47,1,45,120,,,,,,,,
,,650304bf5cec6751f3c6b4c4,65af54ce1502ba3ac8b6198b,2024-01-23_07h56.11.779,bars,2023.2.3,Win32,59.88023952,657b66ea316d21385b68909f,,,,,,,,,,,3472.8808,3473.8768,,,3474.377,3474.6268,,57,57,,,,,,,,,,,,,,,,bars/046.png,bars/mask007.png,,,,,,,,,,,,1,2,,,,,,,6,10,7,10,,,,,,,,,,,3473.8769,3474.3769,3474.6268,3482.0241,space,7.3795,,3482.0242,82,28,3483.0236,3483.0237,3483.0433,,,,0,48,48,48,1,155,85,,,,,,,,
,,650304bf5cec6751f3c6b4c4,65af54ce1502ba3ac8b6198b,2024-01-23_07h56.11.779,bars,2023.2.3,Win32,59.88023952,657b66ea316d21385b68909f,,,,,,,,,,,3483.0436,3484.0402,,,3484.5399,3484.79,,77,77,,,,,,,,,,,,,,,,bars/007.png,bars/mask001.png,,,,,,,,,,,,3,2,,,,,,,8,10,8,10,,,,,,,,,,,3484.0403,3484.5398,3484.79,3485.0732,space,0.2653,,3485.0732,82,22,3486.0727,3486.0728,3486.0737,,,,0,49,49,49,1,175,55,,,,,,,,
,,650304bf5cec6751f3c6b4c4,65af54ce1502ba3ac8b6198b,2024-01-23_07h56.11.779,bars,2023.2.3,Win32,59.88023952,657b66ea316d21385b68909f,,,,,,,,,,,,,,,,,,,,,,,,,,,,,,,,,,,,,,,,,,,,,,,,,,,,,,,,,,,,,,,,,,,,,,,,,,,,,,,,,,,,,,,,,,,,,3486.0739,3550.9487,0,2,2,3,1,sequence_tables/blk011.csv
,,650304bf5cec6751f3c6b4c4,65af54ce1502ba3ac8b6198b,2024-01-23_07h56.11.779,bars,2023.2.3,Win32,59.88023952,657b66ea316d21385b68909f,,,,,,,,,,,3552.091,3553.0833,,,3553.5834,3553.8331,,76,76,,,,,,,,,,,,,,,,bars/029.png,bars/mask002.png,,,,,,,,,,,,3,1,,,,,,,2,3,5,3,,,,,,3550.9629,3552.0837,space,1.1094,,3553.0834,3553.5834,3553.8332,3553.8664,space,0.0191,,3553.8665,14,31,3554.866,3554.8661,3554.8695,,,,0,0,0,0,1,90,45,,,,,,,,
,,650304bf5cec6751f3c6b4c4,65af54ce1502ba3ac8b6198b,2024-01-23_07h56.11.779,bars,2023.2.3,Win32,59.88023952,657b66ea316d21385b68909f,,,,,,,,,,,3554.8698,3599.1279,,,3599.1454,3599.1459,,179,-1,,,,,,,,,,,,,,,,bars/023.png,bars/mask009.png,,,,,,,,,,,,1,1,,,,,,,4,1,3,1,,,,,,,,,,,3599.1285,3599.1453,3599.1459,3607.5982,space,8.4466,,3607.5982,21,64,3608.5978,3608.5979,3608.6158,,,,0,1,1,1,1,20,115,,,,,,,,
,,650304bf5cec6751f3c6b4c4,65af54ce1502ba3ac8b6198b,2024-01-23_07h56.11.779,bars,2023.2.3,Win32,59.88023952,657b66ea316d21385b68909f,,,,,,,,,,,3608.6161,3609.6142,,,3610.1143,3610.3644,,90,-90,,,,,,,,,,,,,,,,bars/031.png,bars/mask008.png,,,,,,,,,,,,0,1,,,,,,,6,0,5,0,,,,,,,,,,,3609.6143,3610.1143,3610.3644,3616.8451,space,6.4639,,3616.8452,30,55,3617.8447,3617.8447,3617.8628,,,,0,2,2,2,1,120,35,,,,,,,,
,,650304bf5cec6751f3c6b4c4,65af54ce1502ba3ac8b6198b,2024-01-23_07h56.11.779,bars,2023.2.3,Win32,59.88023952,657b66ea316d21385b68909f,,,,,,,,,,,3617.8629,3618.8612,,,3619.3609,3619.6108,,145,145,,,,,,,,,,,,,,,,bars/028.png,bars/mask008.png,,,,,,,,,,,,0,2,,,,,,,4,2,4,2,,,,,,,,,,,3618.8612,3619.3608,3619.6109,3628.2913,space,8.6724,,3628.2914,80,25,3629.2909,3629.291,3629.3098,,,,0,3,3,3,1,45,120,,,,,,,,
,,650304bf5cec6751f3c6b4c4,65af54ce1502ba3ac8b6198b,2024-01-23_07h56.11.779,bars,2023.2.3,Win32,59.88023952,657b66ea316d21385b68909f,,,,,,,,,,,3629.31,3630.3072,,,3630.8071,3631.0568,,41,41,,,,,,,,,,,,,,,,bars/009.png,bars/mask005.png,,,,,,,,,,,,1,1,,,,,,,6,4,6,4,,,,,,,,,,,3630.3072,3630.8071,3631.0569,3632.8731,space,1.8097,,3632.8731,26,64,3633.8727,3633.8727,3633.8915,,,,0,4,4,4,1,15,105,,,,,,,,
,,650304bf5cec6751f3c6b4c4,65af54ce1502ba3ac8b6198b,2024-01-23_07h56.11.779,bars,2023.2.3,Win32,59.88023952,657b66ea316d21385b68909f,,,,,,,,,,,3633.8919,3634.8891,,,3635.3888,3635.6387,,169,169,,,,,,,,,,,,,,,,bars/014.png,bars/mask001.png,,,,,,,,,,,,1,2,,,,,,,4,2,3,2,,,,,,,,,,,3634.8891,3635.3888,3635.6387,3636.9716,space,1.3296,,3636.9716,89,11,3637.9718,3637.9719,3637.9756,,,,0,5,5,5,1,80,0,,,,,,,,
,,650304bf5cec6751f3c6b4c4,65af54ce1502ba3ac8b6198b,2024-01-23_07h56.11.779,bars,2023.2.3,Win32,59.88023952,657b66ea316d21385b68909f,,,,,,,,,,,3637.976,3638.971,,,3639.4712,3639.721,,3,3,,,,,,,,,,,,,,,,bars/007.png,bars/mask004.png,,,,,,,,,,,,1,1,,,,,,,2,4,2,5,,,,,,,,,,,3638.971,3639.4711,3639.721,3647.7681,space,8.0324,,3647.7681,8,52,3648.7677,3648.7677,3648.7814,,,,0,6,6,6,1,175,55,,,,,,,,
,,650304bf5cec6751f3c6b4c4,65af54ce1502ba3ac8b6198b,2024-01-23_07h56.11.779,bars,2023.2.3,Win32,59.88023952,657b66ea316d21385b68909f,,,,,,,,,,,3648.7816,3649.7839,,,3650.2838,3650.5341,,175,-5,,,,,,,,,,,,,,,,bars/034.png,bars/mask002.png,,,,,,,,,,,,0,1,,,,,,,4,2,5,2,,,,,,,,,,,3649.7839,3650.2837,3650.5341,3661.7301,space,11.1875,,3661.7301,50,70,3662.7296,3662.7296,3662.7482,,,,0,7,7,7,1,125,65,,,,,,,,
,,650304bf5cec6751f3c6b4c4,65af54ce1502ba3ac8b6198b,2024-01-23_07h56.11.779,bars,2023.2.3,Win32,59.88023952,657b66ea316d21385b68909f,,,,,,,,,,,3662.7485,3663.7462,,,3664.2458,3664.4956,,19,19,,,,,,,,,,,,,,,,bars/004.png,bars/mask004.png,,,,,,,,,,,,2,1,,,,,,,2,4,2,6,,,,,,,,,,,3663.7463,3664.2458,3664.4957,3665.6289,space,1.1246,,3665.629,6,74,3666.6281,3666.6282,3666.629,,,,0,8,8,8,1,25,125,,,,,,,,
,,650304bf5cec6751f3c6b4c4,65af54ce1502ba3ac8b6198b,2024-01-23_07h56.11.779,bars,2023.2.3,Win32,59.88023952,657b66ea316d21385b68909f,,,,,,,,,,,3666.6294,3667.628,,,3668.1278,3668.3777,,165,165,,,,,,,,,,,,,,,,bars/040.png,bars/mask005.png,,,,,,,,,,,,1,2,,,,,,,0,2,0,2,,,,,,,,,,,3667.628,3668.1278,3668.3777,3669.0112,space,0.627,,3669.0112,25,20,3670.0105,3670.0106,3670.0125,,,,0,9,9,9,1,140,5,,,,,,,,
,,650304bf5cec6751f3c6b4c4,65af54ce1502ba3ac8b6198b,2024-01-23_07h56.11.779,bars,2023.2.3,Win32,59.88023952,657b66ea316d21385b68909f,,,,,,,,,,,3670.0134,3671.0102,,,4302.7483,4302.77,,139,139,,,,,,,,,,,,,,,,bars/001.png,bars/mask004.png,,,,,,,,,,,,0,1,,,,,,,0,4,0,5,,,,,,,,,,,3671.0102,4302.7483,4302.77,4304.5959,space,1.8105,,4304.596,9,54,4305.5955,4305.5955,4305.5986,,,,0,10,10,10,1,130,85,,,,,,,,
,,650304bf5cec6751f3c6b4c4,65af54ce1502ba3ac8b6198b,2024-01-23_07h56.11.779,bars,2023.2.3,Win32,59.88023952,657b66ea316d21385b68909f,,,,,,,,,,,4305.599,4306.5952,,,4307.0951,4307.345,,100,100,,,,,,,,,,,,,,,,bars/002.png,bars/mask008.png,,,,,,,,,,,,0,2,,,,,,,2,2,1,0,,,,,,,,,,,4306.5952,4307.0951,4307.3451,4307.9615,space,0.5999,,4307.9616,30,15,4308.9614,4308.9614,4308.963,,,,0,11,11,11,1,130,85,,,,,,,,
,,650304bf5cec6751f3c6b4c4,65af54ce1502ba3ac8b6198b,2024-01-23_07h56.11.779,bars,2023.2.3,Win32,59.88023952,657b66ea316d21385b68909f,,,,,,,,,,,4308.9633,4309.9606,,,4310.4609,4310.7105,,108,108,,,,,,,,,,,,,,,,bars/037.png,bars/mask005.png,,,,,,,,,,,,5,2,,,,,,,4,4,5,5,,,,,,,,,,,4309.9607,4310.4608,4310.7105,4337.4848,space,26.7671,,4337.4849,42,3,4338.4846,4338.4846,4338.4957,,,,0,12,12,12,1,150,105,,,,,,,,
,,650304bf5cec6751f3c6b4c4,65af54ce1502ba3ac8b6198b,2024-01-23_07h56.11.779,bars,2023.2.3,Win32,59.88023952,657b66ea316d21385b68909f,,,,,,,,,,,4338.4959,4339.4842,,,4339.9842,4340.2339,,36,36,,,,,,,,,,,,,,,,bars/039.png,bars/mask004.png,,,,,,,,,,,,0,1,,,,,,,2,2,0,3,,,,,,,,,,,4339.4842,4339.9841,4340.2339,4340.3172,space,0.0685,,4340.3172,41,69,4341.3169,4341.3169,4341.32,,,,0,13,13,13,1,175,105,,,,,,,,
,,650304bf5cec6751f3c6b4c4,65af54ce1502ba3ac8b6198b,2024-01-23_07h56.11.779,bars,2023.2.3,Win32,59.88023952,657b66ea316d21385b68909f,,,,,,,,,,,4341.3204,4342.3165,,,4342.8162,4343.0663,,171,171,,,,,,,,,,,,,,,,bars/039.png,bars/mask006.png,,,,,,,,,,,,4,1,,,,,,,4,4,5,4,,,,,,,,,,,4342.3165,4342.8162,4343.0663,4343.3161,space,0.2425,,4343.3161,4,66,4344.3156,4344.3156,4344.316,,,,0,14,14,14,1,175,105,,,,,,,,
,,650304bf5cec6751f3c6b4c4,65af54ce1502ba3ac8b6198b,2024-01-23_07h56.11.779,bars,2023.2.3,Win32,59.88023952,657b66ea316d21385b68909f,,,,,,,,,,,4344.3162,4345.3154,,,4345.8156,4346.0652,,132,132,,,,,,,,,,,,,,,,bars/022.png,bars/mask002.png,,,,,,,,,,,,0,1,,,,,,,2,6,1,7,,,,,,,,,,,4345.3155,4345.8155,4346.0652,4346.1485,space,0.0776,,4346.1485,37,68,4347.148,4347.1481,4347.1486,,,,0,15,15,15,1,95,20,,,,,,,,
,,650304bf5cec6751f3c6b4c4,65af54ce1502ba3ac8b6198b,2024-01-23_07h56.11.779,bars,2023.2.3,Win32,59.88023952,657b66ea316d21385b68909f,,,,,,,,,,,4347.1488,4348.1478,,,4348.6478,4350.7661,,78,78,,,,,,,,,,,,,,,,bars/000.png,bars/mask006.png,,,,,,,,,,,,0,1,,,,,,,4,4,2,5,,,,,,,,,,,4348.1478,4348.6478,4350.7661,4351.0801,space,0.2955,,4351.0801,38,67,4352.0799,4352.0799,4352.0806,,,,0,16,16,16,1,40,145,,,,,,,,
,,650304bf5cec6751f3c6b4c4,65af54ce1502ba3ac8b6198b,2024-01-23_07h56.11.779,bars,2023.2.3,Win32,59.88023952,657b66ea316d21385b68909f,,,,,,,,,,,4352.0809,4353.0796,,,4353.5795,4353.8293,,130,130,,,,,,,,,,,,,,,,bars/032.png,bars/mask005.png,,,,,,,,,,,,4,1,,,,,,,6,2,5,2,,,,,,,,,,,4353.0797,4353.5795,4353.8293,4353.8629,space,0.0178,,4353.8629,5,70,4354.8623,4354.8623,4354.8629,,,,0,17,17,17,1,125,20,,,,,,,,
,,650304bf5cec6751f3c6b4c4,65af54ce1502ba3ac8b6198b,2024-01-23_07h56.11.779,bars,2023.2.3,Win32,59.88023952,657b66ea316d21385b68909f,,,,,,,,,,,4354.8632,4355.862,,,4356.3622,4356.6145,,126,126,,,,,,,,,,,,,,,,bars/012.png,bars/mask009.png,,,,,,,,,,,,0,1,,,,,,,8,4,7,3,,,,,,,,,,,4355.862,4356.3622,4356.6145,4356.6842,space,0.0629,,4356.6843,36,69,4357.678,4357.678,4357.679,,,,0,18,18,18,1,90,15,,,,,,,,
,,650304bf5cec6751f3c6b4c4,65af54ce1502ba3ac8b6198b,2024-01-23_07h56.11.779,bars,2023.2.3,Win32,59.88023952,657b66ea316d21385b68909f,,,,,,,,,,,4357.6794,4358.6777,,,4359.1775,4359.4275,,6,6,,,,,,,,,,,,,,,,bars/027.png,bars/mask003.png,,,,,,,,,,,,0,2,,,,,,,6,2,5,3,,,,,,,,,,,4358.6777,4359.1775,4359.4276,4361.4435,space,2.0061,,4361.4436,76,44,4362.4431,4362.4431,4362.446,,,,0,19,19,19,1,110,50,,,,,,,,
,,650304bf5cec6751f3c6b4c4,65af54ce1502ba3ac8b6198b,2024-01-23_07h56.11.779,bars,2023.2.3,Win32,59.88023952,657b66ea316d21385b68909f,,,,,,,,,,,4362.4464,4363.4427,,,4363.9426,4364.1925,,166,166,,,,,,,,,,,,,,,,bars/039.png,bars/mask004.png,,,,,,,,,,,,6,1,,,,,,,8,4,8,2,,,,,,,,,,,4363.4428,4363.9426,4364.1926,4364.2259,space,0.0173,,4364.2259,9,61,4365.2254,4365.2255,4365.2272,,,,0,20,20,20,1,175,105,,,,,,,,
,,650304bf5cec6751f3c6b4c4,65af54ce1502ba3ac8b6198b,2024-01-23_07h56.11.779,bars,2023.2.3,Win32,59.88023952,657b66ea316d21385b68909f,,,,,,,,,,,4365.2298,4366.2252,,,4366.725,4366.975,,77,77,,,,,,,,,,,,,,,,bars/008.png,bars/mask005.png,,,,,,,,,,,,0,1,,,,,,,6,6,5,6,,,,,,,,,,,4366.2252,4366.725,4366.975,4367.1084,space,0.1211,,4367.1085,33,77,4368.1077,4368.1078,4368.1086,,,,0,21,21,21,1,110,0,,,,,,,,
,,650304bf5cec6751f3c6b4c4,65af54ce1502ba3ac8b6198b,2024-01-23_07h56.11.779,bars,2023.2.3,Win32,59.88023952,657b66ea316d21385b68909f,,,,,,,,,,,4368.1105,4369.1076,,,4369.6073,4369.8575,,146,146,,,,,,,,,,,,,,,,bars/000.png,bars/mask001.png,,,,,,,,,,,,4,2,,,,,,,8,4,9,4,,,,,,,,,,,4369.1076,4369.6073,4369.8575,4369.9572,space,0.0823,,4369.9574,74,1,4370.9569,4370.9569,4370.9601,,,,0,22,22,22,1,40,145,,,,,,,,
,,650304bf5cec6751f3c6b4c4,65af54ce1502ba3ac8b6198b,2024-01-23_07h56.11.779,bars,2023.2.3,Win32,59.88023952,657b66ea316d21385b68909f,,,,,,,,,,,4370.9604,4371.9565,,,4372.4566,4372.7066,,3,3,,,,,,,,,,,,,,,,bars/028.png,bars/mask002.png,,,,,,,,,,,,0,1,,,,,,,10,2,10,2,,,,,,,,,,,4371.9566,4372.4566,4372.7067,4372.7234,space,0.0009,,4372.7235,42,63,4373.7226,4373.7227,4373.7259,,,,0,23,23,23,1,45,120,,,,,,,,
,,650304bf5cec6751f3c6b4c4,65af54ce1502ba3ac8b6198b,2024-01-23_07h56.11.779,bars,2023.2.3,Win32,59.88023952,657b66ea316d21385b68909f,,,,,,,,,,,4373.7263,4374.7223,,,4375.2222,4375.472,,129,129,,,,,,,,,,,,,,,,bars/020.png,bars/mask009.png,,,,,,,,,,,,5,1,,,,,,,10,4,10,6,,,,,,,,,,,4374.7224,4375.2222,4375.472,4377.7881,space,2.3005,,4377.7882,14,41,4378.7878,4378.7878,4378.8027,,,,0,24,24,24,1,115,170,,,,,,,,
,,650304bf5cec6751f3c6b4c4,65af54ce1502ba3ac8b6198b,2024-01-23_07h56.11.779,bars,2023.2.3,Win32,59.88023952,657b66ea316d21385b68909f,,,,,,,,,,,4378.8029,4379.804,,,4380.3038,4380.5539,,83,83,,,,,,,,,,,,,,,,bars/007.png,bars/mask009.png,,,,,,,,,,,,0,2,,,,,,,10,6,9,7,,,,,,,,,,,4379.804,4380.3038,4380.5539,4380.6871,space,0.1168,,4380.6872,88,28,4381.6866,4381.6867,4381.6899,,,,0,25,25,25,1,175,55,,,,,,,,
,,650304bf5cec6751f3c6b4c4,65af54ce1502ba3ac8b6198b,2024-01-23_07h56.11.779,bars,2023.2.3,Win32,59.88023952,657b66ea316d21385b68909f,,,,,,,,,,,4381.6903,4382.6862,,,4383.186,4383.4359,,147,147,,,,,,,,,,,,,,,,bars/035.png,bars/mask005.png,,,,,,,,,,,,1,1,,,,,,,10,8,10,8,,,,,,,,,,,4382.6863,4383.186,4383.4359,4383.4528,space,0.0069,,4383.4529,28,87,4384.4523,4384.4523,4384.4548,,,,0,26,26,26,1,175,60,,,,,,,,
,,650304bf5cec6751f3c6b4c4,65af54ce1502ba3ac8b6198b,2024-01-23_07h56.11.779,bars,2023.2.3,Win32,59.88023952,657b66ea316d21385b68909f,,,,,,,,,,,4384.457,4385.4519,,,4385.9519,4386.2017,,166,166,,,,,,,,,,,,,,,,bars/037.png,bars/mask008.png,,,,,,,,,,,,5,1,,,,,,,10,10,10,10,,,,,,,,,,,4385.4519,4385.9518,4386.2017,4386.3687,space,0.1589,,4386.3687,16,61,4387.3681,4387.3682,4387.369,,,,0,27,27,27,1,150,105,,,,,,,,
,,650304bf5cec6751f3c6b4c4,65af54ce1502ba3ac8b6198b,2024-01-23_07h56.11.779,bars,2023.2.3,Win32,59.88023952,657b66ea316d21385b68909f,,,,,,,,,,,4387.3694,4388.3676,,,4388.8675,4389.1174,,5,5,,,,,,,,,,,,,,,,bars/027.png,bars/mask009.png,,,,,,,,,,,,0,2,,,,,,,10,8,10,8,,,,,,,,,,,4388.3676,4388.8674,4389.1174,4389.1508,space,0.0287,,4389.1509,75,45,4390.1503,4390.1503,4390.1532,,,,0,28,28,28,1,110,50,,,,,,,,
,,650304bf5cec6751f3c6b4c4,65af54ce1502ba3ac8b6198b,2024-01-23_07h56.11.779,bars,2023.2.3,Win32,59.88023952,657b66ea316d21385b68909f,,,,,,,,,,,4390.1536,4391.15,,,4391.65,4391.8998,,139,139,,,,,,,,,,,,,,,,bars/034.png,bars/mask000.png,,,,,,,,,,,,4,1,,,,,,,8,10,8,10,,,,,,,,,,,4391.15,4391.6499,4391.8998,4392.0665,space,0.1491,,4392.0665,14,74,4393.0661,4393.0662,4393.0696,,,,0,29,29,29,1,125,65,,,,,,,,
,,650304bf5cec6751f3c6b4c4,65af54ce1502ba3ac8b6198b,2024-01-23_07h56.11.779,bars,2023.2.3,Win32,59.88023952,657b66ea316d21385b68909f,,,,,,,,,,,4393.07,4394.0657,,,4394.5656,4394.8155,,78,78,,,,,,,,,,,,,,,,bars/025.png,bars/mask007.png,,,,,,,,,,,,1,1,,,,,,,6,10,7,10,,,,,,,,,,,4394.0657,4394.5656,4394.8156,4394.849,space,0.0174,,4394.849,27,38,4395.8485,4395.8485,4395.8494,,,,0,30,30,30,1,105,40,,,,,,,,
,,650304bf5cec6751f3c6b4c4,65af54ce1502ba3ac8b6198b,2024-01-23_07h56.11.779,bars,2023.2.3,Win32,59.88023952,657b66ea316d21385b68909f,,,,,,,,,,,4395.8497,4396.8481,,,4397.3479,4397.5978,,122,122,,,,,,,,,,,,,,,,bars/011.png,bars/mask009.png,,,,,,,,,,,,0,2,,,,,,,4,10,3,10,,,,,,,,,,,4396.8481,4397.3479,4397.5978,4397.6979,space,0.0929,,4397.698,38,37,4398.6975,4398.6975,4398.7005,,,,0,31,31,31,1,160,85,,,,,,,,
,,650304bf5cec6751f3c6b4c4,65af54ce1502ba3ac8b6198b,2024-01-23_07h56.11.779,bars,2023.2.3,Win32,59.88023952,657b66ea316d21385b68909f,,,,,,,,,,,4398.7011,4399.6971,,,4400.197,4400.4469,,24,24,,,,,,,,,,,,,,,,bars/004.png,bars/mask006.png,,,,,,,,,,,,7,1,,,,,,,6,10,7,10,,,,,,,,,,,4399.6972,4400.197,4400.4469,4400.5803,space,0.1186,,4400.5803,1,79,4401.5798,4401.5798,4401.5829,,,,0,32,32,32,1,25,125,,,,,,,,
,,650304bf5cec6751f3c6b4c4,65af54ce1502ba3ac8b6198b,2024-01-23_07h56.11.779,bars,2023.2.3,Win32,59.88023952,657b66ea316d21385b68909f,,,,,,,,,,,4401.5832,4402.5795,,,4403.0794,4403.3293,,164,164,,,,,,,,,,,,,,,,bars/039.png,bars/mask003.png,,,,,,,,,,,,2,1,,,,,,,4,10,3,9,,,,,,,,,,,4402.5795,4403.0794,4403.3293,4403.4629,space,0.117,,4403.4629,11,59,4404.4621,4404.4622,4404.4628,,,,0,33,33,33,1,175,105,,,,,,,,
,,650304bf5cec6751f3c6b4c4,65af54ce1502ba3ac8b6198b,2024-01-23_07h56.11.779,bars,2023.2.3,Win32,59.88023952,657b66ea316d21385b68909f,,,,,,,,,,,4404.4631,4405.4619,,,4405.9618,4406.2116,,125,125,,,,,,,,,,,,,,,,bars/036.png,bars/mask000.png,,,,,,,,,,,,3,1,,,,,,,6,8,8,8,,,,,,,,,,,4405.462,4405.9617,4406.2116,4406.4784,space,0.2519,,4406.4785,20,75,4407.4778,4407.4779,4407.4789,,,,0,34,34,34,1,145,20,,,,,,,,
,,650304bf5cec6751f3c6b4c4,65af54ce1502ba3ac8b6198b,2024-01-23_07h56.11.779,bars,2023.2.3,Win32,59.88023952,657b66ea316d21385b68909f,,,,,,,,,,,4407.4791,4408.4776,,,4408.9775,4409.2272,,95,95,,,,,,,,,,,,,,,,bars/026.png,bars/mask004.png,,,,,,,,,,,,4,2,,,,,,,4,6,4,6,,,,,,,,,,,4408.4777,4408.9775,4409.2272,4409.3613,space,0.116,,4409.3613,60,10,4410.3601,4410.3601,4410.3617,,,,0,35,35,35,1,35,85,,,,,,,,
,,650304bf5cec6751f3c6b4c4,65af54ce1502ba3ac8b6198b,2024-01-23_07h56.11.779,bars,2023.2.3,Win32,59.88023952,657b66ea316d21385b68909f,,,,,,,,,,,4410.3623,4411.3599,,,4411.8597,4412.1095,,55,55,,,,,,,,,,,,,,,,bars/003.png,bars/mask003.png,,,,,,,,,,,,0,1,,,,,,,2,4,1,4,,,,,,,,,,,4411.3599,4411.8597,4412.1096,4412.2769,space,0.1641,,4412.2769,30,85,4413.2759,4413.2759,4413.2776,,,,0,36,36,36,1,25,140,,,,,,,,
,,650304bf5cec6751f3c6b4c4,65af54ce1502ba3ac8b6198b,2024-01-23_07h56.11.779,bars,2023.2.3,Win32,59.88023952,657b66ea316d21385b68909f,,,,,,,,,,,4413.2789,4414.2757,,,4414.7755,4415.0255,,132,132,,,,,,,,,,,,,,,,bars/041.png,bars/mask003.png,,,,,,,,,,,,0,2,,,,,,,0,2,1,0,,,,,,,,,,,4414.2757,4414.7754,4415.0256,4415.142,space,0.1107,,4415.142,68,47,4416.1415,4416.1416,4416.1444,,,,0,37,37,37,1,20,85,,,,,,,,
,,650304bf5cec6751f3c6b4c4,65af54ce1502ba3ac8b6198b,2024-01-23_07h56.11.779,bars,2023.2.3,Win32,59.88023952,657b66ea316d21385b68909f,,,,,,,,,,,4416.145,4417.1412,,,4417.6412,4417.891,,5,5,,,,,,,,,,,,,,,,bars/041.png,bars/mask005.png,,,,,,,,,,,,1,1,,,,,,,2,0,2,1,,,,,,,,,,,4417.1412,4417.6411,4417.891,4418.0578,space,0.1529,,4418.0578,15,80,4419.0574,4419.0574,4419.0591,,,,0,38,38,38,1,20,85,,,,,,,,
,,650304bf5cec6751f3c6b4c4,65af54ce1502ba3ac8b6198b,2024-01-23_07h56.11.779,bars,2023.2.3,Win32,59.88023952,657b66ea316d21385b68909f,,,,,,,,,,,4419.0601,4420.057,,,4420.5568,4420.8067,,86,86,,,,,,,,,,,,,,,,bars/032.png,bars/mask007.png,,,,,,,,,,,,0,1,,,,,,,4,2,5,2,,,,,,,,,,,4420.057,4420.5568,4420.8067,4420.9234,space,0.1074,,4420.9234,39,66,4421.9231,4421.9231,4421.9241,,,,0,39,39,39,1,125,20,,,,,,,,
,,650304bf5cec6751f3c6b4c4,65af54ce1502ba3ac8b6198b,2024-01-23_07h56.11.779,bars,2023.2.3,Win32,59.88023952,657b66ea316d21385b68909f,,,,,,,,,,,4421.9245,4422.9227,,,4423.4225,4423.6725,,42,42,,,,,,,,,,,,,,,,bars/001.png,bars/mask000.png,,,,,,,,,,,,0,2,,,,,,,6,0,7,1,,,,,,,,,,,4422.9227,4423.4225,4423.6725,4424.0057,space,0.3162,,4424.0058,88,43,4425.0053,4425.0053,4425.0082,,,,0,40,40,40,1,130,85,,,,,,,,
,,650304bf5cec6751f3c6b4c4,65af54ce1502ba3ac8b6198b,2024-01-23_07h56.11.779,bars,2023.2.3,Win32,59.88023952,657b66ea316d21385b68909f,,,,,,,,,,,4425.0092,4426.0049,,,4426.5048,4426.7547,,114,114,,,,,,,,,,,,,,,,bars/020.png,bars/mask007.png,,,,,,,,,,,,4,1,,,,,,,4,2,4,2,,,,,,,,,,,4426.005,4426.5048,4426.7547,4426.8715,space,0.1117,,4426.8716,1,56,4427.8709,4427.871,4427.8731,,,,0,41,41,41,1,115,170,,,,,,,,
,,650304bf5cec6751f3c6b4c4,65af54ce1502ba3ac8b6198b,2024-01-23_07h56.11.779,bars,2023.2.3,Win32,59.88023952,657b66ea316d21385b68909f,,,,,,,,,,,4427.8741,4428.8706,,,4429.3709,4429.6205,,126,126,,,,,,,,,,,,,,,,bars/028.png,bars/mask003.png,,,,,,,,,,,,2,2,,,,,,,2,4,1,3,,,,,,,,,,,4428.8707,4429.3709,4429.6206,4429.6706,space,0.034,,4429.6706,81,6,4430.6701,4430.6701,4430.6729,,,,0,42,42,42,1,45,120,,,,,,,,
,,650304bf5cec6751f3c6b4c4,65af54ce1502ba3ac8b6198b,2024-01-23_07h56.11.779,bars,2023.2.3,Win32,59.88023952,657b66ea316d21385b68909f,,,,,,,,,,,4430.6733,4431.6698,,,4432.1696,4432.4194,,66,66,,,,,,,,,,,,,,,,bars/049.png,bars/mask000.png,,,,,,,,,,,,0,2,,,,,,,0,2,1,1,,,,,,,,,,,4431.6698,4432.1695,4432.4195,4432.7362,space,0.3008,,4432.7363,86,49,4433.7357,4433.7357,4433.7366,,,,0,43,43,43,1,160,115,,,,,,,,
,,650304bf5cec6751f3c6b4c4,65af54ce1502ba3ac8b6198b,2024-01-23_07h56.11.779,bars,2023.2.3,Win32,59.88023952,657b66ea316d21385b68909f,,,,,,,,,,,4433.7369,4434.7354,,,4435.2352,4435.485,,29,29,,,,,,,,,,,,,,,,bars/015.png,bars/mask000.png,,,,,,,,,,,,0,2,,,,,,,0,4,0,4,,,,,,,,,,,4434.7354,4435.2352,4435.485,4435.5851,space,0.0841,,4435.5851,81,49,4436.585,4436.585,4436.5858,,,,0,44,44,44,1,110,160,,,,,,,,
,,650304bf5cec6751f3c6b4c4,65af54ce1502ba3ac8b6198b,2024-01-23_07h56.11.779,bars,2023.2.3,Win32,59.88023952,657b66ea316d21385b68909f,,,,,,,,,,,4436.5861,4437.5843,,,4438.0843,4438.3341,,148,148,,,,,,,,,,,,,,,,bars/014.png,bars/mask006.png,,,,,,,,,,,,0,2,,,,,,,0,6,0,9,,,,,,,,,,,4437.5843,4438.0842,4438.3341,4438.5174,space,0.1739,,4438.5175,68,32,4439.5178,4439.5178,4439.5187,,,,0,45,45,45,1,80,0,,,,,,,,
,,650304bf5cec6751f3c6b4c4,65af54ce1502ba3ac8b6198b,2024-01-23_07h56.11.779,bars,2023.2.3,Win32,59.88023952,657b66ea316d21385b68909f,,,,,,,,,,,4439.519,4440.5166,,,4441.0167,4441.2665,,130,130,,,,,,,,,,,,,,,,bars/024.png,bars/mask004.png,,,,,,,,,,,,1,1,,,,,,,2,4,2,3,,,,,,,,,,,4440.5167,4441.0167,4441.2666,4441.8163,space,0.5375,,4441.8164,10,40,4442.8158,4442.8159,4442.8188,,,,0,46,46,46,1,120,170,,,,,,,,
,,650304bf5cec6751f3c6b4c4,65af54ce1502ba3ac8b6198b,2024-01-23_07h56.11.779,bars,2023.2.3,Win32,59.88023952,657b66ea316d21385b68909f,,,,,,,,,,,4442.8191,4443.8157,,,4444.3155,4444.5653,,117,117,,,,,,,,,,,,,,,,bars/047.png,bars/mask002.png,,,,,,,,,,,,0,2,,,,,,,0,2,1,2,,,,,,,,,,,4443.8157,4444.3155,4444.5654,4444.6988,space,0.1243,,4444.6988,78,47,4445.6984,4445.6985,4445.7002,,,,0,47,47,47,1,15,70,,,,,,,,
,,650304bf5cec6751f3c6b4c4,65af54ce1502ba3ac8b6198b,2024-01-23_07h56.11.779,bars,2023.2.3,Win32,59.88023952,657b66ea316d21385b68909f,,,,,,,,,,,4445.7014,4446.698,,,4447.1979,4447.4478,,173,173,,,,,,,,,,,,,,,,bars/000.png,bars/mask006.png,,,,,,,,,,,,0,2,,,,,,,0,4,2,5,,,,,,,,,,,4446.698,4447.1979,4447.4479,4447.581,space,0.1219,,4447.581,47,28,4448.5806,4448.5807,4448.5814,,,,0,48,48,48,1,40,145,,,,,,,,
,,650304bf5cec6751f3c6b4c4,65af54ce1502ba3ac8b6198b,2024-01-23_07h56.11.779,bars,2023.2.3,Win32,59.88023952,657b66ea316d21385b68909f,,,,,,,,,,,4448.5816,4449.5803,,,4450.0801,4450.3301,,73,73,,,,,,,,,,,,,,,,bars/025.png,bars/mask008.png,,,,,,,,,,,,0,1,,,,,,,2,2,1,3,,,,,,,,,,,4449.5803,4450.0801,4450.3302,4451.0299,space,0.6928,,4451.03,32,33,4452.0295,4452.0295,4452.033,,,,0,49,49,49,1,105,40,,,,,,,,
,,650304bf5cec6751f3c6b4c4,65af54ce1502ba3ac8b6198b,2024-01-23_07h56.11.779,bars,2023.2.3,Win32,59.88023952,657b66ea316d21385b68909f,,,,,,,,,,,,,,,,,,,,,,,,,,,,,,,,,,,,,,,,,,,,,,,,,,,,,,,,,,,,,,,,,,,,,,,,,,,,,,,,,,,,,,,,,,,,,4452.0332,4512.026,0,3,3,4,1,sequence_tables/blk016.csv
,,650304bf5cec6751f3c6b4c4,65af54ce1502ba3ac8b6198b,2024-01-23_07h56.11.779,bars,2023.2.3,Win32,59.88023952,657b66ea316d21385b68909f,,,,,,,,,,,4529.752,4530.7529,,,4531.2528,4531.5028,,168,168,,,,,,,,,,,,,,,,bars/004.png,bars/mask002.png,,,,,,,,,,,,0,1,,,,,,,8,4,8,5,,,,,,4512.0411,4529.7365,space,17.6904,,4530.7529,4531.2528,4531.5028,4531.7029,space,0.1913,,4531.703,37,43,4532.7021,4532.7021,4532.7027,,,,0,0,0,0,1,25,125,,,,,,,,
,,650304bf5cec6751f3c6b4c4,65af54ce1502ba3ac8b6198b,2024-01-23_07h56.11.779,bars,2023.2.3,Win32,59.88023952,657b66ea316d21385b68909f,,,,,,,,,,,4532.703,4533.7019,,,4534.2017,4534.4519,,56,56,,,,,,,,,,,,,,,,bars/013.png,bars/mask008.png,,,,,,,,,,,,4,1,,,,,,,10,6,10,8,,,,,,,,,,,4533.7019,4534.2017,4534.452,4534.6017,space,0.139,,4534.6017,19,46,4535.6011,4535.6012,4535.6019,,,,0,1,1,1,1,75,10,,,,,,,,
,,650304bf5cec6751f3c6b4c4,65af54ce1502ba3ac8b6198b,2024-01-23_07h56.11.779,bars,2023.2.3,Win32,59.88023952,657b66ea316d21385b68909f,,,,,,,,,,,4535.6023,4536.6009,,,4537.1008,4537.3508,,44,44,,,,,,,,,,,,,,,,bars/015.png,bars/mask009.png,,,,,,,,,,,,0,2,,,,,,,10,4,10,5,,,,,,,,,,,4536.6009,4537.1008,4537.3508,4537.4007,space,0.0339,,4537.4008,66,64,4538.4003,4538.4003,4538.4034,,,,0,2,2,2,1,110,160,,,,,,,,
,,650304bf5cec6751f3c6b4c4,65af54ce1502ba3ac8b6198b,2024-01-23_07h56.11.779,bars,2023.2.3,Win32,59.88023952,657b66ea316d21385b68909f,,,,,,,,,,,4538.4039,4539.3999,,,4539.8999,4540.1497,,76,76,,,,,,,,,,,,,,,,bars/024.png,bars/mask001.png,,,,,,,,,,,,0,1,,,,,,,8,6,8,5,,,,,,,,,,,4539.4,4539.8999,4540.1498,4540.4496,space,0.2963,,4540.4496,44,86,4541.4493,4541.4493,4541.4525,,,,0,3,3,3,1,120,170,,,,,,,,
,,650304bf5cec6751f3c6b4c4,65af54ce1502ba3ac8b6198b,2024-01-23_07h56.11.779,bars,2023.2.3,Win32,59.88023952,657b66ea316d21385b68909f,,,,,,,,,,,4541.4527,4542.4488,,,4542.9487,4543.1986,,36,36,,,,,,,,,,,,,,,,bars/002.png,bars/mask003.png,,,,,,,,,,,,0,2,,,,,,,10,8,10,9,,,,,,,,,,,4542.4488,4542.9487,4543.1986,4543.6487,space,0.4371,,4543.6487,86,49,4544.6482,4544.6482,4544.651,,,,0,4,4,4,1,130,85,,,,,,,,
,,650304bf5cec6751f3c6b4c4,65af54ce1502ba3ac8b6198b,2024-01-23_07h56.11.779,bars,2023.2.3,Win32,59.88023952,657b66ea316d21385b68909f,,,,,,,,,,,4544.6514,4545.6478,,,4546.1477,4546.3976,,46,46,,,,,,,,,,,,,,,,bars/025.png,bars/mask005.png,,,,,,,,,,,,8,2,,,,,,,8,10,8,10,,,,,,,,,,,4545.6478,4546.1477,4546.3976,4546.5311,space,0.1235,,4546.5311,59,6,4547.5304,4547.5305,4547.5312,,,,0,5,5,5,1,105,40,,,,,,,,
,,650304bf5cec6751f3c6b4c4,65af54ce1502ba3ac8b6198b,2024-01-23_07h56.11.779,bars,2023.2.3,Win32,59.88023952,657b66ea316d21385b68909f,,,,,,,,,,,4547.5315,4548.5302,,,4549.03,4549.2799,,103,103,,,,,,,,,,,,,,,,bars/007.png,bars/mask002.png,,,,,,,,,,,,0,2,,,,,,,10,10,10,10,,,,,,,,,,,4548.5302,4549.03,4549.28,4549.2968,space,0.0139,,4549.2969,72,48,4550.2963,4550.2963,4550.297,,,,0,6,6,6,1,175,55,,,,,,,,
,,650304bf5cec6751f3c6b4c4,65af54ce1502ba3ac8b6198b,2024-01-23_07h56.11.779,bars,2023.2.3,Win32,59.88023952,657b66ea316d21385b68909f,,,,,,,,,,,4550.2973,4551.2959,,,4551.7958,4552.0457,,86,86,,,,,,,,,,,,,,,,bars/016.png,bars/mask007.png,,,,,,,,,,,,0,1,,,,,,,8,10,7,10,,,,,,,,,,,4551.2959,4551.7957,4552.0457,4552.7287,space,0.6758,,4552.7288,46,79,4553.7286,4553.7286,4553.7321,,,,0,7,7,7,1,40,165,,,,,,,,
,,650304bf5cec6751f3c6b4c4,65af54ce1502ba3ac8b6198b,2024-01-23_07h56.11.779,bars,2023.2.3,Win32,59.88023952,657b66ea316d21385b68909f,,,,,,,,,,,4553.7324,4554.7281,,,4555.2279,4555.4779,,64,64,,,,,,,,,,,,,,,,bars/018.png,bars/mask008.png,,,,,,,,,,,,1,2,,,,,,,6,10,6,10,,,,,,,,,,,4554.7281,4555.2279,4555.4779,4555.4945,space,0.0008,,4555.4946,86,26,4556.4941,4556.4942,4556.4965,,,,0,8,8,8,1,150,90,,,,,,,,
,,650304bf5cec6751f3c6b4c4,65af54ce1502ba3ac8b6198b,2024-01-23_07h56.11.779,bars,2023.2.3,Win32,59.88023952,657b66ea316d21385b68909f,,,,,,,,,,,4556.4971,4557.4937,,,4557.9938,4558.2435,,158,158,,,,,,,,,,,,,,,,bars/019.png,bars/mask003.png,,,,,,,,,,,,0,2,,,,,,,8,8,8,8,,,,,,,,,,,4557.4938,4557.9937,4558.2435,4558.3935,space,0.1428,,4558.3935,67,53,4559.3931,4559.3932,4559.3937,,,,0,9,9,9,1,45,105,,,,,,,,
,,650304bf5cec6751f3c6b4c4,65af54ce1502ba3ac8b6198b,2024-01-23_07h56.11.779,bars,2023.2.3,Win32,59.88023952,657b66ea316d21385b68909f,,,,,,,,,,,4559.394,4560.3928,,,4560.8928,4561.1425,,26,26,,,,,,,,,,,,,,,,bars/024.png,bars/mask000.png,,,,,,,,,,,,0,2,,,,,,,6,10,4,10,,,,,,,,,,,4560.3929,4560.8928,4561.1425,4561.4759,space,0.3208,,4561.4759,86,36,4562.4756,4562.4757,4562.4766,,,,0,10,10,10,1,120,170,,,,,,,,
