init_variables.started,init_variables.stopped,participant,session,date,expName,psychopyVersion,OS,frameRate,study_id,instruction_exp.started,instruction_exp.stopped,key_resp_8.keys,key_resp_8.rt,key_resp_8.duration,instruction_single.started,instruction_single.stopped,key_resp_2.keys,key_resp_2.rt,key_resp_2.duration,interval.started,interval.stopped,cue_single.started,cue_single.stopped,mask.started,mask.stopped,ori_response_single.started,res_ori,res,ori_response_single.stopped,key_resp_single.keys,key_resp_single.rt,key_resp_single.duration,disp_single.started,disp_single.stopped,key_resp.keys,key_resp.rt,key_resp.duration,single.thisRepN,single.thisTrialN,single.thisN,single.thisIndex,single.ran,ori,path,mask_path,instruction_bandit.started,instruction_bandit.stopped,key_resp_6.keys,key_resp_6.rt,key_resp_6.duration,cue_bandit.started,cue_bandit.stopped,bandit_res.keys,bandit_res.rt,bandit_res.duration,outcome_bandit.started,rew,action,outcome_bandit.stopped,bandit.thisRepN,bandit.thisTrialN,bandit.thisN,bandit.thisIndex,bandit.ran,actual_rew1,actual_rew2,rew1,rew2,instruction_task.started,instruction_task.stopped,key_resp_7.keys,key_resp_7.rt,key_resp_7.duration,wait_ready.started,wait_ready.stopped,key_resp_3.keys,key_resp_3.rt,key_resp_3.duration,cue.started,cue.stopped,ori_response.started,ori_response.stopped,key_resp_5.keys,key_resp_5.rt,key_resp_5.duration,outcome.started,diff1,diff2,outcome.stopped,disp_outcome_practice.started,disp_outcome_practice.stopped,key_resp_4.keys,key_resp_4.rt,key_resp_4.duration,trials.thisRepN,trials.thisTrialN,trials.thisN,trials.thisIndex,trials.ran,ori1,ori2,break_blk.started,break_blk.stopped,block.thisRepN,block.thisTrialN,block.thisN,block.thisIndex,block.ran,condition_file
0.0008,0.0012,614054695c372ace29c2e386,65af5568a4d6aa58b7daa6da,2024-01-23_08h52.18.510,bars,2023.2.3,Win32,63.69426752,657b66ea316d21385b68909f,,,,,,,,,,,,,,,,,,,,,,,,,,,,,,,,,,,,,,,,,,,,,,,,,,,,,,,,,,,,,,,,,,,,,,,,,,,,,,,,,,,,,,,,,,,,,,,,,,,,
,,614054695c372ace29c2e386,65af5568a4d6aa58b7daa6da,2024-01-23_08h52.18.510,bars,2023.2.3,Win32,63.69426752,657b66ea316d21385b68909f,0.002,96.6251,y,96.5846,,,,,,,,,,,,,,,,,,,,,,,,,,,,,,,,,,,,,,,,,,,,,,,,,,,,,,,,,,,,,,,,,,,,,,,,,,,,,,,,,,,,,,,,,,,,,,,,
,,614054695c372ace29c2e386,65af5568a4d6aa58b7daa6da,2024-01-23_08h52.18.510,bars,2023.2.3,Win32,63.69426752,657b66ea316d21385b68909f,,,,,,96.6256,119.4554,space,22.7907,,,,,,,,,,,,,,,,,,,,,,,,,,,,,,,,,,,,,,,,,,,,,,,,,,,,,,,,,,,,,,,,,,,,,,,,,,,,,,,,,,,,,,,,,,,
,,614054695c372ace29c2e386,65af5568a4d6aa58b7daa6da,2024-01-23_08h52.18.510,bars,2023.2.3,Win32,63.69426752,657b66ea316d21385b68909f,,,,,,,,,,,119.4723,120.4614,120.4627,120.9623,120.9628,121.2168,121.2173,36,36,141.7127,space,20.3607,,141.7132,163.6962,space,21.8985,,0,0,0,7,1,45,bars/single007.png,bars/mask009.png,,,,,,,,,,,,,,,,,,,,,,,,,,,,,,,,,,,,,,,,,,,,,,,,,,,,,,,,,,,,,,,,
,,614054695c372ace29c2e386,65af5568a4d6aa58b7daa6da,2024-01-23_08h52.18.510,bars,2023.2.3,Win32,63.69426752,657b66ea316d21385b68909f,,,,,,,,,,,163.7242,164.7005,164.7008,165.1915,165.1919,165.4337,165.4338,178,178,184.669,space,19.2161,,184.6691,196.5288,space,11.8159,,0,1,1,6,1,175,bars/single006.png,bars/mask005.png,,,,,,,,,,,,,,,,,,,,,,,,,,,,,,,,,,,,,,,,,,,,,,,,,,,,,,,,,,,,,,,,
,,614054695c372ace29c2e386,65af5568a4d6aa58b7daa6da,2024-01-23_08h52.18.510,bars,2023.2.3,Win32,63.69426752,657b66ea316d21385b68909f,,,,,,,,,,,196.5526,197.5402,197.5402,198.0322,198.0323,198.2727,198.2733,39,39,205.541,space,7.2508,,205.5411,211.8396,space,6.2526,,0,2,2,9,1,20,bars/single009.png,bars/mask006.png,,,,,,,,,,,,,,,,,,,,,,,,,,,,,,,,,,,,,,,,,,,,,,,,,,,,,,,,,,,,,,,,
,,614054695c372ace29c2e386,65af5568a4d6aa58b7daa6da,2024-01-23_08h52.18.510,bars,2023.2.3,Win32,63.69426752,657b66ea316d21385b68909f,,,,,,,,,,,211.8638,212.8478,212.8478,213.3389,213.3389,213.5805,213.5806,92,92,222.1756,space,8.5755,,222.1758,243.5072,space,21.2818,,0,3,3,5,1,55,bars/single005.png,bars/mask008.png,,,,,,,,,,,,,,,,,,,,,,,,,,,,,,,,,,,,,,,,,,,,,,,,,,,,,,,,,,,,,,,,
,,614054695c372ace29c2e386,65af5568a4d6aa58b7daa6da,2024-01-23_08h52.18.510,bars,2023.2.3,Win32,63.69426752,657b66ea316d21385b68909f,,,,,,,,,,,243.5369,244.5117,244.5118,245.0034,245.0039,245.2461,245.2463,119,119,255.0735,space,9.8078,,255.0735,264.2046,space,9.0786,,0,4,4,4,1,95,bars/single004.png,bars/mask004.png,,,,,,,,,,,,,,,,,,,,,,,,,,,,,,,,,,,,,,,,,,,,,,,,,,,,,,,,,,,,,,,,
,,614054695c372ace29c2e386,65af5568a4d6aa58b7daa6da,2024-01-23_08h52.18.510,bars,2023.2.3,Win32,63.69426752,657b66ea316d21385b68909f,,,,,,,,,,,264.2285,265.2191,265.2191,265.7111,265.7116,265.9612,265.9617,154,154,275.0403,space,9.0628,,275.0405,298.4715,space,23.3821,,0,5,5,0,1,150,bars/single000.png,bars/mask006.png,,,,,,,,,,,,,,,,,,,,,,,,,,,,,,,,,,,,,,,,,,,,,,,,,,,,,,,,,,,,,,,,
,,614054695c372ace29c2e386,65af5568a4d6aa58b7daa6da,2024-01-23_08h52.18.510,bars,2023.2.3,Win32,63.69426752,657b66ea316d21385b68909f,,,,,,,,,,,298.4987,299.4835,299.4838,299.9764,299.9765,300.2263,300.2264,140,140,306.5366,space,6.2909,,306.5367,313.8907,space,7.3084,,0,6,6,8,1,160,bars/single008.png,bars/mask004.png,,,,,,,,,,,,,,,,,,,,,,,,,,,,,,,,,,,,,,,,,,,,,,,,,,,,,,,,,,,,,,,,
,,614054695c372ace29c2e386,65af5568a4d6aa58b7daa6da,2024-01-23_08h52.18.510,bars,2023.2.3,Win32,63.69426752,657b66ea316d21385b68909f,,,,,,,,,,,313.9234,314.8997,314.9002,315.4026,315.4027,315.6501,315.6502,177,177,319.8851,space,4.2196,,319.8853,329.6108,space,9.6823,,0,7,7,2,1,145,bars/single002.png,bars/mask003.png,,,,,,,,,,,,,,,,,,,,,,,,,,,,,,,,,,,,,,,,,,,,,,,,,,,,,,,,,,,,,,,,
,,614054695c372ace29c2e386,65af5568a4d6aa58b7daa6da,2024-01-23_08h52.18.510,bars,2023.2.3,Win32,63.69426752,657b66ea316d21385b68909f,,,,,,,,,,,329.6368,330.6172,330.6174,331.1179,331.118,331.3673,331.3674,5,5,336.4004,space,5.0179,,336.4006,342.164,space,5.7177,,0,8,8,3,1,20,bars/single003.png,bars/mask005.png,,,,,,,,,,,,,,,,,,,,,,,,,,,,,,,,,,,,,,,,,,,,,,,,,,,,,,,,,,,,,,,,
,,614054695c372ace29c2e386,65af5568a4d6aa58b7daa6da,2024-01-23_08h52.18.510,bars,2023.2.3,Win32,63.69426752,657b66ea316d21385b68909f,,,,,,,,,,,342.1879,343.1652,343.1653,343.6563,343.6566,343.9072,343.9072,0,0,349.1931,space,5.2688,,349.1931,731.6507,space,382.4157,,0,9,9,1,1,20,bars/single001.png,bars/mask006.png,,,,,,,,,,,,,,,,,,,,,,,,,,,,,,,,,,,,,,,,,,,,,,,,,,,,,,,,,,,,,,,,
,,614054695c372ace29c2e386,65af5568a4d6aa58b7daa6da,2024-01-23_08h52.18.510,bars,2023.2.3,Win32,63.69426752,657b66ea316d21385b68909f,,,,,,,,,,,,,,,,,,,,,,,,,,,,,,,,,,,,,731.6522,792.6949,space,60.9743,,,,,,,,,,,,,,,,,,,,,,,,,,,,,,,,,,,,,,,,,,,,,,,,,,,,,,,,,,,,
,,614054695c372ace29c2e386,65af5568a4d6aa58b7daa6da,2024-01-23_08h52.18.510,bars,2023.2.3,Win32,63.69426752,657b66ea316d21385b68909f,,,,,,,,,,,,,,,,,,,,,,,,,,,,,,,,,,,,,,,,,,792.7339,796.5669,left,3.733,,796.5672,9,1,797.5643,0,0,0,0,1,9,1,9,2,,,,,,,,,,,,,,,,,,,,,,,,,,,,,,,,,,,,,,,,,
,,614054695c372ace29c2e386,65af5568a4d6aa58b7daa6da,2024-01-23_08h52.18.510,bars,2023.2.3,Win32,63.69426752,657b66ea316d21385b68909f,,,,,,,,,,,,,,,,,,,,,,,,,,,,,,,,,,,,,,,,,,797.5658,799.4191,left,1.8393,,799.4192,10,1,800.4141,0,1,1,1,1,10,0,10,1,,,,,,,,,,,,,,,,,,,,,,,,,,,,,,,,,,,,,,,,,
,,614054695c372ace29c2e386,65af5568a4d6aa58b7daa6da,2024-01-23_08h52.18.510,bars,2023.2.3,Win32,63.69426752,657b66ea316d21385b68909f,,,,,,,,,,,,,,,,,,,,,,,,,,,,,,,,,,,,,,,,,,800.4161,802.2356,right,1.8055,,802.2357,2,2,803.2393,0,2,2,2,1,10,2,10,2,,,,,,,,,,,,,,,,,,,,,,,,,,,,,,,,,,,,,,,,,
,,614054695c372ace29c2e386,65af5568a4d6aa58b7daa6da,2024-01-23_08h52.18.510,bars,2023.2.3,Win32,63.69426752,657b66ea316d21385b68909f,,,,,,,,,,,,,,,,,,,,,,,,,,,,,,,,,,,,,,,,,,803.2641,804.8095,right,1.535,,804.8097,3,2,805.8137,0,3,3,3,1,8,4,7,3,,,,,,,,,,,,,,,,,,,,,,,,,,,,,,,,,,,,,,,,,
,,614054695c372ace29c2e386,65af5568a4d6aa58b7daa6da,2024-01-23_08h52.18.510,bars,2023.2.3,Win32,63.69426752,657b66ea316d21385b68909f,,,,,,,,,,,,,,,,,,,,,,,,,,,,,,,,,,,,,,,,,,805.816,806.7837,left,0.9535,,806.7838,5,1,807.781,0,4,4,4,1,6,2,5,1,,,,,,,,,,,,,,,,,,,,,,,,,,,,,,,,,,,,,,,,,
,,614054695c372ace29c2e386,65af5568a4d6aa58b7daa6da,2024-01-23_08h52.18.510,bars,2023.2.3,Win32,63.69426752,657b66ea316d21385b68909f,,,,,,,,,,,,,,,,,,,,,,,,,,,,,,,,,,,,,,,,,,807.7825,808.7015,left,0.9043,,808.7016,4,1,809.7063,0,5,5,5,1,4,4,4,4,,,,,,,,,,,,,,,,,,,,,,,,,,,,,,,,,,,,,,,,,
,,614054695c372ace29c2e386,65af5568a4d6aa58b7daa6da,2024-01-23_08h52.18.510,bars,2023.2.3,Win32,63.69426752,657b66ea316d21385b68909f,,,,,,,,,,,,,,,,,,,,,,,,,,,,,,,,,,,,,,,,,,809.7084,810.9239,right,1.2009,,810.9242,2,2,811.9138,0,6,6,6,1,2,2,1,2,,,,,,,,,,,,,,,,,,,,,,,,,,,,,,,,,,,,,,,,,
,,614054695c372ace29c2e386,65af5568a4d6aa58b7daa6da,2024-01-23_08h52.18.510,bars,2023.2.3,Win32,63.69426752,657b66ea316d21385b68909f,,,,,,,,,,,,,,,,,,,,,,,,,,,,,,,,,,,,,,,,,,811.9161,812.866,left,0.9362,,812.8661,0,1,813.8541,0,7,7,7,1,0,0,0,1,,,,,,,,,,,,,,,,,,,,,,,,,,,,,,,,,,,,,,,,,
,,614054695c372ace29c2e386,65af5568a4d6aa58b7daa6da,2024-01-23_08h52.18.510,bars,2023.2.3,Win32,63.69426752,657b66ea316d21385b68909f,,,,,,,,,,,,,,,,,,,,,,,,,,,,,,,,,,,,,,,,,,813.8561,815.7236,left,1.8504,,815.7244,1,1,816.714,0,8,8,8,1,0,2,1,0,,,,,,,,,,,,,,,,,,,,,,,,,,,,,,,,,,,,,,,,,
,,614054695c372ace29c2e386,65af5568a4d6aa58b7daa6da,2024-01-23_08h52.18.510,bars,2023.2.3,Win32,63.69426752,657b66ea316d21385b68909f,,,,,,,,,,,,,,,,,,,,,,,,,,,,,,,,,,,,,,,,,,816.7155,817.4666,right,0.7367,,817.4667,3,2,818.4743,0,9,9,9,1,2,4,2,3,,,,,,,,,,,,,,,,,,,,,,,,,,,,,,,,,,,,,,,,,
,,614054695c372ace29c2e386,65af5568a4d6aa58b7daa6da,2024-01-23_08h52.18.510,bars,2023.2.3,Win32,63.69426752,657b66ea316d21385b68909f,,,,,,,,,,,,,,,,,,,,,,,,,,,,,,,,,,,,,,,,,,818.4761,819.1902,left,0.6989,,819.1903,0,1,820.1801,0,10,10,10,1,0,2,0,3,,,,,,,,,,,,,,,,,,,,,,,,,,,,,,,,,,,,,,,,,
,,614054695c372ace29c2e386,65af5568a4d6aa58b7daa6da,2024-01-23_08h52.18.510,bars,2023.2.3,Win32,63.69426752,657b66ea316d21385b68909f,,,,,,,,,,,,,,,,,,,,,,,,,,,,,,,,,,,,,,,,,,820.1821,821.44,left,1.24,,821.4401,0,1,822.4393,0,11,11,11,1,0,4,0,3,,,,,,,,,,,,,,,,,,,,,,,,,,,,,,,,,,,,,,,,,
,,614054695c372ace29c2e386,65af5568a4d6aa58b7daa6da,2024-01-23_08h52.18.510,bars,2023.2.3,Win32,63.69426752,657b66ea316d21385b68909f,,,,,,,,,,,,,,,,,,,,,,,,,,,,,,,,,,,,,,,,,,822.4402,823.2905,right,0.8342,,823.2906,6,2,824.2798,0,12,12,12,1,2,6,1,6,,,,,,,,,,,,,,,,,,,,,,,,,,,,,,,,,,,,,,,,,
,,614054695c372ace29c2e386,65af5568a4d6aa58b7daa6da,2024-01-23_08h52.18.510,bars,2023.2.3,Win32,63.69426752,657b66ea316d21385b68909f,,,,,,,,,,,,,,,,,,,,,,,,,,,,,,,,,,,,,,,,,,824.2817,825.0417,right,0.7461,,825.0418,3,2,826.0391,0,13,13,13,1,0,4,1,3,,,,,,,,,,,,,,,,,,,,,,,,,,,,,,,,,,,,,,,,,
,,614054695c372ace29c2e386,65af5568a4d6aa58b7daa6da,2024-01-23_08h52.18.510,bars,2023.2.3,Win32,63.69426752,657b66ea316d21385b68909f,,,,,,,,,,,,,,,,,,,,,,,,,,,,,,,,,,,,,,,,,,826.04,828.3568,right,2.2997,,828.3569,7,2,829.3466,0,14,14,14,1,2,6,2,7,,,,,,,,,,,,,,,,,,,,,,,,,,,,,,,,,,,,,,,,,
,,614054695c372ace29c2e386,65af5568a4d6aa58b7daa6da,2024-01-23_08h52.18.510,bars,2023.2.3,Win32,63.69426752,657b66ea316d21385b68909f,,,,,,,,,,,,,,,,,,,,,,,,,,,,,,,,,,,,,,,,,,829.3726,831.742,right,2.3599,,831.7421,9,2,832.7384,0,15,15,15,1,4,8,3,9,,,,,,,,,,,,,,,,,,,,,,,,,,,,,,,,,,,,,,,,,
,,614054695c372ace29c2e386,65af5568a4d6aa58b7daa6da,2024-01-23_08h52.18.510,bars,2023.2.3,Win32,63.69426752,657b66ea316d21385b68909f,,,,,,,,,,,,,,,,,,,,,,,,,,,,,,,,,,,,,,,,,,832.7393,834.5737,right,1.8197,,834.5739,7,2,835.5625,0,16,16,16,1,6,6,7,7,,,,,,,,,,,,,,,,,,,,,,,,,,,,,,,,,,,,,,,,,
,,614054695c372ace29c2e386,65af5568a4d6aa58b7daa6da,2024-01-23_08h52.18.510,bars,2023.2.3,Win32,63.69426752,657b66ea316d21385b68909f,,,,,,,,,,,,,,,,,,,,,,,,,,,,,,,,,,,,,,,,,,835.5864,838.4944,left,2.8962,,838.4946,9,1,839.4903,0,17,17,17,1,8,4,9,5,,,,,,,,,,,,,,,,,,,,,,,,,,,,,,,,,,,,,,,,,
,,614054695c372ace29c2e386,65af5568a4d6aa58b7daa6da,2024-01-23_08h52.18.510,bars,2023.2.3,Win32,63.69426752,657b66ea316d21385b68909f,,,,,,,,,,,,,,,,,,,,,,,,,,,,,,,,,,,,,,,,,,839.5141,842.4727,left,2.9422,,842.4729,5,1,843.4615,0,18,18,18,1,6,2,5,1,,,,,,,,,,,,,,,,,,,,,,,,,,,,,,,,,,,,,,,,,
,,614054695c372ace29c2e386,65af5568a4d6aa58b7daa6da,2024-01-23_08h52.18.510,bars,2023.2.3,Win32,63.69426752,657b66ea316d21385b68909f,,,,,,,,,,,,,,,,,,,,,,,,,,,,,,,,,,,,,,,,,,843.4859,844.6835,right,1.187,,844.6836,0,2,845.6779,0,19,19,19,1,8,0,7,0,,,,,,,,,,,,,,,,,,,,,,,,,,,,,,,,,,,,,,,,,
,,614054695c372ace29c2e386,65af5568a4d6aa58b7daa6da,2024-01-23_08h52.18.510,bars,2023.2.3,Win32,63.69426752,657b66ea316d21385b68909f,,,,,,,,,,,,,,,,,,,,,,,,,,,,,,,,,,,,,,,,,,,,,,,,,,,,,,,,,,,,845.6804,990.1016,space,144.3875,,,,,,,,,,,,,,,,,,,,,,,,,,,,,,,,,,,,,
,,614054695c372ace29c2e386,65af5568a4d6aa58b7daa6da,2024-01-23_08h52.18.510,bars,2023.2.3,Win32,63.69426752,657b66ea316d21385b68909f,,,,,,,,,,,997.8931,998.8611,,,999.3616,999.6141,,141,141,,,,,,,,,,,,,,,,bars/000.png,bars/mask009.png,,,,,,,,,,,,4,2,,,,,,,5,5,4,5,,,,,,990.1332,997.8586,space,7.6975,,998.8624,999.3615,999.6146,1006.398,space,6.7427,,1006.3987,79,4,1007.3945,1007.3959,1016.369,space,8.9219,,0,0,0,0,1,40,145,,,,,,,,
,,614054695c372ace29c2e386,65af5568a4d6aa58b7daa6da,2024-01-23_08h52.18.510,bars,2023.2.3,Win32,63.69426752,657b66ea316d21385b68909f,,,,,,,,,,,1016.3964,1017.3764,,,1017.8696,1018.1101,,0,0,,,,,,,,,,,,,,,,bars/043.png,bars/mask007.png,,,,,,,,,,,,0,1,,,,,,,3,3,2,2,,,,,,,,,,,1017.3772,1017.8695,1018.1105,1030.0953,space,11.9687,,1030.0956,30,50,1031.0851,1031.0852,1052.9376,space,21.793,,0,1,1,1,1,30,130,,,,,,,,
,,614054695c372ace29c2e386,65af5568a4d6aa58b7daa6da,2024-01-23_08h52.18.510,bars,2023.2.3,Win32,63.69426752,657b66ea316d21385b68909f,,,,,,,,,,,1052.9648,1053.9415,,,1054.4339,1054.6745,,167,-13,,,,,,,,,,,,,,,,bars/003.png,bars/mask008.png,,,,,,,,,,,,0,2,,,,,,,5,1,6,1,,,,,,,,,,,1053.9419,1054.4333,1054.6749,1063.2197,space,8.5315,,1063.2197,38,27,1064.2163,1064.2164,1070.2756,space,5.9918,,0,2,2,2,1,25,140,,,,,,,,
,,614054695c372ace29c2e386,65af5568a4d6aa58b7daa6da,2024-01-23_08h52.18.510,bars,2023.2.3,Win32,63.69426752,657b66ea316d21385b68909f,,,,,,,,,,,1070.2989,1071.2898,,,1071.7828,1072.0264,,95,95,,,,,,,,,,,,,,,,bars/023.png,bars/mask004.png,,,,,,,,,,,,1,2,,,,,,,3,3,5,4,,,,,,,,,,,1071.2902,1071.7823,1072.0266,1078.5756,space,6.5344,,1078.5757,75,20,1079.5752,1079.5753,1096.0956,space,16.4695,,0,3,3,3,1,20,115,,,,,,,,
,,614054695c372ace29c2e386,65af5568a4d6aa58b7daa6da,2024-01-23_08h52.18.510,bars,2023.2.3,Win32,63.69426752,657b66ea316d21385b68909f,,,,,,,,,,,1096.1216,1097.1073,,,1097.6061,1097.8555,,31,211,,,,,,,,,,,,,,,,bars/040.png,bars/mask008.png,,,,,,,,,,,,1,2,,,,,,,1,5,1,5,,,,,,,,,,,1097.1075,1097.6055,1097.856,1117.2171,space,19.3481,,1117.2173,71,26,1118.2175,1118.2176,1133.0656,space,14.7998,,0,4,4,4,1,140,5,,,,,,,,
,,614054695c372ace29c2e386,65af5568a4d6aa58b7daa6da,2024-01-23_08h52.18.510,bars,2023.2.3,Win32,63.69426752,657b66ea316d21385b68909f,,,,,,,,,,,1133.0878,1134.0786,,,1134.5707,1134.8122,,87,87,,,,,,,,,,,,,,,,bars/007.png,bars/mask001.png,,,,,,,,,,,,0,2,,,,,,,0,3,0,2,,,,,,,,,,,1134.0791,1134.5706,1134.8127,1138.215,space,3.3865,,1138.2152,88,32,1139.2049,1139.2049,1145.6547,space,6.3975,,0,5,5,5,1,175,55,,,,,,,,
,,614054695c372ace29c2e386,65af5568a4d6aa58b7daa6da,2024-01-23_08h52.18.510,bars,2023.2.3,Win32,63.69426752,657b66ea316d21385b68909f,,,,,,,,,,,1145.6795,1146.6694,,,1147.1554,1147.3945,,1,1,,,,,,,,,,,,,,,,bars/013.png,bars/mask003.png,,,,,,,,,,,,1,2,,,,,,,2,1,3,1,,,,,,,,,,,1146.6695,1147.1553,1147.3949,1154.4143,space,7.003,,1154.4144,74,9,1155.4192,1155.4196,1163.0311,space,7.5631,,0,6,6,6,1,75,10,,,,,,,,
,,614054695c372ace29c2e386,65af5568a4d6aa58b7daa6da,2024-01-23_08h52.18.510,bars,2023.2.3,Win32,63.69426752,657b66ea316d21385b68909f,,,,,,,,,,,1163.0551,1164.0445,,,1164.5356,1164.786,,141,141,,,,,,,,,,,,,,,,bars/008.png,bars/mask001.png,,,,,,,,,,,,0,1,,,,,,,4,3,5,3,,,,,,,,,,,1164.0446,1164.5351,1164.7861,1176.1888,space,11.3891,,1176.189,31,39,1177.1865,1177.1865,1181.4196,space,4.1759,,0,7,7,7,1,110,0,,,,,,,,
,,614054695c372ace29c2e386,65af5568a4d6aa58b7daa6da,2024-01-23_08h52.18.510,bars,2023.2.3,Win32,63.69426752,657b66ea316d21385b68909f,,,,,,,,,,,1181.4427,1182.4343,,,1182.9266,1183.1763,,45,45,,,,,,,,,,,,,,,,bars/012.png,bars/mask003.png,,,,,,,,,,,,0,2,,,,,,,2,5,1,6,,,,,,,,,,,1182.4343,1182.9261,1183.1767,1188.9623,space,5.7691,,1188.9625,45,30,1189.9595,1189.9596,1209.8442,space,19.8226,,0,8,8,8,1,90,15,,,,,,,,
,,614054695c372ace29c2e386,65af5568a4d6aa58b7daa6da,2024-01-23_08h52.18.510,bars,2023.2.3,Win32,63.69426752,657b66ea316d21385b68909f,,,,,,,,,,,1209.87,1210.8509,,,1211.3496,1211.5991,,93,93,,,,,,,,,,,,,,,,bars/001.png,bars/mask008.png,,,,,,,,,,,,3,2,,,,,,,4,3,4,4,,,,,,,,,,,1210.851,1211.3495,1211.5996,1219.6107,space,7.9984,,1219.6108,37,8,1220.6153,1220.6157,1231.4768,space,10.8121,,0,9,9,9,1,130,85,,,,,,,,
,,614054695c372ace29c2e386,65af5568a4d6aa58b7daa6da,2024-01-23_08h52.18.510,bars,2023.2.3,Win32,63.69426752,657b66ea316d21385b68909f,,,,,,,,,,,1231.5033,1232.4832,,,1232.9805,1233.2232,,175,-5,,,,,,,,,,,,,,,,bars/039.png,bars/mask000.png,,,,,,,,,,,,3,1,,,,,,,2,5,3,5,,,,,,,,,,,1232.4834,1232.9804,1233.2236,1238.2426,space,5.002,,1238.2427,0,70,1239.2402,1239.2403,1265.2398,space,25.9409,,0,10,10,10,1,175,105,,,,,,,,
,,614054695c372ace29c2e386,65af5568a4d6aa58b7daa6da,2024-01-23_08h52.18.510,bars,2023.2.3,Win32,63.69426752,657b66ea316d21385b68909f,,,,,,,,,,,1265.2665,1266.254,,,1266.7463,1266.9887,,152,152,,,,,,,,,,,,,,,,bars/025.png,bars/mask002.png,,,,,,,,,,,,0,1,,,,,,,0,7,0,6,,,,,,,,,,,1266.2545,1266.7459,1266.9887,1276.684,space,9.6801,,1276.6841,47,68,1277.6816,1277.6816,1294.532,space,16.7942,,0,11,11,11,1,105,40,,,,,,,,
,,614054695c372ace29c2e386,65af5568a4d6aa58b7daa6da,2024-01-23_08h52.18.510,bars,2023.2.3,Win32,63.69426752,657b66ea316d21385b68909f,,,,,,,,,,,1294.5616,1295.5363,,,1296.0278,1296.2782,,172,-8,,,,,,,,,,,,,,,,bars/035.png,bars/mask008.png,,,,,,,,,,,,0,1,,,,,,,0,9,0,8,,,,,,,,,,,1295.5367,1296.0277,1296.2784,1307.8454,space,11.5512,,1307.8456,3,68,1308.8433,1308.8437,1326.0115,space,17.1188,,0,12,12,12,1,175,60,,,,,,,,
,,614054695c372ace29c2e386,65af5568a4d6aa58b7daa6da,2024-01-23_08h52.18.510,bars,2023.2.3,Win32,63.69426752,657b66ea316d21385b68909f,,,,,,,,,,,1326.0373,1327.0259,,,1327.5184,1327.771,,135,135,,,,,,,,,,,,,,,,bars/019.png,bars/mask000.png,,,,,,,,,,,,0,2,,,,,,,2,7,3,7,,,,,,,,,,,1327.0265,1327.5179,1327.7711,1338.404,space,10.6196,,1338.4041,90,30,1339.4,1339.4005,1346.2866,space,6.8238,,0,13,13,13,1,45,105,,,,,,,,
,,614054695c372ace29c2e386,65af5568a4d6aa58b7daa6da,2024-01-23_08h52.18.510,bars,2023.2.3,Win32,63.69426752,657b66ea316d21385b68909f,,,,,,,,,,,1346.312,1347.2932,,,1347.7931,1348.0414,,57,57,,,,,,,,,,,,,,,,bars/035.png,bars/mask006.png,,,,,,,,,,,,9,2,,,,,,,0,9,0,10,,,,,,,,,,,1347.2934,1347.7931,1348.0416,1355.3099,space,7.2521,,1355.31,62,3,1356.2995,1356.3,1372.9089,space,16.5618,,0,14,14,14,1,175,60,,,,,,,,
,,614054695c372ace29c2e386,65af5568a4d6aa58b7daa6da,2024-01-23_08h52.18.510,bars,2023.2.3,Win32,63.69426752,657b66ea316d21385b68909f,,,,,,,,,,,1372.9347,1373.9229,,,1374.4168,1374.6566,,22,202,,,,,,,,,,,,,,,,bars/026.png,bars/mask008.png,,,,,,,,,,,,1,1,,,,,,,0,7,1,7,,,,,,,,,,,1373.9232,1374.4167,1374.6566,1385.4924,space,10.8208,,1385.4925,13,63,1386.4892,1386.4892,1391.8412,space,5.292,,0,15,15,15,1,35,85,,,,,,,,
,,614054695c372ace29c2e386,65af5568a4d6aa58b7daa6da,2024-01-23_08h52.18.510,bars,2023.2.3,Win32,63.69426752,657b66ea316d21385b68909f,,,,,,,,,,,1391.8641,1392.8475,,,1393.3489,1393.598,,87,87,,,,,,,,,,,,,,,,bars/035.png,bars/mask006.png,,,,,,,,,,,,1,2,,,,,,,0,9,2,6,,,,,,,,,,,1392.8479,1393.3488,1393.5981,1401.9919,space,8.3775,,1401.992,88,27,1402.9898,1402.99,1409.3237,space,6.2684,,0,16,16,16,1,175,60,,,,,,,,
,,614054695c372ace29c2e386,65af5568a4d6aa58b7daa6da,2024-01-23_08h52.18.510,bars,2023.2.3,Win32,63.69426752,657b66ea316d21385b68909f,,,,,,,,,,,1409.3476,1410.3294,,,1410.8306,1411.0798,,147,147,,,,,,,,,,,,,,,,bars/024.png,bars/mask006.png,,,,,,,,,,,,2,2,,,,,,,2,7,2,7,,,,,,,,,,,1410.3298,1410.8305,1411.0802,1418.2096,space,7.1138,,1418.2097,27,23,1419.2123,1419.2126,1422.8604,space,3.5991,,0,17,17,17,1,120,170,,,,,,,,
,,614054695c372ace29c2e386,65af5568a4d6aa58b7daa6da,2024-01-23_08h52.18.510,bars,2023.2.3,Win32,63.69426752,657b66ea316d21385b68909f,,,,,,,,,,,1422.8611,1423.8536,,,1424.3539,1424.5957,,81,81,,,,,,,,,,,,,,,,bars/026.png,bars/mask004.png,,,,,,,,,,,,3,2,,,,,,,0,5,0,4,,,,,,,,,,,1423.8539,1424.3538,1424.5958,1431.1152,space,6.502,,1431.1153,46,4,1432.1196,1432.1196,1441.6047,space,9.4399,,0,18,18,18,1,35,85,,,,,,,,
,,614054695c372ace29c2e386,65af5568a4d6aa58b7daa6da,2024-01-23_08h52.18.510,bars,2023.2.3,Win32,63.69426752,657b66ea316d21385b68909f,,,,,,,,,,,1441.6289,1442.6119,,,1443.1032,1443.3527,,35,35,,,,,,,,,,,,,,,,bars/047.png,bars/mask002.png,,,,,,,,,,,,0,1,,,,,,,2,7,1,8,,,,,,,,,,,1442.6121,1443.1028,1443.3528,1448.6545,space,5.2851,,1448.6549,20,35,1449.6439,1449.6442,1466.447,space,16.7449,,0,19,19,19,1,15,70,,,,,,,,
,,614054695c372ace29c2e386,65af5568a4d6aa58b7daa6da,2024-01-23_08h52.18.510,bars,2023.2.3,Win32,63.69426752,657b66ea316d21385b68909f,,,,,,,,,,,1466.4765,1467.4508,,,1467.9438,1468.1937,,43,43,,,,,,,,,,,,,,,,bars/038.png,bars/mask004.png,,,,,,,,,,,,0,2,,,,,,,0,5,0,5,,,,,,,,,,,1467.4513,1467.9433,1468.1938,1476.3354,space,8.1233,,1476.3358,58,27,1477.3338,1477.3342,1481.9702,space,4.5679,,0,20,20,20,1,165,70,,,,,,,,
,,614054695c372ace29c2e386,65af5568a4d6aa58b7daa6da,2024-01-23_08h52.18.510,bars,2023.2.3,Win32,63.69426752,657b66ea316d21385b68909f,,,,,,,,,,,1481.995,1482.9839,,,1483.476,1483.7176,,133,133,,,,,,,,,,,,,,,,bars/002.png,bars/mask009.png,,,,,,,,,,,,2,1,,,,,,,2,3,2,4,,,,,,,,,,,1482.9843,1483.4759,1483.7177,1491.0357,space,7.3022,,1491.0358,3,48,1492.0251,1492.0253,1499.3616,space,7.2728,,0,21,21,21,1,130,85,,,,,,,,
,,614054695c372ace29c2e386,65af5568a4d6aa58b7daa6da,2024-01-23_08h52.18.510,bars,2023.2.3,Win32,63.69426752,657b66ea316d21385b68909f,,,,,,,,,,,1499.3864,1500.3658,,,1500.866,1501.1193,,39,39,,,,,,,,,,,,,,,,bars/026.png,bars/mask009.png,,,,,,,,,,,,3,1,,,,,,,4,5,3,4,,,,,,,,,,,1500.3662,1500.8656,1501.1194,1503.2673,space,2.1327,,1503.2679,4,46,1504.2581,1504.2585,1510.6497,space,6.347,,0,22,22,22,1,35,85,,,,,,,,
,,614054695c372ace29c2e386,65af5568a4d6aa58b7daa6da,2024-01-23_08h52.18.510,bars,2023.2.3,Win32,63.69426752,657b66ea316d21385b68909f,,,,,,,,,,,1510.6726,1511.6652,,,1512.1654,1512.4083,,161,161,,,,,,,,,,,,,,,,bars/024.png,bars/mask001.png,,,,,,,,,,,,1,2,,,,,,,6,3,5,2,,,,,,,,,,,1511.6656,1512.1653,1512.4084,1519.7771,space,7.353,,1519.7773,41,9,1520.7651,1520.7656,1528.2826,space,7.4579,,0,23,23,23,1,120,170,,,,,,,,
,,614054695c372ace29c2e386,65af5568a4d6aa58b7daa6da,2024-01-23_08h52.18.510,bars,2023.2.3,Win32,63.69426752,657b66ea316d21385b68909f,,,,,,,,,,,1528.302,1529.283,,,1529.7815,1530.0307,,134,134,,,,,,,,,,,,,,,,bars/037.png,bars/mask009.png,,,,,,,,,,,,2,1,,,,,,,4,1,4,3,,,,,,,,,,,1529.2831,1529.7811,1530.0311,1532.232,space,2.1851,,1532.2328,16,29,1533.2225,1533.2229,1535.8166,space,2.5311,,0,24,24,24,1,150,105,,,,,,,,
,,614054695c372ace29c2e386,65af5568a4d6aa58b7daa6da,2024-01-23_08h52.18.510,bars,2023.2.3,Win32,63.69426752,657b66ea316d21385b68909f,,,,,,,,,,,1535.8176,1536.8159,,,1537.3188,1537.5667,,4,184,,,,,,,,,,,,,,,,bars/036.png,bars/mask000.png,,,,,,,,,,,,0,2,,,,,,,2,0,1,0,,,,,,,,,,,1536.816,1537.3187,1537.5668,1542.9496,space,5.3672,,1542.9496,39,16,1543.9385,1543.9389,1551.3,space,7.3025,,0,25,25,25,1,145,20,,,,,,,,
,,614054695c372ace29c2e386,65af5568a4d6aa58b7daa6da,2024-01-23_08h52.18.510,bars,2023.2.3,Win32,63.69426752,657b66ea316d21385b68909f,,,,,,,,,,,1551.3294,1552.3056,,,1552.7971,1553.0467,,38,38,,,,,,,,,,,,,,,,bars/028.png,bars/mask004.png,,,,,,,,,,,,1,1,,,,,,,0,0,1,1,,,,,,,,,,,1552.3057,1552.7966,1553.0471,1559.7915,space,6.7314,,1559.7915,7,82,1560.7961,1560.7966,1568.8013,space,7.9497,,0,26,26,26,1,45,120,,,,,,,,
,,614054695c372ace29c2e386,65af5568a4d6aa58b7daa6da,2024-01-23_08h52.18.510,bars,2023.2.3,Win32,63.69426752,657b66ea316d21385b68909f,,,,,,,,,,,1568.8258,1569.8038,,,1570.305,1570.5548,,24,24,,,,,,,,,,,,,,,,bars/028.png,bars/mask009.png,,,,,,,,,,,,0,1,,,,,,,0,0,1,0,,,,,,,,,,,1569.8041,1570.3049,1570.5548,1571.6406,space,1.0698,,1571.6407,21,84,1572.6327,1572.6328,1574.2697,space,1.6139,,0,27,27,27,1,45,120,,,,,,,,
,,614054695c372ace29c2e386,65af5568a4d6aa58b7daa6da,2024-01-23_08h52.18.510,bars,2023.2.3,Win32,63.69426752,657b66ea316d21385b68909f,,,,,,,,,,,1574.2706,1575.2714,,,1575.7715,1576.0146,,34,34,,,,,,,,,,,,,,,,bars/016.png,bars/mask001.png,,,,,,,,,,,,0,1,,,,,,,0,0,0,0,,,,,,,,,,,1575.2715,1575.7714,1576.0146,1582.8816,space,6.8499,,1582.8817,6,49,1583.8797,1583.8799,1588.9802,space,5.0491,,0,28,28,28,1,40,165,,,,,,,,
,,614054695c372ace29c2e386,65af5568a4d6aa58b7daa6da,2024-01-23_08h52.18.510,bars,2023.2.3,Win32,63.69426752,657b66ea316d21385b68909f,,,,,,,,,,,1589.0042,1589.9942,,,1590.4871,1590.7363,,177,-3,,,,,,,,,,,,,,,,bars/032.png,bars/mask001.png,,,,,,,,,,,,0,2,,,,,,,0,2,0,2,,,,,,,,,,,1589.9945,1590.4871,1590.7367,1596.2737,space,5.5197,,1596.2738,52,23,1597.2689,1597.2693,1604.0739,space,6.7479,,0,29,29,29,1,125,20,,,,,,,,
,,614054695c372ace29c2e386,65af5568a4d6aa58b7daa6da,2024-01-23_08h52.18.510,bars,2023.2.3,Win32,63.69426752,657b66ea316d21385b68909f,,,,,,,,,,,1604.0973,1605.0859,,,1605.5797,1605.8183,,153,153,,,,,,,,,,,,,,,,bars/043.png,bars/mask005.png,,,,,,,,,,,,1,2,,,,,,,2,4,3,3,,,,,,,,,,,1605.086,1605.5796,1605.8187,1610.4828,space,4.6482,,1610.4829,57,23,1611.4717,1611.4718,1612.6805,space,1.1569,,0,30,30,30,1,30,130,,,,,,,,
,,614054695c372ace29c2e386,65af5568a4d6aa58b7daa6da,2024-01-23_08h52.18.510,bars,2023.2.3,Win32,63.69426752,657b66ea316d21385b68909f,,,,,,,,,,,1612.6815,1613.6757,,,1614.1781,1614.426,,145,145,,,,,,,,,,,,,,,,bars/012.png,bars/mask002.png,,,,,,,,,,,,0,2,,,,,,,4,2,4,2,,,,,,,,,,,1613.6758,1614.178,1614.4261,1621.6445,space,7.2035,,1621.6447,55,50,1622.6341,1622.6345,1624.0774,space,1.3917,,0,31,31,31,1,90,15,,,,,,,,
,,614054695c372ace29c2e386,65af5568a4d6aa58b7daa6da,2024-01-23_08h52.18.510,bars,2023.2.3,Win32,63.69426752,657b66ea316d21385b68909f,,,,,,,,,,,1624.0789,1625.0753,,,1625.5686,1625.8186,,135,135,,,,,,,,,,,,,,,,bars/031.png,bars/mask001.png,,,,,,,,,,,,3,1,,,,,,,6,4,6,4,,,,,,,,,,,1625.0758,1625.5686,1625.8187,1629.2793,space,3.445,,1629.2794,15,80,1630.2775,1630.2775,1632.6045,space,2.2711,,0,32,32,32,1,120,35,,,,,,,,
,,614054695c372ace29c2e386,65af5568a4d6aa58b7daa6da,2024-01-23_08h52.18.510,bars,2023.2.3,Win32,63.69426752,657b66ea316d21385b68909f,,,,,,,,,,,1632.6058,1633.6092,,,1634.1117,1634.3581,,90,90,,,,,,,,,,,,,,,,bars/002.png,bars/mask004.png,,,,,,,,,,,,4,2,,,,,,,8,6,7,5,,,,,,,,,,,1633.6093,1634.1116,1634.3585,1635.404,space,1.0319,,1635.404,40,5,1636.4082,1636.4086,1638.6093,space,2.1671,,0,33,33,33,1,130,85,,,,,,,,
,,614054695c372ace29c2e386,65af5568a4d6aa58b7daa6da,2024-01-23_08h52.18.510,bars,2023.2.3,Win32,63.69426752,657b66ea316d21385b68909f,,,,,,,,,,,1638.6116,1639.6078,,,1640.101,1640.3502,,16,16,,,,,,,,,,,,,,,,bars/029.png,bars/mask002.png,,,,,,,,,,,,0,2,,,,,,,6,4,6,5,,,,,,,,,,,1639.6081,1640.1008,1640.3506,1641.42,space,1.0528,,1641.4202,74,29,1642.4246,1642.4249,1643.576,space,1.128,,0,34,34,34,1,90,45,,,,,,,,
,,614054695c372ace29c2e386,65af5568a4d6aa58b7daa6da,2024-01-23_08h52.18.510,bars,2023.2.3,Win32,63.69426752,657b66ea316d21385b68909f,,,,,,,,,,,1643.5773,1644.5746,,,1645.0674,1645.311,,44,44,,,,,,,,,,,,,,,,bars/007.png,bars/mask006.png,,,,,,,,,,,,2,2,,,,,,,8,2,7,3,,,,,,,,,,,1644.5749,1645.0673,1645.311,1649.7792,space,4.4538,,1649.7793,49,11,1650.7836,1650.7837,1652.7255,space,1.8961,,0,35,35,35,1,175,55,,,,,,,,
,,614054695c372ace29c2e386,65af5568a4d6aa58b7daa6da,2024-01-23_08h52.18.510,bars,2023.2.3,Win32,63.69426752,657b66ea316d21385b68909f,,,,,,,,,,,1652.7271,1653.7242,,,1654.2165,1654.4573,,145,145,,,,,,,,,,,,,,,,bars/005.png,bars/mask007.png,,,,,,,,,,,,0,2,,,,,,,6,0,7,0,,,,,,,,,,,1653.7243,1654.2164,1654.4578,1659.1091,space,4.6349,,1659.1093,45,5,1660.0987,1660.099,1669.9019,space,9.7583,,0,36,36,36,1,10,140,,,,,,,,
,,614054695c372ace29c2e386,65af5568a4d6aa58b7daa6da,2024-01-23_08h52.18.510,bars,2023.2.3,Win32,63.69426752,657b66ea316d21385b68909f,,,,,,,,,,,1669.9276,1670.9082,,,1671.4082,1671.6579,,38,38,,,,,,,,,,,,,,,,bars/029.png,bars/mask009.png,,,,,,,,,,,,1,2,,,,,,,4,2,3,1,,,,,,,,,,,1670.9084,1671.4081,1671.658,1673.1253,space,1.4529,,1673.1256,52,7,1674.1147,1674.1151,1675.9683,space,1.81,,0,37,37,37,1,90,45,,,,,,,,
,,614054695c372ace29c2e386,65af5568a4d6aa58b7daa6da,2024-01-23_08h52.18.510,bars,2023.2.3,Win32,63.69426752,657b66ea316d21385b68909f,,,,,,,,,,,1675.969,1676.9646,,,1677.4583,1677.7078,,141,141,,,,,,,,,,,,,,,,bars/024.png,bars/mask008.png,,,,,,,,,,,,0,1,,,,,,,2,4,1,4,,,,,,,,,,,1676.965,1677.4582,1677.7079,1681.9096,space,4.1841,,1681.9097,21,29,1682.8979,1682.8984,1683.9349,space,0.9826,,0,38,38,38,1,120,170,,,,,,,,
,,614054695c372ace29c2e386,65af5568a4d6aa58b7daa6da,2024-01-23_08h52.18.510,bars,2023.2.3,Win32,63.69426752,657b66ea316d21385b68909f,,,,,,,,,,,1683.9356,1684.9313,,,1685.4217,1685.6641,,108,-72,,,,,,,,,,,,,,,,bars/020.png,bars/mask003.png,,,,,,,,,,,,3,1,,,,,,,4,6,4,6,,,,,,,,,,,1684.9318,1685.4216,1685.6644,1693.0674,space,7.3862,,1693.0675,7,62,1694.0649,1694.065,1699.1668,space,5.0562,,0,39,39,39,1,115,170,,,,,,,,
,,614054695c372ace29c2e386,65af5568a4d6aa58b7daa6da,2024-01-23_08h52.18.510,bars,2023.2.3,Win32,63.69426752,657b66ea316d21385b68909f,,,,,,,,,,,1699.1901,1700.1798,,,1700.6744,1700.9248,,29,29,,,,,,,,,,,,,,,,bars/043.png,bars/mask003.png,,,,,,,,,,,,2,1,,,,,,,2,4,2,2,,,,,,,,,,,1700.1802,1700.6743,1700.9249,1702.882,space,1.9412,,1702.8821,1,79,1703.8722,1703.8727,1705.3228,space,1.427,,0,40,40,40,1,30,130,,,,,,,,
,,614054695c372ace29c2e386,65af5568a4d6aa58b7daa6da,2024-01-23_08h52.18.510,bars,2023.2.3,Win32,63.69426752,657b66ea316d21385b68909f,,,,,,,,,,,1705.325,1706.3209,,,1706.8216,1707.0712,,159,159,,,,,,,,,,,,,,,,bars/016.png,bars/mask003.png,,,,,,,,,,,,2,2,,,,,,,4,2,7,2,,,,,,,,,,,1706.3213,1706.8212,1707.0717,1708.0226,space,0.9349,,1708.0231,61,6,1709.0208,1709.0211,1710.6408,space,1.5804,,0,41,41,41,1,40,165,,,,,,,,
,,614054695c372ace29c2e386,65af5568a4d6aa58b7daa6da,2024-01-23_08h52.18.510,bars,2023.2.3,Win32,63.69426752,657b66ea316d21385b68909f,,,,,,,,,,,1710.6419,1711.6472,,,1712.147,1712.396,,55,55,,,,,,,,,,,,,,,,bars/028.png,bars/mask000.png,,,,,,,,,,,,5,1,,,,,,,6,4,7,5,,,,,,,,,,,1711.6473,1712.1469,1712.3962,1713.3661,space,0.953,,1713.3662,10,65,1714.3707,1714.3709,1716.055,space,1.6266,,0,42,42,42,1,45,120,,,,,,,,
,,614054695c372ace29c2e386,65af5568a4d6aa58b7daa6da,2024-01-23_08h52.18.510,bars,2023.2.3,Win32,63.69426752,657b66ea316d21385b68909f,,,,,,,,,,,1716.0569,1717.0538,,,1717.5461,1717.7958,,3,3,,,,,,,,,,,,,,,,bars/022.png,bars/mask008.png,,,,,,,,,,,,1,2,,,,,,,4,2,4,3,,,,,,,,,,,1717.0539,1717.5457,1717.7958,1719.6678,space,1.8562,,1719.6678,88,17,1720.6704,1720.6705,1721.6491,space,0.9251,,0,43,43,43,1,95,20,,,,,,,,
,,614054695c372ace29c2e386,65af5568a4d6aa58b7daa6da,2024-01-23_08h52.18.510,bars,2023.2.3,Win32,63.69426752,657b66ea316d21385b68909f,,,,,,,,,,,1721.6497,1722.6459,,,1723.1397,1723.3869,,108,108,,,,,,,,,,,,,,,,bars/023.png,bars/mask003.png,,,,,,,,,,,,1,2,,,,,,,6,0,5,1,,,,,,,,,,,1722.6464,1723.1396,1723.387,1726.5375,space,3.1352,,1726.5376,88,7,1727.5292,1727.5293,1729.3155,space,1.7432,,0,44,44,44,1,20,115,,,,,,,,
,,614054695c372ace29c2e386,65af5568a4d6aa58b7daa6da,2024-01-23_08h52.18.510,bars,2023.2.3,Win32,63.69426752,657b66ea316d21385b68909f,,,,,,,,,,,1729.3161,1730.3123,,,1730.8125,1731.0628,,155,155,,,,,,,,,,,,,,,,bars/037.png,bars/mask000.png,,,,,,,,,,,,3,1,,,,,,,4,0,3,0,,,,,,,,,,,1730.3124,1730.8125,1731.0628,1732.1151,space,1.0351,,1732.1152,5,50,1733.1192,1733.1196,1734.5716,space,1.4142,,0,45,45,45,1,150,105,,,,,,,,
,,614054695c372ace29c2e386,65af5568a4d6aa58b7daa6da,2024-01-23_08h52.18.510,bars,2023.2.3,Win32,63.69426752,657b66ea316d21385b68909f,,,,,,,,,,,1734.5728,1735.5616,,,1736.0621,1736.3113,,4,4,,,,,,,,,,,,,,,,bars/005.png,bars/mask003.png,,,,,,,,,,,,5,1,,,,,,,6,2,6,1,,,,,,,,,,,1735.562,1736.0621,1736.3114,1737.415,space,1.0869,,1737.415,6,44,1738.4119,1738.412,1739.2536,space,0.7974,,0,46,46,46,1,10,140,,,,,,,,
,,614054695c372ace29c2e386,65af5568a4d6aa58b7daa6da,2024-01-23_08h52.18.510,bars,2023.2.3,Win32,63.69426752,657b66ea316d21385b68909f,,,,,,,,,,,1739.2544,1740.2442,,,1740.7361,1740.9891,,40,40,,,,,,,,,,,,,,,,bars/004.png,bars/mask006.png,,,,,,,,,,,,2,1,,,,,,,4,4,3,5,,,,,,,,,,,1740.2446,1740.736,1740.9892,1745.649,space,4.6467,,1745.649,15,85,1746.6523,1746.6527,1748.5142,space,1.8181,,0,47,47,47,1,25,125,,,,,,,,
,,614054695c372ace29c2e386,65af5568a4d6aa58b7daa6da,2024-01-23_08h52.18.510,bars,2023.2.3,Win32,63.69426752,657b66ea316d21385b68909f,,,,,,,,,,,1748.5149,1749.5095,,,1750.0113,1750.2606,,68,68,,,,,,,,,,,,,,,,bars/022.png,bars/mask009.png,,,,,,,,,,,,0,1,,,,,,,2,2,2,3,,,,,,,,,,,1749.5095,1750.0112,1750.261,1751.3473,space,1.0695,,1751.3474,27,48,1752.3517,1752.352,1753.0366,space,0.6604,,0,48,48,48,1,95,20,,,,,,,,
,,614054695c372ace29c2e386,65af5568a4d6aa58b7daa6da,2024-01-23_08h52.18.510,bars,2023.2.3,Win32,63.69426752,657b66ea316d21385b68909f,,,,,,,,,,,1753.0378,1754.0347,,,1754.5382,1754.7853,,92,92,,,,,,,,,,,,,,,,bars/019.png,bars/mask007.png,,,,,,,,,,,,0,2,,,,,,,0,0,0,0,,,,,,,,,,,1754.035,1754.538,1754.7857,1758.1959,space,3.399,,1758.1961,47,13,1759.1934,1759.1935,1760.5039,space,1.2509,,0,49,49,49,1,45,105,,,,,,,,
,,614054695c372ace29c2e386,65af5568a4d6aa58b7daa6da,2024-01-23_08h52.18.510,bars,2023.2.3,Win32,63.69426752,657b66ea316d21385b68909f,,,,,,,,,,,,,,,,,,,,,,,,,,,,,,,,,,,,,,,,,,,,,,,,,,,,,,,,,,,,,,,,,,,,,,,,,,,,,,,,,,,,,,,,,,,,,1760.5055,1820.5015,0,0,0,4,1,sequence_tables/blk014.csv
,,614054695c372ace29c2e386,65af5568a4d6aa58b7daa6da,2024-01-23_08h52.18.510,bars,2023.2.3,Win32,63.69426752,657b66ea316d21385b68909f,,,,,,,,,,,1843.0142,1843.9895,,,1844.4811,1844.7301,,112,112,,,,,,,,,,,,,,,,bars/019.png,bars/mask002.png,,,,,,,,,,,,6,2,,,,,,,10,7,10,8,,,,,,1820.5282,1842.9758,space,22.4317,,1843.9895,1844.481,1844.7302,1850.0141,space,5.2673,,1850.0146,67,7,1851.0054,1851.0055,1851.0298,,,,0,0,0,0,1,45,105,,,,,,,,
,,614054695c372ace29c2e386,65af5568a4d6aa58b7daa6da,2024-01-23_08h52.18.510,bars,2023.2.3,Win32,63.69426752,657b66ea316d21385b68909f,,,,,,,,,,,1851.0305,1852.0213,,,1852.5135,1852.7631,,101,101,,,,,,,,,,,,,,,,bars/039.png,bars/mask008.png,,,,,,,,,,,,5,2,,,,,,,10,5,10,6,,,,,,,,,,,1852.0216,1852.513,1852.7631,1858.5502,space,5.7738,,1858.5504,74,4,1859.5476,1859.5476,1859.5752,,,,0,1,1,1,1,175,105,,,,,,,,
,,614054695c372ace29c2e386,65af5568a4d6aa58b7daa6da,2024-01-23_08h52.18.510,bars,2023.2.3,Win32,63.69426752,657b66ea316d21385b68909f,,,,,,,,,,,1859.5757,1860.5787,,,1861.0713,1861.3211,,125,125,,,,,,,,,,,,,,,,bars/009.png,bars/mask009.png,,,,,,,,,,,,1,2,,,,,,,10,3,9,3,,,,,,,,,,,1860.579,1861.0709,1861.3212,1865.3624,space,4.0229,,1865.3625,70,20,1866.3624,1866.3625,1866.3893,,,,0,2,2,2,1,15,105,,,,,,,,
,,614054695c372ace29c2e386,65af5568a4d6aa58b7daa6da,2024-01-23_08h52.18.510,bars,2023.2.3,Win32,63.69426752,657b66ea316d21385b68909f,,,,,,,,,,,1866.3899,1867.3789,,,1867.8708,1868.1203,,50,50,,,,,,,,,,,,,,,,bars/034.png,bars/mask009.png,,,,,,,,,,,,0,2,,,,,,,8,1,6,0,,,,,,,,,,,1867.3793,1867.8705,1868.1204,1874.6906,space,6.5526,,1874.6906,75,15,1875.6953,1875.6957,1875.7205,,,,0,3,3,3,1,125,65,,,,,,,,
,,614054695c372ace29c2e386,65af5568a4d6aa58b7daa6da,2024-01-23_08h52.18.510,bars,2023.2.3,Win32,63.69426752,657b66ea316d21385b68909f,,,,,,,,,,,1875.7211,1876.7121,,,1877.2038,1877.4537,,8,188,,,,,,,,,,,,,,,,bars/013.png,bars/mask005.png,,,,,,,,,,,,1,2,,,,,,,10,0,10,1,,,,,,,,,,,1876.7122,1877.2037,1877.4538,1883.5082,space,6.0388,,1883.5083,67,2,1884.5112,1884.5112,1884.5381,,,,0,4,4,4,1,75,10,,,,,,,,
,,614054695c372ace29c2e386,65af5568a4d6aa58b7daa6da,2024-01-23_08h52.18.510,bars,2023.2.3,Win32,63.69426752,657b66ea316d21385b68909f,,,,,,,,,,,1884.5388,1885.5279,,,1886.0199,1886.2702,,136,136,,,,,,,,,,,,,,,,bars/018.png,bars/mask008.png,,,,,,,,,,,,5,1,,,,,,,8,0,9,1,,,,,,,,,,,1885.5283,1886.0199,1886.2702,1891.9731,space,5.6869,,1891.9732,14,46,1892.9696,1892.97,1893.0005,,,,0,5,5,5,1,150,90,,,,,,,,
,,614054695c372ace29c2e386,65af5568a4d6aa58b7daa6da,2024-01-23_08h52.18.510,bars,2023.2.3,Win32,63.69426752,657b66ea316d21385b68909f,,,,,,,,,,,1893.0011,1894.0026,,,1894.4947,1894.7439,,145,145,,,,,,,,,,,,,,,,bars/003.png,bars/mask005.png,,,,,,,,,,,,2,2,,,,,,,6,2,7,2,,,,,,,,,,,1894.0031,1894.4943,1894.7446,1898.3516,space,3.5936,,1898.3517,60,5,1899.3521,1899.3523,1899.382,,,,0,6,6,6,1,25,140,,,,,,,,
,,614054695c372ace29c2e386,65af5568a4d6aa58b7daa6da,2024-01-23_08h52.18.510,bars,2023.2.3,Win32,63.69426752,657b66ea316d21385b68909f,,,,,,,,,,,1899.3825,1900.3766,,,1900.8696,1901.119,,173,-7,,,,,,,,,,,,,,,,bars/021.png,bars/mask003.png,,,,,,,,,,,,4,1,,,,,,,8,0,9,0,,,,,,,,,,,1900.377,1900.8695,1901.119,1905.4203,space,4.2841,,1905.4204,18,77,1906.4099,1906.41,1906.4442,,,,0,7,7,7,1,155,70,,,,,,,,
,,614054695c372ace29c2e386,65af5568a4d6aa58b7daa6da,2024-01-23_08h52.18.510,bars,2023.2.3,Win32,63.69426752,657b66ea316d21385b68909f,,,,,,,,,,,1906.4449,1907.4359,,,1907.9272,1908.1768,,98,98,,,,,,,,,,,,,,,,bars/044.png,bars/mask008.png,,,,,,,,,,,,1,1,,,,,,,6,2,6,2,,,,,,,,,,,1907.436,1907.9272,1908.1773,1909.3102,space,1.1186,,1909.3103,23,57,1910.3017,1910.3018,1910.3047,,,,0,8,8,8,1,75,155,,,,,,,,
,,614054695c372ace29c2e386,65af5568a4d6aa58b7daa6da,2024-01-23_08h52.18.510,bars,2023.2.3,Win32,63.69426752,657b66ea316d21385b68909f,,,,,,,,,,,1910.3053,1911.2951,,,1911.7931,1912.0427,,43,43,,,,,,,,,,,,,,,,bars/014.png,bars/mask001.png,,,,,,,,,,,,0,1,,,,,,,8,0,6,0,,,,,,,,,,,1911.2952,1911.793,1912.043,1915.9964,space,3.9382,,1915.9966,37,43,1916.9944,1916.9944,1917.0205,,,,0,9,9,9,1,80,0,,,,,,,,
,,614054695c372ace29c2e386,65af5568a4d6aa58b7daa6da,2024-01-23_08h52.18.510,bars,2023.2.3,Win32,63.69426752,657b66ea316d21385b68909f,,,,,,,,,,,1917.0219,1918.0099,,,1918.5111,1918.761,,90,90,,,,,,,,,,,,,,,,bars/001.png,bars/mask006.png,,,,,,,,,,,,1,2,,,,,,,10,2,10,1,,,,,,,,,,,1918.0099,1918.5111,1918.7611,1919.7451,space,0.9684,,1919.7452,40,5,1920.7439,1920.7439,1920.749,,,,0,10,10,10,1,130,85,,,,,,,,
,,614054695c372ace29c2e386,65af5568a4d6aa58b7daa6da,2024-01-23_08h52.18.510,bars,2023.2.3,Win32,63.69426752,657b66ea316d21385b68909f,,,,,,,,,,,1920.7496,1921.7491,,,1922.2433,1922.4924,,19,19,,,,,,,,,,,,,,,,bars/007.png,bars/mask006.png,,,,,,,,,,,,2,1,,,,,,,10,4,10,4,,,,,,,,,,,1921.7492,1922.2432,1922.4925,1925.2412,space,2.7357,,1925.2412,24,36,1926.2451,1926.2452,1926.2881,,,,0,11,11,11,1,175,55,,,,,,,,
,,614054695c372ace29c2e386,65af5568a4d6aa58b7daa6da,2024-01-23_08h52.18.510,bars,2023.2.3,Win32,63.69426752,657b66ea316d21385b68909f,,,,,,,,,,,1926.2888,1927.2848,,,1927.7785,1928.027,,124,124,,,,,,,,,,,,,,,,bars/044.png,bars/mask006.png,,,,,,,,,,,,0,2,,,,,,,10,2,8,2,,,,,,,,,,,1927.2848,1927.7784,1928.027,1932.4785,space,4.4344,,1932.4786,49,31,1933.4679,1933.4679,1933.4979,,,,0,12,12,12,1,75,155,,,,,,,,
,,614054695c372ace29c2e386,65af5568a4d6aa58b7daa6da,2024-01-23_08h52.18.510,bars,2023.2.3,Win32,63.69426752,657b66ea316d21385b68909f,,,,,,,,,,,1933.4989,1934.4947,,,1934.9917,1935.2423,,4,4,,,,,,,,,,,,,,,,bars/012.png,bars/mask000.png,,,,,,,,,,,,3,2,,,,,,,8,4,8,4,,,,,,,,,,,1934.4948,1934.9915,1935.2423,1939.5374,space,4.283,,1939.5375,86,11,1940.5412,1940.5416,1940.5657,,,,0,13,13,13,1,90,15,,,,,,,,
,,614054695c372ace29c2e386,65af5568a4d6aa58b7daa6da,2024-01-23_08h52.18.510,bars,2023.2.3,Win32,63.69426752,657b66ea316d21385b68909f,,,,,,,,,,,1940.5663,1941.5586,,,1942.0587,1942.308,,118,118,,,,,,,,,,,,,,,,bars/044.png,bars/mask002.png,,,,,,,,,,,,0,2,,,,,,,10,6,9,7,,,,,,,,,,,1941.5586,1942.0582,1942.308,1949.636,space,7.3153,,1949.6361,43,37,1950.6435,1950.6437,1950.6685,,,,0,14,14,14,1,75,155,,,,,,,,
,,614054695c372ace29c2e386,65af5568a4d6aa58b7daa6da,2024-01-23_08h52.18.510,bars,2023.2.3,Win32,63.69426752,657b66ea316d21385b68909f,,,,,,,,,,,1950.669,1951.6601,,,1952.1591,1952.4095,,44,224,,,,,,,,,,,,,,,,bars/005.png,bars/mask008.png,,,,,,,,,,,,0,1,,,,,,,8,8,9,8,,,,,,,,,,,1951.6601,1952.159,1952.4096,1957.8445,space,5.4205,,1957.8446,34,84,1958.8406,1958.841,1958.8741,,,,0,15,15,15,1,10,140,,,,,,,,
,,614054695c372ace29c2e386,65af5568a4d6aa58b7daa6da,2024-01-23_08h52.18.510,bars,2023.2.3,Win32,63.69426752,657b66ea316d21385b68909f,,,,,,,,,,,1958.8747,1959.8737,,,1960.3754,1960.626,,129,129,,,,,,,,,,,,,,,,bars/033.png,bars/mask009.png,,,,,,,,,,,,1,2,,,,,,,6,10,8,9,,,,,,,,,,,1959.8737,1960.3752,1960.6261,1961.7929,space,1.1516,,1961.7929,76,26,1962.7822,1962.7822,1962.7888,,,,0,16,16,16,1,25,155,,,,,,,,
,,614054695c372ace29c2e386,65af5568a4d6aa58b7daa6da,2024-01-23_08h52.18.510,bars,2023.2.3,Win32,63.69426752,657b66ea316d21385b68909f,,,,,,,,,,,1962.7897,1963.7898,,,1964.2825,1964.5319,,142,-38,,,,,,,,,,,,,,,,bars/011.png,bars/mask007.png,,,,,,,,,,,,1,1,,,,,,,4,10,3,10,,,,,,,,,,,1963.7901,1964.2825,1964.5322,1974.5077,space,9.9556,,1974.5084,18,57,1975.5062,1975.5063,1975.5356,,,,0,17,17,17,1,160,85,,,,,,,,
,,614054695c372ace29c2e386,65af5568a4d6aa58b7daa6da,2024-01-23_08h52.18.510,bars,2023.2.3,Win32,63.69426752,657b66ea316d21385b68909f,,,,,,,,,,,1975.5362,1976.5391,,,1977.0315,1977.2821,,119,119,,,,,,,,,,,,,,,,bars/024.png,bars/mask008.png,,,,,,,,,,,,1,1,,,,,,,2,10,1,9,,,,,,,,,,,1976.5394,1977.0314,1977.2821,1980.0554,space,2.7572,,1980.0555,1,51,1981.0481,1981.0482,1981.0739,,,,0,18,18,18,1,120,170,,,,,,,,
,,614054695c372ace29c2e386,65af5568a4d6aa58b7daa6da,2024-01-23_08h52.18.510,bars,2023.2.3,Win32,63.69426752,657b66ea316d21385b68909f,,,,,,,,,,,1981.0746,1982.0647,,,1982.5558,1982.8058,,179,-1,,,,,,,,,,,,,,,,bars/045.png,bars/mask002.png,,,,,,,,,,,,5,2,,,,,,,0,8,0,8,,,,,,,,,,,1982.0652,1982.5557,1982.8061,1986.723,space,3.9013,,1986.7238,79,11,1987.7148,1987.7149,1987.7436,,,,0,19,19,19,1,100,10,,,,,,,,
,,614054695c372ace29c2e386,65af5568a4d6aa58b7daa6da,2024-01-23_08h52.18.510,bars,2023.2.3,Win32,63.69426752,657b66ea316d21385b68909f,,,,,,,,,,,1987.7443,1988.7383,,,1989.2387,1989.4887,,117,117,,,,,,,,,,,,,,,,bars/003.png,bars/mask001.png,,,,,,,,,,,,2,2,,,,,,,0,10,1,10,,,,,,,,,,,1988.7386,1989.2384,1989.4887,1992.4068,space,2.902,,1992.4073,88,23,1993.3976,1993.3977,1993.4228,,,,0,20,20,20,1,25,140,,,,,,,,
,,614054695c372ace29c2e386,65af5568a4d6aa58b7daa6da,2024-01-23_08h52.18.510,bars,2023.2.3,Win32,63.69426752,657b66ea316d21385b68909f,,,,,,,,,,,1993.4234,1994.4132,,,1994.9137,1995.1642,,145,145,,,,,,,,,,,,,,,,bars/003.png,bars/mask006.png,,,,,,,,,,,,8,2,,,,,,,0,10,0,9,,,,,,,,,,,1994.4136,1994.9135,1995.1643,1998.5583,space,3.376,,1998.5584,60,5,1999.5473,1999.5474,1999.5726,,,,0,21,21,21,1,25,140,,,,,,,,
,,614054695c372ace29c2e386,65af5568a4d6aa58b7daa6da,2024-01-23_08h52.18.510,bars,2023.2.3,Win32,63.69426752,657b66ea316d21385b68909f,,,,,,,,,,,1999.5733,2000.5642,,,2001.0547,2001.3046,,134,-46,,,,,,,,,,,,,,,,bars/028.png,bars/mask008.png,,,,,,,,,,,,5,2,,,,,,,2,10,2,10,,,,,,,,,,,2000.5642,2001.0546,2001.3051,2006.2331,space,4.9152,,2006.2331,89,14,2007.2374,2007.2377,2007.2617,,,,0,22,22,22,1,45,120,,,,,,,,
,,614054695c372ace29c2e386,65af5568a4d6aa58b7daa6da,2024-01-23_08h52.18.510,bars,2023.2.3,Win32,63.69426752,657b66ea316d21385b68909f,,,,,,,,,,,2007.2623,2008.2542,,,2008.7469,2008.9958,,126,126,,,,,,,,,,,,,,,,bars/015.png,bars/mask008.png,,,,,,,,,,,,1,1,,,,,,,4,10,3,9,,,,,,,,,,,2008.2543,2008.7469,2008.9962,2014.9328,space,5.9203,,2014.933,16,34,2015.9369,2015.9371,2015.9672,,,,0,23,23,23,1,110,160,,,,,,,,
,,614054695c372ace29c2e386,65af5568a4d6aa58b7daa6da,2024-01-23_08h52.18.510,bars,2023.2.3,Win32,63.69426752,657b66ea316d21385b68909f,,,,,,,,,,,2015.9679,2016.9623,,,2017.4555,2017.7073,,87,87,,,,,,,,,,,,,,,,bars/028.png,bars/mask001.png,,,,,,,,,,,,0,2,,,,,,,2,10,2,8,,,,,,,,,,,2016.9623,2017.4554,2017.7074,2021.356,space,3.6338,,2021.3561,42,33,2022.3462,2022.3462,2022.374,,,,0,24,24,24,1,45,120,,,,,,,,
,,614054695c372ace29c2e386,65af5568a4d6aa58b7daa6da,2024-01-23_08h52.18.510,bars,2023.2.3,Win32,63.69426752,657b66ea316d21385b68909f,,,,,,,,,,,2022.3747,2023.3701,,,2023.8701,2024.1123,,24,24,,,,,,,,,,,,,,,,bars/012.png,bars/mask004.png,,,,,,,,,,,,7,2,,,,,,,0,10,0,10,,,,,,,,,,,2023.3706,2023.87,2024.1128,2027.8723,space,3.7402,,2027.8724,66,9,2028.8694,2028.8697,2028.8942,,,,0,25,25,25,1,90,15,,,,,,,,
,,614054695c372ace29c2e386,65af5568a4d6aa58b7daa6da,2024-01-23_08h52.18.510,bars,2023.2.3,Win32,63.69426752,657b66ea316d21385b68909f,,,,,,,,,,,2028.8948,2029.8866,,,2030.3864,2030.6359,,158,158,,,,,,,,,,,,,,,,bars/034.png,bars/mask005.png,,,,,,,,,,,,0,1,,,,,,,0,10,0,10,,,,,,,,,,,2029.8869,2030.3863,2030.6362,2040.9992,space,10.3508,,2040.9993,33,87,2041.9943,2041.9948,2042.0257,,,,0,26,26,26,1,125,65,,,,,,,,
,,614054695c372ace29c2e386,65af5568a4d6aa58b7daa6da,2024-01-23_08h52.18.510,bars,2023.2.3,Win32,63.69426752,657b66ea316d21385b68909f,,,,,,,,,,,2042.0263,2043.0189,,,2043.5205,2043.7707,,42,42,,,,,,,,,,,,,,,,bars/020.png,bars/mask002.png,,,,,,,,,,,,0,2,,,,,,,0,8,0,6,,,,,,,,,,,2043.019,2043.5204,2043.7708,2048.8716,space,5.0856,,2048.8717,73,52,2049.8703,2049.8705,2049.8987,,,,0,27,27,27,1,115,170,,,,,,,,
,,614054695c372ace29c2e386,65af5568a4d6aa58b7daa6da,2024-01-23_08h52.18.510,bars,2023.2.3,Win32,63.69426752,657b66ea316d21385b68909f,,,,,,,,,,,2049.8993,2050.9011,,,2051.4023,2051.6522,,141,141,,,,,,,,,,,,,,,,bars/011.png,bars/mask008.png,,,,,,,,,,,,1,1,,,,,,,2,6,2,5,,,,,,,,,,,2050.9012,2051.4018,2051.6523,2055.0713,space,3.4048,,2055.0713,19,56,2056.0598,2056.0601,2056.0893,,,,0,28,28,28,1,160,85,,,,,,,,
,,614054695c372ace29c2e386,65af5568a4d6aa58b7daa6da,2024-01-23_08h52.18.510,bars,2023.2.3,Win32,63.69426752,657b66ea316d21385b68909f,,,,,,,,,,,2056.0899,2057.0854,,,2057.5766,2057.8265,,125,125,,,,,,,,,,,,,,,,bars/040.png,bars/mask000.png,,,,,,,,,,,,0,1,,,,,,,0,8,0,8,,,,,,,,,,,2057.0854,2057.5763,2057.827,2060.5232,space,2.6804,,2060.5233,15,60,2061.5269,2061.527,2061.5542,,,,0,29,29,29,1,140,5,,,,,,,,
,,614054695c372ace29c2e386,65af5568a4d6aa58b7daa6da,2024-01-23_08h52.18.510,bars,2023.2.3,Win32,63.69426752,657b66ea316d21385b68909f,,,,,,,,,,,2061.5549,2062.5594,,,2063.0516,2063.2912,,122,122,,,,,,,,,,,,,,,,bars/025.png,bars/mask004.png,,,,,,,,,,,,0,1,,,,,,,0,6,0,7,,,,,,,,,,,2062.5598,2063.0511,2063.2913,2064.8961,space,1.5926,,2064.8962,17,82,2065.8933,2065.8934,2065.896,,,,0,30,30,30,1,105,40,,,,,,,,
,,614054695c372ace29c2e386,65af5568a4d6aa58b7daa6da,2024-01-23_08h52.18.510,bars,2023.2.3,Win32,63.69426752,657b66ea316d21385b68909f,,,,,,,,,,,2065.8967,2066.8942,,,2067.3847,2067.6342,,36,36,,,,,,,,,,,,,,,,bars/029.png,bars/mask009.png,,,,,,,,,,,,7,2,,,,,,,0,8,1,10,,,,,,,,,,,2066.8943,2067.3843,2067.6343,2074.069,space,6.4173,,2074.0692,54,9,2075.0688,2075.0688,2075.1013,,,,0,31,31,31,1,90,45,,,,,,,,
,,614054695c372ace29c2e386,65af5568a4d6aa58b7daa6da,2024-01-23_08h52.18.510,bars,2023.2.3,Win32,63.69426752,657b66ea316d21385b68909f,,,,,,,,,,,2075.102,2076.092,,,2076.5838,2076.8335,,160,160,,,,,,,,,,,,,,,,bars/010.png,bars/mask000.png,,,,,,,,,,,,0,1,,,,,,,0,10,0,10,,,,,,,,,,,2076.0924,2076.5837,2076.8336,2078.7846,space,1.936,,2078.7852,5,75,2079.775,2079.7754,2079.8038,,,,0,32,32,32,1,165,55,,,,,,,,
,,614054695c372ace29c2e386,65af5568a4d6aa58b7daa6da,2024-01-23_08h52.18.510,bars,2023.2.3,Win32,63.69426752,657b66ea316d21385b68909f,,,,,,,,,,,2079.8044,2080.802,,,2081.3002,2081.5501,,11,191,,,,,,,,,,,,,,,,bars/010.png,bars/mask006.png,,,,,,,,,,,,0,1,,,,,,,0,10,0,9,,,,,,,,,,,2080.802,2081.3002,2081.5502,2088.0515,space,6.4833,,2088.0518,26,44,2089.0494,2089.0497,2089.0738,,,,0,33,33,33,1,165,55,,,,,,,,
,,614054695c372ace29c2e386,65af5568a4d6aa58b7daa6da,2024-01-23_08h52.18.510,bars,2023.2.3,Win32,63.69426752,657b66ea316d21385b68909f,,,,,,,,,,,2089.0744,2090.0658,,,2090.5583,2090.8083,,117,117,,,,,,,,,,,,,,,,bars/046.png,bars/mask001.png,,,,,,,,,,,,0,2,,,,,,,2,8,1,7,,,,,,,,,,,2090.0662,2090.5583,2090.8084,2094.6451,space,3.8202,,2094.6451,38,32,2095.6341,2095.6342,2095.6683,,,,0,34,34,34,1,155,85,,,,,,,,
,,614054695c372ace29c2e386,65af5568a4d6aa58b7daa6da,2024-01-23_08h52.18.510,bars,2023.2.3,Win32,63.69426752,657b66ea316d21385b68909f,,,,,,,,,,,2095.669,2096.6584,,,2097.1493,2097.4002,,96,96,,,,,,,,,,,,,,,,bars/027.png,bars/mask002.png,,,,,,,,,,,,0,1,,,,,,,0,6,0,7,,,,,,,,,,,2096.6584,2097.1493,2097.4007,2099.3349,space,1.9187,,2099.335,14,46,2100.3342,2100.3342,2100.3625,,,,0,35,35,35,1,110,50,,,,,,,,
,,614054695c372ace29c2e386,65af5568a4d6aa58b7daa6da,2024-01-23_08h52.18.510,bars,2023.2.3,Win32,63.69426752,657b66ea316d21385b68909f,,,,,,,,,,,2100.3631,2101.3608,,,2101.8535,2102.1019,,10,10,,,,,,,,,,,,,,,,bars/011.png,bars/mask006.png,,,,,,,,,,,,0,1,,,,,,,0,8,2,8,,,,,,,,,,,2101.3609,2101.8534,2102.1019,2104.7691,space,2.6559,,2104.7693,30,75,2105.7673,2105.7674,2105.7958,,,,0,36,36,36,1,160,85,,,,,,,,
,,614054695c372ace29c2e386,65af5568a4d6aa58b7daa6da,2024-01-23_08h52.18.510,bars,2023.2.3,Win32,63.69426752,657b66ea316d21385b68909f,,,,,,,,,,,2105.7978,2106.7902,,,2107.2838,2107.5336,,36,36,,,,,,,,,,,,,,,,bars/028.png,bars/mask007.png,,,,,,,,,,,,0,1,,,,,,,0,6,0,7,,,,,,,,,,,2106.7906,2107.2837,2107.5337,2112.7215,space,5.177,,2112.7216,9,84,2113.7191,2113.7191,2113.7486,,,,0,37,37,37,1,45,120,,,,,,,,
,,614054695c372ace29c2e386,65af5568a4d6aa58b7daa6da,2024-01-23_08h52.18.510,bars,2023.2.3,Win32,63.69426752,657b66ea316d21385b68909f,,,,,,,,,,,2113.7492,2114.74,,,2115.2316,2115.4814,,154,154,,,,,,,,,,,,,,,,bars/049.png,bars/mask005.png,,,,,,,,,,,,1,1,,,,,,,0,8,1,9,,,,,,,,,,,2114.74,2115.2316,2115.4815,2119.5928,space,4.0991,,2119.5928,6,39,2120.5814,2120.5818,2120.6066,,,,0,38,38,38,1,160,115,,,,,,,,
,,614054695c372ace29c2e386,65af5568a4d6aa58b7daa6da,2024-01-23_08h52.18.510,bars,2023.2.3,Win32,63.69426752,657b66ea316d21385b68909f,,,,,,,,,,,2120.6071,2121.5979,,,2122.0904,2122.3402,,5,5,,,,,,,,,,,,,,,,bars/004.png,bars/mask001.png,,,,,,,,,,,,1,1,,,,,,,2,6,2,7,,,,,,,,,,,2121.5983,2122.0904,2122.3402,2125.6764,space,3.3195,,2125.6764,20,60,2126.6724,2126.6727,2126.6997,,,,0,39,39,39,1,25,125,,,,,,,,
,,614054695c372ace29c2e386,65af5568a4d6aa58b7daa6da,2024-01-23_08h52.18.510,bars,2023.2.3,Win32,63.69426752,657b66ea316d21385b68909f,,,,,,,,,,,2126.7005,2127.6898,,,2128.1806,2128.4308,,4,4,,,,,,,,,,,,,,,,bars/041.png,bars/mask007.png,,,,,,,,,,,,2,1,,,,,,,4,4,5,3,,,,,,,,,,,2127.6898,2128.1805,2128.4309,2131.198,space,2.7523,,2131.199,16,81,2132.1899,2132.19,2132.2167,,,,0,40,40,40,1,20,85,,,,,,,,
,,614054695c372ace29c2e386,65af5568a4d6aa58b7daa6da,2024-01-23_08h52.18.510,bars,2023.2.3,Win32,63.69426752,657b66ea316d21385b68909f,,,,,,,,,,,2132.2186,2133.2157,,,2133.7156,2133.9655,,6,6,,,,,,,,,,,,,,,,bars/045.png,bars/mask002.png,,,,,,,,,,,,6,2,,,,,,,2,6,1,7,,,,,,,,,,,2133.2159,2133.7156,2133.9656,2138.0586,space,4.0803,,2138.0587,86,4,2139.0469,2139.047,2139.0786,,,,0,41,41,41,1,100,10,,,,,,,,
,,614054695c372ace29c2e386,65af5568a4d6aa58b7daa6da,2024-01-23_08h52.18.510,bars,2023.2.3,Win32,63.69426752,657b66ea316d21385b68909f,,,,,,,,,,,2139.0796,2140.0727,,,2140.564,2140.8294,,31,31,,,,,,,,,,,,,,,,bars/017.png,bars/mask005.png,,,,,,,,,,,,2,2,,,,,,,4,4,3,3,,,,,,,,,,,2140.0728,2140.5636,2140.8294,2143.4313,space,2.5911,,2143.4313,66,14,2144.4225,2144.4225,2144.449,,,,0,42,42,42,1,145,45,,,,,,,,
,,614054695c372ace29c2e386,65af5568a4d6aa58b7daa6da,2024-01-23_08h52.18.510,bars,2023.2.3,Win32,63.69426752,657b66ea316d21385b68909f,,,,,,,,,,,2144.4496,2145.438,,,2145.9391,2146.189,,27,27,,,,,,,,,,,,,,,,bars/019.png,bars/mask009.png,,,,,,,,,,,,2,1,,,,,,,2,6,4,6,,,,,,,,,,,2145.4384,2145.939,2146.189,2151.4747,space,5.2693,,2151.4748,18,78,2152.4717,2152.4718,2152.5044,,,,0,43,43,43,1,45,105,,,,,,,,
,,614054695c372ace29c2e386,65af5568a4d6aa58b7daa6da,2024-01-23_08h52.18.510,bars,2023.2.3,Win32,63.69426752,657b66ea316d21385b68909f,,,,,,,,,,,2152.505,2153.496,,,2153.9963,2154.2459,,133,133,,,,,,,,,,,,,,,,bars/024.png,bars/mask002.png,,,,,,,,,,,,0,1,,,,,,,0,8,0,8,,,,,,,,,,,2153.496,2153.9962,2154.2459,2155.9201,space,1.6602,,2155.9203,13,37,2156.9122,2156.9126,2156.9367,,,,0,44,44,44,1,120,170,,,,,,,,
,,614054695c372ace29c2e386,65af5568a4d6aa58b7daa6da,2024-01-23_08h52.18.510,bars,2023.2.3,Win32,63.69426752,657b66ea316d21385b68909f,,,,,,,,,,,2156.9373,2157.9291,,,2158.4296,2158.6787,,145,145,,,,,,,,,,,,,,,,bars/049.png,bars/mask008.png,,,,,,,,,,,,1,1,,,,,,,2,6,1,7,,,,,,,,,,,2157.9292,2158.4292,2158.679,2161.8076,space,3.1159,,2161.8076,15,30,2162.7967,2162.7967,2162.8214,,,,0,45,45,45,1,160,115,,,,,,,,
,,614054695c372ace29c2e386,65af5568a4d6aa58b7daa6da,2024-01-23_08h52.18.510,bars,2023.2.3,Win32,63.69426752,657b66ea316d21385b68909f,,,,,,,,,,,2162.8219,2163.8121,,,2164.3049,2164.5472,,38,38,,,,,,,,,,,,,,,,bars/009.png,bars/mask003.png,,,,,,,,,,,,0,1,,,,,,,0,4,0,4,,,,,,,,,,,2163.8125,2164.3048,2164.5474,2167.6654,space,3.1011,,2167.6654,23,67,2168.6544,2168.6545,2168.6821,,,,0,46,46,46,1,15,105,,,,,,,,
,,614054695c372ace29c2e386,65af5568a4d6aa58b7daa6da,2024-01-23_08h52.18.510,bars,2023.2.3,Win32,63.69426752,657b66ea316d21385b68909f,,,,,,,,,,,2168.6829,2169.6803,,,2170.1709,2170.4211,,19,19,,,,,,,,,,,,,,,,bars/006.png,bars/mask000.png,,,,,,,,,,,,1,1,,,,,,,2,6,2,6,,,,,,,,,,,2169.6804,2170.1708,2170.4212,2175.662,space,5.2233,,2175.6621,16,81,2176.6612,2176.6615,2176.687,,,,0,47,47,47,1,35,100,,,,,,,,
,,614054695c372ace29c2e386,65af5568a4d6aa58b7daa6da,2024-01-23_08h52.18.510,bars,2023.2.3,Win32,63.69426752,657b66ea316d21385b68909f,,,,,,,,,,,2176.6876,2177.6799,,,2178.1811,2178.4299,,27,207,,,,,,,,,,,,,,,,bars/000.png,bars/mask004.png,,,,,,,,,,,,0,1,,,,,,,0,4,0,3,,,,,,,,,,,2177.6801,2178.181,2178.4299,2182.0477,space,3.6034,,2182.0477,13,62,2183.0444,2183.0444,2183.0695,,,,0,48,48,48,1,40,145,,,,,,,,
,,614054695c372ace29c2e386,65af5568a4d6aa58b7daa6da,2024-01-23_08h52.18.510,bars,2023.2.3,Win32,63.69426752,657b66ea316d21385b68909f,,,,,,,,,,,2183.0701,2184.0617,,,2184.561,2184.811,,3,183,,,,,,,,,,,,,,,,bars/025.png,bars/mask003.png,,,,,,,,,,,,0,2,,,,,,,2,2,2,3,,,,,,,,,,,2184.0621,2184.561,2184.811,2190.6235,space,5.8006,,2190.6235,78,37,2191.6188,2191.6191,2191.6488,,,,0,49,49,49,1,105,40,,,,,,,,
,,614054695c372ace29c2e386,65af5568a4d6aa58b7daa6da,2024-01-23_08h52.18.510,bars,2023.2.3,Win32,63.69426752,657b66ea316d21385b68909f,,,,,,,,,,,,,,,,,,,,,,,,,,,,,,,,,,,,,,,,,,,,,,,,,,,,,,,,,,,,,,,,,,,,,,,,,,,,,,,,,,,,,,,,,,,,,2191.6492,2251.6421,0,1,1,2,1,sequence_tables/blk043.csv
,,614054695c372ace29c2e386,65af5568a4d6aa58b7daa6da,2024-01-23_08h52.18.510,bars,2023.2.3,Win32,63.69426752,657b66ea316d21385b68909f,,,,,,,,,,,2253.8936,2254.8835,,,2255.3752,2255.625,,152,152,,,,,,,,,,,,,,,,bars/038.png,bars/mask001.png,,,,,,,,,,,,2,1,,,,,,,3,6,4,7,,,,,,2251.6623,2253.8766,space,2.197,,2254.8835,2255.375,2255.6251,2259.2854,space,3.6485,,2259.2855,13,82,2260.2894,2260.2897,2260.315,,,,0,0,0,0,1,165,70,,,,,,,,
,,614054695c372ace29c2e386,65af5568a4d6aa58b7daa6da,2024-01-23_08h52.18.510,bars,2023.2.3,Win32,63.69426752,657b66ea316d21385b68909f,,,,,,,,,,,2260.3157,2261.316,,,2261.8065,2262.0565,,144,-36,,,,,,,,,,,,,,,,bars/042.png,bars/mask005.png,,,,,,,,,,,,3,1,,,,,,,5,8,3,7,,,,,,,,,,,2261.316,2261.8062,2262.0569,2266.7162,space,4.6474,,2266.7162,1,69,2267.706,2267.7063,2267.7306,,,,0,1,1,1,1,145,75,,,,,,,,
,,614054695c372ace29c2e386,65af5568a4d6aa58b7daa6da,2024-01-23_08h52.18.510,bars,2023.2.3,Win32,63.69426752,657b66ea316d21385b68909f,,,,,,,,,,,2267.7312,2268.7225,,,2269.215,2269.4592,,13,193,,,,,,,,,,,,,,,,bars/014.png,bars/mask007.png,,,,,,,,,,,,6,2,,,,,,,7,10,8,10,,,,,,,,,,,2268.7227,2269.2147,2269.4592,2275.343,space,5.8707,,2275.3431,67,13,2276.3409,2276.341,2276.372,,,,0,2,2,2,1,80,0,,,,,,,,
,,614054695c372ace29c2e386,65af5568a4d6aa58b7daa6da,2024-01-23_08h52.18.510,bars,2023.2.3,Win32,63.69426752,657b66ea316d21385b68909f,,,,,,,,,,,2276.3726,2277.3639,,,2277.8644,2278.1151,,152,152,,,,,,,,,,,,,,,,bars/049.png,bars/mask003.png,,,,,,,,,,,,4,1,,,,,,,5,10,5,10,,,,,,,,,,,2277.3643,2277.8644,2278.1151,2280.3676,space,2.2362,,2280.3676,8,37,2281.3719,2281.3722,2281.3994,,,,0,3,3,3,1,160,115,,,,,,,,
,,614054695c372ace29c2e386,65af5568a4d6aa58b7daa6da,2024-01-23_08h52.18.510,bars,2023.2.3,Win32,63.69426752,657b66ea316d21385b68909f,,,,,,,,,,,2281.4001,2282.3888,,,2282.8813,2283.1315,,144,-36,,,,,,,,,,,,,,,,bars/008.png,bars/mask008.png,,,,,,,,,,,,0,1,,,,,,,3,10,2,8,,,,,,,,,,,2282.3888,2282.8813,2283.1316,2287.2837,space,4.1361,,2287.2838,34,36,2288.2882,2288.2885,2288.3134,,,,0,4,4,4,1,110,0,,,,,,,,
,,614054695c372ace29c2e386,65af5568a4d6aa58b7daa6da,2024-01-23_08h52.18.510,bars,2023.2.3,Win32,63.69426752,657b66ea316d21385b68909f,,,,,,,,,,,2288.3142,2289.3134,,,2289.8052,2290.0552,,28,28,,,,,,,,,,,,,,,,bars/007.png,bars/mask004.png,,,,,,,,,,,,1,2,,,,,,,1,10,1,9,,,,,,,,,,,2289.3137,2289.8051,2290.0552,2292.7567,space,2.686,,2292.7568,33,27,2293.7546,2293.7549,2293.7822,,,,0,5,5,5,1,175,55,,,,,,,,
,,614054695c372ace29c2e386,65af5568a4d6aa58b7daa6da,2024-01-23_08h52.18.510,bars,2023.2.3,Win32,63.69426752,657b66ea316d21385b68909f,,,,,,,,,,,2293.7828,2294.7799,,,2295.2721,2295.5212,,165,165,,,,,,,,,,,,,,,,bars/044.png,bars/mask000.png,,,,,,,,,,,,7,2,,,,,,,3,10,1,10,,,,,,,,,,,2294.7799,2295.272,2295.5213,2297.1833,space,1.6489,,2297.1834,90,10,2298.1743,2298.1745,2298.1778,,,,0,6,6,6,1,75,155,,,,,,,,
,,614054695c372ace29c2e386,65af5568a4d6aa58b7daa6da,2024-01-23_08h52.18.510,bars,2023.2.3,Win32,63.69426752,657b66ea316d21385b68909f,,,,,,,,,,,2298.1784,2299.171,,,2299.6638,2299.9135,,26,26,,,,,,,,,,,,,,,,bars/018.png,bars/mask007.png,,,,,,,,,,,,0,1,,,,,,,5,10,5,10,,,,,,,,,,,2299.1712,2299.6637,2299.9135,2300.5329,space,0.6019,,2300.5329,56,64,2301.5377,2301.5381,2301.5444,,,,0,7,7,7,1,150,90,,,,,,,,
,,614054695c372ace29c2e386,65af5568a4d6aa58b7daa6da,2024-01-23_08h52.18.510,bars,2023.2.3,Win32,63.69426752,657b66ea316d21385b68909f,,,,,,,,,,,2301.545,2302.5373,,,2303.038,2303.2902,,61,61,,,,,,,,,,,,,,,,bars/038.png,bars/mask000.png,,,,,,,,,,,,6,2,,,,,,,7,8,7,9,,,,,,,,,,,2302.5377,2303.0375,2303.2903,2304.5389,space,1.2342,,2304.5393,76,9,2305.529,2305.529,2305.537,,,,0,8,8,8,1,165,70,,,,,,,,
,,614054695c372ace29c2e386,65af5568a4d6aa58b7daa6da,2024-01-23_08h52.18.510,bars,2023.2.3,Win32,63.69426752,657b66ea316d21385b68909f,,,,,,,,,,,2305.539,2306.5298,,,2307.0235,2307.2709,,178,-2,,,,,,,,,,,,,,,,bars/023.png,bars/mask008.png,,,,,,,,,,,,2,1,,,,,,,5,6,7,5,,,,,,,,,,,2306.5302,2307.0234,2307.2709,2310.3052,space,3.0194,,2310.3057,22,63,2311.2956,2311.2959,2311.3245,,,,0,9,9,9,1,20,115,,,,,,,,
,,614054695c372ace29c2e386,65af5568a4d6aa58b7daa6da,2024-01-23_08h52.18.510,bars,2023.2.3,Win32,63.69426752,657b66ea316d21385b68909f,,,,,,,,,,,2311.3251,2312.3209,,,2312.8205,2313.0698,,144,144,,,,,,,,,,,,,,,,bars/020.png,bars/mask004.png,,,,,,,,,,,,1,2,,,,,,,7,8,7,10,,,,,,,,,,,2312.321,2312.8204,2313.0699,2315.4722,space,2.3852,,2315.4724,29,26,2316.4619,2316.4619,2316.4688,,,,0,10,10,10,1,115,170,,,,,,,,
,,614054695c372ace29c2e386,65af5568a4d6aa58b7daa6da,2024-01-23_08h52.18.510,bars,2023.2.3,Win32,63.69426752,657b66ea316d21385b68909f,,,,,,,,,,,2316.4698,2317.4652,,,2317.9706,2318.2199,,178,178,,,,,,,,,,,,,,,,bars/023.png,bars/mask000.png,,,,,,,,,,,,2,1,,,,,,,9,10,8,9,,,,,,,,,,,2317.4653,2317.9702,2318.2201,2319.3745,space,1.1367,,2319.3746,22,63,2320.3716,2320.3716,2320.3772,,,,0,11,11,11,1,20,115,,,,,,,,
,,614054695c372ace29c2e386,65af5568a4d6aa58b7daa6da,2024-01-23_08h52.18.510,bars,2023.2.3,Win32,63.69426752,657b66ea316d21385b68909f,,,,,,,,,,,2320.3779,2321.3718,,,2321.8726,2322.1214,,16,196,,,,,,,,,,,,,,,,bars/043.png,bars/mask008.png,,,,,,,,,,,,5,1,,,,,,,10,10,9,10,,,,,,,,,,,2321.3718,2321.8726,2322.1214,2325.6223,space,3.4849,,2325.6224,14,66,2326.6213,2326.6214,2326.6475,,,,0,12,12,12,1,30,130,,,,,,,,
,,614054695c372ace29c2e386,65af5568a4d6aa58b7daa6da,2024-01-23_08h52.18.510,bars,2023.2.3,Win32,63.69426752,657b66ea316d21385b68909f,,,,,,,,,,,2326.6482,2327.6367,,,2328.1288,2328.3782,,29,29,,,,,,,,,,,,,,,,bars/039.png,bars/mask005.png,,,,,,,,,,,,0,1,,,,,,,8,8,8,8,,,,,,,,,,,2327.6369,2328.1288,2328.3782,2329.8875,space,1.4892,,2329.888,34,76,2330.8776,2330.878,2330.9049,,,,0,13,13,13,1,175,105,,,,,,,,
,,614054695c372ace29c2e386,65af5568a4d6aa58b7daa6da,2024-01-23_08h52.18.510,bars,2023.2.3,Win32,63.69426752,657b66ea316d21385b68909f,,,,,,,,,,,2330.9056,2331.8942,,,2332.3973,2332.6387,,124,124,,,,,,,,,,,,,,,,bars/004.png,bars/mask006.png,,,,,,,,,,,,10,2,,,,,,,10,10,10,10,,,,,,,,,,,2331.8946,2332.3971,2332.6388,2338.0402,space,5.3864,,2338.0404,81,1,2339.045,2339.0456,2339.0776,,,,0,14,14,14,1,25,125,,,,,,,,
,,614054695c372ace29c2e386,65af5568a4d6aa58b7daa6da,2024-01-23_08h52.18.510,bars,2023.2.3,Win32,63.69426752,657b66ea316d21385b68909f,,,,,,,,,,,2339.0791,2340.0686,,,2340.569,2340.8188,,133,133,,,,,,,,,,,,,,,,bars/045.png,bars/mask001.png,,,,,,,,,,,,0,1,,,,,,,8,10,6,10,,,,,,,,,,,2340.069,2340.5687,2340.8189,2349.1801,space,8.3483,,2349.1801,33,57,2350.1775,2350.1776,2350.2087,,,,0,15,15,15,1,100,10,,,,,,,,
,,614054695c372ace29c2e386,65af5568a4d6aa58b7daa6da,2024-01-23_08h52.18.510,bars,2023.2.3,Win32,63.69426752,657b66ea316d21385b68909f,,,,,,,,,,,2350.2093,2351.2022,,,2351.7018,2351.9433,,30,30,,,,,,,,,,,,,,,,bars/012.png,bars/mask009.png,,,,,,,,,,,,5,2,,,,,,,10,10,10,9,,,,,,,,,,,2351.2023,2351.7015,2351.9434,2355.6723,space,3.7126,,2355.6724,60,15,2356.6607,2356.6608,2356.6893,,,,0,16,16,16,1,90,15,,,,,,,,
,,614054695c372ace29c2e386,65af5568a4d6aa58b7daa6da,2024-01-23_08h52.18.510,bars,2023.2.3,Win32,63.69426752,657b66ea316d21385b68909f,,,,,,,,,,,2356.69,2357.6955,,,2358.1865,2358.4377,,101,101,,,,,,,,,,,,,,,,bars/042.png,bars/mask004.png,,,,,,,,,,,,1,2,,,,,,,10,10,10,10,,,,,,,,,,,2357.6956,2358.1864,2358.4378,2362.6372,space,4.1816,,2362.6372,44,26,2363.6358,2363.6359,2363.6617,,,,0,17,17,17,1,145,75,,,,,,,,
,,614054695c372ace29c2e386,65af5568a4d6aa58b7daa6da,2024-01-23_08h52.18.510,bars,2023.2.3,Win32,63.69426752,657b66ea316d21385b68909f,,,,,,,,,,,2363.6633,2364.6514,,,2365.1431,2365.3931,,153,153,,,,,,,,,,,,,,,,bars/021.png,bars/mask000.png,,,,,,,,,,,,8,1,,,,,,,10,10,9,10,,,,,,,,,,,2364.6514,2365.143,2365.3931,2368.2792,space,2.8695,,2368.2794,2,83,2369.2682,2369.2682,2369.3006,,,,0,18,18,18,1,155,70,,,,,,,,
,,614054695c372ace29c2e386,65af5568a4d6aa58b7daa6da,2024-01-23_08h52.18.510,bars,2023.2.3,Win32,63.69426752,657b66ea316d21385b68909f,,,,,,,,,,,2369.3013,2370.2925,,,2370.7924,2371.0359,,37,217,,,,,,,,,,,,,,,,bars/014.png,bars/mask001.png,,,,,,,,,,,,0,2,,,,,,,8,8,10,8,,,,,,,,,,,2370.2925,2370.7924,2371.036,2375.4194,space,4.3668,,2375.4196,43,37,2376.4183,2376.4184,2376.4465,,,,0,19,19,19,1,80,0,,,,,,,,
,,614054695c372ace29c2e386,65af5568a4d6aa58b7daa6da,2024-01-23_08h52.18.510,bars,2023.2.3,Win32,63.69426752,657b66ea316d21385b68909f,,,,,,,,,,,2376.4471,2377.4417,,,2377.9344,2378.1833,,160,-20,,,,,,,,,,,,,,,,bars/005.png,bars/mask003.png,,,,,,,,,,,,2,2,,,,,,,10,6,10,5,,,,,,,,,,,2377.4421,2377.9344,2378.1834,2382.5455,space,4.3468,,2382.5456,30,20,2383.5494,2383.5497,2383.5746,,,,0,20,20,20,1,10,140,,,,,,,,
,,614054695c372ace29c2e386,65af5568a4d6aa58b7daa6da,2024-01-23_08h52.18.510,bars,2023.2.3,Win32,63.69426752,657b66ea316d21385b68909f,,,,,,,,,,,2383.5752,2384.5663,,,2385.0705,2385.3162,,72,72,,,,,,,,,,,,,,,,bars/006.png,bars/mask008.png,,,,,,,,,,,,0,2,,,,,,,10,4,10,5,,,,,,,,,,,2384.5663,2385.0704,2385.3166,2387.5707,space,2.2394,,2387.5709,37,28,2388.5611,2388.5611,2388.5873,,,,0,21,21,21,1,35,100,,,,,,,,
,,614054695c372ace29c2e386,65af5568a4d6aa58b7daa6da,2024-01-23_08h52.18.510,bars,2023.2.3,Win32,63.69426752,657b66ea316d21385b68909f,,,,,,,,,,,2388.5886,2389.583,,,2390.0828,2390.3334,,137,137,,,,,,,,,,,,,,,,bars/042.png,bars/mask003.png,,,,,,,,,,,,7,1,,,,,,,8,2,9,0,,,,,,,,,,,2389.5833,2390.0828,2390.3335,2391.8012,space,1.452,,2391.8012,8,62,2392.7909,2392.791,2392.8192,,,,0,22,22,22,1,145,75,,,,,,,,
,,614054695c372ace29c2e386,65af5568a4d6aa58b7daa6da,2024-01-23_08h52.18.510,bars,2023.2.3,Win32,63.69426752,657b66ea316d21385b68909f,,,,,,,,,,,2392.8198,2393.8189,,,2394.3159,2394.5659,,145,145,,,,,,,,,,,,,,,,bars/013.png,bars/mask005.png,,,,,,,,,,,,0,2,,,,,,,6,4,6,3,,,,,,,,,,,2393.8191,2394.3158,2394.5663,2397.3008,space,2.719,,2397.3009,70,45,2398.2905,2398.2909,2398.3186,,,,0,23,23,23,1,75,10,,,,,,,,
,,614054695c372ace29c2e386,65af5568a4d6aa58b7daa6da,2024-01-23_08h52.18.510,bars,2023.2.3,Win32,63.69426752,657b66ea316d21385b68909f,,,,,,,,,,,2398.3191,2399.3178,,,2399.8173,2400.069,,148,148,,,,,,,,,,,,,,,,bars/044.png,bars/mask008.png,,,,,,,,,,,,5,2,,,,,,,8,6,8,6,,,,,,,,,,,2399.3179,2399.8173,2400.069,2407.069,space,6.9878,,2407.0691,73,7,2408.0733,2408.0737,2408.1022,,,,0,24,24,24,1,75,155,,,,,,,,
,,614054695c372ace29c2e386,65af5568a4d6aa58b7daa6da,2024-01-23_08h52.18.510,bars,2023.2.3,Win32,63.69426752,657b66ea316d21385b68909f,,,,,,,,,,,2408.1028,2409.0999,,,2409.6,2409.8501,,137,137,,,,,,,,,,,,,,,,bars/039.png,bars/mask001.png,,,,,,,,,,,,0,2,,,,,,,10,4,10,5,,,,,,,,,,,2409.1,2409.5999,2409.8501,2414.255,space,4.3941,,2414.255,38,32,2415.2571,2415.2572,2415.2845,,,,0,25,25,25,1,175,105,,,,,,,,
,,614054695c372ace29c2e386,65af5568a4d6aa58b7daa6da,2024-01-23_08h52.18.510,bars,2023.2.3,Win32,63.69426752,657b66ea316d21385b68909f,,,,,,,,,,,2415.2851,2416.2758,,,2416.7743,2417.0237,,113,113,,,,,,,,,,,,,,,,bars/044.png,bars/mask008.png,,,,,,,,,,,,0,1,,,,,,,10,2,10,2,,,,,,,,,,,2416.2758,2416.7743,2417.0237,2418.2335,space,1.1915,,2418.2335,38,42,2419.2257,2419.2257,2419.2339,,,,0,26,26,26,1,75,155,,,,,,,,
,,614054695c372ace29c2e386,65af5568a4d6aa58b7daa6da,2024-01-23_08h52.18.510,bars,2023.2.3,Win32,63.69426752,657b66ea316d21385b68909f,,,,,,,,,,,2419.2354,2420.2306,,,2420.7238,2420.973,,38,38,,,,,,,,,,,,,,,,bars/029.png,bars/mask004.png,,,,,,,,,,,,3,2,,,,,,,8,4,7,4,,,,,,,,,,,2420.2306,2420.7237,2420.9731,2427.6768,space,6.6868,,2427.6769,52,7,2428.6722,2428.6723,2428.6985,,,,0,27,27,27,1,90,45,,,,,,,,
,,614054695c372ace29c2e386,65af5568a4d6aa58b7daa6da,2024-01-23_08h52.18.510,bars,2023.2.3,Win32,63.69426752,657b66ea316d21385b68909f,,,,,,,,,,,2428.6992,2429.6897,,,2430.189,2430.4323,,18,18,,,,,,,,,,,,,,,,bars/029.png,bars/mask000.png,,,,,,,,,,,,1,2,,,,,,,6,6,4,7,,,,,,,,,,,2429.6898,2430.189,2430.4324,2431.5025,space,1.0583,,2431.5026,72,27,2432.5067,2432.5069,2432.5093,,,,0,28,28,28,1,90,45,,,,,,,,
,,614054695c372ace29c2e386,65af5568a4d6aa58b7daa6da,2024-01-23_08h52.18.510,bars,2023.2.3,Win32,63.69426752,657b66ea316d21385b68909f,,,,,,,,,,,2432.5102,2433.5051,,,2434.0067,2434.2554,,16,16,,,,,,,,,,,,,,,,bars/014.png,bars/mask004.png,,,,,,,,,,,,2,2,,,,,,,4,4,3,4,,,,,,,,,,,2433.5054,2434.0066,2434.2555,2439.1994,space,4.9239,,2439.1995,64,16,2440.1983,2440.1984,2440.2243,,,,0,29,29,29,1,80,0,,,,,,,,
,,614054695c372ace29c2e386,65af5568a4d6aa58b7daa6da,2024-01-23_08h52.18.510,bars,2023.2.3,Win32,63.69426752,657b66ea316d21385b68909f,,,,,,,,,,,2440.2249,2441.2137,,,2441.713,2441.9622,,88,88,,,,,,,,,,,,,,,,bars/044.png,bars/mask001.png,,,,,,,,,,,,3,1,,,,,,,6,2,6,3,,,,,,,,,,,2441.2138,2441.7126,2441.9623,2446.7485,space,4.769,,2446.7486,13,67,2447.7477,2447.7479,2447.7763,,,,0,30,30,30,1,75,155,,,,,,,,
,,614054695c372ace29c2e386,65af5568a4d6aa58b7daa6da,2024-01-23_08h52.18.510,bars,2023.2.3,Win32,63.69426752,657b66ea316d21385b68909f,,,,,,,,,,,2447.777,2448.772,,,2449.2715,2449.5187,,57,57,,,,,,,,,,,,,,,,bars/043.png,bars/mask000.png,,,,,,,,,,,,0,1,,,,,,,4,0,5,0,,,,,,,,,,,2448.772,2449.2715,2449.5188,2454.4979,space,4.9658,,2454.498,27,73,2455.4873,2455.4877,2455.5153,,,,0,31,31,31,1,30,130,,,,,,,,
,,614054695c372ace29c2e386,65af5568a4d6aa58b7daa6da,2024-01-23_08h52.18.510,bars,2023.2.3,Win32,63.69426752,657b66ea316d21385b68909f,,,,,,,,,,,2455.5159,2456.5045,,,2456.9956,2457.2453,,31,31,,,,,,,,,,,,,,,,bars/007.png,bars/mask001.png,,,,,,,,,,,,0,2,,,,,,,6,2,6,2,,,,,,,,,,,2456.5046,2456.9955,2457.2457,2460.474,space,3.2157,,2460.4741,36,24,2461.4705,2461.4706,2461.4996,,,,0,32,32,32,1,175,55,,,,,,,,
,,614054695c372ace29c2e386,65af5568a4d6aa58b7daa6da,2024-01-23_08h52.18.510,bars,2023.2.3,Win32,63.69426752,657b66ea316d21385b68909f,,,,,,,,,,,2461.5004,2462.4968,,,2462.9904,2463.2291,,16,16,,,,,,,,,,,,,,,,bars/036.png,bars/mask004.png,,,,,,,,,,,,4,2,,,,,,,8,4,10,5,,,,,,,,,,,2462.4969,2462.9904,2463.2292,2466.3902,space,3.1485,,2466.3903,51,4,2467.3949,2467.3949,2467.4203,,,,0,33,33,33,1,145,20,,,,,,,,
,,614054695c372ace29c2e386,65af5568a4d6aa58b7daa6da,2024-01-23_08h52.18.510,bars,2023.2.3,Win32,63.69426752,657b66ea316d21385b68909f,,,,,,,,,,,2467.4208,2468.4213,,,2468.9119,2469.1617,,41,221,,,,,,,,,,,,,,,,bars/030.png,bars/mask000.png,,,,,,,,,,,,1,2,,,,,,,10,6,8,5,,,,,,,,,,,2468.4214,2468.9115,2469.162,2475.7574,space,6.5819,,2475.7574,81,24,2476.753,2476.7531,2476.7803,,,,0,34,34,34,1,140,65,,,,,,,,
,,614054695c372ace29c2e386,65af5568a4d6aa58b7daa6da,2024-01-23_08h52.18.510,bars,2023.2.3,Win32,63.69426752,657b66ea316d21385b68909f,,,,,,,,,,,2476.7813,2477.7694,,,2478.2642,2478.5138,,172,172,,,,,,,,,,,,,,,,bars/042.png,bars/mask000.png,,,,,,,,,,,,1,1,,,,,,,10,8,10,8,,,,,,,,,,,2477.7698,2478.2639,2478.5139,2486.1061,space,7.5762,,2486.1062,27,83,2487.1023,2487.1027,2487.1337,,,,0,35,35,35,1,145,75,,,,,,,,
,,614054695c372ace29c2e386,65af5568a4d6aa58b7daa6da,2024-01-23_08h52.18.510,bars,2023.2.3,Win32,63.69426752,657b66ea316d21385b68909f,,,,,,,,,,,2487.1344,2488.1269,,,2488.6225,2488.8772,,6,6,,,,,,,,,,,,,,,,bars/040.png,bars/mask005.png,,,,,,,,,,,,10,2,,,,,,,8,10,8,10,,,,,,,,,,,2488.1269,2488.6224,2488.8772,2491.439,space,2.5486,,2491.439,46,1,2492.427,2492.4271,2492.4549,,,,0,36,36,36,1,140,5,,,,,,,,
,,614054695c372ace29c2e386,65af5568a4d6aa58b7daa6da,2024-01-23_08h52.18.510,bars,2023.2.3,Win32,63.69426752,657b66ea316d21385b68909f,,,,,,,,,,,2492.4555,2493.46,,,2493.9603,2494.2102,,125,125,,,,,,,,,,,,,,,,bars/005.png,bars/mask002.png,,,,,,,,,,,,5,2,,,,,,,6,10,5,9,,,,,,,,,,,2493.4603,2493.9602,2494.2106,2496.0298,space,1.8047,,2496.03,65,15,2497.0188,2497.0189,2497.0214,,,,0,37,37,37,1,10,140,,,,,,,,
,,614054695c372ace29c2e386,65af5568a4d6aa58b7daa6da,2024-01-23_08h52.18.510,bars,2023.2.3,Win32,63.69426752,657b66ea316d21385b68909f,,,,,,,,,,,2497.022,2498.0184,,,2498.5191,2498.7686,,123,123,,,,,,,,,,,,,,,,bars/019.png,bars/mask007.png,,,,,,,,,,,,3,2,,,,,,,4,8,4,8,,,,,,,,,,,2498.0185,2498.519,2498.7691,2504.5548,space,5.7697,,2504.5549,78,18,2505.5596,2505.5596,2505.586,,,,0,38,38,38,1,45,105,,,,,,,,
,,614054695c372ace29c2e386,65af5568a4d6aa58b7daa6da,2024-01-23_08h52.18.510,bars,2023.2.3,Win32,63.69426752,657b66ea316d21385b68909f,,,,,,,,,,,2505.5866,2506.5759,,,2507.0682,2507.3179,,130,-50,,,,,,,,,,,,,,,,bars/024.png,bars/mask008.png,,,,,,,,,,,,1,1,,,,,,,2,6,2,5,,,,,,,,,,,2506.576,2507.0682,2507.318,2512.7211,space,5.386,,2512.7212,10,40,2513.7173,2513.7177,2513.7467,,,,0,39,39,39,1,120,170,,,,,,,,
,,614054695c372ace29c2e386,65af5568a4d6aa58b7daa6da,2024-01-23_08h52.18.510,bars,2023.2.3,Win32,63.69426752,657b66ea316d21385b68909f,,,,,,,,,,,2513.7474,2514.7423,,,2515.2428,2515.4927,,35,35,,,,,,,,,,,,,,,,bars/029.png,bars/mask003.png,,,,,,,,,,,,5,2,,,,,,,4,8,5,7,,,,,,,,,,,2514.7424,2515.2427,2515.4929,2522.4469,space,6.9412,,2522.447,55,10,2523.4363,2523.4364,2523.465,,,,0,40,40,40,1,90,45,,,,,,,,
,,614054695c372ace29c2e386,65af5568a4d6aa58b7daa6da,2024-01-23_08h52.18.510,bars,2023.2.3,Win32,63.69426752,657b66ea316d21385b68909f,,,,,,,,,,,2523.4656,2524.4583,,,2524.9503,2525.2007,,22,22,,,,,,,,,,,,,,,,bars/011.png,bars/mask006.png,,,,,,,,,,,,0,1,,,,,,,2,6,2,5,,,,,,,,,,,2524.4589,2524.9502,2525.2011,2527.0384,space,1.8221,,2527.0384,42,63,2528.0336,2528.0342,2528.0627,,,,0,41,41,41,1,160,85,,,,,,,,
,,614054695c372ace29c2e386,65af5568a4d6aa58b7daa6da,2024-01-23_08h52.18.510,bars,2023.2.3,Win32,63.69426752,657b66ea316d21385b68909f,,,,,,,,,,,2528.0634,2529.0668,,,2529.5583,2529.8081,,177,-3,,,,,,,,,,,,,,,,bars/048.png,bars/mask005.png,,,,,,,,,,,,3,2,,,,,,,0,4,0,3,,,,,,,,,,,2529.0672,2529.5582,2529.8085,2535.5695,space,5.7488,,2535.5695,53,2,2536.5661,2536.5664,2536.5956,,,,0,42,42,42,1,50,175,,,,,,,,
,,614054695c372ace29c2e386,65af5568a4d6aa58b7daa6da,2024-01-23_08h52.18.510,bars,2023.2.3,Win32,63.69426752,657b66ea316d21385b68909f,,,,,,,,,,,2536.5962,2537.5992,,,2538.0912,2538.3411,,125,125,,,,,,,,,,,,,,,,bars/017.png,bars/mask006.png,,,,,,,,,,,,0,1,,,,,,,2,2,1,3,,,,,,,,,,,2537.5996,2538.0912,2538.3414,2541.8895,space,3.534,,2541.8895,20,80,2542.8826,2542.8827,2542.9111,,,,0,43,43,43,1,145,45,,,,,,,,
,,614054695c372ace29c2e386,65af5568a4d6aa58b7daa6da,2024-01-23_08h52.18.510,bars,2023.2.3,Win32,63.69426752,657b66ea316d21385b68909f,,,,,,,,,,,2542.9117,2543.9091,,,2544.4093,2544.6592,,31,31,,,,,,,,,,,,,,,,bars/038.png,bars/mask004.png,,,,,,,,,,,,0,2,,,,,,,4,4,5,4,,,,,,,,,,,2543.9092,2544.4092,2544.6593,2546.1621,space,1.4923,,2546.1622,46,39,2547.159,2547.1591,2547.1644,,,,0,44,44,44,1,165,70,,,,,,,,
,,614054695c372ace29c2e386,65af5568a4d6aa58b7daa6da,2024-01-23_08h52.18.510,bars,2023.2.3,Win32,63.69426752,657b66ea316d21385b68909f,,,,,,,,,,,2547.1651,2548.1589,,,2548.6585,2548.9089,,61,61,,,,,,,,,,,,,,,,bars/017.png,bars/mask004.png,,,,,,,,,,,,1,2,,,,,,,6,2,5,2,,,,,,,,,,,2548.159,2548.6584,2548.9089,2552.0941,space,3.1747,,2552.0942,84,16,2553.0957,2553.0958,2553.1348,,,,0,45,45,45,1,145,45,,,,,,,,
,,614054695c372ace29c2e386,65af5568a4d6aa58b7daa6da,2024-01-23_08h52.18.510,bars,2023.2.3,Win32,63.69426752,657b66ea316d21385b68909f,,,,,,,,,,,2553.1364,2554.1397,,,2554.64,2554.8901,,36,36,,,,,,,,,,,,,,,,bars/043.png,bars/mask006.png,,,,,,,,,,,,4,1,,,,,,,4,4,5,2,,,,,,,,,,,2554.14,2554.6397,2554.8902,2559.0578,space,4.1505,,2559.0583,6,86,2560.048,2560.0483,2560.0768,,,,0,46,46,46,1,30,130,,,,,,,,
,,614054695c372ace29c2e386,65af5568a4d6aa58b7daa6da,2024-01-23_08h52.18.510,bars,2023.2.3,Win32,63.69426752,657b66ea316d21385b68909f,,,,,,,,,,,2560.0773,2561.0748,,,2561.5749,2561.825,,111,111,,,,,,,,,,,,,,,,bars/009.png,bars/mask006.png,,,,,,,,,,,,2,2,,,,,,,6,2,7,2,,,,,,,,,,,2561.0749,2561.5748,2561.8251,2563.4987,space,1.663,,2563.4988,84,6,2564.4892,2564.4896,2564.5188,,,,0,47,47,47,1,15,105,,,,,,,,
,,614054695c372ace29c2e386,65af5568a4d6aa58b7daa6da,2024-01-23_08h52.18.510,bars,2023.2.3,Win32,63.69426752,657b66ea316d21385b68909f,,,,,,,,,,,2564.5195,2565.5229,,,2566.015,2566.2653,,3,183,,,,,,,,,,,,,,,,bars/033.png,bars/mask009.png,,,,,,,,,,,,1,1,,,,,,,4,4,3,3,,,,,,,,,,,2565.5234,2566.015,2566.2654,2570.7008,space,4.4193,,2570.7009,22,28,2571.7016,2571.7017,2571.7336,,,,0,48,48,48,1,25,155,,,,,,,,
,,614054695c372ace29c2e386,65af5568a4d6aa58b7daa6da,2024-01-23_08h52.18.510,bars,2023.2.3,Win32,63.69426752,657b66ea316d21385b68909f,,,,,,,,,,,2571.7351,2572.7389,,,2573.2391,2573.4889,,43,223,,,,,,,,,,,,,,,,bars/017.png,bars/mask008.png,,,,,,,,,,,,2,2,,,,,,,2,2,1,2,,,,,,,,,,,2572.7389,2573.2388,2573.489,2578.0773,space,4.5699,,2578.0774,78,2,2579.0739,2579.074,2579.1023,,,,0,49,49,49,1,145,45,,,,,,,,
,,614054695c372ace29c2e386,65af5568a4d6aa58b7daa6da,2024-01-23_08h52.18.510,bars,2023.2.3,Win32,63.69426752,657b66ea316d21385b68909f,,,,,,,,,,,,,,,,,,,,,,,,,,,,,,,,,,,,,,,,,,,,,,,,,,,,,,,,,,,,,,,,,,,,,,,,,,,,,,,,,,,,,,,,,,,,,2579.1026,2639.1037,0,2,2,1,1,sequence_tables/blk020.csv
,,614054695c372ace29c2e386,65af5568a4d6aa58b7daa6da,2024-01-23_08h52.18.510,bars,2023.2.3,Win32,63.69426752,657b66ea316d21385b68909f,,,,,,,,,,,2642.1273,2643.121,,,2643.619,2643.8679,,112,112,,,,,,,,,,,,,,,,bars/004.png,bars/mask007.png,,,,,,,,,,,,4,2,,,,,,,1,9,1,7,,,,,,2639.1305,2642.1139,space,2.9683,,2643.1211,2643.6189,2643.8687,2647.0967,space,3.2163,,2647.0968,87,13,2648.0932,2648.0933,2648.1211,,,,0,0,0,0,1,25,125,,,,,,,,
,,614054695c372ace29c2e386,65af5568a4d6aa58b7daa6da,2024-01-23_08h52.18.510,bars,2023.2.3,Win32,63.69426752,657b66ea316d21385b68909f,,,,,,,,,,,2648.1221,2649.1104,,,2649.6015,2649.8523,,58,58,,,,,,,,,,,,,,,,bars/008.png,bars/mask004.png,,,,,,,,,,,,0,1,,,,,,,3,7,5,6,,,,,,,,,,,2649.1104,2649.6014,2649.8523,2650.8632,space,0.998,,2650.8632,52,58,2651.8595,2651.8599,2651.8677,,,,0,1,1,1,1,110,0,,,,,,,,
,,614054695c372ace29c2e386,65af5568a4d6aa58b7daa6da,2024-01-23_08h52.18.510,bars,2023.2.3,Win32,63.69426752,657b66ea316d21385b68909f,,,,,,,,,,,2651.8685,2652.8598,,,2653.3514,2653.6012,,34,34,,,,,,,,,,,,,,,,bars/032.png,bars/mask001.png,,,,,,,,,,,,5,2,,,,,,,5,9,4,9,,,,,,,,,,,2652.8598,2653.3513,2653.6013,2656.2061,space,2.5925,,2656.2063,89,14,2657.2104,2657.2104,2657.22,,,,0,2,2,2,1,125,20,,,,,,,,
,,614054695c372ace29c2e386,65af5568a4d6aa58b7daa6da,2024-01-23_08h52.18.510,bars,2023.2.3,Win32,63.69426752,657b66ea316d21385b68909f,,,,,,,,,,,2657.2207,2658.2091,,,2658.7095,2658.9601,,130,-50,,,,,,,,,,,,,,,,bars/036.png,bars/mask007.png,,,,,,,,,,,,3,1,,,,,,,3,7,5,10,,,,,,,,,,,2658.2094,2658.7095,2658.9601,2664.7457,space,5.7691,,2664.7458,15,70,2665.7358,2665.736,2665.7652,,,,0,3,3,3,1,145,20,,,,,,,,
,,614054695c372ace29c2e386,65af5568a4d6aa58b7daa6da,2024-01-23_08h52.18.510,bars,2023.2.3,Win32,63.69426752,657b66ea316d21385b68909f,,,,,,,,,,,2665.7666,2666.7597,,,2667.252,2667.5005,,132,132,,,,,,,,,,,,,,,,bars/034.png,bars/mask007.png,,,,,,,,,,,,1,1,,,,,,,1,5,1,4,,,,,,,,,,,2666.7598,2667.2517,2667.5009,2668.5182,space,1.0017,,2668.5188,7,67,2669.5138,2669.5139,2669.518,,,,0,4,4,4,1,125,65,,,,,,,,
,,614054695c372ace29c2e386,65af5568a4d6aa58b7daa6da,2024-01-23_08h52.18.510,bars,2023.2.3,Win32,63.69426752,657b66ea316d21385b68909f,,,,,,,,,,,2669.5187,2670.5086,,,2671.0005,2671.2503,,100,100,,,,,,,,,,,,,,,,bars/023.png,bars/mask000.png,,,,,,,,,,,,1,2,,,,,,,3,3,5,1,,,,,,,,,,,2670.509,2671.0001,2671.2503,2673.2196,space,1.9519,,2673.2197,80,15,2674.2164,2674.2168,2674.2438,,,,0,5,5,5,1,20,115,,,,,,,,
,,614054695c372ace29c2e386,65af5568a4d6aa58b7daa6da,2024-01-23_08h52.18.510,bars,2023.2.3,Win32,63.69426752,657b66ea316d21385b68909f,,,,,,,,,,,2674.2444,2675.2334,,,2675.7255,2675.9758,,125,125,,,,,,,,,,,,,,,,bars/001.png,bars/mask002.png,,,,,,,,,,,,6,1,,,,,,,5,1,7,2,,,,,,,,,,,2675.2339,2675.7255,2675.9759,2679.8446,space,3.8525,,2679.8446,5,40,2680.835,2680.835,2680.8687,,,,0,6,6,6,1,130,85,,,,,,,,
,,614054695c372ace29c2e386,65af5568a4d6aa58b7daa6da,2024-01-23_08h52.18.510,bars,2023.2.3,Win32,63.69426752,657b66ea316d21385b68909f,,,,,,,,,,,2680.8701,2681.8692,,,2682.3665,2682.6163,,22,22,,,,,,,,,,,,,,,,bars/003.png,bars/mask004.png,,,,,,,,,,,,3,1,,,,,,,3,3,3,3,,,,,,,,,,,2681.8693,2682.3661,2682.6163,2684.9375,space,2.308,,2684.9375,3,62,2685.9356,2685.9356,2685.9653,,,,0,7,7,7,1,25,140,,,,,,,,
,,614054695c372ace29c2e386,65af5568a4d6aa58b7daa6da,2024-01-23_08h52.18.510,bars,2023.2.3,Win32,63.69426752,657b66ea316d21385b68909f,,,,,,,,,,,2685.9661,2686.9568,,,2687.4571,2687.7069,,26,26,,,,,,,,,,,,,,,,bars/007.png,bars/mask008.png,,,,,,,,,,,,0,2,,,,,,,5,1,3,1,,,,,,,,,,,2686.957,2687.457,2687.7071,2691.4774,space,3.753,,2691.4775,31,29,2692.4824,2692.4829,2692.5113,,,,0,8,8,8,1,175,55,,,,,,,,
,,614054695c372ace29c2e386,65af5568a4d6aa58b7daa6da,2024-01-23_08h52.18.510,bars,2023.2.3,Win32,63.69426752,657b66ea316d21385b68909f,,,,,,,,,,,2692.5119,2693.5161,,,2694.0107,2694.2517,,134,134,,,,,,,,,,,,,,,,bars/020.png,bars/mask001.png,,,,,,,,,,,,1,1,,,,,,,3,3,2,5,,,,,,,,,,,2693.5162,2694.0106,2694.2517,2698.351,space,4.0779,,2698.3511,19,36,2699.3481,2699.3482,2699.3753,,,,0,9,9,9,1,115,170,,,,,,,,
,,614054695c372ace29c2e386,65af5568a4d6aa58b7daa6da,2024-01-23_08h52.18.510,bars,2023.2.3,Win32,63.69426752,657b66ea316d21385b68909f,,,,,,,,,,,2699.3759,2700.374,,,2700.8747,2701.1239,,134,134,,,,,,,,,,,,,,,,bars/005.png,bars/mask004.png,,,,,,,,,,,,0,2,,,,,,,1,1,0,0,,,,,,,,,,,2700.3744,2700.8747,2701.1243,2702.2125,space,1.0728,,2702.2136,56,6,2703.207,2703.2073,2703.2135,,,,0,10,10,10,1,10,140,,,,,,,,
,,614054695c372ace29c2e386,65af5568a4d6aa58b7daa6da,2024-01-23_08h52.18.510,bars,2023.2.3,Win32,63.69426752,657b66ea316d21385b68909f,,,,,,,,,,,2703.2146,2704.2065,,,2704.6984,2704.9482,,172,172,,,,,,,,,,,,,,,,bars/000.png,bars/mask003.png,,,,,,,,,,,,0,2,,,,,,,3,0,3,0,,,,,,,,,,,2704.2069,2704.6983,2704.9483,2706.0992,space,1.1363,,2706.0997,48,27,2707.0982,2707.0983,2707.1014,,,,0,11,11,11,1,40,145,,,,,,,,
,,614054695c372ace29c2e386,65af5568a4d6aa58b7daa6da,2024-01-23_08h52.18.510,bars,2023.2.3,Win32,63.69426752,657b66ea316d21385b68909f,,,,,,,,,,,2707.1023,2708.0977,,,2708.5982,2708.8482,,179,179,,,,,,,,,,,,,,,,bars/007.png,bars/mask009.png,,,,,,,,,,,,5,1,,,,,,,5,0,6,0,,,,,,,,,,,2708.098,2708.5981,2708.8482,2709.8993,space,1.0358,,2709.8997,4,56,2710.8908,2710.8908,2710.8976,,,,0,12,12,12,1,175,55,,,,,,,,
,,614054695c372ace29c2e386,65af5568a4d6aa58b7daa6da,2024-01-23_08h52.18.510,bars,2023.2.3,Win32,63.69426752,657b66ea316d21385b68909f,,,,,,,,,,,2710.8989,2711.8903,,,2712.3906,2712.63,,150,150,,,,,,,,,,,,,,,,bars/048.png,bars/mask009.png,,,,,,,,,,,,0,2,,,,,,,7,2,7,2,,,,,,,,,,,2711.8903,2712.3899,2712.6302,2713.3598,space,0.7156,,2713.3599,80,25,2714.364,2714.3644,2714.3715,,,,0,13,13,13,1,50,175,,,,,,,,
,,614054695c372ace29c2e386,65af5568a4d6aa58b7daa6da,2024-01-23_08h52.18.510,bars,2023.2.3,Win32,63.69426752,657b66ea316d21385b68909f,,,,,,,,,,,2714.3723,2715.3641,,,2715.865,2716.114,,69,69,,,,,,,,,,,,,,,,bars/001.png,bars/mask004.png,,,,,,,,,,,,2,2,,,,,,,5,4,6,5,,,,,,,,,,,2715.3645,2715.8645,2716.1144,2719.8608,space,3.7331,,2719.8608,61,16,2720.8559,2720.856,2720.8811,,,,0,14,14,14,1,130,85,,,,,,,,
,,614054695c372ace29c2e386,65af5568a4d6aa58b7daa6da,2024-01-23_08h52.18.510,bars,2023.2.3,Win32,63.69426752,657b66ea316d21385b68909f,,,,,,,,,,,2720.8818,2721.8732,,,2722.3669,2722.6155,,160,160,,,,,,,,,,,,,,,,bars/014.png,bars/mask002.png,,,,,,,,,,,,0,2,,,,,,,3,2,3,1,,,,,,,,,,,2721.8733,2722.3669,2722.6155,2725.3341,space,2.7021,,2725.3342,80,20,2726.3393,2726.3397,2726.3651,,,,0,15,15,15,1,80,0,,,,,,,,
,,614054695c372ace29c2e386,65af5568a4d6aa58b7daa6da,2024-01-23_08h52.18.510,bars,2023.2.3,Win32,63.69426752,657b66ea316d21385b68909f,,,,,,,,,,,2726.3658,2727.3554,,,2727.8471,2728.0975,,107,107,,,,,,,,,,,,,,,,bars/027.png,bars/mask000.png,,,,,,,,,,,,3,1,,,,,,,1,0,3,0,,,,,,,,,,,2727.3556,2727.847,2728.0976,2731.6472,space,3.5353,,2731.6473,3,57,2732.6466,2732.6467,2732.6745,,,,0,16,16,16,1,110,50,,,,,,,,
,,614054695c372ace29c2e386,65af5568a4d6aa58b7daa6da,2024-01-23_08h52.18.510,bars,2023.2.3,Win32,63.69426752,657b66ea316d21385b68909f,,,,,,,,,,,2732.675,2733.6651,,,2734.1634,2734.4131,,65,65,,,,,,,,,,,,,,,,bars/006.png,bars/mask006.png,,,,,,,,,,,,0,1,,,,,,,0,2,0,1,,,,,,,,,,,2733.6655,2734.1634,2734.4135,2736.4653,space,2.0371,,2736.4654,30,35,2737.4551,2737.4552,2737.4805,,,,0,17,17,17,1,35,100,,,,,,,,
,,614054695c372ace29c2e386,65af5568a4d6aa58b7daa6da,2024-01-23_08h52.18.510,bars,2023.2.3,Win32,63.69426752,657b66ea316d21385b68909f,,,,,,,,,,,2737.4811,2738.4717,,,2738.9632,2739.2131,,69,69,,,,,,,,,,,,,,,,bars/011.png,bars/mask006.png,,,,,,,,,,,,2,2,,,,,,,2,4,2,5,,,,,,,,,,,2738.4721,2738.9631,2739.2132,2743.4639,space,4.2355,,2743.4645,89,16,2744.4546,2744.455,2744.4825,,,,0,18,18,18,1,160,85,,,,,,,,
,,614054695c372ace29c2e386,65af5568a4d6aa58b7daa6da,2024-01-23_08h52.18.510,bars,2023.2.3,Win32,63.69426752,657b66ea316d21385b68909f,,,,,,,,,,,2744.4832,2745.4806,,,2745.9809,2746.2311,,56,236,,,,,,,,,,,,,,,,bars/026.png,bars/mask001.png,,,,,,,,,,,,0,1,,,,,,,0,2,0,2,,,,,,,,,,,2745.4807,2745.9809,2746.2311,2750.9513,space,4.7097,,2750.9513,21,29,2751.9538,2751.9541,2751.9827,,,,0,19,19,19,1,35,85,,,,,,,,
,,614054695c372ace29c2e386,65af5568a4d6aa58b7daa6da,2024-01-23_08h52.18.510,bars,2023.2.3,Win32,63.69426752,657b66ea316d21385b68909f,,,,,,,,,,,2751.9833,2752.9817,,,2753.4815,2753.7311,,142,142,,,,,,,,,,,,,,,,bars/029.png,bars/mask004.png,,,,,,,,,,,,0,1,,,,,,,0,4,0,4,,,,,,,,,,,2752.9817,2753.4815,2753.7312,2754.981,space,1.2333,,2754.981,52,83,2755.9803,2755.9804,2755.9827,,,,0,20,20,20,1,90,45,,,,,,,,
,,614054695c372ace29c2e386,65af5568a4d6aa58b7daa6da,2024-01-23_08h52.18.510,bars,2023.2.3,Win32,63.69426752,657b66ea316d21385b68909f,,,,,,,,,,,2755.9833,2756.9803,,,2757.4813,2757.7301,,135,135,,,,,,,,,,,,,,,,bars/012.png,bars/mask003.png,,,,,,,,,,,,0,1,,,,,,,0,6,1,7,,,,,,,,,,,2756.9805,2757.4812,2757.7302,2760.5985,space,2.8535,,2760.5986,45,60,2761.5973,2761.5974,2761.6227,,,,0,21,21,21,1,90,15,,,,,,,,
,,614054695c372ace29c2e386,65af5568a4d6aa58b7daa6da,2024-01-23_08h52.18.510,bars,2023.2.3,Win32,63.69426752,657b66ea316d21385b68909f,,,,,,,,,,,2761.6233,2762.6281,,,2763.1284,2763.3783,,108,108,,,,,,,,,,,,,,,,bars/019.png,bars/mask004.png,,,,,,,,,,,,5,2,,,,,,,0,4,0,5,,,,,,,,,,,2762.6284,2763.1284,2763.3784,2765.663,space,2.2676,,2765.6634,63,3,2766.6563,2766.6563,2766.6848,,,,0,22,22,22,1,45,105,,,,,,,,
,,614054695c372ace29c2e386,65af5568a4d6aa58b7daa6da,2024-01-23_08h52.18.510,bars,2023.2.3,Win32,63.69426752,657b66ea316d21385b68909f,,,,,,,,,,,2766.6855,2767.6781,,,2768.1782,2768.4286,,140,-40,,,,,,,,,,,,,,,,bars/000.png,bars/mask002.png,,,,,,,,,,,,5,2,,,,,,,0,6,1,6,,,,,,,,,,,2767.6782,2768.1778,2768.4286,2772.6731,space,4.2321,,2772.6731,80,5,2773.6702,2773.6703,2773.6956,,,,0,23,23,23,1,40,145,,,,,,,,
,,614054695c372ace29c2e386,65af5568a4d6aa58b7daa6da,2024-01-23_08h52.18.510,bars,2023.2.3,Win32,63.69426752,657b66ea316d21385b68909f,,,,,,,,,,,2773.6962,2774.6864,,,2775.1864,2775.4368,,38,38,,,,,,,,,,,,,,,,bars/005.png,bars/mask008.png,,,,,,,,,,,,0,1,,,,,,,0,4,1,6,,,,,,,,,,,2774.6869,2775.1863,2775.4369,2781.873,space,6.42,,2781.8731,28,78,2782.877,2782.8773,2782.9066,,,,0,24,24,24,1,10,140,,,,,,,,
,,614054695c372ace29c2e386,65af5568a4d6aa58b7daa6da,2024-01-23_08h52.18.510,bars,2023.2.3,Win32,63.69426752,657b66ea316d21385b68909f,,,,,,,,,,,2782.9072,2783.9103,,,2784.4106,2784.6606,,131,131,,,,,,,,,,,,,,,,bars/020.png,bars/mask002.png,,,,,,,,,,,,0,1,,,,,,,0,2,0,1,,,,,,,,,,,2783.9106,2784.4106,2784.661,2785.728,space,1.0514,,2785.7286,16,39,2786.7268,2786.727,2786.7303,,,,0,25,25,25,1,115,170,,,,,,,,
,,614054695c372ace29c2e386,65af5568a4d6aa58b7daa6da,2024-01-23_08h52.18.510,bars,2023.2.3,Win32,63.69426752,657b66ea316d21385b68909f,,,,,,,,,,,2786.7311,2787.727,,,2788.2277,2788.4768,,111,111,,,,,,,,,,,,,,,,bars/001.png,bars/mask009.png,,,,,,,,,,,,1,1,,,,,,,2,4,4,4,,,,,,,,,,,2787.7275,2788.2275,2788.4768,2793.8052,space,5.3157,,2793.8053,19,26,2794.8095,2794.8098,2794.834,,,,0,26,26,26,1,130,85,,,,,,,,
,,614054695c372ace29c2e386,65af5568a4d6aa58b7daa6da,2024-01-23_08h52.18.510,bars,2023.2.3,Win32,63.69426752,657b66ea316d21385b68909f,,,,,,,,,,,2794.8346,2795.8276,,,2796.3266,2796.576,,134,134,,,,,,,,,,,,,,,,bars/000.png,bars/mask009.png,,,,,,,,,,,,3,2,,,,,,,0,2,0,5,,,,,,,,,,,2795.8276,2796.3262,2796.5764,2803.3047,space,6.7147,,2803.3048,86,11,2804.3094,2804.3095,2804.3388,,,,0,27,27,27,1,40,145,,,,,,,,
,,614054695c372ace29c2e386,65af5568a4d6aa58b7daa6da,2024-01-23_08h52.18.510,bars,2023.2.3,Win32,63.69426752,657b66ea316d21385b68909f,,,,,,,,,,,2804.3397,2805.3285,,,2805.8279,2806.0891,,147,147,,,,,,,,,,,,,,,,bars/004.png,bars/mask008.png,,,,,,,,,,,,1,2,,,,,,,2,4,1,4,,,,,,,,,,,2805.3285,2805.8278,2806.0891,2807.2452,space,1.1408,,2807.2453,58,22,2808.2443,2808.2444,2808.2469,,,,0,28,28,28,1,25,125,,,,,,,,
,,614054695c372ace29c2e386,65af5568a4d6aa58b7daa6da,2024-01-23_08h52.18.510,bars,2023.2.3,Win32,63.69426752,657b66ea316d21385b68909f,,,,,,,,,,,2808.2485,2809.2443,,,2809.7441,2809.9953,,125,125,,,,,,,,,,,,,,,,bars/024.png,bars/mask000.png,,,,,,,,,,,,0,1,,,,,,,0,2,0,3,,,,,,,,,,,2809.2443,2809.7441,2809.9953,2814.7612,space,4.7525,,2814.7613,5,45,2815.7506,2815.7511,2815.7791,,,,0,29,29,29,1,120,170,,,,,,,,
,,614054695c372ace29c2e386,65af5568a4d6aa58b7daa6da,2024-01-23_08h52.18.510,bars,2023.2.3,Win32,63.69426752,657b66ea316d21385b68909f,,,,,,,,,,,2815.7797,2816.7771,,,2817.2783,2817.5286,,127,127,,,,,,,,,,,,,,,,bars/040.png,bars/mask001.png,,,,,,,,,,,,0,1,,,,,,,0,4,0,6,,,,,,,,,,,2816.7772,2817.2783,2817.5286,2818.9445,space,1.3991,,2818.9446,13,58,2819.9452,2819.9452,2819.9467,,,,0,30,30,30,1,140,5,,,,,,,,
,,614054695c372ace29c2e386,65af5568a4d6aa58b7daa6da,2024-01-23_08h52.18.510,bars,2023.2.3,Win32,63.69426752,657b66ea316d21385b68909f,,,,,,,,,,,2819.9474,2820.9435,,,2821.4436,2821.6933,,54,54,,,,,,,,,,,,,,,,bars/046.png,bars/mask003.png,,,,,,,,,,,,0,2,,,,,,,0,2,1,1,,,,,,,,,,,2820.9437,2821.4434,2821.6934,2827.0974,space,5.3933,,2827.0974,79,31,2828.0931,2828.0933,2828.1215,,,,0,31,31,31,1,155,85,,,,,,,,
,,614054695c372ace29c2e386,65af5568a4d6aa58b7daa6da,2024-01-23_08h52.18.510,bars,2023.2.3,Win32,63.69426752,657b66ea316d21385b68909f,,,,,,,,,,,2828.1221,2829.1241,,,2829.6166,2829.8663,,64,64,,,,,,,,,,,,,,,,bars/045.png,bars/mask003.png,,,,,,,,,,,,0,1,,,,,,,2,4,1,5,,,,,,,,,,,2829.1245,2829.6163,2829.8667,2833.62,space,3.7367,,2833.6201,36,54,2834.6241,2834.6244,2834.6521,,,,0,32,32,32,1,100,10,,,,,,,,
,,614054695c372ace29c2e386,65af5568a4d6aa58b7daa6da,2024-01-23_08h52.18.510,bars,2023.2.3,Win32,63.69426752,657b66ea316d21385b68909f,,,,,,,,,,,2834.6528,2835.6499,,,2836.1409,2836.3909,,158,158,,,,,,,,,,,,,,,,bars/047.png,bars/mask009.png,,,,,,,,,,,,0,1,,,,,,,4,2,2,4,,,,,,,,,,,2835.65,2836.1408,2836.391,2837.9431,space,1.5367,,2837.9431,37,88,2838.9405,2838.9408,2838.9653,,,,0,33,33,33,1,15,70,,,,,,,,
,,614054695c372ace29c2e386,65af5568a4d6aa58b7daa6da,2024-01-23_08h52.18.510,bars,2023.2.3,Win32,63.69426752,657b66ea316d21385b68909f,,,,,,,,,,,2838.9661,2839.9574,,,2840.4575,2840.7073,,51,51,,,,,,,,,,,,,,,,bars/012.png,bars/mask002.png,,,,,,,,,,,,0,2,,,,,,,2,4,0,3,,,,,,,,,,,2839.9579,2840.4573,2840.7075,2845.8429,space,5.1204,,2845.843,39,36,2846.8397,2846.8397,2846.8695,,,,0,34,34,34,1,90,15,,,,,,,,
,,614054695c372ace29c2e386,65af5568a4d6aa58b7daa6da,2024-01-23_08h52.18.510,bars,2023.2.3,Win32,63.69426752,657b66ea316d21385b68909f,,,,,,,,,,,2846.8701,2847.8736,,,2848.3736,2848.6236,,92,272,,,,,,,,,,,,,,,,bars/014.png,bars/mask004.png,,,,,,,,,,,,0,1,,,,,,,0,6,0,6,,,,,,,,,,,2847.8745,2848.3736,2848.6236,2854.152,space,5.5167,,2854.1521,12,88,2855.1495,2855.1495,2855.1798,,,,0,35,35,35,1,80,0,,,,,,,,
,,614054695c372ace29c2e386,65af5568a4d6aa58b7daa6da,2024-01-23_08h52.18.510,bars,2023.2.3,Win32,63.69426752,657b66ea316d21385b68909f,,,,,,,,,,,2855.1804,2856.1818,,,2856.6823,2856.9321,,51,231,,,,,,,,,,,,,,,,bars/000.png,bars/mask001.png,,,,,,,,,,,,0,1,,,,,,,0,4,0,3,,,,,,,,,,,2856.1822,2856.6822,2856.9322,2864.7907,space,7.8382,,2864.7912,11,86,2865.789,2865.7893,2865.8149,,,,0,36,36,36,1,40,145,,,,,,,,
,,614054695c372ace29c2e386,65af5568a4d6aa58b7daa6da,2024-01-23_08h52.18.510,bars,2023.2.3,Win32,63.69426752,657b66ea316d21385b68909f,,,,,,,,,,,2865.8155,2866.8072,,,2867.2979,2867.5505,,128,-52,,,,,,,,,,,,,,,,bars/037.png,bars/mask001.png,,,,,,,,,,,,0,1,,,,,,,0,6,0,5,,,,,,,,,,,2866.8072,2867.2978,2867.5506,2872.4168,space,4.8527,,2872.4173,22,23,2873.4148,2873.4149,2873.4398,,,,0,37,37,37,1,150,105,,,,,,,,
,,614054695c372ace29c2e386,65af5568a4d6aa58b7daa6da,2024-01-23_08h52.18.510,bars,2023.2.3,Win32,63.69426752,657b66ea316d21385b68909f,,,,,,,,,,,2873.4405,2874.4311,,,2874.9314,2875.1804,,3,183,,,,,,,,,,,,,,,,bars/036.png,bars/mask008.png,,,,,,,,,,,,3,2,,,,,,,0,4,0,6,,,,,,,,,,,2874.4311,2874.9312,2875.1807,2877.9687,space,2.771,,2877.9688,38,17,2878.9714,2878.9718,2878.9983,,,,0,38,38,38,1,145,20,,,,,,,,
,,614054695c372ace29c2e386,65af5568a4d6aa58b7daa6da,2024-01-23_08h52.18.510,bars,2023.2.3,Win32,63.69426752,657b66ea316d21385b68909f,,,,,,,,,,,2878.9989,2879.988,,,2880.4805,2880.7216,,12,192,,,,,,,,,,,,,,,,bars/030.png,bars/mask005.png,,,,,,,,,,,,0,1,,,,,,,2,2,1,2,,,,,,,,,,,2879.9884,2880.4801,2880.7217,2887.1753,space,6.4397,,2887.1754,52,53,2888.1638,2888.1639,2888.194,,,,0,39,39,39,1,140,65,,,,,,,,
,,614054695c372ace29c2e386,65af5568a4d6aa58b7daa6da,2024-01-23_08h52.18.510,bars,2023.2.3,Win32,63.69426752,657b66ea316d21385b68909f,,,,,,,,,,,2888.1945,2889.188,,,2889.6875,2889.9379,,84,84,,,,,,,,,,,,,,,,bars/014.png,bars/mask009.png,,,,,,,,,,,,3,1,,,,,,,4,4,4,3,,,,,,,,,,,2889.188,2889.6875,2889.938,2891.592,space,1.6403,,2891.5921,4,84,2892.588,2892.5885,2892.6204,,,,0,40,40,40,1,80,0,,,,,,,,
,,614054695c372ace29c2e386,65af5568a4d6aa58b7daa6da,2024-01-23_08h52.18.510,bars,2023.2.3,Win32,63.69426752,657b66ea316d21385b68909f,,,,,,,,,,,2892.622,2893.613,,,2894.1054,2894.3549,,3,3,,,,,,,,,,,,,,,,bars/035.png,bars/mask001.png,,,,,,,,,,,,4,1,,,,,,,6,2,5,3,,,,,,,,,,,2893.6133,2894.1054,2894.355,2895.4757,space,1.1092,,2895.4758,8,57,2896.4791,2896.4791,2896.5059,,,,0,41,41,41,1,175,60,,,,,,,,
,,614054695c372ace29c2e386,65af5568a4d6aa58b7daa6da,2024-01-23_08h52.18.510,bars,2023.2.3,Win32,63.69426752,657b66ea316d21385b68909f,,,,,,,,,,,2896.5074,2897.5061,,,2898.0066,2898.2557,,133,133,,,,,,,,,,,,,,,,bars/024.png,bars/mask005.png,,,,,,,,,,,,2,1,,,,,,,4,4,4,3,,,,,,,,,,,2897.5061,2898.0065,2898.2558,2899.2068,space,0.9352,,2899.2069,13,37,2900.2057,2900.2057,2900.208,,,,0,42,42,42,1,120,170,,,,,,,,
,,614054695c372ace29c2e386,65af5568a4d6aa58b7daa6da,2024-01-23_08h52.18.510,bars,2023.2.3,Win32,63.69426752,657b66ea316d21385b68909f,,,,,,,,,,,2900.2086,2901.2054,,,2901.7045,2901.9538,,106,106,,,,,,,,,,,,,,,,bars/015.png,bars/mask008.png,,,,,,,,,,,,3,1,,,,,,,2,6,4,6,,,,,,,,,,,2901.2054,2901.7044,2901.9539,2902.7378,space,0.7679,,2902.7383,4,54,2903.7374,2903.7377,2903.7413,,,,0,43,43,43,1,110,160,,,,,,,,
,,614054695c372ace29c2e386,65af5568a4d6aa58b7daa6da,2024-01-23_08h52.18.510,bars,2023.2.3,Win32,63.69426752,657b66ea316d21385b68909f,,,,,,,,,,,2903.7424,2904.7367,,,2905.2371,2905.4877,,25,25,,,,,,,,,,,,,,,,bars/007.png,bars/mask000.png,,,,,,,,,,,,0,2,,,,,,,4,4,5,3,,,,,,,,,,,2904.7371,2905.237,2905.4877,2910.4154,space,4.9143,,2910.4154,30,30,2911.4198,2911.4201,2911.4463,,,,0,44,44,44,1,175,55,,,,,,,,
,,614054695c372ace29c2e386,65af5568a4d6aa58b7daa6da,2024-01-23_08h52.18.510,bars,2023.2.3,Win32,63.69426752,657b66ea316d21385b68909f,,,,,,,,,,,2911.4478,2912.4363,,,2912.9366,2913.1873,,66,66,,,,,,,,,,,,,,,,bars/047.png,bars/mask008.png,,,,,,,,,,,,5,2,,,,,,,6,6,5,6,,,,,,,,,,,2912.4367,2912.9364,2913.1874,2915.0376,space,1.8355,,2915.0381,51,4,2916.0275,2916.0278,2916.0308,,,,0,45,45,45,1,15,70,,,,,,,,
,,614054695c372ace29c2e386,65af5568a4d6aa58b7daa6da,2024-01-23_08h52.18.510,bars,2023.2.3,Win32,63.69426752,657b66ea316d21385b68909f,,,,,,,,,,,2916.0318,2917.0273,,,2917.5281,2917.7782,,176,-4,,,,,,,,,,,,,,,,bars/048.png,bars/mask007.png,,,,,,,,,,,,5,2,,,,,,,4,4,3,5,,,,,,,,,,,2917.0276,2917.5281,2917.7782,2924.1232,space,6.3274,,2924.1234,54,1,2925.1276,2925.128,2925.1556,,,,0,46,46,46,1,50,175,,,,,,,,
,,614054695c372ace29c2e386,65af5568a4d6aa58b7daa6da,2024-01-23_08h52.18.510,bars,2023.2.3,Win32,63.69426752,657b66ea316d21385b68909f,,,,,,,,,,,2925.1562,2926.1521,,,2926.6524,2926.9025,,124,124,,,,,,,,,,,,,,,,bars/024.png,bars/mask006.png,,,,,,,,,,,,5,1,,,,,,,6,6,6,5,,,,,,,,,,,2926.1525,2926.6521,2926.9026,2929.5866,space,2.6682,,2929.5866,4,46,2930.5853,2930.5854,2930.6119,,,,0,47,47,47,1,120,170,,,,,,,,
,,614054695c372ace29c2e386,65af5568a4d6aa58b7daa6da,2024-01-23_08h52.18.510,bars,2023.2.3,Win32,63.69426752,657b66ea316d21385b68909f,,,,,,,,,,,2930.6126,2931.602,,,2932.0945,2932.3439,,141,-39,,,,,,,,,,,,,,,,bars/042.png,bars/mask006.png,,,,,,,,,,,,4,1,,,,,,,4,8,5,9,,,,,,,,,,,2931.6023,2932.0941,2932.3442,2937.0344,space,4.6736,,2937.0344,4,66,2938.0265,2938.0265,2938.0528,,,,0,48,48,48,1,145,75,,,,,,,,
,,614054695c372ace29c2e386,65af5568a4d6aa58b7daa6da,2024-01-23_08h52.18.510,bars,2023.2.3,Win32,63.69426752,657b66ea316d21385b68909f,,,,,,,,,,,2938.0535,2939.0479,,,2939.5368,2939.7867,,35,35,,,,,,,,,,,,,,,,bars/040.png,bars/mask007.png,,,,,,,,,,,,0,2,,,,,,,2,10,2,10,,,,,,,,,,,2939.048,2939.5367,2939.7868,2942.2055,space,2.4062,,2942.2057,75,30,2943.2097,2943.2101,2943.217,,,,0,49,49,49,1,140,5,,,,,,,,
,,614054695c372ace29c2e386,65af5568a4d6aa58b7daa6da,2024-01-23_08h52.18.510,bars,2023.2.3,Win32,63.69426752,657b66ea316d21385b68909f,,,,,,,,,,,,,,,,,,,,,,,,,,,,,,,,,,,,,,,,,,,,,,,,,,,,,,,,,,,,,,,,,,,,,,,,,,,,,,,,,,,,,,,,,,,,,2943.2172,3003.2178,0,3,3,0,1,sequence_tables/blk022.csv
,,614054695c372ace29c2e386,65af5568a4d6aa58b7daa6da,2024-01-23_08h52.18.510,bars,2023.2.3,Win32,63.69426752,657b66ea316d21385b68909f,,,,,,,,,,,3004.9738,3005.9568,,,3006.4574,3006.7064,,158,158,,,,,,,,,,,,,,,,bars/007.png,bars/mask002.png,,,,,,,,,,,,0,1,,,,,,,2,9,1,9,,,,,,3003.2432,3004.9601,space,1.7004,,3005.9575,3006.4573,3006.7068,3007.6118,space,0.8897,,3007.6119,17,77,3008.6064,3008.6067,3008.6138,,,,0,0,0,0,1,175,55,,,,,,,,
,,614054695c372ace29c2e386,65af5568a4d6aa58b7daa6da,2024-01-23_08h52.18.510,bars,2023.2.3,Win32,63.69426752,657b66ea316d21385b68909f,,,,,,,,,,,3008.6147,3009.6142,,,3010.1066,3010.3562,,15,15,,,,,,,,,,,,,,,,bars/043.png,bars/mask004.png,,,,,,,,,,,,4,1,,,,,,,4,7,7,6,,,,,,,,,,,3009.6146,3010.1065,3010.3566,3013.7986,space,3.4222,,3013.7995,15,65,3014.7892,3014.7895,3014.815,,,,0,1,1,1,1,30,130,,,,,,,,
,,614054695c372ace29c2e386,65af5568a4d6aa58b7daa6da,2024-01-23_08h52.18.510,bars,2023.2.3,Win32,63.69426752,657b66ea316d21385b68909f,,,,,,,,,,,3014.8156,3015.8146,,,3016.3091,3016.5559,,144,144,,,,,,,,,,,,,,,,bars/032.png,bars/mask002.png,,,,,,,,,,,,2,1,,,,,,,6,9,6,8,,,,,,,,,,,3015.8147,3016.309,3016.5562,3020.4339,space,3.8617,,3020.4339,19,56,3021.4322,3021.4322,3021.4571,,,,0,2,2,2,1,125,20,,,,,,,,
,,614054695c372ace29c2e386,65af5568a4d6aa58b7daa6da,2024-01-23_08h52.18.510,bars,2023.2.3,Win32,63.69426752,657b66ea316d21385b68909f,,,,,,,,,,,3021.4577,3022.4567,,,3022.9472,3023.1969,,108,108,,,,,,,,,,,,,,,,bars/039.png,bars/mask004.png,,,,,,,,,,,,7,2,,,,,,,8,7,6,8,,,,,,,,,,,3022.4568,3022.9471,3023.197,3027.4087,space,4.199,,3027.4088,67,3,3028.4131,3028.4135,3028.4402,,,,0,3,3,3,1,175,105,,,,,,,,
,,614054695c372ace29c2e386,65af5568a4d6aa58b7daa6da,2024-01-23_08h52.18.510,bars,2023.2.3,Win32,63.69426752,657b66ea316d21385b68909f,,,,,,,,,,,3028.4408,3029.4317,,,3029.9307,3030.1839,,178,178,,,,,,,,,,,,,,,,bars/004.png,bars/mask000.png,,,,,,,,,,,,0,1,,,,,,,6,9,5,9,,,,,,,,,,,3029.4319,3029.9307,3030.184,3031.4316,space,1.2301,,3031.4317,27,53,3032.4224,3032.4224,3032.4273,,,,0,4,4,4,1,25,125,,,,,,,,
,,614054695c372ace29c2e386,65af5568a4d6aa58b7daa6da,2024-01-23_08h52.18.510,bars,2023.2.3,Win32,63.69426752,657b66ea316d21385b68909f,,,,,,,,,,,3032.429,3033.422,,,3033.9137,3034.163,,55,55,,,,,,,,,,,,,,,,bars/025.png,bars/mask004.png,,,,,,,,,,,,4,2,,,,,,,8,7,8,8,,,,,,,,,,,3033.4221,3033.9132,3034.163,3036.0976,space,1.9189,,3036.098,50,15,3037.0885,3037.089,3037.095,,,,0,5,5,5,1,105,40,,,,,,,,
,,614054695c372ace29c2e386,65af5568a4d6aa58b7daa6da,2024-01-23_08h52.18.510,bars,2023.2.3,Win32,63.69426752,657b66ea316d21385b68909f,,,,,,,,,,,3037.0958,3038.0876,,,3038.5923,3038.8459,,173,173,,,,,,,,,,,,,,,,bars/019.png,bars/mask000.png,,,,,,,,,,,,0,1,,,,,,,6,5,6,7,,,,,,,,,,,3038.088,3038.5922,3038.8463,3040.231,space,1.3681,,3040.2313,52,68,3041.2241,3041.2242,3041.2302,,,,0,6,6,6,1,45,105,,,,,,,,
,,614054695c372ace29c2e386,65af5568a4d6aa58b7daa6da,2024-01-23_08h52.18.510,bars,2023.2.3,Win32,63.69426752,657b66ea316d21385b68909f,,,,,,,,,,,3041.2309,3042.2213,,,3042.7144,3042.9642,,12,12,,,,,,,,,,,,,,,,bars/043.png,bars/mask007.png,,,,,,,,,,,,1,1,,,,,,,4,7,2,6,,,,,,,,,,,3042.2217,3042.7143,3042.9643,3049.7166,space,6.7416,,3049.7166,18,62,3050.705,3050.705,3050.7319,,,,0,7,7,7,1,30,130,,,,,,,,
,,614054695c372ace29c2e386,65af5568a4d6aa58b7daa6da,2024-01-23_08h52.18.510,bars,2023.2.3,Win32,63.69426752,657b66ea316d21385b68909f,,,,,,,,,,,3050.7324,3051.7206,,,3052.2125,3052.4622,,62,62,,,,,,,,,,,,,,,,bars/038.png,bars/mask008.png,,,,,,,,,,,,6,2,,,,,,,2,9,2,8,,,,,,,,,,,3051.7206,3052.2125,3052.4623,3053.9295,space,1.4521,,3053.9301,77,8,3054.9202,3054.9205,3054.9495,,,,0,8,8,8,1,165,70,,,,,,,,
,,614054695c372ace29c2e386,65af5568a4d6aa58b7daa6da,2024-01-23_08h52.18.510,bars,2023.2.3,Win32,63.69426752,657b66ea316d21385b68909f,,,,,,,,,,,3054.9502,3055.94,,,3056.4291,3056.6782,,150,150,,,,,,,,,,,,,,,,bars/028.png,bars/mask009.png,,,,,,,,,,,,0,2,,,,,,,0,10,1,10,,,,,,,,,,,3055.9401,3056.429,3056.6786,3059.8466,space,3.1506,,3059.8469,75,30,3060.8376,3060.8377,3060.8624,,,,0,9,9,9,1,45,120,,,,,,,,
