init_variables.started,init_variables.stopped,participant,session,date,expName,psychopyVersion,OS,frameRate,study_id,instruction_exp.started,instruction_exp.stopped,key_resp_8.keys,key_resp_8.rt,key_resp_8.duration,instruction_single.started,instruction_single.stopped,key_resp_2.keys,key_resp_2.rt,key_resp_2.duration,interval.started,interval.stopped,cue_single.started,cue_single.stopped,mask.started,mask.stopped,ori_response_single.started,res_ori,res,ori_response_single.stopped,key_resp_single.keys,key_resp_single.rt,key_resp_single.duration,disp_single.started,disp_single.stopped,key_resp.keys,key_resp.rt,key_resp.duration,single.thisRepN,single.thisTrialN,single.thisN,single.thisIndex,single.ran,ori,path,mask_path,instruction_bandit.started,instruction_bandit.stopped,key_resp_6.keys,key_resp_6.rt,key_resp_6.duration,cue_bandit.started,cue_bandit.stopped,bandit_res.keys,bandit_res.rt,bandit_res.duration,outcome_bandit.started,rew,action,outcome_bandit.stopped,bandit.thisRepN,bandit.thisTrialN,bandit.thisN,bandit.thisIndex,bandit.ran,actual_rew1,actual_rew2,rew1,rew2,instruction_task.started,instruction_task.stopped,key_resp_7.keys,key_resp_7.rt,key_resp_7.duration,wait_ready.started,wait_ready.stopped,key_resp_3.keys,key_resp_3.rt,key_resp_3.duration,cue.started,cue.stopped,ori_response.started,ori_response.stopped,key_resp_5.keys,key_resp_5.rt,key_resp_5.duration,outcome.started,diff1,diff2,outcome.stopped,disp_outcome_practice.started,disp_outcome_practice.stopped,key_resp_4.keys,key_resp_4.rt,key_resp_4.duration,trials.thisRepN,trials.thisTrialN,trials.thisN,trials.thisIndex,trials.ran,ori1,ori2,break_blk.started,break_blk.stopped,block.thisRepN,block.thisTrialN,block.thisN,block.thisIndex,block.ran,condition_file
0.0035,0.004,60d86238375036347c46a290,65af54de16eb9b7185ed4593,2024-01-23_24h56.09.999,bars,2023.2.3,MacIntel,59.88023952,657b66ea316d21385b68909f,,,,,,,,,,,,,,,,,,,,,,,,,,,,,,,,,,,,,,,,,,,,,,,,,,,,,,,,,,,,,,,,,,,,,,,,,,,,,,,,,,,,,,,,,,,,,,,,,,,,
,,60d86238375036347c46a290,65af54de16eb9b7185ed4593,2024-01-23_24h56.09.999,bars,2023.2.3,MacIntel,59.88023952,657b66ea316d21385b68909f,0.0048,57.6769,y,57.638,,,,,,,,,,,,,,,,,,,,,,,,,,,,,,,,,,,,,,,,,,,,,,,,,,,,,,,,,,,,,,,,,,,,,,,,,,,,,,,,,,,,,,,,,,,,,,,,
,,60d86238375036347c46a290,65af54de16eb9b7185ed4593,2024-01-23_24h56.09.999,bars,2023.2.3,MacIntel,59.88023952,657b66ea316d21385b68909f,,,,,,57.6775,69.1249,space,11.4278,,,,,,,,,,,,,,,,,,,,,,,,,,,,,,,,,,,,,,,,,,,,,,,,,,,,,,,,,,,,,,,,,,,,,,,,,,,,,,,,,,,,,,,,,,,
,,60d86238375036347c46a290,65af54de16eb9b7185ed4593,2024-01-23_24h56.09.999,bars,2023.2.3,MacIntel,59.88023952,657b66ea316d21385b68909f,,,,,,,,,,,69.132,70.1304,70.1308,70.6349,70.6351,70.8808,70.8812,145,145,80.6409,space,9.7335,,80.6413,84.1089,space,3.4344,,0,0,0,4,1,95,bars/single004.png,bars/mask004.png,,,,,,,,,,,,,,,,,,,,,,,,,,,,,,,,,,,,,,,,,,,,,,,,,,,,,,,,,,,,,,,,
,,60d86238375036347c46a290,65af54de16eb9b7185ed4593,2024-01-23_24h56.09.999,bars,2023.2.3,MacIntel,59.88023952,657b66ea316d21385b68909f,,,,,,,,,,,84.1424,85.1219,85.1221,85.6197,85.6198,85.8699,85.87,29,29,88.8343,space,2.9463,,88.8344,90.384,space,1.5197,,0,1,1,5,1,55,bars/single005.png,bars/mask008.png,,,,,,,,,,,,,,,,,,,,,,,,,,,,,,,,,,,,,,,,,,,,,,,,,,,,,,,,,,,,,,,,
,,60d86238375036347c46a290,65af54de16eb9b7185ed4593,2024-01-23_24h56.09.999,bars,2023.2.3,MacIntel,59.88023952,657b66ea316d21385b68909f,,,,,,,,,,,90.3844,91.3835,91.3836,91.8829,91.883,92.1331,92.1332,21,21,96.0653,space,3.916,,96.0653,97.5622,space,1.4698,,0,2,2,1,1,20,bars/single001.png,bars/mask006.png,,,,,,,,,,,,,,,,,,,,,,,,,,,,,,,,,,,,,,,,,,,,,,,,,,,,,,,,,,,,,,,,
,,60d86238375036347c46a290,65af54de16eb9b7185ed4593,2024-01-23_24h56.09.999,bars,2023.2.3,MacIntel,59.88023952,657b66ea316d21385b68909f,,,,,,,,,,,97.5627,98.563,98.5631,99.0668,99.0669,99.3116,99.3117,175,175,103.1274,space,3.7965,,103.1275,105.9744,space,2.8221,,0,3,3,6,1,175,bars/single006.png,bars/mask005.png,,,,,,,,,,,,,,,,,,,,,,,,,,,,,,,,,,,,,,,,,,,,,,,,,,,,,,,,,,,,,,,,
,,60d86238375036347c46a290,65af54de16eb9b7185ed4593,2024-01-23_24h56.09.999,bars,2023.2.3,MacIntel,59.88023952,657b66ea316d21385b68909f,,,,,,,,,,,105.9918,106.991,106.9911,107.4888,107.4889,107.7386,107.7387,1,181,112.4025,space,4.6519,,112.4025,114.1187,space,1.6864,,0,4,4,0,1,150,bars/single000.png,bars/mask006.png,,,,,,,,,,,,,,,,,,,,,,,,,,,,,,,,,,,,,,,,,,,,,,,,,,,,,,,,,,,,,,,,
,,60d86238375036347c46a290,65af54de16eb9b7185ed4593,2024-01-23_24h56.09.999,bars,2023.2.3,MacIntel,59.88023952,657b66ea316d21385b68909f,,,,,,,,,,,114.1191,115.134,115.1344,115.6358,115.6358,115.8849,115.8849,153,-27,120.6971,space,4.7959,,120.6972,121.8463,space,1.1168,,0,5,5,8,1,160,bars/single008.png,bars/mask004.png,,,,,,,,,,,,,,,,,,,,,,,,,,,,,,,,,,,,,,,,,,,,,,,,,,,,,,,,,,,,,,,,
,,60d86238375036347c46a290,65af54de16eb9b7185ed4593,2024-01-23_24h56.09.999,bars,2023.2.3,MacIntel,59.88023952,657b66ea316d21385b68909f,,,,,,,,,,,121.8468,122.8457,122.8458,123.3468,123.3469,123.596,123.5962,38,218,129.2225,space,5.6145,,129.2226,130.3084,space,1.0066,,0,6,6,7,1,45,bars/single007.png,bars/mask009.png,,,,,,,,,,,,,,,,,,,,,,,,,,,,,,,,,,,,,,,,,,,,,,,,,,,,,,,,,,,,,,,,
,,60d86238375036347c46a290,65af54de16eb9b7185ed4593,2024-01-23_24h56.09.999,bars,2023.2.3,MacIntel,59.88023952,657b66ea316d21385b68909f,,,,,,,,,,,130.3087,131.3215,131.3216,131.8227,131.8228,132.0731,132.0731,20,20,138.4189,space,6.333,,138.4189,139.5366,space,1.0926,,0,7,7,9,1,20,bars/single009.png,bars/mask006.png,,,,,,,,,,,,,,,,,,,,,,,,,,,,,,,,,,,,,,,,,,,,,,,,,,,,,,,,,,,,,,,,
,,60d86238375036347c46a290,65af54de16eb9b7185ed4593,2024-01-23_24h56.09.999,bars,2023.2.3,MacIntel,59.88023952,657b66ea316d21385b68909f,,,,,,,,,,,139.5381,140.5342,140.5343,141.0356,141.0357,141.2835,141.2835,152,152,142.4028,space,1.1059,,142.403,143.398,space,0.9525,,0,8,8,2,1,145,bars/single002.png,bars/mask003.png,,,,,,,,,,,,,,,,,,,,,,,,,,,,,,,,,,,,,,,,,,,,,,,,,,,,,,,,,,,,,,,,
,,60d86238375036347c46a290,65af54de16eb9b7185ed4593,2024-01-23_24h56.09.999,bars,2023.2.3,MacIntel,59.88023952,657b66ea316d21385b68909f,,,,,,,,,,,143.3984,144.398,144.3981,144.8979,144.8979,145.1474,145.1476,33,213,150.9948,space,5.8262,,150.9949,154.1409,space,3.1124,,0,9,9,3,1,20,bars/single003.png,bars/mask005.png,,,,,,,,,,,,,,,,,,,,,,,,,,,,,,,,,,,,,,,,,,,,,,,,,,,,,,,,,,,,,,,,
,,60d86238375036347c46a290,65af54de16eb9b7185ed4593,2024-01-23_24h56.09.999,bars,2023.2.3,MacIntel,59.88023952,657b66ea316d21385b68909f,,,,,,,,,,,,,,,,,,,,,,,,,,,,,,,,,,,,,154.1418,163.7019,space,9.5463,,,,,,,,,,,,,,,,,,,,,,,,,,,,,,,,,,,,,,,,,,,,,,,,,,,,,,,,,,,,
,,60d86238375036347c46a290,65af54de16eb9b7185ed4593,2024-01-23_24h56.09.999,bars,2023.2.3,MacIntel,59.88023952,657b66ea316d21385b68909f,,,,,,,,,,,,,,,,,,,,,,,,,,,,,,,,,,,,,,,,,,163.7193,165.1114,right,1.3749,,165.1116,2,2,166.1024,0,0,0,0,1,9,1,9,2,,,,,,,,,,,,,,,,,,,,,,,,,,,,,,,,,,,,,,,,,
,,60d86238375036347c46a290,65af54de16eb9b7185ed4593,2024-01-23_24h56.09.999,bars,2023.2.3,MacIntel,59.88023952,657b66ea316d21385b68909f,,,,,,,,,,,,,,,,,,,,,,,,,,,,,,,,,,,,,,,,,,166.1034,166.7866,left,0.6561,,166.7867,10,1,167.7846,0,1,1,1,1,10,0,10,1,,,,,,,,,,,,,,,,,,,,,,,,,,,,,,,,,,,,,,,,,
,,60d86238375036347c46a290,65af54de16eb9b7185ed4593,2024-01-23_24h56.09.999,bars,2023.2.3,MacIntel,59.88023952,657b66ea316d21385b68909f,,,,,,,,,,,,,,,,,,,,,,,,,,,,,,,,,,,,,,,,,,167.7853,168.2495,left,0.4246,,168.2496,10,1,169.2506,0,2,2,2,1,10,2,10,2,,,,,,,,,,,,,,,,,,,,,,,,,,,,,,,,,,,,,,,,,
,,60d86238375036347c46a290,65af54de16eb9b7185ed4593,2024-01-23_24h56.09.999,bars,2023.2.3,MacIntel,59.88023952,657b66ea316d21385b68909f,,,,,,,,,,,,,,,,,,,,,,,,,,,,,,,,,,,,,,,,,,169.2512,169.6473,left,0.3627,,169.6473,7,1,170.6497,0,3,3,3,1,8,4,7,3,,,,,,,,,,,,,,,,,,,,,,,,,,,,,,,,,,,,,,,,,
,,60d86238375036347c46a290,65af54de16eb9b7185ed4593,2024-01-23_24h56.09.999,bars,2023.2.3,MacIntel,59.88023952,657b66ea316d21385b68909f,,,,,,,,,,,,,,,,,,,,,,,,,,,,,,,,,,,,,,,,,,170.6503,171.1487,left,0.4682,,171.1488,5,1,172.1496,0,4,4,4,1,6,2,5,1,,,,,,,,,,,,,,,,,,,,,,,,,,,,,,,,,,,,,,,,,
,,60d86238375036347c46a290,65af54de16eb9b7185ed4593,2024-01-23_24h56.09.999,bars,2023.2.3,MacIntel,59.88023952,657b66ea316d21385b68909f,,,,,,,,,,,,,,,,,,,,,,,,,,,,,,,,,,,,,,,,,,172.1503,172.5556,right,0.3723,,172.5556,4,2,173.5577,0,5,5,5,1,4,4,4,4,,,,,,,,,,,,,,,,,,,,,,,,,,,,,,,,,,,,,,,,,
,,60d86238375036347c46a290,65af54de16eb9b7185ed4593,2024-01-23_24h56.09.999,bars,2023.2.3,MacIntel,59.88023952,657b66ea316d21385b68909f,,,,,,,,,,,,,,,,,,,,,,,,,,,,,,,,,,,,,,,,,,173.5581,173.8784,left,0.2909,,173.8785,1,1,174.8779,0,6,6,6,1,2,2,1,2,,,,,,,,,,,,,,,,,,,,,,,,,,,,,,,,,,,,,,,,,
,,60d86238375036347c46a290,65af54de16eb9b7185ed4593,2024-01-23_24h56.09.999,bars,2023.2.3,MacIntel,59.88023952,657b66ea316d21385b68909f,,,,,,,,,,,,,,,,,,,,,,,,,,,,,,,,,,,,,,,,,,174.8783,175.1843,right,0.2814,,175.1844,1,2,176.1663,0,7,7,7,1,0,0,0,1,,,,,,,,,,,,,,,,,,,,,,,,,,,,,,,,,,,,,,,,,
,,60d86238375036347c46a290,65af54de16eb9b7185ed4593,2024-01-23_24h56.09.999,bars,2023.2.3,MacIntel,59.88023952,657b66ea316d21385b68909f,,,,,,,,,,,,,,,,,,,,,,,,,,,,,,,,,,,,,,,,,,176.167,176.5659,left,0.3662,,176.566,1,1,177.5543,0,8,8,8,1,0,2,1,0,,,,,,,,,,,,,,,,,,,,,,,,,,,,,,,,,,,,,,,,,
,,60d86238375036347c46a290,65af54de16eb9b7185ed4593,2024-01-23_24h56.09.999,bars,2023.2.3,MacIntel,59.88023952,657b66ea316d21385b68909f,,,,,,,,,,,,,,,,,,,,,,,,,,,,,,,,,,,,,,,,,,177.5546,178.0278,left,0.3835,,178.0279,2,1,179.029,0,9,9,9,1,2,4,2,3,,,,,,,,,,,,,,,,,,,,,,,,,,,,,,,,,,,,,,,,,
,,60d86238375036347c46a290,65af54de16eb9b7185ed4593,2024-01-23_24h56.09.999,bars,2023.2.3,MacIntel,59.88023952,657b66ea316d21385b68909f,,,,,,,,,,,,,,,,,,,,,,,,,,,,,,,,,,,,,,,,,,179.0294,179.8351,left,0.772,,179.8352,0,1,180.8416,0,10,10,10,1,0,2,0,3,,,,,,,,,,,,,,,,,,,,,,,,,,,,,,,,,,,,,,,,,
,,60d86238375036347c46a290,65af54de16eb9b7185ed4593,2024-01-23_24h56.09.999,bars,2023.2.3,MacIntel,59.88023952,657b66ea316d21385b68909f,,,,,,,,,,,,,,,,,,,,,,,,,,,,,,,,,,,,,,,,,,180.8422,181.7857,right,0.915,,181.7858,3,2,182.7824,0,11,11,11,1,0,4,0,3,,,,,,,,,,,,,,,,,,,,,,,,,,,,,,,,,,,,,,,,,
,,60d86238375036347c46a290,65af54de16eb9b7185ed4593,2024-01-23_24h56.09.999,bars,2023.2.3,MacIntel,59.88023952,657b66ea316d21385b68909f,,,,,,,,,,,,,,,,,,,,,,,,,,,,,,,,,,,,,,,,,,182.783,183.2147,right,0.3824,,183.2147,6,2,184.2088,0,12,12,12,1,2,6,1,6,,,,,,,,,,,,,,,,,,,,,,,,,,,,,,,,,,,,,,,,,
,,60d86238375036347c46a290,65af54de16eb9b7185ed4593,2024-01-23_24h56.09.999,bars,2023.2.3,MacIntel,59.88023952,657b66ea316d21385b68909f,,,,,,,,,,,,,,,,,,,,,,,,,,,,,,,,,,,,,,,,,,184.2092,184.743,right,0.5065,,184.7431,3,2,185.745,0,13,13,13,1,0,4,1,3,,,,,,,,,,,,,,,,,,,,,,,,,,,,,,,,,,,,,,,,,
,,60d86238375036347c46a290,65af54de16eb9b7185ed4593,2024-01-23_24h56.09.999,bars,2023.2.3,MacIntel,59.88023952,657b66ea316d21385b68909f,,,,,,,,,,,,,,,,,,,,,,,,,,,,,,,,,,,,,,,,,,185.7456,186.8928,right,1.1171,,186.8928,7,2,187.8974,0,14,14,14,1,2,6,2,7,,,,,,,,,,,,,,,,,,,,,,,,,,,,,,,,,,,,,,,,,
,,60d86238375036347c46a290,65af54de16eb9b7185ed4593,2024-01-23_24h56.09.999,bars,2023.2.3,MacIntel,59.88023952,657b66ea316d21385b68909f,,,,,,,,,,,,,,,,,,,,,,,,,,,,,,,,,,,,,,,,,,187.8982,188.3606,left,0.398,,188.3608,3,1,189.3533,0,15,15,15,1,4,8,3,9,,,,,,,,,,,,,,,,,,,,,,,,,,,,,,,,,,,,,,,,,
,,60d86238375036347c46a290,65af54de16eb9b7185ed4593,2024-01-23_24h56.09.999,bars,2023.2.3,MacIntel,59.88023952,657b66ea316d21385b68909f,,,,,,,,,,,,,,,,,,,,,,,,,,,,,,,,,,,,,,,,,,189.3539,189.6463,right,0.268,,189.6463,7,2,190.6567,0,16,16,16,1,6,6,7,7,,,,,,,,,,,,,,,,,,,,,,,,,,,,,,,,,,,,,,,,,
,,60d86238375036347c46a290,65af54de16eb9b7185ed4593,2024-01-23_24h56.09.999,bars,2023.2.3,MacIntel,59.88023952,657b66ea316d21385b68909f,,,,,,,,,,,,,,,,,,,,,,,,,,,,,,,,,,,,,,,,,,190.657,190.9471,right,0.2711,,190.9471,5,2,191.9391,0,17,17,17,1,8,4,9,5,,,,,,,,,,,,,,,,,,,,,,,,,,,,,,,,,,,,,,,,,
,,60d86238375036347c46a290,65af54de16eb9b7185ed4593,2024-01-23_24h56.09.999,bars,2023.2.3,MacIntel,59.88023952,657b66ea316d21385b68909f,,,,,,,,,,,,,,,,,,,,,,,,,,,,,,,,,,,,,,,,,,191.9397,192.2926,right,0.3276,,192.2927,1,2,193.3469,0,18,18,18,1,6,2,5,1,,,,,,,,,,,,,,,,,,,,,,,,,,,,,,,,,,,,,,,,,
,,60d86238375036347c46a290,65af54de16eb9b7185ed4593,2024-01-23_24h56.09.999,bars,2023.2.3,MacIntel,59.88023952,657b66ea316d21385b68909f,,,,,,,,,,,,,,,,,,,,,,,,,,,,,,,,,,,,,,,,,,193.3475,193.6981,left,0.2822,,193.6981,7,1,194.7059,0,19,19,19,1,8,0,7,0,,,,,,,,,,,,,,,,,,,,,,,,,,,,,,,,,,,,,,,,,
,,60d86238375036347c46a290,65af54de16eb9b7185ed4593,2024-01-23_24h56.09.999,bars,2023.2.3,MacIntel,59.88023952,657b66ea316d21385b68909f,,,,,,,,,,,,,,,,,,,,,,,,,,,,,,,,,,,,,,,,,,,,,,,,,,,,,,,,,,,,194.7066,202.6357,space,7.8923,,,,,,,,,,,,,,,,,,,,,,,,,,,,,,,,,,,,,
,,60d86238375036347c46a290,65af54de16eb9b7185ed4593,2024-01-23_24h56.09.999,bars,2023.2.3,MacIntel,59.88023952,657b66ea316d21385b68909f,,,,,,,,,,,203.7927,204.7871,,,205.2915,205.539,,36,36,,,,,,,,,,,,,,,,bars/006.png,bars/mask003.png,,,,,,,,,,,,1,1,,,,,,,0,10,1,9,,,,,,202.6548,203.7862,space,1.116,,204.7875,205.2915,205.5394,208.3524,space,2.778,,208.3528,1,64,209.3551,209.3553,212.7447,space,3.3621,,0,0,0,0,1,35,100,,,,,,,,
,,60d86238375036347c46a290,65af54de16eb9b7185ed4593,2024-01-23_24h56.09.999,bars,2023.2.3,MacIntel,59.88023952,657b66ea316d21385b68909f,,,,,,,,,,,212.7455,213.7361,,,214.2283,214.469,,175,175,,,,,,,,,,,,,,,,bars/035.png,bars/mask006.png,,,,,,,,,,,,0,1,,,,,,,0,10,0,10,,,,,,,,,,,213.7361,214.2282,214.469,220.6626,space,6.1651,,220.6628,0,65,221.6508,221.6509,226.3768,space,4.69,,0,1,1,1,1,175,60,,,,,,,,
,,60d86238375036347c46a290,65af54de16eb9b7185ed4593,2024-01-23_24h56.09.999,bars,2023.2.3,MacIntel,59.88023952,657b66ea316d21385b68909f,,,,,,,,,,,226.39,227.3814,,,227.8848,228.128,,177,-3,,,,,,,,,,,,,,,,bars/008.png,bars/mask003.png,,,,,,,,,,,,9,2,,,,,,,0,10,0,10,,,,,,,,,,,227.3815,227.8848,228.128,238.6764,space,10.5251,,238.6764,67,3,239.668,239.668,241.103,space,1.4073,,0,2,2,2,1,110,0,,,,,,,,
,,60d86238375036347c46a290,65af54de16eb9b7185ed4593,2024-01-23_24h56.09.999,bars,2023.2.3,MacIntel,59.88023952,657b66ea316d21385b68909f,,,,,,,,,,,241.1035,242.1047,,,242.5943,242.8375,,136,136,,,,,,,,,,,,,,,,bars/000.png,bars/mask003.png,,,,,,,,,,,,6,2,,,,,,,0,8,0,9,,,,,,,,,,,242.1047,242.5943,242.8376,245.6879,space,2.83,,245.6879,84,9,246.6818,246.6821,248.6645,space,1.9513,,0,3,3,3,1,40,145,,,,,,,,
,,60d86238375036347c46a290,65af54de16eb9b7185ed4593,2024-01-23_24h56.09.999,bars,2023.2.3,MacIntel,59.88023952,657b66ea316d21385b68909f,,,,,,,,,,,248.665,249.6609,,,250.1495,250.4921,,152,152,,,,,,,,,,,,,,,,bars/043.png,bars/mask009.png,,,,,,,,,,,,3,2,,,,,,,2,10,3,10,,,,,,,,,,,249.6609,250.1495,250.4924,253.8492,space,3.2798,,253.8493,58,22,254.8411,254.8412,257.2828,space,2.4095,,0,4,4,4,1,30,130,,,,,,,,
,,60d86238375036347c46a290,65af54de16eb9b7185ed4593,2024-01-23_24h56.09.999,bars,2023.2.3,MacIntel,59.88023952,657b66ea316d21385b68909f,,,,,,,,,,,257.2834,258.2776,,,258.7829,259.0218,,156,-24,,,,,,,,,,,,,,,,bars/004.png,bars/mask002.png,,,,,,,,,,,,0,2,,,,,,,0,10,0,10,,,,,,,,,,,258.2777,258.7828,259.0219,264.9945,space,5.9499,,264.9945,49,31,265.9833,265.9835,267.7443,space,1.7321,,0,5,5,5,1,25,125,,,,,,,,
,,60d86238375036347c46a290,65af54de16eb9b7185ed4593,2024-01-23_24h56.09.999,bars,2023.2.3,MacIntel,59.88023952,657b66ea316d21385b68909f,,,,,,,,,,,267.7449,268.7339,,,269.2314,269.4901,,174,-6,,,,,,,,,,,,,,,,bars/049.png,bars/mask006.png,,,,,,,,,,,,1,1,,,,,,,2,10,1,10,,,,,,,,,,,268.734,269.2313,269.4902,272.5456,space,3.0448,,272.5457,14,59,273.5802,273.5805,276.0455,space,2.3712,,0,6,6,6,1,160,115,,,,,,,,
,,60d86238375036347c46a290,65af54de16eb9b7185ed4593,2024-01-23_24h56.09.999,bars,2023.2.3,MacIntel,59.88023952,657b66ea316d21385b68909f,,,,,,,,,,,276.0461,277.0433,,,277.5522,277.7789,,147,147,,,,,,,,,,,,,,,,bars/007.png,bars/mask003.png,,,,,,,,,,,,0,1,,,,,,,0,10,0,9,,,,,,,,,,,277.0434,277.5521,277.7789,281.0649,space,3.2607,,281.065,28,88,282.0568,282.0568,284.9718,space,2.8831,,0,7,7,7,1,175,55,,,,,,,,
,,60d86238375036347c46a290,65af54de16eb9b7185ed4593,2024-01-23_24h56.09.999,bars,2023.2.3,MacIntel,59.88023952,657b66ea316d21385b68909f,,,,,,,,,,,284.9889,285.9749,,,286.4722,286.7195,,20,200,,,,,,,,,,,,,,,,bars/010.png,bars/mask007.png,,,,,,,,,,,,0,2,,,,,,,2,8,2,7,,,,,,,,,,,285.9749,286.4721,286.7195,293.6128,space,6.8239,,293.6129,35,35,294.6176,294.6177,296.4265,space,1.7772,,0,8,8,8,1,165,55,,,,,,,,
,,60d86238375036347c46a290,65af54de16eb9b7185ed4593,2024-01-23_24h56.09.999,bars,2023.2.3,MacIntel,59.88023952,657b66ea316d21385b68909f,,,,,,,,,,,296.4273,297.4178,,,297.9085,298.1596,,60,60,,,,,,,,,,,,,,,,bars/029.png,bars/mask006.png,,,,,,,,,,,,3,2,,,,,,,0,6,1,6,,,,,,,,,,,297.4179,297.9084,298.1597,299.5169,space,1.2364,,299.5169,30,15,300.5142,300.5142,301.5896,space,1.048,,0,9,9,9,1,90,45,,,,,,,,
,,60d86238375036347c46a290,65af54de16eb9b7185ed4593,2024-01-23_24h56.09.999,bars,2023.2.3,MacIntel,59.88023952,657b66ea316d21385b68909f,,,,,,,,,,,301.5904,302.5782,,,303.0759,303.3269,,6,6,,,,,,,,,,,,,,,,bars/025.png,bars/mask006.png,,,,,,,,,,,,0,2,,,,,,,2,8,2,7,,,,,,,,,,,302.5782,303.0759,303.3269,306.5966,space,3.2424,,306.5966,81,34,307.6228,307.6228,309.6476,space,1.9212,,0,10,10,10,1,105,40,,,,,,,,
,,60d86238375036347c46a290,65af54de16eb9b7185ed4593,2024-01-23_24h56.09.999,bars,2023.2.3,MacIntel,59.88023952,657b66ea316d21385b68909f,,,,,,,,,,,309.6481,310.6531,,,311.1436,311.3891,,66,66,,,,,,,,,,,,,,,,bars/044.png,bars/mask008.png,,,,,,,,,,,,0,1,,,,,,,0,6,0,6,,,,,,,,,,,310.6532,311.1436,311.3891,314.7186,space,3.2981,,314.7187,9,89,315.7194,315.7195,317.7786,space,2.0262,,0,11,11,11,1,75,155,,,,,,,,
,,60d86238375036347c46a290,65af54de16eb9b7185ed4593,2024-01-23_24h56.09.999,bars,2023.2.3,MacIntel,59.88023952,657b66ea316d21385b68909f,,,,,,,,,,,317.779,318.774,,,319.2668,319.5176,,77,77,,,,,,,,,,,,,,,,bars/021.png,bars/mask006.png,,,,,,,,,,,,4,2,,,,,,,0,4,0,5,,,,,,,,,,,318.7741,319.2667,319.5176,322.6735,space,3.1257,,322.6735,78,7,323.7252,323.7253,324.8786,space,1.0718,,0,12,12,12,1,155,70,,,,,,,,
,,60d86238375036347c46a290,65af54de16eb9b7185ed4593,2024-01-23_24h56.09.999,bars,2023.2.3,MacIntel,59.88023952,657b66ea316d21385b68909f,,,,,,,,,,,324.8792,325.8779,,,326.3785,326.6273,,110,-70,,,,,,,,,,,,,,,,bars/006.png,bars/mask009.png,,,,,,,,,,,,2,2,,,,,,,2,2,2,3,,,,,,,,,,,325.8779,326.3785,326.6274,338.0473,space,11.4032,,338.0474,75,10,339.037,339.037,341.027,space,1.9544,,0,13,13,13,1,35,100,,,,,,,,
,,60d86238375036347c46a290,65af54de16eb9b7185ed4593,2024-01-23_24h56.09.999,bars,2023.2.3,MacIntel,59.88023952,657b66ea316d21385b68909f,,,,,,,,,,,341.0279,342.0336,,,342.5242,342.7665,,100,100,,,,,,,,,,,,,,,,bars/015.png,bars/mask000.png,,,,,,,,,,,,3,1,,,,,,,4,4,5,4,,,,,,,,,,,342.0336,342.5242,342.7667,349.5824,space,6.8067,,349.5825,10,60,350.5824,350.5825,352.2957,space,1.6799,,0,14,14,14,1,110,160,,,,,,,,
,,60d86238375036347c46a290,65af54de16eb9b7185ed4593,2024-01-23_24h56.09.999,bars,2023.2.3,MacIntel,59.88023952,657b66ea316d21385b68909f,,,,,,,,,,,352.2962,353.2937,,,353.7873,354.03,,164,164,,,,,,,,,,,,,,,,bars/006.png,bars/mask006.png,,,,,,,,,,,,0,1,,,,,,,2,6,0,3,,,,,,,,,,,353.2937,353.7873,354.0303,356.7893,space,2.7004,,356.7894,51,64,357.791,357.7911,359.2058,space,1.3798,,0,15,15,15,1,35,100,,,,,,,,
,,60d86238375036347c46a290,65af54de16eb9b7185ed4593,2024-01-23_24h56.09.999,bars,2023.2.3,MacIntel,59.88023952,657b66ea316d21385b68909f,,,,,,,,,,,359.2063,360.1947,,,360.6917,360.9401,,128,-52,,,,,,,,,,,,,,,,bars/044.png,bars/mask000.png,,,,,,,,,,,,0,2,,,,,,,4,4,3,4,,,,,,,,,,,360.1947,360.6917,360.9402,370.0841,space,9.1099,,370.0842,53,27,371.086,371.086,372.2966,space,1.1804,,0,16,16,16,1,75,155,,,,,,,,
,,60d86238375036347c46a290,65af54de16eb9b7185ed4593,2024-01-23_24h56.09.999,bars,2023.2.3,MacIntel,59.88023952,657b66ea316d21385b68909f,,,,,,,,,,,372.297,373.2965,,,373.7877,374.0285,,61,61,,,,,,,,,,,,,,,,bars/013.png,bars/mask001.png,,,,,,,,,,,,2,1,,,,,,,2,6,3,5,,,,,,,,,,,373.2965,373.7876,374.0286,385.0423,space,10.9953,,385.0425,14,51,386.0385,386.0386,387.1766,space,1.107,,0,17,17,17,1,75,10,,,,,,,,
,,60d86238375036347c46a290,65af54de16eb9b7185ed4593,2024-01-23_24h56.09.999,bars,2023.2.3,MacIntel,59.88023952,657b66ea316d21385b68909f,,,,,,,,,,,387.1772,388.1698,,,388.6705,388.9214,,165,165,,,,,,,,,,,,,,,,bars/008.png,bars/mask004.png,,,,,,,,,,,,4,2,,,,,,,4,8,5,8,,,,,,,,,,,388.1698,388.6705,388.9215,393.1326,space,4.1674,,393.1326,55,15,394.1339,394.134,395.319,space,1.1546,,0,18,18,18,1,110,0,,,,,,,,
,,60d86238375036347c46a290,65af54de16eb9b7185ed4593,2024-01-23_24h56.09.999,bars,2023.2.3,MacIntel,59.88023952,657b66ea316d21385b68909f,,,,,,,,,,,395.3195,396.3135,,,396.8094,397.0637,,163,163,,,,,,,,,,,,,,,,bars/045.png,bars/mask006.png,,,,,,,,,,,,1,2,,,,,,,6,10,7,10,,,,,,,,,,,396.3136,396.8094,397.0639,403.3712,space,6.3,,403.3713,63,27,404.3754,404.3754,405.9082,space,1.5051,,0,19,19,19,1,100,10,,,,,,,,
,,60d86238375036347c46a290,65af54de16eb9b7185ed4593,2024-01-23_24h56.09.999,bars,2023.2.3,MacIntel,59.88023952,657b66ea316d21385b68909f,,,,,,,,,,,405.9086,406.9073,,,407.4065,407.6596,,97,97,,,,,,,,,,,,,,,,bars/006.png,bars/mask007.png,,,,,,,,,,,,9,2,,,,,,,8,10,8,10,,,,,,,,,,,406.9073,407.4065,407.6598,410.141,space,2.4729,,410.1411,62,3,411.1455,411.1455,412.13,space,0.9555,,0,20,20,20,1,35,100,,,,,,,,
,,60d86238375036347c46a290,65af54de16eb9b7185ed4593,2024-01-23_24h56.09.999,bars,2023.2.3,MacIntel,59.88023952,657b66ea316d21385b68909f,,,,,,,,,,,412.1307,413.1227,,,413.619,413.8709,,0,0,,,,,,,,,,,,,,,,bars/004.png,bars/mask002.png,,,,,,,,,,,,2,1,,,,,,,10,8,10,8,,,,,,,,,,,413.1228,413.6189,413.871,421.1139,space,7.2325,,421.1139,25,55,422.1128,422.1129,423.613,space,1.4696,,0,21,21,21,1,25,125,,,,,,,,
,,60d86238375036347c46a290,65af54de16eb9b7185ed4593,2024-01-23_24h56.09.999,bars,2023.2.3,MacIntel,59.88023952,657b66ea316d21385b68909f,,,,,,,,,,,423.6137,424.6121,,,425.1018,425.3449,,53,53,,,,,,,,,,,,,,,,bars/048.png,bars/mask006.png,,,,,,,,,,,,9,1,,,,,,,10,10,10,10,,,,,,,,,,,424.6122,425.1017,425.3449,430.2078,space,4.8384,,430.2078,3,58,431.2067,431.2067,432.1801,space,0.9499,,0,22,22,22,1,50,175,,,,,,,,
,,60d86238375036347c46a290,65af54de16eb9b7185ed4593,2024-01-23_24h56.09.999,bars,2023.2.3,MacIntel,59.88023952,657b66ea316d21385b68909f,,,,,,,,,,,432.1809,433.1724,,,433.6721,433.9235,,127,127,,,,,,,,,,,,,,,,bars/014.png,bars/mask000.png,,,,,,,,,,,,0,1,,,,,,,8,8,8,8,,,,,,,,,,,433.1725,433.672,433.9236,437.5863,space,3.6506,,437.5863,47,53,438.5888,438.5889,439.6923,space,1.0753,,0,23,23,23,1,80,0,,,,,,,,
,,60d86238375036347c46a290,65af54de16eb9b7185ed4593,2024-01-23_24h56.09.999,bars,2023.2.3,MacIntel,59.88023952,657b66ea316d21385b68909f,,,,,,,,,,,439.6932,440.6848,,,441.1764,441.4173,,47,227,,,,,,,,,,,,,,,,bars/016.png,bars/mask009.png,,,,,,,,,,,,4,1,,,,,,,6,10,5,10,,,,,,,,,,,440.6849,441.1763,441.4174,451.9283,space,10.483,,451.9283,7,62,452.9261,452.9262,453.9921,space,1.0362,,0,24,24,24,1,40,165,,,,,,,,
,,60d86238375036347c46a290,65af54de16eb9b7185ed4593,2024-01-23_24h56.09.999,bars,2023.2.3,MacIntel,59.88023952,657b66ea316d21385b68909f,,,,,,,,,,,453.9925,454.9919,,,455.4915,455.7463,,164,164,,,,,,,,,,,,,,,,bars/008.png,bars/mask003.png,,,,,,,,,,,,5,2,,,,,,,4,10,6,10,,,,,,,,,,,454.9919,455.4914,455.7464,457.4446,space,1.678,,457.4448,54,16,458.4487,458.4488,459.7222,space,1.2096,,0,25,25,25,1,110,0,,,,,,,,
,,60d86238375036347c46a290,65af54de16eb9b7185ed4593,2024-01-23_24h56.09.999,bars,2023.2.3,MacIntel,59.88023952,657b66ea316d21385b68909f,,,,,,,,,,,459.7226,460.7172,,,461.2145,461.4603,,44,44,,,,,,,,,,,,,,,,bars/044.png,bars/mask005.png,,,,,,,,,,,,0,1,,,,,,,2,8,1,8,,,,,,,,,,,460.7172,461.2144,461.4603,465.9705,space,4.4801,,465.9707,31,69,466.9636,466.9637,468.1667,space,1.1627,,0,26,26,26,1,75,155,,,,,,,,
,,60d86238375036347c46a290,65af54de16eb9b7185ed4593,2024-01-23_24h56.09.999,bars,2023.2.3,MacIntel,59.88023952,657b66ea316d21385b68909f,,,,,,,,,,,468.1674,469.166,,,469.6575,469.9001,,75,75,,,,,,,,,,,,,,,,bars/047.png,bars/mask003.png,,,,,,,,,,,,7,2,,,,,,,4,10,4,8,,,,,,,,,,,469.166,469.6575,469.9002,475.0927,space,5.1662,,475.0927,60,5,476.0949,476.0949,476.9521,space,0.8266,,0,27,27,27,1,15,70,,,,,,,,
,,60d86238375036347c46a290,65af54de16eb9b7185ed4593,2024-01-23_24h56.09.999,bars,2023.2.3,MacIntel,59.88023952,657b66ea316d21385b68909f,,,,,,,,,,,476.9527,477.943,,,478.445,478.6941,,65,65,,,,,,,,,,,,,,,,bars/028.png,bars/mask004.png,,,,,,,,,,,,2,1,,,,,,,6,8,7,10,,,,,,,,,,,477.9431,478.4449,478.6941,480.2,space,1.4976,,480.2,20,55,481.1935,481.1935,482.3904,space,1.1652,,0,28,28,28,1,45,120,,,,,,,,
,,60d86238375036347c46a290,65af54de16eb9b7185ed4593,2024-01-23_24h56.09.999,bars,2023.2.3,MacIntel,59.88023952,657b66ea316d21385b68909f,,,,,,,,,,,482.3908,483.3914,,,483.8901,484.138,,169,169,,,,,,,,,,,,,,,,bars/039.png,bars/mask000.png,,,,,,,,,,,,2,1,,,,,,,4,6,3,6,,,,,,,,,,,483.3914,483.89,484.138,486.6541,space,2.4903,,486.6542,6,64,487.653,487.6531,488.6046,space,0.9266,,0,29,29,29,1,175,105,,,,,,,,
,,60d86238375036347c46a290,65af54de16eb9b7185ed4593,2024-01-23_24h56.09.999,bars,2023.2.3,MacIntel,59.88023952,657b66ea316d21385b68909f,,,,,,,,,,,488.6053,489.6054,,,490.1021,490.3547,,120,120,,,,,,,,,,,,,,,,bars/019.png,bars/mask005.png,,,,,,,,,,,,4,2,,,,,,,6,8,6,7,,,,,,,,,,,489.6055,490.102,490.3547,493.0866,space,2.7055,,493.0866,75,15,494.0822,494.0823,494.8646,space,0.7525,,0,30,30,30,1,45,105,,,,,,,,
,,60d86238375036347c46a290,65af54de16eb9b7185ed4593,2024-01-23_24h56.09.999,bars,2023.2.3,MacIntel,59.88023952,657b66ea316d21385b68909f,,,,,,,,,,,494.8649,495.8659,,,496.3658,496.6141,,68,68,,,,,,,,,,,,,,,,bars/049.png,bars/mask002.png,,,,,,,,,,,,0,2,,,,,,,8,10,8,10,,,,,,,,,,,495.8659,496.3658,496.6142,499.3835,space,2.7521,,499.3836,88,47,500.3594,500.3595,501.3572,space,0.9405,,0,31,31,31,1,160,115,,,,,,,,
,,60d86238375036347c46a290,65af54de16eb9b7185ed4593,2024-01-23_24h56.09.999,bars,2023.2.3,MacIntel,59.88023952,657b66ea316d21385b68909f,,,,,,,,,,,501.3578,502.3501,,,502.8426,503.0929,,28,28,,,,,,,,,,,,,,,,bars/032.png,bars/mask006.png,,,,,,,,,,,,5,2,,,,,,,6,8,5,7,,,,,,,,,,,502.3502,502.8426,503.0929,505.0254,space,1.9155,,505.0255,83,8,506.025,506.025,506.6777,space,0.6264,,0,32,32,32,1,125,20,,,,,,,,
,,60d86238375036347c46a290,65af54de16eb9b7185ed4593,2024-01-23_24h56.09.999,bars,2023.2.3,MacIntel,59.88023952,657b66ea316d21385b68909f,,,,,,,,,,,506.6782,507.6739,,,508.1727,508.4231,,112,112,,,,,,,,,,,,,,,,bars/043.png,bars/mask005.png,,,,,,,,,,,,2,2,,,,,,,4,6,2,6,,,,,,,,,,,507.674,508.1727,508.4231,510.1911,space,1.7411,,510.1912,82,18,511.2039,511.204,511.9874,space,0.7642,,0,33,33,33,1,30,130,,,,,,,,
,,60d86238375036347c46a290,65af54de16eb9b7185ed4593,2024-01-23_24h56.09.999,bars,2023.2.3,MacIntel,59.88023952,657b66ea316d21385b68909f,,,,,,,,,,,511.9877,512.9885,,,513.4784,513.7287,,59,59,,,,,,,,,,,,,,,,bars/022.png,bars/mask001.png,,,,,,,,,,,,0,1,,,,,,,6,8,7,8,,,,,,,,,,,512.9885,513.4783,513.7288,518.1004,space,4.3602,,518.1004,36,39,519.0893,519.0893,521.2348,space,2.0826,,0,34,34,34,1,95,20,,,,,,,,
,,60d86238375036347c46a290,65af54de16eb9b7185ed4593,2024-01-23_24h56.09.999,bars,2023.2.3,MacIntel,59.88023952,657b66ea316d21385b68909f,,,,,,,,,,,521.2357,522.2308,,,522.7301,522.9806,,162,162,,,,,,,,,,,,,,,,bars/006.png,bars/mask009.png,,,,,,,,,,,,0,1,,,,,,,4,6,3,5,,,,,,,,,,,522.2308,522.7301,522.9807,524.9783,space,1.985,,524.9783,53,62,525.9782,525.9783,526.6942,space,0.6858,,0,35,35,35,1,35,100,,,,,,,,
,,60d86238375036347c46a290,65af54de16eb9b7185ed4593,2024-01-23_24h56.09.999,bars,2023.2.3,MacIntel,59.88023952,657b66ea316d21385b68909f,,,,,,,,,,,526.6946,527.6949,,,528.1931,528.4437,,104,104,,,,,,,,,,,,,,,,bars/045.png,bars/mask003.png,,,,,,,,,,,,0,1,,,,,,,2,8,0,9,,,,,,,,,,,527.6949,528.193,528.4438,533.7857,space,5.3263,,533.7857,4,86,534.8123,534.8124,535.9004,space,0.9689,,0,36,36,36,1,100,10,,,,,,,,
,,60d86238375036347c46a290,65af54de16eb9b7185ed4593,2024-01-23_24h56.09.999,bars,2023.2.3,MacIntel,59.88023952,657b66ea316d21385b68909f,,,,,,,,,,,535.9009,536.8887,,,537.3873,537.6363,,103,103,,,,,,,,,,,,,,,,bars/009.png,bars/mask007.png,,,,,,,,,,,,5,2,,,,,,,0,6,0,5,,,,,,,,,,,536.8887,537.3872,537.6364,543.3496,space,5.6903,,543.3496,88,2,544.3491,544.3491,545.6978,space,1.3167,,0,37,37,37,1,15,105,,,,,,,,
,,60d86238375036347c46a290,65af54de16eb9b7185ed4593,2024-01-23_24h56.09.999,bars,2023.2.3,MacIntel,59.88023952,657b66ea316d21385b68909f,,,,,,,,,,,545.6983,546.6974,,,547.1984,547.4476,,107,107,,,,,,,,,,,,,,,,bars/009.png,bars/mask009.png,,,,,,,,,,,,5,2,,,,,,,0,4,1,5,,,,,,,,,,,546.6974,547.1984,547.4479,552.6605,space,5.1618,,552.6605,88,2,553.6601,553.6602,554.4462,space,0.7614,,0,38,38,38,1,15,105,,,,,,,,
,,60d86238375036347c46a290,65af54de16eb9b7185ed4593,2024-01-23_24h56.09.999,bars,2023.2.3,MacIntel,59.88023952,657b66ea316d21385b68909f,,,,,,,,,,,554.4466,555.4362,,,555.9264,556.1749,,98,98,,,,,,,,,,,,,,,,bars/026.png,bars/mask002.png,,,,,,,,,,,,2,2,,,,,,,0,2,2,3,,,,,,,,,,,555.4364,555.9264,556.1749,562.6875,space,6.4973,,562.6875,63,13,563.6858,563.6859,564.4213,space,0.7094,,0,39,39,39,1,35,85,,,,,,,,
,,60d86238375036347c46a290,65af54de16eb9b7185ed4593,2024-01-23_24h56.09.999,bars,2023.2.3,MacIntel,59.88023952,657b66ea316d21385b68909f,,,,,,,,,,,564.4217,565.4217,,,565.9188,566.1705,,84,84,,,,,,,,,,,,,,,,bars/042.png,bars/mask000.png,,,,,,,,,,,,4,2,,,,,,,0,4,0,5,,,,,,,,,,,565.4218,565.9188,566.1707,567.8542,space,1.6575,,567.8543,61,9,568.8496,568.8496,569.432,space,0.5557,,0,40,40,40,1,145,75,,,,,,,,
,,60d86238375036347c46a290,65af54de16eb9b7185ed4593,2024-01-23_24h56.09.999,bars,2023.2.3,MacIntel,59.88023952,657b66ea316d21385b68909f,,,,,,,,,,,569.4325,570.4356,,,570.9317,571.1672,,89,89,,,,,,,,,,,,,,,,bars/026.png,bars/mask005.png,,,,,,,,,,,,2,2,,,,,,,0,2,1,2,,,,,,,,,,,570.4357,570.9317,571.1673,577.4955,space,6.2996,,577.4956,54,4,578.4935,578.4935,579.0779,space,0.559,,0,41,41,41,1,35,85,,,,,,,,
,,60d86238375036347c46a290,65af54de16eb9b7185ed4593,2024-01-23_24h56.09.999,bars,2023.2.3,MacIntel,59.88023952,657b66ea316d21385b68909f,,,,,,,,,,,579.0799,580.0772,,,580.5761,580.8244,,56,56,,,,,,,,,,,,,,,,bars/033.png,bars/mask001.png,,,,,,,,,,,,0,1,,,,,,,0,0,0,1,,,,,,,,,,,580.0772,580.5761,580.8244,582.5908,space,1.735,,582.5908,31,81,583.5901,583.5901,584.3397,space,0.7208,,0,42,42,42,1,25,155,,,,,,,,
,,60d86238375036347c46a290,65af54de16eb9b7185ed4593,2024-01-23_24h56.09.999,bars,2023.2.3,MacIntel,59.88023952,657b66ea316d21385b68909f,,,,,,,,,,,584.3401,585.3399,,,585.8385,586.089,,100,100,,,,,,,,,,,,,,,,bars/001.png,bars/mask008.png,,,,,,,,,,,,0,2,,,,,,,0,0,2,0,,,,,,,,,,,585.3399,585.8385,586.089,588.8697,space,2.7691,,588.8697,30,15,589.8699,589.87,590.4716,space,0.5719,,0,43,43,43,1,130,85,,,,,,,,
,,60d86238375036347c46a290,65af54de16eb9b7185ed4593,2024-01-23_24h56.09.999,bars,2023.2.3,MacIntel,59.88023952,657b66ea316d21385b68909f,,,,,,,,,,,590.4722,591.4698,,,591.971,592.2199,,132,132,,,,,,,,,,,,,,,,bars/035.png,bars/mask006.png,,,,,,,,,,,,0,1,,,,,,,0,0,0,1,,,,,,,,,,,591.4699,591.971,592.22,597.6967,space,5.4684,,597.6968,43,72,598.696,598.6961,599.3631,space,0.6379,,0,44,44,44,1,175,60,,,,,,,,
,,60d86238375036347c46a290,65af54de16eb9b7185ed4593,2024-01-23_24h56.09.999,bars,2023.2.3,MacIntel,59.88023952,657b66ea316d21385b68909f,,,,,,,,,,,599.3635,600.3614,,,600.863,601.1127,,99,99,,,,,,,,,,,,,,,,bars/001.png,bars/mask000.png,,,,,,,,,,,,2,2,,,,,,,2,2,1,4,,,,,,,,,,,600.3614,600.8629,601.1128,604.7935,space,3.6642,,604.7938,31,14,605.7922,605.7923,606.342,space,0.5209,,0,45,45,45,1,130,85,,,,,,,,
,,60d86238375036347c46a290,65af54de16eb9b7185ed4593,2024-01-23_24h56.09.999,bars,2023.2.3,MacIntel,59.88023952,657b66ea316d21385b68909f,,,,,,,,,,,606.3424,607.343,,,607.841,608.0908,,50,50,,,,,,,,,,,,,,,,bars/005.png,bars/mask000.png,,,,,,,,,,,,0,1,,,,,,,4,4,5,4,,,,,,,,,,,607.3431,607.8409,608.0908,610.6714,space,2.5714,,610.6714,40,90,611.6716,611.6716,612.2446,space,0.5397,,0,46,46,46,1,10,140,,,,,,,,
,,60d86238375036347c46a290,65af54de16eb9b7185ed4593,2024-01-23_24h56.09.999,bars,2023.2.3,MacIntel,59.88023952,657b66ea316d21385b68909f,,,,,,,,,,,612.2497,613.253,,,613.7532,614.0023,,146,146,,,,,,,,,,,,,,,,bars/008.png,bars/mask004.png,,,,,,,,,,,,0,2,,,,,,,2,2,1,2,,,,,,,,,,,613.2531,613.7532,614.0023,619.0199,space,5.0065,,619.02,36,34,620.0165,620.0166,624.0629,space,4.0141,,0,47,47,47,1,110,0,,,,,,,,
,,60d86238375036347c46a290,65af54de16eb9b7185ed4593,2024-01-23_24h56.09.999,bars,2023.2.3,MacIntel,59.88023952,657b66ea316d21385b68909f,,,,,,,,,,,624.0782,625.085,,,625.5644,625.8118,,33,33,,,,,,,,,,,,,,,,bars/006.png,bars/mask006.png,,,,,,,,,,,,4,1,,,,,,,4,0,4,1,,,,,,,,,,,625.085,625.5643,625.8118,627.7104,space,1.875,,627.7104,2,67,628.7094,628.7094,629.394,space,0.6521,,0,48,48,48,1,35,100,,,,,,,,
,,60d86238375036347c46a290,65af54de16eb9b7185ed4593,2024-01-23_24h56.09.999,bars,2023.2.3,MacIntel,59.88023952,657b66ea316d21385b68909f,,,,,,,,,,,629.3945,630.3926,,,630.8941,631.1416,,119,119,,,,,,,,,,,,,,,,bars/033.png,bars/mask008.png,,,,,,,,,,,,0,2,,,,,,,2,0,1,0,,,,,,,,,,,630.3926,630.8941,631.1416,636.3731,space,5.2216,,636.3731,86,36,637.3724,637.3724,638.0002,space,0.598,,0,49,49,49,1,25,155,,,,,,,,
,,60d86238375036347c46a290,65af54de16eb9b7185ed4593,2024-01-23_24h56.09.999,bars,2023.2.3,MacIntel,59.88023952,657b66ea316d21385b68909f,,,,,,,,,,,,,,,,,,,,,,,,,,,,,,,,,,,,,,,,,,,,,,,,,,,,,,,,,,,,,,,,,,,,,,,,,,,,,,,,,,,,,,,,,,,,,638.0012,697.9975,0,0,0,2,1,sequence_tables/blk017.csv
,,60d86238375036347c46a290,65af54de16eb9b7185ed4593,2024-01-23_24h56.09.999,bars,2023.2.3,MacIntel,59.88023952,657b66ea316d21385b68909f,,,,,,,,,,,699.3714,700.3641,,,700.8635,701.1111,,107,107,,,,,,,,,,,,,,,,bars/028.png,bars/mask003.png,,,,,,,,,,,,1,2,,,,,,,10,2,9,2,,,,,,698.0124,699.362,space,1.34,,700.3642,700.8635,701.1111,704.0931,space,2.9537,,704.0931,62,13,705.0927,705.0927,705.1118,,,,0,0,0,0,1,45,120,,,,,,,,
,,60d86238375036347c46a290,65af54de16eb9b7185ed4593,2024-01-23_24h56.09.999,bars,2023.2.3,MacIntel,59.88023952,657b66ea316d21385b68909f,,,,,,,,,,,705.112,706.1084,,,706.6089,706.8582,,68,68,,,,,,,,,,,,,,,,bars/002.png,bars/mask000.png,,,,,,,,,,,,0,2,,,,,,,8,0,8,0,,,,,,,,,,,706.1084,706.6088,706.8583,714.7897,space,7.9137,,714.7898,62,17,715.7853,715.7855,715.8046,,,,0,1,1,1,1,130,85,,,,,,,,
,,60d86238375036347c46a290,65af54de16eb9b7185ed4593,2024-01-23_24h56.09.999,bars,2023.2.3,MacIntel,59.88023952,657b66ea316d21385b68909f,,,,,,,,,,,715.8049,716.8016,,,717.3018,717.5505,,93,93,,,,,,,,,,,,,,,,bars/027.png,bars/mask003.png,,,,,,,,,,,,2,1,,,,,,,6,2,4,2,,,,,,,,,,,716.8017,717.3018,717.5505,722.6149,space,5.047,,722.6149,17,43,723.6137,723.6137,723.6302,,,,0,2,2,2,1,110,50,,,,,,,,
,,60d86238375036347c46a290,65af54de16eb9b7185ed4593,2024-01-23_24h56.09.999,bars,2023.2.3,MacIntel,59.88023952,657b66ea316d21385b68909f,,,,,,,,,,,723.6304,724.6301,,,725.1285,725.453,,39,219,,,,,,,,,,,,,,,,bars/031.png,bars/mask001.png,,,,,,,,,,,,1,2,,,,,,,8,0,6,1,,,,,,,,,,,724.6302,725.1284,725.4532,735.7588,space,10.2324,,735.7591,81,4,736.7552,736.7553,736.7728,,,,0,3,3,3,1,120,35,,,,,,,,
,,60d86238375036347c46a290,65af54de16eb9b7185ed4593,2024-01-23_24h56.09.999,bars,2023.2.3,MacIntel,59.88023952,657b66ea316d21385b68909f,,,,,,,,,,,736.773,737.7722,,,738.2623,738.504,,5,5,,,,,,,,,,,,,,,,bars/003.png,bars/mask001.png,,,,,,,,,,,,3,1,,,,,,,6,2,8,1,,,,,,,,,,,737.7722,738.2623,738.504,740.4193,space,1.895,,740.4193,20,45,741.4192,741.4193,741.4387,,,,0,4,4,4,1,25,140,,,,,,,,
,,60d86238375036347c46a290,65af54de16eb9b7185ed4593,2024-01-23_24h56.09.999,bars,2023.2.3,MacIntel,59.88023952,657b66ea316d21385b68909f,,,,,,,,,,,741.4389,742.4357,,,742.9346,743.1853,,168,168,,,,,,,,,,,,,,,,bars/008.png,bars/mask008.png,,,,,,,,,,,,0,2,,,,,,,4,0,6,0,,,,,,,,,,,742.4358,742.9346,743.1853,744.683,space,1.4878,,744.683,58,12,745.6834,745.6834,745.6864,,,,0,5,5,5,1,110,0,,,,,,,,
,,60d86238375036347c46a290,65af54de16eb9b7185ed4593,2024-01-23_24h56.09.999,bars,2023.2.3,MacIntel,59.88023952,657b66ea316d21385b68909f,,,,,,,,,,,745.6869,746.6824,,,747.1814,747.4323,,109,109,,,,,,,,,,,,,,,,bars/035.png,bars/mask003.png,,,,,,,,,,,,0,2,,,,,,,2,0,2,1,,,,,,,,,,,746.6825,747.1813,747.4323,749.5691,space,2.1289,,749.5691,66,49,750.5638,750.5638,750.5649,,,,0,6,6,6,1,175,60,,,,,,,,
,,60d86238375036347c46a290,65af54de16eb9b7185ed4593,2024-01-23_24h56.09.999,bars,2023.2.3,MacIntel,59.88023952,657b66ea316d21385b68909f,,,,,,,,,,,750.5655,751.5613,,,752.0624,752.3129,,124,124,,,,,,,,,,,,,,,,bars/028.png,bars/mask006.png,,,,,,,,,,,,1,2,,,,,,,4,2,4,1,,,,,,,,,,,751.5614,752.0624,752.313,754.8326,space,2.5111,,754.8327,79,4,755.8251,755.8252,755.8421,,,,0,7,7,7,1,45,120,,,,,,,,
,,60d86238375036347c46a290,65af54de16eb9b7185ed4593,2024-01-23_24h56.09.999,bars,2023.2.3,MacIntel,59.88023952,657b66ea316d21385b68909f,,,,,,,,,,,755.8424,756.8415,,,757.3422,757.593,,70,70,,,,,,,,,,,,,,,,bars/025.png,bars/mask000.png,,,,,,,,,,,,0,2,,,,,,,6,0,6,1,,,,,,,,,,,756.8415,757.3421,757.593,763.5217,space,5.914,,763.5218,35,30,764.5201,764.5201,764.5375,,,,0,8,8,8,1,105,40,,,,,,,,
,,60d86238375036347c46a290,65af54de16eb9b7185ed4593,2024-01-23_24h56.09.999,bars,2023.2.3,MacIntel,59.88023952,657b66ea316d21385b68909f,,,,,,,,,,,764.5377,765.5384,,,766.0351,766.2863,,99,99,,,,,,,,,,,,,,,,bars/044.png,bars/mask001.png,,,,,,,,,,,,1,1,,,,,,,4,2,5,2,,,,,,,,,,,765.5384,766.035,766.2864,771.6488,space,5.3413,,771.6488,24,56,772.6397,772.6398,772.66,,,,0,9,9,9,1,75,155,,,,,,,,
,,60d86238375036347c46a290,65af54de16eb9b7185ed4593,2024-01-23_24h56.09.999,bars,2023.2.3,MacIntel,59.88023952,657b66ea316d21385b68909f,,,,,,,,,,,772.6603,773.6482,,,774.1465,774.3766,,83,83,,,,,,,,,,,,,,,,bars/010.png,bars/mask008.png,,,,,,,,,,,,0,2,,,,,,,2,0,2,0,,,,,,,,,,,773.6482,774.1464,774.3767,779.4437,space,5.0372,,779.4437,82,28,780.4435,780.4435,780.4614,,,,0,10,10,10,1,165,55,,,,,,,,
,,60d86238375036347c46a290,65af54de16eb9b7185ed4593,2024-01-23_24h56.09.999,bars,2023.2.3,MacIntel,59.88023952,657b66ea316d21385b68909f,,,,,,,,,,,780.4617,781.4622,,,781.9722,782.2127,,133,133,,,,,,,,,,,,,,,,bars/004.png,bars/mask002.png,,,,,,,,,,,,3,2,,,,,,,0,2,1,4,,,,,,,,,,,781.4622,781.9722,782.2127,786.856,space,4.6043,,786.8561,72,8,787.8657,787.8658,787.8889,,,,0,11,11,11,1,25,125,,,,,,,,
,,60d86238375036347c46a290,65af54de16eb9b7185ed4593,2024-01-23_24h56.09.999,bars,2023.2.3,MacIntel,59.88023952,657b66ea316d21385b68909f,,,,,,,,,,,787.8893,788.8897,,,789.3896,789.6398,,109,109,,,,,,,,,,,,,,,,bars/001.png,bars/mask002.png,,,,,,,,,,,,1,1,,,,,,,2,0,2,0,,,,,,,,,,,788.8898,789.3896,789.6399,797.843,space,8.184,,797.8431,21,24,798.8332,798.8333,798.8537,,,,0,12,12,12,1,130,85,,,,,,,,
,,60d86238375036347c46a290,65af54de16eb9b7185ed4593,2024-01-23_24h56.09.999,bars,2023.2.3,MacIntel,59.88023952,657b66ea316d21385b68909f,,,,,,,,,,,798.8539,799.8482,,,800.3465,800.5963,,143,143,,,,,,,,,,,,,,,,bars/023.png,bars/mask001.png,,,,,,,,,,,,0,2,,,,,,,0,2,1,1,,,,,,,,,,,799.8482,800.3465,800.5963,812.34,space,11.7322,,812.3401,57,28,813.3381,813.3381,813.3582,,,,0,13,13,13,1,20,115,,,,,,,,
,,60d86238375036347c46a290,65af54de16eb9b7185ed4593,2024-01-23_24h56.09.999,bars,2023.2.3,MacIntel,59.88023952,657b66ea316d21385b68909f,,,,,,,,,,,813.3585,814.356,,,814.8531,815.1031,,136,-44,,,,,,,,,,,,,,,,bars/019.png,bars/mask003.png,,,,,,,,,,,,0,2,,,,,,,2,0,1,0,,,,,,,,,,,814.3561,814.8531,815.1031,825.2955,space,10.1814,,825.2956,89,31,826.2957,826.2958,826.3141,,,,0,14,14,14,1,45,105,,,,,,,,
,,60d86238375036347c46a290,65af54de16eb9b7185ed4593,2024-01-23_24h56.09.999,bars,2023.2.3,MacIntel,59.88023952,657b66ea316d21385b68909f,,,,,,,,,,,826.3143,827.3109,,,827.812,828.0623,,178,-2,,,,,,,,,,,,,,,,bars/036.png,bars/mask004.png,,,,,,,,,,,,1,2,,,,,,,4,2,4,3,,,,,,,,,,,827.3109,827.8119,828.0623,833.7082,space,5.6289,,833.7082,33,22,834.7079,834.7079,834.7278,,,,0,15,15,15,1,145,20,,,,,,,,
,,60d86238375036347c46a290,65af54de16eb9b7185ed4593,2024-01-23_24h56.09.999,bars,2023.2.3,MacIntel,59.88023952,657b66ea316d21385b68909f,,,,,,,,,,,834.7281,835.7227,,,836.2226,836.4722,,77,77,,,,,,,,,,,,,,,,bars/037.png,bars/mask004.png,,,,,,,,,,,,0,2,,,,,,,2,4,2,3,,,,,,,,,,,835.7227,836.2226,836.4723,841.6358,space,5.1472,,841.6358,73,28,842.6346,842.6347,842.6519,,,,0,16,16,16,1,150,105,,,,,,,,
,,60d86238375036347c46a290,65af54de16eb9b7185ed4593,2024-01-23_24h56.09.999,bars,2023.2.3,MacIntel,59.88023952,657b66ea316d21385b68909f,,,,,,,,,,,842.6522,843.6516,,,844.1501,844.3999,,48,48,,,,,,,,,,,,,,,,bars/031.png,bars/mask006.png,,,,,,,,,,,,2,2,,,,,,,4,2,7,4,,,,,,,,,,,843.6516,844.1501,844.4,848.6319,space,4.2053,,848.6319,72,13,849.6306,849.6307,849.6485,,,,0,17,17,17,1,120,35,,,,,,,,
,,60d86238375036347c46a290,65af54de16eb9b7185ed4593,2024-01-23_24h56.09.999,bars,2023.2.3,MacIntel,59.88023952,657b66ea316d21385b68909f,,,,,,,,,,,849.6487,850.6461,,,851.1462,851.3981,,171,171,,,,,,,,,,,,,,,,bars/036.png,bars/mask006.png,,,,,,,,,,,,1,1,,,,,,,6,4,6,4,,,,,,,,,,,850.6461,851.1461,851.3983,859.8698,space,8.4454,,859.8699,26,29,860.8732,860.8733,860.8939,,,,0,18,18,18,1,145,20,,,,,,,,
,,60d86238375036347c46a290,65af54de16eb9b7185ed4593,2024-01-23_24h56.09.999,bars,2023.2.3,MacIntel,59.88023952,657b66ea316d21385b68909f,,,,,,,,,,,860.8941,861.8895,,,862.3884,862.6384,,88,88,,,,,,,,,,,,,,,,bars/008.png,bars/mask000.png,,,,,,,,,,,,0,1,,,,,,,4,6,1,6,,,,,,,,,,,861.8895,862.3884,862.6385,864.6863,space,2.0383,,864.6864,22,88,865.6878,865.6878,865.7075,,,,0,19,19,19,1,110,0,,,,,,,,
,,60d86238375036347c46a290,65af54de16eb9b7185ed4593,2024-01-23_24h56.09.999,bars,2023.2.3,MacIntel,59.88023952,657b66ea316d21385b68909f,,,,,,,,,,,865.7076,866.7023,,,867.2025,867.4563,,112,112,,,,,,,,,,,,,,,,bars/042.png,bars/mask008.png,,,,,,,,,,,,0,1,,,,,,,6,4,5,5,,,,,,,,,,,866.7023,867.2025,867.4564,873.2479,space,5.7775,,873.248,33,37,874.2554,874.2556,874.2904,,,,0,20,20,20,1,145,75,,,,,,,,
,,60d86238375036347c46a290,65af54de16eb9b7185ed4593,2024-01-23_24h56.09.999,bars,2023.2.3,MacIntel,59.88023952,657b66ea316d21385b68909f,,,,,,,,,,,874.3359,875.3072,,,875.7979,876.0458,,66,66,,,,,,,,,,,,,,,,bars/046.png,bars/mask007.png,,,,,,,,,,,,1,2,,,,,,,8,2,8,3,,,,,,,,,,,875.3072,875.7978,876.0459,884.2236,space,8.1709,,884.2236,89,19,885.2235,885.2236,885.243,,,,0,21,21,21,1,155,85,,,,,,,,
,,60d86238375036347c46a290,65af54de16eb9b7185ed4593,2024-01-23_24h56.09.999,bars,2023.2.3,MacIntel,59.88023952,657b66ea316d21385b68909f,,,,,,,,,,,885.2432,886.2398,,,886.739,886.9888,,24,24,,,,,,,,,,,,,,,,bars/049.png,bars/mask008.png,,,,,,,,,,,,0,1,,,,,,,6,4,6,5,,,,,,,,,,,886.2398,886.7389,886.9888,894.5197,space,7.5064,,894.5197,44,89,895.518,895.518,895.5373,,,,0,22,22,22,1,160,115,,,,,,,,
,,60d86238375036347c46a290,65af54de16eb9b7185ed4593,2024-01-23_24h56.09.999,bars,2023.2.3,MacIntel,59.88023952,657b66ea316d21385b68909f,,,,,,,,,,,895.5374,896.5317,,,897.0331,897.2817,,79,79,,,,,,,,,,,,,,,,bars/042.png,bars/mask003.png,,,,,,,,,,,,0,2,,,,,,,8,2,7,0,,,,,,,,,,,896.5317,897.0331,897.2817,899.9966,space,2.6945,,899.9966,66,4,900.9959,900.9959,901.014,,,,0,23,23,23,1,145,75,,,,,,,,
,,60d86238375036347c46a290,65af54de16eb9b7185ed4593,2024-01-23_24h56.09.999,bars,2023.2.3,MacIntel,59.88023952,657b66ea316d21385b68909f,,,,,,,,,,,901.0143,902.0126,,,902.5123,902.7719,,112,112,,,,,,,,,,,,,,,,bars/040.png,bars/mask009.png,,,,,,,,,,,,0,1,,,,,,,6,0,7,0,,,,,,,,,,,902.0126,902.5122,902.7719,904.9928,space,2.2112,,904.9928,28,73,905.9929,905.9929,906.012,,,,0,24,24,24,1,140,5,,,,,,,,
,,60d86238375036347c46a290,65af54de16eb9b7185ed4593,2024-01-23_24h56.09.999,bars,2023.2.3,MacIntel,59.88023952,657b66ea316d21385b68909f,,,,,,,,,,,906.0122,907.0098,,,907.5098,907.7594,,49,49,,,,,,,,,,,,,,,,bars/008.png,bars/mask002.png,,,,,,,,,,,,0,2,,,,,,,4,0,5,1,,,,,,,,,,,907.0098,907.5098,907.7594,910.3292,space,2.5532,,910.3293,61,49,911.322,911.3221,911.3422,,,,0,25,25,25,1,110,0,,,,,,,,
,,60d86238375036347c46a290,65af54de16eb9b7185ed4593,2024-01-23_24h56.09.999,bars,2023.2.3,MacIntel,59.88023952,657b66ea316d21385b68909f,,,,,,,,,,,911.3425,912.3382,,,912.8379,913.0878,,20,200,,,,,,,,,,,,,,,,bars/025.png,bars/mask005.png,,,,,,,,,,,,1,2,,,,,,,6,2,7,2,,,,,,,,,,,912.3383,912.8379,913.0879,919.6181,space,6.5177,,919.6181,85,20,920.6174,920.6174,920.6354,,,,0,26,26,26,1,105,40,,,,,,,,
,,60d86238375036347c46a290,65af54de16eb9b7185ed4593,2024-01-23_24h56.09.999,bars,2023.2.3,MacIntel,59.88023952,657b66ea316d21385b68909f,,,,,,,,,,,920.6356,921.6332,,,922.1318,922.3826,,118,118,,,,,,,,,,,,,,,,bars/012.png,bars/mask000.png,,,,,,,,,,,,1,1,,,,,,,8,0,8,0,,,,,,,,,,,921.6332,922.1318,922.3827,924.797,space,2.4032,,924.797,28,77,925.7962,925.7962,925.8115,,,,0,27,27,27,1,90,15,,,,,,,,
,,60d86238375036347c46a290,65af54de16eb9b7185ed4593,2024-01-23_24h56.09.999,bars,2023.2.3,MacIntel,59.88023952,657b66ea316d21385b68909f,,,,,,,,,,,925.8118,926.8135,,,927.3136,927.5637,,22,22,,,,,,,,,,,,,,,,bars/003.png,bars/mask006.png,,,,,,,,,,,,6,1,,,,,,,6,2,7,0,,,,,,,,,,,926.8136,927.3135,927.5638,930.5786,space,2.998,,930.5786,3,62,931.5773,931.5773,931.5965,,,,0,28,28,28,1,25,140,,,,,,,,
,,60d86238375036347c46a290,65af54de16eb9b7185ed4593,2024-01-23_24h56.09.999,bars,2023.2.3,MacIntel,59.88023952,657b66ea316d21385b68909f,,,,,,,,,,,931.5967,932.592,,,933.0911,933.3407,,50,50,,,,,,,,,,,,,,,,bars/023.png,bars/mask002.png,,,,,,,,,,,,0,1,,,,,,,8,4,7,4,,,,,,,,,,,932.5921,933.0911,933.3407,935.3752,space,2.0212,,935.3752,30,65,936.3717,936.3717,936.3903,,,,0,29,29,29,1,20,115,,,,,,,,
,,60d86238375036347c46a290,65af54de16eb9b7185ed4593,2024-01-23_24h56.09.999,bars,2023.2.3,MacIntel,59.88023952,657b66ea316d21385b68909f,,,,,,,,,,,936.3906,937.3899,,,937.8893,938.14,,130,130,,,,,,,,,,,,,,,,bars/044.png,bars/mask003.png,,,,,,,,,,,,1,2,,,,,,,10,6,10,6,,,,,,,,,,,937.3899,937.8892,938.14,940.987,space,2.8309,,940.987,55,25,941.9872,941.9872,942.0069,,,,0,30,30,30,1,75,155,,,,,,,,
,,60d86238375036347c46a290,65af54de16eb9b7185ed4593,2024-01-23_24h56.09.999,bars,2023.2.3,MacIntel,59.88023952,657b66ea316d21385b68909f,,,,,,,,,,,942.0071,943.0031,,,943.5009,943.7509,,50,50,,,,,,,,,,,,,,,,bars/008.png,bars/mask002.png,,,,,,,,,,,,0,2,,,,,,,10,8,10,9,,,,,,,,,,,943.0031,943.5008,943.7509,945.3847,space,1.6158,,945.3847,60,50,946.3825,946.3825,946.4024,,,,0,31,31,31,1,110,0,,,,,,,,
,,60d86238375036347c46a290,65af54de16eb9b7185ed4593,2024-01-23_24h56.09.999,bars,2023.2.3,MacIntel,59.88023952,657b66ea316d21385b68909f,,,,,,,,,,,946.4027,947.3996,,,947.8832,948.1317,,109,109,,,,,,,,,,,,,,,,bars/027.png,bars/mask006.png,,,,,,,,,,,,9,1,,,,,,,10,10,9,9,,,,,,,,,,,947.3997,947.8832,948.1319,950.5461,space,2.4,,950.5462,1,59,951.546,951.5461,951.5483,,,,0,32,32,32,1,110,50,,,,,,,,
,,60d86238375036347c46a290,65af54de16eb9b7185ed4593,2024-01-23_24h56.09.999,bars,2023.2.3,MacIntel,59.88023952,657b66ea316d21385b68909f,,,,,,,,,,,951.5488,952.5415,,,953.0452,953.2956,,54,54,,,,,,,,,,,,,,,,bars/035.png,bars/mask001.png,,,,,,,,,,,,8,2,,,,,,,8,10,9,10,,,,,,,,,,,952.5415,953.0452,953.2958,955.0604,space,1.7543,,955.0604,59,6,956.0535,956.0536,956.072,,,,0,33,33,33,1,175,60,,,,,,,,
,,60d86238375036347c46a290,65af54de16eb9b7185ed4593,2024-01-23_24h56.09.999,bars,2023.2.3,MacIntel,59.88023952,657b66ea316d21385b68909f,,,,,,,,,,,956.0723,957.0767,,,957.5557,957.7933,,62,62,,,,,,,,,,,,,,,,bars/007.png,bars/mask007.png,,,,,,,,,,,,6,2,,,,,,,10,8,10,8,,,,,,,,,,,957.0768,957.5556,957.7934,964.6356,space,6.8334,,964.6356,67,7,965.6377,965.6377,965.6574,,,,0,34,34,34,1,175,55,,,,,,,,
,,60d86238375036347c46a290,65af54de16eb9b7185ed4593,2024-01-23_24h56.09.999,bars,2023.2.3,MacIntel,59.88023952,657b66ea316d21385b68909f,,,,,,,,,,,965.6578,966.6531,,,967.1516,967.4031,,53,53,,,,,,,,,,,,,,,,bars/022.png,bars/mask007.png,,,,,,,,,,,,0,2,,,,,,,10,6,10,7,,,,,,,,,,,966.6532,967.1515,967.4031,968.8198,space,1.3986,,968.8199,42,33,969.8173,969.8174,969.8369,,,,0,35,35,35,1,95,20,,,,,,,,
,,60d86238375036347c46a290,65af54de16eb9b7185ed4593,2024-01-23_24h56.09.999,bars,2023.2.3,MacIntel,59.88023952,657b66ea316d21385b68909f,,,,,,,,,,,969.8371,970.8358,,,971.3336,971.5835,,129,129,,,,,,,,,,,,,,,,bars/009.png,bars/mask006.png,,,,,,,,,,,,1,2,,,,,,,8,8,8,6,,,,,,,,,,,970.8358,971.3336,971.5835,975.364,space,3.7649,,975.364,66,24,976.3633,976.3634,976.3844,,,,0,36,36,36,1,15,105,,,,,,,,
,,60d86238375036347c46a290,65af54de16eb9b7185ed4593,2024-01-23_24h56.09.999,bars,2023.2.3,MacIntel,59.88023952,657b66ea316d21385b68909f,,,,,,,,,,,976.3847,977.3872,,,977.8784,978.1219,,77,77,,,,,,,,,,,,,,,,bars/025.png,bars/mask003.png,,,,,,,,,,,,1,1,,,,,,,10,10,9,10,,,,,,,,,,,977.3872,977.8783,978.122,982.8301,space,4.6774,0.0009,982.8302,28,37,983.825,983.8251,983.8453,,,,0,37,37,37,1,105,40,,,,,,,,
,,60d86238375036347c46a290,65af54de16eb9b7185ed4593,2024-01-23_24h56.09.999,bars,2023.2.3,MacIntel,59.88023952,657b66ea316d21385b68909f,,,,,,,,,,,983.8456,984.8409,,,985.3408,985.5906,,60,60,,,,,,,,,,,,,,,,bars/035.png,bars/mask005.png,,,,,,,,,,,,10,2,,,,,,,10,10,8,10,,,,,,,,,,,984.841,985.3407,985.5907,987.6063,space,1.997,,987.6063,65,0,988.6052,988.6053,988.6224,,,,0,38,38,38,1,175,60,,,,,,,,
,,60d86238375036347c46a290,65af54de16eb9b7185ed4593,2024-01-23_24h56.09.999,bars,2023.2.3,MacIntel,59.88023952,657b66ea316d21385b68909f,,,,,,,,,,,988.6225,989.6216,,,990.1203,990.3709,,159,159,,,,,,,,,,,,,,,,bars/017.png,bars/mask007.png,,,,,,,,,,,,4,1,,,,,,,10,10,8,9,,,,,,,,,,,989.6216,990.1203,990.3709,993.2864,space,2.9059,,993.2864,14,66,994.2769,994.2769,994.2969,,,,0,39,39,39,1,145,45,,,,,,,,
,,60d86238375036347c46a290,65af54de16eb9b7185ed4593,2024-01-23_24h56.09.999,bars,2023.2.3,MacIntel,59.88023952,657b66ea316d21385b68909f,,,,,,,,,,,994.2972,995.3005,,,995.7996,996.0494,,74,74,,,,,,,,,,,,,,,,bars/002.png,bars/mask001.png,,,,,,,,,,,,6,2,,,,,,,8,10,10,10,,,,,,,,,,,995.3006,995.7996,996.0494,1002.6448,space,6.5777,,1002.6449,56,11,1003.6445,1003.6445,1003.6645,,,,0,40,40,40,1,130,85,,,,,,,,
,,60d86238375036347c46a290,65af54de16eb9b7185ed4593,2024-01-23_24h56.09.999,bars,2023.2.3,MacIntel,59.88023952,657b66ea316d21385b68909f,,,,,,,,,,,1003.6649,1004.6616,,,1005.1614,1005.4108,,15,15,,,,,,,,,,,,,,,,bars/043.png,bars/mask003.png,,,,,,,,,,,,5,1,,,,,,,10,10,10,10,,,,,,,,,,,1004.6616,1005.1613,1005.4108,1008.0269,space,2.605,,1008.0269,15,65,1009.0243,1009.0243,1009.0437,,,,0,41,41,41,1,30,130,,,,,,,,
,,60d86238375036347c46a290,65af54de16eb9b7185ed4593,2024-01-23_24h56.09.999,bars,2023.2.3,MacIntel,59.88023952,657b66ea316d21385b68909f,,,,,,,,,,,1009.0442,1010.0412,,,1010.5415,1010.7911,,56,56,,,,,,,,,,,,,,,,bars/031.png,bars/mask003.png,,,,,,,,,,,,3,2,,,,,,,10,10,9,10,,,,,,,,,,,1010.0412,1010.5415,1010.7912,1014.6872,space,3.8767,,1014.6873,64,21,1015.6221,1015.6222,1015.6464,,,,0,42,42,42,1,120,35,,,,,,,,
,,60d86238375036347c46a290,65af54de16eb9b7185ed4593,2024-01-23_24h56.09.999,bars,2023.2.3,MacIntel,59.88023952,657b66ea316d21385b68909f,,,,,,,,,,,1015.6468,1016.6371,,,1017.1791,1017.4037,,67,67,,,,,,,,,,,,,,,,bars/046.png,bars/mask002.png,,,,,,,,,,,,4,2,,,,,,,8,10,8,10,,,,,,,,,,,1016.6372,1017.1788,1017.4037,1018.8677,space,1.4495,,1018.8677,88,18,1019.8684,1019.8685,1019.869,,,,0,43,43,43,1,155,85,,,,,,,,
,,60d86238375036347c46a290,65af54de16eb9b7185ed4593,2024-01-23_24h56.09.999,bars,2023.2.3,MacIntel,59.88023952,657b66ea316d21385b68909f,,,,,,,,,,,1019.8693,1020.8679,,,1021.366,1021.6165,,61,61,,,,,,,,,,,,,,,,bars/044.png,bars/mask001.png,,,,,,,,,,,,3,1,,,,,,,6,8,6,9,,,,,,,,,,,1020.8679,1021.366,1021.6165,1023.1326,space,1.5023,,1023.1327,14,86,1024.0922,1024.0922,1024.121,,,,0,44,44,44,1,75,155,,,,,,,,
,,60d86238375036347c46a290,65af54de16eb9b7185ed4593,2024-01-23_24h56.09.999,bars,2023.2.3,MacIntel,59.88023952,657b66ea316d21385b68909f,,,,,,,,,,,1024.1215,1025.115,,,1025.6079,1025.8459,,56,56,,,,,,,,,,,,,,,,bars/007.png,bars/mask004.png,,,,,,,,,,,,7,2,,,,,,,4,6,3,7,,,,,,,,,,,1025.1151,1025.6079,1025.8461,1030.9289,space,5.058,,1030.929,61,1,1031.9272,1031.9273,1031.9475,,,,0,45,45,45,1,175,55,,,,,,,,
,,60d86238375036347c46a290,65af54de16eb9b7185ed4593,2024-01-23_24h56.09.999,bars,2023.2.3,MacIntel,59.88023952,657b66ea316d21385b68909f,,,,,,,,,,,1031.9477,1032.9418,,,1033.4422,1033.7606,,56,56,,,,,,,,,,,,,,,,bars/028.png,bars/mask000.png,,,,,,,,,,,,3,1,,,,,,,6,4,5,4,,,,,,,,,,,1032.9418,1033.4422,1033.7606,1036.3241,space,2.4808,,1036.3242,11,64,1037.3234,1037.3236,1037.344,,,,0,46,46,46,1,45,120,,,,,,,,
,,60d86238375036347c46a290,65af54de16eb9b7185ed4593,2024-01-23_24h56.09.999,bars,2023.2.3,MacIntel,59.88023952,657b66ea316d21385b68909f,,,,,,,,,,,1037.3443,1038.3391,,,1038.8389,1039.0881,,148,148,,,,,,,,,,,,,,,,bars/019.png,bars/mask005.png,,,,,,,,,,,,0,2,,,,,,,8,2,7,1,,,,,,,,,,,1038.3391,1038.8389,1039.0882,1040.9736,space,1.8655,,1040.9737,77,43,1041.9718,1041.9719,1041.9751,,,,0,47,47,47,1,45,105,,,,,,,,
,,60d86238375036347c46a290,65af54de16eb9b7185ed4593,2024-01-23_24h56.09.999,bars,2023.2.3,MacIntel,59.88023952,657b66ea316d21385b68909f,,,,,,,,,,,1041.9755,1042.9698,,,1043.4707,1043.7187,,160,160,,,,,,,,,,,,,,,,bars/024.png,bars/mask002.png,,,,,,,,,,,,3,2,,,,,,,6,4,6,4,,,,,,,,,,,1042.9698,1043.4707,1043.7188,1045.3855,space,1.6543,,1045.3856,40,10,1046.3826,1046.3827,1046.4008,,,,0,48,48,48,1,120,170,,,,,,,,
,,60d86238375036347c46a290,65af54de16eb9b7185ed4593,2024-01-23_24h56.09.999,bars,2023.2.3,MacIntel,59.88023952,657b66ea316d21385b68909f,,,,,,,,,,,1046.4012,1047.4,,,1047.8988,1048.1482,,48,48,,,,,,,,,,,,,,,,bars/049.png,bars/mask005.png,,,,,,,,,,,,0,2,,,,,,,4,6,4,5,,,,,,,,,,,1047.4001,1047.8988,1048.1482,1050.2636,space,2.0998,,1050.2636,68,67,1051.2625,1051.2626,1051.2789,,,,0,49,49,49,1,160,115,,,,,,,,
,,60d86238375036347c46a290,65af54de16eb9b7185ed4593,2024-01-23_24h56.09.999,bars,2023.2.3,MacIntel,59.88023952,657b66ea316d21385b68909f,,,,,,,,,,,,,,,,,,,,,,,,,,,,,,,,,,,,,,,,,,,,,,,,,,,,,,,,,,,,,,,,,,,,,,,,,,,,,,,,,,,,,,,,,,,,,1051.2792,1111.2738,0,1,1,1,1,sequence_tables/blk033.csv
,,60d86238375036347c46a290,65af54de16eb9b7185ed4593,2024-01-23_24h56.09.999,bars,2023.2.3,MacIntel,59.88023952,657b66ea316d21385b68909f,,,,,,,,,,,1113.416,1114.4068,,,1114.9044,1115.1555,,24,204,,,,,,,,,,,,,,,,bars/019.png,bars/mask001.png,,,,,,,,,,,,2,1,,,,,,,7,6,8,7,,,,,,1111.3069,1113.4059,space,2.0846,,1114.4069,1114.9044,1115.1556,1125.3147,space,10.1469,,1125.3147,21,81,1126.3128,1126.3129,1126.3316,,,,0,0,0,0,1,45,105,,,,,,,,
,,60d86238375036347c46a290,65af54de16eb9b7185ed4593,2024-01-23_24h56.09.999,bars,2023.2.3,MacIntel,59.88023952,657b66ea316d21385b68909f,,,,,,,,,,,1126.3319,1127.3309,,,1127.8318,1128.0797,,120,120,,,,,,,,,,,,,,,,bars/023.png,bars/mask009.png,,,,,,,,,,,,3,2,,,,,,,5,4,7,3,,,,,,,,,,,1127.3309,1127.8318,1128.0798,1130.4455,space,2.3544,,1130.4455,80,5,1131.4428,1131.4428,1131.4621,,,,0,1,1,1,1,20,115,,,,,,,,
,,60d86238375036347c46a290,65af54de16eb9b7185ed4593,2024-01-23_24h56.09.999,bars,2023.2.3,MacIntel,59.88023952,657b66ea316d21385b68909f,,,,,,,,,,,1131.4624,1132.461,,,1132.9584,1133.216,,76,76,,,,,,,,,,,,,,,,bars/021.png,bars/mask000.png,,,,,,,,,,,,2,2,,,,,,,3,2,2,2,,,,,,,,,,,1132.461,1132.9582,1133.216,1139.5719,space,6.3215,,1139.5721,79,6,1140.5713,1140.5715,1140.5898,,,,0,2,2,2,1,155,70,,,,,,,,
,,60d86238375036347c46a290,65af54de16eb9b7185ed4593,2024-01-23_24h56.09.999,bars,2023.2.3,MacIntel,59.88023952,657b66ea316d21385b68909f,,,,,,,,,,,1140.59,1141.5871,,,1142.072,1142.32,,62,62,,,,,,,,,,,,,,,,bars/044.png,bars/mask009.png,,,,,,,,,,,,0,1,,,,,,,1,0,0,0,,,,,,,,,,,1141.5872,1142.0719,1142.3201,1143.9379,space,1.609,,1143.938,13,87,1144.9355,1144.9355,1144.9557,,,,0,3,3,3,1,75,155,,,,,,,,
,,60d86238375036347c46a290,65af54de16eb9b7185ed4593,2024-01-23_24h56.09.999,bars,2023.2.3,MacIntel,59.88023952,657b66ea316d21385b68909f,,,,,,,,,,,1144.956,1145.9502,,,1146.4496,1146.6989,,63,63,,,,,,,,,,,,,,,,bars/046.png,bars/mask000.png,,,,,,,,,,,,0,2,,,,,,,3,0,4,0,,,,,,,,,,,1145.9502,1146.4496,1146.6989,1148.5586,space,1.8405,,1148.5586,88,22,1149.539,1149.539,1149.5422,,,,0,4,4,4,1,155,85,,,,,,,,
,,60d86238375036347c46a290,65af54de16eb9b7185ed4593,2024-01-23_24h56.09.999,bars,2023.2.3,MacIntel,59.88023952,657b66ea316d21385b68909f,,,,,,,,,,,1149.5426,1150.5449,,,1151.0384,1151.2815,,118,118,,,,,,,,,,,,,,,,bars/036.png,bars/mask006.png,,,,,,,,,,,,0,1,,,,,,,1,2,2,1,,,,,,,,,,,1150.545,1151.0384,1151.2816,1153.4124,space,2.1011,,1153.4125,27,82,1154.4128,1154.4128,1154.4156,,,,0,5,5,5,1,145,20,,,,,,,,
,,60d86238375036347c46a290,65af54de16eb9b7185ed4593,2024-01-23_24h56.09.999,bars,2023.2.3,MacIntel,59.88023952,657b66ea316d21385b68909f,,,,,,,,,,,1154.416,1155.4119,,,1155.9164,1156.1606,,162,162,,,,,,,,,,,,,,,,bars/038.png,bars/mask008.png,,,,,,,,,,,,0,1,,,,,,,0,4,0,5,,,,,,,,,,,1155.4119,1155.9163,1156.1606,1157.5089,space,1.3396,,1157.5089,3,88,1158.5042,1158.5042,1158.5324,,,,0,6,6,6,1,165,70,,,,,,,,
,,60d86238375036347c46a290,65af54de16eb9b7185ed4593,2024-01-23_24h56.09.999,bars,2023.2.3,MacIntel,59.88023952,657b66ea316d21385b68909f,,,,,,,,,,,1158.5331,1159.5254,,,1160.0252,1160.2737,,68,68,,,,,,,,,,,,,,,,bars/041.png,bars/mask006.png,,,,,,,,,,,,2,2,,,,,,,2,6,1,5,,,,,,,,,,,1159.5255,1160.0251,1160.2738,1163.772,space,3.475,,1163.7721,48,17,1164.772,1164.772,1164.7918,,,,0,7,7,7,1,20,85,,,,,,,,
,,60d86238375036347c46a290,65af54de16eb9b7185ed4593,2024-01-23_24h56.09.999,bars,2023.2.3,MacIntel,59.88023952,657b66ea316d21385b68909f,,,,,,,,,,,1164.7922,1165.788,,,1166.2867,1166.5367,,68,68,,,,,,,,,,,,,,,,bars/041.png,bars/mask006.png,,,,,,,,,,,,1,2,,,,,,,4,4,3,2,,,,,,,,,,,1165.788,1166.2867,1166.5368,1167.6033,space,1.0389,,1167.6033,48,17,1168.6033,1168.6033,1168.6201,,,,0,8,8,8,1,20,85,,,,,,,,
,,60d86238375036347c46a290,65af54de16eb9b7185ed4593,2024-01-23_24h56.09.999,bars,2023.2.3,MacIntel,59.88023952,657b66ea316d21385b68909f,,,,,,,,,,,1168.6202,1169.6191,,,1170.1191,1170.3693,,150,150,,,,,,,,,,,,,,,,bars/043.png,bars/mask006.png,,,,,,,,,,,,0,2,,,,,,,2,2,2,1,,,,,,,,,,,1169.6192,1170.119,1170.3693,1172.9325,space,2.5508,,1172.9325,60,20,1173.8968,1173.8968,1173.9285,,,,0,9,9,9,1,30,130,,,,,,,,
,,60d86238375036347c46a290,65af54de16eb9b7185ed4593,2024-01-23_24h56.09.999,bars,2023.2.3,MacIntel,59.88023952,657b66ea316d21385b68909f,,,,,,,,,,,1173.9291,1174.9317,,,1175.4325,1175.682,,59,59,,,,,,,,,,,,,,,,bars/006.png,bars/mask006.png,,,,,,,,,,,,0,1,,,,,,,0,4,0,3,,,,,,,,,,,1174.9318,1175.4324,1175.682,1180.6288,space,4.9287,,1180.6289,24,41,1181.628,1181.628,1181.6467,,,,0,10,10,10,1,35,100,,,,,,,,
,,60d86238375036347c46a290,65af54de16eb9b7185ed4593,2024-01-23_24h56.09.999,bars,2023.2.3,MacIntel,59.88023952,657b66ea316d21385b68909f,,,,,,,,,,,1181.6471,1182.644,,,1183.1447,1183.394,,134,134,,,,,,,,,,,,,,,,bars/049.png,bars/mask004.png,,,,,,,,,,,,2,2,,,,,,,0,6,1,6,,,,,,,,,,,1182.644,1183.1447,1183.3941,1186.091,space,2.6841,,1186.091,26,19,1187.0903,1187.0904,1187.1099,,,,0,11,11,11,1,160,115,,,,,,,,
,,60d86238375036347c46a290,65af54de16eb9b7185ed4593,2024-01-23_24h56.09.999,bars,2023.2.3,MacIntel,59.88023952,657b66ea316d21385b68909f,,,,,,,,,,,1187.1102,1188.1058,,,1188.6062,1188.8561,,124,124,,,,,,,,,,,,,,,,bars/016.png,bars/mask009.png,,,,,,,,,,,,0,2,,,,,,,0,4,2,3,,,,,,,,,,,1188.1058,1188.6062,1188.8561,1191.2377,space,2.3542,,1191.2377,84,41,1192.2384,1192.2384,1192.2396,,,,0,12,12,12,1,40,165,,,,,,,,
,,60d86238375036347c46a290,65af54de16eb9b7185ed4593,2024-01-23_24h56.09.999,bars,2023.2.3,MacIntel,59.88023952,657b66ea316d21385b68909f,,,,,,,,,,,1192.2401,1193.2372,,,1193.7359,1193.9855,,54,54,,,,,,,,,,,,,,,,bars/018.png,bars/mask009.png,,,,,,,,,,,,0,2,,,,,,,0,6,0,5,,,,,,,,,,,1193.2372,1193.7358,1193.9855,1196.6334,space,2.6331,,1196.6334,84,36,1197.6337,1197.6337,1197.6524,,,,0,13,13,13,1,150,90,,,,,,,,
,,60d86238375036347c46a290,65af54de16eb9b7185ed4593,2024-01-23_24h56.09.999,bars,2023.2.3,MacIntel,59.88023952,657b66ea316d21385b68909f,,,,,,,,,,,1197.6526,1198.6491,,,1199.1491,1199.3989,,60,60,,,,,,,,,,,,,,,,bars/048.png,bars/mask007.png,,,,,,,,,,,,1,1,,,,,,,2,8,1,8,,,,,,,,,,,1198.6492,1199.149,1199.399,1201.9304,space,2.5215,,1201.9304,10,65,1202.9304,1202.9305,1202.9505,,,,0,14,14,14,1,50,175,,,,,,,,
,,60d86238375036347c46a290,65af54de16eb9b7185ed4593,2024-01-23_24h56.09.999,bars,2023.2.3,MacIntel,59.88023952,657b66ea316d21385b68909f,,,,,,,,,,,1202.9508,1203.9453,,,1204.4459,1204.6948,,37,37,,,,,,,,,,,,,,,,bars/003.png,bars/mask000.png,,,,,,,,,,,,1,1,,,,,,,0,6,1,5,,,,,,,,,,,1203.9453,1204.4459,1204.6949,1206.4277,space,1.7092,,1206.4278,12,77,1207.4271,1207.4271,1207.4464,,,,0,15,15,15,1,25,140,,,,,,,,
,,60d86238375036347c46a290,65af54de16eb9b7185ed4593,2024-01-23_24h56.09.999,bars,2023.2.3,MacIntel,59.88023952,657b66ea316d21385b68909f,,,,,,,,,,,1207.4467,1208.4428,,,1208.9416,1209.1918,,35,35,,,,,,,,,,,,,,,,bars/028.png,bars/mask003.png,,,,,,,,,,,,1,1,,,,,,,0,8,1,9,,,,,,,,,,,1208.4429,1208.9416,1209.1918,1213.2958,space,4.0958,,1213.2959,10,85,1214.2731,1214.2732,1214.2959,,,,0,16,16,16,1,45,120,,,,,,,,
,,60d86238375036347c46a290,65af54de16eb9b7185ed4593,2024-01-23_24h56.09.999,bars,2023.2.3,MacIntel,59.88023952,657b66ea316d21385b68909f,,,,,,,,,,,1214.2963,1215.2891,,,1215.7815,1216.0199,,131,131,,,,,,,,,,,,,,,,bars/028.png,bars/mask006.png,,,,,,,,,,,,6,2,,,,,,,2,10,1,10,,,,,,,,,,,1215.2891,1215.7815,1216.0199,1217.7869,space,1.745,,1217.787,86,11,1218.7851,1218.7851,1218.8042,,,,0,17,17,17,1,45,120,,,,,,,,
,,60d86238375036347c46a290,65af54de16eb9b7185ed4593,2024-01-23_24h56.09.999,bars,2023.2.3,MacIntel,59.88023952,657b66ea316d21385b68909f,,,,,,,,,,,1218.8045,1219.8007,,,1220.3014,1220.5536,,77,77,,,,,,,,,,,,,,,,bars/014.png,bars/mask006.png,,,,,,,,,,,,2,1,,,,,,,4,10,2,9,,,,,,,,,,,1219.8007,1220.3014,1220.5537,1222.468,space,1.8523,,1222.4681,3,77,1223.467,1223.467,1223.4873,,,,0,18,18,18,1,80,0,,,,,,,,
,,60d86238375036347c46a290,65af54de16eb9b7185ed4593,2024-01-23_24h56.09.999,bars,2023.2.3,MacIntel,59.88023952,657b66ea316d21385b68909f,,,,,,,,,,,1223.4876,1224.4817,,,1224.9819,1225.2312,,121,121,,,,,,,,,,,,,,,,bars/038.png,bars/mask007.png,,,,,,,,,,,,0,1,,,,,,,2,10,3,10,,,,,,,,,,,1224.4818,1224.9819,1225.2313,1229.731,space,4.4873,,1229.7311,44,51,1230.7284,1230.7285,1230.748,,,,0,19,19,19,1,165,70,,,,,,,,
,,60d86238375036347c46a290,65af54de16eb9b7185ed4593,2024-01-23_24h56.09.999,bars,2023.2.3,MacIntel,59.88023952,657b66ea316d21385b68909f,,,,,,,,,,,1230.7482,1231.7434,,,1232.2436,1232.4924,,157,157,,,,,,,,,,,,,,,,bars/025.png,bars/mask008.png,,,,,,,,,,,,0,1,,,,,,,0,8,0,8,,,,,,,,,,,1231.7434,1232.2436,1232.4924,1236.291,space,3.7831,,1236.2912,52,63,1237.2907,1237.2908,1237.3092,,,,0,20,20,20,1,105,40,,,,,,,,
,,60d86238375036347c46a290,65af54de16eb9b7185ed4593,2024-01-23_24h56.09.999,bars,2023.2.3,MacIntel,59.88023952,657b66ea316d21385b68909f,,,,,,,,,,,1237.3095,1238.3075,,,1238.7847,1239.0233,,2,182,,,,,,,,,,,,,,,,bars/034.png,bars/mask004.png,,,,,,,,,,,,0,1,,,,,,,0,10,3,10,,,,,,,,,,,1238.3075,1238.7847,1239.0236,1242.49,space,3.4199,,1242.4901,57,63,1243.4725,1243.4725,1243.4995,,,,0,21,21,21,1,125,65,,,,,,,,
,,60d86238375036347c46a290,65af54de16eb9b7185ed4593,2024-01-23_24h56.09.999,bars,2023.2.3,MacIntel,59.88023952,657b66ea316d21385b68909f,,,,,,,,,,,1243.5001,1244.4804,,,1244.987,1245.2127,,134,134,,,,,,,,,,,,,,,,bars/001.png,bars/mask003.png,,,,,,,,,,,,3,1,,,,,,,2,10,3,9,,,,,,,,,,,1244.4804,1244.9869,1245.2127,1247.6637,space,2.4378,,1247.6638,4,49,1248.6544,1248.6544,1248.6556,,,,0,22,22,22,1,130,85,,,,,,,,
,,60d86238375036347c46a290,65af54de16eb9b7185ed4593,2024-01-23_24h56.09.999,bars,2023.2.3,MacIntel,59.88023952,657b66ea316d21385b68909f,,,,,,,,,,,1248.6561,1249.6233,,,1250.1115,1250.363,,159,159,,,,,,,,,,,,,,,,bars/011.png,bars/mask009.png,,,,,,,,,,,,0,1,,,,,,,0,8,0,8,,,,,,,,,,,1249.6233,1250.1115,1250.3633,1251.8705,space,1.4835,,1251.8706,1,74,1252.8621,1252.8621,1252.8815,,,,0,23,23,23,1,160,85,,,,,,,,
,,60d86238375036347c46a290,65af54de16eb9b7185ed4593,2024-01-23_24h56.09.999,bars,2023.2.3,MacIntel,59.88023952,657b66ea316d21385b68909f,,,,,,,,,,,1252.8819,1253.8821,,,1254.3803,1254.6196,,55,55,,,,,,,,,,,,,,,,bars/022.png,bars/mask007.png,,,,,,,,,,,,0,2,,,,,,,2,10,1,10,,,,,,,,,,,1253.8821,1254.3803,1254.6197,1261.6436,space,7.0002,,1261.6437,40,35,1262.6429,1262.6429,1262.6632,,,,0,24,24,24,1,95,20,,,,,,,,
,,60d86238375036347c46a290,65af54de16eb9b7185ed4593,2024-01-23_24h56.09.999,bars,2023.2.3,MacIntel,59.88023952,657b66ea316d21385b68909f,,,,,,,,,,,1262.6636,1263.6599,,,1264.1585,1264.409,,16,16,,,,,,,,,,,,,,,,bars/017.png,bars/mask004.png,,,,,,,,,,,,0,2,,,,,,,4,8,3,8,,,,,,,,,,,1263.6599,1264.1584,1264.409,1265.5913,space,1.1665,,1265.5914,51,29,1266.5902,1266.5903,1266.5913,,,,0,25,25,25,1,145,45,,,,,,,,
,,60d86238375036347c46a290,65af54de16eb9b7185ed4593,2024-01-23_24h56.09.999,bars,2023.2.3,MacIntel,59.88023952,657b66ea316d21385b68909f,,,,,,,,,,,1266.5921,1267.5879,,,1268.0881,1268.3382,,70,70,,,,,,,,,,,,,,,,bars/037.png,bars/mask000.png,,,,,,,,,,,,0,2,,,,,,,6,10,6,9,,,,,,,,,,,1267.5879,1268.088,1268.3383,1272.393,space,4.0458,,1272.393,80,35,1273.3871,1273.3872,1273.4063,,,,0,26,26,26,1,150,105,,,,,,,,
,,60d86238375036347c46a290,65af54de16eb9b7185ed4593,2024-01-23_24h56.09.999,bars,2023.2.3,MacIntel,59.88023952,657b66ea316d21385b68909f,,,,,,,,,,,1273.4066,1274.4021,,,1274.8998,1275.1506,,171,171,,,,,,,,,,,,,,,,bars/021.png,bars/mask008.png,,,,,,,,,,,,2,1,,,,,,,4,10,5,10,,,,,,,,,,,1274.4021,1274.8998,1275.1506,1276.8866,space,1.7278,,1276.8866,16,79,1277.8856,1277.8856,1277.9057,,,,0,27,27,27,1,155,70,,,,,,,,
,,60d86238375036347c46a290,65af54de16eb9b7185ed4593,2024-01-23_24h56.09.999,bars,2023.2.3,MacIntel,59.88023952,657b66ea316d21385b68909f,,,,,,,,,,,1277.9061,1278.9003,,,1279.3887,1279.6313,,53,53,,,,,,,,,,,,,,,,bars/044.png,bars/mask003.png,,,,,,,,,,,,2,1,,,,,,,6,10,7,10,,,,,,,,,,,1278.9003,1279.3887,1279.6313,1281.5803,space,1.9343,,1281.5803,22,78,1282.5698,1282.5699,1282.5722,,,,0,28,28,28,1,75,155,,,,,,,,
,,60d86238375036347c46a290,65af54de16eb9b7185ed4593,2024-01-23_24h56.09.999,bars,2023.2.3,MacIntel,59.88023952,657b66ea316d21385b68909f,,,,,,,,,,,1282.5731,1283.5629,,,1284.0807,1284.3236,,133,133,,,,,,,,,,,,,,,,bars/036.png,bars/mask007.png,,,,,,,,,,,,2,1,,,,,,,4,10,4,9,,,,,,,,,,,1283.5629,1284.0806,1284.3237,1286.9783,space,2.6315,,1286.9784,12,67,1287.9819,1287.982,1288.0049,,,,0,29,29,29,1,145,20,,,,,,,,
,,60d86238375036347c46a290,65af54de16eb9b7185ed4593,2024-01-23_24h56.09.999,bars,2023.2.3,MacIntel,59.88023952,657b66ea316d21385b68909f,,,,,,,,,,,1288.0054,1289.006,,,1289.5057,1289.7553,,129,129,,,,,,,,,,,,,,,,bars/034.png,bars/mask008.png,,,,,,,,,,,,5,1,,,,,,,6,8,6,8,,,,,,,,,,,1289.006,1289.5057,1289.7553,1291.4569,space,1.6851,,1291.457,4,64,1292.4381,1292.4382,1292.439,,,,0,30,30,30,1,125,65,,,,,,,,
,,60d86238375036347c46a290,65af54de16eb9b7185ed4593,2024-01-23_24h56.09.999,bars,2023.2.3,MacIntel,59.88023952,657b66ea316d21385b68909f,,,,,,,,,,,1292.4393,1293.4388,,,1293.9384,1294.1872,,95,95,,,,,,,,,,,,,,,,bars/049.png,bars/mask003.png,,,,,,,,,,,,2,2,,,,,,,4,6,5,6,,,,,,,,,,,1293.4388,1293.9383,1294.1872,1295.9368,space,1.7309,,1295.9368,65,20,1296.936,1296.936,1296.9392,,,,0,31,31,31,1,160,115,,,,,,,,
,,60d86238375036347c46a290,65af54de16eb9b7185ed4593,2024-01-23_24h56.09.999,bars,2023.2.3,MacIntel,59.88023952,657b66ea316d21385b68909f,,,,,,,,,,,1296.9397,1297.9345,,,1298.4373,1298.675,,63,63,,,,,,,,,,,,,,,,bars/031.png,bars/mask008.png,,,,,,,,,,,,0,2,,,,,,,2,8,1,6,,,,,,,,,,,1297.9346,1298.4373,1298.675,1300.0753,space,1.3747,,1300.0754,57,28,1301.0741,1301.0742,1301.0753,,,,0,32,32,32,1,120,35,,,,,,,,
,,60d86238375036347c46a290,65af54de16eb9b7185ed4593,2024-01-23_24h56.09.999,bars,2023.2.3,MacIntel,59.88023952,657b66ea316d21385b68909f,,,,,,,,,,,1301.0758,1302.0732,,,1302.574,1302.8229,,168,168,,,,,,,,,,,,,,,,bars/023.png,bars/mask005.png,,,,,,,,,,,,0,1,,,,,,,0,6,0,6,,,,,,,,,,,1302.0732,1302.574,1302.8229,1304.1218,space,1.2813,,1304.1219,32,53,1305.1231,1305.1231,1305.1252,,,,0,33,33,33,1,20,115,,,,,,,,
,,60d86238375036347c46a290,65af54de16eb9b7185ed4593,2024-01-23_24h56.09.999,bars,2023.2.3,MacIntel,59.88023952,657b66ea316d21385b68909f,,,,,,,,,,,1305.1255,1306.1223,,,1306.6208,1306.8691,,56,56,,,,,,,,,,,,,,,,bars/029.png,bars/mask001.png,,,,,,,,,,,,6,2,,,,,,,2,8,3,9,,,,,,,,,,,1306.1224,1306.6208,1306.8692,1309.3601,space,2.4715,,1309.3601,34,11,1310.3574,1310.3575,1310.3754,,,,0,34,34,34,1,90,45,,,,,,,,
,,60d86238375036347c46a290,65af54de16eb9b7185ed4593,2024-01-23_24h56.09.999,bars,2023.2.3,MacIntel,59.88023952,657b66ea316d21385b68909f,,,,,,,,,,,1310.3756,1311.3696,,,1311.8735,1312.1246,,170,170,,,,,,,,,,,,,,,,bars/010.png,bars/mask008.png,,,,,,,,,,,,0,1,,,,,,,0,10,0,9,,,,,,,,,,,1311.3697,1311.8735,1312.1247,1313.6355,space,1.5019,,1313.6355,5,65,1314.638,1314.638,1314.6402,,,,0,35,35,35,1,165,55,,,,,,,,
,,60d86238375036347c46a290,65af54de16eb9b7185ed4593,2024-01-23_24h56.09.999,bars,2023.2.3,MacIntel,59.88023952,657b66ea316d21385b68909f,,,,,,,,,,,1314.6406,1315.6372,,,1316.1415,1316.3868,,25,25,,,,,,,,,,,,,,,,bars/000.png,bars/mask006.png,,,,,,,,,,,,0,1,,,,,,,0,8,0,9,,,,,,,,,,,1315.6373,1316.1415,1316.3868,1317.9776,space,1.5557,,1317.9776,15,60,1318.9746,1318.9746,1318.9756,,,,0,36,36,36,1,40,145,,,,,,,,
,,60d86238375036347c46a290,65af54de16eb9b7185ed4593,2024-01-23_24h56.09.999,bars,2023.2.3,MacIntel,59.88023952,657b66ea316d21385b68909f,,,,,,,,,,,1318.976,1319.974,,,1320.4734,1320.7239,,42,42,,,,,,,,,,,,,,,,bars/011.png,bars/mask005.png,,,,,,,,,,,,0,2,,,,,,,2,6,3,6,,,,,,,,,,,1319.974,1320.4734,1320.7239,1324.2389,space,3.5023,,1324.2389,62,43,1325.237,1325.2371,1325.2564,,,,0,37,37,37,1,160,85,,,,,,,,
,,60d86238375036347c46a290,65af54de16eb9b7185ed4593,2024-01-23_24h56.09.999,bars,2023.2.3,MacIntel,59.88023952,657b66ea316d21385b68909f,,,,,,,,,,,1325.2566,1326.2531,,,1326.7525,1327.0018,,176,176,,,,,,,,,,,,,,,,bars/040.png,bars/mask004.png,,,,,,,,,,,,5,2,,,,,,,4,8,4,7,,,,,,,,,,,1326.2531,1326.7524,1327.0018,1330.698,space,3.685,,1330.6981,36,9,1331.6946,1331.6946,1331.7109,,,,0,38,38,38,1,140,5,,,,,,,,
,,60d86238375036347c46a290,65af54de16eb9b7185ed4593,2024-01-23_24h56.09.999,bars,2023.2.3,MacIntel,59.88023952,657b66ea316d21385b68909f,,,,,,,,,,,1331.7111,1332.711,,,1333.1824,1333.4292,,33,33,,,,,,,,,,,,,,,,bars/004.png,bars/mask005.png,,,,,,,,,,,,1,1,,,,,,,2,6,1,6,,,,,,,,,,,1332.711,1333.1823,1333.4293,1334.7942,space,1.3544,,1334.7942,8,88,1335.792,1335.792,1335.8104,,,,0,39,39,39,1,25,125,,,,,,,,
,,60d86238375036347c46a290,65af54de16eb9b7185ed4593,2024-01-23_24h56.09.999,bars,2023.2.3,MacIntel,59.88023952,657b66ea316d21385b68909f,,,,,,,,,,,1335.8106,1336.8075,,,1337.3072,1337.5584,,117,117,,,,,,,,,,,,,,,,bars/023.png,bars/mask006.png,,,,,,,,,,,,3,2,,,,,,,0,4,0,3,,,,,,,,,,,1336.8075,1337.3071,1337.5584,1340.2948,space,2.7198,,1340.2948,83,2,1341.2954,1341.2954,1341.3157,,,,0,40,40,40,1,20,115,,,,,,,,
,,60d86238375036347c46a290,65af54de16eb9b7185ed4593,2024-01-23_24h56.09.999,bars,2023.2.3,MacIntel,59.88023952,657b66ea316d21385b68909f,,,,,,,,,,,1341.316,1342.3097,,,1342.8091,1343.0608,,120,120,,,,,,,,,,,,,,,,bars/011.png,bars/mask000.png,,,,,,,,,,,,0,2,,,,,,,2,6,1,5,,,,,,,,,,,1342.3098,1342.8091,1343.0609,1344.5783,space,1.5066,0.0015,1344.5784,40,35,1345.5768,1345.5768,1345.5957,,,,0,41,41,41,1,160,85,,,,,,,,
,,60d86238375036347c46a290,65af54de16eb9b7185ed4593,2024-01-23_24h56.09.999,bars,2023.2.3,MacIntel,59.88023952,657b66ea316d21385b68909f,,,,,,,,,,,1345.596,1346.5915,,,1347.0911,1347.3411,,48,48,,,,,,,,,,,,,,,,bars/003.png,bars/mask008.png,,,,,,,,,,,,1,1,,,,,,,4,8,4,7,,,,,,,,,,,1346.5916,1347.091,1347.3411,1349.3035,space,1.9439,,1349.3036,23,88,1350.3011,1350.3012,1350.3204,,,,0,42,42,42,1,25,140,,,,,,,,
,,60d86238375036347c46a290,65af54de16eb9b7185ed4593,2024-01-23_24h56.09.999,bars,2023.2.3,MacIntel,59.88023952,657b66ea316d21385b68909f,,,,,,,,,,,1350.3208,1351.3175,,,1351.8176,1352.0674,,85,85,,,,,,,,,,,,,,,,bars/006.png,bars/mask001.png,,,,,,,,,,,,3,2,,,,,,,2,6,3,5,,,,,,,,,,,1351.3175,1351.8176,1352.0674,1353.5345,space,1.4492,,1353.5346,50,15,1354.532,1354.532,1354.5351,,,,0,43,43,43,1,35,100,,,,,,,,
,,60d86238375036347c46a290,65af54de16eb9b7185ed4593,2024-01-23_24h56.09.999,bars,2023.2.3,MacIntel,59.88023952,657b66ea316d21385b68909f,,,,,,,,,,,1354.5356,1355.53,,,1356.0289,1356.2804,,56,56,,,,,,,,,,,,,,,,bars/044.png,bars/mask000.png,,,,,,,,,,,,2,1,,,,,,,4,8,6,9,,,,,,,,,,,1355.53,1356.0289,1356.2804,1358.1622,space,1.8722,,1358.1622,19,81,1359.1615,1359.1615,1359.1645,,,,0,44,44,44,1,75,155,,,,,,,,
,,60d86238375036347c46a290,65af54de16eb9b7185ed4593,2024-01-23_24h56.09.999,bars,2023.2.3,MacIntel,59.88023952,657b66ea316d21385b68909f,,,,,,,,,,,1359.1649,1360.1605,,,1360.6625,1360.9103,,66,66,,,,,,,,,,,,,,,,bars/021.png,bars/mask006.png,,,,,,,,,,,,5,2,,,,,,,2,6,1,6,,,,,,,,,,,1360.1605,1360.6625,1360.9103,1362.0425,space,1.1116,,1362.0426,89,4,1363.0546,1363.0546,1363.0569,,,,0,45,45,45,1,155,70,,,,,,,,
,,60d86238375036347c46a290,65af54de16eb9b7185ed4593,2024-01-23_24h56.09.999,bars,2023.2.3,MacIntel,59.88023952,657b66ea316d21385b68909f,,,,,,,,,,,1363.0573,1364.0577,,,1364.5578,1364.8071,,8,8,,,,,,,,,,,,,,,,bars/026.png,bars/mask002.png,,,,,,,,,,,,0,1,,,,,,,4,8,4,7,,,,,,,,,,,1364.0577,1364.5578,1364.8071,1365.7914,space,0.9681,,1365.7914,27,77,1366.7898,1366.7898,1366.7927,,,,0,46,46,46,1,35,85,,,,,,,,
,,60d86238375036347c46a290,65af54de16eb9b7185ed4593,2024-01-23_24h56.09.999,bars,2023.2.3,MacIntel,59.88023952,657b66ea316d21385b68909f,,,,,,,,,,,1366.7932,1367.7899,,,1368.2915,1368.5433,,79,79,,,,,,,,,,,,,,,,bars/011.png,bars/mask006.png,,,,,,,,,,,,4,2,,,,,,,6,6,7,5,,,,,,,,,,,1367.79,1368.2915,1368.5434,1371.7909,space,3.2213,,1371.7909,81,6,1372.7888,1372.7888,1372.8077,,,,0,47,47,47,1,160,85,,,,,,,,
,,60d86238375036347c46a290,65af54de16eb9b7185ed4593,2024-01-23_24h56.09.999,bars,2023.2.3,MacIntel,59.88023952,657b66ea316d21385b68909f,,,,,,,,,,,1372.8079,1373.8108,,,1374.3047,1374.5548,,47,47,,,,,,,,,,,,,,,,bars/009.png,bars/mask006.png,,,,,,,,,,,,0,1,,,,,,,8,8,7,10,,,,,,,,,,,1373.8108,1374.3047,1374.5548,1375.7042,space,1.1396,,1375.7044,32,58,1376.7066,1376.7066,1376.7101,,,,0,48,48,48,1,15,105,,,,,,,,
,,60d86238375036347c46a290,65af54de16eb9b7185ed4593,2024-01-23_24h56.09.999,bars,2023.2.3,MacIntel,59.88023952,657b66ea316d21385b68909f,,,,,,,,,,,1376.7105,1377.7012,,,1378.2027,1378.4408,,126,126,,,,,,,,,,,,,,,,bars/022.png,bars/mask006.png,,,,,,,,,,,,0,1,,,,,,,10,6,10,6,,,,,,,,,,,1377.7012,1378.2025,1378.4408,1379.8764,space,1.4203,,1379.8765,31,74,1380.874,1380.874,1380.8752,,,,0,49,49,49,1,95,20,,,,,,,,
,,60d86238375036347c46a290,65af54de16eb9b7185ed4593,2024-01-23_24h56.09.999,bars,2023.2.3,MacIntel,59.88023952,657b66ea316d21385b68909f,,,,,,,,,,,,,,,,,,,,,,,,,,,,,,,,,,,,,,,,,,,,,,,,,,,,,,,,,,,,,,,,,,,,,,,,,,,,,,,,,,,,,,,,,,,,,1380.8755,1440.8727,0,2,2,0,1,sequence_tables/blk049.csv
,,60d86238375036347c46a290,65af54de16eb9b7185ed4593,2024-01-23_24h56.09.999,bars,2023.2.3,MacIntel,59.88023952,657b66ea316d21385b68909f,,,,,,,,,,,1447.5678,1448.5533,,,1449.0538,1449.3041,,49,49,,,,,,,,,,,,,,,,bars/002.png,bars/mask004.png,,,,,,,,,,,,0,2,,,,,,,3,2,6,4,,,,,,1440.8904,1447.5481,space,6.6506,,1448.5533,1449.0537,1449.3041,1456.3317,space,7.0204,,1456.3318,81,36,1457.3311,1457.3311,1457.3512,,,,0,0,0,0,1,130,85,,,,,,,,
,,60d86238375036347c46a290,65af54de16eb9b7185ed4593,2024-01-23_24h56.09.999,bars,2023.2.3,MacIntel,59.88023952,657b66ea316d21385b68909f,,,,,,,,,,,1457.3514,1458.3482,,,1458.8601,1459.0981,,2,2,,,,,,,,,,,,,,,,bars/042.png,bars/mask004.png,,,,,,,,,,,,0,1,,,,,,,1,4,1,4,,,,,,,,,,,1458.3483,1458.8601,1459.0981,1460.3809,space,1.273,,1460.381,37,73,1461.3794,1461.3795,1461.3994,,,,0,1,1,1,1,145,75,,,,,,,,
,,60d86238375036347c46a290,65af54de16eb9b7185ed4593,2024-01-23_24h56.09.999,bars,2023.2.3,MacIntel,59.88023952,657b66ea316d21385b68909f,,,,,,,,,,,1461.3997,1462.3959,,,1462.895,1463.1458,,105,105,,,,,,,,,,,,,,,,bars/000.png,bars/mask005.png,,,,,,,,,,,,0,2,,,,,,,3,6,4,5,,,,,,,,,,,1462.396,1462.8949,1463.1459,1464.7626,space,1.5947,,1464.7626,65,40,1465.7609,1465.7609,1465.7798,,,,0,2,2,2,1,40,145,,,,,,,,
,,60d86238375036347c46a290,65af54de16eb9b7185ed4593,2024-01-23_24h56.09.999,bars,2023.2.3,MacIntel,59.88023952,657b66ea316d21385b68909f,,,,,,,,,,,1465.78,1466.7783,,,1467.2768,1467.5285,,102,102,,,,,,,,,,,,,,,,bars/041.png,bars/mask004.png,,,,,,,,,,,,2,2,,,,,,,5,4,5,4,,,,,,,,,,,1466.7784,1467.2768,1467.5285,1468.8106,space,1.273,,1468.8107,82,17,1469.8211,1469.8212,1469.8224,,,,0,3,3,3,1,20,85,,,,,,,,
,,60d86238375036347c46a290,65af54de16eb9b7185ed4593,2024-01-23_24h56.09.999,bars,2023.2.3,MacIntel,59.88023952,657b66ea316d21385b68909f,,,,,,,,,,,1469.8228,1470.8137,,,1471.3152,1471.5659,,116,116,,,,,,,,,,,,,,,,bars/017.png,bars/mask000.png,,,,,,,,,,,,0,1,,,,,,,3,6,3,6,,,,,,,,,,,1470.8138,1471.3152,1471.5659,1472.8803,space,1.2979,,1472.8804,29,71,1473.8442,1473.8443,1473.8521,,,,0,4,4,4,1,145,45,,,,,,,,
,,60d86238375036347c46a290,65af54de16eb9b7185ed4593,2024-01-23_24h56.09.999,bars,2023.2.3,MacIntel,59.88023952,657b66ea316d21385b68909f,,,,,,,,,,,1473.853,1474.8287,,,1475.3212,1475.5604,,167,-13,,,,,,,,,,,,,,,,bars/033.png,bars/mask009.png,,,,,,,,,,,,5,2,,,,,,,5,8,4,8,,,,,,,,,,,1474.8287,1475.3212,1475.5605,1480.9339,space,5.3612,,1480.934,38,12,1481.9321,1481.9321,1481.95,,,,0,5,5,5,1,25,155,,,,,,,,
,,60d86238375036347c46a290,65af54de16eb9b7185ed4593,2024-01-23_24h56.09.999,bars,2023.2.3,MacIntel,59.88023952,657b66ea316d21385b68909f,,,,,,,,,,,1481.9503,1482.9481,,,1483.4481,1483.6976,,62,62,,,,,,,,,,,,,,,,bars/031.png,bars/mask004.png,,,,,,,,,,,,1,2,,,,,,,3,6,2,6,,,,,,,,,,,1482.9482,1483.4481,1483.6976,1487.9613,space,4.2398,,1487.9614,58,27,1488.9624,1488.9624,1488.9787,,,,0,6,6,6,1,120,35,,,,,,,,
,,60d86238375036347c46a290,65af54de16eb9b7185ed4593,2024-01-23_24h56.09.999,bars,2023.2.3,MacIntel,59.88023952,657b66ea316d21385b68909f,,,,,,,,,,,1488.9789,1489.9795,,,1490.4782,1490.7284,,97,97,,,,,,,,,,,,,,,,bars/026.png,bars/mask000.png,,,,,,,,,,,,2,2,,,,,,,1,4,2,4,,,,,,,,,,,1489.9795,1490.4782,1490.7284,1492.1939,space,1.455,,1492.1939,62,12,1493.1929,1493.193,1493.2111,,,,0,7,7,7,1,35,85,,,,,,,,
,,60d86238375036347c46a290,65af54de16eb9b7185ed4593,2024-01-23_24h56.09.999,bars,2023.2.3,MacIntel,59.88023952,657b66ea316d21385b68909f,,,,,,,,,,,1493.2113,1494.2095,,,1494.7301,1494.9756,,6,6,,,,,,,,,,,,,,,,bars/027.png,bars/mask005.png,,,,,,,,,,,,0,2,,,,,,,0,2,0,2,,,,,,,,,,,1494.2095,1494.7301,1494.9756,1497.0913,space,2.0814,,1497.0913,76,44,1498.0908,1498.0908,1498.1096,,,,0,8,8,8,1,110,50,,,,,,,,
,,60d86238375036347c46a290,65af54de16eb9b7185ed4593,2024-01-23_24h56.09.999,bars,2023.2.3,MacIntel,59.88023952,657b66ea316d21385b68909f,,,,,,,,,,,1498.1099,1499.0994,,,1499.5901,1499.8383,,151,151,,,,,,,,,,,,,,,,bars/013.png,bars/mask003.png,,,,,,,,,,,,0,2,,,,,,,0,4,0,3,,,,,,,,,,,1499.0994,1499.59,1499.8383,1501.4705,space,1.6219,,1501.4705,76,39,1502.4706,1502.4707,1502.4717,,,,0,9,9,9,1,75,10,,,,,,,,
,,60d86238375036347c46a290,65af54de16eb9b7185ed4593,2024-01-23_24h56.09.999,bars,2023.2.3,MacIntel,59.88023952,657b66ea316d21385b68909f,,,,,,,,,,,1502.4721,1503.4693,,,1503.9687,1504.2187,,92,92,,,,,,,,,,,,,,,,bars/039.png,bars/mask007.png,,,,,,,,,,,,3,2,,,,,,,0,6,0,5,,,,,,,,,,,1503.4694,1503.9687,1504.2187,1505.6016,space,1.3646,,1505.6016,83,13,1506.6007,1506.6009,1506.6022,,,,0,10,10,10,1,175,105,,,,,,,,
,,60d86238375036347c46a290,65af54de16eb9b7185ed4593,2024-01-23_24h56.09.999,bars,2023.2.3,MacIntel,59.88023952,657b66ea316d21385b68909f,,,,,,,,,,,1506.6027,1507.5986,,,1508.0989,1508.3489,,115,115,,,,,,,,,,,,,,,,bars/035.png,bars/mask005.png,,,,,,,,,,,,0,2,,,,,,,0,8,0,9,,,,,,,,,,,1507.5987,1508.0988,1508.3489,1509.7985,space,1.4277,,1509.7985,60,55,1510.7967,1510.7967,1510.7974,,,,0,11,11,11,1,175,60,,,,,,,,
,,60d86238375036347c46a290,65af54de16eb9b7185ed4593,2024-01-23_24h56.09.999,bars,2023.2.3,MacIntel,59.88023952,657b66ea316d21385b68909f,,,,,,,,,,,1510.7977,1511.7962,,,1512.2964,1512.5486,,139,139,,,,,,,,,,,,,,,,bars/010.png,bars/mask005.png,,,,,,,,,,,,0,1,,,,,,,2,10,2,9,,,,,,,,,,,1511.7963,1512.2964,1512.5487,1514.1449,space,1.5868,,1514.145,26,84,1515.1444,1515.1444,1515.1465,,,,0,12,12,12,1,165,55,,,,,,,,
,,60d86238375036347c46a290,65af54de16eb9b7185ed4593,2024-01-23_24h56.09.999,bars,2023.2.3,MacIntel,59.88023952,657b66ea316d21385b68909f,,,,,,,,,,,1515.1468,1516.1432,,,1516.644,1516.8944,,50,50,,,,,,,,,,,,,,,,bars/043.png,bars/mask005.png,,,,,,,,,,,,0,1,,,,,,,0,10,0,10,,,,,,,,,,,1516.1432,1516.6438,1516.8944,1519.9706,space,3.0606,,1519.9707,20,80,1520.9731,1520.9732,1520.9924,,,,0,13,13,13,1,30,130,,,,,,,,
,,60d86238375036347c46a290,65af54de16eb9b7185ed4593,2024-01-23_24h56.09.999,bars,2023.2.3,MacIntel,59.88023952,657b66ea316d21385b68909f,,,,,,,,,,,1520.9926,1521.9851,,,1522.4928,1522.7365,,99,99,,,,,,,,,,,,,,,,bars/010.png,bars/mask002.png,,,,,,,,,,,,0,2,,,,,,,0,10,0,10,,,,,,,,,,,1521.9852,1522.4928,1522.7366,1524.0177,space,1.2703,,1524.0177,66,44,1525.0164,1525.0165,1525.02,,,,0,14,14,14,1,165,55,,,,,,,,
,,60d86238375036347c46a290,65af54de16eb9b7185ed4593,2024-01-23_24h56.09.999,bars,2023.2.3,MacIntel,59.88023952,657b66ea316d21385b68909f,,,,,,,,,,,1525.0204,1526.0112,,,1526.4995,1526.748,,15,15,,,,,,,,,,,,,,,,bars/044.png,bars/mask007.png,,,,,,,,,,,,0,2,,,,,,,2,8,3,8,,,,,,,,,,,1526.0114,1526.4995,1526.748,1528.9368,space,2.1726,,1528.9368,60,40,1529.9046,1529.9047,1529.9657,,,,0,15,15,15,1,75,155,,,,,,,,
,,60d86238375036347c46a290,65af54de16eb9b7185ed4593,2024-01-23_24h56.09.999,bars,2023.2.3,MacIntel,59.88023952,657b66ea316d21385b68909f,,,,,,,,,,,1529.9661,1530.9693,,,1531.4706,1531.7214,,39,39,,,,,,,,,,,,,,,,bars/025.png,bars/mask000.png,,,,,,,,,,,,5,2,,,,,,,0,6,0,5,,,,,,,,,,,1530.9693,1531.4706,1531.7215,1533.585,space,1.8473,,1533.5851,66,1,1534.5841,1534.5841,1534.5851,,,,0,16,16,16,1,105,40,,,,,,,,
,,60d86238375036347c46a290,65af54de16eb9b7185ed4593,2024-01-23_24h56.09.999,bars,2023.2.3,MacIntel,59.88023952,657b66ea316d21385b68909f,,,,,,,,,,,1534.5856,1535.5826,,,1536.0821,1536.4051,,10,10,,,,,,,,,,,,,,,,bars/027.png,bars/mask004.png,,,,,,,,,,,,0,2,,,,,,,2,4,2,3,,,,,,,,,,,1535.5827,1536.082,1536.4054,1537.7623,space,1.3212,,1537.7623,80,40,1538.7525,1538.7526,1538.7546,,,,0,17,17,17,1,110,50,,,,,,,,
,,60d86238375036347c46a290,65af54de16eb9b7185ed4593,2024-01-23_24h56.09.999,bars,2023.2.3,MacIntel,59.88023952,657b66ea316d21385b68909f,,,,,,,,,,,1538.7553,1539.7541,,,1540.2451,1540.484,,98,98,,,,,,,,,,,,,,,,bars/018.png,bars/mask009.png,,,,,,,,,,,,5,2,,,,,,,0,6,1,7,,,,,,,,,,,1539.7541,1540.245,1540.4841,1541.7826,space,1.2868,,1541.7827,52,8,1542.7762,1542.7762,1542.777,,,,0,18,18,18,1,150,90,,,,,,,,
,,60d86238375036347c46a290,65af54de16eb9b7185ed4593,2024-01-23_24h56.09.999,bars,2023.2.3,MacIntel,59.88023952,657b66ea316d21385b68909f,,,,,,,,,,,1542.7774,1543.7654,,,1544.2648,1544.5105,,42,42,,,,,,,,,,,,,,,,bars/011.png,bars/mask000.png,,,,,,,,,,,,0,2,,,,,,,2,8,2,8,,,,,,,,,,,1543.7654,1544.2648,1544.5105,1548.121,space,3.6039,,1548.1211,62,43,1549.1282,1549.1282,1549.1506,,,,0,19,19,19,1,160,85,,,,,,,,
,,60d86238375036347c46a290,65af54de16eb9b7185ed4593,2024-01-23_24h56.09.999,bars,2023.2.3,MacIntel,59.88023952,657b66ea316d21385b68909f,,,,,,,,,,,1549.151,1550.1476,,,1550.6311,1550.876,,95,95,,,,,,,,,,,,,,,,bars/023.png,bars/mask003.png,,,,,,,,,,,,3,2,,,,,,,4,6,4,8,,,,,,,,,,,1550.1476,1550.6311,1550.876,1552.1894,space,1.2919,,1552.1894,75,20,1553.1879,1553.1879,1553.1888,,,,0,20,20,20,1,20,115,,,,,,,,
,,60d86238375036347c46a290,65af54de16eb9b7185ed4593,2024-01-23_24h56.09.999,bars,2023.2.3,MacIntel,59.88023952,657b66ea316d21385b68909f,,,,,,,,,,,1553.1893,1554.1802,,,1554.6703,1554.9207,,178,-2,,,,,,,,,,,,,,,,bars/045.png,bars/mask007.png,,,,,,,,,,,,2,2,,,,,,,6,4,6,4,,,,,,,,,,,1554.1802,1554.6702,1554.9207,1556.0533,space,1.1071,,1556.0533,78,12,1557.03,1557.03,1557.0311,,,,0,21,21,21,1,100,10,,,,,,,,
,,60d86238375036347c46a290,65af54de16eb9b7185ed4593,2024-01-23_24h56.09.999,bars,2023.2.3,MacIntel,59.88023952,657b66ea316d21385b68909f,,,,,,,,,,,1557.0316,1558.0355,,,1558.535,1558.7802,,50,50,,,,,,,,,,,,,,,,bars/027.png,bars/mask003.png,,,,,,,,,,,,2,2,,,,,,,8,2,8,2,,,,,,,,,,,1558.0355,1558.535,1558.7802,1562.5456,space,3.7556,,1562.5456,60,0,1563.5407,1563.5408,1563.56,,,,0,22,22,22,1,110,50,,,,,,,,
,,60d86238375036347c46a290,65af54de16eb9b7185ed4593,2024-01-23_24h56.09.999,bars,2023.2.3,MacIntel,59.88023952,657b66ea316d21385b68909f,,,,,,,,,,,1563.5603,1564.5564,,,1565.0573,1565.3083,,39,39,,,,,,,,,,,,,,,,bars/044.png,bars/mask004.png,,,,,,,,,,,,0,1,,,,,,,6,4,6,6,,,,,,,,,,,1564.5564,1565.0573,1565.3083,1566.5063,space,1.172,,1566.5063,36,64,1567.5042,1567.5042,1567.5062,,,,0,23,23,23,1,75,155,,,,,,,,
,,60d86238375036347c46a290,65af54de16eb9b7185ed4593,2024-01-23_24h56.09.999,bars,2023.2.3,MacIntel,59.88023952,657b66ea316d21385b68909f,,,,,,,,,,,1567.5065,1568.5038,,,1568.9935,1569.2442,,67,67,,,,,,,,,,,,,,,,bars/009.png,bars/mask006.png,,,,,,,,,,,,0,2,,,,,,,4,2,3,1,,,,,,,,,,,1568.5039,1568.9935,1569.2443,1571.1281,space,1.8763,,1571.1282,52,38,1572.1242,1572.1242,1572.1439,,,,0,24,24,24,1,15,105,,,,,,,,
,,60d86238375036347c46a290,65af54de16eb9b7185ed4593,2024-01-23_24h56.09.999,bars,2023.2.3,MacIntel,59.88023952,657b66ea316d21385b68909f,,,,,,,,,,,1572.1441,1573.1407,,,1573.6413,1573.8923,,166,-14,,,,,,,,,,,,,,,,bars/033.png,bars/mask004.png,,,,,,,,,,,,1,2,,,,,,,2,4,2,2,,,,,,,,,,,1573.1407,1573.6412,1573.8923,1576.7825,space,2.8744,,1576.7826,39,11,1577.7593,1577.7596,1577.8422,,,,0,25,25,25,1,25,155,,,,,,,,
,,60d86238375036347c46a290,65af54de16eb9b7185ed4593,2024-01-23_24h56.09.999,bars,2023.2.3,MacIntel,59.88023952,657b66ea316d21385b68909f,,,,,,,,,,,1577.8428,1578.8502,,,1579.344,1579.6006,,51,51,,,,,,,,,,,,,,,,bars/046.png,bars/mask009.png,,,,,,,,,,,,0,2,,,,,,,4,6,4,6,,,,,,,,,,,1578.8502,1579.344,1579.6007,1583.895,space,4.2672,,1583.8951,76,34,1584.8555,1584.8556,1584.8814,,,,0,26,26,26,1,155,85,,,,,,,,
,,60d86238375036347c46a290,65af54de16eb9b7185ed4593,2024-01-23_24h56.09.999,bars,2023.2.3,MacIntel,59.88023952,657b66ea316d21385b68909f,,,,,,,,,,,1584.8819,1585.8867,,,1586.3853,1586.636,,162,162,,,,,,,,,,,,,,,,bars/007.png,bars/mask006.png,,,,,,,,,,,,1,1,,,,,,,2,4,1,1,,,,,,,,,,,1585.8868,1586.3853,1586.636,1588.1327,space,1.4777,,1588.1327,13,73,1589.1293,1589.1293,1589.1319,,,,0,27,27,27,1,175,55,,,,,,,,
,,60d86238375036347c46a290,65af54de16eb9b7185ed4593,2024-01-23_24h56.09.999,bars,2023.2.3,MacIntel,59.88023952,657b66ea316d21385b68909f,,,,,,,,,,,1589.1323,1590.125,,,1590.6335,1590.8782,,10,10,,,,,,,,,,,,,,,,bars/026.png,bars/mask002.png,,,,,,,,,,,,1,1,,,,,,,4,2,5,3,,,,,,,,,,,1590.125,1590.6335,1590.8783,1592.6286,space,1.7309,,1592.6286,25,75,1593.6285,1593.6285,1593.6298,,,,0,28,28,28,1,35,85,,,,,,,,
,,60d86238375036347c46a290,65af54de16eb9b7185ed4593,2024-01-23_24h56.09.999,bars,2023.2.3,MacIntel,59.88023952,657b66ea316d21385b68909f,,,,,,,,,,,1593.6303,1594.6289,,,1595.1272,1595.3744,,54,54,,,,,,,,,,,,,,,,bars/035.png,bars/mask008.png,,,,,,,,,,,,0,2,,,,,,,2,0,3,0,,,,,,,,,,,1594.629,1595.1271,1595.3744,1598.373,space,2.9746,,1598.3731,59,6,1599.369,1599.3691,1599.3868,,,,0,29,29,29,1,175,60,,,,,,,,
,,60d86238375036347c46a290,65af54de16eb9b7185ed4593,2024-01-23_24h56.09.999,bars,2023.2.3,MacIntel,59.88023952,657b66ea316d21385b68909f,,,,,,,,,,,1599.3871,1600.3852,,,1600.8842,1601.1367,,79,79,,,,,,,,,,,,,,,,bars/001.png,bars/mask002.png,,,,,,,,,,,,0,2,,,,,,,0,0,2,0,,,,,,,,,,,1600.3853,1600.8842,1601.1368,1602.1342,space,0.9878,,1602.1343,51,6,1603.1337,1603.1337,1603.1346,,,,0,30,30,30,1,130,85,,,,,,,,
,,60d86238375036347c46a290,65af54de16eb9b7185ed4593,2024-01-23_24h56.09.999,bars,2023.2.3,MacIntel,59.88023952,657b66ea316d21385b68909f,,,,,,,,,,,1603.1349,1604.1335,,,1604.6318,1604.8831,,158,158,,,,,,,,,,,,,,,,bars/023.png,bars/mask007.png,,,,,,,,,,,,0,1,,,,,,,2,0,1,0,,,,,,,,,,,1604.1335,1604.6318,1604.8832,1607.049,space,2.1333,,1607.0491,42,43,1608.047,1608.0471,1608.0661,,,,0,31,31,31,1,20,115,,,,,,,,
,,60d86238375036347c46a290,65af54de16eb9b7185ed4593,2024-01-23_24h56.09.999,bars,2023.2.3,MacIntel,59.88023952,657b66ea316d21385b68909f,,,,,,,,,,,1608.0664,1609.0682,,,1609.5676,1609.8175,,5,5,,,,,,,,,,,,,,,,bars/033.png,bars/mask005.png,,,,,,,,,,,,0,1,,,,,,,0,0,0,0,,,,,,,,,,,1609.0682,1609.5675,1609.8176,1611.6451,space,1.8081,,1611.6452,20,30,1612.6919,1612.6922,1612.7726,,,,0,32,32,32,1,25,155,,,,,,,,
,,60d86238375036347c46a290,65af54de16eb9b7185ed4593,2024-01-23_24h56.09.999,bars,2023.2.3,MacIntel,59.88023952,657b66ea316d21385b68909f,,,,,,,,,,,1612.7731,1613.7669,,,1614.2666,1614.5172,,50,50,,,,,,,,,,,,,,,,bars/009.png,bars/mask001.png,,,,,,,,,,,,0,1,,,,,,,0,2,0,2,,,,,,,,,,,1613.7669,1614.2666,1614.5172,1616.9803,space,2.4465,,1616.9803,35,55,1617.9782,1617.9783,1617.9958,,,,0,33,33,33,1,15,105,,,,,,,,
,,60d86238375036347c46a290,65af54de16eb9b7185ed4593,2024-01-23_24h56.09.999,bars,2023.2.3,MacIntel,59.88023952,657b66ea316d21385b68909f,,,,,,,,,,,1617.9961,1618.9927,,,1619.4922,1619.7412,,163,163,,,,,,,,,,,,,,,,bars/006.png,bars/mask002.png,,,,,,,,,,,,0,1,,,,,,,2,0,2,1,,,,,,,,,,,1618.9928,1619.4921,1619.7412,1621.6063,space,1.8447,,1621.6063,52,63,1622.6065,1622.6065,1622.6213,,,,0,34,34,34,1,35,100,,,,,,,,
,,60d86238375036347c46a290,65af54de16eb9b7185ed4593,2024-01-23_24h56.09.999,bars,2023.2.3,MacIntel,59.88023952,657b66ea316d21385b68909f,,,,,,,,,,,1622.6216,1623.6217,,,1624.1299,1624.3716,,154,154,,,,,,,,,,,,,,,,bars/049.png,bars/mask004.png,,,,,,,,,,,,0,1,,,,,,,0,2,0,1,,,,,,,,,,,1623.6219,1624.1298,1624.3716,1626.1731,space,1.7941,,1626.1731,6,39,1627.1769,1627.1769,1627.1779,,,,0,35,35,35,1,160,115,,,,,,,,
,,60d86238375036347c46a290,65af54de16eb9b7185ed4593,2024-01-23_24h56.09.999,bars,2023.2.3,MacIntel,59.88023952,657b66ea316d21385b68909f,,,,,,,,,,,1627.1785,1628.1686,,,1628.6768,1628.9258,,110,110,,,,,,,,,,,,,,,,bars/049.png,bars/mask001.png,,,,,,,,,,,,0,2,,,,,,,2,0,3,0,,,,,,,,,,,1628.1687,1628.6768,1628.9258,1630.5741,space,1.6397,,1630.5741,50,5,1631.5729,1631.5729,1631.5747,,,,0,36,36,36,1,160,115,,,,,,,,
,,60d86238375036347c46a290,65af54de16eb9b7185ed4593,2024-01-23_24h56.09.999,bars,2023.2.3,MacIntel,59.88023952,657b66ea316d21385b68909f,,,,,,,,,,,1631.5751,1632.5723,,,1633.0725,1633.2952,,165,165,,,,,,,,,,,,,,,,bars/030.png,bars/mask006.png,,,,,,,,,,,,1,1,,,,,,,4,2,5,1,,,,,,,,,,,1632.5723,1633.0724,1633.2952,1634.6399,space,1.3081,,1634.6399,25,80,1635.6369,1635.637,1635.6394,,,,0,37,37,37,1,140,65,,,,,,,,
,,60d86238375036347c46a290,65af54de16eb9b7185ed4593,2024-01-23_24h56.09.999,bars,2023.2.3,MacIntel,59.88023952,657b66ea316d21385b68909f,,,,,,,,,,,1635.6396,1636.6386,,,1637.1367,1637.3864,,61,61,,,,,,,,,,,,,,,,bars/022.png,bars/mask000.png,,,,,,,,,,,,0,1,,,,,,,2,4,2,5,,,,,,,,,,,1636.6387,1637.1365,1637.3864,1641.5742,space,4.1627,,1641.5743,34,41,1642.5352,1642.5352,1642.5547,,,,0,38,38,38,1,95,20,,,,,,,,
,,60d86238375036347c46a290,65af54de16eb9b7185ed4593,2024-01-23_24h56.09.999,bars,2023.2.3,MacIntel,59.88023952,657b66ea316d21385b68909f,,,,,,,,,,,1642.555,1643.5999,,,1644.0559,1644.3049,,90,90,,,,,,,,,,,,,,,,bars/023.png,bars/mask006.png,,,,,,,,,,,,1,2,,,,,,,4,6,3,6,,,,,,,,,,,1643.6,1644.0558,1644.3049,1646.7691,space,2.4524,,1646.7693,70,25,1647.7692,1647.7692,1647.7723,,,,0,39,39,39,1,20,115,,,,,,,,
,,60d86238375036347c46a290,65af54de16eb9b7185ed4593,2024-01-23_24h56.09.999,bars,2023.2.3,MacIntel,59.88023952,657b66ea316d21385b68909f,,,,,,,,,,,1647.7726,1648.7673,,,1649.2658,1649.5168,,140,140,,,,,,,,,,,,,,,,bars/047.png,bars/mask002.png,,,,,,,,,,,,0,1,,,,,,,2,4,1,3,,,,,,,,,,,1648.7673,1649.2657,1649.5169,1650.8379,space,1.3128,,1650.838,55,70,1651.8319,1651.8319,1651.8339,,,,0,40,40,40,1,15,70,,,,,,,,
,,60d86238375036347c46a290,65af54de16eb9b7185ed4593,2024-01-23_24h56.09.999,bars,2023.2.3,MacIntel,59.88023952,657b66ea316d21385b68909f,,,,,,,,,,,1651.8342,1652.833,,,1653.3304,1653.5807,,32,32,,,,,,,,,,,,,,,,bars/007.png,bars/mask008.png,,,,,,,,,,,,0,2,,,,,,,4,2,3,2,,,,,,,,,,,1652.8331,1653.3304,1653.5807,1655.1473,space,1.543,,1655.1473,37,23,1656.1449,1656.1449,1656.1632,,,,0,41,41,41,1,175,55,,,,,,,,
,,60d86238375036347c46a290,65af54de16eb9b7185ed4593,2024-01-23_24h56.09.999,bars,2023.2.3,MacIntel,59.88023952,657b66ea316d21385b68909f,,,,,,,,,,,1656.1635,1657.1618,,,1657.6607,1657.9119,,138,138,,,,,,,,,,,,,,,,bars/029.png,bars/mask009.png,,,,,,,,,,,,0,1,,,,,,,6,0,7,1,,,,,,,,,,,1657.1618,1657.6607,1657.912,1659.0965,space,1.1674,,1659.0965,48,87,1660.1007,1660.1008,1660.1196,,,,0,42,42,42,1,90,45,,,,,,,,
,,60d86238375036347c46a290,65af54de16eb9b7185ed4593,2024-01-23_24h56.09.999,bars,2023.2.3,MacIntel,59.88023952,657b66ea316d21385b68909f,,,,,,,,,,,1660.1199,1661.111,,,1661.6119,1661.8618,,31,31,,,,,,,,,,,,,,,,bars/012.png,bars/mask003.png,,,,,,,,,,,,0,2,,,,,,,4,0,6,0,,,,,,,,,,,1661.1111,1661.6119,1661.8618,1665.5299,space,3.6604,,1665.5299,59,16,1666.5247,1666.5247,1666.5437,,,,0,43,43,43,1,90,15,,,,,,,,
,,60d86238375036347c46a290,65af54de16eb9b7185ed4593,2024-01-23_24h56.09.999,bars,2023.2.3,MacIntel,59.88023952,657b66ea316d21385b68909f,,,,,,,,,,,1666.5439,1667.541,,,1668.0399,1668.2899,,79,79,,,,,,,,,,,,,,,,bars/018.png,bars/mask003.png,,,,,,,,,,,,0,2,,,,,,,2,0,2,0,,,,,,,,,,,1667.541,1668.0399,1668.2899,1669.3764,space,1.0783,,1669.3765,71,11,1670.375,1670.375,1670.3916,,,,0,44,44,44,1,150,90,,,,,,,,
,,60d86238375036347c46a290,65af54de16eb9b7185ed4593,2024-01-23_24h56.09.999,bars,2023.2.3,MacIntel,59.88023952,657b66ea316d21385b68909f,,,,,,,,,,,1670.3919,1671.3904,,,1671.8911,1672.1408,,42,42,,,,,,,,,,,,,,,,bars/013.png,bars/mask001.png,,,,,,,,,,,,0,2,,,,,,,0,0,0,2,,,,,,,,,,,1671.3904,1671.891,1672.1409,1678.2369,space,6.0794,,1678.2369,33,32,1679.2365,1679.2365,1679.2526,,,,0,45,45,45,1,75,10,,,,,,,,
,,60d86238375036347c46a290,65af54de16eb9b7185ed4593,2024-01-23_24h56.09.999,bars,2023.2.3,MacIntel,59.88023952,657b66ea316d21385b68909f,,,,,,,,,,,1679.2528,1680.2536,,,1680.7546,1681.0041,,149,149,,,,,,,,,,,,,,,,bars/047.png,bars/mask008.png,,,,,,,,,,,,0,1,,,,,,,2,2,2,1,,,,,,,,,,,1680.2536,1680.7546,1681.0041,1682.8019,space,1.7781,,1682.8019,46,79,1683.8005,1683.8006,1683.8033,,,,0,46,46,46,1,15,70,,,,,,,,
,,60d86238375036347c46a290,65af54de16eb9b7185ed4593,2024-01-23_24h56.09.999,bars,2023.2.3,MacIntel,59.88023952,657b66ea316d21385b68909f,,,,,,,,,,,1683.8037,1684.801,,,1685.3006,1685.5496,,46,46,,,,,,,,,,,,,,,,bars/031.png,bars/mask005.png,,,,,,,,,,,,1,2,,,,,,,4,0,5,1,,,,,,,,,,,1684.801,1685.3006,1685.5496,1688.8381,space,3.2805,,1688.8381,74,11,1689.8299,1689.83,1689.8491,,,,0,47,47,47,1,120,35,,,,,,,,
,,60d86238375036347c46a290,65af54de16eb9b7185ed4593,2024-01-23_24h56.09.999,bars,2023.2.3,MacIntel,59.88023952,657b66ea316d21385b68909f,,,,,,,,,,,1689.8493,1690.8514,,,1691.3527,1691.6018,,138,138,,,,,,,,,,,,,,,,bars/022.png,bars/mask006.png,,,,,,,,,,,,0,1,,,,,,,6,2,7,3,,,,,,,,,,,1690.8514,1691.3527,1691.6019,1693.4334,space,1.8175,,1693.4334,43,62,1694.4324,1694.4325,1694.4513,,,,0,48,48,48,1,95,20,,,,,,,,
,,60d86238375036347c46a290,65af54de16eb9b7185ed4593,2024-01-23_24h56.09.999,bars,2023.2.3,MacIntel,59.88023952,657b66ea316d21385b68909f,,,,,,,,,,,1694.4516,1695.4481,,,1695.9495,1696.2278,,105,105,,,,,,,,,,,,,,,,bars/025.png,bars/mask003.png,,,,,,,,,,,,3,1,,,,,,,4,4,3,4,,,,,,,,,,,1695.4482,1695.9495,1696.2278,1698.0506,space,1.7841,,1698.0506,0,65,1699.0555,1699.0555,1699.0786,,,,0,49,49,49,1,105,40,,,,,,,,
,,60d86238375036347c46a290,65af54de16eb9b7185ed4593,2024-01-23_24h56.09.999,bars,2023.2.3,MacIntel,59.88023952,657b66ea316d21385b68909f,,,,,,,,,,,,,,,,,,,,,,,,,,,,,,,,,,,,,,,,,,,,,,,,,,,,,,,,,,,,,,,,,,,,,,,,,,,,,,,,,,,,,,,,,,,,,1699.0786,1759.0785,0,3,3,4,1,sequence_tables/blk023.csv
,,60d86238375036347c46a290,65af54de16eb9b7185ed4593,2024-01-23_24h56.09.999,bars,2023.2.3,MacIntel,59.88023952,657b66ea316d21385b68909f,,,,,,,,,,,1763.3264,1764.325,,,1764.8249,1765.0742,,45,45,,,,,,,,,,,,,,,,bars/013.png,bars/mask001.png,,,,,,,,,,,,0,1,,,,,,,10,2,10,0,,,,,,1759.0963,1763.3091,space,4.1941,,1764.325,1764.8249,1765.0742,1769.6496,space,4.5606,,1769.6497,30,35,1770.6423,1770.6423,1770.6619,,,,0,0,0,0,1,75,10,,,,,,,,
,,60d86238375036347c46a290,65af54de16eb9b7185ed4593,2024-01-23_24h56.09.999,bars,2023.2.3,MacIntel,59.88023952,657b66ea316d21385b68909f,,,,,,,,,,,1770.6622,1771.658,,,1772.1482,1772.3975,,103,103,,,,,,,,,,,,,,,,bars/028.png,bars/mask002.png,,,,,,,,,,,,0,2,,,,,,,10,0,10,1,,,,,,,,,,,1771.6581,1772.1482,1772.3975,1774.7808,space,2.3647,,1774.7809,58,17,1775.7782,1775.7782,1775.7967,,,,0,1,1,1,1,45,120,,,,,,,,
,,60d86238375036347c46a290,65af54de16eb9b7185ed4593,2024-01-23_24h56.09.999,bars,2023.2.3,MacIntel,59.88023952,657b66ea316d21385b68909f,,,,,,,,,,,1775.797,1776.7938,,,1777.2946,1777.5778,,32,32,,,,,,,,,,,,,,,,bars/010.png,bars/mask006.png,,,,,,,,,,,,0,2,,,,,,,8,2,8,0,,,,,,,,,,,1776.7939,1777.2946,1777.578,1779.5353,space,1.8538,,1779.5354,47,23,1780.5356,1780.5356,1780.5539,,,,0,2,2,2,1,165,55,,,,,,,,
,,60d86238375036347c46a290,65af54de16eb9b7185ed4593,2024-01-23_24h56.09.999,bars,2023.2.3,MacIntel,59.88023952,657b66ea316d21385b68909f,,,,,,,,,,,1780.5541,1781.5515,,,1782.0506,1782.2999,,117,117,,,,,,,,,,,,,,,,bars/003.png,bars/mask003.png,,,,,,,,,,,,0,2,,,,,,,6,0,6,0,,,,,,,,,,,1781.5515,1782.0506,1782.3,1786.3637,space,4.0418,,1786.3637,88,23,1787.364,1787.3641,1787.3832,,,,0,3,3,3,1,25,140,,,,,,,,
,,60d86238375036347c46a290,65af54de16eb9b7185ed4593,2024-01-23_24h56.09.999,bars,2023.2.3,MacIntel,59.88023952,657b66ea316d21385b68909f,,,,,,,,,,,1787.3834,1788.3736,,,1788.8701,1789.0963,,151,151,,,,,,,,,,,,,,,,bars/040.png,bars/mask006.png,,,,,,,,,,,,5,1,,,,,,,8,0,8,0,,,,,,,,,,,1788.3737,1788.8701,1789.0964,1796.147,space,7.034,,1796.147,11,34,1797.145,1797.145,1797.1631,,,,0,4,4,4,1,140,5,,,,,,,,
,,60d86238375036347c46a290,65af54de16eb9b7185ed4593,2024-01-23_24h56.09.999,bars,2023.2.3,MacIntel,59.88023952,657b66ea316d21385b68909f,,,,,,,,,,,1797.1634,1798.2397,,,1798.6785,1798.929,,139,-41,,,,,,,,,,,,,,,,bars/049.png,bars/mask006.png,,,,,,,,,,,,2,1,,,,,,,6,2,7,3,,,,,,,,,,,1798.2398,1798.6784,1798.929,1810.4834,space,11.5457,,1810.4836,21,24,1811.4719,1811.4719,1811.4916,,,,0,5,5,5,1,160,115,,,,,,,,
,,60d86238375036347c46a290,65af54de16eb9b7185ed4593,2024-01-23_24h56.09.999,bars,2023.2.3,MacIntel,59.88023952,657b66ea316d21385b68909f,,,,,,,,,,,1811.4918,1812.4874,,,1812.9879,1813.236,,18,18,,,,,,,,,,,,,,,,bars/008.png,bars/mask002.png,,,,,,,,,,,,1,2,,,,,,,8,4,6,3,,,,,,,,,,,1812.4875,1812.9879,1813.236,1817.1991,space,3.9479,,1817.1992,88,18,1818.2098,1818.2098,1818.2285,,,,0,6,6,6,1,110,0,,,,,,,,
,,60d86238375036347c46a290,65af54de16eb9b7185ed4593,2024-01-23_24h56.09.999,bars,2023.2.3,MacIntel,59.88023952,657b66ea316d21385b68909f,,,,,,,,,,,1818.2287,1819.2214,,,1819.7268,1819.972,,41,41,,,,,,,,,,,,,,,,bars/007.png,bars/mask008.png,,,,,,,,,,,,2,2,,,,,,,6,2,6,3,,,,,,,,,,,1819.2214,1819.7268,1819.972,1822.6358,space,2.631,,1822.636,46,14,1823.6355,1823.6355,1823.6545,,,,0,7,7,7,1,175,55,,,,,,,,
,,60d86238375036347c46a290,65af54de16eb9b7185ed4593,2024-01-23_24h56.09.999,bars,2023.2.3,MacIntel,59.88023952,657b66ea316d21385b68909f,,,,,,,,,,,1823.6547,1824.6503,,,1825.1485,1825.399,,127,127,,,,,,,,,,,,,,,,bars/023.png,bars/mask004.png,,,,,,,,,,,,0,2,,,,,,,8,0,8,0,,,,,,,,,,,1824.6503,1825.1485,1825.399,1828.4716,space,3.0576,,1828.4716,73,12,1829.4794,1829.4797,1829.5058,,,,0,8,8,8,1,20,115,,,,,,,,
,,60d86238375036347c46a290,65af54de16eb9b7185ed4593,2024-01-23_24h56.09.999,bars,2023.2.3,MacIntel,59.88023952,657b66ea316d21385b68909f,,,,,,,,,,,1829.5061,1830.5087,,,1831.0104,1831.2569,,143,143,,,,,,,,,,,,,,,,bars/022.png,bars/mask003.png,,,,,,,,,,,,0,1,,,,,,,6,0,7,0,,,,,,,,,,,1830.5087,1831.0103,1831.2569,1836.3238,space,5.0386,,1836.3238,48,57,1837.3196,1837.3196,1837.3386,,,,0,9,9,9,1,95,20,,,,,,,,
,,60d86238375036347c46a290,65af54de16eb9b7185ed4593,2024-01-23_24h56.09.999,bars,2023.2.3,MacIntel,59.88023952,657b66ea316d21385b68909f,,,,,,,,,,,1837.3388,1838.3358,,,1838.8586,1839.0909,,9,9,,,,,,,,,,,,,,,,bars/015.png,bars/mask004.png,,,,,,,,,,,,0,2,,,,,,,8,2,7,2,,,,,,,,,,,1838.3358,1838.8577,1839.0909,1843.2891,space,4.1904,,1843.2892,79,29,1844.2776,1844.2776,1844.294,,,,0,10,10,10,1,110,160,,,,,,,,
