init_variables.started,init_variables.stopped,participant,session,date,expName,psychopyVersion,OS,frameRate,study_id,instruction_exp.started,instruction_exp.stopped,key_resp_8.keys,key_resp_8.rt,key_resp_8.duration,instruction_single.started,instruction_single.stopped,key_resp_2.keys,key_resp_2.rt,key_resp_2.duration,interval.started,interval.stopped,cue_single.started,cue_single.stopped,mask.started,mask.stopped,ori_response_single.started,res_ori,res,ori_response_single.stopped,key_resp_single.keys,key_resp_single.rt,key_resp_single.duration,disp_single.started,disp_single.stopped,key_resp.keys,key_resp.rt,key_resp.duration,single.thisRepN,single.thisTrialN,single.thisN,single.thisIndex,single.ran,ori,path,mask_path,instruction_bandit.started,instruction_bandit.stopped,key_resp_6.keys,key_resp_6.rt,key_resp_6.duration,cue_bandit.started,cue_bandit.stopped,bandit_res.keys,bandit_res.rt,bandit_res.duration,outcome_bandit.started,rew,action,outcome_bandit.stopped,bandit.thisRepN,bandit.thisTrialN,bandit.thisN,bandit.thisIndex,bandit.ran,actual_rew1,actual_rew2,rew1,rew2,instruction_task.started,instruction_task.stopped,key_resp_7.keys,key_resp_7.rt,key_resp_7.duration,wait_ready.started,wait_ready.stopped,key_resp_3.keys,key_resp_3.rt,key_resp_3.duration,cue.started,cue.stopped,ori_response.started,ori_response.stopped,key_resp_5.keys,key_resp_5.rt,key_resp_5.duration,outcome.started,diff1,diff2,outcome.stopped,disp_outcome_practice.started,disp_outcome_practice.stopped,key_resp_4.keys,key_resp_4.rt,key_resp_4.duration,trials.thisRepN,trials.thisTrialN,trials.thisN,trials.thisIndex,trials.ran,ori1,ori2,break_blk.started,break_blk.stopped,block.thisRepN,block.thisTrialN,block.thisN,block.thisIndex,block.ran,condition_file
0.0005,0.0007,648c128c45f7574370ae1d65,65af563b258f4c49e4087ac6,2024-01-23_19h03.27.650,bars,2023.2.3,MacIntel,59.88023952,657b66ea316d21385b68909f,,,,,,,,,,,,,,,,,,,,,,,,,,,,,,,,,,,,,,,,,,,,,,,,,,,,,,,,,,,,,,,,,,,,,,,,,,,,,,,,,,,,,,,,,,,,,,,,,,,,
,,648c128c45f7574370ae1d65,65af563b258f4c49e4087ac6,2024-01-23_19h03.27.650,bars,2023.2.3,MacIntel,59.88023952,657b66ea316d21385b68909f,0.0008,123.5258,y,123.5089,,,,,,,,,,,,,,,,,,,,,,,,,,,,,,,,,,,,,,,,,,,,,,,,,,,,,,,,,,,,,,,,,,,,,,,,,,,,,,,,,,,,,,,,,,,,,,,,
,,648c128c45f7574370ae1d65,65af563b258f4c49e4087ac6,2024-01-23_19h03.27.650,bars,2023.2.3,MacIntel,59.88023952,657b66ea316d21385b68909f,,,,,,123.526,151.4273,space,27.8865,,,,,,,,,,,,,,,,,,,,,,,,,,,,,,,,,,,,,,,,,,,,,,,,,,,,,,,,,,,,,,,,,,,,,,,,,,,,,,,,,,,,,,,,,,,
,,648c128c45f7574370ae1d65,65af563b258f4c49e4087ac6,2024-01-23_19h03.27.650,bars,2023.2.3,MacIntel,59.88023952,657b66ea316d21385b68909f,,,,,,,,,,,151.4325,152.4216,152.4223,152.9223,152.9226,153.1721,153.1724,17,17,167.0619,space,13.8559,,167.0623,172.2259,space,5.1299,,0,0,0,9,1,20,bars/single009.png,bars/mask006.png,,,,,,,,,,,,,,,,,,,,,,,,,,,,,,,,,,,,,,,,,,,,,,,,,,,,,,,,,,,,,,,,
,,648c128c45f7574370ae1d65,65af563b258f4c49e4087ac6,2024-01-23_19h03.27.650,bars,2023.2.3,MacIntel,59.88023952,657b66ea316d21385b68909f,,,,,,,,,,,172.2385,173.2268,173.2269,173.7271,173.7271,173.9789,173.979,22,22,183.6384,space,9.6458,,183.6384,188.5669,space,4.8949,,0,1,1,3,1,20,bars/single003.png,bars/mask005.png,,,,,,,,,,,,,,,,,,,,,,,,,,,,,,,,,,,,,,,,,,,,,,,,,,,,,,,,,,,,,,,,
,,648c128c45f7574370ae1d65,65af563b258f4c49e4087ac6,2024-01-23_19h03.27.650,bars,2023.2.3,MacIntel,59.88023952,657b66ea316d21385b68909f,,,,,,,,,,,188.582,189.5694,189.5695,190.0719,190.072,190.3215,190.3215,171,-9,198.6932,space,8.3567,,198.6932,205.7804,space,7.0553,,0,2,2,6,1,175,bars/single006.png,bars/mask005.png,,,,,,,,,,,,,,,,,,,,,,,,,,,,,,,,,,,,,,,,,,,,,,,,,,,,,,,,,,,,,,,,
,,648c128c45f7574370ae1d65,65af563b258f4c49e4087ac6,2024-01-23_19h03.27.650,bars,2023.2.3,MacIntel,59.88023952,657b66ea316d21385b68909f,,,,,,,,,,,205.7947,206.7833,206.7833,207.2846,207.2847,207.5338,207.5339,38,218,217.1947,space,9.644,,217.1948,221.0716,space,3.8444,,0,3,3,7,1,45,bars/single007.png,bars/mask009.png,,,,,,,,,,,,,,,,,,,,,,,,,,,,,,,,,,,,,,,,,,,,,,,,,,,,,,,,,,,,,,,,
,,648c128c45f7574370ae1d65,65af563b258f4c49e4087ac6,2024-01-23_19h03.27.650,bars,2023.2.3,MacIntel,59.88023952,657b66ea316d21385b68909f,,,,,,,,,,,221.0728,222.0721,222.0721,222.5742,222.5742,222.8267,222.8267,166,-14,225.5986,space,2.7597,,225.5987,228.9248,space,3.2971,,0,4,4,0,1,150,bars/single000.png,bars/mask006.png,,,,,,,,,,,,,,,,,,,,,,,,,,,,,,,,,,,,,,,,,,,,,,,,,,,,,,,,,,,,,,,,
,,648c128c45f7574370ae1d65,65af563b258f4c49e4087ac6,2024-01-23_19h03.27.650,bars,2023.2.3,MacIntel,59.88023952,657b66ea316d21385b68909f,,,,,,,,,,,228.9258,229.9284,229.9284,230.4296,230.4302,230.6788,230.6788,8,188,236.4948,space,5.8063,,236.495,241.6932,space,5.1714,,0,5,5,1,1,20,bars/single001.png,bars/mask006.png,,,,,,,,,,,,,,,,,,,,,,,,,,,,,,,,,,,,,,,,,,,,,,,,,,,,,,,,,,,,,,,,
,,648c128c45f7574370ae1d65,65af563b258f4c49e4087ac6,2024-01-23_19h03.27.650,bars,2023.2.3,MacIntel,59.88023952,657b66ea316d21385b68909f,,,,,,,,,,,241.7061,242.6956,242.6956,243.1959,243.1959,243.4477,243.4478,103,103,254.344,space,10.878,,254.3443,261.9293,space,7.5563,,0,6,6,4,1,95,bars/single004.png,bars/mask004.png,,,,,,,,,,,,,,,,,,,,,,,,,,,,,,,,,,,,,,,,,,,,,,,,,,,,,,,,,,,,,,,,
,,648c128c45f7574370ae1d65,65af563b258f4c49e4087ac6,2024-01-23_19h03.27.650,bars,2023.2.3,MacIntel,59.88023952,657b66ea316d21385b68909f,,,,,,,,,,,261.9443,262.9327,262.9327,263.4347,263.4348,263.6839,263.6839,110,110,270.1192,space,6.4245,,270.1196,273.9633,space,3.8123,,0,7,7,8,1,160,bars/single008.png,bars/mask004.png,,,,,,,,,,,,,,,,,,,,,,,,,,,,,,,,,,,,,,,,,,,,,,,,,,,,,,,,,,,,,,,,
,,648c128c45f7574370ae1d65,65af563b258f4c49e4087ac6,2024-01-23_19h03.27.650,bars,2023.2.3,MacIntel,59.88023952,657b66ea316d21385b68909f,,,,,,,,,,,273.9771,274.9669,274.9672,275.467,275.4671,275.7179,275.7179,106,106,286.0121,space,10.2778,,286.0122,291.5604,space,5.5227,,0,8,8,5,1,55,bars/single005.png,bars/mask008.png,,,,,,,,,,,,,,,,,,,,,,,,,,,,,,,,,,,,,,,,,,,,,,,,,,,,,,,,,,,,,,,,
,,648c128c45f7574370ae1d65,65af563b258f4c49e4087ac6,2024-01-23_19h03.27.650,bars,2023.2.3,MacIntel,59.88023952,657b66ea316d21385b68909f,,,,,,,,,,,291.5728,292.561,292.5611,293.0636,293.0636,293.3142,293.3143,143,143,483.791,space,190.456,,483.7911,488.1159,space,4.2957,,0,9,9,2,1,145,bars/single002.png,bars/mask003.png,,,,,,,,,,,,,,,,,,,,,,,,,,,,,,,,,,,,,,,,,,,,,,,,,,,,,,,,,,,,,,,,
,,648c128c45f7574370ae1d65,65af563b258f4c49e4087ac6,2024-01-23_19h03.27.650,bars,2023.2.3,MacIntel,59.88023952,657b66ea316d21385b68909f,,,,,,,,,,,,,,,,,,,,,,,,,,,,,,,,,,,,,488.127,499.0962,space,10.9508,,,,,,,,,,,,,,,,,,,,,,,,,,,,,,,,,,,,,,,,,,,,,,,,,,,,,,,,,,,,
,,648c128c45f7574370ae1d65,65af563b258f4c49e4087ac6,2024-01-23_19h03.27.650,bars,2023.2.3,MacIntel,59.88023952,657b66ea316d21385b68909f,,,,,,,,,,,,,,,,,,,,,,,,,,,,,,,,,,,,,,,,,,499.1147,500.72,left,1.5918,,500.7203,9,1,501.7192,0,0,0,0,1,9,1,9,2,,,,,,,,,,,,,,,,,,,,,,,,,,,,,,,,,,,,,,,,,
,,648c128c45f7574370ae1d65,65af563b258f4c49e4087ac6,2024-01-23_19h03.27.650,bars,2023.2.3,MacIntel,59.88023952,657b66ea316d21385b68909f,,,,,,,,,,,,,,,,,,,,,,,,,,,,,,,,,,,,,,,,,,501.7199,503.6427,left,1.9061,,503.6431,10,1,504.6436,0,1,1,1,1,10,0,10,1,,,,,,,,,,,,,,,,,,,,,,,,,,,,,,,,,,,,,,,,,
,,648c128c45f7574370ae1d65,65af563b258f4c49e4087ac6,2024-01-23_19h03.27.650,bars,2023.2.3,MacIntel,59.88023952,657b66ea316d21385b68909f,,,,,,,,,,,,,,,,,,,,,,,,,,,,,,,,,,,,,,,,,,504.644,505.8631,left,1.2039,,505.8631,10,1,506.8662,0,2,2,2,1,10,2,10,2,,,,,,,,,,,,,,,,,,,,,,,,,,,,,,,,,,,,,,,,,
,,648c128c45f7574370ae1d65,65af563b258f4c49e4087ac6,2024-01-23_19h03.27.650,bars,2023.2.3,MacIntel,59.88023952,657b66ea316d21385b68909f,,,,,,,,,,,,,,,,,,,,,,,,,,,,,,,,,,,,,,,,,,506.8666,508.0528,left,1.1715,,508.053,7,1,509.0554,0,3,3,3,1,8,4,7,3,,,,,,,,,,,,,,,,,,,,,,,,,,,,,,,,,,,,,,,,,
,,648c128c45f7574370ae1d65,65af563b258f4c49e4087ac6,2024-01-23_19h03.27.650,bars,2023.2.3,MacIntel,59.88023952,657b66ea316d21385b68909f,,,,,,,,,,,,,,,,,,,,,,,,,,,,,,,,,,,,,,,,,,509.0557,510.6765,left,1.6052,,510.6766,5,1,511.6791,0,4,4,4,1,6,2,5,1,,,,,,,,,,,,,,,,,,,,,,,,,,,,,,,,,,,,,,,,,
,,648c128c45f7574370ae1d65,65af563b258f4c49e4087ac6,2024-01-23_19h03.27.650,bars,2023.2.3,MacIntel,59.88023952,657b66ea316d21385b68909f,,,,,,,,,,,,,,,,,,,,,,,,,,,,,,,,,,,,,,,,,,511.6942,513.8878,right,2.1815,,513.8879,4,2,514.8904,0,5,5,5,1,4,4,4,4,,,,,,,,,,,,,,,,,,,,,,,,,,,,,,,,,,,,,,,,,
,,648c128c45f7574370ae1d65,65af563b258f4c49e4087ac6,2024-01-23_19h03.27.650,bars,2023.2.3,MacIntel,59.88023952,657b66ea316d21385b68909f,,,,,,,,,,,,,,,,,,,,,,,,,,,,,,,,,,,,,,,,,,514.8908,518.7498,right,3.841,,518.7499,2,2,519.7516,0,6,6,6,1,2,2,1,2,,,,,,,,,,,,,,,,,,,,,,,,,,,,,,,,,,,,,,,,,
,,648c128c45f7574370ae1d65,65af563b258f4c49e4087ac6,2024-01-23_19h03.27.650,bars,2023.2.3,MacIntel,59.88023952,657b66ea316d21385b68909f,,,,,,,,,,,,,,,,,,,,,,,,,,,,,,,,,,,,,,,,,,519.7673,520.3387,left,0.5619,,520.3389,0,1,521.3383,0,7,7,7,1,0,0,0,1,,,,,,,,,,,,,,,,,,,,,,,,,,,,,,,,,,,,,,,,,
,,648c128c45f7574370ae1d65,65af563b258f4c49e4087ac6,2024-01-23_19h03.27.650,bars,2023.2.3,MacIntel,59.88023952,657b66ea316d21385b68909f,,,,,,,,,,,,,,,,,,,,,,,,,,,,,,,,,,,,,,,,,,521.3388,521.9733,right,0.6239,,521.9734,0,2,522.9758,0,8,8,8,1,0,2,1,0,,,,,,,,,,,,,,,,,,,,,,,,,,,,,,,,,,,,,,,,,
,,648c128c45f7574370ae1d65,65af563b258f4c49e4087ac6,2024-01-23_19h03.27.650,bars,2023.2.3,MacIntel,59.88023952,657b66ea316d21385b68909f,,,,,,,,,,,,,,,,,,,,,,,,,,,,,,,,,,,,,,,,,,522.9762,523.51,right,0.5203,,523.5101,3,2,524.5133,0,9,9,9,1,2,4,2,3,,,,,,,,,,,,,,,,,,,,,,,,,,,,,,,,,,,,,,,,,
,,648c128c45f7574370ae1d65,65af563b258f4c49e4087ac6,2024-01-23_19h03.27.650,bars,2023.2.3,MacIntel,59.88023952,657b66ea316d21385b68909f,,,,,,,,,,,,,,,,,,,,,,,,,,,,,,,,,,,,,,,,,,524.5137,525.0339,right,0.5016,,525.0339,3,2,526.0335,0,10,10,10,1,0,2,0,3,,,,,,,,,,,,,,,,,,,,,,,,,,,,,,,,,,,,,,,,,
,,648c128c45f7574370ae1d65,65af563b258f4c49e4087ac6,2024-01-23_19h03.27.650,bars,2023.2.3,MacIntel,59.88023952,657b66ea316d21385b68909f,,,,,,,,,,,,,,,,,,,,,,,,,,,,,,,,,,,,,,,,,,526.0339,526.622,right,0.5721,,526.622,3,2,527.6214,0,11,11,11,1,0,4,0,3,,,,,,,,,,,,,,,,,,,,,,,,,,,,,,,,,,,,,,,,,
,,648c128c45f7574370ae1d65,65af563b258f4c49e4087ac6,2024-01-23_19h03.27.650,bars,2023.2.3,MacIntel,59.88023952,657b66ea316d21385b68909f,,,,,,,,,,,,,,,,,,,,,,,,,,,,,,,,,,,,,,,,,,527.6219,528.1743,right,0.5361,,528.1743,6,2,529.1757,0,12,12,12,1,2,6,1,6,,,,,,,,,,,,,,,,,,,,,,,,,,,,,,,,,,,,,,,,,
,,648c128c45f7574370ae1d65,65af563b258f4c49e4087ac6,2024-01-23_19h03.27.650,bars,2023.2.3,MacIntel,59.88023952,657b66ea316d21385b68909f,,,,,,,,,,,,,,,,,,,,,,,,,,,,,,,,,,,,,,,,,,529.1762,529.697,right,0.5075,,529.6971,3,2,530.6965,0,13,13,13,1,0,4,1,3,,,,,,,,,,,,,,,,,,,,,,,,,,,,,,,,,,,,,,,,,
,,648c128c45f7574370ae1d65,65af563b258f4c49e4087ac6,2024-01-23_19h03.27.650,bars,2023.2.3,MacIntel,59.88023952,657b66ea316d21385b68909f,,,,,,,,,,,,,,,,,,,,,,,,,,,,,,,,,,,,,,,,,,530.6969,531.1814,left,0.4697,,531.1814,2,1,532.1852,0,14,14,14,1,2,6,2,7,,,,,,,,,,,,,,,,,,,,,,,,,,,,,,,,,,,,,,,,,
,,648c128c45f7574370ae1d65,65af563b258f4c49e4087ac6,2024-01-23_19h03.27.650,bars,2023.2.3,MacIntel,59.88023952,657b66ea316d21385b68909f,,,,,,,,,,,,,,,,,,,,,,,,,,,,,,,,,,,,,,,,,,532.1856,532.9871,left,0.7875,,532.9872,3,1,533.9748,0,15,15,15,1,4,8,3,9,,,,,,,,,,,,,,,,,,,,,,,,,,,,,,,,,,,,,,,,,
,,648c128c45f7574370ae1d65,65af563b258f4c49e4087ac6,2024-01-23_19h03.27.650,bars,2023.2.3,MacIntel,59.88023952,657b66ea316d21385b68909f,,,,,,,,,,,,,,,,,,,,,,,,,,,,,,,,,,,,,,,,,,533.9754,534.3231,left,0.3367,,534.3231,7,1,535.3281,0,16,16,16,1,6,6,7,7,,,,,,,,,,,,,,,,,,,,,,,,,,,,,,,,,,,,,,,,,
,,648c128c45f7574370ae1d65,65af563b258f4c49e4087ac6,2024-01-23_19h03.27.650,bars,2023.2.3,MacIntel,59.88023952,657b66ea316d21385b68909f,,,,,,,,,,,,,,,,,,,,,,,,,,,,,,,,,,,,,,,,,,535.3286,535.7435,left,0.3987,,535.7435,9,1,536.7459,0,17,17,17,1,8,4,9,5,,,,,,,,,,,,,,,,,,,,,,,,,,,,,,,,,,,,,,,,,
,,648c128c45f7574370ae1d65,65af563b258f4c49e4087ac6,2024-01-23_19h03.27.650,bars,2023.2.3,MacIntel,59.88023952,657b66ea316d21385b68909f,,,,,,,,,,,,,,,,,,,,,,,,,,,,,,,,,,,,,,,,,,536.7463,537.1983,left,0.4359,,537.1983,5,1,538.201,0,18,18,18,1,6,2,5,1,,,,,,,,,,,,,,,,,,,,,,,,,,,,,,,,,,,,,,,,,
,,648c128c45f7574370ae1d65,65af563b258f4c49e4087ac6,2024-01-23_19h03.27.650,bars,2023.2.3,MacIntel,59.88023952,657b66ea316d21385b68909f,,,,,,,,,,,,,,,,,,,,,,,,,,,,,,,,,,,,,,,,,,538.2014,539.4702,left,1.2539,,539.4702,7,1,540.4755,0,19,19,19,1,8,0,7,0,,,,,,,,,,,,,,,,,,,,,,,,,,,,,,,,,,,,,,,,,
,,648c128c45f7574370ae1d65,65af563b258f4c49e4087ac6,2024-01-23_19h03.27.650,bars,2023.2.3,MacIntel,59.88023952,657b66ea316d21385b68909f,,,,,,,,,,,,,,,,,,,,,,,,,,,,,,,,,,,,,,,,,,,,,,,,,,,,,,,,,,,,540.4764,548.0937,space,7.5998,,,,,,,,,,,,,,,,,,,,,,,,,,,,,,,,,,,,,
,,648c128c45f7574370ae1d65,65af563b258f4c49e4087ac6,2024-01-23_19h03.27.650,bars,2023.2.3,MacIntel,59.88023952,657b66ea316d21385b68909f,,,,,,,,,,,550.5744,551.5719,,,552.0705,552.3316,,120,120,,,,,,,,,,,,,,,,bars/038.png,bars/mask000.png,,,,,,,,,,,,0,1,,,,,,,2,7,0,6,,,,,,548.1103,550.5666,space,2.4406,,551.5722,552.0705,552.3318,557.6202,space,5.2736,,557.6206,45,50,558.624,558.6244,570.3544,space,11.7114,,0,0,0,0,1,165,70,,,,,,,,
,,648c128c45f7574370ae1d65,65af563b258f4c49e4087ac6,2024-01-23_19h03.27.650,bars,2023.2.3,MacIntel,59.88023952,657b66ea316d21385b68909f,,,,,,,,,,,570.3689,571.3546,,,571.8574,572.1099,,137,-43,,,,,,,,,,,,,,,,bars/049.png,bars/mask005.png,,,,,,,,,,,,3,2,,,,,,,0,9,1,10,,,,,,,,,,,571.3546,571.8574,572.1099,580.1642,space,8.0408,,580.1644,23,22,581.1647,581.1648,587.7016,space,6.5004,,0,1,1,1,1,160,115,,,,,,,,
,,648c128c45f7574370ae1d65,65af563b258f4c49e4087ac6,2024-01-23_19h03.27.650,bars,2023.2.3,MacIntel,59.88023952,657b66ea316d21385b68909f,,,,,,,,,,,587.7155,588.7025,,,589.2021,589.4529,,104,104,,,,,,,,,,,,,,,,bars/026.png,bars/mask009.png,,,,,,,,,,,,3,2,,,,,,,0,7,1,7,,,,,,,,,,,588.7025,589.2021,589.4529,600.0835,space,10.6232,,600.0836,69,19,601.0872,601.0873,606.3988,space,5.2789,,0,2,2,2,1,35,85,,,,,,,,
,,648c128c45f7574370ae1d65,65af563b258f4c49e4087ac6,2024-01-23_19h03.27.650,bars,2023.2.3,MacIntel,59.88023952,657b66ea316d21385b68909f,,,,,,,,,,,606.4119,607.4039,,,607.9028,608.1551,,102,102,,,,,,,,,,,,,,,,bars/041.png,bars/mask009.png,,,,,,,,,,,,4,2,,,,,,,2,9,1,9,,,,,,,,,,,607.404,607.9028,608.1551,612.0836,space,3.9155,,612.0836,82,17,613.0862,613.0863,616.0748,space,2.9621,,0,3,3,3,1,20,85,,,,,,,,
,,648c128c45f7574370ae1d65,65af563b258f4c49e4087ac6,2024-01-23_19h03.27.650,bars,2023.2.3,MacIntel,59.88023952,657b66ea316d21385b68909f,,,,,,,,,,,616.0897,617.0771,,,617.5781,617.8292,,159,-21,,,,,,,,,,,,,,,,bars/024.png,bars/mask000.png,,,,,,,,,,,,6,2,,,,,,,4,10,4,10,,,,,,,,,,,617.0772,617.578,617.8293,627.8739,space,10.0312,,627.8739,39,11,628.876,628.876,632.3856,space,3.4768,,0,4,4,4,1,120,170,,,,,,,,
,,648c128c45f7574370ae1d65,65af563b258f4c49e4087ac6,2024-01-23_19h03.27.650,bars,2023.2.3,MacIntel,59.88023952,657b66ea316d21385b68909f,,,,,,,,,,,632.386,633.3907,,,633.892,634.1425,,107,107,,,,,,,,,,,,,,,,bars/028.png,bars/mask003.png,,,,,,,,,,,,6,2,,,,,,,2,10,0,10,,,,,,,,,,,633.3908,633.8919,634.1426,644.4211,space,10.2606,,644.4213,62,13,645.4202,645.4203,646.9944,space,1.5395,,0,5,5,5,1,45,120,,,,,,,,
,,648c128c45f7574370ae1d65,65af563b258f4c49e4087ac6,2024-01-23_19h03.27.650,bars,2023.2.3,MacIntel,59.88023952,657b66ea316d21385b68909f,,,,,,,,,,,646.9952,647.9963,,,648.4948,648.7473,,39,39,,,,,,,,,,,,,,,,bars/035.png,bars/mask007.png,,,,,,,,,,,,3,2,,,,,,,4,10,5,9,,,,,,,,,,,647.9964,648.4948,648.7474,653.8119,space,5.0509,,653.812,44,21,654.8131,654.8132,657.9199,space,3.0705,,0,6,6,6,1,175,60,,,,,,,,
,,648c128c45f7574370ae1d65,65af563b258f4c49e4087ac6,2024-01-23_19h03.27.650,bars,2023.2.3,MacIntel,59.88023952,657b66ea316d21385b68909f,,,,,,,,,,,657.9352,658.925,,,659.4243,659.6749,,85,85,,,,,,,,,,,,,,,,bars/038.png,bars/mask006.png,,,,,,,,,,,,4,2,,,,,,,2,8,2,8,,,,,,,,,,,658.9252,659.4243,659.6749,664.0025,space,4.3119,,664.0026,80,15,664.9917,664.9917,666.8442,space,1.8267,,0,7,7,7,1,165,70,,,,,,,,
,,648c128c45f7574370ae1d65,65af563b258f4c49e4087ac6,2024-01-23_19h03.27.650,bars,2023.2.3,MacIntel,59.88023952,657b66ea316d21385b68909f,,,,,,,,,,,666.8449,667.8493,,,668.3509,668.6002,,51,51,,,,,,,,,,,,,,,,bars/029.png,bars/mask009.png,,,,,,,,,,,,8,2,,,,,,,0,10,0,10,,,,,,,,,,,667.8493,668.3509,668.6002,670.6723,space,2.0561,,670.6727,39,6,671.6605,671.6607,673.1946,space,1.5049,,0,8,8,8,1,90,45,,,,,,,,
,,648c128c45f7574370ae1d65,65af563b258f4c49e4087ac6,2024-01-23_19h03.27.650,bars,2023.2.3,MacIntel,59.88023952,657b66ea316d21385b68909f,,,,,,,,,,,673.195,674.197,,,674.6984,674.9504,,170,-10,,,,,,,,,,,,,,,,bars/016.png,bars/mask005.png,,,,,,,,,,,,7,2,,,,,,,2,8,2,8,,,,,,,,,,,674.197,674.6983,674.9504,679.5113,space,4.5486,,679.5113,50,5,680.513,680.513,682.2716,space,1.7317,,0,9,9,9,1,40,165,,,,,,,,
,,648c128c45f7574370ae1d65,65af563b258f4c49e4087ac6,2024-01-23_19h03.27.650,bars,2023.2.3,MacIntel,59.88023952,657b66ea316d21385b68909f,,,,,,,,,,,682.2725,683.2739,,,683.7749,684.0228,,30,210,,,,,,,,,,,,,,,,bars/035.png,bars/mask003.png,,,,,,,,,,,,0,2,,,,,,,0,10,0,10,,,,,,,,,,,683.2741,683.7747,684.0228,691.3797,space,7.3378,,691.3798,35,30,692.3785,692.3785,694.7864,space,2.3772,,0,10,10,10,1,175,60,,,,,,,,
,,648c128c45f7574370ae1d65,65af563b258f4c49e4087ac6,2024-01-23_19h03.27.650,bars,2023.2.3,MacIntel,59.88023952,657b66ea316d21385b68909f,,,,,,,,,,,694.7869,695.7907,,,696.292,696.5428,,108,108,,,,,,,,,,,,,,,,bars/006.png,bars/mask002.png,,,,,,,,,,,,6,2,,,,,,,0,8,1,8,,,,,,,,,,,695.7908,696.292,696.5428,700.7375,space,4.1804,,700.7375,73,8,701.7374,701.7374,703.3427,space,1.5714,,0,11,11,11,1,35,100,,,,,,,,
,,648c128c45f7574370ae1d65,65af563b258f4c49e4087ac6,2024-01-23_19h03.27.650,bars,2023.2.3,MacIntel,59.88023952,657b66ea316d21385b68909f,,,,,,,,,,,703.344,704.3466,,,704.8448,705.0962,,46,46,,,,,,,,,,,,,,,,bars/010.png,bars/mask001.png,,,,,,,,,,,,4,2,,,,,,,0,6,1,5,,,,,,,,,,,704.3467,704.8448,705.0963,709.0602,space,3.948,,709.0602,61,9,710.0615,710.0616,711.731,space,1.634,,0,12,12,12,1,165,55,,,,,,,,
,,648c128c45f7574370ae1d65,65af563b258f4c49e4087ac6,2024-01-23_19h03.27.650,bars,2023.2.3,MacIntel,59.88023952,657b66ea316d21385b68909f,,,,,,,,,,,711.7314,712.7191,,,713.2179,713.4686,,102,102,,,,,,,,,,,,,,,,bars/009.png,bars/mask005.png,,,,,,,,,,,,2,2,,,,,,,2,4,3,2,,,,,,,,,,,712.7192,713.2179,713.4686,718.518,space,5.0358,,718.5181,87,3,719.5206,719.5206,721.5768,space,2.0279,,0,13,13,13,1,15,105,,,,,,,,
,,648c128c45f7574370ae1d65,65af563b258f4c49e4087ac6,2024-01-23_19h03.27.650,bars,2023.2.3,MacIntel,59.88023952,657b66ea316d21385b68909f,,,,,,,,,,,721.5783,722.5788,,,723.0801,723.3296,,85,85,,,,,,,,,,,,,,,,bars/026.png,bars/mask000.png,,,,,,,,,,,,1,2,,,,,,,0,2,0,1,,,,,,,,,,,722.5788,723.08,723.3296,729.0097,space,5.6666,,729.0099,50,0,730.0153,730.0153,735.7111,space,5.6639,,0,14,14,14,1,35,85,,,,,,,,
,,648c128c45f7574370ae1d65,65af563b258f4c49e4087ac6,2024-01-23_19h03.27.650,bars,2023.2.3,MacIntel,59.88023952,657b66ea316d21385b68909f,,,,,,,,,,,735.725,736.7162,,,737.2179,737.4684,,31,31,,,,,,,,,,,,,,,,bars/016.png,bars/mask006.png,,,,,,,,,,,,1,1,,,,,,,2,0,2,1,,,,,,,,,,,736.7163,737.2178,737.4685,741.5795,space,4.0971,,741.5795,9,46,742.5818,742.5819,746.4066,space,3.7946,,0,15,15,15,1,40,165,,,,,,,,
,,648c128c45f7574370ae1d65,65af563b258f4c49e4087ac6,2024-01-23_19h03.27.650,bars,2023.2.3,MacIntel,59.88023952,657b66ea316d21385b68909f,,,,,,,,,,,746.4068,747.3949,,,747.8966,748.1461,,134,134,,,,,,,,,,,,,,,,bars/003.png,bars/mask001.png,,,,,,,,,,,,2,2,,,,,,,0,2,0,3,,,,,,,,,,,747.3951,747.8966,748.1461,754.6146,space,6.4548,,754.6148,71,6,755.6169,755.6169,758.309,space,2.6565,,0,16,16,16,1,25,140,,,,,,,,
,,648c128c45f7574370ae1d65,65af563b258f4c49e4087ac6,2024-01-23_19h03.27.650,bars,2023.2.3,MacIntel,59.88023952,657b66ea316d21385b68909f,,,,,,,,,,,758.3097,759.3088,,,759.809,760.0622,,91,91,,,,,,,,,,,,,,,,bars/026.png,bars/mask003.png,,,,,,,,,,,,0,2,,,,,,,2,0,2,0,,,,,,,,,,,759.3089,759.809,760.0623,761.231,space,1.1577,,761.231,56,6,762.2317,762.2317,764.7896,space,2.5394,,0,17,17,17,1,35,85,,,,,,,,
,,648c128c45f7574370ae1d65,65af563b258f4c49e4087ac6,2024-01-23_19h03.27.650,bars,2023.2.3,MacIntel,59.88023952,657b66ea316d21385b68909f,,,,,,,,,,,764.7901,765.7928,,,766.2929,766.5436,,112,112,,,,,,,,,,,,,,,,bars/044.png,bars/mask001.png,,,,,,,,,,,,0,1,,,,,,,4,2,5,1,,,,,,,,,,,765.7928,766.2929,766.5436,767.6494,space,1.0884,,767.6495,37,43,768.6494,768.6494,772.1266,space,3.4562,,0,18,18,18,1,75,155,,,,,,,,
,,648c128c45f7574370ae1d65,65af563b258f4c49e4087ac6,2024-01-23_19h03.27.650,bars,2023.2.3,MacIntel,59.88023952,657b66ea316d21385b68909f,,,,,,,,,,,772.1412,773.1305,,,773.6293,773.88,,66,66,,,,,,,,,,,,,,,,bars/017.png,bars/mask002.png,,,,,,,,,,,,2,2,,,,,,,2,4,3,5,,,,,,,,,,,773.1305,773.6292,773.88,777.3076,space,3.4111,,777.3077,79,21,778.3095,778.3095,779.8651,space,1.5253,,0,19,19,19,1,145,45,,,,,,,,
,,648c128c45f7574370ae1d65,65af563b258f4c49e4087ac6,2024-01-23_19h03.27.650,bars,2023.2.3,MacIntel,59.88023952,657b66ea316d21385b68909f,,,,,,,,,,,779.8656,780.8647,,,781.3663,781.6165,,122,122,,,,,,,,,,,,,,,,bars/037.png,bars/mask009.png,,,,,,,,,,,,3,2,,,,,,,4,6,4,8,,,,,,,,,,,780.8648,781.3663,781.6168,788.9895,space,7.3593,,788.9895,28,17,789.991,789.991,791.9283,space,1.9081,,0,20,20,20,1,150,105,,,,,,,,
,,648c128c45f7574370ae1d65,65af563b258f4c49e4087ac6,2024-01-23_19h03.27.650,bars,2023.2.3,MacIntel,59.88023952,657b66ea316d21385b68909f,,,,,,,,,,,791.9287,792.9163,,,793.4154,793.6686,,23,23,,,,,,,,,,,,,,,,bars/032.png,bars/mask009.png,,,,,,,,,,,,4,2,,,,,,,2,4,3,4,,,,,,,,,,,792.9164,793.4154,793.6687,797.3445,space,3.668,,797.3445,78,3,798.3477,798.3478,799.7177,space,1.3384,,0,21,21,21,1,125,20,,,,,,,,
,,648c128c45f7574370ae1d65,65af563b258f4c49e4087ac6,2024-01-23_19h03.27.650,bars,2023.2.3,MacIntel,59.88023952,657b66ea316d21385b68909f,,,,,,,,,,,799.7184,800.7182,,,801.2196,801.4703,,36,36,,,,,,,,,,,,,,,,bars/025.png,bars/mask002.png,,,,,,,,,,,,2,2,,,,,,,4,2,3,2,,,,,,,,,,,800.7182,801.2196,801.4703,803.7431,space,2.2567,,803.7431,69,4,804.7313,804.7313,805.9649,space,1.2086,,0,22,22,22,1,105,40,,,,,,,,
,,648c128c45f7574370ae1d65,65af563b258f4c49e4087ac6,2024-01-23_19h03.27.650,bars,2023.2.3,MacIntel,59.88023952,657b66ea316d21385b68909f,,,,,,,,,,,805.9657,806.9541,,,807.4528,807.7051,,50,50,,,,,,,,,,,,,,,,bars/030.png,bars/mask003.png,,,,,,,,,,,,2,2,,,,,,,2,4,1,3,,,,,,,,,,,806.9542,807.4528,807.7052,811.3469,space,3.6272,,811.347,90,15,812.3493,812.3494,813.4022,space,1.0272,,0,23,23,23,1,140,65,,,,,,,,
,,648c128c45f7574370ae1d65,65af563b258f4c49e4087ac6,2024-01-23_19h03.27.650,bars,2023.2.3,MacIntel,59.88023952,657b66ea316d21385b68909f,,,,,,,,,,,813.4027,814.3908,,,814.8895,815.1409,,35,35,,,,,,,,,,,,,,,,bars/016.png,bars/mask003.png,,,,,,,,,,,,0,1,,,,,,,0,2,0,3,,,,,,,,,,,814.3908,814.8895,815.1409,823.4958,space,8.341,,823.4959,5,50,824.4843,824.4843,827.8428,space,3.3247,,0,24,24,24,1,40,165,,,,,,,,
,,648c128c45f7574370ae1d65,65af563b258f4c49e4087ac6,2024-01-23_19h03.27.650,bars,2023.2.3,MacIntel,59.88023952,657b66ea316d21385b68909f,,,,,,,,,,,827.8434,828.8461,,,829.3463,829.5979,,47,47,,,,,,,,,,,,,,,,bars/029.png,bars/mask003.png,,,,,,,,,,,,0,2,,,,,,,2,0,4,0,,,,,,,,,,,828.8463,829.3463,829.598,833.5255,space,3.9125,,833.5257,43,2,834.5253,834.5253,835.7951,space,1.2385,,0,25,25,25,1,90,45,,,,,,,,
,,648c128c45f7574370ae1d65,65af563b258f4c49e4087ac6,2024-01-23_19h03.27.650,bars,2023.2.3,MacIntel,59.88023952,657b66ea316d21385b68909f,,,,,,,,,,,835.7954,836.7997,,,837.3018,837.5492,,68,68,,,,,,,,,,,,,,,,bars/021.png,bars/mask009.png,,,,,,,,,,,,1,2,,,,,,,0,0,1,1,,,,,,,,,,,836.7998,837.3017,837.5495,846.8594,space,9.294,,846.8598,87,2,847.8633,847.8633,849.4987,space,1.6078,,0,26,26,26,1,155,70,,,,,,,,
,,648c128c45f7574370ae1d65,65af563b258f4c49e4087ac6,2024-01-23_19h03.27.650,bars,2023.2.3,MacIntel,59.88023952,657b66ea316d21385b68909f,,,,,,,,,,,849.4991,850.4869,,,850.9875,851.2392,,109,109,,,,,,,,,,,,,,,,bars/009.png,bars/mask002.png,,,,,,,,,,,,0,2,,,,,,,2,0,3,0,,,,,,,,,,,850.4869,850.9873,851.2392,854.4119,space,3.1597,,854.4119,86,4,855.4004,855.4005,856.4693,space,1.0441,,0,27,27,27,1,15,105,,,,,,,,
,,648c128c45f7574370ae1d65,65af563b258f4c49e4087ac6,2024-01-23_19h03.27.650,bars,2023.2.3,MacIntel,59.88023952,657b66ea316d21385b68909f,,,,,,,,,,,856.4705,857.4725,,,857.9738,858.2247,,118,118,,,,,,,,,,,,,,,,bars/003.png,bars/mask004.png,,,,,,,,,,,,1,2,,,,,,,0,2,0,2,,,,,,,,,,,857.4725,857.9738,858.2247,860.3971,space,2.1621,,860.3972,87,22,861.3962,861.3962,862.5332,space,1.1261,,0,28,28,28,1,25,140,,,,,,,,
,,648c128c45f7574370ae1d65,65af563b258f4c49e4087ac6,2024-01-23_19h03.27.650,bars,2023.2.3,MacIntel,59.88023952,657b66ea316d21385b68909f,,,,,,,,,,,862.5337,863.5367,,,864.0386,864.2903,,45,45,,,,,,,,,,,,,,,,bars/007.png,bars/mask003.png,,,,,,,,,,,,0,2,,,,,,,0,0,0,0,,,,,,,,,,,863.5368,864.0385,864.2904,868.2155,space,3.916,,868.2155,50,10,869.2173,869.2174,871.0094,space,1.7691,,0,29,29,29,1,175,55,,,,,,,,
,,648c128c45f7574370ae1d65,65af563b258f4c49e4087ac6,2024-01-23_19h03.27.650,bars,2023.2.3,MacIntel,59.88023952,657b66ea316d21385b68909f,,,,,,,,,,,871.0101,872.0087,,,872.5124,872.7602,,158,158,,,,,,,,,,,,,,,,bars/036.png,bars/mask009.png,,,,,,,,,,,,1,1,,,,,,,0,0,1,0,,,,,,,,,,,872.0088,872.5124,872.7603,880.7165,space,7.9481,,880.7166,13,42,881.7177,881.7177,883.5742,space,1.831,,0,30,30,30,1,145,20,,,,,,,,
,,648c128c45f7574370ae1d65,65af563b258f4c49e4087ac6,2024-01-23_19h03.27.650,bars,2023.2.3,MacIntel,59.88023952,657b66ea316d21385b68909f,,,,,,,,,,,883.5747,884.5754,,,885.0793,885.3288,,133,133,,,,,,,,,,,,,,,,bars/018.png,bars/mask004.png,,,,,,,,,,,,1,1,,,,,,,2,0,2,2,,,,,,,,,,,884.5755,885.0793,885.3288,894.5718,space,9.2319,,894.5719,17,43,895.5712,895.5713,897.0616,space,1.4591,,0,31,31,31,1,150,90,,,,,,,,
,,648c128c45f7574370ae1d65,65af563b258f4c49e4087ac6,2024-01-23_19h03.27.650,bars,2023.2.3,MacIntel,59.88023952,657b66ea316d21385b68909f,,,,,,,,,,,897.0623,898.0641,,,898.5651,898.8146,,4,4,,,,,,,,,,,,,,,,bars/033.png,bars/mask000.png,,,,,,,,,,,,1,1,,,,,,,4,2,4,1,,,,,,,,,,,898.0641,898.565,898.8146,906.6179,space,7.7871,,906.618,21,29,907.6062,907.6063,908.9098,space,1.2732,,0,32,32,32,1,25,155,,,,,,,,
,,648c128c45f7574370ae1d65,65af563b258f4c49e4087ac6,2024-01-23_19h03.27.650,bars,2023.2.3,MacIntel,59.88023952,657b66ea316d21385b68909f,,,,,,,,,,,908.9106,909.9099,,,910.4121,910.6645,,13,13,,,,,,,,,,,,,,,,bars/035.png,bars/mask003.png,,,,,,,,,,,,3,1,,,,,,,6,4,7,4,,,,,,,,,,,909.91,910.4121,910.6645,915.9928,space,5.3172,,915.9929,18,47,916.981,916.981,918.3677,space,1.3559,,0,33,33,33,1,175,60,,,,,,,,
,,648c128c45f7574370ae1d65,65af563b258f4c49e4087ac6,2024-01-23_19h03.27.650,bars,2023.2.3,MacIntel,59.88023952,657b66ea316d21385b68909f,,,,,,,,,,,918.3681,919.3695,,,919.8712,920.1206,,45,45,,,,,,,,,,,,,,,,bars/043.png,bars/mask000.png,,,,,,,,,,,,4,1,,,,,,,8,2,8,2,,,,,,,,,,,919.3695,919.8711,920.1206,925.0179,space,4.884,,925.0179,15,85,926.0055,926.0055,927.1562,space,1.1194,,0,34,34,34,1,30,130,,,,,,,,
,,648c128c45f7574370ae1d65,65af563b258f4c49e4087ac6,2024-01-23_19h03.27.650,bars,2023.2.3,MacIntel,59.88023952,657b66ea316d21385b68909f,,,,,,,,,,,927.1566,928.1587,,,928.6601,928.913,,58,58,,,,,,,,,,,,,,,,bars/028.png,bars/mask001.png,,,,,,,,,,,,6,1,,,,,,,10,0,10,0,,,,,,,,,,,928.1587,928.66,928.913,931.1846,space,2.2634,,931.1847,13,62,932.1886,932.1886,933.2719,space,1.056,,0,35,35,35,1,45,120,,,,,,,,
,,648c128c45f7574370ae1d65,65af563b258f4c49e4087ac6,2024-01-23_19h03.27.650,bars,2023.2.3,MacIntel,59.88023952,657b66ea316d21385b68909f,,,,,,,,,,,933.2724,934.2773,,,934.7789,935.0264,,37,37,,,,,,,,,,,,,,,,bars/047.png,bars/mask005.png,,,,,,,,,,,,2,1,,,,,,,8,0,9,0,,,,,,,,,,,934.2773,934.7788,935.0265,940.4605,space,5.4263,,940.4608,22,33,941.4608,941.4608,943.3493,space,1.8603,,0,36,36,36,1,15,70,,,,,,,,
,,648c128c45f7574370ae1d65,65af563b258f4c49e4087ac6,2024-01-23_19h03.27.650,bars,2023.2.3,MacIntel,59.88023952,657b66ea316d21385b68909f,,,,,,,,,,,943.3497,944.3517,,,944.8527,945.1037,,51,51,,,,,,,,,,,,,,,,bars/017.png,bars/mask001.png,,,,,,,,,,,,2,2,,,,,,,10,2,9,3,,,,,,,,,,,944.3518,944.8526,945.1038,948.0469,space,2.9269,,948.0474,86,6,949.0504,949.0505,950.054,space,0.9708,,0,37,37,37,1,145,45,,,,,,,,
,,648c128c45f7574370ae1d65,65af563b258f4c49e4087ac6,2024-01-23_19h03.27.650,bars,2023.2.3,MacIntel,59.88023952,657b66ea316d21385b68909f,,,,,,,,,,,950.0548,951.0532,,,951.5561,951.8052,,115,115,,,,,,,,,,,,,,,,bars/002.png,bars/mask003.png,,,,,,,,,,,,5,1,,,,,,,8,0,9,0,,,,,,,,,,,951.0532,951.5561,951.8052,960.8616,space,9.0496,,960.8617,15,30,961.8501,961.8502,963.0712,space,1.1844,,0,38,38,38,1,130,85,,,,,,,,
,,648c128c45f7574370ae1d65,65af563b258f4c49e4087ac6,2024-01-23_19h03.27.650,bars,2023.2.3,MacIntel,59.88023952,657b66ea316d21385b68909f,,,,,,,,,,,963.0723,964.074,,,964.5727,964.8264,,53,53,,,,,,,,,,,,,,,,bars/042.png,bars/mask006.png,,,,,,,,,,,,0,2,,,,,,,10,0,10,0,,,,,,,,,,,964.0741,964.5727,964.8266,970.0566,space,5.2139,,970.0566,88,22,971.0558,971.0558,972.3107,space,1.2219,,0,39,39,39,1,145,75,,,,,,,,
,,648c128c45f7574370ae1d65,65af563b258f4c49e4087ac6,2024-01-23_19h03.27.650,bars,2023.2.3,MacIntel,59.88023952,657b66ea316d21385b68909f,,,,,,,,,,,972.3116,973.3151,,,973.8165,974.0637,,162,-18,,,,,,,,,,,,,,,,bars/015.png,bars/mask005.png,,,,,,,,,,,,0,2,,,,,,,10,0,10,0,,,,,,,,,,,973.3151,973.8164,974.0637,979.4321,space,5.3584,,979.4323,52,2,980.4339,980.4339,982.4372,space,1.9756,,0,40,40,40,1,110,160,,,,,,,,
,,648c128c45f7574370ae1d65,65af563b258f4c49e4087ac6,2024-01-23_19h03.27.650,bars,2023.2.3,MacIntel,59.88023952,657b66ea316d21385b68909f,,,,,,,,,,,982.4377,983.4422,,,983.9434,984.1933,,125,125,,,,,,,,,,,,,,,,bars/018.png,bars/mask004.png,,,,,,,,,,,,1,1,,,,,,,8,0,6,0,,,,,,,,,,,983.4422,983.9433,984.1933,991.3104,space,7.1061,,991.3104,25,35,992.3137,992.3138,993.4525,space,1.1035,,0,41,41,41,1,150,90,,,,,,,,
,,648c128c45f7574370ae1d65,65af563b258f4c49e4087ac6,2024-01-23_19h03.27.650,bars,2023.2.3,MacIntel,59.88023952,657b66ea316d21385b68909f,,,,,,,,,,,993.4533,994.4523,,,994.9562,995.2056,,40,40,,,,,,,,,,,,,,,,bars/023.png,bars/mask005.png,,,,,,,,,,,,3,1,,,,,,,10,2,10,3,,,,,,,,,,,994.4523,994.9562,995.2056,999.5154,space,4.2953,,999.5155,20,75,1000.5212,1000.5212,1002.6103,space,2.0572,,0,42,42,42,1,20,115,,,,,,,,
,,648c128c45f7574370ae1d65,65af563b258f4c49e4087ac6,2024-01-23_19h03.27.650,bars,2023.2.3,MacIntel,59.88023952,657b66ea316d21385b68909f,,,,,,,,,,,1002.6114,1003.6092,,,1004.1115,1004.361,,118,118,,,,,,,,,,,,,,,,bars/004.png,bars/mask008.png,,,,,,,,,,,,3,2,,,,,,,8,4,9,4,,,,,,,,,,,1003.6093,1004.1115,1004.3611,1006.9024,space,2.5295,,1006.9025,87,7,1007.9081,1007.9082,1010.6634,space,2.7299,,0,43,43,43,1,25,125,,,,,,,,
,,648c128c45f7574370ae1d65,65af563b258f4c49e4087ac6,2024-01-23_19h03.27.650,bars,2023.2.3,MacIntel,59.88023952,657b66ea316d21385b68909f,,,,,,,,,,,1010.6758,1011.664,,,1012.1686,1012.4163,,39,39,,,,,,,,,,,,,,,,bars/031.png,bars/mask004.png,,,,,,,,,,,,1,2,,,,,,,10,2,9,1,,,,,,,,,,,1011.664,1012.1684,1012.4164,1018.5515,space,6.1248,,1018.5516,81,4,1019.555,1019.555,1020.8563,space,1.2721,,0,44,44,44,1,120,35,,,,,,,,
,,648c128c45f7574370ae1d65,65af563b258f4c49e4087ac6,2024-01-23_19h03.27.650,bars,2023.2.3,MacIntel,59.88023952,657b66ea316d21385b68909f,,,,,,,,,,,1020.8567,1021.8447,,,1022.3443,1022.5938,,117,117,,,,,,,,,,,,,,,,bars/032.png,bars/mask003.png,,,,,,,,,,,,6,1,,,,,,,8,0,8,0,,,,,,,,,,,1021.8448,1022.3443,1022.5938,1028.159,space,5.5521,,1028.1591,8,83,1029.1616,1029.1616,1030.4316,space,1.2378,,0,45,45,45,1,125,20,,,,,,,,
,,648c128c45f7574370ae1d65,65af563b258f4c49e4087ac6,2024-01-23_19h03.27.650,bars,2023.2.3,MacIntel,59.88023952,657b66ea316d21385b68909f,,,,,,,,,,,1030.4323,1031.4339,,,1031.9353,1032.1865,,126,126,,,,,,,,,,,,,,,,bars/031.png,bars/mask005.png,,,,,,,,,,,,6,1,,,,,,,6,0,8,1,,,,,,,,,,,1031.4339,1031.9353,1032.1866,1040.9767,space,8.7779,,1040.9767,6,89,1041.9652,1041.9652,1043.4833,space,1.4896,,0,46,46,46,1,120,35,,,,,,,,
,,648c128c45f7574370ae1d65,65af563b258f4c49e4087ac6,2024-01-23_19h03.27.650,bars,2023.2.3,MacIntel,59.88023952,657b66ea316d21385b68909f,,,,,,,,,,,1043.4837,1044.4848,,,1044.9733,1045.2214,,138,138,,,,,,,,,,,,,,,,bars/003.png,bars/mask006.png,,,,,,,,,,,,0,2,,,,,,,8,0,7,0,,,,,,,,,,,1044.4848,1044.9733,1045.2214,1051.0562,space,5.816,,1051.0563,67,2,1052.0585,1052.0586,1052.9951,space,0.9038,,0,47,47,47,1,25,140,,,,,,,,
,,648c128c45f7574370ae1d65,65af563b258f4c49e4087ac6,2024-01-23_19h03.27.650,bars,2023.2.3,MacIntel,59.88023952,657b66ea316d21385b68909f,,,,,,,,,,,1052.9961,1053.9948,,,1054.4985,1054.7477,,148,148,,,,,,,,,,,,,,,,bars/040.png,bars/mask000.png,,,,,,,,,,,,4,1,,,,,,,6,2,6,3,,,,,,,,,,,1053.9948,1054.4984,1054.7479,1062.0326,space,7.2732,,1062.0327,8,37,1063.0345,1063.0345,1064.3224,space,1.2505,,0,48,48,48,1,140,5,,,,,,,,
,,648c128c45f7574370ae1d65,65af563b258f4c49e4087ac6,2024-01-23_19h03.27.650,bars,2023.2.3,MacIntel,59.88023952,657b66ea316d21385b68909f,,,,,,,,,,,1064.3228,1065.3107,,,1065.809,1066.0617,,115,115,,,,,,,,,,,,,,,,bars/005.png,bars/mask000.png,,,,,,,,,,,,0,2,,,,,,,4,4,4,3,,,,,,,,,,,1065.3107,1065.809,1066.0617,1071.2404,space,5.1642,,1071.2406,75,25,1072.2462,1072.2462,1073.5641,space,1.2884,,0,49,49,49,1,10,140,,,,,,,,
,,648c128c45f7574370ae1d65,65af563b258f4c49e4087ac6,2024-01-23_19h03.27.650,bars,2023.2.3,MacIntel,59.88023952,657b66ea316d21385b68909f,,,,,,,,,,,,,,,,,,,,,,,,,,,,,,,,,,,,,,,,,,,,,,,,,,,,,,,,,,,,,,,,,,,,,,,,,,,,,,,,,,,,,,,,,,,,,1073.565,1133.5578,0,0,0,2,1,sequence_tables/blk019.csv
,,648c128c45f7574370ae1d65,65af563b258f4c49e4087ac6,2024-01-23_19h03.27.650,bars,2023.2.3,MacIntel,59.88023952,657b66ea316d21385b68909f,,,,,,,,,,,1182.9617,1183.9611,,,1184.4421,1184.6799,,122,122,,,,,,,,,,,,,,,,bars/018.png,bars/mask001.png,,,,,,,,,,,,0,1,,,,,,,7,5,7,6,,,,,,1133.5737,1182.9412,space,49.349,,1183.9611,1184.442,1184.6799,1187.7877,space,3.0934,,1187.7879,28,32,1188.7907,1188.7907,1188.8086,,,,0,0,0,0,1,150,90,,,,,,,,
,,648c128c45f7574370ae1d65,65af563b258f4c49e4087ac6,2024-01-23_19h03.27.650,bars,2023.2.3,MacIntel,59.88023952,657b66ea316d21385b68909f,,,,,,,,,,,1188.809,1189.8099,,,1190.3089,1190.5611,,59,59,,,,,,,,,,,,,,,,bars/010.png,bars/mask009.png,,,,,,,,,,,,6,2,,,,,,,5,7,5,7,,,,,,,,,,,1189.8101,1190.3089,1190.5615,1196.7787,space,6.199,,1196.7787,74,4,1197.7812,1197.7812,1197.7984,,,,0,1,1,1,1,165,55,,,,,,,,
,,648c128c45f7574370ae1d65,65af563b258f4c49e4087ac6,2024-01-23_19h03.27.650,bars,2023.2.3,MacIntel,59.88023952,657b66ea316d21385b68909f,,,,,,,,,,,1197.7988,1198.7981,,,1199.2986,1199.553,,122,122,,,,,,,,,,,,,,,,bars/034.png,bars/mask002.png,,,,,,,,,,,,4,1,,,,,,,3,5,4,4,,,,,,,,,,,1198.7981,1199.2985,1199.553,1207.6402,space,8.0735,,1207.6406,3,57,1208.6438,1208.6439,1208.6608,,,,0,2,2,2,1,125,65,,,,,,,,
,,648c128c45f7574370ae1d65,65af563b258f4c49e4087ac6,2024-01-23_19h03.27.650,bars,2023.2.3,MacIntel,59.88023952,657b66ea316d21385b68909f,,,,,,,,,,,1208.6612,1209.6605,,,1210.1645,1210.415,,13,193,,,,,,,,,,,,,,,,bars/040.png,bars/mask003.png,,,,,,,,,,,,2,2,,,,,,,1,3,2,3,,,,,,,,,,,1209.6605,1210.1644,1210.415,1214.6759,space,4.2465,,1214.6761,53,8,1215.6766,1215.6766,1215.6932,,,,0,3,3,3,1,140,5,,,,,,,,
,,648c128c45f7574370ae1d65,65af563b258f4c49e4087ac6,2024-01-23_19h03.27.650,bars,2023.2.3,MacIntel,59.88023952,657b66ea316d21385b68909f,,,,,,,,,,,1215.6935,1216.6818,,,1217.1806,1217.4308,,61,61,,,,,,,,,,,,,,,,bars/029.png,bars/mask002.png,,,,,,,,,,,,3,2,,,,,,,3,5,2,6,,,,,,,,,,,1216.6818,1217.1806,1217.4308,1226.0705,space,8.6278,,1226.0706,29,16,1227.075,1227.0751,1227.0907,,,,0,4,4,4,1,90,45,,,,,,,,
,,648c128c45f7574370ae1d65,65af563b258f4c49e4087ac6,2024-01-23_19h03.27.650,bars,2023.2.3,MacIntel,59.88023952,657b66ea316d21385b68909f,,,,,,,,,,,1227.091,1228.0931,,,1228.5965,1228.8451,,131,131,,,,,,,,,,,,,,,,bars/030.png,bars/mask005.png,,,,,,,,,,,,2,1,,,,,,,1,3,3,2,,,,,,,,,,,1228.0931,1228.5964,1228.8452,1234.8437,space,5.9845,,1234.8441,9,66,1235.8495,1235.8496,1235.8667,,,,0,5,5,5,1,140,65,,,,,,,,
,,648c128c45f7574370ae1d65,65af563b258f4c49e4087ac6,2024-01-23_19h03.27.650,bars,2023.2.3,MacIntel,59.88023952,657b66ea316d21385b68909f,,,,,,,,,,,1235.8672,1236.8672,,,1237.3701,1237.6183,,56,56,,,,,,,,,,,,,,,,bars/010.png,bars/mask008.png,,,,,,,,,,,,1,2,,,,,,,3,1,2,1,,,,,,,,,,,1236.8672,1237.3701,1237.6183,1244.6702,space,7.0388,,1244.6703,71,1,1245.6594,1245.6595,1245.6764,,,,0,6,6,6,1,165,55,,,,,,,,
,,648c128c45f7574370ae1d65,65af563b258f4c49e4087ac6,2024-01-23_19h03.27.650,bars,2023.2.3,MacIntel,59.88023952,657b66ea316d21385b68909f,,,,,,,,,,,1245.6767,1246.6784,,,1247.1775,1247.428,,115,115,,,,,,,,,,,,,,,,bars/022.png,bars/mask007.png,,,,,,,,,,,,2,1,,,,,,,5,0,6,0,,,,,,,,,,,1246.6785,1247.1775,1247.428,1250.6726,space,3.2294,,1250.6727,20,85,1251.6716,1251.6717,1251.6886,,,,0,7,7,7,1,95,20,,,,,,,,
,,648c128c45f7574370ae1d65,65af563b258f4c49e4087ac6,2024-01-23_19h03.27.650,bars,2023.2.3,MacIntel,59.88023952,657b66ea316d21385b68909f,,,,,,,,,,,1251.6889,1252.6915,,,1253.1964,1253.4467,,162,162,,,,,,,,,,,,,,,,bars/035.png,bars/mask001.png,,,,,,,,,,,,4,1,,,,,,,7,0,7,0,,,,,,,,,,,1252.6916,1253.1963,1253.4468,1261.5835,space,8.123,,1261.5835,13,78,1262.5711,1262.5711,1262.5861,,,,0,8,8,8,1,175,60,,,,,,,,
,,648c128c45f7574370ae1d65,65af563b258f4c49e4087ac6,2024-01-23_19h03.27.650,bars,2023.2.3,MacIntel,59.88023952,657b66ea316d21385b68909f,,,,,,,,,,,1262.5866,1263.5875,,,1264.092,1264.3426,,41,41,,,,,,,,,,,,,,,,bars/005.png,bars/mask004.png,,,,,,,,,,,,0,1,,,,,,,9,0,9,1,,,,,,,,,,,1263.5875,1264.092,1264.3427,1272.1776,space,7.8215,,1272.1776,31,81,1273.166,1273.166,1273.181,,,,0,9,9,9,1,10,140,,,,,,,,
,,648c128c45f7574370ae1d65,65af563b258f4c49e4087ac6,2024-01-23_19h03.27.650,bars,2023.2.3,MacIntel,59.88023952,657b66ea316d21385b68909f,,,,,,,,,,,1273.1818,1274.1828,,,1274.6865,1274.9365,,114,114,,,,,,,,,,,,,,,,bars/002.png,bars/mask001.png,,,,,,,,,,,,4,1,,,,,,,10,2,9,1,,,,,,,,,,,1274.1828,1274.6864,1274.9365,1278.8616,space,3.9109,,1278.8616,16,29,1279.8507,1279.8508,1279.8654,,,,0,10,10,10,1,130,85,,,,,,,,
,,648c128c45f7574370ae1d65,65af563b258f4c49e4087ac6,2024-01-23_19h03.27.650,bars,2023.2.3,MacIntel,59.88023952,657b66ea316d21385b68909f,,,,,,,,,,,1279.8657,1280.8697,,,1281.369,1281.6184,,94,94,,,,,,,,,,,,,,,,bars/047.png,bars/mask002.png,,,,,,,,,,,,1,2,,,,,,,8,4,8,4,,,,,,,,,,,1280.8697,1281.369,1281.6184,1285.8489,space,4.2171,,1285.849,79,24,1286.8521,1286.8521,1286.8686,,,,0,11,11,11,1,15,70,,,,,,,,
,,648c128c45f7574370ae1d65,65af563b258f4c49e4087ac6,2024-01-23_19h03.27.650,bars,2023.2.3,MacIntel,59.88023952,657b66ea316d21385b68909f,,,,,,,,,,,1286.8689,1287.8702,,,1288.3699,1288.6242,,3,3,,,,,,,,,,,,,,,,bars/003.png,bars/mask006.png,,,,,,,,,,,,2,1,,,,,,,6,6,6,7,,,,,,,,,,,1287.8702,1288.3699,1288.6242,1295.6575,space,7.0274,,1295.6576,22,43,1296.6454,1296.6454,1296.6626,,,,0,12,12,12,1,25,140,,,,,,,,
,,648c128c45f7574370ae1d65,65af563b258f4c49e4087ac6,2024-01-23_19h03.27.650,bars,2023.2.3,MacIntel,59.88023952,657b66ea316d21385b68909f,,,,,,,,,,,1296.6628,1297.6633,,,1298.1635,1298.4169,,16,196,,,,,,,,,,,,,,,,bars/007.png,bars/mask005.png,,,,,,,,,,,,2,1,,,,,,,8,8,8,9,,,,,,,,,,,1297.6633,1298.1635,1298.4169,1305.8706,space,7.445,,1305.8708,21,39,1306.8699,1306.8699,1306.8861,,,,0,13,13,13,1,175,55,,,,,,,,
,,648c128c45f7574370ae1d65,65af563b258f4c49e4087ac6,2024-01-23_19h03.27.650,bars,2023.2.3,MacIntel,59.88023952,657b66ea316d21385b68909f,,,,,,,,,,,1306.8864,1307.874,,,1308.374,1308.6273,,155,-25,,,,,,,,,,,,,,,,bars/045.png,bars/mask005.png,,,,,,,,,,,,0,2,,,,,,,10,6,9,6,,,,,,,,,,,1307.8741,1308.374,1308.6275,1312.6358,space,3.9968,,1312.6359,55,35,1313.6377,1313.6377,1313.6551,,,,0,14,14,14,1,100,10,,,,,,,,
,,648c128c45f7574370ae1d65,65af563b258f4c49e4087ac6,2024-01-23_19h03.27.650,bars,2023.2.3,MacIntel,59.88023952,657b66ea316d21385b68909f,,,,,,,,,,,1313.6554,1314.6434,,,1315.1413,1315.3925,,114,114,,,,,,,,,,,,,,,,bars/027.png,bars/mask002.png,,,,,,,,,,,,9,1,,,,,,,10,4,10,3,,,,,,,,,,,1314.6434,1315.1412,1315.3925,1322.98,space,7.5726,,1322.98,4,64,1323.9684,1323.9685,1323.9857,,,,0,15,15,15,1,110,50,,,,,,,,
,,648c128c45f7574370ae1d65,65af563b258f4c49e4087ac6,2024-01-23_19h03.27.650,bars,2023.2.3,MacIntel,59.88023952,657b66ea316d21385b68909f,,,,,,,,,,,1323.986,1324.9876,,,1325.4898,1325.7397,,39,39,,,,,,,,,,,,,,,,bars/047.png,bars/mask000.png,,,,,,,,,,,,2,1,,,,,,,10,6,10,5,,,,,,,,,,,1324.9877,1325.4897,1325.7398,1333.191,space,7.438,,1333.1911,24,31,1334.1789,1334.179,1334.1938,,,,0,16,16,16,1,15,70,,,,,,,,
,,648c128c45f7574370ae1d65,65af563b258f4c49e4087ac6,2024-01-23_19h03.27.650,bars,2023.2.3,MacIntel,59.88023952,657b66ea316d21385b68909f,,,,,,,,,,,1334.1946,1335.1983,,,1335.6965,1335.9466,,149,149,,,,,,,,,,,,,,,,bars/010.png,bars/mask002.png,,,,,,,,,,,,5,1,,,,,,,10,4,10,5,,,,,,,,,,,1335.1983,1335.6965,1335.9466,1345.2896,space,9.3274,,1345.2896,16,86,1346.2947,1346.2948,1346.3106,,,,0,17,17,17,1,165,55,,,,,,,,
,,648c128c45f7574370ae1d65,65af563b258f4c49e4087ac6,2024-01-23_19h03.27.650,bars,2023.2.3,MacIntel,59.88023952,657b66ea316d21385b68909f,,,,,,,,,,,1346.3109,1347.3134,,,1347.8138,1348.0624,,81,81,,,,,,,,,,,,,,,,bars/013.png,bars/mask004.png,,,,,,,,,,,,8,1,,,,,,,10,6,10,7,,,,,,,,,,,1347.3135,1347.8137,1348.0624,1350.3888,space,2.3096,,1350.3889,6,71,1351.3889,1351.389,1351.4046,,,,0,18,18,18,1,75,10,,,,,,,,
,,648c128c45f7574370ae1d65,65af563b258f4c49e4087ac6,2024-01-23_19h03.27.650,bars,2023.2.3,MacIntel,59.88023952,657b66ea316d21385b68909f,,,,,,,,,,,1351.4049,1352.4099,,,1352.9098,1353.1631,,146,146,,,,,,,,,,,,,,,,bars/005.png,bars/mask000.png,,,,,,,,,,,,7,2,,,,,,,10,8,10,9,,,,,,,,,,,1352.4099,1352.9098,1353.1631,1357.2911,space,4.1105,,1357.2919,44,6,1358.2907,1358.2908,1358.3076,,,,0,19,19,19,1,10,140,,,,,,,,
,,648c128c45f7574370ae1d65,65af563b258f4c49e4087ac6,2024-01-23_19h03.27.650,bars,2023.2.3,MacIntel,59.88023952,657b66ea316d21385b68909f,,,,,,,,,,,1358.3079,1359.3128,,,1359.8117,1360.0622,,6,186,,,,,,,,,,,,,,,,bars/006.png,bars/mask004.png,,,,,,,,,,,,0,1,,,,,,,8,10,6,9,,,,,,,,,,,1359.3129,1359.8117,1360.0623,1366.5463,space,6.4735,,1366.5464,29,86,1367.5349,1367.5349,1367.5517,,,,0,20,20,20,1,35,100,,,,,,,,
,,648c128c45f7574370ae1d65,65af563b258f4c49e4087ac6,2024-01-23_19h03.27.650,bars,2023.2.3,MacIntel,59.88023952,657b66ea316d21385b68909f,,,,,,,,,,,1367.552,1368.5516,,,1369.0531,1369.3031,,4,4,,,,,,,,,,,,,,,,bars/006.png,bars/mask003.png,,,,,,,,,,,,0,1,,,,,,,6,10,6,9,,,,,,,,,,,1368.5516,1369.053,1369.3031,1378.261,space,8.9383,,1378.261,31,84,1379.2495,1379.2495,1379.2644,,,,0,21,21,21,1,35,100,,,,,,,,
,,648c128c45f7574370ae1d65,65af563b258f4c49e4087ac6,2024-01-23_19h03.27.650,bars,2023.2.3,MacIntel,59.88023952,657b66ea316d21385b68909f,,,,,,,,,,,1379.2651,1380.2666,,,1380.7669,1381.021,,61,241,,,,,,,,,,,,,,,,bars/038.png,bars/mask005.png,,,,,,,,,,,,6,2,,,,,,,4,8,3,9,,,,,,,,,,,1380.2666,1380.7669,1381.021,1389.226,space,8.1886,,1389.2261,76,9,1390.2288,1390.2288,1390.2465,,,,0,22,22,22,1,165,70,,,,,,,,
,,648c128c45f7574370ae1d65,65af563b258f4c49e4087ac6,2024-01-23_19h03.27.650,bars,2023.2.3,MacIntel,59.88023952,657b66ea316d21385b68909f,,,,,,,,,,,1390.2468,1391.248,,,1391.7469,1391.9998,,42,42,,,,,,,,,,,,,,,,bars/029.png,bars/mask000.png,,,,,,,,,,,,9,2,,,,,,,6,10,5,10,,,,,,,,,,,1391.248,1391.7469,1391.9999,1395.9109,space,3.8951,,1395.911,48,3,1396.9106,1396.9106,1396.9258,,,,0,23,23,23,1,90,45,,,,,,,,
,,648c128c45f7574370ae1d65,65af563b258f4c49e4087ac6,2024-01-23_19h03.27.650,bars,2023.2.3,MacIntel,59.88023952,657b66ea316d21385b68909f,,,,,,,,,,,1396.926,1397.9299,,,1398.4326,1398.6812,,170,-10,,,,,,,,,,,,,,,,bars/012.png,bars/mask009.png,,,,,,,,,,,,2,2,,,,,,,8,10,8,10,,,,,,,,,,,1397.9299,1398.4326,1398.6813,1401.2066,space,2.5165,,1401.2066,80,25,1402.2077,1402.2077,1402.2085,,,,0,24,24,24,1,90,15,,,,,,,,
,,648c128c45f7574370ae1d65,65af563b258f4c49e4087ac6,2024-01-23_19h03.27.650,bars,2023.2.3,MacIntel,59.88023952,657b66ea316d21385b68909f,,,,,,,,,,,1402.2094,1403.2128,,,1403.7151,1403.9645,,89,89,,,,,,,,,,,,,,,,bars/018.png,bars/mask009.png,,,,,,,,,,,,7,2,,,,,,,6,8,7,7,,,,,,,,,,,1403.2129,1403.715,1403.9647,1407.0373,space,3.0584,,1407.0373,61,1,1408.0267,1408.0267,1408.0438,,,,0,25,25,25,1,150,90,,,,,,,,
,,648c128c45f7574370ae1d65,65af563b258f4c49e4087ac6,2024-01-23_19h03.27.650,bars,2023.2.3,MacIntel,59.88023952,657b66ea316d21385b68909f,,,,,,,,,,,1408.0443,1409.0435,,,1409.545,1409.7945,,8,8,,,,,,,,,,,,,,,,bars/013.png,bars/mask007.png,,,,,,,,,,,,6,2,,,,,,,4,6,4,6,,,,,,,,,,,1409.0436,1409.545,1409.7945,1415.128,space,5.3181,,1415.1283,67,2,1416.1311,1416.1312,1416.1457,,,,0,26,26,26,1,75,10,,,,,,,,
,,648c128c45f7574370ae1d65,65af563b258f4c49e4087ac6,2024-01-23_19h03.27.650,bars,2023.2.3,MacIntel,59.88023952,657b66ea316d21385b68909f,,,,,,,,,,,1416.1464,1417.1477,,,1417.6489,1417.9034,,16,196,,,,,,,,,,,,,,,,bars/008.png,bars/mask000.png,,,,,,,,,,,,3,2,,,,,,,2,8,3,7,,,,,,,,,,,1417.1478,1417.6489,1417.9034,1422.1636,space,4.2461,,1422.1636,86,16,1423.1638,1423.1638,1423.1792,,,,0,27,27,27,1,110,0,,,,,,,,
,,648c128c45f7574370ae1d65,65af563b258f4c49e4087ac6,2024-01-23_19h03.27.650,bars,2023.2.3,MacIntel,59.88023952,657b66ea316d21385b68909f,,,,,,,,,,,1423.1794,1424.1824,,,1424.6707,1424.9207,,117,117,,,,,,,,,,,,,,,,bars/034.png,bars/mask002.png,,,,,,,,,,,,0,1,,,,,,,0,10,0,10,,,,,,,,,,,1424.1824,1424.6707,1424.9207,1431.9709,space,7.0367,,1431.971,8,52,1432.9596,1432.9596,1432.9767,,,,0,28,28,28,1,125,65,,,,,,,,
,,648c128c45f7574370ae1d65,65af563b258f4c49e4087ac6,2024-01-23_19h03.27.650,bars,2023.2.3,MacIntel,59.88023952,657b66ea316d21385b68909f,,,,,,,,,,,1432.9769,1433.9763,,,1434.4776,1434.7283,,164,164,,,,,,,,,,,,,,,,bars/036.png,bars/mask009.png,,,,,,,,,,,,0,1,,,,,,,0,8,1,9,,,,,,,,,,,1433.9763,1434.4773,1434.7284,1442.3849,space,7.6402,,1442.3854,19,36,1443.3855,1443.3855,1443.4012,,,,0,29,29,29,1,145,20,,,,,,,,
,,648c128c45f7574370ae1d65,65af563b258f4c49e4087ac6,2024-01-23_19h03.27.650,bars,2023.2.3,MacIntel,59.88023952,657b66ea316d21385b68909f,,,,,,,,,,,1443.4015,1444.404,,,1444.9065,1445.1561,,135,135,,,,,,,,,,,,,,,,bars/017.png,bars/mask001.png,,,,,,,,,,,,0,1,,,,,,,0,6,0,5,,,,,,,,,,,1444.4041,1444.9063,1445.1563,1450.938,space,5.7697,,1450.9381,10,90,1451.9431,1451.9431,1451.9581,,,,0,30,30,30,1,145,45,,,,,,,,
,,648c128c45f7574370ae1d65,65af563b258f4c49e4087ac6,2024-01-23_19h03.27.650,bars,2023.2.3,MacIntel,59.88023952,657b66ea316d21385b68909f,,,,,,,,,,,1451.9584,1452.9461,,,1453.4467,1453.6967,,126,126,,,,,,,,,,,,,,,,bars/049.png,bars/mask006.png,,,,,,,,,,,,6,2,,,,,,,2,8,3,9,,,,,,,,,,,1452.9462,1453.4466,1453.6967,1460.9177,space,7.2092,,1460.9178,34,11,1461.9203,1461.9203,1461.9371,,,,0,31,31,31,1,160,115,,,,,,,,
,,648c128c45f7574370ae1d65,65af563b258f4c49e4087ac6,2024-01-23_19h03.27.650,bars,2023.2.3,MacIntel,59.88023952,657b66ea316d21385b68909f,,,,,,,,,,,1461.9375,1462.937,,,1463.4378,1463.6885,,14,14,,,,,,,,,,,,,,,,bars/045.png,bars/mask009.png,,,,,,,,,,,,8,2,,,,,,,0,10,0,9,,,,,,,,,,,1462.937,1463.4378,1463.6885,1468.1009,space,4.401,,1468.101,86,4,1469.1062,1469.1064,1469.1208,,,,0,32,32,32,1,100,10,,,,,,,,
,,648c128c45f7574370ae1d65,65af563b258f4c49e4087ac6,2024-01-23_19h03.27.650,bars,2023.2.3,MacIntel,59.88023952,657b66ea316d21385b68909f,,,,,,,,,,,1469.1217,1470.122,,,1470.6235,1470.8775,,143,143,,,,,,,,,,,,,,,,bars/014.png,bars/mask007.png,,,,,,,,,,,,0,2,,,,,,,2,10,3,10,,,,,,,,,,,1470.122,1470.6235,1470.8775,1474.8188,space,3.9278,,1474.8189,63,37,1475.824,1475.824,1475.8388,,,,0,33,33,33,1,80,0,,,,,,,,
,,648c128c45f7574370ae1d65,65af563b258f4c49e4087ac6,2024-01-23_19h03.27.650,bars,2023.2.3,MacIntel,59.88023952,657b66ea316d21385b68909f,,,,,,,,,,,1475.8394,1476.8407,,,1477.3445,1477.5951,,68,68,,,,,,,,,,,,,,,,bars/047.png,bars/mask009.png,,,,,,,,,,,,9,2,,,,,,,0,10,0,10,,,,,,,,,,,1476.8407,1477.3445,1477.5952,1482.9432,space,5.3285,,1482.9432,53,2,1483.9456,1483.9457,1483.96,,,,0,34,34,34,1,15,70,,,,,,,,
,,648c128c45f7574370ae1d65,65af563b258f4c49e4087ac6,2024-01-23_19h03.27.650,bars,2023.2.3,MacIntel,59.88023952,657b66ea316d21385b68909f,,,,,,,,,,,1483.9602,1484.9615,,,1485.4638,1485.716,,145,145,,,,,,,,,,,,,,,,bars/000.png,bars/mask004.png,,,,,,,,,,,,10,2,,,,,,,2,10,2,10,,,,,,,,,,,1484.9615,1485.4637,1485.716,1487.0699,space,1.3428,,1487.0699,75,0,1488.0699,1488.0699,1488.0857,,,,0,35,35,35,1,40,145,,,,,,,,
,,648c128c45f7574370ae1d65,65af563b258f4c49e4087ac6,2024-01-23_19h03.27.650,bars,2023.2.3,MacIntel,59.88023952,657b66ea316d21385b68909f,,,,,,,,,,,1488.086,1489.0759,,,1489.5761,1489.8269,,39,39,,,,,,,,,,,,,,,,bars/022.png,bars/mask008.png,,,,,,,,,,,,4,2,,,,,,,0,10,0,10,,,,,,,,,,,1489.0759,1489.5761,1489.8269,1492.8531,space,3.0106,,1492.8531,56,19,1493.8541,1493.8542,1493.8694,,,,0,36,36,36,1,95,20,,,,,,,,
,,648c128c45f7574370ae1d65,65af563b258f4c49e4087ac6,2024-01-23_19h03.27.650,bars,2023.2.3,MacIntel,59.88023952,657b66ea316d21385b68909f,,,,,,,,,,,1493.8697,1494.8579,,,1495.3583,1495.607,,165,165,,,,,,,,,,,,,,,,bars/036.png,bars/mask001.png,,,,,,,,,,,,0,1,,,,,,,0,10,1,10,,,,,,,,,,,1494.8579,1495.3583,1495.6071,1501.9101,space,6.2868,,1501.9102,20,35,1502.9095,1502.9095,1502.927,,,,0,37,37,37,1,145,20,,,,,,,,
,,648c128c45f7574370ae1d65,65af563b258f4c49e4087ac6,2024-01-23_19h03.27.650,bars,2023.2.3,MacIntel,59.88023952,657b66ea316d21385b68909f,,,,,,,,,,,1502.9273,1503.9293,,,1504.4335,1504.6816,,133,133,,,,,,,,,,,,,,,,bars/003.png,bars/mask000.png,,,,,,,,,,,,7,2,,,,,,,2,8,1,9,,,,,,,,,,,1503.9293,1504.4334,1504.6816,1508.5585,space,3.8628,,1508.5586,72,7,1509.5623,1509.5623,1509.5791,,,,0,38,38,38,1,25,140,,,,,,,,
,,648c128c45f7574370ae1d65,65af563b258f4c49e4087ac6,2024-01-23_19h03.27.650,bars,2023.2.3,MacIntel,59.88023952,657b66ea316d21385b68909f,,,,,,,,,,,1509.5796,1510.5835,,,1511.0834,1511.336,,81,81,,,,,,,,,,,,,,,,bars/030.png,bars/mask006.png,,,,,,,,,,,,5,2,,,,,,,4,10,4,10,,,,,,,,,,,1510.5836,1511.0834,1511.336,1515.4977,space,4.1504,,1515.4979,59,16,1516.4967,1516.4967,1516.5122,,,,0,39,39,39,1,140,65,,,,,,,,
,,648c128c45f7574370ae1d65,65af563b258f4c49e4087ac6,2024-01-23_19h03.27.650,bars,2023.2.3,MacIntel,59.88023952,657b66ea316d21385b68909f,,,,,,,,,,,1516.5125,1517.516,,,1518.0202,1518.2681,,68,68,,,,,,,,,,,,,,,,bars/042.png,bars/mask008.png,,,,,,,,,,,,8,2,,,,,,,6,10,6,10,,,,,,,,,,,1517.5161,1518.0202,1518.2681,1521.0622,space,2.7753,,1521.0625,77,7,1522.0615,1522.0616,1522.0769,,,,0,40,40,40,1,145,75,,,,,,,,
,,648c128c45f7574370ae1d65,65af563b258f4c49e4087ac6,2024-01-23_19h03.27.650,bars,2023.2.3,MacIntel,59.88023952,657b66ea316d21385b68909f,,,,,,,,,,,1522.0772,1523.0652,,,1523.5681,1523.8162,,92,92,,,,,,,,,,,,,,,,bars/019.png,bars/mask004.png,,,,,,,,,,,,6,2,,,,,,,8,10,9,10,,,,,,,,,,,1523.0654,1523.568,1523.8162,1527.3252,space,3.4923,,1527.3252,47,13,1528.3129,1528.3129,1528.328,,,,0,41,41,41,1,45,105,,,,,,,,
,,648c128c45f7574370ae1d65,65af563b258f4c49e4087ac6,2024-01-23_19h03.27.650,bars,2023.2.3,MacIntel,59.88023952,657b66ea316d21385b68909f,,,,,,,,,,,1528.3282,1529.3309,,,1529.8335,1530.083,,39,39,,,,,,,,,,,,,,,,bars/031.png,bars/mask008.png,,,,,,,,,,,,9,2,,,,,,,6,10,4,10,,,,,,,,,,,1529.3309,1529.8335,1530.0831,1533.0601,space,2.9549,,1533.0601,81,4,1534.0623,1534.0624,1534.0769,,,,0,42,42,42,1,120,35,,,,,,,,
,,648c128c45f7574370ae1d65,65af563b258f4c49e4087ac6,2024-01-23_19h03.27.650,bars,2023.2.3,MacIntel,59.88023952,657b66ea316d21385b68909f,,,,,,,,,,,1534.0774,1535.082,,,1535.581,1535.8344,,123,123,,,,,,,,,,,,,,,,bars/028.png,bars/mask004.png,,,,,,,,,,,,7,2,,,,,,,8,8,6,8,,,,,,,,,,,1535.082,1535.581,1535.8345,1541.5496,space,5.7007,,1541.5497,78,3,1542.5521,1542.5521,1542.5684,,,,0,43,43,43,1,45,120,,,,,,,,
,,648c128c45f7574370ae1d65,65af563b258f4c49e4087ac6,2024-01-23_19h03.27.650,bars,2023.2.3,MacIntel,59.88023952,657b66ea316d21385b68909f,,,,,,,,,,,1542.5686,1543.569,,,1544.0725,1544.3232,,165,-15,,,,,,,,,,,,,,,,bars/044.png,bars/mask006.png,,,,,,,,,,,,6,2,,,,,,,6,10,5,9,,,,,,,,,,,1543.569,1544.0724,1544.3233,1550.841,space,6.5011,,1550.8411,90,10,1551.8436,1551.8437,1551.8596,,,,0,44,44,44,1,75,155,,,,,,,,
,,648c128c45f7574370ae1d65,65af563b258f4c49e4087ac6,2024-01-23_19h03.27.650,bars,2023.2.3,MacIntel,59.88023952,657b66ea316d21385b68909f,,,,,,,,,,,1551.86,1552.862,,,1553.3619,1553.6125,,17,17,,,,,,,,,,,,,,,,bars/014.png,bars/mask007.png,,,,,,,,,,,,3,2,,,,,,,4,8,3,8,,,,,,,,,,,1552.862,1553.3619,1553.6125,1555.6203,space,1.9929,,1555.6203,63,17,1556.6229,1556.6229,1556.6377,,,,0,45,45,45,1,80,0,,,,,,,,
,,648c128c45f7574370ae1d65,65af563b258f4c49e4087ac6,2024-01-23_19h03.27.650,bars,2023.2.3,MacIntel,59.88023952,657b66ea316d21385b68909f,,,,,,,,,,,1556.6383,1557.6399,,,1558.1438,1558.3945,,52,52,,,,,,,,,,,,,,,,bars/048.png,bars/mask005.png,,,,,,,,,,,,3,1,,,,,,,2,6,3,7,,,,,,,,,,,1557.6399,1558.1437,1558.3946,1563.2575,space,4.8471,,1563.2576,2,57,1564.2577,1564.2577,1564.2751,,,,0,46,46,46,1,50,175,,,,,,,,
,,648c128c45f7574370ae1d65,65af563b258f4c49e4087ac6,2024-01-23_19h03.27.650,bars,2023.2.3,MacIntel,59.88023952,657b66ea316d21385b68909f,,,,,,,,,,,1564.2756,1565.2759,,,1565.7642,1566.0119,,113,113,,,,,,,,,,,,,,,,bars/039.png,bars/mask003.png,,,,,,,,,,,,3,2,,,,,,,4,4,4,4,,,,,,,,,,,1565.276,1565.7642,1566.0119,1566.9162,space,0.8949,,1566.9162,62,8,1567.9168,1567.9169,1567.9333,,,,0,47,47,47,1,175,105,,,,,,,,
,,648c128c45f7574370ae1d65,65af563b258f4c49e4087ac6,2024-01-23_19h03.27.650,bars,2023.2.3,MacIntel,59.88023952,657b66ea316d21385b68909f,,,,,,,,,,,1567.9339,1568.9367,,,1569.4403,1569.6914,,106,106,,,,,,,,,,,,,,,,bars/023.png,bars/mask005.png,,,,,,,,,,,,2,2,,,,,,,2,2,3,3,,,,,,,,,,,1568.9367,1569.4402,1569.6914,1573.8538,space,4.1502,,1573.8539,86,9,1574.8553,1574.8554,1574.8697,,,,0,48,48,48,1,20,115,,,,,,,,
,,648c128c45f7574370ae1d65,65af563b258f4c49e4087ac6,2024-01-23_19h03.27.650,bars,2023.2.3,MacIntel,59.88023952,657b66ea316d21385b68909f,,,,,,,,,,,1574.8702,1575.8733,,,1576.3721,1576.6238,,116,116,,,,,,,,,,,,,,,,bars/012.png,bars/mask003.png,,,,,,,,,,,,0,1,,,,,,,4,0,3,0,,,,,,,,,,,1575.8735,1576.3721,1576.6238,1580.217,space,3.5786,,1580.217,26,79,1581.22,1581.22,1581.2341,,,,0,49,49,49,1,90,15,,,,,,,,
,,648c128c45f7574370ae1d65,65af563b258f4c49e4087ac6,2024-01-23_19h03.27.650,bars,2023.2.3,MacIntel,59.88023952,657b66ea316d21385b68909f,,,,,,,,,,,,,,,,,,,,,,,,,,,,,,,,,,,,,,,,,,,,,,,,,,,,,,,,,,,,,,,,,,,,,,,,,,,,,,,,,,,,,,,,,,,,,1581.2344,1641.232,0,1,1,3,1,sequence_tables/blk007.csv
,,648c128c45f7574370ae1d65,65af563b258f4c49e4087ac6,2024-01-23_19h03.27.650,bars,2023.2.3,MacIntel,59.88023952,657b66ea316d21385b68909f,,,,,,,,,,,1659.6984,1660.6834,,,1661.1827,1661.4364,,119,119,,,,,,,,,,,,,,,,bars/049.png,bars/mask001.png,,,,,,,,,,,,1,2,,,,,,,4,1,4,1,,,,,,1641.2437,1659.6783,space,18.424,,1660.6835,1661.1827,1661.4364,1665.3972,space,3.9462,,1665.3972,41,4,1666.3962,1666.3963,1666.4134,,,,0,0,0,0,1,160,115,,,,,,,,
,,648c128c45f7574370ae1d65,65af563b258f4c49e4087ac6,2024-01-23_19h03.27.650,bars,2023.2.3,MacIntel,59.88023952,657b66ea316d21385b68909f,,,,,,,,,,,1666.4137,1667.4178,,,1667.9173,1668.1684,,135,135,,,,,,,,,,,,,,,,bars/002.png,bars/mask000.png,,,,,,,,,,,,7,1,,,,,,,6,0,8,0,,,,,,,,,,,1667.4178,1667.9173,1668.1685,1670.945,space,2.758,,1670.9452,5,50,1671.9474,1671.9475,1671.9637,,,,0,1,1,1,1,130,85,,,,,,,,
,,648c128c45f7574370ae1d65,65af563b258f4c49e4087ac6,2024-01-23_19h03.27.650,bars,2023.2.3,MacIntel,59.88023952,657b66ea316d21385b68909f,,,,,,,,,,,1671.9639,1672.9645,,,1673.466,1673.7191,,117,117,,,,,,,,,,,,,,,,bars/022.png,bars/mask006.png,,,,,,,,,,,,1,1,,,,,,,4,2,2,2,,,,,,,,,,,1672.9646,1673.4659,1673.7191,1678.2783,space,4.5465,,1678.2785,22,83,1679.2832,1679.2833,1679.2982,,,,0,2,2,2,1,95,20,,,,,,,,
,,648c128c45f7574370ae1d65,65af563b258f4c49e4087ac6,2024-01-23_19h03.27.650,bars,2023.2.3,MacIntel,59.88023952,657b66ea316d21385b68909f,,,,,,,,,,,1679.2985,1680.2867,,,1680.787,1681.0389,,87,87,,,,,,,,,,,,,,,,bars/014.png,bars/mask002.png,,,,,,,,,,,,2,1,,,,,,,2,0,2,0,,,,,,,,,,,1680.2868,1680.7869,1681.0389,1687.102,space,6.0512,,1687.1021,7,87,1688.107,1688.107,1688.1221,,,,0,3,3,3,1,80,0,,,,,,,,
,,648c128c45f7574370ae1d65,65af563b258f4c49e4087ac6,2024-01-23_19h03.27.650,bars,2023.2.3,MacIntel,59.88023952,657b66ea316d21385b68909f,,,,,,,,,,,1688.1229,1689.1244,,,1689.6273,1689.877,,106,106,,,,,,,,,,,,,,,,bars/018.png,bars/mask007.png,,,,,,,,,,,,0,2,,,,,,,4,0,4,0,,,,,,,,,,,1689.1245,1689.6272,1689.8771,1690.7289,space,0.8357,,1690.7289,44,16,1691.7306,1691.7309,1691.7363,,,,0,4,4,4,1,150,90,,,,,,,,
,,648c128c45f7574370ae1d65,65af563b258f4c49e4087ac6,2024-01-23_19h03.27.650,bars,2023.2.3,MacIntel,59.88023952,657b66ea316d21385b68909f,,,,,,,,,,,1691.7375,1692.734,,,1693.2354,1693.4886,,63,63,,,,,,,,,,,,,,,,bars/000.png,bars/mask008.png,,,,,,,,,,,,1,1,,,,,,,2,2,3,1,,,,,,,,,,,1692.734,1693.2353,1693.4886,1700.0206,space,6.5215,,1700.0206,23,82,1701.0085,1701.0086,1701.0238,,,,0,5,5,5,1,40,145,,,,,,,,
,,648c128c45f7574370ae1d65,65af563b258f4c49e4087ac6,2024-01-23_19h03.27.650,bars,2023.2.3,MacIntel,59.88023952,657b66ea316d21385b68909f,,,,,,,,,,,1701.024,1702.028,,,1702.5264,1702.7794,,126,-54,,,,,,,,,,,,,,,,bars/018.png,bars/mask009.png,,,,,,,,,,,,0,1,,,,,,,0,4,1,3,,,,,,,,,,,1702.028,1702.5263,1702.7795,1709.8648,space,7.0781,,1709.8649,24,36,1710.8654,1710.8654,1710.8816,,,,0,6,6,6,1,150,90,,,,,,,,
,,648c128c45f7574370ae1d65,65af563b258f4c49e4087ac6,2024-01-23_19h03.27.650,bars,2023.2.3,MacIntel,59.88023952,657b66ea316d21385b68909f,,,,,,,,,,,1710.8818,1711.871,,,1712.3717,1712.62,,112,112,,,,,,,,,,,,,,,,bars/035.png,bars/mask002.png,,,,,,,,,,,,0,2,,,,,,,0,6,0,7,,,,,,,,,,,1711.8711,1712.3716,1712.62,1714.943,space,2.3106,,1714.9431,63,52,1715.9474,1715.9475,1715.9658,,,,0,7,7,7,1,175,60,,,,,,,,
,,648c128c45f7574370ae1d65,65af563b258f4c49e4087ac6,2024-01-23_19h03.27.650,bars,2023.2.3,MacIntel,59.88023952,657b66ea316d21385b68909f,,,,,,,,,,,1715.9662,1716.9676,,,1717.468,1717.7168,,118,118,,,,,,,,,,,,,,,,bars/025.png,bars/mask005.png,,,,,,,,,,,,1,1,,,,,,,2,8,2,8,,,,,,,,,,,1716.9677,1717.468,1717.7169,1724.2344,space,6.507,,1724.2344,13,78,1725.237,1725.237,1725.2543,,,,0,8,8,8,1,105,40,,,,,,,,
,,648c128c45f7574370ae1d65,65af563b258f4c49e4087ac6,2024-01-23_19h03.27.650,bars,2023.2.3,MacIntel,59.88023952,657b66ea316d21385b68909f,,,,,,,,,,,1725.2545,1726.259,,,1726.7578,1727.0112,,21,201,,,,,,,,,,,,,,,,bars/045.png,bars/mask007.png,,,,,,,,,,,,4,2,,,,,,,4,6,4,7,,,,,,,,,,,1726.2591,1726.7577,1727.0113,1731.8409,space,4.8119,,1731.8409,79,11,1732.8429,1732.8431,1732.8599,,,,0,9,9,9,1,100,10,,,,,,,,
,,648c128c45f7574370ae1d65,65af563b258f4c49e4087ac6,2024-01-23_19h03.27.650,bars,2023.2.3,MacIntel,59.88023952,657b66ea316d21385b68909f,,,,,,,,,,,1732.8604,1733.8614,,,1734.3629,1734.6136,,115,115,,,,,,,,,,,,,,,,bars/049.png,bars/mask008.png,,,,,,,,,,,,8,2,,,,,,,2,8,0,8,,,,,,,,,,,1733.8614,1734.3629,1734.6136,1740.6283,space,6.003,,1740.6283,45,0,1741.6308,1741.6309,1741.647,,,,0,10,10,10,1,160,115,,,,,,,,
,,648c128c45f7574370ae1d65,65af563b258f4c49e4087ac6,2024-01-23_19h03.27.650,bars,2023.2.3,MacIntel,59.88023952,657b66ea316d21385b68909f,,,,,,,,,,,1741.6472,1742.635,,,1743.1378,1743.3854,,5,5,,,,,,,,,,,,,,,,bars/048.png,bars/mask001.png,,,,,,,,,,,,5,2,,,,,,,4,10,4,8,,,,,,,,,,,1742.635,1743.1378,1743.3854,1751.6589,space,8.2626,,1751.6591,45,10,1752.6619,1752.6619,1752.6774,,,,0,11,11,11,1,50,175,,,,,,,,
,,648c128c45f7574370ae1d65,65af563b258f4c49e4087ac6,2024-01-23_19h03.27.650,bars,2023.2.3,MacIntel,59.88023952,657b66ea316d21385b68909f,,,,,,,,,,,1752.6776,1753.679,,,1754.1836,1754.4345,,105,105,,,,,,,,,,,,,,,,bars/006.png,bars/mask009.png,,,,,,,,,,,,8,2,,,,,,,2,8,3,10,,,,,,,,,,,1753.679,1754.1836,1754.4346,1760.4342,space,5.9889,,1760.4343,70,5,1761.4352,1761.4353,1761.4509,,,,0,12,12,12,1,35,100,,,,,,,,
,,648c128c45f7574370ae1d65,65af563b258f4c49e4087ac6,2024-01-23_19h03.27.650,bars,2023.2.3,MacIntel,59.88023952,657b66ea316d21385b68909f,,,,,,,,,,,1761.4511,1762.4394,,,1762.9377,1763.1884,,44,44,,,,,,,,,,,,,,,,bars/035.png,bars/mask008.png,,,,,,,,,,,,4,2,,,,,,,0,10,0,9,,,,,,,,,,,1762.4394,1762.9377,1763.1884,1773.0475,space,9.8462,,1773.0475,49,16,1774.0507,1774.0507,1774.0668,,,,0,13,13,13,1,175,60,,,,,,,,
,,648c128c45f7574370ae1d65,65af563b258f4c49e4087ac6,2024-01-23_19h03.27.650,bars,2023.2.3,MacIntel,59.88023952,657b66ea316d21385b68909f,,,,,,,,,,,1774.067,1775.07,,,1775.5715,1775.8215,,172,-8,,,,,,,,,,,,,,,,bars/033.png,bars/mask003.png,,,,,,,,,,,,4,2,,,,,,,2,10,1,10,,,,,,,,,,,1775.0701,1775.5713,1775.8216,1782.0054,space,6.1757,,1782.0055,33,17,1783.0104,1783.0106,1783.0254,,,,0,14,14,14,1,25,155,,,,,,,,
,,648c128c45f7574370ae1d65,65af563b258f4c49e4087ac6,2024-01-23_19h03.27.650,bars,2023.2.3,MacIntel,59.88023952,657b66ea316d21385b68909f,,,,,,,,,,,1783.0258,1784.0274,,,1784.5301,1784.7789,,117,117,,,,,,,,,,,,,,,,bars/028.png,bars/mask002.png,,,,,,,,,,,,5,2,,,,,,,0,8,0,6,,,,,,,,,,,1784.0274,1784.53,1784.7789,1788.6737,space,3.8876,,1788.6738,72,3,1789.6786,1789.6786,1789.693,,,,0,15,15,15,1,45,120,,,,,,,,
,,648c128c45f7574370ae1d65,65af563b258f4c49e4087ac6,2024-01-23_19h03.27.650,bars,2023.2.3,MacIntel,59.88023952,657b66ea316d21385b68909f,,,,,,,,,,,1789.6933,1790.6813,,,1791.1798,1791.4331,,70,70,,,,,,,,,,,,,,,,bars/025.png,bars/mask001.png,,,,,,,,,,,,0,2,,,,,,,0,6,1,5,,,,,,,,,,,1790.6813,1791.1798,1791.4331,1797.1625,space,5.7162,,1797.1625,35,30,1798.1646,1798.1647,1798.1801,,,,0,16,16,16,1,105,40,,,,,,,,
,,648c128c45f7574370ae1d65,65af563b258f4c49e4087ac6,2024-01-23_19h03.27.650,bars,2023.2.3,MacIntel,59.88023952,657b66ea316d21385b68909f,,,,,,,,,,,1798.1803,1799.1845,,,1799.6859,1799.9365,,159,159,,,,,,,,,,,,,,,,bars/039.png,bars/mask005.png,,,,,,,,,,,,0,1,,,,,,,0,8,0,8,,,,,,,,,,,1799.1845,1799.6859,1799.9365,1800.9736,space,1.0297,,1800.9736,16,54,1801.9752,1801.9752,1801.9795,,,,0,17,17,17,1,175,105,,,,,,,,
,,648c128c45f7574370ae1d65,65af563b258f4c49e4087ac6,2024-01-23_19h03.27.650,bars,2023.2.3,MacIntel,59.88023952,657b66ea316d21385b68909f,,,,,,,,,,,1801.9809,1802.9796,,,1803.4788,1803.7313,,93,93,,,,,,,,,,,,,,,,bars/026.png,bars/mask007.png,,,,,,,,,,,,7,2,,,,,,,0,10,0,10,,,,,,,,,,,1802.9796,1803.4788,1803.7313,1806.9053,space,3.1631,,1806.9053,58,8,1807.9074,1807.9074,1807.924,,,,0,18,18,18,1,35,85,,,,,,,,
,,648c128c45f7574370ae1d65,65af563b258f4c49e4087ac6,2024-01-23_19h03.27.650,bars,2023.2.3,MacIntel,59.88023952,657b66ea316d21385b68909f,,,,,,,,,,,1807.9242,1808.9296,,,1809.4297,1809.6786,,175,-5,,,,,,,,,,,,,,,,bars/033.png,bars/mask007.png,,,,,,,,,,,,3,2,,,,,,,2,8,2,9,,,,,,,,,,,1808.9297,1809.4296,1809.6786,1820.3912,space,10.6986,,1820.3912,30,20,1821.3801,1821.3801,1821.3951,,,,0,19,19,19,1,25,155,,,,,,,,
,,648c128c45f7574370ae1d65,65af563b258f4c49e4087ac6,2024-01-23_19h03.27.650,bars,2023.2.3,MacIntel,59.88023952,657b66ea316d21385b68909f,,,,,,,,,,,1821.3959,1822.3994,,,1822.8976,1823.1504,,50,50,,,,,,,,,,,,,,,,bars/027.png,bars/mask003.png,,,,,,,,,,,,7,2,,,,,,,4,6,4,7,,,,,,,,,,,1822.3994,1822.8976,1823.1504,1826.6749,space,3.5199,,1826.675,60,0,1827.6636,1827.6637,1827.6782,,,,0,20,20,20,1,110,50,,,,,,,,
,,648c128c45f7574370ae1d65,65af563b258f4c49e4087ac6,2024-01-23_19h03.27.650,bars,2023.2.3,MacIntel,59.88023952,657b66ea316d21385b68909f,,,,,,,,,,,1827.6785,1828.6802,,,1829.1814,1829.4351,,166,-14,,,,,,,,,,,,,,,,bars/020.png,bars/mask007.png,,,,,,,,,,,,6,2,,,,,,,6,8,7,7,,,,,,,,,,,1828.6802,1829.1813,1829.4351,1836.0838,space,6.6391,,1836.0838,51,4,1837.0858,1837.0859,1837.1019,,,,0,21,21,21,1,115,170,,,,,,,,
,,648c128c45f7574370ae1d65,65af563b258f4c49e4087ac6,2024-01-23_19h03.27.650,bars,2023.2.3,MacIntel,59.88023952,657b66ea316d21385b68909f,,,,,,,,,,,1837.1022,1838.0904,,,1838.5894,1838.8399,,130,130,,,,,,,,,,,,,,,,bars/016.png,bars/mask006.png,,,,,,,,,,,,0,2,,,,,,,4,10,5,10,,,,,,,,,,,1838.0904,1838.5894,1838.84,1847.0825,space,8.2251,,1847.0826,90,35,1848.0823,1848.0823,1848.098,,,,0,22,22,22,1,40,165,,,,,,,,
,,648c128c45f7574370ae1d65,65af563b258f4c49e4087ac6,2024-01-23_19h03.27.650,bars,2023.2.3,MacIntel,59.88023952,657b66ea316d21385b68909f,,,,,,,,,,,1848.0981,1849.0874,,,1849.5859,1849.837,,70,70,,,,,,,,,,,,,,,,bars/004.png,bars/mask006.png,,,,,,,,,,,,0,1,,,,,,,6,8,7,9,,,,,,,,,,,1849.0874,1849.5859,1849.837,1852.3291,space,2.4765,,1852.3294,45,55,1853.3319,1853.3321,1853.3481,,,,0,23,23,23,1,25,125,,,,,,,,
,,648c128c45f7574370ae1d65,65af563b258f4c49e4087ac6,2024-01-23_19h03.27.650,bars,2023.2.3,MacIntel,59.88023952,657b66ea316d21385b68909f,,,,,,,,,,,1853.3485,1854.3488,,,1854.8503,1855.1013,,145,-35,,,,,,,,,,,,,,,,bars/033.png,bars/mask008.png,,,,,,,,,,,,7,2,,,,,,,8,10,9,10,,,,,,,,,,,1854.349,1854.8503,1855.1014,1860.348,space,5.2339,,1860.3481,60,10,1861.3533,1861.3533,1861.3693,,,,0,24,24,24,1,25,155,,,,,,,,
,,648c128c45f7574370ae1d65,65af563b258f4c49e4087ac6,2024-01-23_19h03.27.650,bars,2023.2.3,MacIntel,59.88023952,657b66ea316d21385b68909f,,,,,,,,,,,1861.3696,1862.3704,,,1862.8723,1863.1223,,58,58,,,,,,,,,,,,,,,,bars/034.png,bars/mask004.png,,,,,,,,,,,,7,2,,,,,,,10,8,10,9,,,,,,,,,,,1862.3704,1862.8723,1863.1223,1865.562,space,2.4243,,1865.562,67,7,1866.5505,1866.5505,1866.5651,,,,0,25,25,25,1,125,65,,,,,,,,
,,648c128c45f7574370ae1d65,65af563b258f4c49e4087ac6,2024-01-23_19h03.27.650,bars,2023.2.3,MacIntel,59.88023952,657b66ea316d21385b68909f,,,,,,,,,,,1866.5654,1867.5535,,,1868.0523,1868.3025,,128,-52,,,,,,,,,,,,,,,,bars/049.png,bars/mask007.png,,,,,,,,,,,,6,2,,,,,,,10,10,10,10,,,,,,,,,,,1867.5535,1868.0523,1868.3026,1875.505,space,7.1887,,1875.5051,32,13,1876.5072,1876.5072,1876.5228,,,,0,26,26,26,1,160,115,,,,,,,,
,,648c128c45f7574370ae1d65,65af563b258f4c49e4087ac6,2024-01-23_19h03.27.650,bars,2023.2.3,MacIntel,59.88023952,657b66ea316d21385b68909f,,,,,,,,,,,1876.5229,1877.5135,,,1878.0122,1878.2654,,50,50,,,,,,,,,,,,,,,,bars/030.png,bars/mask002.png,,,,,,,,,,,,5,2,,,,,,,8,10,7,10,,,,,,,,,,,1877.5137,1878.0122,1878.2655,1882.4601,space,4.1799,,1882.4602,90,15,1883.4478,1883.4478,1883.4579,,,,0,27,27,27,1,140,65,,,,,,,,
,,648c128c45f7574370ae1d65,65af563b258f4c49e4087ac6,2024-01-23_19h03.27.650,bars,2023.2.3,MacIntel,59.88023952,657b66ea316d21385b68909f,,,,,,,,,,,1883.4583,1884.4485,,,1884.9479,1885.1983,,43,43,,,,,,,,,,,,,,,,bars/025.png,bars/mask003.png,,,,,,,,,,,,6,2,,,,,,,10,8,10,7,,,,,,,,,,,1884.4485,1884.9479,1885.1984,1894.9737,space,9.7632,,1894.9737,62,3,1895.9626,1895.9627,1895.9782,,,,0,28,28,28,1,105,40,,,,,,,,
,,648c128c45f7574370ae1d65,65af563b258f4c49e4087ac6,2024-01-23_19h03.27.650,bars,2023.2.3,MacIntel,59.88023952,657b66ea316d21385b68909f,,,,,,,,,,,1895.9785,1896.9795,,,1897.4811,1897.7341,,137,137,,,,,,,,,,,,,,,,bars/043.png,bars/mask008.png,,,,,,,,,,,,4,2,,,,,,,10,6,10,5,,,,,,,,,,,1896.9795,1897.481,1897.7341,1905.6195,space,7.8712,,1905.6195,73,7,1906.6078,1906.6078,1906.6224,,,,0,29,29,29,1,30,130,,,,,,,,
,,648c128c45f7574370ae1d65,65af563b258f4c49e4087ac6,2024-01-23_19h03.27.650,bars,2023.2.3,MacIntel,59.88023952,657b66ea316d21385b68909f,,,,,,,,,,,1906.6228,1907.6104,,,1908.11,1908.3601,,114,114,,,,,,,,,,,,,,,,bars/043.png,bars/mask009.png,,,,,,,,,,,,4,2,,,,,,,8,8,7,8,,,,,,,,,,,1907.6105,1908.11,1908.3601,1917.5848,space,9.2121,,1917.5848,84,16,1918.5867,1918.5867,1918.6025,,,,0,30,30,30,1,30,130,,,,,,,,
,,648c128c45f7574370ae1d65,65af563b258f4c49e4087ac6,2024-01-23_19h03.27.650,bars,2023.2.3,MacIntel,59.88023952,657b66ea316d21385b68909f,,,,,,,,,,,1918.6027,1919.5925,,,1920.0913,1920.342,,85,85,,,,,,,,,,,,,,,,bars/034.png,bars/mask008.png,,,,,,,,,,,,3,2,,,,,,,6,10,5,10,,,,,,,,,,,1919.5925,1920.0912,1920.342,1926.2944,space,5.9303,,1926.2945,40,20,1927.294,1927.294,1927.3104,,,,0,31,31,31,1,125,65,,,,,,,,
,,648c128c45f7574370ae1d65,65af563b258f4c49e4087ac6,2024-01-23_19h03.27.650,bars,2023.2.3,MacIntel,59.88023952,657b66ea316d21385b68909f,,,,,,,,,,,1927.3107,1928.2993,,,1928.8004,1929.0478,,43,43,,,,,,,,,,,,,,,,bars/025.png,bars/mask006.png,,,,,,,,,,,,9,2,,,,,,,4,10,4,10,,,,,,,,,,,1928.2994,1928.8004,1929.0478,1931.2726,space,2.2096,,1931.2726,62,3,1932.2738,1932.2739,1932.2891,,,,0,32,32,32,1,105,40,,,,,,,,
,,648c128c45f7574370ae1d65,65af563b258f4c49e4087ac6,2024-01-23_19h03.27.650,bars,2023.2.3,MacIntel,59.88023952,657b66ea316d21385b68909f,,,,,,,,,,,1932.2894,1933.2958,,,1933.797,1934.0466,,68,68,,,,,,,,,,,,,,,,bars/042.png,bars/mask009.png,,,,,,,,,,,,8,2,,,,,,,6,10,5,10,,,,,,,,,,,1933.2959,1933.7968,1934.0466,1942.7348,space,8.676,,1942.7349,77,7,1943.7236,1943.7236,1943.7384,,,,0,33,33,33,1,145,75,,,,,,,,
,,648c128c45f7574370ae1d65,65af563b258f4c49e4087ac6,2024-01-23_19h03.27.650,bars,2023.2.3,MacIntel,59.88023952,657b66ea316d21385b68909f,,,,,,,,,,,1943.7388,1944.7264,,,1945.2252,1945.4774,,160,-20,,,,,,,,,,,,,,,,bars/048.png,bars/mask009.png,,,,,,,,,,,,5,2,,,,,,,4,10,3,10,,,,,,,,,,,1944.7264,1945.2251,1945.4774,1949.0179,space,3.5234,,1949.0181,70,15,1950.0069,1950.007,1950.0213,,,,0,34,34,34,1,50,175,,,,,,,,
,,648c128c45f7574370ae1d65,65af563b258f4c49e4087ac6,2024-01-23_19h03.27.650,bars,2023.2.3,MacIntel,59.88023952,657b66ea316d21385b68909f,,,,,,,,,,,1950.0217,1951.0263,,,1951.5249,1951.7755,,58,58,,,,,,,,,,,,,,,,bars/017.png,bars/mask004.png,,,,,,,,,,,,4,2,,,,,,,6,8,6,7,,,,,,,,,,,1951.0263,1951.5249,1951.7759,1956.7252,space,4.9312,,1956.7252,87,13,1957.7275,1957.7276,1957.742,,,,0,35,35,35,1,145,45,,,,,,,,
,,648c128c45f7574370ae1d65,65af563b258f4c49e4087ac6,2024-01-23_19h03.27.650,bars,2023.2.3,MacIntel,59.88023952,657b66ea316d21385b68909f,,,,,,,,,,,1957.7425,1958.7445,,,1959.2455,1959.4988,,86,86,,,,,,,,,,,,,,,,bars/019.png,bars/mask002.png,,,,,,,,,,,,4,2,,,,,,,8,10,9,10,,,,,,,,,,,1958.7445,1959.2455,1959.4989,1966.4653,space,6.9529,,1966.4654,41,19,1967.4707,1967.4707,1967.4854,,,,0,36,36,36,1,45,105,,,,,,,,
,,648c128c45f7574370ae1d65,65af563b258f4c49e4087ac6,2024-01-23_19h03.27.650,bars,2023.2.3,MacIntel,59.88023952,657b66ea316d21385b68909f,,,,,,,,,,,1967.4861,1968.4867,,,1968.9913,1969.2393,,142,142,,,,,,,,,,,,,,,,bars/044.png,bars/mask001.png,,,,,,,,,,,,5,2,,,,,,,10,8,10,9,,,,,,,,,,,1968.4867,1968.9913,1969.2393,1973.5533,space,4.2947,,1973.5533,67,13,1974.5559,1974.556,1974.57,,,,0,37,37,37,1,75,155,,,,,,,,
,,648c128c45f7574370ae1d65,65af563b258f4c49e4087ac6,2024-01-23_19h03.27.650,bars,2023.2.3,MacIntel,59.88023952,657b66ea316d21385b68909f,,,,,,,,,,,1974.5704,1975.5587,,,1976.0574,1976.3079,,15,195,,,,,,,,,,,,,,,,bars/012.png,bars/mask001.png,,,,,,,,,,,,10,2,,,,,,,8,10,7,10,,,,,,,,,,,1975.5588,1976.0574,1976.3079,1983.3771,space,7.0542,,1983.3771,75,0,1984.3824,1984.3824,1984.3976,,,,0,38,38,38,1,90,15,,,,,,,,
,,648c128c45f7574370ae1d65,65af563b258f4c49e4087ac6,2024-01-23_19h03.27.650,bars,2023.2.3,MacIntel,59.88023952,657b66ea316d21385b68909f,,,,,,,,,,,1984.3979,1985.4016,,,1985.9003,1986.1521,,90,90,,,,,,,,,,,,,,,,bars/041.png,bars/mask000.png,,,,,,,,,,,,8,2,,,,,,,6,10,5,10,,,,,,,,,,,1985.4017,1985.9003,1986.1521,1990.1466,space,3.9783,,1990.1466,70,5,1991.1502,1991.1503,1991.1653,,,,0,39,39,39,1,20,85,,,,,,,,
,,648c128c45f7574370ae1d65,65af563b258f4c49e4087ac6,2024-01-23_19h03.27.650,bars,2023.2.3,MacIntel,59.88023952,657b66ea316d21385b68909f,,,,,,,,,,,1991.1656,1992.1666,,,1992.6685,1992.9183,,17,17,,,,,,,,,,,,,,,,bars/036.png,bars/mask000.png,,,,,,,,,,,,9,2,,,,,,,4,10,2,10,,,,,,,,,,,1992.1667,1992.6685,1992.9183,1993.8224,space,0.8861,,1993.8224,52,3,1994.8101,1994.8101,1994.8118,,,,0,40,40,40,1,145,20,,,,,,,,
,,648c128c45f7574370ae1d65,65af563b258f4c49e4087ac6,2024-01-23_19h03.27.650,bars,2023.2.3,MacIntel,59.88023952,657b66ea316d21385b68909f,,,,,,,,,,,1994.8121,1995.8117,,,1996.3111,1996.5646,,158,-22,,,,,,,,,,,,,,,,bars/016.png,bars/mask006.png,,,,,,,,,,,,8,2,,,,,,,6,10,5,10,,,,,,,,,,,1995.8123,1996.311,1996.5646,2000.4911,space,3.9161,,2000.4915,62,7,2001.492,2001.492,2001.5071,,,,0,41,41,41,1,40,165,,,,,,,,
,,648c128c45f7574370ae1d65,65af563b258f4c49e4087ac6,2024-01-23_19h03.27.650,bars,2023.2.3,MacIntel,59.88023952,657b66ea316d21385b68909f,,,,,,,,,,,2001.5073,2002.5108,,,2003.0153,2003.2654,,8,188,,,,,,,,,,,,,,,,bars/048.png,bars/mask000.png,,,,,,,,,,,,6,2,,,,,,,4,10,4,10,,,,,,,,,,,2002.5109,2003.0153,2003.2655,2005.8899,space,2.6052,,2005.8899,42,13,2006.8921,2006.8922,2006.9065,,,,0,42,42,42,1,50,175,,,,,,,,
,,648c128c45f7574370ae1d65,65af563b258f4c49e4087ac6,2024-01-23_19h03.27.650,bars,2023.2.3,MacIntel,59.88023952,657b66ea316d21385b68909f,,,,,,,,,,,2006.9068,2007.8969,,,2008.3963,2008.6469,,52,52,,,,,,,,,,,,,,,,bars/035.png,bars/mask000.png,,,,,,,,,,,,7,2,,,,,,,2,10,1,9,,,,,,,,,,,2007.897,2008.3962,2008.6469,2012.2208,space,3.5597,,2012.2209,57,8,2013.209,2013.2091,2013.2232,,,,0,43,43,43,1,175,60,,,,,,,,
,,648c128c45f7574370ae1d65,65af563b258f4c49e4087ac6,2024-01-23_19h03.27.650,bars,2023.2.3,MacIntel,59.88023952,657b66ea316d21385b68909f,,,,,,,,,,,2013.2233,2014.2285,,,2014.7274,2014.9803,,136,136,,,,,,,,,,,,,,,,bars/004.png,bars/mask005.png,,,,,,,,,,,,4,2,,,,,,,0,8,0,6,,,,,,,,,,,2014.2286,2014.7274,2014.9803,2017.652,space,2.6553,,2017.652,69,11,2018.654,2018.6541,2018.6699,,,,0,44,44,44,1,25,125,,,,,,,,
,,648c128c45f7574370ae1d65,65af563b258f4c49e4087ac6,2024-01-23_19h03.27.650,bars,2023.2.3,MacIntel,59.88023952,657b66ea316d21385b68909f,,,,,,,,,,,2018.6702,2019.6585,,,2020.1586,2020.4117,,18,18,,,,,,,,,,,,,,,,bars/032.png,bars/mask005.png,,,,,,,,,,,,9,2,,,,,,,0,10,1,10,,,,,,,,,,,2019.6585,2020.1586,2020.4119,2021.4324,space,1.004,,2021.4326,73,2,2022.4338,2022.4338,2022.4355,,,,0,45,45,45,1,125,20,,,,,,,,
,,648c128c45f7574370ae1d65,65af563b258f4c49e4087ac6,2024-01-23_19h03.27.650,bars,2023.2.3,MacIntel,59.88023952,657b66ea316d21385b68909f,,,,,,,,,,,2022.4358,2023.4363,,,2023.9377,2024.1862,,133,-47,,,,,,,,,,,,,,,,bars/004.png,bars/mask005.png,,,,,,,,,,,,7,2,,,,,,,2,10,2,10,,,,,,,,,,,2023.4364,2023.9375,2024.1863,2031.0403,space,6.8345,,2031.0403,72,8,2032.0396,2032.0396,2032.0554,,,,0,46,46,46,1,25,125,,,,,,,,
,,648c128c45f7574370ae1d65,65af563b258f4c49e4087ac6,2024-01-23_19h03.27.650,bars,2023.2.3,MacIntel,59.88023952,657b66ea316d21385b68909f,,,,,,,,,,,2032.0556,2033.0455,,,2033.5453,2033.7976,,65,65,,,,,,,,,,,,,,,,bars/027.png,bars/mask002.png,,,,,,,,,,,,5,2,,,,,,,0,10,1,10,,,,,,,,,,,2033.0456,2033.5453,2033.7976,2040.2322,space,6.4181,,2040.2324,45,15,2041.2338,2041.2339,2041.2486,,,,0,47,47,47,1,110,50,,,,,,,,
,,648c128c45f7574370ae1d65,65af563b258f4c49e4087ac6,2024-01-23_19h03.27.650,bars,2023.2.3,MacIntel,59.88023952,657b66ea316d21385b68909f,,,,,,,,,,,2041.2492,2042.2518,,,2042.7522,2043.0054,,135,-45,,,,,,,,,,,,,,,,bars/044.png,bars/mask003.png,,,,,,,,,,,,3,2,,,,,,,2,10,2,10,,,,,,,,,,,2042.2518,2042.7521,2043.0055,2049.1197,space,6.0998,,2049.1197,60,20,2050.1228,2050.1229,2050.1386,,,,0,48,48,48,1,75,155,,,,,,,,
,,648c128c45f7574370ae1d65,65af563b258f4c49e4087ac6,2024-01-23_19h03.27.650,bars,2023.2.3,MacIntel,59.88023952,657b66ea316d21385b68909f,,,,,,,,,,,2050.1388,2051.1271,,,2051.6285,2051.8791,,57,57,,,,,,,,,,,,,,,,bars/045.png,bars/mask008.png,,,,,,,,,,,,0,1,,,,,,,0,10,0,8,,,,,,,,,,,2051.1272,2051.6284,2051.8791,2059.0808,space,7.1867,,2059.0809,43,47,2060.0818,2060.0819,2060.0993,,,,0,49,49,49,1,100,10,,,,,,,,
,,648c128c45f7574370ae1d65,65af563b258f4c49e4087ac6,2024-01-23_19h03.27.650,bars,2023.2.3,MacIntel,59.88023952,657b66ea316d21385b68909f,,,,,,,,,,,,,,,,,,,,,,,,,,,,,,,,,,,,,,,,,,,,,,,,,,,,,,,,,,,,,,,,,,,,,,,,,,,,,,,,,,,,,,,,,,,,,2060.1,2120.0922,0,2,2,1,1,sequence_tables/blk031.csv
,,648c128c45f7574370ae1d65,65af563b258f4c49e4087ac6,2024-01-23_19h03.27.650,bars,2023.2.3,MacIntel,59.88023952,657b66ea316d21385b68909f,,,,,,,,,,,2154.6536,2155.6565,,,2156.1406,2156.3891,,80,80,,,,,,,,,,,,,,,,bars/002.png,bars/mask008.png,,,,,,,,,,,,0,2,,,,,,,4,1,3,0,,,,,,2120.1074,2154.6368,space,34.512,,2155.657,2156.1401,2156.3892,2158.9669,space,2.56,,2158.9669,50,5,2159.9655,2159.9657,2159.9828,,,,0,0,0,0,1,130,85,,,,,,,,
,,648c128c45f7574370ae1d65,65af563b258f4c49e4087ac6,2024-01-23_19h03.27.650,bars,2023.2.3,MacIntel,59.88023952,657b66ea316d21385b68909f,,,,,,,,,,,2159.9834,2160.9879,,,2161.486,2161.736,,69,69,,,,,,,,,,,,,,,,bars/034.png,bars/mask002.png,,,,,,,,,,,,0,2,,,,,,,6,0,5,0,,,,,,,,,,,2160.9879,2161.486,2161.736,2169.9283,space,8.1818,,2169.9285,56,4,2170.9302,2170.9302,2170.9451,,,,0,1,1,1,1,125,65,,,,,,,,
,,648c128c45f7574370ae1d65,65af563b258f4c49e4087ac6,2024-01-23_19h03.27.650,bars,2023.2.3,MacIntel,59.88023952,657b66ea316d21385b68909f,,,,,,,,,,,2170.9455,2171.9472,,,2172.4513,2172.6993,,33,33,,,,,,,,,,,,,,,,bars/007.png,bars/mask004.png,,,,,,,,,,,,1,2,,,,,,,4,0,4,3,,,,,,,,,,,2171.9472,2172.4513,2172.6993,2177.5456,space,4.8313,,2177.5456,38,22,2178.5481,2178.5482,2178.5634,,,,0,2,2,2,1,175,55,,,,,,,,
,,648c128c45f7574370ae1d65,65af563b258f4c49e4087ac6,2024-01-23_19h03.27.650,bars,2023.2.3,MacIntel,59.88023952,657b66ea316d21385b68909f,,,,,,,,,,,2178.5638,2179.5688,,,2180.0714,2180.3195,,63,63,,,,,,,,,,,,,,,,bars/030.png,bars/mask009.png,,,,,,,,,,,,1,2,,,,,,,2,2,3,1,,,,,,,,,,,2179.569,2180.0713,2180.3196,2188.1436,space,7.8063,,2188.1437,77,2,2189.1423,2189.1423,2189.1583,,,,0,3,3,3,1,140,65,,,,,,,,
,,648c128c45f7574370ae1d65,65af563b258f4c49e4087ac6,2024-01-23_19h03.27.650,bars,2023.2.3,MacIntel,59.88023952,657b66ea316d21385b68909f,,,,,,,,,,,2189.1589,2190.1651,,,2190.6639,2190.9172,,122,122,,,,,,,,,,,,,,,,bars/028.png,bars/mask006.png,,,,,,,,,,,,4,2,,,,,,,4,4,4,4,,,,,,,,,,,2190.1651,2190.6639,2190.9172,2195.4937,space,4.5639,,2195.4937,77,2,2196.4986,2196.4988,2196.5128,,,,0,4,4,4,1,45,120,,,,,,,,
,,648c128c45f7574370ae1d65,65af563b258f4c49e4087ac6,2024-01-23_19h03.27.650,bars,2023.2.3,MacIntel,59.88023952,657b66ea316d21385b68909f,,,,,,,,,,,2196.513,2197.5151,,,2198.017,2198.2665,,109,109,,,,,,,,,,,,,,,,bars/009.png,bars/mask004.png,,,,,,,,,,,,5,2,,,,,,,2,6,2,6,,,,,,,,,,,2197.5151,2198.017,2198.2665,2203.6309,space,5.3556,,2203.6311,86,4,2204.6345,2204.6346,2204.6503,,,,0,5,5,5,1,15,105,,,,,,,,
,,648c128c45f7574370ae1d65,65af563b258f4c49e4087ac6,2024-01-23_19h03.27.650,bars,2023.2.3,MacIntel,59.88023952,657b66ea316d21385b68909f,,,,,,,,,,,2204.6505,2205.6385,,,2206.1409,2206.3892,,112,112,,,,,,,,,,,,,,,,bars/009.png,bars/mask009.png,,,,,,,,,,,,3,2,,,,,,,4,4,5,4,,,,,,,,,,,2205.6385,2206.1409,2206.3894,2213.5438,space,7.1367,,2213.5441,83,7,2214.5452,2214.5453,2214.5574,,,,0,6,6,6,1,15,105,,,,,,,,
,,648c128c45f7574370ae1d65,65af563b258f4c49e4087ac6,2024-01-23_19h03.27.650,bars,2023.2.3,MacIntel,59.88023952,657b66ea316d21385b68909f,,,,,,,,,,,2214.5577,2215.5479,,,2216.0508,2216.3012,,170,-10,,,,,,,,,,,,,,,,bars/016.png,bars/mask002.png,,,,,,,,,,,,4,2,,,,,,,2,6,1,5,,,,,,,,,,,2215.5479,2216.0508,2216.3016,2225.173,space,8.8586,,2225.173,50,5,2226.1769,2226.1769,2226.1948,,,,0,7,7,7,1,40,165,,,,,,,,
,,648c128c45f7574370ae1d65,65af563b258f4c49e4087ac6,2024-01-23_19h03.27.650,bars,2023.2.3,MacIntel,59.88023952,657b66ea316d21385b68909f,,,,,,,,,,,2226.1951,2227.1948,,,2227.6976,2227.9464,,99,99,,,,,,,,,,,,,,,,bars/002.png,bars/mask000.png,,,,,,,,,,,,3,2,,,,,,,0,4,0,5,,,,,,,,,,,2227.1948,2227.6975,2227.9464,2234.1495,space,6.1904,,2234.1495,31,14,2235.152,2235.152,2235.1673,,,,0,8,8,8,1,130,85,,,,,,,,
,,648c128c45f7574370ae1d65,65af563b258f4c49e4087ac6,2024-01-23_19h03.27.650,bars,2023.2.3,MacIntel,59.88023952,657b66ea316d21385b68909f,,,,,,,,,,,2235.1677,2236.1688,,,2236.67,2236.9217,,109,109,,,,,,,,,,,,,,,,bars/039.png,bars/mask009.png,,,,,,,,,,,,4,2,,,,,,,2,6,3,5,,,,,,,,,,,2236.1688,2236.67,2236.9217,2239.345,space,2.4049,,2239.345,66,4,2240.3467,2240.3467,2240.3622,,,,0,9,9,9,1,175,105,,,,,,,,
,,648c128c45f7574370ae1d65,65af563b258f4c49e4087ac6,2024-01-23_19h03.27.650,bars,2023.2.3,MacIntel,59.88023952,657b66ea316d21385b68909f,,,,,,,,,,,2240.3626,2241.3686,,,2241.8664,2242.1206,,170,-10,,,,,,,,,,,,,,,,bars/016.png,bars/mask008.png,,,,,,,,,,,,7,2,,,,,,,4,8,7,8,,,,,,,,,,,2241.3687,2241.8663,2242.1206,2245.8448,space,3.7157,,2245.8449,50,5,2246.8499,2246.8502,2246.8642,,,,0,10,10,10,1,40,165,,,,,,,,
,,648c128c45f7574370ae1d65,65af563b258f4c49e4087ac6,2024-01-23_19h03.27.650,bars,2023.2.3,MacIntel,59.88023952,657b66ea316d21385b68909f,,,,,,,,,,,2246.8644,2247.8694,,,2248.3699,2248.6188,,107,107,,,,,,,,,,,,,,,,bars/002.png,bars/mask001.png,,,,,,,,,,,,2,2,,,,,,,2,10,3,8,,,,,,,,,,,2247.8694,2248.3699,2248.6189,2251.9945,space,3.3583,,2251.9946,23,22,2252.983,2252.983,2252.9972,,,,0,11,11,11,1,130,85,,,,,,,,
,,648c128c45f7574370ae1d65,65af563b258f4c49e4087ac6,2024-01-23_19h03.27.650,bars,2023.2.3,MacIntel,59.88023952,657b66ea316d21385b68909f,,,,,,,,,,,2252.9983,2253.9997,,,2254.5023,2254.7518,,165,165,,,,,,,,,,,,,,,,bars/015.png,bars/mask006.png,,,,,,,,,,,,8,2,,,,,,,0,10,2,10,,,,,,,,,,,2253.9997,2254.5022,2254.7518,2257.0098,space,2.2426,,2257.0098,55,5,2258.0096,2258.0096,2258.025,,,,0,12,12,12,1,110,160,,,,,,,,
,,648c128c45f7574370ae1d65,65af563b258f4c49e4087ac6,2024-01-23_19h03.27.650,bars,2023.2.3,MacIntel,59.88023952,657b66ea316d21385b68909f,,,,,,,,,,,2258.0253,2259.0158,,,2259.5146,2259.7652,,123,123,,,,,,,,,,,,,,,,bars/019.png,bars/mask002.png,,,,,,,,,,,,3,2,,,,,,,2,8,2,8,,,,,,,,,,,2259.0158,2259.5146,2259.7652,2270.3618,space,10.5844,,2270.3619,78,18,2271.3622,2271.3623,2271.3786,,,,0,13,13,13,1,45,105,,,,,,,,
,,648c128c45f7574370ae1d65,65af563b258f4c49e4087ac6,2024-01-23_19h03.27.650,bars,2023.2.3,MacIntel,59.88023952,657b66ea316d21385b68909f,,,,,,,,,,,2271.3788,2272.3678,,,2272.8695,2273.1174,,157,157,,,,,,,,,,,,,,,,bars/020.png,bars/mask008.png,,,,,,,,,,,,3,2,,,,,,,4,6,5,5,,,,,,,,,,,2272.3678,2272.8694,2273.1175,2276.4457,space,3.3081,,2276.4457,42,13,2277.4451,2277.4452,2277.4608,,,,0,14,14,14,1,115,170,,,,,,,,
,,648c128c45f7574370ae1d65,65af563b258f4c49e4087ac6,2024-01-23_19h03.27.650,bars,2023.2.3,MacIntel,59.88023952,657b66ea316d21385b68909f,,,,,,,,,,,2277.4611,2278.4508,,,2278.9499,2279.2004,,66,66,,,,,,,,,,,,,,,,bars/001.png,bars/mask008.png,,,,,,,,,,,,3,2,,,,,,,6,8,5,8,,,,,,,,,,,2278.4508,2278.9499,2279.2005,2287.8426,space,8.6259,,2287.8428,64,19,2288.842,2288.8421,2288.8584,,,,0,15,15,15,1,130,85,,,,,,,,
,,648c128c45f7574370ae1d65,65af563b258f4c49e4087ac6,2024-01-23_19h03.27.650,bars,2023.2.3,MacIntel,59.88023952,657b66ea316d21385b68909f,,,,,,,,,,,2288.8591,2289.8646,,,2290.3626,2290.6135,,150,150,,,,,,,,,,,,,,,,bars/049.png,bars/mask001.png,,,,,,,,,,,,5,1,,,,,,,8,6,8,7,,,,,,,,,,,2289.8646,2290.3626,2290.6135,2295.3603,space,4.7334,,2295.3603,10,35,2296.365,2296.3651,2296.3768,,,,0,16,16,16,1,160,115,,,,,,,,
,,648c128c45f7574370ae1d65,65af563b258f4c49e4087ac6,2024-01-23_19h03.27.650,bars,2023.2.3,MacIntel,59.88023952,657b66ea316d21385b68909f,,,,,,,,,,,2296.3772,2297.3672,,,2297.8666,2298.1186,,117,-63,,,,,,,,,,,,,,,,bars/023.png,bars/mask002.png,,,,,,,,,,,,3,2,,,,,,,10,4,10,3,,,,,,,,,,,2297.3672,2297.8665,2298.1187,2305.5894,space,7.4572,,2305.5896,83,2,2306.5902,2306.5902,2306.6108,,,,0,17,17,17,1,20,115,,,,,,,,
,,648c128c45f7574370ae1d65,65af563b258f4c49e4087ac6,2024-01-23_19h03.27.650,bars,2023.2.3,MacIntel,59.88023952,657b66ea316d21385b68909f,,,,,,,,,,,2306.611,2307.6098,,,2308.1111,2308.3617,,162,162,,,,,,,,,,,,,,,,bars/044.png,bars/mask001.png,,,,,,,,,,,,2,2,,,,,,,10,2,10,2,,,,,,,,,,,2307.6098,2308.1111,2308.3617,2315.748,space,7.3707,,2315.7482,87,7,2316.7519,2316.7519,2316.7693,,,,0,18,18,18,1,75,155,,,,,,,,
,,648c128c45f7574370ae1d65,65af563b258f4c49e4087ac6,2024-01-23_19h03.27.650,bars,2023.2.3,MacIntel,59.88023952,657b66ea316d21385b68909f,,,,,,,,,,,2316.7697,2317.7716,,,2318.2739,2318.5246,,85,85,,,,,,,,,,,,,,,,bars/027.png,bars/mask005.png,,,,,,,,,,,,1,1,,,,,,,8,4,9,4,,,,,,,,,,,2317.7716,2318.2738,2318.5247,2326.2094,space,7.6718,,2326.2094,25,35,2327.1979,2327.198,2327.2149,,,,0,19,19,19,1,110,50,,,,,,,,
,,648c128c45f7574370ae1d65,65af563b258f4c49e4087ac6,2024-01-23_19h03.27.650,bars,2023.2.3,MacIntel,59.88023952,657b66ea316d21385b68909f,,,,,,,,,,,2327.2152,2328.2171,,,2328.7153,2328.97,,63,63,,,,,,,,,,,,,,,,bars/041.png,bars/mask001.png,,,,,,,,,,,,1,2,,,,,,,10,2,10,3,,,,,,,,,,,2328.2171,2328.7152,2328.9705,2330.9396,space,1.954,,2330.9398,43,22,2331.9434,2331.9435,2331.9591,,,,0,20,20,20,1,20,85,,,,,,,,
,,648c128c45f7574370ae1d65,65af563b258f4c49e4087ac6,2024-01-23_19h03.27.650,bars,2023.2.3,MacIntel,59.88023952,657b66ea316d21385b68909f,,,,,,,,,,,2331.9593,2332.9606,,,2333.4631,2333.7154,,131,131,,,,,,,,,,,,,,,,bars/017.png,bars/mask001.png,,,,,,,,,,,,5,1,,,,,,,10,0,9,0,,,,,,,,,,,2332.9606,2333.463,2333.7155,2338.709,space,4.9814,,2338.7091,14,86,2339.7145,2339.7145,2339.7311,,,,0,21,21,21,1,145,45,,,,,,,,
,,648c128c45f7574370ae1d65,65af563b258f4c49e4087ac6,2024-01-23_19h03.27.650,bars,2023.2.3,MacIntel,59.88023952,657b66ea316d21385b68909f,,,,,,,,,,,2339.7318,2340.7327,,,2341.2353,2341.4826,,48,48,,,,,,,,,,,,,,,,bars/043.png,bars/mask007.png,,,,,,,,,,,,3,1,,,,,,,8,0,7,0,,,,,,,,,,,2340.7331,2341.2353,2341.4826,2344.3747,space,2.8787,,2344.3747,18,82,2345.3797,2345.3798,2345.3945,,,,0,22,22,22,1,30,130,,,,,,,,
,,648c128c45f7574370ae1d65,65af563b258f4c49e4087ac6,2024-01-23_19h03.27.650,bars,2023.2.3,MacIntel,59.88023952,657b66ea316d21385b68909f,,,,,,,,,,,2345.3948,2346.3985,,,2346.8978,2347.1511,,58,58,,,,,,,,,,,,,,,,bars/012.png,bars/mask003.png,,,,,,,,,,,,0,1,,,,,,,6,0,4,0,,,,,,,,,,,2346.3987,2346.8978,2347.1511,2356.7586,space,9.5958,,2356.7586,32,43,2357.7603,2357.7603,2357.7761,,,,0,23,23,23,1,90,15,,,,,,,,
,,648c128c45f7574370ae1d65,65af563b258f4c49e4087ac6,2024-01-23_19h03.27.650,bars,2023.2.3,MacIntel,59.88023952,657b66ea316d21385b68909f,,,,,,,,,,,2357.7763,2358.7652,,,2359.2643,2359.515,,163,163,,,,,,,,,,,,,,,,bars/039.png,bars/mask004.png,,,,,,,,,,,,5,1,,,,,,,8,0,8,0,,,,,,,,,,,2358.7653,2359.2643,2359.515,2362.7771,space,3.2439,,2362.7772,12,58,2363.7763,2363.7764,2363.7918,,,,0,24,24,24,1,175,105,,,,,,,,
,,648c128c45f7574370ae1d65,65af563b258f4c49e4087ac6,2024-01-23_19h03.27.650,bars,2023.2.3,MacIntel,59.88023952,657b66ea316d21385b68909f,,,,,,,,,,,2363.7921,2364.7984,,,2365.2971,2365.5492,,104,104,,,,,,,,,,,,,,,,bars/032.png,bars/mask007.png,,,,,,,,,,,,2,1,,,,,,,6,0,5,0,,,,,,,,,,,2364.7984,2365.297,2365.5493,2368.6394,space,3.0798,,2368.6395,21,84,2369.6416,2369.6416,2369.6569,,,,0,25,25,25,1,125,20,,,,,,,,
,,648c128c45f7574370ae1d65,65af563b258f4c49e4087ac6,2024-01-23_19h03.27.650,bars,2023.2.3,MacIntel,59.88023952,657b66ea316d21385b68909f,,,,,,,,,,,2369.6571,2370.6459,,,2371.145,2371.3967,,149,149,,,,,,,,,,,,,,,,bars/008.png,bars/mask001.png,,,,,,,,,,,,0,2,,,,,,,8,2,7,4,,,,,,,,,,,2370.646,2371.1449,2371.3967,2374.2546,space,2.8481,,2374.2546,39,31,2375.2428,2375.2429,2375.2593,,,,0,26,26,26,1,110,0,,,,,,,,
,,648c128c45f7574370ae1d65,65af563b258f4c49e4087ac6,2024-01-23_19h03.27.650,bars,2023.2.3,MacIntel,59.88023952,657b66ea316d21385b68909f,,,,,,,,,,,2375.2596,2376.2616,,,2376.7637,2377.0144,,141,141,,,,,,,,,,,,,,,,bars/036.png,bars/mask002.png,,,,,,,,,,,,5,1,,,,,,,6,0,6,1,,,,,,,,,,,2376.2618,2376.7636,2377.0145,2385.9356,space,8.9096,,2385.9356,4,59,2386.9241,2386.9242,2386.9401,,,,0,27,27,27,1,145,20,,,,,,,,
,,648c128c45f7574370ae1d65,65af563b258f4c49e4087ac6,2024-01-23_19h03.27.650,bars,2023.2.3,MacIntel,59.88023952,657b66ea316d21385b68909f,,,,,,,,,,,2386.9404,2387.9408,,,2388.4447,2388.6926,,116,116,,,,,,,,,,,,,,,,bars/012.png,bars/mask003.png,,,,,,,,,,,,1,1,,,,,,,4,2,4,3,,,,,,,,,,,2387.9408,2388.4447,2388.6926,2392.7039,space,3.992,,2392.7039,26,79,2393.7081,2393.7082,2393.719,,,,0,28,28,28,1,90,15,,,,,,,,
,,648c128c45f7574370ae1d65,65af563b258f4c49e4087ac6,2024-01-23_19h03.27.650,bars,2023.2.3,MacIntel,59.88023952,657b66ea316d21385b68909f,,,,,,,,,,,2393.7192,2394.711,,,2395.2091,2395.4633,,147,147,,,,,,,,,,,,,,,,bars/040.png,bars/mask009.png,,,,,,,,,,,,2,1,,,,,,,2,0,2,0,,,,,,,,,,,2394.7111,2395.2091,2395.4633,2400.825,space,5.3478,,2400.825,7,38,2401.813,2401.813,2401.8275,,,,0,29,29,29,1,140,5,,,,,,,,
,,648c128c45f7574370ae1d65,65af563b258f4c49e4087ac6,2024-01-23_19h03.27.650,bars,2023.2.3,MacIntel,59.88023952,657b66ea316d21385b68909f,,,,,,,,,,,2401.8278,2402.8163,,,2403.3164,2403.5653,,94,94,,,,,,,,,,,,,,,,bars/047.png,bars/mask007.png,,,,,,,,,,,,0,2,,,,,,,4,0,4,0,,,,,,,,,,,2402.8163,2403.3163,2403.5654,2408.7494,space,5.1669,,2408.7495,79,24,2409.7491,2409.7491,2409.7656,,,,0,30,30,30,1,15,70,,,,,,,,
,,648c128c45f7574370ae1d65,65af563b258f4c49e4087ac6,2024-01-23_19h03.27.650,bars,2023.2.3,MacIntel,59.88023952,657b66ea316d21385b68909f,,,,,,,,,,,2409.7658,2410.769,,,2411.2719,2411.5228,,158,-22,,,,,,,,,,,,,,,,bars/035.png,bars/mask005.png,,,,,,,,,,,,0,1,,,,,,,2,0,0,0,,,,,,,,,,,2410.769,2411.2719,2411.5229,2419.7936,space,8.2616,,2419.7936,17,82,2420.7947,2420.7947,2420.8091,,,,0,31,31,31,1,175,60,,,,,,,,
,,648c128c45f7574370ae1d65,65af563b258f4c49e4087ac6,2024-01-23_19h03.27.650,bars,2023.2.3,MacIntel,59.88023952,657b66ea316d21385b68909f,,,,,,,,,,,2420.8092,2421.7973,,,2422.2982,2422.5493,,19,199,,,,,,,,,,,,,,,,bars/026.png,bars/mask009.png,,,,,,,,,,,,0,1,,,,,,,0,0,0,0,,,,,,,,,,,2421.7974,2422.298,2422.5494,2428.0308,space,5.4681,,2428.0308,16,66,2429.0331,2429.0331,2429.0453,,,,0,32,32,32,1,35,85,,,,,,,,
,,648c128c45f7574370ae1d65,65af563b258f4c49e4087ac6,2024-01-23_19h03.27.650,bars,2023.2.3,MacIntel,59.88023952,657b66ea316d21385b68909f,,,,,,,,,,,2429.0456,2430.0361,,,2430.5404,2430.788,,144,144,,,,,,,,,,,,,,,,bars/000.png,bars/mask004.png,,,,,,,,,,,,3,2,,,,,,,0,2,0,3,,,,,,,,,,,2430.0361,2430.5403,2430.7881,2433.7962,space,2.9949,,2433.7963,76,1,2434.7852,2434.7852,2434.8014,,,,0,33,33,33,1,40,145,,,,,,,,
,,648c128c45f7574370ae1d65,65af563b258f4c49e4087ac6,2024-01-23_19h03.27.650,bars,2023.2.3,MacIntel,59.88023952,657b66ea316d21385b68909f,,,,,,,,,,,2434.8017,2435.8008,,,2436.3028,2436.5534,,45,45,,,,,,,,,,,,,,,,bars/010.png,bars/mask003.png,,,,,,,,,,,,3,2,,,,,,,2,4,0,4,,,,,,,,,,,2435.8008,2436.3028,2436.5534,2438.7787,space,2.2143,,2438.7788,60,10,2439.778,2439.778,2439.7936,,,,0,34,34,34,1,165,55,,,,,,,,
,,648c128c45f7574370ae1d65,65af563b258f4c49e4087ac6,2024-01-23_19h03.27.650,bars,2023.2.3,MacIntel,59.88023952,657b66ea316d21385b68909f,,,,,,,,,,,2439.7938,2440.7981,,,2441.2994,2441.5499,,19,199,,,,,,,,,,,,,,,,bars/012.png,bars/mask003.png,,,,,,,,,,,,4,2,,,,,,,4,6,5,5,,,,,,,,,,,2440.7981,2441.2994,2441.55,2448.4353,space,6.875,,2448.4355,71,4,2449.4389,2449.439,2449.4513,,,,0,35,35,35,1,90,15,,,,,,,,
,,648c128c45f7574370ae1d65,65af563b258f4c49e4087ac6,2024-01-23_19h03.27.650,bars,2023.2.3,MacIntel,59.88023952,657b66ea316d21385b68909f,,,,,,,,,,,2449.4516,2450.4406,,,2450.9432,2451.1919,,2,2,,,,,,,,,,,,,,,,bars/032.png,bars/mask003.png,,,,,,,,,,,,1,2,,,,,,,6,4,6,3,,,,,,,,,,,2450.4406,2450.9431,2451.192,2455.6212,space,4.4147,,2455.6212,57,18,2456.6094,2456.6095,2456.6242,,,,0,36,36,36,1,125,20,,,,,,,,
,,648c128c45f7574370ae1d65,65af563b258f4c49e4087ac6,2024-01-23_19h03.27.650,bars,2023.2.3,MacIntel,59.88023952,657b66ea316d21385b68909f,,,,,,,,,,,2456.6244,2457.6264,,,2458.1303,2458.3784,,109,109,,,,,,,,,,,,,,,,bars/023.png,bars/mask005.png,,,,,,,,,,,,5,2,,,,,,,4,6,4,6,,,,,,,,,,,2457.6265,2458.1303,2458.3784,2462.5897,space,4.2013,,2462.5897,89,6,2463.5955,2463.5955,2463.6106,,,,0,37,37,37,1,20,115,,,,,,,,
,,648c128c45f7574370ae1d65,65af563b258f4c49e4087ac6,2024-01-23_19h03.27.650,bars,2023.2.3,MacIntel,59.88023952,657b66ea316d21385b68909f,,,,,,,,,,,2463.6112,2464.6113,,,2465.1126,2465.3631,,34,214,,,,,,,,,,,,,,,,bars/025.png,bars/mask002.png,,,,,,,,,,,,6,2,,,,,,,2,8,2,8,,,,,,,,,,,2464.6113,2465.1125,2465.3631,2474.321,space,8.946,,2474.3211,71,6,2475.3265,2475.3266,2475.3414,,,,0,38,38,38,1,105,40,,,,,,,,
,,648c128c45f7574370ae1d65,65af563b258f4c49e4087ac6,2024-01-23_19h03.27.650,bars,2023.2.3,MacIntel,59.88023952,657b66ea316d21385b68909f,,,,,,,,,,,2475.3421,2476.3431,,,2476.8472,2477.0944,,144,144,,,,,,,,,,,,,,,,bars/049.png,bars/mask009.png,,,,,,,,,,,,2,1,,,,,,,4,10,4,10,,,,,,,,,,,2476.3431,2476.847,2477.0945,2481.2252,space,4.115,,2481.2252,16,29,2482.2268,2482.2268,2482.2442,,,,0,39,39,39,1,160,115,,,,,,,,
,,648c128c45f7574370ae1d65,65af563b258f4c49e4087ac6,2024-01-23_19h03.27.650,bars,2023.2.3,MacIntel,59.88023952,657b66ea316d21385b68909f,,,,,,,,,,,2482.2447,2483.2448,,,2483.7462,2483.9986,,54,54,,,,,,,,,,,,,,,,bars/047.png,bars/mask007.png,,,,,,,,,,,,4,2,,,,,,,2,8,3,8,,,,,,,,,,,2483.2448,2483.7462,2483.9986,2489.3112,space,5.3037,,2489.3113,39,16,2490.313,2490.313,2490.3301,,,,0,40,40,40,1,15,70,,,,,,,,
,,648c128c45f7574370ae1d65,65af563b258f4c49e4087ac6,2024-01-23_19h03.27.650,bars,2023.2.3,MacIntel,59.88023952,657b66ea316d21385b68909f,,,,,,,,,,,2490.3303,2491.3193,,,2491.8191,2492.0684,,167,-13,,,,,,,,,,,,,,,,bars/048.png,bars/mask005.png,,,,,,,,,,,,4,2,,,,,,,4,6,4,6,,,,,,,,,,,2491.3193,2491.819,2492.0684,2501.1929,space,9.1131,,2501.1929,63,8,2502.1955,2502.1955,2502.2119,,,,0,41,41,41,1,50,175,,,,,,,,
,,648c128c45f7574370ae1d65,65af563b258f4c49e4087ac6,2024-01-23_19h03.27.650,bars,2023.2.3,MacIntel,59.88023952,657b66ea316d21385b68909f,,,,,,,,,,,2502.2121,2503.2005,,,2503.7011,2503.9511,,156,-24,,,,,,,,,,,,,,,,bars/003.png,bars/mask008.png,,,,,,,,,,,,5,2,,,,,,,6,8,4,10,,,,,,,,,,,2503.2006,2503.7011,2503.9511,2508.6294,space,4.6649,,2508.6294,49,16,2509.6319,2509.632,2509.647,,,,0,42,42,42,1,25,140,,,,,,,,
,,648c128c45f7574370ae1d65,65af563b258f4c49e4087ac6,2024-01-23_19h03.27.650,bars,2023.2.3,MacIntel,59.88023952,657b66ea316d21385b68909f,,,,,,,,,,,2509.6471,2510.6362,,,2511.1379,2511.3881,,101,101,,,,,,,,,,,,,,,,bars/037.png,bars/mask004.png,,,,,,,,,,,,9,2,,,,,,,8,10,8,10,,,,,,,,,,,2510.6362,2511.1378,2511.3881,2517.0185,space,5.6179,,2517.0185,49,4,2518.0224,2518.0224,2518.0378,,,,0,43,43,43,1,150,105,,,,,,,,
,,648c128c45f7574370ae1d65,65af563b258f4c49e4087ac6,2024-01-23_19h03.27.650,bars,2023.2.3,MacIntel,59.88023952,657b66ea316d21385b68909f,,,,,,,,,,,2518.0379,2519.0255,,,2519.5251,2519.7757,,64,64,,,,,,,,,,,,,,,,bars/038.png,bars/mask000.png,,,,,,,,,,,,8,2,,,,,,,6,10,5,10,,,,,,,,,,,2519.0255,2519.525,2519.7757,2522.0162,space,2.2292,,2522.0162,79,6,2523.0177,2523.0178,2523.0331,,,,0,44,44,44,1,165,70,,,,,,,,
,,648c128c45f7574370ae1d65,65af563b258f4c49e4087ac6,2024-01-23_19h03.27.650,bars,2023.2.3,MacIntel,59.88023952,657b66ea316d21385b68909f,,,,,,,,,,,2523.0335,2524.04,,,2524.5395,2524.789,,94,94,,,,,,,,,,,,,,,,bars/041.png,bars/mask008.png,,,,,,,,,,,,7,2,,,,,,,4,10,4,10,,,,,,,,,,,2524.04,2524.5395,2524.7891,2529.953,space,5.1487,,2529.9531,74,9,2530.9579,2530.9579,2530.9731,,,,0,45,45,45,1,20,85,,,,,,,,
,,648c128c45f7574370ae1d65,65af563b258f4c49e4087ac6,2024-01-23_19h03.27.650,bars,2023.2.3,MacIntel,59.88023952,657b66ea316d21385b68909f,,,,,,,,,,,2530.9734,2531.9771,,,2532.4765,2532.73,,45,45,,,,,,,,,,,,,,,,bars/017.png,bars/mask001.png,,,,,,,,,,,,9,2,,,,,,,6,10,6,9,,,,,,,,,,,2531.9771,2532.4765,2532.73,2534.8155,space,2.0754,,2534.8155,80,0,2535.8209,2535.821,2535.8223,,,,0,46,46,46,1,145,45,,,,,,,,
,,648c128c45f7574370ae1d65,65af563b258f4c49e4087ac6,2024-01-23_19h03.27.650,bars,2023.2.3,MacIntel,59.88023952,657b66ea316d21385b68909f,,,,,,,,,,,2535.823,2536.8243,,,2537.3225,2537.5761,,122,122,,,,,,,,,,,,,,,,bars/004.png,bars/mask006.png,,,,,,,,,,,,7,2,,,,,,,4,8,2,8,,,,,,,,,,,2536.8243,2537.3225,2537.5762,2540.9322,space,3.348,,2540.9322,83,3,2541.9212,2541.9213,2541.9354,,,,0,47,47,47,1,25,125,,,,,,,,
,,648c128c45f7574370ae1d65,65af563b258f4c49e4087ac6,2024-01-23_19h03.27.650,bars,2023.2.3,MacIntel,59.88023952,657b66ea316d21385b68909f,,,,,,,,,,,2541.9355,2542.9238,,,2543.4237,2543.6729,,49,49,,,,,,,,,,,,,,,,bars/029.png,bars/mask002.png,,,,,,,,,,,,9,2,,,,,,,6,10,6,10,,,,,,,,,,,2542.9238,2543.4237,2543.6729,2546.3128,space,2.6292,,2546.3128,41,4,2547.3155,2547.3155,2547.3285,,,,0,48,48,48,1,90,45,,,,,,,,
,,648c128c45f7574370ae1d65,65af563b258f4c49e4087ac6,2024-01-23_19h03.27.650,bars,2023.2.3,MacIntel,59.88023952,657b66ea316d21385b68909f,,,,,,,,,,,2547.3288,2548.3212,,,2548.8225,2549.0721,,89,89,,,,,,,,,,,,,,,,bars/034.png,bars/mask001.png,,,,,,,,,,,,2,2,,,,,,,4,10,6,10,,,,,,,,,,,2548.3213,2548.8225,2549.0721,2558.1302,space,9.0469,,2558.1302,36,24,2559.1308,2559.1308,2559.1472,,,,0,49,49,49,1,125,65,,,,,,,,
,,648c128c45f7574370ae1d65,65af563b258f4c49e4087ac6,2024-01-23_19h03.27.650,bars,2023.2.3,MacIntel,59.88023952,657b66ea316d21385b68909f,,,,,,,,,,,,,,,,,,,,,,,,,,,,,,,,,,,,,,,,,,,,,,,,,,,,,,,,,,,,,,,,,,,,,,,,,,,,,,,,,,,,,,,,,,,,,2559.1473,2619.1411,0,3,3,0,1,sequence_tables/blk008.csv
,,648c128c45f7574370ae1d65,65af563b258f4c49e4087ac6,2024-01-23_19h03.27.650,bars,2023.2.3,MacIntel,59.88023952,657b66ea316d21385b68909f,,,,,,,,,,,2627.4952,2628.4851,,,2628.9859,2629.2348,,64,64,,,,,,,,,,,,,,,,bars/000.png,bars/mask001.png,,,,,,,,,,,,2,1,,,,,,,10,7,10,7,,,,,,2619.1568,2627.4814,space,8.311,,2628.4853,2628.9859,2629.235,2632.8133,space,3.565,,2632.8137,24,81,2633.8137,2633.8137,2633.8328,,,,0,0,0,0,1,40,145,,,,,,,,
,,648c128c45f7574370ae1d65,65af563b258f4c49e4087ac6,2024-01-23_19h03.27.650,bars,2023.2.3,MacIntel,59.88023952,657b66ea316d21385b68909f,,,,,,,,,,,2633.8331,2634.833,,,2635.336,2635.585,,66,66,,,,,,,,,,,,,,,,bars/047.png,bars/mask004.png,,,,,,,,,,,,7,2,,,,,,,8,9,8,8,,,,,,,,,,,2634.833,2635.3359,2635.5851,2636.6379,space,1.0398,,2636.6379,51,4,2637.6405,2637.6405,2637.6572,,,,0,1,1,1,1,15,70,,,,,,,,
,,648c128c45f7574370ae1d65,65af563b258f4c49e4087ac6,2024-01-23_19h03.27.650,bars,2023.2.3,MacIntel,59.88023952,657b66ea316d21385b68909f,,,,,,,,,,,2637.6574,2638.6599,,,2639.1478,2639.3953,,70,70,,,,,,,,,,,,,,,,bars/026.png,bars/mask008.png,,,,,,,,,,,,4,2,,,,,,,6,7,4,7,,,,,,,,,,,2638.6599,2639.1477,2639.3953,2645.6953,space,6.2889,,2645.6953,35,15,2646.6843,2646.6844,2646.6993,,,,0,2,2,2,1,35,85,,,,,,,,
,,648c128c45f7574370ae1d65,65af563b258f4c49e4087ac6,2024-01-23_19h03.27.650,bars,2023.2.3,MacIntel,59.88023952,657b66ea316d21385b68909f,,,,,,,,,,,2646.7001,2647.7001,,,2648.2048,2648.4546,,166,-14,,,,,,,,,,,,,,,,bars/036.png,bars/mask001.png,,,,,,,,,,,,2,1,,,,,,,8,9,8,10,,,,,,,,,,,2647.7001,2648.2047,2648.4547,2655.6403,space,7.1776,,2655.6403,21,34,2656.6424,2656.6424,2656.6603,,,,0,3,3,3,1,145,20,,,,,,,,
,,648c128c45f7574370ae1d65,65af563b258f4c49e4087ac6,2024-01-23_19h03.27.650,bars,2023.2.3,MacIntel,59.88023952,657b66ea316d21385b68909f,,,,,,,,,,,2656.6606,2657.6601,,,2658.1629,2658.4136,,150,150,,,,,,,,,,,,,,,,bars/043.png,bars/mask006.png,,,,,,,,,,,,2,2,,,,,,,10,7,9,7,,,,,,,,,,,2657.6601,2658.1629,2658.4136,2661.9389,space,3.508,,2661.9389,60,20,2662.9423,2662.9424,2662.9589,,,,0,4,4,4,1,30,130,,,,,,,,
,,648c128c45f7574370ae1d65,65af563b258f4c49e4087ac6,2024-01-23_19h03.27.650,bars,2023.2.3,MacIntel,59.88023952,657b66ea316d21385b68909f,,,,,,,,,,,2662.9591,2663.9638,,,2664.4623,2664.7128,,121,121,,,,,,,,,,,,,,,,bars/001.png,bars/mask000.png,,,,,,,,,,,,6,1,,,,,,,8,5,8,7,,,,,,,,,,,2663.9638,2664.4623,2664.7128,2675.1073,space,10.3853,,2675.1074,9,36,2676.1131,2676.1131,2676.1299,,,,0,5,5,5,1,130,85,,,,,,,,
,,648c128c45f7574370ae1d65,65af563b258f4c49e4087ac6,2024-01-23_19h03.27.650,bars,2023.2.3,MacIntel,59.88023952,657b66ea316d21385b68909f,,,,,,,,,,,2676.1303,2677.1293,,,2677.6338,2677.8831,,169,-11,,,,,,,,,,,,,,,,bars/033.png,bars/mask007.png,,,,,,,,,,,,2,2,,,,,,,10,3,10,3,,,,,,,,,,,2677.1293,2677.6338,2677.8832,2685.6688,space,7.7739,,2685.6688,36,14,2686.6574,2686.6574,2686.6741,,,,0,6,6,6,1,25,155,,,,,,,,
,,648c128c45f7574370ae1d65,65af563b258f4c49e4087ac6,2024-01-23_19h03.27.650,bars,2023.2.3,MacIntel,59.88023952,657b66ea316d21385b68909f,,,,,,,,,,,2686.6743,2687.6768,,,2688.1756,2688.4261,,34,34,,,,,,,,,,,,,,,,bars/012.png,bars/mask001.png,,,,,,,,,,,,1,2,,,,,,,8,5,6,2,,,,,,,,,,,2687.6768,2688.1756,2688.4262,2693.4057,space,4.9655,,2693.4057,56,19,2694.409,2694.409,2694.4249,,,,0,7,7,7,1,90,15,,,,,,,,
,,648c128c45f7574370ae1d65,65af563b258f4c49e4087ac6,2024-01-23_19h03.27.650,bars,2023.2.3,MacIntel,59.88023952,657b66ea316d21385b68909f,,,,,,,,,,,2694.4251,2695.4141,,,2695.9146,2696.1652,,9,189,,,,,,,,,,,,,,,,bars/024.png,bars/mask003.png,,,,,,,,,,,,1,2,,,,,,,10,3,10,2,,,,,,,,,,,2695.4141,2695.9146,2696.1653,2702.8169,space,6.6387,,2702.8171,69,19,2703.8171,2703.8173,2703.8335,,,,0,8,8,8,1,120,170,,,,,,,,
