init_variables.started,init_variables.stopped,participant,session,date,expName,psychopyVersion,OS,frameRate,study_id,instruction_exp.started,instruction_exp.stopped,key_resp_8.keys,key_resp_8.rt,key_resp_8.duration,instruction_single.started,instruction_single.stopped,key_resp_2.keys,key_resp_2.rt,key_resp_2.duration,interval.started,interval.stopped,cue_single.started,cue_single.stopped,mask.started,mask.stopped,ori_response_single.started,res_ori,res,ori_response_single.stopped,key_resp_single.keys,key_resp_single.rt,key_resp_single.duration,disp_single.started,disp_single.stopped,key_resp.keys,key_resp.rt,key_resp.duration,single.thisRepN,single.thisTrialN,single.thisN,single.thisIndex,single.ran,ori,path,mask_path,instruction_bandit.started,instruction_bandit.stopped,key_resp_6.keys,key_resp_6.rt,key_resp_6.duration,cue_bandit.started,cue_bandit.stopped,bandit_res.keys,bandit_res.rt,bandit_res.duration,outcome_bandit.started,rew,action,outcome_bandit.stopped,bandit.thisRepN,bandit.thisTrialN,bandit.thisN,bandit.thisIndex,bandit.ran,actual_rew1,actual_rew2,rew1,rew2,instruction_task.started,instruction_task.stopped,key_resp_7.keys,key_resp_7.rt,key_resp_7.duration,wait_ready.started,wait_ready.stopped,key_resp_3.keys,key_resp_3.rt,key_resp_3.duration,cue.started,cue.stopped,ori_response.started,ori_response.stopped,key_resp_5.keys,key_resp_5.rt,key_resp_5.duration,outcome.started,diff1,diff2,outcome.stopped,disp_outcome_practice.started,disp_outcome_practice.stopped,key_resp_4.keys,key_resp_4.rt,key_resp_4.duration,trials.thisRepN,trials.thisTrialN,trials.thisN,trials.thisIndex,trials.ran,ori1,ori2,break_blk.started,break_blk.stopped,block.thisRepN,block.thisTrialN,block.thisN,block.thisIndex,block.ran,condition_file
0,0,65a44d48297bacfcc92dfef1,65af564cc4d5832b250a1412,2024-01-23_00h02.50.948,bars,2023.2.3,Win32,165.0165017,657b66ea316d21385b68909f,,,,,,,,,,,,,,,,,,,,,,,,,,,,,,,,,,,,,,,,,,,,,,,,,,,,,,,,,,,,,,,,,,,,,,,,,,,,,,,,,,,,,,,,,,,,,,,,,,,,
,,65a44d48297bacfcc92dfef1,65af564cc4d5832b250a1412,2024-01-23_00h02.50.948,bars,2023.2.3,Win32,165.0165017,657b66ea316d21385b68909f,0,95.965,y,95.955,,,,,,,,,,,,,,,,,,,,,,,,,,,,,,,,,,,,,,,,,,,,,,,,,,,,,,,,,,,,,,,,,,,,,,,,,,,,,,,,,,,,,,,,,,,,,,,,
,,65a44d48297bacfcc92dfef1,65af564cc4d5832b250a1412,2024-01-23_00h02.50.948,bars,2023.2.3,Win32,165.0165017,657b66ea316d21385b68909f,,,,,,95.966,115.572,space,19.598,,,,,,,,,,,,,,,,,,,,,,,,,,,,,,,,,,,,,,,,,,,,,,,,,,,,,,,,,,,,,,,,,,,,,,,,,,,,,,,,,,,,,,,,,,,
,,65a44d48297bacfcc92dfef1,65af564cc4d5832b250a1412,2024-01-23_00h02.50.948,bars,2023.2.3,Win32,165.0165017,657b66ea316d21385b68909f,,,,,,,,,,,115.574,116.571,116.571,117.068,117.068,117.317,117.317,75,75,126.82,space,9.498,,126.82,139.651,space,12.822,,0,0,0,4,1,95,bars/single004.png,bars/mask004.png,,,,,,,,,,,,,,,,,,,,,,,,,,,,,,,,,,,,,,,,,,,,,,,,,,,,,,,,,,,,,,,,
,,65a44d48297bacfcc92dfef1,65af564cc4d5832b250a1412,2024-01-23_00h02.50.948,bars,2023.2.3,Win32,165.0165017,657b66ea316d21385b68909f,,,,,,,,,,,139.651,140.651,140.651,141.147,141.147,141.396,141.396,147,147,145.201,space,3.801,,145.201,152.25,space,7.044,,0,1,1,8,1,160,bars/single008.png,bars/mask004.png,,,,,,,,,,,,,,,,,,,,,,,,,,,,,,,,,,,,,,,,,,,,,,,,,,,,,,,,,,,,,,,,
,,65a44d48297bacfcc92dfef1,65af564cc4d5832b250a1412,2024-01-23_00h02.50.948,bars,2023.2.3,Win32,165.0165017,657b66ea316d21385b68909f,,,,,,,,,,,152.25,153.25,153.25,153.747,153.747,153.996,153.996,167,167,157.492,space,3.492,,157.492,161.893,space,4.394,,0,2,2,1,1,20,bars/single001.png,bars/mask006.png,,,,,,,,,,,,,,,,,,,,,,,,,,,,,,,,,,,,,,,,,,,,,,,,,,,,,,,,,,,,,,,,
,,65a44d48297bacfcc92dfef1,65af564cc4d5832b250a1412,2024-01-23_00h02.50.948,bars,2023.2.3,Win32,165.0165017,657b66ea316d21385b68909f,,,,,,,,,,,161.894,162.893,162.893,163.39,163.39,163.638,163.638,50,50,166.935,space,3.291,,166.935,169.062,space,2.121,,0,3,3,5,1,55,bars/single005.png,bars/mask008.png,,,,,,,,,,,,,,,,,,,,,,,,,,,,,,,,,,,,,,,,,,,,,,,,,,,,,,,,,,,,,,,,
,,65a44d48297bacfcc92dfef1,65af564cc4d5832b250a1412,2024-01-23_00h02.50.948,bars,2023.2.3,Win32,165.0165017,657b66ea316d21385b68909f,,,,,,,,,,,169.062,170.062,170.062,170.559,170.559,170.808,170.808,19,199,173.989,space,3.18,,173.989,175.692,space,1.696,,0,4,4,3,1,20,bars/single003.png,bars/mask005.png,,,,,,,,,,,,,,,,,,,,,,,,,,,,,,,,,,,,,,,,,,,,,,,,,,,,,,,,,,,,,,,,
,,65a44d48297bacfcc92dfef1,65af564cc4d5832b250a1412,2024-01-23_00h02.50.948,bars,2023.2.3,Win32,165.0165017,657b66ea316d21385b68909f,,,,,,,,,,,175.692,176.692,176.692,177.19,177.19,177.438,177.438,46,46,179.929,space,2.488,,179.929,181.614,space,1.679,,0,5,5,7,1,45,bars/single007.png,bars/mask009.png,,,,,,,,,,,,,,,,,,,,,,,,,,,,,,,,,,,,,,,,,,,,,,,,,,,,,,,,,,,,,,,,
,,65a44d48297bacfcc92dfef1,65af564cc4d5832b250a1412,2024-01-23_00h02.50.948,bars,2023.2.3,Win32,165.0165017,657b66ea316d21385b68909f,,,,,,,,,,,181.614,182.614,182.614,183.11,183.11,183.359,183.359,177,-3,185.48,space,2.117,,185.48,191.22,space,5.737,,0,6,6,9,1,20,bars/single009.png,bars/mask006.png,,,,,,,,,,,,,,,,,,,,,,,,,,,,,,,,,,,,,,,,,,,,,,,,,,,,,,,,,,,,,,,,
,,65a44d48297bacfcc92dfef1,65af564cc4d5832b250a1412,2024-01-23_00h02.50.948,bars,2023.2.3,Win32,165.0165017,657b66ea316d21385b68909f,,,,,,,,,,,191.22,192.219,192.221,192.723,192.723,192.971,192.971,175,175,195.232,space,2.254,,195.232,198.129,space,2.893,,0,7,7,6,1,175,bars/single006.png,bars/mask005.png,,,,,,,,,,,,,,,,,,,,,,,,,,,,,,,,,,,,,,,,,,,,,,,,,,,,,,,,,,,,,,,,
,,65a44d48297bacfcc92dfef1,65af564cc4d5832b250a1412,2024-01-23_00h02.50.948,bars,2023.2.3,Win32,165.0165017,657b66ea316d21385b68909f,,,,,,,,,,,198.129,199.129,199.129,199.625,199.625,199.874,199.874,118,118,202.329,space,2.452,,202.329,207.184,space,4.847,,0,8,8,2,1,145,bars/single002.png,bars/mask003.png,,,,,,,,,,,,,,,,,,,,,,,,,,,,,,,,,,,,,,,,,,,,,,,,,,,,,,,,,,,,,,,,
,,65a44d48297bacfcc92dfef1,65af564cc4d5832b250a1412,2024-01-23_00h02.50.948,bars,2023.2.3,Win32,165.0165017,657b66ea316d21385b68909f,,,,,,,,,,,207.184,208.184,208.184,208.68,208.68,208.929,208.929,163,-17,212.019,space,3.087,,212.019,216.153,space,4.126,,0,9,9,0,1,150,bars/single000.png,bars/mask006.png,,,,,,,,,,,,,,,,,,,,,,,,,,,,,,,,,,,,,,,,,,,,,,,,,,,,,,,,,,,,,,,,
,,65a44d48297bacfcc92dfef1,65af564cc4d5832b250a1412,2024-01-23_00h02.50.948,bars,2023.2.3,Win32,165.0165017,657b66ea316d21385b68909f,,,,,,,,,,,,,,,,,,,,,,,,,,,,,,,,,,,,,216.153,315.771,space,99.608,,,,,,,,,,,,,,,,,,,,,,,,,,,,,,,,,,,,,,,,,,,,,,,,,,,,,,,,,,,,
,,65a44d48297bacfcc92dfef1,65af564cc4d5832b250a1412,2024-01-23_00h02.50.948,bars,2023.2.3,Win32,165.0165017,657b66ea316d21385b68909f,,,,,,,,,,,,,,,,,,,,,,,,,,,,,,,,,,,,,,,,,,315.774,318.049,right,2.266,,318.049,2,2,319.05,0,0,0,0,1,9,1,9,2,,,,,,,,,,,,,,,,,,,,,,,,,,,,,,,,,,,,,,,,,
,,65a44d48297bacfcc92dfef1,65af564cc4d5832b250a1412,2024-01-23_00h02.50.948,bars,2023.2.3,Win32,165.0165017,657b66ea316d21385b68909f,,,,,,,,,,,,,,,,,,,,,,,,,,,,,,,,,,,,,,,,,,319.05,323.48,left,4.424,,323.48,10,1,324.479,0,1,1,1,1,10,0,10,1,,,,,,,,,,,,,,,,,,,,,,,,,,,,,,,,,,,,,,,,,
,,65a44d48297bacfcc92dfef1,65af564cc4d5832b250a1412,2024-01-23_00h02.50.948,bars,2023.2.3,Win32,165.0165017,657b66ea316d21385b68909f,,,,,,,,,,,,,,,,,,,,,,,,,,,,,,,,,,,,,,,,,,324.48,325.268,left,0.785,,325.268,10,1,326.268,0,2,2,2,1,10,2,10,2,,,,,,,,,,,,,,,,,,,,,,,,,,,,,,,,,,,,,,,,,
,,65a44d48297bacfcc92dfef1,65af564cc4d5832b250a1412,2024-01-23_00h02.50.948,bars,2023.2.3,Win32,165.0165017,657b66ea316d21385b68909f,,,,,,,,,,,,,,,,,,,,,,,,,,,,,,,,,,,,,,,,,,326.268,328.468,left,2.196,,328.468,7,1,329.468,0,3,3,3,1,8,4,7,3,,,,,,,,,,,,,,,,,,,,,,,,,,,,,,,,,,,,,,,,,
,,65a44d48297bacfcc92dfef1,65af564cc4d5832b250a1412,2024-01-23_00h02.50.948,bars,2023.2.3,Win32,165.0165017,657b66ea316d21385b68909f,,,,,,,,,,,,,,,,,,,,,,,,,,,,,,,,,,,,,,,,,,329.468,330.341,right,0.866,,330.341,1,2,331.34,0,4,4,4,1,6,2,5,1,,,,,,,,,,,,,,,,,,,,,,,,,,,,,,,,,,,,,,,,,
,,65a44d48297bacfcc92dfef1,65af564cc4d5832b250a1412,2024-01-23_00h02.50.948,bars,2023.2.3,Win32,165.0165017,657b66ea316d21385b68909f,,,,,,,,,,,,,,,,,,,,,,,,,,,,,,,,,,,,,,,,,,331.341,332.601,left,1.255,,332.601,4,1,333.601,0,5,5,5,1,4,4,4,4,,,,,,,,,,,,,,,,,,,,,,,,,,,,,,,,,,,,,,,,,
,,65a44d48297bacfcc92dfef1,65af564cc4d5832b250a1412,2024-01-23_00h02.50.948,bars,2023.2.3,Win32,165.0165017,657b66ea316d21385b68909f,,,,,,,,,,,,,,,,,,,,,,,,,,,,,,,,,,,,,,,,,,333.601,336.268,left,2.663,,336.268,1,1,337.267,0,6,6,6,1,2,2,1,2,,,,,,,,,,,,,,,,,,,,,,,,,,,,,,,,,,,,,,,,,
,,65a44d48297bacfcc92dfef1,65af564cc4d5832b250a1412,2024-01-23_00h02.50.948,bars,2023.2.3,Win32,165.0165017,657b66ea316d21385b68909f,,,,,,,,,,,,,,,,,,,,,,,,,,,,,,,,,,,,,,,,,,337.269,337.686,right,0.415,,337.686,1,2,338.686,0,7,7,7,1,0,0,0,1,,,,,,,,,,,,,,,,,,,,,,,,,,,,,,,,,,,,,,,,,
,,65a44d48297bacfcc92dfef1,65af564cc4d5832b250a1412,2024-01-23_00h02.50.948,bars,2023.2.3,Win32,165.0165017,657b66ea316d21385b68909f,,,,,,,,,,,,,,,,,,,,,,,,,,,,,,,,,,,,,,,,,,338.686,340.371,left,1.679,,340.371,1,1,341.371,0,8,8,8,1,0,2,1,0,,,,,,,,,,,,,,,,,,,,,,,,,,,,,,,,,,,,,,,,,
,,65a44d48297bacfcc92dfef1,65af564cc4d5832b250a1412,2024-01-23_00h02.50.948,bars,2023.2.3,Win32,165.0165017,657b66ea316d21385b68909f,,,,,,,,,,,,,,,,,,,,,,,,,,,,,,,,,,,,,,,,,,341.371,342.225,left,0.853,,342.225,2,1,343.225,0,9,9,9,1,2,4,2,3,,,,,,,,,,,,,,,,,,,,,,,,,,,,,,,,,,,,,,,,,
,,65a44d48297bacfcc92dfef1,65af564cc4d5832b250a1412,2024-01-23_00h02.50.948,bars,2023.2.3,Win32,165.0165017,657b66ea316d21385b68909f,,,,,,,,,,,,,,,,,,,,,,,,,,,,,,,,,,,,,,,,,,343.225,344.601,right,1.37,,344.601,3,2,345.601,0,10,10,10,1,0,2,0,3,,,,,,,,,,,,,,,,,,,,,,,,,,,,,,,,,,,,,,,,,
,,65a44d48297bacfcc92dfef1,65af564cc4d5832b250a1412,2024-01-23_00h02.50.948,bars,2023.2.3,Win32,165.0165017,657b66ea316d21385b68909f,,,,,,,,,,,,,,,,,,,,,,,,,,,,,,,,,,,,,,,,,,345.601,347.419,left,1.813,,347.419,0,1,348.419,0,11,11,11,1,0,4,0,3,,,,,,,,,,,,,,,,,,,,,,,,,,,,,,,,,,,,,,,,,
,,65a44d48297bacfcc92dfef1,65af564cc4d5832b250a1412,2024-01-23_00h02.50.948,bars,2023.2.3,Win32,165.0165017,657b66ea316d21385b68909f,,,,,,,,,,,,,,,,,,,,,,,,,,,,,,,,,,,,,,,,,,348.419,350.48,right,2.055,,350.48,6,2,351.48,0,12,12,12,1,2,6,1,6,,,,,,,,,,,,,,,,,,,,,,,,,,,,,,,,,,,,,,,,,
,,65a44d48297bacfcc92dfef1,65af564cc4d5832b250a1412,2024-01-23_00h02.50.948,bars,2023.2.3,Win32,165.0165017,657b66ea316d21385b68909f,,,,,,,,,,,,,,,,,,,,,,,,,,,,,,,,,,,,,,,,,,351.48,352.558,right,1.073,,352.558,3,2,353.559,0,13,13,13,1,0,4,1,3,,,,,,,,,,,,,,,,,,,,,,,,,,,,,,,,,,,,,,,,,
,,65a44d48297bacfcc92dfef1,65af564cc4d5832b250a1412,2024-01-23_00h02.50.948,bars,2023.2.3,Win32,165.0165017,657b66ea316d21385b68909f,,,,,,,,,,,,,,,,,,,,,,,,,,,,,,,,,,,,,,,,,,353.559,354.068,left,0.506,,354.068,2,1,355.067,0,14,14,14,1,2,6,2,7,,,,,,,,,,,,,,,,,,,,,,,,,,,,,,,,,,,,,,,,,
,,65a44d48297bacfcc92dfef1,65af564cc4d5832b250a1412,2024-01-23_00h02.50.948,bars,2023.2.3,Win32,165.0165017,657b66ea316d21385b68909f,,,,,,,,,,,,,,,,,,,,,,,,,,,,,,,,,,,,,,,,,,355.068,356.226,left,1.154,,356.226,3,1,357.225,0,15,15,15,1,4,8,3,9,,,,,,,,,,,,,,,,,,,,,,,,,,,,,,,,,,,,,,,,,
,,65a44d48297bacfcc92dfef1,65af564cc4d5832b250a1412,2024-01-23_00h02.50.948,bars,2023.2.3,Win32,165.0165017,657b66ea316d21385b68909f,,,,,,,,,,,,,,,,,,,,,,,,,,,,,,,,,,,,,,,,,,357.225,357.941,left,0.709,,357.941,7,1,358.941,0,16,16,16,1,6,6,7,7,,,,,,,,,,,,,,,,,,,,,,,,,,,,,,,,,,,,,,,,,
,,65a44d48297bacfcc92dfef1,65af564cc4d5832b250a1412,2024-01-23_00h02.50.948,bars,2023.2.3,Win32,165.0165017,657b66ea316d21385b68909f,,,,,,,,,,,,,,,,,,,,,,,,,,,,,,,,,,,,,,,,,,358.941,359.759,left,0.812,,359.759,9,1,360.758,0,17,17,17,1,8,4,9,5,,,,,,,,,,,,,,,,,,,,,,,,,,,,,,,,,,,,,,,,,
,,65a44d48297bacfcc92dfef1,65af564cc4d5832b250a1412,2024-01-23_00h02.50.948,bars,2023.2.3,Win32,165.0165017,657b66ea316d21385b68909f,,,,,,,,,,,,,,,,,,,,,,,,,,,,,,,,,,,,,,,,,,360.758,361.867,right,1.106,,361.867,1,2,362.868,0,18,18,18,1,6,2,5,1,,,,,,,,,,,,,,,,,,,,,,,,,,,,,,,,,,,,,,,,,
,,65a44d48297bacfcc92dfef1,65af564cc4d5832b250a1412,2024-01-23_00h02.50.948,bars,2023.2.3,Win32,165.0165017,657b66ea316d21385b68909f,,,,,,,,,,,,,,,,,,,,,,,,,,,,,,,,,,,,,,,,,,362.868,363.256,left,0.386,,363.256,7,1,364.256,0,19,19,19,1,8,0,7,0,,,,,,,,,,,,,,,,,,,,,,,,,,,,,,,,,,,,,,,,,
,,65a44d48297bacfcc92dfef1,65af564cc4d5832b250a1412,2024-01-23_00h02.50.948,bars,2023.2.3,Win32,165.0165017,657b66ea316d21385b68909f,,,,,,,,,,,,,,,,,,,,,,,,,,,,,,,,,,,,,,,,,,,,,,,,,,,,,,,,,,,,364.256,383.559,space,19.295,,,,,,,,,,,,,,,,,,,,,,,,,,,,,,,,,,,,,
,,65a44d48297bacfcc92dfef1,65af564cc4d5832b250a1412,2024-01-23_00h02.50.948,bars,2023.2.3,Win32,165.0165017,657b66ea316d21385b68909f,,,,,,,,,,,384.713,385.71,,,386.207,386.456,,140,140,,,,,,,,,,,,,,,,bars/000.png,bars/mask009.png,,,,,,,,,,,,4,2,,,,,,,5,5,4,5,,,,,,383.561,384.71,space,1.141,,385.711,386.207,386.456,391.764,space,5.304,,391.764,80,5,392.765,392.765,409.438,space,16.662,,0,0,0,0,1,40,145,,,,,,,,
,,65a44d48297bacfcc92dfef1,65af564cc4d5832b250a1412,2024-01-23_00h02.50.948,bars,2023.2.3,Win32,165.0165017,657b66ea316d21385b68909f,,,,,,,,,,,409.439,410.437,,,410.934,411.183,,48,48,,,,,,,,,,,,,,,,bars/043.png,bars/mask007.png,,,,,,,,,,,,1,1,,,,,,,3,3,2,2,,,,,,,,,,,410.437,410.934,411.183,415.225,space,4.039,,415.225,18,82,416.225,416.225,423.219,space,6.985,,0,1,1,1,1,30,130,,,,,,,,
,,65a44d48297bacfcc92dfef1,65af564cc4d5832b250a1412,2024-01-23_00h02.50.948,bars,2023.2.3,Win32,165.0165017,657b66ea316d21385b68909f,,,,,,,,,,,423.219,424.219,,,424.716,424.964,,151,-29,,,,,,,,,,,,,,,,bars/003.png,bars/mask008.png,,,,,,,,,,,,1,2,,,,,,,5,1,6,1,,,,,,,,,,,424.219,424.716,424.964,428.577,space,3.608,,428.577,54,11,429.576,429.577,435.025,space,5.443,,0,2,2,2,1,25,140,,,,,,,,
,,65a44d48297bacfcc92dfef1,65af564cc4d5832b250a1412,2024-01-23_00h02.50.948,bars,2023.2.3,Win32,165.0165017,657b66ea316d21385b68909f,,,,,,,,,,,435.027,436.025,,,436.523,436.77,,165,-15,,,,,,,,,,,,,,,,bars/023.png,bars/mask004.png,,,,,,,,,,,,0,1,,,,,,,3,3,5,4,,,,,,,,,,,436.025,436.523,436.77,439.976,space,3.201,,439.976,35,50,440.977,440.977,449.068,space,8.082,,0,3,3,3,1,20,115,,,,,,,,
,,65a44d48297bacfcc92dfef1,65af564cc4d5832b250a1412,2024-01-23_00h02.50.948,bars,2023.2.3,Win32,165.0165017,657b66ea316d21385b68909f,,,,,,,,,,,449.068,450.068,,,450.565,450.813,,121,121,,,,,,,,,,,,,,,,bars/040.png,bars/mask008.png,,,,,,,,,,,,0,1,,,,,,,1,5,1,5,,,,,,,,,,,450.068,450.565,450.813,452.268,space,1.449,,452.268,19,64,453.267,453.267,455.819,space,2.544,,0,4,4,4,1,140,5,,,,,,,,
,,65a44d48297bacfcc92dfef1,65af564cc4d5832b250a1412,2024-01-23_00h02.50.948,bars,2023.2.3,Win32,165.0165017,657b66ea316d21385b68909f,,,,,,,,,,,455.819,456.819,,,457.316,457.565,,153,153,,,,,,,,,,,,,,,,bars/007.png,bars/mask001.png,,,,,,,,,,,,0,1,,,,,,,0,3,0,2,,,,,,,,,,,456.819,457.316,457.565,462.128,space,4.558,,462.128,22,82,463.128,463.128,465.716,space,2.581,,0,5,5,5,1,175,55,,,,,,,,
,,65a44d48297bacfcc92dfef1,65af564cc4d5832b250a1412,2024-01-23_00h02.50.948,bars,2023.2.3,Win32,165.0165017,657b66ea316d21385b68909f,,,,,,,,,,,465.716,466.716,,,467.214,467.462,,111,111,,,,,,,,,,,,,,,,bars/013.png,bars/mask003.png,,,,,,,,,,,,0,1,,,,,,,2,1,3,1,,,,,,,,,,,466.716,467.214,467.462,469.728,space,2.261,,469.728,36,79,470.728,470.728,476.219,space,5.484,,0,6,6,6,1,75,10,,,,,,,,
,,65a44d48297bacfcc92dfef1,65af564cc4d5832b250a1412,2024-01-23_00h02.50.948,bars,2023.2.3,Win32,165.0165017,657b66ea316d21385b68909f,,,,,,,,,,,476.22,477.219,,,477.716,477.964,,98,98,,,,,,,,,,,,,,,,bars/008.png,bars/mask001.png,,,,,,,,,,,,3,1,,,,,,,4,3,5,3,,,,,,,,,,,477.219,477.716,477.964,479.837,space,1.867,,479.837,12,82,480.838,480.838,482.286,space,1.443,,0,7,7,7,1,110,0,,,,,,,,
,,65a44d48297bacfcc92dfef1,65af564cc4d5832b250a1412,2024-01-23_00h02.50.948,bars,2023.2.3,Win32,165.0165017,657b66ea316d21385b68909f,,,,,,,,,,,482.286,483.286,,,483.783,484.031,,100,100,,,,,,,,,,,,,,,,bars/012.png,bars/mask003.png,,,,,,,,,,,,1,1,,,,,,,2,5,1,6,,,,,,,,,,,483.286,483.783,484.031,485.837,space,1.799,,485.837,10,85,486.837,486.837,489.037,space,2.193,,0,8,8,8,1,90,15,,,,,,,,
,,65a44d48297bacfcc92dfef1,65af564cc4d5832b250a1412,2024-01-23_00h02.50.948,bars,2023.2.3,Win32,165.0165017,657b66ea316d21385b68909f,,,,,,,,,,,489.038,490.037,,,490.534,490.782,,70,70,,,,,,,,,,,,,,,,bars/001.png,bars/mask008.png,,,,,,,,,,,,2,2,,,,,,,4,3,4,4,,,,,,,,,,,490.037,490.534,490.782,492.304,space,1.518,,492.304,60,15,493.304,493.304,498.843,space,5.533,,0,9,9,9,1,130,85,,,,,,,,
,,65a44d48297bacfcc92dfef1,65af564cc4d5832b250a1412,2024-01-23_00h02.50.948,bars,2023.2.3,Win32,165.0165017,657b66ea316d21385b68909f,,,,,,,,,,,498.843,499.843,,,500.34,500.589,,162,-18,,,,,,,,,,,,,,,,bars/039.png,bars/mask000.png,,,,,,,,,,,,2,1,,,,,,,2,5,3,5,,,,,,,,,,,499.843,500.34,500.589,504.474,space,3.882,,504.474,13,57,505.474,505.474,506.637,space,1.155,,0,10,10,10,1,175,105,,,,,,,,
,,65a44d48297bacfcc92dfef1,65af564cc4d5832b250a1412,2024-01-23_00h02.50.948,bars,2023.2.3,Win32,165.0165017,657b66ea316d21385b68909f,,,,,,,,,,,506.638,507.637,,,508.134,508.382,,103,103,,,,,,,,,,,,,,,,bars/025.png,bars/mask002.png,,,,,,,,,,,,0,1,,,,,,,0,7,0,6,,,,,,,,,,,507.637,508.134,508.382,510.885,space,2.498,,510.885,2,63,511.886,511.886,514.158,space,2.265,,0,11,11,11,1,105,40,,,,,,,,
,,65a44d48297bacfcc92dfef1,65af564cc4d5832b250a1412,2024-01-23_00h02.50.948,bars,2023.2.3,Win32,165.0165017,657b66ea316d21385b68909f,,,,,,,,,,,514.158,515.158,,,515.655,515.904,,57,57,,,,,,,,,,,,,,,,bars/035.png,bars/mask008.png,,,,,,,,,,,,7,2,,,,,,,0,9,0,8,,,,,,,,,,,515.158,515.655,515.904,518.443,space,2.535,,518.443,62,3,519.443,519.443,520.813,space,1.364,,0,12,12,12,1,175,60,,,,,,,,
,,65a44d48297bacfcc92dfef1,65af564cc4d5832b250a1412,2024-01-23_00h02.50.948,bars,2023.2.3,Win32,165.0165017,657b66ea316d21385b68909f,,,,,,,,,,,520.813,521.813,,,522.31,522.558,,103,103,,,,,,,,,,,,,,,,bars/019.png,bars/mask000.png,,,,,,,,,,,,7,2,,,,,,,2,7,3,7,,,,,,,,,,,521.813,522.31,522.558,526.704,space,4.142,,526.704,58,2,527.704,527.704,528.843,space,1.135,,0,13,13,13,1,45,105,,,,,,,,
,,65a44d48297bacfcc92dfef1,65af564cc4d5832b250a1412,2024-01-23_00h02.50.948,bars,2023.2.3,Win32,165.0165017,657b66ea316d21385b68909f,,,,,,,,,,,528.844,529.843,,,530.34,530.588,,30,30,,,,,,,,,,,,,,,,bars/035.png,bars/mask006.png,,,,,,,,,,,,0,2,,,,,,,0,9,0,10,,,,,,,,,,,529.843,530.34,530.588,532.776,space,2.182,,532.776,35,30,533.777,533.777,535.662,space,1.881,,0,14,14,14,1,175,60,,,,,,,,
,,65a44d48297bacfcc92dfef1,65af564cc4d5832b250a1412,2024-01-23_00h02.50.948,bars,2023.2.3,Win32,165.0165017,657b66ea316d21385b68909f,,,,,,,,,,,535.663,536.661,,,537.158,537.406,,39,39,,,,,,,,,,,,,,,,bars/026.png,bars/mask008.png,,,,,,,,,,,,1,1,,,,,,,0,7,1,7,,,,,,,,,,,536.661,537.158,537.406,541.643,space,4.233,,541.643,4,46,542.643,542.643,545.552,space,2.903,,0,15,15,15,1,35,85,,,,,,,,
,,65a44d48297bacfcc92dfef1,65af564cc4d5832b250a1412,2024-01-23_00h02.50.948,bars,2023.2.3,Win32,165.0165017,657b66ea316d21385b68909f,,,,,,,,,,,545.552,546.552,,,547.05,547.298,,140,140,,,,,,,,,,,,,,,,bars/035.png,bars/mask006.png,,,,,,,,,,,,0,1,,,,,,,0,9,2,6,,,,,,,,,,,546.552,547.05,547.298,548.916,space,1.611,,548.916,35,80,549.916,549.916,551.285,space,1.362,,0,16,16,16,1,175,60,,,,,,,,
,,65a44d48297bacfcc92dfef1,65af564cc4d5832b250a1412,2024-01-23_00h02.50.948,bars,2023.2.3,Win32,165.0165017,657b66ea316d21385b68909f,,,,,,,,,,,551.285,552.285,,,552.783,553.031,,132,132,,,,,,,,,,,,,,,,bars/024.png,bars/mask006.png,,,,,,,,,,,,1,1,,,,,,,2,7,2,7,,,,,,,,,,,552.285,552.783,553.031,554.916,space,1.879,,554.916,12,38,555.915,555.915,557.116,space,1.193,,0,17,17,17,1,120,170,,,,,,,,
,,65a44d48297bacfcc92dfef1,65af564cc4d5832b250a1412,2024-01-23_00h02.50.948,bars,2023.2.3,Win32,165.0165017,657b66ea316d21385b68909f,,,,,,,,,,,557.116,558.116,,,558.612,558.861,,21,21,,,,,,,,,,,,,,,,bars/026.png,bars/mask004.png,,,,,,,,,,,,0,1,,,,,,,0,5,0,4,,,,,,,,,,,558.116,558.612,558.861,560.673,space,1.809,,560.673,14,64,561.673,561.673,562.915,space,1.235,,0,18,18,18,1,35,85,,,,,,,,
,,65a44d48297bacfcc92dfef1,65af564cc4d5832b250a1412,2024-01-23_00h02.50.948,bars,2023.2.3,Win32,165.0165017,657b66ea316d21385b68909f,,,,,,,,,,,562.916,563.916,,,564.413,564.661,,89,269,,,,,,,,,,,,,,,,bars/047.png,bars/mask002.png,,,,,,,,,,,,3,2,,,,,,,2,7,1,8,,,,,,,,,,,563.916,564.413,564.661,568.534,space,3.869,,568.535,74,19,569.533,569.534,570.577,space,1.033,,0,19,19,19,1,15,70,,,,,,,,
,,65a44d48297bacfcc92dfef1,65af564cc4d5832b250a1412,2024-01-23_00h02.50.948,bars,2023.2.3,Win32,165.0165017,657b66ea316d21385b68909f,,,,,,,,,,,570.577,571.577,,,572.073,572.322,,52,52,,,,,,,,,,,,,,,,bars/038.png,bars/mask004.png,,,,,,,,,,,,2,2,,,,,,,0,5,0,5,,,,,,,,,,,571.577,572.073,572.322,575.194,space,2.866,,575.194,67,18,576.195,576.195,577.533,space,1.333,,0,20,20,20,1,165,70,,,,,,,,
,,65a44d48297bacfcc92dfef1,65af564cc4d5832b250a1412,2024-01-23_00h02.50.948,bars,2023.2.3,Win32,165.0165017,657b66ea316d21385b68909f,,,,,,,,,,,577.534,578.534,,,579.03,579.279,,77,-103,,,,,,,,,,,,,,,,bars/002.png,bars/mask009.png,,,,,,,,,,,,3,2,,,,,,,2,3,2,4,,,,,,,,,,,578.534,579.03,579.279,583.352,space,4.07,,583.352,53,8,584.352,584.352,585.516,space,1.156,,0,21,21,21,1,130,85,,,,,,,,
,,65a44d48297bacfcc92dfef1,65af564cc4d5832b250a1412,2024-01-23_00h02.50.948,bars,2023.2.3,Win32,165.0165017,657b66ea316d21385b68909f,,,,,,,,,,,585.516,586.515,,,587.013,587.261,,83,83,,,,,,,,,,,,,,,,bars/026.png,bars/mask009.png,,,,,,,,,,,,4,2,,,,,,,4,5,3,4,,,,,,,,,,,586.515,587.013,587.261,588.722,space,1.458,,588.722,48,2,589.722,589.722,590.521,space,0.795,,0,22,22,22,1,35,85,,,,,,,,
,,65a44d48297bacfcc92dfef1,65af564cc4d5832b250a1412,2024-01-23_00h02.50.948,bars,2023.2.3,Win32,165.0165017,657b66ea316d21385b68909f,,,,,,,,,,,590.521,591.522,,,592.019,592.267,,138,138,,,,,,,,,,,,,,,,bars/024.png,bars/mask001.png,,,,,,,,,,,,2,1,,,,,,,6,3,5,2,,,,,,,,,,,591.522,592.019,592.267,594.582,space,2.311,,594.582,18,32,595.582,595.582,598.965,space,3.375,,0,23,23,23,1,120,170,,,,,,,,
,,65a44d48297bacfcc92dfef1,65af564cc4d5832b250a1412,2024-01-23_00h02.50.948,bars,2023.2.3,Win32,165.0165017,657b66ea316d21385b68909f,,,,,,,,,,,598.966,599.964,,,600.461,600.709,,103,103,,,,,,,,,,,,,,,,bars/037.png,bars/mask009.png,,,,,,,,,,,,3,2,,,,,,,4,1,4,3,,,,,,,,,,,599.964,600.461,600.709,604.152,space,3.439,,604.152,47,2,605.152,605.152,606.291,space,1.134,,0,24,24,24,1,150,105,,,,,,,,
,,65a44d48297bacfcc92dfef1,65af564cc4d5832b250a1412,2024-01-23_00h02.50.948,bars,2023.2.3,Win32,165.0165017,657b66ea316d21385b68909f,,,,,,,,,,,606.291,607.291,,,607.788,608.037,,2,2,,,,,,,,,,,,,,,,bars/036.png,bars/mask000.png,,,,,,,,,,,,0,2,,,,,,,2,0,1,0,,,,,,,,,,,607.291,607.788,608.037,609.855,space,1.812,,609.855,37,18,610.855,610.855,613.255,space,2.393,,0,25,25,25,1,145,20,,,,,,,,
,,65a44d48297bacfcc92dfef1,65af564cc4d5832b250a1412,2024-01-23_00h02.50.948,bars,2023.2.3,Win32,165.0165017,657b66ea316d21385b68909f,,,,,,,,,,,613.255,614.254,,,614.751,615.001,,159,-21,,,,,,,,,,,,,,,,bars/028.png,bars/mask004.png,,,,,,,,,,,,0,2,,,,,,,0,0,1,1,,,,,,,,,,,614.254,614.751,615.001,617.345,space,2.339,,617.345,66,39,618.346,618.346,619.673,space,1.321,,0,26,26,26,1,45,120,,,,,,,,
,,65a44d48297bacfcc92dfef1,65af564cc4d5832b250a1412,2024-01-23_00h02.50.948,bars,2023.2.3,Win32,165.0165017,657b66ea316d21385b68909f,,,,,,,,,,,619.674,620.673,,,621.17,621.419,,129,129,,,,,,,,,,,,,,,,bars/028.png,bars/mask009.png,,,,,,,,,,,,0,2,,,,,,,0,0,1,0,,,,,,,,,,,620.673,621.17,621.419,624.182,space,2.761,,624.182,84,9,625.183,625.183,626.885,space,1.696,,0,27,27,27,1,45,120,,,,,,,,
,,65a44d48297bacfcc92dfef1,65af564cc4d5832b250a1412,2024-01-23_00h02.50.948,bars,2023.2.3,Win32,165.0165017,657b66ea316d21385b68909f,,,,,,,,,,,626.885,627.885,,,628.382,628.631,,30,30,,,,,,,,,,,,,,,,bars/016.png,bars/mask001.png,,,,,,,,,,,,0,1,,,,,,,0,0,0,0,,,,,,,,,,,627.885,628.382,628.631,632.873,space,4.238,,632.874,10,45,633.873,633.873,635.534,space,1.65,,0,28,28,28,1,40,165,,,,,,,,
,,65a44d48297bacfcc92dfef1,65af564cc4d5832b250a1412,2024-01-23_00h02.50.948,bars,2023.2.3,Win32,165.0165017,657b66ea316d21385b68909f,,,,,,,,,,,635.534,636.533,,,637.03,637.279,,16,196,,,,,,,,,,,,,,,,bars/032.png,bars/mask001.png,,,,,,,,,,,,2,2,,,,,,,0,2,0,2,,,,,,,,,,,636.533,637.03,637.279,639.334,space,2.049,,639.334,71,4,640.334,640.334,641.673,space,1.332,,0,29,29,29,1,125,20,,,,,,,,
,,65a44d48297bacfcc92dfef1,65af564cc4d5832b250a1412,2024-01-23_00h02.50.948,bars,2023.2.3,Win32,165.0165017,657b66ea316d21385b68909f,,,,,,,,,,,641.674,642.673,,,643.17,643.418,,18,18,,,,,,,,,,,,,,,,bars/043.png,bars/mask005.png,,,,,,,,,,,,2,1,,,,,,,2,4,3,3,,,,,,,,,,,642.673,643.17,643.418,647.412,space,3.989,,647.412,12,68,648.412,648.412,649.661,space,1.244,,0,30,30,30,1,30,130,,,,,,,,
,,65a44d48297bacfcc92dfef1,65af564cc4d5832b250a1412,2024-01-23_00h02.50.948,bars,2023.2.3,Win32,165.0165017,657b66ea316d21385b68909f,,,,,,,,,,,649.661,650.66,,,651.158,651.406,,177,-3,,,,,,,,,,,,,,,,bars/012.png,bars/mask002.png,,,,,,,,,,,,1,2,,,,,,,4,2,4,2,,,,,,,,,,,650.66,651.158,651.406,653.212,space,1.802,,653.212,87,18,654.213,654.213,655.224,space,1.003,,0,31,31,31,1,90,15,,,,,,,,
,,65a44d48297bacfcc92dfef1,65af564cc4d5832b250a1412,2024-01-23_00h02.50.948,bars,2023.2.3,Win32,165.0165017,657b66ea316d21385b68909f,,,,,,,,,,,655.224,656.224,,,656.722,656.97,,24,24,,,,,,,,,,,,,,,,bars/031.png,bars/mask001.png,,,,,,,,,,,,3,2,,,,,,,6,4,6,4,,,,,,,,,,,656.224,656.722,656.97,660.63,space,3.658,,660.63,84,11,661.631,661.631,663.061,space,1.425,,0,32,32,32,1,120,35,,,,,,,,
,,65a44d48297bacfcc92dfef1,65af564cc4d5832b250a1412,2024-01-23_00h02.50.948,bars,2023.2.3,Win32,165.0165017,657b66ea316d21385b68909f,,,,,,,,,,,663.061,664.061,,,664.558,664.807,,77,-103,,,,,,,,,,,,,,,,bars/002.png,bars/mask004.png,,,,,,,,,,,,4,2,,,,,,,8,6,7,5,,,,,,,,,,,664.061,664.558,664.807,670.031,space,5.221,,670.031,53,8,671.031,671.031,671.909,space,0.875,,0,33,33,33,1,130,85,,,,,,,,
,,65a44d48297bacfcc92dfef1,65af564cc4d5832b250a1412,2024-01-23_00h02.50.948,bars,2023.2.3,Win32,165.0165017,657b66ea316d21385b68909f,,,,,,,,,,,671.91,672.909,,,673.406,673.654,,35,35,,,,,,,,,,,,,,,,bars/029.png,bars/mask002.png,,,,,,,,,,,,3,2,,,,,,,6,4,6,5,,,,,,,,,,,672.909,673.406,673.654,674.412,space,0.753,,674.412,55,10,675.412,675.412,676.522,space,1.105,,0,34,34,34,1,90,45,,,,,,,,
,,65a44d48297bacfcc92dfef1,65af564cc4d5832b250a1412,2024-01-23_00h02.50.948,bars,2023.2.3,Win32,165.0165017,657b66ea316d21385b68909f,,,,,,,,,,,676.522,677.522,,,678.018,678.267,,37,37,,,,,,,,,,,,,,,,bars/007.png,bars/mask006.png,,,,,,,,,,,,1,2,,,,,,,8,2,7,3,,,,,,,,,,,677.522,678.018,678.267,679.54,space,1.269,,679.54,42,18,680.539,680.539,681.71,space,1.165,,0,35,35,35,1,175,55,,,,,,,,
,,65a44d48297bacfcc92dfef1,65af564cc4d5832b250a1412,2024-01-23_00h02.50.948,bars,2023.2.3,Win32,165.0165017,657b66ea316d21385b68909f,,,,,,,,,,,681.71,682.71,,,683.206,683.455,,22,202,,,,,,,,,,,,,,,,bars/005.png,bars/mask007.png,,,,,,,,,,,,4,1,,,,,,,6,0,7,0,,,,,,,,,,,682.71,683.206,683.455,686.449,space,2.992,,686.449,12,62,687.449,687.449,688.491,space,1.035,,0,36,36,36,1,10,140,,,,,,,,
,,65a44d48297bacfcc92dfef1,65af564cc4d5832b250a1412,2024-01-23_00h02.50.948,bars,2023.2.3,Win32,165.0165017,657b66ea316d21385b68909f,,,,,,,,,,,688.491,689.491,,,689.988,690.236,,35,35,,,,,,,,,,,,,,,,bars/029.png,bars/mask009.png,,,,,,,,,,,,1,2,,,,,,,4,2,3,1,,,,,,,,,,,689.491,689.988,690.236,695.164,space,4.921,,695.164,55,10,696.164,696.164,696.891,space,0.72,,0,37,37,37,1,90,45,,,,,,,,
,,65a44d48297bacfcc92dfef1,65af564cc4d5832b250a1412,2024-01-23_00h02.50.948,bars,2023.2.3,Win32,165.0165017,657b66ea316d21385b68909f,,,,,,,,,,,696.891,697.892,,,698.388,698.637,,132,132,,,,,,,,,,,,,,,,bars/024.png,bars/mask008.png,,,,,,,,,,,,1,1,,,,,,,2,4,1,4,,,,,,,,,,,697.892,698.388,698.637,701.043,space,2.399,,701.043,12,38,702.042,702.042,703.103,space,1.052,,0,38,38,38,1,120,170,,,,,,,,
,,65a44d48297bacfcc92dfef1,65af564cc4d5832b250a1412,2024-01-23_00h02.50.948,bars,2023.2.3,Win32,165.0165017,657b66ea316d21385b68909f,,,,,,,,,,,703.103,704.103,,,704.6,704.848,,135,-45,,,,,,,,,,,,,,,,bars/020.png,bars/mask003.png,,,,,,,,,,,,1,1,,,,,,,4,6,4,6,,,,,,,,,,,704.103,704.6,704.848,708.722,space,3.868,,708.722,20,35,709.721,709.721,711.594,space,1.866,,0,39,39,39,1,115,170,,,,,,,,
,,65a44d48297bacfcc92dfef1,65af564cc4d5832b250a1412,2024-01-23_00h02.50.948,bars,2023.2.3,Win32,165.0165017,657b66ea316d21385b68909f,,,,,,,,,,,711.594,712.594,,,713.091,713.339,,46,46,,,,,,,,,,,,,,,,bars/043.png,bars/mask003.png,,,,,,,,,,,,1,1,,,,,,,2,4,2,2,,,,,,,,,,,712.594,713.091,713.339,715.939,space,2.597,,715.939,16,84,716.939,716.939,717.873,space,0.926,,0,40,40,40,1,30,130,,,,,,,,
,,65a44d48297bacfcc92dfef1,65af564cc4d5832b250a1412,2024-01-23_00h02.50.948,bars,2023.2.3,Win32,165.0165017,657b66ea316d21385b68909f,,,,,,,,,,,717.873,718.873,,,719.37,719.618,,16,16,,,,,,,,,,,,,,,,bars/016.png,bars/mask003.png,,,,,,,,,,,,1,1,,,,,,,4,2,7,2,,,,,,,,,,,718.873,719.37,719.618,721.903,space,2.278,,721.903,24,31,722.903,722.903,727.733,space,4.823,,0,41,41,41,1,40,165,,,,,,,,
,,65a44d48297bacfcc92dfef1,65af564cc4d5832b250a1412,2024-01-23_00h02.50.948,bars,2023.2.3,Win32,165.0165017,657b66ea316d21385b68909f,,,,,,,,,,,727.733,728.734,,,729.23,729.479,,37,217,,,,,,,,,,,,,,,,bars/028.png,bars/mask000.png,,,,,,,,,,,,5,1,,,,,,,6,4,7,5,,,,,,,,,,,728.734,729.23,729.479,733.073,space,3.588,,733.073,8,83,734.072,734.072,735.122,space,1.04,,0,42,42,42,1,45,120,,,,,,,,
,,65a44d48297bacfcc92dfef1,65af564cc4d5832b250a1412,2024-01-23_00h02.50.948,bars,2023.2.3,Win32,165.0165017,657b66ea316d21385b68909f,,,,,,,,,,,735.122,736.121,,,736.619,736.867,,17,197,,,,,,,,,,,,,,,,bars/022.png,bars/mask008.png,,,,,,,,,,,,3,2,,,,,,,4,2,4,3,,,,,,,,,,,736.121,736.619,736.867,740.249,space,3.379,,740.249,78,3,741.249,741.249,742.364,space,1.106,,0,43,43,43,1,95,20,,,,,,,,
,,65a44d48297bacfcc92dfef1,65af564cc4d5832b250a1412,2024-01-23_00h02.50.948,bars,2023.2.3,Win32,165.0165017,657b66ea316d21385b68909f,,,,,,,,,,,742.364,743.363,,,743.861,744.109,,112,112,,,,,,,,,,,,,,,,bars/023.png,bars/mask003.png,,,,,,,,,,,,1,2,,,,,,,6,0,5,1,,,,,,,,,,,743.363,743.86,744.109,748.019,space,3.906,,748.019,88,3,749.018,749.018,749.569,space,0.547,,0,44,44,44,1,20,115,,,,,,,,
,,65a44d48297bacfcc92dfef1,65af564cc4d5832b250a1412,2024-01-23_00h02.50.948,bars,2023.2.3,Win32,165.0165017,657b66ea316d21385b68909f,,,,,,,,,,,749.569,750.57,,,751.067,751.315,,154,154,,,,,,,,,,,,,,,,bars/037.png,bars/mask000.png,,,,,,,,,,,,3,1,,,,,,,4,0,3,0,,,,,,,,,,,750.57,751.067,751.315,755.261,space,3.941,,755.261,4,49,756.26,756.26,757.418,space,1.152,,0,45,45,45,1,150,105,,,,,,,,
,,65a44d48297bacfcc92dfef1,65af564cc4d5832b250a1412,2024-01-23_00h02.50.948,bars,2023.2.3,Win32,165.0165017,657b66ea316d21385b68909f,,,,,,,,,,,757.418,758.418,,,758.915,759.163,,49,49,,,,,,,,,,,,,,,,bars/005.png,bars/mask003.png,,,,,,,,,,,,0,1,,,,,,,6,2,6,1,,,,,,,,,,,758.418,758.915,759.163,761.618,space,2.452,,761.618,39,89,762.618,762.618,765.703,space,3.078,,0,46,46,46,1,10,140,,,,,,,,
,,65a44d48297bacfcc92dfef1,65af564cc4d5832b250a1412,2024-01-23_00h02.50.948,bars,2023.2.3,Win32,165.0165017,657b66ea316d21385b68909f,,,,,,,,,,,765.704,766.702,,,767.2,767.448,,14,14,,,,,,,,,,,,,,,,bars/004.png,bars/mask006.png,,,,,,,,,,,,2,1,,,,,,,4,4,3,5,,,,,,,,,,,766.702,767.2,767.448,769.158,space,1.706,,769.158,11,69,770.157,770.157,773.952,space,3.786,,0,47,47,47,1,25,125,,,,,,,,
,,65a44d48297bacfcc92dfef1,65af564cc4d5832b250a1412,2024-01-23_00h02.50.948,bars,2023.2.3,Win32,165.0165017,657b66ea316d21385b68909f,,,,,,,,,,,773.952,774.951,,,775.449,775.696,,25,205,,,,,,,,,,,,,,,,bars/022.png,bars/mask009.png,,,,,,,,,,,,3,2,,,,,,,2,2,2,3,,,,,,,,,,,774.951,775.449,775.696,779.679,space,3.978,,779.679,70,5,780.678,780.678,781.448,space,0.764,,0,48,48,48,1,95,20,,,,,,,,
,,65a44d48297bacfcc92dfef1,65af564cc4d5832b250a1412,2024-01-23_00h02.50.948,bars,2023.2.3,Win32,165.0165017,657b66ea316d21385b68909f,,,,,,,,,,,781.448,782.448,,,782.946,783.194,,90,90,,,,,,,,,,,,,,,,bars/019.png,bars/mask007.png,,,,,,,,,,,,0,2,,,,,,,0,0,0,0,,,,,,,,,,,782.448,782.946,783.194,785.121,space,1.922,,785.121,45,15,786.121,786.121,787.248,space,1.122,,0,49,49,49,1,45,105,,,,,,,,
,,65a44d48297bacfcc92dfef1,65af564cc4d5832b250a1412,2024-01-23_00h02.50.948,bars,2023.2.3,Win32,165.0165017,657b66ea316d21385b68909f,,,,,,,,,,,,,,,,,,,,,,,,,,,,,,,,,,,,,,,,,,,,,,,,,,,,,,,,,,,,,,,,,,,,,,,,,,,,,,,,,,,,,,,,,,,,,787.248,844.461,0,0,0,1,1,sequence_tables/blk014.csv
,,65a44d48297bacfcc92dfef1,65af564cc4d5832b250a1412,2024-01-23_00h02.50.948,bars,2023.2.3,Win32,165.0165017,657b66ea316d21385b68909f,,,,,,,,,,,856.24,857.236,,,857.733,857.981,,55,55,,,,,,,,,,,,,,,,bars/047.png,bars/mask002.png,,,,,,,,,,,,1,2,,,,,,,5,1,6,1,,,,,,844.462,856.237,space,11.771,,857.236,857.733,857.981,861.2,space,3.212,,861.2,40,15,862.2,862.2,862.201,,,,0,0,0,0,1,15,70,,,,,,,,
,,65a44d48297bacfcc92dfef1,65af564cc4d5832b250a1412,2024-01-23_00h02.50.948,bars,2023.2.3,Win32,165.0165017,657b66ea316d21385b68909f,,,,,,,,,,,862.201,863.199,,,863.696,863.945,,22,22,,,,,,,,,,,,,,,,bars/025.png,bars/mask002.png,,,,,,,,,,,,0,2,,,,,,,3,0,3,0,,,,,,,,,,,863.199,863.696,863.945,864.745,space,0.798,,864.745,83,18,865.745,865.745,865.746,,,,0,1,1,1,1,105,40,,,,,,,,
,,65a44d48297bacfcc92dfef1,65af564cc4d5832b250a1412,2024-01-23_00h02.50.948,bars,2023.2.3,Win32,165.0165017,657b66ea316d21385b68909f,,,,,,,,,,,865.746,866.745,,,867.242,867.491,,9,9,,,,,,,,,,,,,,,,bars/012.png,bars/mask007.png,,,,,,,,,,,,1,2,,,,,,,5,0,4,1,,,,,,,,,,,866.745,867.242,867.491,869.109,space,1.613,,869.109,81,6,870.109,870.109,870.11,,,,0,2,2,2,1,90,15,,,,,,,,
,,65a44d48297bacfcc92dfef1,65af564cc4d5832b250a1412,2024-01-23_00h02.50.948,bars,2023.2.3,Win32,165.0165017,657b66ea316d21385b68909f,,,,,,,,,,,870.11,871.109,,,871.606,871.855,,15,15,,,,,,,,,,,,,,,,bars/045.png,bars/mask005.png,,,,,,,,,,,,2,2,,,,,,,3,0,3,2,,,,,,,,,,,871.109,871.606,871.855,873.539,space,1.679,,873.539,85,5,874.539,874.539,874.539,,,,0,3,3,3,1,100,10,,,,,,,,
,,65a44d48297bacfcc92dfef1,65af564cc4d5832b250a1412,2024-01-23_00h02.50.948,bars,2023.2.3,Win32,165.0165017,657b66ea316d21385b68909f,,,,,,,,,,,874.539,875.539,,,876.036,876.285,,24,204,,,,,,,,,,,,,,,,bars/034.png,bars/mask003.png,,,,,,,,,,,,0,2,,,,,,,1,0,2,1,,,,,,,,,,,875.539,876.036,876.285,878.515,space,2.228,,878.515,79,41,879.515,879.515,879.516,,,,0,4,4,4,1,125,65,,,,,,,,
,,65a44d48297bacfcc92dfef1,65af564cc4d5832b250a1412,2024-01-23_00h02.50.948,bars,2023.2.3,Win32,165.0165017,657b66ea316d21385b68909f,,,,,,,,,,,879.516,880.515,,,881.011,881.26,,23,23,,,,,,,,,,,,,,,,bars/000.png,bars/mask005.png,,,,,,,,,,,,0,1,,,,,,,0,2,0,2,,,,,,,,,,,880.515,881.011,881.26,888.139,space,6.873,,888.139,17,58,889.139,889.14,889.143,,,,0,5,5,5,1,40,145,,,,,,,,
,,65a44d48297bacfcc92dfef1,65af564cc4d5832b250a1412,2024-01-23_00h02.50.948,bars,2023.2.3,Win32,165.0165017,657b66ea316d21385b68909f,,,,,,,,,,,889.143,890.139,,,890.636,890.885,,160,160,,,,,,,,,,,,,,,,bars/024.png,bars/mask002.png,,,,,,,,,,,,0,2,,,,,,,0,0,2,0,,,,,,,,,,,890.139,890.636,890.885,892.739,space,1.849,,892.739,40,10,893.739,893.739,893.741,,,,0,6,6,6,1,120,170,,,,,,,,
,,65a44d48297bacfcc92dfef1,65af564cc4d5832b250a1412,2024-01-23_00h02.50.948,bars,2023.2.3,Win32,165.0165017,657b66ea316d21385b68909f,,,,,,,,,,,893.741,894.739,,,895.236,895.485,,111,111,,,,,,,,,,,,,,,,bars/049.png,bars/mask002.png,,,,,,,,,,,,3,2,,,,,,,0,2,0,3,,,,,,,,,,,894.739,895.236,895.485,896.854,space,1.368,,896.854,49,4,897.855,897.855,897.855,,,,0,7,7,7,1,160,115,,,,,,,,
,,65a44d48297bacfcc92dfef1,65af564cc4d5832b250a1412,2024-01-23_00h02.50.948,bars,2023.2.3,Win32,165.0165017,657b66ea316d21385b68909f,,,,,,,,,,,897.855,898.854,,,899.351,899.6,,69,69,,,,,,,,,,,,,,,,bars/017.png,bars/mask003.png,,,,,,,,,,,,0,2,,,,,,,0,0,1,0,,,,,,,,,,,898.854,899.351,899.6,901.678,space,2.073,,901.678,76,24,902.679,902.679,902.68,,,,0,8,8,8,1,145,45,,,,,,,,
,,65a44d48297bacfcc92dfef1,65af564cc4d5832b250a1412,2024-01-23_00h02.50.948,bars,2023.2.3,Win32,165.0165017,657b66ea316d21385b68909f,,,,,,,,,,,902.68,903.678,,,904.176,904.423,,99,99,,,,,,,,,,,,,,,,bars/037.png,bars/mask005.png,,,,,,,,,,,,1,2,,,,,,,2,0,4,1,,,,,,,,,,,903.679,904.175,904.423,906.599,space,2.17,,906.599,51,6,907.6,907.6,907.6,,,,0,9,9,9,1,150,105,,,,,,,,
,,65a44d48297bacfcc92dfef1,65af564cc4d5832b250a1412,2024-01-23_00h02.50.948,bars,2023.2.3,Win32,165.0165017,657b66ea316d21385b68909f,,,,,,,,,,,907.601,908.599,,,909.096,909.345,,164,164,,,,,,,,,,,,,,,,bars/007.png,bars/mask002.png,,,,,,,,,,,,2,1,,,,,,,4,0,3,0,,,,,,,,,,,908.599,909.096,909.345,912.357,space,3.007,,912.358,11,71,913.357,913.357,913.358,,,,0,10,10,10,1,175,55,,,,,,,,
,,65a44d48297bacfcc92dfef1,65af564cc4d5832b250a1412,2024-01-23_00h02.50.948,bars,2023.2.3,Win32,165.0165017,657b66ea316d21385b68909f,,,,,,,,,,,913.358,914.357,,,914.854,915.103,,131,131,,,,,,,,,,,,,,,,bars/044.png,bars/mask005.png,,,,,,,,,,,,0,2,,,,,,,6,2,6,2,,,,,,,,,,,914.357,914.854,915.103,919.854,space,4.75,,919.854,56,24,920.854,920.854,920.856,,,,0,11,11,11,1,75,155,,,,,,,,
,,65a44d48297bacfcc92dfef1,65af564cc4d5832b250a1412,2024-01-23_00h02.50.948,bars,2023.2.3,Win32,165.0165017,657b66ea316d21385b68909f,,,,,,,,,,,920.856,921.854,,,922.351,922.599,,156,156,,,,,,,,,,,,,,,,bars/014.png,bars/mask004.png,,,,,,,,,,,,0,2,,,,,,,8,0,7,0,,,,,,,,,,,921.854,922.351,922.599,923.26,space,0.655,,923.26,76,24,924.26,924.26,924.261,,,,0,12,12,12,1,80,0,,,,,,,,
,,65a44d48297bacfcc92dfef1,65af564cc4d5832b250a1412,2024-01-23_00h02.50.948,bars,2023.2.3,Win32,165.0165017,657b66ea316d21385b68909f,,,,,,,,,,,924.261,925.26,,,925.757,926.006,,63,63,,,,,,,,,,,,,,,,bars/027.png,bars/mask001.png,,,,,,,,,,,,1,2,,,,,,,10,0,10,2,,,,,,,,,,,925.26,925.757,926.006,929.188,space,3.178,,929.188,47,13,930.187,930.187,930.188,,,,0,13,13,13,1,110,50,,,,,,,,
,,65a44d48297bacfcc92dfef1,65af564cc4d5832b250a1412,2024-01-23_00h02.50.948,bars,2023.2.3,Win32,165.0165017,657b66ea316d21385b68909f,,,,,,,,,,,930.188,931.188,,,931.685,931.933,,58,58,,,,,,,,,,,,,,,,bars/038.png,bars/mask002.png,,,,,,,,,,,,2,2,,,,,,,8,2,8,3,,,,,,,,,,,931.188,931.685,931.933,933.605,space,1.67,,933.605,73,12,934.606,934.606,934.607,,,,0,14,14,14,1,165,70,,,,,,,,
,,65a44d48297bacfcc92dfef1,65af564cc4d5832b250a1412,2024-01-23_00h02.50.948,bars,2023.2.3,Win32,165.0165017,657b66ea316d21385b68909f,,,,,,,,,,,934.607,935.605,,,936.103,936.35,,34,34,,,,,,,,,,,,,,,,bars/022.png,bars/mask002.png,,,,,,,,,,,,0,2,,,,,,,10,0,10,0,,,,,,,,,,,935.605,936.103,936.351,940.297,space,3.942,,940.297,61,14,941.296,941.296,941.298,,,,0,15,15,15,1,95,20,,,,,,,,
,,65a44d48297bacfcc92dfef1,65af564cc4d5832b250a1412,2024-01-23_00h02.50.948,bars,2023.2.3,Win32,165.0165017,657b66ea316d21385b68909f,,,,,,,,,,,941.298,942.296,,,942.793,943.042,,43,43,,,,,,,,,,,,,,,,bars/034.png,bars/mask000.png,,,,,,,,,,,,0,2,,,,,,,8,0,8,1,,,,,,,,,,,942.296,942.793,943.042,944.284,space,1.241,,944.284,82,22,945.285,945.285,945.285,,,,0,16,16,16,1,125,65,,,,,,,,
,,65a44d48297bacfcc92dfef1,65af564cc4d5832b250a1412,2024-01-23_00h02.50.948,bars,2023.2.3,Win32,165.0165017,657b66ea316d21385b68909f,,,,,,,,,,,945.285,946.284,,,946.781,947.03,,113,113,,,,,,,,,,,,,,,,bars/040.png,bars/mask003.png,,,,,,,,,,,,1,1,,,,,,,6,0,6,1,,,,,,,,,,,946.284,946.781,947.03,949.326,space,2.292,,949.326,27,72,950.326,950.326,950.329,,,,0,17,17,17,1,140,5,,,,,,,,
,,65a44d48297bacfcc92dfef1,65af564cc4d5832b250a1412,2024-01-23_00h02.50.948,bars,2023.2.3,Win32,165.0165017,657b66ea316d21385b68909f,,,,,,,,,,,950.329,951.327,,,951.823,952.072,,115,115,,,,,,,,,,,,,,,,bars/024.png,bars/mask006.png,,,,,,,,,,,,7,1,,,,,,,8,2,8,2,,,,,,,,,,,951.327,951.823,952.072,953.806,space,1.729,,953.806,5,55,954.806,954.806,954.807,,,,0,18,18,18,1,120,170,,,,,,,,
,,65a44d48297bacfcc92dfef1,65af564cc4d5832b250a1412,2024-01-23_00h02.50.948,bars,2023.2.3,Win32,165.0165017,657b66ea316d21385b68909f,,,,,,,,,,,954.808,955.805,,,956.303,956.551,,149,149,,,,,,,,,,,,,,,,bars/033.png,bars/mask002.png,,,,,,,,,,,,4,2,,,,,,,6,4,8,5,,,,,,,,,,,955.805,956.303,956.551,958.327,space,1.77,,958.327,56,6,959.326,959.326,959.328,,,,0,19,19,19,1,25,155,,,,,,,,
,,65a44d48297bacfcc92dfef1,65af564cc4d5832b250a1412,2024-01-23_00h02.50.948,bars,2023.2.3,Win32,165.0165017,657b66ea316d21385b68909f,,,,,,,,,,,959.328,960.327,,,960.824,961.072,,35,35,,,,,,,,,,,,,,,,bars/022.png,bars/mask003.png,,,,,,,,,,,,0,2,,,,,,,8,2,8,0,,,,,,,,,,,960.327,960.824,961.073,962.187,space,1.109,,962.187,60,15,963.187,963.187,963.188,,,,0,20,20,20,1,95,20,,,,,,,,
,,65a44d48297bacfcc92dfef1,65af564cc4d5832b250a1412,2024-01-23_00h02.50.948,bars,2023.2.3,Win32,165.0165017,657b66ea316d21385b68909f,,,,,,,,,,,963.189,964.188,,,964.684,964.933,,25,205,,,,,,,,,,,,,,,,bars/010.png,bars/mask006.png,,,,,,,,,,,,0,2,,,,,,,10,4,10,2,,,,,,,,,,,964.188,964.684,964.933,967.896,space,2.959,,967.896,40,30,968.896,968.896,968.897,,,,0,21,21,21,1,165,55,,,,,,,,
,,65a44d48297bacfcc92dfef1,65af564cc4d5832b250a1412,2024-01-23_00h02.50.948,bars,2023.2.3,Win32,165.0165017,657b66ea316d21385b68909f,,,,,,,,,,,968.897,969.896,,,970.394,970.642,,38,218,,,,,,,,,,,,,,,,bars/010.png,bars/mask007.png,,,,,,,,,,,,1,2,,,,,,,10,2,10,2,,,,,,,,,,,969.896,970.394,970.642,973.545,space,2.9,,973.545,53,17,974.545,974.545,974.546,,,,0,22,22,22,1,165,55,,,,,,,,
,,65a44d48297bacfcc92dfef1,65af564cc4d5832b250a1412,2024-01-23_00h02.50.948,bars,2023.2.3,Win32,165.0165017,657b66ea316d21385b68909f,,,,,,,,,,,974.546,975.544,,,976.042,976.29,,47,47,,,,,,,,,,,,,,,,bars/010.png,bars/mask002.png,,,,,,,,,,,,3,2,,,,,,,10,4,8,4,,,,,,,,,,,975.544,976.042,976.29,979.096,space,2.801,,979.096,62,8,980.096,980.096,980.097,,,,0,23,23,23,1,165,55,,,,,,,,
,,65a44d48297bacfcc92dfef1,65af564cc4d5832b250a1412,2024-01-23_00h02.50.948,bars,2023.2.3,Win32,165.0165017,657b66ea316d21385b68909f,,,,,,,,,,,980.097,981.097,,,981.593,981.841,,115,115,,,,,,,,,,,,,,,,bars/049.png,bars/mask007.png,,,,,,,,,,,,6,2,,,,,,,8,6,7,6,,,,,,,,,,,981.097,981.593,981.841,982.884,space,1.04,,982.884,45,0,983.885,983.885,983.885,,,,0,24,24,24,1,160,115,,,,,,,,
,,65a44d48297bacfcc92dfef1,65af564cc4d5832b250a1412,2024-01-23_00h02.50.948,bars,2023.2.3,Win32,165.0165017,657b66ea316d21385b68909f,,,,,,,,,,,983.885,984.884,,,985.381,985.63,,26,206,,,,,,,,,,,,,,,,bars/036.png,bars/mask008.png,,,,,,,,,,,,6,2,,,,,,,6,8,4,8,,,,,,,,,,,984.884,985.381,985.63,988.957,space,3.322,,988.957,61,6,989.956,989.956,989.959,,,,0,25,25,25,1,145,20,,,,,,,,
,,65a44d48297bacfcc92dfef1,65af564cc4d5832b250a1412,2024-01-23_00h02.50.948,bars,2023.2.3,Win32,165.0165017,657b66ea316d21385b68909f,,,,,,,,,,,989.959,990.957,,,991.454,991.702,,11,191,,,,,,,,,,,,,,,,bars/014.png,bars/mask008.png,,,,,,,,,,,,6,2,,,,,,,8,10,8,10,,,,,,,,,,,990.957,991.454,991.702,994.708,space,2.999,,994.708,69,11,995.708,995.708,995.71,,,,0,26,26,26,1,80,0,,,,,,,,
,,65a44d48297bacfcc92dfef1,65af564cc4d5832b250a1412,2024-01-23_00h02.50.948,bars,2023.2.3,Win32,165.0165017,657b66ea316d21385b68909f,,,,,,,,,,,995.71,996.709,,,997.205,997.453,,16,196,,,,,,,,,,,,,,,,bars/015.png,bars/mask000.png,,,,,,,,,,,,0,2,,,,,,,10,10,10,9,,,,,,,,,,,996.709,997.205,997.453,999.938,space,2.478,,999.938,86,36,1000.939,1000.939,1000.94,,,,0,27,27,27,1,110,160,,,,,,,,
,,65a44d48297bacfcc92dfef1,65af564cc4d5832b250a1412,2024-01-23_00h02.50.948,bars,2023.2.3,Win32,165.0165017,657b66ea316d21385b68909f,,,,,,,,,,,1000.94,1001.938,,,1002.435,1002.685,,113,113,,,,,,,,,,,,,,,,bars/019.png,bars/mask009.png,,,,,,,,,,,,7,2,,,,,,,10,10,10,9,,,,,,,,,,,1001.938,1002.435,1002.685,1005.084,space,2.395,,1005.084,68,8,1006.084,1006.084,1006.085,,,,0,28,28,28,1,45,105,,,,,,,,
,,65a44d48297bacfcc92dfef1,65af564cc4d5832b250a1412,2024-01-23_00h02.50.948,bars,2023.2.3,Win32,165.0165017,657b66ea316d21385b68909f,,,,,,,,,,,1006.085,1007.084,,,1007.581,1007.829,,21,201,,,,,,,,,,,,,,,,bars/039.png,bars/mask008.png,,,,,,,,,,,,1,1,,,,,,,10,10,10,8,,,,,,,,,,,1007.084,1007.581,1007.829,1011.684,space,3.851,,1011.684,26,84,1012.684,1012.684,1012.685,,,,0,29,29,29,1,175,105,,,,,,,,
,,65a44d48297bacfcc92dfef1,65af564cc4d5832b250a1412,2024-01-23_00h02.50.948,bars,2023.2.3,Win32,165.0165017,657b66ea316d21385b68909f,,,,,,,,,,,1012.686,1013.684,,,1014.181,1014.429,,103,103,,,,,,,,,,,,,,,,bars/019.png,bars/mask000.png,,,,,,,,,,,,7,2,,,,,,,8,8,9,8,,,,,,,,,,,1013.684,1014.181,1014.429,1017.266,space,2.831,,1017.266,58,2,1018.266,1018.266,1018.267,,,,0,30,30,30,1,45,105,,,,,,,,
,,65a44d48297bacfcc92dfef1,65af564cc4d5832b250a1412,2024-01-23_00h02.50.948,bars,2023.2.3,Win32,165.0165017,657b66ea316d21385b68909f,,,,,,,,,,,1018.267,1019.266,,,1019.763,1020.011,,5,185,,,,,,,,,,,,,,,,bars/035.png,bars/mask006.png,,,,,,,,,,,,5,1,,,,,,,10,6,7,5,,,,,,,,,,,1019.266,1019.763,1020.011,1021.423,space,1.409,,1021.424,10,55,1022.424,1022.424,1022.426,,,,0,31,31,31,1,175,60,,,,,,,,
,,65a44d48297bacfcc92dfef1,65af564cc4d5832b250a1412,2024-01-23_00h02.50.948,bars,2023.2.3,Win32,165.0165017,657b66ea316d21385b68909f,,,,,,,,,,,1022.426,1023.423,,,1023.921,1024.169,,166,-14,,,,,,,,,,,,,,,,bars/016.png,bars/mask009.png,,,,,,,,,,,,6,2,,,,,,,10,4,10,6,,,,,,,,,,,1023.423,1023.921,1024.169,1026.096,space,1.922,,1026.096,54,1,1027.097,1027.097,1027.098,,,,0,32,32,32,1,40,165,,,,,,,,
,,65a44d48297bacfcc92dfef1,65af564cc4d5832b250a1412,2024-01-23_00h02.50.948,bars,2023.2.3,Win32,165.0165017,657b66ea316d21385b68909f,,,,,,,,,,,1027.098,1028.096,,,1028.593,1028.842,,161,-19,,,,,,,,,,,,,,,,bars/004.png,bars/mask000.png,,,,,,,,,,,,0,2,,,,,,,8,6,8,8,,,,,,,,,,,1028.096,1028.593,1028.842,1033.017,space,4.169,,1033.017,44,36,1034.018,1034.018,1034.019,,,,0,33,33,33,1,25,125,,,,,,,,
,,65a44d48297bacfcc92dfef1,65af564cc4d5832b250a1412,2024-01-23_00h02.50.948,bars,2023.2.3,Win32,165.0165017,657b66ea316d21385b68909f,,,,,,,,,,,1034.019,1035.017,,,1035.515,1035.763,,37,37,,,,,,,,,,,,,,,,bars/010.png,bars/mask008.png,,,,,,,,,,,,1,2,,,,,,,10,4,9,3,,,,,,,,,,,1035.017,1035.515,1035.763,1037.248,space,1.478,,1037.248,52,18,1038.248,1038.248,1038.248,,,,0,34,34,34,1,165,55,,,,,,,,
,,65a44d48297bacfcc92dfef1,65af564cc4d5832b250a1412,2024-01-23_00h02.50.948,bars,2023.2.3,Win32,165.0165017,657b66ea316d21385b68909f,,,,,,,,,,,1038.248,1039.248,,,1039.744,1039.993,,114,114,,,,,,,,,,,,,,,,bars/005.png,bars/mask001.png,,,,,,,,,,,,0,2,,,,,,,10,2,10,3,,,,,,,,,,,1039.248,1039.744,1039.993,1043.944,space,3.947,,1043.944,76,26,1044.944,1044.944,1044.945,,,,0,35,35,35,1,10,140,,,,,,,,
,,65a44d48297bacfcc92dfef1,65af564cc4d5832b250a1412,2024-01-23_00h02.50.948,bars,2023.2.3,Win32,165.0165017,657b66ea316d21385b68909f,,,,,,,,,,,1044.945,1045.945,,,1046.441,1046.69,,57,57,,,,,,,,,,,,,,,,bars/038.png,bars/mask004.png,,,,,,,,,,,,1,2,,,,,,,10,0,10,1,,,,,,,,,,,1045.945,1046.441,1046.69,1049.417,space,2.723,,1049.417,72,13,1050.418,1050.418,1050.418,,,,0,36,36,36,1,165,70,,,,,,,,
,,65a44d48297bacfcc92dfef1,65af564cc4d5832b250a1412,2024-01-23_00h02.50.948,bars,2023.2.3,Win32,165.0165017,657b66ea316d21385b68909f,,,,,,,,,,,1050.418,1051.418,,,1051.914,1052.162,,168,-12,,,,,,,,,,,,,,,,bars/012.png,bars/mask000.png,,,,,,,,,,,,0,2,,,,,,,10,2,10,3,,,,,,,,,,,1051.418,1051.914,1052.162,1055.781,space,3.617,,1055.781,78,27,1056.781,1056.781,1056.782,,,,0,37,37,37,1,90,15,,,,,,,,
,,65a44d48297bacfcc92dfef1,65af564cc4d5832b250a1412,2024-01-23_00h02.50.948,bars,2023.2.3,Win32,165.0165017,657b66ea316d21385b68909f,,,,,,,,,,,1056.783,1057.781,,,1058.278,1058.527,,22,202,,,,,,,,,,,,,,,,bars/017.png,bars/mask005.png,,,,,,,,,,,,1,2,,,,,,,8,4,9,5,,,,,,,,,,,1057.781,1058.278,1058.527,1060.641,space,2.113,,1060.641,57,23,1061.642,1061.642,1061.643,,,,0,38,38,38,1,145,45,,,,,,,,
,,65a44d48297bacfcc92dfef1,65af564cc4d5832b250a1412,2024-01-23_00h02.50.948,bars,2023.2.3,Win32,165.0165017,657b66ea316d21385b68909f,,,,,,,,,,,1061.643,1062.642,,,1063.139,1063.387,,15,15,,,,,,,,,,,,,,,,bars/026.png,bars/mask005.png,,,,,,,,,,,,3,1,,,,,,,10,6,10,6,,,,,,,,,,,1062.642,1063.139,1063.387,1066.193,space,2.803,,1066.193,20,70,1067.193,1067.193,1067.194,,,,0,39,39,39,1,35,85,,,,,,,,
,,65a44d48297bacfcc92dfef1,65af564cc4d5832b250a1412,2024-01-23_00h02.50.948,bars,2023.2.3,Win32,165.0165017,657b66ea316d21385b68909f,,,,,,,,,,,1067.195,1068.193,,,1068.69,1068.939,,20,200,,,,,,,,,,,,,,,,bars/045.png,bars/mask000.png,,,,,,,,,,,,5,2,,,,,,,10,8,10,8,,,,,,,,,,,1068.193,1068.69,1068.939,1072.496,space,3.55,,1072.496,80,10,1073.496,1073.496,1073.498,,,,0,40,40,40,1,100,10,,,,,,,,
,,65a44d48297bacfcc92dfef1,65af564cc4d5832b250a1412,2024-01-23_00h02.50.948,bars,2023.2.3,Win32,165.0165017,657b66ea316d21385b68909f,,,,,,,,,,,1073.498,1074.496,,,1074.993,1075.241,,16,196,,,,,,,,,,,,,,,,bars/014.png,bars/mask004.png,,,,,,,,,,,,5,2,,,,,,,8,10,8,10,,,,,,,,,,,1074.496,1074.993,1075.241,1077.235,space,1.988,,1077.235,64,16,1078.235,1078.235,1078.236,,,,0,41,41,41,1,80,0,,,,,,,,
,,65a44d48297bacfcc92dfef1,65af564cc4d5832b250a1412,2024-01-23_00h02.50.948,bars,2023.2.3,Win32,165.0165017,657b66ea316d21385b68909f,,,,,,,,,,,1078.236,1079.235,,,1079.733,1079.981,,139,-41,,,,,,,,,,,,,,,,bars/004.png,bars/mask003.png,,,,,,,,,,,,4,2,,,,,,,10,8,9,7,,,,,,,,,,,1079.235,1079.733,1079.981,1083.393,space,3.408,,1083.393,66,14,1084.393,1084.393,1084.394,,,,0,42,42,42,1,25,125,,,,,,,,
,,65a44d48297bacfcc92dfef1,65af564cc4d5832b250a1412,2024-01-23_00h02.50.948,bars,2023.2.3,Win32,165.0165017,657b66ea316d21385b68909f,,,,,,,,,,,1084.394,1085.393,,,1085.89,1086.139,,155,-25,,,,,,,,,,,,,,,,bars/024.png,bars/mask002.png,,,,,,,,,,,,5,2,,,,,,,8,10,9,10,,,,,,,,,,,1085.393,1085.89,1086.139,1089.266,space,3.122,,1089.266,35,15,1090.266,1090.266,1090.268,,,,0,43,43,43,1,120,170,,,,,,,,
,,65a44d48297bacfcc92dfef1,65af564cc4d5832b250a1412,2024-01-23_00h02.50.948,bars,2023.2.3,Win32,165.0165017,657b66ea316d21385b68909f,,,,,,,,,,,1090.268,1091.265,,,1091.762,1092.011,,49,49,,,,,,,,,,,,,,,,bars/034.png,bars/mask001.png,,,,,,,,,,,,2,2,,,,,,,6,8,6,5,,,,,,,,,,,1091.265,1091.762,1092.011,1093.696,space,1.679,,1093.696,76,16,1094.696,1094.696,1094.697,,,,0,44,44,44,1,125,65,,,,,,,,
,,65a44d48297bacfcc92dfef1,65af564cc4d5832b250a1412,2024-01-23_00h02.50.948,bars,2023.2.3,Win32,165.0165017,657b66ea316d21385b68909f,,,,,,,,,,,1094.697,1095.696,,,1096.193,1096.441,,102,102,,,,,,,,,,,,,,,,bars/041.png,bars/mask002.png,,,,,,,,,,,,4,2,,,,,,,4,10,3,10,,,,,,,,,,,1095.696,1096.193,1096.441,1099.672,space,3.227,,1099.672,82,17,1100.672,1100.672,1100.672,,,,0,45,45,45,1,20,85,,,,,,,,
,,65a44d48297bacfcc92dfef1,65af564cc4d5832b250a1412,2024-01-23_00h02.50.948,bars,2023.2.3,Win32,165.0165017,657b66ea316d21385b68909f,,,,,,,,,,,1100.672,1101.672,,,1102.169,1102.417,,93,93,,,,,,,,,,,,,,,,bars/002.png,bars/mask009.png,,,,,,,,,,,,7,2,,,,,,,6,10,6,10,,,,,,,,,,,1101.672,1102.168,1102.417,1105.484,space,3.062,,1105.484,37,8,1106.484,1106.484,1106.485,,,,0,46,46,46,1,130,85,,,,,,,,
,,65a44d48297bacfcc92dfef1,65af564cc4d5832b250a1412,2024-01-23_00h02.50.948,bars,2023.2.3,Win32,165.0165017,657b66ea316d21385b68909f,,,,,,,,,,,1106.485,1107.483,,,1107.981,1108.229,,170,-10,,,,,,,,,,,,,,,,bars/015.png,bars/mask002.png,,,,,,,,,,,,5,2,,,,,,,8,8,7,8,,,,,,,,,,,1107.483,1107.981,1108.229,1111.441,space,3.21,,1111.441,60,10,1112.441,1112.441,1112.442,,,,0,47,47,47,1,110,160,,,,,,,,
,,65a44d48297bacfcc92dfef1,65af564cc4d5832b250a1412,2024-01-23_00h02.50.948,bars,2023.2.3,Win32,165.0165017,657b66ea316d21385b68909f,,,,,,,,,,,1112.442,1113.441,,,1113.939,1114.187,,18,198,,,,,,,,,,,,,,,,bars/022.png,bars/mask000.png,,,,,,,,,,,,6,2,,,,,,,6,6,8,6,,,,,,,,,,,1113.441,1113.939,1114.187,1116.866,space,2.672,,1116.866,77,2,1117.866,1117.866,1117.867,,,,0,48,48,48,1,95,20,,,,,,,,
,,65a44d48297bacfcc92dfef1,65af564cc4d5832b250a1412,2024-01-23_00h02.50.948,bars,2023.2.3,Win32,165.0165017,657b66ea316d21385b68909f,,,,,,,,,,,1117.867,1118.866,,,1119.363,1119.611,,89,89,,,,,,,,,,,,,,,,bars/001.png,bars/mask000.png,,,,,,,,,,,,7,2,,,,,,,4,8,5,8,,,,,,,,,,,1118.866,1119.363,1119.611,1122.344,space,2.727,,1122.344,41,4,1123.345,1123.345,1123.346,,,,0,49,49,49,1,130,85,,,,,,,,
,,65a44d48297bacfcc92dfef1,65af564cc4d5832b250a1412,2024-01-23_00h02.50.948,bars,2023.2.3,Win32,165.0165017,657b66ea316d21385b68909f,,,,,,,,,,,,,,,,,,,,,,,,,,,,,,,,,,,,,,,,,,,,,,,,,,,,,,,,,,,,,,,,,,,,,,,,,,,,,,,,,,,,,,,,,,,,,1123.346,1183.655,0,1,1,2,1,sequence_tables/blk035.csv
,,65a44d48297bacfcc92dfef1,65af564cc4d5832b250a1412,2024-01-23_00h02.50.948,bars,2023.2.3,Win32,165.0165017,657b66ea316d21385b68909f,,,,,,,,,,,1216.457,1217.453,,,1217.95,1218.198,,87,87,,,,,,,,,,,,,,,,bars/018.png,bars/mask003.png,,,,,,,,,,,,2,2,,,,,,,8,3,7,2,,,,,,1183.657,1216.454,space,32.788,,1217.453,1217.95,1218.198,1219.32,space,1.118,,1219.32,63,3,1220.32,1220.32,1220.321,,,,0,0,0,0,1,150,90,,,,,,,,
,,65a44d48297bacfcc92dfef1,65af564cc4d5832b250a1412,2024-01-23_00h02.50.948,bars,2023.2.3,Win32,165.0165017,657b66ea316d21385b68909f,,,,,,,,,,,1220.321,1221.32,,,1221.817,1222.065,,88,88,,,,,,,,,,,,,,,,bars/006.png,bars/mask001.png,,,,,,,,,,,,2,2,,,,,,,6,5,6,4,,,,,,,,,,,1221.32,1221.817,1222.065,1225.702,space,3.632,,1225.702,53,12,1226.702,1226.702,1226.703,,,,0,1,1,1,1,35,100,,,,,,,,
,,65a44d48297bacfcc92dfef1,65af564cc4d5832b250a1412,2024-01-23_00h02.50.948,bars,2023.2.3,Win32,165.0165017,657b66ea316d21385b68909f,,,,,,,,,,,1226.703,1227.701,,,1228.199,1228.447,,39,39,,,,,,,,,,,,,,,,bars/010.png,bars/mask007.png,,,,,,,,,,,,1,2,,,,,,,8,3,8,3,,,,,,,,,,,1227.701,1228.199,1228.447,1230.95,space,2.5,,1230.95,54,16,1231.95,1231.95,1231.951,,,,0,2,2,2,1,165,55,,,,,,,,
,,65a44d48297bacfcc92dfef1,65af564cc4d5832b250a1412,2024-01-23_00h02.50.948,bars,2023.2.3,Win32,165.0165017,657b66ea316d21385b68909f,,,,,,,,,,,1231.951,1232.95,,,1233.447,1233.696,,109,109,,,,,,,,,,,,,,,,bars/004.png,bars/mask009.png,,,,,,,,,,,,2,2,,,,,,,6,5,5,5,,,,,,,,,,,1232.951,1233.447,1233.696,1236.871,space,3.171,,1236.871,84,16,1237.871,1237.871,1237.872,,,,0,3,3,3,1,25,125,,,,,,,,
,,65a44d48297bacfcc92dfef1,65af564cc4d5832b250a1412,2024-01-23_00h02.50.948,bars,2023.2.3,Win32,165.0165017,657b66ea316d21385b68909f,,,,,,,,,,,1237.872,1238.871,,,1239.369,1239.617,,30,30,,,,,,,,,,,,,,,,bars/031.png,bars/mask006.png,,,,,,,,,,,,3,2,,,,,,,8,3,9,3,,,,,,,,,,,1238.871,1239.369,1239.617,1241.229,space,1.609,,1241.229,90,5,1242.229,1242.229,1242.23,,,,0,4,4,4,1,120,35,,,,,,,,
,,65a44d48297bacfcc92dfef1,65af564cc4d5832b250a1412,2024-01-23_00h02.50.948,bars,2023.2.3,Win32,165.0165017,657b66ea316d21385b68909f,,,,,,,,,,,1242.231,1243.229,,,1243.725,1243.975,,142,142,,,,,,,,,,,,,,,,bars/003.png,bars/mask003.png,,,,,,,,,,,,2,2,,,,,,,6,1,6,2,,,,,,,,,,,1243.229,1243.725,1243.975,1245.871,space,1.891,,1245.871,63,2,1246.871,1246.871,1246.872,,,,0,5,5,5,1,25,140,,,,,,,,
,,65a44d48297bacfcc92dfef1,65af564cc4d5832b250a1412,2024-01-23_00h02.50.948,bars,2023.2.3,Win32,165.0165017,657b66ea316d21385b68909f,,,,,,,,,,,1246.872,1247.871,,,1248.368,1248.617,,143,143,,,,,,,,,,,,,,,,bars/044.png,bars/mask000.png,,,,,,,,,,,,2,2,,,,,,,4,3,3,3,,,,,,,,,,,1247.871,1248.368,1248.617,1249.853,space,1.23,,1249.854,68,12,1250.854,1250.854,1250.854,,,,0,6,6,6,1,75,155,,,,,,,,
,,65a44d48297bacfcc92dfef1,65af564cc4d5832b250a1412,2024-01-23_00h02.50.948,bars,2023.2.3,Win32,165.0165017,657b66ea316d21385b68909f,,,,,,,,,,,1250.854,1251.853,,,1252.35,1252.599,,30,210,,,,,,,,,,,,,,,,bars/027.png,bars/mask008.png,,,,,,,,,,,,0,2,,,,,,,6,1,7,1,,,,,,,,,,,1251.853,1252.35,1252.599,1256.58,space,3.977,,1256.58,80,20,1257.58,1257.58,1257.581,,,,0,7,7,7,1,110,50,,,,,,,,
,,65a44d48297bacfcc92dfef1,65af564cc4d5832b250a1412,2024-01-23_00h02.50.948,bars,2023.2.3,Win32,165.0165017,657b66ea316d21385b68909f,,,,,,,,,,,1257.581,1258.58,,,1259.077,1259.326,,10,10,,,,,,,,,,,,,,,,bars/032.png,bars/mask003.png,,,,,,,,,,,,3,2,,,,,,,8,3,9,4,,,,,,,,,,,1258.58,1259.077,1259.326,1261.38,space,2.05,,1261.38,65,10,1262.38,1262.38,1262.381,,,,0,8,8,8,1,125,20,,,,,,,,
,,65a44d48297bacfcc92dfef1,65af564cc4d5832b250a1412,2024-01-23_00h02.50.948,bars,2023.2.3,Win32,165.0165017,657b66ea316d21385b68909f,,,,,,,,,,,1262.381,1263.381,,,1263.877,1264.125,,106,106,,,,,,,,,,,,,,,,bars/009.png,bars/mask005.png,,,,,,,,,,,,1,2,,,,,,,10,1,8,1,,,,,,,,,,,1263.381,1263.877,1264.125,1267.059,space,2.93,,1267.06,89,1,1268.06,1268.06,1268.06,,,,0,9,9,9,1,15,105,,,,,,,,
,,65a44d48297bacfcc92dfef1,65af564cc4d5832b250a1412,2024-01-23_00h02.50.948,bars,2023.2.3,Win32,165.0165017,657b66ea316d21385b68909f,,,,,,,,,,,1268.06,1269.059,,,1269.556,1269.804,,143,143,,,,,,,,,,,,,,,,bars/044.png,bars/mask007.png,,,,,,,,,,,,1,2,,,,,,,8,3,7,1,,,,,,,,,,,1269.059,1269.556,1269.804,1271.962,space,2.152,,1271.962,68,12,1272.963,1272.963,1272.965,,,,0,10,10,10,1,75,155,,,,,,,,
,,65a44d48297bacfcc92dfef1,65af564cc4d5832b250a1412,2024-01-23_00h02.50.948,bars,2023.2.3,Win32,165.0165017,657b66ea316d21385b68909f,,,,,,,,,,,1272.965,1273.963,,,1274.459,1274.707,,112,112,,,,,,,,,,,,,,,,bars/041.png,bars/mask000.png,,,,,,,,,,,,0,2,,,,,,,10,1,8,2,,,,,,,,,,,1273.963,1274.459,1274.707,1278.871,space,4.158,,1278.871,88,27,1279.871,1279.871,1279.872,,,,0,11,11,11,1,20,85,,,,,,,,
,,65a44d48297bacfcc92dfef1,65af564cc4d5832b250a1412,2024-01-23_00h02.50.948,bars,2023.2.3,Win32,165.0165017,657b66ea316d21385b68909f,,,,,,,,,,,1279.872,1280.871,,,1281.368,1281.616,,15,195,,,,,,,,,,,,,,,,bars/015.png,bars/mask002.png,,,,,,,,,,,,0,2,,,,,,,10,0,10,0,,,,,,,,,,,1280.871,1281.368,1281.616,1283.308,space,1.689,,1283.308,85,35,1284.307,1284.308,1284.308,,,,0,12,12,12,1,110,160,,,,,,,,
,,65a44d48297bacfcc92dfef1,65af564cc4d5832b250a1412,2024-01-23_00h02.50.948,bars,2023.2.3,Win32,165.0165017,657b66ea316d21385b68909f,,,,,,,,,,,1284.308,1285.307,,,1285.804,1286.053,,99,99,,,,,,,,,,,,,,,,bars/018.png,bars/mask000.png,,,,,,,,,,,,1,2,,,,,,,8,2,9,2,,,,,,,,,,,1285.307,1285.804,1286.053,1288.907,space,2.853,,1288.907,51,9,1289.908,1289.908,1289.909,,,,0,13,13,13,1,150,90,,,,,,,,
,,65a44d48297bacfcc92dfef1,65af564cc4d5832b250a1412,2024-01-23_00h02.50.948,bars,2023.2.3,Win32,165.0165017,657b66ea316d21385b68909f,,,,,,,,,,,1289.909,1290.908,,,1291.405,1291.653,,45,45,,,,,,,,,,,,,,,,bars/029.png,bars/mask005.png,,,,,,,,,,,,6,2,,,,,,,10,4,8,6,,,,,,,,,,,1290.908,1291.404,1291.653,1293.901,space,2.243,,1293.901,45,0,1294.901,1294.901,1294.902,,,,0,14,14,14,1,90,45,,,,,,,,
,,65a44d48297bacfcc92dfef1,65af564cc4d5832b250a1412,2024-01-23_00h02.50.948,bars,2023.2.3,Win32,165.0165017,657b66ea316d21385b68909f,,,,,,,,,,,1294.902,1295.902,,,1296.399,1296.646,,12,12,,,,,,,,,,,,,,,,bars/032.png,bars/mask003.png,,,,,,,,,,,,4,2,,,,,,,8,6,8,6,,,,,,,,,,,1295.902,1296.399,1296.647,1298.029,space,1.378,,1298.029,67,8,1299.029,1299.029,1299.029,,,,0,15,15,15,1,125,20,,,,,,,,
,,65a44d48297bacfcc92dfef1,65af564cc4d5832b250a1412,2024-01-23_00h02.50.948,bars,2023.2.3,Win32,165.0165017,657b66ea316d21385b68909f,,,,,,,,,,,1299.029,1300.029,,,1300.526,1300.775,,39,39,,,,,,,,,,,,,,,,bars/022.png,bars/mask004.png,,,,,,,,,,,,3,2,,,,,,,10,8,10,9,,,,,,,,,,,1300.029,1300.526,1300.775,1303.392,space,2.613,,1303.392,56,19,1304.393,1304.393,1304.393,,,,0,16,16,16,1,95,20,,,,,,,,
,,65a44d48297bacfcc92dfef1,65af564cc4d5832b250a1412,2024-01-23_00h02.50.948,bars,2023.2.3,Win32,165.0165017,657b66ea316d21385b68909f,,,,,,,,,,,1304.393,1305.393,,,1305.889,1306.138,,163,163,,,,,,,,,,,,,,,,bars/033.png,bars/mask002.png,,,,,,,,,,,,7,2,,,,,,,10,10,10,10,,,,,,,,,,,1305.393,1305.889,1306.138,1307.647,space,1.506,,1307.647,42,8,1308.647,1308.647,1308.648,,,,0,17,17,17,1,25,155,,,,,,,,
,,65a44d48297bacfcc92dfef1,65af564cc4d5832b250a1412,2024-01-23_00h02.50.948,bars,2023.2.3,Win32,165.0165017,657b66ea316d21385b68909f,,,,,,,,,,,1308.648,1309.647,,,1310.144,1310.392,,137,137,,,,,,,,,,,,,,,,bars/044.png,bars/mask007.png,,,,,,,,,,,,4,2,,,,,,,8,8,9,9,,,,,,,,,,,1309.647,1310.144,1310.392,1312.889,space,2.492,,1312.89,62,18,1313.889,1313.889,1313.89,,,,0,18,18,18,1,75,155,,,,,,,,
,,65a44d48297bacfcc92dfef1,65af564cc4d5832b250a1412,2024-01-23_00h02.50.948,bars,2023.2.3,Win32,165.0165017,657b66ea316d21385b68909f,,,,,,,,,,,1313.89,1314.889,,,1315.386,1315.635,,147,147,,,,,,,,,,,,,,,,bars/044.png,bars/mask004.png,,,,,,,,,,,,7,2,,,,,,,6,10,5,10,,,,,,,,,,,1314.889,1315.386,1315.635,1318.308,space,2.67,,1318.308,72,8,1319.308,1319.308,1319.308,,,,0,19,19,19,1,75,155,,,,,,,,
,,65a44d48297bacfcc92dfef1,65af564cc4d5832b250a1412,2024-01-23_00h02.50.948,bars,2023.2.3,Win32,165.0165017,657b66ea316d21385b68909f,,,,,,,,,,,1319.309,1320.307,,,1320.804,1321.053,,77,77,,,,,,,,,,,,,,,,bars/042.png,bars/mask008.png,,,,,,,,,,,,7,2,,,,,,,8,10,7,8,,,,,,,,,,,1320.307,1320.804,1321.053,1323.229,space,2.173,,1323.229,68,2,1324.229,1324.229,1324.23,,,,0,20,20,20,1,145,75,,,,,,,,
,,65a44d48297bacfcc92dfef1,65af564cc4d5832b250a1412,2024-01-23_00h02.50.948,bars,2023.2.3,Win32,165.0165017,657b66ea316d21385b68909f,,,,,,,,,,,1324.23,1325.228,,,1325.726,1325.974,,24,24,,,,,,,,,,,,,,,,bars/031.png,bars/mask005.png,,,,,,,,,,,,5,2,,,,,,,6,8,5,8,,,,,,,,,,,1325.228,1325.726,1325.974,1326.701,space,0.722,,1326.701,84,11,1327.702,1327.702,1327.702,,,,0,21,21,21,1,120,35,,,,,,,,
,,65a44d48297bacfcc92dfef1,65af564cc4d5832b250a1412,2024-01-23_00h02.50.948,bars,2023.2.3,Win32,165.0165017,657b66ea316d21385b68909f,,,,,,,,,,,1327.703,1328.701,,,1329.198,1329.447,,113,113,,,,,,,,,,,,,,,,bars/009.png,bars/mask005.png,,,,,,,,,,,,7,2,,,,,,,4,10,3,10,,,,,,,,,,,1328.701,1329.198,1329.447,1331.198,space,1.748,,1331.198,82,8,1332.198,1332.198,1332.199,,,,0,22,22,22,1,15,105,,,,,,,,
,,65a44d48297bacfcc92dfef1,65af564cc4d5832b250a1412,2024-01-23_00h02.50.948,bars,2023.2.3,Win32,165.0165017,657b66ea316d21385b68909f,,,,,,,,,,,1332.199,1333.198,,,1333.695,1333.944,,28,28,,,,,,,,,,,,,,,,bars/007.png,bars/mask008.png,,,,,,,,,,,,1,2,,,,,,,2,10,2,10,,,,,,,,,,,1333.198,1333.695,1333.944,1335.21,space,1.261,,1335.211,33,27,1336.21,1336.21,1336.211,,,,0,23,23,23,1,175,55,,,,,,,,
,,65a44d48297bacfcc92dfef1,65af564cc4d5832b250a1412,2024-01-23_00h02.50.948,bars,2023.2.3,Win32,165.0165017,657b66ea316d21385b68909f,,,,,,,,,,,1336.211,1337.21,,,1337.707,1337.956,,30,210,,,,,,,,,,,,,,,,bars/010.png,bars/mask001.png,,,,,,,,,,,,1,2,,,,,,,0,8,0,8,,,,,,,,,,,1337.21,1337.707,1337.957,1340.15,space,2.188,,1340.15,45,25,1341.15,1341.15,1341.152,,,,0,24,24,24,1,165,55,,,,,,,,
,,65a44d48297bacfcc92dfef1,65af564cc4d5832b250a1412,2024-01-23_00h02.50.948,bars,2023.2.3,Win32,165.0165017,657b66ea316d21385b68909f,,,,,,,,,,,1341.153,1342.15,,,1342.647,1342.895,,94,94,,,,,,,,,,,,,,,,bars/001.png,bars/mask000.png,,,,,,,,,,,,3,2,,,,,,,2,6,3,4,,,,,,,,,,,1342.15,1342.647,1342.895,1344.44,space,1.539,,1344.44,36,9,1345.441,1345.441,1345.442,,,,0,25,25,25,1,130,85,,,,,,,,
,,65a44d48297bacfcc92dfef1,65af564cc4d5832b250a1412,2024-01-23_00h02.50.948,bars,2023.2.3,Win32,165.0165017,657b66ea316d21385b68909f,,,,,,,,,,,1345.442,1346.44,,,1346.937,1347.186,,169,-11,,,,,,,,,,,,,,,,bars/012.png,bars/mask008.png,,,,,,,,,,,,1,2,,,,,,,0,8,0,6,,,,,,,,,,,1346.44,1346.937,1347.186,1349.955,space,2.767,,1349.955,79,26,1350.955,1350.956,1350.957,,,,0,26,26,26,1,90,15,,,,,,,,
,,65a44d48297bacfcc92dfef1,65af564cc4d5832b250a1412,2024-01-23_00h02.50.948,bars,2023.2.3,Win32,165.0165017,657b66ea316d21385b68909f,,,,,,,,,,,1350.958,1351.956,,,1352.453,1352.701,,19,199,,,,,,,,,,,,,,,,bars/013.png,bars/mask000.png,,,,,,,,,,,,6,2,,,,,,,2,10,4,9,,,,,,,,,,,1351.956,1352.452,1352.701,1354.368,space,1.663,,1354.369,56,9,1355.368,1355.368,1355.369,,,,0,27,27,27,1,75,10,,,,,,,,
,,65a44d48297bacfcc92dfef1,65af564cc4d5832b250a1412,2024-01-23_00h02.50.948,bars,2023.2.3,Win32,165.0165017,657b66ea316d21385b68909f,,,,,,,,,,,1355.369,1356.368,,,1356.871,1357.119,,146,146,,,,,,,,,,,,,,,,bars/044.png,bars/mask005.png,,,,,,,,,,,,6,2,,,,,,,0,8,0,9,,,,,,,,,,,1356.369,1356.871,1357.119,1358.332,space,1.206,,1358.332,71,9,1359.331,1359.331,1359.332,,,,0,28,28,28,1,75,155,,,,,,,,
,,65a44d48297bacfcc92dfef1,65af564cc4d5832b250a1412,2024-01-23_00h02.50.948,bars,2023.2.3,Win32,165.0165017,657b66ea316d21385b68909f,,,,,,,,,,,1359.332,1360.331,,,1360.828,1361.077,,140,140,,,,,,,,,,,,,,,,bars/005.png,bars/mask008.png,,,,,,,,,,,,10,2,,,,,,,0,10,0,10,,,,,,,,,,,1360.331,1360.828,1361.077,1364.277,space,3.196,,1364.277,50,0,1365.277,1365.277,1365.278,,,,0,29,29,29,1,10,140,,,,,,,,
,,65a44d48297bacfcc92dfef1,65af564cc4d5832b250a1412,2024-01-23_00h02.50.948,bars,2023.2.3,Win32,165.0165017,657b66ea316d21385b68909f,,,,,,,,,,,1365.278,1366.277,,,1366.774,1367.023,,110,110,,,,,,,,,,,,,,,,bars/046.png,bars/mask007.png,,,,,,,,,,,,1,2,,,,,,,2,8,0,9,,,,,,,,,,,1366.277,1366.774,1367.023,1369.689,space,2.661,,1369.689,45,25,1370.689,1370.689,1370.689,,,,0,30,30,30,1,155,85,,,,,,,,
,,65a44d48297bacfcc92dfef1,65af564cc4d5832b250a1412,2024-01-23_00h02.50.948,bars,2023.2.3,Win32,165.0165017,657b66ea316d21385b68909f,,,,,,,,,,,1370.689,1371.689,,,1372.187,1372.435,,31,211,,,,,,,,,,,,,,,,bars/036.png,bars/mask002.png,,,,,,,,,,,,3,2,,,,,,,0,6,1,5,,,,,,,,,,,1371.689,1372.187,1372.435,1375.708,space,3.269,,1375.708,66,11,1376.707,1376.707,1376.708,,,,0,31,31,31,1,145,20,,,,,,,,
,,65a44d48297bacfcc92dfef1,65af564cc4d5832b250a1412,2024-01-23_00h02.50.948,bars,2023.2.3,Win32,165.0165017,657b66ea316d21385b68909f,,,,,,,,,,,1376.708,1377.707,,,1378.205,1378.453,,115,115,,,,,,,,,,,,,,,,bars/005.png,bars/mask008.png,,,,,,,,,,,,0,2,,,,,,,2,4,2,3,,,,,,,,,,,1377.707,1378.205,1378.453,1380.799,space,2.339,,1380.799,75,25,1381.799,1381.799,1381.8,,,,0,32,32,32,1,10,140,,,,,,,,
,,65a44d48297bacfcc92dfef1,65af564cc4d5832b250a1412,2024-01-23_00h02.50.948,bars,2023.2.3,Win32,165.0165017,657b66ea316d21385b68909f,,,,,,,,,,,1381.8,1382.798,,,1383.295,1383.544,,47,47,,,,,,,,,,,,,,,,bars/025.png,bars/mask005.png,,,,,,,,,,,,2,2,,,,,,,4,2,4,2,,,,,,,,,,,1382.798,1383.295,1383.544,1385.628,space,2.08,,1385.628,58,7,1386.628,1386.629,1386.629,,,,0,33,33,33,1,105,40,,,,,,,,
,,65a44d48297bacfcc92dfef1,65af564cc4d5832b250a1412,2024-01-23_00h02.50.948,bars,2023.2.3,Win32,165.0165017,657b66ea316d21385b68909f,,,,,,,,,,,1386.63,1387.629,,,1388.126,1388.374,,97,-83,,,,,,,,,,,,,,,,bars/039.png,bars/mask003.png,,,,,,,,,,,,1,2,,,,,,,6,0,5,1,,,,,,,,,,,1387.629,1388.126,1388.374,1391.998,space,3.619,,1391.998,78,8,1392.998,1392.998,1392.999,,,,0,34,34,34,1,175,105,,,,,,,,
,,65a44d48297bacfcc92dfef1,65af564cc4d5832b250a1412,2024-01-23_00h02.50.948,bars,2023.2.3,Win32,165.0165017,657b66ea316d21385b68909f,,,,,,,,,,,1392.999,1393.998,,,1394.495,1394.744,,162,162,,,,,,,,,,,,,,,,bars/016.png,bars/mask009.png,,,,,,,,,,,,4,2,,,,,,,4,2,2,4,,,,,,,,,,,1393.998,1394.495,1394.744,1398.768,space,4.018,,1398.768,58,3,1399.768,1399.768,1399.769,,,,0,35,35,35,1,40,165,,,,,,,,
,,65a44d48297bacfcc92dfef1,65af564cc4d5832b250a1412,2024-01-23_00h02.50.948,bars,2023.2.3,Win32,165.0165017,657b66ea316d21385b68909f,,,,,,,,,,,1399.769,1400.768,,,1401.265,1401.513,,143,-37,,,,,,,,,,,,,,,,bars/000.png,bars/mask003.png,,,,,,,,,,,,4,2,,,,,,,2,4,2,4,,,,,,,,,,,1400.768,1401.265,1401.513,1403.786,space,2.269,,1403.786,77,2,1404.786,1404.787,1404.788,,,,0,36,36,36,1,40,145,,,,,,,,
,,65a44d48297bacfcc92dfef1,65af564cc4d5832b250a1412,2024-01-23_00h02.50.948,bars,2023.2.3,Win32,165.0165017,657b66ea316d21385b68909f,,,,,,,,,,,1404.789,1405.786,,,1406.283,1406.532,,177,177,,,,,,,,,,,,,,,,bars/008.png,bars/mask009.png,,,,,,,,,,,,3,2,,,,,,,4,2,4,3,,,,,,,,,,,1405.786,1406.283,1406.532,1409.695,space,3.161,,1409.695,67,3,1410.695,1410.695,1410.697,,,,0,37,37,37,1,110,0,,,,,,,,
,,65a44d48297bacfcc92dfef1,65af564cc4d5832b250a1412,2024-01-23_00h02.50.948,bars,2023.2.3,Win32,165.0165017,657b66ea316d21385b68909f,,,,,,,,,,,1410.697,1411.695,,,1412.192,1412.441,,103,103,,,,,,,,,,,,,,,,bars/018.png,bars/mask007.png,,,,,,,,,,,,3,2,,,,,,,6,4,6,5,,,,,,,,,,,1411.695,1412.192,1412.441,1414.065,space,1.623,,1414.065,47,13,1415.065,1415.065,1415.066,,,,0,38,38,38,1,150,90,,,,,,,,
,,65a44d48297bacfcc92dfef1,65af564cc4d5832b250a1412,2024-01-23_00h02.50.948,bars,2023.2.3,Win32,165.0165017,657b66ea316d21385b68909f,,,,,,,,,,,1415.066,1416.065,,,1416.55,1416.792,,114,114,,,,,,,,,,,,,,,,bars/009.png,bars/mask001.png,,,,,,,,,,,,5,2,,,,,,,4,6,6,7,,,,,,,,,,,1416.065,1416.55,1416.792,1418.604,space,1.811,,1418.604,81,9,1419.604,1419.604,1419.605,,,,0,39,39,39,1,15,105,,,,,,,,
,,65a44d48297bacfcc92dfef1,65af564cc4d5832b250a1412,2024-01-23_00h02.50.948,bars,2023.2.3,Win32,165.0165017,657b66ea316d21385b68909f,,,,,,,,,,,1419.605,1420.604,,,1421.101,1421.349,,18,198,,,,,,,,,,,,,,,,bars/014.png,bars/mask005.png,,,,,,,,,,,,2,2,,,,,,,6,4,7,4,,,,,,,,,,,1420.604,1421.101,1421.349,1424.755,space,3.404,,1424.755,62,18,1425.756,1425.756,1425.756,,,,0,40,40,40,1,80,0,,,,,,,,
,,65a44d48297bacfcc92dfef1,65af564cc4d5832b250a1412,2024-01-23_00h02.50.948,bars,2023.2.3,Win32,165.0165017,657b66ea316d21385b68909f,,,,,,,,,,,1425.756,1426.756,,,1427.253,1427.501,,137,137,,,,,,,,,,,,,,,,bars/003.png,bars/mask003.png,,,,,,,,,,,,1,2,,,,,,,4,2,5,1,,,,,,,,,,,1426.756,1427.253,1427.501,1430.95,space,3.443,,1430.95,68,3,1431.949,1431.949,1431.95,,,,0,41,41,41,1,25,140,,,,,,,,
,,65a44d48297bacfcc92dfef1,65af564cc4d5832b250a1412,2024-01-23_00h02.50.948,bars,2023.2.3,Win32,165.0165017,657b66ea316d21385b68909f,,,,,,,,,,,1431.95,1432.95,,,1433.446,1433.695,,34,214,,,,,,,,,,,,,,,,bars/025.png,bars/mask006.png,,,,,,,,,,,,3,2,,,,,,,2,4,3,4,,,,,,,,,,,1432.95,1433.446,1433.695,1436.665,space,2.968,,1436.665,71,6,1437.665,1437.665,1437.666,,,,0,42,42,42,1,105,40,,,,,,,,
,,65a44d48297bacfcc92dfef1,65af564cc4d5832b250a1412,2024-01-23_00h02.50.948,bars,2023.2.3,Win32,165.0165017,657b66ea316d21385b68909f,,,,,,,,,,,1437.667,1438.665,,,1439.162,1439.41,,76,76,,,,,,,,,,,,,,,,bars/047.png,bars/mask007.png,,,,,,,,,,,,1,2,,,,,,,4,2,5,1,,,,,,,,,,,1438.665,1439.162,1439.41,1442.58,space,3.164,,1442.58,61,6,1443.58,1443.58,1443.58,,,,0,43,43,43,1,15,70,,,,,,,,
,,65a44d48297bacfcc92dfef1,65af564cc4d5832b250a1412,2024-01-23_00h02.50.948,bars,2023.2.3,Win32,165.0165017,657b66ea316d21385b68909f,,,,,,,,,,,1443.581,1444.58,,,1445.077,1445.326,,32,32,,,,,,,,,,,,,,,,bars/007.png,bars/mask004.png,,,,,,,,,,,,0,2,,,,,,,6,0,5,0,,,,,,,,,,,1444.58,1445.077,1445.326,1446.834,space,1.507,,1446.834,37,23,1447.835,1447.835,1447.836,,,,0,44,44,44,1,175,55,,,,,,,,
,,65a44d48297bacfcc92dfef1,65af564cc4d5832b250a1412,2024-01-23_00h02.50.948,bars,2023.2.3,Win32,165.0165017,657b66ea316d21385b68909f,,,,,,,,,,,1447.836,1448.834,,,1449.331,1449.579,,88,88,,,,,,,,,,,,,,,,bars/002.png,bars/mask007.png,,,,,,,,,,,,0,2,,,,,,,8,0,9,0,,,,,,,,,,,1448.834,1449.331,1449.579,1451.968,space,2.381,,1451.968,42,3,1452.968,1452.968,1452.969,,,,0,45,45,45,1,130,85,,,,,,,,
,,65a44d48297bacfcc92dfef1,65af564cc4d5832b250a1412,2024-01-23_00h02.50.948,bars,2023.2.3,Win32,165.0165017,657b66ea316d21385b68909f,,,,,,,,,,,1452.969,1453.967,,,1454.465,1454.713,,171,-9,,,,,,,,,,,,,,,,bars/045.png,bars/mask009.png,,,,,,,,,,,,0,2,,,,,,,6,0,8,0,,,,,,,,,,,1453.967,1454.465,1454.713,1457.356,space,2.64,,1457.356,71,19,1458.356,1458.356,1458.356,,,,0,46,46,46,1,100,10,,,,,,,,
,,65a44d48297bacfcc92dfef1,65af564cc4d5832b250a1412,2024-01-23_00h02.50.948,bars,2023.2.3,Win32,165.0165017,657b66ea316d21385b68909f,,,,,,,,,,,1458.356,1459.356,,,1459.852,1460.101,,3,183,,,,,,,,,,,,,,,,bars/015.png,bars/mask005.png,,,,,,,,,,,,1,2,,,,,,,8,2,8,3,,,,,,,,,,,1459.356,1459.852,1460.101,1461.998,space,1.89,,1461.998,73,23,1462.998,1462.998,1462.999,,,,0,47,47,47,1,110,160,,,,,,,,
,,65a44d48297bacfcc92dfef1,65af564cc4d5832b250a1412,2024-01-23_00h02.50.948,bars,2023.2.3,Win32,165.0165017,657b66ea316d21385b68909f,,,,,,,,,,,1462.999,1463.998,,,1464.495,1464.743,,168,-12,,,,,,,,,,,,,,,,bars/033.png,bars/mask003.png,,,,,,,,,,,,2,2,,,,,,,10,4,10,3,,,,,,,,,,,1463.998,1464.495,1464.743,1466.507,space,1.759,,1466.507,37,13,1467.507,1467.507,1467.507,,,,0,48,48,48,1,25,155,,,,,,,,
,,65a44d48297bacfcc92dfef1,65af564cc4d5832b250a1412,2024-01-23_00h02.50.948,bars,2023.2.3,Win32,165.0165017,657b66ea316d21385b68909f,,,,,,,,,,,1467.507,1468.507,,,1469.004,1469.253,,35,35,,,,,,,,,,,,,,,,bars/029.png,bars/mask002.png,,,,,,,,,,,,1,2,,,,,,,10,2,10,2,,,,,,,,,,,1468.507,1469.004,1469.253,1472.428,space,3.17,,1472.429,55,10,1473.429,1473.429,1473.431,,,,0,49,49,49,1,90,45,,,,,,,,
,,65a44d48297bacfcc92dfef1,65af564cc4d5832b250a1412,2024-01-23_00h02.50.948,bars,2023.2.3,Win32,165.0165017,657b66ea316d21385b68909f,,,,,,,,,,,,,,,,,,,,,,,,,,,,,,,,,,,,,,,,,,,,,,,,,,,,,,,,,,,,,,,,,,,,,,,,,,,,,,,,,,,,,,,,,,,,,1473.431,1533.428,0,2,2,0,1,sequence_tables/blk046.csv
,,65a44d48297bacfcc92dfef1,65af564cc4d5832b250a1412,2024-01-23_00h02.50.948,bars,2023.2.3,Win32,165.0165017,657b66ea316d21385b68909f,,,,,,,,,,,1554.608,1555.604,,,1556.1,1556.349,,107,107,,,,,,,,,,,,,,,,bars/019.png,bars/mask001.png,,,,,,,,,,,,7,2,,,,,,,7,6,8,7,,,,,,1533.429,1554.604,space,21.171,,1555.604,1556.1,1556.349,1557.816,space,1.462,,1557.816,62,2,1558.816,1558.816,1558.816,,,,0,0,0,0,1,45,105,,,,,,,,
,,65a44d48297bacfcc92dfef1,65af564cc4d5832b250a1412,2024-01-23_00h02.50.948,bars,2023.2.3,Win32,165.0165017,657b66ea316d21385b68909f,,,,,,,,,,,1558.817,1559.816,,,1560.313,1560.561,,105,-75,,,,,,,,,,,,,,,,bars/023.png,bars/mask009.png,,,,,,,,,,,,2,2,,,,,,,5,4,7,3,,,,,,,,,,,1559.816,1560.313,1560.561,1563.677,space,3.108,,1563.677,85,10,1564.677,1564.677,1564.677,,,,0,1,1,1,1,20,115,,,,,,,,
,,65a44d48297bacfcc92dfef1,65af564cc4d5832b250a1412,2024-01-23_00h02.50.948,bars,2023.2.3,Win32,165.0165017,657b66ea316d21385b68909f,,,,,,,,,,,1564.677,1565.676,,,1566.173,1566.422,,161,-19,,,,,,,,,,,,,,,,bars/021.png,bars/mask000.png,,,,,,,,,,,,2,1,,,,,,,3,2,2,2,,,,,,,,,,,1565.676,1566.173,1566.422,1568.355,space,1.928,,1568.355,6,89,1569.356,1569.356,1569.359,,,,0,2,2,2,1,155,70,,,,,,,,
,,65a44d48297bacfcc92dfef1,65af564cc4d5832b250a1412,2024-01-23_00h02.50.948,bars,2023.2.3,Win32,165.0165017,657b66ea316d21385b68909f,,,,,,,,,,,1569.359,1570.355,,,1570.852,1571.1,,76,76,,,,,,,,,,,,,,,,bars/044.png,bars/mask009.png,,,,,,,,,,,,0,1,,,,,,,1,0,0,0,,,,,,,,,,,1570.355,1570.852,1571.1,1574.216,space,3.108,,1574.216,1,79,1575.216,1575.216,1575.217,,,,0,3,3,3,1,75,155,,,,,,,,
,,65a44d48297bacfcc92dfef1,65af564cc4d5832b250a1412,2024-01-23_00h02.50.948,bars,2023.2.3,Win32,165.0165017,657b66ea316d21385b68909f,,,,,,,,,,,1575.217,1576.216,,,1576.712,1576.962,,100,100,,,,,,,,,,,,,,,,bars/046.png,bars/mask000.png,,,,,,,,,,,,0,2,,,,,,,3,0,4,0,,,,,,,,,,,1576.216,1576.712,1576.962,1580.173,space,3.207,,1580.173,55,15,1581.174,1581.174,1581.175,,,,0,4,4,4,1,155,85,,,,,,,,
,,65a44d48297bacfcc92dfef1,65af564cc4d5832b250a1412,2024-01-23_00h02.50.948,bars,2023.2.3,Win32,165.0165017,657b66ea316d21385b68909f,,,,,,,,,,,1581.175,1582.173,,,1582.671,1582.918,,20,200,,,,,,,,,,,,,,,,bars/036.png,bars/mask006.png,,,,,,,,,,,,1,2,,,,,,,1,2,2,1,,,,,,,,,,,1582.174,1582.671,1582.918,1586.725,space,3.801,,1586.725,55,0,1587.725,1587.725,1587.726,,,,0,5,5,5,1,145,20,,,,,,,,
,,65a44d48297bacfcc92dfef1,65af564cc4d5832b250a1412,2024-01-23_00h02.50.948,bars,2023.2.3,Win32,165.0165017,657b66ea316d21385b68909f,,,,,,,,,,,1587.726,1588.725,,,1589.222,1589.471,,75,75,,,,,,,,,,,,,,,,bars/038.png,bars/mask008.png,,,,,,,,,,,,4,2,,,,,,,0,4,0,5,,,,,,,,,,,1588.725,1589.222,1589.471,1591.282,space,1.809,,1591.282,90,5,1592.283,1592.283,1592.283,,,,0,6,6,6,1,165,70,,,,,,,,
,,65a44d48297bacfcc92dfef1,65af564cc4d5832b250a1412,2024-01-23_00h02.50.948,bars,2023.2.3,Win32,165.0165017,657b66ea316d21385b68909f,,,,,,,,,,,1592.283,1593.282,,,1593.78,1594.028,,86,86,,,,,,,,,,,,,,,,bars/041.png,bars/mask006.png,,,,,,,,,,,,5,2,,,,,,,2,6,1,5,,,,,,,,,,,1593.282,1593.779,1594.028,1597.791,space,3.76,,1597.791,66,1,1598.791,1598.791,1598.792,,,,0,7,7,7,1,20,85,,,,,,,,
,,65a44d48297bacfcc92dfef1,65af564cc4d5832b250a1412,2024-01-23_00h02.50.948,bars,2023.2.3,Win32,165.0165017,657b66ea316d21385b68909f,,,,,,,,,,,1598.792,1599.792,,,1600.289,1600.537,,103,103,,,,,,,,,,,,,,,,bars/041.png,bars/mask006.png,,,,,,,,,,,,1,2,,,,,,,4,4,3,2,,,,,,,,,,,1599.792,1600.289,1600.537,1603.785,space,3.242,,1603.785,83,18,1604.785,1604.785,1604.786,,,,0,8,8,8,1,20,85,,,,,,,,
,,65a44d48297bacfcc92dfef1,65af564cc4d5832b250a1412,2024-01-23_00h02.50.948,bars,2023.2.3,Win32,165.0165017,657b66ea316d21385b68909f,,,,,,,,,,,1604.787,1605.785,,,1606.282,1606.531,,148,-32,,,,,,,,,,,,,,,,bars/043.png,bars/mask006.png,,,,,,,,,,,,0,2,,,,,,,2,2,2,1,,,,,,,,,,,1605.786,1606.282,1606.531,1608.604,space,2.068,,1608.604,62,18,1609.604,1609.604,1609.605,,,,0,9,9,9,1,30,130,,,,,,,,
,,65a44d48297bacfcc92dfef1,65af564cc4d5832b250a1412,2024-01-23_00h02.50.948,bars,2023.2.3,Win32,165.0165017,657b66ea316d21385b68909f,,,,,,,,,,,1609.605,1610.603,,,1611.1,1611.349,,104,104,,,,,,,,,,,,,,,,bars/006.png,bars/mask006.png,,,,,,,,,,,,3,2,,,,,,,0,4,0,3,,,,,,,,,,,1610.603,1611.1,1611.349,1614.9,space,3.549,,1614.9,69,4,1615.9,1615.9,1615.901,,,,0,10,10,10,1,35,100,,,,,,,,
,,65a44d48297bacfcc92dfef1,65af564cc4d5832b250a1412,2024-01-23_00h02.50.948,bars,2023.2.3,Win32,165.0165017,657b66ea316d21385b68909f,,,,,,,,,,,1615.901,1616.9,,,1617.398,1617.646,,125,125,,,,,,,,,,,,,,,,bars/049.png,bars/mask004.png,,,,,,,,,,,,4,2,,,,,,,0,6,1,6,,,,,,,,,,,1616.9,1617.398,1617.646,1619.682,space,2.032,,1619.682,35,10,1620.682,1620.682,1620.683,,,,0,11,11,11,1,160,115,,,,,,,,
,,65a44d48297bacfcc92dfef1,65af564cc4d5832b250a1412,2024-01-23_00h02.50.948,bars,2023.2.3,Win32,165.0165017,657b66ea316d21385b68909f,,,,,,,,,,,1620.683,1621.683,,,1622.179,1622.428,,0,180,,,,,,,,,,,,,,,,bars/016.png,bars/mask009.png,,,,,,,,,,,,2,2,,,,,,,0,4,2,3,,,,,,,,,,,1621.683,1622.179,1622.428,1625.991,space,3.562,,1625.991,40,15,1626.991,1626.991,1626.992,,,,0,12,12,12,1,40,165,,,,,,,,
,,65a44d48297bacfcc92dfef1,65af564cc4d5832b250a1412,2024-01-23_00h02.50.948,bars,2023.2.3,Win32,165.0165017,657b66ea316d21385b68909f,,,,,,,,,,,1626.993,1627.991,,,1628.488,1628.737,,105,105,,,,,,,,,,,,,,,,bars/018.png,bars/mask009.png,,,,,,,,,,,,3,2,,,,,,,0,6,0,5,,,,,,,,,,,1627.991,1628.488,1628.737,1630.725,space,1.983,,1630.725,45,15,1631.725,1631.725,1631.725,,,,0,13,13,13,1,150,90,,,,,,,,
,,65a44d48297bacfcc92dfef1,65af564cc4d5832b250a1412,2024-01-23_00h02.50.948,bars,2023.2.3,Win32,165.0165017,657b66ea316d21385b68909f,,,,,,,,,,,1631.725,1632.725,,,1633.222,1633.47,,156,156,,,,,,,,,,,,,,,,bars/048.png,bars/mask007.png,,,,,,,,,,,,3,2,,,,,,,2,8,1,8,,,,,,,,,,,1632.725,1633.222,1633.47,1636.785,space,3.31,,1636.785,74,19,1637.785,1637.785,1637.787,,,,0,14,14,14,1,50,175,,,,,,,,
,,65a44d48297bacfcc92dfef1,65af564cc4d5832b250a1412,2024-01-23_00h02.50.948,bars,2023.2.3,Win32,165.0165017,657b66ea316d21385b68909f,,,,,,,,,,,1637.787,1638.785,,,1639.283,1639.53,,165,165,,,,,,,,,,,,,,,,bars/003.png,bars/mask000.png,,,,,,,,,,,,1,2,,,,,,,0,6,1,5,,,,,,,,,,,1638.785,1639.283,1639.53,1644.755,space,5.218,,1644.755,40,25,1645.755,1645.755,1645.755,,,,0,15,15,15,1,25,140,,,,,,,,
,,65a44d48297bacfcc92dfef1,65af564cc4d5832b250a1412,2024-01-23_00h02.50.948,bars,2023.2.3,Win32,165.0165017,657b66ea316d21385b68909f,,,,,,,,,,,1645.756,1646.755,,,1647.252,1647.5,,105,105,,,,,,,,,,,,,,,,bars/028.png,bars/mask003.png,,,,,,,,,,,,5,2,,,,,,,0,8,1,9,,,,,,,,,,,1646.755,1647.252,1647.5,1649.245,space,1.74,,1649.245,60,15,1650.246,1650.246,1650.247,,,,0,16,16,16,1,45,120,,,,,,,,
,,65a44d48297bacfcc92dfef1,65af564cc4d5832b250a1412,2024-01-23_00h02.50.948,bars,2023.2.3,Win32,165.0165017,657b66ea316d21385b68909f,,,,,,,,,,,1650.247,1651.246,,,1651.743,1652.002,,123,123,,,,,,,,,,,,,,,,bars/028.png,bars/mask006.png,,,,,,,,,,,,9,2,,,,,,,2,10,1,10,,,,,,,,,,,1651.246,1651.743,1652.002,1654.233,space,2.225,,1654.233,78,3,1655.234,1655.234,1655.234,,,,0,17,17,17,1,45,120,,,,,,,,
,,65a44d48297bacfcc92dfef1,65af564cc4d5832b250a1412,2024-01-23_00h02.50.948,bars,2023.2.3,Win32,165.0165017,657b66ea316d21385b68909f,,,,,,,,,,,1655.235,1656.234,,,1656.73,1656.979,,18,198,,,,,,,,,,,,,,,,bars/014.png,bars/mask006.png,,,,,,,,,,,,4,2,,,,,,,4,10,2,9,,,,,,,,,,,1656.234,1656.73,1656.979,1658.985,space,2.001,,1658.985,62,18,1659.985,1659.985,1659.986,,,,0,18,18,18,1,80,0,,,,,,,,
,,65a44d48297bacfcc92dfef1,65af564cc4d5832b250a1412,2024-01-23_00h02.50.948,bars,2023.2.3,Win32,165.0165017,657b66ea316d21385b68909f,,,,,,,,,,,1659.986,1660.985,,,1661.482,1661.731,,87,87,,,,,,,,,,,,,,,,bars/038.png,bars/mask007.png,,,,,,,,,,,,4,2,,,,,,,2,10,3,10,,,,,,,,,,,1660.985,1661.482,1661.731,1663.021,space,1.288,,1663.022,78,17,1664.021,1664.021,1664.022,,,,0,19,19,19,1,165,70,,,,,,,,
,,65a44d48297bacfcc92dfef1,65af564cc4d5832b250a1412,2024-01-23_00h02.50.948,bars,2023.2.3,Win32,165.0165017,657b66ea316d21385b68909f,,,,,,,,,,,1664.023,1665.022,,,1665.518,1665.767,,27,27,,,,,,,,,,,,,,,,bars/025.png,bars/mask008.png,,,,,,,,,,,,5,2,,,,,,,0,8,0,8,,,,,,,,,,,1665.022,1665.518,1665.767,1667.403,space,1.631,,1667.403,78,13,1668.404,1668.404,1668.406,,,,0,20,20,20,1,105,40,,,,,,,,
,,65a44d48297bacfcc92dfef1,65af564cc4d5832b250a1412,2024-01-23_00h02.50.948,bars,2023.2.3,Win32,165.0165017,657b66ea316d21385b68909f,,,,,,,,,,,1668.406,1669.403,,,1669.9,1670.149,,44,44,,,,,,,,,,,,,,,,bars/034.png,bars/mask004.png,,,,,,,,,,,,3,2,,,,,,,0,10,3,10,,,,,,,,,,,1669.403,1669.9,1670.149,1673.755,space,3.6,,1673.755,81,21,1674.755,1674.755,1674.756,,,,0,21,21,21,1,125,65,,,,,,,,
,,65a44d48297bacfcc92dfef1,65af564cc4d5832b250a1412,2024-01-23_00h02.50.948,bars,2023.2.3,Win32,165.0165017,657b66ea316d21385b68909f,,,,,,,,,,,1674.756,1675.755,,,1676.252,1676.5,,88,88,,,,,,,,,,,,,,,,bars/001.png,bars/mask003.png,,,,,,,,,,,,8,2,,,,,,,2,10,3,9,,,,,,,,,,,1675.755,1676.252,1676.5,1679.761,space,3.257,,1679.761,42,3,1680.761,1680.761,1680.762,,,,0,22,22,22,1,130,85,,,,,,,,
,,65a44d48297bacfcc92dfef1,65af564cc4d5832b250a1412,2024-01-23_00h02.50.948,bars,2023.2.3,Win32,165.0165017,657b66ea316d21385b68909f,,,,,,,,,,,1680.762,1681.76,,,1682.258,1682.506,,72,72,,,,,,,,,,,,,,,,bars/011.png,bars/mask009.png,,,,,,,,,,,,5,2,,,,,,,0,8,0,8,,,,,,,,,,,1681.76,1682.258,1682.506,1686.925,space,4.412,,1686.925,88,13,1687.925,1687.925,1687.925,,,,0,23,23,23,1,160,85,,,,,,,,
,,65a44d48297bacfcc92dfef1,65af564cc4d5832b250a1412,2024-01-23_00h02.50.948,bars,2023.2.3,Win32,165.0165017,657b66ea316d21385b68909f,,,,,,,,,,,1687.925,1688.924,,,1689.421,1689.67,,21,21,,,,,,,,,,,,,,,,bars/022.png,bars/mask007.png,,,,,,,,,,,,10,2,,,,,,,2,10,1,10,,,,,,,,,,,1688.924,1689.421,1689.67,1691.924,space,2.249,,1691.924,74,1,1692.924,1692.924,1692.925,,,,0,24,24,24,1,95,20,,,,,,,,
,,65a44d48297bacfcc92dfef1,65af564cc4d5832b250a1412,2024-01-23_00h02.50.948,bars,2023.2.3,Win32,165.0165017,657b66ea316d21385b68909f,,,,,,,,,,,1692.925,1693.925,,,1694.422,1694.67,,19,19,,,,,,,,,,,,,,,,bars/017.png,bars/mask004.png,,,,,,,,,,,,1,2,,,,,,,4,8,3,8,,,,,,,,,,,1693.925,1694.422,1694.67,1695.912,space,1.237,,1695.912,54,26,1696.912,1696.912,1696.913,,,,0,25,25,25,1,145,45,,,,,,,,
,,65a44d48297bacfcc92dfef1,65af564cc4d5832b250a1412,2024-01-23_00h02.50.948,bars,2023.2.3,Win32,165.0165017,657b66ea316d21385b68909f,,,,,,,,,,,1696.913,1697.912,,,1698.409,1698.657,,101,101,,,,,,,,,,,,,,,,bars/037.png,bars/mask000.png,,,,,,,,,,,,8,2,,,,,,,6,10,6,9,,,,,,,,,,,1697.912,1698.409,1698.658,1699.779,space,1.12,,1699.779,49,4,1700.779,1700.779,1700.779,,,,0,26,26,26,1,150,105,,,,,,,,
,,65a44d48297bacfcc92dfef1,65af564cc4d5832b250a1412,2024-01-23_00h02.50.948,bars,2023.2.3,Win32,165.0165017,657b66ea316d21385b68909f,,,,,,,,,,,1700.78,1701.779,,,1702.276,1702.525,,96,96,,,,,,,,,,,,,,,,bars/021.png,bars/mask008.png,,,,,,,,,,,,1,2,,,,,,,4,10,5,10,,,,,,,,,,,1701.779,1702.276,1702.525,1704.064,space,1.533,,1704.064,59,26,1705.064,1705.064,1705.065,,,,0,27,27,27,1,155,70,,,,,,,,
,,65a44d48297bacfcc92dfef1,65af564cc4d5832b250a1412,2024-01-23_00h02.50.948,bars,2023.2.3,Win32,165.0165017,657b66ea316d21385b68909f,,,,,,,,,,,1705.065,1706.064,,,1706.56,1706.809,,152,152,,,,,,,,,,,,,,,,bars/044.png,bars/mask003.png,,,,,,,,,,,,9,2,,,,,,,6,10,7,10,,,,,,,,,,,1706.064,1706.56,1706.809,1707.5,space,0.688,,1707.5,77,3,1708.5,1708.501,1708.501,,,,0,28,28,28,1,75,155,,,,,,,,
,,65a44d48297bacfcc92dfef1,65af564cc4d5832b250a1412,2024-01-23_00h02.50.948,bars,2023.2.3,Win32,165.0165017,657b66ea316d21385b68909f,,,,,,,,,,,1708.502,1709.5,,,1709.997,1710.246,,41,41,,,,,,,,,,,,,,,,bars/036.png,bars/mask007.png,,,,,,,,,,,,3,2,,,,,,,4,10,4,9,,,,,,,,,,,1709.5,1709.997,1710.246,1712.621,space,2.371,,1712.621,76,21,1713.621,1713.621,1713.622,,,,0,29,29,29,1,145,20,,,,,,,,
,,65a44d48297bacfcc92dfef1,65af564cc4d5832b250a1412,2024-01-23_00h02.50.948,bars,2023.2.3,Win32,165.0165017,657b66ea316d21385b68909f,,,,,,,,,,,1713.622,1714.622,,,1715.118,1715.367,,41,41,,,,,,,,,,,,,,,,bars/034.png,bars/mask008.png,,,,,,,,,,,,2,2,,,,,,,6,8,6,8,,,,,,,,,,,1714.622,1715.118,1715.367,1716.882,space,1.51,,1716.882,84,24,1717.882,1717.882,1717.882,,,,0,30,30,30,1,125,65,,,,,,,,
,,65a44d48297bacfcc92dfef1,65af564cc4d5832b250a1412,2024-01-23_00h02.50.948,bars,2023.2.3,Win32,165.0165017,657b66ea316d21385b68909f,,,,,,,,,,,1717.883,1718.882,,,1719.379,1719.628,,116,116,,,,,,,,,,,,,,,,bars/049.png,bars/mask003.png,,,,,,,,,,,,6,2,,,,,,,4,6,5,6,,,,,,,,,,,1718.882,1719.379,1719.628,1720.433,space,0.8,,1720.433,44,1,1721.433,1721.433,1721.434,,,,0,31,31,31,1,160,115,,,,,,,,
,,65a44d48297bacfcc92dfef1,65af564cc4d5832b250a1412,2024-01-23_00h02.50.948,bars,2023.2.3,Win32,165.0165017,657b66ea316d21385b68909f,,,,,,,,,,,1721.434,1722.434,,,1722.931,1723.179,,4,184,,,,,,,,,,,,,,,,bars/031.png,bars/mask008.png,,,,,,,,,,,,0,2,,,,,,,2,8,1,6,,,,,,,,,,,1722.434,1722.931,1723.179,1724.682,space,1.497,,1724.682,64,31,1725.681,1725.681,1725.683,,,,0,32,32,32,1,120,35,,,,,,,,
,,65a44d48297bacfcc92dfef1,65af564cc4d5832b250a1412,2024-01-23_00h02.50.948,bars,2023.2.3,Win32,165.0165017,657b66ea316d21385b68909f,,,,,,,,,,,1725.683,1726.682,,,1727.179,1727.428,,97,97,,,,,,,,,,,,,,,,bars/023.png,bars/mask005.png,,,,,,,,,,,,2,2,,,,,,,0,6,0,6,,,,,,,,,,,1726.682,1727.179,1727.428,1730.621,space,3.189,,1730.621,77,18,1731.621,1731.621,1731.622,,,,0,33,33,33,1,20,115,,,,,,,,
,,65a44d48297bacfcc92dfef1,65af564cc4d5832b250a1412,2024-01-23_00h02.50.948,bars,2023.2.3,Win32,165.0165017,657b66ea316d21385b68909f,,,,,,,,,,,1731.622,1732.622,,,1733.118,1733.367,,28,28,,,,,,,,,,,,,,,,bars/029.png,bars/mask001.png,,,,,,,,,,,,4,2,,,,,,,2,8,3,9,,,,,,,,,,,1732.622,1733.118,1733.367,1735.16,space,1.79,,1735.161,62,17,1736.161,1736.161,1736.162,,,,0,34,34,34,1,90,45,,,,,,,,
,,65a44d48297bacfcc92dfef1,65af564cc4d5832b250a1412,2024-01-23_00h02.50.948,bars,2023.2.3,Win32,165.0165017,657b66ea316d21385b68909f,,,,,,,,,,,1736.163,1737.161,,,1737.658,1737.907,,16,196,,,,,,,,,,,,,,,,bars/010.png,bars/mask008.png,,,,,,,,,,,,0,1,,,,,,,0,10,0,9,,,,,,,,,,,1737.161,1737.658,1737.907,1740.652,space,2.74,,1740.652,31,39,1741.652,1741.652,1741.653,,,,0,35,35,35,1,165,55,,,,,,,,
,,65a44d48297bacfcc92dfef1,65af564cc4d5832b250a1412,2024-01-23_00h02.50.948,bars,2023.2.3,Win32,165.0165017,657b66ea316d21385b68909f,,,,,,,,,,,1741.654,1742.651,,,1743.148,1743.397,,126,126,,,,,,,,,,,,,,,,bars/000.png,bars/mask006.png,,,,,,,,,,,,3,2,,,,,,,0,8,0,9,,,,,,,,,,,1742.651,1743.148,1743.397,1746.331,space,2.929,,1746.331,86,19,1747.331,1747.331,1747.332,,,,0,36,36,36,1,40,145,,,,,,,,
,,65a44d48297bacfcc92dfef1,65af564cc4d5832b250a1412,2024-01-23_00h02.50.948,bars,2023.2.3,Win32,165.0165017,657b66ea316d21385b68909f,,,,,,,,,,,1747.333,1748.33,,,1748.827,1749.076,,83,83,,,,,,,,,,,,,,,,bars/011.png,bars/mask005.png,,,,,,,,,,,,6,2,,,,,,,2,6,3,6,,,,,,,,,,,1748.33,1748.827,1749.076,1752.772,space,3.691,,1752.772,77,2,1753.772,1753.772,1753.774,,,,0,37,37,37,1,160,85,,,,,,,,
,,65a44d48297bacfcc92dfef1,65af564cc4d5832b250a1412,2024-01-23_00h02.50.948,bars,2023.2.3,Win32,165.0165017,657b66ea316d21385b68909f,,,,,,,,,,,1753.774,1754.773,,,1755.27,1755.519,,170,170,,,,,,,,,,,,,,,,bars/040.png,bars/mask004.png,,,,,,,,,,,,4,2,,,,,,,4,8,4,7,,,,,,,,,,,1754.773,1755.269,1755.519,1756.894,space,1.37,,1756.894,30,15,1757.894,1757.894,1757.895,,,,0,38,38,38,1,140,5,,,,,,,,
,,65a44d48297bacfcc92dfef1,65af564cc4d5832b250a1412,2024-01-23_00h02.50.948,bars,2023.2.3,Win32,165.0165017,657b66ea316d21385b68909f,,,,,,,,,,,1757.895,1758.894,,,1759.391,1759.639,,148,148,,,,,,,,,,,,,,,,bars/004.png,bars/mask005.png,,,,,,,,,,,,1,2,,,,,,,2,6,1,6,,,,,,,,,,,1758.894,1759.391,1759.639,1761.53,space,1.886,,1761.53,57,23,1762.53,1762.53,1762.531,,,,0,39,39,39,1,25,125,,,,,,,,
,,65a44d48297bacfcc92dfef1,65af564cc4d5832b250a1412,2024-01-23_00h02.50.948,bars,2023.2.3,Win32,165.0165017,657b66ea316d21385b68909f,,,,,,,,,,,1762.531,1763.531,,,1764.027,1764.276,,118,118,,,,,,,,,,,,,,,,bars/023.png,bars/mask006.png,,,,,,,,,,,,3,2,,,,,,,0,4,0,3,,,,,,,,,,,1763.531,1764.027,1764.276,1768.052,space,3.77,,1768.052,82,3,1769.051,1769.051,1769.053,,,,0,40,40,40,1,20,115,,,,,,,,
,,65a44d48297bacfcc92dfef1,65af564cc4d5832b250a1412,2024-01-23_00h02.50.948,bars,2023.2.3,Win32,165.0165017,657b66ea316d21385b68909f,,,,,,,,,,,1769.054,1770.052,,,1770.549,1770.797,,100,100,,,,,,,,,,,,,,,,bars/011.png,bars/mask000.png,,,,,,,,,,,,3,2,,,,,,,2,6,1,5,,,,,,,,,,,1770.052,1770.549,1770.798,1774.379,space,3.578,,1774.379,60,15,1775.379,1775.379,1775.379,,,,0,41,41,41,1,160,85,,,,,,,,
,,65a44d48297bacfcc92dfef1,65af564cc4d5832b250a1412,2024-01-23_00h02.50.948,bars,2023.2.3,Win32,165.0165017,657b66ea316d21385b68909f,,,,,,,,,,,1775.379,1776.379,,,1776.876,1777.125,,114,114,,,,,,,,,,,,,,,,bars/003.png,bars/mask008.png,,,,,,,,,,,,1,2,,,,,,,4,8,4,7,,,,,,,,,,,1776.379,1776.875,1777.125,1780.857,space,3.731,,1780.857,89,26,1781.857,1781.857,1781.858,,,,0,42,42,42,1,25,140,,,,,,,,
,,65a44d48297bacfcc92dfef1,65af564cc4d5832b250a1412,2024-01-23_00h02.50.948,bars,2023.2.3,Win32,165.0165017,657b66ea316d21385b68909f,,,,,,,,,,,1781.858,1782.858,,,1783.355,1783.603,,111,111,,,,,,,,,,,,,,,,bars/006.png,bars/mask001.png,,,,,,,,,,,,3,2,,,,,,,2,6,3,5,,,,,,,,,,,1782.858,1783.355,1783.603,1786.282,space,2.672,,1786.282,76,11,1787.282,1787.282,1787.282,,,,0,43,43,43,1,35,100,,,,,,,,
,,65a44d48297bacfcc92dfef1,65af564cc4d5832b250a1412,2024-01-23_00h02.50.948,bars,2023.2.3,Win32,165.0165017,657b66ea316d21385b68909f,,,,,,,,,,,1787.282,1788.282,,,1788.779,1789.027,,148,148,,,,,,,,,,,,,,,,bars/044.png,bars/mask000.png,,,,,,,,,,,,7,2,,,,,,,4,8,6,9,,,,,,,,,,,1788.282,1788.779,1789.027,1790.312,space,1.279,,1790.312,73,7,1791.313,1791.313,1791.313,,,,0,44,44,44,1,75,155,,,,,,,,
,,65a44d48297bacfcc92dfef1,65af564cc4d5832b250a1412,2024-01-23_00h02.50.948,bars,2023.2.3,Win32,165.0165017,657b66ea316d21385b68909f,,,,,,,,,,,1791.313,1792.312,,,1792.81,1793.057,,97,97,,,,,,,,,,,,,,,,bars/021.png,bars/mask006.png,,,,,,,,,,,,1,2,,,,,,,2,6,1,6,,,,,,,,,,,1792.312,1792.809,1793.057,1797.027,space,3.967,,1797.027,58,27,1798.028,1798.028,1798.028,,,,0,45,45,45,1,155,70,,,,,,,,
,,65a44d48297bacfcc92dfef1,65af564cc4d5832b250a1412,2024-01-23_00h02.50.948,bars,2023.2.3,Win32,165.0165017,657b66ea316d21385b68909f,,,,,,,,,,,1798.028,1799.027,,,1799.524,1799.772,,12,12,,,,,,,,,,,,,,,,bars/026.png,bars/mask002.png,,,,,,,,,,,,1,1,,,,,,,4,8,4,7,,,,,,,,,,,1799.027,1799.524,1799.772,1801.657,space,1.881,,1801.657,23,73,1802.658,1802.658,1802.662,,,,0,46,46,46,1,35,85,,,,,,,,
,,65a44d48297bacfcc92dfef1,65af564cc4d5832b250a1412,2024-01-23_00h02.50.948,bars,2023.2.3,Win32,165.0165017,657b66ea316d21385b68909f,,,,,,,,,,,1802.662,1803.664,,,1804.161,1804.409,,11,11,,,,,,,,,,,,,,,,bars/011.png,bars/mask006.png,,,,,,,,,,,,0,1,,,,,,,6,6,7,5,,,,,,,,,,,1803.664,1804.161,1804.409,1806.59,space,2.177,,1806.591,31,74,1807.59,1807.59,1807.591,,,,0,47,47,47,1,160,85,,,,,,,,
,,65a44d48297bacfcc92dfef1,65af564cc4d5832b250a1412,2024-01-23_00h02.50.948,bars,2023.2.3,Win32,165.0165017,657b66ea316d21385b68909f,,,,,,,,,,,1807.592,1808.591,,,1809.088,1809.336,,153,153,,,,,,,,,,,,,,,,bars/009.png,bars/mask006.png,,,,,,,,,,,,0,1,,,,,,,8,8,7,10,,,,,,,,,,,1808.591,1809.088,1809.336,1812.287,space,2.948,,1812.287,42,48,1813.287,1813.287,1813.289,,,,0,48,48,48,1,15,105,,,,,,,,
,,65a44d48297bacfcc92dfef1,65af564cc4d5832b250a1412,2024-01-23_00h02.50.948,bars,2023.2.3,Win32,165.0165017,657b66ea316d21385b68909f,,,,,,,,,,,1813.289,1814.288,,,1814.785,1815.034,,20,200,,,,,,,,,,,,,,,,bars/022.png,bars/mask006.png,,,,,,,,,,,,6,2,,,,,,,10,6,10,6,,,,,,,,,,,1814.288,1814.785,1815.034,1816.749,space,1.713,,1816.749,75,0,1817.748,1817.749,1817.751,,,,0,49,49,49,1,95,20,,,,,,,,
,,65a44d48297bacfcc92dfef1,65af564cc4d5832b250a1412,2024-01-23_00h02.50.948,bars,2023.2.3,Win32,165.0165017,657b66ea316d21385b68909f,,,,,,,,,,,,,,,,,,,,,,,,,,,,,,,,,,,,,,,,,,,,,,,,,,,,,,,,,,,,,,,,,,,,,,,,,,,,,,,,,,,,,,,,,,,,,1817.751,1877.749,0,3,3,3,1,sequence_tables/blk049.csv
,,65a44d48297bacfcc92dfef1,65af564cc4d5832b250a1412,2024-01-23_00h02.50.948,bars,2023.2.3,Win32,165.0165017,657b66ea316d21385b68909f,,,,,,,,,,,1899.625,1900.627,,,1901.124,1901.372,,16,196,,,,,,,,,,,,,,,,bars/032.png,bars/mask004.png,,,,,,,,,,,,8,2,,,,,,,9,8,9,9,,,,,,1877.75,1899.621,space,21.865,,1900.627,1901.124,1901.372,1902.966,space,1.59,,1902.966,71,4,1903.966,1903.966,1903.967,,,,0,0,0,0,1,125,20,,,,,,,,
,,65a44d48297bacfcc92dfef1,65af564cc4d5832b250a1412,2024-01-23_00h02.50.948,bars,2023.2.3,Win32,165.0165017,657b66ea316d21385b68909f,,,,,,,,,,,1903.968,1904.966,,,1905.463,1905.712,,111,111,,,,,,,,,,,,,,,,bars/049.png,bars/mask000.png,,,,,,,,,,,,9,2,,,,,,,7,10,7,10,,,,,,,,,,,1904.966,1905.463,1905.712,1906.809,space,1.091,,1906.809,49,4,1907.808,1907.808,1907.809,,,,0,1,1,1,1,160,115,,,,,,,,
,,65a44d48297bacfcc92dfef1,65af564cc4d5832b250a1412,2024-01-23_00h02.50.948,bars,2023.2.3,Win32,165.0165017,657b66ea316d21385b68909f,,,,,,,,,,,1907.809,1908.809,,,1909.306,1909.555,,170,170,,,,,,,,,,,,,,,,bars/020.png,bars/mask006.png,,,,,,,,,,,,10,2,,,,,,,9,10,9,10,,,,,,,,,,,1908.809,1909.306,1909.555,1911.039,space,1.478,,1911.039,55,0,1912.039,1912.039,1912.04,,,,0,2,2,2,1,115,170,,,,,,,,
,,65a44d48297bacfcc92dfef1,65af564cc4d5832b250a1412,2024-01-23_00h02.50.948,bars,2023.2.3,Win32,165.0165017,657b66ea316d21385b68909f,,,,,,,,,,,1912.04,1913.039,,,1913.537,1913.784,,94,94,,,,,,,,,,,,,,,,bars/009.png,bars/mask006.png,,,,,,,,,,,,4,2,,,,,,,7,8,8,6,,,,,,,,,,,1913.039,1913.537,1913.784,1915.857,space,2.068,,1915.857,79,11,1916.857,1916.857,1916.858,,,,0,3,3,3,1,15,105,,,,,,,,
,,65a44d48297bacfcc92dfef1,65af564cc4d5832b250a1412,2024-01-23_00h02.50.948,bars,2023.2.3,Win32,165.0165017,657b66ea316d21385b68909f,,,,,,,,,,,1916.858,1917.857,,,1918.355,1918.602,,48,48,,,,,,,,,,,,,,,,bars/047.png,bars/mask003.png,,,,,,,,,,,,3,2,,,,,,,5,10,6,10,,,,,,,,,,,1917.857,1918.355,1918.602,1920.299,space,1.691,,1920.299,33,22,1921.3,1921.3,1921.301,,,,0,4,4,4,1,15,70,,,,,,,,
,,65a44d48297bacfcc92dfef1,65af564cc4d5832b250a1412,2024-01-23_00h02.50.948,bars,2023.2.3,Win32,165.0165017,657b66ea316d21385b68909f,,,,,,,,,,,1921.301,1922.3,,,1922.796,1923.045,,169,-11,,,,,,,,,,,,,,,,bars/020.png,bars/mask006.png,,,,,,,,,,,,8,2,,,,,,,7,8,7,8,,,,,,,,,,,1922.3,1922.796,1923.045,1924.548,space,1.497,,1924.548,54,1,1925.548,1925.548,1925.549,,,,0,5,5,5,1,115,170,,,,,,,,
,,65a44d48297bacfcc92dfef1,65af564cc4d5832b250a1412,2024-01-23_00h02.50.948,bars,2023.2.3,Win32,165.0165017,657b66ea316d21385b68909f,,,,,,,,,,,1925.549,1926.548,,,1927.046,1927.294,,95,95,,,,,,,,,,,,,,,,bars/006.png,bars/mask007.png,,,,,,,,,,,,4,2,,,,,,,9,6,9,5,,,,,,,,,,,1926.548,1927.046,1927.294,1929.966,space,2.669,,1929.966,60,5,1930.966,1930.966,1930.967,,,,0,6,6,6,1,35,100,,,,,,,,
,,65a44d48297bacfcc92dfef1,65af564cc4d5832b250a1412,2024-01-23_00h02.50.948,bars,2023.2.3,Win32,165.0165017,657b66ea316d21385b68909f,,,,,,,,,,,1930.967,1931.967,,,1932.463,1932.713,,15,195,,,,,,,,,,,,,,,,bars/031.png,bars/mask007.png,,,,,,,,,,,,1,2,,,,,,,7,4,7,2,,,,,,,,,,,1931.967,1932.463,1932.713,1934.887,space,2.17,,1934.887,75,20,1935.887,1935.888,1935.889,,,,0,7,7,7,1,120,35,,,,,,,,
,,65a44d48297bacfcc92dfef1,65af564cc4d5832b250a1412,2024-01-23_00h02.50.948,bars,2023.2.3,Win32,165.0165017,657b66ea316d21385b68909f,,,,,,,,,,,1935.889,1936.887,,,1937.385,1937.633,,23,203,,,,,,,,,,,,,,,,bars/047.png,bars/mask000.png,,,,,,,,,,,,4,1,,,,,,,5,2,6,3,,,,,,,,,,,1936.887,1937.385,1937.633,1940.015,space,2.38,,1940.015,8,47,1941.015,1941.015,1941.017,,,,0,8,8,8,1,15,70,,,,,,,,
,,65a44d48297bacfcc92dfef1,65af564cc4d5832b250a1412,2024-01-23_00h02.50.948,bars,2023.2.3,Win32,165.0165017,657b66ea316d21385b68909f,,,,,,,,,,,1941.017,1942.015,,,1942.512,1942.761,,110,110,,,,,,,,,,,,,,,,bars/039.png,bars/mask002.png,,,,,,,,,,,,3,2,,,,,,,7,4,8,4,,,,,,,,,,,1942.015,1942.512,1942.761,1946.166,space,3.401,,1946.166,65,5,1947.166,1947.166,1947.168,,,,0,9,9,9,1,175,105,,,,,,,,
,,65a44d48297bacfcc92dfef1,65af564cc4d5832b250a1412,2024-01-23_00h02.50.948,bars,2023.2.3,Win32,165.0165017,657b66ea316d21385b68909f,,,,,,,,,,,1947.168,1948.166,,,1948.663,1948.912,,74,74,,,,,,,,,,,,,,,,bars/046.png,bars/mask004.png,,,,,,,,,,,,1,2,,,,,,,9,2,10,2,,,,,,,,,,,1948.166,1948.663,1948.912,1951.179,space,2.262,,1951.179,81,11,1952.178,1952.178,1952.179,,,,0,10,10,10,1,155,85,,,,,,,,
,,65a44d48297bacfcc92dfef1,65af564cc4d5832b250a1412,2024-01-23_00h02.50.948,bars,2023.2.3,Win32,165.0165017,657b66ea316d21385b68909f,,,,,,,,,,,1952.179,1953.178,,,1953.676,1953.924,,138,138,,,,,,,,,,,,,,,,bars/003.png,bars/mask009.png,,,,,,,,,,,,0,2,,,,,,,7,0,7,0,,,,,,,,,,,1953.178,1953.676,1953.924,1956.385,space,2.458,,1956.385,67,2,1957.385,1957.385,1957.385,,,,0,11,11,11,1,25,140,,,,,,,,
,,65a44d48297bacfcc92dfef1,65af564cc4d5832b250a1412,2024-01-23_00h02.50.948,bars,2023.2.3,Win32,165.0165017,657b66ea316d21385b68909f,,,,,,,,,,,1957.386,1958.385,,,1958.881,1959.129,,23,23,,,,,,,,,,,,,,,,bars/022.png,bars/mask008.png,,,,,,,,,,,,0,2,,,,,,,9,0,9,0,,,,,,,,,,,1958.385,1958.881,1959.129,1960.378,space,1.243,,1960.378,72,3,1961.378,1961.378,1961.379,,,,0,12,12,12,1,95,20,,,,,,,,
,,65a44d48297bacfcc92dfef1,65af564cc4d5832b250a1412,2024-01-23_00h02.50.948,bars,2023.2.3,Win32,165.0165017,657b66ea316d21385b68909f,,,,,,,,,,,1961.379,1962.378,,,1962.876,1963.124,,100,100,,,,,,,,,,,,,,,,bars/037.png,bars/mask002.png,,,,,,,,,,,,2,2,,,,,,,10,0,10,2,,,,,,,,,,,1962.379,1962.876,1963.124,1966.106,space,2.979,,1966.106,50,5,1967.106,1967.106,1967.107,,,,0,13,13,13,1,150,105,,,,,,,,
,,65a44d48297bacfcc92dfef1,65af564cc4d5832b250a1412,2024-01-23_00h02.50.948,bars,2023.2.3,Win32,165.0165017,657b66ea316d21385b68909f,,,,,,,,,,,1967.108,1968.105,,,1968.602,1968.851,,141,141,,,,,,,,,,,,,,,,bars/028.png,bars/mask005.png,,,,,,,,,,,,0,2,,,,,,,10,2,8,0,,,,,,,,,,,1968.105,1968.602,1968.851,1970.567,space,1.711,,1970.567,84,21,1971.566,1971.566,1971.567,,,,0,14,14,14,1,45,120,,,,,,,,
,,65a44d48297bacfcc92dfef1,65af564cc4d5832b250a1412,2024-01-23_00h02.50.948,bars,2023.2.3,Win32,165.0165017,657b66ea316d21385b68909f,,,,,,,,,,,1971.567,1972.566,,,1973.063,1973.312,,86,86,,,,,,,,,,,,,,,,bars/018.png,bars/mask004.png,,,,,,,,,,,,3,2,,,,,,,8,4,8,4,,,,,,,,,,,1972.566,1973.063,1973.312,1977.293,space,3.979,,1977.293,64,4,1978.294,1978.294,1978.294,,,,0,15,15,15,1,150,90,,,,,,,,
,,65a44d48297bacfcc92dfef1,65af564cc4d5832b250a1412,2024-01-23_00h02.50.948,bars,2023.2.3,Win32,165.0165017,657b66ea316d21385b68909f,,,,,,,,,,,1978.295,1979.293,,,1979.79,1980.039,,108,108,,,,,,,,,,,,,,,,bars/039.png,bars/mask002.png,,,,,,,,,,,,2,2,,,,,,,10,2,10,2,,,,,,,,,,,1979.293,1979.79,1980.039,1981.608,space,1.564,,1981.608,67,3,1982.609,1982.609,1982.609,,,,0,16,16,16,1,175,105,,,,,,,,
,,65a44d48297bacfcc92dfef1,65af564cc4d5832b250a1412,2024-01-23_00h02.50.948,bars,2023.2.3,Win32,165.0165017,657b66ea316d21385b68909f,,,,,,,,,,,1982.609,1983.608,,,1984.106,1984.354,,108,108,,,,,,,,,,,,,,,,bars/021.png,bars/mask003.png,,,,,,,,,,,,0,2,,,,,,,8,0,8,1,,,,,,,,,,,1983.608,1984.106,1984.354,1986.179,space,1.818,,1986.179,47,38,1987.179,1987.179,1987.179,,,,0,17,17,17,1,155,70,,,,,,,,
,,65a44d48297bacfcc92dfef1,65af564cc4d5832b250a1412,2024-01-23_00h02.50.948,bars,2023.2.3,Win32,165.0165017,657b66ea316d21385b68909f,,,,,,,,,,,1987.18,1988.179,,,1988.675,1988.923,,72,72,,,,,,,,,,,,,,,,bars/002.png,bars/mask002.png,,,,,,,,,,,,0,2,,,,,,,6,0,5,0,,,,,,,,,,,1988.179,1988.675,1988.923,1992.593,space,3.648,,1992.593,58,13,1993.59,1993.59,1993.591,,,,0,18,18,18,1,130,85,,,,,,,,
,,65a44d48297bacfcc92dfef1,65af564cc4d5832b250a1412,2024-01-23_00h02.50.948,bars,2023.2.3,Win32,165.0165017,657b66ea316d21385b68909f,,,,,,,,,,,1993.591,1994.59,,,1995.087,1995.336,,160,-20,,,,,,,,,,,,,,,,bars/000.png,bars/mask000.png,,,,,,,,,,,,0,2,,,,,,,8,0,9,0,,,,,,,,,,,1994.59,1995.087,1995.336,1996.809,space,1.467,,1996.809,60,15,1997.809,1997.809,1997.809,,,,0,19,19,19,1,40,145,,,,,,,,
