init_variables.started,init_variables.stopped,participant,session,date,expName,psychopyVersion,OS,frameRate,study_id,instruction_exp.started,instruction_exp.stopped,key_resp_8.keys,key_resp_8.rt,key_resp_8.duration,instruction_single.started,instruction_single.stopped,key_resp_2.keys,key_resp_2.rt,key_resp_2.duration,interval.started,interval.stopped,cue_single.started,cue_single.stopped,mask.started,mask.stopped,ori_response_single.started,res_ori,res,ori_response_single.stopped,key_resp_single.keys,key_resp_single.rt,key_resp_single.duration,disp_single.started,disp_single.stopped,key_resp.keys,key_resp.rt,key_resp.duration,single.thisRepN,single.thisTrialN,single.thisN,single.thisIndex,single.ran,ori,path,mask_path,instruction_bandit.started,instruction_bandit.stopped,key_resp_6.keys,key_resp_6.rt,key_resp_6.duration,cue_bandit.started,cue_bandit.stopped,bandit_res.keys,bandit_res.rt,bandit_res.duration,outcome_bandit.started,rew,action,outcome_bandit.stopped,bandit.thisRepN,bandit.thisTrialN,bandit.thisN,bandit.thisIndex,bandit.ran,actual_rew1,actual_rew2,rew1,rew2,instruction_task.started,instruction_task.stopped,key_resp_7.keys,key_resp_7.rt,key_resp_7.duration,wait_ready.started,wait_ready.stopped,key_resp_3.keys,key_resp_3.rt,key_resp_3.duration,cue.started,cue.stopped,ori_response.started,ori_response.stopped,key_resp_5.keys,key_resp_5.rt,key_resp_5.duration,outcome.started,diff1,diff2,outcome.stopped,disp_outcome_practice.started,disp_outcome_practice.stopped,key_resp_4.keys,key_resp_4.rt,key_resp_4.duration,trials.thisRepN,trials.thisTrialN,trials.thisN,trials.thisIndex,trials.ran,ori1,ori2,break_blk.started,break_blk.stopped,block.thisRepN,block.thisTrialN,block.thisN,block.thisIndex,block.ran,condition_file
0.0027,0.003,60ddce06d1556fd085432049,65af56f973eaa355c997c2a9,2024-01-23_08h12.47.643,bars,2023.2.3,Win32,59.88023952,657b66ea316d21385b68909f,,,,,,,,,,,,,,,,,,,,,,,,,,,,,,,,,,,,,,,,,,,,,,,,,,,,,,,,,,,,,,,,,,,,,,,,,,,,,,,,,,,,,,,,,,,,,,,,,,,,
,,60ddce06d1556fd085432049,65af56f973eaa355c997c2a9,2024-01-23_08h12.47.643,bars,2023.2.3,Win32,59.88023952,657b66ea316d21385b68909f,0.004,144.4096,y,143.9105,0.3536,,,,,,,,,,,,,,,,,,,,,,,,,,,,,,,,,,,,,,,,,,,,,,,,,,,,,,,,,,,,,,,,,,,,,,,,,,,,,,,,,,,,,,,,,,,,,,,
,,60ddce06d1556fd085432049,65af56f973eaa355c997c2a9,2024-01-23_08h12.47.643,bars,2023.2.3,Win32,59.88023952,657b66ea316d21385b68909f,,,,,,144.4102,267.5897,space,123.1523,,,,,,,,,,,,,,,,,,,,,,,,,,,,,,,,,,,,,,,,,,,,,,,,,,,,,,,,,,,,,,,,,,,,,,,,,,,,,,,,,,,,,,,,,,,
,,60ddce06d1556fd085432049,65af56f973eaa355c997c2a9,2024-01-23_08h12.47.643,bars,2023.2.3,Win32,59.88023952,657b66ea316d21385b68909f,,,,,,,,,,,267.6076,268.5954,268.5957,269.0966,269.097,269.3463,269.3467,0,0,280.7044,space,11.3072,,280.7047,297.011,space,16.2369,,0,0,0,0,1,150,bars/single000.png,bars/mask006.png,,,,,,,,,,,,,,,,,,,,,,,,,,,,,,,,,,,,,,,,,,,,,,,,,,,,,,,,,,,,,,,,
,,60ddce06d1556fd085432049,65af56f973eaa355c997c2a9,2024-01-23_08h12.47.643,bars,2023.2.3,Win32,59.88023952,657b66ea316d21385b68909f,,,,,,,,,,,297.0344,298.0262,298.0264,298.5271,298.5272,298.7765,298.7765,0,0,308.5492,space,9.7558,,308.5494,318.0865,space,9.4738,,0,1,1,9,1,20,bars/single009.png,bars/mask006.png,,,,,,,,,,,,,,,,,,,,,,,,,,,,,,,,,,,,,,,,,,,,,,,,,,,,,,,,,,,,,,,,
,,60ddce06d1556fd085432049,65af56f973eaa355c997c2a9,2024-01-23_08h12.47.643,bars,2023.2.3,Win32,59.88023952,657b66ea316d21385b68909f,,,,,,,,,,,318.1095,319.1029,319.1031,319.6038,319.6039,319.8532,319.8533,44,44,331.0432,space,11.1767,,331.0433,334.1122,space,3.0244,,0,2,2,1,1,20,bars/single001.png,bars/mask006.png,,,,,,,,,,,,,,,,,,,,,,,,,,,,,,,,,,,,,,,,,,,,,,,,,,,,,,,,,,,,,,,,
,,60ddce06d1556fd085432049,65af56f973eaa355c997c2a9,2024-01-23_08h12.47.643,bars,2023.2.3,Win32,59.88023952,657b66ea316d21385b68909f,,,,,,,,,,,334.1134,335.1108,335.1111,335.6111,335.6113,335.8616,335.8618,78,78,336.6977,space,0.8259,,336.6978,342.5159,space,5.7975,,0,3,3,4,1,95,bars/single004.png,bars/mask004.png,,,,,,,,,,,,,,,,,,,,,,,,,,,,,,,,,,,,,,,,,,,,,,,,,,,,,,,,,,,,,,,,
,,60ddce06d1556fd085432049,65af56f973eaa355c997c2a9,2024-01-23_08h12.47.643,bars,2023.2.3,Win32,59.88023952,657b66ea316d21385b68909f,,,,,,,,,,,342.5385,343.5315,343.5316,344.0318,344.0319,344.2823,344.2823,113,113,350.5857,space,6.2866,,350.5858,357.7722,space,7.1407,,0,4,4,6,1,175,bars/single006.png,bars/mask005.png,,,,,,,,,,,,,,,,,,,,,,,,,,,,,,,,,,,,,,,,,,,,,,,,,,,,,,,,,,,,,,,,
,,60ddce06d1556fd085432049,65af56f973eaa355c997c2a9,2024-01-23_08h12.47.643,bars,2023.2.3,Win32,59.88023952,657b66ea316d21385b68909f,,,,,,,,,,,357.7955,358.7886,358.7887,359.2729,359.2729,359.5226,359.5226,13,193,370.799,space,11.2658,,370.7992,373.715,space,2.8721,,0,5,5,2,1,145,bars/single002.png,bars/mask003.png,,,,,,,,,,,,,,,,,,,,,,,,,,,,,,,,,,,,,,,,,,,,,,,,,,,,,,,,,,,,,,,,
,,60ddce06d1556fd085432049,65af56f973eaa355c997c2a9,2024-01-23_08h12.47.643,bars,2023.2.3,Win32,59.88023952,657b66ea316d21385b68909f,,,,,,,,,,,373.7156,374.7133,374.7134,375.214,375.214,375.4635,375.4636,143,143,385.1858,space,9.7054,,385.1859,397.6749,space,12.4349,,0,6,6,5,1,55,bars/single005.png,bars/mask008.png,,,,,,,,,,,,,,,,,,,,,,,,,,,,,,,,,,,,,,,,,,,,,,,,,,,,,,,,,,,,,,,,
,,60ddce06d1556fd085432049,65af56f973eaa355c997c2a9,2024-01-23_08h12.47.643,bars,2023.2.3,Win32,59.88023952,657b66ea316d21385b68909f,,,,,,,,,,,397.6989,398.6914,398.6915,399.1756,399.1756,399.426,399.426,53,53,405.7456,space,6.307,,405.7456,410.9149,space,5.1201,,0,7,7,3,1,20,bars/single003.png,bars/mask005.png,,,,,,,,,,,,,,,,,,,,,,,,,,,,,,,,,,,,,,,,,,,,,,,,,,,,,,,,,,,,,,,,
,,60ddce06d1556fd085432049,65af56f973eaa355c997c2a9,2024-01-23_08h12.47.643,bars,2023.2.3,Win32,59.88023952,657b66ea316d21385b68909f,,,,,,,,,,,410.9456,411.931,411.9312,412.4157,412.4157,412.6647,412.6649,23,23,423.7584,space,11.0835,,423.7585,426.6723,space,2.863,,0,8,8,7,1,45,bars/single007.png,bars/mask009.png,,,,,,,,,,,,,,,,,,,,,,,,,,,,,,,,,,,,,,,,,,,,,,,,,,,,,,,,,,,,,,,,
,,60ddce06d1556fd085432049,65af56f973eaa355c997c2a9,2024-01-23_08h12.47.643,bars,2023.2.3,Win32,59.88023952,657b66ea316d21385b68909f,,,,,,,,,,,426.6739,427.6727,427.6728,428.1721,428.1722,428.4221,428.4222,39,39,433.8092,space,5.3733,,433.8092,438.7281,space,4.8635,,0,9,9,8,1,160,bars/single008.png,bars/mask004.png,,,,,,,,,,,,,,,,,,,,,,,,,,,,,,,,,,,,,,,,,,,,,,,,,,,,,,,,,,,,,,,,
,,60ddce06d1556fd085432049,65af56f973eaa355c997c2a9,2024-01-23_08h12.47.643,bars,2023.2.3,Win32,59.88023952,657b66ea316d21385b68909f,,,,,,,,,,,,,,,,,,,,,,,,,,,,,,,,,,,,,438.7498,454.9068,space,16.1353,,,,,,,,,,,,,,,,,,,,,,,,,,,,,,,,,,,,,,,,,,,,,,,,,,,,,,,,,,,,
,,60ddce06d1556fd085432049,65af56f973eaa355c997c2a9,2024-01-23_08h12.47.643,bars,2023.2.3,Win32,59.88023952,657b66ea316d21385b68909f,,,,,,,,,,,,,,,,,,,,,,,,,,,,,,,,,,,,,,,,,,454.9426,464.9421,right,9.9619,,464.9425,2,2,465.9409,0,0,0,0,1,9,1,9,2,,,,,,,,,,,,,,,,,,,,,,,,,,,,,,,,,,,,,,,,,
,,60ddce06d1556fd085432049,65af56f973eaa355c997c2a9,2024-01-23_08h12.47.643,bars,2023.2.3,Win32,59.88023952,657b66ea316d21385b68909f,,,,,,,,,,,,,,,,,,,,,,,,,,,,,,,,,,,,,,,,,,465.9419,470.4602,right,4.503,,470.4604,1,2,471.4598,0,1,1,1,1,10,0,10,1,,,,,,,,,,,,,,,,,,,,,,,,,,,,,,,,,,,,,,,,,
,,60ddce06d1556fd085432049,65af56f973eaa355c997c2a9,2024-01-23_08h12.47.643,bars,2023.2.3,Win32,59.88023952,657b66ea316d21385b68909f,,,,,,,,,,,,,,,,,,,,,,,,,,,,,,,,,,,,,,,,,,471.4607,474.6958,left,3.2194,,474.6959,10,1,475.6949,0,2,2,2,1,10,2,10,2,,,,,,,,,,,,,,,,,,,,,,,,,,,,,,,,,,,,,,,,,
,,60ddce06d1556fd085432049,65af56f973eaa355c997c2a9,2024-01-23_08h12.47.643,bars,2023.2.3,Win32,59.88023952,657b66ea316d21385b68909f,,,,,,,,,,,,,,,,,,,,,,,,,,,,,,,,,,,,,,,,,,475.7175,477.664,left,1.9294,,477.664,7,1,478.6633,0,3,3,3,1,8,4,7,3,,,,,,,,,,,,,,,,,,,,,,,,,,,,,,,,,,,,,,,,,
,,60ddce06d1556fd085432049,65af56f973eaa355c997c2a9,2024-01-23_08h12.47.643,bars,2023.2.3,Win32,59.88023952,657b66ea316d21385b68909f,,,,,,,,,,,,,,,,,,,,,,,,,,,,,,,,,,,,,,,,,,478.6643,480.5629,right,1.884,,480.5632,1,2,481.5647,0,4,4,4,1,6,2,5,1,,,,,,,,,,,,,,,,,,,,,,,,,,,,,,,,,,,,,,,,,
,,60ddce06d1556fd085432049,65af56f973eaa355c997c2a9,2024-01-23_08h12.47.643,bars,2023.2.3,Win32,59.88023952,657b66ea316d21385b68909f,,,,,,,,,,,,,,,,,,,,,,,,,,,,,,,,,,,,,,,,,,481.5876,483.6865,right,2.0888,,483.6867,4,2,484.6928,0,5,5,5,1,4,4,4,4,,,,,,,,,,,,,,,,,,,,,,,,,,,,,,,,,,,,,,,,,
,,60ddce06d1556fd085432049,65af56f973eaa355c997c2a9,2024-01-23_08h12.47.643,bars,2023.2.3,Win32,59.88023952,657b66ea316d21385b68909f,,,,,,,,,,,,,,,,,,,,,,,,,,,,,,,,,,,,,,,,,,484.6934,486.338,left,1.6321,,486.3382,1,1,487.3352,0,6,6,6,1,2,2,1,2,,,,,,,,,,,,,,,,,,,,,,,,,,,,,,,,,,,,,,,,,
,,60ddce06d1556fd085432049,65af56f973eaa355c997c2a9,2024-01-23_08h12.47.643,bars,2023.2.3,Win32,59.88023952,657b66ea316d21385b68909f,,,,,,,,,,,,,,,,,,,,,,,,,,,,,,,,,,,,,,,,,,487.3909,488.5029,left,1.0964,,488.503,0,1,489.5024,0,7,7,7,1,0,0,0,1,,,,,,,,,,,,,,,,,,,,,,,,,,,,,,,,,,,,,,,,,
,,60ddce06d1556fd085432049,65af56f973eaa355c997c2a9,2024-01-23_08h12.47.643,bars,2023.2.3,Win32,59.88023952,657b66ea316d21385b68909f,,,,,,,,,,,,,,,,,,,,,,,,,,,,,,,,,,,,,,,,,,489.5031,490.4972,left,0.9849,,490.4973,1,1,491.4866,0,8,8,8,1,0,2,1,0,,,,,,,,,,,,,,,,,,,,,,,,,,,,,,,,,,,,,,,,,
,,60ddce06d1556fd085432049,65af56f973eaa355c997c2a9,2024-01-23_08h12.47.643,bars,2023.2.3,Win32,59.88023952,657b66ea316d21385b68909f,,,,,,,,,,,,,,,,,,,,,,,,,,,,,,,,,,,,,,,,,,491.4873,492.4541,left,0.9514,,492.4542,2,1,493.4545,0,9,9,9,1,2,4,2,3,,,,,,,,,,,,,,,,,,,,,,,,,,,,,,,,,,,,,,,,,
,,60ddce06d1556fd085432049,65af56f973eaa355c997c2a9,2024-01-23_08h12.47.643,bars,2023.2.3,Win32,59.88023952,657b66ea316d21385b68909f,,,,,,,,,,,,,,,,,,,,,,,,,,,,,,,,,,,,,,,,,,493.4562,494.2883,right,0.8158,,494.2884,3,2,495.2874,0,10,10,10,1,0,2,0,3,,,,,,,,,,,,,,,,,,,,,,,,,,,,,,,,,,,,,,,,,
,,60ddce06d1556fd085432049,65af56f973eaa355c997c2a9,2024-01-23_08h12.47.643,bars,2023.2.3,Win32,59.88023952,657b66ea316d21385b68909f,,,,,,,,,,,,,,,,,,,,,,,,,,,,,,,,,,,,,,,,,,495.2885,496.1061,right,0.799,,496.1062,3,2,497.1054,0,11,11,11,1,0,4,0,3,,,,,,,,,,,,,,,,,,,,,,,,,,,,,,,,,,,,,,,,,
,,60ddce06d1556fd085432049,65af56f973eaa355c997c2a9,2024-01-23_08h12.47.643,bars,2023.2.3,Win32,59.88023952,657b66ea316d21385b68909f,,,,,,,,,,,,,,,,,,,,,,,,,,,,,,,,,,,,,,,,,,497.1063,497.5927,right,0.4768,,497.5928,6,2,498.5902,0,12,12,12,1,2,6,1,6,,,,,,,,,,,,,,,,,,,,,,,,,,,,,,,,,,,,,,,,,
,,60ddce06d1556fd085432049,65af56f973eaa355c997c2a9,2024-01-23_08h12.47.643,bars,2023.2.3,Win32,59.88023952,657b66ea316d21385b68909f,,,,,,,,,,,,,,,,,,,,,,,,,,,,,,,,,,,,,,,,,,498.5913,499.3414,right,0.7337,,499.3415,3,2,500.3406,0,13,13,13,1,0,4,1,3,,,,,,,,,,,,,,,,,,,,,,,,,,,,,,,,,,,,,,,,,
,,60ddce06d1556fd085432049,65af56f973eaa355c997c2a9,2024-01-23_08h12.47.643,bars,2023.2.3,Win32,59.88023952,657b66ea316d21385b68909f,,,,,,,,,,,,,,,,,,,,,,,,,,,,,,,,,,,,,,,,,,500.3413,501.0414,left,0.6839,,501.0415,2,1,502.042,0,14,14,14,1,2,6,2,7,,,,,,,,,,,,,,,,,,,,,,,,,,,,,,,,,,,,,,,,,
,,60ddce06d1556fd085432049,65af56f973eaa355c997c2a9,2024-01-23_08h12.47.643,bars,2023.2.3,Win32,59.88023952,657b66ea316d21385b68909f,,,,,,,,,,,,,,,,,,,,,,,,,,,,,,,,,,,,,,,,,,502.0436,502.5955,right,0.5417,,502.5956,9,2,503.592,0,15,15,15,1,4,8,3,9,,,,,,,,,,,,,,,,,,,,,,,,,,,,,,,,,,,,,,,,,
,,60ddce06d1556fd085432049,65af56f973eaa355c997c2a9,2024-01-23_08h12.47.643,bars,2023.2.3,Win32,59.88023952,657b66ea316d21385b68909f,,,,,,,,,,,,,,,,,,,,,,,,,,,,,,,,,,,,,,,,,,503.5927,504.6608,right,1.0535,,504.6609,7,2,505.6602,0,16,16,16,1,6,6,7,7,,,,,,,,,,,,,,,,,,,,,,,,,,,,,,,,,,,,,,,,,
,,60ddce06d1556fd085432049,65af56f973eaa355c997c2a9,2024-01-23_08h12.47.643,bars,2023.2.3,Win32,59.88023952,657b66ea316d21385b68909f,,,,,,,,,,,,,,,,,,,,,,,,,,,,,,,,,,,,,,,,,,505.6608,506.5584,right,0.8833,,506.5585,5,2,507.5613,0,17,17,17,1,8,4,9,5,,,,,,,,,,,,,,,,,,,,,,,,,,,,,,,,,,,,,,,,,
,,60ddce06d1556fd085432049,65af56f973eaa355c997c2a9,2024-01-23_08h12.47.643,bars,2023.2.3,Win32,59.88023952,657b66ea316d21385b68909f,,,,,,,,,,,,,,,,,,,,,,,,,,,,,,,,,,,,,,,,,,507.5627,508.2492,left,0.6774,,508.2493,5,1,509.2391,0,18,18,18,1,6,2,5,1,,,,,,,,,,,,,,,,,,,,,,,,,,,,,,,,,,,,,,,,,
,,60ddce06d1556fd085432049,65af56f973eaa355c997c2a9,2024-01-23_08h12.47.643,bars,2023.2.3,Win32,59.88023952,657b66ea316d21385b68909f,,,,,,,,,,,,,,,,,,,,,,,,,,,,,,,,,,,,,,,,,,509.2397,510.1962,left,0.9363,,510.1962,7,1,511.1988,0,19,19,19,1,8,0,7,0,,,,,,,,,,,,,,,,,,,,,,,,,,,,,,,,,,,,,,,,,
,,60ddce06d1556fd085432049,65af56f973eaa355c997c2a9,2024-01-23_08h12.47.643,bars,2023.2.3,Win32,59.88023952,657b66ea316d21385b68909f,,,,,,,,,,,,,,,,,,,,,,,,,,,,,,,,,,,,,,,,,,,,,,,,,,,,,,,,,,,,511.2003,533.8095,space,22.5655,,,,,,,,,,,,,,,,,,,,,,,,,,,,,,,,,,,,,
,,60ddce06d1556fd085432049,65af56f973eaa355c997c2a9,2024-01-23_08h12.47.643,bars,2023.2.3,Win32,59.88023952,657b66ea316d21385b68909f,,,,,,,,,,,543.1318,544.095,,,544.5965,544.8452,,19,19,,,,,,,,,,,,,,,,bars/038.png,bars/mask000.png,,,,,,,,,,,,0,1,,,,,,,2,7,0,6,,,,,,533.8439,543.0796,space,9.2121,,544.0955,544.5964,544.8457,554.5191,space,9.6447,,554.5195,34,51,555.5179,555.5182,569.7261,space,14.1696,,0,0,0,0,1,165,70,,,,,,,,
,,60ddce06d1556fd085432049,65af56f973eaa355c997c2a9,2024-01-23_08h12.47.643,bars,2023.2.3,Win32,59.88023952,657b66ea316d21385b68909f,,,,,,,,,,,569.7541,570.742,,,571.2322,571.4747,,154,154,,,,,,,,,,,,,,,,bars/049.png,bars/mask005.png,,,,,,,,,,,,1,1,,,,,,,0,9,1,10,,,,,,,,,,,570.7422,571.2321,571.4749,581.6971,space,10.2086,,581.6974,6,39,582.6972,582.6974,590.6351,space,7.8856,,0,1,1,1,1,160,115,,,,,,,,
,,60ddce06d1556fd085432049,65af56f973eaa355c997c2a9,2024-01-23_08h12.47.643,bars,2023.2.3,Win32,59.88023952,657b66ea316d21385b68909f,,,,,,,,,,,590.6566,591.6512,,,592.1355,592.3849,,158,158,,,,,,,,,,,,,,,,bars/026.png,bars/mask009.png,,,,,,,,,,,,0,1,,,,,,,0,7,1,7,,,,,,,,,,,591.6513,592.1354,592.385,598.1387,space,5.7388,,598.1388,57,73,599.1382,599.1384,607.8767,space,8.6869,,0,2,2,2,1,35,85,,,,,,,,
,,60ddce06d1556fd085432049,65af56f973eaa355c997c2a9,2024-01-23_08h12.47.643,bars,2023.2.3,Win32,59.88023952,657b66ea316d21385b68909f,,,,,,,,,,,607.9007,608.8929,,,609.3932,609.6431,,29,29,,,,,,,,,,,,,,,,bars/041.png,bars/mask009.png,,,,,,,,,,,,1,1,,,,,,,2,9,1,9,,,,,,,,,,,608.893,609.3931,609.6433,616.1646,space,6.5075,,616.1647,9,56,617.1635,617.1636,623.2351,space,6.0315,,0,3,3,3,1,20,85,,,,,,,,
,,60ddce06d1556fd085432049,65af56f973eaa355c997c2a9,2024-01-23_08h12.47.643,bars,2023.2.3,Win32,59.88023952,657b66ea316d21385b68909f,,,,,,,,,,,623.2564,624.2504,,,624.7509,625.0009,,20,20,,,,,,,,,,,,,,,,bars/024.png,bars/mask000.png,,,,,,,,,,,,0,2,,,,,,,4,10,4,10,,,,,,,,,,,624.2505,624.7507,625.0009,631.8218,space,6.8078,,631.822,80,30,632.8217,632.8218,645.0808,space,12.1982,,0,4,4,4,1,120,170,,,,,,,,
,,60ddce06d1556fd085432049,65af56f973eaa355c997c2a9,2024-01-23_08h12.47.643,bars,2023.2.3,Win32,59.88023952,657b66ea316d21385b68909f,,,,,,,,,,,645.1054,646.0939,,,646.5949,646.8454,,166,-14,,,,,,,,,,,,,,,,bars/028.png,bars/mask003.png,,,,,,,,,,,,0,2,,,,,,,2,10,0,10,,,,,,,,,,,646.0942,646.5949,646.8455,656.7338,space,9.873,,656.734,59,46,657.7336,657.7338,664.5382,space,6.7601,,0,5,5,5,1,45,120,,,,,,,,
,,60ddce06d1556fd085432049,65af56f973eaa355c997c2a9,2024-01-23_08h12.47.643,bars,2023.2.3,Win32,59.88023952,657b66ea316d21385b68909f,,,,,,,,,,,664.5615,665.5535,,,666.0545,666.3043,,141,141,,,,,,,,,,,,,,,,bars/035.png,bars/mask007.png,,,,,,,,,,,,0,1,,,,,,,4,10,5,9,,,,,,,,,,,665.5536,666.0544,666.3044,675.8761,space,9.5564,,675.8762,34,81,676.8759,676.876,680.5479,space,3.6249,,0,6,6,6,1,175,60,,,,,,,,
,,60ddce06d1556fd085432049,65af56f973eaa355c997c2a9,2024-01-23_08h12.47.643,bars,2023.2.3,Win32,59.88023952,657b66ea316d21385b68909f,,,,,,,,,,,680.5485,681.5448,,,682.0453,682.2952,,163,163,,,,,,,,,,,,,,,,bars/038.png,bars/mask006.png,,,,,,,,,,,,2,1,,,,,,,2,8,2,8,,,,,,,,,,,681.5449,682.0452,682.2953,698.1228,space,15.8145,,698.1229,2,87,699.1201,699.1201,704.1238,space,4.9578,,0,7,7,7,1,165,70,,,,,,,,
,,60ddce06d1556fd085432049,65af56f973eaa355c997c2a9,2024-01-23_08h12.47.643,bars,2023.2.3,Win32,59.88023952,657b66ea316d21385b68909f,,,,,,,,,,,704.149,705.1391,,,705.6398,705.8897,,171,171,,,,,,,,,,,,,,,,bars/029.png,bars/mask009.png,,,,,,,,,,,,0,2,,,,,,,0,10,0,10,,,,,,,,,,,705.1393,705.6397,705.8899,714.6954,space,8.7902,,714.6955,81,54,715.697,715.6971,721.1147,space,5.3492,,0,8,8,8,1,90,45,,,,,,,,
,,60ddce06d1556fd085432049,65af56f973eaa355c997c2a9,2024-01-23_08h12.47.643,bars,2023.2.3,Win32,59.88023952,657b66ea316d21385b68909f,,,,,,,,,,,721.1379,722.1312,,,722.6313,722.8653,,42,42,,,,,,,,,,,,,,,,bars/016.png,bars/mask005.png,,,,,,,,,,,,2,1,,,,,,,2,8,2,8,,,,,,,,,,,722.1313,722.6311,722.8654,727.0696,space,4.1935,,727.0697,2,57,728.067,728.0671,731.0027,space,2.8804,,0,9,9,9,1,40,165,,,,,,,,
,,60ddce06d1556fd085432049,65af56f973eaa355c997c2a9,2024-01-23_08h12.47.643,bars,2023.2.3,Win32,59.88023952,657b66ea316d21385b68909f,,,,,,,,,,,731.0038,732.003,,,732.5036,732.7528,,29,29,,,,,,,,,,,,,,,,bars/035.png,bars/mask003.png,,,,,,,,,,,,0,2,,,,,,,0,10,0,10,,,,,,,,,,,732.003,732.5036,732.753,742.2246,space,9.4565,,742.2247,34,31,743.2245,743.2245,746.2272,space,2.9431,,0,10,10,10,1,175,60,,,,,,,,
,,60ddce06d1556fd085432049,65af56f973eaa355c997c2a9,2024-01-23_08h12.47.643,bars,2023.2.3,Win32,59.88023952,657b66ea316d21385b68909f,,,,,,,,,,,746.228,747.2262,,,747.56,747.81,,34,34,,,,,,,,,,,,,,,,bars/006.png,bars/mask002.png,,,,,,,,,,,,1,1,,,,,,,0,8,1,8,,,,,,,,,,,747.2264,747.5599,747.81,755.9984,space,8.1716,,755.9984,1,66,756.998,756.9983,769.7046,space,12.6583,,0,11,11,11,1,35,100,,,,,,,,
,,60ddce06d1556fd085432049,65af56f973eaa355c997c2a9,2024-01-23_08h12.47.643,bars,2023.2.3,Win32,59.88023952,657b66ea316d21385b68909f,,,,,,,,,,,769.7276,770.721,,,771.2213,771.4577,,22,22,,,,,,,,,,,,,,,,bars/010.png,bars/mask001.png,,,,,,,,,,,,0,2,,,,,,,0,6,1,5,,,,,,,,,,,770.721,771.2212,771.4577,776.7079,space,5.234,,776.708,37,33,777.7077,777.7079,780.5125,space,2.7597,,0,12,12,12,1,165,55,,,,,,,,
,,60ddce06d1556fd085432049,65af56f973eaa355c997c2a9,2024-01-23_08h12.47.643,bars,2023.2.3,Win32,59.88023952,657b66ea316d21385b68909f,,,,,,,,,,,780.544,781.5262,,,782.0267,782.2632,,49,49,,,,,,,,,,,,,,,,bars/009.png,bars/mask005.png,,,,,,,,,,,,0,1,,,,,,,2,4,3,2,,,,,,,,,,,781.5263,782.0266,782.2632,787.63,space,5.3535,,787.63,34,56,788.6298,788.6299,790.9666,space,2.2937,,0,13,13,13,1,15,105,,,,,,,,
,,60ddce06d1556fd085432049,65af56f973eaa355c997c2a9,2024-01-23_08h12.47.643,bars,2023.2.3,Win32,59.88023952,657b66ea316d21385b68909f,,,,,,,,,,,790.9672,791.9645,,,792.4651,792.7149,,9,189,,,,,,,,,,,,,,,,bars/026.png,bars/mask000.png,,,,,,,,,,,,0,1,,,,,,,0,2,0,1,,,,,,,,,,,791.9646,792.465,792.7151,800.2195,space,7.4912,,800.2196,26,76,801.2191,801.2193,803.3708,space,2.1061,,0,14,14,14,1,35,85,,,,,,,,
,,60ddce06d1556fd085432049,65af56f973eaa355c997c2a9,2024-01-23_08h12.47.643,bars,2023.2.3,Win32,59.88023952,657b66ea316d21385b68909f,,,,,,,,,,,803.3716,804.3706,,,804.873,805.1211,,26,26,,,,,,,,,,,,,,,,bars/016.png,bars/mask006.png,,,,,,,,,,,,1,1,,,,,,,2,0,2,1,,,,,,,,,,,804.3707,804.8729,805.1212,810.5246,space,5.39,,810.5247,14,41,811.5241,811.5243,818.7284,space,7.1604,,0,15,15,15,1,40,165,,,,,,,,
,,60ddce06d1556fd085432049,65af56f973eaa355c997c2a9,2024-01-23_08h12.47.643,bars,2023.2.3,Win32,59.88023952,657b66ea316d21385b68909f,,,,,,,,,,,818.751,819.7445,,,820.2452,820.495,,32,32,,,,,,,,,,,,,,,,bars/003.png,bars/mask001.png,,,,,,,,,,,,0,1,,,,,,,0,2,0,3,,,,,,,,,,,819.7446,820.245,820.4951,827.787,space,7.2817,,827.787,7,72,828.7822,828.7823,870.4536,space,41.6247,,0,16,16,16,1,25,140,,,,,,,,
,,60ddce06d1556fd085432049,65af56f973eaa355c997c2a9,2024-01-23_08h12.47.643,bars,2023.2.3,Win32,59.88023952,657b66ea316d21385b68909f,,,,,,,,,,,870.4778,871.4698,,,871.9699,872.22,,16,16,,,,,,,,,,,,,,,,bars/026.png,bars/mask003.png,,,,,,,,,,,,1,1,,,,,,,2,0,2,0,,,,,,,,,,,871.4698,871.9699,872.2201,877.4568,space,5.2217,,877.457,19,69,878.4568,878.4569,880.2585,space,1.7575,,0,17,17,17,1,35,85,,,,,,,,
,,60ddce06d1556fd085432049,65af56f973eaa355c997c2a9,2024-01-23_08h12.47.643,bars,2023.2.3,Win32,59.88023952,657b66ea316d21385b68909f,,,,,,,,,,,880.2593,881.2576,,,881.7582,882.0081,,32,212,,,,,,,,,,,,,,,,bars/044.png,bars/mask001.png,,,,,,,,,,,,0,1,,,,,,,4,2,5,1,,,,,,,,,,,881.2578,881.758,882.0082,887.5288,space,5.508,,887.5291,43,57,888.5278,888.5281,889.9469,space,1.3762,,0,18,18,18,1,75,155,,,,,,,,
,,60ddce06d1556fd085432049,65af56f973eaa355c997c2a9,2024-01-23_08h12.47.643,bars,2023.2.3,Win32,59.88023952,657b66ea316d21385b68909f,,,,,,,,,,,889.9476,890.9458,,,891.4461,891.6961,,68,68,,,,,,,,,,,,,,,,bars/017.png,bars/mask002.png,,,,,,,,,,,,1,2,,,,,,,2,4,3,5,,,,,,,,,,,890.9459,891.4461,891.6963,895.4985,space,3.7875,,895.4986,77,23,896.4984,896.4984,905.7204,space,9.1722,,0,19,19,19,1,145,45,,,,,,,,
,,60ddce06d1556fd085432049,65af56f973eaa355c997c2a9,2024-01-23_08h12.47.643,bars,2023.2.3,Win32,59.88023952,657b66ea316d21385b68909f,,,,,,,,,,,905.7429,906.7367,,,907.2375,907.4872,,40,40,,,,,,,,,,,,,,,,bars/037.png,bars/mask009.png,,,,,,,,,,,,0,2,,,,,,,4,6,4,8,,,,,,,,,,,906.7367,907.237,907.4873,911.5732,space,4.0698,,911.5734,70,65,912.5728,912.5729,915.01,space,2.4009,,0,20,20,20,1,150,105,,,,,,,,
,,60ddce06d1556fd085432049,65af56f973eaa355c997c2a9,2024-01-23_08h12.47.643,bars,2023.2.3,Win32,59.88023952,657b66ea316d21385b68909f,,,,,,,,,,,915.0105,916.0079,,,916.5097,916.7596,,84,84,,,,,,,,,,,,,,,,bars/032.png,bars/mask009.png,,,,,,,,,,,,0,1,,,,,,,2,4,3,4,,,,,,,,,,,916.0079,916.5097,916.7597,922.0642,space,5.2938,,922.0642,41,64,923.0612,923.0613,924.7481,space,1.6427,,0,21,21,21,1,125,20,,,,,,,,
,,60ddce06d1556fd085432049,65af56f973eaa355c997c2a9,2024-01-23_08h12.47.643,bars,2023.2.3,Win32,59.88023952,657b66ea316d21385b68909f,,,,,,,,,,,924.7487,925.7459,,,926.2461,926.4964,,130,130,,,,,,,,,,,,,,,,bars/025.png,bars/mask002.png,,,,,,,,,,,,0,1,,,,,,,4,2,3,2,,,,,,,,,,,925.746,926.2461,926.4964,929.5977,space,3.087,,929.5979,25,90,930.5981,930.5983,933.0002,space,2.361,,0,22,22,22,1,105,40,,,,,,,,
,,60ddce06d1556fd085432049,65af56f973eaa355c997c2a9,2024-01-23_08h12.47.643,bars,2023.2.3,Win32,59.88023952,657b66ea316d21385b68909f,,,,,,,,,,,933.0011,933.9997,,,934.5005,934.7501,,102,102,,,,,,,,,,,,,,,,bars/030.png,bars/mask003.png,,,,,,,,,,,,0,2,,,,,,,2,4,1,3,,,,,,,,,,,933.9998,934.5004,934.7503,936.1867,space,1.4258,,936.1868,38,37,937.1847,937.1848,939.121,space,1.9053,,0,23,23,23,1,140,65,,,,,,,,
,,60ddce06d1556fd085432049,65af56f973eaa355c997c2a9,2024-01-23_08h12.47.643,bars,2023.2.3,Win32,59.88023952,657b66ea316d21385b68909f,,,,,,,,,,,939.1218,940.1194,,,940.6199,940.8698,,52,232,,,,,,,,,,,,,,,,bars/016.png,bars/mask003.png,,,,,,,,,,,,0,1,,,,,,,0,2,0,3,,,,,,,,,,,940.1195,940.6197,940.8699,945.8067,space,4.922,,945.8069,12,67,946.8059,946.8061,948.4746,space,1.6185,,0,24,24,24,1,40,165,,,,,,,,
,,60ddce06d1556fd085432049,65af56f973eaa355c997c2a9,2024-01-23_08h12.47.643,bars,2023.2.3,Win32,59.88023952,657b66ea316d21385b68909f,,,,,,,,,,,948.4753,949.4742,,,949.9745,950.2253,,22,22,,,,,,,,,,,,,,,,bars/029.png,bars/mask003.png,,,,,,,,,,,,0,2,,,,,,,2,0,4,0,,,,,,,,,,,949.4742,949.9744,950.2253,956.8282,space,6.5871,,956.8282,68,23,957.8279,957.8281,960.2478,space,2.3681,,0,25,25,25,1,90,45,,,,,,,,
,,60ddce06d1556fd085432049,65af56f973eaa355c997c2a9,2024-01-23_08h12.47.643,bars,2023.2.3,Win32,59.88023952,657b66ea316d21385b68909f,,,,,,,,,,,960.2485,961.2445,,,961.7466,961.9967,,44,224,,,,,,,,,,,,,,,,bars/021.png,bars/mask009.png,,,,,,,,,,,,0,2,,,,,,,0,0,1,1,,,,,,,,,,,961.2446,961.7465,961.9968,969.618,space,7.605,,969.618,69,26,970.6175,970.6176,972.3382,space,1.6796,,0,26,26,26,1,155,70,,,,,,,,
,,60ddce06d1556fd085432049,65af56f973eaa355c997c2a9,2024-01-23_08h12.47.643,bars,2023.2.3,Win32,59.88023952,657b66ea316d21385b68909f,,,,,,,,,,,972.339,973.3354,,,973.8356,974.0861,,53,53,,,,,,,,,,,,,,,,bars/009.png,bars/mask002.png,,,,,,,,,,,,0,1,,,,,,,2,0,3,0,,,,,,,,,,,973.3355,973.8356,974.0862,982.1739,space,8.0728,,982.174,38,52,983.1738,983.1742,987.0292,space,3.809,,0,27,27,27,1,15,105,,,,,,,,
,,60ddce06d1556fd085432049,65af56f973eaa355c997c2a9,2024-01-23_08h12.47.643,bars,2023.2.3,Win32,59.88023952,657b66ea316d21385b68909f,,,,,,,,,,,987.0299,988.0265,,,988.5269,988.7769,,156,-24,,,,,,,,,,,,,,,,bars/003.png,bars/mask004.png,,,,,,,,,,,,1,2,,,,,,,0,2,0,2,,,,,,,,,,,988.0266,988.5268,988.7769,994.5499,space,5.7639,,994.55,49,16,995.5467,995.5468,997.5812,space,1.9841,,0,28,28,28,1,25,140,,,,,,,,
,,60ddce06d1556fd085432049,65af56f973eaa355c997c2a9,2024-01-23_08h12.47.643,bars,2023.2.3,Win32,59.88023952,657b66ea316d21385b68909f,,,,,,,,,,,997.582,998.5793,,,999.0814,999.3315,,125,125,,,,,,,,,,,,,,,,bars/007.png,bars/mask003.png,,,,,,,,,,,,0,1,,,,,,,0,0,0,0,,,,,,,,,,,998.5793,999.0814,999.3316,1004.6683,space,5.3206,,1004.6684,50,70,1005.6678,1005.668,1022.2601,space,16.542,,0,29,29,29,1,175,55,,,,,,,,
,,60ddce06d1556fd085432049,65af56f973eaa355c997c2a9,2024-01-23_08h12.47.643,bars,2023.2.3,Win32,59.88023952,657b66ea316d21385b68909f,,,,,,,,,,,1022.2828,1023.2767,,,1023.7767,1024.0266,,172,172,,,,,,,,,,,,,,,,bars/036.png,bars/mask009.png,,,,,,,,,,,,0,1,,,,,,,0,0,1,0,,,,,,,,,,,1023.2768,1023.7766,1024.0267,1031.3143,space,7.2712,,1031.3145,27,28,1032.314,1032.3142,1039.8045,space,7.4515,,0,30,30,30,1,145,20,,,,,,,,
,,60ddce06d1556fd085432049,65af56f973eaa355c997c2a9,2024-01-23_08h12.47.643,bars,2023.2.3,Win32,59.88023952,657b66ea316d21385b68909f,,,,,,,,,,,1039.8266,1040.8187,,,1041.3184,1041.5703,,139,139,,,,,,,,,,,,,,,,bars/018.png,bars/mask004.png,,,,,,,,,,,,1,1,,,,,,,2,0,2,2,,,,,,,,,,,1040.8189,1041.3183,1041.5704,1045.3044,space,3.7179,,1045.3045,11,49,1046.3041,1046.3042,1050.1902,space,3.8427,,0,31,31,31,1,150,90,,,,,,,,
,,60ddce06d1556fd085432049,65af56f973eaa355c997c2a9,2024-01-23_08h12.47.643,bars,2023.2.3,Win32,59.88023952,657b66ea316d21385b68909f,,,,,,,,,,,1050.2109,1051.1903,,,1051.6912,1051.9413,,161,161,,,,,,,,,,,,,,,,bars/033.png,bars/mask000.png,,,,,,,,,,,,1,2,,,,,,,4,2,4,1,,,,,,,,,,,1051.1904,1051.6912,1051.9414,1061.2788,space,9.3216,,1061.2789,44,6,1062.2784,1062.2786,1068.7845,space,6.4558,,0,32,32,32,1,25,155,,,,,,,,
,,60ddce06d1556fd085432049,65af56f973eaa355c997c2a9,2024-01-23_08h12.47.643,bars,2023.2.3,Win32,59.88023952,657b66ea316d21385b68909f,,,,,,,,,,,1068.8102,1069.7987,,,1070.2993,1070.5491,,153,-27,,,,,,,,,,,,,,,,bars/035.png,bars/mask003.png,,,,,,,,,,,,2,1,,,,,,,6,4,7,4,,,,,,,,,,,1069.7988,1070.2992,1070.5493,1077.0866,space,6.5209,,1077.0867,22,87,1078.0862,1078.0863,1086.541,space,8.4036,,0,33,33,33,1,175,60,,,,,,,,
,,60ddce06d1556fd085432049,65af56f973eaa355c997c2a9,2024-01-23_08h12.47.643,bars,2023.2.3,Win32,59.88023952,657b66ea316d21385b68909f,,,,,,,,,,,1086.5637,1087.5574,,,1088.0578,1088.3076,,174,174,,,,,,,,,,,,,,,,bars/043.png,bars/mask000.png,,,,,,,,,,,,0,1,,,,,,,8,2,8,2,,,,,,,,,,,1087.5576,1088.0577,1088.3078,1098.4301,space,10.1055,,1098.4302,36,44,1099.4297,1099.4298,1101.915,space,2.4425,,0,34,34,34,1,30,130,,,,,,,,
,,60ddce06d1556fd085432049,65af56f973eaa355c997c2a9,2024-01-23_08h12.47.643,bars,2023.2.3,Win32,59.88023952,657b66ea316d21385b68909f,,,,,,,,,,,1101.9157,1102.9147,,,1103.4152,1103.6651,,27,27,,,,,,,,,,,,,,,,bars/028.png,bars/mask001.png,,,,,,,,,,,,4,1,,,,,,,10,0,10,0,,,,,,,,,,,1102.9148,1103.4151,1103.6652,1110.1554,space,6.4801,,1110.1555,18,87,1111.1523,1111.1523,1117.4726,space,6.2749,,0,35,35,35,1,45,120,,,,,,,,
,,60ddce06d1556fd085432049,65af56f973eaa355c997c2a9,2024-01-23_08h12.47.643,bars,2023.2.3,Win32,59.88023952,657b66ea316d21385b68909f,,,,,,,,,,,1117.4952,1118.4888,,,1118.9894,1119.2394,,38,38,,,,,,,,,,,,,,,,bars/047.png,bars/mask005.png,,,,,,,,,,,,2,1,,,,,,,8,0,9,0,,,,,,,,,,,1118.489,1118.9894,1119.2395,1126.3912,space,7.1382,,1126.3913,23,32,1127.3933,1127.3934,1177.5685,space,50.1335,,0,36,36,36,1,15,70,,,,,,,,
,,60ddce06d1556fd085432049,65af56f973eaa355c997c2a9,2024-01-23_08h12.47.643,bars,2023.2.3,Win32,59.88023952,657b66ea316d21385b68909f,,,,,,,,,,,1177.5914,1178.5847,,,1179.0852,1179.3352,,31,31,,,,,,,,,,,,,,,,bars/017.png,bars/mask001.png,,,,,,,,,,,,2,2,,,,,,,10,2,9,3,,,,,,,,,,,1178.5848,1179.0851,1179.3352,1189.4071,space,10.06,,1189.408,66,14,1190.407,1190.4075,1227.7427,space,37.2834,,0,37,37,37,1,145,45,,,,,,,,
,,60ddce06d1556fd085432049,65af56f973eaa355c997c2a9,2024-01-23_08h12.47.643,bars,2023.2.3,Win32,59.88023952,657b66ea316d21385b68909f,,,,,,,,,,,1227.7675,1228.7591,,,1229.2471,1229.4932,,44,224,,,,,,,,,,,,,,,,bars/002.png,bars/mask003.png,,,,,,,,,,,,0,2,,,,,,,8,0,9,0,,,,,,,,,,,1228.7592,1229.247,1229.4933,1235.3639,space,5.8605,,1235.3641,86,41,1236.3628,1236.3628,1281.552,space,45.144,,0,38,38,38,1,130,85,,,,,,,,
,,60ddce06d1556fd085432049,65af56f973eaa355c997c2a9,2024-01-23_08h12.47.643,bars,2023.2.3,Win32,59.88023952,657b66ea316d21385b68909f,,,,,,,,,,,1281.5757,1282.5527,,,1283.052,1283.3019,,77,77,,,,,,,,,,,,,,,,bars/042.png,bars/mask006.png,,,,,,,,,,,,0,2,,,,,,,10,0,10,0,,,,,,,,,,,1282.5527,1283.0519,1283.3021,1287.6718,space,4.3545,,1287.6719,68,2,1288.6713,1288.6714,1350.2388,space,61.5304,,0,39,39,39,1,145,75,,,,,,,,
,,60ddce06d1556fd085432049,65af56f973eaa355c997c2a9,2024-01-23_08h12.47.643,bars,2023.2.3,Win32,59.88023952,657b66ea316d21385b68909f,,,,,,,,,,,1350.2642,1351.2514,,,1351.7518,1352.0022,,53,53,,,,,,,,,,,,,,,,bars/015.png,bars/mask005.png,,,,,,,,,,,,0,1,,,,,,,10,0,10,0,,,,,,,,,,,1351.2515,1351.7516,1352.0022,1359.2563,space,7.2397,,1359.2564,57,73,1360.2561,1360.2562,1362.9581,space,2.6488,,0,40,40,40,1,110,160,,,,,,,,
,,60ddce06d1556fd085432049,65af56f973eaa355c997c2a9,2024-01-23_08h12.47.643,bars,2023.2.3,Win32,59.88023952,657b66ea316d21385b68909f,,,,,,,,,,,1362.9811,1363.9743,,,1364.4747,1364.7249,,121,121,,,,,,,,,,,,,,,,bars/018.png,bars/mask004.png,,,,,,,,,,,,0,1,,,,,,,8,0,6,0,,,,,,,,,,,1363.9745,1364.4746,1364.7249,1374.6308,space,9.8931,,1374.631,29,31,1375.6298,1375.6299,1377.0645,space,1.3887,,0,41,41,41,1,150,90,,,,,,,,
,,60ddce06d1556fd085432049,65af56f973eaa355c997c2a9,2024-01-23_08h12.47.643,bars,2023.2.3,Win32,59.88023952,657b66ea316d21385b68909f,,,,,,,,,,,1377.0656,1378.0643,,,1378.5648,1378.8149,,151,151,,,,,,,,,,,,,,,,bars/023.png,bars/mask005.png,,,,,,,,,,,,0,2,,,,,,,10,2,10,3,,,,,,,,,,,1378.0645,1378.5646,1378.815,1381.6502,space,2.8206,,1381.6503,49,36,1382.6499,1382.6499,1385.0686,space,2.3671,,0,42,42,42,1,20,115,,,,,,,,
,,60ddce06d1556fd085432049,65af56f973eaa355c997c2a9,2024-01-23_08h12.47.643,bars,2023.2.3,Win32,59.88023952,657b66ea316d21385b68909f,,,,,,,,,,,1385.0692,1386.0682,,,1386.5686,1386.8186,,140,140,,,,,,,,,,,,,,,,bars/004.png,bars/mask008.png,,,,,,,,,,,,2,2,,,,,,,8,4,9,4,,,,,,,,,,,1386.0684,1386.5686,1386.8188,1390.9048,space,4.071,,1390.9048,65,15,1391.9045,1391.9047,1393.6393,space,1.6929,,0,43,43,43,1,25,125,,,,,,,,
,,60ddce06d1556fd085432049,65af56f973eaa355c997c2a9,2024-01-23_08h12.47.643,bars,2023.2.3,Win32,59.88023952,657b66ea316d21385b68909f,,,,,,,,,,,1393.64,1394.6391,,,1395.1399,1395.3895,,145,-35,,,,,,,,,,,,,,,,bars/031.png,bars/mask004.png,,,,,,,,,,,,1,1,,,,,,,10,2,9,1,,,,,,,,,,,1394.6392,1395.1399,1395.3895,1402.0766,space,6.6738,,1402.0767,25,70,1403.076,1403.0761,1405.4813,space,2.36,,0,44,44,44,1,120,35,,,,,,,,
,,60ddce06d1556fd085432049,65af56f973eaa355c997c2a9,2024-01-23_08h12.47.643,bars,2023.2.3,Win32,59.88023952,657b66ea316d21385b68909f,,,,,,,,,,,1405.4827,1406.4781,,,1406.9783,1407.2285,,130,130,,,,,,,,,,,,,,,,bars/032.png,bars/mask003.png,,,,,,,,,,,,7,1,,,,,,,8,0,8,0,,,,,,,,,,,1406.4783,1406.9783,1407.2285,1411.1312,space,3.8873,,1411.1312,5,70,1412.1304,1412.1304,1414.4495,space,2.2772,,0,45,45,45,1,125,20,,,,,,,,
,,60ddce06d1556fd085432049,65af56f973eaa355c997c2a9,2024-01-23_08h12.47.643,bars,2023.2.3,Win32,59.88023952,657b66ea316d21385b68909f,,,,,,,,,,,1414.4502,1415.449,,,1415.9494,1416.1996,,140,140,,,,,,,,,,,,,,,,bars/031.png,bars/mask005.png,,,,,,,,,,,,3,1,,,,,,,6,0,8,1,,,,,,,,,,,1415.4492,1415.9493,1416.1996,1421.0529,space,4.8377,,1421.0529,20,75,1422.0524,1422.0526,1426.1216,space,4.026,,0,46,46,46,1,120,35,,,,,,,,
,,60ddce06d1556fd085432049,65af56f973eaa355c997c2a9,2024-01-23_08h12.47.643,bars,2023.2.3,Win32,59.88023952,657b66ea316d21385b68909f,,,,,,,,,,,1426.1428,1427.122,,,1427.6222,1427.8724,,137,137,,,,,,,,,,,,,,,,bars/003.png,bars/mask006.png,,,,,,,,,,,,0,2,,,,,,,8,0,7,0,,,,,,,,,,,1427.122,1427.6222,1427.8724,1434.1759,space,6.2877,,1434.1759,68,3,1435.1758,1435.1758,1438.896,space,3.6694,,0,47,47,47,1,25,140,,,,,,,,
,,60ddce06d1556fd085432049,65af56f973eaa355c997c2a9,2024-01-23_08h12.47.643,bars,2023.2.3,Win32,59.88023952,657b66ea316d21385b68909f,,,,,,,,,,,1438.9207,1439.9109,,,1440.411,1440.6613,,152,152,,,,,,,,,,,,,,,,bars/040.png,bars/mask000.png,,,,,,,,,,,,4,1,,,,,,,6,2,6,3,,,,,,,,,,,1439.911,1440.411,1440.6613,1444.6471,space,3.9713,,1444.6471,12,33,1445.647,1445.6471,1446.9652,space,1.2719,,0,48,48,48,1,140,5,,,,,,,,
,,60ddce06d1556fd085432049,65af56f973eaa355c997c2a9,2024-01-23_08h12.47.643,bars,2023.2.3,Win32,59.88023952,657b66ea316d21385b68909f,,,,,,,,,,,1446.9659,1447.9648,,,1448.4652,1448.7152,,151,151,,,,,,,,,,,,,,,,bars/005.png,bars/mask000.png,,,,,,,,,,,,2,2,,,,,,,4,4,4,3,,,,,,,,,,,1447.9648,1448.4651,1448.7154,1455.2192,space,6.488,,1455.2193,39,11,1456.2333,1456.2334,1458.274,space,1.9857,,0,49,49,49,1,10,140,,,,,,,,
,,60ddce06d1556fd085432049,65af56f973eaa355c997c2a9,2024-01-23_08h12.47.643,bars,2023.2.3,Win32,59.88023952,657b66ea316d21385b68909f,,,,,,,,,,,,,,,,,,,,,,,,,,,,,,,,,,,,,,,,,,,,,,,,,,,,,,,,,,,,,,,,,,,,,,,,,,,,,,,,,,,,,,,,,,,,,1458.2753,1518.2667,0,0,0,3,1,sequence_tables/blk019.csv
,,60ddce06d1556fd085432049,65af56f973eaa355c997c2a9,2024-01-23_08h12.47.643,bars,2023.2.3,Win32,59.88023952,657b66ea316d21385b68909f,,,,,,,,,,,1558.239,1559.2028,,,1559.7027,1559.9523,,166,166,,,,,,,,,,,,,,,,bars/002.png,bars/mask004.png,,,,,,,,,,,,0,1,,,,,,,3,2,6,4,,,,,,1518.2903,1558.2023,space,39.8954,,1559.2029,1559.7026,1559.9524,1567.1064,space,7.138,,1567.1065,36,81,1568.1063,1568.1064,1568.1386,,,,0,0,0,0,1,130,85,,,,,,,,
,,60ddce06d1556fd085432049,65af56f973eaa355c997c2a9,2024-01-23_08h12.47.643,bars,2023.2.3,Win32,59.88023952,657b66ea316d21385b68909f,,,,,,,,,,,1568.1392,1569.1402,,,1569.6406,1569.8905,,179,179,,,,,,,,,,,,,,,,bars/042.png,bars/mask004.png,,,,,,,,,,,,0,1,,,,,,,1,4,1,4,,,,,,,,,,,1569.1403,1569.6405,1569.8906,1576.4111,space,6.5052,,1576.4112,34,76,1577.409,1577.409,1577.436,,,,0,1,1,1,1,145,75,,,,,,,,
,,60ddce06d1556fd085432049,65af56f973eaa355c997c2a9,2024-01-23_08h12.47.643,bars,2023.2.3,Win32,59.88023952,657b66ea316d21385b68909f,,,,,,,,,,,1577.4365,1578.4278,,,1578.9284,1579.1784,,179,-1,,,,,,,,,,,,,,,,bars/000.png,bars/mask005.png,,,,,,,,,,,,0,2,,,,,,,3,6,4,5,,,,,,,,,,,1578.4278,1578.9283,1579.1785,1586.1323,space,6.9396,,1586.1324,41,34,1587.132,1587.1322,1587.1591,,,,0,2,2,2,1,40,145,,,,,,,,
,,60ddce06d1556fd085432049,65af56f973eaa355c997c2a9,2024-01-23_08h12.47.643,bars,2023.2.3,Win32,59.88023952,657b66ea316d21385b68909f,,,,,,,,,,,1587.1599,1588.1494,,,1588.6494,1588.8995,,91,91,,,,,,,,,,,,,,,,bars/041.png,bars/mask004.png,,,,,,,,,,,,3,2,,,,,,,5,4,5,4,,,,,,,,,,,1588.1495,1588.6493,1588.8996,1597.3715,space,8.4561,,1597.3716,71,6,1598.3714,1598.3715,1598.398,,,,0,3,3,3,1,20,85,,,,,,,,
,,60ddce06d1556fd085432049,65af56f973eaa355c997c2a9,2024-01-23_08h12.47.643,bars,2023.2.3,Win32,59.88023952,657b66ea316d21385b68909f,,,,,,,,,,,1598.3987,1599.3884,,,1599.8886,1600.1383,,178,-2,,,,,,,,,,,,,,,,bars/017.png,bars/mask000.png,,,,,,,,,,,,0,1,,,,,,,3,6,3,6,,,,,,,,,,,1599.3885,1599.8885,1600.1383,1608.2597,space,8.1052,,1608.2599,33,47,1609.2594,1609.2595,1609.2861,,,,0,4,4,4,1,145,45,,,,,,,,
,,60ddce06d1556fd085432049,65af56f973eaa355c997c2a9,2024-01-23_08h12.47.643,bars,2023.2.3,Win32,59.88023952,657b66ea316d21385b68909f,,,,,,,,,,,1609.2866,1610.2763,,,1610.7768,1611.0269,,90,90,,,,,,,,,,,,,,,,bars/033.png,bars/mask009.png,,,,,,,,,,,,0,2,,,,,,,5,8,4,8,,,,,,,,,,,1610.2766,1610.7768,1611.0269,1618.6647,space,7.6217,,1618.6648,65,65,1619.6646,1619.6647,1619.6909,,,,0,5,5,5,1,25,155,,,,,,,,
,,60ddce06d1556fd085432049,65af56f973eaa355c997c2a9,2024-01-23_08h12.47.643,bars,2023.2.3,Win32,59.88023952,657b66ea316d21385b68909f,,,,,,,,,,,1619.6917,1620.6816,,,1621.182,1621.432,,90,90,,,,,,,,,,,,,,,,bars/031.png,bars/mask004.png,,,,,,,,,,,,0,1,,,,,,,3,6,2,6,,,,,,,,,,,1620.6816,1621.1818,1621.4321,1628.7549,space,7.3134,,1628.755,30,55,1629.7527,1629.7528,1629.7794,,,,0,6,6,6,1,120,35,,,,,,,,
,,60ddce06d1556fd085432049,65af56f973eaa355c997c2a9,2024-01-23_08h12.47.643,bars,2023.2.3,Win32,59.88023952,657b66ea316d21385b68909f,,,,,,,,,,,1629.7801,1630.7697,,,1631.2702,1631.5204,,0,180,,,,,,,,,,,,,,,,bars/026.png,bars/mask000.png,,,,,,,,,,,,0,1,,,,,,,1,4,2,4,,,,,,,,,,,1630.7698,1631.2702,1631.5204,1636.8572,space,5.3223,,1636.8572,35,85,1637.8566,1637.8567,1637.8802,,,,0,7,7,7,1,35,85,,,,,,,,
,,60ddce06d1556fd085432049,65af56f973eaa355c997c2a9,2024-01-23_08h12.47.643,bars,2023.2.3,Win32,59.88023952,657b66ea316d21385b68909f,,,,,,,,,,,1637.8808,1638.8742,,,1639.3746,1639.6246,,91,271,,,,,,,,,,,,,,,,bars/027.png,bars/mask005.png,,,,,,,,,,,,0,1,,,,,,,0,2,0,2,,,,,,,,,,,1638.8742,1639.3745,1639.6246,1648.1458,space,8.5054,,1648.1459,19,41,1649.1454,1649.1455,1649.1711,,,,0,8,8,8,1,110,50,,,,,,,,
,,60ddce06d1556fd085432049,65af56f973eaa355c997c2a9,2024-01-23_08h12.47.643,bars,2023.2.3,Win32,59.88023952,657b66ea316d21385b68909f,,,,,,,,,,,1649.1717,1650.1625,,,1650.6628,1650.9131,,0,0,,,,,,,,,,,,,,,,bars/013.png,bars/mask003.png,,,,,,,,,,,,2,2,,,,,,,0,4,0,3,,,,,,,,,,,1650.1625,1650.6628,1650.9132,1657.1337,space,6.207,,1657.1339,75,10,1658.1332,1658.1333,1658.161,,,,0,9,9,9,1,75,10,,,,,,,,
,,60ddce06d1556fd085432049,65af56f973eaa355c997c2a9,2024-01-23_08h12.47.643,bars,2023.2.3,Win32,59.88023952,657b66ea316d21385b68909f,,,,,,,,,,,1658.1617,1659.1502,,,1659.6506,1659.9006,,0,0,,,,,,,,,,,,,,,,bars/039.png,bars/mask007.png,,,,,,,,,,,,0,1,,,,,,,0,6,0,5,,,,,,,,,,,1659.1502,1659.6504,1659.9007,1664.022,space,4.1043,,1664.0223,5,75,1665.0222,1665.0223,1665.0474,,,,0,10,10,10,1,175,105,,,,,,,,
,,60ddce06d1556fd085432049,65af56f973eaa355c997c2a9,2024-01-23_08h12.47.643,bars,2023.2.3,Win32,59.88023952,657b66ea316d21385b68909f,,,,,,,,,,,1665.0479,1666.0369,,,1666.5374,1666.7872,,90,90,,,,,,,,,,,,,,,,bars/035.png,bars/mask005.png,,,,,,,,,,,,0,2,,,,,,,0,8,0,9,,,,,,,,,,,1666.037,1666.5373,1666.7874,1670.9895,space,4.1868,,1670.9896,85,30,1671.9897,1671.9898,1672.0147,,,,0,11,11,11,1,175,60,,,,,,,,
,,60ddce06d1556fd085432049,65af56f973eaa355c997c2a9,2024-01-23_08h12.47.643,bars,2023.2.3,Win32,59.88023952,657b66ea316d21385b68909f,,,,,,,,,,,1672.0153,1673.0068,,,1673.5073,1673.7573,,1,181,,,,,,,,,,,,,,,,bars/010.png,bars/mask005.png,,,,,,,,,,,,1,1,,,,,,,2,10,2,9,,,,,,,,,,,1673.0068,1673.5072,1673.7573,1683.2991,space,9.5266,,1683.2992,16,54,1684.2957,1684.2957,1684.3341,,,,0,12,12,12,1,165,55,,,,,,,,
,,60ddce06d1556fd085432049,65af56f973eaa355c997c2a9,2024-01-23_08h12.47.643,bars,2023.2.3,Win32,59.88023952,657b66ea316d21385b68909f,,,,,,,,,,,1684.3353,1685.3295,,,1685.8299,1686.0781,,91,91,,,,,,,,,,,,,,,,bars/043.png,bars/mask005.png,,,,,,,,,,,,0,2,,,,,,,0,10,0,10,,,,,,,,,,,1685.3296,1685.8299,1686.0782,1690.8663,space,4.7709,,1690.8664,61,39,1691.8659,1691.866,1691.8914,,,,0,13,13,13,1,30,130,,,,,,,,
,,60ddce06d1556fd085432049,65af56f973eaa355c997c2a9,2024-01-23_08h12.47.643,bars,2023.2.3,Win32,59.88023952,657b66ea316d21385b68909f,,,,,,,,,,,1691.8919,1692.883,,,1693.3835,1693.6337,,0,0,,,,,,,,,,,,,,,,bars/010.png,bars/mask002.png,,,,,,,,,,,,0,1,,,,,,,0,10,0,10,,,,,,,,,,,1692.8832,1693.3834,1693.6338,1697.9864,space,4.3364,,1697.9865,15,55,1698.9863,1698.9863,1699.0112,,,,0,14,14,14,1,165,55,,,,,,,,
,,60ddce06d1556fd085432049,65af56f973eaa355c997c2a9,2024-01-23_08h12.47.643,bars,2023.2.3,Win32,59.88023952,657b66ea316d21385b68909f,,,,,,,,,,,1699.0135,1700.0033,,,1700.5042,1700.7537,,91,91,,,,,,,,,,,,,,,,bars/044.png,bars/mask007.png,,,,,,,,,,,,1,1,,,,,,,2,8,3,8,,,,,,,,,,,1700.0034,1700.504,1700.7537,1704.9397,space,4.1699,,1704.9398,16,64,1705.9394,1705.9395,1705.962,,,,0,15,15,15,1,75,155,,,,,,,,
,,60ddce06d1556fd085432049,65af56f973eaa355c997c2a9,2024-01-23_08h12.47.643,bars,2023.2.3,Win32,59.88023952,657b66ea316d21385b68909f,,,,,,,,,,,1705.9626,1706.9571,,,1707.4552,1707.7105,,0,0,,,,,,,,,,,,,,,,bars/025.png,bars/mask000.png,,,,,,,,,,,,0,2,,,,,,,0,6,0,5,,,,,,,,,,,1706.9571,1707.4551,1707.7106,1713.2132,space,5.4875,,1713.2133,75,40,1714.2102,1714.2103,1714.2357,,,,0,16,16,16,1,105,40,,,,,,,,
,,60ddce06d1556fd085432049,65af56f973eaa355c997c2a9,2024-01-23_08h12.47.643,bars,2023.2.3,Win32,59.88023952,657b66ea316d21385b68909f,,,,,,,,,,,1714.2364,1715.2273,,,1715.7309,1715.9656,,89,-91,,,,,,,,,,,,,,,,bars/027.png,bars/mask004.png,,,,,,,,,,,,1,1,,,,,,,2,4,2,3,,,,,,,,,,,1715.2274,1715.7308,1715.9658,1728.8745,space,12.899,,1728.8746,21,39,1729.8683,1729.8684,1729.8967,,,,0,17,17,17,1,110,50,,,,,,,,
,,60ddce06d1556fd085432049,65af56f973eaa355c997c2a9,2024-01-23_08h12.47.643,bars,2023.2.3,Win32,59.88023952,657b66ea316d21385b68909f,,,,,,,,,,,1729.8974,1730.8861,,,1731.3853,1731.6355,,0,180,,,,,,,,,,,,,,,,bars/018.png,bars/mask009.png,,,,,,,,,,,,0,1,,,,,,,0,6,1,7,,,,,,,,,,,1730.8862,1731.3851,1731.6358,1738.9068,space,7.2547,,1738.9069,30,90,1739.9059,1739.906,1739.9298,,,,0,18,18,18,1,150,90,,,,,,,,
,,60ddce06d1556fd085432049,65af56f973eaa355c997c2a9,2024-01-23_08h12.47.643,bars,2023.2.3,Win32,59.88023952,657b66ea316d21385b68909f,,,,,,,,,,,1739.9305,1740.923,,,1741.4234,1741.6734,,90,90,,,,,,,,,,,,,,,,bars/011.png,bars/mask000.png,,,,,,,,,,,,7,2,,,,,,,2,8,2,8,,,,,,,,,,,1740.9231,1741.4233,1741.6736,1746.7267,space,5.037,,1746.7268,70,5,1747.7264,1747.7265,1747.7506,,,,0,19,19,19,1,160,85,,,,,,,,
,,60ddce06d1556fd085432049,65af56f973eaa355c997c2a9,2024-01-23_08h12.47.643,bars,2023.2.3,Win32,59.88023952,657b66ea316d21385b68909f,,,,,,,,,,,1747.7512,1748.7432,,,1749.2438,1749.4937,,0,0,,,,,,,,,,,,,,,,bars/023.png,bars/mask003.png,,,,,,,,,,,,1,1,,,,,,,4,6,4,8,,,,,,,,,,,1748.7435,1749.2438,1749.4939,1753.5292,space,4.0196,,1753.5294,20,65,1754.5347,1754.5347,1754.6778,,,,0,20,20,20,1,20,115,,,,,,,,
,,60ddce06d1556fd085432049,65af56f973eaa355c997c2a9,2024-01-23_08h12.47.643,bars,2023.2.3,Win32,59.88023952,657b66ea316d21385b68909f,,,,,,,,,,,1754.679,1755.68,,,1756.1807,1756.4287,,90,90,,,,,,,,,,,,,,,,bars/045.png,bars/mask007.png,,,,,,,,,,,,4,1,,,,,,,6,4,6,4,,,,,,,,,,,1755.6801,1756.1806,1756.4288,1763.4874,space,7.0459,,1763.4875,10,80,1764.4849,1764.485,1764.5093,,,,0,21,21,21,1,100,10,,,,,,,,
,,60ddce06d1556fd085432049,65af56f973eaa355c997c2a9,2024-01-23_08h12.47.643,bars,2023.2.3,Win32,59.88023952,657b66ea316d21385b68909f,,,,,,,,,,,1764.5099,1765.5016,,,1766.002,1766.2521,,89,89,,,,,,,,,,,,,,,,bars/027.png,bars/mask003.png,,,,,,,,,,,,2,1,,,,,,,8,2,8,2,,,,,,,,,,,1765.5018,1766.0018,1766.2521,1780.0093,space,13.7421,,1780.0094,21,39,1781.0093,1781.0093,1781.0333,,,,0,22,22,22,1,110,50,,,,,,,,
,,60ddce06d1556fd085432049,65af56f973eaa355c997c2a9,2024-01-23_08h12.47.643,bars,2023.2.3,Win32,59.88023952,657b66ea316d21385b68909f,,,,,,,,,,,1781.0339,1782.0262,,,1782.5265,1782.7765,,0,180,,,,,,,,,,,,,,,,bars/044.png,bars/mask004.png,,,,,,,,,,,,1,2,,,,,,,6,4,6,6,,,,,,,,,,,1782.0263,1782.5264,1782.7766,1786.6626,space,3.8702,,1786.6626,75,25,1787.6622,1787.6622,1787.6865,,,,0,23,23,23,1,75,155,,,,,,,,
,,60ddce06d1556fd085432049,65af56f973eaa355c997c2a9,2024-01-23_08h12.47.643,bars,2023.2.3,Win32,59.88023952,657b66ea316d21385b68909f,,,,,,,,,,,1787.6871,1788.6792,,,1789.1797,1789.4298,,90,90,,,,,,,,,,,,,,,,bars/009.png,bars/mask006.png,,,,,,,,,,,,1,2,,,,,,,4,2,3,1,,,,,,,,,,,1788.6795,1789.1797,1789.4299,1805.6386,space,16.1925,,1805.6386,75,15,1806.6382,1806.6383,1806.662,,,,0,24,24,24,1,15,105,,,,,,,,
,,60ddce06d1556fd085432049,65af56f973eaa355c997c2a9,2024-01-23_08h12.47.643,bars,2023.2.3,Win32,59.88023952,657b66ea316d21385b68909f,,,,,,,,,,,1806.6626,1807.6552,,,1808.1555,1808.4058,,90,90,,,,,,,,,,,,,,,,bars/033.png,bars/mask004.png,,,,,,,,,,,,0,2,,,,,,,2,4,2,2,,,,,,,,,,,1807.6554,1808.1554,1808.4058,1815.8932,space,7.4708,,1815.8932,65,65,1816.893,1816.8932,1816.9167,,,,0,25,25,25,1,25,155,,,,,,,,
,,60ddce06d1556fd085432049,65af56f973eaa355c997c2a9,2024-01-23_08h12.47.643,bars,2023.2.3,Win32,59.88023952,657b66ea316d21385b68909f,,,,,,,,,,,1816.9174,1817.9107,,,1818.4116,1818.6616,,179,179,,,,,,,,,,,,,,,,bars/046.png,bars/mask009.png,,,,,,,,,,,,1,1,,,,,,,4,6,4,6,,,,,,,,,,,1817.9108,1818.4115,1818.6617,1824.1307,space,5.4531,,1824.1307,24,86,1825.1304,1825.1304,1825.1572,,,,0,26,26,26,1,155,85,,,,,,,,
,,60ddce06d1556fd085432049,65af56f973eaa355c997c2a9,2024-01-23_08h12.47.643,bars,2023.2.3,Win32,59.88023952,657b66ea316d21385b68909f,,,,,,,,,,,1825.1578,1826.1475,,,1826.6478,1826.8979,,89,89,,,,,,,,,,,,,,,,bars/007.png,bars/mask006.png,,,,,,,,,,,,0,2,,,,,,,2,4,1,1,,,,,,,,,,,1826.1475,1826.6477,1826.898,1835.3863,space,8.474,,1835.3864,86,34,1836.3858,1836.3858,1836.4136,,,,0,27,27,27,1,175,55,,,,,,,,
,,60ddce06d1556fd085432049,65af56f973eaa355c997c2a9,2024-01-23_08h12.47.643,bars,2023.2.3,Win32,59.88023952,657b66ea316d21385b68909f,,,,,,,,,,,1836.4143,1837.403,,,1837.9033,1838.1535,,179,-1,,,,,,,,,,,,,,,,bars/026.png,bars/mask002.png,,,,,,,,,,,,0,1,,,,,,,4,2,5,3,,,,,,,,,,,1837.4031,1837.9032,1838.1535,1847.6754,space,9.5062,,1847.6755,36,86,1848.6751,1848.6752,1848.7016,,,,0,28,28,28,1,35,85,,,,,,,,
,,60ddce06d1556fd085432049,65af56f973eaa355c997c2a9,2024-01-23_08h12.47.643,bars,2023.2.3,Win32,59.88023952,657b66ea316d21385b68909f,,,,,,,,,,,1848.7022,1849.6922,,,1850.1925,1850.4427,,89,89,,,,,,,,,,,,,,,,bars/035.png,bars/mask008.png,,,,,,,,,,,,0,2,,,,,,,2,0,3,0,,,,,,,,,,,1849.6922,1850.1924,1850.4428,1864.7024,space,14.2495,,1864.7024,86,29,1865.6999,1865.7001,1865.7269,,,,0,29,29,29,1,175,60,,,,,,,,
,,60ddce06d1556fd085432049,65af56f973eaa355c997c2a9,2024-01-23_08h12.47.643,bars,2023.2.3,Win32,59.88023952,657b66ea316d21385b68909f,,,,,,,,,,,1865.7276,1866.7172,,,1867.2176,1867.4675,,0,0,,,,,,,,,,,,,,,,bars/001.png,bars/mask002.png,,,,,,,,,,,,0,1,,,,,,,0,0,2,0,,,,,,,,,,,1866.7173,1867.2174,1867.4675,1871.8729,space,4.3962,,1871.8729,50,85,1872.8702,1872.8703,1872.8945,,,,0,30,30,30,1,130,85,,,,,,,,
,,60ddce06d1556fd085432049,65af56f973eaa355c997c2a9,2024-01-23_08h12.47.643,bars,2023.2.3,Win32,59.88023952,657b66ea316d21385b68909f,,,,,,,,,,,1872.8951,1873.8872,,,1874.3877,1874.6405,,92,92,,,,,,,,,,,,,,,,bars/023.png,bars/mask007.png,,,,,,,,,,,,0,2,,,,,,,2,0,1,0,,,,,,,,,,,1873.8873,1874.3876,1874.6405,1879.0073,space,4.3517,,1879.0073,72,23,1880.0069,1880.007,1880.0317,,,,0,31,31,31,1,20,115,,,,,,,,
,,60ddce06d1556fd085432049,65af56f973eaa355c997c2a9,2024-01-23_08h12.47.643,bars,2023.2.3,Win32,59.88023952,657b66ea316d21385b68909f,,,,,,,,,,,1880.0323,1881.0241,,,1881.5245,1881.7744,,0,180,,,,,,,,,,,,,,,,bars/033.png,bars/mask005.png,,,,,,,,,,,,0,2,,,,,,,0,0,0,0,,,,,,,,,,,1881.0242,1881.5244,1881.7745,1889.1122,space,7.323,,1889.1123,25,25,1890.1117,1890.1119,1890.1356,,,,0,32,32,32,1,25,155,,,,,,,,
,,60ddce06d1556fd085432049,65af56f973eaa355c997c2a9,2024-01-23_08h12.47.643,bars,2023.2.3,Win32,59.88023952,657b66ea316d21385b68909f,,,,,,,,,,,1890.1363,1891.13,,,1891.6292,1891.8802,,0,0,,,,,,,,,,,,,,,,bars/009.png,bars/mask001.png,,,,,,,,,,,,0,1,,,,,,,0,2,0,2,,,,,,,,,,,1891.1301,1891.6291,1891.8802,1903.3374,space,11.4472,,1903.3375,15,75,1904.3352,1904.3353,1904.3616,,,,0,33,33,33,1,15,105,,,,,,,,
,,60ddce06d1556fd085432049,65af56f973eaa355c997c2a9,2024-01-23_08h12.47.643,bars,2023.2.3,Win32,59.88023952,657b66ea316d21385b68909f,,,,,,,,,,,1904.3622,1905.3507,,,1905.8529,1906.1063,,88,88,,,,,,,,,,,,,,,,bars/006.png,bars/mask002.png,,,,,,,,,,,,1,2,,,,,,,2,0,2,1,,,,,,,,,,,1905.3508,1905.8527,1906.1063,1910.9224,space,4.8031,,1910.9227,53,12,1911.9223,1911.9224,1911.9467,,,,0,34,34,34,1,35,100,,,,,,,,
,,60ddce06d1556fd085432049,65af56f973eaa355c997c2a9,2024-01-23_08h12.47.643,bars,2023.2.3,Win32,59.88023952,657b66ea316d21385b68909f,,,,,,,,,,,1911.9472,1912.9393,,,1913.4401,1913.69,,84,84,,,,,,,,,,,,,,,,bars/049.png,bars/mask004.png,,,,,,,,,,,,0,2,,,,,,,0,2,0,1,,,,,,,,,,,1912.9396,1913.4399,1913.6901,1918.5096,space,4.8044,,1918.5097,76,31,1919.5093,1919.5093,1919.5308,,,,0,35,35,35,1,160,115,,,,,,,,
,,60ddce06d1556fd085432049,65af56f973eaa355c997c2a9,2024-01-23_08h12.47.643,bars,2023.2.3,Win32,59.88023952,657b66ea316d21385b68909f,,,,,,,,,,,1919.5315,1920.5269,,,1921.0268,1921.2768,,91,91,,,,,,,,,,,,,,,,bars/049.png,bars/mask001.png,,,,,,,,,,,,0,2,,,,,,,2,0,3,0,,,,,,,,,,,1920.527,1921.0267,1921.2769,1926.7637,space,5.4733,,1926.7637,69,24,1927.7634,1927.7634,1927.7848,,,,0,36,36,36,1,160,115,,,,,,,,
,,60ddce06d1556fd085432049,65af56f973eaa355c997c2a9,2024-01-23_08h12.47.643,bars,2023.2.3,Win32,59.88023952,657b66ea316d21385b68909f,,,,,,,,,,,1927.7854,1928.781,,,1929.2813,1929.5313,,3,183,,,,,,,,,,,,,,,,bars/030.png,bars/mask006.png,,,,,,,,,,,,0,1,,,,,,,4,2,5,1,,,,,,,,,,,1928.7811,1929.2813,1929.5314,1934.0674,space,4.521,,1934.0675,43,62,1935.0673,1935.0674,1935.0933,,,,0,37,37,37,1,140,65,,,,,,,,
,,60ddce06d1556fd085432049,65af56f973eaa355c997c2a9,2024-01-23_08h12.47.643,bars,2023.2.3,Win32,59.88023952,657b66ea316d21385b68909f,,,,,,,,,,,1935.0942,1936.0838,,,1936.5851,1936.8343,,91,91,,,,,,,,,,,,,,,,bars/022.png,bars/mask000.png,,,,,,,,,,,,2,1,,,,,,,2,4,2,5,,,,,,,,,,,1936.084,1936.585,1936.8344,1941.2205,space,4.3702,,1941.2206,4,71,1942.2202,1942.2202,1942.2425,,,,0,38,38,38,1,95,20,,,,,,,,
,,60ddce06d1556fd085432049,65af56f973eaa355c997c2a9,2024-01-23_08h12.47.643,bars,2023.2.3,Win32,59.88023952,657b66ea316d21385b68909f,,,,,,,,,,,1942.2431,1943.2376,,,1943.7389,1943.9884,,2,2,,,,,,,,,,,,,,,,bars/023.png,bars/mask006.png,,,,,,,,,,,,1,1,,,,,,,4,6,3,6,,,,,,,,,,,1943.2376,1943.7388,1943.9884,1949.9082,space,5.9049,,1949.9083,18,67,1950.9078,1950.9078,1950.9315,,,,0,39,39,39,1,20,115,,,,,,,,
,,60ddce06d1556fd085432049,65af56f973eaa355c997c2a9,2024-01-23_08h12.47.643,bars,2023.2.3,Win32,59.88023952,657b66ea316d21385b68909f,,,,,,,,,,,1950.9322,1951.9256,,,1952.4237,1952.6755,,89,89,,,,,,,,,,,,,,,,bars/047.png,bars/mask002.png,,,,,,,,,,,,1,2,,,,,,,2,4,1,3,,,,,,,,,,,1951.9257,1952.4237,1952.6756,1955.7944,space,3.1038,,1955.7944,74,19,1956.7939,1956.7942,1956.8203,,,,0,40,40,40,1,15,70,,,,,,,,
,,60ddce06d1556fd085432049,65af56f973eaa355c997c2a9,2024-01-23_08h12.47.643,bars,2023.2.3,Win32,59.88023952,657b66ea316d21385b68909f,,,,,,,,,,,1956.8216,1957.8111,,,1958.3113,1958.5614,,87,87,,,,,,,,,,,,,,,,bars/007.png,bars/mask008.png,,,,,,,,,,,,0,2,,,,,,,4,2,3,2,,,,,,,,,,,1957.8112,1958.3113,1958.5615,1964.1148,space,5.5378,,1964.1149,88,32,1965.1148,1965.1149,1965.1386,,,,0,41,41,41,1,175,55,,,,,,,,
,,60ddce06d1556fd085432049,65af56f973eaa355c997c2a9,2024-01-23_08h12.47.643,bars,2023.2.3,Win32,59.88023952,657b66ea316d21385b68909f,,,,,,,,,,,1965.1393,1966.132,,,1966.6322,1966.8821,,7,187,,,,,,,,,,,,,,,,bars/029.png,bars/mask009.png,,,,,,,,,,,,0,2,,,,,,,6,0,7,1,,,,,,,,,,,1966.1321,1966.6322,1966.8822,2009.0867,space,42.1893,,2009.0867,83,38,2010.0864,2010.0865,2010.1099,,,,0,42,42,42,1,90,45,,,,,,,,
,,60ddce06d1556fd085432049,65af56f973eaa355c997c2a9,2024-01-23_08h12.47.643,bars,2023.2.3,Win32,59.88023952,657b66ea316d21385b68909f,,,,,,,,,,,2010.1105,2011.1035,,,2011.6044,2011.854,,2,182,,,,,,,,,,,,,,,,bars/012.png,bars/mask003.png,,,,,,,,,,,,0,2,,,,,,,4,0,6,0,,,,,,,,,,,2011.1036,2011.604,2011.8541,2015.4897,space,3.6209,,2015.4898,88,13,2016.4898,2016.49,2016.5125,,,,0,43,43,43,1,90,15,,,,,,,,
,,60ddce06d1556fd085432049,65af56f973eaa355c997c2a9,2024-01-23_08h12.47.643,bars,2023.2.3,Win32,59.88023952,657b66ea316d21385b68909f,,,,,,,,,,,2016.5131,2017.5067,,,2018.0125,2018.257,,97,97,,,,,,,,,,,,,,,,bars/018.png,bars/mask003.png,,,,,,,,,,,,0,2,,,,,,,2,0,2,0,,,,,,,,,,,2017.5068,2018.0124,2018.2571,2023.7799,space,5.5131,,2023.7799,53,7,2024.7769,2024.777,2024.8004,,,,0,44,44,44,1,150,90,,,,,,,,
,,60ddce06d1556fd085432049,65af56f973eaa355c997c2a9,2024-01-23_08h12.47.643,bars,2023.2.3,Win32,59.88023952,657b66ea316d21385b68909f,,,,,,,,,,,2024.801,2025.794,,,2026.2944,2026.5447,,92,92,,,,,,,,,,,,,,,,bars/013.png,bars/mask001.png,,,,,,,,,,,,0,1,,,,,,,0,0,0,2,,,,,,,,,,,2025.7941,2026.2942,2026.5448,2032.6819,space,6.1246,,2032.682,17,82,2033.6811,2033.6812,2033.7056,,,,0,45,45,45,1,75,10,,,,,,,,
,,60ddce06d1556fd085432049,65af56f973eaa355c997c2a9,2024-01-23_08h12.47.643,bars,2023.2.3,Win32,59.88023952,657b66ea316d21385b68909f,,,,,,,,,,,2033.7062,2034.6983,,,2035.1987,2035.4486,,4,184,,,,,,,,,,,,,,,,bars/047.png,bars/mask008.png,,,,,,,,,,,,1,1,,,,,,,2,2,2,1,,,,,,,,,,,2034.6983,2035.1985,2035.4487,2040.2376,space,4.7786,,2040.2376,11,66,2041.2347,2041.2349,2041.2566,,,,0,46,46,46,1,15,70,,,,,,,,
,,60ddce06d1556fd085432049,65af56f973eaa355c997c2a9,2024-01-23_08h12.47.643,bars,2023.2.3,Win32,59.88023952,657b66ea316d21385b68909f,,,,,,,,,,,2041.2572,2042.2522,,,2042.7522,2043.0023,,177,-3,,,,,,,,,,,,,,,,bars/031.png,bars/mask005.png,,,,,,,,,,,,0,2,,,,,,,4,0,5,1,,,,,,,,,,,2042.2522,2042.7522,2043.0024,2047.3553,space,4.3385,,2047.3555,57,38,2048.3551,2048.3552,2048.3803,,,,0,47,47,47,1,120,35,,,,,,,,
,,60ddce06d1556fd085432049,65af56f973eaa355c997c2a9,2024-01-23_08h12.47.643,bars,2023.2.3,Win32,59.88023952,657b66ea316d21385b68909f,,,,,,,,,,,2048.381,2049.3719,,,2049.8724,2050.1224,,88,268,,,,,,,,,,,,,,,,bars/022.png,bars/mask006.png,,,,,,,,,,,,5,1,,,,,,,6,2,7,3,,,,,,,,,,,2049.3721,2049.8723,2050.1225,2057.2933,space,7.1551,,2057.2934,7,68,2058.293,2058.2931,2058.3198,,,,0,48,48,48,1,95,20,,,,,,,,
,,60ddce06d1556fd085432049,65af56f973eaa355c997c2a9,2024-01-23_08h12.47.643,bars,2023.2.3,Win32,59.88023952,657b66ea316d21385b68909f,,,,,,,,,,,2058.3204,2059.3111,,,2059.8106,2060.0611,,89,89,,,,,,,,,,,,,,,,bars/025.png,bars/mask003.png,,,,,,,,,,,,1,1,,,,,,,4,4,3,4,,,,,,,,,,,2059.3111,2059.8105,2060.0612,2064.4309,space,4.3537,,2064.4309,16,49,2065.43,2065.4301,2065.4522,,,,0,49,49,49,1,105,40,,,,,,,,
,,60ddce06d1556fd085432049,65af56f973eaa355c997c2a9,2024-01-23_08h12.47.643,bars,2023.2.3,Win32,59.88023952,657b66ea316d21385b68909f,,,,,,,,,,,,,,,,,,,,,,,,,,,,,,,,,,,,,,,,,,,,,,,,,,,,,,,,,,,,,,,,,,,,,,,,,,,,,,,,,,,,,,,,,,,,,2065.4525,2125.4424,0,1,1,0,1,sequence_tables/blk023.csv
,,60ddce06d1556fd085432049,65af56f973eaa355c997c2a9,2024-01-23_08h12.47.643,bars,2023.2.3,Win32,59.88023952,657b66ea316d21385b68909f,,,,,,,,,,,2128.4933,2129.494,,,2129.9945,2130.2445,,94,94,,,,,,,,,,,,,,,,bars/019.png,bars/mask002.png,,,,,,,,,,,,5,2,,,,,,,10,7,10,8,,,,,,2125.4653,2128.4777,space,2.995,,2129.4942,2129.9945,2130.2446,2135.4978,space,5.2403,,2135.4979,49,11,2136.4975,2136.4976,2136.5223,,,,0,0,0,0,1,45,105,,,,,,,,
,,60ddce06d1556fd085432049,65af56f973eaa355c997c2a9,2024-01-23_08h12.47.643,bars,2023.2.3,Win32,59.88023952,657b66ea316d21385b68909f,,,,,,,,,,,2136.5231,2137.5145,,,2138.015,2138.28,,90,270,,,,,,,,,,,,,,,,bars/039.png,bars/mask008.png,,,,,,,,,,,,3,2,,,,,,,10,5,10,6,,,,,,,,,,,2137.5146,2138.0149,2138.2801,2144.5022,space,6.2076,,2144.5023,85,15,2145.5018,2145.502,2145.5258,,,,0,1,1,1,1,175,105,,,,,,,,
,,60ddce06d1556fd085432049,65af56f973eaa355c997c2a9,2024-01-23_08h12.47.643,bars,2023.2.3,Win32,59.88023952,657b66ea316d21385b68909f,,,,,,,,,,,2145.5265,2146.519,,,2147.0194,2147.2694,,92,272,,,,,,,,,,,,,,,,bars/009.png,bars/mask009.png,,,,,,,,,,,,2,2,,,,,,,10,3,9,3,,,,,,,,,,,2146.519,2147.0193,2147.2694,2156.2758,space,8.9929,,2156.2759,77,13,2157.2743,2157.2743,2157.2979,,,,0,2,2,2,1,15,105,,,,,,,,
,,60ddce06d1556fd085432049,65af56f973eaa355c997c2a9,2024-01-23_08h12.47.643,bars,2023.2.3,Win32,59.88023952,657b66ea316d21385b68909f,,,,,,,,,,,2157.2986,2158.2915,,,2158.7921,2159.0424,,94,274,,,,,,,,,,,,,,,,bars/034.png,bars/mask009.png,,,,,,,,,,,,0,2,,,,,,,8,1,6,0,,,,,,,,,,,2158.2915,2158.7921,2159.0425,2164.8287,space,5.7734,,2164.8288,31,29,2165.8289,2165.8289,2165.8536,,,,0,3,3,3,1,125,65,,,,,,,,
,,60ddce06d1556fd085432049,65af56f973eaa355c997c2a9,2024-01-23_08h12.47.643,bars,2023.2.3,Win32,59.88023952,657b66ea316d21385b68909f,,,,,,,,,,,2165.8542,2166.8458,,,2167.3457,2167.5971,,89,89,,,,,,,,,,,,,,,,bars/013.png,bars/mask005.png,,,,,,,,,,,,5,1,,,,,,,10,0,10,1,,,,,,,,,,,2166.8461,2167.3456,2167.5972,2172.0821,space,4.4711,,2172.0822,14,79,2173.0819,2173.082,2173.1105,,,,0,4,4,4,1,75,10,,,,,,,,
,,60ddce06d1556fd085432049,65af56f973eaa355c997c2a9,2024-01-23_08h12.47.643,bars,2023.2.3,Win32,59.88023952,657b66ea316d21385b68909f,,,,,,,,,,,2173.1113,2174.1159,,,2174.6161,2174.866,,94,94,,,,,,,,,,,,,,,,bars/018.png,bars/mask008.png,,,,,,,,,,,,1,2,,,,,,,8,0,9,1,,,,,,,,,,,2174.1163,2174.616,2174.8662,2179.3022,space,4.4201,,2179.3022,56,4,2180.3021,2180.3022,2180.3265,,,,0,5,5,5,1,150,90,,,,,,,,
,,60ddce06d1556fd085432049,65af56f973eaa355c997c2a9,2024-01-23_08h12.47.643,bars,2023.2.3,Win32,59.88023952,657b66ea316d21385b68909f,,,,,,,,,,,2180.3271,2181.319,,,2181.8195,2182.0695,,88,268,,,,,,,,,,,,,,,,bars/003.png,bars/mask005.png,,,,,,,,,,,,0,2,,,,,,,6,2,7,2,,,,,,,,,,,2181.3192,2181.8194,2182.0695,2191.6766,space,9.5975,,2191.6767,63,52,2192.6746,2192.6748,2192.6986,,,,0,6,6,6,1,25,140,,,,,,,,
,,60ddce06d1556fd085432049,65af56f973eaa355c997c2a9,2024-01-23_08h12.47.643,bars,2023.2.3,Win32,59.88023952,657b66ea316d21385b68909f,,,,,,,,,,,2192.6992,2193.6919,,,2194.1921,2194.4423,,89,269,,,,,,,,,,,,,,,,bars/021.png,bars/mask003.png,,,,,,,,,,,,0,2,,,,,,,8,0,9,0,,,,,,,,,,,2193.692,2194.192,2194.4424,2200.8628,space,6.4049,,2200.8628,66,19,2201.8623,2201.8624,2201.8863,,,,0,7,7,7,1,155,70,,,,,,,,
,,60ddce06d1556fd085432049,65af56f973eaa355c997c2a9,2024-01-23_08h12.47.643,bars,2023.2.3,Win32,59.88023952,657b66ea316d21385b68909f,,,,,,,,,,,2201.8869,2202.8795,,,2203.3799,2203.6299,,95,95,,,,,,,,,,,,,,,,bars/044.png,bars/mask008.png,,,,,,,,,,,,2,1,,,,,,,6,2,6,2,,,,,,,,,,,2202.8796,2203.3798,2203.6299,2209.2171,space,5.5717,,2209.2172,20,60,2210.2164,2210.2164,2210.2416,,,,0,8,8,8,1,75,155,,,,,,,,
,,60ddce06d1556fd085432049,65af56f973eaa355c997c2a9,2024-01-23_08h12.47.643,bars,2023.2.3,Win32,59.88023952,657b66ea316d21385b68909f,,,,,,,,,,,2210.2422,2211.2334,,,2211.7339,2211.9842,,90,90,,,,,,,,,,,,,,,,bars/014.png,bars/mask001.png,,,,,,,,,,,,4,1,,,,,,,8,0,6,0,,,,,,,,,,,2211.2336,2211.7338,2211.9843,2215.6365,space,3.6378,,2215.6366,10,90,2216.6362,2216.6364,2216.6582,,,,0,9,9,9,1,80,0,,,,,,,,
,,60ddce06d1556fd085432049,65af56f973eaa355c997c2a9,2024-01-23_08h12.47.643,bars,2023.2.3,Win32,59.88023952,657b66ea316d21385b68909f,,,,,,,,,,,2216.6587,2217.6533,,,2218.1537,2218.4037,,85,85,,,,,,,,,,,,,,,,bars/001.png,bars/mask006.png,,,,,,,,,,,,1,2,,,,,,,10,2,10,1,,,,,,,,,,,2217.6534,2218.1536,2218.4038,2223.5926,space,5.1731,,2223.5926,45,0,2224.5899,2224.59,2224.6157,,,,0,10,10,10,1,130,85,,,,,,,,
,,60ddce06d1556fd085432049,65af56f973eaa355c997c2a9,2024-01-23_08h12.47.643,bars,2023.2.3,Win32,59.88023952,657b66ea316d21385b68909f,,,,,,,,,,,2224.6163,2225.607,,,2226.1076,2226.3575,,94,94,,,,,,,,,,,,,,,,bars/007.png,bars/mask006.png,,,,,,,,,,,,0,2,,,,,,,10,4,10,4,,,,,,,,,,,2225.607,2226.1074,2226.3576,2229.86,space,3.4878,,2229.8601,81,39,2230.8597,2230.8598,2230.8816,,,,0,11,11,11,1,175,55,,,,,,,,
,,60ddce06d1556fd085432049,65af56f973eaa355c997c2a9,2024-01-23_08h12.47.643,bars,2023.2.3,Win32,59.88023952,657b66ea316d21385b68909f,,,,,,,,,,,2230.8821,2231.8768,,,2232.3772,2232.6274,,91,91,,,,,,,,,,,,,,,,bars/044.png,bars/mask006.png,,,,,,,,,,,,4,1,,,,,,,10,2,8,2,,,,,,,,,,,2231.8769,2232.377,2232.6275,2234.8625,space,2.2202,,2234.8626,16,64,2235.8621,2235.8623,2235.8883,,,,0,12,12,12,1,75,155,,,,,,,,
,,60ddce06d1556fd085432049,65af56f973eaa355c997c2a9,2024-01-23_08h12.47.643,bars,2023.2.3,Win32,59.88023952,657b66ea316d21385b68909f,,,,,,,,,,,2235.8889,2236.8791,,,2237.3799,2237.6298,,89,89,,,,,,,,,,,,,,,,bars/012.png,bars/mask000.png,,,,,,,,,,,,8,1,,,,,,,8,4,8,4,,,,,,,,,,,2236.8794,2237.3798,2237.6298,2243.3998,space,5.7556,,2243.3999,1,74,2244.3996,2244.3997,2244.4215,,,,0,13,13,13,1,90,15,,,,,,,,
,,60ddce06d1556fd085432049,65af56f973eaa355c997c2a9,2024-01-23_08h12.47.643,bars,2023.2.3,Win32,59.88023952,657b66ea316d21385b68909f,,,,,,,,,,,2244.422,2245.4168,,,2245.9172,2246.1671,,89,89,,,,,,,,,,,,,,,,bars/044.png,bars/mask002.png,,,,,,,,,,,,5,1,,,,,,,10,6,9,7,,,,,,,,,,,2245.4168,2245.9169,2246.1671,2249.8221,space,3.6445,,2249.8222,14,66,2250.8194,2250.8194,2250.843,,,,0,14,14,14,1,75,155,,,,,,,,
,,60ddce06d1556fd085432049,65af56f973eaa355c997c2a9,2024-01-23_08h12.47.643,bars,2023.2.3,Win32,59.88023952,657b66ea316d21385b68909f,,,,,,,,,,,2250.8437,2251.8364,,,2252.3369,2252.5871,,94,94,,,,,,,,,,,,,,,,bars/005.png,bars/mask008.png,,,,,,,,,,,,0,2,,,,,,,8,8,9,8,,,,,,,,,,,2251.8367,2252.3368,2252.5871,2255.9892,space,3.3861,,2255.9893,84,46,2256.9891,2256.9892,2257.0145,,,,0,15,15,15,1,10,140,,,,,,,,
,,60ddce06d1556fd085432049,65af56f973eaa355c997c2a9,2024-01-23_08h12.47.643,bars,2023.2.3,Win32,59.88023952,657b66ea316d21385b68909f,,,,,,,,,,,2257.0151,2258.0062,,,2258.5065,2258.7564,,94,94,,,,,,,,,,,,,,,,bars/033.png,bars/mask009.png,,,,,,,,,,,,0,2,,,,,,,6,10,8,9,,,,,,,,,,,2258.0063,2258.5064,2258.7566,2262.0097,space,3.2403,,2262.0098,69,61,2263.0093,2263.0094,2263.0322,,,,0,16,16,16,1,25,155,,,,,,,,
,,60ddce06d1556fd085432049,65af56f973eaa355c997c2a9,2024-01-23_08h12.47.643,bars,2023.2.3,Win32,59.88023952,657b66ea316d21385b68909f,,,,,,,,,,,2263.0332,2264.0258,,,2264.5262,2264.7761,,86,86,,,,,,,,,,,,,,,,bars/011.png,bars/mask007.png,,,,,,,,,,,,10,2,,,,,,,4,10,3,10,,,,,,,,,,,2264.0261,2264.526,2264.7762,2270.116,space,5.3304,,2270.116,74,1,2271.1126,2271.1127,2271.1375,,,,0,17,17,17,1,160,85,,,,,,,,
,,60ddce06d1556fd085432049,65af56f973eaa355c997c2a9,2024-01-23_08h12.47.643,bars,2023.2.3,Win32,59.88023952,657b66ea316d21385b68909f,,,,,,,,,,,2271.1389,2272.1294,,,2272.63,2272.8801,,89,89,,,,,,,,,,,,,,,,bars/024.png,bars/mask008.png,,,,,,,,,,,,0,1,,,,,,,2,10,1,9,,,,,,,,,,,2272.1297,2272.6299,2272.8802,2276.8661,space,3.9699,,2276.8662,31,81,2277.866,2277.8661,2277.8908,,,,0,18,18,18,1,120,170,,,,,,,,
,,60ddce06d1556fd085432049,65af56f973eaa355c997c2a9,2024-01-23_08h12.47.643,bars,2023.2.3,Win32,59.88023952,657b66ea316d21385b68909f,,,,,,,,,,,2277.8916,2278.8827,,,2279.3833,2279.6333,,88,88,,,,,,,,,,,,,,,,bars/045.png,bars/mask002.png,,,,,,,,,,,,0,1,,,,,,,0,8,0,8,,,,,,,,,,,2278.8828,2279.3831,2279.6335,2286.204,space,6.5548,,2286.2041,12,78,2287.2036,2287.2038,2287.2285,,,,0,19,19,19,1,100,10,,,,,,,,
,,60ddce06d1556fd085432049,65af56f973eaa355c997c2a9,2024-01-23_08h12.47.643,bars,2023.2.3,Win32,59.88023952,657b66ea316d21385b68909f,,,,,,,,,,,2287.2292,2288.2207,,,2288.7212,2288.9713,,179,-1,,,,,,,,,,,,,,,,bars/003.png,bars/mask001.png,,,,,,,,,,,,0,1,,,,,,,0,10,1,10,,,,,,,,,,,2288.2209,2288.721,2288.9715,2292.1235,space,3.137,,2292.1236,26,39,2293.1234,2293.1234,2293.146,,,,0,20,20,20,1,25,140,,,,,,,,
,,60ddce06d1556fd085432049,65af56f973eaa355c997c2a9,2024-01-23_08h12.47.643,bars,2023.2.3,Win32,59.88023952,657b66ea316d21385b68909f,,,,,,,,,,,2293.1473,2294.1406,,,2294.6408,2294.8908,,87,87,,,,,,,,,,,,,,,,bars/003.png,bars/mask006.png,,,,,,,,,,,,0,2,,,,,,,0,10,0,9,,,,,,,,,,,2294.1406,2294.6408,2294.8908,2299.5437,space,4.6368,,2299.5438,62,53,2300.5434,2300.5435,2300.5678,,,,0,21,21,21,1,25,140,,,,,,,,
,,60ddce06d1556fd085432049,65af56f973eaa355c997c2a9,2024-01-23_08h12.47.643,bars,2023.2.3,Win32,59.88023952,657b66ea316d21385b68909f,,,,,,,,,,,2300.5686,2301.5605,,,2302.0609,2302.3111,,86,86,,,,,,,,,,,,,,,,bars/028.png,bars/mask008.png,,,,,,,,,,,,0,2,,,,,,,2,10,2,10,,,,,,,,,,,2301.5605,2302.0608,2302.3111,2306.0136,space,3.6878,,2306.0136,41,34,2307.0131,2307.0132,2307.0393,,,,0,22,22,22,1,45,120,,,,,,,,
,,60ddce06d1556fd085432049,65af56f973eaa355c997c2a9,2024-01-23_08h12.47.643,bars,2023.2.3,Win32,59.88023952,657b66ea316d21385b68909f,,,,,,,,,,,2307.04,2308.0301,,,2308.5308,2308.7809,,178,-2,,,,,,,,,,,,,,,,bars/015.png,bars/mask008.png,,,,,,,,,,,,4,2,,,,,,,4,10,3,9,,,,,,,,,,,2308.0303,2308.5306,2308.7809,2312.5333,space,3.7371,,2312.5333,68,18,2313.533,2313.5331,2313.556,,,,0,23,23,23,1,110,160,,,,,,,,
,,60ddce06d1556fd085432049,65af56f973eaa355c997c2a9,2024-01-23_08h12.47.643,bars,2023.2.3,Win32,59.88023952,657b66ea316d21385b68909f,,,,,,,,,,,2313.5567,2314.5502,,,2315.0504,2315.3005,,3,183,,,,,,,,,,,,,,,,bars/028.png,bars/mask001.png,,,,,,,,,,,,0,1,,,,,,,2,10,2,8,,,,,,,,,,,2314.5502,2315.0503,2315.3005,2318.5061,space,3.196,,2318.5061,42,63,2319.5025,2319.5025,2319.5285,,,,0,24,24,24,1,45,120,,,,,,,,
,,60ddce06d1556fd085432049,65af56f973eaa355c997c2a9,2024-01-23_08h12.47.643,bars,2023.2.3,Win32,59.88023952,657b66ea316d21385b68909f,,,,,,,,,,,2319.5292,2320.5197,,,2321.0201,2321.2701,,90,90,,,,,,,,,,,,,,,,bars/012.png,bars/mask004.png,,,,,,,,,,,,0,1,,,,,,,0,10,0,10,,,,,,,,,,,2320.5197,2321.02,2321.2702,2324.0419,space,2.7622,,2324.0419,0,75,2325.0385,2325.0385,2325.0602,,,,0,25,25,25,1,90,15,,,,,,,,
,,60ddce06d1556fd085432049,65af56f973eaa355c997c2a9,2024-01-23_08h12.47.643,bars,2023.2.3,Win32,59.88023952,657b66ea316d21385b68909f,,,,,,,,,,,2325.0609,2326.0556,,,2326.556,2326.8063,,85,85,,,,,,,,,,,,,,,,bars/034.png,bars/mask005.png,,,,,,,,,,,,3,2,,,,,,,0,10,0,10,,,,,,,,,,,2326.0557,2326.5559,2326.8063,2333.0934,space,6.2708,,2333.0934,40,20,2334.093,2334.0931,2334.119,,,,0,26,26,26,1,125,65,,,,,,,,
,,60ddce06d1556fd085432049,65af56f973eaa355c997c2a9,2024-01-23_08h12.47.643,bars,2023.2.3,Win32,59.88023952,657b66ea316d21385b68909f,,,,,,,,,,,2334.1196,2335.1101,,,2335.6105,2335.8607,,94,94,,,,,,,,,,,,,,,,bars/020.png,bars/mask002.png,,,,,,,,,,,,0,1,,,,,,,0,8,0,6,,,,,,,,,,,2335.1101,2335.6104,2335.8607,2341.8976,space,6.021,,2341.8977,21,76,2342.8973,2342.8973,2342.9223,,,,0,27,27,27,1,115,170,,,,,,,,
,,60ddce06d1556fd085432049,65af56f973eaa355c997c2a9,2024-01-23_08h12.47.643,bars,2023.2.3,Win32,59.88023952,657b66ea316d21385b68909f,,,,,,,,,,,2342.9229,2343.9141,,,2344.4148,2344.6648,,96,96,,,,,,,,,,,,,,,,bars/011.png,bars/mask008.png,,,,,,,,,,,,3,2,,,,,,,2,6,2,5,,,,,,,,,,,2343.9143,2344.4148,2344.6649,2349.6011,space,4.9201,,2349.6012,64,11,2350.6008,2350.6008,2350.6254,,,,0,28,28,28,1,160,85,,,,,,,,
,,60ddce06d1556fd085432049,65af56f973eaa355c997c2a9,2024-01-23_08h12.47.643,bars,2023.2.3,Win32,59.88023952,657b66ea316d21385b68909f,,,,,,,,,,,2350.626,2351.6178,,,2352.1183,2352.3685,,91,91,,,,,,,,,,,,,,,,bars/040.png,bars/mask000.png,,,,,,,,,,,,0,1,,,,,,,0,8,0,8,,,,,,,,,,,2351.6179,2352.1182,2352.3686,2355.6875,space,3.303,,2355.6875,49,86,2356.6869,2356.687,2356.7119,,,,0,29,29,29,1,140,5,,,,,,,,
,,60ddce06d1556fd085432049,65af56f973eaa355c997c2a9,2024-01-23_08h12.47.643,bars,2023.2.3,Win32,59.88023952,657b66ea316d21385b68909f,,,,,,,,,,,2356.7126,2357.7044,,,2358.2048,2358.4547,,89,-91,,,,,,,,,,,,,,,,bars/025.png,bars/mask004.png,,,,,,,,,,,,0,1,,,,,,,0,6,0,7,,,,,,,,,,,2357.7045,2358.2047,2358.4548,2369.094,space,10.6229,,2369.0942,16,49,2370.0936,2370.0938,2370.1185,,,,0,30,30,30,1,105,40,,,,,,,,
,,60ddce06d1556fd085432049,65af56f973eaa355c997c2a9,2024-01-23_08h12.47.643,bars,2023.2.3,Win32,59.88023952,657b66ea316d21385b68909f,,,,,,,,,,,2370.1192,2371.1108,,,2371.6112,2371.8612,,93,93,,,,,,,,,,,,,,,,bars/029.png,bars/mask009.png,,,,,,,,,,,,1,1,,,,,,,0,8,1,10,,,,,,,,,,,2371.1108,2371.6111,2371.8613,2375.4136,space,3.5364,,2375.4137,3,48,2376.4134,2376.4134,2376.436,,,,0,31,31,31,1,90,45,,,,,,,,
,,60ddce06d1556fd085432049,65af56f973eaa355c997c2a9,2024-01-23_08h12.47.643,bars,2023.2.3,Win32,59.88023952,657b66ea316d21385b68909f,,,,,,,,,,,2376.4367,2377.4305,,,2377.931,2378.1809,,90,90,,,,,,,,,,,,,,,,bars/010.png,bars/mask000.png,,,,,,,,,,,,0,2,,,,,,,0,10,0,10,,,,,,,,,,,2377.4305,2377.9309,2378.1811,2381.3332,space,3.1389,,2381.3332,75,35,2382.3328,2382.333,2382.358,,,,0,32,32,32,1,165,55,,,,,,,,
,,60ddce06d1556fd085432049,65af56f973eaa355c997c2a9,2024-01-23_08h12.47.643,bars,2023.2.3,Win32,59.88023952,657b66ea316d21385b68909f,,,,,,,,,,,2382.3587,2383.3498,,,2383.8523,2384.1006,,94,94,,,,,,,,,,,,,,,,bars/010.png,bars/mask006.png,,,,,,,,,,,,0,2,,,,,,,0,10,0,9,,,,,,,,,,,2383.3501,2383.8522,2384.1006,2390.6162,space,6.5063,,2390.6162,71,39,2391.6048,2391.6049,2391.6323,,,,0,33,33,33,1,165,55,,,,,,,,
,,60ddce06d1556fd085432049,65af56f973eaa355c997c2a9,2024-01-23_08h12.47.643,bars,2023.2.3,Win32,59.88023952,657b66ea316d21385b68909f,,,,,,,,,,,2391.6333,2392.6211,,,2393.1217,2393.3715,,88,88,,,,,,,,,,,,,,,,bars/046.png,bars/mask001.png,,,,,,,,,,,,6,2,,,,,,,2,8,1,7,,,,,,,,,,,2392.6213,2393.1217,2393.3717,2396.1905,space,2.8045,,2396.1905,67,3,2397.1901,2397.1902,2397.2128,,,,0,34,34,34,1,155,85,,,,,,,,
,,60ddce06d1556fd085432049,65af56f973eaa355c997c2a9,2024-01-23_08h12.47.643,bars,2023.2.3,Win32,59.88023952,657b66ea316d21385b68909f,,,,,,,,,,,2397.2135,2398.2074,,,2398.7075,2398.9576,,95,95,,,,,,,,,,,,,,,,bars/027.png,bars/mask002.png,,,,,,,,,,,,0,1,,,,,,,0,6,0,7,,,,,,,,,,,2398.2074,2398.7074,2398.9577,2403.8775,space,4.9048,,2403.8776,15,45,2404.877,2404.8771,2404.9016,,,,0,35,35,35,1,110,50,,,,,,,,
,,60ddce06d1556fd085432049,65af56f973eaa355c997c2a9,2024-01-23_08h12.47.643,bars,2023.2.3,Win32,59.88023952,657b66ea316d21385b68909f,,,,,,,,,,,2404.9023,2405.8943,,,2406.3946,2406.6448,,94,94,,,,,,,,,,,,,,,,bars/011.png,bars/mask006.png,,,,,,,,,,,,6,2,,,,,,,0,8,2,8,,,,,,,,,,,2405.8944,2406.3946,2406.6449,2409.6973,space,3.0366,,2409.6973,66,9,2410.6972,2410.6972,2410.7243,,,,0,36,36,36,1,160,85,,,,,,,,
,,60ddce06d1556fd085432049,65af56f973eaa355c997c2a9,2024-01-23_08h12.47.643,bars,2023.2.3,Win32,59.88023952,657b66ea316d21385b68909f,,,,,,,,,,,2410.7255,2411.7138,,,2412.2141,2412.4642,,85,85,,,,,,,,,,,,,,,,bars/028.png,bars/mask007.png,,,,,,,,,,,,0,2,,,,,,,0,6,0,7,,,,,,,,,,,2411.7139,2412.214,2412.4643,2415.9503,space,3.4714,,2415.9506,40,35,2416.9497,2416.9498,2416.9715,,,,0,37,37,37,1,45,120,,,,,,,,
,,60ddce06d1556fd085432049,65af56f973eaa355c997c2a9,2024-01-23_08h12.47.643,bars,2023.2.3,Win32,59.88023952,657b66ea316d21385b68909f,,,,,,,,,,,2416.972,2417.9668,,,2418.4671,2418.7173,,176,-4,,,,,,,,,,,,,,,,bars/049.png,bars/mask005.png,,,,,,,,,,,,0,1,,,,,,,0,8,1,9,,,,,,,,,,,2417.9669,2418.467,2418.7175,2422.2029,space,3.4707,,2422.2029,16,61,2423.2026,2423.2026,2423.2552,,,,0,38,38,38,1,160,115,,,,,,,,
,,60ddce06d1556fd085432049,65af56f973eaa355c997c2a9,2024-01-23_08h12.47.643,bars,2023.2.3,Win32,59.88023952,657b66ea316d21385b68909f,,,,,,,,,,,2423.2558,2424.2538,,,2424.754,2425.005,,93,93,,,,,,,,,,,,,,,,bars/004.png,bars/mask001.png,,,,,,,,,,,,0,2,,,,,,,2,6,2,7,,,,,,,,,,,2424.2538,2424.754,2425.0051,2430.8435,space,5.828,,2430.8436,68,32,2431.8407,2431.8407,2431.8665,,,,0,39,39,39,1,25,125,,,,,,,,
,,60ddce06d1556fd085432049,65af56f973eaa355c997c2a9,2024-01-23_08h12.47.643,bars,2023.2.3,Win32,59.88023952,657b66ea316d21385b68909f,,,,,,,,,,,2431.867,2432.8573,,,2433.3577,2433.6076,,49,229,,,,,,,,,,,,,,,,bars/041.png,bars/mask007.png,,,,,,,,,,,,0,1,,,,,,,4,4,5,3,,,,,,,,,,,2432.8574,2433.3576,2433.6076,2438.0439,space,4.4203,,2438.0439,29,36,2439.0442,2439.0443,2439.0703,,,,0,40,40,40,1,20,85,,,,,,,,
,,60ddce06d1556fd085432049,65af56f973eaa355c997c2a9,2024-01-23_08h12.47.643,bars,2023.2.3,Win32,59.88023952,657b66ea316d21385b68909f,,,,,,,,,,,2439.0711,2440.0607,,,2440.5611,2440.8111,,90,90,,,,,,,,,,,,,,,,bars/045.png,bars/mask002.png,,,,,,,,,,,,1,1,,,,,,,2,6,1,7,,,,,,,,,,,2440.0607,2440.5611,2440.8113,2445.3001,space,4.4795,,2445.3002,10,80,2446.2975,2446.2975,2446.32,,,,0,41,41,41,1,100,10,,,,,,,,
,,60ddce06d1556fd085432049,65af56f973eaa355c997c2a9,2024-01-23_08h12.47.643,bars,2023.2.3,Win32,59.88023952,657b66ea316d21385b68909f,,,,,,,,,,,2446.3206,2447.3142,,,2447.8147,2448.0647,,0,0,,,,,,,,,,,,,,,,bars/017.png,bars/mask005.png,,,,,,,,,,,,0,1,,,,,,,4,4,3,3,,,,,,,,,,,2447.3143,2447.8146,2448.0648,2451.4422,space,3.3672,,2451.4422,35,45,2452.4332,2452.4335,2452.4584,,,,0,42,42,42,1,145,45,,,,,,,,
,,60ddce06d1556fd085432049,65af56f973eaa355c997c2a9,2024-01-23_08h12.47.643,bars,2023.2.3,Win32,59.88023952,657b66ea316d21385b68909f,,,,,,,,,,,2452.459,2453.4541,,,2453.9514,2454.2015,,178,178,,,,,,,,,,,,,,,,bars/019.png,bars/mask009.png,,,,,,,,,,,,0,1,,,,,,,2,6,4,6,,,,,,,,,,,2453.4542,2453.9514,2454.2017,2457.7537,space,3.5366,,2457.7538,47,73,2458.7538,2458.7538,2458.7774,,,,0,43,43,43,1,45,105,,,,,,,,
,,60ddce06d1556fd085432049,65af56f973eaa355c997c2a9,2024-01-23_08h12.47.643,bars,2023.2.3,Win32,59.88023952,657b66ea316d21385b68909f,,,,,,,,,,,2458.778,2459.7705,,,2460.2709,2460.5208,,177,-3,,,,,,,,,,,,,,,,bars/024.png,bars/mask002.png,,,,,,,,,,,,6,2,,,,,,,0,8,0,8,,,,,,,,,,,2459.7706,2460.2708,2460.5209,2464.1093,space,3.5786,,2464.1094,57,7,2465.1074,2465.1075,2465.1496,,,,0,44,44,44,1,120,170,,,,,,,,
,,60ddce06d1556fd085432049,65af56f973eaa355c997c2a9,2024-01-23_08h12.47.643,bars,2023.2.3,Win32,59.88023952,657b66ea316d21385b68909f,,,,,,,,,,,2465.1502,2466.1401,,,2466.6405,2466.8903,,88,88,,,,,,,,,,,,,,,,bars/049.png,bars/mask008.png,,,,,,,,,,,,1,2,,,,,,,2,6,1,7,,,,,,,,,,,2466.1401,2466.6404,2466.8905,2490.5693,space,23.6638,,2490.5694,72,27,2491.5698,2491.5699,2491.5932,,,,0,45,45,45,1,160,115,,,,,,,,
,,60ddce06d1556fd085432049,65af56f973eaa355c997c2a9,2024-01-23_08h12.47.643,bars,2023.2.3,Win32,59.88023952,657b66ea316d21385b68909f,,,,,,,,,,,2491.5938,2492.5863,,,2493.0867,2493.3367,,91,91,,,,,,,,,,,,,,,,bars/009.png,bars/mask003.png,,,,,,,,,,,,2,2,,,,,,,0,4,0,4,,,,,,,,,,,2492.5864,2493.0866,2493.3368,2498.1739,space,4.8273,,2498.174,76,14,2499.1727,2499.1728,2499.1947,,,,0,46,46,46,1,15,105,,,,,,,,
,,60ddce06d1556fd085432049,65af56f973eaa355c997c2a9,2024-01-23_08h12.47.643,bars,2023.2.3,Win32,59.88023952,657b66ea316d21385b68909f,,,,,,,,,,,2499.1953,2500.1899,,,2500.6902,2500.9402,,176,-4,,,,,,,,,,,,,,,,bars/006.png,bars/mask000.png,,,,,,,,,,,,0,1,,,,,,,2,6,2,6,,,,,,,,,,,2500.1901,2500.6901,2500.9402,2504.0924,space,3.1362,,2504.0925,39,76,2505.0921,2505.0922,2505.1166,,,,0,47,47,47,1,35,100,,,,,,,,
,,60ddce06d1556fd085432049,65af56f973eaa355c997c2a9,2024-01-23_08h12.47.643,bars,2023.2.3,Win32,59.88023952,657b66ea316d21385b68909f,,,,,,,,,,,2505.1173,2506.1092,,,2506.6098,2506.8598,,86,86,,,,,,,,,,,,,,,,bars/000.png,bars/mask004.png,,,,,,,,,,,,0,1,,,,,,,0,4,0,3,,,,,,,,,,,2506.1094,2506.6097,2506.8599,2512.3299,space,5.4539,,2512.3299,46,59,2513.3295,2513.3296,2513.3512,,,,0,48,48,48,1,40,145,,,,,,,,
,,60ddce06d1556fd085432049,65af56f973eaa355c997c2a9,2024-01-23_08h12.47.643,bars,2023.2.3,Win32,59.88023952,657b66ea316d21385b68909f,,,,,,,,,,,2513.3518,2514.3466,,,2514.8471,2515.0971,,84,84,,,,,,,,,,,,,,,,bars/025.png,bars/mask003.png,,,,,,,,,,,,1,1,,,,,,,2,2,2,3,,,,,,,,,,,2514.3467,2514.847,2515.0971,2520.067,space,4.9566,,2520.067,21,44,2521.0669,2521.067,2521.0889,,,,0,49,49,49,1,105,40,,,,,,,,
,,60ddce06d1556fd085432049,65af56f973eaa355c997c2a9,2024-01-23_08h12.47.643,bars,2023.2.3,Win32,59.88023952,657b66ea316d21385b68909f,,,,,,,,,,,,,,,,,,,,,,,,,,,,,,,,,,,,,,,,,,,,,,,,,,,,,,,,,,,,,,,,,,,,,,,,,,,,,,,,,,,,,,,,,,,,,2521.0893,2581.0792,0,2,2,4,1,sequence_tables/blk043.csv
,,60ddce06d1556fd085432049,65af56f973eaa355c997c2a9,2024-01-23_08h12.47.643,bars,2023.2.3,Win32,59.88023952,657b66ea316d21385b68909f,,,,,,,,,,,2582.3456,2583.3467,,,2583.8471,2584.0971,,95,275,,,,,,,,,,,,,,,,bars/047.png,bars/mask008.png,,,,,,,,,,,,1,2,,,,,,,1,6,1,7,,,,,,2581.1021,2582.3304,space,1.2107,,2583.3469,2583.847,2584.0973,2593.4855,space,9.3731,,2593.4857,80,25,2594.4855,2594.4856,2594.5122,,,,0,0,0,0,1,15,70,,,,,,,,
,,60ddce06d1556fd085432049,65af56f973eaa355c997c2a9,2024-01-23_08h12.47.643,bars,2023.2.3,Win32,59.88023952,657b66ea316d21385b68909f,,,,,,,,,,,2594.5128,2595.5028,,,2596.0028,2596.2529,,94,274,,,,,,,,,,,,,,,,bars/028.png,bars/mask009.png,,,,,,,,,,,,1,2,,,,,,,3,4,2,5,,,,,,,,,,,2595.5031,2596.0028,2596.253,2603.6905,space,7.4214,,2603.6905,49,26,2604.6903,2604.6904,2604.7141,,,,0,1,1,1,1,45,120,,,,,,,,
,,60ddce06d1556fd085432049,65af56f973eaa355c997c2a9,2024-01-23_08h12.47.643,bars,2023.2.3,Win32,59.88023952,657b66ea316d21385b68909f,,,,,,,,,,,2604.7147,2605.7075,,,2606.2079,2606.458,,89,89,,,,,,,,,,,,,,,,bars/031.png,bars/mask001.png,,,,,,,,,,,,0,1,,,,,,,1,6,2,5,,,,,,,,,,,2605.7075,2606.2078,2606.458,2610.2617,space,3.7937,,2610.2618,31,54,2611.2601,2611.2602,2611.2853,,,,0,2,2,2,1,120,35,,,,,,,,
,,60ddce06d1556fd085432049,65af56f973eaa355c997c2a9,2024-01-23_08h12.47.643,bars,2023.2.3,Win32,59.88023952,657b66ea316d21385b68909f,,,,,,,,,,,2611.286,2612.2772,,,2612.7778,2613.0277,,90,90,,,,,,,,,,,,,,,,bars/036.png,bars/mask004.png,,,,,,,,,,,,0,1,,,,,,,3,4,3,5,,,,,,,,,,,2612.2772,2612.7776,2613.0279,2617.6806,space,4.6375,,2617.6806,55,70,2618.6805,2618.6806,2618.7027,,,,0,3,3,3,1,145,20,,,,,,,,
,,60ddce06d1556fd085432049,65af56f973eaa355c997c2a9,2024-01-23_08h12.47.643,bars,2023.2.3,Win32,59.88023952,657b66ea316d21385b68909f,,,,,,,,,,,2618.7033,2619.6975,,,2620.1979,2620.4511,,91,271,,,,,,,,,,,,,,,,bars/029.png,bars/mask003.png,,,,,,,,,,,,1,1,,,,,,,1,6,1,6,,,,,,,,,,,2619.6975,2620.1979,2620.4512,2626.6185,space,6.151,,2626.6186,1,46,2627.6182,2627.6183,2627.6421,,,,0,4,4,4,1,90,45,,,,,,,,
,,60ddce06d1556fd085432049,65af56f973eaa355c997c2a9,2024-01-23_08h12.47.643,bars,2023.2.3,Win32,59.88023952,657b66ea316d21385b68909f,,,,,,,,,,,2627.6427,2628.6352,,,2629.1357,2629.3857,,89,269,,,,,,,,,,,,,,,,bars/021.png,bars/mask003.png,,,,,,,,,,,,1,2,,,,,,,3,4,4,4,,,,,,,,,,,2628.6352,2629.1357,2629.3857,2638.8411,space,9.4407,,2638.8412,66,19,2639.8407,2639.8407,2639.8689,,,,0,5,5,5,1,155,70,,,,,,,,
,,60ddce06d1556fd085432049,65af56f973eaa355c997c2a9,2024-01-23_08h12.47.643,bars,2023.2.3,Win32,59.88023952,657b66ea316d21385b68909f,,,,,,,,,,,2639.8694,2640.8577,,,2641.358,2641.6083,,87,87,,,,,,,,,,,,,,,,bars/032.png,bars/mask005.png,,,,,,,,,,,,0,1,,,,,,,5,6,4,6,,,,,,,,,,,2640.8577,2641.3579,2641.6084,2648.6293,space,7.005,,2648.6293,38,67,2649.6286,2649.6287,2649.6552,,,,0,6,6,6,1,125,20,,,,,,,,
,,60ddce06d1556fd085432049,65af56f973eaa355c997c2a9,2024-01-23_08h12.47.643,bars,2023.2.3,Win32,59.88023952,657b66ea316d21385b68909f,,,,,,,,,,,2649.6558,2650.6469,,,2651.1461,2651.3963,,88,448,,,,,,,,,,,,,,,,bars/010.png,bars/mask009.png,,,,,,,,,,,,0,2,,,,,,,7,4,9,4,,,,,,,,,,,2650.647,2651.1461,2651.3965,2663.5861,space,12.176,,2663.5861,77,33,2664.5859,2664.586,2664.6127,,,,0,7,7,7,1,165,55,,,,,,,,
,,60ddce06d1556fd085432049,65af56f973eaa355c997c2a9,2024-01-23_08h12.47.643,bars,2023.2.3,Win32,59.88023952,657b66ea316d21385b68909f,,,,,,,,,,,2664.6133,2665.603,,,2666.1033,2666.3535,,93,93,,,,,,,,,,,,,,,,bars/017.png,bars/mask008.png,,,,,,,,,,,,0,2,,,,,,,9,6,9,7,,,,,,,,,,,2665.6031,2666.1033,2666.3536,2668.6219,space,2.2555,,2668.622,52,48,2669.6218,2669.6219,2669.6451,,,,0,8,8,8,1,145,45,,,,,,,,
,,60ddce06d1556fd085432049,65af56f973eaa355c997c2a9,2024-01-23_08h12.47.643,bars,2023.2.3,Win32,59.88023952,657b66ea316d21385b68909f,,,,,,,,,,,2669.6458,2670.6385,,,2671.1393,2671.3892,,89,89,,,,,,,,,,,,,,,,bars/030.png,bars/mask000.png,,,,,,,,,,,,1,2,,,,,,,10,4,10,5,,,,,,,,,,,2670.6385,2671.1393,2671.3893,2675.6084,space,4.2057,,2675.6085,51,24,2676.6085,2676.6086,2676.6306,,,,0,9,9,9,1,140,65,,,,,,,,
,,60ddce06d1556fd085432049,65af56f973eaa355c997c2a9,2024-01-23_08h12.47.643,bars,2023.2.3,Win32,59.88023952,657b66ea316d21385b68909f,,,,,,,,,,,2676.6312,2677.6256,,,2678.1259,2678.3759,,93,273,,,,,,,,,,,,,,,,bars/031.png,bars/mask002.png,,,,,,,,,,,,1,1,,,,,,,8,2,9,3,,,,,,,,,,,2677.6257,2678.1259,2678.3759,2684.9298,space,6.5388,,2684.93,27,58,2685.9295,2685.9296,2685.9559,,,,0,10,10,10,1,120,35,,,,,,,,
,,60ddce06d1556fd085432049,65af56f973eaa355c997c2a9,2024-01-23_08h12.47.643,bars,2023.2.3,Win32,59.88023952,657b66ea316d21385b68909f,,,,,,,,,,,2685.9565,2686.9465,,,2687.4471,2687.6973,,91,271,,,,,,,,,,,,,,,,bars/012.png,bars/mask007.png,,,,,,,,,,,,6,1,,,,,,,6,4,6,5,,,,,,,,,,,2686.9467,2687.4469,2687.6974,2695.3518,space,7.6385,,2695.3518,1,76,2696.3513,2696.3514,2696.3767,,,,0,11,11,11,1,90,15,,,,,,,,
,,60ddce06d1556fd085432049,65af56f973eaa355c997c2a9,2024-01-23_08h12.47.643,bars,2023.2.3,Win32,59.88023952,657b66ea316d21385b68909f,,,,,,,,,,,2696.3773,2697.3687,,,2697.8688,2698.1188,,95,275,,,,,,,,,,,,,,,,bars/011.png,bars/mask000.png,,,,,,,,,,,,3,2,,,,,,,8,6,8,5,,,,,,,,,,,2697.3687,2697.8688,2698.1188,2706.2234,space,8.0884,,2706.2234,65,10,2707.2233,2707.2235,2707.2493,,,,0,12,12,12,1,160,85,,,,,,,,
,,60ddce06d1556fd085432049,65af56f973eaa355c997c2a9,2024-01-23_08h12.47.643,bars,2023.2.3,Win32,59.88023952,657b66ea316d21385b68909f,,,,,,,,,,,2707.2501,2708.2406,,,2708.7407,2708.9908,,83,263,,,,,,,,,,,,,,,,bars/002.png,bars/mask006.png,,,,,,,,,,,,4,2,,,,,,,6,4,5,4,,,,,,,,,,,2708.2407,2708.7406,2708.991,2717.2455,space,8.2396,,2717.2456,47,2,2718.2357,2718.2357,2718.2653,,,,0,13,13,13,1,130,85,,,,,,,,
,,60ddce06d1556fd085432049,65af56f973eaa355c997c2a9,2024-01-23_08h12.47.643,bars,2023.2.3,Win32,59.88023952,657b66ea316d21385b68909f,,,,,,,,,,,2718.2665,2719.2629,,,2719.7633,2720.0135,,90,270,,,,,,,,,,,,,,,,bars/045.png,bars/mask004.png,,,,,,,,,,,,5,1,,,,,,,8,6,7,5,,,,,,,,,,,2719.263,2719.7633,2720.0135,2730.435,space,10.4078,,2730.4351,10,80,2731.4348,2731.4349,2731.4609,,,,0,14,14,14,1,100,10,,,,,,,,
,,60ddce06d1556fd085432049,65af56f973eaa355c997c2a9,2024-01-23_08h12.47.643,bars,2023.2.3,Win32,59.88023952,657b66ea316d21385b68909f,,,,,,,,,,,2731.4614,2732.4521,,,2732.9535,2733.2024,,91,91,,,,,,,,,,,,,,,,bars/041.png,bars/mask008.png,,,,,,,,,,,,7,2,,,,,,,6,8,6,9,,,,,,,,,,,2732.4522,2732.9534,2733.2026,2739.13,space,5.9175,,2739.1302,71,6,2740.1225,2740.1226,2740.1488,,,,0,15,15,15,1,20,85,,,,,,,,
,,60ddce06d1556fd085432049,65af56f973eaa355c997c2a9,2024-01-23_08h12.47.643,bars,2023.2.3,Win32,59.88023952,657b66ea316d21385b68909f,,,,,,,,,,,2740.1499,2741.1394,,,2741.6401,2741.89,,90,270,,,,,,,,,,,,,,,,bars/038.png,bars/mask006.png,,,,,,,,,,,,3,2,,,,,,,8,10,9,10,,,,,,,,,,,2741.1396,2741.6399,2741.8901,2748.8607,space,6.9542,,2748.8608,75,20,2749.8605,2749.8607,2749.8843,,,,0,16,16,16,1,165,70,,,,,,,,
,,60ddce06d1556fd085432049,65af56f973eaa355c997c2a9,2024-01-23_08h12.47.643,bars,2023.2.3,Win32,59.88023952,657b66ea316d21385b68909f,,,,,,,,,,,2749.885,2750.8778,,,2751.3779,2751.6282,,89,269,,,,,,,,,,,,,,,,bars/012.png,bars/mask001.png,,,,,,,,,,,,5,1,,,,,,,6,10,5,8,,,,,,,,,,,2750.8778,2751.3779,2751.6283,2760.7175,space,9.0795,,2760.7176,1,74,2761.7162,2761.7163,2761.7422,,,,0,17,17,17,1,90,15,,,,,,,,
,,60ddce06d1556fd085432049,65af56f973eaa355c997c2a9,2024-01-23_08h12.47.643,bars,2023.2.3,Win32,59.88023952,657b66ea316d21385b68909f,,,,,,,,,,,2761.7428,2762.7334,,,2763.2336,2763.4838,,94,94,,,,,,,,,,,,,,,,bars/015.png,bars/mask009.png,,,,,,,,,,,,2,1,,,,,,,4,10,4,10,,,,,,,,,,,2762.7335,2763.2336,2763.4838,2768.6714,space,5.1775,,2768.6715,16,66,2769.6701,2769.6701,2769.6924,,,,0,18,18,18,1,110,160,,,,,,,,
,,60ddce06d1556fd085432049,65af56f973eaa355c997c2a9,2024-01-23_08h12.47.643,bars,2023.2.3,Win32,59.88023952,657b66ea316d21385b68909f,,,,,,,,,,,2769.693,2770.6907,,,2771.1877,2771.4376,,95,95,,,,,,,,,,,,,,,,bars/004.png,bars/mask007.png,,,,,,,,,,,,0,2,,,,,,,6,8,6,8,,,,,,,,,,,2770.6908,2771.1876,2771.4378,2776.4431,space,4.9963,,2776.4432,70,30,2777.4404,2777.4405,2777.4647,,,,0,19,19,19,1,25,125,,,,,,,,
,,60ddce06d1556fd085432049,65af56f973eaa355c997c2a9,2024-01-23_08h12.47.643,bars,2023.2.3,Win32,59.88023952,657b66ea316d21385b68909f,,,,,,,,,,,2777.4653,2778.4576,,,2778.958,2779.208,,96,276,,,,,,,,,,,,,,,,bars/032.png,bars/mask002.png,,,,,,,,,,,,0,1,,,,,,,4,6,4,6,,,,,,,,,,,2778.4577,2778.9579,2779.208,2784.7944,space,5.5711,,2784.7944,29,76,2785.7945,2785.7945,2785.827,,,,0,20,20,20,1,125,20,,,,,,,,
,,60ddce06d1556fd085432049,65af56f973eaa355c997c2a9,2024-01-23_08h12.47.643,bars,2023.2.3,Win32,59.88023952,657b66ea316d21385b68909f,,,,,,,,,,,2785.828,2786.8284,,,2787.3287,2787.5787,,93,273,,,,,,,,,,,,,,,,bars/045.png,bars/mask009.png,,,,,,,,,,,,2,1,,,,,,,2,8,3,8,,,,,,,,,,,2786.8284,2787.3286,2787.5787,2794.1827,space,6.5897,,2794.1827,7,83,2795.1823,2795.1824,2795.2066,,,,0,21,21,21,1,100,10,,,,,,,,
,,60ddce06d1556fd085432049,65af56f973eaa355c997c2a9,2024-01-23_08h12.47.643,bars,2023.2.3,Win32,59.88023952,657b66ea316d21385b68909f,,,,,,,,,,,2795.2073,2796.2083,,,2796.7,2796.9499,,91,91,,,,,,,,,,,,,,,,bars/007.png,bars/mask000.png,,,,,,,,,,,,0,2,,,,,,,4,6,5,8,,,,,,,,,,,2796.2084,2796.6998,2796.9501,2798.6015,space,1.6347,,2798.6015,84,36,2799.6011,2799.6013,2799.6056,,,,0,22,22,22,1,175,55,,,,,,,,
,,60ddce06d1556fd085432049,65af56f973eaa355c997c2a9,2024-01-23_08h12.47.643,bars,2023.2.3,Win32,59.88023952,657b66ea316d21385b68909f,,,,,,,,,,,2799.6063,2800.6016,,,2801.1024,2801.3522,,93,273,,,,,,,,,,,,,,,,bars/023.png,bars/mask001.png,,,,,,,,,,,,2,2,,,,,,,6,8,4,9,,,,,,,,,,,2800.6017,2801.1023,2801.3522,2809.1236,space,7.7589,,2809.1236,73,22,2810.1229,2810.1229,2810.147,,,,0,23,23,23,1,20,115,,,,,,,,
,,60ddce06d1556fd085432049,65af56f973eaa355c997c2a9,2024-01-23_08h12.47.643,bars,2023.2.3,Win32,59.88023952,657b66ea316d21385b68909f,,,,,,,,,,,2810.148,2811.14,,,2811.6405,2811.8905,,86,86,,,,,,,,,,,,,,,,bars/025.png,bars/mask001.png,,,,,,,,,,,,3,1,,,,,,,8,6,8,8,,,,,,,,,,,2811.1401,2811.6403,2811.891,2814.5259,space,2.6198,,2814.5261,19,46,2815.5254,2815.5255,2815.5498,,,,0,24,24,24,1,105,40,,,,,,,,
,,60ddce06d1556fd085432049,65af56f973eaa355c997c2a9,2024-01-23_08h12.47.643,bars,2023.2.3,Win32,59.88023952,657b66ea316d21385b68909f,,,,,,,,,,,2815.5505,2816.5427,,,2817.043,2817.2931,,92,272,,,,,,,,,,,,,,,,bars/035.png,bars/mask000.png,,,,,,,,,,,,0,2,,,,,,,6,8,7,8,,,,,,,,,,,2816.5427,2817.0429,2817.2932,2824.4667,space,7.1642,,2824.4668,83,32,2825.4637,2825.4638,2825.4896,,,,0,25,25,25,1,175,60,,,,,,,,
,,60ddce06d1556fd085432049,65af56f973eaa355c997c2a9,2024-01-23_08h12.47.643,bars,2023.2.3,Win32,59.88023952,657b66ea316d21385b68909f,,,,,,,,,,,2825.4902,2826.4807,,,2826.9812,2827.2313,,95,95,,,,,,,,,,,,,,,,bars/012.png,bars/mask001.png,,,,,,,,,,,,4,1,,,,,,,4,6,5,5,,,,,,,,,,,2826.4808,2826.9811,2827.2313,2829.7498,space,2.5025,,2829.7499,5,80,2830.7495,2830.7495,2830.7737,,,,0,26,26,26,1,90,15,,,,,,,,
,,60ddce06d1556fd085432049,65af56f973eaa355c997c2a9,2024-01-23_08h12.47.643,bars,2023.2.3,Win32,59.88023952,657b66ea316d21385b68909f,,,,,,,,,,,2830.7744,2831.7666,,,2832.267,2832.5197,,89,269,,,,,,,,,,,,,,,,bars/017.png,bars/mask007.png,,,,,,,,,,,,0,2,,,,,,,6,4,6,3,,,,,,,,,,,2831.7666,2832.2669,2832.5198,2840.4217,space,7.8871,,2840.4219,56,44,2841.4213,2841.4214,2841.4474,,,,0,27,27,27,1,145,45,,,,,,,,
,,60ddce06d1556fd085432049,65af56f973eaa355c997c2a9,2024-01-23_08h12.47.643,bars,2023.2.3,Win32,59.88023952,657b66ea316d21385b68909f,,,,,,,,,,,2841.448,2842.4385,,,2842.9389,2843.189,,91,271,,,,,,,,,,,,,,,,bars/001.png,bars/mask005.png,,,,,,,,,,,,2,2,,,,,,,8,2,6,2,,,,,,,,,,,2842.4387,2842.9388,2843.1891,2850.1932,space,6.9879,,2850.1934,39,6,2851.193,2851.193,2851.2178,,,,0,28,28,28,1,130,85,,,,,,,,
,,60ddce06d1556fd085432049,65af56f973eaa355c997c2a9,2024-01-23_08h12.47.643,bars,2023.2.3,Win32,59.88023952,657b66ea316d21385b68909f,,,,,,,,,,,2851.2186,2852.2101,,,2852.7102,2852.9602,,91,91,,,,,,,,,,,,,,,,bars/015.png,bars/mask004.png,,,,,,,,,,,,3,1,,,,,,,6,0,7,0,,,,,,,,,,,2852.2101,2852.7102,2852.9603,2857.5299,space,4.5544,,2857.53,19,69,2858.5297,2858.5298,2858.5539,,,,0,29,29,29,1,110,160,,,,,,,,
,,60ddce06d1556fd085432049,65af56f973eaa355c997c2a9,2024-01-23_08h12.47.643,bars,2023.2.3,Win32,59.88023952,657b66ea316d21385b68909f,,,,,,,,,,,2858.5545,2859.5465,,,2860.0472,2860.2971,,178,178,,,,,,,,,,,,,,,,bars/004.png,bars/mask009.png,,,,,,,,,,,,1,1,,,,,,,8,0,9,0,,,,,,,,,,,2859.5465,2860.047,2860.2973,2864.8335,space,4.5211,,2864.8337,27,53,2865.8313,2865.8314,2865.855,,,,0,30,30,30,1,25,125,,,,,,,,
,,60ddce06d1556fd085432049,65af56f973eaa355c997c2a9,2024-01-23_08h12.47.643,bars,2023.2.3,Win32,59.88023952,657b66ea316d21385b68909f,,,,,,,,,,,2865.8555,2866.8503,,,2867.3507,2867.6007,,179,179,,,,,,,,,,,,,,,,bars/043.png,bars/mask003.png,,,,,,,,,,,,0,1,,,,,,,10,0,10,2,,,,,,,,,,,2866.8503,2867.3507,2867.6008,2870.6868,space,3.0692,,2870.6868,31,49,2871.6871,2871.6872,2871.726,,,,0,31,31,31,1,30,130,,,,,,,,
,,60ddce06d1556fd085432049,65af56f973eaa355c997c2a9,2024-01-23_08h12.47.643,bars,2023.2.3,Win32,59.88023952,657b66ea316d21385b68909f,,,,,,,,,,,2871.7272,2872.7198,,,2873.2207,2873.4702,,2,182,,,,,,,,,,,,,,,,bars/044.png,bars/mask002.png,,,,,,,,,,,,0,2,,,,,,,10,0,9,0,,,,,,,,,,,2872.7198,2873.2201,2873.4703,2877.423,space,3.9365,,2877.4231,73,27,2878.4226,2878.4227,2878.447,,,,0,32,32,32,1,75,155,,,,,,,,
,,60ddce06d1556fd085432049,65af56f973eaa355c997c2a9,2024-01-23_08h12.47.643,bars,2023.2.3,Win32,59.88023952,657b66ea316d21385b68909f,,,,,,,,,,,2878.4477,2879.4397,,,2879.9399,2880.1901,,90,90,,,,,,,,,,,,,,,,bars/020.png,bars/mask000.png,,,,,,,,,,,,2,1,,,,,,,10,0,10,1,,,,,,,,,,,2879.4398,2879.9399,2880.1902,2884.4262,space,4.2202,,2884.4263,25,80,2885.4259,2885.4261,2885.45,,,,0,33,33,33,1,115,170,,,,,,,,
,,60ddce06d1556fd085432049,65af56f973eaa355c997c2a9,2024-01-23_08h12.47.643,bars,2023.2.3,Win32,59.88023952,657b66ea316d21385b68909f,,,,,,,,,,,2885.4507,2886.4431,,,2886.9435,2887.1969,,94,94,,,,,,,,,,,,,,,,bars/000.png,bars/mask005.png,,,,,,,,,,,,0,2,,,,,,,8,2,9,2,,,,,,,,,,,2886.4432,2886.9434,2887.1969,2891.1321,space,3.9245,,2891.1323,54,51,2892.1294,2892.1294,2892.1534,,,,0,34,34,34,1,40,145,,,,,,,,
,,60ddce06d1556fd085432049,65af56f973eaa355c997c2a9,2024-01-23_08h12.47.643,bars,2023.2.3,Win32,59.88023952,657b66ea316d21385b68909f,,,,,,,,,,,2892.1541,2893.1462,,,2893.6468,2893.8996,,90,90,,,,,,,,,,,,,,,,bars/045.png,bars/mask002.png,,,,,,,,,,,,7,1,,,,,,,10,4,10,5,,,,,,,,,,,2893.1465,2893.6468,2893.8997,2898.3165,space,4.4016,,2898.3166,10,80,2899.3161,2899.3163,2899.3412,,,,0,35,35,35,1,100,10,,,,,,,,
,,60ddce06d1556fd085432049,65af56f973eaa355c997c2a9,2024-01-23_08h12.47.643,bars,2023.2.3,Win32,59.88023952,657b66ea316d21385b68909f,,,,,,,,,,,2899.3419,2900.333,,,2900.8336,2901.0836,,95,95,,,,,,,,,,,,,,,,bars/011.png,bars/mask004.png,,,,,,,,,,,,3,2,,,,,,,8,6,7,5,,,,,,,,,,,2900.3331,2900.8335,2901.0836,2904.2025,space,3.1029,,2904.2026,65,10,2905.2024,2905.2025,2905.2309,,,,0,36,36,36,1,160,85,,,,,,,,
,,60ddce06d1556fd085432049,65af56f973eaa355c997c2a9,2024-01-23_08h12.47.643,bars,2023.2.3,Win32,59.88023952,657b66ea316d21385b68909f,,,,,,,,,,,2905.2321,2906.2224,,,2906.7198,2906.9697,,0,0,,,,,,,,,,,,,,,,bars/034.png,bars/mask006.png,,,,,,,,,,,,0,1,,,,,,,6,8,7,9,,,,,,,,,,,2906.2224,2906.7197,2906.9698,2930.8321,space,23.8499,,2930.8322,55,65,2931.8327,2931.8328,2931.8615,,,,0,37,37,37,1,125,65,,,,,,,,
,,60ddce06d1556fd085432049,65af56f973eaa355c997c2a9,2024-01-23_08h12.47.643,bars,2023.2.3,Win32,59.88023952,657b66ea316d21385b68909f,,,,,,,,,,,2931.864,2932.8638,,,2933.367,2933.6167,,92,92,,,,,,,,,,,,,,,,bars/025.png,bars/mask000.png,,,,,,,,,,,,5,1,,,,,,,8,6,8,7,,,,,,,,,,,2932.8639,2933.3669,2933.6167,2948.4574,space,14.825,,2948.4575,13,52,2949.4569,2949.4569,2949.4814,,,,0,38,38,38,1,105,40,,,,,,,,
,,60ddce06d1556fd085432049,65af56f973eaa355c997c2a9,2024-01-23_08h12.47.643,bars,2023.2.3,Win32,59.88023952,657b66ea316d21385b68909f,,,,,,,,,,,2949.482,2950.4749,,,2950.9749,2951.2246,,90,90,,,,,,,,,,,,,,,,bars/012.png,bars/mask005.png,,,,,,,,,,,,9,1,,,,,,,10,4,9,3,,,,,,,,,,,2950.4749,2950.9748,2951.2247,2958.1139,space,6.8796,,2958.114,0,75,2959.1116,2959.1116,2959.1371,,,,0,39,39,39,1,90,15,,,,,,,,
,,60ddce06d1556fd085432049,65af56f973eaa355c997c2a9,2024-01-23_08h12.47.643,bars,2023.2.3,Win32,59.88023952,657b66ea316d21385b68909f,,,,,,,,,,,2959.1378,2960.1288,,,2960.6297,2960.8791,,92,92,,,,,,,,,,,,,,,,bars/038.png,bars/mask002.png,,,,,,,,,,,,1,2,,,,,,,10,2,10,3,,,,,,,,,,,2960.1289,2960.6297,2960.8793,2967.45,space,6.5576,,2967.45,73,22,2968.4492,2968.4495,2968.4777,,,,0,40,40,40,1,165,70,,,,,,,,
,,60ddce06d1556fd085432049,65af56f973eaa355c997c2a9,2024-01-23_08h12.47.643,bars,2023.2.3,Win32,59.88023952,657b66ea316d21385b68909f,,,,,,,,,,,2968.4783,2969.4668,,,2969.9669,2970.2173,,90,90,,,,,,,,,,,,,,,,bars/028.png,bars/mask003.png,,,,,,,,,,,,0,2,,,,,,,10,0,10,0,,,,,,,,,,,2969.4668,2969.9666,2970.2173,2981.4235,space,11.1898,,2981.4237,45,30,2982.423,2982.4232,2982.4472,,,,0,41,41,41,1,45,120,,,,,,,,
,,60ddce06d1556fd085432049,65af56f973eaa355c997c2a9,2024-01-23_08h12.47.643,bars,2023.2.3,Win32,59.88023952,657b66ea316d21385b68909f,,,,,,,,,,,2982.4479,2983.4402,,,2983.9404,2984.1905,,90,90,,,,,,,,,,,,,,,,bars/014.png,bars/mask004.png,,,,,,,,,,,,7,1,,,,,,,10,2,10,2,,,,,,,,,,,2983.4402,2983.9403,2984.1906,2992.9496,space,8.7486,,2992.9496,10,90,2993.9452,2993.9452,2993.9715,,,,0,42,42,42,1,80,0,,,,,,,,
,,60ddce06d1556fd085432049,65af56f973eaa355c997c2a9,2024-01-23_08h12.47.643,bars,2023.2.3,Win32,59.88023952,657b66ea316d21385b68909f,,,,,,,,,,,2993.9721,2994.9631,,,2995.4408,2995.6795,,176,-4,,,,,,,,,,,,,,,,bars/017.png,bars/mask008.png,,,,,,,,,,,,0,1,,,,,,,8,0,8,0,,,,,,,,,,,2994.9632,2995.4408,2995.6796,3011.5047,space,15.8097,,3011.5047,31,49,3012.5045,3012.5046,3012.5292,,,,0,43,43,43,1,145,45,,,,,,,,
,,60ddce06d1556fd085432049,65af56f973eaa355c997c2a9,2024-01-23_08h12.47.643,bars,2023.2.3,Win32,59.88023952,657b66ea316d21385b68909f,,,,,,,,,,,3012.5297,3013.521,,,3014.0218,3014.2717,,91,91,,,,,,,,,,,,,,,,bars/031.png,bars/mask008.png,,,,,,,,,,,,0,1,,,,,,,6,0,6,0,,,,,,,,,,,3013.5212,3014.0218,3014.2718,3021.8107,space,7.5288,,3021.8107,29,56,3022.8092,3022.8094,3022.8347,,,,0,44,44,44,1,120,35,,,,,,,,
,,60ddce06d1556fd085432049,65af56f973eaa355c997c2a9,2024-01-23_08h12.47.643,bars,2023.2.3,Win32,59.88023952,657b66ea316d21385b68909f,,,,,,,,,,,3022.8353,3023.8263,,,3024.31,3024.5597,,178,-2,,,,,,,,,,,,,,,,bars/032.png,bars/mask001.png,,,,,,,,,,,,0,2,,,,,,,4,0,4,0,,,,,,,,,,,3023.8263,3024.3099,3024.5597,3027.7789,space,3.2018,,3027.779,53,22,3028.7784,3028.7786,3028.803,,,,0,45,45,45,1,125,20,,,,,,,,
,,60ddce06d1556fd085432049,65af56f973eaa355c997c2a9,2024-01-23_08h12.47.643,bars,2023.2.3,Win32,59.88023952,657b66ea316d21385b68909f,,,,,,,,,,,3028.8036,3029.7955,,,3030.2962,3030.5461,,90,90,,,,,,,,,,,,,,,,bars/040.png,bars/mask000.png,,,,,,,,,,,,0,1,,,,,,,6,2,4,2,,,,,,,,,,,3029.7958,3030.2962,3030.5462,3037.8504,space,7.2881,,3037.8505,50,85,3038.8501,3038.8503,3038.8761,,,,0,46,46,46,1,140,5,,,,,,,,
,,60ddce06d1556fd085432049,65af56f973eaa355c997c2a9,2024-01-23_08h12.47.643,bars,2023.2.3,Win32,59.88023952,657b66ea316d21385b68909f,,,,,,,,,,,3038.8767,3039.8672,,,3040.3677,3040.6182,,92,92,,,,,,,,,,,,,,,,bars/027.png,bars/mask008.png,,,,,,,,,,,,2,1,,,,,,,4,4,4,4,,,,,,,,,,,3039.8674,3040.3676,3040.6182,3043.6034,space,2.9688,,3043.6035,18,42,3044.6028,3044.6029,3044.6245,,,,0,47,47,47,1,110,50,,,,,,,,
,,60ddce06d1556fd085432049,65af56f973eaa355c997c2a9,2024-01-23_08h12.47.643,bars,2023.2.3,Win32,59.88023952,657b66ea316d21385b68909f,,,,,,,,,,,3044.6251,3045.6201,,,3046.1204,3046.3705,,90,90,,,,,,,,,,,,,,,,bars/031.png,bars/mask001.png,,,,,,,,,,,,0,1,,,,,,,6,6,7,5,,,,,,,,,,,3045.6202,3046.1203,3046.3705,3052.3584,space,5.9779,,3052.3585,30,55,3053.3569,3053.3571,3053.3809,,,,0,48,48,48,1,120,35,,,,,,,,
,,60ddce06d1556fd085432049,65af56f973eaa355c997c2a9,2024-01-23_08h12.47.643,bars,2023.2.3,Win32,59.88023952,657b66ea316d21385b68909f,,,,,,,,,,,3053.3815,3054.3748,,,3054.8746,3055.1247,,88,88,,,,,,,,,,,,,,,,bars/016.png,bars/mask000.png,,,,,,,,,,,,0,1,,,,,,,8,8,9,8,,,,,,,,,,,3054.3749,3054.8746,3055.1248,3058.8634,space,3.7278,,3058.8634,48,77,3059.8603,3059.8603,3059.8825,,,,0,49,49,49,1,40,165,,,,,,,,
,,60ddce06d1556fd085432049,65af56f973eaa355c997c2a9,2024-01-23_08h12.47.643,bars,2023.2.3,Win32,59.88023952,657b66ea316d21385b68909f,,,,,,,,,,,,,,,,,,,,,,,,,,,,,,,,,,,,,,,,,,,,,,,,,,,,,,,,,,,,,,,,,,,,,,,,,,,,,,,,,,,,,,,,,,,,,3059.8829,3119.8733,0,3,3,2,1,sequence_tables/blk034.csv
,,60ddce06d1556fd085432049,65af56f973eaa355c997c2a9,2024-01-23_08h12.47.643,bars,2023.2.3,Win32,59.88023952,657b66ea316d21385b68909f,,,,,,,,,,,3122.273,3123.2744,,,3123.7746,3124.0247,,87,87,,,,,,,,,,,,,,,,bars/024.png,bars/mask003.png,,,,,,,,,,,,0,1,,,,,,,1,3,2,3,,,,,,3119.8975,3122.2596,space,2.3494,,3123.2744,3123.7745,3124.0249,3135.848,space,11.8077,,3135.848,33,83,3136.8474,3136.8475,3136.8712,,,,0,0,0,0,1,120,170,,,,,,,,
,,60ddce06d1556fd085432049,65af56f973eaa355c997c2a9,2024-01-23_08h12.47.643,bars,2023.2.3,Win32,59.88023952,657b66ea316d21385b68909f,,,,,,,,,,,3136.8719,3137.8648,,,3138.365,3138.6152,,89,89,,,,,,,,,,,,,,,,bars/047.png,bars/mask000.png,,,,,,,,,,,,2,2,,,,,,,3,5,4,6,,,,,,,,,,,3137.8649,3138.3649,3138.6153,3339.2628,space,200.6314,,3339.2629,74,19,3340.2623,3340.2624,3340.289,,,,0,1,1,1,1,15,70,,,,,,,,
,,60ddce06d1556fd085432049,65af56f973eaa355c997c2a9,2024-01-23_08h12.47.643,bars,2023.2.3,Win32,59.88023952,657b66ea316d21385b68909f,,,,,,,,,,,3340.2896,3341.2797,,,3341.7798,3342.0299,,84,84,,,,,,,,,,,,,,,,bars/046.png,bars/mask000.png,,,,,,,,,,,,3,2,,,,,,,1,3,2,3,,,,,,,,,,,3341.2797,3341.7798,3342.03,3346.5329,space,4.4878,,3346.533,71,1,3347.5326,3347.5327,3347.5565,,,,0,2,2,2,1,155,85,,,,,,,,
,,60ddce06d1556fd085432049,65af56f973eaa355c997c2a9,2024-01-23_08h12.47.643,bars,2023.2.3,Win32,59.88023952,657b66ea316d21385b68909f,,,,,,,,,,,3347.5571,3348.5502,,,3349.05,3349.3003,,91,91,,,,,,,,,,,,,,,,bars/032.png,bars/mask001.png,,,,,,,,,,,,0,1,,,,,,,0,1,1,1,,,,,,,,,,,3348.5502,3349.0499,3349.3003,3352.3359,space,3.0205,,3352.336,34,71,3353.3355,3353.3356,3353.3605,,,,0,3,3,3,1,125,20,,,,,,,,
,,60ddce06d1556fd085432049,65af56f973eaa355c997c2a9,2024-01-23_08h12.47.643,bars,2023.2.3,Win32,59.88023952,657b66ea316d21385b68909f,,,,,,,,,,,3353.3611,3354.3524,,,3354.853,3355.1032,,90,90,,,,,,,,,,,,,,,,bars/007.png,bars/mask002.png,,,,,,,,,,,,0,2,,,,,,,2,3,1,3,,,,,,,,,,,3354.3526,3354.8529,3355.1032,3367.1637,space,12.0508,,3367.1638,85,35,3368.1594,3368.1595,3368.1863,,,,0,4,4,4,1,175,55,,,,,,,,
,,60ddce06d1556fd085432049,65af56f973eaa355c997c2a9,2024-01-23_08h12.47.643,bars,2023.2.3,Win32,59.88023952,657b66ea316d21385b68909f,,,,,,,,,,,3368.1869,3369.1764,,,3369.6766,3369.9265,,86,86,,,,,,,,,,,,,,,,bars/001.png,bars/mask001.png,,,,,,,,,,,,1,2,,,,,,,4,1,3,1,,,,,,,,,,,3369.1765,3369.6765,3369.9265,3376.4808,space,6.5415,,3376.4809,44,1,3377.4804,3377.4804,3377.5051,,,,0,5,5,5,1,130,85,,,,,,,,
,,60ddce06d1556fd085432049,65af56f973eaa355c997c2a9,2024-01-23_08h12.47.643,bars,2023.2.3,Win32,59.88023952,657b66ea316d21385b68909f,,,,,,,,,,,3377.5057,3378.4978,,,3378.998,3379.2482,,86,86,,,,,,,,,,,,,,,,bars/038.png,bars/mask004.png,,,,,,,,,,,,1,2,,,,,,,6,3,5,2,,,,,,,,,,,3378.4978,3378.9978,3379.2483,3382.9504,space,3.6883,,3382.9505,79,16,3383.9502,3383.9504,3383.9723,,,,0,6,6,6,1,165,70,,,,,,,,
,,60ddce06d1556fd085432049,65af56f973eaa355c997c2a9,2024-01-23_08h12.47.643,bars,2023.2.3,Win32,59.88023952,657b66ea316d21385b68909f,,,,,,,,,,,3383.9731,3384.9673,,,3385.4551,3385.7011,,90,90,,,,,,,,,,,,,,,,bars/048.png,bars/mask007.png,,,,,,,,,,,,0,1,,,,,,,4,5,5,4,,,,,,,,,,,3384.9674,3385.455,3385.7012,3394.2893,space,8.5718,,3394.2895,40,85,3395.2892,3395.2892,3395.3156,,,,0,7,7,7,1,50,175,,,,,,,,
,,60ddce06d1556fd085432049,65af56f973eaa355c997c2a9,2024-01-23_08h12.47.643,bars,2023.2.3,Win32,59.88023952,657b66ea316d21385b68909f,,,,,,,,,,,3395.3163,3396.3092,,,3396.8073,3397.0564,,93,93,,,,,,,,,,,,,,,,bars/031.png,bars/mask004.png,,,,,,,,,,,,1,1,,,,,,,6,7,7,8,,,,,,,,,,,3396.3092,3396.8073,3397.0567,3401.6405,space,4.5697,,3401.6406,27,58,3402.6426,3402.6428,3402.6676,,,,0,8,8,8,1,120,35,,,,,,,,
,,60ddce06d1556fd085432049,65af56f973eaa355c997c2a9,2024-01-23_08h12.47.643,bars,2023.2.3,Win32,59.88023952,657b66ea316d21385b68909f,,,,,,,,,,,3402.6682,3403.6599,,,3404.1605,3404.4103,,93,273,,,,,,,,,,,,,,,,bars/026.png,bars/mask003.png,,,,,,,,,,,,6,2,,,,,,,4,9,5,8,,,,,,,,,,,3403.6599,3404.1602,3404.4103,3431.3599,space,26.9401,,3431.3599,58,8,3432.3569,3432.357,3432.3839,,,,0,9,9,9,1,35,85,,,,,,,,
,,60ddce06d1556fd085432049,65af56f973eaa355c997c2a9,2024-01-23_08h12.47.643,bars,2023.2.3,Win32,59.88023952,657b66ea316d21385b68909f,,,,,,,,,,,3432.3844,3433.3742,,,3433.8756,3434.1246,,86,86,,,,,,,,,,,,,,,,bars/042.png,bars/mask006.png,,,,,,,,,,,,6,2,,,,,,,6,10,6,10,,,,,,,,,,,3433.3743,3433.8756,3434.1247,3460.3047,space,26.166,,3460.3047,59,11,3461.3042,3461.3043,3461.3296,,,,0,10,10,10,1,145,75,,,,,,,,
