init_variables.started,init_variables.stopped,participant,session,date,expName,psychopyVersion,OS,frameRate,study_id,instruction_exp.started,instruction_exp.stopped,key_resp_8.keys,key_resp_8.rt,key_resp_8.duration,instruction_single.started,instruction_single.stopped,key_resp_2.keys,key_resp_2.rt,key_resp_2.duration,interval.started,interval.stopped,cue_single.started,cue_single.stopped,mask.started,mask.stopped,ori_response_single.started,res_ori,res,ori_response_single.stopped,key_resp_single.keys,key_resp_single.rt,key_resp_single.duration,disp_single.started,disp_single.stopped,key_resp.keys,key_resp.rt,key_resp.duration,single.thisRepN,single.thisTrialN,single.thisN,single.thisIndex,single.ran,ori,path,mask_path,instruction_bandit.started,instruction_bandit.stopped,key_resp_6.keys,key_resp_6.rt,key_resp_6.duration,cue_bandit.started,cue_bandit.stopped,bandit_res.keys,bandit_res.rt,bandit_res.duration,outcome_bandit.started,rew,action,outcome_bandit.stopped,bandit.thisRepN,bandit.thisTrialN,bandit.thisN,bandit.thisIndex,bandit.ran,actual_rew1,actual_rew2,rew1,rew2,instruction_task.started,instruction_task.stopped,key_resp_7.keys,key_resp_7.rt,key_resp_7.duration,wait_ready.started,wait_ready.stopped,key_resp_3.keys,key_resp_3.rt,key_resp_3.duration,cue.started,cue.stopped,ori_response.started,ori_response.stopped,key_resp_5.keys,key_resp_5.rt,key_resp_5.duration,outcome.started,diff1,diff2,outcome.stopped,disp_outcome_practice.started,disp_outcome_practice.stopped,key_resp_4.keys,key_resp_4.rt,key_resp_4.duration,trials.thisRepN,trials.thisTrialN,trials.thisN,trials.thisIndex,trials.ran,ori1,ori2,break_blk.started,break_blk.stopped,block.thisRepN,block.thisTrialN,block.thisN,block.thisIndex,block.ran,condition_file
0,0.0001,615fe53328089522ce2661ed,65af5603f1fd1b2813087bd0,2024-01-23_08h01.25.553,bars,2023.2.3,Win32,56.81818182,657b66ea316d21385b68909f,,,,,,,,,,,,,,,,,,,,,,,,,,,,,,,,,,,,,,,,,,,,,,,,,,,,,,,,,,,,,,,,,,,,,,,,,,,,,,,,,,,,,,,,,,,,,,,,,,,,
,,615fe53328089522ce2661ed,65af5603f1fd1b2813087bd0,2024-01-23_08h01.25.553,bars,2023.2.3,Win32,56.81818182,657b66ea316d21385b68909f,0.0003,162.1526,y,162.1412,,,,,,,,,,,,,,,,,,,,,,,,,,,,,,,,,,,,,,,,,,,,,,,,,,,,,,,,,,,,,,,,,,,,,,,,,,,,,,,,,,,,,,,,,,,,,,,,
,,615fe53328089522ce2661ed,65af5603f1fd1b2813087bd0,2024-01-23_08h01.25.553,bars,2023.2.3,Win32,56.81818182,657b66ea316d21385b68909f,,,,,,162.1527,176.4248,space,14.2619,,,,,,,,,,,,,,,,,,,,,,,,,,,,,,,,,,,,,,,,,,,,,,,,,,,,,,,,,,,,,,,,,,,,,,,,,,,,,,,,,,,,,,,,,,,
,,615fe53328089522ce2661ed,65af5603f1fd1b2813087bd0,2024-01-23_08h01.25.553,bars,2023.2.3,Win32,56.81818182,657b66ea316d21385b68909f,,,,,,,,,,,176.4287,177.4168,177.4169,177.9079,177.908,178.1568,178.1569,30,30,183.9974,space,5.8091,,183.9974,186.8373,space,2.8144,,0,0,0,3,1,20,bars/single003.png,bars/mask005.png,,,,,,,,,,,,,,,,,,,,,,,,,,,,,,,,,,,,,,,,,,,,,,,,,,,,,,,,,,,,,,,,
,,615fe53328089522ce2661ed,65af5603f1fd1b2813087bd0,2024-01-23_08h01.25.553,bars,2023.2.3,Win32,56.81818182,657b66ea316d21385b68909f,,,,,,,,,,,186.843,187.8461,187.8462,188.3385,188.3386,188.5829,188.583,23,23,191.3431,space,2.7515,,191.3431,196.1339,space,4.7653,,0,1,1,1,1,20,bars/single001.png,bars/mask006.png,,,,,,,,,,,,,,,,,,,,,,,,,,,,,,,,,,,,,,,,,,,,,,,,,,,,,,,,,,,,,,,,
,,615fe53328089522ce2661ed,65af5603f1fd1b2813087bd0,2024-01-23_08h01.25.553,bars,2023.2.3,Win32,56.81818182,657b66ea316d21385b68909f,,,,,,,,,,,196.1396,197.1361,197.1361,197.627,197.6271,197.8739,197.8739,37,37,200.9965,space,3.1079,,200.9966,204.1886,space,3.1719,,0,2,2,9,1,20,bars/single009.png,bars/mask006.png,,,,,,,,,,,,,,,,,,,,,,,,,,,,,,,,,,,,,,,,,,,,,,,,,,,,,,,,,,,,,,,,
,,615fe53328089522ce2661ed,65af5603f1fd1b2813087bd0,2024-01-23_08h01.25.553,bars,2023.2.3,Win32,56.81818182,657b66ea316d21385b68909f,,,,,,,,,,,204.1888,205.1791,205.1791,205.675,205.675,205.9208,205.9208,138,138,210.5384,space,4.6012,,210.5384,213.7678,space,3.2135,,0,3,3,8,1,160,bars/single008.png,bars/mask004.png,,,,,,,,,,,,,,,,,,,,,,,,,,,,,,,,,,,,,,,,,,,,,,,,,,,,,,,,,,,,,,,,
,,615fe53328089522ce2661ed,65af5603f1fd1b2813087bd0,2024-01-23_08h01.25.553,bars,2023.2.3,Win32,56.81818182,657b66ea316d21385b68909f,,,,,,,,,,,213.768,214.7697,214.7697,215.2608,215.2609,215.5111,215.5112,174,174,217.5405,space,2.0171,,217.5405,220.7809,space,3.2239,,0,4,4,0,1,150,bars/single000.png,bars/mask006.png,,,,,,,,,,,,,,,,,,,,,,,,,,,,,,,,,,,,,,,,,,,,,,,,,,,,,,,,,,,,,,,,
,,615fe53328089522ce2661ed,65af5603f1fd1b2813087bd0,2024-01-23_08h01.25.553,bars,2023.2.3,Win32,56.81818182,657b66ea316d21385b68909f,,,,,,,,,,,220.787,221.7808,221.7808,222.274,222.274,222.5184,222.5185,159,159,226.5946,space,4.0619,,226.5947,229.9592,space,3.3485,,0,5,5,6,1,175,bars/single006.png,bars/mask005.png,,,,,,,,,,,,,,,,,,,,,,,,,,,,,,,,,,,,,,,,,,,,,,,,,,,,,,,,,,,,,,,,
,,615fe53328089522ce2661ed,65af5603f1fd1b2813087bd0,2024-01-23_08h01.25.553,bars,2023.2.3,Win32,56.81818182,657b66ea316d21385b68909f,,,,,,,,,,,229.9594,230.9636,230.9636,231.4568,231.4568,231.7021,231.7021,129,129,235.335,space,3.6258,,235.335,238.2779,space,2.93,,0,6,6,2,1,145,bars/single002.png,bars/mask003.png,,,,,,,,,,,,,,,,,,,,,,,,,,,,,,,,,,,,,,,,,,,,,,,,,,,,,,,,,,,,,,,,
,,615fe53328089522ce2661ed,65af5603f1fd1b2813087bd0,2024-01-23_08h01.25.553,bars,2023.2.3,Win32,56.81818182,657b66ea316d21385b68909f,,,,,,,,,,,238.2782,239.2665,239.2665,239.76,239.76,240.0066,240.0067,104,104,246.5577,space,6.5447,,246.5578,249.8865,space,3.3066,,0,7,7,4,1,95,bars/single004.png,bars/mask004.png,,,,,,,,,,,,,,,,,,,,,,,,,,,,,,,,,,,,,,,,,,,,,,,,,,,,,,,,,,,,,,,,
,,615fe53328089522ce2661ed,65af5603f1fd1b2813087bd0,2024-01-23_08h01.25.553,bars,2023.2.3,Win32,56.81818182,657b66ea316d21385b68909f,,,,,,,,,,,249.8867,250.8869,250.887,251.381,251.381,251.6264,251.6265,22,22,260.2226,space,8.59,,260.2227,264.2755,space,4.0416,,0,8,8,7,1,45,bars/single007.png,bars/mask009.png,,,,,,,,,,,,,,,,,,,,,,,,,,,,,,,,,,,,,,,,,,,,,,,,,,,,,,,,,,,,,,,,
,,615fe53328089522ce2661ed,65af5603f1fd1b2813087bd0,2024-01-23_08h01.25.553,bars,2023.2.3,Win32,56.81818182,657b66ea316d21385b68909f,,,,,,,,,,,264.2812,265.2756,265.2756,265.769,265.769,266.0152,266.0152,55,55,269.1689,space,3.1494,,269.1689,274.8865,space,5.7078,,0,9,9,5,1,55,bars/single005.png,bars/mask008.png,,,,,,,,,,,,,,,,,,,,,,,,,,,,,,,,,,,,,,,,,,,,,,,,,,,,,,,,,,,,,,,,
,,615fe53328089522ce2661ed,65af5603f1fd1b2813087bd0,2024-01-23_08h01.25.553,bars,2023.2.3,Win32,56.81818182,657b66ea316d21385b68909f,,,,,,,,,,,,,,,,,,,,,,,,,,,,,,,,,,,,,274.8923,330.9047,space,55.9996,,,,,,,,,,,,,,,,,,,,,,,,,,,,,,,,,,,,,,,,,,,,,,,,,,,,,,,,,,,,
,,615fe53328089522ce2661ed,65af5603f1fd1b2813087bd0,2024-01-23_08h01.25.553,bars,2023.2.3,Win32,56.81818182,657b66ea316d21385b68909f,,,,,,,,,,,,,,,,,,,,,,,,,,,,,,,,,,,,,,,,,,330.9116,333.2078,left,2.2797,,333.2079,9,1,334.2069,0,0,0,0,1,9,1,9,2,,,,,,,,,,,,,,,,,,,,,,,,,,,,,,,,,,,,,,,,,
,,615fe53328089522ce2661ed,65af5603f1fd1b2813087bd0,2024-01-23_08h01.25.553,bars,2023.2.3,Win32,56.81818182,657b66ea316d21385b68909f,,,,,,,,,,,,,,,,,,,,,,,,,,,,,,,,,,,,,,,,,,334.2073,335.5413,left,1.3264,,335.5413,10,1,336.5454,0,1,1,1,1,10,0,10,1,,,,,,,,,,,,,,,,,,,,,,,,,,,,,,,,,,,,,,,,,
,,615fe53328089522ce2661ed,65af5603f1fd1b2813087bd0,2024-01-23_08h01.25.553,bars,2023.2.3,Win32,56.81818182,657b66ea316d21385b68909f,,,,,,,,,,,,,,,,,,,,,,,,,,,,,,,,,,,,,,,,,,336.5458,337.9198,left,1.356,,337.9198,10,1,338.9067,0,2,2,2,1,10,2,10,2,,,,,,,,,,,,,,,,,,,,,,,,,,,,,,,,,,,,,,,,,
,,615fe53328089522ce2661ed,65af5603f1fd1b2813087bd0,2024-01-23_08h01.25.553,bars,2023.2.3,Win32,56.81818182,657b66ea316d21385b68909f,,,,,,,,,,,,,,,,,,,,,,,,,,,,,,,,,,,,,,,,,,338.9123,339.5819,right,0.6672,,339.582,3,2,340.578,0,3,3,3,1,8,4,7,3,,,,,,,,,,,,,,,,,,,,,,,,,,,,,,,,,,,,,,,,,
,,615fe53328089522ce2661ed,65af5603f1fd1b2813087bd0,2024-01-23_08h01.25.553,bars,2023.2.3,Win32,56.81818182,657b66ea316d21385b68909f,,,,,,,,,,,,,,,,,,,,,,,,,,,,,,,,,,,,,,,,,,340.5782,342.2164,right,1.6237,,342.2164,1,2,343.2191,0,4,4,4,1,6,2,5,1,,,,,,,,,,,,,,,,,,,,,,,,,,,,,,,,,,,,,,,,,
,,615fe53328089522ce2661ed,65af5603f1fd1b2813087bd0,2024-01-23_08h01.25.553,bars,2023.2.3,Win32,56.81818182,657b66ea316d21385b68909f,,,,,,,,,,,,,,,,,,,,,,,,,,,,,,,,,,,,,,,,,,343.2246,344.1004,right,0.8711,,344.1004,4,2,345.0895,0,5,5,5,1,4,4,4,4,,,,,,,,,,,,,,,,,,,,,,,,,,,,,,,,,,,,,,,,,
,,615fe53328089522ce2661ed,65af5603f1fd1b2813087bd0,2024-01-23_08h01.25.553,bars,2023.2.3,Win32,56.81818182,657b66ea316d21385b68909f,,,,,,,,,,,,,,,,,,,,,,,,,,,,,,,,,,,,,,,,,,345.0898,346.548,right,1.4534,,346.548,2,2,347.5491,0,6,6,6,1,2,2,1,2,,,,,,,,,,,,,,,,,,,,,,,,,,,,,,,,,,,,,,,,,
,,615fe53328089522ce2661ed,65af5603f1fd1b2813087bd0,2024-01-23_08h01.25.553,bars,2023.2.3,Win32,56.81818182,657b66ea316d21385b68909f,,,,,,,,,,,,,,,,,,,,,,,,,,,,,,,,,,,,,,,,,,347.5494,349.204,right,1.6424,,349.2041,1,2,350.2079,0,7,7,7,1,0,0,0,1,,,,,,,,,,,,,,,,,,,,,,,,,,,,,,,,,,,,,,,,,
,,615fe53328089522ce2661ed,65af5603f1fd1b2813087bd0,2024-01-23_08h01.25.553,bars,2023.2.3,Win32,56.81818182,657b66ea316d21385b68909f,,,,,,,,,,,,,,,,,,,,,,,,,,,,,,,,,,,,,,,,,,350.2081,351.4262,right,1.2144,,351.4262,0,2,352.4133,0,8,8,8,1,0,2,1,0,,,,,,,,,,,,,,,,,,,,,,,,,,,,,,,,,,,,,,,,,
,,615fe53328089522ce2661ed,65af5603f1fd1b2813087bd0,2024-01-23_08h01.25.553,bars,2023.2.3,Win32,56.81818182,657b66ea316d21385b68909f,,,,,,,,,,,,,,,,,,,,,,,,,,,,,,,,,,,,,,,,,,352.4135,353.4899,right,1.0632,,353.49,3,2,354.4929,0,9,9,9,1,2,4,2,3,,,,,,,,,,,,,,,,,,,,,,,,,,,,,,,,,,,,,,,,,
,,615fe53328089522ce2661ed,65af5603f1fd1b2813087bd0,2024-01-23_08h01.25.553,bars,2023.2.3,Win32,56.81818182,657b66ea316d21385b68909f,,,,,,,,,,,,,,,,,,,,,,,,,,,,,,,,,,,,,,,,,,354.4932,355.2698,left,0.7693,,355.2699,0,1,356.2729,0,10,10,10,1,0,2,0,3,,,,,,,,,,,,,,,,,,,,,,,,,,,,,,,,,,,,,,,,,
,,615fe53328089522ce2661ed,65af5603f1fd1b2813087bd0,2024-01-23_08h01.25.553,bars,2023.2.3,Win32,56.81818182,657b66ea316d21385b68909f,,,,,,,,,,,,,,,,,,,,,,,,,,,,,,,,,,,,,,,,,,356.2731,356.6265,right,0.3372,,356.6265,3,2,357.617,0,11,11,11,1,0,4,0,3,,,,,,,,,,,,,,,,,,,,,,,,,,,,,,,,,,,,,,,,,
,,615fe53328089522ce2661ed,65af5603f1fd1b2813087bd0,2024-01-23_08h01.25.553,bars,2023.2.3,Win32,56.81818182,657b66ea316d21385b68909f,,,,,,,,,,,,,,,,,,,,,,,,,,,,,,,,,,,,,,,,,,357.6173,357.953,right,0.3188,,357.953,6,2,358.9542,0,12,12,12,1,2,6,1,6,,,,,,,,,,,,,,,,,,,,,,,,,,,,,,,,,,,,,,,,,
,,615fe53328089522ce2661ed,65af5603f1fd1b2813087bd0,2024-01-23_08h01.25.553,bars,2023.2.3,Win32,56.81818182,657b66ea316d21385b68909f,,,,,,,,,,,,,,,,,,,,,,,,,,,,,,,,,,,,,,,,,,358.9545,360.1343,right,1.1729,,360.1344,3,2,361.1387,0,13,13,13,1,0,4,1,3,,,,,,,,,,,,,,,,,,,,,,,,,,,,,,,,,,,,,,,,,
,,615fe53328089522ce2661ed,65af5603f1fd1b2813087bd0,2024-01-23_08h01.25.553,bars,2023.2.3,Win32,56.81818182,657b66ea316d21385b68909f,,,,,,,,,,,,,,,,,,,,,,,,,,,,,,,,,,,,,,,,,,361.139,362.2822,right,1.1325,,362.2822,7,2,363.2739,0,14,14,14,1,2,6,2,7,,,,,,,,,,,,,,,,,,,,,,,,,,,,,,,,,,,,,,,,,
,,615fe53328089522ce2661ed,65af5603f1fd1b2813087bd0,2024-01-23_08h01.25.553,bars,2023.2.3,Win32,56.81818182,657b66ea316d21385b68909f,,,,,,,,,,,,,,,,,,,,,,,,,,,,,,,,,,,,,,,,,,363.2741,372.6513,right,9.3585,,372.6513,9,2,373.6394,0,15,15,15,1,4,8,3,9,,,,,,,,,,,,,,,,,,,,,,,,,,,,,,,,,,,,,,,,,
,,615fe53328089522ce2661ed,65af5603f1fd1b2813087bd0,2024-01-23_08h01.25.553,bars,2023.2.3,Win32,56.81818182,657b66ea316d21385b68909f,,,,,,,,,,,,,,,,,,,,,,,,,,,,,,,,,,,,,,,,,,373.6452,375.4365,right,1.7886,,375.4365,7,2,376.429,0,16,16,16,1,6,6,7,7,,,,,,,,,,,,,,,,,,,,,,,,,,,,,,,,,,,,,,,,,
,,615fe53328089522ce2661ed,65af5603f1fd1b2813087bd0,2024-01-23_08h01.25.553,bars,2023.2.3,Win32,56.81818182,657b66ea316d21385b68909f,,,,,,,,,,,,,,,,,,,,,,,,,,,,,,,,,,,,,,,,,,376.4293,377.6079,right,1.1686,,377.6079,5,2,378.61,0,17,17,17,1,8,4,9,5,,,,,,,,,,,,,,,,,,,,,,,,,,,,,,,,,,,,,,,,,
,,615fe53328089522ce2661ed,65af5603f1fd1b2813087bd0,2024-01-23_08h01.25.553,bars,2023.2.3,Win32,56.81818182,657b66ea316d21385b68909f,,,,,,,,,,,,,,,,,,,,,,,,,,,,,,,,,,,,,,,,,,378.6103,380.9068,right,2.2799,,380.9068,1,2,381.8981,0,18,18,18,1,6,2,5,1,,,,,,,,,,,,,,,,,,,,,,,,,,,,,,,,,,,,,,,,,
,,615fe53328089522ce2661ed,65af5603f1fd1b2813087bd0,2024-01-23_08h01.25.553,bars,2023.2.3,Win32,56.81818182,657b66ea316d21385b68909f,,,,,,,,,,,,,,,,,,,,,,,,,,,,,,,,,,,,,,,,,,381.9034,383.0673,right,1.1467,,383.0673,0,2,384.056,0,19,19,19,1,8,0,7,0,,,,,,,,,,,,,,,,,,,,,,,,,,,,,,,,,,,,,,,,,
,,615fe53328089522ce2661ed,65af5603f1fd1b2813087bd0,2024-01-23_08h01.25.553,bars,2023.2.3,Win32,56.81818182,657b66ea316d21385b68909f,,,,,,,,,,,,,,,,,,,,,,,,,,,,,,,,,,,,,,,,,,,,,,,,,,,,,,,,,,,,384.0564,414.2787,space,30.2112,,,,,,,,,,,,,,,,,,,,,,,,,,,,,,,,,,,,,
,,615fe53328089522ce2661ed,65af5603f1fd1b2813087bd0,2024-01-23_08h01.25.553,bars,2023.2.3,Win32,56.81818182,657b66ea316d21385b68909f,,,,,,,,,,,416.114,417.1179,,,417.6119,417.8582,,143,143,,,,,,,,,,,,,,,,bars/000.png,bars/mask009.png,,,,,,,,,,,,5,2,,,,,,,5,5,4,5,,,,,,414.2856,416.1118,space,1.8066,,417.1181,417.6119,417.8584,423.395,space,5.515,,423.3951,77,2,424.3964,424.3966,434.8865,space,10.4673,,0,0,0,0,1,40,145,,,,,,,,
,,615fe53328089522ce2661ed,65af5603f1fd1b2813087bd0,2024-01-23_08h01.25.553,bars,2023.2.3,Win32,56.81818182,657b66ea316d21385b68909f,,,,,,,,,,,434.8927,435.881,,,436.3759,436.6234,,139,139,,,,,,,,,,,,,,,,bars/043.png,bars/mask007.png,,,,,,,,,,,,1,2,,,,,,,3,3,2,2,,,,,,,,,,,435.881,436.3759,436.6234,442.7564,space,6.1283,,442.7565,71,9,443.7435,443.7435,447.5446,space,3.7785,,0,1,1,1,1,30,130,,,,,,,,
,,615fe53328089522ce2661ed,65af5603f1fd1b2813087bd0,2024-01-23_08h01.25.553,bars,2023.2.3,Win32,56.81818182,657b66ea316d21385b68909f,,,,,,,,,,,447.5503,448.5496,,,449.0419,449.2886,,24,24,,,,,,,,,,,,,,,,bars/003.png,bars/mask008.png,,,,,,,,,,,,6,1,,,,,,,5,1,6,1,,,,,,,,,,,448.5496,449.0419,449.2886,452.6544,space,3.3542,,452.6545,1,64,453.6417,453.6417,456.6601,space,2.9919,,0,2,2,2,1,25,140,,,,,,,,
,,615fe53328089522ce2661ed,65af5603f1fd1b2813087bd0,2024-01-23_08h01.25.553,bars,2023.2.3,Win32,56.81818182,657b66ea316d21385b68909f,,,,,,,,,,,456.6604,457.6474,,,458.1392,458.3868,,26,26,,,,,,,,,,,,,,,,bars/023.png,bars/mask004.png,,,,,,,,,,,,4,1,,,,,,,3,3,5,4,,,,,,,,,,,457.6474,458.1392,458.3868,463.6568,space,5.2593,,463.6569,6,89,464.6581,464.6582,467.7206,space,3.04,,0,3,3,3,1,20,115,,,,,,,,
,,615fe53328089522ce2661ed,65af5603f1fd1b2813087bd0,2024-01-23_08h01.25.553,bars,2023.2.3,Win32,56.81818182,657b66ea316d21385b68909f,,,,,,,,,,,467.7258,468.7268,,,469.2192,469.465,,152,152,,,,,,,,,,,,,,,,bars/040.png,bars/mask008.png,,,,,,,,,,,,1,1,,,,,,,1,5,1,5,,,,,,,,,,,468.7268,469.2192,469.465,476.2447,space,6.7612,,476.2447,12,33,477.234,477.2341,479.5699,space,2.3138,,0,4,4,4,1,140,5,,,,,,,,
,,615fe53328089522ce2661ed,65af5603f1fd1b2813087bd0,2024-01-23_08h01.25.553,bars,2023.2.3,Win32,56.81818182,657b66ea316d21385b68909f,,,,,,,,,,,479.5702,480.5728,,,481.064,481.3122,,34,34,,,,,,,,,,,,,,,,bars/007.png,bars/mask001.png,,,,,,,,,,,,1,2,,,,,,,0,3,0,2,,,,,,,,,,,480.5729,481.064,481.3122,486.5906,space,5.2678,,486.5906,39,21,487.5942,487.5943,491.2214,space,3.6043,,0,5,5,5,1,175,55,,,,,,,,
,,615fe53328089522ce2661ed,65af5603f1fd1b2813087bd0,2024-01-23_08h01.25.553,bars,2023.2.3,Win32,56.81818182,657b66ea316d21385b68909f,,,,,,,,,,,491.2269,492.2269,,,492.7183,492.9649,,42,42,,,,,,,,,,,,,,,,bars/013.png,bars/mask003.png,,,,,,,,,,,,0,2,,,,,,,2,1,3,1,,,,,,,,,,,492.2269,492.7183,492.965,495.7356,space,2.7665,,495.7357,33,32,496.7265,496.7265,500.5637,space,3.8222,,0,6,6,6,1,75,10,,,,,,,,
,,615fe53328089522ce2661ed,65af5603f1fd1b2813087bd0,2024-01-23_08h01.25.553,bars,2023.2.3,Win32,56.81818182,657b66ea316d21385b68909f,,,,,,,,,,,500.5691,501.5703,,,502.0649,502.3099,,120,120,,,,,,,,,,,,,,,,bars/008.png,bars/mask001.png,,,,,,,,,,,,3,1,,,,,,,4,3,5,3,,,,,,,,,,,501.5704,502.0648,502.3099,506.2886,space,3.9645,,506.2887,10,60,507.2757,507.2757,511.8692,space,4.5792,,0,7,7,7,1,110,0,,,,,,,,
,,615fe53328089522ce2661ed,65af5603f1fd1b2813087bd0,2024-01-23_08h01.25.553,bars,2023.2.3,Win32,56.81818182,657b66ea316d21385b68909f,,,,,,,,,,,511.8747,512.8725,,,513.368,513.6136,,121,121,,,,,,,,,,,,,,,,bars/012.png,bars/mask003.png,,,,,,,,,,,,0,1,,,,,,,2,5,1,6,,,,,,,,,,,512.8725,513.368,513.6136,518.0806,space,4.4622,,518.0807,31,74,519.0824,519.0824,523.1148,space,4.0143,,0,8,8,8,1,90,15,,,,,,,,
,,615fe53328089522ce2661ed,65af5603f1fd1b2813087bd0,2024-01-23_08h01.25.553,bars,2023.2.3,Win32,56.81818182,657b66ea316d21385b68909f,,,,,,,,,,,523.1206,524.1153,,,524.6061,524.8531,,130,130,,,,,,,,,,,,,,,,bars/001.png,bars/mask008.png,,,,,,,,,,,,4,1,,,,,,,4,3,4,4,,,,,,,,,,,524.1153,524.6061,524.8532,530.5685,space,5.7119,,530.5685,0,45,531.5712,531.5712,543.2377,space,11.6481,,0,9,9,9,1,130,85,,,,,,,,
,,615fe53328089522ce2661ed,65af5603f1fd1b2813087bd0,2024-01-23_08h01.25.553,bars,2023.2.3,Win32,56.81818182,657b66ea316d21385b68909f,,,,,,,,,,,543.243,544.2461,,,544.7397,544.9876,,174,174,,,,,,,,,,,,,,,,bars/039.png,bars/mask000.png,,,,,,,,,,,,3,1,,,,,,,2,5,3,5,,,,,,,,,,,544.2461,544.7396,544.9877,550.9188,space,5.9276,,550.9189,1,69,551.9203,551.9203,555.8484,space,3.9056,,0,10,10,10,1,175,105,,,,,,,,
,,615fe53328089522ce2661ed,65af5603f1fd1b2813087bd0,2024-01-23_08h01.25.553,bars,2023.2.3,Win32,56.81818182,657b66ea316d21385b68909f,,,,,,,,,,,555.8539,556.8521,,,557.3451,557.5921,,112,-68,,,,,,,,,,,,,,,,bars/025.png,bars/mask002.png,,,,,,,,,,,,0,1,,,,,,,0,7,0,6,,,,,,,,,,,556.8521,557.3451,557.5922,563.2306,space,5.6233,,563.2306,7,72,564.2205,564.2206,568.4823,space,4.2517,,0,11,11,11,1,105,40,,,,,,,,
,,615fe53328089522ce2661ed,65af5603f1fd1b2813087bd0,2024-01-23_08h01.25.553,bars,2023.2.3,Win32,56.81818182,657b66ea316d21385b68909f,,,,,,,,,,,568.4877,569.485,,,569.9793,570.2284,,29,209,,,,,,,,,,,,,,,,bars/035.png,bars/mask008.png,,,,,,,,,,,,0,2,,,,,,,0,9,0,8,,,,,,,,,,,569.485,569.9793,570.2284,575.8563,space,5.6246,,575.8563,34,31,576.8598,576.8598,580.3195,space,3.4435,,0,12,12,12,1,175,60,,,,,,,,
,,615fe53328089522ce2661ed,65af5603f1fd1b2813087bd0,2024-01-23_08h01.25.553,bars,2023.2.3,Win32,56.81818182,657b66ea316d21385b68909f,,,,,,,,,,,580.3254,581.3243,,,581.819,582.0643,,47,47,,,,,,,,,,,,,,,,bars/019.png,bars/mask000.png,,,,,,,,,,,,3,1,,,,,,,2,7,3,7,,,,,,,,,,,581.3243,581.819,582.0643,587.9103,space,5.8313,,587.9103,2,58,588.8992,588.8992,591.4357,space,2.5152,,0,13,13,13,1,45,105,,,,,,,,
,,615fe53328089522ce2661ed,65af5603f1fd1b2813087bd0,2024-01-23_08h01.25.553,bars,2023.2.3,Win32,56.81818182,657b66ea316d21385b68909f,,,,,,,,,,,591.441,592.4419,,,592.9361,593.1816,,35,35,,,,,,,,,,,,,,,,bars/035.png,bars/mask006.png,,,,,,,,,,,,2,2,,,,,,,0,9,0,10,,,,,,,,,,,592.442,592.9361,593.1816,599.4882,space,6.2999,,599.4882,40,25,600.4759,600.4759,602.6792,space,2.1823,,0,14,14,14,1,175,60,,,,,,,,
,,615fe53328089522ce2661ed,65af5603f1fd1b2813087bd0,2024-01-23_08h01.25.553,bars,2023.2.3,Win32,56.81818182,657b66ea316d21385b68909f,,,,,,,,,,,602.6796,603.6771,,,604.1721,604.4221,,107,107,,,,,,,,,,,,,,,,bars/026.png,bars/mask008.png,,,,,,,,,,,,2,2,,,,,,,0,7,1,7,,,,,,,,,,,603.6771,604.1721,604.4221,608.0039,space,3.5649,,608.0039,72,22,608.9911,608.9911,611.9342,space,2.9223,,0,15,15,15,1,35,85,,,,,,,,
,,615fe53328089522ce2661ed,65af5603f1fd1b2813087bd0,2024-01-23_08h01.25.553,bars,2023.2.3,Win32,56.81818182,657b66ea316d21385b68909f,,,,,,,,,,,611.9401,612.9364,,,613.4293,613.6768,,19,19,,,,,,,,,,,,,,,,bars/035.png,bars/mask006.png,,,,,,,,,,,,0,1,,,,,,,0,9,2,6,,,,,,,,,,,612.9364,613.4293,613.6768,615.6905,space,2.0062,,615.6905,24,41,616.6935,616.6935,619.7791,space,3.0769,,0,16,16,16,1,175,60,,,,,,,,
,,615fe53328089522ce2661ed,65af5603f1fd1b2813087bd0,2024-01-23_08h01.25.553,bars,2023.2.3,Win32,56.81818182,657b66ea316d21385b68909f,,,,,,,,,,,619.7848,620.7846,,,621.2779,621.5237,,124,124,,,,,,,,,,,,,,,,bars/024.png,bars/mask006.png,,,,,,,,,,,,2,1,,,,,,,2,7,2,7,,,,,,,,,,,620.7847,621.2778,621.5238,624.713,space,3.1749,,624.7131,4,46,625.7176,625.7176,628.4642,space,2.7318,,0,17,17,17,1,120,170,,,,,,,,
,,615fe53328089522ce2661ed,65af5603f1fd1b2813087bd0,2024-01-23_08h01.25.553,bars,2023.2.3,Win32,56.81818182,657b66ea316d21385b68909f,,,,,,,,,,,628.4645,629.4642,,,629.96,630.2064,,27,27,,,,,,,,,,,,,,,,bars/026.png,bars/mask004.png,,,,,,,,,,,,0,1,,,,,,,0,5,0,4,,,,,,,,,,,629.4642,629.9599,630.2064,636.4673,space,6.2453,,636.4674,8,58,637.4699,637.4699,639.1394,space,1.6517,,0,18,18,18,1,35,85,,,,,,,,
,,615fe53328089522ce2661ed,65af5603f1fd1b2813087bd0,2024-01-23_08h01.25.553,bars,2023.2.3,Win32,56.81818182,657b66ea316d21385b68909f,,,,,,,,,,,639.1397,640.1439,,,640.6381,640.8859,,31,211,,,,,,,,,,,,,,,,bars/047.png,bars/mask002.png,,,,,,,,,,,,0,1,,,,,,,2,7,1,8,,,,,,,,,,,640.1439,640.638,640.8859,645.4667,space,4.5755,,645.4667,16,39,646.457,646.457,649.1832,space,2.7031,,0,19,19,19,1,15,70,,,,,,,,
,,615fe53328089522ce2661ed,65af5603f1fd1b2813087bd0,2024-01-23_08h01.25.553,bars,2023.2.3,Win32,56.81818182,657b66ea316d21385b68909f,,,,,,,,,,,649.1834,650.1738,,,650.6649,650.9097,,152,-28,,,,,,,,,,,,,,,,bars/038.png,bars/mask004.png,,,,,,,,,,,,0,1,,,,,,,0,5,0,5,,,,,,,,,,,650.1738,650.6648,650.9098,656.5995,space,5.6775,,656.5995,13,82,657.5881,657.5882,659.7039,space,2.0927,,0,20,20,20,1,165,70,,,,,,,,
,,615fe53328089522ce2661ed,65af5603f1fd1b2813087bd0,2024-01-23_08h01.25.553,bars,2023.2.3,Win32,56.81818182,657b66ea316d21385b68909f,,,,,,,,,,,659.7041,660.7065,,,661.2028,661.4509,,127,127,,,,,,,,,,,,,,,,bars/002.png,bars/mask009.png,,,,,,,,,,,,2,1,,,,,,,2,3,2,4,,,,,,,,,,,660.7066,661.2028,661.4509,668.1495,space,6.6826,,668.1495,3,42,669.1498,669.1498,674.1439,space,4.9805,,0,21,21,21,1,130,85,,,,,,,,
,,615fe53328089522ce2661ed,65af5603f1fd1b2813087bd0,2024-01-23_08h01.25.553,bars,2023.2.3,Win32,56.81818182,657b66ea316d21385b68909f,,,,,,,,,,,674.1494,675.1498,,,675.6453,675.8967,,48,48,,,,,,,,,,,,,,,,bars/026.png,bars/mask009.png,,,,,,,,,,,,2,1,,,,,,,4,5,3,4,,,,,,,,,,,675.1498,675.6451,675.8968,682.4983,space,6.5933,,682.4984,13,37,683.4878,683.4878,690.1584,space,6.6601,,0,22,22,22,1,35,85,,,,,,,,
,,615fe53328089522ce2661ed,65af5603f1fd1b2813087bd0,2024-01-23_08h01.25.553,bars,2023.2.3,Win32,56.81818182,657b66ea316d21385b68909f,,,,,,,,,,,690.164,691.1606,,,691.6553,691.901,,127,127,,,,,,,,,,,,,,,,bars/024.png,bars/mask001.png,,,,,,,,,,,,4,1,,,,,,,6,3,5,2,,,,,,,,,,,691.1607,691.6553,691.901,694.1078,space,2.1948,,694.1078,7,43,695.108,695.108,696.3434,space,1.2212,,0,23,23,23,1,120,170,,,,,,,,
,,615fe53328089522ce2661ed,65af5603f1fd1b2813087bd0,2024-01-23_08h01.25.553,bars,2023.2.3,Win32,56.81818182,657b66ea316d21385b68909f,,,,,,,,,,,696.3435,697.3329,,,697.8257,698.0733,,140,-40,,,,,,,,,,,,,,,,bars/037.png,bars/mask009.png,,,,,,,,,,,,3,1,,,,,,,4,1,4,3,,,,,,,,,,,697.3329,697.8256,698.0734,703.4025,space,5.3137,,703.4026,10,35,704.406,704.406,713.7429,space,9.3231,,0,24,24,24,1,150,105,,,,,,,,
,,615fe53328089522ce2661ed,65af5603f1fd1b2813087bd0,2024-01-23_08h01.25.553,bars,2023.2.3,Win32,56.81818182,657b66ea316d21385b68909f,,,,,,,,,,,713.7488,714.744,,,715.2377,715.4842,,127,127,,,,,,,,,,,,,,,,bars/036.png,bars/mask000.png,,,,,,,,,,,,0,1,,,,,,,2,0,1,0,,,,,,,,,,,714.744,715.2376,715.4842,718.4914,space,2.9902,,718.4915,18,73,719.4788,719.4788,720.7825,space,1.2941,,0,25,25,25,1,145,20,,,,,,,,
,,615fe53328089522ce2661ed,65af5603f1fd1b2813087bd0,2024-01-23_08h01.25.553,bars,2023.2.3,Win32,56.81818182,657b66ea316d21385b68909f,,,,,,,,,,,720.7827,721.7856,,,722.2797,722.5254,,37,37,,,,,,,,,,,,,,,,bars/028.png,bars/mask004.png,,,,,,,,,,,,1,1,,,,,,,0,0,1,1,,,,,,,,,,,721.7856,722.2797,722.5255,725.0546,space,2.5089,,725.0546,8,83,726.042,726.042,727.8043,space,1.7521,,0,26,26,26,1,45,120,,,,,,,,
,,615fe53328089522ce2661ed,65af5603f1fd1b2813087bd0,2024-01-23_08h01.25.553,bars,2023.2.3,Win32,56.81818182,657b66ea316d21385b68909f,,,,,,,,,,,727.8046,728.7914,,,729.2891,729.5364,,51,231,,,,,,,,,,,,,,,,bars/028.png,bars/mask009.png,,,,,,,,,,,,1,1,,,,,,,0,0,1,0,,,,,,,,,,,728.7915,729.2891,729.5364,735.4619,space,5.9149,,735.4619,6,69,736.4661,736.4662,738.885,space,2.4027,,0,27,27,27,1,45,120,,,,,,,,
,,615fe53328089522ce2661ed,65af5603f1fd1b2813087bd0,2024-01-23_08h01.25.553,bars,2023.2.3,Win32,56.81818182,657b66ea316d21385b68909f,,,,,,,,,,,738.8852,739.8726,,,740.367,740.6135,,158,158,,,,,,,,,,,,,,,,bars/016.png,bars/mask001.png,,,,,,,,,,,,0,2,,,,,,,0,0,0,0,,,,,,,,,,,739.8726,740.3669,740.6135,742.2465,space,1.6271,,742.2465,62,7,743.2361,743.2361,745.1588,space,1.9035,,0,28,28,28,1,40,165,,,,,,,,
,,615fe53328089522ce2661ed,65af5603f1fd1b2813087bd0,2024-01-23_08h01.25.553,bars,2023.2.3,Win32,56.81818182,657b66ea316d21385b68909f,,,,,,,,,,,745.159,746.1499,,,746.6441,746.8909,,7,7,,,,,,,,,,,,,,,,bars/032.png,bars/mask001.png,,,,,,,,,,,,1,2,,,,,,,0,2,0,2,,,,,,,,,,,746.1499,746.6441,746.891,755.9541,space,9.0459,,755.9542,62,13,756.9418,756.9418,758.0355,space,1.0723,,0,29,29,29,1,125,20,,,,,,,,
,,615fe53328089522ce2661ed,65af5603f1fd1b2813087bd0,2024-01-23_08h01.25.553,bars,2023.2.3,Win32,56.81818182,657b66ea316d21385b68909f,,,,,,,,,,,758.0359,759.026,,,759.5204,759.7686,,149,149,,,,,,,,,,,,,,,,bars/043.png,bars/mask005.png,,,,,,,,,,,,1,2,,,,,,,2,4,3,3,,,,,,,,,,,759.026,759.5204,759.7686,764.3155,space,4.5322,,764.3155,61,19,765.3036,765.3036,766.2223,space,0.8947,,0,30,30,30,1,30,130,,,,,,,,
,,615fe53328089522ce2661ed,65af5603f1fd1b2813087bd0,2024-01-23_08h01.25.553,bars,2023.2.3,Win32,56.81818182,657b66ea316d21385b68909f,,,,,,,,,,,766.2225,767.2096,,,767.7022,767.95,,19,19,,,,,,,,,,,,,,,,bars/012.png,bars/mask002.png,,,,,,,,,,,,2,2,,,,,,,4,2,4,2,,,,,,,,,,,767.2096,767.7021,767.95,771.7379,space,3.7845,,771.738,71,4,772.7266,772.7266,778.4448,space,5.7011,,0,31,31,31,1,90,15,,,,,,,,
,,615fe53328089522ce2661ed,65af5603f1fd1b2813087bd0,2024-01-23_08h01.25.553,bars,2023.2.3,Win32,56.81818182,657b66ea316d21385b68909f,,,,,,,,,,,778.4506,779.446,,,779.9372,780.1822,,34,34,,,,,,,,,,,,,,,,bars/031.png,bars/mask001.png,,,,,,,,,,,,4,2,,,,,,,6,4,6,4,,,,,,,,,,,779.446,779.9372,780.1822,783.7876,space,3.5959,,783.7876,86,1,784.7751,784.7751,786.8027,space,2.0122,,0,32,32,32,1,120,35,,,,,,,,
,,615fe53328089522ce2661ed,65af5603f1fd1b2813087bd0,2024-01-23_08h01.25.553,bars,2023.2.3,Win32,56.81818182,657b66ea316d21385b68909f,,,,,,,,,,,786.8029,787.7975,,,788.2956,788.5454,,64,64,,,,,,,,,,,,,,,,bars/002.png,bars/mask004.png,,,,,,,,,,,,2,2,,,,,,,8,6,7,5,,,,,,,,,,,787.7975,788.2956,788.5454,791.5189,space,2.9631,,791.5189,66,21,792.5062,792.5063,794.6588,space,2.1365,,0,33,33,33,1,130,85,,,,,,,,
,,615fe53328089522ce2661ed,65af5603f1fd1b2813087bd0,2024-01-23_08h01.25.553,bars,2023.2.3,Win32,56.81818182,657b66ea316d21385b68909f,,,,,,,,,,,794.6592,795.6633,,,796.156,796.402,,46,46,,,,,,,,,,,,,,,,bars/029.png,bars/mask002.png,,,,,,,,,,,,5,2,,,,,,,6,4,6,5,,,,,,,,,,,795.6634,796.156,796.402,800.3654,space,3.9469,,800.3654,44,1,801.3553,801.3553,804.3934,space,3.0154,,0,34,34,34,1,90,45,,,,,,,,
,,615fe53328089522ce2661ed,65af5603f1fd1b2813087bd0,2024-01-23_08h01.25.553,bars,2023.2.3,Win32,56.81818182,657b66ea316d21385b68909f,,,,,,,,,,,804.3937,805.3819,,,805.8772,806.1236,,24,24,,,,,,,,,,,,,,,,bars/007.png,bars/mask006.png,,,,,,,,,,,,0,1,,,,,,,8,2,7,3,,,,,,,,,,,805.3819,805.8772,806.1236,807.9864,space,1.8522,,807.9864,29,31,808.9893,808.9893,809.891,space,0.8813,,0,35,35,35,1,175,55,,,,,,,,
,,615fe53328089522ce2661ed,65af5603f1fd1b2813087bd0,2024-01-23_08h01.25.553,bars,2023.2.3,Win32,56.81818182,657b66ea316d21385b68909f,,,,,,,,,,,809.8913,810.8924,,,811.3849,811.6333,,145,145,,,,,,,,,,,,,,,,bars/005.png,bars/mask007.png,,,,,,,,,,,,0,2,,,,,,,6,0,7,0,,,,,,,,,,,810.8925,811.3849,811.6333,813.5889,space,1.9459,,813.5889,45,5,814.5922,814.5922,816.5527,space,1.9396,,0,36,36,36,1,10,140,,,,,,,,
,,615fe53328089522ce2661ed,65af5603f1fd1b2813087bd0,2024-01-23_08h01.25.553,bars,2023.2.3,Win32,56.81818182,657b66ea316d21385b68909f,,,,,,,,,,,816.5529,817.5418,,,818.0391,818.2846,,58,58,,,,,,,,,,,,,,,,bars/029.png,bars/mask009.png,,,,,,,,,,,,1,2,,,,,,,4,2,3,1,,,,,,,,,,,817.5418,818.0391,818.2846,823.6707,space,5.3747,,823.6707,32,13,824.6729,824.6729,828.7492,space,4.06,,0,37,37,37,1,90,45,,,,,,,,
,,615fe53328089522ce2661ed,65af5603f1fd1b2813087bd0,2024-01-23_08h01.25.553,bars,2023.2.3,Win32,56.81818182,657b66ea316d21385b68909f,,,,,,,,,,,828.7545,829.754,,,830.2451,830.4899,,113,113,,,,,,,,,,,,,,,,bars/024.png,bars/mask008.png,,,,,,,,,,,,1,1,,,,,,,2,4,1,4,,,,,,,,,,,829.754,830.2451,830.4899,832.4114,space,1.909,,832.4114,7,57,833.4021,833.4021,834.9682,space,1.5473,,0,38,38,38,1,120,170,,,,,,,,
,,615fe53328089522ce2661ed,65af5603f1fd1b2813087bd0,2024-01-23_08h01.25.553,bars,2023.2.3,Win32,56.81818182,657b66ea316d21385b68909f,,,,,,,,,,,834.9684,835.9692,,,836.4645,836.7123,,124,124,,,,,,,,,,,,,,,,bars/020.png,bars/mask003.png,,,,,,,,,,,,3,1,,,,,,,4,6,4,6,,,,,,,,,,,835.9692,836.4645,836.7123,839.5058,space,2.7869,,839.5058,9,46,840.509,840.509,841.8544,space,1.3325,,0,39,39,39,1,115,170,,,,,,,,
,,615fe53328089522ce2661ed,65af5603f1fd1b2813087bd0,2024-01-23_08h01.25.553,bars,2023.2.3,Win32,56.81818182,657b66ea316d21385b68909f,,,,,,,,,,,841.8546,842.8551,,,843.3478,843.5959,,43,43,,,,,,,,,,,,,,,,bars/043.png,bars/mask003.png,,,,,,,,,,,,1,1,,,,,,,2,4,2,2,,,,,,,,,,,842.8551,843.3478,843.5959,846.2153,space,2.6125,,846.2153,13,87,847.2104,847.2105,848.7016,space,1.4798,,0,40,40,40,1,30,130,,,,,,,,
,,615fe53328089522ce2661ed,65af5603f1fd1b2813087bd0,2024-01-23_08h01.25.553,bars,2023.2.3,Win32,56.81818182,657b66ea316d21385b68909f,,,,,,,,,,,848.7018,849.7035,,,850.1986,850.4456,,38,38,,,,,,,,,,,,,,,,bars/016.png,bars/mask003.png,,,,,,,,,,,,7,1,,,,,,,4,2,7,2,,,,,,,,,,,849.7035,850.1986,850.4456,855.1181,space,4.6678,,855.1182,2,53,856.1055,856.1056,861.5197,space,5.4037,,0,41,41,41,1,40,165,,,,,,,,
,,615fe53328089522ce2661ed,65af5603f1fd1b2813087bd0,2024-01-23_08h01.25.553,bars,2023.2.3,Win32,56.81818182,657b66ea316d21385b68909f,,,,,,,,,,,861.5249,862.5272,,,863.0206,863.2682,,128,308,,,,,,,,,,,,,,,,bars/028.png,bars/mask000.png,,,,,,,,,,,,4,2,,,,,,,6,4,7,5,,,,,,,,,,,862.5272,863.0206,863.2682,870.0226,space,6.7509,,870.0226,83,8,871.0238,871.0238,872.5568,space,1.5188,,0,42,42,42,1,45,120,,,,,,,,
,,615fe53328089522ce2661ed,65af5603f1fd1b2813087bd0,2024-01-23_08h01.25.553,bars,2023.2.3,Win32,56.81818182,657b66ea316d21385b68909f,,,,,,,,,,,872.557,873.5579,,,874.0528,874.3007,,104,104,,,,,,,,,,,,,,,,bars/022.png,bars/mask008.png,,,,,,,,,,,,3,1,,,,,,,4,2,4,3,,,,,,,,,,,873.5579,874.0528,874.3007,877.3792,space,3.0637,,877.3792,9,84,878.3729,878.3729,879.7402,space,1.3567,,0,43,43,43,1,95,20,,,,,,,,
,,615fe53328089522ce2661ed,65af5603f1fd1b2813087bd0,2024-01-23_08h01.25.553,bars,2023.2.3,Win32,56.81818182,657b66ea316d21385b68909f,,,,,,,,,,,879.7404,880.7426,,,881.2345,881.48,,83,83,,,,,,,,,,,,,,,,bars/023.png,bars/mask003.png,,,,,,,,,,,,0,2,,,,,,,6,0,5,1,,,,,,,,,,,880.7426,881.2345,881.48,885.1315,space,3.637,,885.1316,63,32,886.1322,886.1322,904.286,space,18.1301,,0,44,44,44,1,20,115,,,,,,,,
,,615fe53328089522ce2661ed,65af5603f1fd1b2813087bd0,2024-01-23_08h01.25.553,bars,2023.2.3,Win32,56.81818182,657b66ea316d21385b68909f,,,,,,,,,,,904.2921,905.2873,,,905.7834,906.0284,,139,139,,,,,,,,,,,,,,,,bars/037.png,bars/mask000.png,,,,,,,,,,,,2,1,,,,,,,4,0,3,0,,,,,,,,,,,905.2873,905.7834,906.0284,912.164,space,6.1291,,912.164,11,34,913.1631,913.1631,922.5534,space,9.3779,,0,45,45,45,1,150,105,,,,,,,,
,,615fe53328089522ce2661ed,65af5603f1fd1b2813087bd0,2024-01-23_08h01.25.553,bars,2023.2.3,Win32,56.81818182,657b66ea316d21385b68909f,,,,,,,,,,,922.5594,923.5576,,,924.0522,924.2992,,158,158,,,,,,,,,,,,,,,,bars/005.png,bars/mask003.png,,,,,,,,,,,,0,2,,,,,,,6,2,6,1,,,,,,,,,,,923.5577,924.0522,924.2992,926.5047,space,2.2009,,926.5048,32,18,927.5006,927.5006,929.1077,space,1.59,,0,46,46,46,1,10,140,,,,,,,,
,,615fe53328089522ce2661ed,65af5603f1fd1b2813087bd0,2024-01-23_08h01.25.553,bars,2023.2.3,Win32,56.81818182,657b66ea316d21385b68909f,,,,,,,,,,,929.1079,930.1086,,,930.6014,930.8463,,138,138,,,,,,,,,,,,,,,,bars/004.png,bars/mask006.png,,,,,,,,,,,,3,2,,,,,,,4,4,3,5,,,,,,,,,,,930.1086,930.6014,930.8464,936.5148,space,5.6536,,936.5148,67,13,937.5195,937.5196,939.9825,space,2.4434,,0,47,47,47,1,25,125,,,,,,,,
,,615fe53328089522ce2661ed,65af5603f1fd1b2813087bd0,2024-01-23_08h01.25.553,bars,2023.2.3,Win32,56.81818182,657b66ea316d21385b68909f,,,,,,,,,,,939.9827,940.985,,,941.4794,941.729,,105,105,,,,,,,,,,,,,,,,bars/022.png,bars/mask009.png,,,,,,,,,,,,1,1,,,,,,,2,2,2,3,,,,,,,,,,,940.985,941.4794,941.729,946.3936,space,4.6604,,946.3937,10,85,947.3974,947.3974,949.5652,space,2.1475,,0,48,48,48,1,95,20,,,,,,,,
,,615fe53328089522ce2661ed,65af5603f1fd1b2813087bd0,2024-01-23_08h01.25.553,bars,2023.2.3,Win32,56.81818182,657b66ea316d21385b68909f,,,,,,,,,,,949.5654,950.5663,,,951.061,951.3068,,106,106,,,,,,,,,,,,,,,,bars/019.png,bars/mask007.png,,,,,,,,,,,,0,2,,,,,,,0,0,0,0,,,,,,,,,,,950.5663,951.061,951.3068,952.8596,space,1.5478,,952.8596,61,1,953.8508,953.8508,989.2553,space,35.3924,,0,49,49,49,1,45,105,,,,,,,,
,,615fe53328089522ce2661ed,65af5603f1fd1b2813087bd0,2024-01-23_08h01.25.553,bars,2023.2.3,Win32,56.81818182,657b66ea316d21385b68909f,,,,,,,,,,,,,,,,,,,,,,,,,,,,,,,,,,,,,,,,,,,,,,,,,,,,,,,,,,,,,,,,,,,,,,,,,,,,,,,,,,,,,,,,,,,,,989.2605,1049.2543,0,0,0,0,1,sequence_tables/blk014.csv
,,615fe53328089522ce2661ed,65af5603f1fd1b2813087bd0,2024-01-23_08h01.25.553,bars,2023.2.3,Win32,56.81818182,657b66ea316d21385b68909f,,,,,,,,,,,1087.2356,1088.2331,,,1088.7324,1088.9792,,122,122,,,,,,,,,,,,,,,,bars/004.png,bars/mask002.png,,,,,,,,,,,,5,2,,,,,,,8,4,8,5,,,,,,1049.2612,1087.2283,space,37.9605,,1088.2331,1088.7323,1088.9792,1090.9757,space,1.9865,,1090.9757,83,3,1091.9782,1091.9782,1091.9835,,,,0,0,0,0,1,25,125,,,,,,,,
,,615fe53328089522ce2661ed,65af5603f1fd1b2813087bd0,2024-01-23_08h01.25.553,bars,2023.2.3,Win32,56.81818182,657b66ea316d21385b68909f,,,,,,,,,,,1091.9835,1092.9856,,,1093.4788,1093.7248,,134,134,,,,,,,,,,,,,,,,bars/013.png,bars/mask008.png,,,,,,,,,,,,0,2,,,,,,,10,6,10,8,,,,,,,,,,,1092.9856,1093.4787,1093.7249,1096.073,space,2.3422,,1096.073,59,56,1097.0605,1097.0605,1097.0611,,,,0,1,1,1,1,75,10,,,,,,,,
,,615fe53328089522ce2661ed,65af5603f1fd1b2813087bd0,2024-01-23_08h01.25.553,bars,2023.2.3,Win32,56.81818182,657b66ea316d21385b68909f,,,,,,,,,,,1097.0612,1098.0644,,,1098.5601,1098.807,,116,116,,,,,,,,,,,,,,,,bars/015.png,bars/mask009.png,,,,,,,,,,,,8,1,,,,,,,10,4,10,5,,,,,,,,,,,1098.0644,1098.5601,1098.807,1102.6512,space,3.83,,1102.6513,6,44,1103.6443,1103.6443,1103.6505,,,,0,2,2,2,1,110,160,,,,,,,,
,,615fe53328089522ce2661ed,65af5603f1fd1b2813087bd0,2024-01-23_08h01.25.553,bars,2023.2.3,Win32,56.81818182,657b66ea316d21385b68909f,,,,,,,,,,,1103.6506,1104.6463,,,1105.145,1105.3925,,130,130,,,,,,,,,,,,,,,,bars/024.png,bars/mask001.png,,,,,,,,,,,,5,1,,,,,,,8,6,8,5,,,,,,,,,,,1104.6463,1105.145,1105.3925,1108.9892,space,3.5795,,1108.9892,10,40,1109.988,1109.988,1109.9937,,,,0,3,3,3,1,120,170,,,,,,,,
,,615fe53328089522ce2661ed,65af5603f1fd1b2813087bd0,2024-01-23_08h01.25.553,bars,2023.2.3,Win32,56.81818182,657b66ea316d21385b68909f,,,,,,,,,,,1109.9939,1110.993,,,1111.4863,1111.7329,,119,119,,,,,,,,,,,,,,,,bars/002.png,bars/mask003.png,,,,,,,,,,,,6,1,,,,,,,10,8,10,9,,,,,,,,,,,1110.993,1111.4863,1111.7329,1114.759,space,3.0157,,1114.759,11,34,1115.7484,1115.7484,1115.7542,,,,0,4,4,4,1,130,85,,,,,,,,
,,615fe53328089522ce2661ed,65af5603f1fd1b2813087bd0,2024-01-23_08h01.25.553,bars,2023.2.3,Win32,56.81818182,657b66ea316d21385b68909f,,,,,,,,,,,1115.7543,1116.7486,,,1117.2388,1117.4844,,113,113,,,,,,,,,,,,,,,,bars/025.png,bars/mask005.png,,,,,,,,,,,,6,1,,,,,,,8,10,8,10,,,,,,,,,,,1116.7486,1117.2388,1117.4844,1120.0977,space,2.6054,,1120.0977,8,73,1121.0844,1121.0844,1121.0904,,,,0,5,5,5,1,105,40,,,,,,,,
,,615fe53328089522ce2661ed,65af5603f1fd1b2813087bd0,2024-01-23_08h01.25.553,bars,2023.2.3,Win32,56.81818182,657b66ea316d21385b68909f,,,,,,,,,,,1121.0906,1122.0863,,,1122.581,1122.8293,,34,34,,,,,,,,,,,,,,,,bars/007.png,bars/mask002.png,,,,,,,,,,,,3,2,,,,,,,10,10,10,10,,,,,,,,,,,1122.0863,1122.581,1122.8293,1127.2109,space,4.3644,,1127.2109,39,21,1128.198,1128.198,1128.2047,,,,0,6,6,6,1,175,55,,,,,,,,
,,615fe53328089522ce2661ed,65af5603f1fd1b2813087bd0,2024-01-23_08h01.25.553,bars,2023.2.3,Win32,56.81818182,657b66ea316d21385b68909f,,,,,,,,,,,1128.2048,1129.2054,,,1129.6993,1129.9455,,32,32,,,,,,,,,,,,,,,,bars/016.png,bars/mask007.png,,,,,,,,,,,,5,1,,,,,,,8,10,7,10,,,,,,,,,,,1129.2054,1129.6993,1129.9455,1134.6967,space,4.7475,,1134.6967,8,47,1135.7003,1135.7003,1135.7066,,,,0,7,7,7,1,40,165,,,,,,,,
,,615fe53328089522ce2661ed,65af5603f1fd1b2813087bd0,2024-01-23_08h01.25.553,bars,2023.2.3,Win32,56.81818182,657b66ea316d21385b68909f,,,,,,,,,,,1135.7068,1136.702,,,1137.1965,1137.4441,,139,139,,,,,,,,,,,,,,,,bars/018.png,bars/mask008.png,,,,,,,,,,,,4,1,,,,,,,6,10,6,10,,,,,,,,,,,1136.702,1137.1965,1137.4441,1141.4959,space,4.0374,,1141.4959,11,49,1142.4832,1142.4833,1142.4894,,,,0,8,8,8,1,150,90,,,,,,,,
,,615fe53328089522ce2661ed,65af5603f1fd1b2813087bd0,2024-01-23_08h01.25.553,bars,2023.2.3,Win32,56.81818182,657b66ea316d21385b68909f,,,,,,,,,,,1142.4896,1143.4894,,,1143.9839,1144.231,,54,54,,,,,,,,,,,,,,,,bars/019.png,bars/mask003.png,,,,,,,,,,,,6,1,,,,,,,8,8,8,8,,,,,,,,,,,1143.4894,1143.9839,1144.231,1147.4855,space,3.2395,,1147.4855,9,51,1148.4904,1148.4905,1148.4967,,,,0,9,9,9,1,45,105,,,,,,,,
,,615fe53328089522ce2661ed,65af5603f1fd1b2813087bd0,2024-01-23_08h01.25.553,bars,2023.2.3,Win32,56.81818182,657b66ea316d21385b68909f,,,,,,,,,,,1148.4968,1149.493,,,1149.9862,1150.2328,,118,118,,,,,,,,,,,,,,,,bars/024.png,bars/mask000.png,,,,,,,,,,,,4,1,,,,,,,6,10,4,10,,,,,,,,,,,1149.493,1149.9862,1150.2328,1152.557,space,2.3065,,1152.557,2,52,1153.5448,1153.5448,1153.5504,,,,0,10,10,10,1,120,170,,,,,,,,
,,615fe53328089522ce2661ed,65af5603f1fd1b2813087bd0,2024-01-23_08h01.25.553,bars,2023.2.3,Win32,56.81818182,657b66ea316d21385b68909f,,,,,,,,,,,1153.5505,1154.548,,,1155.0403,1155.2848,,123,123,,,,,,,,,,,,,,,,bars/020.png,bars/mask005.png,,,,,,,,,,,,2,1,,,,,,,4,8,3,10,,,,,,,,,,,1154.5481,1155.0403,1155.2848,1158.4977,space,3.2,,1158.4978,8,47,1159.5014,1159.5014,1159.5071,,,,0,11,11,11,1,115,170,,,,,,,,
,,615fe53328089522ce2661ed,65af5603f1fd1b2813087bd0,2024-01-23_08h01.25.553,bars,2023.2.3,Win32,56.81818182,657b66ea316d21385b68909f,,,,,,,,,,,1159.5072,1160.5046,,,1161.0033,1161.251,,46,226,,,,,,,,,,,,,,,,bars/007.png,bars/mask006.png,,,,,,,,,,,,4,2,,,,,,,6,6,6,5,,,,,,,,,,,1160.5046,1161.0033,1161.251,1168.1733,space,6.9133,,1168.1733,51,9,1169.1627,1169.1628,1169.1694,,,,0,12,12,12,1,175,55,,,,,,,,
,,615fe53328089522ce2661ed,65af5603f1fd1b2813087bd0,2024-01-23_08h01.25.553,bars,2023.2.3,Win32,56.81818182,657b66ea316d21385b68909f,,,,,,,,,,,1169.1695,1170.1689,,,1170.6609,1170.908,,141,141,,,,,,,,,,,,,,,,bars/011.png,bars/mask006.png,,,,,,,,,,,,3,1,,,,,,,8,8,7,7,,,,,,,,,,,1170.1689,1170.6609,1170.908,1176.8462,space,5.9221,,1176.8463,19,56,1177.8381,1177.8381,1177.8445,,,,0,13,13,13,1,160,85,,,,,,,,
,,615fe53328089522ce2661ed,65af5603f1fd1b2813087bd0,2024-01-23_08h01.25.553,bars,2023.2.3,Win32,56.81818182,657b66ea316d21385b68909f,,,,,,,,,,,1177.8446,1178.8476,,,1179.3453,1179.5942,,148,148,,,,,,,,,,,,,,,,bars/011.png,bars/mask007.png,,,,,,,,,,,,4,1,,,,,,,6,10,6,10,,,,,,,,,,,1178.8476,1179.3453,1179.5943,1183.1548,space,3.5429,,1183.1549,12,63,1184.1589,1184.1589,1184.1649,,,,0,14,14,14,1,160,85,,,,,,,,
,,615fe53328089522ce2661ed,65af5603f1fd1b2813087bd0,2024-01-23_08h01.25.553,bars,2023.2.3,Win32,56.81818182,657b66ea316d21385b68909f,,,,,,,,,,,1184.1651,1185.163,,,1185.6572,1185.9043,,54,-126,,,,,,,,,,,,,,,,bars/029.png,bars/mask000.png,,,,,,,,,,,,7,2,,,,,,,4,10,5,10,,,,,,,,,,,1185.163,1185.6571,1185.9043,1193.0647,space,7.1566,,1193.0647,36,9,1194.0561,1194.0562,1194.063,,,,0,15,15,15,1,90,45,,,,,,,,
,,615fe53328089522ce2661ed,65af5603f1fd1b2813087bd0,2024-01-23_08h01.25.553,bars,2023.2.3,Win32,56.81818182,657b66ea316d21385b68909f,,,,,,,,,,,1194.0632,1195.0593,,,1195.5513,1195.7957,,148,148,,,,,,,,,,,,,,,,bars/000.png,bars/mask003.png,,,,,,,,,,,,6,2,,,,,,,2,8,3,7,,,,,,,,,,,1195.0593,1195.5513,1195.7957,1198.2416,space,2.4391,,1198.2416,72,3,1199.2292,1199.2292,1199.2296,,,,0,16,16,16,1,40,145,,,,,,,,
,,615fe53328089522ce2661ed,65af5603f1fd1b2813087bd0,2024-01-23_08h01.25.553,bars,2023.2.3,Win32,56.81818182,657b66ea316d21385b68909f,,,,,,,,,,,1199.2298,1200.217,,,1200.7111,1200.9575,,127,127,,,,,,,,,,,,,,,,bars/023.png,bars/mask009.png,,,,,,,,,,,,4,2,,,,,,,4,6,4,7,,,,,,,,,,,1200.217,1200.7111,1200.9575,1204.683,space,3.723,,1204.683,73,12,1205.6853,1205.6853,1205.6906,,,,0,17,17,17,1,20,115,,,,,,,,
,,615fe53328089522ce2661ed,65af5603f1fd1b2813087bd0,2024-01-23_08h01.25.553,bars,2023.2.3,Win32,56.81818182,657b66ea316d21385b68909f,,,,,,,,,,,1205.6908,1206.6844,,,1207.1785,1207.4231,,124,124,,,,,,,,,,,,,,,,bars/036.png,bars/mask006.png,,,,,,,,,,,,2,1,,,,,,,6,4,6,5,,,,,,,,,,,1206.6844,1207.1785,1207.4232,1213.645,space,6.209,,1213.645,21,76,1214.6436,1214.6436,1214.6504,,,,0,18,18,18,1,145,20,,,,,,,,
,,615fe53328089522ce2661ed,65af5603f1fd1b2813087bd0,2024-01-23_08h01.25.553,bars,2023.2.3,Win32,56.81818182,657b66ea316d21385b68909f,,,,,,,,,,,1214.6505,1215.6478,,,1216.1439,1216.391,,34,214,,,,,,,,,,,,,,,,bars/048.png,bars/mask006.png,,,,,,,,,,,,1,1,,,,,,,4,2,3,3,,,,,,,,,,,1215.6478,1216.1438,1216.391,1219.1337,space,2.7388,,1219.1337,16,39,1220.1232,1220.1232,1220.1291,,,,0,19,19,19,1,50,175,,,,,,,,
,,615fe53328089522ce2661ed,65af5603f1fd1b2813087bd0,2024-01-23_08h01.25.553,bars,2023.2.3,Win32,56.81818182,657b66ea316d21385b68909f,,,,,,,,,,,1220.1292,1221.1287,,,1221.6234,1221.8708,,135,-45,,,,,,,,,,,,,,,,bars/021.png,bars/mask007.png,,,,,,,,,,,,0,1,,,,,,,2,0,1,0,,,,,,,,,,,1221.1287,1221.6234,1221.8708,1226.7687,space,4.8825,,1226.7687,20,65,1227.7674,1227.7674,1227.7731,,,,0,20,20,20,1,155,70,,,,,,,,
,,615fe53328089522ce2661ed,65af5603f1fd1b2813087bd0,2024-01-23_08h01.25.553,bars,2023.2.3,Win32,56.81818182,657b66ea316d21385b68909f,,,,,,,,,,,1227.7732,1228.7771,,,1229.2707,1229.5178,,107,-73,,,,,,,,,,,,,,,,bars/002.png,bars/mask009.png,,,,,,,,,,,,0,2,,,,,,,4,0,5,0,,,,,,,,,,,1228.7771,1229.2707,1229.5179,1235.9185,space,6.394,,1235.9185,23,22,1236.9212,1236.9213,1236.9281,,,,0,21,21,21,1,130,85,,,,,,,,
,,615fe53328089522ce2661ed,65af5603f1fd1b2813087bd0,2024-01-23_08h01.25.553,bars,2023.2.3,Win32,56.81818182,657b66ea316d21385b68909f,,,,,,,,,,,1236.9283,1237.9245,,,1238.4166,1238.661,,161,161,,,,,,,,,,,,,,,,bars/008.png,bars/mask005.png,,,,,,,,,,,,0,2,,,,,,,6,0,5,0,,,,,,,,,,,1237.9245,1238.4165,1238.6611,1242.1319,space,3.461,,1242.1319,51,19,1243.1358,1243.1358,1243.142,,,,0,22,22,22,1,110,0,,,,,,,,
,,615fe53328089522ce2661ed,65af5603f1fd1b2813087bd0,2024-01-23_08h01.25.553,bars,2023.2.3,Win32,56.81818182,657b66ea316d21385b68909f,,,,,,,,,,,1243.1421,1244.1373,,,1244.6305,1244.8776,,149,-31,,,,,,,,,,,,,,,,bars/049.png,bars/mask000.png,,,,,,,,,,,,5,1,,,,,,,8,0,8,0,,,,,,,,,,,1244.1373,1244.6304,1244.8776,1249.0882,space,4.2037,,1249.0882,11,34,1250.0778,1250.0778,1250.0839,,,,0,23,23,23,1,160,115,,,,,,,,
,,615fe53328089522ce2661ed,65af5603f1fd1b2813087bd0,2024-01-23_08h01.25.553,bars,2023.2.3,Win32,56.81818182,657b66ea316d21385b68909f,,,,,,,,,,,1250.084,1251.0822,,,1251.5804,1251.8267,,146,-34,,,,,,,,,,,,,,,,bars/048.png,bars/mask004.png,,,,,,,,,,,,0,2,,,,,,,10,0,10,2,,,,,,,,,,,1251.0822,1251.5804,1251.8268,1257.4223,space,5.5809,,1257.4223,84,29,1258.4245,1258.4245,1258.4311,,,,0,24,24,24,1,50,175,,,,,,,,
,,615fe53328089522ce2661ed,65af5603f1fd1b2813087bd0,2024-01-23_08h01.25.553,bars,2023.2.3,Win32,56.81818182,657b66ea316d21385b68909f,,,,,,,,,,,1258.4312,1259.4278,,,1259.9209,1260.1664,,21,21,,,,,,,,,,,,,,,,bars/016.png,bars/mask007.png,,,,,,,,,,,,4,1,,,,,,,10,2,10,3,,,,,,,,,,,1259.4278,1259.9209,1260.1664,1265.8577,space,5.6786,,1265.8577,19,36,1266.8466,1266.8467,1266.8534,,,,0,25,25,25,1,40,165,,,,,,,,
,,615fe53328089522ce2661ed,65af5603f1fd1b2813087bd0,2024-01-23_08h01.25.553,bars,2023.2.3,Win32,56.81818182,657b66ea316d21385b68909f,,,,,,,,,,,1266.8535,1267.8511,,,1268.3463,1268.5942,,37,217,,,,,,,,,,,,,,,,bars/025.png,bars/mask005.png,,,,,,,,,,,,3,2,,,,,,,8,4,7,3,,,,,,,,,,,1267.8511,1268.3463,1268.5942,1273.752,space,5.144,,1273.7521,68,3,1274.7406,1274.7406,1274.7473,,,,0,26,26,26,1,105,40,,,,,,,,
,,615fe53328089522ce2661ed,65af5603f1fd1b2813087bd0,2024-01-23_08h01.25.553,bars,2023.2.3,Win32,56.81818182,657b66ea316d21385b68909f,,,,,,,,,,,1274.7474,1275.744,,,1276.2375,1276.4856,,134,134,,,,,,,,,,,,,,,,bars/049.png,bars/mask004.png,,,,,,,,,,,,1,2,,,,,,,6,2,7,2,,,,,,,,,,,1275.7441,1276.2375,1276.4856,1281.8112,space,5.309,,1281.8112,26,19,1282.8111,1282.8111,1282.8171,,,,0,27,27,27,1,160,115,,,,,,,,
,,615fe53328089522ce2661ed,65af5603f1fd1b2813087bd0,2024-01-23_08h01.25.553,bars,2023.2.3,Win32,56.81818182,657b66ea316d21385b68909f,,,,,,,,,,,1282.8172,1283.8167,,,1284.3108,1284.5575,,141,-39,,,,,,,,,,,,,,,,bars/038.png,bars/mask005.png,,,,,,,,,,,,1,1,,,,,,,4,0,3,1,,,,,,,,,,,1283.8167,1284.3108,1284.5575,1290.8202,space,6.2529,,1290.8202,24,71,1291.8188,1291.8188,1291.8254,,,,0,28,28,28,1,165,70,,,,,,,,
,,615fe53328089522ce2661ed,65af5603f1fd1b2813087bd0,2024-01-23_08h01.25.553,bars,2023.2.3,Win32,56.81818182,657b66ea316d21385b68909f,,,,,,,,,,,1291.8255,1292.8221,,,1293.3131,1293.5607,,134,134,,,,,,,,,,,,,,,,bars/020.png,bars/mask008.png,,,,,,,,,,,,2,1,,,,,,,6,2,6,1,,,,,,,,,,,1292.8221,1293.313,1293.5607,1297.7309,space,4.1566,,1297.7309,19,36,1298.733,1298.733,1298.739,,,,0,29,29,29,1,115,170,,,,,,,,
,,615fe53328089522ce2661ed,65af5603f1fd1b2813087bd0,2024-01-23_08h01.25.553,bars,2023.2.3,Win32,56.81818182,657b66ea316d21385b68909f,,,,,,,,,,,1298.7392,1299.7333,,,1300.2233,1300.4693,,136,-44,,,,,,,,,,,,,,,,bars/003.png,bars/mask006.png,,,,,,,,,,,,1,2,,,,,,,4,0,2,1,,,,,,,,,,,1299.7334,1300.2233,1300.4693,1307.4087,space,6.9233,,1307.4087,69,4,1308.3976,1308.3976,1308.4041,,,,0,30,30,30,1,25,140,,,,,,,,
,,615fe53328089522ce2661ed,65af5603f1fd1b2813087bd0,2024-01-23_08h01.25.553,bars,2023.2.3,Win32,56.81818182,657b66ea316d21385b68909f,,,,,,,,,,,1308.4042,1309.3995,,,1309.8928,1310.1396,,119,119,,,,,,,,,,,,,,,,bars/019.png,bars/mask005.png,,,,,,,,,,,,2,2,,,,,,,2,2,1,3,,,,,,,,,,,1309.3996,1309.8928,1310.1397,1315.1909,space,5.043,,1315.1909,74,14,1316.1927,1316.1927,1316.1986,,,,0,31,31,31,1,45,105,,,,,,,,
,,615fe53328089522ce2661ed,65af5603f1fd1b2813087bd0,2024-01-23_08h01.25.553,bars,2023.2.3,Win32,56.81818182,657b66ea316d21385b68909f,,,,,,,,,,,1316.1989,1317.196,,,1317.6891,1317.9368,,157,157,,,,,,,,,,,,,,,,bars/032.png,bars/mask004.png,,,,,,,,,,,,0,1,,,,,,,4,4,3,4,,,,,,,,,,,1317.196,1317.6891,1317.9368,1324.1404,space,6.1856,,1324.1404,32,43,1325.1412,1325.1412,1325.1472,,,,0,32,32,32,1,125,20,,,,,,,,
,,615fe53328089522ce2661ed,65af5603f1fd1b2813087bd0,2024-01-23_08h01.25.553,bars,2023.2.3,Win32,56.81818182,657b66ea316d21385b68909f,,,,,,,,,,,1325.1473,1326.1478,,,1326.6421,1326.8901,,126,126,,,,,,,,,,,,,,,,bars/024.png,bars/mask005.png,,,,,,,,,,,,3,1,,,,,,,6,6,4,4,,,,,,,,,,,1326.1479,1326.6421,1326.8902,1328.8287,space,1.9332,,1328.8288,6,44,1329.8164,1329.8164,1329.8221,,,,0,33,33,33,1,120,170,,,,,,,,
,,615fe53328089522ce2661ed,65af5603f1fd1b2813087bd0,2024-01-23_08h01.25.553,bars,2023.2.3,Win32,56.81818182,657b66ea316d21385b68909f,,,,,,,,,,,1329.8221,1330.8205,,,1331.3149,1331.5611,,151,151,,,,,,,,,,,,,,,,bars/020.png,bars/mask006.png,,,,,,,,,,,,3,2,,,,,,,4,8,4,8,,,,,,,,,,,1330.8206,1331.3149,1331.5611,1333.097,space,1.5251,,1333.097,36,19,1334.0842,1334.0843,1334.0911,,,,0,34,34,34,1,115,170,,,,,,,,
,,615fe53328089522ce2661ed,65af5603f1fd1b2813087bd0,2024-01-23_08h01.25.553,bars,2023.2.3,Win32,56.81818182,657b66ea316d21385b68909f,,,,,,,,,,,1334.0912,1335.0855,,,1335.5783,1335.8247,,33,33,,,,,,,,,,,,,,,,bars/013.png,bars/mask004.png,,,,,,,,,,,,2,2,,,,,,,2,10,1,9,,,,,,,,,,,1335.0855,1335.5783,1335.8247,1339.1967,space,3.3542,,1339.1967,42,23,1340.2009,1340.201,1340.207,,,,0,35,35,35,1,75,10,,,,,,,,
,,615fe53328089522ce2661ed,65af5603f1fd1b2813087bd0,2024-01-23_08h01.25.553,bars,2023.2.3,Win32,56.81818182,657b66ea316d21385b68909f,,,,,,,,,,,1340.2071,1341.2041,,,1341.6995,1341.9466,,33,33,,,,,,,,,,,,,,,,bars/033.png,bars/mask000.png,,,,,,,,,,,,2,1,,,,,,,4,8,3,8,,,,,,,,,,,1341.2041,1341.6995,1341.9466,1346.3525,space,4.3868,,1346.3525,8,58,1347.3503,1347.3504,1347.3562,,,,0,36,36,36,1,25,155,,,,,,,,
,,615fe53328089522ce2661ed,65af5603f1fd1b2813087bd0,2024-01-23_08h01.25.553,bars,2023.2.3,Win32,56.81818182,657b66ea316d21385b68909f,,,,,,,,,,,1347.3564,1348.357,,,1348.8547,1349.1046,,105,-75,,,,,,,,,,,,,,,,bars/034.png,bars/mask009.png,,,,,,,,,,,,1,1,,,,,,,2,6,2,5,,,,,,,,,,,1348.357,1348.8546,1349.1046,1354.8018,space,5.6814,,1354.8018,20,40,1355.7893,1355.7893,1355.7953,,,,0,37,37,37,1,125,65,,,,,,,,
,,615fe53328089522ce2661ed,65af5603f1fd1b2813087bd0,2024-01-23_08h01.25.553,bars,2023.2.3,Win32,56.81818182,657b66ea316d21385b68909f,,,,,,,,,,,1355.7955,1356.7926,,,1357.2845,1357.5299,,93,93,,,,,,,,,,,,,,,,bars/018.png,bars/mask002.png,,,,,,,,,,,,9,2,,,,,,,4,8,4,10,,,,,,,,,,,1356.7926,1357.2845,1357.5299,1359.9073,space,2.3664,,1359.9074,57,3,1360.896,1360.896,1360.9024,,,,0,38,38,38,1,150,90,,,,,,,,
,,615fe53328089522ce2661ed,65af5603f1fd1b2813087bd0,2024-01-23_08h01.25.553,bars,2023.2.3,Win32,56.81818182,657b66ea316d21385b68909f,,,,,,,,,,,1360.9025,1361.894,,,1362.3857,1362.6342,,154,-26,,,,,,,,,,,,,,,,bars/015.png,bars/mask002.png,,,,,,,,,,,,4,2,,,,,,,2,6,2,5,,,,,,,,,,,1361.894,1362.3856,1362.6342,1368.0953,space,5.4442,,1368.0954,44,6,1369.0844,1369.0844,1369.0901,,,,0,39,39,39,1,110,160,,,,,,,,
,,615fe53328089522ce2661ed,65af5603f1fd1b2813087bd0,2024-01-23_08h01.25.553,bars,2023.2.3,Win32,56.81818182,657b66ea316d21385b68909f,,,,,,,,,,,1369.0902,1370.0919,,,1370.5834,1370.8309,,83,83,,,,,,,,,,,,,,,,bars/046.png,bars/mask001.png,,,,,,,,,,,,7,2,,,,,,,4,8,2,7,,,,,,,,,,,1370.0919,1370.5834,1370.8309,1374.7984,space,3.9649,,1374.7984,72,2,1375.8018,1375.8018,1375.8078,,,,0,40,40,40,1,155,85,,,,,,,,
,,615fe53328089522ce2661ed,65af5603f1fd1b2813087bd0,2024-01-23_08h01.25.553,bars,2023.2.3,Win32,56.81818182,657b66ea316d21385b68909f,,,,,,,,,,,1375.808,1376.8047,,,1377.298,1377.5437,,93,93,,,,,,,,,,,,,,,,bars/041.png,bars/mask004.png,,,,,,,,,,,,7,2,,,,,,,6,10,5,10,,,,,,,,,,,1376.8047,1377.2979,1377.5438,1381.9332,space,4.3852,,1381.9332,73,8,1382.9217,1382.9218,1382.9279,,,,0,41,41,41,1,20,85,,,,,,,,
,,615fe53328089522ce2661ed,65af5603f1fd1b2813087bd0,2024-01-23_08h01.25.553,bars,2023.2.3,Win32,56.81818182,657b66ea316d21385b68909f,,,,,,,,,,,1382.928,1383.9249,,,1384.4159,1384.6633,,37,37,,,,,,,,,,,,,,,,bars/022.png,bars/mask004.png,,,,,,,,,,,,4,2,,,,,,,8,8,8,10,,,,,,,,,,,1383.9249,1384.4159,1384.6633,1389.6092,space,4.932,,1389.6092,58,17,1390.5969,1390.5969,1390.603,,,,0,42,42,42,1,95,20,,,,,,,,
,,615fe53328089522ce2661ed,65af5603f1fd1b2813087bd0,2024-01-23_08h01.25.553,bars,2023.2.3,Win32,56.81818182,657b66ea316d21385b68909f,,,,,,,,,,,1390.6031,1391.6001,,,1392.0956,1392.3445,,145,145,,,,,,,,,,,,,,,,bars/042.png,bars/mask002.png,,,,,,,,,,,,10,1,,,,,,,10,6,10,6,,,,,,,,,,,1391.6002,1392.0956,1392.3446,1398.6091,space,6.2552,,1398.6091,0,70,1399.6098,1399.6098,1399.6164,,,,0,43,43,43,1,145,75,,,,,,,,
,,615fe53328089522ce2661ed,65af5603f1fd1b2813087bd0,2024-01-23_08h01.25.553,bars,2023.2.3,Win32,56.81818182,657b66ea316d21385b68909f,,,,,,,,,,,1399.6166,1400.6178,,,1401.113,1401.3607,,140,-40,,,,,,,,,,,,,,,,bars/015.png,bars/mask007.png,,,,,,,,,,,,2,2,,,,,,,8,4,10,5,,,,,,,,,,,1400.6178,1401.113,1401.3607,1407.6712,space,6.2945,,1407.6712,30,20,1408.6613,1408.6613,1408.6677,,,,0,44,44,44,1,110,160,,,,,,,,
,,615fe53328089522ce2661ed,65af5603f1fd1b2813087bd0,2024-01-23_08h01.25.553,bars,2023.2.3,Win32,56.81818182,657b66ea316d21385b68909f,,,,,,,,,,,1408.6679,1409.6679,,,1410.1611,1410.4071,,69,69,,,,,,,,,,,,,,,,bars/044.png,bars/mask007.png,,,,,,,,,,,,6,1,,,,,,,6,2,7,2,,,,,,,,,,,1409.6679,1410.1611,1410.4071,1413.4746,space,3.0586,,1413.4746,6,86,1414.4786,1414.4786,1414.4852,,,,0,45,45,45,1,75,155,,,,,,,,
,,615fe53328089522ce2661ed,65af5603f1fd1b2813087bd0,2024-01-23_08h01.25.553,bars,2023.2.3,Win32,56.81818182,657b66ea316d21385b68909f,,,,,,,,,,,1414.4853,1415.4815,,,1415.9751,1416.2228,,139,139,,,,,,,,,,,,,,,,bars/037.png,bars/mask007.png,,,,,,,,,,,,3,1,,,,,,,4,0,5,0,,,,,,,,,,,1415.4815,1415.9751,1416.2228,1418.6705,space,2.4346,,1418.6705,11,34,1419.6594,1419.6594,1419.6655,,,,0,46,46,46,1,150,105,,,,,,,,
,,615fe53328089522ce2661ed,65af5603f1fd1b2813087bd0,2024-01-23_08h01.25.553,bars,2023.2.3,Win32,56.81818182,657b66ea316d21385b68909f,,,,,,,,,,,1419.6656,1420.6639,,,1421.1605,1421.4084,,65,65,,,,,,,,,,,,,,,,bars/044.png,bars/mask005.png,,,,,,,,,,,,1,1,,,,,,,2,2,2,2,,,,,,,,,,,1420.6639,1421.1604,1421.4084,1423.3007,space,1.8885,,1423.3007,10,90,1424.3037,1424.3037,1424.3098,,,,0,47,47,47,1,75,155,,,,,,,,
,,615fe53328089522ce2661ed,65af5603f1fd1b2813087bd0,2024-01-23_08h01.25.553,bars,2023.2.3,Win32,56.81818182,657b66ea316d21385b68909f,,,,,,,,,,,1424.3099,1425.3121,,,1425.8093,1426.0574,,145,145,,,,,,,,,,,,,,,,bars/017.png,bars/mask004.png,,,,,,,,,,,,1,1,,,,,,,0,4,1,5,,,,,,,,,,,1425.3121,1425.8093,1426.0575,1430.4421,space,4.3816,,1430.4421,0,80,1431.4456,1431.4456,1431.4514,,,,0,48,48,48,1,145,45,,,,,,,,
,,615fe53328089522ce2661ed,65af5603f1fd1b2813087bd0,2024-01-23_08h01.25.553,bars,2023.2.3,Win32,56.81818182,657b66ea316d21385b68909f,,,,,,,,,,,1431.4516,1432.4391,,,1432.9331,1433.1812,,94,94,,,,,,,,,,,,,,,,bars/029.png,bars/mask004.png,,,,,,,,,,,,3,1,,,,,,,2,2,3,2,,,,,,,,,,,1432.4391,1432.933,1433.1812,1436.8263,space,3.6292,,1436.8263,4,49,1437.8136,1437.8136,1437.8189,,,,0,49,49,49,1,90,45,,,,,,,,
,,615fe53328089522ce2661ed,65af5603f1fd1b2813087bd0,2024-01-23_08h01.25.553,bars,2023.2.3,Win32,56.81818182,657b66ea316d21385b68909f,,,,,,,,,,,,,,,,,,,,,,,,,,,,,,,,,,,,,,,,,,,,,,,,,,,,,,,,,,,,,,,,,,,,,,,,,,,,,,,,,,,,,,,,,,,,,1437.8189,1497.8165,0,1,1,1,1,sequence_tables/blk028.csv
,,615fe53328089522ce2661ed,65af5603f1fd1b2813087bd0,2024-01-23_08h01.25.553,bars,2023.2.3,Win32,56.81818182,657b66ea316d21385b68909f,,,,,,,,,,,1538.1792,1539.1789,,,1539.6728,1539.9193,,113,113,,,,,,,,,,,,,,,,bars/028.png,bars/mask008.png,,,,,,,,,,,,3,2,,,,,,,9,4,9,4,,,,,,1497.8227,1538.1709,space,40.3381,,1539.1789,1539.6728,1539.9194,1542.6365,space,2.7075,,1542.6366,68,7,1543.6405,1543.6405,1543.6465,,,,0,0,0,0,1,45,120,,,,,,,,
,,615fe53328089522ce2661ed,65af5603f1fd1b2813087bd0,2024-01-23_08h01.25.553,bars,2023.2.3,Win32,56.81818182,657b66ea316d21385b68909f,,,,,,,,,,,1543.6467,1544.647,,,1545.1388,1545.3879,,116,-64,,,,,,,,,,,,,,,,bars/034.png,bars/mask000.png,,,,,,,,,,,,5,1,,,,,,,7,2,7,0,,,,,,,,,,,1544.647,1545.1388,1545.388,1549.8618,space,4.468,,1549.8619,9,51,1550.8513,1550.8514,1550.8577,,,,0,1,1,1,1,125,65,,,,,,,,
,,615fe53328089522ce2661ed,65af5603f1fd1b2813087bd0,2024-01-23_08h01.25.553,bars,2023.2.3,Win32,56.81818182,657b66ea316d21385b68909f,,,,,,,,,,,1550.8578,1551.8544,,,1552.349,1552.5959,,120,120,,,,,,,,,,,,,,,,bars/012.png,bars/mask005.png,,,,,,,,,,,,0,1,,,,,,,9,0,8,1,,,,,,,,,,,1551.8544,1552.349,1552.5959,1554.0231,space,1.4246,,1554.0232,30,75,1555.0257,1555.0257,1555.0262,,,,0,2,2,2,1,90,15,,,,,,,,
,,615fe53328089522ce2661ed,65af5603f1fd1b2813087bd0,2024-01-23_08h01.25.553,bars,2023.2.3,Win32,56.81818182,657b66ea316d21385b68909f,,,,,,,,,,,1555.0265,1556.0157,,,1556.5079,1556.7531,,122,-58,,,,,,,,,,,,,,,,bars/018.png,bars/mask003.png,,,,,,,,,,,,1,1,,,,,,,7,2,8,2,,,,,,,,,,,1556.0157,1556.5079,1556.7531,1560.516,space,3.7515,,1560.516,28,32,1561.5065,1561.5066,1561.5123,,,,0,3,3,3,1,150,90,,,,,,,,
,,615fe53328089522ce2661ed,65af5603f1fd1b2813087bd0,2024-01-23_08h01.25.553,bars,2023.2.3,Win32,56.81818182,657b66ea316d21385b68909f,,,,,,,,,,,1561.5125,1562.5092,,,1563.0022,1563.2492,,152,152,,,,,,,,,,,,,,,,bars/003.png,bars/mask005.png,,,,,,,,,,,,2,2,,,,,,,9,4,9,4,,,,,,,,,,,1562.5092,1563.0022,1563.2492,1565.4209,space,2.1642,,1565.4209,53,12,1566.4094,1566.4094,1566.4159,,,,0,4,4,4,1,25,140,,,,,,,,
,,615fe53328089522ce2661ed,65af5603f1fd1b2813087bd0,2024-01-23_08h01.25.553,bars,2023.2.3,Win32,56.81818182,657b66ea316d21385b68909f,,,,,,,,,,,1566.416,1567.4113,,,1567.9052,1568.1519,,137,-43,,,,,,,,,,,,,,,,bars/037.png,bars/mask007.png,,,,,,,,,,,,6,1,,,,,,,10,6,10,6,,,,,,,,,,,1567.4113,1567.9051,1568.152,1571.3985,space,3.2308,,1571.3985,13,32,1572.3874,1572.3874,1572.3936,,,,0,5,5,5,1,150,105,,,,,,,,
,,615fe53328089522ce2661ed,65af5603f1fd1b2813087bd0,2024-01-23_08h01.25.553,bars,2023.2.3,Win32,56.81818182,657b66ea316d21385b68909f,,,,,,,,,,,1572.3937,1573.3899,,,1573.8871,1574.1345,,94,94,,,,,,,,,,,,,,,,bars/022.png,bars/mask005.png,,,,,,,,,,,,9,1,,,,,,,8,4,9,6,,,,,,,,,,,1573.3899,1573.8871,1574.1345,1577.7834,space,3.6385,,1577.7834,1,74,1578.7841,1578.7841,1578.7899,,,,0,6,6,6,1,95,20,,,,,,,,
,,615fe53328089522ce2661ed,65af5603f1fd1b2813087bd0,2024-01-23_08h01.25.553,bars,2023.2.3,Win32,56.81818182,657b66ea316d21385b68909f,,,,,,,,,,,1578.79,1579.7867,,,1580.2831,1580.5291,,112,112,,,,,,,,,,,,,,,,bars/020.png,bars/mask002.png,,,,,,,,,,,,9,1,,,,,,,10,2,10,2,,,,,,,,,,,1579.7867,1580.2831,1580.5291,1582.1683,space,1.6287,,1582.1684,3,58,1583.1563,1583.1563,1583.1568,,,,0,7,7,7,1,115,170,,,,,,,,
,,615fe53328089522ce2661ed,65af5603f1fd1b2813087bd0,2024-01-23_08h01.25.553,bars,2023.2.3,Win32,56.81818182,657b66ea316d21385b68909f,,,,,,,,,,,1583.1569,1584.1605,,,1584.6539,1584.9033,,53,53,,,,,,,,,,,,,,,,bars/043.png,bars/mask006.png,,,,,,,,,,,,2,1,,,,,,,10,4,10,4,,,,,,,,,,,1584.1606,1584.6539,1584.9033,1588.256,space,3.3504,,1588.256,23,77,1589.2588,1589.2588,1589.2648,,,,0,8,8,8,1,30,130,,,,,,,,
,,615fe53328089522ce2661ed,65af5603f1fd1b2813087bd0,2024-01-23_08h01.25.553,bars,2023.2.3,Win32,56.81818182,657b66ea316d21385b68909f,,,,,,,,,,,1589.265,1590.2618,,,1590.755,1591.0027,,152,-28,,,,,,,,,,,,,,,,bars/039.png,bars/mask001.png,,,,,,,,,,,,1,1,,,,,,,8,6,6,5,,,,,,,,,,,1590.2618,1590.755,1591.0027,1593.9704,space,2.9496,,1593.9704,23,47,1594.9576,1594.9576,1594.9631,,,,0,9,9,9,1,175,105,,,,,,,,
,,615fe53328089522ce2661ed,65af5603f1fd1b2813087bd0,2024-01-23_08h01.25.553,bars,2023.2.3,Win32,56.81818182,657b66ea316d21385b68909f,,,,,,,,,,,1594.9631,1595.9627,,,1596.4535,1596.7002,,113,113,,,,,,,,,,,,,,,,bars/022.png,bars/mask004.png,,,,,,,,,,,,2,1,,,,,,,6,4,6,5,,,,,,,,,,,1595.9627,1596.4535,1596.7002,1601.7577,space,5.0404,,1601.7577,18,87,1602.746,1602.7461,1602.7515,,,,0,10,10,10,1,95,20,,,,,,,,
,,615fe53328089522ce2661ed,65af5603f1fd1b2813087bd0,2024-01-23_08h01.25.553,bars,2023.2.3,Win32,56.81818182,657b66ea316d21385b68909f,,,,,,,,,,,1602.7516,1603.7501,,,1604.2449,1604.4924,,143,-37,,,,,,,,,,,,,,,,bars/007.png,bars/mask006.png,,,,,,,,,,,,0,1,,,,,,,4,2,3,2,,,,,,,,,,,1603.7502,1604.2449,1604.4925,1610.2648,space,5.764,,1610.2648,32,88,1611.2678,1611.2678,1611.2734,,,,0,11,11,11,1,175,55,,,,,,,,
,,615fe53328089522ce2661ed,65af5603f1fd1b2813087bd0,2024-01-23_08h01.25.553,bars,2023.2.3,Win32,56.81818182,657b66ea316d21385b68909f,,,,,,,,,,,1611.2735,1612.2688,,,1612.7613,1613.0076,,32,32,,,,,,,,,,,,,,,,bars/043.png,bars/mask005.png,,,,,,,,,,,,3,1,,,,,,,2,0,3,2,,,,,,,,,,,1612.2688,1612.7613,1613.0076,1616.8982,space,3.8741,,1616.8982,2,82,1617.903,1617.903,1617.9089,,,,0,12,12,12,1,30,130,,,,,,,,
,,615fe53328089522ce2661ed,65af5603f1fd1b2813087bd0,2024-01-23_08h01.25.553,bars,2023.2.3,Win32,56.81818182,657b66ea316d21385b68909f,,,,,,,,,,,1617.909,1618.9125,,,1619.4024,1619.6503,,146,146,,,,,,,,,,,,,,,,bars/039.png,bars/mask007.png,,,,,,,,,,,,0,1,,,,,,,4,0,4,0,,,,,,,,,,,1618.9125,1619.4024,1619.6503,1625.14,space,5.4724,,1625.14,29,41,1626.1439,1626.1439,1626.1499,,,,0,13,13,13,1,175,105,,,,,,,,
,,615fe53328089522ce2661ed,65af5603f1fd1b2813087bd0,2024-01-23_08h01.25.553,bars,2023.2.3,Win32,56.81818182,657b66ea316d21385b68909f,,,,,,,,,,,1626.1502,1627.1466,,,1627.6418,1627.8855,,34,34,,,,,,,,,,,,,,,,bars/004.png,bars/mask009.png,,,,,,,,,,,,4,1,,,,,,,6,2,5,2,,,,,,,,,,,1627.1466,1627.6416,1627.8855,1632.461,space,4.5644,,1632.461,9,89,1633.448,1633.448,1633.4544,,,,0,14,14,14,1,25,125,,,,,,,,
,,615fe53328089522ce2661ed,65af5603f1fd1b2813087bd0,2024-01-23_08h01.25.553,bars,2023.2.3,Win32,56.81818182,657b66ea316d21385b68909f,,,,,,,,,,,1633.4545,1634.4549,,,1634.9456,1635.1949,,140,-40,,,,,,,,,,,,,,,,bars/049.png,bars/mask004.png,,,,,,,,,,,,3,1,,,,,,,8,4,10,6,,,,,,,,,,,1634.455,1634.9456,1635.1949,1639.4624,space,4.2504,,1639.4625,20,25,1640.4552,1640.4553,1640.4612,,,,0,15,15,15,1,160,115,,,,,,,,
,,615fe53328089522ce2661ed,65af5603f1fd1b2813087bd0,2024-01-23_08h01.25.553,bars,2023.2.3,Win32,56.81818182,657b66ea316d21385b68909f,,,,,,,,,,,1640.4613,1641.463,,,1641.9591,1642.2043,,141,141,,,,,,,,,,,,,,,,bars/034.png,bars/mask002.png,,,,,,,,,,,,5,1,,,,,,,10,6,10,7,,,,,,,,,,,1641.4631,1641.9591,1642.2043,1644.8855,space,2.673,,1644.8855,16,76,1645.8834,1645.8834,1645.8888,,,,0,16,16,16,1,125,65,,,,,,,,
,,615fe53328089522ce2661ed,65af5603f1fd1b2813087bd0,2024-01-23_08h01.25.553,bars,2023.2.3,Win32,56.81818182,657b66ea316d21385b68909f,,,,,,,,,,,1645.8888,1646.8898,,,1647.384,1647.6325,,146,146,,,,,,,,,,,,,,,,bars/011.png,bars/mask000.png,,,,,,,,,,,,4,1,,,,,,,8,4,8,5,,,,,,,,,,,1646.8898,1647.3839,1647.6325,1650.1292,space,2.48,,1650.1292,14,61,1651.118,1651.118,1651.1364,,,,0,17,17,17,1,160,85,,,,,,,,
,,615fe53328089522ce2661ed,65af5603f1fd1b2813087bd0,2024-01-23_08h01.25.553,bars,2023.2.3,Win32,56.81818182,657b66ea316d21385b68909f,,,,,,,,,,,1651.1365,1652.1266,,,1652.6207,1652.8673,,49,49,,,,,,,,,,,,,,,,bars/012.png,bars/mask004.png,,,,,,,,,,,,0,2,,,,,,,6,6,5,6,,,,,,,,,,,1652.1266,1652.6207,1652.8673,1657.7653,space,4.8806,,1657.7653,41,34,1658.7585,1658.7585,1658.7647,,,,0,18,18,18,1,90,15,,,,,,,,
,,615fe53328089522ce2661ed,65af5603f1fd1b2813087bd0,2024-01-23_08h01.25.553,bars,2023.2.3,Win32,56.81818182,657b66ea316d21385b68909f,,,,,,,,,,,1658.7648,1659.7679,,,1660.2622,1660.5076,,157,157,,,,,,,,,,,,,,,,bars/007.png,bars/mask005.png,,,,,,,,,,,,3,1,,,,,,,8,8,8,8,,,,,,,,,,,1659.7679,1660.2622,1660.5077,1662.4499,space,1.9249,,1662.4499,18,78,1663.4385,1663.4385,1663.4397,,,,0,19,19,19,1,175,55,,,,,,,,
,,615fe53328089522ce2661ed,65af5603f1fd1b2813087bd0,2024-01-23_08h01.25.553,bars,2023.2.3,Win32,56.81818182,657b66ea316d21385b68909f,,,,,,,,,,,1663.4398,1664.4288,,,1664.9198,1665.1671,,137,137,,,,,,,,,,,,,,,,bars/037.png,bars/mask004.png,,,,,,,,,,,,6,1,,,,,,,10,6,10,5,,,,,,,,,,,1664.4288,1664.9198,1665.1672,1669.3422,space,4.1565,,1669.3423,13,32,1670.3452,1670.3452,1670.3511,,,,0,20,20,20,1,150,105,,,,,,,,
,,615fe53328089522ce2661ed,65af5603f1fd1b2813087bd0,2024-01-23_08h01.25.553,bars,2023.2.3,Win32,56.81818182,657b66ea316d21385b68909f,,,,,,,,,,,1670.3512,1671.3478,,,1671.8409,1672.0885,,143,143,,,,,,,,,,,,,,,,bars/030.png,bars/mask003.png,,,,,,,,,,,,7,1,,,,,,,8,8,8,8,,,,,,,,,,,1671.3479,1671.8409,1672.0885,1677.2492,space,5.1441,,1677.2492,3,78,1678.2526,1678.2526,1678.2589,,,,0,21,21,21,1,140,65,,,,,,,,
,,615fe53328089522ce2661ed,65af5603f1fd1b2813087bd0,2024-01-23_08h01.25.553,bars,2023.2.3,Win32,56.81818182,657b66ea316d21385b68909f,,,,,,,,,,,1678.2591,1679.2547,,,1679.7467,1679.9936,,144,-36,,,,,,,,,,,,,,,,bars/010.png,bars/mask000.png,,,,,,,,,,,,1,1,,,,,,,6,10,4,10,,,,,,,,,,,1679.2547,1679.7466,1679.9937,1685.018,space,5.0208,,1685.018,21,89,1686.0217,1686.0217,1686.0272,,,,0,22,22,22,1,165,55,,,,,,,,
,,615fe53328089522ce2661ed,65af5603f1fd1b2813087bd0,2024-01-23_08h01.25.553,bars,2023.2.3,Win32,56.81818182,657b66ea316d21385b68909f,,,,,,,,,,,1686.0274,1687.0276,,,1687.5219,1687.7686,,27,27,,,,,,,,,,,,,,,,bars/033.png,bars/mask008.png,,,,,,,,,,,,4,1,,,,,,,4,10,4,9,,,,,,,,,,,1687.0276,1687.5217,1687.7686,1690.9725,space,3.1956,,1690.9725,2,52,1691.9599,1691.96,1691.9658,,,,0,23,23,23,1,25,155,,,,,,,,
,,615fe53328089522ce2661ed,65af5603f1fd1b2813087bd0,2024-01-23_08h01.25.553,bars,2023.2.3,Win32,56.81818182,657b66ea316d21385b68909f,,,,,,,,,,,1691.966,1692.9623,,,1693.4563,1693.7016,,162,-18,,,,,,,,,,,,,,,,bars/046.png,bars/mask002.png,,,,,,,,,,,,5,1,,,,,,,6,8,7,8,,,,,,,,,,,1692.9623,1693.4563,1693.7016,1696.1914,space,2.4734,,1696.1914,7,77,1697.18,1697.18,1697.1856,,,,0,24,24,24,1,155,85,,,,,,,,
,,615fe53328089522ce2661ed,65af5603f1fd1b2813087bd0,2024-01-23_08h01.25.553,bars,2023.2.3,Win32,56.81818182,657b66ea316d21385b68909f,,,,,,,,,,,1697.1857,1698.1733,,,1698.6624,1698.9093,,100,100,,,,,,,,,,,,,,,,bars/045.png,bars/mask000.png,,,,,,,,,,,,9,1,,,,,,,8,6,9,4,,,,,,,,,,,1698.1733,1698.6624,1698.9093,1701.4148,space,2.4899,,1701.4148,0,90,1702.4174,1702.4174,1702.4234,,,,0,25,25,25,1,100,10,,,,,,,,
,,615fe53328089522ce2661ed,65af5603f1fd1b2813087bd0,2024-01-23_08h01.25.553,bars,2023.2.3,Win32,56.81818182,657b66ea316d21385b68909f,,,,,,,,,,,1702.4236,1703.4193,,,1703.9069,1704.1546,,83,83,,,,,,,,,,,,,,,,bars/022.png,bars/mask008.png,,,,,,,,,,,,6,1,,,,,,,10,4,10,5,,,,,,,,,,,1703.4193,1703.9069,1704.1546,1708.4602,space,4.2964,,1708.4603,12,63,1709.4492,1709.4492,1709.4548,,,,0,26,26,26,1,95,20,,,,,,,,
,,615fe53328089522ce2661ed,65af5603f1fd1b2813087bd0,2024-01-23_08h01.25.553,bars,2023.2.3,Win32,56.81818182,657b66ea316d21385b68909f,,,,,,,,,,,1709.455,1710.458,,,1710.9509,1711.1974,,102,102,,,,,,,,,,,,,,,,bars/031.png,bars/mask006.png,,,,,,,,,,,,4,1,,,,,,,8,6,9,5,,,,,,,,,,,1710.458,1710.9509,1711.1974,1713.8417,space,2.6392,,1713.8417,18,67,1714.8315,1714.8315,1714.8373,,,,0,27,27,27,1,120,35,,,,,,,,
,,615fe53328089522ce2661ed,65af5603f1fd1b2813087bd0,2024-01-23_08h01.25.553,bars,2023.2.3,Win32,56.81818182,657b66ea316d21385b68909f,,,,,,,,,,,1714.8374,1715.8336,,,1716.3252,1716.5728,,159,159,,,,,,,,,,,,,,,,bars/038.png,bars/mask009.png,,,,,,,,,,,,8,1,,,,,,,10,8,10,10,,,,,,,,,,,1715.8336,1716.3251,1716.5729,1718.5862,space,2.0037,,1718.5863,6,89,1719.5912,1719.5913,1719.5918,,,,0,28,28,28,1,165,70,,,,,,,,
,,615fe53328089522ce2661ed,65af5603f1fd1b2813087bd0,2024-01-23_08h01.25.553,bars,2023.2.3,Win32,56.81818182,657b66ea316d21385b68909f,,,,,,,,,,,1719.592,1720.5952,,,1721.0891,1721.3375,,165,165,,,,,,,,,,,,,,,,bars/036.png,bars/mask003.png,,,,,,,,,,,,3,1,,,,,,,8,6,10,6,,,,,,,,,,,1720.5952,1721.0891,1721.3375,1726.5426,space,5.1894,,1726.5426,20,35,1727.5447,1727.5448,1727.5504,,,,0,29,29,29,1,145,20,,,,,,,,
,,615fe53328089522ce2661ed,65af5603f1fd1b2813087bd0,2024-01-23_08h01.25.553,bars,2023.2.3,Win32,56.81818182,657b66ea316d21385b68909f,,,,,,,,,,,1727.5506,1728.5483,,,1729.0406,1729.2881,,152,-28,,,,,,,,,,,,,,,,bars/008.png,bars/mask001.png,,,,,,,,,,,,1,2,,,,,,,6,8,7,9,,,,,,,,,,,1728.5483,1729.0406,1729.2881,1732.5978,space,3.2983,,1732.5978,42,28,1733.5989,1733.5989,1733.6053,,,,0,30,30,30,1,110,0,,,,,,,,
,,615fe53328089522ce2661ed,65af5603f1fd1b2813087bd0,2024-01-23_08h01.25.553,bars,2023.2.3,Win32,56.81818182,657b66ea316d21385b68909f,,,,,,,,,,,1733.6055,1734.6037,,,1735.0969,1735.3452,,22,22,,,,,,,,,,,,,,,,bars/012.png,bars/mask001.png,,,,,,,,,,,,5,2,,,,,,,4,6,3,6,,,,,,,,,,,1734.6038,1735.0969,1735.3452,1737.1656,space,1.8173,,1737.1657,68,7,1738.1529,1738.1529,1738.1535,,,,0,31,31,31,1,90,15,,,,,,,,
,,615fe53328089522ce2661ed,65af5603f1fd1b2813087bd0,2024-01-23_08h01.25.553,bars,2023.2.3,Win32,56.81818182,657b66ea316d21385b68909f,,,,,,,,,,,1738.1536,1739.1477,,,1739.6389,1739.8851,,151,-29,,,,,,,,,,,,,,,,bars/043.png,bars/mask001.png,,,,,,,,,,,,1,2,,,,,,,6,4,5,3,,,,,,,,,,,1739.1477,1739.6389,1739.8851,1744.4715,space,4.5807,,1744.4715,59,21,1745.4745,1745.4745,1745.48,,,,0,32,32,32,1,30,130,,,,,,,,
,,615fe53328089522ce2661ed,65af5603f1fd1b2813087bd0,2024-01-23_08h01.25.553,bars,2023.2.3,Win32,56.81818182,657b66ea316d21385b68909f,,,,,,,,,,,1745.4801,1746.4745,,,1746.969,1747.2159,,163,163,,,,,,,,,,,,,,,,bars/016.png,bars/mask003.png,,,,,,,,,,,,2,2,,,,,,,8,2,10,2,,,,,,,,,,,1746.4745,1746.969,1747.216,1751.5964,space,4.3612,,1751.5965,57,2,1752.591,1752.591,1752.5968,,,,0,33,33,33,1,40,165,,,,,,,,
,,615fe53328089522ce2661ed,65af5603f1fd1b2813087bd0,2024-01-23_08h01.25.553,bars,2023.2.3,Win32,56.81818182,657b66ea316d21385b68909f,,,,,,,,,,,1752.597,1753.5959,,,1754.0854,1754.3343,,142,-38,,,,,,,,,,,,,,,,bars/004.png,bars/mask004.png,,,,,,,,,,,,0,2,,,,,,,6,0,6,0,,,,,,,,,,,1753.5959,1754.0854,1754.3343,1758.2524,space,3.9055,,1758.2524,63,17,1759.2407,1759.2407,1759.2457,,,,0,34,34,34,1,25,125,,,,,,,,
,,615fe53328089522ce2661ed,65af5603f1fd1b2813087bd0,2024-01-23_08h01.25.553,bars,2023.2.3,Win32,56.81818182,657b66ea316d21385b68909f,,,,,,,,,,,1759.2458,1760.2475,,,1760.74,1760.9857,,104,-76,,,,,,,,,,,,,,,,bars/006.png,bars/mask000.png,,,,,,,,,,,,0,2,,,,,,,4,0,1,0,,,,,,,,,,,1760.2475,1760.74,1760.9858,1767.7617,space,6.7585,,1767.7617,69,4,1768.7503,1768.7504,1768.7567,,,,0,35,35,35,1,35,100,,,,,,,,
,,615fe53328089522ce2661ed,65af5603f1fd1b2813087bd0,2024-01-23_08h01.25.553,bars,2023.2.3,Win32,56.81818182,657b66ea316d21385b68909f,,,,,,,,,,,1768.7568,1769.7449,,,1770.2447,1770.4906,,37,217,,,,,,,,,,,,,,,,bars/031.png,bars/mask001.png,,,,,,,,,,,,3,2,,,,,,,6,2,6,3,,,,,,,,,,,1769.7449,1770.2446,1770.4906,1773.0188,space,2.511,,1773.0188,83,2,1774.0195,1774.0195,1774.0249,,,,0,36,36,36,1,120,35,,,,,,,,
,,615fe53328089522ce2661ed,65af5603f1fd1b2813087bd0,2024-01-23_08h01.25.553,bars,2023.2.3,Win32,56.81818182,657b66ea316d21385b68909f,,,,,,,,,,,1774.0251,1775.0216,,,1775.5132,1775.7588,,32,32,,,,,,,,,,,,,,,,bars/045.png,bars/mask001.png,,,,,,,,,,,,0,2,,,,,,,4,0,5,1,,,,,,,,,,,1775.0216,1775.5131,1775.7588,1777.9882,space,2.2228,,1777.9882,68,22,1778.9921,1778.9921,1778.998,,,,0,37,37,37,1,100,10,,,,,,,,
,,615fe53328089522ce2661ed,65af5603f1fd1b2813087bd0,2024-01-23_08h01.25.553,bars,2023.2.3,Win32,56.81818182,657b66ea316d21385b68909f,,,,,,,,,,,1778.9981,1779.9981,,,1780.4921,1780.7414,,151,-29,,,,,,,,,,,,,,,,bars/048.png,bars/mask001.png,,,,,,,,,,,,0,2,,,,,,,2,0,1,0,,,,,,,,,,,1779.9981,1780.4921,1780.7414,1784.1456,space,3.3889,,1784.1456,79,24,1785.148,1785.148,1785.1539,,,,0,38,38,38,1,50,175,,,,,,,,
,,615fe53328089522ce2661ed,65af5603f1fd1b2813087bd0,2024-01-23_08h01.25.553,bars,2023.2.3,Win32,56.81818182,657b66ea316d21385b68909f,,,,,,,,,,,1785.1541,1786.1498,,,1786.6456,1786.8919,,139,139,,,,,,,,,,,,,,,,bars/017.png,bars/mask004.png,,,,,,,,,,,,0,1,,,,,,,0,2,0,2,,,,,,,,,,,1786.1499,1786.6456,1786.8919,1790.3145,space,3.4094,,1790.3145,6,86,1791.3181,1791.3182,1791.3236,,,,0,39,39,39,1,145,45,,,,,,,,
,,615fe53328089522ce2661ed,65af5603f1fd1b2813087bd0,2024-01-23_08h01.25.553,bars,2023.2.3,Win32,56.81818182,657b66ea316d21385b68909f,,,,,,,,,,,1791.3237,1792.3208,,,1792.8127,1793.0588,,100,100,,,,,,,,,,,,,,,,bars/045.png,bars/mask002.png,,,,,,,,,,,,1,1,,,,,,,0,0,1,2,,,,,,,,,,,1792.3208,1792.8127,1793.0588,1794.5205,space,1.4449,,1794.5205,0,90,1795.5249,1795.5249,1795.5253,,,,0,40,40,40,1,100,10,,,,,,,,
,,615fe53328089522ce2661ed,65af5603f1fd1b2813087bd0,2024-01-23_08h01.25.553,bars,2023.2.3,Win32,56.81818182,657b66ea316d21385b68909f,,,,,,,,,,,1795.5255,1796.5131,,,1797.0056,1797.2525,,165,165,,,,,,,,,,,,,,,,bars/023.png,bars/mask009.png,,,,,,,,,,,,0,1,,,,,,,0,0,0,0,,,,,,,,,,,1796.5131,1797.0056,1797.2526,1802.5719,space,5.3009,,1802.5719,35,50,1803.5753,1803.5753,1803.5813,,,,0,41,41,41,1,20,115,,,,,,,,
,,615fe53328089522ce2661ed,65af5603f1fd1b2813087bd0,2024-01-23_08h01.25.553,bars,2023.2.3,Win32,56.81818182,657b66ea316d21385b68909f,,,,,,,,,,,1803.5814,1804.5801,,,1805.0747,1805.3234,,107,107,,,,,,,,,,,,,,,,bars/014.png,bars/mask005.png,,,,,,,,,,,,0,1,,,,,,,2,0,1,1,,,,,,,,,,,1804.5801,1805.0747,1805.3234,1808.785,space,3.4496,,1808.7851,27,73,1809.7773,1809.7773,1809.7827,,,,0,42,42,42,1,80,0,,,,,,,,
,,615fe53328089522ce2661ed,65af5603f1fd1b2813087bd0,2024-01-23_08h01.25.553,bars,2023.2.3,Win32,56.81818182,657b66ea316d21385b68909f,,,,,,,,,,,1809.7829,1810.7805,,,1811.2736,1811.5195,,74,74,,,,,,,,,,,,,,,,bars/014.png,bars/mask003.png,,,,,,,,,,,,0,1,,,,,,,0,0,0,0,,,,,,,,,,,1810.7806,1811.2735,1811.5195,1813.9893,space,2.4525,,1813.9893,6,74,1814.9784,1814.9784,1814.9844,,,,0,43,43,43,1,80,0,,,,,,,,
,,615fe53328089522ce2661ed,65af5603f1fd1b2813087bd0,2024-01-23_08h01.25.553,bars,2023.2.3,Win32,56.81818182,657b66ea316d21385b68909f,,,,,,,,,,,1814.9844,1815.9779,,,1816.4687,1816.7176,,139,139,,,,,,,,,,,,,,,,bars/023.png,bars/mask006.png,,,,,,,,,,,,0,2,,,,,,,2,0,2,1,,,,,,,,,,,1815.9779,1816.4687,1816.7176,1820.0082,space,3.285,,1820.0082,61,24,1821.0105,1821.0105,1821.0167,,,,0,44,44,44,1,20,115,,,,,,,,
,,615fe53328089522ce2661ed,65af5603f1fd1b2813087bd0,2024-01-23_08h01.25.553,bars,2023.2.3,Win32,56.81818182,657b66ea316d21385b68909f,,,,,,,,,,,1821.0168,1822.0106,,,1822.5048,1822.751,,31,31,,,,,,,,,,,,,,,,bars/007.png,bars/mask008.png,,,,,,,,,,,,0,2,,,,,,,4,2,4,2,,,,,,,,,,,1822.0106,1822.5048,1822.751,1829.0424,space,6.2773,,1829.0424,36,24,1830.0338,1830.0338,1830.0391,,,,0,45,45,45,1,175,55,,,,,,,,
,,615fe53328089522ce2661ed,65af5603f1fd1b2813087bd0,2024-01-23_08h01.25.553,bars,2023.2.3,Win32,56.81818182,657b66ea316d21385b68909f,,,,,,,,,,,1830.0393,1831.0276,,,1831.5189,1831.7641,,82,82,,,,,,,,,,,,,,,,bars/021.png,bars/mask002.png,,,,,,,,,,,,2,2,,,,,,,2,4,2,4,,,,,,,,,,,1831.0276,1831.5188,1831.7641,1835.2891,space,3.5121,,1835.2891,73,12,1836.2763,1836.2763,1836.2825,,,,0,46,46,46,1,155,70,,,,,,,,
,,615fe53328089522ce2661ed,65af5603f1fd1b2813087bd0,2024-01-23_08h01.25.553,bars,2023.2.3,Win32,56.81818182,657b66ea316d21385b68909f,,,,,,,,,,,1836.2827,1837.2793,,,1837.7739,1838.0207,,168,-12,,,,,,,,,,,,,,,,bars/044.png,bars/mask008.png,,,,,,,,,,,,1,2,,,,,,,4,2,4,2,,,,,,,,,,,1837.2793,1837.7739,1838.0207,1842.0814,space,4.0466,,1842.0814,87,13,1843.0685,1843.0685,1843.0751,,,,0,47,47,47,1,75,155,,,,,,,,
,,615fe53328089522ce2661ed,65af5603f1fd1b2813087bd0,2024-01-23_08h01.25.553,bars,2023.2.3,Win32,56.81818182,657b66ea316d21385b68909f,,,,,,,,,,,1843.0752,1844.0693,,,1844.5644,1844.812,,120,120,,,,,,,,,,,,,,,,bars/023.png,bars/mask008.png,,,,,,,,,,,,0,2,,,,,,,6,0,5,0,,,,,,,,,,,1844.0693,1844.5644,1844.812,1846.7454,space,1.9252,,1846.7454,80,5,1847.7321,1847.7322,1847.7327,,,,0,48,48,48,1,20,115,,,,,,,,
,,615fe53328089522ce2661ed,65af5603f1fd1b2813087bd0,2024-01-23_08h01.25.553,bars,2023.2.3,Win32,56.81818182,657b66ea316d21385b68909f,,,,,,,,,,,1847.7328,1848.7369,,,1849.2295,1849.4754,,141,141,,,,,,,,,,,,,,,,bars/046.png,bars/mask007.png,,,,,,,,,,,,3,1,,,,,,,4,0,6,0,,,,,,,,,,,1848.7369,1849.2295,1849.4754,1852.5549,space,3.0706,,1852.5549,14,56,1853.557,1853.557,1853.563,,,,0,49,49,49,1,155,85,,,,,,,,
,,615fe53328089522ce2661ed,65af5603f1fd1b2813087bd0,2024-01-23_08h01.25.553,bars,2023.2.3,Win32,56.81818182,657b66ea316d21385b68909f,,,,,,,,,,,,,,,,,,,,,,,,,,,,,,,,,,,,,,,,,,,,,,,,,,,,,,,,,,,,,,,,,,,,,,,,,,,,,,,,,,,,,,,,,,,,,1853.5631,1913.5528,0,2,2,2,1,sequence_tables/blk027.csv
,,615fe53328089522ce2661ed,65af5603f1fd1b2813087bd0,2024-01-23_08h01.25.553,bars,2023.2.3,Win32,56.81818182,657b66ea316d21385b68909f,,,,,,,,,,,1962.9715,1963.9455,,,1964.4378,1964.6858,,131,-49,,,,,,,,,,,,,,,,bars/030.png,bars/mask007.png,,,,,,,,,,,,3,1,,,,,,,3,6,4,4,,,,,,1913.5617,1962.9445,space,49.3661,,1963.9456,1964.4378,1964.6858,1968.9291,space,4.2268,,1968.9291,9,66,1969.9197,1969.9197,1969.9256,,,,0,0,0,0,1,140,65,,,,,,,,
,,615fe53328089522ce2661ed,65af5603f1fd1b2813087bd0,2024-01-23_08h01.25.553,bars,2023.2.3,Win32,56.81818182,657b66ea316d21385b68909f,,,,,,,,,,,1969.9256,1970.9175,,,1971.411,1971.6578,,116,116,,,,,,,,,,,,,,,,bars/034.png,bars/mask005.png,,,,,,,,,,,,1,1,,,,,,,1,4,1,2,,,,,,,,,,,1970.9175,1971.4109,1971.6578,1973.9468,space,2.283,,1973.9468,9,51,1974.9512,1974.9512,1974.9517,,,,0,1,1,1,1,125,65,,,,,,,,
,,615fe53328089522ce2661ed,65af5603f1fd1b2813087bd0,2024-01-23_08h01.25.553,bars,2023.2.3,Win32,56.81818182,657b66ea316d21385b68909f,,,,,,,,,,,1974.9519,1975.9396,,,1976.4292,1976.6757,,104,104,,,,,,,,,,,,,,,,bars/039.png,bars/mask003.png,,,,,,,,,,,,3,2,,,,,,,0,2,0,3,,,,,,,,,,,1975.9396,1976.4292,1976.6758,1980.1975,space,3.5198,,1980.1975,71,1,1981.1974,1981.1975,1981.2039,,,,0,2,2,2,1,175,105,,,,,,,,
,,615fe53328089522ce2661ed,65af5603f1fd1b2813087bd0,2024-01-23_08h01.25.553,bars,2023.2.3,Win32,56.81818182,657b66ea316d21385b68909f,,,,,,,,,,,1981.204,1982.2014,,,1982.6995,1982.9468,,29,209,,,,,,,,,,,,,,,,bars/012.png,bars/mask001.png,,,,,,,,,,,,1,2,,,,,,,2,0,1,1,,,,,,,,,,,1982.2014,1982.6995,1982.9469,1986.2687,space,3.3038,,1986.2687,61,14,1987.2712,1987.2712,1987.2771,,,,0,3,3,3,1,90,15,,,,,,,,
,,615fe53328089522ce2661ed,65af5603f1fd1b2813087bd0,2024-01-23_08h01.25.553,bars,2023.2.3,Win32,56.81818182,657b66ea316d21385b68909f,,,,,,,,,,,1987.2773,1988.2788,,,1988.773,1989.0205,,175,175,,,,,,,,,,,,,,,,bars/048.png,bars/mask001.png,,,,,,,,,,,,1,2,,,,,,,0,0,0,1,,,,,,,,,,,1988.2788,1988.773,1989.0205,1992.0875,space,3.0577,,1992.0876,55,0,1993.0862,1993.0862,1993.0925,,,,0,4,4,4,1,50,175,,,,,,,,
,,615fe53328089522ce2661ed,65af5603f1fd1b2813087bd0,2024-01-23_08h01.25.553,bars,2023.2.3,Win32,56.81818182,657b66ea316d21385b68909f,,,,,,,,,,,1993.0926,1994.0853,,,1994.5806,1994.8274,,109,109,,,,,,,,,,,,,,,,bars/037.png,bars/mask005.png,,,,,,,,,,,,0,2,,,,,,,0,0,0,0,,,,,,,,,,,1994.0854,1994.5806,1994.8274,1997.1238,space,2.2889,,1997.1238,41,4,1998.1117,1998.1117,1998.1174,,,,0,5,5,5,1,150,105,,,,,,,,
,,615fe53328089522ce2661ed,65af5603f1fd1b2813087bd0,2024-01-23_08h01.25.553,bars,2023.2.3,Win32,56.81818182,657b66ea316d21385b68909f,,,,,,,,,,,1998.1175,1999.113,,,1999.6023,1999.85,,172,172,,,,,,,,,,,,,,,,bars/020.png,bars/mask007.png,,,,,,,,,,,,3,2,,,,,,,0,2,2,3,,,,,,,,,,,1999.1131,1999.6023,1999.85,2004.8616,space,5.0052,,2004.8616,57,2,2005.858,2005.858,2005.8633,,,,0,6,6,6,1,115,170,,,,,,,,
,,615fe53328089522ce2661ed,65af5603f1fd1b2813087bd0,2024-01-23_08h01.25.553,bars,2023.2.3,Win32,56.81818182,657b66ea316d21385b68909f,,,,,,,,,,,2005.8634,2006.8633,,,2007.3592,2007.6077,,39,39,,,,,,,,,,,,,,,,bars/010.png,bars/mask006.png,,,,,,,,,,,,0,2,,,,,,,2,0,1,0,,,,,,,,,,,2006.8633,2007.3592,2007.6077,2013.022,space,5.4101,,2013.022,54,16,2014.0252,2014.0252,2014.0313,,,,0,7,7,7,1,165,55,,,,,,,,
,,615fe53328089522ce2661ed,65af5603f1fd1b2813087bd0,2024-01-23_08h01.25.553,bars,2023.2.3,Win32,56.81818182,657b66ea316d21385b68909f,,,,,,,,,,,2014.0314,2015.03,,,2015.5191,2015.7655,,121,121,,,,,,,,,,,,,,,,bars/037.png,bars/mask000.png,,,,,,,,,,,,0,2,,,,,,,4,2,4,1,,,,,,,,,,,2015.03,2015.5191,2015.7655,2019.3694,space,3.5983,,2019.3695,29,16,2020.3732,2020.3732,2020.379,,,,0,8,8,8,1,150,105,,,,,,,,
,,615fe53328089522ce2661ed,65af5603f1fd1b2813087bd0,2024-01-23_08h01.25.553,bars,2023.2.3,Win32,56.81818182,657b66ea316d21385b68909f,,,,,,,,,,,2020.3795,2021.3828,,,2021.8765,2022.1241,,52,52,,,,,,,,,,,,,,,,bars/034.png,bars/mask003.png,,,,,,,,,,,,0,2,,,,,,,2,0,2,0,,,,,,,,,,,2021.3828,2021.8765,2022.1241,2024.5028,space,2.3627,,2024.5029,73,13,2025.5069,2025.5069,2025.5126,,,,0,9,9,9,1,125,65,,,,,,,,
,,615fe53328089522ce2661ed,65af5603f1fd1b2813087bd0,2024-01-23_08h01.25.553,bars,2023.2.3,Win32,56.81818182,657b66ea316d21385b68909f,,,,,,,,,,,2025.5127,2026.513,,,2027.0075,2027.2527,,39,39,,,,,,,,,,,,,,,,bars/017.png,bars/mask008.png,,,,,,,,,,,,0,2,,,,,,,4,0,4,0,,,,,,,,,,,2026.513,2027.0074,2027.2527,2032.4309,space,5.1612,,2032.4309,74,6,2033.4195,2033.4195,2033.4254,,,,0,10,10,10,1,145,45,,,,,,,,
,,615fe53328089522ce2661ed,65af5603f1fd1b2813087bd0,2024-01-23_08h01.25.553,bars,2023.2.3,Win32,56.81818182,657b66ea316d21385b68909f,,,,,,,,,,,2033.4256,2034.4139,,,2034.9056,2035.1528,,32,212,,,,,,,,,,,,,,,,bars/027.png,bars/mask008.png,,,,,,,,,,,,0,2,,,,,,,6,0,6,0,,,,,,,,,,,2034.414,2034.9056,2035.1528,2039.1378,space,3.9689,,2039.1378,78,18,2040.1249,2040.1249,2040.1307,,,,0,11,11,11,1,110,50,,,,,,,,
,,615fe53328089522ce2661ed,65af5603f1fd1b2813087bd0,2024-01-23_08h01.25.553,bars,2023.2.3,Win32,56.81818182,657b66ea316d21385b68909f,,,,,,,,,,,2040.1308,2041.1289,,,2041.6223,2041.8688,,56,236,,,,,,,,,,,,,,,,bars/017.png,bars/mask007.png,,,,,,,,,,,,1,2,,,,,,,4,0,5,1,,,,,,,,,,,2041.1289,2041.6222,2041.8688,2046.7022,space,4.8156,,2046.7022,89,11,2047.7051,2047.7051,2047.7106,,,,0,12,12,12,1,145,45,,,,,,,,
,,615fe53328089522ce2661ed,65af5603f1fd1b2813087bd0,2024-01-23_08h01.25.553,bars,2023.2.3,Win32,56.81818182,657b66ea316d21385b68909f,,,,,,,,,,,2047.7107,2048.7137,,,2049.2061,2049.4514,,7,7,,,,,,,,,,,,,,,,bars/048.png,bars/mask004.png,,,,,,,,,,,,0,2,,,,,,,6,0,6,0,,,,,,,,,,,2048.7137,2049.2061,2049.4514,2051.7405,space,2.2829,,2051.7405,43,12,2052.7322,2052.7323,2052.7327,,,,0,13,13,13,1,50,175,,,,,,,,
,,615fe53328089522ce2661ed,65af5603f1fd1b2813087bd0,2024-01-23_08h01.25.553,bars,2023.2.3,Win32,56.81818182,657b66ea316d21385b68909f,,,,,,,,,,,2052.7329,2053.7301,,,2054.2271,2054.4774,,95,95,,,,,,,,,,,,,,,,bars/014.png,bars/mask004.png,,,,,,,,,,,,2,1,,,,,,,4,0,4,0,,,,,,,,,,,2053.7302,2054.2271,2054.4775,2056.4405,space,1.9573,,2056.4405,15,85,2057.4371,2057.4372,2057.4433,,,,0,14,14,14,1,80,0,,,,,,,,
,,615fe53328089522ce2661ed,65af5603f1fd1b2813087bd0,2024-01-23_08h01.25.553,bars,2023.2.3,Win32,56.81818182,657b66ea316d21385b68909f,,,,,,,,,,,2057.4434,2058.4447,,,2058.9402,2059.1889,,94,94,,,,,,,,,,,,,,,,bars/014.png,bars/mask007.png,,,,,,,,,,,,1,1,,,,,,,2,2,1,3,,,,,,,,,,,2058.4447,2058.9402,2059.189,2061.4573,space,2.2575,,2061.4573,14,86,2062.4473,2062.4473,2062.4534,,,,0,15,15,15,1,80,0,,,,,,,,
,,615fe53328089522ce2661ed,65af5603f1fd1b2813087bd0,2024-01-23_08h01.25.553,bars,2023.2.3,Win32,56.81818182,657b66ea316d21385b68909f,,,,,,,,,,,2062.4536,2063.4529,,,2063.9489,2064.196,,152,152,,,,,,,,,,,,,,,,bars/042.png,bars/mask005.png,,,,,,,,,,,,4,1,,,,,,,4,4,5,5,,,,,,,,,,,2063.4529,2063.9489,2064.196,2066.7479,space,2.5398,,2066.7479,7,77,2067.7435,2067.7435,2067.7489,,,,0,16,16,16,1,145,75,,,,,,,,
,,615fe53328089522ce2661ed,65af5603f1fd1b2813087bd0,2024-01-23_08h01.25.553,bars,2023.2.3,Win32,56.81818182,657b66ea316d21385b68909f,,,,,,,,,,,2067.749,2068.7406,,,2069.2347,2069.4836,,151,151,,,,,,,,,,,,,,,,bars/046.png,bars/mask006.png,,,,,,,,,,,,3,1,,,,,,,6,6,4,6,,,,,,,,,,,2068.7406,2069.2346,2069.4836,2072.3984,space,2.8992,,2072.3985,4,66,2073.4001,2073.4001,2073.4056,,,,0,17,17,17,1,155,85,,,,,,,,
,,615fe53328089522ce2661ed,65af5603f1fd1b2813087bd0,2024-01-23_08h01.25.553,bars,2023.2.3,Win32,56.81818182,657b66ea316d21385b68909f,,,,,,,,,,,2073.4057,2074.4061,,,2074.9014,2075.1475,,164,164,,,,,,,,,,,,,,,,bars/046.png,bars/mask009.png,,,,,,,,,,,,6,1,,,,,,,8,4,9,4,,,,,,,,,,,2074.4061,2074.9014,2075.1475,2077.3513,space,2.1887,,2077.3514,9,79,2078.3553,2078.3553,2078.3611,,,,0,18,18,18,1,155,85,,,,,,,,
,,615fe53328089522ce2661ed,65af5603f1fd1b2813087bd0,2024-01-23_08h01.25.553,bars,2023.2.3,Win32,56.81818182,657b66ea316d21385b68909f,,,,,,,,,,,2078.3612,2079.3637,,,2079.8578,2080.1034,,40,220,,,,,,,,,,,,,,,,bars/019.png,bars/mask008.png,,,,,,,,,,,,5,1,,,,,,,6,6,6,7,,,,,,,,,,,2079.3637,2079.8578,2080.1034,2084.3275,space,4.2084,,2084.3277,5,65,2085.3156,2085.3156,2085.3216,,,,0,19,19,19,1,45,105,,,,,,,,
,,615fe53328089522ce2661ed,65af5603f1fd1b2813087bd0,2024-01-23_08h01.25.553,bars,2023.2.3,Win32,56.81818182,657b66ea316d21385b68909f,,,,,,,,,,,2085.3217,2086.321,,,2086.8117,2087.0606,,158,158,,,,,,,,,,,,,,,,bars/007.png,bars/mask003.png,,,,,,,,,,,,2,1,,,,,,,4,8,4,6,,,,,,,,,,,2086.321,2086.8116,2087.0606,2090.6037,space,3.527,,2090.6037,17,77,2091.5923,2091.5923,2091.5984,,,,0,20,20,20,1,175,55,,,,,,,,
,,615fe53328089522ce2661ed,65af5603f1fd1b2813087bd0,2024-01-23_08h01.25.553,bars,2023.2.3,Win32,56.81818182,657b66ea316d21385b68909f,,,,,,,,,,,2091.5985,2092.5993,,,2093.0971,2093.3434,,119,-61,,,,,,,,,,,,,,,,bars/020.png,bars/mask008.png,,,,,,,,,,,,2,1,,,,,,,2,10,2,10,,,,,,,,,,,2092.5993,2093.097,2093.3434,2099.1157,space,5.7667,,2099.1157,4,51,2100.1024,2100.1024,2100.1082,,,,0,21,21,21,1,115,170,,,,,,,,
,,615fe53328089522ce2661ed,65af5603f1fd1b2813087bd0,2024-01-23_08h01.25.553,bars,2023.2.3,Win32,56.81818182,657b66ea316d21385b68909f,,,,,,,,,,,2100.1084,2101.1082,,,2101.6013,2101.8468,,126,126,,,,,,,,,,,,,,,,bars/024.png,bars/mask007.png,,,,,,,,,,,,0,1,,,,,,,0,8,0,8,,,,,,,,,,,2101.1082,2101.6013,2101.8468,2106.5082,space,4.6503,,2106.5082,6,44,2107.5075,2107.5076,2107.5142,,,,0,22,22,22,1,120,170,,,,,,,,
,,615fe53328089522ce2661ed,65af5603f1fd1b2813087bd0,2024-01-23_08h01.25.553,bars,2023.2.3,Win32,56.81818182,657b66ea316d21385b68909f,,,,,,,,,,,2107.5144,2108.517,,,2109.0096,2109.2565,,137,-43,,,,,,,,,,,,,,,,bars/037.png,bars/mask005.png,,,,,,,,,,,,0,1,,,,,,,0,10,0,10,,,,,,,,,,,2108.5171,2109.0095,2109.2566,2115.155,space,5.8922,,2115.1551,13,32,2116.143,2116.1431,2116.1494,,,,0,23,23,23,1,150,105,,,,,,,,
,,615fe53328089522ce2661ed,65af5603f1fd1b2813087bd0,2024-01-23_08h01.25.553,bars,2023.2.3,Win32,56.81818182,657b66ea316d21385b68909f,,,,,,,,,,,2116.1495,2117.1445,,,2117.6392,2117.8836,,161,161,,,,,,,,,,,,,,,,bars/023.png,bars/mask001.png,,,,,,,,,,,,0,1,,,,,,,0,10,0,10,,,,,,,,,,,2117.1445,2117.6392,2117.8837,2122.2779,space,4.3878,,2122.2779,39,46,2123.2658,2123.2658,2123.2721,,,,0,24,24,24,1,20,115,,,,,,,,
,,615fe53328089522ce2661ed,65af5603f1fd1b2813087bd0,2024-01-23_08h01.25.553,bars,2023.2.3,Win32,56.81818182,657b66ea316d21385b68909f,,,,,,,,,,,2123.2723,2124.274,,,2124.7668,2125.0131,,132,132,,,,,,,,,,,,,,,,bars/030.png,bars/mask002.png,,,,,,,,,,,,2,1,,,,,,,2,8,3,7,,,,,,,,,,,2124.274,2124.7668,2125.0131,2129.3088,space,4.2887,,2129.3088,8,67,2130.296,2130.296,2130.302,,,,0,25,25,25,1,140,65,,,,,,,,
,,615fe53328089522ce2661ed,65af5603f1fd1b2813087bd0,2024-01-23_08h01.25.553,bars,2023.2.3,Win32,56.81818182,657b66ea316d21385b68909f,,,,,,,,,,,2130.3021,2131.3023,,,2131.7974,2132.0445,,126,126,,,,,,,,,,,,,,,,bars/025.png,bars/mask006.png,,,,,,,,,,,,0,1,,,,,,,0,6,0,6,,,,,,,,,,,2131.3023,2131.7974,2132.0445,2137.5014,space,5.44,,2137.5015,21,86,2138.5023,2138.5023,2138.5089,,,,0,26,26,26,1,105,40,,,,,,,,
,,615fe53328089522ce2661ed,65af5603f1fd1b2813087bd0,2024-01-23_08h01.25.553,bars,2023.2.3,Win32,56.81818182,657b66ea316d21385b68909f,,,,,,,,,,,2138.509,2139.5135,,,2140.0093,2140.2565,,116,116,,,,,,,,,,,,,,,,bars/012.png,bars/mask003.png,,,,,,,,,,,,0,1,,,,,,,2,8,1,6,,,,,,,,,,,2139.5136,2140.0093,2140.2565,2143.8211,space,3.5618,,2143.8211,26,79,2144.8219,2144.822,2144.8282,,,,0,27,27,27,1,90,15,,,,,,,,
,,615fe53328089522ce2661ed,65af5603f1fd1b2813087bd0,2024-01-23_08h01.25.553,bars,2023.2.3,Win32,56.81818182,657b66ea316d21385b68909f,,,,,,,,,,,2144.8283,2145.8309,,,2146.321,2146.569,,103,103,,,,,,,,,,,,,,,,bars/001.png,bars/mask000.png,,,,,,,,,,,,2,2,,,,,,,4,6,3,5,,,,,,,,,,,2145.831,2146.3209,2146.569,2149.7939,space,3.2089,,2149.7939,27,18,2150.7826,2150.7826,2150.7888,,,,0,28,28,28,1,130,85,,,,,,,,
,,615fe53328089522ce2661ed,65af5603f1fd1b2813087bd0,2024-01-23_08h01.25.553,bars,2023.2.3,Win32,56.81818182,657b66ea316d21385b68909f,,,,,,,,,,,2150.7889,2151.7841,,,2152.277,2152.5228,,88,88,,,,,,,,,,,,,,,,bars/029.png,bars/mask004.png,,,,,,,,,,,,2,1,,,,,,,2,8,2,7,,,,,,,,,,,2151.7841,2152.277,2152.5228,2155.5254,space,2.9961,,2155.5255,2,43,2156.5284,2156.5284,2156.5348,,,,0,29,29,29,1,90,45,,,,,,,,
,,615fe53328089522ce2661ed,65af5603f1fd1b2813087bd0,2024-01-23_08h01.25.553,bars,2023.2.3,Win32,56.81818182,657b66ea316d21385b68909f,,,,,,,,,,,2156.5349,2157.5362,,,2158.0312,2158.2753,,158,-22,,,,,,,,,,,,,,,,bars/007.png,bars/mask009.png,,,,,,,,,,,,0,1,,,,,,,0,10,1,10,,,,,,,,,,,2157.5362,2158.0312,2158.2753,2163.0013,space,4.7154,,2163.0014,17,77,2164.0051,2164.0051,2164.0122,,,,0,30,30,30,1,175,55,,,,,,,,
,,615fe53328089522ce2661ed,65af5603f1fd1b2813087bd0,2024-01-23_08h01.25.553,bars,2023.2.3,Win32,56.81818182,657b66ea316d21385b68909f,,,,,,,,,,,2164.0122,2165.0105,,,2165.5031,2165.7512,,1,181,,,,,,,,,,,,,,,,bars/010.png,bars/mask005.png,,,,,,,,,,,,0,1,,,,,,,2,8,1,7,,,,,,,,,,,2165.0105,2165.503,2165.7513,2169.6949,space,3.9361,,2169.6949,16,54,2170.6946,2170.6946,2170.7001,,,,0,31,31,31,1,165,55,,,,,,,,
,,615fe53328089522ce2661ed,65af5603f1fd1b2813087bd0,2024-01-23_08h01.25.553,bars,2023.2.3,Win32,56.81818182,657b66ea316d21385b68909f,,,,,,,,,,,2170.7002,2171.697,,,2172.1876,2172.4324,,99,99,,,,,,,,,,,,,,,,bars/027.png,bars/mask000.png,,,,,,,,,,,,0,1,,,,,,,0,6,0,6,,,,,,,,,,,2171.697,2172.1876,2172.4325,2173.3337,space,0.8935,,2173.3337,11,49,2174.3211,2174.3211,2174.3215,,,,0,32,32,32,1,110,50,,,,,,,,
,,615fe53328089522ce2661ed,65af5603f1fd1b2813087bd0,2024-01-23_08h01.25.553,bars,2023.2.3,Win32,56.81818182,657b66ea316d21385b68909f,,,,,,,,,,,2174.3217,2175.3224,,,2175.8154,2176.0622,,124,124,,,,,,,,,,,,,,,,bars/032.png,bars/mask000.png,,,,,,,,,,,,4,1,,,,,,,2,8,4,8,,,,,,,,,,,2175.3224,2175.8154,2176.0622,2180.0046,space,3.9275,,2180.0046,1,76,2180.9933,2180.9933,2180.9991,,,,0,33,33,33,1,125,20,,,,,,,,
,,615fe53328089522ce2661ed,65af5603f1fd1b2813087bd0,2024-01-23_08h01.25.553,bars,2023.2.3,Win32,56.81818182,657b66ea316d21385b68909f,,,,,,,,,,,2180.9992,2182.0001,,,2182.4981,2182.7456,,23,203,,,,,,,,,,,,,,,,bars/035.png,bars/mask004.png,,,,,,,,,,,,0,1,,,,,,,0,10,0,10,,,,,,,,,,,2182.0001,2182.4981,2182.7457,2186.8067,space,4.0456,,2186.8067,28,37,2187.7983,2187.7983,2187.8042,,,,0,34,34,34,1,175,60,,,,,,,,
,,615fe53328089522ce2661ed,65af5603f1fd1b2813087bd0,2024-01-23_08h01.25.553,bars,2023.2.3,Win32,56.81818182,657b66ea316d21385b68909f,,,,,,,,,,,2187.8043,2188.804,,,2189.3005,2189.5469,,96,-84,,,,,,,,,,,,,,,,bars/013.png,bars/mask009.png,,,,,,,,,,,,0,1,,,,,,,0,10,0,8,,,,,,,,,,,2188.804,2189.3005,2189.5469,2195.4804,space,5.9288,,2195.4804,21,86,2196.4811,2196.4812,2196.4872,,,,0,35,35,35,1,75,10,,,,,,,,
,,615fe53328089522ce2661ed,65af5603f1fd1b2813087bd0,2024-01-23_08h01.25.553,bars,2023.2.3,Win32,56.81818182,657b66ea316d21385b68909f,,,,,,,,,,,2196.4873,2197.4833,,,2197.9767,2198.2242,,53,53,,,,,,,,,,,,,,,,bars/048.png,bars/mask000.png,,,,,,,,,,,,0,1,,,,,,,0,10,0,9,,,,,,,,,,,2197.4834,2197.9767,2198.2242,2203.3946,space,5.1521,,2203.3947,3,58,2204.3963,2204.3964,2204.4019,,,,0,36,36,36,1,50,175,,,,,,,,
,,615fe53328089522ce2661ed,65af5603f1fd1b2813087bd0,2024-01-23_08h01.25.553,bars,2023.2.3,Win32,56.81818182,657b66ea316d21385b68909f,,,,,,,,,,,2204.402,2205.3968,,,2205.8876,2206.1356,,24,24,,,,,,,,,,,,,,,,bars/032.png,bars/mask006.png,,,,,,,,,,,,7,2,,,,,,,2,8,2,8,,,,,,,,,,,2205.3969,2205.8876,2206.1356,2208.638,space,2.4972,,2208.638,79,4,2209.6409,2209.6409,2209.6474,,,,0,37,37,37,1,125,20,,,,,,,,
,,615fe53328089522ce2661ed,65af5603f1fd1b2813087bd0,2024-01-23_08h01.25.553,bars,2023.2.3,Win32,56.81818182,657b66ea316d21385b68909f,,,,,,,,,,,2209.6475,2210.6407,,,2211.1375,2211.3836,,10,190,,,,,,,,,,,,,,,,bars/048.png,bars/mask000.png,,,,,,,,,,,,4,2,,,,,,,0,6,0,7,,,,,,,,,,,2210.6407,2211.1375,2211.3837,2213.5708,space,2.1796,,2213.5708,40,15,2214.5583,2214.5584,2214.5589,,,,0,38,38,38,1,50,175,,,,,,,,
,,615fe53328089522ce2661ed,65af5603f1fd1b2813087bd0,2024-01-23_08h01.25.553,bars,2023.2.3,Win32,56.81818182,657b66ea316d21385b68909f,,,,,,,,,,,2214.559,2215.5485,,,2216.0458,2216.2947,,105,105,,,,,,,,,,,,,,,,bars/046.png,bars/mask006.png,,,,,,,,,,,,1,2,,,,,,,0,4,1,3,,,,,,,,,,,2215.5485,2216.0458,2216.2948,2218.5164,space,2.2077,,2218.5164,50,20,2219.5035,2219.5036,2219.5098,,,,0,39,39,39,1,155,85,,,,,,,,
,,615fe53328089522ce2661ed,65af5603f1fd1b2813087bd0,2024-01-23_08h01.25.553,bars,2023.2.3,Win32,56.81818182,657b66ea316d21385b68909f,,,,,,,,,,,2219.5099,2220.5079,,,2221.0013,2221.2484,,112,112,,,,,,,,,,,,,,,,bars/009.png,bars/mask009.png,,,,,,,,,,,,5,2,,,,,,,0,6,1,6,,,,,,,,,,,2220.508,2221.0013,2221.2484,2223.3489,space,2.0925,,2223.3489,83,7,2224.3365,2224.3365,2224.3417,,,,0,40,40,40,1,15,105,,,,,,,,
,,615fe53328089522ce2661ed,65af5603f1fd1b2813087bd0,2024-01-23_08h01.25.553,bars,2023.2.3,Win32,56.81818182,657b66ea316d21385b68909f,,,,,,,,,,,2224.3419,2225.3364,,,2225.8285,2226.0747,,164,-16,,,,,,,,,,,,,,,,bars/040.png,bars/mask001.png,,,,,,,,,,,,1,2,,,,,,,2,4,2,3,,,,,,,,,,,2225.3365,2225.8285,2226.0747,2228.0255,space,1.9443,,2228.0255,24,21,2229.0229,2229.023,2229.0235,,,,0,41,41,41,1,140,5,,,,,,,,
,,615fe53328089522ce2661ed,65af5603f1fd1b2813087bd0,2024-01-23_08h01.25.553,bars,2023.2.3,Win32,56.81818182,657b66ea316d21385b68909f,,,,,,,,,,,2229.0237,2230.0252,,,2230.5214,2230.7685,,162,162,,,,,,,,,,,,,,,,bars/014.png,bars/mask006.png,,,,,,,,,,,,3,2,,,,,,,4,6,3,7,,,,,,,,,,,2230.0253,2230.5214,2230.7686,2233.908,space,3.1241,,2233.9081,82,18,2234.8981,2234.8981,2234.9031,,,,0,42,42,42,1,80,0,,,,,,,,
,,615fe53328089522ce2661ed,65af5603f1fd1b2813087bd0,2024-01-23_08h01.25.553,bars,2023.2.3,Win32,56.81818182,657b66ea316d21385b68909f,,,,,,,,,,,2234.9033,2235.9053,,,2236.3998,2236.6469,,42,42,,,,,,,,,,,,,,,,bars/010.png,bars/mask007.png,,,,,,,,,,,,2,2,,,,,,,2,4,3,4,,,,,,,,,,,2235.9053,2236.3998,2236.6469,2240.7781,space,4.1123,,2240.7781,57,13,2241.7828,2241.7828,2241.7981,,,,0,43,43,43,1,165,55,,,,,,,,
,,615fe53328089522ce2661ed,65af5603f1fd1b2813087bd0,2024-01-23_08h01.25.553,bars,2023.2.3,Win32,56.81818182,657b66ea316d21385b68909f,,,,,,,,,,,2241.7983,2242.8,,,2243.2911,2243.5363,,119,119,,,,,,,,,,,,,,,,bars/028.png,bars/mask001.png,,,,,,,,,,,,0,2,,,,,,,0,2,0,0,,,,,,,,,,,2242.8,2243.2911,2243.5364,2244.86,space,1.3158,,2244.86,74,1,2245.8503,2245.8503,2245.8508,,,,0,44,44,44,1,45,120,,,,,,,,
,,615fe53328089522ce2661ed,65af5603f1fd1b2813087bd0,2024-01-23_08h01.25.553,bars,2023.2.3,Win32,56.81818182,657b66ea316d21385b68909f,,,,,,,,,,,2245.851,2246.8433,,,2247.3403,2247.5886,,106,106,,,,,,,,,,,,,,,,bars/018.png,bars/mask004.png,,,,,,,,,,,,1,2,,,,,,,2,4,2,3,,,,,,,,,,,2246.8433,2247.3403,2247.5886,2249.0889,space,1.4891,,2249.0889,44,16,2250.0791,2250.0792,2250.0796,,,,0,45,45,45,1,150,90,,,,,,,,
,,615fe53328089522ce2661ed,65af5603f1fd1b2813087bd0,2024-01-23_08h01.25.553,bars,2023.2.3,Win32,56.81818182,657b66ea316d21385b68909f,,,,,,,,,,,2250.0798,2251.085,,,2251.5769,2251.8249,,112,112,,,,,,,,,,,,,,,,bars/045.png,bars/mask009.png,,,,,,,,,,,,2,1,,,,,,,4,6,4,6,,,,,,,,,,,2251.085,2251.5769,2251.8249,2255.0312,space,3.1996,,2255.0312,12,78,2256.0181,2256.0181,2256.0248,,,,0,46,46,46,1,100,10,,,,,,,,
,,615fe53328089522ce2661ed,65af5603f1fd1b2813087bd0,2024-01-23_08h01.25.553,bars,2023.2.3,Win32,56.81818182,657b66ea316d21385b68909f,,,,,,,,,,,2256.0249,2257.0224,,,2257.5148,2257.7642,,141,141,,,,,,,,,,,,,,,,bars/001.png,bars/mask005.png,,,,,,,,,,,,1,1,,,,,,,2,8,2,7,,,,,,,,,,,2257.0224,2257.5147,2257.7642,2259.7232,space,1.9471,,2259.7232,11,56,2260.7261,2260.7262,2260.7266,,,,0,47,47,47,1,130,85,,,,,,,,
,,615fe53328089522ce2661ed,65af5603f1fd1b2813087bd0,2024-01-23_08h01.25.553,bars,2023.2.3,Win32,56.81818182,657b66ea316d21385b68909f,,,,,,,,,,,2260.7268,2261.7147,,,2262.2081,2262.4539,,102,102,,,,,,,,,,,,,,,,bars/012.png,bars/mask002.png,,,,,,,,,,,,1,1,,,,,,,4,6,2,5,,,,,,,,,,,2261.7147,2262.2081,2262.4539,2266.5902,space,4.129,,2266.5903,12,87,2267.5807,2267.5808,2267.587,,,,0,48,48,48,1,90,15,,,,,,,,
,,615fe53328089522ce2661ed,65af5603f1fd1b2813087bd0,2024-01-23_08h01.25.553,bars,2023.2.3,Win32,56.81818182,657b66ea316d21385b68909f,,,,,,,,,,,2267.5872,2268.5854,,,2269.0766,2269.3232,,179,179,,,,,,,,,,,,,,,,bars/007.png,bars/mask004.png,,,,,,,,,,,,1,1,,,,,,,2,8,1,8,,,,,,,,,,,2268.5854,2269.0765,2269.3232,2273.0051,space,3.6653,,2273.0051,4,56,2273.9946,2273.9947,2274.0008,,,,0,49,49,49,1,175,55,,,,,,,,
,,615fe53328089522ce2661ed,65af5603f1fd1b2813087bd0,2024-01-23_08h01.25.553,bars,2023.2.3,Win32,56.81818182,657b66ea316d21385b68909f,,,,,,,,,,,,,,,,,,,,,,,,,,,,,,,,,,,,,,,,,,,,,,,,,,,,,,,,,,,,,,,,,,,,,,,,,,,,,,,,,,,,,,,,,,,,,2274.0008,2333.9916,0,3,3,4,1,sequence_tables/blk042.csv
,,615fe53328089522ce2661ed,65af5603f1fd1b2813087bd0,2024-01-23_08h01.25.553,bars,2023.2.3,Win32,56.81818182,657b66ea316d21385b68909f,,,,,,,,,,,2437.3779,2438.3781,,,2438.8756,2439.1235,,28,28,,,,,,,,,,,,,,,,bars/012.png,bars/mask004.png,,,,,,,,,,,,1,2,,,,,,,8,2,9,1,,,,,,2333.9975,2437.3698,space,103.36,,2438.3781,2438.8756,2439.1235,2443.6434,space,4.5115,,2443.6435,62,13,2444.6455,2444.6455,2444.656,,,,0,0,0,0,1,90,15,,,,,,,,
,,615fe53328089522ce2661ed,65af5603f1fd1b2813087bd0,2024-01-23_08h01.25.553,bars,2023.2.3,Win32,56.81818182,657b66ea316d21385b68909f,,,,,,,,,,,2444.6561,2445.6458,,,2446.1409,2446.3881,,52,52,,,,,,,,,,,,,,,,bars/026.png,bars/mask000.png,,,,,,,,,,,,3,1,,,,,,,6,4,6,4,,,,,,,,,,,2445.6458,2446.1408,2446.3881,2449.2241,space,2.8321,,2449.2242,17,33,2450.2131,2450.2132,2450.22,,,,0,1,1,1,1,35,85,,,,,,,,
,,615fe53328089522ce2661ed,65af5603f1fd1b2813087bd0,2024-01-23_08h01.25.553,bars,2023.2.3,Win32,56.81818182,657b66ea316d21385b68909f,,,,,,,,,,,2450.2202,2451.2172,,,2451.7095,2451.9538,,141,-39,,,,,,,,,,,,,,,,bars/034.png,bars/mask003.png,,,,,,,,,,,,4,1,,,,,,,8,2,8,2,,,,,,,,,,,2451.2172,2451.7095,2451.9538,2455.7723,space,3.809,,2455.7724,16,76,2456.7763,2456.7763,2456.7827,,,,0,2,2,2,1,125,65,,,,,,,,
,,615fe53328089522ce2661ed,65af5603f1fd1b2813087bd0,2024-01-23_08h01.25.553,bars,2023.2.3,Win32,56.81818182,657b66ea316d21385b68909f,,,,,,,,,,,2456.7828,2457.7837,,,2458.2819,2458.5309,,52,52,,,,,,,,,,,,,,,,bars/028.png,bars/mask004.png,,,,,,,,,,,,4,1,,,,,,,6,4,5,5,,,,,,,,,,,2457.7837,2458.2819,2458.531,2459.8163,space,1.2777,,2459.8164,7,68,2460.8034,2460.8034,2460.8039,,,,0,3,3,3,1,45,120,,,,,,,,
,,615fe53328089522ce2661ed,65af5603f1fd1b2813087bd0,2024-01-23_08h01.25.553,bars,2023.2.3,Win32,56.81818182,657b66ea316d21385b68909f,,,,,,,,,,,2460.804,2461.8075,,,2462.2991,2462.5439,,23,203,,,,,,,,,,,,,,,,bars/023.png,bars/mask004.png,,,,,,,,,,,,5,1,,,,,,,4,2,5,1,,,,,,,,,,,2461.8075,2462.2991,2462.5439,2466.1376,space,3.5819,,2466.1376,3,88,2467.1409,2467.1409,2467.1537,,,,0,4,4,4,1,20,115,,,,,,,,
,,615fe53328089522ce2661ed,65af5603f1fd1b2813087bd0,2024-01-23_08h01.25.553,bars,2023.2.3,Win32,56.81818182,657b66ea316d21385b68909f,,,,,,,,,,,2467.1538,2468.1493,,,2468.649,2468.8959,,133,133,,,,,,,,,,,,,,,,bars/017.png,bars/mask000.png,,,,,,,,,,,,2,1,,,,,,,2,0,3,2,,,,,,,,,,,2468.1493,2468.649,2468.8959,2470.8151,space,1.9088,,2470.8151,12,88,2471.8048,2471.8049,2471.811,,,,0,5,5,5,1,145,45,,,,,,,,
,,615fe53328089522ce2661ed,65af5603f1fd1b2813087bd0,2024-01-23_08h01.25.553,bars,2023.2.3,Win32,56.81818182,657b66ea316d21385b68909f,,,,,,,,,,,2471.8112,2472.8095,,,2473.3063,2473.5547,,149,149,,,,,,,,,,,,,,,,bars/049.png,bars/mask009.png,,,,,,,,,,,,1,1,,,,,,,0,2,1,3,,,,,,,,,,,2472.8095,2473.3063,2473.5547,2476.1334,space,2.5736,,2476.1335,11,34,2477.1205,2477.1205,2477.1261,,,,0,6,6,6,1,160,115,,,,,,,,
,,615fe53328089522ce2661ed,65af5603f1fd1b2813087bd0,2024-01-23_08h01.25.553,bars,2023.2.3,Win32,56.81818182,657b66ea316d21385b68909f,,,,,,,,,,,2477.1262,2478.1213,,,2478.6141,2478.8619,,18,18,,,,,,,,,,,,,,,,bars/023.png,bars/mask007.png,,,,,,,,,,,,2,1,,,,,,,2,0,2,0,,,,,,,,,,,2478.1213,2478.614,2478.8619,2483.1427,space,4.2741,,2483.1427,2,83,2484.1308,2484.1309,2484.1367,,,,0,7,7,7,1,20,115,,,,,,,,
,,615fe53328089522ce2661ed,65af5603f1fd1b2813087bd0,2024-01-23_08h01.25.553,bars,2023.2.3,Win32,56.81818182,657b66ea316d21385b68909f,,,,,,,,,,,2484.1368,2485.1265,,,2485.6233,2485.8699,,107,107,,,,,,,,,,,,,,,,bars/037.png,bars/mask007.png,,,,,,,,,,,,2,2,,,,,,,0,2,0,2,,,,,,,,,,,2485.1266,2485.6233,2485.8699,2489.4617,space,3.5812,,2489.4617,43,2,2490.4489,2490.4489,2490.4547,,,,0,8,8,8,1,150,105,,,,,,,,
,,615fe53328089522ce2661ed,65af5603f1fd1b2813087bd0,2024-01-23_08h01.25.553,bars,2023.2.3,Win32,56.81818182,657b66ea316d21385b68909f,,,,,,,,,,,2490.4548,2491.4536,,,2491.9444,2492.1902,,47,47,,,,,,,,,,,,,,,,bars/007.png,bars/mask002.png,,,,,,,,,,,,3,2,,,,,,,0,4,0,4,,,,,,,,,,,2491.4536,2491.9443,2492.1902,2496.3051,space,4.1017,,2496.3052,52,8,2497.2935,2497.2935,2497.2993,,,,0,9,9,9,1,175,55,,,,,,,,
,,615fe53328089522ce2661ed,65af5603f1fd1b2813087bd0,2024-01-23_08h01.25.553,bars,2023.2.3,Win32,56.81818182,657b66ea316d21385b68909f,,,,,,,,,,,2497.2994,2498.2984,,,2498.7908,2499.0365,,147,147,,,,,,,,,,,,,,,,bars/040.png,bars/mask005.png,,,,,,,,,,,,2,1,,,,,,,0,6,3,5,,,,,,,,,,,2498.2984,2498.7908,2499.0366,2503.5309,space,4.4769,,2503.531,7,38,2504.5342,2504.5343,2504.5408,,,,0,10,10,10,1,140,5,,,,,,,,
