init_variables.started,init_variables.stopped,participant,session,date,expName,psychopyVersion,OS,frameRate,study_id,instruction_exp.started,instruction_exp.stopped,key_resp_8.keys,key_resp_8.rt,key_resp_8.duration,instruction_single.started,instruction_single.stopped,key_resp_2.keys,key_resp_2.rt,key_resp_2.duration,interval.started,interval.stopped,cue_single.started,cue_single.stopped,mask.started,mask.stopped,ori_response_single.started,res_ori,res,ori_response_single.stopped,key_resp_single.keys,key_resp_single.rt,key_resp_single.duration,disp_single.started,disp_single.stopped,key_resp.keys,key_resp.rt,key_resp.duration,single.thisRepN,single.thisTrialN,single.thisN,single.thisIndex,single.ran,ori,path,mask_path,instruction_bandit.started,instruction_bandit.stopped,key_resp_6.keys,key_resp_6.rt,key_resp_6.duration,cue_bandit.started,cue_bandit.stopped,bandit_res.keys,bandit_res.rt,bandit_res.duration,outcome_bandit.started,rew,action,outcome_bandit.stopped,bandit.thisRepN,bandit.thisTrialN,bandit.thisN,bandit.thisIndex,bandit.ran,actual_rew1,actual_rew2,rew1,rew2,instruction_task.started,instruction_task.stopped,key_resp_7.keys,key_resp_7.rt,key_resp_7.duration,wait_ready.started,wait_ready.stopped,key_resp_3.keys,key_resp_3.rt,key_resp_3.duration,cue.started,cue.stopped,ori_response.started,ori_response.stopped,key_resp_5.keys,key_resp_5.rt,key_resp_5.duration,outcome.started,diff1,diff2,outcome.stopped,disp_outcome_practice.started,disp_outcome_practice.stopped,key_resp_4.keys,key_resp_4.rt,key_resp_4.duration,trials.thisRepN,trials.thisTrialN,trials.thisN,trials.thisIndex,trials.ran,ori1,ori2,break_blk.started,break_blk.stopped,block.thisRepN,block.thisTrialN,block.thisN,block.thisIndex,block.ran,condition_file
0.001,0.0015,61645511546f08038b19f62c,65af54fefa16a017ecb780b3,2024-01-23_07h57.45.731,bars,2023.2.3,Linux x86_64,31.05590062,657b66ea316d21385b68909f,,,,,,,,,,,,,,,,,,,,,,,,,,,,,,,,,,,,,,,,,,,,,,,,,,,,,,,,,,,,,,,,,,,,,,,,,,,,,,,,,,,,,,,,,,,,,,,,,,,,
,,61645511546f08038b19f62c,65af54fefa16a017ecb780b3,2024-01-23_07h57.45.731,bars,2023.2.3,Linux x86_64,31.05590062,657b66ea316d21385b68909f,0.0023,16.7773,y,15.9986,0.0448,,,,,,,,,,,,,,,,,,,,,,,,,,,,,,,,,,,,,,,,,,,,,,,,,,,,,,,,,,,,,,,,,,,,,,,,,,,,,,,,,,,,,,,,,,,,,,,
,,61645511546f08038b19f62c,65af54fefa16a017ecb780b3,2024-01-23_07h57.45.731,bars,2023.2.3,Linux x86_64,31.05590062,657b66ea316d21385b68909f,,,,,,16.7782,666.9895,space,650.1264,0.0006,,,,,,,,,,,,,,,,,,,,,,,,,,,,,,,,,,,,,,,,,,,,,,,,,,,,,,,,,,,,,,,,,,,,,,,,,,,,,,,,,,,,,,,,,,
,,61645511546f08038b19f62c,65af54fefa16a017ecb780b3,2024-01-23_07h57.45.731,bars,2023.2.3,Linux x86_64,31.05590062,657b66ea316d21385b68909f,,,,,,,,,,,667.0112,667.9875,667.9878,668.464,668.4643,668.7135,668.7139,90,90,685.9239,space,17.1264,,685.9244,702.5667,space,16.5571,,0,0,0,8,1,160,bars/single008.png,bars/mask004.png,,,,,,,,,,,,,,,,,,,,,,,,,,,,,,,,,,,,,,,,,,,,,,,,,,,,,,,,,,,,,,,,
,,61645511546f08038b19f62c,65af54fefa16a017ecb780b3,2024-01-23_07h57.45.731,bars,2023.2.3,Linux x86_64,31.05590062,657b66ea316d21385b68909f,,,,,,,,,,,702.61,703.5772,703.5773,704.0675,704.0676,704.2802,704.2803,149,149,709.6088,space,5.2943,,709.609,715.8824,space,6.214,,0,1,1,6,1,175,bars/single006.png,bars/mask005.png,,,,,,,,,,,,,,,,,,,,,,,,,,,,,,,,,,,,,,,,,,,,,,,,,,,,,,,,,,,,,,,,
,,61645511546f08038b19f62c,65af54fefa16a017ecb780b3,2024-01-23_07h57.45.731,bars,2023.2.3,Linux x86_64,31.05590062,657b66ea316d21385b68909f,,,,,,,,,,,715.921,716.8844,716.8845,717.3724,717.3725,717.6064,717.6065,103,103,724.6928,space,7.0569,,724.6928,728.0681,space,3.3192,,0,2,2,4,1,95,bars/single004.png,bars/mask004.png,,,,,,,,,,,,,,,,,,,,,,,,,,,,,,,,,,,,,,,,,,,,,,,,,,,,,,,,,,,,,,,,
,,61645511546f08038b19f62c,65af54fefa16a017ecb780b3,2024-01-23_07h57.45.731,bars,2023.2.3,Linux x86_64,31.05590062,657b66ea316d21385b68909f,,,,,,,,,,,728.1087,729.0743,729.0745,729.5919,729.592,729.8301,729.8301,51,51,736.1598,space,6.2999,,736.1599,739.0586,space,2.8333,,0,3,3,1,1,20,bars/single001.png,bars/mask006.png,,,,,,,,,,,,,,,,,,,,,,,,,,,,,,,,,,,,,,,,,,,,,,,,,,,,,,,,,,,,,,,,
,,61645511546f08038b19f62c,65af54fefa16a017ecb780b3,2024-01-23_07h57.45.731,bars,2023.2.3,Linux x86_64,31.05590062,657b66ea316d21385b68909f,,,,,,,,,,,739.0596,740.0469,740.047,740.5307,740.5308,740.7631,740.7631,24,24,743.3951,space,2.5909,,743.3952,744.8095,space,1.3698,,0,4,4,7,1,45,bars/single007.png,bars/mask009.png,,,,,,,,,,,,,,,,,,,,,,,,,,,,,,,,,,,,,,,,,,,,,,,,,,,,,,,,,,,,,,,,
,,61645511546f08038b19f62c,65af54fefa16a017ecb780b3,2024-01-23_07h57.45.731,bars,2023.2.3,Linux x86_64,31.05590062,657b66ea316d21385b68909f,,,,,,,,,,,744.8104,745.8085,745.8085,746.3156,746.3157,746.5579,746.5579,144,144,757.0892,space,10.5007,,757.0894,758.6965,space,1.5416,,0,5,5,2,1,145,bars/single002.png,bars/mask003.png,,,,,,,,,,,,,,,,,,,,,,,,,,,,,,,,,,,,,,,,,,,,,,,,,,,,,,,,,,,,,,,,
,,61645511546f08038b19f62c,65af54fefa16a017ecb780b3,2024-01-23_07h57.45.731,bars,2023.2.3,Linux x86_64,31.05590062,657b66ea316d21385b68909f,,,,,,,,,,,758.6971,759.6914,759.6914,760.1877,760.1878,760.4181,760.4182,40,40,765.1327,space,4.6869,,765.1329,766.3779,space,1.1837,,0,6,6,5,1,55,bars/single005.png,bars/mask008.png,,,,,,,,,,,,,,,,,,,,,,,,,,,,,,,,,,,,,,,,,,,,,,,,,,,,,,,,,,,,,,,,
,,61645511546f08038b19f62c,65af54fefa16a017ecb780b3,2024-01-23_07h57.45.731,bars,2023.2.3,Linux x86_64,31.05590062,657b66ea316d21385b68909f,,,,,,,,,,,766.383,767.3708,767.3709,767.8485,767.8486,768.1032,768.1032,12,12,769.1682,space,1.0365,,769.1682,770.1221,space,0.9156,,0,7,7,3,1,20,bars/single003.png,bars/mask005.png,,,,,,,,,,,,,,,,,,,,,,,,,,,,,,,,,,,,,,,,,,,,,,,,,,,,,,,,,,,,,,,,
,,61645511546f08038b19f62c,65af54fefa16a017ecb780b3,2024-01-23_07h57.45.731,bars,2023.2.3,Linux x86_64,31.05590062,657b66ea316d21385b68909f,,,,,,,,,,,770.1228,771.1271,771.1271,771.613,771.613,771.8405,771.8406,142,142,777.7698,space,5.8981,,777.7699,785.6366,space,7.8067,,0,8,8,0,1,150,bars/single000.png,bars/mask006.png,,,,,,,,,,,,,,,,,,,,,,,,,,,,,,,,,,,,,,,,,,,,,,,,,,,,,,,,,,,,,,,,
,,61645511546f08038b19f62c,65af54fefa16a017ecb780b3,2024-01-23_07h57.45.731,bars,2023.2.3,Linux x86_64,31.05590062,657b66ea316d21385b68909f,,,,,,,,,,,785.6793,786.6612,786.6612,787.1551,787.1551,787.39,787.39,22,22,791.1178,space,3.7046,,791.1179,792.5503,space,1.3748,,0,9,9,9,1,20,bars/single009.png,bars/mask006.png,,,,,,,,,,,,,,,,,,,,,,,,,,,,,,,,,,,,,,,,,,,,,,,,,,,,,,,,,,,,,,,,
,,61645511546f08038b19f62c,65af54fefa16a017ecb780b3,2024-01-23_07h57.45.731,bars,2023.2.3,Linux x86_64,31.05590062,657b66ea316d21385b68909f,,,,,,,,,,,,,,,,,,,,,,,,,,,,,,,,,,,,,792.5541,827.6717,space,35.0681,,,,,,,,,,,,,,,,,,,,,,,,,,,,,,,,,,,,,,,,,,,,,,,,,,,,,,,,,,,,
,,61645511546f08038b19f62c,65af54fefa16a017ecb780b3,2024-01-23_07h57.45.731,bars,2023.2.3,Linux x86_64,31.05590062,657b66ea316d21385b68909f,,,,,,,,,,,,,,,,,,,,,,,,,,,,,,,,,,,,,,,,,,827.7245,829.6178,right,1.8607,,829.6183,2,2,830.622,0,0,0,0,1,9,1,9,2,,,,,,,,,,,,,,,,,,,,,,,,,,,,,,,,,,,,,,,,,
,,61645511546f08038b19f62c,65af54fefa16a017ecb780b3,2024-01-23_07h57.45.731,bars,2023.2.3,Linux x86_64,31.05590062,657b66ea316d21385b68909f,,,,,,,,,,,,,,,,,,,,,,,,,,,,,,,,,,,,,,,,,,830.623,832.0321,left,1.3819,,832.0321,10,1,833.0112,0,1,1,1,1,10,0,10,1,,,,,,,,,,,,,,,,,,,,,,,,,,,,,,,,,,,,,,,,,
,,61645511546f08038b19f62c,65af54fefa16a017ecb780b3,2024-01-23_07h57.45.731,bars,2023.2.3,Linux x86_64,31.05590062,657b66ea316d21385b68909f,,,,,,,,,,,,,,,,,,,,,,,,,,,,,,,,,,,,,,,,,,833.0119,835.0509,left,2.0081,,835.0511,10,1,836.0304,0,2,2,2,1,10,2,10,2,,,,,,,,,,,,,,,,,,,,,,,,,,,,,,,,,,,,,,,,,
,,61645511546f08038b19f62c,65af54fefa16a017ecb780b3,2024-01-23_07h57.45.731,bars,2023.2.3,Linux x86_64,31.05590062,657b66ea316d21385b68909f,,,,,,,,,,,,,,,,,,,,,,,,,,,,,,,,,,,,,,,,,,836.0722,837.1528,right,1.0597,,837.1529,3,2,838.1294,0,3,3,3,1,8,4,7,3,,,,,,,,,,,,,,,,,,,,,,,,,,,,,,,,,,,,,,,,,
,,61645511546f08038b19f62c,65af54fefa16a017ecb780b3,2024-01-23_07h57.45.731,bars,2023.2.3,Linux x86_64,31.05590062,657b66ea316d21385b68909f,,,,,,,,,,,,,,,,,,,,,,,,,,,,,,,,,,,,,,,,,,838.1301,839.0535,left,0.8731,,839.0536,5,1,840.0502,0,4,4,4,1,6,2,5,1,,,,,,,,,,,,,,,,,,,,,,,,,,,,,,,,,,,,,,,,,
,,61645511546f08038b19f62c,65af54fefa16a017ecb780b3,2024-01-23_07h57.45.731,bars,2023.2.3,Linux x86_64,31.05590062,657b66ea316d21385b68909f,,,,,,,,,,,,,,,,,,,,,,,,,,,,,,,,,,,,,,,,,,840.0508,840.6477,left,0.5688,,840.6478,4,1,841.6312,0,5,5,5,1,4,4,4,4,,,,,,,,,,,,,,,,,,,,,,,,,,,,,,,,,,,,,,,,,
,,61645511546f08038b19f62c,65af54fefa16a017ecb780b3,2024-01-23_07h57.45.731,bars,2023.2.3,Linux x86_64,31.05590062,657b66ea316d21385b68909f,,,,,,,,,,,,,,,,,,,,,,,,,,,,,,,,,,,,,,,,,,841.6319,842.403,left,0.7383,,842.4031,1,1,843.3975,0,6,6,6,1,2,2,1,2,,,,,,,,,,,,,,,,,,,,,,,,,,,,,,,,,,,,,,,,,
,,61645511546f08038b19f62c,65af54fefa16a017ecb780b3,2024-01-23_07h57.45.731,bars,2023.2.3,Linux x86_64,31.05590062,657b66ea316d21385b68909f,,,,,,,,,,,,,,,,,,,,,,,,,,,,,,,,,,,,,,,,,,843.3982,844.1568,left,0.7227,,844.1569,0,1,845.131,0,7,7,7,1,0,0,0,1,,,,,,,,,,,,,,,,,,,,,,,,,,,,,,,,,,,,,,,,,
,,61645511546f08038b19f62c,65af54fefa16a017ecb780b3,2024-01-23_07h57.45.731,bars,2023.2.3,Linux x86_64,31.05590062,657b66ea316d21385b68909f,,,,,,,,,,,,,,,,,,,,,,,,,,,,,,,,,,,,,,,,,,845.1316,845.7526,right,0.5886,,845.7527,0,2,846.7418,0,8,8,8,1,0,2,1,0,,,,,,,,,,,,,,,,,,,,,,,,,,,,,,,,,,,,,,,,,
,,61645511546f08038b19f62c,65af54fefa16a017ecb780b3,2024-01-23_07h57.45.731,bars,2023.2.3,Linux x86_64,31.05590062,657b66ea316d21385b68909f,,,,,,,,,,,,,,,,,,,,,,,,,,,,,,,,,,,,,,,,,,846.7423,847.2488,left,0.4726,,847.2489,2,1,848.2275,0,9,9,9,1,2,4,2,3,,,,,,,,,,,,,,,,,,,,,,,,,,,,,,,,,,,,,,,,,
,,61645511546f08038b19f62c,65af54fefa16a017ecb780b3,2024-01-23_07h57.45.731,bars,2023.2.3,Linux x86_64,31.05590062,657b66ea316d21385b68909f,,,,,,,,,,,,,,,,,,,,,,,,,,,,,,,,,,,,,,,,,,848.2384,848.8049,left,0.5152,,848.805,0,1,849.8137,0,10,10,10,1,0,2,0,3,,,,,,,,,,,,,,,,,,,,,,,,,,,,,,,,,,,,,,,,,
,,61645511546f08038b19f62c,65af54fefa16a017ecb780b3,2024-01-23_07h57.45.731,bars,2023.2.3,Linux x86_64,31.05590062,657b66ea316d21385b68909f,,,,,,,,,,,,,,,,,,,,,,,,,,,,,,,,,,,,,,,,,,849.8145,850.301,right,0.461,,850.3011,3,2,851.2848,0,11,11,11,1,0,4,0,3,,,,,,,,,,,,,,,,,,,,,,,,,,,,,,,,,,,,,,,,,
,,61645511546f08038b19f62c,65af54fefa16a017ecb780b3,2024-01-23_07h57.45.731,bars,2023.2.3,Linux x86_64,31.05590062,657b66ea316d21385b68909f,,,,,,,,,,,,,,,,,,,,,,,,,,,,,,,,,,,,,,,,,,851.2854,851.6622,right,0.3445,,851.6623,6,2,852.6427,0,12,12,12,1,2,6,1,6,,,,,,,,,,,,,,,,,,,,,,,,,,,,,,,,,,,,,,,,,
,,61645511546f08038b19f62c,65af54fefa16a017ecb780b3,2024-01-23_07h57.45.731,bars,2023.2.3,Linux x86_64,31.05590062,657b66ea316d21385b68909f,,,,,,,,,,,,,,,,,,,,,,,,,,,,,,,,,,,,,,,,,,852.6433,853.1899,right,0.5147,,853.1901,3,2,854.1879,0,13,13,13,1,0,4,1,3,,,,,,,,,,,,,,,,,,,,,,,,,,,,,,,,,,,,,,,,,
,,61645511546f08038b19f62c,65af54fefa16a017ecb780b3,2024-01-23_07h57.45.731,bars,2023.2.3,Linux x86_64,31.05590062,657b66ea316d21385b68909f,,,,,,,,,,,,,,,,,,,,,,,,,,,,,,,,,,,,,,,,,,854.1885,854.6636,left,0.4338,,854.6636,2,1,855.6436,0,14,14,14,1,2,6,2,7,,,,,,,,,,,,,,,,,,,,,,,,,,,,,,,,,,,,,,,,,
,,61645511546f08038b19f62c,65af54fefa16a017ecb780b3,2024-01-23_07h57.45.731,bars,2023.2.3,Linux x86_64,31.05590062,657b66ea316d21385b68909f,,,,,,,,,,,,,,,,,,,,,,,,,,,,,,,,,,,,,,,,,,855.6444,856.0386,left,0.3698,,856.0387,3,1,857.0231,0,15,15,15,1,4,8,3,9,,,,,,,,,,,,,,,,,,,,,,,,,,,,,,,,,,,,,,,,,
,,61645511546f08038b19f62c,65af54fefa16a017ecb780b3,2024-01-23_07h57.45.731,bars,2023.2.3,Linux x86_64,31.05590062,657b66ea316d21385b68909f,,,,,,,,,,,,,,,,,,,,,,,,,,,,,,,,,,,,,,,,,,857.0237,857.4948,left,0.43,,857.4949,7,1,858.4843,0,16,16,16,1,6,6,7,7,,,,,,,,,,,,,,,,,,,,,,,,,,,,,,,,,,,,,,,,,
,,61645511546f08038b19f62c,65af54fefa16a017ecb780b3,2024-01-23_07h57.45.731,bars,2023.2.3,Linux x86_64,31.05590062,657b66ea316d21385b68909f,,,,,,,,,,,,,,,,,,,,,,,,,,,,,,,,,,,,,,,,,,858.4849,858.8662,right,0.3501,,858.8662,5,2,859.8626,0,17,17,17,1,8,4,9,5,,,,,,,,,,,,,,,,,,,,,,,,,,,,,,,,,,,,,,,,,
,,61645511546f08038b19f62c,65af54fefa16a017ecb780b3,2024-01-23_07h57.45.731,bars,2023.2.3,Linux x86_64,31.05590062,657b66ea316d21385b68909f,,,,,,,,,,,,,,,,,,,,,,,,,,,,,,,,,,,,,,,,,,859.8633,860.2179,right,0.3274,,860.218,1,2,861.1939,0,18,18,18,1,6,2,5,1,,,,,,,,,,,,,,,,,,,,,,,,,,,,,,,,,,,,,,,,,
,,61645511546f08038b19f62c,65af54fefa16a017ecb780b3,2024-01-23_07h57.45.731,bars,2023.2.3,Linux x86_64,31.05590062,657b66ea316d21385b68909f,,,,,,,,,,,,,,,,,,,,,,,,,,,,,,,,,,,,,,,,,,861.1947,861.5212,right,0.2939,,861.5213,0,2,862.5038,0,19,19,19,1,8,0,7,0,,,,,,,,,,,,,,,,,,,,,,,,,,,,,,,,,,,,,,,,,
,,61645511546f08038b19f62c,65af54fefa16a017ecb780b3,2024-01-23_07h57.45.731,bars,2023.2.3,Linux x86_64,31.05590062,657b66ea316d21385b68909f,,,,,,,,,,,,,,,,,,,,,,,,,,,,,,,,,,,,,,,,,,,,,,,,,,,,,,,,,,,,862.506,914.6015,space,52.0494,,,,,,,,,,,,,,,,,,,,,,,,,,,,,,,,,,,,,
,,61645511546f08038b19f62c,65af54fefa16a017ecb780b3,2024-01-23_07h57.45.731,bars,2023.2.3,Linux x86_64,31.05590062,657b66ea316d21385b68909f,,,,,,,,,,,1052.3626,1053.3405,,,1053.8405,1054.0728,,91,91,,,,,,,,,,,,,,,,bars/006.png,bars/mask006.png,,,,,,,,,,,,5,2,,,,,,,4,7,3,7,,,,,,914.649,1052.3099,space,137.6377,,1053.3409,1053.8404,1054.0732,1058.8266,space,4.7066,,1058.8272,56,9,1059.8311,1059.8314,1080.5211,space,20.6322,,0,0,0,0,1,35,100,,,,,,,,
,,61645511546f08038b19f62c,65af54fefa16a017ecb780b3,2024-01-23_07h57.45.731,bars,2023.2.3,Linux x86_64,31.05590062,657b66ea316d21385b68909f,,,,,,,,,,,1080.5605,1081.5457,,,1082.0293,1082.2587,,94,94,,,,,,,,,,,,,,,,bars/026.png,bars/mask009.png,,,,,,,,,,,,4,2,,,,,,,6,5,7,5,,,,,,,,,,,1081.5458,1082.0292,1082.2588,1086.4638,space,4.1669,,1086.464,59,9,1087.4499,1087.45,1094.5036,space,6.9915,,0,1,1,1,1,35,85,,,,,,,,
,,61645511546f08038b19f62c,65af54fefa16a017ecb780b3,2024-01-23_07h57.45.731,bars,2023.2.3,Linux x86_64,31.05590062,657b66ea316d21385b68909f,,,,,,,,,,,1094.5444,1095.5132,,,1095.993,1096.2489,,123,123,,,,,,,,,,,,,,,,bars/025.png,bars/mask000.png,,,,,,,,,,,,2,1,,,,,,,4,3,4,4,,,,,,,,,,,1095.5132,1095.9929,1096.249,1100.7207,space,4.4236,,1100.7209,18,83,1101.7144,1101.7144,1104.8878,space,3.1065,,0,2,2,2,1,105,40,,,,,,,,
,,61645511546f08038b19f62c,65af54fefa16a017ecb780b3,2024-01-23_07h57.45.731,bars,2023.2.3,Linux x86_64,31.05590062,657b66ea316d21385b68909f,,,,,,,,,,,1104.9265,1105.8985,,,1106.3889,1106.6204,,23,23,,,,,,,,,,,,,,,,bars/022.png,bars/mask001.png,,,,,,,,,,,,5,2,,,,,,,2,5,2,5,,,,,,,,,,,1105.8985,1106.3889,1106.6204,1109.4414,space,2.7907,,1109.4415,72,3,1110.4293,1110.4294,1112.4956,space,1.9972,,0,3,3,3,1,95,20,,,,,,,,
,,61645511546f08038b19f62c,65af54fefa16a017ecb780b3,2024-01-23_07h57.45.731,bars,2023.2.3,Linux x86_64,31.05590062,657b66ea316d21385b68909f,,,,,,,,,,,1112.4966,1113.4932,,,1114.0105,1114.2653,,26,206,,,,,,,,,,,,,,,,bars/035.png,bars/mask006.png,,,,,,,,,,,,0,1,,,,,,,0,3,1,4,,,,,,,,,,,1113.4932,1114.0104,1114.2654,1118.8042,space,4.5013,,1118.8044,31,34,1119.7921,1119.7921,1125.4682,space,5.6009,,0,4,4,4,1,175,60,,,,,,,,
,,61645511546f08038b19f62c,65af54fefa16a017ecb780b3,2024-01-23_07h57.45.731,bars,2023.2.3,Linux x86_64,31.05590062,657b66ea316d21385b68909f,,,,,,,,,,,1125.5094,1126.4764,,,1126.9688,1127.2244,,177,-3,,,,,,,,,,,,,,,,bars/014.png,bars/mask009.png,,,,,,,,,,,,2,2,,,,,,,0,5,0,2,,,,,,,,,,,1126.4765,1126.9688,1127.2245,1129.3409,space,2.0883,,1129.341,83,3,1130.3176,1130.3177,1132.6452,space,2.2552,,0,5,5,5,1,80,0,,,,,,,,
,,61645511546f08038b19f62c,65af54fefa16a017ecb780b3,2024-01-23_07h57.45.731,bars,2023.2.3,Linux x86_64,31.05590062,657b66ea316d21385b68909f,,,,,,,,,,,1132.6462,1133.6412,,,1134.1183,1134.3537,,147,147,,,,,,,,,,,,,,,,bars/037.png,bars/mask002.png,,,,,,,,,,,,3,1,,,,,,,2,7,3,6,,,,,,,,,,,1133.6412,1134.1182,1134.3538,1136.4829,space,2.0925,,1136.483,3,42,1137.4673,1137.4674,1142.8985,space,5.3709,,0,6,6,6,1,150,105,,,,,,,,
,,61645511546f08038b19f62c,65af54fefa16a017ecb780b3,2024-01-23_07h57.45.731,bars,2023.2.3,Linux x86_64,31.05590062,657b66ea316d21385b68909f,,,,,,,,,,,1142.9352,1143.9176,,,1144.4028,1144.6465,,23,23,,,,,,,,,,,,,,,,bars/031.png,bars/mask007.png,,,,,,,,,,,,5,2,,,,,,,0,9,0,9,,,,,,,,,,,1143.9176,1144.4027,1144.6466,1147.6033,space,2.9198,,1147.6035,83,12,1148.5954,1148.5955,1150.1572,space,1.4911,,0,7,7,7,1,120,35,,,,,,,,
,,61645511546f08038b19f62c,65af54fefa16a017ecb780b3,2024-01-23_07h57.45.731,bars,2023.2.3,Linux x86_64,31.05590062,657b66ea316d21385b68909f,,,,,,,,,,,1150.1579,1151.1404,,,1151.6325,1151.885,,90,270,,,,,,,,,,,,,,,,bars/002.png,bars/mask009.png,,,,,,,,,,,,8,2,,,,,,,0,10,0,10,,,,,,,,,,,1151.1404,1151.6325,1151.8851,1156.426,space,4.5056,,1156.4262,40,5,1157.4325,1157.4325,1158.6281,space,1.1315,,0,8,8,8,1,130,85,,,,,,,,
,,61645511546f08038b19f62c,65af54fefa16a017ecb780b3,2024-01-23_07h57.45.731,bars,2023.2.3,Linux x86_64,31.05590062,657b66ea316d21385b68909f,,,,,,,,,,,1158.6309,1159.6203,,,1160.1198,1160.3776,,176,-4,,,,,,,,,,,,,,,,bars/017.png,bars/mask007.png,,,,,,,,,,,,0,1,,,,,,,2,10,2,10,,,,,,,,,,,1159.6203,1160.1198,1160.3776,1163.8856,space,3.4742,,1163.8858,31,49,1164.8678,1164.8678,1166.7963,space,1.856,,0,9,9,9,1,145,45,,,,,,,,
,,61645511546f08038b19f62c,65af54fefa16a017ecb780b3,2024-01-23_07h57.45.731,bars,2023.2.3,Linux x86_64,31.05590062,657b66ea316d21385b68909f,,,,,,,,,,,1166.7988,1167.7861,,,1168.2846,1168.5227,,25,25,,,,,,,,,,,,,,,,bars/012.png,bars/mask008.png,,,,,,,,,,,,7,2,,,,,,,4,10,4,10,,,,,,,,,,,1167.7862,1168.2845,1168.5227,1170.5413,space,1.987,,1170.5415,65,10,1171.5182,1171.5183,1172.7454,space,1.1784,,0,10,10,10,1,90,15,,,,,,,,
,,61645511546f08038b19f62c,65af54fefa16a017ecb780b3,2024-01-23_07h57.45.731,bars,2023.2.3,Linux x86_64,31.05590062,657b66ea316d21385b68909f,,,,,,,,,,,1172.7463,1173.7271,,,1174.2343,1174.4927,,60,60,,,,,,,,,,,,,,,,bars/001.png,bars/mask004.png,,,,,,,,,,,,2,2,,,,,,,2,10,0,10,,,,,,,,,,,1173.7272,1174.2342,1174.4928,1177.6855,space,3.1604,,1177.6856,70,25,1178.6895,1178.6896,1180.314,space,1.5676,,0,11,11,11,1,130,85,,,,,,,,
,,61645511546f08038b19f62c,65af54fefa16a017ecb780b3,2024-01-23_07h57.45.731,bars,2023.2.3,Linux x86_64,31.05590062,657b66ea316d21385b68909f,,,,,,,,,,,1180.3146,1181.3053,,,1181.7973,1182.0504,,160,160,,,,,,,,,,,,,,,,bars/004.png,bars/mask003.png,,,,,,,,,,,,0,2,,,,,,,4,10,4,10,,,,,,,,,,,1181.3053,1181.7973,1182.0505,1182.8232,space,0.741,,1182.8233,45,35,1183.815,1183.815,1187.4484,space,3.5835,,0,12,12,12,1,25,125,,,,,,,,
,,61645511546f08038b19f62c,65af54fefa16a017ecb780b3,2024-01-23_07h57.45.731,bars,2023.2.3,Linux x86_64,31.05590062,657b66ea316d21385b68909f,,,,,,,,,,,1187.4862,1188.4667,,,1188.9574,1189.1838,,143,-37,,,,,,,,,,,,,,,,bars/004.png,bars/mask002.png,,,,,,,,,,,,3,2,,,,,,,6,8,5,7,,,,,,,,,,,1188.4667,1188.9553,1189.1838,1194.2963,space,5.0819,,1194.2964,62,18,1195.3067,1195.3067,1196.3629,space,0.9941,,0,13,13,13,1,25,125,,,,,,,,
,,61645511546f08038b19f62c,65af54fefa16a017ecb780b3,2024-01-23_07h57.45.731,bars,2023.2.3,Linux x86_64,31.05590062,657b66ea316d21385b68909f,,,,,,,,,,,1196.3636,1197.3488,,,1197.8303,1198.0643,,25,25,,,,,,,,,,,,,,,,bars/047.png,bars/mask009.png,,,,,,,,,,,,3,1,,,,,,,4,10,4,10,,,,,,,,,,,1197.3488,1197.8302,1198.0643,1201.4719,space,3.3713,,1201.4719,10,45,1202.4663,1202.4664,1203.5891,space,1.0526,,0,14,14,14,1,15,70,,,,,,,,
,,61645511546f08038b19f62c,65af54fefa16a017ecb780b3,2024-01-23_07h57.45.731,bars,2023.2.3,Linux x86_64,31.05590062,657b66ea316d21385b68909f,,,,,,,,,,,1203.5901,1204.5703,,,1205.0685,1205.3213,,157,157,,,,,,,,,,,,,,,,bars/005.png,bars/mask003.png,,,,,,,,,,,,4,2,,,,,,,2,10,2,10,,,,,,,,,,,1204.5704,1205.0684,1205.3213,1211.0818,space,5.7384,,1211.0819,33,17,1212.0676,1212.0676,1213.3348,space,1.1472,,0,15,15,15,1,10,140,,,,,,,,
,,61645511546f08038b19f62c,65af54fefa16a017ecb780b3,2024-01-23_07h57.45.731,bars,2023.2.3,Linux x86_64,31.05590062,657b66ea316d21385b68909f,,,,,,,,,,,1213.3355,1214.3211,,,1214.8048,1215.0513,,61,61,,,,,,,,,,,,,,,,bars/041.png,bars/mask008.png,,,,,,,,,,,,2,2,,,,,,,4,10,5,8,,,,,,,,,,,1214.3211,1214.8047,1215.0514,1218.8446,space,3.7546,,1218.8447,41,24,1219.8313,1219.8315,1221.0811,space,1.1283,,0,16,16,16,1,20,85,,,,,,,,
,,61645511546f08038b19f62c,65af54fefa16a017ecb780b3,2024-01-23_07h57.45.731,bars,2023.2.3,Linux x86_64,31.05590062,657b66ea316d21385b68909f,,,,,,,,,,,1221.082,1222.0652,,,1222.5645,1222.8015,,76,76,,,,,,,,,,,,,,,,bars/011.png,bars/mask005.png,,,,,,,,,,,,6,2,,,,,,,6,10,9,9,,,,,,,,,,,1222.0653,1222.5645,1222.8015,1225.7811,space,2.9428,,1225.7811,84,9,1226.7584,1226.7584,1228.1356,space,1.3121,,0,17,17,17,1,160,85,,,,,,,,
,,61645511546f08038b19f62c,65af54fefa16a017ecb780b3,2024-01-23_07h57.45.731,bars,2023.2.3,Linux x86_64,31.05590062,657b66ea316d21385b68909f,,,,,,,,,,,1228.1362,1229.14,,,1229.6393,1229.8811,,89,89,,,,,,,,,,,,,,,,bars/001.png,bars/mask000.png,,,,,,,,,,,,8,2,,,,,,,8,8,7,9,,,,,,,,,,,1229.14,1229.6393,1229.8811,1233.5024,space,3.5948,,1233.5025,41,4,1234.5146,1234.5147,1235.5591,space,0.9671,,0,18,18,18,1,130,85,,,,,,,,
,,61645511546f08038b19f62c,65af54fefa16a017ecb780b3,2024-01-23_07h57.45.731,bars,2023.2.3,Linux x86_64,31.05590062,657b66ea316d21385b68909f,,,,,,,,,,,1235.5598,1236.5482,,,1237.0444,1237.2853,,174,-6,,,,,,,,,,,,,,,,bars/032.png,bars/mask008.png,,,,,,,,,,,,1,2,,,,,,,6,10,7,9,,,,,,,,,,,1236.5482,1237.0444,1237.2854,1241.4743,space,4.1594,,1241.4746,49,26,1242.4808,1242.4809,1243.4924,space,0.9433,,0,19,19,19,1,125,20,,,,,,,,
,,61645511546f08038b19f62c,65af54fefa16a017ecb780b3,2024-01-23_07h57.45.731,bars,2023.2.3,Linux x86_64,31.05590062,657b66ea316d21385b68909f,,,,,,,,,,,1243.4962,1244.5017,,,1244.9935,1245.2286,,53,53,,,,,,,,,,,,,,,,bars/010.png,bars/mask008.png,,,,,,,,,,,,8,2,,,,,,,4,8,4,9,,,,,,,,,,,1244.5026,1244.9934,1245.2286,1246.1845,space,0.9241,,1246.1846,68,2,1247.1585,1247.1586,1248.1987,space,0.9955,,0,20,20,20,1,165,55,,,,,,,,
,,61645511546f08038b19f62c,65af54fefa16a017ecb780b3,2024-01-23_07h57.45.731,bars,2023.2.3,Linux x86_64,31.05590062,657b66ea316d21385b68909f,,,,,,,,,,,1248.202,1251.6024,,,1252.8244,1252.8253,,3,3,,,,,,,,,,,,,,,,bars/047.png,bars/mask000.png,,,,,,,,,,,,2,1,,,,,,,2,10,3,10,,,,,,,,,,,1251.6024,1252.8244,1252.8254,1253.6353,space,0.0011,0.0003,1253.6354,12,67,1255.3581,1255.3582,1263.5359,space,4.8786,,0,21,21,21,1,15,70,,,,,,,,
,,61645511546f08038b19f62c,65af54fefa16a017ecb780b3,2024-01-23_07h57.45.731,bars,2023.2.3,Linux x86_64,31.05590062,657b66ea316d21385b68909f,,,,,,,,,,,1263.571,1264.5478,,,1265.0317,1265.2605,,42,42,,,,,,,,,,,,,,,,bars/047.png,bars/mask006.png,,,,,,,,,,,,0,1,,,,,,,4,10,4,9,,,,,,,,,,,1264.5479,1265.0316,1265.2606,1267.6265,space,2.328,,1267.6265,27,28,1268.6414,1268.6414,1270.2553,space,1.5811,,0,22,22,22,1,15,70,,,,,,,,
,,61645511546f08038b19f62c,65af54fefa16a017ecb780b3,2024-01-23_07h57.45.731,bars,2023.2.3,Linux x86_64,31.05590062,657b66ea316d21385b68909f,,,,,,,,,,,1270.2559,1271.2381,,,1271.7189,1271.9589,,68,68,,,,,,,,,,,,,,,,bars/034.png,bars/mask007.png,,,,,,,,,,,,7,2,,,,,,,6,8,5,8,,,,,,,,,,,1271.2383,1271.7187,1271.959,1275.9869,space,4.0003,,1275.987,57,3,1276.9881,1276.9882,1280.45,space,3.3932,,0,23,23,23,1,125,65,,,,,,,,
,,61645511546f08038b19f62c,65af54fefa16a017ecb780b3,2024-01-23_07h57.45.731,bars,2023.2.3,Linux x86_64,31.05590062,657b66ea316d21385b68909f,,,,,,,,,,,1280.546,1281.4511,,,1281.9345,1282.1834,,4,184,,,,,,,,,,,,,,,,bars/008.png,bars/mask006.png,,,,,,,,,,,,9,2,,,,,,,4,10,2,10,,,,,,,,,,,1281.4512,1281.9344,1282.1835,1284.9711,space,2.7455,,1284.9712,74,4,1285.9406,1285.9406,1289.3416,space,3.2719,,0,24,24,24,1,110,0,,,,,,,,
,,61645511546f08038b19f62c,65af54fefa16a017ecb780b3,2024-01-23_07h57.45.731,bars,2023.2.3,Linux x86_64,31.05590062,657b66ea316d21385b68909f,,,,,,,,,,,1289.3423,1290.3271,,,1290.8352,1291.0262,,171,-9,,,,,,,,,,,,,,,,bars/033.png,bars/mask004.png,,,,,,,,,,,,4,2,,,,,,,2,8,2,9,,,,,,,,,,,1290.3271,1290.8351,1291.0262,1294.8105,space,3.7463,,1294.8106,34,16,1295.8134,1295.8134,1297.3438,space,1.4698,,0,25,25,25,1,25,155,,,,,,,,
,,61645511546f08038b19f62c,65af54fefa16a017ecb780b3,2024-01-23_07h57.45.731,bars,2023.2.3,Linux x86_64,31.05590062,657b66ea316d21385b68909f,,,,,,,,,,,1297.3444,1298.3549,,,1298.8223,1299.0736,,79,79,,,,,,,,,,,,,,,,bars/021.png,bars/mask008.png,,,,,,,,,,,,7,2,,,,,,,4,10,4,10,,,,,,,,,,,1298.355,1298.8223,1299.0737,1303.0322,space,3.9312,,1303.0323,76,9,1304.0287,1304.0287,1305.2431,space,1.1551,,0,26,26,26,1,155,70,,,,,,,,
,,61645511546f08038b19f62c,65af54fefa16a017ecb780b3,2024-01-23_07h57.45.731,bars,2023.2.3,Linux x86_64,31.05590062,657b66ea316d21385b68909f,,,,,,,,,,,1305.2438,1306.2478,,,1306.722,1306.9649,,150,150,,,,,,,,,,,,,,,,bars/043.png,bars/mask008.png,,,,,,,,,,,,2,2,,,,,,,6,8,5,7,,,,,,,,,,,1306.248,1306.7219,1306.9649,1309.5994,space,2.6018,,1309.5995,60,20,1310.5735,1310.5735,1311.6148,space,0.9768,,0,27,27,27,1,30,130,,,,,,,,
,,61645511546f08038b19f62c,65af54fefa16a017ecb780b3,2024-01-23_07h57.45.731,bars,2023.2.3,Linux x86_64,31.05590062,657b66ea316d21385b68909f,,,,,,,,,,,1311.6158,1312.6053,,,1313.0759,1313.3252,,40,220,,,,,,,,,,,,,,,,bars/025.png,bars/mask002.png,,,,,,,,,,,,10,2,,,,,,,8,10,7,10,,,,,,,,,,,1312.6054,1313.0757,1313.3253,1316.5793,space,3.2256,,1316.5795,65,0,1317.5548,1317.5548,1320.2205,space,2.6031,,0,28,28,28,1,105,40,,,,,,,,
,,61645511546f08038b19f62c,65af54fefa16a017ecb780b3,2024-01-23_07h57.45.731,bars,2023.2.3,Linux x86_64,31.05590062,657b66ea316d21385b68909f,,,,,,,,,,,1320.2684,1321.2272,,,1321.7238,1321.977,,2,182,,,,,,,,,,,,,,,,bars/023.png,bars/mask005.png,,,,,,,,,,,,4,1,,,,,,,10,8,10,7,,,,,,,,,,,1321.2273,1321.7238,1321.977,1325.609,space,3.602,,1325.6091,18,67,1326.6114,1326.6115,1327.7649,space,1.0862,,0,29,29,29,1,20,115,,,,,,,,
,,61645511546f08038b19f62c,65af54fefa16a017ecb780b3,2024-01-23_07h57.45.731,bars,2023.2.3,Linux x86_64,31.05590062,657b66ea316d21385b68909f,,,,,,,,,,,1327.7656,1328.7604,,,1329.2626,1329.4963,,68,68,,,,,,,,,,,,,,,,bars/041.png,bars/mask002.png,,,,,,,,,,,,3,2,,,,,,,8,6,8,7,,,,,,,,,,,1328.7605,1329.2626,1329.4963,1330.3736,space,0.8431,,1330.3736,48,17,1331.3496,1331.3498,1332.2062,space,0.789,,0,30,30,30,1,20,85,,,,,,,,
,,61645511546f08038b19f62c,65af54fefa16a017ecb780b3,2024-01-23_07h57.45.731,bars,2023.2.3,Linux x86_64,31.05590062,657b66ea316d21385b68909f,,,,,,,,,,,1332.2084,1333.1896,,,1333.6796,1333.9264,,122,122,,,,,,,,,,,,,,,,bars/019.png,bars/mask007.png,,,,,,,,,,,,2,2,,,,,,,10,4,10,5,,,,,,,,,,,1333.1896,1333.6795,1333.9264,1336.4868,space,2.5187,,1336.4868,77,17,1337.4729,1337.4729,1338.2406,space,0.7093,,0,31,31,31,1,45,105,,,,,,,,
,,61645511546f08038b19f62c,65af54fefa16a017ecb780b3,2024-01-23_07h57.45.731,bars,2023.2.3,Linux x86_64,31.05590062,657b66ea316d21385b68909f,,,,,,,,,,,1338.2413,1339.2403,,,1339.7338,1339.9623,,176,-4,,,,,,,,,,,,,,,,bars/009.png,bars/mask003.png,,,,,,,,,,,,4,1,,,,,,,10,2,10,2,,,,,,,,,,,1339.2404,1339.7338,1339.9624,1344.1,space,4.1118,,1344.1001,19,71,1345.0993,1345.0993,1346.5403,space,1.3687,,0,32,32,32,1,15,105,,,,,,,,
,,61645511546f08038b19f62c,65af54fefa16a017ecb780b3,2024-01-23_07h57.45.731,bars,2023.2.3,Linux x86_64,31.05590062,657b66ea316d21385b68909f,,,,,,,,,,,1346.5422,1347.548,,,1348.0274,1348.2806,,145,145,,,,,,,,,,,,,,,,bars/005.png,bars/mask004.png,,,,,,,,,,,,5,2,,,,,,,10,4,10,6,,,,,,,,,,,1347.548,1348.0274,1348.2807,1351.0735,space,2.7564,,1351.0736,45,5,1352.0897,1352.0899,1353.1833,space,1.0269,,0,33,33,33,1,10,140,,,,,,,,
,,61645511546f08038b19f62c,65af54fefa16a017ecb780b3,2024-01-23_07h57.45.731,bars,2023.2.3,Linux x86_64,31.05590062,657b66ea316d21385b68909f,,,,,,,,,,,1353.1839,1354.1667,,,1354.6619,1354.8997,,88,88,,,,,,,,,,,,,,,,bars/011.png,bars/mask009.png,,,,,,,,,,,,6,2,,,,,,,8,6,6,7,,,,,,,,,,,1354.1668,1354.6618,1354.8997,1359.044,space,4.1122,,1359.0446,72,3,1360.0466,1360.0466,1361.3387,space,1.227,,0,34,34,34,1,160,85,,,,,,,,
,,61645511546f08038b19f62c,65af54fefa16a017ecb780b3,2024-01-23_07h57.45.731,bars,2023.2.3,Linux x86_64,31.05590062,657b66ea316d21385b68909f,,,,,,,,,,,1361.3395,1362.3406,,,1362.8459,1363.0678,,82,82,,,,,,,,,,,,,,,,bars/021.png,bars/mask001.png,,,,,,,,,,,,4,2,,,,,,,6,8,7,7,,,,,,,,,,,1362.3407,1362.8458,1363.0678,1367.2987,space,4.1998,,1367.2988,73,12,1368.285,1368.2851,1371.9201,space,3.5737,,0,35,35,35,1,155,70,,,,,,,,
,,61645511546f08038b19f62c,65af54fefa16a017ecb780b3,2024-01-23_07h57.45.731,bars,2023.2.3,Linux x86_64,31.05590062,657b66ea316d21385b68909f,,,,,,,,,,,1371.9618,1372.936,,,1373.4194,1373.6659,,150,150,,,,,,,,,,,,,,,,bars/004.png,bars/mask006.png,,,,,,,,,,,,2,2,,,,,,,8,10,9,10,,,,,,,,,,,1372.936,1373.4193,1373.666,1375.8281,space,2.1323,,1375.8282,55,25,1376.8453,1376.8454,1377.524,space,0.6132,,0,36,36,36,1,25,125,,,,,,,,
,,61645511546f08038b19f62c,65af54fefa16a017ecb780b3,2024-01-23_07h57.45.731,bars,2023.2.3,Linux x86_64,31.05590062,657b66ea316d21385b68909f,,,,,,,,,,,1377.5249,1378.5049,,,1378.9942,1379.2306,,73,73,,,,,,,,,,,,,,,,bars/002.png,bars/mask001.png,,,,,,,,,,,,5,2,,,,,,,10,8,10,8,,,,,,,,,,,1378.5049,1378.9942,1379.2307,1382.3555,space,3.0853,,1382.3555,57,12,1383.3362,1383.3362,1384.8031,space,1.4043,,0,37,37,37,1,130,85,,,,,,,,
,,61645511546f08038b19f62c,65af54fefa16a017ecb780b3,2024-01-23_07h57.45.731,bars,2023.2.3,Linux x86_64,31.05590062,657b66ea316d21385b68909f,,,,,,,,,,,1384.8037,1385.7811,,,1386.2739,1386.4976,,168,168,,,,,,,,,,,,,,,,bars/005.png,bars/mask003.png,,,,,,,,,,,,2,1,,,,,,,8,10,9,10,,,,,,,,,,,1385.7812,1386.2738,1386.4976,1388.6484,space,2.1317,,1388.6485,22,28,1389.6207,1389.6207,1390.3379,space,0.6518,,0,38,38,38,1,10,140,,,,,,,,
,,61645511546f08038b19f62c,65af54fefa16a017ecb780b3,2024-01-23_07h57.45.731,bars,2023.2.3,Linux x86_64,31.05590062,657b66ea316d21385b68909f,,,,,,,,,,,1390.3403,1391.3575,,,1391.8589,1392.0981,,88,88,,,,,,,,,,,,,,,,bars/018.png,bars/mask007.png,,,,,,,,,,,,8,2,,,,,,,6,8,5,9,,,,,,,,,,,1391.3577,1391.8588,1392.0982,1395.9075,space,3.7747,,1395.9076,62,2,1396.9176,1396.9176,1398.2356,space,1.2445,,0,39,39,39,1,150,90,,,,,,,,
,,61645511546f08038b19f62c,65af54fefa16a017ecb780b3,2024-01-23_07h57.45.731,bars,2023.2.3,Linux x86_64,31.05590062,657b66ea316d21385b68909f,,,,,,,,,,,1398.2371,1399.2221,,,1399.7226,1399.9639,,141,141,,,,,,,,,,,,,,,,bars/040.png,bars/mask000.png,,,,,,,,,,,,4,1,,,,,,,4,6,4,6,,,,,,,,,,,1399.2221,1399.7225,1399.9639,1403.8111,space,3.8165,,1403.8112,1,44,1404.7922,1404.7922,1406.4352,space,1.5561,,0,40,40,40,1,140,5,,,,,,,,
,,61645511546f08038b19f62c,65af54fefa16a017ecb780b3,2024-01-23_07h57.45.731,bars,2023.2.3,Linux x86_64,31.05590062,657b66ea316d21385b68909f,,,,,,,,,,,1406.436,1407.4393,,,1407.9322,1408.1824,,69,-111,,,,,,,,,,,,,,,,bars/026.png,bars/mask005.png,,,,,,,,,,,,4,2,,,,,,,2,8,2,8,,,,,,,,,,,1407.4393,1407.9321,1408.1825,1413.0763,space,4.845,,1413.0764,34,16,1414.1037,1414.1037,1414.9535,space,0.787,,0,41,41,41,1,35,85,,,,,,,,
,,61645511546f08038b19f62c,65af54fefa16a017ecb780b3,2024-01-23_07h57.45.731,bars,2023.2.3,Linux x86_64,31.05590062,657b66ea316d21385b68909f,,,,,,,,,,,1414.9555,1415.9399,,,1416.4197,1416.65,,165,165,,,,,,,,,,,,,,,,bars/045.png,bars/mask002.png,,,,,,,,,,,,2,2,,,,,,,4,10,2,10,,,,,,,,,,,1415.9399,1416.4196,1416.6501,1420.0764,space,3.3961,,1420.0764,65,25,1421.0704,1421.0705,1422.0386,space,0.906,,0,42,42,42,1,100,10,,,,,,,,
,,61645511546f08038b19f62c,65af54fefa16a017ecb780b3,2024-01-23_07h57.45.731,bars,2023.2.3,Linux x86_64,31.05590062,657b66ea316d21385b68909f,,,,,,,,,,,1422.0392,1423.0432,,,1423.5543,1423.8137,,36,216,,,,,,,,,,,,,,,,bars/025.png,bars/mask006.png,,,,,,,,,,,,7,2,,,,,,,6,8,6,8,,,,,,,,,,,1423.0432,1423.5543,1423.8137,1426.7125,space,2.8658,,1426.7126,69,4,1427.7123,1427.7124,1428.7256,space,0.8846,,0,43,43,43,1,105,40,,,,,,,,
,,61645511546f08038b19f62c,65af54fefa16a017ecb780b3,2024-01-23_07h57.45.731,bars,2023.2.3,Linux x86_64,31.05590062,657b66ea316d21385b68909f,,,,,,,,,,,1428.7285,1429.7102,,,1430.195,1430.4322,,87,267,,,,,,,,,,,,,,,,bars/002.png,bars/mask002.png,,,,,,,,,,,,9,2,,,,,,,4,10,5,10,,,,,,,,,,,1429.7102,1430.1949,1430.4322,1434.9128,space,4.4498,,1434.9129,43,2,1435.8911,1435.8912,1436.9166,space,0.9597,,0,44,44,44,1,130,85,,,,,,,,
,,61645511546f08038b19f62c,65af54fefa16a017ecb780b3,2024-01-23_07h57.45.731,bars,2023.2.3,Linux x86_64,31.05590062,657b66ea316d21385b68909f,,,,,,,,,,,1436.9174,1437.9104,,,1438.3906,1438.6459,,20,20,,,,,,,,,,,,,,,,bars/031.png,bars/mask008.png,,,,,,,,,,,,4,2,,,,,,,2,8,2,8,,,,,,,,,,,1437.9104,1438.3905,1438.6461,1441.0134,space,2.3422,,1441.0136,80,15,1441.9889,1441.989,1442.838,space,0.7862,,0,45,45,45,1,120,35,,,,,,,,
,,61645511546f08038b19f62c,65af54fefa16a017ecb780b3,2024-01-23_07h57.45.731,bars,2023.2.3,Linux x86_64,31.05590062,657b66ea316d21385b68909f,,,,,,,,,,,1442.8387,1443.8397,,,1444.3569,1444.5794,,146,-34,,,,,,,,,,,,,,,,bars/040.png,bars/mask002.png,,,,,,,,,,,,0,1,,,,,,,0,10,0,10,,,,,,,,,,,1443.8397,1444.3569,1444.5795,1448.4119,space,3.7982,,1448.4119,6,39,1449.4173,1449.4173,1450.6582,space,1.1773,,0,46,46,46,1,140,5,,,,,,,,
,,61645511546f08038b19f62c,65af54fefa16a017ecb780b3,2024-01-23_07h57.45.731,bars,2023.2.3,Linux x86_64,31.05590062,657b66ea316d21385b68909f,,,,,,,,,,,1450.6589,1451.6452,,,1452.1428,1452.4092,,38,218,,,,,,,,,,,,,,,,bars/031.png,bars/mask008.png,,,,,,,,,,,,6,2,,,,,,,0,8,0,7,,,,,,,,,,,1451.6453,1452.1428,1452.4093,1455.0552,space,2.6032,,1455.0553,82,3,1456.0484,1456.0484,1456.9667,space,0.8608,,0,47,47,47,1,120,35,,,,,,,,
,,61645511546f08038b19f62c,65af54fefa16a017ecb780b3,2024-01-23_07h57.45.731,bars,2023.2.3,Linux x86_64,31.05590062,657b66ea316d21385b68909f,,,,,,,,,,,1456.9673,1457.9595,,,1458.4487,1458.6827,,32,32,,,,,,,,,,,,,,,,bars/031.png,bars/mask008.png,,,,,,,,,,,,9,2,,,,,,,0,10,0,10,,,,,,,,,,,1457.9595,1458.4486,1458.6827,1460.781,space,2.0682,,1460.7811,88,3,1461.793,1461.793,1462.812,space,0.9635,,0,48,48,48,1,120,35,,,,,,,,
,,61645511546f08038b19f62c,65af54fefa16a017ecb780b3,2024-01-23_07h57.45.731,bars,2023.2.3,Linux x86_64,31.05590062,657b66ea316d21385b68909f,,,,,,,,,,,1462.8126,1463.806,,,1464.2855,1464.5165,,139,139,,,,,,,,,,,,,,,,bars/004.png,bars/mask006.png,,,,,,,,,,,,5,2,,,,,,,2,8,2,10,,,,,,,,,,,1463.8061,1464.2855,1464.5178,1467.0346,space,2.4994,,1467.0347,66,14,1468.0212,1468.0212,1468.8132,space,0.7264,,0,49,49,49,1,25,125,,,,,,,,
,,61645511546f08038b19f62c,65af54fefa16a017ecb780b3,2024-01-23_07h57.45.731,bars,2023.2.3,Linux x86_64,31.05590062,657b66ea316d21385b68909f,,,,,,,,,,,,,,,,,,,,,,,,,,,,,,,,,,,,,,,,,,,,,,,,,,,,,,,,,,,,,,,,,,,,,,,,,,,,,,,,,,,,,,,,,,,,,1468.821,1528.8243,0,0,0,2,1,sequence_tables/blk037.csv
,,61645511546f08038b19f62c,65af54fefa16a017ecb780b3,2024-01-23_07h57.45.731,bars,2023.2.3,Linux x86_64,31.05590062,657b66ea316d21385b68909f,,,,,,,,,,,1565.6511,1566.5963,,,1567.0824,1567.3379,,98,98,,,,,,,,,,,,,,,,bars/018.png,bars/mask003.png,,,,,,,,,,,,1,2,,,,,,,8,3,7,2,,,,,,1528.8878,1565.5927,space,36.6724,,1566.5963,1567.0823,1567.338,1570.9181,space,3.5444,,1570.9183,52,8,1571.903,1571.903,1571.9422,,,,0,0,0,0,1,150,90,,,,,,,,
,,61645511546f08038b19f62c,65af54fefa16a017ecb780b3,2024-01-23_07h57.45.731,bars,2023.2.3,Linux x86_64,31.05590062,657b66ea316d21385b68909f,,,,,,,,,,,1571.9435,1572.9426,,,1573.4389,1573.6585,,96,96,,,,,,,,,,,,,,,,bars/006.png,bars/mask001.png,,,,,,,,,,,,3,2,,,,,,,6,5,6,4,,,,,,,,,,,1572.9427,1573.4389,1573.6586,1577.7268,space,4.0376,,1577.7269,61,4,1578.7183,1578.7183,1578.7539,,,,0,1,1,1,1,35,100,,,,,,,,
,,61645511546f08038b19f62c,65af54fefa16a017ecb780b3,2024-01-23_07h57.45.731,bars,2023.2.3,Linux x86_64,31.05590062,657b66ea316d21385b68909f,,,,,,,,,,,1578.7546,1579.7557,,,1580.2802,1580.5217,,31,31,,,,,,,,,,,,,,,,bars/010.png,bars/mask007.png,,,,,,,,,,,,1,2,,,,,,,8,3,8,3,,,,,,,,,,,1579.7558,1580.2801,1580.5218,1586.783,space,6.2231,,1586.783,46,24,1587.79,1587.7901,1587.8264,,,,0,2,2,2,1,165,55,,,,,,,,
,,61645511546f08038b19f62c,65af54fefa16a017ecb780b3,2024-01-23_07h57.45.731,bars,2023.2.3,Linux x86_64,31.05590062,657b66ea316d21385b68909f,,,,,,,,,,,1587.8271,1588.8321,,,1589.3146,1589.5502,,146,146,,,,,,,,,,,,,,,,bars/004.png,bars/mask009.png,,,,,,,,,,,,2,2,,,,,,,6,5,5,5,,,,,,,,,,,1588.8321,1589.3146,1589.5502,1594.0686,space,4.4867,,1594.0687,59,21,1595.0502,1595.0502,1595.0928,,,,0,3,3,3,1,25,125,,,,,,,,
,,61645511546f08038b19f62c,65af54fefa16a017ecb780b3,2024-01-23_07h57.45.731,bars,2023.2.3,Linux x86_64,31.05590062,657b66ea316d21385b68909f,,,,,,,,,,,1595.0934,1596.0953,,,1596.5962,1596.8467,,38,218,,,,,,,,,,,,,,,,bars/031.png,bars/mask006.png,,,,,,,,,,,,3,2,,,,,,,8,3,9,3,,,,,,,,,,,1596.0953,1596.5961,1596.8467,1599.5722,space,2.6955,,1599.5723,82,3,1600.5434,1600.5435,1600.5448,,,,0,4,4,4,1,120,35,,,,,,,,
,,61645511546f08038b19f62c,65af54fefa16a017ecb780b3,2024-01-23_07h57.45.731,bars,2023.2.3,Linux x86_64,31.05590062,657b66ea316d21385b68909f,,,,,,,,,,,1600.5455,1601.5063,,,1601.9875,1602.24,,25,25,,,,,,,,,,,,,,,,bars/003.png,bars/mask003.png,,,,,,,,,,,,6,1,,,,,,,6,1,6,2,,,,,,,,,,,1601.5063,1601.9875,1602.2401,1606.3992,space,4.1256,,1606.3993,0,65,1607.4037,1607.4037,1607.4394,,,,0,5,5,5,1,25,140,,,,,,,,
,,61645511546f08038b19f62c,65af54fefa16a017ecb780b3,2024-01-23_07h57.45.731,bars,2023.2.3,Linux x86_64,31.05590062,657b66ea316d21385b68909f,,,,,,,,,,,1607.4401,1608.4188,,,1608.9008,1609.1704,,55,55,,,,,,,,,,,,,,,,bars/044.png,bars/mask000.png,,,,,,,,,,,,1,1,,,,,,,4,3,3,3,,,,,,,,,,,1608.4189,1608.9008,1609.1704,1613.8549,space,4.6546,,1613.855,20,80,1614.8522,1614.8523,1614.8938,,,,0,6,6,6,1,75,155,,,,,,,,
,,61645511546f08038b19f62c,65af54fefa16a017ecb780b3,2024-01-23_07h57.45.731,bars,2023.2.3,Linux x86_64,31.05590062,657b66ea316d21385b68909f,,,,,,,,,,,1614.8944,1615.8905,,,1616.4048,1616.662,,128,128,,,,,,,,,,,,,,,,bars/027.png,bars/mask008.png,,,,,,,,,,,,3,1,,,,,,,6,1,7,1,,,,,,,,,,,1615.8905,1616.4047,1616.6621,1620.7627,space,4.0659,,1620.7628,18,78,1621.7581,1621.7582,1621.7991,,,,0,7,7,7,1,110,50,,,,,,,,
,,61645511546f08038b19f62c,65af54fefa16a017ecb780b3,2024-01-23_07h57.45.731,bars,2023.2.3,Linux x86_64,31.05590062,657b66ea316d21385b68909f,,,,,,,,,,,1621.8,1622.7884,,,1623.2842,1623.5361,,44,44,,,,,,,,,,,,,,,,bars/032.png,bars/mask003.png,,,,,,,,,,,,1,2,,,,,,,8,3,9,4,,,,,,,,,,,1622.7884,1623.2842,1623.5362,1628.1536,space,4.5895,,1628.1536,81,24,1629.1375,1629.1376,1629.1855,,,,0,8,8,8,1,125,20,,,,,,,,
,,61645511546f08038b19f62c,65af54fefa16a017ecb780b3,2024-01-23_07h57.45.731,bars,2023.2.3,Linux x86_64,31.05590062,657b66ea316d21385b68909f,,,,,,,,,,,1629.1862,1630.1624,,,1630.6669,1630.911,,90,90,,,,,,,,,,,,,,,,bars/009.png,bars/mask005.png,,,,,,,,,,,,1,2,,,,,,,10,1,8,1,,,,,,,,,,,1630.1625,1630.6669,1630.9111,1633.3541,space,2.4124,,1633.3541,75,15,1634.3341,1634.3342,1634.3768,,,,0,9,9,9,1,15,105,,,,,,,,
,,61645511546f08038b19f62c,65af54fefa16a017ecb780b3,2024-01-23_07h57.45.731,bars,2023.2.3,Linux x86_64,31.05590062,657b66ea316d21385b68909f,,,,,,,,,,,1634.3782,1635.3549,,,1635.8674,1636.1147,,144,-36,,,,,,,,,,,,,,,,bars/044.png,bars/mask007.png,,,,,,,,,,,,1,2,,,,,,,8,3,7,1,,,,,,,,,,,1635.3549,1635.8674,1636.1148,1640.4883,space,4.3517,,1640.4884,69,11,1641.4682,1641.4682,1641.507,,,,0,10,10,10,1,75,155,,,,,,,,
,,61645511546f08038b19f62c,65af54fefa16a017ecb780b3,2024-01-23_07h57.45.731,bars,2023.2.3,Linux x86_64,31.05590062,657b66ea316d21385b68909f,,,,,,,,,,,1641.5075,1642.4948,,,1642.9994,1643.2482,,9,9,,,,,,,,,,,,,,,,bars/041.png,bars/mask000.png,,,,,,,,,,,,5,1,,,,,,,10,1,8,2,,,,,,,,,,,1642.4948,1642.9994,1643.2482,1646.5922,space,3.3107,,1646.5923,11,76,1647.5876,1647.5877,1647.6255,,,,0,11,11,11,1,20,85,,,,,,,,
,,61645511546f08038b19f62c,65af54fefa16a017ecb780b3,2024-01-23_07h57.45.731,bars,2023.2.3,Linux x86_64,31.05590062,657b66ea316d21385b68909f,,,,,,,,,,,1647.6264,1648.6216,,,1649.1051,1649.3614,,129,129,,,,,,,,,,,,,,,,bars/015.png,bars/mask002.png,,,,,,,,,,,,4,1,,,,,,,10,0,10,0,,,,,,,,,,,1648.6218,1649.105,1649.3615,1651.756,space,2.3633,,1651.7561,19,31,1652.7447,1652.7448,1652.7874,,,,0,12,12,12,1,110,160,,,,,,,,
,,61645511546f08038b19f62c,65af54fefa16a017ecb780b3,2024-01-23_07h57.45.731,bars,2023.2.3,Linux x86_64,31.05590062,657b66ea316d21385b68909f,,,,,,,,,,,1652.7879,1653.781,,,1654.2835,1654.5095,,135,135,,,,,,,,,,,,,,,,bars/018.png,bars/mask000.png,,,,,,,,,,,,5,1,,,,,,,8,2,9,2,,,,,,,,,,,1653.781,1654.2835,1654.5096,1658.9986,space,4.4617,,1658.9986,15,45,1659.9994,1659.9995,1660.0417,,,,0,13,13,13,1,150,90,,,,,,,,
,,61645511546f08038b19f62c,65af54fefa16a017ecb780b3,2024-01-23_07h57.45.731,bars,2023.2.3,Linux x86_64,31.05590062,657b66ea316d21385b68909f,,,,,,,,,,,1660.0423,1661.0538,,,1661.544,1661.7908,,60,60,,,,,,,,,,,,,,,,bars/029.png,bars/mask005.png,,,,,,,,,,,,3,2,,,,,,,10,4,8,6,,,,,,,,,,,1661.0539,1661.5439,1661.7908,1664.951,space,3.1181,,1664.951,30,15,1665.9581,1665.9581,1665.9945,,,,0,14,14,14,1,90,45,,,,,,,,
,,61645511546f08038b19f62c,65af54fefa16a017ecb780b3,2024-01-23_07h57.45.731,bars,2023.2.3,Linux x86_64,31.05590062,657b66ea316d21385b68909f,,,,,,,,,,,1665.995,1666.9738,,,1667.4556,1667.6855,,140,140,,,,,,,,,,,,,,,,bars/032.png,bars/mask003.png,,,,,,,,,,,,4,1,,,,,,,8,6,8,6,,,,,,,,,,,1666.9738,1667.4555,1667.6856,1671.6541,space,3.9279,,1671.6541,15,60,1672.6213,1672.6214,1672.6606,,,,0,15,15,15,1,125,20,,,,,,,,
,,61645511546f08038b19f62c,65af54fefa16a017ecb780b3,2024-01-23_07h57.45.731,bars,2023.2.3,Linux x86_64,31.05590062,657b66ea316d21385b68909f,,,,,,,,,,,1672.6613,1673.6654,,,1674.1661,1674.4112,,81,81,,,,,,,,,,,,,,,,bars/022.png,bars/mask004.png,,,,,,,,,,,,5,1,,,,,,,10,8,10,9,,,,,,,,,,,1673.6655,1674.166,1674.4112,1675.4969,space,1.0504,,1675.497,14,61,1676.473,1676.473,1676.4749,,,,0,16,16,16,1,95,20,,,,,,,,
,,61645511546f08038b19f62c,65af54fefa16a017ecb780b3,2024-01-23_07h57.45.731,bars,2023.2.3,Linux x86_64,31.05590062,657b66ea316d21385b68909f,,,,,,,,,,,1676.4757,1677.4861,,,1677.9664,1678.2222,,49,49,,,,,,,,,,,,,,,,bars/033.png,bars/mask002.png,,,,,,,,,,,,2,1,,,,,,,10,10,10,10,,,,,,,,,,,1677.4862,1677.9663,1678.2223,1681.9745,space,3.7204,,1681.9745,24,74,1682.984,1682.984,1683.0223,,,,0,17,17,17,1,25,155,,,,,,,,
,,61645511546f08038b19f62c,65af54fefa16a017ecb780b3,2024-01-23_07h57.45.731,bars,2023.2.3,Linux x86_64,31.05590062,657b66ea316d21385b68909f,,,,,,,,,,,1683.023,1683.9957,,,1684.462,1684.7101,,51,51,,,,,,,,,,,,,,,,bars/044.png,bars/mask007.png,,,,,,,,,,,,2,1,,,,,,,8,8,9,9,,,,,,,,,,,1683.9957,1684.4619,1684.7101,1687.0966,space,2.3581,,1687.0966,24,76,1688.0948,1688.0948,1688.0962,,,,0,18,18,18,1,75,155,,,,,,,,
,,61645511546f08038b19f62c,65af54fefa16a017ecb780b3,2024-01-23_07h57.45.731,bars,2023.2.3,Linux x86_64,31.05590062,657b66ea316d21385b68909f,,,,,,,,,,,1688.0968,1689.0692,,,1689.5636,1689.8228,,54,54,,,,,,,,,,,,,,,,bars/044.png,bars/mask004.png,,,,,,,,,,,,2,1,,,,,,,6,10,5,10,,,,,,,,,,,1689.0693,1689.5636,1689.8228,1691.9689,space,2.1122,,1691.969,21,79,1692.9536,1692.9537,1692.9942,,,,0,19,19,19,1,75,155,,,,,,,,
,,61645511546f08038b19f62c,65af54fefa16a017ecb780b3,2024-01-23_07h57.45.731,bars,2023.2.3,Linux x86_64,31.05590062,657b66ea316d21385b68909f,,,,,,,,,,,1692.9948,1693.9951,,,1694.4763,1694.7227,,62,62,,,,,,,,,,,,,,,,bars/042.png,bars/mask008.png,,,,,,,,,,,,5,2,,,,,,,8,10,7,8,,,,,,,,,,,1693.9951,1694.4763,1694.7227,1696.8147,space,2.0606,,1696.8148,83,13,1697.8094,1697.8094,1697.8198,,,,0,20,20,20,1,145,75,,,,,,,,
,,61645511546f08038b19f62c,65af54fefa16a017ecb780b3,2024-01-23_07h57.45.731,bars,2023.2.3,Linux x86_64,31.05590062,657b66ea316d21385b68909f,,,,,,,,,,,1697.8211,1698.82,,,1699.3169,1699.5391,,28,28,,,,,,,,,,,,,,,,bars/031.png,bars/mask005.png,,,,,,,,,,,,6,2,,,,,,,6,8,5,8,,,,,,,,,,,1698.8201,1699.3169,1699.5391,1701.4081,space,1.8392,,1701.4081,88,7,1702.4182,1702.4182,1702.4198,,,,0,21,21,21,1,120,35,,,,,,,,
,,61645511546f08038b19f62c,65af54fefa16a017ecb780b3,2024-01-23_07h57.45.731,bars,2023.2.3,Linux x86_64,31.05590062,657b66ea316d21385b68909f,,,,,,,,,,,1702.4256,1703.4223,,,1703.9209,1704.1661,,119,119,,,,,,,,,,,,,,,,bars/009.png,bars/mask005.png,,,,,,,,,,,,5,2,,,,,,,4,10,3,10,,,,,,,,,,,1703.4224,1703.9209,1704.1662,1707.2765,space,3.0828,,1707.2766,76,14,1708.2788,1708.2788,1708.3192,,,,0,22,22,22,1,15,105,,,,,,,,
,,61645511546f08038b19f62c,65af54fefa16a017ecb780b3,2024-01-23_07h57.45.731,bars,2023.2.3,Linux x86_64,31.05590062,657b66ea316d21385b68909f,,,,,,,,,,,1708.3209,1709.3033,,,1709.7833,1710.0299,,44,44,,,,,,,,,,,,,,,,bars/007.png,bars/mask008.png,,,,,,,,,,,,6,2,,,,,,,2,10,2,10,,,,,,,,,,,1709.3034,1709.7833,1710.0299,1713.1673,space,3.1038,,1713.1675,49,11,1714.1552,1714.1552,1714.1977,,,,0,23,23,23,1,175,55,,,,,,,,
,,61645511546f08038b19f62c,65af54fefa16a017ecb780b3,2024-01-23_07h57.45.731,bars,2023.2.3,Linux x86_64,31.05590062,657b66ea316d21385b68909f,,,,,,,,,,,1714.1983,1715.1921,,,1715.7006,1715.9279,,42,42,,,,,,,,,,,,,,,,bars/010.png,bars/mask001.png,,,,,,,,,,,,5,2,,,,,,,0,8,0,8,,,,,,,,,,,1715.1921,1715.7005,1715.9279,1719.0329,space,3.0637,,1719.0331,57,13,1720.0325,1720.0325,1720.0717,,,,0,24,24,24,1,165,55,,,,,,,,
,,61645511546f08038b19f62c,65af54fefa16a017ecb780b3,2024-01-23_07h57.45.731,bars,2023.2.3,Linux x86_64,31.05590062,657b66ea316d21385b68909f,,,,,,,,,,,1720.0724,1721.0635,,,1721.5502,1721.7913,,50,50,,,,,,,,,,,,,,,,bars/001.png,bars/mask000.png,,,,,,,,,,,,0,2,,,,,,,2,6,3,4,,,,,,,,,,,1721.0635,1721.5502,1721.7914,1723.7082,space,1.8983,,1723.7083,80,35,1724.6858,1724.6858,1724.6875,,,,0,25,25,25,1,130,85,,,,,,,,
,,61645511546f08038b19f62c,65af54fefa16a017ecb780b3,2024-01-23_07h57.45.731,bars,2023.2.3,Linux x86_64,31.05590062,657b66ea316d21385b68909f,,,,,,,,,,,1724.688,1725.7006,,,1726.1896,1726.4468,,67,67,,,,,,,,,,,,,,,,bars/012.png,bars/mask008.png,,,,,,,,,,,,0,1,,,,,,,0,8,0,6,,,,,,,,,,,1725.7007,1726.1895,1726.4469,1729.0422,space,2.5569,,1729.0422,23,52,1730.0408,1730.0409,1730.0812,,,,0,26,26,26,1,90,15,,,,,,,,
,,61645511546f08038b19f62c,65af54fefa16a017ecb780b3,2024-01-23_07h57.45.731,bars,2023.2.3,Linux x86_64,31.05590062,657b66ea316d21385b68909f,,,,,,,,,,,1730.0819,1731.0726,,,1731.5548,1731.7965,,179,-1,,,,,,,,,,,,,,,,bars/013.png,bars/mask000.png,,,,,,,,,,,,6,2,,,,,,,2,10,4,9,,,,,,,,,,,1731.0726,1731.5548,1731.7965,1735.3217,space,3.4921,,1735.3218,76,11,1736.3303,1736.3305,1736.3674,,,,0,27,27,27,1,75,10,,,,,,,,
,,61645511546f08038b19f62c,65af54fefa16a017ecb780b3,2024-01-23_07h57.45.731,bars,2023.2.3,Linux x86_64,31.05590062,657b66ea316d21385b68909f,,,,,,,,,,,1736.3683,1737.372,,,1737.861,1738.1016,,145,-35,,,,,,,,,,,,,,,,bars/044.png,bars/mask005.png,,,,,,,,,,,,6,2,,,,,,,0,8,0,9,,,,,,,,,,,1737.3721,1737.8609,1738.1017,1742.3259,space,4.1957,,1742.3259,70,10,1743.3352,1743.3352,1743.3791,,,,0,28,28,28,1,75,155,,,,,,,,
,,61645511546f08038b19f62c,65af54fefa16a017ecb780b3,2024-01-23_07h57.45.731,bars,2023.2.3,Linux x86_64,31.05590062,657b66ea316d21385b68909f,,,,,,,,,,,1743.3798,1744.3704,,,1744.8576,1745.1145,,153,153,,,,,,,,,,,,,,,,bars/005.png,bars/mask008.png,,,,,,,,,,,,6,2,,,,,,,0,10,0,10,,,,,,,,,,,1744.3705,1744.8576,1745.1145,1749.8747,space,4.7231,,1749.8748,37,13,1750.8617,1750.8617,1750.9031,,,,0,29,29,29,1,10,140,,,,,,,,
,,61645511546f08038b19f62c,65af54fefa16a017ecb780b3,2024-01-23_07h57.45.731,bars,2023.2.3,Linux x86_64,31.05590062,657b66ea316d21385b68909f,,,,,,,,,,,1750.9036,1751.8955,,,1752.3959,1752.6377,,52,52,,,,,,,,,,,,,,,,bars/046.png,bars/mask007.png,,,,,,,,,,,,0,2,,,,,,,2,8,0,9,,,,,,,,,,,1751.8955,1752.3959,1752.6377,1755.2565,space,2.5913,,1755.2565,77,33,1756.2603,1756.2603,1756.2937,,,,0,30,30,30,1,155,85,,,,,,,,
,,61645511546f08038b19f62c,65af54fefa16a017ecb780b3,2024-01-23_07h57.45.731,bars,2023.2.3,Linux x86_64,31.05590062,657b66ea316d21385b68909f,,,,,,,,,,,1756.2943,1757.2954,,,1757.8132,1758.0744,,9,189,,,,,,,,,,,,,,,,bars/036.png,bars/mask002.png,,,,,,,,,,,,3,2,,,,,,,0,6,1,5,,,,,,,,,,,1757.2955,1757.8131,1758.0745,1760.9951,space,2.8879,,1760.9952,44,11,1761.9804,1761.9805,1762.0219,,,,0,31,31,31,1,145,20,,,,,,,,
,,61645511546f08038b19f62c,65af54fefa16a017ecb780b3,2024-01-23_07h57.45.731,bars,2023.2.3,Linux x86_64,31.05590062,657b66ea316d21385b68909f,,,,,,,,,,,1762.0239,1763.0228,,,1763.4966,1763.7443,,142,142,,,,,,,,,,,,,,,,bars/005.png,bars/mask008.png,,,,,,,,,,,,3,2,,,,,,,2,4,2,3,,,,,,,,,,,1763.0229,1763.4965,1763.7444,1764.4876,space,0.711,,1764.4877,48,2,1765.4966,1765.4966,1765.498,,,,0,32,32,32,1,10,140,,,,,,,,
,,61645511546f08038b19f62c,65af54fefa16a017ecb780b3,2024-01-23_07h57.45.731,bars,2023.2.3,Linux x86_64,31.05590062,657b66ea316d21385b68909f,,,,,,,,,,,1765.4987,1766.4781,,,1766.9651,1767.1987,,47,47,,,,,,,,,,,,,,,,bars/025.png,bars/mask005.png,,,,,,,,,,,,2,2,,,,,,,4,2,4,2,,,,,,,,,,,1766.4781,1766.965,1767.1987,1769.8638,space,2.634,,1769.8639,58,7,1770.858,1770.858,1770.9015,,,,0,33,33,33,1,105,40,,,,,,,,
,,61645511546f08038b19f62c,65af54fefa16a017ecb780b3,2024-01-23_07h57.45.731,bars,2023.2.3,Linux x86_64,31.05590062,657b66ea316d21385b68909f,,,,,,,,,,,1770.9027,1771.9068,,,1772.3868,1772.6257,,33,213,,,,,,,,,,,,,,,,bars/039.png,bars/mask003.png,,,,,,,,,,,,0,1,,,,,,,6,0,5,1,,,,,,,,,,,1771.9068,1772.3868,1772.6257,1779.129,space,6.4799,,1779.1291,38,72,1780.1085,1780.1085,1780.1926,,,,0,34,34,34,1,175,105,,,,,,,,
,,61645511546f08038b19f62c,65af54fefa16a017ecb780b3,2024-01-23_07h57.45.731,bars,2023.2.3,Linux x86_64,31.05590062,657b66ea316d21385b68909f,,,,,,,,,,,1780.1933,1781.1872,,,1781.6783,1781.9247,,151,151,,,,,,,,,,,,,,,,bars/016.png,bars/mask009.png,,,,,,,,,,,,2,2,,,,,,,4,2,2,4,,,,,,,,,,,1781.1873,1781.6783,1781.9247,1782.7544,space,0.8008,,1782.7545,69,14,1783.738,1783.7381,1783.7463,,,,0,35,35,35,1,40,165,,,,,,,,
,,61645511546f08038b19f62c,65af54fefa16a017ecb780b3,2024-01-23_07h57.45.731,bars,2023.2.3,Linux x86_64,31.05590062,657b66ea316d21385b68909f,,,,,,,,,,,1783.7469,1784.7333,,,1785.2174,1785.4705,,39,219,,,,,,,,,,,,,,,,bars/000.png,bars/mask003.png,,,,,,,,,,,,2,1,,,,,,,2,4,2,4,,,,,,,,,,,1784.7334,1785.2174,1785.4705,1788.0826,space,2.578,,1788.0827,1,74,1789.0615,1789.0616,1789.1042,,,,0,36,36,36,1,40,145,,,,,,,,
,,61645511546f08038b19f62c,65af54fefa16a017ecb780b3,2024-01-23_07h57.45.731,bars,2023.2.3,Linux x86_64,31.05590062,657b66ea316d21385b68909f,,,,,,,,,,,1789.1051,1790.0966,,,1790.5938,1790.8381,,126,126,,,,,,,,,,,,,,,,bars/008.png,bars/mask009.png,,,,,,,,,,,,2,1,,,,,,,4,2,4,3,,,,,,,,,,,1790.0967,1790.5938,1790.8382,1794.5574,space,3.689,,1794.5574,16,54,1795.5774,1795.5774,1795.6233,,,,0,37,37,37,1,110,0,,,,,,,,
,,61645511546f08038b19f62c,65af54fefa16a017ecb780b3,2024-01-23_07h57.45.731,bars,2023.2.3,Linux x86_64,31.05590062,657b66ea316d21385b68909f,,,,,,,,,,,1795.624,1796.6274,,,1797.1479,1797.3616,,99,99,,,,,,,,,,,,,,,,bars/018.png,bars/mask007.png,,,,,,,,,,,,4,2,,,,,,,6,4,6,5,,,,,,,,,,,1796.6275,1797.1478,1797.3617,1802.0891,space,4.6943,,1802.0892,51,9,1803.0675,1803.0676,1803.1099,,,,0,38,38,38,1,150,90,,,,,,,,
,,61645511546f08038b19f62c,65af54fefa16a017ecb780b3,2024-01-23_07h57.45.731,bars,2023.2.3,Linux x86_64,31.05590062,657b66ea316d21385b68909f,,,,,,,,,,,1803.1106,1804.1201,,,1804.6127,1804.8461,,96,96,,,,,,,,,,,,,,,,bars/009.png,bars/mask001.png,,,,,,,,,,,,5,2,,,,,,,4,6,6,7,,,,,,,,,,,1804.1201,1804.6126,1804.8462,1809.0244,space,4.1431,,1809.0245,81,9,1810.0262,1810.0263,1810.068,,,,0,39,39,39,1,15,105,,,,,,,,
,,61645511546f08038b19f62c,65af54fefa16a017ecb780b3,2024-01-23_07h57.45.731,bars,2023.2.3,Linux x86_64,31.05590062,657b66ea316d21385b68909f,,,,,,,,,,,1810.0686,1811.05,,,1811.5417,1811.7954,,11,191,,,,,,,,,,,,,,,,bars/014.png,bars/mask005.png,,,,,,,,,,,,3,2,,,,,,,6,4,7,4,,,,,,,,,,,1811.0501,1811.5416,1811.7955,1814.4435,space,2.6135,,1814.4435,69,11,1815.4384,1815.4384,1815.4828,,,,0,40,40,40,1,80,0,,,,,,,,
,,61645511546f08038b19f62c,65af54fefa16a017ecb780b3,2024-01-23_07h57.45.731,bars,2023.2.3,Linux x86_64,31.05590062,657b66ea316d21385b68909f,,,,,,,,,,,1815.4836,1816.4536,,,1816.9573,1817.1889,,151,-29,,,,,,,,,,,,,,,,bars/003.png,bars/mask003.png,,,,,,,,,,,,1,2,,,,,,,4,2,5,1,,,,,,,,,,,1816.4536,1816.9573,1817.189,1820.5535,space,3.3426,,1820.5536,54,11,1821.5751,1821.5751,1821.6116,,,,0,41,41,41,1,25,140,,,,,,,,
,,61645511546f08038b19f62c,65af54fefa16a017ecb780b3,2024-01-23_07h57.45.731,bars,2023.2.3,Linux x86_64,31.05590062,657b66ea316d21385b68909f,,,,,,,,,,,1821.6122,1822.6,,,1823.0816,1823.3009,,26,26,,,,,,,,,,,,,,,,bars/025.png,bars/mask006.png,,,,,,,,,,,,2,2,,,,,,,2,4,3,4,,,,,,,,,,,1822.6,1823.0815,1823.3009,1826.1059,space,2.7726,,1826.1061,79,14,1827.0986,1827.0987,1827.1002,,,,0,42,42,42,1,105,40,,,,,,,,
,,61645511546f08038b19f62c,65af54fefa16a017ecb780b3,2024-01-23_07h57.45.731,bars,2023.2.3,Linux x86_64,31.05590062,657b66ea316d21385b68909f,,,,,,,,,,,1827.1011,1828.0768,,,1828.577,1828.8295,,51,51,,,,,,,,,,,,,,,,bars/047.png,bars/mask007.png,,,,,,,,,,,,0,2,,,,,,,4,2,5,1,,,,,,,,,,,1828.0768,1828.577,1828.8296,1831.7116,space,2.8589,,1831.7117,36,19,1832.7128,1832.7129,1832.746,,,,0,43,43,43,1,15,70,,,,,,,,
,,61645511546f08038b19f62c,65af54fefa16a017ecb780b3,2024-01-23_07h57.45.731,bars,2023.2.3,Linux x86_64,31.05590062,657b66ea316d21385b68909f,,,,,,,,,,,1832.7466,1833.7238,,,1834.2185,1834.4436,,43,43,,,,,,,,,,,,,,,,bars/007.png,bars/mask004.png,,,,,,,,,,,,0,2,,,,,,,6,0,5,0,,,,,,,,,,,1833.7238,1834.2185,1834.4437,1837.3434,space,2.8787,,1837.3434,48,12,1838.3332,1838.3332,1838.3708,,,,0,44,44,44,1,175,55,,,,,,,,
,,61645511546f08038b19f62c,65af54fefa16a017ecb780b3,2024-01-23_07h57.45.731,bars,2023.2.3,Linux x86_64,31.05590062,657b66ea316d21385b68909f,,,,,,,,,,,1838.3737,1839.3721,,,1839.8521,1840.1081,,69,249,,,,,,,,,,,,,,,,bars/002.png,bars/mask007.png,,,,,,,,,,,,0,2,,,,,,,8,0,9,0,,,,,,,,,,,1839.3721,1839.8521,1840.1081,1843.9142,space,3.778,,1843.9142,61,16,1844.9192,1844.9192,1844.9627,,,,0,45,45,45,1,130,85,,,,,,,,
,,61645511546f08038b19f62c,65af54fefa16a017ecb780b3,2024-01-23_07h57.45.731,bars,2023.2.3,Linux x86_64,31.05590062,657b66ea316d21385b68909f,,,,,,,,,,,1844.9633,1845.9417,,,1846.4433,1846.6939,,123,123,,,,,,,,,,,,,,,,bars/045.png,bars/mask009.png,,,,,,,,,,,,2,1,,,,,,,6,0,8,0,,,,,,,,,,,1845.9418,1846.4432,1846.694,1847.6209,space,0.9,,1847.6209,23,67,1848.6233,1848.6234,1848.632,,,,0,46,46,46,1,100,10,,,,,,,,
,,61645511546f08038b19f62c,65af54fefa16a017ecb780b3,2024-01-23_07h57.45.731,bars,2023.2.3,Linux x86_64,31.05590062,657b66ea316d21385b68909f,,,,,,,,,,,1848.6327,1849.6297,,,1850.1209,1850.3403,,116,116,,,,,,,,,,,,,,,,bars/015.png,bars/mask005.png,,,,,,,,,,,,6,1,,,,,,,8,2,8,3,,,,,,,,,,,1849.6298,1850.1207,1850.3403,1855.0104,space,4.6411,,1855.0105,6,44,1856.0221,1856.0221,1856.0543,,,,0,47,47,47,1,110,160,,,,,,,,
,,61645511546f08038b19f62c,65af54fefa16a017ecb780b3,2024-01-23_07h57.45.731,bars,2023.2.3,Linux x86_64,31.05590062,657b66ea316d21385b68909f,,,,,,,,,,,1856.0554,1857.0508,,,1857.5302,1857.771,,36,216,,,,,,,,,,,,,,,,bars/033.png,bars/mask003.png,,,,,,,,,,,,6,1,,,,,,,10,4,10,3,,,,,,,,,,,1857.0508,1857.5302,1857.7711,1862.2707,space,4.4691,,1862.2708,11,61,1863.2595,1863.2595,1863.2991,,,,0,48,48,48,1,25,155,,,,,,,,
,,61645511546f08038b19f62c,65af54fefa16a017ecb780b3,2024-01-23_07h57.45.731,bars,2023.2.3,Linux x86_64,31.05590062,657b66ea316d21385b68909f,,,,,,,,,,,1863.3001,1864.2686,,,1864.7718,1865.0244,,41,41,,,,,,,,,,,,,,,,bars/029.png,bars/mask002.png,,,,,,,,,,,,2,2,,,,,,,10,2,10,2,,,,,,,,,,,1864.2686,1864.7718,1865.0245,1869.2199,space,4.1648,,1869.22,49,4,1870.2175,1870.2176,1870.2632,,,,0,49,49,49,1,90,45,,,,,,,,
,,61645511546f08038b19f62c,65af54fefa16a017ecb780b3,2024-01-23_07h57.45.731,bars,2023.2.3,Linux x86_64,31.05590062,657b66ea316d21385b68909f,,,,,,,,,,,,,,,,,,,,,,,,,,,,,,,,,,,,,,,,,,,,,,,,,,,,,,,,,,,,,,,,,,,,,,,,,,,,,,,,,,,,,,,,,,,,,1870.2635,1930.2632,0,1,1,1,1,sequence_tables/blk046.csv
,,61645511546f08038b19f62c,65af54fefa16a017ecb780b3,2024-01-23_07h57.45.731,bars,2023.2.3,Linux x86_64,31.05590062,657b66ea316d21385b68909f,,,,,,,,,,,1934.8372,1935.7944,,,1936.286,1936.5403,,120,120,,,,,,,,,,,,,,,,bars/028.png,bars/mask003.png,,,,,,,,,,,,2,2,,,,,,,10,2,9,2,,,,,,1930.3097,1934.7771,space,4.4387,,1935.7946,1936.286,1936.5403,1938.6175,space,2.049,,1938.6176,75,0,1939.5989,1939.599,1939.6392,,,,0,0,0,0,1,45,120,,,,,,,,
,,61645511546f08038b19f62c,65af54fefa16a017ecb780b3,2024-01-23_07h57.45.731,bars,2023.2.3,Linux x86_64,31.05590062,657b66ea316d21385b68909f,,,,,,,,,,,1939.6399,1940.641,,,1941.1375,1941.3721,,129,129,,,,,,,,,,,,,,,,bars/002.png,bars/mask000.png,,,,,,,,,,,,8,1,,,,,,,8,0,8,0,,,,,,,,,,,1940.6411,1941.1375,1941.3722,1943.6391,space,2.2329,,1943.6392,1,44,1944.6415,1944.6416,1944.6868,,,,0,1,1,1,1,130,85,,,,,,,,
,,61645511546f08038b19f62c,65af54fefa16a017ecb780b3,2024-01-23_07h57.45.731,bars,2023.2.3,Linux x86_64,31.05590062,657b66ea316d21385b68909f,,,,,,,,,,,1944.6874,1945.6892,,,1946.1899,1946.4245,,121,121,,,,,,,,,,,,,,,,bars/027.png,bars/mask003.png,,,,,,,,,,,,3,1,,,,,,,6,2,4,2,,,,,,,,,,,1945.6892,1946.1899,1946.4247,1948.9971,space,2.5452,,1948.9972,11,71,1950.0013,1950.0014,1950.0515,,,,0,2,2,2,1,110,50,,,,,,,,
,,61645511546f08038b19f62c,65af54fefa16a017ecb780b3,2024-01-23_07h57.45.731,bars,2023.2.3,Linux x86_64,31.05590062,657b66ea316d21385b68909f,,,,,,,,,,,1950.0525,1951.0477,,,1951.5486,1951.7963,,137,137,,,,,,,,,,,,,,,,bars/031.png,bars/mask001.png,,,,,,,,,,,,3,1,,,,,,,8,0,6,1,,,,,,,,,,,1951.0478,1951.5486,1951.7965,1953.4659,space,1.6438,,1953.466,17,78,1954.4475,1954.4475,1954.4486,,,,0,3,3,3,1,120,35,,,,,,,,
,,61645511546f08038b19f62c,65af54fefa16a017ecb780b3,2024-01-23_07h57.45.731,bars,2023.2.3,Linux x86_64,31.05590062,657b66ea316d21385b68909f,,,,,,,,,,,1954.4493,1955.4356,,,1955.9279,1956.1925,,32,212,,,,,,,,,,,,,,,,bars/003.png,bars/mask001.png,,,,,,,,,,,,6,1,,,,,,,6,2,8,1,,,,,,,,,,,1955.4358,1955.9279,1956.1926,1959.4541,space,3.2302,,1959.4541,7,72,1960.4594,1960.4595,1960.504,,,,0,4,4,4,1,25,140,,,,,,,,
,,61645511546f08038b19f62c,65af54fefa16a017ecb780b3,2024-01-23_07h57.45.731,bars,2023.2.3,Linux x86_64,31.05590062,657b66ea316d21385b68909f,,,,,,,,,,,1960.5052,1961.51,,,1962.0274,1962.2729,,124,124,,,,,,,,,,,,,,,,bars/008.png,bars/mask008.png,,,,,,,,,,,,3,1,,,,,,,4,0,6,0,,,,,,,,,,,1961.5101,1962.0274,1962.273,1965.9333,space,3.6258,,1965.9334,14,56,1966.9261,1966.9262,1966.9613,,,,0,5,5,5,1,110,0,,,,,,,,
,,61645511546f08038b19f62c,65af54fefa16a017ecb780b3,2024-01-23_07h57.45.731,bars,2023.2.3,Linux x86_64,31.05590062,657b66ea316d21385b68909f,,,,,,,,,,,1966.962,1967.9488,,,1968.4216,1968.6799,,177,-3,,,,,,,,,,,,,,,,bars/035.png,bars/mask003.png,,,,,,,,,,,,2,1,,,,,,,2,0,2,1,,,,,,,,,,,1967.9488,1968.4215,1968.6799,1970.3783,space,1.6654,,1970.3783,2,63,1971.356,1971.356,1971.4011,,,,0,6,6,6,1,175,60,,,,,,,,
,,61645511546f08038b19f62c,65af54fefa16a017ecb780b3,2024-01-23_07h57.45.731,bars,2023.2.3,Linux x86_64,31.05590062,657b66ea316d21385b68909f,,,,,,,,,,,1971.4019,1972.3972,,,1972.9038,1973.1315,,121,121,,,,,,,,,,,,,,,,bars/028.png,bars/mask006.png,,,,,,,,,,,,1,2,,,,,,,4,2,4,1,,,,,,,,,,,1972.3972,1972.9038,1973.1315,1974.87,space,1.7066,,1974.8701,76,1,1975.8509,1975.851,1975.8889,,,,0,7,7,7,1,45,120,,,,,,,,
,,61645511546f08038b19f62c,65af54fefa16a017ecb780b3,2024-01-23_07h57.45.731,bars,2023.2.3,Linux x86_64,31.05590062,657b66ea316d21385b68909f,,,,,,,,,,,1975.8897,1976.8873,,,1977.3601,1977.5938,,41,41,,,,,,,,,,,,,,,,bars/025.png,bars/mask000.png,,,,,,,,,,,,1,2,,,,,,,6,0,6,1,,,,,,,,,,,1976.8874,1977.36,1977.5938,1980.0025,space,2.3736,,1980.0026,64,1,1980.9805,1980.9806,1980.9818,,,,0,8,8,8,1,105,40,,,,,,,,
,,61645511546f08038b19f62c,65af54fefa16a017ecb780b3,2024-01-23_07h57.45.731,bars,2023.2.3,Linux x86_64,31.05590062,657b66ea316d21385b68909f,,,,,,,,,,,1980.9823,1981.9724,,,1982.4758,1982.7174,,146,146,,,,,,,,,,,,,,,,bars/044.png,bars/mask001.png,,,,,,,,,,,,1,2,,,,,,,4,2,5,2,,,,,,,,,,,1981.9724,1982.4758,1982.7174,1986.3716,space,3.6216,,1986.3717,71,9,1987.378,1987.378,1987.4233,,,,0,9,9,9,1,75,155,,,,,,,,
,,61645511546f08038b19f62c,65af54fefa16a017ecb780b3,2024-01-23_07h57.45.731,bars,2023.2.3,Linux x86_64,31.05590062,657b66ea316d21385b68909f,,,,,,,,,,,1987.4239,1988.4132,,,1988.9114,1989.1633,,42,222,,,,,,,,,,,,,,,,bars/010.png,bars/mask008.png,,,,,,,,,,,,0,2,,,,,,,2,0,2,0,,,,,,,,,,,1988.4133,1988.9114,1989.1634,1992.3181,space,3.1177,,1992.3181,57,13,1993.2923,1993.2923,1993.3381,,,,0,10,10,10,1,165,55,,,,,,,,
,,61645511546f08038b19f62c,65af54fefa16a017ecb780b3,2024-01-23_07h57.45.731,bars,2023.2.3,Linux x86_64,31.05590062,657b66ea316d21385b68909f,,,,,,,,,,,1993.3387,1994.3342,,,1994.8231,1995.0742,,141,-39,,,,,,,,,,,,,,,,bars/004.png,bars/mask002.png,,,,,,,,,,,,2,2,,,,,,,0,2,1,4,,,,,,,,,,,1994.3343,1994.8231,1995.0742,1999.6494,space,4.5435,,1999.6495,64,16,2000.6574,2000.6575,2000.6949,,,,0,11,11,11,1,25,125,,,,,,,,
,,61645511546f08038b19f62c,65af54fefa16a017ecb780b3,2024-01-23_07h57.45.731,bars,2023.2.3,Linux x86_64,31.05590062,657b66ea316d21385b68909f,,,,,,,,,,,2000.6956,2001.6907,,,2002.1823,2002.4319,,54,234,,,,,,,,,,,,,,,,bars/001.png,bars/mask002.png,,,,,,,,,,,,0,2,,,,,,,2,0,2,0,,,,,,,,,,,2001.6909,2002.1822,2002.4319,2006.1973,space,3.7332,,2006.1974,76,31,2007.1848,2007.1849,2007.229,,,,0,12,12,12,1,130,85,,,,,,,,
,,61645511546f08038b19f62c,65af54fefa16a017ecb780b3,2024-01-23_07h57.45.731,bars,2023.2.3,Linux x86_64,31.05590062,657b66ea316d21385b68909f,,,,,,,,,,,2007.2305,2008.2257,,,2008.7317,2008.988,,168,-12,,,,,,,,,,,,,,,,bars/023.png,bars/mask001.png,,,,,,,,,,,,0,1,,,,,,,0,2,1,1,,,,,,,,,,,2008.2258,2008.7317,2008.988,2014.5942,space,5.5652,,2014.5943,32,53,2015.5905,2015.5905,2015.6316,,,,0,13,13,13,1,20,115,,,,,,,,
,,61645511546f08038b19f62c,65af54fefa16a017ecb780b3,2024-01-23_07h57.45.731,bars,2023.2.3,Linux x86_64,31.05590062,657b66ea316d21385b68909f,,,,,,,,,,,2015.6324,2016.6263,,,2017.1221,2017.37,,44,44,,,,,,,,,,,,,,,,bars/019.png,bars/mask003.png,,,,,,,,,,,,1,1,,,,,,,2,0,1,0,,,,,,,,,,,2016.6263,2017.122,2017.37,2019.8239,space,2.4244,,2019.824,1,61,2020.8277,2020.8278,2020.8751,,,,0,14,14,14,1,45,105,,,,,,,,
,,61645511546f08038b19f62c,65af54fefa16a017ecb780b3,2024-01-23_07h57.45.731,bars,2023.2.3,Linux x86_64,31.05590062,657b66ea316d21385b68909f,,,,,,,,,,,2020.8757,2021.8709,,,2022.371,2022.6238,,28,208,,,,,,,,,,,,,,,,bars/036.png,bars/mask004.png,,,,,,,,,,,,2,2,,,,,,,4,2,4,3,,,,,,,,,,,2021.871,2022.371,2022.6239,2025.7116,space,3.046,,2025.7117,63,8,2026.7001,2026.7002,2026.7342,,,,0,15,15,15,1,145,20,,,,,,,,
,,61645511546f08038b19f62c,65af54fefa16a017ecb780b3,2024-01-23_07h57.45.731,bars,2023.2.3,Linux x86_64,31.05590062,657b66ea316d21385b68909f,,,,,,,,,,,2026.7349,2027.7401,,,2028.219,2028.447,,115,115,,,,,,,,,,,,,,,,bars/037.png,bars/mask004.png,,,,,,,,,,,,2,2,,,,,,,2,4,2,3,,,,,,,,,,,2027.7402,2028.2189,2028.447,2032.8775,space,4.4009,,2032.8776,35,10,2033.8761,2033.8761,2033.9193,,,,0,16,16,16,1,150,105,,,,,,,,
,,61645511546f08038b19f62c,65af54fefa16a017ecb780b3,2024-01-23_07h57.45.731,bars,2023.2.3,Linux x86_64,31.05590062,657b66ea316d21385b68909f,,,,,,,,,,,2033.9203,2034.9145,,,2035.4324,2035.6842,,139,139,,,,,,,,,,,,,,,,bars/031.png,bars/mask006.png,,,,,,,,,,,,3,1,,,,,,,4,2,7,4,,,,,,,,,,,2034.9146,2035.4324,2035.6843,2038.3462,space,2.6289,,2038.3463,19,76,2039.3376,2039.3377,2039.3866,,,,0,17,17,17,1,120,35,,,,,,,,
,,61645511546f08038b19f62c,65af54fefa16a017ecb780b3,2024-01-23_07h57.45.731,bars,2023.2.3,Linux x86_64,31.05590062,657b66ea316d21385b68909f,,,,,,,,,,,2039.3871,2040.3779,,,2040.8811,2041.1407,,132,-48,,,,,,,,,,,,,,,,bars/036.png,bars/mask006.png,,,,,,,,,,,,3,1,,,,,,,6,4,6,4,,,,,,,,,,,2040.3779,2040.8811,2041.1408,2044.0071,space,2.8467,,2044.0072,13,68,2044.9939,2044.994,2045.026,,,,0,18,18,18,1,145,20,,,,,,,,
,,61645511546f08038b19f62c,65af54fefa16a017ecb780b3,2024-01-23_07h57.45.731,bars,2023.2.3,Linux x86_64,31.05590062,657b66ea316d21385b68909f,,,,,,,,,,,2045.0266,2046.0056,,,2046.4829,2046.7287,,124,124,,,,,,,,,,,,,,,,bars/008.png,bars/mask000.png,,,,,,,,,,,,1,1,,,,,,,4,6,1,6,,,,,,,,,,,2046.0057,2046.4829,2046.7287,2051.0529,space,4.2942,,2051.0529,14,56,2052.0353,2052.0353,2052.0707,,,,0,19,19,19,1,110,0,,,,,,,,
,,61645511546f08038b19f62c,65af54fefa16a017ecb780b3,2024-01-23_07h57.45.731,bars,2023.2.3,Linux x86_64,31.05590062,657b66ea316d21385b68909f,,,,,,,,,,,2052.0714,2053.0465,,,2053.5441,2053.7851,,57,57,,,,,,,,,,,,,,,,bars/042.png,bars/mask008.png,,,,,,,,,,,,2,2,,,,,,,6,4,5,5,,,,,,,,,,,2053.0465,2053.5441,2053.7852,2056.1361,space,2.3079,,2056.1361,88,18,2057.113,2057.113,2057.1549,,,,0,20,20,20,1,145,75,,,,,,,,
,,61645511546f08038b19f62c,65af54fefa16a017ecb780b3,2024-01-23_07h57.45.731,bars,2023.2.3,Linux x86_64,31.05590062,657b66ea316d21385b68909f,,,,,,,,,,,2057.1557,2058.1388,,,2058.6215,2058.8544,,57,57,,,,,,,,,,,,,,,,bars/046.png,bars/mask007.png,,,,,,,,,,,,0,2,,,,,,,8,2,8,3,,,,,,,,,,,2058.1388,2058.6214,2058.8545,2060.7534,space,1.8687,,2060.7535,82,28,2061.7592,2061.7592,2061.8051,,,,0,21,21,21,1,155,85,,,,,,,,
,,61645511546f08038b19f62c,65af54fefa16a017ecb780b3,2024-01-23_07h57.45.731,bars,2023.2.3,Linux x86_64,31.05590062,657b66ea316d21385b68909f,,,,,,,,,,,2061.8063,2062.781,,,2063.2764,2063.524,,120,120,,,,,,,,,,,,,,,,bars/049.png,bars/mask008.png,,,,,,,,,,,,4,2,,,,,,,6,4,6,5,,,,,,,,,,,2062.781,2063.2764,2063.5241,2067.2205,space,3.6655,,2067.2206,40,5,2068.2181,2068.2182,2068.2556,,,,0,22,22,22,1,160,115,,,,,,,,
,,61645511546f08038b19f62c,65af54fefa16a017ecb780b3,2024-01-23_07h57.45.731,bars,2023.2.3,Linux x86_64,31.05590062,657b66ea316d21385b68909f,,,,,,,,,,,2068.2564,2069.2505,,,2069.7513,2069.9982,,66,66,,,,,,,,,,,,,,,,bars/042.png,bars/mask003.png,,,,,,,,,,,,0,2,,,,,,,8,2,7,0,,,,,,,,,,,2069.2506,2069.7512,2069.9983,2072.0958,space,2.0701,,2072.0959,79,9,2073.0899,2073.09,2073.0913,,,,0,23,23,23,1,145,75,,,,,,,,
,,61645511546f08038b19f62c,65af54fefa16a017ecb780b3,2024-01-23_07h57.45.731,bars,2023.2.3,Linux x86_64,31.05590062,657b66ea316d21385b68909f,,,,,,,,,,,2073.0919,2074.09,,,2074.5708,2074.8263,,135,135,,,,,,,,,,,,,,,,bars/040.png,bars/mask009.png,,,,,,,,,,,,6,1,,,,,,,6,0,7,0,,,,,,,,,,,2074.09,2074.5708,2074.8264,2077.0304,space,2.1705,,2077.0306,5,50,2078.0341,2078.0341,2078.0734,,,,0,24,24,24,1,140,5,,,,,,,,
,,61645511546f08038b19f62c,65af54fefa16a017ecb780b3,2024-01-23_07h57.45.731,bars,2023.2.3,Linux x86_64,31.05590062,657b66ea316d21385b68909f,,,,,,,,,,,2078.0751,2079.0833,,,2079.5758,2079.8127,,168,-12,,,,,,,,,,,,,,,,bars/008.png,bars/mask002.png,,,,,,,,,,,,1,2,,,,,,,4,0,5,1,,,,,,,,,,,2079.0834,2079.5758,2079.8128,2082.2515,space,2.4037,,2082.2515,58,12,2083.2259,2083.2259,2083.2305,,,,0,25,25,25,1,110,0,,,,,,,,
,,61645511546f08038b19f62c,65af54fefa16a017ecb780b3,2024-01-23_07h57.45.731,bars,2023.2.3,Linux x86_64,31.05590062,657b66ea316d21385b68909f,,,,,,,,,,,2083.2323,2084.2184,,,2084.6893,2084.9284,,51,51,,,,,,,,,,,,,,,,bars/025.png,bars/mask005.png,,,,,,,,,,,,1,2,,,,,,,6,2,7,2,,,,,,,,,,,2084.2184,2084.6893,2084.9284,2087.4604,space,2.4964,,2087.4605,54,11,2088.4561,2088.4562,2088.4993,,,,0,26,26,26,1,105,40,,,,,,,,
,,61645511546f08038b19f62c,65af54fefa16a017ecb780b3,2024-01-23_07h57.45.731,bars,2023.2.3,Linux x86_64,31.05590062,657b66ea316d21385b68909f,,,,,,,,,,,2088.5002,2089.4875,,,2089.9696,2090.196,,59,59,,,,,,,,,,,,,,,,bars/012.png,bars/mask000.png,,,,,,,,,,,,0,1,,,,,,,8,0,8,0,,,,,,,,,,,2089.4876,2089.9695,2090.1961,2094.7701,space,4.5441,,2094.7703,31,44,2095.7474,2095.7475,2095.7834,,,,0,27,27,27,1,90,15,,,,,,,,
,,61645511546f08038b19f62c,65af54fefa16a017ecb780b3,2024-01-23_07h57.45.731,bars,2023.2.3,Linux x86_64,31.05590062,657b66ea316d21385b68909f,,,,,,,,,,,2095.7841,2096.7602,,,2097.25,2097.4994,,170,-10,,,,,,,,,,,,,,,,bars/003.png,bars/mask006.png,,,,,,,,,,,,0,2,,,,,,,6,2,7,0,,,,,,,,,,,2096.7602,2097.2499,2097.4994,2124.2108,space,26.6812,,2124.2109,35,30,2125.2159,2125.216,2125.2588,,,,0,28,28,28,1,25,140,,,,,,,,
,,61645511546f08038b19f62c,65af54fefa16a017ecb780b3,2024-01-23_07h57.45.731,bars,2023.2.3,Linux x86_64,31.05590062,657b66ea316d21385b68909f,,,,,,,,,,,2125.2596,2126.2489,,,2126.7574,2126.9836,,132,132,,,,,,,,,,,,,,,,bars/023.png,bars/mask002.png,,,,,,,,,,,,2,2,,,,,,,8,4,7,4,,,,,,,,,,,2126.249,2126.7573,2126.9836,2129.0432,space,2.0301,,2129.0433,68,17,2130.0264,2130.0265,2130.0695,,,,0,29,29,29,1,20,115,,,,,,,,
,,61645511546f08038b19f62c,65af54fefa16a017ecb780b3,2024-01-23_07h57.45.731,bars,2023.2.3,Linux x86_64,31.05590062,657b66ea316d21385b68909f,,,,,,,,,,,2130.0702,2131.0713,,,2131.5776,2131.8125,,153,153,,,,,,,,,,,,,,,,bars/044.png,bars/mask003.png,,,,,,,,,,,,6,2,,,,,,,10,6,10,6,,,,,,,,,,,2131.0713,2131.5776,2131.8126,2133.0071,space,1.1724,,2133.0072,78,2,2133.9808,2133.9808,2133.9861,,,,0,30,30,30,1,75,155,,,,,,,,
,,61645511546f08038b19f62c,65af54fefa16a017ecb780b3,2024-01-23_07h57.45.731,bars,2023.2.3,Linux x86_64,31.05590062,657b66ea316d21385b68909f,,,,,,,,,,,2133.9872,2134.9735,,,2135.4732,2135.7311,,5,185,,,,,,,,,,,,,,,,bars/008.png,bars/mask002.png,,,,,,,,,,,,8,2,,,,,,,10,8,10,9,,,,,,,,,,,2134.9737,2135.4731,2135.7312,2138.3399,space,2.5693,,2138.3399,75,5,2139.3392,2139.3392,2139.3404,,,,0,31,31,31,1,110,0,,,,,,,,
,,61645511546f08038b19f62c,65af54fefa16a017ecb780b3,2024-01-23_07h57.45.731,bars,2023.2.3,Linux x86_64,31.05590062,657b66ea316d21385b68909f,,,,,,,,,,,2139.3409,2140.3373,,,2140.845,2141.0873,,53,233,,,,,,,,,,,,,,,,bars/027.png,bars/mask006.png,,,,,,,,,,,,8,2,,,,,,,10,10,9,9,,,,,,,,,,,2140.3373,2140.845,2141.0875,2144.0523,space,2.9202,,2144.0523,57,3,2145.0726,2145.0727,2145.1136,,,,0,32,32,32,1,110,50,,,,,,,,
,,61645511546f08038b19f62c,65af54fefa16a017ecb780b3,2024-01-23_07h57.45.731,bars,2023.2.3,Linux x86_64,31.05590062,657b66ea316d21385b68909f,,,,,,,,,,,2145.1142,2146.0982,,,2146.5959,2146.865,,52,52,,,,,,,,,,,,,,,,bars/035.png,bars/mask001.png,,,,,,,,,,,,7,2,,,,,,,8,10,9,10,,,,,,,,,,,2146.0983,2146.5957,2146.8651,2150.2931,space,3.3967,,2150.2933,57,8,2151.296,2151.2961,2151.3503,,,,0,33,33,33,1,175,60,,,,,,,,
,,61645511546f08038b19f62c,65af54fefa16a017ecb780b3,2024-01-23_07h57.45.731,bars,2023.2.3,Linux x86_64,31.05590062,657b66ea316d21385b68909f,,,,,,,,,,,2151.3513,2152.3562,,,2152.8505,2153.0801,,36,36,,,,,,,,,,,,,,,,bars/007.png,bars/mask007.png,,,,,,,,,,,,3,2,,,,,,,10,8,10,8,,,,,,,,,,,2152.3563,2152.8505,2153.0802,2157.127,space,4.0021,,2157.127,41,19,2158.1345,2158.1345,2158.1791,,,,0,34,34,34,1,175,55,,,,,,,,
,,61645511546f08038b19f62c,65af54fefa16a017ecb780b3,2024-01-23_07h57.45.731,bars,2023.2.3,Linux x86_64,31.05590062,657b66ea316d21385b68909f,,,,,,,,,,,2158.1804,2159.1708,,,2159.659,2159.9072,,24,24,,,,,,,,,,,,,,,,bars/022.png,bars/mask007.png,,,,,,,,,,,,6,2,,,,,,,10,6,10,7,,,,,,,,,,,2159.1709,2159.6589,2159.9073,2162.7624,space,2.826,,2162.7625,71,4,2163.7529,2163.753,2163.7871,,,,0,35,35,35,1,95,20,,,,,,,,
,,61645511546f08038b19f62c,65af54fefa16a017ecb780b3,2024-01-23_07h57.45.731,bars,2023.2.3,Linux x86_64,31.05590062,657b66ea316d21385b68909f,,,,,,,,,,,2163.7879,2164.7929,,,2165.2882,2165.5466,,120,120,,,,,,,,,,,,,,,,bars/009.png,bars/mask006.png,,,,,,,,,,,,3,2,,,,,,,8,8,8,6,,,,,,,,,,,2164.7929,2165.2882,2165.5467,2168.7843,space,3.1968,,2168.7843,75,15,2169.787,2169.7871,2169.8228,,,,0,36,36,36,1,15,105,,,,,,,,
,,61645511546f08038b19f62c,65af54fefa16a017ecb780b3,2024-01-23_07h57.45.731,bars,2023.2.3,Linux x86_64,31.05590062,657b66ea316d21385b68909f,,,,,,,,,,,2169.8249,2170.8217,,,2171.3083,2171.5441,,36,36,,,,,,,,,,,,,,,,bars/025.png,bars/mask003.png,,,,,,,,,,,,9,2,,,,,,,10,10,9,10,,,,,,,,,,,2170.8218,2171.3083,2171.5442,2173.8234,space,2.245,,2173.8235,69,4,2174.8285,2174.8285,2174.8681,,,,0,37,37,37,1,105,40,,,,,,,,
,,61645511546f08038b19f62c,65af54fefa16a017ecb780b3,2024-01-23_07h57.45.731,bars,2023.2.3,Linux x86_64,31.05590062,657b66ea316d21385b68909f,,,,,,,,,,,2174.8687,2175.8718,,,2176.3797,2176.6059,,44,44,,,,,,,,,,,,,,,,bars/035.png,bars/mask005.png,,,,,,,,,,,,5,2,,,,,,,10,10,8,10,,,,,,,,,,,2175.8719,2176.3796,2176.606,2177.4791,space,0.8317,,2177.4792,49,16,2178.4825,2178.4825,2178.4848,,,,0,38,38,38,1,175,60,,,,,,,,
,,61645511546f08038b19f62c,65af54fefa16a017ecb780b3,2024-01-23_07h57.45.731,bars,2023.2.3,Linux x86_64,31.05590062,657b66ea316d21385b68909f,,,,,,,,,,,2178.4864,2179.503,,,2179.9902,2180.248,,45,45,,,,,,,,,,,,,,,,bars/017.png,bars/mask007.png,,,,,,,,,,,,9,2,,,,,,,10,10,8,9,,,,,,,,,,,2179.503,2179.9901,2180.248,2182.8439,space,2.5598,,2182.8441,80,0,2183.8156,2183.8156,2183.8566,,,,0,39,39,39,1,145,45,,,,,,,,
,,61645511546f08038b19f62c,65af54fefa16a017ecb780b3,2024-01-23_07h57.45.731,bars,2023.2.3,Linux x86_64,31.05590062,657b66ea316d21385b68909f,,,,,,,,,,,2183.8602,2184.8507,,,2185.334,2185.5776,,64,64,,,,,,,,,,,,,,,,bars/002.png,bars/mask001.png,,,,,,,,,,,,3,2,,,,,,,8,10,10,10,,,,,,,,,,,2184.8507,2185.334,2185.5776,2187.6626,space,2.0522,,2187.6628,66,21,2188.6461,2188.6462,2188.6868,,,,0,40,40,40,1,130,85,,,,,,,,
,,61645511546f08038b19f62c,65af54fefa16a017ecb780b3,2024-01-23_07h57.45.731,bars,2023.2.3,Linux x86_64,31.05590062,657b66ea316d21385b68909f,,,,,,,,,,,2188.6873,2189.6818,,,2190.1743,2190.4299,,138,138,,,,,,,,,,,,,,,,bars/043.png,bars/mask003.png,,,,,,,,,,,,7,2,,,,,,,10,10,10,10,,,,,,,,,,,2189.6818,2190.1742,2190.4299,2192.9746,space,2.5094,,2192.9747,72,8,2193.9578,2193.9578,2193.9946,,,,0,41,41,41,1,30,130,,,,,,,,
,,61645511546f08038b19f62c,65af54fefa16a017ecb780b3,2024-01-23_07h57.45.731,bars,2023.2.3,Linux x86_64,31.05590062,657b66ea316d21385b68909f,,,,,,,,,,,2193.9956,2194.9761,,,2195.4721,2195.7128,,38,38,,,,,,,,,,,,,,,,bars/031.png,bars/mask003.png,,,,,,,,,,,,9,2,,,,,,,10,10,9,10,,,,,,,,,,,2194.9761,2195.4721,2195.7129,2197.8383,space,2.0973,,2197.8383,82,3,2198.8387,2198.8387,2198.8399,,,,0,42,42,42,1,120,35,,,,,,,,
,,61645511546f08038b19f62c,65af54fefa16a017ecb780b3,2024-01-23_07h57.45.731,bars,2023.2.3,Linux x86_64,31.05590062,657b66ea316d21385b68909f,,,,,,,,,,,2198.8406,2199.8181,,,2200.31,2200.5769,,54,54,,,,,,,,,,,,,,,,bars/046.png,bars/mask002.png,,,,,,,,,,,,0,2,,,,,,,8,10,8,10,,,,,,,,,,,2199.8182,2200.3099,2200.577,2201.194,space,0.5939,,2201.1941,79,31,2202.1891,2202.1891,2202.1906,,,,0,43,43,43,1,155,85,,,,,,,,
,,61645511546f08038b19f62c,65af54fefa16a017ecb780b3,2024-01-23_07h57.45.731,bars,2023.2.3,Linux x86_64,31.05590062,657b66ea316d21385b68909f,,,,,,,,,,,2202.1912,2203.1844,,,2203.6615,2203.909,,143,143,,,,,,,,,,,,,,,,bars/044.png,bars/mask001.png,,,,,,,,,,,,5,2,,,,,,,6,8,6,9,,,,,,,,,,,2203.1844,2203.6614,2203.909,2208.6991,space,4.7606,,2208.6992,68,12,2209.6786,2209.6787,2209.7169,,,,0,44,44,44,1,75,155,,,,,,,,
,,61645511546f08038b19f62c,65af54fefa16a017ecb780b3,2024-01-23_07h57.45.731,bars,2023.2.3,Linux x86_64,31.05590062,657b66ea316d21385b68909f,,,,,,,,,,,2209.7179,2210.7222,,,2211.1997,2211.4676,,55,55,,,,,,,,,,,,,,,,bars/007.png,bars/mask004.png,,,,,,,,,,,,7,2,,,,,,,4,6,3,7,,,,,,,,,,,2210.7222,2211.1997,2211.4676,2214.0847,space,2.591,,2214.0848,60,0,2215.0731,2215.0731,2215.0744,,,,0,45,45,45,1,175,55,,,,,,,,
,,61645511546f08038b19f62c,65af54fefa16a017ecb780b3,2024-01-23_07h57.45.731,bars,2023.2.3,Linux x86_64,31.05590062,657b66ea316d21385b68909f,,,,,,,,,,,2215.075,2216.0697,,,2216.565,2216.8193,,121,121,,,,,,,,,,,,,,,,bars/028.png,bars/mask000.png,,,,,,,,,,,,4,2,,,,,,,6,4,5,4,,,,,,,,,,,2216.0698,2216.5649,2216.8194,2218.4945,space,1.6473,,2218.4945,76,1,2219.4993,2219.4994,2219.541,,,,0,46,46,46,1,45,120,,,,,,,,
,,61645511546f08038b19f62c,65af54fefa16a017ecb780b3,2024-01-23_07h57.45.731,bars,2023.2.3,Linux x86_64,31.05590062,657b66ea316d21385b68909f,,,,,,,,,,,2219.5434,2220.5453,,,2221.0469,2221.2934,,74,74,,,,,,,,,,,,,,,,bars/019.png,bars/mask005.png,,,,,,,,,,,,0,1,,,,,,,8,2,7,1,,,,,,,,,,,2220.5454,2221.0468,2221.2934,2224.0187,space,2.693,,2224.0187,29,31,2224.9955,2224.9955,2225.0466,,,,0,47,47,47,1,45,105,,,,,,,,
,,61645511546f08038b19f62c,65af54fefa16a017ecb780b3,2024-01-23_07h57.45.731,bars,2023.2.3,Linux x86_64,31.05590062,657b66ea316d21385b68909f,,,,,,,,,,,2225.0471,2226.039,,,2226.523,2226.7746,,170,-10,,,,,,,,,,,,,,,,bars/024.png,bars/mask002.png,,,,,,,,,,,,4,2,,,,,,,6,4,6,4,,,,,,,,,,,2226.0391,2226.5229,2226.7746,2229.0094,space,2.2019,,2229.0095,50,0,2230.0333,2230.0333,2230.0798,,,,0,48,48,48,1,120,170,,,,,,,,
,,61645511546f08038b19f62c,65af54fefa16a017ecb780b3,2024-01-23_07h57.45.731,bars,2023.2.3,Linux x86_64,31.05590062,657b66ea316d21385b68909f,,,,,,,,,,,2230.0806,2231.0561,,,2231.5508,2231.7804,,124,124,,,,,,,,,,,,,,,,bars/049.png,bars/mask005.png,,,,,,,,,,,,4,2,,,,,,,4,6,4,5,,,,,,,,,,,2231.0561,2231.5507,2231.7805,2232.5394,space,0.7238,,2232.5394,36,9,2233.5211,2233.5211,2233.5231,,,,0,49,49,49,1,160,115,,,,,,,,
,,61645511546f08038b19f62c,65af54fefa16a017ecb780b3,2024-01-23_07h57.45.731,bars,2023.2.3,Linux x86_64,31.05590062,657b66ea316d21385b68909f,,,,,,,,,,,,,,,,,,,,,,,,,,,,,,,,,,,,,,,,,,,,,,,,,,,,,,,,,,,,,,,,,,,,,,,,,,,,,,,,,,,,,,,,,,,,,2233.5234,2293.5153,0,2,2,0,1,sequence_tables/blk033.csv
,,61645511546f08038b19f62c,65af54fefa16a017ecb780b3,2024-01-23_07h57.45.731,bars,2023.2.3,Linux x86_64,31.05590062,657b66ea316d21385b68909f,,,,,,,,,,,2304.9605,2305.9218,,,2306.4142,2306.6565,,137,-43,,,,,,,,,,,,,,,,bars/049.png,bars/mask001.png,,,,,,,,,,,,0,2,,,,,,,4,1,4,1,,,,,,2293.5598,2304.9052,space,11.3255,,2305.9219,2306.4141,2306.6566,2311.5217,space,4.8437,,2311.5217,23,22,2312.5264,2312.5265,2312.5663,,,,0,0,0,0,1,160,115,,,,,,,,
,,61645511546f08038b19f62c,65af54fefa16a017ecb780b3,2024-01-23_07h57.45.731,bars,2023.2.3,Linux x86_64,31.05590062,657b66ea316d21385b68909f,,,,,,,,,,,2312.5671,2313.5603,,,2314.0418,2314.2923,,60,60,,,,,,,,,,,,,,,,bars/002.png,bars/mask000.png,,,,,,,,,,,,0,2,,,,,,,6,0,8,0,,,,,,,,,,,2313.5604,2314.0417,2314.2924,2318.1707,space,3.8419,,2318.1708,70,25,2319.1674,2319.1674,2319.2124,,,,0,1,1,1,1,130,85,,,,,,,,
,,61645511546f08038b19f62c,65af54fefa16a017ecb780b3,2024-01-23_07h57.45.731,bars,2023.2.3,Linux x86_64,31.05590062,657b66ea316d21385b68909f,,,,,,,,,,,2319.2128,2320.1935,,,2320.6722,2320.9216,,26,26,,,,,,,,,,,,,,,,bars/022.png,bars/mask006.png,,,,,,,,,,,,2,2,,,,,,,4,2,2,2,,,,,,,,,,,2320.1935,2320.6722,2320.9218,2322.9602,space,2.0101,,2322.9602,69,6,2323.9764,2323.9765,2324.0286,,,,0,2,2,2,1,95,20,,,,,,,,
,,61645511546f08038b19f62c,65af54fefa16a017ecb780b3,2024-01-23_07h57.45.731,bars,2023.2.3,Linux x86_64,31.05590062,657b66ea316d21385b68909f,,,,,,,,,,,2324.0304,2325.0326,,,2325.5308,2325.7847,,24,204,,,,,,,,,,,,,,,,bars/014.png,bars/mask002.png,,,,,,,,,,,,0,2,,,,,,,2,0,2,0,,,,,,,,,,,2325.0326,2325.5308,2325.7847,2328.4532,space,2.6358,,2328.4533,56,24,2329.4466,2329.4466,2329.4933,,,,0,3,3,3,1,80,0,,,,,,,,
,,61645511546f08038b19f62c,65af54fefa16a017ecb780b3,2024-01-23_07h57.45.731,bars,2023.2.3,Linux x86_64,31.05590062,657b66ea316d21385b68909f,,,,,,,,,,,2329.4939,2330.4864,,,2330.9641,2331.2143,,90,90,,,,,,,,,,,,,,,,bars/018.png,bars/mask007.png,,,,,,,,,,,,0,2,,,,,,,4,0,4,0,,,,,,,,,,,2330.4864,2330.9641,2331.2144,2332.971,space,1.7275,,2332.9712,60,0,2333.9579,2333.958,2334.0012,,,,0,4,4,4,1,150,90,,,,,,,,
,,61645511546f08038b19f62c,65af54fefa16a017ecb780b3,2024-01-23_07h57.45.731,bars,2023.2.3,Linux x86_64,31.05590062,657b66ea316d21385b68909f,,,,,,,,,,,2334.0026,2334.9892,,,2335.4703,2335.6962,,33,33,,,,,,,,,,,,,,,,bars/000.png,bars/mask008.png,,,,,,,,,,,,2,1,,,,,,,2,2,3,1,,,,,,,,,,,2334.9892,2335.4703,2335.6962,2340.5591,space,4.8258,,2340.5592,7,68,2341.5509,2341.5509,2341.5972,,,,0,5,5,5,1,40,145,,,,,,,,
,,61645511546f08038b19f62c,65af54fefa16a017ecb780b3,2024-01-23_07h57.45.731,bars,2023.2.3,Linux x86_64,31.05590062,657b66ea316d21385b68909f,,,,,,,,,,,2341.5979,2342.6,,,2343.0918,2343.3236,,134,134,,,,,,,,,,,,,,,,bars/018.png,bars/mask009.png,,,,,,,,,,,,0,1,,,,,,,0,4,1,3,,,,,,,,,,,2342.6,2343.0918,2343.3237,2345.4128,space,2.0631,,2345.4128,16,44,2346.3835,2346.3835,2346.4181,,,,0,6,6,6,1,150,90,,,,,,,,
,,61645511546f08038b19f62c,65af54fefa16a017ecb780b3,2024-01-23_07h57.45.731,bars,2023.2.3,Linux x86_64,31.05590062,657b66ea316d21385b68909f,,,,,,,,,,,2346.4187,2347.4034,,,2347.8879,2348.133,,2,182,,,,,,,,,,,,,,,,bars/035.png,bars/mask002.png,,,,,,,,,,,,0,1,,,,,,,0,6,0,7,,,,,,,,,,,2347.4034,2347.8878,2348.133,2352.3274,space,4.161,,2352.3276,7,58,2353.3439,2353.344,2353.3876,,,,0,7,7,7,1,175,60,,,,,,,,
,,61645511546f08038b19f62c,65af54fefa16a017ecb780b3,2024-01-23_07h57.45.731,bars,2023.2.3,Linux x86_64,31.05590062,657b66ea316d21385b68909f,,,,,,,,,,,2353.3898,2354.3709,,,2354.8699,2355.1182,,117,117,,,,,,,,,,,,,,,,bars/025.png,bars/mask005.png,,,,,,,,,,,,1,1,,,,,,,2,8,2,8,,,,,,,,,,,2354.371,2354.8698,2355.1182,2357.7546,space,2.5952,,2357.7547,12,77,2358.7567,2358.7568,2358.798,,,,0,8,8,8,1,105,40,,,,,,,,
,,61645511546f08038b19f62c,65af54fefa16a017ecb780b3,2024-01-23_07h57.45.731,bars,2023.2.3,Linux x86_64,31.05590062,657b66ea316d21385b68909f,,,,,,,,,,,2358.7994,2359.7952,,,2360.2732,2360.5285,,110,110,,,,,,,,,,,,,,,,bars/045.png,bars/mask007.png,,,,,,,,,,,,3,1,,,,,,,4,6,4,7,,,,,,,,,,,2359.7953,2360.2731,2360.5287,2363.8959,space,3.3356,,2363.896,10,80,2364.8999,2364.9,2364.9465,,,,0,9,9,9,1,100,10,,,,,,,,
,,61645511546f08038b19f62c,65af54fefa16a017ecb780b3,2024-01-23_07h57.45.731,bars,2023.2.3,Linux x86_64,31.05590062,657b66ea316d21385b68909f,,,,,,,,,,,2364.9472,2365.9201,,,2366.4164,2366.675,,150,150,,,,,,,,,,,,,,,,bars/049.png,bars/mask008.png,,,,,,,,,,,,0,1,,,,,,,2,8,0,8,,,,,,,,,,,2365.9202,2366.4163,2366.675,2369.8726,space,3.1572,,2369.8726,10,35,2370.8396,2370.8396,2370.881,,,,0,10,10,10,1,160,115,,,,,,,,
,,61645511546f08038b19f62c,65af54fefa16a017ecb780b3,2024-01-23_07h57.45.731,bars,2023.2.3,Linux x86_64,31.05590062,657b66ea316d21385b68909f,,,,,,,,,,,2370.8816,2371.8905,,,2372.3765,2372.604,,59,59,,,,,,,,,,,,,,,,bars/048.png,bars/mask001.png,,,,,,,,,,,,3,1,,,,,,,4,10,4,8,,,,,,,,,,,2371.8905,2372.3764,2372.604,2377.3045,space,4.6597,,2377.3046,9,64,2378.2967,2378.2967,2378.3412,,,,0,11,11,11,1,50,175,,,,,,,,
,,61645511546f08038b19f62c,65af54fefa16a017ecb780b3,2024-01-23_07h57.45.731,bars,2023.2.3,Linux x86_64,31.05590062,657b66ea316d21385b68909f,,,,,,,,,,,2378.3419,2379.3221,,,2379.8139,2380.0651,,45,45,,,,,,,,,,,,,,,,bars/006.png,bars/mask009.png,,,,,,,,,,,,2,1,,,,,,,2,8,3,10,,,,,,,,,,,2379.3222,2379.8138,2380.0651,2382.8201,space,2.7126,,2382.8202,10,55,2383.8034,2383.8034,2383.8431,,,,0,12,12,12,1,35,100,,,,,,,,
,,61645511546f08038b19f62c,65af54fefa16a017ecb780b3,2024-01-23_07h57.45.731,bars,2023.2.3,Linux x86_64,31.05590062,657b66ea316d21385b68909f,,,,,,,,,,,2383.8438,2384.8158,,,2385.31,2385.5564,,46,46,,,,,,,,,,,,,,,,bars/035.png,bars/mask008.png,,,,,,,,,,,,5,2,,,,,,,0,10,0,9,,,,,,,,,,,2384.8159,2385.3098,2385.5564,2390.0568,space,4.4663,,2390.0568,51,14,2391.0304,2391.0304,2391.0757,,,,0,13,13,13,1,175,60,,,,,,,,
,,61645511546f08038b19f62c,65af54fefa16a017ecb780b3,2024-01-23_07h57.45.731,bars,2023.2.3,Linux x86_64,31.05590062,657b66ea316d21385b68909f,,,,,,,,,,,2391.0763,2392.0904,,,2392.5727,2392.8221,,153,153,,,,,,,,,,,,,,,,bars/033.png,bars/mask003.png,,,,,,,,,,,,9,2,,,,,,,2,10,1,10,,,,,,,,,,,2392.0905,2392.5726,2392.8222,2395.2393,space,2.383,,2395.2393,52,2,2396.2164,2396.2165,2396.2539,,,,0,14,14,14,1,25,155,,,,,,,,
,,61645511546f08038b19f62c,65af54fefa16a017ecb780b3,2024-01-23_07h57.45.731,bars,2023.2.3,Linux x86_64,31.05590062,657b66ea316d21385b68909f,,,,,,,,,,,2396.2548,2397.2556,,,2397.7426,2398.004,,134,-46,,,,,,,,,,,,,,,,bars/028.png,bars/mask002.png,,,,,,,,,,,,3,2,,,,,,,0,8,0,6,,,,,,,,,,,2397.2556,2397.7426,2398.0041,2401.0285,space,3.0014,,2401.0286,89,14,2402.0243,2402.0244,2402.0642,,,,0,15,15,15,1,45,120,,,,,,,,
,,61645511546f08038b19f62c,65af54fefa16a017ecb780b3,2024-01-23_07h57.45.731,bars,2023.2.3,Linux x86_64,31.05590062,657b66ea316d21385b68909f,,,,,,,,,,,2402.065,2403.0835,,,2403.579,2403.8294,,46,226,,,,,,,,,,,,,,,,bars/025.png,bars/mask001.png,,,,,,,,,,,,4,2,,,,,,,0,6,1,5,,,,,,,,,,,2403.0835,2403.5789,2403.8295,2408.2615,space,4.3994,,2408.2615,59,6,2409.2444,2409.2445,2409.286,,,,0,16,16,16,1,105,40,,,,,,,,
,,61645511546f08038b19f62c,65af54fefa16a017ecb780b3,2024-01-23_07h57.45.731,bars,2023.2.3,Linux x86_64,31.05590062,657b66ea316d21385b68909f,,,,,,,,,,,2409.2875,2410.2781,,,2410.7763,2411.0429,,119,119,,,,,,,,,,,,,,,,bars/039.png,bars/mask005.png,,,,,,,,,,,,4,2,,,,,,,0,8,0,8,,,,,,,,,,,2410.2781,2410.7763,2411.0429,2414.8428,space,3.7721,,2414.8429,56,14,2415.8349,2415.835,2415.8772,,,,0,17,17,17,1,175,105,,,,,,,,
,,61645511546f08038b19f62c,65af54fefa16a017ecb780b3,2024-01-23_07h57.45.731,bars,2023.2.3,Linux x86_64,31.05590062,657b66ea316d21385b68909f,,,,,,,,,,,2415.8779,2416.8761,,,2417.3812,2417.6419,,46,46,,,,,,,,,,,,,,,,bars/026.png,bars/mask007.png,,,,,,,,,,,,0,1,,,,,,,0,10,0,10,,,,,,,,,,,2416.8761,2417.3811,2417.642,2419.7372,space,2.0634,,2419.7373,11,39,2420.7332,2420.7333,2420.7741,,,,0,18,18,18,1,35,85,,,,,,,,
,,61645511546f08038b19f62c,65af54fefa16a017ecb780b3,2024-01-23_07h57.45.731,bars,2023.2.3,Linux x86_64,31.05590062,657b66ea316d21385b68909f,,,,,,,,,,,2420.7747,2421.7626,,,2422.279,2422.5444,,155,155,,,,,,,,,,,,,,,,bars/033.png,bars/mask007.png,,,,,,,,,,,,9,2,,,,,,,2,8,2,9,,,,,,,,,,,2421.7628,2422.279,2422.5444,2425.762,space,3.188,,2425.762,50,0,2426.7612,2426.7613,2426.8085,,,,0,19,19,19,1,25,155,,,,,,,,
,,61645511546f08038b19f62c,65af54fefa16a017ecb780b3,2024-01-23_07h57.45.731,bars,2023.2.3,Linux x86_64,31.05590062,657b66ea316d21385b68909f,,,,,,,,,,,2426.8091,2427.8048,,,2428.2842,2428.5348,,43,43,,,,,,,,,,,,,,,,bars/027.png,bars/mask003.png,,,,,,,,,,,,5,2,,,,,,,4,6,4,7,,,,,,,,,,,2427.8048,2428.2842,2428.5348,2432.3145,space,3.7493,,2432.3146,67,7,2433.3042,2433.3043,2433.3442,,,,0,20,20,20,1,110,50,,,,,,,,
,,61645511546f08038b19f62c,65af54fefa16a017ecb780b3,2024-01-23_07h57.45.731,bars,2023.2.3,Linux x86_64,31.05590062,657b66ea316d21385b68909f,,,,,,,,,,,2433.3498,2434.339,,,2434.8404,2435.0605,,157,157,,,,,,,,,,,,,,,,bars/020.png,bars/mask007.png,,,,,,,,,,,,4,2,,,,,,,6,8,7,7,,,,,,,,,,,2434.339,2434.8404,2435.0607,2439.4735,space,4.3809,,2439.4736,42,13,2440.4527,2440.4527,2440.4906,,,,0,21,21,21,1,115,170,,,,,,,,
,,61645511546f08038b19f62c,65af54fefa16a017ecb780b3,2024-01-23_07h57.45.731,bars,2023.2.3,Linux x86_64,31.05590062,657b66ea316d21385b68909f,,,,,,,,,,,2440.4912,2441.4795,,,2441.9565,2442.212,,152,-28,,,,,,,,,,,,,,,,bars/016.png,bars/mask006.png,,,,,,,,,,,,6,2,,,,,,,4,10,5,10,,,,,,,,,,,2441.4796,2441.9564,2442.212,2445.0781,space,2.843,,2445.0782,68,13,2446.0816,2446.0817,2446.1364,,,,0,22,22,22,1,40,165,,,,,,,,
,,61645511546f08038b19f62c,65af54fefa16a017ecb780b3,2024-01-23_07h57.45.731,bars,2023.2.3,Linux x86_64,31.05590062,657b66ea316d21385b68909f,,,,,,,,,,,2446.137,2447.1191,,,2447.6264,2447.8767,,142,142,,,,,,,,,,,,,,,,bars/004.png,bars/mask006.png,,,,,,,,,,,,4,2,,,,,,,6,8,7,9,,,,,,,,,,,2447.1192,2447.6264,2447.8767,2451.1991,space,3.2914,,2451.1991,63,17,2452.1948,2452.1949,2452.2273,,,,0,23,23,23,1,25,125,,,,,,,,
,,61645511546f08038b19f62c,65af54fefa16a017ecb780b3,2024-01-23_07h57.45.731,bars,2023.2.3,Linux x86_64,31.05590062,657b66ea316d21385b68909f,,,,,,,,,,,2452.2278,2453.2034,,,2453.7194,2453.9723,,1,1,,,,,,,,,,,,,,,,bars/033.png,bars/mask008.png,,,,,,,,,,,,2,1,,,,,,,8,10,9,10,,,,,,,,,,,2453.2034,2453.7194,2453.9724,2457.7447,space,3.7422,,2457.7447,24,26,2458.7381,2458.7382,2458.7834,,,,0,24,24,24,1,25,155,,,,,,,,
,,61645511546f08038b19f62c,65af54fefa16a017ecb780b3,2024-01-23_07h57.45.731,bars,2023.2.3,Linux x86_64,31.05590062,657b66ea316d21385b68909f,,,,,,,,,,,2458.7849,2459.7821,,,2460.2625,2460.5031,,76,76,,,,,,,,,,,,,,,,bars/034.png,bars/mask004.png,,,,,,,,,,,,6,2,,,,,,,10,8,10,9,,,,,,,,,,,2459.7822,2460.2625,2460.5031,2462.4981,space,1.963,,2462.4981,49,11,2463.4889,2463.489,2463.5336,,,,0,25,25,25,1,125,65,,,,,,,,
,,61645511546f08038b19f62c,65af54fefa16a017ecb780b3,2024-01-23_07h57.45.731,bars,2023.2.3,Linux x86_64,31.05590062,657b66ea316d21385b68909f,,,,,,,,,,,2463.5344,2464.5323,,,2465.0153,2465.2431,,66,66,,,,,,,,,,,,,,,,bars/049.png,bars/mask007.png,,,,,,,,,,,,0,2,,,,,,,10,10,10,10,,,,,,,,,,,2464.5323,2465.0152,2465.2431,2468.4293,space,3.155,,2468.4294,86,49,2469.409,2469.4091,2469.5371,,,,0,26,26,26,1,160,115,,,,,,,,
,,61645511546f08038b19f62c,65af54fefa16a017ecb780b3,2024-01-23_07h57.45.731,bars,2023.2.3,Linux x86_64,31.05590062,657b66ea316d21385b68909f,,,,,,,,,,,2469.5391,2470.5208,,,2471.0139,2471.2424,,42,42,,,,,,,,,,,,,,,,bars/030.png,bars/mask002.png,,,,,,,,,,,,2,2,,,,,,,8,10,7,10,,,,,,,,,,,2470.5208,2471.0139,2471.2425,2474.7136,space,3.4387,,2474.7137,82,23,2475.7087,2475.7087,2475.7533,,,,0,27,27,27,1,140,65,,,,,,,,
,,61645511546f08038b19f62c,65af54fefa16a017ecb780b3,2024-01-23_07h57.45.731,bars,2023.2.3,Linux x86_64,31.05590062,657b66ea316d21385b68909f,,,,,,,,,,,2475.7543,2476.761,,,2477.2493,2477.5043,,52,52,,,,,,,,,,,,,,,,bars/025.png,bars/mask003.png,,,,,,,,,,,,4,2,,,,,,,10,8,10,7,,,,,,,,,,,2476.7611,2477.2493,2477.5044,2480.5361,space,2.9916,,2480.5361,53,12,2481.5365,2481.5365,2481.5797,,,,0,28,28,28,1,105,40,,,,,,,,
,,61645511546f08038b19f62c,65af54fefa16a017ecb780b3,2024-01-23_07h57.45.731,bars,2023.2.3,Linux x86_64,31.05590062,657b66ea316d21385b68909f,,,,,,,,,,,2481.5806,2482.5728,,,2483.0742,2483.3152,,135,135,,,,,,,,,,,,,,,,bars/043.png,bars/mask008.png,,,,,,,,,,,,4,2,,,,,,,10,6,10,5,,,,,,,,,,,2482.5728,2483.0741,2483.3152,2485.6345,space,2.2862,,2485.6345,75,5,2486.6453,2486.6454,2486.6467,,,,0,29,29,29,1,30,130,,,,,,,,
,,61645511546f08038b19f62c,65af54fefa16a017ecb780b3,2024-01-23_07h57.45.731,bars,2023.2.3,Linux x86_64,31.05590062,657b66ea316d21385b68909f,,,,,,,,,,,2486.6476,2487.6524,,,2488.1454,2488.3777,,147,147,,,,,,,,,,,,,,,,bars/043.png,bars/mask009.png,,,,,,,,,,,,3,2,,,,,,,8,8,7,8,,,,,,,,,,,2487.6524,2488.1453,2488.3777,2490.6597,space,2.2499,,2490.6597,63,17,2491.675,2491.675,2491.7178,,,,0,30,30,30,1,30,130,,,,,,,,
,,61645511546f08038b19f62c,65af54fefa16a017ecb780b3,2024-01-23_07h57.45.731,bars,2023.2.3,Linux x86_64,31.05590062,657b66ea316d21385b68909f,,,,,,,,,,,2491.7184,2492.704,,,2493.183,2493.4369,,40,40,,,,,,,,,,,,,,,,bars/034.png,bars/mask008.png,,,,,,,,,,,,2,2,,,,,,,6,10,5,10,,,,,,,,,,,2492.704,2493.183,2493.437,2498.0969,space,4.6309,,2498.097,85,25,2499.093,2499.0931,2499.1299,,,,0,31,31,31,1,125,65,,,,,,,,
,,61645511546f08038b19f62c,65af54fefa16a017ecb780b3,2024-01-23_07h57.45.731,bars,2023.2.3,Linux x86_64,31.05590062,657b66ea316d21385b68909f,,,,,,,,,,,2499.1306,2500.1343,,,2500.636,2500.9031,,47,227,,,,,,,,,,,,,,,,bars/025.png,bars/mask006.png,,,,,,,,,,,,8,2,,,,,,,4,10,4,10,,,,,,,,,,,2500.1343,2500.636,2500.9031,2504.969,space,4.031,,2504.9692,58,7,2505.9475,2505.9475,2505.9836,,,,0,32,32,32,1,105,40,,,,,,,,
,,61645511546f08038b19f62c,65af54fefa16a017ecb780b3,2024-01-23_07h57.45.731,bars,2023.2.3,Linux x86_64,31.05590062,657b66ea316d21385b68909f,,,,,,,,,,,2505.9844,2506.9678,,,2507.4454,2507.67,,69,69,,,,,,,,,,,,,,,,bars/042.png,bars/mask009.png,,,,,,,,,,,,8,2,,,,,,,6,10,5,10,,,,,,,,,,,2506.9678,2507.4453,2507.67,2510.6924,space,2.9896,,2510.6925,76,6,2511.6829,2511.683,2511.7154,,,,0,33,33,33,1,145,75,,,,,,,,
,,61645511546f08038b19f62c,65af54fefa16a017ecb780b3,2024-01-23_07h57.45.731,bars,2023.2.3,Linux x86_64,31.05590062,657b66ea316d21385b68909f,,,,,,,,,,,2511.7161,2512.724,,,2513.2191,2513.4759,,142,142,,,,,,,,,,,,,,,,bars/048.png,bars/mask009.png,,,,,,,,,,,,0,2,,,,,,,4,10,3,10,,,,,,,,,,,2512.724,2513.2191,2513.4759,2515.4989,space,1.995,,2515.499,88,33,2516.5023,2516.5025,2516.5438,,,,0,34,34,34,1,50,175,,,,,,,,
,,61645511546f08038b19f62c,65af54fefa16a017ecb780b3,2024-01-23_07h57.45.731,bars,2023.2.3,Linux x86_64,31.05590062,657b66ea316d21385b68909f,,,,,,,,,,,2516.5445,2517.5351,,,2518.0192,2518.2579,,54,54,,,,,,,,,,,,,,,,bars/017.png,bars/mask004.png,,,,,,,,,,,,5,2,,,,,,,6,8,6,7,,,,,,,,,,,2517.5351,2518.0191,2518.2579,2519.5432,space,1.2597,,2519.5432,89,9,2520.5236,2520.5237,2520.5252,,,,0,35,35,35,1,145,45,,,,,,,,
,,61645511546f08038b19f62c,65af54fefa16a017ecb780b3,2024-01-23_07h57.45.731,bars,2023.2.3,Linux x86_64,31.05590062,657b66ea316d21385b68909f,,,,,,,,,,,2520.5275,2521.5265,,,2522.0179,2522.2619,,80,80,,,,,,,,,,,,,,,,bars/019.png,bars/mask002.png,,,,,,,,,,,,2,2,,,,,,,8,10,9,10,,,,,,,,,,,2521.5266,2522.0179,2522.262,2535.8185,space,13.5277,,2535.8186,35,25,2536.8007,2536.8007,2536.8511,,,,0,36,36,36,1,45,105,,,,,,,,
,,61645511546f08038b19f62c,65af54fefa16a017ecb780b3,2024-01-23_07h57.45.731,bars,2023.2.3,Linux x86_64,31.05590062,657b66ea316d21385b68909f,,,,,,,,,,,2536.8522,2537.8489,,,2538.3371,2538.5857,,172,-8,,,,,,,,,,,,,,,,bars/044.png,bars/mask001.png,,,,,,,,,,,,4,2,,,,,,,10,8,10,9,,,,,,,,,,,2537.849,2538.337,2538.5858,2542.651,space,4.0352,,2542.651,83,17,2543.6341,2543.6342,2543.6744,,,,0,37,37,37,1,75,155,,,,,,,,
,,61645511546f08038b19f62c,65af54fefa16a017ecb780b3,2024-01-23_07h57.45.731,bars,2023.2.3,Linux x86_64,31.05590062,657b66ea316d21385b68909f,,,,,,,,,,,2543.6751,2544.651,,,2545.1311,2545.3809,,25,205,,,,,,,,,,,,,,,,bars/012.png,bars/mask001.png,,,,,,,,,,,,7,2,,,,,,,8,10,7,10,,,,,,,,,,,2544.6511,2545.1311,2545.3809,2549.6625,space,4.2487,,2549.6626,65,10,2550.6523,2550.6524,2550.6913,,,,0,38,38,38,1,90,15,,,,,,,,
,,61645511546f08038b19f62c,65af54fefa16a017ecb780b3,2024-01-23_07h57.45.731,bars,2023.2.3,Linux x86_64,31.05590062,657b66ea316d21385b68909f,,,,,,,,,,,2550.6923,2551.6774,,,2552.1617,2552.3898,,74,74,,,,,,,,,,,,,,,,bars/041.png,bars/mask000.png,,,,,,,,,,,,6,2,,,,,,,6,10,5,10,,,,,,,,,,,2551.6775,2552.1617,2552.3898,2553.1513,space,0.7388,,2553.1513,54,11,2554.1511,2554.1512,2554.1524,,,,0,39,39,39,1,20,85,,,,,,,,
,,61645511546f08038b19f62c,65af54fefa16a017ecb780b3,2024-01-23_07h57.45.731,bars,2023.2.3,Linux x86_64,31.05590062,657b66ea316d21385b68909f,,,,,,,,,,,2554.1531,2555.1361,,,2555.6419,2555.8887,,23,23,,,,,,,,,,,,,,,,bars/036.png,bars/mask000.png,,,,,,,,,,,,9,2,,,,,,,4,10,2,10,,,,,,,,,,,2555.1361,2555.6418,2555.8888,2560.4439,space,4.5237,,2560.4439,58,3,2561.4326,2561.4326,2561.4798,,,,0,40,40,40,1,145,20,,,,,,,,
,,61645511546f08038b19f62c,65af54fefa16a017ecb780b3,2024-01-23_07h57.45.731,bars,2023.2.3,Linux x86_64,31.05590062,657b66ea316d21385b68909f,,,,,,,,,,,2561.4805,2562.4601,,,2562.9627,2563.215,,158,158,,,,,,,,,,,,,,,,bars/016.png,bars/mask006.png,,,,,,,,,,,,8,2,,,,,,,6,10,5,10,,,,,,,,,,,2562.4602,2562.9626,2563.2151,2565.1733,space,1.9265,,2565.1734,62,7,2566.1587,2566.1587,2566.203,,,,0,41,41,41,1,40,165,,,,,,,,
,,61645511546f08038b19f62c,65af54fefa16a017ecb780b3,2024-01-23_07h57.45.731,bars,2023.2.3,Linux x86_64,31.05590062,657b66ea316d21385b68909f,,,,,,,,,,,2566.2035,2567.1784,,,2567.6744,2567.9001,,4,4,,,,,,,,,,,,,,,,bars/048.png,bars/mask000.png,,,,,,,,,,,,7,2,,,,,,,4,10,4,10,,,,,,,,,,,2567.1785,2567.6744,2567.9001,2572.4056,space,4.4643,,2572.4067,46,9,2573.3923,2573.3924,2573.4385,,,,0,42,42,42,1,50,175,,,,,,,,
,,61645511546f08038b19f62c,65af54fefa16a017ecb780b3,2024-01-23_07h57.45.731,bars,2023.2.3,Linux x86_64,31.05590062,657b66ea316d21385b68909f,,,,,,,,,,,2573.4392,2574.4118,,,2574.8842,2575.1252,,35,35,,,,,,,,,,,,,,,,bars/035.png,bars/mask000.png,,,,,,,,,,,,1,2,,,,,,,2,10,1,9,,,,,,,,,,,2574.4118,2574.8841,2575.1254,2576.785,space,1.6239,,2576.785,40,25,2577.7883,2577.7883,2577.7894,,,,0,43,43,43,1,175,60,,,,,,,,
,,61645511546f08038b19f62c,65af54fefa16a017ecb780b3,2024-01-23_07h57.45.731,bars,2023.2.3,Linux x86_64,31.05590062,657b66ea316d21385b68909f,,,,,,,,,,,2577.7901,2578.7706,,,2579.2641,2579.493,,134,134,,,,,,,,,,,,,,,,bars/004.png,bars/mask005.png,,,,,,,,,,,,4,2,,,,,,,0,8,0,6,,,,,,,,,,,2578.7707,2579.264,2579.4931,2581.7234,space,2.1967,,2581.7235,71,9,2582.7179,2582.718,2582.7656,,,,0,44,44,44,1,25,125,,,,,,,,
,,61645511546f08038b19f62c,65af54fefa16a017ecb780b3,2024-01-23_07h57.45.731,bars,2023.2.3,Linux x86_64,31.05590062,657b66ea316d21385b68909f,,,,,,,,,,,2582.7662,2583.7727,,,2584.261,2584.5035,,16,16,,,,,,,,,,,,,,,,bars/032.png,bars/mask005.png,,,,,,,,,,,,9,2,,,,,,,0,10,1,10,,,,,,,,,,,2583.7729,2584.261,2584.5036,2586.6692,space,2.1317,,2586.6693,71,4,2587.6724,2587.6725,2587.676,,,,0,45,45,45,1,125,20,,,,,,,,
,,61645511546f08038b19f62c,65af54fefa16a017ecb780b3,2024-01-23_07h57.45.731,bars,2023.2.3,Linux x86_64,31.05590062,657b66ea316d21385b68909f,,,,,,,,,,,2587.677,2588.6544,,,2589.155,2589.3937,,150,150,,,,,,,,,,,,,,,,bars/004.png,bars/mask005.png,,,,,,,,,,,,2,2,,,,,,,2,10,2,10,,,,,,,,,,,2588.6546,2589.155,2589.3938,2591.6657,space,2.2454,,2591.6657,55,25,2592.6455,2592.6455,2592.6843,,,,0,46,46,46,1,25,125,,,,,,,,
,,61645511546f08038b19f62c,65af54fefa16a017ecb780b3,2024-01-23_07h57.45.731,bars,2023.2.3,Linux x86_64,31.05590062,657b66ea316d21385b68909f,,,,,,,,,,,2592.6851,2593.6849,,,2594.1953,2594.4164,,55,55,,,,,,,,,,,,,,,,bars/027.png,bars/mask002.png,,,,,,,,,,,,8,2,,,,,,,0,10,1,10,,,,,,,,,,,2593.6849,2594.1953,2594.4165,2598.3501,space,3.9048,,2598.3502,55,5,2599.3437,2599.3437,2599.3916,,,,0,47,47,47,1,110,50,,,,,,,,
,,61645511546f08038b19f62c,65af54fefa16a017ecb780b3,2024-01-23_07h57.45.731,bars,2023.2.3,Linux x86_64,31.05590062,657b66ea316d21385b68909f,,,,,,,,,,,2599.3923,2600.3666,,,2600.8615,2601.0976,,151,151,,,,,,,,,,,,,,,,bars/044.png,bars/mask003.png,,,,,,,,,,,,9,2,,,,,,,2,10,2,10,,,,,,,,,,,2600.3666,2600.8615,2601.0977,2604.6045,space,3.4856,,2604.6046,76,4,2605.5989,2605.5991,2605.6427,,,,0,48,48,48,1,75,155,,,,,,,,
,,61645511546f08038b19f62c,65af54fefa16a017ecb780b3,2024-01-23_07h57.45.731,bars,2023.2.3,Linux x86_64,31.05590062,657b66ea316d21385b68909f,,,,,,,,,,,2605.6435,2606.6274,,,2607.1088,2607.368,,15,195,,,,,,,,,,,,,,,,bars/045.png,bars/mask008.png,,,,,,,,,,,,7,2,,,,,,,0,10,0,8,,,,,,,,,,,2606.6274,2607.1087,2607.368,2611.6973,space,4.3057,,2611.6974,85,5,2612.6983,2612.6984,2612.7436,,,,0,49,49,49,1,100,10,,,,,,,,
,,61645511546f08038b19f62c,65af54fefa16a017ecb780b3,2024-01-23_07h57.45.731,bars,2023.2.3,Linux x86_64,31.05590062,657b66ea316d21385b68909f,,,,,,,,,,,,,,,,,,,,,,,,,,,,,,,,,,,,,,,,,,,,,,,,,,,,,,,,,,,,,,,,,,,,,,,,,,,,,,,,,,,,,,,,,,,,,2612.744,2672.7478,0,3,3,4,1,sequence_tables/blk031.csv
,,61645511546f08038b19f62c,65af54fefa16a017ecb780b3,2024-01-23_07h57.45.731,bars,2023.2.3,Linux x86_64,31.05590062,657b66ea316d21385b68909f,,,,,,,,,,,2907.556,2908.5186,,,2909.023,2909.2559,,54,54,,,,,,,,,,,,,,,,bars/001.png,bars/mask001.png,,,,,,,,,,,,0,2,,,,,,,1,9,1,9,,,,,,2672.7964,2907.4964,space,234.6841,,2908.5187,2909.0229,2909.2559,2911.5313,space,2.2418,,2911.5314,76,31,2912.5128,2912.5128,2912.5507,,,,0,0,0,0,1,130,85,,,,,,,,
,,61645511546f08038b19f62c,65af54fefa16a017ecb780b3,2024-01-23_07h57.45.731,bars,2023.2.3,Linux x86_64,31.05590062,657b66ea316d21385b68909f,,,,,,,,,,,2912.5514,2913.5443,,,2914.0304,2914.2828,,142,142,,,,,,,,,,,,,,,,bars/004.png,bars/mask006.png,,,,,,,,,,,,4,2,,,,,,,0,10,1,10,,,,,,,,,,,2913.5444,2914.0303,2914.2828,2919.2209,space,4.9036,,2919.2209,63,17,2920.2178,2920.2178,2920.2605,,,,0,1,1,1,1,25,125,,,,,,,,
,,61645511546f08038b19f62c,65af54fefa16a017ecb780b3,2024-01-23_07h57.45.731,bars,2023.2.3,Linux x86_64,31.05590062,657b66ea316d21385b68909f,,,,,,,,,,,2920.2612,2921.2582,,,2921.7403,2921.9949,,46,46,,,,,,,,,,,,,,,,bars/030.png,bars/mask002.png,,,,,,,,,,,,3,2,,,,,,,0,8,0,8,,,,,,,,,,,2921.2583,2921.7403,2921.995,2925.1045,space,3.0828,,2925.1045,86,19,2926.0827,2926.0828,2926.1209,,,,0,2,2,2,1,140,65,,,,,,,,
,,61645511546f08038b19f62c,65af54fefa16a017ecb780b3,2024-01-23_07h57.45.731,bars,2023.2.3,Linux x86_64,31.05590062,657b66ea316d21385b68909f,,,,,,,,,,,2926.1215,2927.0937,,,2927.5831,2927.8125,,64,64,,,,,,,,,,,,,,,,bars/011.png,bars/mask006.png,,,,,,,,,,,,3,2,,,,,,,2,10,1,9,,,,,,,,,,,2927.0938,2927.5831,2927.8125,2930.7845,space,2.9382,,2930.7846,84,21,2931.7605,2931.7605,2931.8017,,,,0,3,3,3,1,160,85,,,,,,,,
,,61645511546f08038b19f62c,65af54fefa16a017ecb780b3,2024-01-23_07h57.45.731,bars,2023.2.3,Linux x86_64,31.05590062,657b66ea316d21385b68909f,,,,,,,,,,,2931.8022,2932.7995,,,2933.2861,2933.5263,,151,-29,,,,,,,,,,,,,,,,bars/044.png,bars/mask007.png,,,,,,,,,,,,9,2,,,,,,,0,10,0,10,,,,,,,,,,,2932.7995,2933.2861,2933.5263,2937.601,space,4.0466,,2937.6011,76,4,2938.5836,2938.5836,2938.6215,,,,0,4,4,4,1,75,155,,,,,,,,
