init_variables.started,init_variables.stopped,participant,session,date,expName,psychopyVersion,OS,frameRate,study_id,instruction_exp.started,instruction_exp.stopped,key_resp_8.keys,key_resp_8.rt,key_resp_8.duration,instruction_single.started,instruction_single.stopped,key_resp_2.keys,key_resp_2.rt,key_resp_2.duration,interval.started,interval.stopped,cue_single.started,cue_single.stopped,mask.started,mask.stopped,ori_response_single.started,res_ori,res,ori_response_single.stopped,key_resp_single.keys,key_resp_single.rt,key_resp_single.duration,disp_single.started,disp_single.stopped,key_resp.keys,key_resp.rt,key_resp.duration,single.thisRepN,single.thisTrialN,single.thisN,single.thisIndex,single.ran,ori,path,mask_path,instruction_bandit.started,instruction_bandit.stopped,key_resp_6.keys,key_resp_6.rt,key_resp_6.duration,cue_bandit.started,cue_bandit.stopped,bandit_res.keys,bandit_res.rt,bandit_res.duration,outcome_bandit.started,rew,action,outcome_bandit.stopped,bandit.thisRepN,bandit.thisTrialN,bandit.thisN,bandit.thisIndex,bandit.ran,actual_rew1,actual_rew2,rew1,rew2,instruction_task.started,instruction_task.stopped,key_resp_7.keys,key_resp_7.rt,key_resp_7.duration,wait_ready.started,wait_ready.stopped,key_resp_3.keys,key_resp_3.rt,key_resp_3.duration,cue.started,cue.stopped,ori_response.started,ori_response.stopped,key_resp_5.keys,key_resp_5.rt,key_resp_5.duration,outcome.started,diff1,diff2,outcome.stopped,disp_outcome_practice.started,disp_outcome_practice.stopped,key_resp_4.keys,key_resp_4.rt,key_resp_4.duration,trials.thisRepN,trials.thisTrialN,trials.thisN,trials.thisIndex,trials.ran,ori1,ori2,break_blk.started,break_blk.stopped,block.thisRepN,block.thisTrialN,block.thisN,block.thisIndex,block.ran,condition_file
0.0003,0.0005,6138c0ee7c2e870d9fe8bdd0,65af56434abd09284145a186,2024-01-23_08h02.48.046,bars,2023.2.3,Win32,60.20832079,657b66ea316d21385b68909f,,,,,,,,,,,,,,,,,,,,,,,,,,,,,,,,,,,,,,,,,,,,,,,,,,,,,,,,,,,,,,,,,,,,,,,,,,,,,,,,,,,,,,,,,,,,,,,,,,,,
,,6138c0ee7c2e870d9fe8bdd0,65af56434abd09284145a186,2024-01-23_08h02.48.046,bars,2023.2.3,Win32,60.20832079,657b66ea316d21385b68909f,0.0008,8.4542,y,8.4027,,,,,,,,,,,,,,,,,,,,,,,,,,,,,,,,,,,,,,,,,,,,,,,,,,,,,,,,,,,,,,,,,,,,,,,,,,,,,,,,,,,,,,,,,,,,,,,,
,,6138c0ee7c2e870d9fe8bdd0,65af56434abd09284145a186,2024-01-23_08h02.48.046,bars,2023.2.3,Win32,60.20832079,657b66ea316d21385b68909f,,,,,,8.4547,19.4901,space,11.0165,,,,,,,,,,,,,,,,,,,,,,,,,,,,,,,,,,,,,,,,,,,,,,,,,,,,,,,,,,,,,,,,,,,,,,,,,,,,,,,,,,,,,,,,,,,
,,6138c0ee7c2e870d9fe8bdd0,65af56434abd09284145a186,2024-01-23_08h02.48.046,bars,2023.2.3,Win32,60.20832079,657b66ea316d21385b68909f,,,,,,,,,,,19.4937,20.4838,20.4843,20.9725,20.9725,21.2185,21.2189,0,180,41.5375,space,20.2849,,41.5377,54.7615,space,13.198,,0,0,0,9,1,20,bars/single009.png,bars/mask006.png,,,,,,,,,,,,,,,,,,,,,,,,,,,,,,,,,,,,,,,,,,,,,,,,,,,,,,,,,,,,,,,,
,,6138c0ee7c2e870d9fe8bdd0,65af56434abd09284145a186,2024-01-23_08h02.48.046,bars,2023.2.3,Win32,60.20832079,657b66ea316d21385b68909f,,,,,,,,,,,54.7727,55.7607,55.7608,56.2607,56.2608,56.5121,56.5122,140,140,64.0099,space,7.4835,,64.01,69.259,space,5.2271,,0,1,1,6,1,175,bars/single006.png,bars/mask005.png,,,,,,,,,,,,,,,,,,,,,,,,,,,,,,,,,,,,,,,,,,,,,,,,,,,,,,,,,,,,,,,,
,,6138c0ee7c2e870d9fe8bdd0,65af56434abd09284145a186,2024-01-23_08h02.48.046,bars,2023.2.3,Win32,60.20832079,657b66ea316d21385b68909f,,,,,,,,,,,69.2682,70.259,70.259,70.7593,70.7594,71.0096,71.0096,172,-8,78.8421,space,7.8159,,78.8421,86.8568,space,7.9872,,0,2,2,7,1,45,bars/single007.png,bars/mask009.png,,,,,,,,,,,,,,,,,,,,,,,,,,,,,,,,,,,,,,,,,,,,,,,,,,,,,,,,,,,,,,,,
,,6138c0ee7c2e870d9fe8bdd0,65af56434abd09284145a186,2024-01-23_08h02.48.046,bars,2023.2.3,Win32,60.20832079,657b66ea316d21385b68909f,,,,,,,,,,,86.8671,87.8567,87.8567,88.3569,88.3571,88.6068,88.6068,31,211,95.9725,space,7.3559,,95.9726,101.0386,space,5.0413,,0,3,3,0,1,150,bars/single000.png,bars/mask006.png,,,,,,,,,,,,,,,,,,,,,,,,,,,,,,,,,,,,,,,,,,,,,,,,,,,,,,,,,,,,,,,,
,,6138c0ee7c2e870d9fe8bdd0,65af56434abd09284145a186,2024-01-23_08h02.48.046,bars,2023.2.3,Win32,60.20832079,657b66ea316d21385b68909f,,,,,,,,,,,101.0487,102.0383,102.0383,102.5383,102.5383,102.7878,102.7879,91,271,110.187,space,7.3852,,110.187,115.0702,space,4.8622,,0,4,4,4,1,95,bars/single004.png,bars/mask004.png,,,,,,,,,,,,,,,,,,,,,,,,,,,,,,,,,,,,,,,,,,,,,,,,,,,,,,,,,,,,,,,,
,,6138c0ee7c2e870d9fe8bdd0,65af56434abd09284145a186,2024-01-23_08h02.48.046,bars,2023.2.3,Win32,60.20832079,657b66ea316d21385b68909f,,,,,,,,,,,115.0792,116.0703,116.0703,116.57,116.5701,116.8198,116.8198,30,30,123.7688,space,6.933,,123.7689,127.6187,space,3.8304,,0,5,5,5,1,55,bars/single005.png,bars/mask008.png,,,,,,,,,,,,,,,,,,,,,,,,,,,,,,,,,,,,,,,,,,,,,,,,,,,,,,,,,,,,,,,,
,,6138c0ee7c2e870d9fe8bdd0,65af56434abd09284145a186,2024-01-23_08h02.48.046,bars,2023.2.3,Win32,60.20832079,657b66ea316d21385b68909f,,,,,,,,,,,127.629,128.618,128.6181,129.1184,129.1185,129.3683,129.3683,98,98,136.1342,space,6.7498,,136.1342,139.5502,space,3.3896,,0,6,6,8,1,160,bars/single008.png,bars/mask004.png,,,,,,,,,,,,,,,,,,,,,,,,,,,,,,,,,,,,,,,,,,,,,,,,,,,,,,,,,,,,,,,,
,,6138c0ee7c2e870d9fe8bdd0,65af56434abd09284145a186,2024-01-23_08h02.48.046,bars,2023.2.3,Win32,60.20832079,657b66ea316d21385b68909f,,,,,,,,,,,139.5601,140.5506,140.5506,141.0498,141.0498,141.2997,141.2998,38,38,145.683,space,4.364,,145.6831,147.6489,space,1.9436,,0,7,7,2,1,145,bars/single002.png,bars/mask003.png,,,,,,,,,,,,,,,,,,,,,,,,,,,,,,,,,,,,,,,,,,,,,,,,,,,,,,,,,,,,,,,,
,,6138c0ee7c2e870d9fe8bdd0,65af56434abd09284145a186,2024-01-23_08h02.48.046,bars,2023.2.3,Win32,60.20832079,657b66ea316d21385b68909f,,,,,,,,,,,147.6492,148.6492,148.6492,149.1486,149.1486,149.399,149.399,177,-3,154.2648,space,4.849,,154.2649,159.014,space,4.7209,,0,8,8,1,1,20,bars/single001.png,bars/mask006.png,,,,,,,,,,,,,,,,,,,,,,,,,,,,,,,,,,,,,,,,,,,,,,,,,,,,,,,,,,,,,,,,
,,6138c0ee7c2e870d9fe8bdd0,65af56434abd09284145a186,2024-01-23_08h02.48.046,bars,2023.2.3,Win32,60.20832079,657b66ea316d21385b68909f,,,,,,,,,,,159.0233,160.0146,160.0146,160.514,160.514,160.7641,160.7641,21,201,165.4636,space,4.6882,,165.4636,167.7463,space,2.2559,,0,9,9,3,1,20,bars/single003.png,bars/mask005.png,,,,,,,,,,,,,,,,,,,,,,,,,,,,,,,,,,,,,,,,,,,,,,,,,,,,,,,,,,,,,,,,
,,6138c0ee7c2e870d9fe8bdd0,65af56434abd09284145a186,2024-01-23_08h02.48.046,bars,2023.2.3,Win32,60.20832079,657b66ea316d21385b68909f,,,,,,,,,,,,,,,,,,,,,,,,,,,,,,,,,,,,,167.7472,190.2774,space,22.5089,,,,,,,,,,,,,,,,,,,,,,,,,,,,,,,,,,,,,,,,,,,,,,,,,,,,,,,,,,,,
,,6138c0ee7c2e870d9fe8bdd0,65af56434abd09284145a186,2024-01-23_08h02.48.046,bars,2023.2.3,Win32,60.20832079,657b66ea316d21385b68909f,,,,,,,,,,,,,,,,,,,,,,,,,,,,,,,,,,,,,,,,,,190.2891,193.1607,left,2.8461,,193.161,9,1,194.1602,0,0,0,0,1,9,1,9,2,,,,,,,,,,,,,,,,,,,,,,,,,,,,,,,,,,,,,,,,,
,,6138c0ee7c2e870d9fe8bdd0,65af56434abd09284145a186,2024-01-23_08h02.48.046,bars,2023.2.3,Win32,60.20832079,657b66ea316d21385b68909f,,,,,,,,,,,,,,,,,,,,,,,,,,,,,,,,,,,,,,,,,,194.1608,195.2934,right,1.1219,,195.2935,1,2,196.293,0,1,1,1,1,10,0,10,1,,,,,,,,,,,,,,,,,,,,,,,,,,,,,,,,,,,,,,,,,
,,6138c0ee7c2e870d9fe8bdd0,65af56434abd09284145a186,2024-01-23_08h02.48.046,bars,2023.2.3,Win32,60.20832079,657b66ea316d21385b68909f,,,,,,,,,,,,,,,,,,,,,,,,,,,,,,,,,,,,,,,,,,196.3034,196.9091,left,0.5894,,196.9092,10,1,197.9093,0,2,2,2,1,10,2,10,2,,,,,,,,,,,,,,,,,,,,,,,,,,,,,,,,,,,,,,,,,
,,6138c0ee7c2e870d9fe8bdd0,65af56434abd09284145a186,2024-01-23_08h02.48.046,bars,2023.2.3,Win32,60.20832079,657b66ea316d21385b68909f,,,,,,,,,,,,,,,,,,,,,,,,,,,,,,,,,,,,,,,,,,197.9097,198.5261,left,0.6021,,198.5262,7,1,199.5257,0,3,3,3,1,8,4,7,3,,,,,,,,,,,,,,,,,,,,,,,,,,,,,,,,,,,,,,,,,
,,6138c0ee7c2e870d9fe8bdd0,65af56434abd09284145a186,2024-01-23_08h02.48.046,bars,2023.2.3,Win32,60.20832079,657b66ea316d21385b68909f,,,,,,,,,,,,,,,,,,,,,,,,,,,,,,,,,,,,,,,,,,199.5262,199.9758,left,0.4302,,199.976,5,1,200.9755,0,4,4,4,1,6,2,5,1,,,,,,,,,,,,,,,,,,,,,,,,,,,,,,,,,,,,,,,,,
,,6138c0ee7c2e870d9fe8bdd0,65af56434abd09284145a186,2024-01-23_08h02.48.046,bars,2023.2.3,Win32,60.20832079,657b66ea316d21385b68909f,,,,,,,,,,,,,,,,,,,,,,,,,,,,,,,,,,,,,,,,,,200.9761,201.3258,right,0.3362,,201.3259,4,2,202.3257,0,5,5,5,1,4,4,4,4,,,,,,,,,,,,,,,,,,,,,,,,,,,,,,,,,,,,,,,,,
,,6138c0ee7c2e870d9fe8bdd0,65af56434abd09284145a186,2024-01-23_08h02.48.046,bars,2023.2.3,Win32,60.20832079,657b66ea316d21385b68909f,,,,,,,,,,,,,,,,,,,,,,,,,,,,,,,,,,,,,,,,,,202.3261,202.6587,left,0.3182,,202.6587,1,1,203.6588,0,6,6,6,1,2,2,1,2,,,,,,,,,,,,,,,,,,,,,,,,,,,,,,,,,,,,,,,,,
,,6138c0ee7c2e870d9fe8bdd0,65af56434abd09284145a186,2024-01-23_08h02.48.046,bars,2023.2.3,Win32,60.20832079,657b66ea316d21385b68909f,,,,,,,,,,,,,,,,,,,,,,,,,,,,,,,,,,,,,,,,,,203.6593,203.9255,right,0.249,,203.9255,1,2,204.9249,0,7,7,7,1,0,0,0,1,,,,,,,,,,,,,,,,,,,,,,,,,,,,,,,,,,,,,,,,,
,,6138c0ee7c2e870d9fe8bdd0,65af56434abd09284145a186,2024-01-23_08h02.48.046,bars,2023.2.3,Win32,60.20832079,657b66ea316d21385b68909f,,,,,,,,,,,,,,,,,,,,,,,,,,,,,,,,,,,,,,,,,,204.9253,205.1914,right,0.2466,,205.1915,0,2,206.1919,0,8,8,8,1,0,2,1,0,,,,,,,,,,,,,,,,,,,,,,,,,,,,,,,,,,,,,,,,,
,,6138c0ee7c2e870d9fe8bdd0,65af56434abd09284145a186,2024-01-23_08h02.48.046,bars,2023.2.3,Win32,60.20832079,657b66ea316d21385b68909f,,,,,,,,,,,,,,,,,,,,,,,,,,,,,,,,,,,,,,,,,,206.1923,206.5412,left,0.3367,,206.5413,2,1,207.5409,0,9,9,9,1,2,4,2,3,,,,,,,,,,,,,,,,,,,,,,,,,,,,,,,,,,,,,,,,,
,,6138c0ee7c2e870d9fe8bdd0,65af56434abd09284145a186,2024-01-23_08h02.48.046,bars,2023.2.3,Win32,60.20832079,657b66ea316d21385b68909f,,,,,,,,,,,,,,,,,,,,,,,,,,,,,,,,,,,,,,,,,,207.5413,207.8749,left,0.3187,,207.8749,0,1,208.8741,0,10,10,10,1,0,2,0,3,,,,,,,,,,,,,,,,,,,,,,,,,,,,,,,,,,,,,,,,,
,,6138c0ee7c2e870d9fe8bdd0,65af56434abd09284145a186,2024-01-23_08h02.48.046,bars,2023.2.3,Win32,60.20832079,657b66ea316d21385b68909f,,,,,,,,,,,,,,,,,,,,,,,,,,,,,,,,,,,,,,,,,,208.8744,209.1412,right,0.2582,,209.1413,3,2,210.141,0,11,11,11,1,0,4,0,3,,,,,,,,,,,,,,,,,,,,,,,,,,,,,,,,,,,,,,,,,
,,6138c0ee7c2e870d9fe8bdd0,65af56434abd09284145a186,2024-01-23_08h02.48.046,bars,2023.2.3,Win32,60.20832079,657b66ea316d21385b68909f,,,,,,,,,,,,,,,,,,,,,,,,,,,,,,,,,,,,,,,,,,210.1415,210.408,right,0.2509,,210.4081,6,2,211.4073,0,12,12,12,1,2,6,1,6,,,,,,,,,,,,,,,,,,,,,,,,,,,,,,,,,,,,,,,,,
,,6138c0ee7c2e870d9fe8bdd0,65af56434abd09284145a186,2024-01-23_08h02.48.046,bars,2023.2.3,Win32,60.20832079,657b66ea316d21385b68909f,,,,,,,,,,,,,,,,,,,,,,,,,,,,,,,,,,,,,,,,,,211.4076,211.7576,left,0.3386,,211.7576,1,1,212.7577,0,13,13,13,1,0,4,1,3,,,,,,,,,,,,,,,,,,,,,,,,,,,,,,,,,,,,,,,,,
,,6138c0ee7c2e870d9fe8bdd0,65af56434abd09284145a186,2024-01-23_08h02.48.046,bars,2023.2.3,Win32,60.20832079,657b66ea316d21385b68909f,,,,,,,,,,,,,,,,,,,,,,,,,,,,,,,,,,,,,,,,,,212.7585,213.0236,right,0.2462,,213.0236,7,2,214.0234,0,14,14,14,1,2,6,2,7,,,,,,,,,,,,,,,,,,,,,,,,,,,,,,,,,,,,,,,,,
,,6138c0ee7c2e870d9fe8bdd0,65af56434abd09284145a186,2024-01-23_08h02.48.046,bars,2023.2.3,Win32,60.20832079,657b66ea316d21385b68909f,,,,,,,,,,,,,,,,,,,,,,,,,,,,,,,,,,,,,,,,,,214.0237,214.4734,left,0.4423,,214.4734,3,1,215.4736,0,15,15,15,1,4,8,3,9,,,,,,,,,,,,,,,,,,,,,,,,,,,,,,,,,,,,,,,,,
,,6138c0ee7c2e870d9fe8bdd0,65af56434abd09284145a186,2024-01-23_08h02.48.046,bars,2023.2.3,Win32,60.20832079,657b66ea316d21385b68909f,,,,,,,,,,,,,,,,,,,,,,,,,,,,,,,,,,,,,,,,,,215.4739,215.9232,right,0.4374,,215.9232,7,2,216.9234,0,16,16,16,1,6,6,7,7,,,,,,,,,,,,,,,,,,,,,,,,,,,,,,,,,,,,,,,,,
,,6138c0ee7c2e870d9fe8bdd0,65af56434abd09284145a186,2024-01-23_08h02.48.046,bars,2023.2.3,Win32,60.20832079,657b66ea316d21385b68909f,,,,,,,,,,,,,,,,,,,,,,,,,,,,,,,,,,,,,,,,,,216.924,217.2402,right,0.3095,,217.2403,5,2,218.2398,0,17,17,17,1,8,4,9,5,,,,,,,,,,,,,,,,,,,,,,,,,,,,,,,,,,,,,,,,,
,,6138c0ee7c2e870d9fe8bdd0,65af56434abd09284145a186,2024-01-23_08h02.48.046,bars,2023.2.3,Win32,60.20832079,657b66ea316d21385b68909f,,,,,,,,,,,,,,,,,,,,,,,,,,,,,,,,,,,,,,,,,,218.24,218.5397,right,0.2844,,218.5397,1,2,219.5399,0,18,18,18,1,6,2,5,1,,,,,,,,,,,,,,,,,,,,,,,,,,,,,,,,,,,,,,,,,
,,6138c0ee7c2e870d9fe8bdd0,65af56434abd09284145a186,2024-01-23_08h02.48.046,bars,2023.2.3,Win32,60.20832079,657b66ea316d21385b68909f,,,,,,,,,,,,,,,,,,,,,,,,,,,,,,,,,,,,,,,,,,219.5403,219.924,right,0.3679,,219.9243,0,2,220.9294,0,19,19,19,1,8,0,7,0,,,,,,,,,,,,,,,,,,,,,,,,,,,,,,,,,,,,,,,,,
,,6138c0ee7c2e870d9fe8bdd0,65af56434abd09284145a186,2024-01-23_08h02.48.046,bars,2023.2.3,Win32,60.20832079,657b66ea316d21385b68909f,,,,,,,,,,,,,,,,,,,,,,,,,,,,,,,,,,,,,,,,,,,,,,,,,,,,,,,,,,,,220.9304,234.7733,space,13.816,,,,,,,,,,,,,,,,,,,,,,,,,,,,,,,,,,,,,
,,6138c0ee7c2e870d9fe8bdd0,65af56434abd09284145a186,2024-01-23_08h02.48.046,bars,2023.2.3,Win32,60.20832079,657b66ea316d21385b68909f,,,,,,,,,,,235.9618,236.9551,,,237.4569,237.7057,,149,149,,,,,,,,,,,,,,,,bars/002.png,bars/mask008.png,,,,,,,,,,,,1,1,,,,,,,4,1,3,0,,,,,,234.7837,235.9576,space,1.1547,,236.9564,237.4566,237.7071,243.5737,space,5.8331,,243.574,19,64,244.5716,244.5723,253.8886,space,9.2906,,0,0,0,0,1,130,85,,,,,,,,
,,6138c0ee7c2e870d9fe8bdd0,65af56434abd09284145a186,2024-01-23_08h02.48.046,bars,2023.2.3,Win32,60.20832079,657b66ea316d21385b68909f,,,,,,,,,,,253.8967,254.8871,,,255.387,255.6359,,84,84,,,,,,,,,,,,,,,,bars/034.png,bars/mask002.png,,,,,,,,,,,,0,2,,,,,,,6,0,5,0,,,,,,,,,,,254.8872,255.3867,255.6364,262.6745,space,7.0148,,262.6746,41,19,263.6698,263.6702,270.0187,space,6.3164,,0,1,1,1,1,125,65,,,,,,,,
,,6138c0ee7c2e870d9fe8bdd0,65af56434abd09284145a186,2024-01-23_08h02.48.046,bars,2023.2.3,Win32,60.20832079,657b66ea316d21385b68909f,,,,,,,,,,,270.0276,271.0182,,,271.5187,271.7678,,75,75,,,,,,,,,,,,,,,,bars/007.png,bars/mask004.png,,,,,,,,,,,,1,2,,,,,,,4,0,4,3,,,,,,,,,,,271.0186,271.5185,271.768,275.8027,space,4.0058,,275.8027,80,20,276.7988,276.7988,282.6837,space,5.8499,,0,2,2,2,1,175,55,,,,,,,,
,,6138c0ee7c2e870d9fe8bdd0,65af56434abd09284145a186,2024-01-23_08h02.48.046,bars,2023.2.3,Win32,60.20832079,657b66ea316d21385b68909f,,,,,,,,,,,282.7017,283.6864,,,284.1835,284.431,,0,180,,,,,,,,,,,,,,,,bars/030.png,bars/mask009.png,,,,,,,,,,,,0,1,,,,,,,2,2,3,1,,,,,,,,,,,283.6865,284.1833,284.4314,286.5505,space,2.1048,,286.5507,40,65,287.5491,287.5492,289.7491,space,2.1766,,0,3,3,3,1,140,65,,,,,,,,
,,6138c0ee7c2e870d9fe8bdd0,65af56434abd09284145a186,2024-01-23_08h02.48.046,bars,2023.2.3,Win32,60.20832079,657b66ea316d21385b68909f,,,,,,,,,,,289.7502,290.7476,,,291.2484,291.4868,,54,234,,,,,,,,,,,,,,,,bars/028.png,bars/mask006.png,,,,,,,,,,,,3,1,,,,,,,4,4,4,4,,,,,,,,,,,290.7481,291.248,291.4868,299.448,space,7.941,,299.4482,9,66,300.4475,300.4476,302.5971,space,2.1181,,0,4,4,4,1,45,120,,,,,,,,
,,6138c0ee7c2e870d9fe8bdd0,65af56434abd09284145a186,2024-01-23_08h02.48.046,bars,2023.2.3,Win32,60.20832079,657b66ea316d21385b68909f,,,,,,,,,,,302.5984,303.5952,,,304.0967,304.3473,,140,140,,,,,,,,,,,,,,,,bars/009.png,bars/mask004.png,,,,,,,,,,,,0,2,,,,,,,2,6,2,6,,,,,,,,,,,303.5957,304.0964,304.3475,310.1974,space,5.8174,,310.1976,55,35,311.1955,311.1959,313.3629,space,2.1382,,0,5,5,5,1,15,105,,,,,,,,
,,6138c0ee7c2e870d9fe8bdd0,65af56434abd09284145a186,2024-01-23_08h02.48.046,bars,2023.2.3,Win32,60.20832079,657b66ea316d21385b68909f,,,,,,,,,,,313.3642,314.3611,,,314.8635,315.1018,,9,9,,,,,,,,,,,,,,,,bars/009.png,bars/mask009.png,,,,,,,,,,,,4,1,,,,,,,4,4,5,4,,,,,,,,,,,314.3613,314.8634,315.1018,318.3621,space,3.24,,318.3623,6,84,319.3603,319.3605,321.5122,space,2.1239,,0,6,6,6,1,15,105,,,,,,,,
,,6138c0ee7c2e870d9fe8bdd0,65af56434abd09284145a186,2024-01-23_08h02.48.046,bars,2023.2.3,Win32,60.20832079,657b66ea316d21385b68909f,,,,,,,,,,,321.513,322.5099,,,323.0111,323.2607,,23,203,,,,,,,,,,,,,,,,bars/016.png,bars/mask002.png,,,,,,,,,,,,0,1,,,,,,,2,6,1,5,,,,,,,,,,,322.5103,323.011,323.261,328.3094,space,5.0214,,328.3098,17,38,329.3157,329.3157,331.3279,space,1.9885,,0,7,7,7,1,40,165,,,,,,,,
,,6138c0ee7c2e870d9fe8bdd0,65af56434abd09284145a186,2024-01-23_08h02.48.046,bars,2023.2.3,Win32,60.20832079,657b66ea316d21385b68909f,,,,,,,,,,,331.3285,332.3259,,,332.8277,333.0752,,95,95,,,,,,,,,,,,,,,,bars/002.png,bars/mask000.png,,,,,,,,,,,,3,2,,,,,,,0,4,0,5,,,,,,,,,,,332.3263,332.8274,333.0755,337.3754,space,4.2687,,337.3757,35,10,338.3743,338.375,340.3906,space,1.7605,,0,8,8,8,1,130,85,,,,,,,,
,,6138c0ee7c2e870d9fe8bdd0,65af56434abd09284145a186,2024-01-23_08h02.48.046,bars,2023.2.3,Win32,60.20832079,657b66ea316d21385b68909f,,,,,,,,,,,340.3909,341.3907,,,341.8911,342.1406,,48,48,,,,,,,,,,,,,,,,bars/039.png,bars/mask009.png,,,,,,,,,,,,0,1,,,,,,,2,6,3,5,,,,,,,,,,,341.3907,341.8909,342.1406,345.774,space,3.6208,,345.7741,53,57,346.7736,346.7736,347.99,space,1.1918,,0,9,9,9,1,175,105,,,,,,,,
,,6138c0ee7c2e870d9fe8bdd0,65af56434abd09284145a186,2024-01-23_08h02.48.046,bars,2023.2.3,Win32,60.20832079,657b66ea316d21385b68909f,,,,,,,,,,,347.9905,348.9899,,,349.4896,349.7394,,115,115,,,,,,,,,,,,,,,,bars/016.png,bars/mask008.png,,,,,,,,,,,,0,2,,,,,,,4,8,7,8,,,,,,,,,,,348.9899,349.4896,349.7394,355.6055,space,5.8559,,355.6056,75,50,356.6058,356.6058,359.4218,space,2.7858,,0,10,10,10,1,40,165,,,,,,,,
,,6138c0ee7c2e870d9fe8bdd0,65af56434abd09284145a186,2024-01-23_08h02.48.046,bars,2023.2.3,Win32,60.20832079,657b66ea316d21385b68909f,,,,,,,,,,,359.4332,360.4213,,,360.9215,361.1718,,106,106,,,,,,,,,,,,,,,,bars/002.png,bars/mask001.png,,,,,,,,,,,,2,2,,,,,,,2,10,3,8,,,,,,,,,,,360.4213,360.9215,361.1719,365.1377,space,3.9542,,365.1377,24,21,366.1375,366.1375,367.5205,space,1.3619,,0,11,11,11,1,130,85,,,,,,,,
,,6138c0ee7c2e870d9fe8bdd0,65af56434abd09284145a186,2024-01-23_08h02.48.046,bars,2023.2.3,Win32,60.20832079,657b66ea316d21385b68909f,,,,,,,,,,,367.5206,368.5204,,,369.0204,369.2701,,161,161,,,,,,,,,,,,,,,,bars/015.png,bars/mask006.png,,,,,,,,,,,,10,2,,,,,,,0,10,2,10,,,,,,,,,,,368.5204,369.0204,369.2702,372.153,space,2.8699,,372.153,51,1,373.1535,373.1536,375.4033,space,2.2234,,0,12,12,12,1,110,160,,,,,,,,
,,6138c0ee7c2e870d9fe8bdd0,65af56434abd09284145a186,2024-01-23_08h02.48.046,bars,2023.2.3,Win32,60.20832079,657b66ea316d21385b68909f,,,,,,,,,,,375.4037,376.4027,,,376.9026,377.1532,,26,26,,,,,,,,,,,,,,,,bars/019.png,bars/mask002.png,,,,,,,,,,,,1,1,,,,,,,2,8,2,8,,,,,,,,,,,376.4027,376.9026,377.1532,379.8193,space,2.6581,,379.8193,19,79,380.8194,380.8194,382.2687,space,1.4188,,0,13,13,13,1,45,105,,,,,,,,
,,6138c0ee7c2e870d9fe8bdd0,65af56434abd09284145a186,2024-01-23_08h02.48.046,bars,2023.2.3,Win32,60.20832079,657b66ea316d21385b68909f,,,,,,,,,,,382.269,383.2687,,,383.7688,384.0188,,25,25,,,,,,,,,,,,,,,,bars/020.png,bars/mask008.png,,,,,,,,,,,,0,2,,,,,,,4,6,5,5,,,,,,,,,,,383.2687,383.7687,384.0188,386.6018,space,2.5743,,386.6018,90,35,387.6012,387.6012,390.1684,space,2.5467,,0,14,14,14,1,115,170,,,,,,,,
,,6138c0ee7c2e870d9fe8bdd0,65af56434abd09284145a186,2024-01-23_08h02.48.046,bars,2023.2.3,Win32,60.20832079,657b66ea316d21385b68909f,,,,,,,,,,,390.1689,391.1681,,,391.6673,391.9173,,10,10,,,,,,,,,,,,,,,,bars/001.png,bars/mask008.png,,,,,,,,,,,,0,1,,,,,,,6,8,5,8,,,,,,,,,,,391.1681,391.6673,391.9173,394.9002,space,2.9674,,394.9003,60,75,395.9002,395.9002,399.0671,space,3.1364,,0,15,15,15,1,130,85,,,,,,,,
,,6138c0ee7c2e870d9fe8bdd0,65af56434abd09284145a186,2024-01-23_08h02.48.046,bars,2023.2.3,Win32,60.20832079,657b66ea316d21385b68909f,,,,,,,,,,,399.077,400.0669,,,400.5668,400.8164,,179,-1,,,,,,,,,,,,,,,,bars/049.png,bars/mask001.png,,,,,,,,,,,,3,1,,,,,,,8,6,8,7,,,,,,,,,,,400.0669,400.5668,400.8164,404.4494,space,3.62,,404.4495,19,64,405.4493,405.4493,406.6494,space,1.1712,,0,16,16,16,1,160,115,,,,,,,,
,,6138c0ee7c2e870d9fe8bdd0,65af56434abd09284145a186,2024-01-23_08h02.48.046,bars,2023.2.3,Win32,60.20832079,657b66ea316d21385b68909f,,,,,,,,,,,406.6498,407.6488,,,408.1488,408.3986,,166,-14,,,,,,,,,,,,,,,,bars/023.png,bars/mask002.png,,,,,,,,,,,,0,1,,,,,,,10,4,10,3,,,,,,,,,,,407.6488,408.1488,408.3986,411.7816,space,3.376,,411.7816,34,51,412.7812,412.7812,415.7814,space,2.9773,,0,17,17,17,1,20,115,,,,,,,,
,,6138c0ee7c2e870d9fe8bdd0,65af56434abd09284145a186,2024-01-23_08h02.48.046,bars,2023.2.3,Win32,60.20832079,657b66ea316d21385b68909f,,,,,,,,,,,415.7818,416.7809,,,417.2809,417.531,,23,23,,,,,,,,,,,,,,,,bars/044.png,bars/mask001.png,,,,,,,,,,,,0,2,,,,,,,10,2,10,2,,,,,,,,,,,416.781,417.2808,417.5311,422.2466,space,4.7086,,422.2466,52,48,423.2468,423.2469,424.4464,space,1.1675,,0,18,18,18,1,75,155,,,,,,,,
,,6138c0ee7c2e870d9fe8bdd0,65af56434abd09284145a186,2024-01-23_08h02.48.046,bars,2023.2.3,Win32,60.20832079,657b66ea316d21385b68909f,,,,,,,,,,,424.4468,425.4461,,,425.9465,426.1968,,45,225,,,,,,,,,,,,,,,,bars/027.png,bars/mask005.png,,,,,,,,,,,,3,2,,,,,,,8,4,9,4,,,,,,,,,,,425.4461,425.9464,426.1968,429.6128,space,3.4023,,429.6128,65,5,430.613,430.613,431.7129,space,1.0713,,0,19,19,19,1,110,50,,,,,,,,
,,6138c0ee7c2e870d9fe8bdd0,65af56434abd09284145a186,2024-01-23_08h02.48.046,bars,2023.2.3,Win32,60.20832079,657b66ea316d21385b68909f,,,,,,,,,,,431.7133,432.7122,,,433.2122,433.4621,,173,173,,,,,,,,,,,,,,,,bars/041.png,bars/mask001.png,,,,,,,,,,,,1,1,,,,,,,10,2,10,3,,,,,,,,,,,432.7123,433.212,433.4621,438.9114,space,5.4303,,438.9114,27,88,439.9113,439.9114,441.278,space,1.3447,,0,20,20,20,1,20,85,,,,,,,,
,,6138c0ee7c2e870d9fe8bdd0,65af56434abd09284145a186,2024-01-23_08h02.48.046,bars,2023.2.3,Win32,60.20832079,657b66ea316d21385b68909f,,,,,,,,,,,441.2785,442.2779,,,442.7779,443.028,,176,176,,,,,,,,,,,,,,,,bars/017.png,bars/mask001.png,,,,,,,,,,,,0,1,,,,,,,10,0,9,0,,,,,,,,,,,442.2779,442.7779,443.0281,446.7605,space,3.7217,,446.7606,31,49,447.76,447.7601,450.1931,space,2.3972,,0,21,21,21,1,145,45,,,,,,,,
,,6138c0ee7c2e870d9fe8bdd0,65af56434abd09284145a186,2024-01-23_08h02.48.046,bars,2023.2.3,Win32,60.20832079,657b66ea316d21385b68909f,,,,,,,,,,,450.1935,451.1933,,,451.6934,451.9429,,37,217,,,,,,,,,,,,,,,,bars/043.png,bars/mask007.png,,,,,,,,,,,,5,1,,,,,,,8,0,7,0,,,,,,,,,,,451.1934,451.6934,451.9429,457.5255,space,5.5673,,457.5256,7,87,458.5252,458.5252,459.692,space,1.1389,,0,22,22,22,1,30,130,,,,,,,,
,,6138c0ee7c2e870d9fe8bdd0,65af56434abd09284145a186,2024-01-23_08h02.48.046,bars,2023.2.3,Win32,60.20832079,657b66ea316d21385b68909f,,,,,,,,,,,459.6923,460.6921,,,461.1924,461.4421,,123,123,,,,,,,,,,,,,,,,bars/012.png,bars/mask003.png,,,,,,,,,,,,0,1,,,,,,,6,0,4,0,,,,,,,,,,,460.6921,461.1923,461.4422,467.1909,space,5.7363,,467.191,33,72,468.1908,468.1908,469.2907,space,1.0702,,0,23,23,23,1,90,15,,,,,,,,
,,6138c0ee7c2e870d9fe8bdd0,65af56434abd09284145a186,2024-01-23_08h02.48.046,bars,2023.2.3,Win32,60.20832079,657b66ea316d21385b68909f,,,,,,,,,,,469.291,470.2905,,,470.7905,471.0403,,153,153,,,,,,,,,,,,,,,,bars/039.png,bars/mask004.png,,,,,,,,,,,,2,1,,,,,,,8,0,8,0,,,,,,,,,,,470.2905,470.7905,471.0404,475.6571,space,4.5981,,475.6572,22,48,476.6567,476.6567,477.8728,space,1.1894,,0,24,24,24,1,175,105,,,,,,,,
,,6138c0ee7c2e870d9fe8bdd0,65af56434abd09284145a186,2024-01-23_08h02.48.046,bars,2023.2.3,Win32,60.20832079,657b66ea316d21385b68909f,,,,,,,,,,,477.8731,478.8736,,,479.373,479.6225,,163,163,,,,,,,,,,,,,,,,bars/032.png,bars/mask007.png,,,,,,,,,,,,0,2,,,,,,,6,0,5,0,,,,,,,,,,,478.8736,479.373,479.6226,482.956,space,3.3145,,482.9561,38,37,483.9559,483.956,485.1557,space,1.1716,,0,25,25,25,1,125,20,,,,,,,,
,,6138c0ee7c2e870d9fe8bdd0,65af56434abd09284145a186,2024-01-23_08h02.48.046,bars,2023.2.3,Win32,60.20832079,657b66ea316d21385b68909f,,,,,,,,,,,485.1561,486.1554,,,486.6553,486.9054,,163,163,,,,,,,,,,,,,,,,bars/008.png,bars/mask001.png,,,,,,,,,,,,2,2,,,,,,,8,2,7,4,,,,,,,,,,,486.1555,486.6551,486.9054,492.2541,space,5.3436,,492.2541,53,17,493.2543,493.2543,494.5376,space,1.2559,,0,26,26,26,1,110,0,,,,,,,,
,,6138c0ee7c2e870d9fe8bdd0,65af56434abd09284145a186,2024-01-23_08h02.48.046,bars,2023.2.3,Win32,60.20832079,657b66ea316d21385b68909f,,,,,,,,,,,494.538,495.5372,,,496.0374,496.2875,,93,93,,,,,,,,,,,,,,,,bars/036.png,bars/mask002.png,,,,,,,,,,,,0,1,,,,,,,6,0,6,1,,,,,,,,,,,495.5372,496.0373,496.2875,498.387,space,2.0851,,498.3871,52,73,499.3871,499.3871,500.7199,space,1.3078,,0,27,27,27,1,145,20,,,,,,,,
,,6138c0ee7c2e870d9fe8bdd0,65af56434abd09284145a186,2024-01-23_08h02.48.046,bars,2023.2.3,Win32,60.20832079,657b66ea316d21385b68909f,,,,,,,,,,,500.7204,501.7199,,,502.2198,502.4696,,163,163,,,,,,,,,,,,,,,,bars/012.png,bars/mask003.png,,,,,,,,,,,,0,2,,,,,,,4,2,4,3,,,,,,,,,,,501.72,502.2198,502.4696,504.7527,space,2.2735,,504.7527,73,32,505.7525,505.7525,507.1357,space,1.3619,,0,28,28,28,1,90,15,,,,,,,,
,,6138c0ee7c2e870d9fe8bdd0,65af56434abd09284145a186,2024-01-23_08h02.48.046,bars,2023.2.3,Win32,60.20832079,657b66ea316d21385b68909f,,,,,,,,,,,507.136,508.1357,,,508.6362,508.8858,,16,16,,,,,,,,,,,,,,,,bars/040.png,bars/mask009.png,,,,,,,,,,,,0,2,,,,,,,2,0,2,0,,,,,,,,,,,508.1357,508.6361,508.8858,510.9693,space,2.0751,,510.9694,56,11,511.9687,511.9688,513.6851,space,1.6953,,0,29,29,29,1,140,5,,,,,,,,
,,6138c0ee7c2e870d9fe8bdd0,65af56434abd09284145a186,2024-01-23_08h02.48.046,bars,2023.2.3,Win32,60.20832079,657b66ea316d21385b68909f,,,,,,,,,,,513.6853,514.6849,,,515.1853,515.4349,,19,199,,,,,,,,,,,,,,,,bars/047.png,bars/mask007.png,,,,,,,,,,,,3,1,,,,,,,4,0,4,0,,,,,,,,,,,514.6849,515.1853,515.4349,518.2845,space,2.8401,,518.2846,4,51,519.2843,519.2843,520.6339,space,1.3236,,0,30,30,30,1,15,70,,,,,,,,
,,6138c0ee7c2e870d9fe8bdd0,65af56434abd09284145a186,2024-01-23_08h02.48.046,bars,2023.2.3,Win32,60.20832079,657b66ea316d21385b68909f,,,,,,,,,,,520.6343,521.6342,,,522.1341,522.3841,,19,19,,,,,,,,,,,,,,,,bars/035.png,bars/mask005.png,,,,,,,,,,,,0,1,,,,,,,2,0,0,0,,,,,,,,,,,521.6342,522.1341,522.3841,526.034,space,3.6391,,526.034,24,41,527.0336,527.0338,528.5499,space,1.4928,,0,31,31,31,1,175,60,,,,,,,,
,,6138c0ee7c2e870d9fe8bdd0,65af56434abd09284145a186,2024-01-23_08h02.48.046,bars,2023.2.3,Win32,60.20832079,657b66ea316d21385b68909f,,,,,,,,,,,528.5502,529.55,,,530.0495,530.2995,,139,139,,,,,,,,,,,,,,,,bars/026.png,bars/mask009.png,,,,,,,,,,,,0,2,,,,,,,0,0,0,0,,,,,,,,,,,529.55,530.0494,530.2996,542.2646,space,11.9591,,542.2646,76,54,543.2659,543.2659,545.0813,space,1.7808,,0,32,32,32,1,35,85,,,,,,,,
,,6138c0ee7c2e870d9fe8bdd0,65af56434abd09284145a186,2024-01-23_08h02.48.046,bars,2023.2.3,Win32,60.20832079,657b66ea316d21385b68909f,,,,,,,,,,,545.0819,546.0809,,,546.581,546.8314,,167,167,,,,,,,,,,,,,,,,bars/000.png,bars/mask004.png,,,,,,,,,,,,1,2,,,,,,,0,2,0,3,,,,,,,,,,,546.0809,546.5809,546.8315,552.7473,space,5.9032,,552.7473,53,22,553.7463,553.7463,555.3467,space,1.5781,,0,33,33,33,1,40,145,,,,,,,,
,,6138c0ee7c2e870d9fe8bdd0,65af56434abd09284145a186,2024-01-23_08h02.48.046,bars,2023.2.3,Win32,60.20832079,657b66ea316d21385b68909f,,,,,,,,,,,555.3473,556.3465,,,556.8458,557.0959,,72,72,,,,,,,,,,,,,,,,bars/010.png,bars/mask003.png,,,,,,,,,,,,2,2,,,,,,,2,4,0,4,,,,,,,,,,,556.3465,556.8458,557.0959,560.8455,space,3.7386,,560.8455,87,17,561.8458,561.8458,563.4953,space,1.6239,,0,34,34,34,1,165,55,,,,,,,,
,,6138c0ee7c2e870d9fe8bdd0,65af56434abd09284145a186,2024-01-23_08h02.48.046,bars,2023.2.3,Win32,60.20832079,657b66ea316d21385b68909f,,,,,,,,,,,563.4957,564.4949,,,564.995,565.245,,176,176,,,,,,,,,,,,,,,,bars/012.png,bars/mask003.png,,,,,,,,,,,,2,2,,,,,,,4,6,5,5,,,,,,,,,,,564.495,564.995,565.245,571.4614,space,6.1971,,571.4614,86,19,572.4611,572.4612,573.8608,space,1.3695,,0,35,35,35,1,90,15,,,,,,,,
,,6138c0ee7c2e870d9fe8bdd0,65af56434abd09284145a186,2024-01-23_08h02.48.046,bars,2023.2.3,Win32,60.20832079,657b66ea316d21385b68909f,,,,,,,,,,,573.8612,574.8602,,,575.3607,575.6105,,97,97,,,,,,,,,,,,,,,,bars/032.png,bars/mask003.png,,,,,,,,,,,,0,1,,,,,,,6,4,6,3,,,,,,,,,,,574.8603,575.3607,575.6105,579.7599,space,4.1374,,579.7599,28,77,580.7594,580.7594,581.5932,space,0.8051,,0,36,36,36,1,125,20,,,,,,,,
,,6138c0ee7c2e870d9fe8bdd0,65af56434abd09284145a186,2024-01-23_08h02.48.046,bars,2023.2.3,Win32,60.20832079,657b66ea316d21385b68909f,,,,,,,,,,,581.5937,582.593,,,583.0925,583.3429,,106,106,,,,,,,,,,,,,,,,bars/023.png,bars/mask005.png,,,,,,,,,,,,4,2,,,,,,,4,6,4,6,,,,,,,,,,,582.593,583.0923,583.3429,588.1425,space,4.7828,,588.1426,86,9,589.1419,589.1419,592.125,space,2.957,,0,37,37,37,1,20,115,,,,,,,,
,,6138c0ee7c2e870d9fe8bdd0,65af56434abd09284145a186,2024-01-23_08h02.48.046,bars,2023.2.3,Win32,60.20832079,657b66ea316d21385b68909f,,,,,,,,,,,592.1351,593.125,,,593.6244,593.8749,,57,57,,,,,,,,,,,,,,,,bars/025.png,bars/mask002.png,,,,,,,,,,,,3,2,,,,,,,2,8,2,8,,,,,,,,,,,593.1251,593.6244,593.875,597.624,space,3.7347,,597.624,48,17,598.6238,598.6238,599.9738,space,1.3262,,0,38,38,38,1,105,40,,,,,,,,
,,6138c0ee7c2e870d9fe8bdd0,65af56434abd09284145a186,2024-01-23_08h02.48.046,bars,2023.2.3,Win32,60.20832079,657b66ea316d21385b68909f,,,,,,,,,,,599.9741,600.9741,,,601.4737,601.7232,,90,90,,,,,,,,,,,,,,,,bars/049.png,bars/mask009.png,,,,,,,,,,,,2,2,,,,,,,4,10,4,10,,,,,,,,,,,600.9742,601.4737,601.7233,607.6786,space,5.9484,,607.6787,70,25,608.6738,608.6743,609.98,space,1.285,,0,39,39,39,1,160,115,,,,,,,,
,,6138c0ee7c2e870d9fe8bdd0,65af56434abd09284145a186,2024-01-23_08h02.48.046,bars,2023.2.3,Win32,60.20832079,657b66ea316d21385b68909f,,,,,,,,,,,609.9804,610.974,,,611.4776,611.7245,,144,144,,,,,,,,,,,,,,,,bars/047.png,bars/mask007.png,,,,,,,,,,,,0,1,,,,,,,2,8,3,8,,,,,,,,,,,610.9742,611.4776,611.7247,618.6458,space,6.9155,,618.6459,51,74,619.6393,619.6395,620.8073,space,1.1411,,0,40,40,40,1,15,70,,,,,,,,
,,6138c0ee7c2e870d9fe8bdd0,65af56434abd09284145a186,2024-01-23_08h02.48.046,bars,2023.2.3,Win32,60.20832079,657b66ea316d21385b68909f,,,,,,,,,,,620.8084,621.806,,,622.307,622.5561,,122,122,,,,,,,,,,,,,,,,bars/048.png,bars/mask005.png,,,,,,,,,,,,0,2,,,,,,,4,6,4,6,,,,,,,,,,,621.8062,622.3068,622.5564,628.2272,space,5.6498,,628.2273,72,53,629.2218,629.222,633.8553,space,4.6024,,0,41,41,41,1,50,175,,,,,,,,
,,6138c0ee7c2e870d9fe8bdd0,65af56434abd09284145a186,2024-01-23_08h02.48.046,bars,2023.2.3,Win32,60.20832079,657b66ea316d21385b68909f,,,,,,,,,,,633.8651,634.8706,,,635.3697,635.6209,,176,-4,,,,,,,,,,,,,,,,bars/003.png,bars/mask008.png,,,,,,,,,,,,0,1,,,,,,,6,8,4,10,,,,,,,,,,,634.8709,635.3694,635.6211,639.9037,space,4.2521,,639.9039,29,36,640.8919,640.8919,642.6038,space,1.6803,,0,42,42,42,1,25,140,,,,,,,,
,,6138c0ee7c2e870d9fe8bdd0,65af56434abd09284145a186,2024-01-23_08h02.48.046,bars,2023.2.3,Win32,60.20832079,657b66ea316d21385b68909f,,,,,,,,,,,642.6052,643.6017,,,644.1028,644.3535,,20,200,,,,,,,,,,,,,,,,bars/037.png,bars/mask004.png,,,,,,,,,,,,0,1,,,,,,,8,10,8,10,,,,,,,,,,,643.6019,644.1024,644.3536,648.9411,space,4.567,,648.9412,50,85,649.9358,649.936,654.5696,space,4.6015,,0,43,43,43,1,150,105,,,,,,,,
,,6138c0ee7c2e870d9fe8bdd0,65af56434abd09284145a186,2024-01-23_08h02.48.046,bars,2023.2.3,Win32,60.20832079,657b66ea316d21385b68909f,,,,,,,,,,,654.5879,655.5853,,,656.0899,656.3401,,23,23,,,,,,,,,,,,,,,,bars/038.png,bars/mask000.png,,,,,,,,,,,,0,1,,,,,,,6,10,5,10,,,,,,,,,,,655.5854,656.0899,656.3402,662.1494,space,5.8002,,662.15,38,47,663.1504,663.1505,664.8231,space,1.6488,,0,44,44,44,1,165,70,,,,,,,,
,,6138c0ee7c2e870d9fe8bdd0,65af56434abd09284145a186,2024-01-23_08h02.48.046,bars,2023.2.3,Win32,60.20832079,657b66ea316d21385b68909f,,,,,,,,,,,664.8234,665.8183,,,666.315,666.5664,,131,131,,,,,,,,,,,,,,,,bars/041.png,bars/mask008.png,,,,,,,,,,,,0,2,,,,,,,4,10,4,10,,,,,,,,,,,665.8185,666.315,666.5667,670.5545,space,3.9817,,670.5545,69,46,671.555,671.555,674.1676,space,2.5893,,0,45,45,45,1,20,85,,,,,,,,
,,6138c0ee7c2e870d9fe8bdd0,65af56434abd09284145a186,2024-01-23_08h02.48.046,bars,2023.2.3,Win32,60.20832079,657b66ea316d21385b68909f,,,,,,,,,,,674.168,675.1645,,,675.666,675.916,,13,13,,,,,,,,,,,,,,,,bars/017.png,bars/mask001.png,,,,,,,,,,,,0,2,,,,,,,6,10,6,9,,,,,,,,,,,675.1648,675.6659,675.9161,679.7649,space,3.8175,,679.7651,48,32,680.7631,680.7631,683.0989,space,2.3022,,0,46,46,46,1,145,45,,,,,,,,
,,6138c0ee7c2e870d9fe8bdd0,65af56434abd09284145a186,2024-01-23_08h02.48.046,bars,2023.2.3,Win32,60.20832079,657b66ea316d21385b68909f,,,,,,,,,,,683.1001,684.096,,,684.596,684.8459,,59,239,,,,,,,,,,,,,,,,bars/004.png,bars/mask006.png,,,,,,,,,,,,0,1,,,,,,,4,8,2,8,,,,,,,,,,,684.096,684.596,684.8459,691.6974,space,6.8329,,691.6976,34,66,692.6975,692.6977,694.4969,space,1.7682,,0,47,47,47,1,25,125,,,,,,,,
,,6138c0ee7c2e870d9fe8bdd0,65af56434abd09284145a186,2024-01-23_08h02.48.046,bars,2023.2.3,Win32,60.20832079,657b66ea316d21385b68909f,,,,,,,,,,,694.4985,695.4968,,,695.9964,696.2462,,90,90,,,,,,,,,,,,,,,,bars/029.png,bars/mask002.png,,,,,,,,,,,,6,1,,,,,,,6,10,6,10,,,,,,,,,,,695.497,695.9963,696.2463,700.1125,space,3.8376,,700.1126,0,45,701.1127,701.1129,703.913,space,2.7674,,0,48,48,48,1,90,45,,,,,,,,
,,6138c0ee7c2e870d9fe8bdd0,65af56434abd09284145a186,2024-01-23_08h02.48.046,bars,2023.2.3,Win32,60.20832079,657b66ea316d21385b68909f,,,,,,,,,,,703.9214,704.9116,,,705.4106,705.6599,,98,98,,,,,,,,,,,,,,,,bars/034.png,bars/mask001.png,,,,,,,,,,,,1,1,,,,,,,4,10,6,10,,,,,,,,,,,704.9118,705.4104,705.6599,709.9666,space,4.2994,,709.9667,27,33,710.9598,710.96,712.6463,space,1.6643,,0,49,49,49,1,125,65,,,,,,,,
,,6138c0ee7c2e870d9fe8bdd0,65af56434abd09284145a186,2024-01-23_08h02.48.046,bars,2023.2.3,Win32,60.20832079,657b66ea316d21385b68909f,,,,,,,,,,,,,,,,,,,,,,,,,,,,,,,,,,,,,,,,,,,,,,,,,,,,,,,,,,,,,,,,,,,,,,,,,,,,,,,,,,,,,,,,,,,,,712.6484,772.6542,0,0,0,4,1,sequence_tables/blk008.csv
,,6138c0ee7c2e870d9fe8bdd0,65af56434abd09284145a186,2024-01-23_08h02.48.046,bars,2023.2.3,Win32,60.20832079,657b66ea316d21385b68909f,,,,,,,,,,,781.2448,782.2353,,,782.7357,782.9874,,119,119,,,,,,,,,,,,,,,,bars/047.png,bars/mask008.png,,,,,,,,,,,,0,2,,,,,,,1,6,1,7,,,,,,772.6649,781.2353,space,8.5524,,782.2357,782.7356,782.9874,787.152,space,4.1537,,787.1522,76,49,788.1398,788.1399,788.155,,,,0,0,0,0,1,15,70,,,,,,,,
,,6138c0ee7c2e870d9fe8bdd0,65af56434abd09284145a186,2024-01-23_08h02.48.046,bars,2023.2.3,Win32,60.20832079,657b66ea316d21385b68909f,,,,,,,,,,,788.1553,789.1492,,,789.6492,789.9013,,161,161,,,,,,,,,,,,,,,,bars/028.png,bars/mask009.png,,,,,,,,,,,,0,2,,,,,,,3,4,2,5,,,,,,,,,,,789.1492,789.6491,789.9014,794.0669,space,4.1343,,794.0671,64,41,795.067,795.0671,795.0755,,,,0,1,1,1,1,45,120,,,,,,,,
,,6138c0ee7c2e870d9fe8bdd0,65af56434abd09284145a186,2024-01-23_08h02.48.046,bars,2023.2.3,Win32,60.20832079,657b66ea316d21385b68909f,,,,,,,,,,,795.0758,796.0668,,,796.5717,796.817,,159,159,,,,,,,,,,,,,,,,bars/031.png,bars/mask001.png,,,,,,,,,,,,0,1,,,,,,,1,6,2,5,,,,,,,,,,,796.0669,796.5717,796.8171,799.2548,space,2.4168,,799.2548,39,56,800.2493,800.2495,800.2586,,,,0,2,2,2,1,120,35,,,,,,,,
,,6138c0ee7c2e870d9fe8bdd0,65af56434abd09284145a186,2024-01-23_08h02.48.046,bars,2023.2.3,Win32,60.20832079,657b66ea316d21385b68909f,,,,,,,,,,,800.2588,801.2492,,,801.7494,801.9978,,34,214,,,,,,,,,,,,,,,,bars/036.png,bars/mask004.png,,,,,,,,,,,,3,2,,,,,,,3,4,3,5,,,,,,,,,,,801.2494,801.749,801.9981,808.0706,space,6.0655,,808.0706,69,14,809.0646,809.0648,809.0861,,,,0,3,3,3,1,145,20,,,,,,,,
,,6138c0ee7c2e870d9fe8bdd0,65af56434abd09284145a186,2024-01-23_08h02.48.046,bars,2023.2.3,Win32,60.20832079,657b66ea316d21385b68909f,,,,,,,,,,,809.0863,810.08,,,810.5798,810.8298,,82,82,,,,,,,,,,,,,,,,bars/029.png,bars/mask003.png,,,,,,,,,,,,1,1,,,,,,,1,6,1,6,,,,,,,,,,,810.08,810.5798,810.8299,815.1633,space,4.3183,,815.1634,8,37,816.1626,816.1627,816.1748,,,,0,4,4,4,1,90,45,,,,,,,,
,,6138c0ee7c2e870d9fe8bdd0,65af56434abd09284145a186,2024-01-23_08h02.48.046,bars,2023.2.3,Win32,60.20832079,657b66ea316d21385b68909f,,,,,,,,,,,816.1749,817.1792,,,817.6804,817.9305,,150,150,,,,,,,,,,,,,,,,bars/021.png,bars/mask003.png,,,,,,,,,,,,3,1,,,,,,,3,4,4,4,,,,,,,,,,,817.1792,817.6803,817.9306,819.9966,space,2.0507,,819.997,5,80,820.9951,820.9954,821.0071,,,,0,5,5,5,1,155,70,,,,,,,,
,,6138c0ee7c2e870d9fe8bdd0,65af56434abd09284145a186,2024-01-23_08h02.48.046,bars,2023.2.3,Win32,60.20832079,657b66ea316d21385b68909f,,,,,,,,,,,821.0073,822.0022,,,822.4963,822.7448,,32,32,,,,,,,,,,,,,,,,bars/032.png,bars/mask005.png,,,,,,,,,,,,4,2,,,,,,,5,6,4,6,,,,,,,,,,,822.0022,822.496,822.7451,826.1518,space,3.3836,,826.1518,87,12,827.145,827.1453,827.1557,,,,0,6,6,6,1,125,20,,,,,,,,
,,6138c0ee7c2e870d9fe8bdd0,65af56434abd09284145a186,2024-01-23_08h02.48.046,bars,2023.2.3,Win32,60.20832079,657b66ea316d21385b68909f,,,,,,,,,,,827.1559,828.1462,,,828.6459,828.8957,,30,30,,,,,,,,,,,,,,,,bars/010.png,bars/mask009.png,,,,,,,,,,,,1,2,,,,,,,7,4,9,4,,,,,,,,,,,828.1463,828.6458,828.8959,832.9852,space,4.0687,,832.9853,45,25,833.9781,833.9785,833.9886,,,,0,7,7,7,1,165,55,,,,,,,,
,,6138c0ee7c2e870d9fe8bdd0,65af56434abd09284145a186,2024-01-23_08h02.48.046,bars,2023.2.3,Win32,60.20832079,657b66ea316d21385b68909f,,,,,,,,,,,833.9887,834.9781,,,835.4789,835.7286,,19,19,,,,,,,,,,,,,,,,bars/017.png,bars/mask008.png,,,,,,,,,,,,1,2,,,,,,,9,6,9,7,,,,,,,,,,,834.9782,835.4787,835.7288,839.551,space,3.8025,,839.551,54,26,840.5431,840.5433,840.5525,,,,0,8,8,8,1,145,45,,,,,,,,
,,6138c0ee7c2e870d9fe8bdd0,65af56434abd09284145a186,2024-01-23_08h02.48.046,bars,2023.2.3,Win32,60.20832079,657b66ea316d21385b68909f,,,,,,,,,,,840.5527,841.5436,,,842.043,842.2931,,171,171,,,,,,,,,,,,,,,,bars/030.png,bars/mask000.png,,,,,,,,,,,,0,1,,,,,,,10,4,10,5,,,,,,,,,,,841.5437,842.0427,842.2935,844.9778,space,2.6676,,844.9779,31,74,845.9752,845.9753,845.9863,,,,0,9,9,9,1,140,65,,,,,,,,
,,6138c0ee7c2e870d9fe8bdd0,65af56434abd09284145a186,2024-01-23_08h02.48.046,bars,2023.2.3,Win32,60.20832079,657b66ea316d21385b68909f,,,,,,,,,,,845.9864,846.9764,,,847.4757,847.7257,,113,113,,,,,,,,,,,,,,,,bars/031.png,bars/mask002.png,,,,,,,,,,,,7,1,,,,,,,8,2,9,3,,,,,,,,,,,846.9765,847.4754,847.726,851.0245,space,3.2823,,851.0246,7,78,852.0152,852.0153,852.0296,,,,0,10,10,10,1,120,35,,,,,,,,
,,6138c0ee7c2e870d9fe8bdd0,65af56434abd09284145a186,2024-01-23_08h02.48.046,bars,2023.2.3,Win32,60.20832079,657b66ea316d21385b68909f,,,,,,,,,,,852.0299,853.0246,,,853.5259,853.7811,,69,69,,,,,,,,,,,,,,,,bars/012.png,bars/mask007.png,,,,,,,,,,,,2,1,,,,,,,6,4,6,5,,,,,,,,,,,853.025,853.5257,853.7811,858.2304,space,4.4329,,858.2305,21,54,859.2245,859.2247,859.234,,,,0,11,11,11,1,90,15,,,,,,,,
,,6138c0ee7c2e870d9fe8bdd0,65af56434abd09284145a186,2024-01-23_08h02.48.046,bars,2023.2.3,Win32,60.20832079,657b66ea316d21385b68909f,,,,,,,,,,,859.2342,860.2251,,,860.7243,860.9738,,130,130,,,,,,,,,,,,,,,,bars/011.png,bars/mask000.png,,,,,,,,,,,,0,1,,,,,,,8,6,8,5,,,,,,,,,,,860.2252,860.7242,860.974,863.9124,space,2.9317,,863.9124,30,45,864.9062,864.9062,864.9168,,,,0,12,12,12,1,160,85,,,,,,,,
,,6138c0ee7c2e870d9fe8bdd0,65af56434abd09284145a186,2024-01-23_08h02.48.046,bars,2023.2.3,Win32,60.20832079,657b66ea316d21385b68909f,,,,,,,,,,,864.917,865.9062,,,866.4062,866.6573,,40,40,,,,,,,,,,,,,,,,bars/002.png,bars/mask006.png,,,,,,,,,,,,0,2,,,,,,,6,4,5,4,,,,,,,,,,,865.9065,866.406,866.6575,869.0072,space,2.3334,,869.0075,90,45,870.0079,870.0081,870.0275,,,,0,13,13,13,1,130,85,,,,,,,,
,,6138c0ee7c2e870d9fe8bdd0,65af56434abd09284145a186,2024-01-23_08h02.48.046,bars,2023.2.3,Win32,60.20832079,657b66ea316d21385b68909f,,,,,,,,,,,870.0276,871.0235,,,871.5231,871.7737,,44,44,,,,,,,,,,,,,,,,bars/045.png,bars/mask004.png,,,,,,,,,,,,0,2,,,,,,,8,6,7,5,,,,,,,,,,,871.0237,871.5228,871.7738,877.6898,space,5.8834,,877.69,56,34,878.6876,878.6876,878.6981,,,,0,14,14,14,1,100,10,,,,,,,,
,,6138c0ee7c2e870d9fe8bdd0,65af56434abd09284145a186,2024-01-23_08h02.48.046,bars,2023.2.3,Win32,60.20832079,657b66ea316d21385b68909f,,,,,,,,,,,878.6983,879.6895,,,880.1883,880.4399,,12,12,,,,,,,,,,,,,,,,bars/041.png,bars/mask008.png,,,,,,,,,,,,4,1,,,,,,,6,8,6,9,,,,,,,,,,,879.6897,880.1882,880.44,883.9714,space,3.5049,,883.9716,8,73,884.9702,884.9706,884.9834,,,,0,15,15,15,1,20,85,,,,,,,,
,,6138c0ee7c2e870d9fe8bdd0,65af56434abd09284145a186,2024-01-23_08h02.48.046,bars,2023.2.3,Win32,60.20832079,657b66ea316d21385b68909f,,,,,,,,,,,884.9837,885.9868,,,886.4866,886.7273,,22,22,,,,,,,,,,,,,,,,bars/038.png,bars/mask006.png,,,,,,,,,,,,0,1,,,,,,,8,10,9,10,,,,,,,,,,,885.9871,886.4866,886.7273,889.5577,space,2.8258,,889.5578,37,48,890.5548,890.5552,890.5653,,,,0,16,16,16,1,165,70,,,,,,,,
,,6138c0ee7c2e870d9fe8bdd0,65af56434abd09284145a186,2024-01-23_08h02.48.046,bars,2023.2.3,Win32,60.20832079,657b66ea316d21385b68909f,,,,,,,,,,,890.5655,891.5692,,,892.0705,892.32,,145,145,,,,,,,,,,,,,,,,bars/012.png,bars/mask001.png,,,,,,,,,,,,0,2,,,,,,,6,10,5,8,,,,,,,,,,,891.5694,892.0701,892.3203,895.0207,space,2.6917,,895.0208,55,50,896.0206,896.0208,896.0336,,,,0,17,17,17,1,90,15,,,,,,,,
,,6138c0ee7c2e870d9fe8bdd0,65af56434abd09284145a186,2024-01-23_08h02.48.046,bars,2023.2.3,Win32,60.20832079,657b66ea316d21385b68909f,,,,,,,,,,,896.0338,897.0355,,,897.5351,897.7743,,169,169,,,,,,,,,,,,,,,,bars/015.png,bars/mask009.png,,,,,,,,,,,,7,2,,,,,,,4,10,4,10,,,,,,,,,,,897.0357,897.5351,897.7743,900.6693,space,2.8722,,900.6696,59,9,901.668,901.6681,901.6781,,,,0,18,18,18,1,110,160,,,,,,,,
,,6138c0ee7c2e870d9fe8bdd0,65af56434abd09284145a186,2024-01-23_08h02.48.046,bars,2023.2.3,Win32,60.20832079,657b66ea316d21385b68909f,,,,,,,,,,,901.6783,902.6696,,,903.1695,903.42,,161,161,,,,,,,,,,,,,,,,bars/004.png,bars/mask007.png,,,,,,,,,,,,0,2,,,,,,,6,8,6,8,,,,,,,,,,,902.6698,903.1695,903.4203,907.3578,space,3.9171,,907.3578,44,36,908.3519,908.3521,908.361,,,,0,19,19,19,1,25,125,,,,,,,,
,,6138c0ee7c2e870d9fe8bdd0,65af56434abd09284145a186,2024-01-23_08h02.48.046,bars,2023.2.3,Win32,60.20832079,657b66ea316d21385b68909f,,,,,,,,,,,908.3611,909.3518,,,909.8508,910.1002,,176,176,,,,,,,,,,,,,,,,bars/032.png,bars/mask002.png,,,,,,,,,,,,1,2,,,,,,,4,6,4,6,,,,,,,,,,,909.3519,909.8506,910.1002,913.1847,space,3.075,,913.185,51,24,914.1738,914.1739,914.1816,,,,0,20,20,20,1,125,20,,,,,,,,
,,6138c0ee7c2e870d9fe8bdd0,65af56434abd09284145a186,2024-01-23_08h02.48.046,bars,2023.2.3,Win32,60.20832079,657b66ea316d21385b68909f,,,,,,,,,,,914.1818,915.1846,,,915.6852,915.9408,,27,27,,,,,,,,,,,,,,,,bars/045.png,bars/mask009.png,,,,,,,,,,,,3,2,,,,,,,2,8,3,8,,,,,,,,,,,915.1847,915.685,915.9408,919.5013,space,3.5475,,919.5015,73,17,920.4998,920.5001,920.509,,,,0,21,21,21,1,100,10,,,,,,,,
,,6138c0ee7c2e870d9fe8bdd0,65af56434abd09284145a186,2024-01-23_08h02.48.046,bars,2023.2.3,Win32,60.20832079,657b66ea316d21385b68909f,,,,,,,,,,,920.5091,921.4992,,,922.0015,922.2505,,175,175,,,,,,,,,,,,,,,,bars/007.png,bars/mask000.png,,,,,,,,,,,,5,1,,,,,,,4,6,5,8,,,,,,,,,,,921.4995,922.0014,922.2506,925.7338,space,3.4514,,925.734,0,60,926.7328,926.7329,926.7527,,,,0,22,22,22,1,175,55,,,,,,,,
,,6138c0ee7c2e870d9fe8bdd0,65af56434abd09284145a186,2024-01-23_08h02.48.046,bars,2023.2.3,Win32,60.20832079,657b66ea316d21385b68909f,,,,,,,,,,,926.7532,927.7516,,,928.2504,928.4995,,151,-29,,,,,,,,,,,,,,,,bars/023.png,bars/mask001.png,,,,,,,,,,,,0,2,,,,,,,6,8,4,9,,,,,,,,,,,927.7517,928.2501,928.4996,931.8823,space,3.3563,,931.8825,49,36,932.8851,932.8851,932.9012,,,,0,23,23,23,1,20,115,,,,,,,,
,,6138c0ee7c2e870d9fe8bdd0,65af56434abd09284145a186,2024-01-23_08h02.48.046,bars,2023.2.3,Win32,60.20832079,657b66ea316d21385b68909f,,,,,,,,,,,932.9015,933.8971,,,934.399,934.6481,,90,90,,,,,,,,,,,,,,,,bars/025.png,bars/mask001.png,,,,,,,,,,,,4,1,,,,,,,8,6,8,8,,,,,,,,,,,933.8974,934.3989,934.6483,938.014,space,3.3417,,938.0143,15,50,939.0141,939.0143,939.037,,,,0,24,24,24,1,105,40,,,,,,,,
,,6138c0ee7c2e870d9fe8bdd0,65af56434abd09284145a186,2024-01-23_08h02.48.046,bars,2023.2.3,Win32,60.20832079,657b66ea316d21385b68909f,,,,,,,,,,,939.0373,940.0317,,,940.5318,940.7811,,110,110,,,,,,,,,,,,,,,,bars/035.png,bars/mask000.png,,,,,,,,,,,,0,2,,,,,,,6,8,7,8,,,,,,,,,,,940.0319,940.5316,940.7813,947.0304,space,6.2171,,947.0307,65,50,948.0287,948.0289,948.0419,,,,0,25,25,25,1,175,60,,,,,,,,
,,6138c0ee7c2e870d9fe8bdd0,65af56434abd09284145a186,2024-01-23_08h02.48.046,bars,2023.2.3,Win32,60.20832079,657b66ea316d21385b68909f,,,,,,,,,,,948.042,949.0453,,,949.5482,949.7977,,83,83,,,,,,,,,,,,,,,,bars/012.png,bars/mask001.png,,,,,,,,,,,,4,1,,,,,,,4,6,5,5,,,,,,,,,,,949.0455,949.5482,949.7978,954.0449,space,4.2197,,954.0452,7,68,955.0462,955.0464,955.0572,,,,0,26,26,26,1,90,15,,,,,,,,
,,6138c0ee7c2e870d9fe8bdd0,65af56434abd09284145a186,2024-01-23_08h02.48.046,bars,2023.2.3,Win32,60.20832079,657b66ea316d21385b68909f,,,,,,,,,,,955.0573,956.0609,,,956.5509,956.7956,,125,125,,,,,,,,,,,,,,,,bars/017.png,bars/mask007.png,,,,,,,,,,,,2,1,,,,,,,6,4,6,3,,,,,,,,,,,956.0612,956.5509,956.7957,960.9005,space,4.099,,960.9006,20,80,961.8953,961.8955,961.904,,,,0,27,27,27,1,145,45,,,,,,,,
,,6138c0ee7c2e870d9fe8bdd0,65af56434abd09284145a186,2024-01-23_08h02.48.046,bars,2023.2.3,Win32,60.20832079,657b66ea316d21385b68909f,,,,,,,,,,,961.9042,962.8946,,,963.3956,963.6437,,25,25,,,,,,,,,,,,,,,,bars/001.png,bars/mask005.png,,,,,,,,,,,,0,2,,,,,,,8,2,6,2,,,,,,,,,,,962.8949,963.3954,963.6439,966.5112,space,2.8427,,966.5114,75,60,967.512,967.5121,967.5229,,,,0,28,28,28,1,130,85,,,,,,,,
,,6138c0ee7c2e870d9fe8bdd0,65af56434abd09284145a186,2024-01-23_08h02.48.046,bars,2023.2.3,Win32,60.20832079,657b66ea316d21385b68909f,,,,,,,,,,,967.523,968.5267,,,969.0331,969.2779,,18,18,,,,,,,,,,,,,,,,bars/015.png,bars/mask004.png,,,,,,,,,,,,0,2,,,,,,,6,0,7,0,,,,,,,,,,,968.5277,969.0331,969.2781,974.2938,space,4.9892,,974.2941,88,38,975.2922,975.2923,975.3016,,,,0,29,29,29,1,110,160,,,,,,,,
,,6138c0ee7c2e870d9fe8bdd0,65af56434abd09284145a186,2024-01-23_08h02.48.046,bars,2023.2.3,Win32,60.20832079,657b66ea316d21385b68909f,,,,,,,,,,,975.3017,976.2932,,,976.7916,977.0419,,25,205,,,,,,,,,,,,,,,,bars/004.png,bars/mask009.png,,,,,,,,,,,,9,1,,,,,,,8,0,9,0,,,,,,,,,,,976.2934,976.7916,977.0422,979.7656,space,2.715,,979.7656,0,80,980.7578,980.758,980.7682,,,,0,30,30,30,1,25,125,,,,,,,,
,,6138c0ee7c2e870d9fe8bdd0,65af56434abd09284145a186,2024-01-23_08h02.48.046,bars,2023.2.3,Win32,60.20832079,657b66ea316d21385b68909f,,,,,,,,,,,980.7683,981.76,,,982.2591,982.5087,,51,51,,,,,,,,,,,,,,,,bars/043.png,bars/mask003.png,,,,,,,,,,,,3,1,,,,,,,10,0,10,2,,,,,,,,,,,981.7601,982.2586,982.5091,983.7264,space,1.1872,,983.7266,21,79,984.7259,984.726,984.7281,,,,0,31,31,31,1,30,130,,,,,,,,
,,6138c0ee7c2e870d9fe8bdd0,65af56434abd09284145a186,2024-01-23_08h02.48.046,bars,2023.2.3,Win32,60.20832079,657b66ea316d21385b68909f,,,,,,,,,,,984.7283,985.7255,,,986.2258,986.4769,,58,58,,,,,,,,,,,,,,,,bars/044.png,bars/mask002.png,,,,,,,,,,,,4,1,,,,,,,10,0,9,0,,,,,,,,,,,985.7256,986.2256,986.4771,986.959,space,0.4506,,986.9593,17,83,987.9593,987.9594,987.9613,,,,0,32,32,32,1,75,155,,,,,,,,
,,6138c0ee7c2e870d9fe8bdd0,65af56434abd09284145a186,2024-01-23_08h02.48.046,bars,2023.2.3,Win32,60.20832079,657b66ea316d21385b68909f,,,,,,,,,,,987.9617,988.9585,,,989.4566,989.7087,,68,68,,,,,,,,,,,,,,,,bars/020.png,bars/mask000.png,,,,,,,,,,,,0,1,,,,,,,10,0,10,1,,,,,,,,,,,988.9586,989.4566,989.7088,990.0922,space,0.3533,,990.0925,47,78,991.0908,991.0909,991.0938,,,,0,33,33,33,1,115,170,,,,,,,,
,,6138c0ee7c2e870d9fe8bdd0,65af56434abd09284145a186,2024-01-23_08h02.48.046,bars,2023.2.3,Win32,60.20832079,657b66ea316d21385b68909f,,,,,,,,,,,991.0942,992.0906,,,992.5907,992.8409,,141,141,,,,,,,,,,,,,,,,bars/000.png,bars/mask005.png,,,,,,,,,,,,2,2,,,,,,,8,2,9,2,,,,,,,,,,,992.091,992.5904,992.841,994.0424,space,1.1683,,994.0426,79,4,995.0416,995.0417,995.0449,,,,0,34,34,34,1,40,145,,,,,,,,
,,6138c0ee7c2e870d9fe8bdd0,65af56434abd09284145a186,2024-01-23_08h02.48.046,bars,2023.2.3,Win32,60.20832079,657b66ea316d21385b68909f,,,,,,,,,,,995.0452,996.0395,,,996.5412,996.7906,,131,131,,,,,,,,,,,,,,,,bars/045.png,bars/mask002.png,,,,,,,,,,,,0,1,,,,,,,10,4,10,5,,,,,,,,,,,996.0398,996.541,996.7907,997.3238,space,0.5077,,997.3241,31,59,998.3234,998.3238,998.3273,,,,0,35,35,35,1,100,10,,,,,,,,
,,6138c0ee7c2e870d9fe8bdd0,65af56434abd09284145a186,2024-01-23_08h02.48.046,bars,2023.2.3,Win32,60.20832079,657b66ea316d21385b68909f,,,,,,,,,,,998.3276,999.3303,,,999.8221,1000.0736,,81,81,,,,,,,,,,,,,,,,bars/011.png,bars/mask004.png,,,,,,,,,,,,4,2,,,,,,,8,6,7,5,,,,,,,,,,,999.3303,999.822,1000.0737,1000.5574,space,0.4591,,1000.5575,79,4,1001.562,1001.562,1001.5638,,,,0,36,36,36,1,160,85,,,,,,,,
,,6138c0ee7c2e870d9fe8bdd0,65af56434abd09284145a186,2024-01-23_08h02.48.046,bars,2023.2.3,Win32,60.20832079,657b66ea316d21385b68909f,,,,,,,,,,,1001.5642,1002.5561,,,1003.0567,1003.3066,,36,36,,,,,,,,,,,,,,,,bars/034.png,bars/mask006.png,,,,,,,,,,,,0,2,,,,,,,6,8,7,9,,,,,,,,,,,1002.5563,1003.0566,1003.3067,1003.774,space,0.4501,,1003.7743,89,29,1004.7727,1004.773,1004.7759,,,,0,37,37,37,1,125,65,,,,,,,,
,,6138c0ee7c2e870d9fe8bdd0,65af56434abd09284145a186,2024-01-23_08h02.48.046,bars,2023.2.3,Win32,60.20832079,657b66ea316d21385b68909f,,,,,,,,,,,1004.7763,1005.773,,,1006.2723,1006.5113,,119,119,,,,,,,,,,,,,,,,bars/025.png,bars/mask000.png,,,,,,,,,,,,4,1,,,,,,,8,6,8,7,,,,,,,,,,,1005.7731,1006.2721,1006.5113,1007.0407,space,0.5164,,1007.0408,14,79,1008.0391,1008.0393,1008.0428,,,,0,38,38,38,1,105,40,,,,,,,,
,,6138c0ee7c2e870d9fe8bdd0,65af56434abd09284145a186,2024-01-23_08h02.48.046,bars,2023.2.3,Win32,60.20832079,657b66ea316d21385b68909f,,,,,,,,,,,1008.043,1009.039,,,1009.5392,1009.7885,,19,19,,,,,,,,,,,,,,,,bars/012.png,bars/mask005.png,,,,,,,,,,,,3,2,,,,,,,10,4,9,3,,,,,,,,,,,1009.0392,1009.539,1009.7888,1010.4053,space,0.5851,,1010.4056,71,4,1011.4056,1011.4058,1011.4081,,,,0,39,39,39,1,90,15,,,,,,,,
,,6138c0ee7c2e870d9fe8bdd0,65af56434abd09284145a186,2024-01-23_08h02.48.046,bars,2023.2.3,Win32,60.20832079,657b66ea316d21385b68909f,,,,,,,,,,,1011.4083,1012.4038,,,1012.9053,1013.1566,,142,142,,,,,,,,,,,,,,,,bars/038.png,bars/mask002.png,,,,,,,,,,,,2,1,,,,,,,10,2,10,3,,,,,,,,,,,1012.4041,1012.905,1013.1569,1013.6549,space,0.4649,,1013.6551,23,72,1014.6533,1014.6533,1014.6573,,,,0,40,40,40,1,165,70,,,,,,,,
,,6138c0ee7c2e870d9fe8bdd0,65af56434abd09284145a186,2024-01-23_08h02.48.046,bars,2023.2.3,Win32,60.20832079,657b66ea316d21385b68909f,,,,,,,,,,,1014.6575,1015.6549,,,1016.1532,1016.4031,,54,54,,,,,,,,,,,,,,,,bars/028.png,bars/mask003.png,,,,,,,,,,,,7,1,,,,,,,10,0,10,0,,,,,,,,,,,1015.6551,1016.1532,1016.4031,1019.5051,space,3.0676,,1019.5054,9,66,1020.5047,1020.5049,1020.514,,,,0,41,41,41,1,45,120,,,,,,,,
,,6138c0ee7c2e870d9fe8bdd0,65af56434abd09284145a186,2024-01-23_08h02.48.046,bars,2023.2.3,Win32,60.20832079,657b66ea316d21385b68909f,,,,,,,,,,,1020.5141,1021.5039,,,1022.0046,1022.2597,,111,111,,,,,,,,,,,,,,,,bars/014.png,bars/mask004.png,,,,,,,,,,,,0,1,,,,,,,10,2,10,2,,,,,,,,,,,1021.5041,1022.0045,1022.2597,1024.3046,space,2.0239,,1024.3048,31,69,1025.302,1025.302,1025.3051,,,,0,42,42,42,1,80,0,,,,,,,,
,,6138c0ee7c2e870d9fe8bdd0,65af56434abd09284145a186,2024-01-23_08h02.48.046,bars,2023.2.3,Win32,60.20832079,657b66ea316d21385b68909f,,,,,,,,,,,1025.3056,1026.3037,,,1026.8095,1027.0531,,53,53,,,,,,,,,,,,,,,,bars/017.png,bars/mask008.png,,,,,,,,,,,,0,2,,,,,,,8,0,8,0,,,,,,,,,,,1026.3038,1026.8095,1027.0533,1028.0865,space,1.0163,,1028.0867,88,8,1029.0867,1029.0868,1029.0919,,,,0,43,43,43,1,145,45,,,,,,,,
,,6138c0ee7c2e870d9fe8bdd0,65af56434abd09284145a186,2024-01-23_08h02.48.046,bars,2023.2.3,Win32,60.20832079,657b66ea316d21385b68909f,,,,,,,,,,,1029.0922,1030.0868,,,1030.5873,1030.8374,,4,4,,,,,,,,,,,,,,,,bars/031.png,bars/mask008.png,,,,,,,,,,,,0,2,,,,,,,6,0,6,0,,,,,,,,,,,1030.0869,1030.5871,1030.8377,1031.6542,space,0.786,,1031.6544,64,31,1032.6527,1032.6528,1032.6548,,,,0,44,44,44,1,120,35,,,,,,,,
,,6138c0ee7c2e870d9fe8bdd0,65af56434abd09284145a186,2024-01-23_08h02.48.046,bars,2023.2.3,Win32,60.20832079,657b66ea316d21385b68909f,,,,,,,,,,,1032.6552,1033.6509,,,1034.1518,1034.4027,,23,23,,,,,,,,,,,,,,,,bars/032.png,bars/mask001.png,,,,,,,,,,,,0,2,,,,,,,4,0,4,0,,,,,,,,,,,1033.6509,1034.1517,1034.4028,1037.0175,space,2.5899,,1037.0177,78,3,1038.0184,1038.0186,1038.0333,,,,0,45,45,45,1,125,20,,,,,,,,
,,6138c0ee7c2e870d9fe8bdd0,65af56434abd09284145a186,2024-01-23_08h02.48.046,bars,2023.2.3,Win32,60.20832079,657b66ea316d21385b68909f,,,,,,,,,,,1038.0335,1039.0356,,,1039.5353,1039.774,,141,141,,,,,,,,,,,,,,,,bars/040.png,bars/mask000.png,,,,,,,,,,,,4,1,,,,,,,6,2,4,2,,,,,,,,,,,1039.0356,1039.5351,1039.7741,1041.0222,space,1.2436,,1041.0222,1,44,1042.0166,1042.0167,1042.0213,,,,0,46,46,46,1,140,5,,,,,,,,
,,6138c0ee7c2e870d9fe8bdd0,65af56434abd09284145a186,2024-01-23_08h02.48.046,bars,2023.2.3,Win32,60.20832079,657b66ea316d21385b68909f,,,,,,,,,,,1042.0214,1043.0166,,,1043.5172,1043.7682,,144,144,,,,,,,,,,,,,,,,bars/027.png,bars/mask008.png,,,,,,,,,,,,0,1,,,,,,,4,4,4,4,,,,,,,,,,,1043.017,1043.5169,1043.7683,1050.4827,space,6.7078,,1050.483,34,86,1051.4841,1051.4842,1051.4938,,,,0,47,47,47,1,110,50,,,,,,,,
,,6138c0ee7c2e870d9fe8bdd0,65af56434abd09284145a186,2024-01-23_08h02.48.046,bars,2023.2.3,Win32,60.20832079,657b66ea316d21385b68909f,,,,,,,,,,,1051.494,1052.4839,,,1052.9842,1053.2317,,37,37,,,,,,,,,,,,,,,,bars/031.png,bars/mask001.png,,,,,,,,,,,,5,2,,,,,,,6,6,7,5,,,,,,,,,,,1052.484,1052.9841,1053.2317,1056.1848,space,2.9395,,1056.1849,83,2,1057.1826,1057.1828,1057.1931,,,,0,48,48,48,1,120,35,,,,,,,,
,,6138c0ee7c2e870d9fe8bdd0,65af56434abd09284145a186,2024-01-23_08h02.48.046,bars,2023.2.3,Win32,60.20832079,657b66ea316d21385b68909f,,,,,,,,,,,1057.1933,1058.1832,,,1058.6831,1058.9325,,22,22,,,,,,,,,,,,,,,,bars/016.png,bars/mask000.png,,,,,,,,,,,,4,1,,,,,,,8,8,9,8,,,,,,,,,,,1058.1833,1058.6829,1058.9327,1061.5818,space,2.6253,,1061.5821,18,37,1062.5812,1062.5816,1062.5956,,,,0,49,49,49,1,40,165,,,,,,,,
,,6138c0ee7c2e870d9fe8bdd0,65af56434abd09284145a186,2024-01-23_08h02.48.046,bars,2023.2.3,Win32,60.20832079,657b66ea316d21385b68909f,,,,,,,,,,,,,,,,,,,,,,,,,,,,,,,,,,,,,,,,,,,,,,,,,,,,,,,,,,,,,,,,,,,,,,,,,,,,,,,,,,,,,,,,,,,,,1062.5956,1122.5915,0,1,1,0,1,sequence_tables/blk034.csv
,,6138c0ee7c2e870d9fe8bdd0,65af56434abd09284145a186,2024-01-23_08h02.48.046,bars,2023.2.3,Win32,60.20832079,657b66ea316d21385b68909f,,,,,,,,,,,1130.901,1131.8898,,,1132.3887,1132.6388,,113,113,,,,,,,,,,,,,,,,bars/013.png,bars/mask001.png,,,,,,,,,,,,0,1,,,,,,,10,2,10,0,,,,,,1122.6025,1130.8908,space,8.2657,,1131.89,1132.3884,1132.6392,1135.9407,space,3.2914,,1135.9408,38,77,1136.9394,1136.9395,1136.9506,,,,0,0,0,0,1,75,10,,,,,,,,
,,6138c0ee7c2e870d9fe8bdd0,65af56434abd09284145a186,2024-01-23_08h02.48.046,bars,2023.2.3,Win32,60.20832079,657b66ea316d21385b68909f,,,,,,,,,,,1136.9508,1137.9402,,,1138.4385,1138.6874,,174,174,,,,,,,,,,,,,,,,bars/028.png,bars/mask002.png,,,,,,,,,,,,0,1,,,,,,,10,0,10,1,,,,,,,,,,,1137.9406,1138.438,1138.6875,1140.0111,space,1.3145,,1140.0111,51,54,1141.0046,1141.0049,1141.0183,,,,0,1,1,1,1,45,120,,,,,,,,
,,6138c0ee7c2e870d9fe8bdd0,65af56434abd09284145a186,2024-01-23_08h02.48.046,bars,2023.2.3,Win32,60.20832079,657b66ea316d21385b68909f,,,,,,,,,,,1141.0184,1142.0272,,,1142.5219,1142.7708,,119,119,,,,,,,,,,,,,,,,bars/010.png,bars/mask006.png,,,,,,,,,,,,0,1,,,,,,,8,2,8,0,,,,,,,,,,,1142.0272,1142.5216,1142.7711,1145.7383,space,2.935,,1145.7385,46,64,1146.7377,1146.7379,1146.7477,,,,0,2,2,2,1,165,55,,,,,,,,
,,6138c0ee7c2e870d9fe8bdd0,65af56434abd09284145a186,2024-01-23_08h02.48.046,bars,2023.2.3,Win32,60.20832079,657b66ea316d21385b68909f,,,,,,,,,,,1146.7481,1147.7377,,,1148.2382,1148.4861,,41,41,,,,,,,,,,,,,,,,bars/003.png,bars/mask003.png,,,,,,,,,,,,3,1,,,,,,,6,0,6,0,,,,,,,,,,,1147.7379,1148.238,1148.4861,1161.0354,space,12.5343,,1161.0356,16,81,1162.0352,1162.0353,1162.0699,,,,0,3,3,3,1,25,140,,,,,,,,
,,6138c0ee7c2e870d9fe8bdd0,65af56434abd09284145a186,2024-01-23_08h02.48.046,bars,2023.2.3,Win32,60.20832079,657b66ea316d21385b68909f,,,,,,,,,,,1162.0707,1163.0678,,,1163.568,1163.8179,,138,138,,,,,,,,,,,,,,,,bars/040.png,bars/mask006.png,,,,,,,,,,,,7,1,,,,,,,8,0,8,0,,,,,,,,,,,1163.0679,1163.568,1163.818,1165.7509,space,1.9154,,1165.751,2,47,1166.7505,1166.7505,1166.7638,,,,0,4,4,4,1,140,5,,,,,,,,
,,6138c0ee7c2e870d9fe8bdd0,65af56434abd09284145a186,2024-01-23_08h02.48.046,bars,2023.2.3,Win32,60.20832079,657b66ea316d21385b68909f,,,,,,,,,,,1166.764,1167.767,,,1168.2673,1168.5172,,52,52,,,,,,,,,,,,,,,,bars/049.png,bars/mask006.png,,,,,,,,,,,,0,2,,,,,,,6,2,7,3,,,,,,,,,,,1167.767,1168.2672,1168.5174,1171.5331,space,2.9963,,1171.5332,72,63,1172.5333,1172.5333,1172.5452,,,,0,5,5,5,1,160,115,,,,,,,,
,,6138c0ee7c2e870d9fe8bdd0,65af56434abd09284145a186,2024-01-23_08h02.48.046,bars,2023.2.3,Win32,60.20832079,657b66ea316d21385b68909f,,,,,,,,,,,1172.5454,1173.5497,,,1174.0496,1174.2999,,18,18,,,,,,,,,,,,,,,,bars/008.png,bars/mask002.png,,,,,,,,,,,,1,2,,,,,,,8,4,6,3,,,,,,,,,,,1173.5497,1174.0496,1174.3,1175.4828,space,1.1659,,1175.4828,88,18,1176.4827,1176.4827,1176.4925,,,,0,6,6,6,1,110,0,,,,,,,,
,,6138c0ee7c2e870d9fe8bdd0,65af56434abd09284145a186,2024-01-23_08h02.48.046,bars,2023.2.3,Win32,60.20832079,657b66ea316d21385b68909f,,,,,,,,,,,1176.4926,1177.4825,,,1177.9824,1178.2321,,47,47,,,,,,,,,,,,,,,,bars/007.png,bars/mask008.png,,,,,,,,,,,,2,2,,,,,,,6,2,6,3,,,,,,,,,,,1177.4826,1177.9823,1178.2322,1180.3987,space,2.1544,,1180.3987,52,8,1181.3987,1181.3987,1181.4093,,,,0,7,7,7,1,175,55,,,,,,,,
,,6138c0ee7c2e870d9fe8bdd0,65af56434abd09284145a186,2024-01-23_08h02.48.046,bars,2023.2.3,Win32,60.20832079,657b66ea316d21385b68909f,,,,,,,,,,,1181.4095,1182.3985,,,1182.8989,1183.1487,,39,39,,,,,,,,,,,,,,,,bars/023.png,bars/mask004.png,,,,,,,,,,,,3,1,,,,,,,8,0,8,0,,,,,,,,,,,1182.3985,1182.8988,1183.1487,1185.7812,space,2.6167,,1185.7813,19,76,1186.9354,1186.9356,1186.9549,,,,0,8,8,8,1,20,115,,,,,,,,
,,6138c0ee7c2e870d9fe8bdd0,65af56434abd09284145a186,2024-01-23_08h02.48.046,bars,2023.2.3,Win32,60.20832079,657b66ea316d21385b68909f,,,,,,,,,,,1186.9552,1187.9496,,,1188.4509,1188.6986,,118,118,,,,,,,,,,,,,,,,bars/022.png,bars/mask003.png,,,,,,,,,,,,2,1,,,,,,,6,0,7,0,,,,,,,,,,,1187.9498,1188.4507,1188.6992,1191.0975,space,2.3753,,1191.0975,23,82,1192.0978,1192.0978,1192.1082,,,,0,9,9,9,1,95,20,,,,,,,,
,,6138c0ee7c2e870d9fe8bdd0,65af56434abd09284145a186,2024-01-23_08h02.48.046,bars,2023.2.3,Win32,60.20832079,657b66ea316d21385b68909f,,,,,,,,,,,1192.1083,1193.0971,,,1193.597,1193.8471,,7,7,,,,,,,,,,,,,,,,bars/015.png,bars/mask004.png,,,,,,,,,,,,0,2,,,,,,,8,2,7,2,,,,,,,,,,,1193.0971,1193.597,1193.8471,1196.4136,space,2.5516,,1196.4136,77,27,1197.414,1197.414,1197.4258,,,,0,10,10,10,1,110,160,,,,,,,,
,,6138c0ee7c2e870d9fe8bdd0,65af56434abd09284145a186,2024-01-23_08h02.48.046,bars,2023.2.3,Win32,60.20832079,657b66ea316d21385b68909f,,,,,,,,,,,1197.4259,1198.43,,,1198.93,1199.181,,144,144,,,,,,,,,,,,,,,,bars/036.png,bars/mask008.png,,,,,,,,,,,,6,1,,,,,,,6,4,6,3,,,,,,,,,,,1198.43,1198.93,1199.181,1201.1795,space,1.9849,,1201.1795,1,56,1202.1795,1202.1795,1202.1904,,,,0,11,11,11,1,145,20,,,,,,,,
,,6138c0ee7c2e870d9fe8bdd0,65af56434abd09284145a186,2024-01-23_08h02.48.046,bars,2023.2.3,Win32,60.20832079,657b66ea316d21385b68909f,,,,,,,,,,,1202.1905,1203.1792,,,1203.6794,1203.9296,,26,26,,,,,,,,,,,,,,,,bars/021.png,bars/mask000.png,,,,,,,,,,,,0,2,,,,,,,4,2,4,0,,,,,,,,,,,1203.1792,1203.6794,1203.9296,1205.9625,space,2.0174,,1205.9625,51,44,1206.9621,1206.9621,1206.9732,,,,0,12,12,12,1,155,70,,,,,,,,
,,6138c0ee7c2e870d9fe8bdd0,65af56434abd09284145a186,2024-01-23_08h02.48.046,bars,2023.2.3,Win32,60.20832079,657b66ea316d21385b68909f,,,,,,,,,,,1206.9733,1207.9622,,,1208.4615,1208.7118,,0,0,,,,,,,,,,,,,,,,bars/012.png,bars/mask000.png,,,,,,,,,,,,2,2,,,,,,,2,4,2,4,,,,,,,,,,,1207.9623,1208.4615,1208.7118,1222.3936,space,13.673,,1222.3936,90,15,1223.3933,1223.3933,1223.3941,,,,0,13,13,13,1,90,15,,,,,,,,
,,6138c0ee7c2e870d9fe8bdd0,65af56434abd09284145a186,2024-01-23_08h02.48.046,bars,2023.2.3,Win32,60.20832079,657b66ea316d21385b68909f,,,,,,,,,,,1223.3945,1224.3929,,,1224.893,1225.1431,,164,164,,,,,,,,,,,,,,,,bars/049.png,bars/mask004.png,,,,,,,,,,,,0,1,,,,,,,0,2,0,0,,,,,,,,,,,1224.3929,1224.8929,1225.1431,1226.0927,space,0.9375,,1226.0928,4,49,1227.0928,1227.0928,1227.1053,,,,0,14,14,14,1,160,115,,,,,,,,
,,6138c0ee7c2e870d9fe8bdd0,65af56434abd09284145a186,2024-01-23_08h02.48.046,bars,2023.2.3,Win32,60.20832079,657b66ea316d21385b68909f,,,,,,,,,,,1227.1055,1228.1092,,,1228.6091,1228.8591,,39,39,,,,,,,,,,,,,,,,bars/031.png,bars/mask004.png,,,,,,,,,,,,3,2,,,,,,,0,4,0,3,,,,,,,,,,,1228.1092,1228.609,1228.8591,1230.959,space,2.0837,,1230.9591,81,4,1231.9586,1231.9587,1231.9714,,,,0,15,15,15,1,120,35,,,,,,,,
,,6138c0ee7c2e870d9fe8bdd0,65af56434abd09284145a186,2024-01-23_08h02.48.046,bars,2023.2.3,Win32,60.20832079,657b66ea316d21385b68909f,,,,,,,,,,,1231.9716,1232.9758,,,1233.4751,1233.7253,,120,120,,,,,,,,,,,,,,,,bars/005.png,bars/mask002.png,,,,,,,,,,,,1,2,,,,,,,2,2,3,3,,,,,,,,,,,1232.9758,1233.475,1233.7253,1236.5914,space,2.8596,,1236.5915,70,20,1237.5915,1237.5915,1237.6049,,,,0,16,16,16,1,10,140,,,,,,,,
,,6138c0ee7c2e870d9fe8bdd0,65af56434abd09284145a186,2024-01-23_08h02.48.046,bars,2023.2.3,Win32,60.20832079,657b66ea316d21385b68909f,,,,,,,,,,,1237.6052,1238.6081,,,1239.1079,1239.3579,,122,122,,,,,,,,,,,,,,,,bars/049.png,bars/mask006.png,,,,,,,,,,,,3,2,,,,,,,4,4,2,4,,,,,,,,,,,1238.6082,1239.1078,1239.3579,1240.6749,space,1.2972,,1240.6749,38,7,1241.6742,1241.6742,1241.6751,,,,0,17,17,17,1,160,115,,,,,,,,
,,6138c0ee7c2e870d9fe8bdd0,65af56434abd09284145a186,2024-01-23_08h02.48.046,bars,2023.2.3,Win32,60.20832079,657b66ea316d21385b68909f,,,,,,,,,,,1241.6755,1242.674,,,1243.1741,1243.424,,174,174,,,,,,,,,,,,,,,,bars/038.png,bars/mask000.png,,,,,,,,,,,,5,1,,,,,,,6,2,7,3,,,,,,,,,,,1242.674,1243.1741,1243.424,1247.94,space,4.4967,,1247.9402,9,76,1248.94,1248.9401,1248.9522,,,,0,18,18,18,1,165,70,,,,,,,,
,,6138c0ee7c2e870d9fe8bdd0,65af56434abd09284145a186,2024-01-23_08h02.48.046,bars,2023.2.3,Win32,60.20832079,657b66ea316d21385b68909f,,,,,,,,,,,1248.9525,1249.9564,,,1250.4563,1250.7064,,6,6,,,,,,,,,,,,,,,,bars/020.png,bars/mask002.png,,,,,,,,,,,,3,2,,,,,,,4,4,3,6,,,,,,,,,,,1249.9565,1250.4563,1250.7064,1252.4576,space,1.7355,,1252.4576,71,16,1253.4558,1253.4559,1253.4706,,,,0,19,19,19,1,115,170,,,,,,,,
,,6138c0ee7c2e870d9fe8bdd0,65af56434abd09284145a186,2024-01-23_08h02.48.046,bars,2023.2.3,Win32,60.20832079,657b66ea316d21385b68909f,,,,,,,,,,,1253.4709,1254.4724,,,1254.9725,1255.2223,,15,15,,,,,,,,,,,,,,,,bars/025.png,bars/mask004.png,,,,,,,,,,,,0,2,,,,,,,6,2,6,2,,,,,,,,,,,1254.4724,1254.9725,1255.2223,1256.4392,space,1.2068,,1256.4393,90,25,1257.4387,1257.4387,1257.4505,,,,0,20,20,20,1,105,40,,,,,,,,
,,6138c0ee7c2e870d9fe8bdd0,65af56434abd09284145a186,2024-01-23_08h02.48.046,bars,2023.2.3,Win32,60.20832079,657b66ea316d21385b68909f,,,,,,,,,,,1257.4507,1258.4387,,,1258.9386,1259.1885,,18,18,,,,,,,,,,,,,,,,bars/019.png,bars/mask009.png,,,,,,,,,,,,1,1,,,,,,,8,4,10,7,,,,,,,,,,,1258.4387,1258.9386,1259.1886,1260.5883,space,1.3949,,1260.5883,27,87,1261.5882,1261.5883,1261.5993,,,,0,21,21,21,1,45,105,,,,,,,,
,,6138c0ee7c2e870d9fe8bdd0,65af56434abd09284145a186,2024-01-23_08h02.48.046,bars,2023.2.3,Win32,60.20832079,657b66ea316d21385b68909f,,,,,,,,,,,1261.5996,1262.5882,,,1263.0881,1263.3383,,168,168,,,,,,,,,,,,,,,,bars/040.png,bars/mask007.png,,,,,,,,,,,,3,2,,,,,,,10,6,10,6,,,,,,,,,,,1262.5882,1263.0881,1263.3384,1266.6042,space,3.2516,,1266.6042,28,17,1267.6041,1267.6041,1267.6156,,,,0,22,22,22,1,140,5,,,,,,,,
,,6138c0ee7c2e870d9fe8bdd0,65af56434abd09284145a186,2024-01-23_08h02.48.046,bars,2023.2.3,Win32,60.20832079,657b66ea316d21385b68909f,,,,,,,,,,,1267.6158,1268.6039,,,1269.104,1269.3538,,123,123,,,,,,,,,,,,,,,,bars/000.png,bars/mask009.png,,,,,,,,,,,,1,2,,,,,,,8,4,8,3,,,,,,,,,,,1268.604,1269.1039,1269.3538,1271.487,space,2.118,,1271.4871,83,22,1272.4868,1272.4868,1272.4874,,,,0,23,23,23,1,40,145,,,,,,,,
,,6138c0ee7c2e870d9fe8bdd0,65af56434abd09284145a186,2024-01-23_08h02.48.046,bars,2023.2.3,Win32,60.20832079,657b66ea316d21385b68909f,,,,,,,,,,,1272.4876,1273.4865,,,1273.9868,1274.2369,,139,139,,,,,,,,,,,,,,,,bars/043.png,bars/mask001.png,,,,,,,,,,,,6,2,,,,,,,6,6,6,8,,,,,,,,,,,1273.4865,1273.9868,1274.2369,1276.9427,space,2.6799,,1276.944,71,9,1277.9373,1277.9375,1277.9559,,,,0,24,24,24,1,30,130,,,,,,,,
,,6138c0ee7c2e870d9fe8bdd0,65af56434abd09284145a186,2024-01-23_08h02.48.046,bars,2023.2.3,Win32,60.20832079,657b66ea316d21385b68909f,,,,,,,,,,,1277.9564,1278.953,,,1279.4539,1279.7038,,147,147,,,,,,,,,,,,,,,,bars/011.png,bars/mask005.png,,,,,,,,,,,,3,1,,,,,,,4,8,5,8,,,,,,,,,,,1278.9533,1279.4538,1279.7042,1282.2253,space,2.515,,1282.2253,13,62,1283.2259,1283.2259,1283.2439,,,,0,25,25,25,1,160,85,,,,,,,,
,,6138c0ee7c2e870d9fe8bdd0,65af56434abd09284145a186,2024-01-23_08h02.48.046,bars,2023.2.3,Win32,60.20832079,657b66ea316d21385b68909f,,,,,,,,,,,1283.2443,1284.2358,,,1284.7415,1284.9864,,146,146,,,,,,,,,,,,,,,,bars/048.png,bars/mask004.png,,,,,,,,,,,,0,2,,,,,,,6,10,6,10,,,,,,,,,,,1284.236,1284.7415,1284.9866,1286.2865,space,1.2914,,1286.2867,84,29,1287.2864,1287.2865,1287.2995,,,,0,26,26,26,1,50,175,,,,,,,,
,,6138c0ee7c2e870d9fe8bdd0,65af56434abd09284145a186,2024-01-23_08h02.48.046,bars,2023.2.3,Win32,60.20832079,657b66ea316d21385b68909f,,,,,,,,,,,1287.2996,1288.3075,,,1288.8083,1289.0523,,107,107,,,,,,,,,,,,,,,,bars/043.png,bars/mask002.png,,,,,,,,,,,,2,2,,,,,,,4,8,2,7,,,,,,,,,,,1288.3075,1288.8082,1289.0527,1290.0527,space,0.9688,,1290.0529,77,23,1291.0511,1291.0514,1291.0646,,,,0,27,27,27,1,30,130,,,,,,,,
,,6138c0ee7c2e870d9fe8bdd0,65af56434abd09284145a186,2024-01-23_08h02.48.046,bars,2023.2.3,Win32,60.20832079,657b66ea316d21385b68909f,,,,,,,,,,,1291.0649,1292.0571,,,1292.5528,1292.8027,,169,169,,,,,,,,,,,,,,,,bars/008.png,bars/mask008.png,,,,,,,,,,,,6,2,,,,,,,6,10,8,10,,,,,,,,,,,1292.0571,1292.5526,1292.8028,1294.4511,space,1.6242,,1294.4514,59,11,1295.4524,1295.4525,1295.4621,,,,0,28,28,28,1,110,0,,,,,,,,
,,6138c0ee7c2e870d9fe8bdd0,65af56434abd09284145a186,2024-01-23_08h02.48.046,bars,2023.2.3,Win32,60.20832079,657b66ea316d21385b68909f,,,,,,,,,,,1295.4623,1296.4565,,,1296.9516,1297.2019,,67,67,,,,,,,,,,,,,,,,bars/014.png,bars/mask002.png,,,,,,,,,,,,4,1,,,,,,,8,10,7,10,,,,,,,,,,,1296.4565,1296.9514,1297.202,1298.1418,space,0.9191,,1298.1418,13,67,1299.1338,1299.1341,1299.1504,,,,0,29,29,29,1,80,0,,,,,,,,
,,6138c0ee7c2e870d9fe8bdd0,65af56434abd09284145a186,2024-01-23_08h02.48.046,bars,2023.2.3,Win32,60.20832079,657b66ea316d21385b68909f,,,,,,,,,,,1299.1518,1300.1521,,,1300.6498,1300.9019,,84,84,,,,,,,,,,,,,,,,bars/049.png,bars/mask007.png,,,,,,,,,,,,0,2,,,,,,,6,10,6,10,,,,,,,,,,,1300.1523,1300.6497,1300.9021,1301.6176,space,0.6916,,1301.618,76,31,1302.6162,1302.6164,1302.621,,,,0,30,30,30,1,160,115,,,,,,,,
,,6138c0ee7c2e870d9fe8bdd0,65af56434abd09284145a186,2024-01-23_08h02.48.046,bars,2023.2.3,Win32,60.20832079,657b66ea316d21385b68909f,,,,,,,,,,,1302.6212,1303.6179,,,1304.1161,1304.366,,114,114,,,,,,,,,,,,,,,,bars/033.png,bars/mask009.png,,,,,,,,,,,,0,2,,,,,,,8,8,10,9,,,,,,,,,,,1303.6181,1304.116,1304.366,1305.7174,space,1.3382,,1305.7176,89,41,1306.7155,1306.7155,1306.7189,,,,0,31,31,31,1,25,155,,,,,,,,
,,6138c0ee7c2e870d9fe8bdd0,65af56434abd09284145a186,2024-01-23_08h02.48.046,bars,2023.2.3,Win32,60.20832079,657b66ea316d21385b68909f,,,,,,,,,,,1306.7193,1307.7167,,,1308.2154,1308.4718,,52,52,,,,,,,,,,,,,,,,bars/048.png,bars/mask000.png,,,,,,,,,,,,9,1,,,,,,,10,6,10,6,,,,,,,,,,,1307.717,1308.2153,1308.4718,1308.9499,space,0.4639,,1308.9501,2,57,1309.9507,1309.9508,1309.9537,,,,0,32,32,32,1,50,175,,,,,,,,
,,6138c0ee7c2e870d9fe8bdd0,65af56434abd09284145a186,2024-01-23_08h02.48.046,bars,2023.2.3,Win32,60.20832079,657b66ea316d21385b68909f,,,,,,,,,,,1309.9539,1310.9506,,,1311.4502,1311.6995,,167,167,,,,,,,,,,,,,,,,bars/009.png,bars/mask000.png,,,,,,,,,,,,1,1,,,,,,,10,8,10,7,,,,,,,,,,,1310.9508,1311.45,1311.6998,1312.2341,space,0.5018,,1312.2344,28,62,1313.2317,1313.2319,1313.2347,,,,0,33,33,33,1,15,105,,,,,,,,
,,6138c0ee7c2e870d9fe8bdd0,65af56434abd09284145a186,2024-01-23_08h02.48.046,bars,2023.2.3,Win32,60.20832079,657b66ea316d21385b68909f,,,,,,,,,,,1313.2349,1314.2315,,,1314.7324,1314.9813,,166,166,,,,,,,,,,,,,,,,bars/007.png,bars/mask001.png,,,,,,,,,,,,5,1,,,,,,,8,6,7,6,,,,,,,,,,,1314.2318,1314.7321,1314.9813,1315.6319,space,0.634,,1315.6322,9,69,1316.6311,1316.6311,1316.6344,,,,0,34,34,34,1,175,55,,,,,,,,
,,6138c0ee7c2e870d9fe8bdd0,65af56434abd09284145a186,2024-01-23_08h02.48.046,bars,2023.2.3,Win32,60.20832079,657b66ea316d21385b68909f,,,,,,,,,,,1316.6348,1317.6309,,,1318.1332,1318.3718,,46,46,,,,,,,,,,,,,,,,bars/017.png,bars/mask004.png,,,,,,,,,,,,5,2,,,,,,,10,4,10,5,,,,,,,,,,,1317.6311,1318.133,1318.372,1319.0165,space,0.6272,,1319.0167,81,1,1320.0202,1320.0202,1320.022,,,,0,35,35,35,1,145,45,,,,,,,,
,,6138c0ee7c2e870d9fe8bdd0,65af56434abd09284145a186,2024-01-23_08h02.48.046,bars,2023.2.3,Win32,60.20832079,657b66ea316d21385b68909f,,,,,,,,,,,1320.0221,1321.0155,,,1321.5037,1321.7478,,65,65,,,,,,,,,,,,,,,,bars/001.png,bars/mask004.png,,,,,,,,,,,,3,2,,,,,,,10,6,10,8,,,,,,,,,,,1321.0156,1321.5037,1321.7482,1324.7499,space,2.9705,,1324.75,65,20,1325.7484,1325.7486,1325.7598,,,,0,36,36,36,1,130,85,,,,,,,,
,,6138c0ee7c2e870d9fe8bdd0,65af56434abd09284145a186,2024-01-23_08h02.48.046,bars,2023.2.3,Win32,60.20832079,657b66ea316d21385b68909f,,,,,,,,,,,1325.7603,1326.7492,,,1327.2487,1327.4863,,8,8,,,,,,,,,,,,,,,,bars/002.png,bars/mask002.png,,,,,,,,,,,,0,1,,,,,,,10,4,10,3,,,,,,,,,,,1326.7495,1327.2484,1327.4863,1329.9376,space,2.4348,,1329.9377,58,77,1330.9316,1330.9318,1330.9339,,,,0,37,37,37,1,130,85,,,,,,,,
,,6138c0ee7c2e870d9fe8bdd0,65af56434abd09284145a186,2024-01-23_08h02.48.046,bars,2023.2.3,Win32,60.20832079,657b66ea316d21385b68909f,,,,,,,,,,,1330.9341,1331.9305,,,1332.4183,1332.6637,,122,122,,,,,,,,,,,,,,,,bars/038.png,bars/mask005.png,,,,,,,,,,,,0,1,,,,,,,8,2,7,3,,,,,,,,,,,1331.9307,1332.4183,1332.664,1334.7024,space,2.0176,,1334.7024,43,52,1335.6957,1335.6959,1335.7088,,,,0,38,38,38,1,165,70,,,,,,,,
,,6138c0ee7c2e870d9fe8bdd0,65af56434abd09284145a186,2024-01-23_08h02.48.046,bars,2023.2.3,Win32,60.20832079,657b66ea316d21385b68909f,,,,,,,,,,,1335.709,1336.7121,,,1337.2135,1337.4624,,45,45,,,,,,,,,,,,,,,,bars/019.png,bars/mask006.png,,,,,,,,,,,,8,1,,,,,,,10,4,8,4,,,,,,,,,,,1336.7127,1337.2132,1337.4628,1340.3343,space,2.8492,,1340.3343,0,60,1341.3297,1341.3299,1341.3454,,,,0,39,39,39,1,45,105,,,,,,,,
,,6138c0ee7c2e870d9fe8bdd0,65af56434abd09284145a186,2024-01-23_08h02.48.046,bars,2023.2.3,Win32,60.20832079,657b66ea316d21385b68909f,,,,,,,,,,,1341.3465,1342.3445,,,1342.8502,1343.0948,,106,106,,,,,,,,,,,,,,,,bars/014.png,bars/mask007.png,,,,,,,,,,,,1,1,,,,,,,8,2,7,3,,,,,,,,,,,1342.3447,1342.8502,1343.0951,1345.0338,space,1.9323,,1345.0339,26,74,1346.0272,1346.0272,1346.0414,,,,0,40,40,40,1,80,0,,,,,,,,
,,6138c0ee7c2e870d9fe8bdd0,65af56434abd09284145a186,2024-01-23_08h02.48.046,bars,2023.2.3,Win32,60.20832079,657b66ea316d21385b68909f,,,,,,,,,,,1346.0416,1347.0441,,,1347.5499,1347.795,,15,15,,,,,,,,,,,,,,,,bars/029.png,bars/mask009.png,,,,,,,,,,,,0,2,,,,,,,6,4,6,4,,,,,,,,,,,1347.0443,1347.5498,1347.7951,1349.6668,space,1.8505,,1349.6668,75,30,1350.6613,1350.6615,1350.6651,,,,0,41,41,41,1,90,45,,,,,,,,
,,6138c0ee7c2e870d9fe8bdd0,65af56434abd09284145a186,2024-01-23_08h02.48.046,bars,2023.2.3,Win32,60.20832079,657b66ea316d21385b68909f,,,,,,,,,,,1350.6654,1351.6618,,,1352.1613,1352.4106,,137,137,,,,,,,,,,,,,,,,bars/045.png,bars/mask007.png,,,,,,,,,,,,0,1,,,,,,,4,6,5,5,,,,,,,,,,,1351.6619,1352.1611,1352.411,1352.9621,space,0.535,,1352.9623,37,53,1353.9618,1353.9621,1353.9655,,,,0,42,42,42,1,100,10,,,,,,,,
,,6138c0ee7c2e870d9fe8bdd0,65af56434abd09284145a186,2024-01-23_08h02.48.046,bars,2023.2.3,Win32,60.20832079,657b66ea316d21385b68909f,,,,,,,,,,,1353.9659,1354.9615,,,1355.4607,1355.7113,,177,177,,,,,,,,,,,,,,,,bars/007.png,bars/mask004.png,,,,,,,,,,,,1,1,,,,,,,2,4,1,3,,,,,,,,,,,1354.9617,1355.4605,1355.7115,1356.3946,space,0.6515,,1356.3947,2,58,1357.3942,1357.3944,1357.3967,,,,0,43,43,43,1,175,55,,,,,,,,
,,6138c0ee7c2e870d9fe8bdd0,65af56434abd09284145a186,2024-01-23_08h02.48.046,bars,2023.2.3,Win32,60.20832079,657b66ea316d21385b68909f,,,,,,,,,,,1357.397,1358.3923,,,1358.8818,1359.1269,,16,16,,,,,,,,,,,,,,,,bars/048.png,bars/mask005.png,,,,,,,,,,,,2,2,,,,,,,0,6,0,7,,,,,,,,,,,1358.3926,1358.8818,1359.127,1360.7157,space,1.5667,,1360.7157,34,21,1361.7102,1361.7103,1361.7206,,,,0,44,44,44,1,50,175,,,,,,,,
,,6138c0ee7c2e870d9fe8bdd0,65af56434abd09284145a186,2024-01-23_08h02.48.046,bars,2023.2.3,Win32,60.20832079,657b66ea316d21385b68909f,,,,,,,,,,,1361.7207,1362.7091,,,1363.2104,1363.461,,23,23,,,,,,,,,,,,,,,,bars/032.png,bars/mask000.png,,,,,,,,,,,,8,2,,,,,,,0,8,0,9,,,,,,,,,,,1362.7094,1363.2103,1363.4611,1364.8272,space,1.3394,,1364.8273,78,3,1365.8265,1365.8266,1365.8291,,,,0,45,45,45,1,125,20,,,,,,,,
,,6138c0ee7c2e870d9fe8bdd0,65af56434abd09284145a186,2024-01-23_08h02.48.046,bars,2023.2.3,Win32,60.20832079,657b66ea316d21385b68909f,,,,,,,,,,,1365.8294,1366.825,,,1367.3262,1367.5647,,62,62,,,,,,,,,,,,,,,,bars/038.png,bars/mask001.png,,,,,,,,,,,,5,2,,,,,,,0,6,0,7,,,,,,,,,,,1366.8257,1367.3249,1367.5647,1378.6958,space,11.1155,,1378.6958,77,8,1379.6938,1379.694,1379.6947,,,,0,46,46,46,1,165,70,,,,,,,,
,,6138c0ee7c2e870d9fe8bdd0,65af56434abd09284145a186,2024-01-23_08h02.48.046,bars,2023.2.3,Win32,60.20832079,657b66ea316d21385b68909f,,,,,,,,,,,1379.6949,1380.6917,,,1381.1905,1381.4292,,81,81,,,,,,,,,,,,,,,,bars/035.png,bars/mask008.png,,,,,,,,,,,,2,2,,,,,,,2,8,3,7,,,,,,,,,,,1380.6918,1381.1903,1381.4292,1408.6757,space,27.2296,,1408.6757,86,21,1409.6717,1409.6721,1409.6741,,,,0,47,47,47,1,175,60,,,,,,,,
,,6138c0ee7c2e870d9fe8bdd0,65af56434abd09284145a186,2024-01-23_08h02.48.046,bars,2023.2.3,Win32,60.20832079,657b66ea316d21385b68909f,,,,,,,,,,,1409.6746,1410.6705,,,1411.1709,1411.4195,,59,59,,,,,,,,,,,,,,,,bars/024.png,bars/mask003.png,,,,,,,,,,,,0,1,,,,,,,0,6,0,5,,,,,,,,,,,1410.6708,1411.1706,1411.42,1417.319,space,5.8736,,1417.3192,61,69,1418.3183,1418.3185,1418.3307,,,,0,48,48,48,1,120,170,,,,,,,,
,,6138c0ee7c2e870d9fe8bdd0,65af56434abd09284145a186,2024-01-23_08h02.48.046,bars,2023.2.3,Win32,60.20832079,657b66ea316d21385b68909f,,,,,,,,,,,1418.3307,1419.3366,,,1419.8363,1420.0916,,120,120,,,,,,,,,,,,,,,,bars/023.png,bars/mask006.png,,,,,,,,,,,,6,2,,,,,,,0,8,1,7,,,,,,,,,,,1419.3367,1419.8362,1420.0917,1431.7669,space,11.6681,,1431.7673,80,5,1432.7679,1432.7681,1432.7817,,,,0,49,49,49,1,20,115,,,,,,,,
,,6138c0ee7c2e870d9fe8bdd0,65af56434abd09284145a186,2024-01-23_08h02.48.046,bars,2023.2.3,Win32,60.20832079,657b66ea316d21385b68909f,,,,,,,,,,,,,,,,,,,,,,,,,,,,,,,,,,,,,,,,,,,,,,,,,,,,,,,,,,,,,,,,,,,,,,,,,,,,,,,,,,,,,,,,,,,,,1432.7817,1492.7757,0,2,2,1,1,sequence_tables/blk013.csv
,,6138c0ee7c2e870d9fe8bdd0,65af56434abd09284145a186,2024-01-23_08h02.48.046,bars,2023.2.3,Win32,60.20832079,657b66ea316d21385b68909f,,,,,,,,,,,1498.552,1499.5475,,,1500.0415,1500.2876,,112,112,,,,,,,,,,,,,,,,bars/025.png,bars/mask008.png,,,,,,,,,,,,5,1,,,,,,,5,7,6,8,,,,,,1492.7941,1498.5259,space,5.7141,,1499.5476,1500.0412,1500.2877,1502.4469,space,2.131,,1502.4469,7,72,1503.4413,1503.4416,1503.4514,,,,0,0,0,0,1,105,40,,,,,,,,
,,6138c0ee7c2e870d9fe8bdd0,65af56434abd09284145a186,2024-01-23_08h02.48.046,bars,2023.2.3,Win32,60.20832079,657b66ea316d21385b68909f,,,,,,,,,,,1503.4515,1504.4404,,,1504.9305,1505.1733,,135,135,,,,,,,,,,,,,,,,bars/007.png,bars/mask000.png,,,,,,,,,,,,0,1,,,,,,,7,9,5,8,,,,,,,,,,,1504.4407,1504.9305,1505.1734,1507.0977,space,1.9167,,1507.0977,40,80,1508.0903,1508.0907,1508.0937,,,,0,1,1,1,1,175,55,,,,,,,,
,,6138c0ee7c2e870d9fe8bdd0,65af56434abd09284145a186,2024-01-23_08h02.48.046,bars,2023.2.3,Win32,60.20832079,657b66ea316d21385b68909f,,,,,,,,,,,1508.0939,1509.0899,,,1509.5897,1509.8399,,83,83,,,,,,,,,,,,,,,,bars/010.png,bars/mask001.png,,,,,,,,,,,,1,2,,,,,,,5,10,4,10,,,,,,,,,,,1509.0901,1509.5895,1509.8401,1513.5124,space,3.6651,,1513.5124,82,28,1514.5068,1514.5071,1514.5199,,,,0,2,2,2,1,165,55,,,,,,,,
,,6138c0ee7c2e870d9fe8bdd0,65af56434abd09284145a186,2024-01-23_08h02.48.046,bars,2023.2.3,Win32,60.20832079,657b66ea316d21385b68909f,,,,,,,,,,,1514.5202,1515.5242,,,1516.0245,1516.2728,,17,17,,,,,,,,,,,,,,,,bars/019.png,bars/mask006.png,,,,,,,,,,,,0,1,,,,,,,3,10,2,9,,,,,,,,,,,1515.5243,1516.0243,1516.2731,1517.4738,space,1.173,,1517.4739,28,88,1518.4719,1518.4721,1518.4757,,,,0,3,3,3,1,45,105,,,,,,,,
,,6138c0ee7c2e870d9fe8bdd0,65af56434abd09284145a186,2024-01-23_08h02.48.046,bars,2023.2.3,Win32,60.20832079,657b66ea316d21385b68909f,,,,,,,,,,,1518.4758,1519.4719,,,1519.9739,1520.2282,,154,154,,,,,,,,,,,,,,,,bars/039.png,bars/mask007.png,,,,,,,,,,,,0,1,,,,,,,1,10,0,10,,,,,,,,,,,1519.4723,1519.9738,1520.2282,1523.1225,space,2.8743,,1523.1227,21,49,1524.122,1524.1223,1524.1312,,,,0,4,4,4,1,175,105,,,,,,,,
,,6138c0ee7c2e870d9fe8bdd0,65af56434abd09284145a186,2024-01-23_08h02.48.046,bars,2023.2.3,Win32,60.20832079,657b66ea316d21385b68909f,,,,,,,,,,,1524.1313,1525.123,,,1525.6231,1525.8723,,154,154,,,,,,,,,,,,,,,,bars/049.png,bars/mask004.png,,,,,,,,,,,,1,1,,,,,,,0,10,1,10,,,,,,,,,,,1525.1231,1525.623,1525.8724,1527.8434,space,1.9647,,1527.8434,6,39,1528.8368,1528.8368,1528.8416,,,,0,5,5,5,1,160,115,,,,,,,,
,,6138c0ee7c2e870d9fe8bdd0,65af56434abd09284145a186,2024-01-23_08h02.48.046,bars,2023.2.3,Win32,60.20832079,657b66ea316d21385b68909f,,,,,,,,,,,1528.8418,1529.8378,,,1530.3374,1530.5867,,41,41,,,,,,,,,,,,,,,,bars/032.png,bars/mask009.png,,,,,,,,,,,,3,2,,,,,,,2,8,1,10,,,,,,,,,,,1529.8381,1530.3371,1530.587,1533.2369,space,2.6375,,1533.2371,84,21,1534.2387,1534.2389,1534.2487,,,,0,6,6,6,1,125,20,,,,,,,,
,,6138c0ee7c2e870d9fe8bdd0,65af56434abd09284145a186,2024-01-23_08h02.48.046,bars,2023.2.3,Win32,60.20832079,657b66ea316d21385b68909f,,,,,,,,,,,1534.2489,1535.2383,,,1535.7434,1535.9876,,147,147,,,,,,,,,,,,,,,,bars/036.png,bars/mask004.png,,,,,,,,,,,,0,1,,,,,,,0,6,0,5,,,,,,,,,,,1535.2385,1535.7432,1535.9879,1539.2422,space,3.2321,,1539.2423,2,53,1540.2356,1540.236,1540.2464,,,,0,7,7,7,1,145,20,,,,,,,,
,,6138c0ee7c2e870d9fe8bdd0,65af56434abd09284145a186,2024-01-23_08h02.48.046,bars,2023.2.3,Win32,60.20832079,657b66ea316d21385b68909f,,,,,,,,,,,1540.2466,1541.2358,,,1541.7371,1541.9857,,137,137,,,,,,,,,,,,,,,,bars/016.png,bars/mask009.png,,,,,,,,,,,,0,2,,,,,,,0,8,1,7,,,,,,,,,,,1541.2362,1541.737,1541.9859,1545.0367,space,3.0257,,1545.0368,83,28,1546.037,1546.0373,1546.0498,,,,0,8,8,8,1,40,165,,,,,,,,
,,6138c0ee7c2e870d9fe8bdd0,65af56434abd09284145a186,2024-01-23_08h02.48.046,bars,2023.2.3,Win32,60.20832079,657b66ea316d21385b68909f,,,,,,,,,,,1546.05,1547.0512,,,1547.5531,1547.8039,,31,31,,,,,,,,,,,,,,,,bars/045.png,bars/mask003.png,,,,,,,,,,,,2,2,,,,,,,0,6,0,5,,,,,,,,,,,1547.0512,1547.5529,1547.804,1550.5417,space,2.7324,,1550.5418,69,21,1551.5363,1551.5364,1551.5457,,,,0,9,9,9,1,100,10,,,,,,,,
,,6138c0ee7c2e870d9fe8bdd0,65af56434abd09284145a186,2024-01-23_08h02.48.046,bars,2023.2.3,Win32,60.20832079,657b66ea316d21385b68909f,,,,,,,,,,,1551.5458,1552.5357,,,1553.0414,1553.2858,,12,12,,,,,,,,,,,,,,,,bars/003.png,bars/mask009.png,,,,,,,,,,,,1,1,,,,,,,0,8,1,8,,,,,,,,,,,1552.5359,1553.0413,1553.2862,1554.5859,space,1.2679,,1554.5861,13,52,1555.5858,1555.586,1555.5895,,,,0,10,10,10,1,25,140,,,,,,,,
,,6138c0ee7c2e870d9fe8bdd0,65af56434abd09284145a186,2024-01-23_08h02.48.046,bars,2023.2.3,Win32,60.20832079,657b66ea316d21385b68909f,,,,,,,,,,,1555.5898,1556.5858,,,1557.0838,1557.3351,,47,47,,,,,,,,,,,,,,,,bars/013.png,bars/mask009.png,,,,,,,,,,,,0,1,,,,,,,0,10,0,10,,,,,,,,,,,1556.5859,1557.0836,1557.3353,1561.7228,space,4.3663,,1561.7228,28,37,1562.7178,1562.7186,1562.7298,,,,0,11,11,11,1,75,10,,,,,,,,
,,6138c0ee7c2e870d9fe8bdd0,65af56434abd09284145a186,2024-01-23_08h02.48.046,bars,2023.2.3,Win32,60.20832079,657b66ea316d21385b68909f,,,,,,,,,,,1562.7299,1563.7344,,,1564.2342,1564.4837,,36,36,,,,,,,,,,,,,,,,bars/023.png,bars/mask005.png,,,,,,,,,,,,0,1,,,,,,,0,8,0,8,,,,,,,,,,,1563.7346,1564.2341,1564.484,1566.4666,space,1.9597,,1566.4668,16,79,1567.4685,1567.4687,1567.4882,,,,0,12,12,12,1,20,115,,,,,,,,
,,6138c0ee7c2e870d9fe8bdd0,65af56434abd09284145a186,2024-01-23_08h02.48.046,bars,2023.2.3,Win32,60.20832079,657b66ea316d21385b68909f,,,,,,,,,,,1567.4884,1568.4837,,,1568.9838,1569.2344,,117,117,,,,,,,,,,,,,,,,bars/023.png,bars/mask009.png,,,,,,,,,,,,5,2,,,,,,,2,6,2,5,,,,,,,,,,,1568.4839,1568.9833,1569.2347,1571.3859,space,2.1209,,1571.3859,83,2,1572.3832,1572.3833,1572.3949,,,,0,13,13,13,1,20,115,,,,,,,,
,,6138c0ee7c2e870d9fe8bdd0,65af56434abd09284145a186,2024-01-23_08h02.48.046,bars,2023.2.3,Win32,60.20832079,657b66ea316d21385b68909f,,,,,,,,,,,1572.3952,1573.3837,,,1573.8814,1574.1332,,34,34,,,,,,,,,,,,,,,,bars/036.png,bars/mask009.png,,,,,,,,,,,,4,2,,,,,,,0,8,1,8,,,,,,,,,,,1573.3839,1573.8811,1574.1335,1580.8496,space,6.687,,1580.8498,69,14,1581.8487,1581.849,1581.8587,,,,0,14,14,14,1,145,20,,,,,,,,
,,6138c0ee7c2e870d9fe8bdd0,65af56434abd09284145a186,2024-01-23_08h02.48.046,bars,2023.2.3,Win32,60.20832079,657b66ea316d21385b68909f,,,,,,,,,,,1581.8589,1582.8544,,,1583.3543,1583.6037,,80,80,,,,,,,,,,,,,,,,bars/013.png,bars/mask002.png,,,,,,,,,,,,0,1,,,,,,,2,10,0,10,,,,,,,,,,,1582.8545,1583.3542,1583.6037,1584.5487,space,0.9189,,1584.549,5,70,1585.5481,1585.5483,1585.5505,,,,0,15,15,15,1,75,10,,,,,,,,
,,6138c0ee7c2e870d9fe8bdd0,65af56434abd09284145a186,2024-01-23_08h02.48.046,bars,2023.2.3,Win32,60.20832079,657b66ea316d21385b68909f,,,,,,,,,,,1585.5508,1586.5487,,,1587.0477,1587.2981,,145,145,,,,,,,,,,,,,,,,bars/012.png,bars/mask004.png,,,,,,,,,,,,0,2,,,,,,,4,10,2,10,,,,,,,,,,,1586.5489,1587.0474,1587.2984,1588.8637,space,1.5426,,1588.864,55,50,1589.8651,1589.8655,1589.8832,,,,0,16,16,16,1,90,15,,,,,,,,
,,6138c0ee7c2e870d9fe8bdd0,65af56434abd09284145a186,2024-01-23_08h02.48.046,bars,2023.2.3,Win32,60.20832079,657b66ea316d21385b68909f,,,,,,,,,,,1589.8833,1590.8805,,,1591.3835,1591.6308,,24,24,,,,,,,,,,,,,,,,bars/037.png,bars/mask001.png,,,,,,,,,,,,0,1,,,,,,,2,8,2,9,,,,,,,,,,,1590.881,1591.3835,1591.631,1593.3646,space,1.7018,,1593.3649,54,81,1594.3632,1594.3632,1594.3665,,,,0,17,17,17,1,150,105,,,,,,,,
,,6138c0ee7c2e870d9fe8bdd0,65af56434abd09284145a186,2024-01-23_08h02.48.046,bars,2023.2.3,Win32,60.20832079,657b66ea316d21385b68909f,,,,,,,,,,,1594.3669,1595.364,,,1595.8629,1596.1139,,104,104,,,,,,,,,,,,,,,,bars/037.png,bars/mask004.png,,,,,,,,,,,,7,2,,,,,,,0,6,0,7,,,,,,,,,,,1595.3641,1595.8627,1596.114,1597.9466,space,1.8019,,1597.9468,46,1,1598.9458,1598.9459,1598.9486,,,,0,18,18,18,1,150,105,,,,,,,,
,,6138c0ee7c2e870d9fe8bdd0,65af56434abd09284145a186,2024-01-23_08h02.48.046,bars,2023.2.3,Win32,60.20832079,657b66ea316d21385b68909f,,,,,,,,,,,1598.9487,1599.9465,,,1600.447,1600.6965,,79,79,,,,,,,,,,,,,,,,bars/046.png,bars/mask009.png,,,,,,,,,,,,2,2,,,,,,,0,4,2,3,,,,,,,,,,,1599.9467,1600.4465,1600.6966,1601.2803,space,0.5527,,1601.2805,76,6,1602.2685,1602.2686,1602.2689,,,,0,19,19,19,1,155,85,,,,,,,,
,,6138c0ee7c2e870d9fe8bdd0,65af56434abd09284145a186,2024-01-23_08h02.48.046,bars,2023.2.3,Win32,60.20832079,657b66ea316d21385b68909f,,,,,,,,,,,1602.2692,1603.2617,,,1603.7628,1604.0121,,126,126,,,,,,,,,,,,,,,,bars/019.png,bars/mask005.png,,,,,,,,,,,,0,2,,,,,,,2,2,1,1,,,,,,,,,,,1603.262,1603.7626,1604.0125,1604.5966,space,0.5514,,1604.5967,81,21,1605.5968,1605.5969,1605.5984,,,,0,20,20,20,1,45,105,,,,,,,,
,,6138c0ee7c2e870d9fe8bdd0,65af56434abd09284145a186,2024-01-23_08h02.48.046,bars,2023.2.3,Win32,60.20832079,657b66ea316d21385b68909f,,,,,,,,,,,1605.5988,1606.5953,,,1607.0958,1607.3448,,150,150,,,,,,,,,,,,,,,,bars/027.png,bars/mask006.png,,,,,,,,,,,,0,1,,,,,,,4,0,4,0,,,,,,,,,,,1606.5966,1607.0957,1607.3451,1608.2784,space,0.9007,,1608.2786,40,80,1609.2783,1609.2783,1609.2887,,,,0,21,21,21,1,110,50,,,,,,,,
,,6138c0ee7c2e870d9fe8bdd0,65af56434abd09284145a186,2024-01-23_08h02.48.046,bars,2023.2.3,Win32,60.20832079,657b66ea316d21385b68909f,,,,,,,,,,,1609.2888,1610.2779,,,1610.7763,1611.0263,,147,147,,,,,,,,,,,,,,,,bars/035.png,bars/mask009.png,,,,,,,,,,,,0,1,,,,,,,2,0,3,0,,,,,,,,,,,1610.2781,1610.7763,1611.0264,1614.0003,space,2.9673,,1614.0003,28,87,1614.9945,1614.9947,1615.008,,,,0,22,22,22,1,175,60,,,,,,,,
,,6138c0ee7c2e870d9fe8bdd0,65af56434abd09284145a186,2024-01-23_08h02.48.046,bars,2023.2.3,Win32,60.20832079,657b66ea316d21385b68909f,,,,,,,,,,,1615.0082,1616.0112,,,1616.511,1616.7613,,26,26,,,,,,,,,,,,,,,,bars/013.png,bars/mask008.png,,,,,,,,,,,,0,2,,,,,,,0,0,1,0,,,,,,,,,,,1616.0114,1616.5108,1616.7615,1618.6838,space,1.9015,,1618.6839,49,16,1619.6771,1619.6775,1619.6975,,,,0,23,23,23,1,75,10,,,,,,,,
,,6138c0ee7c2e870d9fe8bdd0,65af56434abd09284145a186,2024-01-23_08h02.48.046,bars,2023.2.3,Win32,60.20832079,657b66ea316d21385b68909f,,,,,,,,,,,1619.6976,1620.6922,,,1621.1925,1621.4423,,116,116,,,,,,,,,,,,,,,,bars/026.png,bars/mask009.png,,,,,,,,,,,,0,2,,,,,,,2,2,2,1,,,,,,,,,,,1620.6925,1621.1921,1621.4426,1623.3662,space,1.9174,,1623.3662,81,31,1624.3596,1624.3599,1624.3622,,,,0,24,24,24,1,35,85,,,,,,,,
,,6138c0ee7c2e870d9fe8bdd0,65af56434abd09284145a186,2024-01-23_08h02.48.046,bars,2023.2.3,Win32,60.20832079,657b66ea316d21385b68909f,,,,,,,,,,,1624.3624,1625.3595,,,1625.8596,1626.1098,,7,7,,,,,,,,,,,,,,,,bars/006.png,bars/mask000.png,,,,,,,,,,,,0,1,,,,,,,0,0,0,0,,,,,,,,,,,1625.3609,1625.8592,1626.1099,1628.1137,space,1.9977,,1628.1137,28,87,1629.1095,1629.1096,1629.1126,,,,0,25,25,25,1,35,100,,,,,,,,
,,6138c0ee7c2e870d9fe8bdd0,65af56434abd09284145a186,2024-01-23_08h02.48.046,bars,2023.2.3,Win32,60.20832079,657b66ea316d21385b68909f,,,,,,,,,,,1629.1128,1630.1072,,,1630.609,1630.8586,,166,166,,,,,,,,,,,,,,,,bars/018.png,bars/mask002.png,,,,,,,,,,,,0,1,,,,,,,0,0,0,0,,,,,,,,,,,1630.1075,1630.6087,1630.8587,1631.7322,space,0.8517,,1631.7322,16,76,1632.7246,1632.7249,1632.7281,,,,0,26,26,26,1,150,90,,,,,,,,
,,6138c0ee7c2e870d9fe8bdd0,65af56434abd09284145a186,2024-01-23_08h02.48.046,bars,2023.2.3,Win32,60.20832079,657b66ea316d21385b68909f,,,,,,,,,,,1632.7286,1633.7233,,,1634.2244,1634.475,,150,150,,,,,,,,,,,,,,,,bars/009.png,bars/mask006.png,,,,,,,,,,,,0,2,,,,,,,2,0,2,1,,,,,,,,,,,1633.7233,1634.2241,1634.4751,1636.1403,space,1.6407,,1636.1405,45,45,1637.1418,1637.1419,1637.1446,,,,0,27,27,27,1,15,105,,,,,,,,
,,6138c0ee7c2e870d9fe8bdd0,65af56434abd09284145a186,2024-01-23_08h02.48.046,bars,2023.2.3,Win32,60.20832079,657b66ea316d21385b68909f,,,,,,,,,,,1637.1449,1638.1406,,,1638.6412,1638.8919,,27,27,,,,,,,,,,,,,,,,bars/016.png,bars/mask006.png,,,,,,,,,,,,1,1,,,,,,,0,2,2,2,,,,,,,,,,,1638.1411,1638.6412,1638.8921,1641.2077,space,2.3016,,1641.2078,13,42,1642.2073,1642.2075,1642.2179,,,,0,28,28,28,1,40,165,,,,,,,,
,,6138c0ee7c2e870d9fe8bdd0,65af56434abd09284145a186,2024-01-23_08h02.48.046,bars,2023.2.3,Win32,60.20832079,657b66ea316d21385b68909f,,,,,,,,,,,1642.2181,1643.2224,,,1643.7247,1643.974,,6,6,,,,,,,,,,,,,,,,bars/039.png,bars/mask007.png,,,,,,,,,,,,1,1,,,,,,,2,0,1,0,,,,,,,,,,,1643.2226,1643.7244,1643.9741,1645.4299,space,1.435,,1645.43,11,81,1646.4244,1646.4245,1646.4264,,,,0,29,29,29,1,175,105,,,,,,,,
,,6138c0ee7c2e870d9fe8bdd0,65af56434abd09284145a186,2024-01-23_08h02.48.046,bars,2023.2.3,Win32,60.20832079,657b66ea316d21385b68909f,,,,,,,,,,,1646.4266,1647.4235,,,1647.924,1648.1734,,70,70,,,,,,,,,,,,,,,,bars/024.png,bars/mask006.png,,,,,,,,,,,,0,1,,,,,,,0,2,1,3,,,,,,,,,,,1647.4237,1647.9239,1648.1735,1651.2546,space,3.0721,,1651.2548,50,80,1652.256,1652.2562,1652.2655,,,,0,30,30,30,1,120,170,,,,,,,,
,,6138c0ee7c2e870d9fe8bdd0,65af56434abd09284145a186,2024-01-23_08h02.48.046,bars,2023.2.3,Win32,60.20832079,657b66ea316d21385b68909f,,,,,,,,,,,1652.2658,1653.2558,,,1653.756,1654.0055,,162,162,,,,,,,,,,,,,,,,bars/035.png,bars/mask000.png,,,,,,,,,,,,0,1,,,,,,,0,0,0,1,,,,,,,,,,,1653.256,1653.7554,1654.0056,1657.839,space,3.8,,1657.8392,13,78,1658.8367,1658.8367,1658.8472,,,,0,31,31,31,1,175,60,,,,,,,,
,,6138c0ee7c2e870d9fe8bdd0,65af56434abd09284145a186,2024-01-23_08h02.48.046,bars,2023.2.3,Win32,60.20832079,657b66ea316d21385b68909f,,,,,,,,,,,1658.8472,1659.838,,,1660.3387,1660.5887,,156,156,,,,,,,,,,,,,,,,bars/012.png,bars/mask005.png,,,,,,,,,,,,0,2,,,,,,,2,2,2,2,,,,,,,,,,,1659.8383,1660.3387,1660.5888,1662.7937,space,2.1836,,1662.7937,66,39,1663.7875,1663.7875,1663.8013,,,,0,32,32,32,1,90,15,,,,,,,,
,,6138c0ee7c2e870d9fe8bdd0,65af56434abd09284145a186,2024-01-23_08h02.48.046,bars,2023.2.3,Win32,60.20832079,657b66ea316d21385b68909f,,,,,,,,,,,1663.8014,1664.805,,,1665.3043,1665.5526,,132,132,,,,,,,,,,,,,,,,bars/004.png,bars/mask003.png,,,,,,,,,,,,5,2,,,,,,,4,4,4,6,,,,,,,,,,,1664.8052,1665.3036,1665.5527,1666.6923,space,1.1324,,1666.6923,73,7,1667.6881,1667.6882,1667.6903,,,,0,33,33,33,1,25,125,,,,,,,,
,,6138c0ee7c2e870d9fe8bdd0,65af56434abd09284145a186,2024-01-23_08h02.48.046,bars,2023.2.3,Win32,60.20832079,657b66ea316d21385b68909f,,,,,,,,,,,1667.6905,1668.6866,,,1669.187,1669.439,,155,155,,,,,,,,,,,,,,,,bars/025.png,bars/mask006.png,,,,,,,,,,,,0,1,,,,,,,6,2,7,2,,,,,,,,,,,1668.6871,1669.1868,1669.439,1670.5711,space,1.1194,,1670.5713,50,65,1671.5694,1671.5697,1671.579,,,,0,34,34,34,1,105,40,,,,,,,,
,,6138c0ee7c2e870d9fe8bdd0,65af56434abd09284145a186,2024-01-23_08h02.48.046,bars,2023.2.3,Win32,60.20832079,657b66ea316d21385b68909f,,,,,,,,,,,1671.5792,1672.5701,,,1673.0703,1673.3194,,42,42,,,,,,,,,,,,,,,,bars/035.png,bars/mask002.png,,,,,,,,,,,,2,2,,,,,,,4,4,4,4,,,,,,,,,,,1672.5702,1673.0702,1673.3197,1676.0027,space,2.6513,,1676.0028,47,18,1677.0034,1677.0036,1677.0126,,,,0,35,35,35,1,175,60,,,,,,,,
,,6138c0ee7c2e870d9fe8bdd0,65af56434abd09284145a186,2024-01-23_08h02.48.046,bars,2023.2.3,Win32,60.20832079,657b66ea316d21385b68909f,,,,,,,,,,,1677.0127,1678.001,,,1678.5025,1678.7517,,75,75,,,,,,,,,,,,,,,,bars/012.png,bars/mask009.png,,,,,,,,,,,,2,1,,,,,,,2,6,3,5,,,,,,,,,,,1678.001,1678.5023,1678.7524,1681.1189,space,2.3494,,1681.119,15,60,1682.119,1682.1192,1682.1314,,,,0,36,36,36,1,90,15,,,,,,,,
,,6138c0ee7c2e870d9fe8bdd0,65af56434abd09284145a186,2024-01-23_08h02.48.046,bars,2023.2.3,Win32,60.20832079,657b66ea316d21385b68909f,,,,,,,,,,,1682.1315,1683.136,,,1683.634,1683.8865,,176,176,,,,,,,,,,,,,,,,bars/026.png,bars/mask000.png,,,,,,,,,,,,0,1,,,,,,,4,8,4,7,,,,,,,,,,,1683.1362,1683.6338,1683.8868,1685.7531,space,1.8347,,1685.7534,39,89,1686.7515,1686.7517,1686.7538,,,,0,37,37,37,1,35,85,,,,,,,,
,,6138c0ee7c2e870d9fe8bdd0,65af56434abd09284145a186,2024-01-23_08h02.48.046,bars,2023.2.3,Win32,60.20832079,657b66ea316d21385b68909f,,,,,,,,,,,1686.7541,1687.7517,,,1688.2525,1688.5023,,116,116,,,,,,,,,,,,,,,,bars/033.png,bars/mask006.png,,,,,,,,,,,,0,2,,,,,,,6,10,7,10,,,,,,,,,,,1687.7519,1688.2522,1688.5024,1691.1728,space,2.6501,,1691.1728,89,39,1692.1692,1692.1693,1692.1775,,,,0,38,38,38,1,25,155,,,,,,,,
,,6138c0ee7c2e870d9fe8bdd0,65af56434abd09284145a186,2024-01-23_08h02.48.046,bars,2023.2.3,Win32,60.20832079,657b66ea316d21385b68909f,,,,,,,,,,,1692.1776,1693.1667,,,1693.6679,1693.9163,,107,107,,,,,,,,,,,,,,,,bars/015.png,bars/mask005.png,,,,,,,,,,,,7,1,,,,,,,8,8,8,8,,,,,,,,,,,1693.1668,1693.6677,1693.9165,1695.2568,space,1.3177,,1695.2569,3,53,1696.2508,1696.251,1696.2532,,,,0,39,39,39,1,110,160,,,,,,,,
,,6138c0ee7c2e870d9fe8bdd0,65af56434abd09284145a186,2024-01-23_08h02.48.046,bars,2023.2.3,Win32,60.20832079,657b66ea316d21385b68909f,,,,,,,,,,,1696.2534,1697.2554,,,1697.7506,1698.0003,,155,155,,,,,,,,,,,,,,,,bars/023.png,bars/mask006.png,,,,,,,,,,,,0,2,,,,,,,10,6,10,5,,,,,,,,,,,1697.2554,1697.7505,1698.0004,1699.8548,space,1.8323,,1699.8548,45,40,1700.8505,1700.8506,1700.8528,,,,0,40,40,40,1,20,115,,,,,,,,
,,6138c0ee7c2e870d9fe8bdd0,65af56434abd09284145a186,2024-01-23_08h02.48.046,bars,2023.2.3,Win32,60.20832079,657b66ea316d21385b68909f,,,,,,,,,,,1700.853,1701.8489,,,1702.3497,1702.5998,,60,60,,,,,,,,,,,,,,,,bars/005.png,bars/mask003.png,,,,,,,,,,,,0,1,,,,,,,8,8,7,7,,,,,,,,,,,1701.849,1702.3496,1702.5999,1703.5491,space,0.9213,,1703.5493,50,80,1704.5497,1704.5499,1704.5531,,,,0,41,41,41,1,10,140,,,,,,,,
,,6138c0ee7c2e870d9fe8bdd0,65af56434abd09284145a186,2024-01-23_08h02.48.046,bars,2023.2.3,Win32,60.20832079,657b66ea316d21385b68909f,,,,,,,,,,,1704.5533,1705.5491,,,1706.0495,1706.2999,,77,77,,,,,,,,,,,,,,,,bars/016.png,bars/mask002.png,,,,,,,,,,,,0,1,,,,,,,10,10,10,10,,,,,,,,,,,1705.5492,1706.0494,1706.3,1706.7326,space,0.4028,,1706.7328,37,88,1707.7306,1707.7309,1707.7346,,,,0,42,42,42,1,40,165,,,,,,,,
,,6138c0ee7c2e870d9fe8bdd0,65af56434abd09284145a186,2024-01-23_08h02.48.046,bars,2023.2.3,Win32,60.20832079,657b66ea316d21385b68909f,,,,,,,,,,,1707.735,1708.7315,,,1709.2316,1709.4802,,102,102,,,,,,,,,,,,,,,,bars/008.png,bars/mask005.png,,,,,,,,,,,,7,1,,,,,,,10,10,9,10,,,,,,,,,,,1708.7316,1709.2312,1709.4804,1709.9816,space,0.4877,,1709.9819,8,78,1710.9823,1710.9825,1710.9842,,,,0,43,43,43,1,110,0,,,,,,,,
,,6138c0ee7c2e870d9fe8bdd0,65af56434abd09284145a186,2024-01-23_08h02.48.046,bars,2023.2.3,Win32,60.20832079,657b66ea316d21385b68909f,,,,,,,,,,,1710.9846,1711.9799,,,1712.4806,1712.7209,,5,5,,,,,,,,,,,,,,,,bars/035.png,bars/mask000.png,,,,,,,,,,,,7,1,,,,,,,10,10,10,10,,,,,,,,,,,1711.98,1712.4804,1712.7209,1713.2484,space,0.5191,,1713.2486,10,55,1714.2478,1714.248,1714.2505,,,,0,44,44,44,1,175,60,,,,,,,,
,,6138c0ee7c2e870d9fe8bdd0,65af56434abd09284145a186,2024-01-23_08h02.48.046,bars,2023.2.3,Win32,60.20832079,657b66ea316d21385b68909f,,,,,,,,,,,1714.2507,1715.2484,,,1715.7474,1715.9977,,112,112,,,,,,,,,,,,,,,,bars/048.png,bars/mask006.png,,,,,,,,,,,,0,1,,,,,,,10,8,10,6,,,,,,,,,,,1715.2485,1715.7471,1715.9978,1716.3989,space,0.3842,,1716.3991,62,63,1717.3975,1717.3977,1717.4006,,,,0,45,45,45,1,50,175,,,,,,,,
,,6138c0ee7c2e870d9fe8bdd0,65af56434abd09284145a186,2024-01-23_08h02.48.046,bars,2023.2.3,Win32,60.20832079,657b66ea316d21385b68909f,,,,,,,,,,,1717.401,1718.3958,,,1718.8959,1719.1482,,175,175,,,,,,,,,,,,,,,,bars/000.png,bars/mask001.png,,,,,,,,,,,,0,2,,,,,,,8,6,6,6,,,,,,,,,,,1718.3958,1718.8957,1719.1484,1719.72,space,0.5504,,1719.7201,45,30,1720.7128,1720.7131,1720.7163,,,,0,46,46,46,1,40,145,,,,,,,,
,,6138c0ee7c2e870d9fe8bdd0,65af56434abd09284145a186,2024-01-23_08h02.48.046,bars,2023.2.3,Win32,60.20832079,657b66ea316d21385b68909f,,,,,,,,,,,1720.7165,1721.715,,,1722.2144,1722.4631,,66,66,,,,,,,,,,,,,,,,bars/005.png,bars/mask002.png,,,,,,,,,,,,0,1,,,,,,,10,4,10,4,,,,,,,,,,,1721.715,1722.2143,1722.4634,1722.9641,space,0.4882,,1722.9643,56,74,1723.9622,1723.9625,1723.9672,,,,0,47,47,47,1,10,140,,,,,,,,
,,6138c0ee7c2e870d9fe8bdd0,65af56434abd09284145a186,2024-01-23_08h02.48.046,bars,2023.2.3,Win32,60.20832079,657b66ea316d21385b68909f,,,,,,,,,,,1723.9675,1724.9647,,,1725.4633,1725.7138,,123,123,,,,,,,,,,,,,,,,bars/003.png,bars/mask006.png,,,,,,,,,,,,1,2,,,,,,,8,2,7,2,,,,,,,,,,,1724.9648,1725.4631,1725.7139,1726.2473,space,0.5031,,1726.2474,82,17,1727.2466,1727.2467,1727.2492,,,,0,48,48,48,1,25,140,,,,,,,,
,,6138c0ee7c2e870d9fe8bdd0,65af56434abd09284145a186,2024-01-23_08h02.48.046,bars,2023.2.3,Win32,60.20832079,657b66ea316d21385b68909f,,,,,,,,,,,1727.2495,1728.2464,,,1728.7461,1728.9962,,101,101,,,,,,,,,,,,,,,,bars/024.png,bars/mask002.png,,,,,,,,,,,,4,1,,,,,,,10,0,10,0,,,,,,,,,,,1728.2466,1728.746,1728.9963,1729.5638,space,0.55,,1729.5639,19,69,1730.5629,1730.563,1730.5658,,,,0,49,49,49,1,120,170,,,,,,,,
,,6138c0ee7c2e870d9fe8bdd0,65af56434abd09284145a186,2024-01-23_08h02.48.046,bars,2023.2.3,Win32,60.20832079,657b66ea316d21385b68909f,,,,,,,,,,,,,,,,,,,,,,,,,,,,,,,,,,,,,,,,,,,,,,,,,,,,,,,,,,,,,,,,,,,,,,,,,,,,,,,,,,,,,,,,,,,,,1730.5659,1780.5108,0,3,3,2,1,sequence_tables/blk002.csv
,,6138c0ee7c2e870d9fe8bdd0,65af56434abd09284145a186,2024-01-23_08h02.48.046,bars,2023.2.3,Win32,60.20832079,657b66ea316d21385b68909f,,,,,,,,,,,1782.9673,1783.9609,,,1784.4603,1784.7112,,51,51,,,,,,,,,,,,,,,,bars/034.png,bars/mask002.png,,,,,,,,,,,,2,2,,,,,,,7,2,8,3,,,,,,1780.5196,1782.9611,space,2.4294,,1783.9609,1784.4603,1784.7112,1785.6275,space,0.9001,,1785.6276,74,14,1786.6265,1786.6265,1786.636,,,,0,0,0,0,1,125,65,,,,,,,,
,,6138c0ee7c2e870d9fe8bdd0,65af56434abd09284145a186,2024-01-23_08h02.48.046,bars,2023.2.3,Win32,60.20832079,657b66ea316d21385b68909f,,,,,,,,,,,1786.6361,1787.6286,,,1788.1271,1788.3778,,130,130,,,,,,,,,,,,,,,,bars/033.png,bars/mask008.png,,,,,,,,,,,,1,2,,,,,,,9,4,8,5,,,,,,,,,,,1787.6286,1788.1271,1788.3778,1788.9784,space,0.5842,,1788.9785,75,25,1789.9768,1789.9769,1789.9776,,,,0,1,1,1,1,25,155,,,,,,,,
,,6138c0ee7c2e870d9fe8bdd0,65af56434abd09284145a186,2024-01-23_08h02.48.046,bars,2023.2.3,Win32,60.20832079,657b66ea316d21385b68909f,,,,,,,,,,,1789.9778,1790.9765,,,1791.4761,1791.7262,,49,49,,,,,,,,,,,,,,,,bars/032.png,bars/mask009.png,,,,,,,,,,,,0,2,,,,,,,7,6,6,6,,,,,,,,,,,1790.9766,1791.4761,1791.7263,1792.2762,space,0.5332,,1792.2762,76,29,1793.276,1793.2761,1793.2766,,,,0,2,2,2,1,125,20,,,,,,,,
,,6138c0ee7c2e870d9fe8bdd0,65af56434abd09284145a186,2024-01-23_08h02.48.046,bars,2023.2.3,Win32,60.20832079,657b66ea316d21385b68909f,,,,,,,,,,,1793.2768,1794.2762,,,1794.7768,1795.0262,,172,172,,,,,,,,,,,,,,,,bars/030.png,bars/mask004.png,,,,,,,,,,,,0,1,,,,,,,5,8,6,9,,,,,,,,,,,1794.2762,1794.7768,1795.0262,1795.7598,space,0.7175,,1795.7598,32,73,1796.7593,1796.7594,1796.7614,,,,0,3,3,3,1,140,65,,,,,,,,
,,6138c0ee7c2e870d9fe8bdd0,65af56434abd09284145a186,2024-01-23_08h02.48.046,bars,2023.2.3,Win32,60.20832079,657b66ea316d21385b68909f,,,,,,,,,,,1796.7618,1797.7591,,,1798.2599,1798.509,,22,22,,,,,,,,,,,,,,,,bars/012.png,bars/mask003.png,,,,,,,,,,,,5,2,,,,,,,3,6,2,6,,,,,,,,,,,1797.7591,1798.2599,1798.509,1799.1594,space,0.6342,,1799.1594,68,7,1800.1587,1800.1588,1800.1605,,,,0,4,4,4,1,90,15,,,,,,,,
,,6138c0ee7c2e870d9fe8bdd0,65af56434abd09284145a186,2024-01-23_08h02.48.046,bars,2023.2.3,Win32,60.20832079,657b66ea316d21385b68909f,,,,,,,,,,,1800.1608,1801.1582,,,1801.6596,1801.9089,,173,173,,,,,,,,,,,,,,,,bars/015.png,bars/mask007.png,,,,,,,,,,,,3,2,,,,,,,5,4,4,5,,,,,,,,,,,1801.1582,1801.6596,1801.9089,1802.4582,space,0.5326,,1802.4582,63,13,1803.4588,1803.4588,1803.4594,,,,0,5,5,5,1,110,160,,,,,,,,
,,6138c0ee7c2e870d9fe8bdd0,65af56434abd09284145a186,2024-01-23_08h02.48.046,bars,2023.2.3,Win32,60.20832079,657b66ea316d21385b68909f,,,,,,,,,,,1803.4597,1804.4588,,,1804.9583,1805.208,,143,143,,,,,,,,,,,,,,,,bars/012.png,bars/mask003.png,,,,,,,,,,,,0,2,,,,,,,3,2,3,3,,,,,,,,,,,1804.459,1804.9582,1805.208,1806.1757,space,0.9506,,1806.1758,53,52,1807.1743,1807.1743,1807.1747,,,,0,6,6,6,1,90,15,,,,,,,,
,,6138c0ee7c2e870d9fe8bdd0,65af56434abd09284145a186,2024-01-23_08h02.48.046,bars,2023.2.3,Win32,60.20832079,657b66ea316d21385b68909f,,,,,,,,,,,1807.1749,1808.1745,,,1808.6742,1808.9243,,101,101,,,,,,,,,,,,,,,,bars/014.png,bars/mask006.png,,,,,,,,,,,,1,1,,,,,,,1,4,2,3,,,,,,,,,,,1808.1746,1808.6742,1808.9243,1809.5084,space,0.5674,,1809.5086,21,79,1810.5069,1810.5069,1810.508,,,,0,7,7,7,1,80,0,,,,,,,,
,,6138c0ee7c2e870d9fe8bdd0,65af56434abd09284145a186,2024-01-23_08h02.48.046,bars,2023.2.3,Win32,60.20832079,657b66ea316d21385b68909f,,,,,,,,,,,1810.5082,1811.508,,,1812.0074,1812.2583,,168,168,,,,,,,,,,,,,,,,bars/035.png,bars/mask000.png,,,,,,,,,,,,0,1,,,,,,,0,2,0,3,,,,,,,,,,,1811.508,1812.0074,1812.2583,1812.7571,space,0.4837,,1812.7571,7,72,1813.757,1813.757,1813.7577,,,,0,8,8,8,1,175,60,,,,,,,,
,,6138c0ee7c2e870d9fe8bdd0,65af56434abd09284145a186,2024-01-23_08h02.48.046,bars,2023.2.3,Win32,60.20832079,657b66ea316d21385b68909f,,,,,,,,,,,1813.7581,1814.7572,,,1815.2571,1815.5068,,44,44,,,,,,,,,,,,,,,,bars/021.png,bars/mask000.png,,,,,,,,,,,,1,2,,,,,,,0,4,0,5,,,,,,,,,,,1814.7572,1815.2571,1815.5068,1819.9893,space,4.4657,,1819.9893,69,26,1820.9886,1820.9887,1820.9987,,,,0,9,9,9,1,155,70,,,,,,,,
,,6138c0ee7c2e870d9fe8bdd0,65af56434abd09284145a186,2024-01-23_08h02.48.046,bars,2023.2.3,Win32,60.20832079,657b66ea316d21385b68909f,,,,,,,,,,,1820.999,1822.0026,,,1822.4994,1822.7497,,108,108,,,,,,,,,,,,,,,,bars/001.png,bars/mask001.png,,,,,,,,,,,,0,1,,,,,,,0,6,0,6,,,,,,,,,,,1822.0028,1822.4991,1822.7498,1823.2181,space,0.4516,,1823.2186,22,23,1824.2169,1824.2172,1824.2208,,,,0,10,10,10,1,130,85,,,,,,,,
,,6138c0ee7c2e870d9fe8bdd0,65af56434abd09284145a186,2024-01-23_08h02.48.046,bars,2023.2.3,Win32,60.20832079,657b66ea316d21385b68909f,,,,,,,,,,,1824.2212,1825.2169,,,1825.7057,1825.9494,,40,40,,,,,,,,,,,,,,,,bars/018.png,bars/mask006.png,,,,,,,,,,,,0,2,,,,,,,2,8,2,8,,,,,,,,,,,1825.217,1825.7057,1825.9496,1826.6507,space,0.6837,,1826.6508,70,50,1827.6484,1827.6487,1827.6534,,,,0,11,11,11,1,150,90,,,,,,,,
