init_variables.started,init_variables.stopped,participant,session,date,expName,psychopyVersion,OS,frameRate,study_id,instruction_exp.started,instruction_exp.stopped,key_resp_8.keys,key_resp_8.rt,key_resp_8.duration,instruction_single.started,instruction_single.stopped,key_resp_2.keys,key_resp_2.rt,key_resp_2.duration,interval.started,interval.stopped,cue_single.started,cue_single.stopped,mask.started,mask.stopped,ori_response_single.started,res_ori,res,ori_response_single.stopped,key_resp_single.keys,key_resp_single.rt,key_resp_single.duration,disp_single.started,disp_single.stopped,key_resp.keys,key_resp.rt,key_resp.duration,single.thisRepN,single.thisTrialN,single.thisN,single.thisIndex,single.ran,ori,path,mask_path,instruction_bandit.started,instruction_bandit.stopped,key_resp_6.keys,key_resp_6.rt,key_resp_6.duration,cue_bandit.started,cue_bandit.stopped,bandit_res.keys,bandit_res.rt,bandit_res.duration,outcome_bandit.started,rew,action,outcome_bandit.stopped,bandit.thisRepN,bandit.thisTrialN,bandit.thisN,bandit.thisIndex,bandit.ran,actual_rew1,actual_rew2,rew1,rew2,instruction_task.started,instruction_task.stopped,key_resp_7.keys,key_resp_7.rt,key_resp_7.duration,wait_ready.started,wait_ready.stopped,key_resp_3.keys,key_resp_3.rt,key_resp_3.duration,cue.started,cue.stopped,ori_response.started,ori_response.stopped,key_resp_5.keys,key_resp_5.rt,key_resp_5.duration,outcome.started,diff1,diff2,outcome.stopped,disp_outcome_practice.started,disp_outcome_practice.stopped,key_resp_4.keys,key_resp_4.rt,key_resp_4.duration,trials.thisRepN,trials.thisTrialN,trials.thisN,trials.thisIndex,trials.ran,ori1,ori2,break_blk.started,break_blk.stopped,block.thisRepN,block.thisTrialN,block.thisN,block.thisIndex,block.ran,condition_file
0.0011,0.0014,6152c05b866a2622004014a5,65af5417928510ff1336ce20,2024-01-23_07h58.35.888,bars,2023.2.3,Win32,59.88023952,657b66ea316d21385b68909f,,,,,,,,,,,,,,,,,,,,,,,,,,,,,,,,,,,,,,,,,,,,,,,,,,,,,,,,,,,,,,,,,,,,,,,,,,,,,,,,,,,,,,,,,,,,,,,,,,,,
,,6152c05b866a2622004014a5,65af5417928510ff1336ce20,2024-01-23_07h58.35.888,bars,2023.2.3,Win32,59.88023952,657b66ea316d21385b68909f,0.0017,30.3208,y,30.2774,,,,,,,,,,,,,,,,,,,,,,,,,,,,,,,,,,,,,,,,,,,,,,,,,,,,,,,,,,,,,,,,,,,,,,,,,,,,,,,,,,,,,,,,,,,,,,,,
,,6152c05b866a2622004014a5,65af5417928510ff1336ce20,2024-01-23_07h58.35.888,bars,2023.2.3,Win32,59.88023952,657b66ea316d21385b68909f,,,,,,30.3211,113.6171,space,83.251,,,,,,,,,,,,,,,,,,,,,,,,,,,,,,,,,,,,,,,,,,,,,,,,,,,,,,,,,,,,,,,,,,,,,,,,,,,,,,,,,,,,,,,,,,,
,,6152c05b866a2622004014a5,65af5417928510ff1336ce20,2024-01-23_07h58.35.888,bars,2023.2.3,Win32,59.88023952,657b66ea316d21385b68909f,,,,,,,,,,,113.6352,114.6269,114.6271,115.1176,115.1184,115.3585,115.3591,56,56,133.9755,space,18.5497,,133.9758,178.4909,space,44.4495,,0,0,0,5,1,55,bars/single005.png,bars/mask008.png,,,,,,,,,,,,,,,,,,,,,,,,,,,,,,,,,,,,,,,,,,,,,,,,,,,,,,,,,,,,,,,,
,,6152c05b866a2622004014a5,65af5417928510ff1336ce20,2024-01-23_07h58.35.888,bars,2023.2.3,Win32,59.88023952,657b66ea316d21385b68909f,,,,,,,,,,,178.5084,179.4956,179.4959,179.9488,179.9489,180.1958,180.1958,140,140,183.938,space,3.7305,,183.9382,214.4653,space,30.4926,,0,1,1,0,1,150,bars/single000.png,bars/mask006.png,,,,,,,,,,,,,,,,,,,,,,,,,,,,,,,,,,,,,,,,,,,,,,,,,,,,,,,,,,,,,,,,
,,6152c05b866a2622004014a5,65af5417928510ff1336ce20,2024-01-23_07h58.35.888,bars,2023.2.3,Win32,59.88023952,657b66ea316d21385b68909f,,,,,,,,,,,214.4827,215.4713,215.4716,215.9721,215.9722,216.2131,216.2133,1,1,223.2199,space,6.9884,,223.2201,236.9279,space,13.67,,0,2,2,3,1,20,bars/single003.png,bars/mask005.png,,,,,,,,,,,,,,,,,,,,,,,,,,,,,,,,,,,,,,,,,,,,,,,,,,,,,,,,,,,,,,,,
,,6152c05b866a2622004014a5,65af5417928510ff1336ce20,2024-01-23_07h58.35.888,bars,2023.2.3,Win32,59.88023952,657b66ea316d21385b68909f,,,,,,,,,,,236.944,237.9337,237.9338,238.4425,238.4427,238.6839,238.684,27,207,245.1924,space,6.4964,,245.193,250.7982,space,5.5681,,0,3,3,7,1,45,bars/single007.png,bars/mask009.png,,,,,,,,,,,,,,,,,,,,,,,,,,,,,,,,,,,,,,,,,,,,,,,,,,,,,,,,,,,,,,,,
,,6152c05b866a2622004014a5,65af5417928510ff1336ce20,2024-01-23_07h58.35.888,bars,2023.2.3,Win32,59.88023952,657b66ea316d21385b68909f,,,,,,,,,,,250.8141,251.7984,251.7984,252.2904,252.2905,252.5394,252.5395,178,178,255.9636,space,3.4041,,255.9637,291.5818,space,35.5868,,0,4,4,6,1,175,bars/single006.png,bars/mask005.png,,,,,,,,,,,,,,,,,,,,,,,,,,,,,,,,,,,,,,,,,,,,,,,,,,,,,,,,,,,,,,,,
,,6152c05b866a2622004014a5,65af5417928510ff1336ce20,2024-01-23_07h58.35.888,bars,2023.2.3,Win32,59.88023952,657b66ea316d21385b68909f,,,,,,,,,,,291.5997,292.5897,292.5898,293.0815,293.0815,293.3317,293.3319,99,99,300.3482,space,7.0004,,300.3486,306.0918,space,5.7067,,0,5,5,9,1,20,bars/single009.png,bars/mask006.png,,,,,,,,,,,,,,,,,,,,,,,,,,,,,,,,,,,,,,,,,,,,,,,,,,,,,,,,,,,,,,,,
,,6152c05b866a2622004014a5,65af5417928510ff1336ce20,2024-01-23_07h58.35.888,bars,2023.2.3,Win32,59.88023952,657b66ea316d21385b68909f,,,,,,,,,,,306.1168,307.0963,307.0963,307.5869,307.5871,307.8395,307.8396,69,69,312.9633,space,5.1143,,312.9635,322.5948,space,9.5927,,0,6,6,4,1,95,bars/single004.png,bars/mask004.png,,,,,,,,,,,,,,,,,,,,,,,,,,,,,,,,,,,,,,,,,,,,,,,,,,,,,,,,,,,,,,,,
,,6152c05b866a2622004014a5,65af5417928510ff1336ce20,2024-01-23_07h58.35.888,bars,2023.2.3,Win32,59.88023952,657b66ea316d21385b68909f,,,,,,,,,,,322.6111,323.6004,323.6005,324.0921,324.0923,324.3422,324.3423,24,204,329.3765,space,5.0174,,329.3766,333.6487,space,4.2382,,0,7,7,1,1,20,bars/single001.png,bars/mask006.png,,,,,,,,,,,,,,,,,,,,,,,,,,,,,,,,,,,,,,,,,,,,,,,,,,,,,,,,,,,,,,,,
,,6152c05b866a2622004014a5,65af5417928510ff1336ce20,2024-01-23_07h58.35.888,bars,2023.2.3,Win32,59.88023952,657b66ea316d21385b68909f,,,,,,,,,,,333.6658,334.6553,334.6554,335.1479,335.1479,335.39,335.3902,151,151,338.4757,space,3.068,,338.4758,343.9508,space,5.4526,,0,8,8,2,1,145,bars/single002.png,bars/mask003.png,,,,,,,,,,,,,,,,,,,,,,,,,,,,,,,,,,,,,,,,,,,,,,,,,,,,,,,,,,,,,,,,
,,6152c05b866a2622004014a5,65af5417928510ff1336ce20,2024-01-23_07h58.35.888,bars,2023.2.3,Win32,59.88023952,657b66ea316d21385b68909f,,,,,,,,,,,343.9659,344.9533,344.9533,345.4461,345.4462,345.696,345.6961,145,145,352.2549,space,6.5464,,352.2554,375.9401,space,23.6522,,0,9,9,8,1,160,bars/single008.png,bars/mask004.png,,,,,,,,,,,,,,,,,,,,,,,,,,,,,,,,,,,,,,,,,,,,,,,,,,,,,,,,,,,,,,,,
,,6152c05b866a2622004014a5,65af5417928510ff1336ce20,2024-01-23_07h58.35.888,bars,2023.2.3,Win32,59.88023952,657b66ea316d21385b68909f,,,,,,,,,,,,,,,,,,,,,,,,,,,,,,,,,,,,,375.9592,417.1006,space,41.1027,,,,,,,,,,,,,,,,,,,,,,,,,,,,,,,,,,,,,,,,,,,,,,,,,,,,,,,,,,,,
,,6152c05b866a2622004014a5,65af5417928510ff1336ce20,2024-01-23_07h58.35.888,bars,2023.2.3,Win32,59.88023952,657b66ea316d21385b68909f,,,,,,,,,,,,,,,,,,,,,,,,,,,,,,,,,,,,,,,,,,417.1258,420.7933,left,3.6244,,420.7938,9,1,421.7984,0,0,0,0,1,9,1,9,2,,,,,,,,,,,,,,,,,,,,,,,,,,,,,,,,,,,,,,,,,
,,6152c05b866a2622004014a5,65af5417928510ff1336ce20,2024-01-23_07h58.35.888,bars,2023.2.3,Win32,59.88023952,657b66ea316d21385b68909f,,,,,,,,,,,,,,,,,,,,,,,,,,,,,,,,,,,,,,,,,,421.8004,422.8323,right,1.0197,,422.8324,1,2,423.834,0,1,1,1,1,10,0,10,1,,,,,,,,,,,,,,,,,,,,,,,,,,,,,,,,,,,,,,,,,
,,6152c05b866a2622004014a5,65af5417928510ff1336ce20,2024-01-23_07h58.35.888,bars,2023.2.3,Win32,59.88023952,657b66ea316d21385b68909f,,,,,,,,,,,,,,,,,,,,,,,,,,,,,,,,,,,,,,,,,,423.835,424.4239,left,0.5796,,424.4241,10,1,425.4223,0,2,2,2,1,10,2,10,2,,,,,,,,,,,,,,,,,,,,,,,,,,,,,,,,,,,,,,,,,
,,6152c05b866a2622004014a5,65af5417928510ff1336ce20,2024-01-23_07h58.35.888,bars,2023.2.3,Win32,59.88023952,657b66ea316d21385b68909f,,,,,,,,,,,,,,,,,,,,,,,,,,,,,,,,,,,,,,,,,,425.4241,425.8736,left,0.435,,425.8736,7,1,426.8639,0,3,3,3,1,8,4,7,3,,,,,,,,,,,,,,,,,,,,,,,,,,,,,,,,,,,,,,,,,
,,6152c05b866a2622004014a5,65af5417928510ff1336ce20,2024-01-23_07h58.35.888,bars,2023.2.3,Win32,59.88023952,657b66ea316d21385b68909f,,,,,,,,,,,,,,,,,,,,,,,,,,,,,,,,,,,,,,,,,,426.8659,427.2808,left,0.4006,,427.2811,5,1,428.2801,0,4,4,4,1,6,2,5,1,,,,,,,,,,,,,,,,,,,,,,,,,,,,,,,,,,,,,,,,,
,,6152c05b866a2622004014a5,65af5417928510ff1336ce20,2024-01-23_07h58.35.888,bars,2023.2.3,Win32,59.88023952,657b66ea316d21385b68909f,,,,,,,,,,,,,,,,,,,,,,,,,,,,,,,,,,,,,,,,,,428.2823,429.0636,left,0.7689,,429.0637,4,1,430.072,0,5,5,5,1,4,4,4,4,,,,,,,,,,,,,,,,,,,,,,,,,,,,,,,,,,,,,,,,,
,,6152c05b866a2622004014a5,65af5417928510ff1336ce20,2024-01-23_07h58.35.888,bars,2023.2.3,Win32,59.88023952,657b66ea316d21385b68909f,,,,,,,,,,,,,,,,,,,,,,,,,,,,,,,,,,,,,,,,,,430.0735,430.5393,right,0.4518,,430.5393,2,2,431.5379,0,6,6,6,1,2,2,1,2,,,,,,,,,,,,,,,,,,,,,,,,,,,,,,,,,,,,,,,,,
,,6152c05b866a2622004014a5,65af5417928510ff1336ce20,2024-01-23_07h58.35.888,bars,2023.2.3,Win32,59.88023952,657b66ea316d21385b68909f,,,,,,,,,,,,,,,,,,,,,,,,,,,,,,,,,,,,,,,,,,431.54,431.9725,left,0.4186,,431.9726,0,1,432.9624,0,7,7,7,1,0,0,0,1,,,,,,,,,,,,,,,,,,,,,,,,,,,,,,,,,,,,,,,,,
,,6152c05b866a2622004014a5,65af5417928510ff1336ce20,2024-01-23_07h58.35.888,bars,2023.2.3,Win32,59.88023952,657b66ea316d21385b68909f,,,,,,,,,,,,,,,,,,,,,,,,,,,,,,,,,,,,,,,,,,432.9646,433.4027,right,0.4272,,433.4029,0,2,434.404,0,8,8,8,1,0,2,1,0,,,,,,,,,,,,,,,,,,,,,,,,,,,,,,,,,,,,,,,,,
,,6152c05b866a2622004014a5,65af5417928510ff1336ce20,2024-01-23_07h58.35.888,bars,2023.2.3,Win32,59.88023952,657b66ea316d21385b68909f,,,,,,,,,,,,,,,,,,,,,,,,,,,,,,,,,,,,,,,,,,434.4061,434.7552,left,0.3351,,434.7553,2,1,435.7472,0,9,9,9,1,2,4,2,3,,,,,,,,,,,,,,,,,,,,,,,,,,,,,,,,,,,,,,,,,
,,6152c05b866a2622004014a5,65af5417928510ff1336ce20,2024-01-23_07h58.35.888,bars,2023.2.3,Win32,59.88023952,657b66ea316d21385b68909f,,,,,,,,,,,,,,,,,,,,,,,,,,,,,,,,,,,,,,,,,,435.7479,436.0477,left,0.2835,,436.0479,0,1,437.0467,0,10,10,10,1,0,2,0,3,,,,,,,,,,,,,,,,,,,,,,,,,,,,,,,,,,,,,,,,,
,,6152c05b866a2622004014a5,65af5417928510ff1336ce20,2024-01-23_07h58.35.888,bars,2023.2.3,Win32,59.88023952,657b66ea316d21385b68909f,,,,,,,,,,,,,,,,,,,,,,,,,,,,,,,,,,,,,,,,,,437.0476,437.4639,left,0.4011,,437.464,0,1,438.463,0,11,11,11,1,0,4,0,3,,,,,,,,,,,,,,,,,,,,,,,,,,,,,,,,,,,,,,,,,
,,6152c05b866a2622004014a5,65af5417928510ff1336ce20,2024-01-23_07h58.35.888,bars,2023.2.3,Win32,59.88023952,657b66ea316d21385b68909f,,,,,,,,,,,,,,,,,,,,,,,,,,,,,,,,,,,,,,,,,,438.4638,438.8971,right,0.4192,,438.8973,6,2,439.9029,0,12,12,12,1,2,6,1,6,,,,,,,,,,,,,,,,,,,,,,,,,,,,,,,,,,,,,,,,,
,,6152c05b866a2622004014a5,65af5417928510ff1336ce20,2024-01-23_07h58.35.888,bars,2023.2.3,Win32,59.88023952,657b66ea316d21385b68909f,,,,,,,,,,,,,,,,,,,,,,,,,,,,,,,,,,,,,,,,,,439.9047,440.2375,right,0.3184,,440.2376,3,2,441.2361,0,13,13,13,1,0,4,1,3,,,,,,,,,,,,,,,,,,,,,,,,,,,,,,,,,,,,,,,,,
,,6152c05b866a2622004014a5,65af5417928510ff1336ce20,2024-01-23_07h58.35.888,bars,2023.2.3,Win32,59.88023952,657b66ea316d21385b68909f,,,,,,,,,,,,,,,,,,,,,,,,,,,,,,,,,,,,,,,,,,441.2384,441.6066,left,0.3548,,441.6067,2,1,442.6027,0,14,14,14,1,2,6,2,7,,,,,,,,,,,,,,,,,,,,,,,,,,,,,,,,,,,,,,,,,
,,6152c05b866a2622004014a5,65af5417928510ff1336ce20,2024-01-23_07h58.35.888,bars,2023.2.3,Win32,59.88023952,657b66ea316d21385b68909f,,,,,,,,,,,,,,,,,,,,,,,,,,,,,,,,,,,,,,,,,,442.6048,442.8726,right,0.2541,,442.8726,9,2,443.8624,0,15,15,15,1,4,8,3,9,,,,,,,,,,,,,,,,,,,,,,,,,,,,,,,,,,,,,,,,,
,,6152c05b866a2622004014a5,65af5417928510ff1336ce20,2024-01-23_07h58.35.888,bars,2023.2.3,Win32,59.88023952,657b66ea316d21385b68909f,,,,,,,,,,,,,,,,,,,,,,,,,,,,,,,,,,,,,,,,,,443.8632,444.2459,left,0.3695,,444.246,7,1,445.2354,0,16,16,16,1,6,6,7,7,,,,,,,,,,,,,,,,,,,,,,,,,,,,,,,,,,,,,,,,,
,,6152c05b866a2622004014a5,65af5417928510ff1336ce20,2024-01-23_07h58.35.888,bars,2023.2.3,Win32,59.88023952,657b66ea316d21385b68909f,,,,,,,,,,,,,,,,,,,,,,,,,,,,,,,,,,,,,,,,,,445.2375,445.5697,right,0.3184,,445.5698,5,2,446.5682,0,17,17,17,1,8,4,9,5,,,,,,,,,,,,,,,,,,,,,,,,,,,,,,,,,,,,,,,,,
,,6152c05b866a2622004014a5,65af5417928510ff1336ce20,2024-01-23_07h58.35.888,bars,2023.2.3,Win32,59.88023952,657b66ea316d21385b68909f,,,,,,,,,,,,,,,,,,,,,,,,,,,,,,,,,,,,,,,,,,446.5699,446.9029,left,0.3185,,446.903,5,1,447.9013,0,18,18,18,1,6,2,5,1,,,,,,,,,,,,,,,,,,,,,,,,,,,,,,,,,,,,,,,,,
,,6152c05b866a2622004014a5,65af5417928510ff1336ce20,2024-01-23_07h58.35.888,bars,2023.2.3,Win32,59.88023952,657b66ea316d21385b68909f,,,,,,,,,,,,,,,,,,,,,,,,,,,,,,,,,,,,,,,,,,447.903,448.2029,right,0.2853,,448.2029,0,2,449.1926,0,19,19,19,1,8,0,7,0,,,,,,,,,,,,,,,,,,,,,,,,,,,,,,,,,,,,,,,,,
,,6152c05b866a2622004014a5,65af5417928510ff1336ce20,2024-01-23_07h58.35.888,bars,2023.2.3,Win32,59.88023952,657b66ea316d21385b68909f,,,,,,,,,,,,,,,,,,,,,,,,,,,,,,,,,,,,,,,,,,,,,,,,,,,,,,,,,,,,449.1955,486.2482,space,37.0269,,,,,,,,,,,,,,,,,,,,,,,,,,,,,,,,,,,,,
,,6152c05b866a2622004014a5,65af5417928510ff1336ce20,2024-01-23_07h58.35.888,bars,2023.2.3,Win32,59.88023952,657b66ea316d21385b68909f,,,,,,,,,,,488.2484,489.2513,,,489.7526,489.9932,,156,156,,,,,,,,,,,,,,,,bars/018.png,bars/mask001.png,,,,,,,,,,,,6,1,,,,,,,7,5,7,6,,,,,,486.274,488.2392,space,1.8929,,489.252,489.7522,489.994,496.552,space,6.5206,,496.553,6,66,497.5503,497.5511,508.5329,space,10.9091,,0,0,0,0,1,150,90,,,,,,,,
,,6152c05b866a2622004014a5,65af5417928510ff1336ce20,2024-01-23_07h58.35.888,bars,2023.2.3,Win32,59.88023952,657b66ea316d21385b68909f,,,,,,,,,,,508.5501,509.5399,,,510.0401,510.2877,,5,185,,,,,,,,,,,,,,,,bars/010.png,bars/mask009.png,,,,,,,,,,,,2,1,,,,,,,5,7,5,7,,,,,,,,,,,509.54,510.0399,510.2879,515.998,space,5.687,,515.9983,20,50,516.9893,516.9897,523.3386,space,6.3011,,0,1,1,1,1,165,55,,,,,,,,
,,6152c05b866a2622004014a5,65af5417928510ff1336ce20,2024-01-23_07h58.35.888,bars,2023.2.3,Win32,59.88023952,657b66ea316d21385b68909f,,,,,,,,,,,523.3538,524.3445,,,524.8466,525.0943,,129,129,,,,,,,,,,,,,,,,bars/034.png,bars/mask002.png,,,,,,,,,,,,3,1,,,,,,,3,5,4,4,,,,,,,,,,,524.3445,524.8464,525.0944,528.9604,space,3.8515,,528.9607,4,64,529.96,529.9601,533.2266,space,3.2297,,0,2,2,2,1,125,65,,,,,,,,
,,6152c05b866a2622004014a5,65af5417928510ff1336ce20,2024-01-23_07h58.35.888,bars,2023.2.3,Win32,59.88023952,657b66ea316d21385b68909f,,,,,,,,,,,533.2424,534.2425,,,534.7368,534.9791,,146,-34,,,,,,,,,,,,,,,,bars/040.png,bars/mask003.png,,,,,,,,,,,,2,1,,,,,,,1,3,2,3,,,,,,,,,,,534.2426,534.7367,534.9793,542.9743,space,7.9762,,542.9745,6,39,543.9739,543.974,547.2735,space,3.2623,,0,3,3,3,1,140,5,,,,,,,,
,,6152c05b866a2622004014a5,65af5417928510ff1336ce20,2024-01-23_07h58.35.888,bars,2023.2.3,Win32,59.88023952,657b66ea316d21385b68909f,,,,,,,,,,,547.2903,548.2896,,,548.7823,549.0318,,45,45,,,,,,,,,,,,,,,,bars/029.png,bars/mask002.png,,,,,,,,,,,,6,2,,,,,,,3,5,2,6,,,,,,,,,,,548.2897,548.782,549.0321,555.2768,space,6.2283,,555.2769,45,0,556.28,556.2802,572.9019,space,16.5767,,0,4,4,4,1,90,45,,,,,,,,
,,6152c05b866a2622004014a5,65af5417928510ff1336ce20,2024-01-23_07h58.35.888,bars,2023.2.3,Win32,59.88023952,657b66ea316d21385b68909f,,,,,,,,,,,572.9202,573.9098,,,574.4017,574.6511,,149,149,,,,,,,,,,,,,,,,bars/030.png,bars/mask005.png,,,,,,,,,,,,2,1,,,,,,,1,3,3,2,,,,,,,,,,,573.9098,574.4015,574.6512,581.6169,space,6.9503,,581.6171,9,84,582.6164,582.6166,602.2406,space,19.579,,0,5,5,5,1,140,65,,,,,,,,
,,6152c05b866a2622004014a5,65af5417928510ff1336ce20,2024-01-23_07h58.35.888,bars,2023.2.3,Win32,59.88023952,657b66ea316d21385b68909f,,,,,,,,,,,602.2626,603.2558,,,603.755,603.9976,,10,190,,,,,,,,,,,,,,,,bars/010.png,bars/mask008.png,,,,,,,,,,,,0,1,,,,,,,3,1,2,1,,,,,,,,,,,603.2559,603.7547,603.9977,610.4901,space,6.4826,,610.4902,25,45,611.4865,611.4865,613.6605,space,2.1254,,0,6,6,6,1,165,55,,,,,,,,
,,6152c05b866a2622004014a5,65af5417928510ff1336ce20,2024-01-23_07h58.35.888,bars,2023.2.3,Win32,59.88023952,657b66ea316d21385b68909f,,,,,,,,,,,613.6628,614.6521,,,615.1436,615.3859,,34,34,,,,,,,,,,,,,,,,bars/022.png,bars/mask007.png,,,,,,,,,,,,0,2,,,,,,,5,0,6,0,,,,,,,,,,,614.6524,615.1434,615.3862,622.3255,space,6.9193,,622.3256,61,14,623.3251,623.3253,626.2367,space,2.8605,,0,7,7,7,1,95,20,,,,,,,,
,,6152c05b866a2622004014a5,65af5417928510ff1336ce20,2024-01-23_07h58.35.888,bars,2023.2.3,Win32,59.88023952,657b66ea316d21385b68909f,,,,,,,,,,,626.2371,627.2345,,,627.7333,627.9829,,12,12,,,,,,,,,,,,,,,,bars/035.png,bars/mask001.png,,,,,,,,,,,,3,1,,,,,,,7,0,7,0,,,,,,,,,,,627.2346,627.7331,627.9829,638.0226,space,10.0203,,638.0228,17,48,639.022,639.0221,641.2579,space,2.1883,,0,8,8,8,1,175,60,,,,,,,,
,,6152c05b866a2622004014a5,65af5417928510ff1336ce20,2024-01-23_07h58.35.888,bars,2023.2.3,Win32,59.88023952,657b66ea316d21385b68909f,,,,,,,,,,,641.2588,642.255,,,642.7548,643.0047,,144,144,,,,,,,,,,,,,,,,bars/005.png,bars/mask004.png,,,,,,,,,,,,1,2,,,,,,,9,0,9,1,,,,,,,,,,,642.2552,642.7546,643.0048,648.4704,space,5.4499,,648.4706,46,4,649.4619,649.462,653.5858,space,4.0799,,0,9,9,9,1,10,140,,,,,,,,
,,6152c05b866a2622004014a5,65af5417928510ff1336ce20,2024-01-23_07h58.35.888,bars,2023.2.3,Win32,59.88023952,657b66ea316d21385b68909f,,,,,,,,,,,653.6011,654.6022,,,655.0944,655.3454,,142,142,,,,,,,,,,,,,,,,bars/002.png,bars/mask001.png,,,,,,,,,,,,5,1,,,,,,,10,2,9,1,,,,,,,,,,,654.6023,655.0943,655.3458,660.152,space,4.7871,,660.1523,12,57,661.1431,661.1434,663.2175,space,2.0296,,0,10,10,10,1,130,85,,,,,,,,
,,6152c05b866a2622004014a5,65af5417928510ff1336ce20,2024-01-23_07h58.35.888,bars,2023.2.3,Win32,59.88023952,657b66ea316d21385b68909f,,,,,,,,,,,663.2346,664.2344,,,664.7192,664.9688,,39,39,,,,,,,,,,,,,,,,bars/047.png,bars/mask002.png,,,,,,,,,,,,2,1,,,,,,,8,4,8,4,,,,,,,,,,,664.2345,664.7191,664.9689,670.4014,space,5.4168,,670.4015,24,31,671.401,671.4011,673.6154,space,2.1764,,0,11,11,11,1,15,70,,,,,,,,
,,6152c05b866a2622004014a5,65af5417928510ff1336ce20,2024-01-23_07h58.35.888,bars,2023.2.3,Win32,59.88023952,657b66ea316d21385b68909f,,,,,,,,,,,673.6176,674.6151,,,675.1071,675.3511,,24,24,,,,,,,,,,,,,,,,bars/003.png,bars/mask006.png,,,,,,,,,,,,6,1,,,,,,,6,6,6,7,,,,,,,,,,,674.6152,675.1071,675.3512,679.2327,space,3.8679,,679.2327,1,64,680.2328,680.2328,691.0503,space,10.783,,0,12,12,12,1,25,140,,,,,,,,
,,6152c05b866a2622004014a5,65af5417928510ff1336ce20,2024-01-23_07h58.35.888,bars,2023.2.3,Win32,59.88023952,657b66ea316d21385b68909f,,,,,,,,,,,691.0662,692.0615,,,692.554,692.8035,,22,202,,,,,,,,,,,,,,,,bars/007.png,bars/mask005.png,,,,,,,,,,,,1,1,,,,,,,8,8,8,9,,,,,,,,,,,692.0615,692.5538,692.8035,699.5287,space,6.7043,,699.5288,27,33,700.5288,700.5289,701.793,space,1.2264,,0,13,13,13,1,175,55,,,,,,,,
,,6152c05b866a2622004014a5,65af5417928510ff1336ce20,2024-01-23_07h58.35.888,bars,2023.2.3,Win32,59.88023952,657b66ea316d21385b68909f,,,,,,,,,,,701.7952,702.7928,,,703.2848,703.5342,,167,167,,,,,,,,,,,,,,,,bars/045.png,bars/mask005.png,,,,,,,,,,,,1,2,,,,,,,10,6,9,6,,,,,,,,,,,702.793,703.2847,703.5343,705.4856,space,1.9347,,705.4857,67,23,706.4842,706.4843,708.2968,space,1.7794,,0,14,14,14,1,100,10,,,,,,,,
,,6152c05b866a2622004014a5,65af5417928510ff1336ce20,2024-01-23_07h58.35.888,bars,2023.2.3,Win32,59.88023952,657b66ea316d21385b68909f,,,,,,,,,,,708.298,709.2916,,,709.7829,710.0328,,67,67,,,,,,,,,,,,,,,,bars/027.png,bars/mask002.png,,,,,,,,,,,,1,2,,,,,,,10,4,10,3,,,,,,,,,,,709.2917,709.7829,710.0329,715.5002,space,5.4509,,715.5005,43,17,716.4988,716.4991,722.2277,space,5.6942,,0,15,15,15,1,110,50,,,,,,,,
,,6152c05b866a2622004014a5,65af5417928510ff1336ce20,2024-01-23_07h58.35.888,bars,2023.2.3,Win32,59.88023952,657b66ea316d21385b68909f,,,,,,,,,,,722.2438,723.2309,,,723.7307,723.9723,,23,203,,,,,,,,,,,,,,,,bars/047.png,bars/mask000.png,,,,,,,,,,,,7,1,,,,,,,10,6,10,5,,,,,,,,,,,723.231,723.7307,723.9724,729.138,space,5.1496,,729.1383,8,47,730.1294,730.1295,795.1915,space,65.0142,,0,16,16,16,1,15,70,,,,,,,,
,,6152c05b866a2622004014a5,65af5417928510ff1336ce20,2024-01-23_07h58.35.888,bars,2023.2.3,Win32,59.88023952,657b66ea316d21385b68909f,,,,,,,,,,,795.2124,796.1945,,,796.6831,796.9329,,19,199,,,,,,,,,,,,,,,,bars/010.png,bars/mask002.png,,,,,,,,,,,,0,1,,,,,,,10,4,10,5,,,,,,,,,,,796.1946,796.6829,796.933,800.1667,space,3.2175,,800.1671,34,36,801.1573,801.1574,802.2405,space,1.0409,,0,17,17,17,1,165,55,,,,,,,,
,,6152c05b866a2622004014a5,65af5417928510ff1336ce20,2024-01-23_07h58.35.888,bars,2023.2.3,Win32,59.88023952,657b66ea316d21385b68909f,,,,,,,,,,,802.2424,803.2399,,,803.7404,803.9826,,62,62,,,,,,,,,,,,,,,,bars/013.png,bars/mask004.png,,,,,,,,,,,,6,1,,,,,,,10,6,10,7,,,,,,,,,,,803.24,803.7403,803.9826,808.4055,space,4.4039,,808.4058,13,52,809.4053,809.4055,814.7725,space,5.3321,,0,18,18,18,1,75,10,,,,,,,,
,,6152c05b866a2622004014a5,65af5417928510ff1336ce20,2024-01-23_07h58.35.888,bars,2023.2.3,Win32,59.88023952,657b66ea316d21385b68909f,,,,,,,,,,,814.7892,815.7726,,,816.2728,816.523,,7,7,,,,,,,,,,,,,,,,bars/005.png,bars/mask000.png,,,,,,,,,,,,9,1,,,,,,,10,8,10,9,,,,,,,,,,,815.7728,816.2727,816.5231,822.005,space,5.4653,,822.0051,3,47,823.0048,823.0048,825.769,space,2.7294,,0,19,19,19,1,10,140,,,,,,,,
,,6152c05b866a2622004014a5,65af5417928510ff1336ce20,2024-01-23_07h58.35.888,bars,2023.2.3,Win32,59.88023952,657b66ea316d21385b68909f,,,,,,,,,,,825.7851,826.7857,,,827.2776,827.5189,,6,6,,,,,,,,,,,,,,,,bars/006.png,bars/mask004.png,,,,,,,,,,,,0,1,,,,,,,8,10,6,9,,,,,,,,,,,826.7857,827.2774,827.5192,832.7843,space,5.25,,832.7846,29,86,833.7839,833.7841,843.8763,space,10.0581,,0,20,20,20,1,35,100,,,,,,,,
,,6152c05b866a2622004014a5,65af5417928510ff1336ce20,2024-01-23_07h58.35.888,bars,2023.2.3,Win32,59.88023952,657b66ea316d21385b68909f,,,,,,,,,,,843.8929,844.8817,,,845.3827,845.6318,,29,29,,,,,,,,,,,,,,,,bars/006.png,bars/mask003.png,,,,,,,,,,,,5,1,,,,,,,6,10,6,9,,,,,,,,,,,844.8818,845.3826,845.632,862.2647,space,16.6196,,862.2649,6,71,863.2634,863.2635,890.608,space,27.3116,,0,21,21,21,1,35,100,,,,,,,,
,,6152c05b866a2622004014a5,65af5417928510ff1336ce20,2024-01-23_07h58.35.888,bars,2023.2.3,Win32,59.88023952,657b66ea316d21385b68909f,,,,,,,,,,,890.6273,891.6246,,,892.1085,892.3578,,152,-28,,,,,,,,,,,,,,,,bars/038.png,bars/mask005.png,,,,,,,,,,,,2,1,,,,,,,4,8,3,9,,,,,,,,,,,891.6247,892.1084,892.358,896.5073,space,4.1352,,896.5074,13,82,897.5069,897.5071,899.6982,space,2.1586,,0,22,22,22,1,165,70,,,,,,,,
,,6152c05b866a2622004014a5,65af5417928510ff1336ce20,2024-01-23_07h58.35.888,bars,2023.2.3,Win32,59.88023952,657b66ea316d21385b68909f,,,,,,,,,,,899.6993,900.6962,,,901.1963,901.4462,,105,105,,,,,,,,,,,,,,,,bars/029.png,bars/mask000.png,,,,,,,,,,,,3,1,,,,,,,6,10,5,10,,,,,,,,,,,900.6962,901.1963,901.4463,905.7372,space,4.2708,,905.7372,15,60,906.7377,906.7378,911.4021,space,4.6262,,0,23,23,23,1,90,45,,,,,,,,
,,6152c05b866a2622004014a5,65af5417928510ff1336ce20,2024-01-23_07h58.35.888,bars,2023.2.3,Win32,59.88023952,657b66ea316d21385b68909f,,,,,,,,,,,911.4183,912.4189,,,912.9095,913.1535,,96,96,,,,,,,,,,,,,,,,bars/012.png,bars/mask009.png,,,,,,,,,,,,6,1,,,,,,,8,10,8,10,,,,,,,,,,,912.4189,912.9095,913.1535,918.2531,space,5.0847,,918.2532,6,81,919.2527,919.2528,921.5171,space,2.2267,,0,24,24,24,1,90,15,,,,,,,,
,,6152c05b866a2622004014a5,65af5417928510ff1336ce20,2024-01-23_07h58.35.888,bars,2023.2.3,Win32,59.88023952,657b66ea316d21385b68909f,,,,,,,,,,,921.519,922.5172,,,923.0166,923.2664,,138,138,,,,,,,,,,,,,,,,bars/018.png,bars/mask009.png,,,,,,,,,,,,4,1,,,,,,,6,8,7,7,,,,,,,,,,,922.5172,923.0165,923.2665,928.8847,space,5.6019,,928.8848,12,48,929.8738,929.8738,931.0648,space,1.1544,,0,25,25,25,1,150,90,,,,,,,,
,,6152c05b866a2622004014a5,65af5417928510ff1336ce20,2024-01-23_07h58.35.888,bars,2023.2.3,Win32,59.88023952,657b66ea316d21385b68909f,,,,,,,,,,,931.067,932.0685,,,932.5649,932.8147,,50,50,,,,,,,,,,,,,,,,bars/013.png,bars/mask007.png,,,,,,,,,,,,1,1,,,,,,,4,6,4,6,,,,,,,,,,,932.0686,932.5648,932.8148,938.0979,space,5.2714,,938.0983,25,40,939.105,939.1051,940.3233,space,1.1801,,0,26,26,26,1,75,10,,,,,,,,
,,6152c05b866a2622004014a5,65af5417928510ff1336ce20,2024-01-23_07h58.35.888,bars,2023.2.3,Win32,59.88023952,657b66ea316d21385b68909f,,,,,,,,,,,940.3246,941.3215,,,941.8127,942.0628,,117,117,,,,,,,,,,,,,,,,bars/008.png,bars/mask000.png,,,,,,,,,,,,2,1,,,,,,,2,8,3,7,,,,,,,,,,,941.3216,941.8127,942.0629,945.5477,space,3.4734,,945.5478,7,63,946.5381,946.5383,948.3622,space,1.7788,,0,27,27,27,1,110,0,,,,,,,,
,,6152c05b866a2622004014a5,65af5417928510ff1336ce20,2024-01-23_07h58.35.888,bars,2023.2.3,Win32,59.88023952,657b66ea316d21385b68909f,,,,,,,,,,,948.365,949.3615,,,949.8544,950.1039,,125,125,,,,,,,,,,,,,,,,bars/034.png,bars/mask002.png,,,,,,,,,,,,0,1,,,,,,,0,10,0,10,,,,,,,,,,,949.3617,949.8543,950.104,959.3117,space,9.1833,,959.3118,0,60,960.3111,960.3112,995.0026,space,34.6518,,0,28,28,28,1,125,65,,,,,,,,
,,6152c05b866a2622004014a5,65af5417928510ff1336ce20,2024-01-23_07h58.35.888,bars,2023.2.3,Win32,59.88023952,657b66ea316d21385b68909f,,,,,,,,,,,995.0206,996.011,,,996.5027,996.752,,133,133,,,,,,,,,,,,,,,,bars/036.png,bars/mask009.png,,,,,,,,,,,,1,1,,,,,,,0,8,1,9,,,,,,,,,,,996.0113,996.5025,996.752,1002.0347,space,5.2686,,1002.035,12,67,1003.0261,1003.0262,1049.8919,space,46.8312,,0,29,29,29,1,145,20,,,,,,,,
,,6152c05b866a2622004014a5,65af5417928510ff1336ce20,2024-01-23_07h58.35.888,bars,2023.2.3,Win32,59.88023952,657b66ea316d21385b68909f,,,,,,,,,,,1049.9105,1050.9001,,,1051.3915,1051.6413,,168,168,,,,,,,,,,,,,,,,bars/017.png,bars/mask001.png,,,,,,,,,,,,0,1,,,,,,,0,6,0,5,,,,,,,,,,,1050.9002,1051.3915,1051.6414,1055.8404,space,4.1866,,1055.8407,23,57,1056.8324,1056.8326,1058.8337,space,1.9655,,0,30,30,30,1,145,45,,,,,,,,
,,6152c05b866a2622004014a5,65af5417928510ff1336ce20,2024-01-23_07h58.35.888,bars,2023.2.3,Win32,59.88023952,657b66ea316d21385b68909f,,,,,,,,,,,1058.8347,1059.8319,,,1060.3232,1060.573,,154,-26,,,,,,,,,,,,,,,,bars/049.png,bars/mask006.png,,,,,,,,,,,,2,1,,,,,,,2,8,3,9,,,,,,,,,,,1059.832,1060.323,1060.5732,1063.7729,space,3.1857,,1063.7729,6,39,1064.7721,1064.7721,1066.272,space,1.4612,,0,31,31,31,1,160,115,,,,,,,,
,,6152c05b866a2622004014a5,65af5417928510ff1336ce20,2024-01-23_07h58.35.888,bars,2023.2.3,Win32,59.88023952,657b66ea316d21385b68909f,,,,,,,,,,,1066.2741,1067.2717,,,1067.7716,1068.0221,,164,164,,,,,,,,,,,,,,,,bars/045.png,bars/mask009.png,,,,,,,,,,,,1,2,,,,,,,0,10,0,9,,,,,,,,,,,1067.2717,1067.7716,1068.0222,1073.1371,space,5.098,,1073.1373,64,26,1074.1369,1074.137,1079.3528,space,5.1712,,0,32,32,32,1,100,10,,,,,,,,
,,6152c05b866a2622004014a5,65af5417928510ff1336ce20,2024-01-23_07h58.35.888,bars,2023.2.3,Win32,59.88023952,657b66ea316d21385b68909f,,,,,,,,,,,1079.3693,1080.3692,,,1080.8612,1081.1114,,92,92,,,,,,,,,,,,,,,,bars/014.png,bars/mask007.png,,,,,,,,,,,,2,1,,,,,,,2,10,3,10,,,,,,,,,,,1080.3693,1080.8611,1081.1114,1087.5011,space,6.3699,,1087.5012,12,88,1088.5009,1088.5009,1092.8502,space,4.3041,,0,33,33,33,1,80,0,,,,,,,,
,,6152c05b866a2622004014a5,65af5417928510ff1336ce20,2024-01-23_07h58.35.888,bars,2023.2.3,Win32,59.88023952,657b66ea316d21385b68909f,,,,,,,,,,,1092.8666,1093.8586,,,1094.3498,1094.6,,55,55,,,,,,,,,,,,,,,,bars/047.png,bars/mask009.png,,,,,,,,,,,,5,2,,,,,,,0,10,0,10,,,,,,,,,,,1093.8587,1094.3497,1094.6002,1099.0322,space,4.4178,,1099.0323,40,15,1100.0319,1100.032,1103.1147,space,3.0412,,0,34,34,34,1,15,70,,,,,,,,
,,6152c05b866a2622004014a5,65af5417928510ff1336ce20,2024-01-23_07h58.35.888,bars,2023.2.3,Win32,59.88023952,657b66ea316d21385b68909f,,,,,,,,,,,1103.1321,1104.1337,,,1104.6217,1104.873,,143,143,,,,,,,,,,,,,,,,bars/000.png,bars/mask004.png,,,,,,,,,,,,9,2,,,,,,,2,10,2,10,,,,,,,,,,,1104.1339,1104.6216,1104.8731,1110.9653,space,6.0709,,1110.9655,77,2,1111.9659,1111.966,1114.5062,space,2.4977,,0,35,35,35,1,40,145,,,,,,,,
,,6152c05b866a2622004014a5,65af5417928510ff1336ce20,2024-01-23_07h58.35.888,bars,2023.2.3,Win32,59.88023952,657b66ea316d21385b68909f,,,,,,,,,,,1114.5223,1115.5124,,,1116.0129,1116.2621,,35,215,,,,,,,,,,,,,,,,bars/022.png,bars/mask008.png,,,,,,,,,,,,5,2,,,,,,,0,10,0,10,,,,,,,,,,,1115.5125,1116.0128,1116.2622,1123.8106,space,7.5333,,1123.8108,60,15,1124.8105,1124.8105,1176.7173,space,51.8686,,0,36,36,36,1,95,20,,,,,,,,
,,6152c05b866a2622004014a5,65af5417928510ff1336ce20,2024-01-23_07h58.35.888,bars,2023.2.3,Win32,59.88023952,657b66ea316d21385b68909f,,,,,,,,,,,1176.7358,1177.7251,,,1178.2213,1178.4703,,16,196,,,,,,,,,,,,,,,,bars/036.png,bars/mask001.png,,,,,,,,,,,,9,2,,,,,,,0,10,1,10,,,,,,,,,,,1177.7252,1178.2212,1178.4704,1183.9348,space,5.4462,,1183.9348,51,4,1184.9341,1184.9342,1186.9651,space,1.991,,0,37,37,37,1,145,20,,,,,,,,
,,6152c05b866a2622004014a5,65af5417928510ff1336ce20,2024-01-23_07h58.35.888,bars,2023.2.3,Win32,59.88023952,657b66ea316d21385b68909f,,,,,,,,,,,1186.9671,1187.9648,,,1188.4646,1188.7147,,158,158,,,,,,,,,,,,,,,,bars/003.png,bars/mask000.png,,,,,,,,,,,,4,2,,,,,,,2,8,1,9,,,,,,,,,,,1187.9648,1188.4646,1188.7148,1194.0072,space,5.2807,,1194.0073,47,18,1194.9968,1194.9969,1198.2461,space,3.2121,,0,38,38,38,1,25,140,,,,,,,,
,,6152c05b866a2622004014a5,65af5417928510ff1336ce20,2024-01-23_07h58.35.888,bars,2023.2.3,Win32,59.88023952,657b66ea316d21385b68909f,,,,,,,,,,,1198.2486,1199.2458,,,1199.746,1199.996,,157,-23,,,,,,,,,,,,,,,,bars/030.png,bars/mask006.png,,,,,,,,,,,,2,1,,,,,,,4,10,4,10,,,,,,,,,,,1199.2459,1199.7459,1199.996,1203.9132,space,3.905,,1203.9134,17,88,1204.9225,1204.9225,1207.0445,space,2.0797,,0,39,39,39,1,140,65,,,,,,,,
,,6152c05b866a2622004014a5,65af5417928510ff1336ce20,2024-01-23_07h58.35.888,bars,2023.2.3,Win32,59.88023952,657b66ea316d21385b68909f,,,,,,,,,,,1207.0468,1208.0441,,,1208.5364,1208.785,,165,-15,,,,,,,,,,,,,,,,bars/042.png,bars/mask008.png,,,,,,,,,,,,2,1,,,,,,,6,10,6,10,,,,,,,,,,,1208.0442,1208.5362,1208.7851,1212.8934,space,4.0885,,1212.8935,20,90,1213.8932,1213.8932,1225.2241,space,11.2936,,0,40,40,40,1,145,75,,,,,,,,
,,6152c05b866a2622004014a5,65af5417928510ff1336ce20,2024-01-23_07h58.35.888,bars,2023.2.3,Win32,59.88023952,657b66ea316d21385b68909f,,,,,,,,,,,1225.2426,1226.2265,,,1226.7165,1226.9658,,83,83,,,,,,,,,,,,,,,,bars/019.png,bars/mask004.png,,,,,,,,,,,,3,2,,,,,,,8,10,9,10,,,,,,,,,,,1226.2273,1226.7165,1226.9659,1232.2063,space,5.2212,,1232.2065,38,22,1233.2042,1233.2043,1243.1208,space,9.8562,,0,41,41,41,1,45,105,,,,,,,,
,,6152c05b866a2622004014a5,65af5417928510ff1336ce20,2024-01-23_07h58.35.888,bars,2023.2.3,Win32,59.88023952,657b66ea316d21385b68909f,,,,,,,,,,,1243.1396,1244.1225,,,1244.6124,1244.8624,,53,53,,,,,,,,,,,,,,,,bars/031.png,bars/mask008.png,,,,,,,,,,,,4,2,,,,,,,6,10,4,10,,,,,,,,,,,1244.1226,1244.6124,1244.8625,1246.0138,space,1.1346,,1246.014,67,18,1247.003,1247.0031,1248.3695,space,1.3431,,0,42,42,42,1,120,35,,,,,,,,
,,6152c05b866a2622004014a5,65af5417928510ff1336ce20,2024-01-23_07h58.35.888,bars,2023.2.3,Win32,59.88023952,657b66ea316d21385b68909f,,,,,,,,,,,1248.3708,1249.3694,,,1249.8613,1250.1111,,147,147,,,,,,,,,,,,,,,,bars/028.png,bars/mask004.png,,,,,,,,,,,,1,2,,,,,,,8,8,6,8,,,,,,,,,,,1249.3695,1249.8612,1250.1111,1251.179,space,1.0517,,1251.1791,78,27,1252.1689,1252.1689,1253.3687,space,1.1768,,0,43,43,43,1,45,120,,,,,,,,
,,6152c05b866a2622004014a5,65af5417928510ff1336ce20,2024-01-23_07h58.35.888,bars,2023.2.3,Win32,59.88023952,657b66ea316d21385b68909f,,,,,,,,,,,1253.3704,1254.3685,,,1254.8611,1255.1104,,15,15,,,,,,,,,,,,,,,,bars/044.png,bars/mask006.png,,,,,,,,,,,,0,2,,,,,,,6,10,5,9,,,,,,,,,,,1254.3686,1254.8608,1255.1105,1257.5849,space,2.4536,,1257.585,60,40,1258.5843,1258.5844,1259.9174,space,1.2967,,0,44,44,44,1,75,155,,,,,,,,
,,6152c05b866a2622004014a5,65af5417928510ff1336ce20,2024-01-23_07h58.35.888,bars,2023.2.3,Win32,59.88023952,657b66ea316d21385b68909f,,,,,,,,,,,1259.9199,1260.9172,,,1261.4172,1261.6671,,30,30,,,,,,,,,,,,,,,,bars/014.png,bars/mask007.png,,,,,,,,,,,,0,2,,,,,,,4,8,3,8,,,,,,,,,,,1260.9174,1261.4171,1261.6672,1265.9004,space,4.2216,,1265.9005,50,30,1266.8995,1266.8995,1272.2419,space,5.3083,,0,45,45,45,1,80,0,,,,,,,,
,,6152c05b866a2622004014a5,65af5417928510ff1336ce20,2024-01-23_07h58.35.888,bars,2023.2.3,Win32,59.88023952,657b66ea316d21385b68909f,,,,,,,,,,,1272.2584,1273.2481,,,1273.7401,1273.9835,,45,225,,,,,,,,,,,,,,,,bars/048.png,bars/mask005.png,,,,,,,,,,,,3,1,,,,,,,2,6,3,7,,,,,,,,,,,1273.2483,1273.74,1273.9835,1279.849,space,5.8502,,1279.8491,5,50,1280.8487,1280.8487,1283.446,space,2.5535,,0,46,46,46,1,50,175,,,,,,,,
,,6152c05b866a2622004014a5,65af5417928510ff1336ce20,2024-01-23_07h58.35.888,bars,2023.2.3,Win32,59.88023952,657b66ea316d21385b68909f,,,,,,,,,,,1283.4648,1284.4546,,,1284.9457,1285.1958,,19,199,,,,,,,,,,,,,,,,bars/039.png,bars/mask003.png,,,,,,,,,,,,1,1,,,,,,,4,4,4,4,,,,,,,,,,,1284.4547,1284.9456,1285.1959,1289.845,space,4.636,,1289.8452,24,86,1290.8447,1290.8448,1292.9546,space,2.0768,,0,47,47,47,1,175,105,,,,,,,,
,,6152c05b866a2622004014a5,65af5417928510ff1336ce20,2024-01-23_07h58.35.888,bars,2023.2.3,Win32,59.88023952,657b66ea316d21385b68909f,,,,,,,,,,,1292.9558,1293.9506,,,1294.4439,1294.6938,,22,22,,,,,,,,,,,,,,,,bars/023.png,bars/mask005.png,,,,,,,,,,,,3,1,,,,,,,2,2,3,3,,,,,,,,,,,1293.9506,1294.4437,1294.6938,1295.727,space,1.0195,,1295.7272,2,87,1296.7189,1296.719,1297.8703,space,1.1315,,0,48,48,48,1,20,115,,,,,,,,
,,6152c05b866a2622004014a5,65af5417928510ff1336ce20,2024-01-23_07h58.35.888,bars,2023.2.3,Win32,59.88023952,657b66ea316d21385b68909f,,,,,,,,,,,1297.8716,1298.8681,,,1299.3598,1299.6097,,31,211,,,,,,,,,,,,,,,,bars/012.png,bars/mask003.png,,,,,,,,,,,,0,2,,,,,,,4,0,3,0,,,,,,,,,,,1298.8681,1299.3598,1299.6097,1304.0923,space,4.4684,,1304.0925,59,16,1305.0837,1305.0838,1308.2348,space,3.1088,,0,49,49,49,1,90,15,,,,,,,,
,,6152c05b866a2622004014a5,65af5417928510ff1336ce20,2024-01-23_07h58.35.888,bars,2023.2.3,Win32,59.88023952,657b66ea316d21385b68909f,,,,,,,,,,,,,,,,,,,,,,,,,,,,,,,,,,,,,,,,,,,,,,,,,,,,,,,,,,,,,,,,,,,,,,,,,,,,,,,,,,,,,,,,,,,,,1308.2524,1368.2496,0,0,0,0,1,sequence_tables/blk007.csv
,,6152c05b866a2622004014a5,65af5417928510ff1336ce20,2024-01-23_07h58.35.888,bars,2023.2.3,Win32,59.88023952,657b66ea316d21385b68909f,,,,,,,,,,,1370.9421,1371.9375,,,1372.4289,1372.6787,,47,227,,,,,,,,,,,,,,,,bars/010.png,bars/mask007.png,,,,,,,,,,,,7,2,,,,,,,9,9,7,10,,,,,,1368.2677,1370.9292,space,2.6451,,1371.9378,1372.4288,1372.6789,1396.8074,space,24.1122,,1396.8077,62,8,1397.8071,1397.8071,1397.8281,,,,0,0,0,0,1,165,55,,,,,,,,
,,6152c05b866a2622004014a5,65af5417928510ff1336ce20,2024-01-23_07h58.35.888,bars,2023.2.3,Win32,59.88023952,657b66ea316d21385b68909f,,,,,,,,,,,1397.829,1398.8256,,,1399.3253,1399.5756,,172,172,,,,,,,,,,,,,,,,bars/033.png,bars/mask007.png,,,,,,,,,,,,4,2,,,,,,,7,10,7,10,,,,,,,,,,,1398.8257,1399.3252,1399.5757,1405.8413,space,6.2531,,1405.8415,33,17,1406.8405,1406.8406,1406.8609,,,,0,1,1,1,1,25,155,,,,,,,,
,,6152c05b866a2622004014a5,65af5417928510ff1336ce20,2024-01-23_07h58.35.888,bars,2023.2.3,Win32,59.88023952,657b66ea316d21385b68909f,,,,,,,,,,,1406.8615,1407.8576,,,1408.3573,1408.6072,,172,-8,,,,,,,,,,,,,,,,bars/032.png,bars/mask006.png,,,,,,,,,,,,1,2,,,,,,,9,8,9,8,,,,,,,,,,,1407.8577,1408.3572,1408.6072,1410.8734,space,2.2519,,1410.8734,47,28,1411.8731,1411.8731,1411.8749,,,,0,2,2,2,1,125,20,,,,,,,,
,,6152c05b866a2622004014a5,65af5417928510ff1336ce20,2024-01-23_07h58.35.888,bars,2023.2.3,Win32,59.88023952,657b66ea316d21385b68909f,,,,,,,,,,,1411.8754,1412.8727,,,1413.373,1413.6243,,67,67,,,,,,,,,,,,,,,,bars/035.png,bars/mask000.png,,,,,,,,,,,,5,2,,,,,,,10,6,8,7,,,,,,,,,,,1412.8728,1413.3728,1413.6243,1415.3219,space,1.6793,,1415.322,72,7,1416.3218,1416.3219,1416.3409,,,,0,3,3,3,1,175,60,,,,,,,,
,,6152c05b866a2622004014a5,65af5417928510ff1336ce20,2024-01-23_07h58.35.888,bars,2023.2.3,Win32,59.88023952,657b66ea316d21385b68909f,,,,,,,,,,,1416.3415,1417.3386,,,1417.8384,1418.0882,,19,19,,,,,,,,,,,,,,,,bars/044.png,bars/mask003.png,,,,,,,,,,,,0,2,,,,,,,10,4,9,4,,,,,,,,,,,1417.3387,1417.8383,1418.0882,1421.0548,space,2.9537,,1421.055,56,44,1422.0546,1422.0546,1422.0713,,,,0,4,4,4,1,75,155,,,,,,,,
,,6152c05b866a2622004014a5,65af5417928510ff1336ce20,2024-01-23_07h58.35.888,bars,2023.2.3,Win32,59.88023952,657b66ea316d21385b68909f,,,,,,,,,,,1422.0725,1423.0713,,,1423.571,1423.8211,,24,204,,,,,,,,,,,,,,,,bars/041.png,bars/mask004.png,,,,,,,,,,,,7,1,,,,,,,8,2,8,3,,,,,,,,,,,1423.0714,1423.571,1423.8213,1427.5533,space,3.7167,,1427.5534,4,61,1428.5532,1428.5532,1428.5731,,,,0,5,5,5,1,20,85,,,,,,,,
,,6152c05b866a2622004014a5,65af5417928510ff1336ce20,2024-01-23_07h58.35.888,bars,2023.2.3,Win32,59.88023952,657b66ea316d21385b68909f,,,,,,,,,,,1428.5736,1429.5675,,,1430.0697,1430.3203,,157,-23,,,,,,,,,,,,,,,,bars/011.png,bars/mask007.png,,,,,,,,,,,,5,1,,,,,,,6,4,6,4,,,,,,,,,,,1429.5676,1430.0697,1430.3203,1437.3848,space,7.0536,,1437.3849,3,72,1438.3846,1438.3847,1438.4047,,,,0,6,6,6,1,160,85,,,,,,,,
,,6152c05b866a2622004014a5,65af5417928510ff1336ce20,2024-01-23_07h58.35.888,bars,2023.2.3,Win32,59.88023952,657b66ea316d21385b68909f,,,,,,,,,,,1438.4052,1439.4016,,,1439.9014,1440.151,,46,226,,,,,,,,,,,,,,,,bars/048.png,bars/mask000.png,,,,,,,,,,,,8,1,,,,,,,8,6,9,6,,,,,,,,,,,1439.4017,1439.901,1440.1511,1450.3018,space,10.1395,,1450.3019,4,51,1451.2969,1451.297,1451.3178,,,,0,7,7,7,1,50,175,,,,,,,,
,,6152c05b866a2622004014a5,65af5417928510ff1336ce20,2024-01-23_07h58.35.888,bars,2023.2.3,Win32,59.88023952,657b66ea316d21385b68909f,,,,,,,,,,,1451.3185,1452.313,,,1452.8132,1453.063,,51,51,,,,,,,,,,,,,,,,bars/034.png,bars/mask005.png,,,,,,,,,,,,4,2,,,,,,,10,8,10,8,,,,,,,,,,,1452.3131,1452.813,1453.0631,1456.1789,space,3.1008,,1456.1791,74,14,1457.1788,1457.1789,1457.1979,,,,0,8,8,8,1,125,65,,,,,,,,
,,6152c05b866a2622004014a5,65af5417928510ff1336ce20,2024-01-23_07h58.35.888,bars,2023.2.3,Win32,59.88023952,657b66ea316d21385b68909f,,,,,,,,,,,1457.1983,1458.1996,,,1458.6894,1458.937,,44,224,,,,,,,,,,,,,,,,bars/007.png,bars/mask003.png,,,,,,,,,,,,6,2,,,,,,,8,10,6,10,,,,,,,,,,,1458.1996,1458.6893,1458.937,1465.7118,space,6.7571,,1465.7118,49,11,1466.7022,1466.7023,1466.7196,,,,0,9,9,9,1,175,55,,,,,,,,
,,6152c05b866a2622004014a5,65af5417928510ff1336ce20,2024-01-23_07h58.35.888,bars,2023.2.3,Win32,59.88023952,657b66ea316d21385b68909f,,,,,,,,,,,1466.72,1467.7101,,,1468.2101,1468.46,,37,37,,,,,,,,,,,,,,,,bars/019.png,bars/mask006.png,,,,,,,,,,,,7,1,,,,,,,10,10,10,10,,,,,,,,,,,1467.7102,1468.2101,1468.46,1474.7435,space,6.2681,,1474.7436,8,68,1475.7419,1475.742,1475.7631,,,,0,10,10,10,1,45,105,,,,,,,,
,,6152c05b866a2622004014a5,65af5417928510ff1336ce20,2024-01-23_07h58.35.888,bars,2023.2.3,Win32,59.88023952,657b66ea316d21385b68909f,,,,,,,,,,,1475.7636,1476.76,,,1477.2601,1477.5102,,44,224,,,,,,,,,,,,,,,,bars/014.png,bars/mask002.png,,,,,,,,,,,,0,1,,,,,,,8,10,9,10,,,,,,,,,,,1476.7601,1477.2601,1477.5103,1483.1259,space,5.6011,,1483.126,36,44,1484.1256,1484.1256,1484.1459,,,,0,11,11,11,1,80,0,,,,,,,,
,,6152c05b866a2622004014a5,65af5417928510ff1336ce20,2024-01-23_07h58.35.888,bars,2023.2.3,Win32,59.88023952,657b66ea316d21385b68909f,,,,,,,,,,,1484.1465,1485.1421,,,1485.642,1485.8921,,175,-5,,,,,,,,,,,,,,,,bars/046.png,bars/mask008.png,,,,,,,,,,,,3,1,,,,,,,10,8,8,7,,,,,,,,,,,1485.1422,1485.642,1485.8921,1488.9245,space,3.0201,,1488.9246,20,90,1489.9245,1489.9246,1489.9434,,,,0,12,12,12,1,155,85,,,,,,,,
,,6152c05b866a2622004014a5,65af5417928510ff1336ce20,2024-01-23_07h58.35.888,bars,2023.2.3,Win32,59.88023952,657b66ea316d21385b68909f,,,,,,,,,,,1489.9439,1490.9409,,,1491.4408,1491.6906,,33,33,,,,,,,,,,,,,,,,bars/044.png,bars/mask000.png,,,,,,,,,,,,0,1,,,,,,,10,6,10,6,,,,,,,,,,,1490.941,1491.4407,1491.6907,1496.1902,space,4.4845,,1496.1903,42,58,1497.1898,1497.1899,1497.2088,,,,0,13,13,13,1,75,155,,,,,,,,
,,6152c05b866a2622004014a5,65af5417928510ff1336ce20,2024-01-23_07h58.35.888,bars,2023.2.3,Win32,59.88023952,657b66ea316d21385b68909f,,,,,,,,,,,1497.2093,1498.2064,,,1498.7062,1498.956,,38,38,,,,,,,,,,,,,,,,bars/009.png,bars/mask008.png,,,,,,,,,,,,2,1,,,,,,,8,4,9,4,,,,,,,,,,,1498.2065,1498.7061,1498.956,1503.6219,space,4.6502,,1503.6221,23,67,1504.6222,1504.6222,1504.6406,,,,0,14,14,14,1,15,105,,,,,,,,
,,6152c05b866a2622004014a5,65af5417928510ff1336ce20,2024-01-23_07h58.35.888,bars,2023.2.3,Win32,59.88023952,657b66ea316d21385b68909f,,,,,,,,,,,1504.6411,1505.6381,,,1506.1382,1506.3879,,153,153,,,,,,,,,,,,,,,,bars/001.png,bars/mask008.png,,,,,,,,,,,,2,1,,,,,,,10,2,10,2,,,,,,,,,,,1505.6381,1506.1382,1506.3881,1508.5709,space,2.1681,,1508.571,23,68,1509.5706,1509.5707,1509.5726,,,,0,15,15,15,1,130,85,,,,,,,,
,,6152c05b866a2622004014a5,65af5417928510ff1336ce20,2024-01-23_07h58.35.888,bars,2023.2.3,Win32,59.88023952,657b66ea316d21385b68909f,,,,,,,,,,,1509.5732,1510.5701,,,1511.0704,1511.3204,,35,35,,,,,,,,,,,,,,,,bars/019.png,bars/mask005.png,,,,,,,,,,,,6,1,,,,,,,8,0,9,1,,,,,,,,,,,1510.5702,1511.0703,1511.3205,1516.5692,space,5.2355,,1516.5693,10,70,1517.5689,1517.569,1517.5864,,,,0,16,16,16,1,45,105,,,,,,,,
,,6152c05b866a2622004014a5,65af5417928510ff1336ce20,2024-01-23_07h58.35.888,bars,2023.2.3,Win32,59.88023952,657b66ea316d21385b68909f,,,,,,,,,,,1517.5877,1518.5857,,,1519.0856,1519.3353,,139,139,,,,,,,,,,,,,,,,bars/031.png,bars/mask002.png,,,,,,,,,,,,4,1,,,,,,,10,0,10,0,,,,,,,,,,,1518.5858,1519.0856,1519.3354,1521.7164,space,2.3674,,1521.7167,19,76,1522.7162,1522.7162,1522.7332,,,,0,17,17,17,1,120,35,,,,,,,,
,,6152c05b866a2622004014a5,65af5417928510ff1336ce20,2024-01-23_07h58.35.888,bars,2023.2.3,Win32,59.88023952,657b66ea316d21385b68909f,,,,,,,,,,,1522.7337,1523.7325,,,1524.2324,1524.4825,,29,209,,,,,,,,,,,,,,,,bars/048.png,bars/mask007.png,,,,,,,,,,,,3,1,,,,,,,10,2,10,4,,,,,,,,,,,1523.7327,1524.2323,1524.4825,1528.8649,space,4.3666,,1528.8651,21,34,1529.8647,1529.8647,1529.8813,,,,0,18,18,18,1,50,175,,,,,,,,
,,6152c05b866a2622004014a5,65af5417928510ff1336ce20,2024-01-23_07h58.35.888,bars,2023.2.3,Win32,59.88023952,657b66ea316d21385b68909f,,,,,,,,,,,1529.8818,1530.8734,,,1531.3644,1531.6144,,149,149,,,,,,,,,,,,,,,,bars/021.png,bars/mask007.png,,,,,,,,,,,,6,1,,,,,,,8,4,8,4,,,,,,,,,,,1530.8734,1531.3644,1531.6144,1536.84,space,5.2144,,1536.8401,6,79,1537.8299,1537.8302,1537.8481,,,,0,19,19,19,1,155,70,,,,,,,,
,,6152c05b866a2622004014a5,65af5417928510ff1336ce20,2024-01-23_07h58.35.888,bars,2023.2.3,Win32,59.88023952,657b66ea316d21385b68909f,,,,,,,,,,,1537.8486,1538.8376,,,1539.3295,1539.5796,,138,138,,,,,,,,,,,,,,,,bars/036.png,bars/mask008.png,,,,,,,,,,,,7,1,,,,,,,10,6,9,5,,,,,,,,,,,1538.8377,1539.3295,1539.5796,1543.3965,space,3.8048,,1543.3966,7,62,1544.3951,1544.3952,1544.4138,,,,0,20,20,20,1,145,20,,,,,,,,
,,6152c05b866a2622004014a5,65af5417928510ff1336ce20,2024-01-23_07h58.35.888,bars,2023.2.3,Win32,59.88023952,657b66ea316d21385b68909f,,,,,,,,,,,1544.4142,1545.4044,,,1545.9051,1546.1447,,32,32,,,,,,,,,,,,,,,,bars/004.png,bars/mask001.png,,,,,,,,,,,,7,1,,,,,,,8,4,9,4,,,,,,,,,,,1545.4047,1545.905,1546.1449,1547.1614,space,1.0015,,1547.1615,7,87,1548.1611,1548.1611,1548.1642,,,,0,21,21,21,1,25,125,,,,,,,,
,,6152c05b866a2622004014a5,65af5417928510ff1336ce20,2024-01-23_07h58.35.888,bars,2023.2.3,Win32,59.88023952,657b66ea316d21385b68909f,,,,,,,,,,,1548.1648,1549.1609,,,1549.6612,1549.9107,,130,130,,,,,,,,,,,,,,,,bars/042.png,bars/mask002.png,,,,,,,,,,,,4,1,,,,,,,6,6,8,5,,,,,,,,,,,1549.161,1549.6611,1549.9108,1554.3266,space,4.4021,,1554.3269,15,55,1555.3264,1555.3266,1555.3439,,,,0,22,22,22,1,145,75,,,,,,,,
,,6152c05b866a2622004014a5,65af5417928510ff1336ce20,2024-01-23_07h58.35.888,bars,2023.2.3,Win32,59.88023952,657b66ea316d21385b68909f,,,,,,,,,,,1555.3443,1556.3431,,,1556.8428,1557.0931,,143,143,,,,,,,,,,,,,,,,bars/040.png,bars/mask007.png,,,,,,,,,,,,7,1,,,,,,,8,4,8,2,,,,,,,,,,,1556.3432,1556.8428,1557.0933,1562.275,space,5.1677,,1562.2751,3,42,1563.2753,1563.2754,1563.2947,,,,0,23,23,23,1,140,5,,,,,,,,
,,6152c05b866a2622004014a5,65af5417928510ff1336ce20,2024-01-23_07h58.35.888,bars,2023.2.3,Win32,59.88023952,657b66ea316d21385b68909f,,,,,,,,,,,1563.2952,1564.2997,,,1564.8,1565.0498,,154,154,,,,,,,,,,,,,,,,bars/040.png,bars/mask003.png,,,,,,,,,,,,5,1,,,,,,,10,6,10,6,,,,,,,,,,,1564.2998,1564.7999,1565.0499,1568.1739,space,3.1044,,1568.174,14,31,1569.1743,1569.1743,1569.1905,,,,0,24,24,24,1,140,5,,,,,,,,
,,6152c05b866a2622004014a5,65af5417928510ff1336ce20,2024-01-23_07h58.35.888,bars,2023.2.3,Win32,59.88023952,657b66ea316d21385b68909f,,,,,,,,,,,1569.191,1570.1914,,,1570.6823,1570.9321,,48,228,,,,,,,,,,,,,,,,bars/019.png,bars/mask006.png,,,,,,,,,,,,6,1,,,,,,,8,4,7,4,,,,,,,,,,,1570.1915,1570.6823,1570.9322,1575.106,space,4.154,,1575.1061,3,57,1576.1057,1576.1058,1576.1226,,,,0,25,25,25,1,45,105,,,,,,,,
,,6152c05b866a2622004014a5,65af5417928510ff1336ce20,2024-01-23_07h58.35.888,bars,2023.2.3,Win32,59.88023952,657b66ea316d21385b68909f,,,,,,,,,,,1576.123,1577.1221,,,1577.6221,1577.872,,19,19,,,,,,,,,,,,,,,,bars/003.png,bars/mask003.png,,,,,,,,,,,,7,1,,,,,,,10,6,9,6,,,,,,,,,,,1577.1221,1577.622,1577.8721,1580.0748,space,2.19,,1580.0751,6,59,1581.0744,1581.0744,1581.0981,,,,0,26,26,26,1,25,140,,,,,,,,
,,6152c05b866a2622004014a5,65af5417928510ff1336ce20,2024-01-23_07h58.35.888,bars,2023.2.3,Win32,59.88023952,657b66ea316d21385b68909f,,,,,,,,,,,1581.0987,1582.0881,,,1582.5877,1582.8377,,14,14,,,,,,,,,,,,,,,,bars/003.png,bars/mask008.png,,,,,,,,,,,,6,1,,,,,,,8,4,9,4,,,,,,,,,,,1582.0882,1582.5876,1582.8377,1584.8706,space,2.0171,,1584.8708,11,54,1585.8708,1585.8708,1585.8731,,,,0,27,27,27,1,25,140,,,,,,,,
,,6152c05b866a2622004014a5,65af5417928510ff1336ce20,2024-01-23_07h58.35.888,bars,2023.2.3,Win32,59.88023952,657b66ea316d21385b68909f,,,,,,,,,,,1585.874,1586.8701,,,1587.3621,1587.612,,57,57,,,,,,,,,,,,,,,,bars/022.png,bars/mask000.png,,,,,,,,,,,,0,2,,,,,,,6,6,6,6,,,,,,,,,,,1586.8703,1587.3621,1587.6121,1591.3697,space,3.7391,,1591.3697,38,37,1592.3691,1592.3692,1592.3887,,,,0,28,28,28,1,95,20,,,,,,,,
,,6152c05b866a2622004014a5,65af5417928510ff1336ce20,2024-01-23_07h58.35.888,bars,2023.2.3,Win32,59.88023952,657b66ea316d21385b68909f,,,,,,,,,,,1592.3892,1593.3786,,,1593.8778,1594.1277,,85,85,,,,,,,,,,,,,,,,bars/028.png,bars/mask003.png,,,,,,,,,,,,0,2,,,,,,,4,4,3,5,,,,,,,,,,,1593.3786,1593.8777,1594.1277,1595.6451,space,1.5018,,1595.6451,40,35,1596.6436,1596.6437,1596.6596,,,,0,29,29,29,1,45,120,,,,,,,,
,,6152c05b866a2622004014a5,65af5417928510ff1336ce20,2024-01-23_07h58.35.888,bars,2023.2.3,Win32,59.88023952,657b66ea316d21385b68909f,,,,,,,,,,,1596.66,1597.6518,,,1598.1437,1598.3871,,128,128,,,,,,,,,,,,,,,,bars/037.png,bars/mask004.png,,,,,,,,,,,,0,1,,,,,,,2,2,1,2,,,,,,,,,,,1597.6519,1598.1435,1598.3873,1601.4026,space,2.9879,,1601.4028,22,23,1602.4027,1602.4028,1602.4241,,,,0,30,30,30,1,150,105,,,,,,,,
,,6152c05b866a2622004014a5,65af5417928510ff1336ce20,2024-01-23_07h58.35.888,bars,2023.2.3,Win32,59.88023952,657b66ea316d21385b68909f,,,,,,,,,,,1602.4249,1603.417,,,1603.9169,1604.1673,,133,133,,,,,,,,,,,,,,,,bars/033.png,bars/mask001.png,,,,,,,,,,,,1,2,,,,,,,4,4,4,3,,,,,,,,,,,1603.417,1603.9169,1604.1673,1610.0492,space,5.8668,,1610.0493,72,22,1611.0406,1611.0407,1611.0621,,,,0,31,31,31,1,25,155,,,,,,,,
,,6152c05b866a2622004014a5,65af5417928510ff1336ce20,2024-01-23_07h58.35.888,bars,2023.2.3,Win32,59.88023952,657b66ea316d21385b68909f,,,,,,,,,,,1611.0628,1612.0656,,,1612.5655,1612.808,,41,41,,,,,,,,,,,,,,,,bars/048.png,bars/mask003.png,,,,,,,,,,,,1,1,,,,,,,2,2,2,1,,,,,,,,,,,1612.0657,1612.5655,1612.808,1615.9258,space,3.1027,,1615.9262,9,46,1616.9143,1616.9144,1616.9331,,,,0,32,32,32,1,50,175,,,,,,,,
,,6152c05b866a2622004014a5,65af5417928510ff1336ce20,2024-01-23_07h58.35.888,bars,2023.2.3,Win32,59.88023952,657b66ea316d21385b68909f,,,,,,,,,,,1616.9336,1617.9307,,,1618.4307,1618.6806,,44,44,,,,,,,,,,,,,,,,bars/013.png,bars/mask009.png,,,,,,,,,,,,0,1,,,,,,,4,4,4,4,,,,,,,,,,,1617.9309,1618.4307,1618.6807,1624.5628,space,5.867,,1624.563,31,34,1625.5625,1625.5625,1625.5814,,,,0,33,33,33,1,75,10,,,,,,,,
,,6152c05b866a2622004014a5,65af5417928510ff1336ce20,2024-01-23_07h58.35.888,bars,2023.2.3,Win32,59.88023952,657b66ea316d21385b68909f,,,,,,,,,,,1625.582,1626.5791,,,1627.0791,1627.3325,,137,137,,,,,,,,,,,,,,,,bars/038.png,bars/mask002.png,,,,,,,,,,,,0,1,,,,,,,6,6,5,4,,,,,,,,,,,1626.5791,1627.0791,1627.3325,1629.8619,space,2.5163,,1629.862,28,67,1630.8616,1630.8616,1630.8783,,,,0,34,34,34,1,165,70,,,,,,,,
,,6152c05b866a2622004014a5,65af5417928510ff1336ce20,2024-01-23_07h58.35.888,bars,2023.2.3,Win32,59.88023952,657b66ea316d21385b68909f,,,,,,,,,,,1630.8788,1631.87,,,1632.3615,1632.6113,,41,221,,,,,,,,,,,,,,,,bars/047.png,bars/mask001.png,,,,,,,,,,,,1,1,,,,,,,4,4,5,3,,,,,,,,,,,1631.8701,1632.3615,1632.6113,1638.1101,space,5.4843,,1638.1103,26,29,1639.1102,1639.1102,1639.1272,,,,0,35,35,35,1,15,70,,,,,,,,
,,6152c05b866a2622004014a5,65af5417928510ff1336ce20,2024-01-23_07h58.35.888,bars,2023.2.3,Win32,59.88023952,657b66ea316d21385b68909f,,,,,,,,,,,1639.1277,1640.1268,,,1640.6183,1640.8684,,138,138,,,,,,,,,,,,,,,,bars/024.png,bars/mask001.png,,,,,,,,,,,,1,1,,,,,,,2,2,3,2,,,,,,,,,,,1640.1269,1640.6182,1640.8684,1647.5013,space,6.6171,,1647.5014,18,32,1648.4999,1648.5,1648.5206,,,,0,36,36,36,1,120,170,,,,,,,,
,,6152c05b866a2622004014a5,65af5417928510ff1336ce20,2024-01-23_07h58.35.888,bars,2023.2.3,Win32,59.88023952,657b66ea316d21385b68909f,,,,,,,,,,,1648.5212,1649.5246,,,1650.0249,1650.2745,,144,144,,,,,,,,,,,,,,,,bars/005.png,bars/mask005.png,,,,,,,,,,,,0,2,,,,,,,0,0,0,0,,,,,,,,,,,1649.5247,1650.0247,1650.2745,1651.4743,space,1.1863,,1651.4744,46,4,1652.466,1652.4661,1652.4862,,,,0,37,37,37,1,10,140,,,,,,,,
,,6152c05b866a2622004014a5,65af5417928510ff1336ce20,2024-01-23_07h58.35.888,bars,2023.2.3,Win32,59.88023952,657b66ea316d21385b68909f,,,,,,,,,,,1652.4874,1653.4909,,,1653.9822,1654.2303,,142,142,,,,,,,,,,,,,,,,bars/015.png,bars/mask003.png,,,,,,,,,,,,1,2,,,,,,,2,2,2,2,,,,,,,,,,,1653.491,1653.9821,1654.2303,1658.757,space,4.5089,,1658.7571,32,18,1659.7478,1659.7479,1659.7645,,,,0,38,38,38,1,110,160,,,,,,,,
,,6152c05b866a2622004014a5,65af5417928510ff1336ce20,2024-01-23_07h58.35.888,bars,2023.2.3,Win32,59.88023952,657b66ea316d21385b68909f,,,,,,,,,,,1659.765,1660.7557,,,1661.2558,1661.5068,,30,30,,,,,,,,,,,,,,,,bars/013.png,bars/mask001.png,,,,,,,,,,,,2,2,,,,,,,4,4,6,5,,,,,,,,,,,1660.7558,1661.2557,1661.5069,1666.6595,space,5.1417,,1666.6596,45,20,1667.6629,1667.663,1667.6792,,,,0,39,39,39,1,75,10,,,,,,,,
,,6152c05b866a2622004014a5,65af5417928510ff1336ce20,2024-01-23_07h58.35.888,bars,2023.2.3,Win32,59.88023952,657b66ea316d21385b68909f,,,,,,,,,,,1667.6797,1668.6708,,,1669.1709,1669.4208,,62,62,,,,,,,,,,,,,,,,bars/014.png,bars/mask000.png,,,,,,,,,,,,1,1,,,,,,,2,2,2,2,,,,,,,,,,,1668.6709,1669.1708,1669.4208,1670.5409,space,1.1009,,1670.541,18,62,1671.5403,1671.5404,1671.5445,,,,0,40,40,40,1,80,0,,,,,,,,
,,6152c05b866a2622004014a5,65af5417928510ff1336ce20,2024-01-23_07h58.35.888,bars,2023.2.3,Win32,59.88023952,657b66ea316d21385b68909f,,,,,,,,,,,1671.5452,1672.5398,,,1673.0368,1673.2875,,149,149,,,,,,,,,,,,,,,,bars/030.png,bars/mask005.png,,,,,,,,,,,,1,1,,,,,,,4,4,2,2,,,,,,,,,,,1672.5398,1673.0367,1673.2876,1682.0028,space,8.7004,,1682.0029,9,84,1683.0014,1683.0015,1683.0219,,,,0,41,41,41,1,140,65,,,,,,,,
,,6152c05b866a2622004014a5,65af5417928510ff1336ce20,2024-01-23_07h58.35.888,bars,2023.2.3,Win32,59.88023952,657b66ea316d21385b68909f,,,,,,,,,,,1683.0224,1684.0264,,,1684.52,1684.7697,,115,115,,,,,,,,,,,,,,,,bars/013.png,bars/mask000.png,,,,,,,,,,,,0,1,,,,,,,2,6,1,7,,,,,,,,,,,1684.0265,1684.5199,1684.7697,1687.1196,space,2.3351,,1687.1196,40,75,1688.1191,1688.1192,1688.1372,,,,0,42,42,42,1,75,10,,,,,,,,
,,6152c05b866a2622004014a5,65af5417928510ff1336ce20,2024-01-23_07h58.35.888,bars,2023.2.3,Win32,59.88023952,657b66ea316d21385b68909f,,,,,,,,,,,1688.1377,1689.1356,,,1689.6353,1689.8856,,133,133,,,,,,,,,,,,,,,,bars/037.png,bars/mask008.png,,,,,,,,,,,,0,1,,,,,,,0,8,0,8,,,,,,,,,,,1689.1357,1689.6353,1689.8857,1692.7014,space,2.8033,,1692.7015,17,28,1693.7013,1693.7013,1693.7187,,,,0,43,43,43,1,150,105,,,,,,,,
,,6152c05b866a2622004014a5,65af5417928510ff1336ce20,2024-01-23_07h58.35.888,bars,2023.2.3,Win32,59.88023952,657b66ea316d21385b68909f,,,,,,,,,,,1693.7195,1694.7177,,,1695.2188,1695.47,,129,129,,,,,,,,,,,,,,,,bars/032.png,bars/mask000.png,,,,,,,,,,,,1,1,,,,,,,0,6,1,5,,,,,,,,,,,1694.7177,1695.2187,1695.47,1696.5351,space,1.0461,,1696.5352,4,71,1697.5344,1697.5345,1697.5364,,,,0,44,44,44,1,125,20,,,,,,,,
,,6152c05b866a2622004014a5,65af5417928510ff1336ce20,2024-01-23_07h58.35.888,bars,2023.2.3,Win32,59.88023952,657b66ea316d21385b68909f,,,,,,,,,,,1697.537,1698.5338,,,1699.0338,1699.2837,,154,154,,,,,,,,,,,,,,,,bars/035.png,bars/mask003.png,,,,,,,,,,,,0,1,,,,,,,2,4,1,5,,,,,,,,,,,1698.5339,1699.0335,1699.2837,1702.5664,space,3.2671,,1702.5665,21,86,1703.5659,1703.5659,1703.5835,,,,0,45,45,45,1,175,60,,,,,,,,
,,6152c05b866a2622004014a5,65af5417928510ff1336ce20,2024-01-23_07h58.35.888,bars,2023.2.3,Win32,59.88023952,657b66ea316d21385b68909f,,,,,,,,,,,1703.5847,1704.5826,,,1705.0829,1705.3325,,28,208,,,,,,,,,,,,,,,,bars/035.png,bars/mask008.png,,,,,,,,,,,,0,2,,,,,,,4,2,3,3,,,,,,,,,,,1704.5827,1705.0828,1705.3325,1709.1502,space,3.8076,,1709.1503,33,32,1710.1481,1710.1481,1710.1675,,,,0,46,46,46,1,175,60,,,,,,,,
,,6152c05b866a2622004014a5,65af5417928510ff1336ce20,2024-01-23_07h58.35.888,bars,2023.2.3,Win32,59.88023952,657b66ea316d21385b68909f,,,,,,,,,,,1710.168,1711.1647,,,1711.6645,1711.9146,,37,37,,,,,,,,,,,,,,,,bars/028.png,bars/mask006.png,,,,,,,,,,,,5,1,,,,,,,6,4,7,4,,,,,,,,,,,1711.1647,1711.6644,1711.9146,1714.3666,space,2.4422,,1714.3669,8,83,1715.3705,1715.3706,1715.3891,,,,0,47,47,47,1,45,120,,,,,,,,
,,6152c05b866a2622004014a5,65af5417928510ff1336ce20,2024-01-23_07h58.35.888,bars,2023.2.3,Win32,59.88023952,657b66ea316d21385b68909f,,,,,,,,,,,1715.3896,1716.3788,,,1716.8782,1717.1288,,55,235,,,,,,,,,,,,,,,,bars/029.png,bars/mask009.png,,,,,,,,,,,,1,2,,,,,,,4,2,4,2,,,,,,,,,,,1716.3788,1716.8781,1717.1288,1722.1703,space,5.0302,,1722.1704,35,10,1723.1602,1723.1603,1723.1798,,,,0,48,48,48,1,90,45,,,,,,,,
,,6152c05b866a2622004014a5,65af5417928510ff1336ce20,2024-01-23_07h58.35.888,bars,2023.2.3,Win32,59.88023952,657b66ea316d21385b68909f,,,,,,,,,,,1723.1803,1724.1697,,,1724.6629,1724.9125,,134,134,,,,,,,,,,,,,,,,bars/015.png,bars/mask008.png,,,,,,,,,,,,1,1,,,,,,,6,4,6,5,,,,,,,,,,,1724.1698,1724.6628,1724.9125,1728.553,space,3.6255,,1728.5531,24,26,1729.5512,1729.5513,1729.5704,,,,0,49,49,49,1,110,160,,,,,,,,
,,6152c05b866a2622004014a5,65af5417928510ff1336ce20,2024-01-23_07h58.35.888,bars,2023.2.3,Win32,59.88023952,657b66ea316d21385b68909f,,,,,,,,,,,,,,,,,,,,,,,,,,,,,,,,,,,,,,,,,,,,,,,,,,,,,,,,,,,,,,,,,,,,,,,,,,,,,,,,,,,,,,,,,,,,,1729.5706,1789.564,0,1,1,2,1,sequence_tables/blk048.csv
,,6152c05b866a2622004014a5,65af5417928510ff1336ce20,2024-01-23_07h58.35.888,bars,2023.2.3,Win32,59.88023952,657b66ea316d21385b68909f,,,,,,,,,,,1854.018,1855.0015,,,1855.5011,1855.751,,11,191,,,,,,,,,,,,,,,,bars/004.png,bars/mask002.png,,,,,,,,,,,,4,1,,,,,,,8,4,8,5,,,,,,1789.5821,1853.9867,space,64.3852,,1855.0016,1855.501,1855.7511,1861.7167,space,5.9501,,1861.7169,14,66,1862.7163,1862.7164,1862.7352,,,,0,0,0,0,1,25,125,,,,,,,,
,,6152c05b866a2622004014a5,65af5417928510ff1336ce20,2024-01-23_07h58.35.888,bars,2023.2.3,Win32,59.88023952,657b66ea316d21385b68909f,,,,,,,,,,,1862.7358,1863.7332,,,1864.2331,1864.4828,,19,19,,,,,,,,,,,,,,,,bars/013.png,bars/mask008.png,,,,,,,,,,,,6,2,,,,,,,10,6,10,8,,,,,,,,,,,1863.7332,1864.2331,1864.483,1865.9992,space,1.5028,,1865.9993,56,9,1866.9909,1866.9909,1866.9958,,,,0,1,1,1,1,75,10,,,,,,,,
,,6152c05b866a2622004014a5,65af5417928510ff1336ce20,2024-01-23_07h58.35.888,bars,2023.2.3,Win32,59.88023952,657b66ea316d21385b68909f,,,,,,,,,,,1866.9963,1867.9922,,,1868.4836,1868.7361,,148,148,,,,,,,,,,,,,,,,bars/015.png,bars/mask009.png,,,,,,,,,,,,3,2,,,,,,,10,4,10,5,,,,,,,,,,,1867.9923,1868.4835,1868.7361,1869.8169,space,1.065,,1869.817,38,12,1870.8167,1870.8167,1870.8186,,,,0,2,2,2,1,110,160,,,,,,,,
,,6152c05b866a2622004014a5,65af5417928510ff1336ce20,2024-01-23_07h58.35.888,bars,2023.2.3,Win32,59.88023952,657b66ea316d21385b68909f,,,,,,,,,,,1870.8191,1871.8166,,,1872.3163,1872.5649,,132,132,,,,,,,,,,,,,,,,bars/024.png,bars/mask001.png,,,,,,,,,,,,5,1,,,,,,,8,6,8,5,,,,,,,,,,,1871.8167,1872.3163,1872.5651,1877.9821,space,5.4005,,1877.9822,12,38,1878.9818,1878.9819,1879.0024,,,,0,3,3,3,1,120,170,,,,,,,,
,,6152c05b866a2622004014a5,65af5417928510ff1336ce20,2024-01-23_07h58.35.888,bars,2023.2.3,Win32,59.88023952,657b66ea316d21385b68909f,,,,,,,,,,,1879.0032,1879.9962,,,1880.4963,1880.7459,,73,73,,,,,,,,,,,,,,,,bars/002.png,bars/mask003.png,,,,,,,,,,,,5,2,,,,,,,10,8,10,9,,,,,,,,,,,1879.9962,1880.4962,1880.746,1883.9124,space,3.1497,,1883.9126,57,12,1884.9119,1884.912,1884.9315,,,,0,4,4,4,1,130,85,,,,,,,,
,,6152c05b866a2622004014a5,65af5417928510ff1336ce20,2024-01-23_07h58.35.888,bars,2023.2.3,Win32,59.88023952,657b66ea316d21385b68909f,,,,,,,,,,,1884.932,1885.9285,,,1886.4284,1886.6782,,116,116,,,,,,,,,,,,,,,,bars/025.png,bars/mask005.png,,,,,,,,,,,,5,1,,,,,,,8,10,8,10,,,,,,,,,,,1885.9285,1886.4284,1886.6784,1891.9455,space,5.2558,,1891.9458,11,76,1892.9441,1892.9444,1892.9638,,,,0,5,5,5,1,105,40,,,,,,,,
,,6152c05b866a2622004014a5,65af5417928510ff1336ce20,2024-01-23_07h58.35.888,bars,2023.2.3,Win32,59.88023952,657b66ea316d21385b68909f,,,,,,,,,,,1892.9643,1893.9601,,,1894.4601,1894.7099,,15,195,,,,,,,,,,,,,,,,bars/007.png,bars/mask002.png,,,,,,,,,,,,3,1,,,,,,,10,10,10,10,,,,,,,,,,,1893.9601,1894.46,1894.7099,1897.0929,space,2.3676,,1897.0932,20,40,1898.0842,1898.0842,1898.087,,,,0,6,6,6,1,175,55,,,,,,,,
,,6152c05b866a2622004014a5,65af5417928510ff1336ce20,2024-01-23_07h58.35.888,bars,2023.2.3,Win32,59.88023952,657b66ea316d21385b68909f,,,,,,,,,,,1898.0876,1899.0844,,,1899.5757,1899.8257,,50,50,,,,,,,,,,,,,,,,bars/016.png,bars/mask007.png,,,,,,,,,,,,5,1,,,,,,,8,10,7,10,,,,,,,,,,,1899.0845,1899.5757,1899.8257,1903.5774,space,3.7397,,1903.5776,10,65,1904.5747,1904.5748,1904.5921,,,,0,7,7,7,1,40,165,,,,,,,,
,,6152c05b866a2622004014a5,65af5417928510ff1336ce20,2024-01-23_07h58.35.888,bars,2023.2.3,Win32,59.88023952,657b66ea316d21385b68909f,,,,,,,,,,,1904.5928,1905.5842,,,1906.0749,1906.3247,,7,7,,,,,,,,,,,,,,,,bars/018.png,bars/mask008.png,,,,,,,,,,,,0,1,,,,,,,6,10,6,10,,,,,,,,,,,1905.5842,1906.0748,1906.3248,1908.1574,space,1.8177,,1908.1577,37,83,1909.1572,1909.1572,1909.1741,,,,0,8,8,8,1,150,90,,,,,,,,
,,6152c05b866a2622004014a5,65af5417928510ff1336ce20,2024-01-23_07h58.35.888,bars,2023.2.3,Win32,59.88023952,657b66ea316d21385b68909f,,,,,,,,,,,1909.1746,1910.1735,,,1910.6737,1910.9237,,50,50,,,,,,,,,,,,,,,,bars/019.png,bars/mask003.png,,,,,,,,,,,,7,1,,,,,,,8,8,8,8,,,,,,,,,,,1910.1735,1910.6736,1910.9237,1914.7997,space,3.8642,,1914.7998,5,55,1915.7895,1915.7895,1915.8061,,,,0,9,9,9,1,45,105,,,,,,,,
,,6152c05b866a2622004014a5,65af5417928510ff1336ce20,2024-01-23_07h58.35.888,bars,2023.2.3,Win32,59.88023952,657b66ea316d21385b68909f,,,,,,,,,,,1915.8067,1916.8057,,,1917.3057,1917.5569,,162,-18,,,,,,,,,,,,,,,,bars/024.png,bars/mask000.png,,,,,,,,,,,,7,2,,,,,,,6,10,4,10,,,,,,,,,,,1916.8057,1917.3057,1917.5569,1922.9879,space,5.4157,,1922.9882,42,8,1923.9876,1923.9877,1924.0075,,,,0,10,10,10,1,120,170,,,,,,,,
,,6152c05b866a2622004014a5,65af5417928510ff1336ce20,2024-01-23_07h58.35.888,bars,2023.2.3,Win32,59.88023952,657b66ea316d21385b68909f,,,,,,,,,,,1924.0081,1925.0039,,,1925.4961,1925.74,,131,131,,,,,,,,,,,,,,,,bars/020.png,bars/mask005.png,,,,,,,,,,,,1,1,,,,,,,4,8,3,10,,,,,,,,,,,1925.004,1925.4961,1925.7402,1927.6895,space,1.9335,0.0034,1927.6896,16,39,1928.6883,1928.6885,1928.7091,,,,0,11,11,11,1,115,170,,,,,,,,
,,6152c05b866a2622004014a5,65af5417928510ff1336ce20,2024-01-23_07h58.35.888,bars,2023.2.3,Win32,59.88023952,657b66ea316d21385b68909f,,,,,,,,,,,1928.7099,1929.7056,,,1930.2056,1930.4533,,176,-4,,,,,,,,,,,,,,,,bars/007.png,bars/mask006.png,,,,,,,,,,,,6,1,,,,,,,6,6,6,5,,,,,,,,,,,1929.7057,1930.2055,1930.4537,1938.6203,space,8.1536,,1938.6203,1,59,1939.6098,1939.6099,1939.6274,,,,0,12,12,12,1,175,55,,,,,,,,
,,6152c05b866a2622004014a5,65af5417928510ff1336ce20,2024-01-23_07h58.35.888,bars,2023.2.3,Win32,59.88023952,657b66ea316d21385b68909f,,,,,,,,,,,1939.628,1940.6176,,,1941.1177,1941.3676,,23,23,,,,,,,,,,,,,,,,bars/011.png,bars/mask006.png,,,,,,,,,,,,0,1,,,,,,,8,8,7,7,,,,,,,,,,,1940.6177,1941.1177,1941.3677,1943.134,space,1.7515,,1943.1341,43,62,1944.1338,1944.1338,1944.1514,,,,0,13,13,13,1,160,85,,,,,,,,
,,6152c05b866a2622004014a5,65af5417928510ff1336ce20,2024-01-23_07h58.35.888,bars,2023.2.3,Win32,59.88023952,657b66ea316d21385b68909f,,,,,,,,,,,1944.1519,1945.1507,,,1945.6504,1945.9003,,41,41,,,,,,,,,,,,,,,,bars/011.png,bars/mask007.png,,,,,,,,,,,,0,2,,,,,,,6,10,6,10,,,,,,,,,,,1945.1507,1945.6501,1945.9004,1950.0994,space,4.1842,,1950.0995,61,44,1951.0927,1951.0927,1951.1206,,,,0,14,14,14,1,160,85,,,,,,,,
,,6152c05b866a2622004014a5,65af5417928510ff1336ce20,2024-01-23_07h58.35.888,bars,2023.2.3,Win32,59.88023952,657b66ea316d21385b68909f,,,,,,,,,,,1951.1211,1952.1155,,,1952.6155,1952.8654,,71,71,,,,,,,,,,,,,,,,bars/029.png,bars/mask000.png,,,,,,,,,,,,2,1,,,,,,,4,10,5,10,,,,,,,,,,,1952.1156,1952.6154,1952.8654,1956.2661,space,3.3885,,1956.2661,19,26,1957.2576,1957.2579,1957.2864,,,,0,15,15,15,1,90,45,,,,,,,,
,,6152c05b866a2622004014a5,65af5417928510ff1336ce20,2024-01-23_07h58.35.888,bars,2023.2.3,Win32,59.88023952,657b66ea316d21385b68909f,,,,,,,,,,,1957.2874,1958.2813,,,1958.7744,1959.0242,,16,16,,,,,,,,,,,,,,,,bars/000.png,bars/mask003.png,,,,,,,,,,,,1,1,,,,,,,2,8,3,7,,,,,,,,,,,1958.2814,1958.7741,1959.0245,1962.4813,space,3.4415,,1962.4814,24,51,1963.4718,1963.4718,1963.4881,,,,0,16,16,16,1,40,145,,,,,,,,
,,6152c05b866a2622004014a5,65af5417928510ff1336ce20,2024-01-23_07h58.35.888,bars,2023.2.3,Win32,59.88023952,657b66ea316d21385b68909f,,,,,,,,,,,1963.4886,1964.4797,,,1964.9798,1965.2302,,41,41,,,,,,,,,,,,,,,,bars/023.png,bars/mask009.png,,,,,,,,,,,,1,1,,,,,,,4,6,4,7,,,,,,,,,,,1964.4799,1964.9797,1965.2304,1969.9289,space,4.6837,,1969.929,21,74,1970.9285,1970.9285,1970.9466,,,,0,17,17,17,1,20,115,,,,,,,,
,,6152c05b866a2622004014a5,65af5417928510ff1336ce20,2024-01-23_07h58.35.888,bars,2023.2.3,Win32,59.88023952,657b66ea316d21385b68909f,,,,,,,,,,,1970.9471,1971.9452,,,1972.4449,1972.6953,,138,138,,,,,,,,,,,,,,,,bars/036.png,bars/mask006.png,,,,,,,,,,,,5,1,,,,,,,6,4,6,5,,,,,,,,,,,1971.9453,1972.4448,1972.6954,1977.9271,space,5.217,,1977.9272,7,62,1978.9188,1978.9189,1978.9357,,,,0,18,18,18,1,145,20,,,,,,,,
,,6152c05b866a2622004014a5,65af5417928510ff1336ce20,2024-01-23_07h58.35.888,bars,2023.2.3,Win32,59.88023952,657b66ea316d21385b68909f,,,,,,,,,,,1978.9362,1979.9266,,,1980.4272,1980.6775,,68,68,,,,,,,,,,,,,,,,bars/048.png,bars/mask006.png,,,,,,,,,,,,1,1,,,,,,,4,2,3,3,,,,,,,,,,,1979.9268,1980.4272,1980.6775,1984.6593,space,3.9657,,1984.6594,18,73,1985.6589,1985.659,1985.68,,,,0,19,19,19,1,50,175,,,,,,,,
,,6152c05b866a2622004014a5,65af5417928510ff1336ce20,2024-01-23_07h58.35.888,bars,2023.2.3,Win32,59.88023952,657b66ea316d21385b68909f,,,,,,,,,,,1985.6805,1986.6853,,,1987.1756,1987.425,,23,23,,,,,,,,,,,,,,,,bars/021.png,bars/mask007.png,,,,,,,,,,,,0,2,,,,,,,2,0,1,0,,,,,,,,,,,1986.6856,1987.1756,1987.4251,1989.0471,space,1.6102,,1989.0472,48,47,1990.0413,1990.0414,1990.061,,,,0,20,20,20,1,155,70,,,,,,,,
,,6152c05b866a2622004014a5,65af5417928510ff1336ce20,2024-01-23_07h58.35.888,bars,2023.2.3,Win32,59.88023952,657b66ea316d21385b68909f,,,,,,,,,,,1990.0614,1991.0412,,,1991.5412,1991.7911,,152,152,,,,,,,,,,,,,,,,bars/002.png,bars/mask009.png,,,,,,,,,,,,1,1,,,,,,,4,0,5,0,,,,,,,,,,,1991.0413,1991.5412,1991.7911,1994.6073,space,2.8007,,1994.6075,22,67,1995.5988,1995.5989,1995.618,,,,0,21,21,21,1,130,85,,,,,,,,
,,6152c05b866a2622004014a5,65af5417928510ff1336ce20,2024-01-23_07h58.35.888,bars,2023.2.3,Win32,59.88023952,657b66ea316d21385b68909f,,,,,,,,,,,1995.6187,1996.6072,,,1997.0988,1997.3489,,145,145,,,,,,,,,,,,,,,,bars/008.png,bars/mask005.png,,,,,,,,,,,,0,2,,,,,,,6,0,5,0,,,,,,,,,,,1996.6074,1997.0988,1997.3491,1998.267,space,0.9021,,1998.267,35,35,1999.2614,1999.265,1999.2791,,,,0,22,22,22,1,110,0,,,,,,,,
,,6152c05b866a2622004014a5,65af5417928510ff1336ce20,2024-01-23_07h58.35.888,bars,2023.2.3,Win32,59.88023952,657b66ea316d21385b68909f,,,,,,,,,,,1999.2818,2000.2809,,,2000.7729,2001.0227,,161,161,,,,,,,,,,,,,,,,bars/049.png,bars/mask000.png,,,,,,,,,,,,8,1,,,,,,,8,0,8,0,,,,,,,,,,,2000.281,2000.7729,2001.0227,2005.7749,space,4.7412,,2005.775,1,46,2006.7714,2006.7715,2006.7915,,,,0,23,23,23,1,160,115,,,,,,,,
,,6152c05b866a2622004014a5,65af5417928510ff1336ce20,2024-01-23_07h58.35.888,bars,2023.2.3,Win32,59.88023952,657b66ea316d21385b68909f,,,,,,,,,,,2006.792,2007.7833,,,2008.2713,2008.5212,,47,47,,,,,,,,,,,,,,,,bars/048.png,bars/mask004.png,,,,,,,,,,,,9,1,,,,,,,10,0,10,2,,,,,,,,,,,2007.7834,2008.2713,2008.5212,2009.321,space,0.7864,,2009.3213,3,52,2010.3118,2010.312,2010.3143,,,,0,24,24,24,1,50,175,,,,,,,,
,,6152c05b866a2622004014a5,65af5417928510ff1336ce20,2024-01-23_07h58.35.888,bars,2023.2.3,Win32,59.88023952,657b66ea316d21385b68909f,,,,,,,,,,,2010.3148,2011.3124,,,2011.8129,2012.063,,151,151,,,,,,,,,,,,,,,,bars/016.png,bars/mask007.png,,,,,,,,,,,,2,2,,,,,,,10,2,10,3,,,,,,,,,,,2011.3125,2011.8129,2012.0631,2015.0801,space,3.0011,,2015.0802,69,14,2016.0716,2016.0717,2016.0909,,,,0,25,25,25,1,40,165,,,,,,,,
,,6152c05b866a2622004014a5,65af5417928510ff1336ce20,2024-01-23_07h58.35.888,bars,2023.2.3,Win32,59.88023952,657b66ea316d21385b68909f,,,,,,,,,,,2016.0914,2017.0946,,,2017.5951,2017.8447,,155,155,,,,,,,,,,,,,,,,bars/025.png,bars/mask005.png,,,,,,,,,,,,0,1,,,,,,,8,4,7,3,,,,,,,,,,,2017.0946,2017.5951,2017.8448,2020.5299,space,2.669,,2020.5303,50,65,2021.5438,2021.5439,2021.5631,,,,0,26,26,26,1,105,40,,,,,,,,
,,6152c05b866a2622004014a5,65af5417928510ff1336ce20,2024-01-23_07h58.35.888,bars,2023.2.3,Win32,59.88023952,657b66ea316d21385b68909f,,,,,,,,,,,2021.5636,2022.5618,,,2023.0519,2023.3018,,130,130,,,,,,,,,,,,,,,,bars/049.png,bars/mask004.png,,,,,,,,,,,,1,2,,,,,,,6,2,7,2,,,,,,,,,,,2022.562,2023.0519,2023.3019,2024.3848,space,1.0693,,2024.385,30,15,2025.3848,2025.3848,2025.3914,,,,0,27,27,27,1,160,115,,,,,,,,
,,6152c05b866a2622004014a5,65af5417928510ff1336ce20,2024-01-23_07h58.35.888,bars,2023.2.3,Win32,59.88023952,657b66ea316d21385b68909f,,,,,,,,,,,2025.392,2026.3844,,,2026.8845,2027.1342,,149,-31,,,,,,,,,,,,,,,,bars/038.png,bars/mask005.png,,,,,,,,,,,,1,1,,,,,,,4,0,3,1,,,,,,,,,,,2026.3845,2026.8843,2027.1343,2031.4668,space,4.3173,,2031.467,16,79,2032.4664,2032.4665,2032.4856,,,,0,28,28,28,1,165,70,,,,,,,,
,,6152c05b866a2622004014a5,65af5417928510ff1336ce20,2024-01-23_07h58.35.888,bars,2023.2.3,Win32,59.88023952,657b66ea316d21385b68909f,,,,,,,,,,,2032.486,2033.483,,,2033.9831,2034.2329,,154,154,,,,,,,,,,,,,,,,bars/020.png,bars/mask008.png,,,,,,,,,,,,0,2,,,,,,,6,2,6,1,,,,,,,,,,,2033.483,2033.9831,2034.2329,2037.5491,space,3.3005,,2037.5492,39,16,2038.5485,2038.5487,2038.5675,,,,0,29,29,29,1,115,170,,,,,,,,
,,6152c05b866a2622004014a5,65af5417928510ff1336ce20,2024-01-23_07h58.35.888,bars,2023.2.3,Win32,59.88023952,657b66ea316d21385b68909f,,,,,,,,,,,2038.568,2039.5572,,,2040.0504,2040.3004,,26,206,,,,,,,,,,,,,,,,bars/003.png,bars/mask006.png,,,,,,,,,,,,2,1,,,,,,,4,0,2,1,,,,,,,,,,,2039.5574,2040.0504,2040.3004,2043.2828,space,2.9673,,2043.2829,1,66,2044.2829,2044.2829,2044.303,,,,0,30,30,30,1,25,140,,,,,,,,
,,6152c05b866a2622004014a5,65af5417928510ff1336ce20,2024-01-23_07h58.35.888,bars,2023.2.3,Win32,59.88023952,657b66ea316d21385b68909f,,,,,,,,,,,2044.3035,2045.2989,,,2045.7994,2046.0494,,33,213,,,,,,,,,,,,,,,,bars/019.png,bars/mask005.png,,,,,,,,,,,,1,1,,,,,,,2,2,1,3,,,,,,,,,,,2045.2991,2045.7993,2046.0494,2050.5157,space,4.4516,,2050.5159,12,72,2051.5213,2051.5213,2051.5381,,,,0,31,31,31,1,45,105,,,,,,,,
,,6152c05b866a2622004014a5,65af5417928510ff1336ce20,2024-01-23_07h58.35.888,bars,2023.2.3,Win32,59.88023952,657b66ea316d21385b68909f,,,,,,,,,,,2051.5387,2052.532,,,2053.0209,2053.2633,,165,-15,,,,,,,,,,,,,,,,bars/032.png,bars/mask004.png,,,,,,,,,,,,0,2,,,,,,,4,4,3,4,,,,,,,,,,,2052.5327,2053.0208,2053.2633,2058.289,space,5.0135,,2058.289,40,35,2059.2866,2059.2866,2059.3054,,,,0,32,32,32,1,125,20,,,,,,,,
,,6152c05b866a2622004014a5,65af5417928510ff1336ce20,2024-01-23_07h58.35.888,bars,2023.2.3,Win32,59.88023952,657b66ea316d21385b68909f,,,,,,,,,,,2059.306,2060.2947,,,2060.7866,2061.0362,,135,135,,,,,,,,,,,,,,,,bars/024.png,bars/mask005.png,,,,,,,,,,,,2,1,,,,,,,6,6,4,4,,,,,,,,,,,2060.2948,2060.7866,2061.0363,2063.6269,space,2.5734,,2063.6271,15,35,2064.6195,2064.6196,2064.6394,,,,0,33,33,33,1,120,170,,,,,,,,
,,6152c05b866a2622004014a5,65af5417928510ff1336ce20,2024-01-23_07h58.35.888,bars,2023.2.3,Win32,59.88023952,657b66ea316d21385b68909f,,,,,,,,,,,2064.6399,2065.6434,,,2066.1434,2066.3932,,138,-42,,,,,,,,,,,,,,,,bars/020.png,bars/mask006.png,,,,,,,,,,,,1,1,,,,,,,4,8,4,8,,,,,,,,,,,2065.6434,2066.1434,2066.3933,2070.6447,space,4.2356,,2070.6448,23,32,2071.6442,2071.6444,2071.665,,,,0,34,34,34,1,115,170,,,,,,,,
,,6152c05b866a2622004014a5,65af5417928510ff1336ce20,2024-01-23_07h58.35.888,bars,2023.2.3,Win32,59.88023952,657b66ea316d21385b68909f,,,,,,,,,,,2071.6656,2072.6607,,,2073.1606,2073.4106,,72,72,,,,,,,,,,,,,,,,bars/013.png,bars/mask004.png,,,,,,,,,,,,1,1,,,,,,,2,10,1,9,,,,,,,,,,,2072.6607,2073.1606,2073.4107,2080.4783,space,7.0576,,2080.4784,3,62,2081.4755,2081.4756,2081.4948,,,,0,35,35,35,1,75,10,,,,,,,,
,,6152c05b866a2622004014a5,65af5417928510ff1336ce20,2024-01-23_07h58.35.888,bars,2023.2.3,Win32,59.88023952,657b66ea316d21385b68909f,,,,,,,,,,,2081.4953,2082.4921,,,2082.9921,2083.242,,174,-6,,,,,,,,,,,,,,,,bars/033.png,bars/mask000.png,,,,,,,,,,,,3,2,,,,,,,4,8,3,8,,,,,,,,,,,2082.4922,2082.992,2083.242,2094.2899,space,11.0331,,2094.29,31,19,2095.2896,2095.2896,2095.311,,,,0,36,36,36,1,25,155,,,,,,,,
,,6152c05b866a2622004014a5,65af5417928510ff1336ce20,2024-01-23_07h58.35.888,bars,2023.2.3,Win32,59.88023952,657b66ea316d21385b68909f,,,,,,,,,,,2095.3115,2096.3043,,,2096.804,2097.0539,,110,110,,,,,,,,,,,,,,,,bars/034.png,bars/mask009.png,,,,,,,,,,,,1,1,,,,,,,2,6,2,5,,,,,,,,,,,2096.3043,2096.8039,2097.0539,2101.3696,space,4.302,,2101.3698,15,45,2102.3615,2102.3617,2102.3808,,,,0,37,37,37,1,125,65,,,,,,,,
,,6152c05b866a2622004014a5,65af5417928510ff1336ce20,2024-01-23_07h58.35.888,bars,2023.2.3,Win32,59.88023952,657b66ea316d21385b68909f,,,,,,,,,,,2102.3814,2103.3692,,,2103.8691,2104.1192,,150,150,,,,,,,,,,,,,,,,bars/018.png,bars/mask002.png,,,,,,,,,,,,4,1,,,,,,,4,8,4,10,,,,,,,,,,,2103.3692,2103.8691,2104.1193,2106.4023,space,2.2673,,2106.4024,0,60,2107.4018,2107.4019,2107.4193,,,,0,38,38,38,1,150,90,,,,,,,,
,,6152c05b866a2622004014a5,65af5417928510ff1336ce20,2024-01-23_07h58.35.888,bars,2023.2.3,Win32,59.88023952,657b66ea316d21385b68909f,,,,,,,,,,,2107.4199,2108.4182,,,2108.9185,2109.1682,,121,121,,,,,,,,,,,,,,,,bars/015.png,bars/mask002.png,,,,,,,,,,,,1,1,,,,,,,2,6,2,5,,,,,,,,,,,2108.4183,2108.9183,2109.1683,2110.2681,space,1.0857,,2110.2681,11,39,2111.2678,2111.2679,2111.2709,,,,0,39,39,39,1,110,160,,,,,,,,
,,6152c05b866a2622004014a5,65af5417928510ff1336ce20,2024-01-23_07h58.35.888,bars,2023.2.3,Win32,59.88023952,657b66ea316d21385b68909f,,,,,,,,,,,2111.2716,2112.2674,,,2112.7676,2113.0175,,47,47,,,,,,,,,,,,,,,,bars/046.png,bars/mask001.png,,,,,,,,,,,,0,2,,,,,,,4,8,2,7,,,,,,,,,,,2112.2676,2112.7675,2113.0176,2119.233,space,6.2006,,2119.233,72,38,2120.2348,2120.2349,2120.2564,,,,0,40,40,40,1,155,85,,,,,,,,
,,6152c05b866a2622004014a5,65af5417928510ff1336ce20,2024-01-23_07h58.35.888,bars,2023.2.3,Win32,59.88023952,657b66ea316d21385b68909f,,,,,,,,,,,2120.2568,2121.2491,,,2121.7491,2121.9989,,108,108,,,,,,,,,,,,,,,,bars/041.png,bars/mask004.png,,,,,,,,,,,,2,2,,,,,,,6,10,5,10,,,,,,,,,,,2121.2492,2121.7491,2121.9991,2128.9743,space,6.9638,,2128.9744,88,23,2129.9641,2129.9642,2129.9821,,,,0,41,41,41,1,20,85,,,,,,,,
,,6152c05b866a2622004014a5,65af5417928510ff1336ce20,2024-01-23_07h58.35.888,bars,2023.2.3,Win32,59.88023952,657b66ea316d21385b68909f,,,,,,,,,,,2129.9826,2130.9812,,,2131.4729,2131.724,,40,40,,,,,,,,,,,,,,,,bars/022.png,bars/mask004.png,,,,,,,,,,,,3,2,,,,,,,8,8,8,10,,,,,,,,,,,2130.9813,2131.4728,2131.724,2136.6465,space,4.9052,,2136.6465,55,20,2137.6459,2137.6459,2137.6628,,,,0,42,42,42,1,95,20,,,,,,,,
,,6152c05b866a2622004014a5,65af5417928510ff1336ce20,2024-01-23_07h58.35.888,bars,2023.2.3,Win32,59.88023952,657b66ea316d21385b68909f,,,,,,,,,,,2137.6632,2138.6624,,,2139.1624,2139.4122,,41,41,,,,,,,,,,,,,,,,bars/042.png,bars/mask002.png,,,,,,,,,,,,0,2,,,,,,,10,6,10,6,,,,,,,,,,,2138.6625,2139.1623,2139.4123,2147.5066,space,8.0824,,2147.5066,76,34,2148.5105,2148.5105,2148.5294,,,,0,43,43,43,1,145,75,,,,,,,,
,,6152c05b866a2622004014a5,65af5417928510ff1336ce20,2024-01-23_07h58.35.888,bars,2023.2.3,Win32,59.88023952,657b66ea316d21385b68909f,,,,,,,,,,,2148.5299,2149.5356,,,2150.0362,2150.2859,,153,-27,,,,,,,,,,,,,,,,bars/015.png,bars/mask007.png,,,,,,,,,,,,4,2,,,,,,,8,4,10,5,,,,,,,,,,,2149.5356,2150.0361,2150.286,2154.1205,space,3.8185,,2154.1207,43,7,2155.1183,2155.1185,2155.1439,,,,0,44,44,44,1,110,160,,,,,,,,
,,6152c05b866a2622004014a5,65af5417928510ff1336ce20,2024-01-23_07h58.35.888,bars,2023.2.3,Win32,59.88023952,657b66ea316d21385b68909f,,,,,,,,,,,2155.1444,2156.1354,,,2156.6263,2156.8758,,136,136,,,,,,,,,,,,,,,,bars/044.png,bars/mask007.png,,,,,,,,,,,,1,2,,,,,,,6,2,7,2,,,,,,,,,,,2156.1354,2156.6262,2156.8759,2159.6748,space,2.7823,,2159.6748,61,19,2160.6667,2160.6668,2160.6832,,,,0,45,45,45,1,75,155,,,,,,,,
,,6152c05b866a2622004014a5,65af5417928510ff1336ce20,2024-01-23_07h58.35.888,bars,2023.2.3,Win32,59.88023952,657b66ea316d21385b68909f,,,,,,,,,,,2160.6837,2161.6745,,,2162.1745,2162.4251,,151,151,,,,,,,,,,,,,,,,bars/037.png,bars/mask007.png,,,,,,,,,,,,5,1,,,,,,,4,0,5,0,,,,,,,,,,,2161.6746,2162.1745,2162.4252,2164.7409,space,2.301,,2164.741,1,46,2165.7406,2165.7407,2165.7629,,,,0,46,46,46,1,150,105,,,,,,,,
,,6152c05b866a2622004014a5,65af5417928510ff1336ce20,2024-01-23_07h58.35.888,bars,2023.2.3,Win32,59.88023952,657b66ea316d21385b68909f,,,,,,,,,,,2165.7634,2166.7572,,,2167.2569,2167.5068,,93,-87,,,,,,,,,,,,,,,,bars/044.png,bars/mask005.png,,,,,,,,,,,,1,1,,,,,,,2,2,2,2,,,,,,,,,,,2166.7573,2167.2568,2167.5068,2173.0061,space,5.4849,,2173.0062,18,62,2173.9975,2173.9976,2174.0141,,,,0,47,47,47,1,75,155,,,,,,,,
,,6152c05b866a2622004014a5,65af5417928510ff1336ce20,2024-01-23_07h58.35.888,bars,2023.2.3,Win32,59.88023952,657b66ea316d21385b68909f,,,,,,,,,,,2174.0147,2175.0053,,,2175.5053,2175.7554,,61,61,,,,,,,,,,,,,,,,bars/017.png,bars/mask004.png,,,,,,,,,,,,2,2,,,,,,,0,4,1,5,,,,,,,,,,,2175.0055,2175.5052,2175.7554,2179.8213,space,4.053,,2179.8213,84,16,2180.8123,2180.8124,2180.8307,,,,0,48,48,48,1,145,45,,,,,,,,
,,6152c05b866a2622004014a5,65af5417928510ff1336ce20,2024-01-23_07h58.35.888,bars,2023.2.3,Win32,59.88023952,657b66ea316d21385b68909f,,,,,,,,,,,2180.8313,2181.8214,,,2182.3129,2182.5624,,31,31,,,,,,,,,,,,,,,,bars/029.png,bars/mask004.png,,,,,,,,,,,,1,2,,,,,,,2,2,3,2,,,,,,,,,,,2181.8215,2182.3128,2182.5626,2186.42,space,3.838,,2186.42,59,14,2187.4214,2187.4215,2187.4385,,,,0,49,49,49,1,90,45,,,,,,,,
,,6152c05b866a2622004014a5,65af5417928510ff1336ce20,2024-01-23_07h58.35.888,bars,2023.2.3,Win32,59.88023952,657b66ea316d21385b68909f,,,,,,,,,,,,,,,,,,,,,,,,,,,,,,,,,,,,,,,,,,,,,,,,,,,,,,,,,,,,,,,,,,,,,,,,,,,,,,,,,,,,,,,,,,,,,2187.4389,2247.4434,0,2,2,4,1,sequence_tables/blk028.csv
,,6152c05b866a2622004014a5,65af5417928510ff1336ce20,2024-01-23_07h58.35.888,bars,2023.2.3,Win32,59.88023952,657b66ea316d21385b68909f,,,,,,,,,,,2292.5618,2293.5488,,,2294.0489,2294.2991,,18,18,,,,,,,,,,,,,,,,bars/002.png,bars/mask004.png,,,,,,,,,,,,0,2,,,,,,,3,2,6,4,,,,,,2247.4625,2292.5344,space,45.0544,,2293.5489,2294.0487,2294.2992,2301.1812,space,6.8675,,2301.1813,68,67,2302.1805,2302.1806,2302.2022,,,,0,0,0,0,1,130,85,,,,,,,,
,,6152c05b866a2622004014a5,65af5417928510ff1336ce20,2024-01-23_07h58.35.888,bars,2023.2.3,Win32,59.88023952,657b66ea316d21385b68909f,,,,,,,,,,,2302.2031,2303.199,,,2303.7046,2303.9468,,149,149,,,,,,,,,,,,,,,,bars/042.png,bars/mask004.png,,,,,,,,,,,,1,1,,,,,,,1,4,1,4,,,,,,,,,,,2303.1991,2303.7043,2303.9469,2318.8939,space,14.9316,,2318.8941,4,74,2319.8937,2319.8937,2319.9143,,,,0,1,1,1,1,145,75,,,,,,,,
,,6152c05b866a2622004014a5,65af5417928510ff1336ce20,2024-01-23_07h58.35.888,bars,2023.2.3,Win32,59.88023952,657b66ea316d21385b68909f,,,,,,,,,,,2319.9148,2320.9034,,,2321.3938,2321.6437,,23,23,,,,,,,,,,,,,,,,bars/000.png,bars/mask005.png,,,,,,,,,,,,2,1,,,,,,,3,6,4,5,,,,,,,,,,,2320.9036,2321.3938,2321.6437,2333.3913,space,11.7315,,2333.3915,17,58,2334.3828,2334.3829,2334.4004,,,,0,2,2,2,1,40,145,,,,,,,,
,,6152c05b866a2622004014a5,65af5417928510ff1336ce20,2024-01-23_07h58.35.888,bars,2023.2.3,Win32,59.88023952,657b66ea316d21385b68909f,,,,,,,,,,,2334.4008,2335.3907,,,2335.8908,2336.1406,,33,33,,,,,,,,,,,,,,,,bars/041.png,bars/mask004.png,,,,,,,,,,,,3,1,,,,,,,5,4,5,4,,,,,,,,,,,2335.3908,2335.8907,2336.1407,2342.023,space,5.8715,,2342.0231,13,52,2343.0251,2343.0251,2343.044,,,,0,3,3,3,1,20,85,,,,,,,,
,,6152c05b866a2622004014a5,65af5417928510ff1336ce20,2024-01-23_07h58.35.888,bars,2023.2.3,Win32,59.88023952,657b66ea316d21385b68909f,,,,,,,,,,,2343.0448,2344.041,,,2344.5409,2344.7909,,25,25,,,,,,,,,,,,,,,,bars/017.png,bars/mask000.png,,,,,,,,,,,,2,2,,,,,,,3,6,3,6,,,,,,,,,,,2344.0411,2344.5407,2344.791,2345.8574,space,1.0525,,2345.8575,60,20,2346.857,2346.857,2346.8616,,,,0,4,4,4,1,145,45,,,,,,,,
,,6152c05b866a2622004014a5,65af5417928510ff1336ce20,2024-01-23_07h58.35.888,bars,2023.2.3,Win32,59.88023952,657b66ea316d21385b68909f,,,,,,,,,,,2346.8622,2347.8569,,,2348.3568,2348.6066,,177,-3,,,,,,,,,,,,,,,,bars/033.png,bars/mask009.png,,,,,,,,,,,,2,2,,,,,,,5,8,4,8,,,,,,,,,,,2347.857,2348.3568,2348.6067,2356.7366,space,8.1166,,2356.7369,28,22,2357.7363,2357.7364,2357.7552,,,,0,5,5,5,1,25,155,,,,,,,,
,,6152c05b866a2622004014a5,65af5417928510ff1336ce20,2024-01-23_07h58.35.888,bars,2023.2.3,Win32,59.88023952,657b66ea316d21385b68909f,,,,,,,,,,,2357.7558,2358.7448,,,2359.2385,2359.4779,,30,30,,,,,,,,,,,,,,,,bars/031.png,bars/mask004.png,,,,,,,,,,,,5,2,,,,,,,3,6,2,6,,,,,,,,,,,2358.7448,2359.2385,2359.4779,2360.862,space,1.3555,,2360.8621,90,5,2361.8609,2361.861,2361.8772,,,,0,6,6,6,1,120,35,,,,,,,,
,,6152c05b866a2622004014a5,65af5417928510ff1336ce20,2024-01-23_07h58.35.888,bars,2023.2.3,Win32,59.88023952,657b66ea316d21385b68909f,,,,,,,,,,,2361.8777,2362.8686,,,2363.3613,2363.6106,,52,52,,,,,,,,,,,,,,,,bars/026.png,bars/mask000.png,,,,,,,,,,,,1,1,,,,,,,1,4,2,4,,,,,,,,,,,2362.8687,2363.361,2363.6107,2365.328,space,1.7016,,2365.328,17,33,2366.3265,2366.3265,2366.3462,,,,0,7,7,7,1,35,85,,,,,,,,
,,6152c05b866a2622004014a5,65af5417928510ff1336ce20,2024-01-23_07h58.35.888,bars,2023.2.3,Win32,59.88023952,657b66ea316d21385b68909f,,,,,,,,,,,2366.3467,2367.3346,,,2367.8344,2368.0842,,48,48,,,,,,,,,,,,,,,,bars/027.png,bars/mask005.png,,,,,,,,,,,,2,2,,,,,,,0,2,0,2,,,,,,,,,,,2367.3346,2367.8343,2368.0843,2372.7835,space,4.6838,,2372.7837,62,2,2373.7759,2373.7759,2373.796,,,,0,8,8,8,1,110,50,,,,,,,,
,,6152c05b866a2622004014a5,65af5417928510ff1336ce20,2024-01-23_07h58.35.888,bars,2023.2.3,Win32,59.88023952,657b66ea316d21385b68909f,,,,,,,,,,,2373.7966,2374.7994,,,2375.2994,2375.5494,,60,60,,,,,,,,,,,,,,,,bars/013.png,bars/mask003.png,,,,,,,,,,,,0,1,,,,,,,0,4,0,3,,,,,,,,,,,2374.7995,2375.2994,2375.5495,2376.6825,space,1.1179,,2376.6827,15,50,2377.6742,2377.6743,2377.6795,,,,0,9,9,9,1,75,10,,,,,,,,
,,6152c05b866a2622004014a5,65af5417928510ff1336ce20,2024-01-23_07h58.35.888,bars,2023.2.3,Win32,59.88023952,657b66ea316d21385b68909f,,,,,,,,,,,2377.68,2378.6894,,,2379.184,2379.4342,,165,165,,,,,,,,,,,,,,,,bars/039.png,bars/mask007.png,,,,,,,,,,,,0,1,,,,,,,0,6,0,5,,,,,,,,,,,2378.6895,2379.1839,2379.4343,2383.0834,space,3.6342,,2383.0834,10,60,2384.0832,2384.0833,2384.1031,,,,0,10,10,10,1,175,105,,,,,,,,
,,6152c05b866a2622004014a5,65af5417928510ff1336ce20,2024-01-23_07h58.35.888,bars,2023.2.3,Win32,59.88023952,657b66ea316d21385b68909f,,,,,,,,,,,2384.1038,2385.0995,,,2385.5997,2385.8493,,12,12,,,,,,,,,,,,,,,,bars/035.png,bars/mask005.png,,,,,,,,,,,,0,1,,,,,,,0,8,0,9,,,,,,,,,,,2385.0996,2385.5997,2385.8493,2386.7165,space,0.8513,,2386.7165,17,48,2387.7161,2387.7161,2387.718,,,,0,11,11,11,1,175,60,,,,,,,,
,,6152c05b866a2622004014a5,65af5417928510ff1336ce20,2024-01-23_07h58.35.888,bars,2023.2.3,Win32,59.88023952,657b66ea316d21385b68909f,,,,,,,,,,,2387.7186,2388.7158,,,2389.2153,2389.4655,,48,48,,,,,,,,,,,,,,,,bars/010.png,bars/mask005.png,,,,,,,,,,,,7,2,,,,,,,2,10,2,9,,,,,,,,,,,2388.7159,2389.2152,2389.4656,2390.4985,space,1.0188,,2390.4985,63,7,2391.4982,2391.4983,2391.5037,,,,0,12,12,12,1,165,55,,,,,,,,
,,6152c05b866a2622004014a5,65af5417928510ff1336ce20,2024-01-23_07h58.35.888,bars,2023.2.3,Win32,59.88023952,657b66ea316d21385b68909f,,,,,,,,,,,2391.5046,2392.4981,,,2392.9984,2393.2476,,42,222,,,,,,,,,,,,,,,,bars/043.png,bars/mask005.png,,,,,,,,,,,,0,1,,,,,,,0,10,0,10,,,,,,,,,,,2392.4982,2392.9983,2393.2478,2407.1121,space,13.8506,,2407.1122,12,88,2408.1121,2408.1121,2408.1336,,,,0,13,13,13,1,30,130,,,,,,,,
,,6152c05b866a2622004014a5,65af5417928510ff1336ce20,2024-01-23_07h58.35.888,bars,2023.2.3,Win32,59.88023952,657b66ea316d21385b68909f,,,,,,,,,,,2408.1341,2409.1262,,,2409.6263,2409.8762,,36,36,,,,,,,,,,,,,,,,bars/010.png,bars/mask002.png,,,,,,,,,,,,4,2,,,,,,,0,10,0,10,,,,,,,,,,,2409.1262,2409.6262,2409.8763,2410.8476,space,0.9599,,2410.8476,51,19,2411.8423,2411.8425,2411.849,,,,0,14,14,14,1,165,55,,,,,,,,
,,6152c05b866a2622004014a5,65af5417928510ff1336ce20,2024-01-23_07h58.35.888,bars,2023.2.3,Win32,59.88023952,657b66ea316d21385b68909f,,,,,,,,,,,2411.8495,2412.8422,,,2413.3422,2413.5921,,143,143,,,,,,,,,,,,,,,,bars/044.png,bars/mask007.png,,,,,,,,,,,,5,2,,,,,,,2,8,3,8,,,,,,,,,,,2412.8422,2413.3421,2413.5921,2417.6924,space,4.0874,,2417.6925,68,12,2418.6912,2418.6912,2418.7079,,,,0,15,15,15,1,75,155,,,,,,,,
,,6152c05b866a2622004014a5,65af5417928510ff1336ce20,2024-01-23_07h58.35.888,bars,2023.2.3,Win32,59.88023952,657b66ea316d21385b68909f,,,,,,,,,,,2418.7083,2419.6995,,,2420.1997,2420.4497,,50,50,,,,,,,,,,,,,,,,bars/025.png,bars/mask000.png,,,,,,,,,,,,3,2,,,,,,,0,6,0,5,,,,,,,,,,,2419.6995,2420.1996,2420.4499,2427.667,space,7.2011,,2427.6671,55,10,2428.6561,2428.6562,2428.6743,,,,0,16,16,16,1,105,40,,,,,,,,
,,6152c05b866a2622004014a5,65af5417928510ff1336ce20,2024-01-23_07h58.35.888,bars,2023.2.3,Win32,59.88023952,657b66ea316d21385b68909f,,,,,,,,,,,2428.6748,2429.6641,,,2430.1648,2430.4143,,78,78,,,,,,,,,,,,,,,,bars/027.png,bars/mask004.png,,,,,,,,,,,,0,2,,,,,,,2,4,2,3,,,,,,,,,,,2429.6642,2430.1646,2430.4143,2432.8981,space,2.4682,,2432.8982,32,28,2433.8901,2433.8901,2433.9076,,,,0,17,17,17,1,110,50,,,,,,,,
,,6152c05b866a2622004014a5,65af5417928510ff1336ce20,2024-01-23_07h58.35.888,bars,2023.2.3,Win32,59.88023952,657b66ea316d21385b68909f,,,,,,,,,,,2433.9083,2434.9067,,,2435.4066,2435.6562,,145,145,,,,,,,,,,,,,,,,bars/018.png,bars/mask009.png,,,,,,,,,,,,1,1,,,,,,,0,6,1,7,,,,,,,,,,,2434.9067,2435.4066,2435.6564,2436.6897,space,1.0188,,2436.6898,5,55,2437.6894,2437.6894,2437.6933,,,,0,18,18,18,1,150,90,,,,,,,,
,,6152c05b866a2622004014a5,65af5417928510ff1336ce20,2024-01-23_07h58.35.888,bars,2023.2.3,Win32,59.88023952,657b66ea316d21385b68909f,,,,,,,,,,,2437.6938,2438.6893,,,2439.1891,2439.4388,,151,151,,,,,,,,,,,,,,,,bars/011.png,bars/mask000.png,,,,,,,,,,,,1,1,,,,,,,2,8,2,8,,,,,,,,,,,2438.6894,2439.1891,2439.4389,2458.0853,space,18.6326,,2458.0854,9,66,2459.0853,2459.0853,2459.1041,,,,0,19,19,19,1,160,85,,,,,,,,
,,6152c05b866a2622004014a5,65af5417928510ff1336ce20,2024-01-23_07h58.35.888,bars,2023.2.3,Win32,59.88023952,657b66ea316d21385b68909f,,,,,,,,,,,2459.1048,2460.1017,,,2460.6018,2460.8518,,45,45,,,,,,,,,,,,,,,,bars/023.png,bars/mask003.png,,,,,,,,,,,,1,1,,,,,,,4,6,4,8,,,,,,,,,,,2460.1018,2460.6017,2460.8519,2463.0844,space,2.2172,,2463.0845,25,70,2464.0839,2464.0839,2464.1012,,,,0,20,20,20,1,20,115,,,,,,,,
,,6152c05b866a2622004014a5,65af5417928510ff1336ce20,2024-01-23_07h58.35.888,bars,2023.2.3,Win32,59.88023952,657b66ea316d21385b68909f,,,,,,,,,,,2464.1026,2465.1008,,,2465.601,2465.8495,,41,41,,,,,,,,,,,,,,,,bars/045.png,bars/mask007.png,,,,,,,,,,,,0,2,,,,,,,6,4,6,4,,,,,,,,,,,2465.1008,2465.6007,2465.8495,2471.6495,space,5.7835,,2471.6495,59,31,2472.6492,2472.6493,2472.6688,,,,0,21,21,21,1,100,10,,,,,,,,
,,6152c05b866a2622004014a5,65af5417928510ff1336ce20,2024-01-23_07h58.35.888,bars,2023.2.3,Win32,59.88023952,657b66ea316d21385b68909f,,,,,,,,,,,2472.6695,2473.6656,,,2474.1655,2474.4161,,53,53,,,,,,,,,,,,,,,,bars/027.png,bars/mask003.png,,,,,,,,,,,,2,2,,,,,,,8,2,8,2,,,,,,,,,,,2473.6656,2474.1654,2474.4161,2480.581,space,6.1514,,2480.5811,57,3,2481.5808,2481.5808,2481.6009,,,,0,22,22,22,1,110,50,,,,,,,,
,,6152c05b866a2622004014a5,65af5417928510ff1336ce20,2024-01-23_07h58.35.888,bars,2023.2.3,Win32,59.88023952,657b66ea316d21385b68909f,,,,,,,,,,,2481.6015,2482.5976,,,2483.0972,2483.3471,,18,18,,,,,,,,,,,,,,,,bars/044.png,bars/mask004.png,,,,,,,,,,,,0,2,,,,,,,6,4,6,6,,,,,,,,,,,2482.5977,2483.0971,2483.3473,2498.2786,space,14.9201,,2498.279,57,43,2499.2774,2499.2774,2499.2965,,,,0,23,23,23,1,75,155,,,,,,,,
,,6152c05b866a2622004014a5,65af5417928510ff1336ce20,2024-01-23_07h58.35.888,bars,2023.2.3,Win32,59.88023952,657b66ea316d21385b68909f,,,,,,,,,,,2499.2969,2500.294,,,2500.7941,2501.0435,,18,18,,,,,,,,,,,,,,,,bars/009.png,bars/mask006.png,,,,,,,,,,,,3,1,,,,,,,4,2,3,1,,,,,,,,,,,2500.2941,2500.7939,2501.0435,2501.9767,space,0.9176,,2501.9768,3,87,2502.9765,2502.9766,2502.9816,,,,0,24,24,24,1,15,105,,,,,,,,
,,6152c05b866a2622004014a5,65af5417928510ff1336ce20,2024-01-23_07h58.35.888,bars,2023.2.3,Win32,59.88023952,657b66ea316d21385b68909f,,,,,,,,,,,2502.982,2503.9764,,,2504.4764,2504.7262,,174,-6,,,,,,,,,,,,,,,,bars/033.png,bars/mask004.png,,,,,,,,,,,,1,2,,,,,,,2,4,2,2,,,,,,,,,,,2503.9765,2504.4764,2504.7262,2509.1234,space,4.3858,,2509.1236,31,19,2510.1231,2510.1233,2510.1426,,,,0,25,25,25,1,25,155,,,,,,,,
,,6152c05b866a2622004014a5,65af5417928510ff1336ce20,2024-01-23_07h58.35.888,bars,2023.2.3,Win32,59.88023952,657b66ea316d21385b68909f,,,,,,,,,,,2510.1433,2511.1483,,,2511.6416,2511.8916,,45,45,,,,,,,,,,,,,,,,bars/046.png,bars/mask009.png,,,,,,,,,,,,0,2,,,,,,,4,6,4,6,,,,,,,,,,,2511.1484,2511.6416,2511.8917,2512.5275,space,0.6267,,2512.5275,70,40,2513.5247,2513.5248,2513.5265,,,,0,26,26,26,1,155,85,,,,,,,,
,,6152c05b866a2622004014a5,65af5417928510ff1336ce20,2024-01-23_07h58.35.888,bars,2023.2.3,Win32,59.88023952,657b66ea316d21385b68909f,,,,,,,,,,,2513.527,2514.5244,,,2515.0243,2515.2742,,18,198,,,,,,,,,,,,,,,,bars/007.png,bars/mask006.png,,,,,,,,,,,,0,1,,,,,,,2,4,1,1,,,,,,,,,,,2514.5245,2515.0242,2515.2743,2518.4566,space,3.169,,2518.4567,23,37,2519.4567,2519.4568,2519.4762,,,,0,27,27,27,1,175,55,,,,,,,,
,,6152c05b866a2622004014a5,65af5417928510ff1336ce20,2024-01-23_07h58.35.888,bars,2023.2.3,Win32,59.88023952,657b66ea316d21385b68909f,,,,,,,,,,,2519.4767,2520.4736,,,2520.9733,2521.2232,,44,44,,,,,,,,,,,,,,,,bars/026.png,bars/mask002.png,,,,,,,,,,,,4,1,,,,,,,4,2,5,3,,,,,,,,,,,2520.4737,2520.9732,2521.2232,2522.2897,space,1.053,,2522.2897,9,41,2523.2893,2523.2893,2523.2913,,,,0,28,28,28,1,35,85,,,,,,,,
,,6152c05b866a2622004014a5,65af5417928510ff1336ce20,2024-01-23_07h58.35.888,bars,2023.2.3,Win32,59.88023952,657b66ea316d21385b68909f,,,,,,,,,,,2523.2922,2524.2891,,,2524.789,2525.0389,,16,16,,,,,,,,,,,,,,,,bars/035.png,bars/mask008.png,,,,,,,,,,,,1,1,,,,,,,2,0,3,0,,,,,,,,,,,2524.2891,2524.7889,2525.0389,2527.4056,space,2.351,,2527.4056,21,44,2528.4053,2528.4053,2528.4217,,,,0,29,29,29,1,175,60,,,,,,,,
,,6152c05b866a2622004014a5,65af5417928510ff1336ce20,2024-01-23_07h58.35.888,bars,2023.2.3,Win32,59.88023952,657b66ea316d21385b68909f,,,,,,,,,,,2528.4228,2529.4227,,,2529.9213,2530.1712,,77,77,,,,,,,,,,,,,,,,bars/001.png,bars/mask002.png,,,,,,,,,,,,0,2,,,,,,,0,0,2,0,,,,,,,,,,,2529.4228,2529.9213,2530.1713,2549.9514,space,19.7649,0.0057,2549.9515,53,8,2550.9504,2550.9505,2550.9733,,,,0,30,30,30,1,130,85,,,,,,,,
,,6152c05b866a2622004014a5,65af5417928510ff1336ce20,2024-01-23_07h58.35.888,bars,2023.2.3,Win32,59.88023952,657b66ea316d21385b68909f,,,,,,,,,,,2550.974,2551.965,,,2552.4651,2552.7152,,153,153,,,,,,,,,,,,,,,,bars/023.png,bars/mask007.png,,,,,,,,,,,,0,2,,,,,,,2,0,1,0,,,,,,,,,,,2551.965,2552.4649,2552.7153,2554.1,space,1.3728,,2554.1003,47,38,2555.0975,2555.0976,2555.1143,,,,0,31,31,31,1,20,115,,,,,,,,
,,6152c05b866a2622004014a5,65af5417928510ff1336ce20,2024-01-23_07h58.35.888,bars,2023.2.3,Win32,59.88023952,657b66ea316d21385b68909f,,,,,,,,,,,2555.1148,2556.1143,,,2556.6142,2556.8642,,173,-7,,,,,,,,,,,,,,,,bars/033.png,bars/mask005.png,,,,,,,,,,,,0,2,,,,,,,0,0,0,0,,,,,,,,,,,2556.1143,2556.6142,2556.8642,2562.2063,space,5.3307,,2562.2063,32,18,2563.196,2563.196,2563.2147,,,,0,32,32,32,1,25,155,,,,,,,,
,,6152c05b866a2622004014a5,65af5417928510ff1336ce20,2024-01-23_07h58.35.888,bars,2023.2.3,Win32,59.88023952,657b66ea316d21385b68909f,,,,,,,,,,,2563.2152,2564.2045,,,2564.7048,2564.9547,,139,139,,,,,,,,,,,,,,,,bars/009.png,bars/mask001.png,,,,,,,,,,,,0,2,,,,,,,0,2,0,2,,,,,,,,,,,2564.2045,2564.7048,2564.9547,2569.8114,space,4.8393,,2569.8115,56,34,2570.8111,2570.8112,2570.8278,,,,0,33,33,33,1,15,105,,,,,,,,
,,6152c05b866a2622004014a5,65af5417928510ff1336ce20,2024-01-23_07h58.35.888,bars,2023.2.3,Win32,59.88023952,657b66ea316d21385b68909f,,,,,,,,,,,2570.8283,2571.8298,,,2572.3299,2572.5798,,29,209,,,,,,,,,,,,,,,,bars/006.png,bars/mask002.png,,,,,,,,,,,,2,1,,,,,,,2,0,2,1,,,,,,,,,,,2571.8299,2572.3299,2572.5798,2579.5954,space,7.0015,,2579.5955,6,71,2580.5948,2580.5948,2580.6158,,,,0,34,34,34,1,35,100,,,,,,,,
,,6152c05b866a2622004014a5,65af5417928510ff1336ce20,2024-01-23_07h58.35.888,bars,2023.2.3,Win32,59.88023952,657b66ea316d21385b68909f,,,,,,,,,,,2580.6162,2581.6092,,,2582.1092,2582.359,,134,134,,,,,,,,,,,,,,,,bars/049.png,bars/mask004.png,,,,,,,,,,,,0,2,,,,,,,0,2,0,1,,,,,,,,,,,2581.6093,2582.109,2582.3591,2585.0594,space,2.6865,,2585.0597,26,19,2586.0505,2586.0507,2586.0688,,,,0,35,35,35,1,160,115,,,,,,,,
,,6152c05b866a2622004014a5,65af5417928510ff1336ce20,2024-01-23_07h58.35.888,bars,2023.2.3,Win32,59.88023952,657b66ea316d21385b68909f,,,,,,,,,,,2586.0692,2587.0581,,,2587.5582,2587.808,,135,135,,,,,,,,,,,,,,,,bars/049.png,bars/mask001.png,,,,,,,,,,,,0,2,,,,,,,2,0,3,0,,,,,,,,,,,2587.0582,2587.5582,2587.8081,2592.2739,space,4.4505,,2592.2741,25,20,2593.2736,2593.2736,2593.2899,,,,0,36,36,36,1,160,115,,,,,,,,
,,6152c05b866a2622004014a5,65af5417928510ff1336ce20,2024-01-23_07h58.35.888,bars,2023.2.3,Win32,59.88023952,657b66ea316d21385b68909f,,,,,,,,,,,2593.2904,2594.2901,,,2594.7901,2595.0399,,121,121,,,,,,,,,,,,,,,,bars/030.png,bars/mask006.png,,,,,,,,,,,,2,1,,,,,,,4,2,5,1,,,,,,,,,,,2594.2902,2594.79,2595.04,2597.7736,space,2.7207,,2597.7739,19,56,2598.773,2598.7733,2598.791,,,,0,37,37,37,1,140,65,,,,,,,,
,,6152c05b866a2622004014a5,65af5417928510ff1336ce20,2024-01-23_07h58.35.888,bars,2023.2.3,Win32,59.88023952,657b66ea316d21385b68909f,,,,,,,,,,,2598.7915,2599.7813,,,2600.2732,2600.5222,,22,202,,,,,,,,,,,,,,,,bars/022.png,bars/mask000.png,,,,,,,,,,,,5,2,,,,,,,2,4,2,5,,,,,,,,,,,2599.7814,2600.2729,2600.5223,2603.6383,space,3.1022,,2603.6385,73,2,2604.6301,2604.6304,2604.6483,,,,0,38,38,38,1,95,20,,,,,,,,
,,6152c05b866a2622004014a5,65af5417928510ff1336ce20,2024-01-23_07h58.35.888,bars,2023.2.3,Win32,59.88023952,657b66ea316d21385b68909f,,,,,,,,,,,2604.6488,2605.638,,,2606.1382,2606.3877,,19,19,,,,,,,,,,,,,,,,bars/023.png,bars/mask006.png,,,,,,,,,,,,3,1,,,,,,,4,6,3,6,,,,,,,,,,,2605.638,2606.1381,2606.3877,2607.8878,space,1.4851,,2607.8879,1,84,2608.8872,2608.8873,2608.8932,,,,0,39,39,39,1,20,115,,,,,,,,
,,6152c05b866a2622004014a5,65af5417928510ff1336ce20,2024-01-23_07h58.35.888,bars,2023.2.3,Win32,59.88023952,657b66ea316d21385b68909f,,,,,,,,,,,2608.8937,2609.8871,,,2610.3869,2610.6369,,39,39,,,,,,,,,,,,,,,,bars/047.png,bars/mask002.png,,,,,,,,,,,,0,1,,,,,,,2,4,1,3,,,,,,,,,,,2609.8871,2610.3867,2610.637,2615.6025,space,4.9503,,2615.6026,24,31,2616.6023,2616.6024,2616.6198,,,,0,40,40,40,1,15,70,,,,,,,,
,,6152c05b866a2622004014a5,65af5417928510ff1336ce20,2024-01-23_07h58.35.888,bars,2023.2.3,Win32,59.88023952,657b66ea316d21385b68909f,,,,,,,,,,,2616.6203,2617.6108,,,2618.1023,2618.3519,,27,27,,,,,,,,,,,,,,,,bars/007.png,bars/mask008.png,,,,,,,,,,,,0,2,,,,,,,4,2,3,2,,,,,,,,,,,2617.611,2618.1021,2618.3521,2619.2357,space,0.8678,,2619.2357,32,28,2620.235,2620.235,2620.2412,,,,0,41,41,41,1,175,55,,,,,,,,
,,6152c05b866a2622004014a5,65af5417928510ff1336ce20,2024-01-23_07h58.35.888,bars,2023.2.3,Win32,59.88023952,657b66ea316d21385b68909f,,,,,,,,,,,2620.2416,2621.2349,,,2621.7348,2621.9847,,43,43,,,,,,,,,,,,,,,,bars/029.png,bars/mask009.png,,,,,,,,,,,,1,2,,,,,,,6,0,7,1,,,,,,,,,,,2621.2349,2621.7347,2621.9847,2627.71,space,5.7137,,2627.7101,47,2,2628.7094,2628.7095,2628.7349,,,,0,42,42,42,1,90,45,,,,,,,,
,,6152c05b866a2622004014a5,65af5417928510ff1336ce20,2024-01-23_07h58.35.888,bars,2023.2.3,Win32,59.88023952,657b66ea316d21385b68909f,,,,,,,,,,,2628.7354,2629.7265,,,2630.2168,2630.4666,,159,159,,,,,,,,,,,,,,,,bars/012.png,bars/mask003.png,,,,,,,,,,,,0,2,,,,,,,4,0,6,0,,,,,,,,,,,2629.7268,2630.2168,2630.4668,2638.5839,space,8.1039,,2638.584,69,36,2639.5816,2639.5816,2639.5993,,,,0,43,43,43,1,90,15,,,,,,,,
,,6152c05b866a2622004014a5,65af5417928510ff1336ce20,2024-01-23_07h58.35.888,bars,2023.2.3,Win32,59.88023952,657b66ea316d21385b68909f,,,,,,,,,,,2639.5997,2640.5906,,,2641.0897,2641.3397,,164,-16,,,,,,,,,,,,,,,,bars/018.png,bars/mask003.png,,,,,,,,,,,,1,1,,,,,,,2,0,2,0,,,,,,,,,,,2640.5907,2641.0896,2641.3398,2645.3733,space,4.0177,,2645.3734,14,74,2646.3634,2646.3635,2646.3821,,,,0,44,44,44,1,150,90,,,,,,,,
,,6152c05b866a2622004014a5,65af5417928510ff1336ce20,2024-01-23_07h58.35.888,bars,2023.2.3,Win32,59.88023952,657b66ea316d21385b68909f,,,,,,,,,,,2646.3825,2647.3717,,,2647.8718,2648.1127,,25,205,,,,,,,,,,,,,,,,bars/013.png,bars/mask001.png,,,,,,,,,,,,1,2,,,,,,,0,0,0,2,,,,,,,,,,,2647.3717,2647.8716,2648.1128,2652.6475,space,4.523,,2652.6475,50,15,2653.645,2653.645,2653.6635,,,,0,45,45,45,1,75,10,,,,,,,,
,,6152c05b866a2622004014a5,65af5417928510ff1336ce20,2024-01-23_07h58.35.888,bars,2023.2.3,Win32,59.88023952,657b66ea316d21385b68909f,,,,,,,,,,,2653.664,2654.6616,,,2655.1625,2655.4115,,24,204,,,,,,,,,,,,,,,,bars/047.png,bars/mask008.png,,,,,,,,,,,,1,1,,,,,,,2,2,2,1,,,,,,,,,,,2654.6617,2655.1624,2655.4116,2659.3121,space,3.8856,0.0008,2659.3121,9,46,2660.3105,2660.3105,2660.3289,,,,0,46,46,46,1,15,70,,,,,,,,
,,6152c05b866a2622004014a5,65af5417928510ff1336ce20,2024-01-23_07h58.35.888,bars,2023.2.3,Win32,59.88023952,657b66ea316d21385b68909f,,,,,,,,,,,2660.3292,2661.3269,,,2661.8269,2662.0767,,159,159,,,,,,,,,,,,,,,,bars/031.png,bars/mask005.png,,,,,,,,,,,,0,1,,,,,,,4,0,5,1,,,,,,,,,,,2661.327,2661.8269,2662.0768,2663.26,space,1.1684,,2663.2602,39,56,2664.2601,2664.2602,2664.2632,,,,0,47,47,47,1,120,35,,,,,,,,
,,6152c05b866a2622004014a5,65af5417928510ff1336ce20,2024-01-23_07h58.35.888,bars,2023.2.3,Win32,59.88023952,657b66ea316d21385b68909f,,,,,,,,,,,2664.264,2665.2595,,,2665.7595,2666.0096,,38,38,,,,,,,,,,,,,,,,bars/022.png,bars/mask006.png,,,,,,,,,,,,1,2,,,,,,,6,2,7,3,,,,,,,,,,,2665.2596,2665.7594,2666.0098,2666.9119,space,0.8906,,2666.9119,57,18,2667.9008,2667.9009,2667.9061,,,,0,48,48,48,1,95,20,,,,,,,,
,,6152c05b866a2622004014a5,65af5417928510ff1336ce20,2024-01-23_07h58.35.888,bars,2023.2.3,Win32,59.88023952,657b66ea316d21385b68909f,,,,,,,,,,,2667.9066,2668.9003,,,2669.3997,2669.6501,,37,217,,,,,,,,,,,,,,,,bars/025.png,bars/mask003.png,,,,,,,,,,,,4,2,,,,,,,4,4,3,4,,,,,,,,,,,2668.9003,2669.3996,2669.6501,2677.975,space,8.3076,,2677.9751,68,3,2678.9735,2678.9735,2678.9911,,,,0,49,49,49,1,105,40,,,,,,,,
,,6152c05b866a2622004014a5,65af5417928510ff1336ce20,2024-01-23_07h58.35.888,bars,2023.2.3,Win32,59.88023952,657b66ea316d21385b68909f,,,,,,,,,,,,,,,,,,,,,,,,,,,,,,,,,,,,,,,,,,,,,,,,,,,,,,,,,,,,,,,,,,,,,,,,,,,,,,,,,,,,,,,,,,,,,2678.9915,2738.9876,0,3,3,3,1,sequence_tables/blk023.csv
,,6152c05b866a2622004014a5,65af5417928510ff1336ce20,2024-01-23_07h58.35.888,bars,2023.2.3,Win32,59.88023952,657b66ea316d21385b68909f,,,,,,,,,,,2747.1354,2748.11,,,2748.6104,2748.8599,,25,25,,,,,,,,,,,,,,,,bars/006.png,bars/mask006.png,,,,,,,,,,,,2,1,,,,,,,4,7,3,7,,,,,,2739.0062,2747.1037,space,8.0833,,2748.1101,2748.6103,2748.8599,2753.059,space,4.1833,,2753.0593,10,75,2754.0506,2754.0506,2754.0695,,,,0,0,0,0,1,35,100,,,,,,,,
,,6152c05b866a2622004014a5,65af5417928510ff1336ce20,2024-01-23_07h58.35.888,bars,2023.2.3,Win32,59.88023952,657b66ea316d21385b68909f,,,,,,,,,,,2754.07,2755.0587,,,2755.5585,2755.8085,,62,62,,,,,,,,,,,,,,,,bars/026.png,bars/mask009.png,,,,,,,,,,,,1,2,,,,,,,6,5,7,5,,,,,,,,,,,2755.0588,2755.5585,2755.8085,2756.7252,space,0.9022,,2756.7254,27,23,2757.7267,2757.7268,2757.731,,,,0,1,1,1,1,35,85,,,,,,,,
,,6152c05b866a2622004014a5,65af5417928510ff1336ce20,2024-01-23_07h58.35.888,bars,2023.2.3,Win32,59.88023952,657b66ea316d21385b68909f,,,,,,,,,,,2757.7316,2758.7267,,,2759.2265,2759.4766,,127,127,,,,,,,,,,,,,,,,bars/025.png,bars/mask000.png,,,,,,,,,,,,1,1,,,,,,,4,3,4,4,,,,,,,,,,,2758.7268,2759.2264,2759.4767,2763.3924,space,3.9004,,2763.3925,22,87,2764.3923,2764.3923,2764.4129,,,,0,2,2,2,1,105,40,,,,,,,,
,,6152c05b866a2622004014a5,65af5417928510ff1336ce20,2024-01-23_07h58.35.888,bars,2023.2.3,Win32,59.88023952,657b66ea316d21385b68909f,,,,,,,,,,,2764.4134,2765.4072,,,2765.907,2766.1567,,18,198,,,,,,,,,,,,,,,,bars/022.png,bars/mask001.png,,,,,,,,,,,,5,2,,,,,,,2,5,2,5,,,,,,,,,,,2765.4072,2765.907,2766.1567,2771.382,space,5.2138,,2771.3821,77,2,2772.372,2772.3721,2772.3907,,,,0,3,3,3,1,95,20,,,,,,,,
,,6152c05b866a2622004014a5,65af5417928510ff1336ce20,2024-01-23_07h58.35.888,bars,2023.2.3,Win32,59.88023952,657b66ea316d21385b68909f,,,,,,,,,,,2772.3912,2773.3972,,,2773.8882,2774.1385,,17,17,,,,,,,,,,,,,,,,bars/035.png,bars/mask006.png,,,,,,,,,,,,0,1,,,,,,,0,3,1,4,,,,,,,,,,,2773.3972,2773.8881,2774.1386,2778.7209,space,4.5667,,2778.7211,22,43,2779.7043,2779.7044,2779.7241,,,,0,4,4,4,1,175,60,,,,,,,,
,,6152c05b866a2622004014a5,65af5417928510ff1336ce20,2024-01-23_07h58.35.888,bars,2023.2.3,Win32,59.88023952,657b66ea316d21385b68909f,,,,,,,,,,,2779.7247,2780.7294,,,2781.2203,2781.4702,,27,27,,,,,,,,,,,,,,,,bars/014.png,bars/mask009.png,,,,,,,,,,,,0,2,,,,,,,0,5,0,2,,,,,,,,,,,2780.7294,2781.2202,2781.4704,2785.2371,space,3.7519,,2785.2371,53,27,2786.2359,2786.2359,2786.2549,,,,0,5,5,5,1,80,0,,,,,,,,
,,6152c05b866a2622004014a5,65af5417928510ff1336ce20,2024-01-23_07h58.35.888,bars,2023.2.3,Win32,59.88023952,657b66ea316d21385b68909f,,,,,,,,,,,2786.2553,2787.2523,,,2787.7523,2788.0022,,143,143,,,,,,,,,,,,,,,,bars/037.png,bars/mask002.png,,,,,,,,,,,,2,1,,,,,,,2,7,3,6,,,,,,,,,,,2787.2523,2787.7522,2788.0023,2794.5679,space,6.5508,,2794.5681,7,38,2795.5593,2795.5594,2795.5793,,,,0,6,6,6,1,150,105,,,,,,,,
,,6152c05b866a2622004014a5,65af5417928510ff1336ce20,2024-01-23_07h58.35.888,bars,2023.2.3,Win32,59.88023952,657b66ea316d21385b68909f,,,,,,,,,,,2795.5797,2796.5675,,,2797.0675,2797.3171,,91,91,,,,,,,,,,,,,,,,bars/031.png,bars/mask007.png,,,,,,,,,,,,0,1,,,,,,,0,9,0,9,,,,,,,,,,,2796.5675,2797.0673,2797.3172,2807.3154,space,9.9823,,2807.3155,29,56,2808.3074,2808.3075,2808.3251,,,,0,7,7,7,1,120,35,,,,,,,,
,,6152c05b866a2622004014a5,65af5417928510ff1336ce20,2024-01-23_07h58.35.888,bars,2023.2.3,Win32,59.88023952,657b66ea316d21385b68909f,,,,,,,,,,,2808.3255,2809.3146,,,2809.8174,2810.0645,,107,107,,,,,,,,,,,,,,,,bars/002.png,bars/mask009.png,,,,,,,,,,,,3,2,,,,,,,0,10,0,10,,,,,,,,,,,2809.3147,2809.8174,2810.0646,2811.1812,space,1.1038,,2811.1812,23,22,2812.1808,2812.1808,2812.1864,,,,0,8,8,8,1,130,85,,,,,,,,
,,6152c05b866a2622004014a5,65af5417928510ff1336ce20,2024-01-23_07h58.35.888,bars,2023.2.3,Win32,59.88023952,657b66ea316d21385b68909f,,,,,,,,,,,2812.1869,2813.1807,,,2813.6728,2813.9228,,166,166,,,,,,,,,,,,,,,,bars/017.png,bars/mask007.png,,,,,,,,,,,,1,1,,,,,,,2,10,2,10,,,,,,,,,,,2813.1808,2813.6727,2813.9228,2819.1793,space,5.2369,,2819.1796,21,59,2820.1745,2820.1746,2820.193,,,,0,9,9,9,1,145,45,,,,,,,,
,,6152c05b866a2622004014a5,65af5417928510ff1336ce20,2024-01-23_07h58.35.888,bars,2023.2.3,Win32,59.88023952,657b66ea316d21385b68909f,,,,,,,,,,,2820.1934,2821.1877,,,2821.6877,2821.9377,,53,53,,,,,,,,,,,,,,,,bars/012.png,bars/mask008.png,,,,,,,,,,,,0,1,,,,,,,4,10,4,10,,,,,,,,,,,2821.1877,2821.6877,2821.9379,2834.4598,space,12.502,,2834.4599,37,38,2835.4596,2835.4597,2835.4787,,,,0,10,10,10,1,90,15,,,,,,,,
