init_variables.started,init_variables.stopped,participant,session,date,expName,psychopyVersion,OS,frameRate,study_id,instruction_exp.started,instruction_exp.stopped,key_resp_8.keys,key_resp_8.rt,key_resp_8.duration,instruction_single.started,instruction_single.stopped,key_resp_2.keys,key_resp_2.rt,key_resp_2.duration,interval.started,interval.stopped,cue_single.started,cue_single.stopped,mask.started,mask.stopped,ori_response_single.started,res_ori,res,ori_response_single.stopped,key_resp_single.keys,key_resp_single.rt,key_resp_single.duration,disp_single.started,disp_single.stopped,key_resp.keys,key_resp.rt,key_resp.duration,single.thisRepN,single.thisTrialN,single.thisN,single.thisIndex,single.ran,ori,path,mask_path,instruction_bandit.started,instruction_bandit.stopped,key_resp_6.keys,key_resp_6.rt,key_resp_6.duration,cue_bandit.started,cue_bandit.stopped,bandit_res.keys,bandit_res.rt,bandit_res.duration,outcome_bandit.started,rew,action,outcome_bandit.stopped,bandit.thisRepN,bandit.thisTrialN,bandit.thisN,bandit.thisIndex,bandit.ran,actual_rew1,actual_rew2,rew1,rew2,instruction_task.started,instruction_task.stopped,key_resp_7.keys,key_resp_7.rt,key_resp_7.duration,wait_ready.started,wait_ready.stopped,key_resp_3.keys,key_resp_3.rt,key_resp_3.duration,cue.started,cue.stopped,ori_response.started,ori_response.stopped,key_resp_5.keys,key_resp_5.rt,key_resp_5.duration,outcome.started,diff1,diff2,outcome.stopped,disp_outcome_practice.started,disp_outcome_practice.stopped,key_resp_4.keys,key_resp_4.rt,key_resp_4.duration,trials.thisRepN,trials.thisTrialN,trials.thisN,trials.thisIndex,trials.ran,ori1,ori2,break_blk.started,break_blk.stopped,block.thisRepN,block.thisTrialN,block.thisN,block.thisIndex,block.ran,condition_file
0.0006,0.001,60ddab2b1e7d0214f4782018,65af548978b86183ca316f5d,2024-01-23_08h08.24.136,bars,2023.2.3,Win32,59.52380952,657b66ea316d21385b68909f,,,,,,,,,,,,,,,,,,,,,,,,,,,,,,,,,,,,,,,,,,,,,,,,,,,,,,,,,,,,,,,,,,,,,,,,,,,,,,,,,,,,,,,,,,,,,,,,,,,,
,,60ddab2b1e7d0214f4782018,65af548978b86183ca316f5d,2024-01-23_08h08.24.136,bars,2023.2.3,Win32,59.52380952,657b66ea316d21385b68909f,0.0013,10.0746,y,10.0381,,,,,,,,,,,,,,,,,,,,,,,,,,,,,,,,,,,,,,,,,,,,,,,,,,,,,,,,,,,,,,,,,,,,,,,,,,,,,,,,,,,,,,,,,,,,,,,,
,,60ddab2b1e7d0214f4782018,65af548978b86183ca316f5d,2024-01-23_08h08.24.136,bars,2023.2.3,Win32,59.52380952,657b66ea316d21385b68909f,,,,,,10.0751,22.5937,space,12.4908,,,,,,,,,,,,,,,,,,,,,,,,,,,,,,,,,,,,,,,,,,,,,,,,,,,,,,,,,,,,,,,,,,,,,,,,,,,,,,,,,,,,,,,,,,,
,,60ddab2b1e7d0214f4782018,65af548978b86183ca316f5d,2024-01-23_08h08.24.136,bars,2023.2.3,Win32,59.52380952,657b66ea316d21385b68909f,,,,,,,,,,,22.609,23.6176,23.6179,24.1046,24.1048,24.3474,24.3476,174,174,32.4065,space,8.0153,,32.4073,41.0331,space,8.5761,,0,0,0,1,1,20,bars/single001.png,bars/mask006.png,,,,,,,,,,,,,,,,,,,,,,,,,,,,,,,,,,,,,,,,,,,,,,,,,,,,,,,,,,,,,,,,
,,60ddab2b1e7d0214f4782018,65af548978b86183ca316f5d,2024-01-23_08h08.24.136,bars,2023.2.3,Win32,59.52380952,657b66ea316d21385b68909f,,,,,,,,,,,41.0538,42.0427,42.0429,42.5361,42.5361,42.7789,42.7789,31,31,55.9619,space,13.1608,,55.9619,66.9696,space,10.9634,,0,1,1,2,1,145,bars/single002.png,bars/mask003.png,,,,,,,,,,,,,,,,,,,,,,,,,,,,,,,,,,,,,,,,,,,,,,,,,,,,,,,,,,,,,,,,
,,60ddab2b1e7d0214f4782018,65af548978b86183ca316f5d,2024-01-23_08h08.24.136,bars,2023.2.3,Win32,59.52380952,657b66ea316d21385b68909f,,,,,,,,,,,66.9894,67.9813,67.9815,68.4862,68.4863,68.7215,68.7215,31,31,79.5348,space,10.7907,,79.5348,87.6879,space,8.1106,,0,2,2,9,1,20,bars/single009.png,bars/mask006.png,,,,,,,,,,,,,,,,,,,,,,,,,,,,,,,,,,,,,,,,,,,,,,,,,,,,,,,,,,,,,,,,
,,60ddab2b1e7d0214f4782018,65af548978b86183ca316f5d,2024-01-23_08h08.24.136,bars,2023.2.3,Win32,59.52380952,657b66ea316d21385b68909f,,,,,,,,,,,87.7069,88.706,88.706,89.2045,89.2046,89.438,89.4382,63,63,96.7194,space,7.2589,,96.7194,102.5739,space,5.8115,,0,3,3,5,1,55,bars/single005.png,bars/mask008.png,,,,,,,,,,,,,,,,,,,,,,,,,,,,,,,,,,,,,,,,,,,,,,,,,,,,,,,,,,,,,,,,
,,60ddab2b1e7d0214f4782018,65af548978b86183ca316f5d,2024-01-23_08h08.24.136,bars,2023.2.3,Win32,59.52380952,657b66ea316d21385b68909f,,,,,,,,,,,102.5757,103.5767,103.5768,104.0682,104.0682,104.3119,104.3119,21,21,109.3822,space,5.048,,109.3823,115.1309,space,5.7102,,0,4,4,3,1,20,bars/single003.png,bars/mask005.png,,,,,,,,,,,,,,,,,,,,,,,,,,,,,,,,,,,,,,,,,,,,,,,,,,,,,,,,,,,,,,,,
,,60ddab2b1e7d0214f4782018,65af548978b86183ca316f5d,2024-01-23_08h08.24.136,bars,2023.2.3,Win32,59.52380952,657b66ea316d21385b68909f,,,,,,,,,,,115.1498,116.1458,116.1458,116.6351,116.6351,116.8745,116.8745,31,211,125.5129,space,8.6166,,125.5134,139.3009,space,13.7474,,0,5,5,7,1,45,bars/single007.png,bars/mask009.png,,,,,,,,,,,,,,,,,,,,,,,,,,,,,,,,,,,,,,,,,,,,,,,,,,,,,,,,,,,,,,,,
,,60ddab2b1e7d0214f4782018,65af548978b86183ca316f5d,2024-01-23_08h08.24.136,bars,2023.2.3,Win32,59.52380952,657b66ea316d21385b68909f,,,,,,,,,,,139.3231,140.3091,140.3092,140.8098,140.8099,141.0512,141.0512,143,143,148.797,space,7.7228,,148.797,156.0817,space,7.2427,,0,6,6,8,1,160,bars/single008.png,bars/mask004.png,,,,,,,,,,,,,,,,,,,,,,,,,,,,,,,,,,,,,,,,,,,,,,,,,,,,,,,,,,,,,,,,
,,60ddab2b1e7d0214f4782018,65af548978b86183ca316f5d,2024-01-23_08h08.24.136,bars,2023.2.3,Win32,59.52380952,657b66ea316d21385b68909f,,,,,,,,,,,156.1008,157.0954,157.0956,157.5883,157.5884,157.8466,157.8467,161,161,166.7793,space,8.9114,,166.7794,201.6543,space,34.832,,0,7,7,0,1,150,bars/single000.png,bars/mask006.png,,,,,,,,,,,,,,,,,,,,,,,,,,,,,,,,,,,,,,,,,,,,,,,,,,,,,,,,,,,,,,,,
,,60ddab2b1e7d0214f4782018,65af548978b86183ca316f5d,2024-01-23_08h08.24.136,bars,2023.2.3,Win32,59.52380952,657b66ea316d21385b68909f,,,,,,,,,,,201.6759,202.6573,202.6574,203.1337,203.1337,203.3752,203.3752,175,175,217.8753,space,14.4786,,217.8762,222.6521,space,4.734,,0,8,8,6,1,175,bars/single006.png,bars/mask005.png,,,,,,,,,,,,,,,,,,,,,,,,,,,,,,,,,,,,,,,,,,,,,,,,,,,,,,,,,,,,,,,,
,,60ddab2b1e7d0214f4782018,65af548978b86183ca316f5d,2024-01-23_08h08.24.136,bars,2023.2.3,Win32,59.52380952,657b66ea316d21385b68909f,,,,,,,,,,,222.6722,223.6476,223.6478,224.1233,224.1234,224.371,224.3711,92,92,234.5719,space,10.1796,,234.572,239.0258,space,4.4111,,0,9,9,4,1,95,bars/single004.png,bars/mask004.png,,,,,,,,,,,,,,,,,,,,,,,,,,,,,,,,,,,,,,,,,,,,,,,,,,,,,,,,,,,,,,,,
,,60ddab2b1e7d0214f4782018,65af548978b86183ca316f5d,2024-01-23_08h08.24.136,bars,2023.2.3,Win32,59.52380952,657b66ea316d21385b68909f,,,,,,,,,,,,,,,,,,,,,,,,,,,,,,,,,,,,,239.0464,255.5764,space,16.4725,,,,,,,,,,,,,,,,,,,,,,,,,,,,,,,,,,,,,,,,,,,,,,,,,,,,,,,,,,,,
,,60ddab2b1e7d0214f4782018,65af548978b86183ca316f5d,2024-01-23_08h08.24.136,bars,2023.2.3,Win32,59.52380952,657b66ea316d21385b68909f,,,,,,,,,,,,,,,,,,,,,,,,,,,,,,,,,,,,,,,,,,255.6038,273.7229,left,18.0867,,273.7233,9,1,274.7339,0,0,0,0,1,9,1,9,2,,,,,,,,,,,,,,,,,,,,,,,,,,,,,,,,,,,,,,,,,
,,60ddab2b1e7d0214f4782018,65af548978b86183ca316f5d,2024-01-23_08h08.24.136,bars,2023.2.3,Win32,59.52380952,657b66ea316d21385b68909f,,,,,,,,,,,,,,,,,,,,,,,,,,,,,,,,,,,,,,,,,,274.7355,277.2711,left,2.5181,,277.2712,10,1,278.2713,0,1,1,1,1,10,0,10,1,,,,,,,,,,,,,,,,,,,,,,,,,,,,,,,,,,,,,,,,,
,,60ddab2b1e7d0214f4782018,65af548978b86183ca316f5d,2024-01-23_08h08.24.136,bars,2023.2.3,Win32,59.52380952,657b66ea316d21385b68909f,,,,,,,,,,,,,,,,,,,,,,,,,,,,,,,,,,,,,,,,,,278.2722,279.9145,left,1.6233,,279.9146,10,1,280.9188,0,2,2,2,1,10,2,10,2,,,,,,,,,,,,,,,,,,,,,,,,,,,,,,,,,,,,,,,,,
,,60ddab2b1e7d0214f4782018,65af548978b86183ca316f5d,2024-01-23_08h08.24.136,bars,2023.2.3,Win32,59.52380952,657b66ea316d21385b68909f,,,,,,,,,,,,,,,,,,,,,,,,,,,,,,,,,,,,,,,,,,280.9196,282.7894,left,1.8411,,282.7894,7,1,283.7816,0,3,3,3,1,8,4,7,3,,,,,,,,,,,,,,,,,,,,,,,,,,,,,,,,,,,,,,,,,
,,60ddab2b1e7d0214f4782018,65af548978b86183ca316f5d,2024-01-23_08h08.24.136,bars,2023.2.3,Win32,59.52380952,657b66ea316d21385b68909f,,,,,,,,,,,,,,,,,,,,,,,,,,,,,,,,,,,,,,,,,,283.7828,289.572,right,5.7657,,289.5722,1,2,290.55,0,4,4,4,1,6,2,5,1,,,,,,,,,,,,,,,,,,,,,,,,,,,,,,,,,,,,,,,,,
,,60ddab2b1e7d0214f4782018,65af548978b86183ca316f5d,2024-01-23_08h08.24.136,bars,2023.2.3,Win32,59.52380952,657b66ea316d21385b68909f,,,,,,,,,,,,,,,,,,,,,,,,,,,,,,,,,,,,,,,,,,290.5719,292.5027,left,1.9153,,292.5028,4,1,293.5025,0,5,5,5,1,4,4,4,4,,,,,,,,,,,,,,,,,,,,,,,,,,,,,,,,,,,,,,,,,
,,60ddab2b1e7d0214f4782018,65af548978b86183ca316f5d,2024-01-23_08h08.24.136,bars,2023.2.3,Win32,59.52380952,657b66ea316d21385b68909f,,,,,,,,,,,,,,,,,,,,,,,,,,,,,,,,,,,,,,,,,,293.5039,295.7234,left,2.1978,,295.7234,1,1,296.7258,0,6,6,6,1,2,2,1,2,,,,,,,,,,,,,,,,,,,,,,,,,,,,,,,,,,,,,,,,,
,,60ddab2b1e7d0214f4782018,65af548978b86183ca316f5d,2024-01-23_08h08.24.136,bars,2023.2.3,Win32,59.52380952,657b66ea316d21385b68909f,,,,,,,,,,,,,,,,,,,,,,,,,,,,,,,,,,,,,,,,,,296.7447,297.644,right,0.8839,,297.644,1,2,298.6344,0,7,7,7,1,0,0,0,1,,,,,,,,,,,,,,,,,,,,,,,,,,,,,,,,,,,,,,,,,
,,60ddab2b1e7d0214f4782018,65af548978b86183ca316f5d,2024-01-23_08h08.24.136,bars,2023.2.3,Win32,59.52380952,657b66ea316d21385b68909f,,,,,,,,,,,,,,,,,,,,,,,,,,,,,,,,,,,,,,,,,,298.6349,299.2379,right,0.5787,,299.238,0,2,300.2299,0,8,8,8,1,0,2,1,0,,,,,,,,,,,,,,,,,,,,,,,,,,,,,,,,,,,,,,,,,
,,60ddab2b1e7d0214f4782018,65af548978b86183ca316f5d,2024-01-23_08h08.24.136,bars,2023.2.3,Win32,59.52380952,657b66ea316d21385b68909f,,,,,,,,,,,,,,,,,,,,,,,,,,,,,,,,,,,,,,,,,,300.2308,302.1094,right,1.8569,,302.1096,3,2,303.1037,0,9,9,9,1,2,4,2,3,,,,,,,,,,,,,,,,,,,,,,,,,,,,,,,,,,,,,,,,,
,,60ddab2b1e7d0214f4782018,65af548978b86183ca316f5d,2024-01-23_08h08.24.136,bars,2023.2.3,Win32,59.52380952,657b66ea316d21385b68909f,,,,,,,,,,,,,,,,,,,,,,,,,,,,,,,,,,,,,,,,,,303.1227,304.2515,right,1.1103,,304.2515,3,2,305.2453,0,10,10,10,1,0,2,0,3,,,,,,,,,,,,,,,,,,,,,,,,,,,,,,,,,,,,,,,,,
,,60ddab2b1e7d0214f4782018,65af548978b86183ca316f5d,2024-01-23_08h08.24.136,bars,2023.2.3,Win32,59.52380952,657b66ea316d21385b68909f,,,,,,,,,,,,,,,,,,,,,,,,,,,,,,,,,,,,,,,,,,305.2463,306.6112,right,1.3427,,306.6112,3,2,307.6202,0,11,11,11,1,0,4,0,3,,,,,,,,,,,,,,,,,,,,,,,,,,,,,,,,,,,,,,,,,
,,60ddab2b1e7d0214f4782018,65af548978b86183ca316f5d,2024-01-23_08h08.24.136,bars,2023.2.3,Win32,59.52380952,657b66ea316d21385b68909f,,,,,,,,,,,,,,,,,,,,,,,,,,,,,,,,,,,,,,,,,,307.6211,308.3496,right,0.7067,,308.3497,6,2,309.3441,0,12,12,12,1,2,6,1,6,,,,,,,,,,,,,,,,,,,,,,,,,,,,,,,,,,,,,,,,,
,,60ddab2b1e7d0214f4782018,65af548978b86183ca316f5d,2024-01-23_08h08.24.136,bars,2023.2.3,Win32,59.52380952,657b66ea316d21385b68909f,,,,,,,,,,,,,,,,,,,,,,,,,,,,,,,,,,,,,,,,,,309.3451,309.949,right,0.5852,,309.949,3,2,310.9595,0,13,13,13,1,0,4,1,3,,,,,,,,,,,,,,,,,,,,,,,,,,,,,,,,,,,,,,,,,
,,60ddab2b1e7d0214f4782018,65af548978b86183ca316f5d,2024-01-23_08h08.24.136,bars,2023.2.3,Win32,59.52380952,657b66ea316d21385b68909f,,,,,,,,,,,,,,,,,,,,,,,,,,,,,,,,,,,,,,,,,,310.9605,314.8769,right,3.8945,,314.8769,7,2,315.8666,0,14,14,14,1,2,6,2,7,,,,,,,,,,,,,,,,,,,,,,,,,,,,,,,,,,,,,,,,,
,,60ddab2b1e7d0214f4782018,65af548978b86183ca316f5d,2024-01-23_08h08.24.136,bars,2023.2.3,Win32,59.52380952,657b66ea316d21385b68909f,,,,,,,,,,,,,,,,,,,,,,,,,,,,,,,,,,,,,,,,,,315.886,318.098,right,2.1959,,318.0981,9,2,319.0838,0,15,15,15,1,4,8,3,9,,,,,,,,,,,,,,,,,,,,,,,,,,,,,,,,,,,,,,,,,
,,60ddab2b1e7d0214f4782018,65af548978b86183ca316f5d,2024-01-23_08h08.24.136,bars,2023.2.3,Win32,59.52380952,657b66ea316d21385b68909f,,,,,,,,,,,,,,,,,,,,,,,,,,,,,,,,,,,,,,,,,,319.1028,320.2961,right,1.1756,,320.2962,7,2,321.2845,0,16,16,16,1,6,6,7,7,,,,,,,,,,,,,,,,,,,,,,,,,,,,,,,,,,,,,,,,,
,,60ddab2b1e7d0214f4782018,65af548978b86183ca316f5d,2024-01-23_08h08.24.136,bars,2023.2.3,Win32,59.52380952,657b66ea316d21385b68909f,,,,,,,,,,,,,,,,,,,,,,,,,,,,,,,,,,,,,,,,,,321.2856,361.058,right,39.756,,361.0583,5,2,362.0594,0,17,17,17,1,8,4,9,5,,,,,,,,,,,,,,,,,,,,,,,,,,,,,,,,,,,,,,,,,
,,60ddab2b1e7d0214f4782018,65af548978b86183ca316f5d,2024-01-23_08h08.24.136,bars,2023.2.3,Win32,59.52380952,657b66ea316d21385b68909f,,,,,,,,,,,,,,,,,,,,,,,,,,,,,,,,,,,,,,,,,,362.0801,362.9609,right,0.8652,,362.9609,1,2,363.9643,0,18,18,18,1,6,2,5,1,,,,,,,,,,,,,,,,,,,,,,,,,,,,,,,,,,,,,,,,,
,,60ddab2b1e7d0214f4782018,65af548978b86183ca316f5d,2024-01-23_08h08.24.136,bars,2023.2.3,Win32,59.52380952,657b66ea316d21385b68909f,,,,,,,,,,,,,,,,,,,,,,,,,,,,,,,,,,,,,,,,,,363.9651,374.9133,left,10.9265,,374.9134,7,1,375.8993,0,19,19,19,1,8,0,7,0,,,,,,,,,,,,,,,,,,,,,,,,,,,,,,,,,,,,,,,,,
,,60ddab2b1e7d0214f4782018,65af548978b86183ca316f5d,2024-01-23_08h08.24.136,bars,2023.2.3,Win32,59.52380952,657b66ea316d21385b68909f,,,,,,,,,,,,,,,,,,,,,,,,,,,,,,,,,,,,,,,,,,,,,,,,,,,,,,,,,,,,375.9015,387.9502,space,12.0223,,,,,,,,,,,,,,,,,,,,,,,,,,,,,,,,,,,,,
,,60ddab2b1e7d0214f4782018,65af548978b86183ca316f5d,2024-01-23_08h08.24.136,bars,2023.2.3,Win32,59.52380952,657b66ea316d21385b68909f,,,,,,,,,,,389.606,390.6013,,,391.1024,391.3528,,6,186,,,,,,,,,,,,,,,,bars/012.png,bars/mask001.png,,,,,,,,,,,,5,2,,,,,,,5,8,5,7,,,,,,387.975,389.5967,space,1.6022,,390.6017,391.1024,391.3532,402.5426,space,11.1629,,402.5434,84,9,403.5458,403.5461,436.5576,space,32.9758,,0,0,0,0,1,90,15,,,,,,,,
,,60ddab2b1e7d0214f4782018,65af548978b86183ca316f5d,2024-01-23_08h08.24.136,bars,2023.2.3,Win32,59.52380952,657b66ea316d21385b68909f,,,,,,,,,,,436.5778,437.5624,,,438.066,438.3084,,27,27,,,,,,,,,,,,,,,,bars/034.png,bars/mask001.png,,,,,,,,,,,,0,2,,,,,,,3,6,4,8,,,,,,,,,,,437.5624,438.0658,438.3085,452.3822,space,14.0495,,452.3824,82,38,453.3923,453.3924,469.6451,space,16.2113,,0,1,1,1,1,125,65,,,,,,,,
,,60ddab2b1e7d0214f4782018,65af548978b86183ca316f5d,2024-01-23_08h08.24.136,bars,2023.2.3,Win32,59.52380952,657b66ea316d21385b68909f,,,,,,,,,,,469.6654,470.66,,,471.161,471.4113,,7,7,,,,,,,,,,,,,,,,bars/013.png,bars/mask002.png,,,,,,,,,,,,8,2,,,,,,,5,8,5,9,,,,,,,,,,,470.6601,471.161,471.4113,477.688,space,6.2538,,477.6883,68,3,478.6818,478.6819,483.5843,space,4.8602,,0,2,2,2,1,75,10,,,,,,,,
,,60ddab2b1e7d0214f4782018,65af548978b86183ca316f5d,2024-01-23_08h08.24.136,bars,2023.2.3,Win32,59.52380952,657b66ea316d21385b68909f,,,,,,,,,,,483.6033,484.5954,,,485.1091,485.3404,,113,113,,,,,,,,,,,,,,,,bars/049.png,bars/mask009.png,,,,,,,,,,,,5,2,,,,,,,7,6,7,5,,,,,,,,,,,484.5955,485.109,485.3404,492.0675,space,6.7113,,492.0677,47,2,493.0462,493.0462,508.3586,space,15.2701,,0,3,3,3,1,160,115,,,,,,,,
,,60ddab2b1e7d0214f4782018,65af548978b86183ca316f5d,2024-01-23_08h08.24.136,bars,2023.2.3,Win32,59.52380952,657b66ea316d21385b68909f,,,,,,,,,,,508.381,509.3685,,,509.8576,510.0987,,76,76,,,,,,,,,,,,,,,,bars/046.png,bars/mask000.png,,,,,,,,,,,,1,2,,,,,,,9,4,8,2,,,,,,,,,,,509.3685,509.8576,510.0988,520.9896,space,10.8663,,520.9897,79,9,521.998,521.9981,539.6668,space,17.6279,,0,4,4,4,1,155,85,,,,,,,,
,,60ddab2b1e7d0214f4782018,65af548978b86183ca316f5d,2024-01-23_08h08.24.136,bars,2023.2.3,Win32,59.52380952,657b66ea316d21385b68909f,,,,,,,,,,,539.6871,540.6714,,,541.164,541.3953,,27,27,,,,,,,,,,,,,,,,bars/016.png,bars/mask006.png,,,,,,,,,,,,5,1,,,,,,,7,6,8,4,,,,,,,,,,,540.6716,541.1639,541.3953,569.8629,space,28.4479,,569.863,13,42,570.8463,570.8464,588.395,space,17.5012,,0,5,5,5,1,40,165,,,,,,,,
,,60ddab2b1e7d0214f4782018,65af548978b86183ca316f5d,2024-01-23_08h08.24.136,bars,2023.2.3,Win32,59.52380952,657b66ea316d21385b68909f,,,,,,,,,,,588.4163,589.4123,,,589.9115,590.1625,,80,-100,,,,,,,,,,,,,,,,bars/027.png,bars/mask006.png,,,,,,,,,,,,0,2,,,,,,,9,8,9,7,,,,,,,,,,,589.4123,589.9114,590.1625,602.4843,space,12.3011,,602.4844,30,30,603.4627,603.4628,614.9305,space,11.4205,,0,6,6,6,1,110,50,,,,,,,,
,,60ddab2b1e7d0214f4782018,65af548978b86183ca316f5d,2024-01-23_08h08.24.136,bars,2023.2.3,Win32,59.52380952,657b66ea316d21385b68909f,,,,,,,,,,,614.952,615.9404,,,616.4474,616.692,,107,107,,,,,,,,,,,,,,,,bars/015.png,bars/mask006.png,,,,,,,,,,,,6,1,,,,,,,7,10,7,10,,,,,,,,,,,615.9405,616.4474,616.692,624.7313,space,8.0162,,624.7315,3,53,625.7204,625.7205,633.1207,space,7.3556,,0,7,7,7,1,110,160,,,,,,,,
,,60ddab2b1e7d0214f4782018,65af548978b86183ca316f5d,2024-01-23_08h08.24.136,bars,2023.2.3,Win32,59.52380952,657b66ea316d21385b68909f,,,,,,,,,,,633.1408,634.1369,,,634.6293,634.8725,,11,191,,,,,,,,,,,,,,,,bars/046.png,bars/mask006.png,,,,,,,,,,,,0,1,,,,,,,5,10,4,9,,,,,,,,,,,634.137,634.6293,634.8726,642.8344,space,7.9424,,642.8345,36,74,643.8445,643.8445,655.2764,space,11.4066,,0,8,8,8,1,155,85,,,,,,,,
,,60ddab2b1e7d0214f4782018,65af548978b86183ca316f5d,2024-01-23_08h08.24.136,bars,2023.2.3,Win32,59.52380952,657b66ea316d21385b68909f,,,,,,,,,,,655.2964,656.3085,,,656.7797,657.0302,,50,230,,,,,,,,,,,,,,,,bars/022.png,bars/mask007.png,,,,,,,,,,,,0,2,,,,,,,7,8,7,8,,,,,,,,,,,656.3085,656.7797,657.0302,663.0541,space,6.0011,,663.0542,45,30,664.0558,664.0558,671.5689,space,7.4693,,0,9,9,9,1,95,20,,,,,,,,
,,60ddab2b1e7d0214f4782018,65af548978b86183ca316f5d,2024-01-23_08h08.24.136,bars,2023.2.3,Win32,59.52380952,657b66ea316d21385b68909f,,,,,,,,,,,671.5878,672.5708,,,673.0685,673.3137,,74,74,,,,,,,,,,,,,,,,bars/020.png,bars/mask001.png,,,,,,,,,,,,0,1,,,,,,,9,6,10,6,,,,,,,,,,,672.5709,673.0685,673.3137,687.2054,space,13.8695,,687.2054,41,84,688.2001,688.2001,698.3217,space,10.0778,,0,10,10,10,1,115,170,,,,,,,,
,,60ddab2b1e7d0214f4782018,65af548978b86183ca316f5d,2024-01-23_08h08.24.136,bars,2023.2.3,Win32,59.52380952,657b66ea316d21385b68909f,,,,,,,,,,,698.3426,699.3433,,,699.8274,700.0551,,22,22,,,,,,,,,,,,,,,,bars/043.png,bars/mask001.png,,,,,,,,,,,,7,1,,,,,,,10,8,10,7,,,,,,,,,,,699.3433,699.8273,700.0552,703.6047,space,3.5265,,703.6048,8,72,704.611,704.6111,711.5961,space,6.9461,,0,11,11,11,1,30,130,,,,,,,,
,,60ddab2b1e7d0214f4782018,65af548978b86183ca316f5d,2024-01-23_08h08.24.136,bars,2023.2.3,Win32,59.52380952,657b66ea316d21385b68909f,,,,,,,,,,,711.6158,712.6015,,,713.0914,713.341,,24,24,,,,,,,,,,,,,,,,bars/004.png,bars/mask005.png,,,,,,,,,,,,10,1,,,,,,,8,10,10,10,,,,,,,,,,,712.6016,713.0913,713.3411,718.0382,space,4.6746,,718.0383,1,79,719.0307,719.0308,722.8479,space,3.7788,,0,12,12,12,1,25,125,,,,,,,,
,,60ddab2b1e7d0214f4782018,65af548978b86183ca316f5d,2024-01-23_08h08.24.136,bars,2023.2.3,Win32,59.52380952,657b66ea316d21385b68909f,,,,,,,,,,,722.8668,723.8706,,,724.3484,724.5944,,96,96,,,,,,,,,,,,,,,,bars/002.png,bars/mask001.png,,,,,,,,,,,,5,2,,,,,,,6,8,7,8,,,,,,,,,,,723.8707,724.3483,724.5945,731.0589,space,6.4447,,731.059,34,11,732.0543,732.0544,736.2558,space,4.157,,0,13,13,13,1,130,85,,,,,,,,
,,60ddab2b1e7d0214f4782018,65af548978b86183ca316f5d,2024-01-23_08h08.24.136,bars,2023.2.3,Win32,59.52380952,657b66ea316d21385b68909f,,,,,,,,,,,736.2759,737.2781,,,737.7732,738.0233,,83,83,,,,,,,,,,,,,,,,bars/046.png,bars/mask003.png,,,,,,,,,,,,9,2,,,,,,,4,10,1,10,,,,,,,,,,,737.2781,737.7731,738.0234,747.4298,space,9.3837,,747.4299,72,2,748.4262,748.4263,752.0553,space,3.5883,,0,14,14,14,1,155,85,,,,,,,,
,,60ddab2b1e7d0214f4782018,65af548978b86183ca316f5d,2024-01-23_08h08.24.136,bars,2023.2.3,Win32,59.52380952,657b66ea316d21385b68909f,,,,,,,,,,,752.0562,753.0336,,,753.5341,753.7613,,47,47,,,,,,,,,,,,,,,,bars/048.png,bars/mask000.png,,,,,,,,,,,,6,1,,,,,,,6,8,7,7,,,,,,,,,,,753.0337,753.534,753.7614,760.4658,space,6.6819,,760.4659,3,52,761.4702,761.4704,764.9751,space,3.4585,,0,15,15,15,1,50,175,,,,,,,,
,,60ddab2b1e7d0214f4782018,65af548978b86183ca316f5d,2024-01-23_08h08.24.136,bars,2023.2.3,Win32,59.52380952,657b66ea316d21385b68909f,,,,,,,,,,,764.9763,765.9714,,,766.479,766.7229,,93,93,,,,,,,,,,,,,,,,bars/026.png,bars/mask007.png,,,,,,,,,,,,4,2,,,,,,,4,6,3,5,,,,,,,,,,,765.9714,766.4789,766.723,776.5934,space,9.8477,,776.5935,58,8,777.5848,777.5849,781.7017,space,4.0717,,0,16,16,16,1,35,85,,,,,,,,
,,60ddab2b1e7d0214f4782018,65af548978b86183ca316f5d,2024-01-23_08h08.24.136,bars,2023.2.3,Win32,59.52380952,657b66ea316d21385b68909f,,,,,,,,,,,781.7208,782.7065,,,783.1963,783.4518,,93,93,,,,,,,,,,,,,,,,bars/038.png,bars/mask001.png,,,,,,,,,,,,2,2,,,,,,,6,8,6,8,,,,,,,,,,,782.7066,783.1962,783.4518,789.1336,space,5.6591,,789.1337,72,23,790.1337,790.1338,802.5817,space,12.4059,,0,17,17,17,1,165,70,,,,,,,,
,,60ddab2b1e7d0214f4782018,65af548978b86183ca316f5d,2024-01-23_08h08.24.136,bars,2023.2.3,Win32,59.52380952,657b66ea316d21385b68909f,,,,,,,,,,,802.6022,803.6016,,,804.0955,804.3413,,3,183,,,,,,,,,,,,,,,,bars/009.png,bars/mask008.png,,,,,,,,,,,,4,1,,,,,,,8,10,6,8,,,,,,,,,,,803.6016,804.0955,804.3416,815.1189,space,10.7427,,815.1192,12,78,816.1176,816.1177,819.3655,space,3.2028,,0,18,18,18,1,15,105,,,,,,,,
,,60ddab2b1e7d0214f4782018,65af548978b86183ca316f5d,2024-01-23_08h08.24.136,bars,2023.2.3,Win32,59.52380952,657b66ea316d21385b68909f,,,,,,,,,,,819.3664,820.3743,,,820.8858,821.1302,,141,141,,,,,,,,,,,,,,,,bars/004.png,bars/mask003.png,,,,,,,,,,,,4,2,,,,,,,6,8,6,9,,,,,,,,,,,820.3743,820.8857,821.1302,824.8979,space,3.7449,,824.898,64,16,825.8946,825.8948,833.5043,space,7.5678,,0,19,19,19,1,25,125,,,,,,,,
,,60ddab2b1e7d0214f4782018,65af548978b86183ca316f5d,2024-01-23_08h08.24.136,bars,2023.2.3,Win32,59.52380952,657b66ea316d21385b68909f,,,,,,,,,,,833.5248,834.5046,,,835.0053,835.2514,,35,35,,,,,,,,,,,,,,,,bars/033.png,bars/mask006.png,,,,,,,,,,,,3,1,,,,,,,4,10,5,10,,,,,,,,,,,834.5046,835.0052,835.2514,841.8151,space,6.5414,,841.8154,10,60,842.8097,842.8097,848.6188,space,5.7635,,0,20,20,20,1,25,155,,,,,,,,
,,60ddab2b1e7d0214f4782018,65af548978b86183ca316f5d,2024-01-23_08h08.24.136,bars,2023.2.3,Win32,59.52380952,657b66ea316d21385b68909f,,,,,,,,,,,848.6389,849.636,,,850.1257,850.3696,,179,179,,,,,,,,,,,,,,,,bars/033.png,bars/mask001.png,,,,,,,,,,,,2,2,,,,,,,2,10,1,9,,,,,,,,,,,849.6362,850.1256,850.3696,856.2086,space,5.8155,,856.2087,26,24,857.2019,857.202,860.4579,space,3.2167,,0,21,21,21,1,25,155,,,,,,,,
,,60ddab2b1e7d0214f4782018,65af548978b86183ca316f5d,2024-01-23_08h08.24.136,bars,2023.2.3,Win32,59.52380952,657b66ea316d21385b68909f,,,,,,,,,,,860.4599,861.4699,,,861.9478,862.1755,,122,122,,,,,,,,,,,,,,,,bars/043.png,bars/mask009.png,,,,,,,,,,,,6,2,,,,,,,4,8,4,8,,,,,,,,,,,861.4701,861.9478,862.1755,866.6826,space,4.4844,,866.6827,88,8,867.6814,867.6815,871.9672,space,4.2457,,0,22,22,22,1,30,130,,,,,,,,
,,60ddab2b1e7d0214f4782018,65af548978b86183ca316f5d,2024-01-23_08h08.24.136,bars,2023.2.3,Win32,59.52380952,657b66ea316d21385b68909f,,,,,,,,,,,871.986,872.973,,,873.4804,873.7245,,16,196,,,,,,,,,,,,,,,,bars/013.png,bars/mask007.png,,,,,,,,,,,,5,2,,,,,,,6,6,5,6,,,,,,,,,,,872.973,873.4804,873.7246,880.2271,space,6.4793,,880.2273,59,6,881.2346,881.2346,884.8866,space,3.6139,,0,23,23,23,1,75,10,,,,,,,,
,,60ddab2b1e7d0214f4782018,65af548978b86183ca316f5d,2024-01-23_08h08.24.136,bars,2023.2.3,Win32,59.52380952,657b66ea316d21385b68909f,,,,,,,,,,,884.9055,885.8924,,,886.3917,886.6381,,130,130,,,,,,,,,,,,,,,,bars/049.png,bars/mask006.png,,,,,,,,,,,,5,2,,,,,,,4,8,2,10,,,,,,,,,,,885.8926,886.3916,886.6381,889.8702,space,3.2097,,889.8703,30,15,890.8644,890.8645,893.074,space,2.1712,,0,24,24,24,1,160,115,,,,,,,,
,,60ddab2b1e7d0214f4782018,65af548978b86183ca316f5d,2024-01-23_08h08.24.136,bars,2023.2.3,Win32,59.52380952,657b66ea316d21385b68909f,,,,,,,,,,,893.0757,894.085,,,894.5771,894.8259,,9,9,,,,,,,,,,,,,,,,bars/036.png,bars/mask007.png,,,,,,,,,,,,6,2,,,,,,,6,10,6,10,,,,,,,,,,,894.085,894.5771,894.8259,903.205,space,8.3594,,903.205,44,11,904.2021,904.2022,906.5766,space,2.3317,,0,25,25,25,1,145,20,,,,,,,,
,,60ddab2b1e7d0214f4782018,65af548978b86183ca316f5d,2024-01-23_08h08.24.136,bars,2023.2.3,Win32,59.52380952,657b66ea316d21385b68909f,,,,,,,,,,,906.5785,907.587,,,908.0773,908.3277,,169,169,,,,,,,,,,,,,,,,bars/033.png,bars/mask002.png,,,,,,,,,,,,5,2,,,,,,,4,10,4,9,,,,,,,,,,,907.587,908.0772,908.3278,916.5641,space,8.2155,,916.5642,36,14,917.5733,917.5735,919.9381,space,2.3222,,0,26,26,26,1,25,155,,,,,,,,
,,60ddab2b1e7d0214f4782018,65af548978b86183ca316f5d,2024-01-23_08h08.24.136,bars,2023.2.3,Win32,59.52380952,657b66ea316d21385b68909f,,,,,,,,,,,919.9398,920.9442,,,921.4295,921.6563,,10,10,,,,,,,,,,,,,,,,bars/035.png,bars/mask003.png,,,,,,,,,,,,3,1,,,,,,,6,8,6,8,,,,,,,,,,,920.9442,921.4294,921.6563,926.2634,space,4.5842,,926.2634,15,50,927.2649,927.2649,936.3115,space,9.0042,,0,27,27,27,1,175,60,,,,,,,,
,,60ddab2b1e7d0214f4782018,65af548978b86183ca316f5d,2024-01-23_08h08.24.136,bars,2023.2.3,Win32,59.52380952,657b66ea316d21385b68909f,,,,,,,,,,,936.3324,937.3156,,,937.8117,938.0748,,66,66,,,,,,,,,,,,,,,,bars/030.png,bars/mask004.png,,,,,,,,,,,,7,2,,,,,,,8,6,9,7,,,,,,,,,,,937.3156,937.8116,938.0749,949.0779,space,10.9809,,949.0779,74,1,950.067,950.067,952.8171,space,2.7041,,0,28,28,28,1,140,65,,,,,,,,
,,60ddab2b1e7d0214f4782018,65af548978b86183ca316f5d,2024-01-23_08h08.24.136,bars,2023.2.3,Win32,59.52380952,657b66ea316d21385b68909f,,,,,,,,,,,952.8187,953.8222,,,954.328,954.5737,,8,188,,,,,,,,,,,,,,,,bars/040.png,bars/mask009.png,,,,,,,,,,,,7,2,,,,,,,10,8,9,8,,,,,,,,,,,953.8224,954.328,954.5737,964.0555,space,9.4619,,964.0556,48,3,965.0486,965.0486,966.7752,space,1.6853,,0,29,29,29,1,140,5,,,,,,,,
,,60ddab2b1e7d0214f4782018,65af548978b86183ca316f5d,2024-01-23_08h08.24.136,bars,2023.2.3,Win32,59.52380952,657b66ea316d21385b68909f,,,,,,,,,,,966.7769,967.7853,,,968.2784,968.5046,,125,125,,,,,,,,,,,,,,,,bars/043.png,bars/mask004.png,,,,,,,,,,,,8,2,,,,,,,8,10,7,10,,,,,,,,,,,967.7853,968.2783,968.5047,980.888,space,12.3612,,980.8881,85,5,981.8893,981.8893,984.0214,space,2.0919,,0,30,30,30,1,30,130,,,,,,,,
,,60ddab2b1e7d0214f4782018,65af548978b86183ca316f5d,2024-01-23_08h08.24.136,bars,2023.2.3,Win32,59.52380952,657b66ea316d21385b68909f,,,,,,,,,,,984.0227,985.0287,,,985.528,985.7709,,2,182,,,,,,,,,,,,,,,,bars/008.png,bars/mask002.png,,,,,,,,,,,,9,2,,,,,,,10,10,9,10,,,,,,,,,,,985.0288,985.5279,985.7711,1000.4809,space,14.6874,,1000.481,72,2,1001.4756,1001.4757,1004.6809,space,3.1656,,0,31,31,31,1,110,0,,,,,,,,
,,60ddab2b1e7d0214f4782018,65af548978b86183ca316f5d,2024-01-23_08h08.24.136,bars,2023.2.3,Win32,59.52380952,657b66ea316d21385b68909f,,,,,,,,,,,1004.6826,1005.6759,,,1006.1711,1006.4142,,161,-19,,,,,,,,,,,,,,,,bars/020.png,bars/mask003.png,,,,,,,,,,,,6,2,,,,,,,10,10,10,8,,,,,,,,,,,1005.676,1006.171,1006.4144,1020.7693,space,14.3314,,1020.7695,46,9,1021.7661,1021.7661,1023.1862,space,1.3794,,0,32,32,32,1,115,170,,,,,,,,
,,60ddab2b1e7d0214f4782018,65af548978b86183ca316f5d,2024-01-23_08h08.24.136,bars,2023.2.3,Win32,59.52380952,657b66ea316d21385b68909f,,,,,,,,,,,1023.1882,1024.1681,,,1024.6482,1024.8888,,140,-40,,,,,,,,,,,,,,,,bars/044.png,bars/mask000.png,,,,,,,,,,,,5,2,,,,,,,8,8,7,10,,,,,,,,,,,1024.1682,1024.6482,1024.8888,1030.3668,space,5.4608,,1030.3668,65,15,1031.372,1031.3721,1034.8948,space,3.484,,0,33,33,33,1,75,155,,,,,,,,
,,60ddab2b1e7d0214f4782018,65af548978b86183ca316f5d,2024-01-23_08h08.24.136,bars,2023.2.3,Win32,59.52380952,657b66ea316d21385b68909f,,,,,,,,,,,1034.9136,1035.9025,,,1036.3957,1036.6382,,176,-4,,,,,,,,,,,,,,,,bars/003.png,bars/mask004.png,,,,,,,,,,,,0,1,,,,,,,6,6,8,6,,,,,,,,,,,1035.9026,1036.3956,1036.6382,1046.2361,space,9.5723,,1046.2362,29,36,1047.2357,1047.2358,1063.4837,space,16.2019,,0,34,34,34,1,25,140,,,,,,,,
,,60ddab2b1e7d0214f4782018,65af548978b86183ca316f5d,2024-01-23_08h08.24.136,bars,2023.2.3,Win32,59.52380952,657b66ea316d21385b68909f,,,,,,,,,,,1063.5051,1064.5002,,,1064.9904,1065.2336,,121,121,,,,,,,,,,,,,,,,bars/015.png,bars/mask000.png,,,,,,,,,,,,2,1,,,,,,,4,8,3,9,,,,,,,,,,,1064.5002,1064.9904,1065.2337,1071.4609,space,6.2046,,1071.4609,11,39,1072.4529,1072.453,1075.1706,space,2.6752,,0,35,35,35,1,110,160,,,,,,,,
,,60ddab2b1e7d0214f4782018,65af548978b86183ca316f5d,2024-01-23_08h08.24.136,bars,2023.2.3,Win32,59.52380952,657b66ea316d21385b68909f,,,,,,,,,,,1075.1716,1076.1768,,,1076.6561,1076.9008,,97,97,,,,,,,,,,,,,,,,bars/049.png,bars/mask006.png,,,,,,,,,,,,2,2,,,,,,,6,6,8,5,,,,,,,,,,,1076.1769,1076.656,1076.9008,1082.8704,space,5.9468,,1082.8705,63,18,1083.8763,1083.8763,1086.9099,space,2.9916,,0,36,36,36,1,160,115,,,,,,,,
,,60ddab2b1e7d0214f4782018,65af548978b86183ca316f5d,2024-01-23_08h08.24.136,bars,2023.2.3,Win32,59.52380952,657b66ea316d21385b68909f,,,,,,,,,,,1086.9289,1087.9172,,,1088.4107,1088.6681,,43,43,,,,,,,,,,,,,,,,bars/025.png,bars/mask004.png,,,,,,,,,,,,9,2,,,,,,,4,8,4,10,,,,,,,,,,,1087.9172,1088.4107,1088.6682,1094.2979,space,5.6073,,1094.2979,62,3,1095.2877,1095.2877,1097.9149,space,2.5891,,0,37,37,37,1,105,40,,,,,,,,
,,60ddab2b1e7d0214f4782018,65af548978b86183ca316f5d,2024-01-23_08h08.24.136,bars,2023.2.3,Win32,59.52380952,657b66ea316d21385b68909f,,,,,,,,,,,1097.9164,1098.9185,,,1099.4148,1099.6583,,71,71,,,,,,,,,,,,,,,,bars/041.png,bars/mask006.png,,,,,,,,,,,,3,2,,,,,,,2,6,3,5,,,,,,,,,,,1098.9185,1099.4147,1099.6585,1105.3225,space,5.6409,,1105.3226,51,14,1106.3238,1106.3239,1108.9893,space,2.6257,,0,38,38,38,1,20,85,,,,,,,,
,,60ddab2b1e7d0214f4782018,65af548978b86183ca316f5d,2024-01-23_08h08.24.136,bars,2023.2.3,Win32,59.52380952,657b66ea316d21385b68909f,,,,,,,,,,,1108.9901,1109.9846,,,1110.4897,1110.7192,,110,110,,,,,,,,,,,,,,,,bars/004.png,bars/mask005.png,,,,,,,,,,,,2,2,,,,,,,0,4,0,3,,,,,,,,,,,1109.9847,1110.4896,1110.7192,1117.6987,space,6.9598,,1117.6987,85,15,1118.7073,1118.7074,1121.4207,space,2.6712,,0,39,39,39,1,25,125,,,,,,,,
,,60ddab2b1e7d0214f4782018,65af548978b86183ca316f5d,2024-01-23_08h08.24.136,bars,2023.2.3,Win32,59.52380952,657b66ea316d21385b68909f,,,,,,,,,,,1121.4222,1122.4012,,,1122.8963,1123.1405,,132,-48,,,,,,,,,,,,,,,,bars/005.png,bars/mask007.png,,,,,,,,,,,,1,2,,,,,,,2,2,1,2,,,,,,,,,,,1122.4013,1122.8963,1123.1407,1131.3313,space,8.168,,1131.3314,58,8,1132.3149,1132.3149,1150.0287,space,17.6711,,0,40,40,40,1,10,140,,,,,,,,
,,60ddab2b1e7d0214f4782018,65af548978b86183ca316f5d,2024-01-23_08h08.24.136,bars,2023.2.3,Win32,59.52380952,657b66ea316d21385b68909f,,,,,,,,,,,1150.0498,1151.0435,,,1151.5415,1151.7856,,155,155,,,,,,,,,,,,,,,,bars/039.png,bars/mask004.png,,,,,,,,,,,,1,1,,,,,,,4,4,4,3,,,,,,,,,,,1151.0435,1151.5414,1151.7857,1155.8421,space,4.0339,,1155.8421,20,50,1156.8344,1156.8344,1160.5572,space,3.6802,,0,41,41,41,1,175,105,,,,,,,,
,,60ddab2b1e7d0214f4782018,65af548978b86183ca316f5d,2024-01-23_08h08.24.136,bars,2023.2.3,Win32,59.52380952,657b66ea316d21385b68909f,,,,,,,,,,,1160.576,1161.56,,,1162.0553,1162.3003,,6,6,,,,,,,,,,,,,,,,bars/011.png,bars/mask005.png,,,,,,,,,,,,0,1,,,,,,,2,6,3,5,,,,,,,,,,,1161.5601,1162.0552,1162.3005,1171.5746,space,9.2511,,1171.5746,26,79,1172.5637,1172.5637,1178.3517,space,5.7483,,0,42,42,42,1,160,85,,,,,,,,
,,60ddab2b1e7d0214f4782018,65af548978b86183ca316f5d,2024-01-23_08h08.24.136,bars,2023.2.3,Win32,59.52380952,657b66ea316d21385b68909f,,,,,,,,,,,1178.3703,1179.356,,,1179.8515,1180.0983,,164,164,,,,,,,,,,,,,,,,bars/010.png,bars/mask004.png,,,,,,,,,,,,0,1,,,,,,,0,4,0,3,,,,,,,,,,,1179.3561,1179.8514,1180.0984,1185.7722,space,5.6537,,1185.7722,1,71,1186.7788,1186.7789,1196.6474,space,9.8283,,0,43,43,43,1,165,55,,,,,,,,
,,60ddab2b1e7d0214f4782018,65af548978b86183ca316f5d,2024-01-23_08h08.24.136,bars,2023.2.3,Win32,59.52380952,657b66ea316d21385b68909f,,,,,,,,,,,1196.6673,1197.6478,,,1198.1445,1198.4006,,55,235,,,,,,,,,,,,,,,,bars/029.png,bars/mask002.png,,,,,,,,,,,,1,2,,,,,,,2,2,0,2,,,,,,,,,,,1197.6479,1198.1444,1198.4007,1206.0875,space,7.6641,,1206.0876,35,10,1207.0832,1207.0832,1224.3858,space,17.2584,,0,44,44,44,1,90,45,,,,,,,,
,,60ddab2b1e7d0214f4782018,65af548978b86183ca316f5d,2024-01-23_08h08.24.136,bars,2023.2.3,Win32,59.52380952,657b66ea316d21385b68909f,,,,,,,,,,,1224.4061,1225.4078,,,1225.9039,1226.1482,,169,169,,,,,,,,,,,,,,,,bars/033.png,bars/mask001.png,,,,,,,,,,,,1,2,,,,,,,4,0,5,1,,,,,,,,,,,1225.4079,1225.9039,1226.1482,1231.0287,space,4.8579,,1231.0288,36,14,1232.032,1232.032,1257.3635,space,25.2928,,0,45,45,45,1,25,155,,,,,,,,
,,60ddab2b1e7d0214f4782018,65af548978b86183ca316f5d,2024-01-23_08h08.24.136,bars,2023.2.3,Win32,59.52380952,657b66ea316d21385b68909f,,,,,,,,,,,1257.3843,1258.3764,,,1258.8644,1259.107,,16,196,,,,,,,,,,,,,,,,bars/039.png,bars/mask002.png,,,,,,,,,,,,1,1,,,,,,,2,0,2,1,,,,,,,,,,,1258.3765,1258.8644,1259.107,1264.0061,space,4.8748,,1264.0062,21,89,1265.0072,1265.0074,1267.0553,space,2.0053,,0,46,46,46,1,175,105,,,,,,,,
,,60ddab2b1e7d0214f4782018,65af548978b86183ca316f5d,2024-01-23_08h08.24.136,bars,2023.2.3,Win32,59.52380952,657b66ea316d21385b68909f,,,,,,,,,,,1267.0564,1268.051,,,1268.5443,1268.7944,,96,276,,,,,,,,,,,,,,,,bars/041.png,bars/mask004.png,,,,,,,,,,,,1,2,,,,,,,0,2,1,2,,,,,,,,,,,1268.0511,1268.5442,1268.7945,1273.5418,space,4.7245,,1273.5419,76,11,1274.5521,1274.5522,1274.7301,space,0.1337,,0,47,47,47,1,20,85,,,,,,,,
,,60ddab2b1e7d0214f4782018,65af548978b86183ca316f5d,2024-01-23_08h08.24.136,bars,2023.2.3,Win32,59.52380952,657b66ea316d21385b68909f,,,,,,,,,,,1274.7315,1275.7099,,,1276.1882,1276.4387,,33,213,,,,,,,,,,,,,,,,bars/047.png,bars/mask003.png,,,,,,,,,,,,1,1,,,,,,,2,0,2,0,,,,,,,,,,,1275.71,1276.1881,1276.4387,1280.5604,space,4.0985,,1280.5605,18,37,1281.5583,1281.5583,1283.0555,space,1.4549,,0,48,48,48,1,15,70,,,,,,,,
,,60ddab2b1e7d0214f4782018,65af548978b86183ca316f5d,2024-01-23_08h08.24.136,bars,2023.2.3,Win32,59.52380952,657b66ea316d21385b68909f,,,,,,,,,,,1283.0583,1284.0546,,,1284.5495,1284.7935,,150,150,,,,,,,,,,,,,,,,bars/023.png,bars/mask003.png,,,,,,,,,,,,0,2,,,,,,,4,0,4,0,,,,,,,,,,,1284.0546,1284.5495,1284.7937,1288.0321,space,3.216,,1288.0322,50,35,1289.0278,1289.0278,1291.46,space,2.3887,,0,49,49,49,1,20,115,,,,,,,,
,,60ddab2b1e7d0214f4782018,65af548978b86183ca316f5d,2024-01-23_08h08.24.136,bars,2023.2.3,Win32,59.52380952,657b66ea316d21385b68909f,,,,,,,,,,,,,,,,,,,,,,,,,,,,,,,,,,,,,,,,,,,,,,,,,,,,,,,,,,,,,,,,,,,,,,,,,,,,,,,,,,,,,,,,,,,,,1291.4627,1351.4475,0,0,0,0,1,sequence_tables/blk001.csv
,,60ddab2b1e7d0214f4782018,65af548978b86183ca316f5d,2024-01-23_08h08.24.136,bars,2023.2.3,Win32,59.52380952,657b66ea316d21385b68909f,,,,,,,,,,,1356.1165,1357.0916,,,1357.5862,1357.8007,,8,188,,,,,,,,,,,,,,,,bars/004.png,bars/mask002.png,,,,,,,,,,,,3,1,,,,,,,8,4,8,5,,,,,,1351.4681,1356.0816,space,4.5955,,1357.0917,1357.5862,1357.8008,1362.6058,space,4.7827,,1362.6059,17,63,1363.5692,1363.5693,1363.5908,,,,0,0,0,0,1,25,125,,,,,,,,
,,60ddab2b1e7d0214f4782018,65af548978b86183ca316f5d,2024-01-23_08h08.24.136,bars,2023.2.3,Win32,59.52380952,657b66ea316d21385b68909f,,,,,,,,,,,1363.5911,1364.5754,,,1365.0755,1365.3155,,16,196,,,,,,,,,,,,,,,,bars/013.png,bars/mask008.png,,,,,,,,,,,,6,2,,,,,,,10,6,10,8,,,,,,,,,,,1364.5755,1365.0755,1365.3156,1374.6982,space,9.3631,,1374.6983,59,6,1375.6954,1375.6955,1375.7183,,,,0,1,1,1,1,75,10,,,,,,,,
,,60ddab2b1e7d0214f4782018,65af548978b86183ca316f5d,2024-01-23_08h08.24.136,bars,2023.2.3,Win32,59.52380952,657b66ea316d21385b68909f,,,,,,,,,,,1375.7187,1376.7152,,,1377.2126,1377.4696,,115,115,,,,,,,,,,,,,,,,bars/015.png,bars/mask009.png,,,,,,,,,,,,8,1,,,,,,,10,4,10,5,,,,,,,,,,,1376.7153,1377.2125,1377.4696,1380.6426,space,3.1504,,1380.6427,5,45,1381.6357,1381.6357,1381.6572,,,,0,2,2,2,1,110,160,,,,,,,,
,,60ddab2b1e7d0214f4782018,65af548978b86183ca316f5d,2024-01-23_08h08.24.136,bars,2023.2.3,Win32,59.52380952,657b66ea316d21385b68909f,,,,,,,,,,,1381.6581,1382.6341,,,1383.1348,1383.3799,,114,114,,,,,,,,,,,,,,,,bars/024.png,bars/mask001.png,,,,,,,,,,,,6,1,,,,,,,8,6,8,5,,,,,,,,,,,1382.6341,1383.1347,1383.3799,1389.4498,space,6.0468,,1389.4499,6,56,1390.4725,1390.4725,1390.4942,,,,0,3,3,3,1,120,170,,,,,,,,
,,60ddab2b1e7d0214f4782018,65af548978b86183ca316f5d,2024-01-23_08h08.24.136,bars,2023.2.3,Win32,59.52380952,657b66ea316d21385b68909f,,,,,,,,,,,1390.4945,1391.4951,,,1391.9836,1392.2292,,80,80,,,,,,,,,,,,,,,,bars/002.png,bars/mask003.png,,,,,,,,,,,,8,2,,,,,,,10,8,10,9,,,,,,,,,,,1391.4951,1391.9836,1392.2293,1402.9038,space,10.6519,,1402.9039,50,5,1403.9113,1403.9114,1403.9336,,,,0,4,4,4,1,130,85,,,,,,,,
,,60ddab2b1e7d0214f4782018,65af548978b86183ca316f5d,2024-01-23_08h08.24.136,bars,2023.2.3,Win32,59.52380952,657b66ea316d21385b68909f,,,,,,,,,,,1403.9341,1404.917,,,1405.414,1405.6577,,101,101,,,,,,,,,,,,,,,,bars/025.png,bars/mask005.png,,,,,,,,,,,,7,1,,,,,,,8,10,8,10,,,,,,,,,,,1404.917,1405.4138,1405.6578,1411.0838,space,5.4034,,1411.0839,4,61,1412.0931,1412.0932,1412.1147,,,,0,5,5,5,1,105,40,,,,,,,,
,,60ddab2b1e7d0214f4782018,65af548978b86183ca316f5d,2024-01-23_08h08.24.136,bars,2023.2.3,Win32,59.52380952,657b66ea316d21385b68909f,,,,,,,,,,,1412.1155,1413.1237,,,1413.6137,1413.8527,,40,220,,,,,,,,,,,,,,,,bars/007.png,bars/mask002.png,,,,,,,,,,,,5,2,,,,,,,10,10,10,10,,,,,,,,,,,1413.1238,1413.6137,1413.8528,1419.7445,space,5.8694,,1419.7446,45,15,1420.7233,1420.7234,1420.7468,,,,0,6,6,6,1,175,55,,,,,,,,
,,60ddab2b1e7d0214f4782018,65af548978b86183ca316f5d,2024-01-23_08h08.24.136,bars,2023.2.3,Win32,59.52380952,657b66ea316d21385b68909f,,,,,,,,,,,1420.7472,1421.7232,,,1422.2326,1422.4881,,159,159,,,,,,,,,,,,,,,,bars/016.png,bars/mask007.png,,,,,,,,,,,,8,2,,,,,,,8,10,7,10,,,,,,,,,,,1421.7232,1422.2325,1422.4881,1428.6688,space,6.1583,,1428.6688,61,6,1429.6602,1429.6603,1429.6806,,,,0,7,7,7,1,40,165,,,,,,,,
,,60ddab2b1e7d0214f4782018,65af548978b86183ca316f5d,2024-01-23_08h08.24.136,bars,2023.2.3,Win32,59.52380952,657b66ea316d21385b68909f,,,,,,,,,,,1429.681,1430.6653,,,1431.1612,1431.3866,,81,81,,,,,,,,,,,,,,,,bars/018.png,bars/mask008.png,,,,,,,,,,,,7,2,,,,,,,6,10,6,10,,,,,,,,,,,1430.6654,1431.1611,1431.3866,1440.2345,space,8.8286,,1440.2346,69,9,1441.2288,1441.2289,1441.2495,,,,0,8,8,8,1,150,90,,,,,,,,
,,60ddab2b1e7d0214f4782018,65af548978b86183ca316f5d,2024-01-23_08h08.24.136,bars,2023.2.3,Win32,59.52380952,657b66ea316d21385b68909f,,,,,,,,,,,1441.2498,1442.2527,,,1442.7329,1442.9755,,82,82,,,,,,,,,,,,,,,,bars/019.png,bars/mask003.png,,,,,,,,,,,,2,2,,,,,,,8,8,8,8,,,,,,,,,,,1442.2528,1442.7329,1442.9756,1449.382,space,6.3843,,1449.3831,37,23,1450.3873,1450.3874,1450.4082,,,,0,9,9,9,1,45,105,,,,,,,,
,,60ddab2b1e7d0214f4782018,65af548978b86183ca316f5d,2024-01-23_08h08.24.136,bars,2023.2.3,Win32,59.52380952,657b66ea316d21385b68909f,,,,,,,,,,,1450.4086,1451.4142,,,1451.9039,1452.1439,,4,184,,,,,,,,,,,,,,,,bars/024.png,bars/mask000.png,,,,,,,,,,,,5,2,,,,,,,6,10,4,10,,,,,,,,,,,1451.4143,1451.9039,1452.1439,1464.4335,space,12.2672,,1464.4335,64,14,1465.4225,1465.4225,1465.443,,,,0,10,10,10,1,120,170,,,,,,,,
,,60ddab2b1e7d0214f4782018,65af548978b86183ca316f5d,2024-01-23_08h08.24.136,bars,2023.2.3,Win32,59.52380952,657b66ea316d21385b68909f,,,,,,,,,,,1465.4433,1466.4411,,,1466.9423,1467.1917,,175,-5,,,,,,,,,,,,,,,,bars/020.png,bars/mask005.png,,,,,,,,,,,,8,2,,,,,,,4,8,3,10,,,,,,,,,,,1466.4411,1466.9423,1467.1917,1471.5471,space,4.3317,,1471.5472,60,5,1472.526,1472.5261,1472.5452,,,,0,11,11,11,1,115,170,,,,,,,,
,,60ddab2b1e7d0214f4782018,65af548978b86183ca316f5d,2024-01-23_08h08.24.136,bars,2023.2.3,Win32,59.52380952,657b66ea316d21385b68909f,,,,,,,,,,,1472.5455,1473.5394,,,1474.0275,1474.287,,65,65,,,,,,,,,,,,,,,,bars/007.png,bars/mask006.png,,,,,,,,,,,,3,2,,,,,,,6,6,6,5,,,,,,,,,,,1473.5395,1474.0274,1474.2871,1482.1056,space,7.7954,,1482.1058,70,10,1483.0917,1483.0919,1483.1142,,,,0,12,12,12,1,175,55,,,,,,,,
,,60ddab2b1e7d0214f4782018,65af548978b86183ca316f5d,2024-01-23_08h08.24.136,bars,2023.2.3,Win32,59.52380952,657b66ea316d21385b68909f,,,,,,,,,,,1483.1148,1484.133,,,1484.6275,1484.8718,,108,-72,,,,,,,,,,,,,,,,bars/011.png,bars/mask006.png,,,,,,,,,,,,2,2,,,,,,,8,8,7,7,,,,,,,,,,,1484.1332,1484.6275,1484.8718,1494.8925,space,9.9978,,1494.8925,52,23,1495.8861,1495.8862,1495.9062,,,,0,13,13,13,1,160,85,,,,,,,,
,,60ddab2b1e7d0214f4782018,65af548978b86183ca316f5d,2024-01-23_08h08.24.136,bars,2023.2.3,Win32,59.52380952,657b66ea316d21385b68909f,,,,,,,,,,,1495.9065,1496.9,,,1497.3781,1497.6221,,75,75,,,,,,,,,,,,,,,,bars/011.png,bars/mask007.png,,,,,,,,,,,,7,2,,,,,,,6,10,6,10,,,,,,,,,,,1496.9,1497.3781,1497.6222,1501.329,space,3.6842,,1501.3291,85,10,1502.317,1502.3171,1502.3356,,,,0,14,14,14,1,160,85,,,,,,,,
,,60ddab2b1e7d0214f4782018,65af548978b86183ca316f5d,2024-01-23_08h08.24.136,bars,2023.2.3,Win32,59.52380952,657b66ea316d21385b68909f,,,,,,,,,,,1502.336,1503.3288,,,1503.8244,1504.0704,,72,72,,,,,,,,,,,,,,,,bars/029.png,bars/mask000.png,,,,,,,,,,,,2,1,,,,,,,4,10,5,10,,,,,,,,,,,1503.3289,1503.8244,1504.0705,1507.7219,space,3.6299,,1507.7219,18,27,1508.7037,1508.7038,1508.7248,,,,0,15,15,15,1,90,45,,,,,,,,
,,60ddab2b1e7d0214f4782018,65af548978b86183ca316f5d,2024-01-23_08h08.24.136,bars,2023.2.3,Win32,59.52380952,657b66ea316d21385b68909f,,,,,,,,,,,1508.7253,1509.7109,,,1510.1952,1510.4399,,133,-47,,,,,,,,,,,,,,,,bars/000.png,bars/mask003.png,,,,,,,,,,,,4,2,,,,,,,2,8,3,7,,,,,,,,,,,1509.711,1510.1952,1510.4399,1518.5681,space,8.1058,,1518.5682,87,12,1519.5568,1519.5568,1519.5808,,,,0,16,16,16,1,40,145,,,,,,,,
,,60ddab2b1e7d0214f4782018,65af548978b86183ca316f5d,2024-01-23_08h08.24.136,bars,2023.2.3,Win32,59.52380952,657b66ea316d21385b68909f,,,,,,,,,,,1519.5813,1520.5769,,,1521.0717,1521.3154,,96,96,,,,,,,,,,,,,,,,bars/023.png,bars/mask009.png,,,,,,,,,,,,3,2,,,,,,,4,6,4,7,,,,,,,,,,,1520.5769,1521.0716,1521.3154,1528.9602,space,7.6225,,1528.9602,76,19,1529.9387,1529.9388,1529.9599,,,,0,17,17,17,1,20,115,,,,,,,,
,,60ddab2b1e7d0214f4782018,65af548978b86183ca316f5d,2024-01-23_08h08.24.136,bars,2023.2.3,Win32,59.52380952,657b66ea316d21385b68909f,,,,,,,,,,,1529.9603,1530.9508,,,1531.445,1531.6963,,15,15,,,,,,,,,,,,,,,,bars/036.png,bars/mask006.png,,,,,,,,,,,,4,2,,,,,,,6,4,6,5,,,,,,,,,,,1530.9508,1531.445,1531.6963,1538.8365,space,7.1181,,1538.8366,50,5,1539.8416,1539.8417,1539.862,,,,0,18,18,18,1,145,20,,,,,,,,
,,60ddab2b1e7d0214f4782018,65af548978b86183ca316f5d,2024-01-23_08h08.24.136,bars,2023.2.3,Win32,59.52380952,657b66ea316d21385b68909f,,,,,,,,,,,1539.8624,1540.8575,,,1541.3378,1541.5839,,167,-13,,,,,,,,,,,,,,,,bars/048.png,bars/mask006.png,,,,,,,,,,,,2,2,,,,,,,4,2,3,3,,,,,,,,,,,1540.8576,1541.3377,1541.5839,1549.0768,space,7.4709,,1549.0769,63,8,1550.0656,1550.0657,1550.0873,,,,0,19,19,19,1,50,175,,,,,,,,
,,60ddab2b1e7d0214f4782018,65af548978b86183ca316f5d,2024-01-23_08h08.24.136,bars,2023.2.3,Win32,59.52380952,657b66ea316d21385b68909f,,,,,,,,,,,1550.0883,1551.0948,,,1551.5902,1551.8463,,99,99,,,,,,,,,,,,,,,,bars/021.png,bars/mask007.png,,,,,,,,,,,,0,2,,,,,,,2,0,1,0,,,,,,,,,,,1551.0948,1551.5901,1551.8464,1559.8176,space,7.9488,,1559.8178,56,29,1560.8198,1560.8198,1560.8401,,,,0,20,20,20,1,155,70,,,,,,,,
,,60ddab2b1e7d0214f4782018,65af548978b86183ca316f5d,2024-01-23_08h08.24.136,bars,2023.2.3,Win32,59.52380952,657b66ea316d21385b68909f,,,,,,,,,,,1560.8405,1561.8318,,,1562.32,1562.5652,,87,87,,,,,,,,,,,,,,,,bars/002.png,bars/mask009.png,,,,,,,,,,,,0,2,,,,,,,4,0,5,0,,,,,,,,,,,1561.8318,1562.32,1562.5652,1566.2047,space,3.6199,,1566.2048,43,2,1567.1924,1567.1924,1567.2124,,,,0,21,21,21,1,130,85,,,,,,,,
,,60ddab2b1e7d0214f4782018,65af548978b86183ca316f5d,2024-01-23_08h08.24.136,bars,2023.2.3,Win32,59.52380952,657b66ea316d21385b68909f,,,,,,,,,,,1567.2128,1568.2059,,,1568.7021,1568.9401,,177,177,,,,,,,,,,,,,,,,bars/008.png,bars/mask005.png,,,,,,,,,,,,0,2,,,,,,,6,0,5,0,,,,,,,,,,,1568.206,1568.7021,1568.9401,1580.5986,space,11.6391,,1580.5986,67,3,1581.6087,1581.6087,1581.6306,,,,0,22,22,22,1,110,0,,,,,,,,
,,60ddab2b1e7d0214f4782018,65af548978b86183ca316f5d,2024-01-23_08h08.24.136,bars,2023.2.3,Win32,59.52380952,657b66ea316d21385b68909f,,,,,,,,,,,1581.6313,1582.6267,,,1583.1216,1583.3563,,117,117,,,,,,,,,,,,,,,,bars/049.png,bars/mask000.png,,,,,,,,,,,,0,2,,,,,,,8,0,8,0,,,,,,,,,,,1582.6267,1583.1216,1583.3564,1587.7014,space,4.3224,,1587.7014,43,2,1588.6855,1588.6855,1588.7046,,,,0,23,23,23,1,160,115,,,,,,,,
,,60ddab2b1e7d0214f4782018,65af548978b86183ca316f5d,2024-01-23_08h08.24.136,bars,2023.2.3,Win32,59.52380952,657b66ea316d21385b68909f,,,,,,,,,,,1588.7051,1589.7018,,,1590.2044,1590.4361,,46,46,,,,,,,,,,,,,,,,bars/048.png,bars/mask004.png,,,,,,,,,,,,9,1,,,,,,,10,0,10,2,,,,,,,,,,,1589.702,1590.2044,1590.4361,1595.9288,space,5.4732,,1595.9288,4,51,1596.9194,1596.9195,1596.9409,,,,0,24,24,24,1,50,175,,,,,,,,
,,60ddab2b1e7d0214f4782018,65af548978b86183ca316f5d,2024-01-23_08h08.24.136,bars,2023.2.3,Win32,59.52380952,657b66ea316d21385b68909f,,,,,,,,,,,1596.9413,1597.9257,,,1598.4259,1598.6777,,33,33,,,,,,,,,,,,,,,,bars/016.png,bars/mask007.png,,,,,,,,,,,,8,1,,,,,,,10,2,10,3,,,,,,,,,,,1597.9257,1598.4259,1598.6777,1607.2156,space,8.5142,,1607.2158,7,48,1608.2115,1608.2116,1608.233,,,,0,25,25,25,1,40,165,,,,,,,,
,,60ddab2b1e7d0214f4782018,65af548978b86183ca316f5d,2024-01-23_08h08.24.136,bars,2023.2.3,Win32,59.52380952,657b66ea316d21385b68909f,,,,,,,,,,,1608.2336,1609.2531,,,1609.7706,1609.9958,,97,97,,,,,,,,,,,,,,,,bars/025.png,bars/mask005.png,,,,,,,,,,,,5,1,,,,,,,8,4,7,3,,,,,,,,,,,1609.2531,1609.7705,1609.9959,1618.9103,space,8.895,,1618.9104,8,57,1619.8997,1619.8998,1619.9213,,,,0,26,26,26,1,105,40,,,,,,,,
,,60ddab2b1e7d0214f4782018,65af548978b86183ca316f5d,2024-01-23_08h08.24.136,bars,2023.2.3,Win32,59.52380952,657b66ea316d21385b68909f,,,,,,,,,,,1619.9218,1620.923,,,1621.4176,1621.6741,,155,155,,,,,,,,,,,,,,,,bars/049.png,bars/mask004.png,,,,,,,,,,,,6,1,,,,,,,6,2,7,2,,,,,,,,,,,1620.9231,1621.4175,1621.6741,1627.1451,space,5.4482,,1627.1452,5,40,1628.1493,1628.1493,1628.1695,,,,0,27,27,27,1,160,115,,,,,,,,
,,60ddab2b1e7d0214f4782018,65af548978b86183ca316f5d,2024-01-23_08h08.24.136,bars,2023.2.3,Win32,59.52380952,657b66ea316d21385b68909f,,,,,,,,,,,1628.1699,1629.1672,,,1629.6701,1629.9148,,144,144,,,,,,,,,,,,,,,,bars/038.png,bars/mask005.png,,,,,,,,,,,,1,1,,,,,,,4,0,3,1,,,,,,,,,,,1629.1673,1629.67,1629.9149,1634.759,space,4.8221,,1634.759,21,74,1635.7479,1635.748,1635.7679,,,,0,28,28,28,1,165,70,,,,,,,,
,,60ddab2b1e7d0214f4782018,65af548978b86183ca316f5d,2024-01-23_08h08.24.136,bars,2023.2.3,Win32,59.52380952,657b66ea316d21385b68909f,,,,,,,,,,,1635.7684,1636.758,,,1637.2333,1637.4787,,151,-29,,,,,,,,,,,,,,,,bars/020.png,bars/mask008.png,,,,,,,,,,,,0,2,,,,,,,6,2,6,1,,,,,,,,,,,1636.758,1637.2332,1637.4788,1641.3004,space,3.7988,,1641.3004,36,19,1642.2991,1642.2992,1642.322,,,,0,29,29,29,1,115,170,,,,,,,,
,,60ddab2b1e7d0214f4782018,65af548978b86183ca316f5d,2024-01-23_08h08.24.136,bars,2023.2.3,Win32,59.52380952,657b66ea316d21385b68909f,,,,,,,,,,,1642.3225,1643.3117,,,1643.7939,1644.0439,,50,50,,,,,,,,,,,,,,,,bars/003.png,bars/mask006.png,,,,,,,,,,,,0,1,,,,,,,4,0,2,1,,,,,,,,,,,1643.3117,1643.7939,1644.0439,1651.4555,space,7.3905,,1651.4558,25,90,1652.4362,1652.4362,1652.463,,,,0,30,30,30,1,25,140,,,,,,,,
,,60ddab2b1e7d0214f4782018,65af548978b86183ca316f5d,2024-01-23_08h08.24.136,bars,2023.2.3,Win32,59.52380952,657b66ea316d21385b68909f,,,,,,,,,,,1652.4637,1653.4664,,,1653.9614,1654.2063,,84,84,,,,,,,,,,,,,,,,bars/019.png,bars/mask005.png,,,,,,,,,,,,1,2,,,,,,,2,2,1,3,,,,,,,,,,,1653.4665,1653.9613,1654.2063,1658.6589,space,4.4333,,1658.659,39,21,1659.6428,1659.643,1659.6649,,,,0,31,31,31,1,45,105,,,,,,,,
,,60ddab2b1e7d0214f4782018,65af548978b86183ca316f5d,2024-01-23_08h08.24.136,bars,2023.2.3,Win32,59.52380952,657b66ea316d21385b68909f,,,,,,,,,,,1659.6655,1660.6553,,,1661.1556,1661.3991,,28,208,,,,,,,,,,,,,,,,bars/032.png,bars/mask004.png,,,,,,,,,,,,3,2,,,,,,,4,4,3,4,,,,,,,,,,,1660.6553,1661.1555,1661.3992,1667.6895,space,6.2711,,1667.6896,83,8,1668.6795,1668.6795,1668.7004,,,,0,32,32,32,1,125,20,,,,,,,,
,,60ddab2b1e7d0214f4782018,65af548978b86183ca316f5d,2024-01-23_08h08.24.136,bars,2023.2.3,Win32,59.52380952,657b66ea316d21385b68909f,,,,,,,,,,,1668.7009,1669.7006,,,1670.1913,1670.4387,,172,172,,,,,,,,,,,,,,,,bars/024.png,bars/mask005.png,,,,,,,,,,,,4,2,,,,,,,6,6,4,4,,,,,,,,,,,1669.7006,1670.1913,1670.4388,1671.6539,space,1.1926,,1671.654,52,2,1672.6473,1672.6474,1672.6495,,,,0,33,33,33,1,120,170,,,,,,,,
,,60ddab2b1e7d0214f4782018,65af548978b86183ca316f5d,2024-01-23_08h08.24.136,bars,2023.2.3,Win32,59.52380952,657b66ea316d21385b68909f,,,,,,,,,,,1672.6503,1673.6343,,,1674.1245,1674.3775,,158,158,,,,,,,,,,,,,,,,bars/020.png,bars/mask006.png,,,,,,,,,,,,5,2,,,,,,,4,8,4,8,,,,,,,,,,,1673.6343,1674.1244,1674.3777,1680.5981,space,6.1969,,1680.5985,43,12,1681.5883,1681.5885,1681.6076,,,,0,34,34,34,1,115,170,,,,,,,,
,,60ddab2b1e7d0214f4782018,65af548978b86183ca316f5d,2024-01-23_08h08.24.136,bars,2023.2.3,Win32,59.52380952,657b66ea316d21385b68909f,,,,,,,,,,,1681.608,1682.5944,,,1683.0867,1683.3122,,50,230,,,,,,,,,,,,,,,,bars/013.png,bars/mask004.png,,,,,,,,,,,,0,1,,,,,,,2,10,1,9,,,,,,,,,,,1682.5944,1683.0867,1683.3122,1690.1123,space,6.7804,,1690.1124,25,40,1691.1017,1691.1017,1691.1245,,,,0,35,35,35,1,75,10,,,,,,,,
,,60ddab2b1e7d0214f4782018,65af548978b86183ca316f5d,2024-01-23_08h08.24.136,bars,2023.2.3,Win32,59.52380952,657b66ea316d21385b68909f,,,,,,,,,,,1691.125,1692.1252,,,1692.6206,1692.8713,,176,-4,,,,,,,,,,,,,,,,bars/033.png,bars/mask000.png,,,,,,,,,,,,2,2,,,,,,,4,8,3,8,,,,,,,,,,,1692.1253,1692.6205,1692.8714,1695.705,space,2.8111,,1695.705,29,21,1696.7034,1696.7034,1696.724,,,,0,36,36,36,1,25,155,,,,,,,,
,,60ddab2b1e7d0214f4782018,65af548978b86183ca316f5d,2024-01-23_08h08.24.136,bars,2023.2.3,Win32,59.52380952,657b66ea316d21385b68909f,,,,,,,,,,,1696.7244,1697.7232,,,1698.2336,1698.4784,,156,156,,,,,,,,,,,,,,,,bars/034.png,bars/mask009.png,,,,,,,,,,,,0,1,,,,,,,2,6,2,5,,,,,,,,,,,1697.7233,1698.2336,1698.4785,1704.5113,space,6.0103,,1704.5113,31,89,1705.5044,1705.5044,1705.5261,,,,0,37,37,37,1,125,65,,,,,,,,
,,60ddab2b1e7d0214f4782018,65af548978b86183ca316f5d,2024-01-23_08h08.24.136,bars,2023.2.3,Win32,59.52380952,657b66ea316d21385b68909f,,,,,,,,,,,1705.5265,1706.5223,,,1707.0077,1707.2571,,85,85,,,,,,,,,,,,,,,,bars/018.png,bars/mask002.png,,,,,,,,,,,,8,2,,,,,,,4,8,4,10,,,,,,,,,,,1706.5224,1707.0076,1707.2571,1713.9335,space,6.654,,1713.9336,65,5,1714.923,1714.923,1714.9463,,,,0,38,38,38,1,150,90,,,,,,,,
,,60ddab2b1e7d0214f4782018,65af548978b86183ca316f5d,2024-01-23_08h08.24.136,bars,2023.2.3,Win32,59.52380952,657b66ea316d21385b68909f,,,,,,,,,,,1714.9468,1715.9411,,,1716.4357,1716.6767,,8,188,,,,,,,,,,,,,,,,bars/015.png,bars/mask002.png,,,,,,,,,,,,0,2,,,,,,,2,6,2,5,,,,,,,,,,,1715.9411,1716.4356,1716.6767,1721.7403,space,5.0445,,1721.7404,78,28,1722.7282,1722.7282,1722.7478,,,,0,39,39,39,1,110,160,,,,,,,,
,,60ddab2b1e7d0214f4782018,65af548978b86183ca316f5d,2024-01-23_08h08.24.136,bars,2023.2.3,Win32,59.52380952,657b66ea316d21385b68909f,,,,,,,,,,,1722.7482,1723.7379,,,1724.2358,1724.4641,,82,82,,,,,,,,,,,,,,,,bars/046.png,bars/mask001.png,,,,,,,,,,,,6,2,,,,,,,4,8,2,7,,,,,,,,,,,1723.7379,1724.2358,1724.4641,1729.6434,space,5.1568,,1729.6435,73,3,1730.6331,1730.6332,1730.6526,,,,0,40,40,40,1,155,85,,,,,,,,
,,60ddab2b1e7d0214f4782018,65af548978b86183ca316f5d,2024-01-23_08h08.24.136,bars,2023.2.3,Win32,59.52380952,657b66ea316d21385b68909f,,,,,,,,,,,1730.653,1731.6455,,,1732.1303,1732.3691,,94,94,,,,,,,,,,,,,,,,bars/041.png,bars/mask004.png,,,,,,,,,,,,7,2,,,,,,,6,10,5,10,,,,,,,,,,,1731.6457,1732.1303,1732.3692,1738.5606,space,6.1564,,1738.5608,74,9,1739.5571,1739.5571,1739.5785,,,,0,41,41,41,1,20,85,,,,,,,,
,,60ddab2b1e7d0214f4782018,65af548978b86183ca316f5d,2024-01-23_08h08.24.136,bars,2023.2.3,Win32,59.52380952,657b66ea316d21385b68909f,,,,,,,,,,,1739.5788,1740.5688,,,1741.061,1741.3035,,61,61,,,,,,,,,,,,,,,,bars/022.png,bars/mask004.png,,,,,,,,,,,,0,1,,,,,,,8,8,8,10,,,,,,,,,,,1740.5689,1741.061,1741.3035,1750.7276,space,9.3954,,1750.7278,34,41,1751.7338,1751.7339,1751.7559,,,,0,42,42,42,1,95,20,,,,,,,,
,,60ddab2b1e7d0214f4782018,65af548978b86183ca316f5d,2024-01-23_08h08.24.136,bars,2023.2.3,Win32,59.52380952,657b66ea316d21385b68909f,,,,,,,,,,,1751.7563,1752.748,,,1753.2487,1753.4928,,36,36,,,,,,,,,,,,,,,,bars/042.png,bars/mask002.png,,,,,,,,,,,,0,2,,,,,,,10,6,10,6,,,,,,,,,,,1752.748,1753.2487,1753.4928,1756.1865,space,2.6699,,1756.1866,71,39,1757.1792,1757.1792,1757.1997,,,,0,43,43,43,1,145,75,,,,,,,,
,,60ddab2b1e7d0214f4782018,65af548978b86183ca316f5d,2024-01-23_08h08.24.136,bars,2023.2.3,Win32,59.52380952,657b66ea316d21385b68909f,,,,,,,,,,,1757.2,1758.2055,,,1758.6999,1758.9474,,120,120,,,,,,,,,,,,,,,,bars/015.png,bars/mask007.png,,,,,,,,,,,,7,1,,,,,,,8,4,10,5,,,,,,,,,,,1758.2056,1758.6998,1758.9474,1761.8486,space,2.8827,,1761.8486,10,40,1762.8491,1762.8491,1762.8702,,,,0,44,44,44,1,110,160,,,,,,,,
,,60ddab2b1e7d0214f4782018,65af548978b86183ca316f5d,2024-01-23_08h08.24.136,bars,2023.2.3,Win32,59.52380952,657b66ea316d21385b68909f,,,,,,,,,,,1762.8706,1763.8583,,,1764.3514,1764.5958,,97,97,,,,,,,,,,,,,,,,bars/044.png,bars/mask007.png,,,,,,,,,,,,2,1,,,,,,,6,2,7,2,,,,,,,,,,,1763.8584,1764.3513,1764.5958,1769.899,space,5.2808,,1769.8992,22,58,1770.8931,1770.8932,1770.9125,,,,0,45,45,45,1,75,155,,,,,,,,
,,60ddab2b1e7d0214f4782018,65af548978b86183ca316f5d,2024-01-23_08h08.24.136,bars,2023.2.3,Win32,59.52380952,657b66ea316d21385b68909f,,,,,,,,,,,1770.9128,1771.9033,,,1772.4007,1772.6407,,179,-1,,,,,,,,,,,,,,,,bars/037.png,bars/mask007.png,,,,,,,,,,,,0,1,,,,,,,4,0,5,0,,,,,,,,,,,1771.9034,1772.4006,1772.6407,1776.4071,space,3.7325,,1776.4072,29,74,1777.3912,1777.3914,1777.4104,,,,0,46,46,46,1,150,105,,,,,,,,
,,60ddab2b1e7d0214f4782018,65af548978b86183ca316f5d,2024-01-23_08h08.24.136,bars,2023.2.3,Win32,59.52380952,657b66ea316d21385b68909f,,,,,,,,,,,1777.4108,1778.4175,,,1778.9209,1779.1715,,46,46,,,,,,,,,,,,,,,,bars/044.png,bars/mask005.png,,,,,,,,,,,,0,1,,,,,,,2,2,2,2,,,,,,,,,,,1778.4177,1778.9208,1779.1715,1781.6146,space,2.4205,,1781.6146,29,71,1782.5984,1782.5986,1782.6178,,,,0,47,47,47,1,75,155,,,,,,,,
,,60ddab2b1e7d0214f4782018,65af548978b86183ca316f5d,2024-01-23_08h08.24.136,bars,2023.2.3,Win32,59.52380952,657b66ea316d21385b68909f,,,,,,,,,,,1782.6184,1783.5997,,,1784.1047,1784.3511,,99,99,,,,,,,,,,,,,,,,bars/017.png,bars/mask004.png,,,,,,,,,,,,0,1,,,,,,,0,4,1,5,,,,,,,,,,,1783.5998,1784.1035,1784.3511,1796.339,space,11.9665,,1796.3391,46,54,1797.3295,1797.3296,1797.3503,,,,0,48,48,48,1,145,45,,,,,,,,
,,60ddab2b1e7d0214f4782018,65af548978b86183ca316f5d,2024-01-23_08h08.24.136,bars,2023.2.3,Win32,59.52380952,657b66ea316d21385b68909f,,,,,,,,,,,1797.3508,1798.3395,,,1798.8316,1799.0835,,65,65,,,,,,,,,,,,,,,,bars/029.png,bars/mask004.png,,,,,,,,,,,,1,2,,,,,,,2,2,3,2,,,,,,,,,,,1798.3395,1798.8314,1799.0836,1803.0043,space,3.8987,,1803.0044,25,20,1803.9974,1803.9974,1804.0195,,,,0,49,49,49,1,90,45,,,,,,,,
,,60ddab2b1e7d0214f4782018,65af548978b86183ca316f5d,2024-01-23_08h08.24.136,bars,2023.2.3,Win32,59.52380952,657b66ea316d21385b68909f,,,,,,,,,,,,,,,,,,,,,,,,,,,,,,,,,,,,,,,,,,,,,,,,,,,,,,,,,,,,,,,,,,,,,,,,,,,,,,,,,,,,,,,,,,,,,1804.0201,1864.0083,0,1,1,4,1,sequence_tables/blk028.csv
,,60ddab2b1e7d0214f4782018,65af548978b86183ca316f5d,2024-01-23_08h08.24.136,bars,2023.2.3,Win32,59.52380952,657b66ea316d21385b68909f,,,,,,,,,,,1865.8167,1866.8073,,,1867.3016,1867.5537,,123,123,,,,,,,,,,,,,,,,bars/015.png,bars/mask001.png,,,,,,,,,,,,4,1,,,,,,,7,5,7,6,,,,,,1864.0319,1865.8013,space,1.7519,,1866.8074,1867.3016,1867.5538,1870.0791,space,2.5036,,1870.0792,13,37,1871.0687,1871.0687,1871.0904,,,,0,0,0,0,1,110,160,,,,,,,,
,,60ddab2b1e7d0214f4782018,65af548978b86183ca316f5d,2024-01-23_08h08.24.136,bars,2023.2.3,Win32,59.52380952,657b66ea316d21385b68909f,,,,,,,,,,,1871.0909,1872.0825,,,1872.5755,1872.8213,,54,54,,,,,,,,,,,,,,,,bars/000.png,bars/mask009.png,,,,,,,,,,,,5,1,,,,,,,9,3,10,2,,,,,,,,,,,1872.0825,1872.5754,1872.8214,1875.5698,space,2.7287,,1875.5699,14,89,1876.5668,1876.5669,1876.5911,,,,0,1,1,1,1,40,145,,,,,,,,
,,60ddab2b1e7d0214f4782018,65af548978b86183ca316f5d,2024-01-23_08h08.24.136,bars,2023.2.3,Win32,59.52380952,657b66ea316d21385b68909f,,,,,,,,,,,1876.5915,1877.6175,,,1878.0955,1878.3363,,49,49,,,,,,,,,,,,,,,,bars/043.png,bars/mask003.png,,,,,,,,,,,,2,1,,,,,,,7,1,6,2,,,,,,,,,,,1877.6175,1878.0954,1878.3363,1881.639,space,3.283,,1881.639,19,81,1882.6451,1882.6452,1882.6646,,,,0,2,2,2,1,30,130,,,,,,,,
,,60ddab2b1e7d0214f4782018,65af548978b86183ca316f5d,2024-01-23_08h08.24.136,bars,2023.2.3,Win32,59.52380952,657b66ea316d21385b68909f,,,,,,,,,,,1882.665,1883.6468,,,1884.1535,1884.4106,,134,134,,,,,,,,,,,,,,,,bars/042.png,bars/mask001.png,,,,,,,,,,,,3,1,,,,,,,5,3,5,2,,,,,,,,,,,1883.6469,1884.1535,1884.4106,1889.8617,space,5.429,,1889.8618,11,59,1890.8524,1890.8525,1890.8729,,,,0,3,3,3,1,145,75,,,,,,,,
,,60ddab2b1e7d0214f4782018,65af548978b86183ca316f5d,2024-01-23_08h08.24.136,bars,2023.2.3,Win32,59.52380952,657b66ea316d21385b68909f,,,,,,,,,,,1890.8733,1891.8619,,,1892.3526,1892.6028,,142,-38,,,,,,,,,,,,,,,,bars/042.png,bars/mask002.png,,,,,,,,,,,,5,1,,,,,,,7,1,6,2,,,,,,,,,,,1891.862,1892.3526,1892.6028,1896.6153,space,3.9899,,1896.6153,3,67,1897.6046,1897.6047,1897.6237,,,,0,4,4,4,1,145,75,,,,,,,,
,,60ddab2b1e7d0214f4782018,65af548978b86183ca316f5d,2024-01-23_08h08.24.136,bars,2023.2.3,Win32,59.52380952,657b66ea316d21385b68909f,,,,,,,,,,,1897.6241,1898.6338,,,1899.1269,1899.3743,,112,112,,,,,,,,,,,,,,,,bars/029.png,bars/mask004.png,,,,,,,,,,,,1,1,,,,,,,5,0,5,0,,,,,,,,,,,1898.6339,1899.1269,1899.3743,1903.5534,space,4.1596,,1903.5534,22,67,1904.5414,1904.5414,1904.5607,,,,0,5,5,5,1,90,45,,,,,,,,
,,60ddab2b1e7d0214f4782018,65af548978b86183ca316f5d,2024-01-23_08h08.24.136,bars,2023.2.3,Win32,59.52380952,657b66ea316d21385b68909f,,,,,,,,,,,1904.561,1905.553,,,1906.0489,1906.3047,,107,107,,,,,,,,,,,,,,,,bars/045.png,bars/mask004.png,,,,,,,,,,,,6,1,,,,,,,7,2,8,3,,,,,,,,,,,1905.5531,1906.0489,1906.3048,1911.1137,space,4.7861,,1911.1137,7,83,1912.0901,1912.0902,1912.1092,,,,0,6,6,6,1,100,10,,,,,,,,
,,60ddab2b1e7d0214f4782018,65af548978b86183ca316f5d,2024-01-23_08h08.24.136,bars,2023.2.3,Win32,59.52380952,657b66ea316d21385b68909f,,,,,,,,,,,1912.1095,1913.103,,,1913.5964,1913.8445,,70,70,,,,,,,,,,,,,,,,bars/044.png,bars/mask000.png,,,,,,,,,,,,8,1,,,,,,,9,0,10,1,,,,,,,,,,,1913.1031,1913.5963,1913.8447,1916.2549,space,2.3911,,1916.2551,5,85,1917.259,1917.259,1917.2614,,,,0,7,7,7,1,75,155,,,,,,,,
,,60ddab2b1e7d0214f4782018,65af548978b86183ca316f5d,2024-01-23_08h08.24.136,bars,2023.2.3,Win32,59.52380952,657b66ea316d21385b68909f,,,,,,,,,,,1917.2621,1918.2498,,,1918.7396,1918.9963,,113,113,,,,,,,,,,,,,,,,bars/012.png,bars/mask009.png,,,,,,,,,,,,1,1,,,,,,,7,0,6,0,,,,,,,,,,,1918.2499,1918.7396,1918.9963,1922.4071,space,3.3884,,1922.4072,23,82,1923.3897,1923.3898,1923.411,,,,0,8,8,8,1,90,15,,,,,,,,
,,60ddab2b1e7d0214f4782018,65af548978b86183ca316f5d,2024-01-23_08h08.24.136,bars,2023.2.3,Win32,59.52380952,657b66ea316d21385b68909f,,,,,,,,,,,1923.4116,1924.4022,,,1924.9089,1925.1532,,107,107,,,,,,,,,,,,,,,,bars/029.png,bars/mask004.png,,,,,,,,,,,,2,1,,,,,,,5,2,4,1,,,,,,,,,,,1924.4022,1924.9087,1925.1532,1931.4278,space,6.2522,,1931.4278,17,62,1932.4352,1932.4353,1932.4555,,,,0,9,9,9,1,90,45,,,,,,,,
,,60ddab2b1e7d0214f4782018,65af548978b86183ca316f5d,2024-01-23_08h08.24.136,bars,2023.2.3,Win32,59.52380952,657b66ea316d21385b68909f,,,,,,,,,,,1932.4563,1933.4489,,,1933.9377,1934.1822,,161,161,,,,,,,,,,,,,,,,bars/037.png,bars/mask001.png,,,,,,,,,,,,3,1,,,,,,,3,0,4,0,,,,,,,,,,,1933.449,1933.9377,1934.1822,1940.2801,space,6.0752,,1940.2802,11,56,1941.2809,1941.281,1941.3025,,,,0,10,10,10,1,150,105,,,,,,,,
,,60ddab2b1e7d0214f4782018,65af548978b86183ca316f5d,2024-01-23_08h08.24.136,bars,2023.2.3,Win32,59.52380952,657b66ea316d21385b68909f,,,,,,,,,,,1941.3031,1942.2978,,,1942.7778,1943.0286,,56,56,,,,,,,,,,,,,,,,bars/041.png,bars/mask003.png,,,,,,,,,,,,0,2,,,,,,,1,0,1,0,,,,,,,,,,,1942.2979,1942.7777,1943.0286,1948.5825,space,5.5314,,1948.5826,36,29,1949.592,1949.5921,1949.6147,,,,0,11,11,11,1,20,85,,,,,,,,
,,60ddab2b1e7d0214f4782018,65af548978b86183ca316f5d,2024-01-23_08h08.24.136,bars,2023.2.3,Win32,59.52380952,657b66ea316d21385b68909f,,,,,,,,,,,1949.6151,1950.6166,,,1951.1112,1951.3554,,59,239,,,,,,,,,,,,,,,,bars/027.png,bars/mask001.png,,,,,,,,,,,,0,2,,,,,,,3,0,3,0,,,,,,,,,,,1950.6166,1951.1111,1951.3554,1959.584,space,8.2063,,1959.5841,51,9,1960.5687,1960.5688,1960.5888,,,,0,12,12,12,1,110,50,,,,,,,,
,,60ddab2b1e7d0214f4782018,65af548978b86183ca316f5d,2024-01-23_08h08.24.136,bars,2023.2.3,Win32,59.52380952,657b66ea316d21385b68909f,,,,,,,,,,,1960.5891,1961.5917,,,1962.0755,1962.3316,,164,-16,,,,,,,,,,,,,,,,bars/008.png,bars/mask007.png,,,,,,,,,,,,0,2,,,,,,,5,0,4,0,,,,,,,,,,,1961.5917,1962.0753,1962.3316,1969.0733,space,6.7184,,1969.0734,54,16,1970.0639,1970.064,1970.0847,,,,0,13,13,13,1,110,0,,,,,,,,
,,60ddab2b1e7d0214f4782018,65af548978b86183ca316f5d,2024-01-23_08h08.24.136,bars,2023.2.3,Win32,59.52380952,657b66ea316d21385b68909f,,,,,,,,,,,1970.0851,1971.0675,,,1971.5683,1971.8104,,126,126,,,,,,,,,,,,,,,,bars/003.png,bars/mask001.png,,,,,,,,,,,,1,2,,,,,,,3,0,3,2,,,,,,,,,,,1971.0677,1971.5681,1971.8105,1974.4709,space,2.638,,1974.4709,79,14,1975.4618,1975.4618,1975.4819,,,,0,14,14,14,1,25,140,,,,,,,,
,,60ddab2b1e7d0214f4782018,65af548978b86183ca316f5d,2024-01-23_08h08.24.136,bars,2023.2.3,Win32,59.52380952,657b66ea316d21385b68909f,,,,,,,,,,,1975.4824,1976.4757,,,1976.9657,1977.2135,,61,61,,,,,,,,,,,,,,,,bars/007.png,bars/mask004.png,,,,,,,,,,,,2,2,,,,,,,5,2,4,3,,,,,,,,,,,1976.4758,1976.9657,1977.2137,1980.329,space,3.0961,,1980.3291,66,6,1981.3249,1981.325,1981.3445,,,,0,15,15,15,1,175,55,,,,,,,,
,,60ddab2b1e7d0214f4782018,65af548978b86183ca316f5d,2024-01-23_08h08.24.136,bars,2023.2.3,Win32,59.52380952,657b66ea316d21385b68909f,,,,,,,,,,,1981.3449,1982.3264,,,1982.8041,1983.0544,,123,123,,,,,,,,,,,,,,,,bars/049.png,bars/mask008.png,,,,,,,,,,,,2,2,,,,,,,7,4,8,3,,,,,,,,,,,1982.3265,1982.8041,1983.0545,1986.3869,space,3.3132,,1986.3869,37,8,1987.3835,1987.3836,1987.4037,,,,0,16,16,16,1,160,115,,,,,,,,
,,60ddab2b1e7d0214f4782018,65af548978b86183ca316f5d,2024-01-23_08h08.24.136,bars,2023.2.3,Win32,59.52380952,657b66ea316d21385b68909f,,,,,,,,,,,1987.4043,1988.4055,,,1988.8916,1989.1233,,61,61,,,,,,,,,,,,,,,,bars/021.png,bars/mask002.png,,,,,,,,,,,,2,2,,,,,,,9,2,9,3,,,,,,,,,,,1988.4055,1988.8915,1989.1233,1992.5131,space,3.3675,,1992.5131,86,9,1993.5247,1993.5248,1993.5443,,,,0,17,17,17,1,155,70,,,,,,,,
,,60ddab2b1e7d0214f4782018,65af548978b86183ca316f5d,2024-01-23_08h08.24.136,bars,2023.2.3,Win32,59.52380952,657b66ea316d21385b68909f,,,,,,,,,,,1993.5446,1994.5361,,,1995.0274,1995.2836,,112,112,,,,,,,,,,,,,,,,bars/021.png,bars/mask009.png,,,,,,,,,,,,0,2,,,,,,,10,0,10,1,,,,,,,,,,,1994.5361,1995.0273,1995.2836,1998.4923,space,3.1867,,1998.4925,43,42,1999.4872,1999.4872,1999.5075,,,,0,18,18,18,1,155,70,,,,,,,,
,,60ddab2b1e7d0214f4782018,65af548978b86183ca316f5d,2024-01-23_08h08.24.136,bars,2023.2.3,Win32,59.52380952,657b66ea316d21385b68909f,,,,,,,,,,,1999.508,2000.5051,,,2000.9987,2001.2457,,16,196,,,,,,,,,,,,,,,,bars/023.png,bars/mask006.png,,,,,,,,,,,,6,1,,,,,,,10,0,7,0,,,,,,,,,,,2000.5051,2000.9987,2001.2457,2005.5864,space,4.321,,2005.5864,4,81,2006.5803,2006.5803,2006.6014,,,,0,19,19,19,1,20,115,,,,,,,,
,,60ddab2b1e7d0214f4782018,65af548978b86183ca316f5d,2024-01-23_08h08.24.136,bars,2023.2.3,Win32,59.52380952,657b66ea316d21385b68909f,,,,,,,,,,,2006.6017,2007.5819,,,2008.0828,2008.3275,,125,125,,,,,,,,,,,,,,,,bars/030.png,bars/mask000.png,,,,,,,,,,,,4,1,,,,,,,8,2,7,3,,,,,,,,,,,2007.5819,2008.0828,2008.3276,2010.6991,space,2.3494,,2010.6991,15,60,2011.7046,2011.7047,2011.7239,,,,0,20,20,20,1,140,65,,,,,,,,
,,60ddab2b1e7d0214f4782018,65af548978b86183ca316f5d,2024-01-23_08h08.24.136,bars,2023.2.3,Win32,59.52380952,657b66ea316d21385b68909f,,,,,,,,,,,2011.7242,2012.7222,,,2013.2229,2013.4733,,44,224,,,,,,,,,,,,,,,,bars/026.png,bars/mask004.png,,,,,,,,,,,,7,1,,,,,,,10,4,10,4,,,,,,,,,,,2012.7222,2013.2229,2013.4734,2018.9251,space,5.4291,,2018.9251,9,41,2019.9164,2019.9165,2019.9361,,,,0,21,21,21,1,35,85,,,,,,,,
,,60ddab2b1e7d0214f4782018,65af548978b86183ca316f5d,2024-01-23_08h08.24.136,bars,2023.2.3,Win32,59.52380952,657b66ea316d21385b68909f,,,,,,,,,,,2019.9367,2020.9265,,,2021.4233,2021.6675,,71,71,,,,,,,,,,,,,,,,bars/012.png,bars/mask009.png,,,,,,,,,,,,3,1,,,,,,,8,2,7,2,,,,,,,,,,,2020.9266,2021.4232,2021.6675,2025.7317,space,4.0414,,2025.7329,19,56,2026.7353,2026.7354,2026.7547,,,,0,22,22,22,1,90,15,,,,,,,,
,,60ddab2b1e7d0214f4782018,65af548978b86183ca316f5d,2024-01-23_08h08.24.136,bars,2023.2.3,Win32,59.52380952,657b66ea316d21385b68909f,,,,,,,,,,,2026.755,2027.7498,,,2028.26,2028.5161,,117,117,,,,,,,,,,,,,,,,bars/011.png,bars/mask008.png,,,,,,,,,,,,0,2,,,,,,,10,0,9,0,,,,,,,,,,,2027.7499,2028.2599,2028.5163,2035.3369,space,6.8013,,2035.3369,43,32,2036.3234,2036.3235,2036.3455,,,,0,23,23,23,1,160,85,,,,,,,,
,,60ddab2b1e7d0214f4782018,65af548978b86183ca316f5d,2024-01-23_08h08.24.136,bars,2023.2.3,Win32,59.52380952,657b66ea316d21385b68909f,,,,,,,,,,,2036.3459,2037.35,,,2037.8583,2038.1003,,14,194,,,,,,,,,,,,,,,,bars/010.png,bars/mask002.png,,,,,,,,,,,,0,1,,,,,,,10,0,10,0,,,,,,,,,,,2037.3501,2037.8583,2038.1003,2041.8339,space,3.7109,,2041.834,29,41,2042.8458,2042.846,2042.8668,,,,0,24,24,24,1,165,55,,,,,,,,
,,60ddab2b1e7d0214f4782018,65af548978b86183ca316f5d,2024-01-23_08h08.24.136,bars,2023.2.3,Win32,59.52380952,657b66ea316d21385b68909f,,,,,,,,,,,2042.8672,2043.8645,,,2044.3549,2044.5979,,114,114,,,,,,,,,,,,,,,,bars/008.png,bars/mask006.png,,,,,,,,,,,,7,1,,,,,,,8,0,8,2,,,,,,,,,,,2043.8646,2044.3548,2044.598,2047.1371,space,2.5168,,2047.1371,4,66,2048.1392,2048.1392,2048.1578,,,,0,25,25,25,1,110,0,,,,,,,,
,,60ddab2b1e7d0214f4782018,65af548978b86183ca316f5d,2024-01-23_08h08.24.136,bars,2023.2.3,Win32,59.52380952,657b66ea316d21385b68909f,,,,,,,,,,,2048.1583,2049.1418,,,2049.6235,2049.8578,,21,201,,,,,,,,,,,,,,,,bars/006.png,bars/mask008.png,,,,,,,,,,,,5,1,,,,,,,10,0,10,2,,,,,,,,,,,2049.1419,2049.6235,2049.8579,2056.1151,space,6.2349,,2056.1151,14,79,2057.1117,2057.1117,2057.1317,,,,0,26,26,26,1,35,100,,,,,,,,
,,60ddab2b1e7d0214f4782018,65af548978b86183ca316f5d,2024-01-23_08h08.24.136,bars,2023.2.3,Win32,59.52380952,657b66ea316d21385b68909f,,,,,,,,,,,2057.132,2058.1279,,,2058.6345,2058.877,,35,35,,,,,,,,,,,,,,,,bars/003.png,bars/mask000.png,,,,,,,,,,,,4,1,,,,,,,8,2,6,2,,,,,,,,,,,2058.1279,2058.6345,2058.877,2061.0841,space,2.1827,,2061.0842,10,75,2062.089,2062.0891,2062.1082,,,,0,27,27,27,1,25,140,,,,,,,,
,,60ddab2b1e7d0214f4782018,65af548978b86183ca316f5d,2024-01-23_08h08.24.136,bars,2023.2.3,Win32,59.52380952,657b66ea316d21385b68909f,,,,,,,,,,,2062.1086,2063.0904,,,2063.5897,2063.8355,,129,-51,,,,,,,,,,,,,,,,bars/001.png,bars/mask003.png,,,,,,,,,,,,6,1,,,,,,,6,4,6,4,,,,,,,,,,,2063.0905,2063.5896,2063.8356,2068.6723,space,4.8143,,2068.6723,1,44,2069.6721,2069.6721,2069.6915,,,,0,28,28,28,1,130,85,,,,,,,,
,,60ddab2b1e7d0214f4782018,65af548978b86183ca316f5d,2024-01-23_08h08.24.136,bars,2023.2.3,Win32,59.52380952,657b66ea316d21385b68909f,,,,,,,,,,,2069.6923,2070.6973,,,2071.2017,2071.4431,,59,239,,,,,,,,,,,,,,,,bars/025.png,bars/mask007.png,,,,,,,,,,,,3,2,,,,,,,4,6,5,7,,,,,,,,,,,2070.6974,2071.2016,2071.4432,2076.9613,space,5.4941,,2076.9613,46,19,2077.9587,2077.9587,2077.9804,,,,0,29,29,29,1,105,40,,,,,,,,
,,60ddab2b1e7d0214f4782018,65af548978b86183ca316f5d,2024-01-23_08h08.24.136,bars,2023.2.3,Win32,59.52380952,657b66ea316d21385b68909f,,,,,,,,,,,2077.9808,2078.9748,,,2079.4525,2079.7093,,47,47,,,,,,,,,,,,,,,,bars/028.png,bars/mask002.png,,,,,,,,,,,,7,1,,,,,,,6,8,7,8,,,,,,,,,,,2078.9749,2079.4524,2079.7094,2083.1415,space,3.4102,,2083.1416,2,73,2084.147,2084.1471,2084.1685,,,,0,30,30,30,1,45,120,,,,,,,,
,,60ddab2b1e7d0214f4782018,65af548978b86183ca316f5d,2024-01-23_08h08.24.136,bars,2023.2.3,Win32,59.52380952,657b66ea316d21385b68909f,,,,,,,,,,,2084.1688,2085.1728,,,2085.6666,2085.9253,,50,50,,,,,,,,,,,,,,,,bars/019.png,bars/mask009.png,,,,,,,,,,,,6,1,,,,,,,8,6,7,6,,,,,,,,,,,2085.1729,2085.6666,2085.9253,2090.9186,space,4.9748,,2090.9187,5,55,2091.9049,2091.905,2091.9251,,,,0,31,31,31,1,45,105,,,,,,,,
,,60ddab2b1e7d0214f4782018,65af548978b86183ca316f5d,2024-01-23_08h08.24.136,bars,2023.2.3,Win32,59.52380952,657b66ea316d21385b68909f,,,,,,,,,,,2091.9257,2092.9297,,,2093.4154,2093.6656,,58,58,,,,,,,,,,,,,,,,bars/014.png,bars/mask005.png,,,,,,,,,,,,2,1,,,,,,,6,4,7,3,,,,,,,,,,,2092.9297,2093.4153,2093.6657,2096.2317,space,2.544,,2096.2317,22,58,2097.2093,2097.2093,2097.2285,,,,0,32,32,32,1,80,0,,,,,,,,
,,60ddab2b1e7d0214f4782018,65af548978b86183ca316f5d,2024-01-23_08h08.24.136,bars,2023.2.3,Win32,59.52380952,657b66ea316d21385b68909f,,,,,,,,,,,2097.2288,2098.2214,,,2098.7116,2098.9558,,112,112,,,,,,,,,,,,,,,,bars/029.png,bars/mask005.png,,,,,,,,,,,,2,1,,,,,,,8,6,8,4,,,,,,,,,,,2098.2214,2098.7116,2098.9558,2101.7269,space,2.7446,,2101.727,22,67,2102.6955,2102.6955,2102.715,,,,0,33,33,33,1,90,45,,,,,,,,
,,60ddab2b1e7d0214f4782018,65af548978b86183ca316f5d,2024-01-23_08h08.24.136,bars,2023.2.3,Win32,59.52380952,657b66ea316d21385b68909f,,,,,,,,,,,2102.7154,2103.7063,,,2104.2023,2104.4471,,123,123,,,,,,,,,,,,,,,,bars/040.png,bars/mask003.png,,,,,,,,,,,,4,1,,,,,,,10,8,10,7,,,,,,,,,,,2103.7064,2104.2022,2104.4471,2107.8462,space,3.3765,,2107.8462,17,62,2108.8402,2108.8403,2108.8593,,,,0,34,34,34,1,140,5,,,,,,,,
,,60ddab2b1e7d0214f4782018,65af548978b86183ca316f5d,2024-01-23_08h08.24.136,bars,2023.2.3,Win32,59.52380952,657b66ea316d21385b68909f,,,,,,,,,,,2108.8596,2109.8705,,,2110.3614,2110.5901,,132,132,,,,,,,,,,,,,,,,bars/042.png,bars/mask003.png,,,,,,,,,,,,3,1,,,,,,,8,10,6,10,,,,,,,,,,,2109.8706,2110.3613,2110.5901,2112.425,space,1.8127,,2112.425,13,57,2113.4311,2113.4312,2113.4505,,,,0,35,35,35,1,145,75,,,,,,,,
,,60ddab2b1e7d0214f4782018,65af548978b86183ca316f5d,2024-01-23_08h08.24.136,bars,2023.2.3,Win32,59.52380952,657b66ea316d21385b68909f,,,,,,,,,,,2113.451,2114.4434,,,2114.9446,2115.1885,,125,125,,,,,,,,,,,,,,,,bars/036.png,bars/mask009.png,,,,,,,,,,,,2,1,,,,,,,6,8,7,8,,,,,,,,,,,2114.4435,2114.9445,2115.1886,2120.0337,space,4.8225,,2120.0338,20,75,2121.0235,2121.0236,2121.0446,,,,0,36,36,36,1,145,20,,,,,,,,
,,60ddab2b1e7d0214f4782018,65af548978b86183ca316f5d,2024-01-23_08h08.24.136,bars,2023.2.3,Win32,59.52380952,657b66ea316d21385b68909f,,,,,,,,,,,2121.0454,2122.0429,,,2122.5326,2122.7773,,176,-4,,,,,,,,,,,,,,,,bars/044.png,bars/mask001.png,,,,,,,,,,,,2,2,,,,,,,4,6,4,6,,,,,,,,,,,2122.043,2122.5325,2122.7774,2127.2862,space,4.4856,,2127.2862,79,21,2128.2954,2128.2954,2128.3168,,,,0,37,37,37,1,75,155,,,,,,,,
,,60ddab2b1e7d0214f4782018,65af548978b86183ca316f5d,2024-01-23_08h08.24.136,bars,2023.2.3,Win32,59.52380952,657b66ea316d21385b68909f,,,,,,,,,,,2128.3172,2129.3138,,,2129.8053,2130.0601,,151,151,,,,,,,,,,,,,,,,bars/014.png,bars/mask002.png,,,,,,,,,,,,0,2,,,,,,,6,4,6,4,,,,,,,,,,,2129.3138,2129.8052,2130.0604,2133.559,space,3.4656,,2133.559,71,29,2134.5542,2134.5542,2134.5733,,,,0,38,38,38,1,80,0,,,,,,,,
,,60ddab2b1e7d0214f4782018,65af548978b86183ca316f5d,2024-01-23_08h08.24.136,bars,2023.2.3,Win32,59.52380952,657b66ea316d21385b68909f,,,,,,,,,,,2134.5736,2135.5615,,,2136.0691,2136.3146,,51,51,,,,,,,,,,,,,,,,bars/048.png,bars/mask002.png,,,,,,,,,,,,7,1,,,,,,,8,6,7,6,,,,,,,,,,,2135.5616,2136.069,2136.3146,2139.099,space,2.7643,,2139.099,1,56,2140.1009,2140.1009,2140.1219,,,,0,39,39,39,1,50,175,,,,,,,,
,,60ddab2b1e7d0214f4782018,65af548978b86183ca316f5d,2024-01-23_08h08.24.136,bars,2023.2.3,Win32,59.52380952,657b66ea316d21385b68909f,,,,,,,,,,,2140.1225,2141.1296,,,2141.6201,2141.8709,,127,-53,,,,,,,,,,,,,,,,bars/040.png,bars/mask008.png,,,,,,,,,,,,5,1,,,,,,,10,4,9,3,,,,,,,,,,,2141.1297,2141.6201,2141.871,2146.6073,space,4.7173,,2146.6074,13,58,2147.6067,2147.6068,2147.6267,,,,0,40,40,40,1,140,5,,,,,,,,
,,60ddab2b1e7d0214f4782018,65af548978b86183ca316f5d,2024-01-23_08h08.24.136,bars,2023.2.3,Win32,59.52380952,657b66ea316d21385b68909f,,,,,,,,,,,2147.6271,2148.6287,,,2149.1228,2149.3683,,110,110,,,,,,,,,,,,,,,,bars/027.png,bars/mask006.png,,,,,,,,,,,,9,1,,,,,,,8,2,9,0,,,,,,,,,,,2148.6287,2149.1227,2149.3683,2153.0188,space,3.6279,,2153.0188,0,60,2154.0138,2154.0139,2154.0331,,,,0,41,41,41,1,110,50,,,,,,,,
,,60ddab2b1e7d0214f4782018,65af548978b86183ca316f5d,2024-01-23_08h08.24.136,bars,2023.2.3,Win32,59.52380952,657b66ea316d21385b68909f,,,,,,,,,,,2154.0334,2155.038,,,2155.5266,2155.7724,,109,-71,,,,,,,,,,,,,,,,bars/025.png,bars/mask009.png,,,,,,,,,,,,9,1,,,,,,,10,0,10,0,,,,,,,,,,,2155.038,2155.5265,2155.7724,2162.0803,space,6.2886,,2162.0804,4,69,2163.0817,2163.0818,2163.1011,,,,0,42,42,42,1,105,40,,,,,,,,
,,60ddab2b1e7d0214f4782018,65af548978b86183ca316f5d,2024-01-23_08h08.24.136,bars,2023.2.3,Win32,59.52380952,657b66ea316d21385b68909f,,,,,,,,,,,2163.1014,2164.1232,,,2164.6177,2164.8468,,110,-70,,,,,,,,,,,,,,,,bars/017.png,bars/mask006.png,,,,,,,,,,,,0,1,,,,,,,8,2,8,2,,,,,,,,,,,2164.1233,2164.6176,2164.8468,2168.9295,space,4.0596,,2168.9295,35,65,2169.9298,2169.9298,2169.9498,,,,0,43,43,43,1,145,45,,,,,,,,
,,60ddab2b1e7d0214f4782018,65af548978b86183ca316f5d,2024-01-23_08h08.24.136,bars,2023.2.3,Win32,59.52380952,657b66ea316d21385b68909f,,,,,,,,,,,2169.9503,2170.9439,,,2171.4439,2171.6881,,73,73,,,,,,,,,,,,,,,,bars/029.png,bars/mask000.png,,,,,,,,,,,,4,1,,,,,,,10,0,10,1,,,,,,,,,,,2170.944,2171.4439,2171.6883,2175.0753,space,3.365,,2175.0754,17,28,2176.0671,2176.0673,2176.0865,,,,0,44,44,44,1,90,45,,,,,,,,
,,60ddab2b1e7d0214f4782018,65af548978b86183ca316f5d,2024-01-23_08h08.24.136,bars,2023.2.3,Win32,59.52380952,657b66ea316d21385b68909f,,,,,,,,,,,2176.0874,2177.0801,,,2177.5813,2177.8194,,132,132,,,,,,,,,,,,,,,,bars/034.png,bars/mask000.png,,,,,,,,,,,,6,1,,,,,,,8,0,8,0,,,,,,,,,,,2177.0802,2177.5812,2177.8194,2179.6258,space,1.7865,,2179.6259,7,67,2180.6225,2180.6226,2180.6421,,,,0,45,45,45,1,125,65,,,,,,,,
,,60ddab2b1e7d0214f4782018,65af548978b86183ca316f5d,2024-01-23_08h08.24.136,bars,2023.2.3,Win32,59.52380952,657b66ea316d21385b68909f,,,,,,,,,,,2180.6427,2181.6351,,,2182.1268,2182.3858,,76,76,,,,,,,,,,,,,,,,bars/012.png,bars/mask001.png,,,,,,,,,,,,5,1,,,,,,,10,2,10,3,,,,,,,,,,,2181.6351,2182.1267,2182.3858,2186.9692,space,4.5589,,2186.9694,14,61,2187.9493,2187.9494,2187.9684,,,,0,46,46,46,1,90,15,,,,,,,,
,,60ddab2b1e7d0214f4782018,65af548978b86183ca316f5d,2024-01-23_08h08.24.136,bars,2023.2.3,Win32,59.52380952,657b66ea316d21385b68909f,,,,,,,,,,,2187.9689,2188.9708,,,2189.4694,2189.7295,,153,-27,,,,,,,,,,,,,,,,bars/049.png,bars/mask006.png,,,,,,,,,,,,6,1,,,,,,,8,0,8,0,,,,,,,,,,,2188.9708,2189.4694,2189.7295,2193.8651,space,4.1132,,2193.8651,7,38,2194.8656,2194.8657,2194.8852,,,,0,47,47,47,1,160,115,,,,,,,,
,,60ddab2b1e7d0214f4782018,65af548978b86183ca316f5d,2024-01-23_08h08.24.136,bars,2023.2.3,Win32,59.52380952,657b66ea316d21385b68909f,,,,,,,,,,,2194.8856,2195.8748,,,2196.3655,2196.6112,,94,-86,,,,,,,,,,,,,,,,bars/045.png,bars/mask001.png,,,,,,,,,,,,4,1,,,,,,,6,2,5,5,,,,,,,,,,,2195.8749,2196.3655,2196.6113,2203.4153,space,6.7828,,2203.4154,6,84,2204.4217,2204.4218,2204.4409,,,,0,48,48,48,1,100,10,,,,,,,,
,,60ddab2b1e7d0214f4782018,65af548978b86183ca316f5d,2024-01-23_08h08.24.136,bars,2023.2.3,Win32,59.52380952,657b66ea316d21385b68909f,,,,,,,,,,,2204.4416,2205.4425,,,2205.9472,2206.1909,,11,191,,,,,,,,,,,,,,,,bars/047.png,bars/mask006.png,,,,,,,,,,,,7,1,,,,,,,8,4,8,4,,,,,,,,,,,2205.4425,2205.9472,2206.1909,2210.2437,space,4.0289,,2210.2437,4,59,2211.2327,2211.2328,2211.2531,,,,0,49,49,49,1,15,70,,,,,,,,
,,60ddab2b1e7d0214f4782018,65af548978b86183ca316f5d,2024-01-23_08h08.24.136,bars,2023.2.3,Win32,59.52380952,657b66ea316d21385b68909f,,,,,,,,,,,,,,,,,,,,,,,,,,,,,,,,,,,,,,,,,,,,,,,,,,,,,,,,,,,,,,,,,,,,,,,,,,,,,,,,,,,,,,,,,,,,,2211.2537,2271.2459,0,2,2,3,1,sequence_tables/blk004.csv
,,60ddab2b1e7d0214f4782018,65af548978b86183ca316f5d,2024-01-23_08h08.24.136,bars,2023.2.3,Win32,59.52380952,657b66ea316d21385b68909f,,,,,,,,,,,2273.9829,2274.97,,,2275.4687,2275.7143,,95,95,,,,,,,,,,,,,,,,bars/042.png,bars/mask007.png,,,,,,,,,,,,2,2,,,,,,,10,7,10,6,,,,,,2271.2668,2273.9683,space,2.6827,,2274.9701,2275.4687,2275.7144,2281.855,space,6.1185,,2281.8551,50,20,2282.8613,2282.8614,2282.8834,,,,0,0,0,0,1,145,75,,,,,,,,
,,60ddab2b1e7d0214f4782018,65af548978b86183ca316f5d,2024-01-23_08h08.24.136,bars,2023.2.3,Win32,59.52380952,657b66ea316d21385b68909f,,,,,,,,,,,2282.884,2283.8806,,,2284.375,2284.6268,,110,-70,,,,,,,,,,,,,,,,bars/015.png,bars/mask009.png,,,,,,,,,,,,5,1,,,,,,,8,5,5,5,,,,,,,,,,,2283.8807,2284.3749,2284.6268,2289.7552,space,5.1063,,2289.7552,0,50,2290.7351,2290.7353,2290.7559,,,,0,1,1,1,1,110,160,,,,,,,,
,,60ddab2b1e7d0214f4782018,65af548978b86183ca316f5d,2024-01-23_08h08.24.136,bars,2023.2.3,Win32,59.52380952,657b66ea316d21385b68909f,,,,,,,,,,,2290.7562,2291.751,,,2292.2457,2292.4984,,121,121,,,,,,,,,,,,,,,,bars/010.png,bars/mask007.png,,,,,,,,,,,,0,1,,,,,,,10,3,10,3,,,,,,,,,,,2291.7512,2292.2457,2292.4985,2294.0865,space,1.5656,,2294.0866,44,66,2295.0902,2295.0902,2295.0923,,,,0,2,2,2,1,165,55,,,,,,,,
,,60ddab2b1e7d0214f4782018,65af548978b86183ca316f5d,2024-01-23_08h08.24.136,bars,2023.2.3,Win32,59.52380952,657b66ea316d21385b68909f,,,,,,,,,,,2295.0932,2296.0875,,,2296.5851,2296.8309,,50,50,,,,,,,,,,,,,,,,bars/041.png,bars/mask008.png,,,,,,,,,,,,0,1,,,,,,,10,1,10,1,,,,,,,,,,,2296.0876,2296.585,2296.8309,2300.4794,space,3.629,,2300.4795,30,35,2301.4809,2301.4809,2301.5002,,,,0,3,3,3,1,20,85,,,,,,,,
,,60ddab2b1e7d0214f4782018,65af548978b86183ca316f5d,2024-01-23_08h08.24.136,bars,2023.2.3,Win32,59.52380952,657b66ea316d21385b68909f,,,,,,,,,,,2301.5007,2302.4973,,,2302.991,2303.2343,,161,161,,,,,,,,,,,,,,,,bars/030.png,bars/mask007.png,,,,,,,,,,,,2,1,,,,,,,8,3,7,4,,,,,,,,,,,2302.4974,2302.991,2303.2343,2308.5749,space,5.3125,,2308.5749,21,84,2309.5811,2309.5812,2309.6002,,,,0,4,4,4,1,140,65,,,,,,,,
,,60ddab2b1e7d0214f4782018,65af548978b86183ca316f5d,2024-01-23_08h08.24.136,bars,2023.2.3,Win32,59.52380952,657b66ea316d21385b68909f,,,,,,,,,,,2309.6006,2310.6063,,,2311.1001,2311.3445,,100,100,,,,,,,,,,,,,,,,bars/034.png,bars/mask007.png,,,,,,,,,,,,1,1,,,,,,,10,5,9,4,,,,,,,,,,,2310.6063,2311.1001,2311.3446,2313.9607,space,2.5935,,2313.9608,25,35,2314.9549,2314.955,2314.9742,,,,0,5,5,5,1,125,65,,,,,,,,
,,60ddab2b1e7d0214f4782018,65af548978b86183ca316f5d,2024-01-23_08h08.24.136,bars,2023.2.3,Win32,59.52380952,657b66ea316d21385b68909f,,,,,,,,,,,2314.9746,2315.9683,,,2316.4625,2316.708,,112,112,,,,,,,,,,,,,,,,bars/004.png,bars/mask008.png,,,,,,,,,,,,4,2,,,,,,,8,7,9,7,,,,,,,,,,,2315.9683,2316.4625,2316.7081,2320.6857,space,3.9578,,2320.6857,87,13,2321.6857,2321.6858,2321.7074,,,,0,6,6,6,1,25,125,,,,,,,,
,,60ddab2b1e7d0214f4782018,65af548978b86183ca316f5d,2024-01-23_08h08.24.136,bars,2023.2.3,Win32,59.52380952,657b66ea316d21385b68909f,,,,,,,,,,,2321.7078,2322.699,,,2323.2047,2323.4491,,3,183,,,,,,,,,,,,,,,,bars/045.png,bars/mask000.png,,,,,,,,,,,,3,2,,,,,,,6,5,6,4,,,,,,,,,,,2322.6991,2323.2047,2323.4491,2325.2753,space,1.8066,,2325.2753,83,7,2326.2494,2326.2494,2326.2515,,,,0,7,7,7,1,100,10,,,,,,,,
,,60ddab2b1e7d0214f4782018,65af548978b86183ca316f5d,2024-01-23_08h08.24.136,bars,2023.2.3,Win32,59.52380952,657b66ea316d21385b68909f,,,,,,,,,,,2326.2523,2327.2498,,,2327.7382,2327.9813,,103,103,,,,,,,,,,,,,,,,bars/034.png,bars/mask005.png,,,,,,,,,,,,2,1,,,,,,,8,7,9,9,,,,,,,,,,,2327.2498,2327.738,2327.9814,2332.0912,space,4.0869,,2332.0912,22,38,2333.0962,2333.0962,2333.1185,,,,0,8,8,8,1,125,65,,,,,,,,
,,60ddab2b1e7d0214f4782018,65af548978b86183ca316f5d,2024-01-23_08h08.24.136,bars,2023.2.3,Win32,59.52380952,657b66ea316d21385b68909f,,,,,,,,,,,2333.1193,2334.1208,,,2334.6262,2334.8702,,18,198,,,,,,,,,,,,,,,,bars/043.png,bars/mask001.png,,,,,,,,,,,,6,1,,,,,,,10,9,10,9,,,,,,,,,,,2334.1208,2334.6261,2334.8702,2338.1741,space,3.2812,,2338.1754,12,68,2339.1784,2339.1785,2339.198,,,,0,9,9,9,1,30,130,,,,,,,,
,,60ddab2b1e7d0214f4782018,65af548978b86183ca316f5d,2024-01-23_08h08.24.136,bars,2023.2.3,Win32,59.52380952,657b66ea316d21385b68909f,,,,,,,,,,,2339.1983,2340.1906,,,2340.6844,2340.9268,,14,194,,,,,,,,,,,,,,,,bars/023.png,bars/mask008.png,,,,,,,,,,,,8,1,,,,,,,10,10,10,10,,,,,,,,,,,2340.1906,2340.6843,2340.9269,2345.7177,space,4.7654,,2345.7178,6,79,2346.715,2346.715,2346.7346,,,,0,10,10,10,1,20,115,,,,,,,,
,,60ddab2b1e7d0214f4782018,65af548978b86183ca316f5d,2024-01-23_08h08.24.136,bars,2023.2.3,Win32,59.52380952,657b66ea316d21385b68909f,,,,,,,,,,,2346.7353,2347.7151,,,2348.2236,2348.469,,121,121,,,,,,,,,,,,,,,,bars/030.png,bars/mask001.png,,,,,,,,,,,,4,1,,,,,,,10,10,10,9,,,,,,,,,,,2347.7151,2348.2235,2348.469,2350.9024,space,2.4128,,2350.9026,19,56,2351.9051,2351.9051,2351.9244,,,,0,11,11,11,1,140,65,,,,,,,,
,,60ddab2b1e7d0214f4782018,65af548978b86183ca316f5d,2024-01-23_08h08.24.136,bars,2023.2.3,Win32,59.52380952,657b66ea316d21385b68909f,,,,,,,,,,,2351.9247,2352.9341,,,2353.4351,2353.6793,,129,129,,,,,,,,,,,,,,,,bars/034.png,bars/mask001.png,,,,,,,,,,,,6,1,,,,,,,8,8,7,9,,,,,,,,,,,2352.9341,2353.4351,2353.6793,2354.9174,space,1.2152,,2354.9174,4,64,2355.9109,2355.911,2355.913,,,,0,12,12,12,1,125,65,,,,,,,,
,,60ddab2b1e7d0214f4782018,65af548978b86183ca316f5d,2024-01-23_08h08.24.136,bars,2023.2.3,Win32,59.52380952,657b66ea316d21385b68909f,,,,,,,,,,,2355.9138,2356.8933,,,2357.3592,2357.6023,,129,129,,,,,,,,,,,,,,,,bars/024.png,bars/mask003.png,,,,,,,,,,,,7,1,,,,,,,10,10,10,10,,,,,,,,,,,2356.8933,2357.3592,2357.6024,2361.5302,space,3.9056,,2361.5303,9,41,2362.5309,2362.5309,2362.5502,,,,0,13,13,13,1,120,170,,,,,,,,
,,60ddab2b1e7d0214f4782018,65af548978b86183ca316f5d,2024-01-23_08h08.24.136,bars,2023.2.3,Win32,59.52380952,657b66ea316d21385b68909f,,,,,,,,,,,2362.5505,2363.5474,,,2364.0419,2364.2958,,51,51,,,,,,,,,,,,,,,,bars/028.png,bars/mask007.png,,,,,,,,,,,,8,1,,,,,,,10,10,10,10,,,,,,,,,,,2363.5475,2364.0418,2364.2958,2365.7025,space,1.3847,,2365.7025,6,69,2366.7076,2366.7076,2366.7096,,,,0,14,14,14,1,45,120,,,,,,,,
,,60ddab2b1e7d0214f4782018,65af548978b86183ca316f5d,2024-01-23_08h08.24.136,bars,2023.2.3,Win32,59.52380952,657b66ea316d21385b68909f,,,,,,,,,,,2366.7105,2367.7041,,,2368.1976,2368.4451,,122,122,,,,,,,,,,,,,,,,bars/031.png,bars/mask001.png,,,,,,,,,,,,7,1,,,,,,,8,8,8,8,,,,,,,,,,,2367.7042,2368.1975,2368.4451,2373.2217,space,4.7557,,2373.2219,2,87,2374.2013,2374.2013,2374.2208,,,,0,15,15,15,1,120,35,,,,,,,,
,,60ddab2b1e7d0214f4782018,65af548978b86183ca316f5d,2024-01-23_08h08.24.136,bars,2023.2.3,Win32,59.52380952,657b66ea316d21385b68909f,,,,,,,,,,,2374.2211,2375.1995,,,2375.6924,2375.9219,,55,235,,,,,,,,,,,,,,,,bars/014.png,bars/mask004.png,,,,,,,,,,,,1,1,,,,,,,6,10,5,8,,,,,,,,,,,2375.1996,2375.6924,2375.922,2379.4052,space,3.4637,,2379.4054,25,55,2380.4022,2380.4023,2380.4213,,,,0,16,16,16,1,80,0,,,,,,,,
,,60ddab2b1e7d0214f4782018,65af548978b86183ca316f5d,2024-01-23_08h08.24.136,bars,2023.2.3,Win32,59.52380952,657b66ea316d21385b68909f,,,,,,,,,,,2380.4218,2381.4288,,,2381.9177,2382.1757,,123,123,,,,,,,,,,,,,,,,bars/032.png,bars/mask000.png,,,,,,,,,,,,5,1,,,,,,,4,10,5,10,,,,,,,,,,,2381.4288,2381.9177,2382.1758,2384.1011,space,1.9026,,2384.1012,2,77,2385.0944,2385.0944,2385.0964,,,,0,17,17,17,1,125,20,,,,,,,,
,,60ddab2b1e7d0214f4782018,65af548978b86183ca316f5d,2024-01-23_08h08.24.136,bars,2023.2.3,Win32,59.52380952,657b66ea316d21385b68909f,,,,,,,,,,,2385.0972,2386.0958,,,2386.5955,2386.8437,,128,128,,,,,,,,,,,,,,,,bars/008.png,bars/mask006.png,,,,,,,,,,,,2,1,,,,,,,6,8,5,9,,,,,,,,,,,2386.0958,2386.5955,2386.8438,2389.3745,space,2.5089,,2389.3746,18,52,2390.3684,2390.3685,2390.3878,,,,0,18,18,18,1,110,0,,,,,,,,
,,60ddab2b1e7d0214f4782018,65af548978b86183ca316f5d,2024-01-23_08h08.24.136,bars,2023.2.3,Win32,59.52380952,657b66ea316d21385b68909f,,,,,,,,,,,2390.3882,2391.3785,,,2391.8769,2392.121,,170,170,,,,,,,,,,,,,,,,bars/021.png,bars/mask009.png,,,,,,,,,,,,5,1,,,,,,,8,10,9,10,,,,,,,,,,,2391.3785,2391.8768,2392.1211,2395.3866,space,3.2432,,2395.3868,15,80,2396.3833,2396.3834,2396.404,,,,0,19,19,19,1,155,70,,,,,,,,
,,60ddab2b1e7d0214f4782018,65af548978b86183ca316f5d,2024-01-23_08h08.24.136,bars,2023.2.3,Win32,59.52380952,657b66ea316d21385b68909f,,,,,,,,,,,2396.4044,2397.4126,,,2397.9062,2398.1521,,46,226,,,,,,,,,,,,,,,,bars/005.png,bars/mask002.png,,,,,,,,,,,,0,1,,,,,,,10,10,10,9,,,,,,,,,,,2397.4126,2397.9062,2398.1521,2402.3042,space,4.132,,2402.3043,36,86,2403.3026,2403.3027,2403.3219,,,,0,20,20,20,1,10,140,,,,,,,,
,,60ddab2b1e7d0214f4782018,65af548978b86183ca316f5d,2024-01-23_08h08.24.136,bars,2023.2.3,Win32,59.52380952,657b66ea316d21385b68909f,,,,,,,,,,,2403.3224,2404.3109,,,2404.794,2405.0384,,68,68,,,,,,,,,,,,,,,,bars/048.png,bars/mask006.png,,,,,,,,,,,,4,1,,,,,,,10,8,10,8,,,,,,,,,,,2404.3111,2404.7939,2405.0384,2409.3439,space,4.2828,,2409.3439,18,73,2410.3375,2410.3376,2410.3582,,,,0,21,21,21,1,50,175,,,,,,,,
,,60ddab2b1e7d0214f4782018,65af548978b86183ca316f5d,2024-01-23_08h08.24.136,bars,2023.2.3,Win32,59.52380952,657b66ea316d21385b68909f,,,,,,,,,,,2410.3586,2411.364,,,2411.8771,2412.1041,,160,-20,,,,,,,,,,,,,,,,bars/036.png,bars/mask002.png,,,,,,,,,,,,4,1,,,,,,,8,6,8,4,,,,,,,,,,,2411.364,2411.8771,2412.1042,2417.2798,space,5.1561,,2417.28,15,40,2418.2743,2418.2743,2418.294,,,,0,22,22,22,1,145,20,,,,,,,,
,,60ddab2b1e7d0214f4782018,65af548978b86183ca316f5d,2024-01-23_08h08.24.136,bars,2023.2.3,Win32,59.52380952,657b66ea316d21385b68909f,,,,,,,,,,,2418.2944,2419.2871,,,2419.7935,2420.0389,,130,130,,,,,,,,,,,,,,,,bars/017.png,bars/mask003.png,,,,,,,,,,,,3,1,,,,,,,6,4,5,4,,,,,,,,,,,2419.2872,2419.7934,2420.0389,2421.4035,space,1.3421,,2421.4036,15,85,2422.401,2422.4011,2422.4206,,,,0,23,23,23,1,145,45,,,,,,,,
,,60ddab2b1e7d0214f4782018,65af548978b86183ca316f5d,2024-01-23_08h08.24.136,bars,2023.2.3,Win32,59.52380952,657b66ea316d21385b68909f,,,,,,,,,,,2422.4214,2423.3965,,,2423.8988,2424.154,,173,-7,,,,,,,,,,,,,,,,bars/021.png,bars/mask008.png,,,,,,,,,,,,3,1,,,,,,,8,6,8,7,,,,,,,,,,,2423.3967,2423.8987,2424.154,2428.52,space,4.3464,,2428.52,18,77,2429.5106,2429.5108,2429.5299,,,,0,24,24,24,1,155,70,,,,,,,,
,,60ddab2b1e7d0214f4782018,65af548978b86183ca316f5d,2024-01-23_08h08.24.136,bars,2023.2.3,Win32,59.52380952,657b66ea316d21385b68909f,,,,,,,,,,,2429.5302,2430.5229,,,2431.0239,2431.2643,,49,229,,,,,,,,,,,,,,,,bars/048.png,bars/mask006.png,,,,,,,,,,,,7,1,,,,,,,6,8,7,7,,,,,,,,,,,2430.5229,2431.0239,2431.2644,2435.7537,space,4.4689,,2435.7538,1,54,2436.7325,2436.7325,2436.7538,,,,0,25,25,25,1,50,175,,,,,,,,
,,60ddab2b1e7d0214f4782018,65af548978b86183ca316f5d,2024-01-23_08h08.24.136,bars,2023.2.3,Win32,59.52380952,657b66ea316d21385b68909f,,,,,,,,,,,2436.7542,2437.7442,,,2438.223,2438.4676,,119,119,,,,,,,,,,,,,,,,bars/017.png,bars/mask001.png,,,,,,,,,,,,1,1,,,,,,,8,10,8,10,,,,,,,,,,,2437.7442,2438.2229,2438.4677,2440.8545,space,2.3642,,2440.8547,26,74,2441.8584,2441.8584,2441.8772,,,,0,26,26,26,1,145,45,,,,,,,,
,,60ddab2b1e7d0214f4782018,65af548978b86183ca316f5d,2024-01-23_08h08.24.136,bars,2023.2.3,Win32,59.52380952,657b66ea316d21385b68909f,,,,,,,,,,,2441.8775,2442.8605,,,2443.3495,2443.5968,,110,110,,,,,,,,,,,,,,,,bars/040.png,bars/mask007.png,,,,,,,,,,,,0,1,,,,,,,6,10,6,10,,,,,,,,,,,2442.8606,2443.3495,2443.597,2447.8264,space,4.2099,,2447.8265,30,75,2448.8255,2448.8256,2448.8468,,,,0,27,27,27,1,140,5,,,,,,,,
,,60ddab2b1e7d0214f4782018,65af548978b86183ca316f5d,2024-01-23_08h08.24.136,bars,2023.2.3,Win32,59.52380952,657b66ea316d21385b68909f,,,,,,,,,,,2448.8474,2449.836,,,2450.3176,2450.567,,39,39,,,,,,,,,,,,,,,,bars/003.png,bars/mask002.png,,,,,,,,,,,,5,1,,,,,,,8,10,9,10,,,,,,,,,,,2449.836,2450.3175,2450.567,2453.2772,space,2.6875,,2453.2772,14,79,2454.2695,2454.2696,2454.2887,,,,0,28,28,28,1,25,140,,,,,,,,
,,60ddab2b1e7d0214f4782018,65af548978b86183ca316f5d,2024-01-23_08h08.24.136,bars,2023.2.3,Win32,59.52380952,657b66ea316d21385b68909f,,,,,,,,,,,2454.289,2455.2948,,,2455.7908,2456.042,,105,105,,,,,,,,,,,,,,,,bars/045.png,bars/mask004.png,,,,,,,,,,,,8,1,,,,,,,10,10,10,10,,,,,,,,,,,2455.2948,2455.7908,2456.042,2458.5051,space,2.4346,,2458.5053,5,85,2459.4959,2459.496,2459.515,,,,0,29,29,29,1,100,10,,,,,,,,
,,60ddab2b1e7d0214f4782018,65af548978b86183ca316f5d,2024-01-23_08h08.24.136,bars,2023.2.3,Win32,59.52380952,657b66ea316d21385b68909f,,,,,,,,,,,2459.5154,2460.5031,,,2461.0266,2461.271,,66,66,,,,,,,,,,,,,,,,bars/024.png,bars/mask005.png,,,,,,,,,,,,0,1,,,,,,,8,8,9,7,,,,,,,,,,,2460.5032,2461.0266,2461.271,2466.6137,space,5.3178,,2466.6138,54,76,2467.6066,2467.6067,2467.6258,,,,0,30,30,30,1,120,170,,,,,,,,
,,60ddab2b1e7d0214f4782018,65af548978b86183ca316f5d,2024-01-23_08h08.24.136,bars,2023.2.3,Win32,59.52380952,657b66ea316d21385b68909f,,,,,,,,,,,2467.6263,2468.6202,,,2469.115,2469.3595,,57,57,,,,,,,,,,,,,,,,bars/026.png,bars/mask008.png,,,,,,,,,,,,2,1,,,,,,,10,6,8,8,,,,,,,,,,,2468.6203,2469.1149,2469.3596,2473.3469,space,3.9645,,2473.3469,22,28,2474.3536,2474.3537,2474.3764,,,,0,31,31,31,1,35,85,,,,,,,,
,,60ddab2b1e7d0214f4782018,65af548978b86183ca316f5d,2024-01-23_08h08.24.136,bars,2023.2.3,Win32,59.52380952,657b66ea316d21385b68909f,,,,,,,,,,,2474.3771,2475.384,,,2475.8746,2476.1183,,37,37,,,,,,,,,,,,,,,,bars/004.png,bars/mask002.png,,,,,,,,,,,,6,1,,,,,,,10,8,10,9,,,,,,,,,,,2475.384,2475.8746,2476.1183,2481.1163,space,4.9751,,2481.1164,12,88,2482.0945,2482.0946,2482.1141,,,,0,32,32,32,1,25,125,,,,,,,,
,,60ddab2b1e7d0214f4782018,65af548978b86183ca316f5d,2024-01-23_08h08.24.136,bars,2023.2.3,Win32,59.52380952,657b66ea316d21385b68909f,,,,,,,,,,,2482.1144,2483.1178,,,2483.5995,2483.8481,,121,121,,,,,,,,,,,,,,,,bars/015.png,bars/mask001.png,,,,,,,,,,,,6,1,,,,,,,10,10,10,10,,,,,,,,,,,2483.1179,2483.5994,2483.8482,2485.6487,space,1.7782,,2485.6488,11,39,2486.655,2486.6551,2486.657,,,,0,33,33,33,1,110,160,,,,,,,,
,,60ddab2b1e7d0214f4782018,65af548978b86183ca316f5d,2024-01-23_08h08.24.136,bars,2023.2.3,Win32,59.52380952,657b66ea316d21385b68909f,,,,,,,,,,,2486.658,2487.6563,,,2488.1638,2488.3914,,122,122,,,,,,,,,,,,,,,,bars/040.png,bars/mask000.png,,,,,,,,,,,,3,1,,,,,,,8,8,7,9,,,,,,,,,,,2487.6563,2488.1637,2488.3915,2489.8211,space,1.4102,,2489.8211,18,63,2490.8203,2490.8204,2490.8223,,,,0,34,34,34,1,140,5,,,,,,,,
,,60ddab2b1e7d0214f4782018,65af548978b86183ca316f5d,2024-01-23_08h08.24.136,bars,2023.2.3,Win32,59.52380952,657b66ea316d21385b68909f,,,,,,,,,,,2490.8231,2491.8122,,,2492.3012,2492.5471,,156,-24,,,,,,,,,,,,,,,,bars/036.png,bars/mask009.png,,,,,,,,,,,,4,1,,,,,,,6,10,6,9,,,,,,,,,,,2491.8123,2492.3012,2492.5471,2495.7626,space,3.196,,2495.7627,11,44,2496.7687,2496.7688,2496.7882,,,,0,35,35,35,1,145,20,,,,,,,,
,,60ddab2b1e7d0214f4782018,65af548978b86183ca316f5d,2024-01-23_08h08.24.136,bars,2023.2.3,Win32,59.52380952,657b66ea316d21385b68909f,,,,,,,,,,,2496.789,2497.781,,,2498.2822,2498.5261,,39,39,,,,,,,,,,,,,,,,bars/006.png,bars/mask002.png,,,,,,,,,,,,3,1,,,,,,,4,8,3,6,,,,,,,,,,,2497.781,2498.2821,2498.5261,2501.0158,space,2.4669,,2501.0158,4,61,2502.0324,2502.0324,2502.0517,,,,0,36,36,36,1,35,100,,,,,,,,
,,60ddab2b1e7d0214f4782018,65af548978b86183ca316f5d,2024-01-23_08h08.24.136,bars,2023.2.3,Win32,59.52380952,657b66ea316d21385b68909f,,,,,,,,,,,2502.0521,2503.0276,,,2503.5244,2503.7727,,153,153,,,,,,,,,,,,,,,,bars/010.png,bars/mask008.png,,,,,,,,,,,,4,1,,,,,,,6,10,6,10,,,,,,,,,,,2503.0276,2503.5243,2503.7728,2506.3325,space,2.5374,,2506.3325,12,82,2507.3406,2507.3407,2507.3427,,,,0,37,37,37,1,165,55,,,,,,,,
,,60ddab2b1e7d0214f4782018,65af548978b86183ca316f5d,2024-01-23_08h08.24.136,bars,2023.2.3,Win32,59.52380952,657b66ea316d21385b68909f,,,,,,,,,,,2507.3434,2508.3511,,,2508.8586,2509.1018,,138,-42,,,,,,,,,,,,,,,,bars/021.png,bars/mask008.png,,,,,,,,,,,,4,1,,,,,,,8,10,10,10,,,,,,,,,,,2508.3512,2508.8586,2509.1019,2512.9679,space,3.8465,,2512.9681,17,68,2513.9637,2513.9638,2513.9846,,,,0,38,38,38,1,155,70,,,,,,,,
,,60ddab2b1e7d0214f4782018,65af548978b86183ca316f5d,2024-01-23_08h08.24.136,bars,2023.2.3,Win32,59.52380952,657b66ea316d21385b68909f,,,,,,,,,,,2513.985,2515.0004,,,2515.5053,2515.7455,,90,90,,,,,,,,,,,,,,,,bars/008.png,bars/mask000.png,,,,,,,,,,,,3,1,,,,,,,10,8,9,7,,,,,,,,,,,2515.0004,2515.5053,2515.7456,2519.863,space,4.0957,,2519.8631,20,90,2520.8612,2520.8612,2520.8807,,,,0,39,39,39,1,110,0,,,,,,,,
,,60ddab2b1e7d0214f4782018,65af548978b86183ca316f5d,2024-01-23_08h08.24.136,bars,2023.2.3,Win32,59.52380952,657b66ea316d21385b68909f,,,,,,,,,,,2520.8811,2521.8702,,,2522.3647,2522.6148,,119,119,,,,,,,,,,,,,,,,bars/017.png,bars/mask007.png,,,,,,,,,,,,1,1,,,,,,,10,6,9,5,,,,,,,,,,,2521.8702,2522.3646,2522.6149,2525.693,space,3.0554,,2525.6931,26,74,2526.6867,2526.6868,2526.7068,,,,0,40,40,40,1,145,45,,,,,,,,
,,60ddab2b1e7d0214f4782018,65af548978b86183ca316f5d,2024-01-23_08h08.24.136,bars,2023.2.3,Win32,59.52380952,657b66ea316d21385b68909f,,,,,,,,,,,2526.7074,2527.6964,,,2528.1954,2528.4433,,141,141,,,,,,,,,,,,,,,,bars/018.png,bars/mask008.png,,,,,,,,,,,,6,1,,,,,,,10,4,9,5,,,,,,,,,,,2527.6965,2528.1953,2528.4433,2530.4706,space,2.0022,,2530.4707,9,51,2531.4781,2531.4782,2531.4801,,,,0,41,41,41,1,150,90,,,,,,,,
,,60ddab2b1e7d0214f4782018,65af548978b86183ca316f5d,2024-01-23_08h08.24.136,bars,2023.2.3,Win32,59.52380952,657b66ea316d21385b68909f,,,,,,,,,,,2531.4811,2532.4716,,,2532.9734,2533.2203,,150,150,,,,,,,,,,,,,,,,bars/035.png,bars/mask003.png,,,,,,,,,,,,2,1,,,,,,,8,2,10,2,,,,,,,,,,,2532.4717,2532.9733,2533.2204,2538.4568,space,5.2163,,2538.4568,25,90,2539.446,2539.446,2539.4675,,,,0,42,42,42,1,175,60,,,,,,,,
,,60ddab2b1e7d0214f4782018,65af548978b86183ca316f5d,2024-01-23_08h08.24.136,bars,2023.2.3,Win32,59.52380952,657b66ea316d21385b68909f,,,,,,,,,,,2539.468,2540.4658,,,2540.961,2541.2092,,59,59,,,,,,,,,,,,,,,,bars/019.png,bars/mask000.png,,,,,,,,,,,,3,1,,,,,,,6,4,6,3,,,,,,,,,,,2540.4658,2540.9609,2541.2092,2545.0684,space,3.8369,,2545.0685,14,46,2546.0775,2546.0775,2546.0972,,,,0,43,43,43,1,45,105,,,,,,,,
,,60ddab2b1e7d0214f4782018,65af548978b86183ca316f5d,2024-01-23_08h08.24.136,bars,2023.2.3,Win32,59.52380952,657b66ea316d21385b68909f,,,,,,,,,,,2546.0979,2547.0946,,,2547.5827,2547.8369,,66,246,,,,,,,,,,,,,,,,bars/012.png,bars/mask006.png,,,,,,,,,,,,1,1,,,,,,,4,2,4,4,,,,,,,,,,,2547.0947,2547.5825,2547.837,2551.672,space,3.8154,,2551.672,24,51,2552.6646,2552.6647,2552.6846,,,,0,44,44,44,1,90,15,,,,,,,,
,,60ddab2b1e7d0214f4782018,65af548978b86183ca316f5d,2024-01-23_08h08.24.136,bars,2023.2.3,Win32,59.52380952,657b66ea316d21385b68909f,,,,,,,,,,,2552.6852,2553.6735,,,2554.1686,2554.425,,69,69,,,,,,,,,,,,,,,,bars/025.png,bars/mask009.png,,,,,,,,,,,,0,2,,,,,,,2,0,2,2,,,,,,,,,,,2553.6736,2554.1685,2554.425,2558.1856,space,3.7382,,2558.1857,36,29,2559.1752,2559.1753,2559.1968,,,,0,45,45,45,1,105,40,,,,,,,,
,,60ddab2b1e7d0214f4782018,65af548978b86183ca316f5d,2024-01-23_08h08.24.136,bars,2023.2.3,Win32,59.52380952,657b66ea316d21385b68909f,,,,,,,,,,,2559.1974,2560.2049,,,2560.6896,2560.9185,,83,83,,,,,,,,,,,,,,,,bars/027.png,bars/mask004.png,,,,,,,,,,,,0,1,,,,,,,4,0,5,0,,,,,,,,,,,2560.2049,2560.6896,2560.9185,2564.599,space,3.657,,2564.5991,27,33,2565.5957,2565.5957,2565.6172,,,,0,46,46,46,1,110,50,,,,,,,,
,,60ddab2b1e7d0214f4782018,65af548978b86183ca316f5d,2024-01-23_08h08.24.136,bars,2023.2.3,Win32,59.52380952,657b66ea316d21385b68909f,,,,,,,,,,,2565.6178,2566.6271,,,2567.1257,2567.372,,82,82,,,,,,,,,,,,,,,,bars/022.png,bars/mask007.png,,,,,,,,,,,,2,1,,,,,,,2,2,3,3,,,,,,,,,,,2566.6271,2567.1257,2567.372,2571.0447,space,3.6535,,2571.0447,13,62,2572.0211,2572.0211,2572.0408,,,,0,47,47,47,1,95,20,,,,,,,,
,,60ddab2b1e7d0214f4782018,65af548978b86183ca316f5d,2024-01-23_08h08.24.136,bars,2023.2.3,Win32,59.52380952,657b66ea316d21385b68909f,,,,,,,,,,,2572.0418,2573.0499,,,2573.5403,2573.7958,,107,107,,,,,,,,,,,,,,,,bars/025.png,bars/mask002.png,,,,,,,,,,,,0,1,,,,,,,0,4,0,3,,,,,,,,,,,2573.05,2573.5403,2573.7958,2576.8267,space,3.0089,,2576.8267,2,67,2577.815,2577.8151,2577.8352,,,,0,48,48,48,1,105,40,,,,,,,,
,,60ddab2b1e7d0214f4782018,65af548978b86183ca316f5d,2024-01-23_08h08.24.136,bars,2023.2.3,Win32,59.52380952,657b66ea316d21385b68909f,,,,,,,,,,,2577.8358,2578.8293,,,2579.3258,2579.5672,,105,285,,,,,,,,,,,,,,,,bars/039.png,bars/mask006.png,,,,,,,,,,,,2,2,,,,,,,0,2,1,2,,,,,,,,,,,2578.8294,2579.3258,2579.5674,2585.239,space,5.6463,,2585.239,70,0,2586.2358,2586.2358,2586.2575,,,,0,49,49,49,1,175,105,,,,,,,,
,,60ddab2b1e7d0214f4782018,65af548978b86183ca316f5d,2024-01-23_08h08.24.136,bars,2023.2.3,Win32,59.52380952,657b66ea316d21385b68909f,,,,,,,,,,,,,,,,,,,,,,,,,,,,,,,,,,,,,,,,,,,,,,,,,,,,,,,,,,,,,,,,,,,,,,,,,,,,,,,,,,,,,,,,,,,,,2586.2581,2646.2495,0,3,3,1,1,sequence_tables/blk039.csv
,,60ddab2b1e7d0214f4782018,65af548978b86183ca316f5d,2024-01-23_08h08.24.136,bars,2023.2.3,Win32,59.52380952,657b66ea316d21385b68909f,,,,,,,,,,,2647.7159,2648.7028,,,2649.2045,2649.4478,,20,20,,,,,,,,,,,,,,,,bars/028.png,bars/mask008.png,,,,,,,,,,,,1,1,,,,,,,9,4,9,4,,,,,,2646.2706,2647.7026,space,1.4143,,2648.7029,2649.2045,2649.4479,2654.1837,space,4.7134,,2654.1838,25,80,2655.2076,2655.2076,2655.2282,,,,0,0,0,0,1,45,120,,,,,,,,
,,60ddab2b1e7d0214f4782018,65af548978b86183ca316f5d,2024-01-23_08h08.24.136,bars,2023.2.3,Win32,59.52380952,657b66ea316d21385b68909f,,,,,,,,,,,2655.2286,2656.2313,,,2656.714,2656.9703,,117,117,,,,,,,,,,,,,,,,bars/034.png,bars/mask000.png,,,,,,,,,,,,5,1,,,,,,,7,2,7,0,,,,,,,,,,,2656.2313,2656.714,2656.9703,2660.6423,space,3.6524,,2660.6423,8,52,2661.6384,2661.6385,2661.6578,,,,0,1,1,1,1,125,65,,,,,,,,
,,60ddab2b1e7d0214f4782018,65af548978b86183ca316f5d,2024-01-23_08h08.24.136,bars,2023.2.3,Win32,59.52380952,657b66ea316d21385b68909f,,,,,,,,,,,2661.6582,2662.6689,,,2663.1469,2663.3904,,74,74,,,,,,,,,,,,,,,,bars/012.png,bars/mask005.png,,,,,,,,,,,,4,1,,,,,,,9,0,8,1,,,,,,,,,,,2662.6689,2663.1469,2663.3905,2667.3128,space,3.8993,,2667.313,16,59,2668.3139,2668.314,2668.3346,,,,0,2,2,2,1,90,15,,,,,,,,
,,60ddab2b1e7d0214f4782018,65af548978b86183ca316f5d,2024-01-23_08h08.24.136,bars,2023.2.3,Win32,59.52380952,657b66ea316d21385b68909f,,,,,,,,,,,2668.335,2669.3235,,,2669.821,2670.0499,,130,-50,,,,,,,,,,,,,,,,bars/018.png,bars/mask003.png,,,,,,,,,,,,3,1,,,,,,,7,2,8,2,,,,,,,,,,,2669.3236,2669.821,2670.0499,2675.7846,space,5.7123,,2675.7847,20,40,2676.7743,2676.7743,2676.7935,,,,0,3,3,3,1,150,90,,,,,,,,
,,60ddab2b1e7d0214f4782018,65af548978b86183ca316f5d,2024-01-23_08h08.24.136,bars,2023.2.3,Win32,59.52380952,657b66ea316d21385b68909f,,,,,,,,,,,2676.7939,2677.7928,,,2678.2825,2678.5062,,29,29,,,,,,,,,,,,,,,,bars/003.png,bars/mask005.png,,,,,,,,,,,,8,1,,,,,,,9,4,9,4,,,,,,,,,,,2677.7929,2678.2825,2678.5062,2679.8393,space,1.2986,,2679.8394,4,69,2680.8477,2680.8478,2680.8498,,,,0,4,4,4,1,25,140,,,,,,,,
,,60ddab2b1e7d0214f4782018,65af548978b86183ca316f5d,2024-01-23_08h08.24.136,bars,2023.2.3,Win32,59.52380952,657b66ea316d21385b68909f,,,,,,,,,,,2680.8505,2681.8368,,,2682.3318,2682.5762,,125,-55,,,,,,,,,,,,,,,,bars/037.png,bars/mask007.png,,,,,,,,,,,,2,2,,,,,,,10,6,10,6,,,,,,,,,,,2681.8369,2682.3317,2682.5763,2689.6881,space,7.0891,,2689.6882,25,20,2690.6825,2690.6825,2690.7058,,,,0,5,5,5,1,150,105,,,,,,,,
,,60ddab2b1e7d0214f4782018,65af548978b86183ca316f5d,2024-01-23_08h08.24.136,bars,2023.2.3,Win32,59.52380952,657b66ea316d21385b68909f,,,,,,,,,,,2690.7062,2691.7074,,,2692.1848,2692.429,,54,54,,,,,,,,,,,,,,,,bars/022.png,bars/mask005.png,,,,,,,,,,,,0,2,,,,,,,8,4,9,6,,,,,,,,,,,2691.7074,2692.1848,2692.4291,2701.8157,space,9.364,,2701.8158,41,34,2702.808,2702.808,2702.8276,,,,0,6,6,6,1,95,20,,,,,,,,
,,60ddab2b1e7d0214f4782018,65af548978b86183ca316f5d,2024-01-23_08h08.24.136,bars,2023.2.3,Win32,59.52380952,657b66ea316d21385b68909f,,,,,,,,,,,2702.828,2703.8274,,,2704.3158,2704.5627,,109,109,,,,,,,,,,,,,,,,bars/020.png,bars/mask002.png,,,,,,,,,,,,8,1,,,,,,,10,2,10,2,,,,,,,,,,,2703.8275,2704.3158,2704.5627,2710.2266,space,5.6432,,2710.2266,6,61,2711.2268,2711.2268,2711.2494,,,,0,7,7,7,1,115,170,,,,,,,,
,,60ddab2b1e7d0214f4782018,65af548978b86183ca316f5d,2024-01-23_08h08.24.136,bars,2023.2.3,Win32,59.52380952,657b66ea316d21385b68909f,,,,,,,,,,,2711.2498,2712.2498,,,2712.7461,2712.9901,,18,18,,,,,,,,,,,,,,,,bars/043.png,bars/mask006.png,,,,,,,,,,,,6,1,,,,,,,10,4,10,4,,,,,,,,,,,2712.2499,2712.746,2712.9902,2717.2567,space,4.2424,,2717.2567,12,68,2718.2322,2718.2322,2718.2518,,,,0,8,8,8,1,30,130,,,,,,,,
,,60ddab2b1e7d0214f4782018,65af548978b86183ca316f5d,2024-01-23_08h08.24.136,bars,2023.2.3,Win32,59.52380952,657b66ea316d21385b68909f,,,,,,,,,,,2718.2521,2719.2375,,,2719.7484,2720.0014,,15,15,,,,,,,,,,,,,,,,bars/039.png,bars/mask001.png,,,,,,,,,,,,2,1,,,,,,,8,6,6,5,,,,,,,,,,,2719.2375,2719.7484,2720.0014,2726.0087,space,5.9849,,2726.0088,20,90,2727.0015,2727.0016,2727.0223,,,,0,9,9,9,1,175,105,,,,,,,,
