init_variables.started,init_variables.stopped,participant,session,date,expName,psychopyVersion,OS,frameRate,study_id,instruction_exp.started,instruction_exp.stopped,key_resp_8.keys,key_resp_8.rt,key_resp_8.duration,instruction_single.started,instruction_single.stopped,key_resp_2.keys,key_resp_2.rt,key_resp_2.duration,interval.started,interval.stopped,cue_single.started,cue_single.stopped,mask.started,mask.stopped,ori_response_single.started,res_ori,res,ori_response_single.stopped,key_resp_single.keys,key_resp_single.rt,key_resp_single.duration,disp_single.started,disp_single.stopped,key_resp.keys,key_resp.rt,key_resp.duration,single.thisRepN,single.thisTrialN,single.thisN,single.thisIndex,single.ran,ori,path,mask_path,instruction_bandit.started,instruction_bandit.stopped,key_resp_6.keys,key_resp_6.rt,key_resp_6.duration,cue_bandit.started,cue_bandit.stopped,bandit_res.keys,bandit_res.rt,bandit_res.duration,outcome_bandit.started,rew,action,outcome_bandit.stopped,bandit.thisRepN,bandit.thisTrialN,bandit.thisN,bandit.thisIndex,bandit.ran,actual_rew1,actual_rew2,rew1,rew2,instruction_task.started,instruction_task.stopped,key_resp_7.keys,key_resp_7.rt,key_resp_7.duration,wait_ready.started,wait_ready.stopped,key_resp_3.keys,key_resp_3.rt,key_resp_3.duration,cue.started,cue.stopped,ori_response.started,ori_response.stopped,key_resp_5.keys,key_resp_5.rt,key_resp_5.duration,outcome.started,diff1,diff2,outcome.stopped,disp_outcome_practice.started,disp_outcome_practice.stopped,key_resp_4.keys,key_resp_4.rt,key_resp_4.duration,trials.thisRepN,trials.thisTrialN,trials.thisN,trials.thisIndex,trials.ran,ori1,ori2,break_blk.started,break_blk.stopped,block.thisRepN,block.thisTrialN,block.thisN,block.thisIndex,block.ran,condition_file
0.0002,0.0004,60e840cfd4c065679727d760,65af56a205a6baf848047f27,2024-01-23_08h09.36.055,bars,2023.2.3,Win32,60.60606061,657b66ea316d21385b68909f,,,,,,,,,,,,,,,,,,,,,,,,,,,,,,,,,,,,,,,,,,,,,,,,,,,,,,,,,,,,,,,,,,,,,,,,,,,,,,,,,,,,,,,,,,,,,,,,,,,,
,,60e840cfd4c065679727d760,65af56a205a6baf848047f27,2024-01-23_08h09.36.055,bars,2023.2.3,Win32,60.60606061,657b66ea316d21385b68909f,0.0005,10.0069,y,9.9968,,,,,,,,,,,,,,,,,,,,,,,,,,,,,,,,,,,,,,,,,,,,,,,,,,,,,,,,,,,,,,,,,,,,,,,,,,,,,,,,,,,,,,,,,,,,,,,,
,,60e840cfd4c065679727d760,65af56a205a6baf848047f27,2024-01-23_08h09.36.055,bars,2023.2.3,Win32,60.60606061,657b66ea316d21385b68909f,,,,,,10.0069,26.4776,space,16.4547,,,,,,,,,,,,,,,,,,,,,,,,,,,,,,,,,,,,,,,,,,,,,,,,,,,,,,,,,,,,,,,,,,,,,,,,,,,,,,,,,,,,,,,,,,,
,,60e840cfd4c065679727d760,65af56a205a6baf848047f27,2024-01-23_08h09.36.055,bars,2023.2.3,Win32,60.60606061,657b66ea316d21385b68909f,,,,,,,,,,,26.4879,27.4838,27.4839,27.9838,27.984,28.227,28.2272,173,173,46.2117,space,17.948,,46.2121,67.7784,space,21.5336,,0,0,0,7,1,45,bars/single007.png,bars/mask009.png,,,,,,,,,,,,,,,,,,,,,,,,,,,,,,,,,,,,,,,,,,,,,,,,,,,,,,,,,,,,,,,,
,,60e840cfd4c065679727d760,65af56a205a6baf848047f27,2024-01-23_08h09.36.055,bars,2023.2.3,Win32,60.60606061,657b66ea316d21385b68909f,,,,,,,,,,,67.7846,68.7766,68.7767,69.2766,69.2767,69.5271,69.5271,149,149,75.6677,space,6.1171,,75.6677,81.661,space,5.9684,,0,1,1,6,1,175,bars/single006.png,bars/mask005.png,,,,,,,,,,,,,,,,,,,,,,,,,,,,,,,,,,,,,,,,,,,,,,,,,,,,,,,,,,,,,,,,
,,60e840cfd4c065679727d760,65af56a205a6baf848047f27,2024-01-23_08h09.36.055,bars,2023.2.3,Win32,60.60606061,657b66ea316d21385b68909f,,,,,,,,,,,81.6673,82.6673,82.6673,83.1672,83.1672,83.4104,83.4105,159,159,86.4441,space,3.0005,,86.4441,94.5938,space,8.1176,,0,2,2,8,1,160,bars/single008.png,bars/mask004.png,,,,,,,,,,,,,,,,,,,,,,,,,,,,,,,,,,,,,,,,,,,,,,,,,,,,,,,,,,,,,,,,
,,60e840cfd4c065679727d760,65af56a205a6baf848047f27,2024-01-23_08h09.36.055,bars,2023.2.3,Win32,60.60606061,657b66ea316d21385b68909f,,,,,,,,,,,94.6013,95.5937,95.5937,96.0933,96.0934,96.3433,96.3433,36,36,100.277,space,3.9004,,100.2771,104.8279,space,4.5201,,0,3,3,9,1,20,bars/single009.png,bars/mask006.png,,,,,,,,,,,,,,,,,,,,,,,,,,,,,,,,,,,,,,,,,,,,,,,,,,,,,,,,,,,,,,,,
,,60e840cfd4c065679727d760,65af56a205a6baf848047f27,2024-01-23_08h09.36.055,bars,2023.2.3,Win32,60.60606061,657b66ea316d21385b68909f,,,,,,,,,,,104.8342,105.8268,105.827,106.3271,106.3272,106.584,106.584,90,90,112.5942,space,5.9873,,112.5943,117.3107,space,4.6839,,0,4,4,5,1,55,bars/single005.png,bars/mask008.png,,,,,,,,,,,,,,,,,,,,,,,,,,,,,,,,,,,,,,,,,,,,,,,,,,,,,,,,,,,,,,,,
,,60e840cfd4c065679727d760,65af56a205a6baf848047f27,2024-01-23_08h09.36.055,bars,2023.2.3,Win32,60.60606061,657b66ea316d21385b68909f,,,,,,,,,,,117.3176,118.3101,118.3102,118.8103,118.8104,119.0508,119.0508,31,31,122.3935,space,3.3227,,122.3937,126.7106,space,4.2841,,0,5,5,3,1,20,bars/single003.png,bars/mask005.png,,,,,,,,,,,,,,,,,,,,,,,,,,,,,,,,,,,,,,,,,,,,,,,,,,,,,,,,,,,,,,,,
,,60e840cfd4c065679727d760,65af56a205a6baf848047f27,2024-01-23_08h09.36.055,bars,2023.2.3,Win32,60.60606061,657b66ea316d21385b68909f,,,,,,,,,,,126.7174,127.7103,127.7103,128.2105,128.2106,128.4605,128.4606,94,94,130.7272,space,2.2399,,130.7273,135.3012,space,4.5504,,0,6,6,4,1,95,bars/single004.png,bars/mask004.png,,,,,,,,,,,,,,,,,,,,,,,,,,,,,,,,,,,,,,,,,,,,,,,,,,,,,,,,,,,,,,,,
,,60e840cfd4c065679727d760,65af56a205a6baf848047f27,2024-01-23_08h09.36.055,bars,2023.2.3,Win32,60.60606061,657b66ea316d21385b68909f,,,,,,,,,,,135.3063,136.3106,136.3107,136.8103,136.8104,137.0604,137.0605,132,132,142.727,space,5.6399,,142.7272,149.4604,space,6.7013,,0,7,7,2,1,145,bars/single002.png,bars/mask003.png,,,,,,,,,,,,,,,,,,,,,,,,,,,,,,,,,,,,,,,,,,,,,,,,,,,,,,,,,,,,,,,,
,,60e840cfd4c065679727d760,65af56a205a6baf848047f27,2024-01-23_08h09.36.055,bars,2023.2.3,Win32,60.60606061,657b66ea316d21385b68909f,,,,,,,,,,,149.468,150.4606,150.4606,150.9603,150.9604,151.2105,151.2107,144,144,153.2848,space,2.0506,,153.2848,157.6676,space,4.3668,,0,8,8,0,1,150,bars/single000.png,bars/mask006.png,,,,,,,,,,,,,,,,,,,,,,,,,,,,,,,,,,,,,,,,,,,,,,,,,,,,,,,,,,,,,,,,
,,60e840cfd4c065679727d760,65af56a205a6baf848047f27,2024-01-23_08h09.36.055,bars,2023.2.3,Win32,60.60606061,657b66ea316d21385b68909f,,,,,,,,,,,157.6729,158.6604,158.6605,159.1603,159.1603,159.4106,159.4107,165,-15,163.9936,space,4.5541,,163.9938,169.0108,space,4.984,,0,9,9,1,1,20,bars/single001.png,bars/mask006.png,,,,,,,,,,,,,,,,,,,,,,,,,,,,,,,,,,,,,,,,,,,,,,,,,,,,,,,,,,,,,,,,
,,60e840cfd4c065679727d760,65af56a205a6baf848047f27,2024-01-23_08h09.36.055,bars,2023.2.3,Win32,60.60606061,657b66ea316d21385b68909f,,,,,,,,,,,,,,,,,,,,,,,,,,,,,,,,,,,,,169.0171,187.7779,space,18.7381,,,,,,,,,,,,,,,,,,,,,,,,,,,,,,,,,,,,,,,,,,,,,,,,,,,,,,,,,,,,
,,60e840cfd4c065679727d760,65af56a205a6baf848047f27,2024-01-23_08h09.36.055,bars,2023.2.3,Win32,60.60606061,657b66ea316d21385b68909f,,,,,,,,,,,,,,,,,,,,,,,,,,,,,,,,,,,,,,,,,,187.7858,193.0789,right,5.2669,,193.0793,2,2,194.0777,0,0,0,0,1,9,1,9,2,,,,,,,,,,,,,,,,,,,,,,,,,,,,,,,,,,,,,,,,,
,,60e840cfd4c065679727d760,65af56a205a6baf848047f27,2024-01-23_08h09.36.055,bars,2023.2.3,Win32,60.60606061,657b66ea316d21385b68909f,,,,,,,,,,,,,,,,,,,,,,,,,,,,,,,,,,,,,,,,,,194.0786,195.3847,right,1.2837,,195.3847,1,2,196.3771,0,1,1,1,1,10,0,10,1,,,,,,,,,,,,,,,,,,,,,,,,,,,,,,,,,,,,,,,,,
,,60e840cfd4c065679727d760,65af56a205a6baf848047f27,2024-01-23_08h09.36.055,bars,2023.2.3,Win32,60.60606061,657b66ea316d21385b68909f,,,,,,,,,,,,,,,,,,,,,,,,,,,,,,,,,,,,,,,,,,196.3777,197.3609,right,0.9508,,197.3611,2,2,198.3605,0,2,2,2,1,10,2,10,2,,,,,,,,,,,,,,,,,,,,,,,,,,,,,,,,,,,,,,,,,
,,60e840cfd4c065679727d760,65af56a205a6baf848047f27,2024-01-23_08h09.36.055,bars,2023.2.3,Win32,60.60606061,657b66ea316d21385b68909f,,,,,,,,,,,,,,,,,,,,,,,,,,,,,,,,,,,,,,,,,,198.361,199.0638,left,0.6796,,199.0638,7,1,200.0607,0,3,3,3,1,8,4,7,3,,,,,,,,,,,,,,,,,,,,,,,,,,,,,,,,,,,,,,,,,
,,60e840cfd4c065679727d760,65af56a205a6baf848047f27,2024-01-23_08h09.36.055,bars,2023.2.3,Win32,60.60606061,657b66ea316d21385b68909f,,,,,,,,,,,,,,,,,,,,,,,,,,,,,,,,,,,,,,,,,,200.0614,201.7107,left,1.6242,,201.7107,5,1,202.7109,0,4,4,4,1,6,2,5,1,,,,,,,,,,,,,,,,,,,,,,,,,,,,,,,,,,,,,,,,,
,,60e840cfd4c065679727d760,65af56a205a6baf848047f27,2024-01-23_08h09.36.055,bars,2023.2.3,Win32,60.60606061,657b66ea316d21385b68909f,,,,,,,,,,,,,,,,,,,,,,,,,,,,,,,,,,,,,,,,,,202.7116,203.611,left,0.8699,,203.6112,4,1,204.6109,0,5,5,5,1,4,4,4,4,,,,,,,,,,,,,,,,,,,,,,,,,,,,,,,,,,,,,,,,,
,,60e840cfd4c065679727d760,65af56a205a6baf848047f27,2024-01-23_08h09.36.055,bars,2023.2.3,Win32,60.60606061,657b66ea316d21385b68909f,,,,,,,,,,,,,,,,,,,,,,,,,,,,,,,,,,,,,,,,,,204.6116,205.1945,right,0.5539,,205.1947,2,2,206.194,0,6,6,6,1,2,2,1,2,,,,,,,,,,,,,,,,,,,,,,,,,,,,,,,,,,,,,,,,,
,,60e840cfd4c065679727d760,65af56a205a6baf848047f27,2024-01-23_08h09.36.055,bars,2023.2.3,Win32,60.60606061,657b66ea316d21385b68909f,,,,,,,,,,,,,,,,,,,,,,,,,,,,,,,,,,,,,,,,,,206.1947,206.6279,left,0.4006,,206.6281,0,1,207.6275,0,7,7,7,1,0,0,0,1,,,,,,,,,,,,,,,,,,,,,,,,,,,,,,,,,,,,,,,,,
,,60e840cfd4c065679727d760,65af56a205a6baf848047f27,2024-01-23_08h09.36.055,bars,2023.2.3,Win32,60.60606061,657b66ea316d21385b68909f,,,,,,,,,,,,,,,,,,,,,,,,,,,,,,,,,,,,,,,,,,207.6281,208.0109,right,0.3509,,208.0111,0,2,209.0103,0,8,8,8,1,0,2,1,0,,,,,,,,,,,,,,,,,,,,,,,,,,,,,,,,,,,,,,,,,
,,60e840cfd4c065679727d760,65af56a205a6baf848047f27,2024-01-23_08h09.36.055,bars,2023.2.3,Win32,60.60606061,657b66ea316d21385b68909f,,,,,,,,,,,,,,,,,,,,,,,,,,,,,,,,,,,,,,,,,,209.0109,209.4608,right,0.4262,,209.4609,3,2,210.4601,0,9,9,9,1,2,4,2,3,,,,,,,,,,,,,,,,,,,,,,,,,,,,,,,,,,,,,,,,,
,,60e840cfd4c065679727d760,65af56a205a6baf848047f27,2024-01-23_08h09.36.055,bars,2023.2.3,Win32,60.60606061,657b66ea316d21385b68909f,,,,,,,,,,,,,,,,,,,,,,,,,,,,,,,,,,,,,,,,,,210.4607,210.8279,left,0.3363,,210.828,0,1,211.8175,0,10,10,10,1,0,2,0,3,,,,,,,,,,,,,,,,,,,,,,,,,,,,,,,,,,,,,,,,,
,,60e840cfd4c065679727d760,65af56a205a6baf848047f27,2024-01-23_08h09.36.055,bars,2023.2.3,Win32,60.60606061,657b66ea316d21385b68909f,,,,,,,,,,,,,,,,,,,,,,,,,,,,,,,,,,,,,,,,,,211.8177,212.2106,right,0.3671,,212.2107,3,2,213.2101,0,11,11,11,1,0,4,0,3,,,,,,,,,,,,,,,,,,,,,,,,,,,,,,,,,,,,,,,,,
,,60e840cfd4c065679727d760,65af56a205a6baf848047f27,2024-01-23_08h09.36.055,bars,2023.2.3,Win32,60.60606061,657b66ea316d21385b68909f,,,,,,,,,,,,,,,,,,,,,,,,,,,,,,,,,,,,,,,,,,213.2109,213.6273,right,0.3839,,213.6276,6,2,214.6274,0,12,12,12,1,2,6,1,6,,,,,,,,,,,,,,,,,,,,,,,,,,,,,,,,,,,,,,,,,
,,60e840cfd4c065679727d760,65af56a205a6baf848047f27,2024-01-23_08h09.36.055,bars,2023.2.3,Win32,60.60606061,657b66ea316d21385b68909f,,,,,,,,,,,,,,,,,,,,,,,,,,,,,,,,,,,,,,,,,,214.6279,215.2609,right,0.601,,215.261,3,2,216.2605,0,13,13,13,1,0,4,1,3,,,,,,,,,,,,,,,,,,,,,,,,,,,,,,,,,,,,,,,,,
,,60e840cfd4c065679727d760,65af56a205a6baf848047f27,2024-01-23_08h09.36.055,bars,2023.2.3,Win32,60.60606061,657b66ea316d21385b68909f,,,,,,,,,,,,,,,,,,,,,,,,,,,,,,,,,,,,,,,,,,216.2611,216.6273,left,0.3341,,216.6275,2,1,217.6271,0,14,14,14,1,2,6,2,7,,,,,,,,,,,,,,,,,,,,,,,,,,,,,,,,,,,,,,,,,
,,60e840cfd4c065679727d760,65af56a205a6baf848047f27,2024-01-23_08h09.36.055,bars,2023.2.3,Win32,60.60606061,657b66ea316d21385b68909f,,,,,,,,,,,,,,,,,,,,,,,,,,,,,,,,,,,,,,,,,,217.6277,218.0274,right,0.3671,,218.0275,9,2,219.027,0,15,15,15,1,4,8,3,9,,,,,,,,,,,,,,,,,,,,,,,,,,,,,,,,,,,,,,,,,
,,60e840cfd4c065679727d760,65af56a205a6baf848047f27,2024-01-23_08h09.36.055,bars,2023.2.3,Win32,60.60606061,657b66ea316d21385b68909f,,,,,,,,,,,,,,,,,,,,,,,,,,,,,,,,,,,,,,,,,,219.0276,220.8945,right,1.8419,,220.8945,7,2,221.8939,0,16,16,16,1,6,6,7,7,,,,,,,,,,,,,,,,,,,,,,,,,,,,,,,,,,,,,,,,,
,,60e840cfd4c065679727d760,65af56a205a6baf848047f27,2024-01-23_08h09.36.055,bars,2023.2.3,Win32,60.60606061,657b66ea316d21385b68909f,,,,,,,,,,,,,,,,,,,,,,,,,,,,,,,,,,,,,,,,,,221.9009,222.6944,right,0.7669,,222.6945,5,2,223.6936,0,17,17,17,1,8,4,9,5,,,,,,,,,,,,,,,,,,,,,,,,,,,,,,,,,,,,,,,,,
,,60e840cfd4c065679727d760,65af56a205a6baf848047f27,2024-01-23_08h09.36.055,bars,2023.2.3,Win32,60.60606061,657b66ea316d21385b68909f,,,,,,,,,,,,,,,,,,,,,,,,,,,,,,,,,,,,,,,,,,223.694,224.4516,left,0.7341,,224.4517,5,1,225.4442,0,18,18,18,1,6,2,5,1,,,,,,,,,,,,,,,,,,,,,,,,,,,,,,,,,,,,,,,,,
,,60e840cfd4c065679727d760,65af56a205a6baf848047f27,2024-01-23_08h09.36.055,bars,2023.2.3,Win32,60.60606061,657b66ea316d21385b68909f,,,,,,,,,,,,,,,,,,,,,,,,,,,,,,,,,,,,,,,,,,225.4449,226.2768,left,0.809,,226.277,7,1,227.277,0,19,19,19,1,8,0,7,0,,,,,,,,,,,,,,,,,,,,,,,,,,,,,,,,,,,,,,,,,
,,60e840cfd4c065679727d760,65af56a205a6baf848047f27,2024-01-23_08h09.36.055,bars,2023.2.3,Win32,60.60606061,657b66ea316d21385b68909f,,,,,,,,,,,,,,,,,,,,,,,,,,,,,,,,,,,,,,,,,,,,,,,,,,,,,,,,,,,,227.2779,243.7953,space,16.4835,,,,,,,,,,,,,,,,,,,,,,,,,,,,,,,,,,,,,
,,60e840cfd4c065679727d760,65af56a205a6baf848047f27,2024-01-23_08h09.36.055,bars,2023.2.3,Win32,60.60606061,657b66ea316d21385b68909f,,,,,,,,,,,245.7477,246.7439,,,247.2442,247.4944,,116,296,,,,,,,,,,,,,,,,bars/002.png,bars/mask000.png,,,,,,,,,,,,4,1,,,,,,,10,1,8,0,,,,,,243.8028,245.744,space,1.9168,,246.7444,247.2441,247.4947,254.102,space,6.5836,,254.102,14,31,255.095,255.0953,270.3522,space,15.2336,,0,0,0,0,1,130,85,,,,,,,,
,,60e840cfd4c065679727d760,65af56a205a6baf848047f27,2024-01-23_08h09.36.055,bars,2023.2.3,Win32,60.60606061,657b66ea316d21385b68909f,,,,,,,,,,,270.3576,271.3605,,,271.8612,272.1105,,136,136,,,,,,,,,,,,,,,,bars/024.png,bars/mask000.png,,,,,,,,,,,,4,1,,,,,,,8,0,8,0,,,,,,,,,,,271.3606,271.8611,272.1105,274.0018,space,1.8673,,274.0019,16,34,274.9943,274.9943,278.7104,space,3.6837,,0,1,1,1,1,120,170,,,,,,,,
,,60e840cfd4c065679727d760,65af56a205a6baf848047f27,2024-01-23_08h09.36.055,bars,2023.2.3,Win32,60.60606061,657b66ea316d21385b68909f,,,,,,,,,,,278.7181,279.7104,,,280.2106,280.4607,,42,42,,,,,,,,,,,,,,,,bars/043.png,bars/mask006.png,,,,,,,,,,,,3,1,,,,,,,6,0,5,0,,,,,,,,,,,279.7106,280.2106,280.4609,284.2352,space,3.7504,,284.2352,12,88,285.2273,285.2274,291.2948,space,6.0338,,0,2,2,2,1,30,130,,,,,,,,
,,60e840cfd4c065679727d760,65af56a205a6baf848047f27,2024-01-23_08h09.36.055,bars,2023.2.3,Win32,60.60606061,657b66ea316d21385b68909f,,,,,,,,,,,291.3012,292.2939,,,292.7945,293.0445,,38,38,,,,,,,,,,,,,,,,bars/031.png,bars/mask003.png,,,,,,,,,,,,0,2,,,,,,,4,2,3,0,,,,,,,,,,,292.2939,292.7944,293.0446,295.6351,space,2.5672,,295.6351,82,3,296.627,296.6271,302.7275,space,6.0671,,0,3,3,3,1,120,35,,,,,,,,
,,60e840cfd4c065679727d760,65af56a205a6baf848047f27,2024-01-23_08h09.36.055,bars,2023.2.3,Win32,60.60606061,657b66ea316d21385b68909f,,,,,,,,,,,302.7338,303.7273,,,304.2275,304.4773,,127,127,,,,,,,,,,,,,,,,bars/024.png,bars/mask000.png,,,,,,,,,,,,4,1,,,,,,,6,0,5,0,,,,,,,,,,,303.7273,304.2274,304.4774,305.6807,space,1.1797,,305.6807,7,43,306.6771,306.6771,309.1018,space,2.4005,,0,4,4,4,1,120,170,,,,,,,,
,,60e840cfd4c065679727d760,65af56a205a6baf848047f27,2024-01-23_08h09.36.055,bars,2023.2.3,Win32,60.60606061,657b66ea316d21385b68909f,,,,,,,,,,,309.1021,310.0943,,,310.5945,310.8443,,148,148,,,,,,,,,,,,,,,,bars/024.png,bars/mask001.png,,,,,,,,,,,,1,2,,,,,,,8,2,10,5,,,,,,,,,,,310.0944,310.5944,310.8443,312.3849,space,1.517,,312.3849,28,22,313.3774,313.3775,315.4448,space,2.035,,0,5,5,5,1,120,170,,,,,,,,
,,60e840cfd4c065679727d760,65af56a205a6baf848047f27,2024-01-23_08h09.36.055,bars,2023.2.3,Win32,60.60606061,657b66ea316d21385b68909f,,,,,,,,,,,315.4455,316.4437,,,316.9448,317.194,,44,44,,,,,,,,,,,,,,,,bars/028.png,bars/mask000.png,,,,,,,,,,,,10,1,,,,,,,10,0,10,1,,,,,,,,,,,316.4437,316.9446,317.1943,319.0111,space,1.7843,,319.0112,1,76,320.0107,320.0107,322.6448,space,2.6013,,0,6,6,6,1,45,120,,,,,,,,
,,60e840cfd4c065679727d760,65af56a205a6baf848047f27,2024-01-23_08h09.36.055,bars,2023.2.3,Win32,60.60606061,657b66ea316d21385b68909f,,,,,,,,,,,322.6511,323.6439,,,324.1441,324.3974,,2,182,,,,,,,,,,,,,,,,bars/033.png,bars/mask000.png,,,,,,,,,,,,2,1,,,,,,,10,0,10,0,,,,,,,,,,,323.6439,324.144,324.3974,329.1976,space,4.78,,329.1976,23,27,330.1941,330.1941,331.6684,space,1.4504,,0,7,7,7,1,25,155,,,,,,,,
,,60e840cfd4c065679727d760,65af56a205a6baf848047f27,2024-01-23_08h09.36.055,bars,2023.2.3,Win32,60.60606061,657b66ea316d21385b68909f,,,,,,,,,,,331.6686,332.6606,,,333.1605,333.4106,,42,222,,,,,,,,,,,,,,,,bars/044.png,bars/mask002.png,,,,,,,,,,,,0,1,,,,,,,10,0,8,0,,,,,,,,,,,332.6607,333.1604,333.4107,337.2352,space,3.8005,,337.2352,33,67,338.2275,338.2276,340.395,space,2.137,,0,8,8,8,1,75,155,,,,,,,,
,,60e840cfd4c065679727d760,65af56a205a6baf848047f27,2024-01-23_08h09.36.055,bars,2023.2.3,Win32,60.60606061,657b66ea316d21385b68909f,,,,,,,,,,,340.3962,341.3943,,,341.9015,342.1444,,179,179,,,,,,,,,,,,,,,,bars/007.png,bars/mask005.png,,,,,,,,,,,,8,1,,,,,,,8,0,9,0,,,,,,,,,,,341.3944,341.9014,342.1446,346.8448,space,4.6762,,346.8449,4,56,347.8445,347.8446,351.228,space,3.352,,0,9,9,9,1,175,55,,,,,,,,
,,60e840cfd4c065679727d760,65af56a205a6baf848047f27,2024-01-23_08h09.36.055,bars,2023.2.3,Win32,60.60606061,657b66ea316d21385b68909f,,,,,,,,,,,351.2349,352.2274,,,352.7272,352.9773,,11,11,,,,,,,,,,,,,,,,bars/035.png,bars/mask005.png,,,,,,,,,,,,3,1,,,,,,,10,2,7,4,,,,,,,,,,,352.2275,352.7272,352.9773,355.452,space,2.4507,,355.452,16,49,356.4446,356.4447,358.895,space,2.4173,,0,10,10,10,1,175,60,,,,,,,,
,,60e840cfd4c065679727d760,65af56a205a6baf848047f27,2024-01-23_08h09.36.055,bars,2023.2.3,Win32,60.60606061,657b66ea316d21385b68909f,,,,,,,,,,,358.9013,359.8946,,,360.3847,360.6276,,140,140,,,,,,,,,,,,,,,,bars/049.png,bars/mask000.png,,,,,,,,,,,,3,1,,,,,,,10,4,10,4,,,,,,,,,,,359.8946,360.3846,360.6276,364.0353,space,3.3854,,364.0353,20,25,365.0337,365.0338,366.252,space,1.2006,,0,11,11,11,1,160,115,,,,,,,,
,,60e840cfd4c065679727d760,65af56a205a6baf848047f27,2024-01-23_08h09.36.055,bars,2023.2.3,Win32,60.60606061,657b66ea316d21385b68909f,,,,,,,,,,,366.2523,367.2506,,,367.7447,367.9946,,151,-29,,,,,,,,,,,,,,,,bars/017.png,bars/mask008.png,,,,,,,,,,,,6,1,,,,,,,8,6,7,8,,,,,,,,,,,367.2506,367.7445,367.9946,371.9853,space,3.9675,,371.9853,6,74,372.9776,372.9777,377.1777,space,4.1674,,0,12,12,12,1,145,45,,,,,,,,
,,60e840cfd4c065679727d760,65af56a205a6baf848047f27,2024-01-23_08h09.36.055,bars,2023.2.3,Win32,60.60606061,657b66ea316d21385b68909f,,,,,,,,,,,377.1843,378.1773,,,378.6779,378.9276,,89,89,,,,,,,,,,,,,,,,bars/022.png,bars/mask007.png,,,,,,,,,,,,5,1,,,,,,,6,4,6,2,,,,,,,,,,,378.1774,378.6779,378.9277,381.7684,space,2.817,,381.7685,6,69,382.7611,382.7612,384.2615,space,1.4674,,0,13,13,13,1,95,20,,,,,,,,
,,60e840cfd4c065679727d760,65af56a205a6baf848047f27,2024-01-23_08h09.36.055,bars,2023.2.3,Win32,60.60606061,657b66ea316d21385b68909f,,,,,,,,,,,384.2625,385.2609,,,385.7615,386.011,,41,41,,,,,,,,,,,,,,,,bars/005.png,bars/mask006.png,,,,,,,,,,,,0,1,,,,,,,4,6,4,6,,,,,,,,,,,385.2609,385.7614,386.0112,390.0353,space,4.0008,,390.0354,31,81,391.0277,391.0277,392.3454,space,1.2839,,0,14,14,14,1,10,140,,,,,,,,
,,60e840cfd4c065679727d760,65af56a205a6baf848047f27,2024-01-23_08h09.36.055,bars,2023.2.3,Win32,60.60606061,657b66ea316d21385b68909f,,,,,,,,,,,392.3463,393.3442,,,393.8448,394.0946,,158,-22,,,,,,,,,,,,,,,,bars/010.png,bars/mask006.png,,,,,,,,,,,,4,1,,,,,,,6,4,5,3,,,,,,,,,,,393.3442,393.8446,394.0946,397.4022,space,3.2842,,397.4022,7,77,398.3945,398.3946,402.9614,space,4.5379,,0,15,15,15,1,165,55,,,,,,,,
,,60e840cfd4c065679727d760,65af56a205a6baf848047f27,2024-01-23_08h09.36.055,bars,2023.2.3,Win32,60.60606061,657b66ea316d21385b68909f,,,,,,,,,,,402.9677,403.9609,,,404.461,404.7113,,43,43,,,,,,,,,,,,,,,,bars/016.png,bars/mask003.png,,,,,,,,,,,,3,1,,,,,,,4,2,3,3,,,,,,,,,,,403.9609,404.461,404.7114,407.1186,space,2.3837,,407.1186,3,58,408.1113,408.1113,412.052,space,3.9172,,0,16,16,16,1,40,165,,,,,,,,
,,60e840cfd4c065679727d760,65af56a205a6baf848047f27,2024-01-23_08h09.36.055,bars,2023.2.3,Win32,60.60606061,657b66ea316d21385b68909f,,,,,,,,,,,412.0571,413.0609,,,413.5614,413.8113,,114,114,,,,,,,,,,,,,,,,bars/002.png,bars/mask002.png,,,,,,,,,,,,1,1,,,,,,,2,4,2,4,,,,,,,,,,,413.061,413.5613,413.8113,415.9688,space,2.1341,,415.9688,16,29,416.961,416.961,418.045,space,1.051,,0,17,17,17,1,130,85,,,,,,,,
,,60e840cfd4c065679727d760,65af56a205a6baf848047f27,2024-01-23_08h09.36.055,bars,2023.2.3,Win32,60.60606061,657b66ea316d21385b68909f,,,,,,,,,,,418.0459,419.0447,,,419.5443,419.7947,,35,215,,,,,,,,,,,,,,,,bars/016.png,bars/mask004.png,,,,,,,,,,,,0,1,,,,,,,0,2,0,2,,,,,,,,,,,419.0448,419.5442,419.7947,422.7111,space,2.89,,422.7112,5,50,423.7114,423.7115,430.0447,space,6.3008,,0,18,18,18,1,40,165,,,,,,,,
,,60e840cfd4c065679727d760,65af56a205a6baf848047f27,2024-01-23_08h09.36.055,bars,2023.2.3,Win32,60.60606061,657b66ea316d21385b68909f,,,,,,,,,,,430.0516,431.0448,,,431.5446,431.795,,130,130,,,,,,,,,,,,,,,,bars/011.png,bars/mask007.png,,,,,,,,,,,,0,1,,,,,,,0,4,0,4,,,,,,,,,,,431.0449,431.5446,431.795,434.728,space,2.9058,,434.7281,30,45,435.7279,435.7279,439.4946,space,3.7338,,0,19,19,19,1,160,85,,,,,,,,
,,60e840cfd4c065679727d760,65af56a205a6baf848047f27,2024-01-23_08h09.36.055,bars,2023.2.3,Win32,60.60606061,657b66ea316d21385b68909f,,,,,,,,,,,439.5016,440.4948,,,440.9852,441.2274,,44,224,,,,,,,,,,,,,,,,bars/047.png,bars/mask000.png,,,,,,,,,,,,0,2,,,,,,,2,2,1,3,,,,,,,,,,,440.4949,440.9851,441.2274,444.7781,space,3.5177,,444.7782,29,26,445.7776,445.7776,449.7782,space,3.9704,,0,20,20,20,1,15,70,,,,,,,,
,,60e840cfd4c065679727d760,65af56a205a6baf848047f27,2024-01-23_08h09.36.055,bars,2023.2.3,Win32,60.60606061,657b66ea316d21385b68909f,,,,,,,,,,,449.7844,450.7775,,,451.2777,451.5275,,175,-5,,,,,,,,,,,,,,,,bars/032.png,bars/mask007.png,,,,,,,,,,,,1,2,,,,,,,0,4,0,5,,,,,,,,,,,450.7775,451.2777,451.5275,454.0353,space,2.4837,,454.0353,50,25,455.0279,455.0279,457.4112,space,2.352,,0,21,21,21,1,125,20,,,,,,,,
,,60e840cfd4c065679727d760,65af56a205a6baf848047f27,2024-01-23_08h09.36.055,bars,2023.2.3,Win32,60.60606061,657b66ea316d21385b68909f,,,,,,,,,,,457.4184,458.4175,,,458.9115,459.1611,,79,79,,,,,,,,,,,,,,,,bars/001.png,bars/mask003.png,,,,,,,,,,,,2,2,,,,,,,2,2,2,2,,,,,,,,,,,458.4175,458.9114,459.1611,461.1114,space,1.923,,461.1115,51,6,462.1111,462.1111,463.5946,space,1.4508,,0,22,22,22,1,130,85,,,,,,,,
,,60e840cfd4c065679727d760,65af56a205a6baf848047f27,2024-01-23_08h09.36.055,bars,2023.2.3,Win32,60.60606061,657b66ea316d21385b68909f,,,,,,,,,,,463.5955,464.5943,,,465.0944,465.3447,,89,89,,,,,,,,,,,,,,,,bars/021.png,bars/mask007.png,,,,,,,,,,,,1,2,,,,,,,0,4,0,2,,,,,,,,,,,464.5944,465.0942,465.3447,468.0779,space,2.7004,,468.078,66,19,469.0775,469.0776,470.7791,space,1.6705,,0,23,23,23,1,155,70,,,,,,,,
,,60e840cfd4c065679727d760,65af56a205a6baf848047f27,2024-01-23_08h09.36.055,bars,2023.2.3,Win32,60.60606061,657b66ea316d21385b68909f,,,,,,,,,,,470.7803,471.7777,,,472.2784,472.5276,,15,15,,,,,,,,,,,,,,,,bars/014.png,bars/mask002.png,,,,,,,,,,,,1,2,,,,,,,2,2,2,1,,,,,,,,,,,471.7777,472.2782,472.5276,475.3278,space,2.7719,,475.3278,65,15,476.3277,476.3277,478.0022,space,1.6507,,0,24,24,24,1,80,0,,,,,,,,
,,60e840cfd4c065679727d760,65af56a205a6baf848047f27,2024-01-23_08h09.36.055,bars,2023.2.3,Win32,60.60606061,657b66ea316d21385b68909f,,,,,,,,,,,478.0024,478.9948,,,479.4946,479.7445,,59,59,,,,,,,,,,,,,,,,bars/010.png,bars/mask001.png,,,,,,,,,,,,4,2,,,,,,,4,4,3,5,,,,,,,,,,,478.9949,479.4946,479.7446,482.2981,space,2.5298,,482.2981,74,4,483.295,483.295,485.5447,space,2.2172,,0,25,25,25,1,165,55,,,,,,,,
,,60e840cfd4c065679727d760,65af56a205a6baf848047f27,2024-01-23_08h09.36.055,bars,2023.2.3,Win32,60.60606061,657b66ea316d21385b68909f,,,,,,,,,,,485.552,486.5448,,,487.045,487.2951,,143,-37,,,,,,,,,,,,,,,,bars/036.png,bars/mask002.png,,,,,,,,,,,,6,1,,,,,,,6,2,6,3,,,,,,,,,,,486.545,487.0448,487.2952,490.4854,space,3.1671,,490.4854,2,57,491.4853,491.4854,493.2282,space,1.7189,,0,26,26,26,1,145,20,,,,,,,,
,,60e840cfd4c065679727d760,65af56a205a6baf848047f27,2024-01-23_08h09.36.055,bars,2023.2.3,Win32,60.60606061,657b66ea316d21385b68909f,,,,,,,,,,,493.2289,494.2277,,,494.7282,494.9777,,14,194,,,,,,,,,,,,,,,,bars/035.png,bars/mask005.png,,,,,,,,,,,,3,1,,,,,,,8,4,7,4,,,,,,,,,,,494.2277,494.7281,494.9777,497.0192,space,2.0173,,497.0192,19,46,498.0115,498.0115,499.2113,space,1.1676,,0,27,27,27,1,175,60,,,,,,,,
,,60e840cfd4c065679727d760,65af56a205a6baf848047f27,2024-01-23_08h09.36.055,bars,2023.2.3,Win32,60.60606061,657b66ea316d21385b68909f,,,,,,,,,,,499.2121,500.2114,,,500.7021,500.9446,,99,99,,,,,,,,,,,,,,,,bars/027.png,bars/mask008.png,,,,,,,,,,,,6,1,,,,,,,10,6,10,5,,,,,,,,,,,500.2116,500.7021,500.9446,505.1446,space,4.1728,,505.1448,11,49,506.1445,506.1447,508.3782,space,2.2038,,0,28,28,28,1,110,50,,,,,,,,
,,60e840cfd4c065679727d760,65af56a205a6baf848047f27,2024-01-23_08h09.36.055,bars,2023.2.3,Win32,60.60606061,657b66ea316d21385b68909f,,,,,,,,,,,508.3789,509.3778,,,509.8782,510.1277,,43,43,,,,,,,,,,,,,,,,bars/031.png,bars/mask000.png,,,,,,,,,,,,3,2,,,,,,,10,4,10,4,,,,,,,,,,,509.3779,509.878,510.1278,513.9782,space,3.8185,,513.9784,77,8,514.9783,514.9783,516.7857,space,1.7836,,0,29,29,29,1,120,35,,,,,,,,
,,60e840cfd4c065679727d760,65af56a205a6baf848047f27,2024-01-23_08h09.36.055,bars,2023.2.3,Win32,60.60606061,657b66ea316d21385b68909f,,,,,,,,,,,516.7859,517.7779,,,518.2777,518.5353,,161,-19,,,,,,,,,,,,,,,,bars/013.png,bars/mask008.png,,,,,,,,,,,,0,2,,,,,,,8,6,7,5,,,,,,,,,,,517.778,518.2777,518.5354,521.7951,space,3.236,,521.7952,86,29,522.795,522.795,523.6954,space,0.8673,,0,30,30,30,1,75,10,,,,,,,,
,,60e840cfd4c065679727d760,65af56a205a6baf848047f27,2024-01-23_08h09.36.055,bars,2023.2.3,Win32,60.60606061,657b66ea316d21385b68909f,,,,,,,,,,,523.696,524.6946,,,525.1952,525.4446,,107,107,,,,,,,,,,,,,,,,bars/039.png,bars/mask001.png,,,,,,,,,,,,9,2,,,,,,,6,8,6,10,,,,,,,,,,,524.6947,525.1951,525.4446,527.2116,space,1.7338,,527.2117,68,2,528.2123,528.2123,529.7448,space,1.5008,,0,31,31,31,1,175,105,,,,,,,,
,,60e840cfd4c065679727d760,65af56a205a6baf848047f27,2024-01-23_08h09.36.055,bars,2023.2.3,Win32,60.60606061,657b66ea316d21385b68909f,,,,,,,,,,,529.7453,530.745,,,531.2452,531.4949,,3,183,,,,,,,,,,,,,,,,bars/008.png,bars/mask002.png,,,,,,,,,,,,9,2,,,,,,,4,10,4,10,,,,,,,,,,,530.745,531.245,531.4949,535.4849,space,3.9662,,535.4849,73,3,536.4782,536.4782,538.1453,space,1.6385,,0,32,32,32,1,110,0,,,,,,,,
,,60e840cfd4c065679727d760,65af56a205a6baf848047f27,2024-01-23_08h09.36.055,bars,2023.2.3,Win32,60.60606061,657b66ea316d21385b68909f,,,,,,,,,,,538.1461,539.1447,,,539.6451,539.895,,92,92,,,,,,,,,,,,,,,,bars/019.png,bars/mask007.png,,,,,,,,,,,,5,2,,,,,,,2,10,2,9,,,,,,,,,,,539.1447,539.6451,539.895,541.7956,space,1.8695,,541.7956,47,13,542.7951,542.7951,544.062,space,1.2418,,0,33,33,33,1,45,105,,,,,,,,
,,60e840cfd4c065679727d760,65af56a205a6baf848047f27,2024-01-23_08h09.36.055,bars,2023.2.3,Win32,60.60606061,657b66ea316d21385b68909f,,,,,,,,,,,544.0625,545.0614,,,545.5617,545.8117,,56,56,,,,,,,,,,,,,,,,bars/045.png,bars/mask005.png,,,,,,,,,,,,0,1,,,,,,,0,8,1,7,,,,,,,,,,,545.0614,545.5617,545.8118,550.4524,space,4.6171,,550.4524,44,46,551.4451,551.4451,552.3816,space,0.9129,,0,34,34,34,1,100,10,,,,,,,,
,,60e840cfd4c065679727d760,65af56a205a6baf848047f27,2024-01-23_08h09.36.055,bars,2023.2.3,Win32,60.60606061,657b66ea316d21385b68909f,,,,,,,,,,,552.3817,553.3811,,,553.8687,554.1114,,6,186,,,,,,,,,,,,,,,,bars/035.png,bars/mask009.png,,,,,,,,,,,,0,1,,,,,,,0,10,0,9,,,,,,,,,,,553.3811,553.8687,554.1114,558.3455,space,4.2215,,558.3457,11,54,559.3447,559.3448,565.3282,space,5.956,,0,35,35,35,1,175,60,,,,,,,,
,,60e840cfd4c065679727d760,65af56a205a6baf848047f27,2024-01-23_08h09.36.055,bars,2023.2.3,Win32,60.60606061,657b66ea316d21385b68909f,,,,,,,,,,,565.3344,566.3279,,,566.8284,567.0779,,2,182,,,,,,,,,,,,,,,,bars/033.png,bars/mask008.png,,,,,,,,,,,,1,1,,,,,,,2,8,4,7,,,,,,,,,,,566.3279,566.8283,567.078,571.8985,space,4.7965,,571.8986,23,27,572.8952,572.8952,574.0285,space,1.101,,0,36,36,36,1,25,155,,,,,,,,
,,60e840cfd4c065679727d760,65af56a205a6baf848047f27,2024-01-23_08h09.36.055,bars,2023.2.3,Win32,60.60606061,657b66ea316d21385b68909f,,,,,,,,,,,574.0291,575.0279,,,575.528,575.7779,,112,112,,,,,,,,,,,,,,,,bars/008.png,bars/mask009.png,,,,,,,,,,,,0,1,,,,,,,0,6,0,5,,,,,,,,,,,575.028,575.5279,575.7779,578.4026,space,2.6005,,578.4026,2,68,579.3981,579.3981,582.179,space,2.7538,,0,37,37,37,1,110,0,,,,,,,,
,,60e840cfd4c065679727d760,65af56a205a6baf848047f27,2024-01-23_08h09.36.055,bars,2023.2.3,Win32,60.60606061,657b66ea316d21385b68909f,,,,,,,,,,,582.1855,583.1781,,,583.6782,583.9285,,5,185,,,,,,,,,,,,,,,,bars/001.png,bars/mask002.png,,,,,,,,,,,,0,1,,,,,,,2,8,2,8,,,,,,,,,,,583.1781,583.6782,583.9286,587.2819,space,3.3306,,587.2819,55,80,588.2783,588.2785,590.1787,space,1.8675,,0,38,38,38,1,130,85,,,,,,,,
,,60e840cfd4c065679727d760,65af56a205a6baf848047f27,2024-01-23_08h09.36.055,bars,2023.2.3,Win32,60.60606061,657b66ea316d21385b68909f,,,,,,,,,,,590.1793,591.1779,,,591.6838,591.9354,,70,70,,,,,,,,,,,,,,,,bars/038.png,bars/mask003.png,,,,,,,,,,,,10,2,,,,,,,4,10,5,10,,,,,,,,,,,591.1779,591.6837,591.9354,594.9859,space,3.0336,,594.986,85,0,595.9781,595.9782,597.0788,space,1.074,,0,39,39,39,1,165,70,,,,,,,,
,,60e840cfd4c065679727d760,65af56a205a6baf848047f27,2024-01-23_08h09.36.055,bars,2023.2.3,Win32,60.60606061,657b66ea316d21385b68909f,,,,,,,,,,,597.0794,598.0785,,,598.578,598.8282,,76,76,,,,,,,,,,,,,,,,bars/042.png,bars/mask008.png,,,,,,,,,,,,10,2,,,,,,,6,10,5,10,,,,,,,,,,,598.0785,598.578,598.8283,602.4358,space,3.5847,,602.4358,69,1,603.4283,603.4283,604.5121,space,1.0507,,0,40,40,40,1,145,75,,,,,,,,
,,60e840cfd4c065679727d760,65af56a205a6baf848047f27,2024-01-23_08h09.36.055,bars,2023.2.3,Win32,60.60606061,657b66ea316d21385b68909f,,,,,,,,,,,604.5135,605.5116,,,606.0024,606.2452,,89,89,,,,,,,,,,,,,,,,bars/002.png,bars/mask008.png,,,,,,,,,,,,5,2,,,,,,,8,8,8,6,,,,,,,,,,,605.5116,606.0024,606.2453,608.9618,space,2.6842,,608.9619,41,4,609.9618,609.9618,611.0956,space,1.1007,,0,41,41,41,1,130,85,,,,,,,,
,,60e840cfd4c065679727d760,65af56a205a6baf848047f27,2024-01-23_08h09.36.055,bars,2023.2.3,Win32,60.60606061,657b66ea316d21385b68909f,,,,,,,,,,,611.0966,612.0953,,,612.5955,612.8453,,97,97,,,,,,,,,,,,,,,,bars/021.png,bars/mask001.png,,,,,,,,,,,,1,2,,,,,,,6,10,5,10,,,,,,,,,,,612.0954,612.5953,612.8453,616.9286,space,4.0557,,616.9288,58,27,617.9285,617.9285,618.5782,space,0.6202,,0,42,42,42,1,155,70,,,,,,,,
,,60e840cfd4c065679727d760,65af56a205a6baf848047f27,2024-01-23_08h09.36.055,bars,2023.2.3,Win32,60.60606061,657b66ea316d21385b68909f,,,,,,,,,,,618.5789,619.5784,,,620.0784,620.3285,,89,89,,,,,,,,,,,,,,,,bars/019.png,bars/mask005.png,,,,,,,,,,,,5,2,,,,,,,8,10,9,10,,,,,,,,,,,619.5784,620.0783,620.3286,622.2027,space,1.8504,,622.2027,44,16,623.1949,623.1949,623.9787,space,0.7529,,0,43,43,43,1,45,105,,,,,,,,
,,60e840cfd4c065679727d760,65af56a205a6baf848047f27,2024-01-23_08h09.36.055,bars,2023.2.3,Win32,60.60606061,657b66ea316d21385b68909f,,,,,,,,,,,623.9793,624.9784,,,625.4787,625.7282,,165,-15,,,,,,,,,,,,,,,,bars/033.png,bars/mask001.png,,,,,,,,,,,,7,2,,,,,,,10,10,10,10,,,,,,,,,,,624.9785,625.4786,625.7282,629.9362,space,4.185,,629.9362,40,10,630.9281,630.9281,632.0194,space,1.0671,,0,44,44,44,1,25,155,,,,,,,,
,,60e840cfd4c065679727d760,65af56a205a6baf848047f27,2024-01-23_08h09.36.055,bars,2023.2.3,Win32,60.60606061,657b66ea316d21385b68909f,,,,,,,,,,,632.0196,633.0119,,,633.5116,633.7616,,113,113,,,,,,,,,,,,,,,,bars/023.png,bars/mask003.png,,,,,,,,,,,,7,2,,,,,,,10,8,10,8,,,,,,,,,,,633.0119,633.5115,633.7616,635.4194,space,1.6336,,635.4194,87,2,636.4117,636.4117,638.3458,space,1.9048,,0,45,45,45,1,20,115,,,,,,,,
,,60e840cfd4c065679727d760,65af56a205a6baf848047f27,2024-01-23_08h09.36.055,bars,2023.2.3,Win32,60.60606061,657b66ea316d21385b68909f,,,,,,,,,,,638.3465,639.345,,,639.845,640.0951,,60,60,,,,,,,,,,,,,,,,bars/010.png,bars/mask001.png,,,,,,,,,,,,8,2,,,,,,,10,10,10,10,,,,,,,,,,,639.345,639.845,640.0951,644.4618,space,4.3384,,644.4619,75,5,645.4614,645.4615,647.1952,space,1.701,,0,46,46,46,1,165,55,,,,,,,,
,,60e840cfd4c065679727d760,65af56a205a6baf848047f27,2024-01-23_08h09.36.055,bars,2023.2.3,Win32,60.60606061,657b66ea316d21385b68909f,,,,,,,,,,,647.1958,648.1955,,,648.6953,648.9451,,45,45,,,,,,,,,,,,,,,,bars/029.png,bars/mask009.png,,,,,,,,,,,,10,2,,,,,,,10,10,10,10,,,,,,,,,,,648.1955,648.6953,648.9451,650.8027,space,1.8348,,650.8027,45,0,651.7953,651.7954,653.1458,space,1.321,,0,47,47,47,1,90,45,,,,,,,,
,,60e840cfd4c065679727d760,65af56a205a6baf848047f27,2024-01-23_08h09.36.055,bars,2023.2.3,Win32,60.60606061,657b66ea316d21385b68909f,,,,,,,,,,,653.1464,654.1454,,,654.6449,654.895,,73,73,,,,,,,,,,,,,,,,bars/029.png,bars/mask004.png,,,,,,,,,,,,4,1,,,,,,,10,10,10,10,,,,,,,,,,,654.1454,654.6449,654.895,655.7863,space,0.8676,,655.7863,17,28,656.7787,656.7787,657.5791,space,0.7703,,0,48,48,48,1,90,45,,,,,,,,
,,60e840cfd4c065679727d760,65af56a205a6baf848047f27,2024-01-23_08h09.36.055,bars,2023.2.3,Win32,60.60606061,657b66ea316d21385b68909f,,,,,,,,,,,657.5798,658.5784,,,659.0784,659.3283,,58,58,,,,,,,,,,,,,,,,bars/030.png,bars/mask009.png,,,,,,,,,,,,5,2,,,,,,,8,8,6,6,,,,,,,,,,,658.5785,659.0784,659.3283,661.1852,space,1.8328,,661.1852,82,7,662.1786,662.1787,663.3291,space,1.1225,,0,49,49,49,1,140,65,,,,,,,,
,,60e840cfd4c065679727d760,65af56a205a6baf848047f27,2024-01-23_08h09.36.055,bars,2023.2.3,Win32,60.60606061,657b66ea316d21385b68909f,,,,,,,,,,,,,,,,,,,,,,,,,,,,,,,,,,,,,,,,,,,,,,,,,,,,,,,,,,,,,,,,,,,,,,,,,,,,,,,,,,,,,,,,,,,,,663.331,723.3292,0,0,0,3,1,sequence_tables/blk041.csv
,,60e840cfd4c065679727d760,65af56a205a6baf848047f27,2024-01-23_08h09.36.055,bars,2023.2.3,Win32,60.60606061,657b66ea316d21385b68909f,,,,,,,,,,,726.0673,727.0623,,,727.5621,727.8117,,101,101,,,,,,,,,,,,,,,,bars/018.png,bars/mask009.png,,,,,,,,,,,,0,2,,,,,,,8,1,8,0,,,,,,723.3362,726.0621,space,2.7077,,727.0623,727.5621,727.8117,730.7619,space,2.9175,,730.762,49,11,731.7622,731.7623,731.7691,,,,0,0,0,0,1,150,90,,,,,,,,
,,60e840cfd4c065679727d760,65af56a205a6baf848047f27,2024-01-23_08h09.36.055,bars,2023.2.3,Win32,60.60606061,657b66ea316d21385b68909f,,,,,,,,,,,731.7692,732.7623,,,733.2619,733.5124,,8,8,,,,,,,,,,,,,,,,bars/014.png,bars/mask008.png,,,,,,,,,,,,2,2,,,,,,,6,3,5,3,,,,,,,,,,,732.7623,733.2618,733.5124,738.0695,space,4.5338,,738.0696,72,8,739.0622,739.0623,739.0691,,,,0,1,1,1,1,80,0,,,,,,,,
,,60e840cfd4c065679727d760,65af56a205a6baf848047f27,2024-01-23_08h09.36.055,bars,2023.2.3,Win32,60.60606061,657b66ea316d21385b68909f,,,,,,,,,,,739.0692,740.0619,,,740.562,740.812,,52,232,,,,,,,,,,,,,,,,bars/007.png,bars/mask003.png,,,,,,,,,,,,5,2,,,,,,,4,5,5,6,,,,,,,,,,,740.0619,740.562,740.812,744.5865,space,3.7507,,744.5866,57,3,745.5786,745.5787,745.5855,,,,0,2,2,2,1,175,55,,,,,,,,
,,60e840cfd4c065679727d760,65af56a205a6baf848047f27,2024-01-23_08h09.36.055,bars,2023.2.3,Win32,60.60606061,657b66ea316d21385b68909f,,,,,,,,,,,745.5856,746.579,,,747.0789,747.3287,,57,57,,,,,,,,,,,,,,,,bars/007.png,bars/mask008.png,,,,,,,,,,,,2,2,,,,,,,6,3,6,2,,,,,,,,,,,746.5791,747.0789,747.3287,749.5364,space,2.2003,,749.5364,62,2,750.5289,750.529,750.5359,,,,0,3,3,3,1,175,55,,,,,,,,
,,60e840cfd4c065679727d760,65af56a205a6baf848047f27,2024-01-23_08h09.36.055,bars,2023.2.3,Win32,60.60606061,657b66ea316d21385b68909f,,,,,,,,,,,750.536,751.529,,,752.0286,752.2791,,2,2,,,,,,,,,,,,,,,,bars/014.png,bars/mask003.png,,,,,,,,,,,,0,2,,,,,,,8,1,6,0,,,,,,,,,,,751.5291,752.0285,752.2791,754.0789,space,1.7736,,754.0789,78,2,755.0789,755.079,755.0808,,,,0,4,4,4,1,80,0,,,,,,,,
,,60e840cfd4c065679727d760,65af56a205a6baf848047f27,2024-01-23_08h09.36.055,bars,2023.2.3,Win32,60.60606061,657b66ea316d21385b68909f,,,,,,,,,,,755.0815,756.0791,,,756.5696,756.812,,66,66,,,,,,,,,,,,,,,,bars/027.png,bars/mask000.png,,,,,,,,,,,,1,2,,,,,,,10,3,10,3,,,,,,,,,,,756.0793,756.5696,756.812,761.0362,space,4.2003,,761.0362,44,16,762.0291,762.0291,762.0361,,,,0,5,5,5,1,110,50,,,,,,,,
,,60e840cfd4c065679727d760,65af56a205a6baf848047f27,2024-01-23_08h09.36.055,bars,2023.2.3,Win32,60.60606061,657b66ea316d21385b68909f,,,,,,,,,,,762.0362,763.0291,,,763.536,763.7791,,176,176,,,,,,,,,,,,,,,,bars/032.png,bars/mask005.png,,,,,,,,,,,,0,2,,,,,,,8,1,8,0,,,,,,,,,,,763.0292,763.536,763.7791,767.3123,space,3.522,,767.3124,51,24,768.3122,768.3122,768.3191,,,,0,6,6,6,1,125,20,,,,,,,,
,,60e840cfd4c065679727d760,65af56a205a6baf848047f27,2024-01-23_08h09.36.055,bars,2023.2.3,Win32,60.60606061,657b66ea316d21385b68909f,,,,,,,,,,,768.3192,769.3122,,,769.8122,770.0624,,16,196,,,,,,,,,,,,,,,,bars/015.png,bars/mask005.png,,,,,,,,,,,,0,2,,,,,,,6,0,6,0,,,,,,,,,,,769.3122,769.8121,770.0624,771.9866,space,1.9005,,771.9866,86,36,772.9787,772.9787,772.9797,,,,0,7,7,7,1,110,160,,,,,,,,
,,60e840cfd4c065679727d760,65af56a205a6baf848047f27,2024-01-23_08h09.36.055,bars,2023.2.3,Win32,60.60606061,657b66ea316d21385b68909f,,,,,,,,,,,772.9803,773.9791,,,774.4791,774.7289,,78,78,,,,,,,,,,,,,,,,bars/026.png,bars/mask008.png,,,,,,,,,,,,0,2,,,,,,,4,0,6,0,,,,,,,,,,,773.9791,774.4791,774.7289,777.5696,space,2.8169,,777.5696,43,7,778.5625,778.5626,778.5694,,,,0,8,8,8,1,35,85,,,,,,,,
,,60e840cfd4c065679727d760,65af56a205a6baf848047f27,2024-01-23_08h09.36.055,bars,2023.2.3,Win32,60.60606061,657b66ea316d21385b68909f,,,,,,,,,,,778.5695,779.5626,,,780.0625,780.3121,,19,19,,,,,,,,,,,,,,,,bars/041.png,bars/mask005.png,,,,,,,,,,,,6,1,,,,,,,6,0,6,0,,,,,,,,,,,779.5626,780.0625,780.3122,782.0531,space,1.7171,,782.0531,1,66,783.0459,783.0459,783.0488,,,,0,9,9,9,1,20,85,,,,,,,,
,,60e840cfd4c065679727d760,65af56a205a6baf848047f27,2024-01-23_08h09.36.055,bars,2023.2.3,Win32,60.60606061,657b66ea316d21385b68909f,,,,,,,,,,,783.049,784.0455,,,784.5346,784.7786,,134,134,,,,,,,,,,,,,,,,bars/038.png,bars/mask000.png,,,,,,,,,,,,0,1,,,,,,,8,2,8,3,,,,,,,,,,,784.0455,784.5346,784.7786,785.8992,space,1.0963,,785.8992,31,64,786.8955,786.8955,786.8968,,,,0,10,10,10,1,165,70,,,,,,,,
,,60e840cfd4c065679727d760,65af56a205a6baf848047f27,2024-01-23_08h09.36.055,bars,2023.2.3,Win32,60.60606061,657b66ea316d21385b68909f,,,,,,,,,,,786.8974,787.8955,,,788.3957,788.6529,,29,209,,,,,,,,,,,,,,,,bars/024.png,bars/mask008.png,,,,,,,,,,,,0,2,,,,,,,6,0,7,0,,,,,,,,,,,787.8955,788.3957,788.6529,791.3201,space,2.6506,,791.3201,89,39,792.3125,792.3125,792.32,,,,0,11,11,11,1,120,170,,,,,,,,
,,60e840cfd4c065679727d760,65af56a205a6baf848047f27,2024-01-23_08h09.36.055,bars,2023.2.3,Win32,60.60606061,657b66ea316d21385b68909f,,,,,,,,,,,792.3201,793.3125,,,793.8121,794.0624,,104,104,,,,,,,,,,,,,,,,bars/021.png,bars/mask000.png,,,,,,,,,,,,0,2,,,,,,,4,2,5,2,,,,,,,,,,,793.3125,793.8121,794.0625,795.3701,space,1.284,,795.3701,51,34,796.3619,796.3619,796.3696,,,,0,12,12,12,1,155,70,,,,,,,,
,,60e840cfd4c065679727d760,65af56a205a6baf848047f27,2024-01-23_08h09.36.055,bars,2023.2.3,Win32,60.60606061,657b66ea316d21385b68909f,,,,,,,,,,,796.3697,797.3626,,,797.8627,798.1123,,91,91,,,,,,,,,,,,,,,,bars/002.png,bars/mask003.png,,,,,,,,,,,,0,2,,,,,,,6,0,7,0,,,,,,,,,,,797.3628,797.8626,798.1123,802.1533,space,4.0174,,802.1533,39,6,803.1459,803.1459,803.1525,,,,0,13,13,13,1,130,85,,,,,,,,
,,60e840cfd4c065679727d760,65af56a205a6baf848047f27,2024-01-23_08h09.36.055,bars,2023.2.3,Win32,60.60606061,657b66ea316d21385b68909f,,,,,,,,,,,803.1525,804.1453,,,804.6364,804.8868,,51,51,,,,,,,,,,,,,,,,bars/041.png,bars/mask000.png,,,,,,,,,,,,0,1,,,,,,,8,2,7,2,,,,,,,,,,,804.1454,804.6364,804.8868,810.1019,space,5.1988,,810.1019,31,34,811.1013,811.1013,811.1101,,,,0,14,14,14,1,20,85,,,,,,,,
,,60e840cfd4c065679727d760,65af56a205a6baf848047f27,2024-01-23_08h09.36.055,bars,2023.2.3,Win32,60.60606061,657b66ea316d21385b68909f,,,,,,,,,,,811.1103,812.1123,,,812.6123,812.862,,126,126,,,,,,,,,,,,,,,,bars/002.png,bars/mask007.png,,,,,,,,,,,,9,1,,,,,,,10,4,10,6,,,,,,,,,,,812.1125,812.6123,812.862,814.5127,space,1.6174,,814.5128,4,41,815.5122,815.5122,815.5135,,,,0,15,15,15,1,130,85,,,,,,,,
,,60e840cfd4c065679727d760,65af56a205a6baf848047f27,2024-01-23_08h09.36.055,bars,2023.2.3,Win32,60.60606061,657b66ea316d21385b68909f,,,,,,,,,,,815.5141,816.5121,,,817.0126,817.2625,,159,159,,,,,,,,,,,,,,,,bars/038.png,bars/mask000.png,,,,,,,,,,,,8,1,,,,,,,10,2,10,2,,,,,,,,,,,816.5121,817.0126,817.2625,819.0365,space,1.7502,,819.0365,6,89,820.0289,820.0289,820.0312,,,,0,16,16,16,1,165,70,,,,,,,,
,,60e840cfd4c065679727d760,65af56a205a6baf848047f27,2024-01-23_08h09.36.055,bars,2023.2.3,Win32,60.60606061,657b66ea316d21385b68909f,,,,,,,,,,,820.0317,821.0293,,,821.5294,821.7787,,33,213,,,,,,,,,,,,,,,,bars/026.png,bars/mask009.png,,,,,,,,,,,,6,1,,,,,,,8,0,6,0,,,,,,,,,,,821.0293,821.5293,821.7788,825.6198,space,3.817,,825.6198,2,52,826.6125,826.6126,826.6195,,,,0,17,17,17,1,35,85,,,,,,,,
,,60e840cfd4c065679727d760,65af56a205a6baf848047f27,2024-01-23_08h09.36.055,bars,2023.2.3,Win32,60.60606061,657b66ea316d21385b68909f,,,,,,,,,,,826.6196,827.6127,,,828.1129,828.3625,,134,-46,,,,,,,,,,,,,,,,bars/002.png,bars/mask008.png,,,,,,,,,,,,9,1,,,,,,,10,2,10,3,,,,,,,,,,,827.6128,828.1128,828.3627,832.913,space,4.5173,,832.913,4,49,833.9128,833.913,833.9197,,,,0,18,18,18,1,130,85,,,,,,,,
,,60e840cfd4c065679727d760,65af56a205a6baf848047f27,2024-01-23_08h09.36.055,bars,2023.2.3,Win32,60.60606061,657b66ea316d21385b68909f,,,,,,,,,,,833.9198,834.9122,,,835.4126,835.6622,,109,109,,,,,,,,,,,,,,,,bars/008.png,bars/mask008.png,,,,,,,,,,,,10,1,,,,,,,10,4,10,7,,,,,,,,,,,834.9122,835.4126,835.6622,837.2199,space,1.5504,,837.2199,1,71,838.2197,838.2198,838.2253,,,,0,19,19,19,1,110,0,,,,,,,,
,,60e840cfd4c065679727d760,65af56a205a6baf848047f27,2024-01-23_08h09.36.055,bars,2023.2.3,Win32,60.60606061,657b66ea316d21385b68909f,,,,,,,,,,,838.2255,839.2291,,,839.7291,839.979,,129,-51,,,,,,,,,,,,,,,,bars/034.png,bars/mask007.png,,,,,,,,,,,,7,1,,,,,,,8,6,8,5,,,,,,,,,,,839.2291,839.7291,839.979,843.9459,space,3.9371,,843.946,4,64,844.9456,844.9457,844.9525,,,,0,20,20,20,1,125,65,,,,,,,,
,,60e840cfd4c065679727d760,65af56a205a6baf848047f27,2024-01-23_08h09.36.055,bars,2023.2.3,Win32,60.60606061,657b66ea316d21385b68909f,,,,,,,,,,,844.9526,845.9458,,,846.446,846.6955,,70,70,,,,,,,,,,,,,,,,bars/029.png,bars/mask006.png,,,,,,,,,,,,2,1,,,,,,,6,8,6,8,,,,,,,,,,,845.9458,846.446,846.6955,848.9626,space,2.2402,,848.9627,20,25,849.9627,849.9628,849.9646,,,,0,21,21,21,1,90,45,,,,,,,,
,,60e840cfd4c065679727d760,65af56a205a6baf848047f27,2024-01-23_08h09.36.055,bars,2023.2.3,Win32,60.60606061,657b66ea316d21385b68909f,,,,,,,,,,,849.965,850.9627,,,851.4531,851.696,,2,182,,,,,,,,,,,,,,,,bars/007.png,bars/mask005.png,,,,,,,,,,,,3,1,,,,,,,4,6,4,7,,,,,,,,,,,850.9627,851.4531,851.6961,854.4791,space,2.7563,,854.4792,7,53,855.4794,855.4795,855.4865,,,,0,22,22,22,1,175,55,,,,,,,,
,,60e840cfd4c065679727d760,65af56a205a6baf848047f27,2024-01-23_08h09.36.055,bars,2023.2.3,Win32,60.60606061,657b66ea316d21385b68909f,,,,,,,,,,,855.4867,856.479,,,856.9796,857.2291,,95,95,,,,,,,,,,,,,,,,bars/025.png,bars/mask002.png,,,,,,,,,,,,5,1,,,,,,,6,4,7,4,,,,,,,,,,,856.479,856.9795,857.2291,861.3624,space,4.1009,,861.3625,10,55,862.3627,862.3628,862.3697,,,,0,23,23,23,1,105,40,,,,,,,,
,,60e840cfd4c065679727d760,65af56a205a6baf848047f27,2024-01-23_08h09.36.055,bars,2023.2.3,Win32,60.60606061,657b66ea316d21385b68909f,,,,,,,,,,,862.3699,863.3624,,,863.8625,864.1125,,161,-19,,,,,,,,,,,,,,,,bars/010.png,bars/mask009.png,,,,,,,,,,,,3,1,,,,,,,4,6,4,5,,,,,,,,,,,863.3624,863.8624,864.1126,866.1625,space,2.0198,,866.1626,4,74,867.1624,867.1624,867.1698,,,,0,24,24,24,1,165,55,,,,,,,,
,,60e840cfd4c065679727d760,65af56a205a6baf848047f27,2024-01-23_08h09.36.055,bars,2023.2.3,Win32,60.60606061,657b66ea316d21385b68909f,,,,,,,,,,,867.1699,868.1628,,,868.6629,868.9124,,142,142,,,,,,,,,,,,,,,,bars/049.png,bars/mask008.png,,,,,,,,,,,,2,1,,,,,,,6,8,5,7,,,,,,,,,,,868.1628,868.6628,868.9125,871.4368,space,2.5007,,871.4368,18,27,872.4288,872.4288,872.4364,,,,0,25,25,25,1,160,115,,,,,,,,
,,60e840cfd4c065679727d760,65af56a205a6baf848047f27,2024-01-23_08h09.36.055,bars,2023.2.3,Win32,60.60606061,657b66ea316d21385b68909f,,,,,,,,,,,872.4365,873.429,,,873.9349,874.1791,,69,69,,,,,,,,,,,,,,,,bars/029.png,bars/mask003.png,,,,,,,,,,,,1,1,,,,,,,4,10,4,9,,,,,,,,,,,873.4291,873.9349,874.1791,875.7683,space,1.5653,,875.7684,21,24,876.7625,876.7625,876.7691,,,,0,26,26,26,1,90,45,,,,,,,,
,,60e840cfd4c065679727d760,65af56a205a6baf848047f27,2024-01-23_08h09.36.055,bars,2023.2.3,Win32,60.60606061,657b66ea316d21385b68909f,,,,,,,,,,,876.7692,877.7624,,,878.2629,878.5127,,147,147,,,,,,,,,,,,,,,,bars/046.png,bars/mask007.png,,,,,,,,,,,,4,1,,,,,,,6,10,6,10,,,,,,,,,,,877.7625,878.2628,878.5127,880.2034,space,1.6673,,880.2034,8,62,881.1957,881.1958,881.2026,,,,0,27,27,27,1,155,85,,,,,,,,
,,60e840cfd4c065679727d760,65af56a205a6baf848047f27,2024-01-23_08h09.36.055,bars,2023.2.3,Win32,60.60606061,657b66ea316d21385b68909f,,,,,,,,,,,881.2027,882.1958,,,882.6958,882.9459,,122,122,,,,,,,,,,,,,,,,bars/030.png,bars/mask001.png,,,,,,,,,,,,2,1,,,,,,,4,8,4,9,,,,,,,,,,,882.1959,882.6958,882.9459,884.6533,space,1.6836,,884.6533,18,57,885.6459,885.6459,885.6472,,,,0,28,28,28,1,140,65,,,,,,,,
,,60e840cfd4c065679727d760,65af56a205a6baf848047f27,2024-01-23_08h09.36.055,bars,2023.2.3,Win32,60.60606061,657b66ea316d21385b68909f,,,,,,,,,,,885.6479,886.6456,,,887.1458,887.3959,,145,-35,,,,,,,,,,,,,,,,bars/018.png,bars/mask003.png,,,,,,,,,,,,5,1,,,,,,,6,10,6,10,,,,,,,,,,,886.6456,887.1458,887.3959,889.7537,space,2.3339,,889.7537,5,55,890.746,890.7461,890.7526,,,,0,29,29,29,1,150,90,,,,,,,,
,,60e840cfd4c065679727d760,65af56a205a6baf848047f27,2024-01-23_08h09.36.055,bars,2023.2.3,Win32,60.60606061,657b66ea316d21385b68909f,,,,,,,,,,,890.7527,891.7462,,,892.2462,892.4963,,6,6,,,,,,,,,,,,,,,,bars/023.png,bars/mask006.png,,,,,,,,,,,,4,1,,,,,,,8,8,7,7,,,,,,,,,,,891.7463,892.2462,892.4963,895.1867,space,2.6688,,895.1868,14,71,896.1791,896.1791,896.1862,,,,0,30,30,30,1,20,115,,,,,,,,
,,60e840cfd4c065679727d760,65af56a205a6baf848047f27,2024-01-23_08h09.36.055,bars,2023.2.3,Win32,60.60606061,657b66ea316d21385b68909f,,,,,,,,,,,896.1862,897.1795,,,897.6794,897.9295,,36,216,,,,,,,,,,,,,,,,bars/023.png,bars/mask006.png,,,,,,,,,,,,5,1,,,,,,,10,6,10,8,,,,,,,,,,,897.1796,897.6793,897.9295,901.62,space,3.6669,,901.6201,16,79,902.613,902.6131,902.6193,,,,0,31,31,31,1,20,115,,,,,,,,
,,60e840cfd4c065679727d760,65af56a205a6baf848047f27,2024-01-23_08h09.36.055,bars,2023.2.3,Win32,60.60606061,657b66ea316d21385b68909f,,,,,,,,,,,902.6195,903.6128,,,904.113,904.3627,,134,-46,,,,,,,,,,,,,,,,bars/034.png,bars/mask002.png,,,,,,,,,,,,6,1,,,,,,,8,8,8,8,,,,,,,,,,,903.6129,904.1129,904.3627,907.5868,space,3.2005,,907.5868,9,69,908.5795,908.5796,908.5859,,,,0,32,32,32,1,125,65,,,,,,,,
,,60e840cfd4c065679727d760,65af56a205a6baf848047f27,2024-01-23_08h09.36.055,bars,2023.2.3,Win32,60.60606061,657b66ea316d21385b68909f,,,,,,,,,,,908.5859,909.5796,,,910.0791,910.3295,,26,206,,,,,,,,,,,,,,,,bars/033.png,bars/mask008.png,,,,,,,,,,,,6,1,,,,,,,6,10,6,8,,,,,,,,,,,909.5797,910.0791,910.3296,914.8292,space,4.4746,,914.8293,1,51,915.8292,915.8292,915.8355,,,,0,33,33,33,1,25,155,,,,,,,,
,,60e840cfd4c065679727d760,65af56a205a6baf848047f27,2024-01-23_08h09.36.055,bars,2023.2.3,Win32,60.60606061,657b66ea316d21385b68909f,,,,,,,,,,,915.8356,916.8294,,,917.3293,917.5681,,44,44,,,,,,,,,,,,,,,,bars/041.png,bars/mask007.png,,,,,,,,,,,,1,1,,,,,,,4,10,3,8,,,,,,,,,,,916.8294,917.3293,917.5681,918.4201,space,0.8335,,918.4201,24,41,919.4127,919.4129,919.4145,,,,0,34,34,34,1,20,85,,,,,,,,
,,60e840cfd4c065679727d760,65af56a205a6baf848047f27,2024-01-23_08h09.36.055,bars,2023.2.3,Win32,60.60606061,657b66ea316d21385b68909f,,,,,,,,,,,919.4153,920.4129,,,920.913,921.169,,27,207,,,,,,,,,,,,,,,,bars/043.png,bars/mask004.png,,,,,,,,,,,,5,1,,,,,,,6,8,5,8,,,,,,,,,,,920.413,920.913,921.169,924.2036,space,3.0171,,924.2036,3,77,925.2034,925.2034,925.2094,,,,0,35,35,35,1,30,130,,,,,,,,
,,60e840cfd4c065679727d760,65af56a205a6baf848047f27,2024-01-23_08h09.36.055,bars,2023.2.3,Win32,60.60606061,657b66ea316d21385b68909f,,,,,,,,,,,925.2095,926.2126,,,926.713,926.9629,,93,93,,,,,,,,,,,,,,,,bars/031.png,bars/mask006.png,,,,,,,,,,,,1,1,,,,,,,8,10,9,10,,,,,,,,,,,926.2126,926.713,926.963,929.8293,space,2.8428,,929.8293,27,58,930.8291,930.8291,930.8362,,,,0,36,36,36,1,120,35,,,,,,,,
,,60e840cfd4c065679727d760,65af56a205a6baf848047f27,2024-01-23_08h09.36.055,bars,2023.2.3,Win32,60.60606061,657b66ea316d21385b68909f,,,,,,,,,,,930.8363,931.8297,,,932.3294,932.5796,,108,108,,,,,,,,,,,,,,,,bars/043.png,bars/mask009.png,,,,,,,,,,,,3,2,,,,,,,10,10,10,10,,,,,,,,,,,931.8298,932.3293,932.5796,934.8331,space,2.23,,934.8331,78,22,935.8297,935.8298,935.8372,,,,0,37,37,37,1,30,130,,,,,,,,
,,60e840cfd4c065679727d760,65af56a205a6baf848047f27,2024-01-23_08h09.36.055,bars,2023.2.3,Win32,60.60606061,657b66ea316d21385b68909f,,,,,,,,,,,935.8373,936.8367,,,937.3294,937.5795,,39,39,,,,,,,,,,,,,,,,bars/004.png,bars/mask005.png,,,,,,,,,,,,4,1,,,,,,,8,10,7,10,,,,,,,,,,,936.8367,937.3293,937.5795,939.1133,space,1.505,,939.1133,14,86,940.1126,940.1126,940.1156,,,,0,38,38,38,1,25,125,,,,,,,,
,,60e840cfd4c065679727d760,65af56a205a6baf848047f27,2024-01-23_08h09.36.055,bars,2023.2.3,Win32,60.60606061,657b66ea316d21385b68909f,,,,,,,,,,,940.1158,941.113,,,941.6133,941.8629,,129,129,,,,,,,,,,,,,,,,bars/037.png,bars/mask007.png,,,,,,,,,,,,3,1,,,,,,,10,8,9,9,,,,,,,,,,,941.113,941.6132,941.863,945.0462,space,3.1589,,945.0463,21,24,946.0459,946.0459,946.053,,,,0,39,39,39,1,150,105,,,,,,,,
,,60e840cfd4c065679727d760,65af56a205a6baf848047f27,2024-01-23_08h09.36.055,bars,2023.2.3,Win32,60.60606061,657b66ea316d21385b68909f,,,,,,,,,,,946.0531,947.0463,,,947.5462,947.7963,,35,215,,,,,,,,,,,,,,,,bars/005.png,bars/mask005.png,,,,,,,,,,,,1,1,,,,,,,8,6,7,6,,,,,,,,,,,947.0464,947.5461,947.7964,951.1538,space,3.3339,,951.154,25,75,952.146,952.146,952.153,,,,0,40,40,40,1,10,140,,,,,,,,
,,60e840cfd4c065679727d760,65af56a205a6baf848047f27,2024-01-23_08h09.36.055,bars,2023.2.3,Win32,60.60606061,657b66ea316d21385b68909f,,,,,,,,,,,952.1533,953.1463,,,953.6494,953.8963,,134,134,,,,,,,,,,,,,,,,bars/034.png,bars/mask001.png,,,,,,,,,,,,4,1,,,,,,,6,4,6,4,,,,,,,,,,,953.1464,953.6494,953.8964,956.1632,space,2.2356,,956.1633,9,69,957.1627,957.1627,957.1698,,,,0,41,41,41,1,125,65,,,,,,,,
,,60e840cfd4c065679727d760,65af56a205a6baf848047f27,2024-01-23_08h09.36.055,bars,2023.2.3,Win32,60.60606061,657b66ea316d21385b68909f,,,,,,,,,,,957.1699,958.163,,,958.6631,958.9131,,163,-17,,,,,,,,,,,,,,,,bars/011.png,bars/mask006.png,,,,,,,,,,,,3,1,,,,,,,4,2,3,3,,,,,,,,,,,958.163,958.663,958.9131,961.7035,space,2.7669,,961.7035,3,78,962.6961,962.6962,962.7029,,,,0,42,42,42,1,160,85,,,,,,,,
,,60e840cfd4c065679727d760,65af56a205a6baf848047f27,2024-01-23_08h09.36.055,bars,2023.2.3,Win32,60.60606061,657b66ea316d21385b68909f,,,,,,,,,,,962.703,963.6961,,,964.1964,964.4517,,26,206,,,,,,,,,,,,,,,,bars/041.png,bars/mask007.png,,,,,,,,,,,,5,1,,,,,,,6,0,6,0,,,,,,,,,,,963.6962,964.1964,964.4517,967.3871,space,2.93,,967.3871,6,59,968.3793,968.3793,968.3863,,,,0,43,43,43,1,20,85,,,,,,,,
,,60e840cfd4c065679727d760,65af56a205a6baf848047f27,2024-01-23_08h09.36.055,bars,2023.2.3,Win32,60.60606061,657b66ea316d21385b68909f,,,,,,,,,,,968.3864,969.3794,,,969.8798,970.13,,31,31,,,,,,,,,,,,,,,,bars/005.png,bars/mask009.png,,,,,,,,,,,,1,1,,,,,,,4,2,2,2,,,,,,,,,,,969.3795,969.8798,970.1301,972.7872,space,2.6351,,972.7872,21,71,973.7792,973.7792,973.7857,,,,0,44,44,44,1,10,140,,,,,,,,
,,60e840cfd4c065679727d760,65af56a205a6baf848047f27,2024-01-23_08h09.36.055,bars,2023.2.3,Win32,60.60606061,657b66ea316d21385b68909f,,,,,,,,,,,973.786,974.7797,,,975.2794,975.53,,137,137,,,,,,,,,,,,,,,,bars/020.png,bars/mask005.png,,,,,,,,,,,,0,1,,,,,,,2,0,1,1,,,,,,,,,,,974.7798,975.2794,975.53,979.6371,space,4.0838,,979.6371,22,33,980.6295,980.6295,980.6364,,,,0,45,45,45,1,115,170,,,,,,,,
,,60e840cfd4c065679727d760,65af56a205a6baf848047f27,2024-01-23_08h09.36.055,bars,2023.2.3,Win32,60.60606061,657b66ea316d21385b68909f,,,,,,,,,,,980.6365,981.6293,,,982.1294,982.3793,,88,88,,,,,,,,,,,,,,,,bars/014.png,bars/mask008.png,,,,,,,,,,,,0,1,,,,,,,0,2,0,2,,,,,,,,,,,981.6293,982.1294,982.3794,984.7537,space,2.3504,,984.7538,8,88,985.7465,985.7466,985.7532,,,,0,46,46,46,1,80,0,,,,,,,,
,,60e840cfd4c065679727d760,65af56a205a6baf848047f27,2024-01-23_08h09.36.055,bars,2023.2.3,Win32,60.60606061,657b66ea316d21385b68909f,,,,,,,,,,,985.7533,986.7465,,,987.2463,987.4961,,4,184,,,,,,,,,,,,,,,,bars/046.png,bars/mask005.png,,,,,,,,,,,,0,1,,,,,,,2,4,3,4,,,,,,,,,,,986.7466,987.2462,987.4961,991.1633,space,3.6358,,991.1635,29,81,992.1631,992.1631,992.17,,,,0,47,47,47,1,155,85,,,,,,,,
,,60e840cfd4c065679727d760,65af56a205a6baf848047f27,2024-01-23_08h09.36.055,bars,2023.2.3,Win32,60.60606061,657b66ea316d21385b68909f,,,,,,,,,,,992.1701,993.1631,,,993.6627,993.9125,,73,73,,,,,,,,,,,,,,,,bars/014.png,bars/mask007.png,,,,,,,,,,,,3,1,,,,,,,4,2,4,4,,,,,,,,,,,993.1631,993.6627,993.9126,994.7795,space,0.8519,,994.7796,7,73,995.7794,995.7794,995.7805,,,,0,48,48,48,1,80,0,,,,,,,,
,,60e840cfd4c065679727d760,65af56a205a6baf848047f27,2024-01-23_08h09.36.055,bars,2023.2.3,Win32,60.60606061,657b66ea316d21385b68909f,,,,,,,,,,,995.7809,996.7795,,,997.285,997.5297,,115,115,,,,,,,,,,,,,,,,bars/008.png,bars/mask009.png,,,,,,,,,,,,6,1,,,,,,,6,4,7,3,,,,,,,,,,,996.7795,997.285,997.5297,999.4539,space,1.9169,,999.4539,5,65,1000.4465,1000.4465,1000.4481,,,,0,49,49,49,1,110,0,,,,,,,,
,,60e840cfd4c065679727d760,65af56a205a6baf848047f27,2024-01-23_08h09.36.055,bars,2023.2.3,Win32,60.60606061,657b66ea316d21385b68909f,,,,,,,,,,,,,,,,,,,,,,,,,,,,,,,,,,,,,,,,,,,,,,,,,,,,,,,,,,,,,,,,,,,,,,,,,,,,,,,,,,,,,,,,,,,,,1000.4484,1060.4367,0,1,1,4,1,sequence_tables/blk025.csv
,,60e840cfd4c065679727d760,65af56a205a6baf848047f27,2024-01-23_08h09.36.055,bars,2023.2.3,Win32,60.60606061,657b66ea316d21385b68909f,,,,,,,,,,,1140.2737,1141.2633,,,1141.7633,1142.0135,,109,-71,,,,,,,,,,,,,,,,bars/002.png,bars/mask004.png,,,,,,,,,,,,2,1,,,,,,,3,2,6,4,,,,,,1060.4426,1140.2639,space,79.8006,,1141.2634,1141.7631,1142.0136,1146.971,space,4.9341,,1146.971,21,24,1147.9636,1147.9637,1147.9706,,,,0,0,0,0,1,130,85,,,,,,,,
,,60e840cfd4c065679727d760,65af56a205a6baf848047f27,2024-01-23_08h09.36.055,bars,2023.2.3,Win32,60.60606061,657b66ea316d21385b68909f,,,,,,,,,,,1147.9707,1148.9636,,,1149.4637,1149.7135,,149,-31,,,,,,,,,,,,,,,,bars/042.png,bars/mask004.png,,,,,,,,,,,,1,1,,,,,,,1,4,1,4,,,,,,,,,,,1148.9636,1149.4636,1149.7136,1155.917,space,6.1799,,1155.917,4,74,1156.9132,1156.9132,1156.9207,,,,0,1,1,1,1,145,75,,,,,,,,
,,60e840cfd4c065679727d760,65af56a205a6baf848047f27,2024-01-23_08h09.36.055,bars,2023.2.3,Win32,60.60606061,657b66ea316d21385b68909f,,,,,,,,,,,1156.9208,1157.9135,,,1158.4134,1158.6634,,30,30,,,,,,,,,,,,,,,,bars/000.png,bars/mask005.png,,,,,,,,,,,,3,1,,,,,,,3,6,4,5,,,,,,,,,,,1157.9135,1158.4133,1158.6634,1172.7836,space,14.0973,,1172.7836,10,65,1173.7799,1173.78,1173.788,,,,0,2,2,2,1,40,145,,,,,,,,
,,60e840cfd4c065679727d760,65af56a205a6baf848047f27,2024-01-23_08h09.36.055,bars,2023.2.3,Win32,60.60606061,657b66ea316d21385b68909f,,,,,,,,,,,1173.7881,1174.7803,,,1175.2802,1175.5304,,23,203,,,,,,,,,,,,,,,,bars/041.png,bars/mask004.png,,,,,,,,,,,,5,1,,,,,,,5,4,5,4,,,,,,,,,,,1174.7803,1175.2801,1175.5304,1183.021,space,7.4688,,1183.021,3,62,1184.0134,1184.0135,1184.0202,,,,0,3,3,3,1,20,85,,,,,,,,
,,60e840cfd4c065679727d760,65af56a205a6baf848047f27,2024-01-23_08h09.36.055,bars,2023.2.3,Win32,60.60606061,657b66ea316d21385b68909f,,,,,,,,,,,1184.0203,1185.0138,,,1185.5138,1185.7638,,37,37,,,,,,,,,,,,,,,,bars/017.png,bars/mask000.png,,,,,,,,,,,,4,2,,,,,,,3,6,3,6,,,,,,,,,,,1185.0138,1185.5137,1185.7639,1188.2043,space,2.4173,,1188.2043,72,8,1189.1967,1189.1968,1189.2043,,,,0,4,4,4,1,145,45,,,,,,,,
,,60e840cfd4c065679727d760,65af56a205a6baf848047f27,2024-01-23_08h09.36.055,bars,2023.2.3,Win32,60.60606061,657b66ea316d21385b68909f,,,,,,,,,,,1189.2044,1190.1971,,,1190.6968,1190.9472,,0,180,,,,,,,,,,,,,,,,bars/033.png,bars/mask009.png,,,,,,,,,,,,1,2,,,,,,,5,8,4,8,,,,,,,,,,,1190.1972,1190.6968,1190.9473,1195.9712,space,5.0005,,1195.9712,25,25,1196.9638,1196.9638,1196.9707,,,,0,5,5,5,1,25,155,,,,,,,,
,,60e840cfd4c065679727d760,65af56a205a6baf848047f27,2024-01-23_08h09.36.055,bars,2023.2.3,Win32,60.60606061,657b66ea316d21385b68909f,,,,,,,,,,,1196.9708,1197.9709,,,1198.4637,1198.7137,,110,110,,,,,,,,,,,,,,,,bars/031.png,bars/mask004.png,,,,,,,,,,,,1,1,,,,,,,3,6,2,6,,,,,,,,,,,1197.9709,1198.4637,1198.7138,1200.2877,space,1.5505,,1200.2877,10,75,1201.2804,1201.2804,1201.2832,,,,0,6,6,6,1,120,35,,,,,,,,
,,60e840cfd4c065679727d760,65af56a205a6baf848047f27,2024-01-23_08h09.36.055,bars,2023.2.3,Win32,60.60606061,657b66ea316d21385b68909f,,,,,,,,,,,1201.2833,1202.2804,,,1202.7801,1203.0365,,47,47,,,,,,,,,,,,,,,,bars/026.png,bars/mask000.png,,,,,,,,,,,,1,1,,,,,,,1,4,2,4,,,,,,,,,,,1202.2804,1202.7801,1203.0365,1207.4212,space,4.3671,,1207.4212,12,38,1208.4138,1208.4139,1208.4208,,,,0,7,7,7,1,35,85,,,,,,,,
,,60e840cfd4c065679727d760,65af56a205a6baf848047f27,2024-01-23_08h09.36.055,bars,2023.2.3,Win32,60.60606061,657b66ea316d21385b68909f,,,,,,,,,,,1208.4208,1209.4136,,,1209.9137,1210.1527,,106,106,,,,,,,,,,,,,,,,bars/027.png,bars/mask005.png,,,,,,,,,,,,0,1,,,,,,,0,2,0,2,,,,,,,,,,,1209.4137,1209.9137,1210.1528,1212.3839,space,2.2133,,1212.3839,4,56,1213.38,1213.38,1213.3871,,,,0,8,8,8,1,110,50,,,,,,,,
,,60e840cfd4c065679727d760,65af56a205a6baf848047f27,2024-01-23_08h09.36.055,bars,2023.2.3,Win32,60.60606061,657b66ea316d21385b68909f,,,,,,,,,,,1213.3871,1214.3805,,,1214.8874,1215.1305,,61,61,,,,,,,,,,,,,,,,bars/013.png,bars/mask003.png,,,,,,,,,,,,0,1,,,,,,,0,4,0,3,,,,,,,,,,,1214.3806,1214.8874,1215.1305,1216.1376,space,0.9836,,1216.1376,14,51,1217.1304,1217.1305,1217.1318,,,,0,9,9,9,1,75,10,,,,,,,,
,,60e840cfd4c065679727d760,65af56a205a6baf848047f27,2024-01-23_08h09.36.055,bars,2023.2.3,Win32,60.60606061,657b66ea316d21385b68909f,,,,,,,,,,,1217.1326,1218.1302,,,1218.6306,1218.8801,,179,179,,,,,,,,,,,,,,,,bars/039.png,bars/mask007.png,,,,,,,,,,,,0,1,,,,,,,0,6,0,5,,,,,,,,,,,1218.1303,1218.6305,1218.8801,1220.1473,space,1.2364,,1220.1474,4,74,1221.1469,1221.1469,1221.148,,,,0,10,10,10,1,175,105,,,,,,,,
,,60e840cfd4c065679727d760,65af56a205a6baf848047f27,2024-01-23_08h09.36.055,bars,2023.2.3,Win32,60.60606061,657b66ea316d21385b68909f,,,,,,,,,,,1221.1485,1222.1469,,,1222.6474,1222.8968,,148,-32,,,,,,,,,,,,,,,,bars/035.png,bars/mask005.png,,,,,,,,,,,,0,1,,,,,,,0,8,0,9,,,,,,,,,,,1222.1469,1222.6472,1222.8968,1225.5639,space,2.6344,,1225.5639,27,88,1226.5638,1226.5639,1226.5708,,,,0,11,11,11,1,175,60,,,,,,,,
,,60e840cfd4c065679727d760,65af56a205a6baf848047f27,2024-01-23_08h09.36.055,bars,2023.2.3,Win32,60.60606061,657b66ea316d21385b68909f,,,,,,,,,,,1226.5708,1227.5638,,,1228.0543,1228.2975,,158,158,,,,,,,,,,,,,,,,bars/010.png,bars/mask005.png,,,,,,,,,,,,2,1,,,,,,,2,10,2,9,,,,,,,,,,,1227.5639,1228.0543,1228.2975,1230.2644,space,1.9391,,1230.2644,7,77,1231.2636,1231.2636,1231.2706,,,,0,12,12,12,1,165,55,,,,,,,,
,,60e840cfd4c065679727d760,65af56a205a6baf848047f27,2024-01-23_08h09.36.055,bars,2023.2.3,Win32,60.60606061,657b66ea316d21385b68909f,,,,,,,,,,,1231.2707,1232.2637,,,1232.7639,1233.0139,,11,11,,,,,,,,,,,,,,,,bars/043.png,bars/mask005.png,,,,,,,,,,,,0,1,,,,,,,0,10,0,10,,,,,,,,,,,1232.2637,1232.7638,1233.0139,1236.847,space,3.8102,,1236.847,19,61,1237.8373,1237.8373,1237.8428,,,,0,13,13,13,1,30,130,,,,,,,,
,,60e840cfd4c065679727d760,65af56a205a6baf848047f27,2024-01-23_08h09.36.055,bars,2023.2.3,Win32,60.60606061,657b66ea316d21385b68909f,,,,,,,,,,,1237.8428,1238.847,,,1239.3478,1239.5972,,160,-20,,,,,,,,,,,,,,,,bars/010.png,bars/mask002.png,,,,,,,,,,,,0,1,,,,,,,0,10,0,10,,,,,,,,,,,1238.847,1239.3476,1239.5974,1241.7974,space,2.1751,,1241.7975,5,75,1242.7972,1242.7974,1242.8042,,,,0,14,14,14,1,165,55,,,,,,,,
,,60e840cfd4c065679727d760,65af56a205a6baf848047f27,2024-01-23_08h09.36.055,bars,2023.2.3,Win32,60.60606061,657b66ea316d21385b68909f,,,,,,,,,,,1242.8044,1243.7971,,,1244.2971,1244.5469,,135,135,,,,,,,,,,,,,,,,bars/044.png,bars/mask007.png,,,,,,,,,,,,3,2,,,,,,,2,8,3,8,,,,,,,,,,,1243.7971,1244.297,1244.5469,1246.9711,space,2.4003,,1246.9712,60,20,1247.9635,1247.9635,1247.9666,,,,0,15,15,15,1,75,155,,,,,,,,
,,60e840cfd4c065679727d760,65af56a205a6baf848047f27,2024-01-23_08h09.36.055,bars,2023.2.3,Win32,60.60606061,657b66ea316d21385b68909f,,,,,,,,,,,1247.9668,1248.9636,,,1249.4669,1249.7139,,42,222,,,,,,,,,,,,,,,,bars/025.png,bars/mask000.png,,,,,,,,,,,,5,2,,,,,,,0,6,0,5,,,,,,,,,,,1248.9637,1249.4669,1249.714,1252.7187,space,2.9813,,1252.7188,63,2,1253.7139,1253.7139,1253.721,,,,0,16,16,16,1,105,40,,,,,,,,
,,60e840cfd4c065679727d760,65af56a205a6baf848047f27,2024-01-23_08h09.36.055,bars,2023.2.3,Win32,60.60606061,657b66ea316d21385b68909f,,,,,,,,,,,1253.721,1254.7139,,,1255.2138,1255.4639,,87,87,,,,,,,,,,,,,,,,bars/027.png,bars/mask004.png,,,,,,,,,,,,0,1,,,,,,,2,4,2,3,,,,,,,,,,,1254.7139,1255.2137,1255.4639,1258.2644,space,2.7713,,1258.2645,23,37,1259.264,1259.264,1259.2714,,,,0,17,17,17,1,110,50,,,,,,,,
,,60e840cfd4c065679727d760,65af56a205a6baf848047f27,2024-01-23_08h09.36.055,bars,2023.2.3,Win32,60.60606061,657b66ea316d21385b68909f,,,,,,,,,,,1259.2715,1260.2635,,,1260.7636,1261.0137,,104,104,,,,,,,,,,,,,,,,bars/018.png,bars/mask009.png,,,,,,,,,,,,4,2,,,,,,,0,6,1,7,,,,,,,,,,,1260.2636,1260.7636,1261.0138,1263.9377,space,2.9002,,1263.9377,46,14,1264.9307,1264.9307,1264.938,,,,0,18,18,18,1,150,90,,,,,,,,
,,60e840cfd4c065679727d760,65af56a205a6baf848047f27,2024-01-23_08h09.36.055,bars,2023.2.3,Win32,60.60606061,657b66ea316d21385b68909f,,,,,,,,,,,1264.9382,1265.9306,,,1266.4309,1266.6803,,62,62,,,,,,,,,,,,,,,,bars/011.png,bars/mask000.png,,,,,,,,,,,,2,2,,,,,,,2,8,2,8,,,,,,,,,,,1265.9307,1266.4307,1266.6803,1269.3504,space,2.6463,,1269.3504,82,23,1270.3467,1270.3468,1270.3536,,,,0,19,19,19,1,160,85,,,,,,,,
,,60e840cfd4c065679727d760,65af56a205a6baf848047f27,2024-01-23_08h09.36.055,bars,2023.2.3,Win32,60.60606061,657b66ea316d21385b68909f,,,,,,,,,,,1270.3537,1271.347,,,1271.847,1272.0968,,175,-5,,,,,,,,,,,,,,,,bars/023.png,bars/mask003.png,,,,,,,,,,,,1,1,,,,,,,4,6,4,8,,,,,,,,,,,1271.347,1271.847,1272.0968,1274.2214,space,2.1043,,1274.2214,25,60,1275.2137,1275.2137,1275.2213,,,,0,20,20,20,1,20,115,,,,,,,,
,,60e840cfd4c065679727d760,65af56a205a6baf848047f27,2024-01-23_08h09.36.055,bars,2023.2.3,Win32,60.60606061,657b66ea316d21385b68909f,,,,,,,,,,,1275.2214,1276.217,,,1276.7137,1276.964,,134,134,,,,,,,,,,,,,,,,bars/045.png,bars/mask007.png,,,,,,,,,,,,0,1,,,,,,,6,4,6,4,,,,,,,,,,,1276.2171,1276.7136,1276.964,1278.3141,space,1.3214,,1278.3142,34,56,1279.3138,1279.3139,1279.3155,,,,0,21,21,21,1,100,10,,,,,,,,
,,60e840cfd4c065679727d760,65af56a205a6baf848047f27,2024-01-23_08h09.36.055,bars,2023.2.3,Win32,60.60606061,657b66ea316d21385b68909f,,,,,,,,,,,1279.3165,1280.3208,,,1280.8138,1281.0637,,101,101,,,,,,,,,,,,,,,,bars/027.png,bars/mask003.png,,,,,,,,,,,,6,1,,,,,,,8,2,8,2,,,,,,,,,,,1280.3208,1280.8138,1281.0637,1283.4808,space,2.3888,,1283.4809,9,51,1284.4808,1284.4808,1284.4827,,,,0,22,22,22,1,110,50,,,,,,,,
,,60e840cfd4c065679727d760,65af56a205a6baf848047f27,2024-01-23_08h09.36.055,bars,2023.2.3,Win32,60.60606061,657b66ea316d21385b68909f,,,,,,,,,,,1284.4832,1285.4807,,,1285.9808,1286.2307,,55,55,,,,,,,,,,,,,,,,bars/044.png,bars/mask004.png,,,,,,,,,,,,2,1,,,,,,,6,4,6,6,,,,,,,,,,,1285.4808,1285.9807,1286.2307,1289.1547,space,2.9007,,1289.1548,20,80,1290.1474,1290.1476,1290.1543,,,,0,23,23,23,1,75,155,,,,,,,,
,,60e840cfd4c065679727d760,65af56a205a6baf848047f27,2024-01-23_08h09.36.055,bars,2023.2.3,Win32,60.60606061,657b66ea316d21385b68909f,,,,,,,,,,,1290.1543,1291.1469,,,1291.6468,1291.8973,,102,102,,,,,,,,,,,,,,,,bars/009.png,bars/mask006.png,,,,,,,,,,,,1,2,,,,,,,4,2,3,1,,,,,,,,,,,1291.1469,1291.6468,1291.8973,1295.6807,space,3.7504,,1295.6808,87,3,1296.6805,1296.6806,1296.688,,,,0,24,24,24,1,15,105,,,,,,,,
,,60e840cfd4c065679727d760,65af56a205a6baf848047f27,2024-01-23_08h09.36.055,bars,2023.2.3,Win32,60.60606061,657b66ea316d21385b68909f,,,,,,,,,,,1296.6881,1297.6804,,,1298.1807,1298.4306,,10,190,,,,,,,,,,,,,,,,bars/033.png,bars/mask004.png,,,,,,,,,,,,1,1,,,,,,,2,4,2,2,,,,,,,,,,,1297.6804,1298.1807,1298.4307,1302.0972,space,3.6339,,1302.0972,15,35,1303.0969,1303.0969,1303.1044,,,,0,25,25,25,1,25,155,,,,,,,,
,,60e840cfd4c065679727d760,65af56a205a6baf848047f27,2024-01-23_08h09.36.055,bars,2023.2.3,Win32,60.60606061,657b66ea316d21385b68909f,,,,,,,,,,,1303.1045,1304.0967,,,1304.5969,1304.8378,,171,171,,,,,,,,,,,,,,,,bars/046.png,bars/mask009.png,,,,,,,,,,,,2,1,,,,,,,4,6,4,6,,,,,,,,,,,1304.0967,1304.5969,1304.8378,1308.2303,space,3.3674,,1308.2303,16,86,1309.2305,1309.2307,1309.2383,,,,0,26,26,26,1,155,85,,,,,,,,
,,60e840cfd4c065679727d760,65af56a205a6baf848047f27,2024-01-23_08h09.36.055,bars,2023.2.3,Win32,60.60606061,657b66ea316d21385b68909f,,,,,,,,,,,1309.2385,1310.2305,,,1310.7307,1310.9808,,172,-8,,,,,,,,,,,,,,,,bars/007.png,bars/mask006.png,,,,,,,,,,,,1,1,,,,,,,2,4,1,1,,,,,,,,,,,1310.2305,1310.7306,1310.9809,1314.3717,space,3.3676,,1314.3717,3,63,1315.3639,1315.3639,1315.3708,,,,0,27,27,27,1,175,55,,,,,,,,
,,60e840cfd4c065679727d760,65af56a205a6baf848047f27,2024-01-23_08h09.36.055,bars,2023.2.3,Win32,60.60606061,657b66ea316d21385b68909f,,,,,,,,,,,1315.3709,1316.3638,,,1316.8639,1317.1139,,47,227,,,,,,,,,,,,,,,,bars/026.png,bars/mask002.png,,,,,,,,,,,,3,1,,,,,,,4,2,5,3,,,,,,,,,,,1316.3638,1316.8639,1317.1139,1320.2972,space,3.1549,,1320.2973,12,38,1321.2969,1321.2969,1321.3038,,,,0,28,28,28,1,35,85,,,,,,,,
,,60e840cfd4c065679727d760,65af56a205a6baf848047f27,2024-01-23_08h09.36.055,bars,2023.2.3,Win32,60.60606061,657b66ea316d21385b68909f,,,,,,,,,,,1321.3039,1322.2973,,,1322.797,1323.0471,,149,149,,,,,,,,,,,,,,,,bars/035.png,bars/mask008.png,,,,,,,,,,,,0,1,,,,,,,2,0,3,0,,,,,,,,,,,1322.2975,1322.7969,1323.0471,1325.0186,space,1.9476,,1325.0187,26,89,1326.0141,1326.0141,1326.0214,,,,0,29,29,29,1,175,60,,,,,,,,
,,60e840cfd4c065679727d760,65af56a205a6baf848047f27,2024-01-23_08h09.36.055,bars,2023.2.3,Win32,60.60606061,657b66ea316d21385b68909f,,,,,,,,,,,1326.0215,1327.0142,,,1327.5142,1327.7642,,114,114,,,,,,,,,,,,,,,,bars/001.png,bars/mask002.png,,,,,,,,,,,,1,1,,,,,,,0,0,2,0,,,,,,,,,,,1327.0142,1327.5142,1327.7642,1329.5532,space,1.7673,,1329.5532,16,29,1330.547,1330.5471,1330.5482,,,,0,30,30,30,1,130,85,,,,,,,,
,,60e840cfd4c065679727d760,65af56a205a6baf848047f27,2024-01-23_08h09.36.055,bars,2023.2.3,Win32,60.60606061,657b66ea316d21385b68909f,,,,,,,,,,,1330.5493,1331.547,,,1332.0472,1332.2972,,5,185,,,,,,,,,,,,,,,,bars/023.png,bars/mask007.png,,,,,,,,,,,,1,1,,,,,,,2,0,1,0,,,,,,,,,,,1331.547,1332.0472,1332.2972,1334.8645,space,2.5337,,1334.8646,15,70,1335.8637,1335.8637,1335.8709,,,,0,31,31,31,1,20,115,,,,,,,,
,,60e840cfd4c065679727d760,65af56a205a6baf848047f27,2024-01-23_08h09.36.055,bars,2023.2.3,Win32,60.60606061,657b66ea316d21385b68909f,,,,,,,,,,,1335.871,1336.8643,,,1337.3638,1337.6142,,10,190,,,,,,,,,,,,,,,,bars/033.png,bars/mask005.png,,,,,,,,,,,,0,1,,,,,,,0,0,0,0,,,,,,,,,,,1336.8644,1337.3638,1337.6143,1340.538,space,2.9002,,1340.5381,15,35,1341.5305,1341.5306,1341.5377,,,,0,32,32,32,1,25,155,,,,,,,,
,,60e840cfd4c065679727d760,65af56a205a6baf848047f27,2024-01-23_08h09.36.055,bars,2023.2.3,Win32,60.60606061,657b66ea316d21385b68909f,,,,,,,,,,,1341.5378,1342.5305,,,1343.0309,1343.281,,28,28,,,,,,,,,,,,,,,,bars/009.png,bars/mask001.png,,,,,,,,,,,,0,1,,,,,,,0,2,0,2,,,,,,,,,,,1342.5305,1343.0309,1343.2811,1344.5975,space,1.2916,,1344.5975,13,77,1345.5972,1345.5973,1345.5992,,,,0,33,33,33,1,15,105,,,,,,,,
,,60e840cfd4c065679727d760,65af56a205a6baf848047f27,2024-01-23_08h09.36.055,bars,2023.2.3,Win32,60.60606061,657b66ea316d21385b68909f,,,,,,,,,,,1345.6,1346.5976,,,1347.0974,1347.3472,,51,51,,,,,,,,,,,,,,,,bars/006.png,bars/mask002.png,,,,,,,,,,,,1,1,,,,,,,2,0,2,1,,,,,,,,,,,1346.5977,1347.0973,1347.3473,1349.3048,space,1.9336,,1349.3049,16,49,1350.297,1350.2971,1350.2982,,,,0,34,34,34,1,35,100,,,,,,,,
,,60e840cfd4c065679727d760,65af56a205a6baf848047f27,2024-01-23_08h09.36.055,bars,2023.2.3,Win32,60.60606061,657b66ea316d21385b68909f,,,,,,,,,,,1350.299,1351.2973,,,1351.7972,1352.0473,,101,101,,,,,,,,,,,,,,,,bars/049.png,bars/mask004.png,,,,,,,,,,,,1,2,,,,,,,0,2,0,1,,,,,,,,,,,1351.2974,1351.7971,1352.0473,1355.1305,space,3.0506,,1355.1305,59,14,1356.1305,1356.1306,1356.1382,,,,0,35,35,35,1,160,115,,,,,,,,
,,60e840cfd4c065679727d760,65af56a205a6baf848047f27,2024-01-23_08h09.36.055,bars,2023.2.3,Win32,60.60606061,657b66ea316d21385b68909f,,,,,,,,,,,1356.1384,1357.1306,,,1357.631,1357.8811,,124,124,,,,,,,,,,,,,,,,bars/049.png,bars/mask001.png,,,,,,,,,,,,0,2,,,,,,,2,0,3,0,,,,,,,,,,,1357.1307,1357.631,1357.8812,1360.7717,space,2.8672,,1360.7717,36,9,1361.7643,1361.7643,1361.7713,,,,0,36,36,36,1,160,115,,,,,,,,
,,60e840cfd4c065679727d760,65af56a205a6baf848047f27,2024-01-23_08h09.36.055,bars,2023.2.3,Win32,60.60606061,657b66ea316d21385b68909f,,,,,,,,,,,1361.7714,1362.7713,,,1363.2639,1363.5141,,142,142,,,,,,,,,,,,,,,,bars/030.png,bars/mask006.png,,,,,,,,,,,,5,1,,,,,,,4,2,5,1,,,,,,,,,,,1362.7714,1363.2639,1363.5142,1365.6313,space,2.0903,,1365.6314,2,77,1366.6309,1366.631,1366.6339,,,,0,37,37,37,1,140,65,,,,,,,,
,,60e840cfd4c065679727d760,65af56a205a6baf848047f27,2024-01-23_08h09.36.055,bars,2023.2.3,Win32,60.60606061,657b66ea316d21385b68909f,,,,,,,,,,,1366.634,1367.631,,,1368.1313,1368.381,,85,85,,,,,,,,,,,,,,,,bars/022.png,bars/mask000.png,,,,,,,,,,,,1,1,,,,,,,2,4,2,5,,,,,,,,,,,1367.631,1368.1313,1368.3811,1372.4883,space,4.0841,,1372.4883,10,65,1373.4806,1373.4806,1373.487,,,,0,38,38,38,1,95,20,,,,,,,,
,,60e840cfd4c065679727d760,65af56a205a6baf848047f27,2024-01-23_08h09.36.055,bars,2023.2.3,Win32,60.60606061,657b66ea316d21385b68909f,,,,,,,,,,,1373.4872,1374.4807,,,1374.9808,1375.2306,,6,186,,,,,,,,,,,,,,,,bars/023.png,bars/mask006.png,,,,,,,,,,,,2,1,,,,,,,4,6,3,6,,,,,,,,,,,1374.4808,1374.9807,1375.2307,1378.704,space,3.4533,,1378.7041,14,71,1379.6973,1379.6973,1379.704,,,,0,39,39,39,1,20,115,,,,,,,,
,,60e840cfd4c065679727d760,65af56a205a6baf848047f27,2024-01-23_08h09.36.055,bars,2023.2.3,Win32,60.60606061,657b66ea316d21385b68909f,,,,,,,,,,,1379.7041,1380.6973,,,1381.1974,1381.4474,,39,219,,,,,,,,,,,,,,,,bars/047.png,bars/mask002.png,,,,,,,,,,,,0,1,,,,,,,2,4,1,3,,,,,,,,,,,1380.6974,1381.1974,1381.4474,1388.3882,space,6.9169,,1388.3882,24,31,1389.3811,1389.3812,1389.3888,,,,0,40,40,40,1,15,70,,,,,,,,
,,60e840cfd4c065679727d760,65af56a205a6baf848047f27,2024-01-23_08h09.36.055,bars,2023.2.3,Win32,60.60606061,657b66ea316d21385b68909f,,,,,,,,,,,1389.3889,1390.3808,,,1390.8879,1391.1312,,8,188,,,,,,,,,,,,,,,,bars/007.png,bars/mask008.png,,,,,,,,,,,,2,1,,,,,,,4,2,3,2,,,,,,,,,,,1390.3809,1390.8879,1391.1313,1393.5884,space,2.434,,1393.5884,13,47,1394.5806,1394.5807,1394.5878,,,,0,41,41,41,1,175,55,,,,,,,,
,,60e840cfd4c065679727d760,65af56a205a6baf848047f27,2024-01-23_08h09.36.055,bars,2023.2.3,Win32,60.60606061,657b66ea316d21385b68909f,,,,,,,,,,,1394.5879,1395.581,,,1396.0808,1396.3216,,71,71,,,,,,,,,,,,,,,,bars/029.png,bars/mask009.png,,,,,,,,,,,,3,1,,,,,,,6,0,7,1,,,,,,,,,,,1395.5811,1396.0808,1396.3216,1397.8812,space,1.534,,1397.8813,19,26,1398.8807,1398.8808,1398.8818,,,,0,42,42,42,1,90,45,,,,,,,,
,,60e840cfd4c065679727d760,65af56a205a6baf848047f27,2024-01-23_08h09.36.055,bars,2023.2.3,Win32,60.60606061,657b66ea316d21385b68909f,,,,,,,,,,,1398.8823,1399.8809,,,1400.381,1400.6308,,80,80,,,,,,,,,,,,,,,,bars/012.png,bars/mask003.png,,,,,,,,,,,,4,1,,,,,,,4,0,6,0,,,,,,,,,,,1399.881,1400.3809,1400.6308,1403.272,space,2.6212,,1403.272,10,65,1404.264,1404.264,1404.2713,,,,0,43,43,43,1,90,15,,,,,,,,
,,60e840cfd4c065679727d760,65af56a205a6baf848047f27,2024-01-23_08h09.36.055,bars,2023.2.3,Win32,60.60606061,657b66ea316d21385b68909f,,,,,,,,,,,1404.2713,1405.2642,,,1405.7645,1406.0143,,141,-39,,,,,,,,,,,,,,,,bars/018.png,bars/mask003.png,,,,,,,,,,,,1,1,,,,,,,2,0,2,0,,,,,,,,,,,1405.2642,1405.7644,1406.0143,1408.9883,space,2.9503,,1408.9883,9,51,1409.9806,1409.9807,1409.9881,,,,0,44,44,44,1,150,90,,,,,,,,
,,60e840cfd4c065679727d760,65af56a205a6baf848047f27,2024-01-23_08h09.36.055,bars,2023.2.3,Win32,60.60606061,657b66ea316d21385b68909f,,,,,,,,,,,1409.9881,1410.9807,,,1411.481,1411.731,,50,230,,,,,,,,,,,,,,,,bars/013.png,bars/mask001.png,,,,,,,,,,,,0,1,,,,,,,0,0,0,2,,,,,,,,,,,1410.9807,1411.481,1411.7311,1414.9206,space,3.1666,,1414.9207,25,40,1415.9142,1415.9144,1415.9215,,,,0,45,45,45,1,75,10,,,,,,,,
,,60e840cfd4c065679727d760,65af56a205a6baf848047f27,2024-01-23_08h09.36.055,bars,2023.2.3,Win32,60.60606061,657b66ea316d21385b68909f,,,,,,,,,,,1415.9216,1416.9142,,,1417.4214,1417.6642,,47,227,,,,,,,,,,,,,,,,bars/047.png,bars/mask008.png,,,,,,,,,,,,0,2,,,,,,,2,2,2,1,,,,,,,,,,,1416.9143,1417.4214,1417.6643,1425.9548,space,8.267,,1425.9549,32,23,1426.9473,1426.9473,1426.9554,,,,0,46,46,46,1,15,70,,,,,,,,
,,60e840cfd4c065679727d760,65af56a205a6baf848047f27,2024-01-23_08h09.36.055,bars,2023.2.3,Win32,60.60606061,657b66ea316d21385b68909f,,,,,,,,,,,1426.9555,1427.9475,,,1428.4472,1428.6975,,103,103,,,,,,,,,,,,,,,,bars/031.png,bars/mask005.png,,,,,,,,,,,,2,1,,,,,,,4,0,5,1,,,,,,,,,,,1427.9475,1428.4472,1428.6976,1431.2643,space,2.5385,,1431.2644,17,68,1432.2644,1432.2644,1432.2716,,,,0,47,47,47,1,120,35,,,,,,,,
,,60e840cfd4c065679727d760,65af56a205a6baf848047f27,2024-01-23_08h09.36.055,bars,2023.2.3,Win32,60.60606061,657b66ea316d21385b68909f,,,,,,,,,,,1432.2716,1433.2641,,,1433.7646,1434.0144,,84,84,,,,,,,,,,,,,,,,bars/022.png,bars/mask006.png,,,,,,,,,,,,4,1,,,,,,,6,2,7,3,,,,,,,,,,,1433.2641,1433.7645,1434.0145,1435.7557,space,1.7178,,1435.7557,11,64,1436.7473,1436.7473,1436.7483,,,,0,48,48,48,1,95,20,,,,,,,,
,,60e840cfd4c065679727d760,65af56a205a6baf848047f27,2024-01-23_08h09.36.055,bars,2023.2.3,Win32,60.60606061,657b66ea316d21385b68909f,,,,,,,,,,,1436.7492,1437.7472,,,1438.2477,1438.4976,,62,62,,,,,,,,,,,,,,,,bars/025.png,bars/mask003.png,,,,,,,,,,,,1,2,,,,,,,4,4,3,4,,,,,,,,,,,1437.7472,1438.2476,1438.4976,1440.0386,space,1.517,,1440.0386,43,22,1441.0309,1441.0309,1441.0387,,,,0,49,49,49,1,105,40,,,,,,,,
,,60e840cfd4c065679727d760,65af56a205a6baf848047f27,2024-01-23_08h09.36.055,bars,2023.2.3,Win32,60.60606061,657b66ea316d21385b68909f,,,,,,,,,,,,,,,,,,,,,,,,,,,,,,,,,,,,,,,,,,,,,,,,,,,,,,,,,,,,,,,,,,,,,,,,,,,,,,,,,,,,,,,,,,,,,1441.0388,1501.0384,0,2,2,0,1,sequence_tables/blk023.csv
,,60e840cfd4c065679727d760,65af56a205a6baf848047f27,2024-01-23_08h09.36.055,bars,2023.2.3,Win32,60.60606061,657b66ea316d21385b68909f,,,,,,,,,,,2260.6491,2261.6418,,,2262.1387,2262.3771,,42,42,,,,,,,,,,,,,,,,bars/048.png,bars/mask003.png,,,,,,,,,,,,7,1,,,,,,,8,7,10,8,,,,,,1501.0439,2260.6383,space,759.5804,,2261.6419,2262.1386,2262.3772,2263.2416,space,0.8462,,2263.2416,8,47,2264.2384,2264.2385,2264.2417,,,,0,0,0,0,1,50,175,,,,,,,,
,,60e840cfd4c065679727d760,65af56a205a6baf848047f27,2024-01-23_08h09.36.055,bars,2023.2.3,Win32,60.60606061,657b66ea316d21385b68909f,,,,,,,,,,,2264.242,2265.2384,,,2265.7388,2265.9791,,148,148,,,,,,,,,,,,,,,,bars/038.png,bars/mask006.png,,,,,,,,,,,,3,1,,,,,,,6,5,6,4,,,,,,,,,,,2265.2385,2265.7388,2265.9791,2268.9792,space,2.9836,,2268.9792,17,78,2269.9717,2269.9718,2269.9808,,,,0,1,1,1,1,165,70,,,,,,,,
,,60e840cfd4c065679727d760,65af56a205a6baf848047f27,2024-01-23_08h09.36.055,bars,2023.2.3,Win32,60.60606061,657b66ea316d21385b68909f,,,,,,,,,,,2269.9811,2270.9718,,,2271.4719,2271.7124,,42,222,,,,,,,,,,,,,,,,bars/000.png,bars/mask008.png,,,,,,,,,,,,7,1,,,,,,,8,7,8,9,,,,,,,,,,,2270.9719,2271.4718,2271.7124,2274.5295,space,2.8007,,2274.5296,2,77,2275.522,2275.5221,2275.5286,,,,0,2,2,2,1,40,145,,,,,,,,
,,60e840cfd4c065679727d760,65af56a205a6baf848047f27,2024-01-23_08h09.36.055,bars,2023.2.3,Win32,60.60606061,657b66ea316d21385b68909f,,,,,,,,,,,2275.5287,2276.5251,,,2277.0249,2277.2716,,45,45,,,,,,,,,,,,,,,,bars/004.png,bars/mask005.png,,,,,,,,,,,,3,1,,,,,,,10,5,9,4,,,,,,,,,,,2276.5251,2277.0249,2277.2717,2279.2796,space,1.9839,,2279.2796,20,80,2280.2716,2280.2716,2280.273,,,,0,3,3,3,1,25,125,,,,,,,,
,,60e840cfd4c065679727d760,65af56a205a6baf848047f27,2024-01-23_08h09.36.055,bars,2023.2.3,Win32,60.60606061,657b66ea316d21385b68909f,,,,,,,,,,,2280.2738,2281.2789,,,2281.7714,2282.0219,,129,129,,,,,,,,,,,,,,,,bars/020.png,bars/mask008.png,,,,,,,,,,,,5,1,,,,,,,10,7,10,8,,,,,,,,,,,2281.2789,2281.7714,2282.022,2284.363,space,2.3184,,2284.363,14,41,2285.3606,2285.3607,2285.3661,,,,0,4,4,4,1,115,170,,,,,,,,
,,60e840cfd4c065679727d760,65af56a205a6baf848047f27,2024-01-23_08h09.36.055,bars,2023.2.3,Win32,60.60606061,657b66ea316d21385b68909f,,,,,,,,,,,2285.3662,2286.3613,,,2286.855,2287.105,,44,44,,,,,,,,,,,,,,,,bars/016.png,bars/mask005.png,,,,,,,,,,,,9,1,,,,,,,10,5,10,6,,,,,,,,,,,2286.3614,2286.8549,2287.1051,2288.8627,space,1.7337,,2288.8627,4,59,2289.855,2289.855,2289.8564,,,,0,5,5,5,1,40,165,,,,,,,,
,,60e840cfd4c065679727d760,65af56a205a6baf848047f27,2024-01-23_08h09.36.055,bars,2023.2.3,Win32,60.60606061,657b66ea316d21385b68909f,,,,,,,,,,,2289.8571,2290.8583,,,2291.3584,2291.6123,,43,43,,,,,,,,,,,,,,,,bars/003.png,bars/mask002.png,,,,,,,,,,,,4,1,,,,,,,10,7,10,7,,,,,,,,,,,2290.8584,2291.3584,2291.6123,2295.2958,space,3.6669,,2295.2959,18,83,2296.2913,2296.2913,2296.2968,,,,0,6,6,6,1,25,140,,,,,,,,
,,60e840cfd4c065679727d760,65af56a205a6baf848047f27,2024-01-23_08h09.36.055,bars,2023.2.3,Win32,60.60606061,657b66ea316d21385b68909f,,,,,,,,,,,2296.2969,2297.2884,,,2297.7883,2298.0382,,153,153,,,,,,,,,,,,,,,,bars/011.png,bars/mask005.png,,,,,,,,,,,,7,1,,,,,,,10,5,9,7,,,,,,,,,,,2297.2884,2297.7882,2298.0382,2299.5217,space,1.4675,,2299.5218,7,68,2300.5217,2300.5218,2300.5243,,,,0,7,7,7,1,160,85,,,,,,,,
,,60e840cfd4c065679727d760,65af56a205a6baf848047f27,2024-01-23_08h09.36.055,bars,2023.2.3,Win32,60.60606061,657b66ea316d21385b68909f,,,,,,,,,,,2300.5245,2301.5215,,,2302.0218,2302.2715,,32,212,,,,,,,,,,,,,,,,bars/023.png,bars/mask009.png,,,,,,,,,,,,5,1,,,,,,,8,3,9,3,,,,,,,,,,,2301.5217,2302.0217,2302.2717,2304.655,space,2.3558,,2304.6551,12,83,2305.6548,2305.6551,2305.6634,,,,0,8,8,8,1,20,115,,,,,,,,
,,60e840cfd4c065679727d760,65af56a205a6baf848047f27,2024-01-23_08h09.36.055,bars,2023.2.3,Win32,60.60606061,657b66ea316d21385b68909f,,,,,,,,,,,2305.6637,2306.6549,,,2307.1602,2307.405,,96,96,,,,,,,,,,,,,,,,bars/022.png,bars/mask000.png,,,,,,,,,,,,7,1,,,,,,,6,1,7,0,,,,,,,,,,,2306.655,2307.1602,2307.4052,2310.3794,space,2.951,,2310.3795,1,76,2311.3714,2311.3715,2311.3798,,,,0,9,9,9,1,95,20,,,,,,,,
,,60e840cfd4c065679727d760,65af56a205a6baf848047f27,2024-01-23_08h09.36.055,bars,2023.2.3,Win32,60.60606061,657b66ea316d21385b68909f,,,,,,,,,,,2311.3801,2312.3717,,,2312.8718,2313.1215,,45,45,,,,,,,,,,,,,,,,bars/006.png,bars/mask002.png,,,,,,,,,,,,3,1,,,,,,,4,3,5,4,,,,,,,,,,,2312.3717,2312.8717,2313.1216,2314.4275,space,1.2823,,2314.4275,10,55,2315.4214,2315.4217,2315.4305,,,,0,10,10,10,1,35,100,,,,,,,,
,,60e840cfd4c065679727d760,65af56a205a6baf848047f27,2024-01-23_08h09.36.055,bars,2023.2.3,Win32,60.60606061,657b66ea316d21385b68909f,,,,,,,,,,,2315.4306,2316.4217,,,2316.9217,2317.1718,,117,117,,,,,,,,,,,,,,,,bars/031.png,bars/mask001.png,,,,,,,,,,,,5,1,,,,,,,6,1,5,0,,,,,,,,,,,2316.4218,2316.9216,2317.1719,2319.4788,space,2.2836,,2319.4789,3,82,2320.4735,2320.4736,2320.4806,,,,0,11,11,11,1,120,35,,,,,,,,
,,60e840cfd4c065679727d760,65af56a205a6baf848047f27,2024-01-23_08h09.36.055,bars,2023.2.3,Win32,60.60606061,657b66ea316d21385b68909f,,,,,,,,,,,2320.4807,2321.4771,,,2321.972,2322.2218,,55,55,,,,,,,,,,,,,,,,bars/006.png,bars/mask000.png,,,,,,,,,,,,3,1,,,,,,,8,0,9,1,,,,,,,,,,,2321.4771,2321.9719,2322.2218,2324.6959,space,2.4505,,2324.6962,20,45,2325.6882,2325.6884,2325.6963,,,,0,12,12,12,1,35,100,,,,,,,,
,,60e840cfd4c065679727d760,65af56a205a6baf848047f27,2024-01-23_08h09.36.055,bars,2023.2.3,Win32,60.60606061,657b66ea316d21385b68909f,,,,,,,,,,,2325.6964,2326.6884,,,2327.1884,2327.4382,,116,116,,,,,,,,,,,,,,,,bars/002.png,bars/mask002.png,,,,,,,,,,,,4,1,,,,,,,10,0,8,0,,,,,,,,,,,2326.6885,2327.1882,2327.4383,2331.2791,space,3.8174,,2331.2792,14,31,2332.2714,2332.2715,2332.2789,,,,0,13,13,13,1,130,85,,,,,,,,
,,60e840cfd4c065679727d760,65af56a205a6baf848047f27,2024-01-23_08h09.36.055,bars,2023.2.3,Win32,60.60606061,657b66ea316d21385b68909f,,,,,,,,,,,2332.279,2333.2717,,,2333.7605,2334.0051,,60,60,,,,,,,,,,,,,,,,bars/006.png,bars/mask000.png,,,,,,,,,,,,1,1,,,,,,,8,0,9,0,,,,,,,,,,,2333.2718,2333.7605,2334.0051,2335.9775,space,1.9488,,2335.9775,25,40,2336.9716,2336.9718,2336.9741,,,,0,14,14,14,1,35,100,,,,,,,,
,,60e840cfd4c065679727d760,65af56a205a6baf848047f27,2024-01-23_08h09.36.055,bars,2023.2.3,Win32,60.60606061,657b66ea316d21385b68909f,,,,,,,,,,,2336.9744,2337.9716,,,2338.4719,2338.7216,,129,129,,,,,,,,,,,,,,,,bars/032.png,bars/mask006.png,,,,,,,,,,,,4,1,,,,,,,6,0,5,1,,,,,,,,,,,2337.9718,2338.4719,2338.7217,2342.5794,space,3.8358,,2342.5794,4,71,2343.5717,2343.5718,2343.5798,,,,0,15,15,15,1,125,20,,,,,,,,
,,60e840cfd4c065679727d760,65af56a205a6baf848047f27,2024-01-23_08h09.36.055,bars,2023.2.3,Win32,60.60606061,657b66ea316d21385b68909f,,,,,,,,,,,2343.5799,2344.5718,,,2345.0718,2345.3218,,48,48,,,,,,,,,,,,,,,,bars/026.png,bars/mask005.png,,,,,,,,,,,,2,1,,,,,,,4,2,3,2,,,,,,,,,,,2344.5718,2345.0717,2345.3219,2346.0792,space,0.7338,,2346.0792,13,37,2347.0716,2347.0716,2347.0745,,,,0,16,16,16,1,35,85,,,,,,,,
,,60e840cfd4c065679727d760,65af56a205a6baf848047f27,2024-01-23_08h09.36.055,bars,2023.2.3,Win32,60.60606061,657b66ea316d21385b68909f,,,,,,,,,,,2347.0747,2348.0717,,,2348.5605,2348.8051,,153,153,,,,,,,,,,,,,,,,bars/037.png,bars/mask005.png,,,,,,,,,,,,4,1,,,,,,,2,0,4,1,,,,,,,,,,,2348.0717,2348.5605,2348.8051,2351.3795,space,2.5507,,2351.3795,3,48,2352.3718,2352.3719,2352.3804,,,,0,17,17,17,1,150,105,,,,,,,,
,,60e840cfd4c065679727d760,65af56a205a6baf848047f27,2024-01-23_08h09.36.055,bars,2023.2.3,Win32,60.60606061,657b66ea316d21385b68909f,,,,,,,,,,,2352.3806,2353.3748,,,2353.8719,2354.111,,44,44,,,,,,,,,,,,,,,,bars/004.png,bars/mask004.png,,,,,,,,,,,,0,1,,,,,,,0,0,1,1,,,,,,,,,,,2353.3748,2353.8718,2354.111,2356.9625,space,2.834,,2356.9625,19,81,2357.955,2357.9552,2357.9634,,,,0,18,18,18,1,25,125,,,,,,,,
,,60e840cfd4c065679727d760,65af56a205a6baf848047f27,2024-01-23_08h09.36.055,bars,2023.2.3,Win32,60.60606061,657b66ea316d21385b68909f,,,,,,,,,,,2357.9635,2358.9552,,,2359.4552,2359.7105,,140,140,,,,,,,,,,,,,,,,bars/017.png,bars/mask008.png,,,,,,,,,,,,3,1,,,,,,,2,0,3,0,,,,,,,,,,,2358.9553,2359.4552,2359.7105,2362.3792,space,2.6504,,2362.3792,5,85,2363.372,2363.3721,2363.3745,,,,0,19,19,19,1,145,45,,,,,,,,
,,60e840cfd4c065679727d760,65af56a205a6baf848047f27,2024-01-23_08h09.36.055,bars,2023.2.3,Win32,60.60606061,657b66ea316d21385b68909f,,,,,,,,,,,2363.3747,2364.3717,,,2364.8719,2365.1106,,38,38,,,,,,,,,,,,,,,,bars/000.png,bars/mask003.png,,,,,,,,,,,,2,1,,,,,,,4,2,2,1,,,,,,,,,,,2364.3717,2364.8718,2365.1106,2366.7458,space,1.6171,,2366.7459,2,73,2367.7387,2367.7388,2367.746,,,,0,20,20,20,1,40,145,,,,,,,,
,,60e840cfd4c065679727d760,65af56a205a6baf848047f27,2024-01-23_08h09.36.055,bars,2023.2.3,Win32,60.60606061,657b66ea316d21385b68909f,,,,,,,,,,,2367.7462,2368.7384,,,2369.2385,2369.4958,,159,159,,,,,,,,,,,,,,,,bars/049.png,bars/mask004.png,,,,,,,,,,,,4,1,,,,,,,2,4,4,4,,,,,,,,,,,2368.7385,2369.2384,2369.4958,2371.0126,space,1.5004,,2371.0126,1,44,2372.0049,2372.0051,2372.0131,,,,0,21,21,21,1,160,115,,,,,,,,
,,60e840cfd4c065679727d760,65af56a205a6baf848047f27,2024-01-23_08h09.36.055,bars,2023.2.3,Win32,60.60606061,657b66ea316d21385b68909f,,,,,,,,,,,2372.0132,2373.0104,,,2373.5055,2373.7551,,119,119,,,,,,,,,,,,,,,,bars/008.png,bars/mask008.png,,,,,,,,,,,,0,1,,,,,,,0,2,0,2,,,,,,,,,,,2373.0104,2373.5054,2373.7552,2375.4793,space,1.7017,,2375.4793,9,61,2376.4717,2376.4718,2376.4792,,,,0,22,22,22,1,110,0,,,,,,,,
,,60e840cfd4c065679727d760,65af56a205a6baf848047f27,2024-01-23_08h09.36.055,bars,2023.2.3,Win32,60.60606061,657b66ea316d21385b68909f,,,,,,,,,,,2376.4794,2377.4719,,,2377.9792,2378.2218,,118,118,,,,,,,,,,,,,,,,bars/045.png,bars/mask009.png,,,,,,,,,,,,1,1,,,,,,,2,0,3,0,,,,,,,,,,,2377.4719,2377.9792,2378.2219,2381.5628,space,3.3173,,2381.5628,18,72,2382.5551,2382.5553,2382.5628,,,,0,23,23,23,1,100,10,,,,,,,,
,,60e840cfd4c065679727d760,65af56a205a6baf848047f27,2024-01-23_08h09.36.055,bars,2023.2.3,Win32,60.60606061,657b66ea316d21385b68909f,,,,,,,,,,,2382.563,2383.5551,,,2384.0553,2384.3052,,105,105,,,,,,,,,,,,,,,,bars/028.png,bars/mask007.png,,,,,,,,,,,,2,2,,,,,,,0,2,0,3,,,,,,,,,,,2383.5553,2384.0552,2384.3053,2386.4626,space,2.1339,,2386.4626,60,15,2387.4551,2387.4551,2387.4586,,,,0,24,24,24,1,45,120,,,,,,,,
,,60e840cfd4c065679727d760,65af56a205a6baf848047f27,2024-01-23_08h09.36.055,bars,2023.2.3,Win32,60.60606061,657b66ea316d21385b68909f,,,,,,,,,,,2387.4587,2388.455,,,2388.9553,2389.2051,,146,146,,,,,,,,,,,,,,,,bars/034.png,bars/mask008.png,,,,,,,,,,,,0,1,,,,,,,0,4,0,4,,,,,,,,,,,2388.4551,2388.9552,2389.2052,2391.1792,space,1.9503,,2391.1792,21,81,2392.1718,2392.1719,2392.1807,,,,0,25,25,25,1,125,65,,,,,,,,
,,60e840cfd4c065679727d760,65af56a205a6baf848047f27,2024-01-23_08h09.36.055,bars,2023.2.3,Win32,60.60606061,657b66ea316d21385b68909f,,,,,,,,,,,2392.1809,2393.1751,,,2393.6719,2393.9217,,68,68,,,,,,,,,,,,,,,,bars/027.png,bars/mask002.png,,,,,,,,,,,,0,2,,,,,,,2,2,4,1,,,,,,,,,,,2393.1751,2393.6718,2393.9218,2396.3127,space,2.3673,,2396.3128,42,18,2397.3051,2397.3052,2397.3086,,,,0,26,26,26,1,110,50,,,,,,,,
,,60e840cfd4c065679727d760,65af56a205a6baf848047f27,2024-01-23_08h09.36.055,bars,2023.2.3,Win32,60.60606061,657b66ea316d21385b68909f,,,,,,,,,,,2397.3088,2398.3053,,,2398.8056,2399.0551,,174,-6,,,,,,,,,,,,,,,,bars/032.png,bars/mask008.png,,,,,,,,,,,,1,2,,,,,,,0,4,0,4,,,,,,,,,,,2398.3053,2398.8054,2399.0552,2401.0462,space,1.9674,,2401.0462,49,26,2402.0383,2402.0387,2402.0465,,,,0,27,27,27,1,125,20,,,,,,,,
,,60e840cfd4c065679727d760,65af56a205a6baf848047f27,2024-01-23_08h09.36.055,bars,2023.2.3,Win32,60.60606061,657b66ea316d21385b68909f,,,,,,,,,,,2402.0467,2403.0386,,,2403.5388,2403.7792,,129,129,,,,,,,,,,,,,,,,bars/034.png,bars/mask001.png,,,,,,,,,,,,0,1,,,,,,,0,6,0,4,,,,,,,,,,,2403.0387,2403.5387,2403.7792,2404.822,space,1.0187,,2404.8221,4,64,2405.8218,2405.8219,2405.8306,,,,0,28,28,28,1,125,65,,,,,,,,
,,60e840cfd4c065679727d760,65af56a205a6baf848047f27,2024-01-23_08h09.36.055,bars,2023.2.3,Win32,60.60606061,657b66ea316d21385b68909f,,,,,,,,,,,2405.8307,2406.8217,,,2407.322,2407.5718,,15,195,,,,,,,,,,,,,,,,bars/032.png,bars/mask001.png,,,,,,,,,,,,7,2,,,,,,,2,8,2,8,,,,,,,,,,,2406.8217,2407.322,2407.5719,2410.4625,space,2.867,,2410.4625,70,5,2411.4551,2411.4552,2411.464,,,,0,29,29,29,1,125,20,,,,,,,,
,,60e840cfd4c065679727d760,65af56a205a6baf848047f27,2024-01-23_08h09.36.055,bars,2023.2.3,Win32,60.60606061,657b66ea316d21385b68909f,,,,,,,,,,,2411.4641,2412.4552,,,2412.9554,2413.2106,,95,95,,,,,,,,,,,,,,,,bars/011.png,bars/mask004.png,,,,,,,,,,,,6,2,,,,,,,4,10,5,9,,,,,,,,,,,2412.4554,2412.9554,2413.2106,2415.1221,space,1.886,,2415.1221,65,10,2416.1218,2416.1219,2416.1294,,,,0,30,30,30,1,160,85,,,,,,,,
,,60e840cfd4c065679727d760,65af56a205a6baf848047f27,2024-01-23_08h09.36.055,bars,2023.2.3,Win32,60.60606061,657b66ea316d21385b68909f,,,,,,,,,,,2416.1295,2417.1218,,,2417.6219,2417.872,,66,66,,,,,,,,,,,,,,,,bars/038.png,bars/mask000.png,,,,,,,,,,,,9,2,,,,,,,2,10,3,10,,,,,,,,,,,2417.1219,2417.6219,2417.8721,2420.2794,space,2.3838,,2420.2794,81,4,2421.2772,2421.2772,2421.2836,,,,0,31,31,31,1,165,70,,,,,,,,
,,60e840cfd4c065679727d760,65af56a205a6baf848047f27,2024-01-23_08h09.36.055,bars,2023.2.3,Win32,60.60606061,657b66ea316d21385b68909f,,,,,,,,,,,2421.2837,2422.2718,,,2422.772,2423.0219,,160,160,,,,,,,,,,,,,,,,bars/020.png,bars/mask000.png,,,,,,,,,,,,5,2,,,,,,,4,8,4,7,,,,,,,,,,,2422.2719,2422.7718,2423.022,2425.1087,space,2.0633,,2425.1087,45,10,2426.1106,2426.1107,2426.1176,,,,0,32,32,32,1,115,170,,,,,,,,
,,60e840cfd4c065679727d760,65af56a205a6baf848047f27,2024-01-23_08h09.36.055,bars,2023.2.3,Win32,60.60606061,657b66ea316d21385b68909f,,,,,,,,,,,2426.1177,2427.1219,,,2427.622,2427.8718,,92,92,,,,,,,,,,,,,,,,bars/019.png,bars/mask005.png,,,,,,,,,,,,3,2,,,,,,,2,6,2,6,,,,,,,,,,,2427.1221,2427.6219,2427.872,2431.022,space,3.1178,,2431.0221,47,13,2432.022,2432.022,2432.0298,,,,0,33,33,33,1,45,105,,,,,,,,
,,60e840cfd4c065679727d760,65af56a205a6baf848047f27,2024-01-23_08h09.36.055,bars,2023.2.3,Win32,60.60606061,657b66ea316d21385b68909f,,,,,,,,,,,2432.0299,2433.0217,,,2433.5222,2433.7721,,104,104,,,,,,,,,,,,,,,,bars/037.png,bars/mask005.png,,,,,,,,,,,,1,2,,,,,,,0,4,0,1,,,,,,,,,,,2433.0219,2433.5222,2433.7722,2436.1255,space,2.3299,,2436.1256,46,1,2437.1272,2437.1273,2437.1334,,,,0,34,34,34,1,150,105,,,,,,,,
,,60e840cfd4c065679727d760,65af56a205a6baf848047f27,2024-01-23_08h09.36.055,bars,2023.2.3,Win32,60.60606061,657b66ea316d21385b68909f,,,,,,,,,,,2437.1337,2438.122,,,2438.6221,2438.8751,,127,127,,,,,,,,,,,,,,,,bars/028.png,bars/mask004.png,,,,,,,,,,,,2,2,,,,,,,2,2,2,2,,,,,,,,,,,2438.1221,2438.6219,2438.8751,2444.6222,space,5.7177,,2444.6223,82,7,2445.622,2445.6222,2445.631,,,,0,35,35,35,1,45,120,,,,,,,,
,,60e840cfd4c065679727d760,65af56a205a6baf848047f27,2024-01-23_08h09.36.055,bars,2023.2.3,Win32,60.60606061,657b66ea316d21385b68909f,,,,,,,,,,,2445.6312,2446.6222,,,2447.1252,2447.3719,,62,62,,,,,,,,,,,,,,,,bars/046.png,bars/mask002.png,,,,,,,,,,,,0,2,,,,,,,0,0,0,1,,,,,,,,,,,2446.6222,2447.1252,2447.3721,2449.4754,space,2.0799,,2449.4754,87,23,2450.4719,2450.4719,2450.4796,,,,0,36,36,36,1,155,85,,,,,,,,
,,60e840cfd4c065679727d760,65af56a205a6baf848047f27,2024-01-23_08h09.36.055,bars,2023.2.3,Win32,60.60606061,657b66ea316d21385b68909f,,,,,,,,,,,2450.4798,2451.472,,,2451.9722,2452.2251,,47,47,,,,,,,,,,,,,,,,bars/035.png,bars/mask006.png,,,,,,,,,,,,1,2,,,,,,,2,2,2,1,,,,,,,,,,,2451.4722,2451.9721,2452.2252,2455.3629,space,3.1174,,2455.3629,52,13,2456.3613,2456.3613,2456.3671,,,,0,37,37,37,1,175,60,,,,,,,,
,,60e840cfd4c065679727d760,65af56a205a6baf848047f27,2024-01-23_08h09.36.055,bars,2023.2.3,Win32,60.60606061,657b66ea316d21385b68909f,,,,,,,,,,,2456.3673,2457.3552,,,2457.8556,2458.1087,,149,149,,,,,,,,,,,,,,,,bars/036.png,bars/mask000.png,,,,,,,,,,,,3,1,,,,,,,4,0,3,0,,,,,,,,,,,2457.3554,2457.8554,2458.1087,2459.3295,space,1.2003,,2459.3295,4,51,2460.3219,2460.3222,2460.3302,,,,0,38,38,38,1,145,20,,,,,,,,
,,60e840cfd4c065679727d760,65af56a205a6baf848047f27,2024-01-23_08h09.36.055,bars,2023.2.3,Win32,60.60606061,657b66ea316d21385b68909f,,,,,,,,,,,2460.3303,2461.3223,,,2461.8132,2462.0627,,101,101,,,,,,,,,,,,,,,,bars/031.png,bars/mask008.png,,,,,,,,,,,,1,1,,,,,,,2,2,3,1,,,,,,,,,,,2461.3223,2461.8131,2462.0628,2463.3634,space,1.2952,,2463.3634,19,66,2464.3555,2464.3557,2464.3628,,,,0,39,39,39,1,120,35,,,,,,,,
,,60e840cfd4c065679727d760,65af56a205a6baf848047f27,2024-01-23_08h09.36.055,bars,2023.2.3,Win32,60.60606061,657b66ea316d21385b68909f,,,,,,,,,,,2464.3628,2465.3557,,,2465.8558,2466.1132,,54,54,,,,,,,,,,,,,,,,bars/006.png,bars/mask007.png,,,,,,,,,,,,0,1,,,,,,,0,0,0,0,,,,,,,,,,,2465.3558,2465.8557,2466.1132,2467.539,space,1.4021,,2467.539,19,46,2468.5387,2468.5388,2468.5462,,,,0,40,40,40,1,35,100,,,,,,,,
,,60e840cfd4c065679727d760,65af56a205a6baf848047f27,2024-01-23_08h09.36.055,bars,2023.2.3,Win32,60.60606061,657b66ea316d21385b68909f,,,,,,,,,,,2468.5463,2469.5389,,,2470.0391,2470.2889,,132,132,,,,,,,,,,,,,,,,bars/008.png,bars/mask000.png,,,,,,,,,,,,1,1,,,,,,,2,0,2,0,,,,,,,,,,,2469.539,2470.0389,2470.2889,2472.0466,space,1.7338,,2472.0467,22,48,2473.039,2473.0393,2473.0413,,,,0,41,41,41,1,110,0,,,,,,,,
,,60e840cfd4c065679727d760,65af56a205a6baf848047f27,2024-01-23_08h09.36.055,bars,2023.2.3,Win32,60.60606061,657b66ea316d21385b68909f,,,,,,,,,,,2473.0418,2474.0388,,,2474.5451,2474.7961,,12,12,,,,,,,,,,,,,,,,bars/005.png,bars/mask003.png,,,,,,,,,,,,1,1,,,,,,,0,2,1,0,,,,,,,,,,,2474.0389,2474.5451,2474.7962,2478.8468,space,4.0341,,2478.8468,2,52,2479.8392,2479.8393,2479.8465,,,,0,42,42,42,1,10,140,,,,,,,,
,,60e840cfd4c065679727d760,65af56a205a6baf848047f27,2024-01-23_08h09.36.055,bars,2023.2.3,Win32,60.60606061,657b66ea316d21385b68909f,,,,,,,,,,,2479.8467,2480.8389,,,2481.3461,2481.5889,,130,130,,,,,,,,,,,,,,,,bars/018.png,bars/mask008.png,,,,,,,,,,,,0,1,,,,,,,0,0,0,0,,,,,,,,,,,2480.8389,2481.3461,2481.589,2483.88,space,2.267,,2483.88,20,40,2484.8724,2484.8725,2484.8794,,,,0,43,43,43,1,150,90,,,,,,,,
,,60e840cfd4c065679727d760,65af56a205a6baf848047f27,2024-01-23_08h09.36.055,bars,2023.2.3,Win32,60.60606061,657b66ea316d21385b68909f,,,,,,,,,,,2484.8795,2485.8756,,,2486.3758,2486.6225,,23,23,,,,,,,,,,,,,,,,bars/026.png,bars/mask006.png,,,,,,,,,,,,0,1,,,,,,,2,0,0,1,,,,,,,,,,,2485.8756,2486.3758,2486.6225,2487.8299,space,1.1837,,2487.8299,12,62,2488.8223,2488.8225,2488.8247,,,,0,44,44,44,1,35,85,,,,,,,,
,,60e840cfd4c065679727d760,65af56a205a6baf848047f27,2024-01-23_08h09.36.055,bars,2023.2.3,Win32,60.60606061,657b66ea316d21385b68909f,,,,,,,,,,,2488.8251,2489.8226,,,2490.3227,2490.5723,,90,90,,,,,,,,,,,,,,,,bars/025.png,bars/mask003.png,,,,,,,,,,,,1,1,,,,,,,0,2,1,2,,,,,,,,,,,2489.8226,2490.3226,2490.5725,2492.8799,space,2.2837,,2492.8799,15,50,2493.8723,2493.8724,2493.8749,,,,0,45,45,45,1,105,40,,,,,,,,
,,60e840cfd4c065679727d760,65af56a205a6baf848047f27,2024-01-23_08h09.36.055,bars,2023.2.3,Win32,60.60606061,657b66ea316d21385b68909f,,,,,,,,,,,2493.8751,2494.8629,,,2495.3588,2495.6056,,8,8,,,,,,,,,,,,,,,,bars/022.png,bars/mask003.png,,,,,,,,,,,,3,2,,,,,,,0,4,1,5,,,,,,,,,,,2494.8629,2495.3587,2495.6056,2498.8635,space,3.2339,,2498.8635,87,12,2499.8556,2499.8559,2499.863,,,,0,46,46,46,1,95,20,,,,,,,,
,,60e840cfd4c065679727d760,65af56a205a6baf848047f27,2024-01-23_08h09.36.055,bars,2023.2.3,Win32,60.60606061,657b66ea316d21385b68909f,,,,,,,,,,,2499.8631,2500.8556,,,2501.3461,2501.5891,,60,60,,,,,,,,,,,,,,,,bars/017.png,bars/mask001.png,,,,,,,,,,,,1,2,,,,,,,0,2,0,2,,,,,,,,,,,2500.8557,2501.3461,2501.5892,2505.4637,space,3.8524,,2505.4637,85,15,2506.4555,2506.4556,2506.4626,,,,0,47,47,47,1,145,45,,,,,,,,
,,60e840cfd4c065679727d760,65af56a205a6baf848047f27,2024-01-23_08h09.36.055,bars,2023.2.3,Win32,60.60606061,657b66ea316d21385b68909f,,,,,,,,,,,2506.4627,2507.4557,,,2507.9461,2508.1963,,139,139,,,,,,,,,,,,,,,,bars/044.png,bars/mask009.png,,,,,,,,,,,,0,2,,,,,,,0,0,1,0,,,,,,,,,,,2507.4558,2507.9461,2508.1963,2512.0802,space,3.8786,,2512.0802,64,16,2513.0724,2513.0725,2513.0797,,,,0,48,48,48,1,75,155,,,,,,,,
,,60e840cfd4c065679727d760,65af56a205a6baf848047f27,2024-01-23_08h09.36.055,bars,2023.2.3,Win32,60.60606061,657b66ea316d21385b68909f,,,,,,,,,,,2513.0797,2514.0723,,,2514.5757,2514.8298,,168,-12,,,,,,,,,,,,,,,,bars/032.png,bars/mask001.png,,,,,,,,,,,,0,2,,,,,,,2,2,4,1,,,,,,,,,,,2514.0723,2514.5757,2514.8299,2518.276,space,3.4297,,2518.276,43,32,2519.2722,2519.2722,2519.2795,,,,0,49,49,49,1,125,20,,,,,,,,
,,60e840cfd4c065679727d760,65af56a205a6baf848047f27,2024-01-23_08h09.36.055,bars,2023.2.3,Win32,60.60606061,657b66ea316d21385b68909f,,,,,,,,,,,,,,,,,,,,,,,,,,,,,,,,,,,,,,,,,,,,,,,,,,,,,,,,,,,,,,,,,,,,,,,,,,,,,,,,,,,,,,,,,,,,,2519.2796,2579.2799,0,3,3,2,1,sequence_tables/blk044.csv
,,60e840cfd4c065679727d760,65af56a205a6baf848047f27,2024-01-23_08h09.36.055,bars,2023.2.3,Win32,60.60606061,657b66ea316d21385b68909f,,,,,,,,,,,2767.2504,2768.24,,,2768.7402,2768.9807,,136,136,,,,,,,,,,,,,,,,bars/038.png,bars/mask000.png,,,,,,,,,,,,0,1,,,,,,,2,7,0,6,,,,,,2579.2859,2767.2398,space,187.9345,,2768.2401,2768.7401,2768.9807,2771.7141,space,2.7172,,2771.7142,29,66,2772.714,2772.714,2772.7202,,,,0,0,0,0,1,165,70,,,,,,,,
,,60e840cfd4c065679727d760,65af56a205a6baf848047f27,2024-01-23_08h09.36.055,bars,2023.2.3,Win32,60.60606061,657b66ea316d21385b68909f,,,,,,,,,,,2772.7204,2773.7233,,,2774.2233,2774.4733,,111,111,,,,,,,,,,,,,,,,bars/049.png,bars/mask005.png,,,,,,,,,,,,9,2,,,,,,,0,9,1,10,,,,,,,,,,,2773.7235,2774.2232,2774.4735,2777.4642,space,2.967,,2777.4642,49,4,2778.4566,2778.457,2778.4642,,,,0,1,1,1,1,160,115,,,,,,,,
,,60e840cfd4c065679727d760,65af56a205a6baf848047f27,2024-01-23_08h09.36.055,bars,2023.2.3,Win32,60.60606061,657b66ea316d21385b68909f,,,,,,,,,,,2778.4644,2779.4564,,,2779.9564,2780.2066,,93,93,,,,,,,,,,,,,,,,bars/026.png,bars/mask009.png,,,,,,,,,,,,5,2,,,,,,,0,7,1,7,,,,,,,,,,,2779.4565,2779.9564,2780.2068,2783.7474,space,3.5169,,2783.7474,58,8,2784.7399,2784.7401,2784.7472,,,,0,2,2,2,1,35,85,,,,,,,,
,,60e840cfd4c065679727d760,65af56a205a6baf848047f27,2024-01-23_08h09.36.055,bars,2023.2.3,Win32,60.60606061,657b66ea316d21385b68909f,,,,,,,,,,,2784.7474,2785.7476,,,2786.2432,2786.49,,81,81,,,,,,,,,,,,,,,,bars/041.png,bars/mask009.png,,,,,,,,,,,,8,2,,,,,,,2,9,1,9,,,,,,,,,,,2785.7476,2786.2432,2786.4902,2788.9142,space,2.4003,,2788.9142,61,4,2789.914,2789.914,2789.9199,,,,0,3,3,3,1,20,85,,,,,,,,
,,60e840cfd4c065679727d760,65af56a205a6baf848047f27,2024-01-23_08h09.36.055,bars,2023.2.3,Win32,60.60606061,657b66ea316d21385b68909f,,,,,,,,,,,2789.92,2790.9236,,,2791.4236,2791.664,,156,156,,,,,,,,,,,,,,,,bars/024.png,bars/mask000.png,,,,,,,,,,,,5,2,,,,,,,4,10,4,10,,,,,,,,,,,2790.9237,2791.4236,2791.664,2793.5975,space,1.9171,,2793.5976,36,14,2794.5972,2794.5972,2794.6029,,,,0,4,4,4,1,120,170,,,,,,,,
,,60e840cfd4c065679727d760,65af56a205a6baf848047f27,2024-01-23_08h09.36.055,bars,2023.2.3,Win32,60.60606061,657b66ea316d21385b68909f,,,,,,,,,,,2794.603,2795.6121,,,2796.1141,2796.3568,,113,113,,,,,,,,,,,,,,,,bars/028.png,bars/mask003.png,,,,,,,,,,,,8,2,,,,,,,2,10,0,10,,,,,,,,,,,2795.6121,2796.1141,2796.3569,2798.3475,space,1.9681,,2798.3475,68,7,2799.3398,2799.3399,2799.3419,,,,0,5,5,5,1,45,120,,,,,,,,
,,60e840cfd4c065679727d760,65af56a205a6baf848047f27,2024-01-23_08h09.36.055,bars,2023.2.3,Win32,60.60606061,657b66ea316d21385b68909f,,,,,,,,,,,2799.3424,2800.3433,,,2800.8398,2801.0899,,64,64,,,,,,,,,,,,,,,,bars/035.png,bars/mask007.png,,,,,,,,,,,,8,2,,,,,,,4,10,5,9,,,,,,,,,,,2800.3433,2800.8398,2801.0899,2802.9902,space,1.8735,,2802.9903,69,4,2803.99,2803.9901,2803.9969,,,,0,6,6,6,1,175,60,,,,,,,,
,,60e840cfd4c065679727d760,65af56a205a6baf848047f27,2024-01-23_08h09.36.055,bars,2023.2.3,Win32,60.60606061,657b66ea316d21385b68909f,,,,,,,,,,,2803.997,2804.9901,,,2805.4962,2805.7402,,73,73,,,,,,,,,,,,,,,,bars/038.png,bars/mask006.png,,,,,,,,,,,,7,2,,,,,,,2,8,2,8,,,,,,,,,,,2804.9902,2805.4962,2805.7403,2807.9398,space,2.1756,,2807.9399,88,3,2808.9401,2808.9402,2808.9467,,,,0,7,7,7,1,165,70,,,,,,,,
,,60e840cfd4c065679727d760,65af56a205a6baf848047f27,2024-01-23_08h09.36.055,bars,2023.2.3,Win32,60.60606061,657b66ea316d21385b68909f,,,,,,,,,,,2808.9468,2809.94,,,2810.4399,2810.69,,63,63,,,,,,,,,,,,,,,,bars/029.png,bars/mask009.png,,,,,,,,,,,,4,2,,,,,,,0,10,0,10,,,,,,,,,,,2809.94,2810.4398,2810.6901,2813.5965,space,2.8826,,2813.5965,27,18,2814.59,2814.5902,2814.5972,,,,0,8,8,8,1,90,45,,,,,,,,
,,60e840cfd4c065679727d760,65af56a205a6baf848047f27,2024-01-23_08h09.36.055,bars,2023.2.3,Win32,60.60606061,657b66ea316d21385b68909f,,,,,,,,,,,2814.5972,2815.5962,,,2816.0971,2816.34,,135,135,,,,,,,,,,,,,,,,bars/016.png,bars/mask005.png,,,,,,,,,,,,0,2,,,,,,,2,8,2,8,,,,,,,,,,,2815.5962,2816.0971,2816.34,2820.0475,space,3.6839,,2820.0475,85,30,2821.0398,2821.0401,2821.0469,,,,0,9,9,9,1,40,165,,,,,,,,
,,60e840cfd4c065679727d760,65af56a205a6baf848047f27,2024-01-23_08h09.36.055,bars,2023.2.3,Win32,60.60606061,657b66ea316d21385b68909f,,,,,,,,,,,2821.047,2822.04,,,2822.5402,2822.7933,,59,59,,,,,,,,,,,,,,,,bars/035.png,bars/mask003.png,,,,,,,,,,,,10,2,,,,,,,0,10,0,10,,,,,,,,,,,2822.04,2822.54,2822.7933,2826.6734,space,3.8662,,2826.6734,64,1,2827.6734,2827.6734,2827.6807,,,,0,10,10,10,1,175,60,,,,,,,,
,,60e840cfd4c065679727d760,65af56a205a6baf848047f27,2024-01-23_08h09.36.055,bars,2023.2.3,Win32,60.60606061,657b66ea316d21385b68909f,,,,,,,,,,,2827.6808,2828.6766,,,2829.1766,2829.4233,,104,104,,,,,,,,,,,,,,,,bars/006.png,bars/mask002.png,,,,,,,,,,,,7,2,,,,,,,0,8,1,8,,,,,,,,,,,2828.6766,2829.1766,2829.4234,2831.9902,space,2.5374,,2831.9903,69,4,2832.9962,2832.9962,2833.0016,,,,0,11,11,11,1,35,100,,,,,,,,
,,60e840cfd4c065679727d760,65af56a205a6baf848047f27,2024-01-23_08h09.36.055,bars,2023.2.3,Win32,60.60606061,657b66ea316d21385b68909f,,,,,,,,,,,2833.0017,2833.9898,,,2834.49,2834.74,,60,60,,,,,,,,,,,,,,,,bars/010.png,bars/mask001.png,,,,,,,,,,,,4,2,,,,,,,0,6,1,5,,,,,,,,,,,2833.99,2834.49,2834.74,2837.6644,space,2.9006,,2837.6644,75,5,2838.6566,2838.6566,2838.6638,,,,0,12,12,12,1,165,55,,,,,,,,
