init_variables.started,init_variables.stopped,participant,session,date,expName,psychopyVersion,OS,frameRate,study_id,instruction_exp.started,instruction_exp.stopped,key_resp_8.keys,key_resp_8.rt,key_resp_8.duration,instruction_single.started,instruction_single.stopped,key_resp_2.keys,key_resp_2.rt,key_resp_2.duration,interval.started,interval.stopped,cue_single.started,cue_single.stopped,mask.started,mask.stopped,ori_response_single.started,res_ori,res,ori_response_single.stopped,key_resp_single.keys,key_resp_single.rt,key_resp_single.duration,disp_single.started,disp_single.stopped,key_resp.keys,key_resp.rt,key_resp.duration,single.thisRepN,single.thisTrialN,single.thisN,single.thisIndex,single.ran,ori,path,mask_path,instruction_bandit.started,instruction_bandit.stopped,key_resp_6.keys,key_resp_6.rt,key_resp_6.duration,cue_bandit.started,cue_bandit.stopped,bandit_res.keys,bandit_res.rt,bandit_res.duration,outcome_bandit.started,rew,action,outcome_bandit.stopped,bandit.thisRepN,bandit.thisTrialN,bandit.thisN,bandit.thisIndex,bandit.ran,actual_rew1,actual_rew2,rew1,rew2,instruction_task.started,instruction_task.stopped,key_resp_7.keys,key_resp_7.rt,key_resp_7.duration,wait_ready.started,wait_ready.stopped,key_resp_3.keys,key_resp_3.rt,key_resp_3.duration,cue.started,cue.stopped,ori_response.started,ori_response.stopped,key_resp_5.keys,key_resp_5.rt,key_resp_5.duration,outcome.started,diff1,diff2,outcome.stopped,disp_outcome_practice.started,disp_outcome_practice.stopped,key_resp_4.keys,key_resp_4.rt,key_resp_4.duration,trials.thisRepN,trials.thisTrialN,trials.thisN,trials.thisIndex,trials.ran,ori1,ori2,break_blk.started,break_blk.stopped,block.thisRepN,block.thisTrialN,block.thisN,block.thisIndex,block.ran,condition_file
0.0009,0.0012,611cf4b38923b75da77562bf,65af55d6988ae06a92401049,2024-01-23_08h05.06.420,bars,2023.2.3,Win32,29.76190476,657b66ea316d21385b68909f,,,,,,,,,,,,,,,,,,,,,,,,,,,,,,,,,,,,,,,,,,,,,,,,,,,,,,,,,,,,,,,,,,,,,,,,,,,,,,,,,,,,,,,,,,,,,,,,,,,,
,,611cf4b38923b75da77562bf,65af55d6988ae06a92401049,2024-01-23_08h05.06.420,bars,2023.2.3,Win32,29.76190476,657b66ea316d21385b68909f,0.0018,503.0973,y,503.0308,,,,,,,,,,,,,,,,,,,,,,,,,,,,,,,,,,,,,,,,,,,,,,,,,,,,,,,,,,,,,,,,,,,,,,,,,,,,,,,,,,,,,,,,,,,,,,,,
,,611cf4b38923b75da77562bf,65af55d6988ae06a92401049,2024-01-23_08h05.06.420,bars,2023.2.3,Win32,29.76190476,657b66ea316d21385b68909f,,,,,,503.0977,529.2984,space,25.8025,,,,,,,,,,,,,,,,,,,,,,,,,,,,,,,,,,,,,,,,,,,,,,,,,,,,,,,,,,,,,,,,,,,,,,,,,,,,,,,,,,,,,,,,,,,
,,611cf4b38923b75da77562bf,65af55d6988ae06a92401049,2024-01-23_08h05.06.420,bars,2023.2.3,Win32,29.76190476,657b66ea316d21385b68909f,,,,,,,,,,,529.4118,530.3169,530.3173,530.8174,530.8176,531.053,531.0532,20,200,543.8567,space,12.7642,,543.8586,556.122,space,12.1724,,0,0,0,9,1,20,bars/single009.png,bars/mask006.png,,,,,,,,,,,,,,,,,,,,,,,,,,,,,,,,,,,,,,,,,,,,,,,,,,,,,,,,,,,,,,,,
,,611cf4b38923b75da77562bf,65af55d6988ae06a92401049,2024-01-23_08h05.06.420,bars,2023.2.3,Win32,29.76190476,657b66ea316d21385b68909f,,,,,,,,,,,556.1557,557.1356,557.1361,557.6233,557.6235,557.8717,557.8718,149,149,577.4457,space,19.5527,0.0006,577.4458,586.9527,space,9.4581,,0,1,1,2,1,145,bars/single002.png,bars/mask003.png,,,,,,,,,,,,,,,,,,,,,,,,,,,,,,,,,,,,,,,,,,,,,,,,,,,,,,,,,,,,,,,,
,,611cf4b38923b75da77562bf,65af55d6988ae06a92401049,2024-01-23_08h05.06.420,bars,2023.2.3,Win32,29.76190476,657b66ea316d21385b68909f,,,,,,,,,,,586.9816,587.9589,587.959,588.4596,588.4597,588.6909,588.6911,97,97,600.7076,space,11.9944,,600.7077,604.7514,space,3.9856,,0,2,2,4,1,95,bars/single004.png,bars/mask004.png,,,,,,,,,,,,,,,,,,,,,,,,,,,,,,,,,,,,,,,,,,,,,,,,,,,,,,,,,,,,,,,,
,,611cf4b38923b75da77562bf,65af55d6988ae06a92401049,2024-01-23_08h05.06.420,bars,2023.2.3,Win32,29.76190476,657b66ea316d21385b68909f,,,,,,,,,,,604.7539,605.7342,605.7343,606.2403,606.2404,606.4856,606.4857,166,166,622.0027,space,15.4976,,622.0028,625.3016,space,3.2419,,0,3,3,0,1,150,bars/single000.png,bars/mask006.png,,,,,,,,,,,,,,,,,,,,,,,,,,,,,,,,,,,,,,,,,,,,,,,,,,,,,,,,,,,,,,,,
,,611cf4b38923b75da77562bf,65af55d6988ae06a92401049,2024-01-23_08h05.06.420,bars,2023.2.3,Win32,29.76190476,657b66ea316d21385b68909f,,,,,,,,,,,625.3035,626.2976,626.3007,626.8138,626.8141,627.0565,627.0566,3,183,639.845,space,12.7664,,639.8453,643.3144,space,3.415,,0,4,4,6,1,175,bars/single006.png,bars/mask005.png,,,,,,,,,,,,,,,,,,,,,,,,,,,,,,,,,,,,,,,,,,,,,,,,,,,,,,,,,,,,,,,,
,,611cf4b38923b75da77562bf,65af55d6988ae06a92401049,2024-01-23_08h05.06.420,bars,2023.2.3,Win32,29.76190476,657b66ea316d21385b68909f,,,,,,,,,,,643.3182,644.2952,644.2953,644.7939,644.794,645.0545,645.0546,36,216,658.1624,space,13.0868,,658.1625,662.5865,space,4.3632,,0,5,5,7,1,45,bars/single007.png,bars/mask009.png,,,,,,,,,,,,,,,,,,,,,,,,,,,,,,,,,,,,,,,,,,,,,,,,,,,,,,,,,,,,,,,,
,,611cf4b38923b75da77562bf,65af55d6988ae06a92401049,2024-01-23_08h05.06.420,bars,2023.2.3,Win32,29.76190476,657b66ea316d21385b68909f,,,,,,,,,,,662.6126,663.5957,663.5958,664.0875,664.0875,664.337,664.3374,172,172,686.6158,space,22.2589,,686.616,690.299,space,3.6314,,0,6,6,8,1,160,bars/single008.png,bars/mask004.png,,,,,,,,,,,,,,,,,,,,,,,,,,,,,,,,,,,,,,,,,,,,,,,,,,,,,,,,,,,,,,,,
,,611cf4b38923b75da77562bf,65af55d6988ae06a92401049,2024-01-23_08h05.06.420,bars,2023.2.3,Win32,29.76190476,657b66ea316d21385b68909f,,,,,,,,,,,690.3026,691.3067,691.3068,691.7964,691.7965,692.0385,692.0386,21,21,713.3482,space,21.292,,713.3482,716.1817,space,2.7842,,0,7,7,3,1,20,bars/single003.png,bars/mask005.png,,,,,,,,,,,,,,,,,,,,,,,,,,,,,,,,,,,,,,,,,,,,,,,,,,,,,,,,,,,,,,,,
,,611cf4b38923b75da77562bf,65af55d6988ae06a92401049,2024-01-23_08h05.06.420,bars,2023.2.3,Win32,29.76190476,657b66ea316d21385b68909f,,,,,,,,,,,716.1866,717.1831,717.1832,717.689,717.6891,717.9303,717.9304,37,37,728.6563,space,10.7009,,728.6563,731.6575,space,2.9475,,0,8,8,5,1,55,bars/single005.png,bars/mask008.png,,,,,,,,,,,,,,,,,,,,,,,,,,,,,,,,,,,,,,,,,,,,,,,,,,,,,,,,,,,,,,,,
,,611cf4b38923b75da77562bf,65af55d6988ae06a92401049,2024-01-23_08h05.06.420,bars,2023.2.3,Win32,29.76190476,657b66ea316d21385b68909f,,,,,,,,,,,731.6584,732.6613,732.6614,733.16,733.1608,733.413,733.4131,35,215,747.164,space,13.7274,,747.1641,750.3596,space,3.1367,,0,9,9,1,1,20,bars/single001.png,bars/mask006.png,,,,,,,,,,,,,,,,,,,,,,,,,,,,,,,,,,,,,,,,,,,,,,,,,,,,,,,,,,,,,,,,
,,611cf4b38923b75da77562bf,65af55d6988ae06a92401049,2024-01-23_08h05.06.420,bars,2023.2.3,Win32,29.76190476,657b66ea316d21385b68909f,,,,,,,,,,,,,,,,,,,,,,,,,,,,,,,,,,,,,750.3623,774.0157,space,23.6214,,,,,,,,,,,,,,,,,,,,,,,,,,,,,,,,,,,,,,,,,,,,,,,,,,,,,,,,,,,,
,,611cf4b38923b75da77562bf,65af55d6988ae06a92401049,2024-01-23_08h05.06.420,bars,2023.2.3,Win32,29.76190476,657b66ea316d21385b68909f,,,,,,,,,,,,,,,,,,,,,,,,,,,,,,,,,,,,,,,,,,774.0499,776.2003,right,2.1145,,776.2008,2,2,777.1949,0,0,0,0,1,9,1,9,2,,,,,,,,,,,,,,,,,,,,,,,,,,,,,,,,,,,,,,,,,
,,611cf4b38923b75da77562bf,65af55d6988ae06a92401049,2024-01-23_08h05.06.420,bars,2023.2.3,Win32,29.76190476,657b66ea316d21385b68909f,,,,,,,,,,,,,,,,,,,,,,,,,,,,,,,,,,,,,,,,,,777.1972,778.3416,left,1.1251,,778.3417,10,1,779.3296,0,1,1,1,1,10,0,10,1,,,,,,,,,,,,,,,,,,,,,,,,,,,,,,,,,,,,,,,,,
,,611cf4b38923b75da77562bf,65af55d6988ae06a92401049,2024-01-23_08h05.06.420,bars,2023.2.3,Win32,29.76190476,657b66ea316d21385b68909f,,,,,,,,,,,,,,,,,,,,,,,,,,,,,,,,,,,,,,,,,,779.332,780.0931,left,0.7384,,780.0933,10,1,781.0973,0,2,2,2,1,10,2,10,2,,,,,,,,,,,,,,,,,,,,,,,,,,,,,,,,,,,,,,,,,
,,611cf4b38923b75da77562bf,65af55d6988ae06a92401049,2024-01-23_08h05.06.420,bars,2023.2.3,Win32,29.76190476,657b66ea316d21385b68909f,,,,,,,,,,,,,,,,,,,,,,,,,,,,,,,,,,,,,,,,,,781.0981,781.7426,right,0.6249,,781.7427,3,2,782.7362,0,3,3,3,1,8,4,7,3,,,,,,,,,,,,,,,,,,,,,,,,,,,,,,,,,,,,,,,,,
,,611cf4b38923b75da77562bf,65af55d6988ae06a92401049,2024-01-23_08h05.06.420,bars,2023.2.3,Win32,29.76190476,657b66ea316d21385b68909f,,,,,,,,,,,,,,,,,,,,,,,,,,,,,,,,,,,,,,,,,,782.7406,783.2495,left,0.4883,,783.2497,5,1,784.2661,0,4,4,4,1,6,2,5,1,,,,,,,,,,,,,,,,,,,,,,,,,,,,,,,,,,,,,,,,,
,,611cf4b38923b75da77562bf,65af55d6988ae06a92401049,2024-01-23_08h05.06.420,bars,2023.2.3,Win32,29.76190476,657b66ea316d21385b68909f,,,,,,,,,,,,,,,,,,,,,,,,,,,,,,,,,,,,,,,,,,784.268,784.9996,right,0.7185,,784.9998,4,2,786.0123,0,5,5,5,1,4,4,4,4,,,,,,,,,,,,,,,,,,,,,,,,,,,,,,,,,,,,,,,,,
,,611cf4b38923b75da77562bf,65af55d6988ae06a92401049,2024-01-23_08h05.06.420,bars,2023.2.3,Win32,29.76190476,657b66ea316d21385b68909f,,,,,,,,,,,,,,,,,,,,,,,,,,,,,,,,,,,,,,,,,,786.0135,786.507,left,0.4745,,786.5073,1,1,787.5001,0,6,6,6,1,2,2,1,2,,,,,,,,,,,,,,,,,,,,,,,,,,,,,,,,,,,,,,,,,
,,611cf4b38923b75da77562bf,65af55d6988ae06a92401049,2024-01-23_08h05.06.420,bars,2023.2.3,Win32,29.76190476,657b66ea316d21385b68909f,,,,,,,,,,,,,,,,,,,,,,,,,,,,,,,,,,,,,,,,,,787.5022,788.9165,left,1.3909,,788.9165,0,1,789.9175,0,7,7,7,1,0,0,0,1,,,,,,,,,,,,,,,,,,,,,,,,,,,,,,,,,,,,,,,,,
,,611cf4b38923b75da77562bf,65af55d6988ae06a92401049,2024-01-23_08h05.06.420,bars,2023.2.3,Win32,29.76190476,657b66ea316d21385b68909f,,,,,,,,,,,,,,,,,,,,,,,,,,,,,,,,,,,,,,,,,,789.9196,790.433,right,0.4922,,790.4332,0,2,791.4276,0,8,8,8,1,0,2,1,0,,,,,,,,,,,,,,,,,,,,,,,,,,,,,,,,,,,,,,,,,
,,611cf4b38923b75da77562bf,65af55d6988ae06a92401049,2024-01-23_08h05.06.420,bars,2023.2.3,Win32,29.76190476,657b66ea316d21385b68909f,,,,,,,,,,,,,,,,,,,,,,,,,,,,,,,,,,,,,,,,,,791.4296,791.8671,left,0.4193,,791.8672,2,1,792.8805,0,9,9,9,1,2,4,2,3,,,,,,,,,,,,,,,,,,,,,,,,,,,,,,,,,,,,,,,,,
,,611cf4b38923b75da77562bf,65af55d6988ae06a92401049,2024-01-23_08h05.06.420,bars,2023.2.3,Win32,29.76190476,657b66ea316d21385b68909f,,,,,,,,,,,,,,,,,,,,,,,,,,,,,,,,,,,,,,,,,,792.8821,793.3156,right,0.4184,,793.3158,3,2,794.3303,0,10,10,10,1,0,2,0,3,,,,,,,,,,,,,,,,,,,,,,,,,,,,,,,,,,,,,,,,,
,,611cf4b38923b75da77562bf,65af55d6988ae06a92401049,2024-01-23_08h05.06.420,bars,2023.2.3,Win32,29.76190476,657b66ea316d21385b68909f,,,,,,,,,,,,,,,,,,,,,,,,,,,,,,,,,,,,,,,,,,794.3323,794.8007,right,0.4533,,794.8009,3,2,795.7955,0,11,11,11,1,0,4,0,3,,,,,,,,,,,,,,,,,,,,,,,,,,,,,,,,,,,,,,,,,
,,611cf4b38923b75da77562bf,65af55d6988ae06a92401049,2024-01-23_08h05.06.420,bars,2023.2.3,Win32,29.76190476,657b66ea316d21385b68909f,,,,,,,,,,,,,,,,,,,,,,,,,,,,,,,,,,,,,,,,,,795.7981,796.1924,left,0.3759,,796.1925,1,1,797.1811,0,12,12,12,1,2,6,1,6,,,,,,,,,,,,,,,,,,,,,,,,,,,,,,,,,,,,,,,,,
,,611cf4b38923b75da77562bf,65af55d6988ae06a92401049,2024-01-23_08h05.06.420,bars,2023.2.3,Win32,29.76190476,657b66ea316d21385b68909f,,,,,,,,,,,,,,,,,,,,,,,,,,,,,,,,,,,,,,,,,,797.1831,797.6504,right,0.4453,,797.6506,3,2,798.6452,0,13,13,13,1,0,4,1,3,,,,,,,,,,,,,,,,,,,,,,,,,,,,,,,,,,,,,,,,,
,,611cf4b38923b75da77562bf,65af55d6988ae06a92401049,2024-01-23_08h05.06.420,bars,2023.2.3,Win32,29.76190476,657b66ea316d21385b68909f,,,,,,,,,,,,,,,,,,,,,,,,,,,,,,,,,,,,,,,,,,798.6488,799.1314,right,0.4654,,799.1315,7,2,800.1304,0,14,14,14,1,2,6,2,7,,,,,,,,,,,,,,,,,,,,,,,,,,,,,,,,,,,,,,,,,
,,611cf4b38923b75da77562bf,65af55d6988ae06a92401049,2024-01-23_08h05.06.420,bars,2023.2.3,Win32,29.76190476,657b66ea316d21385b68909f,,,,,,,,,,,,,,,,,,,,,,,,,,,,,,,,,,,,,,,,,,800.1321,800.5649,right,0.4125,,800.5649,9,2,801.5535,0,15,15,15,1,4,8,3,9,,,,,,,,,,,,,,,,,,,,,,,,,,,,,,,,,,,,,,,,,
,,611cf4b38923b75da77562bf,65af55d6988ae06a92401049,2024-01-23_08h05.06.420,bars,2023.2.3,Win32,29.76190476,657b66ea316d21385b68909f,,,,,,,,,,,,,,,,,,,,,,,,,,,,,,,,,,,,,,,,,,801.556,802.2092,left,0.6298,,802.2093,7,1,803.2138,0,16,16,16,1,6,6,7,7,,,,,,,,,,,,,,,,,,,,,,,,,,,,,,,,,,,,,,,,,
,,611cf4b38923b75da77562bf,65af55d6988ae06a92401049,2024-01-23_08h05.06.420,bars,2023.2.3,Win32,29.76190476,657b66ea316d21385b68909f,,,,,,,,,,,,,,,,,,,,,,,,,,,,,,,,,,,,,,,,,,803.2161,803.667,right,0.4295,,803.6672,5,2,804.6751,0,17,17,17,1,8,4,9,5,,,,,,,,,,,,,,,,,,,,,,,,,,,,,,,,,,,,,,,,,
,,611cf4b38923b75da77562bf,65af55d6988ae06a92401049,2024-01-23_08h05.06.420,bars,2023.2.3,Win32,29.76190476,657b66ea316d21385b68909f,,,,,,,,,,,,,,,,,,,,,,,,,,,,,,,,,,,,,,,,,,804.6787,805.1268,left,0.4269,,805.127,5,1,806.1034,0,18,18,18,1,6,2,5,1,,,,,,,,,,,,,,,,,,,,,,,,,,,,,,,,,,,,,,,,,
,,611cf4b38923b75da77562bf,65af55d6988ae06a92401049,2024-01-23_08h05.06.420,bars,2023.2.3,Win32,29.76190476,657b66ea316d21385b68909f,,,,,,,,,,,,,,,,,,,,,,,,,,,,,,,,,,,,,,,,,,806.1042,806.5321,right,0.4045,,806.5322,0,2,807.5155,0,19,19,19,1,8,0,7,0,,,,,,,,,,,,,,,,,,,,,,,,,,,,,,,,,,,,,,,,,
,,611cf4b38923b75da77562bf,65af55d6988ae06a92401049,2024-01-23_08h05.06.420,bars,2023.2.3,Win32,29.76190476,657b66ea316d21385b68909f,,,,,,,,,,,,,,,,,,,,,,,,,,,,,,,,,,,,,,,,,,,,,,,,,,,,,,,,,,,,807.5173,838.1849,space,30.641,,,,,,,,,,,,,,,,,,,,,,,,,,,,,,,,,,,,,
,,611cf4b38923b75da77562bf,65af55d6988ae06a92401049,2024-01-23_08h05.06.420,bars,2023.2.3,Win32,29.76190476,657b66ea316d21385b68909f,,,,,,,,,,,839.5198,840.511,,,841.1158,841.1461,,168,-12,,,,,,,,,,,,,,,,bars/015.png,bars/mask003.png,,,,,,,,,,,,2,2,,,,,,,7,3,7,3,,,,,,838.2252,839.5016,space,1.2511,,840.5135,841.1157,841.1471,850.677,space,9.5007,,850.6782,58,8,851.6784,851.6795,860.7831,space,9.0603,,0,0,0,0,1,110,160,,,,,,,,
,,611cf4b38923b75da77562bf,65af55d6988ae06a92401049,2024-01-23_08h05.06.420,bars,2023.2.3,Win32,29.76190476,657b66ea316d21385b68909f,,,,,,,,,,,860.8386,861.7872,,,862.2936,862.5387,,36,36,,,,,,,,,,,,,,,,bars/007.png,bars/mask006.png,,,,,,,,,,,,0,2,,,,,,,5,1,7,0,,,,,,,,,,,861.7872,862.2936,862.5387,869.984,space,7.4193,,869.9844,41,19,870.9808,870.9808,874.5635,space,3.5325,,0,1,1,1,1,175,55,,,,,,,,
,,611cf4b38923b75da77562bf,65af55d6988ae06a92401049,2024-01-23_08h05.06.420,bars,2023.2.3,Win32,29.76190476,657b66ea316d21385b68909f,,,,,,,,,,,874.5887,875.5776,,,876.0683,876.3163,,55,235,,,,,,,,,,,,,,,,bars/034.png,bars/mask005.png,,,,,,,,,,,,1,2,,,,,,,7,3,4,2,,,,,,,,,,,875.5777,876.0682,876.3166,888.8514,space,12.5196,,888.8515,70,10,889.832,889.8321,902.4722,space,12.5844,,0,2,2,2,1,125,65,,,,,,,,
,,611cf4b38923b75da77562bf,65af55d6988ae06a92401049,2024-01-23_08h05.06.420,bars,2023.2.3,Win32,29.76190476,657b66ea316d21385b68909f,,,,,,,,,,,902.5032,903.4845,,,903.9676,904.222,,149,149,,,,,,,,,,,,,,,,bars/001.png,bars/mask000.png,,,,,,,,,,,,4,1,,,,,,,9,5,10,5,,,,,,,,,,,903.4846,903.9676,904.2221,920.0044,space,15.7626,,920.0045,19,64,920.9954,920.9954,926.8547,space,5.7935,,0,3,3,3,1,130,85,,,,,,,,
,,611cf4b38923b75da77562bf,65af55d6988ae06a92401049,2024-01-23_08h05.06.420,bars,2023.2.3,Win32,29.76190476,657b66ea316d21385b68909f,,,,,,,,,,,926.8829,927.8663,,,928.37,928.6133,,43,223,,,,,,,,,,,,,,,,bars/035.png,bars/mask006.png,,,,,,,,,,,,3,2,,,,,,,10,7,10,6,,,,,,,,,,,927.8663,928.3699,928.6135,938.4995,space,9.8641,,938.4995,48,17,939.5004,939.5006,952.5488,space,12.9795,,0,4,4,4,1,175,60,,,,,,,,
,,611cf4b38923b75da77562bf,65af55d6988ae06a92401049,2024-01-23_08h05.06.420,bars,2023.2.3,Win32,29.76190476,657b66ea316d21385b68909f,,,,,,,,,,,952.5795,953.5499,,,954.0529,954.2923,,42,42,,,,,,,,,,,,,,,,bars/035.png,bars/mask001.png,,,,,,,,,,,,2,2,,,,,,,10,5,10,5,,,,,,,,,,,953.55,954.0528,954.2924,972.541,space,18.2292,,972.5414,47,18,973.54,973.5401,980.4736,space,6.8888,,0,5,5,5,1,175,60,,,,,,,,
,,611cf4b38923b75da77562bf,65af55d6988ae06a92401049,2024-01-23_08h05.06.420,bars,2023.2.3,Win32,29.76190476,657b66ea316d21385b68909f,,,,,,,,,,,980.5033,981.4875,,,981.9819,982.2363,,101,101,,,,,,,,,,,,,,,,bars/041.png,bars/mask000.png,,,,,,,,,,,,3,2,,,,,,,10,7,10,7,,,,,,,,,,,981.4877,981.9818,982.2364,998.55,space,16.292,,998.5503,81,16,999.5603,999.5605,1004.2326,space,4.6177,,0,6,6,6,1,20,85,,,,,,,,
,,611cf4b38923b75da77562bf,65af55d6988ae06a92401049,2024-01-23_08h05.06.420,bars,2023.2.3,Win32,29.76190476,657b66ea316d21385b68909f,,,,,,,,,,,1004.2651,1005.2527,,,1005.749,1005.9905,,92,92,,,,,,,,,,,,,,,,bars/026.png,bars/mask002.png,,,,,,,,,,,,5,2,,,,,,,8,5,8,6,,,,,,,,,,,1005.2529,1005.7489,1005.9905,1023.8289,space,17.8167,,1023.8324,57,7,1024.8227,1024.8228,1030.3084,space,5.4267,,0,7,7,7,1,35,85,,,,,,,,
,,611cf4b38923b75da77562bf,65af55d6988ae06a92401049,2024-01-23_08h05.06.420,bars,2023.2.3,Win32,29.76190476,657b66ea316d21385b68909f,,,,,,,,,,,1030.3426,1031.3167,,,1031.8175,1032.0575,,142,142,,,,,,,,,,,,,,,,bars/004.png,bars/mask002.png,,,,,,,,,,,,3,2,,,,,,,6,7,4,7,,,,,,,,,,,1031.3168,1031.8173,1032.0576,1052.4047,space,20.3291,,1052.4049,63,17,1053.4013,1053.4014,1057.087,space,3.6297,,0,8,8,8,1,25,125,,,,,,,,
,,611cf4b38923b75da77562bf,65af55d6988ae06a92401049,2024-01-23_08h05.06.420,bars,2023.2.3,Win32,29.76190476,657b66ea316d21385b68909f,,,,,,,,,,,1057.088,1058.095,,,1058.5891,1058.8282,,139,-41,,,,,,,,,,,,,,,,bars/004.png,bars/mask007.png,,,,,,,,,,,,5,2,,,,,,,4,9,4,9,,,,,,,,,,,1058.0951,1058.589,1058.8282,1076.9064,space,18.058,,1076.9067,66,14,1077.905,1077.9051,1085.0932,space,7.1484,,0,9,9,9,1,25,125,,,,,,,,
,,611cf4b38923b75da77562bf,65af55d6988ae06a92401049,2024-01-23_08h05.06.420,bars,2023.2.3,Win32,29.76190476,657b66ea316d21385b68909f,,,,,,,,,,,1085.1221,1086.1033,,,1086.5938,1086.847,,4,4,,,,,,,,,,,,,,,,bars/026.png,bars/mask001.png,,,,,,,,,,,,0,1,,,,,,,2,7,3,5,,,,,,,,,,,1086.1034,1086.5937,1086.847,1101.1912,space,14.3226,,1101.1913,31,81,1102.1962,1102.1964,1106.176,space,3.9147,,0,10,10,10,1,35,85,,,,,,,,
,,611cf4b38923b75da77562bf,65af55d6988ae06a92401049,2024-01-23_08h05.06.420,bars,2023.2.3,Win32,29.76190476,657b66ea316d21385b68909f,,,,,,,,,,,1106.1769,1107.1698,,,1107.6768,1107.9277,,168,168,,,,,,,,,,,,,,,,bars/049.png,bars/mask001.png,,,,,,,,,,,,0,1,,,,,,,0,5,0,6,,,,,,,,,,,1107.1699,1107.6768,1107.9278,1122.0685,space,14.119,,1122.0687,8,53,1123.0702,1123.0703,1138.954,space,15.82,,0,11,11,11,1,160,115,,,,,,,,
,,611cf4b38923b75da77562bf,65af55d6988ae06a92401049,2024-01-23_08h05.06.420,bars,2023.2.3,Win32,29.76190476,657b66ea316d21385b68909f,,,,,,,,,,,1138.9825,1139.9737,,,1140.4731,1140.7078,,93,93,,,,,,,,,,,,,,,,bars/011.png,bars/mask007.png,,,,,,,,,,,,1,2,,,,,,,0,3,1,2,,,,,,,,,,,1139.9739,1140.473,1140.7081,1157.0923,space,16.3605,,1157.0925,67,8,1158.0803,1158.0805,1163.7603,space,5.6232,,0,12,12,12,1,160,85,,,,,,,,
,,611cf4b38923b75da77562bf,65af55d6988ae06a92401049,2024-01-23_08h05.06.420,bars,2023.2.3,Win32,29.76190476,657b66ea316d21385b68909f,,,,,,,,,,,1163.785,1164.7824,,,1165.2809,1165.5109,,109,109,,,,,,,,,,,,,,,,bars/002.png,bars/mask002.png,,,,,,,,,,,,0,1,,,,,,,0,1,0,1,,,,,,,,,,,1164.7824,1165.2808,1165.511,1173.4951,space,7.9639,,1173.4952,21,24,1174.4873,1174.4875,1181.4366,space,6.8791,,0,13,13,13,1,130,85,,,,,,,,
,,611cf4b38923b75da77562bf,65af55d6988ae06a92401049,2024-01-23_08h05.06.420,bars,2023.2.3,Win32,29.76190476,657b66ea316d21385b68909f,,,,,,,,,,,1181.4599,1182.4553,,,1182.9575,1183.1924,,13,193,,,,,,,,,,,,,,,,bars/013.png,bars/mask003.png,,,,,,,,,,,,4,2,,,,,,,2,3,4,4,,,,,,,,,,,1182.4554,1182.9573,1183.1924,1195.2955,space,12.0827,,1195.2962,62,3,1196.2835,1196.2838,1200.9687,space,4.6133,,0,14,14,14,1,75,10,,,,,,,,
,,611cf4b38923b75da77562bf,65af55d6988ae06a92401049,2024-01-23_08h05.06.420,bars,2023.2.3,Win32,29.76190476,657b66ea316d21385b68909f,,,,,,,,,,,1200.9954,1201.9829,,,1202.4764,1202.7164,,4,184,,,,,,,,,,,,,,,,bars/045.png,bars/mask003.png,,,,,,,,,,,,4,2,,,,,,,4,5,4,5,,,,,,,,,,,1201.9831,1202.4763,1202.7166,1214.712,space,11.9713,,1214.7121,84,6,1215.7118,1215.7119,1222.2392,space,6.4669,,0,15,15,15,1,100,10,,,,,,,,
,,611cf4b38923b75da77562bf,65af55d6988ae06a92401049,2024-01-23_08h05.06.420,bars,2023.2.3,Win32,29.76190476,657b66ea316d21385b68909f,,,,,,,,,,,1222.265,1223.2422,,,1223.7343,1223.9815,,174,174,,,,,,,,,,,,,,,,bars/010.png,bars/mask001.png,,,,,,,,,,,,3,1,,,,,,,6,7,4,6,,,,,,,,,,,1223.2423,1223.7343,1223.9816,1231.9954,space,7.9898,,1231.9955,9,61,1232.9893,1232.9895,1240.3469,space,7.296,,0,16,16,16,1,165,55,,,,,,,,
,,611cf4b38923b75da77562bf,65af55d6988ae06a92401049,2024-01-23_08h05.06.420,bars,2023.2.3,Win32,29.76190476,657b66ea316d21385b68909f,,,,,,,,,,,1240.3787,1241.358,,,1241.8522,1242.1012,,174,174,,,,,,,,,,,,,,,,bars/021.png,bars/mask001.png,,,,,,,,,,,,2,1,,,,,,,4,5,5,5,,,,,,,,,,,1241.358,1241.8521,1242.1013,1260.3791,space,18.2525,,1260.3792,19,76,1261.38,1261.3801,1266.2324,space,4.7931,,0,17,17,17,1,155,70,,,,,,,,
,,611cf4b38923b75da77562bf,65af55d6988ae06a92401049,2024-01-23_08h05.06.420,bars,2023.2.3,Win32,29.76190476,657b66ea316d21385b68909f,,,,,,,,,,,1266.2616,1267.2331,,,1267.7376,1267.9851,,95,95,,,,,,,,,,,,,,,,bars/019.png,bars/mask009.png,,,,,,,,,,,,2,2,,,,,,,6,3,5,3,,,,,,,,,,,1267.2333,1267.7375,1267.9852,1278.5766,space,10.5658,,1278.577,50,10,1279.5759,1279.576,1284.3818,space,4.7492,,0,18,18,18,1,45,105,,,,,,,,
,,611cf4b38923b75da77562bf,65af55d6988ae06a92401049,2024-01-23_08h05.06.420,bars,2023.2.3,Win32,29.76190476,657b66ea316d21385b68909f,,,,,,,,,,,1284.4041,1285.3973,,,1285.899,1286.1421,,176,-4,,,,,,,,,,,,,,,,bars/008.png,bars/mask007.png,,,,,,,,,,,,0,2,,,,,,,4,1,5,0,,,,,,,,,,,1285.3973,1285.8989,1286.1421,1297.0124,space,10.8533,,1297.0126,66,4,1298.0107,1298.0107,1305.1356,space,7.0748,,0,19,19,19,1,110,0,,,,,,,,
,,611cf4b38923b75da77562bf,65af55d6988ae06a92401049,2024-01-23_08h05.06.420,bars,2023.2.3,Win32,29.76190476,657b66ea316d21385b68909f,,,,,,,,,,,1305.1613,1306.1443,,,1306.6477,1306.8934,,24,24,,,,,,,,,,,,,,,,bars/012.png,bars/mask005.png,,,,,,,,,,,,2,2,,,,,,,2,3,2,3,,,,,,,,,,,1306.1444,1306.6476,1306.8935,1327.9051,space,20.9919,,1327.9052,66,9,1328.9008,1328.9009,1333.3616,space,4.4039,,0,20,20,20,1,90,15,,,,,,,,
,,611cf4b38923b75da77562bf,65af55d6988ae06a92401049,2024-01-23_08h05.06.420,bars,2023.2.3,Win32,29.76190476,657b66ea316d21385b68909f,,,,,,,,,,,1333.3866,1334.3796,,,1334.8733,1335.1012,,92,-88,,,,,,,,,,,,,,,,bars/039.png,bars/mask002.png,,,,,,,,,,,,2,2,,,,,,,4,5,4,4,,,,,,,,,,,1334.3798,1334.8733,1335.1013,1348.2119,space,13.0851,,1348.2121,83,13,1349.1995,1349.1996,1358.0781,space,8.8289,,0,21,21,21,1,175,105,,,,,,,,
,,611cf4b38923b75da77562bf,65af55d6988ae06a92401049,2024-01-23_08h05.06.420,bars,2023.2.3,Win32,29.76190476,657b66ea316d21385b68909f,,,,,,,,,,,1358.1128,1359.0996,,,1359.5803,1359.8378,,101,-79,,,,,,,,,,,,,,,,bars/008.png,bars/mask007.png,,,,,,,,,,,,2,1,,,,,,,2,3,3,2,,,,,,,,,,,1359.0997,1359.5802,1359.8378,1382.0971,space,22.2347,,1382.0973,9,79,1383.0974,1383.0975,1388.1965,space,5.0272,,0,22,22,22,1,110,0,,,,,,,,
,,611cf4b38923b75da77562bf,65af55d6988ae06a92401049,2024-01-23_08h05.06.420,bars,2023.2.3,Win32,29.76190476,657b66ea316d21385b68909f,,,,,,,,,,,1388.2238,1389.2131,,,1389.7178,1389.9517,,13,13,,,,,,,,,,,,,,,,bars/013.png,bars/mask001.png,,,,,,,,,,,,0,2,,,,,,,0,1,1,0,,,,,,,,,,,1389.2133,1389.7177,1389.9517,1406.521,space,16.5477,,1406.5213,62,3,1407.5178,1407.5179,1422.4633,space,14.8791,,0,23,23,23,1,75,10,,,,,,,,
,,611cf4b38923b75da77562bf,65af55d6988ae06a92401049,2024-01-23_08h05.06.420,bars,2023.2.3,Win32,29.76190476,657b66ea316d21385b68909f,,,,,,,,,,,1422.496,1423.4834,,,1423.9697,1424.2148,,93,93,,,,,,,,,,,,,,,,bars/021.png,bars/mask002.png,,,,,,,,,,,,0,2,,,,,,,0,0,0,1,,,,,,,,,,,1423.4834,1423.9696,1424.2149,1435.6566,space,11.4183,,1435.6568,62,23,1436.6642,1436.6643,1442.5182,space,5.8039,,0,24,24,24,1,155,70,,,,,,,,
,,611cf4b38923b75da77562bf,65af55d6988ae06a92401049,2024-01-23_08h05.06.420,bars,2023.2.3,Win32,29.76190476,657b66ea316d21385b68909f,,,,,,,,,,,1442.5495,1443.5367,,,1444.0216,1444.26,,20,20,,,,,,,,,,,,,,,,bars/022.png,bars/mask000.png,,,,,,,,,,,,1,2,,,,,,,0,0,0,1,,,,,,,,,,,1443.5367,1444.0195,1444.2601,1456.0383,space,11.7557,,1456.0384,75,0,1457.0516,1457.0517,1464.9152,space,7.8073,,0,25,25,25,1,95,20,,,,,,,,
,,611cf4b38923b75da77562bf,65af55d6988ae06a92401049,2024-01-23_08h05.06.420,bars,2023.2.3,Win32,29.76190476,657b66ea316d21385b68909f,,,,,,,,,,,1464.9407,1465.9334,,,1466.4389,1466.6671,,153,153,,,,,,,,,,,,,,,,bars/015.png,bars/mask003.png,,,,,,,,,,,,0,2,,,,,,,0,0,1,0,,,,,,,,,,,1465.9335,1466.4388,1466.6671,1483.9086,space,17.2259,,1483.9088,43,7,1484.9166,1484.9167,1489.3914,space,4.426,,0,26,26,26,1,110,160,,,,,,,,
,,611cf4b38923b75da77562bf,65af55d6988ae06a92401049,2024-01-23_08h05.06.420,bars,2023.2.3,Win32,29.76190476,657b66ea316d21385b68909f,,,,,,,,,,,1489.4187,1490.3952,,,1490.8868,1491.1361,,14,14,,,,,,,,,,,,,,,,bars/003.png,bars/mask008.png,,,,,,,,,,,,1,1,,,,,,,0,2,1,2,,,,,,,,,,,1490.3953,1490.8868,1491.1363,1509.2536,space,18.0983,,1509.2537,11,54,1510.255,1510.2552,1513.4873,space,3.1799,,0,27,27,27,1,25,140,,,,,,,,
,,611cf4b38923b75da77562bf,65af55d6988ae06a92401049,2024-01-23_08h05.06.420,bars,2023.2.3,Win32,29.76190476,657b66ea316d21385b68909f,,,,,,,,,,,1513.4892,1514.4755,,,1514.9683,1515.2061,,160,160,,,,,,,,,,,,,,,,bars/030.png,bars/mask002.png,,,,,,,,,,,,0,1,,,,,,,2,4,1,6,,,,,,,,,,,1514.4755,1514.9681,1515.2061,1527.274,space,12.0511,,1527.274,20,85,1528.2794,1528.2795,1532.8248,space,4.4851,,0,28,28,28,1,140,65,,,,,,,,
,,611cf4b38923b75da77562bf,65af55d6988ae06a92401049,2024-01-23_08h05.06.420,bars,2023.2.3,Win32,29.76190476,657b66ea316d21385b68909f,,,,,,,,,,,1532.8605,1533.8392,,,1534.3288,1534.5758,,117,117,,,,,,,,,,,,,,,,bars/039.png,bars/mask002.png,,,,,,,,,,,,1,2,,,,,,,0,2,0,2,,,,,,,,,,,1533.8392,1534.3287,1534.5759,1563.8649,space,29.2705,,1563.865,58,12,1564.8542,1564.8544,1569.868,space,4.9345,,0,29,29,29,1,175,105,,,,,,,,
,,611cf4b38923b75da77562bf,65af55d6988ae06a92401049,2024-01-23_08h05.06.420,bars,2023.2.3,Win32,29.76190476,657b66ea316d21385b68909f,,,,,,,,,,,1569.8964,1570.878,,,1571.3863,1571.6268,,170,170,,,,,,,,,,,,,,,,bars/000.png,bars/mask008.png,,,,,,,,,,,,1,2,,,,,,,0,4,1,6,,,,,,,,,,,1570.8781,1571.3862,1571.6268,1579.319,space,7.6672,,1579.3192,50,25,1580.3352,1580.3352,1585.2466,space,4.8537,,0,30,30,30,1,40,145,,,,,,,,
,,611cf4b38923b75da77562bf,65af55d6988ae06a92401049,2024-01-23_08h05.06.420,bars,2023.2.3,Win32,29.76190476,657b66ea316d21385b68909f,,,,,,,,,,,1585.2768,1586.2618,,,1586.7692,1587.0115,,150,-30,,,,,,,,,,,,,,,,bars/043.png,bars/mask005.png,,,,,,,,,,,,1,2,,,,,,,2,2,2,2,,,,,,,,,,,1586.262,1586.769,1587.0116,1600.7664,space,13.7407,,1600.7716,60,20,1601.7714,1601.7714,1609.7028,space,7.8696,,0,31,31,31,1,30,130,,,,,,,,
,,611cf4b38923b75da77562bf,65af55d6988ae06a92401049,2024-01-23_08h05.06.420,bars,2023.2.3,Win32,29.76190476,657b66ea316d21385b68909f,,,,,,,,,,,1609.7269,1610.7145,,,1611.2271,1611.4564,,14,14,,,,,,,,,,,,,,,,bars/012.png,bars/mask007.png,,,,,,,,,,,,3,2,,,,,,,4,4,4,3,,,,,,,,,,,1610.7146,1611.227,1611.4564,1622.4703,space,10.9916,,1622.4706,76,1,1623.4662,1623.4664,1626.9648,space,3.4482,,0,32,32,32,1,90,15,,,,,,,,
,,611cf4b38923b75da77562bf,65af55d6988ae06a92401049,2024-01-23_08h05.06.420,bars,2023.2.3,Win32,29.76190476,657b66ea316d21385b68909f,,,,,,,,,,,1626.9669,1627.9449,,,1628.4575,1628.7016,,141,141,,,,,,,,,,,,,,,,bars/034.png,bars/mask007.png,,,,,,,,,,,,3,1,,,,,,,6,6,6,5,,,,,,,,,,,1627.9451,1628.4566,1628.7018,1639.5088,space,10.7819,,1639.5089,16,76,1640.4986,1640.4987,1642.3016,space,1.7277,,0,33,33,33,1,125,65,,,,,,,,
,,611cf4b38923b75da77562bf,65af55d6988ae06a92401049,2024-01-23_08h05.06.420,bars,2023.2.3,Win32,29.76190476,657b66ea316d21385b68909f,,,,,,,,,,,1642.3038,1643.2791,,,1643.768,1644.0109,,126,126,,,,,,,,,,,,,,,,bars/006.png,bars/mask009.png,,,,,,,,,,,,1,2,,,,,,,8,8,7,7,,,,,,,,,,,1643.2792,1643.768,1644.011,1677.2433,space,33.2182,,1677.2434,89,26,1678.2397,1678.2398,1681.5995,space,3.31,,0,34,34,34,1,35,100,,,,,,,,
,,611cf4b38923b75da77562bf,65af55d6988ae06a92401049,2024-01-23_08h05.06.420,bars,2023.2.3,Win32,29.76190476,657b66ea316d21385b68909f,,,,,,,,,,,1681.6011,1682.6028,,,1683.0966,1683.3481,,22,22,,,,,,,,,,,,,,,,bars/025.png,bars/mask008.png,,,,,,,,,,,,4,2,,,,,,,6,10,6,10,,,,,,,,,,,1682.6032,1683.0965,1683.3482,1699.5953,space,16.2237,,1699.5954,83,18,1700.587,1700.5876,1703.212,space,2.579,,0,35,35,35,1,105,40,,,,,,,,
,,611cf4b38923b75da77562bf,65af55d6988ae06a92401049,2024-01-23_08h05.06.420,bars,2023.2.3,Win32,29.76190476,657b66ea316d21385b68909f,,,,,,,,,,,1703.2142,1704.2095,,,1704.7069,1704.9522,,80,80,,,,,,,,,,,,,,,,bars/018.png,bars/mask006.png,,,,,,,,,,,,5,2,,,,,,,8,10,7,8,,,,,,,,,,,1704.2096,1704.7068,1704.9524,1722.2984,space,17.3234,,1722.2985,70,10,1723.3073,1723.3076,1729.4105,space,6.0429,,0,36,36,36,1,150,90,,,,,,,,
,,611cf4b38923b75da77562bf,65af55d6988ae06a92401049,2024-01-23_08h05.06.420,bars,2023.2.3,Win32,29.76190476,657b66ea316d21385b68909f,,,,,,,,,,,1729.4354,1730.4223,,,1730.9142,1731.1634,,64,244,,,,,,,,,,,,,,,,bars/028.png,bars/mask008.png,,,,,,,,,,,,2,1,,,,,,,6,10,6,10,,,,,,,,,,,1730.4224,1730.9142,1731.1634,1749.7312,space,18.5486,,1749.7314,19,56,1750.7266,1750.7267,1753.1042,space,2.3169,,0,37,37,37,1,45,120,,,,,,,,
,,611cf4b38923b75da77562bf,65af55d6988ae06a92401049,2024-01-23_08h05.06.420,bars,2023.2.3,Win32,29.76190476,657b66ea316d21385b68909f,,,,,,,,,,,1753.1093,1754.0978,,,1754.586,1754.8237,,18,198,,,,,,,,,,,,,,,,bars/004.png,bars/mask001.png,,,,,,,,,,,,5,1,,,,,,,8,10,7,10,,,,,,,,,,,1754.0979,1754.5859,1754.8242,1765.3456,space,10.4992,,1765.3458,7,73,1766.3407,1766.3407,1769.1291,space,2.7409,,0,38,38,38,1,25,125,,,,,,,,
,,611cf4b38923b75da77562bf,65af55d6988ae06a92401049,2024-01-23_08h05.06.420,bars,2023.2.3,Win32,29.76190476,657b66ea316d21385b68909f,,,,,,,,,,,1769.1297,1770.1161,,,1770.6222,1770.8611,,165,165,,,,,,,,,,,,,,,,bars/020.png,bars/mask004.png,,,,,,,,,,,,8,2,,,,,,,6,10,6,10,,,,,,,,,,,1770.1162,1770.6221,1770.8613,1782.2332,space,11.3486,,1782.2336,50,5,1783.235,1783.2352,1788.2118,space,4.9204,,0,39,39,39,1,115,170,,,,,,,,
,,611cf4b38923b75da77562bf,65af55d6988ae06a92401049,2024-01-23_08h05.06.420,bars,2023.2.3,Win32,29.76190476,657b66ea316d21385b68909f,,,,,,,,,,,1788.2399,1789.2224,,,1789.7168,1789.9613,,126,126,,,,,,,,,,,,,,,,bars/002.png,bars/mask009.png,,,,,,,,,,,,8,1,,,,,,,8,10,9,10,,,,,,,,,,,1789.2224,1789.7168,1789.9614,1816.6402,space,26.6526,,1816.6409,4,41,1817.6888,1817.6889,1820.3856,space,2.6349,,0,40,40,40,1,130,85,,,,,,,,
,,611cf4b38923b75da77562bf,65af55d6988ae06a92401049,2024-01-23_08h05.06.420,bars,2023.2.3,Win32,29.76190476,657b66ea316d21385b68909f,,,,,,,,,,,1820.3883,1821.3835,,,1821.872,1822.1325,,149,149,,,,,,,,,,,,,,,,bars/040.png,bars/mask009.png,,,,,,,,,,,,4,1,,,,,,,6,8,5,7,,,,,,,,,,,1821.3836,1821.872,1822.1327,1846.3545,space,24.2017,,1846.3553,9,36,1847.3478,1847.3479,1850.4386,space,3.0379,,0,41,41,41,1,140,5,,,,,,,,
,,611cf4b38923b75da77562bf,65af55d6988ae06a92401049,2024-01-23_08h05.06.420,bars,2023.2.3,Win32,29.76190476,657b66ea316d21385b68909f,,,,,,,,,,,1850.4414,1851.4509,,,1851.9528,1852.2056,,150,-30,,,,,,,,,,,,,,,,bars/003.png,bars/mask007.png,,,,,,,,,,,,5,2,,,,,,,8,10,9,8,,,,,,,,,,,1851.451,1851.9527,1852.2057,1872.8985,space,20.6664,,1872.8987,55,10,1873.8871,1873.8871,1884.4586,space,10.5122,,0,42,42,42,1,25,140,,,,,,,,
,,611cf4b38923b75da77562bf,65af55d6988ae06a92401049,2024-01-23_08h05.06.420,bars,2023.2.3,Win32,29.76190476,657b66ea316d21385b68909f,,,,,,,,,,,1884.4893,1885.4642,,,1885.9681,1886.2052,,94,94,,,,,,,,,,,,,,,,bars/038.png,bars/mask000.png,,,,,,,,,,,,2,2,,,,,,,10,8,8,8,,,,,,,,,,,1885.4643,1885.9681,1886.2052,1899.2387,space,13.0112,,1899.2388,71,24,1900.2365,1900.2365,1903.4913,space,3.2055,,0,43,43,43,1,165,70,,,,,,,,
,,611cf4b38923b75da77562bf,65af55d6988ae06a92401049,2024-01-23_08h05.06.420,bars,2023.2.3,Win32,29.76190476,657b66ea316d21385b68909f,,,,,,,,,,,1903.493,1904.4986,,,1904.9914,1905.2364,,145,145,,,,,,,,,,,,,,,,bars/044.png,bars/mask001.png,,,,,,,,,,,,5,2,,,,,,,10,6,9,8,,,,,,,,,,,1904.4987,1904.9913,1905.2365,1921.9694,space,16.7097,,1921.9698,70,10,1922.9722,1922.9723,1927.4561,space,4.4321,,0,44,44,44,1,75,155,,,,,,,,
,,611cf4b38923b75da77562bf,65af55d6988ae06a92401049,2024-01-23_08h05.06.420,bars,2023.2.3,Win32,29.76190476,657b66ea316d21385b68909f,,,,,,,,,,,1927.4905,1928.4707,,,1928.9661,1929.195,,173,173,,,,,,,,,,,,,,,,bars/048.png,bars/mask000.png,,,,,,,,,,,,7,2,,,,,,,10,4,10,7,,,,,,,,,,,1928.4707,1928.966,1929.195,1936.4612,space,7.2456,,1936.4613,57,2,1937.4586,1937.4587,1940.1484,space,2.6296,,0,45,45,45,1,50,175,,,,,,,,
,,611cf4b38923b75da77562bf,65af55d6988ae06a92401049,2024-01-23_08h05.06.420,bars,2023.2.3,Win32,29.76190476,657b66ea316d21385b68909f,,,,,,,,,,,1940.1522,1941.1444,,,1941.6495,1941.8949,,177,177,,,,,,,,,,,,,,,,bars/049.png,bars/mask000.png,,,,,,,,,,,,4,1,,,,,,,8,2,9,1,,,,,,,,,,,1941.1445,1941.6495,1941.895,1967.4701,space,25.5549,,1967.4703,17,62,1968.4587,1968.4588,1972.1033,space,3.5801,,0,46,46,46,1,160,115,,,,,,,,
,,611cf4b38923b75da77562bf,65af55d6988ae06a92401049,2024-01-23_08h05.06.420,bars,2023.2.3,Win32,29.76190476,657b66ea316d21385b68909f,,,,,,,,,,,1972.1052,1973.0945,,,1973.5909,1973.8349,,170,170,,,,,,,,,,,,,,,,bars/039.png,bars/mask008.png,,,,,,,,,,,,6,1,,,,,,,6,4,7,5,,,,,,,,,,,1973.0946,1973.5907,1973.835,1986.7242,space,12.8645,,1986.7243,5,65,1987.7141,1987.7142,1992.0556,space,4.2934,,0,47,47,47,1,175,105,,,,,,,,
,,611cf4b38923b75da77562bf,65af55d6988ae06a92401049,2024-01-23_08h05.06.420,bars,2023.2.3,Win32,29.76190476,657b66ea316d21385b68909f,,,,,,,,,,,1992.0801,1993.0568,,,1993.5514,1993.8064,,13,193,,,,,,,,,,,,,,,,bars/048.png,bars/mask006.png,,,,,,,,,,,,1,2,,,,,,,4,2,1,2,,,,,,,,,,,1993.0569,1993.5512,1993.8065,2003.7915,space,9.9652,,2003.7918,37,18,2004.7851,2004.7854,2008.0044,space,3.1548,,0,48,48,48,1,50,175,,,,,,,,
,,611cf4b38923b75da77562bf,65af55d6988ae06a92401049,2024-01-23_08h05.06.420,bars,2023.2.3,Win32,29.76190476,657b66ea316d21385b68909f,,,,,,,,,,,2008.0086,2009.0068,,,2009.5192,2009.7502,,70,70,,,,,,,,,,,,,,,,bars/046.png,bars/mask000.png,,,,,,,,,,,,0,2,,,,,,,6,0,5,0,,,,,,,,,,,2009.0069,2009.5191,2009.7503,2022.9809,space,13.2155,,2022.9809,85,15,2023.9773,2023.9775,2029.3256,space,5.2925,,0,49,49,49,1,155,85,,,,,,,,
,,611cf4b38923b75da77562bf,65af55d6988ae06a92401049,2024-01-23_08h05.06.420,bars,2023.2.3,Win32,29.76190476,657b66ea316d21385b68909f,,,,,,,,,,,,,,,,,,,,,,,,,,,,,,,,,,,,,,,,,,,,,,,,,,,,,,,,,,,,,,,,,,,,,,,,,,,,,,,,,,,,,,,,,,,,,2029.3989,2089.3412,0,0,0,0,1,sequence_tables/blk021.csv
,,611cf4b38923b75da77562bf,65af55d6988ae06a92401049,2024-01-23_08h05.06.420,bars,2023.2.3,Win32,29.76190476,657b66ea316d21385b68909f,,,,,,,,,,,2131.9922,2132.961,,,2133.458,2133.7069,,29,29,,,,,,,,,,,,,,,,bars/013.png,bars/mask001.png,,,,,,,,,,,,0,2,,,,,,,10,2,10,0,,,,,,2089.367,2131.9437,space,42.565,,2132.9612,2133.4578,2133.7071,2140.4755,space,6.7468,,2140.4757,46,19,2141.4796,2141.4797,2141.5112,,,,0,0,0,0,1,75,10,,,,,,,,
,,611cf4b38923b75da77562bf,65af55d6988ae06a92401049,2024-01-23_08h05.06.420,bars,2023.2.3,Win32,29.76190476,657b66ea316d21385b68909f,,,,,,,,,,,2141.5119,2142.5099,,,2143.0084,2143.2617,,119,119,,,,,,,,,,,,,,,,bars/028.png,bars/mask002.png,,,,,,,,,,,,1,2,,,,,,,10,0,10,1,,,,,,,,,,,2142.5101,2143.0083,2143.2617,2156.1261,space,12.8412,,2156.1263,74,1,2157.1255,2157.1255,2157.1533,,,,0,1,1,1,1,45,120,,,,,,,,
,,611cf4b38923b75da77562bf,65af55d6988ae06a92401049,2024-01-23_08h05.06.420,bars,2023.2.3,Win32,29.76190476,657b66ea316d21385b68909f,,,,,,,,,,,2157.1548,2158.1656,,,2158.6608,2158.8873,,25,25,,,,,,,,,,,,,,,,bars/010.png,bars/mask006.png,,,,,,,,,,,,0,2,,,,,,,8,2,8,0,,,,,,,,,,,2158.1657,2158.6607,2158.89,2168.8016,space,9.8931,,2168.8017,40,30,2169.7923,2169.7923,2169.8205,,,,0,2,2,2,1,165,55,,,,,,,,
,,611cf4b38923b75da77562bf,65af55d6988ae06a92401049,2024-01-23_08h05.06.420,bars,2023.2.3,Win32,29.76190476,657b66ea316d21385b68909f,,,,,,,,,,,2169.8221,2170.8254,,,2171.3318,2171.5857,,163,163,,,,,,,,,,,,,,,,bars/003.png,bars/mask003.png,,,,,,,,,,,,0,2,,,,,,,6,0,6,0,,,,,,,,,,,2170.8255,2171.3318,2171.5857,2266.3978,space,94.7836,0.0041,2266.3981,42,23,2267.3949,2267.395,2267.4229,,,,0,3,3,3,1,25,140,,,,,,,,
,,611cf4b38923b75da77562bf,65af55d6988ae06a92401049,2024-01-23_08h05.06.420,bars,2023.2.3,Win32,29.76190476,657b66ea316d21385b68909f,,,,,,,,,,,2267.4236,2268.4303,,,2268.933,2269.188,,13,193,,,,,,,,,,,,,,,,bars/040.png,bars/mask006.png,,,,,,,,,,,,0,2,,,,,,,8,0,8,0,,,,,,,,,,,2268.4303,2268.9329,2269.1881,2274.5027,space,5.2938,,2274.5028,53,8,2275.4979,2275.4983,2275.5338,,,,0,4,4,4,1,140,5,,,,,,,,
,,611cf4b38923b75da77562bf,65af55d6988ae06a92401049,2024-01-23_08h05.06.420,bars,2023.2.3,Win32,29.76190476,657b66ea316d21385b68909f,,,,,,,,,,,2275.5343,2276.536,,,2277.0358,2277.2843,,148,148,,,,,,,,,,,,,,,,bars/049.png,bars/mask006.png,,,,,,,,,,,,4,1,,,,,,,6,2,7,3,,,,,,,,,,,2276.536,2277.0357,2277.2845,2287.2631,space,9.9655,,2287.2632,12,33,2288.2558,2288.2559,2288.2921,,,,0,5,5,5,1,160,115,,,,,,,,
,,611cf4b38923b75da77562bf,65af55d6988ae06a92401049,2024-01-23_08h05.06.420,bars,2023.2.3,Win32,29.76190476,657b66ea316d21385b68909f,,,,,,,,,,,2288.2941,2289.2876,,,2289.7817,2290.0236,,18,18,,,,,,,,,,,,,,,,bars/008.png,bars/mask002.png,,,,,,,,,,,,1,2,,,,,,,8,4,6,3,,,,,,,,,,,2289.2877,2289.7817,2290.0237,2300.389,space,10.3386,,2300.3892,88,18,2301.3889,2301.389,2301.4278,,,,0,6,6,6,1,110,0,,,,,,,,
,,611cf4b38923b75da77562bf,65af55d6988ae06a92401049,2024-01-23_08h05.06.420,bars,2023.2.3,Win32,29.76190476,657b66ea316d21385b68909f,,,,,,,,,,,2301.4289,2302.4187,,,2302.9011,2303.1515,,34,214,,,,,,,,,,,,,,,,bars/007.png,bars/mask008.png,,,,,,,,,,,,1,2,,,,,,,6,2,6,3,,,,,,,,,,,2302.4187,2302.9009,2303.1516,2323.0068,space,19.8386,,2323.0072,39,21,2324.0158,2324.0158,2324.0497,,,,0,7,7,7,1,175,55,,,,,,,,
,,611cf4b38923b75da77562bf,65af55d6988ae06a92401049,2024-01-23_08h05.06.420,bars,2023.2.3,Win32,29.76190476,657b66ea316d21385b68909f,,,,,,,,,,,2324.0505,2325.0479,,,2325.5432,2325.7878,,101,101,,,,,,,,,,,,,,,,bars/023.png,bars/mask004.png,,,,,,,,,,,,0,2,,,,,,,8,0,8,0,,,,,,,,,,,2325.0481,2325.5431,2325.7879,2336.5837,space,10.773,,2336.5841,81,14,2337.575,2337.5751,2337.6056,,,,0,8,8,8,1,20,115,,,,,,,,
,,611cf4b38923b75da77562bf,65af55d6988ae06a92401049,2024-01-23_08h05.06.420,bars,2023.2.3,Win32,29.76190476,657b66ea316d21385b68909f,,,,,,,,,,,2337.6069,2338.5873,,,2339.0825,2339.336,,42,42,,,,,,,,,,,,,,,,bars/022.png,bars/mask003.png,,,,,,,,,,,,0,2,,,,,,,6,0,7,0,,,,,,,,,,,2338.5874,2339.0824,2339.336,2347.5055,space,8.1483,,2347.5056,53,22,2348.5144,2348.5146,2348.5487,,,,0,9,9,9,1,95,20,,,,,,,,
,,611cf4b38923b75da77562bf,65af55d6988ae06a92401049,2024-01-23_08h05.06.420,bars,2023.2.3,Win32,29.76190476,657b66ea316d21385b68909f,,,,,,,,,,,2348.5493,2349.5496,,,2350.0403,2350.2993,,161,161,,,,,,,,,,,,,,,,bars/015.png,bars/mask004.png,,,,,,,,,,,,2,2,,,,,,,8,2,7,2,,,,,,,,,,,2349.5497,2350.0401,2350.2995,2363.1194,space,12.7991,,2363.1194,51,1,2364.1234,2364.1235,2364.1539,,,,0,10,10,10,1,110,160,,,,,,,,
,,611cf4b38923b75da77562bf,65af55d6988ae06a92401049,2024-01-23_08h05.06.420,bars,2023.2.3,Win32,29.76190476,657b66ea316d21385b68909f,,,,,,,,,,,2364.1545,2365.1591,,,2365.6376,2365.8866,,167,-13,,,,,,,,,,,,,,,,bars/036.png,bars/mask008.png,,,,,,,,,,,,2,1,,,,,,,6,4,6,3,,,,,,,,,,,2365.1591,2365.6375,2365.8867,2376.6778,space,10.7707,0.0006,2376.678,22,33,2377.671,2377.6711,2377.7127,,,,0,11,11,11,1,145,20,,,,,,,,
,,611cf4b38923b75da77562bf,65af55d6988ae06a92401049,2024-01-23_08h05.06.420,bars,2023.2.3,Win32,29.76190476,657b66ea316d21385b68909f,,,,,,,,,,,2377.7143,2378.7028,,,2379.1921,2379.4397,,177,177,,,,,,,,,,,,,,,,bars/021.png,bars/mask000.png,,,,,,,,,,,,1,1,,,,,,,4,2,4,0,,,,,,,,,,,2378.7029,2379.1921,2379.4398,2394.1248,space,14.6645,,2394.125,22,73,2395.1172,2395.1173,2395.1486,,,,0,12,12,12,1,155,70,,,,,,,,
,,611cf4b38923b75da77562bf,65af55d6988ae06a92401049,2024-01-23_08h05.06.420,bars,2023.2.3,Win32,29.76190476,657b66ea316d21385b68909f,,,,,,,,,,,2395.1495,2396.1567,,,2396.6522,2396.895,,152,-28,,,,,,,,,,,,,,,,bars/012.png,bars/mask000.png,,,,,,,,,,,,0,2,,,,,,,2,4,2,4,,,,,,,,,,,2396.157,2396.6521,2396.8951,2412.5047,space,15.5886,,2412.505,62,43,2413.5079,2413.5079,2413.5465,,,,0,13,13,13,1,90,15,,,,,,,,
,,611cf4b38923b75da77562bf,65af55d6988ae06a92401049,2024-01-23_08h05.06.420,bars,2023.2.3,Win32,29.76190476,657b66ea316d21385b68909f,,,,,,,,,,,2413.5481,2414.5561,,,2415.043,2415.2842,,151,151,,,,,,,,,,,,,,,,bars/049.png,bars/mask004.png,,,,,,,,,,,,0,1,,,,,,,0,2,0,0,,,,,,,,,,,2414.5562,2415.0428,2415.2843,2425.3872,space,10.0813,,2425.3874,9,36,2426.3781,2426.3781,2426.4174,,,,0,14,14,14,1,160,115,,,,,,,,
,,611cf4b38923b75da77562bf,65af55d6988ae06a92401049,2024-01-23_08h05.06.420,bars,2023.2.3,Win32,29.76190476,657b66ea316d21385b68909f,,,,,,,,,,,2426.4182,2427.3963,,,2427.8847,2428.1301,,134,134,,,,,,,,,,,,,,,,bars/031.png,bars/mask004.png,,,,,,,,,,,,0,1,,,,,,,0,4,0,3,,,,,,,,,,,2427.3963,2427.8846,2428.1302,2439.7898,space,11.6386,,2439.7898,14,81,2440.7728,2440.7729,2440.809,,,,0,15,15,15,1,120,35,,,,,,,,
,,611cf4b38923b75da77562bf,65af55d6988ae06a92401049,2024-01-23_08h05.06.420,bars,2023.2.3,Win32,29.76190476,657b66ea316d21385b68909f,,,,,,,,,,,2440.8104,2441.7934,,,2442.303,2442.5579,,167,167,,,,,,,,,,,,,,,,bars/005.png,bars/mask002.png,,,,,,,,,,,,1,1,,,,,,,2,2,3,3,,,,,,,,,,,2441.7935,2442.303,2442.558,2453.7616,space,11.1843,,2453.7618,23,27,2454.7431,2454.7434,2454.7905,,,,0,16,16,16,1,10,140,,,,,,,,
,,611cf4b38923b75da77562bf,65af55d6988ae06a92401049,2024-01-23_08h05.06.420,bars,2023.2.3,Win32,29.76190476,657b66ea316d21385b68909f,,,,,,,,,,,2454.7923,2455.7737,,,2456.2797,2456.5274,,160,160,,,,,,,,,,,,,,,,bars/049.png,bars/mask006.png,,,,,,,,,,,,2,1,,,,,,,4,4,2,4,,,,,,,,,,,2455.7738,2456.2797,2456.5276,2467.5253,space,10.9757,,2467.5255,0,45,2468.54,2468.5403,2468.5723,,,,0,17,17,17,1,160,115,,,,,,,,
,,611cf4b38923b75da77562bf,65af55d6988ae06a92401049,2024-01-23_08h05.06.420,bars,2023.2.3,Win32,29.76190476,657b66ea316d21385b68909f,,,,,,,,,,,2468.5732,2469.5569,,,2470.0504,2470.2918,,169,169,,,,,,,,,,,,,,,,bars/038.png,bars/mask000.png,,,,,,,,,,,,6,1,,,,,,,6,2,7,3,,,,,,,,,,,2469.5569,2470.05,2470.2918,2478.1708,space,7.8555,,2478.1712,4,81,2479.1589,2479.159,2479.1911,,,,0,18,18,18,1,165,70,,,,,,,,
,,611cf4b38923b75da77562bf,65af55d6988ae06a92401049,2024-01-23_08h05.06.420,bars,2023.2.3,Win32,29.76190476,657b66ea316d21385b68909f,,,,,,,,,,,2479.1917,2480.1749,,,2480.6635,2480.9088,,9,189,,,,,,,,,,,,,,,,bars/020.png,bars/mask002.png,,,,,,,,,,,,2,2,,,,,,,4,4,3,6,,,,,,,,,,,2480.1749,2480.6635,2480.9089,2490.2546,space,9.3266,,2490.2547,74,19,2491.26,2491.26,2491.2922,,,,0,19,19,19,1,115,170,,,,,,,,
,,611cf4b38923b75da77562bf,65af55d6988ae06a92401049,2024-01-23_08h05.06.420,bars,2023.2.3,Win32,29.76190476,657b66ea316d21385b68909f,,,,,,,,,,,2491.2931,2492.291,,,2492.7815,2493.021,,55,55,,,,,,,,,,,,,,,,bars/025.png,bars/mask004.png,,,,,,,,,,,,1,2,,,,,,,6,2,6,2,,,,,,,,,,,2492.2911,2492.7813,2493.0211,2507.4593,space,14.4172,,2507.4593,50,15,2508.4591,2508.4592,2508.4883,,,,0,20,20,20,1,105,40,,,,,,,,
,,611cf4b38923b75da77562bf,65af55d6988ae06a92401049,2024-01-23_08h05.06.420,bars,2023.2.3,Win32,29.76190476,657b66ea316d21385b68909f,,,,,,,,,,,2508.4889,2509.4874,,,2509.9807,2510.2107,,92,92,,,,,,,,,,,,,,,,bars/019.png,bars/mask009.png,,,,,,,,,,,,4,2,,,,,,,8,4,10,7,,,,,,,,,,,2509.4877,2509.9806,2510.2107,2517.8399,space,7.609,,2517.8401,47,13,2518.8494,2518.8495,2518.8861,,,,0,21,21,21,1,45,105,,,,,,,,
,,611cf4b38923b75da77562bf,65af55d6988ae06a92401049,2024-01-23_08h05.06.420,bars,2023.2.3,Win32,29.76190476,657b66ea316d21385b68909f,,,,,,,,,,,2518.8885,2519.8767,,,2520.3668,2520.6032,,5,185,,,,,,,,,,,,,,,,bars/040.png,bars/mask007.png,,,,,,,,,,,,6,2,,,,,,,10,6,10,6,,,,,,,,,,,2519.8768,2520.3667,2520.6033,2533.8634,space,13.2345,,2533.8635,45,0,2534.8559,2534.8559,2534.8873,,,,0,22,22,22,1,140,5,,,,,,,,
,,611cf4b38923b75da77562bf,65af55d6988ae06a92401049,2024-01-23_08h05.06.420,bars,2023.2.3,Win32,29.76190476,657b66ea316d21385b68909f,,,,,,,,,,,2534.8883,2535.8942,,,2536.3834,2536.6354,,174,-6,,,,,,,,,,,,,,,,bars/000.png,bars/mask009.png,,,,,,,,,,,,0,2,,,,,,,8,4,8,3,,,,,,,,,,,2535.8943,2536.3832,2536.6355,2542.4573,space,5.7971,,2542.4574,46,29,2543.4649,2543.465,2543.4957,,,,0,23,23,23,1,40,145,,,,,,,,
,,611cf4b38923b75da77562bf,65af55d6988ae06a92401049,2024-01-23_08h05.06.420,bars,2023.2.3,Win32,29.76190476,657b66ea316d21385b68909f,,,,,,,,,,,2543.4965,2544.4798,,,2544.962,2545.2092,,160,160,,,,,,,,,,,,,,,,bars/043.png,bars/mask001.png,,,,,,,,,,,,0,2,,,,,,,6,6,6,8,,,,,,,,,,,2544.4799,2544.9618,2545.2094,2553.3785,space,8.1452,,2553.3786,50,30,2554.3778,2554.3779,2554.4106,,,,0,24,24,24,1,30,130,,,,,,,,
,,611cf4b38923b75da77562bf,65af55d6988ae06a92401049,2024-01-23_08h05.06.420,bars,2023.2.3,Win32,29.76190476,657b66ea316d21385b68909f,,,,,,,,,,,2554.4119,2555.4227,,,2555.9293,2556.1759,,103,103,,,,,,,,,,,,,,,,bars/011.png,bars/mask005.png,,,,,,,,,,,,3,2,,,,,,,4,8,5,8,,,,,,,,,,,2555.4228,2555.9293,2556.1765,2572.6472,space,16.4547,,2572.6491,57,18,2573.641,2573.6411,2573.6701,,,,0,25,25,25,1,160,85,,,,,,,,
,,611cf4b38923b75da77562bf,65af55d6988ae06a92401049,2024-01-23_08h05.06.420,bars,2023.2.3,Win32,29.76190476,657b66ea316d21385b68909f,,,,,,,,,,,2573.6706,2574.6613,,,2575.1615,2575.4107,,4,184,,,,,,,,,,,,,,,,bars/048.png,bars/mask004.png,,,,,,,,,,,,7,2,,,,,,,6,10,6,10,,,,,,,,,,,2574.6614,2575.1615,2575.4108,2584.8902,space,9.4539,,2584.8906,46,9,2585.8856,2585.8856,2585.9172,,,,0,26,26,26,1,50,175,,,,,,,,
,,611cf4b38923b75da77562bf,65af55d6988ae06a92401049,2024-01-23_08h05.06.420,bars,2023.2.3,Win32,29.76190476,657b66ea316d21385b68909f,,,,,,,,,,,2585.9179,2586.9154,,,2587.4301,2587.6743,,164,-16,,,,,,,,,,,,,,,,bars/043.png,bars/mask002.png,,,,,,,,,,,,0,2,,,,,,,4,8,2,7,,,,,,,,,,,2586.9155,2587.43,2587.6743,2597.5316,space,9.8355,,2597.5317,46,34,2598.5244,2598.5246,2598.5589,,,,0,27,27,27,1,30,130,,,,,,,,
,,611cf4b38923b75da77562bf,65af55d6988ae06a92401049,2024-01-23_08h05.06.420,bars,2023.2.3,Win32,29.76190476,657b66ea316d21385b68909f,,,,,,,,,,,2598.5604,2599.5474,,,2600.0327,2600.2828,,5,185,,,,,,,,,,,,,,,,bars/008.png,bars/mask008.png,,,,,,,,,,,,8,2,,,,,,,6,10,8,10,,,,,,,,,,,2599.5475,2600.0326,2600.2833,2609.5977,space,9.302,,2609.5977,75,5,2610.6087,2610.6088,2610.6343,,,,0,28,28,28,1,110,0,,,,,,,,
,,611cf4b38923b75da77562bf,65af55d6988ae06a92401049,2024-01-23_08h05.06.420,bars,2023.2.3,Win32,29.76190476,657b66ea316d21385b68909f,,,,,,,,,,,2610.6349,2611.6349,,,2612.1409,2612.3935,,4,4,,,,,,,,,,,,,,,,bars/014.png,bars/mask002.png,,,,,,,,,,,,9,2,,,,,,,8,10,7,10,,,,,,,,,,,2611.635,2612.1407,2612.3936,2624.8955,space,12.4823,0.0003,2624.8956,76,4,2625.8853,2625.8854,2625.9249,,,,0,29,29,29,1,80,0,,,,,,,,
,,611cf4b38923b75da77562bf,65af55d6988ae06a92401049,2024-01-23_08h05.06.420,bars,2023.2.3,Win32,29.76190476,657b66ea316d21385b68909f,,,,,,,,,,,2625.9261,2626.9245,,,2627.4231,2627.6759,,123,-57,,,,,,,,,,,,,,,,bars/049.png,bars/mask007.png,,,,,,,,,,,,7,2,,,,,,,6,10,6,10,,,,,,,,,,,2626.9247,2627.423,2627.676,2637.4278,space,9.7336,,2637.4278,37,8,2638.4215,2638.4253,2638.4578,,,,0,30,30,30,1,160,115,,,,,,,,
,,611cf4b38923b75da77562bf,65af55d6988ae06a92401049,2024-01-23_08h05.06.420,bars,2023.2.3,Win32,29.76190476,657b66ea316d21385b68909f,,,,,,,,,,,2638.4585,2639.4583,,,2639.9495,2640.194,,24,24,,,,,,,,,,,,,,,,bars/033.png,bars/mask009.png,,,,,,,,,,,,10,1,,,,,,,8,8,10,9,,,,,,,,,,,2639.4583,2639.9495,2640.194,2648.6844,space,8.4733,,2648.6845,1,49,2649.677,2649.6771,2649.7094,,,,0,31,31,31,1,25,155,,,,,,,,
,,611cf4b38923b75da77562bf,65af55d6988ae06a92401049,2024-01-23_08h05.06.420,bars,2023.2.3,Win32,29.76190476,657b66ea316d21385b68909f,,,,,,,,,,,2649.7101,2650.7002,,,2651.1958,2651.4476,,36,36,,,,,,,,,,,,,,,,bars/048.png,bars/mask000.png,,,,,,,,,,,,5,1,,,,,,,10,6,10,6,,,,,,,,,,,2650.7004,2651.1957,2651.4477,2661.7698,space,10.3049,,2661.7699,14,41,2662.7688,2662.769,2662.8081,,,,0,32,32,32,1,50,175,,,,,,,,
,,611cf4b38923b75da77562bf,65af55d6988ae06a92401049,2024-01-23_08h05.06.420,bars,2023.2.3,Win32,29.76190476,657b66ea316d21385b68909f,,,,,,,,,,,2662.8092,2663.8097,,,2664.2984,2664.5484,,93,93,,,,,,,,,,,,,,,,bars/009.png,bars/mask000.png,,,,,,,,,,,,4,2,,,,,,,10,8,10,7,,,,,,,,,,,2663.8099,2664.2984,2664.5486,2671.4125,space,6.8449,,2671.4136,78,12,2672.414,2672.414,2672.4481,,,,0,33,33,33,1,15,105,,,,,,,,
,,611cf4b38923b75da77562bf,65af55d6988ae06a92401049,2024-01-23_08h05.06.420,bars,2023.2.3,Win32,29.76190476,657b66ea316d21385b68909f,,,,,,,,,,,2672.4489,2673.4354,,,2673.9345,2674.1834,,173,-7,,,,,,,,,,,,,,,,bars/007.png,bars/mask001.png,,,,,,,,,,,,7,1,,,,,,,8,6,7,6,,,,,,,,,,,2673.4354,2673.9344,2674.1835,2683.22,space,9.0195,,2683.2201,2,62,2684.2005,2684.2006,2684.2357,,,,0,34,34,34,1,175,55,,,,,,,,
,,611cf4b38923b75da77562bf,65af55d6988ae06a92401049,2024-01-23_08h05.06.420,bars,2023.2.3,Win32,29.76190476,657b66ea316d21385b68909f,,,,,,,,,,,2684.2365,2685.2196,,,2685.7139,2685.9713,,25,205,,,,,,,,,,,,,,,,bars/017.png,bars/mask004.png,,,,,,,,,,,,2,2,,,,,,,10,4,10,5,,,,,,,,,,,2685.2198,2685.7138,2685.9714,2696.9523,space,10.9561,,2696.9523,60,20,2697.949,2697.949,2697.9892,,,,0,35,35,35,1,145,45,,,,,,,,
,,611cf4b38923b75da77562bf,65af55d6988ae06a92401049,2024-01-23_08h05.06.420,bars,2023.2.3,Win32,29.76190476,657b66ea316d21385b68909f,,,,,,,,,,,2697.9898,2698.9972,,,2699.4832,2699.7349,,96,96,,,,,,,,,,,,,,,,bars/001.png,bars/mask004.png,,,,,,,,,,,,5,2,,,,,,,10,6,10,8,,,,,,,,,,,2698.9973,2699.4831,2699.7351,2707.3865,space,7.6309,,2707.3866,34,11,2708.3791,2708.3792,2708.4067,,,,0,36,36,36,1,130,85,,,,,,,,
,,611cf4b38923b75da77562bf,65af55d6988ae06a92401049,2024-01-23_08h05.06.420,bars,2023.2.3,Win32,29.76190476,657b66ea316d21385b68909f,,,,,,,,,,,2708.4081,2709.4,,,2709.8972,2710.1563,,121,121,,,,,,,,,,,,,,,,bars/002.png,bars/mask002.png,,,,,,,,,,,,7,1,,,,,,,10,4,10,3,,,,,,,,,,,2709.4001,2709.8972,2710.1564,2719.6789,space,9.5042,,2719.6789,9,36,2720.6809,2720.681,2720.7111,,,,0,37,37,37,1,130,85,,,,,,,,
,,611cf4b38923b75da77562bf,65af55d6988ae06a92401049,2024-01-23_08h05.06.420,bars,2023.2.3,Win32,29.76190476,657b66ea316d21385b68909f,,,,,,,,,,,2720.7116,2721.7047,,,2722.2026,2722.4354,,164,164,,,,,,,,,,,,,,,,bars/038.png,bars/mask005.png,,,,,,,,,,,,7,1,,,,,,,8,2,7,3,,,,,,,,,,,2721.7048,2722.2026,2722.4354,2723.5682,space,1.1105,,2723.5684,1,86,2724.5133,2724.5134,2724.5172,,,,0,38,38,38,1,165,70,,,,,,,,
,,611cf4b38923b75da77562bf,65af55d6988ae06a92401049,2024-01-23_08h05.06.420,bars,2023.2.3,Win32,29.76190476,657b66ea316d21385b68909f,,,,,,,,,,,2724.5184,2725.5173,,,2726.0088,2726.2352,,84,84,,,,,,,,,,,,,,,,bars/019.png,bars/mask006.png,,,,,,,,,,,,1,2,,,,,,,10,4,8,4,,,,,,,,,,,2725.5174,2726.0081,2726.2353,2735.1538,space,8.8985,,2735.1538,39,21,2736.149,2736.1491,2736.1843,,,,0,39,39,39,1,45,105,,,,,,,,
,,611cf4b38923b75da77562bf,65af55d6988ae06a92401049,2024-01-23_08h05.06.420,bars,2023.2.3,Win32,29.76190476,657b66ea316d21385b68909f,,,,,,,,,,,2736.1849,2737.1798,,,2737.682,2737.918,,176,-4,,,,,,,,,,,,,,,,bars/014.png,bars/mask007.png,,,,,,,,,,,,3,2,,,,,,,8,2,7,3,,,,,,,,,,,2737.1799,2737.6819,2737.9182,2749.5112,space,11.5645,,2749.513,84,4,2750.5006,2750.5006,2750.5308,,,,0,40,40,40,1,80,0,,,,,,,,
,,611cf4b38923b75da77562bf,65af55d6988ae06a92401049,2024-01-23_08h05.06.420,bars,2023.2.3,Win32,29.76190476,657b66ea316d21385b68909f,,,,,,,,,,,2750.5317,2751.5214,,,2752.0177,2752.2673,,42,42,,,,,,,,,,,,,,,,bars/029.png,bars/mask009.png,,,,,,,,,,,,4,2,,,,,,,6,4,6,4,,,,,,,,,,,2751.5215,2752.0176,2752.2673,2760.9377,space,8.6466,,2760.9377,48,3,2761.9156,2761.9158,2761.9472,,,,0,41,41,41,1,90,45,,,,,,,,
,,611cf4b38923b75da77562bf,65af55d6988ae06a92401049,2024-01-23_08h05.06.420,bars,2023.2.3,Win32,29.76190476,657b66ea316d21385b68909f,,,,,,,,,,,2761.9478,2762.9359,,,2763.4324,2763.6792,,168,-12,,,,,,,,,,,,,,,,bars/045.png,bars/mask007.png,,,,,,,,,,,,1,2,,,,,,,4,6,5,5,,,,,,,,,,,2762.936,2763.4323,2763.6793,2774.6867,space,10.988,,2774.6868,68,22,2775.6765,2775.679,2775.7063,,,,0,42,42,42,1,100,10,,,,,,,,
,,611cf4b38923b75da77562bf,65af55d6988ae06a92401049,2024-01-23_08h05.06.420,bars,2023.2.3,Win32,29.76190476,657b66ea316d21385b68909f,,,,,,,,,,,2775.7071,2776.6923,,,2777.187,2777.4367,,160,160,,,,,,,,,,,,,,,,bars/007.png,bars/mask004.png,,,,,,,,,,,,1,1,,,,,,,2,4,1,3,,,,,,,,,,,2776.6925,2777.187,2777.4368,2793.6979,space,16.2387,,2793.6982,15,75,2794.7044,2794.7045,2794.7456,,,,0,43,43,43,1,175,55,,,,,,,,
,,611cf4b38923b75da77562bf,65af55d6988ae06a92401049,2024-01-23_08h05.06.420,bars,2023.2.3,Win32,29.76190476,657b66ea316d21385b68909f,,,,,,,,,,,2794.7469,2795.7352,,,2796.2488,2796.4686,,45,225,,,,,,,,,,,,,,,,bars/048.png,bars/mask005.png,,,,,,,,,,,,0,1,,,,,,,0,6,0,7,,,,,,,,,,,2795.7353,2796.2487,2796.4688,2807.4303,space,10.9382,,2807.4305,5,50,2808.4185,2808.4186,2808.45,,,,0,44,44,44,1,50,175,,,,,,,,
,,611cf4b38923b75da77562bf,65af55d6988ae06a92401049,2024-01-23_08h05.06.420,bars,2023.2.3,Win32,29.76190476,657b66ea316d21385b68909f,,,,,,,,,,,2808.4507,2809.4529,,,2809.9526,2810.1914,,157,157,,,,,,,,,,,,,,,,bars/032.png,bars/mask000.png,,,,,,,,,,,,0,1,,,,,,,0,8,0,9,,,,,,,,,,,2809.453,2809.9524,2810.1915,2815.9677,space,5.7552,,2815.9682,32,43,2816.9579,2816.9579,2816.9904,,,,0,45,45,45,1,125,20,,,,,,,,
,,611cf4b38923b75da77562bf,65af55d6988ae06a92401049,2024-01-23_08h05.06.420,bars,2023.2.3,Win32,29.76190476,657b66ea316d21385b68909f,,,,,,,,,,,2816.9919,2817.9746,,,2818.4568,2818.7071,,69,249,,,,,,,,,,,,,,,,bars/038.png,bars/mask001.png,,,,,,,,,,,,7,2,,,,,,,0,6,0,7,,,,,,,,,,,2817.9746,2818.4567,2818.7072,2833.2261,space,14.4965,,2833.2262,84,1,2834.2327,2834.2329,2834.2739,,,,0,46,46,46,1,165,70,,,,,,,,
,,611cf4b38923b75da77562bf,65af55d6988ae06a92401049,2024-01-23_08h05.06.420,bars,2023.2.3,Win32,29.76190476,657b66ea316d21385b68909f,,,,,,,,,,,2834.2751,2835.2717,,,2835.7673,2836.0181,,55,235,,,,,,,,,,,,,,,,bars/035.png,bars/mask008.png,,,,,,,,,,,,6,2,,,,,,,2,8,3,7,,,,,,,,,,,2835.2718,2835.767,2836.0182,2842.9598,space,6.9232,,2842.9599,60,5,2843.9426,2843.9427,2843.976,,,,0,47,47,47,1,175,60,,,,,,,,
,,611cf4b38923b75da77562bf,65af55d6988ae06a92401049,2024-01-23_08h05.06.420,bars,2023.2.3,Win32,29.76190476,657b66ea316d21385b68909f,,,,,,,,,,,2843.9766,2844.9825,,,2845.4731,2845.7224,,166,166,,,,,,,,,,,,,,,,bars/024.png,bars/mask003.png,,,,,,,,,,,,4,2,,,,,,,0,6,0,5,,,,,,,,,,,2844.9826,2845.473,2845.7224,2852.1213,space,6.3768,,2852.1213,46,4,2853.1161,2853.1163,2853.1457,,,,0,48,48,48,1,120,170,,,,,,,,
,,611cf4b38923b75da77562bf,65af55d6988ae06a92401049,2024-01-23_08h05.06.420,bars,2023.2.3,Win32,29.76190476,657b66ea316d21385b68909f,,,,,,,,,,,2853.147,2854.1416,,,2854.6387,2854.8845,,172,172,,,,,,,,,,,,,,,,bars/023.png,bars/mask006.png,,,,,,,,,,,,0,1,,,,,,,0,8,1,7,,,,,,,,,,,2854.1417,2854.6385,2854.8847,2864.3599,space,9.4579,,2864.3604,28,57,2865.3517,2865.3517,2865.3935,,,,0,49,49,49,1,20,115,,,,,,,,
,,611cf4b38923b75da77562bf,65af55d6988ae06a92401049,2024-01-23_08h05.06.420,bars,2023.2.3,Win32,29.76190476,657b66ea316d21385b68909f,,,,,,,,,,,,,,,,,,,,,,,,,,,,,,,,,,,,,,,,,,,,,,,,,,,,,,,,,,,,,,,,,,,,,,,,,,,,,,,,,,,,,,,,,,,,,2865.3938,2925.387,0,1,1,3,1,sequence_tables/blk013.csv
,,611cf4b38923b75da77562bf,65af55d6988ae06a92401049,2024-01-23_08h05.06.420,bars,2023.2.3,Win32,29.76190476,657b66ea316d21385b68909f,,,,,,,,,,,3162.73,3163.6963,,,3164.1941,3164.4319,,48,228,,,,,,,,,,,,,,,,bars/029.png,bars/mask002.png,,,,,,,,,,,,3,2,,,,,,,2,3,5,3,,,,,,2925.4212,3162.6845,space,237.2378,,3163.6963,3164.194,3164.432,3173.4344,space,8.985,,3173.4354,42,3,3174.4511,3174.4511,3174.4962,,,,0,0,0,0,1,90,45,,,,,,,,
,,611cf4b38923b75da77562bf,65af55d6988ae06a92401049,2024-01-23_08h05.06.420,bars,2023.2.3,Win32,29.76190476,657b66ea316d21385b68909f,,,,,,,,,,,3174.4969,3175.4953,,,3176.0027,3176.2499,,146,146,,,,,,,,,,,,,,,,bars/023.png,bars/mask009.png,,,,,,,,,,,,0,2,,,,,,,4,1,3,1,,,,,,,,,,,3175.4953,3176.0025,3176.25,3184.1019,space,7.8297,,3184.1026,54,31,3185.0956,3185.0957,3185.1258,,,,0,1,1,1,1,20,115,,,,,,,,
,,611cf4b38923b75da77562bf,65af55d6988ae06a92401049,2024-01-23_08h05.06.420,bars,2023.2.3,Win32,29.76190476,657b66ea316d21385b68909f,,,,,,,,,,,3185.1265,3186.1244,,,3186.6323,3186.878,,44,224,,,,,,,,,,,,,,,,bars/031.png,bars/mask008.png,,,,,,,,,,,,0,2,,,,,,,6,0,5,0,,,,,,,,,,,3186.1246,3186.6322,3186.8782,3193.6862,space,6.7875,,3193.6863,76,9,3194.6804,3194.6804,3194.7146,,,,0,2,2,2,1,120,35,,,,,,,,
,,611cf4b38923b75da77562bf,65af55d6988ae06a92401049,2024-01-23_08h05.06.420,bars,2023.2.3,Win32,29.76190476,657b66ea316d21385b68909f,,,,,,,,,,,3194.7153,3195.7023,,,3196.2033,3196.4466,,143,-37,,,,,,,,,,,,,,,,bars/028.png,bars/mask008.png,,,,,,,,,,,,0,2,,,,,,,4,2,4,2,,,,,,,,,,,3195.7024,3196.2032,3196.4467,3207.5006,space,11.0334,,3207.5007,82,23,3208.4878,3208.4879,3208.515,,,,0,3,3,3,1,45,120,,,,,,,,
,,611cf4b38923b75da77562bf,65af55d6988ae06a92401049,2024-01-23_08h05.06.420,bars,2023.2.3,Win32,29.76190476,657b66ea316d21385b68909f,,,,,,,,,,,3208.5156,3209.5042,,,3209.9878,3210.2352,,133,133,,,,,,,,,,,,,,,,bars/009.png,bars/mask005.png,,,,,,,,,,,,0,2,,,,,,,6,4,6,4,,,,,,,,,,,3209.5042,3209.9876,3210.2352,3214.5146,space,4.2575,,3214.5148,62,28,3215.5173,3215.5175,3215.5481,,,,0,4,4,4,1,15,105,,,,,,,,
,,611cf4b38923b75da77562bf,65af55d6988ae06a92401049,2024-01-23_08h05.06.420,bars,2023.2.3,Win32,29.76190476,657b66ea316d21385b68909f,,,,,,,,,,,3215.5487,3216.5368,,,3217.0216,3217.2686,,167,-13,,,,,,,,,,,,,,,,bars/014.png,bars/mask001.png,,,,,,,,,,,,1,2,,,,,,,4,2,3,2,,,,,,,,,,,3216.5369,3217.0215,3217.2687,3223.6226,space,6.3306,,3223.6227,87,13,3224.6192,3224.6192,3224.6504,,,,0,5,5,5,1,80,0,,,,,,,,
,,611cf4b38923b75da77562bf,65af55d6988ae06a92401049,2024-01-23_08h05.06.420,bars,2023.2.3,Win32,29.76190476,657b66ea316d21385b68909f,,,,,,,,,,,3224.6517,3225.6628,,,3226.1675,3226.4192,,104,-76,,,,,,,,,,,,,,,,bars/007.png,bars/mask004.png,,,,,,,,,,,,0,2,,,,,,,2,4,2,5,,,,,,,,,,,3225.6629,3226.1674,3226.4194,3241.0016,space,14.5601,,3241.0016,71,49,3242.0017,3242.0018,3242.0406,,,,0,6,6,6,1,175,55,,,,,,,,
,,611cf4b38923b75da77562bf,65af55d6988ae06a92401049,2024-01-23_08h05.06.420,bars,2023.2.3,Win32,29.76190476,657b66ea316d21385b68909f,,,,,,,,,,,3242.0418,3243.0358,,,3243.5346,3243.783,,145,145,,,,,,,,,,,,,,,,bars/034.png,bars/mask002.png,,,,,,,,,,,,2,1,,,,,,,4,2,5,2,,,,,,,,,,,3243.0359,3243.5345,3243.783,3249.301,space,5.4961,,3249.301,20,80,3250.3015,3250.3016,3250.3364,,,,0,7,7,7,1,125,65,,,,,,,,
,,611cf4b38923b75da77562bf,65af55d6988ae06a92401049,2024-01-23_08h05.06.420,bars,2023.2.3,Win32,29.76190476,657b66ea316d21385b68909f,,,,,,,,,,,3250.3377,3251.3345,,,3251.8324,3252.074,,155,-25,,,,,,,,,,,,,,,,bars/004.png,bars/mask004.png,,,,,,,,,,,,0,2,,,,,,,2,4,2,6,,,,,,,,,,,3251.3345,3251.8324,3252.0741,3259.1511,space,7.0559,,3259.1512,50,30,3260.1403,3260.1404,3260.1748,,,,0,8,8,8,1,25,125,,,,,,,,
,,611cf4b38923b75da77562bf,65af55d6988ae06a92401049,2024-01-23_08h05.06.420,bars,2023.2.3,Win32,29.76190476,657b66ea316d21385b68909f,,,,,,,,,,,3260.1754,3261.1757,,,3261.6567,3261.9591,,7,187,,,,,,,,,,,,,,,,bars/040.png,bars/mask005.png,,,,,,,,,,,,2,2,,,,,,,0,2,0,2,,,,,,,,,,,3261.1758,3261.6567,3261.9592,3268.9002,space,6.9284,,3268.9006,47,2,3269.8883,3269.8884,3269.9212,,,,0,9,9,9,1,140,5,,,,,,,,
,,611cf4b38923b75da77562bf,65af55d6988ae06a92401049,2024-01-23_08h05.06.420,bars,2023.2.3,Win32,29.76190476,657b66ea316d21385b68909f,,,,,,,,,,,3269.922,3270.9159,,,3271.4329,3271.6864,,129,129,,,,,,,,,,,,,,,,bars/001.png,bars/mask004.png,,,,,,,,,,,,0,1,,,,,,,0,4,0,5,,,,,,,,,,,3270.916,3271.4329,3271.6864,3280.1014,space,8.4048,,3280.1014,1,44,3281.1082,3281.1083,3281.1406,,,,0,10,10,10,1,130,85,,,,,,,,
,,611cf4b38923b75da77562bf,65af55d6988ae06a92401049,2024-01-23_08h05.06.420,bars,2023.2.3,Win32,29.76190476,657b66ea316d21385b68909f,,,,,,,,,,,3281.1415,3282.1185,,,3282.6171,3282.844,,73,73,,,,,,,,,,,,,,,,bars/002.png,bars/mask008.png,,,,,,,,,,,,0,2,,,,,,,2,2,1,0,,,,,,,,,,,3282.1186,3282.617,3282.8441,3294.9557,space,12.0891,,3294.9558,57,12,3295.9568,3295.959,3295.9934,,,,0,11,11,11,1,130,85,,,,,,,,
,,611cf4b38923b75da77562bf,65af55d6988ae06a92401049,2024-01-23_08h05.06.420,bars,2023.2.3,Win32,29.76190476,657b66ea316d21385b68909f,,,,,,,,,,,3295.9957,3296.9945,,,3297.4835,3297.7342,,121,121,,,,,,,,,,,,,,,,bars/037.png,bars/mask005.png,,,,,,,,,,,,2,2,,,,,,,4,4,5,5,,,,,,,,,,,3296.9945,3297.4835,3297.7342,3313.8022,space,16.0464,,3313.8022,29,16,3314.7913,3314.7915,3314.872,,,,0,12,12,12,1,150,105,,,,,,,,
,,611cf4b38923b75da77562bf,65af55d6988ae06a92401049,2024-01-23_08h05.06.420,bars,2023.2.3,Win32,29.76190476,657b66ea316d21385b68909f,,,,,,,,,,,3314.873,3315.8525,,,3316.3521,3316.5901,,157,157,,,,,,,,,,,,,,,,bars/039.png,bars/mask004.png,,,,,,,,,,,,0,1,,,,,,,2,2,0,3,,,,,,,,,,,3315.8526,3316.352,3316.5903,3335.2926,space,18.6825,0.0012,3335.2927,18,52,3336.2718,3336.272,3336.293,,,,0,13,13,13,1,175,105,,,,,,,,
,,611cf4b38923b75da77562bf,65af55d6988ae06a92401049,2024-01-23_08h05.06.420,bars,2023.2.3,Win32,29.76190476,657b66ea316d21385b68909f,,,,,,,,,,,3336.294,3337.2877,,,3337.7866,3337.986,,115,115,,,,,,,,,,,,,,,,bars/039.png,bars/mask006.png,,,,,,,,,,,,3,2,,,,,,,4,4,5,4,,,,,,,,,,,3337.2879,3337.7862,3337.9861,3347.5911,space,9.5868,,3347.5915,60,10,3348.5855,3348.5856,3348.6212,,,,0,14,14,14,1,175,105,,,,,,,,
,,611cf4b38923b75da77562bf,65af55d6988ae06a92401049,2024-01-23_08h05.06.420,bars,2023.2.3,Win32,29.76190476,657b66ea316d21385b68909f,,,,,,,,,,,3348.6223,3349.622,,,3350.1094,3350.3522,,32,212,,,,,,,,,,,,,,,,bars/022.png,bars/mask002.png,,,,,,,,,,,,4,2,,,,,,,2,6,1,7,,,,,,,,,,,3349.622,3350.1093,3350.3523,3362.442,space,12.0694,,3362.4422,63,12,3363.4479,3363.4481,3363.4784,,,,0,15,15,15,1,95,20,,,,,,,,
,,611cf4b38923b75da77562bf,65af55d6988ae06a92401049,2024-01-23_08h05.06.420,bars,2023.2.3,Win32,29.76190476,657b66ea316d21385b68909f,,,,,,,,,,,3363.4791,3364.4797,,,3364.9881,3365.2395,,160,160,,,,,,,,,,,,,,,,bars/000.png,bars/mask006.png,,,,,,,,,,,,3,2,,,,,,,4,4,2,5,,,,,,,,,,,3364.4799,3364.988,3365.2396,3376.8612,space,11.6022,,3376.8613,60,15,3377.8577,3377.8579,3377.8932,,,,0,16,16,16,1,40,145,,,,,,,,
,,611cf4b38923b75da77562bf,65af55d6988ae06a92401049,2024-01-23_08h05.06.420,bars,2023.2.3,Win32,29.76190476,657b66ea316d21385b68909f,,,,,,,,,,,3377.8939,3378.8795,,,3379.3907,3379.6405,,178,-2,,,,,,,,,,,,,,,,bars/032.png,bars/mask005.png,,,,,,,,,,,,1,2,,,,,,,6,2,5,2,,,,,,,,,,,3378.8795,3379.3906,3379.6406,3389.0306,space,9.3679,,3389.0308,53,22,3390.0385,3390.0386,3390.0665,,,,0,17,17,17,1,125,20,,,,,,,,
,,611cf4b38923b75da77562bf,65af55d6988ae06a92401049,2024-01-23_08h05.06.420,bars,2023.2.3,Win32,29.76190476,657b66ea316d21385b68909f,,,,,,,,,,,3390.0679,3391.0443,,,3391.5381,3391.7898,,10,190,,,,,,,,,,,,,,,,bars/012.png,bars/mask009.png,,,,,,,,,,,,3,2,,,,,,,8,4,7,3,,,,,,,,,,,3391.0443,3391.5379,3391.7899,3402.8076,space,11.0011,,3402.808,80,5,3403.7928,3403.793,3403.8283,,,,0,18,18,18,1,90,15,,,,,,,,
,,611cf4b38923b75da77562bf,65af55d6988ae06a92401049,2024-01-23_08h05.06.420,bars,2023.2.3,Win32,29.76190476,657b66ea316d21385b68909f,,,,,,,,,,,3403.8296,3404.8112,,,3405.3038,3405.5425,,58,238,,,,,,,,,,,,,,,,bars/027.png,bars/mask003.png,,,,,,,,,,,,2,2,,,,,,,6,2,5,3,,,,,,,,,,,3404.8113,3405.3037,3405.5425,3420.711,space,15.1492,,3420.7112,52,8,3421.7001,3421.7002,3421.7377,,,,0,19,19,19,1,110,50,,,,,,,,
,,611cf4b38923b75da77562bf,65af55d6988ae06a92401049,2024-01-23_08h05.06.420,bars,2023.2.3,Win32,29.76190476,657b66ea316d21385b68909f,,,,,,,,,,,3421.7386,3422.7403,,,3423.2433,3423.4762,,141,-39,,,,,,,,,,,,,,,,bars/039.png,bars/mask004.png,,,,,,,,,,,,0,1,,,,,,,8,4,8,2,,,,,,,,,,,3422.7404,3423.2433,3423.4764,3436.7218,space,13.2225,,3436.7221,34,36,3437.7125,3437.7127,3437.7455,,,,0,20,20,20,1,175,105,,,,,,,,
,,611cf4b38923b75da77562bf,65af55d6988ae06a92401049,2024-01-23_08h05.06.420,bars,2023.2.3,Win32,29.76190476,657b66ea316d21385b68909f,,,,,,,,,,,3437.7461,3438.7266,,,3439.2097,3439.4606,,178,178,,,,,,,,,,,,,,,,bars/008.png,bars/mask005.png,,,,,,,,,,,,6,2,,,,,,,6,6,5,6,,,,,,,,,,,3438.7267,3439.2096,3439.4606,3448.4759,space,8.9952,,3448.4759,68,2,3449.4824,3449.4824,3449.5166,,,,0,21,21,21,1,110,0,,,,,,,,
,,611cf4b38923b75da77562bf,65af55d6988ae06a92401049,2024-01-23_08h05.06.420,bars,2023.2.3,Win32,29.76190476,657b66ea316d21385b68909f,,,,,,,,,,,3449.5174,3450.5091,,,3451.0098,3451.2476,,178,178,,,,,,,,,,,,,,,,bars/000.png,bars/mask001.png,,,,,,,,,,,,0,2,,,,,,,8,4,9,4,,,,,,,,,,,3450.5093,3451.0098,3451.2477,3455.3446,space,4.0754,,3455.3447,42,33,3456.3311,3456.3312,3456.3606,,,,0,22,22,22,1,40,145,,,,,,,,
,,611cf4b38923b75da77562bf,65af55d6988ae06a92401049,2024-01-23_08h05.06.420,bars,2023.2.3,Win32,29.76190476,657b66ea316d21385b68909f,,,,,,,,,,,3456.3681,3457.3655,,,3457.846,3458.0823,,150,-30,,,,,,,,,,,,,,,,bars/028.png,bars/mask002.png,,,,,,,,,,,,0,2,,,,,,,10,2,10,2,,,,,,,,,,,3457.3656,3457.8459,3458.0824,3464.6246,space,6.5218,,3464.6251,75,30,3465.6233,3465.6234,3465.651,,,,0,23,23,23,1,45,120,,,,,,,,
,,611cf4b38923b75da77562bf,65af55d6988ae06a92401049,2024-01-23_08h05.06.420,bars,2023.2.3,Win32,29.76190476,657b66ea316d21385b68909f,,,,,,,,,,,3465.6516,3466.648,,,3467.1436,3467.3961,,177,177,,,,,,,,,,,,,,,,bars/020.png,bars/mask009.png,,,,,,,,,,,,5,2,,,,,,,10,4,10,6,,,,,,,,,,,3466.6482,3467.1436,3467.3961,3482.608,space,15.1904,,3482.6081,62,7,3483.5908,3483.5908,3483.6191,,,,0,24,24,24,1,115,170,,,,,,,,
,,611cf4b38923b75da77562bf,65af55d6988ae06a92401049,2024-01-23_08h05.06.420,bars,2023.2.3,Win32,29.76190476,657b66ea316d21385b68909f,,,,,,,,,,,3483.6206,3484.6003,,,3485.1128,3485.3661,,10,190,,,,,,,,,,,,,,,,bars/007.png,bars/mask009.png,,,,,,,,,,,,5,1,,,,,,,10,6,9,7,,,,,,,,,,,3484.6004,3485.1126,3485.3661,3492.0179,space,6.6307,,3492.018,15,45,3493.0149,3493.015,3493.0513,,,,0,25,25,25,1,175,55,,,,,,,,
,,611cf4b38923b75da77562bf,65af55d6988ae06a92401049,2024-01-23_08h05.06.420,bars,2023.2.3,Win32,29.76190476,657b66ea316d21385b68909f,,,,,,,,,,,3493.0519,3494.0339,,,3494.5162,3494.7665,,20,20,,,,,,,,,,,,,,,,bars/035.png,bars/mask005.png,,,,,,,,,,,,2,1,,,,,,,10,8,10,8,,,,,,,,,,,3494.034,3494.5162,3494.7667,3499.1304,space,4.3465,,3499.1305,25,40,3500.143,3500.143,3500.1697,,,,0,26,26,26,1,175,60,,,,,,,,
,,611cf4b38923b75da77562bf,65af55d6988ae06a92401049,2024-01-23_08h05.06.420,bars,2023.2.3,Win32,29.76190476,657b66ea316d21385b68909f,,,,,,,,,,,3500.1713,3501.1668,,,3501.6631,3501.924,,112,112,,,,,,,,,,,,,,,,bars/037.png,bars/mask008.png,,,,,,,,,,,,8,2,,,,,,,10,10,10,10,,,,,,,,,,,3501.167,3501.663,3501.9241,3508.3177,space,6.3729,,3508.3178,38,7,3509.3132,3509.3134,3509.3499,,,,0,27,27,27,1,150,105,,,,,,,,
,,611cf4b38923b75da77562bf,65af55d6988ae06a92401049,2024-01-23_08h05.06.420,bars,2023.2.3,Win32,29.76190476,657b66ea316d21385b68909f,,,,,,,,,,,3509.3514,3510.3304,,,3510.8081,3511.0332,,37,217,,,,,,,,,,,,,,,,bars/027.png,bars/mask009.png,,,,,,,,,,,,5,2,,,,,,,10,8,10,8,,,,,,,,,,,3510.3305,3510.8077,3511.0332,3520.3336,space,9.2809,,3520.3338,73,13,3521.3332,3521.3333,3521.3616,,,,0,28,28,28,1,110,50,,,,,,,,
,,611cf4b38923b75da77562bf,65af55d6988ae06a92401049,2024-01-23_08h05.06.420,bars,2023.2.3,Win32,29.76190476,657b66ea316d21385b68909f,,,,,,,,,,,3521.3622,3522.3492,,,3522.8293,3523.0832,,45,45,,,,,,,,,,,,,,,,bars/034.png,bars/mask000.png,,,,,,,,,,,,3,2,,,,,,,8,10,8,10,,,,,,,,,,,3522.3493,3522.8293,3523.0832,3529.8454,space,6.7398,,3529.846,80,20,3530.8287,3530.8288,3530.8605,,,,0,29,29,29,1,125,65,,,,,,,,
,,611cf4b38923b75da77562bf,65af55d6988ae06a92401049,2024-01-23_08h05.06.420,bars,2023.2.3,Win32,29.76190476,657b66ea316d21385b68909f,,,,,,,,,,,3530.8616,3531.859,,,3532.3598,3532.6426,,45,225,,,,,,,,,,,,,,,,bars/025.png,bars/mask007.png,,,,,,,,,,,,8,2,,,,,,,6,10,7,10,,,,,,,,,,,3531.8591,3532.3597,3532.6426,3539.6462,space,6.9823,,3539.6463,60,5,3540.638,3540.639,3540.6714,,,,0,30,30,30,1,105,40,,,,,,,,
,,611cf4b38923b75da77562bf,65af55d6988ae06a92401049,2024-01-23_08h05.06.420,bars,2023.2.3,Win32,29.76190476,657b66ea316d21385b68909f,,,,,,,,,,,3540.6739,3541.6751,,,3542.1832,3542.4428,,71,71,,,,,,,,,,,,,,,,bars/011.png,bars/mask009.png,,,,,,,,,,,,5,2,,,,,,,4,10,3,10,,,,,,,,,,,3541.6751,3542.1831,3542.4429,3548.8762,space,6.4142,,3548.8763,89,14,3549.8815,3549.8816,3549.9178,,,,0,31,31,31,1,160,85,,,,,,,,
,,611cf4b38923b75da77562bf,65af55d6988ae06a92401049,2024-01-23_08h05.06.420,bars,2023.2.3,Win32,29.76190476,657b66ea316d21385b68909f,,,,,,,,,,,3549.919,3550.9131,,,3551.4163,3551.6643,,157,157,,,,,,,,,,,,,,,,bars/004.png,bars/mask006.png,,,,,,,,,,,,0,2,,,,,,,6,10,7,10,,,,,,,,,,,3550.9131,3551.4163,3551.6643,3559.086,space,7.4022,,3559.0865,48,32,3560.0626,3560.0628,3560.0917,,,,0,32,32,32,1,25,125,,,,,,,,
,,611cf4b38923b75da77562bf,65af55d6988ae06a92401049,2024-01-23_08h05.06.420,bars,2023.2.3,Win32,29.76190476,657b66ea316d21385b68909f,,,,,,,,,,,3560.0928,3561.0812,,,3561.5917,3561.8312,,2,182,,,,,,,,,,,,,,,,bars/039.png,bars/mask003.png,,,,,,,,,,,,2,1,,,,,,,4,10,3,9,,,,,,,,,,,3561.0814,3561.5917,3561.8312,3569.7586,space,7.9029,,3569.7589,7,77,3570.745,3570.7451,3570.7784,,,,0,33,33,33,1,175,105,,,,,,,,
,,611cf4b38923b75da77562bf,65af55d6988ae06a92401049,2024-01-23_08h05.06.420,bars,2023.2.3,Win32,29.76190476,657b66ea316d21385b68909f,,,,,,,,,,,3570.779,3571.7722,,,3572.2772,3572.5032,,21,201,,,,,,,,,,,,,,,,bars/036.png,bars/mask000.png,,,,,,,,,,,,8,2,,,,,,,6,8,8,8,,,,,,,,,,,3571.7722,3572.277,3572.5033,3577.8523,space,5.3261,,3577.8523,56,1,3578.8339,3578.8341,3578.8653,,,,0,34,34,34,1,145,20,,,,,,,,
,,611cf4b38923b75da77562bf,65af55d6988ae06a92401049,2024-01-23_08h05.06.420,bars,2023.2.3,Win32,29.76190476,657b66ea316d21385b68909f,,,,,,,,,,,3578.8662,3579.849,,,3580.3526,3580.5938,,167,167,,,,,,,,,,,,,,,,bars/026.png,bars/mask004.png,,,,,,,,,,,,0,1,,,,,,,4,6,4,6,,,,,,,,,,,3579.8492,3580.3525,3580.5939,3586.4486,space,5.8355,,3586.4487,48,82,3587.4334,3587.4336,3587.469,,,,0,35,35,35,1,35,85,,,,,,,,
,,611cf4b38923b75da77562bf,65af55d6988ae06a92401049,2024-01-23_08h05.06.420,bars,2023.2.3,Win32,29.76190476,657b66ea316d21385b68909f,,,,,,,,,,,3587.4702,3588.4615,,,3588.9601,3589.2061,,169,-11,,,,,,,,,,,,,,,,bars/003.png,bars/mask003.png,,,,,,,,,,,,0,2,,,,,,,2,4,1,4,,,,,,,,,,,3588.4615,3588.96,3589.2061,3600.5976,space,11.3683,,3600.5977,36,29,3601.6025,3601.6026,3601.6485,,,,0,36,36,36,1,25,140,,,,,,,,
,,611cf4b38923b75da77562bf,65af55d6988ae06a92401049,2024-01-23_08h05.06.420,bars,2023.2.3,Win32,29.76190476,657b66ea316d21385b68909f,,,,,,,,,,,3601.6491,3602.6486,,,3603.1468,3603.3827,,6,6,,,,,,,,,,,,,,,,bars/041.png,bars/mask003.png,,,,,,,,,,,,1,1,,,,,,,0,2,1,0,,,,,,,,,,,3602.6487,3603.1467,3603.3827,3610.3187,space,6.9146,,3610.3188,14,79,3611.3028,3611.3029,3611.3367,,,,0,37,37,37,1,20,85,,,,,,,,
,,611cf4b38923b75da77562bf,65af55d6988ae06a92401049,2024-01-23_08h05.06.420,bars,2023.2.3,Win32,29.76190476,657b66ea316d21385b68909f,,,,,,,,,,,3611.3403,3612.3456,,,3612.849,3613.1002,,176,-4,,,,,,,,,,,,,,,,bars/041.png,bars/mask005.png,,,,,,,,,,,,0,1,,,,,,,2,0,2,1,,,,,,,,,,,3612.3457,3612.8489,3613.1003,3616.3736,space,3.2542,,3616.3737,24,89,3617.3667,3617.3668,3617.397,,,,0,38,38,38,1,20,85,,,,,,,,
,,611cf4b38923b75da77562bf,65af55d6988ae06a92401049,2024-01-23_08h05.06.420,bars,2023.2.3,Win32,29.76190476,657b66ea316d21385b68909f,,,,,,,,,,,3617.398,3618.388,,,3618.8956,3619.138,,161,161,,,,,,,,,,,,,,,,bars/032.png,bars/mask007.png,,,,,,,,,,,,0,1,,,,,,,4,2,5,2,,,,,,,,,,,3618.3881,3618.8954,3619.138,3627.7803,space,8.6193,,3627.7805,36,39,3628.7827,3628.7828,3628.8118,,,,0,39,39,39,1,125,20,,,,,,,,
,,611cf4b38923b75da77562bf,65af55d6988ae06a92401049,2024-01-23_08h05.06.420,bars,2023.2.3,Win32,29.76190476,657b66ea316d21385b68909f,,,,,,,,,,,3628.8124,3629.8063,,,3630.3004,3630.5515,,133,133,,,,,,,,,,,,,,,,bars/001.png,bars/mask000.png,,,,,,,,,,,,6,1,,,,,,,6,0,7,1,,,,,,,,,,,3629.8064,3630.3001,3630.5516,3636.0977,space,5.5255,,3636.0978,3,48,3637.1003,3637.1003,3637.1337,,,,0,40,40,40,1,130,85,,,,,,,,
,,611cf4b38923b75da77562bf,65af55d6988ae06a92401049,2024-01-23_08h05.06.420,bars,2023.2.3,Win32,29.76190476,657b66ea316d21385b68909f,,,,,,,,,,,3637.1348,3638.1338,,,3638.6165,3638.8818,,156,156,,,,,,,,,,,,,,,,bars/020.png,bars/mask007.png,,,,,,,,,,,,1,2,,,,,,,4,2,4,2,,,,,,,,,,,3638.1339,3638.6164,3638.8818,3643.3972,space,4.4961,,3643.3974,41,14,3644.4019,3644.4019,3644.4326,,,,0,41,41,41,1,115,170,,,,,,,,
,,611cf4b38923b75da77562bf,65af55d6988ae06a92401049,2024-01-23_08h05.06.420,bars,2023.2.3,Win32,29.76190476,657b66ea316d21385b68909f,,,,,,,,,,,3644.4339,3645.4247,,,3645.9305,3646.183,,157,157,,,,,,,,,,,,,,,,bars/028.png,bars/mask003.png,,,,,,,,,,,,0,2,,,,,,,2,4,1,3,,,,,,,,,,,3645.4248,3645.9304,3646.183,3654.7897,space,8.5898,,3654.7898,68,37,3655.7673,3655.7675,3655.7977,,,,0,42,42,42,1,45,120,,,,,,,,
,,611cf4b38923b75da77562bf,65af55d6988ae06a92401049,2024-01-23_08h05.06.420,bars,2023.2.3,Win32,29.76190476,657b66ea316d21385b68909f,,,,,,,,,,,3655.7985,3656.7844,,,3657.2914,3657.5173,,158,-22,,,,,,,,,,,,,,,,bars/049.png,bars/mask000.png,,,,,,,,,,,,1,1,,,,,,,0,2,1,1,,,,,,,,,,,3656.7845,3657.2912,3657.5174,3666.4568,space,8.9152,,3666.4568,2,43,3667.4337,3667.4338,3667.4661,,,,0,43,43,43,1,160,115,,,,,,,,
,,611cf4b38923b75da77562bf,65af55d6988ae06a92401049,2024-01-23_08h05.06.420,bars,2023.2.3,Win32,29.76190476,657b66ea316d21385b68909f,,,,,,,,,,,3667.4668,3668.4508,,,3668.9406,3669.1805,,169,169,,,,,,,,,,,,,,,,bars/015.png,bars/mask000.png,,,,,,,,,,,,3,2,,,,,,,0,4,0,4,,,,,,,,,,,3668.4509,3668.9405,3669.1806,3677.9916,space,8.7861,,3677.9916,59,9,3678.9902,3678.9903,3679.0334,,,,0,44,44,44,1,110,160,,,,,,,,
,,611cf4b38923b75da77562bf,65af55d6988ae06a92401049,2024-01-23_08h05.06.420,bars,2023.2.3,Win32,29.76190476,657b66ea316d21385b68909f,,,,,,,,,,,3679.0351,3680.0379,,,3680.5379,3680.7928,,7,7,,,,,,,,,,,,,,,,bars/014.png,bars/mask006.png,,,,,,,,,,,,7,2,,,,,,,0,6,0,9,,,,,,,,,,,3680.0379,3680.5378,3680.7929,3686.8097,space,5.9945,,3686.8098,73,7,3687.8128,3687.813,3687.8421,,,,0,45,45,45,1,80,0,,,,,,,,
,,611cf4b38923b75da77562bf,65af55d6988ae06a92401049,2024-01-23_08h05.06.420,bars,2023.2.3,Win32,29.76190476,657b66ea316d21385b68909f,,,,,,,,,,,3687.8426,3688.8493,,,3689.3335,3689.5185,,168,-12,,,,,,,,,,,,,,,,bars/024.png,bars/mask004.png,,,,,,,,,,,,3,2,,,,,,,2,4,2,3,,,,,,,,,,,3688.8494,3689.3334,3689.5186,3694.6399,space,5.1016,,3694.64,48,2,3695.6317,3695.6318,3695.6599,,,,0,46,46,46,1,120,170,,,,,,,,
,,611cf4b38923b75da77562bf,65af55d6988ae06a92401049,2024-01-23_08h05.06.420,bars,2023.2.3,Win32,29.76190476,657b66ea316d21385b68909f,,,,,,,,,,,3695.6616,3696.641,,,3697.1271,3697.358,,61,61,,,,,,,,,,,,,,,,bars/047.png,bars/mask002.png,,,,,,,,,,,,1,2,,,,,,,0,2,1,2,,,,,,,,,,,3696.641,3697.1271,3697.358,3700.7176,space,3.3344,,3700.7177,46,9,3701.7048,3701.7048,3701.7365,,,,0,47,47,47,1,15,70,,,,,,,,
,,611cf4b38923b75da77562bf,65af55d6988ae06a92401049,2024-01-23_08h05.06.420,bars,2023.2.3,Win32,29.76190476,657b66ea316d21385b68909f,,,,,,,,,,,3701.738,3702.7417,,,3703.2283,3703.469,,155,155,,,,,,,,,,,,,,,,bars/000.png,bars/mask006.png,,,,,,,,,,,,3,2,,,,,,,0,4,2,5,,,,,,,,,,,3702.7418,3703.2283,3703.469,3709.9406,space,6.4506,,3709.941,65,10,3710.938,3710.938,3710.9672,,,,0,48,48,48,1,40,145,,,,,,,,
,,611cf4b38923b75da77562bf,65af55d6988ae06a92401049,2024-01-23_08h05.06.420,bars,2023.2.3,Win32,29.76190476,657b66ea316d21385b68909f,,,,,,,,,,,3710.9678,3711.984,,,3712.4772,3712.7253,,87,87,,,,,,,,,,,,,,,,bars/025.png,bars/mask008.png,,,,,,,,,,,,0,1,,,,,,,2,2,1,3,,,,,,,,,,,3711.9841,3712.4772,3712.7253,3720.9254,space,8.1766,,3720.9255,18,47,3721.9107,3721.9108,3721.9464,,,,0,49,49,49,1,105,40,,,,,,,,
,,611cf4b38923b75da77562bf,65af55d6988ae06a92401049,2024-01-23_08h05.06.420,bars,2023.2.3,Win32,29.76190476,657b66ea316d21385b68909f,,,,,,,,,,,,,,,,,,,,,,,,,,,,,,,,,,,,,,,,,,,,,,,,,,,,,,,,,,,,,,,,,,,,,,,,,,,,,,,,,,,,,,,,,,,,,3721.9468,3781.9282,0,2,2,2,1,sequence_tables/blk016.csv
,,611cf4b38923b75da77562bf,65af55d6988ae06a92401049,2024-01-23_08h05.06.420,bars,2023.2.3,Win32,29.76190476,657b66ea316d21385b68909f,,,,,,,,,,,3815.7563,3816.7306,,,3817.2248,3817.48,,63,63,,,,,,,,,,,,,,,,bars/019.png,bars/mask001.png,,,,,,,,,,,,3,1,,,,,,,7,6,8,7,,,,,,3781.9657,3815.7103,space,33.6973,,3816.7307,3817.2247,3817.4801,3825.741,space,8.235,,3825.7411,18,42,3826.7316,3826.7317,3826.7653,,,,0,0,0,0,1,45,105,,,,,,,,
,,611cf4b38923b75da77562bf,65af55d6988ae06a92401049,2024-01-23_08h05.06.420,bars,2023.2.3,Win32,29.76190476,657b66ea316d21385b68909f,,,,,,,,,,,3826.7667,3827.7733,,,3828.2736,3828.524,,97,97,,,,,,,,,,,,,,,,bars/023.png,bars/mask009.png,,,,,,,,,,,,1,2,,,,,,,5,4,7,3,,,,,,,,,,,3827.7734,3828.2736,3828.5242,3837.4068,space,8.8619,,3837.4069,77,18,3838.4064,3838.4065,3838.4413,,,,0,1,1,1,1,20,115,,,,,,,,
,,611cf4b38923b75da77562bf,65af55d6988ae06a92401049,2024-01-23_08h05.06.420,bars,2023.2.3,Win32,29.76190476,657b66ea316d21385b68909f,,,,,,,,,,,3838.4419,3839.4341,,,3839.9227,3840.1533,,46,46,,,,,,,,,,,,,,,,bars/021.png,bars/mask000.png,,,,,,,,,,,,0,2,,,,,,,3,2,2,2,,,,,,,,,,,3839.4341,3839.9226,3840.1535,3846.7732,space,6.5957,,3846.7734,71,24,3847.787,3847.787,3847.824,,,,0,2,2,2,1,155,70,,,,,,,,
,,611cf4b38923b75da77562bf,65af55d6988ae06a92401049,2024-01-23_08h05.06.420,bars,2023.2.3,Win32,29.76190476,657b66ea316d21385b68909f,,,,,,,,,,,3847.8259,3848.8369,,,3849.3151,3849.5569,,152,152,,,,,,,,,,,,,,,,bars/044.png,bars/mask009.png,,,,,,,,,,,,0,2,,,,,,,1,0,0,0,,,,,,,,,,,3848.8371,3849.315,3849.557,3861.0148,space,11.4383,,3861.0149,77,3,3862.0026,3862.0026,3862.0327,,,,0,3,3,3,1,75,155,,,,,,,,
,,611cf4b38923b75da77562bf,65af55d6988ae06a92401049,2024-01-23_08h05.06.420,bars,2023.2.3,Win32,29.76190476,657b66ea316d21385b68909f,,,,,,,,,,,3862.0332,3863.0251,,,3863.5086,3863.752,,157,157,,,,,,,,,,,,,,,,bars/046.png,bars/mask000.png,,,,,,,,,,,,4,1,,,,,,,3,0,4,0,,,,,,,,,,,3863.0253,3863.5085,3863.7521,3875.1573,space,11.3831,,3875.1574,2,72,3876.1547,3876.1547,3876.1893,,,,0,4,4,4,1,155,85,,,,,,,,
,,611cf4b38923b75da77562bf,65af55d6988ae06a92401049,2024-01-23_08h05.06.420,bars,2023.2.3,Win32,29.76190476,657b66ea316d21385b68909f,,,,,,,,,,,3876.19,3877.188,,,3877.6781,3877.9312,,2,182,,,,,,,,,,,,,,,,bars/036.png,bars/mask006.png,,,,,,,,,,,,0,2,,,,,,,1,2,2,1,,,,,,,,,,,3877.1882,3877.678,3877.9318,3883.9107,space,5.9583,,3883.9108,37,18,3884.9069,3884.9069,3884.9395,,,,0,5,5,5,1,145,20,,,,,,,,
,,611cf4b38923b75da77562bf,65af55d6988ae06a92401049,2024-01-23_08h05.06.420,bars,2023.2.3,Win32,29.76190476,657b66ea316d21385b68909f,,,,,,,,,,,3884.9419,3885.9493,,,3886.8374,3886.8411,,14,14,,,,,,,,,,,,,,,,bars/038.png,bars/mask008.png,,,,,,,,,,,,0,1,,,,,,,0,4,0,5,,,,,,,,,,,3885.9494,3886.8374,3886.8412,3898.3443,space,11.4852,0.001,3898.3445,29,56,3899.3422,3899.3422,3899.379,,,,0,6,6,6,1,165,70,,,,,,,,
,,611cf4b38923b75da77562bf,65af55d6988ae06a92401049,2024-01-23_08h05.06.420,bars,2023.2.3,Win32,29.76190476,657b66ea316d21385b68909f,,,,,,,,,,,3899.38,3900.3763,,,3900.8762,3901.1222,,10,190,,,,,,,,,,,,,,,,bars/041.png,bars/mask006.png,,,,,,,,,,,,1,1,,,,,,,2,6,1,5,,,,,,,,,,,3900.3763,3900.876,3901.1223,3907.9406,space,6.8042,,3907.9407,10,75,3908.9421,3908.9429,3908.973,,,,0,7,7,7,1,20,85,,,,,,,,
,,611cf4b38923b75da77562bf,65af55d6988ae06a92401049,2024-01-23_08h05.06.420,bars,2023.2.3,Win32,29.76190476,657b66ea316d21385b68909f,,,,,,,,,,,3908.9737,3909.9694,,,3910.4716,3910.726,,4,4,,,,,,,,,,,,,,,,bars/041.png,bars/mask006.png,,,,,,,,,,,,1,1,,,,,,,4,4,3,2,,,,,,,,,,,3909.9695,3910.4716,3910.7261,3916.0464,space,5.3013,,3916.0464,16,81,3917.0285,3917.0286,3917.0732,,,,0,8,8,8,1,20,85,,,,,,,,
,,611cf4b38923b75da77562bf,65af55d6988ae06a92401049,2024-01-23_08h05.06.420,bars,2023.2.3,Win32,29.76190476,657b66ea316d21385b68909f,,,,,,,,,,,3917.0738,3918.063,,,3918.5448,3918.7772,,162,162,,,,,,,,,,,,,,,,bars/043.png,bars/mask006.png,,,,,,,,,,,,0,2,,,,,,,2,2,2,1,,,,,,,,,,,3918.0631,3918.5447,3918.7772,3924.6673,space,5.8658,,3924.6674,48,32,3925.6658,3925.6659,3925.7099,,,,0,9,9,9,1,30,130,,,,,,,,
,,611cf4b38923b75da77562bf,65af55d6988ae06a92401049,2024-01-23_08h05.06.420,bars,2023.2.3,Win32,29.76190476,657b66ea316d21385b68909f,,,,,,,,,,,3925.7112,3926.7181,,,3927.208,3927.4499,,95,95,,,,,,,,,,,,,,,,bars/006.png,bars/mask006.png,,,,,,,,,,,,3,2,,,,,,,0,4,0,3,,,,,,,,,,,3926.7182,3927.2079,3927.45,3940.8937,space,13.4246,0.0007,3940.8938,60,5,3941.8826,3941.8826,3941.9163,,,,0,10,10,10,1,35,100,,,,,,,,
,,611cf4b38923b75da77562bf,65af55d6988ae06a92401049,2024-01-23_08h05.06.420,bars,2023.2.3,Win32,29.76190476,657b66ea316d21385b68909f,,,,,,,,,,,3941.9169,3942.917,,,3943.4076,3943.6523,,139,139,,,,,,,,,,,,,,,,bars/049.png,bars/mask004.png,,,,,,,,,,,,0,1,,,,,,,0,6,1,6,,,,,,,,,,,3942.9172,3943.4074,3943.6524,3962.0536,space,18.3788,,3962.058,21,24,3963.0478,3963.048,3963.0834,,,,0,11,11,11,1,160,115,,,,,,,,
,,611cf4b38923b75da77562bf,65af55d6988ae06a92401049,2024-01-23_08h05.06.420,bars,2023.2.3,Win32,29.76190476,657b66ea316d21385b68909f,,,,,,,,,,,3963.0841,3964.079,,,3964.5785,3964.8196,,154,154,,,,,,,,,,,,,,,,bars/016.png,bars/mask009.png,,,,,,,,,,,,2,2,,,,,,,0,4,2,3,,,,,,,,,,,3964.0792,3964.5784,3964.8197,3970.6847,space,5.8438,,3970.6847,66,11,3971.6755,3971.6757,3971.7056,,,,0,12,12,12,1,40,165,,,,,,,,
,,611cf4b38923b75da77562bf,65af55d6988ae06a92401049,2024-01-23_08h05.06.420,bars,2023.2.3,Win32,29.76190476,657b66ea316d21385b68909f,,,,,,,,,,,3971.7071,3972.7015,,,3973.2007,3973.4392,,113,-67,,,,,,,,,,,,,,,,bars/018.png,bars/mask009.png,,,,,,,,,,,,1,2,,,,,,,0,6,0,5,,,,,,,,,,,3972.7015,3973.2005,3973.4393,3983.3986,space,9.9379,,3983.399,37,23,3984.4012,3984.4013,3984.4315,,,,0,13,13,13,1,150,90,,,,,,,,
,,611cf4b38923b75da77562bf,65af55d6988ae06a92401049,2024-01-23_08h05.06.420,bars,2023.2.3,Win32,29.76190476,657b66ea316d21385b68909f,,,,,,,,,,,3984.4322,3985.4189,,,3985.9273,3986.1757,,164,164,,,,,,,,,,,,,,,,bars/048.png,bars/mask007.png,,,,,,,,,,,,5,2,,,,,,,2,8,1,8,,,,,,,,,,,3985.419,3985.9272,3986.1757,3991.6091,space,5.421,,3991.6093,66,11,3992.6129,3992.6131,3992.6441,,,,0,14,14,14,1,50,175,,,,,,,,
,,611cf4b38923b75da77562bf,65af55d6988ae06a92401049,2024-01-23_08h05.06.420,bars,2023.2.3,Win32,29.76190476,657b66ea316d21385b68909f,,,,,,,,,,,3992.6448,3993.652,,,3994.1456,3994.4156,,165,-15,,,,,,,,,,,,,,,,bars/003.png,bars/mask000.png,,,,,,,,,,,,1,2,,,,,,,0,6,1,5,,,,,,,,,,,3993.6521,3994.1455,3994.4157,4002.574,space,8.1386,,4002.5741,40,25,4003.5713,4003.5714,4003.6046,,,,0,15,15,15,1,25,140,,,,,,,,
,,611cf4b38923b75da77562bf,65af55d6988ae06a92401049,2024-01-23_08h05.06.420,bars,2023.2.3,Win32,29.76190476,657b66ea316d21385b68909f,,,,,,,,,,,4003.6067,4004.6052,,,4005.1111,4005.3522,,128,128,,,,,,,,,,,,,,,,bars/028.png,bars/mask003.png,,,,,,,,,,,,7,2,,,,,,,0,8,1,9,,,,,,,,,,,4004.6053,4005.111,4005.3523,4022.5049,space,17.1345,0.0005,4022.5051,83,8,4023.5012,4023.5012,4023.5035,,,,0,16,16,16,1,45,120,,,,,,,,
,,611cf4b38923b75da77562bf,65af55d6988ae06a92401049,2024-01-23_08h05.06.420,bars,2023.2.3,Win32,29.76190476,657b66ea316d21385b68909f,,,,,,,,,,,4023.5041,4024.4849,,,4024.9949,4025.2429,,131,131,,,,,,,,,,,,,,,,bars/028.png,bars/mask006.png,,,,,,,,,,,,6,2,,,,,,,2,10,1,10,,,,,,,,,,,4024.485,4024.9948,4025.2429,4036.5655,space,11.3037,,4036.5656,86,11,4037.5557,4037.5558,4037.5855,,,,0,17,17,17,1,45,120,,,,,,,,
,,611cf4b38923b75da77562bf,65af55d6988ae06a92401049,2024-01-23_08h05.06.420,bars,2023.2.3,Win32,29.76190476,657b66ea316d21385b68909f,,,,,,,,,,,4037.586,4038.5992,,,4039.0962,4039.3378,,18,18,,,,,,,,,,,,,,,,bars/014.png,bars/mask006.png,,,,,,,,,,,,4,2,,,,,,,4,10,2,9,,,,,,,,,,,4038.5993,4039.096,4039.3379,4052.8453,space,13.4837,,4052.8453,62,18,4053.8388,4053.8388,4053.8672,,,,0,18,18,18,1,80,0,,,,,,,,
,,611cf4b38923b75da77562bf,65af55d6988ae06a92401049,2024-01-23_08h05.06.420,bars,2023.2.3,Win32,29.76190476,657b66ea316d21385b68909f,,,,,,,,,,,4053.8684,4054.8629,,,4055.3623,4055.618,,82,82,,,,,,,,,,,,,,,,bars/038.png,bars/mask007.png,,,,,,,,,,,,6,2,,,,,,,2,10,3,10,,,,,,,,,,,4054.863,4055.3622,4055.6182,4060.9394,space,5.2985,,4060.9395,83,12,4061.9331,4061.9333,4061.9614,,,,0,19,19,19,1,165,70,,,,,,,,
,,611cf4b38923b75da77562bf,65af55d6988ae06a92401049,2024-01-23_08h05.06.420,bars,2023.2.3,Win32,29.76190476,657b66ea316d21385b68909f,,,,,,,,,,,4061.962,4062.9499,,,4063.4447,4063.685,,135,135,,,,,,,,,,,,,,,,bars/025.png,bars/mask008.png,,,,,,,,,,,,0,1,,,,,,,0,8,0,8,,,,,,,,,,,4062.9499,4063.4446,4063.6857,4068.5376,space,4.8315,,4068.5378,30,85,4069.5331,4069.5332,4069.5683,,,,0,20,20,20,1,105,40,,,,,,,,
,,611cf4b38923b75da77562bf,65af55d6988ae06a92401049,2024-01-23_08h05.06.420,bars,2023.2.3,Win32,29.76190476,657b66ea316d21385b68909f,,,,,,,,,,,4069.5708,4070.5532,,,4071.0453,4071.2733,,132,-48,,,,,,,,,,,,,,,,bars/034.png,bars/mask004.png,,,,,,,,,,,,2,1,,,,,,,0,10,3,10,,,,,,,,,,,4070.5534,4071.0453,4071.2734,4082.9222,space,11.6252,,4082.9224,7,67,4083.9161,4083.9162,4083.9542,,,,0,21,21,21,1,125,65,,,,,,,,
,,611cf4b38923b75da77562bf,65af55d6988ae06a92401049,2024-01-23_08h05.06.420,bars,2023.2.3,Win32,29.76190476,657b66ea316d21385b68909f,,,,,,,,,,,4083.956,4084.9641,,,4085.4669,4085.7138,,139,139,,,,,,,,,,,,,,,,bars/001.png,bars/mask003.png,,,,,,,,,,,,2,1,,,,,,,2,10,3,9,,,,,,,,,,,4084.9642,4085.4667,4085.7138,4093.3529,space,7.6163,,4093.353,9,54,4094.3417,4094.3418,4094.3737,,,,0,22,22,22,1,130,85,,,,,,,,
,,611cf4b38923b75da77562bf,65af55d6988ae06a92401049,2024-01-23_08h05.06.420,bars,2023.2.3,Win32,29.76190476,657b66ea316d21385b68909f,,,,,,,,,,,4094.3745,4095.3634,,,4095.858,4096.1076,,155,155,,,,,,,,,,,,,,,,bars/011.png,bars/mask009.png,,,,,,,,,,,,0,1,,,,,,,0,8,0,8,,,,,,,,,,,4095.3636,4095.858,4096.1077,4110.554,space,14.4265,,4110.5541,5,70,4111.5581,4111.5582,4111.59,,,,0,23,23,23,1,160,85,,,,,,,,
,,611cf4b38923b75da77562bf,65af55d6988ae06a92401049,2024-01-23_08h05.06.420,bars,2023.2.3,Win32,29.76190476,657b66ea316d21385b68909f,,,,,,,,,,,4111.5913,4112.5745,,,4113.0658,4113.3125,,22,22,,,,,,,,,,,,,,,,bars/022.png,bars/mask007.png,,,,,,,,,,,,9,2,,,,,,,2,10,1,10,,,,,,,,,,,4112.5746,4113.0657,4113.3126,4126.2531,space,12.9228,,4126.2532,73,2,4127.242,4127.2421,4127.2829,,,,0,24,24,24,1,95,20,,,,,,,,
,,611cf4b38923b75da77562bf,65af55d6988ae06a92401049,2024-01-23_08h05.06.420,bars,2023.2.3,Win32,29.76190476,657b66ea316d21385b68909f,,,,,,,,,,,4127.2835,4128.2838,,,4128.775,4129.014,,20,200,,,,,,,,,,,,,,,,bars/017.png,bars/mask004.png,,,,,,,,,,,,1,2,,,,,,,4,8,3,8,,,,,,,,,,,4128.2838,4128.7749,4129.0141,4140.3968,space,11.36,,4140.397,55,25,4141.3992,4141.3993,4141.4311,,,,0,25,25,25,1,145,45,,,,,,,,
,,611cf4b38923b75da77562bf,65af55d6988ae06a92401049,2024-01-23_08h05.06.420,bars,2023.2.3,Win32,29.76190476,657b66ea316d21385b68909f,,,,,,,,,,,4141.4324,4142.4241,,,4142.9141,4143.1579,,133,133,,,,,,,,,,,,,,,,bars/037.png,bars/mask000.png,,,,,,,,,,,,3,1,,,,,,,6,10,6,9,,,,,,,,,,,4142.4241,4142.9139,4143.1584,4147.4868,space,4.3126,,4147.4869,17,28,4148.4916,4148.4916,4148.5249,,,,0,26,26,26,1,150,105,,,,,,,,
,,611cf4b38923b75da77562bf,65af55d6988ae06a92401049,2024-01-23_08h05.06.420,bars,2023.2.3,Win32,29.76190476,657b66ea316d21385b68909f,,,,,,,,,,,4148.5254,4149.5142,,,4150.0148,4150.2578,,160,160,,,,,,,,,,,,,,,,bars/021.png,bars/mask008.png,,,,,,,,,,,,4,1,,,,,,,4,10,5,10,,,,,,,,,,,4149.5142,4150.0148,4150.2579,4157.6722,space,7.3899,,4157.6723,5,90,4158.6773,4158.6774,4158.7115,,,,0,27,27,27,1,155,70,,,,,,,,
,,611cf4b38923b75da77562bf,65af55d6988ae06a92401049,2024-01-23_08h05.06.420,bars,2023.2.3,Win32,29.76190476,657b66ea316d21385b68909f,,,,,,,,,,,4158.713,4159.7074,,,4160.1897,4160.4431,,3,183,,,,,,,,,,,,,,,,bars/044.png,bars/mask003.png,,,,,,,,,,,,1,2,,,,,,,6,10,7,10,,,,,,,,,,,4159.7076,4160.1896,4160.4432,4177.2021,space,16.7353,,4177.2022,72,28,4178.1891,4178.1892,4178.2314,,,,0,28,28,28,1,75,155,,,,,,,,
,,611cf4b38923b75da77562bf,65af55d6988ae06a92401049,2024-01-23_08h05.06.420,bars,2023.2.3,Win32,29.76190476,657b66ea316d21385b68909f,,,,,,,,,,,4178.2322,4179.2324,,,4179.7237,4179.9724,,170,170,,,,,,,,,,,,,,,,bars/036.png,bars/mask007.png,,,,,,,,,,,,1,1,,,,,,,4,10,4,9,,,,,,,,,,,4179.2325,4179.7236,4179.9725,4184.5822,space,4.584,,4184.5825,25,30,4185.574,4185.5741,4185.6037,,,,0,29,29,29,1,145,20,,,,,,,,
,,611cf4b38923b75da77562bf,65af55d6988ae06a92401049,2024-01-23_08h05.06.420,bars,2023.2.3,Win32,29.76190476,657b66ea316d21385b68909f,,,,,,,,,,,4185.6043,4186.5977,,,4187.0985,4187.3397,,157,-23,,,,,,,,,,,,,,,,bars/034.png,bars/mask008.png,,,,,,,,,,,,0,1,,,,,,,6,8,6,8,,,,,,,,,,,4186.5978,4187.0985,4187.3397,4194.4689,space,7.1076,,4194.469,32,88,4195.4711,4195.4712,4195.5014,,,,0,30,30,30,1,125,65,,,,,,,,
,,611cf4b38923b75da77562bf,65af55d6988ae06a92401049,2024-01-23_08h05.06.420,bars,2023.2.3,Win32,29.76190476,657b66ea316d21385b68909f,,,,,,,,,,,4195.502,4196.5042,,,4197.0168,4197.2619,,164,-16,,,,,,,,,,,,,,,,bars/049.png,bars/mask003.png,,,,,,,,,,,,4,1,,,,,,,4,6,5,6,,,,,,,,,,,4196.5044,4197.0167,4197.262,4203.6879,space,6.4048,,4203.688,4,49,4204.6672,4204.668,4204.6994,,,,0,31,31,31,1,160,115,,,,,,,,
,,611cf4b38923b75da77562bf,65af55d6988ae06a92401049,2024-01-23_08h05.06.420,bars,2023.2.3,Win32,29.76190476,657b66ea316d21385b68909f,,,,,,,,,,,4204.7012,4205.6988,,,4206.2012,4206.4593,,34,214,,,,,,,,,,,,,,,,bars/031.png,bars/mask008.png,,,,,,,,,,,,6,2,,,,,,,2,8,1,6,,,,,,,,,,,4205.6989,4206.2011,4206.4608,4214.016,space,7.5397,,4214.016,86,1,4214.9951,4214.9952,4215.0266,,,,0,32,32,32,1,120,35,,,,,,,,
,,611cf4b38923b75da77562bf,65af55d6988ae06a92401049,2024-01-23_08h05.06.420,bars,2023.2.3,Win32,29.76190476,657b66ea316d21385b68909f,,,,,,,,,,,4215.0272,4216.0217,,,4216.529,4216.774,,93,93,,,,,,,,,,,,,,,,bars/023.png,bars/mask005.png,,,,,,,,,,,,2,2,,,,,,,0,6,0,6,,,,,,,,,,,4216.0218,4216.5288,4216.7741,4221.7336,space,4.9285,,4221.7337,73,22,4222.7223,4222.7224,4222.7527,,,,0,33,33,33,1,20,115,,,,,,,,
,,611cf4b38923b75da77562bf,65af55d6988ae06a92401049,2024-01-23_08h05.06.420,bars,2023.2.3,Win32,29.76190476,657b66ea316d21385b68909f,,,,,,,,,,,4222.7542,4223.7461,,,4224.2217,4224.4743,,52,232,,,,,,,,,,,,,,,,bars/029.png,bars/mask001.png,,,,,,,,,,,,7,2,,,,,,,2,8,3,9,,,,,,,,,,,4223.7462,4224.2216,4224.4744,4233.8561,space,9.3597,,4233.8561,38,7,4234.8389,4234.839,4234.8763,,,,0,34,34,34,1,90,45,,,,,,,,
,,611cf4b38923b75da77562bf,65af55d6988ae06a92401049,2024-01-23_08h05.06.420,bars,2023.2.3,Win32,29.76190476,657b66ea316d21385b68909f,,,,,,,,,,,4234.8775,4235.8797,,,4236.3711,4236.6117,,58,58,,,,,,,,,,,,,,,,bars/010.png,bars/mask008.png,,,,,,,,,,,,8,2,,,,,,,0,10,0,9,,,,,,,,,,,4235.8798,4236.3711,4236.6118,4243.3172,space,6.6788,,4243.3174,73,3,4244.3011,4244.3014,4244.338,,,,0,35,35,35,1,165,55,,,,,,,,
,,611cf4b38923b75da77562bf,65af55d6988ae06a92401049,2024-01-23_08h05.06.420,bars,2023.2.3,Win32,29.76190476,657b66ea316d21385b68909f,,,,,,,,,,,4244.3386,4245.3287,,,4245.8299,4246.0555,,145,-35,,,,,,,,,,,,,,,,bars/000.png,bars/mask006.png,,,,,,,,,,,,9,2,,,,,,,0,8,0,9,,,,,,,,,,,4245.3287,4245.8298,4246.0556,4254.0078,space,7.93,,4254.0081,75,0,4254.9921,4254.9922,4255.0292,,,,0,36,36,36,1,40,145,,,,,,,,
,,611cf4b38923b75da77562bf,65af55d6988ae06a92401049,2024-01-23_08h05.06.420,bars,2023.2.3,Win32,29.76190476,657b66ea316d21385b68909f,,,,,,,,,,,4255.0309,4256.0215,,,4256.5014,4256.7488,,96,96,,,,,,,,,,,,,,,,bars/011.png,bars/mask005.png,,,,,,,,,,,,4,2,,,,,,,2,6,3,6,,,,,,,,,,,4256.0216,4256.5014,4256.7489,4262.9594,space,6.1862,,4262.9596,64,11,4263.9638,4263.9639,4263.9947,,,,0,37,37,37,1,160,85,,,,,,,,
,,611cf4b38923b75da77562bf,65af55d6988ae06a92401049,2024-01-23_08h05.06.420,bars,2023.2.3,Win32,29.76190476,657b66ea316d21385b68909f,,,,,,,,,,,4263.9954,4264.9923,,,4265.4813,4265.7231,,3,3,,,,,,,,,,,,,,,,bars/040.png,bars/mask004.png,,,,,,,,,,,,7,2,,,,,,,4,8,4,7,,,,,,,,,,,4264.9923,4265.4811,4265.7232,4272.8896,space,7.1442,,4272.89,43,2,4273.8755,4273.8758,4273.9146,,,,0,38,38,38,1,140,5,,,,,,,,
,,611cf4b38923b75da77562bf,65af55d6988ae06a92401049,2024-01-23_08h05.06.420,bars,2023.2.3,Win32,29.76190476,657b66ea316d21385b68909f,,,,,,,,,,,4273.9168,4274.9101,,,4275.4004,4275.6534,,146,146,,,,,,,,,,,,,,,,bars/004.png,bars/mask005.png,,,,,,,,,,,,2,2,,,,,,,2,6,1,6,,,,,,,,,,,4274.9103,4275.4004,4275.6536,4280.6868,space,5.0209,,4280.687,59,21,4281.6876,4281.6876,4281.7179,,,,0,39,39,39,1,25,125,,,,,,,,
,,611cf4b38923b75da77562bf,65af55d6988ae06a92401049,2024-01-23_08h05.06.420,bars,2023.2.3,Win32,29.76190476,657b66ea316d21385b68909f,,,,,,,,,,,4281.719,4282.7063,,,4283.1926,4283.4402,,173,-7,,,,,,,,,,,,,,,,bars/023.png,bars/mask006.png,,,,,,,,,,,,0,1,,,,,,,0,4,0,3,,,,,,,,,,,4282.7064,4283.1925,4283.4403,4293.2574,space,9.8002,,4293.2574,27,58,4294.2605,4294.2606,4294.2955,,,,0,40,40,40,1,20,115,,,,,,,,
,,611cf4b38923b75da77562bf,65af55d6988ae06a92401049,2024-01-23_08h05.06.420,bars,2023.2.3,Win32,29.76190476,657b66ea316d21385b68909f,,,,,,,,,,,4294.2969,4295.2933,,,4295.7916,4296.0312,,165,165,,,,,,,,,,,,,,,,bars/011.png,bars/mask000.png,,,,,,,,,,,,1,1,,,,,,,2,6,1,5,,,,,,,,,,,4295.2934,4295.7915,4296.0313,4302.4743,space,6.4198,,4302.4748,5,80,4303.4694,4303.4695,4303.506,,,,0,41,41,41,1,160,85,,,,,,,,
,,611cf4b38923b75da77562bf,65af55d6988ae06a92401049,2024-01-23_08h05.06.420,bars,2023.2.3,Win32,29.76190476,657b66ea316d21385b68909f,,,,,,,,,,,4303.5072,4304.5067,,,4305.0038,4305.2438,,151,-29,,,,,,,,,,,,,,,,bars/003.png,bars/mask008.png,,,,,,,,,,,,4,2,,,,,,,4,8,4,7,,,,,,,,,,,4304.5068,4305.0037,4305.2439,4314.672,space,9.407,,4314.6724,54,11,4315.6589,4315.659,4315.6986,,,,0,42,42,42,1,25,140,,,,,,,,
,,611cf4b38923b75da77562bf,65af55d6988ae06a92401049,2024-01-23_08h05.06.420,bars,2023.2.3,Win32,29.76190476,657b66ea316d21385b68909f,,,,,,,,,,,4315.6997,4316.7049,,,4317.1928,4317.454,,3,183,,,,,,,,,,,,,,,,bars/006.png,bars/mask001.png,,,,,,,,,,,,0,1,,,,,,,2,6,3,5,,,,,,,,,,,4316.705,4317.1928,4317.4542,4324.9895,space,7.5132,,4324.9897,32,83,4325.9984,4325.9985,4326.0379,,,,0,43,43,43,1,35,100,,,,,,,,
,,611cf4b38923b75da77562bf,65af55d6988ae06a92401049,2024-01-23_08h05.06.420,bars,2023.2.3,Win32,29.76190476,657b66ea316d21385b68909f,,,,,,,,,,,4326.0398,4327.0427,,,4327.55,4327.7766,,166,-14,,,,,,,,,,,,,,,,bars/044.png,bars/mask000.png,,,,,,,,,,,,6,2,,,,,,,4,8,6,9,,,,,,,,,,,4327.0427,4327.5498,4327.7769,4336.0774,space,8.2775,,4336.0774,89,11,4337.0639,4337.0639,4337.1037,,,,0,44,44,44,1,75,155,,,,,,,,
,,611cf4b38923b75da77562bf,65af55d6988ae06a92401049,2024-01-23_08h05.06.420,bars,2023.2.3,Win32,29.76190476,657b66ea316d21385b68909f,,,,,,,,,,,4337.1043,4338.1001,,,4338.5839,4338.8104,,175,175,,,,,,,,,,,,,,,,bars/021.png,bars/mask006.png,,,,,,,,,,,,0,1,,,,,,,2,6,1,6,,,,,,,,,,,4338.1003,4338.5839,4338.8105,4343.7441,space,4.9137,,4343.7442,20,75,4344.7474,4344.7475,4344.7794,,,,0,45,45,45,1,155,70,,,,,,,,
,,611cf4b38923b75da77562bf,65af55d6988ae06a92401049,2024-01-23_08h05.06.420,bars,2023.2.3,Win32,29.76190476,657b66ea316d21385b68909f,,,,,,,,,,,4344.781,4345.7714,,,4346.2723,4346.5161,,23,203,,,,,,,,,,,,,,,,bars/026.png,bars/mask002.png,,,,,,,,,,,,2,1,,,,,,,4,8,4,7,,,,,,,,,,,4345.7715,4346.2722,4346.5162,4351.1411,space,4.6004,,4351.1412,12,62,4352.1335,4352.1336,4352.1677,,,,0,46,46,46,1,35,85,,,,,,,,
,,611cf4b38923b75da77562bf,65af55d6988ae06a92401049,2024-01-23_08h05.06.420,bars,2023.2.3,Win32,29.76190476,657b66ea316d21385b68909f,,,,,,,,,,,4352.17,4353.1616,,,4353.6529,4353.9001,,60,60,,,,,,,,,,,,,,,,bars/011.png,bars/mask006.png,,,,,,,,,,,,1,2,,,,,,,6,6,7,5,,,,,,,,,,,4353.1618,4353.6525,4353.9001,4361.0588,space,7.1362,,4361.059,80,25,4362.0616,4362.0617,4362.0944,,,,0,47,47,47,1,160,85,,,,,,,,
,,611cf4b38923b75da77562bf,65af55d6988ae06a92401049,2024-01-23_08h05.06.420,bars,2023.2.3,Win32,29.76190476,657b66ea316d21385b68909f,,,,,,,,,,,4362.0957,4363.0792,,,4363.5742,4363.8287,,128,128,,,,,,,,,,,,,,,,bars/009.png,bars/mask006.png,,,,,,,,,,,,2,2,,,,,,,8,8,7,10,,,,,,,,,,,4363.0793,4363.5741,4363.8289,4369.3591,space,5.5065,,4369.3593,67,23,4370.348,4370.3482,4370.3765,,,,0,48,48,48,1,15,105,,,,,,,,
,,611cf4b38923b75da77562bf,65af55d6988ae06a92401049,2024-01-23_08h05.06.420,bars,2023.2.3,Win32,29.76190476,657b66ea316d21385b68909f,,,,,,,,,,,4370.3771,4371.3786,,,4371.8661,4372.1054,,44,44,,,,,,,,,,,,,,,,bars/022.png,bars/mask006.png,,,,,,,,,,,,1,2,,,,,,,10,6,10,6,,,,,,,,,,,4371.3787,4371.8661,4372.1055,4380.3403,space,8.2085,,4380.3405,51,24,4381.3451,4381.3453,4381.3779,,,,0,49,49,49,1,95,20,,,,,,,,
,,611cf4b38923b75da77562bf,65af55d6988ae06a92401049,2024-01-23_08h05.06.420,bars,2023.2.3,Win32,29.76190476,657b66ea316d21385b68909f,,,,,,,,,,,,,,,,,,,,,,,,,,,,,,,,,,,,,,,,,,,,,,,,,,,,,,,,,,,,,,,,,,,,,,,,,,,,,,,,,,,,,,,,,,,,,4381.3784,4441.3723,0,3,3,1,1,sequence_tables/blk049.csv
,,611cf4b38923b75da77562bf,65af55d6988ae06a92401049,2024-01-23_08h05.06.420,bars,2023.2.3,Win32,29.76190476,657b66ea316d21385b68909f,,,,,,,,,,,4471.0761,4472.0349,,,4472.532,4472.762,,132,132,,,,,,,,,,,,,,,,bars/002.png,bars/mask008.png,,,,,,,,,,,,3,1,,,,,,,4,1,3,0,,,,,,4441.4025,4471.0217,space,29.6071,,4472.0353,4472.5319,4472.762,4477.2313,space,4.4482,0.001,4477.2315,2,47,4478.2314,4478.2315,4478.2631,,,,0,0,0,0,1,130,85,,,,,,,,
,,611cf4b38923b75da77562bf,65af55d6988ae06a92401049,2024-01-23_08h05.06.420,bars,2023.2.3,Win32,29.76190476,657b66ea316d21385b68909f,,,,,,,,,,,4478.2637,4479.2538,,,4479.7355,4479.981,,142,142,,,,,,,,,,,,,,,,bars/034.png,bars/mask002.png,,,,,,,,,,,,2,1,,,,,,,6,0,5,0,,,,,,,,,,,4479.2539,4479.7354,4479.9811,4485.7455,space,5.7406,,4485.7457,17,77,4486.7478,4486.7479,4486.7803,,,,0,1,1,1,1,125,65,,,,,,,,
,,611cf4b38923b75da77562bf,65af55d6988ae06a92401049,2024-01-23_08h05.06.420,bars,2023.2.3,Win32,29.76190476,657b66ea316d21385b68909f,,,,,,,,,,,4486.781,4487.7883,,,4488.2814,4488.5309,,163,-17,,,,,,,,,,,,,,,,bars/007.png,bars/mask004.png,,,,,,,,,,,,2,1,,,,,,,4,0,4,3,,,,,,,,,,,4487.7884,4488.2813,4488.5311,4497.6453,space,9.0906,,4497.6454,12,72,4498.6363,4498.6364,4498.6664,,,,0,2,2,2,1,175,55,,,,,,,,
,,611cf4b38923b75da77562bf,65af55d6988ae06a92401049,2024-01-23_08h05.06.420,bars,2023.2.3,Win32,29.76190476,657b66ea316d21385b68909f,,,,,,,,,,,4498.6676,4499.6616,,,4500.165,4500.4151,,169,-11,,,,,,,,,,,,,,,,bars/030.png,bars/mask009.png,,,,,,,,,,,,0,1,,,,,,,2,2,3,1,,,,,,,,,,,4499.6617,4500.165,4500.4154,4505.3009,space,4.8613,,4505.301,29,76,4506.2996,4506.2997,4506.3226,,,,0,3,3,3,1,140,65,,,,,,,,
,,611cf4b38923b75da77562bf,65af55d6988ae06a92401049,2024-01-23_08h05.06.420,bars,2023.2.3,Win32,29.76190476,657b66ea316d21385b68909f,,,,,,,,,,,4506.3235,4507.317,,,4507.8049,4508.0306,,135,-45,,,,,,,,,,,,,,,,bars/028.png,bars/mask006.png,,,,,,,,,,,,2,2,,,,,,,4,4,4,4,,,,,,,,,,,4507.3171,4507.8048,4508.0308,4516.9022,space,8.8496,,4516.9022,90,15,4517.9002,4517.9003,4517.9349,,,,0,4,4,4,1,45,120,,,,,,,,
,,611cf4b38923b75da77562bf,65af55d6988ae06a92401049,2024-01-23_08h05.06.420,bars,2023.2.3,Win32,29.76190476,657b66ea316d21385b68909f,,,,,,,,,,,4517.9365,4518.9331,,,4519.4331,4519.6667,,113,113,,,,,,,,,,,,,,,,bars/009.png,bars/mask004.png,,,,,,,,,,,,4,2,,,,,,,2,6,2,6,,,,,,,,,,,4518.9331,4519.433,4519.6667,4524.7805,space,5.0894,,4524.7807,82,8,4525.7786,4525.7788,4525.8057,,,,0,5,5,5,1,15,105,,,,,,,,
,,611cf4b38923b75da77562bf,65af55d6988ae06a92401049,2024-01-23_08h05.06.420,bars,2023.2.3,Win32,29.76190476,657b66ea316d21385b68909f,,,,,,,,,,,4525.8063,4526.7889,,,4527.2777,4527.5276,,143,143,,,,,,,,,,,,,,,,bars/009.png,bars/mask009.png,,,,,,,,,,,,0,2,,,,,,,4,4,5,4,,,,,,,,,,,4526.789,4527.2776,4527.5277,4539.4826,space,11.9368,,4539.4826,52,38,4540.4839,4540.484,4540.5168,,,,0,6,6,6,1,15,105,,,,,,,,
,,611cf4b38923b75da77562bf,65af55d6988ae06a92401049,2024-01-23_08h05.06.420,bars,2023.2.3,Win32,29.76190476,657b66ea316d21385b68909f,,,,,,,,,,,4540.5186,4541.5146,,,4542.0004,4542.2487,,160,160,,,,,,,,,,,,,,,,bars/016.png,bars/mask002.png,,,,,,,,,,,,4,2,,,,,,,2,6,1,5,,,,,,,,,,,4541.5147,4542.0003,4542.2489,4563.0146,space,20.745,,4563.0146,60,5,4564.0082,4564.0082,4564.0381,,,,0,7,7,7,1,40,165,,,,,,,,
,,611cf4b38923b75da77562bf,65af55d6988ae06a92401049,2024-01-23_08h05.06.420,bars,2023.2.3,Win32,29.76190476,657b66ea316d21385b68909f,,,,,,,,,,,4564.0388,4565.038,,,4565.5318,4565.7798,,125,125,,,,,,,,,,,,,,,,bars/002.png,bars/mask000.png,,,,,,,,,,,,0,1,,,,,,,0,4,0,5,,,,,,,,,,,4565.0381,4565.5317,4565.7799,4575.215,space,9.4113,,4575.2152,5,40,4576.2237,4576.2238,4576.2689,,,,0,8,8,8,1,130,85,,,,,,,,
,,611cf4b38923b75da77562bf,65af55d6988ae06a92401049,2024-01-23_08h05.06.420,bars,2023.2.3,Win32,29.76190476,657b66ea316d21385b68909f,,,,,,,,,,,4576.2708,4577.2796,,,4577.7601,4577.9908,,172,172,,,,,,,,,,,,,,,,bars/039.png,bars/mask009.png,,,,,,,,,,,,3,1,,,,,,,2,6,3,5,,,,,,,,,,,4577.2796,4577.76,4577.9909,4585.2261,space,7.2105,,4585.2262,3,67,4586.223,4586.223,4586.2534,,,,0,9,9,9,1,175,105,,,,,,,,
