init_variables.started,init_variables.stopped,participant,session,date,expName,psychopyVersion,OS,frameRate,study_id,instruction_exp.started,instruction_exp.stopped,key_resp_8.keys,key_resp_8.rt,key_resp_8.duration,instruction_single.started,instruction_single.stopped,key_resp_2.keys,key_resp_2.rt,key_resp_2.duration,interval.started,interval.stopped,cue_single.started,cue_single.stopped,mask.started,mask.stopped,ori_response_single.started,res_ori,res,ori_response_single.stopped,key_resp_single.keys,key_resp_single.rt,key_resp_single.duration,disp_single.started,disp_single.stopped,key_resp.keys,key_resp.rt,key_resp.duration,single.thisRepN,single.thisTrialN,single.thisN,single.thisIndex,single.ran,ori,path,mask_path,instruction_bandit.started,instruction_bandit.stopped,key_resp_6.keys,key_resp_6.rt,key_resp_6.duration,cue_bandit.started,cue_bandit.stopped,bandit_res.keys,bandit_res.rt,bandit_res.duration,outcome_bandit.started,rew,action,outcome_bandit.stopped,bandit.thisRepN,bandit.thisTrialN,bandit.thisN,bandit.thisIndex,bandit.ran,actual_rew1,actual_rew2,rew1,rew2,instruction_task.started,instruction_task.stopped,key_resp_7.keys,key_resp_7.rt,key_resp_7.duration,wait_ready.started,wait_ready.stopped,key_resp_3.keys,key_resp_3.rt,key_resp_3.duration,cue.started,cue.stopped,ori_response.started,ori_response.stopped,key_resp_5.keys,key_resp_5.rt,key_resp_5.duration,outcome.started,diff1,diff2,outcome.stopped,disp_outcome_practice.started,disp_outcome_practice.stopped,key_resp_4.keys,key_resp_4.rt,key_resp_4.duration,trials.thisRepN,trials.thisTrialN,trials.thisN,trials.thisIndex,trials.ran,ori1,ori2,break_blk.started,break_blk.stopped,block.thisRepN,block.thisTrialN,block.thisN,block.thisIndex,block.ran,condition_file
0.001,0.001,5b3c4027c49ecb00010aaeac,65af55f4d9188f2482cd2804,2024-01-23_24h07.20.044,bars,2023.2.3,Win32,4.273504274,657b66ea316d21385b68909f,,,,,,,,,,,,,,,,,,,,,,,,,,,,,,,,,,,,,,,,,,,,,,,,,,,,,,,,,,,,,,,,,,,,,,,,,,,,,,,,,,,,,,,,,,,,,,,,,,,,
,,5b3c4027c49ecb00010aaeac,65af55f4d9188f2482cd2804,2024-01-23_24h07.20.044,bars,2023.2.3,Win32,4.273504274,657b66ea316d21385b68909f,0.001,4.819,y,4.537,,,,,,,,,,,,,,,,,,,,,,,,,,,,,,,,,,,,,,,,,,,,,,,,,,,,,,,,,,,,,,,,,,,,,,,,,,,,,,,,,,,,,,,,,,,,,,,,
,,5b3c4027c49ecb00010aaeac,65af55f4d9188f2482cd2804,2024-01-23_24h07.20.044,bars,2023.2.3,Win32,4.273504274,657b66ea316d21385b68909f,,,,,,4.819,11.952,space,6.828,,,,,,,,,,,,,,,,,,,,,,,,,,,,,,,,,,,,,,,,,,,,,,,,,,,,,,,,,,,,,,,,,,,,,,,,,,,,,,,,,,,,,,,,,,,
,,5b3c4027c49ecb00010aaeac,65af55f4d9188f2482cd2804,2024-01-23_24h07.20.044,bars,2023.2.3,Win32,4.273504274,657b66ea316d21385b68909f,,,,,,,,,,,11.961,13.033,13.033,13.576,13.576,13.856,13.857,133,133,23.115,space,8.949,,23.116,30.166,space,6.763,,0,0,0,9,1,20,bars/single009.png,bars/mask006.png,,,,,,,,,,,,,,,,,,,,,,,,,,,,,,,,,,,,,,,,,,,,,,,,,,,,,,,,,,,,,,,,
,,5b3c4027c49ecb00010aaeac,65af55f4d9188f2482cd2804,2024-01-23_24h07.20.044,bars,2023.2.3,Win32,4.273504274,657b66ea316d21385b68909f,,,,,,,,,,,30.177,31.239,31.239,31.774,31.774,32.054,32.054,161,-19,44.828,space,12.508,,44.828,46.876,space,1.765,,0,1,1,8,1,160,bars/single008.png,bars/mask004.png,,,,,,,,,,,,,,,,,,,,,,,,,,,,,,,,,,,,,,,,,,,,,,,,,,,,,,,,,,,,,,,,
,,5b3c4027c49ecb00010aaeac,65af55f4d9188f2482cd2804,2024-01-23_24h07.20.044,bars,2023.2.3,Win32,4.273504274,657b66ea316d21385b68909f,,,,,,,,,,,46.877,47.906,47.906,48.448,48.448,48.712,48.712,32,32,52.079,space,3.09,,52.079,56.396,space,4.041,,0,2,2,5,1,55,bars/single005.png,bars/mask008.png,,,,,,,,,,,,,,,,,,,,,,,,,,,,,,,,,,,,,,,,,,,,,,,,,,,,,,,,,,,,,,,,
,,5b3c4027c49ecb00010aaeac,65af55f4d9188f2482cd2804,2024-01-23_24h07.20.044,bars,2023.2.3,Win32,4.273504274,657b66ea316d21385b68909f,,,,,,,,,,,56.407,57.429,57.429,57.965,57.965,58.225,58.225,95,95,63.646,space,5.151,,63.646,66.834,space,2.911,,0,3,3,4,1,95,bars/single004.png,bars/mask004.png,,,,,,,,,,,,,,,,,,,,,,,,,,,,,,,,,,,,,,,,,,,,,,,,,,,,,,,,,,,,,,,,
,,5b3c4027c49ecb00010aaeac,65af55f4d9188f2482cd2804,2024-01-23_24h07.20.044,bars,2023.2.3,Win32,4.273504274,657b66ea316d21385b68909f,,,,,,,,,,,66.844,67.884,67.884,68.414,68.414,68.682,68.682,174,-6,79.246,space,10.296,0,79.246,82.363,space,2.822,,0,4,4,1,1,20,bars/single001.png,bars/mask006.png,,,,,,,,,,,,,,,,,,,,,,,,,,,,,,,,,,,,,,,,,,,,,,,,,,,,,,,,,,,,,,,,
,,5b3c4027c49ecb00010aaeac,65af55f4d9188f2482cd2804,2024-01-23_24h07.20.044,bars,2023.2.3,Win32,4.273504274,657b66ea316d21385b68909f,,,,,,,,,,,82.373,83.405,83.405,83.958,83.958,84.223,84.223,11,11,86.204,space,1.699,0,86.204,88.465,space,1.995,0,0,5,5,6,1,175,bars/single006.png,bars/mask005.png,,,,,,,,,,,,,,,,,,,,,,,,,,,,,,,,,,,,,,,,,,,,,,,,,,,,,,,,,,,,,,,,
,,5b3c4027c49ecb00010aaeac,65af55f4d9188f2482cd2804,2024-01-23_24h07.20.044,bars,2023.2.3,Win32,4.273504274,657b66ea316d21385b68909f,,,,,,,,,,,88.465,89.504,89.504,90.058,90.058,90.332,90.332,15,195,100.257,space,9.649,,100.257,102.299,space,1.769,0,0,6,6,3,1,20,bars/single003.png,bars/mask005.png,,,,,,,,,,,,,,,,,,,,,,,,,,,,,,,,,,,,,,,,,,,,,,,,,,,,,,,,,,,,,,,,
,,5b3c4027c49ecb00010aaeac,65af55f4d9188f2482cd2804,2024-01-23_24h07.20.044,bars,2023.2.3,Win32,4.273504274,657b66ea316d21385b68909f,,,,,,,,,,,102.3,103.123,103.123,103.683,103.683,103.972,103.972,166,166,107.742,space,3.489,,107.742,110.859,space,2.844,,0,7,7,2,1,145,bars/single002.png,bars/mask003.png,,,,,,,,,,,,,,,,,,,,,,,,,,,,,,,,,,,,,,,,,,,,,,,,,,,,,,,,,,,,,,,,
,,5b3c4027c49ecb00010aaeac,65af55f4d9188f2482cd2804,2024-01-23_24h07.20.044,bars,2023.2.3,Win32,4.273504274,657b66ea316d21385b68909f,,,,,,,,,,,110.859,111.904,111.904,112.467,112.468,113.028,113.028,177,-3,133.749,space,20.168,0.001,133.749,137.431,space,3.392,,0,8,8,0,1,150,bars/single000.png,bars/mask006.png,,,,,,,,,,,,,,,,,,,,,,,,,,,,,,,,,,,,,,,,,,,,,,,,,,,,,,,,,,,,,,,,
,,5b3c4027c49ecb00010aaeac,65af55f4d9188f2482cd2804,2024-01-23_24h07.20.044,bars,2023.2.3,Win32,4.273504274,657b66ea316d21385b68909f,,,,,,,,,,,137.441,138.481,138.481,139.029,139.029,139.298,139.298,44,44,141.575,space,2.007,,141.575,143.294,space,1.446,0.001,0,9,9,7,1,45,bars/single007.png,bars/mask009.png,,,,,,,,,,,,,,,,,,,,,,,,,,,,,,,,,,,,,,,,,,,,,,,,,,,,,,,,,,,,,,,,
,,5b3c4027c49ecb00010aaeac,65af55f4d9188f2482cd2804,2024-01-23_24h07.20.044,bars,2023.2.3,Win32,4.273504274,657b66ea316d21385b68909f,,,,,,,,,,,,,,,,,,,,,,,,,,,,,,,,,,,,,143.295,156.083,space,12.474,0.001,,,,,,,,,,,,,,,,,,,,,,,,,,,,,,,,,,,,,,,,,,,,,,,,,,,,,,,,,,,
,,5b3c4027c49ecb00010aaeac,65af55f4d9188f2482cd2804,2024-01-23_24h07.20.044,bars,2023.2.3,Win32,4.273504274,657b66ea316d21385b68909f,,,,,,,,,,,,,,,,,,,,,,,,,,,,,,,,,,,,,,,,,,156.096,160.446,left,4.082,,160.447,9,1,161.352,0,0,0,0,1,9,1,9,2,,,,,,,,,,,,,,,,,,,,,,,,,,,,,,,,,,,,,,,,,
,,5b3c4027c49ecb00010aaeac,65af55f4d9188f2482cd2804,2024-01-23_24h07.20.044,bars,2023.2.3,Win32,4.273504274,657b66ea316d21385b68909f,,,,,,,,,,,,,,,,,,,,,,,,,,,,,,,,,,,,,,,,,,161.353,163.561,left,1.942,,163.561,10,1,164.598,0,1,1,1,1,10,0,10,1,,,,,,,,,,,,,,,,,,,,,,,,,,,,,,,,,,,,,,,,,
,,5b3c4027c49ecb00010aaeac,65af55f4d9188f2482cd2804,2024-01-23_24h07.20.044,bars,2023.2.3,Win32,4.273504274,657b66ea316d21385b68909f,,,,,,,,,,,,,,,,,,,,,,,,,,,,,,,,,,,,,,,,,,164.608,165.725,left,0.859,,165.725,10,1,166.77,0,2,2,2,1,10,2,10,2,,,,,,,,,,,,,,,,,,,,,,,,,,,,,,,,,,,,,,,,,
,,5b3c4027c49ecb00010aaeac,65af55f4d9188f2482cd2804,2024-01-23_24h07.20.044,bars,2023.2.3,Win32,4.273504274,657b66ea316d21385b68909f,,,,,,,,,,,,,,,,,,,,,,,,,,,,,,,,,,,,,,,,,,166.77,167.606,right,0.563,,167.606,3,2,168.646,0,3,3,3,1,8,4,7,3,,,,,,,,,,,,,,,,,,,,,,,,,,,,,,,,,,,,,,,,,
,,5b3c4027c49ecb00010aaeac,65af55f4d9188f2482cd2804,2024-01-23_24h07.20.044,bars,2023.2.3,Win32,4.273504274,657b66ea316d21385b68909f,,,,,,,,,,,,,,,,,,,,,,,,,,,,,,,,,,,,,,,,,,168.646,170.841,left,1.848,0,170.841,5,1,171.377,0,4,4,4,1,6,2,5,1,,,,,,,,,,,,,,,,,,,,,,,,,,,,,,,,,,,,,,,,,
,,5b3c4027c49ecb00010aaeac,65af55f4d9188f2482cd2804,2024-01-23_24h07.20.044,bars,2023.2.3,Win32,4.273504274,657b66ea316d21385b68909f,,,,,,,,,,,,,,,,,,,,,,,,,,,,,,,,,,,,,,,,,,171.379,173.559,left,1.626,,173.559,4,1,174.602,0,5,5,5,1,4,4,4,4,,,,,,,,,,,,,,,,,,,,,,,,,,,,,,,,,,,,,,,,,
,,5b3c4027c49ecb00010aaeac,65af55f4d9188f2482cd2804,2024-01-23_24h07.20.044,bars,2023.2.3,Win32,4.273504274,657b66ea316d21385b68909f,,,,,,,,,,,,,,,,,,,,,,,,,,,,,,,,,,,,,,,,,,174.612,175.438,right,0.565,0.001,175.438,2,2,176.494,0,6,6,6,1,2,2,1,2,,,,,,,,,,,,,,,,,,,,,,,,,,,,,,,,,,,,,,,,,
,,5b3c4027c49ecb00010aaeac,65af55f4d9188f2482cd2804,2024-01-23_24h07.20.044,bars,2023.2.3,Win32,4.273504274,657b66ea316d21385b68909f,,,,,,,,,,,,,,,,,,,,,,,,,,,,,,,,,,,,,,,,,,176.494,177.342,left,0.583,0.001,177.342,0,1,178.375,0,7,7,7,1,0,0,0,1,,,,,,,,,,,,,,,,,,,,,,,,,,,,,,,,,,,,,,,,,
,,5b3c4027c49ecb00010aaeac,65af55f4d9188f2482cd2804,2024-01-23_24h07.20.044,bars,2023.2.3,Win32,4.273504274,657b66ea316d21385b68909f,,,,,,,,,,,,,,,,,,,,,,,,,,,,,,,,,,,,,,,,,,178.376,179.239,left,0.589,0,179.239,1,1,180.309,0,8,8,8,1,0,2,1,0,,,,,,,,,,,,,,,,,,,,,,,,,,,,,,,,,,,,,,,,,
,,5b3c4027c49ecb00010aaeac,65af55f4d9188f2482cd2804,2024-01-23_24h07.20.044,bars,2023.2.3,Win32,4.273504274,657b66ea316d21385b68909f,,,,,,,,,,,,,,,,,,,,,,,,,,,,,,,,,,,,,,,,,,180.309,180.862,left,0.288,,180.862,2,1,181.717,0,9,9,9,1,2,4,2,3,,,,,,,,,,,,,,,,,,,,,,,,,,,,,,,,,,,,,,,,,
,,5b3c4027c49ecb00010aaeac,65af55f4d9188f2482cd2804,2024-01-23_24h07.20.044,bars,2023.2.3,Win32,4.273504274,657b66ea316d21385b68909f,,,,,,,,,,,,,,,,,,,,,,,,,,,,,,,,,,,,,,,,,,181.718,182.857,left,0.588,0.001,182.857,0,1,183.444,0,10,10,10,1,0,2,0,3,,,,,,,,,,,,,,,,,,,,,,,,,,,,,,,,,,,,,,,,,
,,5b3c4027c49ecb00010aaeac,65af55f4d9188f2482cd2804,2024-01-23_24h07.20.044,bars,2023.2.3,Win32,4.273504274,657b66ea316d21385b68909f,,,,,,,,,,,,,,,,,,,,,,,,,,,,,,,,,,,,,,,,,,183.445,184.619,right,0.583,,184.619,3,2,185.65,0,11,11,11,1,0,4,0,3,,,,,,,,,,,,,,,,,,,,,,,,,,,,,,,,,,,,,,,,,
,,5b3c4027c49ecb00010aaeac,65af55f4d9188f2482cd2804,2024-01-23_24h07.20.044,bars,2023.2.3,Win32,4.273504274,657b66ea316d21385b68909f,,,,,,,,,,,,,,,,,,,,,,,,,,,,,,,,,,,,,,,,,,185.65,186.233,left,0.291,,186.233,1,1,187.273,0,12,12,12,1,2,6,1,6,,,,,,,,,,,,,,,,,,,,,,,,,,,,,,,,,,,,,,,,,
,,5b3c4027c49ecb00010aaeac,65af55f4d9188f2482cd2804,2024-01-23_24h07.20.044,bars,2023.2.3,Win32,4.273504274,657b66ea316d21385b68909f,,,,,,,,,,,,,,,,,,,,,,,,,,,,,,,,,,,,,,,,,,187.273,188.131,left,0.575,0,188.131,1,1,189.161,0,13,13,13,1,0,4,1,3,,,,,,,,,,,,,,,,,,,,,,,,,,,,,,,,,,,,,,,,,
,,5b3c4027c49ecb00010aaeac,65af55f4d9188f2482cd2804,2024-01-23_24h07.20.044,bars,2023.2.3,Win32,4.273504274,657b66ea316d21385b68909f,,,,,,,,,,,,,,,,,,,,,,,,,,,,,,,,,,,,,,,,,,189.161,189.455,right,0.011,,189.455,7,2,190.501,0,14,14,14,1,2,6,2,7,,,,,,,,,,,,,,,,,,,,,,,,,,,,,,,,,,,,,,,,,
,,5b3c4027c49ecb00010aaeac,65af55f4d9188f2482cd2804,2024-01-23_24h07.20.044,bars,2023.2.3,Win32,4.273504274,657b66ea316d21385b68909f,,,,,,,,,,,,,,,,,,,,,,,,,,,,,,,,,,,,,,,,,,190.501,191.066,left,0.289,,191.066,3,1,192.102,0,15,15,15,1,4,8,3,9,,,,,,,,,,,,,,,,,,,,,,,,,,,,,,,,,,,,,,,,,
,,5b3c4027c49ecb00010aaeac,65af55f4d9188f2482cd2804,2024-01-23_24h07.20.044,bars,2023.2.3,Win32,4.273504274,657b66ea316d21385b68909f,,,,,,,,,,,,,,,,,,,,,,,,,,,,,,,,,,,,,,,,,,192.104,192.924,left,0.556,,192.924,7,1,193.766,0,16,16,16,1,6,6,7,7,,,,,,,,,,,,,,,,,,,,,,,,,,,,,,,,,,,,,,,,,
,,5b3c4027c49ecb00010aaeac,65af55f4d9188f2482cd2804,2024-01-23_24h07.20.044,bars,2023.2.3,Win32,4.273504274,657b66ea316d21385b68909f,,,,,,,,,,,,,,,,,,,,,,,,,,,,,,,,,,,,,,,,,,193.766,194.958,left,0.601,0.002,194.958,9,1,195.549,0,17,17,17,1,8,4,9,5,,,,,,,,,,,,,,,,,,,,,,,,,,,,,,,,,,,,,,,,,
,,5b3c4027c49ecb00010aaeac,65af55f4d9188f2482cd2804,2024-01-23_24h07.20.044,bars,2023.2.3,Win32,4.273504274,657b66ea316d21385b68909f,,,,,,,,,,,,,,,,,,,,,,,,,,,,,,,,,,,,,,,,,,195.55,196.66,left,0.564,,196.66,5,1,197.708,0,18,18,18,1,6,2,5,1,,,,,,,,,,,,,,,,,,,,,,,,,,,,,,,,,,,,,,,,,
,,5b3c4027c49ecb00010aaeac,65af55f4d9188f2482cd2804,2024-01-23_24h07.20.044,bars,2023.2.3,Win32,4.273504274,657b66ea316d21385b68909f,,,,,,,,,,,,,,,,,,,,,,,,,,,,,,,,,,,,,,,,,,197.709,198.542,right,0.557,,198.542,0,2,199.591,0,19,19,19,1,8,0,7,0,,,,,,,,,,,,,,,,,,,,,,,,,,,,,,,,,,,,,,,,,
,,5b3c4027c49ecb00010aaeac,65af55f4d9188f2482cd2804,2024-01-23_24h07.20.044,bars,2023.2.3,Win32,4.273504274,657b66ea316d21385b68909f,,,,,,,,,,,,,,,,,,,,,,,,,,,,,,,,,,,,,,,,,,,,,,,,,,,,,,,,,,,,199.591,210.519,space,10.639,,,,,,,,,,,,,,,,,,,,,,,,,,,,,,,,,,,,,
,,5b3c4027c49ecb00010aaeac,65af55f4d9188f2482cd2804,2024-01-23_24h07.20.044,bars,2023.2.3,Win32,4.273504274,657b66ea316d21385b68909f,,,,,,,,,,,212.121,213.151,,,213.685,213.961,,112,112,,,,,,,,,,,,,,,,bars/013.png,bars/mask001.png,,,,,,,,,,,,0,1,,,,,,,10,2,10,0,,,,,,210.532,212.116,space,1.34,,213.151,213.685,213.961,218.366,space,4.137,0.001,218.366,37,78,219.485,219.485,229.361,space,9.279,0,0,0,0,0,1,75,10,,,,,,,,
,,5b3c4027c49ecb00010aaeac,65af55f4d9188f2482cd2804,2024-01-23_24h07.20.044,bars,2023.2.3,Win32,4.273504274,657b66ea316d21385b68909f,,,,,,,,,,,229.384,230.414,,,230.972,230.973,,61,61,,,,,,,,,,,,,,,,bars/028.png,bars/mask002.png,,,,,,,,,,,,5,1,,,,,,,10,0,10,1,,,,,,,,,,,230.414,230.972,230.974,236.278,space,4.758,,236.279,16,59,237.071,237.071,240.004,space,2.627,0,0,1,1,1,1,45,120,,,,,,,,
,,5b3c4027c49ecb00010aaeac,65af55f4d9188f2482cd2804,2024-01-23_24h07.20.044,bars,2023.2.3,Win32,4.273504274,657b66ea316d21385b68909f,,,,,,,,,,,240.004,240.888,,,241.446,241.447,,7,187,,,,,,,,,,,,,,,,bars/010.png,bars/mask006.png,,,,,,,,,,,,2,1,,,,,,,8,2,8,0,,,,,,,,,,,240.889,241.446,241.447,248.035,space,5.984,,248.035,22,48,249.069,249.069,253.557,space,4.207,0,0,2,2,2,1,165,55,,,,,,,,
,,5b3c4027c49ecb00010aaeac,65af55f4d9188f2482cd2804,2024-01-23_24h07.20.044,bars,2023.2.3,Win32,4.273504274,657b66ea316d21385b68909f,,,,,,,,,,,253.577,254.362,,,254.901,255.171,,8,188,,,,,,,,,,,,,,,,bars/003.png,bars/mask003.png,,,,,,,,,,,,3,1,,,,,,,6,0,6,0,,,,,,,,,,,254.362,254.901,255.171,286.032,space,30.591,0.001,286.032,17,48,287.145,287.145,325.346,space,37.911,,0,3,3,3,1,25,140,,,,,,,,
,,5b3c4027c49ecb00010aaeac,65af55f4d9188f2482cd2804,2024-01-23_24h07.20.044,bars,2023.2.3,Win32,4.273504274,657b66ea316d21385b68909f,,,,,,,,,,,325.359,326.159,,,326.714,326.997,,176,-4,,,,,,,,,,,,,,,,bars/040.png,bars/mask006.png,,,,,,,,,,,,0,2,,,,,,,8,0,8,0,,,,,,,,,,,326.159,326.714,326.997,332.867,space,5.587,0.002,332.867,36,9,333.391,333.391,374.255,space,40.52,0.002,0,4,4,4,1,140,5,,,,,,,,
,,5b3c4027c49ecb00010aaeac,65af55f4d9188f2482cd2804,2024-01-23_24h07.20.044,bars,2023.2.3,Win32,4.273504274,657b66ea316d21385b68909f,,,,,,,,,,,374.265,375.306,,,375.843,376.113,,164,164,,,,,,,,,,,,,,,,bars/049.png,bars/mask006.png,,,,,,,,,,,,6,1,,,,,,,6,2,7,3,,,,,,,,,,,375.306,375.843,376.113,378.908,space,2.528,,378.908,4,49,379.95,379.95,448.906,space,68.674,,0,5,5,5,1,160,115,,,,,,,,
,,5b3c4027c49ecb00010aaeac,65af55f4d9188f2482cd2804,2024-01-23_24h07.20.044,bars,2023.2.3,Win32,4.273504274,657b66ea316d21385b68909f,,,,,,,,,,,448.917,449.962,,,450.496,450.762,,94,94,,,,,,,,,,,,,,,,bars/008.png,bars/mask002.png,,,,,,,,,,,,3,1,,,,,,,8,4,6,3,,,,,,,,,,,449.962,450.496,450.762,466.899,space,15.863,0.002,466.899,16,86,468.016,468.016,482.618,space,14.053,,0,6,6,6,1,110,0,,,,,,,,
,,5b3c4027c49ecb00010aaeac,65af55f4d9188f2482cd2804,2024-01-23_24h07.20.044,bars,2023.2.3,Win32,4.273504274,657b66ea316d21385b68909f,,,,,,,,,,,482.631,483.667,,,484.211,484.484,,172,172,,,,,,,,,,,,,,,,bars/007.png,bars/mask008.png,,,,,,,,,,,,5,1,,,,,,,6,2,6,3,,,,,,,,,,,483.667,484.211,484.485,510.454,space,25.708,0.001,510.454,3,63,511.543,511.543,517.381,space,5.548,0.001,0,7,7,7,1,175,55,,,,,,,,
,,5b3c4027c49ecb00010aaeac,65af55f4d9188f2482cd2804,2024-01-23_24h07.20.044,bars,2023.2.3,Win32,4.273504274,657b66ea316d21385b68909f,,,,,,,,,,,517.391,518.424,,,518.961,519.228,,58,58,,,,,,,,,,,,,,,,bars/023.png,bars/mask004.png,,,,,,,,,,,,0,1,,,,,,,8,0,8,0,,,,,,,,,,,518.424,518.961,519.228,572.525,space,52.977,,572.525,38,57,573.351,573.351,575.802,space,2.154,,0,8,8,8,1,20,115,,,,,,,,
,,5b3c4027c49ecb00010aaeac,65af55f4d9188f2482cd2804,2024-01-23_24h07.20.044,bars,2023.2.3,Win32,4.273504274,657b66ea316d21385b68909f,,,,,,,,,,,575.803,576.735,,,577.342,577.344,,83,83,,,,,,,,,,,,,,,,bars/022.png,bars/mask003.png,,,,,,,,,,,,4,1,,,,,,,6,0,7,0,,,,,,,,,,,576.735,577.342,577.344,581.387,space,3.492,,581.388,12,63,582.428,582.428,587.3,space,4.589,0.001,0,9,9,9,1,95,20,,,,,,,,
,,5b3c4027c49ecb00010aaeac,65af55f4d9188f2482cd2804,2024-01-23_24h07.20.044,bars,2023.2.3,Win32,4.273504274,657b66ea316d21385b68909f,,,,,,,,,,,587.301,587.817,,,587.819,587.82,,79,79,,,,,,,,,,,,,,,,bars/015.png,bars/mask004.png,,,,,,,,,,,,0,1,,,,,,,8,2,7,2,,,,,,,,,,,587.817,587.819,587.82,590.629,space,2.249,,590.629,31,81,591.656,591.656,592.833,space,0.889,,0,10,10,10,1,110,160,,,,,,,,
,,5b3c4027c49ecb00010aaeac,65af55f4d9188f2482cd2804,2024-01-23_24h07.20.044,bars,2023.2.3,Win32,4.273504274,657b66ea316d21385b68909f,,,,,,,,,,,592.833,593.858,,,594.417,594.679,,177,-3,,,,,,,,,,,,,,,,bars/036.png,bars/mask008.png,,,,,,,,,,,,1,2,,,,,,,6,4,6,3,,,,,,,,,,,593.858,594.416,594.679,604.73,space,9.783,0,604.73,32,23,605.769,605.769,608.404,space,2.353,0,0,11,11,11,1,145,20,,,,,,,,
,,5b3c4027c49ecb00010aaeac,65af55f4d9188f2482cd2804,2024-01-23_24h07.20.044,bars,2023.2.3,Win32,4.273504274,657b66ea316d21385b68909f,,,,,,,,,,,608.405,609.457,,,609.992,610.256,,10,190,,,,,,,,,,,,,,,,bars/021.png,bars/mask000.png,,,,,,,,,,,,0,1,,,,,,,4,2,4,0,,,,,,,,,,,609.457,609.992,610.256,622.917,space,12.34,0,622.917,35,60,624.008,624.008,632.907,space,8.257,0,0,12,12,12,1,155,70,,,,,,,,
,,5b3c4027c49ecb00010aaeac,65af55f4d9188f2482cd2804,2024-01-23_24h07.20.044,bars,2023.2.3,Win32,4.273504274,657b66ea316d21385b68909f,,,,,,,,,,,632.918,633.965,,,634.541,635.13,,59,59,,,,,,,,,,,,,,,,bars/012.png,bars/mask000.png,,,,,,,,,,,,0,1,,,,,,,2,4,2,4,,,,,,,,,,,633.965,634.541,635.13,641.138,space,5.466,,641.138,31,44,642.173,642.173,643.641,space,1.181,0.001,0,13,13,13,1,90,15,,,,,,,,
,,5b3c4027c49ecb00010aaeac,65af55f4d9188f2482cd2804,2024-01-23_24h07.20.044,bars,2023.2.3,Win32,4.273504274,657b66ea316d21385b68909f,,,,,,,,,,,643.641,644.671,,,645.28,645.881,,165,165,,,,,,,,,,,,,,,,bars/049.png,bars/mask004.png,,,,,,,,,,,,0,1,,,,,,,0,2,0,0,,,,,,,,,,,644.671,645.28,645.881,648.225,space,1.787,0.001,648.225,5,50,649.258,649.258,717.857,space,68.313,,0,14,14,14,1,160,115,,,,,,,,
,,5b3c4027c49ecb00010aaeac,65af55f4d9188f2482cd2804,2024-01-23_24h07.20.044,bars,2023.2.3,Win32,4.273504274,657b66ea316d21385b68909f,,,,,,,,,,,717.87,718.671,,,719.234,719.53,,69,69,,,,,,,,,,,,,,,,bars/031.png,bars/mask004.png,,,,,,,,,,,,0,2,,,,,,,0,4,0,3,,,,,,,,,,,718.671,719.234,719.53,734.58,space,14.786,,734.58,51,34,735.75,735.75,786.592,space,50.193,,0,15,15,15,1,120,35,,,,,,,,
,,5b3c4027c49ecb00010aaeac,65af55f4d9188f2482cd2804,2024-01-23_24h07.20.044,bars,2023.2.3,Win32,4.273504274,657b66ea316d21385b68909f,,,,,,,,,,,786.603,787.64,,,788.187,788.457,,26,26,,,,,,,,,,,,,,,,bars/005.png,bars/mask002.png,,,,,,,,,,,,1,1,,,,,,,2,2,3,3,,,,,,,,,,,787.64,788.186,788.458,793.342,space,4.624,0,793.342,16,66,794.081,794.081,795.588,space,1.211,0,0,16,16,16,1,10,140,,,,,,,,
,,5b3c4027c49ecb00010aaeac,65af55f4d9188f2482cd2804,2024-01-23_24h07.20.044,bars,2023.2.3,Win32,4.273504274,657b66ea316d21385b68909f,,,,,,,,,,,795.588,796.628,,,797.164,797.458,,175,-5,,,,,,,,,,,,,,,,bars/049.png,bars/mask006.png,,,,,,,,,,,,1,1,,,,,,,4,4,2,4,,,,,,,,,,,796.628,797.164,797.459,801.161,space,3.428,0.001,801.161,15,60,802.204,802.204,803.801,space,1.287,0.001,0,17,17,17,1,160,115,,,,,,,,
,,5b3c4027c49ecb00010aaeac,65af55f4d9188f2482cd2804,2024-01-23_24h07.20.044,bars,2023.2.3,Win32,4.273504274,657b66ea316d21385b68909f,,,,,,,,,,,803.802,804.885,,,805.449,805.451,,176,-4,,,,,,,,,,,,,,,,bars/038.png,bars/mask000.png,,,,,,,,,,,,4,1,,,,,,,6,2,7,3,,,,,,,,,,,804.885,805.449,805.451,834.122,space,28.127,,834.122,11,74,835.177,835.177,886.451,space,50.988,,0,18,18,18,1,165,70,,,,,,,,
,,5b3c4027c49ecb00010aaeac,65af55f4d9188f2482cd2804,2024-01-23_24h07.20.044,bars,2023.2.3,Win32,4.273504274,657b66ea316d21385b68909f,,,,,,,,,,,886.474,887.047,,,887.607,887.608,,102,102,,,,,,,,,,,,,,,,bars/020.png,bars/mask002.png,,,,,,,,,,,,2,1,,,,,,,4,4,3,6,,,,,,,,,,,887.047,887.607,887.608,902.834,space,14.679,,902.835,13,68,903.88,903.88,905.631,space,1.469,,0,19,19,19,1,115,170,,,,,,,,
,,5b3c4027c49ecb00010aaeac,65af55f4d9188f2482cd2804,2024-01-23_24h07.20.044,bars,2023.2.3,Win32,4.273504274,657b66ea316d21385b68909f,,,,,,,,,,,905.631,906.736,,,907.293,907.851,,80,80,,,,,,,,,,,,,,,,bars/025.png,bars/mask004.png,,,,,,,,,,,,1,1,,,,,,,6,2,6,2,,,,,,,,,,,906.736,907.293,907.851,916.181,space,7.784,,916.181,25,40,917.3,917.3,920.983,space,3.031,,0,20,20,20,1,105,40,,,,,,,,
,,5b3c4027c49ecb00010aaeac,65af55f4d9188f2482cd2804,2024-01-23_24h07.20.044,bars,2023.2.3,Win32,4.273504274,657b66ea316d21385b68909f,,,,,,,,,,,920.983,921.793,,,922.362,922.658,,57,57,,,,,,,,,,,,,,,,bars/019.png,bars/mask009.png,,,,,,,,,,,,6,1,,,,,,,8,4,10,7,,,,,,,,,,,921.793,922.362,922.658,928.189,space,5.267,0.001,928.189,12,48,929.259,929.259,930.971,space,1.132,0.001,0,21,21,21,1,45,105,,,,,,,,
,,5b3c4027c49ecb00010aaeac,65af55f4d9188f2482cd2804,2024-01-23_24h07.20.044,bars,2023.2.3,Win32,4.273504274,657b66ea316d21385b68909f,,,,,,,,,,,930.971,932.017,,,932.556,932.822,,142,142,,,,,,,,,,,,,,,,bars/040.png,bars/mask007.png,,,,,,,,,,,,9,1,,,,,,,10,6,10,6,,,,,,,,,,,932.017,932.556,932.822,940.446,space,7.358,0.001,940.446,2,43,940.982,940.982,944.459,space,2.935,,0,22,22,22,1,140,5,,,,,,,,
,,5b3c4027c49ecb00010aaeac,65af55f4d9188f2482cd2804,2024-01-23_24h07.20.044,bars,2023.2.3,Win32,4.273504274,657b66ea316d21385b68909f,,,,,,,,,,,944.459,945.5,,,946.047,946.32,,31,31,,,,,,,,,,,,,,,,bars/000.png,bars/mask009.png,,,,,,,,,,,,6,1,,,,,,,8,4,8,3,,,,,,,,,,,945.5,946.047,946.32,959.186,space,12.598,0.001,959.186,9,66,960.264,960.264,964.187,space,3.336,0,0,23,23,23,1,40,145,,,,,,,,
,,5b3c4027c49ecb00010aaeac,65af55f4d9188f2482cd2804,2024-01-23_24h07.20.044,bars,2023.2.3,Win32,4.273504274,657b66ea316d21385b68909f,,,,,,,,,,,964.187,965.231,,,965.78,966.051,,52,52,,,,,,,,,,,,,,,,bars/043.png,bars/mask001.png,,,,,,,,,,,,2,1,,,,,,,6,6,6,8,,,,,,,,,,,965.231,965.78,966.051,969.106,space,2.788,,969.106,22,78,970.142,970.142,971.936,space,1.483,,0,24,24,24,1,30,130,,,,,,,,
,,5b3c4027c49ecb00010aaeac,65af55f4d9188f2482cd2804,2024-01-23_24h07.20.044,bars,2023.2.3,Win32,4.273504274,657b66ea316d21385b68909f,,,,,,,,,,,971.937,972.779,,,973.329,973.945,,6,186,,,,,,,,,,,,,,,,bars/011.png,bars/mask005.png,,,,,,,,,,,,1,1,,,,,,,4,8,5,8,,,,,,,,,,,972.779,973.329,973.945,993.203,space,18.704,0.001,993.203,26,79,994.24,994.24,996.6,space,2.079,0,0,25,25,25,1,160,85,,,,,,,,
,,5b3c4027c49ecb00010aaeac,65af55f4d9188f2482cd2804,2024-01-23_24h07.20.044,bars,2023.2.3,Win32,4.273504274,657b66ea316d21385b68909f,,,,,,,,,,,996.601,997.639,,,998.177,998.443,,47,47,,,,,,,,,,,,,,,,bars/048.png,bars/mask004.png,,,,,,,,,,,,5,1,,,,,,,6,10,6,10,,,,,,,,,,,997.639,998.177,998.443,1009.759,space,11.013,,1009.76,3,52,1010.87,1010.871,1013.278,space,1.803,0.001,0,26,26,26,1,50,175,,,,,,,,
,,5b3c4027c49ecb00010aaeac,65af55f4d9188f2482cd2804,2024-01-23_24h07.20.044,bars,2023.2.3,Win32,4.273504274,657b66ea316d21385b68909f,,,,,,,,,,,1013.278,1013.995,,,1014.527,1014.793,,57,57,,,,,,,,,,,,,,,,bars/043.png,bars/mask002.png,,,,,,,,,,,,0,1,,,,,,,4,8,2,7,,,,,,,,,,,1013.995,1014.527,1014.793,1030.512,space,15.449,,1030.512,27,73,1031.314,1031.314,1033.077,space,1.478,0,0,27,27,27,1,30,130,,,,,,,,
,,5b3c4027c49ecb00010aaeac,65af55f4d9188f2482cd2804,2024-01-23_24h07.20.044,bars,2023.2.3,Win32,4.273504274,657b66ea316d21385b68909f,,,,,,,,,,,1033.077,1034.119,,,1034.656,1034.949,,106,106,,,,,,,,,,,,,,,,bars/008.png,bars/mask008.png,,,,,,,,,,,,7,1,,,,,,,6,10,8,10,,,,,,,,,,,1034.119,1034.656,1034.949,1042.029,space,6.814,0,1042.029,4,74,1043.074,1043.075,1044.574,space,1.206,0.001,0,28,28,28,1,110,0,,,,,,,,
,,5b3c4027c49ecb00010aaeac,65af55f4d9188f2482cd2804,2024-01-23_24h07.20.044,bars,2023.2.3,Win32,4.273504274,657b66ea316d21385b68909f,,,,,,,,,,,1044.574,1045.615,,,1046.154,1046.438,,70,70,,,,,,,,,,,,,,,,bars/014.png,bars/mask002.png,,,,,,,,,,,,5,1,,,,,,,8,10,7,10,,,,,,,,,,,1045.615,1046.154,1046.438,1073.767,space,27.057,0.002,1073.767,10,70,1074.303,1074.303,1076.971,space,2.069,0,0,29,29,29,1,80,0,,,,,,,,
,,5b3c4027c49ecb00010aaeac,65af55f4d9188f2482cd2804,2024-01-23_24h07.20.044,bars,2023.2.3,Win32,4.273504274,657b66ea316d21385b68909f,,,,,,,,,,,1076.971,1078.005,,,1078.548,1078.813,,175,175,,,,,,,,,,,,,,,,bars/049.png,bars/mask007.png,,,,,,,,,,,,3,1,,,,,,,6,10,6,10,,,,,,,,,,,1078.005,1078.548,1078.813,1086.09,space,7.002,0.001,1086.09,15,60,1087.203,1087.203,1098.333,space,10.539,0,0,30,30,30,1,160,115,,,,,,,,
,,5b3c4027c49ecb00010aaeac,65af55f4d9188f2482cd2804,2024-01-23_24h07.20.044,bars,2023.2.3,Win32,4.273504274,657b66ea316d21385b68909f,,,,,,,,,,,1098.356,1098.949,,,1098.95,1098.952,,49,49,,,,,,,,,,,,,,,,bars/033.png,bars/mask009.png,,,,,,,,,,,,2,1,,,,,,,8,8,10,9,,,,,,,,,,,1098.949,1098.95,1098.952,1133.324,space,33.809,0.001,1133.324,24,74,1134.41,1134.411,1136.516,space,1.509,,0,31,31,31,1,25,155,,,,,,,,
,,5b3c4027c49ecb00010aaeac,65af55f4d9188f2482cd2804,2024-01-23_24h07.20.044,bars,2023.2.3,Win32,4.273504274,657b66ea316d21385b68909f,,,,,,,,,,,1136.516,1137.553,,,1138.086,1138.364,,49,49,,,,,,,,,,,,,,,,bars/048.png,bars/mask000.png,,,,,,,,,,,,10,1,,,,,,,10,6,10,6,,,,,,,,,,,1137.553,1138.086,1138.364,1159.585,space,20.935,0.002,1159.585,1,54,1160.644,1160.644,1162.443,space,1.207,,0,32,32,32,1,50,175,,,,,,,,
,,5b3c4027c49ecb00010aaeac,65af55f4d9188f2482cd2804,2024-01-23_24h07.20.044,bars,2023.2.3,Win32,4.273504274,657b66ea316d21385b68909f,,,,,,,,,,,1162.444,1163.477,,,1164.016,1164.279,,69,69,,,,,,,,,,,,,,,,bars/009.png,bars/mask000.png,,,,,,,,,,,,0,2,,,,,,,10,8,10,7,,,,,,,,,,,1163.477,1164.016,1164.28,1183.881,space,19.332,0.001,1183.881,54,36,1184.468,1184.468,1186.247,space,1.216,,0,33,33,33,1,15,105,,,,,,,,
,,5b3c4027c49ecb00010aaeac,65af55f4d9188f2482cd2804,2024-01-23_24h07.20.044,bars,2023.2.3,Win32,4.273504274,657b66ea316d21385b68909f,,,,,,,,,,,1186.248,1187.269,,,1187.809,1188.079,,23,23,,,,,,,,,,,,,,,,bars/007.png,bars/mask001.png,,,,,,,,,,,,0,1,,,,,,,8,6,7,6,,,,,,,,,,,1187.269,1187.809,1188.079,1198.893,space,10.553,0.001,1198.893,28,32,1199.925,1199.925,1201.088,space,0.882,0.001,0,34,34,34,1,175,55,,,,,,,,
,,5b3c4027c49ecb00010aaeac,65af55f4d9188f2482cd2804,2024-01-23_24h07.20.044,bars,2023.2.3,Win32,4.273504274,657b66ea316d21385b68909f,,,,,,,,,,,1201.089,1202.141,,,1202.674,1203.007,,162,162,,,,,,,,,,,,,,,,bars/017.png,bars/mask004.png,,,,,,,,,,,,4,1,,,,,,,10,4,10,5,,,,,,,,,,,1202.141,1202.674,1203.007,1208.465,space,4.894,,1208.466,17,63,1209.516,1209.516,1212.172,space,2.373,0.002,0,35,35,35,1,145,45,,,,,,,,
,,5b3c4027c49ecb00010aaeac,65af55f4d9188f2482cd2804,2024-01-23_24h07.20.044,bars,2023.2.3,Win32,4.273504274,657b66ea316d21385b68909f,,,,,,,,,,,1212.173,1213.21,,,1213.748,1214.022,,168,-12,,,,,,,,,,,,,,,,bars/001.png,bars/mask004.png,,,,,,,,,,,,0,1,,,,,,,10,6,10,8,,,,,,,,,,,1213.21,1213.748,1214.022,1221.46,space,7.171,,1221.46,38,83,1222.515,1222.515,1223.981,space,1.186,0.001,0,36,36,36,1,130,85,,,,,,,,
,,5b3c4027c49ecb00010aaeac,65af55f4d9188f2482cd2804,2024-01-23_24h07.20.044,bars,2023.2.3,Win32,4.273504274,657b66ea316d21385b68909f,,,,,,,,,,,1223.981,1225.023,,,1225.572,1225.834,,137,137,,,,,,,,,,,,,,,,bars/002.png,bars/mask002.png,,,,,,,,,,,,8,1,,,,,,,10,4,10,3,,,,,,,,,,,1225.023,1225.572,1225.834,1229.904,space,3.798,0,1229.904,7,52,1230.976,1230.976,1232.145,space,0.888,,0,37,37,37,1,130,85,,,,,,,,
,,5b3c4027c49ecb00010aaeac,65af55f4d9188f2482cd2804,2024-01-23_24h07.20.044,bars,2023.2.3,Win32,4.273504274,657b66ea316d21385b68909f,,,,,,,,,,,1232.145,1233.169,,,1233.716,1233.984,,1,1,,,,,,,,,,,,,,,,bars/038.png,bars/mask005.png,,,,,,,,,,,,3,1,,,,,,,8,2,7,3,,,,,,,,,,,1233.169,1233.716,1233.984,1247.367,space,13.122,,1247.367,16,69,1248.488,1248.488,1250.92,space,1.824,,0,38,38,38,1,165,70,,,,,,,,
,,5b3c4027c49ecb00010aaeac,65af55f4d9188f2482cd2804,2024-01-23_24h07.20.044,bars,2023.2.3,Win32,4.273504274,657b66ea316d21385b68909f,,,,,,,,,,,1250.92,1251.948,,,1252.49,1252.763,,41,41,,,,,,,,,,,,,,,,bars/019.png,bars/mask006.png,,,,,,,,,,,,7,1,,,,,,,10,4,8,4,,,,,,,,,,,1251.948,1252.49,1252.763,1267.34,space,14.304,,1267.34,4,64,1268.15,1268.15,1269.686,space,1.241,0.001,0,39,39,39,1,45,105,,,,,,,,
,,5b3c4027c49ecb00010aaeac,65af55f4d9188f2482cd2804,2024-01-23_24h07.20.044,bars,2023.2.3,Win32,4.273504274,657b66ea316d21385b68909f,,,,,,,,,,,1269.686,1270.522,,,1270.922,1271.553,,152,152,,,,,,,,,,,,,,,,bars/014.png,bars/mask007.png,,,,,,,,,,,,0,2,,,,,,,8,2,7,3,,,,,,,,,,,1270.522,1270.922,1271.553,1276.456,space,4.272,,1276.456,72,28,1277.504,1277.504,1281.066,space,3.268,0,0,40,40,40,1,80,0,,,,,,,,
,,5b3c4027c49ecb00010aaeac,65af55f4d9188f2482cd2804,2024-01-23_24h07.20.044,bars,2023.2.3,Win32,4.273504274,657b66ea316d21385b68909f,,,,,,,,,,,1281.077,1282.035,,,1282.598,1282.6,,75,75,,,,,,,,,,,,,,,,bars/029.png,bars/mask009.png,,,,,,,,,,,,3,1,,,,,,,6,4,6,4,,,,,,,,,,,1282.035,1282.598,1282.6,1285.967,space,2.801,0.001,1285.967,15,30,1287.001,1287.001,1288.761,space,1.478,0,0,41,41,41,1,90,45,,,,,,,,
,,5b3c4027c49ecb00010aaeac,65af55f4d9188f2482cd2804,2024-01-23_24h07.20.044,bars,2023.2.3,Win32,4.273504274,657b66ea316d21385b68909f,,,,,,,,,,,1288.762,1289.796,,,1290.339,1290.61,,146,-34,,,,,,,,,,,,,,,,bars/045.png,bars/mask007.png,,,,,,,,,,,,0,2,,,,,,,4,6,5,5,,,,,,,,,,,1289.796,1290.339,1290.61,1310.07,space,19.19,,1310.07,46,44,1311.105,1311.105,1312.012,space,0.618,,0,42,42,42,1,100,10,,,,,,,,
,,5b3c4027c49ecb00010aaeac,65af55f4d9188f2482cd2804,2024-01-23_24h07.20.044,bars,2023.2.3,Win32,4.273504274,657b66ea316d21385b68909f,,,,,,,,,,,1312.013,1313.042,,,1313.579,1313.902,,174,-6,,,,,,,,,,,,,,,,bars/007.png,bars/mask004.png,,,,,,,,,,,,1,1,,,,,,,2,4,1,3,,,,,,,,,,,1313.042,1313.579,1313.902,1331.461,space,16.966,0.002,1331.461,1,61,1332.521,1332.521,1336.013,space,3.216,,0,43,43,43,1,175,55,,,,,,,,
,,5b3c4027c49ecb00010aaeac,65af55f4d9188f2482cd2804,2024-01-23_24h07.20.044,bars,2023.2.3,Win32,4.273504274,657b66ea316d21385b68909f,,,,,,,,,,,1336.013,1336.827,,,1337.395,1337.953,,9,189,,,,,,,,,,,,,,,,bars/048.png,bars/mask005.png,,,,,,,,,,,,4,2,,,,,,,0,6,0,7,,,,,,,,,,,1336.827,1337.395,1337.953,1348.753,space,10.248,0.001,1348.753,41,14,1349.857,1349.857,1351.657,space,1.186,0.001,0,44,44,44,1,50,175,,,,,,,,
,,5b3c4027c49ecb00010aaeac,65af55f4d9188f2482cd2804,2024-01-23_24h07.20.044,bars,2023.2.3,Win32,4.273504274,657b66ea316d21385b68909f,,,,,,,,,,,1351.658,1352.706,,,1353.24,1353.507,,41,41,,,,,,,,,,,,,,,,bars/032.png,bars/mask000.png,,,,,,,,,,,,3,2,,,,,,,0,8,0,9,,,,,,,,,,,1352.707,1353.24,1353.507,1356.874,space,3.1,0.001,1356.874,84,21,1357.93,1357.93,1359.486,space,1.277,,0,45,45,45,1,125,20,,,,,,,,
,,5b3c4027c49ecb00010aaeac,65af55f4d9188f2482cd2804,2024-01-23_24h07.20.044,bars,2023.2.3,Win32,4.273504274,657b66ea316d21385b68909f,,,,,,,,,,,1359.487,1360.045,,,1360.596,1360.597,,158,158,,,,,,,,,,,,,,,,bars/038.png,bars/mask001.png,,,,,,,,,,,,0,1,,,,,,,0,6,0,7,,,,,,,,,,,1360.045,1360.596,1360.598,1362.856,space,1.715,0,1362.856,7,88,1363.872,1363.872,1365.322,space,1.165,0,0,46,46,46,1,165,70,,,,,,,,
,,5b3c4027c49ecb00010aaeac,65af55f4d9188f2482cd2804,2024-01-23_24h07.20.044,bars,2023.2.3,Win32,4.273504274,657b66ea316d21385b68909f,,,,,,,,,,,1365.323,1366.353,,,1366.888,1367.154,,157,157,,,,,,,,,,,,,,,,bars/035.png,bars/mask008.png,,,,,,,,,,,,1,1,,,,,,,2,8,3,7,,,,,,,,,,,1366.353,1366.888,1367.154,1382.037,space,14.618,0,1382.037,18,83,1383.081,1383.081,1385.415,space,1.74,0.001,0,47,47,47,1,175,60,,,,,,,,
,,5b3c4027c49ecb00010aaeac,65af55f4d9188f2482cd2804,2024-01-23_24h07.20.044,bars,2023.2.3,Win32,4.273504274,657b66ea316d21385b68909f,,,,,,,,,,,1385.415,1386.447,,,1386.984,1387.249,,112,112,,,,,,,,,,,,,,,,bars/024.png,bars/mask003.png,,,,,,,,,,,,0,1,,,,,,,0,6,0,5,,,,,,,,,,,1386.447,1386.983,1387.249,1388.661,space,1.127,,1388.661,8,58,1389.461,1389.461,1390.624,space,0.883,,0,48,48,48,1,120,170,,,,,,,,
,,5b3c4027c49ecb00010aaeac,65af55f4d9188f2482cd2804,2024-01-23_24h07.20.044,bars,2023.2.3,Win32,4.273504274,657b66ea316d21385b68909f,,,,,,,,,,,1390.625,1391.447,,,1391.984,1392.32,,26,26,,,,,,,,,,,,,,,,bars/023.png,bars/mask006.png,,,,,,,,,,,,1,1,,,,,,,0,8,1,7,,,,,,,,,,,1391.447,1391.984,1392.32,1409.158,space,16.227,,1409.158,6,89,1410.197,1410.197,1411.398,space,0.892,,0,49,49,49,1,20,115,,,,,,,,
,,5b3c4027c49ecb00010aaeac,65af55f4d9188f2482cd2804,2024-01-23_24h07.20.044,bars,2023.2.3,Win32,4.273504274,657b66ea316d21385b68909f,,,,,,,,,,,,,,,,,,,,,,,,,,,,,,,,,,,,,,,,,,,,,,,,,,,,,,,,,,,,,,,,,,,,,,,,,,,,,,,,,,,,,,,,,,,,,1411.399,1471.188,0,0,0,0,1,sequence_tables/blk013.csv
,,5b3c4027c49ecb00010aaeac,65af55f4d9188f2482cd2804,2024-01-23_24h07.20.044,bars,2023.2.3,Win32,4.273504274,657b66ea316d21385b68909f,,,,,,,,,,,1473.621,1474.647,,,1475.184,1475.457,,15,15,,,,,,,,,,,,,,,,bars/000.png,bars/mask009.png,,,,,,,,,,,,1,1,,,,,,,5,5,4,5,,,,,,1471.199,1473.616,space,2.176,,1474.647,1475.184,1475.458,1482.814,space,7.112,,1482.814,25,50,1483.858,1483.858,1483.869,,,,0,0,0,0,1,40,145,,,,,,,,
,,5b3c4027c49ecb00010aaeac,65af55f4d9188f2482cd2804,2024-01-23_24h07.20.044,bars,2023.2.3,Win32,4.273504274,657b66ea316d21385b68909f,,,,,,,,,,,1483.869,1484.909,,,1485.442,1485.707,,27,27,,,,,,,,,,,,,,,,bars/043.png,bars/mask007.png,,,,,,,,,,,,2,1,,,,,,,3,3,2,2,,,,,,,,,,,1484.909,1485.442,1485.707,1487.537,space,1.586,0,1487.537,3,77,1488.639,1488.639,1488.66,,,,0,1,1,1,1,30,130,,,,,,,,
,,5b3c4027c49ecb00010aaeac,65af55f4d9188f2482cd2804,2024-01-23_24h07.20.044,bars,2023.2.3,Win32,4.273504274,657b66ea316d21385b68909f,,,,,,,,,,,1488.66,1489.725,,,1490.276,1490.277,,37,37,,,,,,,,,,,,,,,,bars/003.png,bars/mask008.png,,,,,,,,,,,,4,1,,,,,,,5,1,6,1,,,,,,,,,,,1489.725,1490.276,1490.277,1498.841,space,8.051,,1498.841,12,77,1499.89,1499.89,1499.901,,,,0,2,2,2,1,25,140,,,,,,,,
,,5b3c4027c49ecb00010aaeac,65af55f4d9188f2482cd2804,2024-01-23_24h07.20.044,bars,2023.2.3,Win32,4.273504274,657b66ea316d21385b68909f,,,,,,,,,,,1499.901,1500.932,,,1501.477,1501.744,,29,29,,,,,,,,,,,,,,,,bars/023.png,bars/mask004.png,,,,,,,,,,,,4,1,,,,,,,3,3,5,4,,,,,,,,,,,1500.932,1501.477,1501.744,1505.275,space,3.275,0,1505.275,9,86,1506.328,1506.328,1506.339,,,,0,3,3,3,1,20,115,,,,,,,,
,,5b3c4027c49ecb00010aaeac,65af55f4d9188f2482cd2804,2024-01-23_24h07.20.044,bars,2023.2.3,Win32,4.273504274,657b66ea316d21385b68909f,,,,,,,,,,,1506.34,1507.358,,,1507.886,1508.156,,163,163,,,,,,,,,,,,,,,,bars/040.png,bars/mask008.png,,,,,,,,,,,,1,2,,,,,,,1,5,1,5,,,,,,,,,,,1507.358,1507.886,1508.156,1511.007,space,2.604,,1511.007,23,22,1512.052,1512.052,1512.054,,,,0,4,4,4,1,140,5,,,,,,,,
,,5b3c4027c49ecb00010aaeac,65af55f4d9188f2482cd2804,2024-01-23_24h07.20.044,bars,2023.2.3,Win32,4.273504274,657b66ea316d21385b68909f,,,,,,,,,,,1512.054,1513.186,,,1513.725,1513.726,,29,29,,,,,,,,,,,,,,,,bars/007.png,bars/mask001.png,,,,,,,,,,,,0,2,,,,,,,0,3,0,2,,,,,,,,,,,1513.186,1513.724,1513.726,1527.773,space,13.49,0.001,1527.773,34,26,1528.849,1528.849,1528.871,,,,0,5,5,5,1,175,55,,,,,,,,
,,5b3c4027c49ecb00010aaeac,65af55f4d9188f2482cd2804,2024-01-23_24h07.20.044,bars,2023.2.3,Win32,4.273504274,657b66ea316d21385b68909f,,,,,,,,,,,1528.871,1529.602,,,1530.151,1530.418,,20,200,,,,,,,,,,,,,,,,bars/013.png,bars/mask003.png,,,,,,,,,,,,1,2,,,,,,,2,1,3,1,,,,,,,,,,,1529.602,1530.151,1530.418,1546.906,space,16.244,,1546.906,55,10,1547.769,1547.769,1547.79,,,,0,6,6,6,1,75,10,,,,,,,,
,,5b3c4027c49ecb00010aaeac,65af55f4d9188f2482cd2804,2024-01-23_24h07.20.044,bars,2023.2.3,Win32,4.273504274,657b66ea316d21385b68909f,,,,,,,,,,,1547.792,1548.884,,,1549.447,1549.449,,102,102,,,,,,,,,,,,,,,,bars/008.png,bars/mask001.png,,,,,,,,,,,,4,1,,,,,,,4,3,5,3,,,,,,,,,,,1548.884,1549.447,1549.45,1553.47,space,3.501,,1553.47,8,78,1554.507,1554.507,1554.521,,,,0,7,7,7,1,110,0,,,,,,,,
,,5b3c4027c49ecb00010aaeac,65af55f4d9188f2482cd2804,2024-01-23_24h07.20.044,bars,2023.2.3,Win32,4.273504274,657b66ea316d21385b68909f,,,,,,,,,,,1554.521,1555.555,,,1556.095,1556.36,,131,131,,,,,,,,,,,,,,,,bars/012.png,bars/mask003.png,,,,,,,,,,,,0,1,,,,,,,2,5,1,6,,,,,,,,,,,1555.555,1556.095,1556.36,1571.367,space,14.764,,1571.368,41,64,1572.403,1572.403,1572.414,,,,0,8,8,8,1,90,15,,,,,,,,
,,5b3c4027c49ecb00010aaeac,65af55f4d9188f2482cd2804,2024-01-23_24h07.20.044,bars,2023.2.3,Win32,4.273504274,657b66ea316d21385b68909f,,,,,,,,,,,1572.414,1573.437,,,1573.97,1574.244,,161,-19,,,,,,,,,,,,,,,,bars/001.png,bars/mask008.png,,,,,,,,,,,,0,1,,,,,,,4,3,4,4,,,,,,,,,,,1573.437,1573.97,1574.244,1585.24,space,10.435,,1585.24,31,76,1586.294,1586.294,1586.305,,,,0,9,9,9,1,130,85,,,,,,,,
,,5b3c4027c49ecb00010aaeac,65af55f4d9188f2482cd2804,2024-01-23_24h07.20.044,bars,2023.2.3,Win32,4.273504274,657b66ea316d21385b68909f,,,,,,,,,,,1586.305,1587.348,,,1587.962,1588.545,,48,48,,,,,,,,,,,,,,,,bars/039.png,bars/mask000.png,,,,,,,,,,,,0,1,,,,,,,2,5,3,5,,,,,,,,,,,1587.348,1587.962,1588.545,1610.034,space,20.943,,1610.034,53,57,1611.079,1611.079,1611.089,,,,0,10,10,10,1,175,105,,,,,,,,
,,5b3c4027c49ecb00010aaeac,65af55f4d9188f2482cd2804,2024-01-23_24h07.20.044,bars,2023.2.3,Win32,4.273504274,657b66ea316d21385b68909f,,,,,,,,,,,1611.089,1612.123,,,1612.654,1612.936,,119,119,,,,,,,,,,,,,,,,bars/025.png,bars/mask002.png,,,,,,,,,,,,0,1,,,,,,,0,7,0,6,,,,,,,,,,,1612.123,1612.654,1612.936,1625.756,space,12.278,,1625.756,14,79,1626.847,1626.847,1626.869,,,,0,11,11,11,1,105,40,,,,,,,,
,,5b3c4027c49ecb00010aaeac,65af55f4d9188f2482cd2804,2024-01-23_24h07.20.044,bars,2023.2.3,Win32,4.273504274,657b66ea316d21385b68909f,,,,,,,,,,,1626.87,1627.969,,,1628.558,1628.559,,154,154,,,,,,,,,,,,,,,,bars/035.png,bars/mask008.png,,,,,,,,,,,,0,1,,,,,,,0,9,0,8,,,,,,,,,,,1627.969,1628.558,1628.559,1642.975,space,13.953,,1642.975,21,86,1644.041,1644.041,1644.052,,,,0,12,12,12,1,175,60,,,,,,,,
,,5b3c4027c49ecb00010aaeac,65af55f4d9188f2482cd2804,2024-01-23_24h07.20.044,bars,2023.2.3,Win32,4.273504274,657b66ea316d21385b68909f,,,,,,,,,,,1644.053,1645.089,,,1645.617,1645.905,,19,19,,,,,,,,,,,,,,,,bars/019.png,bars/mask000.png,,,,,,,,,,,,0,1,,,,,,,2,7,3,7,,,,,,,,,,,1645.089,1645.617,1645.905,1653.402,space,7.25,,1653.402,26,86,1654.201,1654.201,1654.211,,,,0,13,13,13,1,45,105,,,,,,,,
,,5b3c4027c49ecb00010aaeac,65af55f4d9188f2482cd2804,2024-01-23_24h07.20.044,bars,2023.2.3,Win32,4.273504274,657b66ea316d21385b68909f,,,,,,,,,,,1654.212,1655.234,,,1655.782,1656.056,,144,144,,,,,,,,,,,,,,,,bars/035.png,bars/mask006.png,,,,,,,,,,,,0,1,,,,,,,0,9,0,10,,,,,,,,,,,1655.234,1655.782,1656.056,1662.571,space,6.268,,1662.571,31,84,1663.6,1663.6,1663.601,,,,0,14,14,14,1,175,60,,,,,,,,
,,5b3c4027c49ecb00010aaeac,65af55f4d9188f2482cd2804,2024-01-23_24h07.20.044,bars,2023.2.3,Win32,4.273504274,657b66ea316d21385b68909f,,,,,,,,,,,1663.601,1664.631,,,1665.165,1665.436,,12,12,,,,,,,,,,,,,,,,bars/026.png,bars/mask008.png,,,,,,,,,,,,0,1,,,,,,,0,7,1,7,,,,,,,,,,,1664.631,1665.165,1665.436,1670.747,space,5.064,,1670.747,23,73,1671.821,1671.821,1671.833,,,,0,15,15,15,1,35,85,,,,,,,,
,,5b3c4027c49ecb00010aaeac,65af55f4d9188f2482cd2804,2024-01-23_24h07.20.044,bars,2023.2.3,Win32,4.273504274,657b66ea316d21385b68909f,,,,,,,,,,,1671.834,1672.667,,,1673.219,1673.811,,155,155,,,,,,,,,,,,,,,,bars/035.png,bars/mask006.png,,,,,,,,,,,,1,1,,,,,,,0,9,2,6,,,,,,,,,,,1672.667,1673.219,1673.811,1678.631,space,4.31,0.001,1678.631,20,85,1679.439,1679.439,1679.449,,,,0,16,16,16,1,175,60,,,,,,,,
,,5b3c4027c49ecb00010aaeac,65af55f4d9188f2482cd2804,2024-01-23_24h07.20.044,bars,2023.2.3,Win32,4.273504274,657b66ea316d21385b68909f,,,,,,,,,,,1679.449,1680.488,,,1681.029,1681.297,,100,100,,,,,,,,,,,,,,,,bars/024.png,bars/mask006.png,,,,,,,,,,,,1,1,,,,,,,2,7,2,7,,,,,,,,,,,1680.488,1681.029,1681.298,1687.576,space,6.026,,1687.576,20,70,1688.616,1688.616,1688.626,,,,0,17,17,17,1,120,170,,,,,,,,
,,5b3c4027c49ecb00010aaeac,65af55f4d9188f2482cd2804,2024-01-23_24h07.20.044,bars,2023.2.3,Win32,4.273504274,657b66ea316d21385b68909f,,,,,,,,,,,1688.626,1689.428,,,1689.971,1690.237,,53,53,,,,,,,,,,,,,,,,bars/026.png,bars/mask004.png,,,,,,,,,,,,0,1,,,,,,,0,5,0,4,,,,,,,,,,,1689.428,1689.971,1690.237,1699.211,space,8.725,,1699.212,18,32,1699.778,1699.778,1699.779,,,,0,18,18,18,1,35,85,,,,,,,,
,,5b3c4027c49ecb00010aaeac,65af55f4d9188f2482cd2804,2024-01-23_24h07.20.044,bars,2023.2.3,Win32,4.273504274,657b66ea316d21385b68909f,,,,,,,,,,,1699.78,1700.362,,,1700.892,1700.894,,6,186,,,,,,,,,,,,,,,,bars/047.png,bars/mask002.png,,,,,,,,,,,,1,1,,,,,,,2,7,1,8,,,,,,,,,,,1700.362,1700.892,1700.894,1716.887,space,15.747,,1716.887,9,64,1717.95,1717.95,1717.96,,,,0,19,19,19,1,15,70,,,,,,,,
,,5b3c4027c49ecb00010aaeac,65af55f4d9188f2482cd2804,2024-01-23_24h07.20.044,bars,2023.2.3,Win32,4.273504274,657b66ea316d21385b68909f,,,,,,,,,,,1717.96,1718.994,,,1719.531,1719.799,,17,17,,,,,,,,,,,,,,,,bars/038.png,bars/mask004.png,,,,,,,,,,,,0,1,,,,,,,0,5,0,5,,,,,,,,,,,1718.994,1719.531,1719.799,1737.267,space,17.219,0.001,1737.267,32,53,1738.005,1738.005,1738.015,,,,0,20,20,20,1,165,70,,,,,,,,
,,5b3c4027c49ecb00010aaeac,65af55f4d9188f2482cd2804,2024-01-23_24h07.20.044,bars,2023.2.3,Win32,4.273504274,657b66ea316d21385b68909f,,,,,,,,,,,1738.015,1739.042,,,1739.575,1739.844,,171,-9,,,,,,,,,,,,,,,,bars/002.png,bars/mask009.png,,,,,,,,,,,,0,1,,,,,,,2,3,2,4,,,,,,,,,,,1739.042,1739.575,1739.844,1756.186,space,16.087,,1756.186,41,86,1757.218,1757.218,1757.228,,,,0,21,21,21,1,130,85,,,,,,,,
,,5b3c4027c49ecb00010aaeac,65af55f4d9188f2482cd2804,2024-01-23_24h07.20.044,bars,2023.2.3,Win32,4.273504274,657b66ea316d21385b68909f,,,,,,,,,,,1757.228,1758.26,,,1758.806,1759.083,,31,31,,,,,,,,,,,,,,,,bars/026.png,bars/mask009.png,,,,,,,,,,,,3,1,,,,,,,4,5,3,4,,,,,,,,,,,1758.26,1758.806,1759.083,1765.329,space,6,,1765.329,4,54,1766.372,1766.372,1766.383,,,,0,22,22,22,1,35,85,,,,,,,,
,,5b3c4027c49ecb00010aaeac,65af55f4d9188f2482cd2804,2024-01-23_24h07.20.044,bars,2023.2.3,Win32,4.273504274,657b66ea316d21385b68909f,,,,,,,,,,,1766.383,1767.406,,,1767.94,1768.205,,136,136,,,,,,,,,,,,,,,,bars/024.png,bars/mask001.png,,,,,,,,,,,,2,1,,,,,,,6,3,5,2,,,,,,,,,,,1767.406,1767.94,1768.205,1770.284,space,1.834,0.001,1770.284,16,34,1771.312,1771.312,1771.324,,,,0,23,23,23,1,120,170,,,,,,,,
,,5b3c4027c49ecb00010aaeac,65af55f4d9188f2482cd2804,2024-01-23_24h07.20.044,bars,2023.2.3,Win32,4.273504274,657b66ea316d21385b68909f,,,,,,,,,,,1771.324,1772.189,,,1772.745,1772.747,,153,153,,,,,,,,,,,,,,,,bars/037.png,bars/mask009.png,,,,,,,,,,,,4,1,,,,,,,4,1,4,3,,,,,,,,,,,1772.189,1772.745,1772.747,1774.988,space,1.682,,1774.988,3,48,1775.716,1775.716,1775.727,,,,0,24,24,24,1,150,105,,,,,,,,
,,5b3c4027c49ecb00010aaeac,65af55f4d9188f2482cd2804,2024-01-23_24h07.20.044,bars,2023.2.3,Win32,4.273504274,657b66ea316d21385b68909f,,,,,,,,,,,1775.727,1776.778,,,1777.316,1777.581,,17,17,,,,,,,,,,,,,,,,bars/036.png,bars/mask000.png,,,,,,,,,,,,0,2,,,,,,,2,0,1,0,,,,,,,,,,,1776.778,1777.316,1777.581,1791.973,space,14.147,,1791.973,52,3,1793,1793,1793.012,,,,0,25,25,25,1,145,20,,,,,,,,
,,5b3c4027c49ecb00010aaeac,65af55f4d9188f2482cd2804,2024-01-23_24h07.20.044,bars,2023.2.3,Win32,4.273504274,657b66ea316d21385b68909f,,,,,,,,,,,1793.013,1794.052,,,1794.597,1794.87,,64,64,,,,,,,,,,,,,,,,bars/028.png,bars/mask004.png,,,,,,,,,,,,0,1,,,,,,,0,0,1,1,,,,,,,,,,,1794.052,1794.597,1794.87,1800.84,space,5.721,,1800.84,19,56,1801.896,1801.896,1801.908,,,,0,26,26,26,1,45,120,,,,,,,,
,,5b3c4027c49ecb00010aaeac,65af55f4d9188f2482cd2804,2024-01-23_24h07.20.044,bars,2023.2.3,Win32,4.273504274,657b66ea316d21385b68909f,,,,,,,,,,,1801.909,1802.943,,,1803.478,1803.744,,49,49,,,,,,,,,,,,,,,,bars/028.png,bars/mask009.png,,,,,,,,,,,,1,1,,,,,,,0,0,1,0,,,,,,,,,,,1802.943,1803.478,1803.744,1808.384,space,4.387,0.001,1808.384,4,71,1809.454,1809.454,1809.475,,,,0,27,27,27,1,45,120,,,,,,,,
,,5b3c4027c49ecb00010aaeac,65af55f4d9188f2482cd2804,2024-01-23_24h07.20.044,bars,2023.2.3,Win32,4.273504274,657b66ea316d21385b68909f,,,,,,,,,,,1809.475,1810.197,,,1810.759,1811.051,,37,37,,,,,,,,,,,,,,,,bars/016.png,bars/mask001.png,,,,,,,,,,,,0,1,,,,,,,0,0,0,0,,,,,,,,,,,1810.197,1810.759,1811.051,1812.883,space,1.587,,1812.883,3,52,1813.932,1813.932,1813.943,,,,0,28,28,28,1,40,165,,,,,,,,
,,5b3c4027c49ecb00010aaeac,65af55f4d9188f2482cd2804,2024-01-23_24h07.20.044,bars,2023.2.3,Win32,4.273504274,657b66ea316d21385b68909f,,,,,,,,,,,1813.943,1814.966,,,1815.501,1815.767,,151,151,,,,,,,,,,,,,,,,bars/032.png,bars/mask001.png,,,,,,,,,,,,0,1,,,,,,,0,2,0,2,,,,,,,,,,,1814.966,1815.501,1815.767,1823.576,space,7.56,0,1823.577,26,49,1824.626,1824.626,1824.636,,,,0,29,29,29,1,125,20,,,,,,,,
,,5b3c4027c49ecb00010aaeac,65af55f4d9188f2482cd2804,2024-01-23_24h07.20.044,bars,2023.2.3,Win32,4.273504274,657b66ea316d21385b68909f,,,,,,,,,,,1824.637,1825.671,,,1826.208,1826.483,,11,191,,,,,,,,,,,,,,,,bars/043.png,bars/mask005.png,,,,,,,,,,,,1,1,,,,,,,2,4,3,3,,,,,,,,,,,1825.671,1826.208,1826.483,1831.895,space,5.174,,1831.895,19,61,1832.475,1832.475,1832.477,,,,0,30,30,30,1,30,130,,,,,,,,
,,5b3c4027c49ecb00010aaeac,65af55f4d9188f2482cd2804,2024-01-23_24h07.20.044,bars,2023.2.3,Win32,4.273504274,657b66ea316d21385b68909f,,,,,,,,,,,1832.478,1833.532,,,1834.034,1834.036,,59,59,,,,,,,,,,,,,,,,bars/012.png,bars/mask002.png,,,,,,,,,,,,0,1,,,,,,,4,2,4,2,,,,,,,,,,,1833.532,1834.034,1834.036,1845.369,space,11.084,0,1845.369,31,44,1846.405,1846.405,1846.415,,,,0,31,31,31,1,90,15,,,,,,,,
,,5b3c4027c49ecb00010aaeac,65af55f4d9188f2482cd2804,2024-01-23_24h07.20.044,bars,2023.2.3,Win32,4.273504274,657b66ea316d21385b68909f,,,,,,,,,,,1846.416,1847.441,,,1847.972,1848.271,,103,103,,,,,,,,,,,,,,,,bars/031.png,bars/mask001.png,,,,,,,,,,,,3,1,,,,,,,6,4,6,4,,,,,,,,,,,1847.441,1847.972,1848.271,1855.079,space,6.557,0.001,1855.079,17,68,1856.104,1856.104,1856.105,,,,0,32,32,32,1,120,35,,,,,,,,
,,5b3c4027c49ecb00010aaeac,65af55f4d9188f2482cd2804,2024-01-23_24h07.20.044,bars,2023.2.3,Win32,4.273504274,657b66ea316d21385b68909f,,,,,,,,,,,1856.106,1857.14,,,1857.685,1857.954,,140,140,,,,,,,,,,,,,,,,bars/002.png,bars/mask004.png,,,,,,,,,,,,5,1,,,,,,,8,6,7,5,,,,,,,,,,,1857.14,1857.684,1857.954,1860.307,space,2.105,0.001,1860.307,10,55,1861.344,1861.344,1861.354,,,,0,33,33,33,1,130,85,,,,,,,,
,,5b3c4027c49ecb00010aaeac,65af55f4d9188f2482cd2804,2024-01-23_24h07.20.044,bars,2023.2.3,Win32,4.273504274,657b66ea316d21385b68909f,,,,,,,,,,,1861.355,1862.367,,,1862.9,1863.166,,86,86,,,,,,,,,,,,,,,,bars/029.png,bars/mask002.png,,,,,,,,,,,,5,1,,,,,,,6,4,6,5,,,,,,,,,,,1862.368,1862.9,1863.166,1865.343,space,1.924,0.001,1865.343,4,41,1866.419,1866.419,1866.42,,,,0,34,34,34,1,90,45,,,,,,,,
,,5b3c4027c49ecb00010aaeac,65af55f4d9188f2482cd2804,2024-01-23_24h07.20.044,bars,2023.2.3,Win32,4.273504274,657b66ea316d21385b68909f,,,,,,,,,,,1866.421,1867.431,,,1867.697,1867.697,,162,162,,,,,,,,,,,,,,,,bars/007.png,bars/mask006.png,,,,,,,,,,,,4,1,,,,,,,8,2,7,3,,,,,,,,,,,1867.431,1867.696,1867.698,1869.513,space,1.564,,1869.513,13,73,1870.557,1870.557,1870.568,,,,0,35,35,35,1,175,55,,,,,,,,
,,5b3c4027c49ecb00010aaeac,65af55f4d9188f2482cd2804,2024-01-23_24h07.20.044,bars,2023.2.3,Win32,4.273504274,657b66ea316d21385b68909f,,,,,,,,,,,1870.569,1871.609,,,1872.149,1872.418,,168,168,,,,,,,,,,,,,,,,bars/005.png,bars/mask007.png,,,,,,,,,,,,2,1,,,,,,,6,0,7,0,,,,,,,,,,,1871.609,1872.149,1872.418,1873.97,space,1.31,,1873.97,22,28,1874.837,1874.837,1874.839,,,,0,36,36,36,1,10,140,,,,,,,,
,,5b3c4027c49ecb00010aaeac,65af55f4d9188f2482cd2804,2024-01-23_24h07.20.044,bars,2023.2.3,Win32,4.273504274,657b66ea316d21385b68909f,,,,,,,,,,,1874.839,1875.915,,,1876.455,1876.456,,126,126,,,,,,,,,,,,,,,,bars/029.png,bars/mask009.png,,,,,,,,,,,,0,1,,,,,,,4,2,3,1,,,,,,,,,,,1875.915,1876.455,1876.456,1888.993,space,12.027,0.001,1888.993,36,81,1890.055,1890.055,1890.056,,,,0,37,37,37,1,90,45,,,,,,,,
,,5b3c4027c49ecb00010aaeac,65af55f4d9188f2482cd2804,2024-01-23_24h07.20.044,bars,2023.2.3,Win32,4.273504274,657b66ea316d21385b68909f,,,,,,,,,,,1890.057,1891.14,,,1891.747,1891.748,,142,-38,,,,,,,,,,,,,,,,bars/024.png,bars/mask008.png,,,,,,,,,,,,0,1,,,,,,,2,4,1,4,,,,,,,,,,,1891.14,1891.747,1891.748,1909.704,space,17.439,,1909.704,22,28,1910.751,1910.751,1910.762,,,,0,38,38,38,1,120,170,,,,,,,,
,,5b3c4027c49ecb00010aaeac,65af55f4d9188f2482cd2804,2024-01-23_24h07.20.044,bars,2023.2.3,Win32,4.273504274,657b66ea316d21385b68909f,,,,,,,,,,,1910.763,1911.805,,,1912.344,1912.608,,111,111,,,,,,,,,,,,,,,,bars/020.png,bars/mask003.png,,,,,,,,,,,,3,1,,,,,,,4,6,4,6,,,,,,,,,,,1911.805,1912.344,1912.608,1936.435,space,23.581,,1936.435,4,59,1937.246,1937.246,1937.256,,,,0,39,39,39,1,115,170,,,,,,,,
,,5b3c4027c49ecb00010aaeac,65af55f4d9188f2482cd2804,2024-01-23_24h07.20.044,bars,2023.2.3,Win32,4.273504274,657b66ea316d21385b68909f,,,,,,,,,,,1937.256,1938.297,,,1938.633,1939.182,,57,57,,,,,,,,,,,,,,,,bars/043.png,bars/mask003.png,,,,,,,,,,,,0,1,,,,,,,2,4,2,2,,,,,,,,,,,1938.297,1938.633,1939.182,1942.494,space,2.79,,1942.494,27,73,1943.255,1943.255,1943.265,,,,0,40,40,40,1,30,130,,,,,,,,
,,5b3c4027c49ecb00010aaeac,65af55f4d9188f2482cd2804,2024-01-23_24h07.20.044,bars,2023.2.3,Win32,4.273504274,657b66ea316d21385b68909f,,,,,,,,,,,1943.266,1944.285,,,1944.819,1945.106,,5,185,,,,,,,,,,,,,,,,bars/016.png,bars/mask003.png,,,,,,,,,,,,1,2,,,,,,,4,2,7,2,,,,,,,,,,,1944.285,1944.819,1945.107,1949.341,space,3.987,,1949.341,35,20,1950.389,1950.389,1950.402,,,,0,41,41,41,1,40,165,,,,,,,,
,,5b3c4027c49ecb00010aaeac,65af55f4d9188f2482cd2804,2024-01-23_24h07.20.044,bars,2023.2.3,Win32,4.273504274,657b66ea316d21385b68909f,,,,,,,,,,,1950.402,1951.429,,,1951.98,1952.526,,31,31,,,,,,,,,,,,,,,,bars/028.png,bars/mask000.png,,,,,,,,,,,,4,1,,,,,,,6,4,7,5,,,,,,,,,,,1951.429,1951.98,1952.526,1955.182,space,2.142,0.001,1955.182,14,89,1956.219,1956.219,1956.231,,,,0,42,42,42,1,45,120,,,,,,,,
,,5b3c4027c49ecb00010aaeac,65af55f4d9188f2482cd2804,2024-01-23_24h07.20.044,bars,2023.2.3,Win32,4.273504274,657b66ea316d21385b68909f,,,,,,,,,,,1956.231,1957.274,,,1957.812,1958.086,,45,45,,,,,,,,,,,,,,,,bars/022.png,bars/mask008.png,,,,,,,,,,,,0,2,,,,,,,4,2,4,3,,,,,,,,,,,1957.275,1957.812,1958.086,1960.741,space,2.409,,1960.741,50,25,1961.772,1961.772,1961.785,,,,0,43,43,43,1,95,20,,,,,,,,
,,5b3c4027c49ecb00010aaeac,65af55f4d9188f2482cd2804,2024-01-23_24h07.20.044,bars,2023.2.3,Win32,4.273504274,657b66ea316d21385b68909f,,,,,,,,,,,1961.785,1962.83,,,1963.372,1963.645,,50,50,,,,,,,,,,,,,,,,bars/023.png,bars/mask003.png,,,,,,,,,,,,0,1,,,,,,,6,0,5,1,,,,,,,,,,,1962.83,1963.372,1963.645,1974.121,space,10.224,,1974.121,30,65,1975.226,1975.226,1975.248,,,,0,44,44,44,1,20,115,,,,,,,,
,,5b3c4027c49ecb00010aaeac,65af55f4d9188f2482cd2804,2024-01-23_24h07.20.044,bars,2023.2.3,Win32,4.273504274,657b66ea316d21385b68909f,,,,,,,,,,,1975.249,1976.376,,,1976.929,1976.931,,162,-18,,,,,,,,,,,,,,,,bars/037.png,bars/mask000.png,,,,,,,,,,,,2,1,,,,,,,4,0,3,0,,,,,,,,,,,1976.376,1976.929,1976.931,1995.773,space,18.32,,1995.773,12,57,1996.815,1996.815,1996.827,,,,0,45,45,45,1,150,105,,,,,,,,
,,5b3c4027c49ecb00010aaeac,65af55f4d9188f2482cd2804,2024-01-23_24h07.20.044,bars,2023.2.3,Win32,4.273504274,657b66ea316d21385b68909f,,,,,,,,,,,1996.827,1997.738,,,1998.308,1998.31,,25,25,,,,,,,,,,,,,,,,bars/005.png,bars/mask003.png,,,,,,,,,,,,3,1,,,,,,,6,2,6,1,,,,,,,,,,,1997.738,1998.308,1998.31,2002.231,space,3.42,,2002.231,15,65,2003.279,2003.279,2003.29,,,,0,46,46,46,1,10,140,,,,,,,,
,,5b3c4027c49ecb00010aaeac,65af55f4d9188f2482cd2804,2024-01-23_24h07.20.044,bars,2023.2.3,Win32,4.273504274,657b66ea316d21385b68909f,,,,,,,,,,,2003.29,2004.315,,,2004.867,2005.135,,47,47,,,,,,,,,,,,,,,,bars/004.png,bars/mask006.png,,,,,,,,,,,,1,1,,,,,,,4,4,3,5,,,,,,,,,,,2004.315,2004.867,2005.135,2019.163,space,13.78,0.001,2019.163,22,78,2020.212,2020.212,2020.237,,,,0,47,47,47,1,25,125,,,,,,,,
,,5b3c4027c49ecb00010aaeac,65af55f4d9188f2482cd2804,2024-01-23_24h07.20.044,bars,2023.2.3,Win32,4.273504274,657b66ea316d21385b68909f,,,,,,,,,,,2020.238,2021.287,,,2021.844,2021.845,,74,74,,,,,,,,,,,,,,,,bars/022.png,bars/mask009.png,,,,,,,,,,,,1,1,,,,,,,2,2,2,3,,,,,,,,,,,2021.287,2021.844,2021.845,2041.855,space,19.55,,2041.855,21,54,2042.946,2042.947,2042.967,,,,0,48,48,48,1,95,20,,,,,,,,
,,5b3c4027c49ecb00010aaeac,65af55f4d9188f2482cd2804,2024-01-23_24h07.20.044,bars,2023.2.3,Win32,4.273504274,657b66ea316d21385b68909f,,,,,,,,,,,2042.968,2043.689,,,2044.224,2044.493,,64,64,,,,,,,,,,,,,,,,bars/019.png,bars/mask007.png,,,,,,,,,,,,0,1,,,,,,,0,0,0,0,,,,,,,,,,,2043.689,2044.224,2044.493,2076.365,space,31.618,,2076.365,19,41,2077.395,2077.395,2077.409,,,,0,49,49,49,1,45,105,,,,,,,,
,,5b3c4027c49ecb00010aaeac,65af55f4d9188f2482cd2804,2024-01-23_24h07.20.044,bars,2023.2.3,Win32,4.273504274,657b66ea316d21385b68909f,,,,,,,,,,,,,,,,,,,,,,,,,,,,,,,,,,,,,,,,,,,,,,,,,,,,,,,,,,,,,,,,,,,,,,,,,,,,,,,,,,,,,,,,,,,,,2077.409,2137.302,0,1,1,3,1,sequence_tables/blk014.csv
,,5b3c4027c49ecb00010aaeac,65af55f4d9188f2482cd2804,2024-01-23_24h07.20.044,bars,2023.2.3,Win32,4.273504274,657b66ea316d21385b68909f,,,,,,,,,,,2178.058,2179.116,,,2179.654,2179.929,,32,32,,,,,,,,,,,,,,,,bars/004.png,bars/mask007.png,,,,,,,,,,,,1,1,,,,,,,1,9,1,7,,,,,,2137.313,2178.042,space,40.479,,2179.116,2179.654,2179.929,2181.385,space,1.187,0.001,2181.385,7,87,2182.456,2182.456,2182.457,,,,0,0,0,0,1,25,125,,,,,,,,
,,5b3c4027c49ecb00010aaeac,65af55f4d9188f2482cd2804,2024-01-23_24h07.20.044,bars,2023.2.3,Win32,4.273504274,657b66ea316d21385b68909f,,,,,,,,,,,2182.459,2183.548,,,2184.102,2184.103,,100,100,,,,,,,,,,,,,,,,bars/008.png,bars/mask004.png,,,,,,,,,,,,3,1,,,,,,,3,7,5,6,,,,,,,,,,,2183.548,2184.101,2184.103,2191.443,space,6.882,,2191.443,10,80,2192.48,2192.48,2192.482,,,,0,1,1,1,1,110,0,,,,,,,,
,,5b3c4027c49ecb00010aaeac,65af55f4d9188f2482cd2804,2024-01-23_24h07.20.044,bars,2023.2.3,Win32,4.273504274,657b66ea316d21385b68909f,,,,,,,,,,,2192.482,2193.344,,,2193.953,2193.955,,128,128,,,,,,,,,,,,,,,,bars/032.png,bars/mask001.png,,,,,,,,,,,,4,1,,,,,,,5,9,4,9,,,,,,,,,,,2193.344,2193.953,2193.955,2196.032,space,1.561,,2196.032,3,72,2196.833,2196.834,2196.834,,,,0,2,2,2,1,125,20,,,,,,,,
,,5b3c4027c49ecb00010aaeac,65af55f4d9188f2482cd2804,2024-01-23_24h07.20.044,bars,2023.2.3,Win32,4.273504274,657b66ea316d21385b68909f,,,,,,,,,,,2196.836,2197.884,,,2198.421,2198.693,,172,-8,,,,,,,,,,,,,,,,bars/036.png,bars/mask007.png,,,,,,,,,,,,0,1,,,,,,,3,7,5,10,,,,,,,,,,,2197.884,2198.42,2198.693,2202.674,space,3.728,,2202.674,27,28,2203.773,2203.773,2203.794,,,,0,3,3,3,1,145,20,,,,,,,,
,,5b3c4027c49ecb00010aaeac,65af55f4d9188f2482cd2804,2024-01-23_24h07.20.044,bars,2023.2.3,Win32,4.273504274,657b66ea316d21385b68909f,,,,,,,,,,,2203.794,2204.858,,,2205.41,2205.411,,160,160,,,,,,,,,,,,,,,,bars/034.png,bars/mask007.png,,,,,,,,,,,,0,1,,,,,,,1,5,1,4,,,,,,,,,,,2204.859,2205.41,2205.411,2207.698,space,1.776,0.001,2207.698,35,85,2208.761,2208.761,2208.773,,,,0,4,4,4,1,125,65,,,,,,,,
,,5b3c4027c49ecb00010aaeac,65af55f4d9188f2482cd2804,2024-01-23_24h07.20.044,bars,2023.2.3,Win32,4.273504274,657b66ea316d21385b68909f,,,,,,,,,,,2208.774,2209.804,,,2210.333,2210.597,,160,160,,,,,,,,,,,,,,,,bars/023.png,bars/mask000.png,,,,,,,,,,,,0,1,,,,,,,3,3,5,1,,,,,,,,,,,2209.804,2210.333,2210.597,2221.062,space,10.219,,2221.062,40,45,2222.087,2222.087,2222.098,,,,0,5,5,5,1,20,115,,,,,,,,
,,5b3c4027c49ecb00010aaeac,65af55f4d9188f2482cd2804,2024-01-23_24h07.20.044,bars,2023.2.3,Win32,4.273504274,657b66ea316d21385b68909f,,,,,,,,,,,2222.098,2223.134,,,2223.674,2223.949,,150,150,,,,,,,,,,,,,,,,bars/001.png,bars/mask002.png,,,,,,,,,,,,2,1,,,,,,,5,1,7,2,,,,,,,,,,,2223.134,2223.674,2223.949,2236.76,space,12.567,,2236.76,20,65,2237.81,2237.81,2237.82,,,,0,6,6,6,1,130,85,,,,,,,,
,,5b3c4027c49ecb00010aaeac,65af55f4d9188f2482cd2804,2024-01-23_24h07.20.044,bars,2023.2.3,Win32,4.273504274,657b66ea316d21385b68909f,,,,,,,,,,,2237.82,2238.855,,,2239.398,2239.663,,165,165,,,,,,,,,,,,,,,,bars/003.png,bars/mask004.png,,,,,,,,,,,,0,2,,,,,,,3,3,3,3,,,,,,,,,,,2238.855,2239.398,2239.663,2249.43,space,9.452,0,2249.43,40,25,2250.463,2250.463,2250.474,,,,0,7,7,7,1,25,140,,,,,,,,
,,5b3c4027c49ecb00010aaeac,65af55f4d9188f2482cd2804,2024-01-23_24h07.20.044,bars,2023.2.3,Win32,4.273504274,657b66ea316d21385b68909f,,,,,,,,,,,2250.475,2251.492,,,2252.037,2252.306,,171,-9,,,,,,,,,,,,,,,,bars/007.png,bars/mask008.png,,,,,,,,,,,,3,1,,,,,,,5,1,3,1,,,,,,,,,,,2251.492,2252.037,2252.306,2277.529,space,24.974,0,2277.529,4,64,2278.584,2278.585,2278.589,,,,0,8,8,8,1,175,55,,,,,,,,
,,5b3c4027c49ecb00010aaeac,65af55f4d9188f2482cd2804,2024-01-23_24h07.20.044,bars,2023.2.3,Win32,4.273504274,657b66ea316d21385b68909f,,,,,,,,,,,2278.59,2279.631,,,2279.907,2279.907,,107,107,,,,,,,,,,,,,,,,bars/020.png,bars/mask001.png,,,,,,,,,,,,1,1,,,,,,,3,3,2,5,,,,,,,,,,,2279.631,2279.907,2279.907,2285.456,space,5.308,,2285.456,8,63,2286.515,2286.515,2286.526,,,,0,9,9,9,1,115,170,,,,,,,,
,,5b3c4027c49ecb00010aaeac,65af55f4d9188f2482cd2804,2024-01-23_24h07.20.044,bars,2023.2.3,Win32,4.273504274,657b66ea316d21385b68909f,,,,,,,,,,,2286.526,2287.635,,,2288.221,2288.222,,168,168,,,,,,,,,,,,,,,,bars/005.png,bars/mask004.png,,,,,,,,,,,,0,1,,,,,,,1,1,0,0,,,,,,,,,,,2287.635,2288.221,2288.222,2291.118,space,2.344,0.001,2291.118,22,28,2292.155,2292.155,2292.165,,,,0,10,10,10,1,10,140,,,,,,,,
,,5b3c4027c49ecb00010aaeac,65af55f4d9188f2482cd2804,2024-01-23_24h07.20.044,bars,2023.2.3,Win32,4.273504274,657b66ea316d21385b68909f,,,,,,,,,,,2292.165,2293.198,,,2293.729,2294.002,,143,143,,,,,,,,,,,,,,,,bars/000.png,bars/mask003.png,,,,,,,,,,,,0,2,,,,,,,3,0,3,0,,,,,,,,,,,2293.198,2293.729,2294.002,2306.61,space,12.349,,2306.61,77,2,2307.655,2307.655,2307.668,,,,0,11,11,11,1,40,145,,,,,,,,
,,5b3c4027c49ecb00010aaeac,65af55f4d9188f2482cd2804,2024-01-23_24h07.20.044,bars,2023.2.3,Win32,4.273504274,657b66ea316d21385b68909f,,,,,,,,,,,2307.668,2308.713,,,2309.052,2309.606,,178,-2,,,,,,,,,,,,,,,,bars/007.png,bars/mask009.png,,,,,,,,,,,,5,1,,,,,,,5,0,6,0,,,,,,,,,,,2308.713,2309.052,2309.606,2320.432,space,10.314,0.001,2320.432,3,57,2321.237,2321.237,2321.25,,,,0,12,12,12,1,175,55,,,,,,,,
,,5b3c4027c49ecb00010aaeac,65af55f4d9188f2482cd2804,2024-01-23_24h07.20.044,bars,2023.2.3,Win32,4.273504274,657b66ea316d21385b68909f,,,,,,,,,,,2321.25,2322.123,,,2322.68,2322.681,,12,192,,,,,,,,,,,,,,,,bars/048.png,bars/mask009.png,,,,,,,,,,,,1,2,,,,,,,7,2,7,2,,,,,,,,,,,2322.123,2322.68,2322.681,2341.575,space,18.385,,2341.575,38,17,2342.604,2342.604,2342.617,,,,0,13,13,13,1,50,175,,,,,,,,
,,5b3c4027c49ecb00010aaeac,65af55f4d9188f2482cd2804,2024-01-23_24h07.20.044,bars,2023.2.3,Win32,4.273504274,657b66ea316d21385b68909f,,,,,,,,,,,2342.618,2343.657,,,2344.195,2344.477,,124,124,,,,,,,,,,,,,,,,bars/001.png,bars/mask004.png,,,,,,,,,,,,5,1,,,,,,,5,4,6,5,,,,,,,,,,,2343.657,2344.195,2344.477,2347.69,space,2.952,0.001,2347.69,6,39,2348.8,2348.8,2348.827,,,,0,14,14,14,1,130,85,,,,,,,,
,,5b3c4027c49ecb00010aaeac,65af55f4d9188f2482cd2804,2024-01-23_24h07.20.044,bars,2023.2.3,Win32,4.273504274,657b66ea316d21385b68909f,,,,,,,,,,,2348.828,2349.897,,,2350.481,2350.483,,46,46,,,,,,,,,,,,,,,,bars/014.png,bars/mask002.png,,,,,,,,,,,,0,1,,,,,,,3,2,3,1,,,,,,,,,,,2349.897,2350.481,2350.483,2358.679,space,7.732,,2358.679,34,46,2359.852,2359.852,2359.879,,,,0,15,15,15,1,80,0,,,,,,,,
,,5b3c4027c49ecb00010aaeac,65af55f4d9188f2482cd2804,2024-01-23_24h07.20.044,bars,2023.2.3,Win32,4.273504274,657b66ea316d21385b68909f,,,,,,,,,,,2359.881,2361.023,,,2361.584,2361.584,,165,-15,,,,,,,,,,,,,,,,bars/027.png,bars/mask000.png,,,,,,,,,,,,0,1,,,,,,,1,0,3,0,,,,,,,,,,,2361.023,2361.584,2361.584,2381.953,space,19.86,,2381.953,55,65,2382.982,2382.982,2382.995,,,,0,16,16,16,1,110,50,,,,,,,,
,,5b3c4027c49ecb00010aaeac,65af55f4d9188f2482cd2804,2024-01-23_24h07.20.044,bars,2023.2.3,Win32,4.273504274,657b66ea316d21385b68909f,,,,,,,,,,,2382.995,2384.017,,,2384.341,2384.941,,66,66,,,,,,,,,,,,,,,,bars/006.png,bars/mask006.png,,,,,,,,,,,,0,1,,,,,,,0,2,0,1,,,,,,,,,,,2384.017,2384.341,2384.942,2394.799,space,9.349,,2394.799,31,34,2395.844,2395.844,2395.855,,,,0,17,17,17,1,35,100,,,,,,,,
,,5b3c4027c49ecb00010aaeac,65af55f4d9188f2482cd2804,2024-01-23_24h07.20.044,bars,2023.2.3,Win32,4.273504274,657b66ea316d21385b68909f,,,,,,,,,,,2395.855,2396.866,,,2397.41,2397.674,,176,-4,,,,,,,,,,,,,,,,bars/011.png,bars/mask006.png,,,,,,,,,,,,1,1,,,,,,,2,4,2,5,,,,,,,,,,,2396.866,2397.41,2397.675,2410.914,space,12.927,,2410.914,16,89,2411.964,2411.964,2411.975,,,,0,18,18,18,1,160,85,,,,,,,,
,,5b3c4027c49ecb00010aaeac,65af55f4d9188f2482cd2804,2024-01-23_24h07.20.044,bars,2023.2.3,Win32,4.273504274,657b66ea316d21385b68909f,,,,,,,,,,,2411.975,2413.081,,,2413.632,2413.634,,19,199,,,,,,,,,,,,,,,,bars/026.png,bars/mask001.png,,,,,,,,,,,,0,1,,,,,,,0,2,0,2,,,,,,,,,,,2413.081,2413.632,2413.634,2424.411,space,10.271,,2424.411,16,66,2425.248,2425.248,2425.269,,,,0,19,19,19,1,35,85,,,,,,,,
,,5b3c4027c49ecb00010aaeac,65af55f4d9188f2482cd2804,2024-01-23_24h07.20.044,bars,2023.2.3,Win32,4.273504274,657b66ea316d21385b68909f,,,,,,,,,,,2425.27,2426.378,,,2426.968,2426.97,,66,66,,,,,,,,,,,,,,,,bars/029.png,bars/mask004.png,,,,,,,,,,,,1,2,,,,,,,0,4,0,4,,,,,,,,,,,2426.378,2426.968,2426.97,2434.427,space,6.911,0.001,2434.427,24,21,2435.567,2435.567,2435.591,,,,0,20,20,20,1,90,45,,,,,,,,
,,5b3c4027c49ecb00010aaeac,65af55f4d9188f2482cd2804,2024-01-23_24h07.20.044,bars,2023.2.3,Win32,4.273504274,657b66ea316d21385b68909f,,,,,,,,,,,2435.592,2436.706,,,2437.298,2437.3,,114,114,,,,,,,,,,,,,,,,bars/012.png,bars/mask003.png,,,,,,,,,,,,0,1,,,,,,,0,6,1,7,,,,,,,,,,,2436.706,2437.298,2437.3,2442.769,space,4.967,0.001,2442.769,24,81,2443.802,2443.802,2443.804,,,,0,21,21,21,1,90,15,,,,,,,,
,,5b3c4027c49ecb00010aaeac,65af55f4d9188f2482cd2804,2024-01-23_24h07.20.044,bars,2023.2.3,Win32,4.273504274,657b66ea316d21385b68909f,,,,,,,,,,,2443.804,2444.846,,,2445.392,2445.655,,69,69,,,,,,,,,,,,,,,,bars/019.png,bars/mask004.png,,,,,,,,,,,,0,1,,,,,,,0,4,0,5,,,,,,,,,,,2444.846,2445.392,2445.655,2459.73,space,13.825,0,2459.73,24,36,2460.846,2460.846,2460.848,,,,0,22,22,22,1,45,105,,,,,,,,
,,5b3c4027c49ecb00010aaeac,65af55f4d9188f2482cd2804,2024-01-23_24h07.20.044,bars,2023.2.3,Win32,4.273504274,657b66ea316d21385b68909f,,,,,,,,,,,2460.848,2461.892,,,2462.449,2462.45,,62,62,,,,,,,,,,,,,,,,bars/000.png,bars/mask002.png,,,,,,,,,,,,0,1,,,,,,,0,6,1,6,,,,,,,,,,,2461.892,2462.449,2462.45,2466.864,space,3.951,,2466.864,22,83,2467.927,2467.927,2467.938,,,,0,23,23,23,1,40,145,,,,,,,,
,,5b3c4027c49ecb00010aaeac,65af55f4d9188f2482cd2804,2024-01-23_24h07.20.044,bars,2023.2.3,Win32,4.273504274,657b66ea316d21385b68909f,,,,,,,,,,,2467.938,2468.989,,,2469.545,2469.812,,24,24,,,,,,,,,,,,,,,,bars/005.png,bars/mask008.png,,,,,,,,,,,,1,1,,,,,,,0,4,1,6,,,,,,,,,,,2468.989,2469.545,2469.812,2488.572,space,18.491,,2488.572,14,64,2489.379,2489.379,2489.391,,,,0,24,24,24,1,10,140,,,,,,,,
,,5b3c4027c49ecb00010aaeac,65af55f4d9188f2482cd2804,2024-01-23_24h07.20.044,bars,2023.2.3,Win32,4.273504274,657b66ea316d21385b68909f,,,,,,,,,,,2489.392,2490.433,,,2490.966,2491.233,,154,154,,,,,,,,,,,,,,,,bars/020.png,bars/mask002.png,,,,,,,,,,,,0,2,,,,,,,0,2,0,1,,,,,,,,,,,2490.433,2490.966,2491.233,2493.622,space,2.128,,2493.622,39,16,2494.659,2494.659,2494.672,,,,0,25,25,25,1,115,170,,,,,,,,
,,5b3c4027c49ecb00010aaeac,65af55f4d9188f2482cd2804,2024-01-23_24h07.20.044,bars,2023.2.3,Win32,4.273504274,657b66ea316d21385b68909f,,,,,,,,,,,2494.672,2495.694,,,2496.307,2496.897,,136,136,,,,,,,,,,,,,,,,bars/001.png,bars/mask009.png,,,,,,,,,,,,3,1,,,,,,,2,4,4,4,,,,,,,,,,,2495.694,2496.307,2496.898,2512.758,space,15.352,,2512.758,6,51,2513.873,2513.873,2513.899,,,,0,26,26,26,1,130,85,,,,,,,,
,,5b3c4027c49ecb00010aaeac,65af55f4d9188f2482cd2804,2024-01-23_24h07.20.044,bars,2023.2.3,Win32,4.273504274,657b66ea316d21385b68909f,,,,,,,,,,,2513.899,2514.981,,,2515.246,2515.246,,7,187,,,,,,,,,,,,,,,,bars/000.png,bars/mask009.png,,,,,,,,,,,,0,1,,,,,,,0,2,0,5,,,,,,,,,,,2514.982,2515.246,2515.246,2529.388,space,13.871,,2529.388,33,42,2530.432,2530.432,2530.444,,,,0,27,27,27,1,40,145,,,,,,,,
,,5b3c4027c49ecb00010aaeac,65af55f4d9188f2482cd2804,2024-01-23_24h07.20.044,bars,2023.2.3,Win32,4.273504274,657b66ea316d21385b68909f,,,,,,,,,,,2530.444,2531.487,,,2532.044,2532.31,,66,66,,,,,,,,,,,,,,,,bars/004.png,bars/mask008.png,,,,,,,,,,,,0,1,,,,,,,2,4,1,4,,,,,,,,,,,2531.487,2532.044,2532.31,2540.341,space,7.769,,2540.341,41,59,2541.164,2541.164,2541.175,,,,0,28,28,28,1,25,125,,,,,,,,
,,5b3c4027c49ecb00010aaeac,65af55f4d9188f2482cd2804,2024-01-23_24h07.20.044,bars,2023.2.3,Win32,4.273504274,657b66ea316d21385b68909f,,,,,,,,,,,2541.175,2541.991,,,2542.547,2542.838,,166,-14,,,,,,,,,,,,,,,,bars/024.png,bars/mask000.png,,,,,,,,,,,,3,2,,,,,,,0,2,0,3,,,,,,,,,,,2541.991,2542.547,2542.838,2555.836,space,12.718,,2555.836,46,4,2556.662,2556.662,2556.676,,,,0,29,29,29,1,120,170,,,,,,,,
,,5b3c4027c49ecb00010aaeac,65af55f4d9188f2482cd2804,2024-01-23_24h07.20.044,bars,2023.2.3,Win32,4.273504274,657b66ea316d21385b68909f,,,,,,,,,,,2556.676,2557.696,,,2558.231,2558.502,,42,42,,,,,,,,,,,,,,,,bars/040.png,bars/mask001.png,,,,,,,,,,,,0,2,,,,,,,0,4,0,6,,,,,,,,,,,2557.696,2558.231,2558.502,2560.176,space,1.411,0.001,2560.176,82,37,2561.263,2561.263,2561.264,,,,0,30,30,30,1,140,5,,,,,,,,
,,5b3c4027c49ecb00010aaeac,65af55f4d9188f2482cd2804,2024-01-23_24h07.20.044,bars,2023.2.3,Win32,4.273504274,657b66ea316d21385b68909f,,,,,,,,,,,2561.265,2562.354,,,2562.956,2562.957,,28,28,,,,,,,,,,,,,,,,bars/046.png,bars/mask003.png,,,,,,,,,,,,0,1,,,,,,,0,2,1,1,,,,,,,,,,,2562.354,2562.956,2562.957,2572.178,space,8.717,,2572.178,53,57,2573.227,2573.227,2573.238,,,,0,31,31,31,1,155,85,,,,,,,,
,,5b3c4027c49ecb00010aaeac,65af55f4d9188f2482cd2804,2024-01-23_24h07.20.044,bars,2023.2.3,Win32,4.273504274,657b66ea316d21385b68909f,,,,,,,,,,,2573.239,2574.352,,,2574.947,2574.948,,80,80,,,,,,,,,,,,,,,,bars/045.png,bars/mask003.png,,,,,,,,,,,,0,1,,,,,,,2,4,1,5,,,,,,,,,,,2574.352,2574.947,2574.948,2596.11,space,20.657,,2596.11,20,70,2597.148,2597.148,2597.158,,,,0,32,32,32,1,100,10,,,,,,,,
,,5b3c4027c49ecb00010aaeac,65af55f4d9188f2482cd2804,2024-01-23_24h07.20.044,bars,2023.2.3,Win32,4.273504274,657b66ea316d21385b68909f,,,,,,,,,,,2597.158,2598.251,,,2598.867,2598.868,,55,55,,,,,,,,,,,,,,,,bars/047.png,bars/mask009.png,,,,,,,,,,,,2,2,,,,,,,4,2,2,4,,,,,,,,,,,2598.251,2598.867,2598.869,2613.641,space,14.22,,2613.641,40,15,2614.674,2614.674,2614.686,,,,0,33,33,33,1,15,70,,,,,,,,
,,5b3c4027c49ecb00010aaeac,65af55f4d9188f2482cd2804,2024-01-23_24h07.20.044,bars,2023.2.3,Win32,4.273504274,657b66ea316d21385b68909f,,,,,,,,,,,2614.687,2615.731,,,2616.265,2616.534,,71,71,,,,,,,,,,,,,,,,bars/012.png,bars/mask002.png,,,,,,,,,,,,0,1,,,,,,,2,4,0,3,,,,,,,,,,,2615.731,2616.265,2616.534,2629.158,space,12.378,,2629.158,19,56,2630.31,2630.31,2630.332,,,,0,34,34,34,1,90,15,,,,,,,,
,,5b3c4027c49ecb00010aaeac,65af55f4d9188f2482cd2804,2024-01-23_24h07.20.044,bars,2023.2.3,Win32,4.273504274,657b66ea316d21385b68909f,,,,,,,,,,,2630.332,2631.384,,,2631.942,2631.944,,48,48,,,,,,,,,,,,,,,,bars/014.png,bars/mask004.png,,,,,,,,,,,,0,1,,,,,,,0,6,0,6,,,,,,,,,,,2631.385,2631.942,2631.944,2636.11,space,3.71,,2636.111,32,48,2637.157,2637.158,2637.169,,,,0,35,35,35,1,80,0,,,,,,,,
,,5b3c4027c49ecb00010aaeac,65af55f4d9188f2482cd2804,2024-01-23_24h07.20.044,bars,2023.2.3,Win32,4.273504274,657b66ea316d21385b68909f,,,,,,,,,,,2637.169,2638.202,,,2638.75,2639.026,,42,42,,,,,,,,,,,,,,,,bars/000.png,bars/mask001.png,,,,,,,,,,,,0,1,,,,,,,0,4,0,3,,,,,,,,,,,2638.202,2638.75,2639.026,2646.421,space,7.15,,2646.421,2,77,2647.212,2647.212,2647.223,,,,0,36,36,36,1,40,145,,,,,,,,
,,5b3c4027c49ecb00010aaeac,65af55f4d9188f2482cd2804,2024-01-23_24h07.20.044,bars,2023.2.3,Win32,4.273504274,657b66ea316d21385b68909f,,,,,,,,,,,2647.224,2648.247,,,2648.782,2649.047,,171,171,,,,,,,,,,,,,,,,bars/037.png,bars/mask001.png,,,,,,,,,,,,0,1,,,,,,,0,6,0,5,,,,,,,,,,,2648.248,2648.782,2649.047,2652.814,space,3.521,0,2652.814,21,66,2653.877,2653.877,2653.899,,,,0,37,37,37,1,150,105,,,,,,,,
,,5b3c4027c49ecb00010aaeac,65af55f4d9188f2482cd2804,2024-01-23_24h07.20.044,bars,2023.2.3,Win32,4.273504274,657b66ea316d21385b68909f,,,,,,,,,,,2653.9,2654.959,,,2655.507,2655.508,,129,129,,,,,,,,,,,,,,,,bars/036.png,bars/mask008.png,,,,,,,,,,,,0,1,,,,,,,0,4,0,6,,,,,,,,,,,2654.959,2655.507,2655.508,2670.159,space,14.107,,2670.159,16,71,2671.193,2671.193,2671.205,,,,0,38,38,38,1,145,20,,,,,,,,
,,5b3c4027c49ecb00010aaeac,65af55f4d9188f2482cd2804,2024-01-23_24h07.20.044,bars,2023.2.3,Win32,4.273504274,657b66ea316d21385b68909f,,,,,,,,,,,2671.205,2672.235,,,2672.772,2673.052,,155,155,,,,,,,,,,,,,,,,bars/030.png,bars/mask005.png,,,,,,,,,,,,1,1,,,,,,,2,2,1,2,,,,,,,,,,,2672.236,2672.771,2673.052,2678.394,space,5.102,,2678.394,15,90,2679.488,2679.488,2679.508,,,,0,39,39,39,1,140,65,,,,,,,,
,,5b3c4027c49ecb00010aaeac,65af55f4d9188f2482cd2804,2024-01-23_24h07.20.044,bars,2023.2.3,Win32,4.273504274,657b66ea316d21385b68909f,,,,,,,,,,,2679.508,2680.57,,,2681.121,2681.122,,42,42,,,,,,,,,,,,,,,,bars/014.png,bars/mask009.png,,,,,,,,,,,,0,1,,,,,,,4,4,4,3,,,,,,,,,,,2680.57,2681.121,2681.122,2687.689,space,6.111,,2687.689,38,42,2688.74,2688.74,2688.75,,,,0,40,40,40,1,80,0,,,,,,,,
,,5b3c4027c49ecb00010aaeac,65af55f4d9188f2482cd2804,2024-01-23_24h07.20.044,bars,2023.2.3,Win32,4.273504274,657b66ea316d21385b68909f,,,,,,,,,,,2688.75,2689.834,,,2690.402,2690.96,,163,-17,,,,,,,,,,,,,,,,bars/035.png,bars/mask001.png,,,,,,,,,,,,3,1,,,,,,,6,2,5,3,,,,,,,,,,,2689.834,2690.402,2690.96,2698.188,space,6.713,,2698.188,12,77,2699.228,2699.228,2699.238,,,,0,41,41,41,1,175,60,,,,,,,,
,,5b3c4027c49ecb00010aaeac,65af55f4d9188f2482cd2804,2024-01-23_24h07.20.044,bars,2023.2.3,Win32,4.273504274,657b66ea316d21385b68909f,,,,,,,,,,,2699.238,2700.303,,,2700.848,2701.386,,154,154,,,,,,,,,,,,,,,,bars/024.png,bars/mask005.png,,,,,,,,,,,,1,2,,,,,,,4,4,4,3,,,,,,,,,,,2700.303,2700.848,2701.386,2705.048,space,3.135,,2705.048,34,16,2706.088,2706.088,2706.099,,,,0,42,42,42,1,120,170,,,,,,,,
,,5b3c4027c49ecb00010aaeac,65af55f4d9188f2482cd2804,2024-01-23_24h07.20.044,bars,2023.2.3,Win32,4.273504274,657b66ea316d21385b68909f,,,,,,,,,,,2706.1,2707.108,,,2707.647,2707.92,,137,137,,,,,,,,,,,,,,,,bars/015.png,bars/mask008.png,,,,,,,,,,,,1,2,,,,,,,2,6,4,6,,,,,,,,,,,2707.108,2707.647,2707.92,2715.621,space,7.455,,2715.621,27,23,2716.668,2716.668,2716.677,,,,0,43,43,43,1,110,160,,,,,,,,
,,5b3c4027c49ecb00010aaeac,65af55f4d9188f2482cd2804,2024-01-23_24h07.20.044,bars,2023.2.3,Win32,4.273504274,657b66ea316d21385b68909f,,,,,,,,,,,2716.677,2717.696,,,2718.229,2718.501,,116,116,,,,,,,,,,,,,,,,bars/007.png,bars/mask000.png,,,,,,,,,,,,0,1,,,,,,,4,4,5,3,,,,,,,,,,,2717.696,2718.229,2718.502,2727.977,space,9.234,,2727.977,59,61,2729.027,2729.027,2729.04,,,,0,44,44,44,1,175,55,,,,,,,,
,,5b3c4027c49ecb00010aaeac,65af55f4d9188f2482cd2804,2024-01-23_24h07.20.044,bars,2023.2.3,Win32,4.273504274,657b66ea316d21385b68909f,,,,,,,,,,,2729.04,2730.069,,,2730.605,2730.871,,179,179,,,,,,,,,,,,,,,,bars/047.png,bars/mask008.png,,,,,,,,,,,,2,1,,,,,,,6,6,5,6,,,,,,,,,,,2730.069,2730.605,2730.871,2732.799,space,1.682,0.001,2732.799,16,71,2733.859,2733.859,2733.881,,,,0,45,45,45,1,15,70,,,,,,,,
,,5b3c4027c49ecb00010aaeac,65af55f4d9188f2482cd2804,2024-01-23_24h07.20.044,bars,2023.2.3,Win32,4.273504274,657b66ea316d21385b68909f,,,,,,,,,,,2733.881,2734.869,,,2735.139,2735.14,,56,56,,,,,,,,,,,,,,,,bars/048.png,bars/mask007.png,,,,,,,,,,,,2,1,,,,,,,4,4,3,5,,,,,,,,,,,2734.869,2735.139,2735.14,2737.723,space,2.336,,2737.723,6,61,2738.545,2738.545,2738.556,,,,0,46,46,46,1,50,175,,,,,,,,
,,5b3c4027c49ecb00010aaeac,65af55f4d9188f2482cd2804,2024-01-23_24h07.20.044,bars,2023.2.3,Win32,4.273504274,657b66ea316d21385b68909f,,,,,,,,,,,2738.557,2739.58,,,2740.14,2740.417,,119,119,,,,,,,,,,,,,,,,bars/024.png,bars/mask006.png,,,,,,,,,,,,6,1,,,,,,,6,6,6,5,,,,,,,,,,,2739.58,2740.14,2740.417,2745.721,space,5.059,0,2745.721,1,51,2746.501,2746.501,2746.512,,,,0,47,47,47,1,120,170,,,,,,,,
,,5b3c4027c49ecb00010aaeac,65af55f4d9188f2482cd2804,2024-01-23_24h07.20.044,bars,2023.2.3,Win32,4.273504274,657b66ea316d21385b68909f,,,,,,,,,,,2746.512,2747.526,,,2748.061,2748.327,,168,-12,,,,,,,,,,,,,,,,bars/042.png,bars/mask006.png,,,,,,,,,,,,1,1,,,,,,,4,8,5,9,,,,,,,,,,,2747.526,2748.061,2748.327,2760.918,space,12.341,,2760.918,23,87,2761.969,2761.969,2761.981,,,,0,48,48,48,1,145,75,,,,,,,,
,,5b3c4027c49ecb00010aaeac,65af55f4d9188f2482cd2804,2024-01-23_24h07.20.044,bars,2023.2.3,Win32,4.273504274,657b66ea316d21385b68909f,,,,,,,,,,,2761.981,2762.784,,,2763.325,2763.592,,41,41,,,,,,,,,,,,,,,,bars/040.png,bars/mask007.png,,,,,,,,,,,,0,2,,,,,,,2,10,2,10,,,,,,,,,,,2762.784,2763.325,2763.592,2774.117,space,10.282,0.001,2774.117,81,36,2775.155,2775.155,2775.166,,,,0,49,49,49,1,140,5,,,,,,,,
,,5b3c4027c49ecb00010aaeac,65af55f4d9188f2482cd2804,2024-01-23_24h07.20.044,bars,2023.2.3,Win32,4.273504274,657b66ea316d21385b68909f,,,,,,,,,,,,,,,,,,,,,,,,,,,,,,,,,,,,,,,,,,,,,,,,,,,,,,,,,,,,,,,,,,,,,,,,,,,,,,,,,,,,,,,,,,,,,2775.166,2834.795,0,2,2,4,1,sequence_tables/blk022.csv
,,5b3c4027c49ecb00010aaeac,65af55f4d9188f2482cd2804,2024-01-23_24h07.20.044,bars,2023.2.3,Win32,4.273504274,657b66ea316d21385b68909f,,,,,,,,,,,2939.577,2940.892,,,2941.442,2941.444,,164,164,,,,,,,,,,,,,,,,bars/037.png,bars/mask003.png,,,,,,,,,,,,5,1,,,,,,,8,8,9,9,,,,,,2834.816,2939.561,space,104.221,0.001,2940.892,2941.442,2941.444,2948.058,space,6.094,,2948.058,14,59,2949.122,2949.122,2949.136,,,,0,0,0,0,1,150,105,,,,,,,,
,,5b3c4027c49ecb00010aaeac,65af55f4d9188f2482cd2804,2024-01-23_24h07.20.044,bars,2023.2.3,Win32,4.273504274,657b66ea316d21385b68909f,,,,,,,,,,,2949.136,2950.167,,,2950.496,2951.049,,133,133,,,,,,,,,,,,,,,,bars/011.png,bars/mask007.png,,,,,,,,,,,,1,1,,,,,,,10,6,8,6,,,,,,,,,,,2950.167,2950.496,2951.049,2959.069,space,7.454,,2959.069,27,48,2960.107,2960.107,2960.118,,,,0,1,1,1,1,160,85,,,,,,,,
,,5b3c4027c49ecb00010aaeac,65af55f4d9188f2482cd2804,2024-01-23_24h07.20.044,bars,2023.2.3,Win32,4.273504274,657b66ea316d21385b68909f,,,,,,,,,,,2960.118,2960.96,,,2961.551,2961.552,,28,28,,,,,,,,,,,,,,,,bars/039.png,bars/mask006.png,,,,,,,,,,,,0,1,,,,,,,8,8,10,8,,,,,,,,,,,2960.96,2961.551,2961.552,2974.628,space,12.508,,2974.628,33,77,2975.641,2975.642,2975.642,,,,0,2,2,2,1,175,105,,,,,,,,
,,5b3c4027c49ecb00010aaeac,65af55f4d9188f2482cd2804,2024-01-23_24h07.20.044,bars,2023.2.3,Win32,4.273504274,657b66ea316d21385b68909f,,,,,,,,,,,2975.642,2976.67,,,2977.222,2977.487,,22,22,,,,,,,,,,,,,,,,bars/041.png,bars/mask001.png,,,,,,,,,,,,4,1,,,,,,,6,6,4,7,,,,,,,,,,,2976.67,2977.222,2977.487,2983.91,space,6.174,0.001,2983.91,2,63,2984.993,2984.993,2985.013,,,,0,3,3,3,1,20,85,,,,,,,,
,,5b3c4027c49ecb00010aaeac,65af55f4d9188f2482cd2804,2024-01-23_24h07.20.044,bars,2023.2.3,Win32,4.273504274,657b66ea316d21385b68909f,,,,,,,,,,,2985.013,2985.997,,,2986.266,2986.267,,142,142,,,,,,,,,,,,,,,,bars/001.png,bars/mask006.png,,,,,,,,,,,,3,1,,,,,,,4,8,5,7,,,,,,,,,,,2985.997,2986.266,2986.267,2989.653,space,3.14,,2989.653,12,57,2990.684,2990.685,2990.695,,,,0,4,4,4,1,130,85,,,,,,,,
,,5b3c4027c49ecb00010aaeac,65af55f4d9188f2482cd2804,2024-01-23_24h07.20.044,bars,2023.2.3,Win32,4.273504274,657b66ea316d21385b68909f,,,,,,,,,,,2990.695,2991.728,,,2992.274,2992.547,,63,63,,,,,,,,,,,,,,,,bars/046.png,bars/mask003.png,,,,,,,,,,,,2,2,,,,,,,2,6,1,6,,,,,,,,,,,2991.728,2992.274,2992.547,2999.006,space,6.211,,2999.006,88,22,3000.04,3000.04,3000.052,,,,0,5,5,5,1,155,85,,,,,,,,
,,5b3c4027c49ecb00010aaeac,65af55f4d9188f2482cd2804,2024-01-23_24h07.20.044,bars,2023.2.3,Win32,4.273504274,657b66ea316d21385b68909f,,,,,,,,,,,3000.052,3001.1,,,3001.635,3001.909,,54,54,,,,,,,,,,,,,,,,bars/022.png,bars/mask000.png,,,,,,,,,,,,0,2,,,,,,,4,4,3,6,,,,,,,,,,,3001.1,3001.635,3001.909,3010.659,space,8.504,,3010.659,41,34,3011.715,3011.715,3011.726,,,,0,6,6,6,1,95,20,,,,,,,,
,,5b3c4027c49ecb00010aaeac,65af55f4d9188f2482cd2804,2024-01-23_24h07.20.044,bars,2023.2.3,Win32,4.273504274,657b66ea316d21385b68909f,,,,,,,,,,,3011.726,3012.782,,,3013.315,3013.585,,126,126,,,,,,,,,,,,,,,,bars/045.png,bars/mask004.png,,,,,,,,,,,,0,1,,,,,,,2,2,1,1,,,,,,,,,,,3012.782,3013.315,3013.585,3019.497,space,5.663,0.002,3019.497,26,64,3020.511,3020.511,3020.525,,,,0,7,7,7,1,100,10,,,,,,,,
,,5b3c4027c49ecb00010aaeac,65af55f4d9188f2482cd2804,2024-01-23_24h07.20.044,bars,2023.2.3,Win32,4.273504274,657b66ea316d21385b68909f,,,,,,,,,,,3020.525,3021.557,,,3022.09,3022.362,,170,170,,,,,,,,,,,,,,,,bars/041.png,bars/mask006.png,,,,,,,,,,,,0,1,,,,,,,4,4,3,3,,,,,,,,,,,3021.557,3022.09,3022.362,3045.83,space,23.218,,3045.83,30,85,3046.87,3046.87,3046.881,,,,0,8,8,8,1,20,85,,,,,,,,
,,5b3c4027c49ecb00010aaeac,65af55f4d9188f2482cd2804,2024-01-23_24h07.20.044,bars,2023.2.3,Win32,4.273504274,657b66ea316d21385b68909f,,,,,,,,,,,3046.881,3047.934,,,3048.474,3048.743,,120,120,,,,,,,,,,,,,,,,bars/031.png,bars/mask005.png,,,,,,,,,,,,3,1,,,,,,,2,6,3,7,,,,,,,,,,,3047.934,3048.474,3048.743,3052.554,space,3.554,0,3052.554,0,85,3053.646,3053.646,3053.667,,,,0,9,9,9,1,120,35,,,,,,,,
,,5b3c4027c49ecb00010aaeac,65af55f4d9188f2482cd2804,2024-01-23_24h07.20.044,bars,2023.2.3,Win32,4.273504274,657b66ea316d21385b68909f,,,,,,,,,,,3053.667,3054.39,,,3054.926,3055.19,,116,116,,,,,,,,,,,,,,,,bars/036.png,bars/mask009.png,,,,,,,,,,,,0,1,,,,,,,4,8,4,8,,,,,,,,,,,3054.39,3054.926,3055.19,3063.611,space,8.17,,3063.611,29,84,3064.638,3064.638,3064.649,,,,0,10,10,10,1,145,20,,,,,,,,
,,5b3c4027c49ecb00010aaeac,65af55f4d9188f2482cd2804,2024-01-23_24h07.20.044,bars,2023.2.3,Win32,4.273504274,657b66ea316d21385b68909f,,,,,,,,,,,3064.65,3065.688,,,3066.221,3066.487,,145,145,,,,,,,,,,,,,,,,bars/034.png,bars/mask007.png,,,,,,,,,,,,2,1,,,,,,,6,6,6,6,,,,,,,,,,,3065.688,3066.221,3066.487,3073.48,space,6.744,0.001,3073.48,20,80,3074.568,3074.568,3074.587,,,,0,11,11,11,1,125,65,,,,,,,,
,,5b3c4027c49ecb00010aaeac,65af55f4d9188f2482cd2804,2024-01-23_24h07.20.044,bars,2023.2.3,Win32,4.273504274,657b66ea316d21385b68909f,,,,,,,,,,,3074.588,3075.681,,,3076.263,3076.265,,161,-19,,,,,,,,,,,,,,,,bars/031.png,bars/mask004.png,,,,,,,,,,,,0,1,,,,,,,4,4,3,3,,,,,,,,,,,3075.681,3076.263,3076.265,3090.74,space,13.966,0.001,3090.74,41,54,3091.559,3091.559,3091.571,,,,0,12,12,12,1,120,35,,,,,,,,
,,5b3c4027c49ecb00010aaeac,65af55f4d9188f2482cd2804,2024-01-23_24h07.20.044,bars,2023.2.3,Win32,4.273504274,657b66ea316d21385b68909f,,,,,,,,,,,3091.571,3092.608,,,3093.153,3093.424,,76,76,,,,,,,,,,,,,,,,bars/034.png,bars/mask002.png,,,,,,,,,,,,4,2,,,,,,,2,6,1,6,,,,,,,,,,,3092.608,3093.153,3093.424,3106.769,space,13.098,,3106.769,49,11,3107.802,3107.802,3107.815,,,,0,13,13,13,1,125,65,,,,,,,,
,,5b3c4027c49ecb00010aaeac,65af55f4d9188f2482cd2804,2024-01-23_24h07.20.044,bars,2023.2.3,Win32,4.273504274,657b66ea316d21385b68909f,,,,,,,,,,,3107.816,3108.855,,,3109.388,3109.669,,106,106,,,,,,,,,,,,,,,,bars/032.png,bars/mask002.png,,,,,,,,,,,,0,1,,,,,,,0,8,0,8,,,,,,,,,,,3108.855,3109.388,3109.669,3111.632,space,1.709,0.001,3111.632,19,86,3112.736,3112.736,3112.741,,,,0,14,14,14,1,125,20,,,,,,,,
,,5b3c4027c49ecb00010aaeac,65af55f4d9188f2482cd2804,2024-01-23_24h07.20.044,bars,2023.2.3,Win32,4.273504274,657b66ea316d21385b68909f,,,,,,,,,,,3112.741,3113.803,,,3114.396,3114.397,,73,73,,,,,,,,,,,,,,,,bars/020.png,bars/mask008.png,,,,,,,,,,,,0,1,,,,,,,0,6,0,6,,,,,,,,,,,3113.803,3114.396,3114.397,3132.784,space,17.935,,3132.784,42,83,3133.816,3133.816,3133.827,,,,0,15,15,15,1,115,170,,,,,,,,
,,5b3c4027c49ecb00010aaeac,65af55f4d9188f2482cd2804,2024-01-23_24h07.20.044,bars,2023.2.3,Win32,4.273504274,657b66ea316d21385b68909f,,,,,,,,,,,3133.828,3134.856,,,3135.397,3135.663,,172,172,,,,,,,,,,,,,,,,bars/010.png,bars/mask007.png,,,,,,,,,,,,2,1,,,,,,,2,8,3,9,,,,,,,,,,,3134.856,3135.397,3135.663,3137.471,space,1.552,,3137.471,7,63,3138.382,3138.382,3138.404,,,,0,16,16,16,1,165,55,,,,,,,,
,,5b3c4027c49ecb00010aaeac,65af55f4d9188f2482cd2804,2024-01-23_24h07.20.044,bars,2023.2.3,Win32,4.273504274,657b66ea316d21385b68909f,,,,,,,,,,,3138.404,3139.452,,,3140.024,3140.024,,105,105,,,,,,,,,,,,,,,,bars/034.png,bars/mask007.png,,,,,,,,,,,,0,1,,,,,,,0,10,1,10,,,,,,,,,,,3139.452,3140.024,3140.024,3151.006,space,10.436,,3151.006,20,40,3152.335,3152.335,3152.358,,,,0,17,17,17,1,125,65,,,,,,,,
,,5b3c4027c49ecb00010aaeac,65af55f4d9188f2482cd2804,2024-01-23_24h07.20.044,bars,2023.2.3,Win32,4.273504274,657b66ea316d21385b68909f,,,,,,,,,,,3152.358,3153.383,,,3153.995,3153.997,,15,15,,,,,,,,,,,,,,,,bars/018.png,bars/mask006.png,,,,,,,,,,,,0,1,,,,,,,2,8,1,7,,,,,,,,,,,3153.383,3153.995,3153.997,3161.372,space,6.92,,3161.372,45,75,3162.474,3162.474,3162.475,,,,0,18,18,18,1,150,90,,,,,,,,
,,5b3c4027c49ecb00010aaeac,65af55f4d9188f2482cd2804,2024-01-23_24h07.20.044,bars,2023.2.3,Win32,4.273504274,657b66ea316d21385b68909f,,,,,,,,,,,3162.476,3163.578,,,3164.165,3164.166,,151,151,,,,,,,,,,,,,,,,bars/003.png,bars/mask004.png,,,,,,,,,,,,3,2,,,,,,,0,6,0,5,,,,,,,,,,,3163.578,3164.165,3164.166,3178.158,space,13.482,,3178.158,54,11,3178.891,3178.891,3178.904,,,,0,19,19,19,1,25,140,,,,,,,,
,,5b3c4027c49ecb00010aaeac,65af55f4d9188f2482cd2804,2024-01-23_24h07.20.044,bars,2023.2.3,Win32,4.273504274,657b66ea316d21385b68909f,,,,,,,,,,,3178.904,3179.938,,,3180.493,3180.758,,65,65,,,,,,,,,,,,,,,,bars/016.png,bars/mask006.png,,,,,,,,,,,,0,1,,,,,,,2,8,2,8,,,,,,,,,,,3179.938,3180.493,3180.758,3188.032,space,7.008,0.001,3188.032,25,80,3189.051,3189.051,3189.063,,,,0,20,20,20,1,40,165,,,,,,,,
,,5b3c4027c49ecb00010aaeac,65af55f4d9188f2482cd2804,2024-01-23_24h07.20.044,bars,2023.2.3,Win32,4.273504274,657b66ea316d21385b68909f,,,,,,,,,,,3189.064,3190.109,,,3190.64,3190.911,,80,80,,,,,,,,,,,,,,,,bars/022.png,bars/mask001.png,,,,,,,,,,,,3,1,,,,,,,4,10,5,10,,,,,,,,,,,3190.109,3190.64,3190.911,3193.275,space,2.117,,3193.275,15,60,3194.32,3194.32,3194.329,,,,0,21,21,21,1,95,20,,,,,,,,
,,5b3c4027c49ecb00010aaeac,65af55f4d9188f2482cd2804,2024-01-23_24h07.20.044,bars,2023.2.3,Win32,4.273504274,657b66ea316d21385b68909f,,,,,,,,,,,3194.33,3195.374,,,3195.905,3196.171,,122,122,,,,,,,,,,,,,,,,bars/044.png,bars/mask002.png,,,,,,,,,,,,0,2,,,,,,,6,8,6,8,,,,,,,,,,,3195.374,3195.905,3196.171,3206.025,space,9.604,,3206.026,47,33,3206.863,3206.863,3206.878,,,,0,22,22,22,1,75,155,,,,,,,,
,,5b3c4027c49ecb00010aaeac,65af55f4d9188f2482cd2804,2024-01-23_24h07.20.044,bars,2023.2.3,Win32,4.273504274,657b66ea316d21385b68909f,,,,,,,,,,,3206.878,3207.932,,,3208.473,3208.739,,128,128,,,,,,,,,,,,,,,,bars/001.png,bars/mask002.png,,,,,,,,,,,,7,1,,,,,,,8,10,7,10,,,,,,,,,,,3207.932,3208.473,3208.739,3214.115,space,5.119,0.001,3214.115,2,43,3215.166,3215.166,3215.18,,,,0,23,23,23,1,130,85,,,,,,,,
,,5b3c4027c49ecb00010aaeac,65af55f4d9188f2482cd2804,2024-01-23_24h07.20.044,bars,2023.2.3,Win32,4.273504274,657b66ea316d21385b68909f,,,,,,,,,,,3215.181,3216.221,,,3216.757,3217.03,,11,191,,,,,,,,,,,,,,,,bars/041.png,bars/mask004.png,,,,,,,,,,,,7,1,,,,,,,10,10,10,9,,,,,,,,,,,3216.221,3216.757,3217.03,3228.402,space,11.124,0.001,3228.402,9,74,3229.45,3229.45,3229.461,,,,0,24,24,24,1,20,85,,,,,,,,
,,5b3c4027c49ecb00010aaeac,65af55f4d9188f2482cd2804,2024-01-23_24h07.20.044,bars,2023.2.3,Win32,4.273504274,657b66ea316d21385b68909f,,,,,,,,,,,3229.461,3230.505,,,3231.044,3231.308,,39,39,,,,,,,,,,,,,,,,bars/048.png,bars/mask006.png,,,,,,,,,,,,6,1,,,,,,,10,10,9,9,,,,,,,,,,,3230.505,3231.044,3231.308,3239.05,space,7.472,0,3239.05,11,44,3240.103,3240.103,3240.114,,,,0,25,25,25,1,50,175,,,,,,,,
,,5b3c4027c49ecb00010aaeac,65af55f4d9188f2482cd2804,2024-01-23_24h07.20.044,bars,2023.2.3,Win32,4.273504274,657b66ea316d21385b68909f,,,,,,,,,,,3240.114,3241.137,,,3241.671,3241.941,,174,-6,,,,,,,,,,,,,,,,bars/037.png,bars/mask004.png,,,,,,,,,,,,2,1,,,,,,,8,10,8,10,,,,,,,,,,,3241.137,3241.671,3241.941,3251.247,space,9.06,,3251.247,24,69,3252.3,3252.3,3252.31,,,,0,26,26,26,1,150,105,,,,,,,,
,,5b3c4027c49ecb00010aaeac,65af55f4d9188f2482cd2804,2024-01-23_24h07.20.044,bars,2023.2.3,Win32,4.273504274,657b66ea316d21385b68909f,,,,,,,,,,,3252.31,3253.345,,,3253.877,3254.147,,127,127,,,,,,,,,,,,,,,,bars/037.png,bars/mask002.png,,,,,,,,,,,,2,2,,,,,,,6,8,7,8,,,,,,,,,,,3253.345,3253.877,3254.147,3271.965,space,17.567,0,3271.965,23,22,3273.01,3273.01,3273.023,,,,0,27,27,27,1,150,105,,,,,,,,
,,5b3c4027c49ecb00010aaeac,65af55f4d9188f2482cd2804,2024-01-23_24h07.20.044,bars,2023.2.3,Win32,4.273504274,657b66ea316d21385b68909f,,,,,,,,,,,3273.023,3274.07,,,3274.599,3274.863,,133,133,,,,,,,,,,,,,,,,bars/025.png,bars/mask004.png,,,,,,,,,,,,0,1,,,,,,,4,6,4,6,,,,,,,,,,,3274.07,3274.599,3274.863,3280.845,space,5.732,0.001,3280.845,28,87,3281.927,3281.927,3281.953,,,,0,28,28,28,1,105,40,,,,,,,,
,,5b3c4027c49ecb00010aaeac,65af55f4d9188f2482cd2804,2024-01-23_24h07.20.044,bars,2023.2.3,Win32,4.273504274,657b66ea316d21385b68909f,,,,,,,,,,,3281.955,3282.56,,,3283.166,3283.167,,116,116,,,,,,,,,,,,,,,,bars/039.png,bars/mask004.png,,,,,,,,,,,,3,2,,,,,,,6,4,6,4,,,,,,,,,,,3282.56,3283.166,3283.167,3301.788,space,18.345,0.001,3301.788,59,11,3302.667,3302.667,3302.693,,,,0,29,29,29,1,175,105,,,,,,,,
,,5b3c4027c49ecb00010aaeac,65af55f4d9188f2482cd2804,2024-01-23_24h07.20.044,bars,2023.2.3,Win32,4.273504274,657b66ea316d21385b68909f,,,,,,,,,,,3302.693,3303.73,,,3304.283,3304.285,,176,-4,,,,,,,,,,,,,,,,bars/035.png,bars/mask004.png,,,,,,,,,,,,10,1,,,,,,,8,6,10,7,,,,,,,,,,,3303.73,3304.283,3304.285,3308.958,space,4.163,,3308.958,1,64,3309.999,3309.999,3310.01,,,,0,30,30,30,1,175,60,,,,,,,,
,,5b3c4027c49ecb00010aaeac,65af55f4d9188f2482cd2804,2024-01-23_24h07.20.044,bars,2023.2.3,Win32,4.273504274,657b66ea316d21385b68909f,,,,,,,,,,,3310.011,3311.061,,,3311.597,3311.886,,6,186,,,,,,,,,,,,,,,,bars/016.png,bars/mask006.png,,,,,,,,,,,,1,2,,,,,,,6,4,6,4,,,,,,,,,,,3311.061,3311.597,3311.886,3337.941,space,25.807,0.001,3337.941,34,21,3338.944,3338.945,3338.956,,,,0,31,31,31,1,40,165,,,,,,,,
,,5b3c4027c49ecb00010aaeac,65af55f4d9188f2482cd2804,2024-01-23_24h07.20.044,bars,2023.2.3,Win32,4.273504274,657b66ea316d21385b68909f,,,,,,,,,,,3338.956,3339.993,,,3340.526,3340.795,,116,116,,,,,,,,,,,,,,,,bars/037.png,bars/mask008.png,,,,,,,,,,,,2,2,,,,,,,8,2,7,3,,,,,,,,,,,3339.994,3340.526,3340.795,3364.346,space,23.296,0.001,3364.346,34,11,3365.365,3365.365,3365.376,,,,0,32,32,32,1,150,105,,,,,,,,
,,5b3c4027c49ecb00010aaeac,65af55f4d9188f2482cd2804,2024-01-23_24h07.20.044,bars,2023.2.3,Win32,4.273504274,657b66ea316d21385b68909f,,,,,,,,,,,3365.377,3366.436,,,3366.966,3367.23,,8,188,,,,,,,,,,,,,,,,bars/023.png,bars/mask003.png,,,,,,,,,,,,5,1,,,,,,,10,4,9,5,,,,,,,,,,,3366.436,3366.966,3367.23,3384.796,space,17.316,,3384.796,12,73,3385.872,3385.872,3385.895,,,,0,33,33,33,1,20,115,,,,,,,,
,,5b3c4027c49ecb00010aaeac,65af55f4d9188f2482cd2804,2024-01-23_24h07.20.044,bars,2023.2.3,Win32,4.273504274,657b66ea316d21385b68909f,,,,,,,,,,,3385.896,3386.946,,,3387.495,3387.497,,32,32,,,,,,,,,,,,,,,,bars/009.png,bars/mask002.png,,,,,,,,,,,,4,1,,,,,,,10,6,10,7,,,,,,,,,,,3386.946,3387.495,3387.497,3408.03,space,19.995,,3408.03,17,73,3409.08,3409.08,3409.09,,,,0,34,34,34,1,15,105,,,,,,,,
,,5b3c4027c49ecb00010aaeac,65af55f4d9188f2482cd2804,2024-01-23_24h07.20.044,bars,2023.2.3,Win32,4.273504274,657b66ea316d21385b68909f,,,,,,,,,,,3409.091,3409.922,,,3410.464,3410.466,,26,26,,,,,,,,,,,,,,,,bars/003.png,bars/mask008.png,,,,,,,,,,,,9,1,,,,,,,8,8,9,9,,,,,,,,,,,3409.922,3410.464,3410.466,3421.827,space,10.801,,3421.827,1,66,3422.887,3422.887,3422.898,,,,0,35,35,35,1,25,140,,,,,,,,
,,5b3c4027c49ecb00010aaeac,65af55f4d9188f2482cd2804,2024-01-23_24h07.20.044,bars,2023.2.3,Win32,4.273504274,657b66ea316d21385b68909f,,,,,,,,,,,3422.898,3424.005,,,3424.595,3424.596,,53,53,,,,,,,,,,,,,,,,bars/006.png,bars/mask006.png,,,,,,,,,,,,4,1,,,,,,,10,6,10,6,,,,,,,,,,,3424.006,3424.595,3424.596,3430.5,space,5.347,0.001,3430.501,18,47,3431.528,3431.528,3431.539,,,,0,36,36,36,1,35,100,,,,,,,,
,,5b3c4027c49ecb00010aaeac,65af55f4d9188f2482cd2804,2024-01-23_24h07.20.044,bars,2023.2.3,Win32,4.273504274,657b66ea316d21385b68909f,,,,,,,,,,,3431.539,3432.594,,,3433.13,3433.4,,155,155,,,,,,,,,,,,,,,,bars/039.png,bars/mask003.png,,,,,,,,,,,,3,1,,,,,,,10,8,10,8,,,,,,,,,,,3432.594,3433.13,3433.4,3440.966,space,7.32,,3440.966,20,50,3442.02,3442.02,3442.032,,,,0,37,37,37,1,175,105,,,,,,,,
,,5b3c4027c49ecb00010aaeac,65af55f4d9188f2482cd2804,2024-01-23_24h07.20.044,bars,2023.2.3,Win32,4.273504274,657b66ea316d21385b68909f,,,,,,,,,,,3442.032,3443.081,,,3443.611,3443.873,,24,24,,,,,,,,,,,,,,,,bars/003.png,bars/mask006.png,,,,,,,,,,,,8,1,,,,,,,8,10,8,10,,,,,,,,,,,3443.081,3443.611,3443.873,3447.016,space,2.887,0.001,3447.016,1,64,3448.045,3448.045,3448.056,,,,0,38,38,38,1,25,140,,,,,,,,
,,5b3c4027c49ecb00010aaeac,65af55f4d9188f2482cd2804,2024-01-23_24h07.20.044,bars,2023.2.3,Win32,4.273504274,657b66ea316d21385b68909f,,,,,,,,,,,3448.056,3449.157,,,3449.706,3449.707,,60,60,,,,,,,,,,,,,,,,bars/021.png,bars/mask000.png,,,,,,,,,,,,6,2,,,,,,,10,8,10,9,,,,,,,,,,,3449.158,3449.705,3449.707,3454.968,space,4.753,,3454.968,85,10,3456.018,3456.018,3456.03,,,,0,39,39,39,1,155,70,,,,,,,,
,,5b3c4027c49ecb00010aaeac,65af55f4d9188f2482cd2804,2024-01-23_24h07.20.044,bars,2023.2.3,Win32,4.273504274,657b66ea316d21385b68909f,,,,,,,,,,,3456.031,3457.071,,,3457.599,3457.869,,70,70,,,,,,,,,,,,,,,,bars/011.png,bars/mask003.png,,,,,,,,,,,,3,2,,,,,,,10,6,9,6,,,,,,,,,,,3457.071,3457.599,3457.869,3460.256,space,2.14,,3460.256,90,15,3461.305,3461.305,3461.316,,,,0,40,40,40,1,160,85,,,,,,,,
,,5b3c4027c49ecb00010aaeac,65af55f4d9188f2482cd2804,2024-01-23_24h07.20.044,bars,2023.2.3,Win32,4.273504274,657b66ea316d21385b68909f,,,,,,,,,,,3461.317,3462.139,,,3462.737,3463.3,,27,27,,,,,,,,,,,,,,,,bars/049.png,bars/mask009.png,,,,,,,,,,,,0,1,,,,,,,10,8,10,7,,,,,,,,,,,3462.139,3462.737,3463.3,3485.445,space,21.636,0.001,3485.445,47,88,3486.441,3486.441,3486.454,,,,0,41,41,41,1,160,115,,,,,,,,
,,5b3c4027c49ecb00010aaeac,65af55f4d9188f2482cd2804,2024-01-23_24h07.20.044,bars,2023.2.3,Win32,4.273504274,657b66ea316d21385b68909f,,,,,,,,,,,3486.454,3487.501,,,3488.049,3488.315,,132,132,,,,,,,,,,,,,,,,bars/037.png,bars/mask009.png,,,,,,,,,,,,3,1,,,,,,,8,10,8,10,,,,,,,,,,,3487.501,3488.049,3488.315,3495.92,space,7.341,,3495.92,18,27,3496.952,3496.952,3496.962,,,,0,42,42,42,1,150,105,,,,,,,,
,,5b3c4027c49ecb00010aaeac,65af55f4d9188f2482cd2804,2024-01-23_24h07.20.044,bars,2023.2.3,Win32,4.273504274,657b66ea316d21385b68909f,,,,,,,,,,,3496.962,3498.005,,,3498.548,3498.811,,52,52,,,,,,,,,,,,,,,,bars/013.png,bars/mask002.png,,,,,,,,,,,,1,1,,,,,,,6,8,5,8,,,,,,,,,,,3498.005,3498.548,3498.811,3503.043,space,3.968,,3503.043,23,42,3504.104,3504.104,3504.114,,,,0,43,43,43,1,75,10,,,,,,,,
,,5b3c4027c49ecb00010aaeac,65af55f4d9188f2482cd2804,2024-01-23_24h07.20.044,bars,2023.2.3,Win32,4.273504274,657b66ea316d21385b68909f,,,,,,,,,,,3504.114,3505.207,,,3505.761,3505.763,,130,130,,,,,,,,,,,,,,,,bars/032.png,bars/mask003.png,,,,,,,,,,,,3,1,,,,,,,4,10,3,10,,,,,,,,,,,3505.207,3505.761,3505.763,3509.693,space,3.421,0,3509.693,5,70,3510.723,3510.723,3510.725,,,,0,44,44,44,1,125,20,,,,,,,,
,,5b3c4027c49ecb00010aaeac,65af55f4d9188f2482cd2804,2024-01-23_24h07.20.044,bars,2023.2.3,Win32,4.273504274,657b66ea316d21385b68909f,,,,,,,,,,,3510.725,3511.772,,,3512.329,3512.597,,32,212,,,,,,,,,,,,,,,,bars/043.png,bars/mask001.png,,,,,,,,,,,,7,1,,,,,,,6,8,7,8,,,,,,,,,,,3511.772,3512.329,3512.597,3534.498,space,21.633,0,3534.498,2,82,3535.501,3535.501,3535.51,,,,0,45,45,45,1,30,130,,,,,,,,
,,5b3c4027c49ecb00010aaeac,65af55f4d9188f2482cd2804,2024-01-23_24h07.20.044,bars,2023.2.3,Win32,4.273504274,657b66ea316d21385b68909f,,,,,,,,,,,3535.511,3536.54,,,3537.081,3537.347,,100,100,,,,,,,,,,,,,,,,bars/008.png,bars/mask002.png,,,,,,,,,,,,3,1,,,,,,,4,6,4,5,,,,,,,,,,,3536.54,3537.081,3537.347,3558.829,space,21.233,,3558.829,10,80,3559.855,3559.855,3559.866,,,,0,46,46,46,1,110,0,,,,,,,,
,,5b3c4027c49ecb00010aaeac,65af55f4d9188f2482cd2804,2024-01-23_24h07.20.044,bars,2023.2.3,Win32,4.273504274,657b66ea316d21385b68909f,,,,,,,,,,,3559.866,3560.893,,,3561.433,3561.706,,170,170,,,,,,,,,,,,,,,,bars/036.png,bars/mask008.png,,,,,,,,,,,,0,1,,,,,,,2,4,3,4,,,,,,,,,,,3560.893,3561.433,3561.706,3564.336,space,2.381,,3564.336,25,30,3565.378,3565.378,3565.388,,,,0,47,47,47,1,145,20,,,,,,,,
,,5b3c4027c49ecb00010aaeac,65af55f4d9188f2482cd2804,2024-01-23_24h07.20.044,bars,2023.2.3,Win32,4.273504274,657b66ea316d21385b68909f,,,,,,,,,,,3565.389,3566.735,,,3567.285,3567.286,,20,200,,,,,,,,,,,,,,,,bars/029.png,bars/mask003.png,,,,,,,,,,,,0,2,,,,,,,0,2,0,1,,,,,,,,,,,3566.735,3567.285,3567.286,3589.718,space,21.932,,3589.718,70,25,3590.789,3590.789,3590.812,,,,0,48,48,48,1,90,45,,,,,,,,
,,5b3c4027c49ecb00010aaeac,65af55f4d9188f2482cd2804,2024-01-23_24h07.20.044,bars,2023.2.3,Win32,4.273504274,657b66ea316d21385b68909f,,,,,,,,,,,3590.813,3591.9,,,3592.45,3592.451,,140,140,,,,,,,,,,,,,,,,bars/016.png,bars/mask006.png,,,,,,,,,,,,1,2,,,,,,,0,4,0,5,,,,,,,,,,,3591.9,3592.45,3592.451,3605.054,space,12.138,0,3605.054,80,25,3606.104,3606.104,3606.115,,,,0,49,49,49,1,40,165,,,,,,,,
,,5b3c4027c49ecb00010aaeac,65af55f4d9188f2482cd2804,2024-01-23_24h07.20.044,bars,2023.2.3,Win32,4.273504274,657b66ea316d21385b68909f,,,,,,,,,,,,,,,,,,,,,,,,,,,,,,,,,,,,,,,,,,,,,,,,,,,,,,,,,,,,,,,,,,,,,,,,,,,,,,,,,,,,,,,,,,,,,3606.115,3665.93,0,3,3,2,1,sequence_tables/blk047.csv
,,5b3c4027c49ecb00010aaeac,65af55f4d9188f2482cd2804,2024-01-23_24h07.20.044,bars,2023.2.3,Win32,4.273504274,657b66ea316d21385b68909f,,,,,,,,,,,3699.433,3700.211,,,3700.78,3701.05,,88,88,,,,,,,,,,,,,,,,bars/012.png,bars/mask009.png,,,,,,,,,,,,2,1,,,,,,,3,3,2,3,,,,,,3665.942,3699.405,space,33.212,0.001,3700.211,3700.78,3701.05,3716.017,space,14.715,,3716.017,2,73,3717.055,3717.055,3717.069,,,,0,0,0,0,1,90,15,,,,,,,,
,,5b3c4027c49ecb00010aaeac,65af55f4d9188f2482cd2804,2024-01-23_24h07.20.044,bars,2023.2.3,Win32,4.273504274,657b66ea316d21385b68909f,,,,,,,,,,,3717.07,3718.105,,,3718.779,3719.336,,120,120,,,,,,,,,,,,,,,,bars/018.png,bars/mask005.png,,,,,,,,,,,,0,2,,,,,,,1,1,1,2,,,,,,,,,,,3718.105,3718.779,3719.336,3736.627,space,16.779,0.001,3736.627,30,30,3737.659,3737.659,3737.671,,,,0,1,1,1,1,150,90,,,,,,,,
,,5b3c4027c49ecb00010aaeac,65af55f4d9188f2482cd2804,2024-01-23_24h07.20.044,bars,2023.2.3,Win32,4.273504274,657b66ea316d21385b68909f,,,,,,,,,,,3737.671,3738.694,,,3739.235,3739.508,,23,203,,,,,,,,,,,,,,,,bars/048.png,bars/mask004.png,,,,,,,,,,,,0,1,,,,,,,3,0,4,0,,,,,,,,,,,3738.694,3739.235,3739.508,3757.922,space,18.162,0.001,3757.922,27,28,3759.216,3759.216,3759.239,,,,0,2,2,2,1,50,175,,,,,,,,
,,5b3c4027c49ecb00010aaeac,65af55f4d9188f2482cd2804,2024-01-23_24h07.20.044,bars,2023.2.3,Win32,4.273504274,657b66ea316d21385b68909f,,,,,,,,,,,3759.239,3760.311,,,3760.87,3760.871,,78,78,,,,,,,,,,,,,,,,bars/014.png,bars/mask009.png,,,,,,,,,,,,0,1,,,,,,,1,2,0,4,,,,,,,,,,,3760.311,3760.87,3760.871,3768.013,space,6.626,,3768.013,2,78,3768.94,3768.94,3768.961,,,,0,3,3,3,1,80,0,,,,,,,,
,,5b3c4027c49ecb00010aaeac,65af55f4d9188f2482cd2804,2024-01-23_24h07.20.044,bars,2023.2.3,Win32,4.273504274,657b66ea316d21385b68909f,,,,,,,,,,,3768.961,3770.004,,,3770.564,3770.565,,71,71,,,,,,,,,,,,,,,,bars/015.png,bars/mask002.png,,,,,,,,,,,,0,1,,,,,,,3,4,4,4,,,,,,,,,,,3770.004,3770.563,3770.565,3772.856,space,1.784,,3772.856,39,89,3773.882,3773.882,3773.883,,,,0,4,4,4,1,110,160,,,,,,,,
,,5b3c4027c49ecb00010aaeac,65af55f4d9188f2482cd2804,2024-01-23_24h07.20.044,bars,2023.2.3,Win32,4.273504274,657b66ea316d21385b68909f,,,,,,,,,,,3773.883,3774.925,,,3775.465,3775.73,,79,79,,,,,,,,,,,,,,,,bars/025.png,bars/mask006.png,,,,,,,,,,,,0,1,,,,,,,1,6,2,6,,,,,,,,,,,3774.925,3775.465,3775.73,3777.044,space,1.07,,3777.044,26,39,3778.08,3778.08,3778.081,,,,0,5,5,5,1,105,40,,,,,,,,
,,5b3c4027c49ecb00010aaeac,65af55f4d9188f2482cd2804,2024-01-23_24h07.20.044,bars,2023.2.3,Win32,4.273504274,657b66ea316d21385b68909f,,,,,,,,,,,3778.082,3779.119,,,3779.661,3779.939,,126,126,,,,,,,,,,,,,,,,bars/039.png,bars/mask007.png,,,,,,,,,,,,2,2,,,,,,,0,8,0,6,,,,,,,,,,,3779.119,3779.661,3779.939,3792.479,space,12.272,,3792.479,49,21,3793.51,3793.51,3793.524,,,,0,6,6,6,1,175,105,,,,,,,,
,,5b3c4027c49ecb00010aaeac,65af55f4d9188f2482cd2804,2024-01-23_24h07.20.044,bars,2023.2.3,Win32,4.273504274,657b66ea316d21385b68909f,,,,,,,,,,,3793.524,3794.348,,,3794.895,3794.897,,25,205,,,,,,,,,,,,,,,,bars/000.png,bars/mask001.png,,,,,,,,,,,,0,1,,,,,,,0,6,0,6,,,,,,,,,,,3794.348,3794.895,3794.897,3808.725,space,13.319,0,3808.725,15,60,3809.756,3809.756,3809.768,,,,0,7,7,7,1,40,145,,,,,,,,
,,5b3c4027c49ecb00010aaeac,65af55f4d9188f2482cd2804,2024-01-23_24h07.20.044,bars,2023.2.3,Win32,4.273504274,657b66ea316d21385b68909f,,,,,,,,,,,3809.769,3810.8,,,3811.338,3811.605,,179,-1,,,,,,,,,,,,,,,,bars/040.png,bars/mask003.png,,,,,,,,,,,,3,2,,,,,,,2,4,1,4,,,,,,,,,,,3810.8,3811.338,3811.605,3825.05,space,13.204,,3825.05,39,6,3826.099,3826.099,3826.111,,,,0,8,8,8,1,140,5,,,,,,,,
,,5b3c4027c49ecb00010aaeac,65af55f4d9188f2482cd2804,2024-01-23_24h07.20.044,bars,2023.2.3,Win32,4.273504274,657b66ea316d21385b68909f,,,,,,,,,,,3826.111,3827.129,,,3827.662,3827.936,,178,-2,,,,,,,,,,,,,,,,bars/030.png,bars/mask005.png,,,,,,,,,,,,0,1,,,,,,,4,6,3,6,,,,,,,,,,,3827.129,3827.661,3827.936,3842.647,space,14.463,0.001,3842.647,38,67,3843.723,3843.723,3843.745,,,,0,9,9,9,1,140,65,,,,,,,,
,,5b3c4027c49ecb00010aaeac,65af55f4d9188f2482cd2804,2024-01-23_24h07.20.044,bars,2023.2.3,Win32,4.273504274,657b66ea316d21385b68909f,,,,,,,,,,,3843.745,3844.845,,,3845.338,3845.339,,4,4,,,,,,,,,,,,,,,,bars/022.png,bars/mask000.png,,,,,,,,,,,,4,2,,,,,,,6,8,7,9,,,,,,,,,,,3844.845,3845.338,3845.339,3847.441,space,1.861,,3847.441,89,16,3848.229,3848.229,3848.232,,,,0,10,10,10,1,95,20,,,,,,,,
,,5b3c4027c49ecb00010aaeac,65af55f4d9188f2482cd2804,2024-01-23_24h07.20.044,bars,2023.2.3,Win32,4.273504274,657b66ea316d21385b68909f,,,,,,,,,,,3848.232,3849.305,,,3849.833,3850.111,,173,-7,,,,,,,,,,,,,,,,bars/011.png,bars/mask005.png,,,,,,,,,,,,2,1,,,,,,,4,6,4,5,,,,,,,,,,,3849.305,3849.833,3850.111,3868.596,space,18.235,,3868.596,13,88,3869.621,3869.621,3869.636,,,,0,11,11,11,1,160,85,,,,,,,,
,,5b3c4027c49ecb00010aaeac,65af55f4d9188f2482cd2804,2024-01-23_24h07.20.044,bars,2023.2.3,Win32,4.273504274,657b66ea316d21385b68909f,,,,,,,,,,,3869.636,3870.66,,,3871.203,3871.475,,155,155,,,,,,,,,,,,,,,,bars/029.png,bars/mask001.png,,,,,,,,,,,,0,1,,,,,,,2,8,2,9,,,,,,,,,,,3870.66,3871.203,3871.475,3876.506,space,4.784,0.001,3876.506,65,70,3877.565,3877.565,3877.586,,,,0,12,12,12,1,90,45,,,,,,,,
,,5b3c4027c49ecb00010aaeac,65af55f4d9188f2482cd2804,2024-01-23_24h07.20.044,bars,2023.2.3,Win32,4.273504274,657b66ea316d21385b68909f,,,,,,,,,,,3877.587,3878.587,,,3878.859,3878.86,,38,38,,,,,,,,,,,,,,,,bars/007.png,bars/mask000.png,,,,,,,,,,,,4,2,,,,,,,0,10,1,9,,,,,,,,,,,3878.587,3878.859,3878.86,3894.047,space,14.942,,3894.047,43,17,3895.103,3895.103,3895.117,,,,0,13,13,13,1,175,55,,,,,,,,
,,5b3c4027c49ecb00010aaeac,65af55f4d9188f2482cd2804,2024-01-23_24h07.20.044,bars,2023.2.3,Win32,4.273504274,657b66ea316d21385b68909f,,,,,,,,,,,3895.117,3896.18,,,3896.483,3896.758,,35,35,,,,,,,,,,,,,,,,bars/005.png,bars/mask001.png,,,,,,,,,,,,0,1,,,,,,,2,10,1,10,,,,,,,,,,,3896.18,3896.483,3896.758,3898.673,space,1.652,,3898.674,25,75,3899.478,3899.478,3899.483,,,,0,14,14,14,1,10,140,,,,,,,,
,,5b3c4027c49ecb00010aaeac,65af55f4d9188f2482cd2804,2024-01-23_24h07.20.044,bars,2023.2.3,Win32,4.273504274,657b66ea316d21385b68909f,,,,,,,,,,,3899.484,3900.599,,,3901.15,3901.152,,69,69,,,,,,,,,,,,,,,,bars/025.png,bars/mask009.png,,,,,,,,,,,,0,2,,,,,,,0,8,0,8,,,,,,,,,,,3900.599,3901.15,3901.152,3910.76,space,9.053,0,3910.761,36,29,3911.849,3911.849,3911.873,,,,0,15,15,15,1,105,40,,,,,,,,
,,5b3c4027c49ecb00010aaeac,65af55f4d9188f2482cd2804,2024-01-23_24h07.20.044,bars,2023.2.3,Win32,4.273504274,657b66ea316d21385b68909f,,,,,,,,,,,3911.873,3912.931,,,3913.425,3913.426,,105,105,,,,,,,,,,,,,,,,bars/024.png,bars/mask005.png,,,,,,,,,,,,1,1,,,,,,,0,10,1,8,,,,,,,,,,,3912.931,3913.424,3913.426,3922.752,space,9.079,0.002,3922.752,15,65,3923.82,3923.82,3923.847,,,,0,16,16,16,1,120,170,,,,,,,,
