init_variables.started,init_variables.stopped,participant,session,date,expName,psychopyVersion,OS,frameRate,study_id,instruction_exp.started,instruction_exp.stopped,key_resp_8.keys,key_resp_8.rt,key_resp_8.duration,instruction_single.started,instruction_single.stopped,key_resp_2.keys,key_resp_2.rt,key_resp_2.duration,interval.started,interval.stopped,cue_single.started,cue_single.stopped,mask.started,mask.stopped,ori_response_single.started,res_ori,res,ori_response_single.stopped,key_resp_single.keys,key_resp_single.rt,key_resp_single.duration,disp_single.started,disp_single.stopped,key_resp.keys,key_resp.rt,key_resp.duration,single.thisRepN,single.thisTrialN,single.thisN,single.thisIndex,single.ran,ori,path,mask_path,instruction_bandit.started,instruction_bandit.stopped,key_resp_6.keys,key_resp_6.rt,key_resp_6.duration,cue_bandit.started,cue_bandit.stopped,bandit_res.keys,bandit_res.rt,bandit_res.duration,outcome_bandit.started,rew,action,outcome_bandit.stopped,bandit.thisRepN,bandit.thisTrialN,bandit.thisN,bandit.thisIndex,bandit.ran,actual_rew1,actual_rew2,rew1,rew2,instruction_task.started,instruction_task.stopped,key_resp_7.keys,key_resp_7.rt,key_resp_7.duration,wait_ready.started,wait_ready.stopped,key_resp_3.keys,key_resp_3.rt,key_resp_3.duration,cue.started,cue.stopped,ori_response.started,ori_response.stopped,key_resp_5.keys,key_resp_5.rt,key_resp_5.duration,outcome.started,diff1,diff2,outcome.stopped,disp_outcome_practice.started,disp_outcome_practice.stopped,key_resp_4.keys,key_resp_4.rt,key_resp_4.duration,trials.thisRepN,trials.thisTrialN,trials.thisN,trials.thisIndex,trials.ran,ori1,ori2,break_blk.started,break_blk.stopped,block.thisRepN,block.thisTrialN,block.thisN,block.thisIndex,block.ran,condition_file
0.0003,0.0005,613a639002c088d7e68b80a9,65af552097d7ed799e101c51,2024-01-22_23h04.27.859,bars,2023.2.3,Win32,60.24096386,657b66ea316d21385b68909f,,,,,,,,,,,,,,,,,,,,,,,,,,,,,,,,,,,,,,,,,,,,,,,,,,,,,,,,,,,,,,,,,,,,,,,,,,,,,,,,,,,,,,,,,,,,,,,,,,,,
,,613a639002c088d7e68b80a9,65af552097d7ed799e101c51,2024-01-22_23h04.27.859,bars,2023.2.3,Win32,60.24096386,657b66ea316d21385b68909f,0.0006,68.6886,y,68.6734,,,,,,,,,,,,,,,,,,,,,,,,,,,,,,,,,,,,,,,,,,,,,,,,,,,,,,,,,,,,,,,,,,,,,,,,,,,,,,,,,,,,,,,,,,,,,,,,
,,613a639002c088d7e68b80a9,65af552097d7ed799e101c51,2024-01-22_23h04.27.859,bars,2023.2.3,Win32,60.24096386,657b66ea316d21385b68909f,,,,,,68.6887,80.9097,space,12.2051,,,,,,,,,,,,,,,,,,,,,,,,,,,,,,,,,,,,,,,,,,,,,,,,,,,,,,,,,,,,,,,,,,,,,,,,,,,,,,,,,,,,,,,,,,,
,,613a639002c088d7e68b80a9,65af552097d7ed799e101c51,2024-01-22_23h04.27.859,bars,2023.2.3,Win32,60.24096386,657b66ea316d21385b68909f,,,,,,,,,,,80.9144,81.9085,81.9086,82.4079,82.408,82.658,82.6582,30,30,90.5502,space,7.8786,,90.5504,98.2432,space,7.6667,,0,0,0,7,1,45,bars/single007.png,bars/mask009.png,,,,,,,,,,,,,,,,,,,,,,,,,,,,,,,,,,,,,,,,,,,,,,,,,,,,,,,,,,,,,,,,
,,613a639002c088d7e68b80a9,65af552097d7ed799e101c51,2024-01-22_23h04.27.859,bars,2023.2.3,Win32,60.24096386,657b66ea316d21385b68909f,,,,,,,,,,,98.2522,99.2415,99.2417,99.7407,99.7408,99.9906,99.9907,5,185,103.5537,space,3.5562,,103.5538,105.7847,space,2.2139,,0,1,1,1,1,20,bars/single001.png,bars/mask006.png,,,,,,,,,,,,,,,,,,,,,,,,,,,,,,,,,,,,,,,,,,,,,,,,,,,,,,,,,,,,,,,,
,,613a639002c088d7e68b80a9,65af552097d7ed799e101c51,2024-01-22_23h04.27.859,bars,2023.2.3,Win32,60.24096386,657b66ea316d21385b68909f,,,,,,,,,,,105.7852,106.7837,106.7838,107.2837,107.2838,107.5331,107.5331,84,84,110.7302,space,3.1865,,110.7302,113.4775,space,2.7377,,0,2,2,5,1,55,bars/single005.png,bars/mask008.png,,,,,,,,,,,,,,,,,,,,,,,,,,,,,,,,,,,,,,,,,,,,,,,,,,,,,,,,,,,,,,,,
,,613a639002c088d7e68b80a9,65af552097d7ed799e101c51,2024-01-22_23h04.27.859,bars,2023.2.3,Win32,60.24096386,657b66ea316d21385b68909f,,,,,,,,,,,113.4881,114.4765,114.4765,114.9757,114.9757,115.2255,115.2255,165,-15,118.3892,space,3.1567,,118.3893,121.1864,space,2.7841,,0,3,3,2,1,145,bars/single002.png,bars/mask003.png,,,,,,,,,,,,,,,,,,,,,,,,,,,,,,,,,,,,,,,,,,,,,,,,,,,,,,,,,,,,,,,,
,,613a639002c088d7e68b80a9,65af552097d7ed799e101c51,2024-01-22_23h04.27.859,bars,2023.2.3,Win32,60.24096386,657b66ea316d21385b68909f,,,,,,,,,,,121.1948,122.1852,122.1853,122.6851,122.6852,122.9345,122.9345,149,149,126.1315,space,3.1891,,126.1315,129.0954,space,2.9365,,0,4,4,0,1,150,bars/single000.png,bars/mask006.png,,,,,,,,,,,,,,,,,,,,,,,,,,,,,,,,,,,,,,,,,,,,,,,,,,,,,,,,,,,,,,,,
,,613a639002c088d7e68b80a9,65af552097d7ed799e101c51,2024-01-22_23h04.27.859,bars,2023.2.3,Win32,60.24096386,657b66ea316d21385b68909f,,,,,,,,,,,129.1033,130.0942,130.0942,130.5936,130.5937,130.8434,130.8434,163,163,132.1754,space,1.3225,,132.1755,133.6241,space,1.4427,,0,5,5,8,1,160,bars/single008.png,bars/mask004.png,,,,,,,,,,,,,,,,,,,,,,,,,,,,,,,,,,,,,,,,,,,,,,,,,,,,,,,,,,,,,,,,
,,613a639002c088d7e68b80a9,65af552097d7ed799e101c51,2024-01-22_23h04.27.859,bars,2023.2.3,Win32,60.24096386,657b66ea316d21385b68909f,,,,,,,,,,,133.6244,134.623,134.623,135.1226,135.1226,135.3723,135.3724,102,102,137.4869,space,2.0981,,137.487,139.7351,space,2.2294,,0,6,6,4,1,95,bars/single004.png,bars/mask004.png,,,,,,,,,,,,,,,,,,,,,,,,,,,,,,,,,,,,,,,,,,,,,,,,,,,,,,,,,,,,,,,,
,,613a639002c088d7e68b80a9,65af552097d7ed799e101c51,2024-01-22_23h04.27.859,bars,2023.2.3,Win32,60.24096386,657b66ea316d21385b68909f,,,,,,,,,,,139.7355,140.7336,140.7336,141.2332,141.2332,141.4829,141.4829,174,-6,146.345,space,4.8543,,146.345,147.8935,space,1.5222,,0,7,7,6,1,175,bars/single006.png,bars/mask005.png,,,,,,,,,,,,,,,,,,,,,,,,,,,,,,,,,,,,,,,,,,,,,,,,,,,,,,,,,,,,,,,,
,,613a639002c088d7e68b80a9,65af552097d7ed799e101c51,2024-01-22_23h04.27.859,bars,2023.2.3,Win32,60.24096386,657b66ea316d21385b68909f,,,,,,,,,,,147.894,148.8922,148.8922,149.3919,149.3919,149.6415,149.6415,35,35,151.4732,space,1.8144,,151.4732,153.5712,space,2.079,,0,8,8,3,1,20,bars/single003.png,bars/mask005.png,,,,,,,,,,,,,,,,,,,,,,,,,,,,,,,,,,,,,,,,,,,,,,,,,,,,,,,,,,,,,,,,
,,613a639002c088d7e68b80a9,65af552097d7ed799e101c51,2024-01-22_23h04.27.859,bars,2023.2.3,Win32,60.24096386,657b66ea316d21385b68909f,,,,,,,,,,,153.5714,154.5702,154.5702,155.0696,155.0697,155.3195,155.3197,21,21,157.5672,space,2.2399,,157.5672,159.1322,space,1.5458,,0,9,9,9,1,20,bars/single009.png,bars/mask006.png,,,,,,,,,,,,,,,,,,,,,,,,,,,,,,,,,,,,,,,,,,,,,,,,,,,,,,,,,,,,,,,,
,,613a639002c088d7e68b80a9,65af552097d7ed799e101c51,2024-01-22_23h04.27.859,bars,2023.2.3,Win32,60.24096386,657b66ea316d21385b68909f,,,,,,,,,,,,,,,,,,,,,,,,,,,,,,,,,,,,,159.1328,172.7529,space,13.5974,,,,,,,,,,,,,,,,,,,,,,,,,,,,,,,,,,,,,,,,,,,,,,,,,,,,,,,,,,,,
,,613a639002c088d7e68b80a9,65af552097d7ed799e101c51,2024-01-22_23h04.27.859,bars,2023.2.3,Win32,60.24096386,657b66ea316d21385b68909f,,,,,,,,,,,,,,,,,,,,,,,,,,,,,,,,,,,,,,,,,,172.7627,176.8321,left,4.054,,176.8323,9,1,177.8306,0,0,0,0,1,9,1,9,2,,,,,,,,,,,,,,,,,,,,,,,,,,,,,,,,,,,,,,,,,
,,613a639002c088d7e68b80a9,65af552097d7ed799e101c51,2024-01-22_23h04.27.859,bars,2023.2.3,Win32,60.24096386,657b66ea316d21385b68909f,,,,,,,,,,,,,,,,,,,,,,,,,,,,,,,,,,,,,,,,,,177.8311,181.8102,left,3.9721,,181.8102,10,1,182.809,0,1,1,1,1,10,0,10,1,,,,,,,,,,,,,,,,,,,,,,,,,,,,,,,,,,,,,,,,,
,,613a639002c088d7e68b80a9,65af552097d7ed799e101c51,2024-01-22_23h04.27.859,bars,2023.2.3,Win32,60.24096386,657b66ea316d21385b68909f,,,,,,,,,,,,,,,,,,,,,,,,,,,,,,,,,,,,,,,,,,182.8168,184.1243,right,1.3043,,184.1243,2,2,185.1233,0,2,2,2,1,10,2,10,2,,,,,,,,,,,,,,,,,,,,,,,,,,,,,,,,,,,,,,,,,
,,613a639002c088d7e68b80a9,65af552097d7ed799e101c51,2024-01-22_23h04.27.859,bars,2023.2.3,Win32,60.24096386,657b66ea316d21385b68909f,,,,,,,,,,,,,,,,,,,,,,,,,,,,,,,,,,,,,,,,,,185.1238,186.3387,left,1.1999,,186.3388,7,1,187.3378,0,3,3,3,1,8,4,7,3,,,,,,,,,,,,,,,,,,,,,,,,,,,,,,,,,,,,,,,,,
,,613a639002c088d7e68b80a9,65af552097d7ed799e101c51,2024-01-22_23h04.27.859,bars,2023.2.3,Win32,60.24096386,657b66ea316d21385b68909f,,,,,,,,,,,,,,,,,,,,,,,,,,,,,,,,,,,,,,,,,,187.3381,221.3875,right,34.0461,,221.3875,1,2,222.3867,0,4,4,4,1,6,2,5,1,,,,,,,,,,,,,,,,,,,,,,,,,,,,,,,,,,,,,,,,,
,,613a639002c088d7e68b80a9,65af552097d7ed799e101c51,2024-01-22_23h04.27.859,bars,2023.2.3,Win32,60.24096386,657b66ea316d21385b68909f,,,,,,,,,,,,,,,,,,,,,,,,,,,,,,,,,,,,,,,,,,222.3948,222.6696,right,0.2703,,222.6696,4,2,223.6687,0,5,5,5,1,4,4,4,4,,,,,,,,,,,,,,,,,,,,,,,,,,,,,,,,,,,,,,,,,
,,613a639002c088d7e68b80a9,65af552097d7ed799e101c51,2024-01-22_23h04.27.859,bars,2023.2.3,Win32,60.24096386,657b66ea316d21385b68909f,,,,,,,,,,,,,,,,,,,,,,,,,,,,,,,,,,,,,,,,,,223.6691,223.9186,right,0.2389,,223.9186,2,2,224.9174,0,6,6,6,1,2,2,1,2,,,,,,,,,,,,,,,,,,,,,,,,,,,,,,,,,,,,,,,,,
,,613a639002c088d7e68b80a9,65af552097d7ed799e101c51,2024-01-22_23h04.27.859,bars,2023.2.3,Win32,60.24096386,657b66ea316d21385b68909f,,,,,,,,,,,,,,,,,,,,,,,,,,,,,,,,,,,,,,,,,,224.9176,225.2005,right,0.2758,,225.2005,1,2,226.1995,0,7,7,7,1,0,0,0,1,,,,,,,,,,,,,,,,,,,,,,,,,,,,,,,,,,,,,,,,,
,,613a639002c088d7e68b80a9,65af552097d7ed799e101c51,2024-01-22_23h04.27.859,bars,2023.2.3,Win32,60.24096386,657b66ea316d21385b68909f,,,,,,,,,,,,,,,,,,,,,,,,,,,,,,,,,,,,,,,,,,226.1999,226.599,right,0.3838,,226.599,0,2,227.5982,0,8,8,8,1,0,2,1,0,,,,,,,,,,,,,,,,,,,,,,,,,,,,,,,,,,,,,,,,,
,,613a639002c088d7e68b80a9,65af552097d7ed799e101c51,2024-01-22_23h04.27.859,bars,2023.2.3,Win32,60.24096386,657b66ea316d21385b68909f,,,,,,,,,,,,,,,,,,,,,,,,,,,,,,,,,,,,,,,,,,227.5984,227.8313,right,0.2248,,227.8313,3,2,228.8301,0,9,9,9,1,2,4,2,3,,,,,,,,,,,,,,,,,,,,,,,,,,,,,,,,,,,,,,,,,
,,613a639002c088d7e68b80a9,65af552097d7ed799e101c51,2024-01-22_23h04.27.859,bars,2023.2.3,Win32,60.24096386,657b66ea316d21385b68909f,,,,,,,,,,,,,,,,,,,,,,,,,,,,,,,,,,,,,,,,,,228.8304,229.4796,right,0.6422,,229.4797,3,2,230.4787,0,10,10,10,1,0,2,0,3,,,,,,,,,,,,,,,,,,,,,,,,,,,,,,,,,,,,,,,,,
,,613a639002c088d7e68b80a9,65af552097d7ed799e101c51,2024-01-22_23h04.27.859,bars,2023.2.3,Win32,60.24096386,657b66ea316d21385b68909f,,,,,,,,,,,,,,,,,,,,,,,,,,,,,,,,,,,,,,,,,,230.479,230.845,left,0.3597,,230.845,0,1,231.8438,0,11,11,11,1,0,4,0,3,,,,,,,,,,,,,,,,,,,,,,,,,,,,,,,,,,,,,,,,,
,,613a639002c088d7e68b80a9,65af552097d7ed799e101c51,2024-01-22_23h04.27.859,bars,2023.2.3,Win32,60.24096386,657b66ea316d21385b68909f,,,,,,,,,,,,,,,,,,,,,,,,,,,,,,,,,,,,,,,,,,231.844,232.61,right,0.7495,,232.6101,6,2,233.6088,0,12,12,12,1,2,6,1,6,,,,,,,,,,,,,,,,,,,,,,,,,,,,,,,,,,,,,,,,,
,,613a639002c088d7e68b80a9,65af552097d7ed799e101c51,2024-01-22_23h04.27.859,bars,2023.2.3,Win32,60.24096386,657b66ea316d21385b68909f,,,,,,,,,,,,,,,,,,,,,,,,,,,,,,,,,,,,,,,,,,233.6092,234.275,left,0.6502,,234.275,1,1,235.2737,0,13,13,13,1,0,4,1,3,,,,,,,,,,,,,,,,,,,,,,,,,,,,,,,,,,,,,,,,,
,,613a639002c088d7e68b80a9,65af552097d7ed799e101c51,2024-01-22_23h04.27.859,bars,2023.2.3,Win32,60.24096386,657b66ea316d21385b68909f,,,,,,,,,,,,,,,,,,,,,,,,,,,,,,,,,,,,,,,,,,235.274,235.5901,right,0.3135,,235.5901,7,2,236.5892,0,14,14,14,1,2,6,2,7,,,,,,,,,,,,,,,,,,,,,,,,,,,,,,,,,,,,,,,,,
,,613a639002c088d7e68b80a9,65af552097d7ed799e101c51,2024-01-22_23h04.27.859,bars,2023.2.3,Win32,60.24096386,657b66ea316d21385b68909f,,,,,,,,,,,,,,,,,,,,,,,,,,,,,,,,,,,,,,,,,,236.5895,236.8391,left,0.233,,236.8391,3,1,237.838,0,15,15,15,1,4,8,3,9,,,,,,,,,,,,,,,,,,,,,,,,,,,,,,,,,,,,,,,,,
,,613a639002c088d7e68b80a9,65af552097d7ed799e101c51,2024-01-22_23h04.27.859,bars,2023.2.3,Win32,60.24096386,657b66ea316d21385b68909f,,,,,,,,,,,,,,,,,,,,,,,,,,,,,,,,,,,,,,,,,,237.8382,238.554,right,0.7004,,238.554,7,2,239.5529,0,16,16,16,1,6,6,7,7,,,,,,,,,,,,,,,,,,,,,,,,,,,,,,,,,,,,,,,,,
,,613a639002c088d7e68b80a9,65af552097d7ed799e101c51,2024-01-22_23h04.27.859,bars,2023.2.3,Win32,60.24096386,657b66ea316d21385b68909f,,,,,,,,,,,,,,,,,,,,,,,,,,,,,,,,,,,,,,,,,,239.5533,239.9026,left,0.3444,,239.9026,9,1,240.9018,0,17,17,17,1,8,4,9,5,,,,,,,,,,,,,,,,,,,,,,,,,,,,,,,,,,,,,,,,,
,,613a639002c088d7e68b80a9,65af552097d7ed799e101c51,2024-01-22_23h04.27.859,bars,2023.2.3,Win32,60.24096386,657b66ea316d21385b68909f,,,,,,,,,,,,,,,,,,,,,,,,,,,,,,,,,,,,,,,,,,240.902,241.3845,left,0.4701,,241.3845,5,1,242.3834,0,18,18,18,1,6,2,5,1,,,,,,,,,,,,,,,,,,,,,,,,,,,,,,,,,,,,,,,,,
,,613a639002c088d7e68b80a9,65af552097d7ed799e101c51,2024-01-22_23h04.27.859,bars,2023.2.3,Win32,60.24096386,657b66ea316d21385b68909f,,,,,,,,,,,,,,,,,,,,,,,,,,,,,,,,,,,,,,,,,,242.3837,242.6666,right,0.2669,,242.6667,0,2,243.6655,0,19,19,19,1,8,0,7,0,,,,,,,,,,,,,,,,,,,,,,,,,,,,,,,,,,,,,,,,,
,,613a639002c088d7e68b80a9,65af552097d7ed799e101c51,2024-01-22_23h04.27.859,bars,2023.2.3,Win32,60.24096386,657b66ea316d21385b68909f,,,,,,,,,,,,,,,,,,,,,,,,,,,,,,,,,,,,,,,,,,,,,,,,,,,,,,,,,,,,243.6662,258.0025,space,14.3139,,,,,,,,,,,,,,,,,,,,,,,,,,,,,,,,,,,,,
,,613a639002c088d7e68b80a9,65af552097d7ed799e101c51,2024-01-22_23h04.27.859,bars,2023.2.3,Win32,60.24096386,657b66ea316d21385b68909f,,,,,,,,,,,259.6703,260.6655,,,261.1654,261.4148,,44,44,,,,,,,,,,,,,,,,bars/018.png,bars/mask003.png,,,,,,,,,,,,0,2,,,,,,,8,3,7,2,,,,,,258.0123,259.6669,space,1.6341,,260.6658,261.1654,261.4151,264.3295,space,2.8917,,264.3298,74,46,265.3278,265.3279,277.6829,space,12.3403,,0,0,0,0,1,150,90,,,,,,,,
,,613a639002c088d7e68b80a9,65af552097d7ed799e101c51,2024-01-22_23h04.27.859,bars,2023.2.3,Win32,60.24096386,657b66ea316d21385b68909f,,,,,,,,,,,277.6923,278.6813,,,279.1807,279.4302,,90,90,,,,,,,,,,,,,,,,bars/006.png,bars/mask001.png,,,,,,,,,,,,3,2,,,,,,,6,5,6,4,,,,,,,,,,,278.6813,279.1806,279.4303,281.7283,space,2.2812,,281.7285,55,10,282.7271,282.7272,288.8545,space,6.1038,,0,1,1,1,1,35,100,,,,,,,,
,,613a639002c088d7e68b80a9,65af552097d7ed799e101c51,2024-01-22_23h04.27.859,bars,2023.2.3,Win32,60.24096386,657b66ea316d21385b68909f,,,,,,,,,,,288.8624,289.8533,,,290.3531,290.6027,,42,42,,,,,,,,,,,,,,,,bars/010.png,bars/mask007.png,,,,,,,,,,,,2,2,,,,,,,8,3,8,3,,,,,,,,,,,289.8534,290.3531,290.6028,292.684,space,2.0645,,292.6841,57,13,293.683,293.683,298.1286,space,4.4314,,0,2,2,2,1,165,55,,,,,,,,
,,613a639002c088d7e68b80a9,65af552097d7ed799e101c51,2024-01-22_23h04.27.859,bars,2023.2.3,Win32,60.24096386,657b66ea316d21385b68909f,,,,,,,,,,,298.1364,299.1277,,,299.6273,299.877,,118,118,,,,,,,,,,,,,,,,bars/004.png,bars/mask009.png,,,,,,,,,,,,4,2,,,,,,,6,5,5,5,,,,,,,,,,,299.1278,299.6273,299.877,304.2726,space,4.3883,,304.2726,87,7,305.2715,305.2715,307.353,space,2.0605,,0,3,3,3,1,25,125,,,,,,,,
,,613a639002c088d7e68b80a9,65af552097d7ed799e101c51,2024-01-22_23h04.27.859,bars,2023.2.3,Win32,60.24096386,657b66ea316d21385b68909f,,,,,,,,,,,307.3534,308.3518,,,308.852,309.1014,,10,10,,,,,,,,,,,,,,,,bars/031.png,bars/mask006.png,,,,,,,,,,,,0,2,,,,,,,8,3,9,3,,,,,,,,,,,308.3519,308.852,309.1014,311.2158,space,2.0999,,311.2158,70,25,312.2148,312.2148,313.8134,space,1.5698,,0,4,4,4,1,120,35,,,,,,,,
,,613a639002c088d7e68b80a9,65af552097d7ed799e101c51,2024-01-22_23h04.27.859,bars,2023.2.3,Win32,60.24096386,657b66ea316d21385b68909f,,,,,,,,,,,313.8137,314.8121,,,315.3118,315.5616,,139,139,,,,,,,,,,,,,,,,bars/003.png,bars/mask003.png,,,,,,,,,,,,2,2,,,,,,,6,1,6,2,,,,,,,,,,,314.8122,315.3117,315.5617,321.2893,space,5.7178,,321.2894,66,1,322.2885,322.2886,324.1868,space,1.8657,,0,5,5,5,1,25,140,,,,,,,,
,,613a639002c088d7e68b80a9,65af552097d7ed799e101c51,2024-01-22_23h04.27.859,bars,2023.2.3,Win32,60.24096386,657b66ea316d21385b68909f,,,,,,,,,,,324.1872,325.1853,,,325.6852,325.9344,,67,67,,,,,,,,,,,,,,,,bars/044.png,bars/mask000.png,,,,,,,,,,,,2,1,,,,,,,4,3,3,3,,,,,,,,,,,325.1854,325.6852,325.9345,327.8493,space,1.9016,,327.8494,8,88,328.8485,328.8485,334.3266,space,5.4498,,0,6,6,6,1,75,155,,,,,,,,
,,613a639002c088d7e68b80a9,65af552097d7ed799e101c51,2024-01-22_23h04.27.859,bars,2023.2.3,Win32,60.24096386,657b66ea316d21385b68909f,,,,,,,,,,,334.3346,335.3254,,,335.8249,336.0746,,100,280,,,,,,,,,,,,,,,,bars/027.png,bars/mask008.png,,,,,,,,,,,,5,1,,,,,,,6,1,7,1,,,,,,,,,,,335.3255,335.8249,336.0747,340.7201,space,4.6283,,340.7201,10,50,341.7191,341.7192,344.8158,space,3.0746,,0,7,7,7,1,110,50,,,,,,,,
,,613a639002c088d7e68b80a9,65af552097d7ed799e101c51,2024-01-22_23h04.27.859,bars,2023.2.3,Win32,60.24096386,657b66ea316d21385b68909f,,,,,,,,,,,344.8163,345.815,,,346.3145,346.5644,,124,124,,,,,,,,,,,,,,,,bars/032.png,bars/mask003.png,,,,,,,,,,,,9,1,,,,,,,8,3,9,4,,,,,,,,,,,345.815,346.3143,346.5644,347.9795,space,1.3994,,347.9795,1,76,348.9786,348.9787,350.7603,space,1.7619,,0,8,8,8,1,125,20,,,,,,,,
,,613a639002c088d7e68b80a9,65af552097d7ed799e101c51,2024-01-22_23h04.27.859,bars,2023.2.3,Win32,60.24096386,657b66ea316d21385b68909f,,,,,,,,,,,350.7607,351.759,,,352.2587,352.5083,,50,50,,,,,,,,,,,,,,,,bars/009.png,bars/mask005.png,,,,,,,,,,,,0,1,,,,,,,10,1,8,1,,,,,,,,,,,351.759,352.2587,352.5083,355.9717,space,3.4474,,355.9717,35,55,356.9708,356.9708,358.9021,space,1.9063,,0,9,9,9,1,15,105,,,,,,,,
,,613a639002c088d7e68b80a9,65af552097d7ed799e101c51,2024-01-22_23h04.27.859,bars,2023.2.3,Win32,60.24096386,657b66ea316d21385b68909f,,,,,,,,,,,358.9025,359.9011,,,360.4007,360.6502,,71,71,,,,,,,,,,,,,,,,bars/044.png,bars/mask007.png,,,,,,,,,,,,6,1,,,,,,,8,3,7,1,,,,,,,,,,,359.9012,360.4006,360.6502,363.4808,space,2.8254,,363.4808,4,84,364.4802,364.4803,365.9784,space,1.476,,0,10,10,10,1,75,155,,,,,,,,
,,613a639002c088d7e68b80a9,65af552097d7ed799e101c51,2024-01-22_23h04.27.859,bars,2023.2.3,Win32,60.24096386,657b66ea316d21385b68909f,,,,,,,,,,,365.9787,366.9773,,,367.4771,367.7266,,113,113,,,,,,,,,,,,,,,,bars/041.png,bars/mask000.png,,,,,,,,,,,,0,2,,,,,,,10,1,8,2,,,,,,,,,,,366.9774,367.477,367.7267,371.3731,space,3.6328,,371.3732,87,28,372.3719,372.372,373.5543,space,1.1571,,0,11,11,11,1,20,85,,,,,,,,
,,613a639002c088d7e68b80a9,65af552097d7ed799e101c51,2024-01-22_23h04.27.859,bars,2023.2.3,Win32,60.24096386,657b66ea316d21385b68909f,,,,,,,,,,,373.5546,374.5532,,,375.0529,375.3025,,163,-17,,,,,,,,,,,,,,,,bars/015.png,bars/mask002.png,,,,,,,,,,,,0,2,,,,,,,10,0,10,0,,,,,,,,,,,374.5533,375.0528,375.3027,377.7168,space,2.4027,,377.7169,53,3,378.7159,378.7159,380.3478,space,1.6075,,0,12,12,12,1,110,160,,,,,,,,
,,613a639002c088d7e68b80a9,65af552097d7ed799e101c51,2024-01-22_23h04.27.859,bars,2023.2.3,Win32,60.24096386,657b66ea316d21385b68909f,,,,,,,,,,,380.3483,381.3467,,,381.846,382.0959,,120,-60,,,,,,,,,,,,,,,,bars/018.png,bars/mask000.png,,,,,,,,,,,,0,2,,,,,,,8,2,9,2,,,,,,,,,,,381.3468,381.846,382.0959,386.0588,space,3.9477,,386.0588,30,30,387.0577,387.0578,388.273,space,1.1987,,0,13,13,13,1,150,90,,,,,,,,
,,613a639002c088d7e68b80a9,65af552097d7ed799e101c51,2024-01-22_23h04.27.859,bars,2023.2.3,Win32,60.24096386,657b66ea316d21385b68909f,,,,,,,,,,,388.2733,389.2722,,,389.7718,390.0213,,23,203,,,,,,,,,,,,,,,,bars/029.png,bars/mask005.png,,,,,,,,,,,,2,2,,,,,,,10,4,8,6,,,,,,,,,,,389.2723,389.7718,390.0214,391.9864,space,1.9481,,391.9864,67,22,392.9852,392.9852,393.9679,space,0.9627,,0,14,14,14,1,90,45,,,,,,,,
,,613a639002c088d7e68b80a9,65af552097d7ed799e101c51,2024-01-22_23h04.27.859,bars,2023.2.3,Win32,60.24096386,657b66ea316d21385b68909f,,,,,,,,,,,393.9684,394.9667,,,395.466,395.7157,,47,47,,,,,,,,,,,,,,,,bars/032.png,bars/mask003.png,,,,,,,,,,,,1,2,,,,,,,8,6,8,6,,,,,,,,,,,394.9667,395.466,395.7157,397.131,space,1.4117,,397.131,78,27,398.1302,398.1302,399.4453,space,1.3016,,0,15,15,15,1,125,20,,,,,,,,
,,613a639002c088d7e68b80a9,65af552097d7ed799e101c51,2024-01-22_23h04.27.859,bars,2023.2.3,Win32,60.24096386,657b66ea316d21385b68909f,,,,,,,,,,,399.4458,400.4444,,,400.944,401.1936,,11,191,,,,,,,,,,,,,,,,bars/022.png,bars/mask004.png,,,,,,,,,,,,6,2,,,,,,,10,8,10,9,,,,,,,,,,,400.4445,400.9439,401.1936,403.9412,space,2.7402,,403.9413,84,9,404.9403,404.9403,406.3719,space,1.4174,,0,16,16,16,1,95,20,,,,,,,,
,,613a639002c088d7e68b80a9,65af552097d7ed799e101c51,2024-01-22_23h04.27.859,bars,2023.2.3,Win32,60.24096386,657b66ea316d21385b68909f,,,,,,,,,,,406.3723,407.3711,,,407.8705,408.1203,,18,198,,,,,,,,,,,,,,,,bars/033.png,bars/mask002.png,,,,,,,,,,,,8,1,,,,,,,10,10,10,10,,,,,,,,,,,407.3711,407.8705,408.1204,412.2661,space,4.1326,,412.2662,7,43,413.2651,413.2651,414.4642,space,1.1737,,0,17,17,17,1,25,155,,,,,,,,
,,613a639002c088d7e68b80a9,65af552097d7ed799e101c51,2024-01-22_23h04.27.859,bars,2023.2.3,Win32,60.24096386,657b66ea316d21385b68909f,,,,,,,,,,,414.4646,415.4637,,,415.9625,416.2122,,56,56,,,,,,,,,,,,,,,,bars/044.png,bars/mask007.png,,,,,,,,,,,,3,1,,,,,,,8,8,9,9,,,,,,,,,,,415.4638,415.9625,416.2122,418.5932,space,2.3659,,418.5933,19,81,419.5923,419.5923,420.4581,space,0.847,,0,18,18,18,1,75,155,,,,,,,,
,,613a639002c088d7e68b80a9,65af552097d7ed799e101c51,2024-01-22_23h04.27.859,bars,2023.2.3,Win32,60.24096386,657b66ea316d21385b68909f,,,,,,,,,,,420.4585,421.4572,,,421.9567,422.2069,,160,160,,,,,,,,,,,,,,,,bars/044.png,bars/mask004.png,,,,,,,,,,,,8,2,,,,,,,6,10,5,10,,,,,,,,,,,421.4573,421.9566,422.2069,427.3845,space,5.1653,,427.3845,85,5,428.3837,428.3837,432.6961,space,4.297,,0,19,19,19,1,75,155,,,,,,,,
,,613a639002c088d7e68b80a9,65af552097d7ed799e101c51,2024-01-22_23h04.27.859,bars,2023.2.3,Win32,60.24096386,657b66ea316d21385b68909f,,,,,,,,,,,432.704,433.6951,,,434.1948,434.4442,,31,31,,,,,,,,,,,,,,,,bars/042.png,bars/mask008.png,,,,,,,,,,,,0,2,,,,,,,8,10,7,8,,,,,,,,,,,433.6951,434.1947,434.4442,436.7089,space,2.2555,,436.709,66,44,437.7078,437.7078,438.5736,space,0.8582,,0,20,20,20,1,145,75,,,,,,,,
,,613a639002c088d7e68b80a9,65af552097d7ed799e101c51,2024-01-22_23h04.27.859,bars,2023.2.3,Win32,60.24096386,657b66ea316d21385b68909f,,,,,,,,,,,438.5742,439.5728,,,440.0723,440.3218,,33,33,,,,,,,,,,,,,,,,bars/031.png,bars/mask005.png,,,,,,,,,,,,7,2,,,,,,,6,8,5,8,,,,,,,,,,,439.5728,440.0722,440.3219,441.9703,space,1.6334,,441.9704,87,2,442.9691,442.9691,443.9682,space,0.9819,,0,21,21,21,1,120,35,,,,,,,,
,,613a639002c088d7e68b80a9,65af552097d7ed799e101c51,2024-01-22_23h04.27.859,bars,2023.2.3,Win32,60.24096386,657b66ea316d21385b68909f,,,,,,,,,,,443.9685,444.9673,,,445.467,445.7165,,145,145,,,,,,,,,,,,,,,,bars/009.png,bars/mask005.png,,,,,,,,,,,,0,2,,,,,,,4,10,3,10,,,,,,,,,,,444.9673,445.4669,445.7166,448.8467,space,3.1138,,448.8467,50,40,449.8457,449.8457,451.4441,space,1.5719,,0,22,22,22,1,15,105,,,,,,,,
,,613a639002c088d7e68b80a9,65af552097d7ed799e101c51,2024-01-22_23h04.27.859,bars,2023.2.3,Win32,60.24096386,657b66ea316d21385b68909f,,,,,,,,,,,451.4444,452.4432,,,452.9427,453.1924,,19,19,,,,,,,,,,,,,,,,bars/007.png,bars/mask008.png,,,,,,,,,,,,0,1,,,,,,,2,10,2,10,,,,,,,,,,,452.4432,452.9427,453.1924,455.6734,space,2.4643,,455.6734,24,36,456.6723,456.6724,458.4209,space,1.7222,,0,23,23,23,1,175,55,,,,,,,,
,,613a639002c088d7e68b80a9,65af552097d7ed799e101c51,2024-01-22_23h04.27.859,bars,2023.2.3,Win32,60.24096386,657b66ea316d21385b68909f,,,,,,,,,,,458.4214,459.4198,,,459.9192,460.1689,,59,59,,,,,,,,,,,,,,,,bars/010.png,bars/mask001.png,,,,,,,,,,,,7,2,,,,,,,0,8,0,8,,,,,,,,,,,459.4199,459.9192,460.1689,462.7498,space,2.5762,,462.7498,74,4,463.7489,463.749,465.1476,space,1.3793,,0,24,24,24,1,165,55,,,,,,,,
,,613a639002c088d7e68b80a9,65af552097d7ed799e101c51,2024-01-22_23h04.27.859,bars,2023.2.3,Win32,60.24096386,657b66ea316d21385b68909f,,,,,,,,,,,465.1481,466.1465,,,466.6459,466.8957,,106,106,,,,,,,,,,,,,,,,bars/001.png,bars/mask000.png,,,,,,,,,,,,1,2,,,,,,,2,6,3,4,,,,,,,,,,,466.1465,466.6459,466.8957,468.2112,space,1.306,,468.2112,24,21,469.2105,469.2105,469.9762,space,0.7465,,0,25,25,25,1,130,85,,,,,,,,
,,613a639002c088d7e68b80a9,65af552097d7ed799e101c51,2024-01-22_23h04.27.859,bars,2023.2.3,Win32,60.24096386,657b66ea316d21385b68909f,,,,,,,,,,,469.9766,470.9749,,,471.4743,471.7241,,61,61,,,,,,,,,,,,,,,,bars/012.png,bars/mask008.png,,,,,,,,,,,,0,1,,,,,,,0,8,0,6,,,,,,,,,,,470.975,471.4743,471.7241,474.505,space,2.7716,,474.505,29,46,475.5038,475.5038,476.4195,space,0.8852,,0,26,26,26,1,90,15,,,,,,,,
,,613a639002c088d7e68b80a9,65af552097d7ed799e101c51,2024-01-22_23h04.27.859,bars,2023.2.3,Win32,60.24096386,657b66ea316d21385b68909f,,,,,,,,,,,476.4199,477.4185,,,477.9182,478.1678,,74,74,,,,,,,,,,,,,,,,bars/013.png,bars/mask000.png,,,,,,,,,,,,4,1,,,,,,,2,10,4,9,,,,,,,,,,,477.4185,477.9182,478.1678,480.3989,space,2.2273,,480.3989,1,64,481.3981,481.3982,482.68,space,1.2713,,0,27,27,27,1,75,10,,,,,,,,
,,613a639002c088d7e68b80a9,65af552097d7ed799e101c51,2024-01-22_23h04.27.859,bars,2023.2.3,Win32,60.24096386,657b66ea316d21385b68909f,,,,,,,,,,,482.6804,483.679,,,484.1786,484.4285,,170,170,,,,,,,,,,,,,,,,bars/044.png,bars/mask005.png,,,,,,,,,,,,5,2,,,,,,,0,8,0,9,,,,,,,,,,,483.679,484.1786,484.4286,488.2912,space,3.8459,,488.2913,85,15,489.2903,489.2904,490.3226,space,1.002,,0,28,28,28,1,75,155,,,,,,,,
,,613a639002c088d7e68b80a9,65af552097d7ed799e101c51,2024-01-22_23h04.27.859,bars,2023.2.3,Win32,60.24096386,657b66ea316d21385b68909f,,,,,,,,,,,490.3229,491.3215,,,491.8212,492.0707,,60,60,,,,,,,,,,,,,,,,bars/005.png,bars/mask008.png,,,,,,,,,,,,0,1,,,,,,,0,10,0,10,,,,,,,,,,,491.3215,491.8212,492.0708,494.1854,space,2.1009,,494.1854,50,80,495.1845,495.1846,496.0002,space,0.7981,,0,29,29,29,1,10,140,,,,,,,,
,,613a639002c088d7e68b80a9,65af552097d7ed799e101c51,2024-01-22_23h04.27.859,bars,2023.2.3,Win32,60.24096386,657b66ea316d21385b68909f,,,,,,,,,,,496.0006,496.9995,,,497.4988,497.7487,,104,104,,,,,,,,,,,,,,,,bars/046.png,bars/mask007.png,,,,,,,,,,,,3,2,,,,,,,2,8,0,9,,,,,,,,,,,496.9995,497.4987,497.7488,499.8134,space,2.0548,,499.8135,51,19,500.8121,500.8122,501.9943,space,1.1567,,0,30,30,30,1,155,85,,,,,,,,
,,613a639002c088d7e68b80a9,65af552097d7ed799e101c51,2024-01-22_23h04.27.859,bars,2023.2.3,Win32,60.24096386,657b66ea316d21385b68909f,,,,,,,,,,,501.9947,502.9934,,,503.493,503.7426,,27,27,,,,,,,,,,,,,,,,bars/036.png,bars/mask002.png,,,,,,,,,,,,4,2,,,,,,,0,6,1,5,,,,,,,,,,,502.9934,503.4929,503.7426,507.0562,space,3.2982,,507.0563,62,7,508.0551,508.0552,508.9376,space,0.8535,,0,31,31,31,1,145,20,,,,,,,,
,,613a639002c088d7e68b80a9,65af552097d7ed799e101c51,2024-01-22_23h04.27.859,bars,2023.2.3,Win32,60.24096386,657b66ea316d21385b68909f,,,,,,,,,,,508.9379,509.9366,,,510.4361,510.6859,,21,21,,,,,,,,,,,,,,,,bars/005.png,bars/mask008.png,,,,,,,,,,,,1,1,,,,,,,2,4,2,3,,,,,,,,,,,509.9367,510.4361,510.6859,512.2843,space,1.5848,,512.2843,11,61,513.2835,513.2835,514.5153,space,1.219,,0,32,32,32,1,10,140,,,,,,,,
,,613a639002c088d7e68b80a9,65af552097d7ed799e101c51,2024-01-22_23h04.27.859,bars,2023.2.3,Win32,60.24096386,657b66ea316d21385b68909f,,,,,,,,,,,514.5157,515.5143,,,516.0143,516.2636,,116,116,,,,,,,,,,,,,,,,bars/025.png,bars/mask005.png,,,,,,,,,,,,3,1,,,,,,,4,2,4,2,,,,,,,,,,,515.5143,516.0142,516.2637,518.6447,space,2.3647,,518.6448,11,76,519.6437,519.6437,520.5097,space,0.8478,,0,33,33,33,1,105,40,,,,,,,,
,,613a639002c088d7e68b80a9,65af552097d7ed799e101c51,2024-01-22_23h04.27.859,bars,2023.2.3,Win32,60.24096386,657b66ea316d21385b68909f,,,,,,,,,,,520.5099,521.5091,,,522.008,522.2576,,67,67,,,,,,,,,,,,,,,,bars/039.png,bars/mask003.png,,,,,,,,,,,,0,2,,,,,,,6,0,5,1,,,,,,,,,,,521.5092,522.008,522.2576,524.589,space,2.3235,,524.589,72,38,525.588,525.588,526.2206,space,0.6189,,0,34,34,34,1,175,105,,,,,,,,
,,613a639002c088d7e68b80a9,65af552097d7ed799e101c51,2024-01-22_23h04.27.859,bars,2023.2.3,Win32,60.24096386,657b66ea316d21385b68909f,,,,,,,,,,,526.2211,527.2198,,,527.7193,527.9688,,113,113,,,,,,,,,,,,,,,,bars/016.png,bars/mask009.png,,,,,,,,,,,,0,2,,,,,,,4,2,2,4,,,,,,,,,,,527.2198,527.7193,527.9688,528.7846,space,0.7983,,528.7846,73,52,529.7836,529.7837,530.7162,space,0.9201,,0,35,35,35,1,40,165,,,,,,,,
,,613a639002c088d7e68b80a9,65af552097d7ed799e101c51,2024-01-22_23h04.27.859,bars,2023.2.3,Win32,60.24096386,657b66ea316d21385b68909f,,,,,,,,,,,530.7166,531.7151,,,532.2146,532.4648,,169,-11,,,,,,,,,,,,,,,,bars/000.png,bars/mask003.png,,,,,,,,,,,,1,2,,,,,,,2,4,2,4,,,,,,,,,,,531.7152,532.2146,532.4648,535.5947,space,3.1127,,535.5947,51,24,536.5935,536.5935,537.2762,space,0.6563,,0,36,36,36,1,40,145,,,,,,,,
,,613a639002c088d7e68b80a9,65af552097d7ed799e101c51,2024-01-22_23h04.27.859,bars,2023.2.3,Win32,60.24096386,657b66ea316d21385b68909f,,,,,,,,,,,537.2766,538.2754,,,538.775,539.0246,,158,-22,,,,,,,,,,,,,,,,bars/008.png,bars/mask009.png,,,,,,,,,,,,1,2,,,,,,,4,2,4,3,,,,,,,,,,,538.2754,538.7749,539.0246,542.2547,space,3.22,,542.2547,48,22,543.2538,543.2539,544.236,space,0.9672,,0,37,37,37,1,110,0,,,,,,,,
,,613a639002c088d7e68b80a9,65af552097d7ed799e101c51,2024-01-22_23h04.27.859,bars,2023.2.3,Win32,60.24096386,657b66ea316d21385b68909f,,,,,,,,,,,544.2363,545.2353,,,545.7351,545.9843,,82,82,,,,,,,,,,,,,,,,bars/018.png,bars/mask007.png,,,,,,,,,,,,4,2,,,,,,,6,4,6,5,,,,,,,,,,,545.2353,545.735,545.9843,547.3,space,1.3063,,547.3,68,8,548.2989,548.2989,549.4812,space,1.1597,,0,38,38,38,1,150,90,,,,,,,,
,,613a639002c088d7e68b80a9,65af552097d7ed799e101c51,2024-01-22_23h04.27.859,bars,2023.2.3,Win32,60.24096386,657b66ea316d21385b68909f,,,,,,,,,,,549.4817,550.4801,,,550.9797,551.2295,,102,102,,,,,,,,,,,,,,,,bars/009.png,bars/mask001.png,,,,,,,,,,,,6,2,,,,,,,4,6,6,7,,,,,,,,,,,550.4801,550.9797,551.2296,554.7424,space,3.5005,,554.7424,87,3,555.7416,555.7416,556.6911,space,0.9318,,0,39,39,39,1,15,105,,,,,,,,
,,613a639002c088d7e68b80a9,65af552097d7ed799e101c51,2024-01-22_23h04.27.859,bars,2023.2.3,Win32,60.24096386,657b66ea316d21385b68909f,,,,,,,,,,,556.6915,557.6896,,,558.1891,558.4389,,18,198,,,,,,,,,,,,,,,,bars/014.png,bars/mask005.png,,,,,,,,,,,,2,2,,,,,,,6,4,7,4,,,,,,,,,,,557.6896,558.1891,558.4389,562.8182,space,4.3684,,562.8182,62,18,563.8168,563.8168,564.4997,space,0.6661,,0,40,40,40,1,80,0,,,,,,,,
,,613a639002c088d7e68b80a9,65af552097d7ed799e101c51,2024-01-22_23h04.27.859,bars,2023.2.3,Win32,60.24096386,657b66ea316d21385b68909f,,,,,,,,,,,564.5001,565.4983,,,565.9982,566.2476,,36,36,,,,,,,,,,,,,,,,bars/003.png,bars/mask003.png,,,,,,,,,,,,3,1,,,,,,,4,2,5,1,,,,,,,,,,,565.4984,565.9982,566.2477,568.945,space,2.6937,,568.9451,11,76,569.944,569.944,570.8933,space,0.9214,,0,41,41,41,1,25,140,,,,,,,,
,,613a639002c088d7e68b80a9,65af552097d7ed799e101c51,2024-01-22_23h04.27.859,bars,2023.2.3,Win32,60.24096386,657b66ea316d21385b68909f,,,,,,,,,,,570.8938,571.8921,,,572.3918,572.6416,,18,198,,,,,,,,,,,,,,,,bars/025.png,bars/mask006.png,,,,,,,,,,,,1,2,,,,,,,2,4,3,4,,,,,,,,,,,571.8921,572.3918,572.6417,575.4887,space,2.8323,,575.4888,87,22,576.4875,576.4875,577.237,space,0.7248,,0,42,42,42,1,105,40,,,,,,,,
,,613a639002c088d7e68b80a9,65af552097d7ed799e101c51,2024-01-22_23h04.27.859,bars,2023.2.3,Win32,60.24096386,657b66ea316d21385b68909f,,,,,,,,,,,577.2373,578.2361,,,578.7356,578.9855,,169,-11,,,,,,,,,,,,,,,,bars/047.png,bars/mask007.png,,,,,,,,,,,,1,1,,,,,,,4,2,5,1,,,,,,,,,,,578.2361,578.7356,578.9855,580.5339,space,1.5314,,580.534,26,81,581.5326,581.5326,582.4318,space,0.8806,,0,43,43,43,1,15,70,,,,,,,,
,,613a639002c088d7e68b80a9,65af552097d7ed799e101c51,2024-01-22_23h04.27.859,bars,2023.2.3,Win32,60.24096386,657b66ea316d21385b68909f,,,,,,,,,,,582.4321,583.4307,,,583.9304,584.18,,37,37,,,,,,,,,,,,,,,,bars/007.png,bars/mask004.png,,,,,,,,,,,,0,2,,,,,,,6,0,5,0,,,,,,,,,,,583.4308,583.9304,584.18,585.8785,space,1.6917,,585.8785,42,18,586.8775,586.8775,587.4768,space,0.5826,,0,44,44,44,1,175,55,,,,,,,,
,,613a639002c088d7e68b80a9,65af552097d7ed799e101c51,2024-01-22_23h04.27.859,bars,2023.2.3,Win32,60.24096386,657b66ea316d21385b68909f,,,,,,,,,,,587.4771,588.4759,,,588.9757,589.2253,,102,-78,,,,,,,,,,,,,,,,bars/002.png,bars/mask007.png,,,,,,,,,,,,0,2,,,,,,,8,0,9,0,,,,,,,,,,,588.4759,588.9756,589.2253,593.2711,space,4.042,,593.2711,28,17,594.2701,594.2702,595.3859,space,1.0946,,0,45,45,45,1,130,85,,,,,,,,
,,613a639002c088d7e68b80a9,65af552097d7ed799e101c51,2024-01-22_23h04.27.859,bars,2023.2.3,Win32,60.24096386,657b66ea316d21385b68909f,,,,,,,,,,,595.3864,596.3847,,,596.8842,597.1339,,27,27,,,,,,,,,,,,,,,,bars/045.png,bars/mask009.png,,,,,,,,,,,,0,2,,,,,,,6,0,8,0,,,,,,,,,,,596.3848,596.8841,597.1339,599.3986,space,2.2483,,599.3986,73,17,600.3974,600.3974,601.2633,space,0.8396,,0,46,46,46,1,100,10,,,,,,,,
,,613a639002c088d7e68b80a9,65af552097d7ed799e101c51,2024-01-22_23h04.27.859,bars,2023.2.3,Win32,60.24096386,657b66ea316d21385b68909f,,,,,,,,,,,601.2637,602.2622,,,602.7618,603.0116,,70,70,,,,,,,,,,,,,,,,bars/015.png,bars/mask005.png,,,,,,,,,,,,0,1,,,,,,,8,2,8,3,,,,,,,,,,,602.2622,602.7618,603.0116,604.3102,space,1.294,,604.3102,40,90,605.3093,605.3094,606.0919,space,0.7606,,0,47,47,47,1,110,160,,,,,,,,
,,613a639002c088d7e68b80a9,65af552097d7ed799e101c51,2024-01-22_23h04.27.859,bars,2023.2.3,Win32,60.24096386,657b66ea316d21385b68909f,,,,,,,,,,,606.0922,607.0911,,,607.5902,607.8405,,167,167,,,,,,,,,,,,,,,,bars/033.png,bars/mask003.png,,,,,,,,,,,,2,2,,,,,,,10,4,10,3,,,,,,,,,,,607.0911,607.5902,607.8405,611.0535,space,3.1963,,611.0536,38,12,612.0527,612.0527,614.7502,space,2.6709,,0,48,48,48,1,25,155,,,,,,,,
,,613a639002c088d7e68b80a9,65af552097d7ed799e101c51,2024-01-22_23h04.27.859,bars,2023.2.3,Win32,60.24096386,657b66ea316d21385b68909f,,,,,,,,,,,614.7508,615.7493,,,616.2485,616.4987,,73,73,,,,,,,,,,,,,,,,bars/029.png,bars/mask002.png,,,,,,,,,,,,4,1,,,,,,,10,2,10,2,,,,,,,,,,,615.7493,616.2484,616.4988,619.5454,space,3.0372,,619.5454,17,28,620.5441,620.5441,621.1436,space,0.5838,,0,49,49,49,1,90,45,,,,,,,,
,,613a639002c088d7e68b80a9,65af552097d7ed799e101c51,2024-01-22_23h04.27.859,bars,2023.2.3,Win32,60.24096386,657b66ea316d21385b68909f,,,,,,,,,,,,,,,,,,,,,,,,,,,,,,,,,,,,,,,,,,,,,,,,,,,,,,,,,,,,,,,,,,,,,,,,,,,,,,,,,,,,,,,,,,,,,621.1444,693.7837,0,0,0,3,1,sequence_tables/blk046.csv
,,613a639002c088d7e68b80a9,65af552097d7ed799e101c51,2024-01-22_23h04.27.859,bars,2023.2.3,Win32,60.24096386,657b66ea316d21385b68909f,,,,,,,,,,,727.0946,728.0888,,,728.588,728.8375,,111,111,,,,,,,,,,,,,,,,bars/037.png,bars/mask003.png,,,,,,,,,,,,7,2,,,,,,,8,8,9,9,,,,,,693.7931,727.0893,space,33.2782,,728.0889,728.588,728.8375,731.9345,space,3.081,,731.9346,39,6,732.9335,732.9335,732.944,,,,0,0,0,0,1,150,105,,,,,,,,
,,613a639002c088d7e68b80a9,65af552097d7ed799e101c51,2024-01-22_23h04.27.859,bars,2023.2.3,Win32,60.24096386,657b66ea316d21385b68909f,,,,,,,,,,,732.9442,733.9325,,,734.432,734.6817,,66,66,,,,,,,,,,,,,,,,bars/011.png,bars/mask007.png,,,,,,,,,,,,2,2,,,,,,,10,6,8,6,,,,,,,,,,,733.9325,734.432,734.6817,737.5623,space,2.8683,,737.5623,86,19,738.5613,738.5613,738.5692,,,,0,1,1,1,1,160,85,,,,,,,,
,,613a639002c088d7e68b80a9,65af552097d7ed799e101c51,2024-01-22_23h04.27.859,bars,2023.2.3,Win32,60.24096386,657b66ea316d21385b68909f,,,,,,,,,,,738.5694,739.5604,,,740.0599,740.3099,,156,156,,,,,,,,,,,,,,,,bars/039.png,bars/mask006.png,,,,,,,,,,,,4,1,,,,,,,8,8,10,8,,,,,,,,,,,739.5604,740.0599,740.31,743.5064,space,3.1921,,743.5064,19,51,744.5055,744.5055,744.5142,,,,0,2,2,2,1,175,105,,,,,,,,
,,613a639002c088d7e68b80a9,65af552097d7ed799e101c51,2024-01-22_23h04.27.859,bars,2023.2.3,Win32,60.24096386,657b66ea316d21385b68909f,,,,,,,,,,,744.5143,745.5046,,,746.004,746.2536,,59,59,,,,,,,,,,,,,,,,bars/041.png,bars/mask001.png,,,,,,,,,,,,1,2,,,,,,,6,6,4,7,,,,,,,,,,,745.5046,746.0039,746.2536,749.4672,space,3.2106,,749.4672,39,26,750.4662,750.4662,750.4748,,,,0,3,3,3,1,20,85,,,,,,,,
,,613a639002c088d7e68b80a9,65af552097d7ed799e101c51,2024-01-22_23h04.27.859,bars,2023.2.3,Win32,60.24096386,657b66ea316d21385b68909f,,,,,,,,,,,750.475,751.4654,,,751.9647,752.2145,,152,152,,,,,,,,,,,,,,,,bars/001.png,bars/mask006.png,,,,,,,,,,,,1,1,,,,,,,4,8,5,7,,,,,,,,,,,751.4654,751.9647,752.2145,754.3958,space,2.1668,,754.3958,22,67,755.3946,755.3946,755.4097,,,,0,4,4,4,1,130,85,,,,,,,,
,,613a639002c088d7e68b80a9,65af552097d7ed799e101c51,2024-01-22_23h04.27.859,bars,2023.2.3,Win32,60.24096386,657b66ea316d21385b68909f,,,,,,,,,,,755.4099,756.4105,,,756.9099,757.1598,,41,41,,,,,,,,,,,,,,,,bars/046.png,bars/mask003.png,,,,,,,,,,,,0,2,,,,,,,2,6,1,6,,,,,,,,,,,756.4105,756.9099,757.1598,759.724,space,2.5529,,759.724,66,44,760.7228,760.7228,760.7243,,,,0,5,5,5,1,155,85,,,,,,,,
,,613a639002c088d7e68b80a9,65af552097d7ed799e101c51,2024-01-22_23h04.27.859,bars,2023.2.3,Win32,60.24096386,657b66ea316d21385b68909f,,,,,,,,,,,760.7246,761.7219,,,762.2219,762.4713,,46,46,,,,,,,,,,,,,,,,bars/022.png,bars/mask000.png,,,,,,,,,,,,1,2,,,,,,,4,4,3,6,,,,,,,,,,,761.7219,762.2218,762.4714,766.1175,space,3.6413,,766.1176,49,26,767.1166,767.1166,767.125,,,,0,6,6,6,1,95,20,,,,,,,,
,,613a639002c088d7e68b80a9,65af552097d7ed799e101c51,2024-01-22_23h04.27.859,bars,2023.2.3,Win32,60.24096386,657b66ea316d21385b68909f,,,,,,,,,,,767.1251,768.1154,,,768.6152,768.8647,,163,-17,,,,,,,,,,,,,,,,bars/045.png,bars/mask004.png,,,,,,,,,,,,0,2,,,,,,,2,2,1,1,,,,,,,,,,,768.1154,768.6152,768.8647,771.8288,space,2.9502,,771.8288,63,27,772.8277,772.8278,772.8407,,,,0,7,7,7,1,100,10,,,,,,,,
,,613a639002c088d7e68b80a9,65af552097d7ed799e101c51,2024-01-22_23h04.27.859,bars,2023.2.3,Win32,60.24096386,657b66ea316d21385b68909f,,,,,,,,,,,772.8409,773.8432,,,774.3427,774.5924,,97,97,,,,,,,,,,,,,,,,bars/041.png,bars/mask006.png,,,,,,,,,,,,2,2,,,,,,,4,4,3,3,,,,,,,,,,,773.8432,774.3426,774.5924,778.1556,space,3.5576,,778.1556,77,12,779.1549,779.1549,779.1693,,,,0,8,8,8,1,20,85,,,,,,,,
,,613a639002c088d7e68b80a9,65af552097d7ed799e101c51,2024-01-22_23h04.27.859,bars,2023.2.3,Win32,60.24096386,657b66ea316d21385b68909f,,,,,,,,,,,779.1695,780.1702,,,780.6697,780.9197,,35,35,,,,,,,,,,,,,,,,bars/031.png,bars/mask005.png,,,,,,,,,,,,7,2,,,,,,,2,6,3,7,,,,,,,,,,,780.1703,780.6697,780.9197,782.3684,space,1.4406,,782.3685,85,0,783.3674,783.3674,783.3764,,,,0,9,9,9,1,120,35,,,,,,,,
,,613a639002c088d7e68b80a9,65af552097d7ed799e101c51,2024-01-22_23h04.27.859,bars,2023.2.3,Win32,60.24096386,657b66ea316d21385b68909f,,,,,,,,,,,783.3765,784.3666,,,784.8656,785.1156,,155,155,,,,,,,,,,,,,,,,bars/036.png,bars/mask009.png,,,,,,,,,,,,3,1,,,,,,,4,8,4,8,,,,,,,,,,,784.3666,784.8656,785.1156,786.431,space,1.299,,786.431,10,45,787.4299,787.4299,787.4316,,,,0,10,10,10,1,145,20,,,,,,,,
,,613a639002c088d7e68b80a9,65af552097d7ed799e101c51,2024-01-22_23h04.27.859,bars,2023.2.3,Win32,60.24096386,657b66ea316d21385b68909f,,,,,,,,,,,787.4319,788.4289,,,788.9283,789.1781,,56,56,,,,,,,,,,,,,,,,bars/034.png,bars/mask007.png,,,,,,,,,,,,4,2,,,,,,,6,6,6,6,,,,,,,,,,,788.4289,788.9283,789.1781,791.2426,space,2.0574,,791.2427,69,9,792.2419,792.2419,792.2441,,,,0,11,11,11,1,125,65,,,,,,,,
,,613a639002c088d7e68b80a9,65af552097d7ed799e101c51,2024-01-22_23h04.27.859,bars,2023.2.3,Win32,60.24096386,657b66ea316d21385b68909f,,,,,,,,,,,792.2445,793.241,,,793.7404,793.9903,,27,27,,,,,,,,,,,,,,,,bars/031.png,bars/mask004.png,,,,,,,,,,,,2,2,,,,,,,4,4,3,3,,,,,,,,,,,793.241,793.7404,793.9904,796.088,space,2.0869,,796.0881,87,8,797.0872,797.0872,797.0956,,,,0,12,12,12,1,120,35,,,,,,,,
,,613a639002c088d7e68b80a9,65af552097d7ed799e101c51,2024-01-22_23h04.27.859,bars,2023.2.3,Win32,60.24096386,657b66ea316d21385b68909f,,,,,,,,,,,797.0957,798.0859,,,798.5856,798.8352,,62,62,,,,,,,,,,,,,,,,bars/034.png,bars/mask002.png,,,,,,,,,,,,5,2,,,,,,,2,6,1,6,,,,,,,,,,,798.0859,798.5856,798.8352,801.5327,space,2.6937,,801.5327,63,3,802.5317,802.5317,802.5398,,,,0,13,13,13,1,125,65,,,,,,,,
,,613a639002c088d7e68b80a9,65af552097d7ed799e101c51,2024-01-22_23h04.27.859,bars,2023.2.3,Win32,60.24096386,657b66ea316d21385b68909f,,,,,,,,,,,802.54,803.5307,,,804.0304,804.2799,,158,158,,,,,,,,,,,,,,,,bars/032.png,bars/mask002.png,,,,,,,,,,,,0,1,,,,,,,0,8,0,8,,,,,,,,,,,803.5309,804.0303,804.2799,805.845,space,1.5485,,805.845,33,42,806.8441,806.8441,806.8596,,,,0,14,14,14,1,125,20,,,,,,,,
,,613a639002c088d7e68b80a9,65af552097d7ed799e101c51,2024-01-22_23h04.27.859,bars,2023.2.3,Win32,60.24096386,657b66ea316d21385b68909f,,,,,,,,,,,806.8598,807.8598,,,808.3591,808.6093,,169,-11,,,,,,,,,,,,,,,,bars/020.png,bars/mask008.png,,,,,,,,,,,,6,2,,,,,,,0,6,0,6,,,,,,,,,,,807.8598,808.3591,808.6093,811.756,space,3.1386,,811.756,54,1,812.7547,812.7548,812.7637,,,,0,15,15,15,1,115,170,,,,,,,,
,,613a639002c088d7e68b80a9,65af552097d7ed799e101c51,2024-01-22_23h04.27.859,bars,2023.2.3,Win32,60.24096386,657b66ea316d21385b68909f,,,,,,,,,,,812.7639,813.7539,,,814.2534,814.5031,,51,51,,,,,,,,,,,,,,,,bars/010.png,bars/mask007.png,,,,,,,,,,,,8,2,,,,,,,2,8,3,9,,,,,,,,,,,813.7539,814.2534,814.5031,815.8855,space,1.3652,,815.8855,66,4,816.8842,816.8842,816.8925,,,,0,16,16,16,1,165,55,,,,,,,,
,,613a639002c088d7e68b80a9,65af552097d7ed799e101c51,2024-01-22_23h04.27.859,bars,2023.2.3,Win32,60.24096386,657b66ea316d21385b68909f,,,,,,,,,,,816.8927,817.883,,,818.3827,818.6324,,47,47,,,,,,,,,,,,,,,,bars/034.png,bars/mask007.png,,,,,,,,,,,,4,2,,,,,,,0,10,1,10,,,,,,,,,,,817.8831,818.3827,818.6324,820.5973,space,1.9482,,820.5974,78,18,821.5962,821.5962,821.6041,,,,0,17,17,17,1,125,65,,,,,,,,
,,613a639002c088d7e68b80a9,65af552097d7ed799e101c51,2024-01-22_23h04.27.859,bars,2023.2.3,Win32,60.24096386,657b66ea316d21385b68909f,,,,,,,,,,,821.6042,822.5952,,,823.0947,823.3443,,80,80,,,,,,,,,,,,,,,,bars/018.png,bars/mask006.png,,,,,,,,,,,,5,2,,,,,,,2,8,1,7,,,,,,,,,,,822.5952,823.0947,823.3444,825.2593,space,1.912,,825.2593,70,10,826.2585,826.2585,826.2593,,,,0,18,18,18,1,150,90,,,,,,,,
,,613a639002c088d7e68b80a9,65af552097d7ed799e101c51,2024-01-22_23h04.27.859,bars,2023.2.3,Win32,60.24096386,657b66ea316d21385b68909f,,,,,,,,,,,826.2596,827.2571,,,827.7569,828.0068,,34,34,,,,,,,,,,,,,,,,bars/003.png,bars/mask004.png,,,,,,,,,,,,0,1,,,,,,,0,6,0,5,,,,,,,,,,,827.2571,827.7569,828.0069,831.6197,space,3.5957,,831.6197,9,74,832.6188,832.6188,832.6277,,,,0,19,19,19,1,25,140,,,,,,,,
,,613a639002c088d7e68b80a9,65af552097d7ed799e101c51,2024-01-22_23h04.27.859,bars,2023.2.3,Win32,60.24096386,657b66ea316d21385b68909f,,,,,,,,,,,832.6278,833.6179,,,834.1177,834.3671,,152,152,,,,,,,,,,,,,,,,bars/016.png,bars/mask006.png,,,,,,,,,,,,5,2,,,,,,,2,8,2,8,,,,,,,,,,,833.6179,834.1177,834.3671,836.6147,space,2.2366,,836.6148,68,13,837.6136,837.6137,837.6225,,,,0,20,20,20,1,40,165,,,,,,,,
,,613a639002c088d7e68b80a9,65af552097d7ed799e101c51,2024-01-22_23h04.27.859,bars,2023.2.3,Win32,60.24096386,657b66ea316d21385b68909f,,,,,,,,,,,837.6227,838.6126,,,839.1123,839.3621,,52,232,,,,,,,,,,,,,,,,bars/022.png,bars/mask001.png,,,,,,,,,,,,0,2,,,,,,,4,10,5,10,,,,,,,,,,,838.6126,839.1123,839.3621,842.959,space,3.5918,,842.959,43,32,843.9576,843.9577,843.9656,,,,0,21,21,21,1,95,20,,,,,,,,
,,613a639002c088d7e68b80a9,65af552097d7ed799e101c51,2024-01-22_23h04.27.859,bars,2023.2.3,Win32,60.24096386,657b66ea316d21385b68909f,,,,,,,,,,,843.9659,844.9564,,,845.456,845.7056,,143,143,,,,,,,,,,,,,,,,bars/044.png,bars/mask002.png,,,,,,,,,,,,5,2,,,,,,,6,8,6,8,,,,,,,,,,,844.9566,845.456,845.7057,851.134,space,5.412,,851.134,68,12,852.1327,852.1327,852.1469,,,,0,22,22,22,1,75,155,,,,,,,,
,,613a639002c088d7e68b80a9,65af552097d7ed799e101c51,2024-01-22_23h04.27.859,bars,2023.2.3,Win32,60.24096386,657b66ea316d21385b68909f,,,,,,,,,,,852.1472,853.1485,,,853.6481,853.8979,,144,144,,,,,,,,,,,,,,,,bars/001.png,bars/mask002.png,,,,,,,,,,,,4,1,,,,,,,8,10,7,10,,,,,,,,,,,853.1485,853.6481,853.898,855.6792,space,1.7654,,855.6792,14,59,856.6782,856.6782,856.68,,,,0,23,23,23,1,130,85,,,,,,,,
,,613a639002c088d7e68b80a9,65af552097d7ed799e101c51,2024-01-22_23h04.27.859,bars,2023.2.3,Win32,60.24096386,657b66ea316d21385b68909f,,,,,,,,,,,856.6802,857.6774,,,858.1769,858.4265,,106,106,,,,,,,,,,,,,,,,bars/041.png,bars/mask004.png,,,,,,,,,,,,3,2,,,,,,,10,10,10,9,,,,,,,,,,,857.6774,858.1769,858.4265,861.3737,space,2.9303,,861.3737,86,21,862.373,862.373,862.3824,,,,0,24,24,24,1,20,85,,,,,,,,
,,613a639002c088d7e68b80a9,65af552097d7ed799e101c51,2024-01-22_23h04.27.859,bars,2023.2.3,Win32,60.24096386,657b66ea316d21385b68909f,,,,,,,,,,,862.3825,863.3716,,,863.8713,864.1212,,148,148,,,,,,,,,,,,,,,,bars/048.png,bars/mask006.png,,,,,,,,,,,,1,2,,,,,,,10,10,9,9,,,,,,,,,,,863.3717,863.8713,864.1212,866.5852,space,2.4553,,866.5852,82,27,867.5841,867.5841,867.5927,,,,0,25,25,25,1,50,175,,,,,,,,
,,613a639002c088d7e68b80a9,65af552097d7ed799e101c51,2024-01-22_23h04.27.859,bars,2023.2.3,Win32,60.24096386,657b66ea316d21385b68909f,,,,,,,,,,,867.5929,868.5832,,,869.083,869.3324,,122,122,,,,,,,,,,,,,,,,bars/037.png,bars/mask004.png,,,,,,,,,,,,4,2,,,,,,,8,10,8,10,,,,,,,,,,,868.5832,869.083,869.3324,873.6948,space,4.3581,,873.6949,28,17,874.6938,874.6938,874.702,,,,0,26,26,26,1,150,105,,,,,,,,
,,613a639002c088d7e68b80a9,65af552097d7ed799e101c51,2024-01-22_23h04.27.859,bars,2023.2.3,Win32,60.24096386,657b66ea316d21385b68909f,,,,,,,,,,,874.7022,875.6928,,,876.1923,876.442,,104,-76,,,,,,,,,,,,,,,,bars/037.png,bars/mask002.png,,,,,,,,,,,,8,2,,,,,,,6,8,7,8,,,,,,,,,,,875.6928,876.1923,876.4421,880.6713,space,4.2241,,880.6714,46,1,881.6705,881.6705,881.6784,,,,0,27,27,27,1,150,105,,,,,,,,
,,613a639002c088d7e68b80a9,65af552097d7ed799e101c51,2024-01-22_23h04.27.859,bars,2023.2.3,Win32,60.24096386,657b66ea316d21385b68909f,,,,,,,,,,,881.6786,882.6693,,,883.1691,883.4186,,102,102,,,,,,,,,,,,,,,,bars/025.png,bars/mask004.png,,,,,,,,,,,,4,1,,,,,,,4,6,4,6,,,,,,,,,,,882.6693,883.1691,883.4186,887.015,space,3.5927,,887.0151,3,62,888.014,888.014,888.0226,,,,0,28,28,28,1,105,40,,,,,,,,
,,613a639002c088d7e68b80a9,65af552097d7ed799e101c51,2024-01-22_23h04.27.859,bars,2023.2.3,Win32,60.24096386,657b66ea316d21385b68909f,,,,,,,,,,,888.0228,889.0131,,,889.5127,889.7625,,118,118,,,,,,,,,,,,,,,,bars/039.png,bars/mask004.png,,,,,,,,,,,,2,2,,,,,,,6,4,6,4,,,,,,,,,,,889.0131,889.5126,889.7625,891.9103,space,2.1366,,891.9104,57,13,892.9093,892.9094,892.9186,,,,0,29,29,29,1,175,105,,,,,,,,
,,613a639002c088d7e68b80a9,65af552097d7ed799e101c51,2024-01-22_23h04.27.859,bars,2023.2.3,Win32,60.24096386,657b66ea316d21385b68909f,,,,,,,,,,,892.9188,893.9082,,,894.4081,894.6577,,69,69,,,,,,,,,,,,,,,,bars/035.png,bars/mask004.png,,,,,,,,,,,,5,2,,,,,,,8,6,10,7,,,,,,,,,,,893.9083,894.4081,894.6578,897.4217,space,2.7471,,897.4218,74,9,898.4205,898.4205,898.4285,,,,0,30,30,30,1,175,60,,,,,,,,
,,613a639002c088d7e68b80a9,65af552097d7ed799e101c51,2024-01-22_23h04.27.859,bars,2023.2.3,Win32,60.24096386,657b66ea316d21385b68909f,,,,,,,,,,,898.4286,899.4197,,,899.9193,900.1688,,153,-27,,,,,,,,,,,,,,,,bars/016.png,bars/mask006.png,,,,,,,,,,,,2,2,,,,,,,6,4,6,4,,,,,,,,,,,899.4197,899.9192,900.1688,904.1649,space,3.9845,,904.165,67,12,905.1641,905.1641,905.172,,,,0,31,31,31,1,40,165,,,,,,,,
,,613a639002c088d7e68b80a9,65af552097d7ed799e101c51,2024-01-22_23h04.27.859,bars,2023.2.3,Win32,60.24096386,657b66ea316d21385b68909f,,,,,,,,,,,905.1723,906.1629,,,906.6623,906.9121,,76,76,,,,,,,,,,,,,,,,bars/037.png,bars/mask008.png,,,,,,,,,,,,0,2,,,,,,,8,2,7,3,,,,,,,,,,,906.1629,906.6623,906.9121,908.3775,space,1.4578,,908.3775,74,29,909.3766,909.3766,909.3845,,,,0,32,32,32,1,150,105,,,,,,,,
,,613a639002c088d7e68b80a9,65af552097d7ed799e101c51,2024-01-22_23h04.27.859,bars,2023.2.3,Win32,60.24096386,657b66ea316d21385b68909f,,,,,,,,,,,909.3847,910.3754,,,910.8751,911.1245,,160,160,,,,,,,,,,,,,,,,bars/023.png,bars/mask003.png,,,,,,,,,,,,0,1,,,,,,,10,4,9,5,,,,,,,,,,,910.3754,910.8751,911.1245,915.8369,space,4.7039,,915.8369,40,45,916.8361,916.8361,916.8488,,,,0,33,33,33,1,20,115,,,,,,,,
,,613a639002c088d7e68b80a9,65af552097d7ed799e101c51,2024-01-22_23h04.27.859,bars,2023.2.3,Win32,60.24096386,657b66ea316d21385b68909f,,,,,,,,,,,916.849,917.8514,,,918.351,918.6006,,76,76,,,,,,,,,,,,,,,,bars/009.png,bars/mask002.png,,,,,,,,,,,,0,2,,,,,,,10,6,10,7,,,,,,,,,,,917.8514,918.351,918.6006,921.2814,space,2.6746,,921.2814,61,29,922.2803,922.2803,922.2891,,,,0,34,34,34,1,15,105,,,,,,,,
,,613a639002c088d7e68b80a9,65af552097d7ed799e101c51,2024-01-22_23h04.27.859,bars,2023.2.3,Win32,60.24096386,657b66ea316d21385b68909f,,,,,,,,,,,922.2893,923.2792,,,923.779,924.0286,,165,-15,,,,,,,,,,,,,,,,bars/003.png,bars/mask008.png,,,,,,,,,,,,1,2,,,,,,,8,8,9,9,,,,,,,,,,,923.2793,923.7789,924.0286,927.4754,space,3.4332,,927.4754,40,25,928.4741,928.4741,928.4821,,,,0,35,35,35,1,25,140,,,,,,,,
,,613a639002c088d7e68b80a9,65af552097d7ed799e101c51,2024-01-22_23h04.27.859,bars,2023.2.3,Win32,60.24096386,657b66ea316d21385b68909f,,,,,,,,,,,928.4823,929.4731,,,929.9726,930.2225,,102,102,,,,,,,,,,,,,,,,bars/006.png,bars/mask006.png,,,,,,,,,,,,6,2,,,,,,,10,6,10,6,,,,,,,,,,,929.4731,929.9726,930.2226,933.3693,space,3.1426,,933.3694,67,2,934.3685,934.3686,934.3765,,,,0,36,36,36,1,35,100,,,,,,,,
,,613a639002c088d7e68b80a9,65af552097d7ed799e101c51,2024-01-22_23h04.27.859,bars,2023.2.3,Win32,60.24096386,657b66ea316d21385b68909f,,,,,,,,,,,934.3767,935.3675,,,935.867,936.1167,,59,59,,,,,,,,,,,,,,,,bars/039.png,bars/mask003.png,,,,,,,,,,,,0,2,,,,,,,10,8,10,8,,,,,,,,,,,935.3675,935.867,936.1167,938.3649,space,2.2395,,938.365,64,46,939.3635,939.3635,939.3715,,,,0,37,37,37,1,175,105,,,,,,,,
,,613a639002c088d7e68b80a9,65af552097d7ed799e101c51,2024-01-22_23h04.27.859,bars,2023.2.3,Win32,60.24096386,657b66ea316d21385b68909f,,,,,,,,,,,939.3717,940.3624,,,940.8619,941.1117,,162,162,,,,,,,,,,,,,,,,bars/003.png,bars/mask006.png,,,,,,,,,,,,3,2,,,,,,,8,10,8,10,,,,,,,,,,,940.3624,940.8619,941.1118,943.0101,space,1.8863,,943.0101,43,22,944.0089,944.0089,944.0095,,,,0,38,38,38,1,25,140,,,,,,,,
,,613a639002c088d7e68b80a9,65af552097d7ed799e101c51,2024-01-22_23h04.27.859,bars,2023.2.3,Win32,60.24096386,657b66ea316d21385b68909f,,,,,,,,,,,944.01,945.0082,,,945.5076,945.7573,,96,96,,,,,,,,,,,,,,,,bars/021.png,bars/mask000.png,,,,,,,,,,,,1,2,,,,,,,10,8,10,9,,,,,,,,,,,945.0082,945.5076,945.7573,948.1884,space,2.4232,,948.1885,59,26,949.1872,949.1873,949.198,,,,0,39,39,39,1,155,70,,,,,,,,
,,613a639002c088d7e68b80a9,65af552097d7ed799e101c51,2024-01-22_23h04.27.859,bars,2023.2.3,Win32,60.24096386,657b66ea316d21385b68909f,,,,,,,,,,,949.1982,950.1863,,,950.6858,950.9353,,71,71,,,,,,,,,,,,,,,,bars/011.png,bars/mask003.png,,,,,,,,,,,,3,2,,,,,,,10,6,9,6,,,,,,,,,,,950.1863,950.6858,950.9354,955.2313,space,4.2832,,955.2313,89,14,956.2301,956.2301,956.2383,,,,0,40,40,40,1,160,85,,,,,,,,
,,613a639002c088d7e68b80a9,65af552097d7ed799e101c51,2024-01-22_23h04.27.859,bars,2023.2.3,Win32,60.24096386,657b66ea316d21385b68909f,,,,,,,,,,,956.2385,957.2296,,,957.729,957.9785,,136,136,,,,,,,,,,,,,,,,bars/049.png,bars/mask009.png,,,,,,,,,,,,2,2,,,,,,,10,8,10,7,,,,,,,,,,,957.2296,957.7289,957.9786,960.4097,space,2.4195,,960.4097,24,21,961.4085,961.4085,961.417,,,,0,41,41,41,1,160,115,,,,,,,,
,,613a639002c088d7e68b80a9,65af552097d7ed799e101c51,2024-01-22_23h04.27.859,bars,2023.2.3,Win32,60.24096386,657b66ea316d21385b68909f,,,,,,,,,,,961.4172,962.4075,,,962.9072,963.1567,,131,131,,,,,,,,,,,,,,,,bars/037.png,bars/mask009.png,,,,,,,,,,,,3,1,,,,,,,8,10,8,10,,,,,,,,,,,962.4076,962.9071,963.1567,965.2046,space,2.0406,,965.2046,19,26,966.2036,966.2037,966.2053,,,,0,42,42,42,1,150,105,,,,,,,,
,,613a639002c088d7e68b80a9,65af552097d7ed799e101c51,2024-01-22_23h04.27.859,bars,2023.2.3,Win32,60.24096386,657b66ea316d21385b68909f,,,,,,,,,,,966.2057,967.2026,,,967.7023,967.9519,,70,70,,,,,,,,,,,,,,,,bars/013.png,bars/mask002.png,,,,,,,,,,,,4,1,,,,,,,6,8,5,8,,,,,,,,,,,967.2026,967.7022,967.952,972.248,space,4.2884,,972.248,5,60,973.247,973.247,973.2551,,,,0,43,43,43,1,75,10,,,,,,,,
,,613a639002c088d7e68b80a9,65af552097d7ed799e101c51,2024-01-22_23h04.27.859,bars,2023.2.3,Win32,60.24096386,657b66ea316d21385b68909f,,,,,,,,,,,973.2553,974.2457,,,974.7455,974.9952,,18,18,,,,,,,,,,,,,,,,bars/032.png,bars/mask003.png,,,,,,,,,,,,9,2,,,,,,,4,10,3,10,,,,,,,,,,,974.2457,974.7455,974.9952,977.1599,space,2.1472,,977.1599,73,2,978.1586,978.1587,978.1743,,,,0,44,44,44,1,125,20,,,,,,,,
,,613a639002c088d7e68b80a9,65af552097d7ed799e101c51,2024-01-22_23h04.27.859,bars,2023.2.3,Win32,60.24096386,657b66ea316d21385b68909f,,,,,,,,,,,978.1745,979.1743,,,979.6737,979.9235,,54,54,,,,,,,,,,,,,,,,bars/043.png,bars/mask001.png,,,,,,,,,,,,1,1,,,,,,,6,8,7,8,,,,,,,,,,,979.1743,979.6736,979.9235,982.5542,space,2.627,,982.5542,24,76,983.5531,983.5532,983.5623,,,,0,45,45,45,1,30,130,,,,,,,,
,,613a639002c088d7e68b80a9,65af552097d7ed799e101c51,2024-01-22_23h04.27.859,bars,2023.2.3,Win32,60.24096386,657b66ea316d21385b68909f,,,,,,,,,,,983.5626,984.5523,,,985.052,985.3015,,168,-12,,,,,,,,,,,,,,,,bars/008.png,bars/mask002.png,,,,,,,,,,,,3,2,,,,,,,4,6,4,5,,,,,,,,,,,984.5523,985.0519,985.3015,988.9314,space,3.6198,,988.9314,58,12,989.9303,989.9303,989.9399,,,,0,46,46,46,1,110,0,,,,,,,,
,,613a639002c088d7e68b80a9,65af552097d7ed799e101c51,2024-01-22_23h04.27.859,bars,2023.2.3,Win32,60.24096386,657b66ea316d21385b68909f,,,,,,,,,,,989.9401,990.9295,,,991.429,991.6788,,16,196,,,,,,,,,,,,,,,,bars/036.png,bars/mask008.png,,,,,,,,,,,,3,2,,,,,,,2,4,3,4,,,,,,,,,,,990.9295,991.4289,991.6788,995.0922,space,3.397,,995.0922,51,4,996.091,996.091,996.0989,,,,0,47,47,47,1,145,20,,,,,,,,
,,613a639002c088d7e68b80a9,65af552097d7ed799e101c51,2024-01-22_23h04.27.859,bars,2023.2.3,Win32,60.24096386,657b66ea316d21385b68909f,,,,,,,,,,,996.0991,997.0901,,,997.5895,997.8391,,58,58,,,,,,,,,,,,,,,,bars/029.png,bars/mask003.png,,,,,,,,,,,,1,2,,,,,,,0,2,0,1,,,,,,,,,,,997.0902,997.5895,997.8392,1000.2701,space,2.4206,,1000.2702,32,13,1001.2691,1001.2691,1001.2791,,,,0,48,48,48,1,90,45,,,,,,,,
,,613a639002c088d7e68b80a9,65af552097d7ed799e101c51,2024-01-22_23h04.27.859,bars,2023.2.3,Win32,60.24096386,657b66ea316d21385b68909f,,,,,,,,,,,1001.2792,1002.2683,,,1002.768,1003.0175,,157,157,,,,,,,,,,,,,,,,bars/016.png,bars/mask006.png,,,,,,,,,,,,4,2,,,,,,,0,4,0,5,,,,,,,,,,,1002.2683,1002.768,1003.0175,1008.7621,space,5.7327,,1008.7621,63,8,1009.7608,1009.7608,1009.7696,,,,0,49,49,49,1,40,165,,,,,,,,
,,613a639002c088d7e68b80a9,65af552097d7ed799e101c51,2024-01-22_23h04.27.859,bars,2023.2.3,Win32,60.24096386,657b66ea316d21385b68909f,,,,,,,,,,,,,,,,,,,,,,,,,,,,,,,,,,,,,,,,,,,,,,,,,,,,,,,,,,,,,,,,,,,,,,,,,,,,,,,,,,,,,,,,,,,,,1009.7697,1069.7683,0,1,1,2,1,sequence_tables/blk047.csv
,,613a639002c088d7e68b80a9,65af552097d7ed799e101c51,2024-01-22_23h04.27.859,bars,2023.2.3,Win32,60.24096386,657b66ea316d21385b68909f,,,,,,,,,,,1229.7928,1230.7931,,,1231.2925,1231.5423,,116,116,,,,,,,,,,,,,,,,bars/006.png,bars/mask003.png,,,,,,,,,,,,4,2,,,,,,,0,10,1,9,,,,,,1069.7766,1229.7776,space,159.9933,,1230.7931,1231.2925,1231.5423,1234.1399,space,2.584,,1234.1399,81,16,1235.1388,1235.1388,1235.1522,,,,0,0,0,0,1,35,100,,,,,,,,
,,613a639002c088d7e68b80a9,65af552097d7ed799e101c51,2024-01-22_23h04.27.859,bars,2023.2.3,Win32,60.24096386,657b66ea316d21385b68909f,,,,,,,,,,,1235.1524,1236.1545,,,1236.654,1236.9036,,19,19,,,,,,,,,,,,,,,,bars/035.png,bars/mask006.png,,,,,,,,,,,,0,1,,,,,,,0,10,0,10,,,,,,,,,,,1236.1545,1236.654,1236.9036,1238.5854,space,1.6679,,1238.5854,24,41,1239.5843,1239.5843,1239.5858,,,,0,1,1,1,1,175,60,,,,,,,,
,,613a639002c088d7e68b80a9,65af552097d7ed799e101c51,2024-01-22_23h04.27.859,bars,2023.2.3,Win32,60.24096386,657b66ea316d21385b68909f,,,,,,,,,,,1239.5861,1240.5833,,,1241.0831,1241.3326,,173,-7,,,,,,,,,,,,,,,,bars/008.png,bars/mask003.png,,,,,,,,,,,,8,2,,,,,,,0,10,0,10,,,,,,,,,,,1240.5833,1241.083,1241.3326,1243.364,space,2.0186,,1243.364,63,7,1244.3629,1244.3629,1244.3718,,,,0,2,2,2,1,110,0,,,,,,,,
,,613a639002c088d7e68b80a9,65af552097d7ed799e101c51,2024-01-22_23h04.27.859,bars,2023.2.3,Win32,60.24096386,657b66ea316d21385b68909f,,,,,,,,,,,1244.372,1245.3622,,,1245.8616,1246.1114,,43,43,,,,,,,,,,,,,,,,bars/000.png,bars/mask003.png,,,,,,,,,,,,0,1,,,,,,,0,8,0,9,,,,,,,,,,,1245.3622,1245.8616,1246.1114,1247.7099,space,1.5951,,1247.71,3,78,1248.7087,1248.7087,1248.7108,,,,0,3,3,3,1,40,145,,,,,,,,
,,613a639002c088d7e68b80a9,65af552097d7ed799e101c51,2024-01-22_23h04.27.859,bars,2023.2.3,Win32,60.24096386,657b66ea316d21385b68909f,,,,,,,,,,,1248.7111,1272.3745,,,1272.3859,1272.3866,,115,115,,,,,,,,,,,,,,,,bars/043.png,bars/mask009.png,,,,,,,,,,,,5,2,,,,,,,2,10,3,10,,,,,,,,,,,1272.3745,1272.3858,1272.3866,1273.3846,space,0.9869,,1273.3847,85,15,1274.3833,1274.3833,1274.385,,,,0,4,4,4,1,30,130,,,,,,,,
,,613a639002c088d7e68b80a9,65af552097d7ed799e101c51,2024-01-22_23h04.27.859,bars,2023.2.3,Win32,60.24096386,657b66ea316d21385b68909f,,,,,,,,,,,1274.3854,1275.3824,,,1275.882,1276.1318,,69,69,,,,,,,,,,,,,,,,bars/004.png,bars/mask002.png,,,,,,,,,,,,0,1,,,,,,,0,10,0,10,,,,,,,,,,,1275.3824,1275.8819,1276.1318,1278.4959,space,2.3508,,1278.496,44,56,1279.4949,1279.4949,1279.5035,,,,0,5,5,5,1,25,125,,,,,,,,
,,613a639002c088d7e68b80a9,65af552097d7ed799e101c51,2024-01-22_23h04.27.859,bars,2023.2.3,Win32,60.24096386,657b66ea316d21385b68909f,,,,,,,,,,,1279.5038,1280.494,,,1280.9936,1281.2435,,125,125,,,,,,,,,,,,,,,,bars/049.png,bars/mask006.png,,,,,,,,,,,,7,2,,,,,,,2,10,1,10,,,,,,,,,,,1280.494,1280.9936,1281.2435,1282.542,space,1.2895,,1282.5421,35,10,1283.541,1283.5411,1283.5426,,,,0,6,6,6,1,160,115,,,,,,,,
,,613a639002c088d7e68b80a9,65af552097d7ed799e101c51,2024-01-22_23h04.27.859,bars,2023.2.3,Win32,60.24096386,657b66ea316d21385b68909f,,,,,,,,,,,1283.543,1284.5401,,,1285.0398,1285.2895,,160,-20,,,,,,,,,,,,,,,,bars/007.png,bars/mask003.png,,,,,,,,,,,,0,1,,,,,,,0,10,0,9,,,,,,,,,,,1284.5401,1285.0398,1285.2895,1287.0875,space,1.7952,,1287.0875,15,75,1288.0865,1288.0865,1288.088,,,,0,7,7,7,1,175,55,,,,,,,,
,,613a639002c088d7e68b80a9,65af552097d7ed799e101c51,2024-01-22_23h04.27.859,bars,2023.2.3,Win32,60.24096386,657b66ea316d21385b68909f,,,,,,,,,,,1288.0883,1289.0857,,,1289.5852,1289.8348,,50,50,,,,,,,,,,,,,,,,bars/010.png,bars/mask007.png,,,,,,,,,,,,6,2,,,,,,,2,8,2,7,,,,,,,,,,,1289.0857,1289.5852,1289.8348,1291.95,space,2.1074,,1291.9501,65,5,1292.9484,1292.9484,1292.9616,,,,0,8,8,8,1,165,55,,,,,,,,
,,613a639002c088d7e68b80a9,65af552097d7ed799e101c51,2024-01-22_23h04.27.859,bars,2023.2.3,Win32,60.24096386,657b66ea316d21385b68909f,,,,,,,,,,,1292.9619,1293.9642,,,1294.4637,1294.7134,,67,67,,,,,,,,,,,,,,,,bars/029.png,bars/mask006.png,,,,,,,,,,,,2,2,,,,,,,0,6,1,6,,,,,,,,,,,1293.9643,1294.4636,1294.7134,1296.1618,space,1.4432,,1296.1619,23,22,1297.1611,1297.1612,1297.1619,,,,0,9,9,9,1,90,45,,,,,,,,
,,613a639002c088d7e68b80a9,65af552097d7ed799e101c51,2024-01-22_23h04.27.859,bars,2023.2.3,Win32,60.24096386,657b66ea316d21385b68909f,,,,,,,,,,,1297.1623,1298.1599,,,1298.6598,1298.9095,,18,198,,,,,,,,,,,,,,,,bars/025.png,bars/mask006.png,,,,,,,,,,,,2,2,,,,,,,2,8,2,7,,,,,,,,,,,1298.16,1298.6597,1298.9095,1300.4744,space,1.5587,,1300.4744,87,22,1301.4733,1301.4733,1301.4742,,,,0,10,10,10,1,105,40,,,,,,,,
,,613a639002c088d7e68b80a9,65af552097d7ed799e101c51,2024-01-22_23h04.27.859,bars,2023.2.3,Win32,60.24096386,657b66ea316d21385b68909f,,,,,,,,,,,1301.4746,1302.4722,,,1302.9718,1303.2217,,32,32,,,,,,,,,,,,,,,,bars/044.png,bars/mask008.png,,,,,,,,,,,,0,1,,,,,,,0,6,0,6,,,,,,,,,,,1302.4723,1302.9718,1303.2217,1305.4694,space,2.2441,,1305.4694,43,57,1306.4685,1306.4685,1306.4821,,,,0,11,11,11,1,75,155,,,,,,,,
,,613a639002c088d7e68b80a9,65af552097d7ed799e101c51,2024-01-22_23h04.27.859,bars,2023.2.3,Win32,60.24096386,657b66ea316d21385b68909f,,,,,,,,,,,1306.4824,1307.484,,,1307.9836,1308.2333,,108,108,,,,,,,,,,,,,,,,bars/021.png,bars/mask006.png,,,,,,,,,,,,0,2,,,,,,,0,4,0,5,,,,,,,,,,,1307.4841,1307.9835,1308.2333,1310.6143,space,2.364,,1310.6143,47,38,1311.6135,1311.6135,1311.6222,,,,0,12,12,12,1,155,70,,,,,,,,
,,613a639002c088d7e68b80a9,65af552097d7ed799e101c51,2024-01-22_23h04.27.859,bars,2023.2.3,Win32,60.24096386,657b66ea316d21385b68909f,,,,,,,,,,,1311.6224,1312.6123,,,1313.1119,1313.3618,,67,67,,,,,,,,,,,,,,,,bars/006.png,bars/mask009.png,,,,,,,,,,,,0,1,,,,,,,2,2,2,3,,,,,,,,,,,1312.6123,1313.1119,1313.3618,1316.392,space,3.0224,,1316.3921,32,33,1317.391,1317.3911,1317.4,,,,0,13,13,13,1,35,100,,,,,,,,
,,613a639002c088d7e68b80a9,65af552097d7ed799e101c51,2024-01-22_23h04.27.859,bars,2023.2.3,Win32,60.24096386,657b66ea316d21385b68909f,,,,,,,,,,,1317.4002,1318.39,,,1318.8897,1319.1393,,159,159,,,,,,,,,,,,,,,,bars/015.png,bars/mask000.png,,,,,,,,,,,,4,2,,,,,,,4,4,5,4,,,,,,,,,,,1318.39,1318.8896,1319.1393,1322.2529,space,3.1004,,1322.2529,49,1,1323.2518,1323.2518,1323.2604,,,,0,14,14,14,1,110,160,,,,,,,,
,,613a639002c088d7e68b80a9,65af552097d7ed799e101c51,2024-01-22_23h04.27.859,bars,2023.2.3,Win32,60.24096386,657b66ea316d21385b68909f,,,,,,,,,,,1323.2605,1324.2511,,,1324.7506,1325.0004,,123,123,,,,,,,,,,,,,,,,bars/006.png,bars/mask006.png,,,,,,,,,,,,1,2,,,,,,,2,6,0,3,,,,,,,,,,,1324.2511,1324.7506,1325.0004,1327.0151,space,1.9992,,1327.0151,88,23,1328.0138,1328.0138,1328.0145,,,,0,15,15,15,1,35,100,,,,,,,,
,,613a639002c088d7e68b80a9,65af552097d7ed799e101c51,2024-01-22_23h04.27.859,bars,2023.2.3,Win32,60.24096386,657b66ea316d21385b68909f,,,,,,,,,,,1328.0147,1329.0128,,,1329.5124,1329.7624,,67,67,,,,,,,,,,,,,,,,bars/044.png,bars/mask000.png,,,,,,,,,,,,2,1,,,,,,,4,4,3,4,,,,,,,,,,,1329.0129,1329.5124,1329.7624,1333.3919,space,3.6227,,1333.3919,8,88,1334.3916,1334.3916,1334.406,,,,0,16,16,16,1,75,155,,,,,,,,
,,613a639002c088d7e68b80a9,65af552097d7ed799e101c51,2024-01-22_23h04.27.859,bars,2023.2.3,Win32,60.24096386,657b66ea316d21385b68909f,,,,,,,,,,,1334.4064,1335.4069,,,1335.9062,1336.1561,,42,42,,,,,,,,,,,,,,,,bars/013.png,bars/mask001.png,,,,,,,,,,,,0,2,,,,,,,2,6,3,5,,,,,,,,,,,1335.4069,1335.9061,1336.1561,1339.6861,space,3.5126,,1339.6861,33,32,1340.6849,1340.685,1340.6982,,,,0,17,17,17,1,75,10,,,,,,,,
,,613a639002c088d7e68b80a9,65af552097d7ed799e101c51,2024-01-22_23h04.27.859,bars,2023.2.3,Win32,60.24096386,657b66ea316d21385b68909f,,,,,,,,,,,1340.6984,1341.7004,,,1342.2001,1342.4496,,167,167,,,,,,,,,,,,,,,,bars/008.png,bars/mask004.png,,,,,,,,,,,,5,2,,,,,,,4,8,5,8,,,,,,,,,,,1341.7004,1342.2,1342.4496,1346.8953,space,4.438,,1346.8953,57,13,1347.8943,1347.8943,1347.9024,,,,0,18,18,18,1,110,0,,,,,,,,
,,613a639002c088d7e68b80a9,65af552097d7ed799e101c51,2024-01-22_23h04.27.859,bars,2023.2.3,Win32,60.24096386,657b66ea316d21385b68909f,,,,,,,,,,,1347.9026,1348.8932,,,1349.3929,1349.6426,,13,193,,,,,,,,,,,,,,,,bars/045.png,bars/mask006.png,,,,,,,,,,,,9,2,,,,,,,6,10,7,10,,,,,,,,,,,1348.8932,1349.3928,1349.6426,1353.3555,space,3.7084,,1353.3555,87,3,1354.3545,1354.3546,1354.3626,,,,0,19,19,19,1,100,10,,,,,,,,
,,613a639002c088d7e68b80a9,65af552097d7ed799e101c51,2024-01-22_23h04.27.859,bars,2023.2.3,Win32,60.24096386,657b66ea316d21385b68909f,,,,,,,,,,,1354.3627,1355.3539,,,1355.8531,1356.1032,,162,-18,,,,,,,,,,,,,,,,bars/006.png,bars/mask007.png,,,,,,,,,,,,0,1,,,,,,,8,10,8,10,,,,,,,,,,,1355.3539,1355.8531,1356.1033,1358.334,space,2.2243,,1358.334,53,62,1359.333,1359.333,1359.3446,,,,0,20,20,20,1,35,100,,,,,,,,
,,613a639002c088d7e68b80a9,65af552097d7ed799e101c51,2024-01-22_23h04.27.859,bars,2023.2.3,Win32,60.24096386,657b66ea316d21385b68909f,,,,,,,,,,,1359.3449,1360.3488,,,1360.8484,1361.0979,,26,206,,,,,,,,,,,,,,,,bars/004.png,bars/mask002.png,,,,,,,,,,,,10,1,,,,,,,10,8,10,8,,,,,,,,,,,1360.3488,1360.8483,1361.098,1363.4294,space,2.3174,,1363.4295,1,81,1364.428,1364.4281,1364.4289,,,,0,21,21,21,1,25,125,,,,,,,,
,,613a639002c088d7e68b80a9,65af552097d7ed799e101c51,2024-01-22_23h04.27.859,bars,2023.2.3,Win32,60.24096386,657b66ea316d21385b68909f,,,,,,,,,,,1364.4292,1365.4272,,,1365.9265,1366.1766,,64,64,,,,,,,,,,,,,,,,bars/048.png,bars/mask006.png,,,,,,,,,,,,5,1,,,,,,,10,10,10,10,,,,,,,,,,,1365.4272,1365.9265,1366.1767,1368.3575,space,2.171,,1368.3575,14,69,1369.3567,1369.3568,1369.3691,,,,0,22,22,22,1,50,175,,,,,,,,
,,613a639002c088d7e68b80a9,65af552097d7ed799e101c51,2024-01-22_23h04.27.859,bars,2023.2.3,Win32,60.24096386,657b66ea316d21385b68909f,,,,,,,,,,,1369.3693,1370.3722,,,1370.8719,1371.1216,,45,45,,,,,,,,,,,,,,,,bars/014.png,bars/mask000.png,,,,,,,,,,,,0,1,,,,,,,8,8,8,8,,,,,,,,,,,1370.3722,1370.8719,1371.1216,1373.1027,space,1.9711,,1373.1028,35,45,1374.1016,1374.1018,1374.1023,,,,0,23,23,23,1,80,0,,,,,,,,
,,613a639002c088d7e68b80a9,65af552097d7ed799e101c51,2024-01-22_23h04.27.859,bars,2023.2.3,Win32,60.24096386,657b66ea316d21385b68909f,,,,,,,,,,,1374.1027,1375.1008,,,1375.6003,1375.8501,,25,205,,,,,,,,,,,,,,,,bars/016.png,bars/mask009.png,,,,,,,,,,,,3,1,,,,,,,6,10,5,10,,,,,,,,,,,1375.1008,1375.6003,1375.8501,1381.9276,space,6.0618,,1381.9277,15,40,1382.9265,1382.9265,1382.9386,,,,0,24,24,24,1,40,165,,,,,,,,
,,613a639002c088d7e68b80a9,65af552097d7ed799e101c51,2024-01-22_23h04.27.859,bars,2023.2.3,Win32,60.24096386,657b66ea316d21385b68909f,,,,,,,,,,,1382.9387,1383.942,,,1384.4418,1384.6915,,21,21,,,,,,,,,,,,,,,,bars/008.png,bars/mask003.png,,,,,,,,,,,,3,2,,,,,,,4,10,6,10,,,,,,,,,,,1383.9421,1384.4418,1384.6915,1387.6885,space,2.9859,,1387.6885,89,21,1388.6875,1388.6875,1388.6966,,,,0,25,25,25,1,110,0,,,,,,,,
,,613a639002c088d7e68b80a9,65af552097d7ed799e101c51,2024-01-22_23h04.27.859,bars,2023.2.3,Win32,60.24096386,657b66ea316d21385b68909f,,,,,,,,,,,1388.6968,1389.6867,,,1390.186,1390.4357,,171,-9,,,,,,,,,,,,,,,,bars/044.png,bars/mask005.png,,,,,,,,,,,,4,2,,,,,,,2,8,1,8,,,,,,,,,,,1389.6867,1390.186,1390.4357,1394.2655,space,3.8131,,1394.2656,84,16,1395.2646,1395.2647,1395.2729,,,,0,26,26,26,1,75,155,,,,,,,,
,,613a639002c088d7e68b80a9,65af552097d7ed799e101c51,2024-01-22_23h04.27.859,bars,2023.2.3,Win32,60.24096386,657b66ea316d21385b68909f,,,,,,,,,,,1395.2731,1396.2633,,,1396.7628,1397.0125,,169,169,,,,,,,,,,,,,,,,bars/047.png,bars/mask003.png,,,,,,,,,,,,1,1,,,,,,,4,10,4,8,,,,,,,,,,,1396.2633,1396.7628,1397.0125,1400.4425,space,3.4234,,1400.4426,26,81,1401.4416,1401.4416,1401.457,,,,0,27,27,27,1,15,70,,,,,,,,
,,613a639002c088d7e68b80a9,65af552097d7ed799e101c51,2024-01-22_23h04.27.859,bars,2023.2.3,Win32,60.24096386,657b66ea316d21385b68909f,,,,,,,,,,,1401.4573,1402.4573,,,1402.9572,1403.2068,,140,-40,,,,,,,,,,,,,,,,bars/028.png,bars/mask004.png,,,,,,,,,,,,3,2,,,,,,,6,8,7,10,,,,,,,,,,,1402.4573,1402.9572,1403.2068,1407.3193,space,4.0962,,1407.3195,85,20,1408.3185,1408.3185,1408.3319,,,,0,28,28,28,1,45,120,,,,,,,,
,,613a639002c088d7e68b80a9,65af552097d7ed799e101c51,2024-01-22_23h04.27.859,bars,2023.2.3,Win32,60.24096386,657b66ea316d21385b68909f,,,,,,,,,,,1408.332,1409.3338,,,1409.8333,1410.0829,,72,72,,,,,,,,,,,,,,,,bars/039.png,bars/mask000.png,,,,,,,,,,,,0,2,,,,,,,4,6,3,6,,,,,,,,,,,1409.3338,1409.8332,1410.0829,1411.132,space,1.0422,,1411.1321,77,33,1412.1313,1412.1313,1412.1319,,,,0,29,29,29,1,175,105,,,,,,,,
,,613a639002c088d7e68b80a9,65af552097d7ed799e101c51,2024-01-22_23h04.27.859,bars,2023.2.3,Win32,60.24096386,657b66ea316d21385b68909f,,,,,,,,,,,1412.1322,1413.1303,,,1413.6299,1413.8793,,121,121,,,,,,,,,,,,,,,,bars/019.png,bars/mask005.png,,,,,,,,,,,,3,2,,,,,,,6,8,6,7,,,,,,,,,,,1413.1303,1413.6299,1413.8793,1417.6256,space,3.7428,,1417.6256,76,16,1418.6247,1418.6248,1418.6327,,,,0,30,30,30,1,45,105,,,,,,,,
,,613a639002c088d7e68b80a9,65af552097d7ed799e101c51,2024-01-22_23h04.27.859,bars,2023.2.3,Win32,60.24096386,657b66ea316d21385b68909f,,,,,,,,,,,1418.6328,1419.6239,,,1420.1233,1420.3728,,153,153,,,,,,,,,,,,,,,,bars/049.png,bars/mask002.png,,,,,,,,,,,,6,1,,,,,,,8,10,8,10,,,,,,,,,,,1419.6239,1420.1233,1420.3728,1424.0526,space,3.6637,,1424.0527,7,38,1425.0515,1425.0515,1425.0604,,,,0,31,31,31,1,160,115,,,,,,,,
,,613a639002c088d7e68b80a9,65af552097d7ed799e101c51,2024-01-22_23h04.27.859,bars,2023.2.3,Win32,60.24096386,657b66ea316d21385b68909f,,,,,,,,,,,1425.0607,1426.0509,,,1426.5502,1426.8,,20,200,,,,,,,,,,,,,,,,bars/032.png,bars/mask006.png,,,,,,,,,,,,7,2,,,,,,,6,8,5,7,,,,,,,,,,,1426.0509,1426.5502,1426.8001,1430.746,space,3.9371,,1430.746,75,0,1431.7449,1431.745,1431.7541,,,,0,32,32,32,1,125,20,,,,,,,,
,,613a639002c088d7e68b80a9,65af552097d7ed799e101c51,2024-01-22_23h04.27.859,bars,2023.2.3,Win32,60.24096386,657b66ea316d21385b68909f,,,,,,,,,,,1431.7543,1432.7439,,,1433.2438,1433.4932,,159,-21,,,,,,,,,,,,,,,,bars/043.png,bars/mask005.png,,,,,,,,,,,,0,2,,,,,,,4,6,2,6,,,,,,,,,,,1432.744,1433.2438,1433.4932,1435.0586,space,1.5534,,1435.0586,51,29,1436.0577,1436.0577,1436.0585,,,,0,33,33,33,1,30,130,,,,,,,,
,,613a639002c088d7e68b80a9,65af552097d7ed799e101c51,2024-01-22_23h04.27.859,bars,2023.2.3,Win32,60.24096386,657b66ea316d21385b68909f,,,,,,,,,,,1436.0588,1437.0565,,,1437.556,1437.8057,,30,210,,,,,,,,,,,,,,,,bars/022.png,bars/mask001.png,,,,,,,,,,,,5,2,,,,,,,6,8,7,8,,,,,,,,,,,1437.0565,1437.556,1437.8057,1440.5698,space,2.7541,,1440.5698,65,10,1441.5688,1441.5688,1441.5766,,,,0,34,34,34,1,95,20,,,,,,,,
,,613a639002c088d7e68b80a9,65af552097d7ed799e101c51,2024-01-22_23h04.27.859,bars,2023.2.3,Win32,60.24096386,657b66ea316d21385b68909f,,,,,,,,,,,1441.5768,1442.5678,,,1443.0675,1443.3173,,41,41,,,,,,,,,,,,,,,,bars/006.png,bars/mask009.png,,,,,,,,,,,,2,1,,,,,,,4,6,3,5,,,,,,,,,,,1442.5678,1443.0674,1443.3173,1445.548,space,2.2273,,1445.5481,6,59,1446.5471,1446.5471,1446.5558,,,,0,35,35,35,1,35,100,,,,,,,,
,,613a639002c088d7e68b80a9,65af552097d7ed799e101c51,2024-01-22_23h04.27.859,bars,2023.2.3,Win32,60.24096386,657b66ea316d21385b68909f,,,,,,,,,,,1446.5559,1447.5464,,,1448.0457,1448.2953,,176,-4,,,,,,,,,,,,,,,,bars/045.png,bars/mask003.png,,,,,,,,,,,,5,2,,,,,,,2,8,0,9,,,,,,,,,,,1447.5465,1448.0457,1448.2953,1451.1758,space,2.8687,,1451.1758,76,14,1452.1748,1452.1749,1452.1901,,,,0,36,36,36,1,100,10,,,,,,,,
,,613a639002c088d7e68b80a9,65af552097d7ed799e101c51,2024-01-22_23h04.27.859,bars,2023.2.3,Win32,60.24096386,657b66ea316d21385b68909f,,,,,,,,,,,1452.1903,1453.1907,,,1453.6902,1453.94,,14,14,,,,,,,,,,,,,,,,bars/009.png,bars/mask007.png,,,,,,,,,,,,0,1,,,,,,,0,6,0,5,,,,,,,,,,,1453.1907,1453.6902,1453.94,1456.3541,space,2.4098,,1456.3542,1,89,1457.353,1457.353,1457.3617,,,,0,37,37,37,1,15,105,,,,,,,,
,,613a639002c088d7e68b80a9,65af552097d7ed799e101c51,2024-01-22_23h04.27.859,bars,2023.2.3,Win32,60.24096386,657b66ea316d21385b68909f,,,,,,,,,,,1457.3619,1458.3522,,,1458.8516,1459.1013,,61,61,,,,,,,,,,,,,,,,bars/009.png,bars/mask009.png,,,,,,,,,,,,0,2,,,,,,,0,4,1,5,,,,,,,,,,,1458.3522,1458.8516,1459.1013,1461.6988,space,2.5911,,1461.6988,46,44,1462.6979,1462.698,1462.713,,,,0,38,38,38,1,15,105,,,,,,,,
,,613a639002c088d7e68b80a9,65af552097d7ed799e101c51,2024-01-22_23h04.27.859,bars,2023.2.3,Win32,60.24096386,657b66ea316d21385b68909f,,,,,,,,,,,1462.7133,1463.7134,,,1464.213,1464.4627,,36,36,,,,,,,,,,,,,,,,bars/026.png,bars/mask002.png,,,,,,,,,,,,2,1,,,,,,,0,2,2,3,,,,,,,,,,,1463.7134,1464.213,1464.4627,1465.6782,space,1.2026,,1465.6783,1,49,1466.6774,1466.6774,1466.6866,,,,0,39,39,39,1,35,85,,,,,,,,
,,613a639002c088d7e68b80a9,65af552097d7ed799e101c51,2024-01-22_23h04.27.859,bars,2023.2.3,Win32,60.24096386,657b66ea316d21385b68909f,,,,,,,,,,,1466.6868,1467.6762,,,1468.1759,1468.4254,,16,196,,,,,,,,,,,,,,,,bars/042.png,bars/mask000.png,,,,,,,,,,,,0,1,,,,,,,0,4,0,5,,,,,,,,,,,1467.6762,1468.1759,1468.4255,1472.0053,space,3.5711,,1472.0053,51,59,1473.0043,1473.0043,1473.0128,,,,0,40,40,40,1,145,75,,,,,,,,
,,613a639002c088d7e68b80a9,65af552097d7ed799e101c51,2024-01-22_23h04.27.859,bars,2023.2.3,Win32,60.24096386,657b66ea316d21385b68909f,,,,,,,,,,,1473.013,1474.0033,,,1474.5029,1474.7526,,70,70,,,,,,,,,,,,,,,,bars/026.png,bars/mask005.png,,,,,,,,,,,,1,2,,,,,,,0,2,1,2,,,,,,,,,,,1474.0033,1474.5029,1474.7526,1477.5005,space,2.7302,,1477.5006,35,15,1478.499,1478.4991,1478.5084,,,,0,41,41,41,1,35,85,,,,,,,,
,,613a639002c088d7e68b80a9,65af552097d7ed799e101c51,2024-01-22_23h04.27.859,bars,2023.2.3,Win32,60.24096386,657b66ea316d21385b68909f,,,,,,,,,,,1478.5086,1479.4979,,,1479.9979,1480.2475,,11,11,,,,,,,,,,,,,,,,bars/033.png,bars/mask001.png,,,,,,,,,,,,0,1,,,,,,,0,0,0,1,,,,,,,,,,,1479.4979,1479.9978,1480.2475,1485.0924,space,4.8413,,1485.0924,14,36,1486.0915,1486.0915,1486.1001,,,,0,42,42,42,1,25,155,,,,,,,,
,,613a639002c088d7e68b80a9,65af552097d7ed799e101c51,2024-01-22_23h04.27.859,bars,2023.2.3,Win32,60.24096386,657b66ea316d21385b68909f,,,,,,,,,,,1486.1002,1487.0906,,,1487.5904,1487.8398,,76,76,,,,,,,,,,,,,,,,bars/001.png,bars/mask008.png,,,,,,,,,,,,0,2,,,,,,,0,0,2,0,,,,,,,,,,,1487.0906,1487.5904,1487.8399,1491.7692,space,3.9166,,1491.7692,54,9,1492.7683,1492.7684,1492.7772,,,,0,43,43,43,1,130,85,,,,,,,,
,,613a639002c088d7e68b80a9,65af552097d7ed799e101c51,2024-01-22_23h04.27.859,bars,2023.2.3,Win32,60.24096386,657b66ea316d21385b68909f,,,,,,,,,,,1492.7773,1493.7673,,,1494.2667,1494.5166,,34,34,,,,,,,,,,,,,,,,bars/035.png,bars/mask006.png,,,,,,,,,,,,0,2,,,,,,,0,0,0,1,,,,,,,,,,,1493.7673,1494.2667,1494.5166,1497.9798,space,3.4538,,1497.9799,39,26,1498.9786,1498.9787,1498.9868,,,,0,44,44,44,1,175,60,,,,,,,,
,,613a639002c088d7e68b80a9,65af552097d7ed799e101c51,2024-01-22_23h04.27.859,bars,2023.2.3,Win32,60.24096386,657b66ea316d21385b68909f,,,,,,,,,,,1498.9868,1499.9777,,,1500.4774,1500.7271,,74,74,,,,,,,,,,,,,,,,bars/001.png,bars/mask000.png,,,,,,,,,,,,3,2,,,,,,,2,2,1,4,,,,,,,,,,,1499.9777,1500.4774,1500.7271,1503.391,space,2.6469,,1503.391,56,11,1504.3902,1504.3903,1504.3989,,,,0,45,45,45,1,130,85,,,,,,,,
,,613a639002c088d7e68b80a9,65af552097d7ed799e101c51,2024-01-22_23h04.27.859,bars,2023.2.3,Win32,60.24096386,657b66ea316d21385b68909f,,,,,,,,,,,1504.399,1505.3892,,,1505.8889,1506.1391,,152,152,,,,,,,,,,,,,,,,bars/005.png,bars/mask000.png,,,,,,,,,,,,2,2,,,,,,,4,4,5,4,,,,,,,,,,,1505.3892,1505.8889,1506.1391,1507.7703,space,1.6141,,1507.7703,38,12,1508.7693,1508.7693,1508.7771,,,,0,46,46,46,1,10,140,,,,,,,,
,,613a639002c088d7e68b80a9,65af552097d7ed799e101c51,2024-01-22_23h04.27.859,bars,2023.2.3,Win32,60.24096386,657b66ea316d21385b68909f,,,,,,,,,,,1508.7773,1509.7682,,,1510.2677,1510.5174,,5,185,,,,,,,,,,,,,,,,bars/008.png,bars/mask004.png,,,,,,,,,,,,2,2,,,,,,,2,2,1,2,,,,,,,,,,,1509.7683,1510.2677,1510.5174,1514.0314,space,3.5072,,1514.0315,75,5,1515.0299,1515.03,1515.0382,,,,0,47,47,47,1,110,0,,,,,,,,
,,613a639002c088d7e68b80a9,65af552097d7ed799e101c51,2024-01-22_23h04.27.859,bars,2023.2.3,Win32,60.24096386,657b66ea316d21385b68909f,,,,,,,,,,,1515.0384,1516.0285,,,1516.5282,1516.778,,102,102,,,,,,,,,,,,,,,,bars/006.png,bars/mask006.png,,,,,,,,,,,,1,2,,,,,,,4,0,4,1,,,,,,,,,,,1516.0285,1516.5282,1516.778,1518.8424,space,2.0602,,1518.8425,67,2,1519.8418,1519.8418,1519.8429,,,,0,48,48,48,1,35,100,,,,,,,,
,,613a639002c088d7e68b80a9,65af552097d7ed799e101c51,2024-01-22_23h04.27.859,bars,2023.2.3,Win32,60.24096386,657b66ea316d21385b68909f,,,,,,,,,,,1519.8431,1520.8405,,,1521.3401,1521.5899,,17,197,,,,,,,,,,,,,,,,bars/033.png,bars/mask008.png,,,,,,,,,,,,1,1,,,,,,,2,0,1,0,,,,,,,,,,,1520.8406,1521.34,1521.59,1525.4527,space,3.8555,,1525.4528,8,42,1526.4517,1526.4517,1526.4614,,,,0,49,49,49,1,25,155,,,,,,,,
,,613a639002c088d7e68b80a9,65af552097d7ed799e101c51,2024-01-22_23h04.27.859,bars,2023.2.3,Win32,60.24096386,657b66ea316d21385b68909f,,,,,,,,,,,,,,,,,,,,,,,,,,,,,,,,,,,,,,,,,,,,,,,,,,,,,,,,,,,,,,,,,,,,,,,,,,,,,,,,,,,,,,,,,,,,,1526.4616,1747.68,0,2,2,4,1,sequence_tables/blk017.csv
,,613a639002c088d7e68b80a9,65af552097d7ed799e101c51,2024-01-22_23h04.27.859,bars,2023.2.3,Win32,60.24096386,657b66ea316d21385b68909f,,,,,,,,,,,1753.5728,1754.5769,,,1755.0765,1755.3264,,169,169,,,,,,,,,,,,,,,,bars/048.png,bars/mask008.png,,,,,,,,,,,,6,2,,,,,,,5,9,5,7,,,,,,1747.6928,1753.5613,space,5.8506,,1754.577,1755.0765,1755.3264,1759.855,space,4.514,,1759.855,61,6,1760.8539,1760.854,1760.863,,,,0,0,0,0,1,50,175,,,,,,,,
,,613a639002c088d7e68b80a9,65af552097d7ed799e101c51,2024-01-22_23h04.27.859,bars,2023.2.3,Win32,60.24096386,657b66ea316d21385b68909f,,,,,,,,,,,1760.8632,1761.853,,,1762.3528,1762.6023,,54,54,,,,,,,,,,,,,,,,bars/035.png,bars/mask003.png,,,,,,,,,,,,4,2,,,,,,,7,7,10,5,,,,,,,,,,,1761.853,1762.3528,1762.6024,1766.2658,space,3.654,,1766.2658,59,6,1767.2644,1767.2644,1767.2722,,,,0,1,1,1,1,175,60,,,,,,,,
,,613a639002c088d7e68b80a9,65af552097d7ed799e101c51,2024-01-22_23h04.27.859,bars,2023.2.3,Win32,60.24096386,657b66ea316d21385b68909f,,,,,,,,,,,1767.2724,1768.2633,,,1768.7628,1769.0127,,104,104,,,,,,,,,,,,,,,,bars/018.png,bars/mask001.png,,,,,,,,,,,,2,2,,,,,,,5,5,6,3,,,,,,,,,,,1768.2633,1768.7628,1769.0127,1771.1276,space,2.1078,,1771.1276,46,14,1772.1262,1772.1263,1772.1343,,,,0,2,2,2,1,150,90,,,,,,,,
,,613a639002c088d7e68b80a9,65af552097d7ed799e101c51,2024-01-22_23h04.27.859,bars,2023.2.3,Win32,60.24096386,657b66ea316d21385b68909f,,,,,,,,,,,1772.1344,1773.1255,,,1773.6248,1773.8747,,56,56,,,,,,,,,,,,,,,,bars/031.png,bars/mask008.png,,,,,,,,,,,,2,2,,,,,,,7,3,6,6,,,,,,,,,,,1773.1256,1773.6248,1773.8748,1776.7717,space,2.8898,,1776.7717,64,21,1777.7709,1777.771,1777.7798,,,,0,3,3,3,1,120,35,,,,,,,,
,,613a639002c088d7e68b80a9,65af552097d7ed799e101c51,2024-01-22_23h04.27.859,bars,2023.2.3,Win32,60.24096386,657b66ea316d21385b68909f,,,,,,,,,,,1777.7799,1778.7697,,,1779.2695,1779.5192,,124,124,,,,,,,,,,,,,,,,bars/040.png,bars/mask007.png,,,,,,,,,,,,4,1,,,,,,,9,5,9,6,,,,,,,,,,,1778.7697,1779.2694,1779.5192,1781.3008,space,1.7639,,1781.3008,16,61,1782.2998,1782.2998,1782.3084,,,,0,4,4,4,1,140,5,,,,,,,,
,,613a639002c088d7e68b80a9,65af552097d7ed799e101c51,2024-01-22_23h04.27.859,bars,2023.2.3,Win32,60.24096386,657b66ea316d21385b68909f,,,,,,,,,,,1782.3087,1783.2988,,,1783.7981,1784.0481,,123,123,,,,,,,,,,,,,,,,bars/005.png,bars/mask005.png,,,,,,,,,,,,3,2,,,,,,,10,7,9,6,,,,,,,,,,,1783.2988,1783.798,1784.0481,1787.1281,space,3.0749,,1787.1282,67,17,1788.1274,1788.1274,1788.1361,,,,0,5,5,5,1,10,140,,,,,,,,
,,613a639002c088d7e68b80a9,65af552097d7ed799e101c51,2024-01-22_23h04.27.859,bars,2023.2.3,Win32,60.24096386,657b66ea316d21385b68909f,,,,,,,,,,,1788.1363,1789.1264,,,1789.6259,1789.8758,,52,52,,,,,,,,,,,,,,,,bars/019.png,bars/mask004.png,,,,,,,,,,,,5,1,,,,,,,8,5,7,4,,,,,,,,,,,1789.1264,1789.6259,1789.8758,1792.6728,space,2.7808,,1792.6728,7,53,1793.6721,1793.6722,1793.681,,,,0,6,6,6,1,45,105,,,,,,,,
,,613a639002c088d7e68b80a9,65af552097d7ed799e101c51,2024-01-22_23h04.27.859,bars,2023.2.3,Win32,60.24096386,657b66ea316d21385b68909f,,,,,,,,,,,1793.6812,1794.6707,,,1795.1705,1795.42,,160,160,,,,,,,,,,,,,,,,bars/040.png,bars/mask007.png,,,,,,,,,,,,2,1,,,,,,,6,7,6,8,,,,,,,,,,,1794.6707,1795.1704,1795.42,1797.7345,space,2.3073,,1797.7346,20,25,1798.7334,1798.7334,1798.7414,,,,0,7,7,7,1,140,5,,,,,,,,
,,613a639002c088d7e68b80a9,65af552097d7ed799e101c51,2024-01-22_23h04.27.859,bars,2023.2.3,Win32,60.24096386,657b66ea316d21385b68909f,,,,,,,,,,,1798.7416,1799.7324,,,1800.2323,1800.4817,,159,159,,,,,,,,,,,,,,,,bars/007.png,bars/mask009.png,,,,,,,,,,,,4,1,,,,,,,8,5,9,6,,,,,,,,,,,1799.7325,1800.2323,1800.4818,1803.0294,space,2.5323,,1803.0294,16,76,1804.0283,1804.0284,1804.0367,,,,0,8,8,8,1,175,55,,,,,,,,
,,613a639002c088d7e68b80a9,65af552097d7ed799e101c51,2024-01-22_23h04.27.859,bars,2023.2.3,Win32,60.24096386,657b66ea316d21385b68909f,,,,,,,,,,,1804.0368,1805.0273,,,1805.5269,1805.7766,,50,50,,,,,,,,,,,,,,,,bars/035.png,bars/mask002.png,,,,,,,,,,,,5,2,,,,,,,10,7,10,8,,,,,,,,,,,1805.0273,1805.5269,1805.7766,1811.4046,space,5.6118,,1811.4046,55,10,1812.4032,1812.4032,1812.4125,,,,0,9,9,9,1,175,60,,,,,,,,
,,613a639002c088d7e68b80a9,65af552097d7ed799e101c51,2024-01-22_23h04.27.859,bars,2023.2.3,Win32,60.24096386,657b66ea316d21385b68909f,,,,,,,,,,,1812.4126,1813.4022,,,1813.9018,1814.1516,,159,159,,,,,,,,,,,,,,,,bars/016.png,bars/mask000.png,,,,,,,,,,,,7,2,,,,,,,8,9,8,9,,,,,,,,,,,1813.4022,1813.9018,1814.1517,1818.0477,space,3.8891,,1818.0477,61,6,1819.0469,1819.0469,1819.0551,,,,0,10,10,10,1,40,165,,,,,,,,
,,613a639002c088d7e68b80a9,65af552097d7ed799e101c51,2024-01-22_23h04.27.859,bars,2023.2.3,Win32,60.24096386,657b66ea316d21385b68909f,,,,,,,,,,,1819.0552,1820.0456,,,1820.5455,1820.7953,,57,57,,,,,,,,,,,,,,,,bars/038.png,bars/mask008.png,,,,,,,,,,,,6,2,,,,,,,6,10,5,10,,,,,,,,,,,1820.0456,1820.5455,1820.7953,1823.4264,space,2.6205,,1823.4264,72,13,1824.4248,1824.4248,1824.433,,,,0,11,11,11,1,165,70,,,,,,,,
,,613a639002c088d7e68b80a9,65af552097d7ed799e101c51,2024-01-22_23h04.27.859,bars,2023.2.3,Win32,60.24096386,657b66ea316d21385b68909f,,,,,,,,,,,1824.4332,1825.4238,,,1825.9233,1826.1731,,158,158,,,,,,,,,,,,,,,,bars/040.png,bars/mask004.png,,,,,,,,,,,,4,1,,,,,,,8,10,10,8,,,,,,,,,,,1825.4238,1825.9233,1826.1732,1827.5886,space,1.4061,,1827.5886,18,27,1828.5873,1828.5873,1828.5889,,,,0,12,12,12,1,140,5,,,,,,,,
,,613a639002c088d7e68b80a9,65af552097d7ed799e101c51,2024-01-22_23h04.27.859,bars,2023.2.3,Win32,60.24096386,657b66ea316d21385b68909f,,,,,,,,,,,1828.5892,1829.5864,,,1830.086,1830.3357,,107,-73,,,,,,,,,,,,,,,,bars/046.png,bars/mask008.png,,,,,,,,,,,,2,2,,,,,,,10,10,10,8,,,,,,,,,,,1829.5865,1830.086,1830.3357,1833.7488,space,3.4097,,1833.7488,48,22,1834.7479,1834.7479,1834.7634,,,,0,13,13,13,1,155,85,,,,,,,,
,,613a639002c088d7e68b80a9,65af552097d7ed799e101c51,2024-01-22_23h04.27.859,bars,2023.2.3,Win32,60.24096386,657b66ea316d21385b68909f,,,,,,,,,,,1834.7638,1835.7636,,,1836.2632,1836.5128,,104,104,,,,,,,,,,,,,,,,bars/041.png,bars/mask000.png,,,,,,,,,,,,3,2,,,,,,,8,8,7,8,,,,,,,,,,,1835.7636,1836.2632,1836.5129,1838.9605,space,2.437,,1838.9605,84,19,1839.9596,1839.9596,1839.9701,,,,0,14,14,14,1,20,85,,,,,,,,
,,613a639002c088d7e68b80a9,65af552097d7ed799e101c51,2024-01-22_23h04.27.859,bars,2023.2.3,Win32,60.24096386,657b66ea316d21385b68909f,,,,,,,,,,,1839.9703,1840.9585,,,1841.4581,1841.7077,,147,-33,,,,,,,,,,,,,,,,bars/000.png,bars/mask009.png,,,,,,,,,,,,6,2,,,,,,,6,6,7,6,,,,,,,,,,,1840.9585,1841.458,1841.7077,1844.8213,space,3.1086,,1844.8213,73,2,1845.8205,1845.8205,1845.8284,,,,0,15,15,15,1,40,145,,,,,,,,
,,613a639002c088d7e68b80a9,65af552097d7ed799e101c51,2024-01-22_23h04.27.859,bars,2023.2.3,Win32,60.24096386,657b66ea316d21385b68909f,,,,,,,,,,,1845.8286,1846.8193,,,1847.3191,1847.5688,,57,57,,,,,,,,,,,,,,,,bars/034.png,bars/mask007.png,,,,,,,,,,,,1,2,,,,,,,8,4,7,2,,,,,,,,,,,1846.8194,1847.3191,1847.5688,1850.0163,space,2.4374,,1850.0163,68,8,1851.0155,1851.0156,1851.0234,,,,0,16,16,16,1,125,65,,,,,,,,
,,613a639002c088d7e68b80a9,65af552097d7ed799e101c51,2024-01-22_23h04.27.859,bars,2023.2.3,Win32,60.24096386,657b66ea316d21385b68909f,,,,,,,,,,,1851.0236,1852.0143,,,1852.5138,1852.7635,,161,161,,,,,,,,,,,,,,,,bars/007.png,bars/mask004.png,,,,,,,,,,,,5,1,,,,,,,10,2,9,2,,,,,,,,,,,1852.0143,1852.5138,1852.7635,1856.5597,space,3.7879,,1856.5597,14,74,1857.559,1857.559,1857.5706,,,,0,17,17,17,1,175,55,,,,,,,,
,,613a639002c088d7e68b80a9,65af552097d7ed799e101c51,2024-01-22_23h04.27.859,bars,2023.2.3,Win32,60.24096386,657b66ea316d21385b68909f,,,,,,,,,,,1857.5708,1858.5744,,,1859.0741,1859.3237,,63,63,,,,,,,,,,,,,,,,bars/035.png,bars/mask009.png,,,,,,,,,,,,0,2,,,,,,,8,0,6,0,,,,,,,,,,,1858.5744,1859.0741,1859.3237,1861.6383,space,2.3055,,1861.6384,68,3,1862.6371,1862.6371,1862.6462,,,,0,18,18,18,1,175,60,,,,,,,,
,,613a639002c088d7e68b80a9,65af552097d7ed799e101c51,2024-01-22_23h04.27.859,bars,2023.2.3,Win32,60.24096386,657b66ea316d21385b68909f,,,,,,,,,,,1862.6464,1863.6363,,,1864.1358,1864.3858,,67,67,,,,,,,,,,,,,,,,bars/006.png,bars/mask005.png,,,,,,,,,,,,0,1,,,,,,,10,0,10,2,,,,,,,,,,,1863.6363,1864.1358,1864.3858,1866.75,space,2.351,,1866.75,32,33,1867.7489,1867.7489,1867.7507,,,,0,19,19,19,1,35,100,,,,,,,,
,,613a639002c088d7e68b80a9,65af552097d7ed799e101c51,2024-01-22_23h04.27.859,bars,2023.2.3,Win32,60.24096386,657b66ea316d21385b68909f,,,,,,,,,,,1867.7509,1868.748,,,1869.2472,1869.4971,,155,155,,,,,,,,,,,,,,,,bars/048.png,bars/mask001.png,,,,,,,,,,,,0,2,,,,,,,10,0,10,0,,,,,,,,,,,1868.7481,1869.2472,1869.4971,1870.5626,space,1.0597,,1870.5627,75,20,1871.5616,1871.5616,1871.5631,,,,0,20,20,20,1,50,175,,,,,,,,
,,613a639002c088d7e68b80a9,65af552097d7ed799e101c51,2024-01-22_23h04.27.859,bars,2023.2.3,Win32,60.24096386,657b66ea316d21385b68909f,,,,,,,,,,,1871.5634,1872.561,,,1873.0604,1873.31,,105,105,,,,,,,,,,,,,,,,bars/006.png,bars/mask003.png,,,,,,,,,,,,0,2,,,,,,,8,0,5,0,,,,,,,,,,,1872.561,1873.0604,1873.31,1877.2894,space,3.97,,1877.2895,70,5,1878.2885,1878.2885,1878.2987,,,,0,21,21,21,1,35,100,,,,,,,,
,,613a639002c088d7e68b80a9,65af552097d7ed799e101c51,2024-01-22_23h04.27.859,bars,2023.2.3,Win32,60.24096386,657b66ea316d21385b68909f,,,,,,,,,,,1878.2989,1879.2874,,,1879.7871,1880.0368,,108,108,,,,,,,,,,,,,,,,bars/034.png,bars/mask001.png,,,,,,,,,,,,4,1,,,,,,,10,0,9,0,,,,,,,,,,,1879.2875,1879.7871,1880.0368,1883.1668,space,3.1228,,1883.1669,17,43,1884.166,1884.166,1884.1752,,,,0,22,22,22,1,125,65,,,,,,,,
,,613a639002c088d7e68b80a9,65af552097d7ed799e101c51,2024-01-22_23h04.27.859,bars,2023.2.3,Win32,60.24096386,657b66ea316d21385b68909f,,,,,,,,,,,1884.1754,1885.1649,,,1885.6646,1885.9142,,60,60,,,,,,,,,,,,,,,,bars/030.png,bars/mask007.png,,,,,,,,,,,,1,2,,,,,,,10,2,9,1,,,,,,,,,,,1885.1649,1885.6645,1885.9142,1886.847,space,0.9177,,1886.8471,80,5,1887.8459,1887.8459,1887.8594,,,,0,23,23,23,1,140,65,,,,,,,,
,,613a639002c088d7e68b80a9,65af552097d7ed799e101c51,2024-01-22_23h04.27.859,bars,2023.2.3,Win32,60.24096386,657b66ea316d21385b68909f,,,,,,,,,,,1887.8597,1888.8614,,,1889.3608,1889.6106,,108,108,,,,,,,,,,,,,,,,bars/001.png,bars/mask001.png,,,,,,,,,,,,2,1,,,,,,,8,0,8,0,,,,,,,,,,,1888.8615,1889.3607,1889.6107,1890.6429,space,1.0222,,1890.6429,22,23,1891.6419,1891.6419,1891.6436,,,,0,24,24,24,1,130,85,,,,,,,,
,,613a639002c088d7e68b80a9,65af552097d7ed799e101c51,2024-01-22_23h04.27.859,bars,2023.2.3,Win32,60.24096386,657b66ea316d21385b68909f,,,,,,,,,,,1891.6439,1892.6409,,,1893.1405,1893.3904,,63,-117,,,,,,,,,,,,,,,,bars/034.png,bars/mask009.png,,,,,,,,,,,,0,2,,,,,,,6,0,4,0,,,,,,,,,,,1892.6409,1893.1405,1893.3905,1898.0022,space,4.6031,,1898.0023,62,2,1899.0015,1899.0015,1899.0138,,,,0,25,25,25,1,125,65,,,,,,,,
,,613a639002c088d7e68b80a9,65af552097d7ed799e101c51,2024-01-22_23h04.27.859,bars,2023.2.3,Win32,60.24096386,657b66ea316d21385b68909f,,,,,,,,,,,1899.014,1900.017,,,1900.5166,1900.7664,,133,133,,,,,,,,,,,,,,,,bars/004.png,bars/mask003.png,,,,,,,,,,,,1,2,,,,,,,4,2,3,1,,,,,,,,,,,1900.0171,1900.5166,1900.7664,1905.5282,space,4.7541,,1905.5283,72,8,1906.5273,1906.5274,1906.5355,,,,0,26,26,26,1,25,125,,,,,,,,
,,613a639002c088d7e68b80a9,65af552097d7ed799e101c51,2024-01-22_23h04.27.859,bars,2023.2.3,Win32,60.24096386,657b66ea316d21385b68909f,,,,,,,,,,,1906.5357,1907.5265,,,1908.0259,1908.2754,,118,118,,,,,,,,,,,,,,,,bars/039.png,bars/mask006.png,,,,,,,,,,,,0,2,,,,,,,2,0,2,0,,,,,,,,,,,1907.5265,1908.0259,1908.2755,1911.2559,space,2.9761,,1911.2559,57,13,1912.255,1912.255,1912.2686,,,,0,27,27,27,1,175,105,,,,,,,,
,,613a639002c088d7e68b80a9,65af552097d7ed799e101c51,2024-01-22_23h04.27.859,bars,2023.2.3,Win32,60.24096386,657b66ea316d21385b68909f,,,,,,,,,,,1912.2689,1913.2705,,,1913.7702,1914.02,,168,168,,,,,,,,,,,,,,,,bars/023.png,bars/mask000.png,,,,,,,,,,,,0,1,,,,,,,0,2,1,1,,,,,,,,,,,1913.2706,1913.7702,1914.02,1917.5829,space,3.5597,,1917.583,32,53,1918.5819,1918.5819,1918.5906,,,,0,28,28,28,1,20,115,,,,,,,,
,,613a639002c088d7e68b80a9,65af552097d7ed799e101c51,2024-01-22_23h04.27.859,bars,2023.2.3,Win32,60.24096386,657b66ea316d21385b68909f,,,,,,,,,,,1918.5909,1919.5809,,,1920.0808,1920.3303,,119,119,,,,,,,,,,,,,,,,bars/004.png,bars/mask008.png,,,,,,,,,,,,0,2,,,,,,,2,0,3,0,,,,,,,,,,,1919.5809,1920.0808,1920.3303,1923.7437,space,3.3969,,1923.7438,86,6,1924.7425,1924.7425,1924.7512,,,,0,29,29,29,1,25,125,,,,,,,,
,,613a639002c088d7e68b80a9,65af552097d7ed799e101c51,2024-01-22_23h04.27.859,bars,2023.2.3,Win32,60.24096386,657b66ea316d21385b68909f,,,,,,,,,,,1924.7514,1925.7418,,,1926.2413,1926.4916,,24,204,,,,,,,,,,,,,,,,bars/045.png,bars/mask008.png,,,,,,,,,,,,1,2,,,,,,,4,2,3,1,,,,,,,,,,,1925.7418,1926.2412,1926.4917,1928.4233,space,1.9236,,1928.4233,76,14,1929.4215,1929.4215,1929.4222,,,,0,30,30,30,1,100,10,,,,,,,,
,,613a639002c088d7e68b80a9,65af552097d7ed799e101c51,2024-01-22_23h04.27.859,bars,2023.2.3,Win32,60.24096386,657b66ea316d21385b68909f,,,,,,,,,,,1929.4223,1930.4203,,,1930.9202,1931.1696,,116,-64,,,,,,,,,,,,,,,,bars/045.png,bars/mask004.png,,,,,,,,,,,,2,1,,,,,,,2,4,4,5,,,,,,,,,,,1930.4203,1930.9202,1931.1696,1935.1992,space,4.0153,,1935.1992,16,74,1936.1983,1936.1983,1936.2068,,,,0,31,31,31,1,100,10,,,,,,,,
,,613a639002c088d7e68b80a9,65af552097d7ed799e101c51,2024-01-22_23h04.27.859,bars,2023.2.3,Win32,60.24096386,657b66ea316d21385b68909f,,,,,,,,,,,1936.2071,1937.1971,,,1937.6966,1937.9464,,38,38,,,,,,,,,,,,,,,,bars/025.png,bars/mask008.png,,,,,,,,,,,,5,2,,,,,,,0,6,1,5,,,,,,,,,,,1937.1971,1937.6965,1937.9467,1939.2119,space,1.2569,,1939.2119,67,2,1940.2107,1940.2108,1940.2202,,,,0,32,32,32,1,105,40,,,,,,,,
,,613a639002c088d7e68b80a9,65af552097d7ed799e101c51,2024-01-22_23h04.27.859,bars,2023.2.3,Win32,60.24096386,657b66ea316d21385b68909f,,,,,,,,,,,1940.2204,1941.2098,,,1941.7093,1941.9589,,128,128,,,,,,,,,,,,,,,,bars/037.png,bars/mask000.png,,,,,,,,,,,,0,1,,,,,,,0,8,0,8,,,,,,,,,,,1941.2098,1941.7093,1941.9589,1943.8573,space,1.8858,,1943.8574,22,23,1944.856,1944.856,1944.8646,,,,0,33,33,33,1,150,105,,,,,,,,
,,613a639002c088d7e68b80a9,65af552097d7ed799e101c51,2024-01-22_23h04.27.859,bars,2023.2.3,Win32,60.24096386,657b66ea316d21385b68909f,,,,,,,,,,,1944.8647,1945.8551,,,1946.3549,1946.6044,,148,148,,,,,,,,,,,,,,,,bars/040.png,bars/mask006.png,,,,,,,,,,,,0,1,,,,,,,0,6,0,6,,,,,,,,,,,1945.8551,1946.3549,1946.6045,1950.7504,space,4.1398,,1950.7504,8,37,1951.7493,1951.7493,1951.7639,,,,0,34,34,34,1,140,5,,,,,,,,
,,613a639002c088d7e68b80a9,65af552097d7ed799e101c51,2024-01-22_23h04.27.859,bars,2023.2.3,Win32,60.24096386,657b66ea316d21385b68909f,,,,,,,,,,,1951.7642,1952.765,,,1953.2645,1953.5144,,42,42,,,,,,,,,,,,,,,,bars/025.png,bars/mask007.png,,,,,,,,,,,,7,2,,,,,,,0,8,0,7,,,,,,,,,,,1952.7651,1953.2645,1953.5144,1954.9296,space,1.3982,,1954.9296,63,2,1955.9288,1955.9288,1955.9375,,,,0,35,35,35,1,105,40,,,,,,,,
,,613a639002c088d7e68b80a9,65af552097d7ed799e101c51,2024-01-22_23h04.27.859,bars,2023.2.3,Win32,60.24096386,657b66ea316d21385b68909f,,,,,,,,,,,1955.9377,1956.9275,,,1957.4272,1957.6769,,58,58,,,,,,,,,,,,,,,,bars/029.png,bars/mask000.png,,,,,,,,,,,,3,2,,,,,,,2,6,2,6,,,,,,,,,,,1956.9275,1957.4272,1957.6769,1961.3068,space,3.6224,,1961.3068,32,13,1962.3061,1962.3061,1962.3205,,,,0,36,36,36,1,90,45,,,,,,,,
,,613a639002c088d7e68b80a9,65af552097d7ed799e101c51,2024-01-22_23h04.27.859,bars,2023.2.3,Win32,60.24096386,657b66ea316d21385b68909f,,,,,,,,,,,1962.3208,1963.3213,,,1963.8209,1964.0706,,67,67,,,,,,,,,,,,,,,,bars/029.png,bars/mask007.png,,,,,,,,,,,,2,2,,,,,,,0,8,1,7,,,,,,,,,,,1963.3213,1963.8209,1964.0706,1967.3173,space,3.2324,,1967.3173,23,22,1968.3163,1968.3163,1968.3242,,,,0,37,37,37,1,90,45,,,,,,,,
,,613a639002c088d7e68b80a9,65af552097d7ed799e101c51,2024-01-22_23h04.27.859,bars,2023.2.3,Win32,60.24096386,657b66ea316d21385b68909f,,,,,,,,,,,1968.3244,1969.3155,,,1969.8151,1970.0645,,165,-15,,,,,,,,,,,,,,,,bars/005.png,bars/mask001.png,,,,,,,,,,,,1,2,,,,,,,2,10,5,9,,,,,,,,,,,1969.3155,1969.815,1970.0646,1974.6768,space,4.6043,,1974.6768,25,25,1975.6758,1975.6758,1975.684,,,,0,38,38,38,1,10,140,,,,,,,,
,,613a639002c088d7e68b80a9,65af552097d7ed799e101c51,2024-01-22_23h04.27.859,bars,2023.2.3,Win32,60.24096386,657b66ea316d21385b68909f,,,,,,,,,,,1975.6841,1976.6751,,,1977.1744,1977.424,,167,167,,,,,,,,,,,,,,,,bars/016.png,bars/mask001.png,,,,,,,,,,,,9,2,,,,,,,0,10,0,10,,,,,,,,,,,1976.6753,1977.1743,1977.424,1978.673,space,1.2325,,1978.673,53,2,1979.6719,1979.6719,1979.6728,,,,0,39,39,39,1,40,165,,,,,,,,
,,613a639002c088d7e68b80a9,65af552097d7ed799e101c51,2024-01-22_23h04.27.859,bars,2023.2.3,Win32,60.24096386,657b66ea316d21385b68909f,,,,,,,,,,,1979.673,1980.671,,,1981.1705,1981.4201,,63,63,,,,,,,,,,,,,,,,bars/025.png,bars/mask003.png,,,,,,,,,,,,2,2,,,,,,,2,10,3,10,,,,,,,,,,,1980.6711,1981.1704,1981.4201,1984.5502,space,3.1144,,1984.5503,42,23,1985.5493,1985.5493,1985.5575,,,,0,40,40,40,1,105,40,,,,,,,,
,,613a639002c088d7e68b80a9,65af552097d7ed799e101c51,2024-01-22_23h04.27.859,bars,2023.2.3,Win32,60.24096386,657b66ea316d21385b68909f,,,,,,,,,,,1985.5576,1986.5489,,,1987.048,1987.2978,,163,-17,,,,,,,,,,,,,,,,bars/007.png,bars/mask000.png,,,,,,,,,,,,4,1,,,,,,,4,10,6,10,,,,,,,,,,,1986.549,1987.0479,1987.2978,1989.046,space,1.7332,,1989.046,12,72,1990.0449,1990.0449,1990.0535,,,,0,41,41,41,1,175,55,,,,,,,,
,,613a639002c088d7e68b80a9,65af552097d7ed799e101c51,2024-01-22_23h04.27.859,bars,2023.2.3,Win32,60.24096386,657b66ea316d21385b68909f,,,,,,,,,,,1990.0537,1991.044,,,1991.5434,1991.7932,,118,-62,,,,,,,,,,,,,,,,bars/040.png,bars/mask006.png,,,,,,,,,,,,1,1,,,,,,,2,10,2,10,,,,,,,,,,,1991.0441,1991.5434,1991.7932,1995.1067,space,3.3005,,1995.1068,22,67,1996.1056,1996.1056,1996.1199,,,,0,42,42,42,1,140,5,,,,,,,,
,,613a639002c088d7e68b80a9,65af552097d7ed799e101c51,2024-01-22_23h04.27.859,bars,2023.2.3,Win32,60.24096386,657b66ea316d21385b68909f,,,,,,,,,,,1996.1201,1997.1214,,,1997.6211,1997.8706,,148,148,,,,,,,,,,,,,,,,bars/011.png,bars/mask004.png,,,,,,,,,,,,2,1,,,,,,,4,10,4,9,,,,,,,,,,,1997.1214,1997.621,1997.8706,2001.8498,space,3.9738,,2001.8499,12,63,2002.8491,2002.8491,2002.857,,,,0,43,43,43,1,160,85,,,,,,,,
,,613a639002c088d7e68b80a9,65af552097d7ed799e101c51,2024-01-22_23h04.27.859,bars,2023.2.3,Win32,60.24096386,657b66ea316d21385b68909f,,,,,,,,,,,2002.8572,2003.8482,,,2004.3476,2004.5975,,147,147,,,,,,,,,,,,,,,,bars/037.png,bars/mask003.png,,,,,,,,,,,,6,1,,,,,,,6,8,7,8,,,,,,,,,,,2003.8483,2004.3475,2004.5976,2008.2937,space,3.6877,,2008.2937,3,42,2009.2925,2009.2925,2009.3004,,,,0,44,44,44,1,150,105,,,,,,,,
,,613a639002c088d7e68b80a9,65af552097d7ed799e101c51,2024-01-22_23h04.27.859,bars,2023.2.3,Win32,60.24096386,657b66ea316d21385b68909f,,,,,,,,,,,2009.3005,2010.2918,,,2010.7915,2011.0411,,27,27,,,,,,,,,,,,,,,,bars/031.png,bars/mask005.png,,,,,,,,,,,,7,2,,,,,,,4,10,2,10,,,,,,,,,,,2010.2918,2010.7915,2011.0411,2014.9706,space,3.92,,2014.9706,87,8,2015.9695,2015.9695,2015.9824,,,,0,45,45,45,1,120,35,,,,,,,,
,,613a639002c088d7e68b80a9,65af552097d7ed799e101c51,2024-01-22_23h04.27.859,bars,2023.2.3,Win32,60.24096386,657b66ea316d21385b68909f,,,,,,,,,,,2015.9826,2016.9853,,,2017.4846,2017.7342,,40,40,,,,,,,,,,,,,,,,bars/013.png,bars/mask009.png,,,,,,,,,,,,0,2,,,,,,,2,8,2,6,,,,,,,,,,,2016.9854,2017.4845,2017.7343,2019.3163,space,1.5714,,2019.3163,35,30,2020.315,2020.3151,2020.3231,,,,0,46,46,46,1,75,10,,,,,,,,
,,613a639002c088d7e68b80a9,65af552097d7ed799e101c51,2024-01-22_23h04.27.859,bars,2023.2.3,Win32,60.24096386,657b66ea316d21385b68909f,,,,,,,,,,,2020.3233,2021.314,,,2021.8136,2022.0633,,124,124,,,,,,,,,,,,,,,,bars/028.png,bars/mask009.png,,,,,,,,,,,,6,2,,,,,,,4,6,4,7,,,,,,,,,,,2021.3141,2021.8136,2022.0634,2023.8449,space,1.7769,,2023.845,79,4,2024.844,2024.844,2024.8583,,,,0,47,47,47,1,45,120,,,,,,,,
,,613a639002c088d7e68b80a9,65af552097d7ed799e101c51,2024-01-22_23h04.27.859,bars,2023.2.3,Win32,60.24096386,657b66ea316d21385b68909f,,,,,,,,,,,2024.8587,2025.8598,,,2026.3593,2026.6093,,159,159,,,,,,,,,,,,,,,,bars/013.png,bars/mask000.png,,,,,,,,,,,,0,2,,,,,,,2,8,2,7,,,,,,,,,,,2025.8598,2026.3592,2026.6093,2027.7413,space,1.121,,2027.7413,84,31,2028.7404,2028.7404,2028.7411,,,,0,48,48,48,1,75,10,,,,,,,,
,,613a639002c088d7e68b80a9,65af552097d7ed799e101c51,2024-01-22_23h04.27.859,bars,2023.2.3,Win32,60.24096386,657b66ea316d21385b68909f,,,,,,,,,,,2028.7414,2029.7392,,,2030.2388,2030.4885,,135,135,,,,,,,,,,,,,,,,bars/023.png,bars/mask005.png,,,,,,,,,,,,3,2,,,,,,,0,10,0,10,,,,,,,,,,,2029.7392,2030.2388,2030.4886,2032.7697,space,2.2661,,2032.7697,65,20,2033.7685,2033.7686,2033.7697,,,,0,49,49,49,1,20,115,,,,,,,,
,,613a639002c088d7e68b80a9,65af552097d7ed799e101c51,2024-01-22_23h04.27.859,bars,2023.2.3,Win32,60.24096386,657b66ea316d21385b68909f,,,,,,,,,,,,,,,,,,,,,,,,,,,,,,,,,,,,,,,,,,,,,,,,,,,,,,,,,,,,,,,,,,,,,,,,,,,,,,,,,,,,,,,,,,,,,2033.7699,2093.7595,0,3,3,1,1,sequence_tables/blk026.csv
,,613a639002c088d7e68b80a9,65af552097d7ed799e101c51,2024-01-22_23h04.27.859,bars,2023.2.3,Win32,60.24096386,657b66ea316d21385b68909f,,,,,,,,,,,2390.4295,2391.4327,,,2391.9325,2392.182,,136,136,,,,,,,,,,,,,,,,bars/000.png,bars/mask001.png,,,,,,,,,,,,5,2,,,,,,,10,7,10,7,,,,,,2093.768,2390.4172,space,296.6411,,2391.4328,2391.9325,2392.1821,2393.7805,space,1.5904,,2393.7805,84,9,2394.7797,2394.7797,2394.7919,,,,0,0,0,0,1,40,145,,,,,,,,
,,613a639002c088d7e68b80a9,65af552097d7ed799e101c51,2024-01-22_23h04.27.859,bars,2023.2.3,Win32,60.24096386,657b66ea316d21385b68909f,,,,,,,,,,,2394.7921,2395.7951,,,2396.2947,2396.5443,,72,72,,,,,,,,,,,,,,,,bars/047.png,bars/mask004.png,,,,,,,,,,,,7,2,,,,,,,8,9,8,8,,,,,,,,,,,2395.7952,2396.2946,2396.5444,2398.2094,space,1.6576,,2398.2095,57,2,2399.2084,2399.2084,2399.2162,,,,0,1,1,1,1,15,70,,,,,,,,
,,613a639002c088d7e68b80a9,65af552097d7ed799e101c51,2024-01-22_23h04.27.859,bars,2023.2.3,Win32,60.24096386,657b66ea316d21385b68909f,,,,,,,,,,,2399.2165,2400.2075,,,2400.7069,2400.9568,,36,36,,,,,,,,,,,,,,,,bars/026.png,bars/mask008.png,,,,,,,,,,,,4,1,,,,,,,6,7,4,7,,,,,,,,,,,2400.2075,2400.7068,2400.9569,2403.9872,space,3.0149,,2403.9872,1,49,2404.9864,2404.9864,2404.9962,,,,0,2,2,2,1,35,85,,,,,,,,
,,613a639002c088d7e68b80a9,65af552097d7ed799e101c51,2024-01-22_23h04.27.859,bars,2023.2.3,Win32,60.24096386,657b66ea316d21385b68909f,,,,,,,,,,,2404.9964,2405.9851,,,2406.485,2406.7346,,147,147,,,,,,,,,,,,,,,,bars/036.png,bars/mask001.png,,,,,,,,,,,,7,1,,,,,,,8,9,8,10,,,,,,,,,,,2405.9851,2406.4849,2406.7346,2410.1979,space,3.451,,2410.1979,2,53,2411.1969,2411.1969,2411.2105,,,,0,3,3,3,1,145,20,,,,,,,,
,,613a639002c088d7e68b80a9,65af552097d7ed799e101c51,2024-01-22_23h04.27.859,bars,2023.2.3,Win32,60.24096386,657b66ea316d21385b68909f,,,,,,,,,,,2411.2107,2412.2122,,,2412.7119,2412.9615,,145,145,,,,,,,,,,,,,,,,bars/043.png,bars/mask006.png,,,,,,,,,,,,4,2,,,,,,,10,7,9,7,,,,,,,,,,,2412.2122,2412.7119,2412.9615,2414.0105,space,1.045,,2414.0105,65,15,2415.0097,2415.0098,2415.0117,,,,0,4,4,4,1,30,130,,,,,,,,
,,613a639002c088d7e68b80a9,65af552097d7ed799e101c51,2024-01-22_23h04.27.859,bars,2023.2.3,Win32,60.24096386,657b66ea316d21385b68909f,,,,,,,,,,,2415.012,2416.0084,,,2416.508,2416.758,,12,192,,,,,,,,,,,,,,,,bars/001.png,bars/mask000.png,,,,,,,,,,,,0,1,,,,,,,8,5,8,7,,,,,,,,,,,2416.0085,2416.508,2416.758,2418.5227,space,1.754,,2418.5227,62,73,2419.5218,2419.5218,2419.5239,,,,0,5,5,5,1,130,85,,,,,,,,
,,613a639002c088d7e68b80a9,65af552097d7ed799e101c51,2024-01-22_23h04.27.859,bars,2023.2.3,Win32,60.24096386,657b66ea316d21385b68909f,,,,,,,,,,,2419.5243,2420.521,,,2421.0205,2421.2701,,143,143,,,,,,,,,,,,,,,,bars/033.png,bars/mask007.png,,,,,,,,,,,,2,2,,,,,,,10,3,10,3,,,,,,,,,,,2420.521,2421.0205,2421.2701,2423.5512,space,2.265,,2423.5513,62,12,2424.5503,2424.5503,2424.56,,,,0,6,6,6,1,25,155,,,,,,,,
,,613a639002c088d7e68b80a9,65af552097d7ed799e101c51,2024-01-22_23h04.27.859,bars,2023.2.3,Win32,60.24096386,657b66ea316d21385b68909f,,,,,,,,,,,2424.5601,2425.5493,,,2426.0487,2426.2987,,21,21,,,,,,,,,,,,,,,,bars/012.png,bars/mask001.png,,,,,,,,,,,,2,2,,,,,,,8,5,6,2,,,,,,,,,,,2425.5493,2426.0487,2426.2987,2427.8971,space,1.5898,,2427.8971,69,6,2428.896,2428.896,2428.904,,,,0,7,7,7,1,90,15,,,,,,,,
,,613a639002c088d7e68b80a9,65af552097d7ed799e101c51,2024-01-22_23h04.27.859,bars,2023.2.3,Win32,60.24096386,657b66ea316d21385b68909f,,,,,,,,,,,2428.9042,2429.895,,,2430.3943,2430.6441,,125,125,,,,,,,,,,,,,,,,bars/024.png,bars/mask003.png,,,,,,,,,,,,8,1,,,,,,,10,3,10,2,,,,,,,,,,,2429.8951,2430.3943,2430.6441,2433.0252,space,2.3717,,2433.0252,5,45,2434.0243,2434.0243,2434.0355,,,,0,8,8,8,1,120,170,,,,,,,,
,,613a639002c088d7e68b80a9,65af552097d7ed799e101c51,2024-01-22_23h04.27.859,bars,2023.2.3,Win32,60.24096386,657b66ea316d21385b68909f,,,,,,,,,,,2434.0359,2435.0398,,,2435.5395,2435.7893,,14,194,,,,,,,,,,,,,,,,bars/018.png,bars/mask008.png,,,,,,,,,,,,0,1,,,,,,,10,1,10,3,,,,,,,,,,,2435.0399,2435.5395,2435.7894,2436.9215,space,1.1146,,2436.9215,44,76,2437.9203,2437.9203,2437.9208,,,,0,9,9,9,1,150,90,,,,,,,,
,,613a639002c088d7e68b80a9,65af552097d7ed799e101c51,2024-01-22_23h04.27.859,bars,2023.2.3,Win32,60.24096386,657b66ea316d21385b68909f,,,,,,,,,,,2437.9211,2438.9199,,,2439.419,2439.6686,,124,124,,,,,,,,,,,,,,,,bars/000.png,bars/mask005.png,,,,,,,,,,,,0,2,,,,,,,8,0,9,0,,,,,,,,,,,2438.92,2439.419,2439.6686,2441.4335,space,1.761,,2441.4335,84,21,2442.4329,2442.433,2442.4345,,,,0,10,10,10,1,40,145,,,,,,,,
,,613a639002c088d7e68b80a9,65af552097d7ed799e101c51,2024-01-22_23h04.27.859,bars,2023.2.3,Win32,60.24096386,657b66ea316d21385b68909f,,,,,,,,,,,2442.4347,2443.4317,,,2443.9311,2444.181,,46,46,,,,,,,,,,,,,,,,bars/017.png,bars/mask008.png,,,,,,,,,,,,2,2,,,,,,,6,2,7,2,,,,,,,,,,,2443.4318,2443.9311,2444.181,2445.9125,space,1.7242,,2445.9125,81,1,2446.9117,2446.9118,2446.9197,,,,0,11,11,11,1,145,45,,,,,,,,
,,613a639002c088d7e68b80a9,65af552097d7ed799e101c51,2024-01-22_23h04.27.859,bars,2023.2.3,Win32,60.24096386,657b66ea316d21385b68909f,,,,,,,,,,,2446.9198,2447.9106,,,2448.4105,2448.6599,,21,21,,,,,,,,,,,,,,,,bars/036.png,bars/mask007.png,,,,,,,,,,,,0,2,,,,,,,8,0,9,0,,,,,,,,,,,2447.9106,2448.4105,2448.6599,2453.2219,space,4.5474,,2453.222,56,1,2454.2209,2454.221,2454.229,,,,0,12,12,12,1,145,20,,,,,,,,
