init_variables.started,init_variables.stopped,participant,session,date,expName,psychopyVersion,OS,frameRate,study_id,instruction_exp.started,instruction_exp.stopped,key_resp_8.keys,key_resp_8.rt,key_resp_8.duration,instruction_single.started,instruction_single.stopped,key_resp_2.keys,key_resp_2.rt,key_resp_2.duration,interval.started,interval.stopped,cue_single.started,cue_single.stopped,mask.started,mask.stopped,ori_response_single.started,res_ori,res,ori_response_single.stopped,key_resp_single.keys,key_resp_single.rt,key_resp_single.duration,disp_single.started,disp_single.stopped,key_resp.keys,key_resp.rt,key_resp.duration,single.thisRepN,single.thisTrialN,single.thisN,single.thisIndex,single.ran,ori,path,mask_path,instruction_bandit.started,instruction_bandit.stopped,key_resp_6.keys,key_resp_6.rt,key_resp_6.duration,cue_bandit.started,cue_bandit.stopped,bandit_res.keys,bandit_res.rt,bandit_res.duration,outcome_bandit.started,rew,action,outcome_bandit.stopped,bandit.thisRepN,bandit.thisTrialN,bandit.thisN,bandit.thisIndex,bandit.ran,actual_rew1,actual_rew2,rew1,rew2,instruction_task.started,instruction_task.stopped,key_resp_7.keys,key_resp_7.rt,key_resp_7.duration,wait_ready.started,wait_ready.stopped,key_resp_3.keys,key_resp_3.rt,key_resp_3.duration,cue.started,cue.stopped,ori_response.started,ori_response.stopped,key_resp_5.keys,key_resp_5.rt,key_resp_5.duration,outcome.started,diff1,diff2,outcome.stopped,disp_outcome_practice.started,disp_outcome_practice.stopped,key_resp_4.keys,key_resp_4.rt,key_resp_4.duration,trials.thisRepN,trials.thisTrialN,trials.thisN,trials.thisIndex,trials.ran,ori1,ori2,break_blk.started,break_blk.stopped,block.thisRepN,block.thisTrialN,block.thisN,block.thisIndex,block.ran,condition_file
0.0007,0.0007,64b51ebf8e67162f918b1479,65af56b9258f4c49e4087ae0,2024-01-23_08h04.40.622,bars,2023.2.3,Win32,59.88023952,657b66ea316d21385b68909f,,,,,,,,,,,,,,,,,,,,,,,,,,,,,,,,,,,,,,,,,,,,,,,,,,,,,,,,,,,,,,,,,,,,,,,,,,,,,,,,,,,,,,,,,,,,,,,,,,,,
,,64b51ebf8e67162f918b1479,65af56b9258f4c49e4087ae0,2024-01-23_08h04.40.622,bars,2023.2.3,Win32,59.88023952,657b66ea316d21385b68909f,0.0009,9.0579,y,9.0433,,,,,,,,,,,,,,,,,,,,,,,,,,,,,,,,,,,,,,,,,,,,,,,,,,,,,,,,,,,,,,,,,,,,,,,,,,,,,,,,,,,,,,,,,,,,,,,,
,,64b51ebf8e67162f918b1479,65af56b9258f4c49e4087ae0,2024-01-23_08h04.40.622,bars,2023.2.3,Win32,59.88023952,657b66ea316d21385b68909f,,,,,,9.0582,17.373,space,8.2987,,,,,,,,,,,,,,,,,,,,,,,,,,,,,,,,,,,,,,,,,,,,,,,,,,,,,,,,,,,,,,,,,,,,,,,,,,,,,,,,,,,,,,,,,,,
,,64b51ebf8e67162f918b1479,65af56b9258f4c49e4087ae0,2024-01-23_08h04.40.622,bars,2023.2.3,Win32,59.88023952,657b66ea316d21385b68909f,,,,,,,,,,,17.3802,18.3726,18.3727,18.8726,18.8727,19.1228,19.123,0,180,24.4724,space,5.3193,,24.4726,32.3923,space,7.8972,,0,0,0,5,1,55,bars/single005.png,bars/mask008.png,,,,,,,,,,,,,,,,,,,,,,,,,,,,,,,,,,,,,,,,,,,,,,,,,,,,,,,,,,,,,,,,
,,64b51ebf8e67162f918b1479,65af56b9258f4c49e4087ae0,2024-01-23_08h04.40.622,bars,2023.2.3,Win32,59.88023952,657b66ea316d21385b68909f,,,,,,,,,,,32.4016,33.4042,33.4045,33.9038,33.9039,34.1539,34.1541,0,0,38.3871,space,4.2231,,38.3871,41.8862,space,3.4732,,0,1,1,9,1,20,bars/single009.png,bars/mask006.png,,,,,,,,,,,,,,,,,,,,,,,,,,,,,,,,,,,,,,,,,,,,,,,,,,,,,,,,,,,,,,,,
,,64b51ebf8e67162f918b1479,65af56b9258f4c49e4087ae0,2024-01-23_08h04.40.622,bars,2023.2.3,Win32,59.88023952,657b66ea316d21385b68909f,,,,,,,,,,,41.8944,42.8858,42.8858,43.3862,43.3862,43.6361,43.6361,0,0,48.7858,space,5.141,,48.7859,50.6518,space,1.837,,0,2,2,4,1,95,bars/single004.png,bars/mask004.png,,,,,,,,,,,,,,,,,,,,,,,,,,,,,,,,,,,,,,,,,,,,,,,,,,,,,,,,,,,,,,,,
,,64b51ebf8e67162f918b1479,65af56b9258f4c49e4087ae0,2024-01-23_08h04.40.622,bars,2023.2.3,Win32,59.88023952,657b66ea316d21385b68909f,,,,,,,,,,,50.6522,51.6516,51.6516,52.1516,52.1516,52.4013,52.4014,0,180,58.285,space,5.8645,,58.285,61.4836,space,3.1738,,0,3,3,3,1,20,bars/single003.png,bars/mask005.png,,,,,,,,,,,,,,,,,,,,,,,,,,,,,,,,,,,,,,,,,,,,,,,,,,,,,,,,,,,,,,,,
,,64b51ebf8e67162f918b1479,65af56b9258f4c49e4087ae0,2024-01-23_08h04.40.622,bars,2023.2.3,Win32,59.88023952,657b66ea316d21385b68909f,,,,,,,,,,,61.4842,62.4836,62.4836,62.9832,62.9832,63.2336,63.2338,0,0,68.3173,space,5.071,,68.3175,70.3507,space,2.0051,,0,4,4,6,1,175,bars/single006.png,bars/mask005.png,,,,,,,,,,,,,,,,,,,,,,,,,,,,,,,,,,,,,,,,,,,,,,,,,,,,,,,,,,,,,,,,
,,64b51ebf8e67162f918b1479,65af56b9258f4c49e4087ae0,2024-01-23_08h04.40.622,bars,2023.2.3,Win32,59.88023952,657b66ea316d21385b68909f,,,,,,,,,,,70.3515,71.3498,71.3498,71.8498,71.8499,72.1001,72.1002,0,0,78.1153,space,5.999,,78.1154,80.3161,space,2.1769,,0,5,5,8,1,160,bars/single008.png,bars/mask004.png,,,,,,,,,,,,,,,,,,,,,,,,,,,,,,,,,,,,,,,,,,,,,,,,,,,,,,,,,,,,,,,,
,,64b51ebf8e67162f918b1479,65af56b9258f4c49e4087ae0,2024-01-23_08h04.40.622,bars,2023.2.3,Win32,59.88023952,657b66ea316d21385b68909f,,,,,,,,,,,80.317,81.3176,81.3176,81.8152,81.8153,82.065,82.0652,0,180,87.9804,space,5.8997,,87.9805,92.0465,space,4.0442,,0,6,6,1,1,20,bars/single001.png,bars/mask006.png,,,,,,,,,,,,,,,,,,,,,,,,,,,,,,,,,,,,,,,,,,,,,,,,,,,,,,,,,,,,,,,,
,,64b51ebf8e67162f918b1479,65af56b9258f4c49e4087ae0,2024-01-23_08h04.40.622,bars,2023.2.3,Win32,59.88023952,657b66ea316d21385b68909f,,,,,,,,,,,92.0538,93.0462,93.0463,93.5463,93.5463,93.7962,93.7963,0,180,99.0131,space,5.2044,,99.0133,100.6297,space,1.5927,,0,7,7,2,1,145,bars/single002.png,bars/mask003.png,,,,,,,,,,,,,,,,,,,,,,,,,,,,,,,,,,,,,,,,,,,,,,,,,,,,,,,,,,,,,,,,
,,64b51ebf8e67162f918b1479,65af56b9258f4c49e4087ae0,2024-01-23_08h04.40.622,bars,2023.2.3,Win32,59.88023952,657b66ea316d21385b68909f,,,,,,,,,,,100.6308,101.6293,101.6293,102.1295,102.1296,102.3787,102.3788,0,0,106.8615,space,4.4662,,106.8615,110.0621,space,3.1767,,0,8,8,0,1,150,bars/single000.png,bars/mask006.png,,,,,,,,,,,,,,,,,,,,,,,,,,,,,,,,,,,,,,,,,,,,,,,,,,,,,,,,,,,,,,,,
,,64b51ebf8e67162f918b1479,65af56b9258f4c49e4087ae0,2024-01-23_08h04.40.622,bars,2023.2.3,Win32,59.88023952,657b66ea316d21385b68909f,,,,,,,,,,,110.0731,111.0612,111.0612,111.5613,111.5614,111.8111,111.8112,0,180,116.5631,space,4.7433,,116.5632,118.827,space,2.2319,,0,9,9,7,1,45,bars/single007.png,bars/mask009.png,,,,,,,,,,,,,,,,,,,,,,,,,,,,,,,,,,,,,,,,,,,,,,,,,,,,,,,,,,,,,,,,
,,64b51ebf8e67162f918b1479,65af56b9258f4c49e4087ae0,2024-01-23_08h04.40.622,bars,2023.2.3,Win32,59.88023952,657b66ea316d21385b68909f,,,,,,,,,,,,,,,,,,,,,,,,,,,,,,,,,,,,,118.8284,133.6412,space,14.796,,,,,,,,,,,,,,,,,,,,,,,,,,,,,,,,,,,,,,,,,,,,,,,,,,,,,,,,,,,,
,,64b51ebf8e67162f918b1479,65af56b9258f4c49e4087ae0,2024-01-23_08h04.40.622,bars,2023.2.3,Win32,59.88023952,657b66ea316d21385b68909f,,,,,,,,,,,,,,,,,,,,,,,,,,,,,,,,,,,,,,,,,,133.6522,138.7073,left,5.0334,,138.7075,9,1,139.7069,0,0,0,0,1,9,1,9,2,,,,,,,,,,,,,,,,,,,,,,,,,,,,,,,,,,,,,,,,,
,,64b51ebf8e67162f918b1479,65af56b9258f4c49e4087ae0,2024-01-23_08h04.40.622,bars,2023.2.3,Win32,59.88023952,657b66ea316d21385b68909f,,,,,,,,,,,,,,,,,,,,,,,,,,,,,,,,,,,,,,,,,,139.7076,143.5733,right,3.847,,143.5735,1,2,144.5729,0,1,1,1,1,10,0,10,1,,,,,,,,,,,,,,,,,,,,,,,,,,,,,,,,,,,,,,,,,
,,64b51ebf8e67162f918b1479,65af56b9258f4c49e4087ae0,2024-01-23_08h04.40.622,bars,2023.2.3,Win32,59.88023952,657b66ea316d21385b68909f,,,,,,,,,,,,,,,,,,,,,,,,,,,,,,,,,,,,,,,,,,144.5858,145.1727,left,0.5708,,145.1727,10,1,146.1729,0,2,2,2,1,10,2,10,2,,,,,,,,,,,,,,,,,,,,,,,,,,,,,,,,,,,,,,,,,
,,64b51ebf8e67162f918b1479,65af56b9258f4c49e4087ae0,2024-01-23_08h04.40.622,bars,2023.2.3,Win32,59.88023952,657b66ea316d21385b68909f,,,,,,,,,,,,,,,,,,,,,,,,,,,,,,,,,,,,,,,,,,146.1736,147.5561,left,1.3719,,147.5564,7,1,148.5557,0,3,3,3,1,8,4,7,3,,,,,,,,,,,,,,,,,,,,,,,,,,,,,,,,,,,,,,,,,
,,64b51ebf8e67162f918b1479,65af56b9258f4c49e4087ae0,2024-01-23_08h04.40.622,bars,2023.2.3,Win32,59.88023952,657b66ea316d21385b68909f,,,,,,,,,,,,,,,,,,,,,,,,,,,,,,,,,,,,,,,,,,148.5564,149.3892,left,0.8145,,149.3893,5,1,150.3888,0,4,4,4,1,6,2,5,1,,,,,,,,,,,,,,,,,,,,,,,,,,,,,,,,,,,,,,,,,
,,64b51ebf8e67162f918b1479,65af56b9258f4c49e4087ae0,2024-01-23_08h04.40.622,bars,2023.2.3,Win32,59.88023952,657b66ea316d21385b68909f,,,,,,,,,,,,,,,,,,,,,,,,,,,,,,,,,,,,,,,,,,150.3895,150.9559,right,0.5555,,150.956,4,2,151.955,0,5,5,5,1,4,4,4,4,,,,,,,,,,,,,,,,,,,,,,,,,,,,,,,,,,,,,,,,,
,,64b51ebf8e67162f918b1479,65af56b9258f4c49e4087ae0,2024-01-23_08h04.40.622,bars,2023.2.3,Win32,59.88023952,657b66ea316d21385b68909f,,,,,,,,,,,,,,,,,,,,,,,,,,,,,,,,,,,,,,,,,,151.9552,152.2731,left,0.3097,,152.2731,1,1,153.2718,0,6,6,6,1,2,2,1,2,,,,,,,,,,,,,,,,,,,,,,,,,,,,,,,,,,,,,,,,,
,,64b51ebf8e67162f918b1479,65af56b9258f4c49e4087ae0,2024-01-23_08h04.40.622,bars,2023.2.3,Win32,59.88023952,657b66ea316d21385b68909f,,,,,,,,,,,,,,,,,,,,,,,,,,,,,,,,,,,,,,,,,,153.2724,154.2052,left,0.921,,154.2053,0,1,155.2046,0,7,7,7,1,0,0,0,1,,,,,,,,,,,,,,,,,,,,,,,,,,,,,,,,,,,,,,,,,
,,64b51ebf8e67162f918b1479,65af56b9258f4c49e4087ae0,2024-01-23_08h04.40.622,bars,2023.2.3,Win32,59.88023952,657b66ea316d21385b68909f,,,,,,,,,,,,,,,,,,,,,,,,,,,,,,,,,,,,,,,,,,155.205,155.7221,right,0.5022,,155.7222,0,2,156.7213,0,8,8,8,1,0,2,1,0,,,,,,,,,,,,,,,,,,,,,,,,,,,,,,,,,,,,,,,,,
,,64b51ebf8e67162f918b1479,65af56b9258f4c49e4087ae0,2024-01-23_08h04.40.622,bars,2023.2.3,Win32,59.88023952,657b66ea316d21385b68909f,,,,,,,,,,,,,,,,,,,,,,,,,,,,,,,,,,,,,,,,,,156.7219,157.3884,right,0.6477,,157.3885,3,2,158.3877,0,9,9,9,1,2,4,2,3,,,,,,,,,,,,,,,,,,,,,,,,,,,,,,,,,,,,,,,,,
,,64b51ebf8e67162f918b1479,65af56b9258f4c49e4087ae0,2024-01-23_08h04.40.622,bars,2023.2.3,Win32,59.88023952,657b66ea316d21385b68909f,,,,,,,,,,,,,,,,,,,,,,,,,,,,,,,,,,,,,,,,,,158.3885,160.9877,left,2.5811,,160.9877,0,1,161.9869,0,10,10,10,1,0,2,0,3,,,,,,,,,,,,,,,,,,,,,,,,,,,,,,,,,,,,,,,,,
,,64b51ebf8e67162f918b1479,65af56b9258f4c49e4087ae0,2024-01-23_08h04.40.622,bars,2023.2.3,Win32,59.88023952,657b66ea316d21385b68909f,,,,,,,,,,,,,,,,,,,,,,,,,,,,,,,,,,,,,,,,,,161.995,162.4709,right,0.4639,,162.471,3,2,163.4704,0,11,11,11,1,0,4,0,3,,,,,,,,,,,,,,,,,,,,,,,,,,,,,,,,,,,,,,,,,
,,64b51ebf8e67162f918b1479,65af56b9258f4c49e4087ae0,2024-01-23_08h04.40.622,bars,2023.2.3,Win32,59.88023952,657b66ea316d21385b68909f,,,,,,,,,,,,,,,,,,,,,,,,,,,,,,,,,,,,,,,,,,163.471,164.0705,right,0.5804,,164.0706,6,2,165.0701,0,12,12,12,1,2,6,1,6,,,,,,,,,,,,,,,,,,,,,,,,,,,,,,,,,,,,,,,,,
,,64b51ebf8e67162f918b1479,65af56b9258f4c49e4087ae0,2024-01-23_08h04.40.622,bars,2023.2.3,Win32,59.88023952,657b66ea316d21385b68909f,,,,,,,,,,,,,,,,,,,,,,,,,,,,,,,,,,,,,,,,,,165.0708,165.7203,right,0.635,,165.7204,3,2,166.7199,0,13,13,13,1,0,4,1,3,,,,,,,,,,,,,,,,,,,,,,,,,,,,,,,,,,,,,,,,,
,,64b51ebf8e67162f918b1479,65af56b9258f4c49e4087ae0,2024-01-23_08h04.40.622,bars,2023.2.3,Win32,59.88023952,657b66ea316d21385b68909f,,,,,,,,,,,,,,,,,,,,,,,,,,,,,,,,,,,,,,,,,,166.7207,167.1198,left,0.3835,,167.1198,2,1,168.1198,0,14,14,14,1,2,6,2,7,,,,,,,,,,,,,,,,,,,,,,,,,,,,,,,,,,,,,,,,,
,,64b51ebf8e67162f918b1479,65af56b9258f4c49e4087ae0,2024-01-23_08h04.40.622,bars,2023.2.3,Win32,59.88023952,657b66ea316d21385b68909f,,,,,,,,,,,,,,,,,,,,,,,,,,,,,,,,,,,,,,,,,,168.1204,168.5532,left,0.4247,,168.5533,3,1,169.5529,0,15,15,15,1,4,8,3,9,,,,,,,,,,,,,,,,,,,,,,,,,,,,,,,,,,,,,,,,,
,,64b51ebf8e67162f918b1479,65af56b9258f4c49e4087ae0,2024-01-23_08h04.40.622,bars,2023.2.3,Win32,59.88023952,657b66ea316d21385b68909f,,,,,,,,,,,,,,,,,,,,,,,,,,,,,,,,,,,,,,,,,,169.5535,169.9533,left,0.3914,,169.9533,7,1,170.9527,0,16,16,16,1,6,6,7,7,,,,,,,,,,,,,,,,,,,,,,,,,,,,,,,,,,,,,,,,,
,,64b51ebf8e67162f918b1479,65af56b9258f4c49e4087ae0,2024-01-23_08h04.40.622,bars,2023.2.3,Win32,59.88023952,657b66ea316d21385b68909f,,,,,,,,,,,,,,,,,,,,,,,,,,,,,,,,,,,,,,,,,,170.9533,171.7863,left,0.8172,,171.7864,9,1,172.7857,0,17,17,17,1,8,4,9,5,,,,,,,,,,,,,,,,,,,,,,,,,,,,,,,,,,,,,,,,,
,,64b51ebf8e67162f918b1479,65af56b9258f4c49e4087ae0,2024-01-23_08h04.40.622,bars,2023.2.3,Win32,59.88023952,657b66ea316d21385b68909f,,,,,,,,,,,,,,,,,,,,,,,,,,,,,,,,,,,,,,,,,,172.786,173.7859,left,0.9837,,173.786,5,1,174.7858,0,18,18,18,1,6,2,5,1,,,,,,,,,,,,,,,,,,,,,,,,,,,,,,,,,,,,,,,,,
,,64b51ebf8e67162f918b1479,65af56b9258f4c49e4087ae0,2024-01-23_08h04.40.622,bars,2023.2.3,Win32,59.88023952,657b66ea316d21385b68909f,,,,,,,,,,,,,,,,,,,,,,,,,,,,,,,,,,,,,,,,,,174.7866,175.1355,right,0.3342,,175.1355,0,2,176.1354,0,19,19,19,1,8,0,7,0,,,,,,,,,,,,,,,,,,,,,,,,,,,,,,,,,,,,,,,,,
,,64b51ebf8e67162f918b1479,65af56b9258f4c49e4087ae0,2024-01-23_08h04.40.622,bars,2023.2.3,Win32,59.88023952,657b66ea316d21385b68909f,,,,,,,,,,,,,,,,,,,,,,,,,,,,,,,,,,,,,,,,,,,,,,,,,,,,,,,,,,,,176.1366,192.3848,space,16.2255,,,,,,,,,,,,,,,,,,,,,,,,,,,,,,,,,,,,,
,,64b51ebf8e67162f918b1479,65af56b9258f4c49e4087ae0,2024-01-23_08h04.40.622,bars,2023.2.3,Win32,59.88023952,657b66ea316d21385b68909f,,,,,,,,,,,193.5764,194.5723,,,195.0671,195.3063,,0,0,,,,,,,,,,,,,,,,bars/025.png,bars/mask008.png,,,,,,,,,,,,0,2,,,,,,,5,7,6,8,,,,,,192.4012,193.5674,space,1.1539,,194.5725,195.0668,195.3064,200.352,space,5.018,,200.3524,75,40,201.3487,201.3489,204.4661,space,3.0952,,0,0,0,0,1,105,40,,,,,,,,
,,64b51ebf8e67162f918b1479,65af56b9258f4c49e4087ae0,2024-01-23_08h04.40.622,bars,2023.2.3,Win32,59.88023952,657b66ea316d21385b68909f,,,,,,,,,,,204.4826,205.4815,,,205.9816,206.2315,,0,180,,,,,,,,,,,,,,,,bars/007.png,bars/mask000.png,,,,,,,,,,,,4,1,,,,,,,7,9,5,8,,,,,,,,,,,205.4817,205.9816,206.2316,214.9301,space,8.6884,,214.9303,5,55,215.93,215.9301,218.3137,space,2.3562,,0,1,1,1,1,175,55,,,,,,,,
,,64b51ebf8e67162f918b1479,65af56b9258f4c49e4087ae0,2024-01-23_08h04.40.622,bars,2023.2.3,Win32,59.88023952,657b66ea316d21385b68909f,,,,,,,,,,,218.3143,219.3128,,,219.813,220.0634,,0,180,,,,,,,,,,,,,,,,bars/010.png,bars/mask001.png,,,,,,,,,,,,2,1,,,,,,,5,10,4,10,,,,,,,,,,,219.3129,219.8129,220.0634,223.4291,space,3.3479,,223.4292,15,55,224.4291,224.4291,225.2793,space,0.8224,,0,2,2,2,1,165,55,,,,,,,,
,,64b51ebf8e67162f918b1479,65af56b9258f4c49e4087ae0,2024-01-23_08h04.40.622,bars,2023.2.3,Win32,59.88023952,657b66ea316d21385b68909f,,,,,,,,,,,225.2801,226.2787,,,226.7789,227.0285,,90,90,,,,,,,,,,,,,,,,bars/019.png,bars/mask006.png,,,,,,,,,,,,5,2,,,,,,,3,10,2,9,,,,,,,,,,,226.2788,226.7788,227.0285,232.9112,space,5.8681,,232.9113,45,15,233.9112,233.9113,235.578,space,1.6281,,0,3,3,3,1,45,105,,,,,,,,
,,64b51ebf8e67162f918b1479,65af56b9258f4c49e4087ae0,2024-01-23_08h04.40.622,bars,2023.2.3,Win32,59.88023952,657b66ea316d21385b68909f,,,,,,,,,,,235.5788,236.5841,,,237.0779,237.3273,,90,90,,,,,,,,,,,,,,,,bars/039.png,bars/mask007.png,,,,,,,,,,,,5,2,,,,,,,1,10,0,10,,,,,,,,,,,236.5843,237.0776,237.3274,243.7768,space,6.4171,,243.7771,85,15,244.7659,244.7659,246.5509,space,1.7597,,0,4,4,4,1,175,105,,,,,,,,
,,64b51ebf8e67162f918b1479,65af56b9258f4c49e4087ae0,2024-01-23_08h04.40.622,bars,2023.2.3,Win32,59.88023952,657b66ea316d21385b68909f,,,,,,,,,,,246.5513,247.5428,,,248.0432,248.2926,,0,180,,,,,,,,,,,,,,,,bars/049.png,bars/mask004.png,,,,,,,,,,,,0,1,,,,,,,0,10,1,10,,,,,,,,,,,247.5432,248.043,248.293,252.6591,space,4.3408,,252.6595,20,65,253.6584,253.6585,255.459,space,1.7672,,0,5,5,5,1,160,115,,,,,,,,
,,64b51ebf8e67162f918b1479,65af56b9258f4c49e4087ae0,2024-01-23_08h04.40.622,bars,2023.2.3,Win32,59.88023952,657b66ea316d21385b68909f,,,,,,,,,,,255.4598,256.4583,,,256.9586,257.2082,,90,90,,,,,,,,,,,,,,,,bars/032.png,bars/mask009.png,,,,,,,,,,,,0,1,,,,,,,2,8,1,10,,,,,,,,,,,256.4584,256.9584,257.2083,266.0576,space,8.8405,,266.0578,35,70,267.0568,267.0569,267.7903,space,0.704,,0,6,6,6,1,125,20,,,,,,,,
,,64b51ebf8e67162f918b1479,65af56b9258f4c49e4087ae0,2024-01-23_08h04.40.622,bars,2023.2.3,Win32,59.88023952,657b66ea316d21385b68909f,,,,,,,,,,,267.7912,268.7899,,,269.2901,269.54,,0,180,,,,,,,,,,,,,,,,bars/036.png,bars/mask004.png,,,,,,,,,,,,2,2,,,,,,,0,6,0,5,,,,,,,,,,,268.79,269.29,269.54,274.9561,space,5.4047,,274.9562,35,20,275.9555,275.9556,279.0054,space,3.0173,,0,7,7,7,1,145,20,,,,,,,,
,,64b51ebf8e67162f918b1479,65af56b9258f4c49e4087ae0,2024-01-23_08h04.40.622,bars,2023.2.3,Win32,59.88023952,657b66ea316d21385b68909f,,,,,,,,,,,279.006,280.0052,,,280.5049,280.7549,,0,180,,,,,,,,,,,,,,,,bars/016.png,bars/mask009.png,,,,,,,,,,,,4,2,,,,,,,0,8,1,7,,,,,,,,,,,280.0053,280.5049,280.7549,285.8214,space,5.0483,,285.8218,40,15,286.8208,286.8209,287.8877,space,1.0428,,0,8,8,8,1,40,165,,,,,,,,
,,64b51ebf8e67162f918b1479,65af56b9258f4c49e4087ae0,2024-01-23_08h04.40.622,bars,2023.2.3,Win32,59.88023952,657b66ea316d21385b68909f,,,,,,,,,,,287.8885,288.8871,,,289.3873,289.6372,,90,90,,,,,,,,,,,,,,,,bars/045.png,bars/mask003.png,,,,,,,,,,,,0,1,,,,,,,0,6,0,5,,,,,,,,,,,288.8871,289.3873,289.6373,293.1867,space,3.5302,,293.1868,10,80,294.1866,294.1868,296.8533,space,2.6393,,0,9,9,9,1,100,10,,,,,,,,
,,64b51ebf8e67162f918b1479,65af56b9258f4c49e4087ae0,2024-01-23_08h04.40.622,bars,2023.2.3,Win32,59.88023952,657b66ea316d21385b68909f,,,,,,,,,,,296.8542,297.8532,,,298.3526,298.6027,,90,90,,,,,,,,,,,,,,,,bars/003.png,bars/mask009.png,,,,,,,,,,,,0,2,,,,,,,0,8,1,8,,,,,,,,,,,297.8533,298.3526,298.6028,303.3021,space,4.6804,,303.3022,65,50,304.302,304.302,305.8185,space,1.4824,,0,10,10,10,1,25,140,,,,,,,,
,,64b51ebf8e67162f918b1479,65af56b9258f4c49e4087ae0,2024-01-23_08h04.40.622,bars,2023.2.3,Win32,59.88023952,657b66ea316d21385b68909f,,,,,,,,,,,305.819,306.8183,,,307.3183,307.5681,,0,0,,,,,,,,,,,,,,,,bars/013.png,bars/mask009.png,,,,,,,,,,,,7,2,,,,,,,0,10,0,10,,,,,,,,,,,306.8184,307.3183,307.5682,314.601,space,7.017,,314.6011,75,10,315.6005,315.6006,317.7837,space,2.153,,0,11,11,11,1,75,10,,,,,,,,
,,64b51ebf8e67162f918b1479,65af56b9258f4c49e4087ae0,2024-01-23_08h04.40.622,bars,2023.2.3,Win32,59.88023952,657b66ea316d21385b68909f,,,,,,,,,,,317.7842,318.7839,,,319.2832,319.5331,,0,180,,,,,,,,,,,,,,,,bars/023.png,bars/mask005.png,,,,,,,,,,,,0,1,,,,,,,0,8,0,8,,,,,,,,,,,318.7839,319.2832,319.5331,324.8161,space,5.2683,,324.8162,20,65,325.8157,325.8157,328.0821,space,2.246,,0,12,12,12,1,20,115,,,,,,,,
,,64b51ebf8e67162f918b1479,65af56b9258f4c49e4087ae0,2024-01-23_08h04.40.622,bars,2023.2.3,Win32,59.88023952,657b66ea316d21385b68909f,,,,,,,,,,,328.0824,329.082,,,329.582,329.8319,,0,0,,,,,,,,,,,,,,,,bars/023.png,bars/mask009.png,,,,,,,,,,,,1,1,,,,,,,2,6,2,5,,,,,,,,,,,329.0822,329.582,329.832,336.2148,space,6.3685,,336.2148,20,65,337.2144,337.2144,339.3309,space,2.0887,,0,13,13,13,1,20,115,,,,,,,,
,,64b51ebf8e67162f918b1479,65af56b9258f4c49e4087ae0,2024-01-23_08h04.40.622,bars,2023.2.3,Win32,59.88023952,657b66ea316d21385b68909f,,,,,,,,,,,339.3319,340.3306,,,340.8308,341.0803,,0,180,,,,,,,,,,,,,,,,bars/036.png,bars/mask009.png,,,,,,,,,,,,3,2,,,,,,,0,8,1,8,,,,,,,,,,,340.3307,340.8307,341.0803,346.6463,space,5.5499,,346.6463,35,20,347.6462,347.6463,349.4969,space,1.83,,0,14,14,14,1,145,20,,,,,,,,
,,64b51ebf8e67162f918b1479,65af56b9258f4c49e4087ae0,2024-01-23_08h04.40.622,bars,2023.2.3,Win32,59.88023952,657b66ea316d21385b68909f,,,,,,,,,,,349.4976,350.4962,,,350.996,351.2341,,0,180,,,,,,,,,,,,,,,,bars/013.png,bars/mask002.png,,,,,,,,,,,,7,2,,,,,,,2,10,0,10,,,,,,,,,,,350.4963,350.996,351.2342,355.9122,space,4.6676,,355.9124,75,10,356.9116,356.9116,358.5287,space,1.5997,,0,15,15,15,1,75,10,,,,,,,,
,,64b51ebf8e67162f918b1479,65af56b9258f4c49e4087ae0,2024-01-23_08h04.40.622,bars,2023.2.3,Win32,59.88023952,657b66ea316d21385b68909f,,,,,,,,,,,358.5292,359.5281,,,360.0279,360.278,,0,0,,,,,,,,,,,,,,,,bars/012.png,bars/mask004.png,,,,,,,,,,,,5,2,,,,,,,4,10,2,10,,,,,,,,,,,359.5281,360.0278,360.278,364.1276,space,3.8359,,364.1277,90,15,365.1271,365.1272,366.9938,space,1.8428,,0,16,16,16,1,90,15,,,,,,,,
,,64b51ebf8e67162f918b1479,65af56b9258f4c49e4087ae0,2024-01-23_08h04.40.622,bars,2023.2.3,Win32,59.88023952,657b66ea316d21385b68909f,,,,,,,,,,,366.9942,367.9935,,,368.4939,368.7438,,0,180,,,,,,,,,,,,,,,,bars/037.png,bars/mask001.png,,,,,,,,,,,,0,1,,,,,,,2,8,2,9,,,,,,,,,,,367.9936,368.4938,368.7438,374.1931,space,5.4407,,374.1931,30,75,375.1928,375.1929,377.4429,space,2.2177,,0,17,17,17,1,150,105,,,,,,,,
,,64b51ebf8e67162f918b1479,65af56b9258f4c49e4087ae0,2024-01-23_08h04.40.622,bars,2023.2.3,Win32,59.88023952,657b66ea316d21385b68909f,,,,,,,,,,,377.4438,378.4423,,,378.9423,379.1922,,0,0,,,,,,,,,,,,,,,,bars/037.png,bars/mask004.png,,,,,,,,,,,,0,1,,,,,,,0,6,0,7,,,,,,,,,,,378.4423,378.9422,379.1923,383.8917,space,4.688,,383.8919,30,75,384.8916,384.8916,386.2079,space,1.2997,,0,18,18,18,1,150,105,,,,,,,,
,,64b51ebf8e67162f918b1479,65af56b9258f4c49e4087ae0,2024-01-23_08h04.40.622,bars,2023.2.3,Win32,59.88023952,657b66ea316d21385b68909f,,,,,,,,,,,386.2082,387.2077,,,387.7079,387.9577,,90,90,,,,,,,,,,,,,,,,bars/046.png,bars/mask009.png,,,,,,,,,,,,3,2,,,,,,,0,4,2,3,,,,,,,,,,,387.2078,387.7077,387.9577,390.1743,space,2.2049,,390.1744,65,5,391.1739,391.1739,392.7905,space,1.586,,0,19,19,19,1,155,85,,,,,,,,
,,64b51ebf8e67162f918b1479,65af56b9258f4c49e4087ae0,2024-01-23_08h04.40.622,bars,2023.2.3,Win32,59.88023952,657b66ea316d21385b68909f,,,,,,,,,,,392.7911,393.7902,,,394.2901,394.5401,,90,90,,,,,,,,,,,,,,,,bars/019.png,bars/mask005.png,,,,,,,,,,,,1,2,,,,,,,2,2,1,1,,,,,,,,,,,393.7903,394.2901,394.5401,398.4729,space,3.924,,398.4729,45,15,399.4729,399.473,401.2064,space,1.7049,,0,20,20,20,1,45,105,,,,,,,,
,,64b51ebf8e67162f918b1479,65af56b9258f4c49e4087ae0,2024-01-23_08h04.40.622,bars,2023.2.3,Win32,59.88023952,657b66ea316d21385b68909f,,,,,,,,,,,401.2071,402.2059,,,402.7056,402.9557,,0,180,,,,,,,,,,,,,,,,bars/027.png,bars/mask006.png,,,,,,,,,,,,0,2,,,,,,,4,0,4,0,,,,,,,,,,,402.206,402.7055,402.9557,408.2386,space,5.2686,,408.2386,70,50,409.2382,409.2383,411.9048,space,2.6393,,0,21,21,21,1,110,50,,,,,,,,
,,64b51ebf8e67162f918b1479,65af56b9258f4c49e4087ae0,2024-01-23_08h04.40.622,bars,2023.2.3,Win32,59.88023952,657b66ea316d21385b68909f,,,,,,,,,,,411.9057,412.9043,,,413.4045,413.6544,,0,180,,,,,,,,,,,,,,,,bars/035.png,bars/mask009.png,,,,,,,,,,,,3,1,,,,,,,2,0,3,0,,,,,,,,,,,412.9043,413.4044,413.6544,416.3542,space,2.6895,,416.3544,5,60,417.3538,417.3539,419.7539,space,2.3729,,0,22,22,22,1,175,60,,,,,,,,
,,64b51ebf8e67162f918b1479,65af56b9258f4c49e4087ae0,2024-01-23_08h04.40.622,bars,2023.2.3,Win32,59.88023952,657b66ea316d21385b68909f,,,,,,,,,,,419.7547,420.7534,,,421.2536,421.5035,,0,0,,,,,,,,,,,,,,,,bars/013.png,bars/mask008.png,,,,,,,,,,,,0,2,,,,,,,0,0,1,0,,,,,,,,,,,420.7535,421.2534,421.5036,425.4195,space,3.8967,,425.4198,75,10,426.4194,426.4194,428.5526,space,2.1029,,0,23,23,23,1,75,10,,,,,,,,
,,64b51ebf8e67162f918b1479,65af56b9258f4c49e4087ae0,2024-01-23_08h04.40.622,bars,2023.2.3,Win32,59.88023952,657b66ea316d21385b68909f,,,,,,,,,,,428.5535,429.5523,,,430.0523,430.3022,,0,180,,,,,,,,,,,,,,,,bars/026.png,bars/mask009.png,,,,,,,,,,,,0,1,,,,,,,2,2,2,1,,,,,,,,,,,429.5524,430.0522,430.3023,433.3522,space,3.0345,,433.3522,35,85,434.3516,434.3516,435.6517,space,1.2689,,0,24,24,24,1,35,85,,,,,,,,
,,64b51ebf8e67162f918b1479,65af56b9258f4c49e4087ae0,2024-01-23_08h04.40.622,bars,2023.2.3,Win32,59.88023952,657b66ea316d21385b68909f,,,,,,,,,,,435.6522,436.6513,,,437.1512,437.4013,,0,180,,,,,,,,,,,,,,,,bars/006.png,bars/mask000.png,,,,,,,,,,,,0,1,,,,,,,0,0,0,0,,,,,,,,,,,436.6514,437.1512,437.4013,441.6676,space,4.2551,,441.6676,35,80,442.6674,442.6674,445.0337,space,2.3343,,0,25,25,25,1,35,100,,,,,,,,
,,64b51ebf8e67162f918b1479,65af56b9258f4c49e4087ae0,2024-01-23_08h04.40.622,bars,2023.2.3,Win32,59.88023952,657b66ea316d21385b68909f,,,,,,,,,,,445.0346,446.0335,,,446.5336,446.7835,,90,90,,,,,,,,,,,,,,,,bars/018.png,bars/mask002.png,,,,,,,,,,,,0,2,,,,,,,0,0,0,0,,,,,,,,,,,446.0336,446.5335,446.7835,448.2841,space,1.4886,,448.2841,60,0,449.2832,449.2834,451.6663,space,2.3602,,0,26,26,26,1,150,90,,,,,,,,
,,64b51ebf8e67162f918b1479,65af56b9258f4c49e4087ae0,2024-01-23_08h04.40.622,bars,2023.2.3,Win32,59.88023952,657b66ea316d21385b68909f,,,,,,,,,,,451.667,452.6659,,,453.1656,453.416,,90,90,,,,,,,,,,,,,,,,bars/009.png,bars/mask006.png,,,,,,,,,,,,1,2,,,,,,,2,0,2,1,,,,,,,,,,,452.666,453.1656,453.416,457.6156,space,4.1834,,457.6157,75,15,458.6151,458.6152,466.6145,space,7.9706,,0,27,27,27,1,15,105,,,,,,,,
,,64b51ebf8e67162f918b1479,65af56b9258f4c49e4087ae0,2024-01-23_08h04.40.622,bars,2023.2.3,Win32,59.88023952,657b66ea316d21385b68909f,,,,,,,,,,,466.6292,467.6305,,,468.1306,468.3806,,0,0,,,,,,,,,,,,,,,,bars/016.png,bars/mask006.png,,,,,,,,,,,,1,2,,,,,,,0,2,2,2,,,,,,,,,,,467.6305,468.1306,468.3806,471.447,space,3.0506,,471.4472,40,15,472.4465,472.4466,474.5467,space,2.0827,,0,28,28,28,1,40,165,,,,,,,,
,,64b51ebf8e67162f918b1479,65af56b9258f4c49e4087ae0,2024-01-23_08h04.40.622,bars,2023.2.3,Win32,59.88023952,657b66ea316d21385b68909f,,,,,,,,,,,474.5474,475.5463,,,476.0462,476.2962,,0,180,,,,,,,,,,,,,,,,bars/039.png,bars/mask007.png,,,,,,,,,,,,1,1,,,,,,,2,0,1,0,,,,,,,,,,,475.5464,476.0461,476.2962,480.5959,space,4.2876,,480.5961,5,75,481.5955,481.5955,482.6794,space,1.0512,,0,29,29,29,1,175,105,,,,,,,,
,,64b51ebf8e67162f918b1479,65af56b9258f4c49e4087ae0,2024-01-23_08h04.40.622,bars,2023.2.3,Win32,59.88023952,657b66ea316d21385b68909f,,,,,,,,,,,482.6801,483.6786,,,484.1786,484.4285,,0,0,,,,,,,,,,,,,,,,bars/024.png,bars/mask006.png,,,,,,,,,,,,2,2,,,,,,,0,2,1,3,,,,,,,,,,,483.6787,484.1785,484.4285,489.1778,space,4.7343,,489.1779,60,10,490.1776,490.1776,491.5112,space,1.3092,,0,30,30,30,1,120,170,,,,,,,,
,,64b51ebf8e67162f918b1479,65af56b9258f4c49e4087ae0,2024-01-23_08h04.40.622,bars,2023.2.3,Win32,59.88023952,657b66ea316d21385b68909f,,,,,,,,,,,491.512,492.5109,,,493.0107,493.2606,,0,180,,,,,,,,,,,,,,,,bars/035.png,bars/mask000.png,,,,,,,,,,,,0,1,,,,,,,0,0,0,1,,,,,,,,,,,492.511,493.0107,493.2607,498.8934,space,5.6192,,498.8936,5,60,499.8931,499.8933,500.8765,space,0.9565,,0,31,31,31,1,175,60,,,,,,,,
,,64b51ebf8e67162f918b1479,65af56b9258f4c49e4087ae0,2024-01-23_08h04.40.622,bars,2023.2.3,Win32,59.88023952,657b66ea316d21385b68909f,,,,,,,,,,,500.8769,501.8761,,,502.376,502.6259,,0,0,,,,,,,,,,,,,,,,bars/012.png,bars/mask005.png,,,,,,,,,,,,1,2,,,,,,,2,2,2,2,,,,,,,,,,,501.8763,502.3759,502.626,509.3584,space,6.7174,,509.3585,90,15,510.3584,510.3584,514.7913,space,4.4036,,0,32,32,32,1,90,15,,,,,,,,
,,64b51ebf8e67162f918b1479,65af56b9258f4c49e4087ae0,2024-01-23_08h04.40.622,bars,2023.2.3,Win32,59.88023952,657b66ea316d21385b68909f,,,,,,,,,,,514.804,515.8074,,,516.3077,516.5577,,0,0,,,,,,,,,,,,,,,,bars/004.png,bars/mask003.png,,,,,,,,,,,,1,1,,,,,,,4,4,4,6,,,,,,,,,,,515.8074,516.3076,516.5578,521.1072,space,4.5307,,521.1073,25,55,522.1069,522.107,523.1402,space,1.0057,,0,33,33,33,1,25,125,,,,,,,,
,,64b51ebf8e67162f918b1479,65af56b9258f4c49e4087ae0,2024-01-23_08h04.40.622,bars,2023.2.3,Win32,59.88023952,657b66ea316d21385b68909f,,,,,,,,,,,523.141,524.1398,,,524.6398,524.8898,,90,90,,,,,,,,,,,,,,,,bars/025.png,bars/mask006.png,,,,,,,,,,,,4,1,,,,,,,6,2,7,2,,,,,,,,,,,524.14,524.6398,524.8899,529.8894,space,4.9898,,529.8894,15,50,530.8891,530.8892,532.0056,space,1.0901,,0,34,34,34,1,105,40,,,,,,,,
,,64b51ebf8e67162f918b1479,65af56b9258f4c49e4087ae0,2024-01-23_08h04.40.622,bars,2023.2.3,Win32,59.88023952,657b66ea316d21385b68909f,,,,,,,,,,,532.0059,533.0054,,,533.5055,533.7554,,90,90,,,,,,,,,,,,,,,,bars/035.png,bars/mask002.png,,,,,,,,,,,,0,2,,,,,,,4,4,4,4,,,,,,,,,,,533.0054,533.5054,533.7554,538.0553,space,4.2946,,538.0554,85,30,539.0547,539.0548,545.337,space,6.2574,,0,35,35,35,1,175,60,,,,,,,,
,,64b51ebf8e67162f918b1479,65af56b9258f4c49e4087ae0,2024-01-23_08h04.40.622,bars,2023.2.3,Win32,59.88023952,657b66ea316d21385b68909f,,,,,,,,,,,545.3446,546.337,,,546.8371,547.087,,159,-21,,,,,,,,,,,,,,,,bars/012.png,bars/mask009.png,,,,,,,,,,,,0,2,,,,,,,2,6,3,5,,,,,,,,,,,546.3371,546.837,547.087,551.8866,space,4.7831,,551.8867,69,36,552.8862,552.8863,553.8864,space,0.9744,,0,36,36,36,1,90,15,,,,,,,,
,,64b51ebf8e67162f918b1479,65af56b9258f4c49e4087ae0,2024-01-23_08h04.40.622,bars,2023.2.3,Win32,59.88023952,657b66ea316d21385b68909f,,,,,,,,,,,553.8874,554.886,,,555.3861,555.6358,,69,69,,,,,,,,,,,,,,,,bars/026.png,bars/mask000.png,,,,,,,,,,,,3,2,,,,,,,4,8,4,7,,,,,,,,,,,554.886,555.386,555.6359,558.7211,space,3.0701,,558.7213,34,16,559.7187,559.7187,561.4357,space,1.6932,,0,37,37,37,1,35,85,,,,,,,,
,,64b51ebf8e67162f918b1479,65af56b9258f4c49e4087ae0,2024-01-23_08h04.40.622,bars,2023.2.3,Win32,59.88023952,657b66ea316d21385b68909f,,,,,,,,,,,561.4362,562.4347,,,562.935,563.1849,,146,146,,,,,,,,,,,,,,,,bars/033.png,bars/mask006.png,,,,,,,,,,,,7,2,,,,,,,6,10,7,10,,,,,,,,,,,562.4347,562.9349,563.185,565.4516,space,2.2514,,565.4516,59,9,566.4508,566.4508,568.5509,space,2.0739,,0,38,38,38,1,25,155,,,,,,,,
,,64b51ebf8e67162f918b1479,65af56b9258f4c49e4087ae0,2024-01-23_08h04.40.622,bars,2023.2.3,Win32,59.88023952,657b66ea316d21385b68909f,,,,,,,,,,,568.5514,569.5508,,,570.0507,570.3008,,90,90,,,,,,,,,,,,,,,,bars/015.png,bars/mask005.png,,,,,,,,,,,,3,1,,,,,,,8,8,8,8,,,,,,,,,,,569.5509,570.0506,570.3009,574.5841,space,4.2753,,574.5842,20,70,575.5832,575.5832,576.4663,space,0.8587,,0,39,39,39,1,110,160,,,,,,,,
,,64b51ebf8e67162f918b1479,65af56b9258f4c49e4087ae0,2024-01-23_08h04.40.622,bars,2023.2.3,Win32,59.88023952,657b66ea316d21385b68909f,,,,,,,,,,,576.4666,577.4663,,,577.9661,578.2162,,75,75,,,,,,,,,,,,,,,,bars/023.png,bars/mask006.png,,,,,,,,,,,,0,2,,,,,,,10,6,10,5,,,,,,,,,,,577.4664,577.9661,578.2163,582.2004,space,3.976,,582.2005,55,40,583.1986,583.1987,584.0154,space,0.7989,,0,40,40,40,1,20,115,,,,,,,,
,,64b51ebf8e67162f918b1479,65af56b9258f4c49e4087ae0,2024-01-23_08h04.40.622,bars,2023.2.3,Win32,59.88023952,657b66ea316d21385b68909f,,,,,,,,,,,584.0157,585.0152,,,585.5161,585.7666,,143,143,,,,,,,,,,,,,,,,bars/005.png,bars/mask003.png,,,,,,,,,,,,6,2,,,,,,,8,8,7,7,,,,,,,,,,,585.0153,585.5161,585.7666,591.0814,space,5.3067,,591.0815,47,3,592.081,592.081,592.9979,space,0.8871,,0,41,41,41,1,10,140,,,,,,,,
,,64b51ebf8e67162f918b1479,65af56b9258f4c49e4087ae0,2024-01-23_08h04.40.622,bars,2023.2.3,Win32,59.88023952,657b66ea316d21385b68909f,,,,,,,,,,,592.9987,593.9975,,,594.4974,594.7471,,158,158,,,,,,,,,,,,,,,,bars/016.png,bars/mask002.png,,,,,,,,,,,,8,2,,,,,,,10,10,10,10,,,,,,,,,,,593.9976,594.4973,594.7471,608.4958,space,13.7403,,608.4959,62,7,609.4954,609.4955,611.8455,space,2.3228,,0,42,42,42,1,40,165,,,,,,,,
,,64b51ebf8e67162f918b1479,65af56b9258f4c49e4087ae0,2024-01-23_08h04.40.622,bars,2023.2.3,Win32,59.88023952,657b66ea316d21385b68909f,,,,,,,,,,,611.8462,612.845,,,613.3451,613.5947,,18,198,,,,,,,,,,,,,,,,bars/008.png,bars/mask005.png,,,,,,,,,,,,4,2,,,,,,,10,10,9,10,,,,,,,,,,,612.8451,613.3451,613.5947,618.7444,space,5.1412,,618.7444,88,18,619.7442,619.7442,620.6634,space,0.892,,0,43,43,43,1,110,0,,,,,,,,
,,64b51ebf8e67162f918b1479,65af56b9258f4c49e4087ae0,2024-01-23_08h04.40.622,bars,2023.2.3,Win32,59.88023952,657b66ea316d21385b68909f,,,,,,,,,,,620.6637,621.6612,,,622.1615,622.4107,,69,69,,,,,,,,,,,,,,,,bars/035.png,bars/mask000.png,,,,,,,,,,,,7,2,,,,,,,10,10,10,10,,,,,,,,,,,621.6613,622.1614,622.4109,625.6112,space,3.1886,,625.6113,74,9,626.6103,626.6105,628.2774,space,1.6363,,0,44,44,44,1,175,60,,,,,,,,
,,64b51ebf8e67162f918b1479,65af56b9258f4c49e4087ae0,2024-01-23_08h04.40.622,bars,2023.2.3,Win32,59.88023952,657b66ea316d21385b68909f,,,,,,,,,,,628.278,629.2767,,,629.7768,630.0266,,90,90,,,,,,,,,,,,,,,,bars/048.png,bars/mask006.png,,,,,,,,,,,,0,1,,,,,,,10,8,10,6,,,,,,,,,,,629.2767,629.7768,630.0267,631.9936,space,1.9567,,631.9937,40,85,632.9929,632.993,634.0435,space,1.0262,,0,45,45,45,1,50,175,,,,,,,,
,,64b51ebf8e67162f918b1479,65af56b9258f4c49e4087ae0,2024-01-23_08h04.40.622,bars,2023.2.3,Win32,59.88023952,657b66ea316d21385b68909f,,,,,,,,,,,634.045,635.0426,,,635.5427,635.7929,,162,-18,,,,,,,,,,,,,,,,bars/000.png,bars/mask001.png,,,,,,,,,,,,3,2,,,,,,,8,6,6,6,,,,,,,,,,,635.0427,635.5425,635.7929,646.3242,space,10.519,,646.3244,58,17,647.3238,647.3239,648.374,space,1.0245,,0,46,46,46,1,40,145,,,,,,,,
,,64b51ebf8e67162f918b1479,65af56b9258f4c49e4087ae0,2024-01-23_08h04.40.622,bars,2023.2.3,Win32,59.88023952,657b66ea316d21385b68909f,,,,,,,,,,,648.3749,649.3735,,,649.8736,650.1235,,145,145,,,,,,,,,,,,,,,,bars/005.png,bars/mask002.png,,,,,,,,,,,,3,2,,,,,,,10,4,10,4,,,,,,,,,,,649.3736,649.8736,650.1236,652.473,space,2.3393,,652.473,45,5,653.473,653.473,654.8897,space,1.3891,,0,47,47,47,1,10,140,,,,,,,,
,,64b51ebf8e67162f918b1479,65af56b9258f4c49e4087ae0,2024-01-23_08h04.40.622,bars,2023.2.3,Win32,59.88023952,657b66ea316d21385b68909f,,,,,,,,,,,654.8905,655.8894,,,656.3893,656.6394,,57,57,,,,,,,,,,,,,,,,bars/003.png,bars/mask006.png,,,,,,,,,,,,0,1,,,,,,,8,2,7,2,,,,,,,,,,,655.8895,656.3893,656.6395,675.6884,space,19.0398,,675.6884,32,83,676.6868,676.6868,677.2532,space,0.5371,,0,48,48,48,1,25,140,,,,,,,,
,,64b51ebf8e67162f918b1479,65af56b9258f4c49e4087ae0,2024-01-23_08h04.40.622,bars,2023.2.3,Win32,59.88023952,657b66ea316d21385b68909f,,,,,,,,,,,677.2537,678.2532,,,678.7532,679.0032,,30,30,,,,,,,,,,,,,,,,bars/024.png,bars/mask002.png,,,,,,,,,,,,0,2,,,,,,,10,0,10,0,,,,,,,,,,,678.2533,678.7531,679.0032,687.136,space,8.1243,,687.136,90,40,688.1351,688.1352,688.6854,space,0.5214,,0,49,49,49,1,120,170,,,,,,,,
,,64b51ebf8e67162f918b1479,65af56b9258f4c49e4087ae0,2024-01-23_08h04.40.622,bars,2023.2.3,Win32,59.88023952,657b66ea316d21385b68909f,,,,,,,,,,,,,,,,,,,,,,,,,,,,,,,,,,,,,,,,,,,,,,,,,,,,,,,,,,,,,,,,,,,,,,,,,,,,,,,,,,,,,,,,,,,,,688.687,748.6797,0,0,0,1,1,sequence_tables/blk002.csv
,,64b51ebf8e67162f918b1479,65af56b9258f4c49e4087ae0,2024-01-23_08h04.40.622,bars,2023.2.3,Win32,59.88023952,657b66ea316d21385b68909f,,,,,,,,,,,754.5488,755.5439,,,756.0433,756.2941,,65,245,,,,,,,,,,,,,,,,bars/007.png,bars/mask006.png,,,,,,,,,,,,2,2,,,,,,,0,3,0,3,,,,,,748.7,754.5276,space,5.8097,,755.544,756.0433,756.2942,769.858,space,13.5469,,769.8581,70,10,770.8577,770.8578,770.8729,,,,0,0,0,0,1,175,55,,,,,,,,
,,64b51ebf8e67162f918b1479,65af56b9258f4c49e4087ae0,2024-01-23_08h04.40.622,bars,2023.2.3,Win32,59.88023952,657b66ea316d21385b68909f,,,,,,,,,,,770.8732,771.8742,,,772.3741,772.6239,,0,0,,,,,,,,,,,,,,,,bars/028.png,bars/mask004.png,,,,,,,,,,,,0,1,,,,,,,2,5,0,6,,,,,,,,,,,771.8743,772.3741,772.6241,777.2403,space,4.5994,,777.2404,45,60,778.2399,778.24,778.2495,,,,0,1,1,1,1,45,120,,,,,,,,
,,64b51ebf8e67162f918b1479,65af56b9258f4c49e4087ae0,2024-01-23_08h04.40.622,bars,2023.2.3,Win32,59.88023952,657b66ea316d21385b68909f,,,,,,,,,,,778.2496,779.2397,,,779.7427,779.9899,,154,-26,,,,,,,,,,,,,,,,bars/024.png,bars/mask003.png,,,,,,,,,,,,3,2,,,,,,,0,7,0,6,,,,,,,,,,,779.2398,779.7427,779.99,788.0726,space,8.0656,,788.0727,34,16,789.072,789.0721,789.0836,,,,0,2,2,2,1,120,170,,,,,,,,
,,64b51ebf8e67162f918b1479,65af56b9258f4c49e4087ae0,2024-01-23_08h04.40.622,bars,2023.2.3,Win32,59.88023952,657b66ea316d21385b68909f,,,,,,,,,,,789.0837,790.0719,,,790.5716,790.8217,,0,180,,,,,,,,,,,,,,,,bars/026.png,bars/mask005.png,,,,,,,,,,,,0,1,,,,,,,2,5,2,5,,,,,,,,,,,790.0719,790.5716,790.8217,807.3367,space,16.5059,,807.3369,35,85,808.3369,808.3372,808.3578,,,,0,3,3,3,1,35,85,,,,,,,,
,,64b51ebf8e67162f918b1479,65af56b9258f4c49e4087ae0,2024-01-23_08h04.40.622,bars,2023.2.3,Win32,59.88023952,657b66ea316d21385b68909f,,,,,,,,,,,808.3581,809.3532,,,809.8536,810.0925,,31,31,,,,,,,,,,,,,,,,bars/005.png,bars/mask006.png,,,,,,,,,,,,0,1,,,,,,,0,7,0,7,,,,,,,,,,,809.3533,809.8534,810.0926,826.0009,space,15.8898,,826.001,21,71,827.0007,827.0008,827.015,,,,0,4,4,4,1,10,140,,,,,,,,
,,64b51ebf8e67162f918b1479,65af56b9258f4c49e4087ae0,2024-01-23_08h04.40.622,bars,2023.2.3,Win32,59.88023952,657b66ea316d21385b68909f,,,,,,,,,,,827.0152,828.0169,,,828.5169,828.7669,,90,90,,,,,,,,,,,,,,,,bars/029.png,bars/mask007.png,,,,,,,,,,,,3,1,,,,,,,2,5,3,5,,,,,,,,,,,828.017,828.5169,828.7669,831.0835,space,2.304,,831.0836,0,45,832.0832,832.0832,832.097,,,,0,5,5,5,1,90,45,,,,,,,,
,,64b51ebf8e67162f918b1479,65af56b9258f4c49e4087ae0,2024-01-23_08h04.40.622,bars,2023.2.3,Win32,59.88023952,657b66ea316d21385b68909f,,,,,,,,,,,832.0972,833.0999,,,833.5996,833.8495,,0,0,,,,,,,,,,,,,,,,bars/033.png,bars/mask003.png,,,,,,,,,,,,0,2,,,,,,,0,3,0,2,,,,,,,,,,,833.0999,833.5996,833.8497,839.4828,space,5.6217,,839.4829,25,25,840.4819,840.4821,840.4977,,,,0,6,6,6,1,25,155,,,,,,,,
,,64b51ebf8e67162f918b1479,65af56b9258f4c49e4087ae0,2024-01-23_08h04.40.622,bars,2023.2.3,Win32,59.88023952,657b66ea316d21385b68909f,,,,,,,,,,,840.4979,841.4986,,,841.9985,842.2484,,90,-90,,,,,,,,,,,,,,,,bars/028.png,bars/mask006.png,,,,,,,,,,,,0,2,,,,,,,2,5,3,5,,,,,,,,,,,841.4986,841.9985,842.2485,867.1453,space,24.8863,,867.1454,45,30,868.1451,868.1451,868.1606,,,,0,7,7,7,1,45,120,,,,,,,,
,,64b51ebf8e67162f918b1479,65af56b9258f4c49e4087ae0,2024-01-23_08h04.40.622,bars,2023.2.3,Win32,59.88023952,657b66ea316d21385b68909f,,,,,,,,,,,868.1607,869.1616,,,869.6618,869.9115,,20,20,,,,,,,,,,,,,,,,bars/021.png,bars/mask005.png,,,,,,,,,,,,0,1,,,,,,,0,7,0,8,,,,,,,,,,,869.1618,869.6617,869.9116,876.1775,space,6.2556,,876.1776,45,50,877.1772,877.1772,877.1926,,,,0,8,8,8,1,155,70,,,,,,,,
,,64b51ebf8e67162f918b1479,65af56b9258f4c49e4087ae0,2024-01-23_08h04.40.622,bars,2023.2.3,Win32,59.88023952,657b66ea316d21385b68909f,,,,,,,,,,,877.1929,878.1938,,,878.6938,878.9436,,135,135,,,,,,,,,,,,,,,,bars/033.png,bars/mask003.png,,,,,,,,,,,,2,2,,,,,,,2,5,3,5,,,,,,,,,,,878.1938,878.6937,878.9437,882.5101,space,3.5515,,882.5101,70,20,883.5096,883.5096,883.5188,,,,0,9,9,9,1,25,155,,,,,,,,
,,64b51ebf8e67162f918b1479,65af56b9258f4c49e4087ae0,2024-01-23_08h04.40.622,bars,2023.2.3,Win32,59.88023952,657b66ea316d21385b68909f,,,,,,,,,,,883.519,884.5095,,,885.0096,885.2593,,60,60,,,,,,,,,,,,,,,,bars/034.png,bars/mask002.png,,,,,,,,,,,,6,2,,,,,,,0,7,1,7,,,,,,,,,,,884.5096,885.0096,885.2593,889.3254,space,4.0506,,889.3255,65,5,890.3255,890.3255,890.3383,,,,0,10,10,10,1,125,65,,,,,,,,
,,64b51ebf8e67162f918b1479,65af56b9258f4c49e4087ae0,2024-01-23_08h04.40.622,bars,2023.2.3,Win32,59.88023952,657b66ea316d21385b68909f,,,,,,,,,,,890.3384,891.3419,,,891.8421,892.0919,,154,154,,,,,,,,,,,,,,,,bars/013.png,bars/mask001.png,,,,,,,,,,,,0,2,,,,,,,0,9,1,10,,,,,,,,,,,891.3419,891.842,892.0919,898.6912,space,6.5872,,898.6913,79,36,899.6909,899.6909,899.7042,,,,0,11,11,11,1,75,10,,,,,,,,
,,64b51ebf8e67162f918b1479,65af56b9258f4c49e4087ae0,2024-01-23_08h04.40.622,bars,2023.2.3,Win32,59.88023952,657b66ea316d21385b68909f,,,,,,,,,,,899.7043,900.7075,,,901.2074,901.4574,,0,0,,,,,,,,,,,,,,,,bars/029.png,bars/mask007.png,,,,,,,,,,,,0,2,,,,,,,2,7,2,7,,,,,,,,,,,900.7076,901.2074,901.4574,909.1399,space,7.664,,909.1401,90,45,910.1394,910.1394,910.1507,,,,0,12,12,12,1,90,45,,,,,,,,
,,64b51ebf8e67162f918b1479,65af56b9258f4c49e4087ae0,2024-01-23_08h04.40.622,bars,2023.2.3,Win32,59.88023952,657b66ea316d21385b68909f,,,,,,,,,,,910.1509,911.1396,,,911.6394,911.8893,,33,33,,,,,,,,,,,,,,,,bars/022.png,bars/mask002.png,,,,,,,,,,,,3,2,,,,,,,4,5,3,5,,,,,,,,,,,911.1396,911.6393,911.8894,915.0725,space,3.1736,,915.0727,62,13,916.0723,916.0723,916.0841,,,,0,13,13,13,1,95,20,,,,,,,,
,,64b51ebf8e67162f918b1479,65af56b9258f4c49e4087ae0,2024-01-23_08h04.40.622,bars,2023.2.3,Win32,59.88023952,657b66ea316d21385b68909f,,,,,,,,,,,916.0843,917.0721,,,917.5721,917.822,,25,25,,,,,,,,,,,,,,,,bars/046.png,bars/mask003.png,,,,,,,,,,,,0,1,,,,,,,2,3,1,3,,,,,,,,,,,917.0722,917.572,917.822,929.1373,space,11.3051,,929.1375,50,60,930.1369,930.137,930.1506,,,,0,14,14,14,1,155,85,,,,,,,,
,,64b51ebf8e67162f918b1479,65af56b9258f4c49e4087ae0,2024-01-23_08h04.40.622,bars,2023.2.3,Win32,59.88023952,657b66ea316d21385b68909f,,,,,,,,,,,930.1508,931.1535,,,931.6536,931.9033,,67,67,,,,,,,,,,,,,,,,bars/035.png,bars/mask007.png,,,,,,,,,,,,2,2,,,,,,,4,1,3,3,,,,,,,,,,,931.1535,931.6536,931.9034,942.1192,space,10.1997,,942.1192,72,7,943.1186,943.1186,943.1346,,,,0,15,15,15,1,175,60,,,,,,,,
,,64b51ebf8e67162f918b1479,65af56b9258f4c49e4087ae0,2024-01-23_08h04.40.622,bars,2023.2.3,Win32,59.88023952,657b66ea316d21385b68909f,,,,,,,,,,,943.1349,944.1352,,,944.6351,944.8851,,63,63,,,,,,,,,,,,,,,,bars/044.png,bars/mask001.png,,,,,,,,,,,,3,1,,,,,,,6,0,5,0,,,,,,,,,,,944.1352,944.6351,944.8851,946.2022,space,1.3033,,946.2023,12,88,947.2013,947.2014,947.2186,,,,0,16,16,16,1,75,155,,,,,,,,
,,64b51ebf8e67162f918b1479,65af56b9258f4c49e4087ae0,2024-01-23_08h04.40.622,bars,2023.2.3,Win32,59.88023952,657b66ea316d21385b68909f,,,,,,,,,,,947.2189,948.2178,,,948.7177,948.9679,,90,90,,,,,,,,,,,,,,,,bars/029.png,bars/mask006.png,,,,,,,,,,,,5,1,,,,,,,4,2,5,2,,,,,,,,,,,948.2179,948.7176,948.968,949.9845,space,1.0005,,949.9846,0,45,950.9841,950.9842,950.9856,,,,0,17,17,17,1,90,45,,,,,,,,
,,64b51ebf8e67162f918b1479,65af56b9258f4c49e4087ae0,2024-01-23_08h04.40.622,bars,2023.2.3,Win32,59.88023952,657b66ea316d21385b68909f,,,,,,,,,,,950.9863,951.9841,,,952.484,952.7338,,17,17,,,,,,,,,,,,,,,,bars/012.png,bars/mask009.png,,,,,,,,,,,,4,2,,,,,,,6,4,7,4,,,,,,,,,,,951.9841,952.4839,952.7339,959.1002,space,6.3471,,959.1003,73,2,960.0996,960.0996,960.1139,,,,0,18,18,18,1,90,15,,,,,,,,
,,64b51ebf8e67162f918b1479,65af56b9258f4c49e4087ae0,2024-01-23_08h04.40.622,bars,2023.2.3,Win32,59.88023952,657b66ea316d21385b68909f,,,,,,,,,,,960.1141,961.1162,,,961.6161,961.8662,,109,109,,,,,,,,,,,,,,,,bars/001.png,bars/mask008.png,,,,,,,,,,,,2,1,,,,,,,4,2,6,3,,,,,,,,,,,961.1162,961.6161,961.8663,966.7321,space,4.8518,,966.7322,21,24,967.732,967.732,967.7426,,,,0,19,19,19,1,130,85,,,,,,,,
,,64b51ebf8e67162f918b1479,65af56b9258f4c49e4087ae0,2024-01-23_08h04.40.622,bars,2023.2.3,Win32,59.88023952,657b66ea316d21385b68909f,,,,,,,,,,,967.7429,968.732,,,969.2321,969.4817,,57,57,,,,,,,,,,,,,,,,bars/048.png,bars/mask004.png,,,,,,,,,,,,6,1,,,,,,,6,4,8,4,,,,,,,,,,,968.7321,969.232,969.4817,983.3302,space,13.8302,,983.3303,7,62,984.3299,984.3299,984.3392,,,,0,20,20,20,1,50,175,,,,,,,,
,,64b51ebf8e67162f918b1479,65af56b9258f4c49e4087ae0,2024-01-23_08h04.40.622,bars,2023.2.3,Win32,59.88023952,657b66ea316d21385b68909f,,,,,,,,,,,984.3393,985.3297,,,985.8298,986.0797,,63,243,,,,,,,,,,,,,,,,bars/021.png,bars/mask009.png,,,,,,,,,,,,5,2,,,,,,,8,6,9,6,,,,,,,,,,,985.3297,985.8298,986.0798,1033.6235,space,47.5342,,1033.6236,88,7,1034.6234,1034.6235,1034.6389,,,,0,21,21,21,1,155,70,,,,,,,,
,,64b51ebf8e67162f918b1479,65af56b9258f4c49e4087ae0,2024-01-23_08h04.40.622,bars,2023.2.3,Win32,59.88023952,657b66ea316d21385b68909f,,,,,,,,,,,1034.6391,1035.6396,,,1036.1399,1036.3898,,90,90,,,,,,,,,,,,,,,,bars/040.png,bars/mask006.png,,,,,,,,,,,,0,1,,,,,,,10,8,9,8,,,,,,,,,,,1035.6397,1036.1399,1036.39,1040.0561,space,3.6498,,1040.0562,50,85,1041.0561,1041.0562,1041.069,,,,0,22,22,22,1,140,5,,,,,,,,
,,64b51ebf8e67162f918b1479,65af56b9258f4c49e4087ae0,2024-01-23_08h04.40.622,bars,2023.2.3,Win32,59.88023952,657b66ea316d21385b68909f,,,,,,,,,,,1041.0693,1042.0729,,,1042.5723,1042.8223,,64,64,,,,,,,,,,,,,,,,bars/004.png,bars/mask003.png,,,,,,,,,,,,0,1,,,,,,,8,10,7,10,,,,,,,,,,,1042.0729,1042.5723,1042.8224,1052.9214,space,10.0834,,1052.9215,39,61,1053.9209,1053.921,1053.9307,,,,0,23,23,23,1,25,125,,,,,,,,
,,64b51ebf8e67162f918b1479,65af56b9258f4c49e4087ae0,2024-01-23_08h04.40.622,bars,2023.2.3,Win32,59.88023952,657b66ea316d21385b68909f,,,,,,,,,,,1053.9308,1054.9206,,,1055.4206,1055.6707,,36,36,,,,,,,,,,,,,,,,bars/004.png,bars/mask007.png,,,,,,,,,,,,6,1,,,,,,,10,8,10,8,,,,,,,,,,,1054.9206,1055.4205,1055.6707,1059.3707,space,3.6887,,1059.3707,11,89,1060.3701,1060.3701,1060.3822,,,,0,24,24,24,1,25,125,,,,,,,,
,,64b51ebf8e67162f918b1479,65af56b9258f4c49e4087ae0,2024-01-23_08h04.40.622,bars,2023.2.3,Win32,59.88023952,657b66ea316d21385b68909f,,,,,,,,,,,1060.3823,1061.387,,,1061.8863,1062.1365,,147,-33,,,,,,,,,,,,,,,,bars/029.png,bars/mask001.png,,,,,,,,,,,,0,1,,,,,,,8,6,10,6,,,,,,,,,,,1061.387,1061.8862,1062.1365,1073.1022,space,10.9484,,1073.1023,57,78,1074.102,1074.1021,1074.1151,,,,0,25,25,25,1,90,45,,,,,,,,
,,64b51ebf8e67162f918b1479,65af56b9258f4c49e4087ae0,2024-01-23_08h04.40.622,bars,2023.2.3,Win32,59.88023952,657b66ea316d21385b68909f,,,,,,,,,,,1074.1153,1075.1186,,,1075.6183,1075.8683,,65,65,,,,,,,,,,,,,,,,bars/038.png,bars/mask005.png,,,,,,,,,,,,3,2,,,,,,,6,4,6,4,,,,,,,,,,,1075.1186,1075.6183,1075.8683,1077.1179,space,1.2356,,1077.1181,80,5,1078.1174,1078.1174,1078.127,,,,0,26,26,26,1,165,70,,,,,,,,
,,64b51ebf8e67162f918b1479,65af56b9258f4c49e4087ae0,2024-01-23_08h04.40.622,bars,2023.2.3,Win32,59.88023952,657b66ea316d21385b68909f,,,,,,,,,,,1078.1272,1079.1175,,,1079.6176,1079.8675,,26,26,,,,,,,,,,,,,,,,bars/023.png,bars/mask001.png,,,,,,,,,,,,6,1,,,,,,,8,6,8,7,,,,,,,,,,,1079.1175,1079.6175,1079.8675,1080.9175,space,1.0357,,1080.9176,6,89,1081.9172,1081.9173,1081.9223,,,,0,27,27,27,1,20,115,,,,,,,,
,,64b51ebf8e67162f918b1479,65af56b9258f4c49e4087ae0,2024-01-23_08h04.40.622,bars,2023.2.3,Win32,59.88023952,657b66ea316d21385b68909f,,,,,,,,,,,1081.9227,1082.9169,,,1083.4171,1083.6668,,0,180,,,,,,,,,,,,,,,,bars/036.png,bars/mask002.png,,,,,,,,,,,,3,2,,,,,,,6,8,8,10,,,,,,,,,,,1082.9169,1083.417,1083.6672,1089.0667,space,5.3881,,1089.0668,35,20,1090.0662,1090.0662,1090.0814,,,,0,28,28,28,1,145,20,,,,,,,,
,,64b51ebf8e67162f918b1479,65af56b9258f4c49e4087ae0,2024-01-23_08h04.40.622,bars,2023.2.3,Win32,59.88023952,657b66ea316d21385b68909f,,,,,,,,,,,1090.0816,1091.0827,,,1091.5826,1091.8324,,130,130,,,,,,,,,,,,,,,,bars/022.png,bars/mask009.png,,,,,,,,,,,,0,1,,,,,,,8,6,7,6,,,,,,,,,,,1091.0827,1091.5826,1091.8326,1094.8991,space,3.0513,,1094.8993,35,70,1095.8986,1095.8986,1095.9113,,,,0,29,29,29,1,95,20,,,,,,,,
,,64b51ebf8e67162f918b1479,65af56b9258f4c49e4087ae0,2024-01-23_08h04.40.622,bars,2023.2.3,Win32,59.88023952,657b66ea316d21385b68909f,,,,,,,,,,,1095.9114,1096.9154,,,1097.4152,1097.6651,,66,66,,,,,,,,,,,,,,,,bars/005.png,bars/mask008.png,,,,,,,,,,,,0,1,,,,,,,10,8,10,8,,,,,,,,,,,1096.9154,1097.4151,1097.6652,1098.7983,space,1.118,,1098.7985,56,74,1099.7982,1099.7982,1099.7995,,,,0,30,30,30,1,10,140,,,,,,,,
,,64b51ebf8e67162f918b1479,65af56b9258f4c49e4087ae0,2024-01-23_08h04.40.622,bars,2023.2.3,Win32,59.88023952,657b66ea316d21385b68909f,,,,,,,,,,,1099.8002,1100.798,,,1101.298,1101.5479,,0,0,,,,,,,,,,,,,,,,bars/004.png,bars/mask009.png,,,,,,,,,,,,1,1,,,,,,,8,10,6,9,,,,,,,,,,,1100.7981,1101.298,1101.5479,1103.6146,space,2.0502,,1103.615,25,55,1104.614,1104.614,1104.6232,,,,0,31,31,31,1,25,125,,,,,,,,
,,64b51ebf8e67162f918b1479,65af56b9258f4c49e4087ae0,2024-01-23_08h04.40.622,bars,2023.2.3,Win32,59.88023952,657b66ea316d21385b68909f,,,,,,,,,,,1104.6234,1105.6143,,,1106.1141,1106.3639,,165,165,,,,,,,,,,,,,,,,bars/025.png,bars/mask006.png,,,,,,,,,,,,0,2,,,,,,,6,8,6,8,,,,,,,,,,,1105.6143,1106.1141,1106.364,1109.4636,space,3.0843,,1109.4637,60,55,1110.4632,1110.4632,1110.472,,,,0,32,32,32,1,105,40,,,,,,,,
,,64b51ebf8e67162f918b1479,65af56b9258f4c49e4087ae0,2024-01-23_08h04.40.622,bars,2023.2.3,Win32,59.88023952,657b66ea316d21385b68909f,,,,,,,,,,,1110.4722,1111.4632,,,1111.9633,1112.2132,,71,71,,,,,,,,,,,,,,,,bars/006.png,bars/mask006.png,,,,,,,,,,,,0,2,,,,,,,8,10,8,10,,,,,,,,,,,1111.4633,1111.9633,1112.2132,1113.3965,space,1.1693,,1113.3967,36,29,1114.3963,1114.3963,1114.4105,,,,0,33,33,33,1,35,100,,,,,,,,
,,64b51ebf8e67162f918b1479,65af56b9258f4c49e4087ae0,2024-01-23_08h04.40.622,bars,2023.2.3,Win32,59.88023952,657b66ea316d21385b68909f,,,,,,,,,,,1114.4108,1115.4128,,,1115.9127,1116.1625,,118,118,,,,,,,,,,,,,,,,bars/036.png,bars/mask000.png,,,,,,,,,,,,1,1,,,,,,,6,8,6,10,,,,,,,,,,,1115.4129,1115.9126,1116.1626,1120.8124,space,4.6318,,1120.8124,27,82,1121.812,1121.8121,1121.8269,,,,0,34,34,34,1,145,20,,,,,,,,
,,64b51ebf8e67162f918b1479,65af56b9258f4c49e4087ae0,2024-01-23_08h04.40.622,bars,2023.2.3,Win32,59.88023952,657b66ea316d21385b68909f,,,,,,,,,,,1121.827,1122.8284,,,1123.3285,1123.5783,,152,152,,,,,,,,,,,,,,,,bars/036.png,bars/mask009.png,,,,,,,,,,,,3,1,,,,,,,4,6,4,6,,,,,,,,,,,1122.8285,1123.3284,1123.5783,1124.6948,space,1.1075,,1124.6948,7,48,1125.6948,1125.6948,1125.6957,,,,0,35,35,35,1,145,20,,,,,,,,
,,64b51ebf8e67162f918b1479,65af56b9258f4c49e4087ae0,2024-01-23_08h04.40.622,bars,2023.2.3,Win32,59.88023952,657b66ea316d21385b68909f,,,,,,,,,,,1125.6963,1126.6944,,,1127.1946,1127.4446,,90,90,,,,,,,,,,,,,,,,bars/021.png,bars/mask000.png,,,,,,,,,,,,1,2,,,,,,,2,4,2,4,,,,,,,,,,,1126.6944,1127.1946,1127.4447,1132.8773,space,5.4247,,1132.8773,65,20,1133.8768,1133.8768,1133.8889,,,,0,36,36,36,1,155,70,,,,,,,,
,,64b51ebf8e67162f918b1479,65af56b9258f4c49e4087ae0,2024-01-23_08h04.40.622,bars,2023.2.3,Win32,59.88023952,657b66ea316d21385b68909f,,,,,,,,,,,1133.8891,1134.8767,,,1135.3769,1135.6268,,160,-20,,,,,,,,,,,,,,,,bars/000.png,bars/mask002.png,,,,,,,,,,,,2,2,,,,,,,4,6,4,4,,,,,,,,,,,1134.8768,1135.3769,1135.6269,1145.4089,space,9.7709,,1145.409,60,15,1146.4085,1146.4086,1146.4199,,,,0,37,37,37,1,40,145,,,,,,,,
,,64b51ebf8e67162f918b1479,65af56b9258f4c49e4087ae0,2024-01-23_08h04.40.622,bars,2023.2.3,Win32,59.88023952,657b66ea316d21385b68909f,,,,,,,,,,,1146.4201,1147.4085,,,1147.9086,1148.1586,,58,58,,,,,,,,,,,,,,,,bars/034.png,bars/mask003.png,,,,,,,,,,,,5,2,,,,,,,2,8,1,7,,,,,,,,,,,1147.4085,1147.9085,1148.1586,1149.1752,space,1.0008,,1149.1752,67,7,1150.1749,1150.1749,1150.1762,,,,0,38,38,38,1,125,65,,,,,,,,
,,64b51ebf8e67162f918b1479,65af56b9258f4c49e4087ae0,2024-01-23_08h04.40.622,bars,2023.2.3,Win32,59.88023952,657b66ea316d21385b68909f,,,,,,,,,,,1150.1767,1151.1748,,,1151.6748,1151.9247,,0,0,,,,,,,,,,,,,,,,bars/005.png,bars/mask008.png,,,,,,,,,,,,3,1,,,,,,,4,10,5,10,,,,,,,,,,,1151.1748,1151.6748,1151.9248,1153.5079,space,1.5693,,1153.5082,10,40,1154.5076,1154.5077,1154.5233,,,,0,39,39,39,1,10,140,,,,,,,,
,,64b51ebf8e67162f918b1479,65af56b9258f4c49e4087ae0,2024-01-23_08h04.40.622,bars,2023.2.3,Win32,59.88023952,657b66ea316d21385b68909f,,,,,,,,,,,1154.5235,1155.5242,,,1156.0242,1156.2743,,90,90,,,,,,,,,,,,,,,,bars/040.png,bars/mask006.png,,,,,,,,,,,,0,1,,,,,,,6,8,7,7,,,,,,,,,,,1155.5243,1156.0242,1156.2743,1163.5064,space,7.2198,,1163.5064,50,85,1164.5063,1164.5063,1164.5236,,,,0,40,40,40,1,140,5,,,,,,,,
,,64b51ebf8e67162f918b1479,65af56b9258f4c49e4087ae0,2024-01-23_08h04.40.622,bars,2023.2.3,Win32,59.88023952,657b66ea316d21385b68909f,,,,,,,,,,,1164.5239,1165.5231,,,1166.023,1166.2728,,158,158,,,,,,,,,,,,,,,,bars/018.png,bars/mask002.png,,,,,,,,,,,,4,1,,,,,,,4,6,5,7,,,,,,,,,,,1165.5231,1166.0229,1166.2729,1172.4888,space,6.2082,,1172.4889,8,68,1173.4886,1173.4886,1173.5034,,,,0,41,41,41,1,150,90,,,,,,,,
,,64b51ebf8e67162f918b1479,65af56b9258f4c49e4087ae0,2024-01-23_08h04.40.622,bars,2023.2.3,Win32,59.88023952,657b66ea316d21385b68909f,,,,,,,,,,,1173.5035,1174.5052,,,1175.0051,1175.255,,22,202,,,,,,,,,,,,,,,,bars/035.png,bars/mask006.png,,,,,,,,,,,,1,1,,,,,,,6,8,6,9,,,,,,,,,,,1174.5052,1175.005,1175.255,1185.0039,space,9.735,,1185.004,27,38,1186.0036,1186.0036,1186.0182,,,,0,42,42,42,1,175,60,,,,,,,,
,,64b51ebf8e67162f918b1479,65af56b9258f4c49e4087ae0,2024-01-23_08h04.40.622,bars,2023.2.3,Win32,59.88023952,657b66ea316d21385b68909f,,,,,,,,,,,1186.0185,1187.0199,,,1187.52,1187.7701,,0,0,,,,,,,,,,,,,,,,bars/028.png,bars/mask004.png,,,,,,,,,,,,0,1,,,,,,,8,6,9,7,,,,,,,,,,,1187.0199,1187.52,1187.7701,1191.0529,space,3.2659,,1191.053,45,60,1192.0529,1192.0529,1192.0667,,,,0,43,43,43,1,45,120,,,,,,,,
,,64b51ebf8e67162f918b1479,65af56b9258f4c49e4087ae0,2024-01-23_08h04.40.622,bars,2023.2.3,Win32,59.88023952,657b66ea316d21385b68909f,,,,,,,,,,,1192.0669,1193.0693,,,1193.5695,1193.819,,70,70,,,,,,,,,,,,,,,,bars/023.png,bars/mask004.png,,,,,,,,,,,,0,2,,,,,,,6,8,5,10,,,,,,,,,,,1193.0693,1193.5694,1193.819,1195.0207,space,1.1873,,1195.0208,50,45,1196.0187,1196.0187,1196.0232,,,,0,44,44,44,1,20,115,,,,,,,,
,,64b51ebf8e67162f918b1479,65af56b9258f4c49e4087ae0,2024-01-23_08h04.40.622,bars,2023.2.3,Win32,59.88023952,657b66ea316d21385b68909f,,,,,,,,,,,1196.0234,1197.0185,,,1197.5186,1197.7686,,64,64,,,,,,,,,,,,,,,,bars/032.png,bars/mask004.png,,,,,,,,,,,,0,2,,,,,,,4,10,4,9,,,,,,,,,,,1197.0185,1197.5186,1197.7688,1199.0186,space,1.2393,,1199.0186,61,44,1200.0184,1200.0184,1200.0197,,,,0,45,45,45,1,125,20,,,,,,,,
,,64b51ebf8e67162f918b1479,65af56b9258f4c49e4087ae0,2024-01-23_08h04.40.622,bars,2023.2.3,Win32,59.88023952,657b66ea316d21385b68909f,,,,,,,,,,,1200.02,1201.018,,,1201.5182,1201.7681,,58,58,,,,,,,,,,,,,,,,bars/043.png,bars/mask004.png,,,,,,,,,,,,0,1,,,,,,,2,8,3,9,,,,,,,,,,,1201.0181,1201.5182,1201.7682,1214.5999,space,12.8245,,1214.6,28,72,1215.5997,1215.5997,1215.6147,,,,0,46,46,46,1,30,130,,,,,,,,
,,64b51ebf8e67162f918b1479,65af56b9258f4c49e4087ae0,2024-01-23_08h04.40.622,bars,2023.2.3,Win32,59.88023952,657b66ea316d21385b68909f,,,,,,,,,,,1215.6149,1216.6163,,,1217.1159,1217.3661,,161,161,,,,,,,,,,,,,,,,bars/016.png,bars/mask002.png,,,,,,,,,,,,8,2,,,,,,,4,6,4,9,,,,,,,,,,,1216.6163,1217.1159,1217.3662,1221.3825,space,4.004,,1221.3825,59,4,1222.3822,1222.3822,1222.3963,,,,0,47,47,47,1,40,165,,,,,,,,
,,64b51ebf8e67162f918b1479,65af56b9258f4c49e4087ae0,2024-01-23_08h04.40.622,bars,2023.2.3,Win32,59.88023952,657b66ea316d21385b68909f,,,,,,,,,,,1222.3964,1223.3988,,,1223.8987,1224.1486,,0,0,,,,,,,,,,,,,,,,bars/034.png,bars/mask006.png,,,,,,,,,,,,0,1,,,,,,,2,8,1,7,,,,,,,,,,,1223.3988,1223.8985,1224.1486,1235.3306,space,11.1633,,1235.3306,55,65,1236.3304,1236.3304,1236.3452,,,,0,48,48,48,1,125,65,,,,,,,,
,,64b51ebf8e67162f918b1479,65af56b9258f4c49e4087ae0,2024-01-23_08h04.40.622,bars,2023.2.3,Win32,59.88023952,657b66ea316d21385b68909f,,,,,,,,,,,1236.3454,1237.3467,,,1237.8469,1238.0968,,110,110,,,,,,,,,,,,,,,,bars/047.png,bars/mask009.png,,,,,,,,,,,,0,2,,,,,,,0,6,0,6,,,,,,,,,,,1237.3468,1237.8468,1238.0969,1239.18,space,1.067,,1239.1801,85,40,1240.1799,1240.1799,1240.1846,,,,0,49,49,49,1,15,70,,,,,,,,
,,64b51ebf8e67162f918b1479,65af56b9258f4c49e4087ae0,2024-01-23_08h04.40.622,bars,2023.2.3,Win32,59.88023952,657b66ea316d21385b68909f,,,,,,,,,,,,,,,,,,,,,,,,,,,,,,,,,,,,,,,,,,,,,,,,,,,,,,,,,,,,,,,,,,,,,,,,,,,,,,,,,,,,,,,,,,,,,1240.1849,1300.1887,0,1,1,3,1,sequence_tables/blk005.csv
,,64b51ebf8e67162f918b1479,65af56b9258f4c49e4087ae0,2024-01-23_08h04.40.622,bars,2023.2.3,Win32,59.88023952,657b66ea316d21385b68909f,,,,,,,,,,,1302.5303,1303.5217,,,1304.0219,1304.2715,,116,116,,,,,,,,,,,,,,,,bars/012.png,bars/mask009.png,,,,,,,,,,,,0,1,,,,,,,3,3,2,3,,,,,,1300.2018,1302.522,space,2.3098,,1303.5217,1304.0219,1304.2716,1312.0873,space,7.7997,,1312.0873,26,79,1313.0868,1313.0868,1313.0963,,,,0,0,0,0,1,90,15,,,,,,,,
,,64b51ebf8e67162f918b1479,65af56b9258f4c49e4087ae0,2024-01-23_08h04.40.622,bars,2023.2.3,Win32,59.88023952,657b66ea316d21385b68909f,,,,,,,,,,,1313.0965,1314.0869,,,1314.5869,1314.8368,,160,160,,,,,,,,,,,,,,,,bars/018.png,bars/mask005.png,,,,,,,,,,,,1,1,,,,,,,1,1,1,2,,,,,,,,,,,1314.087,1314.5869,1314.8368,1321.0706,space,6.225,,1321.0707,10,70,1322.069,1322.069,1322.0798,,,,0,1,1,1,1,150,90,,,,,,,,
,,64b51ebf8e67162f918b1479,65af56b9258f4c49e4087ae0,2024-01-23_08h04.40.622,bars,2023.2.3,Win32,59.88023952,657b66ea316d21385b68909f,,,,,,,,,,,1322.0799,1323.069,,,1323.569,1323.8189,,34,34,,,,,,,,,,,,,,,,bars/048.png,bars/mask004.png,,,,,,,,,,,,2,1,,,,,,,3,0,4,0,,,,,,,,,,,1323.069,1323.5689,1323.8189,1325.0689,space,1.2342,,1325.069,16,39,1326.0686,1326.0686,1326.0702,,,,0,2,2,2,1,50,175,,,,,,,,
,,64b51ebf8e67162f918b1479,65af56b9258f4c49e4087ae0,2024-01-23_08h04.40.622,bars,2023.2.3,Win32,59.88023952,657b66ea316d21385b68909f,,,,,,,,,,,1326.0709,1327.0684,,,1327.5684,1327.8185,,135,135,,,,,,,,,,,,,,,,bars/014.png,bars/mask009.png,,,,,,,,,,,,0,2,,,,,,,1,2,0,4,,,,,,,,,,,1327.0684,1327.5684,1327.8185,1331.2679,space,3.4347,,1331.2679,55,45,1332.2678,1332.2678,1332.2858,,,,0,3,3,3,1,80,0,,,,,,,,
,,64b51ebf8e67162f918b1479,65af56b9258f4c49e4087ae0,2024-01-23_08h04.40.622,bars,2023.2.3,Win32,59.88023952,657b66ea316d21385b68909f,,,,,,,,,,,1332.2859,1333.2841,,,1333.7843,1334.0342,,90,90,,,,,,,,,,,,,,,,bars/015.png,bars/mask002.png,,,,,,,,,,,,1,1,,,,,,,3,4,4,4,,,,,,,,,,,1333.2841,1333.7843,1334.0342,1338.2856,space,4.2461,,1338.2857,20,70,1339.2833,1339.2833,1339.2946,,,,0,4,4,4,1,110,160,,,,,,,,
,,64b51ebf8e67162f918b1479,65af56b9258f4c49e4087ae0,2024-01-23_08h04.40.622,bars,2023.2.3,Win32,59.88023952,657b66ea316d21385b68909f,,,,,,,,,,,1339.2948,1340.2834,,,1340.7833,1341.0334,,0,180,,,,,,,,,,,,,,,,bars/025.png,bars/mask006.png,,,,,,,,,,,,0,2,,,,,,,1,6,2,6,,,,,,,,,,,1340.2835,1340.7833,1341.0334,1344.7497,space,3.7015,,1344.7497,75,40,1345.7493,1345.7494,1345.768,,,,0,5,5,5,1,105,40,,,,,,,,
,,64b51ebf8e67162f918b1479,65af56b9258f4c49e4087ae0,2024-01-23_08h04.40.622,bars,2023.2.3,Win32,59.88023952,657b66ea316d21385b68909f,,,,,,,,,,,1345.7682,1346.7659,,,1347.2657,1347.5159,,56,56,,,,,,,,,,,,,,,,bars/039.png,bars/mask007.png,,,,,,,,,,,,0,2,,,,,,,0,8,0,6,,,,,,,,,,,1346.7659,1347.2657,1347.5159,1358.3143,space,10.7859,,1358.3145,61,49,1359.3141,1359.3141,1359.3227,,,,0,6,6,6,1,175,105,,,,,,,,
,,64b51ebf8e67162f918b1479,65af56b9258f4c49e4087ae0,2024-01-23_08h04.40.622,bars,2023.2.3,Win32,59.88023952,657b66ea316d21385b68909f,,,,,,,,,,,1359.3228,1360.3142,,,1360.8142,1361.064,,71,71,,,,,,,,,,,,,,,,bars/000.png,bars/mask001.png,,,,,,,,,,,,0,1,,,,,,,0,6,0,6,,,,,,,,,,,1360.3142,1360.8142,1361.0641,1362.398,space,1.3285,,1362.3981,31,74,1363.3969,1363.3969,1363.4065,,,,0,7,7,7,1,40,145,,,,,,,,
,,64b51ebf8e67162f918b1479,65af56b9258f4c49e4087ae0,2024-01-23_08h04.40.622,bars,2023.2.3,Win32,59.88023952,657b66ea316d21385b68909f,,,,,,,,,,,1363.4067,1364.3967,,,1364.8968,1365.1466,,127,127,,,,,,,,,,,,,,,,bars/040.png,bars/mask003.png,,,,,,,,,,,,1,1,,,,,,,2,4,1,4,,,,,,,,,,,1364.3967,1364.8967,1365.1466,1366.9966,space,1.8344,,1366.9967,13,58,1367.9962,1367.9962,1368.0067,,,,0,8,8,8,1,140,5,,,,,,,,
,,64b51ebf8e67162f918b1479,65af56b9258f4c49e4087ae0,2024-01-23_08h04.40.622,bars,2023.2.3,Win32,59.88023952,657b66ea316d21385b68909f,,,,,,,,,,,1368.007,1368.9984,,,1369.4962,1369.7461,,71,71,,,,,,,,,,,,,,,,bars/030.png,bars/mask005.png,,,,,,,,,,,,5,2,,,,,,,4,6,3,6,,,,,,,,,,,1368.9985,1369.4962,1369.7461,1372.2795,space,2.5166,,1372.2795,69,6,1373.2802,1373.2802,1373.2839,,,,0,9,9,9,1,140,65,,,,,,,,
,,64b51ebf8e67162f918b1479,65af56b9258f4c49e4087ae0,2024-01-23_08h04.40.622,bars,2023.2.3,Win32,59.88023952,657b66ea316d21385b68909f,,,,,,,,,,,1373.2842,1374.2787,,,1374.779,1375.0288,,22,202,,,,,,,,,,,,,,,,bars/022.png,bars/mask000.png,,,,,,,,,,,,8,2,,,,,,,6,8,7,9,,,,,,,,,,,1374.2787,1374.7788,1375.0288,1380.3117,space,5.2657,,1380.3117,73,2,1381.3113,1381.3114,1381.3196,,,,0,10,10,10,1,95,20,,,,,,,,
,,64b51ebf8e67162f918b1479,65af56b9258f4c49e4087ae0,2024-01-23_08h04.40.622,bars,2023.2.3,Win32,59.88023952,657b66ea316d21385b68909f,,,,,,,,,,,1381.3198,1382.3112,,,1382.8114,1383.0616,,161,161,,,,,,,,,,,,,,,,bars/011.png,bars/mask005.png,,,,,,,,,,,,4,1,,,,,,,4,6,4,5,,,,,,,,,,,1382.3113,1382.8114,1383.0616,1386.9775,space,3.9049,,1386.9775,1,76,1387.9772,1387.9772,1387.9918,,,,0,11,11,11,1,160,85,,,,,,,,
,,64b51ebf8e67162f918b1479,65af56b9258f4c49e4087ae0,2024-01-23_08h04.40.622,bars,2023.2.3,Win32,59.88023952,657b66ea316d21385b68909f,,,,,,,,,,,1387.992,1388.9937,,,1389.4937,1389.7435,,31,31,,,,,,,,,,,,,,,,bars/029.png,bars/mask001.png,,,,,,,,,,,,5,2,,,,,,,2,8,2,9,,,,,,,,,,,1388.9937,1389.4937,1389.7436,1391.0936,space,1.3316,,1391.0937,59,14,1392.0937,1392.0938,1392.0984,,,,0,12,12,12,1,90,45,,,,,,,,
,,64b51ebf8e67162f918b1479,65af56b9258f4c49e4087ae0,2024-01-23_08h04.40.622,bars,2023.2.3,Win32,59.88023952,657b66ea316d21385b68909f,,,,,,,,,,,1392.0988,1393.0932,,,1393.5932,1393.8431,,64,64,,,,,,,,,,,,,,,,bars/007.png,bars/mask000.png,,,,,,,,,,,,6,2,,,,,,,0,10,1,9,,,,,,,,,,,1393.0932,1393.5932,1393.8432,1398.0428,space,4.1811,,1398.0429,69,9,1399.0425,1399.0425,1399.0568,,,,0,13,13,13,1,175,55,,,,,,,,
,,64b51ebf8e67162f918b1479,65af56b9258f4c49e4087ae0,2024-01-23_08h04.40.622,bars,2023.2.3,Win32,59.88023952,657b66ea316d21385b68909f,,,,,,,,,,,1399.0569,1400.0597,,,1400.5589,1400.8089,,36,36,,,,,,,,,,,,,,,,bars/005.png,bars/mask001.png,,,,,,,,,,,,0,1,,,,,,,2,10,1,10,,,,,,,,,,,1400.0597,1400.5588,1400.809,1401.9757,space,1.1498,,1401.9758,26,76,1402.975,1402.9751,1402.9775,,,,0,14,14,14,1,10,140,,,,,,,,
,,64b51ebf8e67162f918b1479,65af56b9258f4c49e4087ae0,2024-01-23_08h04.40.622,bars,2023.2.3,Win32,59.88023952,657b66ea316d21385b68909f,,,,,,,,,,,1402.9785,1403.9752,,,1404.4751,1404.725,,151,-29,,,,,,,,,,,,,,,,bars/025.png,bars/mask009.png,,,,,,,,,,,,0,1,,,,,,,0,8,0,8,,,,,,,,,,,1403.9752,1404.4751,1404.725,1408.1581,space,3.424,,1408.1583,46,69,1409.1577,1409.1577,1409.1721,,,,0,15,15,15,1,105,40,,,,,,,,
,,64b51ebf8e67162f918b1479,65af56b9258f4c49e4087ae0,2024-01-23_08h04.40.622,bars,2023.2.3,Win32,59.88023952,657b66ea316d21385b68909f,,,,,,,,,,,1409.1723,1410.1744,,,1410.6745,1410.9241,,68,68,,,,,,,,,,,,,,,,bars/024.png,bars/mask005.png,,,,,,,,,,,,0,1,,,,,,,0,10,1,8,,,,,,,,,,,1410.1744,1410.6744,1410.9243,1413.9072,space,2.9694,,1413.9073,52,78,1414.9068,1414.9069,1414.9162,,,,0,16,16,16,1,120,170,,,,,,,,
,,64b51ebf8e67162f918b1479,65af56b9258f4c49e4087ae0,2024-01-23_08h04.40.622,bars,2023.2.3,Win32,59.88023952,657b66ea316d21385b68909f,,,,,,,,,,,1414.9165,1415.912,,,1416.4068,1416.6568,,107,107,,,,,,,,,,,,,,,,bars/040.png,bars/mask000.png,,,,,,,,,,,,0,1,,,,,,,0,10,0,9,,,,,,,,,,,1415.912,1416.4067,1416.6568,1417.5567,space,0.8836,,1417.5567,33,78,1418.5565,1418.5565,1418.5589,,,,0,17,17,17,1,140,5,,,,,,,,
,,64b51ebf8e67162f918b1479,65af56b9258f4c49e4087ae0,2024-01-23_08h04.40.622,bars,2023.2.3,Win32,59.88023952,657b66ea316d21385b68909f,,,,,,,,,,,1418.5597,1419.5563,,,1420.0564,1420.3064,,49,49,,,,,,,,,,,,,,,,bars/018.png,bars/mask003.png,,,,,,,,,,,,0,2,,,,,,,2,10,2,10,,,,,,,,,,,1419.5563,1420.0564,1420.3064,1423.8061,space,3.4911,,1423.8062,79,41,1424.8059,1424.8059,1424.8171,,,,0,18,18,18,1,150,90,,,,,,,,
,,64b51ebf8e67162f918b1479,65af56b9258f4c49e4087ae0,2024-01-23_08h04.40.622,bars,2023.2.3,Win32,59.88023952,657b66ea316d21385b68909f,,,,,,,,,,,1424.8174,1425.8053,,,1426.3056,1426.5556,,59,59,,,,,,,,,,,,,,,,bars/027.png,bars/mask001.png,,,,,,,,,,,,6,2,,,,,,,4,8,5,8,,,,,,,,,,,1425.8053,1426.3056,1426.5556,1427.4887,space,0.9217,,1427.4887,51,9,1428.4886,1428.4886,1428.4896,,,,0,19,19,19,1,110,50,,,,,,,,
,,64b51ebf8e67162f918b1479,65af56b9258f4c49e4087ae0,2024-01-23_08h04.40.622,bars,2023.2.3,Win32,59.88023952,657b66ea316d21385b68909f,,,,,,,,,,,1428.4901,1429.4882,,,1429.9885,1430.2384,,69,69,,,,,,,,,,,,,,,,bars/042.png,bars/mask007.png,,,,,,,,,,,,8,2,,,,,,,6,10,7,10,,,,,,,,,,,1429.4882,1429.9884,1430.2385,1431.2219,space,0.9686,,1431.222,76,6,1432.2212,1432.2212,1432.222,,,,0,20,20,20,1,145,75,,,,,,,,
,,64b51ebf8e67162f918b1479,65af56b9258f4c49e4087ae0,2024-01-23_08h04.40.622,bars,2023.2.3,Win32,59.88023952,657b66ea316d21385b68909f,,,,,,,,,,,1432.2223,1433.2214,,,1433.7214,1433.9713,,35,35,,,,,,,,,,,,,,,,bars/041.png,bars/mask000.png,,,,,,,,,,,,4,1,,,,,,,8,8,7,7,,,,,,,,,,,1433.2214,1433.7213,1433.9713,1435.2377,space,1.2511,,1435.2377,15,50,1436.2378,1436.2378,1436.2426,,,,0,21,21,21,1,20,85,,,,,,,,
,,64b51ebf8e67162f918b1479,65af56b9258f4c49e4087ae0,2024-01-23_08h04.40.622,bars,2023.2.3,Win32,59.88023952,657b66ea316d21385b68909f,,,,,,,,,,,1436.243,1437.2373,,,1437.7374,1437.9872,,76,76,,,,,,,,,,,,,,,,bars/012.png,bars/mask003.png,,,,,,,,,,,,3,1,,,,,,,6,10,6,10,,,,,,,,,,,1437.2374,1437.7374,1437.9872,1438.9711,space,0.9713,,1438.9713,14,61,1439.9704,1439.9704,1439.972,,,,0,22,22,22,1,90,15,,,,,,,,
,,64b51ebf8e67162f918b1479,65af56b9258f4c49e4087ae0,2024-01-23_08h04.40.622,bars,2023.2.3,Win32,59.88023952,657b66ea316d21385b68909f,,,,,,,,,,,1439.9727,1440.9704,,,1441.47,1441.7203,,53,53,,,,,,,,,,,,,,,,bars/019.png,bars/mask006.png,,,,,,,,,,,,2,1,,,,,,,4,8,3,7,,,,,,,,,,,1440.9704,1441.4699,1441.7203,1442.6369,space,0.9029,,1442.6369,8,52,1443.6365,1443.6365,1443.6374,,,,0,23,23,23,1,45,105,,,,,,,,
,,64b51ebf8e67162f918b1479,65af56b9258f4c49e4087ae0,2024-01-23_08h04.40.622,bars,2023.2.3,Win32,59.88023952,657b66ea316d21385b68909f,,,,,,,,,,,1443.6377,1444.6364,,,1445.1365,1445.3864,,0,0,,,,,,,,,,,,,,,,bars/035.png,bars/mask001.png,,,,,,,,,,,,5,1,,,,,,,6,10,6,10,,,,,,,,,,,1444.6365,1445.1365,1445.3865,1448.8694,space,3.4661,,1448.8696,5,60,1449.869,1449.8691,1449.8826,,,,0,24,24,24,1,175,60,,,,,,,,
,,64b51ebf8e67162f918b1479,65af56b9258f4c49e4087ae0,2024-01-23_08h04.40.622,bars,2023.2.3,Win32,59.88023952,657b66ea316d21385b68909f,,,,,,,,,,,1449.8827,1450.886,,,1451.3857,1451.6356,,65,65,,,,,,,,,,,,,,,,bars/044.png,bars/mask009.png,,,,,,,,,,,,5,1,,,,,,,8,10,8,9,,,,,,,,,,,1450.886,1451.3857,1451.6356,1452.4693,space,0.8204,,1452.4694,10,90,1453.4687,1453.4687,1453.4699,,,,0,25,25,25,1,75,155,,,,,,,,
,,64b51ebf8e67162f918b1479,65af56b9258f4c49e4087ae0,2024-01-23_08h04.40.622,bars,2023.2.3,Win32,59.88023952,657b66ea316d21385b68909f,,,,,,,,,,,1453.4704,1454.4687,,,1454.9685,1455.2187,,34,34,,,,,,,,,,,,,,,,bars/024.png,bars/mask003.png,,,,,,,,,,,,0,2,,,,,,,10,8,10,8,,,,,,,,,,,1454.4687,1454.9685,1455.2187,1461.9677,space,6.7319,,1461.9679,86,44,1462.9672,1462.9673,1462.9778,,,,0,26,26,26,1,120,170,,,,,,,,
,,64b51ebf8e67162f918b1479,65af56b9258f4c49e4087ae0,2024-01-23_08h04.40.622,bars,2023.2.3,Win32,59.88023952,657b66ea316d21385b68909f,,,,,,,,,,,1462.978,1463.9672,,,1464.4673,1464.7172,,129,129,,,,,,,,,,,,,,,,bars/031.png,bars/mask004.png,,,,,,,,,,,,7,1,,,,,,,10,10,10,10,,,,,,,,,,,1463.9672,1464.4673,1464.7173,1465.6171,space,0.8867,,1465.6172,9,86,1466.6168,1466.617,1466.6211,,,,0,27,27,27,1,120,35,,,,,,,,
,,64b51ebf8e67162f918b1479,65af56b9258f4c49e4087ae0,2024-01-23_08h04.40.622,bars,2023.2.3,Win32,59.88023952,657b66ea316d21385b68909f,,,,,,,,,,,1466.622,1467.6165,,,1468.1167,1468.3667,,17,17,,,,,,,,,,,,,,,,bars/042.png,bars/mask007.png,,,,,,,,,,,,0,1,,,,,,,8,10,8,10,,,,,,,,,,,1467.6166,1468.1167,1468.3667,1470.0167,space,1.6418,,1470.0167,52,58,1471.0163,1471.0163,1471.0175,,,,0,28,28,28,1,145,75,,,,,,,,
,,64b51ebf8e67162f918b1479,65af56b9258f4c49e4087ae0,2024-01-23_08h04.40.622,bars,2023.2.3,Win32,59.88023952,657b66ea316d21385b68909f,,,,,,,,,,,1471.0179,1472.0163,,,1472.5163,1472.7662,,160,160,,,,,,,,,,,,,,,,bars/001.png,bars/mask005.png,,,,,,,,,,,,0,1,,,,,,,10,8,9,9,,,,,,,,,,,1472.0163,1472.5162,1472.7662,1477.9489,space,5.1676,,1477.949,30,75,1478.9487,1478.9487,1478.962,,,,0,29,29,29,1,130,85,,,,,,,,
,,64b51ebf8e67162f918b1479,65af56b9258f4c49e4087ae0,2024-01-23_08h04.40.622,bars,2023.2.3,Win32,59.88023952,657b66ea316d21385b68909f,,,,,,,,,,,1478.9623,1479.965,,,1480.4652,1480.715,,73,73,,,,,,,,,,,,,,,,bars/023.png,bars/mask005.png,,,,,,,,,,,,0,2,,,,,,,8,10,7,10,,,,,,,,,,,1479.965,1480.4651,1480.715,1481.6981,space,0.9647,,1481.6983,53,42,1482.6982,1482.6983,1482.7029,,,,0,30,30,30,1,20,115,,,,,,,,
,,64b51ebf8e67162f918b1479,65af56b9258f4c49e4087ae0,2024-01-23_08h04.40.622,bars,2023.2.3,Win32,59.88023952,657b66ea316d21385b68909f,,,,,,,,,,,1482.7032,1483.6977,,,1484.198,1484.4479,,65,65,,,,,,,,,,,,,,,,bars/022.png,bars/mask000.png,,,,,,,,,,,,0,1,,,,,,,6,10,5,10,,,,,,,,,,,1483.6978,1484.198,1484.4479,1486.2813,space,1.8163,,1486.2813,30,45,1487.2811,1487.2812,1487.2851,,,,0,31,31,31,1,95,20,,,,,,,,
,,64b51ebf8e67162f918b1479,65af56b9258f4c49e4087ae0,2024-01-23_08h04.40.622,bars,2023.2.3,Win32,59.88023952,657b66ea316d21385b68909f,,,,,,,,,,,1487.2859,1488.281,,,1488.781,1489.0308,,159,159,,,,,,,,,,,,,,,,bars/049.png,bars/mask003.png,,,,,,,,,,,,1,1,,,,,,,4,10,1,9,,,,,,,,,,,1488.2812,1488.781,1489.0309,1489.8642,space,0.8233,,1489.8642,1,44,1490.8639,1490.8639,1490.8655,,,,0,32,32,32,1,160,115,,,,,,,,
,,64b51ebf8e67162f918b1479,65af56b9258f4c49e4087ae0,2024-01-23_08h04.40.622,bars,2023.2.3,Win32,59.88023952,657b66ea316d21385b68909f,,,,,,,,,,,1490.8662,1491.8638,,,1492.3635,1492.6136,,90,90,,,,,,,,,,,,,,,,bars/012.png,bars/mask008.png,,,,,,,,,,,,2,1,,,,,,,2,8,2,8,,,,,,,,,,,1491.8638,1492.3635,1492.6137,1497.0798,space,4.4484,,1497.0798,0,75,1498.0794,1498.0794,1498.0928,,,,0,33,33,33,1,90,15,,,,,,,,
,,64b51ebf8e67162f918b1479,65af56b9258f4c49e4087ae0,2024-01-23_08h04.40.622,bars,2023.2.3,Win32,59.88023952,657b66ea316d21385b68909f,,,,,,,,,,,1498.0929,1499.0959,,,1499.596,1499.846,,105,105,,,,,,,,,,,,,,,,bars/026.png,bars/mask009.png,,,,,,,,,,,,3,2,,,,,,,4,6,5,8,,,,,,,,,,,1499.096,1499.596,1499.8461,1500.7459,space,0.8874,,1500.7459,70,20,1501.7453,1501.7454,1501.7474,,,,0,34,34,34,1,35,85,,,,,,,,
,,64b51ebf8e67162f918b1479,65af56b9258f4c49e4087ae0,2024-01-23_08h04.40.622,bars,2023.2.3,Win32,59.88023952,657b66ea316d21385b68909f,,,,,,,,,,,1501.7477,1502.7454,,,1503.2455,1503.4955,,16,16,,,,,,,,,,,,,,,,bars/043.png,bars/mask007.png,,,,,,,,,,,,3,1,,,,,,,6,8,5,9,,,,,,,,,,,1502.7454,1503.2455,1503.4955,1504.2953,space,0.7895,,1504.2953,14,66,1505.2951,1505.2952,1505.2988,,,,0,35,35,35,1,30,130,,,,,,,,
,,64b51ebf8e67162f918b1479,65af56b9258f4c49e4087ae0,2024-01-23_08h04.40.622,bars,2023.2.3,Win32,59.88023952,657b66ea316d21385b68909f,,,,,,,,,,,1505.2994,1506.2948,,,1506.7949,1507.045,,71,71,,,,,,,,,,,,,,,,bars/042.png,bars/mask006.png,,,,,,,,,,,,8,2,,,,,,,8,10,9,9,,,,,,,,,,,1506.2949,1506.7949,1507.045,1512.1446,space,5.0835,,1512.1448,74,4,1513.1442,1513.1442,1513.1572,,,,0,36,36,36,1,145,75,,,,,,,,
,,64b51ebf8e67162f918b1479,65af56b9258f4c49e4087ae0,2024-01-23_08h04.40.622,bars,2023.2.3,Win32,59.88023952,657b66ea316d21385b68909f,,,,,,,,,,,1513.1574,1514.1609,,,1514.6612,1514.9107,,35,35,,,,,,,,,,,,,,,,bars/003.png,bars/mask007.png,,,,,,,,,,,,6,1,,,,,,,10,8,9,9,,,,,,,,,,,1514.161,1514.6611,1514.9108,1518.8603,space,3.9341,,1518.8603,10,75,1519.8599,1519.86,1519.8735,,,,0,37,37,37,1,25,140,,,,,,,,
,,64b51ebf8e67162f918b1479,65af56b9258f4c49e4087ae0,2024-01-23_08h04.40.622,bars,2023.2.3,Win32,59.88023952,657b66ea316d21385b68909f,,,,,,,,,,,1519.8736,1520.8765,,,1521.3765,1521.6265,,32,32,,,,,,,,,,,,,,,,bars/026.png,bars/mask005.png,,,,,,,,,,,,9,1,,,,,,,10,10,10,10,,,,,,,,,,,1520.8766,1521.3765,1521.6266,1526.4423,space,4.8023,,1526.4424,3,53,1527.4424,1527.4424,1527.4567,,,,0,38,38,38,1,35,85,,,,,,,,
,,64b51ebf8e67162f918b1479,65af56b9258f4c49e4087ae0,2024-01-23_08h04.40.622,bars,2023.2.3,Win32,59.88023952,657b66ea316d21385b68909f,,,,,,,,,,,1527.4568,1528.4588,,,1528.9589,1529.2088,,147,147,,,,,,,,,,,,,,,,bars/047.png,bars/mask009.png,,,,,,,,,,,,0,1,,,,,,,10,10,10,10,,,,,,,,,,,1528.4588,1528.9588,1529.2088,1530.2255,space,1.0077,,1530.2256,48,77,1531.2251,1531.2251,1531.2261,,,,0,39,39,39,1,15,70,,,,,,,,
,,64b51ebf8e67162f918b1479,65af56b9258f4c49e4087ae0,2024-01-23_08h04.40.622,bars,2023.2.3,Win32,59.88023952,657b66ea316d21385b68909f,,,,,,,,,,,1531.2267,1532.225,,,1532.7251,1532.9749,,22,22,,,,,,,,,,,,,,,,bars/048.png,bars/mask001.png,,,,,,,,,,,,1,2,,,,,,,8,8,7,7,,,,,,,,,,,1532.2252,1532.725,1532.975,1535.0248,space,2.0387,,1535.0248,28,27,1536.0245,1536.0246,1536.0388,,,,0,40,40,40,1,50,175,,,,,,,,
,,64b51ebf8e67162f918b1479,65af56b9258f4c49e4087ae0,2024-01-23_08h04.40.622,bars,2023.2.3,Win32,59.88023952,657b66ea316d21385b68909f,,,,,,,,,,,1536.039,1537.0412,,,1537.5412,1537.7911,,62,62,,,,,,,,,,,,,,,,bars/000.png,bars/mask007.png,,,,,,,,,,,,3,1,,,,,,,10,6,10,7,,,,,,,,,,,1537.0412,1537.5412,1537.7911,1538.8094,space,1.0063,,1538.8097,22,83,1539.8073,1539.8074,1539.812,,,,0,41,41,41,1,40,145,,,,,,,,
,,64b51ebf8e67162f918b1479,65af56b9258f4c49e4087ae0,2024-01-23_08h04.40.622,bars,2023.2.3,Win32,59.88023952,657b66ea316d21385b68909f,,,,,,,,,,,1539.8125,1540.8073,,,1541.3072,1541.5572,,135,-45,,,,,,,,,,,,,,,,bars/049.png,bars/mask006.png,,,,,,,,,,,,1,2,,,,,,,10,4,10,4,,,,,,,,,,,1540.8073,1541.3072,1541.5573,1553.489,space,11.9225,,1553.4892,25,20,1554.4886,1554.4886,1554.4998,,,,0,42,42,42,1,160,115,,,,,,,,
,,64b51ebf8e67162f918b1479,65af56b9258f4c49e4087ae0,2024-01-23_08h04.40.622,bars,2023.2.3,Win32,59.88023952,657b66ea316d21385b68909f,,,,,,,,,,,1554.5,1555.4887,,,1555.9886,1556.2385,,104,104,,,,,,,,,,,,,,,,bars/010.png,bars/mask008.png,,,,,,,,,,,,0,2,,,,,,,8,6,7,7,,,,,,,,,,,1555.4887,1555.9886,1556.2386,1559.9549,space,3.6976,,1559.955,61,49,1560.9546,1560.9546,1560.9661,,,,0,43,43,43,1,165,55,,,,,,,,
,,64b51ebf8e67162f918b1479,65af56b9258f4c49e4087ae0,2024-01-23_08h04.40.622,bars,2023.2.3,Win32,59.88023952,657b66ea316d21385b68909f,,,,,,,,,,,1560.9662,1561.9544,,,1562.4545,1562.7043,,25,25,,,,,,,,,,,,,,,,bars/005.png,bars/mask004.png,,,,,,,,,,,,5,1,,,,,,,10,8,10,9,,,,,,,,,,,1561.9545,1562.4544,1562.7044,1563.6712,space,0.9595,,1563.6713,15,65,1564.6708,1564.6708,1564.6826,,,,0,44,44,44,1,10,140,,,,,,,,
,,64b51ebf8e67162f918b1479,65af56b9258f4c49e4087ae0,2024-01-23_08h04.40.622,bars,2023.2.3,Win32,59.88023952,657b66ea316d21385b68909f,,,,,,,,,,,1564.6828,1565.6707,,,1566.1703,1566.4202,,143,143,,,,,,,,,,,,,,,,bars/013.png,bars/mask001.png,,,,,,,,,,,,0,2,,,,,,,10,10,10,10,,,,,,,,,,,1565.6707,1566.1703,1566.4203,1567.3709,space,0.9376,,1567.371,68,47,1568.3703,1568.3703,1568.3739,,,,0,45,45,45,1,75,10,,,,,,,,
,,64b51ebf8e67162f918b1479,65af56b9258f4c49e4087ae0,2024-01-23_08h04.40.622,bars,2023.2.3,Win32,59.88023952,657b66ea316d21385b68909f,,,,,,,,,,,1568.3749,1569.3702,,,1569.8702,1570.1201,,136,136,,,,,,,,,,,,,,,,bars/004.png,bars/mask009.png,,,,,,,,,,,,5,2,,,,,,,8,8,7,8,,,,,,,,,,,1569.3702,1569.8702,1570.1201,1579.5522,space,9.4209,,1579.5523,69,11,1580.552,1580.552,1580.5609,,,,0,46,46,46,1,25,125,,,,,,,,
,,64b51ebf8e67162f918b1479,65af56b9258f4c49e4087ae0,2024-01-23_08h04.40.622,bars,2023.2.3,Win32,59.88023952,657b66ea316d21385b68909f,,,,,,,,,,,1580.5611,1581.552,,,1582.052,1582.3018,,69,69,,,,,,,,,,,,,,,,bars/022.png,bars/mask007.png,,,,,,,,,,,,1,1,,,,,,,10,10,10,10,,,,,,,,,,,1581.552,1582.0519,1582.3019,1591.1342,space,8.8238,,1591.1344,26,49,1592.1338,1592.1338,1592.1485,,,,0,47,47,47,1,95,20,,,,,,,,
,,64b51ebf8e67162f918b1479,65af56b9258f4c49e4087ae0,2024-01-23_08h04.40.622,bars,2023.2.3,Win32,59.88023952,657b66ea316d21385b68909f,,,,,,,,,,,1592.1486,1593.1505,,,1593.6504,1593.9003,,64,64,,,,,,,,,,,,,,,,bars/008.png,bars/mask009.png,,,,,,,,,,,,0,1,,,,,,,8,8,8,8,,,,,,,,,,,1593.1506,1593.6502,1593.9005,1605.199,space,11.289,,1605.199,46,64,1606.1986,1606.1987,1606.2147,,,,0,48,48,48,1,110,0,,,,,,,,
,,64b51ebf8e67162f918b1479,65af56b9258f4c49e4087ae0,2024-01-23_08h04.40.622,bars,2023.2.3,Win32,59.88023952,657b66ea316d21385b68909f,,,,,,,,,,,1606.2151,1607.2152,,,1607.7153,1607.9651,,20,20,,,,,,,,,,,,,,,,bars/008.png,bars/mask004.png,,,,,,,,,,,,2,2,,,,,,,10,6,10,6,,,,,,,,,,,1607.2153,1607.7151,1607.9652,1616.7141,space,8.7359,,1616.7141,90,20,1617.7138,1617.7138,1617.7297,,,,0,49,49,49,1,110,0,,,,,,,,
,,64b51ebf8e67162f918b1479,65af56b9258f4c49e4087ae0,2024-01-23_08h04.40.622,bars,2023.2.3,Win32,59.88023952,657b66ea316d21385b68909f,,,,,,,,,,,,,,,,,,,,,,,,,,,,,,,,,,,,,,,,,,,,,,,,,,,,,,,,,,,,,,,,,,,,,,,,,,,,,,,,,,,,,,,,,,,,,1617.7298,1677.7229,0,2,2,2,1,sequence_tables/blk029.csv
,,64b51ebf8e67162f918b1479,65af56b9258f4c49e4087ae0,2024-01-23_08h04.40.622,bars,2023.2.3,Win32,59.88023952,657b66ea316d21385b68909f,,,,,,,,,,,1682.6055,1683.6052,,,1684.1052,1684.3555,,26,26,,,,,,,,,,,,,,,,bars/015.png,bars/mask001.png,,,,,,,,,,,,0,2,,,,,,,7,5,7,6,,,,,,1677.7379,1682.5906,space,4.8466,,1683.6052,1684.1051,1684.3556,1687.2216,space,2.8511,,1687.2218,84,46,1688.2214,1688.2214,1688.2354,,,,0,0,0,0,1,110,160,,,,,,,,
,,64b51ebf8e67162f918b1479,65af56b9258f4c49e4087ae0,2024-01-23_08h04.40.622,bars,2023.2.3,Win32,59.88023952,657b66ea316d21385b68909f,,,,,,,,,,,1688.2356,1689.238,,,1689.7378,1689.9878,,45,45,,,,,,,,,,,,,,,,bars/000.png,bars/mask009.png,,,,,,,,,,,,8,1,,,,,,,9,3,10,2,,,,,,,,,,,1689.2381,1689.7378,1689.9878,1694.7874,space,4.7854,,1694.7876,5,80,1695.7868,1695.7868,1695.7971,,,,0,1,1,1,1,40,145,,,,,,,,
,,64b51ebf8e67162f918b1479,65af56b9258f4c49e4087ae0,2024-01-23_08h04.40.622,bars,2023.2.3,Win32,59.88023952,657b66ea316d21385b68909f,,,,,,,,,,,1695.7973,1696.7869,,,1697.2868,1697.5365,,154,154,,,,,,,,,,,,,,,,bars/043.png,bars/mask003.png,,,,,,,,,,,,0,2,,,,,,,7,1,6,2,,,,,,,,,,,1696.787,1697.2868,1697.5365,1716.6013,space,19.0529,,1716.6015,56,24,1717.6009,1717.6009,1717.6165,,,,0,2,2,2,1,30,130,,,,,,,,
,,64b51ebf8e67162f918b1479,65af56b9258f4c49e4087ae0,2024-01-23_08h04.40.622,bars,2023.2.3,Win32,59.88023952,657b66ea316d21385b68909f,,,,,,,,,,,1717.6166,1718.6174,,,1719.1175,1719.3672,,159,159,,,,,,,,,,,,,,,,bars/042.png,bars/mask001.png,,,,,,,,,,,,3,1,,,,,,,5,3,5,2,,,,,,,,,,,1718.6175,1719.1174,1719.3673,1720.3508,space,0.9766,,1720.3509,14,84,1721.3503,1721.3504,1721.3541,,,,0,3,3,3,1,145,75,,,,,,,,
,,64b51ebf8e67162f918b1479,65af56b9258f4c49e4087ae0,2024-01-23_08h04.40.622,bars,2023.2.3,Win32,59.88023952,657b66ea316d21385b68909f,,,,,,,,,,,1721.3551,1722.3502,,,1722.8503,1723.1002,,62,62,,,,,,,,,,,,,,,,bars/042.png,bars/mask002.png,,,,,,,,,,,,1,2,,,,,,,7,1,6,2,,,,,,,,,,,1722.3503,1722.8502,1723.1003,1724.017,space,0.9006,,1724.017,83,13,1725.0165,1725.0166,1725.0202,,,,0,4,4,4,1,145,75,,,,,,,,
,,64b51ebf8e67162f918b1479,65af56b9258f4c49e4087ae0,2024-01-23_08h04.40.622,bars,2023.2.3,Win32,59.88023952,657b66ea316d21385b68909f,,,,,,,,,,,1725.0214,1726.0165,,,1726.5165,1726.7664,,159,159,,,,,,,,,,,,,,,,bars/029.png,bars/mask004.png,,,,,,,,,,,,0,2,,,,,,,5,0,5,0,,,,,,,,,,,1726.0165,1726.5165,1726.7664,1727.6331,space,0.8574,,1727.6331,69,66,1728.6327,1728.6327,1728.6341,,,,0,5,5,5,1,90,45,,,,,,,,
,,64b51ebf8e67162f918b1479,65af56b9258f4c49e4087ae0,2024-01-23_08h04.40.622,bars,2023.2.3,Win32,59.88023952,657b66ea316d21385b68909f,,,,,,,,,,,1728.6346,1729.6326,,,1730.1325,1730.3826,,62,62,,,,,,,,,,,,,,,,bars/045.png,bars/mask004.png,,,,,,,,,,,,0,1,,,,,,,7,2,8,3,,,,,,,,,,,1729.6326,1730.1325,1730.3827,1731.299,space,0.8973,,1731.2991,38,52,1732.299,1732.2991,1732.3038,,,,0,6,6,6,1,100,10,,,,,,,,
,,64b51ebf8e67162f918b1479,65af56b9258f4c49e4087ae0,2024-01-23_08h04.40.622,bars,2023.2.3,Win32,59.88023952,657b66ea316d21385b68909f,,,,,,,,,,,1732.3041,1733.2986,,,1733.7987,1734.0488,,153,-27,,,,,,,,,,,,,,,,bars/044.png,bars/mask000.png,,,,,,,,,,,,1,2,,,,,,,9,0,10,1,,,,,,,,,,,1733.2986,1733.7987,1734.0488,1739.0316,space,4.9657,,1739.0318,78,2,1740.0313,1740.0313,1740.0473,,,,0,7,7,7,1,75,155,,,,,,,,
,,64b51ebf8e67162f918b1479,65af56b9258f4c49e4087ae0,2024-01-23_08h04.40.622,bars,2023.2.3,Win32,59.88023952,657b66ea316d21385b68909f,,,,,,,,,,,1740.0476,1741.0478,,,1741.5478,1741.7976,,142,-38,,,,,,,,,,,,,,,,bars/012.png,bars/mask009.png,,,,,,,,,,,,0,1,,,,,,,7,0,6,0,,,,,,,,,,,1741.0478,1741.5478,1741.7978,1753.3959,space,11.5905,,1753.396,52,53,1754.396,1754.396,1754.4123,,,,0,8,8,8,1,90,15,,,,,,,,
,,64b51ebf8e67162f918b1479,65af56b9258f4c49e4087ae0,2024-01-23_08h04.40.622,bars,2023.2.3,Win32,59.88023952,657b66ea316d21385b68909f,,,,,,,,,,,1754.4124,1755.4124,,,1755.9125,1756.1625,,48,48,,,,,,,,,,,,,,,,bars/029.png,bars/mask004.png,,,,,,,,,,,,1,2,,,,,,,5,2,4,1,,,,,,,,,,,1755.4124,1755.9125,1756.1625,1757.1293,space,0.9571,,1757.1294,42,3,1758.1288,1758.1289,1758.1334,,,,0,9,9,9,1,90,45,,,,,,,,
,,64b51ebf8e67162f918b1479,65af56b9258f4c49e4087ae0,2024-01-23_08h04.40.622,bars,2023.2.3,Win32,59.88023952,657b66ea316d21385b68909f,,,,,,,,,,,1758.1338,1759.1287,,,1759.6288,1759.8787,,71,71,,,,,,,,,,,,,,,,bars/037.png,bars/mask001.png,,,,,,,,,,,,0,2,,,,,,,3,0,4,0,,,,,,,,,,,1759.1287,1759.6288,1759.8787,1760.6952,space,0.8085,,1760.6953,79,34,1761.6951,1761.6951,1761.6965,,,,0,10,10,10,1,150,105,,,,,,,,
,,64b51ebf8e67162f918b1479,65af56b9258f4c49e4087ae0,2024-01-23_08h04.40.622,bars,2023.2.3,Win32,59.88023952,657b66ea316d21385b68909f,,,,,,,,,,,1761.697,1762.6949,,,1763.1949,1763.4446,,0,0,,,,,,,,,,,,,,,,bars/041.png,bars/mask003.png,,,,,,,,,,,,0,1,,,,,,,1,0,1,0,,,,,,,,,,,1762.695,1763.1949,1763.4446,1767.3777,space,3.9135,,1767.3778,20,85,1768.3775,1768.3775,1768.3883,,,,0,11,11,11,1,20,85,,,,,,,,
,,64b51ebf8e67162f918b1479,65af56b9258f4c49e4087ae0,2024-01-23_08h04.40.622,bars,2023.2.3,Win32,59.88023952,657b66ea316d21385b68909f,,,,,,,,,,,1768.3884,1769.3772,,,1769.8774,1770.1273,,128,128,,,,,,,,,,,,,,,,bars/027.png,bars/mask001.png,,,,,,,,,,,,1,1,,,,,,,3,0,3,0,,,,,,,,,,,1769.3772,1769.8774,1770.1274,1771.1774,space,1.0381,,1771.1774,18,78,1772.1771,1772.1771,1772.1783,,,,0,12,12,12,1,110,50,,,,,,,,
,,64b51ebf8e67162f918b1479,65af56b9258f4c49e4087ae0,2024-01-23_08h04.40.622,bars,2023.2.3,Win32,59.88023952,657b66ea316d21385b68909f,,,,,,,,,,,1772.1788,1773.1767,,,1773.6769,1773.9266,,151,151,,,,,,,,,,,,,,,,bars/008.png,bars/mask007.png,,,,,,,,,,,,0,2,,,,,,,5,0,4,0,,,,,,,,,,,1773.1768,1773.6768,1773.9266,1777.3595,space,3.4139,,1777.3596,41,29,1778.3596,1778.3596,1778.3742,,,,0,13,13,13,1,110,0,,,,,,,,
,,64b51ebf8e67162f918b1479,65af56b9258f4c49e4087ae0,2024-01-23_08h04.40.622,bars,2023.2.3,Win32,59.88023952,657b66ea316d21385b68909f,,,,,,,,,,,1778.3745,1779.376,,,1779.8761,1780.126,,155,155,,,,,,,,,,,,,,,,bars/003.png,bars/mask001.png,,,,,,,,,,,,1,2,,,,,,,3,0,3,2,,,,,,,,,,,1779.376,1779.8761,1780.1261,1780.9097,space,0.7678,,1780.9097,50,15,1781.9091,1781.9092,1781.9109,,,,0,14,14,14,1,25,140,,,,,,,,
,,64b51ebf8e67162f918b1479,65af56b9258f4c49e4087ae0,2024-01-23_08h04.40.622,bars,2023.2.3,Win32,59.88023952,657b66ea316d21385b68909f,,,,,,,,,,,1781.9116,1782.909,,,1783.4089,1783.6588,,128,128,,,,,,,,,,,,,,,,bars/007.png,bars/mask004.png,,,,,,,,,,,,0,1,,,,,,,5,2,4,3,,,,,,,,,,,1782.909,1783.4089,1783.6589,1784.4922,space,0.8176,,1784.4923,47,73,1785.4917,1785.4917,1785.4941,,,,0,15,15,15,1,175,55,,,,,,,,
,,64b51ebf8e67162f918b1479,65af56b9258f4c49e4087ae0,2024-01-23_08h04.40.622,bars,2023.2.3,Win32,59.88023952,657b66ea316d21385b68909f,,,,,,,,,,,1785.4945,1786.4918,,,1786.9918,1787.2417,,42,42,,,,,,,,,,,,,,,,bars/049.png,bars/mask008.png,,,,,,,,,,,,0,1,,,,,,,7,4,8,3,,,,,,,,,,,1786.4918,1786.9918,1787.2418,1788.1751,space,0.9183,,1788.1752,62,73,1789.1748,1789.1749,1789.1761,,,,0,16,16,16,1,160,115,,,,,,,,
,,64b51ebf8e67162f918b1479,65af56b9258f4c49e4087ae0,2024-01-23_08h04.40.622,bars,2023.2.3,Win32,59.88023952,657b66ea316d21385b68909f,,,,,,,,,,,1789.1767,1790.1748,,,1790.6748,1790.9246,,90,90,,,,,,,,,,,,,,,,bars/021.png,bars/mask002.png,,,,,,,,,,,,1,2,,,,,,,9,2,9,3,,,,,,,,,,,1790.1749,1790.6746,1790.9247,1794.8075,space,3.8724,,1794.8075,65,20,1795.8071,1795.8071,1795.8166,,,,0,17,17,17,1,155,70,,,,,,,,
,,64b51ebf8e67162f918b1479,65af56b9258f4c49e4087ae0,2024-01-23_08h04.40.622,bars,2023.2.3,Win32,59.88023952,657b66ea316d21385b68909f,,,,,,,,,,,1795.8168,1796.8071,,,1797.3071,1797.5568,,103,103,,,,,,,,,,,,,,,,bars/021.png,bars/mask009.png,,,,,,,,,,,,0,2,,,,,,,10,0,10,1,,,,,,,,,,,1796.8072,1797.3071,1797.5569,1798.4239,space,0.8567,,1798.4241,52,33,1799.4233,1799.4233,1799.4238,,,,0,18,18,18,1,155,70,,,,,,,,
,,64b51ebf8e67162f918b1479,65af56b9258f4c49e4087ae0,2024-01-23_08h04.40.622,bars,2023.2.3,Win32,59.88023952,657b66ea316d21385b68909f,,,,,,,,,,,1799.4241,1800.4233,,,1800.9234,1801.1732,,47,47,,,,,,,,,,,,,,,,bars/023.png,bars/mask006.png,,,,,,,,,,,,1,1,,,,,,,10,0,7,0,,,,,,,,,,,1800.4234,1800.9233,1801.1732,1819.9217,space,18.7358,,1819.9218,27,68,1820.9208,1820.9208,1820.9376,,,,0,19,19,19,1,20,115,,,,,,,,
,,64b51ebf8e67162f918b1479,65af56b9258f4c49e4087ae0,2024-01-23_08h04.40.622,bars,2023.2.3,Win32,59.88023952,657b66ea316d21385b68909f,,,,,,,,,,,1820.9377,1821.9372,,,1822.4372,1822.6872,,116,116,,,,,,,,,,,,,,,,bars/030.png,bars/mask000.png,,,,,,,,,,,,1,1,,,,,,,8,2,7,3,,,,,,,,,,,1821.9372,1822.4371,1822.6872,1854.0501,space,31.3444,,1854.0503,24,51,1855.0496,1855.0496,1855.0632,,,,0,20,20,20,1,140,65,,,,,,,,
,,64b51ebf8e67162f918b1479,65af56b9258f4c49e4087ae0,2024-01-23_08h04.40.622,bars,2023.2.3,Win32,59.88023952,657b66ea316d21385b68909f,,,,,,,,,,,1855.0633,1856.0661,,,1856.5661,1856.816,,77,77,,,,,,,,,,,,,,,,bars/026.png,bars/mask004.png,,,,,,,,,,,,3,2,,,,,,,10,4,10,4,,,,,,,,,,,1856.0661,1856.566,1856.8161,1863.2987,space,6.4712,,1863.2988,42,8,1864.2984,1864.2984,1864.3129,,,,0,21,21,21,1,35,85,,,,,,,,
,,64b51ebf8e67162f918b1479,65af56b9258f4c49e4087ae0,2024-01-23_08h04.40.622,bars,2023.2.3,Win32,59.88023952,657b66ea316d21385b68909f,,,,,,,,,,,1864.313,1865.3148,,,1865.8147,1866.0648,,153,153,,,,,,,,,,,,,,,,bars/012.png,bars/mask009.png,,,,,,,,,,,,0,2,,,,,,,8,2,7,2,,,,,,,,,,,1865.3149,1865.8146,1866.065,1869.3646,space,3.2849,,1869.3646,63,42,1870.3642,1870.3642,1870.3777,,,,0,22,22,22,1,90,15,,,,,,,,
,,64b51ebf8e67162f918b1479,65af56b9258f4c49e4087ae0,2024-01-23_08h04.40.622,bars,2023.2.3,Win32,59.88023952,657b66ea316d21385b68909f,,,,,,,,,,,1870.3778,1871.3808,,,1871.8808,1872.1307,,68,68,,,,,,,,,,,,,,,,bars/011.png,bars/mask008.png,,,,,,,,,,,,0,2,,,,,,,10,0,9,0,,,,,,,,,,,1871.3808,1871.8808,1872.1307,1875.6801,space,3.5371,,1875.6802,88,17,1876.6801,1876.6801,1876.694,,,,0,23,23,23,1,160,85,,,,,,,,
,,64b51ebf8e67162f918b1479,65af56b9258f4c49e4087ae0,2024-01-23_08h04.40.622,bars,2023.2.3,Win32,59.88023952,657b66ea316d21385b68909f,,,,,,,,,,,1876.6941,1877.6964,,,1878.1965,1878.4466,,39,39,,,,,,,,,,,,,,,,bars/010.png,bars/mask002.png,,,,,,,,,,,,0,2,,,,,,,10,0,10,0,,,,,,,,,,,1877.6964,1878.1964,1878.4466,1879.4295,space,0.9693,,1879.4296,54,16,1880.43,1880.4301,1880.4317,,,,0,24,24,24,1,165,55,,,,,,,,
,,64b51ebf8e67162f918b1479,65af56b9258f4c49e4087ae0,2024-01-23_08h04.40.622,bars,2023.2.3,Win32,59.88023952,657b66ea316d21385b68909f,,,,,,,,,,,1880.4324,1881.4294,,,1881.9295,1882.1794,,153,-27,,,,,,,,,,,,,,,,bars/008.png,bars/mask006.png,,,,,,,,,,,,0,2,,,,,,,8,0,8,2,,,,,,,,,,,1881.4294,1881.9295,1882.1794,1886.0131,space,3.8255,,1886.0132,43,27,1887.0121,1887.0121,1887.0292,,,,0,25,25,25,1,110,0,,,,,,,,
,,64b51ebf8e67162f918b1479,65af56b9258f4c49e4087ae0,2024-01-23_08h04.40.622,bars,2023.2.3,Win32,59.88023952,657b66ea316d21385b68909f,,,,,,,,,,,1887.0296,1888.0286,,,1888.5285,1888.7786,,99,99,,,,,,,,,,,,,,,,bars/006.png,bars/mask008.png,,,,,,,,,,,,2,2,,,,,,,10,0,10,2,,,,,,,,,,,1888.0286,1888.5285,1888.7786,1889.9285,space,1.1408,,1889.9285,64,1,1890.9283,1890.9283,1890.9295,,,,0,26,26,26,1,35,100,,,,,,,,
,,64b51ebf8e67162f918b1479,65af56b9258f4c49e4087ae0,2024-01-23_08h04.40.622,bars,2023.2.3,Win32,59.88023952,657b66ea316d21385b68909f,,,,,,,,,,,1890.9302,1891.928,,,1892.4281,1892.6779,,169,169,,,,,,,,,,,,,,,,bars/003.png,bars/mask000.png,,,,,,,,,,,,0,2,,,,,,,8,2,6,2,,,,,,,,,,,1891.9281,1892.4281,1892.678,1893.6278,space,0.9334,,1893.6278,36,29,1894.6278,1894.6278,1894.6291,,,,0,27,27,27,1,25,140,,,,,,,,
,,64b51ebf8e67162f918b1479,65af56b9258f4c49e4087ae0,2024-01-23_08h04.40.622,bars,2023.2.3,Win32,59.88023952,657b66ea316d21385b68909f,,,,,,,,,,,1894.6298,1895.6273,,,1896.1276,1896.3776,,53,53,,,,,,,,,,,,,,,,bars/001.png,bars/mask003.png,,,,,,,,,,,,0,2,,,,,,,6,4,6,4,,,,,,,,,,,1895.6273,1896.1276,1896.3776,1897.2611,space,0.8753,,1897.2613,77,32,1898.2606,1898.2606,1898.2619,,,,0,28,28,28,1,130,85,,,,,,,,
,,64b51ebf8e67162f918b1479,65af56b9258f4c49e4087ae0,2024-01-23_08h04.40.622,bars,2023.2.3,Win32,59.88023952,657b66ea316d21385b68909f,,,,,,,,,,,1898.2625,1899.2606,,,1899.7603,1900.0103,,158,158,,,,,,,,,,,,,,,,bars/025.png,bars/mask007.png,,,,,,,,,,,,0,1,,,,,,,4,6,5,7,,,,,,,,,,,1899.2606,1899.7602,1900.0103,1902.4436,space,2.4179,,1902.4437,53,62,1903.4432,1903.4433,1903.4573,,,,0,29,29,29,1,105,40,,,,,,,,
,,64b51ebf8e67162f918b1479,65af56b9258f4c49e4087ae0,2024-01-23_08h04.40.622,bars,2023.2.3,Win32,59.88023952,657b66ea316d21385b68909f,,,,,,,,,,,1903.4575,1904.46,,,1904.96,1905.2098,,138,138,,,,,,,,,,,,,,,,bars/028.png,bars/mask002.png,,,,,,,,,,,,3,2,,,,,,,6,8,7,8,,,,,,,,,,,1904.4601,1904.9599,1905.2098,1906.1931,space,0.9711,,1906.1931,87,18,1907.1927,1907.1927,1907.208,,,,0,30,30,30,1,45,120,,,,,,,,
,,64b51ebf8e67162f918b1479,65af56b9258f4c49e4087ae0,2024-01-23_08h04.40.622,bars,2023.2.3,Win32,59.88023952,657b66ea316d21385b68909f,,,,,,,,,,,1907.2082,1908.2094,,,1908.7093,1908.9592,,116,116,,,,,,,,,,,,,,,,bars/019.png,bars/mask009.png,,,,,,,,,,,,4,2,,,,,,,8,6,7,6,,,,,,,,,,,1908.2094,1908.7092,1908.9593,1909.7424,space,0.7653,,1909.7425,71,11,1910.7423,1910.7423,1910.7436,,,,0,31,31,31,1,45,105,,,,,,,,
,,64b51ebf8e67162f918b1479,65af56b9258f4c49e4087ae0,2024-01-23_08h04.40.622,bars,2023.2.3,Win32,59.88023952,657b66ea316d21385b68909f,,,,,,,,,,,1910.7442,1911.7419,,,1912.2421,1912.492,,33,33,,,,,,,,,,,,,,,,bars/014.png,bars/mask005.png,,,,,,,,,,,,0,2,,,,,,,6,4,7,3,,,,,,,,,,,1911.7419,1912.2421,1912.4921,1913.2422,space,0.7368,,1913.2423,47,33,1914.2419,1914.2419,1914.243,,,,0,32,32,32,1,80,0,,,,,,,,
,,64b51ebf8e67162f918b1479,65af56b9258f4c49e4087ae0,2024-01-23_08h04.40.622,bars,2023.2.3,Win32,59.88023952,657b66ea316d21385b68909f,,,,,,,,,,,1914.2435,1915.2417,,,1915.7414,1915.9915,,159,159,,,,,,,,,,,,,,,,bars/029.png,bars/mask005.png,,,,,,,,,,,,0,2,,,,,,,8,6,8,4,,,,,,,,,,,1915.2417,1915.7414,1915.9916,1918.4415,space,2.4375,,1918.4415,69,66,1919.4412,1919.4413,1919.4553,,,,0,33,33,33,1,90,45,,,,,,,,
,,64b51ebf8e67162f918b1479,65af56b9258f4c49e4087ae0,2024-01-23_08h04.40.622,bars,2023.2.3,Win32,59.88023952,657b66ea316d21385b68909f,,,,,,,,,,,1919.4556,1920.4575,,,1920.9576,1921.2075,,12,12,,,,,,,,,,,,,,,,bars/040.png,bars/mask003.png,,,,,,,,,,,,5,2,,,,,,,10,8,10,7,,,,,,,,,,,1920.4576,1920.9576,1921.2076,1921.9409,space,0.7179,,1921.9409,52,7,1922.9407,1922.9408,1922.9423,,,,0,34,34,34,1,140,5,,,,,,,,
,,64b51ebf8e67162f918b1479,65af56b9258f4c49e4087ae0,2024-01-23_08h04.40.622,bars,2023.2.3,Win32,59.88023952,657b66ea316d21385b68909f,,,,,,,,,,,1922.9429,1923.9407,,,1924.4407,1924.6905,,167,167,,,,,,,,,,,,,,,,bars/042.png,bars/mask003.png,,,,,,,,,,,,2,1,,,,,,,8,10,6,10,,,,,,,,,,,1923.9407,1924.4407,1924.6906,1925.3908,space,0.6842,,1925.3908,22,88,1926.3902,1926.3903,1926.3944,,,,0,35,35,35,1,145,75,,,,,,,,
,,64b51ebf8e67162f918b1479,65af56b9258f4c49e4087ae0,2024-01-23_08h04.40.622,bars,2023.2.3,Win32,59.88023952,657b66ea316d21385b68909f,,,,,,,,,,,1926.395,1927.3902,,,1927.8902,1928.1402,,45,45,,,,,,,,,,,,,,,,bars/036.png,bars/mask009.png,,,,,,,,,,,,1,2,,,,,,,6,8,7,8,,,,,,,,,,,1927.3902,1927.8901,1928.1403,1928.8403,space,0.6882,,1928.8405,80,25,1929.8398,1929.8399,1929.843,,,,0,36,36,36,1,145,20,,,,,,,,
,,64b51ebf8e67162f918b1479,65af56b9258f4c49e4087ae0,2024-01-23_08h04.40.622,bars,2023.2.3,Win32,59.88023952,657b66ea316d21385b68909f,,,,,,,,,,,1929.8439,1930.8401,,,1931.3403,1931.5901,,76,76,,,,,,,,,,,,,,,,bars/044.png,bars/mask001.png,,,,,,,,,,,,4,1,,,,,,,4,6,4,6,,,,,,,,,,,1930.8402,1931.3403,1931.5902,1932.3733,space,0.7753,,1932.3733,1,79,1933.3728,1933.3729,1933.3771,,,,0,37,37,37,1,75,155,,,,,,,,
,,64b51ebf8e67162f918b1479,65af56b9258f4c49e4087ae0,2024-01-23_08h04.40.622,bars,2023.2.3,Win32,59.88023952,657b66ea316d21385b68909f,,,,,,,,,,,1933.3774,1934.3727,,,1934.8728,1935.1228,,86,86,,,,,,,,,,,,,,,,bars/014.png,bars/mask002.png,,,,,,,,,,,,5,1,,,,,,,6,4,6,4,,,,,,,,,,,1934.3727,1934.8726,1935.1228,1935.7891,space,0.6582,,1935.7891,6,86,1936.7891,1936.7891,1936.7908,,,,0,38,38,38,1,80,0,,,,,,,,
,,64b51ebf8e67162f918b1479,65af56b9258f4c49e4087ae0,2024-01-23_08h04.40.622,bars,2023.2.3,Win32,59.88023952,657b66ea316d21385b68909f,,,,,,,,,,,1936.7916,1937.7887,,,1938.289,1938.5389,,74,74,,,,,,,,,,,,,,,,bars/048.png,bars/mask002.png,,,,,,,,,,,,1,1,,,,,,,8,6,7,6,,,,,,,,,,,1937.7887,1938.289,1938.5389,1939.2224,space,0.6674,,1939.2224,24,79,1940.2216,1940.2217,1940.2226,,,,0,39,39,39,1,50,175,,,,,,,,
,,64b51ebf8e67162f918b1479,65af56b9258f4c49e4087ae0,2024-01-23_08h04.40.622,bars,2023.2.3,Win32,59.88023952,657b66ea316d21385b68909f,,,,,,,,,,,1940.2231,1941.2215,,,1941.7214,1941.9717,,47,47,,,,,,,,,,,,,,,,bars/040.png,bars/mask008.png,,,,,,,,,,,,0,2,,,,,,,10,4,9,3,,,,,,,,,,,1941.2215,1941.7214,1941.9717,1942.572,space,0.5844,,1942.572,87,42,1943.5712,1943.5712,1943.5739,,,,0,40,40,40,1,140,5,,,,,,,,
,,64b51ebf8e67162f918b1479,65af56b9258f4c49e4087ae0,2024-01-23_08h04.40.622,bars,2023.2.3,Win32,59.88023952,657b66ea316d21385b68909f,,,,,,,,,,,1943.5749,1944.5714,,,1945.0715,1945.3211,,146,146,,,,,,,,,,,,,,,,bars/027.png,bars/mask006.png,,,,,,,,,,,,0,1,,,,,,,8,2,9,0,,,,,,,,,,,1944.5715,1945.0713,1945.3212,1946.0376,space,0.7018,,1946.0376,36,84,1947.0375,1947.0375,1947.042,,,,0,41,41,41,1,110,50,,,,,,,,
,,64b51ebf8e67162f918b1479,65af56b9258f4c49e4087ae0,2024-01-23_08h04.40.622,bars,2023.2.3,Win32,59.88023952,657b66ea316d21385b68909f,,,,,,,,,,,1947.0424,1948.0374,,,1948.5375,1948.7874,,148,148,,,,,,,,,,,,,,,,bars/025.png,bars/mask009.png,,,,,,,,,,,,0,1,,,,,,,10,0,10,0,,,,,,,,,,,1948.0374,1948.5374,1948.7874,1949.454,space,0.6571,,1949.4541,43,72,1950.4538,1950.4538,1950.455,,,,0,42,42,42,1,105,40,,,,,,,,
,,64b51ebf8e67162f918b1479,65af56b9258f4c49e4087ae0,2024-01-23_08h04.40.622,bars,2023.2.3,Win32,59.88023952,657b66ea316d21385b68909f,,,,,,,,,,,1950.4555,1951.4537,,,1951.9534,1952.2035,,62,62,,,,,,,,,,,,,,,,bars/017.png,bars/mask006.png,,,,,,,,,,,,1,2,,,,,,,8,2,8,2,,,,,,,,,,,1951.4537,1951.9534,1952.2035,1952.7704,space,0.5556,,1952.7705,83,17,1953.77,1953.77,1953.7756,,,,0,43,43,43,1,145,45,,,,,,,,
,,64b51ebf8e67162f918b1479,65af56b9258f4c49e4087ae0,2024-01-23_08h04.40.622,bars,2023.2.3,Win32,59.88023952,657b66ea316d21385b68909f,,,,,,,,,,,1953.7762,1954.7699,,,1955.2699,1955.5199,,104,104,,,,,,,,,,,,,,,,bars/029.png,bars/mask000.png,,,,,,,,,,,,5,1,,,,,,,10,0,10,1,,,,,,,,,,,1954.77,1955.2699,1955.52,1956.1364,space,0.6045,,1956.1365,14,59,1957.1363,1957.1363,1957.1412,,,,0,44,44,44,1,90,45,,,,,,,,
,,64b51ebf8e67162f918b1479,65af56b9258f4c49e4087ae0,2024-01-23_08h04.40.622,bars,2023.2.3,Win32,59.88023952,657b66ea316d21385b68909f,,,,,,,,,,,1957.1416,1958.1361,,,1958.6361,1958.8861,,51,51,,,,,,,,,,,,,,,,bars/034.png,bars/mask000.png,,,,,,,,,,,,0,2,,,,,,,8,0,8,0,,,,,,,,,,,1958.1362,1958.636,1958.8863,1959.4367,space,0.5423,,1959.4369,74,14,1960.4356,1960.4357,1960.4385,,,,0,45,45,45,1,125,65,,,,,,,,
,,64b51ebf8e67162f918b1479,65af56b9258f4c49e4087ae0,2024-01-23_08h04.40.622,bars,2023.2.3,Win32,59.88023952,657b66ea316d21385b68909f,,,,,,,,,,,1960.4395,1961.4356,,,1961.9356,1962.1857,,130,130,,,,,,,,,,,,,,,,bars/012.png,bars/mask001.png,,,,,,,,,,,,0,1,,,,,,,10,2,10,3,,,,,,,,,,,1961.4356,1961.9356,1962.1857,1962.8358,space,0.6358,,1962.8358,40,65,1963.8354,1963.8355,1963.8403,,,,0,46,46,46,1,90,15,,,,,,,,
,,64b51ebf8e67162f918b1479,65af56b9258f4c49e4087ae0,2024-01-23_08h04.40.622,bars,2023.2.3,Win32,59.88023952,657b66ea316d21385b68909f,,,,,,,,,,,1963.8406,1964.8353,,,1965.3353,1965.5852,,4,4,,,,,,,,,,,,,,,,bars/049.png,bars/mask006.png,,,,,,,,,,,,2,1,,,,,,,8,0,8,0,,,,,,,,,,,1964.8353,1965.3352,1965.5853,1966.8187,space,1.2197,,1966.8189,24,69,1967.8181,1967.8182,1967.8195,,,,0,47,47,47,1,160,115,,,,,,,,
,,64b51ebf8e67162f918b1479,65af56b9258f4c49e4087ae0,2024-01-23_08h04.40.622,bars,2023.2.3,Win32,59.88023952,657b66ea316d21385b68909f,,,,,,,,,,,1967.8202,1968.8179,,,1969.318,1969.568,,144,144,,,,,,,,,,,,,,,,bars/045.png,bars/mask001.png,,,,,,,,,,,,0,1,,,,,,,6,2,5,5,,,,,,,,,,,1968.8181,1969.318,1969.568,1970.168,space,0.5812,,1970.168,44,46,1971.1676,1971.1678,1971.1692,,,,0,48,48,48,1,100,10,,,,,,,,
,,64b51ebf8e67162f918b1479,65af56b9258f4c49e4087ae0,2024-01-23_08h04.40.622,bars,2023.2.3,Win32,59.88023952,657b66ea316d21385b68909f,,,,,,,,,,,1971.17,1972.1674,,,1972.6676,1972.9175,,114,114,,,,,,,,,,,,,,,,bars/047.png,bars/mask006.png,,,,,,,,,,,,0,2,,,,,,,8,4,8,4,,,,,,,,,,,1972.1674,1972.6675,1972.9175,1973.5007,space,0.5744,,1973.5007,81,44,1974.5007,1974.5007,1974.5048,,,,0,49,49,49,1,15,70,,,,,,,,
,,64b51ebf8e67162f918b1479,65af56b9258f4c49e4087ae0,2024-01-23_08h04.40.622,bars,2023.2.3,Win32,59.88023952,657b66ea316d21385b68909f,,,,,,,,,,,,,,,,,,,,,,,,,,,,,,,,,,,,,,,,,,,,,,,,,,,,,,,,,,,,,,,,,,,,,,,,,,,,,,,,,,,,,,,,,,,,,1974.5051,2034.493,0,3,3,0,1,sequence_tables/blk004.csv
,,64b51ebf8e67162f918b1479,65af56b9258f4c49e4087ae0,2024-01-23_08h04.40.622,bars,2023.2.3,Win32,59.88023952,657b66ea316d21385b68909f,,,,,,,,,,,2039.84,2040.842,,,2041.342,2041.5919,,18,18,,,,,,,,,,,,,,,,bars/007.png,bars/mask002.png,,,,,,,,,,,,0,1,,,,,,,2,9,1,9,,,,,,2034.5046,2039.8258,space,5.3105,,2040.842,2041.342,2041.592,2042.7583,space,1.1475,,2042.7584,23,37,2043.7584,2043.7585,2043.7632,,,,0,0,0,0,1,175,55,,,,,,,,
,,64b51ebf8e67162f918b1479,65af56b9258f4c49e4087ae0,2024-01-23_08h04.40.622,bars,2023.2.3,Win32,59.88023952,657b66ea316d21385b68909f,,,,,,,,,,,2043.7638,2044.7579,,,2045.2582,2045.5081,,115,115,,,,,,,,,,,,,,,,bars/043.png,bars/mask004.png,,,,,,,,,,,,3,2,,,,,,,4,7,7,6,,,,,,,,,,,2044.7581,2045.2581,2045.5082,2046.0751,space,0.5521,,2046.0752,85,15,2047.0746,2047.0747,2047.0791,,,,0,1,1,1,1,30,130,,,,,,,,
,,64b51ebf8e67162f918b1479,65af56b9258f4c49e4087ae0,2024-01-23_08h04.40.622,bars,2023.2.3,Win32,59.88023952,657b66ea316d21385b68909f,,,,,,,,,,,2047.0795,2048.0755,,,2048.5743,2048.824,,56,56,,,,,,,,,,,,,,,,bars/032.png,bars/mask002.png,,,,,,,,,,,,0,2,,,,,,,6,9,6,8,,,,,,,,,,,2048.0755,2048.5743,2048.824,2050.1076,space,1.2692,,2050.1077,69,36,2051.1074,2051.1074,2051.1087,,,,0,2,2,2,1,125,20,,,,,,,,
,,64b51ebf8e67162f918b1479,65af56b9258f4c49e4087ae0,2024-01-23_08h04.40.622,bars,2023.2.3,Win32,59.88023952,657b66ea316d21385b68909f,,,,,,,,,,,2051.1093,2052.1072,,,2052.6072,2052.8569,,158,158,,,,,,,,,,,,,,,,bars/039.png,bars/mask004.png,,,,,,,,,,,,3,1,,,,,,,8,7,6,8,,,,,,,,,,,2052.1072,2052.6071,2052.857,2054.007,space,1.1401,,2054.0071,17,53,2055.0068,2055.0068,2055.0113,,,,0,3,3,3,1,175,105,,,,,,,,
,,64b51ebf8e67162f918b1479,65af56b9258f4c49e4087ae0,2024-01-23_08h04.40.622,bars,2023.2.3,Win32,59.88023952,657b66ea316d21385b68909f,,,,,,,,,,,2055.0116,2056.0066,,,2056.5066,2056.7566,,98,98,,,,,,,,,,,,,,,,bars/004.png,bars/mask000.png,,,,,,,,,,,,1,2,,,,,,,6,9,5,9,,,,,,,,,,,2056.0066,2056.5066,2056.7566,2057.5232,space,0.7505,,2057.5233,73,27,2058.523,2058.5231,2058.5272,,,,0,4,4,4,1,25,125,,,,,,,,
,,64b51ebf8e67162f918b1479,65af56b9258f4c49e4087ae0,2024-01-23_08h04.40.622,bars,2023.2.3,Win32,59.88023952,657b66ea316d21385b68909f,,,,,,,,,,,2058.5277,2059.5229,,,2060.0228,2060.2728,,65,65,,,,,,,,,,,,,,,,bars/025.png,bars/mask004.png,,,,,,,,,,,,1,2,,,,,,,8,7,8,8,,,,,,,,,,,2059.5229,2060.0228,2060.2728,2061.0894,space,0.8001,,2061.0896,40,25,2062.0892,2062.0892,2062.0906,,,,0,5,5,5,1,105,40,,,,,,,,
,,64b51ebf8e67162f918b1479,65af56b9258f4c49e4087ae0,2024-01-23_08h04.40.622,bars,2023.2.3,Win32,59.88023952,657b66ea316d21385b68909f,,,,,,,,,,,2062.0911,2063.089,,,2063.589,2063.8388,,165,165,,,,,,,,,,,,,,,,bars/019.png,bars/mask000.png,,,,,,,,,,,,0,2,,,,,,,6,5,6,7,,,,,,,,,,,2063.089,2063.5889,2063.8388,2064.7224,space,0.8677,,2064.7226,60,60,2065.7217,2065.7217,2065.7223,,,,0,6,6,6,1,45,105,,,,,,,,
,,64b51ebf8e67162f918b1479,65af56b9258f4c49e4087ae0,2024-01-23_08h04.40.622,bars,2023.2.3,Win32,59.88023952,657b66ea316d21385b68909f,,,,,,,,,,,2065.7226,2066.7217,,,2067.222,2067.4716,,80,80,,,,,,,,,,,,,,,,bars/043.png,bars/mask007.png,,,,,,,,,,,,0,2,,,,,,,4,7,2,6,,,,,,,,,,,2066.7217,2067.2219,2067.4716,2068.1719,space,0.6855,,2068.1719,50,50,2069.1714,2069.1715,2069.1721,,,,0,7,7,7,1,30,130,,,,,,,,
,,64b51ebf8e67162f918b1479,65af56b9258f4c49e4087ae0,2024-01-23_08h04.40.622,bars,2023.2.3,Win32,59.88023952,657b66ea316d21385b68909f,,,,,,,,,,,2069.1727,2070.1714,,,2070.6714,2070.9216,,54,54,,,,,,,,,,,,,,,,bars/038.png,bars/mask008.png,,,,,,,,,,,,4,2,,,,,,,2,9,2,8,,,,,,,,,,,2070.1715,2070.6713,2070.9216,2071.7712,space,0.834,,2071.7712,69,16,2072.7712,2072.7713,2072.7726,,,,0,8,8,8,1,165,70,,,,,,,,
,,64b51ebf8e67162f918b1479,65af56b9258f4c49e4087ae0,2024-01-23_08h04.40.622,bars,2023.2.3,Win32,59.88023952,657b66ea316d21385b68909f,,,,,,,,,,,2072.773,2073.771,,,2074.2711,2074.5209,,124,124,,,,,,,,,,,,,,,,bars/028.png,bars/mask009.png,,,,,,,,,,,,9,2,,,,,,,0,10,1,10,,,,,,,,,,,2073.7711,2074.271,2074.521,2075.3208,space,0.7858,,2075.3208,79,4,2076.3207,2076.3207,2076.3219,,,,0,9,9,9,1,45,120,,,,,,,,
,,64b51ebf8e67162f918b1479,65af56b9258f4c49e4087ae0,2024-01-23_08h04.40.622,bars,2023.2.3,Win32,59.88023952,657b66ea316d21385b68909f,,,,,,,,,,,2076.3223,2077.3203,,,2077.8206,2078.0705,,110,110,,,,,,,,,,,,,,,,bars/009.png,bars/mask001.png,,,,,,,,,,,,6,2,,,,,,,2,8,3,7,,,,,,,,,,,2077.3203,2077.8206,2078.0706,2078.7872,space,0.7044,,2078.7873,85,5,2079.787,2079.787,2079.7883,,,,0,10,10,10,1,15,105,,,,,,,,
,,64b51ebf8e67162f918b1479,65af56b9258f4c49e4087ae0,2024-01-23_08h04.40.622,bars,2023.2.3,Win32,59.88023952,657b66ea316d21385b68909f,,,,,,,,,,,2079.7889,2080.7868,,,2081.2865,2081.5368,,123,123,,,,,,,,,,,,,,,,bars/004.png,bars/mask006.png,,,,,,,,,,,,9,2,,,,,,,0,10,0,10,,,,,,,,,,,2080.7868,2081.2865,2081.5368,2082.2533,space,0.701,,2082.2534,82,2,2083.2531,2083.2532,2083.255,,,,0,11,11,11,1,25,125,,,,,,,,
