init_variables.started,init_variables.stopped,participant,session,date,expName,psychopyVersion,OS,frameRate,study_id,instruction_exp.started,instruction_exp.stopped,key_resp_8.keys,key_resp_8.rt,key_resp_8.duration,instruction_single.started,instruction_single.stopped,key_resp_2.keys,key_resp_2.rt,key_resp_2.duration,interval.started,interval.stopped,cue_single.started,cue_single.stopped,mask.started,mask.stopped,ori_response_single.started,res_ori,res,ori_response_single.stopped,key_resp_single.keys,key_resp_single.rt,key_resp_single.duration,disp_single.started,disp_single.stopped,key_resp.keys,key_resp.rt,key_resp.duration,single.thisRepN,single.thisTrialN,single.thisN,single.thisIndex,single.ran,ori,path,mask_path,instruction_bandit.started,instruction_bandit.stopped,key_resp_6.keys,key_resp_6.rt,key_resp_6.duration,cue_bandit.started,cue_bandit.stopped,bandit_res.keys,bandit_res.rt,bandit_res.duration,outcome_bandit.started,rew,action,outcome_bandit.stopped,bandit.thisRepN,bandit.thisTrialN,bandit.thisN,bandit.thisIndex,bandit.ran,actual_rew1,actual_rew2,rew1,rew2,instruction_task.started,instruction_task.stopped,key_resp_7.keys,key_resp_7.rt,key_resp_7.duration,wait_ready.started,wait_ready.stopped,key_resp_3.keys,key_resp_3.rt,key_resp_3.duration,cue.started,cue.stopped,ori_response.started,ori_response.stopped,key_resp_5.keys,key_resp_5.rt,key_resp_5.duration,outcome.started,diff1,diff2,outcome.stopped,disp_outcome_practice.started,disp_outcome_practice.stopped,key_resp_4.keys,key_resp_4.rt,key_resp_4.duration,trials.thisRepN,trials.thisTrialN,trials.thisN,trials.thisIndex,trials.ran,ori1,ori2,break_blk.started,break_blk.stopped,block.thisRepN,block.thisTrialN,block.thisN,block.thisIndex,block.ran,condition_file
0.0005,0.0007,5f31ef83efc0c913389d6554,65af547abe6af047326a9893,2024-01-23_07h56.46.581,bars,2023.2.3,Win32,59.88023952,657b66ea316d21385b68909f,,,,,,,,,,,,,,,,,,,,,,,,,,,,,,,,,,,,,,,,,,,,,,,,,,,,,,,,,,,,,,,,,,,,,,,,,,,,,,,,,,,,,,,,,,,,,,,,,,,,
,,5f31ef83efc0c913389d6554,65af547abe6af047326a9893,2024-01-23_07h56.46.581,bars,2023.2.3,Win32,59.88023952,657b66ea316d21385b68909f,0.0009,20.3929,y,20.3808,,,,,,,,,,,,,,,,,,,,,,,,,,,,,,,,,,,,,,,,,,,,,,,,,,,,,,,,,,,,,,,,,,,,,,,,,,,,,,,,,,,,,,,,,,,,,,,,
,,5f31ef83efc0c913389d6554,65af547abe6af047326a9893,2024-01-23_07h56.46.581,bars,2023.2.3,Win32,59.88023952,657b66ea316d21385b68909f,,,,,,20.393,43.7703,space,23.3558,,,,,,,,,,,,,,,,,,,,,,,,,,,,,,,,,,,,,,,,,,,,,,,,,,,,,,,,,,,,,,,,,,,,,,,,,,,,,,,,,,,,,,,,,,,
,,5f31ef83efc0c913389d6554,65af547abe6af047326a9893,2024-01-23_07h56.46.581,bars,2023.2.3,Win32,59.88023952,657b66ea316d21385b68909f,,,,,,,,,,,43.7752,44.7678,44.768,45.2676,45.2678,45.5177,45.5179,153,153,56.9765,space,11.4287,,56.9767,85.832,space,28.8263,,0,0,0,2,1,145,bars/single002.png,bars/mask003.png,,,,,,,,,,,,,,,,,,,,,,,,,,,,,,,,,,,,,,,,,,,,,,,,,,,,,,,,,,,,,,,,
,,5f31ef83efc0c913389d6554,65af547abe6af047326a9893,2024-01-23_07h56.46.581,bars,2023.2.3,Win32,59.88023952,657b66ea316d21385b68909f,,,,,,,,,,,85.8406,86.8299,86.8302,87.3297,87.3299,87.5876,87.5876,16,196,99.1868,space,11.5828,,99.1869,106.9277,space,7.7165,,0,1,1,5,1,55,bars/single005.png,bars/mask008.png,,,,,,,,,,,,,,,,,,,,,,,,,,,,,,,,,,,,,,,,,,,,,,,,,,,,,,,,,,,,,,,,
,,5f31ef83efc0c913389d6554,65af547abe6af047326a9893,2024-01-23_07h56.46.581,bars,2023.2.3,Win32,59.88023952,657b66ea316d21385b68909f,,,,,,,,,,,106.9365,107.9274,107.9275,108.4271,108.4273,108.6772,108.6773,134,-46,116.127,space,7.4205,,116.1272,141.0409,space,24.8835,,0,2,2,3,1,20,bars/single003.png,bars/mask005.png,,,,,,,,,,,,,,,,,,,,,,,,,,,,,,,,,,,,,,,,,,,,,,,,,,,,,,,,,,,,,,,,
,,5f31ef83efc0c913389d6554,65af547abe6af047326a9893,2024-01-23_07h56.46.581,bars,2023.2.3,Win32,59.88023952,657b66ea316d21385b68909f,,,,,,,,,,,141.0508,142.04,142.0401,142.5405,142.5406,142.79,142.79,92,92,147.2314,space,4.4169,,147.2315,164.1229,space,16.8637,,0,3,3,4,1,95,bars/single004.png,bars/mask004.png,,,,,,,,,,,,,,,,,,,,,,,,,,,,,,,,,,,,,,,,,,,,,,,,,,,,,,,,,,,,,,,,
,,5f31ef83efc0c913389d6554,65af547abe6af047326a9893,2024-01-23_07h56.46.581,bars,2023.2.3,Win32,59.88023952,657b66ea316d21385b68909f,,,,,,,,,,,164.1318,165.1207,165.1208,165.621,165.6211,165.8707,165.8708,15,15,169.5371,space,3.6355,,169.5373,190.0521,space,20.4823,,0,4,4,7,1,45,bars/single007.png,bars/mask009.png,,,,,,,,,,,,,,,,,,,,,,,,,,,,,,,,,,,,,,,,,,,,,,,,,,,,,,,,,,,,,,,,
,,5f31ef83efc0c913389d6554,65af547abe6af047326a9893,2024-01-23_07h56.46.581,bars,2023.2.3,Win32,59.88023952,657b66ea316d21385b68909f,,,,,,,,,,,190.0616,191.0511,191.0512,191.5513,191.5514,191.801,191.8011,5,5,198.4172,space,6.5854,,198.4175,282.5246,space,84.0753,,0,5,5,6,1,175,bars/single006.png,bars/mask005.png,,,,,,,,,,,,,,,,,,,,,,,,,,,,,,,,,,,,,,,,,,,,,,,,,,,,,,,,,,,,,,,,
,,5f31ef83efc0c913389d6554,65af547abe6af047326a9893,2024-01-23_07h56.46.581,bars,2023.2.3,Win32,59.88023952,657b66ea316d21385b68909f,,,,,,,,,,,282.5344,283.5238,283.524,284.0239,284.024,284.2742,284.2744,158,-22,291.6482,space,7.3496,,291.6482,296.173,space,4.504,,0,6,6,0,1,150,bars/single000.png,bars/mask006.png,,,,,,,,,,,,,,,,,,,,,,,,,,,,,,,,,,,,,,,,,,,,,,,,,,,,,,,,,,,,,,,,
,,5f31ef83efc0c913389d6554,65af547abe6af047326a9893,2024-01-23_07h56.46.581,bars,2023.2.3,Win32,59.88023952,657b66ea316d21385b68909f,,,,,,,,,,,296.182,297.1723,297.1725,297.6723,297.6725,297.9223,297.9225,21,201,304.0724,space,6.1209,,304.0725,312.1046,space,8.0034,,0,7,7,1,1,20,bars/single001.png,bars/mask006.png,,,,,,,,,,,,,,,,,,,,,,,,,,,,,,,,,,,,,,,,,,,,,,,,,,,,,,,,,,,,,,,,
,,5f31ef83efc0c913389d6554,65af547abe6af047326a9893,2024-01-23_07h56.46.581,bars,2023.2.3,Win32,59.88023952,657b66ea316d21385b68909f,,,,,,,,,,,312.1146,313.1043,313.1044,313.6043,313.6045,313.8536,313.8538,157,-23,320.7407,space,6.8623,,320.7407,324.2613,space,3.5004,,0,8,8,8,1,160,bars/single008.png,bars/mask004.png,,,,,,,,,,,,,,,,,,,,,,,,,,,,,,,,,,,,,,,,,,,,,,,,,,,,,,,,,,,,,,,,
,,5f31ef83efc0c913389d6554,65af547abe6af047326a9893,2024-01-23_07h56.46.581,bars,2023.2.3,Win32,59.88023952,657b66ea316d21385b68909f,,,,,,,,,,,324.2704,325.2697,325.2698,325.7691,325.7693,326.0189,326.019,48,48,330.8025,space,4.7508,,330.8027,334.7685,space,3.9378,,0,9,9,9,1,20,bars/single009.png,bars/mask006.png,,,,,,,,,,,,,,,,,,,,,,,,,,,,,,,,,,,,,,,,,,,,,,,,,,,,,,,,,,,,,,,,
,,5f31ef83efc0c913389d6554,65af547abe6af047326a9893,2024-01-23_07h56.46.581,bars,2023.2.3,Win32,59.88023952,657b66ea316d21385b68909f,,,,,,,,,,,,,,,,,,,,,,,,,,,,,,,,,,,,,334.7777,472.7881,space,137.9886,,,,,,,,,,,,,,,,,,,,,,,,,,,,,,,,,,,,,,,,,,,,,,,,,,,,,,,,,,,,
,,5f31ef83efc0c913389d6554,65af547abe6af047326a9893,2024-01-23_07h56.46.581,bars,2023.2.3,Win32,59.88023952,657b66ea316d21385b68909f,,,,,,,,,,,,,,,,,,,,,,,,,,,,,,,,,,,,,,,,,,472.7994,480.4365,left,7.5959,,480.437,9,1,481.4352,0,0,0,0,1,9,1,9,2,,,,,,,,,,,,,,,,,,,,,,,,,,,,,,,,,,,,,,,,,
,,5f31ef83efc0c913389d6554,65af547abe6af047326a9893,2024-01-23_07h56.46.581,bars,2023.2.3,Win32,59.88023952,657b66ea316d21385b68909f,,,,,,,,,,,,,,,,,,,,,,,,,,,,,,,,,,,,,,,,,,481.4367,485.618,right,4.1505,,485.618,1,2,486.6174,0,1,1,1,1,10,0,10,1,,,,,,,,,,,,,,,,,,,,,,,,,,,,,,,,,,,,,,,,,
,,5f31ef83efc0c913389d6554,65af547abe6af047326a9893,2024-01-23_07h56.46.581,bars,2023.2.3,Win32,59.88023952,657b66ea316d21385b68909f,,,,,,,,,,,,,,,,,,,,,,,,,,,,,,,,,,,,,,,,,,486.6183,488.418,left,1.7709,,488.4181,10,1,489.4175,0,2,2,2,1,10,2,10,2,,,,,,,,,,,,,,,,,,,,,,,,,,,,,,,,,,,,,,,,,
,,5f31ef83efc0c913389d6554,65af547abe6af047326a9893,2024-01-23_07h56.46.581,bars,2023.2.3,Win32,59.88023952,657b66ea316d21385b68909f,,,,,,,,,,,,,,,,,,,,,,,,,,,,,,,,,,,,,,,,,,489.4266,490.584,left,1.1398,,490.5841,7,1,491.5836,0,3,3,3,1,8,4,7,3,,,,,,,,,,,,,,,,,,,,,,,,,,,,,,,,,,,,,,,,,
,,5f31ef83efc0c913389d6554,65af547abe6af047326a9893,2024-01-23_07h56.46.581,bars,2023.2.3,Win32,59.88023952,657b66ea316d21385b68909f,,,,,,,,,,,,,,,,,,,,,,,,,,,,,,,,,,,,,,,,,,491.5844,493.7254,left,2.1177,,493.7255,5,1,494.7242,0,4,4,4,1,6,2,5,1,,,,,,,,,,,,,,,,,,,,,,,,,,,,,,,,,,,,,,,,,
,,5f31ef83efc0c913389d6554,65af547abe6af047326a9893,2024-01-23_07h56.46.581,bars,2023.2.3,Win32,59.88023952,657b66ea316d21385b68909f,,,,,,,,,,,,,,,,,,,,,,,,,,,,,,,,,,,,,,,,,,494.7246,496.2335,right,1.4886,,496.2337,4,2,497.233,0,5,5,5,1,4,4,4,4,,,,,,,,,,,,,,,,,,,,,,,,,,,,,,,,,,,,,,,,,
,,5f31ef83efc0c913389d6554,65af547abe6af047326a9893,2024-01-23_07h56.46.581,bars,2023.2.3,Win32,59.88023952,657b66ea316d21385b68909f,,,,,,,,,,,,,,,,,,,,,,,,,,,,,,,,,,,,,,,,,,497.2423,498.4497,left,1.1844,,498.4499,1,1,499.4493,0,6,6,6,1,2,2,1,2,,,,,,,,,,,,,,,,,,,,,,,,,,,,,,,,,,,,,,,,,
,,5f31ef83efc0c913389d6554,65af547abe6af047326a9893,2024-01-23_07h56.46.581,bars,2023.2.3,Win32,59.88023952,657b66ea316d21385b68909f,,,,,,,,,,,,,,,,,,,,,,,,,,,,,,,,,,,,,,,,,,499.4503,500.6664,right,1.1875,,500.6666,1,2,501.6659,0,7,7,7,1,0,0,0,1,,,,,,,,,,,,,,,,,,,,,,,,,,,,,,,,,,,,,,,,,
,,5f31ef83efc0c913389d6554,65af547abe6af047326a9893,2024-01-23_07h56.46.581,bars,2023.2.3,Win32,59.88023952,657b66ea316d21385b68909f,,,,,,,,,,,,,,,,,,,,,,,,,,,,,,,,,,,,,,,,,,501.6671,503.5492,left,1.8509,,503.5494,1,1,504.5489,0,8,8,8,1,0,2,1,0,,,,,,,,,,,,,,,,,,,,,,,,,,,,,,,,,,,,,,,,,
,,5f31ef83efc0c913389d6554,65af547abe6af047326a9893,2024-01-23_07h56.46.581,bars,2023.2.3,Win32,59.88023952,657b66ea316d21385b68909f,,,,,,,,,,,,,,,,,,,,,,,,,,,,,,,,,,,,,,,,,,504.55,506.7526,left,2.1796,,506.7526,2,1,507.7486,0,9,9,9,1,2,4,2,3,,,,,,,,,,,,,,,,,,,,,,,,,,,,,,,,,,,,,,,,,
,,5f31ef83efc0c913389d6554,65af547abe6af047326a9893,2024-01-23_07h56.46.581,bars,2023.2.3,Win32,59.88023952,657b66ea316d21385b68909f,,,,,,,,,,,,,,,,,,,,,,,,,,,,,,,,,,,,,,,,,,507.7576,508.5317,right,0.7522,,508.5318,3,2,509.5311,0,10,10,10,1,0,2,0,3,,,,,,,,,,,,,,,,,,,,,,,,,,,,,,,,,,,,,,,,,
,,5f31ef83efc0c913389d6554,65af547abe6af047326a9893,2024-01-23_07h56.46.581,bars,2023.2.3,Win32,59.88023952,657b66ea316d21385b68909f,,,,,,,,,,,,,,,,,,,,,,,,,,,,,,,,,,,,,,,,,,509.5316,511.0143,left,1.4729,,511.0144,0,1,512.014,0,11,11,11,1,0,4,0,3,,,,,,,,,,,,,,,,,,,,,,,,,,,,,,,,,,,,,,,,,
,,5f31ef83efc0c913389d6554,65af547abe6af047326a9893,2024-01-23_07h56.46.581,bars,2023.2.3,Win32,59.88023952,657b66ea316d21385b68909f,,,,,,,,,,,,,,,,,,,,,,,,,,,,,,,,,,,,,,,,,,512.0144,513.0141,right,0.9834,,513.0142,6,2,514.0139,0,12,12,12,1,2,6,1,6,,,,,,,,,,,,,,,,,,,,,,,,,,,,,,,,,,,,,,,,,
,,5f31ef83efc0c913389d6554,65af547abe6af047326a9893,2024-01-23_07h56.46.581,bars,2023.2.3,Win32,59.88023952,657b66ea316d21385b68909f,,,,,,,,,,,,,,,,,,,,,,,,,,,,,,,,,,,,,,,,,,514.0143,516.0803,right,2.0478,,516.0804,3,2,517.0802,0,13,13,13,1,0,4,1,3,,,,,,,,,,,,,,,,,,,,,,,,,,,,,,,,,,,,,,,,,
,,5f31ef83efc0c913389d6554,65af547abe6af047326a9893,2024-01-23_07h56.46.581,bars,2023.2.3,Win32,59.88023952,657b66ea316d21385b68909f,,,,,,,,,,,,,,,,,,,,,,,,,,,,,,,,,,,,,,,,,,517.0889,518.8801,right,1.7759,,518.8802,7,2,519.8799,0,14,14,14,1,2,6,2,7,,,,,,,,,,,,,,,,,,,,,,,,,,,,,,,,,,,,,,,,,
,,5f31ef83efc0c913389d6554,65af547abe6af047326a9893,2024-01-23_07h56.46.581,bars,2023.2.3,Win32,59.88023952,657b66ea316d21385b68909f,,,,,,,,,,,,,,,,,,,,,,,,,,,,,,,,,,,,,,,,,,519.8803,521.2297,right,1.3403,,521.2298,9,2,522.2295,0,15,15,15,1,4,8,3,9,,,,,,,,,,,,,,,,,,,,,,,,,,,,,,,,,,,,,,,,,
,,5f31ef83efc0c913389d6554,65af547abe6af047326a9893,2024-01-23_07h56.46.581,bars,2023.2.3,Win32,59.88023952,657b66ea316d21385b68909f,,,,,,,,,,,,,,,,,,,,,,,,,,,,,,,,,,,,,,,,,,522.23,524.1963,right,1.9508,,524.1963,7,2,525.1958,0,16,16,16,1,6,6,7,7,,,,,,,,,,,,,,,,,,,,,,,,,,,,,,,,,,,,,,,,,
,,5f31ef83efc0c913389d6554,65af547abe6af047326a9893,2024-01-23_07h56.46.581,bars,2023.2.3,Win32,59.88023952,657b66ea316d21385b68909f,,,,,,,,,,,,,,,,,,,,,,,,,,,,,,,,,,,,,,,,,,525.2054,527.7292,right,2.514,,527.7292,5,2,528.7288,0,17,17,17,1,8,4,9,5,,,,,,,,,,,,,,,,,,,,,,,,,,,,,,,,,,,,,,,,,
,,5f31ef83efc0c913389d6554,65af547abe6af047326a9893,2024-01-23_07h56.46.581,bars,2023.2.3,Win32,59.88023952,657b66ea316d21385b68909f,,,,,,,,,,,,,,,,,,,,,,,,,,,,,,,,,,,,,,,,,,528.7293,531.8285,right,3.084,,531.8286,1,2,532.8283,0,18,18,18,1,6,2,5,1,,,,,,,,,,,,,,,,,,,,,,,,,,,,,,,,,,,,,,,,,
,,5f31ef83efc0c913389d6554,65af547abe6af047326a9893,2024-01-23_07h56.46.581,bars,2023.2.3,Win32,59.88023952,657b66ea316d21385b68909f,,,,,,,,,,,,,,,,,,,,,,,,,,,,,,,,,,,,,,,,,,532.837,533.6453,left,0.7959,,533.6454,7,1,534.6448,0,19,19,19,1,8,0,7,0,,,,,,,,,,,,,,,,,,,,,,,,,,,,,,,,,,,,,,,,,
,,5f31ef83efc0c913389d6554,65af547abe6af047326a9893,2024-01-23_07h56.46.581,bars,2023.2.3,Win32,59.88023952,657b66ea316d21385b68909f,,,,,,,,,,,,,,,,,,,,,,,,,,,,,,,,,,,,,,,,,,,,,,,,,,,,,,,,,,,,534.6456,561.3931,space,26.7246,,,,,,,,,,,,,,,,,,,,,,,,,,,,,,,,,,,,,
,,5f31ef83efc0c913389d6554,65af547abe6af047326a9893,2024-01-23_07h56.46.581,bars,2023.2.3,Win32,59.88023952,657b66ea316d21385b68909f,,,,,,,,,,,564.3304,565.3247,,,565.8249,566.0747,,169,169,,,,,,,,,,,,,,,,bars/024.png,bars/mask003.png,,,,,,,,,,,,3,2,,,,,,,1,3,2,3,,,,,,561.4041,564.3252,space,2.9054,,565.3249,565.8248,566.0751,573.5079,space,7.4145,,573.5083,49,1,574.5085,574.5092,596.8054,space,22.2528,,0,0,0,0,1,120,170,,,,,,,,
,,5f31ef83efc0c913389d6554,65af547abe6af047326a9893,2024-01-23_07h56.46.581,bars,2023.2.3,Win32,59.88023952,657b66ea316d21385b68909f,,,,,,,,,,,596.8148,597.8043,,,598.3043,598.5542,,156,156,,,,,,,,,,,,,,,,bars/047.png,bars/mask000.png,,,,,,,,,,,,0,1,,,,,,,3,5,4,6,,,,,,,,,,,597.8043,598.3043,598.5543,603.304,space,4.7387,,603.3042,39,86,604.3034,604.3035,614.7034,space,10.3621,,0,1,1,1,1,15,70,,,,,,,,
,,5f31ef83efc0c913389d6554,65af547abe6af047326a9893,2024-01-23_07h56.46.581,bars,2023.2.3,Win32,59.88023952,657b66ea316d21385b68909f,,,,,,,,,,,614.7132,615.7028,,,616.2028,616.4605,,144,-36,,,,,,,,,,,,,,,,bars/046.png,bars/mask000.png,,,,,,,,,,,,1,1,,,,,,,1,3,2,3,,,,,,,,,,,615.703,616.2027,616.4605,621.4363,space,4.9509,,621.4365,11,59,622.4351,622.4353,644.7165,space,22.2508,,0,2,2,2,1,155,85,,,,,,,,
,,5f31ef83efc0c913389d6554,65af547abe6af047326a9893,2024-01-23_07h56.46.581,bars,2023.2.3,Win32,59.88023952,657b66ea316d21385b68909f,,,,,,,,,,,644.7264,645.716,,,646.2161,646.466,,2,2,,,,,,,,,,,,,,,,bars/032.png,bars/mask001.png,,,,,,,,,,,,0,2,,,,,,,0,1,1,1,,,,,,,,,,,645.7162,646.216,646.4661,648.9243,space,2.4341,,648.9243,57,18,649.9157,649.9158,653.5816,space,3.6263,,0,3,3,3,1,125,20,,,,,,,,
,,5f31ef83efc0c913389d6554,65af547abe6af047326a9893,2024-01-23_07h56.46.581,bars,2023.2.3,Win32,59.88023952,657b66ea316d21385b68909f,,,,,,,,,,,653.5901,654.5811,,,655.0812,655.331,,168,168,,,,,,,,,,,,,,,,bars/007.png,bars/mask002.png,,,,,,,,,,,,1,1,,,,,,,2,3,1,3,,,,,,,,,,,654.5811,655.0811,655.331,658.3476,space,2.9981,,658.3477,7,67,659.3472,659.3473,663.6303,space,4.2506,,0,4,4,4,1,175,55,,,,,,,,
,,5f31ef83efc0c913389d6554,65af547abe6af047326a9893,2024-01-23_07h56.46.581,bars,2023.2.3,Win32,59.88023952,657b66ea316d21385b68909f,,,,,,,,,,,663.639,664.63,,,665.1298,665.3802,,62,62,,,,,,,,,,,,,,,,bars/001.png,bars/mask001.png,,,,,,,,,,,,0,2,,,,,,,4,1,3,1,,,,,,,,,,,664.6302,665.1298,665.3802,670.3965,space,5.0012,,670.3965,68,23,671.3959,671.396,674.7124,space,3.2887,,0,5,5,5,1,130,85,,,,,,,,
,,5f31ef83efc0c913389d6554,65af547abe6af047326a9893,2024-01-23_07h56.46.581,bars,2023.2.3,Win32,59.88023952,657b66ea316d21385b68909f,,,,,,,,,,,674.7129,675.7121,,,676.2121,676.4622,,142,142,,,,,,,,,,,,,,,,bars/038.png,bars/mask004.png,,,,,,,,,,,,1,1,,,,,,,6,3,5,2,,,,,,,,,,,675.7122,676.212,676.4623,679.1619,space,2.6872,,679.1619,23,72,680.1615,680.1615,708.9584,space,28.7633,,0,6,6,6,1,165,70,,,,,,,,
,,5f31ef83efc0c913389d6554,65af547abe6af047326a9893,2024-01-23_07h56.46.581,bars,2023.2.3,Win32,59.88023952,657b66ea316d21385b68909f,,,,,,,,,,,708.9679,709.9581,,,710.4581,710.7081,,57,57,,,,,,,,,,,,,,,,bars/048.png,bars/mask007.png,,,,,,,,,,,,4,1,,,,,,,4,5,5,4,,,,,,,,,,,709.9581,710.458,710.7081,713.4413,space,2.7219,,713.4414,7,62,714.441,714.4411,717.2742,space,2.8094,,0,7,7,7,1,50,175,,,,,,,,
,,5f31ef83efc0c913389d6554,65af547abe6af047326a9893,2024-01-23_07h56.46.581,bars,2023.2.3,Win32,59.88023952,657b66ea316d21385b68909f,,,,,,,,,,,717.2833,718.2738,,,718.7738,719.0238,,56,236,,,,,,,,,,,,,,,,bars/031.png,bars/mask004.png,,,,,,,,,,,,2,2,,,,,,,6,7,7,8,,,,,,,,,,,718.2739,718.7738,719.0239,723.9567,space,4.9179,,723.9568,64,21,724.9563,724.9563,727.924,space,2.9329,,0,8,8,8,1,120,35,,,,,,,,
,,5f31ef83efc0c913389d6554,65af547abe6af047326a9893,2024-01-23_07h56.46.581,bars,2023.2.3,Win32,59.88023952,657b66ea316d21385b68909f,,,,,,,,,,,727.9332,728.9237,,,729.4231,729.6732,,166,166,,,,,,,,,,,,,,,,bars/026.png,bars/mask003.png,,,,,,,,,,,,0,1,,,,,,,4,9,5,8,,,,,,,,,,,728.9238,729.4229,729.6733,733.0314,space,3.334,,733.0314,49,81,734.0298,734.0298,739.9382,space,5.8701,,0,9,9,9,1,35,85,,,,,,,,
,,5f31ef83efc0c913389d6554,65af547abe6af047326a9893,2024-01-23_07h56.46.581,bars,2023.2.3,Win32,59.88023952,657b66ea316d21385b68909f,,,,,,,,,,,739.9471,740.9379,,,741.4381,741.6878,,116,116,,,,,,,,,,,,,,,,bars/042.png,bars/mask006.png,,,,,,,,,,,,0,1,,,,,,,6,10,6,10,,,,,,,,,,,740.9379,741.4379,741.6879,746.4374,space,4.7341,,746.4374,29,41,747.437,747.4371,753.2701,space,5.807,,0,10,10,10,1,145,75,,,,,,,,
,,5f31ef83efc0c913389d6554,65af547abe6af047326a9893,2024-01-23_07h56.46.581,bars,2023.2.3,Win32,59.88023952,657b66ea316d21385b68909f,,,,,,,,,,,753.2787,754.2696,,,754.7696,755.0197,,14,194,,,,,,,,,,,,,,,,bars/040.png,bars/mask007.png,,,,,,,,,,,,6,2,,,,,,,8,8,9,9,,,,,,,,,,,754.2697,754.7695,755.0198,759.303,space,4.2677,,759.303,54,9,760.3023,760.3023,762.3197,space,1.9835,,0,11,11,11,1,140,5,,,,,,,,
,,5f31ef83efc0c913389d6554,65af547abe6af047326a9893,2024-01-23_07h56.46.581,bars,2023.2.3,Win32,59.88023952,657b66ea316d21385b68909f,,,,,,,,,,,762.3208,763.3189,,,763.8193,764.0697,,35,215,,,,,,,,,,,,,,,,bars/029.png,bars/mask004.png,,,,,,,,,,,,5,2,,,,,,,6,6,5,8,,,,,,,,,,,763.319,763.8192,764.0698,768.4856,space,4.3842,,768.4858,55,10,769.485,769.4851,771.4764,space,1.9655,,0,12,12,12,1,90,45,,,,,,,,
,,5f31ef83efc0c913389d6554,65af547abe6af047326a9893,2024-01-23_07h56.46.581,bars,2023.2.3,Win32,59.88023952,657b66ea316d21385b68909f,,,,,,,,,,,771.4766,772.4679,,,772.968,773.2179,,113,-67,,,,,,,,,,,,,,,,bars/045.png,bars/mask001.png,,,,,,,,,,,,2,1,,,,,,,4,4,4,5,,,,,,,,,,,772.468,772.968,773.218,777.9597,space,4.7172,,777.9598,13,77,778.9507,778.9508,781.3669,space,2.3764,,0,13,13,13,1,100,10,,,,,,,,
,,5f31ef83efc0c913389d6554,65af547abe6af047326a9893,2024-01-23_07h56.46.581,bars,2023.2.3,Win32,59.88023952,657b66ea316d21385b68909f,,,,,,,,,,,781.3755,782.3664,,,782.8666,783.1164,,116,-64,,,,,,,,,,,,,,,,bars/028.png,bars/mask008.png,,,,,,,,,,,,6,2,,,,,,,6,6,6,7,,,,,,,,,,,782.3665,782.8665,783.1164,788.2494,space,5.1149,,788.2494,71,4,789.249,789.2491,793.2654,space,3.9869,,0,14,14,14,1,45,120,,,,,,,,
,,5f31ef83efc0c913389d6554,65af547abe6af047326a9893,2024-01-23_07h56.46.581,bars,2023.2.3,Win32,59.88023952,657b66ea316d21385b68909f,,,,,,,,,,,793.2743,794.2651,,,794.7654,795.0152,,173,173,,,,,,,,,,,,,,,,bars/047.png,bars/mask008.png,,,,,,,,,,,,2,1,,,,,,,8,4,8,3,,,,,,,,,,,794.2651,794.7653,795.0152,797.415,space,2.384,,797.4151,22,77,798.4146,798.4146,799.9646,space,1.5141,,0,15,15,15,1,15,70,,,,,,,,
,,5f31ef83efc0c913389d6554,65af547abe6af047326a9893,2024-01-23_07h56.46.581,bars,2023.2.3,Win32,59.88023952,657b66ea316d21385b68909f,,,,,,,,,,,799.9652,800.9643,,,801.4643,801.7143,,33,213,,,,,,,,,,,,,,,,bars/010.png,bars/mask006.png,,,,,,,,,,,,1,2,,,,,,,10,6,10,4,,,,,,,,,,,800.9644,801.4643,801.7143,804.4309,space,2.7008,,804.431,48,22,805.4305,805.4305,810.1968,space,4.7301,,0,16,16,16,1,165,55,,,,,,,,
,,5f31ef83efc0c913389d6554,65af547abe6af047326a9893,2024-01-23_07h56.46.581,bars,2023.2.3,Win32,59.88023952,657b66ea316d21385b68909f,,,,,,,,,,,810.2055,811.1964,,,811.6965,811.9463,,72,72,,,,,,,,,,,,,,,,bars/027.png,bars/mask004.png,,,,,,,,,,,,1,2,,,,,,,10,4,10,5,,,,,,,,,,,811.1965,811.6965,811.9464,814.8465,space,2.8814,,814.8466,38,22,815.8459,815.8459,820.2458,space,4.3775,,0,17,17,17,1,110,50,,,,,,,,
,,5f31ef83efc0c913389d6554,65af547abe6af047326a9893,2024-01-23_07h56.46.581,bars,2023.2.3,Win32,59.88023952,657b66ea316d21385b68909f,,,,,,,,,,,820.2547,821.2454,,,821.7453,821.9953,,110,110,,,,,,,,,,,,,,,,bars/002.png,bars/mask008.png,,,,,,,,,,,,3,1,,,,,,,10,6,9,8,,,,,,,,,,,821.2454,821.7453,821.9954,824.2118,space,2.1973,,824.2118,20,25,825.2116,825.2116,827.0449,space,1.8079,,0,18,18,18,1,130,85,,,,,,,,
,,5f31ef83efc0c913389d6554,65af547abe6af047326a9893,2024-01-23_07h56.46.581,bars,2023.2.3,Win32,59.88023952,657b66ea316d21385b68909f,,,,,,,,,,,827.0454,828.0446,,,828.5446,828.7945,,62,62,,,,,,,,,,,,,,,,bars/006.png,bars/mask009.png,,,,,,,,,,,,1,1,,,,,,,10,8,10,8,,,,,,,,,,,828.0446,828.5445,828.7945,832.661,space,3.852,,832.661,27,38,833.6606,833.6607,835.1444,space,1.4669,,0,19,19,19,1,35,100,,,,,,,,
,,5f31ef83efc0c913389d6554,65af547abe6af047326a9893,2024-01-23_07h56.46.581,bars,2023.2.3,Win32,59.88023952,657b66ea316d21385b68909f,,,,,,,,,,,835.145,836.1437,,,836.6436,836.8936,,8,8,,,,,,,,,,,,,,,,bars/022.png,bars/mask004.png,,,,,,,,,,,,4,2,,,,,,,10,6,10,6,,,,,,,,,,,836.1437,836.6436,836.8936,840.3268,space,3.4148,,840.3268,87,12,841.3264,841.3265,842.6764,space,1.3193,,0,20,20,20,1,95,20,,,,,,,,
,,5f31ef83efc0c913389d6554,65af547abe6af047326a9893,2024-01-23_07h56.46.581,bars,2023.2.3,Win32,59.88023952,657b66ea316d21385b68909f,,,,,,,,,,,842.6769,843.676,,,844.1763,844.4261,,33,213,,,,,,,,,,,,,,,,bars/014.png,bars/mask004.png,,,,,,,,,,,,0,2,,,,,,,8,4,7,7,,,,,,,,,,,843.6761,844.1762,844.4261,847.9425,space,3.4978,,847.9426,47,33,848.9422,848.9423,852.0586,space,3.0967,,0,21,21,21,1,80,0,,,,,,,,
,,5f31ef83efc0c913389d6554,65af547abe6af047326a9893,2024-01-23_07h56.46.581,bars,2023.2.3,Win32,59.88023952,657b66ea316d21385b68909f,,,,,,,,,,,852.0673,853.0584,,,853.5584,853.8087,,37,217,,,,,,,,,,,,,,,,bars/021.png,bars/mask001.png,,,,,,,,,,,,0,2,,,,,,,10,2,10,2,,,,,,,,,,,853.0585,853.5584,853.8087,860.1913,space,6.3672,,860.1914,62,33,861.1907,861.1908,864.9905,space,3.7772,,0,22,22,22,1,155,70,,,,,,,,
,,5f31ef83efc0c913389d6554,65af547abe6af047326a9893,2024-01-23_07h56.46.581,bars,2023.2.3,Win32,59.88023952,657b66ea316d21385b68909f,,,,,,,,,,,864.9996,865.9902,,,866.4903,866.74,,130,130,,,,,,,,,,,,,,,,bars/039.png,bars/mask000.png,,,,,,,,,,,,0,2,,,,,,,10,0,9,0,,,,,,,,,,,865.9903,866.4902,866.7401,870.7565,space,4.0024,,870.7566,45,25,871.7561,871.7562,873.0564,space,1.2767,,0,23,23,23,1,175,105,,,,,,,,
,,5f31ef83efc0c913389d6554,65af547abe6af047326a9893,2024-01-23_07h56.46.581,bars,2023.2.3,Win32,59.88023952,657b66ea316d21385b68909f,,,,,,,,,,,873.0569,874.056,,,874.5559,874.806,,87,87,,,,,,,,,,,,,,,,bars/019.png,bars/mask009.png,,,,,,,,,,,,1,2,,,,,,,8,2,8,2,,,,,,,,,,,874.056,874.5558,874.806,878.8223,space,3.998,,878.8224,42,18,879.822,879.8221,882.9718,space,3.1238,,0,24,24,24,1,45,105,,,,,,,,
,,5f31ef83efc0c913389d6554,65af547abe6af047326a9893,2024-01-23_07h56.46.581,bars,2023.2.3,Win32,59.88023952,657b66ea316d21385b68909f,,,,,,,,,,,882.9723,883.9716,,,884.4717,884.7216,,49,229,,,,,,,,,,,,,,,,bars/019.png,bars/mask007.png,,,,,,,,,,,,9,1,,,,,,,10,4,10,3,,,,,,,,,,,883.9716,884.4716,884.7216,888.7712,space,4.0313,,888.7713,4,56,889.7708,889.7709,892.738,space,2.9396,,0,25,25,25,1,45,105,,,,,,,,
,,5f31ef83efc0c913389d6554,65af547abe6af047326a9893,2024-01-23_07h56.46.581,bars,2023.2.3,Win32,59.88023952,657b66ea316d21385b68909f,,,,,,,,,,,892.7394,893.7446,,,894.2377,894.4874,,68,248,,,,,,,,,,,,,,,,bars/018.png,bars/mask000.png,,,,,,,,,,,,2,2,,,,,,,8,6,8,6,,,,,,,,,,,893.7448,894.2375,894.4875,898.9099,space,4.3981,,898.9101,82,22,899.9036,899.9037,901.2364,space,1.2952,,0,26,26,26,1,150,90,,,,,,,,
,,5f31ef83efc0c913389d6554,65af547abe6af047326a9893,2024-01-23_07h56.46.581,bars,2023.2.3,Win32,59.88023952,657b66ea316d21385b68909f,,,,,,,,,,,901.2369,902.2361,,,902.736,902.986,,40,40,,,,,,,,,,,,,,,,bars/030.png,bars/mask000.png,,,,,,,,,,,,1,2,,,,,,,6,4,7,4,,,,,,,,,,,902.2361,902.736,902.986,905.8026,space,2.8054,,905.8027,80,25,906.8023,906.8023,912.3685,space,5.5431,,0,27,27,27,1,140,65,,,,,,,,
,,5f31ef83efc0c913389d6554,65af547abe6af047326a9893,2024-01-23_07h56.46.581,bars,2023.2.3,Win32,59.88023952,657b66ea316d21385b68909f,,,,,,,,,,,912.3773,913.3682,,,913.8685,914.118,,147,147,,,,,,,,,,,,,,,,bars/015.png,bars/mask000.png,,,,,,,,,,,,4,2,,,,,,,8,6,7,7,,,,,,,,,,,913.3682,913.8684,914.118,919.6677,space,5.5372,,919.6677,37,13,920.6674,920.6674,922.434,space,1.7425,,0,28,28,28,1,110,160,,,,,,,,
,,5f31ef83efc0c913389d6554,65af547abe6af047326a9893,2024-01-23_07h56.46.581,bars,2023.2.3,Win32,59.88023952,657b66ea316d21385b68909f,,,,,,,,,,,922.4345,923.4338,,,923.9337,924.1837,,44,44,,,,,,,,,,,,,,,,bars/017.png,bars/mask008.png,,,,,,,,,,,,5,2,,,,,,,10,4,9,5,,,,,,,,,,,923.4339,923.9336,924.1837,927.1168,space,2.9197,,927.1169,79,1,928.1164,928.1165,929.9997,space,1.86,,0,29,29,29,1,145,45,,,,,,,,
,,5f31ef83efc0c913389d6554,65af547abe6af047326a9893,2024-01-23_07h56.46.581,bars,2023.2.3,Win32,59.88023952,657b66ea316d21385b68909f,,,,,,,,,,,930.0003,930.9994,,,931.4995,931.7495,,168,168,,,,,,,,,,,,,,,,bars/005.png,bars/mask001.png,,,,,,,,,,,,2,1,,,,,,,8,2,8,0,,,,,,,,,,,930.9994,931.4994,931.7495,933.3494,space,1.586,,933.3495,22,28,934.349,934.3491,935.6332,space,1.2626,,0,30,30,30,1,10,140,,,,,,,,
,,5f31ef83efc0c913389d6554,65af547abe6af047326a9893,2024-01-23_07h56.46.581,bars,2023.2.3,Win32,59.88023952,657b66ea316d21385b68909f,,,,,,,,,,,935.6337,936.6322,,,937.1322,937.3819,,32,32,,,,,,,,,,,,,,,,bars/034.png,bars/mask004.png,,,,,,,,,,,,0,2,,,,,,,10,4,10,4,,,,,,,,,,,936.6323,937.1322,937.382,943.9314,space,6.5376,,943.9315,87,33,944.9312,944.9313,948.0317,space,3.067,,0,31,31,31,1,125,65,,,,,,,,
,,5f31ef83efc0c913389d6554,65af547abe6af047326a9893,2024-01-23_07h56.46.581,bars,2023.2.3,Win32,59.88023952,657b66ea316d21385b68909f,,,,,,,,,,,948.0407,949.0313,,,949.5311,949.7813,,172,172,,,,,,,,,,,,,,,,bars/003.png,bars/mask002.png,,,,,,,,,,,,0,2,,,,,,,8,2,7,2,,,,,,,,,,,949.0315,949.531,949.7815,953.6059,space,3.8003,,953.6059,33,32,954.5969,954.5971,956.2641,space,1.6348,,0,32,32,32,1,25,140,,,,,,,,
,,5f31ef83efc0c913389d6554,65af547abe6af047326a9893,2024-01-23_07h56.46.581,bars,2023.2.3,Win32,59.88023952,657b66ea316d21385b68909f,,,,,,,,,,,956.2653,957.2644,,,957.7637,958.0137,,113,113,,,,,,,,,,,,,,,,bars/030.png,bars/mask005.png,,,,,,,,,,,,1,1,,,,,,,10,0,10,1,,,,,,,,,,,957.2645,957.7636,958.0138,960.9718,space,2.9338,,960.9718,27,48,961.9631,961.9632,963.6625,space,1.6604,,0,33,33,33,1,140,65,,,,,,,,
,,5f31ef83efc0c913389d6554,65af547abe6af047326a9893,2024-01-23_07h56.46.581,bars,2023.2.3,Win32,59.88023952,657b66ea316d21385b68909f,,,,,,,,,,,963.6631,964.6624,,,965.1624,965.4122,,152,152,,,,,,,,,,,,,,,,bars/016.png,bars/mask002.png,,,,,,,,,,,,1,2,,,,,,,10,0,10,1,,,,,,,,,,,964.6625,965.1623,965.4122,968.3287,space,2.9004,,968.3288,68,13,969.3284,969.3285,971.0117,space,1.66,,0,34,34,34,1,40,165,,,,,,,,
,,5f31ef83efc0c913389d6554,65af547abe6af047326a9893,2024-01-23_07h56.46.581,bars,2023.2.3,Win32,59.88023952,657b66ea316d21385b68909f,,,,,,,,,,,971.0123,972.0114,,,972.5115,972.7614,,119,-61,,,,,,,,,,,,,,,,bars/001.png,bars/mask000.png,,,,,,,,,,,,5,1,,,,,,,8,2,8,2,,,,,,,,,,,972.0115,972.5114,972.7615,976.4612,space,3.6863,,976.4612,11,34,977.4608,977.4609,979.0948,space,1.5988,,0,35,35,35,1,130,85,,,,,,,,
,,5f31ef83efc0c913389d6554,65af547abe6af047326a9893,2024-01-23_07h56.46.581,bars,2023.2.3,Win32,59.88023952,657b66ea316d21385b68909f,,,,,,,,,,,979.096,980.102,,,980.5943,980.8442,,157,157,,,,,,,,,,,,,,,,bars/005.png,bars/mask002.png,,,,,,,,,,,,0,2,,,,,,,6,0,6,1,,,,,,,,,,,980.102,980.5942,980.8443,983.4356,space,2.5669,,983.4357,33,17,984.427,984.4271,985.8766,space,1.4062,,0,36,36,36,1,10,140,,,,,,,,
,,5f31ef83efc0c913389d6554,65af547abe6af047326a9893,2024-01-23_07h56.46.581,bars,2023.2.3,Win32,59.88023952,657b66ea316d21385b68909f,,,,,,,,,,,985.8771,986.8764,,,987.3764,987.6263,,30,30,,,,,,,,,,,,,,,,bars/036.png,bars/mask007.png,,,,,,,,,,,,1,2,,,,,,,8,2,9,2,,,,,,,,,,,986.8764,987.3763,987.6263,991.768,space,4.1326,,991.768,65,10,992.7594,992.7595,994.5771,space,1.785,,0,37,37,37,1,145,20,,,,,,,,
,,5f31ef83efc0c913389d6554,65af547abe6af047326a9893,2024-01-23_07h56.46.581,bars,2023.2.3,Win32,59.88023952,657b66ea316d21385b68909f,,,,,,,,,,,994.5784,995.5766,,,996.0759,996.3259,,157,-23,,,,,,,,,,,,,,,,bars/044.png,bars/mask005.png,,,,,,,,,,,,6,2,,,,,,,10,4,10,6,,,,,,,,,,,995.5767,996.0759,996.3259,1000.0338,space,3.6835,,1000.0339,82,2,1001.0251,1001.0252,1002.7754,space,1.7193,,0,38,38,38,1,75,155,,,,,,,,
,,5f31ef83efc0c913389d6554,65af547abe6af047326a9893,2024-01-23_07h56.46.581,bars,2023.2.3,Win32,59.88023952,657b66ea316d21385b68909f,,,,,,,,,,,1002.7767,1003.7748,,,1004.2751,1004.5248,,18,198,,,,,,,,,,,,,,,,bars/012.png,bars/mask002.png,,,,,,,,,,,,5,2,,,,,,,10,6,9,5,,,,,,,,,,,1003.7749,1004.275,1004.5249,1008.858,space,4.2997,,1008.8582,72,3,1009.8573,1009.8574,1012.5077,space,2.6176,,0,39,39,39,1,90,15,,,,,,,,
,,5f31ef83efc0c913389d6554,65af547abe6af047326a9893,2024-01-23_07h56.46.581,bars,2023.2.3,Win32,59.88023952,657b66ea316d21385b68909f,,,,,,,,,,,1012.5089,1013.5068,,,1014.0071,1014.2568,,18,198,,,,,,,,,,,,,,,,bars/018.png,bars/mask005.png,,,,,,,,,,,,0,1,,,,,,,10,4,10,3,,,,,,,,,,,1013.507,1014.007,1014.2569,1018.0074,space,3.7199,,1018.0075,48,72,1019.0066,1019.0067,1022.5725,space,3.5287,,0,40,40,40,1,150,90,,,,,,,,
,,5f31ef83efc0c913389d6554,65af547abe6af047326a9893,2024-01-23_07h56.46.581,bars,2023.2.3,Win32,59.88023952,657b66ea316d21385b68909f,,,,,,,,,,,1022.5812,1023.5722,,,1024.0722,1024.3222,,116,116,,,,,,,,,,,,,,,,bars/039.png,bars/mask000.png,,,,,,,,,,,,1,2,,,,,,,10,2,10,2,,,,,,,,,,,1023.5722,1024.0722,1024.3223,1026.9552,space,2.615,,1026.9553,59,11,1027.955,1027.9551,1030.9549,space,2.9665,,0,41,41,41,1,175,105,,,,,,,,
,,5f31ef83efc0c913389d6554,65af547abe6af047326a9893,2024-01-23_07h56.46.581,bars,2023.2.3,Win32,59.88023952,657b66ea316d21385b68909f,,,,,,,,,,,1030.9554,1031.9546,,,1032.4545,1032.7046,,152,-28,,,,,,,,,,,,,,,,bars/038.png,bars/mask003.png,,,,,,,,,,,,4,1,,,,,,,8,0,7,0,,,,,,,,,,,1031.9546,1032.4545,1032.7046,1035.4044,space,2.6813,,1035.4044,13,82,1036.4041,1036.4041,1038.054,space,1.6189,,0,42,42,42,1,165,70,,,,,,,,
,,5f31ef83efc0c913389d6554,65af547abe6af047326a9893,2024-01-23_07h56.46.581,bars,2023.2.3,Win32,59.88023952,657b66ea316d21385b68909f,,,,,,,,,,,1038.0545,1039.0538,,,1039.5537,1039.8036,,117,117,,,,,,,,,,,,,,,,bars/037.png,bars/mask005.png,,,,,,,,,,,,1,2,,,,,,,6,0,5,1,,,,,,,,,,,1039.0538,1039.5537,1039.8037,1042.3869,space,2.5645,,1042.3869,33,12,1043.3866,1043.3866,1048.7696,space,5.3508,,0,43,43,43,1,150,105,,,,,,,,
,,5f31ef83efc0c913389d6554,65af547abe6af047326a9893,2024-01-23_07h56.46.581,bars,2023.2.3,Win32,59.88023952,657b66ea316d21385b68909f,,,,,,,,,,,1048.7784,1049.7691,,,1050.2692,1050.519,,13,13,,,,,,,,,,,,,,,,bars/043.png,bars/mask008.png,,,,,,,,,,,,4,1,,,,,,,8,0,9,0,,,,,,,,,,,1049.7692,1050.2692,1050.519,1054.5688,space,4.0337,,1054.5689,17,63,1055.5685,1055.5685,1056.8025,space,1.1995,,0,44,44,44,1,30,130,,,,,,,,
,,5f31ef83efc0c913389d6554,65af547abe6af047326a9893,2024-01-23_07h56.46.581,bars,2023.2.3,Win32,59.88023952,657b66ea316d21385b68909f,,,,,,,,,,,1056.8036,1057.8019,,,1058.3022,1058.5518,,33,213,,,,,,,,,,,,,,,,bars/048.png,bars/mask004.png,,,,,,,,,,,,4,1,,,,,,,10,0,10,0,,,,,,,,,,,1057.802,1058.302,1058.552,1063.4684,space,4.8897,,1063.4684,17,38,1064.4681,1064.4683,1065.5018,space,1.0051,,0,45,45,45,1,50,175,,,,,,,,
,,5f31ef83efc0c913389d6554,65af547abe6af047326a9893,2024-01-23_07h56.46.581,bars,2023.2.3,Win32,59.88023952,657b66ea316d21385b68909f,,,,,,,,,,,1065.5032,1066.5009,,,1067.001,1067.2509,,174,-6,,,,,,,,,,,,,,,,bars/011.png,bars/mask007.png,,,,,,,,,,,,4,1,,,,,,,8,2,7,3,,,,,,,,,,,1066.501,1067.0009,1067.251,1068.8676,space,1.5841,,1068.8677,14,89,1069.867,1069.8671,1071.0359,space,1.1427,,0,46,46,46,1,160,85,,,,,,,,
,,5f31ef83efc0c913389d6554,65af547abe6af047326a9893,2024-01-23_07h56.46.581,bars,2023.2.3,Win32,59.88023952,657b66ea316d21385b68909f,,,,,,,,,,,1071.0368,1072.0338,,,1072.5339,1072.7839,,16,196,,,,,,,,,,,,,,,,bars/041.png,bars/mask002.png,,,,,,,,,,,,9,1,,,,,,,10,0,10,0,,,,,,,,,,,1072.0339,1072.5338,1072.7839,1076.6254,space,3.8172,,1076.6254,4,69,1077.6166,1077.6168,1080.5831,space,2.9338,,0,47,47,47,1,20,85,,,,,,,,
,,5f31ef83efc0c913389d6554,65af547abe6af047326a9893,2024-01-23_07h56.46.581,bars,2023.2.3,Win32,59.88023952,657b66ea316d21385b68909f,,,,,,,,,,,1080.5926,1081.5825,,,1082.0826,1082.3329,,62,62,,,,,,,,,,,,,,,,bars/001.png,bars/mask000.png,,,,,,,,,,,,0,2,,,,,,,8,2,6,2,,,,,,,,,,,1081.5826,1082.0825,1082.3329,1087.8193,space,5.4623,,1087.8194,68,23,1088.8154,1088.8155,1090.9311,space,2.0718,,0,48,48,48,1,130,85,,,,,,,,
,,5f31ef83efc0c913389d6554,65af547abe6af047326a9893,2024-01-23_07h56.46.581,bars,2023.2.3,Win32,59.88023952,657b66ea316d21385b68909f,,,,,,,,,,,1090.9316,1091.931,,,1092.431,1092.6809,,15,195,,,,,,,,,,,,,,,,bars/046.png,bars/mask004.png,,,,,,,,,,,,0,1,,,,,,,10,4,9,4,,,,,,,,,,,1091.931,1092.4309,1092.6809,1096.4807,space,3.7844,,1096.4807,40,70,1097.4804,1097.4804,1160.4401,space,62.9311,,0,49,49,49,1,155,85,,,,,,,,
,,5f31ef83efc0c913389d6554,65af547abe6af047326a9893,2024-01-23_07h56.46.581,bars,2023.2.3,Win32,59.88023952,657b66ea316d21385b68909f,,,,,,,,,,,,,,,,,,,,,,,,,,,,,,,,,,,,,,,,,,,,,,,,,,,,,,,,,,,,,,,,,,,,,,,,,,,,,,,,,,,,,,,,,,,,,1160.4502,1220.4504,0,0,0,0,1,sequence_tables/blk036.csv
,,5f31ef83efc0c913389d6554,65af547abe6af047326a9893,2024-01-23_07h56.46.581,bars,2023.2.3,Win32,59.88023952,657b66ea316d21385b68909f,,,,,,,,,,,1311.8192,1312.8224,,,1313.3221,1313.572,,142,-38,,,,,,,,,,,,,,,,bars/018.png,bars/mask005.png,,,,,,,,,,,,7,1,,,,,,,9,7,10,7,,,,,,1220.4599,1311.8059,space,91.3307,,1312.8224,1313.322,1313.5721,1318.1717,space,4.581,,1318.1717,8,52,1319.1713,1319.1714,1319.1801,,,,0,0,0,0,1,150,90,,,,,,,,
,,5f31ef83efc0c913389d6554,65af547abe6af047326a9893,2024-01-23_07h56.46.581,bars,2023.2.3,Win32,59.88023952,657b66ea316d21385b68909f,,,,,,,,,,,1319.1804,1320.1711,,,1320.6724,1320.9212,,145,145,,,,,,,,,,,,,,,,bars/038.png,bars/mask001.png,,,,,,,,,,,,2,1,,,,,,,7,5,7,4,,,,,,,,,,,1320.1712,1320.6724,1320.9212,1322.971,space,2.0315,,1322.9711,20,75,1323.9618,1323.9618,1323.9739,,,,0,1,1,1,1,165,70,,,,,,,,
,,5f31ef83efc0c913389d6554,65af547abe6af047326a9893,2024-01-23_07h56.46.581,bars,2023.2.3,Win32,59.88023952,657b66ea316d21385b68909f,,,,,,,,,,,1323.9744,1324.9787,,,1325.4714,1325.721,,89,89,,,,,,,,,,,,,,,,bars/002.png,bars/mask001.png,,,,,,,,,,,,6,2,,,,,,,5,7,3,7,,,,,,,,,,,1324.9787,1325.4713,1325.7211,1327.5886,space,1.8428,,1327.5888,41,4,1328.578,1328.578,1328.5871,,,,0,2,2,2,1,130,85,,,,,,,,
,,5f31ef83efc0c913389d6554,65af547abe6af047326a9893,2024-01-23_07h56.46.581,bars,2023.2.3,Win32,59.88023952,657b66ea316d21385b68909f,,,,,,,,,,,1328.5875,1329.5877,,,1330.0871,1330.3373,,134,-46,,,,,,,,,,,,,,,,bars/046.png,bars/mask004.png,,,,,,,,,,,,2,1,,,,,,,7,5,6,6,,,,,,,,,,,1329.5878,1330.0869,1330.3373,1335.345,space,4.9834,,1335.3451,21,49,1336.336,1336.336,1336.3464,,,,0,3,3,3,1,155,85,,,,,,,,
,,5f31ef83efc0c913389d6554,65af547abe6af047326a9893,2024-01-23_07h56.46.581,bars,2023.2.3,Win32,59.88023952,657b66ea316d21385b68909f,,,,,,,,,,,1336.3465,1337.3357,,,1337.8358,1338.086,,3,183,,,,,,,,,,,,,,,,bars/033.png,bars/mask009.png,,,,,,,,,,,,2,1,,,,,,,9,7,9,7,,,,,,,,,,,1337.3358,1337.8358,1338.086,1341.4689,space,3.3721,,1341.469,22,28,1342.4686,1342.4686,1342.4791,,,,0,4,4,4,1,25,155,,,,,,,,
,,5f31ef83efc0c913389d6554,65af547abe6af047326a9893,2024-01-23_07h56.46.581,bars,2023.2.3,Win32,59.88023952,657b66ea316d21385b68909f,,,,,,,,,,,1342.4794,1343.4684,,,1343.9682,1344.2182,,177,177,,,,,,,,,,,,,,,,bars/007.png,bars/mask002.png,,,,,,,,,,,,6,1,,,,,,,7,5,6,5,,,,,,,,,,,1343.4684,1343.9682,1344.2183,1346.7448,space,2.5172,,1346.7448,2,58,1347.7345,1347.7346,1347.7355,,,,0,5,5,5,1,175,55,,,,,,,,
,,5f31ef83efc0c913389d6554,65af547abe6af047326a9893,2024-01-23_07h56.46.581,bars,2023.2.3,Win32,59.88023952,657b66ea316d21385b68909f,,,,,,,,,,,1347.7359,1348.7345,,,1349.2345,1349.4843,,171,171,,,,,,,,,,,,,,,,bars/018.png,bars/mask008.png,,,,,,,,,,,,2,1,,,,,,,5,3,5,3,,,,,,,,,,,1348.7345,1349.2344,1349.4843,1351.0675,space,1.568,,1351.0676,21,81,1352.0674,1352.0674,1352.0764,,,,0,6,6,6,1,150,90,,,,,,,,
,,5f31ef83efc0c913389d6554,65af547abe6af047326a9893,2024-01-23_07h56.46.581,bars,2023.2.3,Win32,59.88023952,657b66ea316d21385b68909f,,,,,,,,,,,1352.0766,1353.0671,,,1353.5672,1353.8172,,40,40,,,,,,,,,,,,,,,,bars/042.png,bars/mask006.png,,,,,,,,,,,,0,2,,,,,,,7,1,7,2,,,,,,,,,,,1353.0672,1353.5672,1353.8172,1355.6677,space,1.8406,,1355.6678,75,35,1356.6667,1356.6667,1356.6776,,,,0,7,7,7,1,145,75,,,,,,,,
,,5f31ef83efc0c913389d6554,65af547abe6af047326a9893,2024-01-23_07h56.46.581,bars,2023.2.3,Win32,59.88023952,657b66ea316d21385b68909f,,,,,,,,,,,1356.6778,1357.6671,,,1358.1673,1358.417,,33,213,,,,,,,,,,,,,,,,bars/013.png,bars/mask000.png,,,,,,,,,,,,1,2,,,,,,,9,3,9,3,,,,,,,,,,,1357.6672,1358.1672,1358.417,1362.7671,space,4.3214,,1362.7672,42,23,1363.7663,1363.7664,1363.7757,,,,0,8,8,8,1,75,10,,,,,,,,
,,5f31ef83efc0c913389d6554,65af547abe6af047326a9893,2024-01-23_07h56.46.581,bars,2023.2.3,Win32,59.88023952,657b66ea316d21385b68909f,,,,,,,,,,,1363.7759,1364.7663,,,1365.2663,1365.5239,,0,0,,,,,,,,,,,,,,,,bars/040.png,bars/mask007.png,,,,,,,,,,,,7,2,,,,,,,10,5,10,8,,,,,,,,,,,1364.7663,1365.2663,1365.524,1367.2744,space,1.7339,,1367.2745,40,5,1368.2661,1368.2662,1368.2751,,,,0,9,9,9,1,140,5,,,,,,,,
,,5f31ef83efc0c913389d6554,65af547abe6af047326a9893,2024-01-23_07h56.46.581,bars,2023.2.3,Win32,59.88023952,657b66ea316d21385b68909f,,,,,,,,,,,1368.2752,1369.2658,,,1369.7659,1370.0156,,7,7,,,,,,,,,,,,,,,,bars/035.png,bars/mask000.png,,,,,,,,,,,,4,1,,,,,,,8,7,7,5,,,,,,,,,,,1369.266,1369.7658,1370.0156,1373.7068,space,3.6668,,1373.7069,12,53,1374.699,1374.6991,1374.7101,,,,0,10,10,10,1,175,60,,,,,,,,
,,5f31ef83efc0c913389d6554,65af547abe6af047326a9893,2024-01-23_07h56.46.581,bars,2023.2.3,Win32,59.88023952,657b66ea316d21385b68909f,,,,,,,,,,,1374.7103,1375.6984,,,1376.1983,1376.4482,,83,83,,,,,,,,,,,,,,,,bars/039.png,bars/mask002.png,,,,,,,,,,,,1,2,,,,,,,10,5,10,5,,,,,,,,,,,1375.6984,1376.1982,1376.4483,1379.9521,space,3.4792,,1379.9521,88,22,1380.9473,1380.9474,1380.9579,,,,0,11,11,11,1,175,105,,,,,,,,
,,5f31ef83efc0c913389d6554,65af547abe6af047326a9893,2024-01-23_07h56.46.581,bars,2023.2.3,Win32,59.88023952,657b66ea316d21385b68909f,,,,,,,,,,,1380.9581,1381.9472,,,1382.4471,1382.6972,,159,-21,,,,,,,,,,,,,,,,bars/016.png,bars/mask006.png,,,,,,,,,,,,2,2,,,,,,,10,3,8,2,,,,,,,,,,,1381.9472,1382.4471,1382.6972,1385.0636,space,2.3477,,1385.0638,61,6,1386.0633,1386.0633,1386.0642,,,,0,12,12,12,1,40,165,,,,,,,,
,,5f31ef83efc0c913389d6554,65af547abe6af047326a9893,2024-01-23_07h56.46.581,bars,2023.2.3,Win32,59.88023952,657b66ea316d21385b68909f,,,,,,,,,,,1386.0646,1387.0633,,,1387.5636,1387.8131,,22,202,,,,,,,,,,,,,,,,bars/043.png,bars/mask000.png,,,,,,,,,,,,5,1,,,,,,,8,5,7,5,,,,,,,,,,,1387.0633,1387.5635,1387.8131,1389.4131,space,1.5821,,1389.4131,8,72,1390.4129,1390.4129,1390.4239,,,,0,13,13,13,1,30,130,,,,,,,,
,,5f31ef83efc0c913389d6554,65af547abe6af047326a9893,2024-01-23_07h56.46.581,bars,2023.2.3,Win32,59.88023952,657b66ea316d21385b68909f,,,,,,,,,,,1390.4243,1391.4128,,,1391.9128,1392.1627,,163,-17,,,,,,,,,,,,,,,,bars/035.png,bars/mask006.png,,,,,,,,,,,,5,1,,,,,,,10,7,9,6,,,,,,,,,,,1391.4129,1391.9127,1392.1627,1395.2293,space,3.0482,,1395.2294,12,77,1396.2287,1396.2287,1396.2426,,,,0,14,14,14,1,175,60,,,,,,,,
,,5f31ef83efc0c913389d6554,65af547abe6af047326a9893,2024-01-23_07h56.46.581,bars,2023.2.3,Win32,59.88023952,657b66ea316d21385b68909f,,,,,,,,,,,1396.2429,1397.2453,,,1397.7454,1397.9953,,146,146,,,,,,,,,,,,,,,,bars/016.png,bars/mask000.png,,,,,,,,,,,,4,2,,,,,,,8,9,9,10,,,,,,,,,,,1397.2453,1397.7453,1397.9953,1402.2949,space,4.2804,,1402.295,74,19,1403.2945,1403.2946,1403.3054,,,,0,15,15,15,1,40,165,,,,,,,,
,,5f31ef83efc0c913389d6554,65af547abe6af047326a9893,2024-01-23_07h56.46.581,bars,2023.2.3,Win32,59.88023952,657b66ea316d21385b68909f,,,,,,,,,,,1403.3057,1404.2945,,,1404.7948,1405.0445,,99,99,,,,,,,,,,,,,,,,bars/002.png,bars/mask004.png,,,,,,,,,,,,5,2,,,,,,,6,10,6,10,,,,,,,,,,,1404.2945,1404.7947,1405.0445,1408.9276,space,3.87,,1408.9277,31,14,1409.9272,1409.9272,1409.9389,,,,0,16,16,16,1,130,85,,,,,,,,
,,5f31ef83efc0c913389d6554,65af547abe6af047326a9893,2024-01-23_07h56.46.581,bars,2023.2.3,Win32,59.88023952,657b66ea316d21385b68909f,,,,,,,,,,,1409.939,1410.927,,,1411.427,1411.677,,40,220,,,,,,,,,,,,,,,,bars/022.png,bars/mask000.png,,,,,,,,,,,,3,2,,,,,,,8,10,8,8,,,,,,,,,,,1410.927,1411.4269,1411.677,1415.8769,space,4.1832,,1415.8769,55,20,1416.8762,1416.8764,1416.8867,,,,0,17,17,17,1,95,20,,,,,,,,
,,5f31ef83efc0c913389d6554,65af547abe6af047326a9893,2024-01-23_07h56.46.581,bars,2023.2.3,Win32,59.88023952,657b66ea316d21385b68909f,,,,,,,,,,,1416.8868,1417.8764,,,1418.3762,1418.6261,,54,54,,,,,,,,,,,,,,,,bars/044.png,bars/mask006.png,,,,,,,,,,,,3,1,,,,,,,10,10,10,10,,,,,,,,,,,1417.8764,1418.3762,1418.6262,1422.076,space,3.4404,,1422.0761,21,79,1423.0757,1423.0757,1423.0856,,,,0,18,18,18,1,75,155,,,,,,,,
,,5f31ef83efc0c913389d6554,65af547abe6af047326a9893,2024-01-23_07h56.46.581,bars,2023.2.3,Win32,59.88023952,657b66ea316d21385b68909f,,,,,,,,,,,1423.0858,1424.0756,,,1424.5756,1424.8255,,144,144,,,,,,,,,,,,,,,,bars/042.png,bars/mask002.png,,,,,,,,,,,,8,1,,,,,,,8,10,8,10,,,,,,,,,,,1424.0756,1424.5755,1424.8256,1426.9587,space,2.1149,,1426.9587,1,69,1427.9584,1427.9585,1427.9595,,,,0,19,19,19,1,145,75,,,,,,,,
,,5f31ef83efc0c913389d6554,65af547abe6af047326a9893,2024-01-23_07h56.46.581,bars,2023.2.3,Win32,59.88023952,657b66ea316d21385b68909f,,,,,,,,,,,1427.9599,1428.9584,,,1429.4584,1429.7082,,157,-23,,,,,,,,,,,,,,,,bars/008.png,bars/mask008.png,,,,,,,,,,,,2,2,,,,,,,6,10,6,10,,,,,,,,,,,1428.9584,1429.4583,1429.7082,1432.1748,space,2.4482,,1432.1749,47,23,1433.1746,1433.1747,1433.1845,,,,0,20,20,20,1,110,0,,,,,,,,
,,5f31ef83efc0c913389d6554,65af547abe6af047326a9893,2024-01-23_07h56.46.581,bars,2023.2.3,Win32,59.88023952,657b66ea316d21385b68909f,,,,,,,,,,,1433.1847,1434.1744,,,1434.6744,1434.9244,,6,186,,,,,,,,,,,,,,,,bars/023.png,bars/mask003.png,,,,,,,,,,,,5,1,,,,,,,8,10,10,10,,,,,,,,,,,1434.1745,1434.6744,1434.9245,1438.4408,space,3.4977,,1438.4408,14,71,1439.4405,1439.4405,1439.451,,,,0,21,21,21,1,20,115,,,,,,,,
,,5f31ef83efc0c913389d6554,65af547abe6af047326a9893,2024-01-23_07h56.46.581,bars,2023.2.3,Win32,59.88023952,657b66ea316d21385b68909f,,,,,,,,,,,1439.4512,1440.4403,,,1440.9404,1441.1903,,153,153,,,,,,,,,,,,,,,,bars/036.png,bars/mask000.png,,,,,,,,,,,,6,1,,,,,,,6,8,8,8,,,,,,,,,,,1440.4404,1440.9404,1441.1903,1444.94,space,3.7335,,1444.9401,8,47,1445.9398,1445.9398,1445.9488,,,,0,22,22,22,1,145,20,,,,,,,,
,,5f31ef83efc0c913389d6554,65af547abe6af047326a9893,2024-01-23_07h56.46.581,bars,2023.2.3,Win32,59.88023952,657b66ea316d21385b68909f,,,,,,,,,,,1445.9489,1446.9397,,,1447.4396,1447.6896,,79,79,,,,,,,,,,,,,,,,bars/044.png,bars/mask002.png,,,,,,,,,,,,6,1,,,,,,,8,10,7,9,,,,,,,,,,,1446.9397,1447.4395,1447.6896,1451.0394,space,3.3369,,1451.0395,4,76,1452.0391,1452.0392,1452.0486,,,,0,23,23,23,1,75,155,,,,,,,,
,,5f31ef83efc0c913389d6554,65af547abe6af047326a9893,2024-01-23_07h56.46.581,bars,2023.2.3,Win32,59.88023952,657b66ea316d21385b68909f,,,,,,,,,,,1452.0487,1453.0389,,,1453.5391,1453.7889,,48,48,,,,,,,,,,,,,,,,bars/017.png,bars/mask008.png,,,,,,,,,,,,9,2,,,,,,,6,10,7,10,,,,,,,,,,,1453.039,1453.539,1453.7889,1459.1217,space,5.3176,,1459.1218,83,3,1460.1215,1460.1216,1460.1317,,,,0,24,24,24,1,145,45,,,,,,,,
,,5f31ef83efc0c913389d6554,65af547abe6af047326a9893,2024-01-23_07h56.46.581,bars,2023.2.3,Win32,59.88023952,657b66ea316d21385b68909f,,,,,,,,,,,1460.1319,1461.1214,,,1461.6214,1461.8713,,173,-7,,,,,,,,,,,,,,,,bars/032.png,bars/mask009.png,,,,,,,,,,,,1,2,,,,,,,4,8,4,8,,,,,,,,,,,1461.1214,1461.6214,1461.8713,1465.8207,space,3.9395,,1465.8207,48,27,1466.8206,1466.8207,1466.8314,,,,0,25,25,25,1,125,20,,,,,,,,
,,5f31ef83efc0c913389d6554,65af547abe6af047326a9893,2024-01-23_07h56.46.581,bars,2023.2.3,Win32,59.88023952,657b66ea316d21385b68909f,,,,,,,,,,,1466.8315,1467.8206,,,1468.3206,1468.5705,,177,177,,,,,,,,,,,,,,,,bars/040.png,bars/mask004.png,,,,,,,,,,,,7,2,,,,,,,2,10,3,10,,,,,,,,,,,1467.8206,1468.3206,1468.5706,1471.337,space,2.7479,,1471.3371,37,8,1472.3367,1472.3368,1472.3457,,,,0,26,26,26,1,140,5,,,,,,,,
,,5f31ef83efc0c913389d6554,65af547abe6af047326a9893,2024-01-23_07h56.46.581,bars,2023.2.3,Win32,59.88023952,657b66ea316d21385b68909f,,,,,,,,,,,1472.3458,1473.3365,,,1473.8367,1474.0865,,11,191,,,,,,,,,,,,,,,,bars/018.png,bars/mask007.png,,,,,,,,,,,,0,1,,,,,,,0,8,0,9,,,,,,,,,,,1473.3365,1473.8366,1474.0866,1478.3028,space,4.2044,,1478.303,41,79,1479.3026,1479.3027,1479.3126,,,,0,27,27,27,1,150,90,,,,,,,,
,,5f31ef83efc0c913389d6554,65af547abe6af047326a9893,2024-01-23_07h56.46.581,bars,2023.2.3,Win32,59.88023952,657b66ea316d21385b68909f,,,,,,,,,,,1479.3128,1480.3024,,,1480.8024,1481.0524,,168,168,,,,,,,,,,,,,,,,bars/007.png,bars/mask008.png,,,,,,,,,,,,0,1,,,,,,,0,10,0,10,,,,,,,,,,,1480.3025,1480.8024,1481.0524,1482.5192,space,1.4489,,1482.5192,7,67,1483.5187,1483.5188,1483.5197,,,,0,28,28,28,1,175,55,,,,,,,,
,,5f31ef83efc0c913389d6554,65af547abe6af047326a9893,2024-01-23_07h56.46.581,bars,2023.2.3,Win32,59.88023952,657b66ea316d21385b68909f,,,,,,,,,,,1483.5201,1484.5187,,,1485.0184,1485.2686,,169,-11,,,,,,,,,,,,,,,,bars/049.png,bars/mask009.png,,,,,,,,,,,,1,1,,,,,,,2,10,2,9,,,,,,,,,,,1484.5187,1485.0184,1485.2686,1488.1018,space,2.8154,,1488.1018,9,54,1489.1014,1489.1015,1489.1109,,,,0,29,29,29,1,160,115,,,,,,,,
,,5f31ef83efc0c913389d6554,65af547abe6af047326a9893,2024-01-23_07h56.46.581,bars,2023.2.3,Win32,59.88023952,657b66ea316d21385b68909f,,,,,,,,,,,1489.1111,1490.1014,,,1490.6017,1490.8513,,172,172,,,,,,,,,,,,,,,,bars/033.png,bars/mask005.png,,,,,,,,,,,,3,2,,,,,,,0,8,0,8,,,,,,,,,,,1490.1014,1490.6016,1490.8513,1493.0012,space,2.1309,,1493.0013,33,17,1494.0009,1494.001,1494.0036,,,,0,30,30,30,1,25,155,,,,,,,,
,,5f31ef83efc0c913389d6554,65af547abe6af047326a9893,2024-01-23_07h56.46.581,bars,2023.2.3,Win32,59.88023952,657b66ea316d21385b68909f,,,,,,,,,,,1494.0042,1495.0009,,,1495.5007,1495.7509,,43,223,,,,,,,,,,,,,,,,bars/025.png,bars/mask004.png,,,,,,,,,,,,8,2,,,,,,,2,10,3,9,,,,,,,,,,,1495.0009,1495.5007,1495.7509,1498.4175,space,2.6523,,1498.4175,62,3,1499.4167,1499.4168,1499.4259,,,,0,31,31,31,1,105,40,,,,,,,,
,,5f31ef83efc0c913389d6554,65af547abe6af047326a9893,2024-01-23_07h56.46.581,bars,2023.2.3,Win32,59.88023952,657b66ea316d21385b68909f,,,,,,,,,,,1499.4261,1500.4167,,,1500.9167,1501.1667,,70,70,,,,,,,,,,,,,,,,bars/019.png,bars/mask005.png,,,,,,,,,,,,0,1,,,,,,,4,10,3,10,,,,,,,,,,,1500.4168,1500.9166,1501.1667,1504.9665,space,3.7882,,1504.9665,25,35,1505.9661,1505.9661,1505.9763,,,,0,32,32,32,1,45,105,,,,,,,,
,,5f31ef83efc0c913389d6554,65af547abe6af047326a9893,2024-01-23_07h56.46.581,bars,2023.2.3,Win32,59.88023952,657b66ea316d21385b68909f,,,,,,,,,,,1505.9765,1506.9661,,,1507.4659,1507.716,,117,117,,,,,,,,,,,,,,,,bars/044.png,bars/mask001.png,,,,,,,,,,,,0,2,,,,,,,2,10,4,10,,,,,,,,,,,1506.9661,1507.4659,1507.716,1511.4657,space,3.7316,,1511.4657,42,38,1512.4654,1512.4654,1512.4753,,,,0,33,33,33,1,75,155,,,,,,,,
,,5f31ef83efc0c913389d6554,65af547abe6af047326a9893,2024-01-23_07h56.46.581,bars,2023.2.3,Win32,59.88023952,657b66ea316d21385b68909f,,,,,,,,,,,1512.4755,1513.4653,,,1513.9653,1514.2153,,76,76,,,,,,,,,,,,,,,,bars/001.png,bars/mask008.png,,,,,,,,,,,,6,2,,,,,,,0,8,0,8,,,,,,,,,,,1513.4653,1513.9652,1514.2153,1516.4819,space,2.2469,,1516.4819,54,9,1517.4817,1517.4817,1517.4906,,,,0,34,34,34,1,130,85,,,,,,,,
,,5f31ef83efc0c913389d6554,65af547abe6af047326a9893,2024-01-23_07h56.46.581,bars,2023.2.3,Win32,59.88023952,657b66ea316d21385b68909f,,,,,,,,,,,1517.4908,1518.4814,,,1518.9814,1519.2315,,33,33,,,,,,,,,,,,,,,,bars/025.png,bars/mask009.png,,,,,,,,,,,,5,2,,,,,,,2,6,2,6,,,,,,,,,,,1518.4815,1518.9813,1519.2315,1522.5646,space,3.324,,1522.5646,72,7,1523.5642,1523.5642,1523.5736,,,,0,35,35,35,1,105,40,,,,,,,,
,,5f31ef83efc0c913389d6554,65af547abe6af047326a9893,2024-01-23_07h56.46.581,bars,2023.2.3,Win32,59.88023952,657b66ea316d21385b68909f,,,,,,,,,,,1523.5737,1524.564,,,1525.064,1525.314,,152,152,,,,,,,,,,,,,,,,bars/036.png,bars/mask006.png,,,,,,,,,,,,3,1,,,,,,,4,4,4,4,,,,,,,,,,,1524.564,1525.0639,1525.314,1527.4805,space,2.1532,,1527.4805,7,48,1528.4802,1528.4802,1528.4899,,,,0,36,36,36,1,145,20,,,,,,,,
,,5f31ef83efc0c913389d6554,65af547abe6af047326a9893,2024-01-23_07h56.46.581,bars,2023.2.3,Win32,59.88023952,657b66ea316d21385b68909f,,,,,,,,,,,1528.4901,1529.4801,,,1529.9801,1530.2301,,131,131,,,,,,,,,,,,,,,,bars/004.png,bars/mask001.png,,,,,,,,,,,,6,2,,,,,,,2,6,3,8,,,,,,,,,,,1529.4802,1529.98,1530.2301,1532.4299,space,2.189,,1532.43,74,6,1533.4296,1533.4296,1533.4395,,,,0,37,37,37,1,25,125,,,,,,,,
,,5f31ef83efc0c913389d6554,65af547abe6af047326a9893,2024-01-23_07h56.46.581,bars,2023.2.3,Win32,59.88023952,657b66ea316d21385b68909f,,,,,,,,,,,1533.4396,1534.4296,,,1534.9295,1535.1796,,36,36,,,,,,,,,,,,,,,,bars/017.png,bars/mask008.png,,,,,,,,,,,,5,2,,,,,,,4,8,4,7,,,,,,,,,,,1534.4297,1534.9295,1535.1796,1537.5627,space,2.3645,,1537.5627,71,9,1538.5624,1538.5625,1538.5716,,,,0,38,38,38,1,145,45,,,,,,,,
,,5f31ef83efc0c913389d6554,65af547abe6af047326a9893,2024-01-23_07h56.46.581,bars,2023.2.3,Win32,59.88023952,657b66ea316d21385b68909f,,,,,,,,,,,1538.5718,1539.5623,,,1540.0622,1540.3122,,80,80,,,,,,,,,,,,,,,,bars/002.png,bars/mask002.png,,,,,,,,,,,,8,2,,,,,,,6,10,5,10,,,,,,,,,,,1539.5624,1540.0622,1540.3122,1542.0956,space,1.7709,,1542.0956,50,5,1543.0953,1543.0953,1543.1048,,,,0,39,39,39,1,130,85,,,,,,,,
,,5f31ef83efc0c913389d6554,65af547abe6af047326a9893,2024-01-23_07h56.46.581,bars,2023.2.3,Win32,59.88023952,657b66ea316d21385b68909f,,,,,,,,,,,1543.1049,1544.0952,,,1544.5952,1544.8451,,75,75,,,,,,,,,,,,,,,,bars/026.png,bars/mask004.png,,,,,,,,,,,,5,2,,,,,,,8,8,6,8,,,,,,,,,,,1544.0952,1544.5951,1544.8451,1546.8116,space,1.9511,,1546.8117,40,10,1547.8114,1547.8114,1547.8124,,,,0,40,40,40,1,35,85,,,,,,,,
,,5f31ef83efc0c913389d6554,65af547abe6af047326a9893,2024-01-23_07h56.46.581,bars,2023.2.3,Win32,59.88023952,657b66ea316d21385b68909f,,,,,,,,,,,1547.8131,1548.8112,,,1549.3112,1549.5612,,142,142,,,,,,,,,,,,,,,,bars/049.png,bars/mask008.png,,,,,,,,,,,,2,1,,,,,,,6,6,5,6,,,,,,,,,,,1548.8113,1549.3112,1549.5612,1551.3447,space,1.765,,1551.3448,18,27,1552.3442,1552.3443,1552.3539,,,,0,41,41,41,1,160,115,,,,,,,,
,,5f31ef83efc0c913389d6554,65af547abe6af047326a9893,2024-01-23_07h56.46.581,bars,2023.2.3,Win32,59.88023952,657b66ea316d21385b68909f,,,,,,,,,,,1552.354,1553.344,,,1553.8441,1554.0939,,38,38,,,,,,,,,,,,,,,,bars/017.png,bars/mask008.png,,,,,,,,,,,,5,2,,,,,,,4,8,6,7,,,,,,,,,,,1553.344,1553.8441,1554.0939,1556.3272,space,2.2217,,1556.3272,73,7,1557.3271,1557.3272,1557.3371,,,,0,42,42,42,1,145,45,,,,,,,,
,,5f31ef83efc0c913389d6554,65af547abe6af047326a9893,2024-01-23_07h56.46.581,bars,2023.2.3,Win32,59.88023952,657b66ea316d21385b68909f,,,,,,,,,,,1557.3372,1558.3268,,,1558.8268,1559.0767,,152,152,,,,,,,,,,,,,,,,bars/023.png,bars/mask001.png,,,,,,,,,,,,0,2,,,,,,,6,10,5,9,,,,,,,,,,,1558.3268,1558.8268,1559.0767,1561.3433,space,2.2481,,1561.3433,48,37,1562.343,1562.343,1562.3535,,,,0,43,43,43,1,20,115,,,,,,,,
,,5f31ef83efc0c913389d6554,65af547abe6af047326a9893,2024-01-23_07h56.46.581,bars,2023.2.3,Win32,59.88023952,657b66ea316d21385b68909f,,,,,,,,,,,1562.3537,1563.3428,,,1563.8431,1564.0929,,33,213,,,,,,,,,,,,,,,,bars/016.png,bars/mask007.png,,,,,,,,,,,,3,1,,,,,,,4,8,4,6,,,,,,,,,,,1563.3428,1563.8431,1564.0929,1571.2756,space,7.1668,,1571.2756,7,48,1572.2752,1572.2753,1572.2866,,,,0,44,44,44,1,40,165,,,,,,,,
,,5f31ef83efc0c913389d6554,65af547abe6af047326a9893,2024-01-23_07h56.46.581,bars,2023.2.3,Win32,59.88023952,657b66ea316d21385b68909f,,,,,,,,,,,1572.2868,1573.2751,,,1573.7752,1574.0252,,8,188,,,,,,,,,,,,,,,,bars/018.png,bars/mask006.png,,,,,,,,,,,,0,1,,,,,,,6,10,6,8,,,,,,,,,,,1573.2752,1573.7752,1574.0252,1578.1248,space,4.0837,,1578.1249,38,82,1579.1245,1579.1245,1579.1334,,,,0,45,45,45,1,150,90,,,,,,,,
,,5f31ef83efc0c913389d6554,65af547abe6af047326a9893,2024-01-23_07h56.46.581,bars,2023.2.3,Win32,59.88023952,657b66ea316d21385b68909f,,,,,,,,,,,1579.1336,1580.1244,,,1580.6243,1580.8743,,25,205,,,,,,,,,,,,,,,,bars/040.png,bars/mask008.png,,,,,,,,,,,,3,2,,,,,,,8,10,9,10,,,,,,,,,,,1580.1245,1580.6243,1580.8743,1585.9407,space,5.0501,,1585.9407,65,20,1586.9402,1586.9403,1586.95,,,,0,46,46,46,1,140,5,,,,,,,,
,,5f31ef83efc0c913389d6554,65af547abe6af047326a9893,2024-01-23_07h56.46.581,bars,2023.2.3,Win32,59.88023952,657b66ea316d21385b68909f,,,,,,,,,,,1586.9502,1587.9401,,,1588.4401,1588.6902,,8,8,,,,,,,,,,,,,,,,bars/009.png,bars/mask008.png,,,,,,,,,,,,8,1,,,,,,,10,8,10,8,,,,,,,,,,,1587.9402,1588.44,1588.6902,1591.4733,space,2.7671,,1591.4733,7,83,1592.4729,1592.4729,1592.4832,,,,0,47,47,47,1,15,105,,,,,,,,
,,5f31ef83efc0c913389d6554,65af547abe6af047326a9893,2024-01-23_07h56.46.581,bars,2023.2.3,Win32,59.88023952,657b66ea316d21385b68909f,,,,,,,,,,,1592.4834,1593.4728,,,1593.9728,1594.2228,,133,133,,,,,,,,,,,,,,,,bars/038.png,bars/mask006.png,,,,,,,,,,,,0,1,,,,,,,10,6,10,7,,,,,,,,,,,1593.4728,1593.9728,1594.2228,1595.906,space,1.6689,,1595.9061,32,63,1596.9058,1596.9059,1596.9146,,,,0,48,48,48,1,165,70,,,,,,,,
,,5f31ef83efc0c913389d6554,65af547abe6af047326a9893,2024-01-23_07h56.46.581,bars,2023.2.3,Win32,59.88023952,657b66ea316d21385b68909f,,,,,,,,,,,1596.9148,1597.9057,,,1598.4056,1598.6555,,24,204,,,,,,,,,,,,,,,,bars/041.png,bars/mask004.png,,,,,,,,,,,,7,1,,,,,,,8,8,8,7,,,,,,,,,,,1597.9058,1598.4055,1598.6556,1603.7218,space,5.0478,,1603.7219,4,61,1604.7216,1604.7217,1604.7318,,,,0,49,49,49,1,20,85,,,,,,,,
,,5f31ef83efc0c913389d6554,65af547abe6af047326a9893,2024-01-23_07h56.46.581,bars,2023.2.3,Win32,59.88023952,657b66ea316d21385b68909f,,,,,,,,,,,,,,,,,,,,,,,,,,,,,,,,,,,,,,,,,,,,,,,,,,,,,,,,,,,,,,,,,,,,,,,,,,,,,,,,,,,,,,,,,,,,,1604.7319,1664.7314,0,1,1,4,1,sequence_tables/blk032.csv
,,5f31ef83efc0c913389d6554,65af547abe6af047326a9893,2024-01-23_07h56.46.581,bars,2023.2.3,Win32,59.88023952,657b66ea316d21385b68909f,,,,,,,,,,,1802.6296,1803.6321,,,1804.1321,1804.382,,170,-10,,,,,,,,,,,,,,,,bars/018.png,bars/mask003.png,,,,,,,,,,,,2,1,,,,,,,8,3,7,2,,,,,,1664.7413,1802.6158,space,137.8604,,1803.6322,1804.1321,1804.382,1808.115,space,3.7135,,1808.1151,20,80,1809.1149,1809.1149,1809.124,,,,0,0,0,0,1,150,90,,,,,,,,
,,5f31ef83efc0c913389d6554,65af547abe6af047326a9893,2024-01-23_07h56.46.581,bars,2023.2.3,Win32,59.88023952,657b66ea316d21385b68909f,,,,,,,,,,,1809.1241,1810.1148,,,1810.6148,1810.8646,,8,188,,,,,,,,,,,,,,,,bars/006.png,bars/mask001.png,,,,,,,,,,,,1,1,,,,,,,6,5,6,4,,,,,,,,,,,1810.1148,1810.6147,1810.8647,1815.0476,space,4.1667,,1815.0477,27,88,1816.0474,1816.0474,1816.0566,,,,0,1,1,1,1,35,100,,,,,,,,
,,5f31ef83efc0c913389d6554,65af547abe6af047326a9893,2024-01-23_07h56.46.581,bars,2023.2.3,Win32,59.88023952,657b66ea316d21385b68909f,,,,,,,,,,,1816.0569,1817.0472,,,1817.5473,1817.7971,,47,47,,,,,,,,,,,,,,,,bars/010.png,bars/mask007.png,,,,,,,,,,,,2,2,,,,,,,8,3,8,3,,,,,,,,,,,1817.0473,1817.5473,1817.7971,1819.347,space,1.5361,,1819.347,62,8,1820.3467,1820.3468,1820.3501,,,,0,2,2,2,1,165,55,,,,,,,,
,,5f31ef83efc0c913389d6554,65af547abe6af047326a9893,2024-01-23_07h56.46.581,bars,2023.2.3,Win32,59.88023952,657b66ea316d21385b68909f,,,,,,,,,,,1820.3508,1821.3468,,,1821.8467,1822.0966,,140,140,,,,,,,,,,,,,,,,bars/004.png,bars/mask009.png,,,,,,,,,,,,3,2,,,,,,,6,5,5,5,,,,,,,,,,,1821.3468,1821.8467,1822.0966,1824.6965,space,2.5816,,1824.6966,65,15,1825.6963,1825.6963,1825.7053,,,,0,3,3,3,1,25,125,,,,,,,,
,,5f31ef83efc0c913389d6554,65af547abe6af047326a9893,2024-01-23_07h56.46.581,bars,2023.2.3,Win32,59.88023952,657b66ea316d21385b68909f,,,,,,,,,,,1825.7055,1826.6961,,,1827.1961,1827.4461,,42,42,,,,,,,,,,,,,,,,bars/031.png,bars/mask006.png,,,,,,,,,,,,2,2,,,,,,,8,3,9,3,,,,,,,,,,,1826.6961,1827.1961,1827.4461,1829.0963,space,1.6325,,1829.0963,78,7,1830.0958,1830.0958,1830.0966,,,,0,4,4,4,1,120,35,,,,,,,,
,,5f31ef83efc0c913389d6554,65af547abe6af047326a9893,2024-01-23_07h56.46.581,bars,2023.2.3,Win32,59.88023952,657b66ea316d21385b68909f,,,,,,,,,,,1830.097,1831.0956,,,1831.5959,1831.8456,,41,221,,,,,,,,,,,,,,,,bars/003.png,bars/mask003.png,,,,,,,,,,,,3,1,,,,,,,6,1,6,2,,,,,,,,,,,1831.0957,1831.5957,1831.8456,1836.295,space,4.4401,,1836.2951,16,81,1837.295,1837.295,1837.3047,,,,0,5,5,5,1,25,140,,,,,,,,
,,5f31ef83efc0c913389d6554,65af547abe6af047326a9893,2024-01-23_07h56.46.581,bars,2023.2.3,Win32,59.88023952,657b66ea316d21385b68909f,,,,,,,,,,,1837.3049,1838.2948,,,1838.7949,1839.0448,,171,-9,,,,,,,,,,,,,,,,bars/044.png,bars/mask000.png,,,,,,,,,,,,1,2,,,,,,,4,3,3,3,,,,,,,,,,,1838.2948,1838.7949,1839.0448,1842.711,space,3.6565,,1842.711,84,16,1843.7108,1843.7108,1843.7207,,,,0,6,6,6,1,75,155,,,,,,,,
,,5f31ef83efc0c913389d6554,65af547abe6af047326a9893,2024-01-23_07h56.46.581,bars,2023.2.3,Win32,59.88023952,657b66ea316d21385b68909f,,,,,,,,,,,1843.7209,1844.7108,,,1845.2108,1845.4607,,59,59,,,,,,,,,,,,,,,,bars/027.png,bars/mask008.png,,,,,,,,,,,,1,2,,,,,,,6,1,7,1,,,,,,,,,,,1844.7108,1845.2106,1845.4607,1847.5774,space,2.1051,,1847.5774,51,9,1848.5769,1848.5769,1848.5778,,,,0,7,7,7,1,110,50,,,,,,,,
,,5f31ef83efc0c913389d6554,65af547abe6af047326a9893,2024-01-23_07h56.46.581,bars,2023.2.3,Win32,59.88023952,657b66ea316d21385b68909f,,,,,,,,,,,1848.5782,1849.5769,,,1850.0768,1850.3266,,2,2,,,,,,,,,,,,,,,,bars/032.png,bars/mask003.png,,,,,,,,,,,,2,2,,,,,,,8,3,9,4,,,,,,,,,,,1849.5769,1850.0768,1850.3266,1854.4264,space,4.0839,,1854.4265,57,18,1855.4262,1855.4263,1855.4359,,,,0,8,8,8,1,125,20,,,,,,,,
,,5f31ef83efc0c913389d6554,65af547abe6af047326a9893,2024-01-23_07h56.46.581,bars,2023.2.3,Win32,59.88023952,657b66ea316d21385b68909f,,,,,,,,,,,1855.436,1856.4259,,,1856.926,1857.1759,,12,192,,,,,,,,,,,,,,,,bars/009.png,bars/mask005.png,,,,,,,,,,,,7,1,,,,,,,10,1,8,1,,,,,,,,,,,1856.426,1856.926,1857.1759,1858.976,space,1.7834,,1858.9761,3,87,1859.9758,1859.9759,1859.9786,,,,0,9,9,9,1,15,105,,,,,,,,
,,5f31ef83efc0c913389d6554,65af547abe6af047326a9893,2024-01-23_07h56.46.581,bars,2023.2.3,Win32,59.88023952,657b66ea316d21385b68909f,,,,,,,,,,,1859.9791,1860.9755,,,1861.4757,1861.7256,,108,108,,,,,,,,,,,,,,,,bars/044.png,bars/mask007.png,,,,,,,,,,,,0,1,,,,,,,8,3,7,1,,,,,,,,,,,1860.9755,1861.4756,1861.7257,1863.742,space,2,,1863.742,33,47,1864.7417,1864.7418,1864.7509,,,,0,10,10,10,1,75,155,,,,,,,,
,,5f31ef83efc0c913389d6554,65af547abe6af047326a9893,2024-01-23_07h56.46.581,bars,2023.2.3,Win32,59.88023952,657b66ea316d21385b68909f,,,,,,,,,,,1864.7511,1865.7419,,,1866.2416,1866.4916,,11,11,,,,,,,,,,,,,,,,bars/041.png,bars/mask000.png,,,,,,,,,,,,6,1,,,,,,,10,1,8,2,,,,,,,,,,,1865.742,1866.2416,1866.4917,1868.6082,space,2.1001,,1868.6082,9,74,1869.6078,1869.6079,1869.6168,,,,0,11,11,11,1,20,85,,,,,,,,
,,5f31ef83efc0c913389d6554,65af547abe6af047326a9893,2024-01-23_07h56.46.581,bars,2023.2.3,Win32,59.88023952,657b66ea316d21385b68909f,,,,,,,,,,,1869.6169,1870.6078,,,1871.1077,1871.3578,,139,-41,,,,,,,,,,,,,,,,bars/015.png,bars/mask002.png,,,,,,,,,,,,0,2,,,,,,,10,0,10,0,,,,,,,,,,,1870.6079,1871.1077,1871.3579,1874.9741,space,3.6007,,1874.9741,29,21,1875.9738,1875.9738,1875.9838,,,,0,12,12,12,1,110,160,,,,,,,,
,,5f31ef83efc0c913389d6554,65af547abe6af047326a9893,2024-01-23_07h56.46.581,bars,2023.2.3,Win32,59.88023952,657b66ea316d21385b68909f,,,,,,,,,,,1875.984,1876.9738,,,1877.4738,1877.7237,,178,178,,,,,,,,,,,,,,,,bars/018.png,bars/mask000.png,,,,,,,,,,,,1,1,,,,,,,8,2,9,2,,,,,,,,,,,1876.9738,1877.4738,1877.7238,1881.6399,space,3.9064,,1881.64,28,88,1882.6397,1882.6398,1882.6496,,,,0,13,13,13,1,150,90,,,,,,,,
,,5f31ef83efc0c913389d6554,65af547abe6af047326a9893,2024-01-23_07h56.46.581,bars,2023.2.3,Win32,59.88023952,657b66ea316d21385b68909f,,,,,,,,,,,1882.6498,1883.6395,,,1884.1397,1884.3894,,66,66,,,,,,,,,,,,,,,,bars/029.png,bars/mask005.png,,,,,,,,,,,,2,2,,,,,,,10,4,8,6,,,,,,,,,,,1883.6396,1884.1396,1884.3895,1888.3393,space,3.937,,1888.3393,24,21,1889.3389,1889.339,1889.3487,,,,0,14,14,14,1,90,45,,,,,,,,
,,5f31ef83efc0c913389d6554,65af547abe6af047326a9893,2024-01-23_07h56.46.581,bars,2023.2.3,Win32,59.88023952,657b66ea316d21385b68909f,,,,,,,,,,,1889.3489,1890.3389,,,1890.8389,1891.0888,,4,4,,,,,,,,,,,,,,,,bars/032.png,bars/mask003.png,,,,,,,,,,,,3,2,,,,,,,8,6,8,6,,,,,,,,,,,1890.3389,1890.8388,1891.0888,1893.9553,space,2.8478,,1893.9553,59,16,1894.9551,1894.9551,1894.9641,,,,0,15,15,15,1,125,20,,,,,,,,
,,5f31ef83efc0c913389d6554,65af547abe6af047326a9893,2024-01-23_07h56.46.581,bars,2023.2.3,Win32,59.88023952,657b66ea316d21385b68909f,,,,,,,,,,,1894.9642,1895.9549,,,1896.4551,1896.7052,,56,56,,,,,,,,,,,,,,,,bars/022.png,bars/mask004.png,,,,,,,,,,,,0,2,,,,,,,10,8,10,9,,,,,,,,,,,1895.9549,1896.455,1896.7052,1899.1547,space,2.4371,,1899.1547,39,36,1900.1544,1900.1544,1900.1635,,,,0,16,16,16,1,95,20,,,,,,,,
,,5f31ef83efc0c913389d6554,65af547abe6af047326a9893,2024-01-23_07h56.46.581,bars,2023.2.3,Win32,59.88023952,657b66ea316d21385b68909f,,,,,,,,,,,1900.1636,1901.1543,,,1901.6544,1901.9043,,179,179,,,,,,,,,,,,,,,,bars/033.png,bars/mask002.png,,,,,,,,,,,,2,2,,,,,,,10,10,10,10,,,,,,,,,,,1901.1543,1901.6543,1901.9043,1905.5706,space,3.6478,,1905.5706,26,24,1906.5702,1906.5703,1906.5792,,,,0,17,17,17,1,25,155,,,,,,,,
,,5f31ef83efc0c913389d6554,65af547abe6af047326a9893,2024-01-23_07h56.46.581,bars,2023.2.3,Win32,59.88023952,657b66ea316d21385b68909f,,,,,,,,,,,1906.5793,1907.5702,,,1908.0702,1908.3201,,108,108,,,,,,,,,,,,,,,,bars/044.png,bars/mask007.png,,,,,,,,,,,,0,1,,,,,,,8,8,9,9,,,,,,,,,,,1907.5703,1908.0701,1908.3201,1911.7203,space,3.3835,,1911.7204,33,47,1912.7197,1912.7197,1912.7307,,,,0,18,18,18,1,75,155,,,,,,,,
,,5f31ef83efc0c913389d6554,65af547abe6af047326a9893,2024-01-23_07h56.46.581,bars,2023.2.3,Win32,59.88023952,657b66ea316d21385b68909f,,,,,,,,,,,1912.7308,1913.7196,,,1914.2195,1914.4694,,24,24,,,,,,,,,,,,,,,,bars/044.png,bars/mask004.png,,,,,,,,,,,,0,2,,,,,,,6,10,5,10,,,,,,,,,,,1913.7196,1914.2195,1914.4694,1917.2694,space,2.7848,,1917.2694,51,49,1918.269,1918.269,1918.2785,,,,0,19,19,19,1,75,155,,,,,,,,
,,5f31ef83efc0c913389d6554,65af547abe6af047326a9893,2024-01-23_07h56.46.581,bars,2023.2.3,Win32,59.88023952,657b66ea316d21385b68909f,,,,,,,,,,,1918.2788,1919.2689,,,1919.7689,1920.0188,,128,128,,,,,,,,,,,,,,,,bars/042.png,bars/mask008.png,,,,,,,,,,,,3,1,,,,,,,8,10,7,8,,,,,,,,,,,1919.2689,1919.7689,1920.0188,1923.7684,space,3.7383,,1923.7684,17,53,1924.7682,1924.7682,1924.7784,,,,0,20,20,20,1,145,75,,,,,,,,
,,5f31ef83efc0c913389d6554,65af547abe6af047326a9893,2024-01-23_07h56.46.581,bars,2023.2.3,Win32,59.88023952,657b66ea316d21385b68909f,,,,,,,,,,,1924.7785,1925.7682,,,1926.2681,1926.5181,,49,49,,,,,,,,,,,,,,,,bars/031.png,bars/mask005.png,,,,,,,,,,,,4,2,,,,,,,6,8,5,8,,,,,,,,,,,1925.7682,1926.268,1926.5182,1927.9181,space,1.3845,,1927.9181,71,14,1928.9178,1928.9179,1928.9279,,,,0,21,21,21,1,120,35,,,,,,,,
,,5f31ef83efc0c913389d6554,65af547abe6af047326a9893,2024-01-23_07h56.46.581,bars,2023.2.3,Win32,59.88023952,657b66ea316d21385b68909f,,,,,,,,,,,1928.9281,1929.9177,,,1930.4175,1930.6676,,15,15,,,,,,,,,,,,,,,,bars/009.png,bars/mask005.png,,,,,,,,,,,,3,1,,,,,,,4,10,3,10,,,,,,,,,,,1929.9177,1930.4175,1930.6676,1934.0673,space,3.3869,,1934.0673,0,90,1935.0669,1935.067,1935.0767,,,,0,22,22,22,1,15,105,,,,,,,,
,,5f31ef83efc0c913389d6554,65af547abe6af047326a9893,2024-01-23_07h56.46.581,bars,2023.2.3,Win32,59.88023952,657b66ea316d21385b68909f,,,,,,,,,,,1935.0769,1936.0668,,,1936.5669,1936.8168,,179,179,,,,,,,,,,,,,,,,bars/007.png,bars/mask008.png,,,,,,,,,,,,2,1,,,,,,,2,10,2,10,,,,,,,,,,,1936.0669,1936.5668,1936.8168,1940.7,space,3.8649,,1940.7001,4,56,1941.6996,1941.6996,1941.7088,,,,0,23,23,23,1,175,55,,,,,,,,
,,5f31ef83efc0c913389d6554,65af547abe6af047326a9893,2024-01-23_07h56.46.581,bars,2023.2.3,Win32,59.88023952,657b66ea316d21385b68909f,,,,,,,,,,,1941.709,1942.6996,,,1943.1994,1943.4496,,149,149,,,,,,,,,,,,,,,,bars/010.png,bars/mask001.png,,,,,,,,,,,,0,1,,,,,,,0,8,0,8,,,,,,,,,,,1942.6997,1943.1993,1943.4496,1946.4158,space,2.95,,1946.4158,16,86,1947.4157,1947.4157,1947.4251,,,,0,24,24,24,1,165,55,,,,,,,,
,,5f31ef83efc0c913389d6554,65af547abe6af047326a9893,2024-01-23_07h56.46.581,bars,2023.2.3,Win32,59.88023952,657b66ea316d21385b68909f,,,,,,,,,,,1947.4253,1948.4155,,,1948.9155,1949.1657,,92,-88,,,,,,,,,,,,,,,,bars/001.png,bars/mask000.png,,,,,,,,,,,,3,2,,,,,,,2,6,3,4,,,,,,,,,,,1948.4156,1948.9154,1949.1657,1953.6985,space,4.521,,1953.6986,38,7,1954.6981,1954.6982,1954.7079,,,,0,25,25,25,1,130,85,,,,,,,,
,,5f31ef83efc0c913389d6554,65af547abe6af047326a9893,2024-01-23_07h56.46.581,bars,2023.2.3,Win32,59.88023952,657b66ea316d21385b68909f,,,,,,,,,,,1954.708,1955.6981,,,1956.1984,1956.448,,172,-8,,,,,,,,,,,,,,,,bars/012.png,bars/mask008.png,,,,,,,,,,,,1,2,,,,,,,0,8,0,6,,,,,,,,,,,1955.6981,1956.1983,1956.448,1961.1643,space,4.7027,,1961.1644,82,23,1962.1639,1962.164,1962.1729,,,,0,26,26,26,1,90,15,,,,,,,,
,,5f31ef83efc0c913389d6554,65af547abe6af047326a9893,2024-01-23_07h56.46.581,bars,2023.2.3,Win32,59.88023952,657b66ea316d21385b68909f,,,,,,,,,,,1962.1731,1963.1639,,,1963.6638,1963.9138,,45,225,,,,,,,,,,,,,,,,bars/013.png,bars/mask000.png,,,,,,,,,,,,0,1,,,,,,,2,10,4,9,,,,,,,,,,,1963.1639,1963.6638,1963.9139,1966.7804,space,2.8527,,1966.7804,30,35,1967.7801,1967.7801,1967.7898,,,,0,27,27,27,1,75,10,,,,,,,,
,,5f31ef83efc0c913389d6554,65af547abe6af047326a9893,2024-01-23_07h56.46.581,bars,2023.2.3,Win32,59.88023952,657b66ea316d21385b68909f,,,,,,,,,,,1967.79,1968.7798,,,1969.2799,1969.5298,,115,-65,,,,,,,,,,,,,,,,bars/044.png,bars/mask005.png,,,,,,,,,,,,0,2,,,,,,,0,8,0,9,,,,,,,,,,,1968.7799,1969.2798,1969.5298,1973.3799,space,3.8371,,1973.3799,40,40,1974.3795,1974.3796,1974.3891,,,,0,28,28,28,1,75,155,,,,,,,,
,,5f31ef83efc0c913389d6554,65af547abe6af047326a9893,2024-01-23_07h56.46.581,bars,2023.2.3,Win32,59.88023952,657b66ea316d21385b68909f,,,,,,,,,,,1974.3893,1975.3791,,,1975.8791,1976.1291,,41,41,,,,,,,,,,,,,,,,bars/005.png,bars/mask008.png,,,,,,,,,,,,0,1,,,,,,,0,10,0,10,,,,,,,,,,,1975.3791,1975.8791,1976.1292,1978.2958,space,2.1509,,1978.2958,31,81,1979.2955,1979.2955,1979.305,,,,0,29,29,29,1,10,140,,,,,,,,
,,5f31ef83efc0c913389d6554,65af547abe6af047326a9893,2024-01-23_07h56.46.581,bars,2023.2.3,Win32,59.88023952,657b66ea316d21385b68909f,,,,,,,,,,,1979.3052,1980.2952,,,1980.7954,1981.045,,74,74,,,,,,,,,,,,,,,,bars/046.png,bars/mask007.png,,,,,,,,,,,,6,2,,,,,,,2,8,0,9,,,,,,,,,,,1980.2953,1980.7953,1981.0451,1983.562,space,2.5054,,1983.5622,81,11,1984.5615,1984.5615,1984.5641,,,,0,30,30,30,1,155,85,,,,,,,,
,,5f31ef83efc0c913389d6554,65af547abe6af047326a9893,2024-01-23_07h56.46.581,bars,2023.2.3,Win32,59.88023952,657b66ea316d21385b68909f,,,,,,,,,,,1984.5646,1985.5613,,,1986.0613,1986.3112,,170,170,,,,,,,,,,,,,,,,bars/036.png,bars/mask002.png,,,,,,,,,,,,0,1,,,,,,,0,6,1,5,,,,,,,,,,,1985.5614,1986.0613,1986.3113,1988.7278,space,2.4004,,1988.7279,25,30,1989.7275,1989.7275,1989.7371,,,,0,31,31,31,1,145,20,,,,,,,,
,,5f31ef83efc0c913389d6554,65af547abe6af047326a9893,2024-01-23_07h56.46.581,bars,2023.2.3,Win32,59.88023952,657b66ea316d21385b68909f,,,,,,,,,,,1989.7372,1990.7271,,,1991.2273,1991.4772,,31,211,,,,,,,,,,,,,,,,bars/005.png,bars/mask008.png,,,,,,,,,,,,1,1,,,,,,,2,4,2,3,,,,,,,,,,,1990.7271,1991.2272,1991.4773,1993.9602,space,2.4735,,1993.9603,21,71,1994.9602,1994.9602,1994.9693,,,,0,32,32,32,1,10,140,,,,,,,,
,,5f31ef83efc0c913389d6554,65af547abe6af047326a9893,2024-01-23_07h56.46.581,bars,2023.2.3,Win32,59.88023952,657b66ea316d21385b68909f,,,,,,,,,,,1994.9693,1995.9601,,,1996.4601,1996.7102,,19,199,,,,,,,,,,,,,,,,bars/025.png,bars/mask005.png,,,,,,,,,,,,1,2,,,,,,,4,2,4,2,,,,,,,,,,,1995.9601,1996.4601,1996.7102,2002.5763,space,5.8497,,2002.5763,86,21,2003.5759,2003.5759,2003.587,,,,0,33,33,33,1,105,40,,,,,,,,
,,5f31ef83efc0c913389d6554,65af547abe6af047326a9893,2024-01-23_07h56.46.581,bars,2023.2.3,Win32,59.88023952,657b66ea316d21385b68909f,,,,,,,,,,,2003.5872,2004.5757,,,2005.0757,2005.3258,,98,98,,,,,,,,,,,,,,,,bars/039.png,bars/mask003.png,,,,,,,,,,,,1,2,,,,,,,6,0,5,1,,,,,,,,,,,2004.5758,2005.0757,2005.3258,2007.1256,space,1.7813,,2007.1257,77,7,2008.1254,2008.1254,2008.1263,,,,0,34,34,34,1,175,105,,,,,,,,
,,5f31ef83efc0c913389d6554,65af547abe6af047326a9893,2024-01-23_07h56.46.581,bars,2023.2.3,Win32,59.88023952,657b66ea316d21385b68909f,,,,,,,,,,,2008.1267,2009.1251,,,2009.6232,2009.8757,,155,155,,,,,,,,,,,,,,,,bars/016.png,bars/mask009.png,,,,,,,,,,,,3,2,,,,,,,4,2,2,4,,,,,,,,,,,2009.1251,2009.6232,2009.8759,2012.2339,space,2.3342,,2012.2339,65,10,2013.2246,2013.2246,2013.2339,,,,0,35,35,35,1,40,165,,,,,,,,
,,5f31ef83efc0c913389d6554,65af547abe6af047326a9893,2024-01-23_07h56.46.581,bars,2023.2.3,Win32,59.88023952,657b66ea316d21385b68909f,,,,,,,,,,,2013.2341,2014.2246,,,2014.7246,2014.9746,,110,110,,,,,,,,,,,,,,,,bars/000.png,bars/mask003.png,,,,,,,,,,,,0,2,,,,,,,2,4,2,4,,,,,,,,,,,2014.2246,2014.7246,2014.9746,2016.7245,space,1.7355,,2016.7246,70,35,2017.7243,2017.7244,2017.7336,,,,0,36,36,36,1,40,145,,,,,,,,
,,5f31ef83efc0c913389d6554,65af547abe6af047326a9893,2024-01-23_07h56.46.581,bars,2023.2.3,Win32,59.88023952,657b66ea316d21385b68909f,,,,,,,,,,,2017.7337,2018.7241,,,2019.2242,2019.4741,,131,131,,,,,,,,,,,,,,,,bars/008.png,bars/mask009.png,,,,,,,,,,,,1,1,,,,,,,4,2,4,3,,,,,,,,,,,2018.7242,2019.2242,2019.4742,2021.3911,space,1.9011,,2021.3912,21,49,2022.3903,2022.3903,2022.3928,,,,0,37,37,37,1,110,0,,,,,,,,
,,5f31ef83efc0c913389d6554,65af547abe6af047326a9893,2024-01-23_07h56.46.581,bars,2023.2.3,Win32,59.88023952,657b66ea316d21385b68909f,,,,,,,,,,,2022.3934,2023.3903,,,2023.8902,2024.1402,,167,-13,,,,,,,,,,,,,,,,bars/018.png,bars/mask007.png,,,,,,,,,,,,3,1,,,,,,,6,4,6,5,,,,,,,,,,,2023.3903,2023.8902,2024.1403,2026.8735,space,2.716,,2026.8736,17,77,2027.8733,2027.8734,2027.8822,,,,0,38,38,38,1,150,90,,,,,,,,
,,5f31ef83efc0c913389d6554,65af547abe6af047326a9893,2024-01-23_07h56.46.581,bars,2023.2.3,Win32,59.88023952,657b66ea316d21385b68909f,,,,,,,,,,,2027.8823,2028.8732,,,2029.3729,2029.6229,,162,-18,,,,,,,,,,,,,,,,bars/009.png,bars/mask001.png,,,,,,,,,,,,0,1,,,,,,,4,6,6,7,,,,,,,,,,,2028.8733,2029.3729,2029.6229,2033.3393,space,3.704,,2033.3393,33,57,2034.3391,2034.3391,2034.348,,,,0,39,39,39,1,15,105,,,,,,,,
,,5f31ef83efc0c913389d6554,65af547abe6af047326a9893,2024-01-23_07h56.46.581,bars,2023.2.3,Win32,59.88023952,657b66ea316d21385b68909f,,,,,,,,,,,2034.3482,2035.3389,,,2035.839,2036.0887,,35,215,,,,,,,,,,,,,,,,bars/014.png,bars/mask005.png,,,,,,,,,,,,0,2,,,,,,,6,4,7,4,,,,,,,,,,,2035.3389,2035.8389,2036.0888,2039.3219,space,3.2224,,2039.322,45,35,2040.3217,2040.3217,2040.3313,,,,0,40,40,40,1,80,0,,,,,,,,
,,5f31ef83efc0c913389d6554,65af547abe6af047326a9893,2024-01-23_07h56.46.581,bars,2023.2.3,Win32,59.88023952,657b66ea316d21385b68909f,,,,,,,,,,,2040.3315,2041.3215,,,2041.8216,2042.0714,,157,157,,,,,,,,,,,,,,,,bars/003.png,bars/mask003.png,,,,,,,,,,,,0,2,,,,,,,4,2,5,1,,,,,,,,,,,2041.3216,2041.8216,2042.0714,2043.3549,space,1.2747,,2043.3549,48,17,2044.3545,2044.3546,2044.3554,,,,0,41,41,41,1,25,140,,,,,,,,
,,5f31ef83efc0c913389d6554,65af547abe6af047326a9893,2024-01-23_07h56.46.581,bars,2023.2.3,Win32,59.88023952,657b66ea316d21385b68909f,,,,,,,,,,,2044.356,2045.3545,,,2045.8544,2046.1043,,71,71,,,,,,,,,,,,,,,,bars/025.png,bars/mask006.png,,,,,,,,,,,,0,2,,,,,,,2,4,3,4,,,,,,,,,,,2045.3545,2045.8544,2046.1044,2048.6876,space,2.5674,,2048.6876,34,31,2049.6873,2049.6873,2049.6963,,,,0,42,42,42,1,105,40,,,,,,,,
,,5f31ef83efc0c913389d6554,65af547abe6af047326a9893,2024-01-23_07h56.46.581,bars,2023.2.3,Win32,59.88023952,657b66ea316d21385b68909f,,,,,,,,,,,2049.6965,2050.687,,,2051.1872,2051.437,,52,232,,,,,,,,,,,,,,,,bars/047.png,bars/mask007.png,,,,,,,,,,,,0,2,,,,,,,4,2,5,1,,,,,,,,,,,2050.6871,2051.1872,2051.437,2054.7367,space,3.2842,,2054.7367,37,18,2055.7365,2055.7366,2055.7465,,,,0,43,43,43,1,15,70,,,,,,,,
,,5f31ef83efc0c913389d6554,65af547abe6af047326a9893,2024-01-23_07h56.46.581,bars,2023.2.3,Win32,59.88023952,657b66ea316d21385b68909f,,,,,,,,,,,2055.7467,2056.7364,,,2057.2364,2057.4863,,162,162,,,,,,,,,,,,,,,,bars/007.png,bars/mask004.png,,,,,,,,,,,,3,1,,,,,,,6,0,5,0,,,,,,,,,,,2056.7364,2057.2364,2057.4864,2059.8528,space,2.353,,2059.8528,13,73,2060.8527,2060.8527,2060.8682,,,,0,44,44,44,1,175,55,,,,,,,,
,,5f31ef83efc0c913389d6554,65af547abe6af047326a9893,2024-01-23_07h56.46.581,bars,2023.2.3,Win32,59.88023952,657b66ea316d21385b68909f,,,,,,,,,,,2060.8685,2061.869,,,2062.3691,2062.6192,,64,64,,,,,,,,,,,,,,,,bars/002.png,bars/mask007.png,,,,,,,,,,,,0,2,,,,,,,8,0,9,0,,,,,,,,,,,2061.8691,2062.3691,2062.6193,2065.6856,space,3.0476,,2065.6856,66,21,2066.6854,2066.6854,2066.6952,,,,0,45,45,45,1,130,85,,,,,,,,
,,5f31ef83efc0c913389d6554,65af547abe6af047326a9893,2024-01-23_07h56.46.581,bars,2023.2.3,Win32,59.88023952,657b66ea316d21385b68909f,,,,,,,,,,,2066.6954,2067.6853,,,2068.1852,2068.4352,,146,146,,,,,,,,,,,,,,,,bars/045.png,bars/mask009.png,,,,,,,,,,,,0,2,,,,,,,6,0,8,0,,,,,,,,,,,2067.6853,2068.1852,2068.4352,2076.318,space,7.864,,2076.318,46,44,2077.3174,2077.3174,2077.3271,,,,0,46,46,46,1,100,10,,,,,,,,
,,5f31ef83efc0c913389d6554,65af547abe6af047326a9893,2024-01-23_07h56.46.581,bars,2023.2.3,Win32,59.88023952,657b66ea316d21385b68909f,,,,,,,,,,,2077.3272,2078.3173,,,2078.8172,2079.0672,,157,157,,,,,,,,,,,,,,,,bars/015.png,bars/mask005.png,,,,,,,,,,,,3,2,,,,,,,8,2,8,3,,,,,,,,,,,2078.3174,2078.8172,2079.0672,2080.9838,space,1.8983,,2080.9838,47,3,2081.9835,2081.9835,2081.9926,,,,0,47,47,47,1,110,160,,,,,,,,
,,5f31ef83efc0c913389d6554,65af547abe6af047326a9893,2024-01-23_07h56.46.581,bars,2023.2.3,Win32,59.88023952,657b66ea316d21385b68909f,,,,,,,,,,,2081.9927,2082.9835,,,2083.4832,2083.7334,,29,29,,,,,,,,,,,,,,,,bars/033.png,bars/mask003.png,,,,,,,,,,,,9,1,,,,,,,10,4,10,3,,,,,,,,,,,2082.9835,2083.4832,2083.7335,2085.7833,space,2.0341,,2085.7833,4,54,2086.7828,2086.7829,2086.7858,,,,0,48,48,48,1,25,155,,,,,,,,
,,5f31ef83efc0c913389d6554,65af547abe6af047326a9893,2024-01-23_07h56.46.581,bars,2023.2.3,Win32,59.88023952,657b66ea316d21385b68909f,,,,,,,,,,,2086.7865,2087.7829,,,2088.2831,2088.5328,,53,53,,,,,,,,,,,,,,,,bars/029.png,bars/mask002.png,,,,,,,,,,,,1,2,,,,,,,10,2,10,2,,,,,,,,,,,2087.7829,2088.283,2088.5328,2093.1326,space,4.5809,,2093.1327,37,8,2094.1321,2094.1322,2094.142,,,,0,49,49,49,1,90,45,,,,,,,,
,,5f31ef83efc0c913389d6554,65af547abe6af047326a9893,2024-01-23_07h56.46.581,bars,2023.2.3,Win32,59.88023952,657b66ea316d21385b68909f,,,,,,,,,,,,,,,,,,,,,,,,,,,,,,,,,,,,,,,,,,,,,,,,,,,,,,,,,,,,,,,,,,,,,,,,,,,,,,,,,,,,,,,,,,,,,2094.1421,2154.1423,0,2,2,3,1,sequence_tables/blk046.csv
,,5f31ef83efc0c913389d6554,65af547abe6af047326a9893,2024-01-23_07h56.46.581,bars,2023.2.3,Win32,59.88023952,657b66ea316d21385b68909f,,,,,,,,,,,2216.6149,2217.6181,,,2218.1182,2218.368,,58,58,,,,,,,,,,,,,,,,bars/047.png,bars/mask000.png,,,,,,,,,,,,4,2,,,,,,,5,5,5,6,,,,,,2154.1516,2216.6016,space,62.4369,,2217.6181,2218.1181,2218.3681,2219.8846,space,1.5005,,2219.8847,43,12,2220.8847,2220.8847,2220.8938,,,,0,0,0,0,1,15,70,,,,,,,,
,,5f31ef83efc0c913389d6554,65af547abe6af047326a9893,2024-01-23_07h56.46.581,bars,2023.2.3,Win32,59.88023952,657b66ea316d21385b68909f,,,,,,,,,,,2220.8941,2221.8844,,,2222.3844,2222.6342,,12,12,,,,,,,,,,,,,,,,bars/008.png,bars/mask006.png,,,,,,,,,,,,2,2,,,,,,,3,3,1,3,,,,,,,,,,,2221.8845,2222.3843,2222.6342,2224.2675,space,1.6224,,2224.2675,82,12,2225.2672,2225.2672,2225.2768,,,,0,1,1,1,1,110,0,,,,,,,,
,,5f31ef83efc0c913389d6554,65af547abe6af047326a9893,2024-01-23_07h56.46.581,bars,2023.2.3,Win32,59.88023952,657b66ea316d21385b68909f,,,,,,,,,,,2225.277,2226.267,,,2226.767,2227.0171,,133,133,,,,,,,,,,,,,,,,bars/034.png,bars/mask007.png,,,,,,,,,,,,1,1,,,,,,,1,5,2,7,,,,,,,,,,,2226.2671,2226.767,2227.0171,2229.0167,space,1.984,,2229.0168,8,68,2230.0168,2230.0169,2230.0203,,,,0,2,2,2,1,125,65,,,,,,,,
,,5f31ef83efc0c913389d6554,65af547abe6af047326a9893,2024-01-23_07h56.46.581,bars,2023.2.3,Win32,59.88023952,657b66ea316d21385b68909f,,,,,,,,,,,2230.0208,2231.0164,,,2231.5165,2231.7664,,124,124,,,,,,,,,,,,,,,,bars/000.png,bars/mask008.png,,,,,,,,,,,,3,2,,,,,,,0,7,0,9,,,,,,,,,,,2231.0164,2231.5165,2231.7664,2235.0332,space,3.251,,2235.0332,84,21,2236.0326,2236.0326,2236.0465,,,,0,3,3,3,1,40,145,,,,,,,,
,,5f31ef83efc0c913389d6554,65af547abe6af047326a9893,2024-01-23_07h56.46.581,bars,2023.2.3,Win32,59.88023952,657b66ea316d21385b68909f,,,,,,,,,,,2236.0469,2237.0494,,,2237.5492,2237.7991,,30,30,,,,,,,,,,,,,,,,bars/041.png,bars/mask005.png,,,,,,,,,,,,1,1,,,,,,,0,5,2,4,,,,,,,,,,,2237.0495,2237.5491,2237.7992,2240.9989,space,3.1855,,2240.9991,10,55,2241.9985,2241.9986,2242.0084,,,,0,4,4,4,1,20,85,,,,,,,,
,,5f31ef83efc0c913389d6554,65af547abe6af047326a9893,2024-01-23_07h56.46.581,bars,2023.2.3,Win32,59.88023952,657b66ea316d21385b68909f,,,,,,,,,,,2242.0085,2242.9985,,,2243.4985,2243.7483,,42,42,,,,,,,,,,,,,,,,bars/022.png,bars/mask006.png,,,,,,,,,,,,2,2,,,,,,,2,7,3,8,,,,,,,,,,,2242.9985,2243.4985,2243.7484,2245.5483,space,1.7815,,2245.5483,53,22,2246.5479,2246.5479,2246.551,,,,0,5,5,5,1,95,20,,,,,,,,
,,5f31ef83efc0c913389d6554,65af547abe6af047326a9893,2024-01-23_07h56.46.581,bars,2023.2.3,Win32,59.88023952,657b66ea316d21385b68909f,,,,,,,,,,,2246.5516,2247.548,,,2248.048,2248.298,,16,196,,,,,,,,,,,,,,,,bars/041.png,bars/mask005.png,,,,,,,,,,,,3,1,,,,,,,4,9,4,10,,,,,,,,,,,2247.548,2248.0479,2248.298,2253.1143,space,4.7977,,2253.1143,4,69,2254.1138,2254.1138,2254.1236,,,,0,6,6,6,1,20,85,,,,,,,,
,,5f31ef83efc0c913389d6554,65af547abe6af047326a9893,2024-01-23_07h56.46.581,bars,2023.2.3,Win32,59.88023952,657b66ea316d21385b68909f,,,,,,,,,,,2254.1238,2255.1141,,,2255.6141,2255.864,,22,202,,,,,,,,,,,,,,,,bars/043.png,bars/mask003.png,,,,,,,,,,,,1,1,,,,,,,2,10,1,9,,,,,,,,,,,2255.1142,2255.614,2255.8642,2257.8223,space,1.9336,,2257.8223,8,72,2258.8141,2258.8141,2258.8231,,,,0,7,7,7,1,30,130,,,,,,,,
,,5f31ef83efc0c913389d6554,65af547abe6af047326a9893,2024-01-23_07h56.46.581,bars,2023.2.3,Win32,59.88023952,657b66ea316d21385b68909f,,,,,,,,,,,2258.8233,2259.8135,,,2260.305,2260.5471,,153,-27,,,,,,,,,,,,,,,,bars/013.png,bars/mask002.png,,,,,,,,,,,,0,2,,,,,,,4,8,2,8,,,,,,,,,,,2259.8136,2260.305,2260.5471,2264.8882,space,4.317,,2264.8882,78,37,2265.8794,2265.8796,2265.8895,,,,0,8,8,8,1,75,10,,,,,,,,
,,5f31ef83efc0c913389d6554,65af547abe6af047326a9893,2024-01-23_07h56.46.581,bars,2023.2.3,Win32,59.88023952,657b66ea316d21385b68909f,,,,,,,,,,,2265.8896,2266.8797,,,2267.3705,2267.6128,,54,234,,,,,,,,,,,,,,,,bars/045.png,bars/mask005.png,,,,,,,,,,,,0,2,,,,,,,6,6,7,7,,,,,,,,,,,2266.8798,2267.3704,2267.613,2274.3125,space,6.6669,,2274.3126,46,44,2275.3122,2275.3123,2275.3222,,,,0,9,9,9,1,100,10,,,,,,,,
,,5f31ef83efc0c913389d6554,65af547abe6af047326a9893,2024-01-23_07h56.46.581,bars,2023.2.3,Win32,59.88023952,657b66ea316d21385b68909f,,,,,,,,,,,2275.3224,2276.3116,,,2276.8118,2277.0616,,124,124,,,,,,,,,,,,,,,,bars/005.png,bars/mask000.png,,,,,,,,,,,,3,2,,,,,,,4,4,3,6,,,,,,,,,,,2276.3118,2276.8116,2277.0616,2279.6866,space,2.6004,,2279.6867,66,16,2280.6775,2280.6775,2280.6784,,,,0,10,10,10,1,10,140,,,,,,,,
,,5f31ef83efc0c913389d6554,65af547abe6af047326a9893,2024-01-23_07h56.46.581,bars,2023.2.3,Win32,59.88023952,657b66ea316d21385b68909f,,,,,,,,,,,2280.6787,2281.6774,,,2282.1785,2282.4273,,80,80,,,,,,,,,,,,,,,,bars/019.png,bars/mask004.png,,,,,,,,,,,,1,2,,,,,,,6,6,6,8,,,,,,,,,,,2281.6775,2282.1785,2282.4274,2283.9774,space,1.5342,,2283.9774,35,25,2284.977,2284.977,2284.9866,,,,0,11,11,11,1,45,105,,,,,,,,
,,5f31ef83efc0c913389d6554,65af547abe6af047326a9893,2024-01-23_07h56.46.581,bars,2023.2.3,Win32,59.88023952,657b66ea316d21385b68909f,,,,,,,,,,,2284.9868,2285.9769,,,2286.4769,2286.7268,,121,121,,,,,,,,,,,,,,,,bars/022.png,bars/mask006.png,,,,,,,,,,,,1,1,,,,,,,8,8,8,7,,,,,,,,,,,2285.9769,2286.4768,2286.7268,2289.9266,space,3.1853,,2289.9266,26,79,2290.9262,2290.9262,2290.9386,,,,0,12,12,12,1,95,20,,,,,,,,
,,5f31ef83efc0c913389d6554,65af547abe6af047326a9893,2024-01-23_07h56.46.581,bars,2023.2.3,Win32,59.88023952,657b66ea316d21385b68909f,,,,,,,,,,,2290.9388,2291.9429,,,2292.4429,2292.6927,,141,141,,,,,,,,,,,,,,,,bars/020.png,bars/mask000.png,,,,,,,,,,,,1,1,,,,,,,10,6,10,3,,,,,,,,,,,2291.9429,2292.4428,2292.6928,2294.7927,space,2.0845,,2294.7928,26,29,2295.7925,2295.7925,2295.8015,,,,0,13,13,13,1,115,170,,,,,,,,
,,5f31ef83efc0c913389d6554,65af547abe6af047326a9893,2024-01-23_07h56.46.581,bars,2023.2.3,Win32,59.88023952,657b66ea316d21385b68909f,,,,,,,,,,,2295.8016,2296.7923,,,2297.2925,2297.5423,,114,114,,,,,,,,,,,,,,,,bars/045.png,bars/mask003.png,,,,,,,,,,,,4,1,,,,,,,10,4,8,5,,,,,,,,,,,2296.7923,2297.2924,2297.5423,2299.609,space,2.0512,,2299.609,14,76,2300.6085,2300.6085,2300.6098,,,,0,14,14,14,1,100,10,,,,,,,,
,,5f31ef83efc0c913389d6554,65af547abe6af047326a9893,2024-01-23_07h56.46.581,bars,2023.2.3,Win32,59.88023952,657b66ea316d21385b68909f,,,,,,,,,,,2300.6104,2301.6084,,,2302.1084,2302.3583,,53,53,,,,,,,,,,,,,,,,bars/048.png,bars/mask002.png,,,,,,,,,,,,9,1,,,,,,,10,6,10,5,,,,,,,,,,,2301.6085,2302.1084,2302.3583,2304.358,space,1.9866,,2304.3581,3,58,2305.3579,2305.358,2305.367,,,,0,15,15,15,1,50,175,,,,,,,,
,,5f31ef83efc0c913389d6554,65af547abe6af047326a9893,2024-01-23_07h56.46.581,bars,2023.2.3,Win32,59.88023952,657b66ea316d21385b68909f,,,,,,,,,,,2305.3672,2306.3579,,,2306.8578,2307.1079,,63,63,,,,,,,,,,,,,,,,bars/025.png,bars/mask005.png,,,,,,,,,,,,2,2,,,,,,,10,8,10,9,,,,,,,,,,,2306.358,2306.8578,2307.1079,2309.4412,space,2.3169,,2309.4412,42,23,2310.4407,2310.4407,2310.4432,,,,0,16,16,16,1,105,40,,,,,,,,
,,5f31ef83efc0c913389d6554,65af547abe6af047326a9893,2024-01-23_07h56.46.581,bars,2023.2.3,Win32,59.88023952,657b66ea316d21385b68909f,,,,,,,,,,,2310.4437,2311.4406,,,2311.9406,2312.1906,,133,133,,,,,,,,,,,,,,,,bars/020.png,bars/mask000.png,,,,,,,,,,,,3,1,,,,,,,8,10,8,8,,,,,,,,,,,2311.4408,2311.9406,2312.1907,2314.0571,space,1.8479,,2314.0571,18,37,2315.0569,2315.0569,2315.0699,,,,0,17,17,17,1,115,170,,,,,,,,
,,5f31ef83efc0c913389d6554,65af547abe6af047326a9893,2024-01-23_07h56.46.581,bars,2023.2.3,Win32,59.88023952,657b66ea316d21385b68909f,,,,,,,,,,,2315.0701,2316.0734,,,2316.5734,2316.8234,,112,112,,,,,,,,,,,,,,,,bars/025.png,bars/mask000.png,,,,,,,,,,,,3,1,,,,,,,6,8,4,9,,,,,,,,,,,2316.0735,2316.5734,2316.8235,2318.4399,space,1.6018,,2318.44,7,72,2319.4396,2319.4396,2319.449,,,,0,18,18,18,1,105,40,,,,,,,,
,,5f31ef83efc0c913389d6554,65af547abe6af047326a9893,2024-01-23_07h56.46.581,bars,2023.2.3,Win32,59.88023952,657b66ea316d21385b68909f,,,,,,,,,,,2319.4491,2320.4395,,,2320.9397,2321.1895,,71,71,,,,,,,,,,,,,,,,bars/014.png,bars/mask008.png,,,,,,,,,,,,4,1,,,,,,,4,6,5,5,,,,,,,,,,,2320.4396,2320.9397,2321.1895,2323.2228,space,2.0146,,2323.2229,9,71,2324.2226,2324.2226,2324.2233,,,,0,19,19,19,1,80,0,,,,,,,,
,,5f31ef83efc0c913389d6554,65af547abe6af047326a9893,2024-01-23_07h56.46.581,bars,2023.2.3,Win32,59.88023952,657b66ea316d21385b68909f,,,,,,,,,,,2324.2237,2325.2225,,,2325.7223,2325.9722,,144,144,,,,,,,,,,,,,,,,bars/046.png,bars/mask004.png,,,,,,,,,,,,4,1,,,,,,,6,8,7,9,,,,,,,,,,,2325.2225,2325.7223,2325.9723,2329.572,space,3.5893,,2329.5721,11,59,2330.5718,2330.5719,2330.5812,,,,0,20,20,20,1,155,85,,,,,,,,
,,5f31ef83efc0c913389d6554,65af547abe6af047326a9893,2024-01-23_07h56.46.581,bars,2023.2.3,Win32,59.88023952,657b66ea316d21385b68909f,,,,,,,,,,,2330.5813,2331.5717,,,2332.0717,2332.3216,,58,58,,,,,,,,,,,,,,,,bars/039.png,bars/mask006.png,,,,,,,,,,,,0,2,,,,,,,4,10,5,10,,,,,,,,,,,2331.5717,2332.0717,2332.3216,2334.2215,space,1.8813,,2334.2215,63,47,2335.2213,2335.2213,2335.2315,,,,0,21,21,21,1,175,105,,,,,,,,
,,5f31ef83efc0c913389d6554,65af547abe6af047326a9893,2024-01-23_07h56.46.581,bars,2023.2.3,Win32,59.88023952,657b66ea316d21385b68909f,,,,,,,,,,,2335.2317,2336.2211,,,2336.7212,2336.9714,,124,-56,,,,,,,,,,,,,,,,bars/006.png,bars/mask000.png,,,,,,,,,,,,2,2,,,,,,,2,8,2,10,,,,,,,,,,,2336.2212,2336.7211,2336.9715,2340.6374,space,3.6501,,2340.6375,89,24,2341.6371,2341.6372,2341.6461,,,,0,22,22,22,1,35,100,,,,,,,,
,,5f31ef83efc0c913389d6554,65af547abe6af047326a9893,2024-01-23_07h56.46.581,bars,2023.2.3,Win32,59.88023952,657b66ea316d21385b68909f,,,,,,,,,,,2341.6463,2342.6371,,,2343.137,2343.3869,,115,115,,,,,,,,,,,,,,,,bars/037.png,bars/mask002.png,,,,,,,,,,,,4,2,,,,,,,0,6,0,6,,,,,,,,,,,2342.6372,2343.1369,2343.387,2345.8702,space,2.4706,,2345.8704,35,10,2346.8699,2346.8699,2346.8791,,,,0,23,23,23,1,150,105,,,,,,,,
,,5f31ef83efc0c913389d6554,65af547abe6af047326a9893,2024-01-23_07h56.46.581,bars,2023.2.3,Win32,59.88023952,657b66ea316d21385b68909f,,,,,,,,,,,2346.8792,2347.8697,,,2348.3698,2348.6199,,132,132,,,,,,,,,,,,,,,,bars/032.png,bars/mask003.png,,,,,,,,,,,,2,1,,,,,,,2,8,2,9,,,,,,,,,,,2347.8698,2348.3698,2348.6199,2351.3861,space,2.7502,,2351.3861,7,68,2352.3859,2352.3859,2352.3955,,,,0,24,24,24,1,125,20,,,,,,,,
,,5f31ef83efc0c913389d6554,65af547abe6af047326a9893,2024-01-23_07h56.46.581,bars,2023.2.3,Win32,59.88023952,657b66ea316d21385b68909f,,,,,,,,,,,2352.3958,2353.3858,,,2353.8857,2354.1357,,35,215,,,,,,,,,,,,,,,,bars/035.png,bars/mask003.png,,,,,,,,,,,,2,2,,,,,,,0,10,0,10,,,,,,,,,,,2353.3858,2353.8856,2354.1357,2359.302,space,5.1503,,2359.302,40,25,2360.3019,2360.302,2360.3116,,,,0,25,25,25,1,175,60,,,,,,,,
,,5f31ef83efc0c913389d6554,65af547abe6af047326a9893,2024-01-23_07h56.46.581,bars,2023.2.3,Win32,59.88023952,657b66ea316d21385b68909f,,,,,,,,,,,2360.3117,2361.3019,,,2361.8016,2362.0515,,168,-12,,,,,,,,,,,,,,,,bars/033.png,bars/mask008.png,,,,,,,,,,,,5,2,,,,,,,0,8,0,9,,,,,,,,,,,2361.302,2361.8016,2362.0515,2364.2181,space,2.1507,,2364.2182,37,13,2365.2176,2365.2177,2365.2267,,,,0,26,26,26,1,25,155,,,,,,,,
,,5f31ef83efc0c913389d6554,65af547abe6af047326a9893,2024-01-23_07h56.46.581,bars,2023.2.3,Win32,59.88023952,657b66ea316d21385b68909f,,,,,,,,,,,2365.2269,2366.2177,,,2366.7178,2366.9677,,140,-40,,,,,,,,,,,,,,,,bars/005.png,bars/mask003.png,,,,,,,,,,,,5,2,,,,,,,0,6,3,5,,,,,,,,,,,2366.2179,2366.7177,2366.9678,2370.1341,space,3.1542,,2370.1342,50,0,2371.1338,2371.1338,2371.1428,,,,0,27,27,27,1,10,140,,,,,,,,
,,5f31ef83efc0c913389d6554,65af547abe6af047326a9893,2024-01-23_07h56.46.581,bars,2023.2.3,Win32,59.88023952,657b66ea316d21385b68909f,,,,,,,,,,,2371.1429,2372.1337,,,2372.6337,2372.8837,,151,-29,,,,,,,,,,,,,,,,bars/030.png,bars/mask001.png,,,,,,,,,,,,1,1,,,,,,,0,8,1,8,,,,,,,,,,,2372.1337,2372.6336,2372.8838,2375.7667,space,2.8706,,2375.7668,11,86,2376.7664,2376.7664,2376.7765,,,,0,28,28,28,1,140,65,,,,,,,,
,,5f31ef83efc0c913389d6554,65af547abe6af047326a9893,2024-01-23_07h56.46.581,bars,2023.2.3,Win32,59.88023952,657b66ea316d21385b68909f,,,,,,,,,,,2376.7767,2377.7662,,,2378.2662,2378.5162,,30,30,,,,,,,,,,,,,,,,bars/023.png,bars/mask005.png,,,,,,,,,,,,1,1,,,,,,,0,6,2,8,,,,,,,,,,,2377.7663,2378.2662,2378.5162,2381.9163,space,3.3839,,2381.9163,10,85,2382.916,2382.9161,2382.9247,,,,0,29,29,29,1,20,115,,,,,,,,
,,5f31ef83efc0c913389d6554,65af547abe6af047326a9893,2024-01-23_07h56.46.581,bars,2023.2.3,Win32,59.88023952,657b66ea316d21385b68909f,,,,,,,,,,,2382.9249,2383.9157,,,2384.4158,2384.6656,,167,167,,,,,,,,,,,,,,,,bars/025.png,bars/mask007.png,,,,,,,,,,,,0,2,,,,,,,0,8,0,7,,,,,,,,,,,2383.9157,2384.4158,2384.6656,2385.9657,space,1.2819,,2385.9658,62,53,2386.9654,2386.9654,2386.9756,,,,0,30,30,30,1,105,40,,,,,,,,
,,5f31ef83efc0c913389d6554,65af547abe6af047326a9893,2024-01-23_07h56.46.581,bars,2023.2.3,Win32,59.88023952,657b66ea316d21385b68909f,,,,,,,,,,,2386.9757,2387.9652,,,2388.4654,2388.7152,,149,-31,,,,,,,,,,,,,,,,bars/038.png,bars/mask002.png,,,,,,,,,,,,0,1,,,,,,,2,10,0,10,,,,,,,,,,,2387.9652,2388.4653,2388.7152,2391.6153,space,2.8811,,2391.6154,16,79,2392.6148,2392.6148,2392.6245,,,,0,31,31,31,1,165,70,,,,,,,,
,,5f31ef83efc0c913389d6554,65af547abe6af047326a9893,2024-01-23_07h56.46.581,bars,2023.2.3,Win32,59.88023952,657b66ea316d21385b68909f,,,,,,,,,,,2392.6246,2393.6145,,,2394.1146,2394.3645,,73,73,,,,,,,,,,,,,,,,bars/002.png,bars/mask009.png,,,,,,,,,,,,5,2,,,,,,,4,10,5,9,,,,,,,,,,,2393.6145,2394.1146,2394.3645,2397.881,space,3.4979,,2397.881,57,12,2398.8807,2398.8807,2398.8904,,,,0,32,32,32,1,130,85,,,,,,,,
,,5f31ef83efc0c913389d6554,65af547abe6af047326a9893,2024-01-23_07h56.46.581,bars,2023.2.3,Win32,59.88023952,657b66ea316d21385b68909f,,,,,,,,,,,2398.8906,2399.8805,,,2400.3805,2400.6305,,6,6,,,,,,,,,,,,,,,,bars/047.png,bars/mask001.png,,,,,,,,,,,,5,1,,,,,,,6,8,7,8,,,,,,,,,,,2399.8805,2400.3804,2400.6305,2403.3803,space,2.7424,,2403.3804,9,64,2404.38,2404.38,2404.3928,,,,0,33,33,33,1,15,70,,,,,,,,
,,5f31ef83efc0c913389d6554,65af547abe6af047326a9893,2024-01-23_07h56.46.581,bars,2023.2.3,Win32,59.88023952,657b66ea316d21385b68909f,,,,,,,,,,,2404.393,2405.3964,,,2405.8966,2406.1464,,164,-16,,,,,,,,,,,,,,,,bars/023.png,bars/mask002.png,,,,,,,,,,,,0,1,,,,,,,4,6,4,7,,,,,,,,,,,2405.3965,2405.8966,2406.1465,2407.7963,space,1.6397,,2407.7964,36,49,2408.7961,2408.7961,2408.797,,,,0,34,34,34,1,20,115,,,,,,,,
,,5f31ef83efc0c913389d6554,65af547abe6af047326a9893,2024-01-23_07h56.46.581,bars,2023.2.3,Win32,59.88023952,657b66ea316d21385b68909f,,,,,,,,,,,2408.7975,2409.7962,,,2410.2961,2410.5459,,71,71,,,,,,,,,,,,,,,,bars/039.png,bars/mask000.png,,,,,,,,,,,,0,2,,,,,,,6,8,6,7,,,,,,,,,,,2409.7962,2410.2961,2410.5459,2413.8458,space,3.2881,,2413.8458,76,34,2414.8457,2414.8458,2414.8552,,,,0,35,35,35,1,175,105,,,,,,,,
,,5f31ef83efc0c913389d6554,65af547abe6af047326a9893,2024-01-23_07h56.46.581,bars,2023.2.3,Win32,59.88023952,657b66ea316d21385b68909f,,,,,,,,,,,2414.8553,2415.8456,,,2416.3454,2416.5954,,65,65,,,,,,,,,,,,,,,,bars/006.png,bars/mask008.png,,,,,,,,,,,,0,1,,,,,,,8,10,7,9,,,,,,,,,,,2415.8456,2416.3454,2416.5954,2421.0616,space,4.4549,,2421.0616,30,35,2422.0613,2422.0614,2422.0713,,,,0,36,36,36,1,35,100,,,,,,,,
,,5f31ef83efc0c913389d6554,65af547abe6af047326a9893,2024-01-23_07h56.46.581,bars,2023.2.3,Win32,59.88023952,657b66ea316d21385b68909f,,,,,,,,,,,2422.0714,2423.0612,,,2423.5612,2423.8112,,164,164,,,,,,,,,,,,,,,,bars/033.png,bars/mask006.png,,,,,,,,,,,,7,2,,,,,,,10,10,9,10,,,,,,,,,,,2423.0612,2423.5612,2423.8112,2425.5612,space,1.735,,2425.5612,41,9,2426.5608,2426.5608,2426.5634,,,,0,37,37,37,1,25,155,,,,,,,,
,,5f31ef83efc0c913389d6554,65af547abe6af047326a9893,2024-01-23_07h56.46.581,bars,2023.2.3,Win32,59.88023952,657b66ea316d21385b68909f,,,,,,,,,,,2426.564,2427.5606,,,2428.0605,2428.3106,,115,-65,,,,,,,,,,,,,,,,bars/000.png,bars/mask005.png,,,,,,,,,,,,0,2,,,,,,,10,8,10,8,,,,,,,,,,,2427.5606,2428.0605,2428.3107,2436.21,space,7.8837,,2436.21,75,30,2437.2095,2437.2095,2437.2191,,,,0,38,38,38,1,40,145,,,,,,,,
,,5f31ef83efc0c913389d6554,65af547abe6af047326a9893,2024-01-23_07h56.46.581,bars,2023.2.3,Win32,59.88023952,657b66ea316d21385b68909f,,,,,,,,,,,2437.2193,2438.2095,,,2438.7095,2438.9594,,35,35,,,,,,,,,,,,,,,,bars/014.png,bars/mask005.png,,,,,,,,,,,,0,2,,,,,,,10,10,10,9,,,,,,,,,,,2438.2096,2438.7094,2438.9594,2440.626,space,1.6508,,2440.626,45,35,2441.6258,2441.6259,2441.6347,,,,0,39,39,39,1,80,0,,,,,,,,
,,5f31ef83efc0c913389d6554,65af547abe6af047326a9893,2024-01-23_07h56.46.581,bars,2023.2.3,Win32,59.88023952,657b66ea316d21385b68909f,,,,,,,,,,,2441.6349,2442.6257,,,2443.1256,2443.3755,,127,127,,,,,,,,,,,,,,,,bars/046.png,bars/mask002.png,,,,,,,,,,,,1,1,,,,,,,10,8,9,8,,,,,,,,,,,2442.6257,2443.1256,2443.3756,2447.3085,space,3.9227,,2447.3086,28,42,2448.3083,2448.3083,2448.3184,,,,0,40,40,40,1,155,85,,,,,,,,
,,5f31ef83efc0c913389d6554,65af547abe6af047326a9893,2024-01-23_07h56.46.581,bars,2023.2.3,Win32,59.88023952,657b66ea316d21385b68909f,,,,,,,,,,,2448.3185,2449.3082,,,2449.8083,2450.0581,,170,170,,,,,,,,,,,,,,,,bars/048.png,bars/mask000.png,,,,,,,,,,,,6,2,,,,,,,8,6,7,7,,,,,,,,,,,2449.3083,2449.8083,2450.0582,2451.5581,space,1.4883,,2451.5582,60,5,2452.5578,2452.5578,2452.5603,,,,0,41,41,41,1,50,175,,,,,,,,
,,5f31ef83efc0c913389d6554,65af547abe6af047326a9893,2024-01-23_07h56.46.581,bars,2023.2.3,Win32,59.88023952,657b66ea316d21385b68909f,,,,,,,,,,,2452.5607,2453.5578,,,2454.0576,2454.308,,161,161,,,,,,,,,,,,,,,,bars/018.png,bars/mask007.png,,,,,,,,,,,,6,1,,,,,,,10,4,10,3,,,,,,,,,,,2453.5578,2454.0576,2454.308,2455.7576,space,1.4315,,2455.7576,11,71,2456.7573,2456.7573,2456.7602,,,,0,42,42,42,1,150,90,,,,,,,,
,,5f31ef83efc0c913389d6554,65af547abe6af047326a9893,2024-01-23_07h56.46.581,bars,2023.2.3,Win32,59.88023952,657b66ea316d21385b68909f,,,,,,,,,,,2456.7608,2457.7573,,,2458.2572,2458.5071,,38,38,,,,,,,,,,,,,,,,bars/025.png,bars/mask004.png,,,,,,,,,,,,6,2,,,,,,,10,6,10,6,,,,,,,,,,,2457.7573,2458.2572,2458.5072,2460.7071,space,2.1837,,2460.7071,67,2,2461.7066,2461.7066,2461.717,,,,0,43,43,43,1,105,40,,,,,,,,
,,5f31ef83efc0c913389d6554,65af547abe6af047326a9893,2024-01-23_07h56.46.581,bars,2023.2.3,Win32,59.88023952,657b66ea316d21385b68909f,,,,,,,,,,,2461.7172,2462.7066,,,2463.2065,2463.4566,,139,-41,,,,,,,,,,,,,,,,bars/016.png,bars/mask003.png,,,,,,,,,,,,1,2,,,,,,,10,4,9,5,,,,,,,,,,,2462.7066,2463.2065,2463.4566,2468.0061,space,4.5312,,2468.0061,81,26,2469.0059,2469.0059,2469.0149,,,,0,44,44,44,1,40,165,,,,,,,,
,,5f31ef83efc0c913389d6554,65af547abe6af047326a9893,2024-01-23_07h56.46.581,bars,2023.2.3,Win32,59.88023952,657b66ea316d21385b68909f,,,,,,,,,,,2469.015,2470.0058,,,2470.5058,2470.7558,,19,199,,,,,,,,,,,,,,,,bars/007.png,bars/mask005.png,,,,,,,,,,,,1,1,,,,,,,8,2,7,0,,,,,,,,,,,2470.0058,2470.5058,2470.7559,2472.9724,space,2.2004,,2472.9724,24,36,2473.9722,2473.9722,2473.9821,,,,0,45,45,45,1,175,55,,,,,,,,
,,5f31ef83efc0c913389d6554,65af547abe6af047326a9893,2024-01-23_07h56.46.581,bars,2023.2.3,Win32,59.88023952,657b66ea316d21385b68909f,,,,,,,,,,,2473.9823,2474.9719,,,2475.4719,2475.7219,,112,112,,,,,,,,,,,,,,,,bars/037.png,bars/mask006.png,,,,,,,,,,,,3,2,,,,,,,6,4,4,4,,,,,,,,,,,2474.972,2475.4719,2475.7219,2478.005,space,2.2655,,2478.0051,38,7,2479.0049,2479.005,2479.0078,,,,0,46,46,46,1,150,105,,,,,,,,
,,5f31ef83efc0c913389d6554,65af547abe6af047326a9893,2024-01-23_07h56.46.581,bars,2023.2.3,Win32,59.88023952,657b66ea316d21385b68909f,,,,,,,,,,,2479.0085,2480.0046,,,2480.5049,2480.7546,,46,46,,,,,,,,,,,,,,,,bars/030.png,bars/mask006.png,,,,,,,,,,,,0,2,,,,,,,8,2,9,1,,,,,,,,,,,2480.0047,2480.5048,2480.7546,2482.6379,space,1.8648,,2482.6379,86,19,2483.6376,2483.6376,2483.6467,,,,0,47,47,47,1,140,65,,,,,,,,
,,5f31ef83efc0c913389d6554,65af547abe6af047326a9893,2024-01-23_07h56.46.581,bars,2023.2.3,Win32,59.88023952,657b66ea316d21385b68909f,,,,,,,,,,,2483.6469,2484.6374,,,2485.1376,2485.3874,,153,153,,,,,,,,,,,,,,,,bars/049.png,bars/mask007.png,,,,,,,,,,,,8,1,,,,,,,10,0,10,0,,,,,,,,,,,2484.6374,2485.1375,2485.3874,2486.6875,space,1.2872,,2486.6876,7,38,2487.6871,2487.6871,2487.6968,,,,0,48,48,48,1,160,115,,,,,,,,
,,5f31ef83efc0c913389d6554,65af547abe6af047326a9893,2024-01-23_07h56.46.581,bars,2023.2.3,Win32,59.88023952,657b66ea316d21385b68909f,,,,,,,,,,,2487.6969,2488.687,,,2489.187,2489.4368,,47,227,,,,,,,,,,,,,,,,bars/031.png,bars/mask005.png,,,,,,,,,,,,2,2,,,,,,,10,2,10,3,,,,,,,,,,,2488.687,2489.187,2489.4368,2492.4366,space,2.9831,,2492.4366,73,12,2493.4364,2493.4366,2493.4467,,,,0,49,49,49,1,120,35,,,,,,,,
,,5f31ef83efc0c913389d6554,65af547abe6af047326a9893,2024-01-23_07h56.46.581,bars,2023.2.3,Win32,59.88023952,657b66ea316d21385b68909f,,,,,,,,,,,,,,,,,,,,,,,,,,,,,,,,,,,,,,,,,,,,,,,,,,,,,,,,,,,,,,,,,,,,,,,,,,,,,,,,,,,,,,,,,,,,,2493.4468,2553.4463,0,3,3,2,1,sequence_tables/blk024.csv
,,5f31ef83efc0c913389d6554,65af547abe6af047326a9893,2024-01-23_07h56.46.581,bars,2023.2.3,Win32,59.88023952,657b66ea316d21385b68909f,,,,,,,,,,,2656.5806,2657.5844,,,2658.0843,2658.3345,,131,131,,,,,,,,,,,,,,,,bars/030.png,bars/mask007.png,,,,,,,,,,,,3,1,,,,,,,3,6,4,4,,,,,,2553.4559,2656.568,space,103.0965,,2657.5845,2658.0843,2658.3347,2660.7841,space,2.4376,,2660.7842,9,66,2661.784,2661.784,2661.7941,,,,0,0,0,0,1,140,65,,,,,,,,
,,5f31ef83efc0c913389d6554,65af547abe6af047326a9893,2024-01-23_07h56.46.581,bars,2023.2.3,Win32,59.88023952,657b66ea316d21385b68909f,,,,,,,,,,,2661.7942,2662.7837,,,2663.2839,2663.5337,,141,141,,,,,,,,,,,,,,,,bars/034.png,bars/mask005.png,,,,,,,,,,,,0,1,,,,,,,1,4,1,2,,,,,,,,,,,2662.7838,2663.2839,2663.5337,2668.4666,space,4.9181,,2668.4667,16,76,2669.4662,2669.4663,2669.4785,,,,0,1,1,1,1,125,65,,,,,,,,
,,5f31ef83efc0c913389d6554,65af547abe6af047326a9893,2024-01-23_07h56.46.581,bars,2023.2.3,Win32,59.88023952,657b66ea316d21385b68909f,,,,,,,,,,,2669.4787,2670.483,,,2670.9827,2671.2327,,32,32,,,,,,,,,,,,,,,,bars/039.png,bars/mask003.png,,,,,,,,,,,,0,1,,,,,,,0,2,0,3,,,,,,,,,,,2670.4831,2670.9827,2671.2327,2673.5992,space,2.3483,,2673.5993,37,73,2674.5991,2674.5992,2674.6082,,,,0,2,2,2,1,175,105,,,,,,,,
,,5f31ef83efc0c913389d6554,65af547abe6af047326a9893,2024-01-23_07h56.46.581,bars,2023.2.3,Win32,59.88023952,657b66ea316d21385b68909f,,,,,,,,,,,2674.6083,2675.599,,,2676.099,2676.3488,,133,133,,,,,,,,,,,,,,,,bars/012.png,bars/mask001.png,,,,,,,,,,,,0,1,,,,,,,2,0,1,1,,,,,,,,,,,2675.599,2676.099,2676.3488,2679.3655,space,3.0074,,2679.3656,43,62,2680.3651,2680.3652,2680.3741,,,,0,3,3,3,1,90,15,,,,,,,,
,,5f31ef83efc0c913389d6554,65af547abe6af047326a9893,2024-01-23_07h56.46.581,bars,2023.2.3,Win32,59.88023952,657b66ea316d21385b68909f,,,,,,,,,,,2680.3742,2681.3651,,,2681.8651,2682.115,,157,157,,,,,,,,,,,,,,,,bars/048.png,bars/mask001.png,,,,,,,,,,,,0,2,,,,,,,0,0,0,1,,,,,,,,,,,2681.3651,2681.8651,2682.115,2683.5983,space,1.4662,,2683.5983,73,18,2684.5979,2684.598,2684.6079,,,,0,4,4,4,1,50,175,,,,,,,,
,,5f31ef83efc0c913389d6554,65af547abe6af047326a9893,2024-01-23_07h56.46.581,bars,2023.2.3,Win32,59.88023952,657b66ea316d21385b68909f,,,,,,,,,,,2684.6081,2685.5978,,,2686.0978,2686.3477,,141,141,,,,,,,,,,,,,,,,bars/037.png,bars/mask005.png,,,,,,,,,,,,0,1,,,,,,,0,0,0,0,,,,,,,,,,,2685.5978,2686.0978,2686.3477,2688.5976,space,2.231,,2688.5977,9,36,2689.5973,2689.5973,2689.6071,,,,0,5,5,5,1,150,105,,,,,,,,
,,5f31ef83efc0c913389d6554,65af547abe6af047326a9893,2024-01-23_07h56.46.581,bars,2023.2.3,Win32,59.88023952,657b66ea316d21385b68909f,,,,,,,,,,,2689.6072,2690.5971,,,2691.0971,2691.347,,129,129,,,,,,,,,,,,,,,,bars/020.png,bars/mask007.png,,,,,,,,,,,,1,1,,,,,,,0,2,2,3,,,,,,,,,,,2690.5971,2691.0971,2691.347,2694.4468,space,3.089,,2694.4469,14,41,2695.4466,2695.4466,2695.4556,,,,0,6,6,6,1,115,170,,,,,,,,
,,5f31ef83efc0c913389d6554,65af547abe6af047326a9893,2024-01-23_07h56.46.581,bars,2023.2.3,Win32,59.88023952,657b66ea316d21385b68909f,,,,,,,,,,,2695.4558,2696.4465,,,2696.9465,2697.1963,,39,39,,,,,,,,,,,,,,,,bars/010.png,bars/mask006.png,,,,,,,,,,,,0,2,,,,,,,2,0,1,0,,,,,,,,,,,2696.4465,2696.9464,2697.1963,2699.3631,space,2.1478,,2699.3631,54,16,2700.3627,2700.3629,2700.3653,,,,0,7,7,7,1,165,55,,,,,,,,
,,5f31ef83efc0c913389d6554,65af547abe6af047326a9893,2024-01-23_07h56.46.581,bars,2023.2.3,Win32,59.88023952,657b66ea316d21385b68909f,,,,,,,,,,,2700.3659,2701.3626,,,2701.8626,2702.1126,,125,-55,,,,,,,,,,,,,,,,bars/037.png,bars/mask000.png,,,,,,,,,,,,0,2,,,,,,,4,2,4,1,,,,,,,,,,,2701.3626,2701.8626,2702.1126,2705.479,space,3.3487,,2705.479,25,20,2706.4788,2706.4788,2706.4877,,,,0,8,8,8,1,150,105,,,,,,,,
,,5f31ef83efc0c913389d6554,65af547abe6af047326a9893,2024-01-23_07h56.46.581,bars,2023.2.3,Win32,59.88023952,657b66ea316d21385b68909f,,,,,,,,,,,2706.4879,2707.4786,,,2707.9786,2708.2284,,134,134,,,,,,,,,,,,,,,,bars/034.png,bars/mask003.png,,,,,,,,,,,,1,1,,,,,,,2,0,2,0,,,,,,,,,,,2707.4787,2707.9786,2708.2284,2710.5952,space,2.3481,,2710.5952,9,69,2711.5949,2711.595,2711.6047,,,,0,9,9,9,1,125,65,,,,,,,,
,,5f31ef83efc0c913389d6554,65af547abe6af047326a9893,2024-01-23_07h56.46.581,bars,2023.2.3,Win32,59.88023952,657b66ea316d21385b68909f,,,,,,,,,,,2711.6049,2712.5945,,,2713.0947,2713.3446,,34,34,,,,,,,,,,,,,,,,bars/017.png,bars/mask008.png,,,,,,,,,,,,0,2,,,,,,,4,0,4,0,,,,,,,,,,,2712.5946,2713.0946,2713.3446,2716.1111,space,2.7491,,2716.1112,69,11,2717.1109,2717.1109,2717.1207,,,,0,10,10,10,1,145,45,,,,,,,,
