init_variables.started,init_variables.stopped,participant,session,date,expName,psychopyVersion,OS,frameRate,study_id,instruction_exp.started,instruction_exp.stopped,key_resp_8.keys,key_resp_8.rt,key_resp_8.duration,instruction_single.started,instruction_single.stopped,key_resp_2.keys,key_resp_2.rt,key_resp_2.duration,interval.started,interval.stopped,cue_single.started,cue_single.stopped,mask.started,mask.stopped,ori_response_single.started,res_ori,res,ori_response_single.stopped,key_resp_single.keys,key_resp_single.rt,key_resp_single.duration,disp_single.started,disp_single.stopped,key_resp.keys,key_resp.rt,key_resp.duration,single.thisRepN,single.thisTrialN,single.thisN,single.thisIndex,single.ran,ori,path,mask_path,instruction_bandit.started,instruction_bandit.stopped,key_resp_6.keys,key_resp_6.rt,key_resp_6.duration,cue_bandit.started,cue_bandit.stopped,bandit_res.keys,bandit_res.rt,bandit_res.duration,outcome_bandit.started,rew,action,outcome_bandit.stopped,bandit.thisRepN,bandit.thisTrialN,bandit.thisN,bandit.thisIndex,bandit.ran,actual_rew1,actual_rew2,rew1,rew2,instruction_task.started,instruction_task.stopped,key_resp_7.keys,key_resp_7.rt,key_resp_7.duration,wait_ready.started,wait_ready.stopped,key_resp_3.keys,key_resp_3.rt,key_resp_3.duration,cue.started,cue.stopped,ori_response.started,ori_response.stopped,key_resp_5.keys,key_resp_5.rt,key_resp_5.duration,outcome.started,diff1,diff2,outcome.stopped,disp_outcome_practice.started,disp_outcome_practice.stopped,key_resp_4.keys,key_resp_4.rt,key_resp_4.duration,trials.thisRepN,trials.thisTrialN,trials.thisN,trials.thisIndex,trials.ran,ori1,ori2,break_blk.started,break_blk.stopped,block.thisRepN,block.thisTrialN,block.thisN,block.thisIndex,block.ran,condition_file
0.0005,0.0006,65961aa9477c6a68a5019b23,65af55e68504a42db6af7fb8,2024-01-23_14h01.23.499,bars,2023.2.3,MacIntel,60.60606061,657b66ea316d21385b68909f,,,,,,,,,,,,,,,,,,,,,,,,,,,,,,,,,,,,,,,,,,,,,,,,,,,,,,,,,,,,,,,,,,,,,,,,,,,,,,,,,,,,,,,,,,,,,,,,,,,,
,,65961aa9477c6a68a5019b23,65af55e68504a42db6af7fb8,2024-01-23_14h01.23.499,bars,2023.2.3,MacIntel,60.60606061,657b66ea316d21385b68909f,0.0006,60.7671,y,60.7421,,,,,,,,,,,,,,,,,,,,,,,,,,,,,,,,,,,,,,,,,,,,,,,,,,,,,,,,,,,,,,,,,,,,,,,,,,,,,,,,,,,,,,,,,,,,,,,,
,,65961aa9477c6a68a5019b23,65af55e68504a42db6af7fb8,2024-01-23_14h01.23.499,bars,2023.2.3,MacIntel,60.60606061,657b66ea316d21385b68909f,,,,,,60.7673,279.3695,space,218.5888,,,,,,,,,,,,,,,,,,,,,,,,,,,,,,,,,,,,,,,,,,,,,,,,,,,,,,,,,,,,,,,,,,,,,,,,,,,,,,,,,,,,,,,,,,,
,,65961aa9477c6a68a5019b23,65af55e68504a42db6af7fb8,2024-01-23_14h01.23.499,bars,2023.2.3,MacIntel,60.60606061,657b66ea316d21385b68909f,,,,,,,,,,,279.3752,280.3717,280.3719,280.869,280.8692,281.1212,281.1214,61,61,287.5032,space,6.3544,,287.5033,300.7206,space,13.1832,,0,0,0,5,1,55,bars/single005.png,bars/mask008.png,,,,,,,,,,,,,,,,,,,,,,,,,,,,,,,,,,,,,,,,,,,,,,,,,,,,,,,,,,,,,,,,
,,65961aa9477c6a68a5019b23,65af55e68504a42db6af7fb8,2024-01-23_14h01.23.499,bars,2023.2.3,MacIntel,60.60606061,657b66ea316d21385b68909f,,,,,,,,,,,300.7329,301.7362,301.7364,302.2386,302.2386,302.4718,302.4718,158,158,307.1879,space,4.7084,,307.188,311.4886,space,4.2795,,0,1,1,9,1,20,bars/single009.png,bars/mask006.png,,,,,,,,,,,,,,,,,,,,,,,,,,,,,,,,,,,,,,,,,,,,,,,,,,,,,,,,,,,,,,,,
,,65961aa9477c6a68a5019b23,65af55e68504a42db6af7fb8,2024-01-23_14h01.23.499,bars,2023.2.3,MacIntel,60.60606061,657b66ea316d21385b68909f,,,,,,,,,,,311.4987,312.4888,312.4888,312.9853,312.9854,313.2356,313.2356,169,169,319.4555,space,6.2099,,319.4555,323.319,space,3.8493,,0,2,2,6,1,175,bars/single006.png,bars/mask005.png,,,,,,,,,,,,,,,,,,,,,,,,,,,,,,,,,,,,,,,,,,,,,,,,,,,,,,,,,,,,,,,,
,,65961aa9477c6a68a5019b23,65af55e68504a42db6af7fb8,2024-01-23_14h01.23.499,bars,2023.2.3,MacIntel,60.60606061,657b66ea316d21385b68909f,,,,,,,,,,,323.3304,324.3206,324.3207,324.82,324.82,325.0732,325.0733,151,151,327.1551,space,2.0663,,327.1551,329.7883,space,2.6202,,0,3,3,0,1,150,bars/single000.png,bars/mask006.png,,,,,,,,,,,,,,,,,,,,,,,,,,,,,,,,,,,,,,,,,,,,,,,,,,,,,,,,,,,,,,,,
,,65961aa9477c6a68a5019b23,65af55e68504a42db6af7fb8,2024-01-23_14h01.23.499,bars,2023.2.3,MacIntel,60.60606061,657b66ea316d21385b68909f,,,,,,,,,,,329.7887,330.7876,330.7877,331.2872,331.2873,331.538,331.5381,38,38,334.2545,space,2.701,,334.2545,336.2551,space,1.9835,,0,4,4,3,1,20,bars/single003.png,bars/mask005.png,,,,,,,,,,,,,,,,,,,,,,,,,,,,,,,,,,,,,,,,,,,,,,,,,,,,,,,,,,,,,,,,
,,65961aa9477c6a68a5019b23,65af55e68504a42db6af7fb8,2024-01-23_14h01.23.499,bars,2023.2.3,MacIntel,60.60606061,657b66ea316d21385b68909f,,,,,,,,,,,336.2556,337.2543,337.2543,337.7519,337.7519,338.0057,338.0057,119,119,342.7219,space,4.7001,,342.722,343.8898,space,1.1409,,0,5,5,8,1,160,bars/single008.png,bars/mask004.png,,,,,,,,,,,,,,,,,,,,,,,,,,,,,,,,,,,,,,,,,,,,,,,,,,,,,,,,,,,,,,,,
,,65961aa9477c6a68a5019b23,65af55e68504a42db6af7fb8,2024-01-23_14h01.23.499,bars,2023.2.3,MacIntel,60.60606061,657b66ea316d21385b68909f,,,,,,,,,,,343.8904,344.8879,344.888,345.3896,345.3896,345.6389,345.6389,179,-1,347.2885,space,1.64,,347.2885,348.6373,space,1.3352,,0,6,6,1,1,20,bars/single001.png,bars/mask006.png,,,,,,,,,,,,,,,,,,,,,,,,,,,,,,,,,,,,,,,,,,,,,,,,,,,,,,,,,,,,,,,,
,,65961aa9477c6a68a5019b23,65af55e68504a42db6af7fb8,2024-01-23_14h01.23.499,bars,2023.2.3,MacIntel,60.60606061,657b66ea316d21385b68909f,,,,,,,,,,,348.6376,349.6378,349.6378,350.1384,350.1385,350.3883,350.3884,130,130,358.7386,space,8.3365,,358.7388,359.9379,space,1.1774,,0,7,7,2,1,145,bars/single002.png,bars/mask003.png,,,,,,,,,,,,,,,,,,,,,,,,,,,,,,,,,,,,,,,,,,,,,,,,,,,,,,,,,,,,,,,,
,,65961aa9477c6a68a5019b23,65af55e68504a42db6af7fb8,2024-01-23_14h01.23.499,bars,2023.2.3,MacIntel,60.60606061,657b66ea316d21385b68909f,,,,,,,,,,,359.9384,360.9386,360.9387,361.4363,361.4363,361.6875,361.6875,87,87,365.2392,space,3.5342,,365.2393,366.6397,space,1.3693,,0,8,8,4,1,95,bars/single004.png,bars/mask004.png,,,,,,,,,,,,,,,,,,,,,,,,,,,,,,,,,,,,,,,,,,,,,,,,,,,,,,,,,,,,,,,,
,,65961aa9477c6a68a5019b23,65af55e68504a42db6af7fb8,2024-01-23_14h01.23.499,bars,2023.2.3,MacIntel,60.60606061,657b66ea316d21385b68909f,,,,,,,,,,,366.6401,367.6388,367.6388,368.1386,368.1387,368.387,368.387,31,211,372.8034,space,4.4002,,372.8035,373.7728,space,0.9505,,0,9,9,7,1,45,bars/single007.png,bars/mask009.png,,,,,,,,,,,,,,,,,,,,,,,,,,,,,,,,,,,,,,,,,,,,,,,,,,,,,,,,,,,,,,,,
,,65961aa9477c6a68a5019b23,65af55e68504a42db6af7fb8,2024-01-23_14h01.23.499,bars,2023.2.3,MacIntel,60.60606061,657b66ea316d21385b68909f,,,,,,,,,,,,,,,,,,,,,,,,,,,,,,,,,,,,,373.7737,402.0224,space,28.2278,,,,,,,,,,,,,,,,,,,,,,,,,,,,,,,,,,,,,,,,,,,,,,,,,,,,,,,,,,,,
,,65961aa9477c6a68a5019b23,65af55e68504a42db6af7fb8,2024-01-23_14h01.23.499,bars,2023.2.3,MacIntel,60.60606061,657b66ea316d21385b68909f,,,,,,,,,,,,,,,,,,,,,,,,,,,,,,,,,,,,,,,,,,402.0373,405.9394,right,3.8804,,405.9396,2,2,406.9398,0,0,0,0,1,9,1,9,2,,,,,,,,,,,,,,,,,,,,,,,,,,,,,,,,,,,,,,,,,
,,65961aa9477c6a68a5019b23,65af55e68504a42db6af7fb8,2024-01-23_14h01.23.499,bars,2023.2.3,MacIntel,60.60606061,657b66ea316d21385b68909f,,,,,,,,,,,,,,,,,,,,,,,,,,,,,,,,,,,,,,,,,,406.9405,408.5708,left,1.6173,,408.5709,10,1,409.5728,0,1,1,1,1,10,0,10,1,,,,,,,,,,,,,,,,,,,,,,,,,,,,,,,,,,,,,,,,,
,,65961aa9477c6a68a5019b23,65af55e68504a42db6af7fb8,2024-01-23_14h01.23.499,bars,2023.2.3,MacIntel,60.60606061,657b66ea316d21385b68909f,,,,,,,,,,,,,,,,,,,,,,,,,,,,,,,,,,,,,,,,,,409.5732,435.4233,left,25.8443,,435.4234,10,1,436.4232,0,2,2,2,1,10,2,10,2,,,,,,,,,,,,,,,,,,,,,,,,,,,,,,,,,,,,,,,,,
,,65961aa9477c6a68a5019b23,65af55e68504a42db6af7fb8,2024-01-23_14h01.23.499,bars,2023.2.3,MacIntel,60.60606061,657b66ea316d21385b68909f,,,,,,,,,,,,,,,,,,,,,,,,,,,,,,,,,,,,,,,,,,436.4347,436.872,left,0.4313,,436.8721,7,1,437.8736,0,3,3,3,1,8,4,7,3,,,,,,,,,,,,,,,,,,,,,,,,,,,,,,,,,,,,,,,,,
,,65961aa9477c6a68a5019b23,65af55e68504a42db6af7fb8,2024-01-23_14h01.23.499,bars,2023.2.3,MacIntel,60.60606061,657b66ea316d21385b68909f,,,,,,,,,,,,,,,,,,,,,,,,,,,,,,,,,,,,,,,,,,437.8741,440.6219,left,2.7332,,440.622,5,1,441.6213,0,4,4,4,1,6,2,5,1,,,,,,,,,,,,,,,,,,,,,,,,,,,,,,,,,,,,,,,,,
,,65961aa9477c6a68a5019b23,65af55e68504a42db6af7fb8,2024-01-23_14h01.23.499,bars,2023.2.3,MacIntel,60.60606061,657b66ea316d21385b68909f,,,,,,,,,,,,,,,,,,,,,,,,,,,,,,,,,,,,,,,,,,441.6321,442.0405,right,0.4029,,442.0405,4,2,443.0399,0,5,5,5,1,4,4,4,4,,,,,,,,,,,,,,,,,,,,,,,,,,,,,,,,,,,,,,,,,
,,65961aa9477c6a68a5019b23,65af55e68504a42db6af7fb8,2024-01-23_14h01.23.499,bars,2023.2.3,MacIntel,60.60606061,657b66ea316d21385b68909f,,,,,,,,,,,,,,,,,,,,,,,,,,,,,,,,,,,,,,,,,,443.0404,443.5407,left,0.4822,,443.5407,1,1,444.5394,0,6,6,6,1,2,2,1,2,,,,,,,,,,,,,,,,,,,,,,,,,,,,,,,,,,,,,,,,,
,,65961aa9477c6a68a5019b23,65af55e68504a42db6af7fb8,2024-01-23_14h01.23.499,bars,2023.2.3,MacIntel,60.60606061,657b66ea316d21385b68909f,,,,,,,,,,,,,,,,,,,,,,,,,,,,,,,,,,,,,,,,,,444.5398,447.1573,right,2.6052,,447.1575,1,2,448.1547,0,7,7,7,1,0,0,0,1,,,,,,,,,,,,,,,,,,,,,,,,,,,,,,,,,,,,,,,,,
,,65961aa9477c6a68a5019b23,65af55e68504a42db6af7fb8,2024-01-23_14h01.23.499,bars,2023.2.3,MacIntel,60.60606061,657b66ea316d21385b68909f,,,,,,,,,,,,,,,,,,,,,,,,,,,,,,,,,,,,,,,,,,448.155,450.3403,left,2.1635,,450.3404,1,1,451.34,0,8,8,8,1,0,2,1,0,,,,,,,,,,,,,,,,,,,,,,,,,,,,,,,,,,,,,,,,,
,,65961aa9477c6a68a5019b23,65af55e68504a42db6af7fb8,2024-01-23_14h01.23.499,bars,2023.2.3,MacIntel,60.60606061,657b66ea316d21385b68909f,,,,,,,,,,,,,,,,,,,,,,,,,,,,,,,,,,,,,,,,,,451.3483,451.7726,right,0.4118,,451.7727,3,2,452.7724,0,9,9,9,1,2,4,2,3,,,,,,,,,,,,,,,,,,,,,,,,,,,,,,,,,,,,,,,,,
,,65961aa9477c6a68a5019b23,65af55e68504a42db6af7fb8,2024-01-23_14h01.23.499,bars,2023.2.3,MacIntel,60.60606061,657b66ea316d21385b68909f,,,,,,,,,,,,,,,,,,,,,,,,,,,,,,,,,,,,,,,,,,452.7728,456.324,right,3.5417,,456.3241,3,2,457.3227,0,10,10,10,1,0,2,0,3,,,,,,,,,,,,,,,,,,,,,,,,,,,,,,,,,,,,,,,,,
,,65961aa9477c6a68a5019b23,65af55e68504a42db6af7fb8,2024-01-23_14h01.23.499,bars,2023.2.3,MacIntel,60.60606061,657b66ea316d21385b68909f,,,,,,,,,,,,,,,,,,,,,,,,,,,,,,,,,,,,,,,,,,457.3343,457.8587,left,0.5138,,457.8588,0,1,458.8577,0,11,11,11,1,0,4,0,3,,,,,,,,,,,,,,,,,,,,,,,,,,,,,,,,,,,,,,,,,
,,65961aa9477c6a68a5019b23,65af55e68504a42db6af7fb8,2024-01-23_14h01.23.499,bars,2023.2.3,MacIntel,60.60606061,657b66ea316d21385b68909f,,,,,,,,,,,,,,,,,,,,,,,,,,,,,,,,,,,,,,,,,,458.8581,459.2223,right,0.3527,,459.2223,6,2,460.2239,0,12,12,12,1,2,6,1,6,,,,,,,,,,,,,,,,,,,,,,,,,,,,,,,,,,,,,,,,,
,,65961aa9477c6a68a5019b23,65af55e68504a42db6af7fb8,2024-01-23_14h01.23.499,bars,2023.2.3,MacIntel,60.60606061,657b66ea316d21385b68909f,,,,,,,,,,,,,,,,,,,,,,,,,,,,,,,,,,,,,,,,,,460.2244,460.624,right,0.3836,,460.6241,3,2,461.6226,0,13,13,13,1,0,4,1,3,,,,,,,,,,,,,,,,,,,,,,,,,,,,,,,,,,,,,,,,,
,,65961aa9477c6a68a5019b23,65af55e68504a42db6af7fb8,2024-01-23_14h01.23.499,bars,2023.2.3,MacIntel,60.60606061,657b66ea316d21385b68909f,,,,,,,,,,,,,,,,,,,,,,,,,,,,,,,,,,,,,,,,,,461.623,462.3549,right,0.7193,,462.355,7,2,463.358,0,14,14,14,1,2,6,2,7,,,,,,,,,,,,,,,,,,,,,,,,,,,,,,,,,,,,,,,,,
,,65961aa9477c6a68a5019b23,65af55e68504a42db6af7fb8,2024-01-23_14h01.23.499,bars,2023.2.3,MacIntel,60.60606061,657b66ea316d21385b68909f,,,,,,,,,,,,,,,,,,,,,,,,,,,,,,,,,,,,,,,,,,463.3585,464.2084,right,0.8345,,464.2085,9,2,465.2074,0,15,15,15,1,4,8,3,9,,,,,,,,,,,,,,,,,,,,,,,,,,,,,,,,,,,,,,,,,
,,65961aa9477c6a68a5019b23,65af55e68504a42db6af7fb8,2024-01-23_14h01.23.499,bars,2023.2.3,MacIntel,60.60606061,657b66ea316d21385b68909f,,,,,,,,,,,,,,,,,,,,,,,,,,,,,,,,,,,,,,,,,,465.2084,465.6239,right,0.4067,,465.624,7,2,466.6239,0,16,16,16,1,6,6,7,7,,,,,,,,,,,,,,,,,,,,,,,,,,,,,,,,,,,,,,,,,
,,65961aa9477c6a68a5019b23,65af55e68504a42db6af7fb8,2024-01-23_14h01.23.499,bars,2023.2.3,MacIntel,60.60606061,657b66ea316d21385b68909f,,,,,,,,,,,,,,,,,,,,,,,,,,,,,,,,,,,,,,,,,,466.6244,467.6572,right,1.0162,,467.6572,5,2,468.6562,0,17,17,17,1,8,4,9,5,,,,,,,,,,,,,,,,,,,,,,,,,,,,,,,,,,,,,,,,,
,,65961aa9477c6a68a5019b23,65af55e68504a42db6af7fb8,2024-01-23_14h01.23.499,bars,2023.2.3,MacIntel,60.60606061,657b66ea316d21385b68909f,,,,,,,,,,,,,,,,,,,,,,,,,,,,,,,,,,,,,,,,,,468.6568,469.1051,left,0.4314,,469.1051,5,1,470.1062,0,18,18,18,1,6,2,5,1,,,,,,,,,,,,,,,,,,,,,,,,,,,,,,,,,,,,,,,,,
,,65961aa9477c6a68a5019b23,65af55e68504a42db6af7fb8,2024-01-23_14h01.23.499,bars,2023.2.3,MacIntel,60.60606061,657b66ea316d21385b68909f,,,,,,,,,,,,,,,,,,,,,,,,,,,,,,,,,,,,,,,,,,470.1069,470.4899,left,0.3708,,470.4899,7,1,471.492,0,19,19,19,1,8,0,7,0,,,,,,,,,,,,,,,,,,,,,,,,,,,,,,,,,,,,,,,,,
,,65961aa9477c6a68a5019b23,65af55e68504a42db6af7fb8,2024-01-23_14h01.23.499,bars,2023.2.3,MacIntel,60.60606061,657b66ea316d21385b68909f,,,,,,,,,,,,,,,,,,,,,,,,,,,,,,,,,,,,,,,,,,,,,,,,,,,,,,,,,,,,471.4926,501.9408,space,30.4299,,,,,,,,,,,,,,,,,,,,,,,,,,,,,,,,,,,,,
,,65961aa9477c6a68a5019b23,65af55e68504a42db6af7fb8,2024-01-23_14h01.23.499,bars,2023.2.3,MacIntel,60.60606061,657b66ea316d21385b68909f,,,,,,,,,,,502.7436,503.7391,,,504.2422,504.4913,,153,-27,,,,,,,,,,,,,,,,bars/038.png,bars/mask000.png,,,,,,,,,,,,0,1,,,,,,,2,7,0,6,,,,,,501.9566,502.7394,space,0.7742,,503.7395,504.2422,504.4917,511.9087,space,7.396,,511.9089,12,83,512.909,512.9092,636.0949,space,123.1615,,0,0,0,0,1,165,70,,,,,,,,
,,65961aa9477c6a68a5019b23,65af55e68504a42db6af7fb8,2024-01-23_14h01.23.499,bars,2023.2.3,MacIntel,60.60606061,657b66ea316d21385b68909f,,,,,,,,,,,636.1086,637.1105,,,637.6107,637.8607,,116,116,,,,,,,,,,,,,,,,bars/049.png,bars/mask005.png,,,,,,,,,,,,10,2,,,,,,,0,9,1,10,,,,,,,,,,,637.1106,637.6106,637.8608,643.1264,space,5.2504,,643.1267,44,1,644.1251,644.1252,650.3252,space,6.1729,,0,1,1,1,1,160,115,,,,,,,,
,,65961aa9477c6a68a5019b23,65af55e68504a42db6af7fb8,2024-01-23_14h01.23.499,bars,2023.2.3,MacIntel,60.60606061,657b66ea316d21385b68909f,,,,,,,,,,,650.3379,651.3275,,,651.8275,652.0751,,86,86,,,,,,,,,,,,,,,,bars/026.png,bars/mask009.png,,,,,,,,,,,,7,2,,,,,,,0,7,1,7,,,,,,,,,,,651.3276,651.8275,652.0752,654.7758,space,2.6924,,654.7759,51,1,655.7781,655.7781,657.7949,space,1.9887,,0,2,2,2,1,35,85,,,,,,,,
,,65961aa9477c6a68a5019b23,65af55e68504a42db6af7fb8,2024-01-23_14h01.23.499,bars,2023.2.3,MacIntel,60.60606061,657b66ea316d21385b68909f,,,,,,,,,,,657.7954,658.7915,,,659.2937,659.5443,,6,6,,,,,,,,,,,,,,,,bars/041.png,bars/mask009.png,,,,,,,,,,,,1,1,,,,,,,2,9,1,9,,,,,,,,,,,658.7916,659.2936,659.5444,662.06,space,2.507,,662.0601,14,79,663.0586,663.0588,671.5936,space,8.5133,,0,3,3,3,1,20,85,,,,,,,,
,,65961aa9477c6a68a5019b23,65af55e68504a42db6af7fb8,2024-01-23_14h01.23.499,bars,2023.2.3,MacIntel,60.60606061,657b66ea316d21385b68909f,,,,,,,,,,,671.6061,672.6116,,,673.0942,673.3423,,163,163,,,,,,,,,,,,,,,,bars/024.png,bars/mask000.png,,,,,,,,,,,,8,2,,,,,,,4,10,4,10,,,,,,,,,,,672.6116,673.0942,673.3423,682.5443,space,9.185,,682.5443,43,7,683.5439,683.544,684.5612,space,0.9901,,0,4,4,4,1,120,170,,,,,,,,
,,65961aa9477c6a68a5019b23,65af55e68504a42db6af7fb8,2024-01-23_14h01.23.499,bars,2023.2.3,MacIntel,60.60606061,657b66ea316d21385b68909f,,,,,,,,,,,684.5616,685.5616,,,686.0614,686.3114,,124,124,,,,,,,,,,,,,,,,bars/028.png,bars/mask003.png,,,,,,,,,,,,9,2,,,,,,,2,10,0,10,,,,,,,,,,,685.5617,686.0613,686.3115,691.544,space,5.2267,,691.544,79,4,692.5447,692.5447,693.6773,space,1.1062,,0,5,5,5,1,45,120,,,,,,,,
,,65961aa9477c6a68a5019b23,65af55e68504a42db6af7fb8,2024-01-23_14h01.23.499,bars,2023.2.3,MacIntel,60.60606061,657b66ea316d21385b68909f,,,,,,,,,,,693.6776,694.6781,,,695.1786,695.4283,,30,30,,,,,,,,,,,,,,,,bars/035.png,bars/mask007.png,,,,,,,,,,,,0,2,,,,,,,4,10,5,9,,,,,,,,,,,694.6781,695.1785,695.4284,698.7465,space,3.3011,,698.7465,35,30,699.746,699.746,705.5945,space,5.8214,,0,6,6,6,1,175,60,,,,,,,,
,,65961aa9477c6a68a5019b23,65af55e68504a42db6af7fb8,2024-01-23_14h01.23.499,bars,2023.2.3,MacIntel,60.60606061,657b66ea316d21385b68909f,,,,,,,,,,,705.6058,706.5939,,,707.0951,707.3427,,81,81,,,,,,,,,,,,,,,,bars/038.png,bars/mask006.png,,,,,,,,,,,,5,2,,,,,,,2,8,2,8,,,,,,,,,,,706.594,707.095,707.3428,709.7121,space,2.3511,,709.7122,84,11,710.7096,710.7098,712.1286,space,1.3923,,0,7,7,7,1,165,70,,,,,,,,
,,65961aa9477c6a68a5019b23,65af55e68504a42db6af7fb8,2024-01-23_14h01.23.499,bars,2023.2.3,MacIntel,60.60606061,657b66ea316d21385b68909f,,,,,,,,,,,712.1292,713.1291,,,713.6276,713.8774,,61,61,,,,,,,,,,,,,,,,bars/029.png,bars/mask009.png,,,,,,,,,,,,5,2,,,,,,,0,10,0,10,,,,,,,,,,,713.1293,713.6275,713.8774,719.7445,space,5.8517,,719.7446,29,16,720.7458,720.7458,721.9601,space,1.1966,,0,8,8,8,1,90,45,,,,,,,,
,,65961aa9477c6a68a5019b23,65af55e68504a42db6af7fb8,2024-01-23_14h01.23.499,bars,2023.2.3,MacIntel,60.60606061,657b66ea316d21385b68909f,,,,,,,,,,,721.9604,722.9626,,,723.4628,723.7118,,1,1,,,,,,,,,,,,,,,,bars/016.png,bars/mask005.png,,,,,,,,,,,,4,2,,,,,,,2,8,2,8,,,,,,,,,,,722.9627,723.4627,723.7118,729.6292,space,5.9014,,729.6293,39,16,730.6266,730.6266,731.5956,space,0.9421,,0,9,9,9,1,40,165,,,,,,,,
,,65961aa9477c6a68a5019b23,65af55e68504a42db6af7fb8,2024-01-23_14h01.23.499,bars,2023.2.3,MacIntel,60.60606061,657b66ea316d21385b68909f,,,,,,,,,,,731.5963,732.5932,,,733.0956,733.3443,,57,57,,,,,,,,,,,,,,,,bars/035.png,bars/mask003.png,,,,,,,,,,,,9,2,,,,,,,0,10,0,10,,,,,,,,,,,732.5932,733.0956,733.3444,741.3444,space,7.9842,,741.3445,62,3,742.3458,742.3458,743.677,space,1.3031,,0,10,10,10,1,175,60,,,,,,,,
,,65961aa9477c6a68a5019b23,65af55e68504a42db6af7fb8,2024-01-23_14h01.23.499,bars,2023.2.3,MacIntel,60.60606061,657b66ea316d21385b68909f,,,,,,,,,,,743.6776,744.6768,,,745.1802,745.4287,,106,106,,,,,,,,,,,,,,,,bars/006.png,bars/mask002.png,,,,,,,,,,,,6,2,,,,,,,0,8,1,8,,,,,,,,,,,744.6769,745.1802,745.4289,750.0955,space,4.6499,,750.0956,71,6,751.0948,751.0949,751.8605,space,0.7445,,0,11,11,11,1,35,100,,,,,,,,
,,65961aa9477c6a68a5019b23,65af55e68504a42db6af7fb8,2024-01-23_14h01.23.499,bars,2023.2.3,MacIntel,60.60606061,657b66ea316d21385b68909f,,,,,,,,,,,751.8609,752.8624,,,753.3615,753.6125,,55,55,,,,,,,,,,,,,,,,bars/010.png,bars/mask001.png,,,,,,,,,,,,5,2,,,,,,,0,6,1,5,,,,,,,,,,,752.8624,753.3614,753.6125,759.8973,space,6.2731,,759.8975,70,0,760.8952,760.8952,773.0146,space,12.092,,0,12,12,12,1,165,55,,,,,,,,
,,65961aa9477c6a68a5019b23,65af55e68504a42db6af7fb8,2024-01-23_14h01.23.499,bars,2023.2.3,MacIntel,60.60606061,657b66ea316d21385b68909f,,,,,,,,,,,773.0271,774.0284,,,774.5275,774.7805,,109,109,,,,,,,,,,,,,,,,bars/009.png,bars/mask005.png,,,,,,,,,,,,2,2,,,,,,,2,4,3,2,,,,,,,,,,,774.0285,774.5273,774.7805,778.3965,space,3.6005,,778.3966,86,4,779.3965,779.3966,786.5134,space,7.0954,,0,13,13,13,1,15,105,,,,,,,,
,,65961aa9477c6a68a5019b23,65af55e68504a42db6af7fb8,2024-01-23_14h01.23.499,bars,2023.2.3,MacIntel,60.60606061,657b66ea316d21385b68909f,,,,,,,,,,,786.5246,787.5134,,,788.0135,788.2622,,82,82,,,,,,,,,,,,,,,,bars/026.png,bars/mask000.png,,,,,,,,,,,,1,2,,,,,,,0,2,0,1,,,,,,,,,,,787.5134,788.0134,788.2622,824.4624,space,36.1943,,824.4625,47,3,825.4651,825.4652,829.6976,space,4.202,,0,14,14,14,1,35,85,,,,,,,,
,,65961aa9477c6a68a5019b23,65af55e68504a42db6af7fb8,2024-01-23_14h01.23.499,bars,2023.2.3,MacIntel,60.60606061,657b66ea316d21385b68909f,,,,,,,,,,,829.709,830.7129,,,831.1981,831.4477,,31,31,,,,,,,,,,,,,,,,bars/016.png,bars/mask006.png,,,,,,,,,,,,1,1,,,,,,,2,0,2,1,,,,,,,,,,,830.713,831.198,831.4478,834.3786,space,2.9207,,834.3787,9,46,835.3807,835.3808,838.8973,space,3.4915,,0,15,15,15,1,40,165,,,,,,,,
,,65961aa9477c6a68a5019b23,65af55e68504a42db6af7fb8,2024-01-23_14h01.23.499,bars,2023.2.3,MacIntel,60.60606061,657b66ea316d21385b68909f,,,,,,,,,,,838.9065,839.8952,,,840.3987,840.6477,,14,194,,,,,,,,,,,,,,,,bars/003.png,bars/mask001.png,,,,,,,,,,,,0,1,,,,,,,0,2,0,3,,,,,,,,,,,839.8952,840.3987,840.6478,849.7319,space,9.0772,,849.732,11,54,850.7288,850.7289,852.8961,space,2.1429,,0,16,16,16,1,25,140,,,,,,,,
,,65961aa9477c6a68a5019b23,65af55e68504a42db6af7fb8,2024-01-23_14h01.23.499,bars,2023.2.3,MacIntel,60.60606061,657b66ea316d21385b68909f,,,,,,,,,,,852.8966,853.8966,,,854.3969,854.6464,,84,84,,,,,,,,,,,,,,,,bars/026.png,bars/mask003.png,,,,,,,,,,,,0,2,,,,,,,2,0,2,0,,,,,,,,,,,853.8966,854.3969,854.6465,862.5291,space,7.8674,,862.5292,49,1,863.53,863.5301,868.7992,space,5.2328,,0,17,17,17,1,35,85,,,,,,,,
,,65961aa9477c6a68a5019b23,65af55e68504a42db6af7fb8,2024-01-23_14h01.23.499,bars,2023.2.3,MacIntel,60.60606061,657b66ea316d21385b68909f,,,,,,,,,,,868.8124,869.815,,,870.3155,870.5641,,46,46,,,,,,,,,,,,,,,,bars/044.png,bars/mask001.png,,,,,,,,,,,,0,1,,,,,,,4,2,5,1,,,,,,,,,,,869.815,870.3154,870.5642,872.7825,space,2.2017,,872.7825,29,71,873.7818,873.782,875.3149,space,1.5012,,0,18,18,18,1,75,155,,,,,,,,
,,65961aa9477c6a68a5019b23,65af55e68504a42db6af7fb8,2024-01-23_14h01.23.499,bars,2023.2.3,MacIntel,60.60606061,657b66ea316d21385b68909f,,,,,,,,,,,875.3153,876.315,,,876.8147,877.0649,,155,155,,,,,,,,,,,,,,,,bars/017.png,bars/mask002.png,,,,,,,,,,,,2,1,,,,,,,2,4,3,5,,,,,,,,,,,876.3151,876.8146,877.065,881.2148,space,4.134,,881.2148,10,70,882.2142,882.2143,884.6147,space,2.3727,,0,19,19,19,1,145,45,,,,,,,,
,,65961aa9477c6a68a5019b23,65af55e68504a42db6af7fb8,2024-01-23_14h01.23.499,bars,2023.2.3,MacIntel,60.60606061,657b66ea316d21385b68909f,,,,,,,,,,,884.6153,885.6151,,,886.1156,886.3651,,131,131,,,,,,,,,,,,,,,,bars/037.png,bars/mask009.png,,,,,,,,,,,,1,1,,,,,,,4,6,4,8,,,,,,,,,,,885.6151,886.1155,886.3651,889.6147,space,3.2356,,889.6148,19,26,890.6154,890.6154,892.5475,space,1.9068,,0,20,20,20,1,150,105,,,,,,,,
,,65961aa9477c6a68a5019b23,65af55e68504a42db6af7fb8,2024-01-23_14h01.23.499,bars,2023.2.3,MacIntel,60.60606061,657b66ea316d21385b68909f,,,,,,,,,,,892.5481,893.5486,,,894.0474,894.2974,,176,-4,,,,,,,,,,,,,,,,bars/032.png,bars/mask009.png,,,,,,,,,,,,1,2,,,,,,,2,4,3,4,,,,,,,,,,,893.5486,894.0474,894.2975,902.1466,space,7.835,,902.1466,51,24,903.1476,903.1477,904.3159,space,1.1337,,0,21,21,21,1,125,20,,,,,,,,
,,65961aa9477c6a68a5019b23,65af55e68504a42db6af7fb8,2024-01-23_14h01.23.499,bars,2023.2.3,MacIntel,60.60606061,657b66ea316d21385b68909f,,,,,,,,,,,904.3164,905.3154,,,905.8129,906.0654,,29,29,,,,,,,,,,,,,,,,bars/025.png,bars/mask002.png,,,,,,,,,,,,1,2,,,,,,,4,2,3,2,,,,,,,,,,,905.3155,905.8129,906.0655,908.6311,space,2.5568,,908.6311,76,11,909.6324,909.6324,911.9993,space,2.3428,,0,22,22,22,1,105,40,,,,,,,,
,,65961aa9477c6a68a5019b23,65af55e68504a42db6af7fb8,2024-01-23_14h01.23.499,bars,2023.2.3,MacIntel,60.60606061,657b66ea316d21385b68909f,,,,,,,,,,,911.9997,912.9986,,,913.5002,913.7488,,56,56,,,,,,,,,,,,,,,,bars/030.png,bars/mask003.png,,,,,,,,,,,,2,2,,,,,,,2,4,1,3,,,,,,,,,,,912.9986,913.5001,913.7489,917.7498,space,3.9835,,917.7499,84,9,918.7491,918.7491,919.8822,space,1.1079,,0,23,23,23,1,140,65,,,,,,,,
,,65961aa9477c6a68a5019b23,65af55e68504a42db6af7fb8,2024-01-23_14h01.23.499,bars,2023.2.3,MacIntel,60.60606061,657b66ea316d21385b68909f,,,,,,,,,,,919.8825,920.8834,,,921.3802,921.6301,,177,177,,,,,,,,,,,,,,,,bars/016.png,bars/mask003.png,,,,,,,,,,,,2,2,,,,,,,0,2,0,3,,,,,,,,,,,920.8835,921.3801,921.6301,925.2464,space,3.6082,,925.2465,43,12,926.2493,926.2493,927.3323,space,1.0515,,0,24,24,24,1,40,165,,,,,,,,
,,65961aa9477c6a68a5019b23,65af55e68504a42db6af7fb8,2024-01-23_14h01.23.499,bars,2023.2.3,MacIntel,60.60606061,657b66ea316d21385b68909f,,,,,,,,,,,927.3328,928.3325,,,928.8326,929.0837,,86,86,,,,,,,,,,,,,,,,bars/029.png,bars/mask003.png,,,,,,,,,,,,3,1,,,,,,,2,0,4,0,,,,,,,,,,,928.3326,928.8326,929.0837,934.5665,space,5.472,,934.5666,4,41,935.5673,935.5673,938.8663,space,3.2671,,0,25,25,25,1,90,45,,,,,,,,
,,65961aa9477c6a68a5019b23,65af55e68504a42db6af7fb8,2024-01-23_14h01.23.499,bars,2023.2.3,MacIntel,60.60606061,657b66ea316d21385b68909f,,,,,,,,,,,938.8754,939.8659,,,940.3664,940.6156,,150,150,,,,,,,,,,,,,,,,bars/021.png,bars/mask009.png,,,,,,,,,,,,1,1,,,,,,,0,0,1,1,,,,,,,,,,,939.866,940.3662,940.6156,948.1831,space,7.5506,,948.1832,5,80,949.1831,949.1831,950.6163,space,1.4115,,0,26,26,26,1,155,70,,,,,,,,
,,65961aa9477c6a68a5019b23,65af55e68504a42db6af7fb8,2024-01-23_14h01.23.499,bars,2023.2.3,MacIntel,60.60606061,657b66ea316d21385b68909f,,,,,,,,,,,950.6168,951.6164,,,952.1149,952.3652,,100,100,,,,,,,,,,,,,,,,bars/009.png,bars/mask002.png,,,,,,,,,,,,0,2,,,,,,,2,0,3,0,,,,,,,,,,,951.6165,952.1149,952.3653,955.233,space,2.8591,,955.2331,85,5,956.2333,956.2333,964.2147,space,7.9557,,0,27,27,27,1,15,105,,,,,,,,
,,65961aa9477c6a68a5019b23,65af55e68504a42db6af7fb8,2024-01-23_14h01.23.499,bars,2023.2.3,MacIntel,60.60606061,657b66ea316d21385b68909f,,,,,,,,,,,964.2262,965.2152,,,965.7177,965.9653,,113,113,,,,,,,,,,,,,,,,bars/003.png,bars/mask004.png,,,,,,,,,,,,0,2,,,,,,,0,2,0,2,,,,,,,,,,,965.2154,965.7176,965.9653,969.7164,space,3.7335,,969.7165,88,27,970.7163,970.7164,971.3001,space,0.5582,,0,28,28,28,1,25,140,,,,,,,,
,,65961aa9477c6a68a5019b23,65af55e68504a42db6af7fb8,2024-01-23_14h01.23.499,bars,2023.2.3,MacIntel,60.60606061,657b66ea316d21385b68909f,,,,,,,,,,,971.3006,972.2989,,,972.7986,973.0488,,176,176,,,,,,,,,,,,,,,,bars/007.png,bars/mask003.png,,,,,,,,,,,,0,1,,,,,,,0,0,0,0,,,,,,,,,,,972.299,972.7986,973.0488,998.9839,space,25.9294,,998.9839,1,59,999.9811,999.9812,1008.1835,space,8.1785,,0,29,29,29,1,175,55,,,,,,,,
,,65961aa9477c6a68a5019b23,65af55e68504a42db6af7fb8,2024-01-23_14h01.23.499,bars,2023.2.3,MacIntel,60.60606061,657b66ea316d21385b68909f,,,,,,,,,,,1008.1953,1009.1831,,,1009.681,1009.935,,22,202,,,,,,,,,,,,,,,,bars/036.png,bars/mask009.png,,,,,,,,,,,,0,2,,,,,,,0,0,1,0,,,,,,,,,,,1009.1832,1009.6809,1009.935,1014.1686,space,4.2189,,1014.1686,57,2,1015.1673,1015.1674,1016.5823,space,1.3844,,0,30,30,30,1,145,20,,,,,,,,
,,65961aa9477c6a68a5019b23,65af55e68504a42db6af7fb8,2024-01-23_14h01.23.499,bars,2023.2.3,MacIntel,60.60606061,657b66ea316d21385b68909f,,,,,,,,,,,1016.5828,1017.5848,,,1018.0836,1018.3319,,97,97,,,,,,,,,,,,,,,,bars/018.png,bars/mask004.png,,,,,,,,,,,,2,2,,,,,,,2,0,2,2,,,,,,,,,,,1017.5849,1018.0835,1018.332,1020.0683,space,1.7205,,1020.0684,53,7,1021.0674,1021.0674,1021.9674,space,0.8861,,0,31,31,31,1,150,90,,,,,,,,
,,65961aa9477c6a68a5019b23,65af55e68504a42db6af7fb8,2024-01-23_14h01.23.499,bars,2023.2.3,MacIntel,60.60606061,657b66ea316d21385b68909f,,,,,,,,,,,1021.9678,1022.9655,,,1023.469,1023.7165,,175,-5,,,,,,,,,,,,,,,,bars/033.png,bars/mask000.png,,,,,,,,,,,,0,2,,,,,,,4,2,4,1,,,,,,,,,,,1022.9656,1023.469,1023.7166,1026.518,space,2.7847,,1026.5181,30,20,1027.5186,1027.5187,1028.5508,space,1.0117,,0,32,32,32,1,25,155,,,,,,,,
,,65961aa9477c6a68a5019b23,65af55e68504a42db6af7fb8,2024-01-23_14h01.23.499,bars,2023.2.3,MacIntel,60.60606061,657b66ea316d21385b68909f,,,,,,,,,,,1028.5514,1029.5514,,,1030.0512,1030.2983,,52,52,,,,,,,,,,,,,,,,bars/035.png,bars/mask003.png,,,,,,,,,,,,3,2,,,,,,,6,4,7,4,,,,,,,,,,,1029.5514,1030.0512,1030.2983,1034.5513,space,4.2438,,1034.5513,57,8,1035.55,1035.55,1036.2517,space,0.6778,,0,33,33,33,1,175,60,,,,,,,,
,,65961aa9477c6a68a5019b23,65af55e68504a42db6af7fb8,2024-01-23_14h01.23.499,bars,2023.2.3,MacIntel,60.60606061,657b66ea316d21385b68909f,,,,,,,,,,,1036.2523,1037.2512,,,1037.7515,1038.0012,,142,142,,,,,,,,,,,,,,,,bars/043.png,bars/mask000.png,,,,,,,,,,,,1,2,,,,,,,8,2,8,2,,,,,,,,,,,1037.2513,1037.7514,1038.0012,1043.6346,space,5.6231,,1043.6347,68,12,1044.6352,1044.6352,1045.2827,space,0.6222,,0,34,34,34,1,30,130,,,,,,,,
,,65961aa9477c6a68a5019b23,65af55e68504a42db6af7fb8,2024-01-23_14h01.23.499,bars,2023.2.3,MacIntel,60.60606061,657b66ea316d21385b68909f,,,,,,,,,,,1045.2831,1046.2842,,,1046.7846,1047.0345,,106,106,,,,,,,,,,,,,,,,bars/028.png,bars/mask001.png,,,,,,,,,,,,0,2,,,,,,,10,0,10,0,,,,,,,,,,,1046.2842,1046.7846,1047.0346,1049.4827,space,2.44,,1049.4827,61,14,1050.4851,1050.4851,1051.1848,space,0.6724,,0,35,35,35,1,45,120,,,,,,,,
,,65961aa9477c6a68a5019b23,65af55e68504a42db6af7fb8,2024-01-23_14h01.23.499,bars,2023.2.3,MacIntel,60.60606061,657b66ea316d21385b68909f,,,,,,,,,,,1051.1853,1052.1851,,,1052.685,1052.9348,,68,68,,,,,,,,,,,,,,,,bars/047.png,bars/mask005.png,,,,,,,,,,,,0,2,,,,,,,8,0,9,0,,,,,,,,,,,1052.1852,1052.6849,1052.9348,1056.7853,space,3.8357,,1056.7854,53,2,1057.785,1057.7851,1059.6356,space,1.8055,,0,36,36,36,1,15,70,,,,,,,,
,,65961aa9477c6a68a5019b23,65af55e68504a42db6af7fb8,2024-01-23_14h01.23.499,bars,2023.2.3,MacIntel,60.60606061,657b66ea316d21385b68909f,,,,,,,,,,,1059.6361,1060.6355,,,1061.1324,1061.3698,,67,67,,,,,,,,,,,,,,,,bars/017.png,bars/mask001.png,,,,,,,,,,,,1,2,,,,,,,10,2,9,3,,,,,,,,,,,1060.6356,1061.1323,1061.3699,1068.4698,space,7.0635,,1068.4698,78,22,1069.4665,1069.4666,1070.437,space,0.9284,,0,37,37,37,1,145,45,,,,,,,,
,,65961aa9477c6a68a5019b23,65af55e68504a42db6af7fb8,2024-01-23_14h01.23.499,bars,2023.2.3,MacIntel,60.60606061,657b66ea316d21385b68909f,,,,,,,,,,,1070.4377,1071.4327,,,1071.9325,1072.1695,,87,87,,,,,,,,,,,,,,,,bars/002.png,bars/mask003.png,,,,,,,,,,,,0,2,,,,,,,8,0,9,0,,,,,,,,,,,1071.4328,1071.9325,1072.1696,1079.6363,space,7.4466,,1079.6364,43,2,1080.6374,1080.6375,1082.268,space,1.5819,,0,38,38,38,1,130,85,,,,,,,,
,,65961aa9477c6a68a5019b23,65af55e68504a42db6af7fb8,2024-01-23_14h01.23.499,bars,2023.2.3,MacIntel,60.60606061,657b66ea316d21385b68909f,,,,,,,,,,,1082.2686,1083.2701,,,1083.7701,1084.0031,,142,142,,,,,,,,,,,,,,,,bars/042.png,bars/mask006.png,,,,,,,,,,,,9,1,,,,,,,10,0,10,0,,,,,,,,,,,1083.2702,1083.77,1084.0031,1086.5375,space,2.5274,,1086.5376,3,67,1087.5362,1087.5363,1088.5375,space,0.9572,,0,39,39,39,1,145,75,,,,,,,,
,,65961aa9477c6a68a5019b23,65af55e68504a42db6af7fb8,2024-01-23_14h01.23.499,bars,2023.2.3,MacIntel,60.60606061,657b66ea316d21385b68909f,,,,,,,,,,,1088.5382,1089.5368,,,1090.0368,1090.2686,,106,106,,,,,,,,,,,,,,,,bars/015.png,bars/mask005.png,,,,,,,,,,,,9,1,,,,,,,10,0,10,0,,,,,,,,,,,1089.5369,1090.0368,1090.2686,1099.2042,space,8.9008,,1099.2042,4,54,1100.2035,1100.2036,1100.4041,space,0.1656,,0,40,40,40,1,110,160,,,,,,,,
,,65961aa9477c6a68a5019b23,65af55e68504a42db6af7fb8,2024-01-23_14h01.23.499,bars,2023.2.3,MacIntel,60.60606061,657b66ea316d21385b68909f,,,,,,,,,,,1100.4048,1101.4043,,,1101.9045,1102.1344,,171,171,,,,,,,,,,,,,,,,bars/018.png,bars/mask004.png,,,,,,,,,,,,2,1,,,,,,,8,0,6,0,,,,,,,,,,,1101.4043,1101.9044,1102.1345,1108.4375,space,6.2791,,1108.4376,21,81,1109.4379,1109.4379,1110.6018,space,1.1174,,0,41,41,41,1,150,90,,,,,,,,
,,65961aa9477c6a68a5019b23,65af55e68504a42db6af7fb8,2024-01-23_14h01.23.499,bars,2023.2.3,MacIntel,60.60606061,657b66ea316d21385b68909f,,,,,,,,,,,1110.6027,1111.6007,,,1112.1029,1112.3347,,3,183,,,,,,,,,,,,,,,,bars/023.png,bars/mask005.png,,,,,,,,,,,,4,1,,,,,,,10,2,10,3,,,,,,,,,,,1111.6007,1112.1028,1112.3348,1116.6047,space,4.2432,,1116.6048,17,68,1117.6039,1117.6039,1118.3689,space,0.7313,,0,42,42,42,1,20,115,,,,,,,,
,,65961aa9477c6a68a5019b23,65af55e68504a42db6af7fb8,2024-01-23_14h01.23.499,bars,2023.2.3,MacIntel,60.60606061,657b66ea316d21385b68909f,,,,,,,,,,,1118.3695,1119.3707,,,1119.8712,1120.1044,,28,28,,,,,,,,,,,,,,,,bars/004.png,bars/mask008.png,,,,,,,,,,,,8,1,,,,,,,8,4,9,4,,,,,,,,,,,1119.3709,1119.8711,1120.1044,1123.0043,space,2.8663,,1123.0044,3,83,1124.0041,1124.0041,1124.7004,space,0.6668,,0,43,43,43,1,25,125,,,,,,,,
,,65961aa9477c6a68a5019b23,65af55e68504a42db6af7fb8,2024-01-23_14h01.23.499,bars,2023.2.3,MacIntel,60.60606061,657b66ea316d21385b68909f,,,,,,,,,,,1124.701,1125.7041,,,1126.2055,1126.4374,,111,111,,,,,,,,,,,,,,,,bars/031.png,bars/mask004.png,,,,,,,,,,,,6,1,,,,,,,10,2,9,1,,,,,,,,,,,1125.7042,1126.2054,1126.4374,1130.8699,space,4.4196,,1130.87,9,76,1131.871,1131.871,1132.3705,space,0.4646,,0,44,44,44,1,120,35,,,,,,,,
,,65961aa9477c6a68a5019b23,65af55e68504a42db6af7fb8,2024-01-23_14h01.23.499,bars,2023.2.3,MacIntel,60.60606061,657b66ea316d21385b68909f,,,,,,,,,,,1132.371,1133.367,,,1133.871,1134.102,,123,123,,,,,,,,,,,,,,,,bars/032.png,bars/mask003.png,,,,,,,,,,,,7,1,,,,,,,8,0,8,0,,,,,,,,,,,1133.367,1133.8709,1134.1021,1138.6717,space,4.5496,,1138.6718,2,77,1139.671,1139.6711,1140.1052,space,0.385,,0,45,45,45,1,125,20,,,,,,,,
,,65961aa9477c6a68a5019b23,65af55e68504a42db6af7fb8,2024-01-23_14h01.23.499,bars,2023.2.3,MacIntel,60.60606061,657b66ea316d21385b68909f,,,,,,,,,,,1140.1058,1141.1044,,,1141.6038,1141.8359,,109,109,,,,,,,,,,,,,,,,bars/031.png,bars/mask005.png,,,,,,,,,,,,5,1,,,,,,,6,0,8,1,,,,,,,,,,,1141.1044,1141.6038,1141.8359,1143.6381,space,1.7879,,1143.6383,11,74,1144.6369,1144.6369,1145.2046,space,0.5534,,0,46,46,46,1,120,35,,,,,,,,
,,65961aa9477c6a68a5019b23,65af55e68504a42db6af7fb8,2024-01-23_14h01.23.499,bars,2023.2.3,MacIntel,60.60606061,657b66ea316d21385b68909f,,,,,,,,,,,1145.2051,1146.2018,,,1146.7043,1146.9362,,30,30,,,,,,,,,,,,,,,,bars/003.png,bars/mask006.png,,,,,,,,,,,,6,1,,,,,,,8,0,7,0,,,,,,,,,,,1146.2018,1146.7042,1146.9363,1149.372,space,2.424,,1149.372,5,70,1150.3692,1150.3693,1150.7691,space,0.352,,0,47,47,47,1,25,140,,,,,,,,
,,65961aa9477c6a68a5019b23,65af55e68504a42db6af7fb8,2024-01-23_14h01.23.499,bars,2023.2.3,MacIntel,60.60606061,657b66ea316d21385b68909f,,,,,,,,,,,1150.7697,1151.7675,,,1152.2714,1152.5041,,113,113,,,,,,,,,,,,,,,,bars/040.png,bars/mask000.png,,,,,,,,,,,,1,1,,,,,,,6,2,6,3,,,,,,,,,,,1151.7675,1152.2714,1152.5042,1157.4043,space,4.8821,,1157.4044,27,72,1158.4044,1158.4044,1160.1718,space,1.7328,,0,48,48,48,1,140,5,,,,,,,,
,,65961aa9477c6a68a5019b23,65af55e68504a42db6af7fb8,2024-01-23_14h01.23.499,bars,2023.2.3,MacIntel,60.60606061,657b66ea316d21385b68909f,,,,,,,,,,,1160.1725,1161.168,,,1161.672,1161.9052,,8,8,,,,,,,,,,,,,,,,bars/005.png,bars/mask000.png,,,,,,,,,,,,4,1,,,,,,,4,4,4,3,,,,,,,,,,,1161.1681,1161.6719,1161.9052,1164.9372,space,2.9966,,1164.9373,2,48,1165.9366,1165.9366,1166.4384,space,0.4705,,0,49,49,49,1,10,140,,,,,,,,
,,65961aa9477c6a68a5019b23,65af55e68504a42db6af7fb8,2024-01-23_14h01.23.499,bars,2023.2.3,MacIntel,60.60606061,657b66ea316d21385b68909f,,,,,,,,,,,,,,,,,,,,,,,,,,,,,,,,,,,,,,,,,,,,,,,,,,,,,,,,,,,,,,,,,,,,,,,,,,,,,,,,,,,,,,,,,,,,,1166.4394,1243.3378,0,0,0,4,1,sequence_tables/blk019.csv
,,65961aa9477c6a68a5019b23,65af55e68504a42db6af7fb8,2024-01-23_14h01.23.499,bars,2023.2.3,MacIntel,60.60606061,657b66ea316d21385b68909f,,,,,,,,,,,1244.3962,1245.3863,,,1245.886,1246.1231,,19,199,,,,,,,,,,,,,,,,bars/007.png,bars/mask002.png,,,,,,,,,,,,0,1,,,,,,,2,9,1,9,,,,,,1243.3487,1244.3897,space,1.0077,,1245.3864,1245.886,1246.1232,1250.3555,space,4.1991,,1250.3557,24,36,1251.3553,1251.3554,1251.3678,,,,0,0,0,0,1,175,55,,,,,,,,
,,65961aa9477c6a68a5019b23,65af55e68504a42db6af7fb8,2024-01-23_14h01.23.499,bars,2023.2.3,MacIntel,60.60606061,657b66ea316d21385b68909f,,,,,,,,,,,1251.3679,1252.3566,,,1252.8559,1253.0904,,27,27,,,,,,,,,,,,,,,,bars/043.png,bars/mask004.png,,,,,,,,,,,,6,1,,,,,,,4,7,7,6,,,,,,,,,,,1252.3566,1252.8559,1253.0905,1255.1215,space,2.0016,,1255.1216,3,77,1256.1229,1256.123,1256.1368,,,,0,1,1,1,1,30,130,,,,,,,,
,,65961aa9477c6a68a5019b23,65af55e68504a42db6af7fb8,2024-01-23_14h01.23.499,bars,2023.2.3,MacIntel,60.60606061,657b66ea316d21385b68909f,,,,,,,,,,,1256.137,1257.1247,,,1257.6218,1257.857,,133,133,,,,,,,,,,,,,,,,bars/032.png,bars/mask002.png,,,,,,,,,,,,4,1,,,,,,,6,9,6,8,,,,,,,,,,,1257.1248,1257.6218,1257.8571,1262.1878,space,4.3232,,1262.1878,8,67,1263.1901,1263.1901,1263.2038,,,,0,2,2,2,1,125,20,,,,,,,,
,,65961aa9477c6a68a5019b23,65af55e68504a42db6af7fb8,2024-01-23_14h01.23.499,bars,2023.2.3,MacIntel,60.60606061,657b66ea316d21385b68909f,,,,,,,,,,,1263.204,1264.19,,,1264.6892,1264.9226,,178,-2,,,,,,,,,,,,,,,,bars/039.png,bars/mask004.png,,,,,,,,,,,,5,1,,,,,,,8,7,6,8,,,,,,,,,,,1264.1901,1264.6891,1264.9227,1267.0572,space,2.1022,,1267.0574,3,73,1268.0576,1268.0576,1268.0709,,,,0,3,3,3,1,175,105,,,,,,,,
,,65961aa9477c6a68a5019b23,65af55e68504a42db6af7fb8,2024-01-23_14h01.23.499,bars,2023.2.3,MacIntel,60.60606061,657b66ea316d21385b68909f,,,,,,,,,,,1268.0711,1269.0564,,,1269.5531,1269.7878,,38,38,,,,,,,,,,,,,,,,bars/004.png,bars/mask000.png,,,,,,,,,,,,3,1,,,,,,,6,9,5,9,,,,,,,,,,,1269.0564,1269.5531,1269.7879,1279.8909,space,10.0692,,1279.891,13,87,1280.8904,1280.8904,1280.9033,,,,0,4,4,4,1,25,125,,,,,,,,
,,65961aa9477c6a68a5019b23,65af55e68504a42db6af7fb8,2024-01-23_14h01.23.499,bars,2023.2.3,MacIntel,60.60606061,657b66ea316d21385b68909f,,,,,,,,,,,1280.9035,1281.888,,,1282.3901,1282.6238,,110,110,,,,,,,,,,,,,,,,bars/025.png,bars/mask004.png,,,,,,,,,,,,7,1,,,,,,,8,7,8,8,,,,,,,,,,,1281.8881,1282.39,1282.6238,1287.9242,space,5.2658,,1287.9243,5,70,1288.9238,1288.9239,1288.937,,,,0,5,5,5,1,105,40,,,,,,,,
,,65961aa9477c6a68a5019b23,65af55e68504a42db6af7fb8,2024-01-23_14h01.23.499,bars,2023.2.3,MacIntel,60.60606061,657b66ea316d21385b68909f,,,,,,,,,,,1288.9372,1289.9232,,,1290.4218,1290.6576,,54,54,,,,,,,,,,,,,,,,bars/019.png,bars/mask000.png,,,,,,,,,,,,4,1,,,,,,,6,5,6,7,,,,,,,,,,,1289.9232,1290.4217,1290.6576,1296.124,space,5.4596,,1296.124,9,51,1297.1239,1297.124,1297.1367,,,,0,6,6,6,1,45,105,,,,,,,,
,,65961aa9477c6a68a5019b23,65af55e68504a42db6af7fb8,2024-01-23_14h01.23.499,bars,2023.2.3,MacIntel,60.60606061,657b66ea316d21385b68909f,,,,,,,,,,,1297.137,1298.1208,,,1298.624,1298.8577,,44,224,,,,,,,,,,,,,,,,bars/043.png,bars/mask007.png,,,,,,,,,,,,1,1,,,,,,,4,7,2,6,,,,,,,,,,,1298.1209,1298.624,1298.8578,1305.9231,space,7.0475,,1305.9232,14,86,1306.9251,1306.9251,1306.9394,,,,0,7,7,7,1,30,130,,,,,,,,
,,65961aa9477c6a68a5019b23,65af55e68504a42db6af7fb8,2024-01-23_14h01.23.499,bars,2023.2.3,MacIntel,60.60606061,657b66ea316d21385b68909f,,,,,,,,,,,1306.9395,1307.9241,,,1308.4256,1308.6569,,162,162,,,,,,,,,,,,,,,,bars/038.png,bars/mask008.png,,,,,,,,,,,,2,1,,,,,,,2,9,2,8,,,,,,,,,,,1307.9241,1308.4255,1308.657,1316.4873,space,7.8199,,1316.4873,3,88,1317.4915,1317.4916,1317.5048,,,,0,8,8,8,1,165,70,,,,,,,,
,,65961aa9477c6a68a5019b23,65af55e68504a42db6af7fb8,2024-01-23_14h01.23.499,bars,2023.2.3,MacIntel,60.60606061,657b66ea316d21385b68909f,,,,,,,,,,,1317.505,1318.4872,,,1318.9872,1319.224,,45,45,,,,,,,,,,,,,,,,bars/028.png,bars/mask009.png,,,,,,,,,,,,1,1,,,,,,,0,10,1,10,,,,,,,,,,,1318.4872,1318.9872,1319.224,1322.6885,space,3.4437,,1322.6886,0,75,1323.6909,1323.6909,1323.7033,,,,0,9,9,9,1,45,120,,,,,,,,
,,65961aa9477c6a68a5019b23,65af55e68504a42db6af7fb8,2024-01-23_14h01.23.499,bars,2023.2.3,MacIntel,60.60606061,657b66ea316d21385b68909f,,,,,,,,,,,1323.7036,1324.6903,,,1325.1918,1325.4238,,88,88,,,,,,,,,,,,,,,,bars/009.png,bars/mask001.png,,,,,,,,,,,,3,2,,,,,,,2,8,3,7,,,,,,,,,,,1324.6904,1325.1917,1325.4238,1329.4575,space,4.0101,,1329.4576,73,17,1330.4583,1330.4584,1330.4722,,,,0,10,10,10,1,15,105,,,,,,,,
,,65961aa9477c6a68a5019b23,65af55e68504a42db6af7fb8,2024-01-23_14h01.23.499,bars,2023.2.3,MacIntel,60.60606061,657b66ea316d21385b68909f,,,,,,,,,,,1330.4723,1331.4568,,,1331.9542,1332.1916,,120,120,,,,,,,,,,,,,,,,bars/004.png,bars/mask006.png,,,,,,,,,,,,8,2,,,,,,,0,10,0,10,,,,,,,,,,,1331.4569,1331.9541,1332.1917,1334.9919,space,2.788,,1334.992,85,5,1335.9908,1335.9908,1336.0031,,,,0,11,11,11,1,25,125,,,,,,,,
,,65961aa9477c6a68a5019b23,65af55e68504a42db6af7fb8,2024-01-23_14h01.23.499,bars,2023.2.3,MacIntel,60.60606061,657b66ea316d21385b68909f,,,,,,,,,,,1336.0032,1336.9928,,,1337.4892,1337.723,,122,122,,,,,,,,,,,,,,,,bars/003.png,bars/mask004.png,,,,,,,,,,,,2,2,,,,,,,2,8,2,6,,,,,,,,,,,1336.9928,1337.4891,1337.723,1345.3234,space,7.5901,,1345.3234,83,18,1346.3251,1346.3251,1346.3378,,,,0,12,12,12,1,25,140,,,,,,,,
,,65961aa9477c6a68a5019b23,65af55e68504a42db6af7fb8,2024-01-23_14h01.23.499,bars,2023.2.3,MacIntel,60.60606061,657b66ea316d21385b68909f,,,,,,,,,,,1346.338,1347.3245,,,1347.826,1348.0589,,0,180,,,,,,,,,,,,,,,,bars/016.png,bars/mask000.png,,,,,,,,,,,,5,2,,,,,,,4,10,5,9,,,,,,,,,,,1347.3245,1347.8259,1348.0589,1354.4241,space,6.3568,,1354.4241,40,15,1355.4251,1355.4251,1355.4353,,,,0,13,13,13,1,40,165,,,,,,,,
,,65961aa9477c6a68a5019b23,65af55e68504a42db6af7fb8,2024-01-23_14h01.23.499,bars,2023.2.3,MacIntel,60.60606061,657b66ea316d21385b68909f,,,,,,,,,,,1355.4355,1356.4245,,,1356.9254,1357.1577,,97,97,,,,,,,,,,,,,,,,bars/041.png,bars/mask001.png,,,,,,,,,,,,6,2,,,,,,,2,10,2,10,,,,,,,,,,,1356.4246,1356.9254,1357.1578,1359.4252,space,2.2366,,1359.4253,77,12,1360.4253,1360.4254,1360.4393,,,,0,14,14,14,1,20,85,,,,,,,,
,,65961aa9477c6a68a5019b23,65af55e68504a42db6af7fb8,2024-01-23_14h01.23.499,bars,2023.2.3,MacIntel,60.60606061,657b66ea316d21385b68909f,,,,,,,,,,,1360.4395,1361.4256,,,1361.9248,1362.1559,,84,84,,,,,,,,,,,,,,,,bars/030.png,bars/mask007.png,,,,,,,,,,,,4,2,,,,,,,0,10,0,10,,,,,,,,,,,1361.4256,1361.9248,1362.1559,1367.4251,space,5.2552,,1367.4252,56,19,1368.4266,1368.4267,1368.4385,,,,0,15,15,15,1,140,65,,,,,,,,
,,65961aa9477c6a68a5019b23,65af55e68504a42db6af7fb8,2024-01-23_14h01.23.499,bars,2023.2.3,MacIntel,60.60606061,657b66ea316d21385b68909f,,,,,,,,,,,1368.4386,1369.4254,,,1369.9215,1370.1591,,141,-39,,,,,,,,,,,,,,,,bars/004.png,bars/mask006.png,,,,,,,,,,,,5,2,,,,,,,2,10,2,10,,,,,,,,,,,1369.4255,1369.9214,1370.1592,1377.2925,space,7.1046,,1377.2926,64,16,1378.2924,1378.2926,1378.3065,,,,0,16,16,16,1,25,125,,,,,,,,
,,65961aa9477c6a68a5019b23,65af55e68504a42db6af7fb8,2024-01-23_14h01.23.499,bars,2023.2.3,MacIntel,60.60606061,657b66ea316d21385b68909f,,,,,,,,,,,1378.3067,1379.292,,,1379.7924,1380.0257,,77,257,,,,,,,,,,,,,,,,bars/030.png,bars/mask004.png,,,,,,,,,,,,5,2,,,,,,,0,10,0,8,,,,,,,,,,,1379.292,1379.7923,1380.0257,1387.6598,space,7.6217,,1387.6599,63,12,1388.6593,1388.6593,1388.6727,,,,0,17,17,17,1,140,65,,,,,,,,
,,65961aa9477c6a68a5019b23,65af55e68504a42db6af7fb8,2024-01-23_14h01.23.499,bars,2023.2.3,MacIntel,60.60606061,657b66ea316d21385b68909f,,,,,,,,,,,1388.6728,1389.6597,,,1390.1568,1390.3933,,174,-6,,,,,,,,,,,,,,,,bars/013.png,bars/mask008.png,,,,,,,,,,,,5,2,,,,,,,2,10,2,10,,,,,,,,,,,1389.6597,1390.1567,1390.3933,1399.2557,space,8.8338,,1399.2558,81,16,1400.2571,1400.2571,1400.2717,,,,0,18,18,18,1,75,10,,,,,,,,
,,65961aa9477c6a68a5019b23,65af55e68504a42db6af7fb8,2024-01-23_14h01.23.499,bars,2023.2.3,MacIntel,60.60606061,657b66ea316d21385b68909f,,,,,,,,,,,1400.2718,1401.2592,,,1401.7603,1401.9932,,90,90,,,,,,,,,,,,,,,,bars/018.png,bars/mask001.png,,,,,,,,,,,,10,2,,,,,,,0,10,1,10,,,,,,,,,,,1401.2593,1401.7602,1401.9932,1405.9254,space,3.924,,1405.9255,60,0,1406.9238,1406.9238,1406.939,,,,0,19,19,19,1,150,90,,,,,,,,
,,65961aa9477c6a68a5019b23,65af55e68504a42db6af7fb8,2024-01-23_14h01.23.499,bars,2023.2.3,MacIntel,60.60606061,657b66ea316d21385b68909f,,,,,,,,,,,1406.9391,1407.9263,,,1408.4269,1408.66,,178,-2,,,,,,,,,,,,,,,,bars/045.png,bars/mask009.png,,,,,,,,,,,,5,2,,,,,,,2,10,1,8,,,,,,,,,,,1407.9263,1408.4269,1408.6601,1410.2901,space,1.6073,,1410.2902,78,12,1411.2917,1411.2918,1411.2929,,,,0,20,20,20,1,100,10,,,,,,,,
,,65961aa9477c6a68a5019b23,65af55e68504a42db6af7fb8,2024-01-23_14h01.23.499,bars,2023.2.3,MacIntel,60.60606061,657b66ea316d21385b68909f,,,,,,,,,,,1411.2933,1412.2931,,,1412.7929,1413.024,,136,136,,,,,,,,,,,,,,,,bars/043.png,bars/mask005.png,,,,,,,,,,,,6,2,,,,,,,4,8,3,8,,,,,,,,,,,1412.2931,1412.7928,1413.0241,1418.1928,space,5.1395,,1418.1929,74,6,1419.1931,1419.1931,1419.2058,,,,0,21,21,21,1,30,130,,,,,,,,
,,65961aa9477c6a68a5019b23,65af55e68504a42db6af7fb8,2024-01-23_14h01.23.499,bars,2023.2.3,MacIntel,60.60606061,657b66ea316d21385b68909f,,,,,,,,,,,1419.206,1420.1927,,,1420.693,1420.9248,,171,-9,,,,,,,,,,,,,,,,bars/024.png,bars/mask003.png,,,,,,,,,,,,10,2,,,,,,,6,10,7,10,,,,,,,,,,,1420.1928,1420.6929,1420.9248,1424.1271,space,3.1882,,1424.1272,51,1,1425.1262,1425.1262,1425.1405,,,,0,22,22,22,1,120,170,,,,,,,,
,,65961aa9477c6a68a5019b23,65af55e68504a42db6af7fb8,2024-01-23_14h01.23.499,bars,2023.2.3,MacIntel,60.60606061,657b66ea316d21385b68909f,,,,,,,,,,,1425.1407,1426.1227,,,1426.6251,1426.8587,,94,94,,,,,,,,,,,,,,,,bars/049.png,bars/mask003.png,,,,,,,,,,,,3,2,,,,,,,4,10,4,10,,,,,,,,,,,1426.1227,1426.625,1426.8587,1429.4596,space,2.5829,,1429.4597,66,21,1430.4601,1430.4601,1430.474,,,,0,23,23,23,1,160,115,,,,,,,,
,,65961aa9477c6a68a5019b23,65af55e68504a42db6af7fb8,2024-01-23_14h01.23.499,bars,2023.2.3,MacIntel,60.60606061,657b66ea316d21385b68909f,,,,,,,,,,,1430.4742,1431.457,,,1431.9604,1432.1936,,54,54,,,,,,,,,,,,,,,,bars/046.png,bars/mask008.png,,,,,,,,,,,,0,2,,,,,,,6,8,5,9,,,,,,,,,,,1431.457,1431.9604,1432.1936,1434.9594,space,2.7561,,1434.9594,79,31,1435.9593,1435.9593,1435.9732,,,,0,24,24,24,1,155,85,,,,,,,,
,,65961aa9477c6a68a5019b23,65af55e68504a42db6af7fb8,2024-01-23_14h01.23.499,bars,2023.2.3,MacIntel,60.60606061,657b66ea316d21385b68909f,,,,,,,,,,,1435.9734,1436.9603,,,1437.4599,1437.6925,,83,83,,,,,,,,,,,,,,,,bars/021.png,bars/mask009.png,,,,,,,,,,,,4,2,,,,,,,4,6,4,7,,,,,,,,,,,1436.9605,1437.4599,1437.6925,1445.5261,space,7.8289,,1445.5261,72,13,1446.5257,1446.5257,1446.5363,,,,0,25,25,25,1,155,70,,,,,,,,
,,65961aa9477c6a68a5019b23,65af55e68504a42db6af7fb8,2024-01-23_14h01.23.499,bars,2023.2.3,MacIntel,60.60606061,657b66ea316d21385b68909f,,,,,,,,,,,1446.5365,1447.5261,,,1448.0274,1448.2598,,45,45,,,,,,,,,,,,,,,,bars/034.png,bars/mask005.png,,,,,,,,,,,,3,2,,,,,,,2,8,1,8,,,,,,,,,,,1447.5261,1448.0274,1448.2599,1450.9269,space,2.6346,,1450.927,80,20,1451.9259,1451.9259,1451.9387,,,,0,26,26,26,1,125,65,,,,,,,,
,,65961aa9477c6a68a5019b23,65af55e68504a42db6af7fb8,2024-01-23_14h01.23.499,bars,2023.2.3,MacIntel,60.60606061,657b66ea316d21385b68909f,,,,,,,,,,,1451.939,1452.9234,,,1453.4264,1453.6596,,179,-1,,,,,,,,,,,,,,,,bars/012.png,bars/mask008.png,,,,,,,,,,,,4,2,,,,,,,4,10,5,9,,,,,,,,,,,1452.9234,1453.4264,1453.6597,1457.2938,space,3.6278,,1457.2938,89,16,1458.2943,1458.2943,1458.3077,,,,0,27,27,27,1,90,15,,,,,,,,
,,65961aa9477c6a68a5019b23,65af55e68504a42db6af7fb8,2024-01-23_14h01.23.499,bars,2023.2.3,MacIntel,60.60606061,657b66ea316d21385b68909f,,,,,,,,,,,1458.3079,1459.2945,,,1459.7941,1460.0233,,141,141,,,,,,,,,,,,,,,,bars/015.png,bars/mask009.png,,,,,,,,,,,,3,2,,,,,,,2,10,2,9,,,,,,,,,,,1459.2945,1459.7939,1460.0234,1466.3936,space,6.3623,,1466.3936,31,19,1467.3942,1467.3942,1467.4077,,,,0,28,28,28,1,110,160,,,,,,,,
,,65961aa9477c6a68a5019b23,65af55e68504a42db6af7fb8,2024-01-23_14h01.23.499,bars,2023.2.3,MacIntel,60.60606061,657b66ea316d21385b68909f,,,,,,,,,,,1467.4079,1468.3952,,,1468.8918,1469.1263,,127,127,,,,,,,,,,,,,,,,bars/015.png,bars/mask000.png,,,,,,,,,,,,0,1,,,,,,,0,8,0,8,,,,,,,,,,,1468.3953,1468.8917,1469.1263,1476.1607,space,6.9983,,1476.1608,17,33,1477.1585,1477.1585,1477.1744,,,,0,29,29,29,1,110,160,,,,,,,,
,,65961aa9477c6a68a5019b23,65af55e68504a42db6af7fb8,2024-01-23_14h01.23.499,bars,2023.2.3,MacIntel,60.60606061,657b66ea316d21385b68909f,,,,,,,,,,,1477.1746,1478.1607,,,1478.6604,1478.8939,,58,58,,,,,,,,,,,,,,,,bars/035.png,bars/mask000.png,,,,,,,,,,,,8,2,,,,,,,2,10,2,9,,,,,,,,,,,1478.1608,1478.6604,1478.8939,1484.7575,space,5.8579,,1484.7576,63,2,1485.7605,1485.7606,1485.7741,,,,0,30,30,30,1,175,60,,,,,,,,
,,65961aa9477c6a68a5019b23,65af55e68504a42db6af7fb8,2024-01-23_14h01.23.499,bars,2023.2.3,MacIntel,60.60606061,657b66ea316d21385b68909f,,,,,,,,,,,1485.7743,1486.7607,,,1487.2598,1487.4945,,89,89,,,,,,,,,,,,,,,,bars/019.png,bars/mask008.png,,,,,,,,,,,,4,2,,,,,,,0,8,0,8,,,,,,,,,,,1486.7608,1487.2597,1487.4946,1496.5945,space,9.0947,,1496.5945,44,16,1497.5943,1497.5944,1497.6081,,,,0,31,31,31,1,45,105,,,,,,,,
,,65961aa9477c6a68a5019b23,65af55e68504a42db6af7fb8,2024-01-23_14h01.23.499,bars,2023.2.3,MacIntel,60.60606061,657b66ea316d21385b68909f,,,,,,,,,,,1497.6083,1498.5915,,,1499.0955,1499.3284,,0,180,,,,,,,,,,,,,,,,bars/048.png,bars/mask007.png,,,,,,,,,,,,4,2,,,,,,,0,6,0,5,,,,,,,,,,,1498.5915,1499.0954,1499.3285,1500.46,space,1.0963,,1500.46,50,5,1501.4614,1501.4614,1501.4622,,,,0,32,32,32,1,50,175,,,,,,,,
,,65961aa9477c6a68a5019b23,65af55e68504a42db6af7fb8,2024-01-23_14h01.23.499,bars,2023.2.3,MacIntel,60.60606061,657b66ea316d21385b68909f,,,,,,,,,,,1501.4623,1502.4612,,,1502.9611,1503.1909,,145,-35,,,,,,,,,,,,,,,,bars/016.png,bars/mask003.png,,,,,,,,,,,,1,2,,,,,,,0,4,1,4,,,,,,,,,,,1502.4614,1502.961,1503.191,1512.161,space,8.9621,,1512.161,75,20,1513.162,1513.1621,1513.1753,,,,0,33,33,33,1,40,165,,,,,,,,
,,65961aa9477c6a68a5019b23,65af55e68504a42db6af7fb8,2024-01-23_14h01.23.499,bars,2023.2.3,MacIntel,60.60606061,657b66ea316d21385b68909f,,,,,,,,,,,1513.1755,1514.1578,,,1514.6607,1514.893,,27,207,,,,,,,,,,,,,,,,bars/027.png,bars/mask000.png,,,,,,,,,,,,1,2,,,,,,,0,6,1,6,,,,,,,,,,,1514.1579,1514.6607,1514.893,1521.2286,space,6.3246,,1521.2286,83,23,1522.228,1522.2281,1522.2425,,,,0,34,34,34,1,110,50,,,,,,,,
,,65961aa9477c6a68a5019b23,65af55e68504a42db6af7fb8,2024-01-23_14h01.23.499,bars,2023.2.3,MacIntel,60.60606061,657b66ea316d21385b68909f,,,,,,,,,,,1522.2427,1523.2288,,,1523.7287,1523.9608,,24,24,,,,,,,,,,,,,,,,bars/022.png,bars/mask003.png,,,,,,,,,,,,6,2,,,,,,,2,8,2,7,,,,,,,,,,,1523.2288,1523.7286,1523.9609,1527.9277,space,3.948,,1527.9279,71,4,1528.9288,1528.9288,1528.9428,,,,0,35,35,35,1,95,20,,,,,,,,
,,65961aa9477c6a68a5019b23,65af55e68504a42db6af7fb8,2024-01-23_14h01.23.499,bars,2023.2.3,MacIntel,60.60606061,657b66ea316d21385b68909f,,,,,,,,,,,1528.943,1529.9288,,,1530.4267,1530.6581,,179,179,,,,,,,,,,,,,,,,bars/012.png,bars/mask000.png,,,,,,,,,,,,3,2,,,,,,,4,6,4,6,,,,,,,,,,,1529.9288,1530.4267,1530.6581,1538.2626,space,7.5803,,1538.2626,89,16,1539.2598,1539.2598,1539.2742,,,,0,36,36,36,1,90,15,,,,,,,,
,,65961aa9477c6a68a5019b23,65af55e68504a42db6af7fb8,2024-01-23_14h01.23.499,bars,2023.2.3,MacIntel,60.60606061,657b66ea316d21385b68909f,,,,,,,,,,,1539.2744,1540.2621,,,1540.7613,1540.9954,,33,213,,,,,,,,,,,,,,,,bars/035.png,bars/mask000.png,,,,,,,,,,,,1,2,,,,,,,6,8,6,8,,,,,,,,,,,1540.2621,1540.7613,1540.9955,1546.1292,space,5.0985,,1546.1292,38,27,1547.1284,1547.1285,1547.1373,,,,0,37,37,37,1,175,60,,,,,,,,
,,65961aa9477c6a68a5019b23,65af55e68504a42db6af7fb8,2024-01-23_14h01.23.499,bars,2023.2.3,MacIntel,60.60606061,657b66ea316d21385b68909f,,,,,,,,,,,1547.1376,1548.1259,,,1548.6285,1548.8636,,57,57,,,,,,,,,,,,,,,,bars/026.png,bars/mask007.png,,,,,,,,,,,,2,1,,,,,,,8,6,8,6,,,,,,,,,,,1548.1259,1548.6285,1548.8636,1549.529,space,0.6501,,1549.5291,22,28,1550.5282,1550.5282,1550.5309,,,,0,38,38,38,1,35,85,,,,,,,,
,,65961aa9477c6a68a5019b23,65af55e68504a42db6af7fb8,2024-01-23_14h01.23.499,bars,2023.2.3,MacIntel,60.60606061,657b66ea316d21385b68909f,,,,,,,,,,,1550.5312,1551.529,,,1552.0298,1552.2627,,173,-7,,,,,,,,,,,,,,,,bars/018.png,bars/mask004.png,,,,,,,,,,,,1,1,,,,,,,6,4,4,4,,,,,,,,,,,1551.5291,1552.0298,1552.2627,1557.5932,space,5.3002,,1557.5933,23,83,1558.596,1558.596,1558.6094,,,,0,39,39,39,1,150,90,,,,,,,,
,,65961aa9477c6a68a5019b23,65af55e68504a42db6af7fb8,2024-01-23_14h01.23.499,bars,2023.2.3,MacIntel,60.60606061,657b66ea316d21385b68909f,,,,,,,,,,,1558.6096,1559.5962,,,1560.096,1560.3297,,113,113,,,,,,,,,,,,,,,,bars/008.png,bars/mask007.png,,,,,,,,,,,,5,1,,,,,,,4,6,5,5,,,,,,,,,,,1559.5963,1560.096,1560.3298,1567.0254,space,6.6838,,1567.0255,3,67,1568.0298,1568.0298,1568.0383,,,,0,40,40,40,1,110,0,,,,,,,,
,,65961aa9477c6a68a5019b23,65af55e68504a42db6af7fb8,2024-01-23_14h01.23.499,bars,2023.2.3,MacIntel,60.60606061,657b66ea316d21385b68909f,,,,,,,,,,,1568.0386,1569.029,,,1569.527,1569.7625,,45,45,,,,,,,,,,,,,,,,bars/019.png,bars/mask008.png,,,,,,,,,,,,8,1,,,,,,,6,8,8,8,,,,,,,,,,,1569.0291,1569.527,1569.7626,1574.3595,space,4.5721,,1574.3596,0,60,1575.3626,1575.3626,1575.3744,,,,0,41,41,41,1,45,105,,,,,,,,
,,65961aa9477c6a68a5019b23,65af55e68504a42db6af7fb8,2024-01-23_14h01.23.499,bars,2023.2.3,MacIntel,60.60606061,657b66ea316d21385b68909f,,,,,,,,,,,1575.3746,1576.3619,,,1576.8598,1577.0953,,127,127,,,,,,,,,,,,,,,,bars/002.png,bars/mask003.png,,,,,,,,,,,,6,1,,,,,,,8,6,7,7,,,,,,,,,,,1576.3619,1576.8598,1577.0953,1582.8294,space,5.7136,,1582.8295,3,42,1583.8298,1583.8299,1583.8441,,,,0,42,42,42,1,130,85,,,,,,,,
,,65961aa9477c6a68a5019b23,65af55e68504a42db6af7fb8,2024-01-23_14h01.23.499,bars,2023.2.3,MacIntel,60.60606061,657b66ea316d21385b68909f,,,,,,,,,,,1583.8442,1584.8268,,,1585.3294,1585.5627,,0,180,,,,,,,,,,,,,,,,bars/023.png,bars/mask008.png,,,,,,,,,,,,2,1,,,,,,,6,4,6,5,,,,,,,,,,,1584.8268,1585.3293,1585.5627,1593.43,space,7.833,,1593.43,20,65,1594.4277,1594.4277,1594.4416,,,,0,43,43,43,1,20,115,,,,,,,,
,,65961aa9477c6a68a5019b23,65af55e68504a42db6af7fb8,2024-01-23_14h01.23.499,bars,2023.2.3,MacIntel,60.60606061,657b66ea316d21385b68909f,,,,,,,,,,,1594.4419,1595.4263,,,1595.9295,1596.1596,,122,122,,,,,,,,,,,,,,,,bars/037.png,bars/mask009.png,,,,,,,,,,,,1,2,,,,,,,4,2,5,2,,,,,,,,,,,1595.4263,1595.9294,1596.1596,1600.4609,space,4.288,,1600.4609,28,17,1601.4636,1601.4636,1601.4772,,,,0,44,44,44,1,150,105,,,,,,,,
,,65961aa9477c6a68a5019b23,65af55e68504a42db6af7fb8,2024-01-23_14h01.23.499,bars,2023.2.3,MacIntel,60.60606061,657b66ea316d21385b68909f,,,,,,,,,,,1601.4774,1602.4613,,,1602.9613,1603.1961,,115,115,,,,,,,,,,,,,,,,bars/032.png,bars/mask001.png,,,,,,,,,,,,3,1,,,,,,,2,0,4,0,,,,,,,,,,,1602.4614,1602.9613,1603.1961,1607.4949,space,4.2698,,1607.4949,10,85,1608.4935,1608.4936,1608.5071,,,,0,45,45,45,1,125,20,,,,,,,,
,,65961aa9477c6a68a5019b23,65af55e68504a42db6af7fb8,2024-01-23_14h01.23.499,bars,2023.2.3,MacIntel,60.60606061,657b66ea316d21385b68909f,,,,,,,,,,,1608.5073,1609.4943,,,1609.9971,1610.2303,,85,85,,,,,,,,,,,,,,,,bars/002.png,bars/mask002.png,,,,,,,,,,,,0,2,,,,,,,4,0,2,0,,,,,,,,,,,1609.4943,1609.997,1610.2303,1616.0281,space,5.7676,,1616.0283,45,0,1617.0302,1617.0303,1617.0434,,,,0,46,46,46,1,130,85,,,,,,,,
,,65961aa9477c6a68a5019b23,65af55e68504a42db6af7fb8,2024-01-23_14h01.23.499,bars,2023.2.3,MacIntel,60.60606061,657b66ea316d21385b68909f,,,,,,,,,,,1617.0436,1618.0289,,,1618.5284,1618.7615,,42,42,,,,,,,,,,,,,,,,bars/019.png,bars/mask000.png,,,,,,,,,,,,1,1,,,,,,,2,2,1,1,,,,,,,,,,,1618.0289,1618.5283,1618.7616,1621.2644,space,2.4717,,1621.2645,3,63,1622.2635,1622.2635,1622.2786,,,,0,47,47,47,1,45,105,,,,,,,,
,,65961aa9477c6a68a5019b23,65af55e68504a42db6af7fb8,2024-01-23_14h01.23.499,bars,2023.2.3,MacIntel,60.60606061,657b66ea316d21385b68909f,,,,,,,,,,,1622.2789,1623.2637,,,1623.7632,1623.9975,,10,10,,,,,,,,,,,,,,,,bars/009.png,bars/mask004.png,,,,,,,,,,,,3,1,,,,,,,4,0,4,0,,,,,,,,,,,1623.2637,1623.7632,1623.9975,1630.6282,space,6.6207,,1630.6283,5,85,1631.631,1631.6311,1631.6437,,,,0,48,48,48,1,15,105,,,,,,,,
,,65961aa9477c6a68a5019b23,65af55e68504a42db6af7fb8,2024-01-23_14h01.23.499,bars,2023.2.3,MacIntel,60.60606061,657b66ea316d21385b68909f,,,,,,,,,,,1631.6439,1632.6308,,,1633.1305,1633.3642,,36,36,,,,,,,,,,,,,,,,bars/000.png,bars/mask008.png,,,,,,,,,,,,5,1,,,,,,,6,0,6,1,,,,,,,,,,,1632.6308,1633.1304,1633.3642,1635.9982,space,2.5995,,1635.9983,4,71,1636.9967,1636.9967,1637.0075,,,,0,49,49,49,1,40,145,,,,,,,,
,,65961aa9477c6a68a5019b23,65af55e68504a42db6af7fb8,2024-01-23_14h01.23.499,bars,2023.2.3,MacIntel,60.60606061,657b66ea316d21385b68909f,,,,,,,,,,,,,,,,,,,,,,,,,,,,,,,,,,,,,,,,,,,,,,,,,,,,,,,,,,,,,,,,,,,,,,,,,,,,,,,,,,,,,,,,,,,,,1637.0077,1694.1451,0,1,1,1,1,sequence_tables/blk030.csv
,,65961aa9477c6a68a5019b23,65af55e68504a42db6af7fb8,2024-01-23_14h01.23.499,bars,2023.2.3,MacIntel,60.60606061,657b66ea316d21385b68909f,,,,,,,,,,,1695.2842,1696.2789,,,1696.779,1697.0159,,61,61,,,,,,,,,,,,,,,,bars/047.png,bars/mask000.png,,,,,,,,,,,,4,2,,,,,,,5,5,5,6,,,,,,1694.1544,1695.2803,space,1.0926,,1696.279,1696.7789,1697.016,1699.8121,space,2.7866,,1699.8123,46,9,1700.8154,1700.8154,1700.8298,,,,0,0,0,0,1,15,70,,,,,,,,
,,65961aa9477c6a68a5019b23,65af55e68504a42db6af7fb8,2024-01-23_14h01.23.499,bars,2023.2.3,MacIntel,60.60606061,657b66ea316d21385b68909f,,,,,,,,,,,1700.8301,1701.8144,,,1702.3153,1702.5495,,104,104,,,,,,,,,,,,,,,,bars/008.png,bars/mask006.png,,,,,,,,,,,,1,1,,,,,,,3,3,1,3,,,,,,,,,,,1701.8144,1702.3153,1702.5495,1705.8493,space,3.2666,,1705.8494,6,76,1706.8483,1706.8483,1706.8619,,,,0,1,1,1,1,110,0,,,,,,,,
,,65961aa9477c6a68a5019b23,65af55e68504a42db6af7fb8,2024-01-23_14h01.23.499,bars,2023.2.3,MacIntel,60.60606061,657b66ea316d21385b68909f,,,,,,,,,,,1706.8621,1707.8478,,,1708.3472,1708.5822,,68,68,,,,,,,,,,,,,,,,bars/034.png,bars/mask007.png,,,,,,,,,,,,6,2,,,,,,,1,5,2,7,,,,,,,,,,,1707.8478,1708.3472,1708.5822,1715.9485,space,7.3377,,1715.9485,57,3,1716.9486,1716.9487,1716.9624,,,,0,2,2,2,1,125,65,,,,,,,,
,,65961aa9477c6a68a5019b23,65af55e68504a42db6af7fb8,2024-01-23_14h01.23.499,bars,2023.2.3,MacIntel,60.60606061,657b66ea316d21385b68909f,,,,,,,,,,,1716.9626,1717.9479,,,1718.4452,1718.6821,,123,123,,,,,,,,,,,,,,,,bars/000.png,bars/mask008.png,,,,,,,,,,,,2,2,,,,,,,0,7,0,9,,,,,,,,,,,1717.9479,1718.4451,1718.6821,1726.1787,space,7.4666,,1726.1787,83,22,1727.1797,1727.1797,1727.1946,,,,0,3,3,3,1,40,145,,,,,,,,
,,65961aa9477c6a68a5019b23,65af55e68504a42db6af7fb8,2024-01-23_14h01.23.499,bars,2023.2.3,MacIntel,60.60606061,657b66ea316d21385b68909f,,,,,,,,,,,1727.1949,1728.1818,,,1728.6824,1728.9132,,97,97,,,,,,,,,,,,,,,,bars/041.png,bars/mask005.png,,,,,,,,,,,,2,2,,,,,,,0,5,2,4,,,,,,,,,,,1728.1819,1728.6823,1728.9132,1732.516,space,3.578,,1732.516,77,12,1733.5163,1733.5163,1733.5263,,,,0,4,4,4,1,20,85,,,,,,,,
,,65961aa9477c6a68a5019b23,65af55e68504a42db6af7fb8,2024-01-23_14h01.23.499,bars,2023.2.3,MacIntel,60.60606061,657b66ea316d21385b68909f,,,,,,,,,,,1733.5265,1734.5128,,,1735.0145,1735.2486,,64,64,,,,,,,,,,,,,,,,bars/022.png,bars/mask006.png,,,,,,,,,,,,0,1,,,,,,,2,7,3,8,,,,,,,,,,,1734.5129,1735.0144,1735.2488,1738.9824,space,3.7158,,1738.9825,31,44,1739.983,1739.983,1739.9971,,,,0,5,5,5,1,95,20,,,,,,,,
,,65961aa9477c6a68a5019b23,65af55e68504a42db6af7fb8,2024-01-23_14h01.23.499,bars,2023.2.3,MacIntel,60.60606061,657b66ea316d21385b68909f,,,,,,,,,,,1739.9972,1740.9825,,,1741.4832,1741.7165,,91,91,,,,,,,,,,,,,,,,bars/041.png,bars/mask005.png,,,,,,,,,,,,8,2,,,,,,,4,9,4,10,,,,,,,,,,,1740.9825,1741.4831,1741.7166,1748.1164,space,6.3715,,1748.1164,71,6,1749.1148,1749.1148,1749.1257,,,,0,6,6,6,1,20,85,,,,,,,,
,,65961aa9477c6a68a5019b23,65af55e68504a42db6af7fb8,2024-01-23_14h01.23.499,bars,2023.2.3,MacIntel,60.60606061,657b66ea316d21385b68909f,,,,,,,,,,,1749.1259,1750.1155,,,1750.616,1750.8505,,3,3,,,,,,,,,,,,,,,,bars/043.png,bars/mask003.png,,,,,,,,,,,,0,1,,,,,,,2,10,1,9,,,,,,,,,,,1750.1155,1750.616,1750.8506,1751.4145,space,0.5347,,1751.4146,27,53,1752.4166,1752.4166,1752.419,,,,0,7,7,7,1,30,130,,,,,,,,
,,65961aa9477c6a68a5019b23,65af55e68504a42db6af7fb8,2024-01-23_14h01.23.499,bars,2023.2.3,MacIntel,60.60606061,657b66ea316d21385b68909f,,,,,,,,,,,1752.4193,1753.416,,,1753.9126,1754.1459,,8,8,,,,,,,,,,,,,,,,bars/013.png,bars/mask002.png,,,,,,,,,,,,7,2,,,,,,,4,8,2,8,,,,,,,,,,,1753.416,1753.9126,1754.1459,1760.2153,space,6.0627,,1760.2154,67,2,1761.2172,1761.2172,1761.2321,,,,0,8,8,8,1,75,10,,,,,,,,
,,65961aa9477c6a68a5019b23,65af55e68504a42db6af7fb8,2024-01-23_14h01.23.499,bars,2023.2.3,MacIntel,60.60606061,657b66ea316d21385b68909f,,,,,,,,,,,1761.2324,1762.214,,,1762.7166,1762.9499,,1,181,,,,,,,,,,,,,,,,bars/045.png,bars/mask005.png,,,,,,,,,,,,5,2,,,,,,,6,6,7,7,,,,,,,,,,,1762.214,1762.7165,1762.9499,1767.3831,space,4.4139,,1767.3832,81,9,1768.3791,1768.3792,1768.3929,,,,0,9,9,9,1,100,10,,,,,,,,
,,65961aa9477c6a68a5019b23,65af55e68504a42db6af7fb8,2024-01-23_14h01.23.499,bars,2023.2.3,MacIntel,60.60606061,657b66ea316d21385b68909f,,,,,,,,,,,1768.393,1769.3825,,,1769.8829,1770.1151,,155,-25,,,,,,,,,,,,,,,,bars/005.png,bars/mask000.png,,,,,,,,,,,,3,2,,,,,,,4,4,3,6,,,,,,,,,,,1769.3825,1769.8829,1770.1151,1775.1507,space,5.0005,,1775.1507,35,15,1776.15,1776.1501,1776.1638,,,,0,10,10,10,1,10,140,,,,,,,,
,,65961aa9477c6a68a5019b23,65af55e68504a42db6af7fb8,2024-01-23_14h01.23.499,bars,2023.2.3,MacIntel,60.60606061,657b66ea316d21385b68909f,,,,,,,,,,,1776.164,1777.1497,,,1777.6495,1777.8828,,104,104,,,,,,,,,,,,,,,,bars/019.png,bars/mask004.png,,,,,,,,,,,,8,2,,,,,,,6,6,6,8,,,,,,,,,,,1777.1498,1777.6495,1777.8829,1784.6808,space,6.7806,,1784.6809,59,1,1785.6837,1785.6839,1785.6977,,,,0,11,11,11,1,45,105,,,,,,,,
,,65961aa9477c6a68a5019b23,65af55e68504a42db6af7fb8,2024-01-23_14h01.23.499,bars,2023.2.3,MacIntel,60.60606061,657b66ea316d21385b68909f,,,,,,,,,,,1785.6979,1786.6832,,,1787.1835,1787.4164,,28,208,,,,,,,,,,,,,,,,bars/022.png,bars/mask006.png,,,,,,,,,,,,5,2,,,,,,,8,8,8,7,,,,,,,,,,,1786.6832,1787.1834,1787.4165,1796.0501,space,8.6158,,1796.0502,67,8,1797.0506,1797.0507,1797.064,,,,0,12,12,12,1,95,20,,,,,,,,
,,65961aa9477c6a68a5019b23,65af55e68504a42db6af7fb8,2024-01-23_14h01.23.499,bars,2023.2.3,MacIntel,60.60606061,657b66ea316d21385b68909f,,,,,,,,,,,1797.0642,1798.0503,,,1798.5507,1798.7797,,171,-9,,,,,,,,,,,,,,,,bars/020.png,bars/mask000.png,,,,,,,,,,,,3,2,,,,,,,10,6,10,3,,,,,,,,,,,1798.0504,1798.5507,1798.7798,1806.5515,space,7.7526,,1806.5516,56,1,1807.5506,1807.5507,1807.5627,,,,0,13,13,13,1,115,170,,,,,,,,
,,65961aa9477c6a68a5019b23,65af55e68504a42db6af7fb8,2024-01-23_14h01.23.499,bars,2023.2.3,MacIntel,60.60606061,657b66ea316d21385b68909f,,,,,,,,,,,1807.5629,1808.5466,,,1809.0494,1809.2832,,1,181,,,,,,,,,,,,,,,,bars/045.png,bars/mask003.png,,,,,,,,,,,,4,2,,,,,,,10,4,8,5,,,,,,,,,,,1808.5466,1809.0494,1809.2832,1811.7848,space,2.4717,,1811.7848,81,9,1812.7839,1812.784,1812.7943,,,,0,14,14,14,1,100,10,,,,,,,,
,,65961aa9477c6a68a5019b23,65af55e68504a42db6af7fb8,2024-01-23_14h01.23.499,bars,2023.2.3,MacIntel,60.60606061,657b66ea316d21385b68909f,,,,,,,,,,,1812.7945,1813.7836,,,1814.2835,1814.5171,,174,-6,,,,,,,,,,,,,,,,bars/048.png,bars/mask002.png,,,,,,,,,,,,5,2,,,,,,,10,6,10,5,,,,,,,,,,,1813.7838,1814.2834,1814.5171,1820.1495,space,5.607,,1820.1496,56,1,1821.1504,1821.1505,1821.1638,,,,0,15,15,15,1,50,175,,,,,,,,
,,65961aa9477c6a68a5019b23,65af55e68504a42db6af7fb8,2024-01-23_14h01.23.499,bars,2023.2.3,MacIntel,60.60606061,657b66ea316d21385b68909f,,,,,,,,,,,1821.1639,1822.1511,,,1822.65,1822.885,,35,215,,,,,,,,,,,,,,,,bars/025.png,bars/mask005.png,,,,,,,,,,,,8,2,,,,,,,10,8,10,9,,,,,,,,,,,1822.1511,1822.65,1822.885,1830.8517,space,7.9572,,1830.8518,70,5,1831.8506,1831.8506,1831.866,,,,0,16,16,16,1,105,40,,,,,,,,
,,65961aa9477c6a68a5019b23,65af55e68504a42db6af7fb8,2024-01-23_14h01.23.499,bars,2023.2.3,MacIntel,60.60606061,657b66ea316d21385b68909f,,,,,,,,,,,1831.8662,1832.8509,,,1833.3514,1833.5843,,168,-12,,,,,,,,,,,,,,,,bars/020.png,bars/mask000.png,,,,,,,,,,,,7,2,,,,,,,8,10,8,8,,,,,,,,,,,1832.8509,1833.3513,1833.5843,1837.1514,space,3.5605,,1837.1515,53,2,1838.1515,1838.1515,1838.1644,,,,0,17,17,17,1,115,170,,,,,,,,
,,65961aa9477c6a68a5019b23,65af55e68504a42db6af7fb8,2024-01-23_14h01.23.499,bars,2023.2.3,MacIntel,60.60606061,657b66ea316d21385b68909f,,,,,,,,,,,1838.1646,1839.1502,,,1839.6508,1839.8837,,13,193,,,,,,,,,,,,,,,,bars/025.png,bars/mask000.png,,,,,,,,,,,,1,2,,,,,,,6,8,4,9,,,,,,,,,,,1839.1503,1839.6508,1839.8837,1843.4476,space,3.538,,1843.4478,88,27,1844.4491,1844.4492,1844.4637,,,,0,18,18,18,1,105,40,,,,,,,,
,,65961aa9477c6a68a5019b23,65af55e68504a42db6af7fb8,2024-01-23_14h01.23.499,bars,2023.2.3,MacIntel,60.60606061,657b66ea316d21385b68909f,,,,,,,,,,,1844.464,1845.4515,,,1845.9514,1846.1856,,175,-5,,,,,,,,,,,,,,,,bars/014.png,bars/mask008.png,,,,,,,,,,,,4,2,,,,,,,4,6,5,5,,,,,,,,,,,1845.4515,1845.9513,1846.1857,1847.3177,space,1.1127,,1847.3178,85,5,1848.3181,1848.3182,1848.3193,,,,0,19,19,19,1,80,0,,,,,,,,
,,65961aa9477c6a68a5019b23,65af55e68504a42db6af7fb8,2024-01-23_14h01.23.499,bars,2023.2.3,MacIntel,60.60606061,657b66ea316d21385b68909f,,,,,,,,,,,1848.3196,1849.3174,,,1849.8173,1850.049,,92,92,,,,,,,,,,,,,,,,bars/046.png,bars/mask004.png,,,,,,,,,,,,7,2,,,,,,,6,8,7,9,,,,,,,,,,,1849.3175,1849.8173,1850.049,1852.3186,space,2.2438,,1852.3187,63,7,1853.3183,1853.3184,1853.3316,,,,0,20,20,20,1,155,85,,,,,,,,
,,65961aa9477c6a68a5019b23,65af55e68504a42db6af7fb8,2024-01-23_14h01.23.499,bars,2023.2.3,MacIntel,60.60606061,657b66ea316d21385b68909f,,,,,,,,,,,1853.3317,1854.3186,,,1854.8187,1855.0523,,95,95,,,,,,,,,,,,,,,,bars/039.png,bars/mask006.png,,,,,,,,,,,,7,2,,,,,,,4,10,5,10,,,,,,,,,,,1854.3186,1854.8187,1855.0525,1858.4845,space,3.4177,,1858.4847,80,10,1859.4838,1859.4838,1859.4948,,,,0,21,21,21,1,175,105,,,,,,,,
,,65961aa9477c6a68a5019b23,65af55e68504a42db6af7fb8,2024-01-23_14h01.23.499,bars,2023.2.3,MacIntel,60.60606061,657b66ea316d21385b68909f,,,,,,,,,,,1859.495,1860.485,,,1860.9855,1861.2176,,99,99,,,,,,,,,,,,,,,,bars/006.png,bars/mask000.png,,,,,,,,,,,,10,2,,,,,,,2,8,2,10,,,,,,,,,,,1860.485,1860.9855,1861.2176,1865.0865,space,3.8641,,1865.0865,64,1,1866.0848,1866.0849,1866.095,,,,0,22,22,22,1,35,100,,,,,,,,
,,65961aa9477c6a68a5019b23,65af55e68504a42db6af7fb8,2024-01-23_14h01.23.499,bars,2023.2.3,MacIntel,60.60606061,657b66ea316d21385b68909f,,,,,,,,,,,1866.0953,1867.0854,,,1867.5827,1867.8184,,95,95,,,,,,,,,,,,,,,,bars/037.png,bars/mask002.png,,,,,,,,,,,,4,2,,,,,,,0,6,0,6,,,,,,,,,,,1867.0854,1867.5827,1867.8184,1873.5853,space,5.7595,,1873.5853,55,10,1874.5841,1874.5842,1874.5977,,,,0,23,23,23,1,150,105,,,,,,,,
,,65961aa9477c6a68a5019b23,65af55e68504a42db6af7fb8,2024-01-23_14h01.23.499,bars,2023.2.3,MacIntel,60.60606061,657b66ea316d21385b68909f,,,,,,,,,,,1874.5979,1875.5823,,,1876.0844,1876.3183,,7,7,,,,,,,,,,,,,,,,bars/032.png,bars/mask003.png,,,,,,,,,,,,5,2,,,,,,,2,8,2,9,,,,,,,,,,,1875.5824,1876.0844,1876.3184,1885.0522,space,8.714,,1885.0523,62,13,1886.0512,1886.0512,1886.064,,,,0,24,24,24,1,125,20,,,,,,,,
,,65961aa9477c6a68a5019b23,65af55e68504a42db6af7fb8,2024-01-23_14h01.23.499,bars,2023.2.3,MacIntel,60.60606061,657b66ea316d21385b68909f,,,,,,,,,,,1886.0641,1887.0484,,,1887.5525,1887.7858,,58,238,,,,,,,,,,,,,,,,bars/035.png,bars/mask003.png,,,,,,,,,,,,9,2,,,,,,,0,10,0,10,,,,,,,,,,,1887.0485,1887.5524,1887.7858,1894.3485,space,6.5351,,1894.3486,63,2,1895.352,1895.352,1895.3641,,,,0,25,25,25,1,175,60,,,,,,,,
,,65961aa9477c6a68a5019b23,65af55e68504a42db6af7fb8,2024-01-23_14h01.23.499,bars,2023.2.3,MacIntel,60.60606061,657b66ea316d21385b68909f,,,,,,,,,,,1895.3643,1896.3524,,,1896.8527,1897.086,,169,-11,,,,,,,,,,,,,,,,bars/033.png,bars/mask008.png,,,,,,,,,,,,5,2,,,,,,,0,8,0,9,,,,,,,,,,,1896.3524,1896.8527,1897.0861,1902.42,space,5.3201,,1902.4201,36,14,1903.4185,1903.4186,1903.4311,,,,0,26,26,26,1,25,155,,,,,,,,
,,65961aa9477c6a68a5019b23,65af55e68504a42db6af7fb8,2024-01-23_14h01.23.499,bars,2023.2.3,MacIntel,60.60606061,657b66ea316d21385b68909f,,,,,,,,,,,1903.4314,1904.4198,,,1904.9187,1905.1527,,128,128,,,,,,,,,,,,,,,,bars/005.png,bars/mask003.png,,,,,,,,,,,,3,2,,,,,,,0,6,3,5,,,,,,,,,,,1904.4198,1904.9187,1905.1527,1907.6185,space,2.434,,1907.6185,62,12,1908.6193,1908.6194,1908.6328,,,,0,27,27,27,1,10,140,,,,,,,,
,,65961aa9477c6a68a5019b23,65af55e68504a42db6af7fb8,2024-01-23_14h01.23.499,bars,2023.2.3,MacIntel,60.60606061,657b66ea316d21385b68909f,,,,,,,,,,,1908.633,1909.6155,,,1910.119,1910.3485,,54,54,,,,,,,,,,,,,,,,bars/030.png,bars/mask001.png,,,,,,,,,,,,5,2,,,,,,,0,8,1,8,,,,,,,,,,,1909.6156,1910.1189,1910.3485,1912.584,space,2.2041,,1912.5842,86,11,1913.5838,1913.5839,1913.5851,,,,0,28,28,28,1,140,65,,,,,,,,
,,65961aa9477c6a68a5019b23,65af55e68504a42db6af7fb8,2024-01-23_14h01.23.499,bars,2023.2.3,MacIntel,60.60606061,657b66ea316d21385b68909f,,,,,,,,,,,1913.5855,1914.5861,,,1915.0857,1915.318,,88,88,,,,,,,,,,,,,,,,bars/023.png,bars/mask005.png,,,,,,,,,,,,1,2,,,,,,,0,6,2,8,,,,,,,,,,,1914.5861,1915.0857,1915.3181,1922.3543,space,7.016,,1922.3544,68,27,1923.3505,1923.3506,1923.3633,,,,0,29,29,29,1,20,115,,,,,,,,
,,65961aa9477c6a68a5019b23,65af55e68504a42db6af7fb8,2024-01-23_14h01.23.499,bars,2023.2.3,MacIntel,60.60606061,657b66ea316d21385b68909f,,,,,,,,,,,1923.3635,1924.353,,,1924.8489,1925.0858,,53,53,,,,,,,,,,,,,,,,bars/025.png,bars/mask007.png,,,,,,,,,,,,4,2,,,,,,,0,8,0,7,,,,,,,,,,,1924.353,1924.8489,1925.0859,1930.7198,space,5.5984,,1930.7199,52,13,1931.7203,1931.7203,1931.7333,,,,0,30,30,30,1,105,40,,,,,,,,
,,65961aa9477c6a68a5019b23,65af55e68504a42db6af7fb8,2024-01-23_14h01.23.499,bars,2023.2.3,MacIntel,60.60606061,657b66ea316d21385b68909f,,,,,,,,,,,1931.7336,1932.7209,,,1933.22,1933.453,,84,84,,,,,,,,,,,,,,,,bars/038.png,bars/mask002.png,,,,,,,,,,,,5,2,,,,,,,2,10,0,10,,,,,,,,,,,1932.7209,1933.2199,1933.4531,1937.1197,space,3.6473,,1937.1198,81,14,1938.1184,1938.1184,1938.1312,,,,0,31,31,31,1,165,70,,,,,,,,
,,65961aa9477c6a68a5019b23,65af55e68504a42db6af7fb8,2024-01-23_14h01.23.499,bars,2023.2.3,MacIntel,60.60606061,657b66ea316d21385b68909f,,,,,,,,,,,1938.1314,1939.1205,,,1939.6199,1939.8517,,89,89,,,,,,,,,,,,,,,,bars/002.png,bars/mask009.png,,,,,,,,,,,,8,2,,,,,,,4,10,5,9,,,,,,,,,,,1939.1206,1939.6198,1939.8518,1945.0544,space,5.1716,,1945.0545,41,4,1946.0528,1946.0529,1946.0664,,,,0,32,32,32,1,130,85,,,,,,,,
,,65961aa9477c6a68a5019b23,65af55e68504a42db6af7fb8,2024-01-23_14h01.23.499,bars,2023.2.3,MacIntel,60.60606061,657b66ea316d21385b68909f,,,,,,,,,,,1946.0666,1947.0519,,,1947.5528,1947.7858,,137,137,,,,,,,,,,,,,,,,bars/047.png,bars/mask001.png,,,,,,,,,,,,0,1,,,,,,,6,8,7,8,,,,,,,,,,,1947.0519,1947.5528,1947.786,1949.0869,space,1.2927,,1949.0869,58,67,1950.0857,1950.0858,1950.0884,,,,0,33,33,33,1,15,70,,,,,,,,
,,65961aa9477c6a68a5019b23,65af55e68504a42db6af7fb8,2024-01-23_14h01.23.499,bars,2023.2.3,MacIntel,60.60606061,657b66ea316d21385b68909f,,,,,,,,,,,1950.0886,1951.0829,,,1951.5851,1951.8204,,105,105,,,,,,,,,,,,,,,,bars/023.png,bars/mask002.png,,,,,,,,,,,,5,2,,,,,,,4,6,4,7,,,,,,,,,,,1951.0829,1951.5851,1951.8204,1958.8204,space,6.9702,,1958.8205,85,10,1959.8163,1959.8164,1959.831,,,,0,34,34,34,1,20,115,,,,,,,,
,,65961aa9477c6a68a5019b23,65af55e68504a42db6af7fb8,2024-01-23_14h01.23.499,bars,2023.2.3,MacIntel,60.60606061,657b66ea316d21385b68909f,,,,,,,,,,,1959.8312,1960.8163,,,1961.3198,1961.5532,,109,-71,,,,,,,,,,,,,,,,bars/039.png,bars/mask000.png,,,,,,,,,,,,6,2,,,,,,,6,8,6,7,,,,,,,,,,,1960.8163,1961.3198,1961.5532,1968.7532,space,7.1742,,1968.7533,66,4,1969.7531,1969.7532,1969.7663,,,,0,35,35,35,1,175,105,,,,,,,,
,,65961aa9477c6a68a5019b23,65af55e68504a42db6af7fb8,2024-01-23_14h01.23.499,bars,2023.2.3,MacIntel,60.60606061,657b66ea316d21385b68909f,,,,,,,,,,,1969.7664,1970.7533,,,1971.2551,1971.4851,,104,104,,,,,,,,,,,,,,,,bars/006.png,bars/mask008.png,,,,,,,,,,,,8,2,,,,,,,8,10,7,9,,,,,,,,,,,1970.7533,1971.255,1971.4852,1979.521,space,8.0174,,1979.5212,69,4,1980.5184,1980.5186,1980.5336,,,,0,36,36,36,1,35,100,,,,,,,,
,,65961aa9477c6a68a5019b23,65af55e68504a42db6af7fb8,2024-01-23_14h01.23.499,bars,2023.2.3,MacIntel,60.60606061,657b66ea316d21385b68909f,,,,,,,,,,,1980.5338,1981.5208,,,1982.0207,1982.2517,,0,180,,,,,,,,,,,,,,,,bars/033.png,bars/mask006.png,,,,,,,,,,,,2,2,,,,,,,10,10,9,10,,,,,,,,,,,1981.521,1982.0206,1982.2517,1985.9209,space,3.6392,,1985.9209,25,25,1986.9204,1986.9205,1986.9302,,,,0,37,37,37,1,25,155,,,,,,,,
,,65961aa9477c6a68a5019b23,65af55e68504a42db6af7fb8,2024-01-23_14h01.23.499,bars,2023.2.3,MacIntel,60.60606061,657b66ea316d21385b68909f,,,,,,,,,,,1986.9304,1987.9201,,,1988.4213,1988.6542,,118,118,,,,,,,,,,,,,,,,bars/000.png,bars/mask005.png,,,,,,,,,,,,1,2,,,,,,,10,8,10,8,,,,,,,,,,,1987.9201,1988.4213,1988.6542,1994.151,space,5.4912,,1994.1512,78,27,1995.154,1995.154,1995.169,,,,0,38,38,38,1,40,145,,,,,,,,
,,65961aa9477c6a68a5019b23,65af55e68504a42db6af7fb8,2024-01-23_14h01.23.499,bars,2023.2.3,MacIntel,60.60606061,657b66ea316d21385b68909f,,,,,,,,,,,1995.1692,1996.1504,,,1996.6537,1996.8863,,178,-2,,,,,,,,,,,,,,,,bars/014.png,bars/mask005.png,,,,,,,,,,,,8,2,,,,,,,10,10,10,9,,,,,,,,,,,1996.1506,1996.6536,1996.8864,1998.621,space,1.7138,,1998.621,82,2,1999.6171,1999.6171,1999.6182,,,,0,39,39,39,1,80,0,,,,,,,,
,,65961aa9477c6a68a5019b23,65af55e68504a42db6af7fb8,2024-01-23_14h01.23.499,bars,2023.2.3,MacIntel,60.60606061,657b66ea316d21385b68909f,,,,,,,,,,,1999.6185,2000.618,,,2001.1209,2001.3547,,86,86,,,,,,,,,,,,,,,,bars/046.png,bars/mask002.png,,,,,,,,,,,,8,2,,,,,,,10,8,9,8,,,,,,,,,,,2000.618,2001.1209,2001.3547,2003.5526,space,2.1761,,2003.5527,69,1,2004.5538,2004.5538,2004.5548,,,,0,40,40,40,1,155,85,,,,,,,,
,,65961aa9477c6a68a5019b23,65af55e68504a42db6af7fb8,2024-01-23_14h01.23.499,bars,2023.2.3,MacIntel,60.60606061,657b66ea316d21385b68909f,,,,,,,,,,,2004.5551,2005.5539,,,2006.0544,2006.284,,178,178,,,,,,,,,,,,,,,,bars/048.png,bars/mask000.png,,,,,,,,,,,,6,2,,,,,,,8,6,7,7,,,,,,,,,,,2005.554,2006.0544,2006.284,2009.955,space,3.6376,,2009.955,52,3,2010.9542,2010.9543,2010.9663,,,,0,41,41,41,1,50,175,,,,,,,,
,,65961aa9477c6a68a5019b23,65af55e68504a42db6af7fb8,2024-01-23_14h01.23.499,bars,2023.2.3,MacIntel,60.60606061,657b66ea316d21385b68909f,,,,,,,,,,,2010.9665,2011.9536,,,2012.4546,2012.6878,,78,78,,,,,,,,,,,,,,,,bars/018.png,bars/mask007.png,,,,,,,,,,,,2,2,,,,,,,10,4,10,3,,,,,,,,,,,2011.9537,2012.4546,2012.6879,2018.6219,space,5.9002,,2018.622,72,12,2019.6208,2019.6209,2019.6333,,,,0,42,42,42,1,150,90,,,,,,,,
,,65961aa9477c6a68a5019b23,65af55e68504a42db6af7fb8,2024-01-23_14h01.23.499,bars,2023.2.3,MacIntel,60.60606061,657b66ea316d21385b68909f,,,,,,,,,,,2019.6334,2020.6206,,,2021.1206,2021.3543,,19,199,,,,,,,,,,,,,,,,bars/025.png,bars/mask004.png,,,,,,,,,,,,2,2,,,,,,,10,6,10,6,,,,,,,,,,,2020.6207,2021.1205,2021.3543,2029.9215,space,8.5345,,2029.9216,86,21,2030.9215,2030.9216,2030.9349,,,,0,43,43,43,1,105,40,,,,,,,,
,,65961aa9477c6a68a5019b23,65af55e68504a42db6af7fb8,2024-01-23_14h01.23.499,bars,2023.2.3,MacIntel,60.60606061,657b66ea316d21385b68909f,,,,,,,,,,,2030.9351,2031.9209,,,2032.4217,2032.6552,,158,-22,,,,,,,,,,,,,,,,bars/016.png,bars/mask003.png,,,,,,,,,,,,4,2,,,,,,,10,4,9,5,,,,,,,,,,,2031.921,2032.4216,2032.6553,2037.3226,space,4.646,,2037.3226,62,7,2038.3218,2038.3219,2038.3346,,,,0,44,44,44,1,40,165,,,,,,,,
,,65961aa9477c6a68a5019b23,65af55e68504a42db6af7fb8,2024-01-23_14h01.23.499,bars,2023.2.3,MacIntel,60.60606061,657b66ea316d21385b68909f,,,,,,,,,,,2038.3348,2039.3185,,,2039.8216,2040.0537,,52,52,,,,,,,,,,,,,,,,bars/007.png,bars/mask005.png,,,,,,,,,,,,0,2,,,,,,,8,2,7,0,,,,,,,,,,,2039.3186,2039.8215,2040.0538,2045.2217,space,5.1319,,2045.2218,57,3,2046.2194,2046.2195,2046.2323,,,,0,45,45,45,1,175,55,,,,,,,,
,,65961aa9477c6a68a5019b23,65af55e68504a42db6af7fb8,2024-01-23_14h01.23.499,bars,2023.2.3,MacIntel,60.60606061,657b66ea316d21385b68909f,,,,,,,,,,,2046.2325,2047.2218,,,2047.722,2047.9557,,85,85,,,,,,,,,,,,,,,,bars/037.png,bars/mask006.png,,,,,,,,,,,,1,2,,,,,,,6,4,4,4,,,,,,,,,,,2047.2218,2047.7219,2047.9558,2050.1881,space,2.2146,,2050.1881,65,20,2051.1883,2051.1884,2051.2008,,,,0,46,46,46,1,150,105,,,,,,,,
,,65961aa9477c6a68a5019b23,65af55e68504a42db6af7fb8,2024-01-23_14h01.23.499,bars,2023.2.3,MacIntel,60.60606061,657b66ea316d21385b68909f,,,,,,,,,,,2051.2009,2052.1854,,,2052.6881,2052.9202,,86,86,,,,,,,,,,,,,,,,bars/030.png,bars/mask006.png,,,,,,,,,,,,0,2,,,,,,,8,2,9,1,,,,,,,,,,,2052.1854,2052.688,2052.9203,2055.1188,space,2.1898,,2055.1189,54,21,2056.1223,2056.1224,2056.1325,,,,0,47,47,47,1,140,65,,,,,,,,
,,65961aa9477c6a68a5019b23,65af55e68504a42db6af7fb8,2024-01-23_14h01.23.499,bars,2023.2.3,MacIntel,60.60606061,657b66ea316d21385b68909f,,,,,,,,,,,2056.1327,2057.1208,,,2057.6219,2057.8558,,86,86,,,,,,,,,,,,,,,,bars/049.png,bars/mask007.png,,,,,,,,,,,,0,2,,,,,,,10,0,10,0,,,,,,,,,,,2057.1208,2057.6219,2057.8559,2060.721,space,2.857,,2060.721,74,29,2061.7231,2061.7232,2061.7363,,,,0,48,48,48,1,160,115,,,,,,,,
,,65961aa9477c6a68a5019b23,65af55e68504a42db6af7fb8,2024-01-23_14h01.23.499,bars,2023.2.3,MacIntel,60.60606061,657b66ea316d21385b68909f,,,,,,,,,,,2061.7364,2062.7196,,,2063.2235,2063.4553,,121,121,,,,,,,,,,,,,,,,bars/031.png,bars/mask005.png,,,,,,,,,,,,10,1,,,,,,,10,2,10,3,,,,,,,,,,,2062.7196,2063.2234,2063.4554,2070.3217,space,6.8436,,2070.3219,1,86,2071.3194,2071.3194,2071.333,,,,0,49,49,49,1,120,35,,,,,,,,
,,65961aa9477c6a68a5019b23,65af55e68504a42db6af7fb8,2024-01-23_14h01.23.499,bars,2023.2.3,MacIntel,60.60606061,657b66ea316d21385b68909f,,,,,,,,,,,,,,,,,,,,,,,,,,,,,,,,,,,,,,,,,,,,,,,,,,,,,,,,,,,,,,,,,,,,,,,,,,,,,,,,,,,,,,,,,,,,,2071.3331,2117.0695,0,2,2,3,1,sequence_tables/blk024.csv
,,65961aa9477c6a68a5019b23,65af55e68504a42db6af7fb8,2024-01-23_14h01.23.499,bars,2023.2.3,MacIntel,60.60606061,657b66ea316d21385b68909f,,,,,,,,,,,2162.7041,2163.6885,,,2164.191,2164.4205,,85,85,,,,,,,,,,,,,,,,bars/028.png,bars/mask008.png,,,,,,,,,,,,0,2,,,,,,,9,4,9,4,,,,,,2117.0772,2162.6909,space,45.6065,,2163.6885,2164.191,2164.4206,2169.2581,space,4.8103,,2169.2581,40,35,2170.2566,2170.2567,2170.2705,,,,0,0,0,0,1,45,120,,,,,,,,
,,65961aa9477c6a68a5019b23,65af55e68504a42db6af7fb8,2024-01-23_14h01.23.499,bars,2023.2.3,MacIntel,60.60606061,657b66ea316d21385b68909f,,,,,,,,,,,2170.2708,2171.2569,,,2171.7578,2171.9917,,56,56,,,,,,,,,,,,,,,,bars/034.png,bars/mask000.png,,,,,,,,,,,,0,2,,,,,,,7,2,7,0,,,,,,,,,,,2171.257,2171.7577,2171.9918,2176.724,space,4.7175,,2176.7241,69,9,2177.7243,2177.7243,2177.7369,,,,0,1,1,1,1,125,65,,,,,,,,
,,65961aa9477c6a68a5019b23,65af55e68504a42db6af7fb8,2024-01-23_14h01.23.499,bars,2023.2.3,MacIntel,60.60606061,657b66ea316d21385b68909f,,,,,,,,,,,2177.7371,2178.7245,,,2179.2235,2179.4572,,76,76,,,,,,,,,,,,,,,,bars/012.png,bars/mask005.png,,,,,,,,,,,,4,1,,,,,,,9,0,8,1,,,,,,,,,,,2178.7245,2179.2235,2179.4573,2181.858,space,2.395,,2181.858,14,61,2182.8565,2182.8565,2182.8698,,,,0,2,2,2,1,90,15,,,,,,,,
,,65961aa9477c6a68a5019b23,65af55e68504a42db6af7fb8,2024-01-23_14h01.23.499,bars,2023.2.3,MacIntel,60.60606061,657b66ea316d21385b68909f,,,,,,,,,,,2182.8699,2183.8584,,,2184.3564,2184.5907,,178,178,,,,,,,,,,,,,,,,bars/018.png,bars/mask003.png,,,,,,,,,,,,1,1,,,,,,,7,2,8,2,,,,,,,,,,,2183.8585,2184.3563,2184.5908,2186.4542,space,1.8321,,2186.4543,28,88,2187.4582,2187.4583,2187.4681,,,,0,3,3,3,1,150,90,,,,,,,,
,,65961aa9477c6a68a5019b23,65af55e68504a42db6af7fb8,2024-01-23_14h01.23.499,bars,2023.2.3,MacIntel,60.60606061,657b66ea316d21385b68909f,,,,,,,,,,,2187.4683,2188.4579,,,2188.9553,2189.191,,38,38,,,,,,,,,,,,,,,,bars/003.png,bars/mask005.png,,,,,,,,,,,,5,1,,,,,,,9,4,9,4,,,,,,,,,,,2188.458,2188.9553,2189.191,2197.1557,space,7.9589,,2197.1557,13,78,2198.1586,2198.1586,2198.173,,,,0,4,4,4,1,25,140,,,,,,,,
,,65961aa9477c6a68a5019b23,65af55e68504a42db6af7fb8,2024-01-23_14h01.23.499,bars,2023.2.3,MacIntel,60.60606061,657b66ea316d21385b68909f,,,,,,,,,,,2198.1732,2199.1576,,,2199.6575,2199.8917,,142,142,,,,,,,,,,,,,,,,bars/037.png,bars/mask007.png,,,,,,,,,,,,7,1,,,,,,,10,6,10,6,,,,,,,,,,,2199.1577,2199.6575,2199.8918,2208.2919,space,8.3937,,2208.292,8,37,2209.2917,2209.2919,2209.3045,,,,0,5,5,5,1,150,105,,,,,,,,
,,65961aa9477c6a68a5019b23,65af55e68504a42db6af7fb8,2024-01-23_14h01.23.499,bars,2023.2.3,MacIntel,60.60606061,657b66ea316d21385b68909f,,,,,,,,,,,2209.3046,2210.2911,,,2210.7917,2211.0243,,80,80,,,,,,,,,,,,,,,,bars/022.png,bars/mask005.png,,,,,,,,,,,,5,1,,,,,,,8,4,9,6,,,,,,,,,,,2210.2912,2210.7917,2211.0243,2218.8928,space,7.8357,,2218.8928,15,60,2219.892,2219.892,2219.9045,,,,0,6,6,6,1,95,20,,,,,,,,
,,65961aa9477c6a68a5019b23,65af55e68504a42db6af7fb8,2024-01-23_14h01.23.499,bars,2023.2.3,MacIntel,60.60606061,657b66ea316d21385b68909f,,,,,,,,,,,2219.9046,2220.8918,,,2221.3912,2221.6249,,91,91,,,,,,,,,,,,,,,,bars/020.png,bars/mask002.png,,,,,,,,,,,,2,1,,,,,,,10,2,10,2,,,,,,,,,,,2220.8918,2221.3912,2221.625,2225.9253,space,4.2947,,2225.9254,24,79,2226.9237,2226.9238,2226.9381,,,,0,7,7,7,1,115,170,,,,,,,,
,,65961aa9477c6a68a5019b23,65af55e68504a42db6af7fb8,2024-01-23_14h01.23.499,bars,2023.2.3,MacIntel,60.60606061,657b66ea316d21385b68909f,,,,,,,,,,,2226.9382,2227.9235,,,2228.4256,2228.6569,,38,218,,,,,,,,,,,,,,,,bars/043.png,bars/mask006.png,,,,,,,,,,,,7,1,,,,,,,10,4,10,4,,,,,,,,,,,2227.9235,2228.4255,2228.657,2233.5598,space,4.8702,,2233.5598,8,88,2234.5584,2234.5585,2234.5713,,,,0,8,8,8,1,30,130,,,,,,,,
,,65961aa9477c6a68a5019b23,65af55e68504a42db6af7fb8,2024-01-23_14h01.23.499,bars,2023.2.3,MacIntel,60.60606061,657b66ea316d21385b68909f,,,,,,,,,,,2234.5715,2235.5587,,,2236.0551,2236.2918,,178,-2,,,,,,,,,,,,,,,,bars/039.png,bars/mask001.png,,,,,,,,,,,,5,1,,,,,,,8,6,6,5,,,,,,,,,,,2235.5588,2236.055,2236.2918,2239.2917,space,2.9909,,2239.2918,3,73,2240.2924,2240.2924,2240.3049,,,,0,9,9,9,1,175,105,,,,,,,,
,,65961aa9477c6a68a5019b23,65af55e68504a42db6af7fb8,2024-01-23_14h01.23.499,bars,2023.2.3,MacIntel,60.60606061,657b66ea316d21385b68909f,,,,,,,,,,,2240.3051,2241.2915,,,2241.7925,2242.0254,,86,86,,,,,,,,,,,,,,,,bars/022.png,bars/mask004.png,,,,,,,,,,,,4,1,,,,,,,6,4,6,5,,,,,,,,,,,2241.2915,2241.7925,2242.0255,2245.5595,space,3.5,,2245.5596,9,66,2246.5583,2246.5583,2246.5728,,,,0,10,10,10,1,95,20,,,,,,,,
,,65961aa9477c6a68a5019b23,65af55e68504a42db6af7fb8,2024-01-23_14h01.23.499,bars,2023.2.3,MacIntel,60.60606061,657b66ea316d21385b68909f,,,,,,,,,,,2246.573,2247.5591,,,2248.0595,2248.2927,,175,175,,,,,,,,,,,,,,,,bars/007.png,bars/mask006.png,,,,,,,,,,,,3,1,,,,,,,4,2,3,2,,,,,,,,,,,2247.5591,2248.0595,2248.2928,2250.2565,space,1.9471,,2250.2565,0,60,2251.2591,2251.2591,2251.2602,,,,0,11,11,11,1,175,55,,,,,,,,
,,65961aa9477c6a68a5019b23,65af55e68504a42db6af7fb8,2024-01-23_14h01.23.499,bars,2023.2.3,MacIntel,60.60606061,657b66ea316d21385b68909f,,,,,,,,,,,2251.2605,2252.259,,,2252.7553,2252.9893,,47,47,,,,,,,,,,,,,,,,bars/043.png,bars/mask005.png,,,,,,,,,,,,1,1,,,,,,,2,0,3,2,,,,,,,,,,,2252.2592,2252.7552,2252.9893,2255.4597,space,2.4459,,2255.4598,17,83,2256.4596,2256.4597,2256.4731,,,,0,12,12,12,1,30,130,,,,,,,,
,,65961aa9477c6a68a5019b23,65af55e68504a42db6af7fb8,2024-01-23_14h01.23.499,bars,2023.2.3,MacIntel,60.60606061,657b66ea316d21385b68909f,,,,,,,,,,,2256.4733,2257.4569,,,2257.9575,2258.1924,,179,-1,,,,,,,,,,,,,,,,bars/039.png,bars/mask007.png,,,,,,,,,,,,3,1,,,,,,,4,0,4,0,,,,,,,,,,,2257.4569,2257.9575,2258.1925,2266.893,space,8.665,,2266.8931,4,74,2267.8934,2267.8935,2267.906,,,,0,13,13,13,1,175,105,,,,,,,,
,,65961aa9477c6a68a5019b23,65af55e68504a42db6af7fb8,2024-01-23_14h01.23.499,bars,2023.2.3,MacIntel,60.60606061,657b66ea316d21385b68909f,,,,,,,,,,,2267.9062,2268.8927,,,2269.389,2269.6253,,39,39,,,,,,,,,,,,,,,,bars/004.png,bars/mask009.png,,,,,,,,,,,,3,1,,,,,,,6,2,5,2,,,,,,,,,,,2268.8927,2269.3889,2269.6253,2274.8929,space,5.2343,,2274.8931,14,86,2275.8933,2275.8933,2275.9062,,,,0,14,14,14,1,25,125,,,,,,,,
,,65961aa9477c6a68a5019b23,65af55e68504a42db6af7fb8,2024-01-23_14h01.23.499,bars,2023.2.3,MacIntel,60.60606061,657b66ea316d21385b68909f,,,,,,,,,,,2275.9064,2276.8931,,,2277.3908,2277.6229,,106,106,,,,,,,,,,,,,,,,bars/049.png,bars/mask004.png,,,,,,,,,,,,4,2,,,,,,,8,4,10,6,,,,,,,,,,,2276.8933,2277.3907,2277.6229,2281.9254,space,4.2708,,2281.9254,54,9,2282.9258,2282.9259,2282.9388,,,,0,15,15,15,1,160,115,,,,,,,,
,,65961aa9477c6a68a5019b23,65af55e68504a42db6af7fb8,2024-01-23_14h01.23.499,bars,2023.2.3,MacIntel,60.60606061,657b66ea316d21385b68909f,,,,,,,,,,,2282.939,2283.9248,,,2284.4269,2284.6571,,46,46,,,,,,,,,,,,,,,,bars/034.png,bars/mask002.png,,,,,,,,,,,,3,2,,,,,,,10,6,10,7,,,,,,,,,,,2283.925,2284.4269,2284.6571,2287.7237,space,3.0459,,2287.7237,79,19,2288.7265,2288.7266,2288.7402,,,,0,16,16,16,1,125,65,,,,,,,,
,,65961aa9477c6a68a5019b23,65af55e68504a42db6af7fb8,2024-01-23_14h01.23.499,bars,2023.2.3,MacIntel,60.60606061,657b66ea316d21385b68909f,,,,,,,,,,,2288.7403,2289.7265,,,2290.224,2290.4599,,90,90,,,,,,,,,,,,,,,,bars/011.png,bars/mask000.png,,,,,,,,,,,,4,2,,,,,,,8,4,8,5,,,,,,,,,,,2289.7265,2290.2239,2290.46,2292.4936,space,2.015,,2292.4937,70,5,2293.4934,2293.4934,2293.4947,,,,0,17,17,17,1,160,85,,,,,,,,
,,65961aa9477c6a68a5019b23,65af55e68504a42db6af7fb8,2024-01-23_14h01.23.499,bars,2023.2.3,MacIntel,60.60606061,657b66ea316d21385b68909f,,,,,,,,,,,2293.495,2294.4945,,,2294.9938,2295.2271,,1,1,,,,,,,,,,,,,,,,bars/012.png,bars/mask004.png,,,,,,,,,,,,3,2,,,,,,,6,6,5,6,,,,,,,,,,,2294.4946,2294.9937,2295.2271,2301.0604,space,5.7982,,2301.0606,89,14,2302.0595,2302.0595,2302.0715,,,,0,18,18,18,1,90,15,,,,,,,,
,,65961aa9477c6a68a5019b23,65af55e68504a42db6af7fb8,2024-01-23_14h01.23.499,bars,2023.2.3,MacIntel,60.60606061,657b66ea316d21385b68909f,,,,,,,,,,,2302.0717,2303.056,,,2303.5578,2303.7934,,59,59,,,,,,,,,,,,,,,,bars/007.png,bars/mask005.png,,,,,,,,,,,,7,2,,,,,,,8,8,8,8,,,,,,,,,,,2303.0561,2303.5578,2303.7934,2307.3233,space,3.5064,,2307.3234,64,4,2308.3264,2308.3264,2308.3376,,,,0,19,19,19,1,175,55,,,,,,,,
,,65961aa9477c6a68a5019b23,65af55e68504a42db6af7fb8,2024-01-23_14h01.23.499,bars,2023.2.3,MacIntel,60.60606061,657b66ea316d21385b68909f,,,,,,,,,,,2308.3378,2309.3274,,,2309.8264,2310.0598,,96,96,,,,,,,,,,,,,,,,bars/037.png,bars/mask004.png,,,,,,,,,,,,4,2,,,,,,,10,6,10,5,,,,,,,,,,,2309.3275,2309.8263,2310.0598,2313.4928,space,3.4023,,2313.4929,54,9,2314.492,2314.4921,2314.5046,,,,0,20,20,20,1,150,105,,,,,,,,
,,65961aa9477c6a68a5019b23,65af55e68504a42db6af7fb8,2024-01-23_14h01.23.499,bars,2023.2.3,MacIntel,60.60606061,657b66ea316d21385b68909f,,,,,,,,,,,2314.5048,2315.4941,,,2315.9932,2316.2246,,71,71,,,,,,,,,,,,,,,,bars/030.png,bars/mask003.png,,,,,,,,,,,,6,2,,,,,,,8,8,8,8,,,,,,,,,,,2315.4941,2315.9932,2316.2246,2322.7941,space,6.5487,,2322.7941,69,6,2323.7944,2323.7944,2323.8052,,,,0,21,21,21,1,140,65,,,,,,,,
,,65961aa9477c6a68a5019b23,65af55e68504a42db6af7fb8,2024-01-23_14h01.23.499,bars,2023.2.3,MacIntel,60.60606061,657b66ea316d21385b68909f,,,,,,,,,,,2323.8055,2324.7907,,,2325.2917,2325.5277,,48,48,,,,,,,,,,,,,,,,bars/010.png,bars/mask000.png,,,,,,,,,,,,8,2,,,,,,,6,10,4,10,,,,,,,,,,,2324.7908,2325.2917,2325.5277,2329.7601,space,4.2071,,2329.7603,63,7,2330.7607,2330.7607,2330.7728,,,,0,22,22,22,1,165,55,,,,,,,,
,,65961aa9477c6a68a5019b23,65af55e68504a42db6af7fb8,2024-01-23_14h01.23.499,bars,2023.2.3,MacIntel,60.60606061,657b66ea316d21385b68909f,,,,,,,,,,,2330.7729,2331.7594,,,2332.261,2332.4913,,168,168,,,,,,,,,,,,,,,,bars/033.png,bars/mask008.png,,,,,,,,,,,,5,2,,,,,,,4,10,4,9,,,,,,,,,,,2331.7595,2332.261,2332.4914,2338.8939,space,6.395,,2338.8939,37,13,2339.8903,2339.8903,2339.904,,,,0,23,23,23,1,25,155,,,,,,,,
,,65961aa9477c6a68a5019b23,65af55e68504a42db6af7fb8,2024-01-23_14h01.23.499,bars,2023.2.3,MacIntel,60.60606061,657b66ea316d21385b68909f,,,,,,,,,,,2339.9041,2340.8916,,,2341.393,2341.6278,,66,66,,,,,,,,,,,,,,,,bars/046.png,bars/mask002.png,,,,,,,,,,,,3,2,,,,,,,6,8,7,8,,,,,,,,,,,2340.8916,2341.393,2341.6278,2344.0612,space,2.4249,,2344.0612,89,19,2345.0609,2345.0611,2345.0713,,,,0,24,24,24,1,155,85,,,,,,,,
,,65961aa9477c6a68a5019b23,65af55e68504a42db6af7fb8,2024-01-23_14h01.23.499,bars,2023.2.3,MacIntel,60.60606061,657b66ea316d21385b68909f,,,,,,,,,,,2345.0716,2346.0618,,,2346.5606,2346.7938,,179,179,,,,,,,,,,,,,,,,bars/045.png,bars/mask000.png,,,,,,,,,,,,3,2,,,,,,,8,6,9,4,,,,,,,,,,,2346.0618,2346.5606,2346.794,2349.3589,space,2.556,,2349.3589,79,11,2350.3585,2350.3586,2350.3722,,,,0,25,25,25,1,100,10,,,,,,,,
,,65961aa9477c6a68a5019b23,65af55e68504a42db6af7fb8,2024-01-23_14h01.23.499,bars,2023.2.3,MacIntel,60.60606061,657b66ea316d21385b68909f,,,,,,,,,,,2350.3723,2351.358,,,2351.8603,2352.0917,,20,200,,,,,,,,,,,,,,,,bars/022.png,bars/mask008.png,,,,,,,,,,,,5,2,,,,,,,10,4,10,5,,,,,,,,,,,2351.3581,2351.8603,2352.0918,2354.7936,space,2.6937,,2354.7937,75,0,2355.7931,2355.7931,2355.8026,,,,0,26,26,26,1,95,20,,,,,,,,
,,65961aa9477c6a68a5019b23,65af55e68504a42db6af7fb8,2024-01-23_14h01.23.499,bars,2023.2.3,MacIntel,60.60606061,657b66ea316d21385b68909f,,,,,,,,,,,2355.8028,2356.7945,,,2357.2948,2357.527,,53,53,,,,,,,,,,,,,,,,bars/031.png,bars/mask006.png,,,,,,,,,,,,2,2,,,,,,,8,6,9,5,,,,,,,,,,,2356.7946,2357.2948,2357.527,2361.9266,space,4.3769,,2361.9267,67,18,2362.9243,2362.9243,2362.935,,,,0,27,27,27,1,120,35,,,,,,,,
,,65961aa9477c6a68a5019b23,65af55e68504a42db6af7fb8,2024-01-23_14h01.23.499,bars,2023.2.3,MacIntel,60.60606061,657b66ea316d21385b68909f,,,,,,,,,,,2362.9352,2363.928,,,2364.4284,2364.6613,,153,153,,,,,,,,,,,,,,,,bars/038.png,bars/mask009.png,,,,,,,,,,,,6,1,,,,,,,10,8,10,10,,,,,,,,,,,2363.9281,2364.4284,2364.6613,2367.459,space,2.7924,,2367.459,12,83,2368.4608,2368.4608,2368.4733,,,,0,28,28,28,1,165,70,,,,,,,,
,,65961aa9477c6a68a5019b23,65af55e68504a42db6af7fb8,2024-01-23_14h01.23.499,bars,2023.2.3,MacIntel,60.60606061,657b66ea316d21385b68909f,,,,,,,,,,,2368.4734,2369.4617,,,2369.9605,2370.194,,155,-25,,,,,,,,,,,,,,,,bars/036.png,bars/mask003.png,,,,,,,,,,,,7,1,,,,,,,8,6,10,6,,,,,,,,,,,2369.4617,2369.9605,2370.194,2373.3932,space,3.1869,,2373.3933,10,45,2374.3951,2374.3952,2374.4084,,,,0,29,29,29,1,145,20,,,,,,,,
,,65961aa9477c6a68a5019b23,65af55e68504a42db6af7fb8,2024-01-23_14h01.23.499,bars,2023.2.3,MacIntel,60.60606061,657b66ea316d21385b68909f,,,,,,,,,,,2374.4086,2375.3954,,,2375.8909,2376.1283,,83,83,,,,,,,,,,,,,,,,bars/008.png,bars/mask001.png,,,,,,,,,,,,1,1,,,,,,,6,8,7,9,,,,,,,,,,,2375.3954,2375.8909,2376.1284,2381.7283,space,5.5677,,2381.7284,27,83,2382.7263,2382.7264,2382.7401,,,,0,30,30,30,1,110,0,,,,,,,,
,,65961aa9477c6a68a5019b23,65af55e68504a42db6af7fb8,2024-01-23_14h01.23.499,bars,2023.2.3,MacIntel,60.60606061,657b66ea316d21385b68909f,,,,,,,,,,,2382.7402,2383.7281,,,2384.2289,2384.4623,,106,106,,,,,,,,,,,,,,,,bars/012.png,bars/mask001.png,,,,,,,,,,,,1,1,,,,,,,4,6,3,6,,,,,,,,,,,2383.7282,2384.2288,2384.4624,2387.3249,space,2.8556,,2387.325,16,89,2388.3282,2388.3283,2388.3409,,,,0,31,31,31,1,90,15,,,,,,,,
,,65961aa9477c6a68a5019b23,65af55e68504a42db6af7fb8,2024-01-23_14h01.23.499,bars,2023.2.3,MacIntel,60.60606061,657b66ea316d21385b68909f,,,,,,,,,,,2388.3411,2389.3292,,,2389.8285,2390.0619,,37,217,,,,,,,,,,,,,,,,bars/043.png,bars/mask001.png,,,,,,,,,,,,4,1,,,,,,,6,4,5,3,,,,,,,,,,,2389.3292,2389.8285,2390.0619,2396.4956,space,6.4101,,2396.4956,7,87,2397.4942,2397.4943,2397.5093,,,,0,32,32,32,1,30,130,,,,,,,,
,,65961aa9477c6a68a5019b23,65af55e68504a42db6af7fb8,2024-01-23_14h01.23.499,bars,2023.2.3,MacIntel,60.60606061,657b66ea316d21385b68909f,,,,,,,,,,,2397.5095,2398.4932,,,2398.9932,2399.2283,,22,202,,,,,,,,,,,,,,,,bars/016.png,bars/mask003.png,,,,,,,,,,,,4,1,,,,,,,8,2,10,2,,,,,,,,,,,2398.4932,2398.9932,2399.2283,2402.7953,space,3.538,,2402.7953,18,37,2403.7952,2403.7953,2403.8089,,,,0,33,33,33,1,40,165,,,,,,,,
,,65961aa9477c6a68a5019b23,65af55e68504a42db6af7fb8,2024-01-23_14h01.23.499,bars,2023.2.3,MacIntel,60.60606061,657b66ea316d21385b68909f,,,,,,,,,,,2403.8091,2404.7951,,,2405.2953,2405.5284,,30,210,,,,,,,,,,,,,,,,bars/004.png,bars/mask004.png,,,,,,,,,,,,5,1,,,,,,,6,0,6,0,,,,,,,,,,,2404.7952,2405.2953,2405.5285,2409.1958,space,3.6334,,2409.1959,5,85,2410.193,2410.193,2410.2069,,,,0,34,34,34,1,25,125,,,,,,,,
,,65961aa9477c6a68a5019b23,65af55e68504a42db6af7fb8,2024-01-23_14h01.23.499,bars,2023.2.3,MacIntel,60.60606061,657b66ea316d21385b68909f,,,,,,,,,,,2410.2072,2411.1951,,,2411.6935,2411.9279,,21,201,,,,,,,,,,,,,,,,bars/006.png,bars/mask000.png,,,,,,,,,,,,1,1,,,,,,,4,0,1,0,,,,,,,,,,,2411.1951,2411.6935,2411.9279,2419.7279,space,7.7686,,2419.7279,14,79,2420.7298,2420.7299,2420.7384,,,,0,35,35,35,1,35,100,,,,,,,,
,,65961aa9477c6a68a5019b23,65af55e68504a42db6af7fb8,2024-01-23_14h01.23.499,bars,2023.2.3,MacIntel,60.60606061,657b66ea316d21385b68909f,,,,,,,,,,,2420.7387,2421.729,,,2422.2293,2422.4601,,30,30,,,,,,,,,,,,,,,,bars/031.png,bars/mask001.png,,,,,,,,,,,,3,2,,,,,,,6,2,6,3,,,,,,,,,,,2421.729,2422.2292,2422.4601,2425.2937,space,2.8183,,2425.2937,90,5,2426.2959,2426.296,2426.3091,,,,0,36,36,36,1,120,35,,,,,,,,
,,65961aa9477c6a68a5019b23,65af55e68504a42db6af7fb8,2024-01-23_14h01.23.499,bars,2023.2.3,MacIntel,60.60606061,657b66ea316d21385b68909f,,,,,,,,,,,2426.3094,2427.292,,,2427.7939,2428.0277,,0,180,,,,,,,,,,,,,,,,bars/045.png,bars/mask001.png,,,,,,,,,,,,1,2,,,,,,,4,0,5,1,,,,,,,,,,,2427.2921,2427.7939,2428.0278,2430.5602,space,2.5208,,2430.5603,80,10,2431.5622,2431.5623,2431.5746,,,,0,37,37,37,1,100,10,,,,,,,,
,,65961aa9477c6a68a5019b23,65af55e68504a42db6af7fb8,2024-01-23_14h01.23.499,bars,2023.2.3,MacIntel,60.60606061,657b66ea316d21385b68909f,,,,,,,,,,,2431.5748,2432.56,,,2433.059,2433.2947,,54,54,,,,,,,,,,,,,,,,bars/048.png,bars/mask001.png,,,,,,,,,,,,1,1,,,,,,,2,0,1,0,,,,,,,,,,,2432.5601,2433.059,2433.2948,2436.4968,space,3.1708,,2436.4968,4,59,2437.4943,2437.4944,2437.5074,,,,0,38,38,38,1,50,175,,,,,,,,
,,65961aa9477c6a68a5019b23,65af55e68504a42db6af7fb8,2024-01-23_14h01.23.499,bars,2023.2.3,MacIntel,60.60606061,657b66ea316d21385b68909f,,,,,,,,,,,2437.5077,2438.4962,,,2438.9956,2439.2276,,91,91,,,,,,,,,,,,,,,,bars/017.png,bars/mask004.png,,,,,,,,,,,,0,2,,,,,,,0,2,0,2,,,,,,,,,,,2438.4963,2438.9956,2439.2276,2442.4958,space,3.2339,,2442.4959,54,46,2443.4963,2443.4963,2443.509,,,,0,39,39,39,1,145,45,,,,,,,,
,,65961aa9477c6a68a5019b23,65af55e68504a42db6af7fb8,2024-01-23_14h01.23.499,bars,2023.2.3,MacIntel,60.60606061,657b66ea316d21385b68909f,,,,,,,,,,,2443.5092,2444.4932,,,2444.9926,2445.2293,,85,85,,,,,,,,,,,,,,,,bars/045.png,bars/mask002.png,,,,,,,,,,,,1,1,,,,,,,0,0,1,2,,,,,,,,,,,2444.4933,2444.9925,2445.2293,2453.3611,space,8.1237,,2453.3612,15,75,2454.3635,2454.3635,2454.378,,,,0,40,40,40,1,100,10,,,,,,,,
,,65961aa9477c6a68a5019b23,65af55e68504a42db6af7fb8,2024-01-23_14h01.23.499,bars,2023.2.3,MacIntel,60.60606061,657b66ea316d21385b68909f,,,,,,,,,,,2454.3783,2455.3619,,,2455.8624,2456.0967,,97,97,,,,,,,,,,,,,,,,bars/023.png,bars/mask009.png,,,,,,,,,,,,0,2,,,,,,,0,0,0,0,,,,,,,,,,,2455.3619,2455.8624,2456.0968,2459.4298,space,3.3239,,2459.4299,77,18,2460.43,2460.4301,2460.44,,,,0,41,41,41,1,20,115,,,,,,,,
,,65961aa9477c6a68a5019b23,65af55e68504a42db6af7fb8,2024-01-23_14h01.23.499,bars,2023.2.3,MacIntel,60.60606061,657b66ea316d21385b68909f,,,,,,,,,,,2460.4401,2461.4258,,,2461.93,2462.1635,,72,72,,,,,,,,,,,,,,,,bars/014.png,bars/mask005.png,,,,,,,,,,,,1,1,,,,,,,2,0,1,1,,,,,,,,,,,2461.4258,2461.93,2462.1636,2468.1307,space,5.9333,,2468.1309,8,72,2469.1303,2469.1304,2469.1433,,,,0,42,42,42,1,80,0,,,,,,,,
,,65961aa9477c6a68a5019b23,65af55e68504a42db6af7fb8,2024-01-23_14h01.23.499,bars,2023.2.3,MacIntel,60.60606061,657b66ea316d21385b68909f,,,,,,,,,,,2469.1436,2470.1283,,,2470.6301,2470.8596,,76,76,,,,,,,,,,,,,,,,bars/014.png,bars/mask003.png,,,,,,,,,,,,0,1,,,,,,,0,0,0,0,,,,,,,,,,,2470.1283,2470.6301,2470.8597,2474.2786,space,3.3849,,2474.2786,4,76,2475.2784,2475.2784,2475.2903,,,,0,43,43,43,1,80,0,,,,,,,,
,,65961aa9477c6a68a5019b23,65af55e68504a42db6af7fb8,2024-01-23_14h01.23.499,bars,2023.2.3,MacIntel,60.60606061,657b66ea316d21385b68909f,,,,,,,,,,,2475.2905,2476.2802,,,2476.777,2477.0129,,91,91,,,,,,,,,,,,,,,,bars/023.png,bars/mask006.png,,,,,,,,,,,,0,2,,,,,,,2,0,2,1,,,,,,,,,,,2476.2802,2476.777,2477.013,2479.5432,space,2.5142,,2479.5432,71,24,2480.5476,2480.5476,2480.5608,,,,0,44,44,44,1,20,115,,,,,,,,
,,65961aa9477c6a68a5019b23,65af55e68504a42db6af7fb8,2024-01-23_14h01.23.499,bars,2023.2.3,MacIntel,60.60606061,657b66ea316d21385b68909f,,,,,,,,,,,2480.561,2481.5442,,,2482.0462,2482.2791,,57,57,,,,,,,,,,,,,,,,bars/007.png,bars/mask008.png,,,,,,,,,,,,2,2,,,,,,,4,2,4,2,,,,,,,,,,,2481.5442,2482.0461,2482.2792,2484.577,space,2.2811,,2484.5771,62,2,2485.5805,2485.5806,2485.5934,,,,0,45,45,45,1,175,55,,,,,,,,
,,65961aa9477c6a68a5019b23,65af55e68504a42db6af7fb8,2024-01-23_14h01.23.499,bars,2023.2.3,MacIntel,60.60606061,657b66ea316d21385b68909f,,,,,,,,,,,2485.5936,2486.5812,,,2487.0801,2487.3131,,83,83,,,,,,,,,,,,,,,,bars/021.png,bars/mask002.png,,,,,,,,,,,,2,2,,,,,,,2,4,2,4,,,,,,,,,,,2486.5813,2487.0801,2487.3131,2489.2793,space,1.941,,2489.2794,72,13,2490.2798,2490.2799,2490.281,,,,0,46,46,46,1,155,70,,,,,,,,
,,65961aa9477c6a68a5019b23,65af55e68504a42db6af7fb8,2024-01-23_14h01.23.499,bars,2023.2.3,MacIntel,60.60606061,657b66ea316d21385b68909f,,,,,,,,,,,2490.2814,2491.2785,,,2491.7802,2492.0132,,168,168,,,,,,,,,,,,,,,,bars/044.png,bars/mask008.png,,,,,,,,,,,,1,2,,,,,,,4,2,4,2,,,,,,,,,,,2491.2785,2491.7801,2492.0133,2499.3141,space,7.2741,,2499.3142,87,13,2500.3136,2500.3137,2500.3273,,,,0,47,47,47,1,75,155,,,,,,,,
,,65961aa9477c6a68a5019b23,65af55e68504a42db6af7fb8,2024-01-23_14h01.23.499,bars,2023.2.3,MacIntel,60.60606061,657b66ea316d21385b68909f,,,,,,,,,,,2500.3274,2501.3128,,,2501.8145,2502.0473,,89,-91,,,,,,,,,,,,,,,,bars/023.png,bars/mask008.png,,,,,,,,,,,,0,2,,,,,,,6,0,5,0,,,,,,,,,,,2501.3129,2501.8145,2502.0473,2510.0435,space,7.9832,,2510.0435,69,26,2511.0475,2511.0476,2511.0607,,,,0,48,48,48,1,20,115,,,,,,,,
,,65961aa9477c6a68a5019b23,65af55e68504a42db6af7fb8,2024-01-23_14h01.23.499,bars,2023.2.3,MacIntel,60.60606061,657b66ea316d21385b68909f,,,,,,,,,,,2511.0609,2512.0462,,,2512.5466,2512.7803,,71,71,,,,,,,,,,,,,,,,bars/046.png,bars/mask007.png,,,,,,,,,,,,0,2,,,,,,,4,0,6,0,,,,,,,,,,,2512.0463,2512.5466,2512.7803,2518.7793,space,5.9678,,2518.7793,84,14,2519.781,2519.781,2519.7945,,,,0,49,49,49,1,155,85,,,,,,,,
,,65961aa9477c6a68a5019b23,65af55e68504a42db6af7fb8,2024-01-23_14h01.23.499,bars,2023.2.3,MacIntel,60.60606061,657b66ea316d21385b68909f,,,,,,,,,,,,,,,,,,,,,,,,,,,,,,,,,,,,,,,,,,,,,,,,,,,,,,,,,,,,,,,,,,,,,,,,,,,,,,,,,,,,,,,,,,,,,2519.7946,2579.7791,0,3,3,0,1,sequence_tables/blk027.csv
,,65961aa9477c6a68a5019b23,65af55e68504a42db6af7fb8,2024-01-23_14h01.23.499,bars,2023.2.3,MacIntel,60.60606061,657b66ea316d21385b68909f,,,,,,,,,,,2647.0604,2648.0478,,,2648.5469,2648.7799,,107,107,,,,,,,,,,,,,,,,bars/015.png,bars/mask003.png,,,,,,,,,,,,6,1,,,,,,,7,3,7,3,,,,,,2579.7902,2647.0466,space,67.2462,,2648.0479,2648.5468,2648.78,2652.7802,space,3.9679,,2652.7803,3,53,2653.7806,2653.7806,2653.795,,,,0,0,0,0,1,110,160,,,,,,,,
,,65961aa9477c6a68a5019b23,65af55e68504a42db6af7fb8,2024-01-23_14h01.23.499,bars,2023.2.3,MacIntel,60.60606061,657b66ea316d21385b68909f,,,,,,,,,,,2653.7952,2654.7805,,,2655.2815,2655.5142,,64,64,,,,,,,,,,,,,,,,bars/007.png,bars/mask006.png,,,,,,,,,,,,0,2,,,,,,,5,1,7,0,,,,,,,,,,,2654.7806,2655.2814,2655.5142,2662.6466,space,7.0999,,2662.6467,69,9,2663.647,2663.647,2663.6613,,,,0,1,1,1,1,175,55,,,,,,,,
,,65961aa9477c6a68a5019b23,65af55e68504a42db6af7fb8,2024-01-23_14h01.23.499,bars,2023.2.3,MacIntel,60.60606061,657b66ea316d21385b68909f,,,,,,,,,,,2663.6614,2664.6479,,,2665.148,2665.3808,,56,56,,,,,,,,,,,,,,,,bars/034.png,bars/mask005.png,,,,,,,,,,,,1,2,,,,,,,7,3,4,2,,,,,,,,,,,2664.648,2665.1479,2665.3808,2668.9145,space,3.5105,,2668.9146,69,9,2669.9148,2669.9149,2669.9242,,,,0,2,2,2,1,125,65,,,,,,,,
,,65961aa9477c6a68a5019b23,65af55e68504a42db6af7fb8,2024-01-23_14h01.23.499,bars,2023.2.3,MacIntel,60.60606061,657b66ea316d21385b68909f,,,,,,,,,,,2669.9243,2670.9153,,,2671.4144,2671.6468,,108,108,,,,,,,,,,,,,,,,bars/001.png,bars/mask000.png,,,,,,,,,,,,3,1,,,,,,,9,5,10,5,,,,,,,,,,,2670.9153,2671.4143,2671.6469,2676.8477,space,5.1788,,2676.8478,22,23,2677.8486,2677.8486,2677.8608,,,,0,3,3,3,1,130,85,,,,,,,,
,,65961aa9477c6a68a5019b23,65af55e68504a42db6af7fb8,2024-01-23_14h01.23.499,bars,2023.2.3,MacIntel,60.60606061,657b66ea316d21385b68909f,,,,,,,,,,,2677.861,2678.8479,,,2679.3475,2679.5803,,50,50,,,,,,,,,,,,,,,,bars/035.png,bars/mask006.png,,,,,,,,,,,,4,2,,,,,,,10,7,10,6,,,,,,,,,,,2678.8479,2679.3474,2679.5804,2682.8149,space,3.2244,,2682.815,55,10,2683.8145,2683.8146,2683.825,,,,0,4,4,4,1,175,60,,,,,,,,
,,65961aa9477c6a68a5019b23,65af55e68504a42db6af7fb8,2024-01-23_14h01.23.499,bars,2023.2.3,MacIntel,60.60606061,657b66ea316d21385b68909f,,,,,,,,,,,2683.8251,2684.815,,,2685.3152,2685.5487,,54,54,,,,,,,,,,,,,,,,bars/035.png,bars/mask001.png,,,,,,,,,,,,4,2,,,,,,,10,5,10,5,,,,,,,,,,,2684.815,2685.3152,2685.5487,2689.1142,space,3.5518,,2689.1142,59,6,2690.1143,2690.1143,2690.1232,,,,0,5,5,5,1,175,60,,,,,,,,
,,65961aa9477c6a68a5019b23,65af55e68504a42db6af7fb8,2024-01-23_14h01.23.499,bars,2023.2.3,MacIntel,60.60606061,657b66ea316d21385b68909f,,,,,,,,,,,2690.1234,2691.1142,,,2691.6149,2691.848,,87,87,,,,,,,,,,,,,,,,bars/041.png,bars/mask000.png,,,,,,,,,,,,7,2,,,,,,,10,7,10,7,,,,,,,,,,,2691.1142,2691.6148,2691.848,2694.8153,space,2.9533,,2694.8155,67,2,2695.8159,2695.8159,2695.8281,,,,0,6,6,6,1,20,85,,,,,,,,
,,65961aa9477c6a68a5019b23,65af55e68504a42db6af7fb8,2024-01-23_14h01.23.499,bars,2023.2.3,MacIntel,60.60606061,657b66ea316d21385b68909f,,,,,,,,,,,2695.8282,2696.8153,,,2697.3143,2697.5477,,99,99,,,,,,,,,,,,,,,,bars/026.png,bars/mask002.png,,,,,,,,,,,,3,2,,,,,,,8,5,8,6,,,,,,,,,,,2696.8153,2697.3141,2697.5478,2702.1149,space,4.5538,,2702.115,64,14,2703.1139,2703.1139,2703.1269,,,,0,7,7,7,1,35,85,,,,,,,,
,,65961aa9477c6a68a5019b23,65af55e68504a42db6af7fb8,2024-01-23_14h01.23.499,bars,2023.2.3,MacIntel,60.60606061,657b66ea316d21385b68909f,,,,,,,,,,,2703.1272,2704.1146,,,2704.615,2704.849,,109,109,,,,,,,,,,,,,,,,bars/004.png,bars/mask002.png,,,,,,,,,,,,3,2,,,,,,,6,7,4,7,,,,,,,,,,,2704.1146,2704.615,2704.8491,2711.0811,space,6.2185,,2711.0812,84,16,2712.0818,2712.082,2712.0947,,,,0,8,8,8,1,25,125,,,,,,,,
