init_variables.started,init_variables.stopped,participant,session,date,expName,psychopyVersion,OS,frameRate,study_id,instruction_exp.started,instruction_exp.stopped,key_resp_8.keys,key_resp_8.rt,key_resp_8.duration,instruction_single.started,instruction_single.stopped,key_resp_2.keys,key_resp_2.rt,key_resp_2.duration,interval.started,interval.stopped,cue_single.started,cue_single.stopped,mask.started,mask.stopped,ori_response_single.started,res_ori,res,ori_response_single.stopped,key_resp_single.keys,key_resp_single.rt,key_resp_single.duration,disp_single.started,disp_single.stopped,key_resp.keys,key_resp.rt,key_resp.duration,single.thisRepN,single.thisTrialN,single.thisN,single.thisIndex,single.ran,ori,path,mask_path,instruction_bandit.started,instruction_bandit.stopped,key_resp_6.keys,key_resp_6.rt,key_resp_6.duration,cue_bandit.started,cue_bandit.stopped,bandit_res.keys,bandit_res.rt,bandit_res.duration,outcome_bandit.started,rew,action,outcome_bandit.stopped,bandit.thisRepN,bandit.thisTrialN,bandit.thisN,bandit.thisIndex,bandit.ran,actual_rew1,actual_rew2,rew1,rew2,instruction_task.started,instruction_task.stopped,key_resp_7.keys,key_resp_7.rt,key_resp_7.duration,wait_ready.started,wait_ready.stopped,key_resp_3.keys,key_resp_3.rt,key_resp_3.duration,cue.started,cue.stopped,ori_response.started,ori_response.stopped,key_resp_5.keys,key_resp_5.rt,key_resp_5.duration,outcome.started,diff1,diff2,outcome.stopped,disp_outcome_practice.started,disp_outcome_practice.stopped,key_resp_4.keys,key_resp_4.rt,key_resp_4.duration,trials.thisRepN,trials.thisTrialN,trials.thisN,trials.thisIndex,trials.ran,ori1,ori2,break_blk.started,break_blk.stopped,block.thisRepN,block.thisTrialN,block.thisN,block.thisIndex,block.ran,condition_file
0,0,5d7957036797da0019537ad1,65af55d5cbfd19b26dc0c3e7,2024-01-23_00h17.45.230,bars,2023.2.3,Win32,48.03073967,657b66ea316d21385b68909f,,,,,,,,,,,,,,,,,,,,,,,,,,,,,,,,,,,,,,,,,,,,,,,,,,,,,,,,,,,,,,,,,,,,,,,,,,,,,,,,,,,,,,,,,,,,,,,,,,,,
,,5d7957036797da0019537ad1,65af55d5cbfd19b26dc0c3e7,2024-01-23_00h17.45.230,bars,2023.2.3,Win32,48.03073967,657b66ea316d21385b68909f,0,10.66,y,10.59,,,,,,,,,,,,,,,,,,,,,,,,,,,,,,,,,,,,,,,,,,,,,,,,,,,,,,,,,,,,,,,,,,,,,,,,,,,,,,,,,,,,,,,,,,,,,,,,
,,5d7957036797da0019537ad1,65af55d5cbfd19b26dc0c3e7,2024-01-23_00h17.45.230,bars,2023.2.3,Win32,48.03073967,657b66ea316d21385b68909f,,,,,,10.66,20.066,space,9.373,,,,,,,,,,,,,,,,,,,,,,,,,,,,,,,,,,,,,,,,,,,,,,,,,,,,,,,,,,,,,,,,,,,,,,,,,,,,,,,,,,,,,,,,,,,
,,5d7957036797da0019537ad1,65af55d5cbfd19b26dc0c3e7,2024-01-23_00h17.45.230,bars,2023.2.3,Win32,48.03073967,657b66ea316d21385b68909f,,,,,,,,,,,20.078,21.065,21.066,21.567,21.567,21.815,21.815,162,162,31.255,space,9.38,,31.256,39.128,space,7.818,,0,0,0,8,1,160,bars/single008.png,bars/mask004.png,,,,,,,,,,,,,,,,,,,,,,,,,,,,,,,,,,,,,,,,,,,,,,,,,,,,,,,,,,,,,,,,
,,5d7957036797da0019537ad1,65af55d5cbfd19b26dc0c3e7,2024-01-23_00h17.45.230,bars,2023.2.3,Win32,48.03073967,657b66ea316d21385b68909f,,,,,,,,,,,39.131,40.128,40.128,40.627,40.628,40.879,40.879,144,144,45.648,space,4.75,,45.649,50.858,space,5.178,,0,1,1,2,1,145,bars/single002.png,bars/mask003.png,,,,,,,,,,,,,,,,,,,,,,,,,,,,,,,,,,,,,,,,,,,,,,,,,,,,,,,,,,,,,,,,
,,5d7957036797da0019537ad1,65af55d5cbfd19b26dc0c3e7,2024-01-23_00h17.45.230,bars,2023.2.3,Win32,48.03073967,657b66ea316d21385b68909f,,,,,,,,,,,50.859,51.857,51.857,52.357,52.358,52.607,52.607,52,52,57.586,space,4.962,,57.587,62.049,space,4.43,,0,2,2,9,1,20,bars/single009.png,bars/mask006.png,,,,,,,,,,,,,,,,,,,,,,,,,,,,,,,,,,,,,,,,,,,,,,,,,,,,,,,,,,,,,,,,
,,5d7957036797da0019537ad1,65af55d5cbfd19b26dc0c3e7,2024-01-23_00h17.45.230,bars,2023.2.3,Win32,48.03073967,657b66ea316d21385b68909f,,,,,,,,,,,62.054,63.046,63.047,63.546,63.546,63.796,63.796,179,-1,71.295,space,7.48,,71.296,74.19,space,2.867,,0,3,3,6,1,175,bars/single006.png,bars/mask005.png,,,,,,,,,,,,,,,,,,,,,,,,,,,,,,,,,,,,,,,,,,,,,,,,,,,,,,,,,,,,,,,,
,,5d7957036797da0019537ad1,65af55d5cbfd19b26dc0c3e7,2024-01-23_00h17.45.230,bars,2023.2.3,Win32,48.03073967,657b66ea316d21385b68909f,,,,,,,,,,,74.193,75.191,75.192,75.69,75.69,75.941,75.941,32,212,82.193,space,6.238,,82.193,84.69,space,2.47,,0,4,4,4,1,95,bars/single004.png,bars/mask004.png,,,,,,,,,,,,,,,,,,,,,,,,,,,,,,,,,,,,,,,,,,,,,,,,,,,,,,,,,,,,,,,,
,,5d7957036797da0019537ad1,65af55d5cbfd19b26dc0c3e7,2024-01-23_00h17.45.230,bars,2023.2.3,Win32,48.03073967,657b66ea316d21385b68909f,,,,,,,,,,,84.692,85.689,85.69,86.191,86.191,86.44,86.44,31,31,90.378,space,3.923,,90.378,92.878,space,2.472,,0,5,5,3,1,20,bars/single003.png,bars/mask005.png,,,,,,,,,,,,,,,,,,,,,,,,,,,,,,,,,,,,,,,,,,,,,,,,,,,,,,,,,,,,,,,,
,,5d7957036797da0019537ad1,65af55d5cbfd19b26dc0c3e7,2024-01-23_00h17.45.230,bars,2023.2.3,Win32,48.03073967,657b66ea316d21385b68909f,,,,,,,,,,,92.88,93.878,93.879,94.379,94.379,94.628,94.629,41,41,99.669,space,5.018,,99.671,102.419,space,2.723,,0,6,6,5,1,55,bars/single005.png,bars/mask008.png,,,,,,,,,,,,,,,,,,,,,,,,,,,,,,,,,,,,,,,,,,,,,,,,,,,,,,,,,,,,,,,,
,,5d7957036797da0019537ad1,65af55d5cbfd19b26dc0c3e7,2024-01-23_00h17.45.230,bars,2023.2.3,Win32,48.03073967,657b66ea316d21385b68909f,,,,,,,,,,,102.425,103.419,103.419,103.92,103.92,104.17,104.17,163,163,108.482,space,4.297,,108.482,111.232,space,2.725,,0,7,7,0,1,150,bars/single000.png,bars/mask006.png,,,,,,,,,,,,,,,,,,,,,,,,,,,,,,,,,,,,,,,,,,,,,,,,,,,,,,,,,,,,,,,,
,,5d7957036797da0019537ad1,65af55d5cbfd19b26dc0c3e7,2024-01-23_00h17.45.230,bars,2023.2.3,Win32,48.03073967,657b66ea316d21385b68909f,,,,,,,,,,,111.238,112.232,112.233,112.732,112.734,112.982,112.983,55,55,117.17,space,4.17,,117.17,119.487,space,2.296,,0,8,8,7,1,45,bars/single007.png,bars/mask009.png,,,,,,,,,,,,,,,,,,,,,,,,,,,,,,,,,,,,,,,,,,,,,,,,,,,,,,,,,,,,,,,,
,,5d7957036797da0019537ad1,65af55d5cbfd19b26dc0c3e7,2024-01-23_00h17.45.230,bars,2023.2.3,Win32,48.03073967,657b66ea316d21385b68909f,,,,,,,,,,,119.489,120.482,120.483,120.983,120.983,121.232,121.232,9,9,127.88,space,6.632,,127.88,129.567,space,1.659,,0,9,9,1,1,20,bars/single001.png,bars/mask006.png,,,,,,,,,,,,,,,,,,,,,,,,,,,,,,,,,,,,,,,,,,,,,,,,,,,,,,,,,,,,,,,,
,,5d7957036797da0019537ad1,65af55d5cbfd19b26dc0c3e7,2024-01-23_00h17.45.230,bars,2023.2.3,Win32,48.03073967,657b66ea316d21385b68909f,,,,,,,,,,,,,,,,,,,,,,,,,,,,,,,,,,,,,129.569,141.925,space,12.315,,,,,,,,,,,,,,,,,,,,,,,,,,,,,,,,,,,,,,,,,,,,,,,,,,,,,,,,,,,,
,,5d7957036797da0019537ad1,65af55d5cbfd19b26dc0c3e7,2024-01-23_00h17.45.230,bars,2023.2.3,Win32,48.03073967,657b66ea316d21385b68909f,,,,,,,,,,,,,,,,,,,,,,,,,,,,,,,,,,,,,,,,,,141.942,145.004,right,3.011,,145.005,2,2,146.004,0,0,0,0,1,9,1,9,2,,,,,,,,,,,,,,,,,,,,,,,,,,,,,,,,,,,,,,,,,
,,5d7957036797da0019537ad1,65af55d5cbfd19b26dc0c3e7,2024-01-23_00h17.45.230,bars,2023.2.3,Win32,48.03073967,657b66ea316d21385b68909f,,,,,,,,,,,,,,,,,,,,,,,,,,,,,,,,,,,,,,,,,,146.006,149.649,right,3.623,,149.649,1,2,150.648,0,1,1,1,1,10,0,10,1,,,,,,,,,,,,,,,,,,,,,,,,,,,,,,,,,,,,,,,,,
,,5d7957036797da0019537ad1,65af55d5cbfd19b26dc0c3e7,2024-01-23_00h17.45.230,bars,2023.2.3,Win32,48.03073967,657b66ea316d21385b68909f,,,,,,,,,,,,,,,,,,,,,,,,,,,,,,,,,,,,,,,,,,150.65,153.169,left,2.501,,153.169,10,1,154.169,0,2,2,2,1,10,2,10,2,,,,,,,,,,,,,,,,,,,,,,,,,,,,,,,,,,,,,,,,,
,,5d7957036797da0019537ad1,65af55d5cbfd19b26dc0c3e7,2024-01-23_00h17.45.230,bars,2023.2.3,Win32,48.03073967,657b66ea316d21385b68909f,,,,,,,,,,,,,,,,,,,,,,,,,,,,,,,,,,,,,,,,,,154.17,157.065,left,2.876,,157.065,7,1,158.065,0,3,3,3,1,8,4,7,3,,,,,,,,,,,,,,,,,,,,,,,,,,,,,,,,,,,,,,,,,
,,5d7957036797da0019537ad1,65af55d5cbfd19b26dc0c3e7,2024-01-23_00h17.45.230,bars,2023.2.3,Win32,48.03073967,657b66ea316d21385b68909f,,,,,,,,,,,,,,,,,,,,,,,,,,,,,,,,,,,,,,,,,,158.067,161.025,left,2.939,,161.025,5,1,162.027,0,4,4,4,1,6,2,5,1,,,,,,,,,,,,,,,,,,,,,,,,,,,,,,,,,,,,,,,,,
,,5d7957036797da0019537ad1,65af55d5cbfd19b26dc0c3e7,2024-01-23_00h17.45.230,bars,2023.2.3,Win32,48.03073967,657b66ea316d21385b68909f,,,,,,,,,,,,,,,,,,,,,,,,,,,,,,,,,,,,,,,,,,162.032,163.066,right,1.019,,163.067,4,2,164.065,0,5,5,5,1,4,4,4,4,,,,,,,,,,,,,,,,,,,,,,,,,,,,,,,,,,,,,,,,,
,,5d7957036797da0019537ad1,65af55d5cbfd19b26dc0c3e7,2024-01-23_00h17.45.230,bars,2023.2.3,Win32,48.03073967,657b66ea316d21385b68909f,,,,,,,,,,,,,,,,,,,,,,,,,,,,,,,,,,,,,,,,,,164.07,166.545,right,2.461,,166.545,2,2,167.545,0,6,6,6,1,2,2,1,2,,,,,,,,,,,,,,,,,,,,,,,,,,,,,,,,,,,,,,,,,
,,5d7957036797da0019537ad1,65af55d5cbfd19b26dc0c3e7,2024-01-23_00h17.45.230,bars,2023.2.3,Win32,48.03073967,657b66ea316d21385b68909f,,,,,,,,,,,,,,,,,,,,,,,,,,,,,,,,,,,,,,,,,,167.548,168.482,left,0.914,,168.482,0,1,169.482,0,7,7,7,1,0,0,0,1,,,,,,,,,,,,,,,,,,,,,,,,,,,,,,,,,,,,,,,,,
,,5d7957036797da0019537ad1,65af55d5cbfd19b26dc0c3e7,2024-01-23_00h17.45.230,bars,2023.2.3,Win32,48.03073967,657b66ea316d21385b68909f,,,,,,,,,,,,,,,,,,,,,,,,,,,,,,,,,,,,,,,,,,169.486,170.732,right,1.231,,170.732,0,2,171.731,0,8,8,8,1,0,2,1,0,,,,,,,,,,,,,,,,,,,,,,,,,,,,,,,,,,,,,,,,,
,,5d7957036797da0019537ad1,65af55d5cbfd19b26dc0c3e7,2024-01-23_00h17.45.230,bars,2023.2.3,Win32,48.03073967,657b66ea316d21385b68909f,,,,,,,,,,,,,,,,,,,,,,,,,,,,,,,,,,,,,,,,,,171.734,173.025,right,1.276,,173.025,3,2,174.025,0,9,9,9,1,2,4,2,3,,,,,,,,,,,,,,,,,,,,,,,,,,,,,,,,,,,,,,,,,
,,5d7957036797da0019537ad1,65af55d5cbfd19b26dc0c3e7,2024-01-23_00h17.45.230,bars,2023.2.3,Win32,48.03073967,657b66ea316d21385b68909f,,,,,,,,,,,,,,,,,,,,,,,,,,,,,,,,,,,,,,,,,,174.026,174.899,right,0.858,,174.899,3,2,175.899,0,10,10,10,1,0,2,0,3,,,,,,,,,,,,,,,,,,,,,,,,,,,,,,,,,,,,,,,,,
,,5d7957036797da0019537ad1,65af55d5cbfd19b26dc0c3e7,2024-01-23_00h17.45.230,bars,2023.2.3,Win32,48.03073967,657b66ea316d21385b68909f,,,,,,,,,,,,,,,,,,,,,,,,,,,,,,,,,,,,,,,,,,175.899,177.69,right,1.771,,177.69,3,2,178.69,0,11,11,11,1,0,4,0,3,,,,,,,,,,,,,,,,,,,,,,,,,,,,,,,,,,,,,,,,,
,,5d7957036797da0019537ad1,65af55d5cbfd19b26dc0c3e7,2024-01-23_00h17.45.230,bars,2023.2.3,Win32,48.03073967,657b66ea316d21385b68909f,,,,,,,,,,,,,,,,,,,,,,,,,,,,,,,,,,,,,,,,,,178.691,179.567,right,0.865,,179.567,6,2,180.565,0,12,12,12,1,2,6,1,6,,,,,,,,,,,,,,,,,,,,,,,,,,,,,,,,,,,,,,,,,
,,5d7957036797da0019537ad1,65af55d5cbfd19b26dc0c3e7,2024-01-23_00h17.45.230,bars,2023.2.3,Win32,48.03073967,657b66ea316d21385b68909f,,,,,,,,,,,,,,,,,,,,,,,,,,,,,,,,,,,,,,,,,,180.567,181.984,right,1.405,,181.984,3,2,182.982,0,13,13,13,1,0,4,1,3,,,,,,,,,,,,,,,,,,,,,,,,,,,,,,,,,,,,,,,,,
,,5d7957036797da0019537ad1,65af55d5cbfd19b26dc0c3e7,2024-01-23_00h17.45.230,bars,2023.2.3,Win32,48.03073967,657b66ea316d21385b68909f,,,,,,,,,,,,,,,,,,,,,,,,,,,,,,,,,,,,,,,,,,182.985,183.565,left,0.571,,183.565,2,1,184.565,0,14,14,14,1,2,6,2,7,,,,,,,,,,,,,,,,,,,,,,,,,,,,,,,,,,,,,,,,,
,,5d7957036797da0019537ad1,65af55d5cbfd19b26dc0c3e7,2024-01-23_00h17.45.230,bars,2023.2.3,Win32,48.03073967,657b66ea316d21385b68909f,,,,,,,,,,,,,,,,,,,,,,,,,,,,,,,,,,,,,,,,,,184.566,185.398,left,0.814,,185.399,3,1,186.398,0,15,15,15,1,4,8,3,9,,,,,,,,,,,,,,,,,,,,,,,,,,,,,,,,,,,,,,,,,
,,5d7957036797da0019537ad1,65af55d5cbfd19b26dc0c3e7,2024-01-23_00h17.45.230,bars,2023.2.3,Win32,48.03073967,657b66ea316d21385b68909f,,,,,,,,,,,,,,,,,,,,,,,,,,,,,,,,,,,,,,,,,,186.399,187.525,left,1.108,,187.525,7,1,188.524,0,16,16,16,1,6,6,7,7,,,,,,,,,,,,,,,,,,,,,,,,,,,,,,,,,,,,,,,,,
,,5d7957036797da0019537ad1,65af55d5cbfd19b26dc0c3e7,2024-01-23_00h17.45.230,bars,2023.2.3,Win32,48.03073967,657b66ea316d21385b68909f,,,,,,,,,,,,,,,,,,,,,,,,,,,,,,,,,,,,,,,,,,188.527,189.504,left,0.961,,189.505,9,1,190.503,0,17,17,17,1,8,4,9,5,,,,,,,,,,,,,,,,,,,,,,,,,,,,,,,,,,,,,,,,,
,,5d7957036797da0019537ad1,65af55d5cbfd19b26dc0c3e7,2024-01-23_00h17.45.230,bars,2023.2.3,Win32,48.03073967,657b66ea316d21385b68909f,,,,,,,,,,,,,,,,,,,,,,,,,,,,,,,,,,,,,,,,,,190.505,191.19,left,0.666,,191.19,5,1,192.19,0,18,18,18,1,6,2,5,1,,,,,,,,,,,,,,,,,,,,,,,,,,,,,,,,,,,,,,,,,
,,5d7957036797da0019537ad1,65af55d5cbfd19b26dc0c3e7,2024-01-23_00h17.45.230,bars,2023.2.3,Win32,48.03073967,657b66ea316d21385b68909f,,,,,,,,,,,,,,,,,,,,,,,,,,,,,,,,,,,,,,,,,,192.191,192.948,left,0.744,,192.949,7,1,193.941,0,19,19,19,1,8,0,7,0,,,,,,,,,,,,,,,,,,,,,,,,,,,,,,,,,,,,,,,,,
,,5d7957036797da0019537ad1,65af55d5cbfd19b26dc0c3e7,2024-01-23_00h17.45.230,bars,2023.2.3,Win32,48.03073967,657b66ea316d21385b68909f,,,,,,,,,,,,,,,,,,,,,,,,,,,,,,,,,,,,,,,,,,,,,,,,,,,,,,,,,,,,193.944,210.712,space,16.729,,,,,,,,,,,,,,,,,,,,,,,,,,,,,,,,,,,,,
,,5d7957036797da0019537ad1,65af55d5cbfd19b26dc0c3e7,2024-01-23_00h17.45.230,bars,2023.2.3,Win32,48.03073967,657b66ea316d21385b68909f,,,,,,,,,,,213.251,214.232,,,214.732,214.982,,34,34,,,,,,,,,,,,,,,,bars/000.png,bars/mask009.png,,,,,,,,,,,,3,1,,,,,,,5,5,4,5,,,,,,210.728,213.232,space,2.482,,214.232,214.732,214.982,218.799,space,3.787,,218.799,6,69,219.795,219.795,372.303,space,152.463,,0,0,0,0,1,40,145,,,,,,,,
,,5d7957036797da0019537ad1,65af55d5cbfd19b26dc0c3e7,2024-01-23_00h17.45.230,bars,2023.2.3,Win32,48.03073967,657b66ea316d21385b68909f,,,,,,,,,,,372.308,373.294,,,373.794,374.044,,141,-39,,,,,,,,,,,,,,,,bars/043.png,bars/mask007.png,,,,,,,,,,,,1,2,,,,,,,3,3,2,2,,,,,,,,,,,373.294,373.794,374.044,381.108,space,7.037,,381.11,69,11,382.107,382.107,385.607,space,3.459,,0,1,1,1,1,30,130,,,,,,,,
,,5d7957036797da0019537ad1,65af55d5cbfd19b26dc0c3e7,2024-01-23_00h17.45.230,bars,2023.2.3,Win32,48.03073967,657b66ea316d21385b68909f,,,,,,,,,,,385.611,386.606,,,387.107,387.357,,164,164,,,,,,,,,,,,,,,,bars/003.png,bars/mask008.png,,,,,,,,,,,,0,2,,,,,,,5,1,6,1,,,,,,,,,,,386.607,387.106,387.357,391.487,space,4.116,,391.487,41,24,392.482,392.482,404.322,space,11.815,,0,2,2,2,1,25,140,,,,,,,,
,,5d7957036797da0019537ad1,65af55d5cbfd19b26dc0c3e7,2024-01-23_00h17.45.230,bars,2023.2.3,Win32,48.03073967,657b66ea316d21385b68909f,,,,,,,,,,,404.323,405.315,,,405.814,406.064,,90,90,,,,,,,,,,,,,,,,bars/023.png,bars/mask004.png,,,,,,,,,,,,1,2,,,,,,,3,3,5,4,,,,,,,,,,,405.315,405.814,406.064,409.399,space,3.311,,409.399,70,25,410.398,410.398,412.236,space,1.805,,0,3,3,3,1,20,115,,,,,,,,
,,5d7957036797da0019537ad1,65af55d5cbfd19b26dc0c3e7,2024-01-23_00h17.45.230,bars,2023.2.3,Win32,48.03073967,657b66ea316d21385b68909f,,,,,,,,,,,412.242,413.231,,,413.735,413.984,,163,-17,,,,,,,,,,,,,,,,bars/040.png,bars/mask008.png,,,,,,,,,,,,1,2,,,,,,,1,5,1,5,,,,,,,,,,,413.231,413.733,413.984,419.281,space,5.281,,419.281,23,22,420.274,420.274,423.627,space,3.326,,0,4,4,4,1,140,5,,,,,,,,
,,5d7957036797da0019537ad1,65af55d5cbfd19b26dc0c3e7,2024-01-23_00h17.45.230,bars,2023.2.3,Win32,48.03073967,657b66ea316d21385b68909f,,,,,,,,,,,423.63,424.628,,,425.127,425.377,,7,187,,,,,,,,,,,,,,,,bars/007.png,bars/mask001.png,,,,,,,,,,,,0,1,,,,,,,0,3,0,2,,,,,,,,,,,424.628,425.127,425.377,430.128,space,4.735,,430.128,12,48,431.128,431.128,439.294,space,8.134,,0,5,5,5,1,175,55,,,,,,,,
,,5d7957036797da0019537ad1,65af55d5cbfd19b26dc0c3e7,2024-01-23_00h17.45.230,bars,2023.2.3,Win32,48.03073967,657b66ea316d21385b68909f,,,,,,,,,,,439.296,440.294,,,440.794,441.044,,65,65,,,,,,,,,,,,,,,,bars/013.png,bars/mask003.png,,,,,,,,,,,,2,1,,,,,,,2,1,3,1,,,,,,,,,,,440.294,440.794,441.044,446.442,space,5.378,,446.444,10,55,447.44,447.44,451.878,space,4.4,,0,6,6,6,1,75,10,,,,,,,,
,,5d7957036797da0019537ad1,65af55d5cbfd19b26dc0c3e7,2024-01-23_00h17.45.230,bars,2023.2.3,Win32,48.03073967,657b66ea316d21385b68909f,,,,,,,,,,,451.879,452.877,,,453.378,453.627,,134,134,,,,,,,,,,,,,,,,bars/008.png,bars/mask001.png,,,,,,,,,,,,1,1,,,,,,,4,3,5,3,,,,,,,,,,,452.877,453.377,453.627,583.275,space,129.627,,583.276,24,46,584.273,584.273,672.069,space,87.738,,0,7,7,7,1,110,0,,,,,,,,
,,5d7957036797da0019537ad1,65af55d5cbfd19b26dc0c3e7,2024-01-23_00h17.45.230,bars,2023.2.3,Win32,48.03073967,657b66ea316d21385b68909f,,,,,,,,,,,672.075,673.065,,,673.564,673.814,,14,194,,,,,,,,,,,,,,,,bars/012.png,bars/mask003.png,,,,,,,,,,,,6,2,,,,,,,2,5,1,6,,,,,,,,,,,673.065,673.564,673.814,680.69,space,6.85,,680.69,76,1,681.689,681.689,686.502,space,4.774,,0,8,8,8,1,90,15,,,,,,,,
,,5d7957036797da0019537ad1,65af55d5cbfd19b26dc0c3e7,2024-01-23_00h17.45.230,bars,2023.2.3,Win32,48.03073967,657b66ea316d21385b68909f,,,,,,,,,,,686.504,687.502,,,688.002,688.252,,103,103,,,,,,,,,,,,,,,,bars/001.png,bars/mask008.png,,,,,,,,,,,,2,2,,,,,,,4,3,4,4,,,,,,,,,,,687.502,688.002,688.252,692.21,space,3.938,,692.211,27,18,693.21,693.21,698.439,space,5.204,,0,9,9,9,1,130,85,,,,,,,,
,,5d7957036797da0019537ad1,65af55d5cbfd19b26dc0c3e7,2024-01-23_00h17.45.230,bars,2023.2.3,Win32,48.03073967,657b66ea316d21385b68909f,,,,,,,,,,,698.441,699.439,,,699.94,700.189,,81,81,,,,,,,,,,,,,,,,bars/039.png,bars/mask000.png,,,,,,,,,,,,1,2,,,,,,,2,5,3,5,,,,,,,,,,,699.44,699.94,700.189,704.717,space,4.515,,704.718,86,24,705.711,705.711,707.735,space,1.995,,0,10,10,10,1,175,105,,,,,,,,
,,5d7957036797da0019537ad1,65af55d5cbfd19b26dc0c3e7,2024-01-23_00h17.45.230,bars,2023.2.3,Win32,48.03073967,657b66ea316d21385b68909f,,,,,,,,,,,707.737,708.731,,,709.232,709.481,,33,213,,,,,,,,,,,,,,,,bars/025.png,bars/mask002.png,,,,,,,,,,,,5,2,,,,,,,0,7,0,6,,,,,,,,,,,708.732,709.231,709.481,713.794,space,4.294,,713.795,72,7,714.794,714.794,717.128,space,2.305,,0,11,11,11,1,105,40,,,,,,,,
,,5d7957036797da0019537ad1,65af55d5cbfd19b26dc0c3e7,2024-01-23_00h17.45.230,bars,2023.2.3,Win32,48.03073967,657b66ea316d21385b68909f,,,,,,,,,,,717.13,718.127,,,718.629,718.877,,36,36,,,,,,,,,,,,,,,,bars/035.png,bars/mask008.png,,,,,,,,,,,,2,2,,,,,,,0,9,0,8,,,,,,,,,,,718.128,718.628,718.879,724.378,space,5.483,,724.379,41,24,725.377,725.378,727.128,space,1.717,,0,12,12,12,1,175,60,,,,,,,,
,,5d7957036797da0019537ad1,65af55d5cbfd19b26dc0c3e7,2024-01-23_00h17.45.230,bars,2023.2.3,Win32,48.03073967,657b66ea316d21385b68909f,,,,,,,,,,,727.13,728.128,,,728.628,728.878,,107,107,,,,,,,,,,,,,,,,bars/019.png,bars/mask000.png,,,,,,,,,,,,7,2,,,,,,,2,7,3,7,,,,,,,,,,,728.128,728.628,728.878,732.671,space,3.774,,732.671,62,2,733.669,733.669,741.902,space,8.201,,0,13,13,13,1,45,105,,,,,,,,
,,5d7957036797da0019537ad1,65af55d5cbfd19b26dc0c3e7,2024-01-23_00h17.45.230,bars,2023.2.3,Win32,48.03073967,657b66ea316d21385b68909f,,,,,,,,,,,741.907,742.899,,,743.399,743.648,,35,35,,,,,,,,,,,,,,,,bars/035.png,bars/mask006.png,,,,,,,,,,,,2,2,,,,,,,0,9,0,10,,,,,,,,,,,742.899,743.399,743.648,745.273,space,1.608,,745.273,40,25,746.272,746.273,748.253,space,1.949,,0,14,14,14,1,175,60,,,,,,,,
,,5d7957036797da0019537ad1,65af55d5cbfd19b26dc0c3e7,2024-01-23_00h17.45.230,bars,2023.2.3,Win32,48.03073967,657b66ea316d21385b68909f,,,,,,,,,,,748.255,749.252,,,749.752,750.002,,87,267,,,,,,,,,,,,,,,,bars/026.png,bars/mask008.png,,,,,,,,,,,,7,2,,,,,,,0,7,1,7,,,,,,,,,,,749.252,749.752,750.002,756.46,space,6.441,,756.46,52,2,757.46,757.46,767.981,space,10.491,,0,15,15,15,1,35,85,,,,,,,,
,,5d7957036797da0019537ad1,65af55d5cbfd19b26dc0c3e7,2024-01-23_00h17.45.230,bars,2023.2.3,Win32,48.03073967,657b66ea316d21385b68909f,,,,,,,,,,,767.982,768.98,,,769.481,769.731,,39,39,,,,,,,,,,,,,,,,bars/035.png,bars/mask006.png,,,,,,,,,,,,2,2,,,,,,,0,9,2,6,,,,,,,,,,,768.981,769.481,769.731,776.233,space,6.48,,776.234,44,21,777.231,777.231,795.336,space,18.068,,0,16,16,16,1,175,60,,,,,,,,
,,5d7957036797da0019537ad1,65af55d5cbfd19b26dc0c3e7,2024-01-23_00h17.45.230,bars,2023.2.3,Win32,48.03073967,657b66ea316d21385b68909f,,,,,,,,,,,795.341,796.336,,,796.835,797.086,,168,168,,,,,,,,,,,,,,,,bars/024.png,bars/mask006.png,,,,,,,,,,,,7,2,,,,,,,2,7,2,7,,,,,,,,,,,796.336,796.835,797.086,802.107,space,5.001,,802.108,48,2,803.106,803.106,830.715,space,27.58,,0,17,17,17,1,120,170,,,,,,,,
,,5d7957036797da0019537ad1,65af55d5cbfd19b26dc0c3e7,2024-01-23_00h17.45.230,bars,2023.2.3,Win32,48.03073967,657b66ea316d21385b68909f,,,,,,,,,,,830.721,831.71,,,832.211,832.46,,62,62,,,,,,,,,,,,,,,,bars/026.png,bars/mask004.png,,,,,,,,,,,,1,2,,,,,,,0,5,0,4,,,,,,,,,,,831.711,832.211,832.46,834.981,space,2.499,,834.981,27,23,835.966,835.967,837.459,space,1.463,,0,18,18,18,1,35,85,,,,,,,,
,,5d7957036797da0019537ad1,65af55d5cbfd19b26dc0c3e7,2024-01-23_00h17.45.230,bars,2023.2.3,Win32,48.03073967,657b66ea316d21385b68909f,,,,,,,,,,,837.46,838.46,,,838.961,839.213,,59,59,,,,,,,,,,,,,,,,bars/047.png,bars/mask002.png,,,,,,,,,,,,5,2,,,,,,,2,7,1,8,,,,,,,,,,,838.46,838.96,839.214,842.15,space,2.916,,842.15,44,11,843.15,843.15,844.61,space,1.425,,0,19,19,19,1,15,70,,,,,,,,
,,5d7957036797da0019537ad1,65af55d5cbfd19b26dc0c3e7,2024-01-23_00h17.45.230,bars,2023.2.3,Win32,48.03073967,657b66ea316d21385b68909f,,,,,,,,,,,844.613,845.606,,,846.106,846.356,,63,63,,,,,,,,,,,,,,,,bars/038.png,bars/mask004.png,,,,,,,,,,,,4,2,,,,,,,0,5,0,5,,,,,,,,,,,845.606,846.106,846.356,850.898,space,4.522,,850.899,78,7,851.897,851.898,853.856,space,1.942,,0,20,20,20,1,165,70,,,,,,,,
,,5d7957036797da0019537ad1,65af55d5cbfd19b26dc0c3e7,2024-01-23_00h17.45.230,bars,2023.2.3,Win32,48.03073967,657b66ea316d21385b68909f,,,,,,,,,,,853.859,854.855,,,855.356,855.606,,129,129,,,,,,,,,,,,,,,,bars/002.png,bars/mask009.png,,,,,,,,,,,,2,1,,,,,,,2,3,2,4,,,,,,,,,,,854.855,855.356,855.607,858.939,space,3.311,,858.939,1,44,859.939,859.939,864.858,space,4.881,,0,21,21,21,1,130,85,,,,,,,,
,,5d7957036797da0019537ad1,65af55d5cbfd19b26dc0c3e7,2024-01-23_00h17.45.230,bars,2023.2.3,Win32,48.03073967,657b66ea316d21385b68909f,,,,,,,,,,,864.861,865.856,,,866.356,866.605,,88,88,,,,,,,,,,,,,,,,bars/026.png,bars/mask009.png,,,,,,,,,,,,4,2,,,,,,,4,5,3,4,,,,,,,,,,,865.856,866.356,866.606,870.128,space,3.502,,870.129,53,3,871.127,871.127,876.714,space,5.54,,0,22,22,22,1,35,85,,,,,,,,
,,5d7957036797da0019537ad1,65af55d5cbfd19b26dc0c3e7,2024-01-23_00h17.45.230,bars,2023.2.3,Win32,48.03073967,657b66ea316d21385b68909f,,,,,,,,,,,876.72,877.71,,,878.215,878.46,,159,-21,,,,,,,,,,,,,,,,bars/024.png,bars/mask001.png,,,,,,,,,,,,1,2,,,,,,,6,3,5,2,,,,,,,,,,,877.711,878.215,878.46,885.44,space,6.96,,885.44,39,11,886.439,886.439,888.107,space,1.638,,0,23,23,23,1,120,170,,,,,,,,
,,5d7957036797da0019537ad1,65af55d5cbfd19b26dc0c3e7,2024-01-23_00h17.45.230,bars,2023.2.3,Win32,48.03073967,657b66ea316d21385b68909f,,,,,,,,,,,888.111,889.106,,,889.607,889.855,,121,-59,,,,,,,,,,,,,,,,bars/037.png,bars/mask009.png,,,,,,,,,,,,1,2,,,,,,,4,1,4,3,,,,,,,,,,,889.106,889.605,889.856,915.129,space,25.252,,915.132,29,16,916.128,916.128,917.502,space,1.343,,0,24,24,24,1,150,105,,,,,,,,
,,5d7957036797da0019537ad1,65af55d5cbfd19b26dc0c3e7,2024-01-23_00h17.45.230,bars,2023.2.3,Win32,48.03073967,657b66ea316d21385b68909f,,,,,,,,,,,917.505,918.502,,,919.002,919.251,,23,203,,,,,,,,,,,,,,,,bars/036.png,bars/mask000.png,,,,,,,,,,,,0,2,,,,,,,2,0,1,0,,,,,,,,,,,918.502,919.002,919.252,924.67,space,5.405,,924.671,58,3,925.668,925.668,927.439,space,1.741,,0,25,25,25,1,145,20,,,,,,,,
,,5d7957036797da0019537ad1,65af55d5cbfd19b26dc0c3e7,2024-01-23_00h17.45.230,bars,2023.2.3,Win32,48.03073967,657b66ea316d21385b68909f,,,,,,,,,,,927.441,928.439,,,928.939,929.189,,129,129,,,,,,,,,,,,,,,,bars/028.png,bars/mask004.png,,,,,,,,,,,,1,2,,,,,,,0,0,1,1,,,,,,,,,,,928.44,928.939,929.189,933.628,space,4.421,,933.628,84,9,934.627,934.628,937.002,space,2.346,,0,26,26,26,1,45,120,,,,,,,,
,,5d7957036797da0019537ad1,65af55d5cbfd19b26dc0c3e7,2024-01-23_00h17.45.230,bars,2023.2.3,Win32,48.03073967,657b66ea316d21385b68909f,,,,,,,,,,,937.004,938.002,,,938.502,938.751,,129,129,,,,,,,,,,,,,,,,bars/028.png,bars/mask009.png,,,,,,,,,,,,0,2,,,,,,,0,0,1,0,,,,,,,,,,,938.002,938.502,938.751,943.566,space,4.799,,943.569,84,9,944.564,944.564,954.189,space,9.596,,0,27,27,27,1,45,120,,,,,,,,
,,5d7957036797da0019537ad1,65af55d5cbfd19b26dc0c3e7,2024-01-23_00h17.45.230,bars,2023.2.3,Win32,48.03073967,657b66ea316d21385b68909f,,,,,,,,,,,954.192,955.188,,,955.689,955.939,,0,0,,,,,,,,,,,,,,,,bars/016.png,bars/mask001.png,,,,,,,,,,,,0,2,,,,,,,0,0,0,0,,,,,,,,,,,955.189,955.689,955.939,959.314,space,3.354,,959.314,40,15,960.314,960.314,962.632,space,2.293,,0,28,28,28,1,40,165,,,,,,,,
,,5d7957036797da0019537ad1,65af55d5cbfd19b26dc0c3e7,2024-01-23_00h17.45.230,bars,2023.2.3,Win32,48.03073967,657b66ea316d21385b68909f,,,,,,,,,,,962.633,963.627,,,964.127,964.377,,7,7,,,,,,,,,,,,,,,,bars/032.png,bars/mask001.png,,,,,,,,,,,,1,2,,,,,,,0,2,0,2,,,,,,,,,,,963.627,964.127,964.377,970.231,space,5.833,,970.231,62,13,971.231,971.231,972.944,space,1.688,,0,29,29,29,1,125,20,,,,,,,,
,,5d7957036797da0019537ad1,65af55d5cbfd19b26dc0c3e7,2024-01-23_00h17.45.230,bars,2023.2.3,Win32,48.03073967,657b66ea316d21385b68909f,,,,,,,,,,,972.945,973.939,,,974.442,974.689,,112,112,,,,,,,,,,,,,,,,bars/043.png,bars/mask005.png,,,,,,,,,,,,1,2,,,,,,,2,4,3,3,,,,,,,,,,,973.939,974.441,974.69,978.337,space,3.622,,978.337,82,18,979.335,979.335,981.252,space,1.871,,0,30,30,30,1,30,130,,,,,,,,
,,5d7957036797da0019537ad1,65af55d5cbfd19b26dc0c3e7,2024-01-23_00h17.45.230,bars,2023.2.3,Win32,48.03073967,657b66ea316d21385b68909f,,,,,,,,,,,981.257,982.252,,,982.752,983.002,,179,179,,,,,,,,,,,,,,,,bars/012.png,bars/mask002.png,,,,,,,,,,,,1,2,,,,,,,4,2,4,2,,,,,,,,,,,982.252,982.752,983.002,989.733,space,6.72,,989.733,89,16,990.731,990.731,993.128,space,2.368,,0,31,31,31,1,90,15,,,,,,,,
,,5d7957036797da0019537ad1,65af55d5cbfd19b26dc0c3e7,2024-01-23_00h17.45.230,bars,2023.2.3,Win32,48.03073967,657b66ea316d21385b68909f,,,,,,,,,,,993.131,994.126,,,994.628,994.876,,19,19,,,,,,,,,,,,,,,,bars/031.png,bars/mask001.png,,,,,,,,,,,,2,2,,,,,,,6,4,6,4,,,,,,,,,,,994.127,994.628,994.877,997.877,space,2.987,,997.877,79,16,998.877,998.877,1000.384,space,1.483,,0,32,32,32,1,120,35,,,,,,,,
,,5d7957036797da0019537ad1,65af55d5cbfd19b26dc0c3e7,2024-01-23_00h17.45.230,bars,2023.2.3,Win32,48.03073967,657b66ea316d21385b68909f,,,,,,,,,,,1000.386,1001.376,,,1001.878,1002.127,,72,72,,,,,,,,,,,,,,,,bars/002.png,bars/mask004.png,,,,,,,,,,,,3,2,,,,,,,8,6,7,5,,,,,,,,,,,1001.376,1001.878,1002.127,1007.004,space,4.855,,1007.006,58,13,1008.002,1008.002,1011.045,space,3.007,,0,33,33,33,1,130,85,,,,,,,,
,,5d7957036797da0019537ad1,65af55d5cbfd19b26dc0c3e7,2024-01-23_00h17.45.230,bars,2023.2.3,Win32,48.03073967,657b66ea316d21385b68909f,,,,,,,,,,,1011.047,1012.049,,,1012.543,1012.793,,43,223,,,,,,,,,,,,,,,,bars/029.png,bars/mask002.png,,,,,,,,,,,,5,2,,,,,,,6,4,6,5,,,,,,,,,,,1012.049,1012.543,1012.793,1018.648,space,5.838,,1018.649,47,2,1019.648,1019.648,1024.525,space,4.854,,0,34,34,34,1,90,45,,,,,,,,
,,5d7957036797da0019537ad1,65af55d5cbfd19b26dc0c3e7,2024-01-23_00h17.45.230,bars,2023.2.3,Win32,48.03073967,657b66ea316d21385b68909f,,,,,,,,,,,1024.528,1025.522,,,1026.023,1026.272,,66,66,,,,,,,,,,,,,,,,bars/007.png,bars/mask006.png,,,,,,,,,,,,2,2,,,,,,,8,2,7,3,,,,,,,,,,,1025.522,1026.022,1026.272,1032.106,space,5.816,,1032.107,71,11,1033.106,1033.107,1034.939,space,1.804,,0,35,35,35,1,175,55,,,,,,,,
,,5d7957036797da0019537ad1,65af55d5cbfd19b26dc0c3e7,2024-01-23_00h17.45.230,bars,2023.2.3,Win32,48.03073967,657b66ea316d21385b68909f,,,,,,,,,,,1034.94,1035.939,,,1036.439,1036.689,,113,113,,,,,,,,,,,,,,,,bars/005.png,bars/mask007.png,,,,,,,,,,,,0,2,,,,,,,6,0,7,0,,,,,,,,,,,1035.939,1036.439,1036.689,1042.399,space,5.689,,1042.4,77,27,1043.397,1043.398,1048.21,space,4.78,,0,36,36,36,1,10,140,,,,,,,,
,,5d7957036797da0019537ad1,65af55d5cbfd19b26dc0c3e7,2024-01-23_00h17.45.230,bars,2023.2.3,Win32,48.03073967,657b66ea316d21385b68909f,,,,,,,,,,,1048.212,1049.21,,,1049.71,1049.96,,46,46,,,,,,,,,,,,,,,,bars/029.png,bars/mask009.png,,,,,,,,,,,,1,2,,,,,,,4,2,3,1,,,,,,,,,,,1049.21,1049.71,1049.96,1055.422,space,5.45,,1055.423,44,1,1056.418,1056.418,1062.342,space,5.902,,0,37,37,37,1,90,45,,,,,,,,
,,5d7957036797da0019537ad1,65af55d5cbfd19b26dc0c3e7,2024-01-23_00h17.45.230,bars,2023.2.3,Win32,48.03073967,657b66ea316d21385b68909f,,,,,,,,,,,1062.345,1063.335,,,1063.835,1064.085,,4,4,,,,,,,,,,,,,,,,bars/024.png,bars/mask008.png,,,,,,,,,,,,2,2,,,,,,,2,4,1,4,,,,,,,,,,,1063.335,1063.835,1064.085,1068.793,space,4.689,,1068.794,64,14,1069.793,1069.793,1071.359,space,1.54,,0,38,38,38,1,120,170,,,,,,,,
,,5d7957036797da0019537ad1,65af55d5cbfd19b26dc0c3e7,2024-01-23_00h17.45.230,bars,2023.2.3,Win32,48.03073967,657b66ea316d21385b68909f,,,,,,,,,,,1071.36,1072.356,,,1072.857,1073.106,,3,183,,,,,,,,,,,,,,,,bars/020.png,bars/mask003.png,,,,,,,,,,,,3,2,,,,,,,4,6,4,6,,,,,,,,,,,1072.356,1072.856,1073.106,1080.879,space,7.749,,1080.881,68,13,1081.876,1081.877,1118.963,space,37.051,,0,39,39,39,1,115,170,,,,,,,,
,,5d7957036797da0019537ad1,65af55d5cbfd19b26dc0c3e7,2024-01-23_00h17.45.230,bars,2023.2.3,Win32,48.03073967,657b66ea316d21385b68909f,,,,,,,,,,,1118.97,1119.96,,,1120.46,1120.709,,72,72,,,,,,,,,,,,,,,,bars/043.png,bars/mask003.png,,,,,,,,,,,,0,1,,,,,,,2,4,2,2,,,,,,,,,,,1119.96,1120.46,1120.709,1123.149,space,2.418,,1123.149,42,58,1124.147,1124.147,1125.439,space,1.25,,0,40,40,40,1,30,130,,,,,,,,
,,5d7957036797da0019537ad1,65af55d5cbfd19b26dc0c3e7,2024-01-23_00h17.45.230,bars,2023.2.3,Win32,48.03073967,657b66ea316d21385b68909f,,,,,,,,,,,1125.441,1126.439,,,1126.939,1127.19,,156,-24,,,,,,,,,,,,,,,,bars/016.png,bars/mask003.png,,,,,,,,,,,,1,2,,,,,,,4,2,7,2,,,,,,,,,,,1126.439,1126.938,1127.19,1130.668,space,3.459,,1130.668,64,9,1131.668,1131.668,1133.044,space,1.334,,0,41,41,41,1,40,165,,,,,,,,
,,5d7957036797da0019537ad1,65af55d5cbfd19b26dc0c3e7,2024-01-23_00h17.45.230,bars,2023.2.3,Win32,48.03073967,657b66ea316d21385b68909f,,,,,,,,,,,1133.045,1134.043,,,1134.543,1134.793,,119,119,,,,,,,,,,,,,,,,bars/028.png,bars/mask000.png,,,,,,,,,,,,5,2,,,,,,,6,4,7,5,,,,,,,,,,,1134.043,1134.543,1134.793,1136.856,space,2.043,,1136.857,74,1,1137.856,1137.856,1140.001,space,2.117,,0,42,42,42,1,45,120,,,,,,,,
,,5d7957036797da0019537ad1,65af55d5cbfd19b26dc0c3e7,2024-01-23_00h17.45.230,bars,2023.2.3,Win32,48.03073967,657b66ea316d21385b68909f,,,,,,,,,,,1140.003,1141.001,,,1141.508,1141.751,,40,220,,,,,,,,,,,,,,,,bars/022.png,bars/mask008.png,,,,,,,,,,,,1,2,,,,,,,4,2,4,3,,,,,,,,,,,1141.001,1141.508,1141.752,1145.503,space,3.729,,1145.503,55,20,1146.501,1146.502,1148.002,space,1.467,,0,43,43,43,1,95,20,,,,,,,,
,,5d7957036797da0019537ad1,65af55d5cbfd19b26dc0c3e7,2024-01-23_00h17.45.230,bars,2023.2.3,Win32,48.03073967,657b66ea316d21385b68909f,,,,,,,,,,,1148.005,1149.002,,,1149.503,1149.751,,102,102,,,,,,,,,,,,,,,,bars/023.png,bars/mask003.png,,,,,,,,,,,,1,2,,,,,,,6,0,5,1,,,,,,,,,,,1149.002,1149.502,1149.751,1152.981,space,3.215,,1152.981,82,13,1153.981,1153.981,1155.377,space,1.365,,0,44,44,44,1,20,115,,,,,,,,
,,5d7957036797da0019537ad1,65af55d5cbfd19b26dc0c3e7,2024-01-23_00h17.45.230,bars,2023.2.3,Win32,48.03073967,657b66ea316d21385b68909f,,,,,,,,,,,1155.38,1156.377,,,1156.878,1157.127,,113,113,,,,,,,,,,,,,,,,bars/037.png,bars/mask000.png,,,,,,,,,,,,0,2,,,,,,,4,0,3,0,,,,,,,,,,,1156.377,1156.878,1157.127,1160.168,space,3.025,,1160.168,37,8,1161.167,1161.168,1163.382,space,2.191,,0,45,45,45,1,150,105,,,,,,,,
,,5d7957036797da0019537ad1,65af55d5cbfd19b26dc0c3e7,2024-01-23_00h17.45.230,bars,2023.2.3,Win32,48.03073967,657b66ea316d21385b68909f,,,,,,,,,,,1163.384,1164.377,,,1164.877,1165.127,,10,10,,,,,,,,,,,,,,,,bars/005.png,bars/mask003.png,,,,,,,,,,,,6,1,,,,,,,6,2,6,1,,,,,,,,,,,1164.377,1164.877,1165.127,1167.294,space,2.152,,1167.294,0,50,1168.293,1168.294,1172.755,space,4.424,,0,46,46,46,1,10,140,,,,,,,,
,,5d7957036797da0019537ad1,65af55d5cbfd19b26dc0c3e7,2024-01-23_00h17.45.230,bars,2023.2.3,Win32,48.03073967,657b66ea316d21385b68909f,,,,,,,,,,,1172.757,1173.752,,,1174.251,1174.501,,127,-53,,,,,,,,,,,,,,,,bars/004.png,bars/mask006.png,,,,,,,,,,,,5,2,,,,,,,4,4,3,5,,,,,,,,,,,1173.752,1174.251,1174.501,1178.632,space,4.114,,1178.633,78,2,1179.627,1179.627,1182.273,space,2.604,,0,47,47,47,1,25,125,,,,,,,,
,,5d7957036797da0019537ad1,65af55d5cbfd19b26dc0c3e7,2024-01-23_00h17.45.230,bars,2023.2.3,Win32,48.03073967,657b66ea316d21385b68909f,,,,,,,,,,,1182.278,1183.272,,,1183.772,1184.022,,32,212,,,,,,,,,,,,,,,,bars/022.png,bars/mask009.png,,,,,,,,,,,,2,2,,,,,,,2,2,2,3,,,,,,,,,,,1183.272,1183.772,1184.022,1190.007,space,5.96,,1190.007,63,12,1191.002,1191.002,1192.294,space,1.264,,0,48,48,48,1,95,20,,,,,,,,
,,5d7957036797da0019537ad1,65af55d5cbfd19b26dc0c3e7,2024-01-23_00h17.45.230,bars,2023.2.3,Win32,48.03073967,657b66ea316d21385b68909f,,,,,,,,,,,1192.299,1193.293,,,1193.794,1194.043,,97,97,,,,,,,,,,,,,,,,bars/019.png,bars/mask007.png,,,,,,,,,,,,0,2,,,,,,,0,0,0,0,,,,,,,,,,,1193.293,1193.794,1194.043,1198.627,space,4.564,,1198.628,52,8,1199.627,1199.627,1212.003,space,12.346,,0,49,49,49,1,45,105,,,,,,,,
,,5d7957036797da0019537ad1,65af55d5cbfd19b26dc0c3e7,2024-01-23_00h17.45.230,bars,2023.2.3,Win32,48.03073967,657b66ea316d21385b68909f,,,,,,,,,,,,,,,,,,,,,,,,,,,,,,,,,,,,,,,,,,,,,,,,,,,,,,,,,,,,,,,,,,,,,,,,,,,,,,,,,,,,,,,,,,,,,1212.006,1272.005,0,0,0,2,1,sequence_tables/blk014.csv
,,5d7957036797da0019537ad1,65af55d5cbfd19b26dc0c3e7,2024-01-23_00h17.45.230,bars,2023.2.3,Win32,48.03073967,657b66ea316d21385b68909f,,,,,,,,,,,1276.249,1277.253,,,1277.751,1278.002,,88,88,,,,,,,,,,,,,,,,bars/001.png,bars/mask001.png,,,,,,,,,,,,8,2,,,,,,,1,9,1,9,,,,,,1272.014,1276.231,space,4.197,,1277.254,1277.751,1278.002,1283.168,space,5.145,,1283.168,42,3,1284.167,1284.168,1284.176,,,,0,0,0,0,1,130,85,,,,,,,,
,,5d7957036797da0019537ad1,65af55d5cbfd19b26dc0c3e7,2024-01-23_00h17.45.230,bars,2023.2.3,Win32,48.03073967,657b66ea316d21385b68909f,,,,,,,,,,,1284.177,1285.167,,,1285.668,1285.917,,92,92,,,,,,,,,,,,,,,,bars/004.png,bars/mask006.png,,,,,,,,,,,,0,2,,,,,,,0,10,1,10,,,,,,,,,,,1285.167,1285.667,1285.917,1290.544,space,4.609,,1290.544,67,33,1291.542,1291.543,1291.552,,,,0,1,1,1,1,25,125,,,,,,,,
,,5d7957036797da0019537ad1,65af55d5cbfd19b26dc0c3e7,2024-01-23_00h17.45.230,bars,2023.2.3,Win32,48.03073967,657b66ea316d21385b68909f,,,,,,,,,,,1291.553,1292.543,,,1293.043,1293.293,,37,217,,,,,,,,,,,,,,,,bars/030.png,bars/mask002.png,,,,,,,,,,,,1,2,,,,,,,0,8,0,8,,,,,,,,,,,1292.543,1293.043,1293.293,1298.168,space,4.855,,1298.168,77,28,1299.167,1299.167,1299.173,,,,0,2,2,2,1,140,65,,,,,,,,
,,5d7957036797da0019537ad1,65af55d5cbfd19b26dc0c3e7,2024-01-23_00h17.45.230,bars,2023.2.3,Win32,48.03073967,657b66ea316d21385b68909f,,,,,,,,,,,1299.174,1300.167,,,1300.668,1300.918,,93,93,,,,,,,,,,,,,,,,bars/011.png,bars/mask006.png,,,,,,,,,,,,7,2,,,,,,,2,10,1,9,,,,,,,,,,,1300.167,1300.667,1300.918,1305.939,space,5.01,,1305.939,67,8,1306.939,1306.939,1306.944,,,,0,3,3,3,1,160,85,,,,,,,,
,,5d7957036797da0019537ad1,65af55d5cbfd19b26dc0c3e7,2024-01-23_00h17.45.230,bars,2023.2.3,Win32,48.03073967,657b66ea316d21385b68909f,,,,,,,,,,,1306.945,1307.938,,,1308.438,1308.688,,170,170,,,,,,,,,,,,,,,,bars/044.png,bars/mask007.png,,,,,,,,,,,,5,2,,,,,,,0,10,0,10,,,,,,,,,,,1307.938,1308.438,1308.688,1324.232,space,15.527,,1324.233,85,15,1325.23,1325.23,1325.241,,,,0,4,4,4,1,75,155,,,,,,,,
,,5d7957036797da0019537ad1,65af55d5cbfd19b26dc0c3e7,2024-01-23_00h17.45.230,bars,2023.2.3,Win32,48.03073967,657b66ea316d21385b68909f,,,,,,,,,,,1325.242,1326.23,,,1326.73,1326.98,,62,62,,,,,,,,,,,,,,,,bars/041.png,bars/mask007.png,,,,,,,,,,,,2,2,,,,,,,0,10,1,9,,,,,,,,,,,1326.23,1326.73,1326.98,1331.709,space,4.714,,1331.71,42,23,1332.709,1332.709,1332.715,,,,0,5,5,5,1,20,85,,,,,,,,
,,5d7957036797da0019537ad1,65af55d5cbfd19b26dc0c3e7,2024-01-23_00h17.45.230,bars,2023.2.3,Win32,48.03073967,657b66ea316d21385b68909f,,,,,,,,,,,1332.716,1333.71,,,1334.21,1334.46,,157,-23,,,,,,,,,,,,,,,,bars/015.png,bars/mask009.png,,,,,,,,,,,,8,2,,,,,,,2,10,2,9,,,,,,,,,,,1333.711,1334.21,1334.46,1338.813,space,4.337,,1338.813,47,3,1339.814,1339.814,1339.821,,,,0,6,6,6,1,110,160,,,,,,,,
,,5d7957036797da0019537ad1,65af55d5cbfd19b26dc0c3e7,2024-01-23_00h17.45.230,bars,2023.2.3,Win32,48.03073967,657b66ea316d21385b68909f,,,,,,,,,,,1339.822,1340.813,,,1341.314,1341.564,,16,196,,,,,,,,,,,,,,,,bars/015.png,bars/mask004.png,,,,,,,,,,,,0,2,,,,,,,0,8,0,8,,,,,,,,,,,1340.813,1341.314,1341.564,1346.38,space,4.795,,1346.381,86,36,1347.377,1347.377,1347.386,,,,0,7,7,7,1,110,160,,,,,,,,
,,5d7957036797da0019537ad1,65af55d5cbfd19b26dc0c3e7,2024-01-23_00h17.45.230,bars,2023.2.3,Win32,48.03073967,657b66ea316d21385b68909f,,,,,,,,,,,1347.388,1348.378,,,1348.877,1349.127,,38,38,,,,,,,,,,,,,,,,bars/031.png,bars/mask006.png,,,,,,,,,,,,8,2,,,,,,,0,10,0,9,,,,,,,,,,,1348.379,1348.877,1349.127,1352.46,space,3.316,,1352.461,82,3,1353.46,1353.46,1353.468,,,,0,8,8,8,1,120,35,,,,,,,,
,,5d7957036797da0019537ad1,65af55d5cbfd19b26dc0c3e7,2024-01-23_00h17.45.230,bars,2023.2.3,Win32,48.03073967,657b66ea316d21385b68909f,,,,,,,,,,,1353.469,1354.46,,,1354.96,1355.21,,84,84,,,,,,,,,,,,,,,,bars/037.png,bars/mask008.png,,,,,,,,,,,,3,2,,,,,,,2,10,3,10,,,,,,,,,,,1354.46,1354.959,1355.21,1359.022,space,3.794,,1359.022,66,21,1360.022,1360.022,1360.03,,,,0,9,9,9,1,150,105,,,,,,,,
,,5d7957036797da0019537ad1,65af55d5cbfd19b26dc0c3e7,2024-01-23_00h17.45.230,bars,2023.2.3,Win32,48.03073967,657b66ea316d21385b68909f,,,,,,,,,,,1360.03,1361.021,,,1361.522,1361.773,,90,90,,,,,,,,,,,,,,,,bars/011.png,bars/mask009.png,,,,,,,,,,,,8,2,,,,,,,4,10,4,10,,,,,,,,,,,1361.022,1361.522,1361.773,1366.523,space,4.733,,1366.523,70,5,1367.522,1367.522,1367.528,,,,0,10,10,10,1,160,85,,,,,,,,
,,5d7957036797da0019537ad1,65af55d5cbfd19b26dc0c3e7,2024-01-23_00h17.45.230,bars,2023.2.3,Win32,48.03073967,657b66ea316d21385b68909f,,,,,,,,,,,1367.53,1368.522,,,1369.022,1369.272,,94,94,,,,,,,,,,,,,,,,bars/018.png,bars/mask001.png,,,,,,,,,,,,9,2,,,,,,,2,10,3,10,,,,,,,,,,,1368.522,1369.022,1369.272,1372.647,space,3.354,,1372.647,56,4,1373.647,1373.648,1373.653,,,,0,11,11,11,1,150,90,,,,,,,,
,,5d7957036797da0019537ad1,65af55d5cbfd19b26dc0c3e7,2024-01-23_00h17.45.230,bars,2023.2.3,Win32,48.03073967,657b66ea316d21385b68909f,,,,,,,,,,,1373.654,1374.647,,,1375.147,1375.397,,61,61,,,,,,,,,,,,,,,,bars/047.png,bars/mask004.png,,,,,,,,,,,,6,2,,,,,,,4,8,4,8,,,,,,,,,,,1374.647,1375.147,1375.397,1379.668,space,4.258,,1379.668,46,9,1380.669,1380.67,1380.683,,,,0,12,12,12,1,15,70,,,,,,,,
,,5d7957036797da0019537ad1,65af55d5cbfd19b26dc0c3e7,2024-01-23_00h17.45.230,bars,2023.2.3,Win32,48.03073967,657b66ea316d21385b68909f,,,,,,,,,,,1380.685,1381.689,,,1382.189,1382.439,,129,129,,,,,,,,,,,,,,,,bars/004.png,bars/mask008.png,,,,,,,,,,,,8,2,,,,,,,2,10,2,9,,,,,,,,,,,1381.689,1382.189,1382.439,1385.98,space,3.522,,1385.981,76,4,1386.98,1386.98,1386.989,,,,0,13,13,13,1,25,125,,,,,,,,
,,5d7957036797da0019537ad1,65af55d5cbfd19b26dc0c3e7,2024-01-23_00h17.45.230,bars,2023.2.3,Win32,48.03073967,657b66ea316d21385b68909f,,,,,,,,,,,1386.99,1387.98,,,1388.48,1388.73,,119,119,,,,,,,,,,,,,,,,bars/009.png,bars/mask007.png,,,,,,,,,,,,5,2,,,,,,,4,10,5,10,,,,,,,,,,,1387.98,1388.48,1388.73,1391.835,space,3.087,,1391.837,76,14,1392.835,1392.836,1392.843,,,,0,14,14,14,1,15,105,,,,,,,,
,,5d7957036797da0019537ad1,65af55d5cbfd19b26dc0c3e7,2024-01-23_00h17.45.230,bars,2023.2.3,Win32,48.03073967,657b66ea316d21385b68909f,,,,,,,,,,,1392.844,1393.835,,,1394.335,1394.585,,74,74,,,,,,,,,,,,,,,,bars/021.png,bars/mask002.png,,,,,,,,,,,,8,2,,,,,,,6,8,6,9,,,,,,,,,,,1393.835,1394.335,1394.586,1396.901,space,2.3,,1396.901,81,4,1397.897,1397.897,1397.905,,,,0,15,15,15,1,155,70,,,,,,,,
,,5d7957036797da0019537ad1,65af55d5cbfd19b26dc0c3e7,2024-01-23_00h17.45.230,bars,2023.2.3,Win32,48.03073967,657b66ea316d21385b68909f,,,,,,,,,,,1397.906,1398.896,,,1399.397,1399.647,,123,123,,,,,,,,,,,,,,,,bars/028.png,bars/mask000.png,,,,,,,,,,,,6,2,,,,,,,4,6,3,7,,,,,,,,,,,1398.896,1399.397,1399.647,1403.085,space,3.424,,1403.086,78,3,1404.085,1404.085,1404.091,,,,0,16,16,16,1,45,120,,,,,,,,
,,5d7957036797da0019537ad1,65af55d5cbfd19b26dc0c3e7,2024-01-23_00h17.45.230,bars,2023.2.3,Win32,48.03073967,657b66ea316d21385b68909f,,,,,,,,,,,1404.092,1405.085,,,1405.586,1405.835,,2,182,,,,,,,,,,,,,,,,bars/040.png,bars/mask003.png,,,,,,,,,,,,5,2,,,,,,,6,4,7,6,,,,,,,,,,,1405.086,1405.585,1405.835,1412.085,space,6.233,,1412.086,42,3,1413.084,1413.085,1413.091,,,,0,17,17,17,1,140,5,,,,,,,,
,,5d7957036797da0019537ad1,65af55d5cbfd19b26dc0c3e7,2024-01-23_00h17.45.230,bars,2023.2.3,Win32,48.03073967,657b66ea316d21385b68909f,,,,,,,,,,,1413.092,1414.084,,,1414.584,1414.834,,99,99,,,,,,,,,,,,,,,,bars/018.png,bars/mask005.png,,,,,,,,,,,,1,2,,,,,,,8,2,8,2,,,,,,,,,,,1414.085,1414.584,1414.834,1419.917,space,5.06,,1419.917,51,9,1420.917,1420.917,1420.919,,,,0,18,18,18,1,150,90,,,,,,,,
,,5d7957036797da0019537ad1,65af55d5cbfd19b26dc0c3e7,2024-01-23_00h17.45.230,bars,2023.2.3,Win32,48.03073967,657b66ea316d21385b68909f,,,,,,,,,,,1420.92,1421.917,,,1422.417,1422.667,,164,164,,,,,,,,,,,,,,,,bars/048.png,bars/mask004.png,,,,,,,,,,,,2,2,,,,,,,10,4,10,3,,,,,,,,,,,1421.917,1422.417,1422.667,1425.669,space,2.98,,1425.67,66,11,1426.667,1426.667,1426.679,,,,0,19,19,19,1,50,175,,,,,,,,
,,5d7957036797da0019537ad1,65af55d5cbfd19b26dc0c3e7,2024-01-23_00h17.45.230,bars,2023.2.3,Win32,48.03073967,657b66ea316d21385b68909f,,,,,,,,,,,1426.68,1427.668,,,1428.168,1428.418,,4,184,,,,,,,,,,,,,,,,bars/015.png,bars/mask008.png,,,,,,,,,,,,1,2,,,,,,,10,6,10,6,,,,,,,,,,,1427.668,1428.168,1428.418,1433.188,space,4.753,,1433.189,74,24,1434.188,1434.188,1434.197,,,,0,20,20,20,1,110,160,,,,,,,,
,,5d7957036797da0019537ad1,65af55d5cbfd19b26dc0c3e7,2024-01-23_00h17.45.230,bars,2023.2.3,Win32,48.03073967,657b66ea316d21385b68909f,,,,,,,,,,,1434.197,1435.189,,,1435.694,1435.938,,66,66,,,,,,,,,,,,,,,,bars/001.png,bars/mask007.png,,,,,,,,,,,,1,2,,,,,,,10,4,9,4,,,,,,,,,,,1435.189,1435.694,1435.939,1439.189,space,3.23,,1439.189,64,19,1440.188,1440.188,1440.196,,,,0,21,21,21,1,130,85,,,,,,,,
,,5d7957036797da0019537ad1,65af55d5cbfd19b26dc0c3e7,2024-01-23_00h17.45.230,bars,2023.2.3,Win32,48.03073967,657b66ea316d21385b68909f,,,,,,,,,,,1440.196,1441.188,,,1441.689,1441.939,,35,35,,,,,,,,,,,,,,,,bars/023.png,bars/mask008.png,,,,,,,,,,,,5,1,,,,,,,10,6,10,7,,,,,,,,,,,1441.188,1441.689,1441.939,1447.543,space,5.589,,1447.543,15,80,1448.543,1448.543,1448.554,,,,0,22,22,22,1,20,115,,,,,,,,
,,5d7957036797da0019537ad1,65af55d5cbfd19b26dc0c3e7,2024-01-23_00h17.45.230,bars,2023.2.3,Win32,48.03073967,657b66ea316d21385b68909f,,,,,,,,,,,1448.555,1449.543,,,1450.043,1450.293,,30,30,,,,,,,,,,,,,,,,bars/048.png,bars/mask006.png,,,,,,,,,,,,2,1,,,,,,,8,4,7,4,,,,,,,,,,,1449.543,1450.042,1450.293,1453.689,space,3.377,,1453.689,20,35,1454.687,1454.688,1454.696,,,,0,23,23,23,1,50,175,,,,,,,,
,,5d7957036797da0019537ad1,65af55d5cbfd19b26dc0c3e7,2024-01-23_00h17.45.230,bars,2023.2.3,Win32,48.03073967,657b66ea316d21385b68909f,,,,,,,,,,,1454.699,1455.69,,,1456.188,1456.437,,54,234,,,,,,,,,,,,,,,,bars/010.png,bars/mask000.png,,,,,,,,,,,,6,2,,,,,,,6,6,6,6,,,,,,,,,,,1455.691,1456.188,1456.437,1463.314,space,6.859,,1463.315,69,1,1464.314,1464.316,1464.329,,,,0,24,24,24,1,165,55,,,,,,,,
,,5d7957036797da0019537ad1,65af55d5cbfd19b26dc0c3e7,2024-01-23_00h17.45.230,bars,2023.2.3,Win32,48.03073967,657b66ea316d21385b68909f,,,,,,,,,,,1464.331,1465.335,,,1465.835,1466.084,,127,127,,,,,,,,,,,,,,,,bars/006.png,bars/mask007.png,,,,,,,,,,,,1,2,,,,,,,4,8,4,8,,,,,,,,,,,1465.336,1465.835,1466.085,1469.126,space,3.025,,1469.126,88,27,1470.126,1470.127,1470.134,,,,0,25,25,25,1,35,100,,,,,,,,
,,5d7957036797da0019537ad1,65af55d5cbfd19b26dc0c3e7,2024-01-23_00h17.45.230,bars,2023.2.3,Win32,48.03073967,657b66ea316d21385b68909f,,,,,,,,,,,1470.135,1471.129,,,1471.627,1471.877,,84,84,,,,,,,,,,,,,,,,bars/042.png,bars/mask002.png,,,,,,,,,,,,4,2,,,,,,,6,6,4,6,,,,,,,,,,,1471.129,1471.627,1471.877,1476.981,space,5.084,,1476.981,61,9,1477.98,1477.98,1477.986,,,,0,26,26,26,1,145,75,,,,,,,,
,,5d7957036797da0019537ad1,65af55d5cbfd19b26dc0c3e7,2024-01-23_00h17.45.230,bars,2023.2.3,Win32,48.03073967,657b66ea316d21385b68909f,,,,,,,,,,,1477.987,1478.98,,,1479.48,1479.73,,127,127,,,,,,,,,,,,,,,,bars/028.png,bars/mask002.png,,,,,,,,,,,,6,2,,,,,,,4,8,3,8,,,,,,,,,,,1478.98,1479.48,1479.73,1484.147,space,4.397,,1484.147,82,7,1485.146,1485.147,1485.154,,,,0,27,27,27,1,45,120,,,,,,,,
,,5d7957036797da0019537ad1,65af55d5cbfd19b26dc0c3e7,2024-01-23_00h17.45.230,bars,2023.2.3,Win32,48.03073967,657b66ea316d21385b68909f,,,,,,,,,,,1485.155,1486.146,,,1486.646,1486.896,,16,196,,,,,,,,,,,,,,,,bars/015.png,bars/mask008.png,,,,,,,,,,,,0,2,,,,,,,6,6,7,5,,,,,,,,,,,1486.146,1486.646,1486.897,1493.482,space,6.564,,1493.484,86,36,1494.48,1494.48,1494.492,,,,0,28,28,28,1,110,160,,,,,,,,
,,5d7957036797da0019537ad1,65af55d5cbfd19b26dc0c3e7,2024-01-23_00h17.45.230,bars,2023.2.3,Win32,48.03073967,657b66ea316d21385b68909f,,,,,,,,,,,1494.492,1495.48,,,1495.981,1496.231,,174,-6,,,,,,,,,,,,,,,,bars/024.png,bars/mask001.png,,,,,,,,,,,,8,2,,,,,,,4,8,5,9,,,,,,,,,,,1495.48,1495.981,1496.231,1502.839,space,6.589,,1502.839,54,4,1503.834,1503.834,1503.842,,,,0,29,29,29,1,120,170,,,,,,,,
,,5d7957036797da0019537ad1,65af55d5cbfd19b26dc0c3e7,2024-01-23_00h17.45.230,bars,2023.2.3,Win32,48.03073967,657b66ea316d21385b68909f,,,,,,,,,,,1503.844,1504.842,,,1505.335,1505.585,,37,217,,,,,,,,,,,,,,,,bars/025.png,bars/mask007.png,,,,,,,,,,,,5,2,,,,,,,6,6,5,5,,,,,,,,,,,1504.842,1505.334,1505.585,1513.438,space,7.83,,1513.44,68,3,1514.438,1514.438,1514.444,,,,0,30,30,30,1,105,40,,,,,,,,
,,5d7957036797da0019537ad1,65af55d5cbfd19b26dc0c3e7,2024-01-23_00h17.45.230,bars,2023.2.3,Win32,48.03073967,657b66ea316d21385b68909f,,,,,,,,,,,1514.445,1515.438,,,1515.939,1516.188,,66,66,,,,,,,,,,,,,,,,bars/027.png,bars/mask003.png,,,,,,,,,,,,5,2,,,,,,,4,8,3,10,,,,,,,,,,,1515.438,1515.939,1516.188,1519.064,space,2.856,,1519.064,44,16,1520.064,1520.064,1520.07,,,,0,31,31,31,1,110,50,,,,,,,,
,,5d7957036797da0019537ad1,65af55d5cbfd19b26dc0c3e7,2024-01-23_00h17.45.230,bars,2023.2.3,Win32,48.03073967,657b66ea316d21385b68909f,,,,,,,,,,,1520.07,1521.063,,,1521.564,1521.814,,130,130,,,,,,,,,,,,,,,,bars/028.png,bars/mask008.png,,,,,,,,,,,,5,2,,,,,,,2,6,4,7,,,,,,,,,,,1521.064,1521.564,1521.814,1526.63,space,4.802,,1526.631,85,10,1527.626,1527.626,1527.638,,,,0,32,32,32,1,45,120,,,,,,,,
,,5d7957036797da0019537ad1,65af55d5cbfd19b26dc0c3e7,2024-01-23_00h17.45.230,bars,2023.2.3,Win32,48.03073967,657b66ea316d21385b68909f,,,,,,,,,,,1527.639,1528.625,,,1529.127,1529.377,,82,82,,,,,,,,,,,,,,,,bars/046.png,bars/mask002.png,,,,,,,,,,,,7,2,,,,,,,0,8,0,8,,,,,,,,,,,1528.626,1529.127,1529.377,1531.877,space,2.479,,1531.878,73,3,1532.876,1532.876,1532.882,,,,0,33,33,33,1,155,85,,,,,,,,
,,5d7957036797da0019537ad1,65af55d5cbfd19b26dc0c3e7,2024-01-23_00h17.45.230,bars,2023.2.3,Win32,48.03073967,657b66ea316d21385b68909f,,,,,,,,,,,1532.883,1533.876,,,1534.376,1534.626,,4,184,,,,,,,,,,,,,,,,bars/014.png,bars/mask009.png,,,,,,,,,,,,6,2,,,,,,,2,6,2,7,,,,,,,,,,,1533.877,1534.376,1534.627,1540.376,space,5.731,,1540.376,76,4,1541.376,1541.376,1541.383,,,,0,34,34,34,1,80,0,,,,,,,,
,,5d7957036797da0019537ad1,65af55d5cbfd19b26dc0c3e7,2024-01-23_00h17.45.230,bars,2023.2.3,Win32,48.03073967,657b66ea316d21385b68909f,,,,,,,,,,,1541.384,1542.376,,,1542.877,1543.126,,99,99,,,,,,,,,,,,,,,,bars/002.png,bars/mask004.png,,,,,,,,,,,,2,2,,,,,,,0,4,1,4,,,,,,,,,,,1542.376,1542.877,1543.126,1550.563,space,7.423,,1550.563,31,14,1551.564,1551.564,1551.571,,,,0,35,35,35,1,130,85,,,,,,,,
,,5d7957036797da0019537ad1,65af55d5cbfd19b26dc0c3e7,2024-01-23_00h17.45.230,bars,2023.2.3,Win32,48.03073967,657b66ea316d21385b68909f,,,,,,,,,,,1551.572,1552.563,,,1553.064,1553.313,,86,86,,,,,,,,,,,,,,,,bars/046.png,bars/mask008.png,,,,,,,,,,,,4,2,,,,,,,0,6,0,4,,,,,,,,,,,1552.564,1553.064,1553.314,1575.961,space,22.626,,1575.962,69,1,1576.959,1576.959,1576.969,,,,0,36,36,36,1,155,85,,,,,,,,
,,5d7957036797da0019537ad1,65af55d5cbfd19b26dc0c3e7,2024-01-23_00h17.45.230,bars,2023.2.3,Win32,48.03073967,657b66ea316d21385b68909f,,,,,,,,,,,1576.97,1577.959,,,1578.459,1578.709,,171,171,,,,,,,,,,,,,,,,bars/044.png,bars/mask001.png,,,,,,,,,,,,2,2,,,,,,,2,4,2,5,,,,,,,,,,,1577.959,1578.459,1578.709,1583,space,4.269,,1583.001,84,16,1584.001,1584.001,1584.009,,,,0,37,37,37,1,75,155,,,,,,,,
,,5d7957036797da0019537ad1,65af55d5cbfd19b26dc0c3e7,2024-01-23_00h17.45.230,bars,2023.2.3,Win32,48.03073967,657b66ea316d21385b68909f,,,,,,,,,,,1584.009,1585,,,1585.502,1585.751,,49,49,,,,,,,,,,,,,,,,bars/038.png,bars/mask007.png,,,,,,,,,,,,2,2,,,,,,,4,6,5,6,,,,,,,,,,,1585.001,1585.502,1585.751,1589.167,space,3.398,,1589.167,64,21,1590.167,1590.168,1590.175,,,,0,38,38,38,1,165,70,,,,,,,,
,,5d7957036797da0019537ad1,65af55d5cbfd19b26dc0c3e7,2024-01-23_00h17.45.230,bars,2023.2.3,Win32,48.03073967,657b66ea316d21385b68909f,,,,,,,,,,,1590.176,1591.167,,,1591.667,1591.917,,50,50,,,,,,,,,,,,,,,,bars/006.png,bars/mask003.png,,,,,,,,,,,,1,1,,,,,,,2,8,1,8,,,,,,,,,,,1591.167,1591.667,1591.917,1594.002,space,2.066,,1594.004,15,50,1595.002,1595.002,1595.019,,,,0,39,39,39,1,35,100,,,,,,,,
,,5d7957036797da0019537ad1,65af55d5cbfd19b26dc0c3e7,2024-01-23_00h17.45.230,bars,2023.2.3,Win32,48.03073967,657b66ea316d21385b68909f,,,,,,,,,,,1595.022,1596.007,,,1596.5,1596.752,,151,151,,,,,,,,,,,,,,,,bars/004.png,bars/mask003.png,,,,,,,,,,,,1,2,,,,,,,0,10,0,10,,,,,,,,,,,1596.008,1596.5,1596.752,1600.692,space,3.926,,1600.693,54,26,1601.688,1601.688,1601.699,,,,0,40,40,40,1,25,125,,,,,,,,
,,5d7957036797da0019537ad1,65af55d5cbfd19b26dc0c3e7,2024-01-23_00h17.45.230,bars,2023.2.3,Win32,48.03073967,657b66ea316d21385b68909f,,,,,,,,,,,1601.7,1602.689,,,1603.188,1603.439,,64,64,,,,,,,,,,,,,,,,bars/028.png,bars/mask009.png,,,,,,,,,,,,0,1,,,,,,,0,8,1,10,,,,,,,,,,,1602.689,1603.188,1603.439,1607.439,space,3.98,,1607.439,19,56,1608.438,1608.438,1608.45,,,,0,41,41,41,1,45,120,,,,,,,,
,,5d7957036797da0019537ad1,65af55d5cbfd19b26dc0c3e7,2024-01-23_00h17.45.230,bars,2023.2.3,Win32,48.03073967,657b66ea316d21385b68909f,,,,,,,,,,,1608.451,1609.438,,,1609.938,1610.189,,95,95,,,,,,,,,,,,,,,,bars/012.png,bars/mask008.png,,,,,,,,,,,,0,1,,,,,,,0,10,0,10,,,,,,,,,,,1609.438,1609.938,1610.189,1613.379,space,3.178,,1613.379,5,80,1614.375,1614.376,1614.382,,,,0,42,42,42,1,90,15,,,,,,,,
,,5d7957036797da0019537ad1,65af55d5cbfd19b26dc0c3e7,2024-01-23_00h17.45.230,bars,2023.2.3,Win32,48.03073967,657b66ea316d21385b68909f,,,,,,,,,,,1614.383,1615.376,,,1615.876,1616.126,,103,103,,,,,,,,,,,,,,,,bars/019.png,bars/mask002.png,,,,,,,,,,,,9,2,,,,,,,2,10,2,10,,,,,,,,,,,1615.376,1615.876,1616.126,1619.959,space,3.816,,1619.959,58,2,1620.959,1620.959,1620.97,,,,0,43,43,43,1,45,105,,,,,,,,
,,5d7957036797da0019537ad1,65af55d5cbfd19b26dc0c3e7,2024-01-23_00h17.45.230,bars,2023.2.3,Win32,48.03073967,657b66ea316d21385b68909f,,,,,,,,,,,1620.971,1621.959,,,1622.459,1622.709,,127,-53,,,,,,,,,,,,,,,,bars/009.png,bars/mask008.png,,,,,,,,,,,,2,2,,,,,,,0,8,1,9,,,,,,,,,,,1621.959,1622.459,1622.709,1627.048,space,4.321,,1627.049,68,22,1628.043,1628.043,1628.055,,,,0,44,44,44,1,15,105,,,,,,,,
,,5d7957036797da0019537ad1,65af55d5cbfd19b26dc0c3e7,2024-01-23_00h17.45.230,bars,2023.2.3,Win32,48.03073967,657b66ea316d21385b68909f,,,,,,,,,,,1628.057,1629.043,,,1629.543,1629.793,,0,0,,,,,,,,,,,,,,,,bars/045.png,bars/mask006.png,,,,,,,,,,,,7,2,,,,,,,0,10,0,10,,,,,,,,,,,1629.043,1629.543,1629.793,1632.251,space,2.435,,1632.252,80,10,1633.251,1633.251,1633.258,,,,0,45,45,45,1,100,10,,,,,,,,
,,5d7957036797da0019537ad1,65af55d5cbfd19b26dc0c3e7,2024-01-23_00h17.45.230,bars,2023.2.3,Win32,48.03073967,657b66ea316d21385b68909f,,,,,,,,,,,1633.259,1634.251,,,1634.751,1635.001,,44,224,,,,,,,,,,,,,,,,bars/025.png,bars/mask005.png,,,,,,,,,,,,9,2,,,,,,,0,10,0,10,,,,,,,,,,,1634.251,1634.75,1635.001,1640.797,space,5.781,,1640.797,61,4,1641.792,1641.792,1641.799,,,,0,46,46,46,1,105,40,,,,,,,,
,,5d7957036797da0019537ad1,65af55d5cbfd19b26dc0c3e7,2024-01-23_00h17.45.230,bars,2023.2.3,Win32,48.03073967,657b66ea316d21385b68909f,,,,,,,,,,,1641.8,1642.793,,,1643.293,1643.543,,95,95,,,,,,,,,,,,,,,,bars/011.png,bars/mask004.png,,,,,,,,,,,,5,2,,,,,,,0,8,0,8,,,,,,,,,,,1642.793,1643.293,1643.543,1648.042,space,4.48,,1648.043,65,10,1649.043,1649.043,1649.05,,,,0,47,47,47,1,160,85,,,,,,,,
,,5d7957036797da0019537ad1,65af55d5cbfd19b26dc0c3e7,2024-01-23_00h17.45.230,bars,2023.2.3,Win32,48.03073967,657b66ea316d21385b68909f,,,,,,,,,,,1649.051,1650.042,,,1650.542,1650.793,,135,-45,,,,,,,,,,,,,,,,bars/028.png,bars/mask004.png,,,,,,,,,,,,4,2,,,,,,,0,6,0,7,,,,,,,,,,,1650.042,1650.542,1650.793,1654.917,space,4.104,,1654.918,90,15,1655.917,1655.918,1655.923,,,,0,48,48,48,1,45,120,,,,,,,,
,,5d7957036797da0019537ad1,65af55d5cbfd19b26dc0c3e7,2024-01-23_00h17.45.230,bars,2023.2.3,Win32,48.03073967,657b66ea316d21385b68909f,,,,,,,,,,,1655.924,1656.917,,,1657.417,1657.667,,57,57,,,,,,,,,,,,,,,,bars/046.png,bars/mask006.png,,,,,,,,,,,,0,2,,,,,,,2,4,3,5,,,,,,,,,,,1656.917,1657.417,1657.668,1660.938,space,3.249,,1660.938,82,28,1661.938,1661.938,1661.941,,,,0,49,49,49,1,155,85,,,,,,,,
,,5d7957036797da0019537ad1,65af55d5cbfd19b26dc0c3e7,2024-01-23_00h17.45.230,bars,2023.2.3,Win32,48.03073967,657b66ea316d21385b68909f,,,,,,,,,,,,,,,,,,,,,,,,,,,,,,,,,,,,,,,,,,,,,,,,,,,,,,,,,,,,,,,,,,,,,,,,,,,,,,,,,,,,,,,,,,,,,1661.943,1721.94,0,1,1,3,1,sequence_tables/blk003.csv
,,5d7957036797da0019537ad1,65af55d5cbfd19b26dc0c3e7,2024-01-23_00h17.45.230,bars,2023.2.3,Win32,48.03073967,657b66ea316d21385b68909f,,,,,,,,,,,1723.689,1724.688,,,1725.188,1725.438,,107,-73,,,,,,,,,,,,,,,,bars/018.png,bars/mask001.png,,,,,,,,,,,,3,2,,,,,,,7,5,7,6,,,,,,1721.948,1723.67,space,1.704,,1724.688,1725.188,1725.438,1733.251,space,7.796,,1733.252,43,17,1734.251,1734.252,1734.262,,,,0,0,0,0,1,150,90,,,,,,,,
,,5d7957036797da0019537ad1,65af55d5cbfd19b26dc0c3e7,2024-01-23_00h17.45.230,bars,2023.2.3,Win32,48.03073967,657b66ea316d21385b68909f,,,,,,,,,,,1734.264,1735.25,,,1735.751,1736,,34,34,,,,,,,,,,,,,,,,bars/010.png,bars/mask009.png,,,,,,,,,,,,2,2,,,,,,,5,7,5,7,,,,,,,,,,,1735.251,1735.751,1736,1739.23,space,3.211,,1739.23,49,21,1740.229,1740.23,1740.236,,,,0,1,1,1,1,165,55,,,,,,,,
,,5d7957036797da0019537ad1,65af55d5cbfd19b26dc0c3e7,2024-01-23_00h17.45.230,bars,2023.2.3,Win32,48.03073967,657b66ea316d21385b68909f,,,,,,,,,,,1740.237,1741.23,,,1741.73,1741.98,,70,70,,,,,,,,,,,,,,,,bars/034.png,bars/mask002.png,,,,,,,,,,,,3,2,,,,,,,3,5,4,4,,,,,,,,,,,1741.23,1741.729,1741.98,1744.876,space,2.881,,1744.876,55,5,1745.875,1745.875,1745.883,,,,0,2,2,2,1,125,65,,,,,,,,
,,5d7957036797da0019537ad1,65af55d5cbfd19b26dc0c3e7,2024-01-23_00h17.45.230,bars,2023.2.3,Win32,48.03073967,657b66ea316d21385b68909f,,,,,,,,,,,1745.883,1746.876,,,1747.376,1747.626,,9,9,,,,,,,,,,,,,,,,bars/040.png,bars/mask003.png,,,,,,,,,,,,3,2,,,,,,,1,3,2,3,,,,,,,,,,,1746.876,1747.376,1747.626,1751.501,space,3.854,,1751.501,49,4,1752.501,1752.501,1752.506,,,,0,3,3,3,1,140,5,,,,,,,,
,,5d7957036797da0019537ad1,65af55d5cbfd19b26dc0c3e7,2024-01-23_00h17.45.230,bars,2023.2.3,Win32,48.03073967,657b66ea316d21385b68909f,,,,,,,,,,,1752.508,1753.501,,,1754.001,1754.25,,50,50,,,,,,,,,,,,,,,,bars/029.png,bars/mask002.png,,,,,,,,,,,,5,2,,,,,,,3,5,2,6,,,,,,,,,,,1753.501,1754.001,1754.25,1757.154,space,2.875,,1757.154,40,5,1758.146,1758.146,1758.151,,,,0,4,4,4,1,90,45,,,,,,,,
,,5d7957036797da0019537ad1,65af55d5cbfd19b26dc0c3e7,2024-01-23_00h17.45.230,bars,2023.2.3,Win32,48.03073967,657b66ea316d21385b68909f,,,,,,,,,,,1758.151,1759.146,,,1759.646,1759.895,,66,66,,,,,,,,,,,,,,,,bars/030.png,bars/mask005.png,,,,,,,,,,,,2,2,,,,,,,1,3,3,2,,,,,,,,,,,1759.146,1759.646,1759.895,1762.148,space,2.238,,1762.148,74,1,1763.146,1763.146,1763.151,,,,0,5,5,5,1,140,65,,,,,,,,
,,5d7957036797da0019537ad1,65af55d5cbfd19b26dc0c3e7,2024-01-23_00h17.45.230,bars,2023.2.3,Win32,48.03073967,657b66ea316d21385b68909f,,,,,,,,,,,1763.152,1764.149,,,1764.647,1764.896,,107,107,,,,,,,,,,,,,,,,bars/010.png,bars/mask008.png,,,,,,,,,,,,0,2,,,,,,,3,1,2,1,,,,,,,,,,,1764.149,1764.647,1764.896,1793.617,space,28.707,,1793.617,58,52,1794.612,1794.612,1794.618,,,,0,6,6,6,1,165,55,,,,,,,,
,,5d7957036797da0019537ad1,65af55d5cbfd19b26dc0c3e7,2024-01-23_00h17.45.230,bars,2023.2.3,Win32,48.03073967,657b66ea316d21385b68909f,,,,,,,,,,,1794.618,1795.613,,,1796.12,1796.364,,31,31,,,,,,,,,,,,,,,,bars/022.png,bars/mask007.png,,,,,,,,,,,,0,2,,,,,,,5,0,6,0,,,,,,,,,,,1795.613,1796.12,1796.364,1799.748,space,3.371,,1799.748,64,11,1800.746,1800.747,1800.756,,,,0,7,7,7,1,95,20,,,,,,,,
,,5d7957036797da0019537ad1,65af55d5cbfd19b26dc0c3e7,2024-01-23_00h17.45.230,bars,2023.2.3,Win32,48.03073967,657b66ea316d21385b68909f,,,,,,,,,,,1800.757,1801.746,,,1802.247,1802.496,,176,-4,,,,,,,,,,,,,,,,bars/035.png,bars/mask001.png,,,,,,,,,,,,7,1,,,,,,,7,0,7,0,,,,,,,,,,,1801.747,1802.247,1802.496,1805.564,space,3.052,,1805.564,1,64,1806.564,1806.565,1806.576,,,,0,8,8,8,1,175,60,,,,,,,,
,,5d7957036797da0019537ad1,65af55d5cbfd19b26dc0c3e7,2024-01-23_00h17.45.230,bars,2023.2.3,Win32,48.03073967,657b66ea316d21385b68909f,,,,,,,,,,,1806.577,1807.579,,,1808.079,1808.329,,133,-47,,,,,,,,,,,,,,,,bars/005.png,bars/mask004.png,,,,,,,,,,,,1,2,,,,,,,9,0,9,1,,,,,,,,,,,1807.58,1808.079,1808.33,1813.645,space,5.303,,1813.645,57,7,1814.646,1814.646,1814.655,,,,0,9,9,9,1,10,140,,,,,,,,
,,5d7957036797da0019537ad1,65af55d5cbfd19b26dc0c3e7,2024-01-23_00h17.45.230,bars,2023.2.3,Win32,48.03073967,657b66ea316d21385b68909f,,,,,,,,,,,1814.656,1815.645,,,1816.146,1816.396,,104,104,,,,,,,,,,,,,,,,bars/002.png,bars/mask001.png,,,,,,,,,,,,0,2,,,,,,,10,2,9,1,,,,,,,,,,,1815.645,1816.145,1816.396,1820.479,space,4.07,,1820.479,26,19,1821.479,1821.479,1821.485,,,,0,10,10,10,1,130,85,,,,,,,,
,,5d7957036797da0019537ad1,65af55d5cbfd19b26dc0c3e7,2024-01-23_00h17.45.230,bars,2023.2.3,Win32,48.03073967,657b66ea316d21385b68909f,,,,,,,,,,,1821.486,1822.479,,,1822.979,1823.228,,90,90,,,,,,,,,,,,,,,,bars/047.png,bars/mask002.png,,,,,,,,,,,,1,2,,,,,,,8,4,8,4,,,,,,,,,,,1822.479,1822.979,1823.228,1826.162,space,2.92,,1826.162,75,20,1827.161,1827.162,1827.169,,,,0,11,11,11,1,15,70,,,,,,,,
,,5d7957036797da0019537ad1,65af55d5cbfd19b26dc0c3e7,2024-01-23_00h17.45.230,bars,2023.2.3,Win32,48.03073967,657b66ea316d21385b68909f,,,,,,,,,,,1827.169,1828.161,,,1828.662,1828.917,,147,147,,,,,,,,,,,,,,,,bars/003.png,bars/mask006.png,,,,,,,,,,,,5,2,,,,,,,6,6,6,7,,,,,,,,,,,1828.161,1828.662,1828.918,1830.113,space,1.179,,1830.114,58,7,1831.112,1831.112,1831.124,,,,0,12,12,12,1,25,140,,,,,,,,
,,5d7957036797da0019537ad1,65af55d5cbfd19b26dc0c3e7,2024-01-23_00h17.45.230,bars,2023.2.3,Win32,48.03073967,657b66ea316d21385b68909f,,,,,,,,,,,1831.126,1832.128,,,1832.628,1832.878,,51,51,,,,,,,,,,,,,,,,bars/007.png,bars/mask005.png,,,,,,,,,,,,8,2,,,,,,,8,8,8,9,,,,,,,,,,,1832.128,1832.628,1832.878,1835.262,space,2.368,,1835.263,56,4,1836.262,1836.262,1836.27,,,,0,13,13,13,1,175,55,,,,,,,,
,,5d7957036797da0019537ad1,65af55d5cbfd19b26dc0c3e7,2024-01-23_00h17.45.230,bars,2023.2.3,Win32,48.03073967,657b66ea316d21385b68909f,,,,,,,,,,,1836.271,1837.261,,,1837.762,1838.011,,164,-16,,,,,,,,,,,,,,,,bars/045.png,bars/mask005.png,,,,,,,,,,,,1,2,,,,,,,10,6,9,6,,,,,,,,,,,1837.262,1837.762,1838.011,1844.045,space,6.019,,1844.046,64,26,1845.044,1845.044,1845.052,,,,0,14,14,14,1,100,10,,,,,,,,
,,5d7957036797da0019537ad1,65af55d5cbfd19b26dc0c3e7,2024-01-23_00h17.45.230,bars,2023.2.3,Win32,48.03073967,657b66ea316d21385b68909f,,,,,,,,,,,1845.052,1846.045,,,1846.545,1846.795,,69,249,,,,,,,,,,,,,,,,bars/027.png,bars/mask002.png,,,,,,,,,,,,1,2,,,,,,,10,4,10,3,,,,,,,,,,,1846.045,1846.545,1846.795,1851.645,space,4.835,,1851.645,41,19,1852.644,1852.644,1852.65,,,,0,15,15,15,1,110,50,,,,,,,,
,,5d7957036797da0019537ad1,65af55d5cbfd19b26dc0c3e7,2024-01-23_00h17.45.230,bars,2023.2.3,Win32,48.03073967,657b66ea316d21385b68909f,,,,,,,,,,,1852.651,1853.644,,,1854.145,1854.394,,47,47,,,,,,,,,,,,,,,,bars/047.png,bars/mask000.png,,,,,,,,,,,,1,2,,,,,,,10,6,10,5,,,,,,,,,,,1853.644,1854.145,1854.394,1860.766,space,6.356,,1860.766,32,23,1861.76,1861.76,1861.772,,,,0,16,16,16,1,15,70,,,,,,,,
,,5d7957036797da0019537ad1,65af55d5cbfd19b26dc0c3e7,2024-01-23_00h17.45.230,bars,2023.2.3,Win32,48.03073967,657b66ea316d21385b68909f,,,,,,,,,,,1861.772,1862.76,,,1863.26,1863.51,,146,146,,,,,,,,,,,,,,,,bars/010.png,bars/mask002.png,,,,,,,,,,,,4,1,,,,,,,10,4,10,5,,,,,,,,,,,1862.76,1863.26,1863.51,1865.444,space,1.918,,1865.445,19,89,1866.443,1866.443,1866.454,,,,0,17,17,17,1,165,55,,,,,,,,
,,5d7957036797da0019537ad1,65af55d5cbfd19b26dc0c3e7,2024-01-23_00h17.45.230,bars,2023.2.3,Win32,48.03073967,657b66ea316d21385b68909f,,,,,,,,,,,1866.455,1867.443,,,1867.944,1868.193,,174,-6,,,,,,,,,,,,,,,,bars/013.png,bars/mask004.png,,,,,,,,,,,,3,2,,,,,,,10,6,10,7,,,,,,,,,,,1867.443,1867.943,1868.193,1870.642,space,2.433,,1870.643,81,16,1871.642,1871.642,1871.654,,,,0,18,18,18,1,75,10,,,,,,,,
,,5d7957036797da0019537ad1,65af55d5cbfd19b26dc0c3e7,2024-01-23_00h17.45.230,bars,2023.2.3,Win32,48.03073967,657b66ea316d21385b68909f,,,,,,,,,,,1871.655,1872.659,,,1873.159,1873.408,,147,-33,,,,,,,,,,,,,,,,bars/005.png,bars/mask000.png,,,,,,,,,,,,7,2,,,,,,,10,8,10,9,,,,,,,,,,,1872.659,1873.159,1873.409,1877.192,space,3.769,,1877.194,43,7,1878.192,1878.192,1878.199,,,,0,19,19,19,1,10,140,,,,,,,,
,,5d7957036797da0019537ad1,65af55d5cbfd19b26dc0c3e7,2024-01-23_00h17.45.230,bars,2023.2.3,Win32,48.03073967,657b66ea316d21385b68909f,,,,,,,,,,,1878.199,1879.193,,,1879.692,1879.942,,145,145,,,,,,,,,,,,,,,,bars/006.png,bars/mask004.png,,,,,,,,,,,,0,2,,,,,,,8,10,6,9,,,,,,,,,,,1879.193,1879.692,1879.942,1883.842,space,3.884,,1883.842,70,45,1884.842,1884.842,1884.848,,,,0,20,20,20,1,35,100,,,,,,,,
,,5d7957036797da0019537ad1,65af55d5cbfd19b26dc0c3e7,2024-01-23_00h17.45.230,bars,2023.2.3,Win32,48.03073967,657b66ea316d21385b68909f,,,,,,,,,,,1884.849,1885.841,,,1886.342,1886.592,,100,-80,,,,,,,,,,,,,,,,bars/006.png,bars/mask003.png,,,,,,,,,,,,9,2,,,,,,,6,10,6,9,,,,,,,,,,,1885.841,1886.342,1886.592,1891.625,space,5.023,,1891.625,65,0,1892.626,1892.627,1892.633,,,,0,21,21,21,1,35,100,,,,,,,,
,,5d7957036797da0019537ad1,65af55d5cbfd19b26dc0c3e7,2024-01-23_00h17.45.230,bars,2023.2.3,Win32,48.03073967,657b66ea316d21385b68909f,,,,,,,,,,,1892.634,1893.626,,,1894.126,1894.375,,49,229,,,,,,,,,,,,,,,,bars/038.png,bars/mask005.png,,,,,,,,,,,,3,2,,,,,,,4,8,3,9,,,,,,,,,,,1893.626,1894.125,1894.376,1898.557,space,4.167,,1898.557,64,21,1899.557,1899.557,1899.564,,,,0,22,22,22,1,165,70,,,,,,,,
,,5d7957036797da0019537ad1,65af55d5cbfd19b26dc0c3e7,2024-01-23_00h17.45.230,bars,2023.2.3,Win32,48.03073967,657b66ea316d21385b68909f,,,,,,,,,,,1899.564,1900.557,,,1901.058,1901.306,,58,58,,,,,,,,,,,,,,,,bars/029.png,bars/mask000.png,,,,,,,,,,,,6,2,,,,,,,6,10,5,10,,,,,,,,,,,1900.557,1901.058,1901.307,1905.491,space,4.172,,1905.491,32,13,1906.491,1906.491,1906.499,,,,0,23,23,23,1,90,45,,,,,,,,
,,5d7957036797da0019537ad1,65af55d5cbfd19b26dc0c3e7,2024-01-23_00h17.45.230,bars,2023.2.3,Win32,48.03073967,657b66ea316d21385b68909f,,,,,,,,,,,1906.499,1907.49,,,1907.99,1908.24,,12,192,,,,,,,,,,,,,,,,bars/012.png,bars/mask009.png,,,,,,,,,,,,9,2,,,,,,,8,10,8,10,,,,,,,,,,,1907.49,1907.99,1908.24,1912.541,space,4.284,,1912.541,78,3,1913.54,1913.54,1913.547,,,,0,24,24,24,1,90,15,,,,,,,,
,,5d7957036797da0019537ad1,65af55d5cbfd19b26dc0c3e7,2024-01-23_00h17.45.230,bars,2023.2.3,Win32,48.03073967,657b66ea316d21385b68909f,,,,,,,,,,,1913.548,1914.54,,,1915.04,1915.29,,110,-70,,,,,,,,,,,,,,,,bars/018.png,bars/mask009.png,,,,,,,,,,,,2,2,,,,,,,6,8,7,7,,,,,,,,,,,1914.54,1915.04,1915.29,1920.54,space,5.234,,1920.54,40,20,1921.54,1921.54,1921.546,,,,0,25,25,25,1,150,90,,,,,,,,
,,5d7957036797da0019537ad1,65af55d5cbfd19b26dc0c3e7,2024-01-23_00h17.45.230,bars,2023.2.3,Win32,48.03073967,657b66ea316d21385b68909f,,,,,,,,,,,1921.547,1922.539,,,1923.039,1923.289,,6,6,,,,,,,,,,,,,,,,bars/013.png,bars/mask007.png,,,,,,,,,,,,5,2,,,,,,,4,6,4,6,,,,,,,,,,,1922.539,1923.039,1923.289,1926.157,space,2.852,,1926.158,69,4,1927.156,1927.156,1927.165,,,,0,26,26,26,1,75,10,,,,,,,,
,,5d7957036797da0019537ad1,65af55d5cbfd19b26dc0c3e7,2024-01-23_00h17.45.230,bars,2023.2.3,Win32,48.03073967,657b66ea316d21385b68909f,,,,,,,,,,,1927.167,1928.156,,,1928.656,1928.906,,172,172,,,,,,,,,,,,,,,,bars/008.png,bars/mask000.png,,,,,,,,,,,,5,2,,,,,,,2,8,3,7,,,,,,,,,,,1928.156,1928.656,1928.906,1933.556,space,4.638,,1933.556,62,8,1934.555,1934.555,1934.562,,,,0,27,27,27,1,110,0,,,,,,,,
,,5d7957036797da0019537ad1,65af55d5cbfd19b26dc0c3e7,2024-01-23_00h17.45.230,bars,2023.2.3,Win32,48.03073967,657b66ea316d21385b68909f,,,,,,,,,,,1934.563,1935.555,,,1936.055,1936.305,,55,235,,,,,,,,,,,,,,,,bars/034.png,bars/mask002.png,,,,,,,,,,,,7,2,,,,,,,0,10,0,10,,,,,,,,,,,1935.555,1936.055,1936.305,1942.905,space,6.588,,1942.905,70,10,1943.908,1943.908,1943.912,,,,0,28,28,28,1,125,65,,,,,,,,
,,5d7957036797da0019537ad1,65af55d5cbfd19b26dc0c3e7,2024-01-23_00h17.45.230,bars,2023.2.3,Win32,48.03073967,657b66ea316d21385b68909f,,,,,,,,,,,1943.913,1944.904,,,1945.404,1945.655,,15,15,,,,,,,,,,,,,,,,bars/036.png,bars/mask009.png,,,,,,,,,,,,8,2,,,,,,,0,8,1,9,,,,,,,,,,,1944.905,1945.404,1945.655,1949.288,space,3.617,,1949.288,50,5,1950.288,1950.288,1950.293,,,,0,29,29,29,1,145,20,,,,,,,,
,,5d7957036797da0019537ad1,65af55d5cbfd19b26dc0c3e7,2024-01-23_00h17.45.230,bars,2023.2.3,Win32,48.03073967,657b66ea316d21385b68909f,,,,,,,,,,,1950.294,1951.287,,,1951.788,1952.037,,49,49,,,,,,,,,,,,,,,,bars/017.png,bars/mask001.png,,,,,,,,,,,,4,2,,,,,,,0,6,0,5,,,,,,,,,,,1951.288,1951.788,1952.038,1955.171,space,3.117,,1955.171,84,4,1956.171,1956.171,1956.178,,,,0,30,30,30,1,145,45,,,,,,,,
,,5d7957036797da0019537ad1,65af55d5cbfd19b26dc0c3e7,2024-01-23_00h17.45.230,bars,2023.2.3,Win32,48.03073967,657b66ea316d21385b68909f,,,,,,,,,,,1956.179,1957.171,,,1957.671,1957.924,,108,108,,,,,,,,,,,,,,,,bars/049.png,bars/mask006.png,,,,,,,,,,,,7,2,,,,,,,2,8,3,9,,,,,,,,,,,1957.171,1957.671,1957.926,1959.121,space,1.179,,1959.121,52,7,1960.121,1960.122,1960.134,,,,0,31,31,31,1,160,115,,,,,,,,
,,5d7957036797da0019537ad1,65af55d5cbfd19b26dc0c3e7,2024-01-23_00h17.45.230,bars,2023.2.3,Win32,48.03073967,657b66ea316d21385b68909f,,,,,,,,,,,1960.135,1961.137,,,1961.636,1961.886,,15,15,,,,,,,,,,,,,,,,bars/045.png,bars/mask009.png,,,,,,,,,,,,8,2,,,,,,,0,10,0,9,,,,,,,,,,,1961.137,1961.636,1961.886,1964.805,space,2.908,,1964.805,85,5,1965.805,1965.805,1965.812,,,,0,32,32,32,1,100,10,,,,,,,,
,,5d7957036797da0019537ad1,65af55d5cbfd19b26dc0c3e7,2024-01-23_00h17.45.230,bars,2023.2.3,Win32,48.03073967,657b66ea316d21385b68909f,,,,,,,,,,,1965.813,1966.804,,,1967.305,1967.555,,12,12,,,,,,,,,,,,,,,,bars/014.png,bars/mask007.png,,,,,,,,,,,,6,2,,,,,,,2,10,3,10,,,,,,,,,,,1966.805,1967.304,1967.555,1970.654,space,3.083,,1970.655,68,12,1971.653,1971.654,1971.658,,,,0,33,33,33,1,80,0,,,,,,,,
,,5d7957036797da0019537ad1,65af55d5cbfd19b26dc0c3e7,2024-01-23_00h17.45.230,bars,2023.2.3,Win32,48.03073967,657b66ea316d21385b68909f,,,,,,,,,,,1971.659,1972.653,,,1973.154,1973.404,,69,69,,,,,,,,,,,,,,,,bars/047.png,bars/mask009.png,,,,,,,,,,,,10,2,,,,,,,0,10,0,10,,,,,,,,,,,1972.654,1973.153,1973.405,1978.003,space,4.584,,1978.004,54,1,1979.003,1979.003,1979.007,,,,0,34,34,34,1,15,70,,,,,,,,
,,5d7957036797da0019537ad1,65af55d5cbfd19b26dc0c3e7,2024-01-23_00h17.45.230,bars,2023.2.3,Win32,48.03073967,657b66ea316d21385b68909f,,,,,,,,,,,1979.008,1980.003,,,1980.503,1980.753,,132,-48,,,,,,,,,,,,,,,,bars/000.png,bars/mask004.png,,,,,,,,,,,,6,2,,,,,,,2,10,2,10,,,,,,,,,,,1980.004,1980.503,1980.754,1984.986,space,4.217,,1984.986,88,13,1985.985,1985.985,1985.99,,,,0,35,35,35,1,40,145,,,,,,,,
,,5d7957036797da0019537ad1,65af55d5cbfd19b26dc0c3e7,2024-01-23_00h17.45.230,bars,2023.2.3,Win32,48.03073967,657b66ea316d21385b68909f,,,,,,,,,,,1985.991,1986.986,,,1987.485,1987.736,,19,19,,,,,,,,,,,,,,,,bars/022.png,bars/mask008.png,,,,,,,,,,,,10,2,,,,,,,0,10,0,10,,,,,,,,,,,1986.986,1987.485,1987.736,1993.354,space,5.6,,1993.355,76,1,1994.352,1994.352,1994.363,,,,0,36,36,36,1,95,20,,,,,,,,
,,5d7957036797da0019537ad1,65af55d5cbfd19b26dc0c3e7,2024-01-23_00h17.45.230,bars,2023.2.3,Win32,48.03073967,657b66ea316d21385b68909f,,,,,,,,,,,1994.364,1995.368,,,1995.868,1996.119,,1,1,,,,,,,,,,,,,,,,bars/036.png,bars/mask001.png,,,,,,,,,,,,4,2,,,,,,,0,10,1,10,,,,,,,,,,,1995.368,1995.868,1996.119,1999.218,space,3.086,,1999.218,36,19,2000.218,2000.218,2000.224,,,,0,37,37,37,1,145,20,,,,,,,,
,,5d7957036797da0019537ad1,65af55d5cbfd19b26dc0c3e7,2024-01-23_00h17.45.230,bars,2023.2.3,Win32,48.03073967,657b66ea316d21385b68909f,,,,,,,,,,,2000.226,2001.218,,,2001.719,2001.967,,140,140,,,,,,,,,,,,,,,,bars/003.png,bars/mask000.png,,,,,,,,,,,,9,2,,,,,,,2,8,1,9,,,,,,,,,,,2001.218,2001.718,2001.968,2005.385,space,3.405,,2005.385,65,0,2006.384,2006.384,2006.39,,,,0,38,38,38,1,25,140,,,,,,,,
,,5d7957036797da0019537ad1,65af55d5cbfd19b26dc0c3e7,2024-01-23_00h17.45.230,bars,2023.2.3,Win32,48.03073967,657b66ea316d21385b68909f,,,,,,,,,,,2006.391,2007.384,,,2007.885,2008.134,,47,47,,,,,,,,,,,,,,,,bars/030.png,bars/mask006.png,,,,,,,,,,,,4,2,,,,,,,4,10,4,10,,,,,,,,,,,2007.384,2007.885,2008.134,2012.568,space,4.423,,2012.568,87,18,2013.567,2013.567,2013.572,,,,0,39,39,39,1,140,65,,,,,,,,
,,5d7957036797da0019537ad1,65af55d5cbfd19b26dc0c3e7,2024-01-23_00h17.45.230,bars,2023.2.3,Win32,48.03073967,657b66ea316d21385b68909f,,,,,,,,,,,2013.573,2014.567,,,2015.067,2015.317,,71,71,,,,,,,,,,,,,,,,bars/042.png,bars/mask008.png,,,,,,,,,,,,9,2,,,,,,,6,10,6,10,,,,,,,,,,,2014.567,2015.067,2015.318,2021.567,space,6.235,,2021.567,74,4,2022.566,2022.567,2022.572,,,,0,40,40,40,1,145,75,,,,,,,,
,,5d7957036797da0019537ad1,65af55d5cbfd19b26dc0c3e7,2024-01-23_00h17.45.230,bars,2023.2.3,Win32,48.03073967,657b66ea316d21385b68909f,,,,,,,,,,,2022.573,2023.567,,,2024.067,2024.316,,101,101,,,,,,,,,,,,,,,,bars/019.png,bars/mask004.png,,,,,,,,,,,,9,2,,,,,,,8,10,9,10,,,,,,,,,,,2023.567,2024.067,2024.316,2028.743,space,4.403,,2028.743,56,4,2029.733,2029.733,2029.747,,,,0,41,41,41,1,45,105,,,,,,,,
,,5d7957036797da0019537ad1,65af55d5cbfd19b26dc0c3e7,2024-01-23_00h17.45.230,bars,2023.2.3,Win32,48.03073967,657b66ea316d21385b68909f,,,,,,,,,,,2029.748,2030.749,,,2031.25,2031.5,,41,221,,,,,,,,,,,,,,,,bars/031.png,bars/mask008.png,,,,,,,,,,,,8,2,,,,,,,6,10,4,10,,,,,,,,,,,2030.749,2031.249,2031.5,2035.865,space,4.351,,2035.866,79,6,2036.866,2036.866,2036.869,,,,0,42,42,42,1,120,35,,,,,,,,
,,5d7957036797da0019537ad1,65af55d5cbfd19b26dc0c3e7,2024-01-23_00h17.45.230,bars,2023.2.3,Win32,48.03073967,657b66ea316d21385b68909f,,,,,,,,,,,2036.87,2037.866,,,2038.365,2038.616,,114,-66,,,,,,,,,,,,,,,,bars/028.png,bars/mask004.png,,,,,,,,,,,,6,2,,,,,,,8,8,6,8,,,,,,,,,,,2037.866,2038.365,2038.616,2043.649,space,5.022,,2043.649,69,6,2044.649,2044.649,2044.656,,,,0,43,43,43,1,45,120,,,,,,,,
,,5d7957036797da0019537ad1,65af55d5cbfd19b26dc0c3e7,2024-01-23_00h17.45.230,bars,2023.2.3,Win32,48.03073967,657b66ea316d21385b68909f,,,,,,,,,,,2044.657,2045.648,,,2046.149,2046.399,,151,151,,,,,,,,,,,,,,,,bars/044.png,bars/mask006.png,,,,,,,,,,,,8,2,,,,,,,6,10,5,9,,,,,,,,,,,2045.649,2046.149,2046.399,2048.115,space,1.701,,2048.115,76,4,2049.115,2049.115,2049.121,,,,0,44,44,44,1,75,155,,,,,,,,
,,5d7957036797da0019537ad1,65af55d5cbfd19b26dc0c3e7,2024-01-23_00h17.45.230,bars,2023.2.3,Win32,48.03073967,657b66ea316d21385b68909f,,,,,,,,,,,2049.121,2050.115,,,2050.614,2050.865,,177,-3,,,,,,,,,,,,,,,,bars/014.png,bars/mask007.png,,,,,,,,,,,,7,2,,,,,,,4,8,3,8,,,,,,,,,,,2050.115,2050.614,2050.865,2055.136,space,4.26,,2055.136,83,3,2056.131,2056.131,2056.135,,,,0,45,45,45,1,80,0,,,,,,,,
,,5d7957036797da0019537ad1,65af55d5cbfd19b26dc0c3e7,2024-01-23_00h17.45.230,bars,2023.2.3,Win32,48.03073967,657b66ea316d21385b68909f,,,,,,,,,,,2056.136,2057.132,,,2057.631,2057.88,,173,-7,,,,,,,,,,,,,,,,bars/048.png,bars/mask005.png,,,,,,,,,,,,7,2,,,,,,,2,6,3,7,,,,,,,,,,,2057.132,2057.631,2057.88,2062.398,space,4.506,,2062.398,57,2,2063.397,2063.397,2063.405,,,,0,46,46,46,1,50,175,,,,,,,,
,,5d7957036797da0019537ad1,65af55d5cbfd19b26dc0c3e7,2024-01-23_00h17.45.230,bars,2023.2.3,Win32,48.03073967,657b66ea316d21385b68909f,,,,,,,,,,,2063.406,2064.397,,,2064.897,2065.147,,86,-94,,,,,,,,,,,,,,,,bars/039.png,bars/mask003.png,,,,,,,,,,,,1,2,,,,,,,4,4,4,4,,,,,,,,,,,2064.397,2064.897,2065.148,2069.98,space,4.818,,2069.981,89,19,2070.981,2070.981,2070.988,,,,0,47,47,47,1,175,105,,,,,,,,
,,5d7957036797da0019537ad1,65af55d5cbfd19b26dc0c3e7,2024-01-23_00h17.45.230,bars,2023.2.3,Win32,48.03073967,657b66ea316d21385b68909f,,,,,,,,,,,2070.989,2071.98,,,2072.48,2072.731,,115,-65,,,,,,,,,,,,,,,,bars/023.png,bars/mask005.png,,,,,,,,,,,,3,2,,,,,,,2,2,3,3,,,,,,,,,,,2071.981,2072.48,2072.732,2077.514,space,4.766,,2077.514,85,0,2078.514,2078.514,2078.521,,,,0,48,48,48,1,20,115,,,,,,,,
,,5d7957036797da0019537ad1,65af55d5cbfd19b26dc0c3e7,2024-01-23_00h17.45.230,bars,2023.2.3,Win32,48.03073967,657b66ea316d21385b68909f,,,,,,,,,,,2078.521,2079.514,,,2080.015,2080.264,,17,197,,,,,,,,,,,,,,,,bars/012.png,bars/mask003.png,,,,,,,,,,,,0,2,,,,,,,4,0,3,0,,,,,,,,,,,2079.514,2080.015,2080.264,2084.33,space,4.052,,2084.33,73,2,2085.33,2085.33,2085.337,,,,0,49,49,49,1,90,15,,,,,,,,
,,5d7957036797da0019537ad1,65af55d5cbfd19b26dc0c3e7,2024-01-23_00h17.45.230,bars,2023.2.3,Win32,48.03073967,657b66ea316d21385b68909f,,,,,,,,,,,,,,,,,,,,,,,,,,,,,,,,,,,,,,,,,,,,,,,,,,,,,,,,,,,,,,,,,,,,,,,,,,,,,,,,,,,,,,,,,,,,,2085.337,2145.331,0,2,2,0,1,sequence_tables/blk007.csv
,,5d7957036797da0019537ad1,65af55d5cbfd19b26dc0c3e7,2024-01-23_00h17.45.230,bars,2023.2.3,Win32,48.03073967,657b66ea316d21385b68909f,,,,,,,,,,,2151.983,2152.975,,,2153.476,2153.726,,14,14,,,,,,,,,,,,,,,,bars/012.png,bars/mask009.png,,,,,,,,,,,,3,2,,,,,,,3,3,2,3,,,,,,2145.335,2151.966,space,6.621,,2152.976,2153.476,2153.726,2157.859,space,4.12,,2157.859,76,1,2158.859,2158.859,2158.865,,,,0,0,0,0,1,90,15,,,,,,,,
,,5d7957036797da0019537ad1,65af55d5cbfd19b26dc0c3e7,2024-01-23_00h17.45.230,bars,2023.2.3,Win32,48.03073967,657b66ea316d21385b68909f,,,,,,,,,,,2158.867,2159.859,,,2160.359,2160.609,,110,110,,,,,,,,,,,,,,,,bars/018.png,bars/mask005.png,,,,,,,,,,,,1,2,,,,,,,1,1,1,2,,,,,,,,,,,2159.859,2160.359,2160.609,2162.859,space,2.235,,2162.86,40,20,2163.859,2163.859,2163.866,,,,0,1,1,1,1,150,90,,,,,,,,
,,5d7957036797da0019537ad1,65af55d5cbfd19b26dc0c3e7,2024-01-23_00h17.45.230,bars,2023.2.3,Win32,48.03073967,657b66ea316d21385b68909f,,,,,,,,,,,2163.867,2164.859,,,2165.359,2165.608,,152,152,,,,,,,,,,,,,,,,bars/048.png,bars/mask004.png,,,,,,,,,,,,0,2,,,,,,,3,0,4,0,,,,,,,,,,,2164.859,2165.359,2165.608,2167.974,space,2.351,,2167.974,78,23,2168.975,2168.975,2168.98,,,,0,2,2,2,1,50,175,,,,,,,,
,,5d7957036797da0019537ad1,65af55d5cbfd19b26dc0c3e7,2024-01-23_00h17.45.230,bars,2023.2.3,Win32,48.03073967,657b66ea316d21385b68909f,,,,,,,,,,,2168.981,2169.974,,,2170.475,2170.724,,22,202,,,,,,,,,,,,,,,,bars/014.png,bars/mask009.png,,,,,,,,,,,,1,2,,,,,,,1,2,0,4,,,,,,,,,,,2169.974,2170.475,2170.724,2174.959,space,4.218,,2174.961,58,22,2175.957,2175.957,2175.959,,,,0,3,3,3,1,80,0,,,,,,,,
,,5d7957036797da0019537ad1,65af55d5cbfd19b26dc0c3e7,2024-01-23_00h17.45.230,bars,2023.2.3,Win32,48.03073967,657b66ea316d21385b68909f,,,,,,,,,,,2175.96,2176.958,,,2177.458,2177.707,,168,-12,,,,,,,,,,,,,,,,bars/015.png,bars/mask002.png,,,,,,,,,,,,3,2,,,,,,,3,4,4,4,,,,,,,,,,,2176.958,2177.458,2177.708,2181.157,space,3.436,,2181.157,58,8,2182.157,2182.158,2182.162,,,,0,4,4,4,1,110,160,,,,,,,,
,,5d7957036797da0019537ad1,65af55d5cbfd19b26dc0c3e7,2024-01-23_00h17.45.230,bars,2023.2.3,Win32,48.03073967,657b66ea316d21385b68909f,,,,,,,,,,,2182.163,2183.157,,,2183.66,2183.908,,47,47,,,,,,,,,,,,,,,,bars/025.png,bars/mask006.png,,,,,,,,,,,,5,2,,,,,,,1,6,2,6,,,,,,,,,,,2183.157,2183.659,2183.908,2187.175,space,3.254,,2187.175,58,7,2188.173,2188.173,2188.18,,,,0,5,5,5,1,105,40,,,,,,,,
,,5d7957036797da0019537ad1,65af55d5cbfd19b26dc0c3e7,2024-01-23_00h17.45.230,bars,2023.2.3,Win32,48.03073967,657b66ea316d21385b68909f,,,,,,,,,,,2188.181,2189.174,,,2189.674,2189.925,,91,91,,,,,,,,,,,,,,,,bars/039.png,bars/mask007.png,,,,,,,,,,,,3,2,,,,,,,0,8,0,6,,,,,,,,,,,2189.175,2189.674,2189.925,2193.656,space,3.72,,2193.657,84,14,2194.657,2194.657,2194.664,,,,0,6,6,6,1,175,105,,,,,,,,
,,5d7957036797da0019537ad1,65af55d5cbfd19b26dc0c3e7,2024-01-23_00h17.45.230,bars,2023.2.3,Win32,48.03073967,657b66ea316d21385b68909f,,,,,,,,,,,2194.666,2195.656,,,2196.156,2196.407,,160,-20,,,,,,,,,,,,,,,,bars/000.png,bars/mask001.png,,,,,,,,,,,,3,2,,,,,,,0,6,0,6,,,,,,,,,,,2195.656,2196.156,2196.407,2201.056,space,4.634,,2201.056,60,15,2202.057,2202.057,2202.063,,,,0,7,7,7,1,40,145,,,,,,,,
,,5d7957036797da0019537ad1,65af55d5cbfd19b26dc0c3e7,2024-01-23_00h17.45.230,bars,2023.2.3,Win32,48.03073967,657b66ea316d21385b68909f,,,,,,,,,,,2202.065,2203.056,,,2203.556,2203.806,,3,183,,,,,,,,,,,,,,,,bars/040.png,bars/mask003.png,,,,,,,,,,,,4,2,,,,,,,2,4,1,4,,,,,,,,,,,2203.056,2203.556,2203.806,2207.156,space,3.336,,2207.156,43,2,2208.156,2208.156,2208.161,,,,0,8,8,8,1,140,5,,,,,,,,
,,5d7957036797da0019537ad1,65af55d5cbfd19b26dc0c3e7,2024-01-23_00h17.45.230,bars,2023.2.3,Win32,48.03073967,657b66ea316d21385b68909f,,,,,,,,,,,2208.162,2209.155,,,2209.656,2209.905,,53,233,,,,,,,,,,,,,,,,bars/030.png,bars/mask005.png,,,,,,,,,,,,4,2,,,,,,,4,6,3,6,,,,,,,,,,,2209.156,2209.656,2209.906,2213.906,space,3.988,,2213.907,87,12,2214.905,2214.905,2214.916,,,,0,9,9,9,1,140,65,,,,,,,,
,,5d7957036797da0019537ad1,65af55d5cbfd19b26dc0c3e7,2024-01-23_00h17.45.230,bars,2023.2.3,Win32,48.03073967,657b66ea316d21385b68909f,,,,,,,,,,,2214.918,2215.923,,,2216.424,2216.672,,12,192,,,,,,,,,,,,,,,,bars/022.png,bars/mask000.png,,,,,,,,,,,,7,2,,,,,,,6,8,7,9,,,,,,,,,,,2215.924,2216.424,2216.674,2219.289,space,2.601,,2219.289,83,8,2220.288,2220.289,2220.294,,,,0,10,10,10,1,95,20,,,,,,,,
,,5d7957036797da0019537ad1,65af55d5cbfd19b26dc0c3e7,2024-01-23_00h17.45.230,bars,2023.2.3,Win32,48.03073967,657b66ea316d21385b68909f,,,,,,,,,,,2220.294,2221.288,,,2221.777,2222.022,,80,260,,,,,,,,,,,,,,,,bars/011.png,bars/mask005.png,,,,,,,,,,,,4,2,,,,,,,4,6,4,5,,,,,,,,,,,2221.289,2221.777,2222.023,2227.388,space,5.351,,2227.388,80,5,2228.387,2228.388,2228.391,,,,0,11,11,11,1,160,85,,,,,,,,
,,5d7957036797da0019537ad1,65af55d5cbfd19b26dc0c3e7,2024-01-23_00h17.45.230,bars,2023.2.3,Win32,48.03073967,657b66ea316d21385b68909f,,,,,,,,,,,2228.392,2229.388,,,2229.888,2230.138,,39,39,,,,,,,,,,,,,,,,bars/029.png,bars/mask001.png,,,,,,,,,,,,7,2,,,,,,,2,8,2,9,,,,,,,,,,,2229.388,2229.888,2230.138,2233.838,space,3.682,,2233.838,51,6,2234.838,2234.838,2234.843,,,,0,12,12,12,1,90,45,,,,,,,,
,,5d7957036797da0019537ad1,65af55d5cbfd19b26dc0c3e7,2024-01-23_00h17.45.230,bars,2023.2.3,Win32,48.03073967,657b66ea316d21385b68909f,,,,,,,,,,,2234.844,2235.837,,,2236.338,2236.588,,45,45,,,,,,,,,,,,,,,,bars/007.png,bars/mask000.png,,,,,,,,,,,,6,2,,,,,,,0,10,1,9,,,,,,,,,,,2235.837,2236.338,2236.588,2240.821,space,4.214,,2240.821,50,10,2241.82,2241.82,2241.826,,,,0,13,13,13,1,175,55,,,,,,,,
,,5d7957036797da0019537ad1,65af55d5cbfd19b26dc0c3e7,2024-01-23_00h17.45.230,bars,2023.2.3,Win32,48.03073967,657b66ea316d21385b68909f,,,,,,,,,,,2241.828,2242.82,,,2243.321,2243.57,,146,-34,,,,,,,,,,,,,,,,bars/005.png,bars/mask001.png,,,,,,,,,,,,8,2,,,,,,,2,10,1,10,,,,,,,,,,,2242.82,2243.321,2243.57,2248.604,space,5.019,,2248.605,44,6,2249.604,2249.604,2249.615,,,,0,14,14,14,1,10,140,,,,,,,,
,,5d7957036797da0019537ad1,65af55d5cbfd19b26dc0c3e7,2024-01-23_00h17.45.230,bars,2023.2.3,Win32,48.03073967,657b66ea316d21385b68909f,,,,,,,,,,,2249.616,2250.604,,,2251.105,2251.353,,33,213,,,,,,,,,,,,,,,,bars/025.png,bars/mask009.png,,,,,,,,,,,,6,2,,,,,,,0,8,0,8,,,,,,,,,,,2250.604,2251.105,2251.354,2256.97,space,5.602,,2256.97,72,7,2257.97,2257.97,2257.976,,,,0,15,15,15,1,105,40,,,,,,,,
,,5d7957036797da0019537ad1,65af55d5cbfd19b26dc0c3e7,2024-01-23_00h17.45.230,bars,2023.2.3,Win32,48.03073967,657b66ea316d21385b68909f,,,,,,,,,,,2257.976,2258.969,,,2259.472,2259.72,,164,164,,,,,,,,,,,,,,,,bars/024.png,bars/mask005.png,,,,,,,,,,,,6,2,,,,,,,0,10,1,8,,,,,,,,,,,2258.969,2259.472,2259.72,2267.76,space,8.028,,2267.76,44,6,2268.753,2268.753,2268.76,,,,0,16,16,16,1,120,170,,,,,,,,
,,5d7957036797da0019537ad1,65af55d5cbfd19b26dc0c3e7,2024-01-23_00h17.45.230,bars,2023.2.3,Win32,48.03073967,657b66ea316d21385b68909f,,,,,,,,,,,2268.76,2269.752,,,2270.253,2270.503,,29,209,,,,,,,,,,,,,,,,bars/040.png,bars/mask000.png,,,,,,,,,,,,2,2,,,,,,,0,10,0,9,,,,,,,,,,,2269.752,2270.253,2270.503,2272.886,space,2.367,,2272.886,69,24,2273.885,2273.885,2273.891,,,,0,17,17,17,1,140,5,,,,,,,,
,,5d7957036797da0019537ad1,65af55d5cbfd19b26dc0c3e7,2024-01-23_00h17.45.230,bars,2023.2.3,Win32,48.03073967,657b66ea316d21385b68909f,,,,,,,,,,,2273.892,2274.886,,,2275.384,2275.635,,93,93,,,,,,,,,,,,,,,,bars/018.png,bars/mask003.png,,,,,,,,,,,,9,2,,,,,,,2,10,2,10,,,,,,,,,,,2274.886,2275.384,2275.635,2281.169,space,5.519,,2281.17,57,3,2282.168,2282.168,2282.179,,,,0,18,18,18,1,150,90,,,,,,,,
,,5d7957036797da0019537ad1,65af55d5cbfd19b26dc0c3e7,2024-01-23_00h17.45.230,bars,2023.2.3,Win32,48.03073967,657b66ea316d21385b68909f,,,,,,,,,,,2282.18,2283.184,,,2283.685,2283.934,,86,86,,,,,,,,,,,,,,,,bars/027.png,bars/mask001.png,,,,,,,,,,,,1,1,,,,,,,4,8,5,8,,,,,,,,,,,2283.185,2283.684,2283.934,2287.684,space,3.738,,2287.685,24,36,2288.684,2288.684,2288.695,,,,0,19,19,19,1,110,50,,,,,,,,
,,5d7957036797da0019537ad1,65af55d5cbfd19b26dc0c3e7,2024-01-23_00h17.45.230,bars,2023.2.3,Win32,48.03073967,657b66ea316d21385b68909f,,,,,,,,,,,2288.696,2289.684,,,2290.184,2290.434,,51,51,,,,,,,,,,,,,,,,bars/042.png,bars/mask007.png,,,,,,,,,,,,2,2,,,,,,,6,10,7,10,,,,,,,,,,,2289.684,2290.184,2290.434,2292.818,space,2.371,,2292.818,86,24,2293.817,2293.817,2293.828,,,,0,20,20,20,1,145,75,,,,,,,,
,,5d7957036797da0019537ad1,65af55d5cbfd19b26dc0c3e7,2024-01-23_00h17.45.230,bars,2023.2.3,Win32,48.03073967,657b66ea316d21385b68909f,,,,,,,,,,,2293.829,2294.817,,,2295.318,2295.568,,92,92,,,,,,,,,,,,,,,,bars/041.png,bars/mask000.png,,,,,,,,,,,,5,2,,,,,,,8,8,7,7,,,,,,,,,,,2294.817,2295.318,2295.568,2299.084,space,3.501,,2299.084,72,7,2300.088,2300.088,2300.09,,,,0,21,21,21,1,20,85,,,,,,,,
,,5d7957036797da0019537ad1,65af55d5cbfd19b26dc0c3e7,2024-01-23_00h17.45.230,bars,2023.2.3,Win32,48.03073967,657b66ea316d21385b68909f,,,,,,,,,,,2300.091,2301.083,,,2301.584,2301.833,,4,4,,,,,,,,,,,,,,,,bars/012.png,bars/mask003.png,,,,,,,,,,,,6,2,,,,,,,6,10,6,10,,,,,,,,,,,2301.084,2301.584,2301.833,2303.866,space,2.024,,2303.866,86,11,2304.867,2304.867,2304.869,,,,0,22,22,22,1,90,15,,,,,,,,
,,5d7957036797da0019537ad1,65af55d5cbfd19b26dc0c3e7,2024-01-23_00h17.45.230,bars,2023.2.3,Win32,48.03073967,657b66ea316d21385b68909f,,,,,,,,,,,2304.871,2305.867,,,2306.367,2306.617,,99,99,,,,,,,,,,,,,,,,bars/019.png,bars/mask006.png,,,,,,,,,,,,6,2,,,,,,,4,8,3,7,,,,,,,,,,,2305.867,2306.367,2306.617,2309.683,space,3.049,,2309.684,54,6,2310.685,2310.687,2310.697,,,,0,23,23,23,1,45,105,,,,,,,,
,,5d7957036797da0019537ad1,65af55d5cbfd19b26dc0c3e7,2024-01-23_00h17.45.230,bars,2023.2.3,Win32,48.03073967,657b66ea316d21385b68909f,,,,,,,,,,,2310.698,2311.7,,,2312.2,2312.449,,23,23,,,,,,,,,,,,,,,,bars/035.png,bars/mask001.png,,,,,,,,,,,,0,1,,,,,,,6,10,6,10,,,,,,,,,,,2311.7,2312.2,2312.45,2315.284,space,2.82,,2315.284,28,37,2316.284,2316.284,2316.294,,,,0,24,24,24,1,175,60,,,,,,,,
,,5d7957036797da0019537ad1,65af55d5cbfd19b26dc0c3e7,2024-01-23_00h17.45.230,bars,2023.2.3,Win32,48.03073967,657b66ea316d21385b68909f,,,,,,,,,,,2316.295,2317.3,,,2317.799,2318.05,,149,149,,,,,,,,,,,,,,,,bars/044.png,bars/mask009.png,,,,,,,,,,,,7,2,,,,,,,8,10,8,9,,,,,,,,,,,2317.3,2317.799,2318.05,2321.305,space,3.242,,2321.305,74,6,2322.299,2322.299,2322.311,,,,0,25,25,25,1,75,155,,,,,,,,
,,5d7957036797da0019537ad1,65af55d5cbfd19b26dc0c3e7,2024-01-23_00h17.45.230,bars,2023.2.3,Win32,48.03073967,657b66ea316d21385b68909f,,,,,,,,,,,2322.312,2323.315,,,2323.815,2324.066,,1,1,,,,,,,,,,,,,,,,bars/024.png,bars/mask003.png,,,,,,,,,,,,5,2,,,,,,,10,8,10,8,,,,,,,,,,,2323.315,2323.815,2324.066,2328.083,space,4,,2328.084,61,11,2329.083,2329.083,2329.089,,,,0,26,26,26,1,120,170,,,,,,,,
,,5d7957036797da0019537ad1,65af55d5cbfd19b26dc0c3e7,2024-01-23_00h17.45.230,bars,2023.2.3,Win32,48.03073967,657b66ea316d21385b68909f,,,,,,,,,,,2329.09,2330.082,,,2330.583,2330.832,,32,212,,,,,,,,,,,,,,,,bars/031.png,bars/mask004.png,,,,,,,,,,,,9,2,,,,,,,10,10,10,10,,,,,,,,,,,2330.082,2330.582,2330.832,2334.332,space,3.484,,2334.332,88,3,2335.332,2335.333,2335.339,,,,0,27,27,27,1,120,35,,,,,,,,
,,5d7957036797da0019537ad1,65af55d5cbfd19b26dc0c3e7,2024-01-23_00h17.45.230,bars,2023.2.3,Win32,48.03073967,657b66ea316d21385b68909f,,,,,,,,,,,2335.34,2336.334,,,2336.832,2337.081,,75,255,,,,,,,,,,,,,,,,bars/042.png,bars/mask007.png,,,,,,,,,,,,10,2,,,,,,,8,10,8,10,,,,,,,,,,,2336.334,2336.832,2337.081,2340.697,space,3.606,,2340.698,70,0,2341.698,2341.698,2341.704,,,,0,28,28,28,1,145,75,,,,,,,,
,,5d7957036797da0019537ad1,65af55d5cbfd19b26dc0c3e7,2024-01-23_00h17.45.230,bars,2023.2.3,Win32,48.03073967,657b66ea316d21385b68909f,,,,,,,,,,,2341.705,2342.698,,,2343.197,2343.447,,88,88,,,,,,,,,,,,,,,,bars/001.png,bars/mask005.png,,,,,,,,,,,,8,2,,,,,,,10,8,9,9,,,,,,,,,,,2342.699,2343.197,2343.448,2345.099,space,1.634,,2345.099,42,3,2346.098,2346.098,2346.111,,,,0,29,29,29,1,130,85,,,,,,,,
,,5d7957036797da0019537ad1,65af55d5cbfd19b26dc0c3e7,2024-01-23_00h17.45.230,bars,2023.2.3,Win32,48.03073967,657b66ea316d21385b68909f,,,,,,,,,,,2346.112,2347.114,,,2347.615,2347.865,,81,81,,,,,,,,,,,,,,,,bars/023.png,bars/mask005.png,,,,,,,,,,,,0,2,,,,,,,8,10,7,10,,,,,,,,,,,2347.114,2347.615,2347.865,2349.865,space,1.988,,2349.866,61,34,2350.864,2350.864,2350.871,,,,0,30,30,30,1,20,115,,,,,,,,
,,5d7957036797da0019537ad1,65af55d5cbfd19b26dc0c3e7,2024-01-23_00h17.45.230,bars,2023.2.3,Win32,48.03073967,657b66ea316d21385b68909f,,,,,,,,,,,2350.872,2351.863,,,2352.364,2352.614,,24,24,,,,,,,,,,,,,,,,bars/022.png,bars/mask000.png,,,,,,,,,,,,9,2,,,,,,,6,10,5,10,,,,,,,,,,,2351.864,2352.364,2352.614,2355.098,space,2.467,,2355.098,71,4,2356.097,2356.097,2356.104,,,,0,31,31,31,1,95,20,,,,,,,,
,,5d7957036797da0019537ad1,65af55d5cbfd19b26dc0c3e7,2024-01-23_00h17.45.230,bars,2023.2.3,Win32,48.03073967,657b66ea316d21385b68909f,,,,,,,,,,,2356.105,2357.102,,,2357.597,2357.846,,126,-54,,,,,,,,,,,,,,,,bars/049.png,bars/mask003.png,,,,,,,,,,,,6,2,,,,,,,4,10,1,9,,,,,,,,,,,2357.102,2357.597,2357.846,2362.713,space,4.85,,2362.713,34,11,2363.714,2363.714,2363.719,,,,0,32,32,32,1,160,115,,,,,,,,
,,5d7957036797da0019537ad1,65af55d5cbfd19b26dc0c3e7,2024-01-23_00h17.45.230,bars,2023.2.3,Win32,48.03073967,657b66ea316d21385b68909f,,,,,,,,,,,2363.72,2364.713,,,2365.214,2365.462,,151,151,,,,,,,,,,,,,,,,bars/012.png,bars/mask008.png,,,,,,,,,,,,0,2,,,,,,,2,8,2,8,,,,,,,,,,,2364.714,2365.214,2365.462,2370.914,space,5.439,,2370.914,61,44,2371.913,2371.913,2371.919,,,,0,33,33,33,1,90,15,,,,,,,,
,,5d7957036797da0019537ad1,65af55d5cbfd19b26dc0c3e7,2024-01-23_00h17.45.230,bars,2023.2.3,Win32,48.03073967,657b66ea316d21385b68909f,,,,,,,,,,,2371.92,2372.914,,,2373.413,2373.663,,70,70,,,,,,,,,,,,,,,,bars/026.png,bars/mask009.png,,,,,,,,,,,,4,2,,,,,,,4,6,5,8,,,,,,,,,,,2372.914,2373.413,2373.663,2377.881,space,4.205,,2377.884,35,15,2378.879,2378.88,2378.89,,,,0,34,34,34,1,35,85,,,,,,,,
,,5d7957036797da0019537ad1,65af55d5cbfd19b26dc0c3e7,2024-01-23_00h17.45.230,bars,2023.2.3,Win32,48.03073967,657b66ea316d21385b68909f,,,,,,,,,,,2378.891,2379.879,,,2380.379,2380.629,,138,138,,,,,,,,,,,,,,,,bars/043.png,bars/mask007.png,,,,,,,,,,,,7,2,,,,,,,6,8,5,9,,,,,,,,,,,2379.879,2380.379,2380.629,2382.213,space,1.566,,2382.213,72,8,2383.212,2383.213,2383.22,,,,0,35,35,35,1,30,130,,,,,,,,
,,5d7957036797da0019537ad1,65af55d5cbfd19b26dc0c3e7,2024-01-23_00h17.45.230,bars,2023.2.3,Win32,48.03073967,657b66ea316d21385b68909f,,,,,,,,,,,2383.22,2384.213,,,2384.713,2384.962,,76,76,,,,,,,,,,,,,,,,bars/042.png,bars/mask006.png,,,,,,,,,,,,9,2,,,,,,,8,10,9,9,,,,,,,,,,,2384.213,2384.712,2384.962,2389.714,space,4.738,,2389.714,69,1,2390.712,2390.712,2390.718,,,,0,36,36,36,1,145,75,,,,,,,,
,,5d7957036797da0019537ad1,65af55d5cbfd19b26dc0c3e7,2024-01-23_00h17.45.230,bars,2023.2.3,Win32,48.03073967,657b66ea316d21385b68909f,,,,,,,,,,,2390.719,2391.712,,,2392.213,2392.462,,162,-18,,,,,,,,,,,,,,,,bars/003.png,bars/mask007.png,,,,,,,,,,,,2,2,,,,,,,10,8,9,9,,,,,,,,,,,2391.713,2392.212,2392.463,2397.017,space,4.542,,2397.018,43,22,2398.012,2398.013,2398.018,,,,0,37,37,37,1,25,140,,,,,,,,
,,5d7957036797da0019537ad1,65af55d5cbfd19b26dc0c3e7,2024-01-23_00h17.45.230,bars,2023.2.3,Win32,48.03073967,657b66ea316d21385b68909f,,,,,,,,,,,2398.019,2399.011,,,2399.511,2399.761,,78,258,,,,,,,,,,,,,,,,bars/026.png,bars/mask005.png,,,,,,,,,,,,8,2,,,,,,,10,10,10,10,,,,,,,,,,,2399.011,2399.511,2399.761,2404.544,space,4.768,,2404.544,43,7,2405.544,2405.544,2405.549,,,,0,38,38,38,1,35,85,,,,,,,,
,,5d7957036797da0019537ad1,65af55d5cbfd19b26dc0c3e7,2024-01-23_00h17.45.230,bars,2023.2.3,Win32,48.03073967,657b66ea316d21385b68909f,,,,,,,,,,,2405.55,2406.544,,,2407.048,2407.294,,61,61,,,,,,,,,,,,,,,,bars/047.png,bars/mask009.png,,,,,,,,,,,,7,2,,,,,,,10,10,10,10,,,,,,,,,,,2406.544,2407.047,2407.294,2409.778,space,2.47,,2409.779,46,9,2410.777,2410.777,2410.787,,,,0,39,39,39,1,15,70,,,,,,,,
,,5d7957036797da0019537ad1,65af55d5cbfd19b26dc0c3e7,2024-01-23_00h17.45.230,bars,2023.2.3,Win32,48.03073967,657b66ea316d21385b68909f,,,,,,,,,,,2410.788,2411.777,,,2412.278,2412.527,,172,-8,,,,,,,,,,,,,,,,bars/048.png,bars/mask001.png,,,,,,,,,,,,6,2,,,,,,,8,8,7,7,,,,,,,,,,,2411.777,2412.277,2412.527,2415.811,space,3.268,,2415.813,58,3,2416.811,2416.811,2416.819,,,,0,40,40,40,1,50,175,,,,,,,,
,,5d7957036797da0019537ad1,65af55d5cbfd19b26dc0c3e7,2024-01-23_00h17.45.230,bars,2023.2.3,Win32,48.03073967,657b66ea316d21385b68909f,,,,,,,,,,,2416.82,2417.81,,,2418.311,2418.562,,154,-26,,,,,,,,,,,,,,,,bars/000.png,bars/mask007.png,,,,,,,,,,,,5,2,,,,,,,10,6,10,7,,,,,,,,,,,2417.81,2418.31,2418.562,2425.56,space,6.982,,2425.56,66,9,2426.56,2426.56,2426.568,,,,0,41,41,41,1,40,145,,,,,,,,
,,5d7957036797da0019537ad1,65af55d5cbfd19b26dc0c3e7,2024-01-23_00h17.45.230,bars,2023.2.3,Win32,48.03073967,657b66ea316d21385b68909f,,,,,,,,,,,2426.569,2427.559,,,2428.06,2428.31,,114,114,,,,,,,,,,,,,,,,bars/049.png,bars/mask006.png,,,,,,,,,,,,4,2,,,,,,,10,4,10,4,,,,,,,,,,,2427.56,2428.06,2428.31,2430.259,space,1.935,,2430.259,46,1,2431.259,2431.26,2431.268,,,,0,42,42,42,1,160,115,,,,,,,,
,,5d7957036797da0019537ad1,65af55d5cbfd19b26dc0c3e7,2024-01-23_00h17.45.230,bars,2023.2.3,Win32,48.03073967,657b66ea316d21385b68909f,,,,,,,,,,,2431.268,2432.26,,,2432.759,2433.009,,31,31,,,,,,,,,,,,,,,,bars/010.png,bars/mask008.png,,,,,,,,,,,,1,2,,,,,,,8,6,7,7,,,,,,,,,,,2432.26,2432.759,2433.009,2437.476,space,4.451,,2437.476,46,24,2438.475,2438.475,2438.478,,,,0,43,43,43,1,165,55,,,,,,,,
,,5d7957036797da0019537ad1,65af55d5cbfd19b26dc0c3e7,2024-01-23_00h17.45.230,bars,2023.2.3,Win32,48.03073967,657b66ea316d21385b68909f,,,,,,,,,,,2438.479,2439.475,,,2439.977,2440.226,,130,130,,,,,,,,,,,,,,,,bars/005.png,bars/mask004.png,,,,,,,,,,,,6,2,,,,,,,10,8,10,9,,,,,,,,,,,2439.475,2439.977,2440.227,2442.925,space,2.679,,2442.925,60,10,2443.925,2443.925,2443.934,,,,0,44,44,44,1,10,140,,,,,,,,
,,5d7957036797da0019537ad1,65af55d5cbfd19b26dc0c3e7,2024-01-23_00h17.45.230,bars,2023.2.3,Win32,48.03073967,657b66ea316d21385b68909f,,,,,,,,,,,2443.937,2444.925,,,2445.425,2445.676,,32,32,,,,,,,,,,,,,,,,bars/013.png,bars/mask001.png,,,,,,,,,,,,3,2,,,,,,,10,10,10,10,,,,,,,,,,,2444.926,2445.425,2445.676,2451.193,space,5.501,,2451.193,43,22,2452.191,2452.191,2452.197,,,,0,45,45,45,1,75,10,,,,,,,,
,,5d7957036797da0019537ad1,65af55d5cbfd19b26dc0c3e7,2024-01-23_00h17.45.230,bars,2023.2.3,Win32,48.03073967,657b66ea316d21385b68909f,,,,,,,,,,,2452.198,2453.193,,,2453.692,2453.942,,143,-37,,,,,,,,,,,,,,,,bars/004.png,bars/mask009.png,,,,,,,,,,,,3,2,,,,,,,8,8,7,8,,,,,,,,,,,2453.193,2453.692,2453.942,2458.408,space,4.453,,2458.408,62,18,2459.408,2459.408,2459.413,,,,0,46,46,46,1,25,125,,,,,,,,
,,5d7957036797da0019537ad1,65af55d5cbfd19b26dc0c3e7,2024-01-23_00h17.45.230,bars,2023.2.3,Win32,48.03073967,657b66ea316d21385b68909f,,,,,,,,,,,2459.414,2460.407,,,2460.908,2461.161,,26,26,,,,,,,,,,,,,,,,bars/022.png,bars/mask007.png,,,,,,,,,,,,8,2,,,,,,,10,10,10,10,,,,,,,,,,,2460.407,2460.908,2461.161,2464.841,space,3.667,,2464.841,69,6,2465.84,2465.841,2465.847,,,,0,47,47,47,1,95,20,,,,,,,,
,,5d7957036797da0019537ad1,65af55d5cbfd19b26dc0c3e7,2024-01-23_00h17.45.230,bars,2023.2.3,Win32,48.03073967,657b66ea316d21385b68909f,,,,,,,,,,,2465.848,2466.84,,,2467.342,2467.591,,2,2,,,,,,,,,,,,,,,,bars/008.png,bars/mask009.png,,,,,,,,,,,,7,2,,,,,,,8,8,8,8,,,,,,,,,,,2466.841,2467.341,2467.591,2470.04,space,2.434,,2470.04,72,2,2471.04,2471.042,2471.047,,,,0,48,48,48,1,110,0,,,,,,,,
,,5d7957036797da0019537ad1,65af55d5cbfd19b26dc0c3e7,2024-01-23_00h17.45.230,bars,2023.2.3,Win32,48.03073967,657b66ea316d21385b68909f,,,,,,,,,,,2471.048,2472.04,,,2472.54,2472.79,,177,-3,,,,,,,,,,,,,,,,bars/008.png,bars/mask004.png,,,,,,,,,,,,5,2,,,,,,,10,6,10,6,,,,,,,,,,,2472.04,2472.54,2472.79,2475.357,space,2.551,,2475.358,67,3,2476.357,2476.357,2476.367,,,,0,49,49,49,1,110,0,,,,,,,,
,,5d7957036797da0019537ad1,65af55d5cbfd19b26dc0c3e7,2024-01-23_00h17.45.230,bars,2023.2.3,Win32,48.03073967,657b66ea316d21385b68909f,,,,,,,,,,,,,,,,,,,,,,,,,,,,,,,,,,,,,,,,,,,,,,,,,,,,,,,,,,,,,,,,,,,,,,,,,,,,,,,,,,,,,,,,,,,,,2476.368,2536.373,0,3,3,4,1,sequence_tables/blk029.csv
,,5d7957036797da0019537ad1,65af55d5cbfd19b26dc0c3e7,2024-01-23_00h17.45.230,bars,2023.2.3,Win32,48.03073967,657b66ea316d21385b68909f,,,,,,,,,,,2579.296,2580.3,,,2580.802,2581.05,,75,75,,,,,,,,,,,,,,,,bars/047.png,bars/mask008.png,,,,,,,,,,,,6,2,,,,,,,1,6,1,7,,,,,,2536.38,2579.285,space,42.888,,2580.301,2580.801,2581.05,2583.402,space,2.336,,2583.402,60,5,2584.403,2584.403,2584.406,,,,0,0,0,0,1,15,70,,,,,,,,
,,5d7957036797da0019537ad1,65af55d5cbfd19b26dc0c3e7,2024-01-23_00h17.45.230,bars,2023.2.3,Win32,48.03073967,657b66ea316d21385b68909f,,,,,,,,,,,2584.407,2585.401,,,2585.901,2586.15,,107,-73,,,,,,,,,,,,,,,,bars/028.png,bars/mask009.png,,,,,,,,,,,,3,2,,,,,,,3,4,2,5,,,,,,,,,,,2585.401,2585.901,2586.151,2590.234,space,4.067,,2590.234,62,13,2591.233,2591.233,2591.24,,,,0,1,1,1,1,45,120,,,,,,,,
,,5d7957036797da0019537ad1,65af55d5cbfd19b26dc0c3e7,2024-01-23_00h17.45.230,bars,2023.2.3,Win32,48.03073967,657b66ea316d21385b68909f,,,,,,,,,,,2591.241,2592.233,,,2592.733,2592.982,,15,15,,,,,,,,,,,,,,,,bars/031.png,bars/mask001.png,,,,,,,,,,,,2,2,,,,,,,1,6,2,5,,,,,,,,,,,2592.233,2592.732,2592.982,2594.05,space,1.052,,2594.05,75,20,2595.049,2595.052,2595.057,,,,0,2,2,2,1,120,35,,,,,,,,
,,5d7957036797da0019537ad1,65af55d5cbfd19b26dc0c3e7,2024-01-23_00h17.45.230,bars,2023.2.3,Win32,48.03073967,657b66ea316d21385b68909f,,,,,,,,,,,2595.057,2596.05,,,2596.55,2596.799,,27,27,,,,,,,,,,,,,,,,bars/036.png,bars/mask004.png,,,,,,,,,,,,4,2,,,,,,,3,4,3,5,,,,,,,,,,,2596.05,2596.55,2596.8,2598.466,space,1.652,,2598.466,62,7,2599.466,2599.466,2599.471,,,,0,3,3,3,1,145,20,,,,,,,,
,,5d7957036797da0019537ad1,65af55d5cbfd19b26dc0c3e7,2024-01-23_00h17.45.230,bars,2023.2.3,Win32,48.03073967,657b66ea316d21385b68909f,,,,,,,,,,,2599.472,2600.466,,,2600.966,2601.216,,68,248,,,,,,,,,,,,,,,,bars/029.png,bars/mask003.png,,,,,,,,,,,,0,1,,,,,,,1,6,1,6,,,,,,,,,,,2600.466,2600.966,2601.216,2606.115,space,4.886,,2606.115,22,23,2607.116,2607.116,2607.126,,,,0,4,4,4,1,90,45,,,,,,,,
,,5d7957036797da0019537ad1,65af55d5cbfd19b26dc0c3e7,2024-01-23_00h17.45.230,bars,2023.2.3,Win32,48.03073967,657b66ea316d21385b68909f,,,,,,,,,,,2607.126,2608.117,,,2608.616,2608.866,,81,81,,,,,,,,,,,,,,,,bars/021.png,bars/mask003.png,,,,,,,,,,,,3,2,,,,,,,3,4,4,4,,,,,,,,,,,2608.118,2608.616,2608.866,2612.316,space,3.428,,2612.316,74,11,2613.315,2613.315,2613.327,,,,0,5,5,5,1,155,70,,,,,,,,
,,5d7957036797da0019537ad1,65af55d5cbfd19b26dc0c3e7,2024-01-23_00h17.45.230,bars,2023.2.3,Win32,48.03073967,657b66ea316d21385b68909f,,,,,,,,,,,2613.328,2614.332,,,2614.833,2615.082,,2,2,,,,,,,,,,,,,,,,bars/032.png,bars/mask005.png,,,,,,,,,,,,2,2,,,,,,,5,6,4,6,,,,,,,,,,,2614.332,2614.833,2615.083,2618.734,space,3.638,,2618.735,57,18,2619.732,2619.732,2619.738,,,,0,6,6,6,1,125,20,,,,,,,,
,,5d7957036797da0019537ad1,65af55d5cbfd19b26dc0c3e7,2024-01-23_00h17.45.230,bars,2023.2.3,Win32,48.03073967,657b66ea316d21385b68909f,,,,,,,,,,,2619.739,2620.732,,,2621.233,2621.482,,130,130,,,,,,,,,,,,,,,,bars/010.png,bars/mask009.png,,,,,,,,,,,,0,1,,,,,,,7,4,9,4,,,,,,,,,,,2620.732,2621.233,2621.482,2624.714,space,3.219,,2624.715,35,75,2625.705,2625.705,2625.71,,,,0,7,7,7,1,165,55,,,,,,,,
,,5d7957036797da0019537ad1,65af55d5cbfd19b26dc0c3e7,2024-01-23_00h17.45.230,bars,2023.2.3,Win32,48.03073967,657b66ea316d21385b68909f,,,,,,,,,,,2625.711,2626.715,,,2627.215,2627.465,,34,34,,,,,,,,,,,,,,,,bars/017.png,bars/mask008.png,,,,,,,,,,,,4,2,,,,,,,9,6,9,7,,,,,,,,,,,2626.715,2627.215,2627.465,2629.381,space,1.901,,2629.382,69,11,2630.381,2630.382,2630.389,,,,0,8,8,8,1,145,45,,,,,,,,
,,5d7957036797da0019537ad1,65af55d5cbfd19b26dc0c3e7,2024-01-23_00h17.45.230,bars,2023.2.3,Win32,48.03073967,657b66ea316d21385b68909f,,,,,,,,,,,2630.391,2631.381,,,2631.88,2632.133,,67,67,,,,,,,,,,,,,,,,bars/030.png,bars/mask000.png,,,,,,,,,,,,5,2,,,,,,,10,4,10,5,,,,,,,,,,,2631.381,2631.88,2632.133,2634.663,space,2.511,,2634.663,73,2,2635.663,2635.663,2635.668,,,,0,9,9,9,1,140,65,,,,,,,,
,,5d7957036797da0019537ad1,65af55d5cbfd19b26dc0c3e7,2024-01-23_00h17.45.230,bars,2023.2.3,Win32,48.03073967,657b66ea316d21385b68909f,,,,,,,,,,,2635.669,2636.663,,,2637.163,2637.413,,33,33,,,,,,,,,,,,,,,,bars/031.png,bars/mask002.png,,,,,,,,,,,,3,2,,,,,,,8,2,9,3,,,,,,,,,,,2636.663,2637.163,2637.413,2641.464,space,4.035,,2641.465,87,2,2642.464,2642.464,2642.473,,,,0,10,10,10,1,120,35,,,,,,,,
,,5d7957036797da0019537ad1,65af55d5cbfd19b26dc0c3e7,2024-01-23_00h17.45.230,bars,2023.2.3,Win32,48.03073967,657b66ea316d21385b68909f,,,,,,,,,,,2642.474,2643.463,,,2643.963,2644.213,,3,3,,,,,,,,,,,,,,,,bars/012.png,bars/mask007.png,,,,,,,,,,,,3,2,,,,,,,6,4,6,5,,,,,,,,,,,2643.463,2643.962,2644.213,2647.796,space,3.567,,2647.796,87,12,2648.797,2648.797,2648.803,,,,0,11,11,11,1,90,15,,,,,,,,
,,5d7957036797da0019537ad1,65af55d5cbfd19b26dc0c3e7,2024-01-23_00h17.45.230,bars,2023.2.3,Win32,48.03073967,657b66ea316d21385b68909f,,,,,,,,,,,2648.804,2649.797,,,2650.297,2650.546,,75,255,,,,,,,,,,,,,,,,bars/011.png,bars/mask000.png,,,,,,,,,,,,3,2,,,,,,,8,6,8,5,,,,,,,,,,,2649.797,2650.297,2650.547,2654.963,space,4.402,,2654.963,85,10,2655.962,2655.963,2655.969,,,,0,12,12,12,1,160,85,,,,,,,,
,,5d7957036797da0019537ad1,65af55d5cbfd19b26dc0c3e7,2024-01-23_00h17.45.230,bars,2023.2.3,Win32,48.03073967,657b66ea316d21385b68909f,,,,,,,,,,,2655.97,2656.962,,,2657.462,2657.713,,88,88,,,,,,,,,,,,,,,,bars/002.png,bars/mask006.png,,,,,,,,,,,,4,2,,,,,,,6,4,5,4,,,,,,,,,,,2656.962,2657.462,2657.713,2660.762,space,3.03,,2660.762,42,3,2661.762,2661.763,2661.768,,,,0,13,13,13,1,130,85,,,,,,,,
,,5d7957036797da0019537ad1,65af55d5cbfd19b26dc0c3e7,2024-01-23_00h17.45.230,bars,2023.2.3,Win32,48.03073967,657b66ea316d21385b68909f,,,,,,,,,,,2661.769,2662.763,,,2663.262,2663.512,,1,181,,,,,,,,,,,,,,,,bars/045.png,bars/mask004.png,,,,,,,,,,,,4,2,,,,,,,8,6,7,5,,,,,,,,,,,2662.763,2663.262,2663.512,2665.745,space,2.225,,2665.746,81,9,2666.746,2666.746,2666.75,,,,0,14,14,14,1,100,10,,,,,,,,
,,5d7957036797da0019537ad1,65af55d5cbfd19b26dc0c3e7,2024-01-23_00h17.45.230,bars,2023.2.3,Win32,48.03073967,657b66ea316d21385b68909f,,,,,,,,,,,2666.752,2667.745,,,2668.245,2668.495,,71,251,,,,,,,,,,,,,,,,bars/041.png,bars/mask008.png,,,,,,,,,,,,5,2,,,,,,,6,8,6,9,,,,,,,,,,,2667.745,2668.245,2668.495,2673.296,space,4.79,,2673.297,51,14,2674.295,2674.295,2674.307,,,,0,15,15,15,1,20,85,,,,,,,,
,,5d7957036797da0019537ad1,65af55d5cbfd19b26dc0c3e7,2024-01-23_00h17.45.230,bars,2023.2.3,Win32,48.03073967,657b66ea316d21385b68909f,,,,,,,,,,,2674.309,2675.312,,,2675.812,2676.063,,64,64,,,,,,,,,,,,,,,,bars/038.png,bars/mask006.png,,,,,,,,,,,,8,2,,,,,,,8,10,9,10,,,,,,,,,,,2675.312,2675.812,2676.063,2682.678,space,6.602,,2682.678,79,6,2683.677,2683.677,2683.685,,,,0,16,16,16,1,165,70,,,,,,,,
,,5d7957036797da0019537ad1,65af55d5cbfd19b26dc0c3e7,2024-01-23_00h17.45.230,bars,2023.2.3,Win32,48.03073967,657b66ea316d21385b68909f,,,,,,,,,,,2683.686,2684.68,,,2685.178,2685.428,,37,37,,,,,,,,,,,,,,,,bars/012.png,bars/mask001.png,,,,,,,,,,,,2,2,,,,,,,6,10,5,8,,,,,,,,,,,2684.68,2685.177,2685.428,2691.811,space,6.371,,2691.811,53,22,2692.811,2692.811,2692.818,,,,0,17,17,17,1,90,15,,,,,,,,
,,5d7957036797da0019537ad1,65af55d5cbfd19b26dc0c3e7,2024-01-23_00h17.45.230,bars,2023.2.3,Win32,48.03073967,657b66ea316d21385b68909f,,,,,,,,,,,2692.819,2693.81,,,2694.311,2694.559,,171,-9,,,,,,,,,,,,,,,,bars/015.png,bars/mask009.png,,,,,,,,,,,,6,2,,,,,,,4,10,4,10,,,,,,,,,,,2693.811,2694.311,2694.56,2696.96,space,2.388,,2696.962,61,11,2697.961,2697.961,2697.968,,,,0,18,18,18,1,110,160,,,,,,,,
