init_variables.started,init_variables.stopped,participant,session,date,expName,psychopyVersion,OS,frameRate,study_id,instruction_exp.started,instruction_exp.stopped,key_resp_8.keys,key_resp_8.rt,key_resp_8.duration,instruction_single.started,instruction_single.stopped,key_resp_2.keys,key_resp_2.rt,key_resp_2.duration,interval.started,interval.stopped,cue_single.started,cue_single.stopped,mask.started,mask.stopped,ori_response_single.started,res_ori,res,ori_response_single.stopped,key_resp_single.keys,key_resp_single.rt,key_resp_single.duration,disp_single.started,disp_single.stopped,key_resp.keys,key_resp.rt,key_resp.duration,single.thisRepN,single.thisTrialN,single.thisN,single.thisIndex,single.ran,ori,path,mask_path,instruction_bandit.started,instruction_bandit.stopped,key_resp_6.keys,key_resp_6.rt,key_resp_6.duration,cue_bandit.started,cue_bandit.stopped,bandit_res.keys,bandit_res.rt,bandit_res.duration,outcome_bandit.started,rew,action,outcome_bandit.stopped,bandit.thisRepN,bandit.thisTrialN,bandit.thisN,bandit.thisIndex,bandit.ran,actual_rew1,actual_rew2,rew1,rew2,instruction_task.started,instruction_task.stopped,key_resp_7.keys,key_resp_7.rt,key_resp_7.duration,wait_ready.started,wait_ready.stopped,key_resp_3.keys,key_resp_3.rt,key_resp_3.duration,cue.started,cue.stopped,ori_response.started,ori_response.stopped,key_resp_5.keys,key_resp_5.rt,key_resp_5.duration,outcome.started,diff1,diff2,outcome.stopped,disp_outcome_practice.started,disp_outcome_practice.stopped,key_resp_4.keys,key_resp_4.rt,key_resp_4.duration,trials.thisRepN,trials.thisTrialN,trials.thisN,trials.thisIndex,trials.ran,ori1,ori2,break_blk.started,break_blk.stopped,block.thisRepN,block.thisTrialN,block.thisN,block.thisIndex,block.ran,condition_file
0.0002,0.0004,5e3af1046218720332ff9cea,65af5423cf3d8856f5c0ca23,2024-01-23_08h00.31.966,bars,2023.2.3,Win32,49.01960784,657b66ea316d21385b68909f,,,,,,,,,,,,,,,,,,,,,,,,,,,,,,,,,,,,,,,,,,,,,,,,,,,,,,,,,,,,,,,,,,,,,,,,,,,,,,,,,,,,,,,,,,,,,,,,,,,,
,,5e3af1046218720332ff9cea,65af5423cf3d8856f5c0ca23,2024-01-23_08h00.31.966,bars,2023.2.3,Win32,49.01960784,657b66ea316d21385b68909f,0.0005,44.6679,y,44.6504,,,,,,,,,,,,,,,,,,,,,,,,,,,,,,,,,,,,,,,,,,,,,,,,,,,,,,,,,,,,,,,,,,,,,,,,,,,,,,,,,,,,,,,,,,,,,,,,
,,5e3af1046218720332ff9cea,65af5423cf3d8856f5c0ca23,2024-01-23_08h00.31.966,bars,2023.2.3,Win32,49.01960784,657b66ea316d21385b68909f,,,,,,44.6679,78.6262,space,33.9284,,,,,,,,,,,,,,,,,,,,,,,,,,,,,,,,,,,,,,,,,,,,,,,,,,,,,,,,,,,,,,,,,,,,,,,,,,,,,,,,,,,,,,,,,,,
,,5e3af1046218720332ff9cea,65af5423cf3d8856f5c0ca23,2024-01-23_08h00.31.966,bars,2023.2.3,Win32,49.01960784,657b66ea316d21385b68909f,,,,,,,,,,,78.6303,79.6274,79.6281,80.1276,80.128,80.3777,80.3782,147,147,90.7531,space,10.324,,90.7534,96.3548,space,5.5661,,0,0,0,8,1,160,bars/single008.png,bars/mask004.png,,,,,,,,,,,,,,,,,,,,,,,,,,,,,,,,,,,,,,,,,,,,,,,,,,,,,,,,,,,,,,,,
,,5e3af1046218720332ff9cea,65af5423cf3d8856f5c0ca23,2024-01-23_08h00.31.966,bars,2023.2.3,Win32,49.01960784,657b66ea316d21385b68909f,,,,,,,,,,,96.3629,97.356,97.3562,97.856,97.856,98.1063,98.1064,31,31,104.7313,space,6.6038,,104.7313,108.5627,space,3.7961,,0,1,1,4,1,95,bars/single004.png,bars/mask004.png,,,,,,,,,,,,,,,,,,,,,,,,,,,,,,,,,,,,,,,,,,,,,,,,,,,,,,,,,,,,,,,,
,,5e3af1046218720332ff9cea,65af5423cf3d8856f5c0ca23,2024-01-23_08h00.31.966,bars,2023.2.3,Win32,49.01960784,657b66ea316d21385b68909f,,,,,,,,,,,108.5694,109.5641,109.5642,110.0647,110.0648,110.3145,110.3146,19,19,114.1902,space,3.8548,,114.1903,117.9818,space,3.7587,,0,2,2,1,1,20,bars/single001.png,bars/mask006.png,,,,,,,,,,,,,,,,,,,,,,,,,,,,,,,,,,,,,,,,,,,,,,,,,,,,,,,,,,,,,,,,
,,5e3af1046218720332ff9cea,65af5423cf3d8856f5c0ca23,2024-01-23_08h00.31.966,bars,2023.2.3,Win32,49.01960784,657b66ea316d21385b68909f,,,,,,,,,,,117.9993,119.0012,119.0013,119.502,119.5021,119.7522,119.7522,45,45,123.9402,space,4.1681,,123.9403,127.9604,space,3.9828,,0,3,3,7,1,45,bars/single007.png,bars/mask009.png,,,,,,,,,,,,,,,,,,,,,,,,,,,,,,,,,,,,,,,,,,,,,,,,,,,,,,,,,,,,,,,,
,,5e3af1046218720332ff9cea,65af5423cf3d8856f5c0ca23,2024-01-23_08h00.31.966,bars,2023.2.3,Win32,49.01960784,657b66ea316d21385b68909f,,,,,,,,,,,127.9805,128.9807,128.9808,129.4813,129.4814,129.7105,129.7106,142,142,135.9598,space,6.2413,,135.9601,139.4191,space,3.4247,,0,4,4,0,1,150,bars/single000.png,bars/mask006.png,,,,,,,,,,,,,,,,,,,,,,,,,,,,,,,,,,,,,,,,,,,,,,,,,,,,,,,,,,,,,,,,
,,5e3af1046218720332ff9cea,65af5423cf3d8856f5c0ca23,2024-01-23_08h00.31.966,bars,2023.2.3,Win32,49.01960784,657b66ea316d21385b68909f,,,,,,,,,,,139.4391,140.4396,140.4397,140.9395,140.9396,141.1898,141.1899,142,142,146.9402,space,5.7293,,146.9403,150.1888,space,3.2215,,0,5,5,2,1,145,bars/single002.png,bars/mask003.png,,,,,,,,,,,,,,,,,,,,,,,,,,,,,,,,,,,,,,,,,,,,,,,,,,,,,,,,,,,,,,,,
,,5e3af1046218720332ff9cea,65af5423cf3d8856f5c0ca23,2024-01-23_08h00.31.966,bars,2023.2.3,Win32,49.01960784,657b66ea316d21385b68909f,,,,,,,,,,,150.1892,151.1892,151.1893,151.6899,151.69,151.9386,151.9386,45,45,154.5231,space,2.5731,,154.5232,156.6899,space,2.145,,0,6,6,5,1,55,bars/single005.png,bars/mask008.png,,,,,,,,,,,,,,,,,,,,,,,,,,,,,,,,,,,,,,,,,,,,,,,,,,,,,,,,,,,,,,,,
,,5e3af1046218720332ff9cea,65af5423cf3d8856f5c0ca23,2024-01-23_08h00.31.966,bars,2023.2.3,Win32,49.01960784,657b66ea316d21385b68909f,,,,,,,,,,,156.6907,157.6894,157.6894,158.1889,158.1889,158.4394,158.4394,152,152,160.9606,space,2.5049,,160.9607,164.2298,space,3.2313,,0,7,7,6,1,175,bars/single006.png,bars/mask005.png,,,,,,,,,,,,,,,,,,,,,,,,,,,,,,,,,,,,,,,,,,,,,,,,,,,,,,,,,,,,,,,,
,,5e3af1046218720332ff9cea,65af5423cf3d8856f5c0ca23,2024-01-23_08h00.31.966,bars,2023.2.3,Win32,49.01960784,657b66ea316d21385b68909f,,,,,,,,,,,164.2301,165.2312,165.2313,165.7307,165.7307,165.9804,165.9805,42,42,170.4169,space,4.416,,170.417,173.667,space,3.2141,,0,8,8,3,1,20,bars/single003.png,bars/mask005.png,,,,,,,,,,,,,,,,,,,,,,,,,,,,,,,,,,,,,,,,,,,,,,,,,,,,,,,,,,,,,,,,
,,5e3af1046218720332ff9cea,65af5423cf3d8856f5c0ca23,2024-01-23_08h00.31.966,bars,2023.2.3,Win32,49.01960784,657b66ea316d21385b68909f,,,,,,,,,,,173.6822,174.6687,174.6687,175.1692,175.1692,175.4188,175.4188,36,36,180.2926,space,4.8628,,180.2926,182.669,space,2.3519,,0,9,9,9,1,20,bars/single009.png,bars/mask006.png,,,,,,,,,,,,,,,,,,,,,,,,,,,,,,,,,,,,,,,,,,,,,,,,,,,,,,,,,,,,,,,,
,,5e3af1046218720332ff9cea,65af5423cf3d8856f5c0ca23,2024-01-23_08h00.31.966,bars,2023.2.3,Win32,49.01960784,657b66ea316d21385b68909f,,,,,,,,,,,,,,,,,,,,,,,,,,,,,,,,,,,,,182.6706,233.9419,space,51.2396,,,,,,,,,,,,,,,,,,,,,,,,,,,,,,,,,,,,,,,,,,,,,,,,,,,,,,,,,,,,
,,5e3af1046218720332ff9cea,65af5423cf3d8856f5c0ca23,2024-01-23_08h00.31.966,bars,2023.2.3,Win32,49.01960784,657b66ea316d21385b68909f,,,,,,,,,,,,,,,,,,,,,,,,,,,,,,,,,,,,,,,,,,233.9641,237.7741,right,3.7921,,237.7746,2,2,238.7731,0,0,0,0,1,9,1,9,2,,,,,,,,,,,,,,,,,,,,,,,,,,,,,,,,,,,,,,,,,
,,5e3af1046218720332ff9cea,65af5423cf3d8856f5c0ca23,2024-01-23_08h00.31.966,bars,2023.2.3,Win32,49.01960784,657b66ea316d21385b68909f,,,,,,,,,,,,,,,,,,,,,,,,,,,,,,,,,,,,,,,,,,238.7741,240.1693,right,1.3601,,240.1693,1,2,241.1691,0,1,1,1,1,10,0,10,1,,,,,,,,,,,,,,,,,,,,,,,,,,,,,,,,,,,,,,,,,
,,5e3af1046218720332ff9cea,65af5423cf3d8856f5c0ca23,2024-01-23_08h00.31.966,bars,2023.2.3,Win32,49.01960784,657b66ea316d21385b68909f,,,,,,,,,,,,,,,,,,,,,,,,,,,,,,,,,,,,,,,,,,241.1699,243.9813,right,2.7871,,243.9814,2,2,244.9816,0,2,2,2,1,10,2,10,2,,,,,,,,,,,,,,,,,,,,,,,,,,,,,,,,,,,,,,,,,
,,5e3af1046218720332ff9cea,65af5423cf3d8856f5c0ca23,2024-01-23_08h00.31.966,bars,2023.2.3,Win32,49.01960784,657b66ea316d21385b68909f,,,,,,,,,,,,,,,,,,,,,,,,,,,,,,,,,,,,,,,,,,245.0053,246.6901,right,1.6683,,246.6902,3,2,247.69,0,3,3,3,1,8,4,7,3,,,,,,,,,,,,,,,,,,,,,,,,,,,,,,,,,,,,,,,,,
,,5e3af1046218720332ff9cea,65af5423cf3d8856f5c0ca23,2024-01-23_08h00.31.966,bars,2023.2.3,Win32,49.01960784,657b66ea316d21385b68909f,,,,,,,,,,,,,,,,,,,,,,,,,,,,,,,,,,,,,,,,,,247.6908,248.9401,right,1.2164,,248.9402,1,2,249.9396,0,4,4,4,1,6,2,5,1,,,,,,,,,,,,,,,,,,,,,,,,,,,,,,,,,,,,,,,,,
,,5e3af1046218720332ff9cea,65af5423cf3d8856f5c0ca23,2024-01-23_08h00.31.966,bars,2023.2.3,Win32,49.01960784,657b66ea316d21385b68909f,,,,,,,,,,,,,,,,,,,,,,,,,,,,,,,,,,,,,,,,,,249.9405,250.9811,left,1.0154,,250.9812,4,1,251.9812,0,5,5,5,1,4,4,4,4,,,,,,,,,,,,,,,,,,,,,,,,,,,,,,,,,,,,,,,,,
,,5e3af1046218720332ff9cea,65af5423cf3d8856f5c0ca23,2024-01-23_08h00.31.966,bars,2023.2.3,Win32,49.01960784,657b66ea316d21385b68909f,,,,,,,,,,,,,,,,,,,,,,,,,,,,,,,,,,,,,,,,,,252.0025,252.9625,right,0.9435,,252.9626,2,2,253.9602,0,6,6,6,1,2,2,1,2,,,,,,,,,,,,,,,,,,,,,,,,,,,,,,,,,,,,,,,,,
,,5e3af1046218720332ff9cea,65af5423cf3d8856f5c0ca23,2024-01-23_08h00.31.966,bars,2023.2.3,Win32,49.01960784,657b66ea316d21385b68909f,,,,,,,,,,,,,,,,,,,,,,,,,,,,,,,,,,,,,,,,,,253.9606,254.4189,right,0.4233,,254.4189,1,2,255.4195,0,7,7,7,1,0,0,0,1,,,,,,,,,,,,,,,,,,,,,,,,,,,,,,,,,,,,,,,,,
,,5e3af1046218720332ff9cea,65af5423cf3d8856f5c0ca23,2024-01-23_08h00.31.966,bars,2023.2.3,Win32,49.01960784,657b66ea316d21385b68909f,,,,,,,,,,,,,,,,,,,,,,,,,,,,,,,,,,,,,,,,,,255.4205,255.7736,right,0.3247,,255.7737,0,2,256.7735,0,8,8,8,1,0,2,1,0,,,,,,,,,,,,,,,,,,,,,,,,,,,,,,,,,,,,,,,,,
,,5e3af1046218720332ff9cea,65af5423cf3d8856f5c0ca23,2024-01-23_08h00.31.966,bars,2023.2.3,Win32,49.01960784,657b66ea316d21385b68909f,,,,,,,,,,,,,,,,,,,,,,,,,,,,,,,,,,,,,,,,,,256.7743,257.3139,right,0.5112,,257.314,3,2,258.3142,0,9,9,9,1,2,4,2,3,,,,,,,,,,,,,,,,,,,,,,,,,,,,,,,,,,,,,,,,,
,,5e3af1046218720332ff9cea,65af5423cf3d8856f5c0ca23,2024-01-23_08h00.31.966,bars,2023.2.3,Win32,49.01960784,657b66ea316d21385b68909f,,,,,,,,,,,,,,,,,,,,,,,,,,,,,,,,,,,,,,,,,,258.3153,258.878,left,0.526,,258.8781,0,1,259.8781,0,10,10,10,1,0,2,0,3,,,,,,,,,,,,,,,,,,,,,,,,,,,,,,,,,,,,,,,,,
,,5e3af1046218720332ff9cea,65af5423cf3d8856f5c0ca23,2024-01-23_08h00.31.966,bars,2023.2.3,Win32,49.01960784,657b66ea316d21385b68909f,,,,,,,,,,,,,,,,,,,,,,,,,,,,,,,,,,,,,,,,,,259.8793,260.3364,left,0.4228,,260.3365,0,1,261.3349,0,11,11,11,1,0,4,0,3,,,,,,,,,,,,,,,,,,,,,,,,,,,,,,,,,,,,,,,,,
,,5e3af1046218720332ff9cea,65af5423cf3d8856f5c0ca23,2024-01-23_08h00.31.966,bars,2023.2.3,Win32,49.01960784,657b66ea316d21385b68909f,,,,,,,,,,,,,,,,,,,,,,,,,,,,,,,,,,,,,,,,,,261.3358,262.0026,right,0.6373,,262.0027,6,2,263.0025,0,12,12,12,1,2,6,1,6,,,,,,,,,,,,,,,,,,,,,,,,,,,,,,,,,,,,,,,,,
,,5e3af1046218720332ff9cea,65af5423cf3d8856f5c0ca23,2024-01-23_08h00.31.966,bars,2023.2.3,Win32,49.01960784,657b66ea316d21385b68909f,,,,,,,,,,,,,,,,,,,,,,,,,,,,,,,,,,,,,,,,,,263.0034,264.4596,right,1.4293,,264.4597,3,2,265.4587,0,13,13,13,1,0,4,1,3,,,,,,,,,,,,,,,,,,,,,,,,,,,,,,,,,,,,,,,,,
,,5e3af1046218720332ff9cea,65af5423cf3d8856f5c0ca23,2024-01-23_08h00.31.966,bars,2023.2.3,Win32,49.01960784,657b66ea316d21385b68909f,,,,,,,,,,,,,,,,,,,,,,,,,,,,,,,,,,,,,,,,,,265.4591,266.8156,right,1.3182,,266.8156,7,2,267.8132,0,14,14,14,1,2,6,2,7,,,,,,,,,,,,,,,,,,,,,,,,,,,,,,,,,,,,,,,,,
,,5e3af1046218720332ff9cea,65af5423cf3d8856f5c0ca23,2024-01-23_08h00.31.966,bars,2023.2.3,Win32,49.01960784,657b66ea316d21385b68909f,,,,,,,,,,,,,,,,,,,,,,,,,,,,,,,,,,,,,,,,,,267.8137,268.5433,right,0.6912,,268.5434,9,2,269.5435,0,15,15,15,1,4,8,3,9,,,,,,,,,,,,,,,,,,,,,,,,,,,,,,,,,,,,,,,,,
,,5e3af1046218720332ff9cea,65af5423cf3d8856f5c0ca23,2024-01-23_08h00.31.966,bars,2023.2.3,Win32,49.01960784,657b66ea316d21385b68909f,,,,,,,,,,,,,,,,,,,,,,,,,,,,,,,,,,,,,,,,,,269.5439,270.398,left,0.8142,,270.398,7,1,271.3983,0,16,16,16,1,6,6,7,7,,,,,,,,,,,,,,,,,,,,,,,,,,,,,,,,,,,,,,,,,
,,5e3af1046218720332ff9cea,65af5423cf3d8856f5c0ca23,2024-01-23_08h00.31.966,bars,2023.2.3,Win32,49.01960784,657b66ea316d21385b68909f,,,,,,,,,,,,,,,,,,,,,,,,,,,,,,,,,,,,,,,,,,271.399,271.9394,right,0.5032,,271.9395,5,2,272.9403,0,17,17,17,1,8,4,9,5,,,,,,,,,,,,,,,,,,,,,,,,,,,,,,,,,,,,,,,,,
,,5e3af1046218720332ff9cea,65af5423cf3d8856f5c0ca23,2024-01-23_08h00.31.966,bars,2023.2.3,Win32,49.01960784,657b66ea316d21385b68909f,,,,,,,,,,,,,,,,,,,,,,,,,,,,,,,,,,,,,,,,,,272.9413,273.3564,left,0.381,,273.3565,5,1,274.3569,0,18,18,18,1,6,2,5,1,,,,,,,,,,,,,,,,,,,,,,,,,,,,,,,,,,,,,,,,,
,,5e3af1046218720332ff9cea,65af5423cf3d8856f5c0ca23,2024-01-23_08h00.31.966,bars,2023.2.3,Win32,49.01960784,657b66ea316d21385b68909f,,,,,,,,,,,,,,,,,,,,,,,,,,,,,,,,,,,,,,,,,,274.3578,274.6931,left,0.3121,,274.6931,7,1,275.6901,0,19,19,19,1,8,0,7,0,,,,,,,,,,,,,,,,,,,,,,,,,,,,,,,,,,,,,,,,,
,,5e3af1046218720332ff9cea,65af5423cf3d8856f5c0ca23,2024-01-23_08h00.31.966,bars,2023.2.3,Win32,49.01960784,657b66ea316d21385b68909f,,,,,,,,,,,,,,,,,,,,,,,,,,,,,,,,,,,,,,,,,,,,,,,,,,,,,,,,,,,,275.6917,297.0465,space,21.3226,,,,,,,,,,,,,,,,,,,,,,,,,,,,,,,,,,,,,
,,5e3af1046218720332ff9cea,65af5423cf3d8856f5c0ca23,2024-01-23_08h00.31.966,bars,2023.2.3,Win32,49.01960784,657b66ea316d21385b68909f,,,,,,,,,,,298.3643,299.3571,,,299.8575,300.1075,,144,144,,,,,,,,,,,,,,,,bars/018.png,bars/mask005.png,,,,,,,,,,,,8,1,,,,,,,9,7,10,7,,,,,,297.0684,298.3571,space,1.2679,,299.3577,299.8574,300.108,306.3585,space,6.2209,,306.3591,6,54,307.3571,307.3575,321.0865,space,13.7019,,0,0,0,0,1,150,90,,,,,,,,
,,5e3af1046218720332ff9cea,65af5423cf3d8856f5c0ca23,2024-01-23_08h00.31.966,bars,2023.2.3,Win32,49.01960784,657b66ea316d21385b68909f,,,,,,,,,,,321.1023,322.1058,,,322.6069,322.8572,,145,145,,,,,,,,,,,,,,,,bars/038.png,bars/mask001.png,,,,,,,,,,,,2,1,,,,,,,7,5,7,4,,,,,,,,,,,322.1058,322.6068,322.8573,327.8977,space,5.0203,,327.8978,20,75,328.8975,328.8976,333.8974,space,4.9782,,0,1,1,1,1,165,70,,,,,,,,
,,5e3af1046218720332ff9cea,65af5423cf3d8856f5c0ca23,2024-01-23_08h00.31.966,bars,2023.2.3,Win32,49.01960784,657b66ea316d21385b68909f,,,,,,,,,,,333.9047,334.8988,,,335.3989,335.6481,,34,34,,,,,,,,,,,,,,,,bars/002.png,bars/mask001.png,,,,,,,,,,,,0,2,,,,,,,5,7,3,7,,,,,,,,,,,334.8988,335.3988,335.6482,340.1904,space,4.5221,,340.1905,84,51,341.1904,341.1905,345.3986,space,4.1689,,0,2,2,2,1,130,85,,,,,,,,
,,5e3af1046218720332ff9cea,65af5423cf3d8856f5c0ca23,2024-01-23_08h00.31.966,bars,2023.2.3,Win32,49.01960784,657b66ea316d21385b68909f,,,,,,,,,,,345.4143,346.399,,,346.8986,347.1492,,55,55,,,,,,,,,,,,,,,,bars/046.png,bars/mask004.png,,,,,,,,,,,,0,2,,,,,,,7,5,6,6,,,,,,,,,,,346.3991,346.8986,347.1493,352.5659,space,5.399,,352.566,80,30,353.5655,353.5656,360.6059,space,7.0123,,0,3,3,3,1,155,85,,,,,,,,
,,5e3af1046218720332ff9cea,65af5423cf3d8856f5c0ca23,2024-01-23_08h00.31.966,bars,2023.2.3,Win32,49.01960784,657b66ea316d21385b68909f,,,,,,,,,,,360.6235,361.6066,,,362.1072,362.3571,,29,29,,,,,,,,,,,,,,,,bars/033.png,bars/mask009.png,,,,,,,,,,,,8,1,,,,,,,9,7,9,7,,,,,,,,,,,361.6067,362.107,362.3571,364.8988,space,2.5325,,364.899,4,54,365.8989,365.899,368.6701,space,2.7288,,0,4,4,4,1,25,155,,,,,,,,
,,5e3af1046218720332ff9cea,65af5423cf3d8856f5c0ca23,2024-01-23_08h00.31.966,bars,2023.2.3,Win32,49.01960784,657b66ea316d21385b68909f,,,,,,,,,,,368.671,369.6698,,,370.1697,370.4192,,46,46,,,,,,,,,,,,,,,,bars/007.png,bars/mask002.png,,,,,,,,,,,,4,2,,,,,,,7,5,6,5,,,,,,,,,,,369.6698,370.1696,370.4193,375.4824,space,5.0454,,375.4826,51,9,376.4822,376.4822,379.2528,space,2.7274,,0,5,5,5,1,175,55,,,,,,,,
,,5e3af1046218720332ff9cea,65af5423cf3d8856f5c0ca23,2024-01-23_08h00.31.966,bars,2023.2.3,Win32,49.01960784,657b66ea316d21385b68909f,,,,,,,,,,,379.2532,380.2502,,,380.751,381.0014,,133,133,,,,,,,,,,,,,,,,bars/018.png,bars/mask008.png,,,,,,,,,,,,2,1,,,,,,,5,3,5,3,,,,,,,,,,,380.2502,380.751,381.0015,383.8991,space,2.8855,,383.8992,17,43,384.8987,384.8987,386.7513,space,1.8066,,0,6,6,6,1,150,90,,,,,,,,
,,5e3af1046218720332ff9cea,65af5423cf3d8856f5c0ca23,2024-01-23_08h00.31.966,bars,2023.2.3,Win32,49.01960784,657b66ea316d21385b68909f,,,,,,,,,,,386.7519,387.7528,,,388.253,388.5022,,66,66,,,,,,,,,,,,,,,,bars/042.png,bars/mask006.png,,,,,,,,,,,,1,2,,,,,,,7,1,7,2,,,,,,,,,,,387.753,388.253,388.5022,390.7741,space,2.2561,,390.7741,79,9,391.7738,391.7739,393.3568,space,1.5361,,0,7,7,7,1,145,75,,,,,,,,
,,5e3af1046218720332ff9cea,65af5423cf3d8856f5c0ca23,2024-01-23_08h00.31.966,bars,2023.2.3,Win32,49.01960784,657b66ea316d21385b68909f,,,,,,,,,,,393.3575,394.3567,,,394.8569,395.1068,,64,64,,,,,,,,,,,,,,,,bars/013.png,bars/mask000.png,,,,,,,,,,,,6,1,,,,,,,9,3,9,3,,,,,,,,,,,394.3568,394.8568,395.1068,397.0241,space,1.8998,,397.0242,11,54,398.0236,398.0236,399.2115,space,1.1488,,0,8,8,8,1,75,10,,,,,,,,
,,5e3af1046218720332ff9cea,65af5423cf3d8856f5c0ca23,2024-01-23_08h00.31.966,bars,2023.2.3,Win32,49.01960784,657b66ea316d21385b68909f,,,,,,,,,,,399.2122,400.2115,,,400.7108,400.961,,126,126,,,,,,,,,,,,,,,,bars/040.png,bars/mask007.png,,,,,,,,,,,,5,1,,,,,,,10,5,10,8,,,,,,,,,,,400.2116,400.7108,400.961,403.6274,space,2.6527,,403.6275,14,59,404.6283,404.6284,406.1067,space,1.438,,0,9,9,9,1,140,5,,,,,,,,
,,5e3af1046218720332ff9cea,65af5423cf3d8856f5c0ca23,2024-01-23_08h00.31.966,bars,2023.2.3,Win32,49.01960784,657b66ea316d21385b68909f,,,,,,,,,,,406.107,407.107,,,407.6063,407.8577,,134,134,,,,,,,,,,,,,,,,bars/035.png,bars/mask000.png,,,,,,,,,,,,0,1,,,,,,,8,7,7,5,,,,,,,,,,,407.1071,407.6063,407.8577,412.2323,space,4.3638,,412.2325,41,74,413.2321,413.2321,413.9398,space,0.6723,,0,10,10,10,1,175,60,,,,,,,,
,,5e3af1046218720332ff9cea,65af5423cf3d8856f5c0ca23,2024-01-23_08h00.31.966,bars,2023.2.3,Win32,49.01960784,657b66ea316d21385b68909f,,,,,,,,,,,413.9401,414.9403,,,415.4396,415.6908,,162,-18,,,,,,,,,,,,,,,,bars/039.png,bars/mask002.png,,,,,,,,,,,,6,1,,,,,,,10,5,10,5,,,,,,,,,,,414.9403,415.4396,415.6909,419.0288,space,3.3306,,419.0289,13,57,420.0272,420.0272,421.5863,space,1.523,,0,11,11,11,1,175,105,,,,,,,,
,,5e3af1046218720332ff9cea,65af5423cf3d8856f5c0ca23,2024-01-23_08h00.31.966,bars,2023.2.3,Win32,49.01960784,657b66ea316d21385b68909f,,,,,,,,,,,421.5873,422.5865,,,423.0868,423.3364,,44,44,,,,,,,,,,,,,,,,bars/016.png,bars/mask006.png,,,,,,,,,,,,7,1,,,,,,,10,3,8,2,,,,,,,,,,,422.5867,423.0867,423.3365,425.5441,space,2.1871,,425.5441,4,59,426.5453,426.5454,428.5245,space,1.9344,,0,12,12,12,1,40,165,,,,,,,,
,,5e3af1046218720332ff9cea,65af5423cf3d8856f5c0ca23,2024-01-23_08h00.31.966,bars,2023.2.3,Win32,49.01960784,657b66ea316d21385b68909f,,,,,,,,,,,428.5254,429.5239,,,430.0236,430.2739,,141,141,,,,,,,,,,,,,,,,bars/043.png,bars/mask000.png,,,,,,,,,,,,3,2,,,,,,,8,5,7,5,,,,,,,,,,,429.5239,430.0235,430.274,432.7535,space,2.46,,432.7535,69,11,433.7521,433.7521,434.8977,space,1.1074,,0,13,13,13,1,30,130,,,,,,,,
,,5e3af1046218720332ff9cea,65af5423cf3d8856f5c0ca23,2024-01-23_08h00.31.966,bars,2023.2.3,Win32,49.01960784,657b66ea316d21385b68909f,,,,,,,,,,,434.898,435.8978,,,436.3996,436.6491,,44,44,,,,,,,,,,,,,,,,bars/035.png,bars/mask006.png,,,,,,,,,,,,3,2,,,,,,,10,7,9,6,,,,,,,,,,,435.8978,436.3996,436.6491,440.1479,space,3.4813,,440.148,49,16,441.1491,441.1491,442.6912,space,1.5014,,0,14,14,14,1,175,60,,,,,,,,
,,5e3af1046218720332ff9cea,65af5423cf3d8856f5c0ca23,2024-01-23_08h00.31.966,bars,2023.2.3,Win32,49.01960784,657b66ea316d21385b68909f,,,,,,,,,,,442.692,443.691,,,444.1908,444.4409,,72,72,,,,,,,,,,,,,,,,bars/016.png,bars/mask000.png,,,,,,,,,,,,0,1,,,,,,,8,9,9,10,,,,,,,,,,,443.6911,444.1907,444.4411,445.481,space,1.0331,,445.481,32,87,446.4828,446.483,447.3555,space,0.8477,,0,15,15,15,1,40,165,,,,,,,,
,,5e3af1046218720332ff9cea,65af5423cf3d8856f5c0ca23,2024-01-23_08h00.31.966,bars,2023.2.3,Win32,49.01960784,657b66ea316d21385b68909f,,,,,,,,,,,447.356,448.3574,,,448.8574,449.1068,,125,125,,,,,,,,,,,,,,,,bars/002.png,bars/mask004.png,,,,,,,,,,,,5,1,,,,,,,6,10,6,10,,,,,,,,,,,448.3575,448.8573,449.107,452.2743,space,3.1294,,452.2744,5,40,453.2739,453.274,453.9187,space,0.6117,,0,16,16,16,1,130,85,,,,,,,,
,,5e3af1046218720332ff9cea,65af5423cf3d8856f5c0ca23,2024-01-23_08h00.31.966,bars,2023.2.3,Win32,49.01960784,657b66ea316d21385b68909f,,,,,,,,,,,453.9189,454.9198,,,455.4206,455.6696,,69,69,,,,,,,,,,,,,,,,bars/022.png,bars/mask000.png,,,,,,,,,,,,1,1,,,,,,,8,10,8,8,,,,,,,,,,,454.9199,455.4204,455.6697,457.2327,space,1.5471,,457.2329,26,49,458.2327,458.2327,458.8769,space,0.609,,0,17,17,17,1,95,20,,,,,,,,
,,5e3af1046218720332ff9cea,65af5423cf3d8856f5c0ca23,2024-01-23_08h00.31.966,bars,2023.2.3,Win32,49.01960784,657b66ea316d21385b68909f,,,,,,,,,,,458.8773,459.8783,,,460.3775,460.6282,,54,54,,,,,,,,,,,,,,,,bars/044.png,bars/mask006.png,,,,,,,,,,,,3,1,,,,,,,10,10,10,10,,,,,,,,,,,459.8784,460.3775,460.6283,462.2949,space,1.6375,,462.295,21,79,463.2943,463.2943,463.6684,space,0.338,,0,18,18,18,1,75,155,,,,,,,,
,,5e3af1046218720332ff9cea,65af5423cf3d8856f5c0ca23,2024-01-23_08h00.31.966,bars,2023.2.3,Win32,49.01960784,657b66ea316d21385b68909f,,,,,,,,,,,463.6688,464.6678,,,465.1725,465.4197,,159,159,,,,,,,,,,,,,,,,bars/042.png,bars/mask002.png,,,,,,,,,,,,4,1,,,,,,,8,10,8,10,,,,,,,,,,,464.6679,465.1725,465.4198,466.6286,space,1.1968,,466.6287,14,84,467.626,467.626,467.9201,space,0.2552,,0,19,19,19,1,145,75,,,,,,,,
,,5e3af1046218720332ff9cea,65af5423cf3d8856f5c0ca23,2024-01-23_08h00.31.966,bars,2023.2.3,Win32,49.01960784,657b66ea316d21385b68909f,,,,,,,,,,,467.9208,468.9199,,,469.4202,469.6698,,170,170,,,,,,,,,,,,,,,,bars/008.png,bars/mask008.png,,,,,,,,,,,,7,2,,,,,,,6,10,6,10,,,,,,,,,,,468.9199,469.4202,469.6699,470.5247,space,0.8411,,470.5248,60,10,471.5242,471.5243,471.8418,space,0.2927,,0,20,20,20,1,110,0,,,,,,,,
,,5e3af1046218720332ff9cea,65af5423cf3d8856f5c0ca23,2024-01-23_08h00.31.966,bars,2023.2.3,Win32,49.01960784,657b66ea316d21385b68909f,,,,,,,,,,,471.8428,472.8367,,,473.3369,473.5855,,119,119,,,,,,,,,,,,,,,,bars/023.png,bars/mask003.png,,,,,,,,,,,,9,2,,,,,,,8,10,10,10,,,,,,,,,,,472.8367,473.3369,473.5855,475.7748,space,2.1733,,475.7749,81,4,476.7729,476.7729,477.1485,space,0.3475,,0,21,21,21,1,20,115,,,,,,,,
,,5e3af1046218720332ff9cea,65af5423cf3d8856f5c0ca23,2024-01-23_08h00.31.966,bars,2023.2.3,Win32,49.01960784,657b66ea316d21385b68909f,,,,,,,,,,,477.1489,478.1492,,,478.6481,478.8992,,40,40,,,,,,,,,,,,,,,,bars/036.png,bars/mask000.png,,,,,,,,,,,,3,2,,,,,,,6,8,8,8,,,,,,,,,,,478.1493,478.6481,478.8992,480.6695,space,1.7535,,480.6696,75,20,481.6698,481.6698,483.066,space,1.3612,,0,22,22,22,1,145,20,,,,,,,,
,,5e3af1046218720332ff9cea,65af5423cf3d8856f5c0ca23,2024-01-23_08h00.31.966,bars,2023.2.3,Win32,49.01960784,657b66ea316d21385b68909f,,,,,,,,,,,483.0672,484.0659,,,484.5668,484.8151,,56,56,,,,,,,,,,,,,,,,bars/044.png,bars/mask002.png,,,,,,,,,,,,3,1,,,,,,,8,10,7,9,,,,,,,,,,,484.066,484.5667,484.8152,485.6078,space,0.7811,,485.6079,19,81,486.6076,486.6076,487.4822,space,0.8425,,0,23,23,23,1,75,155,,,,,,,,
,,5e3af1046218720332ff9cea,65af5423cf3d8856f5c0ca23,2024-01-23_08h00.31.966,bars,2023.2.3,Win32,49.01960784,657b66ea316d21385b68909f,,,,,,,,,,,487.4827,488.4828,,,488.9823,489.2325,,55,55,,,,,,,,,,,,,,,,bars/017.png,bars/mask008.png,,,,,,,,,,,,7,2,,,,,,,6,10,7,10,,,,,,,,,,,488.4828,488.9823,489.2326,494.2523,space,5.0097,,494.2523,90,10,495.2527,495.2528,495.7531,space,0.4627,,0,24,24,24,1,145,45,,,,,,,,
,,5e3af1046218720332ff9cea,65af5423cf3d8856f5c0ca23,2024-01-23_08h00.31.966,bars,2023.2.3,Win32,49.01960784,657b66ea316d21385b68909f,,,,,,,,,,,495.7537,496.7536,,,497.2527,497.5022,,155,155,,,,,,,,,,,,,,,,bars/032.png,bars/mask009.png,,,,,,,,,,,,0,1,,,,,,,4,8,4,8,,,,,,,,,,,496.7537,497.2526,497.5023,499.1496,space,1.61,,499.1498,30,45,500.1488,500.1489,500.5289,space,0.3551,,0,25,25,25,1,125,20,,,,,,,,
,,5e3af1046218720332ff9cea,65af5423cf3d8856f5c0ca23,2024-01-23_08h00.31.966,bars,2023.2.3,Win32,49.01960784,657b66ea316d21385b68909f,,,,,,,,,,,500.5297,501.524,,,502.0246,502.2742,,124,124,,,,,,,,,,,,,,,,bars/040.png,bars/mask004.png,,,,,,,,,,,,1,1,,,,,,,2,10,3,10,,,,,,,,,,,501.5241,502.0245,502.2742,502.8374,space,0.5431,,502.8375,16,61,503.8347,503.8347,504.1904,space,0.3287,,0,26,26,26,1,140,5,,,,,,,,
,,5e3af1046218720332ff9cea,65af5423cf3d8856f5c0ca23,2024-01-23_08h00.31.966,bars,2023.2.3,Win32,49.01960784,657b66ea316d21385b68909f,,,,,,,,,,,504.1912,505.1912,,,505.6912,505.941,,53,53,,,,,,,,,,,,,,,,bars/018.png,bars/mask007.png,,,,,,,,,,,,0,2,,,,,,,0,8,0,9,,,,,,,,,,,505.1913,505.6911,505.941,508.6073,space,2.6497,,508.6074,83,37,509.6067,509.6068,509.9194,space,0.2817,,0,27,27,27,1,150,90,,,,,,,,
,,5e3af1046218720332ff9cea,65af5423cf3d8856f5c0ca23,2024-01-23_08h00.31.966,bars,2023.2.3,Win32,49.01960784,657b66ea316d21385b68909f,,,,,,,,,,,509.9204,510.9239,,,511.4194,511.6699,,53,53,,,,,,,,,,,,,,,,bars/007.png,bars/mask008.png,,,,,,,,,,,,9,2,,,,,,,0,10,0,10,,,,,,,,,,,510.9239,511.4194,511.6699,514.0033,space,2.3232,,514.0035,58,2,515.0024,515.0025,515.6288,space,0.5953,,0,28,28,28,1,175,55,,,,,,,,
,,5e3af1046218720332ff9cea,65af5423cf3d8856f5c0ca23,2024-01-23_08h00.31.966,bars,2023.2.3,Win32,49.01960784,657b66ea316d21385b68909f,,,,,,,,,,,515.6298,516.6285,,,517.1273,517.3786,,49,49,,,,,,,,,,,,,,,,bars/049.png,bars/mask009.png,,,,,,,,,,,,0,2,,,,,,,2,10,2,9,,,,,,,,,,,516.6286,517.1271,517.3786,519.1696,space,1.7736,,519.1697,69,66,520.1726,520.1726,520.2748,space,0.0749,,0,29,29,29,1,160,115,,,,,,,,
,,5e3af1046218720332ff9cea,65af5423cf3d8856f5c0ca23,2024-01-23_08h00.31.966,bars,2023.2.3,Win32,49.01960784,657b66ea316d21385b68909f,,,,,,,,,,,520.2757,521.2745,,,521.7747,522.0247,,160,160,,,,,,,,,,,,,,,,bars/033.png,bars/mask005.png,,,,,,,,,,,,7,2,,,,,,,0,8,0,8,,,,,,,,,,,521.2746,521.7746,522.0247,528.0873,space,6.0257,,528.0874,45,5,529.0869,529.087,529.7748,space,0.6527,,0,30,30,30,1,25,155,,,,,,,,
,,5e3af1046218720332ff9cea,65af5423cf3d8856f5c0ca23,2024-01-23_08h00.31.966,bars,2023.2.3,Win32,49.01960784,657b66ea316d21385b68909f,,,,,,,,,,,529.7757,530.7743,,,531.2749,531.5232,,58,58,,,,,,,,,,,,,,,,bars/025.png,bars/mask004.png,,,,,,,,,,,,4,2,,,,,,,2,10,3,9,,,,,,,,,,,530.7744,531.2748,531.5232,533.6068,space,2.0709,,533.6069,47,18,534.6072,534.6073,535.0658,space,0.4206,,0,31,31,31,1,105,40,,,,,,,,
,,5e3af1046218720332ff9cea,65af5423cf3d8856f5c0ca23,2024-01-23_08h00.31.966,bars,2023.2.3,Win32,49.01960784,657b66ea316d21385b68909f,,,,,,,,,,,535.0662,536.0699,,,536.5653,536.8163,,49,49,,,,,,,,,,,,,,,,bars/019.png,bars/mask005.png,,,,,,,,,,,,3,1,,,,,,,4,10,3,10,,,,,,,,,,,536.0699,536.5652,536.8163,540.8992,space,4.0662,,540.8994,4,56,541.8993,541.8994,542.5246,space,0.5897,,0,32,32,32,1,45,105,,,,,,,,
,,5e3af1046218720332ff9cea,65af5423cf3d8856f5c0ca23,2024-01-23_08h00.31.966,bars,2023.2.3,Win32,49.01960784,657b66ea316d21385b68909f,,,,,,,,,,,542.5255,543.5248,,,544.0245,544.2744,,130,130,,,,,,,,,,,,,,,,bars/044.png,bars/mask001.png,,,,,,,,,,,,2,2,,,,,,,2,10,4,10,,,,,,,,,,,543.5248,544.0244,544.2745,547.8997,space,3.607,,547.8997,55,25,548.8978,548.8979,549.8198,space,0.8969,,0,33,33,33,1,75,155,,,,,,,,
,,5e3af1046218720332ff9cea,65af5423cf3d8856f5c0ca23,2024-01-23_08h00.31.966,bars,2023.2.3,Win32,49.01960784,657b66ea316d21385b68909f,,,,,,,,,,,549.8203,550.8162,,,551.3162,551.5663,,42,42,,,,,,,,,,,,,,,,bars/001.png,bars/mask008.png,,,,,,,,,,,,0,2,,,,,,,0,8,0,8,,,,,,,,,,,550.8163,551.3161,551.5664,552.2531,space,0.6765,,552.2531,88,43,553.254,553.254,553.5666,space,0.2847,,0,34,34,34,1,130,85,,,,,,,,
,,5e3af1046218720332ff9cea,65af5423cf3d8856f5c0ca23,2024-01-23_08h00.31.966,bars,2023.2.3,Win32,49.01960784,657b66ea316d21385b68909f,,,,,,,,,,,553.5676,554.5663,,,555.0664,555.314,,58,58,,,,,,,,,,,,,,,,bars/025.png,bars/mask009.png,,,,,,,,,,,,2,2,,,,,,,2,6,2,6,,,,,,,,,,,554.5664,555.0664,555.3141,558.2541,space,2.9033,,558.2543,47,18,559.2536,559.2537,559.6082,space,0.3159,,0,35,35,35,1,105,40,,,,,,,,
,,5e3af1046218720332ff9cea,65af5423cf3d8856f5c0ca23,2024-01-23_08h00.31.966,bars,2023.2.3,Win32,49.01960784,657b66ea316d21385b68909f,,,,,,,,,,,559.6088,560.6082,,,561.1079,561.3575,,47,47,,,,,,,,,,,,,,,,bars/036.png,bars/mask006.png,,,,,,,,,,,,0,2,,,,,,,4,4,4,4,,,,,,,,,,,560.6082,561.1079,561.3576,562.9833,space,1.6105,,562.9834,82,27,563.9816,563.9817,564.7534,space,0.7323,,0,36,36,36,1,145,20,,,,,,,,
,,5e3af1046218720332ff9cea,65af5423cf3d8856f5c0ca23,2024-01-23_08h00.31.966,bars,2023.2.3,Win32,49.01960784,657b66ea316d21385b68909f,,,,,,,,,,,564.754,565.7531,,,566.2538,566.5037,,143,143,,,,,,,,,,,,,,,,bars/004.png,bars/mask001.png,,,,,,,,,,,,3,2,,,,,,,2,6,3,8,,,,,,,,,,,565.7531,566.2537,566.5038,568.462,space,1.9215,,568.4621,62,18,569.4616,569.4616,569.753,space,0.264,,0,37,37,37,1,25,125,,,,,,,,
,,5e3af1046218720332ff9cea,65af5423cf3d8856f5c0ca23,2024-01-23_08h00.31.966,bars,2023.2.3,Win32,49.01960784,657b66ea316d21385b68909f,,,,,,,,,,,569.7539,570.7513,,,571.2522,571.5035,,50,50,,,,,,,,,,,,,,,,bars/017.png,bars/mask008.png,,,,,,,,,,,,6,2,,,,,,,4,8,4,7,,,,,,,,,,,570.7514,571.2522,571.5036,574.4619,space,2.9429,,574.462,85,5,575.4624,575.4626,575.7961,space,0.2882,,0,38,38,38,1,145,45,,,,,,,,
,,5e3af1046218720332ff9cea,65af5423cf3d8856f5c0ca23,2024-01-23_08h00.31.966,bars,2023.2.3,Win32,49.01960784,657b66ea316d21385b68909f,,,,,,,,,,,575.7971,576.7954,,,577.2956,577.5457,,44,44,,,,,,,,,,,,,,,,bars/002.png,bars/mask002.png,,,,,,,,,,,,0,2,,,,,,,6,10,5,10,,,,,,,,,,,576.7956,577.2956,577.5458,580.3789,space,2.8174,,580.379,86,41,581.3786,581.3787,582.1075,space,0.6991,,0,39,39,39,1,130,85,,,,,,,,
,,5e3af1046218720332ff9cea,65af5423cf3d8856f5c0ca23,2024-01-23_08h00.31.966,bars,2023.2.3,Win32,49.01960784,657b66ea316d21385b68909f,,,,,,,,,,,582.1085,583.108,,,583.6081,583.8606,,69,69,,,,,,,,,,,,,,,,bars/026.png,bars/mask004.png,,,,,,,,,,,,4,2,,,,,,,8,8,6,8,,,,,,,,,,,583.1081,583.608,583.8606,584.8376,space,0.961,,584.8377,34,16,585.837,585.8371,586.5274,space,0.6663,,0,40,40,40,1,35,85,,,,,,,,
,,5e3af1046218720332ff9cea,65af5423cf3d8856f5c0ca23,2024-01-23_08h00.31.966,bars,2023.2.3,Win32,49.01960784,657b66ea316d21385b68909f,,,,,,,,,,,586.5278,587.5241,,,588.0232,588.272,,133,133,,,,,,,,,,,,,,,,bars/049.png,bars/mask008.png,,,,,,,,,,,,2,2,,,,,,,6,6,5,6,,,,,,,,,,,587.5242,588.0231,588.272,591.0271,space,2.7298,,591.0271,27,18,592.0233,592.0233,592.3559,space,0.2975,,0,41,41,41,1,160,115,,,,,,,,
,,5e3af1046218720332ff9cea,65af5423cf3d8856f5c0ca23,2024-01-23_08h00.31.966,bars,2023.2.3,Win32,49.01960784,657b66ea316d21385b68909f,,,,,,,,,,,592.3567,593.3564,,,593.8556,594.108,,55,55,,,,,,,,,,,,,,,,bars/017.png,bars/mask008.png,,,,,,,,,,,,5,2,,,,,,,4,8,6,7,,,,,,,,,,,593.3565,593.8555,594.1081,594.9203,space,0.7988,,594.9203,90,10,595.9203,595.9203,596.525,space,0.5698,,0,42,42,42,1,145,45,,,,,,,,
,,5e3af1046218720332ff9cea,65af5423cf3d8856f5c0ca23,2024-01-23_08h00.31.966,bars,2023.2.3,Win32,49.01960784,657b66ea316d21385b68909f,,,,,,,,,,,596.5259,597.5248,,,598.0244,598.2741,,119,119,,,,,,,,,,,,,,,,bars/023.png,bars/mask001.png,,,,,,,,,,,,8,2,,,,,,,6,10,5,9,,,,,,,,,,,597.5248,598.0244,598.2742,600.7956,space,2.5054,,600.7957,81,4,601.7952,601.7953,602.4616,space,0.63,,0,43,43,43,1,20,115,,,,,,,,
,,5e3af1046218720332ff9cea,65af5423cf3d8856f5c0ca23,2024-01-23_08h00.31.966,bars,2023.2.3,Win32,49.01960784,657b66ea316d21385b68909f,,,,,,,,,,,602.4622,603.4619,,,603.962,604.2165,,145,145,,,,,,,,,,,,,,,,bars/016.png,bars/mask007.png,,,,,,,,,,,,2,2,,,,,,,4,8,4,6,,,,,,,,,,,603.462,603.962,604.2165,606.0873,space,1.8455,,606.0874,75,20,607.0871,607.0871,607.4412,space,0.3205,,0,44,44,44,1,40,165,,,,,,,,
,,5e3af1046218720332ff9cea,65af5423cf3d8856f5c0ca23,2024-01-23_08h00.31.966,bars,2023.2.3,Win32,49.01960784,657b66ea316d21385b68909f,,,,,,,,,,,607.442,608.441,,,608.94,609.1912,,71,71,,,,,,,,,,,,,,,,bars/018.png,bars/mask006.png,,,,,,,,,,,,3,2,,,,,,,6,10,6,8,,,,,,,,,,,608.4411,608.94,609.1912,610.5454,space,1.3373,,610.5455,79,19,611.5449,611.5449,611.7952,space,0.2179,,0,45,45,45,1,150,90,,,,,,,,
,,5e3af1046218720332ff9cea,65af5423cf3d8856f5c0ca23,2024-01-23_08h00.31.966,bars,2023.2.3,Win32,49.01960784,657b66ea316d21385b68909f,,,,,,,,,,,611.7962,612.7954,,,613.2954,613.5457,,156,156,,,,,,,,,,,,,,,,bars/040.png,bars/mask008.png,,,,,,,,,,,,4,1,,,,,,,8,10,9,10,,,,,,,,,,,612.7956,613.2953,613.5458,615.0248,space,1.4447,,615.025,16,29,616.0276,616.0276,616.2962,space,0.2332,,0,46,46,46,1,140,5,,,,,,,,
,,5e3af1046218720332ff9cea,65af5423cf3d8856f5c0ca23,2024-01-23_08h00.31.966,bars,2023.2.3,Win32,49.01960784,657b66ea316d21385b68909f,,,,,,,,,,,616.297,617.2949,,,617.7957,618.0448,,132,132,,,,,,,,,,,,,,,,bars/009.png,bars/mask008.png,,,,,,,,,,,,1,2,,,,,,,10,8,10,8,,,,,,,,,,,617.295,617.7956,618.0448,618.5877,space,0.5119,,618.5878,63,27,619.5871,619.5872,619.7751,space,0.1521,,0,47,47,47,1,15,105,,,,,,,,
,,5e3af1046218720332ff9cea,65af5423cf3d8856f5c0ca23,2024-01-23_08h00.31.966,bars,2023.2.3,Win32,49.01960784,657b66ea316d21385b68909f,,,,,,,,,,,619.7761,620.7748,,,621.275,621.5237,,62,62,,,,,,,,,,,,,,,,bars/038.png,bars/mask006.png,,,,,,,,,,,,5,2,,,,,,,10,6,10,7,,,,,,,,,,,620.7749,621.275,621.5237,624.3157,space,2.7815,,624.3157,77,8,625.3238,625.3238,625.6706,space,0.3067,,0,48,48,48,1,165,70,,,,,,,,
,,5e3af1046218720332ff9cea,65af5423cf3d8856f5c0ca23,2024-01-23_08h00.31.966,bars,2023.2.3,Win32,49.01960784,657b66ea316d21385b68909f,,,,,,,,,,,625.6715,626.6704,,,627.1704,627.4245,,51,51,,,,,,,,,,,,,,,,bars/041.png,bars/mask004.png,,,,,,,,,,,,0,1,,,,,,,8,8,8,7,,,,,,,,,,,626.6705,627.1703,627.4246,635.1288,space,7.6874,,635.1289,31,34,636.1296,636.1296,637.4417,space,1.2696,,0,49,49,49,1,20,85,,,,,,,,
,,5e3af1046218720332ff9cea,65af5423cf3d8856f5c0ca23,2024-01-23_08h00.31.966,bars,2023.2.3,Win32,49.01960784,657b66ea316d21385b68909f,,,,,,,,,,,,,,,,,,,,,,,,,,,,,,,,,,,,,,,,,,,,,,,,,,,,,,,,,,,,,,,,,,,,,,,,,,,,,,,,,,,,,,,,,,,,,637.4438,697.4422,0,0,0,0,1,sequence_tables/blk032.csv
,,5e3af1046218720332ff9cea,65af5423cf3d8856f5c0ca23,2024-01-23_08h00.31.966,bars,2023.2.3,Win32,49.01960784,657b66ea316d21385b68909f,,,,,,,,,,,732.4251,733.4201,,,733.92,734.1709,,32,32,,,,,,,,,,,,,,,,bars/047.png,bars/mask008.png,,,,,,,,,,,,0,1,,,,,,,1,6,1,7,,,,,,697.4625,732.4193,space,34.9427,,733.4202,733.92,734.171,736.2128,space,2.0249,,736.213,17,38,737.2124,737.2125,737.2321,,,,0,0,0,0,1,15,70,,,,,,,,
,,5e3af1046218720332ff9cea,65af5423cf3d8856f5c0ca23,2024-01-23_08h00.31.966,bars,2023.2.3,Win32,49.01960784,657b66ea316d21385b68909f,,,,,,,,,,,737.2325,738.233,,,738.7336,738.9833,,79,79,,,,,,,,,,,,,,,,bars/028.png,bars/mask009.png,,,,,,,,,,,,0,1,,,,,,,3,4,2,5,,,,,,,,,,,738.2332,738.7335,738.9834,739.7333,space,0.717,,739.7335,34,41,740.7312,740.7313,740.7321,,,,0,1,1,1,1,45,120,,,,,,,,
,,5e3af1046218720332ff9cea,65af5423cf3d8856f5c0ca23,2024-01-23_08h00.31.966,bars,2023.2.3,Win32,49.01960784,657b66ea316d21385b68909f,,,,,,,,,,,740.7323,741.731,,,742.2339,742.4831,,57,57,,,,,,,,,,,,,,,,bars/031.png,bars/mask001.png,,,,,,,,,,,,1,2,,,,,,,1,6,2,5,,,,,,,,,,,741.7311,742.2338,742.4831,745.3383,space,2.8445,,745.3383,63,22,746.337,746.3371,746.36,,,,0,2,2,2,1,120,35,,,,,,,,
,,5e3af1046218720332ff9cea,65af5423cf3d8856f5c0ca23,2024-01-23_08h00.31.966,bars,2023.2.3,Win32,49.01960784,657b66ea316d21385b68909f,,,,,,,,,,,746.3602,747.3579,,,747.8575,748.1086,,32,32,,,,,,,,,,,,,,,,bars/036.png,bars/mask004.png,,,,,,,,,,,,3,2,,,,,,,3,4,3,5,,,,,,,,,,,747.358,747.8574,748.1087,749.0244,space,0.9,,749.0244,67,12,750.0248,750.0248,750.0262,,,,0,3,3,3,1,145,20,,,,,,,,
,,5e3af1046218720332ff9cea,65af5423cf3d8856f5c0ca23,2024-01-23_08h00.31.966,bars,2023.2.3,Win32,49.01960784,657b66ea316d21385b68909f,,,,,,,,,,,750.0267,751.0235,,,751.5235,751.7779,,43,223,,,,,,,,,,,,,,,,bars/029.png,bars/mask003.png,,,,,,,,,,,,6,2,,,,,,,1,6,1,6,,,,,,,,,,,751.0235,751.5235,751.7779,754.2962,space,2.4996,,754.2963,47,2,755.2955,755.2956,755.3192,,,,0,4,4,4,1,90,45,,,,,,,,
,,5e3af1046218720332ff9cea,65af5423cf3d8856f5c0ca23,2024-01-23_08h00.31.966,bars,2023.2.3,Win32,49.01960784,657b66ea316d21385b68909f,,,,,,,,,,,755.3195,756.3169,,,756.8167,757.066,,117,117,,,,,,,,,,,,,,,,bars/021.png,bars/mask003.png,,,,,,,,,,,,0,1,,,,,,,3,4,4,4,,,,,,,,,,,756.317,756.8167,757.066,761.0458,space,3.9712,,761.0459,38,47,762.0462,762.0463,762.0678,,,,0,5,5,5,1,155,70,,,,,,,,
,,5e3af1046218720332ff9cea,65af5423cf3d8856f5c0ca23,2024-01-23_08h00.31.966,bars,2023.2.3,Win32,49.01960784,657b66ea316d21385b68909f,,,,,,,,,,,762.0679,763.0675,,,763.5667,763.8153,,23,23,,,,,,,,,,,,,,,,bars/032.png,bars/mask005.png,,,,,,,,,,,,5,2,,,,,,,5,6,4,6,,,,,,,,,,,763.0675,763.5666,763.8154,764.7544,space,0.9095,,764.7545,78,3,765.7547,765.7548,765.7596,,,,0,6,6,6,1,125,20,,,,,,,,
,,5e3af1046218720332ff9cea,65af5423cf3d8856f5c0ca23,2024-01-23_08h00.31.966,bars,2023.2.3,Win32,49.01960784,657b66ea316d21385b68909f,,,,,,,,,,,765.7604,766.7521,,,767.2532,767.5042,,37,37,,,,,,,,,,,,,,,,bars/010.png,bars/mask009.png,,,,,,,,,,,,2,2,,,,,,,7,4,9,4,,,,,,,,,,,766.7522,767.2532,767.5042,772.981,space,5.4709,,772.981,52,18,773.9855,773.9855,773.9921,,,,0,7,7,7,1,165,55,,,,,,,,
,,5e3af1046218720332ff9cea,65af5423cf3d8856f5c0ca23,2024-01-23_08h00.31.966,bars,2023.2.3,Win32,49.01960784,657b66ea316d21385b68909f,,,,,,,,,,,773.9924,774.9835,,,775.4836,775.7337,,136,136,,,,,,,,,,,,,,,,bars/017.png,bars/mask008.png,,,,,,,,,,,,6,1,,,,,,,9,6,9,7,,,,,,,,,,,774.9835,775.4836,775.7337,780.4005,space,4.6482,,780.4006,9,89,781.4041,781.4041,781.4236,,,,0,8,8,8,1,145,45,,,,,,,,
,,5e3af1046218720332ff9cea,65af5423cf3d8856f5c0ca23,2024-01-23_08h00.31.966,bars,2023.2.3,Win32,49.01960784,657b66ea316d21385b68909f,,,,,,,,,,,781.4238,782.4236,,,782.9214,783.1705,,43,43,,,,,,,,,,,,,,,,bars/030.png,bars/mask000.png,,,,,,,,,,,,1,2,,,,,,,10,4,10,5,,,,,,,,,,,782.4236,782.9213,783.1706,784.8381,space,1.6515,,784.8382,83,22,785.8379,785.8379,785.8611,,,,0,9,9,9,1,140,65,,,,,,,,
,,5e3af1046218720332ff9cea,65af5423cf3d8856f5c0ca23,2024-01-23_08h00.31.966,bars,2023.2.3,Win32,49.01960784,657b66ea316d21385b68909f,,,,,,,,,,,785.8613,786.8587,,,787.3583,787.6084,,73,73,,,,,,,,,,,,,,,,bars/031.png,bars/mask002.png,,,,,,,,,,,,0,2,,,,,,,8,2,9,3,,,,,,,,,,,786.8588,787.3581,787.6085,788.6496,space,1.0209,,788.6496,47,38,789.6507,789.6508,789.6525,,,,0,10,10,10,1,120,35,,,,,,,,
,,5e3af1046218720332ff9cea,65af5423cf3d8856f5c0ca23,2024-01-23_08h00.31.966,bars,2023.2.3,Win32,49.01960784,657b66ea316d21385b68909f,,,,,,,,,,,789.6532,790.6502,,,791.1506,791.4002,,165,165,,,,,,,,,,,,,,,,bars/012.png,bars/mask007.png,,,,,,,,,,,,0,2,,,,,,,6,4,6,5,,,,,,,,,,,790.6502,791.1505,791.4002,792.8007,space,1.3929,,792.8008,75,30,793.7963,793.7963,793.7986,,,,0,11,11,11,1,90,15,,,,,,,,
,,5e3af1046218720332ff9cea,65af5423cf3d8856f5c0ca23,2024-01-23_08h00.31.966,bars,2023.2.3,Win32,49.01960784,657b66ea316d21385b68909f,,,,,,,,,,,793.7997,794.7957,,,795.2963,795.5465,,70,70,,,,,,,,,,,,,,,,bars/011.png,bars/mask000.png,,,,,,,,,,,,3,2,,,,,,,8,6,8,5,,,,,,,,,,,794.7957,795.2962,795.5465,798.5252,space,2.9569,,798.5253,90,15,799.5257,799.5258,799.5444,,,,0,12,12,12,1,160,85,,,,,,,,
,,5e3af1046218720332ff9cea,65af5423cf3d8856f5c0ca23,2024-01-23_08h00.31.966,bars,2023.2.3,Win32,49.01960784,657b66ea316d21385b68909f,,,,,,,,,,,799.5448,800.5464,,,801.0465,801.2965,,136,136,,,,,,,,,,,,,,,,bars/002.png,bars/mask006.png,,,,,,,,,,,,4,1,,,,,,,6,4,5,4,,,,,,,,,,,800.5465,801.0465,801.2966,802.6712,space,1.3535,,802.6713,6,51,803.671,803.6711,803.6931,,,,0,13,13,13,1,130,85,,,,,,,,
,,5e3af1046218720332ff9cea,65af5423cf3d8856f5c0ca23,2024-01-23_08h00.31.966,bars,2023.2.3,Win32,49.01960784,657b66ea316d21385b68909f,,,,,,,,,,,803.6933,804.6922,,,805.1926,805.4418,,65,65,,,,,,,,,,,,,,,,bars/045.png,bars/mask004.png,,,,,,,,,,,,0,1,,,,,,,8,6,7,5,,,,,,,,,,,804.6923,805.1926,805.4419,807.025,space,1.5638,,807.0251,35,55,808.0253,808.0253,808.0265,,,,0,14,14,14,1,100,10,,,,,,,,
,,5e3af1046218720332ff9cea,65af5423cf3d8856f5c0ca23,2024-01-23_08h00.31.966,bars,2023.2.3,Win32,49.01960784,657b66ea316d21385b68909f,,,,,,,,,,,808.027,809.026,,,809.5256,809.775,,157,157,,,,,,,,,,,,,,,,bars/041.png,bars/mask008.png,,,,,,,,,,,,0,1,,,,,,,6,8,6,9,,,,,,,,,,,809.026,809.5256,809.775,811.2125,space,1.4233,,811.2126,43,72,812.2107,812.2107,812.2117,,,,0,15,15,15,1,20,85,,,,,,,,
,,5e3af1046218720332ff9cea,65af5423cf3d8856f5c0ca23,2024-01-23_08h00.31.966,bars,2023.2.3,Win32,49.01960784,657b66ea316d21385b68909f,,,,,,,,,,,812.2119,813.2125,,,813.7111,813.9612,,146,146,,,,,,,,,,,,,,,,bars/038.png,bars/mask006.png,,,,,,,,,,,,3,1,,,,,,,8,10,9,10,,,,,,,,,,,813.2126,813.711,813.9613,816.0467,space,2.051,,816.0468,19,76,817.046,817.0461,817.0474,,,,0,16,16,16,1,165,70,,,,,,,,
,,5e3af1046218720332ff9cea,65af5423cf3d8856f5c0ca23,2024-01-23_08h00.31.966,bars,2023.2.3,Win32,49.01960784,657b66ea316d21385b68909f,,,,,,,,,,,817.0481,818.0461,,,818.5461,818.7963,,137,137,,,,,,,,,,,,,,,,bars/012.png,bars/mask001.png,,,,,,,,,,,,0,1,,,,,,,6,10,5,8,,,,,,,,,,,818.0461,818.5461,818.7964,820.5678,space,1.7512,,820.5678,47,58,821.5672,821.5673,821.5882,,,,0,17,17,17,1,90,15,,,,,,,,
,,5e3af1046218720332ff9cea,65af5423cf3d8856f5c0ca23,2024-01-23_08h00.31.966,bars,2023.2.3,Win32,49.01960784,657b66ea316d21385b68909f,,,,,,,,,,,821.5883,822.5881,,,823.0883,823.3379,,25,205,,,,,,,,,,,,,,,,bars/015.png,bars/mask009.png,,,,,,,,,,,,0,2,,,,,,,4,10,4,10,,,,,,,,,,,822.5881,823.0883,823.3379,826.9218,space,3.5738,,826.9219,85,45,827.9214,827.9217,827.9472,,,,0,18,18,18,1,110,160,,,,,,,,
,,5e3af1046218720332ff9cea,65af5423cf3d8856f5c0ca23,2024-01-23_08h00.31.966,bars,2023.2.3,Win32,49.01960784,657b66ea316d21385b68909f,,,,,,,,,,,827.9476,828.9408,,,829.4412,829.6927,,142,142,,,,,,,,,,,,,,,,bars/004.png,bars/mask007.png,,,,,,,,,,,,3,2,,,,,,,6,8,6,8,,,,,,,,,,,828.9408,829.4412,829.6928,830.3802,space,0.6688,,830.3803,63,17,831.3785,831.3786,831.3792,,,,0,19,19,19,1,25,125,,,,,,,,
,,5e3af1046218720332ff9cea,65af5423cf3d8856f5c0ca23,2024-01-23_08h00.31.966,bars,2023.2.3,Win32,49.01960784,657b66ea316d21385b68909f,,,,,,,,,,,831.3795,832.38,,,832.8802,833.1287,,18,198,,,,,,,,,,,,,,,,bars/032.png,bars/mask002.png,,,,,,,,,,,,6,2,,,,,,,4,6,4,6,,,,,,,,,,,832.38,832.8801,833.1287,836.0051,space,2.8492,,836.0052,73,2,837.005,837.005,837.0296,,,,0,20,20,20,1,125,20,,,,,,,,
,,5e3af1046218720332ff9cea,65af5423cf3d8856f5c0ca23,2024-01-23_08h00.31.966,bars,2023.2.3,Win32,49.01960784,657b66ea316d21385b68909f,,,,,,,,,,,837.0299,838.0257,,,838.5241,838.7749,,37,37,,,,,,,,,,,,,,,,bars/045.png,bars/mask009.png,,,,,,,,,,,,1,2,,,,,,,2,8,3,8,,,,,,,,,,,838.0258,838.524,838.775,841.7548,space,2.9609,,841.7549,63,27,842.7548,842.7549,842.7769,,,,0,21,21,21,1,100,10,,,,,,,,
,,5e3af1046218720332ff9cea,65af5423cf3d8856f5c0ca23,2024-01-23_08h00.31.966,bars,2023.2.3,Win32,49.01960784,657b66ea316d21385b68909f,,,,,,,,,,,842.7772,843.7752,,,844.2753,844.5259,,63,63,,,,,,,,,,,,,,,,bars/007.png,bars/mask000.png,,,,,,,,,,,,6,2,,,,,,,4,6,5,8,,,,,,,,,,,843.7753,844.2753,844.5259,847.2134,space,2.6665,,847.2135,68,8,848.2134,848.2134,848.2374,,,,0,22,22,22,1,175,55,,,,,,,,
,,5e3af1046218720332ff9cea,65af5423cf3d8856f5c0ca23,2024-01-23_08h00.31.966,bars,2023.2.3,Win32,49.01960784,657b66ea316d21385b68909f,,,,,,,,,,,848.2378,849.2337,,,849.7334,849.983,,30,30,,,,,,,,,,,,,,,,bars/023.png,bars/mask001.png,,,,,,,,,,,,3,1,,,,,,,6,8,4,9,,,,,,,,,,,849.2337,849.7334,849.983,852.6507,space,2.6382,,852.6507,10,85,853.6489,853.6491,853.6612,,,,0,23,23,23,1,20,115,,,,,,,,
,,5e3af1046218720332ff9cea,65af5423cf3d8856f5c0ca23,2024-01-23_08h00.31.966,bars,2023.2.3,Win32,49.01960784,657b66ea316d21385b68909f,,,,,,,,,,,853.6615,854.6504,,,855.1503,855.401,,66,66,,,,,,,,,,,,,,,,bars/025.png,bars/mask001.png,,,,,,,,,,,,1,2,,,,,,,8,6,8,8,,,,,,,,,,,854.6504,855.1503,855.4011,858.0039,space,2.5836,,858.004,39,26,859.0033,859.0033,859.0102,,,,0,24,24,24,1,105,40,,,,,,,,
,,5e3af1046218720332ff9cea,65af5423cf3d8856f5c0ca23,2024-01-23_08h00.31.966,bars,2023.2.3,Win32,49.01960784,657b66ea316d21385b68909f,,,,,,,,,,,859.0103,860.0038,,,860.5039,860.7546,,43,43,,,,,,,,,,,,,,,,bars/035.png,bars/mask000.png,,,,,,,,,,,,3,2,,,,,,,6,8,7,8,,,,,,,,,,,860.0038,860.5039,860.7546,862.864,space,2.1025,,862.864,48,17,863.8589,863.8589,863.8795,,,,0,25,25,25,1,175,60,,,,,,,,
,,5e3af1046218720332ff9cea,65af5423cf3d8856f5c0ca23,2024-01-23_08h00.31.966,bars,2023.2.3,Win32,49.01960784,657b66ea316d21385b68909f,,,,,,,,,,,863.8796,864.8795,,,865.38,865.6296,,45,45,,,,,,,,,,,,,,,,bars/012.png,bars/mask001.png,,,,,,,,,,,,0,2,,,,,,,4,6,5,5,,,,,,,,,,,864.8796,865.3799,865.6297,868.0257,space,2.3771,,868.0258,45,30,869.0252,869.0252,869.0268,,,,0,26,26,26,1,90,15,,,,,,,,
,,5e3af1046218720332ff9cea,65af5423cf3d8856f5c0ca23,2024-01-23_08h00.31.966,bars,2023.2.3,Win32,49.01960784,657b66ea316d21385b68909f,,,,,,,,,,,869.0274,870.0233,,,870.5232,870.7783,,58,58,,,,,,,,,,,,,,,,bars/017.png,bars/mask007.png,,,,,,,,,,,,2,2,,,,,,,6,4,6,3,,,,,,,,,,,870.0233,870.5232,870.7783,873.4421,space,2.6332,,873.4422,87,13,874.441,874.441,874.4531,,,,0,27,27,27,1,145,45,,,,,,,,
,,5e3af1046218720332ff9cea,65af5423cf3d8856f5c0ca23,2024-01-23_08h00.31.966,bars,2023.2.3,Win32,49.01960784,657b66ea316d21385b68909f,,,,,,,,,,,874.4534,875.442,,,875.9425,876.1908,,125,125,,,,,,,,,,,,,,,,bars/001.png,bars/mask005.png,,,,,,,,,,,,5,1,,,,,,,8,2,6,2,,,,,,,,,,,875.442,875.9424,876.1908,879.3387,space,3.1301,,879.3387,5,40,880.3369,880.3369,880.3472,,,,0,28,28,28,1,130,85,,,,,,,,
,,5e3af1046218720332ff9cea,65af5423cf3d8856f5c0ca23,2024-01-23_08h00.31.966,bars,2023.2.3,Win32,49.01960784,657b66ea316d21385b68909f,,,,,,,,,,,880.3474,881.3382,,,881.8388,882.0879,,166,166,,,,,,,,,,,,,,,,bars/015.png,bars/mask004.png,,,,,,,,,,,,0,2,,,,,,,6,0,7,0,,,,,,,,,,,881.3382,881.8386,882.0879,894.4222,space,12.2968,,894.4223,56,6,895.4217,895.4217,895.4491,,,,0,29,29,29,1,110,160,,,,,,,,
,,5e3af1046218720332ff9cea,65af5423cf3d8856f5c0ca23,2024-01-23_08h00.31.966,bars,2023.2.3,Win32,49.01960784,657b66ea316d21385b68909f,,,,,,,,,,,895.4494,896.4426,,,896.9424,897.1923,,39,39,,,,,,,,,,,,,,,,bars/004.png,bars/mask009.png,,,,,,,,,,,,5,1,,,,,,,8,0,9,0,,,,,,,,,,,896.4427,896.9423,897.1924,898.8165,space,1.6045,,898.8165,14,86,899.8164,899.8164,899.8297,,,,0,30,30,30,1,25,125,,,,,,,,
,,5e3af1046218720332ff9cea,65af5423cf3d8856f5c0ca23,2024-01-23_08h00.31.966,bars,2023.2.3,Win32,49.01960784,657b66ea316d21385b68909f,,,,,,,,,,,899.8299,900.8167,,,901.3174,901.5673,,132,132,,,,,,,,,,,,,,,,bars/043.png,bars/mask003.png,,,,,,,,,,,,2,2,,,,,,,10,0,10,2,,,,,,,,,,,900.8167,901.3174,901.5674,906.4424,space,4.8418,,906.4424,78,2,907.4424,907.4425,907.4669,,,,0,31,31,31,1,30,130,,,,,,,,
,,5e3af1046218720332ff9cea,65af5423cf3d8856f5c0ca23,2024-01-23_08h00.31.966,bars,2023.2.3,Win32,49.01960784,657b66ea316d21385b68909f,,,,,,,,,,,907.4672,908.4632,,,908.9632,909.2133,,148,148,,,,,,,,,,,,,,,,bars/044.png,bars/mask002.png,,,,,,,,,,,,0,2,,,,,,,10,0,9,0,,,,,,,,,,,908.4632,908.9631,909.2135,912.5034,space,3.2812,,912.5035,73,7,913.5052,913.5052,913.528,,,,0,32,32,32,1,75,155,,,,,,,,
,,5e3af1046218720332ff9cea,65af5423cf3d8856f5c0ca23,2024-01-23_08h00.31.966,bars,2023.2.3,Win32,49.01960784,657b66ea316d21385b68909f,,,,,,,,,,,913.5282,914.5252,,,915.0259,915.2757,,153,153,,,,,,,,,,,,,,,,bars/020.png,bars/mask000.png,,,,,,,,,,,,0,2,,,,,,,10,0,10,1,,,,,,,,,,,914.5252,915.0259,915.2757,917.6924,space,2.4039,,917.6925,38,17,918.6908,918.6909,918.702,,,,0,33,33,33,1,115,170,,,,,,,,
,,5e3af1046218720332ff9cea,65af5423cf3d8856f5c0ca23,2024-01-23_08h00.31.966,bars,2023.2.3,Win32,49.01960784,657b66ea316d21385b68909f,,,,,,,,,,,918.7022,919.6931,,,920.1928,920.4421,,150,150,,,,,,,,,,,,,,,,bars/000.png,bars/mask005.png,,,,,,,,,,,,2,2,,,,,,,8,2,9,2,,,,,,,,,,,919.6932,920.1926,920.4421,923.0056,space,2.5464,,923.0057,70,5,924.0043,924.0043,924.0181,,,,0,34,34,34,1,40,145,,,,,,,,
,,5e3af1046218720332ff9cea,65af5423cf3d8856f5c0ca23,2024-01-23_08h00.31.966,bars,2023.2.3,Win32,49.01960784,657b66ea316d21385b68909f,,,,,,,,,,,924.0184,925.0053,,,925.5052,925.7554,,153,153,,,,,,,,,,,,,,,,bars/045.png,bars/mask002.png,,,,,,,,,,,,0,2,,,,,,,10,4,10,5,,,,,,,,,,,925.0053,925.5051,925.7555,928.8181,space,3.0435,,928.8181,53,37,929.8216,929.8218,929.8433,,,,0,35,35,35,1,100,10,,,,,,,,
,,5e3af1046218720332ff9cea,65af5423cf3d8856f5c0ca23,2024-01-23_08h00.31.966,bars,2023.2.3,Win32,49.01960784,657b66ea316d21385b68909f,,,,,,,,,,,929.8436,930.8383,,,931.3383,931.5889,,62,62,,,,,,,,,,,,,,,,bars/011.png,bars/mask004.png,,,,,,,,,,,,1,2,,,,,,,8,6,7,5,,,,,,,,,,,930.8384,931.3382,931.589,933.4865,space,1.8908,,933.4865,82,23,934.484,934.4841,934.5061,,,,0,36,36,36,1,160,85,,,,,,,,
,,5e3af1046218720332ff9cea,65af5423cf3d8856f5c0ca23,2024-01-23_08h00.31.966,bars,2023.2.3,Win32,49.01960784,657b66ea316d21385b68909f,,,,,,,,,,,934.5063,935.5035,,,936.005,936.2537,,72,72,,,,,,,,,,,,,,,,bars/034.png,bars/mask006.png,,,,,,,,,,,,7,2,,,,,,,6,8,7,9,,,,,,,,,,,935.5035,936.0049,936.2538,937.026,space,0.7586,,937.0261,53,7,938.0259,938.026,938.0275,,,,0,37,37,37,1,125,65,,,,,,,,
,,5e3af1046218720332ff9cea,65af5423cf3d8856f5c0ca23,2024-01-23_08h00.31.966,bars,2023.2.3,Win32,49.01960784,657b66ea316d21385b68909f,,,,,,,,,,,938.0281,939.0246,,,939.5259,939.7759,,76,76,,,,,,,,,,,,,,,,bars/025.png,bars/mask000.png,,,,,,,,,,,,0,1,,,,,,,8,6,8,7,,,,,,,,,,,939.0246,939.5258,939.776,940.4221,space,0.6285,,940.4222,29,36,941.4259,941.4259,941.43,,,,0,38,38,38,1,105,40,,,,,,,,
,,5e3af1046218720332ff9cea,65af5423cf3d8856f5c0ca23,2024-01-23_08h00.31.966,bars,2023.2.3,Win32,49.01960784,657b66ea316d21385b68909f,,,,,,,,,,,941.4307,942.422,,,942.9218,943.172,,156,156,,,,,,,,,,,,,,,,bars/012.png,bars/mask005.png,,,,,,,,,,,,0,2,,,,,,,10,4,9,3,,,,,,,,,,,942.4221,942.9218,943.1721,947.7135,space,4.5322,,947.7137,66,39,948.7128,948.7128,948.7279,,,,0,39,39,39,1,90,15,,,,,,,,
,,5e3af1046218720332ff9cea,65af5423cf3d8856f5c0ca23,2024-01-23_08h00.31.966,bars,2023.2.3,Win32,49.01960784,657b66ea316d21385b68909f,,,,,,,,,,,948.7281,949.7135,,,950.2141,950.4634,,45,45,,,,,,,,,,,,,,,,bars/038.png,bars/mask002.png,,,,,,,,,,,,0,2,,,,,,,10,2,10,3,,,,,,,,,,,949.7136,950.214,950.4634,952.406,space,1.9357,,952.4061,60,25,953.401,953.4011,953.4031,,,,0,40,40,40,1,165,70,,,,,,,,
,,5e3af1046218720332ff9cea,65af5423cf3d8856f5c0ca23,2024-01-23_08h00.31.966,bars,2023.2.3,Win32,49.01960784,657b66ea316d21385b68909f,,,,,,,,,,,953.4041,954.3992,,,954.9011,955.1509,,139,139,,,,,,,,,,,,,,,,bars/028.png,bars/mask003.png,,,,,,,,,,,,0,2,,,,,,,10,0,10,0,,,,,,,,,,,954.3992,954.9011,955.1509,957.5102,space,2.3507,,957.5103,86,19,958.505,958.505,958.5268,,,,0,41,41,41,1,45,120,,,,,,,,
,,5e3af1046218720332ff9cea,65af5423cf3d8856f5c0ca23,2024-01-23_08h00.31.966,bars,2023.2.3,Win32,49.01960784,657b66ea316d21385b68909f,,,,,,,,,,,958.527,959.5249,,,960.0265,960.2766,,20,20,,,,,,,,,,,,,,,,bars/014.png,bars/mask004.png,,,,,,,,,,,,1,2,,,,,,,10,2,10,2,,,,,,,,,,,959.5249,960.0263,960.2767,962.3184,space,2.0216,,962.3186,60,20,963.3177,963.3177,963.341,,,,0,42,42,42,1,80,0,,,,,,,,
,,5e3af1046218720332ff9cea,65af5423cf3d8856f5c0ca23,2024-01-23_08h00.31.966,bars,2023.2.3,Win32,49.01960784,657b66ea316d21385b68909f,,,,,,,,,,,963.3413,964.3393,,,964.8385,965.0918,,44,44,,,,,,,,,,,,,,,,bars/017.png,bars/mask008.png,,,,,,,,,,,,0,2,,,,,,,8,0,8,0,,,,,,,,,,,964.3394,964.8385,965.092,966.865,space,1.7519,,966.8652,79,1,967.8633,967.8633,967.8647,,,,0,43,43,43,1,145,45,,,,,,,,
,,5e3af1046218720332ff9cea,65af5423cf3d8856f5c0ca23,2024-01-23_08h00.31.966,bars,2023.2.3,Win32,49.01960784,657b66ea316d21385b68909f,,,,,,,,,,,967.8654,968.8595,,,969.3635,969.6091,,49,49,,,,,,,,,,,,,,,,bars/031.png,bars/mask008.png,,,,,,,,,,,,0,2,,,,,,,6,0,6,0,,,,,,,,,,,968.8595,969.3634,969.6093,974.7556,space,5.1319,,974.7556,71,14,975.7551,975.7551,975.7791,,,,0,44,44,44,1,120,35,,,,,,,,
,,5e3af1046218720332ff9cea,65af5423cf3d8856f5c0ca23,2024-01-23_08h00.31.966,bars,2023.2.3,Win32,49.01960784,657b66ea316d21385b68909f,,,,,,,,,,,975.7793,976.7796,,,977.2762,977.5301,,151,151,,,,,,,,,,,,,,,,bars/032.png,bars/mask001.png,,,,,,,,,,,,1,1,,,,,,,4,0,4,0,,,,,,,,,,,976.7797,977.2761,977.5301,981.7337,space,4.179,,981.7337,26,49,982.7342,982.7342,982.7587,,,,0,45,45,45,1,125,20,,,,,,,,
,,5e3af1046218720332ff9cea,65af5423cf3d8856f5c0ca23,2024-01-23_08h00.31.966,bars,2023.2.3,Win32,49.01960784,657b66ea316d21385b68909f,,,,,,,,,,,982.7589,983.7531,,,984.2554,984.5055,,25,25,,,,,,,,,,,,,,,,bars/040.png,bars/mask000.png,,,,,,,,,,,,1,2,,,,,,,6,2,4,2,,,,,,,,,,,983.7531,984.2553,984.5056,989.5459,space,5.0178,,989.5459,65,20,990.5471,990.5472,990.5736,,,,0,46,46,46,1,140,5,,,,,,,,
,,5e3af1046218720332ff9cea,65af5423cf3d8856f5c0ca23,2024-01-23_08h00.31.966,bars,2023.2.3,Win32,49.01960784,657b66ea316d21385b68909f,,,,,,,,,,,990.5738,991.568,,,992.0679,992.3178,,49,49,,,,,,,,,,,,,,,,bars/027.png,bars/mask008.png,,,,,,,,,,,,4,2,,,,,,,4,4,4,4,,,,,,,,,,,991.568,992.0678,992.3179,994.5042,space,2.1637,,994.5043,61,1,995.5045,995.5046,995.5162,,,,0,47,47,47,1,110,50,,,,,,,,
,,5e3af1046218720332ff9cea,65af5423cf3d8856f5c0ca23,2024-01-23_08h00.31.966,bars,2023.2.3,Win32,49.01960784,657b66ea316d21385b68909f,,,,,,,,,,,995.5164,996.5038,,,997.004,997.2543,,50,50,,,,,,,,,,,,,,,,bars/031.png,bars/mask001.png,,,,,,,,,,,,3,2,,,,,,,6,6,7,5,,,,,,,,,,,996.5039,997.004,997.2544,1000.3584,space,3.0886,,1000.3585,70,15,1001.3632,1001.3633,1001.3877,,,,0,48,48,48,1,120,35,,,,,,,,
,,5e3af1046218720332ff9cea,65af5423cf3d8856f5c0ca23,2024-01-23_08h00.31.966,bars,2023.2.3,Win32,49.01960784,657b66ea316d21385b68909f,,,,,,,,,,,1001.3878,1002.3795,,,1002.8804,1003.1298,,154,154,,,,,,,,,,,,,,,,bars/016.png,bars/mask000.png,,,,,,,,,,,,5,2,,,,,,,8,8,9,8,,,,,,,,,,,1002.3796,1002.8804,1003.13,1008.0062,space,4.8564,,1008.0063,66,11,1009.0037,1009.0038,1009.0154,,,,0,49,49,49,1,40,165,,,,,,,,
,,5e3af1046218720332ff9cea,65af5423cf3d8856f5c0ca23,2024-01-23_08h00.31.966,bars,2023.2.3,Win32,49.01960784,657b66ea316d21385b68909f,,,,,,,,,,,,,,,,,,,,,,,,,,,,,,,,,,,,,,,,,,,,,,,,,,,,,,,,,,,,,,,,,,,,,,,,,,,,,,,,,,,,,,,,,,,,,1009.0154,1069.0031,0,1,1,1,1,sequence_tables/blk034.csv
,,5e3af1046218720332ff9cea,65af5423cf3d8856f5c0ca23,2024-01-23_08h00.31.966,bars,2023.2.3,Win32,49.01960784,657b66ea316d21385b68909f,,,,,,,,,,,1079.3127,1080.3013,,,1080.7952,1081.0462,,27,27,,,,,,,,,,,,,,,,bars/004.png,bars/mask007.png,,,,,,,,,,,,1,1,,,,,,,1,9,1,7,,,,,,1069.0115,1079.2965,space,10.2617,,1080.3014,1080.7951,1081.0462,1082.9019,space,1.8385,,1082.902,2,82,1083.9014,1083.9014,1083.9231,,,,0,0,0,0,1,25,125,,,,,,,,
,,5e3af1046218720332ff9cea,65af5423cf3d8856f5c0ca23,2024-01-23_08h00.31.966,bars,2023.2.3,Win32,49.01960784,657b66ea316d21385b68909f,,,,,,,,,,,1083.9233,1084.9223,,,1085.421,1085.6723,,158,158,,,,,,,,,,,,,,,,bars/008.png,bars/mask004.png,,,,,,,,,,,,2,2,,,,,,,3,7,5,6,,,,,,,,,,,1084.9224,1085.421,1085.6724,1091.6097,space,5.9062,,1091.6097,48,22,1092.6085,1092.6086,1092.6296,,,,0,1,1,1,1,110,0,,,,,,,,
,,5e3af1046218720332ff9cea,65af5423cf3d8856f5c0ca23,2024-01-23_08h00.31.966,bars,2023.2.3,Win32,49.01960784,657b66ea316d21385b68909f,,,,,,,,,,,1092.6299,1093.6307,,,1094.1308,1094.3803,,25,25,,,,,,,,,,,,,,,,bars/032.png,bars/mask001.png,,,,,,,,,,,,8,2,,,,,,,5,9,4,9,,,,,,,,,,,1093.6308,1094.1307,1094.3805,1096.5892,space,2.1882,,1096.5892,80,5,1097.5892,1097.5892,1097.6095,,,,0,2,2,2,1,125,20,,,,,,,,
,,5e3af1046218720332ff9cea,65af5423cf3d8856f5c0ca23,2024-01-23_08h00.31.966,bars,2023.2.3,Win32,49.01960784,657b66ea316d21385b68909f,,,,,,,,,,,1097.6096,1098.6095,,,1099.1099,1099.358,,42,42,,,,,,,,,,,,,,,,bars/036.png,bars/mask007.png,,,,,,,,,,,,3,2,,,,,,,3,7,5,10,,,,,,,,,,,1098.6095,1099.1099,1099.358,1101.506,space,2.1102,,1101.5061,77,22,1102.5058,1102.5058,1102.5284,,,,0,3,3,3,1,145,20,,,,,,,,
,,5e3af1046218720332ff9cea,65af5423cf3d8856f5c0ca23,2024-01-23_08h00.31.966,bars,2023.2.3,Win32,49.01960784,657b66ea316d21385b68909f,,,,,,,,,,,1102.5288,1103.5267,,,1104.026,1104.2761,,46,46,,,,,,,,,,,,,,,,bars/034.png,bars/mask007.png,,,,,,,,,,,,1,2,,,,,,,1,5,1,4,,,,,,,,,,,1103.5267,1104.026,1104.2761,1104.9639,space,0.6673,,1104.9639,79,19,1105.9639,1105.9639,1105.9656,,,,0,4,4,4,1,125,65,,,,,,,,
,,5e3af1046218720332ff9cea,65af5423cf3d8856f5c0ca23,2024-01-23_08h00.31.966,bars,2023.2.3,Win32,49.01960784,657b66ea316d21385b68909f,,,,,,,,,,,1105.9663,1106.9643,,,1107.4645,1107.7181,,65,65,,,,,,,,,,,,,,,,bars/023.png,bars/mask000.png,,,,,,,,,,,,0,1,,,,,,,3,3,5,1,,,,,,,,,,,1106.9643,1107.4645,1107.7181,1108.4221,space,0.6806,,1108.4221,45,50,1109.4223,1109.4224,1109.427,,,,0,5,5,5,1,20,115,,,,,,,,
,,5e3af1046218720332ff9cea,65af5423cf3d8856f5c0ca23,2024-01-23_08h00.31.966,bars,2023.2.3,Win32,49.01960784,657b66ea316d21385b68909f,,,,,,,,,,,1109.4277,1110.4225,,,1110.9227,1111.1721,,140,140,,,,,,,,,,,,,,,,bars/001.png,bars/mask002.png,,,,,,,,,,,,5,1,,,,,,,5,1,7,2,,,,,,,,,,,1110.4225,1110.9227,1111.1721,1115.8787,space,4.674,,1115.8788,10,55,1116.8804,1116.8804,1116.9046,,,,0,6,6,6,1,130,85,,,,,,,,
,,5e3af1046218720332ff9cea,65af5423cf3d8856f5c0ca23,2024-01-23_08h00.31.966,bars,2023.2.3,Win32,49.01960784,657b66ea316d21385b68909f,,,,,,,,,,,1116.9049,1117.8997,,,1118.4018,1118.6497,,145,145,,,,,,,,,,,,,,,,bars/003.png,bars/mask004.png,,,,,,,,,,,,3,2,,,,,,,3,3,3,3,,,,,,,,,,,1117.8998,1118.4017,1118.6498,1121.5891,space,2.9232,,1121.5891,60,5,1122.5889,1122.589,1122.6106,,,,0,7,7,7,1,25,140,,,,,,,,
,,5e3af1046218720332ff9cea,65af5423cf3d8856f5c0ca23,2024-01-23_08h00.31.966,bars,2023.2.3,Win32,49.01960784,657b66ea316d21385b68909f,,,,,,,,,,,1122.6107,1123.6096,,,1124.11,1124.36,,59,59,,,,,,,,,,,,,,,,bars/007.png,bars/mask008.png,,,,,,,,,,,,1,2,,,,,,,5,1,3,1,,,,,,,,,,,1123.6096,1124.1099,1124.3601,1127.0892,space,2.7,,1127.0892,64,4,1128.0892,1128.0893,1128.1086,,,,0,8,8,8,1,175,55,,,,,,,,
,,5e3af1046218720332ff9cea,65af5423cf3d8856f5c0ca23,2024-01-23_08h00.31.966,bars,2023.2.3,Win32,49.01960784,657b66ea316d21385b68909f,,,,,,,,,,,1128.109,1129.1094,,,1129.6102,1129.8597,,152,152,,,,,,,,,,,,,,,,bars/020.png,bars/mask001.png,,,,,,,,,,,,2,2,,,,,,,3,3,2,5,,,,,,,,,,,1129.1095,1129.61,1129.8598,1131.61,space,1.7333,,1131.6101,37,18,1132.6097,1132.6098,1132.6298,,,,0,9,9,9,1,115,170,,,,,,,,
,,5e3af1046218720332ff9cea,65af5423cf3d8856f5c0ca23,2024-01-23_08h00.31.966,bars,2023.2.3,Win32,49.01960784,657b66ea316d21385b68909f,,,,,,,,,,,1132.6301,1133.6307,,,1134.1307,1134.3809,,158,158,,,,,,,,,,,,,,,,bars/005.png,bars/mask004.png,,,,,,,,,,,,0,2,,,,,,,1,1,0,0,,,,,,,,,,,1133.6308,1134.1306,1134.3809,1135.0481,space,0.6475,,1135.0481,32,18,1136.0476,1136.0476,1136.0492,,,,0,10,10,10,1,10,140,,,,,,,,
,,5e3af1046218720332ff9cea,65af5423cf3d8856f5c0ca23,2024-01-23_08h00.31.966,bars,2023.2.3,Win32,49.01960784,657b66ea316d21385b68909f,,,,,,,,,,,1136.0498,1137.0473,,,1137.5474,1137.7972,,55,55,,,,,,,,,,,,,,,,bars/000.png,bars/mask003.png,,,,,,,,,,,,2,1,,,,,,,3,0,3,0,,,,,,,,,,,1137.0474,1137.5473,1137.7973,1138.2337,space,0.4076,,1138.2337,15,90,1139.235,1139.2351,1139.2379,,,,0,11,11,11,1,40,145,,,,,,,,
,,5e3af1046218720332ff9cea,65af5423cf3d8856f5c0ca23,2024-01-23_08h00.31.966,bars,2023.2.3,Win32,49.01960784,657b66ea316d21385b68909f,,,,,,,,,,,1139.2384,1140.2344,,,1140.7353,1140.9853,,50,50,,,,,,,,,,,,,,,,bars/007.png,bars/mask009.png,,,,,,,,,,,,0,2,,,,,,,5,0,6,0,,,,,,,,,,,1140.2345,1140.7353,1140.9854,1143.6726,space,2.6663,,1143.6727,55,5,1144.6723,1144.6723,1144.6982,,,,0,12,12,12,1,175,55,,,,,,,,
,,5e3af1046218720332ff9cea,65af5423cf3d8856f5c0ca23,2024-01-23_08h00.31.966,bars,2023.2.3,Win32,49.01960784,657b66ea316d21385b68909f,,,,,,,,,,,1144.6983,1145.6936,,,1146.1934,1146.4434,,154,154,,,,,,,,,,,,,,,,bars/048.png,bars/mask009.png,,,,,,,,,,,,1,2,,,,,,,7,2,7,2,,,,,,,,,,,1145.6936,1146.1933,1146.4434,1148.4005,space,1.9354,,1148.4005,76,21,1149.4018,1149.402,1149.4036,,,,0,13,13,13,1,50,175,,,,,,,,
,,5e3af1046218720332ff9cea,65af5423cf3d8856f5c0ca23,2024-01-23_08h00.31.966,bars,2023.2.3,Win32,49.01960784,657b66ea316d21385b68909f,,,,,,,,,,,1149.4043,1150.4009,,,1150.9024,1151.1518,,57,57,,,,,,,,,,,,,,,,bars/001.png,bars/mask004.png,,,,,,,,,,,,0,2,,,,,,,5,4,6,5,,,,,,,,,,,1150.4009,1150.9022,1151.1519,1153.1711,space,1.992,,1153.1711,73,28,1154.1723,1154.1724,1154.1968,,,,0,14,14,14,1,130,85,,,,,,,,
,,5e3af1046218720332ff9cea,65af5423cf3d8856f5c0ca23,2024-01-23_08h00.31.966,bars,2023.2.3,Win32,49.01960784,657b66ea316d21385b68909f,,,,,,,,,,,1154.1971,1155.1934,,,1155.6931,1155.944,,54,54,,,,,,,,,,,,,,,,bars/014.png,bars/mask002.png,,,,,,,,,,,,0,1,,,,,,,3,2,3,1,,,,,,,,,,,1155.1936,1155.6931,1155.944,1159.6922,space,3.7316,,1159.6922,26,54,1160.6933,1160.6933,1160.7127,,,,0,15,15,15,1,80,0,,,,,,,,
,,5e3af1046218720332ff9cea,65af5423cf3d8856f5c0ca23,2024-01-23_08h00.31.966,bars,2023.2.3,Win32,49.01960784,657b66ea316d21385b68909f,,,,,,,,,,,1160.713,1161.7146,,,1162.2143,1162.4643,,125,125,,,,,,,,,,,,,,,,bars/027.png,bars/mask000.png,,,,,,,,,,,,2,1,,,,,,,1,0,3,0,,,,,,,,,,,1161.7147,1162.2142,1162.4643,1165.7331,space,3.2608,,1165.7331,15,75,1166.7347,1166.7348,1166.7547,,,,0,16,16,16,1,110,50,,,,,,,,
,,5e3af1046218720332ff9cea,65af5423cf3d8856f5c0ca23,2024-01-23_08h00.31.966,bars,2023.2.3,Win32,49.01960784,657b66ea316d21385b68909f,,,,,,,,,,,1166.755,1167.7584,,,1168.2536,1168.5044,,54,54,,,,,,,,,,,,,,,,bars/006.png,bars/mask006.png,,,,,,,,,,,,0,1,,,,,,,0,2,0,1,,,,,,,,,,,1167.7584,1168.2536,1168.5044,1170.233,space,1.7196,,1170.2331,19,46,1171.2343,1171.2345,1171.2361,,,,0,17,17,17,1,35,100,,,,,,,,
,,5e3af1046218720332ff9cea,65af5423cf3d8856f5c0ca23,2024-01-23_08h00.31.966,bars,2023.2.3,Win32,49.01960784,657b66ea316d21385b68909f,,,,,,,,,,,1171.2367,1172.2353,,,1172.7339,1172.9839,,146,146,,,,,,,,,,,,,,,,bars/011.png,bars/mask006.png,,,,,,,,,,,,1,1,,,,,,,2,4,2,5,,,,,,,,,,,1172.2354,1172.7339,1172.9839,1177.6727,space,4.6721,,1177.6728,14,61,1178.6704,1178.6704,1178.6784,,,,0,18,18,18,1,160,85,,,,,,,,
,,5e3af1046218720332ff9cea,65af5423cf3d8856f5c0ca23,2024-01-23_08h00.31.966,bars,2023.2.3,Win32,49.01960784,657b66ea316d21385b68909f,,,,,,,,,,,1178.6786,1179.6726,,,1180.1726,1180.4223,,41,41,,,,,,,,,,,,,,,,bars/026.png,bars/mask001.png,,,,,,,,,,,,0,1,,,,,,,0,2,0,2,,,,,,,,,,,1179.6727,1180.1726,1180.4223,1184.5272,space,4.0886,,1184.5273,6,44,1185.5265,1185.5266,1185.5493,,,,0,19,19,19,1,35,85,,,,,,,,
,,5e3af1046218720332ff9cea,65af5423cf3d8856f5c0ca23,2024-01-23_08h00.31.966,bars,2023.2.3,Win32,49.01960784,657b66ea316d21385b68909f,,,,,,,,,,,1185.5497,1186.5477,,,1187.0474,1187.2976,,54,54,,,,,,,,,,,,,,,,bars/029.png,bars/mask004.png,,,,,,,,,,,,3,2,,,,,,,0,4,0,4,,,,,,,,,,,1186.5477,1187.0473,1187.2976,1189.1102,space,1.7993,,1189.1102,36,9,1190.1102,1190.1102,1190.1361,,,,0,20,20,20,1,90,45,,,,,,,,
,,5e3af1046218720332ff9cea,65af5423cf3d8856f5c0ca23,2024-01-23_08h00.31.966,bars,2023.2.3,Win32,49.01960784,657b66ea316d21385b68909f,,,,,,,,,,,1190.1363,1191.1309,,,1191.6309,1191.8806,,57,57,,,,,,,,,,,,,,,,bars/012.png,bars/mask003.png,,,,,,,,,,,,0,1,,,,,,,0,6,1,7,,,,,,,,,,,1191.1309,1191.6309,1191.8806,1193.5476,space,1.6409,,1193.5477,33,42,1194.5466,1194.5466,1194.5547,,,,0,21,21,21,1,90,15,,,,,,,,
,,5e3af1046218720332ff9cea,65af5423cf3d8856f5c0ca23,2024-01-23_08h00.31.966,bars,2023.2.3,Win32,49.01960784,657b66ea316d21385b68909f,,,,,,,,,,,1194.5549,1195.5479,,,1196.0477,1196.2969,,63,63,,,,,,,,,,,,,,,,bars/019.png,bars/mask004.png,,,,,,,,,,,,0,1,,,,,,,0,4,0,5,,,,,,,,,,,1195.5479,1196.0477,1196.297,1198.7969,space,2.4603,,1198.7969,18,42,1199.8016,1199.8017,1199.8031,,,,0,22,22,22,1,45,105,,,,,,,,
,,5e3af1046218720332ff9cea,65af5423cf3d8856f5c0ca23,2024-01-23_08h00.31.966,bars,2023.2.3,Win32,49.01960784,657b66ea316d21385b68909f,,,,,,,,,,,1199.8038,1200.7978,,,1201.3014,1201.5478,,141,141,,,,,,,,,,,,,,,,bars/000.png,bars/mask002.png,,,,,,,,,,,,5,2,,,,,,,0,6,1,6,,,,,,,,,,,1200.7978,1201.3013,1201.5479,1205.6729,space,4.1061,,1205.673,79,4,1206.6725,1206.6726,1206.6962,,,,0,23,23,23,1,40,145,,,,,,,,
,,5e3af1046218720332ff9cea,65af5423cf3d8856f5c0ca23,2024-01-23_08h00.31.966,bars,2023.2.3,Win32,49.01960784,657b66ea316d21385b68909f,,,,,,,,,,,1206.6965,1207.6937,,,1208.194,1208.4424,,41,41,,,,,,,,,,,,,,,,bars/005.png,bars/mask008.png,,,,,,,,,,,,0,1,,,,,,,0,4,1,6,,,,,,,,,,,1207.6938,1208.1939,1208.4424,1211.0484,space,2.5921,,1211.0485,31,81,1212.0483,1212.0483,1212.0738,,,,0,24,24,24,1,10,140,,,,,,,,
,,5e3af1046218720332ff9cea,65af5423cf3d8856f5c0ca23,2024-01-23_08h00.31.966,bars,2023.2.3,Win32,49.01960784,657b66ea316d21385b68909f,,,,,,,,,,,1212.0741,1213.0686,,,1213.5688,1213.8189,,59,59,,,,,,,,,,,,,,,,bars/020.png,bars/mask002.png,,,,,,,,,,,,0,1,,,,,,,0,2,0,1,,,,,,,,,,,1213.0687,1213.5687,1213.819,1215.5481,space,1.7136,,1215.5482,56,69,1216.5479,1216.548,1216.5706,,,,0,25,25,25,1,115,170,,,,,,,,
,,5e3af1046218720332ff9cea,65af5423cf3d8856f5c0ca23,2024-01-23_08h00.31.966,bars,2023.2.3,Win32,49.01960784,657b66ea316d21385b68909f,,,,,,,,,,,1216.5709,1217.5687,,,1218.069,1218.3165,,56,56,,,,,,,,,,,,,,,,bars/001.png,bars/mask009.png,,,,,,,,,,,,0,2,,,,,,,2,4,4,4,,,,,,,,,,,1217.5688,1218.0689,1218.3165,1219.7141,space,1.3794,,1219.7142,74,29,1220.7143,1220.7143,1220.7184,,,,0,26,26,26,1,130,85,,,,,,,,
,,5e3af1046218720332ff9cea,65af5423cf3d8856f5c0ca23,2024-01-23_08h00.31.966,bars,2023.2.3,Win32,49.01960784,657b66ea316d21385b68909f,,,,,,,,,,,1220.7192,1221.7145,,,1222.2147,1222.4644,,135,135,,,,,,,,,,,,,,,,bars/000.png,bars/mask009.png,,,,,,,,,,,,3,2,,,,,,,0,2,0,5,,,,,,,,,,,1221.7146,1222.2147,1222.4644,1226.4646,space,3.9854,,1226.4646,85,10,1227.4642,1227.4643,1227.4832,,,,0,27,27,27,1,40,145,,,,,,,,
,,5e3af1046218720332ff9cea,65af5423cf3d8856f5c0ca23,2024-01-23_08h00.31.966,bars,2023.2.3,Win32,49.01960784,657b66ea316d21385b68909f,,,,,,,,,,,1227.4835,1228.4853,,,1228.986,1229.2356,,146,146,,,,,,,,,,,,,,,,bars/004.png,bars/mask008.png,,,,,,,,,,,,1,2,,,,,,,2,4,1,4,,,,,,,,,,,1228.4854,1228.986,1229.2357,1230.9024,space,1.6472,,1230.9026,59,21,1231.902,1231.902,1231.9034,,,,0,28,28,28,1,25,125,,,,,,,,
,,5e3af1046218720332ff9cea,65af5423cf3d8856f5c0ca23,2024-01-23_08h00.31.966,bars,2023.2.3,Win32,49.01960784,657b66ea316d21385b68909f,,,,,,,,,,,1231.904,1232.9015,,,1233.4,1233.6522,,122,122,,,,,,,,,,,,,,,,bars/024.png,bars/mask000.png,,,,,,,,,,,,0,1,,,,,,,0,2,0,3,,,,,,,,,,,1232.9016,1233.3999,1233.6523,1235.9008,space,2.2353,,1235.9008,2,48,1236.9022,1236.9023,1236.9284,,,,0,29,29,29,1,120,170,,,,,,,,
,,5e3af1046218720332ff9cea,65af5423cf3d8856f5c0ca23,2024-01-23_08h00.31.966,bars,2023.2.3,Win32,49.01960784,657b66ea316d21385b68909f,,,,,,,,,,,1236.9287,1237.9225,,,1238.4214,1238.6728,,35,35,,,,,,,,,,,,,,,,bars/040.png,bars/mask001.png,,,,,,,,,,,,0,2,,,,,,,0,4,0,6,,,,,,,,,,,1237.9225,1238.4214,1238.6728,1242.0669,space,3.3725,,1242.0669,75,30,1243.0667,1243.0668,1243.0739,,,,0,30,30,30,1,140,5,,,,,,,,
,,5e3af1046218720332ff9cea,65af5423cf3d8856f5c0ca23,2024-01-23_08h00.31.966,bars,2023.2.3,Win32,49.01960784,657b66ea316d21385b68909f,,,,,,,,,,,1243.074,1244.0685,,,1244.5687,1244.8186,,52,52,,,,,,,,,,,,,,,,bars/046.png,bars/mask003.png,,,,,,,,,,,,0,2,,,,,,,0,2,1,1,,,,,,,,,,,1244.0686,1244.5687,1244.8186,1249.6939,space,4.8598,,1249.694,77,33,1250.6932,1250.6932,1250.7169,,,,0,31,31,31,1,155,85,,,,,,,,
,,5e3af1046218720332ff9cea,65af5423cf3d8856f5c0ca23,2024-01-23_08h00.31.966,bars,2023.2.3,Win32,49.01960784,657b66ea316d21385b68909f,,,,,,,,,,,1250.717,1251.7147,,,1252.215,1252.4648,,31,31,,,,,,,,,,,,,,,,bars/045.png,bars/mask003.png,,,,,,,,,,,,2,2,,,,,,,2,4,1,5,,,,,,,,,,,1251.7147,1252.215,1252.4648,1253.7775,space,1.2993,,1253.7775,69,21,1254.7776,1254.7776,1254.7793,,,,0,32,32,32,1,100,10,,,,,,,,
,,5e3af1046218720332ff9cea,65af5423cf3d8856f5c0ca23,2024-01-23_08h00.31.966,bars,2023.2.3,Win32,49.01960784,657b66ea316d21385b68909f,,,,,,,,,,,1254.7799,1255.777,,,1256.2754,1256.5277,,53,53,,,,,,,,,,,,,,,,bars/047.png,bars/mask009.png,,,,,,,,,,,,2,2,,,,,,,4,2,2,4,,,,,,,,,,,1255.777,1256.2753,1256.5277,1259.5455,space,3.0098,,1259.5456,38,17,1260.5452,1260.5453,1260.5523,,,,0,33,33,33,1,15,70,,,,,,,,
,,5e3af1046218720332ff9cea,65af5423cf3d8856f5c0ca23,2024-01-23_08h00.31.966,bars,2023.2.3,Win32,49.01960784,657b66ea316d21385b68909f,,,,,,,,,,,1260.5524,1261.5462,,,1262.046,1262.2971,,33,33,,,,,,,,,,,,,,,,bars/012.png,bars/mask002.png,,,,,,,,,,,,1,2,,,,,,,2,4,0,3,,,,,,,,,,,1261.5462,1262.046,1262.2972,1264.443,space,2.1253,,1264.4431,57,18,1265.4421,1265.4421,1265.4498,,,,0,34,34,34,1,90,15,,,,,,,,
,,5e3af1046218720332ff9cea,65af5423cf3d8856f5c0ca23,2024-01-23_08h00.31.966,bars,2023.2.3,Win32,49.01960784,657b66ea316d21385b68909f,,,,,,,,,,,1265.4499,1266.4425,,,1266.9436,1267.1941,,154,154,,,,,,,,,,,,,,,,bars/014.png,bars/mask004.png,,,,,,,,,,,,1,2,,,,,,,0,6,0,6,,,,,,,,,,,1266.4425,1266.9435,1267.1942,1269.0691,space,1.8624,,1269.0692,74,26,1270.0691,1270.0692,1270.0709,,,,0,35,35,35,1,80,0,,,,,,,,
,,5e3af1046218720332ff9cea,65af5423cf3d8856f5c0ca23,2024-01-23_08h00.31.966,bars,2023.2.3,Win32,49.01960784,657b66ea316d21385b68909f,,,,,,,,,,,1270.0715,1271.0717,,,1271.5688,1271.8192,,143,143,,,,,,,,,,,,,,,,bars/000.png,bars/mask001.png,,,,,,,,,,,,3,2,,,,,,,0,4,0,3,,,,,,,,,,,1271.0717,1271.5687,1271.8192,1273.8395,space,2.0088,,1273.8396,77,2,1274.8403,1274.8404,1274.8626,,,,0,36,36,36,1,40,145,,,,,,,,
,,5e3af1046218720332ff9cea,65af5423cf3d8856f5c0ca23,2024-01-23_08h00.31.966,bars,2023.2.3,Win32,49.01960784,657b66ea316d21385b68909f,,,,,,,,,,,1274.8627,1275.8605,,,1276.3606,1276.6104,,52,52,,,,,,,,,,,,,,,,bars/037.png,bars/mask001.png,,,,,,,,,,,,0,2,,,,,,,0,6,0,5,,,,,,,,,,,1275.8605,1276.3605,1276.6105,1278.2565,space,1.6259,,1278.2566,82,53,1279.2565,1279.2566,1279.2583,,,,0,37,37,37,1,150,105,,,,,,,,
,,5e3af1046218720332ff9cea,65af5423cf3d8856f5c0ca23,2024-01-23_08h00.31.966,bars,2023.2.3,Win32,49.01960784,657b66ea316d21385b68909f,,,,,,,,,,,1279.2592,1280.2535,,,1280.7544,1281.0037,,42,42,,,,,,,,,,,,,,,,bars/036.png,bars/mask008.png,,,,,,,,,,,,2,2,,,,,,,0,4,0,6,,,,,,,,,,,1280.2536,1280.7543,1281.0038,1286.0265,space,5.001,,1286.0266,77,22,1287.0259,1287.026,1287.0324,,,,0,38,38,38,1,145,20,,,,,,,,
,,5e3af1046218720332ff9cea,65af5423cf3d8856f5c0ca23,2024-01-23_08h00.31.966,bars,2023.2.3,Win32,49.01960784,657b66ea316d21385b68909f,,,,,,,,,,,1287.0325,1288.026,,,1288.5261,1288.7757,,56,56,,,,,,,,,,,,,,,,bars/030.png,bars/mask005.png,,,,,,,,,,,,1,2,,,,,,,2,2,1,2,,,,,,,,,,,1288.026,1288.526,1288.7757,1289.4018,space,0.6075,,1289.4019,84,9,1290.4022,1290.4022,1290.4038,,,,0,39,39,39,1,140,65,,,,,,,,
,,5e3af1046218720332ff9cea,65af5423cf3d8856f5c0ca23,2024-01-23_08h00.31.966,bars,2023.2.3,Win32,49.01960784,657b66ea316d21385b68909f,,,,,,,,,,,1290.4044,1291.4007,,,1291.9024,1292.1524,,68,68,,,,,,,,,,,,,,,,bars/014.png,bars/mask009.png,,,,,,,,,,,,2,1,,,,,,,4,4,4,3,,,,,,,,,,,1291.4007,1291.9024,1292.1524,1293.7562,space,1.5905,,1293.7563,12,68,1294.7562,1294.7562,1294.7772,,,,0,40,40,40,1,80,0,,,,,,,,
,,5e3af1046218720332ff9cea,65af5423cf3d8856f5c0ca23,2024-01-23_08h00.31.966,bars,2023.2.3,Win32,49.01960784,657b66ea316d21385b68909f,,,,,,,,,,,1294.7774,1295.7777,,,1296.2759,1296.5271,,142,142,,,,,,,,,,,,,,,,bars/035.png,bars/mask001.png,,,,,,,,,,,,0,1,,,,,,,6,2,5,3,,,,,,,,,,,1295.7777,1296.2758,1296.5271,1300.1968,space,3.6629,,1300.1968,33,82,1301.1937,1301.1937,1301.2186,,,,0,41,41,41,1,175,60,,,,,,,,
,,5e3af1046218720332ff9cea,65af5423cf3d8856f5c0ca23,2024-01-23_08h00.31.966,bars,2023.2.3,Win32,49.01960784,657b66ea316d21385b68909f,,,,,,,,,,,1301.219,1302.2147,,,1302.7147,1302.9647,,35,35,,,,,,,,,,,,,,,,bars/024.png,bars/mask005.png,,,,,,,,,,,,0,2,,,,,,,4,4,4,3,,,,,,,,,,,1302.2148,1302.7147,1302.9648,1303.5682,space,0.5765,,1303.5682,85,45,1304.5691,1304.5692,1304.5725,,,,0,42,42,42,1,120,170,,,,,,,,
,,5e3af1046218720332ff9cea,65af5423cf3d8856f5c0ca23,2024-01-23_08h00.31.966,bars,2023.2.3,Win32,49.01960784,657b66ea316d21385b68909f,,,,,,,,,,,1304.573,1305.5694,,,1306.069,1306.3183,,129,129,,,,,,,,,,,,,,,,bars/015.png,bars/mask008.png,,,,,,,,,,,,1,1,,,,,,,2,6,4,6,,,,,,,,,,,1305.5694,1306.0689,1306.3183,1308.3174,space,1.9838,,1308.3174,19,31,1309.3189,1309.319,1309.3404,,,,0,43,43,43,1,110,160,,,,,,,,
,,5e3af1046218720332ff9cea,65af5423cf3d8856f5c0ca23,2024-01-23_08h00.31.966,bars,2023.2.3,Win32,49.01960784,657b66ea316d21385b68909f,,,,,,,,,,,1309.3405,1310.3391,,,1310.8397,1311.0888,,46,46,,,,,,,,,,,,,,,,bars/007.png,bars/mask000.png,,,,,,,,,,,,2,2,,,,,,,4,4,5,3,,,,,,,,,,,1310.3392,1310.8397,1311.0888,1314.2147,space,3.1163,,1314.2148,51,9,1315.2149,1315.215,1315.2404,,,,0,44,44,44,1,175,55,,,,,,,,
,,5e3af1046218720332ff9cea,65af5423cf3d8856f5c0ca23,2024-01-23_08h00.31.966,bars,2023.2.3,Win32,49.01960784,657b66ea316d21385b68909f,,,,,,,,,,,1315.2406,1316.2354,,,1316.7351,1316.9856,,70,70,,,,,,,,,,,,,,,,bars/047.png,bars/mask008.png,,,,,,,,,,,,6,2,,,,,,,6,6,5,6,,,,,,,,,,,1316.2355,1316.7351,1316.9857,1319.693,space,2.6893,,1319.693,55,0,1320.6942,1320.6943,1320.7141,,,,0,45,45,45,1,15,70,,,,,,,,
,,5e3af1046218720332ff9cea,65af5423cf3d8856f5c0ca23,2024-01-23_08h00.31.966,bars,2023.2.3,Win32,49.01960784,657b66ea316d21385b68909f,,,,,,,,,,,1320.7143,1321.7149,,,1322.2151,1322.465,,49,49,,,,,,,,,,,,,,,,bars/048.png,bars/mask007.png,,,,,,,,,,,,3,1,,,,,,,4,4,3,5,,,,,,,,,,,1321.7149,1322.215,1322.4651,1327.5269,space,5.042,,1327.5269,1,54,1328.5272,1328.5272,1328.5439,,,,0,46,46,46,1,50,175,,,,,,,,
,,5e3af1046218720332ff9cea,65af5423cf3d8856f5c0ca23,2024-01-23_08h00.31.966,bars,2023.2.3,Win32,49.01960784,657b66ea316d21385b68909f,,,,,,,,,,,1328.5441,1329.5477,,,1330.0483,1330.2979,,151,151,,,,,,,,,,,,,,,,bars/024.png,bars/mask006.png,,,,,,,,,,,,2,2,,,,,,,6,6,6,5,,,,,,,,,,,1329.5478,1330.0482,1330.298,1332.3803,space,2.0718,,1332.3804,31,19,1333.3796,1333.3796,1333.3917,,,,0,47,47,47,1,120,170,,,,,,,,
,,5e3af1046218720332ff9cea,65af5423cf3d8856f5c0ca23,2024-01-23_08h00.31.966,bars,2023.2.3,Win32,49.01960784,657b66ea316d21385b68909f,,,,,,,,,,,1333.3919,1334.3812,,,1334.881,1335.1311,,56,56,,,,,,,,,,,,,,,,bars/042.png,bars/mask006.png,,,,,,,,,,,,3,2,,,,,,,4,8,5,9,,,,,,,,,,,1334.3812,1334.881,1335.1312,1337.1103,space,1.9603,,1337.1104,89,19,1338.1104,1338.1104,1338.1115,,,,0,48,48,48,1,145,75,,,,,,,,
,,5e3af1046218720332ff9cea,65af5423cf3d8856f5c0ca23,2024-01-23_08h00.31.966,bars,2023.2.3,Win32,49.01960784,657b66ea316d21385b68909f,,,,,,,,,,,1338.1119,1339.1106,,,1339.6131,1339.8607,,152,-28,,,,,,,,,,,,,,,,bars/040.png,bars/mask007.png,,,,,,,,,,,,1,1,,,,,,,2,10,2,10,,,,,,,,,,,1339.1107,1339.6131,1339.8607,1342.2553,space,2.3859,,1342.2553,12,33,1343.2568,1343.2568,1343.2819,,,,0,49,49,49,1,140,5,,,,,,,,
,,5e3af1046218720332ff9cea,65af5423cf3d8856f5c0ca23,2024-01-23_08h00.31.966,bars,2023.2.3,Win32,49.01960784,657b66ea316d21385b68909f,,,,,,,,,,,,,,,,,,,,,,,,,,,,,,,,,,,,,,,,,,,,,,,,,,,,,,,,,,,,,,,,,,,,,,,,,,,,,,,,,,,,,,,,,,,,,1343.282,1403.2778,0,2,2,2,1,sequence_tables/blk022.csv
,,5e3af1046218720332ff9cea,65af5423cf3d8856f5c0ca23,2024-01-23_08h00.31.966,bars,2023.2.3,Win32,49.01960784,657b66ea316d21385b68909f,,,,,,,,,,,1493.2995,1494.278,,,1494.7782,1495.0281,,131,131,,,,,,,,,,,,,,,,bars/015.png,bars/mask003.png,,,,,,,,,,,,2,1,,,,,,,7,3,7,3,,,,,,1403.2984,1493.2767,space,89.9706,,1494.278,1494.7781,1495.0282,1496.5693,space,1.5216,,1496.5694,21,29,1497.5696,1497.5696,1497.5932,,,,0,0,0,0,1,110,160,,,,,,,,
,,5e3af1046218720332ff9cea,65af5423cf3d8856f5c0ca23,2024-01-23_08h00.31.966,bars,2023.2.3,Win32,49.01960784,657b66ea316d21385b68909f,,,,,,,,,,,1497.5935,1498.5903,,,1499.0904,1499.3403,,136,136,,,,,,,,,,,,,,,,bars/007.png,bars/mask006.png,,,,,,,,,,,,0,1,,,,,,,5,1,7,0,,,,,,,,,,,1498.5903,1499.0903,1499.3405,1501.945,space,2.5831,,1501.9451,39,81,1502.9442,1502.9443,1502.9657,,,,0,1,1,1,1,175,55,,,,,,,,
,,5e3af1046218720332ff9cea,65af5423cf3d8856f5c0ca23,2024-01-23_08h00.31.966,bars,2023.2.3,Win32,49.01960784,657b66ea316d21385b68909f,,,,,,,,,,,1502.9659,1503.9656,,,1504.4655,1504.7149,,49,49,,,,,,,,,,,,,,,,bars/034.png,bars/mask005.png,,,,,,,,,,,,1,2,,,,,,,7,3,4,2,,,,,,,,,,,1503.9657,1504.4655,1504.7149,1508.0284,space,3.2968,,1508.0284,76,16,1509.0282,1509.0284,1509.0486,,,,0,2,2,2,1,125,65,,,,,,,,
,,5e3af1046218720332ff9cea,65af5423cf3d8856f5c0ca23,2024-01-23_08h00.31.966,bars,2023.2.3,Win32,49.01960784,657b66ea316d21385b68909f,,,,,,,,,,,1509.0488,1510.0489,,,1510.5493,1510.7988,,60,60,,,,,,,,,,,,,,,,bars/001.png,bars/mask000.png,,,,,,,,,,,,1,2,,,,,,,9,5,10,5,,,,,,,,,,,1510.0489,1510.5493,1510.7989,1513.3447,space,2.5388,,1513.3447,70,25,1514.3405,1514.3405,1514.3614,,,,0,3,3,3,1,130,85,,,,,,,,
,,5e3af1046218720332ff9cea,65af5423cf3d8856f5c0ca23,2024-01-23_08h00.31.966,bars,2023.2.3,Win32,49.01960784,657b66ea316d21385b68909f,,,,,,,,,,,1514.3617,1515.3601,,,1515.8611,1516.1113,,158,-22,,,,,,,,,,,,,,,,bars/035.png,bars/mask006.png,,,,,,,,,,,,4,1,,,,,,,10,7,10,6,,,,,,,,,,,1515.3601,1515.8611,1516.1114,1518.5686,space,2.4488,,1518.5686,17,82,1519.5691,1519.5692,1519.6,,,,0,4,4,4,1,175,60,,,,,,,,
,,5e3af1046218720332ff9cea,65af5423cf3d8856f5c0ca23,2024-01-23_08h00.31.966,bars,2023.2.3,Win32,49.01960784,657b66ea316d21385b68909f,,,,,,,,,,,1519.6006,1520.5903,,,1521.0904,1521.3403,,140,140,,,,,,,,,,,,,,,,bars/035.png,bars/mask001.png,,,,,,,,,,,,0,1,,,,,,,10,5,10,5,,,,,,,,,,,1520.5903,1521.0904,1521.3404,1523.8406,space,2.4908,,1523.8406,35,80,1524.8405,1524.8406,1524.8639,,,,0,5,5,5,1,175,60,,,,,,,,
,,5e3af1046218720332ff9cea,65af5423cf3d8856f5c0ca23,2024-01-23_08h00.31.966,bars,2023.2.3,Win32,49.01960784,657b66ea316d21385b68909f,,,,,,,,,,,1524.8642,1525.8614,,,1526.3609,1526.6116,,56,56,,,,,,,,,,,,,,,,bars/041.png,bars/mask000.png,,,,,,,,,,,,0,2,,,,,,,10,7,10,7,,,,,,,,,,,1525.8614,1526.3608,1526.6117,1527.9236,space,1.3007,,1527.9238,36,29,1528.924,1528.924,1528.9272,,,,0,6,6,6,1,20,85,,,,,,,,
,,5e3af1046218720332ff9cea,65af5423cf3d8856f5c0ca23,2024-01-23_08h00.31.966,bars,2023.2.3,Win32,49.01960784,657b66ea316d21385b68909f,,,,,,,,,,,1528.9279,1529.9246,,,1530.4237,1530.674,,45,225,,,,,,,,,,,,,,,,bars/026.png,bars/mask002.png,,,,,,,,,,,,5,1,,,,,,,8,5,8,6,,,,,,,,,,,1529.9247,1530.4237,1530.6742,1533.4635,space,2.7803,,1533.4635,10,40,1534.4663,1534.4664,1534.4881,,,,0,7,7,7,1,35,85,,,,,,,,
,,5e3af1046218720332ff9cea,65af5423cf3d8856f5c0ca23,2024-01-23_08h00.31.966,bars,2023.2.3,Win32,49.01960784,657b66ea316d21385b68909f,,,,,,,,,,,1534.4883,1535.4846,,,1535.986,1536.2366,,131,131,,,,,,,,,,,,,,,,bars/004.png,bars/mask002.png,,,,,,,,,,,,6,2,,,,,,,6,7,4,7,,,,,,,,,,,1535.4846,1535.986,1536.2366,1538.6311,space,2.3822,,1538.6311,74,6,1539.6324,1539.6325,1539.6574,,,,0,8,8,8,1,25,125,,,,,,,,
,,5e3af1046218720332ff9cea,65af5423cf3d8856f5c0ca23,2024-01-23_08h00.31.966,bars,2023.2.3,Win32,49.01960784,657b66ea316d21385b68909f,,,,,,,,,,,1539.6577,1540.6532,,,1541.1507,1541.4014,,52,52,,,,,,,,,,,,,,,,bars/004.png,bars/mask007.png,,,,,,,,,,,,0,1,,,,,,,4,9,4,9,,,,,,,,,,,1540.6532,1541.1507,1541.4014,1544.2578,space,2.844,,1544.2579,27,73,1545.2577,1545.2577,1545.28,,,,0,9,9,9,1,25,125,,,,,,,,
,,5e3af1046218720332ff9cea,65af5423cf3d8856f5c0ca23,2024-01-23_08h00.31.966,bars,2023.2.3,Win32,49.01960784,657b66ea316d21385b68909f,,,,,,,,,,,1545.2802,1546.2785,,,1546.7784,1547.0283,,59,59,,,,,,,,,,,,,,,,bars/026.png,bars/mask001.png,,,,,,,,,,,,1,1,,,,,,,2,7,3,5,,,,,,,,,,,1546.2786,1546.7783,1547.0284,1548.7369,space,1.6894,,1548.737,24,26,1549.7365,1549.7365,1549.7557,,,,0,10,10,10,1,35,85,,,,,,,,
,,5e3af1046218720332ff9cea,65af5423cf3d8856f5c0ca23,2024-01-23_08h00.31.966,bars,2023.2.3,Win32,49.01960784,657b66ea316d21385b68909f,,,,,,,,,,,1549.7558,1550.7574,,,1551.2575,1551.5068,,150,-30,,,,,,,,,,,,,,,,bars/049.png,bars/mask001.png,,,,,,,,,,,,0,1,,,,,,,0,5,0,6,,,,,,,,,,,1550.7574,1551.2574,1551.5068,1555.1529,space,3.6363,,1555.153,10,35,1556.1534,1556.1534,1556.1761,,,,0,11,11,11,1,160,115,,,,,,,,
,,5e3af1046218720332ff9cea,65af5423cf3d8856f5c0ca23,2024-01-23_08h00.31.966,bars,2023.2.3,Win32,49.01960784,657b66ea316d21385b68909f,,,,,,,,,,,1556.1764,1557.1738,,,1557.6742,1557.9241,,62,62,,,,,,,,,,,,,,,,bars/011.png,bars/mask007.png,,,,,,,,,,,,0,2,,,,,,,0,3,1,2,,,,,,,,,,,1557.1738,1557.6741,1557.9241,1559.6536,space,1.7101,,1559.6536,82,23,1560.6533,1560.6534,1560.6573,,,,0,12,12,12,1,160,85,,,,,,,,
,,5e3af1046218720332ff9cea,65af5423cf3d8856f5c0ca23,2024-01-23_08h00.31.966,bars,2023.2.3,Win32,49.01960784,657b66ea316d21385b68909f,,,,,,,,,,,1560.6579,1561.6532,,,1562.1535,1562.4033,,38,218,,,,,,,,,,,,,,,,bars/002.png,bars/mask002.png,,,,,,,,,,,,0,2,,,,,,,0,1,0,1,,,,,,,,,,,1561.6533,1562.1534,1562.4034,1567.4444,space,5.0306,,1567.4445,88,47,1568.445,1568.4451,1568.4693,,,,0,13,13,13,1,130,85,,,,,,,,
,,5e3af1046218720332ff9cea,65af5423cf3d8856f5c0ca23,2024-01-23_08h00.31.966,bars,2023.2.3,Win32,49.01960784,657b66ea316d21385b68909f,,,,,,,,,,,1568.4696,1569.4652,,,1569.9659,1570.2144,,136,136,,,,,,,,,,,,,,,,bars/013.png,bars/mask003.png,,,,,,,,,,,,0,2,,,,,,,2,3,4,4,,,,,,,,,,,1569.4652,1569.9658,1570.2144,1573.5703,space,3.337,,1573.5703,61,54,1574.5671,1574.5671,1574.5749,,,,0,14,14,14,1,75,10,,,,,,,,
,,5e3af1046218720332ff9cea,65af5423cf3d8856f5c0ca23,2024-01-23_08h00.31.966,bars,2023.2.3,Win32,49.01960784,657b66ea316d21385b68909f,,,,,,,,,,,1574.5751,1575.5696,,,1576.0694,1576.3199,,64,64,,,,,,,,,,,,,,,,bars/045.png,bars/mask003.png,,,,,,,,,,,,0,1,,,,,,,4,5,4,5,,,,,,,,,,,1575.5697,1576.0693,1576.3199,1579.0079,space,2.678,,1579.0079,36,54,1580.0072,1580.0072,1580.0322,,,,0,15,15,15,1,100,10,,,,,,,,
,,5e3af1046218720332ff9cea,65af5423cf3d8856f5c0ca23,2024-01-23_08h00.31.966,bars,2023.2.3,Win32,49.01960784,657b66ea316d21385b68909f,,,,,,,,,,,1580.0324,1581.0283,,,1581.5292,1581.7783,,36,36,,,,,,,,,,,,,,,,bars/010.png,bars/mask001.png,,,,,,,,,,,,2,2,,,,,,,6,7,4,6,,,,,,,,,,,1581.0284,1581.5291,1581.7784,1583.9453,space,2.149,,1583.9454,51,19,1584.945,1584.945,1584.9481,,,,0,16,16,16,1,165,55,,,,,,,,
,,5e3af1046218720332ff9cea,65af5423cf3d8856f5c0ca23,2024-01-23_08h00.31.966,bars,2023.2.3,Win32,49.01960784,657b66ea316d21385b68909f,,,,,,,,,,,1584.9488,1585.9449,,,1586.445,1586.6952,,65,65,,,,,,,,,,,,,,,,bars/021.png,bars/mask001.png,,,,,,,,,,,,4,2,,,,,,,4,5,5,5,,,,,,,,,,,1585.945,1586.445,1586.6953,1589.3409,space,2.6279,,1589.341,90,5,1590.3403,1590.3403,1590.3492,,,,0,17,17,17,1,155,70,,,,,,,,
,,5e3af1046218720332ff9cea,65af5423cf3d8856f5c0ca23,2024-01-23_08h00.31.966,bars,2023.2.3,Win32,49.01960784,657b66ea316d21385b68909f,,,,,,,,,,,1590.3495,1591.3403,,,1591.8408,1592.0915,,124,124,,,,,,,,,,,,,,,,bars/019.png,bars/mask009.png,,,,,,,,,,,,1,2,,,,,,,6,3,5,3,,,,,,,,,,,1591.3404,1591.8408,1592.0915,1592.8818,space,0.7793,,1592.8818,79,19,1593.8825,1593.8826,1593.8839,,,,0,18,18,18,1,45,105,,,,,,,,
,,5e3af1046218720332ff9cea,65af5423cf3d8856f5c0ca23,2024-01-23_08h00.31.966,bars,2023.2.3,Win32,49.01960784,657b66ea316d21385b68909f,,,,,,,,,,,1593.8844,1594.8811,,,1595.3827,1595.6311,,145,145,,,,,,,,,,,,,,,,bars/008.png,bars/mask007.png,,,,,,,,,,,,0,2,,,,,,,4,1,5,0,,,,,,,,,,,1594.8812,1595.3827,1595.6311,1599.4038,space,3.7546,,1599.4039,35,35,1600.4034,1600.4035,1600.4222,,,,0,19,19,19,1,110,0,,,,,,,,
,,5e3af1046218720332ff9cea,65af5423cf3d8856f5c0ca23,2024-01-23_08h00.31.966,bars,2023.2.3,Win32,49.01960784,657b66ea316d21385b68909f,,,,,,,,,,,1600.4226,1601.4224,,,1601.9223,1602.1734,,18,18,,,,,,,,,,,,,,,,bars/012.png,bars/mask005.png,,,,,,,,,,,,3,2,,,,,,,2,3,2,3,,,,,,,,,,,1601.4225,1601.9223,1602.1734,1603.5888,space,1.4014,,1603.5888,72,3,1604.5909,1604.591,1604.5923,,,,0,20,20,20,1,90,15,,,,,,,,
,,5e3af1046218720332ff9cea,65af5423cf3d8856f5c0ca23,2024-01-23_08h00.31.966,bars,2023.2.3,Win32,49.01960784,657b66ea316d21385b68909f,,,,,,,,,,,1604.5927,1605.5908,,,1606.0906,1606.3406,,42,42,,,,,,,,,,,,,,,,bars/039.png,bars/mask002.png,,,,,,,,,,,,0,1,,,,,,,4,5,4,4,,,,,,,,,,,1605.5908,1606.0906,1606.3406,1609.987,space,3.6261,,1609.9871,47,63,1610.9869,1610.987,1611.0076,,,,0,21,21,21,1,175,105,,,,,,,,
,,5e3af1046218720332ff9cea,65af5423cf3d8856f5c0ca23,2024-01-23_08h00.31.966,bars,2023.2.3,Win32,49.01960784,657b66ea316d21385b68909f,,,,,,,,,,,1611.0077,1612.0076,,,1612.5077,1612.7581,,157,157,,,,,,,,,,,,,,,,bars/008.png,bars/mask007.png,,,,,,,,,,,,0,2,,,,,,,2,3,3,2,,,,,,,,,,,1612.0076,1612.5077,1612.7581,1615.9037,space,3.1275,,1615.9037,47,23,1616.9035,1616.9035,1616.93,,,,0,22,22,22,1,110,0,,,,,,,,
,,5e3af1046218720332ff9cea,65af5423cf3d8856f5c0ca23,2024-01-23_08h00.31.966,bars,2023.2.3,Win32,49.01960784,657b66ea316d21385b68909f,,,,,,,,,,,1616.9303,1617.9245,,,1618.4219,1618.6746,,52,52,,,,,,,,,,,,,,,,bars/013.png,bars/mask001.png,,,,,,,,,,,,0,1,,,,,,,0,1,1,0,,,,,,,,,,,1617.9246,1618.4219,1618.6747,1620.4247,space,1.7303,,1620.4247,23,42,1621.4243,1621.4243,1621.4275,,,,0,23,23,23,1,75,10,,,,,,,,
,,5e3af1046218720332ff9cea,65af5423cf3d8856f5c0ca23,2024-01-23_08h00.31.966,bars,2023.2.3,Win32,49.01960784,657b66ea316d21385b68909f,,,,,,,,,,,1621.4287,1622.4252,,,1622.9246,1623.1742,,57,57,,,,,,,,,,,,,,,,bars/021.png,bars/mask002.png,,,,,,,,,,,,1,2,,,,,,,0,0,0,1,,,,,,,,,,,1622.4252,1622.9245,1623.1743,1625.9039,space,2.7098,,1625.9039,82,13,1626.9035,1626.9035,1626.9275,,,,0,24,24,24,1,155,70,,,,,,,,
,,5e3af1046218720332ff9cea,65af5423cf3d8856f5c0ca23,2024-01-23_08h00.31.966,bars,2023.2.3,Win32,49.01960784,657b66ea316d21385b68909f,,,,,,,,,,,1626.9277,1627.9244,,,1628.4244,1628.673,,43,43,,,,,,,,,,,,,,,,bars/022.png,bars/mask000.png,,,,,,,,,,,,0,2,,,,,,,0,0,0,1,,,,,,,,,,,1627.9244,1628.4243,1628.673,1631.0701,space,2.3775,,1631.0701,52,23,1632.0698,1632.0699,1632.0942,,,,0,25,25,25,1,95,20,,,,,,,,
,,5e3af1046218720332ff9cea,65af5423cf3d8856f5c0ca23,2024-01-23_08h00.31.966,bars,2023.2.3,Win32,49.01960784,657b66ea316d21385b68909f,,,,,,,,,,,1632.0944,1633.0905,,,1633.591,1633.8403,,162,162,,,,,,,,,,,,,,,,bars/015.png,bars/mask003.png,,,,,,,,,,,,0,2,,,,,,,0,0,1,0,,,,,,,,,,,1633.0906,1633.591,1633.8404,1635.5287,space,1.6691,,1635.5288,52,2,1636.5284,1636.5284,1636.53,,,,0,26,26,26,1,110,160,,,,,,,,
,,5e3af1046218720332ff9cea,65af5423cf3d8856f5c0ca23,2024-01-23_08h00.31.966,bars,2023.2.3,Win32,49.01960784,657b66ea316d21385b68909f,,,,,,,,,,,1636.5306,1637.5284,,,1638.0285,1638.2787,,132,132,,,,,,,,,,,,,,,,bars/003.png,bars/mask008.png,,,,,,,,,,,,1,2,,,,,,,0,2,1,2,,,,,,,,,,,1637.5284,1638.0284,1638.2787,1639.8411,space,1.5434,,1639.8412,73,8,1640.8407,1640.8408,1640.8421,,,,0,27,27,27,1,25,140,,,,,,,,
,,5e3af1046218720332ff9cea,65af5423cf3d8856f5c0ca23,2024-01-23_08h00.31.966,bars,2023.2.3,Win32,49.01960784,657b66ea316d21385b68909f,,,,,,,,,,,1640.8425,1641.8413,,,1642.341,1642.5909,,55,55,,,,,,,,,,,,,,,,bars/030.png,bars/mask002.png,,,,,,,,,,,,4,2,,,,,,,2,4,1,6,,,,,,,,,,,1641.8413,1642.341,1642.591,1644.8823,space,2.2823,,1644.8824,85,10,1645.8826,1645.8827,1645.9059,,,,0,28,28,28,1,140,65,,,,,,,,
,,5e3af1046218720332ff9cea,65af5423cf3d8856f5c0ca23,2024-01-23_08h00.31.966,bars,2023.2.3,Win32,49.01960784,657b66ea316d21385b68909f,,,,,,,,,,,1645.9061,1646.9037,,,1647.4037,1647.6535,,117,117,,,,,,,,,,,,,,,,bars/039.png,bars/mask002.png,,,,,,,,,,,,1,2,,,,,,,0,2,0,2,,,,,,,,,,,1646.9038,1647.4036,1647.6535,1648.3622,space,0.6924,,1648.3622,58,12,1649.3619,1649.362,1649.3635,,,,0,29,29,29,1,175,105,,,,,,,,
,,5e3af1046218720332ff9cea,65af5423cf3d8856f5c0ca23,2024-01-23_08h00.31.966,bars,2023.2.3,Win32,49.01960784,657b66ea316d21385b68909f,,,,,,,,,,,1649.364,1650.3615,,,1650.8618,1651.1119,,135,135,,,,,,,,,,,,,,,,bars/000.png,bars/mask008.png,,,,,,,,,,,,4,2,,,,,,,0,4,1,6,,,,,,,,,,,1650.3616,1650.8618,1651.1119,1653.5913,space,2.4607,,1653.5914,85,10,1654.5911,1654.5912,1654.6155,,,,0,30,30,30,1,40,145,,,,,,,,
,,5e3af1046218720332ff9cea,65af5423cf3d8856f5c0ca23,2024-01-23_08h00.31.966,bars,2023.2.3,Win32,49.01960784,657b66ea316d21385b68909f,,,,,,,,,,,1654.6157,1655.6119,,,1656.1114,1656.3605,,136,136,,,,,,,,,,,,,,,,bars/043.png,bars/mask005.png,,,,,,,,,,,,2,2,,,,,,,2,2,2,2,,,,,,,,,,,1655.6119,1656.1114,1656.3605,1660.6115,space,4.2318,,1660.6116,74,6,1661.6116,1661.6116,1661.6304,,,,0,31,31,31,1,30,130,,,,,,,,
,,5e3af1046218720332ff9cea,65af5423cf3d8856f5c0ca23,2024-01-23_08h00.31.966,bars,2023.2.3,Win32,49.01960784,657b66ea316d21385b68909f,,,,,,,,,,,1661.6308,1662.6304,,,1663.133,1663.3822,,37,37,,,,,,,,,,,,,,,,bars/012.png,bars/mask007.png,,,,,,,,,,,,1,2,,,,,,,4,4,4,3,,,,,,,,,,,1662.6304,1663.133,1663.3822,1666.1539,space,2.7522,,1666.154,53,22,1667.1538,1667.1538,1667.1767,,,,0,32,32,32,1,90,15,,,,,,,,
,,5e3af1046218720332ff9cea,65af5423cf3d8856f5c0ca23,2024-01-23_08h00.31.966,bars,2023.2.3,Win32,49.01960784,657b66ea316d21385b68909f,,,,,,,,,,,1667.177,1668.1744,,,1668.6748,1668.9248,,51,51,,,,,,,,,,,,,,,,bars/034.png,bars/mask007.png,,,,,,,,,,,,3,2,,,,,,,6,6,6,5,,,,,,,,,,,1668.1745,1668.6747,1668.9248,1671.3194,space,2.3752,,1671.3195,74,14,1672.3199,1672.32,1672.344,,,,0,33,33,33,1,125,65,,,,,,,,
,,5e3af1046218720332ff9cea,65af5423cf3d8856f5c0ca23,2024-01-23_08h00.31.966,bars,2023.2.3,Win32,49.01960784,657b66ea316d21385b68909f,,,,,,,,,,,1672.3443,1673.3414,,,1673.8411,1674.0904,,125,125,,,,,,,,,,,,,,,,bars/006.png,bars/mask009.png,,,,,,,,,,,,1,2,,,,,,,8,8,7,7,,,,,,,,,,,1673.3416,1673.8411,1674.0904,1675.7373,space,1.6287,,1675.7373,90,25,1676.737,1676.7371,1676.7385,,,,0,34,34,34,1,35,100,,,,,,,,
,,5e3af1046218720332ff9cea,65af5423cf3d8856f5c0ca23,2024-01-23_08h00.31.966,bars,2023.2.3,Win32,49.01960784,657b66ea316d21385b68909f,,,,,,,,,,,1676.739,1677.7375,,,1678.2373,1678.4852,,45,45,,,,,,,,,,,,,,,,bars/025.png,bars/mask008.png,,,,,,,,,,,,8,2,,,,,,,6,10,6,10,,,,,,,,,,,1677.7377,1678.2372,1678.4852,1680.4868,space,1.9816,,1680.4869,60,5,1681.4848,1681.4848,1681.4851,,,,0,35,35,35,1,105,40,,,,,,,,
,,5e3af1046218720332ff9cea,65af5423cf3d8856f5c0ca23,2024-01-23_08h00.31.966,bars,2023.2.3,Win32,49.01960784,657b66ea316d21385b68909f,,,,,,,,,,,1681.4854,1682.484,,,1682.9845,1683.2353,,60,60,,,,,,,,,,,,,,,,bars/018.png,bars/mask006.png,,,,,,,,,,,,0,2,,,,,,,8,10,7,8,,,,,,,,,,,1682.484,1682.9845,1683.2353,1684.6313,space,1.376,,1684.6313,90,30,1685.631,1685.6311,1685.64,,,,0,36,36,36,1,150,90,,,,,,,,
,,5e3af1046218720332ff9cea,65af5423cf3d8856f5c0ca23,2024-01-23_08h00.31.966,bars,2023.2.3,Win32,49.01960784,657b66ea316d21385b68909f,,,,,,,,,,,1685.6403,1686.6305,,,1687.1306,1687.3806,,133,133,,,,,,,,,,,,,,,,bars/028.png,bars/mask008.png,,,,,,,,,,,,6,2,,,,,,,6,10,6,10,,,,,,,,,,,1686.6305,1687.1305,1687.3806,1690.589,space,3.1877,,1690.589,88,13,1691.5885,1691.5885,1691.5952,,,,0,37,37,37,1,45,120,,,,,,,,
,,5e3af1046218720332ff9cea,65af5423cf3d8856f5c0ca23,2024-01-23_08h00.31.966,bars,2023.2.3,Win32,49.01960784,657b66ea316d21385b68909f,,,,,,,,,,,1691.5953,1692.5893,,,1693.0892,1693.3391,,140,-40,,,,,,,,,,,,,,,,bars/004.png,bars/mask001.png,,,,,,,,,,,,5,2,,,,,,,8,10,7,10,,,,,,,,,,,1692.5893,1693.0892,1693.3391,1697.0891,space,3.7299,,1697.0891,65,15,1698.0891,1698.0891,1698.097,,,,0,38,38,38,1,25,125,,,,,,,,
,,5e3af1046218720332ff9cea,65af5423cf3d8856f5c0ca23,2024-01-23_08h00.31.966,bars,2023.2.3,Win32,49.01960784,657b66ea316d21385b68909f,,,,,,,,,,,1698.0971,1699.0886,,,1699.5893,1699.8392,,144,144,,,,,,,,,,,,,,,,bars/020.png,bars/mask004.png,,,,,,,,,,,,1,2,,,,,,,6,10,6,10,,,,,,,,,,,1699.0887,1699.5893,1699.8392,1702.9425,space,3.0842,,1702.9425,29,26,1703.9428,1703.9428,1703.9501,,,,0,39,39,39,1,115,170,,,,,,,,
,,5e3af1046218720332ff9cea,65af5423cf3d8856f5c0ca23,2024-01-23_08h00.31.966,bars,2023.2.3,Win32,49.01960784,657b66ea316d21385b68909f,,,,,,,,,,,1703.9502,1704.9431,,,1705.4433,1705.6936,,51,51,,,,,,,,,,,,,,,,bars/002.png,bars/mask009.png,,,,,,,,,,,,0,2,,,,,,,8,10,9,10,,,,,,,,,,,1704.9432,1705.4433,1705.6936,1708.9228,space,3.2086,,1708.9228,79,34,1709.9224,1709.9224,1709.9298,,,,0,40,40,40,1,130,85,,,,,,,,
,,5e3af1046218720332ff9cea,65af5423cf3d8856f5c0ca23,2024-01-23_08h00.31.966,bars,2023.2.3,Win32,49.01960784,657b66ea316d21385b68909f,,,,,,,,,,,1709.93,1710.9229,,,1711.4225,1711.672,,27,27,,,,,,,,,,,,,,,,bars/040.png,bars/mask009.png,,,,,,,,,,,,2,2,,,,,,,6,8,5,7,,,,,,,,,,,1710.9229,1711.4225,1711.672,1713.6726,space,1.9903,,1713.6726,67,22,1714.6721,1714.6721,1714.6793,,,,0,41,41,41,1,140,5,,,,,,,,
,,5e3af1046218720332ff9cea,65af5423cf3d8856f5c0ca23,2024-01-23_08h00.31.966,bars,2023.2.3,Win32,49.01960784,657b66ea316d21385b68909f,,,,,,,,,,,1714.6794,1715.6724,,,1716.1729,1716.4225,,152,-28,,,,,,,,,,,,,,,,bars/003.png,bars/mask007.png,,,,,,,,,,,,5,2,,,,,,,8,10,9,8,,,,,,,,,,,1715.6724,1716.1729,1716.4226,1719.7769,space,3.3443,,1719.7769,53,12,1720.7769,1720.777,1720.788,,,,0,42,42,42,1,25,140,,,,,,,,
,,5e3af1046218720332ff9cea,65af5423cf3d8856f5c0ca23,2024-01-23_08h00.31.966,bars,2023.2.3,Win32,49.01960784,657b66ea316d21385b68909f,,,,,,,,,,,1720.7881,1721.7769,,,1722.2773,1722.5269,,147,147,,,,,,,,,,,,,,,,bars/038.png,bars/mask000.png,,,,,,,,,,,,3,1,,,,,,,10,8,8,8,,,,,,,,,,,1721.777,1722.2773,1722.5269,1726.2349,space,3.6982,,1726.2349,18,77,1727.2354,1727.2355,1727.247,,,,0,43,43,43,1,165,70,,,,,,,,
,,5e3af1046218720332ff9cea,65af5423cf3d8856f5c0ca23,2024-01-23_08h00.31.966,bars,2023.2.3,Win32,49.01960784,657b66ea316d21385b68909f,,,,,,,,,,,1727.2472,1728.235,,,1728.7348,1728.9851,,35,35,,,,,,,,,,,,,,,,bars/044.png,bars/mask001.png,,,,,,,,,,,,0,1,,,,,,,10,6,9,8,,,,,,,,,,,1728.2351,1728.7348,1728.9851,1730.6516,space,1.6582,,1730.6516,40,60,1731.6515,1731.6516,1731.6599,,,,0,44,44,44,1,75,155,,,,,,,,
,,5e3af1046218720332ff9cea,65af5423cf3d8856f5c0ca23,2024-01-23_08h00.31.966,bars,2023.2.3,Win32,49.01960784,657b66ea316d21385b68909f,,,,,,,,,,,1731.66,1732.6517,,,1733.1518,1733.4019,,154,154,,,,,,,,,,,,,,,,bars/048.png,bars/mask000.png,,,,,,,,,,,,2,2,,,,,,,10,4,10,7,,,,,,,,,,,1732.6517,1733.1518,1733.402,1734.6099,space,1.1972,,1734.6099,76,21,1735.6098,1735.6098,1735.6174,,,,0,45,45,45,1,50,175,,,,,,,,
,,5e3af1046218720332ff9cea,65af5423cf3d8856f5c0ca23,2024-01-23_08h00.31.966,bars,2023.2.3,Win32,49.01960784,657b66ea316d21385b68909f,,,,,,,,,,,1735.6176,1736.61,,,1737.1104,1737.3602,,125,125,,,,,,,,,,,,,,,,bars/049.png,bars/mask000.png,,,,,,,,,,,,1,2,,,,,,,8,2,9,1,,,,,,,,,,,1736.61,1737.1104,1737.3602,1740.4226,space,3.0551,,1740.4226,35,10,1741.4227,1741.4227,1741.4315,,,,0,46,46,46,1,160,115,,,,,,,,
,,5e3af1046218720332ff9cea,65af5423cf3d8856f5c0ca23,2024-01-23_08h00.31.966,bars,2023.2.3,Win32,49.01960784,657b66ea316d21385b68909f,,,,,,,,,,,1741.4316,1742.4225,,,1742.9228,1743.1728,,116,116,,,,,,,,,,,,,,,,bars/039.png,bars/mask008.png,,,,,,,,,,,,3,2,,,,,,,6,4,7,5,,,,,,,,,,,1742.4226,1742.9228,1743.1729,1744.9437,space,1.7563,,1744.9437,59,11,1745.9436,1745.9436,1745.9528,,,,0,47,47,47,1,175,105,,,,,,,,
,,5e3af1046218720332ff9cea,65af5423cf3d8856f5c0ca23,2024-01-23_08h00.31.966,bars,2023.2.3,Win32,49.01960784,657b66ea316d21385b68909f,,,,,,,,,,,1745.953,1746.9436,,,1747.4436,1747.6935,,150,150,,,,,,,,,,,,,,,,bars/048.png,bars/mask006.png,,,,,,,,,,,,0,2,,,,,,,4,2,1,2,,,,,,,,,,,1746.9436,1747.4435,1747.6935,1749.4226,space,1.7173,,1749.4226,80,25,1750.4217,1750.4218,1750.4285,,,,0,48,48,48,1,50,175,,,,,,,,
,,5e3af1046218720332ff9cea,65af5423cf3d8856f5c0ca23,2024-01-23_08h00.31.966,bars,2023.2.3,Win32,49.01960784,657b66ea316d21385b68909f,,,,,,,,,,,1750.4286,1751.4222,,,1751.9226,1752.1722,,132,132,,,,,,,,,,,,,,,,bars/046.png,bars/mask000.png,,,,,,,,,,,,1,1,,,,,,,6,0,5,0,,,,,,,,,,,1751.4222,1751.9226,1752.1722,1756.9649,space,4.7787,,1756.9649,23,47,1757.9643,1757.9644,1757.9714,,,,0,49,49,49,1,155,85,,,,,,,,
,,5e3af1046218720332ff9cea,65af5423cf3d8856f5c0ca23,2024-01-23_08h00.31.966,bars,2023.2.3,Win32,49.01960784,657b66ea316d21385b68909f,,,,,,,,,,,,,,,,,,,,,,,,,,,,,,,,,,,,,,,,,,,,,,,,,,,,,,,,,,,,,,,,,,,,,,,,,,,,,,,,,,,,,,,,,,,,,1757.9715,1817.9671,0,3,3,3,1,sequence_tables/blk021.csv
,,5e3af1046218720332ff9cea,65af5423cf3d8856f5c0ca23,2024-01-23_08h00.31.966,bars,2023.2.3,Win32,49.01960784,657b66ea316d21385b68909f,,,,,,,,,,,1854.1704,1855.1543,,,1855.6545,1855.9035,,62,62,,,,,,,,,,,,,,,,bars/042.png,bars/mask007.png,,,,,,,,,,,,3,2,,,,,,,10,7,10,6,,,,,,1817.9881,1854.1534,space,36.147,,1855.1545,1855.6543,1855.9036,1858.3826,space,2.4605,,1858.3826,83,13,1859.3834,1859.3835,1859.4034,,,,0,0,0,0,1,145,75,,,,,,,,
,,5e3af1046218720332ff9cea,65af5423cf3d8856f5c0ca23,2024-01-23_08h00.31.966,bars,2023.2.3,Win32,49.01960784,657b66ea316d21385b68909f,,,,,,,,,,,1859.4036,1860.4042,,,1860.9043,1861.152,,144,144,,,,,,,,,,,,,,,,bars/015.png,bars/mask009.png,,,,,,,,,,,,2,2,,,,,,,8,5,5,5,,,,,,,,,,,1860.4042,1860.9043,1861.1521,1863.6731,space,2.4954,,1863.6731,34,16,1864.6732,1864.6733,1864.6801,,,,0,1,1,1,1,110,160,,,,,,,,
,,5e3af1046218720332ff9cea,65af5423cf3d8856f5c0ca23,2024-01-23_08h00.31.966,bars,2023.2.3,Win32,49.01960784,657b66ea316d21385b68909f,,,,,,,,,,,1864.6802,1865.6733,,,1866.1735,1866.4231,,57,57,,,,,,,,,,,,,,,,bars/010.png,bars/mask007.png,,,,,,,,,,,,3,2,,,,,,,10,3,10,3,,,,,,,,,,,1865.6734,1866.1735,1866.4231,1868.1337,space,1.6795,,1868.1338,72,2,1869.1335,1869.1336,1869.155,,,,0,2,2,2,1,165,55,,,,,,,,
,,5e3af1046218720332ff9cea,65af5423cf3d8856f5c0ca23,2024-01-23_08h00.31.966,bars,2023.2.3,Win32,49.01960784,657b66ea316d21385b68909f,,,,,,,,,,,1869.1551,1870.1545,,,1870.6537,1870.9049,,63,63,,,,,,,,,,,,,,,,bars/041.png,bars/mask008.png,,,,,,,,,,,,0,2,,,,,,,10,1,10,1,,,,,,,,,,,1870.1545,1870.6537,1870.9049,1872.8628,space,1.9201,,1872.8629,43,22,1873.8627,1873.8627,1873.8641,,,,0,3,3,3,1,20,85,,,,,,,,
,,5e3af1046218720332ff9cea,65af5423cf3d8856f5c0ca23,2024-01-23_08h00.31.966,bars,2023.2.3,Win32,49.01960784,657b66ea316d21385b68909f,,,,,,,,,,,1873.8646,1874.8631,,,1875.3627,1875.6127,,51,51,,,,,,,,,,,,,,,,bars/030.png,bars/mask007.png,,,,,,,,,,,,2,2,,,,,,,8,3,7,4,,,,,,,,,,,1874.8631,1875.3626,1875.6128,1877.238,space,1.6155,,1877.238,89,14,1878.2378,1878.2379,1878.2396,,,,0,4,4,4,1,140,65,,,,,,,,
,,5e3af1046218720332ff9cea,65af5423cf3d8856f5c0ca23,2024-01-23_08h00.31.966,bars,2023.2.3,Win32,49.01960784,657b66ea316d21385b68909f,,,,,,,,,,,1878.2402,1879.2418,,,1879.7366,1879.9879,,59,59,,,,,,,,,,,,,,,,bars/034.png,bars/mask007.png,,,,,,,,,,,,3,2,,,,,,,10,5,9,4,,,,,,,,,,,1879.2418,1879.7366,1879.9879,1881.988,space,1.9812,,1881.9881,66,6,1882.9887,1882.9887,1883.0143,,,,0,5,5,5,1,125,65,,,,,,,,
,,5e3af1046218720332ff9cea,65af5423cf3d8856f5c0ca23,2024-01-23_08h00.31.966,bars,2023.2.3,Win32,49.01960784,657b66ea316d21385b68909f,,,,,,,,,,,1883.0147,1884.008,,,1884.5088,1884.7624,,45,45,,,,,,,,,,,,,,,,bars/004.png,bars/mask008.png,,,,,,,,,,,,3,1,,,,,,,8,7,9,7,,,,,,,,,,,1884.0081,1884.5088,1884.7625,1888.7178,space,3.9411,,1888.7179,20,80,1889.7167,1889.7167,1889.7419,,,,0,6,6,6,1,25,125,,,,,,,,
,,5e3af1046218720332ff9cea,65af5423cf3d8856f5c0ca23,2024-01-23_08h00.31.966,bars,2023.2.3,Win32,49.01960784,657b66ea316d21385b68909f,,,,,,,,,,,1889.7421,1890.7382,,,1891.2378,1891.488,,55,55,,,,,,,,,,,,,,,,bars/045.png,bars/mask000.png,,,,,,,,,,,,0,2,,,,,,,6,5,6,4,,,,,,,,,,,1890.7382,1891.2378,1891.488,1893.2574,space,1.7609,,1893.2575,45,45,1894.2584,1894.2584,1894.2613,,,,0,7,7,7,1,100,10,,,,,,,,
,,5e3af1046218720332ff9cea,65af5423cf3d8856f5c0ca23,2024-01-23_08h00.31.966,bars,2023.2.3,Win32,49.01960784,657b66ea316d21385b68909f,,,,,,,,,,,1894.2618,1895.2574,,,1895.7587,1896.0085,,137,137,,,,,,,,,,,,,,,,bars/034.png,bars/mask005.png,,,,,,,,,,,,5,1,,,,,,,8,7,9,9,,,,,,,,,,,1895.2575,1895.7586,1896.0086,1897.8412,space,1.8165,,1897.8413,12,72,1898.8421,1898.8422,1898.8625,,,,0,8,8,8,1,125,65,,,,,,,,
,,5e3af1046218720332ff9cea,65af5423cf3d8856f5c0ca23,2024-01-23_08h00.31.966,bars,2023.2.3,Win32,49.01960784,657b66ea316d21385b68909f,,,,,,,,,,,1898.8626,1899.863,,,1900.3622,1900.6129,,132,132,,,,,,,,,,,,,,,,bars/043.png,bars/mask001.png,,,,,,,,,,,,8,2,,,,,,,10,9,10,9,,,,,,,,,,,1899.863,1900.3622,1900.6129,1902.6117,space,1.988,,1902.6118,78,2,1903.6117,1903.6117,1903.6201,,,,0,9,9,9,1,30,130,,,,,,,,
,,5e3af1046218720332ff9cea,65af5423cf3d8856f5c0ca23,2024-01-23_08h00.31.966,bars,2023.2.3,Win32,49.01960784,657b66ea316d21385b68909f,,,,,,,,,,,1903.6203,1904.6122,,,1905.113,1905.3626,,46,46,,,,,,,,,,,,,,,,bars/023.png,bars/mask008.png,,,,,,,,,,,,1,1,,,,,,,10,10,10,10,,,,,,,,,,,1904.6122,1905.1129,1905.3627,1907.7988,space,2.4132,,1907.7988,26,69,1908.8,1908.8001,1908.8249,,,,0,10,10,10,1,20,115,,,,,,,,
,,5e3af1046218720332ff9cea,65af5423cf3d8856f5c0ca23,2024-01-23_08h00.31.966,bars,2023.2.3,Win32,49.01960784,657b66ea316d21385b68909f,,,,,,,,,,,1908.8252,1909.8209,,,1910.3207,1910.5714,,49,49,,,,,,,,,,,,,,,,bars/030.png,bars/mask001.png,,,,,,,,,,,,4,2,,,,,,,10,10,10,9,,,,,,,,,,,1909.821,1910.3207,1910.5715,1912.2161,space,1.6227,,1912.2161,89,16,1913.217,1913.2171,1913.2401,,,,0,11,11,11,1,140,65,,,,,,,,
,,5e3af1046218720332ff9cea,65af5423cf3d8856f5c0ca23,2024-01-23_08h00.31.966,bars,2023.2.3,Win32,49.01960784,657b66ea316d21385b68909f,,,,,,,,,,,1913.2403,1914.2383,,,1914.7382,1914.9881,,38,218,,,,,,,,,,,,,,,,bars/034.png,bars/mask001.png,,,,,,,,,,,,1,2,,,,,,,8,8,7,9,,,,,,,,,,,1914.2383,1914.738,1914.9881,1917.7165,space,2.7192,,1917.7166,87,27,1918.7166,1918.7166,1918.7174,,,,0,12,12,12,1,125,65,,,,,,,,
