init_variables.started,init_variables.stopped,participant,session,date,expName,psychopyVersion,OS,frameRate,study_id,instruction_exp.started,instruction_exp.stopped,key_resp_8.keys,key_resp_8.rt,key_resp_8.duration,instruction_single.started,instruction_single.stopped,key_resp_2.keys,key_resp_2.rt,key_resp_2.duration,interval.started,interval.stopped,cue_single.started,cue_single.stopped,mask.started,mask.stopped,ori_response_single.started,res_ori,res,ori_response_single.stopped,key_resp_single.keys,key_resp_single.rt,key_resp_single.duration,disp_single.started,disp_single.stopped,key_resp.keys,key_resp.rt,key_resp.duration,single.thisRepN,single.thisTrialN,single.thisN,single.thisIndex,single.ran,ori,path,mask_path,instruction_bandit.started,instruction_bandit.stopped,key_resp_6.keys,key_resp_6.rt,key_resp_6.duration,cue_bandit.started,cue_bandit.stopped,bandit_res.keys,bandit_res.rt,bandit_res.duration,outcome_bandit.started,rew,action,outcome_bandit.stopped,bandit.thisRepN,bandit.thisTrialN,bandit.thisN,bandit.thisIndex,bandit.ran,actual_rew1,actual_rew2,rew1,rew2,instruction_task.started,instruction_task.stopped,key_resp_7.keys,key_resp_7.rt,key_resp_7.duration,wait_ready.started,wait_ready.stopped,key_resp_3.keys,key_resp_3.rt,key_resp_3.duration,cue.started,cue.stopped,ori_response.started,ori_response.stopped,key_resp_5.keys,key_resp_5.rt,key_resp_5.duration,outcome.started,diff1,diff2,outcome.stopped,disp_outcome_practice.started,disp_outcome_practice.stopped,key_resp_4.keys,key_resp_4.rt,key_resp_4.duration,trials.thisRepN,trials.thisTrialN,trials.thisN,trials.thisIndex,trials.ran,ori1,ori2,break_blk.started,break_blk.stopped,block.thisRepN,block.thisTrialN,block.thisN,block.thisIndex,block.ran,condition_file
0.0011,0.0013,60e2bf0aa568b97e8d525872,65af54d01502ba3ac8b6198d,2024-01-23_08h01.07.301,bars,2023.2.3,MacIntel,60.24096386,657b66ea316d21385b68909f,,,,,,,,,,,,,,,,,,,,,,,,,,,,,,,,,,,,,,,,,,,,,,,,,,,,,,,,,,,,,,,,,,,,,,,,,,,,,,,,,,,,,,,,,,,,,,,,,,,,
,,60e2bf0aa568b97e8d525872,65af54d01502ba3ac8b6198d,2024-01-23_08h01.07.301,bars,2023.2.3,MacIntel,60.24096386,657b66ea316d21385b68909f,0.0015,425.3618,y,425.3274,,,,,,,,,,,,,,,,,,,,,,,,,,,,,,,,,,,,,,,,,,,,,,,,,,,,,,,,,,,,,,,,,,,,,,,,,,,,,,,,,,,,,,,,,,,,,,,,
,,60e2bf0aa568b97e8d525872,65af54d01502ba3ac8b6198d,2024-01-23_08h01.07.301,bars,2023.2.3,MacIntel,60.24096386,657b66ea316d21385b68909f,,,,,,425.3619,432.3444,space,6.9689,,,,,,,,,,,,,,,,,,,,,,,,,,,,,,,,,,,,,,,,,,,,,,,,,,,,,,,,,,,,,,,,,,,,,,,,,,,,,,,,,,,,,,,,,,,
,,60e2bf0aa568b97e8d525872,65af54d01502ba3ac8b6198d,2024-01-23_08h01.07.301,bars,2023.2.3,MacIntel,60.24096386,657b66ea316d21385b68909f,,,,,,,,,,,432.3509,433.3526,433.3527,433.8513,433.8515,434.101,434.1012,90,90,442.3525,space,8.2146,,442.3527,452.4776,space,10.0841,,0,0,0,5,1,55,bars/single005.png,bars/mask008.png,,,,,,,,,,,,,,,,,,,,,,,,,,,,,,,,,,,,,,,,,,,,,,,,,,,,,,,,,,,,,,,,
,,60e2bf0aa568b97e8d525872,65af54d01502ba3ac8b6198d,2024-01-23_08h01.07.301,bars,2023.2.3,MacIntel,60.24096386,657b66ea316d21385b68909f,,,,,,,,,,,452.4957,453.4869,453.4871,453.9874,453.9876,454.2366,454.2366,119,119,461.6198,space,7.365,,461.6198,465.8777,space,4.2287,,0,1,1,0,1,150,bars/single000.png,bars/mask006.png,,,,,,,,,,,,,,,,,,,,,,,,,,,,,,,,,,,,,,,,,,,,,,,,,,,,,,,,,,,,,,,,
,,60e2bf0aa568b97e8d525872,65af54d01502ba3ac8b6198d,2024-01-23_08h01.07.301,bars,2023.2.3,MacIntel,60.24096386,657b66ea316d21385b68909f,,,,,,,,,,,465.8885,466.8896,466.8896,467.3941,467.3942,467.6373,467.6373,36,36,471.115,space,3.4618,,471.115,475.9543,space,4.8087,,0,2,2,1,1,20,bars/single001.png,bars/mask006.png,,,,,,,,,,,,,,,,,,,,,,,,,,,,,,,,,,,,,,,,,,,,,,,,,,,,,,,,,,,,,,,,
,,60e2bf0aa568b97e8d525872,65af54d01502ba3ac8b6198d,2024-01-23_08h01.07.301,bars,2023.2.3,MacIntel,60.24096386,657b66ea316d21385b68909f,,,,,,,,,,,475.9654,476.9669,476.9669,477.4659,477.4659,477.7147,477.7148,162,162,480.5919,space,2.8689,0.0005,480.592,483.2711,space,2.6605,,0,3,3,8,1,160,bars/single008.png,bars/mask004.png,,,,,,,,,,,,,,,,,,,,,,,,,,,,,,,,,,,,,,,,,,,,,,,,,,,,,,,,,,,,,,,,
,,60e2bf0aa568b97e8d525872,65af54d01502ba3ac8b6198d,2024-01-23_08h01.07.301,bars,2023.2.3,MacIntel,60.24096386,657b66ea316d21385b68909f,,,,,,,,,,,483.282,484.2812,484.2812,484.7817,484.7817,485.0318,485.0319,131,131,488.9707,space,3.9253,,488.9707,494.1745,space,5.1781,,0,4,4,7,1,45,bars/single007.png,bars/mask009.png,,,,,,,,,,,,,,,,,,,,,,,,,,,,,,,,,,,,,,,,,,,,,,,,,,,,,,,,,,,,,,,,
,,60e2bf0aa568b97e8d525872,65af54d01502ba3ac8b6198d,2024-01-23_08h01.07.301,bars,2023.2.3,MacIntel,60.24096386,657b66ea316d21385b68909f,,,,,,,,,,,494.1859,495.1885,495.1885,495.6875,495.6875,495.9378,495.9378,31,211,501.5771,space,5.625,,501.5771,504.2694,space,2.6643,,0,5,5,9,1,20,bars/single009.png,bars/mask006.png,,,,,,,,,,,,,,,,,,,,,,,,,,,,,,,,,,,,,,,,,,,,,,,,,,,,,,,,,,,,,,,,
,,60e2bf0aa568b97e8d525872,65af54d01502ba3ac8b6198d,2024-01-23_08h01.07.301,bars,2023.2.3,MacIntel,60.24096386,657b66ea316d21385b68909f,,,,,,,,,,,504.2698,505.2678,505.2678,505.7654,505.7655,506.0152,506.0152,90,90,512.2502,space,6.2201,,512.2502,517.9686,space,5.6982,,0,6,6,4,1,95,bars/single004.png,bars/mask004.png,,,,,,,,,,,,,,,,,,,,,,,,,,,,,,,,,,,,,,,,,,,,,,,,,,,,,,,,,,,,,,,,
,,60e2bf0aa568b97e8d525872,65af54d01502ba3ac8b6198d,2024-01-23_08h01.07.301,bars,2023.2.3,MacIntel,60.24096386,657b66ea316d21385b68909f,,,,,,,,,,,517.9804,518.9689,518.9689,519.4661,519.4662,519.7145,519.7145,1,181,526.3994,space,6.6692,,526.3995,543.0622,space,16.6386,,0,7,7,6,1,175,bars/single006.png,bars/mask005.png,,,,,,,,,,,,,,,,,,,,,,,,,,,,,,,,,,,,,,,,,,,,,,,,,,,,,,,,,,,,,,,,
,,60e2bf0aa568b97e8d525872,65af54d01502ba3ac8b6198d,2024-01-23_08h01.07.301,bars,2023.2.3,MacIntel,60.24096386,657b66ea316d21385b68909f,,,,,,,,,,,543.0753,544.0743,544.0743,544.5732,544.5732,544.8229,544.8229,34,34,554.4675,space,9.629,,554.4675,560.4384,space,5.947,,0,8,8,3,1,20,bars/single003.png,bars/mask005.png,,,,,,,,,,,,,,,,,,,,,,,,,,,,,,,,,,,,,,,,,,,,,,,,,,,,,,,,,,,,,,,,
,,60e2bf0aa568b97e8d525872,65af54d01502ba3ac8b6198d,2024-01-23_08h01.07.301,bars,2023.2.3,MacIntel,60.24096386,657b66ea316d21385b68909f,,,,,,,,,,,560.4506,561.4511,561.4511,561.9484,561.9484,562.1989,562.1989,134,134,567.7524,space,5.5364,,567.7524,572.4074,space,4.6345,,0,9,9,2,1,145,bars/single002.png,bars/mask003.png,,,,,,,,,,,,,,,,,,,,,,,,,,,,,,,,,,,,,,,,,,,,,,,,,,,,,,,,,,,,,,,,
,,60e2bf0aa568b97e8d525872,65af54d01502ba3ac8b6198d,2024-01-23_08h01.07.301,bars,2023.2.3,MacIntel,60.24096386,657b66ea316d21385b68909f,,,,,,,,,,,,,,,,,,,,,,,,,,,,,,,,,,,,,572.4215,609.9426,space,37.5067,,,,,,,,,,,,,,,,,,,,,,,,,,,,,,,,,,,,,,,,,,,,,,,,,,,,,,,,,,,,
,,60e2bf0aa568b97e8d525872,65af54d01502ba3ac8b6198d,2024-01-23_08h01.07.301,bars,2023.2.3,MacIntel,60.24096386,657b66ea316d21385b68909f,,,,,,,,,,,,,,,,,,,,,,,,,,,,,,,,,,,,,,,,,,609.9596,614.509,right,4.5226,,614.5093,2,2,615.5051,0,0,0,0,1,9,1,9,2,,,,,,,,,,,,,,,,,,,,,,,,,,,,,,,,,,,,,,,,,
,,60e2bf0aa568b97e8d525872,65af54d01502ba3ac8b6198d,2024-01-23_08h01.07.301,bars,2023.2.3,MacIntel,60.24096386,657b66ea316d21385b68909f,,,,,,,,,,,,,,,,,,,,,,,,,,,,,,,,,,,,,,,,,,615.5056,617.8496,right,2.331,,617.8497,1,2,618.8476,0,1,1,1,1,10,0,10,1,,,,,,,,,,,,,,,,,,,,,,,,,,,,,,,,,,,,,,,,,
,,60e2bf0aa568b97e8d525872,65af54d01502ba3ac8b6198d,2024-01-23_08h01.07.301,bars,2023.2.3,MacIntel,60.24096386,657b66ea316d21385b68909f,,,,,,,,,,,,,,,,,,,,,,,,,,,,,,,,,,,,,,,,,,618.848,621.7905,left,2.9292,,621.7905,10,1,622.7894,0,2,2,2,1,10,2,10,2,,,,,,,,,,,,,,,,,,,,,,,,,,,,,,,,,,,,,,,,,
,,60e2bf0aa568b97e8d525872,65af54d01502ba3ac8b6198d,2024-01-23_08h01.07.301,bars,2023.2.3,MacIntel,60.24096386,657b66ea316d21385b68909f,,,,,,,,,,,,,,,,,,,,,,,,,,,,,,,,,,,,,,,,,,622.8015,624.7175,left,1.9044,,624.7177,7,1,625.7161,0,3,3,3,1,8,4,7,3,,,,,,,,,,,,,,,,,,,,,,,,,,,,,,,,,,,,,,,,,
,,60e2bf0aa568b97e8d525872,65af54d01502ba3ac8b6198d,2024-01-23_08h01.07.301,bars,2023.2.3,MacIntel,60.24096386,657b66ea316d21385b68909f,,,,,,,,,,,,,,,,,,,,,,,,,,,,,,,,,,,,,,,,,,625.7164,627.4809,left,1.7512,,627.4811,5,1,628.477,0,4,4,4,1,6,2,5,1,,,,,,,,,,,,,,,,,,,,,,,,,,,,,,,,,,,,,,,,,
,,60e2bf0aa568b97e8d525872,65af54d01502ba3ac8b6198d,2024-01-23_08h01.07.301,bars,2023.2.3,MacIntel,60.24096386,657b66ea316d21385b68909f,,,,,,,,,,,,,,,,,,,,,,,,,,,,,,,,,,,,,,,,,,628.4891,629.1585,right,0.6572,,629.1586,4,2,630.1576,0,5,5,5,1,4,4,4,4,,,,,,,,,,,,,,,,,,,,,,,,,,,,,,,,,,,,,,,,,
,,60e2bf0aa568b97e8d525872,65af54d01502ba3ac8b6198d,2024-01-23_08h01.07.301,bars,2023.2.3,MacIntel,60.24096386,657b66ea316d21385b68909f,,,,,,,,,,,,,,,,,,,,,,,,,,,,,,,,,,,,,,,,,,630.1582,631.5356,left,1.3624,,631.5356,1,1,632.5322,0,6,6,6,1,2,2,1,2,,,,,,,,,,,,,,,,,,,,,,,,,,,,,,,,,,,,,,,,,
,,60e2bf0aa568b97e8d525872,65af54d01502ba3ac8b6198d,2024-01-23_08h01.07.301,bars,2023.2.3,MacIntel,60.24096386,657b66ea316d21385b68909f,,,,,,,,,,,,,,,,,,,,,,,,,,,,,,,,,,,,,,,,,,632.5324,635.2921,left,2.7425,,635.2922,0,1,636.2897,0,7,7,7,1,0,0,0,1,,,,,,,,,,,,,,,,,,,,,,,,,,,,,,,,,,,,,,,,,
,,60e2bf0aa568b97e8d525872,65af54d01502ba3ac8b6198d,2024-01-23_08h01.07.301,bars,2023.2.3,MacIntel,60.24096386,657b66ea316d21385b68909f,,,,,,,,,,,,,,,,,,,,,,,,,,,,,,,,,,,,,,,,,,636.3008,636.8719,right,0.5587,,636.8719,0,2,637.8693,0,8,8,8,1,0,2,1,0,,,,,,,,,,,,,,,,,,,,,,,,,,,,,,,,,,,,,,,,,
,,60e2bf0aa568b97e8d525872,65af54d01502ba3ac8b6198d,2024-01-23_08h01.07.301,bars,2023.2.3,MacIntel,60.24096386,657b66ea316d21385b68909f,,,,,,,,,,,,,,,,,,,,,,,,,,,,,,,,,,,,,,,,,,637.8696,638.4351,right,0.5543,,638.4351,3,2,639.4333,0,9,9,9,1,2,4,2,3,,,,,,,,,,,,,,,,,,,,,,,,,,,,,,,,,,,,,,,,,
,,60e2bf0aa568b97e8d525872,65af54d01502ba3ac8b6198d,2024-01-23_08h01.07.301,bars,2023.2.3,MacIntel,60.24096386,657b66ea316d21385b68909f,,,,,,,,,,,,,,,,,,,,,,,,,,,,,,,,,,,,,,,,,,639.4337,640.9638,left,1.5148,,640.9638,0,1,641.9616,0,10,10,10,1,0,2,0,3,,,,,,,,,,,,,,,,,,,,,,,,,,,,,,,,,,,,,,,,,
,,60e2bf0aa568b97e8d525872,65af54d01502ba3ac8b6198d,2024-01-23_08h01.07.301,bars,2023.2.3,MacIntel,60.24096386,657b66ea316d21385b68909f,,,,,,,,,,,,,,,,,,,,,,,,,,,,,,,,,,,,,,,,,,641.9619,643.4573,left,1.4816,,643.4574,0,1,644.4542,0,11,11,11,1,0,4,0,3,,,,,,,,,,,,,,,,,,,,,,,,,,,,,,,,,,,,,,,,,
,,60e2bf0aa568b97e8d525872,65af54d01502ba3ac8b6198d,2024-01-23_08h01.07.301,bars,2023.2.3,MacIntel,60.24096386,657b66ea316d21385b68909f,,,,,,,,,,,,,,,,,,,,,,,,,,,,,,,,,,,,,,,,,,644.4657,645.6028,right,1.1221,0.0002,645.6029,6,2,646.603,0,12,12,12,1,2,6,1,6,,,,,,,,,,,,,,,,,,,,,,,,,,,,,,,,,,,,,,,,,
,,60e2bf0aa568b97e8d525872,65af54d01502ba3ac8b6198d,2024-01-23_08h01.07.301,bars,2023.2.3,MacIntel,60.24096386,657b66ea316d21385b68909f,,,,,,,,,,,,,,,,,,,,,,,,,,,,,,,,,,,,,,,,,,646.6034,647.2471,right,0.6339,,647.2472,3,2,648.2442,0,13,13,13,1,0,4,1,3,,,,,,,,,,,,,,,,,,,,,,,,,,,,,,,,,,,,,,,,,
,,60e2bf0aa568b97e8d525872,65af54d01502ba3ac8b6198d,2024-01-23_08h01.07.301,bars,2023.2.3,MacIntel,60.24096386,657b66ea316d21385b68909f,,,,,,,,,,,,,,,,,,,,,,,,,,,,,,,,,,,,,,,,,,648.2455,648.7628,left,0.5064,,648.7629,2,1,649.7604,0,14,14,14,1,2,6,2,7,,,,,,,,,,,,,,,,,,,,,,,,,,,,,,,,,,,,,,,,,
,,60e2bf0aa568b97e8d525872,65af54d01502ba3ac8b6198d,2024-01-23_08h01.07.301,bars,2023.2.3,MacIntel,60.24096386,657b66ea316d21385b68909f,,,,,,,,,,,,,,,,,,,,,,,,,,,,,,,,,,,,,,,,,,649.7609,650.5244,right,0.7487,,650.5245,9,2,651.522,0,15,15,15,1,4,8,3,9,,,,,,,,,,,,,,,,,,,,,,,,,,,,,,,,,,,,,,,,,
,,60e2bf0aa568b97e8d525872,65af54d01502ba3ac8b6198d,2024-01-23_08h01.07.301,bars,2023.2.3,MacIntel,60.24096386,657b66ea316d21385b68909f,,,,,,,,,,,,,,,,,,,,,,,,,,,,,,,,,,,,,,,,,,651.5223,652.7691,right,1.231,,652.7692,7,2,653.7689,0,16,16,16,1,6,6,7,7,,,,,,,,,,,,,,,,,,,,,,,,,,,,,,,,,,,,,,,,,
,,60e2bf0aa568b97e8d525872,65af54d01502ba3ac8b6198d,2024-01-23_08h01.07.301,bars,2023.2.3,MacIntel,60.24096386,657b66ea316d21385b68909f,,,,,,,,,,,,,,,,,,,,,,,,,,,,,,,,,,,,,,,,,,653.7694,656.3089,left,2.5304,,656.3089,9,1,657.3084,0,17,17,17,1,8,4,9,5,,,,,,,,,,,,,,,,,,,,,,,,,,,,,,,,,,,,,,,,,
,,60e2bf0aa568b97e8d525872,65af54d01502ba3ac8b6198d,2024-01-23_08h01.07.301,bars,2023.2.3,MacIntel,60.24096386,657b66ea316d21385b68909f,,,,,,,,,,,,,,,,,,,,,,,,,,,,,,,,,,,,,,,,,,657.3191,658.1551,right,0.8235,,658.1552,1,2,659.1525,0,18,18,18,1,6,2,5,1,,,,,,,,,,,,,,,,,,,,,,,,,,,,,,,,,,,,,,,,,
,,60e2bf0aa568b97e8d525872,65af54d01502ba3ac8b6198d,2024-01-23_08h01.07.301,bars,2023.2.3,MacIntel,60.24096386,657b66ea316d21385b68909f,,,,,,,,,,,,,,,,,,,,,,,,,,,,,,,,,,,,,,,,,,659.1528,660.1059,left,0.9329,,660.1059,7,1,661.0996,0,19,19,19,1,8,0,7,0,,,,,,,,,,,,,,,,,,,,,,,,,,,,,,,,,,,,,,,,,
,,60e2bf0aa568b97e8d525872,65af54d01502ba3ac8b6198d,2024-01-23_08h01.07.301,bars,2023.2.3,MacIntel,60.24096386,657b66ea316d21385b68909f,,,,,,,,,,,,,,,,,,,,,,,,,,,,,,,,,,,,,,,,,,,,,,,,,,,,,,,,,,,,661.1003,672.889,space,11.7727,,,,,,,,,,,,,,,,,,,,,,,,,,,,,,,,,,,,,
,,60e2bf0aa568b97e8d525872,65af54d01502ba3ac8b6198d,2024-01-23_08h01.07.301,bars,2023.2.3,MacIntel,60.24096386,657b66ea316d21385b68909f,,,,,,,,,,,674.4405,675.4331,,,675.9294,676.1795,,95,95,,,,,,,,,,,,,,,,bars/018.png,bars/mask001.png,,,,,,,,,,,,5,2,,,,,,,7,5,7,6,,,,,,672.9044,674.4352,space,1.5168,,675.4334,675.9294,676.1799,681.704,space,5.5041,,681.7043,55,5,682.699,682.6992,692.8608,space,10.1423,,0,0,0,0,1,150,90,,,,,,,,
,,60e2bf0aa568b97e8d525872,65af54d01502ba3ac8b6198d,2024-01-23_08h01.07.301,bars,2023.2.3,MacIntel,60.24096386,657b66ea316d21385b68909f,,,,,,,,,,,692.8742,693.8714,,,694.3694,694.6198,,76,76,,,,,,,,,,,,,,,,bars/010.png,bars/mask009.png,,,,,,,,,,,,2,2,,,,,,,5,7,5,7,,,,,,,,,,,693.8715,694.3694,694.6198,697.9156,space,3.2826,,697.9157,89,21,698.9102,698.9103,701.6382,space,2.709,,0,1,1,1,1,165,55,,,,,,,,
,,60e2bf0aa568b97e8d525872,65af54d01502ba3ac8b6198d,2024-01-23_08h01.07.301,bars,2023.2.3,MacIntel,60.24096386,657b66ea316d21385b68909f,,,,,,,,,,,701.6388,702.6366,,,703.134,703.3842,,131,131,,,,,,,,,,,,,,,,bars/034.png,bars/mask002.png,,,,,,,,,,,,3,1,,,,,,,3,5,4,4,,,,,,,,,,,702.6367,703.1339,703.3843,705.545,space,2.1494,,705.545,6,66,706.5434,706.5435,709.637,space,3.0728,,0,2,2,2,1,125,65,,,,,,,,
,,60e2bf0aa568b97e8d525872,65af54d01502ba3ac8b6198d,2024-01-23_08h01.07.301,bars,2023.2.3,MacIntel,60.24096386,657b66ea316d21385b68909f,,,,,,,,,,,709.6481,710.6481,,,711.1468,711.3978,,11,11,,,,,,,,,,,,,,,,bars/040.png,bars/mask003.png,,,,,,,,,,,,2,2,,,,,,,1,3,2,3,,,,,,,,,,,710.6484,711.1467,711.3979,715.2715,space,3.8579,,715.2715,51,6,716.2684,716.2684,719.9288,space,3.6276,,0,3,3,3,1,140,5,,,,,,,,
,,60e2bf0aa568b97e8d525872,65af54d01502ba3ac8b6198d,2024-01-23_08h01.07.301,bars,2023.2.3,MacIntel,60.24096386,657b66ea316d21385b68909f,,,,,,,,,,,719.9401,720.9419,,,721.4398,721.6888,,120,120,,,,,,,,,,,,,,,,bars/029.png,bars/mask002.png,,,,,,,,,,,,0,1,,,,,,,3,5,2,6,,,,,,,,,,,720.942,721.4398,721.6889,724.6999,space,2.9994,,724.6999,30,75,725.6986,725.6986,729.8542,space,4.1238,,0,4,4,4,1,90,45,,,,,,,,
,,60e2bf0aa568b97e8d525872,65af54d01502ba3ac8b6198d,2024-01-23_08h01.07.301,bars,2023.2.3,MacIntel,60.24096386,657b66ea316d21385b68909f,,,,,,,,,,,729.8655,730.8694,,,731.3749,731.6181,,107,107,,,,,,,,,,,,,,,,bars/030.png,bars/mask005.png,,,,,,,,,,,,0,1,,,,,,,1,3,3,2,,,,,,,,,,,730.8695,731.3749,731.6181,735.805,space,4.1771,,735.8051,33,42,736.8032,736.8032,739.6479,space,2.8215,,0,5,5,5,1,140,65,,,,,,,,
,,60e2bf0aa568b97e8d525872,65af54d01502ba3ac8b6198d,2024-01-23_08h01.07.301,bars,2023.2.3,MacIntel,60.24096386,657b66ea316d21385b68909f,,,,,,,,,,,739.6592,740.6624,,,741.1626,741.4126,,57,57,,,,,,,,,,,,,,,,bars/010.png,bars/mask008.png,,,,,,,,,,,,1,2,,,,,,,3,1,2,1,,,,,,,,,,,740.6625,741.1626,741.4127,743.6716,space,2.2429,,743.6718,72,2,744.6686,744.6687,748.4092,space,3.7292,,0,6,6,6,1,165,55,,,,,,,,
,,60e2bf0aa568b97e8d525872,65af54d01502ba3ac8b6198d,2024-01-23_08h01.07.301,bars,2023.2.3,MacIntel,60.24096386,657b66ea316d21385b68909f,,,,,,,,,,,748.4263,749.4234,,,749.9236,750.173,,75,75,,,,,,,,,,,,,,,,bars/022.png,bars/mask007.png,,,,,,,,,,,,2,1,,,,,,,5,0,6,0,,,,,,,,,,,749.4234,749.9236,750.173,755.9116,space,5.7304,,755.9116,20,55,756.9061,756.9062,759.799,space,2.8653,,0,7,7,7,1,95,20,,,,,,,,
,,60e2bf0aa568b97e8d525872,65af54d01502ba3ac8b6198d,2024-01-23_08h01.07.301,bars,2023.2.3,MacIntel,60.24096386,657b66ea316d21385b68909f,,,,,,,,,,,759.8103,760.8125,,,761.313,761.5624,,111,111,,,,,,,,,,,,,,,,bars/035.png,bars/mask001.png,,,,,,,,,,,,0,2,,,,,,,7,0,7,0,,,,,,,,,,,760.8126,761.313,761.5624,768.8938,space,7.3165,,768.8941,64,51,769.8922,769.8922,771.9712,space,2.0454,,0,8,8,8,1,175,60,,,,,,,,
,,60e2bf0aa568b97e8d525872,65af54d01502ba3ac8b6198d,2024-01-23_08h01.07.301,bars,2023.2.3,MacIntel,60.24096386,657b66ea316d21385b68909f,,,,,,,,,,,771.9715,772.9684,,,773.4674,773.7161,,60,60,,,,,,,,,,,,,,,,bars/005.png,bars/mask004.png,,,,,,,,,,,,0,1,,,,,,,9,0,9,1,,,,,,,,,,,772.9684,773.4674,773.7161,778.5875,space,4.8601,,778.5875,50,80,779.5864,779.5865,783.3793,space,3.7583,,0,9,9,9,1,10,140,,,,,,,,
,,60e2bf0aa568b97e8d525872,65af54d01502ba3ac8b6198d,2024-01-23_08h01.07.301,bars,2023.2.3,MacIntel,60.24096386,657b66ea316d21385b68909f,,,,,,,,,,,783.3915,784.3923,,,784.8931,785.1388,,48,48,,,,,,,,,,,,,,,,bars/002.png,bars/mask001.png,,,,,,,,,,,,0,2,,,,,,,10,2,9,1,,,,,,,,,,,784.3924,784.8931,785.1388,787.3837,space,2.2349,,787.3837,82,37,788.3829,788.3829,791.1767,space,2.763,,0,10,10,10,1,130,85,,,,,,,,
,,60e2bf0aa568b97e8d525872,65af54d01502ba3ac8b6198d,2024-01-23_08h01.07.301,bars,2023.2.3,MacIntel,60.24096386,657b66ea316d21385b68909f,,,,,,,,,,,791.1881,792.1886,,,792.6879,792.9374,,63,63,,,,,,,,,,,,,,,,bars/047.png,bars/mask002.png,,,,,,,,,,,,3,2,,,,,,,8,4,8,4,,,,,,,,,,,792.1887,792.6879,792.9374,793.9365,space,0.9823,,793.9365,48,7,794.934,794.934,797.0774,space,2.1261,,0,11,11,11,1,15,70,,,,,,,,
,,60e2bf0aa568b97e8d525872,65af54d01502ba3ac8b6198d,2024-01-23_08h01.07.301,bars,2023.2.3,MacIntel,60.24096386,657b66ea316d21385b68909f,,,,,,,,,,,797.0888,798.0777,,,798.5734,798.8238,,123,123,,,,,,,,,,,,,,,,bars/003.png,bars/mask006.png,,,,,,,,,,,,3,2,,,,,,,6,6,6,7,,,,,,,,,,,798.0778,798.5734,798.8238,799.9723,space,1.1344,,799.9726,82,17,800.9694,800.9694,803.0979,space,2.1131,,0,12,12,12,1,25,140,,,,,,,,
,,60e2bf0aa568b97e8d525872,65af54d01502ba3ac8b6198d,2024-01-23_08h01.07.301,bars,2023.2.3,MacIntel,60.24096386,657b66ea316d21385b68909f,,,,,,,,,,,803.1112,804.1118,,,804.6093,804.8602,,77,77,,,,,,,,,,,,,,,,bars/007.png,bars/mask005.png,,,,,,,,,,,,2,2,,,,,,,8,8,8,9,,,,,,,,,,,804.1119,804.6093,804.8603,807.5373,space,2.6618,,807.5374,82,22,808.5338,808.5339,810.082,space,1.5196,,0,13,13,13,1,175,55,,,,,,,,
,,60e2bf0aa568b97e8d525872,65af54d01502ba3ac8b6198d,2024-01-23_08h01.07.301,bars,2023.2.3,MacIntel,60.24096386,657b66ea316d21385b68909f,,,,,,,,,,,810.0825,811.0789,,,811.5786,811.8277,,122,122,,,,,,,,,,,,,,,,bars/045.png,bars/mask005.png,,,,,,,,,,,,2,1,,,,,,,10,6,9,6,,,,,,,,,,,811.0789,811.5785,811.8277,816.5664,space,4.7314,,816.5665,22,68,817.5642,817.5643,822.8346,space,5.2412,,0,14,14,14,1,100,10,,,,,,,,
,,60e2bf0aa568b97e8d525872,65af54d01502ba3ac8b6198d,2024-01-23_08h01.07.301,bars,2023.2.3,MacIntel,60.24096386,657b66ea316d21385b68909f,,,,,,,,,,,822.8456,823.848,,,824.3479,824.5988,,81,81,,,,,,,,,,,,,,,,bars/027.png,bars/mask002.png,,,,,,,,,,,,0,1,,,,,,,10,4,10,3,,,,,,,,,,,823.8481,824.3478,824.5988,831.2971,space,6.6851,,831.2972,29,31,832.2956,832.2957,834.3411,space,2.0208,,0,15,15,15,1,110,50,,,,,,,,
,,60e2bf0aa568b97e8d525872,65af54d01502ba3ac8b6198d,2024-01-23_08h01.07.301,bars,2023.2.3,MacIntel,60.24096386,657b66ea316d21385b68909f,,,,,,,,,,,834.3416,835.3381,,,835.8363,836.0856,,162,162,,,,,,,,,,,,,,,,bars/047.png,bars/mask000.png,,,,,,,,,,,,0,1,,,,,,,10,6,10,5,,,,,,,,,,,835.3382,835.8362,836.0856,839.4608,space,3.362,,839.4608,33,88,840.4599,840.4599,844.5515,space,4.0621,,0,16,16,16,1,15,70,,,,,,,,
,,60e2bf0aa568b97e8d525872,65af54d01502ba3ac8b6198d,2024-01-23_08h01.07.301,bars,2023.2.3,MacIntel,60.24096386,657b66ea316d21385b68909f,,,,,,,,,,,844.5628,845.5635,,,846.0619,846.3144,,40,40,,,,,,,,,,,,,,,,bars/010.png,bars/mask002.png,,,,,,,,,,,,3,2,,,,,,,10,4,10,5,,,,,,,,,,,845.5636,846.0619,846.3145,849.987,space,3.6592,,849.9871,55,15,850.985,850.985,853.4283,space,2.4131,,0,17,17,17,1,165,55,,,,,,,,
,,60e2bf0aa568b97e8d525872,65af54d01502ba3ac8b6198d,2024-01-23_08h01.07.301,bars,2023.2.3,MacIntel,60.24096386,657b66ea316d21385b68909f,,,,,,,,,,,853.4404,854.4446,,,854.9421,855.1929,,25,25,,,,,,,,,,,,,,,,bars/013.png,bars/mask004.png,,,,,,,,,,,,4,2,,,,,,,10,6,10,7,,,,,,,,,,,854.4447,854.9421,855.1929,856.1046,space,0.9002,,856.1048,50,15,857.1022,857.1022,858.6987,space,1.5791,,0,18,18,18,1,75,10,,,,,,,,
,,60e2bf0aa568b97e8d525872,65af54d01502ba3ac8b6198d,2024-01-23_08h01.07.301,bars,2023.2.3,MacIntel,60.24096386,657b66ea316d21385b68909f,,,,,,,,,,,858.6989,859.698,,,860.1972,860.4482,,125,125,,,,,,,,,,,,,,,,bars/005.png,bars/mask000.png,,,,,,,,,,,,5,2,,,,,,,10,8,10,9,,,,,,,,,,,859.6981,860.1972,860.4482,865.4497,space,4.9885,,865.4497,65,15,866.4468,866.4468,868.5604,space,2.0932,,0,19,19,19,1,10,140,,,,,,,,
,,60e2bf0aa568b97e8d525872,65af54d01502ba3ac8b6198d,2024-01-23_08h01.07.301,bars,2023.2.3,MacIntel,60.24096386,657b66ea316d21385b68909f,,,,,,,,,,,868.5608,869.5584,,,870.0555,870.3056,,110,110,,,,,,,,,,,,,,,,bars/006.png,bars/mask004.png,,,,,,,,,,,,6,2,,,,,,,8,10,6,9,,,,,,,,,,,869.5584,870.0555,870.3056,880.1332,space,9.8116,,880.1333,75,10,881.1292,881.1293,883.4911,space,2.3389,,0,20,20,20,1,35,100,,,,,,,,
,,60e2bf0aa568b97e8d525872,65af54d01502ba3ac8b6198d,2024-01-23_08h01.07.301,bars,2023.2.3,MacIntel,60.24096386,657b66ea316d21385b68909f,,,,,,,,,,,883.4918,884.4877,,,884.9863,885.237,,96,96,,,,,,,,,,,,,,,,bars/006.png,bars/mask003.png,,,,,,,,,,,,8,2,,,,,,,6,10,6,9,,,,,,,,,,,884.4877,884.9863,885.237,894.8982,space,9.6456,,894.8982,61,4,895.8946,895.8947,898.6078,space,2.6893,,0,21,21,21,1,35,100,,,,,,,,
,,60e2bf0aa568b97e8d525872,65af54d01502ba3ac8b6198d,2024-01-23_08h01.07.301,bars,2023.2.3,MacIntel,60.24096386,657b66ea316d21385b68909f,,,,,,,,,,,898.6086,899.6037,,,900.1032,900.3522,,98,98,,,,,,,,,,,,,,,,bars/038.png,bars/mask005.png,,,,,,,,,,,,1,2,,,,,,,4,8,3,9,,,,,,,,,,,899.6038,900.1032,900.3522,905.6888,space,5.3284,,905.6888,67,28,906.685,906.685,908.9985,space,2.2939,,0,22,22,22,1,165,70,,,,,,,,
,,60e2bf0aa568b97e8d525872,65af54d01502ba3ac8b6198d,2024-01-23_08h01.07.301,bars,2023.2.3,MacIntel,60.24096386,657b66ea316d21385b68909f,,,,,,,,,,,908.999,909.995,,,910.4938,910.7458,,44,44,,,,,,,,,,,,,,,,bars/029.png,bars/mask000.png,,,,,,,,,,,,10,2,,,,,,,6,10,5,10,,,,,,,,,,,909.995,910.4938,910.7459,913.1048,space,2.344,,913.105,46,1,914.1051,914.1053,915.7645,space,1.6352,,0,23,23,23,1,90,45,,,,,,,,
,,60e2bf0aa568b97e8d525872,65af54d01502ba3ac8b6198d,2024-01-23_08h01.07.301,bars,2023.2.3,MacIntel,60.24096386,657b66ea316d21385b68909f,,,,,,,,,,,915.7649,916.7609,,,917.2602,917.5112,,14,14,,,,,,,,,,,,,,,,bars/012.png,bars/mask009.png,,,,,,,,,,,,10,2,,,,,,,8,10,8,10,,,,,,,,,,,916.7609,917.2601,917.5113,922.8479,space,5.3231,,922.848,76,1,923.8465,923.8466,925.6745,space,1.799,,0,24,24,24,1,90,15,,,,,,,,
,,60e2bf0aa568b97e8d525872,65af54d01502ba3ac8b6198d,2024-01-23_08h01.07.301,bars,2023.2.3,MacIntel,60.24096386,657b66ea316d21385b68909f,,,,,,,,,,,925.6748,926.6736,,,927.172,927.4218,,97,97,,,,,,,,,,,,,,,,bars/018.png,bars/mask009.png,,,,,,,,,,,,5,2,,,,,,,6,8,7,7,,,,,,,,,,,926.6737,927.1719,927.4218,931.3781,space,3.9492,,931.3782,53,7,932.3756,932.3756,935.9853,space,3.5822,,0,25,25,25,1,150,90,,,,,,,,
,,60e2bf0aa568b97e8d525872,65af54d01502ba3ac8b6198d,2024-01-23_08h01.07.301,bars,2023.2.3,MacIntel,60.24096386,657b66ea316d21385b68909f,,,,,,,,,,,935.9966,936.9978,,,937.4974,937.7458,,7,187,,,,,,,,,,,,,,,,bars/013.png,bars/mask007.png,,,,,,,,,,,,5,2,,,,,,,4,6,4,6,,,,,,,,,,,936.9978,937.4972,937.7459,940.4728,space,2.7103,,940.4728,68,3,941.474,941.4741,943.416,space,1.9182,,0,26,26,26,1,75,10,,,,,,,,
,,60e2bf0aa568b97e8d525872,65af54d01502ba3ac8b6198d,2024-01-23_08h01.07.301,bars,2023.2.3,MacIntel,60.24096386,657b66ea316d21385b68909f,,,,,,,,,,,943.4163,944.4143,,,944.9117,945.1619,,150,150,,,,,,,,,,,,,,,,bars/008.png,bars/mask000.png,,,,,,,,,,,,0,2,,,,,,,2,8,3,7,,,,,,,,,,,944.4143,944.9117,945.162,948.6389,space,3.4641,,948.6389,40,30,949.6372,949.6373,952.6786,space,3.0141,,0,27,27,27,1,110,0,,,,,,,,
,,60e2bf0aa568b97e8d525872,65af54d01502ba3ac8b6198d,2024-01-23_08h01.07.301,bars,2023.2.3,MacIntel,60.24096386,657b66ea316d21385b68909f,,,,,,,,,,,952.6904,953.6933,,,954.1905,954.4414,,60,60,,,,,,,,,,,,,,,,bars/034.png,bars/mask002.png,,,,,,,,,,,,8,2,,,,,,,0,10,0,10,,,,,,,,,,,953.6933,954.1905,954.4414,955.9539,space,1.4992,,955.9539,65,5,956.9521,956.9521,958.3483,space,1.3807,,0,28,28,28,1,125,65,,,,,,,,
,,60e2bf0aa568b97e8d525872,65af54d01502ba3ac8b6198d,2024-01-23_08h01.07.301,bars,2023.2.3,MacIntel,60.24096386,657b66ea316d21385b68909f,,,,,,,,,,,958.3488,959.3446,,,959.845,960.0941,,115,115,,,,,,,,,,,,,,,,bars/036.png,bars/mask009.png,,,,,,,,,,,,0,1,,,,,,,0,8,1,9,,,,,,,,,,,959.3446,959.8449,960.0942,962.6409,space,2.5313,,962.6411,30,85,963.6356,963.6357,965.5143,space,1.8517,,0,29,29,29,1,145,20,,,,,,,,
,,60e2bf0aa568b97e8d525872,65af54d01502ba3ac8b6198d,2024-01-23_08h01.07.301,bars,2023.2.3,MacIntel,60.24096386,657b66ea316d21385b68909f,,,,,,,,,,,965.5147,966.5115,,,967.0102,967.2597,,21,21,,,,,,,,,,,,,,,,bars/017.png,bars/mask001.png,,,,,,,,,,,,1,2,,,,,,,0,6,0,5,,,,,,,,,,,966.5116,967.0101,967.2598,969.2103,space,1.9287,,969.2103,56,24,970.2043,970.2044,971.8339,space,1.5996,,0,30,30,30,1,145,45,,,,,,,,
,,60e2bf0aa568b97e8d525872,65af54d01502ba3ac8b6198d,2024-01-23_08h01.07.301,bars,2023.2.3,MacIntel,60.24096386,657b66ea316d21385b68909f,,,,,,,,,,,971.8348,972.8301,,,973.3284,973.5799,,109,109,,,,,,,,,,,,,,,,bars/049.png,bars/mask006.png,,,,,,,,,,,,7,2,,,,,,,2,8,3,9,,,,,,,,,,,972.8301,973.3282,973.58,983.1735,space,9.5821,,983.1735,51,6,984.1697,984.1697,986.7979,space,2.6022,,0,31,31,31,1,160,115,,,,,,,,
,,60e2bf0aa568b97e8d525872,65af54d01502ba3ac8b6198d,2024-01-23_08h01.07.301,bars,2023.2.3,MacIntel,60.24096386,657b66ea316d21385b68909f,,,,,,,,,,,986.7982,987.7954,,,988.2933,988.545,,152,152,,,,,,,,,,,,,,,,bars/045.png,bars/mask009.png,,,,,,,,,,,,0,2,,,,,,,0,10,0,9,,,,,,,,,,,987.7955,988.2933,988.545,991.8682,space,3.3119,,991.8682,52,38,992.8682,992.8682,994.0475,space,1.1532,,0,32,32,32,1,100,10,,,,,,,,
,,60e2bf0aa568b97e8d525872,65af54d01502ba3ac8b6198d,2024-01-23_08h01.07.301,bars,2023.2.3,MacIntel,60.24096386,657b66ea316d21385b68909f,,,,,,,,,,,994.0483,995.0448,,,995.5447,995.7926,,81,81,,,,,,,,,,,,,,,,bars/014.png,bars/mask007.png,,,,,,,,,,,,3,1,,,,,,,2,10,3,10,,,,,,,,,,,995.045,995.5446,995.7926,996.2415,space,0.4343,,996.2415,1,81,997.239,997.239,999.2023,space,1.9491,,0,33,33,33,1,80,0,,,,,,,,
,,60e2bf0aa568b97e8d525872,65af54d01502ba3ac8b6198d,2024-01-23_08h01.07.301,bars,2023.2.3,MacIntel,60.24096386,657b66ea316d21385b68909f,,,,,,,,,,,999.2027,1000.1994,,,1000.6993,1000.9514,,51,231,,,,,,,,,,,,,,,,bars/047.png,bars/mask009.png,,,,,,,,,,,,4,2,,,,,,,0,10,0,10,,,,,,,,,,,1000.1995,1000.6993,1000.9515,1007.0827,space,6.1195,,1007.0828,36,19,1008.0797,1008.0798,1010.3103,space,2.2072,,0,34,34,34,1,15,70,,,,,,,,
,,60e2bf0aa568b97e8d525872,65af54d01502ba3ac8b6198d,2024-01-23_08h01.07.301,bars,2023.2.3,MacIntel,60.24096386,657b66ea316d21385b68909f,,,,,,,,,,,1010.3214,1011.3242,,,1011.8229,1012.0715,,135,135,,,,,,,,,,,,,,,,bars/000.png,bars/mask004.png,,,,,,,,,,,,7,2,,,,,,,2,10,2,10,,,,,,,,,,,1011.3243,1011.8229,1012.0715,1017.3268,space,5.2436,,1017.3269,85,10,1018.3232,1018.3232,1019.7711,space,1.426,,0,35,35,35,1,40,145,,,,,,,,
,,60e2bf0aa568b97e8d525872,65af54d01502ba3ac8b6198d,2024-01-23_08h01.07.301,bars,2023.2.3,MacIntel,60.24096386,657b66ea316d21385b68909f,,,,,,,,,,,1019.7717,1020.7681,,,1021.2667,1021.5169,,54,54,,,,,,,,,,,,,,,,bars/022.png,bars/mask008.png,,,,,,,,,,,,0,2,,,,,,,0,10,0,10,,,,,,,,,,,1020.7682,1021.2667,1021.5169,1024.3425,space,2.8167,,1024.3426,41,34,1025.3407,1025.3407,1026.389,space,1.0233,,0,36,36,36,1,95,20,,,,,,,,
,,60e2bf0aa568b97e8d525872,65af54d01502ba3ac8b6198d,2024-01-23_08h01.07.301,bars,2023.2.3,MacIntel,60.24096386,657b66ea316d21385b68909f,,,,,,,,,,,1026.3894,1027.3863,,,1027.8858,1028.1331,,15,15,,,,,,,,,,,,,,,,bars/036.png,bars/mask001.png,,,,,,,,,,,,8,2,,,,,,,0,10,1,10,,,,,,,,,,,1027.3864,1027.8858,1028.1331,1033.6706,space,5.5221,,1033.6706,50,5,1034.667,1034.667,1036.3314,space,1.6406,,0,37,37,37,1,145,20,,,,,,,,
,,60e2bf0aa568b97e8d525872,65af54d01502ba3ac8b6198d,2024-01-23_08h01.07.301,bars,2023.2.3,MacIntel,60.24096386,657b66ea316d21385b68909f,,,,,,,,,,,1036.3318,1037.3287,,,1037.8291,1038.0763,,148,-32,,,,,,,,,,,,,,,,bars/003.png,bars/mask000.png,,,,,,,,,,,,7,2,,,,,,,2,8,1,9,,,,,,,,,,,1037.3287,1037.8291,1038.0763,1047.1556,space,9.0682,,1047.1556,57,8,1048.1532,1048.1533,1050.6158,space,2.4442,,0,38,38,38,1,25,140,,,,,,,,
,,60e2bf0aa568b97e8d525872,65af54d01502ba3ac8b6198d,2024-01-23_08h01.07.301,bars,2023.2.3,MacIntel,60.24096386,657b66ea316d21385b68909f,,,,,,,,,,,1050.6163,1051.6145,,,1052.1106,1052.3595,,64,64,,,,,,,,,,,,,,,,bars/030.png,bars/mask006.png,,,,,,,,,,,,10,2,,,,,,,4,10,4,10,,,,,,,,,,,1051.6146,1052.1106,1052.3595,1058.4448,space,6.0717,,1058.4449,76,1,1059.4436,1059.4436,1060.8408,space,1.371,,0,39,39,39,1,140,65,,,,,,,,
,,60e2bf0aa568b97e8d525872,65af54d01502ba3ac8b6198d,2024-01-23_08h01.07.301,bars,2023.2.3,MacIntel,60.24096386,657b66ea316d21385b68909f,,,,,,,,,,,1060.8413,1061.8381,,,1062.3361,1062.586,,55,235,,,,,,,,,,,,,,,,bars/042.png,bars/mask008.png,,,,,,,,,,,,3,2,,,,,,,6,10,6,10,,,,,,,,,,,1061.8381,1062.3361,1062.5861,1069.6208,space,7.0198,,1069.6209,90,20,1070.6196,1070.6197,1071.5832,space,0.9379,,0,40,40,40,1,145,75,,,,,,,,
,,60e2bf0aa568b97e8d525872,65af54d01502ba3ac8b6198d,2024-01-23_08h01.07.301,bars,2023.2.3,MacIntel,60.24096386,657b66ea316d21385b68909f,,,,,,,,,,,1071.5838,1072.5797,,,1073.0791,1073.3273,,93,93,,,,,,,,,,,,,,,,bars/019.png,bars/mask004.png,,,,,,,,,,,,6,2,,,,,,,8,10,9,10,,,,,,,,,,,1072.5798,1073.0791,1073.3274,1076.2719,space,2.9282,,1076.2719,48,12,1077.2679,1077.2679,1078.3484,space,1.0574,,0,41,41,41,1,45,105,,,,,,,,
,,60e2bf0aa568b97e8d525872,65af54d01502ba3ac8b6198d,2024-01-23_08h01.07.301,bars,2023.2.3,MacIntel,60.24096386,657b66ea316d21385b68909f,,,,,,,,,,,1078.349,1079.3458,,,1079.8465,1080.0985,,58,58,,,,,,,,,,,,,,,,bars/031.png,bars/mask008.png,,,,,,,,,,,,2,2,,,,,,,6,10,4,10,,,,,,,,,,,1079.3458,1079.8464,1080.0985,1083.4235,space,3.3074,,1083.4236,62,23,1084.4189,1084.4189,1085.4812,space,1.0377,,0,42,42,42,1,120,35,,,,,,,,
,,60e2bf0aa568b97e8d525872,65af54d01502ba3ac8b6198d,2024-01-23_08h01.07.301,bars,2023.2.3,MacIntel,60.24096386,657b66ea316d21385b68909f,,,,,,,,,,,1085.4815,1086.4801,,,1086.9788,1087.2274,,83,83,,,,,,,,,,,,,,,,bars/028.png,bars/mask004.png,,,,,,,,,,,,0,2,,,,,,,8,8,6,8,,,,,,,,,,,1086.4801,1086.9788,1087.2277,1088.4771,space,1.2296,,1088.4771,38,37,1089.4719,1089.4719,1092.7824,space,3.2995,,0,43,43,43,1,45,120,,,,,,,,
,,60e2bf0aa568b97e8d525872,65af54d01502ba3ac8b6198d,2024-01-23_08h01.07.301,bars,2023.2.3,MacIntel,60.24096386,657b66ea316d21385b68909f,,,,,,,,,,,1092.7932,1093.7966,,,1094.2944,1094.5471,,60,60,,,,,,,,,,,,,,,,bars/044.png,bars/mask006.png,,,,,,,,,,,,3,1,,,,,,,6,10,5,9,,,,,,,,,,,1093.7967,1094.2942,1094.5472,1098.1014,space,3.5436,,1098.1015,15,85,1099.103,1099.1031,1100.4832,space,1.3536,,0,44,44,44,1,75,155,,,,,,,,
,,60e2bf0aa568b97e8d525872,65af54d01502ba3ac8b6198d,2024-01-23_08h01.07.301,bars,2023.2.3,MacIntel,60.24096386,657b66ea316d21385b68909f,,,,,,,,,,,1100.4836,1101.4776,,,1101.9754,1102.2246,,10,190,,,,,,,,,,,,,,,,bars/014.png,bars/mask007.png,,,,,,,,,,,,5,2,,,,,,,4,8,3,8,,,,,,,,,,,1101.4776,1101.9754,1102.2246,1105.8351,space,3.5924,,1105.8351,70,10,1106.8304,1106.8304,1108.1446,space,1.281,,0,45,45,45,1,80,0,,,,,,,,
,,60e2bf0aa568b97e8d525872,65af54d01502ba3ac8b6198d,2024-01-23_08h01.07.301,bars,2023.2.3,MacIntel,60.24096386,657b66ea316d21385b68909f,,,,,,,,,,,1108.1452,1109.1422,,,1109.64,1109.8915,,27,27,,,,,,,,,,,,,,,,bars/048.png,bars/mask005.png,,,,,,,,,,,,1,1,,,,,,,2,6,3,7,,,,,,,,,,,1109.1423,1109.64,1109.8915,1116.0924,space,6.1861,,1116.0924,23,32,1117.0914,1117.0915,1118.0073,space,0.8844,,0,46,46,46,1,50,175,,,,,,,,
,,60e2bf0aa568b97e8d525872,65af54d01502ba3ac8b6198d,2024-01-23_08h01.07.301,bars,2023.2.3,MacIntel,60.24096386,657b66ea316d21385b68909f,,,,,,,,,,,1118.0078,1119.0037,,,1119.5016,1119.7497,,95,95,,,,,,,,,,,,,,,,bars/039.png,bars/mask003.png,,,,,,,,,,,,3,2,,,,,,,4,4,4,4,,,,,,,,,,,1119.0038,1119.5016,1119.7498,1120.8983,space,1.1336,,1120.8983,80,10,1121.8958,1121.8958,1123.3753,space,1.461,,0,47,47,47,1,175,105,,,,,,,,
,,60e2bf0aa568b97e8d525872,65af54d01502ba3ac8b6198d,2024-01-23_08h01.07.301,bars,2023.2.3,MacIntel,60.24096386,657b66ea316d21385b68909f,,,,,,,,,,,1123.3758,1124.3736,,,1124.8718,1125.1217,,98,98,,,,,,,,,,,,,,,,bars/023.png,bars/mask005.png,,,,,,,,,,,,1,2,,,,,,,2,2,3,3,,,,,,,,,,,1124.3737,1124.8717,1125.1217,1128.4311,space,3.2964,,1128.4312,78,17,1129.4273,1129.4274,1130.575,space,1.1211,,0,48,48,48,1,20,115,,,,,,,,
,,60e2bf0aa568b97e8d525872,65af54d01502ba3ac8b6198d,2024-01-23_08h01.07.301,bars,2023.2.3,MacIntel,60.24096386,657b66ea316d21385b68909f,,,,,,,,,,,1130.5754,1131.5735,,,1132.0725,1132.3215,,179,-1,,,,,,,,,,,,,,,,bars/012.png,bars/mask003.png,,,,,,,,,,,,0,2,,,,,,,4,0,3,0,,,,,,,,,,,1131.5735,1132.0724,1132.3216,1134.9491,space,2.6138,,1134.9493,89,16,1135.945,1135.9451,1136.8428,space,0.8768,,0,49,49,49,1,90,15,,,,,,,,
,,60e2bf0aa568b97e8d525872,65af54d01502ba3ac8b6198d,2024-01-23_08h01.07.301,bars,2023.2.3,MacIntel,60.24096386,657b66ea316d21385b68909f,,,,,,,,,,,,,,,,,,,,,,,,,,,,,,,,,,,,,,,,,,,,,,,,,,,,,,,,,,,,,,,,,,,,,,,,,,,,,,,,,,,,,,,,,,,,,1136.8434,1196.8373,0,0,0,0,1,sequence_tables/blk007.csv
,,60e2bf0aa568b97e8d525872,65af54d01502ba3ac8b6198d,2024-01-23_08h01.07.301,bars,2023.2.3,MacIntel,60.24096386,657b66ea316d21385b68909f,,,,,,,,,,,1207.709,1208.6908,,,1209.195,1209.441,,111,111,,,,,,,,,,,,,,,,bars/006.png,bars/mask003.png,,,,,,,,,,,,6,2,,,,,,,0,10,1,9,,,,,,1196.8488,1207.6802,space,10.8158,,1208.6908,1209.195,1209.4411,1216.0733,space,6.6121,0.0003,1216.0733,76,11,1217.0709,1217.071,1217.0837,,,,0,0,0,0,1,35,100,,,,,,,,
,,60e2bf0aa568b97e8d525872,65af54d01502ba3ac8b6198d,2024-01-23_08h01.07.301,bars,2023.2.3,MacIntel,60.24096386,657b66ea316d21385b68909f,,,,,,,,,,,1217.084,1218.0852,,,1218.584,1218.8342,,30,30,,,,,,,,,,,,,,,,bars/035.png,bars/mask006.png,,,,,,,,,,,,0,2,,,,,,,0,10,0,10,,,,,,,,,,,1218.0853,1218.584,1218.8342,1221.5614,space,2.7123,,1221.5615,35,30,1222.5575,1222.5575,1222.57,,,,0,1,1,1,1,175,60,,,,,,,,
,,60e2bf0aa568b97e8d525872,65af54d01502ba3ac8b6198d,2024-01-23_08h01.07.301,bars,2023.2.3,MacIntel,60.24096386,657b66ea316d21385b68909f,,,,,,,,,,,1222.5702,1223.5724,,,1224.0711,1224.32,,176,176,,,,,,,,,,,,,,,,bars/008.png,bars/mask003.png,,,,,,,,,,,,9,2,,,,,,,0,10,0,10,,,,,,,,,,,1223.5724,1224.071,1224.32,1225.4861,space,1.1531,,1225.4861,66,4,1226.4843,1226.4843,1226.4856,,,,0,2,2,2,1,110,0,,,,,,,,
,,60e2bf0aa568b97e8d525872,65af54d01502ba3ac8b6198d,2024-01-23_08h01.07.301,bars,2023.2.3,MacIntel,60.24096386,657b66ea316d21385b68909f,,,,,,,,,,,1226.4863,1227.4796,,,1227.9804,1228.2288,,103,103,,,,,,,,,,,,,,,,bars/000.png,bars/mask003.png,,,,,,,,,,,,0,2,,,,,,,0,8,0,9,,,,,,,,,,,1227.4797,1227.9804,1228.2288,1233.3327,space,5.088,,1233.3327,63,42,1234.3303,1234.3304,1234.3418,,,,0,3,3,3,1,40,145,,,,,,,,
,,60e2bf0aa568b97e8d525872,65af54d01502ba3ac8b6198d,2024-01-23_08h01.07.301,bars,2023.2.3,MacIntel,60.24096386,657b66ea316d21385b68909f,,,,,,,,,,,1234.342,1235.3452,,,1235.8455,1236.0926,,110,110,,,,,,,,,,,,,,,,bars/043.png,bars/mask009.png,,,,,,,,,,,,3,2,,,,,,,2,10,3,10,,,,,,,,,,,1235.3455,1235.8455,1236.0927,1240.4685,space,4.3583,,1240.4686,80,20,1241.4673,1241.4674,1241.4787,,,,0,4,4,4,1,30,130,,,,,,,,
,,60e2bf0aa568b97e8d525872,65af54d01502ba3ac8b6198d,2024-01-23_08h01.07.301,bars,2023.2.3,MacIntel,60.24096386,657b66ea316d21385b68909f,,,,,,,,,,,1241.4789,1242.4777,,,1242.9779,1243.2274,,109,109,,,,,,,,,,,,,,,,bars/004.png,bars/mask002.png,,,,,,,,,,,,5,2,,,,,,,0,10,0,10,,,,,,,,,,,1242.4777,1242.9778,1243.2274,1245.3722,space,2.1299,,1245.3723,84,16,1246.3685,1246.3686,1246.3802,,,,0,5,5,5,1,25,125,,,,,,,,
,,60e2bf0aa568b97e8d525872,65af54d01502ba3ac8b6198d,2024-01-23_08h01.07.301,bars,2023.2.3,MacIntel,60.24096386,657b66ea316d21385b68909f,,,,,,,,,,,1246.3804,1247.3841,,,1247.882,1248.1298,,82,82,,,,,,,,,,,,,,,,bars/049.png,bars/mask006.png,,,,,,,,,,,,0,2,,,,,,,2,10,1,10,,,,,,,,,,,1247.3841,1247.8819,1248.1299,1249.9769,space,1.835,,1249.977,78,33,1250.9742,1250.9743,1250.9754,,,,0,6,6,6,1,160,115,,,,,,,,
,,60e2bf0aa568b97e8d525872,65af54d01502ba3ac8b6198d,2024-01-23_08h01.07.301,bars,2023.2.3,MacIntel,60.24096386,657b66ea316d21385b68909f,,,,,,,,,,,1250.9758,1251.9732,,,1252.4718,1252.7211,,63,63,,,,,,,,,,,,,,,,bars/007.png,bars/mask003.png,,,,,,,,,,,,7,2,,,,,,,0,10,0,9,,,,,,,,,,,1251.9733,1252.4718,1252.7211,1254.7497,space,2.0129,,1254.7498,68,8,1255.7483,1255.7484,1255.7494,,,,0,7,7,7,1,175,55,,,,,,,,
,,60e2bf0aa568b97e8d525872,65af54d01502ba3ac8b6198d,2024-01-23_08h01.07.301,bars,2023.2.3,MacIntel,60.24096386,657b66ea316d21385b68909f,,,,,,,,,,,1255.7499,1256.7458,,,1257.2428,1257.4932,,71,71,,,,,,,,,,,,,,,,bars/010.png,bars/mask007.png,,,,,,,,,,,,3,2,,,,,,,2,8,2,7,,,,,,,,,,,1256.7459,1257.2427,1257.4932,1261.5015,space,3.9921,,1261.5015,86,16,1262.5001,1262.5001,1262.5123,,,,0,8,8,8,1,165,55,,,,,,,,
,,60e2bf0aa568b97e8d525872,65af54d01502ba3ac8b6198d,2024-01-23_08h01.07.301,bars,2023.2.3,MacIntel,60.24096386,657b66ea316d21385b68909f,,,,,,,,,,,1262.5125,1263.5138,,,1264.0119,1264.2608,,47,47,,,,,,,,,,,,,,,,bars/029.png,bars/mask006.png,,,,,,,,,,,,6,2,,,,,,,0,6,1,6,,,,,,,,,,,1263.5138,1264.0119,1264.2608,1265.1587,space,0.8894,,1265.1588,43,2,1266.1547,1266.1548,1266.1553,,,,0,9,9,9,1,90,45,,,,,,,,
,,60e2bf0aa568b97e8d525872,65af54d01502ba3ac8b6198d,2024-01-23_08h01.07.301,bars,2023.2.3,MacIntel,60.24096386,657b66ea316d21385b68909f,,,,,,,,,,,1266.1561,1267.1536,,,1267.6522,1267.9029,,68,68,,,,,,,,,,,,,,,,bars/025.png,bars/mask006.png,,,,,,,,,,,,0,2,,,,,,,2,8,2,7,,,,,,,,,,,1267.1536,1267.6521,1267.9029,1273.4728,space,5.5545,,1273.4729,37,28,1274.4702,1274.4702,1274.482,,,,0,10,10,10,1,105,40,,,,,,,,
,,60e2bf0aa568b97e8d525872,65af54d01502ba3ac8b6198d,2024-01-23_08h01.07.301,bars,2023.2.3,MacIntel,60.24096386,657b66ea316d21385b68909f,,,,,,,,,,,1274.4822,1275.4832,,,1275.9824,1276.2314,,138,138,,,,,,,,,,,,,,,,bars/044.png,bars/mask008.png,,,,,,,,,,,,3,2,,,,,,,0,6,0,6,,,,,,,,,,,1275.4833,1275.9823,1276.2314,1276.5977,space,0.3537,,1276.5979,63,17,1277.5959,1277.5959,1277.5967,,,,0,11,11,11,1,75,155,,,,,,,,
,,60e2bf0aa568b97e8d525872,65af54d01502ba3ac8b6198d,2024-01-23_08h01.07.301,bars,2023.2.3,MacIntel,60.24096386,657b66ea316d21385b68909f,,,,,,,,,,,1277.5973,1278.5938,,,1279.0918,1279.3403,,93,93,,,,,,,,,,,,,,,,bars/021.png,bars/mask006.png,,,,,,,,,,,,1,2,,,,,,,0,4,0,5,,,,,,,,,,,1278.594,1279.0918,1279.3404,1280.1714,space,0.8198,,1280.1714,62,23,1281.1705,1281.1705,1281.1714,,,,0,12,12,12,1,155,70,,,,,,,,
,,60e2bf0aa568b97e8d525872,65af54d01502ba3ac8b6198d,2024-01-23_08h01.07.301,bars,2023.2.3,MacIntel,60.24096386,657b66ea316d21385b68909f,,,,,,,,,,,1281.1717,1282.1678,,,1282.6665,1282.9165,,95,95,,,,,,,,,,,,,,,,bars/006.png,bars/mask009.png,,,,,,,,,,,,3,2,,,,,,,2,2,2,3,,,,,,,,,,,1282.1678,1282.6665,1282.9166,1287.871,space,4.9393,,1287.8711,60,5,1288.8691,1288.8692,1288.8807,,,,0,13,13,13,1,35,100,,,,,,,,
,,60e2bf0aa568b97e8d525872,65af54d01502ba3ac8b6198d,2024-01-23_08h01.07.301,bars,2023.2.3,MacIntel,60.24096386,657b66ea316d21385b68909f,,,,,,,,,,,1288.881,1289.8852,,,1290.3814,1290.6307,,138,138,,,,,,,,,,,,,,,,bars/015.png,bars/mask000.png,,,,,,,,,,,,1,2,,,,,,,4,4,5,4,,,,,,,,,,,1289.8853,1290.3814,1290.6307,1296.8661,space,6.2231,,1296.8661,28,22,1297.8633,1297.8633,1297.8756,,,,0,14,14,14,1,110,160,,,,,,,,
,,60e2bf0aa568b97e8d525872,65af54d01502ba3ac8b6198d,2024-01-23_08h01.07.301,bars,2023.2.3,MacIntel,60.24096386,657b66ea316d21385b68909f,,,,,,,,,,,1297.8759,1298.882,,,1299.3783,1299.6264,,72,72,,,,,,,,,,,,,,,,bars/006.png,bars/mask006.png,,,,,,,,,,,,0,2,,,,,,,2,6,0,3,,,,,,,,,,,1298.8821,1299.3782,1299.6264,1302.3043,space,2.6622,,1302.3045,37,28,1303.3011,1303.3011,1303.3136,,,,0,15,15,15,1,35,100,,,,,,,,
,,60e2bf0aa568b97e8d525872,65af54d01502ba3ac8b6198d,2024-01-23_08h01.07.301,bars,2023.2.3,MacIntel,60.24096386,657b66ea316d21385b68909f,,,,,,,,,,,1303.3138,1304.3169,,,1304.8153,1305.0641,,33,213,,,,,,,,,,,,,,,,bars/044.png,bars/mask000.png,,,,,,,,,,,,0,1,,,,,,,4,4,3,4,,,,,,,,,,,1304.3169,1304.8153,1305.0642,1310.3843,space,5.3078,,1310.3844,42,58,1311.385,1311.3851,1311.3985,,,,0,16,16,16,1,75,155,,,,,,,,
,,60e2bf0aa568b97e8d525872,65af54d01502ba3ac8b6198d,2024-01-23_08h01.07.301,bars,2023.2.3,MacIntel,60.24096386,657b66ea316d21385b68909f,,,,,,,,,,,1311.3988,1312.3969,,,1312.8967,1313.1457,,66,66,,,,,,,,,,,,,,,,bars/013.png,bars/mask001.png,,,,,,,,,,,,2,1,,,,,,,2,6,3,5,,,,,,,,,,,1312.3971,1312.8967,1313.1457,1316.0385,space,2.8756,,1316.0385,9,56,1317.0361,1317.0362,1317.048,,,,0,17,17,17,1,75,10,,,,,,,,
,,60e2bf0aa568b97e8d525872,65af54d01502ba3ac8b6198d,2024-01-23_08h01.07.301,bars,2023.2.3,MacIntel,60.24096386,657b66ea316d21385b68909f,,,,,,,,,,,1317.0482,1318.0494,,,1318.5503,1318.7993,,178,178,,,,,,,,,,,,,,,,bars/008.png,bars/mask004.png,,,,,,,,,,,,7,2,,,,,,,4,8,5,8,,,,,,,,,,,1318.0495,1318.5503,1318.7993,1320.627,space,1.8107,,1320.627,68,2,1321.626,1321.6261,1321.6291,,,,0,18,18,18,1,110,0,,,,,,,,
,,60e2bf0aa568b97e8d525872,65af54d01502ba3ac8b6198d,2024-01-23_08h01.07.301,bars,2023.2.3,MacIntel,60.24096386,657b66ea316d21385b68909f,,,,,,,,,,,1321.6295,1322.6236,,,1323.1242,1323.3701,,21,21,,,,,,,,,,,,,,,,bars/045.png,bars/mask006.png,,,,,,,,,,,,6,2,,,,,,,6,10,7,10,,,,,,,,,,,1322.6236,1323.1242,1323.3701,1326.2475,space,2.8656,,1326.2477,79,11,1327.2446,1327.2446,1327.2563,,,,0,19,19,19,1,100,10,,,,,,,,
,,60e2bf0aa568b97e8d525872,65af54d01502ba3ac8b6198d,2024-01-23_08h01.07.301,bars,2023.2.3,MacIntel,60.24096386,657b66ea316d21385b68909f,,,,,,,,,,,1327.2567,1328.2589,,,1328.7569,1329.0078,,113,113,,,,,,,,,,,,,,,,bars/006.png,bars/mask007.png,,,,,,,,,,,,6,2,,,,,,,8,10,8,10,,,,,,,,,,,1328.2589,1328.7569,1329.0078,1334.1625,space,5.1415,,1334.1625,78,13,1335.16,1335.16,1335.1711,,,,0,20,20,20,1,35,100,,,,,,,,
,,60e2bf0aa568b97e8d525872,65af54d01502ba3ac8b6198d,2024-01-23_08h01.07.301,bars,2023.2.3,MacIntel,60.24096386,657b66ea316d21385b68909f,,,,,,,,,,,1335.1714,1336.1743,,,1336.6722,1336.9239,,135,135,,,,,,,,,,,,,,,,bars/004.png,bars/mask002.png,,,,,,,,,,,,5,2,,,,,,,10,8,10,8,,,,,,,,,,,1336.1743,1336.6722,1336.9239,1341.9267,space,4.9943,,1341.9267,70,10,1342.9256,1342.9256,1342.9375,,,,0,21,21,21,1,25,125,,,,,,,,
,,60e2bf0aa568b97e8d525872,65af54d01502ba3ac8b6198d,2024-01-23_08h01.07.301,bars,2023.2.3,MacIntel,60.24096386,657b66ea316d21385b68909f,,,,,,,,,,,1342.9377,1343.9255,,,1344.4206,1344.6712,,176,176,,,,,,,,,,,,,,,,bars/048.png,bars/mask006.png,,,,,,,,,,,,10,2,,,,,,,10,10,10,10,,,,,,,,,,,1343.9256,1344.4206,1344.6712,1347.3151,space,2.628,,1347.3151,54,1,1348.3125,1348.3125,1348.3239,,,,0,22,22,22,1,50,175,,,,,,,,
,,60e2bf0aa568b97e8d525872,65af54d01502ba3ac8b6198d,2024-01-23_08h01.07.301,bars,2023.2.3,MacIntel,60.24096386,657b66ea316d21385b68909f,,,,,,,,,,,1348.324,1349.3275,,,1349.8245,1350.0766,,124,124,,,,,,,,,,,,,,,,bars/014.png,bars/mask000.png,,,,,,,,,,,,0,1,,,,,,,8,8,8,8,,,,,,,,,,,1349.3275,1349.8244,1350.0767,1359.8695,space,9.7852,,1359.8696,44,56,1360.8683,1360.8683,1360.8819,,,,0,23,23,23,1,80,0,,,,,,,,
,,60e2bf0aa568b97e8d525872,65af54d01502ba3ac8b6198d,2024-01-23_08h01.07.301,bars,2023.2.3,MacIntel,60.24096386,657b66ea316d21385b68909f,,,,,,,,,,,1360.8825,1361.8805,,,1362.3808,1362.6292,,142,142,,,,,,,,,,,,,,,,bars/016.png,bars/mask009.png,,,,,,,,,,,,2,2,,,,,,,6,10,5,10,,,,,,,,,,,1361.8806,1362.3808,1362.6292,1363.7255,space,1.0875,,1363.7255,78,23,1364.7239,1364.7239,1364.727,,,,0,24,24,24,1,40,165,,,,,,,,
,,60e2bf0aa568b97e8d525872,65af54d01502ba3ac8b6198d,2024-01-23_08h01.07.301,bars,2023.2.3,MacIntel,60.24096386,657b66ea316d21385b68909f,,,,,,,,,,,1364.7273,1365.7212,,,1366.361,1366.4886,,142,142,,,,,,,,,,,,,,,,bars/008.png,bars/mask003.png,,,,,,,,,,,,0,1,,,,,,,4,10,6,10,,,,,,,,,,,1365.7212,1366.3608,1366.4886,1369.195,space,2.6907,,1369.1951,32,38,1370.1926,1370.1926,1370.2101,,,,0,25,25,25,1,110,0,,,,,,,,
,,60e2bf0aa568b97e8d525872,65af54d01502ba3ac8b6198d,2024-01-23_08h01.07.301,bars,2023.2.3,MacIntel,60.24096386,657b66ea316d21385b68909f,,,,,,,,,,,1370.2104,1371.2089,,,1371.7064,1371.956,,129,129,,,,,,,,,,,,,,,,bars/044.png,bars/mask005.png,,,,,,,,,,,,1,2,,,,,,,2,8,1,8,,,,,,,,,,,1371.2089,1371.7063,1371.956,1377.7282,space,5.7565,,1377.7283,54,26,1378.7238,1378.7239,1378.7375,,,,0,26,26,26,1,75,155,,,,,,,,
,,60e2bf0aa568b97e8d525872,65af54d01502ba3ac8b6198d,2024-01-23_08h01.07.301,bars,2023.2.3,MacIntel,60.24096386,657b66ea316d21385b68909f,,,,,,,,,,,1378.7378,1379.7377,,,1380.2401,1380.4853,,101,101,,,,,,,,,,,,,,,,bars/047.png,bars/mask003.png,,,,,,,,,,,,0,2,,,,,,,4,10,4,8,,,,,,,,,,,1379.7377,1380.2401,1380.4853,1384.5643,space,4.0635,,1384.5643,86,31,1385.5587,1385.5588,1385.57,,,,0,27,27,27,1,15,70,,,,,,,,
,,60e2bf0aa568b97e8d525872,65af54d01502ba3ac8b6198d,2024-01-23_08h01.07.301,bars,2023.2.3,MacIntel,60.24096386,657b66ea316d21385b68909f,,,,,,,,,,,1385.5702,1386.5603,,,1387.0547,1387.3043,,80,80,,,,,,,,,,,,,,,,bars/028.png,bars/mask004.png,,,,,,,,,,,,0,1,,,,,,,6,8,7,10,,,,,,,,,,,1386.5604,1387.0547,1387.3044,1391.827,space,4.5059,,1391.8271,35,40,1392.8245,1392.8246,1392.8367,,,,0,28,28,28,1,45,120,,,,,,,,
,,60e2bf0aa568b97e8d525872,65af54d01502ba3ac8b6198d,2024-01-23_08h01.07.301,bars,2023.2.3,MacIntel,60.24096386,657b66ea316d21385b68909f,,,,,,,,,,,1392.837,1393.8249,,,1394.3211,1394.5702,,98,98,,,,,,,,,,,,,,,,bars/039.png,bars/mask000.png,,,,,,,,,,,,5,2,,,,,,,4,6,3,6,,,,,,,,,,,1393.825,1394.3211,1394.5703,1396.6476,space,2.0623,,1396.6478,77,7,1397.6455,1397.6455,1397.6594,,,,0,29,29,29,1,175,105,,,,,,,,
,,60e2bf0aa568b97e8d525872,65af54d01502ba3ac8b6198d,2024-01-23_08h01.07.301,bars,2023.2.3,MacIntel,60.24096386,657b66ea316d21385b68909f,,,,,,,,,,,1397.6597,1398.6595,,,1399.1592,1399.4102,,94,94,,,,,,,,,,,,,,,,bars/019.png,bars/mask005.png,,,,,,,,,,,,4,2,,,,,,,6,8,6,7,,,,,,,,,,,1398.6595,1399.1591,1399.4102,1404.0136,space,4.5906,,1404.0137,49,11,1405.0124,1405.0125,1405.034,,,,0,30,30,30,1,45,105,,,,,,,,
,,60e2bf0aa568b97e8d525872,65af54d01502ba3ac8b6198d,2024-01-23_08h01.07.301,bars,2023.2.3,MacIntel,60.24096386,657b66ea316d21385b68909f,,,,,,,,,,,1405.0345,1406.0255,,,1406.5243,1406.775,,37,37,,,,,,,,,,,,,,,,bars/049.png,bars/mask002.png,,,,,,,,,,,,0,1,,,,,,,8,10,8,10,,,,,,,,,,,1406.0256,1406.5243,1406.775,1408.0389,space,1.2517,,1408.039,57,78,1409.0359,1409.036,1409.0503,,,,0,31,31,31,1,160,115,,,,,,,,
,,60e2bf0aa568b97e8d525872,65af54d01502ba3ac8b6198d,2024-01-23_08h01.07.301,bars,2023.2.3,MacIntel,60.24096386,657b66ea316d21385b68909f,,,,,,,,,,,1409.0521,1410.0491,,,1410.5496,1410.7977,,9,9,,,,,,,,,,,,,,,,bars/032.png,bars/mask006.png,,,,,,,,,,,,4,2,,,,,,,6,8,5,7,,,,,,,,,,,1410.0492,1410.5495,1410.7977,1412.0614,space,1.2473,,1412.0614,64,11,1413.0607,1413.0607,1413.0736,,,,0,32,32,32,1,125,20,,,,,,,,
,,60e2bf0aa568b97e8d525872,65af54d01502ba3ac8b6198d,2024-01-23_08h01.07.301,bars,2023.2.3,MacIntel,60.24096386,657b66ea316d21385b68909f,,,,,,,,,,,1413.0738,1414.0731,,,1414.5718,1414.8215,,147,-33,,,,,,,,,,,,,,,,bars/043.png,bars/mask005.png,,,,,,,,,,,,3,2,,,,,,,4,6,2,6,,,,,,,,,,,1414.0731,1414.5718,1414.8215,1423.3013,space,8.4636,,1423.3013,63,17,1424.2989,1424.2989,1424.3108,,,,0,33,33,33,1,30,130,,,,,,,,
,,60e2bf0aa568b97e8d525872,65af54d01502ba3ac8b6198d,2024-01-23_08h01.07.301,bars,2023.2.3,MacIntel,60.24096386,657b66ea316d21385b68909f,,,,,,,,,,,1424.3111,1425.3129,,,1425.8134,1426.0736,,82,82,,,,,,,,,,,,,,,,bars/022.png,bars/mask001.png,,,,,,,,,,,,4,1,,,,,,,6,8,7,8,,,,,,,,,,,1425.3129,1425.8133,1426.0736,1429.0896,space,3.0012,,1429.0896,13,62,1430.0864,1430.0865,1430.1002,,,,0,34,34,34,1,95,20,,,,,,,,
,,60e2bf0aa568b97e8d525872,65af54d01502ba3ac8b6198d,2024-01-23_08h01.07.301,bars,2023.2.3,MacIntel,60.24096386,657b66ea316d21385b68909f,,,,,,,,,,,1430.1004,1431.1028,,,1431.6009,1431.8504,,126,126,,,,,,,,,,,,,,,,bars/006.png,bars/mask009.png,,,,,,,,,,,,1,2,,,,,,,4,6,3,5,,,,,,,,,,,1431.1029,1431.6009,1431.8505,1446.0996,space,14.2348,0.0006,1446.0998,89,26,1447.0955,1447.0957,1447.109,,,,0,35,35,35,1,35,100,,,,,,,,
,,60e2bf0aa568b97e8d525872,65af54d01502ba3ac8b6198d,2024-01-23_08h01.07.301,bars,2023.2.3,MacIntel,60.24096386,657b66ea316d21385b68909f,,,,,,,,,,,1447.1092,1448.1109,,,1448.6097,1448.8589,,134,134,,,,,,,,,,,,,,,,bars/045.png,bars/mask003.png,,,,,,,,,,,,0,1,,,,,,,2,8,0,9,,,,,,,,,,,1448.1109,1448.6097,1448.8589,1451.7688,space,2.8949,,1451.7689,34,56,1452.7679,1452.7679,1452.7808,,,,0,36,36,36,1,100,10,,,,,,,,
,,60e2bf0aa568b97e8d525872,65af54d01502ba3ac8b6198d,2024-01-23_08h01.07.301,bars,2023.2.3,MacIntel,60.24096386,657b66ea316d21385b68909f,,,,,,,,,,,1452.7812,1453.783,,,1454.2804,1454.5286,,92,92,,,,,,,,,,,,,,,,bars/009.png,bars/mask007.png,,,,,,,,,,,,3,2,,,,,,,0,6,0,5,,,,,,,,,,,1453.783,1454.2803,1454.5286,1459.1847,space,4.6442,,1459.1848,77,13,1460.1824,1460.1825,1460.1949,,,,0,37,37,37,1,15,105,,,,,,,,
,,60e2bf0aa568b97e8d525872,65af54d01502ba3ac8b6198d,2024-01-23_08h01.07.301,bars,2023.2.3,MacIntel,60.24096386,657b66ea316d21385b68909f,,,,,,,,,,,1460.1951,1461.1965,,,1461.6965,1461.9449,,91,91,,,,,,,,,,,,,,,,bars/009.png,bars/mask009.png,,,,,,,,,,,,3,2,,,,,,,0,4,1,5,,,,,,,,,,,1461.1965,1461.6963,1461.945,1466.3694,space,4.4118,,1466.3694,76,14,1467.3658,1467.366,1467.3781,,,,0,38,38,38,1,15,105,,,,,,,,
,,60e2bf0aa568b97e8d525872,65af54d01502ba3ac8b6198d,2024-01-23_08h01.07.301,bars,2023.2.3,MacIntel,60.24096386,657b66ea316d21385b68909f,,,,,,,,,,,1467.3784,1468.3812,,,1468.8783,1469.1289,,26,26,,,,,,,,,,,,,,,,bars/026.png,bars/mask002.png,,,,,,,,,,,,1,1,,,,,,,0,2,2,3,,,,,,,,,,,1468.3812,1468.8783,1469.1289,1472.5904,space,3.4448,,1472.5904,9,59,1473.5825,1473.5826,1473.5975,,,,0,39,39,39,1,35,85,,,,,,,,
,,60e2bf0aa568b97e8d525872,65af54d01502ba3ac8b6198d,2024-01-23_08h01.07.301,bars,2023.2.3,MacIntel,60.24096386,657b66ea316d21385b68909f,,,,,,,,,,,1473.5978,1474.5993,,,1475.0978,1475.3465,,81,81,,,,,,,,,,,,,,,,bars/042.png,bars/mask000.png,,,,,,,,,,,,4,2,,,,,,,0,4,0,5,,,,,,,,,,,1474.5993,1475.0978,1475.3465,1480.7671,space,5.4127,,1480.7672,64,6,1481.7638,1481.7638,1481.777,,,,0,40,40,40,1,145,75,,,,,,,,
,,60e2bf0aa568b97e8d525872,65af54d01502ba3ac8b6198d,2024-01-23_08h01.07.301,bars,2023.2.3,MacIntel,60.24096386,657b66ea316d21385b68909f,,,,,,,,,,,1481.7776,1482.779,,,1483.2788,1483.5291,,80,80,,,,,,,,,,,,,,,,bars/026.png,bars/mask005.png,,,,,,,,,,,,2,2,,,,,,,0,2,1,2,,,,,,,,,,,1482.7791,1483.2787,1483.5291,1488.1655,space,4.6232,,1488.1656,45,5,1489.1645,1489.1645,1489.1758,,,,0,41,41,41,1,35,85,,,,,,,,
,,60e2bf0aa568b97e8d525872,65af54d01502ba3ac8b6198d,2024-01-23_08h01.07.301,bars,2023.2.3,MacIntel,60.24096386,657b66ea316d21385b68909f,,,,,,,,,,,1489.1759,1490.1646,,,1490.6608,1490.9124,,175,175,,,,,,,,,,,,,,,,bars/033.png,bars/mask001.png,,,,,,,,,,,,0,2,,,,,,,0,0,0,1,,,,,,,,,,,1490.1647,1490.6608,1490.9124,1493.1064,space,2.1794,,1493.1065,30,20,1494.1025,1494.1025,1494.114,,,,0,42,42,42,1,25,155,,,,,,,,
,,60e2bf0aa568b97e8d525872,65af54d01502ba3ac8b6198d,2024-01-23_08h01.07.301,bars,2023.2.3,MacIntel,60.24096386,657b66ea316d21385b68909f,,,,,,,,,,,1494.1142,1495.1164,,,1495.6156,1495.864,,75,75,,,,,,,,,,,,,,,,bars/001.png,bars/mask008.png,,,,,,,,,,,,0,2,,,,,,,0,0,2,0,,,,,,,,,,,1495.1165,1495.6155,1495.864,1502.882,space,7.0024,,1502.882,55,10,1503.8804,1503.8804,1503.8921,,,,0,43,43,43,1,130,85,,,,,,,,
,,60e2bf0aa568b97e8d525872,65af54d01502ba3ac8b6198d,2024-01-23_08h01.07.301,bars,2023.2.3,MacIntel,60.24096386,657b66ea316d21385b68909f,,,,,,,,,,,1503.8922,1504.8923,,,1505.3938,1505.6416,,47,47,,,,,,,,,,,,,,,,bars/035.png,bars/mask006.png,,,,,,,,,,,,1,2,,,,,,,0,0,0,1,,,,,,,,,,,1504.8924,1505.3938,1505.6416,1507.1225,space,1.4649,,1507.1225,52,13,1508.121,1508.121,1508.122,,,,0,44,44,44,1,175,60,,,,,,,,
,,60e2bf0aa568b97e8d525872,65af54d01502ba3ac8b6198d,2024-01-23_08h01.07.301,bars,2023.2.3,MacIntel,60.24096386,657b66ea316d21385b68909f,,,,,,,,,,,1508.1225,1509.1178,,,1509.6152,1509.8636,,80,80,,,,,,,,,,,,,,,,bars/001.png,bars/mask000.png,,,,,,,,,,,,3,2,,,,,,,2,2,1,4,,,,,,,,,,,1509.1178,1509.6152,1509.8637,1516.9474,space,7.068,,1516.9474,50,5,1517.9461,1517.9461,1517.9576,,,,0,45,45,45,1,130,85,,,,,,,,
,,60e2bf0aa568b97e8d525872,65af54d01502ba3ac8b6198d,2024-01-23_08h01.07.301,bars,2023.2.3,MacIntel,60.24096386,657b66ea316d21385b68909f,,,,,,,,,,,1517.9579,1518.9593,,,1519.4581,1519.7085,,117,117,,,,,,,,,,,,,,,,bars/005.png,bars/mask000.png,,,,,,,,,,,,1,2,,,,,,,4,4,5,4,,,,,,,,,,,1518.9593,1519.4581,1519.7086,1520.7733,space,1.0535,,1520.7733,73,23,1521.7698,1521.7698,1521.771,,,,0,46,46,46,1,10,140,,,,,,,,
,,60e2bf0aa568b97e8d525872,65af54d01502ba3ac8b6198d,2024-01-23_08h01.07.301,bars,2023.2.3,MacIntel,60.24096386,657b66ea316d21385b68909f,,,,,,,,,,,1521.7714,1522.7687,,,1523.2661,1523.5164,,167,167,,,,,,,,,,,,,,,,bars/008.png,bars/mask004.png,,,,,,,,,,,,1,2,,,,,,,2,2,1,2,,,,,,,,,,,1522.7687,1523.266,1523.5164,1530.6983,space,7.168,,1530.6984,57,13,1531.6971,1531.6971,1531.709,,,,0,47,47,47,1,110,0,,,,,,,,
,,60e2bf0aa568b97e8d525872,65af54d01502ba3ac8b6198d,2024-01-23_08h01.07.301,bars,2023.2.3,MacIntel,60.24096386,657b66ea316d21385b68909f,,,,,,,,,,,1531.7092,1532.7115,,,1533.2098,1533.4589,,89,89,,,,,,,,,,,,,,,,bars/006.png,bars/mask006.png,,,,,,,,,,,,1,2,,,,,,,4,0,4,1,,,,,,,,,,,1532.7115,1533.2098,1533.4589,1534.2578,space,0.7851,,1534.2578,54,11,1535.2573,1535.2573,1535.2582,,,,0,48,48,48,1,35,100,,,,,,,,
,,60e2bf0aa568b97e8d525872,65af54d01502ba3ac8b6198d,2024-01-23_08h01.07.301,bars,2023.2.3,MacIntel,60.24096386,657b66ea316d21385b68909f,,,,,,,,,,,1535.2585,1536.2532,,,1536.7504,1536.9999,,5,5,,,,,,,,,,,,,,,,bars/033.png,bars/mask008.png,,,,,,,,,,,,0,1,,,,,,,2,0,1,0,,,,,,,,,,,1536.2533,1536.7504,1536.9999,1539.7436,space,2.7248,,1539.7438,20,30,1540.741,1540.741,1540.7553,,,,0,49,49,49,1,25,155,,,,,,,,
,,60e2bf0aa568b97e8d525872,65af54d01502ba3ac8b6198d,2024-01-23_08h01.07.301,bars,2023.2.3,MacIntel,60.24096386,657b66ea316d21385b68909f,,,,,,,,,,,,,,,,,,,,,,,,,,,,,,,,,,,,,,,,,,,,,,,,,,,,,,,,,,,,,,,,,,,,,,,,,,,,,,,,,,,,,,,,,,,,,1540.7555,1600.7494,0,1,1,2,1,sequence_tables/blk017.csv
,,60e2bf0aa568b97e8d525872,65af54d01502ba3ac8b6198d,2024-01-23_08h01.07.301,bars,2023.2.3,MacIntel,60.24096386,657b66ea316d21385b68909f,,,,,,,,,,,1627.8711,1628.867,,,1629.3672,1629.6152,,78,78,,,,,,,,,,,,,,,,bars/002.png,bars/mask000.png,,,,,,,,,,,,0,2,,,,,,,10,1,8,0,,,,,,1600.7614,1627.8521,space,27.08,,1628.8671,1629.3671,1629.6153,1636.4157,space,6.7797,,1636.4158,52,7,1637.4142,1637.4143,1637.427,,,,0,0,0,0,1,130,85,,,,,,,,
,,60e2bf0aa568b97e8d525872,65af54d01502ba3ac8b6198d,2024-01-23_08h01.07.301,bars,2023.2.3,MacIntel,60.24096386,657b66ea316d21385b68909f,,,,,,,,,,,1637.4273,1638.4283,,,1638.9278,1639.1761,,6,6,,,,,,,,,,,,,,,,bars/024.png,bars/mask000.png,,,,,,,,,,,,0,2,,,,,,,8,0,8,0,,,,,,,,,,,1638.4284,1638.9278,1639.1762,1643.1182,space,3.9249,,1643.1183,66,16,1644.1157,1644.1158,1644.1274,,,,0,1,1,1,1,120,170,,,,,,,,
,,60e2bf0aa568b97e8d525872,65af54d01502ba3ac8b6198d,2024-01-23_08h01.07.301,bars,2023.2.3,MacIntel,60.24096386,657b66ea316d21385b68909f,,,,,,,,,,,1644.1277,1645.1295,,,1645.6274,1645.8768,,149,149,,,,,,,,,,,,,,,,bars/043.png,bars/mask006.png,,,,,,,,,,,,0,2,,,,,,,6,0,5,0,,,,,,,,,,,1645.1295,1645.6274,1645.8769,1648.1052,space,2.213,,1648.1054,61,19,1649.1028,1649.1028,1649.116,,,,0,2,2,2,1,30,130,,,,,,,,
,,60e2bf0aa568b97e8d525872,65af54d01502ba3ac8b6198d,2024-01-23_08h01.07.301,bars,2023.2.3,MacIntel,60.24096386,657b66ea316d21385b68909f,,,,,,,,,,,1649.1164,1650.1178,,,1650.6155,1650.8661,,76,76,,,,,,,,,,,,,,,,bars/031.png,bars/mask003.png,,,,,,,,,,,,0,2,,,,,,,4,2,3,0,,,,,,,,,,,1650.1178,1650.6155,1650.8661,1652.3296,space,1.4501,,1652.3296,44,41,1653.327,1653.327,1653.3281,,,,0,3,3,3,1,120,35,,,,,,,,
,,60e2bf0aa568b97e8d525872,65af54d01502ba3ac8b6198d,2024-01-23_08h01.07.301,bars,2023.2.3,MacIntel,60.24096386,657b66ea316d21385b68909f,,,,,,,,,,,1653.3287,1654.3233,,,1654.824,1655.072,,46,46,,,,,,,,,,,,,,,,bars/024.png,bars/mask000.png,,,,,,,,,,,,0,2,,,,,,,6,0,5,0,,,,,,,,,,,1654.3234,1654.824,1655.072,1657.2003,space,2.1137,,1657.2003,74,56,1658.198,1658.198,1658.2099,,,,0,4,4,4,1,120,170,,,,,,,,
,,60e2bf0aa568b97e8d525872,65af54d01502ba3ac8b6198d,2024-01-23_08h01.07.301,bars,2023.2.3,MacIntel,60.24096386,657b66ea316d21385b68909f,,,,,,,,,,,1658.2102,1659.2154,,,1659.7103,1659.9596,,38,38,,,,,,,,,,,,,,,,bars/024.png,bars/mask001.png,,,,,,,,,,,,0,2,,,,,,,8,2,10,5,,,,,,,,,,,1659.2155,1659.7103,1659.9596,1661.44,space,1.4635,,1661.4401,82,48,1662.438,1662.438,1662.45,,,,0,5,5,5,1,120,170,,,,,,,,
,,60e2bf0aa568b97e8d525872,65af54d01502ba3ac8b6198d,2024-01-23_08h01.07.301,bars,2023.2.3,MacIntel,60.24096386,657b66ea316d21385b68909f,,,,,,,,,,,1662.4502,1663.4521,,,1663.9522,1664.2005,,94,94,,,,,,,,,,,,,,,,bars/028.png,bars/mask000.png,,,,,,,,,,,,0,2,,,,,,,10,0,10,1,,,,,,,,,,,1663.4521,1663.9517,1664.2006,1664.9336,space,0.716,,1664.9337,49,26,1665.9309,1665.931,1665.9321,,,,0,6,6,6,1,45,120,,,,,,,,
,,60e2bf0aa568b97e8d525872,65af54d01502ba3ac8b6198d,2024-01-23_08h01.07.301,bars,2023.2.3,MacIntel,60.24096386,657b66ea316d21385b68909f,,,,,,,,,,,1665.9326,1666.9266,,,1667.4276,1667.6762,,51,51,,,,,,,,,,,,,,,,bars/033.png,bars/mask000.png,,,,,,,,,,,,1,1,,,,,,,10,0,10,0,,,,,,,,,,,1666.9266,1667.4276,1667.6762,1670.6177,space,2.9293,,1670.6178,26,76,1671.6171,1671.6171,1671.6294,,,,0,7,7,7,1,25,155,,,,,,,,
,,60e2bf0aa568b97e8d525872,65af54d01502ba3ac8b6198d,2024-01-23_08h01.07.301,bars,2023.2.3,MacIntel,60.24096386,657b66ea316d21385b68909f,,,,,,,,,,,1671.6296,1672.6318,,,1673.1305,1673.3815,,49,49,,,,,,,,,,,,,,,,bars/044.png,bars/mask002.png,,,,,,,,,,,,1,1,,,,,,,10,0,8,0,,,,,,,,,,,1672.6318,1673.1305,1673.3816,1674.0778,space,0.6851,,1674.0778,26,74,1675.0746,1675.0746,1675.0754,,,,0,8,8,8,1,75,155,,,,,,,,
,,60e2bf0aa568b97e8d525872,65af54d01502ba3ac8b6198d,2024-01-23_08h01.07.301,bars,2023.2.3,MacIntel,60.24096386,657b66ea316d21385b68909f,,,,,,,,,,,1675.0758,1676.0734,,,1676.5721,1676.8233,,10,10,,,,,,,,,,,,,,,,bars/007.png,bars/mask005.png,,,,,,,,,,,,5,1,,,,,,,8,0,9,0,,,,,,,,,,,1676.0734,1676.572,1676.8233,1678.7656,space,1.9306,,1678.7656,15,45,1679.7637,1679.7637,1679.7648,,,,0,9,9,9,1,175,55,,,,,,,,
,,60e2bf0aa568b97e8d525872,65af54d01502ba3ac8b6198d,2024-01-23_08h01.07.301,bars,2023.2.3,MacIntel,60.24096386,657b66ea316d21385b68909f,,,,,,,,,,,1679.7654,1680.7611,,,1681.2596,1681.5093,,13,13,,,,,,,,,,,,,,,,bars/035.png,bars/mask005.png,,,,,,,,,,,,3,1,,,,,,,10,2,7,4,,,,,,,,,,,1680.7612,1681.2596,1681.5094,1682.9241,space,1.3989,,1682.9241,18,47,1683.9204,1683.9205,1683.9214,,,,0,10,10,10,1,175,60,,,,,,,,
,,60e2bf0aa568b97e8d525872,65af54d01502ba3ac8b6198d,2024-01-23_08h01.07.301,bars,2023.2.3,MacIntel,60.24096386,657b66ea316d21385b68909f,,,,,,,,,,,1683.9217,1684.918,,,1685.4175,1685.6664,,151,151,,,,,,,,,,,,,,,,bars/049.png,bars/mask000.png,,,,,,,,,,,,7,1,,,,,,,10,4,10,4,,,,,,,,,,,1684.9181,1685.4173,1685.6665,1687.1802,space,1.5023,,1687.1802,9,36,1688.1774,1688.1775,1688.1897,,,,0,11,11,11,1,160,115,,,,,,,,
,,60e2bf0aa568b97e8d525872,65af54d01502ba3ac8b6198d,2024-01-23_08h01.07.301,bars,2023.2.3,MacIntel,60.24096386,657b66ea316d21385b68909f,,,,,,,,,,,1688.1899,1689.1915,,,1689.6906,1689.9395,,170,170,,,,,,,,,,,,,,,,bars/017.png,bars/mask008.png,,,,,,,,,,,,1,1,,,,,,,8,6,7,8,,,,,,,,,,,1689.1915,1689.6905,1689.9395,1691.1377,space,1.183,,1691.1377,25,55,1692.1375,1692.1375,1692.1495,,,,0,12,12,12,1,145,45,,,,,,,,
,,60e2bf0aa568b97e8d525872,65af54d01502ba3ac8b6198d,2024-01-23_08h01.07.301,bars,2023.2.3,MacIntel,60.24096386,657b66ea316d21385b68909f,,,,,,,,,,,1692.1497,1693.1495,,,1693.648,1693.898,,107,107,,,,,,,,,,,,,,,,bars/022.png,bars/mask007.png,,,,,,,,,,,,4,1,,,,,,,6,4,6,2,,,,,,,,,,,1693.1496,1693.648,1693.8981,1694.6462,space,0.7352,,1694.6462,12,87,1695.6428,1695.6428,1695.6436,,,,0,13,13,13,1,95,20,,,,,,,,
,,60e2bf0aa568b97e8d525872,65af54d01502ba3ac8b6198d,2024-01-23_08h01.07.301,bars,2023.2.3,MacIntel,60.24096386,657b66ea316d21385b68909f,,,,,,,,,,,1695.644,1696.6411,,,1697.1404,1697.3905,,31,31,,,,,,,,,,,,,,,,bars/005.png,bars/mask006.png,,,,,,,,,,,,1,1,,,,,,,4,6,4,6,,,,,,,,,,,1696.6411,1697.1403,1697.3906,1698.5881,space,1.181,,1698.5881,21,71,1699.5857,1699.5857,1699.5868,,,,0,14,14,14,1,10,140,,,,,,,,
,,60e2bf0aa568b97e8d525872,65af54d01502ba3ac8b6198d,2024-01-23_08h01.07.301,bars,2023.2.3,MacIntel,60.24096386,657b66ea316d21385b68909f,,,,,,,,,,,1699.5874,1700.5837,,,1701.0805,1701.3302,,119,119,,,,,,,,,,,,,,,,bars/010.png,bars/mask006.png,,,,,,,,,,,,0,1,,,,,,,6,4,5,3,,,,,,,,,,,1700.5838,1701.0805,1701.3302,1703.5095,space,2.1635,,1703.5095,46,64,1704.5074,1704.5074,1704.5189,,,,0,15,15,15,1,165,55,,,,,,,,
,,60e2bf0aa568b97e8d525872,65af54d01502ba3ac8b6198d,2024-01-23_08h01.07.301,bars,2023.2.3,MacIntel,60.24096386,657b66ea316d21385b68909f,,,,,,,,,,,1704.5192,1705.5217,,,1706.0186,1706.2677,,152,152,,,,,,,,,,,,,,,,bars/016.png,bars/mask003.png,,,,,,,,,,,,2,2,,,,,,,4,2,3,3,,,,,,,,,,,1705.5217,1706.0186,1706.2677,1707.1503,space,0.867,,1707.1503,68,13,1708.1466,1708.1467,1708.159,,,,0,16,16,16,1,40,165,,,,,,,,
,,60e2bf0aa568b97e8d525872,65af54d01502ba3ac8b6198d,2024-01-23_08h01.07.301,bars,2023.2.3,MacIntel,60.24096386,657b66ea316d21385b68909f,,,,,,,,,,,1708.1592,1709.1612,,,1709.6617,1709.912,,147,147,,,,,,,,,,,,,,,,bars/002.png,bars/mask002.png,,,,,,,,,,,,1,1,,,,,,,2,4,2,4,,,,,,,,,,,1709.1612,1709.6617,1709.9121,1715.1824,space,5.2553,,1715.1825,17,62,1716.18,1716.18,1716.1929,,,,0,17,17,17,1,130,85,,,,,,,,
,,60e2bf0aa568b97e8d525872,65af54d01502ba3ac8b6198d,2024-01-23_08h01.07.301,bars,2023.2.3,MacIntel,60.24096386,657b66ea316d21385b68909f,,,,,,,,,,,1716.1932,1717.1939,,,1717.6914,1717.9427,,140,140,,,,,,,,,,,,,,,,bars/016.png,bars/mask004.png,,,,,,,,,,,,0,2,,,,,,,0,2,0,2,,,,,,,,,,,1717.194,1717.6913,1717.9427,1724.5927,space,6.6419,,1724.5928,80,25,1725.5924,1725.5924,1725.6064,,,,0,18,18,18,1,40,165,,,,,,,,
,,60e2bf0aa568b97e8d525872,65af54d01502ba3ac8b6198d,2024-01-23_08h01.07.301,bars,2023.2.3,MacIntel,60.24096386,657b66ea316d21385b68909f,,,,,,,,,,,1725.6067,1726.6032,,,1727.1034,1727.3538,,61,61,,,,,,,,,,,,,,,,bars/011.png,bars/mask007.png,,,,,,,,,,,,1,2,,,,,,,0,4,0,4,,,,,,,,,,,1726.6032,1727.1034,1727.3538,1730.6619,space,3.2927,,1730.662,81,24,1731.66,1731.66,1731.6716,,,,0,19,19,19,1,160,85,,,,,,,,
,,60e2bf0aa568b97e8d525872,65af54d01502ba3ac8b6198d,2024-01-23_08h01.07.301,bars,2023.2.3,MacIntel,60.24096386,657b66ea316d21385b68909f,,,,,,,,,,,1731.6717,1732.6734,,,1733.1736,1733.4218,,90,90,,,,,,,,,,,,,,,,bars/047.png,bars/mask000.png,,,,,,,,,,,,1,2,,,,,,,2,2,1,3,,,,,,,,,,,1732.6734,1733.1735,1733.4218,1738.2094,space,4.7739,,1738.2094,75,20,1739.2065,1739.2065,1739.2188,,,,0,20,20,20,1,15,70,,,,,,,,
,,60e2bf0aa568b97e8d525872,65af54d01502ba3ac8b6198d,2024-01-23_08h01.07.301,bars,2023.2.3,MacIntel,60.24096386,657b66ea316d21385b68909f,,,,,,,,,,,1739.2192,1740.2244,,,1740.7206,1740.9698,,168,168,,,,,,,,,,,,,,,,bars/032.png,bars/mask007.png,,,,,,,,,,,,0,2,,,,,,,0,4,0,5,,,,,,,,,,,1740.2244,1740.7206,1740.9699,1748.5866,space,7.5993,,1748.5867,43,32,1749.5823,1749.5823,1749.5947,,,,0,21,21,21,1,125,20,,,,,,,,
,,60e2bf0aa568b97e8d525872,65af54d01502ba3ac8b6198d,2024-01-23_08h01.07.301,bars,2023.2.3,MacIntel,60.24096386,657b66ea316d21385b68909f,,,,,,,,,,,1749.595,1750.5969,,,1751.095,1751.3446,,116,116,,,,,,,,,,,,,,,,bars/001.png,bars/mask003.png,,,,,,,,,,,,1,1,,,,,,,2,2,2,2,,,,,,,,,,,1750.5969,1751.095,1751.3446,1752.8577,space,1.5027,,1752.8577,14,31,1753.8556,1753.8556,1753.8589,,,,0,22,22,22,1,130,85,,,,,,,,
,,60e2bf0aa568b97e8d525872,65af54d01502ba3ac8b6198d,2024-01-23_08h01.07.301,bars,2023.2.3,MacIntel,60.24096386,657b66ea316d21385b68909f,,,,,,,,,,,1753.8594,1754.8545,,,1755.3543,1755.6014,,114,114,,,,,,,,,,,,,,,,bars/021.png,bars/mask007.png,,,,,,,,,,,,0,1,,,,,,,0,4,0,2,,,,,,,,,,,1754.8545,1755.3542,1755.6014,1761.5034,space,5.893,,1761.5034,41,44,1762.5032,1762.5032,1762.5157,,,,0,23,23,23,1,155,70,,,,,,,,
,,60e2bf0aa568b97e8d525872,65af54d01502ba3ac8b6198d,2024-01-23_08h01.07.301,bars,2023.2.3,MacIntel,60.24096386,657b66ea316d21385b68909f,,,,,,,,,,,1762.516,1763.5156,,,1764.0162,1764.2671,,2,2,,,,,,,,,,,,,,,,bars/014.png,bars/mask002.png,,,,,,,,,,,,1,2,,,,,,,2,2,2,1,,,,,,,,,,,1763.5157,1764.0162,1764.2671,1765.2462,space,0.9654,,1765.2462,78,2,1766.245,1766.245,1766.2579,,,,0,24,24,24,1,80,0,,,,,,,,
,,60e2bf0aa568b97e8d525872,65af54d01502ba3ac8b6198d,2024-01-23_08h01.07.301,bars,2023.2.3,MacIntel,60.24096386,657b66ea316d21385b68909f,,,,,,,,,,,1766.2582,1767.2595,,,1767.7574,1768.0067,,48,48,,,,,,,,,,,,,,,,bars/010.png,bars/mask001.png,,,,,,,,,,,,4,2,,,,,,,4,4,3,5,,,,,,,,,,,1767.2596,1767.7573,1768.0068,1779.6118,space,11.5925,,1779.6119,63,7,1780.6107,1780.6108,1780.6291,,,,0,25,25,25,1,165,55,,,,,,,,
,,60e2bf0aa568b97e8d525872,65af54d01502ba3ac8b6198d,2024-01-23_08h01.07.301,bars,2023.2.3,MacIntel,60.24096386,657b66ea316d21385b68909f,,,,,,,,,,,1780.6321,1781.6238,,,1782.1236,1782.3718,,16,16,,,,,,,,,,,,,,,,bars/036.png,bars/mask002.png,,,,,,,,,,,,3,2,,,,,,,6,2,6,3,,,,,,,,,,,1781.6238,1782.1236,1782.3718,1783.6193,space,1.2361,,1783.6193,51,4,1784.6179,1784.6179,1784.6192,,,,0,26,26,26,1,145,20,,,,,,,,
,,60e2bf0aa568b97e8d525872,65af54d01502ba3ac8b6198d,2024-01-23_08h01.07.301,bars,2023.2.3,MacIntel,60.24096386,657b66ea316d21385b68909f,,,,,,,,,,,1784.6199,1785.6141,,,1786.1126,1786.3623,,30,30,,,,,,,,,,,,,,,,bars/035.png,bars/mask005.png,,,,,,,,,,,,0,2,,,,,,,8,4,7,4,,,,,,,,,,,1785.6141,1786.1125,1786.3623,1787.011,space,0.6369,,1787.0111,35,30,1788.0085,1788.0086,1788.0093,,,,0,27,27,27,1,175,60,,,,,,,,
,,60e2bf0aa568b97e8d525872,65af54d01502ba3ac8b6198d,2024-01-23_08h01.07.301,bars,2023.2.3,MacIntel,60.24096386,657b66ea316d21385b68909f,,,,,,,,,,,1788.0096,1789.006,,,1789.5062,1789.7541,,54,54,,,,,,,,,,,,,,,,bars/027.png,bars/mask008.png,,,,,,,,,,,,4,2,,,,,,,10,6,10,5,,,,,,,,,,,1789.006,1789.5062,1789.7541,1790.3057,space,0.5418,,1790.3058,56,4,1791.3024,1791.3024,1791.3034,,,,0,28,28,28,1,110,50,,,,,,,,
,,60e2bf0aa568b97e8d525872,65af54d01502ba3ac8b6198d,2024-01-23_08h01.07.301,bars,2023.2.3,MacIntel,60.24096386,657b66ea316d21385b68909f,,,,,,,,,,,1791.3039,1792.3417,,,1792.8139,1793.0639,,55,55,,,,,,,,,,,,,,,,bars/031.png,bars/mask000.png,,,,,,,,,,,,1,2,,,,,,,10,4,10,4,,,,,,,,,,,1792.3417,1792.8138,1793.0639,1793.8616,space,0.7884,,1793.8616,65,20,1794.8607,1794.8607,1794.8616,,,,0,29,29,29,1,120,35,,,,,,,,
,,60e2bf0aa568b97e8d525872,65af54d01502ba3ac8b6198d,2024-01-23_08h01.07.301,bars,2023.2.3,MacIntel,60.24096386,657b66ea316d21385b68909f,,,,,,,,,,,1794.8619,1795.8584,,,1796.3551,1796.6062,,52,52,,,,,,,,,,,,,,,,bars/013.png,bars/mask008.png,,,,,,,,,,,,2,1,,,,,,,8,6,7,5,,,,,,,,,,,1795.8584,1796.3551,1796.6062,1797.4047,space,0.7831,,1797.4047,23,42,1798.4013,1798.4015,1798.4045,,,,0,30,30,30,1,75,10,,,,,,,,
,,60e2bf0aa568b97e8d525872,65af54d01502ba3ac8b6198d,2024-01-23_08h01.07.301,bars,2023.2.3,MacIntel,60.24096386,657b66ea316d21385b68909f,,,,,,,,,,,1798.4048,1799.4012,,,1799.8985,1800.1509,,59,59,,,,,,,,,,,,,,,,bars/039.png,bars/mask001.png,,,,,,,,,,,,0,2,,,,,,,6,8,6,10,,,,,,,,,,,1799.4012,1799.8985,1800.1509,1800.8652,space,0.6977,,1800.8652,64,46,1801.8598,1801.8598,1801.8627,,,,0,31,31,31,1,175,105,,,,,,,,
,,60e2bf0aa568b97e8d525872,65af54d01502ba3ac8b6198d,2024-01-23_08h01.07.301,bars,2023.2.3,MacIntel,60.24096386,657b66ea316d21385b68909f,,,,,,,,,,,1801.8631,1802.8581,,,1803.3572,1803.6062,,36,36,,,,,,,,,,,,,,,,bars/008.png,bars/mask002.png,,,,,,,,,,,,0,2,,,,,,,4,10,4,10,,,,,,,,,,,1802.8581,1803.3572,1803.6062,1810.1575,space,6.537,,1810.1576,74,36,1811.1549,1811.1549,1811.1679,,,,0,32,32,32,1,110,0,,,,,,,,
,,60e2bf0aa568b97e8d525872,65af54d01502ba3ac8b6198d,2024-01-23_08h01.07.301,bars,2023.2.3,MacIntel,60.24096386,657b66ea316d21385b68909f,,,,,,,,,,,1811.1682,1812.1696,,,1812.6682,1812.9192,,145,145,,,,,,,,,,,,,,,,bars/019.png,bars/mask007.png,,,,,,,,,,,,0,2,,,,,,,2,10,2,9,,,,,,,,,,,1812.1697,1812.6681,1812.9193,1816.061,space,3.1285,,1816.0612,80,40,1817.0606,1817.0606,1817.0716,,,,0,33,33,33,1,45,105,,,,,,,,
,,60e2bf0aa568b97e8d525872,65af54d01502ba3ac8b6198d,2024-01-23_08h01.07.301,bars,2023.2.3,MacIntel,60.24096386,657b66ea316d21385b68909f,,,,,,,,,,,1817.0718,1818.072,,,1818.5693,1818.8202,,33,33,,,,,,,,,,,,,,,,bars/045.png,bars/mask005.png,,,,,,,,,,,,2,2,,,,,,,0,8,1,7,,,,,,,,,,,1818.0721,1818.5693,1818.8202,1831.5554,space,12.7239,,1831.5555,67,23,1832.5541,1832.5541,1832.5663,,,,0,34,34,34,1,100,10,,,,,,,,
,,60e2bf0aa568b97e8d525872,65af54d01502ba3ac8b6198d,2024-01-23_08h01.07.301,bars,2023.2.3,MacIntel,60.24096386,657b66ea316d21385b68909f,,,,,,,,,,,1832.5665,1833.5705,,,1834.0677,1834.316,,122,122,,,,,,,,,,,,,,,,bars/035.png,bars/mask009.png,,,,,,,,,,,,0,1,,,,,,,0,10,0,9,,,,,,,,,,,1833.5706,1834.0677,1834.3161,1837.1601,space,2.8267,,1837.1601,53,62,1838.1562,1838.1562,1838.1692,,,,0,35,35,35,1,175,60,,,,,,,,
,,60e2bf0aa568b97e8d525872,65af54d01502ba3ac8b6198d,2024-01-23_08h01.07.301,bars,2023.2.3,MacIntel,60.24096386,657b66ea316d21385b68909f,,,,,,,,,,,1838.1695,1839.1728,,,1839.6702,1839.9278,,112,112,,,,,,,,,,,,,,,,bars/033.png,bars/mask008.png,,,,,,,,,,,,0,2,,,,,,,2,8,4,7,,,,,,,,,,,1839.1728,1839.6702,1839.9279,1844.2424,space,4.3035,,1844.2424,87,43,1845.2411,1845.2411,1845.2547,,,,0,36,36,36,1,25,155,,,,,,,,
,,60e2bf0aa568b97e8d525872,65af54d01502ba3ac8b6198d,2024-01-23_08h01.07.301,bars,2023.2.3,MacIntel,60.24096386,657b66ea316d21385b68909f,,,,,,,,,,,1845.2549,1846.2553,,,1846.753,1847.0028,,166,166,,,,,,,,,,,,,,,,bars/008.png,bars/mask009.png,,,,,,,,,,,,3,2,,,,,,,0,6,0,5,,,,,,,,,,,1846.2554,1846.753,1847.0028,1848.6987,space,1.6811,,1848.6987,56,14,1849.696,1849.696,1849.6966,,,,0,37,37,37,1,110,0,,,,,,,,
,,60e2bf0aa568b97e8d525872,65af54d01502ba3ac8b6198d,2024-01-23_08h01.07.301,bars,2023.2.3,MacIntel,60.24096386,657b66ea316d21385b68909f,,,,,,,,,,,1849.6968,1850.6938,,,1851.1937,1851.4414,,64,64,,,,,,,,,,,,,,,,bars/001.png,bars/mask002.png,,,,,,,,,,,,2,2,,,,,,,2,8,2,8,,,,,,,,,,,1850.6938,1851.1937,1851.4414,1854.5681,space,3.111,,1854.5681,66,21,1855.5677,1855.5678,1855.5795,,,,0,38,38,38,1,130,85,,,,,,,,
,,60e2bf0aa568b97e8d525872,65af54d01502ba3ac8b6198d,2024-01-23_08h01.07.301,bars,2023.2.3,MacIntel,60.24096386,657b66ea316d21385b68909f,,,,,,,,,,,1855.5797,1856.5802,,,1857.0791,1857.3296,,108,108,,,,,,,,,,,,,,,,bars/038.png,bars/mask003.png,,,,,,,,,,,,0,2,,,,,,,4,10,5,10,,,,,,,,,,,1856.5802,1857.0791,1857.3297,1932.6349,space,75.2928,,1932.635,57,38,1933.6329,1933.633,1933.6442,,,,0,39,39,39,1,165,70,,,,,,,,
,,60e2bf0aa568b97e8d525872,65af54d01502ba3ac8b6198d,2024-01-23_08h01.07.301,bars,2023.2.3,MacIntel,60.24096386,657b66ea316d21385b68909f,,,,,,,,,,,1933.6444,1934.6488,,,1935.15,1935.3974,,56,56,,,,,,,,,,,,,,,,bars/042.png,bars/mask008.png,,,,,,,,,,,,4,2,,,,,,,6,10,5,10,,,,,,,,,,,1934.6489,1935.15,1935.3975,1937.7902,space,2.3822,,1937.7903,89,19,1938.7861,1938.7861,1938.7977,,,,0,40,40,40,1,145,75,,,,,,,,
,,60e2bf0aa568b97e8d525872,65af54d01502ba3ac8b6198d,2024-01-23_08h01.07.301,bars,2023.2.3,MacIntel,60.24096386,657b66ea316d21385b68909f,,,,,,,,,,,1938.798,1939.787,,,1940.2845,1940.539,,44,44,,,,,,,,,,,,,,,,bars/002.png,bars/mask008.png,,,,,,,,,,,,0,2,,,,,,,8,8,8,6,,,,,,,,,,,1939.787,1940.2844,1940.539,1943.4095,space,2.8496,,1943.4095,86,41,1944.4077,1944.4077,1944.4195,,,,0,41,41,41,1,130,85,,,,,,,,
,,60e2bf0aa568b97e8d525872,65af54d01502ba3ac8b6198d,2024-01-23_08h01.07.301,bars,2023.2.3,MacIntel,60.24096386,657b66ea316d21385b68909f,,,,,,,,,,,1944.4198,1945.4213,,,1945.9207,1946.1695,,15,15,,,,,,,,,,,,,,,,bars/021.png,bars/mask001.png,,,,,,,,,,,,0,1,,,,,,,6,10,5,10,,,,,,,,,,,1945.4214,1945.9206,1946.1695,1947.5171,space,1.3343,,1947.5171,40,55,1948.5136,1948.5136,1948.5161,,,,0,42,42,42,1,155,70,,,,,,,,
,,60e2bf0aa568b97e8d525872,65af54d01502ba3ac8b6198d,2024-01-23_08h01.07.301,bars,2023.2.3,MacIntel,60.24096386,657b66ea316d21385b68909f,,,,,,,,,,,1948.5164,1949.5117,,,1950.0127,1950.2596,,121,121,,,,,,,,,,,,,,,,bars/019.png,bars/mask005.png,,,,,,,,,,,,5,2,,,,,,,8,10,9,10,,,,,,,,,,,1949.5118,1950.0127,1950.2596,2003.4059,space,53.138,,2003.4059,76,16,2004.4003,2004.4004,2004.4169,,,,0,43,43,43,1,45,105,,,,,,,,
,,60e2bf0aa568b97e8d525872,65af54d01502ba3ac8b6198d,2024-01-23_08h01.07.301,bars,2023.2.3,MacIntel,60.24096386,657b66ea316d21385b68909f,,,,,,,,,,,2004.4173,2005.4175,,,2005.9123,2006.1633,,5,185,,,,,,,,,,,,,,,,bars/033.png,bars/mask001.png,,,,,,,,,,,,3,1,,,,,,,10,10,10,10,,,,,,,,,,,2005.4175,2005.9123,2006.1633,2013.0802,space,6.9039,0.0005,2013.0804,20,30,2014.0766,2014.0767,2014.0891,,,,0,44,44,44,1,25,155,,,,,,,,
,,60e2bf0aa568b97e8d525872,65af54d01502ba3ac8b6198d,2024-01-23_08h01.07.301,bars,2023.2.3,MacIntel,60.24096386,657b66ea316d21385b68909f,,,,,,,,,,,2014.0894,2015.0923,,,2015.5932,2015.8398,,86,86,,,,,,,,,,,,,,,,bars/023.png,bars/mask003.png,,,,,,,,,,,,0,2,,,,,,,10,8,10,8,,,,,,,,,,,2015.0923,2015.5931,2015.8398,2017.6178,space,1.7683,,2017.6178,66,29,2018.6151,2018.6151,2018.6294,,,,0,45,45,45,1,20,115,,,,,,,,
,,60e2bf0aa568b97e8d525872,65af54d01502ba3ac8b6198d,2024-01-23_08h01.07.301,bars,2023.2.3,MacIntel,60.24096386,657b66ea316d21385b68909f,,,,,,,,,,,2018.6298,2019.6304,,,2020.1301,2020.3787,,79,79,,,,,,,,,,,,,,,,bars/010.png,bars/mask001.png,,,,,,,,,,,,2,2,,,,,,,10,10,10,10,,,,,,,,,,,2019.6304,2020.1301,2020.3788,2025.3007,space,4.9087,,2025.3007,86,24,2026.2974,2026.2975,2026.3083,,,,0,46,46,46,1,165,55,,,,,,,,
,,60e2bf0aa568b97e8d525872,65af54d01502ba3ac8b6198d,2024-01-23_08h01.07.301,bars,2023.2.3,MacIntel,60.24096386,657b66ea316d21385b68909f,,,,,,,,,,,2026.3086,2027.3127,,,2027.8103,2028.0591,,72,72,,,,,,,,,,,,,,,,bars/029.png,bars/mask009.png,,,,,,,,,,,,4,1,,,,,,,10,10,10,10,,,,,,,,,,,2027.3127,2027.8102,2028.0592,2030.869,space,2.8004,,2030.869,18,27,2031.8682,2031.8682,2031.882,,,,0,47,47,47,1,90,45,,,,,,,,
,,60e2bf0aa568b97e8d525872,65af54d01502ba3ac8b6198d,2024-01-23_08h01.07.301,bars,2023.2.3,MacIntel,60.24096386,657b66ea316d21385b68909f,,,,,,,,,,,2031.8824,2032.8829,,,2033.3811,2033.6315,,23,23,,,,,,,,,,,,,,,,bars/029.png,bars/mask004.png,,,,,,,,,,,,3,2,,,,,,,10,10,10,10,,,,,,,,,,,2032.8829,2033.3811,2033.6316,2121.1229,space,87.4782,,2121.1229,67,22,2122.1199,2122.1199,2122.133,,,,0,48,48,48,1,90,45,,,,,,,,
,,60e2bf0aa568b97e8d525872,65af54d01502ba3ac8b6198d,2024-01-23_08h01.07.301,bars,2023.2.3,MacIntel,60.24096386,657b66ea316d21385b68909f,,,,,,,,,,,2122.1333,2123.1365,,,2123.6336,2123.8843,,126,126,,,,,,,,,,,,,,,,bars/030.png,bars/mask009.png,,,,,,,,,,,,3,1,,,,,,,8,8,6,6,,,,,,,,,,,2123.1366,2123.6335,2123.8843,2125.6637,space,1.7662,,2125.6637,14,61,2126.6597,2126.6598,2126.6738,,,,0,49,49,49,1,140,65,,,,,,,,
,,60e2bf0aa568b97e8d525872,65af54d01502ba3ac8b6198d,2024-01-23_08h01.07.301,bars,2023.2.3,MacIntel,60.24096386,657b66ea316d21385b68909f,,,,,,,,,,,,,,,,,,,,,,,,,,,,,,,,,,,,,,,,,,,,,,,,,,,,,,,,,,,,,,,,,,,,,,,,,,,,,,,,,,,,,,,,,,,,,2126.6739,2186.6686,0,2,2,3,1,sequence_tables/blk041.csv
,,60e2bf0aa568b97e8d525872,65af54d01502ba3ac8b6198d,2024-01-23_08h01.07.301,bars,2023.2.3,MacIntel,60.24096386,657b66ea316d21385b68909f,,,,,,,,,,,2291.5771,2292.5693,,,2293.0688,2293.3183,,97,97,,,,,,,,,,,,,,,,bars/018.png,bars/mask009.png,,,,,,,,,,,,0,2,,,,,,,8,1,8,0,,,,,,2186.6809,2291.5559,space,104.8654,,2292.5693,2293.0688,2293.3183,2295.0646,space,1.7347,,2295.0647,53,7,2296.062,2296.0621,2296.0749,,,,0,0,0,0,1,150,90,,,,,,,,
,,60e2bf0aa568b97e8d525872,65af54d01502ba3ac8b6198d,2024-01-23_08h01.07.301,bars,2023.2.3,MacIntel,60.24096386,657b66ea316d21385b68909f,,,,,,,,,,,2296.0752,2297.0771,,,2297.5753,2297.8243,,158,158,,,,,,,,,,,,,,,,bars/014.png,bars/mask008.png,,,,,,,,,,,,1,2,,,,,,,6,3,5,3,,,,,,,,,,,2297.0771,2297.5753,2297.8243,2302.2815,space,4.4465,,2302.2815,78,22,2303.2773,2303.2773,2303.289,,,,0,1,1,1,1,80,0,,,,,,,,
,,60e2bf0aa568b97e8d525872,65af54d01502ba3ac8b6198d,2024-01-23_08h01.07.301,bars,2023.2.3,MacIntel,60.24096386,657b66ea316d21385b68909f,,,,,,,,,,,2303.2894,2304.2912,,,2304.7915,2305.0397,,10,10,,,,,,,,,,,,,,,,bars/007.png,bars/mask003.png,,,,,,,,,,,,3,1,,,,,,,4,5,5,6,,,,,,,,,,,2304.2912,2304.7915,2305.0398,2306.7704,space,1.7226,,2306.7704,15,45,2307.7684,2307.7685,2307.7803,,,,0,2,2,2,1,175,55,,,,,,,,
,,60e2bf0aa568b97e8d525872,65af54d01502ba3ac8b6198d,2024-01-23_08h01.07.301,bars,2023.2.3,MacIntel,60.24096386,657b66ea316d21385b68909f,,,,,,,,,,,2307.7806,2308.7826,,,2309.2812,2309.5293,,29,29,,,,,,,,,,,,,,,,bars/007.png,bars/mask008.png,,,,,,,,,,,,0,2,,,,,,,6,3,6,2,,,,,,,,,,,2308.7826,2309.2811,2309.5293,2310.8104,space,1.263,,2310.8105,34,26,2311.8089,2311.809,2311.8215,,,,0,3,3,3,1,175,55,,,,,,,,
,,60e2bf0aa568b97e8d525872,65af54d01502ba3ac8b6198d,2024-01-23_08h01.07.301,bars,2023.2.3,MacIntel,60.24096386,657b66ea316d21385b68909f,,,,,,,,,,,2311.8217,2312.8225,,,2313.3212,2313.5723,,61,61,,,,,,,,,,,,,,,,bars/014.png,bars/mask003.png,,,,,,,,,,,,2,1,,,,,,,8,1,6,0,,,,,,,,,,,2312.8225,2313.3212,2313.5723,2356.9692,space,43.387,,2356.9692,19,61,2357.9653,2357.9653,2357.9784,,,,0,4,4,4,1,80,0,,,,,,,,
,,60e2bf0aa568b97e8d525872,65af54d01502ba3ac8b6198d,2024-01-23_08h01.07.301,bars,2023.2.3,MacIntel,60.24096386,657b66ea316d21385b68909f,,,,,,,,,,,2357.9788,2358.9827,,,2359.4781,2359.7276,,91,91,,,,,,,,,,,,,,,,bars/027.png,bars/mask000.png,,,,,,,,,,,,4,1,,,,,,,10,3,10,3,,,,,,,,,,,2358.9827,2359.4781,2359.7277,2363.5867,space,3.8437,,2363.5867,19,41,2364.5868,2364.587,2364.6021,,,,0,5,5,5,1,110,50,,,,,,,,
,,60e2bf0aa568b97e8d525872,65af54d01502ba3ac8b6198d,2024-01-23_08h01.07.301,bars,2023.2.3,MacIntel,60.24096386,657b66ea316d21385b68909f,,,,,,,,,,,2364.6025,2365.597,,,2366.0969,2366.3448,,178,178,,,,,,,,,,,,,,,,bars/032.png,bars/mask005.png,,,,,,,,,,,,0,2,,,,,,,8,1,8,0,,,,,,,,,,,2365.597,2366.0969,2366.3449,2367.4945,space,1.1314,,2367.4945,53,22,2368.4913,2368.4914,2368.4939,,,,0,6,6,6,1,125,20,,,,,,,,
,,60e2bf0aa568b97e8d525872,65af54d01502ba3ac8b6198d,2024-01-23_08h01.07.301,bars,2023.2.3,MacIntel,60.24096386,657b66ea316d21385b68909f,,,,,,,,,,,2368.4944,2369.4893,,,2369.9868,2370.2405,,102,102,,,,,,,,,,,,,,,,bars/015.png,bars/mask005.png,,,,,,,,,,,,4,1,,,,,,,6,0,6,0,,,,,,,,,,,2369.4893,2369.9868,2370.2405,2371.7502,space,1.4987,,2371.7503,8,58,2372.7481,2372.7481,2372.7606,,,,0,7,7,7,1,110,160,,,,,,,,
,,60e2bf0aa568b97e8d525872,65af54d01502ba3ac8b6198d,2024-01-23_08h01.07.301,bars,2023.2.3,MacIntel,60.24096386,657b66ea316d21385b68909f,,,,,,,,,,,2372.7609,2373.7633,,,2374.2623,2374.5108,,136,136,,,,,,,,,,,,,,,,bars/026.png,bars/mask008.png,,,,,,,,,,,,0,2,,,,,,,4,0,6,0,,,,,,,,,,,2373.7634,2374.2623,2374.5109,2376.2057,space,1.6811,,2376.2057,79,51,2377.2025,2377.2025,2377.2051,,,,0,8,8,8,1,35,85,,,,,,,,
,,60e2bf0aa568b97e8d525872,65af54d01502ba3ac8b6198d,2024-01-23_08h01.07.301,bars,2023.2.3,MacIntel,60.24096386,657b66ea316d21385b68909f,,,,,,,,,,,2377.2054,2378.2003,,,2378.6994,2378.9493,,118,118,,,,,,,,,,,,,,,,bars/041.png,bars/mask005.png,,,,,,,,,,,,0,2,,,,,,,6,0,6,0,,,,,,,,,,,2378.2003,2378.6994,2378.9493,2380.6488,space,1.69,0.0004,2380.6489,82,33,2381.6421,2381.6421,2381.6433,,,,0,9,9,9,1,20,85,,,,,,,,
,,60e2bf0aa568b97e8d525872,65af54d01502ba3ac8b6198d,2024-01-23_08h01.07.301,bars,2023.2.3,MacIntel,60.24096386,657b66ea316d21385b68909f,,,,,,,,,,,2381.6435,2382.6402,,,2383.139,2383.3894,,144,144,,,,,,,,,,,,,,,,bars/038.png,bars/mask000.png,,,,,,,,,,,,2,1,,,,,,,8,2,8,3,,,,,,,,,,,2382.6402,2383.1389,2383.3895,2385.7829,space,2.3797,,2385.7829,21,74,2386.7805,2386.7806,2386.7948,,,,0,10,10,10,1,165,70,,,,,,,,
,,60e2bf0aa568b97e8d525872,65af54d01502ba3ac8b6198d,2024-01-23_08h01.07.301,bars,2023.2.3,MacIntel,60.24096386,657b66ea316d21385b68909f,,,,,,,,,,,2386.795,2387.7964,,,2388.2954,2388.5427,,97,97,,,,,,,,,,,,,,,,bars/024.png,bars/mask008.png,,,,,,,,,,,,2,1,,,,,,,6,0,7,0,,,,,,,,,,,2387.7964,2388.2953,2388.5428,2392.8662,space,4.3098,,2392.8662,23,73,2393.8645,2393.8646,2393.8762,,,,0,11,11,11,1,120,170,,,,,,,,
,,60e2bf0aa568b97e8d525872,65af54d01502ba3ac8b6198d,2024-01-23_08h01.07.301,bars,2023.2.3,MacIntel,60.24096386,657b66ea316d21385b68909f,,,,,,,,,,,2393.8765,2394.8782,,,2395.3765,2395.6268,,173,173,,,,,,,,,,,,,,,,bars/021.png,bars/mask000.png,,,,,,,,,,,,2,1,,,,,,,4,2,5,2,,,,,,,,,,,2394.8783,2395.3765,2395.6269,2397.1902,space,1.5463,,2397.1903,18,77,2398.1865,2398.1865,2398.1987,,,,0,12,12,12,1,155,70,,,,,,,,
,,60e2bf0aa568b97e8d525872,65af54d01502ba3ac8b6198d,2024-01-23_08h01.07.301,bars,2023.2.3,MacIntel,60.24096386,657b66ea316d21385b68909f,,,,,,,,,,,2398.199,2399.2004,,,2399.7007,2399.9509,,129,-51,,,,,,,,,,,,,,,,bars/002.png,bars/mask003.png,,,,,,,,,,,,7,1,,,,,,,6,0,7,0,,,,,,,,,,,2399.2004,2399.7007,2399.9509,2407.3652,space,7.4033,,2407.3653,1,44,2408.364,2408.364,2408.3783,,,,0,13,13,13,1,130,85,,,,,,,,
,,60e2bf0aa568b97e8d525872,65af54d01502ba3ac8b6198d,2024-01-23_08h01.07.301,bars,2023.2.3,MacIntel,60.24096386,657b66ea316d21385b68909f,,,,,,,,,,,2408.3787,2409.378,,,2409.8763,2410.1254,,177,177,,,,,,,,,,,,,,,,bars/041.png,bars/mask000.png,,,,,,,,,,,,2,1,,,,,,,8,2,7,2,,,,,,,,,,,2409.378,2409.8763,2410.1254,2413.3359,space,3.1936,,2413.336,23,88,2414.3343,2414.3344,2414.3461,,,,0,14,14,14,1,20,85,,,,,,,,
,,60e2bf0aa568b97e8d525872,65af54d01502ba3ac8b6198d,2024-01-23_08h01.07.301,bars,2023.2.3,MacIntel,60.24096386,657b66ea316d21385b68909f,,,,,,,,,,,2414.3464,2415.3459,,,2415.8465,2416.0956,,99,99,,,,,,,,,,,,,,,,bars/002.png,bars/mask007.png,,,,,,,,,,,,3,2,,,,,,,10,4,10,6,,,,,,,,,,,2415.3459,2415.8464,2416.0956,2417.2288,space,1.1244,,2417.2288,31,14,2418.224,2418.224,2418.2268,,,,0,15,15,15,1,130,85,,,,,,,,
,,60e2bf0aa568b97e8d525872,65af54d01502ba3ac8b6198d,2024-01-23_08h01.07.301,bars,2023.2.3,MacIntel,60.24096386,657b66ea316d21385b68909f,,,,,,,,,,,2418.2271,2419.2229,,,2419.721,2419.9687,,163,-17,,,,,,,,,,,,,,,,bars/038.png,bars/mask000.png,,,,,,,,,,,,9,1,,,,,,,10,2,10,2,,,,,,,,,,,2419.2229,2419.721,2419.9687,2425.4743,space,5.4879,,2425.4743,2,87,2426.4725,2426.4725,2426.488,,,,0,16,16,16,1,165,70,,,,,,,,
,,60e2bf0aa568b97e8d525872,65af54d01502ba3ac8b6198d,2024-01-23_08h01.07.301,bars,2023.2.3,MacIntel,60.24096386,657b66ea316d21385b68909f,,,,,,,,,,,2426.4886,2427.4856,,,2427.9844,2428.2406,,122,122,,,,,,,,,,,,,,,,bars/026.png,bars/mask009.png,,,,,,,,,,,,0,2,,,,,,,8,0,6,0,,,,,,,,,,,2427.4856,2427.9844,2428.2407,2432.7545,space,4.4838,,2432.7546,87,37,2433.7541,2433.7541,2433.767,,,,0,17,17,17,1,35,85,,,,,,,,
,,60e2bf0aa568b97e8d525872,65af54d01502ba3ac8b6198d,2024-01-23_08h01.07.301,bars,2023.2.3,MacIntel,60.24096386,657b66ea316d21385b68909f,,,,,,,,,,,2433.7674,2434.7667,,,2435.2679,2435.5164,,113,113,,,,,,,,,,,,,,,,bars/002.png,bars/mask008.png,,,,,,,,,,,,4,1,,,,,,,10,2,10,3,,,,,,,,,,,2434.7668,2435.2678,2435.5164,2446.6395,space,11.1112,,2446.6395,17,28,2447.638,2447.638,2447.6514,,,,0,18,18,18,1,130,85,,,,,,,,
,,60e2bf0aa568b97e8d525872,65af54d01502ba3ac8b6198d,2024-01-23_08h01.07.301,bars,2023.2.3,MacIntel,60.24096386,657b66ea316d21385b68909f,,,,,,,,,,,2447.6516,2448.6512,,,2449.15,2449.4005,,138,138,,,,,,,,,,,,,,,,bars/008.png,bars/mask008.png,,,,,,,,,,,,1,1,,,,,,,10,4,10,7,,,,,,,,,,,2448.6512,2449.15,2449.4005,2454.1902,space,4.7768,,2454.1903,28,42,2455.1868,2455.1868,2455.1989,,,,0,19,19,19,1,110,0,,,,,,,,
,,60e2bf0aa568b97e8d525872,65af54d01502ba3ac8b6198d,2024-01-23_08h01.07.301,bars,2023.2.3,MacIntel,60.24096386,657b66ea316d21385b68909f,,,,,,,,,,,2455.1991,2456.2001,,,2456.699,2456.9496,,131,131,,,,,,,,,,,,,,,,bars/034.png,bars/mask007.png,,,,,,,,,,,,6,1,,,,,,,8,6,8,5,,,,,,,,,,,2456.2001,2456.6989,2456.9496,2460.8565,space,3.8913,,2460.8566,6,66,2461.854,2461.854,2461.8665,,,,0,20,20,20,1,125,65,,,,,,,,
,,60e2bf0aa568b97e8d525872,65af54d01502ba3ac8b6198d,2024-01-23_08h01.07.301,bars,2023.2.3,MacIntel,60.24096386,657b66ea316d21385b68909f,,,,,,,,,,,2461.8667,2462.8676,,,2463.3667,2463.616,,95,95,,,,,,,,,,,,,,,,bars/029.png,bars/mask006.png,,,,,,,,,,,,5,1,,,,,,,6,8,6,8,,,,,,,,,,,2462.8676,2463.3667,2463.616,2470.7854,space,7.15,,2470.7854,5,50,2471.7811,2471.7812,2471.7928,,,,0,21,21,21,1,90,45,,,,,,,,
,,60e2bf0aa568b97e8d525872,65af54d01502ba3ac8b6198d,2024-01-23_08h01.07.301,bars,2023.2.3,MacIntel,60.24096386,657b66ea316d21385b68909f,,,,,,,,,,,2471.7932,2472.7942,,,2473.2923,2473.5439,,109,109,,,,,,,,,,,,,,,,bars/007.png,bars/mask005.png,,,,,,,,,,,,0,2,,,,,,,4,6,4,7,,,,,,,,,,,2472.7943,2473.2923,2473.5439,2485.668,space,12.1134,,2485.668,66,54,2486.6632,2486.6633,2486.6803,,,,0,22,22,22,1,175,55,,,,,,,,
,,60e2bf0aa568b97e8d525872,65af54d01502ba3ac8b6198d,2024-01-23_08h01.07.301,bars,2023.2.3,MacIntel,60.24096386,657b66ea316d21385b68909f,,,,,,,,,,,2486.6808,2487.6764,,,2488.1757,2488.4241,,114,114,,,,,,,,,,,,,,,,bars/025.png,bars/mask002.png,,,,,,,,,,,,5,1,,,,,,,6,4,7,4,,,,,,,,,,,2487.6765,2488.1756,2488.4241,2494.3448,space,5.9049,,2494.3448,9,74,2495.3414,2495.3414,2495.3549,,,,0,23,23,23,1,105,40,,,,,,,,
,,60e2bf0aa568b97e8d525872,65af54d01502ba3ac8b6198d,2024-01-23_08h01.07.301,bars,2023.2.3,MacIntel,60.24096386,657b66ea316d21385b68909f,,,,,,,,,,,2495.3552,2496.3549,,,2496.8551,2497.1037,,21,21,,,,,,,,,,,,,,,,bars/010.png,bars/mask009.png,,,,,,,,,,,,0,2,,,,,,,4,6,4,5,,,,,,,,,,,2496.3549,2496.8551,2497.1038,2501.7611,space,4.6427,,2501.7611,36,34,2502.7579,2502.758,2502.7703,,,,0,24,24,24,1,165,55,,,,,,,,
,,60e2bf0aa568b97e8d525872,65af54d01502ba3ac8b6198d,2024-01-23_08h01.07.301,bars,2023.2.3,MacIntel,60.24096386,657b66ea316d21385b68909f,,,,,,,,,,,2502.7705,2503.7734,,,2504.2706,2504.5213,,107,107,,,,,,,,,,,,,,,,bars/049.png,bars/mask008.png,,,,,,,,,,,,5,2,,,,,,,6,8,5,7,,,,,,,,,,,2503.7734,2504.2704,2504.5214,2511.1874,space,6.6566,,2511.1874,53,8,2512.184,2512.184,2512.196,,,,0,25,25,25,1,160,115,,,,,,,,
,,60e2bf0aa568b97e8d525872,65af54d01502ba3ac8b6198d,2024-01-23_08h01.07.301,bars,2023.2.3,MacIntel,60.24096386,657b66ea316d21385b68909f,,,,,,,,,,,2512.1963,2513.1986,,,2513.6997,2513.9484,,108,108,,,,,,,,,,,,,,,,bars/029.png,bars/mask003.png,,,,,,,,,,,,2,1,,,,,,,4,10,4,9,,,,,,,,,,,2513.1986,2513.6997,2513.9485,2519.0863,space,5.1307,,2519.0864,18,63,2520.0836,2520.0837,2520.0964,,,,0,26,26,26,1,90,45,,,,,,,,
,,60e2bf0aa568b97e8d525872,65af54d01502ba3ac8b6198d,2024-01-23_08h01.07.301,bars,2023.2.3,MacIntel,60.24096386,657b66ea316d21385b68909f,,,,,,,,,,,2520.0967,2521.096,,,2521.5956,2521.8469,,124,124,,,,,,,,,,,,,,,,bars/046.png,bars/mask007.png,,,,,,,,,,,,0,1,,,,,,,6,10,6,10,,,,,,,,,,,2521.0961,2521.5956,2521.8469,2522.6435,space,0.7829,,2522.6435,31,39,2523.642,2523.6421,2523.6428,,,,0,27,27,27,1,155,85,,,,,,,,
,,60e2bf0aa568b97e8d525872,65af54d01502ba3ac8b6198d,2024-01-23_08h01.07.301,bars,2023.2.3,MacIntel,60.24096386,657b66ea316d21385b68909f,,,,,,,,,,,2523.6431,2524.6386,,,2525.1402,2525.3898,,110,110,,,,,,,,,,,,,,,,bars/030.png,bars/mask001.png,,,,,,,,,,,,0,1,,,,,,,4,8,4,9,,,,,,,,,,,2524.6386,2525.1401,2525.3899,2530.1435,space,4.7402,,2530.1435,30,45,2531.1424,2531.1425,2531.1548,,,,0,28,28,28,1,140,65,,,,,,,,
,,60e2bf0aa568b97e8d525872,65af54d01502ba3ac8b6198d,2024-01-23_08h01.07.301,bars,2023.2.3,MacIntel,60.24096386,657b66ea316d21385b68909f,,,,,,,,,,,2531.155,2532.1558,,,2532.6532,2532.9027,,60,60,,,,,,,,,,,,,,,,bars/018.png,bars/mask003.png,,,,,,,,,,,,0,2,,,,,,,6,10,6,10,,,,,,,,,,,2532.1558,2532.6531,2532.9027,2535.3483,space,2.4316,,2535.3484,90,30,2536.3448,2536.3449,2536.3576,,,,0,29,29,29,1,150,90,,,,,,,,
,,60e2bf0aa568b97e8d525872,65af54d01502ba3ac8b6198d,2024-01-23_08h01.07.301,bars,2023.2.3,MacIntel,60.24096386,657b66ea316d21385b68909f,,,,,,,,,,,2536.3579,2537.3596,,,2537.8586,2538.1073,,90,90,,,,,,,,,,,,,,,,bars/023.png,bars/mask006.png,,,,,,,,,,,,1,2,,,,,,,8,8,7,7,,,,,,,,,,,2537.3596,2537.8585,2538.1074,2539.0213,space,0.9025,,2539.0214,70,25,2540.0188,2540.0189,2540.0198,,,,0,30,30,30,1,20,115,,,,,,,,
,,60e2bf0aa568b97e8d525872,65af54d01502ba3ac8b6198d,2024-01-23_08h01.07.301,bars,2023.2.3,MacIntel,60.24096386,657b66ea316d21385b68909f,,,,,,,,,,,2540.0206,2541.0156,,,2541.5151,2541.7651,,139,139,,,,,,,,,,,,,,,,bars/023.png,bars/mask006.png,,,,,,,,,,,,2,2,,,,,,,10,6,10,8,,,,,,,,,,,2541.0156,2541.5151,2541.7651,2545.6911,space,3.9105,,2545.6912,61,24,2546.6871,2546.6871,2546.7,,,,0,31,31,31,1,20,115,,,,,,,,
,,60e2bf0aa568b97e8d525872,65af54d01502ba3ac8b6198d,2024-01-23_08h01.07.301,bars,2023.2.3,MacIntel,60.24096386,657b66ea316d21385b68909f,,,,,,,,,,,2546.7004,2547.7021,,,2548.2026,2548.4504,,6,6,,,,,,,,,,,,,,,,bars/034.png,bars/mask002.png,,,,,,,,,,,,0,2,,,,,,,8,8,8,8,,,,,,,,,,,2547.7021,2548.2025,2548.4504,2550.8931,space,2.4274,,2550.8931,61,59,2551.8924,2551.8925,2551.9035,,,,0,32,32,32,1,125,65,,,,,,,,
,,60e2bf0aa568b97e8d525872,65af54d01502ba3ac8b6198d,2024-01-23_08h01.07.301,bars,2023.2.3,MacIntel,60.24096386,657b66ea316d21385b68909f,,,,,,,,,,,2551.9037,2552.9082,,,2553.4044,2553.6554,,12,12,,,,,,,,,,,,,,,,bars/033.png,bars/mask008.png,,,,,,,,,,,,3,1,,,,,,,6,10,6,8,,,,,,,,,,,2552.9083,2553.4044,2553.6555,2554.6704,space,1.0007,,2554.6705,13,37,2555.6676,2555.6676,2555.6709,,,,0,33,33,33,1,25,155,,,,,,,,
,,60e2bf0aa568b97e8d525872,65af54d01502ba3ac8b6198d,2024-01-23_08h01.07.301,bars,2023.2.3,MacIntel,60.24096386,657b66ea316d21385b68909f,,,,,,,,,,,2555.6712,2556.665,,,2557.1633,2557.4128,,123,123,,,,,,,,,,,,,,,,bars/041.png,bars/mask007.png,,,,,,,,,,,,0,2,,,,,,,4,10,3,8,,,,,,,,,,,2556.665,2557.1633,2557.4129,2559.0759,space,1.6463,,2559.0759,77,38,2560.0752,2560.0753,2560.078,,,,0,34,34,34,1,20,85,,,,,,,,
,,60e2bf0aa568b97e8d525872,65af54d01502ba3ac8b6198d,2024-01-23_08h01.07.301,bars,2023.2.3,MacIntel,60.24096386,657b66ea316d21385b68909f,,,,,,,,,,,2560.0783,2561.071,,,2561.5683,2561.8173,,43,43,,,,,,,,,,,,,,,,bars/043.png,bars/mask004.png,,,,,,,,,,,,3,1,,,,,,,6,8,5,8,,,,,,,,,,,2561.071,2561.5683,2561.8173,2562.9653,space,1.1359,,2562.9653,13,87,2563.9642,2563.9642,2563.9667,,,,0,35,35,35,1,30,130,,,,,,,,
,,60e2bf0aa568b97e8d525872,65af54d01502ba3ac8b6198d,2024-01-23_08h01.07.301,bars,2023.2.3,MacIntel,60.24096386,657b66ea316d21385b68909f,,,,,,,,,,,2563.9671,2564.9621,,,2565.4619,2565.7089,,71,71,,,,,,,,,,,,,,,,bars/031.png,bars/mask006.png,,,,,,,,,,,,0,2,,,,,,,8,10,9,10,,,,,,,,,,,2564.9622,2565.4618,2565.709,2569.6535,space,3.9257,,2569.6536,49,36,2570.6473,2570.6473,2570.662,,,,0,36,36,36,1,120,35,,,,,,,,
,,60e2bf0aa568b97e8d525872,65af54d01502ba3ac8b6198d,2024-01-23_08h01.07.301,bars,2023.2.3,MacIntel,60.24096386,657b66ea316d21385b68909f,,,,,,,,,,,2570.6624,2571.663,,,2572.1608,2572.4094,,59,59,,,,,,,,,,,,,,,,bars/043.png,bars/mask009.png,,,,,,,,,,,,0,1,,,,,,,10,10,10,10,,,,,,,,,,,2571.663,2572.1607,2572.4094,2574.6219,space,2.1927,,2574.6219,29,71,2575.6189,2575.6189,2575.6323,,,,0,37,37,37,1,30,130,,,,,,,,
,,60e2bf0aa568b97e8d525872,65af54d01502ba3ac8b6198d,2024-01-23_08h01.07.301,bars,2023.2.3,MacIntel,60.24096386,657b66ea316d21385b68909f,,,,,,,,,,,2575.6327,2576.6344,,,2577.132,2577.381,,147,147,,,,,,,,,,,,,,,,bars/004.png,bars/mask005.png,,,,,,,,,,,,3,2,,,,,,,8,10,7,10,,,,,,,,,,,2576.6344,2577.1319,2577.381,2581.139,space,3.7405,,2581.1391,58,22,2582.1386,2582.1387,2582.1517,,,,0,38,38,38,1,25,125,,,,,,,,
,,60e2bf0aa568b97e8d525872,65af54d01502ba3ac8b6198d,2024-01-23_08h01.07.301,bars,2023.2.3,MacIntel,60.24096386,657b66ea316d21385b68909f,,,,,,,,,,,2582.152,2583.1525,,,2583.6498,2583.9002,,82,82,,,,,,,,,,,,,,,,bars/037.png,bars/mask007.png,,,,,,,,,,,,2,2,,,,,,,10,8,9,9,,,,,,,,,,,2583.1525,2583.6497,2583.9002,2586.0957,space,2.18,,2586.0957,68,23,2587.0924,2587.0925,2587.1046,,,,0,39,39,39,1,150,105,,,,,,,,
,,60e2bf0aa568b97e8d525872,65af54d01502ba3ac8b6198d,2024-01-23_08h01.07.301,bars,2023.2.3,MacIntel,60.24096386,657b66ea316d21385b68909f,,,,,,,,,,,2587.1048,2588.1054,,,2588.605,2588.8549,,123,123,,,,,,,,,,,,,,,,bars/005.png,bars/mask005.png,,,,,,,,,,,,3,2,,,,,,,8,6,7,6,,,,,,,,,,,2588.1054,2588.6049,2588.8549,2589.7183,space,0.8498,,2589.7184,67,17,2590.7157,2590.7157,2590.7168,,,,0,40,40,40,1,10,140,,,,,,,,
,,60e2bf0aa568b97e8d525872,65af54d01502ba3ac8b6198d,2024-01-23_08h01.07.301,bars,2023.2.3,MacIntel,60.24096386,657b66ea316d21385b68909f,,,,,,,,,,,2590.7175,2591.7144,,,2592.213,2592.4645,,147,-33,,,,,,,,,,,,,,,,bars/034.png,bars/mask001.png,,,,,,,,,,,,2,1,,,,,,,6,4,6,4,,,,,,,,,,,2591.7144,2592.2129,2592.4645,2597.1856,space,4.7066,,2597.1857,22,82,2598.1851,2598.1851,2598.1996,,,,0,41,41,41,1,125,65,,,,,,,,
,,60e2bf0aa568b97e8d525872,65af54d01502ba3ac8b6198d,2024-01-23_08h01.07.301,bars,2023.2.3,MacIntel,60.24096386,657b66ea316d21385b68909f,,,,,,,,,,,2598.2001,2599.1961,,,2599.6949,2599.9448,,2,2,,,,,,,,,,,,,,,,bars/011.png,bars/mask006.png,,,,,,,,,,,,1,1,,,,,,,4,2,3,3,,,,,,,,,,,2599.1961,2599.6948,2599.9449,2600.994,space,1.0405,,2600.9941,22,83,2601.99,2601.99,2601.9908,,,,0,42,42,42,1,160,85,,,,,,,,
,,60e2bf0aa568b97e8d525872,65af54d01502ba3ac8b6198d,2024-01-23_08h01.07.301,bars,2023.2.3,MacIntel,60.24096386,657b66ea316d21385b68909f,,,,,,,,,,,2601.9911,2602.9882,,,2603.4875,2603.7382,,86,86,,,,,,,,,,,,,,,,bars/041.png,bars/mask007.png,,,,,,,,,,,,0,2,,,,,,,6,0,6,0,,,,,,,,,,,2602.9882,2603.4874,2603.7383,2606.4807,space,2.7336,,2606.4807,66,1,2607.4779,2607.478,2607.4907,,,,0,43,43,43,1,20,85,,,,,,,,
,,60e2bf0aa568b97e8d525872,65af54d01502ba3ac8b6198d,2024-01-23_08h01.07.301,bars,2023.2.3,MacIntel,60.24096386,657b66ea316d21385b68909f,,,,,,,,,,,2607.4911,2608.4931,,,2608.9911,2609.2408,,63,63,,,,,,,,,,,,,,,,bars/005.png,bars/mask009.png,,,,,,,,,,,,0,1,,,,,,,4,2,2,2,,,,,,,,,,,2608.4931,2608.991,2609.2408,2616.5225,space,7.2662,,2616.5226,53,77,2617.5198,2617.5199,2617.5341,,,,0,44,44,44,1,10,140,,,,,,,,
,,60e2bf0aa568b97e8d525872,65af54d01502ba3ac8b6198d,2024-01-23_08h01.07.301,bars,2023.2.3,MacIntel,60.24096386,657b66ea316d21385b68909f,,,,,,,,,,,2617.5342,2618.534,,,2619.0342,2619.2837,,127,127,,,,,,,,,,,,,,,,bars/020.png,bars/mask005.png,,,,,,,,,,,,1,1,,,,,,,2,0,1,1,,,,,,,,,,,2618.534,2619.0342,2619.2837,2625.6011,space,6.3056,,2625.6012,12,43,2626.5988,2626.5988,2626.6119,,,,0,45,45,45,1,115,170,,,,,,,,
,,60e2bf0aa568b97e8d525872,65af54d01502ba3ac8b6198d,2024-01-23_08h01.07.301,bars,2023.2.3,MacIntel,60.24096386,657b66ea316d21385b68909f,,,,,,,,,,,2626.6121,2627.614,,,2628.1125,2628.3605,,31,31,,,,,,,,,,,,,,,,bars/014.png,bars/mask008.png,,,,,,,,,,,,0,2,,,,,,,0,2,0,2,,,,,,,,,,,2627.6141,2628.1124,2628.3606,2631.4056,space,3.0288,,2631.4056,49,31,2632.401,2632.401,2632.4134,,,,0,46,46,46,1,80,0,,,,,,,,
,,60e2bf0aa568b97e8d525872,65af54d01502ba3ac8b6198d,2024-01-23_08h01.07.301,bars,2023.2.3,MacIntel,60.24096386,657b66ea316d21385b68909f,,,,,,,,,,,2632.4137,2633.4155,,,2633.9156,2634.1657,,75,75,,,,,,,,,,,,,,,,bars/046.png,bars/mask005.png,,,,,,,,,,,,3,2,,,,,,,2,4,3,4,,,,,,,,,,,2633.4155,2633.9155,2634.1658,2634.9133,space,0.7339,,2634.9133,80,10,2635.9108,2635.9108,2635.9116,,,,0,47,47,47,1,155,85,,,,,,,,
,,60e2bf0aa568b97e8d525872,65af54d01502ba3ac8b6198d,2024-01-23_08h01.07.301,bars,2023.2.3,MacIntel,60.24096386,657b66ea316d21385b68909f,,,,,,,,,,,2635.912,2636.9077,,,2637.4075,2637.6559,,22,22,,,,,,,,,,,,,,,,bars/014.png,bars/mask007.png,,,,,,,,,,,,1,2,,,,,,,4,2,4,4,,,,,,,,,,,2636.9077,2637.4074,2637.656,2640.0515,space,2.378,,2640.0515,58,22,2641.0481,2641.0481,2641.0596,,,,0,48,48,48,1,80,0,,,,,,,,
,,60e2bf0aa568b97e8d525872,65af54d01502ba3ac8b6198d,2024-01-23_08h01.07.301,bars,2023.2.3,MacIntel,60.24096386,657b66ea316d21385b68909f,,,,,,,,,,,2641.0599,2642.0617,,,2642.561,2642.8115,,156,156,,,,,,,,,,,,,,,,bars/008.png,bars/mask009.png,,,,,,,,,,,,1,2,,,,,,,6,4,7,3,,,,,,,,,,,2642.0617,2642.5609,2642.8115,2646.8358,space,4.0077,,2646.8358,46,24,2647.8338,2647.8338,2647.8462,,,,0,49,49,49,1,110,0,,,,,,,,
,,60e2bf0aa568b97e8d525872,65af54d01502ba3ac8b6198d,2024-01-23_08h01.07.301,bars,2023.2.3,MacIntel,60.24096386,657b66ea316d21385b68909f,,,,,,,,,,,,,,,,,,,,,,,,,,,,,,,,,,,,,,,,,,,,,,,,,,,,,,,,,,,,,,,,,,,,,,,,,,,,,,,,,,,,,,,,,,,,,2647.8463,2707.8405,0,3,3,4,1,sequence_tables/blk025.csv
,,60e2bf0aa568b97e8d525872,65af54d01502ba3ac8b6198d,2024-01-23_08h01.07.301,bars,2023.2.3,MacIntel,60.24096386,657b66ea316d21385b68909f,,,,,,,,,,,2881.0188,2881.9992,,,2882.4961,2882.745,,150,150,,,,,,,,,,,,,,,,bars/012.png,bars/mask004.png,,,,,,,,,,,,0,2,,,,,,,8,2,9,1,,,,,,2707.8529,2880.9989,space,173.1378,,2881.9993,2882.4961,2882.745,2884.4585,space,1.7006,,2884.4586,60,45,2885.4565,2885.4565,2885.4677,,,,0,0,0,0,1,90,15,,,,,,,,
,,60e2bf0aa568b97e8d525872,65af54d01502ba3ac8b6198d,2024-01-23_08h01.07.301,bars,2023.2.3,MacIntel,60.24096386,657b66ea316d21385b68909f,,,,,,,,,,,2885.468,2886.4701,,,2886.9678,2887.2188,,103,103,,,,,,,,,,,,,,,,bars/026.png,bars/mask000.png,,,,,,,,,,,,2,2,,,,,,,6,4,6,4,,,,,,,,,,,2886.4702,2886.9678,2887.2188,2888.3825,space,1.1482,,2888.3826,68,18,2889.3821,2889.3821,2889.3943,,,,0,1,1,1,1,35,85,,,,,,,,
,,60e2bf0aa568b97e8d525872,65af54d01502ba3ac8b6198d,2024-01-23_08h01.07.301,bars,2023.2.3,MacIntel,60.24096386,657b66ea316d21385b68909f,,,,,,,,,,,2889.3945,2890.3925,,,2890.8948,2891.1438,,13,193,,,,,,,,,,,,,,,,bars/034.png,bars/mask003.png,,,,,,,,,,,,0,2,,,,,,,8,2,8,2,,,,,,,,,,,2890.3926,2890.8948,2891.1438,2895.2998,space,4.1433,,2895.2999,68,52,2896.2975,2896.2975,2896.3104,,,,0,2,2,2,1,125,65,,,,,,,,
,,60e2bf0aa568b97e8d525872,65af54d01502ba3ac8b6198d,2024-01-23_08h01.07.301,bars,2023.2.3,MacIntel,60.24096386,657b66ea316d21385b68909f,,,,,,,,,,,2896.3109,2897.3111,,,2897.8102,2898.0623,,8,8,,,,,,,,,,,,,,,,bars/028.png,bars/mask004.png,,,,,,,,,,,,0,1,,,,,,,6,4,5,5,,,,,,,,,,,2897.3113,2897.8102,2898.0623,2899.674,space,1.6011,,2899.674,37,68,2900.671,2900.6711,2900.6749,,,,0,3,3,3,1,45,120,,,,,,,,
,,60e2bf0aa568b97e8d525872,65af54d01502ba3ac8b6198d,2024-01-23_08h01.07.301,bars,2023.2.3,MacIntel,60.24096386,657b66ea316d21385b68909f,,,,,,,,,,,2900.6752,2901.6688,,,2902.1673,2902.416,,27,27,,,,,,,,,,,,,,,,bars/023.png,bars/mask004.png,,,,,,,,,,,,4,1,,,,,,,4,2,5,1,,,,,,,,,,,2901.6688,2902.1673,2902.416,2903.2128,space,0.7836,,2903.2129,7,88,2904.2121,2904.2122,2904.2132,,,,0,4,4,4,1,20,115,,,,,,,,
,,60e2bf0aa568b97e8d525872,65af54d01502ba3ac8b6198d,2024-01-23_08h01.07.301,bars,2023.2.3,MacIntel,60.24096386,657b66ea316d21385b68909f,,,,,,,,,,,2904.2135,2905.21,,,2905.7094,2905.9603,,51,51,,,,,,,,,,,,,,,,bars/017.png,bars/mask000.png,,,,,,,,,,,,2,2,,,,,,,2,0,3,2,,,,,,,,,,,2905.21,2905.7094,2905.9604,2906.6729,space,0.7051,,2906.673,86,6,2907.6722,2907.6722,2907.6747,,,,0,5,5,5,1,145,45,,,,,,,,
,,60e2bf0aa568b97e8d525872,65af54d01502ba3ac8b6198d,2024-01-23_08h01.07.301,bars,2023.2.3,MacIntel,60.24096386,657b66ea316d21385b68909f,,,,,,,,,,,2907.675,2908.6699,,,2909.168,2909.4171,,174,174,,,,,,,,,,,,,,,,bars/049.png,bars/mask009.png,,,,,,,,,,,,1,1,,,,,,,0,2,1,3,,,,,,,,,,,2908.6699,2909.168,2909.4171,2911.2941,space,1.8603,,2911.2942,14,59,2912.2919,2912.2919,2912.2948,,,,0,6,6,6,1,160,115,,,,,,,,
,,60e2bf0aa568b97e8d525872,65af54d01502ba3ac8b6198d,2024-01-23_08h01.07.301,bars,2023.2.3,MacIntel,60.24096386,657b66ea316d21385b68909f,,,,,,,,,,,2912.2953,2913.2911,,,2913.7896,2914.0387,,73,73,,,,,,,,,,,,,,,,bars/023.png,bars/mask007.png,,,,,,,,,,,,0,2,,,,,,,2,0,2,0,,,,,,,,,,,2913.2911,2913.7896,2914.0388,2914.9712,space,0.9144,,2914.9712,53,42,2915.9674,2915.9675,2915.9707,,,,0,7,7,7,1,20,115,,,,,,,,
,,60e2bf0aa568b97e8d525872,65af54d01502ba3ac8b6198d,2024-01-23_08h01.07.301,bars,2023.2.3,MacIntel,60.24096386,657b66ea316d21385b68909f,,,,,,,,,,,2915.971,2916.9671,,,2917.4654,2917.7137,,102,102,,,,,,,,,,,,,,,,bars/037.png,bars/mask007.png,,,,,,,,,,,,2,2,,,,,,,0,2,0,2,,,,,,,,,,,2916.9672,2917.4653,2917.7137,2918.6794,space,0.9544,,2918.6795,48,3,2919.6768,2919.6768,2919.6778,,,,0,8,8,8,1,150,105,,,,,,,,
