init_variables.started,init_variables.stopped,participant,session,date,expName,psychopyVersion,OS,frameRate,study_id,instruction_exp.started,instruction_exp.stopped,key_resp_8.keys,key_resp_8.rt,key_resp_8.duration,instruction_single.started,instruction_single.stopped,key_resp_2.keys,key_resp_2.rt,key_resp_2.duration,interval.started,interval.stopped,cue_single.started,cue_single.stopped,mask.started,mask.stopped,ori_response_single.started,res_ori,res,ori_response_single.stopped,key_resp_single.keys,key_resp_single.rt,key_resp_single.duration,disp_single.started,disp_single.stopped,key_resp.keys,key_resp.rt,key_resp.duration,single.thisRepN,single.thisTrialN,single.thisN,single.thisIndex,single.ran,ori,path,mask_path,instruction_bandit.started,instruction_bandit.stopped,key_resp_6.keys,key_resp_6.rt,key_resp_6.duration,cue_bandit.started,cue_bandit.stopped,bandit_res.keys,bandit_res.rt,bandit_res.duration,outcome_bandit.started,rew,action,outcome_bandit.stopped,bandit.thisRepN,bandit.thisTrialN,bandit.thisN,bandit.thisIndex,bandit.ran,actual_rew1,actual_rew2,rew1,rew2,instruction_task.started,instruction_task.stopped,key_resp_7.keys,key_resp_7.rt,key_resp_7.duration,wait_ready.started,wait_ready.stopped,key_resp_3.keys,key_resp_3.rt,key_resp_3.duration,cue.started,cue.stopped,ori_response.started,ori_response.stopped,key_resp_5.keys,key_resp_5.rt,key_resp_5.duration,outcome.started,diff1,diff2,outcome.stopped,disp_outcome_practice.started,disp_outcome_practice.stopped,key_resp_4.keys,key_resp_4.rt,key_resp_4.duration,trials.thisRepN,trials.thisTrialN,trials.thisN,trials.thisIndex,trials.ran,ori1,ori2,break_blk.started,break_blk.stopped,block.thisRepN,block.thisTrialN,block.thisN,block.thisIndex,block.ran,condition_file
0.0004,0.0005,653a784a41876017f84c89df,65af552b0a3110be0ab78254,2024-01-23_07h58.22.681,bars,2023.2.3,Win32,59.52380952,657b66ea316d21385b68909f,,,,,,,,,,,,,,,,,,,,,,,,,,,,,,,,,,,,,,,,,,,,,,,,,,,,,,,,,,,,,,,,,,,,,,,,,,,,,,,,,,,,,,,,,,,,,,,,,,,,
,,653a784a41876017f84c89df,65af552b0a3110be0ab78254,2024-01-23_07h58.22.681,bars,2023.2.3,Win32,59.52380952,657b66ea316d21385b68909f,0.0007,13.986,y,13.9665,,,,,,,,,,,,,,,,,,,,,,,,,,,,,,,,,,,,,,,,,,,,,,,,,,,,,,,,,,,,,,,,,,,,,,,,,,,,,,,,,,,,,,,,,,,,,,,,
,,653a784a41876017f84c89df,65af552b0a3110be0ab78254,2024-01-23_07h58.22.681,bars,2023.2.3,Win32,59.52380952,657b66ea316d21385b68909f,,,,,,13.9866,27.3529,space,13.3489,,,,,,,,,,,,,,,,,,,,,,,,,,,,,,,,,,,,,,,,,,,,,,,,,,,,,,,,,,,,,,,,,,,,,,,,,,,,,,,,,,,,,,,,,,,
,,653a784a41876017f84c89df,65af552b0a3110be0ab78254,2024-01-23_07h58.22.681,bars,2023.2.3,Win32,59.52380952,657b66ea316d21385b68909f,,,,,,,,,,,27.3593,28.3527,28.3532,28.8523,28.8529,29.1017,29.102,1,1,43.2824,space,14.1232,,43.2826,57.0496,space,13.7376,,0,0,0,0,1,150,bars/single000.png,bars/mask006.png,,,,,,,,,,,,,,,,,,,,,,,,,,,,,,,,,,,,,,,,,,,,,,,,,,,,,,,,,,,,,,,,
,,653a784a41876017f84c89df,65af552b0a3110be0ab78254,2024-01-23_07h58.22.681,bars,2023.2.3,Win32,59.52380952,657b66ea316d21385b68909f,,,,,,,,,,,57.0683,58.0525,58.0527,58.5527,58.5529,58.7975,58.7978,90,-90,68.1745,space,9.3552,,68.1746,74.0446,space,5.8372,,0,1,1,3,1,20,bars/single003.png,bars/mask005.png,,,,,,,,,,,,,,,,,,,,,,,,,,,,,,,,,,,,,,,,,,,,,,,,,,,,,,,,,,,,,,,,
,,653a784a41876017f84c89df,65af552b0a3110be0ab78254,2024-01-23_07h58.22.681,bars,2023.2.3,Win32,59.52380952,657b66ea316d21385b68909f,,,,,,,,,,,74.0541,75.0454,75.0455,75.5444,75.5445,75.7943,75.7943,0,0,80.4948,space,4.6856,,80.4949,85.91,space,5.3854,,0,2,2,6,1,175,bars/single006.png,bars/mask005.png,,,,,,,,,,,,,,,,,,,,,,,,,,,,,,,,,,,,,,,,,,,,,,,,,,,,,,,,,,,,,,,,
,,653a784a41876017f84c89df,65af552b0a3110be0ab78254,2024-01-23_07h58.22.681,bars,2023.2.3,Win32,59.52380952,657b66ea316d21385b68909f,,,,,,,,,,,85.9299,86.9261,86.9261,87.426,87.4261,87.6761,87.6761,91,91,91.4472,space,3.7637,,91.4472,96.6435,space,5.161,,0,3,3,9,1,20,bars/single009.png,bars/mask006.png,,,,,,,,,,,,,,,,,,,,,,,,,,,,,,,,,,,,,,,,,,,,,,,,,,,,,,,,,,,,,,,,
,,653a784a41876017f84c89df,65af552b0a3110be0ab78254,2024-01-23_07h58.22.681,bars,2023.2.3,Win32,59.52380952,657b66ea316d21385b68909f,,,,,,,,,,,96.6633,97.6464,97.6464,98.1455,98.1457,98.3956,98.3956,133,-47,102.6139,space,4.2,,102.614,105.8909,space,3.2473,,0,4,4,5,1,55,bars/single005.png,bars/mask008.png,,,,,,,,,,,,,,,,,,,,,,,,,,,,,,,,,,,,,,,,,,,,,,,,,,,,,,,,,,,,,,,,
,,653a784a41876017f84c89df,65af552b0a3110be0ab78254,2024-01-23_07h58.22.681,bars,2023.2.3,Win32,59.52380952,657b66ea316d21385b68909f,,,,,,,,,,,105.8924,106.8912,106.8914,107.3913,107.3913,107.6411,107.6412,128,128,110.8238,space,3.1676,,110.8239,114.3425,space,3.4939,,0,5,5,4,1,95,bars/single004.png,bars/mask004.png,,,,,,,,,,,,,,,,,,,,,,,,,,,,,,,,,,,,,,,,,,,,,,,,,,,,,,,,,,,,,,,,
,,653a784a41876017f84c89df,65af552b0a3110be0ab78254,2024-01-23_07h58.22.681,bars,2023.2.3,Win32,59.52380952,657b66ea316d21385b68909f,,,,,,,,,,,114.3429,115.3401,115.3401,115.8433,115.8433,116.0891,116.0892,0,180,118.0312,space,1.9195,,118.0312,121.5732,space,3.5272,,0,6,6,8,1,160,bars/single008.png,bars/mask004.png,,,,,,,,,,,,,,,,,,,,,,,,,,,,,,,,,,,,,,,,,,,,,,,,,,,,,,,,,,,,,,,,
,,653a784a41876017f84c89df,65af552b0a3110be0ab78254,2024-01-23_07h58.22.681,bars,2023.2.3,Win32,59.52380952,657b66ea316d21385b68909f,,,,,,,,,,,121.5894,122.5884,122.5885,123.078,123.0781,123.3274,123.3275,158,158,124.7968,space,1.4525,,124.7968,128.8501,space,4.0392,,0,7,7,2,1,145,bars/single002.png,bars/mask003.png,,,,,,,,,,,,,,,,,,,,,,,,,,,,,,,,,,,,,,,,,,,,,,,,,,,,,,,,,,,,,,,,
,,653a784a41876017f84c89df,65af552b0a3110be0ab78254,2024-01-23_07h58.22.681,bars,2023.2.3,Win32,59.52380952,657b66ea316d21385b68909f,,,,,,,,,,,128.8677,129.8549,129.855,130.3547,130.3547,130.6041,130.6042,9,9,134.5035,space,3.8869,,134.5035,146.4072,space,11.8768,,0,8,8,1,1,20,bars/single001.png,bars/mask006.png,,,,,,,,,,,,,,,,,,,,,,,,,,,,,,,,,,,,,,,,,,,,,,,,,,,,,,,,,,,,,,,,
,,653a784a41876017f84c89df,65af552b0a3110be0ab78254,2024-01-23_07h58.22.681,bars,2023.2.3,Win32,59.52380952,657b66ea316d21385b68909f,,,,,,,,,,,146.4268,147.4243,147.4245,147.9191,147.9192,148.1743,148.1744,118,118,154.1462,space,5.9549,,154.1463,166.2548,space,12.0809,,0,9,9,7,1,45,bars/single007.png,bars/mask009.png,,,,,,,,,,,,,,,,,,,,,,,,,,,,,,,,,,,,,,,,,,,,,,,,,,,,,,,,,,,,,,,,
,,653a784a41876017f84c89df,65af552b0a3110be0ab78254,2024-01-23_07h58.22.681,bars,2023.2.3,Win32,59.52380952,657b66ea316d21385b68909f,,,,,,,,,,,,,,,,,,,,,,,,,,,,,,,,,,,,,166.2732,240.807,space,74.5153,,,,,,,,,,,,,,,,,,,,,,,,,,,,,,,,,,,,,,,,,,,,,,,,,,,,,,,,,,,,
,,653a784a41876017f84c89df,65af552b0a3110be0ab78254,2024-01-23_07h58.22.681,bars,2023.2.3,Win32,59.52380952,657b66ea316d21385b68909f,,,,,,,,,,,,,,,,,,,,,,,,,,,,,,,,,,,,,,,,,,240.8216,242.4563,left,1.611,,242.4564,9,1,243.4557,0,0,0,0,1,9,1,9,2,,,,,,,,,,,,,,,,,,,,,,,,,,,,,,,,,,,,,,,,,
,,653a784a41876017f84c89df,65af552b0a3110be0ab78254,2024-01-23_07h58.22.681,bars,2023.2.3,Win32,59.52380952,657b66ea316d21385b68909f,,,,,,,,,,,,,,,,,,,,,,,,,,,,,,,,,,,,,,,,,,243.4564,244.8556,right,1.3861,,244.8556,1,2,245.8551,0,1,1,1,1,10,0,10,1,,,,,,,,,,,,,,,,,,,,,,,,,,,,,,,,,,,,,,,,,
,,653a784a41876017f84c89df,65af552b0a3110be0ab78254,2024-01-23_07h58.22.681,bars,2023.2.3,Win32,59.52380952,657b66ea316d21385b68909f,,,,,,,,,,,,,,,,,,,,,,,,,,,,,,,,,,,,,,,,,,245.8557,246.6109,left,0.7484,,246.6109,10,1,247.6049,0,2,2,2,1,10,2,10,2,,,,,,,,,,,,,,,,,,,,,,,,,,,,,,,,,,,,,,,,,
,,653a784a41876017f84c89df,65af552b0a3110be0ab78254,2024-01-23_07h58.22.681,bars,2023.2.3,Win32,59.52380952,657b66ea316d21385b68909f,,,,,,,,,,,,,,,,,,,,,,,,,,,,,,,,,,,,,,,,,,247.6057,248.3557,left,0.7442,,248.3557,7,1,249.3546,0,3,3,3,1,8,4,7,3,,,,,,,,,,,,,,,,,,,,,,,,,,,,,,,,,,,,,,,,,
,,653a784a41876017f84c89df,65af552b0a3110be0ab78254,2024-01-23_07h58.22.681,bars,2023.2.3,Win32,59.52380952,657b66ea316d21385b68909f,,,,,,,,,,,,,,,,,,,,,,,,,,,,,,,,,,,,,,,,,,249.3551,250.5582,right,1.1954,,250.5584,1,2,251.5545,0,4,4,4,1,6,2,5,1,,,,,,,,,,,,,,,,,,,,,,,,,,,,,,,,,,,,,,,,,
,,653a784a41876017f84c89df,65af552b0a3110be0ab78254,2024-01-23_07h58.22.681,bars,2023.2.3,Win32,59.52380952,657b66ea316d21385b68909f,,,,,,,,,,,,,,,,,,,,,,,,,,,,,,,,,,,,,,,,,,251.5553,253.4042,left,1.8386,,253.4043,4,1,254.404,0,5,5,5,1,4,4,4,4,,,,,,,,,,,,,,,,,,,,,,,,,,,,,,,,,,,,,,,,,
,,653a784a41876017f84c89df,65af552b0a3110be0ab78254,2024-01-23_07h58.22.681,bars,2023.2.3,Win32,59.52380952,657b66ea316d21385b68909f,,,,,,,,,,,,,,,,,,,,,,,,,,,,,,,,,,,,,,,,,,254.4047,254.9207,left,0.5041,,254.9209,1,1,255.9206,0,6,6,6,1,2,2,1,2,,,,,,,,,,,,,,,,,,,,,,,,,,,,,,,,,,,,,,,,,
,,653a784a41876017f84c89df,65af552b0a3110be0ab78254,2024-01-23_07h58.22.681,bars,2023.2.3,Win32,59.52380952,657b66ea316d21385b68909f,,,,,,,,,,,,,,,,,,,,,,,,,,,,,,,,,,,,,,,,,,255.9212,256.3545,right,0.4195,,256.3545,1,2,257.3536,0,7,7,7,1,0,0,0,1,,,,,,,,,,,,,,,,,,,,,,,,,,,,,,,,,,,,,,,,,
,,653a784a41876017f84c89df,65af552b0a3110be0ab78254,2024-01-23_07h58.22.681,bars,2023.2.3,Win32,59.52380952,657b66ea316d21385b68909f,,,,,,,,,,,,,,,,,,,,,,,,,,,,,,,,,,,,,,,,,,257.3542,257.891,left,0.5299,,257.8911,1,1,258.8869,0,8,8,8,1,0,2,1,0,,,,,,,,,,,,,,,,,,,,,,,,,,,,,,,,,,,,,,,,,
,,653a784a41876017f84c89df,65af552b0a3110be0ab78254,2024-01-23_07h58.22.681,bars,2023.2.3,Win32,59.52380952,657b66ea316d21385b68909f,,,,,,,,,,,,,,,,,,,,,,,,,,,,,,,,,,,,,,,,,,258.8874,259.5533,left,0.6531,,259.5533,2,1,260.553,0,9,9,9,1,2,4,2,3,,,,,,,,,,,,,,,,,,,,,,,,,,,,,,,,,,,,,,,,,
,,653a784a41876017f84c89df,65af552b0a3110be0ab78254,2024-01-23_07h58.22.681,bars,2023.2.3,Win32,59.52380952,657b66ea316d21385b68909f,,,,,,,,,,,,,,,,,,,,,,,,,,,,,,,,,,,,,,,,,,260.5536,260.9702,right,0.407,,260.9703,3,2,261.9697,0,10,10,10,1,0,2,0,3,,,,,,,,,,,,,,,,,,,,,,,,,,,,,,,,,,,,,,,,,
,,653a784a41876017f84c89df,65af552b0a3110be0ab78254,2024-01-23_07h58.22.681,bars,2023.2.3,Win32,59.52380952,657b66ea316d21385b68909f,,,,,,,,,,,,,,,,,,,,,,,,,,,,,,,,,,,,,,,,,,261.9706,262.5865,right,0.6039,,262.5866,3,2,263.5862,0,11,11,11,1,0,4,0,3,,,,,,,,,,,,,,,,,,,,,,,,,,,,,,,,,,,,,,,,,
,,653a784a41876017f84c89df,65af552b0a3110be0ab78254,2024-01-23_07h58.22.681,bars,2023.2.3,Win32,59.52380952,657b66ea316d21385b68909f,,,,,,,,,,,,,,,,,,,,,,,,,,,,,,,,,,,,,,,,,,263.5866,263.9363,left,0.3373,,263.9365,1,1,264.936,0,12,12,12,1,2,6,1,6,,,,,,,,,,,,,,,,,,,,,,,,,,,,,,,,,,,,,,,,,
,,653a784a41876017f84c89df,65af552b0a3110be0ab78254,2024-01-23_07h58.22.681,bars,2023.2.3,Win32,59.52380952,657b66ea316d21385b68909f,,,,,,,,,,,,,,,,,,,,,,,,,,,,,,,,,,,,,,,,,,264.9367,265.2907,right,0.3472,,265.2909,3,2,266.287,0,13,13,13,1,0,4,1,3,,,,,,,,,,,,,,,,,,,,,,,,,,,,,,,,,,,,,,,,,
,,653a784a41876017f84c89df,65af552b0a3110be0ab78254,2024-01-23_07h58.22.681,bars,2023.2.3,Win32,59.52380952,657b66ea316d21385b68909f,,,,,,,,,,,,,,,,,,,,,,,,,,,,,,,,,,,,,,,,,,266.2877,266.537,right,0.2366,,266.537,7,2,267.5366,0,14,14,14,1,2,6,2,7,,,,,,,,,,,,,,,,,,,,,,,,,,,,,,,,,,,,,,,,,
,,653a784a41876017f84c89df,65af552b0a3110be0ab78254,2024-01-23_07h58.22.681,bars,2023.2.3,Win32,59.52380952,657b66ea316d21385b68909f,,,,,,,,,,,,,,,,,,,,,,,,,,,,,,,,,,,,,,,,,,267.5371,267.8432,right,0.2989,,267.8434,9,2,268.8365,0,15,15,15,1,4,8,3,9,,,,,,,,,,,,,,,,,,,,,,,,,,,,,,,,,,,,,,,,,
,,653a784a41876017f84c89df,65af552b0a3110be0ab78254,2024-01-23_07h58.22.681,bars,2023.2.3,Win32,59.52380952,657b66ea316d21385b68909f,,,,,,,,,,,,,,,,,,,,,,,,,,,,,,,,,,,,,,,,,,268.8371,269.0861,right,0.2382,,269.0862,7,2,270.0857,0,16,16,16,1,6,6,7,7,,,,,,,,,,,,,,,,,,,,,,,,,,,,,,,,,,,,,,,,,
,,653a784a41876017f84c89df,65af552b0a3110be0ab78254,2024-01-23_07h58.22.681,bars,2023.2.3,Win32,59.52380952,657b66ea316d21385b68909f,,,,,,,,,,,,,,,,,,,,,,,,,,,,,,,,,,,,,,,,,,270.0863,270.339,right,0.2456,,270.3391,5,2,271.3362,0,17,17,17,1,8,4,9,5,,,,,,,,,,,,,,,,,,,,,,,,,,,,,,,,,,,,,,,,,
,,653a784a41876017f84c89df,65af552b0a3110be0ab78254,2024-01-23_07h58.22.681,bars,2023.2.3,Win32,59.52380952,657b66ea316d21385b68909f,,,,,,,,,,,,,,,,,,,,,,,,,,,,,,,,,,,,,,,,,,271.3371,271.6022,left,0.2562,,271.6024,5,1,272.6028,0,18,18,18,1,6,2,5,1,,,,,,,,,,,,,,,,,,,,,,,,,,,,,,,,,,,,,,,,,
,,653a784a41876017f84c89df,65af552b0a3110be0ab78254,2024-01-23_07h58.22.681,bars,2023.2.3,Win32,59.52380952,657b66ea316d21385b68909f,,,,,,,,,,,,,,,,,,,,,,,,,,,,,,,,,,,,,,,,,,272.6034,272.9361,left,0.323,,272.9362,7,1,273.9359,0,19,19,19,1,8,0,7,0,,,,,,,,,,,,,,,,,,,,,,,,,,,,,,,,,,,,,,,,,
,,653a784a41876017f84c89df,65af552b0a3110be0ab78254,2024-01-23_07h58.22.681,bars,2023.2.3,Win32,59.52380952,657b66ea316d21385b68909f,,,,,,,,,,,,,,,,,,,,,,,,,,,,,,,,,,,,,,,,,,,,,,,,,,,,,,,,,,,,273.9372,288.6906,space,14.7361,,,,,,,,,,,,,,,,,,,,,,,,,,,,,,,,,,,,,
,,653a784a41876017f84c89df,65af552b0a3110be0ab78254,2024-01-23_07h58.22.681,bars,2023.2.3,Win32,59.52380952,657b66ea316d21385b68909f,,,,,,,,,,,291.1403,292.1337,,,292.6339,292.8834,,50,50,,,,,,,,,,,,,,,,bars/032.png,bars/mask004.png,,,,,,,,,,,,0,2,,,,,,,9,8,9,9,,,,,,288.7103,291.1334,space,2.4109,,292.1343,292.6339,292.8838,297.7337,space,4.8312,,297.7344,75,30,298.7318,298.7322,309.1057,space,10.3534,,0,0,0,0,1,125,20,,,,,,,,
,,653a784a41876017f84c89df,65af552b0a3110be0ab78254,2024-01-23_07h58.22.681,bars,2023.2.3,Win32,59.52380952,657b66ea316d21385b68909f,,,,,,,,,,,309.1247,310.1145,,,310.6144,310.8644,,16,16,,,,,,,,,,,,,,,,bars/049.png,bars/mask000.png,,,,,,,,,,,,0,1,,,,,,,7,10,7,10,,,,,,,,,,,310.1146,310.6144,310.8645,314.6145,space,3.7415,,314.6148,36,81,315.6136,315.6137,318.8632,space,3.2159,,0,1,1,1,1,160,115,,,,,,,,
,,653a784a41876017f84c89df,65af552b0a3110be0ab78254,2024-01-23_07h58.22.681,bars,2023.2.3,Win32,59.52380952,657b66ea316d21385b68909f,,,,,,,,,,,318.8638,319.8641,,,320.3647,320.6143,,146,146,,,,,,,,,,,,,,,,bars/020.png,bars/mask006.png,,,,,,,,,,,,2,2,,,,,,,9,10,9,10,,,,,,,,,,,319.8643,320.3646,320.6143,323.1461,space,2.523,,323.1462,31,24,324.1464,324.1464,330.0985,space,5.9184,,0,2,2,2,1,115,170,,,,,,,,
,,653a784a41876017f84c89df,65af552b0a3110be0ab78254,2024-01-23_07h58.22.681,bars,2023.2.3,Win32,59.52380952,657b66ea316d21385b68909f,,,,,,,,,,,330.1153,331.1001,,,331.6028,331.8447,,95,95,,,,,,,,,,,,,,,,bars/009.png,bars/mask006.png,,,,,,,,,,,,4,2,,,,,,,7,8,8,6,,,,,,,,,,,331.1001,331.6027,331.8448,333.6331,space,1.767,,333.6332,80,10,334.6281,334.6282,336.6577,space,2.0073,,0,3,3,3,1,15,105,,,,,,,,
,,653a784a41876017f84c89df,65af552b0a3110be0ab78254,2024-01-23_07h58.22.681,bars,2023.2.3,Win32,59.52380952,657b66ea316d21385b68909f,,,,,,,,,,,336.6584,337.6489,,,338.1442,338.3938,,161,161,,,,,,,,,,,,,,,,bars/047.png,bars/mask003.png,,,,,,,,,,,,0,1,,,,,,,5,10,6,10,,,,,,,,,,,337.6491,338.144,338.3938,340.9838,space,2.5679,,340.9838,34,89,341.9762,341.9763,344.9019,space,2.8933,,0,4,4,4,1,15,70,,,,,,,,
,,653a784a41876017f84c89df,65af552b0a3110be0ab78254,2024-01-23_07h58.22.681,bars,2023.2.3,Win32,59.52380952,657b66ea316d21385b68909f,,,,,,,,,,,344.9026,345.8948,,,346.3946,346.6442,,58,58,,,,,,,,,,,,,,,,bars/020.png,bars/mask006.png,,,,,,,,,,,,0,1,,,,,,,7,8,7,8,,,,,,,,,,,345.8949,346.3946,346.6443,348.7259,space,2.0721,,348.7261,57,68,349.7272,349.7272,362.5579,space,12.8014,,0,5,5,5,1,115,170,,,,,,,,
,,653a784a41876017f84c89df,65af552b0a3110be0ab78254,2024-01-23_07h58.22.681,bars,2023.2.3,Win32,59.52380952,657b66ea316d21385b68909f,,,,,,,,,,,362.5769,363.5754,,,364.0588,364.308,,132,132,,,,,,,,,,,,,,,,bars/006.png,bars/mask007.png,,,,,,,,,,,,0,2,,,,,,,9,6,9,5,,,,,,,,,,,363.5755,364.0587,364.3085,365.6749,space,1.3519,,365.6749,83,32,366.6751,366.6752,368.0289,space,1.3217,,0,6,6,6,1,35,100,,,,,,,,
,,653a784a41876017f84c89df,65af552b0a3110be0ab78254,2024-01-23_07h58.22.681,bars,2023.2.3,Win32,59.52380952,657b66ea316d21385b68909f,,,,,,,,,,,368.0297,369.0236,,,369.5235,369.7736,,163,-17,,,,,,,,,,,,,,,,bars/031.png,bars/mask007.png,,,,,,,,,,,,0,1,,,,,,,7,4,7,2,,,,,,,,,,,369.0236,369.5234,369.7736,372.9895,space,3.1987,,372.9896,43,52,373.9895,373.9896,375.512,space,1.4914,,0,7,7,7,1,120,35,,,,,,,,
,,653a784a41876017f84c89df,65af552b0a3110be0ab78254,2024-01-23_07h58.22.681,bars,2023.2.3,Win32,59.52380952,657b66ea316d21385b68909f,,,,,,,,,,,375.5125,376.5064,,,377.0058,377.2572,,56,56,,,,,,,,,,,,,,,,bars/047.png,bars/mask000.png,,,,,,,,,,,,2,2,,,,,,,5,2,6,3,,,,,,,,,,,376.5064,377.0057,377.2572,378.742,space,1.4778,,378.7421,41,14,379.7394,379.7394,382.5093,space,2.7527,,0,8,8,8,1,15,70,,,,,,,,
,,653a784a41876017f84c89df,65af552b0a3110be0ab78254,2024-01-23_07h58.22.681,bars,2023.2.3,Win32,59.52380952,657b66ea316d21385b68909f,,,,,,,,,,,382.5099,383.5061,,,384.006,384.2561,,115,115,,,,,,,,,,,,,,,,bars/039.png,bars/mask002.png,,,,,,,,,,,,3,2,,,,,,,7,4,8,4,,,,,,,,,,,383.5061,384.0058,384.2562,387.606,space,3.342,,387.6062,60,10,388.6044,388.6046,390.0957,space,1.4674,,0,9,9,9,1,175,105,,,,,,,,
,,653a784a41876017f84c89df,65af552b0a3110be0ab78254,2024-01-23_07h58.22.681,bars,2023.2.3,Win32,59.52380952,657b66ea316d21385b68909f,,,,,,,,,,,390.0966,391.088,,,391.588,391.8386,,10,190,,,,,,,,,,,,,,,,bars/046.png,bars/mask004.png,,,,,,,,,,,,0,1,,,,,,,9,2,10,2,,,,,,,,,,,391.088,391.588,391.8386,394.5699,space,2.7224,,394.5701,35,75,395.57,395.5701,399.1916,space,3.5906,,0,10,10,10,1,155,85,,,,,,,,
,,653a784a41876017f84c89df,65af552b0a3110be0ab78254,2024-01-23_07h58.22.681,bars,2023.2.3,Win32,59.52380952,657b66ea316d21385b68909f,,,,,,,,,,,399.21,400.2034,,,400.7039,400.9537,,152,-28,,,,,,,,,,,,,,,,bars/003.png,bars/mask009.png,,,,,,,,,,,,0,2,,,,,,,7,0,7,0,,,,,,,,,,,400.2034,400.7039,400.9538,402.8706,space,1.9027,,402.8708,53,12,403.8691,403.8691,406.1699,space,2.2798,,0,11,11,11,1,25,140,,,,,,,,
,,653a784a41876017f84c89df,65af552b0a3110be0ab78254,2024-01-23_07h58.22.681,bars,2023.2.3,Win32,59.52380952,657b66ea316d21385b68909f,,,,,,,,,,,406.1705,407.169,,,407.67,407.9203,,173,173,,,,,,,,,,,,,,,,bars/022.png,bars/mask008.png,,,,,,,,,,,,0,2,,,,,,,9,0,9,0,,,,,,,,,,,407.169,407.6699,407.9203,409.0181,space,1.0895,,409.0182,78,27,410.0196,410.0197,411.3019,space,1.2687,,0,12,12,12,1,95,20,,,,,,,,
,,653a784a41876017f84c89df,65af552b0a3110be0ab78254,2024-01-23_07h58.22.681,bars,2023.2.3,Win32,59.52380952,657b66ea316d21385b68909f,,,,,,,,,,,411.3032,412.3022,,,412.8002,413.0519,,65,245,,,,,,,,,,,,,,,,bars/037.png,bars/mask002.png,,,,,,,,,,,,0,2,,,,,,,10,0,10,2,,,,,,,,,,,412.3023,412.8002,413.052,416.4519,space,3.3848,,416.4519,85,40,417.452,417.4521,418.7523,space,1.271,,0,13,13,13,1,150,105,,,,,,,,
,,653a784a41876017f84c89df,65af552b0a3110be0ab78254,2024-01-23_07h58.22.681,bars,2023.2.3,Win32,59.52380952,657b66ea316d21385b68909f,,,,,,,,,,,418.7531,419.7508,,,420.2512,420.502,,52,52,,,,,,,,,,,,,,,,bars/028.png,bars/mask005.png,,,,,,,,,,,,6,1,,,,,,,10,2,8,0,,,,,,,,,,,419.7511,420.251,420.5021,423.6992,space,3.1864,,423.6993,7,68,424.6998,424.6999,426.1552,space,1.4226,,0,14,14,14,1,45,120,,,,,,,,
,,653a784a41876017f84c89df,65af552b0a3110be0ab78254,2024-01-23_07h58.22.681,bars,2023.2.3,Win32,59.52380952,657b66ea316d21385b68909f,,,,,,,,,,,426.156,427.1492,,,427.6489,427.899,,130,-50,,,,,,,,,,,,,,,,bars/018.png,bars/mask004.png,,,,,,,,,,,,3,1,,,,,,,8,4,8,4,,,,,,,,,,,427.1494,427.6489,427.8991,431.1143,space,3.2028,,431.1144,20,40,432.114,432.1141,437.0654,space,4.9304,,0,15,15,15,1,150,90,,,,,,,,
,,653a784a41876017f84c89df,65af552b0a3110be0ab78254,2024-01-23_07h58.22.681,bars,2023.2.3,Win32,59.52380952,657b66ea316d21385b68909f,,,,,,,,,,,437.083,438.0693,,,438.5643,438.8031,,46,226,,,,,,,,,,,,,,,,bars/039.png,bars/mask002.png,,,,,,,,,,,,0,1,,,,,,,10,2,10,2,,,,,,,,,,,438.0694,438.5642,438.8032,450.9672,space,12.1473,,450.9673,51,59,451.9659,451.966,455.1816,space,3.1852,,0,16,16,16,1,175,105,,,,,,,,
,,653a784a41876017f84c89df,65af552b0a3110be0ab78254,2024-01-23_07h58.22.681,bars,2023.2.3,Win32,59.52380952,657b66ea316d21385b68909f,,,,,,,,,,,455.1824,456.1785,,,456.6787,456.9285,,129,129,,,,,,,,,,,,,,,,bars/021.png,bars/mask003.png,,,,,,,,,,,,1,1,,,,,,,8,0,8,1,,,,,,,,,,,456.1786,456.6786,456.9285,457.9788,space,1.0377,,457.9789,26,59,458.9776,458.9777,460.3175,space,1.3302,,0,17,17,17,1,155,70,,,,,,,,
,,653a784a41876017f84c89df,65af552b0a3110be0ab78254,2024-01-23_07h58.22.681,bars,2023.2.3,Win32,59.52380952,657b66ea316d21385b68909f,,,,,,,,,,,460.3181,461.3111,,,461.8115,462.0611,,47,47,,,,,,,,,,,,,,,,bars/002.png,bars/mask002.png,,,,,,,,,,,,0,2,,,,,,,6,0,5,0,,,,,,,,,,,461.3111,461.8115,462.0612,463.5942,space,1.5201,,463.5943,83,38,464.5841,464.5842,466.1201,space,1.5068,,0,18,18,18,1,130,85,,,,,,,,
,,653a784a41876017f84c89df,65af552b0a3110be0ab78254,2024-01-23_07h58.22.681,bars,2023.2.3,Win32,59.52380952,657b66ea316d21385b68909f,,,,,,,,,,,466.1208,467.1106,,,467.6105,467.8606,,158,-22,,,,,,,,,,,,,,,,bars/000.png,bars/mask000.png,,,,,,,,,,,,0,2,,,,,,,8,0,9,0,,,,,,,,,,,467.1106,467.6105,467.8608,471.2293,space,3.3601,,471.2295,62,13,472.2266,472.2266,474.9546,space,2.7004,,0,19,19,19,1,40,145,,,,,,,,
,,653a784a41876017f84c89df,65af552b0a3110be0ab78254,2024-01-23_07h58.22.681,bars,2023.2.3,Win32,59.52380952,657b66ea316d21385b68909f,,,,,,,,,,,474.9552,475.948,,,476.4419,476.6925,,122,122,,,,,,,,,,,,,,,,bars/008.png,bars/mask002.png,,,,,,,,,,,,3,1,,,,,,,6,2,5,1,,,,,,,,,,,475.9481,476.4418,476.6927,479.8867,space,3.1727,,479.8869,12,58,480.8754,480.8755,481.9956,space,1.0858,,0,20,20,20,1,110,0,,,,,,,,
,,653a784a41876017f84c89df,65af552b0a3110be0ab78254,2024-01-23_07h58.22.681,bars,2023.2.3,Win32,59.52380952,657b66ea316d21385b68909f,,,,,,,,,,,481.9966,482.9914,,,483.4913,483.7415,,42,42,,,,,,,,,,,,,,,,bars/028.png,bars/mask001.png,,,,,,,,,,,,4,1,,,,,,,4,0,4,0,,,,,,,,,,,482.9914,483.4913,483.7417,489.6237,space,5.8666,,489.6238,3,78,490.624,490.624,492.1679,space,1.5156,,0,21,21,21,1,45,120,,,,,,,,
,,653a784a41876017f84c89df,65af552b0a3110be0ab78254,2024-01-23_07h58.22.681,bars,2023.2.3,Win32,59.52380952,657b66ea316d21385b68909f,,,,,,,,,,,492.1687,493.1624,,,493.6566,493.9123,,42,42,,,,,,,,,,,,,,,,bars/029.png,bars/mask000.png,,,,,,,,,,,,0,2,,,,,,,6,0,5,0,,,,,,,,,,,493.1624,493.6566,493.9124,496.8288,space,2.9004,,496.8289,48,3,497.8283,497.8284,500.778,space,2.9172,,0,22,22,22,1,90,45,,,,,,,,
,,653a784a41876017f84c89df,65af552b0a3110be0ab78254,2024-01-23_07h58.22.681,bars,2023.2.3,Win32,59.52380952,657b66ea316d21385b68909f,,,,,,,,,,,500.7958,501.7895,,,502.2942,502.5442,,18,198,,,,,,,,,,,,,,,,bars/040.png,bars/mask009.png,,,,,,,,,,,,0,2,,,,,,,4,0,4,0,,,,,,,,,,,501.7897,502.2942,502.5445,506.3498,space,3.7887,,506.3499,58,13,507.3384,507.3386,522.4193,space,15.0511,,0,23,23,23,1,140,5,,,,,,,,
,,653a784a41876017f84c89df,65af552b0a3110be0ab78254,2024-01-23_07h58.22.681,bars,2023.2.3,Win32,59.52380952,657b66ea316d21385b68909f,,,,,,,,,,,522.4372,523.4198,,,523.9201,524.1696,,21,201,,,,,,,,,,,,,,,,bars/038.png,bars/mask008.png,,,,,,,,,,,,0,1,,,,,,,6,0,5,0,,,,,,,,,,,523.4198,523.92,524.1696,532.6013,space,8.4222,,532.6013,36,49,533.6011,533.6011,535.0011,space,1.3718,,0,24,24,24,1,165,70,,,,,,,,
,,653a784a41876017f84c89df,65af552b0a3110be0ab78254,2024-01-23_07h58.22.681,bars,2023.2.3,Win32,59.52380952,657b66ea316d21385b68909f,,,,,,,,,,,535.0025,536.0012,,,536.5013,536.7511,,133,-47,,,,,,,,,,,,,,,,bars/038.png,bars/mask000.png,,,,,,,,,,,,0,1,,,,,,,8,2,7,2,,,,,,,,,,,536.0012,536.5013,536.7512,559.9976,space,23.2387,,559.9979,32,63,560.9982,560.9983,563.4395,space,2.4164,,0,25,25,25,1,165,70,,,,,,,,
,,653a784a41876017f84c89df,65af552b0a3110be0ab78254,2024-01-23_07h58.22.681,bars,2023.2.3,Win32,59.52380952,657b66ea316d21385b68909f,,,,,,,,,,,563.44,564.4308,,,564.9314,565.1808,,139,139,,,,,,,,,,,,,,,,bars/028.png,bars/mask008.png,,,,,,,,,,,,1,2,,,,,,,10,4,10,4,,,,,,,,,,,564.4309,564.9311,565.1808,598.0888,space,32.8864,,598.0889,86,19,599.0815,599.0817,601.7764,space,2.6574,,0,26,26,26,1,45,120,,,,,,,,
,,653a784a41876017f84c89df,65af552b0a3110be0ab78254,2024-01-23_07h58.22.681,bars,2023.2.3,Win32,59.52380952,657b66ea316d21385b68909f,,,,,,,,,,,601.7782,602.776,,,603.276,603.5259,,69,69,,,,,,,,,,,,,,,,bars/021.png,bars/mask003.png,,,,,,,,,,,,8,2,,,,,,,10,6,9,8,,,,,,,,,,,602.7762,603.276,603.5259,604.0423,space,0.506,,604.0424,86,1,605.0425,605.0425,606.1335,space,1.0804,,0,27,27,27,1,155,70,,,,,,,,
,,653a784a41876017f84c89df,65af552b0a3110be0ab78254,2024-01-23_07h58.22.681,bars,2023.2.3,Win32,59.52380952,657b66ea316d21385b68909f,,,,,,,,,,,606.1344,607.1257,,,607.6256,607.8754,,35,35,,,,,,,,,,,,,,,,bars/041.png,bars/mask009.png,,,,,,,,,,,,3,1,,,,,,,8,4,6,5,,,,,,,,,,,607.1257,607.6255,607.8754,608.5601,space,0.6762,,608.5602,15,50,609.5585,609.5587,610.5412,space,0.9625,,0,28,28,28,1,20,85,,,,,,,,
,,653a784a41876017f84c89df,65af552b0a3110be0ab78254,2024-01-23_07h58.22.681,bars,2023.2.3,Win32,59.52380952,657b66ea316d21385b68909f,,,,,,,,,,,610.5421,611.5416,,,612.0416,612.2906,,76,76,,,,,,,,,,,,,,,,bars/045.png,bars/mask005.png,,,,,,,,,,,,2,1,,,,,,,10,2,10,2,,,,,,,,,,,611.5417,612.0415,612.2907,614.1446,space,1.8459,,614.1447,24,66,615.1418,615.1418,616.3328,space,1.1632,,0,29,29,29,1,100,10,,,,,,,,
,,653a784a41876017f84c89df,65af552b0a3110be0ab78254,2024-01-23_07h58.22.681,bars,2023.2.3,Win32,59.52380952,657b66ea316d21385b68909f,,,,,,,,,,,616.3335,617.3254,,,617.8255,618.0756,,22,22,,,,,,,,,,,,,,,,bars/031.png,bars/mask008.png,,,,,,,,,,,,0,2,,,,,,,10,0,10,0,,,,,,,,,,,617.3255,617.8254,618.0756,619.3072,space,1.2159,,619.3074,82,13,620.3087,620.3087,623.2927,space,2.9666,,0,30,30,30,1,120,35,,,,,,,,
,,653a784a41876017f84c89df,65af552b0a3110be0ab78254,2024-01-23_07h58.22.681,bars,2023.2.3,Win32,59.52380952,657b66ea316d21385b68909f,,,,,,,,,,,623.3027,624.3058,,,624.8057,625.0555,,22,22,,,,,,,,,,,,,,,,bars/029.png,bars/mask009.png,,,,,,,,,,,,0,2,,,,,,,8,0,7,0,,,,,,,,,,,624.3059,624.8055,625.0555,625.9387,space,0.8726,,625.9388,68,23,626.9387,626.9388,629.0563,space,2.1013,,0,31,31,31,1,90,45,,,,,,,,
,,653a784a41876017f84c89df,65af552b0a3110be0ab78254,2024-01-23_07h58.22.681,bars,2023.2.3,Win32,59.52380952,657b66ea316d21385b68909f,,,,,,,,,,,629.0573,630.0571,,,630.5573,630.8069,,36,36,,,,,,,,,,,,,,,,bars/039.png,bars/mask007.png,,,,,,,,,,,,0,1,,,,,,,6,2,6,4,,,,,,,,,,,630.0572,630.5572,630.8069,632.438,space,1.6163,,632.438,41,69,633.4395,633.4396,635.2716,space,1.7982,,0,32,32,32,1,175,105,,,,,,,,
,,653a784a41876017f84c89df,65af552b0a3110be0ab78254,2024-01-23_07h58.22.681,bars,2023.2.3,Win32,59.52380952,657b66ea316d21385b68909f,,,,,,,,,,,635.2723,636.2712,,,636.7716,637.0216,,39,39,,,,,,,,,,,,,,,,bars/040.png,bars/mask005.png,,,,,,,,,,,,0,2,,,,,,,4,4,5,5,,,,,,,,,,,636.2713,636.7715,637.0216,638.6205,space,1.5881,,638.6205,79,34,639.621,639.6211,641.228,space,1.5764,,0,33,33,33,1,140,5,,,,,,,,
,,653a784a41876017f84c89df,65af552b0a3110be0ab78254,2024-01-23_07h58.22.681,bars,2023.2.3,Win32,59.52380952,657b66ea316d21385b68909f,,,,,,,,,,,641.2283,642.226,,,642.7262,642.9707,,23,23,,,,,,,,,,,,,,,,bars/006.png,bars/mask005.png,,,,,,,,,,,,4,1,,,,,,,6,2,7,3,,,,,,,,,,,642.2261,642.7261,642.9708,646.9582,space,3.9814,,646.9583,12,77,647.9531,647.9531,649.898,space,1.9148,,0,34,34,34,1,35,100,,,,,,,,
,,653a784a41876017f84c89df,65af552b0a3110be0ab78254,2024-01-23_07h58.22.681,bars,2023.2.3,Win32,59.52380952,657b66ea316d21385b68909f,,,,,,,,,,,649.8986,650.8914,,,651.3919,651.6413,,156,156,,,,,,,,,,,,,,,,bars/028.png,bars/mask008.png,,,,,,,,,,,,0,2,,,,,,,4,0,3,0,,,,,,,,,,,650.8914,651.3918,651.6415,652.1151,space,0.4569,,652.1151,69,36,653.108,653.108,654.3873,space,1.2587,,0,35,35,35,1,45,120,,,,,,,,
,,653a784a41876017f84c89df,65af552b0a3110be0ab78254,2024-01-23_07h58.22.681,bars,2023.2.3,Win32,59.52380952,657b66ea316d21385b68909f,,,,,,,,,,,654.3886,655.3895,,,655.8906,656.1361,,106,106,,,,,,,,,,,,,,,,bars/004.png,bars/mask000.png,,,,,,,,,,,,0,2,,,,,,,6,0,6,1,,,,,,,,,,,655.3896,655.8906,656.1363,657.9594,space,1.8023,,657.9595,81,19,658.9571,658.9571,660.3483,space,1.3746,,0,36,36,36,1,25,125,,,,,,,,
,,653a784a41876017f84c89df,65af552b0a3110be0ab78254,2024-01-23_07h58.22.681,bars,2023.2.3,Win32,59.52380952,657b66ea316d21385b68909f,,,,,,,,,,,660.349,661.3397,,,661.8402,662.0854,,35,35,,,,,,,,,,,,,,,,bars/015.png,bars/mask001.png,,,,,,,,,,,,0,2,,,,,,,4,2,3,4,,,,,,,,,,,661.3398,661.84,662.0854,662.7458,space,0.6393,,662.7459,75,55,663.7375,663.7375,664.9963,space,1.2401,,0,37,37,37,1,110,160,,,,,,,,
,,653a784a41876017f84c89df,65af552b0a3110be0ab78254,2024-01-23_07h58.22.681,bars,2023.2.3,Win32,59.52380952,657b66ea316d21385b68909f,,,,,,,,,,,664.9967,665.9876,,,666.4898,666.7343,,116,116,,,,,,,,,,,,,,,,bars/030.png,bars/mask008.png,,,,,,,,,,,,0,1,,,,,,,2,4,2,4,,,,,,,,,,,665.9876,666.4897,666.7343,668.226,space,1.4696,,668.226,24,51,669.2219,669.222,673.0116,space,3.7726,,0,38,38,38,1,140,65,,,,,,,,
,,653a784a41876017f84c89df,65af552b0a3110be0ab78254,2024-01-23_07h58.22.681,bars,2023.2.3,Win32,59.52380952,657b66ea316d21385b68909f,,,,,,,,,,,673.0306,674.0167,,,674.517,674.7668,,70,70,,,,,,,,,,,,,,,,bars/023.png,bars/mask004.png,,,,,,,,,,,,0,2,,,,,,,0,2,0,2,,,,,,,,,,,674.0167,674.5169,674.7668,677.0728,space,2.2984,,677.0729,50,45,678.0662,678.0664,679.7254,space,1.629,,0,39,39,39,1,20,115,,,,,,,,
,,653a784a41876017f84c89df,65af552b0a3110be0ab78254,2024-01-23_07h58.22.681,bars,2023.2.3,Win32,59.52380952,657b66ea316d21385b68909f,,,,,,,,,,,679.7261,680.7156,,,681.2156,681.4669,,23,23,,,,,,,,,,,,,,,,bars/024.png,bars/mask002.png,,,,,,,,,,,,0,2,,,,,,,2,4,3,5,,,,,,,,,,,680.7158,681.2155,681.4669,685.0428,space,3.5552,,685.0429,83,33,686.0318,686.0319,688.2879,space,2.2283,,0,40,40,40,1,120,170,,,,,,,,
,,653a784a41876017f84c89df,65af552b0a3110be0ab78254,2024-01-23_07h58.22.681,bars,2023.2.3,Win32,59.52380952,657b66ea316d21385b68909f,,,,,,,,,,,688.2886,689.2815,,,689.7873,690.0364,,104,104,,,,,,,,,,,,,,,,bars/047.png,bars/mask008.png,,,,,,,,,,,,0,2,,,,,,,4,2,2,2,,,,,,,,,,,689.2815,689.7873,690.0365,690.6926,space,0.6399,,690.6926,89,34,691.6812,691.6812,692.6697,space,0.9665,,0,41,41,41,1,15,70,,,,,,,,
,,653a784a41876017f84c89df,65af552b0a3110be0ab78254,2024-01-23_07h58.22.681,bars,2023.2.3,Win32,59.52380952,657b66ea316d21385b68909f,,,,,,,,,,,692.6706,693.6688,,,694.1692,694.4141,,34,34,,,,,,,,,,,,,,,,bars/020.png,bars/mask006.png,,,,,,,,,,,,0,2,,,,,,,6,0,5,0,,,,,,,,,,,693.6689,694.1692,694.4141,696.9752,space,2.5546,,696.9752,81,44,697.9687,697.9687,698.7879,space,0.7903,,0,42,42,42,1,115,170,,,,,,,,
,,653a784a41876017f84c89df,65af552b0a3110be0ab78254,2024-01-23_07h58.22.681,bars,2023.2.3,Win32,59.52380952,657b66ea316d21385b68909f,,,,,,,,,,,698.7885,699.7795,,,700.2803,700.529,,125,125,,,,,,,,,,,,,,,,bars/045.png,bars/mask009.png,,,,,,,,,,,,1,1,,,,,,,8,0,8,0,,,,,,,,,,,699.7795,700.2802,700.529,702.3125,space,1.7732,,702.3128,25,65,703.3132,703.3132,704.213,space,0.8786,,0,43,43,43,1,100,10,,,,,,,,
,,653a784a41876017f84c89df,65af552b0a3110be0ab78254,2024-01-23_07h58.22.681,bars,2023.2.3,Win32,59.52380952,657b66ea316d21385b68909f,,,,,,,,,,,704.214,705.2127,,,705.7126,705.9625,,88,88,,,,,,,,,,,,,,,,bars/043.png,bars/mask007.png,,,,,,,,,,,,0,2,,,,,,,6,0,7,0,,,,,,,,,,,705.2128,705.7126,705.9626,708.7671,space,2.7963,,708.7671,58,42,709.7622,709.7624,711.3111,space,1.5112,,0,44,44,44,1,30,130,,,,,,,,
,,653a784a41876017f84c89df,65af552b0a3110be0ab78254,2024-01-23_07h58.22.681,bars,2023.2.3,Win32,59.52380952,657b66ea316d21385b68909f,,,,,,,,,,,711.3121,712.312,,,712.8117,713.0616,,117,117,,,,,,,,,,,,,,,,bars/041.png,bars/mask001.png,,,,,,,,,,,,0,2,,,,,,,8,0,9,0,,,,,,,,,,,712.3121,712.8117,713.0616,713.6153,space,0.5451,,713.6154,83,32,714.6116,714.6117,716.1605,space,1.5352,,0,45,45,45,1,20,85,,,,,,,,
,,653a784a41876017f84c89df,65af552b0a3110be0ab78254,2024-01-23_07h58.22.681,bars,2023.2.3,Win32,59.52380952,657b66ea316d21385b68909f,,,,,,,,,,,716.1614,717.161,,,717.6611,717.91,,125,125,,,,,,,,,,,,,,,,bars/039.png,bars/mask001.png,,,,,,,,,,,,1,2,,,,,,,10,2,8,2,,,,,,,,,,,717.1612,717.661,717.9101,719.9283,space,2.0071,,719.9286,50,20,720.9268,720.9268,722.2608,space,1.3037,,0,46,46,46,1,175,105,,,,,,,,
,,653a784a41876017f84c89df,65af552b0a3110be0ab78254,2024-01-23_07h58.22.681,bars,2023.2.3,Win32,59.52380952,657b66ea316d21385b68909f,,,,,,,,,,,722.2617,723.26,,,723.7604,724.0106,,160,160,,,,,,,,,,,,,,,,bars/005.png,bars/mask008.png,,,,,,,,,,,,1,2,,,,,,,8,4,7,4,,,,,,,,,,,723.2601,723.7604,724.0106,726.9601,space,2.9413,,726.9603,30,20,727.9597,727.9597,730.2042,space,2.2181,,0,47,47,47,1,10,140,,,,,,,,
,,653a784a41876017f84c89df,65af552b0a3110be0ab78254,2024-01-23_07h58.22.681,bars,2023.2.3,Win32,59.52380952,657b66ea316d21385b68909f,,,,,,,,,,,730.2049,731.2089,,,731.6971,731.9457,,134,134,,,,,,,,,,,,,,,,bars/023.png,bars/mask002.png,,,,,,,,,,,,2,2,,,,,,,6,6,5,5,,,,,,,,,,,731.209,731.6971,731.9458,732.7703,space,0.8061,,732.7704,66,19,733.7585,733.7586,734.6527,space,0.871,,0,48,48,48,1,20,115,,,,,,,,
,,653a784a41876017f84c89df,65af552b0a3110be0ab78254,2024-01-23_07h58.22.681,bars,2023.2.3,Win32,59.52380952,657b66ea316d21385b68909f,,,,,,,,,,,734.6533,735.647,,,736.1472,736.3919,,61,61,,,,,,,,,,,,,,,,bars/021.png,bars/mask005.png,,,,,,,,,,,,4,2,,,,,,,4,4,4,5,,,,,,,,,,,735.647,736.1472,736.392,739.7823,space,3.3681,,739.7824,86,9,740.7741,740.7741,742.3684,space,1.5674,,0,49,49,49,1,155,70,,,,,,,,
,,653a784a41876017f84c89df,65af552b0a3110be0ab78254,2024-01-23_07h58.22.681,bars,2023.2.3,Win32,59.52380952,657b66ea316d21385b68909f,,,,,,,,,,,,,,,,,,,,,,,,,,,,,,,,,,,,,,,,,,,,,,,,,,,,,,,,,,,,,,,,,,,,,,,,,,,,,,,,,,,,,,,,,,,,,742.3704,802.372,0,0,0,4,1,sequence_tables/blk000.csv
,,653a784a41876017f84c89df,65af552b0a3110be0ab78254,2024-01-23_07h58.22.681,bars,2023.2.3,Win32,59.52380952,657b66ea316d21385b68909f,,,,,,,,,,,829.4141,830.3959,,,830.8959,831.1462,,144,144,,,,,,,,,,,,,,,,bars/028.png,bars/mask008.png,,,,,,,,,,,,1,2,,,,,,,9,4,9,4,,,,,,802.3851,829.3889,space,26.9971,,830.396,830.8958,831.1462,833.3126,space,2.1547,,833.3127,81,24,834.3124,834.3124,834.3317,,,,0,0,0,0,1,45,120,,,,,,,,
,,653a784a41876017f84c89df,65af552b0a3110be0ab78254,2024-01-23_07h58.22.681,bars,2023.2.3,Win32,59.52380952,657b66ea316d21385b68909f,,,,,,,,,,,834.332,835.3338,,,835.834,836.0837,,75,75,,,,,,,,,,,,,,,,bars/034.png,bars/mask000.png,,,,,,,,,,,,0,2,,,,,,,7,2,7,0,,,,,,,,,,,835.3338,835.8338,836.0839,838.2844,space,2.184,,838.2845,50,10,839.2784,839.2788,839.2813,,,,0,1,1,1,1,125,65,,,,,,,,
,,653a784a41876017f84c89df,65af552b0a3110be0ab78254,2024-01-23_07h58.22.681,bars,2023.2.3,Win32,59.52380952,657b66ea316d21385b68909f,,,,,,,,,,,839.2818,840.2828,,,840.7783,841.0279,,28,28,,,,,,,,,,,,,,,,bars/012.png,bars/mask005.png,,,,,,,,,,,,1,2,,,,,,,9,0,8,1,,,,,,,,,,,840.2829,840.7782,841.028,843.1225,space,2.0729,,843.1225,62,13,844.1112,844.1113,844.1309,,,,0,2,2,2,1,90,15,,,,,,,,
,,653a784a41876017f84c89df,65af552b0a3110be0ab78254,2024-01-23_07h58.22.681,bars,2023.2.3,Win32,59.52380952,657b66ea316d21385b68909f,,,,,,,,,,,844.1314,845.1327,,,845.631,845.8775,,131,131,,,,,,,,,,,,,,,,bars/018.png,bars/mask003.png,,,,,,,,,,,,3,1,,,,,,,7,2,8,2,,,,,,,,,,,845.1327,845.6309,845.8776,848.8208,space,2.9224,,848.8209,19,41,849.8105,849.8106,849.8314,,,,0,3,3,3,1,150,90,,,,,,,,
,,653a784a41876017f84c89df,65af552b0a3110be0ab78254,2024-01-23_07h58.22.681,bars,2023.2.3,Win32,59.52380952,657b66ea316d21385b68909f,,,,,,,,,,,849.8318,850.832,,,851.3269,851.5654,,19,19,,,,,,,,,,,,,,,,bars/003.png,bars/mask005.png,,,,,,,,,,,,7,1,,,,,,,9,4,9,4,,,,,,,,,,,850.8321,851.3268,851.5655,853.5376,space,1.9555,,853.5376,6,59,854.5294,854.5294,854.5484,,,,0,4,4,4,1,25,140,,,,,,,,
,,653a784a41876017f84c89df,65af552b0a3110be0ab78254,2024-01-23_07h58.22.681,bars,2023.2.3,Win32,59.52380952,657b66ea316d21385b68909f,,,,,,,,,,,854.5488,855.5426,,,856.0477,856.296,,62,62,,,,,,,,,,,,,,,,bars/037.png,bars/mask007.png,,,,,,,,,,,,0,2,,,,,,,10,6,10,6,,,,,,,,,,,855.5426,856.0477,856.2961,858.0545,space,1.7402,,858.0546,88,43,859.0473,859.0474,859.0512,,,,0,5,5,5,1,150,105,,,,,,,,
,,653a784a41876017f84c89df,65af552b0a3110be0ab78254,2024-01-23_07h58.22.681,bars,2023.2.3,Win32,59.52380952,657b66ea316d21385b68909f,,,,,,,,,,,859.0516,860.0427,,,860.5421,860.7979,,140,140,,,,,,,,,,,,,,,,bars/022.png,bars/mask005.png,,,,,,,,,,,,0,1,,,,,,,8,4,9,6,,,,,,,,,,,860.0428,860.542,860.7979,862.3494,space,1.535,,862.3494,45,60,863.3415,863.3415,863.3462,,,,0,6,6,6,1,95,20,,,,,,,,
,,653a784a41876017f84c89df,65af552b0a3110be0ab78254,2024-01-23_07h58.22.681,bars,2023.2.3,Win32,59.52380952,657b66ea316d21385b68909f,,,,,,,,,,,863.3466,864.3406,,,864.8407,865.096,,52,52,,,,,,,,,,,,,,,,bars/020.png,bars/mask002.png,,,,,,,,,,,,0,2,,,,,,,10,2,10,2,,,,,,,,,,,864.3407,864.8407,865.096,866.7922,space,1.6903,,866.7923,63,62,867.7796,867.7796,867.7835,,,,0,7,7,7,1,115,170,,,,,,,,
,,653a784a41876017f84c89df,65af552b0a3110be0ab78254,2024-01-23_07h58.22.681,bars,2023.2.3,Win32,59.52380952,657b66ea316d21385b68909f,,,,,,,,,,,867.784,868.7742,,,869.278,869.5243,,160,-20,,,,,,,,,,,,,,,,bars/043.png,bars/mask006.png,,,,,,,,,,,,0,2,,,,,,,10,4,10,4,,,,,,,,,,,868.7742,869.2779,869.5244,872.4152,space,2.8688,,872.4152,50,30,873.4074,873.4074,873.4279,,,,0,8,8,8,1,30,130,,,,,,,,
,,653a784a41876017f84c89df,65af552b0a3110be0ab78254,2024-01-23_07h58.22.681,bars,2023.2.3,Win32,59.52380952,657b66ea316d21385b68909f,,,,,,,,,,,873.4282,874.4289,,,874.9239,875.1621,,156,156,,,,,,,,,,,,,,,,bars/039.png,bars/mask001.png,,,,,,,,,,,,2,1,,,,,,,8,6,6,5,,,,,,,,,,,874.4289,874.9238,875.1621,877.1175,space,1.9394,,877.1176,19,51,878.1114,878.1115,878.1338,,,,0,9,9,9,1,175,105,,,,,,,,
,,653a784a41876017f84c89df,65af552b0a3110be0ab78254,2024-01-23_07h58.22.681,bars,2023.2.3,Win32,59.52380952,657b66ea316d21385b68909f,,,,,,,,,,,878.1341,879.123,,,879.6228,879.8735,,29,29,,,,,,,,,,,,,,,,bars/022.png,bars/mask004.png,,,,,,,,,,,,4,2,,,,,,,6,4,6,5,,,,,,,,,,,879.123,879.6228,879.8735,884.3229,space,4.4362,,884.3233,66,9,885.3223,885.3224,885.3429,,,,0,10,10,10,1,95,20,,,,,,,,
,,653a784a41876017f84c89df,65af552b0a3110be0ab78254,2024-01-23_07h58.22.681,bars,2023.2.3,Win32,59.52380952,657b66ea316d21385b68909f,,,,,,,,,,,885.3433,886.3397,,,886.8383,887.0886,,101,101,,,,,,,,,,,,,,,,bars/007.png,bars/mask006.png,,,,,,,,,,,,0,2,,,,,,,4,2,3,2,,,,,,,,,,,886.3397,886.8383,887.0886,1005.3127,space,118.2163,,1005.3127,74,46,1006.3064,1006.3064,1006.3276,,,,0,11,11,11,1,175,55,,,,,,,,
,,653a784a41876017f84c89df,65af552b0a3110be0ab78254,2024-01-23_07h58.22.681,bars,2023.2.3,Win32,59.52380952,657b66ea316d21385b68909f,,,,,,,,,,,1006.328,1007.3237,,,1007.8223,1008.0728,,46,46,,,,,,,,,,,,,,,,bars/043.png,bars/mask005.png,,,,,,,,,,,,1,1,,,,,,,2,0,3,2,,,,,,,,,,,1007.3238,1007.8222,1008.0728,1009.2938,space,1.2131,,1009.2938,16,84,1010.2889,1010.289,1010.2934,,,,0,12,12,12,1,30,130,,,,,,,,
,,653a784a41876017f84c89df,65af552b0a3110be0ab78254,2024-01-23_07h58.22.681,bars,2023.2.3,Win32,59.52380952,657b66ea316d21385b68909f,,,,,,,,,,,1010.2939,1011.2889,,,1011.789,1012.0389,,154,154,,,,,,,,,,,,,,,,bars/039.png,bars/mask007.png,,,,,,,,,,,,1,1,,,,,,,4,0,4,0,,,,,,,,,,,1011.289,1011.789,1012.039,1017.005,space,4.9508,,1017.005,21,49,1018.0049,1018.0049,1018.0234,,,,0,13,13,13,1,175,105,,,,,,,,
,,653a784a41876017f84c89df,65af552b0a3110be0ab78254,2024-01-23_07h58.22.681,bars,2023.2.3,Win32,59.52380952,657b66ea316d21385b68909f,,,,,,,,,,,1018.0237,1019.0214,,,1019.5212,1019.7713,,59,59,,,,,,,,,,,,,,,,bars/004.png,bars/mask009.png,,,,,,,,,,,,0,1,,,,,,,6,2,5,2,,,,,,,,,,,1019.0214,1019.5211,1019.7714,1022.3041,space,2.5173,,1022.3042,34,66,1023.3042,1023.3043,1023.3232,,,,0,14,14,14,1,25,125,,,,,,,,
,,653a784a41876017f84c89df,65af552b0a3110be0ab78254,2024-01-23_07h58.22.681,bars,2023.2.3,Win32,59.52380952,657b66ea316d21385b68909f,,,,,,,,,,,1023.3236,1024.3256,,,1024.8255,1025.0756,,16,196,,,,,,,,,,,,,,,,bars/049.png,bars/mask004.png,,,,,,,,,,,,0,1,,,,,,,8,4,10,6,,,,,,,,,,,1024.3256,1024.8255,1025.0757,1026.0771,space,0.9849,,1026.0771,36,81,1027.0757,1027.0758,1027.0779,,,,0,15,15,15,1,160,115,,,,,,,,
,,653a784a41876017f84c89df,65af552b0a3110be0ab78254,2024-01-23_07h58.22.681,bars,2023.2.3,Win32,59.52380952,657b66ea316d21385b68909f,,,,,,,,,,,1027.0784,1028.0692,,,1028.575,1028.82,,112,112,,,,,,,,,,,,,,,,bars/034.png,bars/mask002.png,,,,,,,,,,,,6,1,,,,,,,10,6,10,7,,,,,,,,,,,1028.0693,1028.5749,1028.8201,1029.9934,space,1.1517,,1029.9935,13,47,1030.9858,1030.9858,1030.9883,,,,0,16,16,16,1,125,65,,,,,,,,
,,653a784a41876017f84c89df,65af552b0a3110be0ab78254,2024-01-23_07h58.22.681,bars,2023.2.3,Win32,59.52380952,657b66ea316d21385b68909f,,,,,,,,,,,1030.9888,1031.9856,,,1032.4747,1032.7241,,36,36,,,,,,,,,,,,,,,,bars/011.png,bars/mask000.png,,,,,,,,,,,,0,2,,,,,,,8,4,8,5,,,,,,,,,,,1031.9857,1032.4747,1032.7243,1034.1365,space,1.3867,,1034.1367,56,49,1035.136,1035.1361,1035.1413,,,,0,17,17,17,1,160,85,,,,,,,,
,,653a784a41876017f84c89df,65af552b0a3110be0ab78254,2024-01-23_07h58.22.681,bars,2023.2.3,Win32,59.52380952,657b66ea316d21385b68909f,,,,,,,,,,,1035.1417,1036.136,,,1036.641,1036.886,,12,12,,,,,,,,,,,,,,,,bars/012.png,bars/mask004.png,,,,,,,,,,,,5,2,,,,,,,6,6,5,6,,,,,,,,,,,1036.1361,1036.6409,1036.8861,1039.0432,space,2.1355,,1039.0433,78,3,1040.0399,1040.0399,1040.0416,,,,0,18,18,18,1,90,15,,,,,,,,
,,653a784a41876017f84c89df,65af552b0a3110be0ab78254,2024-01-23_07h58.22.681,bars,2023.2.3,Win32,59.52380952,657b66ea316d21385b68909f,,,,,,,,,,,1040.0421,1041.0344,,,1041.5404,1041.7844,,28,28,,,,,,,,,,,,,,,,bars/007.png,bars/mask005.png,,,,,,,,,,,,1,2,,,,,,,8,8,8,8,,,,,,,,,,,1041.0345,1041.5403,1041.7845,1043.1851,space,1.374,,1043.1852,33,27,1044.1838,1044.1839,1044.1855,,,,0,19,19,19,1,175,55,,,,,,,,
,,653a784a41876017f84c89df,65af552b0a3110be0ab78254,2024-01-23_07h58.22.681,bars,2023.2.3,Win32,59.52380952,657b66ea316d21385b68909f,,,,,,,,,,,1044.1862,1045.1838,,,1045.6901,1045.9378,,72,72,,,,,,,,,,,,,,,,bars/037.png,bars/mask004.png,,,,,,,,,,,,0,2,,,,,,,10,6,10,5,,,,,,,,,,,1045.1839,1045.69,1045.9378,1047.2411,space,1.2847,,1047.2412,78,33,1048.2377,1048.2378,1048.24,,,,0,20,20,20,1,150,105,,,,,,,,
,,653a784a41876017f84c89df,65af552b0a3110be0ab78254,2024-01-23_07h58.22.681,bars,2023.2.3,Win32,59.52380952,657b66ea316d21385b68909f,,,,,,,,,,,1048.2405,1049.2373,,,1049.7337,1049.9894,,112,112,,,,,,,,,,,,,,,,bars/030.png,bars/mask003.png,,,,,,,,,,,,1,1,,,,,,,8,8,8,8,,,,,,,,,,,1049.2374,1049.7336,1049.9895,1052.1858,space,2.179,,1052.1859,28,47,1053.1832,1053.1835,1053.2055,,,,0,21,21,21,1,140,65,,,,,,,,
,,653a784a41876017f84c89df,65af552b0a3110be0ab78254,2024-01-23_07h58.22.681,bars,2023.2.3,Win32,59.52380952,657b66ea316d21385b68909f,,,,,,,,,,,1053.2059,1054.2036,,,1054.6997,1054.9498,,104,104,,,,,,,,,,,,,,,,bars/010.png,bars/mask000.png,,,,,,,,,,,,0,2,,,,,,,6,10,4,10,,,,,,,,,,,1054.2036,1054.6996,1054.9499,1055.6103,space,0.6389,,1055.6104,61,49,1056.6062,1056.6063,1056.6108,,,,0,22,22,22,1,165,55,,,,,,,,
,,653a784a41876017f84c89df,65af552b0a3110be0ab78254,2024-01-23_07h58.22.681,bars,2023.2.3,Win32,59.52380952,657b66ea316d21385b68909f,,,,,,,,,,,1056.6114,1057.599,,,1058.0881,1058.3331,,71,71,,,,,,,,,,,,,,,,bars/033.png,bars/mask008.png,,,,,,,,,,,,0,1,,,,,,,4,10,4,9,,,,,,,,,,,1057.5991,1058.088,1058.3332,1060.539,space,2.1842,,1060.5391,46,84,1061.537,1061.537,1061.5591,,,,0,23,23,23,1,25,155,,,,,,,,
,,653a784a41876017f84c89df,65af552b0a3110be0ab78254,2024-01-23_07h58.22.681,bars,2023.2.3,Win32,59.52380952,657b66ea316d21385b68909f,,,,,,,,,,,1061.5594,1062.549,,,1063.0486,1063.299,,152,152,,,,,,,,,,,,,,,,bars/046.png,bars/mask002.png,,,,,,,,,,,,6,1,,,,,,,6,8,7,8,,,,,,,,,,,1062.5492,1063.0484,1063.2991,1064.9814,space,1.6722,,1064.9816,3,67,1065.9819,1065.9819,1065.9842,,,,0,24,24,24,1,155,85,,,,,,,,
,,653a784a41876017f84c89df,65af552b0a3110be0ab78254,2024-01-23_07h58.22.681,bars,2023.2.3,Win32,59.52380952,657b66ea316d21385b68909f,,,,,,,,,,,1065.9847,1066.9819,,,1067.4815,1067.7313,,125,125,,,,,,,,,,,,,,,,bars/045.png,bars/mask000.png,,,,,,,,,,,,1,1,,,,,,,8,6,9,4,,,,,,,,,,,1066.9819,1067.4813,1067.7314,1069.8048,space,2.0655,,1069.8048,25,65,1070.798,1070.798,1070.8165,,,,0,25,25,25,1,100,10,,,,,,,,
,,653a784a41876017f84c89df,65af552b0a3110be0ab78254,2024-01-23_07h58.22.681,bars,2023.2.3,Win32,59.52380952,657b66ea316d21385b68909f,,,,,,,,,,,1070.8167,1071.815,,,1072.3156,1072.5643,,114,114,,,,,,,,,,,,,,,,bars/022.png,bars/mask008.png,,,,,,,,,,,,4,1,,,,,,,10,4,10,5,,,,,,,,,,,1071.815,1072.3156,1072.5644,1075.1378,space,2.5653,,1075.1379,19,86,1076.1303,1076.1303,1076.1489,,,,0,26,26,26,1,95,20,,,,,,,,
,,653a784a41876017f84c89df,65af552b0a3110be0ab78254,2024-01-23_07h58.22.681,bars,2023.2.3,Win32,59.52380952,657b66ea316d21385b68909f,,,,,,,,,,,1076.1494,1077.1475,,,1077.6471,1077.8964,,16,196,,,,,,,,,,,,,,,,bars/031.png,bars/mask006.png,,,,,,,,,,,,2,2,,,,,,,8,6,9,5,,,,,,,,,,,1077.1476,1077.6469,1077.8964,1079.997,space,2.0864,,1079.9971,76,19,1080.9971,1080.9974,1081.0187,,,,0,27,27,27,1,120,35,,,,,,,,
,,653a784a41876017f84c89df,65af552b0a3110be0ab78254,2024-01-23_07h58.22.681,bars,2023.2.3,Win32,59.52380952,657b66ea316d21385b68909f,,,,,,,,,,,1081.0192,1082.0175,,,1082.5186,1082.7681,,37,37,,,,,,,,,,,,,,,,bars/038.png,bars/mask009.png,,,,,,,,,,,,0,2,,,,,,,10,8,10,10,,,,,,,,,,,1082.0175,1082.5185,1082.7681,1098.2231,space,15.4382,,1098.2232,52,33,1099.2158,1099.2159,1099.2364,,,,0,28,28,28,1,165,70,,,,,,,,
,,653a784a41876017f84c89df,65af552b0a3110be0ab78254,2024-01-23_07h58.22.681,bars,2023.2.3,Win32,59.52380952,657b66ea316d21385b68909f,,,,,,,,,,,1099.2366,1100.2288,,,1100.7285,1100.9788,,39,39,,,,,,,,,,,,,,,,bars/036.png,bars/mask003.png,,,,,,,,,,,,2,2,,,,,,,8,6,10,6,,,,,,,,,,,1100.2288,1100.7285,1100.9788,1102.3645,space,1.3778,,1102.3646,74,19,1103.3615,1103.3616,1103.3818,,,,0,29,29,29,1,145,20,,,,,,,,
,,653a784a41876017f84c89df,65af552b0a3110be0ab78254,2024-01-23_07h58.22.681,bars,2023.2.3,Win32,59.52380952,657b66ea316d21385b68909f,,,,,,,,,,,1103.3823,1104.3783,,,1104.8781,1105.1263,,56,56,,,,,,,,,,,,,,,,bars/008.png,bars/mask001.png,,,,,,,,,,,,0,1,,,,,,,6,8,7,9,,,,,,,,,,,1104.3783,1104.8781,1105.1263,1111.8593,space,6.7232,,1111.8594,54,56,1112.8585,1112.8585,1112.8817,,,,0,30,30,30,1,110,0,,,,,,,,
,,653a784a41876017f84c89df,65af552b0a3110be0ab78254,2024-01-23_07h58.22.681,bars,2023.2.3,Win32,59.52380952,657b66ea316d21385b68909f,,,,,,,,,,,1112.882,1113.8774,,,1114.3765,1114.6269,,87,87,,,,,,,,,,,,,,,,bars/012.png,bars/mask001.png,,,,,,,,,,,,3,1,,,,,,,4,6,3,6,,,,,,,,,,,1113.8774,1114.3765,1114.627,1121.6334,space,6.9998,,1121.6335,3,72,1122.6259,1122.626,1122.646,,,,0,31,31,31,1,90,15,,,,,,,,
,,653a784a41876017f84c89df,65af552b0a3110be0ab78254,2024-01-23_07h58.22.681,bars,2023.2.3,Win32,59.52380952,657b66ea316d21385b68909f,,,,,,,,,,,1122.6464,1123.642,,,1124.1419,1124.3922,,114,114,,,,,,,,,,,,,,,,bars/043.png,bars/mask001.png,,,,,,,,,,,,1,2,,,,,,,6,4,5,3,,,,,,,,,,,1123.642,1124.1419,1124.3923,1126.2781,space,1.8787,,1126.2782,84,16,1127.2753,1127.2754,1127.2799,,,,0,32,32,32,1,30,130,,,,,,,,
,,653a784a41876017f84c89df,65af552b0a3110be0ab78254,2024-01-23_07h58.22.681,bars,2023.2.3,Win32,59.52380952,657b66ea316d21385b68909f,,,,,,,,,,,1127.2803,1128.2753,,,1128.7737,1129.025,,0,0,,,,,,,,,,,,,,,,bars/016.png,bars/mask003.png,,,,,,,,,,,,1,2,,,,,,,8,2,10,2,,,,,,,,,,,1128.2754,1128.7737,1129.025,1134.5889,space,5.553,,1134.5891,40,15,1135.5884,1135.5884,1135.604,,,,0,33,33,33,1,40,165,,,,,,,,
,,653a784a41876017f84c89df,65af552b0a3110be0ab78254,2024-01-23_07h58.22.681,bars,2023.2.3,Win32,59.52380952,657b66ea316d21385b68909f,,,,,,,,,,,1135.6048,1136.605,,,1137.1057,1137.3549,,139,139,,,,,,,,,,,,,,,,bars/004.png,bars/mask004.png,,,,,,,,,,,,0,2,,,,,,,6,0,6,0,,,,,,,,,,,1136.6051,1137.1056,1137.3549,1141.6386,space,4.2731,,1141.6386,66,14,1142.6391,1142.6392,1142.6595,,,,0,34,34,34,1,25,125,,,,,,,,
,,653a784a41876017f84c89df,65af552b0a3110be0ab78254,2024-01-23_07h58.22.681,bars,2023.2.3,Win32,59.52380952,657b66ea316d21385b68909f,,,,,,,,,,,1142.6598,1143.6562,,,1144.1548,1144.4063,,26,26,,,,,,,,,,,,,,,,bars/006.png,bars/mask000.png,,,,,,,,,,,,1,1,,,,,,,4,0,1,0,,,,,,,,,,,1143.6563,1144.1548,1144.4064,1154.4215,space,10.0034,,1154.4216,9,74,1155.422,1155.4221,1155.444,,,,0,35,35,35,1,35,100,,,,,,,,
,,653a784a41876017f84c89df,65af552b0a3110be0ab78254,2024-01-23_07h58.22.681,bars,2023.2.3,Win32,59.52380952,657b66ea316d21385b68909f,,,,,,,,,,,1155.4444,1156.4379,,,1156.9381,1157.1877,,136,-44,,,,,,,,,,,,,,,,bars/031.png,bars/mask001.png,,,,,,,,,,,,3,1,,,,,,,6,2,6,3,,,,,,,,,,,1156.438,1156.938,1157.1878,1170.5361,space,13.3338,,1170.5363,16,79,1171.5361,1171.5361,1171.5584,,,,0,36,36,36,1,120,35,,,,,,,,
,,653a784a41876017f84c89df,65af552b0a3110be0ab78254,2024-01-23_07h58.22.681,bars,2023.2.3,Win32,59.52380952,657b66ea316d21385b68909f,,,,,,,,,,,1171.5587,1172.5518,,,1173.0523,1173.3026,,63,63,,,,,,,,,,,,,,,,bars/045.png,bars/mask001.png,,,,,,,,,,,,0,1,,,,,,,4,0,5,1,,,,,,,,,,,1172.5518,1173.0523,1173.3028,1177.7518,space,4.4397,,1177.7518,37,53,1178.7516,1178.7516,1178.7707,,,,0,37,37,37,1,100,10,,,,,,,,
,,653a784a41876017f84c89df,65af552b0a3110be0ab78254,2024-01-23_07h58.22.681,bars,2023.2.3,Win32,59.52380952,657b66ea316d21385b68909f,,,,,,,,,,,1178.7709,1179.7664,,,1180.2675,1180.5177,,84,84,,,,,,,,,,,,,,,,bars/048.png,bars/mask001.png,,,,,,,,,,,,0,1,,,,,,,2,0,1,0,,,,,,,,,,,1179.7665,1180.2674,1180.5179,1185.2988,space,4.7689,,1185.2989,34,89,1186.2985,1186.2986,1186.3114,,,,0,38,38,38,1,50,175,,,,,,,,
,,653a784a41876017f84c89df,65af552b0a3110be0ab78254,2024-01-23_07h58.22.681,bars,2023.2.3,Win32,59.52380952,657b66ea316d21385b68909f,,,,,,,,,,,1186.312,1187.3004,,,1187.8005,1188.0502,,10,10,,,,,,,,,,,,,,,,bars/017.png,bars/mask004.png,,,,,,,,,,,,0,2,,,,,,,0,2,0,2,,,,,,,,,,,1187.3006,1187.8004,1188.0503,1192.5169,space,4.4518,,1192.517,45,35,1193.5168,1193.5169,1193.5391,,,,0,39,39,39,1,145,45,,,,,,,,
,,653a784a41876017f84c89df,65af552b0a3110be0ab78254,2024-01-23_07h58.22.681,bars,2023.2.3,Win32,59.52380952,657b66ea316d21385b68909f,,,,,,,,,,,1193.5394,1194.5329,,,1195.0319,1195.2828,,155,155,,,,,,,,,,,,,,,,bars/045.png,bars/mask002.png,,,,,,,,,,,,0,2,,,,,,,0,0,1,2,,,,,,,,,,,1194.533,1195.0318,1195.2828,1196.6654,space,1.3693,,1196.6657,55,35,1197.6664,1197.6665,1197.6859,,,,0,40,40,40,1,100,10,,,,,,,,
,,653a784a41876017f84c89df,65af552b0a3110be0ab78254,2024-01-23_07h58.22.681,bars,2023.2.3,Win32,59.52380952,657b66ea316d21385b68909f,,,,,,,,,,,1197.6868,1198.6826,,,1199.1805,1199.4319,,21,21,,,,,,,,,,,,,,,,bars/023.png,bars/mask009.png,,,,,,,,,,,,0,1,,,,,,,0,0,0,0,,,,,,,,,,,1198.6827,1199.1805,1199.432,1200.899,space,1.4522,,1200.8992,1,86,1201.8987,1201.8988,1201.9203,,,,0,41,41,41,1,20,115,,,,,,,,
,,653a784a41876017f84c89df,65af552b0a3110be0ab78254,2024-01-23_07h58.22.681,bars,2023.2.3,Win32,59.52380952,657b66ea316d21385b68909f,,,,,,,,,,,1201.9206,1202.9151,,,1203.4138,1203.6649,,106,106,,,,,,,,,,,,,,,,bars/014.png,bars/mask005.png,,,,,,,,,,,,0,1,,,,,,,2,0,1,1,,,,,,,,,,,1202.9151,1203.4137,1203.6649,1204.7807,space,1.1061,,1204.7808,26,74,1205.7815,1205.7815,1205.8003,,,,0,42,42,42,1,80,0,,,,,,,,
,,653a784a41876017f84c89df,65af552b0a3110be0ab78254,2024-01-23_07h58.22.681,bars,2023.2.3,Win32,59.52380952,657b66ea316d21385b68909f,,,,,,,,,,,1205.8007,1206.7977,,,1207.2967,1207.5482,,122,122,,,,,,,,,,,,,,,,bars/014.png,bars/mask003.png,,,,,,,,,,,,0,1,,,,,,,0,0,0,0,,,,,,,,,,,1206.7977,1207.2967,1207.5482,1209.3066,space,1.752,,1209.3067,42,58,1210.2959,1210.2959,1210.3157,,,,0,43,43,43,1,80,0,,,,,,,,
,,653a784a41876017f84c89df,65af552b0a3110be0ab78254,2024-01-23_07h58.22.681,bars,2023.2.3,Win32,59.52380952,657b66ea316d21385b68909f,,,,,,,,,,,1210.316,1211.3147,,,1211.8143,1212.0641,,141,141,,,,,,,,,,,,,,,,bars/023.png,bars/mask006.png,,,,,,,,,,,,0,2,,,,,,,2,0,2,1,,,,,,,,,,,1211.3149,1211.8143,1212.0642,1215.5123,space,3.4407,,1215.5123,59,26,1216.5134,1216.5135,1216.5351,,,,0,44,44,44,1,20,115,,,,,,,,
,,653a784a41876017f84c89df,65af552b0a3110be0ab78254,2024-01-23_07h58.22.681,bars,2023.2.3,Win32,59.52380952,657b66ea316d21385b68909f,,,,,,,,,,,1216.5354,1217.5297,,,1218.0285,1218.2807,,23,203,,,,,,,,,,,,,,,,bars/007.png,bars/mask008.png,,,,,,,,,,,,0,1,,,,,,,4,2,4,2,,,,,,,,,,,1217.5297,1218.0285,1218.2807,1219.915,space,1.6271,,1219.9151,28,32,1220.9129,1220.913,1220.9173,,,,0,45,45,45,1,175,55,,,,,,,,
,,653a784a41876017f84c89df,65af552b0a3110be0ab78254,2024-01-23_07h58.22.681,bars,2023.2.3,Win32,59.52380952,657b66ea316d21385b68909f,,,,,,,,,,,1220.9177,1221.9139,,,1222.4119,1222.6623,,179,-1,,,,,,,,,,,,,,,,bars/021.png,bars/mask002.png,,,,,,,,,,,,0,1,,,,,,,2,4,2,4,,,,,,,,,,,1221.9139,1222.4117,1222.6624,1223.911,space,1.2348,,1223.9113,24,71,1224.9119,1224.9121,1224.9136,,,,0,46,46,46,1,155,70,,,,,,,,
,,653a784a41876017f84c89df,65af552b0a3110be0ab78254,2024-01-23_07h58.22.681,bars,2023.2.3,Win32,59.52380952,657b66ea316d21385b68909f,,,,,,,,,,,1224.9143,1225.9102,,,1226.4101,1226.6613,,51,51,,,,,,,,,,,,,,,,bars/044.png,bars/mask008.png,,,,,,,,,,,,1,1,,,,,,,4,2,4,2,,,,,,,,,,,1225.9103,1226.41,1226.6614,1227.1204,space,0.4528,,1227.1205,24,76,1228.1119,1228.1119,1228.114,,,,0,47,47,47,1,75,155,,,,,,,,
,,653a784a41876017f84c89df,65af552b0a3110be0ab78254,2024-01-23_07h58.22.681,bars,2023.2.3,Win32,59.52380952,657b66ea316d21385b68909f,,,,,,,,,,,1228.1144,1229.1118,,,1229.611,1229.8623,,169,169,,,,,,,,,,,,,,,,bars/023.png,bars/mask008.png,,,,,,,,,,,,0,1,,,,,,,6,0,5,0,,,,,,,,,,,1229.1119,1229.611,1229.8623,1230.436,space,0.5673,,1230.4361,31,54,1231.428,1231.4282,1231.4299,,,,0,48,48,48,1,20,115,,,,,,,,
,,653a784a41876017f84c89df,65af552b0a3110be0ab78254,2024-01-23_07h58.22.681,bars,2023.2.3,Win32,59.52380952,657b66ea316d21385b68909f,,,,,,,,,,,1231.4306,1232.4279,,,1232.9282,1233.1782,,75,75,,,,,,,,,,,,,,,,bars/046.png,bars/mask007.png,,,,,,,,,,,,0,2,,,,,,,4,0,6,0,,,,,,,,,,,1232.428,1232.9281,1233.1782,1235.6105,space,2.4196,,1235.6106,80,10,1236.6106,1236.6107,1236.6328,,,,0,49,49,49,1,155,85,,,,,,,,
,,653a784a41876017f84c89df,65af552b0a3110be0ab78254,2024-01-23_07h58.22.681,bars,2023.2.3,Win32,59.52380952,657b66ea316d21385b68909f,,,,,,,,,,,,,,,,,,,,,,,,,,,,,,,,,,,,,,,,,,,,,,,,,,,,,,,,,,,,,,,,,,,,,,,,,,,,,,,,,,,,,,,,,,,,,1236.6332,1296.6366,0,1,1,2,1,sequence_tables/blk027.csv
,,653a784a41876017f84c89df,65af552b0a3110be0ab78254,2024-01-23_07h58.22.681,bars,2023.2.3,Win32,59.52380952,657b66ea316d21385b68909f,,,,,,,,,,,1387.6056,1388.5894,,,1389.0896,1389.3394,,25,25,,,,,,,,,,,,,,,,bars/013.png,bars/mask001.png,,,,,,,,,,,,0,2,,,,,,,10,2,10,0,,,,,,1296.6566,1387.5782,space,90.9139,,1388.5895,1389.0895,1389.3395,1390.2473,space,0.9003,,1390.2474,50,15,1391.2392,1391.2392,1391.2409,,,,0,0,0,0,1,75,10,,,,,,,,
,,653a784a41876017f84c89df,65af552b0a3110be0ab78254,2024-01-23_07h58.22.681,bars,2023.2.3,Win32,59.52380952,657b66ea316d21385b68909f,,,,,,,,,,,1391.2417,1392.2391,,,1392.7394,1392.9893,,120,120,,,,,,,,,,,,,,,,bars/028.png,bars/mask002.png,,,,,,,,,,,,1,2,,,,,,,10,0,10,1,,,,,,,,,,,1392.2392,1392.7393,1392.9893,1394.0431,space,1.0455,,1394.0432,75,0,1395.039,1395.039,1395.0411,,,,0,1,1,1,1,45,120,,,,,,,,
,,653a784a41876017f84c89df,65af552b0a3110be0ab78254,2024-01-23_07h58.22.681,bars,2023.2.3,Win32,59.52380952,657b66ea316d21385b68909f,,,,,,,,,,,1395.0415,1396.039,,,1396.5386,1396.7884,,12,192,,,,,,,,,,,,,,,,bars/010.png,bars/mask006.png,,,,,,,,,,,,1,1,,,,,,,8,2,8,0,,,,,,,,,,,1396.0391,1396.5385,1396.7884,1398.721,space,1.918,,1398.7211,27,43,1399.7213,1399.7213,1399.7418,,,,0,2,2,2,1,165,55,,,,,,,,
,,653a784a41876017f84c89df,65af552b0a3110be0ab78254,2024-01-23_07h58.22.681,bars,2023.2.3,Win32,59.52380952,657b66ea316d21385b68909f,,,,,,,,,,,1399.7422,1400.7376,,,1401.2378,1401.4882,,121,121,,,,,,,,,,,,,,,,bars/003.png,bars/mask003.png,,,,,,,,,,,,0,2,,,,,,,6,0,6,0,,,,,,,,,,,1400.7376,1401.2377,1401.4884,1425.4005,space,23.9032,,1425.4007,84,19,1426.4011,1426.4011,1426.4225,,,,0,3,3,3,1,25,140,,,,,,,,
,,653a784a41876017f84c89df,65af552b0a3110be0ab78254,2024-01-23_07h58.22.681,bars,2023.2.3,Win32,59.52380952,657b66ea316d21385b68909f,,,,,,,,,,,1426.4229,1427.4226,,,1427.9178,1428.1557,,138,138,,,,,,,,,,,,,,,,bars/040.png,bars/mask006.png,,,,,,,,,,,,7,1,,,,,,,8,0,8,0,,,,,,,,,,,1427.4227,1427.9178,1428.1558,1430.1133,space,1.9407,,1430.1135,2,47,1431.1062,1431.1064,1431.1274,,,,0,4,4,4,1,140,5,,,,,,,,
,,653a784a41876017f84c89df,65af552b0a3110be0ab78254,2024-01-23_07h58.22.681,bars,2023.2.3,Win32,59.52380952,657b66ea316d21385b68909f,,,,,,,,,,,1431.1279,1432.117,,,1432.6169,1432.8672,,27,27,,,,,,,,,,,,,,,,bars/049.png,bars/mask006.png,,,,,,,,,,,,0,1,,,,,,,6,2,7,3,,,,,,,,,,,1432.1171,1432.6168,1432.8672,1445.4157,space,12.5361,,1445.4157,47,88,1446.4149,1446.415,1446.435,,,,0,5,5,5,1,160,115,,,,,,,,
,,653a784a41876017f84c89df,65af552b0a3110be0ab78254,2024-01-23_07h58.22.681,bars,2023.2.3,Win32,59.52380952,657b66ea316d21385b68909f,,,,,,,,,,,1446.4354,1447.4316,,,1447.9314,1448.1807,,22,22,,,,,,,,,,,,,,,,bars/008.png,bars/mask002.png,,,,,,,,,,,,1,2,,,,,,,8,4,6,3,,,,,,,,,,,1447.4317,1447.9314,1448.1807,1476.4993,space,28.3115,,1476.4994,88,22,1477.4945,1477.4946,1477.5176,,,,0,6,6,6,1,110,0,,,,,,,,
,,653a784a41876017f84c89df,65af552b0a3110be0ab78254,2024-01-23_07h58.22.681,bars,2023.2.3,Win32,59.52380952,657b66ea316d21385b68909f,,,,,,,,,,,1477.518,1478.5159,,,1479.011,1479.266,,30,30,,,,,,,,,,,,,,,,bars/007.png,bars/mask008.png,,,,,,,,,,,,0,2,,,,,,,6,2,6,3,,,,,,,,,,,1478.5159,1479.011,1479.2661,1513.8567,space,34.57,,1513.8569,35,25,1514.8561,1514.8561,1514.8764,,,,0,7,7,7,1,175,55,,,,,,,,
,,653a784a41876017f84c89df,65af552b0a3110be0ab78254,2024-01-23_07h58.22.681,bars,2023.2.3,Win32,59.52380952,657b66ea316d21385b68909f,,,,,,,,,,,1514.8768,1515.8729,,,1516.3728,1516.6228,,46,46,,,,,,,,,,,,,,,,bars/023.png,bars/mask004.png,,,,,,,,,,,,1,1,,,,,,,8,0,8,0,,,,,,,,,,,1515.873,1516.3728,1516.6229,1527.5706,space,10.9361,,1527.5707,26,69,1528.5713,1528.5713,1528.5929,,,,0,8,8,8,1,20,115,,,,,,,,
,,653a784a41876017f84c89df,65af552b0a3110be0ab78254,2024-01-23_07h58.22.681,bars,2023.2.3,Win32,59.52380952,657b66ea316d21385b68909f,,,,,,,,,,,1528.5933,1529.5926,,,1530.0924,1530.3422,,12,12,,,,,,,,,,,,,,,,bars/022.png,bars/mask003.png,,,,,,,,,,,,0,2,,,,,,,6,0,7,0,,,,,,,,,,,1529.5926,1530.0924,1530.3423,1532.3129,space,1.9541,,1532.313,83,8,1533.3036,1533.3038,1533.3266,,,,0,9,9,9,1,95,20,,,,,,,,
,,653a784a41876017f84c89df,65af552b0a3110be0ab78254,2024-01-23_07h58.22.681,bars,2023.2.3,Win32,59.52380952,657b66ea316d21385b68909f,,,,,,,,,,,1533.327,1534.3254,,,1534.8208,1535.0754,,175,175,,,,,,,,,,,,,,,,bars/015.png,bars/mask004.png,,,,,,,,,,,,1,2,,,,,,,8,2,7,2,,,,,,,,,,,1534.3256,1534.8207,1535.0755,1535.5242,space,0.4326,,1535.5243,65,15,1536.5243,1536.5243,1536.5259,,,,0,10,10,10,1,110,160,,,,,,,,
,,653a784a41876017f84c89df,65af552b0a3110be0ab78254,2024-01-23_07h58.22.681,bars,2023.2.3,Win32,59.52380952,657b66ea316d21385b68909f,,,,,,,,,,,1536.5266,1537.5197,,,1538.0247,1538.2697,,110,110,,,,,,,,,,,,,,,,bars/036.png,bars/mask008.png,,,,,,,,,,,,0,1,,,,,,,6,4,6,3,,,,,,,,,,,1537.5198,1538.0245,1538.2698,1539.6362,space,1.3409,,1539.6363,35,90,1540.6244,1540.6246,1540.6286,,,,0,11,11,11,1,145,20,,,,,,,,
,,653a784a41876017f84c89df,65af552b0a3110be0ab78254,2024-01-23_07h58.22.681,bars,2023.2.3,Win32,59.52380952,657b66ea316d21385b68909f,,,,,,,,,,,1540.6291,1541.6247,,,1542.1249,1542.3692,,150,150,,,,,,,,,,,,,,,,bars/021.png,bars/mask000.png,,,,,,,,,,,,3,1,,,,,,,4,2,4,0,,,,,,,,,,,1541.6247,1542.1248,1542.3693,1544.9422,space,2.5509,,1544.9425,5,80,1545.9355,1545.9356,1545.9559,,,,0,12,12,12,1,155,70,,,,,,,,
,,653a784a41876017f84c89df,65af552b0a3110be0ab78254,2024-01-23_07h58.22.681,bars,2023.2.3,Win32,59.52380952,657b66ea316d21385b68909f,,,,,,,,,,,1545.9563,1546.9574,,,1547.4513,1547.7069,,163,163,,,,,,,,,,,,,,,,bars/012.png,bars/mask000.png,,,,,,,,,,,,0,2,,,,,,,2,4,2,4,,,,,,,,,,,1546.9574,1547.4512,1547.707,1550.6183,space,2.8901,,1550.6187,73,32,1551.6182,1551.6182,1551.6422,,,,0,13,13,13,1,90,15,,,,,,,,
,,653a784a41876017f84c89df,65af552b0a3110be0ab78254,2024-01-23_07h58.22.681,bars,2023.2.3,Win32,59.52380952,657b66ea316d21385b68909f,,,,,,,,,,,1551.6428,1552.6391,,,1553.14,1553.3894,,161,161,,,,,,,,,,,,,,,,bars/049.png,bars/mask004.png,,,,,,,,,,,,0,1,,,,,,,0,2,0,0,,,,,,,,,,,1552.6391,1553.1398,1553.3894,1554.5911,space,1.1849,,1554.5911,1,46,1555.5891,1555.5892,1555.5935,,,,0,14,14,14,1,160,115,,,,,,,,
,,653a784a41876017f84c89df,65af552b0a3110be0ab78254,2024-01-23_07h58.22.681,bars,2023.2.3,Win32,59.52380952,657b66ea316d21385b68909f,,,,,,,,,,,1555.594,1556.589,,,1557.0897,1557.339,,20,20,,,,,,,,,,,,,,,,bars/031.png,bars/mask004.png,,,,,,,,,,,,2,2,,,,,,,0,4,0,3,,,,,,,,,,,1556.5891,1557.0895,1557.3391,1557.3614,space,0.0061,,1557.3614,80,15,1558.3551,1558.3551,1558.3584,,,,0,15,15,15,1,120,35,,,,,,,,
,,653a784a41876017f84c89df,65af552b0a3110be0ab78254,2024-01-23_07h58.22.681,bars,2023.2.3,Win32,59.52380952,657b66ea316d21385b68909f,,,,,,,,,,,1558.3589,1559.3502,,,1559.8503,1560.0884,,101,101,,,,,,,,,,,,,,,,bars/005.png,bars/mask002.png,,,,,,,,,,,,0,2,,,,,,,2,2,3,3,,,,,,,,,,,1559.3503,1559.8503,1560.0884,1560.1682,space,0.0533,,1560.1683,89,39,1561.1715,1561.1715,1561.1734,,,,0,16,16,16,1,10,140,,,,,,,,
,,653a784a41876017f84c89df,65af552b0a3110be0ab78254,2024-01-23_07h58.22.681,bars,2023.2.3,Win32,59.52380952,657b66ea316d21385b68909f,,,,,,,,,,,1561.1739,1562.1718,,,1562.671,1562.9166,,3,183,,,,,,,,,,,,,,,,bars/049.png,bars/mask006.png,,,,,,,,,,,,0,1,,,,,,,4,4,2,4,,,,,,,,,,,1562.1718,1562.671,1562.9166,1564.4421,space,1.5032,,1564.4422,23,68,1565.4366,1565.4366,1565.4575,,,,0,17,17,17,1,160,115,,,,,,,,
,,653a784a41876017f84c89df,65af552b0a3110be0ab78254,2024-01-23_07h58.22.681,bars,2023.2.3,Win32,59.52380952,657b66ea316d21385b68909f,,,,,,,,,,,1565.4579,1566.4546,,,1566.955,1567.2042,,57,57,,,,,,,,,,,,,,,,bars/038.png,bars/mask000.png,,,,,,,,,,,,2,2,,,,,,,6,2,7,3,,,,,,,,,,,1566.4546,1566.9549,1567.2042,1567.2777,space,0.0569,,1567.2777,72,13,1568.271,1568.2711,1568.2747,,,,0,18,18,18,1,165,70,,,,,,,,
,,653a784a41876017f84c89df,65af552b0a3110be0ab78254,2024-01-23_07h58.22.681,bars,2023.2.3,Win32,59.52380952,657b66ea316d21385b68909f,,,,,,,,,,,1568.2752,1569.2689,,,1569.7707,1570.0157,,11,11,,,,,,,,,,,,,,,,bars/020.png,bars/mask002.png,,,,,,,,,,,,2,2,,,,,,,4,4,3,6,,,,,,,,,,,1569.269,1569.7705,1570.0158,1570.0995,space,0.0564,,1570.1002,76,21,1571.098,1571.098,1571.1004,,,,0,19,19,19,1,115,170,,,,,,,,
,,653a784a41876017f84c89df,65af552b0a3110be0ab78254,2024-01-23_07h58.22.681,bars,2023.2.3,Win32,59.52380952,657b66ea316d21385b68909f,,,,,,,,,,,1571.101,1572.1035,,,1572.6081,1572.854,,47,47,,,,,,,,,,,,,,,,bars/025.png,bars/mask004.png,,,,,,,,,,,,2,2,,,,,,,6,2,6,2,,,,,,,,,,,1572.1036,1572.608,1572.8541,1577.7427,space,4.8724,,1577.7428,58,7,1578.731,1578.7311,1578.7501,,,,0,20,20,20,1,105,40,,,,,,,,
,,653a784a41876017f84c89df,65af552b0a3110be0ab78254,2024-01-23_07h58.22.681,bars,2023.2.3,Win32,59.52380952,657b66ea316d21385b68909f,,,,,,,,,,,1578.7505,1579.7524,,,1580.2515,1580.4974,,77,77,,,,,,,,,,,,,,,,bars/019.png,bars/mask009.png,,,,,,,,,,,,0,2,,,,,,,8,4,10,7,,,,,,,,,,,1579.7524,1580.2514,1580.4974,1581.5468,space,1.0256,,1581.5468,32,28,1582.5463,1582.5464,1582.5484,,,,0,21,21,21,1,45,105,,,,,,,,
,,653a784a41876017f84c89df,65af552b0a3110be0ab78254,2024-01-23_07h58.22.681,bars,2023.2.3,Win32,59.52380952,657b66ea316d21385b68909f,,,,,,,,,,,1582.549,1583.5466,,,1584.0352,1584.2799,,142,142,,,,,,,,,,,,,,,,bars/040.png,bars/mask007.png,,,,,,,,,,,,9,1,,,,,,,10,6,10,6,,,,,,,,,,,1583.5466,1584.0352,1584.2799,1585.0365,space,0.7339,,1585.0366,2,43,1586.0295,1586.0297,1586.0335,,,,0,22,22,22,1,140,5,,,,,,,,
,,653a784a41876017f84c89df,65af552b0a3110be0ab78254,2024-01-23_07h58.22.681,bars,2023.2.3,Win32,59.52380952,657b66ea316d21385b68909f,,,,,,,,,,,1586.0339,1587.0292,,,1587.5362,1587.7793,,72,72,,,,,,,,,,,,,,,,bars/000.png,bars/mask009.png,,,,,,,,,,,,0,1,,,,,,,8,4,8,3,,,,,,,,,,,1587.0293,1587.5362,1587.7793,1588.6963,space,0.8892,,1588.6964,32,73,1589.6841,1589.6842,1589.6853,,,,0,23,23,23,1,40,145,,,,,,,,
,,653a784a41876017f84c89df,65af552b0a3110be0ab78254,2024-01-23_07h58.22.681,bars,2023.2.3,Win32,59.52380952,657b66ea316d21385b68909f,,,,,,,,,,,1589.6857,1590.6787,,,1591.1846,1591.4291,,118,118,,,,,,,,,,,,,,,,bars/043.png,bars/mask001.png,,,,,,,,,,,,5,2,,,,,,,6,6,6,8,,,,,,,,,,,1590.6787,1591.1846,1591.4292,1591.8955,space,0.4366,,1591.8955,88,12,1592.901,1592.901,1592.9046,,,,0,24,24,24,1,30,130,,,,,,,,
,,653a784a41876017f84c89df,65af552b0a3110be0ab78254,2024-01-23_07h58.22.681,bars,2023.2.3,Win32,59.52380952,657b66ea316d21385b68909f,,,,,,,,,,,1592.905,1593.9,,,1594.3961,1594.6448,,63,63,,,,,,,,,,,,,,,,bars/011.png,bars/mask005.png,,,,,,,,,,,,2,2,,,,,,,4,8,5,8,,,,,,,,,,,1593.9001,1594.3959,1594.6449,1595.3056,space,0.6406,,1595.3056,83,22,1596.3001,1596.3002,1596.3023,,,,0,25,25,25,1,160,85,,,,,,,,
,,653a784a41876017f84c89df,65af552b0a3110be0ab78254,2024-01-23_07h58.22.681,bars,2023.2.3,Win32,59.52380952,657b66ea316d21385b68909f,,,,,,,,,,,1596.3028,1597.2984,,,1597.8009,1598.0507,,61,61,,,,,,,,,,,,,,,,bars/048.png,bars/mask004.png,,,,,,,,,,,,4,1,,,,,,,6,10,6,10,,,,,,,,,,,1597.2985,1597.8008,1598.0507,1598.2028,space,0.1352,,1598.2029,11,66,1599.1951,1599.1952,1599.2004,,,,0,26,26,26,1,50,175,,,,,,,,
,,653a784a41876017f84c89df,65af552b0a3110be0ab78254,2024-01-23_07h58.22.681,bars,2023.2.3,Win32,59.52380952,657b66ea316d21385b68909f,,,,,,,,,,,1599.2008,1600.1999,,,1600.6949,1600.9505,,174,174,,,,,,,,,,,,,,,,bars/043.png,bars/mask002.png,,,,,,,,,,,,0,1,,,,,,,4,8,2,7,,,,,,,,,,,1600.2,1600.6949,1600.9506,1601.7036,space,0.7367,,1601.7037,36,44,1602.6991,1602.6991,1602.7003,,,,0,27,27,27,1,30,130,,,,,,,,
,,653a784a41876017f84c89df,65af552b0a3110be0ab78254,2024-01-23_07h58.22.681,bars,2023.2.3,Win32,59.52380952,657b66ea316d21385b68909f,,,,,,,,,,,1602.7006,1603.6938,,,1604.1829,1604.4333,,101,101,,,,,,,,,,,,,,,,bars/008.png,bars/mask008.png,,,,,,,,,,,,6,1,,,,,,,6,10,8,10,,,,,,,,,,,1603.6939,1604.1828,1604.4334,1605.9357,space,1.4864,,1605.9358,9,79,1606.9306,1606.9306,1606.9315,,,,0,28,28,28,1,110,0,,,,,,,,
,,653a784a41876017f84c89df,65af552b0a3110be0ab78254,2024-01-23_07h58.22.681,bars,2023.2.3,Win32,59.52380952,657b66ea316d21385b68909f,,,,,,,,,,,1606.9318,1607.9266,,,1608.4331,1608.6765,,74,74,,,,,,,,,,,,,,,,bars/014.png,bars/mask002.png,,,,,,,,,,,,6,1,,,,,,,8,10,7,10,,,,,,,,,,,1607.9266,1608.4329,1608.6766,1609.0931,space,0.3902,,1609.0933,6,74,1610.0828,1610.0829,1610.0836,,,,0,29,29,29,1,80,0,,,,,,,,
,,653a784a41876017f84c89df,65af552b0a3110be0ab78254,2024-01-23_07h58.22.681,bars,2023.2.3,Win32,59.52380952,657b66ea316d21385b68909f,,,,,,,,,,,1610.0841,1611.0811,,,1611.5793,1611.8314,,136,136,,,,,,,,,,,,,,,,bars/049.png,bars/mask007.png,,,,,,,,,,,,3,2,,,,,,,6,10,6,10,,,,,,,,,,,1611.0812,1611.5792,1611.8314,1611.9015,space,0.0538,,1611.9015,24,21,1612.8927,1612.8927,1612.8964,,,,0,30,30,30,1,160,115,,,,,,,,
,,653a784a41876017f84c89df,65af552b0a3110be0ab78254,2024-01-23_07h58.22.681,bars,2023.2.3,Win32,59.52380952,657b66ea316d21385b68909f,,,,,,,,,,,1612.8966,1613.8978,,,1614.3957,1614.6476,,98,98,,,,,,,,,,,,,,,,bars/033.png,bars/mask009.png,,,,,,,,,,,,0,2,,,,,,,8,8,10,9,,,,,,,,,,,1613.8979,1614.3957,1614.6477,1615.2777,space,0.6131,,1615.2779,73,57,1616.2801,1616.2802,1616.2817,,,,0,31,31,31,1,25,155,,,,,,,,
,,653a784a41876017f84c89df,65af552b0a3110be0ab78254,2024-01-23_07h58.22.681,bars,2023.2.3,Win32,59.52380952,657b66ea316d21385b68909f,,,,,,,,,,,1616.282,1617.2812,,,1617.7812,1618.0261,,125,125,,,,,,,,,,,,,,,,bars/048.png,bars/mask000.png,,,,,,,,,,,,0,2,,,,,,,10,6,10,6,,,,,,,,,,,1617.2812,1617.7811,1618.0263,1618.4808,space,0.433,,1618.4813,75,50,1619.4756,1619.4757,1619.4788,,,,0,32,32,32,1,50,175,,,,,,,,
,,653a784a41876017f84c89df,65af552b0a3110be0ab78254,2024-01-23_07h58.22.681,bars,2023.2.3,Win32,59.52380952,657b66ea316d21385b68909f,,,,,,,,,,,1619.4793,1620.4749,,,1620.9635,1621.209,,50,50,,,,,,,,,,,,,,,,bars/009.png,bars/mask000.png,,,,,,,,,,,,0,1,,,,,,,10,8,10,7,,,,,,,,,,,1620.475,1620.9634,1621.2091,1621.6327,space,0.4015,,1621.6328,35,55,1622.6253,1622.6253,1622.6309,,,,0,33,33,33,1,15,105,,,,,,,,
,,653a784a41876017f84c89df,65af552b0a3110be0ab78254,2024-01-23_07h58.22.681,bars,2023.2.3,Win32,59.52380952,657b66ea316d21385b68909f,,,,,,,,,,,1622.6316,1623.6249,,,1624.1327,1624.3759,,142,142,,,,,,,,,,,,,,,,bars/007.png,bars/mask001.png,,,,,,,,,,,,0,1,,,,,,,8,6,7,6,,,,,,,,,,,1623.625,1624.1326,1624.376,1624.7829,space,0.3857,,1624.783,33,87,1625.775,1625.7751,1625.7772,,,,0,34,34,34,1,175,55,,,,,,,,
,,653a784a41876017f84c89df,65af552b0a3110be0ab78254,2024-01-23_07h58.22.681,bars,2023.2.3,Win32,59.52380952,657b66ea316d21385b68909f,,,,,,,,,,,1625.7779,1626.779,,,1627.2742,1627.524,,16,16,,,,,,,,,,,,,,,,bars/017.png,bars/mask004.png,,,,,,,,,,,,0,2,,,,,,,10,4,10,5,,,,,,,,,,,1626.779,1627.2741,1627.524,1628.0089,space,0.4623,,1628.0089,51,29,1629.0072,1629.0072,1629.0111,,,,0,35,35,35,1,145,45,,,,,,,,
,,653a784a41876017f84c89df,65af552b0a3110be0ab78254,2024-01-23_07h58.22.681,bars,2023.2.3,Win32,59.52380952,657b66ea316d21385b68909f,,,,,,,,,,,1629.0115,1630.0068,,,1630.4962,1630.7402,,123,123,,,,,,,,,,,,,,,,bars/001.png,bars/mask004.png,,,,,,,,,,,,8,1,,,,,,,10,6,10,8,,,,,,,,,,,1630.0068,1630.4962,1630.7403,1631.1664,space,0.4033,,1631.1664,7,38,1632.1566,1632.1566,1632.1602,,,,0,36,36,36,1,130,85,,,,,,,,
,,653a784a41876017f84c89df,65af552b0a3110be0ab78254,2024-01-23_07h58.22.681,bars,2023.2.3,Win32,59.52380952,657b66ea316d21385b68909f,,,,,,,,,,,1632.1606,1633.1565,,,1633.6615,1633.9064,,89,89,,,,,,,,,,,,,,,,bars/002.png,bars/mask002.png,,,,,,,,,,,,3,2,,,,,,,10,4,10,3,,,,,,,,,,,1633.1566,1633.6615,1633.9065,1634.0065,space,0.077,,1634.0066,41,4,1635.0112,1635.0112,1635.0138,,,,0,37,37,37,1,130,85,,,,,,,,
,,653a784a41876017f84c89df,65af552b0a3110be0ab78254,2024-01-23_07h58.22.681,bars,2023.2.3,Win32,59.52380952,657b66ea316d21385b68909f,,,,,,,,,,,1635.0141,1636.006,,,1636.4947,1636.7403,,175,175,,,,,,,,,,,,,,,,bars/038.png,bars/mask005.png,,,,,,,,,,,,5,1,,,,,,,8,2,7,3,,,,,,,,,,,1636.0061,1636.4946,1636.7404,1637.8954,space,1.1343,,1637.8955,10,75,1638.8891,1638.8891,1638.8929,,,,0,38,38,38,1,165,70,,,,,,,,
,,653a784a41876017f84c89df,65af552b0a3110be0ab78254,2024-01-23_07h58.22.681,bars,2023.2.3,Win32,59.52380952,657b66ea316d21385b68909f,,,,,,,,,,,1638.8933,1639.8937,,,1640.394,1640.6405,,38,38,,,,,,,,,,,,,,,,bars/019.png,bars/mask006.png,,,,,,,,,,,,6,1,,,,,,,10,4,8,4,,,,,,,,,,,1639.8938,1640.3939,1640.6406,1641.2463,space,0.5859,,1641.2469,7,67,1642.2438,1642.2438,1642.2449,,,,0,39,39,39,1,45,105,,,,,,,,
,,653a784a41876017f84c89df,65af552b0a3110be0ab78254,2024-01-23_07h58.22.681,bars,2023.2.3,Win32,59.52380952,657b66ea316d21385b68909f,,,,,,,,,,,1642.2458,1643.2417,,,1643.7396,1643.977,,9,9,,,,,,,,,,,,,,,,bars/014.png,bars/mask007.png,,,,,,,,,,,,2,2,,,,,,,8,2,7,3,,,,,,,,,,,1643.2417,1643.7395,1643.977,1644.4719,space,0.4756,,1644.472,71,9,1645.4715,1645.4717,1645.4753,,,,0,40,40,40,1,80,0,,,,,,,,
,,653a784a41876017f84c89df,65af552b0a3110be0ab78254,2024-01-23_07h58.22.681,bars,2023.2.3,Win32,59.52380952,657b66ea316d21385b68909f,,,,,,,,,,,1645.4757,1646.4773,,,1646.9716,1647.2101,,163,163,,,,,,,,,,,,,,,,bars/029.png,bars/mask009.png,,,,,,,,,,,,0,2,,,,,,,6,4,6,4,,,,,,,,,,,1646.4774,1646.9714,1647.2101,1677.7347,space,30.5041,,1677.7347,73,62,1678.7225,1678.7226,1678.7321,,,,0,41,41,41,1,90,45,,,,,,,,
,,653a784a41876017f84c89df,65af552b0a3110be0ab78254,2024-01-23_07h58.22.681,bars,2023.2.3,Win32,59.52380952,657b66ea316d21385b68909f,,,,,,,,,,,1678.7324,1679.7219,,,1680.2218,1680.467,,35,35,,,,,,,,,,,,,,,,bars/045.png,bars/mask007.png,,,,,,,,,,,,1,2,,,,,,,4,6,5,5,,,,,,,,,,,1679.7221,1680.2217,1680.467,1709.7128,space,29.222,,1709.7129,65,25,1710.7128,1710.7128,1710.7226,,,,0,42,42,42,1,100,10,,,,,,,,
,,653a784a41876017f84c89df,65af552b0a3110be0ab78254,2024-01-23_07h58.22.681,bars,2023.2.3,Win32,59.52380952,657b66ea316d21385b68909f,,,,,,,,,,,1710.7229,1711.7129,,,1712.2127,1712.4627,,145,145,,,,,,,,,,,,,,,,bars/007.png,bars/mask004.png,,,,,,,,,,,,0,1,,,,,,,2,4,1,3,,,,,,,,,,,1711.713,1712.2127,1712.4627,1713.9628,space,1.4881,,1713.9628,30,90,1714.9621,1714.9621,1714.979,,,,0,43,43,43,1,175,55,,,,,,,,
,,653a784a41876017f84c89df,65af552b0a3110be0ab78254,2024-01-23_07h58.22.681,bars,2023.2.3,Win32,59.52380952,657b66ea316d21385b68909f,,,,,,,,,,,1714.9797,1715.9788,,,1716.4788,1716.7286,,173,173,,,,,,,,,,,,,,,,bars/048.png,bars/mask005.png,,,,,,,,,,,,7,2,,,,,,,0,6,0,7,,,,,,,,,,,1715.9788,1716.4787,1716.7286,1723.1016,space,6.3648,,1723.1017,57,2,1724.0956,1724.0957,1724.1153,,,,0,44,44,44,1,50,175,,,,,,,,
,,653a784a41876017f84c89df,65af552b0a3110be0ab78254,2024-01-23_07h58.22.681,bars,2023.2.3,Win32,59.52380952,657b66ea316d21385b68909f,,,,,,,,,,,1724.1157,1725.1114,,,1725.612,1725.8618,,70,70,,,,,,,,,,,,,,,,bars/032.png,bars/mask000.png,,,,,,,,,,,,0,2,,,,,,,0,8,0,9,,,,,,,,,,,1725.1114,1725.612,1725.8618,1726.784,space,0.9164,,1726.7842,55,50,1727.7779,1727.7779,1727.7794,,,,0,45,45,45,1,125,20,,,,,,,,
,,653a784a41876017f84c89df,65af552b0a3110be0ab78254,2024-01-23_07h58.22.681,bars,2023.2.3,Win32,59.52380952,657b66ea316d21385b68909f,,,,,,,,,,,1727.78,1728.7779,,,1729.2773,1729.528,,104,104,,,,,,,,,,,,,,,,bars/038.png,bars/mask001.png,,,,,,,,,,,,0,2,,,,,,,0,6,0,7,,,,,,,,,,,1728.7779,1729.2773,1729.5281,1730.178,space,0.6337,,1730.178,61,34,1731.1779,1731.178,1731.1795,,,,0,46,46,46,1,165,70,,,,,,,,
,,653a784a41876017f84c89df,65af552b0a3110be0ab78254,2024-01-23_07h58.22.681,bars,2023.2.3,Win32,59.52380952,657b66ea316d21385b68909f,,,,,,,,,,,1731.1802,1732.1776,,,1732.6773,1732.9274,,100,100,,,,,,,,,,,,,,,,bars/035.png,bars/mask008.png,,,,,,,,,,,,0,2,,,,,,,2,8,3,7,,,,,,,,,,,1732.1778,1732.6773,1732.9274,1733.6028,space,0.6692,,1733.6029,75,40,1734.5932,1734.5933,1734.5947,,,,0,47,47,47,1,175,60,,,,,,,,
,,653a784a41876017f84c89df,65af552b0a3110be0ab78254,2024-01-23_07h58.22.681,bars,2023.2.3,Win32,59.52380952,657b66ea316d21385b68909f,,,,,,,,,,,1734.5954,1735.5937,,,1736.0927,1736.343,,5,5,,,,,,,,,,,,,,,,bars/024.png,bars/mask003.png,,,,,,,,,,,,3,2,,,,,,,0,6,0,5,,,,,,,,,,,1735.5939,1736.0927,1736.3431,1737.6261,space,1.2713,,1737.6261,65,15,1738.6256,1738.6256,1738.6264,,,,0,48,48,48,1,120,170,,,,,,,,
,,653a784a41876017f84c89df,65af552b0a3110be0ab78254,2024-01-23_07h58.22.681,bars,2023.2.3,Win32,59.52380952,657b66ea316d21385b68909f,,,,,,,,,,,1738.6271,1739.6257,,,1740.1256,1740.3755,,124,124,,,,,,,,,,,,,,,,bars/023.png,bars/mask006.png,,,,,,,,,,,,5,2,,,,,,,0,8,1,7,,,,,,,,,,,1739.6257,1740.1255,1740.3755,1740.7589,space,0.37,,1740.759,76,9,1741.7586,1741.7586,1741.7604,,,,0,49,49,49,1,20,115,,,,,,,,
,,653a784a41876017f84c89df,65af552b0a3110be0ab78254,2024-01-23_07h58.22.681,bars,2023.2.3,Win32,59.52380952,657b66ea316d21385b68909f,,,,,,,,,,,,,,,,,,,,,,,,,,,,,,,,,,,,,,,,,,,,,,,,,,,,,,,,,,,,,,,,,,,,,,,,,,,,,,,,,,,,,,,,,,,,,1741.7607,1801.751,0,2,2,3,1,sequence_tables/blk013.csv
,,653a784a41876017f84c89df,65af552b0a3110be0ab78254,2024-01-23_07h58.22.681,bars,2023.2.3,Win32,59.52380952,657b66ea316d21385b68909f,,,,,,,,,,,1958.1601,1959.1356,,,1959.6311,1959.8813,,84,84,,,,,,,,,,,,,,,,bars/007.png,bars/mask002.png,,,,,,,,,,,,0,2,,,,,,,2,9,1,9,,,,,,1801.7621,1958.131,space,156.3552,,1959.1356,1959.631,1959.8813,1960.4311,space,0.5381,,1960.4311,89,29,1961.4309,1961.4309,1961.4326,,,,0,0,0,0,1,175,55,,,,,,,,
,,653a784a41876017f84c89df,65af552b0a3110be0ab78254,2024-01-23_07h58.22.681,bars,2023.2.3,Win32,59.52380952,657b66ea316d21385b68909f,,,,,,,,,,,1961.4332,1962.4309,,,1962.9302,1963.1803,,78,78,,,,,,,,,,,,,,,,bars/043.png,bars/mask004.png,,,,,,,,,,,,0,1,,,,,,,4,7,7,6,,,,,,,,,,,1962.4309,1962.9302,1963.1803,1963.6974,space,0.5017,,1963.6976,48,52,1964.6972,1964.6974,1964.7022,,,,0,1,1,1,1,30,130,,,,,,,,
,,653a784a41876017f84c89df,65af552b0a3110be0ab78254,2024-01-23_07h58.22.681,bars,2023.2.3,Win32,59.52380952,657b66ea316d21385b68909f,,,,,,,,,,,1964.7029,1965.697,,,1966.1971,1966.4471,,4,4,,,,,,,,,,,,,,,,bars/032.png,bars/mask002.png,,,,,,,,,,,,4,2,,,,,,,6,9,6,8,,,,,,,,,,,1965.6971,1966.1971,1966.4472,1968.6463,space,2.1844,,1968.6463,59,16,1969.6465,1969.6465,1969.6516,,,,0,2,2,2,1,125,20,,,,,,,,
,,653a784a41876017f84c89df,65af552b0a3110be0ab78254,2024-01-23_07h58.22.681,bars,2023.2.3,Win32,59.52380952,657b66ea316d21385b68909f,,,,,,,,,,,1969.652,1970.6466,,,1971.1464,1971.3963,,158,158,,,,,,,,,,,,,,,,bars/039.png,bars/mask004.png,,,,,,,,,,,,3,1,,,,,,,8,7,6,8,,,,,,,,,,,1970.6466,1971.1463,1971.3963,1983.0449,space,11.6359,,1983.0451,17,53,1984.0449,1984.0449,1984.0663,,,,0,3,3,3,1,175,105,,,,,,,,
,,653a784a41876017f84c89df,65af552b0a3110be0ab78254,2024-01-23_07h58.22.681,bars,2023.2.3,Win32,59.52380952,657b66ea316d21385b68909f,,,,,,,,,,,1984.0666,1985.0663,,,1985.5665,1985.8142,,32,32,,,,,,,,,,,,,,,,bars/004.png,bars/mask000.png,,,,,,,,,,,,4,1,,,,,,,6,9,5,9,,,,,,,,,,,1985.0664,1985.5665,1985.8144,1986.656,space,0.8235,,1986.6561,7,87,1987.6492,1987.6493,1987.6515,,,,0,4,4,4,1,25,125,,,,,,,,
,,653a784a41876017f84c89df,65af552b0a3110be0ab78254,2024-01-23_07h58.22.681,bars,2023.2.3,Win32,59.52380952,657b66ea316d21385b68909f,,,,,,,,,,,1987.6519,1988.6429,,,1989.144,1989.394,,15,15,,,,,,,,,,,,,,,,bars/025.png,bars/mask004.png,,,,,,,,,,,,1,2,,,,,,,8,7,8,8,,,,,,,,,,,1988.643,1989.1439,1989.3941,1990.0267,space,0.6232,,1990.0267,90,25,1991.0271,1991.0271,1991.0322,,,,0,5,5,5,1,105,40,,,,,,,,
,,653a784a41876017f84c89df,65af552b0a3110be0ab78254,2024-01-23_07h58.22.681,bars,2023.2.3,Win32,59.52380952,657b66ea316d21385b68909f,,,,,,,,,,,1991.0331,1992.0269,,,1992.527,1992.7771,,58,58,,,,,,,,,,,,,,,,bars/019.png,bars/mask000.png,,,,,,,,,,,,3,1,,,,,,,6,5,6,7,,,,,,,,,,,1992.0269,1992.5269,1992.7771,1993.4101,space,0.6245,,1993.4101,13,47,1994.41,1994.4101,1994.4144,,,,0,6,6,6,1,45,105,,,,,,,,
,,653a784a41876017f84c89df,65af552b0a3110be0ab78254,2024-01-23_07h58.22.681,bars,2023.2.3,Win32,59.52380952,657b66ea316d21385b68909f,,,,,,,,,,,1994.4148,1995.4098,,,1995.9098,1996.1597,,100,100,,,,,,,,,,,,,,,,bars/043.png,bars/mask007.png,,,,,,,,,,,,0,2,,,,,,,4,7,2,6,,,,,,,,,,,1995.4098,1995.9098,1996.1598,1996.6822,space,0.5148,,1996.6822,70,30,1997.6761,1997.6762,1997.6807,,,,0,7,7,7,1,30,130,,,,,,,,
,,653a784a41876017f84c89df,65af552b0a3110be0ab78254,2024-01-23_07h58.22.681,bars,2023.2.3,Win32,59.52380952,657b66ea316d21385b68909f,,,,,,,,,,,1997.6813,1998.676,,,1999.1761,1999.426,,151,151,,,,,,,,,,,,,,,,bars/038.png,bars/mask008.png,,,,,,,,,,,,1,1,,,,,,,2,9,2,8,,,,,,,,,,,1998.676,1999.176,1999.426,2000.8588,space,1.4245,,2000.8589,14,81,2001.8583,2001.8583,2001.8628,,,,0,8,8,8,1,165,70,,,,,,,,
,,653a784a41876017f84c89df,65af552b0a3110be0ab78254,2024-01-23_07h58.22.681,bars,2023.2.3,Win32,59.52380952,657b66ea316d21385b68909f,,,,,,,,,,,2001.8631,2002.8588,,,2003.3585,2003.608,,28,28,,,,,,,,,,,,,,,,bars/028.png,bars/mask009.png,,,,,,,,,,,,0,1,,,,,,,0,10,1,10,,,,,,,,,,,2002.8588,2003.3585,2003.608,2004.1754,space,0.5574,,2004.1754,17,88,2005.1753,2005.1753,2005.177,,,,0,9,9,9,1,45,120,,,,,,,,
,,653a784a41876017f84c89df,65af552b0a3110be0ab78254,2024-01-23_07h58.22.681,bars,2023.2.3,Win32,59.52380952,657b66ea316d21385b68909f,,,,,,,,,,,2005.1775,2006.1749,,,2006.6751,2006.9252,,162,162,,,,,,,,,,,,,,,,bars/009.png,bars/mask001.png,,,,,,,,,,,,0,1,,,,,,,2,8,3,7,,,,,,,,,,,2006.1749,2006.6751,2006.9252,2007.4246,space,0.4902,,2007.4247,33,57,2008.425,2008.4251,2008.4264,,,,0,10,10,10,1,15,105,,,,,,,,
,,653a784a41876017f84c89df,65af552b0a3110be0ab78254,2024-01-23_07h58.22.681,bars,2023.2.3,Win32,59.52380952,657b66ea316d21385b68909f,,,,,,,,,,,2008.4271,2009.4242,,,2009.9249,2010.1748,,2,2,,,,,,,,,,,,,,,,bars/004.png,bars/mask006.png,,,,,,,,,,,,0,1,,,,,,,0,10,0,10,,,,,,,,,,,2009.4242,2009.9248,2010.1749,2010.7265,space,0.5446,,2010.7266,23,57,2011.7245,2011.7245,2011.7259,,,,0,11,11,11,1,25,125,,,,,,,,
,,653a784a41876017f84c89df,65af552b0a3110be0ab78254,2024-01-23_07h58.22.681,bars,2023.2.3,Win32,59.52380952,657b66ea316d21385b68909f,,,,,,,,,,,2011.7268,2012.7236,,,2013.2237,2013.474,,104,104,,,,,,,,,,,,,,,,bars/003.png,bars/mask004.png,,,,,,,,,,,,0,2,,,,,,,2,8,2,6,,,,,,,,,,,2012.7236,2013.2237,2013.4741,2013.8661,space,0.3848,,2013.8662,79,36,2014.8576,2014.8576,2014.8624,,,,0,12,12,12,1,25,140,,,,,,,,
,,653a784a41876017f84c89df,65af552b0a3110be0ab78254,2024-01-23_07h58.22.681,bars,2023.2.3,Win32,59.52380952,657b66ea316d21385b68909f,,,,,,,,,,,2014.8628,2015.8572,,,2016.3563,2016.6066,,56,56,,,,,,,,,,,,,,,,bars/016.png,bars/mask000.png,,,,,,,,,,,,2,1,,,,,,,4,10,5,9,,,,,,,,,,,2015.8573,2016.3562,2016.6066,2017.0903,space,0.4689,,2017.0905,16,71,2018.0898,2018.0899,2018.0948,,,,0,13,13,13,1,40,165,,,,,,,,
,,653a784a41876017f84c89df,65af552b0a3110be0ab78254,2024-01-23_07h58.22.681,bars,2023.2.3,Win32,59.52380952,657b66ea316d21385b68909f,,,,,,,,,,,2018.0953,2019.0901,,,2019.5898,2019.8394,,175,175,,,,,,,,,,,,,,,,bars/041.png,bars/mask001.png,,,,,,,,,,,,0,1,,,,,,,2,10,2,10,,,,,,,,,,,2019.0902,2019.5898,2019.8395,2020.2626,space,0.4171,,2020.2626,25,90,2021.2557,2021.2557,2021.2575,,,,0,14,14,14,1,20,85,,,,,,,,
,,653a784a41876017f84c89df,65af552b0a3110be0ab78254,2024-01-23_07h58.22.681,bars,2023.2.3,Win32,59.52380952,657b66ea316d21385b68909f,,,,,,,,,,,2021.2581,2022.2563,,,2022.7563,2023.0061,,25,25,,,,,,,,,,,,,,,,bars/030.png,bars/mask007.png,,,,,,,,,,,,0,2,,,,,,,0,10,0,10,,,,,,,,,,,2022.2564,2022.7563,2023.0062,2023.5563,space,0.5361,,2023.5564,65,40,2024.556,2024.556,2024.5597,,,,0,15,15,15,1,140,65,,,,,,,,
,,653a784a41876017f84c89df,65af552b0a3110be0ab78254,2024-01-23_07h58.22.681,bars,2023.2.3,Win32,59.52380952,657b66ea316d21385b68909f,,,,,,,,,,,2024.5603,2025.5559,,,2026.0556,2026.3057,,134,134,,,,,,,,,,,,,,,,bars/004.png,bars/mask006.png,,,,,,,,,,,,7,2,,,,,,,2,10,2,10,,,,,,,,,,,2025.556,2026.0555,2026.3057,2027.3225,space,1.005,,2027.3225,71,9,2028.3274,2028.3274,2028.3453,,,,0,16,16,16,1,25,125,,,,,,,,
,,653a784a41876017f84c89df,65af552b0a3110be0ab78254,2024-01-23_07h58.22.681,bars,2023.2.3,Win32,59.52380952,657b66ea316d21385b68909f,,,,,,,,,,,2028.3459,2029.3393,,,2029.8441,2030.094,,87,87,,,,,,,,,,,,,,,,bars/030.png,bars/mask004.png,,,,,,,,,,,,2,2,,,,,,,0,10,0,8,,,,,,,,,,,2029.3394,2029.844,2030.0941,2030.1285,space,0.0179,,2030.1285,53,22,2031.1213,2031.1214,2031.1239,,,,0,17,17,17,1,140,65,,,,,,,,
,,653a784a41876017f84c89df,65af552b0a3110be0ab78254,2024-01-23_07h58.22.681,bars,2023.2.3,Win32,59.52380952,657b66ea316d21385b68909f,,,,,,,,,,,2031.1245,2032.1265,,,2032.6266,2032.8765,,88,88,,,,,,,,,,,,,,,,bars/013.png,bars/mask008.png,,,,,,,,,,,,1,1,,,,,,,2,10,2,10,,,,,,,,,,,2032.1265,2032.6265,2032.8765,2033.0121,space,0.1186,,2033.0123,13,78,2034.0116,2034.0117,2034.0152,,,,0,18,18,18,1,75,10,,,,,,,,
,,653a784a41876017f84c89df,65af552b0a3110be0ab78254,2024-01-23_07h58.22.681,bars,2023.2.3,Win32,59.52380952,657b66ea316d21385b68909f,,,,,,,,,,,2034.0156,2035.0047,,,2035.5078,2035.7548,,79,79,,,,,,,,,,,,,,,,bars/018.png,bars/mask001.png,,,,,,,,,,,,6,2,,,,,,,0,10,1,10,,,,,,,,,,,2035.0047,2035.5077,2035.7548,2036.1327,space,0.3567,,2036.1328,71,11,2037.1212,2037.1213,2037.1255,,,,0,19,19,19,1,150,90,,,,,,,,
,,653a784a41876017f84c89df,65af552b0a3110be0ab78254,2024-01-23_07h58.22.681,bars,2023.2.3,Win32,59.52380952,657b66ea316d21385b68909f,,,,,,,,,,,2037.1259,2038.1259,,,2038.6206,2038.874,,87,87,,,,,,,,,,,,,,,,bars/045.png,bars/mask009.png,,,,,,,,,,,,1,1,,,,,,,2,10,1,8,,,,,,,,,,,2038.126,2038.6206,2038.8741,2039.4125,space,0.52,,2039.4125,13,77,2040.4043,2040.4043,2040.4079,,,,0,20,20,20,1,100,10,,,,,,,,
,,653a784a41876017f84c89df,65af552b0a3110be0ab78254,2024-01-23_07h58.22.681,bars,2023.2.3,Win32,59.52380952,657b66ea316d21385b68909f,,,,,,,,,,,2040.4083,2041.4088,,,2041.9065,2042.1534,,82,82,,,,,,,,,,,,,,,,bars/043.png,bars/mask005.png,,,,,,,,,,,,0,2,,,,,,,4,8,3,8,,,,,,,,,,,2041.4088,2041.9065,2042.1535,2042.9432,space,0.7832,,2042.9432,52,48,2043.9403,2043.9403,2043.9418,,,,0,21,21,21,1,30,130,,,,,,,,
,,653a784a41876017f84c89df,65af552b0a3110be0ab78254,2024-01-23_07h58.22.681,bars,2023.2.3,Win32,59.52380952,657b66ea316d21385b68909f,,,,,,,,,,,2043.942,2044.9417,,,2045.442,2045.6915,,173,173,,,,,,,,,,,,,,,,bars/024.png,bars/mask003.png,,,,,,,,,,,,9,2,,,,,,,6,10,7,10,,,,,,,,,,,2044.9418,2045.4419,2045.6916,2046.4932,space,0.7845,,2046.4933,53,3,2047.4867,2047.4868,2047.489,,,,0,22,22,22,1,120,170,,,,,,,,
,,653a784a41876017f84c89df,65af552b0a3110be0ab78254,2024-01-23_07h58.22.681,bars,2023.2.3,Win32,59.52380952,657b66ea316d21385b68909f,,,,,,,,,,,2047.4895,2048.4863,,,2048.9866,2049.2244,,93,93,,,,,,,,,,,,,,,,bars/049.png,bars/mask003.png,,,,,,,,,,,,3,2,,,,,,,4,10,4,10,,,,,,,,,,,2048.4864,2048.9865,2049.2245,2050.063,space,0.8219,,2050.0632,67,22,2051.0521,2051.0523,2051.0546,,,,0,23,23,23,1,160,115,,,,,,,,
,,653a784a41876017f84c89df,65af552b0a3110be0ab78254,2024-01-23_07h58.22.681,bars,2023.2.3,Win32,59.52380952,657b66ea316d21385b68909f,,,,,,,,,,,2051.0551,2052.0522,,,2052.5575,2052.8056,,154,154,,,,,,,,,,,,,,,,bars/046.png,bars/mask008.png,,,,,,,,,,,,5,1,,,,,,,6,8,5,9,,,,,,,,,,,2052.0523,2052.5574,2052.8057,2053.662,space,0.8384,,2053.6621,1,69,2054.6521,2054.6522,2054.6559,,,,0,24,24,24,1,155,85,,,,,,,,
,,653a784a41876017f84c89df,65af552b0a3110be0ab78254,2024-01-23_07h58.22.681,bars,2023.2.3,Win32,59.52380952,657b66ea316d21385b68909f,,,,,,,,,,,2054.6563,2055.6569,,,2056.1519,2056.3898,,106,106,,,,,,,,,,,,,,,,bars/021.png,bars/mask009.png,,,,,,,,,,,,0,2,,,,,,,4,6,4,7,,,,,,,,,,,2055.657,2056.1518,2056.3899,2057.0914,space,0.6958,,2057.0916,49,36,2058.0902,2058.0902,2058.094,,,,0,25,25,25,1,155,70,,,,,,,,
,,653a784a41876017f84c89df,65af552b0a3110be0ab78254,2024-01-23_07h58.22.681,bars,2023.2.3,Win32,59.52380952,657b66ea316d21385b68909f,,,,,,,,,,,2058.0945,2059.085,,,2059.5726,2059.8235,,53,53,,,,,,,,,,,,,,,,bars/034.png,bars/mask005.png,,,,,,,,,,,,5,2,,,,,,,2,8,1,8,,,,,,,,,,,2059.0852,2059.5726,2059.8235,2060.708,space,0.8679,,2060.7081,72,12,2061.696,2061.6961,2061.6973,,,,0,26,26,26,1,125,65,,,,,,,,
,,653a784a41876017f84c89df,65af552b0a3110be0ab78254,2024-01-23_07h58.22.681,bars,2023.2.3,Win32,59.52380952,657b66ea316d21385b68909f,,,,,,,,,,,2061.698,2062.6893,,,2063.1845,2063.423,,105,105,,,,,,,,,,,,,,,,bars/012.png,bars/mask008.png,,,,,,,,,,,,3,1,,,,,,,4,10,5,9,,,,,,,,,,,2062.6893,2063.1844,2063.423,2063.4578,space,0.0186,,2063.458,15,90,2064.4559,2064.456,2064.4601,,,,0,27,27,27,1,90,15,,,,,,,,
,,653a784a41876017f84c89df,65af552b0a3110be0ab78254,2024-01-23_07h58.22.681,bars,2023.2.3,Win32,59.52380952,657b66ea316d21385b68909f,,,,,,,,,,,2064.4605,2065.4508,,,2065.9509,2066.1892,,123,123,,,,,,,,,,,,,,,,bars/015.png,bars/mask009.png,,,,,,,,,,,,1,1,,,,,,,2,10,2,9,,,,,,,,,,,2065.4509,2065.9508,2066.1893,2067.7165,space,1.5091,,2067.7166,13,37,2068.705,2068.705,2068.7229,,,,0,28,28,28,1,110,160,,,,,,,,
,,653a784a41876017f84c89df,65af552b0a3110be0ab78254,2024-01-23_07h58.22.681,bars,2023.2.3,Win32,59.52380952,657b66ea316d21385b68909f,,,,,,,,,,,2068.7233,2069.7163,,,2070.2047,2070.4554,,5,5,,,,,,,,,,,,,,,,bars/015.png,bars/mask000.png,,,,,,,,,,,,1,2,,,,,,,0,8,0,8,,,,,,,,,,,2069.7164,2070.2046,2070.4555,2070.8833,space,0.4078,,2070.8834,75,25,2071.8719,2071.8719,2071.8761,,,,0,29,29,29,1,110,160,,,,,,,,
,,653a784a41876017f84c89df,65af552b0a3110be0ab78254,2024-01-23_07h58.22.681,bars,2023.2.3,Win32,59.52380952,657b66ea316d21385b68909f,,,,,,,,,,,2071.8765,2072.8662,,,2073.3711,2073.6204,,65,65,,,,,,,,,,,,,,,,bars/035.png,bars/mask000.png,,,,,,,,,,,,8,2,,,,,,,2,10,2,9,,,,,,,,,,,2072.8663,2073.3711,2073.6204,2074.0739,space,0.4354,,2074.0741,70,5,2075.0711,2075.0713,2075.0732,,,,0,30,30,30,1,175,60,,,,,,,,
,,653a784a41876017f84c89df,65af552b0a3110be0ab78254,2024-01-23_07h58.22.681,bars,2023.2.3,Win32,59.52380952,657b66ea316d21385b68909f,,,,,,,,,,,2075.0735,2076.0691,,,2076.5661,2076.804,,85,85,,,,,,,,,,,,,,,,bars/019.png,bars/mask008.png,,,,,,,,,,,,3,2,,,,,,,0,8,0,8,,,,,,,,,,,2076.0692,2076.5659,2076.804,2077.1372,space,0.3166,,2077.1372,40,20,2078.1373,2078.1375,2078.1394,,,,0,31,31,31,1,45,105,,,,,,,,
,,653a784a41876017f84c89df,65af552b0a3110be0ab78254,2024-01-23_07h58.22.681,bars,2023.2.3,Win32,59.52380952,657b66ea316d21385b68909f,,,,,,,,,,,2078.1398,2079.1322,,,2079.6209,2079.8657,,122,122,,,,,,,,,,,,,,,,bars/048.png,bars/mask007.png,,,,,,,,,,,,0,2,,,,,,,0,6,0,5,,,,,,,,,,,2079.1323,2079.6208,2079.8658,2082.8104,space,2.9232,,2082.8104,72,53,2083.8012,2083.8012,2083.821,,,,0,32,32,32,1,50,175,,,,,,,,
,,653a784a41876017f84c89df,65af552b0a3110be0ab78254,2024-01-23_07h58.22.681,bars,2023.2.3,Win32,59.52380952,657b66ea316d21385b68909f,,,,,,,,,,,2083.8214,2084.8198,,,2085.3144,2085.5646,,111,111,,,,,,,,,,,,,,,,bars/016.png,bars/mask003.png,,,,,,,,,,,,0,2,,,,,,,0,4,1,4,,,,,,,,,,,2084.8199,2085.3144,2085.5647,2085.8082,space,0.2218,,2085.8083,71,54,2086.8031,2086.8031,2086.8057,,,,0,33,33,33,1,40,165,,,,,,,,
,,653a784a41876017f84c89df,65af552b0a3110be0ab78254,2024-01-23_07h58.22.681,bars,2023.2.3,Win32,59.52380952,657b66ea316d21385b68909f,,,,,,,,,,,2086.8061,2087.7979,,,2088.298,2088.5467,,166,166,,,,,,,,,,,,,,,,bars/027.png,bars/mask000.png,,,,,,,,,,,,0,1,,,,,,,0,6,1,6,,,,,,,,,,,2087.798,2088.298,2088.5468,2089.3976,space,0.8403,,2089.3977,56,64,2090.3974,2090.3974,2090.4021,,,,0,34,34,34,1,110,50,,,,,,,,
,,653a784a41876017f84c89df,65af552b0a3110be0ab78254,2024-01-23_07h58.22.681,bars,2023.2.3,Win32,59.52380952,657b66ea316d21385b68909f,,,,,,,,,,,2090.4025,2091.3971,,,2091.8967,2092.1466,,163,163,,,,,,,,,,,,,,,,bars/022.png,bars/mask003.png,,,,,,,,,,,,0,2,,,,,,,2,8,2,7,,,,,,,,,,,2091.3972,2091.8967,2092.1467,2092.7967,space,0.6394,,2092.7968,68,37,2093.7969,2093.7969,2093.8015,,,,0,35,35,35,1,95,20,,,,,,,,
,,653a784a41876017f84c89df,65af552b0a3110be0ab78254,2024-01-23_07h58.22.681,bars,2023.2.3,Win32,59.52380952,657b66ea316d21385b68909f,,,,,,,,,,,2093.8019,2094.7968,,,2095.2968,2095.5467,,87,87,,,,,,,,,,,,,,,,bars/012.png,bars/mask000.png,,,,,,,,,,,,4,1,,,,,,,4,6,4,6,,,,,,,,,,,2094.7969,2095.2968,2095.5468,2096.1358,space,0.5814,,2096.1358,3,72,2097.1299,2097.13,2097.1349,,,,0,36,36,36,1,90,15,,,,,,,,
,,653a784a41876017f84c89df,65af552b0a3110be0ab78254,2024-01-23_07h58.22.681,bars,2023.2.3,Win32,59.52380952,657b66ea316d21385b68909f,,,,,,,,,,,2097.1353,2098.1297,,,2098.6287,2098.8793,,140,140,,,,,,,,,,,,,,,,bars/035.png,bars/mask000.png,,,,,,,,,,,,0,1,,,,,,,6,8,6,8,,,,,,,,,,,2098.1297,2098.6287,2098.8793,2099.8295,space,0.943,,2099.8296,35,80,2100.8292,2100.8294,2100.8315,,,,0,37,37,37,1,175,60,,,,,,,,
,,653a784a41876017f84c89df,65af552b0a3110be0ab78254,2024-01-23_07h58.22.681,bars,2023.2.3,Win32,59.52380952,657b66ea316d21385b68909f,,,,,,,,,,,2100.8322,2101.8295,,,2102.3284,2102.5824,,132,132,,,,,,,,,,,,,,,,bars/026.png,bars/mask007.png,,,,,,,,,,,,0,2,,,,,,,8,6,8,6,,,,,,,,,,,2101.8295,2102.3284,2102.5825,2103.2119,space,0.6205,,2103.2121,83,47,2104.2177,2104.2178,2104.2211,,,,0,38,38,38,1,35,85,,,,,,,,
,,653a784a41876017f84c89df,65af552b0a3110be0ab78254,2024-01-23_07h58.22.681,bars,2023.2.3,Win32,59.52380952,657b66ea316d21385b68909f,,,,,,,,,,,2104.2217,2105.2122,,,2105.7121,2105.9622,,91,91,,,,,,,,,,,,,,,,bars/018.png,bars/mask004.png,,,,,,,,,,,,4,2,,,,,,,6,4,4,4,,,,,,,,,,,2105.2122,2105.712,2105.9623,2106.6788,space,0.7014,,2106.6789,59,1,2107.6783,2107.6784,2107.68,,,,0,39,39,39,1,150,90,,,,,,,,
,,653a784a41876017f84c89df,65af552b0a3110be0ab78254,2024-01-23_07h58.22.681,bars,2023.2.3,Win32,59.52380952,657b66ea316d21385b68909f,,,,,,,,,,,2107.6808,2108.6786,,,2109.1783,2109.4282,,38,38,,,,,,,,,,,,,,,,bars/008.png,bars/mask007.png,,,,,,,,,,,,0,2,,,,,,,4,6,5,5,,,,,,,,,,,2108.6787,2109.1783,2109.4282,2109.7784,space,0.34,,2109.7785,72,38,2110.7781,2110.7781,2110.7799,,,,0,40,40,40,1,110,0,,,,,,,,
,,653a784a41876017f84c89df,65af552b0a3110be0ab78254,2024-01-23_07h58.22.681,bars,2023.2.3,Win32,59.52380952,657b66ea316d21385b68909f,,,,,,,,,,,2110.7803,2111.7779,,,2112.2778,2112.5277,,166,166,,,,,,,,,,,,,,,,bars/019.png,bars/mask008.png,,,,,,,,,,,,0,1,,,,,,,6,8,8,8,,,,,,,,,,,2111.7779,2112.2778,2112.5278,2112.7104,space,0.1694,,2112.7104,59,61,2113.7104,2113.7105,2113.7148,,,,0,41,41,41,1,45,105,,,,,,,,
,,653a784a41876017f84c89df,65af552b0a3110be0ab78254,2024-01-23_07h58.22.681,bars,2023.2.3,Win32,59.52380952,657b66ea316d21385b68909f,,,,,,,,,,,2113.7156,2114.7108,,,2115.2101,2115.4597,,172,172,,,,,,,,,,,,,,,,bars/002.png,bars/mask003.png,,,,,,,,,,,,0,1,,,,,,,8,6,7,7,,,,,,,,,,,2114.7108,2115.2101,2115.4598,2115.8267,space,0.3592,,2115.8267,42,87,2116.8273,2116.8273,2116.8287,,,,0,42,42,42,1,130,85,,,,,,,,
,,653a784a41876017f84c89df,65af552b0a3110be0ab78254,2024-01-23_07h58.22.681,bars,2023.2.3,Win32,59.52380952,657b66ea316d21385b68909f,,,,,,,,,,,2116.8293,2117.826,,,2118.3261,2118.5759,,171,171,,,,,,,,,,,,,,,,bars/023.png,bars/mask008.png,,,,,,,,,,,,0,1,,,,,,,6,4,6,5,,,,,,,,,,,2117.826,2118.326,2118.576,2118.5925,space,0.0008,,2118.5926,29,56,2119.5924,2119.5924,2119.5935,,,,0,43,43,43,1,20,115,,,,,,,,
,,653a784a41876017f84c89df,65af552b0a3110be0ab78254,2024-01-23_07h58.22.681,bars,2023.2.3,Win32,59.52380952,657b66ea316d21385b68909f,,,,,,,,,,,2119.5943,2120.5923,,,2121.0924,2121.3422,,164,164,,,,,,,,,,,,,,,,bars/037.png,bars/mask009.png,,,,,,,,,,,,3,1,,,,,,,4,2,5,2,,,,,,,,,,,2120.5924,2121.0922,2121.3424,2121.6593,space,0.3011,,2121.6594,14,59,2122.6587,2122.6588,2122.6598,,,,0,44,44,44,1,150,105,,,,,,,,
,,653a784a41876017f84c89df,65af552b0a3110be0ab78254,2024-01-23_07h58.22.681,bars,2023.2.3,Win32,59.52380952,657b66ea316d21385b68909f,,,,,,,,,,,2122.6605,2123.6586,,,2124.1586,2124.4085,,65,65,,,,,,,,,,,,,,,,bars/032.png,bars/mask001.png,,,,,,,,,,,,0,2,,,,,,,2,0,4,0,,,,,,,,,,,2123.6587,2124.1586,2124.4085,2124.6271,space,0.2108,,2124.6271,60,45,2125.6251,2125.6251,2125.629,,,,0,45,45,45,1,125,20,,,,,,,,
,,653a784a41876017f84c89df,65af552b0a3110be0ab78254,2024-01-23_07h58.22.681,bars,2023.2.3,Win32,59.52380952,657b66ea316d21385b68909f,,,,,,,,,,,2125.6292,2126.6271,,,2127.1248,2127.3748,,40,40,,,,,,,,,,,,,,,,bars/002.png,bars/mask002.png,,,,,,,,,,,,0,2,,,,,,,4,0,2,0,,,,,,,,,,,2126.6271,2127.1247,2127.3748,2127.4915,space,0.1015,,2127.4917,90,45,2128.4912,2128.4912,2128.4925,,,,0,46,46,46,1,130,85,,,,,,,,
,,653a784a41876017f84c89df,65af552b0a3110be0ab78254,2024-01-23_07h58.22.681,bars,2023.2.3,Win32,59.52380952,657b66ea316d21385b68909f,,,,,,,,,,,2128.4929,2129.4911,,,2129.9911,2130.2411,,149,149,,,,,,,,,,,,,,,,bars/019.png,bars/mask000.png,,,,,,,,,,,,0,2,,,,,,,2,2,1,1,,,,,,,,,,,2129.4911,2129.9911,2130.2412,2130.4913,space,0.2345,,2130.4914,76,44,2131.4909,2131.4909,2131.4918,,,,0,47,47,47,1,45,105,,,,,,,,
,,653a784a41876017f84c89df,65af552b0a3110be0ab78254,2024-01-23_07h58.22.681,bars,2023.2.3,Win32,59.52380952,657b66ea316d21385b68909f,,,,,,,,,,,2131.4922,2132.4907,,,2132.9908,2133.2434,,95,95,,,,,,,,,,,,,,,,bars/009.png,bars/mask004.png,,,,,,,,,,,,0,2,,,,,,,4,0,4,0,,,,,,,,,,,2132.4907,2132.9908,2133.2434,2133.3739,space,0.1179,,2133.374,80,10,2134.3738,2134.3738,2134.3748,,,,0,48,48,48,1,15,105,,,,,,,,
,,653a784a41876017f84c89df,65af552b0a3110be0ab78254,2024-01-23_07h58.22.681,bars,2023.2.3,Win32,59.52380952,657b66ea316d21385b68909f,,,,,,,,,,,2134.3754,2135.3737,,,2135.8749,2136.1246,,56,56,,,,,,,,,,,,,,,,bars/000.png,bars/mask008.png,,,,,,,,,,,,3,1,,,,,,,6,0,6,1,,,,,,,,,,,2135.3737,2135.8749,2136.1247,2136.4422,space,0.309,,2136.4423,16,89,2137.44,2137.44,2137.4437,,,,0,49,49,49,1,40,145,,,,,,,,
,,653a784a41876017f84c89df,65af552b0a3110be0ab78254,2024-01-23_07h58.22.681,bars,2023.2.3,Win32,59.52380952,657b66ea316d21385b68909f,,,,,,,,,,,,,,,,,,,,,,,,,,,,,,,,,,,,,,,,,,,,,,,,,,,,,,,,,,,,,,,,,,,,,,,,,,,,,,,,,,,,,,,,,,,,,2137.444,2197.433,0,3,3,1,1,sequence_tables/blk030.csv
,,653a784a41876017f84c89df,65af552b0a3110be0ab78254,2024-01-23_07h58.22.681,bars,2023.2.3,Win32,59.52380952,657b66ea316d21385b68909f,,,,,,,,,,,2355.3074,2356.3122,,,2356.8128,2357.0454,,95,95,,,,,,,,,,,,,,,,bars/019.png,bars/mask002.png,,,,,,,,,,,,5,2,,,,,,,10,7,10,8,,,,,,2197.4524,2355.2825,space,157.8224,,2356.3123,2356.8126,2357.0455,2357.0788,space,0.0129,,2357.0789,50,10,2358.0775,2358.0775,2358.0809,,,,0,0,0,0,1,45,105,,,,,,,,
,,653a784a41876017f84c89df,65af552b0a3110be0ab78254,2024-01-23_07h58.22.681,bars,2023.2.3,Win32,59.52380952,657b66ea316d21385b68909f,,,,,,,,,,,2358.0818,2359.0777,,,2359.5796,2359.8109,,173,173,,,,,,,,,,,,,,,,bars/039.png,bars/mask008.png,,,,,,,,,,,,9,1,,,,,,,10,5,10,6,,,,,,,,,,,2359.0777,2359.5795,2359.8111,2359.9453,space,0.1189,,2359.9454,2,68,2360.9441,2360.9441,2360.9476,,,,0,1,1,1,1,175,105,,,,,,,,
,,653a784a41876017f84c89df,65af552b0a3110be0ab78254,2024-01-23_07h58.22.681,bars,2023.2.3,Win32,59.52380952,657b66ea316d21385b68909f,,,,,,,,,,,2360.9484,2361.9451,,,2362.4462,2362.6782,,18,18,,,,,,,,,,,,,,,,bars/009.png,bars/mask009.png,,,,,,,,,,,,8,1,,,,,,,10,3,9,3,,,,,,,,,,,2361.9452,2362.4461,2362.6783,2362.7785,space,0.0887,,2362.7787,3,87,2363.7781,2363.7782,2363.7802,,,,0,2,2,2,1,15,105,,,,,,,,
,,653a784a41876017f84c89df,65af552b0a3110be0ab78254,2024-01-23_07h58.22.681,bars,2023.2.3,Win32,59.52380952,657b66ea316d21385b68909f,,,,,,,,,,,2363.7807,2364.7782,,,2365.277,2365.5111,,22,22,,,,,,,,,,,,,,,,bars/034.png,bars/mask009.png,,,,,,,,,,,,0,2,,,,,,,8,1,6,0,,,,,,,,,,,2364.7783,2365.2769,2365.5111,2365.6109,space,0.0774,,2365.611,77,43,2366.6112,2366.6112,2366.617,,,,0,3,3,3,1,125,65,,,,,,,,
,,653a784a41876017f84c89df,65af552b0a3110be0ab78254,2024-01-23_07h58.22.681,bars,2023.2.3,Win32,59.52380952,657b66ea316d21385b68909f,,,,,,,,,,,2366.6177,2367.6108,,,2368.111,2368.3441,,4,4,,,,,,,,,,,,,,,,bars/013.png,bars/mask005.png,,,,,,,,,,,,1,2,,,,,,,10,0,10,1,,,,,,,,,,,2367.6108,2368.1109,2368.3442,2368.4815,space,0.1075,,2368.4817,71,6,2369.4776,2369.4776,2369.4796,,,,0,4,4,4,1,75,10,,,,,,,,
,,653a784a41876017f84c89df,65af552b0a3110be0ab78254,2024-01-23_07h58.22.681,bars,2023.2.3,Win32,59.52380952,657b66ea316d21385b68909f,,,,,,,,,,,2369.4802,2370.4775,,,2370.9774,2371.2105,,58,58,,,,,,,,,,,,,,,,bars/018.png,bars/mask008.png,,,,,,,,,,,,0,2,,,,,,,8,0,9,1,,,,,,,,,,,2370.4775,2370.9773,2371.2105,2371.2775,space,0.0519,,2371.2776,88,32,2372.2771,2372.2771,2372.2787,,,,0,5,5,5,1,150,90,,,,,,,,
,,653a784a41876017f84c89df,65af552b0a3110be0ab78254,2024-01-23_07h58.22.681,bars,2023.2.3,Win32,59.52380952,657b66ea316d21385b68909f,,,,,,,,,,,2372.2797,2373.2769,,,2373.7772,2374.0151,,127,127,,,,,,,,,,,,,,,,bars/003.png,bars/mask005.png,,,,,,,,,,,,1,2,,,,,,,6,2,7,2,,,,,,,,,,,2373.277,2373.7771,2374.0151,2374.2434,space,0.2108,,2374.2434,78,13,2375.245,2375.2451,2375.2461,,,,0,6,6,6,1,25,140,,,,,,,,
,,653a784a41876017f84c89df,65af552b0a3110be0ab78254,2024-01-23_07h58.22.681,bars,2023.2.3,Win32,59.52380952,657b66ea316d21385b68909f,,,,,,,,,,,2375.2467,2376.2425,,,2376.7425,2376.9765,,85,85,,,,,,,,,,,,,,,,bars/021.png,bars/mask003.png,,,,,,,,,,,,0,2,,,,,,,8,0,9,0,,,,,,,,,,,2376.2426,2376.7424,2376.9765,2377.1455,space,0.162,,2377.1456,70,15,2378.143,2378.143,2378.1445,,,,0,7,7,7,1,155,70,,,,,,,,
,,653a784a41876017f84c89df,65af552b0a3110be0ab78254,2024-01-23_07h58.22.681,bars,2023.2.3,Win32,59.52380952,657b66ea316d21385b68909f,,,,,,,,,,,2378.1452,2379.1426,,,2379.6426,2379.8758,,88,88,,,,,,,,,,,,,,,,bars/044.png,bars/mask008.png,,,,,,,,,,,,3,1,,,,,,,6,2,6,2,,,,,,,,,,,2379.1426,2379.6425,2379.876,2379.9088,space,0.0169,,2379.9088,13,67,2380.9091,2380.9092,2380.9146,,,,0,8,8,8,1,75,155,,,,,,,,
,,653a784a41876017f84c89df,65af552b0a3110be0ab78254,2024-01-23_07h58.22.681,bars,2023.2.3,Win32,59.52380952,657b66ea316d21385b68909f,,,,,,,,,,,2380.9151,2381.9088,,,2382.4084,2382.6421,,77,77,,,,,,,,,,,,,,,,bars/014.png,bars/mask001.png,,,,,,,,,,,,5,1,,,,,,,8,0,6,0,,,,,,,,,,,2381.9088,2382.4084,2382.6422,2382.7751,space,0.114,,2382.7752,3,77,2383.7747,2383.7747,2383.7759,,,,0,9,9,9,1,80,0,,,,,,,,
,,653a784a41876017f84c89df,65af552b0a3110be0ab78254,2024-01-23_07h58.22.681,bars,2023.2.3,Win32,59.52380952,657b66ea316d21385b68909f,,,,,,,,,,,2383.7767,2384.7752,,,2385.2755,2385.5087,,40,40,,,,,,,,,,,,,,,,bars/001.png,bars/mask006.png,,,,,,,,,,,,0,2,,,,,,,10,2,10,1,,,,,,,,,,,2384.7753,2385.2755,2385.5087,2385.6084,space,0.0862,,2385.6085,90,45,2386.6084,2386.6084,2386.614,,,,0,10,10,10,1,130,85,,,,,,,,
,,653a784a41876017f84c89df,65af552b0a3110be0ab78254,2024-01-23_07h58.22.681,bars,2023.2.3,Win32,59.52380952,657b66ea316d21385b68909f,,,,,,,,,,,2386.6145,2387.6081,,,2388.1083,2388.3412,,19,19,,,,,,,,,,,,,,,,bars/007.png,bars/mask006.png,,,,,,,,,,,,2,1,,,,,,,10,4,10,4,,,,,,,,,,,2387.6082,2388.1081,2388.3413,2388.6765,space,0.3267,,2388.6765,24,36,2389.6745,2389.6745,2389.68,,,,0,11,11,11,1,175,55,,,,,,,,
