init_variables.started,init_variables.stopped,participant,session,date,expName,psychopyVersion,OS,frameRate,study_id,instruction_exp.started,instruction_exp.stopped,key_resp_8.keys,key_resp_8.rt,key_resp_8.duration,instruction_single.started,instruction_single.stopped,key_resp_2.keys,key_resp_2.rt,key_resp_2.duration,interval.started,interval.stopped,cue_single.started,cue_single.stopped,mask.started,mask.stopped,ori_response_single.started,res_ori,res,ori_response_single.stopped,key_resp_single.keys,key_resp_single.rt,key_resp_single.duration,disp_single.started,disp_single.stopped,key_resp.keys,key_resp.rt,key_resp.duration,single.thisRepN,single.thisTrialN,single.thisN,single.thisIndex,single.ran,ori,path,mask_path,instruction_bandit.started,instruction_bandit.stopped,key_resp_6.keys,key_resp_6.rt,key_resp_6.duration,cue_bandit.started,cue_bandit.stopped,bandit_res.keys,bandit_res.rt,bandit_res.duration,outcome_bandit.started,rew,action,outcome_bandit.stopped,bandit.thisRepN,bandit.thisTrialN,bandit.thisN,bandit.thisIndex,bandit.ran,actual_rew1,actual_rew2,rew1,rew2,instruction_task.started,instruction_task.stopped,key_resp_7.keys,key_resp_7.rt,key_resp_7.duration,wait_ready.started,wait_ready.stopped,key_resp_3.keys,key_resp_3.rt,key_resp_3.duration,cue.started,cue.stopped,ori_response.started,ori_response.stopped,key_resp_5.keys,key_resp_5.rt,key_resp_5.duration,outcome.started,diff1,diff2,outcome.stopped,disp_outcome_practice.started,disp_outcome_practice.stopped,key_resp_4.keys,key_resp_4.rt,key_resp_4.duration,trials.thisRepN,trials.thisTrialN,trials.thisN,trials.thisIndex,trials.ran,ori1,ori2,break_blk.started,break_blk.stopped,block.thisRepN,block.thisTrialN,block.thisN,block.thisIndex,block.ran,condition_file
0.0024,0.0026,5dd73f496ca7e76e32b1aa16,65af55ae96282ee5a07620ef,2024-01-23_07h00.13.160,bars,2023.2.3,Win32,12.00048002,657b66ea316d21385b68909f,,,,,,,,,,,,,,,,,,,,,,,,,,,,,,,,,,,,,,,,,,,,,,,,,,,,,,,,,,,,,,,,,,,,,,,,,,,,,,,,,,,,,,,,,,,,,,,,,,,,
,,5dd73f496ca7e76e32b1aa16,65af55ae96282ee5a07620ef,2024-01-23_07h00.13.160,bars,2023.2.3,Win32,12.00048002,657b66ea316d21385b68909f,0.0028,14.9055,y,14.8089,,,,,,,,,,,,,,,,,,,,,,,,,,,,,,,,,,,,,,,,,,,,,,,,,,,,,,,,,,,,,,,,,,,,,,,,,,,,,,,,,,,,,,,,,,,,,,,,
,,5dd73f496ca7e76e32b1aa16,65af55ae96282ee5a07620ef,2024-01-23_07h00.13.160,bars,2023.2.3,Win32,12.00048002,657b66ea316d21385b68909f,,,,,,14.9057,41.9899,space,26.9931,,,,,,,,,,,,,,,,,,,,,,,,,,,,,,,,,,,,,,,,,,,,,,,,,,,,,,,,,,,,,,,,,,,,,,,,,,,,,,,,,,,,,,,,,,,
,,5dd73f496ca7e76e32b1aa16,65af55ae96282ee5a07620ef,2024-01-23_07h00.13.160,bars,2023.2.3,Win32,12.00048002,657b66ea316d21385b68909f,,,,,,,,,,,41.9954,42.958,42.9582,43.428,43.4282,43.6434,43.6435,0,180,68.2414,space,24.4968,,68.2416,79.9925,space,11.634,,0,0,0,4,1,95,bars/single004.png,bars/mask004.png,,,,,,,,,,,,,,,,,,,,,,,,,,,,,,,,,,,,,,,,,,,,,,,,,,,,,,,,,,,,,,,,
,,5dd73f496ca7e76e32b1aa16,65af55ae96282ee5a07620ef,2024-01-23_07h00.13.160,bars,2023.2.3,Win32,12.00048002,657b66ea316d21385b68909f,,,,,,,,,,,80.0026,80.9456,80.9457,81.4362,81.4363,81.6305,81.6305,105,105,89.2899,space,7.5634,,89.29,97.8285,space,8.4303,,0,1,1,9,1,20,bars/single009.png,bars/mask006.png,,,,,,,,,,,,,,,,,,,,,,,,,,,,,,,,,,,,,,,,,,,,,,,,,,,,,,,,,,,,,,,,
,,5dd73f496ca7e76e32b1aa16,65af55ae96282ee5a07620ef,2024-01-23_07h00.13.160,bars,2023.2.3,Win32,12.00048002,657b66ea316d21385b68909f,,,,,,,,,,,97.8388,98.7981,98.7981,99.283,99.283,99.4771,99.4771,65,65,107.1087,space,7.5417,,107.1087,115.2237,space,8.017,,0,2,2,5,1,55,bars/single005.png,bars/mask008.png,,,,,,,,,,,,,,,,,,,,,,,,,,,,,,,,,,,,,,,,,,,,,,,,,,,,,,,,,,,,,,,,
,,5dd73f496ca7e76e32b1aa16,65af55ae96282ee5a07620ef,2024-01-23_07h00.13.160,bars,2023.2.3,Win32,12.00048002,657b66ea316d21385b68909f,,,,,,,,,,,115.2341,116.1749,116.175,116.6573,116.6574,116.8521,116.8522,90,90,126.6968,space,9.7547,,126.6968,131.4959,space,4.7032,,0,3,3,8,1,160,bars/single008.png,bars/mask004.png,,,,,,,,,,,,,,,,,,,,,,,,,,,,,,,,,,,,,,,,,,,,,,,,,,,,,,,,,,,,,,,,
,,5dd73f496ca7e76e32b1aa16,65af55ae96282ee5a07620ef,2024-01-23_07h00.13.160,bars,2023.2.3,Win32,12.00048002,657b66ea316d21385b68909f,,,,,,,,,,,131.5061,132.449,132.4491,132.9323,132.9325,133.1299,133.1299,69,69,141.078,space,7.8574,,141.078,153.769,space,12.5493,,0,4,4,7,1,45,bars/single007.png,bars/mask009.png,,,,,,,,,,,,,,,,,,,,,,,,,,,,,,,,,,,,,,,,,,,,,,,,,,,,,,,,,,,,,,,,
,,5dd73f496ca7e76e32b1aa16,65af55ae96282ee5a07620ef,2024-01-23_07h00.13.160,bars,2023.2.3,Win32,12.00048002,657b66ea316d21385b68909f,,,,,,,,,,,153.7812,154.8095,154.8096,155.3069,155.307,155.5019,155.5019,90,90,166.1132,space,10.5201,,166.1133,175.7325,space,9.5121,,0,5,5,2,1,145,bars/single002.png,bars/mask003.png,,,,,,,,,,,,,,,,,,,,,,,,,,,,,,,,,,,,,,,,,,,,,,,,,,,,,,,,,,,,,,,,
,,5dd73f496ca7e76e32b1aa16,65af55ae96282ee5a07620ef,2024-01-23_07h00.13.160,bars,2023.2.3,Win32,12.00048002,657b66ea316d21385b68909f,,,,,,,,,,,175.7425,176.6887,176.6888,177.1707,177.1707,177.3653,177.3653,89,89,190.5429,space,13.0857,,190.5429,194.2522,space,3.5995,,0,6,6,0,1,150,bars/single000.png,bars/mask006.png,,,,,,,,,,,,,,,,,,,,,,,,,,,,,,,,,,,,,,,,,,,,,,,,,,,,,,,,,,,,,,,,
,,5dd73f496ca7e76e32b1aa16,65af55ae96282ee5a07620ef,2024-01-23_07h00.13.160,bars,2023.2.3,Win32,12.00048002,657b66ea316d21385b68909f,,,,,,,,,,,194.2525,195.199,195.199,195.6899,195.6901,195.885,195.8851,91,91,207.9005,space,11.9237,,207.9006,216.0993,space,8.1021,,0,7,7,6,1,175,bars/single006.png,bars/mask005.png,,,,,,,,,,,,,,,,,,,,,,,,,,,,,,,,,,,,,,,,,,,,,,,,,,,,,,,,,,,,,,,,
,,5dd73f496ca7e76e32b1aa16,65af55ae96282ee5a07620ef,2024-01-23_07h00.13.160,bars,2023.2.3,Win32,12.00048002,657b66ea316d21385b68909f,,,,,,,,,,,216.109,217.108,217.1081,217.5966,217.5966,217.8069,217.8069,16,16,227.7873,space,9.8904,,227.7874,236.7354,space,8.852,,0,8,8,1,1,20,bars/single001.png,bars/mask006.png,,,,,,,,,,,,,,,,,,,,,,,,,,,,,,,,,,,,,,,,,,,,,,,,,,,,,,,,,,,,,,,,
,,5dd73f496ca7e76e32b1aa16,65af55ae96282ee5a07620ef,2024-01-23_07h00.13.160,bars,2023.2.3,Win32,12.00048002,657b66ea316d21385b68909f,,,,,,,,,,,236.7466,237.6846,237.6847,238.1708,238.1709,238.3631,238.3632,51,51,245.4052,space,6.9508,,245.4052,249.1689,space,3.6563,,0,9,9,3,1,20,bars/single003.png,bars/mask005.png,,,,,,,,,,,,,,,,,,,,,,,,,,,,,,,,,,,,,,,,,,,,,,,,,,,,,,,,,,,,,,,,
,,5dd73f496ca7e76e32b1aa16,65af55ae96282ee5a07620ef,2024-01-23_07h00.13.160,bars,2023.2.3,Win32,12.00048002,657b66ea316d21385b68909f,,,,,,,,,,,,,,,,,,,,,,,,,,,,,,,,,,,,,249.1796,283.675,space,34.4046,,,,,,,,,,,,,,,,,,,,,,,,,,,,,,,,,,,,,,,,,,,,,,,,,,,,,,,,,,,,
,,5dd73f496ca7e76e32b1aa16,65af55ae96282ee5a07620ef,2024-01-23_07h00.13.160,bars,2023.2.3,Win32,12.00048002,657b66ea316d21385b68909f,,,,,,,,,,,,,,,,,,,,,,,,,,,,,,,,,,,,,,,,,,283.6905,318.6226,left,34.8429,,318.6228,9,1,319.5731,0,0,0,0,1,9,1,9,2,,,,,,,,,,,,,,,,,,,,,,,,,,,,,,,,,,,,,,,,,
,,5dd73f496ca7e76e32b1aa16,65af55ae96282ee5a07620ef,2024-01-23_07h00.13.160,bars,2023.2.3,Win32,12.00048002,657b66ea316d21385b68909f,,,,,,,,,,,,,,,,,,,,,,,,,,,,,,,,,,,,,,,,,,319.5737,324.4861,right,4.8235,,324.4861,1,2,325.4462,0,1,1,1,1,10,0,10,1,,,,,,,,,,,,,,,,,,,,,,,,,,,,,,,,,,,,,,,,,
,,5dd73f496ca7e76e32b1aa16,65af55ae96282ee5a07620ef,2024-01-23_07h00.13.160,bars,2023.2.3,Win32,12.00048002,657b66ea316d21385b68909f,,,,,,,,,,,,,,,,,,,,,,,,,,,,,,,,,,,,,,,,,,325.4591,327.7034,right,2.1498,,327.7034,2,2,328.6476,0,2,2,2,1,10,2,10,2,,,,,,,,,,,,,,,,,,,,,,,,,,,,,,,,,,,,,,,,,
,,5dd73f496ca7e76e32b1aa16,65af55ae96282ee5a07620ef,2024-01-23_07h00.13.160,bars,2023.2.3,Win32,12.00048002,657b66ea316d21385b68909f,,,,,,,,,,,,,,,,,,,,,,,,,,,,,,,,,,,,,,,,,,328.648,331.4759,right,2.7403,,331.476,3,2,332.4227,0,3,3,3,1,8,4,7,3,,,,,,,,,,,,,,,,,,,,,,,,,,,,,,,,,,,,,,,,,
,,5dd73f496ca7e76e32b1aa16,65af55ae96282ee5a07620ef,2024-01-23_07h00.13.160,bars,2023.2.3,Win32,12.00048002,657b66ea316d21385b68909f,,,,,,,,,,,,,,,,,,,,,,,,,,,,,,,,,,,,,,,,,,332.4365,335.098,right,2.5659,,335.098,1,2,336.0604,0,4,4,4,1,6,2,5,1,,,,,,,,,,,,,,,,,,,,,,,,,,,,,,,,,,,,,,,,,
,,5dd73f496ca7e76e32b1aa16,65af55ae96282ee5a07620ef,2024-01-23_07h00.13.160,bars,2023.2.3,Win32,12.00048002,657b66ea316d21385b68909f,,,,,,,,,,,,,,,,,,,,,,,,,,,,,,,,,,,,,,,,,,336.0707,338.7822,right,2.6174,,338.7822,4,2,339.7296,0,5,5,5,1,4,4,4,4,,,,,,,,,,,,,,,,,,,,,,,,,,,,,,,,,,,,,,,,,
,,5dd73f496ca7e76e32b1aa16,65af55ae96282ee5a07620ef,2024-01-23_07h00.13.160,bars,2023.2.3,Win32,12.00048002,657b66ea316d21385b68909f,,,,,,,,,,,,,,,,,,,,,,,,,,,,,,,,,,,,,,,,,,339.73,340.6981,right,0.8802,,340.6981,2,2,341.6448,0,6,6,6,1,2,2,1,2,,,,,,,,,,,,,,,,,,,,,,,,,,,,,,,,,,,,,,,,,
,,5dd73f496ca7e76e32b1aa16,65af55ae96282ee5a07620ef,2024-01-23_07h00.13.160,bars,2023.2.3,Win32,12.00048002,657b66ea316d21385b68909f,,,,,,,,,,,,,,,,,,,,,,,,,,,,,,,,,,,,,,,,,,341.6452,342.3429,right,0.6057,,342.343,1,2,343.3042,0,7,7,7,1,0,0,0,1,,,,,,,,,,,,,,,,,,,,,,,,,,,,,,,,,,,,,,,,,
,,5dd73f496ca7e76e32b1aa16,65af55ae96282ee5a07620ef,2024-01-23_07h00.13.160,bars,2023.2.3,Win32,12.00048002,657b66ea316d21385b68909f,,,,,,,,,,,,,,,,,,,,,,,,,,,,,,,,,,,,,,,,,,343.3047,344.0841,right,0.6914,,344.0842,0,2,345.0289,0,8,8,8,1,0,2,1,0,,,,,,,,,,,,,,,,,,,,,,,,,,,,,,,,,,,,,,,,,
,,5dd73f496ca7e76e32b1aa16,65af55ae96282ee5a07620ef,2024-01-23_07h00.13.160,bars,2023.2.3,Win32,12.00048002,657b66ea316d21385b68909f,,,,,,,,,,,,,,,,,,,,,,,,,,,,,,,,,,,,,,,,,,345.0294,345.8109,right,0.689,,345.811,3,2,346.7578,0,9,9,9,1,2,4,2,3,,,,,,,,,,,,,,,,,,,,,,,,,,,,,,,,,,,,,,,,,
,,5dd73f496ca7e76e32b1aa16,65af55ae96282ee5a07620ef,2024-01-23_07h00.13.160,bars,2023.2.3,Win32,12.00048002,657b66ea316d21385b68909f,,,,,,,,,,,,,,,,,,,,,,,,,,,,,,,,,,,,,,,,,,346.7581,347.3477,right,0.5011,,347.3477,3,2,348.2908,0,10,10,10,1,0,2,0,3,,,,,,,,,,,,,,,,,,,,,,,,,,,,,,,,,,,,,,,,,
,,5dd73f496ca7e76e32b1aa16,65af55ae96282ee5a07620ef,2024-01-23_07h00.13.160,bars,2023.2.3,Win32,12.00048002,657b66ea316d21385b68909f,,,,,,,,,,,,,,,,,,,,,,,,,,,,,,,,,,,,,,,,,,348.2914,348.8749,right,0.4952,,348.875,3,2,349.8178,0,11,11,11,1,0,4,0,3,,,,,,,,,,,,,,,,,,,,,,,,,,,,,,,,,,,,,,,,,
,,5dd73f496ca7e76e32b1aa16,65af55ae96282ee5a07620ef,2024-01-23_07h00.13.160,bars,2023.2.3,Win32,12.00048002,657b66ea316d21385b68909f,,,,,,,,,,,,,,,,,,,,,,,,,,,,,,,,,,,,,,,,,,349.8182,350.3081,right,0.4013,,350.3081,6,2,351.2662,0,12,12,12,1,2,6,1,6,,,,,,,,,,,,,,,,,,,,,,,,,,,,,,,,,,,,,,,,,
,,5dd73f496ca7e76e32b1aa16,65af55ae96282ee5a07620ef,2024-01-23_07h00.13.160,bars,2023.2.3,Win32,12.00048002,657b66ea316d21385b68909f,,,,,,,,,,,,,,,,,,,,,,,,,,,,,,,,,,,,,,,,,,351.2664,351.8601,right,0.5043,,351.8602,3,2,352.8124,0,13,13,13,1,0,4,1,3,,,,,,,,,,,,,,,,,,,,,,,,,,,,,,,,,,,,,,,,,
,,5dd73f496ca7e76e32b1aa16,65af55ae96282ee5a07620ef,2024-01-23_07h00.13.160,bars,2023.2.3,Win32,12.00048002,657b66ea316d21385b68909f,,,,,,,,,,,,,,,,,,,,,,,,,,,,,,,,,,,,,,,,,,352.8128,353.3935,right,0.4928,,353.3936,7,2,354.3402,0,14,14,14,1,2,6,2,7,,,,,,,,,,,,,,,,,,,,,,,,,,,,,,,,,,,,,,,,,
,,5dd73f496ca7e76e32b1aa16,65af55ae96282ee5a07620ef,2024-01-23_07h00.13.160,bars,2023.2.3,Win32,12.00048002,657b66ea316d21385b68909f,,,,,,,,,,,,,,,,,,,,,,,,,,,,,,,,,,,,,,,,,,354.3406,354.827,right,0.3974,,354.827,9,2,355.7803,0,15,15,15,1,4,8,3,9,,,,,,,,,,,,,,,,,,,,,,,,,,,,,,,,,,,,,,,,,
,,5dd73f496ca7e76e32b1aa16,65af55ae96282ee5a07620ef,2024-01-23_07h00.13.160,bars,2023.2.3,Win32,12.00048002,657b66ea316d21385b68909f,,,,,,,,,,,,,,,,,,,,,,,,,,,,,,,,,,,,,,,,,,355.7808,356.2037,right,0.3319,,356.2038,7,2,357.1826,0,16,16,16,1,6,6,7,7,,,,,,,,,,,,,,,,,,,,,,,,,,,,,,,,,,,,,,,,,
,,5dd73f496ca7e76e32b1aa16,65af55ae96282ee5a07620ef,2024-01-23_07h00.13.160,bars,2023.2.3,Win32,12.00048002,657b66ea316d21385b68909f,,,,,,,,,,,,,,,,,,,,,,,,,,,,,,,,,,,,,,,,,,357.1831,359.2429,right,1.9697,,359.243,5,2,360.1965,0,17,17,17,1,8,4,9,5,,,,,,,,,,,,,,,,,,,,,,,,,,,,,,,,,,,,,,,,,
,,5dd73f496ca7e76e32b1aa16,65af55ae96282ee5a07620ef,2024-01-23_07h00.13.160,bars,2023.2.3,Win32,12.00048002,657b66ea316d21385b68909f,,,,,,,,,,,,,,,,,,,,,,,,,,,,,,,,,,,,,,,,,,360.2094,361.4804,left,1.188,,361.4804,5,1,362.4381,0,18,18,18,1,6,2,5,1,,,,,,,,,,,,,,,,,,,,,,,,,,,,,,,,,,,,,,,,,
,,5dd73f496ca7e76e32b1aa16,65af55ae96282ee5a07620ef,2024-01-23_07h00.13.160,bars,2023.2.3,Win32,12.00048002,657b66ea316d21385b68909f,,,,,,,,,,,,,,,,,,,,,,,,,,,,,,,,,,,,,,,,,,362.4385,362.9425,left,0.4155,,362.9425,7,1,363.8866,0,19,19,19,1,8,0,7,0,,,,,,,,,,,,,,,,,,,,,,,,,,,,,,,,,,,,,,,,,
,,5dd73f496ca7e76e32b1aa16,65af55ae96282ee5a07620ef,2024-01-23_07h00.13.160,bars,2023.2.3,Win32,12.00048002,657b66ea316d21385b68909f,,,,,,,,,,,,,,,,,,,,,,,,,,,,,,,,,,,,,,,,,,,,,,,,,,,,,,,,,,,,363.8872,385.1593,space,21.1781,,,,,,,,,,,,,,,,,,,,,,,,,,,,,,,,,,,,,
,,5dd73f496ca7e76e32b1aa16,65af55ae96282ee5a07620ef,2024-01-23_07h00.13.160,bars,2023.2.3,Win32,12.00048002,657b66ea316d21385b68909f,,,,,,,,,,,386.7263,387.6786,,,388.1629,388.3577,,90,90,,,,,,,,,,,,,,,,bars/000.png,bars/mask001.png,,,,,,,,,,,,0,1,,,,,,,10,7,10,7,,,,,,385.1749,386.7224,space,1.4503,,387.6788,388.1628,388.3581,399.8524,space,11.4005,,399.8526,50,55,400.8078,400.8079,409.4022,space,8.4876,,0,0,0,0,1,40,145,,,,,,,,
,,5dd73f496ca7e76e32b1aa16,65af55ae96282ee5a07620ef,2024-01-23_07h00.13.160,bars,2023.2.3,Win32,12.00048002,657b66ea316d21385b68909f,,,,,,,,,,,409.4124,410.4163,,,410.8989,411.0912,,128,128,,,,,,,,,,,,,,,,bars/047.png,bars/mask004.png,,,,,,,,,,,,0,2,,,,,,,8,9,8,8,,,,,,,,,,,410.4163,410.8988,411.0913,421.014,space,9.8322,,421.0141,67,58,421.9583,421.9583,432.0296,space,9.969,,0,1,1,1,1,15,70,,,,,,,,
,,5dd73f496ca7e76e32b1aa16,65af55ae96282ee5a07620ef,2024-01-23_07h00.13.160,bars,2023.2.3,Win32,12.00048002,657b66ea316d21385b68909f,,,,,,,,,,,432.0395,432.9915,,,433.4746,433.6744,,67,67,,,,,,,,,,,,,,,,bars/026.png,bars/mask008.png,,,,,,,,,,,,3,2,,,,,,,6,7,4,7,,,,,,,,,,,432.9916,433.4745,433.6745,440.4598,space,6.6935,,440.4599,32,18,441.4191,441.4192,447.6221,space,6.1024,,0,2,2,2,1,35,85,,,,,,,,
,,5dd73f496ca7e76e32b1aa16,65af55ae96282ee5a07620ef,2024-01-23_07h00.13.160,bars,2023.2.3,Win32,12.00048002,657b66ea316d21385b68909f,,,,,,,,,,,447.6352,448.5861,,,449.0689,449.2753,,73,73,,,,,,,,,,,,,,,,bars/036.png,bars/mask001.png,,,,,,,,,,,,0,2,,,,,,,8,9,8,10,,,,,,,,,,,448.5862,449.0688,449.2753,461.6203,space,12.2543,,461.6203,72,53,462.563,462.5631,472.6681,space,10.0079,,0,3,3,3,1,145,20,,,,,,,,
,,5dd73f496ca7e76e32b1aa16,65af55ae96282ee5a07620ef,2024-01-23_07h00.13.160,bars,2023.2.3,Win32,12.00048002,657b66ea316d21385b68909f,,,,,,,,,,,472.6781,473.6563,,,474.1402,474.3334,,18,18,,,,,,,,,,,,,,,,bars/043.png,bars/mask006.png,,,,,,,,,,,,5,1,,,,,,,10,7,9,7,,,,,,,,,,,473.6564,474.1402,474.3334,482.1216,space,7.6969,,482.1216,12,68,483.0809,483.0809,490.1899,space,7.0105,,0,4,4,4,1,30,130,,,,,,,,
,,5dd73f496ca7e76e32b1aa16,65af55ae96282ee5a07620ef,2024-01-23_07h00.13.160,bars,2023.2.3,Win32,12.00048002,657b66ea316d21385b68909f,,,,,,,,,,,490.2004,491.1388,,,491.6222,491.8203,,24,24,,,,,,,,,,,,,,,,bars/001.png,bars/mask000.png,,,,,,,,,,,,0,2,,,,,,,8,5,8,7,,,,,,,,,,,491.1389,491.6221,491.8203,495.5424,space,3.6325,,495.5424,74,61,496.5002,496.5002,501.2527,space,4.6531,,0,5,5,5,1,130,85,,,,,,,,
,,5dd73f496ca7e76e32b1aa16,65af55ae96282ee5a07620ef,2024-01-23_07h00.13.160,bars,2023.2.3,Win32,12.00048002,657b66ea316d21385b68909f,,,,,,,,,,,501.2625,502.2003,,,502.686,502.8907,,62,62,,,,,,,,,,,,,,,,bars/033.png,bars/mask007.png,,,,,,,,,,,,0,1,,,,,,,10,3,10,3,,,,,,,,,,,502.2004,502.686,502.8907,507.1222,space,4.1341,,507.1222,37,87,508.0641,508.0642,512.2185,space,4.0549,,0,6,6,6,1,25,155,,,,,,,,
,,5dd73f496ca7e76e32b1aa16,65af55ae96282ee5a07620ef,2024-01-23_07h00.13.160,bars,2023.2.3,Win32,12.00048002,657b66ea316d21385b68909f,,,,,,,,,,,512.2317,513.1891,,,513.6721,513.8651,,16,16,,,,,,,,,,,,,,,,bars/012.png,bars/mask001.png,,,,,,,,,,,,2,2,,,,,,,8,5,6,2,,,,,,,,,,,513.1892,513.6721,513.8652,519.1538,space,5.1975,,519.1538,74,1,520.1035,520.1035,529.5616,space,9.3557,,0,7,7,7,1,90,15,,,,,,,,
,,5dd73f496ca7e76e32b1aa16,65af55ae96282ee5a07620ef,2024-01-23_07h00.13.160,bars,2023.2.3,Win32,12.00048002,657b66ea316d21385b68909f,,,,,,,,,,,529.5756,530.5848,,,531.0267,531.2203,,92,92,,,,,,,,,,,,,,,,bars/024.png,bars/mask003.png,,,,,,,,,,,,1,1,,,,,,,10,3,10,2,,,,,,,,,,,530.585,531.0267,531.2204,535.627,space,4.3163,,535.6271,28,78,536.5786,536.5787,541.635,space,4.9534,,0,8,8,8,1,120,170,,,,,,,,
,,5dd73f496ca7e76e32b1aa16,65af55ae96282ee5a07620ef,2024-01-23_07h00.13.160,bars,2023.2.3,Win32,12.00048002,657b66ea316d21385b68909f,,,,,,,,,,,541.6447,542.5909,,,543.0894,543.2813,,110,110,,,,,,,,,,,,,,,,bars/018.png,bars/mask008.png,,,,,,,,,,,,1,2,,,,,,,10,1,10,3,,,,,,,,,,,542.5909,543.0894,543.2814,547.4739,space,4.1027,,547.474,40,20,548.4451,548.4452,553.3943,space,4.8466,,0,9,9,9,1,150,90,,,,,,,,
,,5dd73f496ca7e76e32b1aa16,65af55ae96282ee5a07620ef,2024-01-23_07h00.13.160,bars,2023.2.3,Win32,12.00048002,657b66ea316d21385b68909f,,,,,,,,,,,553.4043,554.3445,,,554.8414,555.0339,,112,112,,,,,,,,,,,,,,,,bars/000.png,bars/mask005.png,,,,,,,,,,,,0,2,,,,,,,8,0,9,0,,,,,,,,,,,554.3445,554.8413,555.034,559.8255,space,4.699,,559.8255,72,33,560.7768,560.7769,564.8075,space,3.9332,,0,10,10,10,1,40,145,,,,,,,,
,,5dd73f496ca7e76e32b1aa16,65af55ae96282ee5a07620ef,2024-01-23_07h00.13.160,bars,2023.2.3,Win32,12.00048002,657b66ea316d21385b68909f,,,,,,,,,,,564.8178,565.772,,,566.2687,566.4732,,130,130,,,,,,,,,,,,,,,,bars/017.png,bars/mask008.png,,,,,,,,,,,,4,1,,,,,,,6,2,7,2,,,,,,,,,,,565.7721,566.2686,566.4732,572.6838,space,6.1119,,572.6839,15,85,573.6302,573.6303,577.4717,space,3.7388,,0,11,11,11,1,145,45,,,,,,,,
,,5dd73f496ca7e76e32b1aa16,65af55ae96282ee5a07620ef,2024-01-23_07h00.13.160,bars,2023.2.3,Win32,12.00048002,657b66ea316d21385b68909f,,,,,,,,,,,577.4818,578.479,,,578.9632,579.1556,,131,131,,,,,,,,,,,,,,,,bars/036.png,bars/mask007.png,,,,,,,,,,,,5,1,,,,,,,8,0,9,0,,,,,,,,,,,578.479,578.9632,579.1557,591.564,space,12.3173,,591.564,14,69,592.5271,592.5271,595.4679,space,2.832,,0,12,12,12,1,145,20,,,,,,,,
,,5dd73f496ca7e76e32b1aa16,65af55ae96282ee5a07620ef,2024-01-23_07h00.13.160,bars,2023.2.3,Win32,12.00048002,657b66ea316d21385b68909f,,,,,,,,,,,595.4682,596.415,,,596.9003,597.0935,,136,136,,,,,,,,,,,,,,,,bars/021.png,bars/mask009.png,,,,,,,,,,,,3,1,,,,,,,10,2,9,0,,,,,,,,,,,596.415,596.9003,597.0935,613.0559,space,15.8714,,613.0559,19,66,614.0031,614.0031,617.6294,space,3.5168,,0,13,13,13,1,155,70,,,,,,,,
,,5dd73f496ca7e76e32b1aa16,65af55ae96282ee5a07620ef,2024-01-23_07h00.13.160,bars,2023.2.3,Win32,12.00048002,657b66ea316d21385b68909f,,,,,,,,,,,617.6297,618.5742,,,619.0566,619.266,,126,126,,,,,,,,,,,,,,,,bars/046.png,bars/mask002.png,,,,,,,,,,,,0,1,,,,,,,8,4,10,6,,,,,,,,,,,618.5742,619.0566,619.266,634.2217,space,14.8645,,634.2218,29,41,635.1666,635.1666,639.0897,space,3.8211,,0,14,14,14,1,155,85,,,,,,,,
,,5dd73f496ca7e76e32b1aa16,65af55ae96282ee5a07620ef,2024-01-23_07h00.13.160,bars,2023.2.3,Win32,12.00048002,657b66ea316d21385b68909f,,,,,,,,,,,639.0999,640.0437,,,640.5272,640.7201,,161,-19,,,,,,,,,,,,,,,,bars/023.png,bars/mask000.png,,,,,,,,,,,,0,1,,,,,,,10,2,10,3,,,,,,,,,,,640.0438,640.5272,640.7201,650.25,space,9.4386,,650.2501,39,46,651.2001,651.2001,658.8488,space,7.5522,,0,15,15,15,1,20,115,,,,,,,,
,,5dd73f496ca7e76e32b1aa16,65af55ae96282ee5a07620ef,2024-01-23_07h00.13.160,bars,2023.2.3,Win32,12.00048002,657b66ea316d21385b68909f,,,,,,,,,,,658.8591,659.7991,,,660.2844,660.4781,,139,139,,,,,,,,,,,,,,,,bars/022.png,bars/mask002.png,,,,,,,,,,,,0,1,,,,,,,8,0,7,0,,,,,,,,,,,659.7992,660.2843,660.4781,675.9862,space,15.4181,,675.9864,44,61,676.9304,676.9305,681.9665,space,4.9244,,0,16,16,16,1,95,20,,,,,,,,
,,5dd73f496ca7e76e32b1aa16,65af55ae96282ee5a07620ef,2024-01-23_07h00.13.160,bars,2023.2.3,Win32,12.00048002,657b66ea316d21385b68909f,,,,,,,,,,,681.9763,682.9254,,,683.4051,683.6002,,56,56,,,,,,,,,,,,,,,,bars/043.png,bars/mask000.png,,,,,,,,,,,,1,1,,,,,,,10,0,10,0,,,,,,,,,,,682.9255,683.4051,683.6002,689.0326,space,5.3396,,689.0326,26,74,690.0454,690.0454,694.1925,space,4.0504,,0,17,17,17,1,30,130,,,,,,,,
,,5dd73f496ca7e76e32b1aa16,65af55ae96282ee5a07620ef,2024-01-23_07h00.13.160,bars,2023.2.3,Win32,12.00048002,657b66ea316d21385b68909f,,,,,,,,,,,694.2026,695.2323,,,695.7151,695.9071,,31,31,,,,,,,,,,,,,,,,bars/010.png,bars/mask005.png,,,,,,,,,,,,1,2,,,,,,,10,2,9,4,,,,,,,,,,,695.2323,695.7151,695.9071,700.0508,space,4.0523,,700.0509,46,24,701.0253,701.0254,704.6012,space,3.4704,,0,18,18,18,1,165,55,,,,,,,,
,,5dd73f496ca7e76e32b1aa16,65af55ae96282ee5a07620ef,2024-01-23_07h00.13.160,bars,2023.2.3,Win32,12.00048002,657b66ea316d21385b68909f,,,,,,,,,,,704.6119,705.6435,,,706.1422,706.3348,,52,52,,,,,,,,,,,,,,,,bars/005.png,bars/mask006.png,,,,,,,,,,,,0,1,,,,,,,10,4,10,4,,,,,,,,,,,705.6435,706.1422,706.3348,717.5507,space,11.1252,,717.5507,42,88,718.4992,718.4992,722.2408,space,3.6186,,0,19,19,19,1,10,140,,,,,,,,
,,5dd73f496ca7e76e32b1aa16,65af55ae96282ee5a07620ef,2024-01-23_07h00.13.160,bars,2023.2.3,Win32,12.00048002,657b66ea316d21385b68909f,,,,,,,,,,,722.2504,723.2033,,,723.7067,723.9052,,25,25,,,,,,,,,,,,,,,,bars/040.png,bars/mask003.png,,,,,,,,,,,,2,2,,,,,,,10,6,9,6,,,,,,,,,,,723.2033,723.7067,723.9053,732.5399,space,8.486,,732.54,65,20,733.4849,733.485,746.0318,space,12.4461,,0,20,20,20,1,140,5,,,,,,,,
,,5dd73f496ca7e76e32b1aa16,65af55ae96282ee5a07620ef,2024-01-23_07h00.13.160,bars,2023.2.3,Win32,12.00048002,657b66ea316d21385b68909f,,,,,,,,,,,746.0543,747.007,,,747.4897,747.6833,,9,9,,,,,,,,,,,,,,,,bars/013.png,bars/mask005.png,,,,,,,,,,,,2,2,,,,,,,8,4,7,2,,,,,,,,,,,747.007,747.4896,747.6833,759.5642,space,11.79,,759.5642,66,1,760.5542,760.5543,767.1403,space,6.4851,,0,21,21,21,1,75,10,,,,,,,,
,,5dd73f496ca7e76e32b1aa16,65af55ae96282ee5a07620ef,2024-01-23_07h00.13.160,bars,2023.2.3,Win32,12.00048002,657b66ea316d21385b68909f,,,,,,,,,,,767.1555,768.1213,,,768.6044,768.7979,,43,43,,,,,,,,,,,,,,,,bars/045.png,bars/mask008.png,,,,,,,,,,,,0,2,,,,,,,10,6,9,8,,,,,,,,,,,768.1214,768.6043,768.7979,773.506,space,4.6176,,773.5061,57,33,774.4494,774.4494,780.1832,space,5.6363,0.0006,0,22,22,22,1,100,10,,,,,,,,
,,5dd73f496ca7e76e32b1aa16,65af55ae96282ee5a07620ef,2024-01-23_07h00.13.160,bars,2023.2.3,Win32,12.00048002,657b66ea316d21385b68909f,,,,,,,,,,,780.1997,781.1493,,,781.6359,781.8295,,12,192,,,,,,,,,,,,,,,,bars/049.png,bars/mask007.png,,,,,,,,,,,,0,1,,,,,,,10,4,10,2,,,,,,,,,,,781.1493,781.6358,781.8295,790.3264,space,8.4068,,790.3265,32,77,791.2709,791.271,796.6298,space,5.2603,,0,23,23,23,1,160,115,,,,,,,,
,,5dd73f496ca7e76e32b1aa16,65af55ae96282ee5a07620ef,2024-01-23_07h00.13.160,bars,2023.2.3,Win32,12.00048002,657b66ea316d21385b68909f,,,,,,,,,,,796.6402,797.5797,,,798.0796,798.2807,,30,210,,,,,,,,,,,,,,,,bars/017.png,bars/mask005.png,,,,,,,,,,,,1,2,,,,,,,10,2,10,2,,,,,,,,,,,797.5798,798.0796,798.2808,805.3721,space,7.0012,,805.3721,65,15,806.3184,806.3185,815.6053,space,9.1727,,0,24,24,24,1,145,45,,,,,,,,
,,5dd73f496ca7e76e32b1aa16,65af55ae96282ee5a07620ef,2024-01-23_07h00.13.160,bars,2023.2.3,Win32,12.00048002,657b66ea316d21385b68909f,,,,,,,,,,,815.6159,816.5669,,,817.0659,817.2608,,32,32,,,,,,,,,,,,,,,,bars/003.png,bars/mask006.png,,,,,,,,,,,,5,1,,,,,,,8,4,7,4,,,,,,,,,,,816.5669,817.0658,817.2608,818.8289,space,1.4776,,818.829,7,72,819.7856,819.7857,824.084,space,4.2047,,0,25,25,25,1,25,140,,,,,,,,
,,5dd73f496ca7e76e32b1aa16,65af55ae96282ee5a07620ef,2024-01-23_07h00.13.160,bars,2023.2.3,Win32,12.00048002,657b66ea316d21385b68909f,,,,,,,,,,,824.1062,825.0853,,,825.5801,825.7761,,23,23,,,,,,,,,,,,,,,,bars/036.png,bars/mask000.png,,,,,,,,,,,,5,2,,,,,,,10,6,10,6,,,,,,,,,,,825.0853,825.58,825.7762,845.9854,space,20.1099,,845.9854,58,3,846.9252,846.9252,850.5315,space,3.5074,,0,26,26,26,1,145,20,,,,,,,,
,,5dd73f496ca7e76e32b1aa16,65af55ae96282ee5a07620ef,2024-01-23_07h00.13.160,bars,2023.2.3,Win32,12.00048002,657b66ea316d21385b68909f,,,,,,,,,,,850.5318,851.4822,,,851.9801,852.1736,,17,197,,,,,,,,,,,,,,,,bars/029.png,bars/mask000.png,,,,,,,,,,,,1,2,,,,,,,10,8,10,8,,,,,,,,,,,851.4822,851.98,852.1736,863.1301,space,10.8662,,863.1302,73,28,864.0818,864.0818,871.6223,space,7.4435,,0,27,27,27,1,90,45,,,,,,,,
,,5dd73f496ca7e76e32b1aa16,65af55ae96282ee5a07620ef,2024-01-23_07h00.13.160,bars,2023.2.3,Win32,12.00048002,657b66ea316d21385b68909f,,,,,,,,,,,871.6356,872.57,,,873.0513,873.2598,,49,49,,,,,,,,,,,,,,,,bars/037.png,bars/mask009.png,,,,,,,,,,,,0,2,,,,,,,8,10,10,9,,,,,,,,,,,872.57,873.0512,873.2599,874.8353,space,1.4844,,874.8353,79,56,875.7939,875.7939,884.0665,space,8.179,,0,28,28,28,1,150,105,,,,,,,,
,,5dd73f496ca7e76e32b1aa16,65af55ae96282ee5a07620ef,2024-01-23_07h00.13.160,bars,2023.2.3,Win32,12.00048002,657b66ea316d21385b68909f,,,,,,,,,,,884.0809,884.9898,,,885.4773,885.6686,,114,114,,,,,,,,,,,,,,,,bars/045.png,bars/mask003.png,,,,,,,,,,,,5,1,,,,,,,10,10,10,10,,,,,,,,,,,884.9898,885.4773,885.6687,898.6286,space,12.8672,,898.6287,14,76,899.6039,899.604,903.3378,space,3.6207,,0,29,29,29,1,100,10,,,,,,,,
,,5dd73f496ca7e76e32b1aa16,65af55ae96282ee5a07620ef,2024-01-23_07h00.13.160,bars,2023.2.3,Win32,12.00048002,657b66ea316d21385b68909f,,,,,,,,,,,903.3502,904.3208,,,904.8172,905.0112,,110,110,,,,,,,,,,,,,,,,bars/018.png,bars/mask008.png,,,,,,,,,,,,3,2,,,,,,,8,10,6,10,,,,,,,,,,,904.3208,904.8171,905.0113,908.259,space,3.1567,,908.2591,40,20,909.2063,909.2063,912.7221,space,3.4145,,0,30,30,30,1,150,90,,,,,,,,
,,5dd73f496ca7e76e32b1aa16,65af55ae96282ee5a07620ef,2024-01-23_07h00.13.160,bars,2023.2.3,Win32,12.00048002,657b66ea316d21385b68909f,,,,,,,,,,,912.7225,913.6652,,,914.1472,914.3468,,91,91,,,,,,,,,,,,,,,,bars/044.png,bars/mask009.png,,,,,,,,,,,,4,1,,,,,,,6,8,8,9,,,,,,,,,,,913.6652,914.1472,914.3468,927.0674,space,12.6237,,927.0675,16,64,928.0141,928.0141,934.3051,space,6.1782,,0,31,31,31,1,75,155,,,,,,,,
,,5dd73f496ca7e76e32b1aa16,65af55ae96282ee5a07620ef,2024-01-23_07h00.13.160,bars,2023.2.3,Win32,12.00048002,657b66ea316d21385b68909f,,,,,,,,,,,934.3148,935.255,,,935.7367,935.9311,,80,80,,,,,,,,,,,,,,,,bars/015.png,bars/mask006.png,,,,,,,,,,,,0,1,,,,,,,4,10,4,10,,,,,,,,,,,935.255,935.7367,935.9311,941.6644,space,5.6406,,941.6644,30,80,942.6242,942.6243,949.246,space,6.5225,,0,32,32,32,1,110,160,,,,,,,,
,,5dd73f496ca7e76e32b1aa16,65af55ae96282ee5a07620ef,2024-01-23_07h00.13.160,bars,2023.2.3,Win32,12.00048002,657b66ea316d21385b68909f,,,,,,,,,,,949.2563,950.2081,,,950.6899,950.8839,,118,118,,,,,,,,,,,,,,,,bars/025.png,bars/mask003.png,,,,,,,,,,,,1,1,,,,,,,2,8,2,8,,,,,,,,,,,950.2081,950.6899,950.884,965.579,space,14.6048,,965.5791,13,78,966.5232,966.5233,979.6312,space,13.0073,,0,33,33,33,1,105,40,,,,,,,,
,,5dd73f496ca7e76e32b1aa16,65af55ae96282ee5a07620ef,2024-01-23_07h00.13.160,bars,2023.2.3,Win32,12.00048002,657b66ea316d21385b68909f,,,,,,,,,,,979.6412,980.6708,,,981.1064,981.2985,,110,110,,,,,,,,,,,,,,,,bars/046.png,bars/mask006.png,,,,,,,,,,,,1,2,,,,,,,4,6,5,6,,,,,,,,,,,980.6708,981.1063,981.2985,988.1009,space,6.7116,,988.1009,45,25,989.0833,989.0834,995.8497,space,6.6504,,0,34,34,34,1,155,85,,,,,,,,
,,5dd73f496ca7e76e32b1aa16,65af55ae96282ee5a07620ef,2024-01-23_07h00.13.160,bars,2023.2.3,Win32,12.00048002,657b66ea316d21385b68909f,,,,,,,,,,,995.8636,996.8012,,,997.283,997.4753,,71,71,,,,,,,,,,,,,,,,bars/033.png,bars/mask000.png,,,,,,,,,,,,0,1,,,,,,,2,4,2,4,,,,,,,,,,,996.8012,997.2829,997.4753,1003.4525,space,5.8864,,1003.4525,46,84,1004.4662,1004.4663,1009.7467,space,5.1782,,0,35,35,35,1,25,155,,,,,,,,
,,5dd73f496ca7e76e32b1aa16,65af55ae96282ee5a07620ef,2024-01-23_07h00.13.160,bars,2023.2.3,Win32,12.00048002,657b66ea316d21385b68909f,,,,,,,,,,,1009.757,1010.737,,,1011.22,1011.4146,,26,26,,,,,,,,,,,,,,,,bars/000.png,bars/mask001.png,,,,,,,,,,,,2,1,,,,,,,4,2,4,1,,,,,,,,,,,1010.7371,1011.22,1011.4146,1020.8889,space,9.3822,,1020.889,14,61,1021.8497,1021.8497,1026.8214,space,4.8687,,0,36,36,36,1,40,145,,,,,,,,
,,5dd73f496ca7e76e32b1aa16,65af55ae96282ee5a07620ef,2024-01-23_07h00.13.160,bars,2023.2.3,Win32,12.00048002,657b66ea316d21385b68909f,,,,,,,,,,,1026.8317,1027.771,,,1028.2547,1028.4499,,20,200,,,,,,,,,,,,,,,,bars/042.png,bars/mask002.png,,,,,,,,,,,,0,2,,,,,,,2,0,0,0,,,,,,,,,,,1027.7711,1028.2547,1028.45,1041.1856,space,12.6455,,1041.1856,55,55,1042.1311,1042.1311,1049.5142,space,7.2827,,0,37,37,37,1,145,75,,,,,,,,
,,5dd73f496ca7e76e32b1aa16,65af55ae96282ee5a07620ef,2024-01-23_07h00.13.160,bars,2023.2.3,Win32,12.00048002,657b66ea316d21385b68909f,,,,,,,,,,,1049.5303,1050.4731,,,1050.9753,1051.1791,,71,71,,,,,,,,,,,,,,,,bars/004.png,bars/mask008.png,,,,,,,,,,,,0,1,,,,,,,0,0,0,2,,,,,,,,,,,1050.4732,1050.9752,1051.1793,1055.7887,space,4.518,,1055.7888,46,54,1056.7276,1056.7276,1061.6607,space,4.8302,,0,38,38,38,1,25,125,,,,,,,,
,,5dd73f496ca7e76e32b1aa16,65af55ae96282ee5a07620ef,2024-01-23_07h00.13.160,bars,2023.2.3,Win32,12.00048002,657b66ea316d21385b68909f,,,,,,,,,,,1061.6718,1062.6111,,,1063.0925,1063.2849,,22,22,,,,,,,,,,,,,,,,bars/028.png,bars/mask001.png,,,,,,,,,,,,0,1,,,,,,,2,0,2,0,,,,,,,,,,,1062.6111,1063.0925,1063.2849,1068.629,space,5.2538,,1068.629,23,82,1069.6166,1069.6167,1079.0911,space,9.3757,,0,39,39,39,1,45,120,,,,,,,,
,,5dd73f496ca7e76e32b1aa16,65af55ae96282ee5a07620ef,2024-01-23_07h00.13.160,bars,2023.2.3,Win32,12.00048002,657b66ea316d21385b68909f,,,,,,,,,,,1079.1013,1080.0442,,,1080.5233,1080.7167,,27,207,,,,,,,,,,,,,,,,bars/010.png,bars/mask007.png,,,,,,,,,,,,0,2,,,,,,,4,0,3,0,,,,,,,,,,,1080.0443,1080.5233,1080.7167,1091.3956,space,10.5882,,1091.3956,42,28,1092.3389,1092.339,1098.0823,space,5.645,,0,40,40,40,1,165,55,,,,,,,,
,,5dd73f496ca7e76e32b1aa16,65af55ae96282ee5a07620ef,2024-01-23_07h00.13.160,bars,2023.2.3,Win32,12.00048002,657b66ea316d21385b68909f,,,,,,,,,,,1098.0926,1099.0296,,,1099.5442,1099.7369,,48,48,,,,,,,,,,,,,,,,bars/038.png,bars/mask006.png,,,,,,,,,,,,0,2,,,,,,,2,0,3,0,,,,,,,,,,,1099.0296,1099.5441,1099.737,1107.7902,space,7.9628,0.0005,1107.7902,63,22,1108.7322,1108.7323,1114.0697,space,5.2408,,0,41,41,41,1,165,70,,,,,,,,
,,5dd73f496ca7e76e32b1aa16,65af55ae96282ee5a07620ef,2024-01-23_07h00.13.160,bars,2023.2.3,Win32,12.00048002,657b66ea316d21385b68909f,,,,,,,,,,,1114.0824,1115.0207,,,1115.5031,1115.6951,,63,63,,,,,,,,,,,,,,,,bars/034.png,bars/mask000.png,,,,,,,,,,,,0,2,,,,,,,0,0,1,0,,,,,,,,,,,1115.0207,1115.5031,1115.6952,1126.0802,space,10.294,,1126.0802,62,2,1127.0216,1127.0217,1135.2683,space,8.146,,0,42,42,42,1,125,65,,,,,,,,
,,5dd73f496ca7e76e32b1aa16,65af55ae96282ee5a07620ef,2024-01-23_07h00.13.160,bars,2023.2.3,Win32,12.00048002,657b66ea316d21385b68909f,,,,,,,,,,,1135.2816,1136.3101,,,1136.7911,1136.9864,,47,47,,,,,,,,,,,,,,,,bars/046.png,bars/mask004.png,,,,,,,,,,,,0,2,,,,,,,2,2,1,2,,,,,,,,,,,1136.3102,1136.791,1136.9864,1138.5669,space,1.4891,,1138.5669,72,38,1139.5219,1139.5219,1143.6421,space,4.0226,,0,43,43,43,1,155,85,,,,,,,,
,,5dd73f496ca7e76e32b1aa16,65af55ae96282ee5a07620ef,2024-01-23_07h00.13.160,bars,2023.2.3,Win32,12.00048002,657b66ea316d21385b68909f,,,,,,,,,,,1143.6554,1144.6031,,,1145.0855,1145.2781,,70,70,,,,,,,,,,,,,,,,bars/033.png,bars/mask001.png,,,,,,,,,,,,0,1,,,,,,,4,4,4,3,,,,,,,,,,,1144.6032,1145.0855,1145.2781,1153.567,space,8.1987,,1153.567,45,85,1154.5118,1154.5118,1159.8452,space,5.2346,,0,44,44,44,1,25,155,,,,,,,,
,,5dd73f496ca7e76e32b1aa16,65af55ae96282ee5a07620ef,2024-01-23_07h00.13.160,bars,2023.2.3,Win32,12.00048002,657b66ea316d21385b68909f,,,,,,,,,,,1159.855,1160.8175,,,1161.276,1161.4739,,40,40,,,,,,,,,,,,,,,,bars/022.png,bars/mask001.png,,,,,,,,,,,,1,2,,,,,,,6,2,6,2,,,,,,,,,,,1160.8176,1161.2759,1161.474,1174.6118,space,13.0462,,1174.6118,55,20,1175.5729,1175.573,1181.6328,space,5.9576,,0,45,45,45,1,95,20,,,,,,,,
,,5dd73f496ca7e76e32b1aa16,65af55ae96282ee5a07620ef,2024-01-23_07h00.13.160,bars,2023.2.3,Win32,12.00048002,657b66ea316d21385b68909f,,,,,,,,,,,1181.643,1182.5792,,,1183.0803,1183.2734,,21,201,,,,,,,,,,,,,,,,bars/028.png,bars/mask007.png,,,,,,,,,,,,2,1,,,,,,,8,0,8,0,,,,,,,,,,,1182.5792,1183.0803,1183.2734,1196.8626,space,13.4886,,1196.8626,24,81,1197.8115,1197.8116,1201.7514,space,3.8377,,0,46,46,46,1,45,120,,,,,,,,
,,5dd73f496ca7e76e32b1aa16,65af55ae96282ee5a07620ef,2024-01-23_07h00.13.160,bars,2023.2.3,Win32,12.00048002,657b66ea316d21385b68909f,,,,,,,,,,,1201.7612,1202.7208,,,1203.2111,1203.4049,,44,44,,,,,,,,,,,,,,,,bars/011.png,bars/mask003.png,,,,,,,,,,,,0,2,,,,,,,10,2,9,2,,,,,,,,,,,1202.7209,1203.211,1203.4049,1212.8199,space,9.3243,,1212.8199,64,41,1213.7689,1213.7689,1220.0957,space,6.229,,0,47,47,47,1,160,85,,,,,,,,
,,5dd73f496ca7e76e32b1aa16,65af55ae96282ee5a07620ef,2024-01-23_07h00.13.160,bars,2023.2.3,Win32,12.00048002,657b66ea316d21385b68909f,,,,,,,,,,,1220.1089,1221.0422,,,1221.5282,1221.7207,,80,80,,,,,,,,,,,,,,,,bars/008.png,bars/mask009.png,,,,,,,,,,,,0,1,,,,,,,8,0,9,0,,,,,,,,,,,1221.0422,1221.5282,1221.7207,1231.5621,space,9.7513,,1231.5621,30,80,1232.5143,1232.5143,1239.1711,space,6.5565,,0,48,48,48,1,110,0,,,,,,,,
,,5dd73f496ca7e76e32b1aa16,65af55ae96282ee5a07620ef,2024-01-23_07h00.13.160,bars,2023.2.3,Win32,12.00048002,657b66ea316d21385b68909f,,,,,,,,,,,1239.1812,1240.1195,,,1240.6022,1240.7938,,117,117,,,,,,,,,,,,,,,,bars/001.png,bars/mask008.png,,,,,,,,,,,,5,1,,,,,,,10,2,9,1,,,,,,,,,,,1240.1196,1240.6022,1240.7939,1249.1694,space,8.2857,,1249.1694,13,32,1250.1128,1250.1129,1255.0918,space,4.8742,,0,49,49,49,1,130,85,,,,,,,,
,,5dd73f496ca7e76e32b1aa16,65af55ae96282ee5a07620ef,2024-01-23_07h00.13.160,bars,2023.2.3,Win32,12.00048002,657b66ea316d21385b68909f,,,,,,,,,,,,,,,,,,,,,,,,,,,,,,,,,,,,,,,,,,,,,,,,,,,,,,,,,,,,,,,,,,,,,,,,,,,,,,,,,,,,,,,,,,,,,1255.0924,1315.0677,0,0,0,4,1,sequence_tables/blk006.csv
,,5dd73f496ca7e76e32b1aa16,65af55ae96282ee5a07620ef,2024-01-23_07h00.13.160,bars,2023.2.3,Win32,12.00048002,657b66ea316d21385b68909f,,,,,,,,,,,1316.5696,1317.5285,,,1318.0234,1318.2161,,91,91,,,,,,,,,,,,,,,,bars/008.png,bars/mask004.png,,,,,,,,,,,,1,1,,,,,,,2,8,2,9,,,,,,1315.0802,1316.5646,space,1.4027,,1317.5287,1318.0234,1318.2162,1326.0573,space,7.7523,,1326.0573,19,89,1327.0164,1327.0164,1327.0305,,,,0,0,0,0,1,110,0,,,,,,,,
,,5dd73f496ca7e76e32b1aa16,65af55ae96282ee5a07620ef,2024-01-23_07h00.13.160,bars,2023.2.3,Win32,12.00048002,657b66ea316d21385b68909f,,,,,,,,,,,1327.0308,1327.9699,,,1328.4917,1328.6873,,89,89,,,,,,,,,,,,,,,,bars/031.png,bars/mask006.png,,,,,,,,,,,,0,1,,,,,,,4,10,5,10,,,,,,,,,,,1327.9699,1328.4916,1328.6874,1337.9203,space,9.1433,,1337.9203,31,54,1338.866,1338.866,1338.8769,,,,0,1,1,1,1,120,35,,,,,,,,
,,5dd73f496ca7e76e32b1aa16,65af55ae96282ee5a07620ef,2024-01-23_07h00.13.160,bars,2023.2.3,Win32,12.00048002,657b66ea316d21385b68909f,,,,,,,,,,,1338.8771,1339.8588,,,1340.3417,1340.5344,,93,93,,,,,,,,,,,,,,,,bars/011.png,bars/mask003.png,,,,,,,,,,,,5,2,,,,,,,6,8,7,7,,,,,,,,,,,1339.8588,1340.3416,1340.5344,1350.3559,space,9.7343,,1350.356,67,8,1351.3055,1351.3055,1351.3211,,,,0,2,2,2,1,160,85,,,,,,,,
,,5dd73f496ca7e76e32b1aa16,65af55ae96282ee5a07620ef,2024-01-23_07h00.13.160,bars,2023.2.3,Win32,12.00048002,657b66ea316d21385b68909f,,,,,,,,,,,1351.3213,1352.3521,,,1352.8597,1353.054,,91,91,,,,,,,,,,,,,,,,bars/006.png,bars/mask001.png,,,,,,,,,,,,6,2,,,,,,,8,10,7,9,,,,,,,,,,,1352.3521,1352.8596,1353.0541,1354.055,space,0.9133,,1354.055,56,9,1354.9826,1354.9826,1354.9835,,,,0,3,3,3,1,35,100,,,,,,,,
,,5dd73f496ca7e76e32b1aa16,65af55ae96282ee5a07620ef,2024-01-23_07h00.13.160,bars,2023.2.3,Win32,12.00048002,657b66ea316d21385b68909f,,,,,,,,,,,1354.9838,1355.9515,,,1356.4342,1356.6284,,49,49,,,,,,,,,,,,,,,,bars/043.png,bars/mask005.png,,,,,,,,,,,,4,1,,,,,,,10,8,10,7,,,,,,,,,,,1355.9515,1356.4341,1356.6285,1360.0515,space,3.3342,,1360.0516,19,81,1361.0593,1361.0594,1361.0751,,,,0,4,4,4,1,30,130,,,,,,,,
,,5dd73f496ca7e76e32b1aa16,65af55ae96282ee5a07620ef,2024-01-23_07h00.13.160,bars,2023.2.3,Win32,12.00048002,657b66ea316d21385b68909f,,,,,,,,,,,1361.0752,1362.054,,,1362.5409,1362.7524,,27,27,,,,,,,,,,,,,,,,bars/019.png,bars/mask006.png,,,,,,,,,,,,4,1,,,,,,,8,6,9,5,,,,,,,,,,,1362.0541,1362.5409,1362.7525,1364.6036,space,1.7636,,1364.6037,18,78,1365.5165,1365.5166,1365.5312,,,,0,5,5,5,1,45,105,,,,,,,,
,,5dd73f496ca7e76e32b1aa16,65af55ae96282ee5a07620ef,2024-01-23_07h00.13.160,bars,2023.2.3,Win32,12.00048002,657b66ea316d21385b68909f,,,,,,,,,,,1365.5316,1366.4874,,,1366.9699,1367.1614,,84,84,,,,,,,,,,,,,,,,bars/007.png,bars/mask009.png,,,,,,,,,,,,0,2,,,,,,,6,4,5,5,,,,,,,,,,,1366.4874,1366.9698,1367.1614,1370.165,space,2.9166,,1370.165,89,29,1371.0909,1371.0911,1371.1183,,,,0,6,6,6,1,175,55,,,,,,,,
,,5dd73f496ca7e76e32b1aa16,65af55ae96282ee5a07620ef,2024-01-23_07h00.13.160,bars,2023.2.3,Win32,12.00048002,657b66ea316d21385b68909f,,,,,,,,,,,1371.1188,1372.1015,,,1372.5817,1372.7751,,51,51,,,,,,,,,,,,,,,,bars/006.png,bars/mask006.png,,,,,,,,,,,,3,1,,,,,,,8,2,7,1,,,,,,,,,,,1372.1015,1372.5817,1372.7751,1373.6276,space,0.7659,,1373.6276,16,49,1374.6233,1374.6233,1374.6256,,,,0,7,7,7,1,35,100,,,,,,,,
,,5dd73f496ca7e76e32b1aa16,65af55ae96282ee5a07620ef,2024-01-23_07h00.13.160,bars,2023.2.3,Win32,12.00048002,657b66ea316d21385b68909f,,,,,,,,,,,1374.6259,1375.5697,,,1376.0521,1376.245,,89,89,,,,,,,,,,,,,,,,bars/007.png,bars/mask007.png,,,,,,,,,,,,0,2,,,,,,,6,0,6,0,,,,,,,,,,,1375.5698,1376.0521,1376.2451,1382.26,space,5.9274,,1382.2601,86,34,1383.2674,1383.2674,1383.2791,,,,0,8,8,8,1,175,55,,,,,,,,
,,5dd73f496ca7e76e32b1aa16,65af55ae96282ee5a07620ef,2024-01-23_07h00.13.160,bars,2023.2.3,Win32,12.00048002,657b66ea316d21385b68909f,,,,,,,,,,,1383.2792,1384.255,,,1384.7405,1384.9326,,93,93,,,,,,,,,,,,,,,,bars/047.png,bars/mask000.png,,,,,,,,,,,,0,2,,,,,,,4,2,4,0,,,,,,,,,,,1384.255,1384.7404,1384.9327,1389.9145,space,4.8926,,1389.9145,78,23,1390.8553,1390.8554,1390.8674,,,,0,9,9,9,1,15,70,,,,,,,,
,,5dd73f496ca7e76e32b1aa16,65af55ae96282ee5a07620ef,2024-01-23_07h00.13.160,bars,2023.2.3,Win32,12.00048002,657b66ea316d21385b68909f,,,,,,,,,,,1390.8676,1391.8069,,,1392.288,1392.4808,,93,93,,,,,,,,,,,,,,,,bars/032.png,bars/mask009.png,,,,,,,,,,,,0,1,,,,,,,2,4,3,4,,,,,,,,,,,1391.8069,1392.2878,1392.4809,1400.4746,space,7.9056,,1400.4746,32,73,1401.4203,1401.4203,1401.4321,,,,0,10,10,10,1,125,20,,,,,,,,
,,5dd73f496ca7e76e32b1aa16,65af55ae96282ee5a07620ef,2024-01-23_07h00.13.160,bars,2023.2.3,Win32,12.00048002,657b66ea316d21385b68909f,,,,,,,,,,,1401.4322,1402.3675,,,1402.8503,1403.0427,,92,92,,,,,,,,,,,,,,,,bars/036.png,bars/mask005.png,,,,,,,,,,,,0,1,,,,,,,4,6,5,6,,,,,,,,,,,1402.3675,1402.8503,1403.0428,1411.6628,space,8.5318,,1411.6629,53,72,1412.613,1412.6131,1412.6238,,,,0,11,11,11,1,145,20,,,,,,,,
,,5dd73f496ca7e76e32b1aa16,65af55ae96282ee5a07620ef,2024-01-23_07h00.13.160,bars,2023.2.3,Win32,12.00048002,657b66ea316d21385b68909f,,,,,,,,,,,1412.6241,1413.5681,,,1414.0506,1414.2444,,166,166,,,,,,,,,,,,,,,,bars/045.png,bars/mask006.png,,,,,,,,,,,,1,2,,,,,,,2,4,3,3,,,,,,,,,,,1413.5681,1414.0504,1414.2444,1415.099,space,0.7658,,1415.0991,66,24,1416.0544,1416.0544,1416.0568,,,,0,12,12,12,1,100,10,,,,,,,,
,,5dd73f496ca7e76e32b1aa16,65af55ae96282ee5a07620ef,2024-01-23_07h00.13.160,bars,2023.2.3,Win32,12.00048002,657b66ea316d21385b68909f,,,,,,,,,,,1416.0572,1417.017,,,1417.5051,1417.698,,71,71,,,,,,,,,,,,,,,,bars/048.png,bars/mask004.png,,,,,,,,,,,,1,1,,,,,,,4,6,2,5,,,,,,,,,,,1417.0171,1417.5051,1417.698,1418.4577,space,0.6723,,1418.4577,21,76,1419.4046,1419.4047,1419.4069,,,,0,13,13,13,1,50,175,,,,,,,,
,,5dd73f496ca7e76e32b1aa16,65af55ae96282ee5a07620ef,2024-01-23_07h00.13.160,bars,2023.2.3,Win32,12.00048002,657b66ea316d21385b68909f,,,,,,,,,,,1419.4072,1420.3514,,,1420.8302,1421.0824,,72,72,,,,,,,,,,,,,,,,bars/039.png,bars/mask001.png,,,,,,,,,,,,0,2,,,,,,,2,8,2,10,,,,,,,,,,,1420.3514,1420.8302,1421.0824,1421.8689,space,0.6701,,1421.8689,77,33,1422.818,1422.818,1422.8202,,,,0,14,14,14,1,175,105,,,,,,,,
,,5dd73f496ca7e76e32b1aa16,65af55ae96282ee5a07620ef,2024-01-23_07h00.13.160,bars,2023.2.3,Win32,12.00048002,657b66ea316d21385b68909f,,,,,,,,,,,1422.8204,1423.7637,,,1424.1933,1424.3999,,72,72,,,,,,,,,,,,,,,,bars/013.png,bars/mask004.png,,,,,,,,,,,,0,1,,,,,,,0,6,0,5,,,,,,,,,,,1423.7638,1424.1933,1424.3999,1425.0638,space,0.5761,,1425.0639,3,62,1426.0176,1426.0176,1426.0198,,,,0,15,15,15,1,75,10,,,,,,,,
,,5dd73f496ca7e76e32b1aa16,65af55ae96282ee5a07620ef,2024-01-23_07h00.13.160,bars,2023.2.3,Win32,12.00048002,657b66ea316d21385b68909f,,,,,,,,,,,1426.02,1426.9654,,,1427.4478,1427.6407,,92,92,,,,,,,,,,,,,,,,bars/033.png,bars/mask007.png,,,,,,,,,,,,0,2,,,,,,,2,4,1,3,,,,,,,,,,,1426.9654,1427.4478,1427.6407,1428.5831,space,0.8557,,1428.5831,67,63,1429.526,1429.526,1429.5285,,,,0,16,16,16,1,25,155,,,,,,,,
,,5dd73f496ca7e76e32b1aa16,65af55ae96282ee5a07620ef,2024-01-23_07h00.13.160,bars,2023.2.3,Win32,12.00048002,657b66ea316d21385b68909f,,,,,,,,,,,1429.5288,1430.5277,,,1431.0134,1431.2038,,35,35,,,,,,,,,,,,,,,,bars/002.png,bars/mask007.png,,,,,,,,,,,,0,2,,,,,,,4,6,3,5,,,,,,,,,,,1430.5278,1431.0134,1431.2039,1432.809,space,1.5174,,1432.809,85,50,1433.7643,1433.7643,1433.765,,,,0,17,17,17,1,130,85,,,,,,,,
,,5dd73f496ca7e76e32b1aa16,65af55ae96282ee5a07620ef,2024-01-23_07h00.13.160,bars,2023.2.3,Win32,12.00048002,657b66ea316d21385b68909f,,,,,,,,,,,1433.7653,1434.722,,,1435.2028,1435.3944,,56,56,,,,,,,,,,,,,,,,bars/008.png,bars/mask009.png,,,,,,,,,,,,0,1,,,,,,,2,4,2,3,,,,,,,,,,,1434.7221,1435.2028,1435.3945,1436.1534,space,0.6712,,1436.1534,54,56,1437.1005,1437.1005,1437.1029,,,,0,18,18,18,1,110,0,,,,,,,,
,,5dd73f496ca7e76e32b1aa16,65af55ae96282ee5a07620ef,2024-01-23_07h00.13.160,bars,2023.2.3,Win32,12.00048002,657b66ea316d21385b68909f,,,,,,,,,,,1437.1031,1438.0485,,,1438.528,1438.7197,,110,110,,,,,,,,,,,,,,,,bars/011.png,bars/mask006.png,,,,,,,,,,,,0,2,,,,,,,0,2,0,1,,,,,,,,,,,1438.0486,1438.5279,1438.7198,1439.3863,space,0.5784,,1439.3863,50,25,1440.33,1440.33,1440.3321,,,,0,19,19,19,1,160,85,,,,,,,,
,,5dd73f496ca7e76e32b1aa16,65af55ae96282ee5a07620ef,2024-01-23_07h00.13.160,bars,2023.2.3,Win32,12.00048002,657b66ea316d21385b68909f,,,,,,,,,,,1440.3323,1441.2734,,,1441.7548,1441.951,,117,117,,,,,,,,,,,,,,,,bars/027.png,bars/mask002.png,,,,,,,,,,,,1,1,,,,,,,2,0,1,0,,,,,,,,,,,1441.2735,1441.7547,1441.9511,1442.6541,space,0.6153,,1442.6541,7,67,1443.6214,1443.6215,1443.6236,,,,0,20,20,20,1,110,50,,,,,,,,
,,5dd73f496ca7e76e32b1aa16,65af55ae96282ee5a07620ef,2024-01-23_07h00.13.160,bars,2023.2.3,Win32,12.00048002,657b66ea316d21385b68909f,,,,,,,,,,,1443.6239,1444.567,,,1445.0511,1445.2427,,114,114,,,,,,,,,,,,,,,,bars/042.png,bars/mask009.png,,,,,,,,,,,,0,1,,,,,,,0,2,0,3,,,,,,,,,,,1444.567,1445.0511,1445.2428,1446.0079,space,0.6756,,1446.0079,31,39,1446.9526,1446.9527,1446.9534,,,,0,21,21,21,1,145,75,,,,,,,,
,,5dd73f496ca7e76e32b1aa16,65af55ae96282ee5a07620ef,2024-01-23_07h00.13.160,bars,2023.2.3,Win32,12.00048002,657b66ea316d21385b68909f,,,,,,,,,,,1446.9536,1447.8978,,,1448.382,1448.5736,,169,169,,,,,,,,,,,,,,,,bars/001.png,bars/mask002.png,,,,,,,,,,,,0,1,,,,,,,0,0,0,2,,,,,,,,,,,1447.8978,1448.3819,1448.5736,1449.2393,space,0.575,,1449.2394,39,84,1450.1973,1450.1974,1450.1982,,,,0,22,22,22,1,130,85,,,,,,,,
,,5dd73f496ca7e76e32b1aa16,65af55ae96282ee5a07620ef,2024-01-23_07h00.13.160,bars,2023.2.3,Win32,12.00048002,657b66ea316d21385b68909f,,,,,,,,,,,1450.1984,1451.1558,,,1451.6355,1451.8299,,55,55,,,,,,,,,,,,,,,,bars/014.png,bars/mask001.png,,,,,,,,,,,,0,1,,,,,,,0,0,2,1,,,,,,,,,,,1451.1558,1451.6354,1451.8299,1452.506,space,0.5889,,1452.506,25,55,1453.4475,1453.4475,1453.4484,,,,0,23,23,23,1,80,0,,,,,,,,
,,5dd73f496ca7e76e32b1aa16,65af55ae96282ee5a07620ef,2024-01-23_07h00.13.160,bars,2023.2.3,Win32,12.00048002,657b66ea316d21385b68909f,,,,,,,,,,,1453.4486,1454.3956,,,1454.8769,1455.0708,,90,90,,,,,,,,,,,,,,,,bars/025.png,bars/mask002.png,,,,,,,,,,,,0,1,,,,,,,0,0,0,2,,,,,,,,,,,1454.3956,1454.8768,1455.0708,1455.1674,space,0.009,,1455.1675,15,50,1456.1104,1456.1104,1456.1112,,,,0,24,24,24,1,105,40,,,,,,,,
,,5dd73f496ca7e76e32b1aa16,65af55ae96282ee5a07620ef,2024-01-23_07h00.13.160,bars,2023.2.3,Win32,12.00048002,657b66ea316d21385b68909f,,,,,,,,,,,1456.1115,1457.059,,,1457.541,1457.7325,,122,122,,,,,,,,,,,,,,,,bars/014.png,bars/mask002.png,,,,,,,,,,,,0,1,,,,,,,0,0,0,0,,,,,,,,,,,1457.0591,1457.541,1457.7326,1458.559,space,0.7388,0.0004,1458.5591,42,58,1459.5084,1459.5084,1459.5091,,,,0,25,25,25,1,80,0,,,,,,,,
,,5dd73f496ca7e76e32b1aa16,65af55ae96282ee5a07620ef,2024-01-23_07h00.13.160,bars,2023.2.3,Win32,12.00048002,657b66ea316d21385b68909f,,,,,,,,,,,1459.5093,1460.4677,,,1460.9508,1461.1608,,56,56,,,,,,,,,,,,,,,,bars/036.png,bars/mask001.png,,,,,,,,,,,,0,2,,,,,,,2,0,3,0,,,,,,,,,,,1460.4677,1460.9507,1461.1608,1462.0383,space,0.788,,1462.0383,89,36,1463.0231,1463.0231,1463.0278,,,,0,26,26,26,1,145,20,,,,,,,,
,,5dd73f496ca7e76e32b1aa16,65af55ae96282ee5a07620ef,2024-01-23_07h00.13.160,bars,2023.2.3,Win32,12.00048002,657b66ea316d21385b68909f,,,,,,,,,,,1463.0283,1464.0252,,,1464.5134,1464.7055,,171,171,,,,,,,,,,,,,,,,bars/014.png,bars/mask004.png,,,,,,,,,,,,1,2,,,,,,,4,2,5,1,,,,,,,,,,,1464.0252,1464.5134,1464.7056,1465.463,space,0.6698,,1465.463,89,9,1466.4072,1466.4073,1466.4081,,,,0,27,27,27,1,80,0,,,,,,,,
,,5dd73f496ca7e76e32b1aa16,65af55ae96282ee5a07620ef,2024-01-23_07h00.13.160,bars,2023.2.3,Win32,12.00048002,657b66ea316d21385b68909f,,,,,,,,,,,1466.4084,1467.3478,,,1467.8319,1468.0274,,76,76,,,,,,,,,,,,,,,,bars/009.png,bars/mask004.png,,,,,,,,,,,,0,2,,,,,,,6,4,7,4,,,,,,,,,,,1467.3478,1467.8318,1468.0275,1468.9978,space,0.8831,,1468.9978,61,29,1469.9565,1469.9565,1469.9574,,,,0,28,28,28,1,15,105,,,,,,,,
,,5dd73f496ca7e76e32b1aa16,65af55ae96282ee5a07620ef,2024-01-23_07h00.13.160,bars,2023.2.3,Win32,12.00048002,657b66ea316d21385b68909f,,,,,,,,,,,1469.958,1470.9055,,,1471.388,1471.5808,,147,147,,,,,,,,,,,,,,,,bars/049.png,bars/mask005.png,,,,,,,,,,,,2,1,,,,,,,4,2,4,3,,,,,,,,,,,1470.9056,1471.388,1471.5808,1472.3462,space,0.6775,,1472.3462,13,32,1473.3039,1473.304,1473.3065,,,,0,29,29,29,1,160,115,,,,,,,,
,,5dd73f496ca7e76e32b1aa16,65af55ae96282ee5a07620ef,2024-01-23_07h00.13.160,bars,2023.2.3,Win32,12.00048002,657b66ea316d21385b68909f,,,,,,,,,,,1473.3068,1474.2697,,,1474.7538,1474.9524,,73,73,,,,,,,,,,,,,,,,bars/015.png,bars/mask002.png,,,,,,,,,,,,0,1,,,,,,,6,0,8,0,,,,,,,,,,,1474.2697,1474.7537,1474.9524,1475.709,space,0.6697,,1475.709,37,87,1476.6553,1476.6554,1476.6562,,,,0,30,30,30,1,110,160,,,,,,,,
,,5dd73f496ca7e76e32b1aa16,65af55ae96282ee5a07620ef,2024-01-23_07h00.13.160,bars,2023.2.3,Win32,12.00048002,657b66ea316d21385b68909f,,,,,,,,,,,1476.6564,1477.5968,,,1478.0967,1478.2886,,25,25,,,,,,,,,,,,,,,,bars/046.png,bars/mask008.png,,,,,,,,,,,,0,1,,,,,,,4,2,5,3,,,,,,,,,,,1477.5969,1478.0966,1478.2886,1478.9614,space,0.5855,,1478.9614,50,60,1479.9069,1479.907,1479.9078,,,,0,31,31,31,1,155,85,,,,,,,,
,,5dd73f496ca7e76e32b1aa16,65af55ae96282ee5a07620ef,2024-01-23_07h00.13.160,bars,2023.2.3,Win32,12.00048002,657b66ea316d21385b68909f,,,,,,,,,,,1479.908,1480.8516,,,1481.3329,1481.5274,,93,93,,,,,,,,,,,,,,,,bars/017.png,bars/mask000.png,,,,,,,,,,,,0,2,,,,,,,2,4,1,4,,,,,,,,,,,1480.8516,1481.3329,1481.5274,1481.9061,space,0.2909,,1481.9061,52,48,1482.8533,1482.8534,1482.8558,,,,0,32,32,32,1,145,45,,,,,,,,
,,5dd73f496ca7e76e32b1aa16,65af55ae96282ee5a07620ef,2024-01-23_07h00.13.160,bars,2023.2.3,Win32,12.00048002,657b66ea316d21385b68909f,,,,,,,,,,,1482.8561,1483.8014,,,1484.2878,1484.483,,158,158,,,,,,,,,,,,,,,,bars/038.png,bars/mask009.png,,,,,,,,,,,,3,1,,,,,,,4,2,4,1,,,,,,,,,,,1483.8015,1484.2877,1484.4831,1485.1451,space,0.5739,,1485.1452,7,88,1486.0905,1486.0905,1486.0927,,,,0,33,33,33,1,165,70,,,,,,,,
,,5dd73f496ca7e76e32b1aa16,65af55ae96282ee5a07620ef,2024-01-23_07h00.13.160,bars,2023.2.3,Win32,12.00048002,657b66ea316d21385b68909f,,,,,,,,,,,1486.093,1487.0489,,,1487.5315,1487.726,,135,135,,,,,,,,,,,,,,,,bars/000.png,bars/mask000.png,,,,,,,,,,,,3,2,,,,,,,2,4,4,5,,,,,,,,,,,1487.0489,1487.5314,1487.726,1491.9222,space,4.1087,,1491.9222,85,10,1492.8652,1492.8652,1492.8768,,,,0,34,34,34,1,40,145,,,,,,,,
,,5dd73f496ca7e76e32b1aa16,65af55ae96282ee5a07620ef,2024-01-23_07h00.13.160,bars,2023.2.3,Win32,12.00048002,657b66ea316d21385b68909f,,,,,,,,,,,1492.8769,1493.8212,,,1494.3025,1494.4961,,165,165,,,,,,,,,,,,,,,,bars/049.png,bars/mask008.png,,,,,,,,,,,,4,1,,,,,,,4,6,5,6,,,,,,,,,,,1493.8212,1494.3025,1494.4962,1495.4422,space,0.8575,,1495.4422,5,50,1496.3968,1496.3969,1496.3993,,,,0,35,35,35,1,160,115,,,,,,,,
,,5dd73f496ca7e76e32b1aa16,65af55ae96282ee5a07620ef,2024-01-23_07h00.13.160,bars,2023.2.3,Win32,12.00048002,657b66ea316d21385b68909f,,,,,,,,,,,1496.3995,1497.3568,,,1497.8496,1498.0455,,143,143,,,,,,,,,,,,,,,,bars/037.png,bars/mask008.png,,,,,,,,,,,,5,1,,,,,,,6,4,6,4,,,,,,,,,,,1497.3568,1497.8496,1498.0455,1507.5464,space,9.4137,,1507.5464,7,38,1508.4911,1508.4911,1508.5015,,,,0,36,36,36,1,150,105,,,,,,,,
,,5dd73f496ca7e76e32b1aa16,65af55ae96282ee5a07620ef,2024-01-23_07h00.13.160,bars,2023.2.3,Win32,12.00048002,657b66ea316d21385b68909f,,,,,,,,,,,1508.5017,1509.4395,,,1509.9228,1510.1157,,19,19,,,,,,,,,,,,,,,,bars/020.png,bars/mask002.png,,,,,,,,,,,,0,2,,,,,,,8,2,9,2,,,,,,,,,,,1509.4395,1509.9227,1510.1157,1513.8156,space,3.6129,,1513.8157,84,29,1514.7785,1514.7785,1514.79,,,,0,37,37,37,1,115,170,,,,,,,,
,,5dd73f496ca7e76e32b1aa16,65af55ae96282ee5a07620ef,2024-01-23_07h00.13.160,bars,2023.2.3,Win32,12.00048002,657b66ea316d21385b68909f,,,,,,,,,,,1514.7903,1515.7251,,,1516.2062,1516.4031,,26,26,,,,,,,,,,,,,,,,bars/016.png,bars/mask009.png,,,,,,,,,,,,4,1,,,,,,,10,4,7,4,,,,,,,,,,,1515.7251,1516.2061,1516.4031,1517.0644,space,0.5739,,1517.0644,14,41,1518.0087,1518.0088,1518.0113,,,,0,38,38,38,1,40,165,,,,,,,,
,,5dd73f496ca7e76e32b1aa16,65af55ae96282ee5a07620ef,2024-01-23_07h00.13.160,bars,2023.2.3,Win32,12.00048002,657b66ea316d21385b68909f,,,,,,,,,,,1518.0116,1518.9504,,,1519.4291,1519.6237,,158,158,,,,,,,,,,,,,,,,bars/045.png,bars/mask006.png,,,,,,,,,,,,0,2,,,,,,,10,6,10,5,,,,,,,,,,,1518.9505,1519.4291,1519.6237,1521.2461,space,1.5347,,1521.2462,58,32,1522.1925,1522.1925,1522.195,,,,0,39,39,39,1,100,10,,,,,,,,
,,5dd73f496ca7e76e32b1aa16,65af55ae96282ee5a07620ef,2024-01-23_07h00.13.160,bars,2023.2.3,Win32,12.00048002,657b66ea316d21385b68909f,,,,,,,,,,,1522.1952,1523.1519,,,1523.6386,1523.836,,106,106,,,,,,,,,,,,,,,,bars/016.png,bars/mask000.png,,,,,,,,,,,,0,2,,,,,,,8,4,10,4,,,,,,,,,,,1523.1519,1523.6385,1523.8361,1524.5012,space,0.5775,,1524.5012,66,59,1525.4392,1525.4392,1525.4401,,,,0,40,40,40,1,40,165,,,,,,,,
,,5dd73f496ca7e76e32b1aa16,65af55ae96282ee5a07620ef,2024-01-23_07h00.13.160,bars,2023.2.3,Win32,12.00048002,657b66ea316d21385b68909f,,,,,,,,,,,1525.4402,1526.3928,,,1526.8835,1527.0757,,171,171,,,,,,,,,,,,,,,,bars/005.png,bars/mask001.png,,,,,,,,,,,,4,1,,,,,,,10,2,10,2,,,,,,,,,,,1526.3929,1526.8834,1527.0757,1527.8329,space,0.67,,1527.833,19,31,1528.7809,1528.781,1528.7835,,,,0,41,41,41,1,10,140,,,,,,,,
,,5dd73f496ca7e76e32b1aa16,65af55ae96282ee5a07620ef,2024-01-23_07h00.13.160,bars,2023.2.3,Win32,12.00048002,657b66ea316d21385b68909f,,,,,,,,,,,1528.7838,1529.7235,,,1530.2033,1530.3961,,166,166,,,,,,,,,,,,,,,,bars/016.png,bars/mask003.png,,,,,,,,,,,,0,2,,,,,,,10,0,10,0,,,,,,,,,,,1529.7236,1530.2033,1530.3962,1531.0622,space,0.5788,,1531.0622,54,1,1532.0365,1532.0365,1532.0388,,,,0,42,42,42,1,40,165,,,,,,,,
,,5dd73f496ca7e76e32b1aa16,65af55ae96282ee5a07620ef,2024-01-23_07h00.13.160,bars,2023.2.3,Win32,12.00048002,657b66ea316d21385b68909f,,,,,,,,,,,1532.039,1532.9956,,,1533.4954,1533.6895,,131,131,,,,,,,,,,,,,,,,bars/037.png,bars/mask000.png,,,,,,,,,,,,3,1,,,,,,,8,0,8,1,,,,,,,,,,,1532.9957,1533.4953,1533.6895,1534.3577,space,0.5797,,1534.3578,19,26,1535.3008,1535.3009,1535.3036,,,,0,43,43,43,1,150,105,,,,,,,,
,,5dd73f496ca7e76e32b1aa16,65af55ae96282ee5a07620ef,2024-01-23_07h00.13.160,bars,2023.2.3,Win32,12.00048002,657b66ea316d21385b68909f,,,,,,,,,,,1535.3038,1536.2446,,,1536.7242,1536.9199,,112,112,,,,,,,,,,,,,,,,bars/000.png,bars/mask004.png,,,,,,,,,,,,0,2,,,,,,,10,2,10,0,,,,,,,,,,,1536.2446,1536.7242,1536.9199,1537.5806,space,0.5729,,1537.5806,72,33,1538.5295,1538.5295,1538.5321,,,,0,44,44,44,1,40,145,,,,,,,,
,,5dd73f496ca7e76e32b1aa16,65af55ae96282ee5a07620ef,2024-01-23_07h00.13.160,bars,2023.2.3,Win32,12.00048002,657b66ea316d21385b68909f,,,,,,,,,,,1538.5325,1539.4734,,,1539.9542,1540.1454,,144,144,,,,,,,,,,,,,,,,bars/049.png,bars/mask004.png,,,,,,,,,,,,5,1,,,,,,,10,4,10,4,,,,,,,,,,,1539.4734,1539.9542,1540.1454,1540.6357,space,0.4004,,1540.6358,16,29,1541.6003,1541.6004,1541.6037,,,,0,45,45,45,1,160,115,,,,,,,,
,,5dd73f496ca7e76e32b1aa16,65af55ae96282ee5a07620ef,2024-01-23_07h00.13.160,bars,2023.2.3,Win32,12.00048002,657b66ea316d21385b68909f,,,,,,,,,,,1541.6042,1542.544,,,1543.1345,1543.3272,,98,98,,,,,,,,,,,,,,,,bars/030.png,bars/mask000.png,,,,,,,,,,,,0,2,,,,,,,8,6,9,5,,,,,,,,,,,1542.544,1543.1345,1543.3272,1543.8037,space,0.3893,,1543.8037,42,33,1544.7603,1544.7603,1544.7626,,,,0,46,46,46,1,140,65,,,,,,,,
,,5dd73f496ca7e76e32b1aa16,65af55ae96282ee5a07620ef,2024-01-23_07h00.13.160,bars,2023.2.3,Win32,12.00048002,657b66ea316d21385b68909f,,,,,,,,,,,1544.7629,1545.7081,,,1546.1899,1546.3852,,131,131,,,,,,,,,,,,,,,,bars/048.png,bars/mask001.png,,,,,,,,,,,,0,2,,,,,,,10,8,9,8,,,,,,,,,,,1545.7082,1546.1898,1546.3853,1547.0466,space,0.5735,,1547.0466,81,44,1548.018,1548.018,1548.0199,,,,0,47,47,47,1,50,175,,,,,,,,
,,5dd73f496ca7e76e32b1aa16,65af55ae96282ee5a07620ef,2024-01-23_07h00.13.160,bars,2023.2.3,Win32,12.00048002,657b66ea316d21385b68909f,,,,,,,,,,,1548.0204,1548.9851,,,1549.4738,1549.6715,,29,29,,,,,,,,,,,,,,,,bars/025.png,bars/mask000.png,,,,,,,,,,,,4,2,,,,,,,10,6,10,7,,,,,,,,,,,1548.9851,1549.4738,1549.6715,1550.3741,space,0.6149,,1550.3741,76,11,1551.3397,1551.3397,1551.3405,,,,0,48,48,48,1,105,40,,,,,,,,
,,5dd73f496ca7e76e32b1aa16,65af55ae96282ee5a07620ef,2024-01-23_07h00.13.160,bars,2023.2.3,Win32,12.00048002,657b66ea316d21385b68909f,,,,,,,,,,,1551.3408,1552.2817,,,1552.7613,1552.9539,,167,167,,,,,,,,,,,,,,,,bars/011.png,bars/mask009.png,,,,,,,,,,,,7,1,,,,,,,8,8,9,9,,,,,,,,,,,1552.2817,1552.7613,1552.9539,1553.7128,space,0.6718,,1553.7129,7,82,1554.6581,1554.6583,1554.661,,,,0,49,49,49,1,160,85,,,,,,,,
,,5dd73f496ca7e76e32b1aa16,65af55ae96282ee5a07620ef,2024-01-23_07h00.13.160,bars,2023.2.3,Win32,12.00048002,657b66ea316d21385b68909f,,,,,,,,,,,,,,,,,,,,,,,,,,,,,,,,,,,,,,,,,,,,,,,,,,,,,,,,,,,,,,,,,,,,,,,,,,,,,,,,,,,,,,,,,,,,,1554.6611,1614.6509,0,1,1,2,1,sequence_tables/blk038.csv
,,5dd73f496ca7e76e32b1aa16,65af55ae96282ee5a07620ef,2024-01-23_07h00.13.160,bars,2023.2.3,Win32,12.00048002,657b66ea316d21385b68909f,,,,,,,,,,,1617.216,1618.165,,,1618.6456,1618.8391,,113,113,,,,,,,,,,,,,,,,bars/007.png,bars/mask002.png,,,,,,,,,,,,0,2,,,,,,,2,9,1,9,,,,,,1614.6619,1617.2123,space,2.4674,,1618.1651,1618.6456,1618.8392,1620.6422,space,1.7121,,1620.6422,62,58,1621.5997,1621.5997,1621.6152,,,,0,0,0,0,1,175,55,,,,,,,,
,,5dd73f496ca7e76e32b1aa16,65af55ae96282ee5a07620ef,2024-01-23_07h00.13.160,bars,2023.2.3,Win32,12.00048002,657b66ea316d21385b68909f,,,,,,,,,,,1621.6155,1622.5706,,,1623.0573,1623.2502,,94,94,,,,,,,,,,,,,,,,bars/043.png,bars/mask004.png,,,,,,,,,,,,0,2,,,,,,,4,7,7,6,,,,,,,,,,,1622.5706,1623.0573,1623.2503,1624.5778,space,1.2399,,1624.5778,64,36,1625.5206,1625.5206,1625.5312,,,,0,1,1,1,1,30,130,,,,,,,,
,,5dd73f496ca7e76e32b1aa16,65af55ae96282ee5a07620ef,2024-01-23_07h00.13.160,bars,2023.2.3,Win32,12.00048002,657b66ea316d21385b68909f,,,,,,,,,,,1625.5314,1626.5603,,,1627.039,1627.2308,,79,79,,,,,,,,,,,,,,,,bars/032.png,bars/mask002.png,,,,,,,,,,,,0,1,,,,,,,6,9,6,8,,,,,,,,,,,1626.5603,1627.039,1627.2309,1629.0248,space,1.7064,,1629.0248,46,59,1629.9638,1629.9639,1629.9797,,,,0,2,2,2,1,125,20,,,,,,,,
,,5dd73f496ca7e76e32b1aa16,65af55ae96282ee5a07620ef,2024-01-23_07h00.13.160,bars,2023.2.3,Win32,12.00048002,657b66ea316d21385b68909f,,,,,,,,,,,1629.9798,1630.9271,,,1631.419,1631.6132,,52,52,,,,,,,,,,,,,,,,bars/039.png,bars/mask004.png,,,,,,,,,,,,0,2,,,,,,,8,7,6,8,,,,,,,,,,,1630.9272,1631.4189,1631.6133,1632.2762,space,0.5745,,1632.2762,57,53,1633.2183,1633.2184,1633.2204,,,,0,3,3,3,1,175,105,,,,,,,,
,,5dd73f496ca7e76e32b1aa16,65af55ae96282ee5a07620ef,2024-01-23_07h00.13.160,bars,2023.2.3,Win32,12.00048002,657b66ea316d21385b68909f,,,,,,,,,,,1633.2206,1634.16,,,1634.6443,1634.8368,,151,151,,,,,,,,,,,,,,,,bars/004.png,bars/mask000.png,,,,,,,,,,,,1,2,,,,,,,6,9,5,9,,,,,,,,,,,1634.16,1634.6442,1634.8369,1635.4162,space,0.4919,,1635.4162,54,26,1636.3654,1636.3654,1636.3661,,,,0,4,4,4,1,25,125,,,,,,,,
,,5dd73f496ca7e76e32b1aa16,65af55ae96282ee5a07620ef,2024-01-23_07h00.13.160,bars,2023.2.3,Win32,12.00048002,657b66ea316d21385b68909f,,,,,,,,,,,1636.3663,1637.3723,,,1637.8531,1638.0456,,151,151,,,,,,,,,,,,,,,,bars/025.png,bars/mask004.png,,,,,,,,,,,,0,1,,,,,,,8,7,8,8,,,,,,,,,,,1637.3724,1637.8531,1638.0457,1638.8046,space,0.6713,,1638.8046,46,69,1639.7622,1639.7622,1639.7646,,,,0,5,5,5,1,105,40,,,,,,,,
,,5dd73f496ca7e76e32b1aa16,65af55ae96282ee5a07620ef,2024-01-23_07h00.13.160,bars,2023.2.3,Win32,12.00048002,657b66ea316d21385b68909f,,,,,,,,,,,1639.7648,1640.7223,,,1641.2069,1641.3982,,117,117,,,,,,,,,,,,,,,,bars/019.png,bars/mask000.png,,,,,,,,,,,,4,2,,,,,,,6,5,6,7,,,,,,,,,,,1640.7223,1641.2069,1641.3982,1642.163,space,0.6767,,1642.1631,72,12,1643.0934,1643.0935,1643.0956,,,,0,6,6,6,1,45,105,,,,,,,,
,,5dd73f496ca7e76e32b1aa16,65af55ae96282ee5a07620ef,2024-01-23_07h00.13.160,bars,2023.2.3,Win32,12.00048002,657b66ea316d21385b68909f,,,,,,,,,,,1643.0959,1644.0567,,,1644.5372,1644.7307,,120,120,,,,,,,,,,,,,,,,bars/043.png,bars/mask007.png,,,,,,,,,,,,4,2,,,,,,,4,7,2,6,,,,,,,,,,,1644.0568,1644.5372,1644.7308,1645.7689,space,0.951,,1645.769,90,10,1646.7219,1646.7219,1646.7228,,,,0,7,7,7,1,30,130,,,,,,,,
,,5dd73f496ca7e76e32b1aa16,65af55ae96282ee5a07620ef,2024-01-23_07h00.13.160,bars,2023.2.3,Win32,12.00048002,657b66ea316d21385b68909f,,,,,,,,,,,1646.723,1647.6609,,,1648.1662,1648.3591,,141,141,,,,,,,,,,,,,,,,bars/038.png,bars/mask008.png,,,,,,,,,,,,0,1,,,,,,,2,9,2,8,,,,,,,,,,,1647.6609,1648.1662,1648.3591,1649.5152,space,1.0646,,1649.5152,24,71,1650.4569,1650.4569,1650.459,,,,0,8,8,8,1,165,70,,,,,,,,
,,5dd73f496ca7e76e32b1aa16,65af55ae96282ee5a07620ef,2024-01-23_07h00.13.160,bars,2023.2.3,Win32,12.00048002,657b66ea316d21385b68909f,,,,,,,,,,,1650.4592,1651.3992,,,1651.8818,1652.0745,,111,111,,,,,,,,,,,,,,,,bars/028.png,bars/mask009.png,,,,,,,,,,,,7,2,,,,,,,0,10,1,10,,,,,,,,,,,1651.3992,1651.8818,1652.0745,1652.8339,space,0.6722,,1652.834,66,9,1653.7985,1653.7986,1653.8006,,,,0,9,9,9,1,45,120,,,,,,,,
,,5dd73f496ca7e76e32b1aa16,65af55ae96282ee5a07620ef,2024-01-23_07h00.13.160,bars,2023.2.3,Win32,12.00048002,657b66ea316d21385b68909f,,,,,,,,,,,1653.8008,1654.7461,,,1655.1783,1655.3715,,25,25,,,,,,,,,,,,,,,,bars/009.png,bars/mask001.png,,,,,,,,,,,,2,1,,,,,,,2,8,3,7,,,,,,,,,,,1654.7462,1655.1783,1655.3715,1656.1295,space,0.6706,,1656.1296,10,80,1657.1265,1657.1265,1657.1289,,,,0,10,10,10,1,15,105,,,,,,,,
,,5dd73f496ca7e76e32b1aa16,65af55ae96282ee5a07620ef,2024-01-23_07h00.13.160,bars,2023.2.3,Win32,12.00048002,657b66ea316d21385b68909f,,,,,,,,,,,1657.1293,1658.1266,,,1658.6069,1658.7985,,156,156,,,,,,,,,,,,,,,,bars/004.png,bars/mask006.png,,,,,,,,,,,,0,2,,,,,,,0,10,0,10,,,,,,,,,,,1658.1266,1658.6068,1658.7986,1659.4637,space,0.5774,,1659.4638,49,31,1660.4076,1660.4076,1660.4097,,,,0,11,11,11,1,25,125,,,,,,,,
,,5dd73f496ca7e76e32b1aa16,65af55ae96282ee5a07620ef,2024-01-23_07h00.13.160,bars,2023.2.3,Win32,12.00048002,657b66ea316d21385b68909f,,,,,,,,,,,1660.41,1661.353,,,1661.8354,1662.0294,,156,156,,,,,,,,,,,,,,,,bars/003.png,bars/mask004.png,,,,,,,,,,,,3,2,,,,,,,2,8,2,6,,,,,,,,,,,1661.3531,1661.8353,1662.0295,1662.6934,space,0.576,,1662.6934,49,16,1663.6364,1663.6364,1663.6372,,,,0,12,12,12,1,25,140,,,,,,,,
,,5dd73f496ca7e76e32b1aa16,65af55ae96282ee5a07620ef,2024-01-23_07h00.13.160,bars,2023.2.3,Win32,12.00048002,657b66ea316d21385b68909f,,,,,,,,,,,1663.6374,1664.5838,,,1665.1143,1665.3087,,85,85,,,,,,,,,,,,,,,,bars/016.png,bars/mask000.png,,,,,,,,,,,,0,1,,,,,,,4,10,5,9,,,,,,,,,,,1664.5838,1665.1143,1665.3087,1665.9934,space,0.5969,,1665.9934,45,80,1666.9401,1666.9402,1666.9431,,,,0,13,13,13,1,40,165,,,,,,,,
,,5dd73f496ca7e76e32b1aa16,65af55ae96282ee5a07620ef,2024-01-23_07h00.13.160,bars,2023.2.3,Win32,12.00048002,657b66ea316d21385b68909f,,,,,,,,,,,1666.9434,1667.9476,,,1668.4364,1668.6292,,75,75,,,,,,,,,,,,,,,,bars/041.png,bars/mask001.png,,,,,,,,,,,,7,2,,,,,,,2,10,2,10,,,,,,,,,,,1667.9476,1668.4363,1668.6292,1669.25,space,0.5328,,1669.2501,55,10,1670.195,1670.1951,1670.1975,,,,0,14,14,14,1,20,85,,,,,,,,
,,5dd73f496ca7e76e32b1aa16,65af55ae96282ee5a07620ef,2024-01-23_07h00.13.160,bars,2023.2.3,Win32,12.00048002,657b66ea316d21385b68909f,,,,,,,,,,,1670.1978,1671.1406,,,1671.6364,1671.8433,,21,21,,,,,,,,,,,,,,,,bars/030.png,bars/mask007.png,,,,,,,,,,,,0,2,,,,,,,0,10,0,10,,,,,,,,,,,1671.1406,1671.6363,1671.8433,1672.5648,space,0.633,,1672.5648,61,44,1673.5107,1673.5108,1673.5114,,,,0,15,15,15,1,140,65,,,,,,,,
,,5dd73f496ca7e76e32b1aa16,65af55ae96282ee5a07620ef,2024-01-23_07h00.13.160,bars,2023.2.3,Win32,12.00048002,657b66ea316d21385b68909f,,,,,,,,,,,1673.5117,1674.4509,,,1674.9504,1675.1308,,87,87,,,,,,,,,,,,,,,,bars/004.png,bars/mask006.png,,,,,,,,,,,,0,2,,,,,,,2,10,2,10,,,,,,,,,,,1674.451,1674.9503,1675.1309,1675.5179,space,0.2937,,1675.518,62,38,1676.4849,1676.485,1676.4857,,,,0,16,16,16,1,25,125,,,,,,,,
,,5dd73f496ca7e76e32b1aa16,65af55ae96282ee5a07620ef,2024-01-23_07h00.13.160,bars,2023.2.3,Win32,12.00048002,657b66ea316d21385b68909f,,,,,,,,,,,1676.486,1677.4591,,,1677.9465,1678.2018,,115,115,,,,,,,,,,,,,,,,bars/030.png,bars/mask004.png,,,,,,,,,,,,0,1,,,,,,,0,10,0,8,,,,,,,,,,,1677.4591,1677.9464,1678.2018,1678.7932,space,0.4804,,1678.7932,25,50,1679.7342,1679.7342,1679.7366,,,,0,17,17,17,1,140,65,,,,,,,,
,,5dd73f496ca7e76e32b1aa16,65af55ae96282ee5a07620ef,2024-01-23_07h00.13.160,bars,2023.2.3,Win32,12.00048002,657b66ea316d21385b68909f,,,,,,,,,,,1679.7369,1680.6786,,,1681.1576,1681.3483,,65,65,,,,,,,,,,,,,,,,bars/013.png,bars/mask008.png,,,,,,,,,,,,1,1,,,,,,,2,10,2,10,,,,,,,,,,,1680.6786,1681.1576,1681.3483,1682.016,space,0.5792,,1682.0161,10,55,1683.0364,1683.0364,1683.0373,,,,0,18,18,18,1,75,10,,,,,,,,
,,5dd73f496ca7e76e32b1aa16,65af55ae96282ee5a07620ef,2024-01-23_07h00.13.160,bars,2023.2.3,Win32,12.00048002,657b66ea316d21385b68909f,,,,,,,,,,,1683.0376,1684.0246,,,1684.5132,1684.7146,,143,143,,,,,,,,,,,,,,,,bars/018.png,bars/mask001.png,,,,,,,,,,,,1,1,,,,,,,0,10,1,10,,,,,,,,,,,1684.0246,1684.5132,1684.7146,1685.2029,space,0.3927,,1685.2029,7,53,1686.1434,1686.1434,1686.1442,,,,0,19,19,19,1,150,90,,,,,,,,
,,5dd73f496ca7e76e32b1aa16,65af55ae96282ee5a07620ef,2024-01-23_07h00.13.160,bars,2023.2.3,Win32,12.00048002,657b66ea316d21385b68909f,,,,,,,,,,,1686.1445,1687.0824,,,1687.562,1687.7563,,107,107,,,,,,,,,,,,,,,,bars/045.png,bars/mask009.png,,,,,,,,,,,,1,1,,,,,,,2,10,1,8,,,,,,,,,,,1687.0824,1687.5619,1687.7564,1688.3243,space,0.4804,,1688.3243,7,83,1689.2672,1689.2672,1689.268,,,,0,20,20,20,1,100,10,,,,,,,,
,,5dd73f496ca7e76e32b1aa16,65af55ae96282ee5a07620ef,2024-01-23_07h00.13.160,bars,2023.2.3,Win32,12.00048002,657b66ea316d21385b68909f,,,,,,,,,,,1689.2683,1690.2084,,,1690.6889,1690.8823,,53,53,,,,,,,,,,,,,,,,bars/043.png,bars/mask005.png,,,,,,,,,,,,1,1,,,,,,,4,8,3,8,,,,,,,,,,,1690.2085,1690.6889,1690.8823,1691.4503,space,0.4804,,1691.4503,23,77,1692.3884,1692.3884,1692.3891,,,,0,21,21,21,1,30,130,,,,,,,,
,,5dd73f496ca7e76e32b1aa16,65af55ae96282ee5a07620ef,2024-01-23_07h00.13.160,bars,2023.2.3,Win32,12.00048002,657b66ea316d21385b68909f,,,,,,,,,,,1692.3893,1693.3509,,,1693.849,1694.0406,,92,92,,,,,,,,,,,,,,,,bars/024.png,bars/mask003.png,,,,,,,,,,,,0,1,,,,,,,6,10,7,10,,,,,,,,,,,1693.3509,1693.849,1694.0407,1694.9879,space,0.8594,,1694.9879,28,78,1695.9335,1695.9335,1695.9342,,,,0,22,22,22,1,120,170,,,,,,,,
,,5dd73f496ca7e76e32b1aa16,65af55ae96282ee5a07620ef,2024-01-23_07h00.13.160,bars,2023.2.3,Win32,12.00048002,657b66ea316d21385b68909f,,,,,,,,,,,1695.9345,1696.8818,,,1697.3621,1697.553,,134,134,,,,,,,,,,,,,,,,bars/049.png,bars/mask003.png,,,,,,,,,,,,4,2,,,,,,,4,10,4,10,,,,,,,,,,,1696.8818,1697.3621,1697.5531,1698.217,space,0.5772,,1698.217,26,19,1699.162,1699.162,1699.1641,,,,0,23,23,23,1,160,115,,,,,,,,
,,5dd73f496ca7e76e32b1aa16,65af55ae96282ee5a07620ef,2024-01-23_07h00.13.160,bars,2023.2.3,Win32,12.00048002,657b66ea316d21385b68909f,,,,,,,,,,,1699.1643,1700.1077,,,1700.5853,1700.7771,,64,64,,,,,,,,,,,,,,,,bars/046.png,bars/mask008.png,,,,,,,,,,,,3,2,,,,,,,6,8,5,9,,,,,,,,,,,1700.1077,1700.5852,1700.7772,1701.5361,space,0.6721,,1701.5361,89,21,1702.5056,1702.5057,1702.5065,,,,0,24,24,24,1,155,85,,,,,,,,
,,5dd73f496ca7e76e32b1aa16,65af55ae96282ee5a07620ef,2024-01-23_07h00.13.160,bars,2023.2.3,Win32,12.00048002,657b66ea316d21385b68909f,,,,,,,,,,,1702.5068,1703.4383,,,1703.9213,1704.1147,,174,174,,,,,,,,,,,,,,,,bars/021.png,bars/mask009.png,,,,,,,,,,,,1,1,,,,,,,4,6,4,7,,,,,,,,,,,1703.4384,1703.9213,1704.1147,1704.7809,space,0.5746,,1704.7809,19,76,1705.7244,1705.7244,1705.7267,,,,0,25,25,25,1,155,70,,,,,,,,
,,5dd73f496ca7e76e32b1aa16,65af55ae96282ee5a07620ef,2024-01-23_07h00.13.160,bars,2023.2.3,Win32,12.00048002,657b66ea316d21385b68909f,,,,,,,,,,,1705.7271,1706.6775,,,1707.1586,1707.3532,,102,102,,,,,,,,,,,,,,,,bars/034.png,bars/mask005.png,,,,,,,,,,,,0,1,,,,,,,2,8,1,8,,,,,,,,,,,1706.6775,1707.1586,1707.3532,1708.0129,space,0.5731,,1708.0129,23,37,1708.9764,1708.9764,1708.9773,,,,0,26,26,26,1,125,65,,,,,,,,
,,5dd73f496ca7e76e32b1aa16,65af55ae96282ee5a07620ef,2024-01-23_07h00.13.160,bars,2023.2.3,Win32,12.00048002,657b66ea316d21385b68909f,,,,,,,,,,,1708.9775,1709.9155,,,1710.3987,1710.6053,,154,154,,,,,,,,,,,,,,,,bars/012.png,bars/mask008.png,,,,,,,,,,,,0,2,,,,,,,4,10,5,9,,,,,,,,,,,1709.9155,1710.3987,1710.6053,1711.4564,space,0.7633,,1711.4565,64,41,1712.415,1712.4151,1712.4175,,,,0,27,27,27,1,90,15,,,,,,,,
,,5dd73f496ca7e76e32b1aa16,65af55ae96282ee5a07620ef,2024-01-23_07h00.13.160,bars,2023.2.3,Win32,12.00048002,657b66ea316d21385b68909f,,,,,,,,,,,1712.4178,1713.3622,,,1713.8571,1714.049,,46,46,,,,,,,,,,,,,,,,bars/015.png,bars/mask009.png,,,,,,,,,,,,0,1,,,,,,,2,10,2,9,,,,,,,,,,,1713.3622,1713.8571,1714.0491,1714.8076,space,0.6703,,1714.8076,64,66,1715.7545,1715.7546,1715.7567,,,,0,28,28,28,1,110,160,,,,,,,,
,,5dd73f496ca7e76e32b1aa16,65af55ae96282ee5a07620ef,2024-01-23_07h00.13.160,bars,2023.2.3,Win32,12.00048002,657b66ea316d21385b68909f,,,,,,,,,,,1715.7569,1716.6988,,,1717.176,1717.3688,,145,145,,,,,,,,,,,,,,,,bars/015.png,bars/mask000.png,,,,,,,,,,,,4,2,,,,,,,0,8,0,8,,,,,,,,,,,1716.6988,1717.1759,1717.3688,1718.2194,space,0.7632,,1718.2194,35,15,1719.164,1719.164,1719.1661,,,,0,29,29,29,1,110,160,,,,,,,,
,,5dd73f496ca7e76e32b1aa16,65af55ae96282ee5a07620ef,2024-01-23_07h00.13.160,bars,2023.2.3,Win32,12.00048002,657b66ea316d21385b68909f,,,,,,,,,,,1719.1663,1720.1218,,,1720.614,1720.806,,156,156,,,,,,,,,,,,,,,,bars/035.png,bars/mask000.png,,,,,,,,,,,,1,1,,,,,,,2,10,2,9,,,,,,,,,,,1720.1218,1720.614,1720.806,1721.4715,space,0.5783,,1721.4716,19,84,1722.4148,1722.4149,1722.417,,,,0,30,30,30,1,175,60,,,,,,,,
,,5dd73f496ca7e76e32b1aa16,65af55ae96282ee5a07620ef,2024-01-23_07h00.13.160,bars,2023.2.3,Win32,12.00048002,657b66ea316d21385b68909f,,,,,,,,,,,1722.4172,1723.3658,,,1723.8452,1724.1153,,22,22,,,,,,,,,,,,,,,,bars/019.png,bars/mask008.png,,,,,,,,,,,,0,1,,,,,,,0,8,0,8,,,,,,,,,,,1723.3658,1723.8451,1724.1154,1724.883,space,0.6683,,1724.883,23,83,1725.8236,1725.8236,1725.8245,,,,0,31,31,31,1,45,105,,,,,,,,
,,5dd73f496ca7e76e32b1aa16,65af55ae96282ee5a07620ef,2024-01-23_07h00.13.160,bars,2023.2.3,Win32,12.00048002,657b66ea316d21385b68909f,,,,,,,,,,,1725.8247,1726.8174,,,1727.3028,1727.4962,,169,169,,,,,,,,,,,,,,,,bars/048.png,bars/mask007.png,,,,,,,,,,,,4,2,,,,,,,0,6,0,5,,,,,,,,,,,1726.8174,1727.3027,1727.4962,1728.2568,space,0.673,,1728.2569,61,6,1729.2147,1729.2147,1729.2171,,,,0,32,32,32,1,50,175,,,,,,,,
,,5dd73f496ca7e76e32b1aa16,65af55ae96282ee5a07620ef,2024-01-23_07h00.13.160,bars,2023.2.3,Win32,12.00048002,657b66ea316d21385b68909f,,,,,,,,,,,1729.2174,1730.2415,,,1730.7202,1730.9118,,120,120,,,,,,,,,,,,,,,,bars/016.png,bars/mask003.png,,,,,,,,,,,,0,2,,,,,,,0,4,1,4,,,,,,,,,,,1730.2416,1730.7202,1730.9118,1731.9545,space,0.9533,,1731.9545,80,45,1732.8974,1732.8974,1732.8983,,,,0,33,33,33,1,40,165,,,,,,,,
,,5dd73f496ca7e76e32b1aa16,65af55ae96282ee5a07620ef,2024-01-23_07h00.13.160,bars,2023.2.3,Win32,12.00048002,657b66ea316d21385b68909f,,,,,,,,,,,1732.8986,1733.8401,,,1734.321,1734.5136,,166,166,,,,,,,,,,,,,,,,bars/027.png,bars/mask000.png,,,,,,,,,,,,0,1,,,,,,,0,6,1,6,,,,,,,,,,,1733.8401,1734.3209,1734.5136,1735.2857,space,0.6839,,1735.2857,56,64,1736.2263,1736.2264,1736.229,,,,0,34,34,34,1,110,50,,,,,,,,
,,5dd73f496ca7e76e32b1aa16,65af55ae96282ee5a07620ef,2024-01-23_07h00.13.160,bars,2023.2.3,Win32,12.00048002,657b66ea316d21385b68909f,,,,,,,,,,,1736.2293,1737.1741,,,1737.6673,1737.8597,,56,56,,,,,,,,,,,,,,,,bars/022.png,bars/mask003.png,,,,,,,,,,,,0,2,,,,,,,2,8,2,7,,,,,,,,,,,1737.1742,1737.6673,1737.8598,1738.6374,space,0.6909,,1738.6375,39,36,1739.5808,1739.5809,1739.5832,,,,0,35,35,35,1,95,20,,,,,,,,
,,5dd73f496ca7e76e32b1aa16,65af55ae96282ee5a07620ef,2024-01-23_07h00.13.160,bars,2023.2.3,Win32,12.00048002,657b66ea316d21385b68909f,,,,,,,,,,,1739.5835,1740.5233,,,1741.0029,1741.1964,,120,120,,,,,,,,,,,,,,,,bars/012.png,bars/mask000.png,,,,,,,,,,,,0,1,,,,,,,4,6,4,6,,,,,,,,,,,1740.5233,1741.0027,1741.1964,1741.9562,space,0.6726,,1741.9562,30,75,1742.9181,1742.9181,1742.9202,,,,0,36,36,36,1,90,15,,,,,,,,
,,5dd73f496ca7e76e32b1aa16,65af55ae96282ee5a07620ef,2024-01-23_07h00.13.160,bars,2023.2.3,Win32,12.00048002,657b66ea316d21385b68909f,,,,,,,,,,,1742.9205,1743.8582,,,1744.3355,1744.53,,112,112,,,,,,,,,,,,,,,,bars/035.png,bars/mask000.png,,,,,,,,,,,,0,2,,,,,,,6,8,6,8,,,,,,,,,,,1743.8582,1744.3355,1744.53,1745.2871,space,0.6703,,1745.2871,63,52,1746.2323,1746.2324,1746.2352,,,,0,37,37,37,1,175,60,,,,,,,,
,,5dd73f496ca7e76e32b1aa16,65af55ae96282ee5a07620ef,2024-01-23_07h00.13.160,bars,2023.2.3,Win32,12.00048002,657b66ea316d21385b68909f,,,,,,,,,,,1746.2355,1747.1875,,,1747.6813,1747.8743,,0,0,,,,,,,,,,,,,,,,bars/026.png,bars/mask007.png,,,,,,,,,,,,0,1,,,,,,,8,6,8,6,,,,,,,,,,,1747.1876,1747.6813,1747.8743,1748.632,space,0.6698,,1748.6321,35,85,1749.5699,1749.5699,1749.5724,,,,0,38,38,38,1,35,85,,,,,,,,
,,5dd73f496ca7e76e32b1aa16,65af55ae96282ee5a07620ef,2024-01-23_07h00.13.160,bars,2023.2.3,Win32,12.00048002,657b66ea316d21385b68909f,,,,,,,,,,,1749.5727,1750.516,,,1750.9984,1751.1909,,152,152,,,,,,,,,,,,,,,,bars/018.png,bars/mask004.png,,,,,,,,,,,,4,1,,,,,,,6,4,4,4,,,,,,,,,,,1750.5161,1750.9983,1751.1909,1751.8558,space,0.5772,,1751.8559,2,62,1752.8128,1752.8128,1752.8137,,,,0,39,39,39,1,150,90,,,,,,,,
,,5dd73f496ca7e76e32b1aa16,65af55ae96282ee5a07620ef,2024-01-23_07h00.13.160,bars,2023.2.3,Win32,12.00048002,657b66ea316d21385b68909f,,,,,,,,,,,1752.814,1753.7525,,,1754.2308,1754.4223,,45,45,,,,,,,,,,,,,,,,bars/008.png,bars/mask007.png,,,,,,,,,,,,0,2,,,,,,,4,6,5,5,,,,,,,,,,,1753.7525,1754.2308,1754.4223,1755.1801,space,0.6678,,1755.1802,65,45,1756.1358,1756.1359,1756.1383,,,,0,40,40,40,1,110,0,,,,,,,,
,,5dd73f496ca7e76e32b1aa16,65af55ae96282ee5a07620ef,2024-01-23_07h00.13.160,bars,2023.2.3,Win32,12.00048002,657b66ea316d21385b68909f,,,,,,,,,,,1756.1386,1757.0983,,,1757.5788,1757.7727,,27,27,,,,,,,,,,,,,,,,bars/019.png,bars/mask008.png,,,,,,,,,,,,3,1,,,,,,,6,8,8,8,,,,,,,,,,,1757.0984,1757.5788,1757.7728,1758.5293,space,0.669,,1758.5293,18,78,1759.5121,1759.5122,1759.5147,,,,0,41,41,41,1,45,105,,,,,,,,
,,5dd73f496ca7e76e32b1aa16,65af55ae96282ee5a07620ef,2024-01-23_07h00.13.160,bars,2023.2.3,Win32,12.00048002,657b66ea316d21385b68909f,,,,,,,,,,,1759.515,1760.4569,,,1760.9365,1761.1305,,67,67,,,,,,,,,,,,,,,,bars/002.png,bars/mask003.png,,,,,,,,,,,,3,2,,,,,,,8,6,7,7,,,,,,,,,,,1760.4569,1760.9365,1761.1305,1761.697,space,0.4795,,1761.697,63,18,1762.6367,1762.6368,1762.6392,,,,0,42,42,42,1,130,85,,,,,,,,
,,5dd73f496ca7e76e32b1aa16,65af55ae96282ee5a07620ef,2024-01-23_07h00.13.160,bars,2023.2.3,Win32,12.00048002,657b66ea316d21385b68909f,,,,,,,,,,,1762.6395,1763.5804,,,1764.1448,1764.3815,,87,87,,,,,,,,,,,,,,,,bars/023.png,bars/mask008.png,,,,,,,,,,,,0,2,,,,,,,6,4,6,5,,,,,,,,,,,1763.5804,1764.1448,1764.3816,1765.0754,space,0.6066,,1765.0755,67,28,1766.0357,1766.0357,1766.0365,,,,0,43,43,43,1,20,115,,,,,,,,
,,5dd73f496ca7e76e32b1aa16,65af55ae96282ee5a07620ef,2024-01-23_07h00.13.160,bars,2023.2.3,Win32,12.00048002,657b66ea316d21385b68909f,,,,,,,,,,,1766.0367,1766.9765,,,1767.4567,1767.6481,,39,39,,,,,,,,,,,,,,,,bars/037.png,bars/mask009.png,,,,,,,,,,,,0,2,,,,,,,4,2,5,2,,,,,,,,,,,1766.9765,1767.4566,1767.6482,1768.4134,space,0.6779,,1768.4134,69,66,1769.3664,1769.3664,1769.3672,,,,0,44,44,44,1,150,105,,,,,,,,
,,5dd73f496ca7e76e32b1aa16,65af55ae96282ee5a07620ef,2024-01-23_07h00.13.160,bars,2023.2.3,Win32,12.00048002,657b66ea316d21385b68909f,,,,,,,,,,,1769.3674,1770.3091,,,1770.7895,1770.9826,,92,92,,,,,,,,,,,,,,,,bars/032.png,bars/mask001.png,,,,,,,,,,,,0,1,,,,,,,2,0,4,0,,,,,,,,,,,1770.3092,1770.7894,1770.9827,1771.8334,space,0.7631,,1771.8334,33,72,1772.78,1772.78,1772.7824,,,,0,45,45,45,1,125,20,,,,,,,,
,,5dd73f496ca7e76e32b1aa16,65af55ae96282ee5a07620ef,2024-01-23_07h00.13.160,bars,2023.2.3,Win32,12.00048002,657b66ea316d21385b68909f,,,,,,,,,,,1772.7828,1773.7476,,,1774.2391,1774.4304,,92,92,,,,,,,,,,,,,,,,bars/002.png,bars/mask002.png,,,,,,,,,,,,0,2,,,,,,,4,0,2,0,,,,,,,,,,,1773.7477,1774.2391,1774.4304,1784.6286,space,10.11,,1784.6287,38,7,1785.5686,1785.5686,1785.5815,,,,0,46,46,46,1,130,85,,,,,,,,
,,5dd73f496ca7e76e32b1aa16,65af55ae96282ee5a07620ef,2024-01-23_07h00.13.160,bars,2023.2.3,Win32,12.00048002,657b66ea316d21385b68909f,,,,,,,,,,,1785.5817,1786.5172,,,1787.0336,1787.221,,69,69,,,,,,,,,,,,,,,,bars/019.png,bars/mask000.png,,,,,,,,,,,,0,1,,,,,,,2,2,1,1,,,,,,,,,,,1786.5173,1787.0335,1787.2212,1790.9094,space,3.6007,,1790.9095,24,36,1791.8677,1791.8678,1791.8834,,,,0,47,47,47,1,45,105,,,,,,,,
,,5dd73f496ca7e76e32b1aa16,65af55ae96282ee5a07620ef,2024-01-23_07h00.13.160,bars,2023.2.3,Win32,12.00048002,657b66ea316d21385b68909f,,,,,,,,,,,1791.8836,1792.8362,,,1793.3235,1793.5157,,15,15,,,,,,,,,,,,,,,,bars/009.png,bars/mask004.png,,,,,,,,,,,,4,1,,,,,,,4,0,4,0,,,,,,,,,,,1792.8363,1793.3235,1793.5158,1794.2763,space,0.6733,,1794.2763,0,90,1795.2191,1795.2191,1795.2199,,,,0,48,48,48,1,15,105,,,,,,,,
,,5dd73f496ca7e76e32b1aa16,65af55ae96282ee5a07620ef,2024-01-23_07h00.13.160,bars,2023.2.3,Win32,12.00048002,657b66ea316d21385b68909f,,,,,,,,,,,1795.2202,1796.1616,,,1796.6398,1796.8324,,24,24,,,,,,,,,,,,,,,,bars/000.png,bars/mask008.png,,,,,,,,,,,,3,1,,,,,,,6,0,6,1,,,,,,,,,,,1796.1616,1796.6398,1796.8324,1798.6271,space,1.7073,,1798.6271,16,59,1799.5683,1799.5683,1799.5691,,,,0,49,49,49,1,40,145,,,,,,,,
,,5dd73f496ca7e76e32b1aa16,65af55ae96282ee5a07620ef,2024-01-23_07h00.13.160,bars,2023.2.3,Win32,12.00048002,657b66ea316d21385b68909f,,,,,,,,,,,,,,,,,,,,,,,,,,,,,,,,,,,,,,,,,,,,,,,,,,,,,,,,,,,,,,,,,,,,,,,,,,,,,,,,,,,,,,,,,,,,,1799.5691,1859.5619,0,2,2,3,1,sequence_tables/blk030.csv
,,5dd73f496ca7e76e32b1aa16,65af55ae96282ee5a07620ef,2024-01-23_07h00.13.160,bars,2023.2.3,Win32,12.00048002,657b66ea316d21385b68909f,,,,,,,,,,,1861.0938,1862.0336,,,1862.524,1862.7523,,22,22,,,,,,,,,,,,,,,,bars/015.png,bars/mask003.png,,,,,,,,,,,,0,2,,,,,,,7,3,7,3,,,,,,1859.5755,1861.0896,space,1.4325,,1862.0336,1862.524,1862.7523,1863.7265,space,0.8885,,1863.7265,88,42,1864.6725,1864.6725,1864.6751,,,,0,0,0,0,1,110,160,,,,,,,,
,,5dd73f496ca7e76e32b1aa16,65af55ae96282ee5a07620ef,2024-01-23_07h00.13.160,bars,2023.2.3,Win32,12.00048002,657b66ea316d21385b68909f,,,,,,,,,,,1864.6753,1865.6182,,,1866.0994,1866.2919,,19,19,,,,,,,,,,,,,,,,bars/007.png,bars/mask006.png,,,,,,,,,,,,1,1,,,,,,,5,1,7,0,,,,,,,,,,,1865.6182,1866.0994,1866.2919,1867.0499,space,0.6703,,1867.0499,24,36,1867.9986,1867.9986,1868.0008,,,,0,1,1,1,1,175,55,,,,,,,,
,,5dd73f496ca7e76e32b1aa16,65af55ae96282ee5a07620ef,2024-01-23_07h00.13.160,bars,2023.2.3,Win32,12.00048002,657b66ea316d21385b68909f,,,,,,,,,,,1868.0011,1868.9419,,,1869.4215,1869.6361,,165,165,,,,,,,,,,,,,,,,bars/034.png,bars/mask005.png,,,,,,,,,,,,0,1,,,,,,,7,3,4,2,,,,,,,,,,,1868.942,1869.4215,1869.6361,1870.2164,space,0.493,,1870.2165,40,80,1871.162,1871.1621,1871.163,,,,0,2,2,2,1,125,65,,,,,,,,
,,5dd73f496ca7e76e32b1aa16,65af55ae96282ee5a07620ef,2024-01-23_07h00.13.160,bars,2023.2.3,Win32,12.00048002,657b66ea316d21385b68909f,,,,,,,,,,,1871.1633,1872.1175,,,1872.6068,1872.8051,,51,51,,,,,,,,,,,,,,,,bars/001.png,bars/mask000.png,,,,,,,,,,,,0,2,,,,,,,9,5,10,5,,,,,,,,,,,1872.1176,1872.6068,1872.8051,1873.4758,space,0.5826,,1873.4758,79,34,1874.4163,1874.4164,1874.4187,,,,0,3,3,3,1,130,85,,,,,,,,
,,5dd73f496ca7e76e32b1aa16,65af55ae96282ee5a07620ef,2024-01-23_07h00.13.160,bars,2023.2.3,Win32,12.00048002,657b66ea316d21385b68909f,,,,,,,,,,,1874.419,1875.3629,,,1875.8426,1876.0357,,95,95,,,,,,,,,,,,,,,,bars/035.png,bars/mask006.png,,,,,,,,,,,,0,2,,,,,,,10,7,10,6,,,,,,,,,,,1875.3629,1875.8426,1876.0357,1876.5077,space,0.3843,,1876.5078,80,35,1877.4517,1877.4518,1877.4527,,,,0,4,4,4,1,175,60,,,,,,,,
,,5dd73f496ca7e76e32b1aa16,65af55ae96282ee5a07620ef,2024-01-23_07h00.13.160,bars,2023.2.3,Win32,12.00048002,657b66ea316d21385b68909f,,,,,,,,,,,1877.4529,1878.3905,,,1878.8683,1879.0633,,107,107,,,,,,,,,,,,,,,,bars/035.png,bars/mask001.png,,,,,,,,,,,,0,2,,,,,,,10,5,10,5,,,,,,,,,,,1878.3906,1878.8682,1879.0634,1880.9713,space,1.8207,,1880.9713,68,47,1881.9226,1881.9227,1881.9358,,,,0,5,5,5,1,175,60,,,,,,,,
,,5dd73f496ca7e76e32b1aa16,65af55ae96282ee5a07620ef,2024-01-23_07h00.13.160,bars,2023.2.3,Win32,12.00048002,657b66ea316d21385b68909f,,,,,,,,,,,1881.9361,1882.88,,,1883.3619,1883.555,,164,164,,,,,,,,,,,,,,,,bars/041.png,bars/mask000.png,,,,,,,,,,,,0,1,,,,,,,10,7,10,7,,,,,,,,,,,1882.88,1883.3619,1883.555,1884.2184,space,0.576,,1884.2185,36,79,1885.163,1885.163,1885.1655,,,,0,6,6,6,1,20,85,,,,,,,,
,,5dd73f496ca7e76e32b1aa16,65af55ae96282ee5a07620ef,2024-01-23_07h00.13.160,bars,2023.2.3,Win32,12.00048002,657b66ea316d21385b68909f,,,,,,,,,,,1885.1659,1886.1095,,,1886.5922,1886.7864,,140,140,,,,,,,,,,,,,,,,bars/026.png,bars/mask002.png,,,,,,,,,,,,0,2,,,,,,,8,5,8,6,,,,,,,,,,,1886.1096,1886.5922,1886.7864,1889.3589,space,2.4845,,1889.359,75,55,1890.3143,1890.3143,1890.3262,,,,0,7,7,7,1,35,85,,,,,,,,
,,5dd73f496ca7e76e32b1aa16,65af55ae96282ee5a07620ef,2024-01-23_07h00.13.160,bars,2023.2.3,Win32,12.00048002,657b66ea316d21385b68909f,,,,,,,,,,,1890.3264,1891.2782,,,1891.7597,1891.9509,,108,108,,,,,,,,,,,,,,,,bars/004.png,bars/mask002.png,,,,,,,,,,,,3,2,,,,,,,6,7,4,7,,,,,,,,,,,1891.2782,1891.7596,1891.9509,1892.5169,space,0.4785,,1892.5169,83,17,1893.4583,1893.4584,1893.4592,,,,0,8,8,8,1,25,125,,,,,,,,
,,5dd73f496ca7e76e32b1aa16,65af55ae96282ee5a07620ef,2024-01-23_07h00.13.160,bars,2023.2.3,Win32,12.00048002,657b66ea316d21385b68909f,,,,,,,,,,,1893.4594,1894.4059,,,1894.8844,1895.0767,,63,63,,,,,,,,,,,,,,,,bars/004.png,bars/mask007.png,,,,,,,,,,,,0,1,,,,,,,4,9,4,9,,,,,,,,,,,1894.4059,1894.8844,1895.0767,1895.5516,space,0.3879,,1895.5517,38,62,1896.5827,1896.5827,1896.5846,,,,0,9,9,9,1,25,125,,,,,,,,
,,5dd73f496ca7e76e32b1aa16,65af55ae96282ee5a07620ef,2024-01-23_07h00.13.160,bars,2023.2.3,Win32,12.00048002,657b66ea316d21385b68909f,,,,,,,,,,,1896.5849,1897.5282,,,1898.0204,1898.2135,,173,173,,,,,,,,,,,,,,,,bars/026.png,bars/mask001.png,,,,,,,,,,,,0,1,,,,,,,2,7,3,5,,,,,,,,,,,1897.5282,1898.0203,1898.2135,1898.7936,space,0.4929,,1898.7936,42,88,1899.7461,1899.7461,1899.7469,,,,0,10,10,10,1,35,85,,,,,,,,
,,5dd73f496ca7e76e32b1aa16,65af55ae96282ee5a07620ef,2024-01-23_07h00.13.160,bars,2023.2.3,Win32,12.00048002,657b66ea316d21385b68909f,,,,,,,,,,,1899.7471,1900.6879,,,1901.1672,1901.3603,,123,123,,,,,,,,,,,,,,,,bars/049.png,bars/mask001.png,,,,,,,,,,,,4,2,,,,,,,0,5,0,6,,,,,,,,,,,1900.688,1901.1672,1901.3604,1902.0215,space,0.5741,,1902.0215,37,8,1902.9659,1902.9659,1902.9681,,,,0,11,11,11,1,160,115,,,,,,,,
,,5dd73f496ca7e76e32b1aa16,65af55ae96282ee5a07620ef,2024-01-23_07h00.13.160,bars,2023.2.3,Win32,12.00048002,657b66ea316d21385b68909f,,,,,,,,,,,1902.9684,1903.9095,,,1904.3997,1904.593,,28,28,,,,,,,,,,,,,,,,bars/011.png,bars/mask007.png,,,,,,,,,,,,0,1,,,,,,,0,3,1,2,,,,,,,,,,,1903.9095,1904.3996,1904.5931,1905.1656,space,0.4848,,1905.1656,48,57,1906.1093,1906.1094,1906.1118,,,,0,12,12,12,1,160,85,,,,,,,,
,,5dd73f496ca7e76e32b1aa16,65af55ae96282ee5a07620ef,2024-01-23_07h00.13.160,bars,2023.2.3,Win32,12.00048002,657b66ea316d21385b68909f,,,,,,,,,,,1906.1121,1907.0582,,,1907.5656,1907.757,,96,96,,,,,,,,,,,,,,,,bars/002.png,bars/mask002.png,,,,,,,,,,,,1,2,,,,,,,0,1,0,1,,,,,,,,,,,1907.0583,1907.5656,1907.7571,1908.0443,space,0.1995,,1908.0443,34,11,1909.0743,1909.0743,1909.0781,,,,0,13,13,13,1,130,85,,,,,,,,
,,5dd73f496ca7e76e32b1aa16,65af55ae96282ee5a07620ef,2024-01-23_07h00.13.160,bars,2023.2.3,Win32,12.00048002,657b66ea316d21385b68909f,,,,,,,,,,,1909.0787,1910.1084,,,1910.5991,1910.792,,31,31,,,,,,,,,,,,,,,,bars/013.png,bars/mask003.png,,,,,,,,,,,,1,2,,,,,,,2,3,4,4,,,,,,,,,,,1910.1085,1910.5991,1910.792,1911.4726,space,0.5932,,1911.4726,44,21,1912.414,1912.4141,1912.4148,,,,0,14,14,14,1,75,10,,,,,,,,
,,5dd73f496ca7e76e32b1aa16,65af55ae96282ee5a07620ef,2024-01-23_07h00.13.160,bars,2023.2.3,Win32,12.00048002,657b66ea316d21385b68909f,,,,,,,,,,,1912.4151,1913.3565,,,1913.8393,1914.0318,,150,150,,,,,,,,,,,,,,,,bars/045.png,bars/mask003.png,,,,,,,,,,,,0,2,,,,,,,4,5,4,5,,,,,,,,,,,1913.3566,1913.8392,1914.0319,1914.6193,space,0.4987,,1914.6194,50,40,1915.5668,1915.5669,1915.5676,,,,0,15,15,15,1,100,10,,,,,,,,
,,5dd73f496ca7e76e32b1aa16,65af55ae96282ee5a07620ef,2024-01-23_07h00.13.160,bars,2023.2.3,Win32,12.00048002,657b66ea316d21385b68909f,,,,,,,,,,,1915.5678,1916.5329,,,1917.0154,1917.2073,,46,46,,,,,,,,,,,,,,,,bars/010.png,bars/mask001.png,,,,,,,,,,,,4,2,,,,,,,6,7,4,6,,,,,,,,,,,1916.533,1917.0153,1917.2073,1917.6009,space,0.3,,1917.6009,61,9,1918.5548,1918.5548,1918.5558,,,,0,16,16,16,1,165,55,,,,,,,,
,,5dd73f496ca7e76e32b1aa16,65af55ae96282ee5a07620ef,2024-01-23_07h00.13.160,bars,2023.2.3,Win32,12.00048002,657b66ea316d21385b68909f,,,,,,,,,,,1918.556,1919.4975,,,1919.9793,1920.1698,,112,112,,,,,,,,,,,,,,,,bars/021.png,bars/mask001.png,,,,,,,,,,,,0,2,,,,,,,4,5,5,5,,,,,,,,,,,1919.4975,1919.9792,1920.1698,1920.844,space,0.5856,,1920.844,43,42,1921.8114,1921.8114,1921.8121,,,,0,17,17,17,1,155,70,,,,,,,,
,,5dd73f496ca7e76e32b1aa16,65af55ae96282ee5a07620ef,2024-01-23_07h00.13.160,bars,2023.2.3,Win32,12.00048002,657b66ea316d21385b68909f,,,,,,,,,,,1921.8124,1922.7786,,,1923.2762,1923.4698,,89,89,,,,,,,,,,,,,,,,bars/019.png,bars/mask009.png,,,,,,,,,,,,1,2,,,,,,,6,3,5,3,,,,,,,,,,,1922.7786,1923.2761,1923.4699,1923.9442,space,0.3859,,1923.9442,44,16,1924.8891,1924.8892,1924.8899,,,,0,18,18,18,1,45,105,,,,,,,,
,,5dd73f496ca7e76e32b1aa16,65af55ae96282ee5a07620ef,2024-01-23_07h00.13.160,bars,2023.2.3,Win32,12.00048002,657b66ea316d21385b68909f,,,,,,,,,,,1924.8901,1925.8564,,,1926.3498,1926.5409,,87,87,,,,,,,,,,,,,,,,bars/008.png,bars/mask007.png,,,,,,,,,,,,1,1,,,,,,,4,1,5,0,,,,,,,,,,,1925.8564,1926.3498,1926.541,1927.1109,space,0.4824,,1927.1109,23,87,1928.0628,1928.0629,1928.065,,,,0,19,19,19,1,110,0,,,,,,,,
,,5dd73f496ca7e76e32b1aa16,65af55ae96282ee5a07620ef,2024-01-23_07h00.13.160,bars,2023.2.3,Win32,12.00048002,657b66ea316d21385b68909f,,,,,,,,,,,1928.0652,1929.0076,,,1929.4882,1929.6812,,71,71,,,,,,,,,,,,,,,,bars/012.png,bars/mask005.png,,,,,,,,,,,,1,1,,,,,,,2,3,2,3,,,,,,,,,,,1929.0076,1929.4882,1929.6813,1930.3469,space,0.5759,,1930.347,19,56,1931.2914,1931.2914,1931.2922,,,,0,20,20,20,1,90,15,,,,,,,,
,,5dd73f496ca7e76e32b1aa16,65af55ae96282ee5a07620ef,2024-01-23_07h00.13.160,bars,2023.2.3,Win32,12.00048002,657b66ea316d21385b68909f,,,,,,,,,,,1931.2925,1932.2786,,,1932.7595,1932.9522,,169,169,,,,,,,,,,,,,,,,bars/039.png,bars/mask002.png,,,,,,,,,,,,3,1,,,,,,,4,5,4,4,,,,,,,,,,,1932.2786,1932.7595,1932.9522,1933.6149,space,0.5751,,1933.615,6,64,1934.5804,1934.5805,1934.5812,,,,0,21,21,21,1,175,105,,,,,,,,
,,5dd73f496ca7e76e32b1aa16,65af55ae96282ee5a07620ef,2024-01-23_07h00.13.160,bars,2023.2.3,Win32,12.00048002,657b66ea316d21385b68909f,,,,,,,,,,,1934.5814,1935.5587,,,1936.0414,1936.2337,,105,105,,,,,,,,,,,,,,,,bars/008.png,bars/mask007.png,,,,,,,,,,,,3,1,,,,,,,2,3,3,2,,,,,,,,,,,1935.5588,1936.0413,1936.2337,1936.8021,space,0.4803,,1936.8021,5,75,1937.7476,1937.7476,1937.7483,,,,0,22,22,22,1,110,0,,,,,,,,
,,5dd73f496ca7e76e32b1aa16,65af55ae96282ee5a07620ef,2024-01-23_07h00.13.160,bars,2023.2.3,Win32,12.00048002,657b66ea316d21385b68909f,,,,,,,,,,,1937.7485,1938.7384,,,1939.2196,1939.4111,,96,96,,,,,,,,,,,,,,,,bars/013.png,bars/mask001.png,,,,,,,,,,,,0,1,,,,,,,0,1,1,0,,,,,,,,,,,1938.7385,1939.2196,1939.4111,1939.9811,space,0.4821,,1939.9811,21,86,1940.9292,1940.9292,1940.93,,,,0,23,23,23,1,75,10,,,,,,,,
,,5dd73f496ca7e76e32b1aa16,65af55ae96282ee5a07620ef,2024-01-23_07h00.13.160,bars,2023.2.3,Win32,12.00048002,657b66ea316d21385b68909f,,,,,,,,,,,1940.9301,1941.892,,,1942.3842,1942.5765,,147,147,,,,,,,,,,,,,,,,bars/021.png,bars/mask002.png,,,,,,,,,,,,0,1,,,,,,,0,0,0,1,,,,,,,,,,,1941.8921,1942.3842,1942.5765,1943.2575,space,0.5942,,1943.2576,8,77,1944.2149,1944.2149,1944.216,,,,0,24,24,24,1,155,70,,,,,,,,
,,5dd73f496ca7e76e32b1aa16,65af55ae96282ee5a07620ef,2024-01-23_07h00.13.160,bars,2023.2.3,Win32,12.00048002,657b66ea316d21385b68909f,,,,,,,,,,,1944.2164,1945.1604,,,1945.6388,1945.8307,,122,122,,,,,,,,,,,,,,,,bars/022.png,bars/mask000.png,,,,,,,,,,,,0,1,,,,,,,0,0,0,1,,,,,,,,,,,1945.1604,1945.6388,1945.8307,1946.5887,space,0.6707,,1946.5888,27,78,1947.535,1947.5351,1947.536,,,,0,25,25,25,1,95,20,,,,,,,,
,,5dd73f496ca7e76e32b1aa16,65af55ae96282ee5a07620ef,2024-01-23_07h00.13.160,bars,2023.2.3,Win32,12.00048002,657b66ea316d21385b68909f,,,,,,,,,,,1947.5363,1948.4618,,,1948.9118,1949.1965,,78,78,,,,,,,,,,,,,,,,bars/015.png,bars/mask003.png,,,,,,,,,,,,0,1,,,,,,,0,0,1,0,,,,,,,,,,,1948.4619,1948.9118,1949.1965,1949.7827,space,0.4859,,1949.7827,32,82,1950.7251,1950.7251,1950.7259,,,,0,26,26,26,1,110,160,,,,,,,,
,,5dd73f496ca7e76e32b1aa16,65af55ae96282ee5a07620ef,2024-01-23_07h00.13.160,bars,2023.2.3,Win32,12.00048002,657b66ea316d21385b68909f,,,,,,,,,,,1950.7261,1951.6941,,,1952.191,1952.384,,107,107,,,,,,,,,,,,,,,,bars/003.png,bars/mask008.png,,,,,,,,,,,,0,2,,,,,,,0,2,1,2,,,,,,,,,,,1951.6942,1952.191,1952.384,1952.5757,space,0.1037,,1952.5759,82,33,1953.597,1953.5971,1953.5996,,,,0,27,27,27,1,25,140,,,,,,,,
,,5dd73f496ca7e76e32b1aa16,65af55ae96282ee5a07620ef,2024-01-23_07h00.13.160,bars,2023.2.3,Win32,12.00048002,657b66ea316d21385b68909f,,,,,,,,,,,1953.6,1954.5559,,,1955.0398,1955.2344,,126,126,,,,,,,,,,,,,,,,bars/030.png,bars/mask002.png,,,,,,,,,,,,1,1,,,,,,,2,4,1,6,,,,,,,,,,,1954.5559,1955.0397,1955.2344,1955.8042,space,0.4817,,1955.8042,14,61,1956.7861,1956.7862,1956.7884,,,,0,28,28,28,1,140,65,,,,,,,,
,,5dd73f496ca7e76e32b1aa16,65af55ae96282ee5a07620ef,2024-01-23_07h00.13.160,bars,2023.2.3,Win32,12.00048002,657b66ea316d21385b68909f,,,,,,,,,,,1956.7888,1957.7334,,,1958.2346,1958.4291,,155,155,,,,,,,,,,,,,,,,bars/039.png,bars/mask002.png,,,,,,,,,,,,0,1,,,,,,,0,2,0,2,,,,,,,,,,,1957.7334,1958.2346,1958.4292,1959.4735,space,0.9558,,1959.4735,20,50,1960.4177,1960.4178,1960.4186,,,,0,29,29,29,1,175,105,,,,,,,,
,,5dd73f496ca7e76e32b1aa16,65af55ae96282ee5a07620ef,2024-01-23_07h00.13.160,bars,2023.2.3,Win32,12.00048002,657b66ea316d21385b68909f,,,,,,,,,,,1960.4189,1961.4113,,,1961.9108,1962.1502,,9,9,,,,,,,,,,,,,,,,bars/000.png,bars/mask008.png,,,,,,,,,,,,0,1,,,,,,,0,4,1,6,,,,,,,,,,,1961.4114,1961.9108,1962.1504,1962.9089,space,0.6705,,1962.9089,31,44,1963.9035,1963.9036,1963.9045,,,,0,30,30,30,1,40,145,,,,,,,,
,,5dd73f496ca7e76e32b1aa16,65af55ae96282ee5a07620ef,2024-01-23_07h00.13.160,bars,2023.2.3,Win32,12.00048002,657b66ea316d21385b68909f,,,,,,,,,,,1963.9047,1964.8868,,,1965.3551,1965.5578,,17,17,,,,,,,,,,,,,,,,bars/043.png,bars/mask005.png,,,,,,,,,,,,1,1,,,,,,,2,2,2,2,,,,,,,,,,,1964.8868,1965.355,1965.5579,1965.6555,space,0.009,,1965.6555,13,67,1966.6053,1966.6054,1966.6063,,,,0,31,31,31,1,30,130,,,,,,,,
,,5dd73f496ca7e76e32b1aa16,65af55ae96282ee5a07620ef,2024-01-23_07h00.13.160,bars,2023.2.3,Win32,12.00048002,657b66ea316d21385b68909f,,,,,,,,,,,1966.6065,1967.5533,,,1968.0355,1968.2274,,28,28,,,,,,,,,,,,,,,,bars/012.png,bars/mask007.png,,,,,,,,,,,,2,2,,,,,,,4,4,4,3,,,,,,,,,,,1967.5533,1968.0355,1968.2274,1968.8985,space,0.5835,,1968.8985,62,13,1969.8632,1969.8633,1969.8658,,,,0,32,32,32,1,90,15,,,,,,,,
,,5dd73f496ca7e76e32b1aa16,65af55ae96282ee5a07620ef,2024-01-23_07h00.13.160,bars,2023.2.3,Win32,12.00048002,657b66ea316d21385b68909f,,,,,,,,,,,1969.8662,1970.822,,,1971.3167,1971.5083,,75,75,,,,,,,,,,,,,,,,bars/034.png,bars/mask007.png,,,,,,,,,,,,3,2,,,,,,,6,6,6,5,,,,,,,,,,,1970.822,1971.3167,1971.5083,1972.0778,space,0.4814,,1972.0778,50,10,1973.032,1973.0321,1973.0329,,,,0,33,33,33,1,125,65,,,,,,,,
,,5dd73f496ca7e76e32b1aa16,65af55ae96282ee5a07620ef,2024-01-23_07h00.13.160,bars,2023.2.3,Win32,12.00048002,657b66ea316d21385b68909f,,,,,,,,,,,1973.0332,1974.037,,,1974.5215,1974.7147,,100,100,,,,,,,,,,,,,,,,bars/006.png,bars/mask009.png,,,,,,,,,,,,7,2,,,,,,,8,8,7,7,,,,,,,,,,,1974.0371,1974.5215,1974.7147,1975.3777,space,0.5739,,1975.3778,65,0,1976.364,1976.364,1976.3652,,,,0,34,34,34,1,35,100,,,,,,,,
,,5dd73f496ca7e76e32b1aa16,65af55ae96282ee5a07620ef,2024-01-23_07h00.13.160,bars,2023.2.3,Win32,12.00048002,657b66ea316d21385b68909f,,,,,,,,,,,1976.3656,1977.3046,,,1977.7851,1977.9783,,15,15,,,,,,,,,,,,,,,,bars/025.png,bars/mask008.png,,,,,,,,,,,,2,2,,,,,,,6,10,6,10,,,,,,,,,,,1977.3046,1977.7851,1977.9784,1978.7399,space,0.6738,,1978.7399,90,25,1979.7078,1979.708,1979.7088,,,,0,35,35,35,1,105,40,,,,,,,,
,,5dd73f496ca7e76e32b1aa16,65af55ae96282ee5a07620ef,2024-01-23_07h00.13.160,bars,2023.2.3,Win32,12.00048002,657b66ea316d21385b68909f,,,,,,,,,,,1979.709,1980.6654,,,1981.147,1981.342,,142,142,,,,,,,,,,,,,,,,bars/018.png,bars/mask006.png,,,,,,,,,,,,5,1,,,,,,,8,10,7,8,,,,,,,,,,,1980.6655,1981.147,1981.342,1986.721,space,5.2919,,1986.721,8,52,1987.6668,1987.6668,1987.6821,,,,0,36,36,36,1,150,90,,,,,,,,
,,5dd73f496ca7e76e32b1aa16,65af55ae96282ee5a07620ef,2024-01-23_07h00.13.160,bars,2023.2.3,Win32,12.00048002,657b66ea316d21385b68909f,,,,,,,,,,,1987.6823,1988.6552,,,1989.1505,1989.3436,,128,128,,,,,,,,,,,,,,,,bars/028.png,bars/mask008.png,,,,,,,,,,,,7,2,,,,,,,6,10,6,10,,,,,,,,,,,1988.6552,1989.1505,1989.3436,1990.5782,space,1.1458,,1990.5783,83,8,1991.5234,1991.5234,1991.526,,,,0,37,37,37,1,45,120,,,,,,,,
,,5dd73f496ca7e76e32b1aa16,65af55ae96282ee5a07620ef,2024-01-23_07h00.13.160,bars,2023.2.3,Win32,12.00048002,657b66ea316d21385b68909f,,,,,,,,,,,1991.5263,1992.4675,,,1992.9504,1993.1433,,57,57,,,,,,,,,,,,,,,,bars/004.png,bars/mask001.png,,,,,,,,,,,,0,1,,,,,,,8,10,7,10,,,,,,,,,,,1992.4675,1992.9503,1993.1433,1993.8067,space,0.5763,,1993.8067,32,68,1994.7473,1994.7473,1994.7497,,,,0,38,38,38,1,25,125,,,,,,,,
,,5dd73f496ca7e76e32b1aa16,65af55ae96282ee5a07620ef,2024-01-23_07h00.13.160,bars,2023.2.3,Win32,12.00048002,657b66ea316d21385b68909f,,,,,,,,,,,1994.7499,1995.7304,,,1996.2117,1996.404,,74,74,,,,,,,,,,,,,,,,bars/020.png,bars/mask004.png,,,,,,,,,,,,0,1,,,,,,,6,10,6,10,,,,,,,,,,,1995.7305,1996.2116,1996.404,1997.2787,space,0.7863,,1997.2787,41,84,1998.2566,1998.2566,1998.2574,,,,0,39,39,39,1,115,170,,,,,,,,
,,5dd73f496ca7e76e32b1aa16,65af55ae96282ee5a07620ef,2024-01-23_07h00.13.160,bars,2023.2.3,Win32,12.00048002,657b66ea316d21385b68909f,,,,,,,,,,,1998.2577,1999.1983,,,1999.6775,1999.8733,,102,102,,,,,,,,,,,,,,,,bars/002.png,bars/mask009.png,,,,,,,,,,,,4,2,,,,,,,8,10,9,10,,,,,,,,,,,1999.1983,1999.6775,1999.8733,2000.8261,space,0.8646,,2000.8261,28,17,2001.822,2001.822,2001.8245,,,,0,40,40,40,1,130,85,,,,,,,,
,,5dd73f496ca7e76e32b1aa16,65af55ae96282ee5a07620ef,2024-01-23_07h00.13.160,bars,2023.2.3,Win32,12.00048002,657b66ea316d21385b68909f,,,,,,,,,,,2001.8248,2002.7694,,,2003.2513,2003.4473,,143,143,,,,,,,,,,,,,,,,bars/040.png,bars/mask009.png,,,,,,,,,,,,5,1,,,,,,,6,8,5,7,,,,,,,,,,,2002.7695,2003.2512,2003.4473,2004.6771,space,1.1412,,2004.6771,3,42,2005.623,2005.623,2005.6254,,,,0,41,41,41,1,140,5,,,,,,,,
,,5dd73f496ca7e76e32b1aa16,65af55ae96282ee5a07620ef,2024-01-23_07h00.13.160,bars,2023.2.3,Win32,12.00048002,657b66ea316d21385b68909f,,,,,,,,,,,2005.6256,2006.6006,,,2007.0954,2007.2873,,125,125,,,,,,,,,,,,,,,,bars/003.png,bars/mask007.png,,,,,,,,,,,,4,2,,,,,,,8,10,9,8,,,,,,,,,,,2006.6007,2007.0953,2007.2874,2008.7125,space,1.3381,,2008.7125,80,15,2009.6596,2009.6596,2009.6618,,,,0,42,42,42,1,25,140,,,,,,,,
,,5dd73f496ca7e76e32b1aa16,65af55ae96282ee5a07620ef,2024-01-23_07h00.13.160,bars,2023.2.3,Win32,12.00048002,657b66ea316d21385b68909f,,,,,,,,,,,2009.662,2010.6244,,,2011.0625,2011.2576,,90,90,,,,,,,,,,,,,,,,bars/038.png,bars/mask000.png,,,,,,,,,,,,3,2,,,,,,,10,8,8,8,,,,,,,,,,,2010.6244,2011.0623,2011.2577,2012.0351,space,0.6876,,2012.0352,75,20,2012.9933,2012.9933,2012.9943,,,,0,43,43,43,1,165,70,,,,,,,,
,,5dd73f496ca7e76e32b1aa16,65af55ae96282ee5a07620ef,2024-01-23_07h00.13.160,bars,2023.2.3,Win32,12.00048002,657b66ea316d21385b68909f,,,,,,,,,,,2012.9946,2013.9403,,,2014.4574,2014.7274,,110,110,,,,,,,,,,,,,,,,bars/044.png,bars/mask001.png,,,,,,,,,,,,0,1,,,,,,,10,6,9,8,,,,,,,,,,,2013.9403,2014.4573,2014.7277,2015.4319,space,0.5833,,2015.4319,35,45,2016.4502,2016.4502,2016.4529,,,,0,44,44,44,1,75,155,,,,,,,,
,,5dd73f496ca7e76e32b1aa16,65af55ae96282ee5a07620ef,2024-01-23_07h00.13.160,bars,2023.2.3,Win32,12.00048002,657b66ea316d21385b68909f,,,,,,,,,,,2016.4533,2017.4703,,,2017.9131,2018.119,,38,38,,,,,,,,,,,,,,,,bars/048.png,bars/mask000.png,,,,,,,,,,,,6,1,,,,,,,10,4,10,7,,,,,,,,,,,2017.4703,2017.913,2018.119,2018.8779,space,0.6693,,2018.878,12,43,2019.838,2019.838,2019.8388,,,,0,45,45,45,1,50,175,,,,,,,,
,,5dd73f496ca7e76e32b1aa16,65af55ae96282ee5a07620ef,2024-01-23_07h00.13.160,bars,2023.2.3,Win32,12.00048002,657b66ea316d21385b68909f,,,,,,,,,,,2019.8389,2020.7812,,,2021.2616,2021.4526,,34,34,,,,,,,,,,,,,,,,bars/049.png,bars/mask000.png,,,,,,,,,,,,0,1,,,,,,,8,2,9,1,,,,,,,,,,,2020.7812,2021.2615,2021.4526,2022.2348,space,0.695,,2022.2348,54,81,2023.184,2023.184,2023.1847,,,,0,46,46,46,1,160,115,,,,,,,,
,,5dd73f496ca7e76e32b1aa16,65af55ae96282ee5a07620ef,2024-01-23_07h00.13.160,bars,2023.2.3,Win32,12.00048002,657b66ea316d21385b68909f,,,,,,,,,,,2023.185,2024.2016,,,2024.5504,2024.879,,19,19,,,,,,,,,,,,,,,,bars/039.png,bars/mask008.png,,,,,,,,,,,,1,1,,,,,,,6,4,7,5,,,,,,,,,,,2024.2016,2024.5503,2024.8791,2025.7982,space,0.8139,,2025.7983,24,86,2026.7445,2026.7445,2026.7453,,,,0,47,47,47,1,175,105,,,,,,,,
,,5dd73f496ca7e76e32b1aa16,65af55ae96282ee5a07620ef,2024-01-23_07h00.13.160,bars,2023.2.3,Win32,12.00048002,657b66ea316d21385b68909f,,,,,,,,,,,2026.7455,2027.7017,,,2028.1826,2028.3757,,92,92,,,,,,,,,,,,,,,,bars/048.png,bars/mask006.png,,,,,,,,,,,,0,1,,,,,,,4,2,1,2,,,,,,,,,,,2027.7017,2028.1826,2028.3758,2028.9447,space,0.4799,,2028.9448,42,83,2029.8864,2029.8864,2029.8872,,,,0,48,48,48,1,50,175,,,,,,,,
,,5dd73f496ca7e76e32b1aa16,65af55ae96282ee5a07620ef,2024-01-23_07h00.13.160,bars,2023.2.3,Win32,12.00048002,657b66ea316d21385b68909f,,,,,,,,,,,2029.8875,2030.892,,,2031.3629,2031.5556,,110,110,,,,,,,,,,,,,,,,bars/046.png,bars/mask000.png,,,,,,,,,,,,0,2,,,,,,,6,0,5,0,,,,,,,,,,,2030.8921,2031.3628,2031.5556,2032.3378,space,0.6945,,2032.3379,45,25,2033.3363,2033.3364,2033.3389,,,,0,49,49,49,1,155,85,,,,,,,,
,,5dd73f496ca7e76e32b1aa16,65af55ae96282ee5a07620ef,2024-01-23_07h00.13.160,bars,2023.2.3,Win32,12.00048002,657b66ea316d21385b68909f,,,,,,,,,,,,,,,,,,,,,,,,,,,,,,,,,,,,,,,,,,,,,,,,,,,,,,,,,,,,,,,,,,,,,,,,,,,,,,,,,,,,,,,,,,,,,2033.339,2093.3589,0,3,3,1,1,sequence_tables/blk021.csv
,,5dd73f496ca7e76e32b1aa16,65af55ae96282ee5a07620ef,2024-01-23_07h00.13.160,bars,2023.2.3,Win32,12.00048002,657b66ea316d21385b68909f,,,,,,,,,,,2096.14,2097.0989,,,2097.5794,2097.7723,,144,144,,,,,,,,,,,,,,,,bars/018.png,bars/mask005.png,,,,,,,,,,,,8,1,,,,,,,9,7,10,7,,,,,,2093.3695,2096.1366,space,2.6867,,2097.0989,2097.5793,2097.7723,2098.6245,space,0.764,,2098.6246,6,54,2099.5761,2099.5762,2099.5784,,,,0,0,0,0,1,150,90,,,,,,,,
,,5dd73f496ca7e76e32b1aa16,65af55ae96282ee5a07620ef,2024-01-23_07h00.13.160,bars,2023.2.3,Win32,12.00048002,657b66ea316d21385b68909f,,,,,,,,,,,2099.5787,2100.523,,,2101.0026,2101.1995,,61,61,,,,,,,,,,,,,,,,bars/038.png,bars/mask001.png,,,,,,,,,,,,3,2,,,,,,,7,5,7,4,,,,,,,,,,,2100.523,2101.0025,2101.1995,2102.0582,space,0.7694,,2102.0582,76,9,2103.0389,2103.0391,2103.0417,,,,0,1,1,1,1,165,70,,,,,,,,
,,5dd73f496ca7e76e32b1aa16,65af55ae96282ee5a07620ef,2024-01-23_07h00.13.160,bars,2023.2.3,Win32,12.00048002,657b66ea316d21385b68909f,,,,,,,,,,,2103.042,2103.9979,,,2104.4991,2104.6902,,177,177,,,,,,,,,,,,,,,,bars/002.png,bars/mask001.png,,,,,,,,,,,,0,1,,,,,,,5,7,3,7,,,,,,,,,,,2103.9979,2104.4991,2104.6902,2109.3407,space,4.5613,,2109.3408,47,88,2110.2898,2110.2898,2110.3066,,,,0,2,2,2,1,130,85,,,,,,,,
,,5dd73f496ca7e76e32b1aa16,65af55ae96282ee5a07620ef,2024-01-23_07h00.13.160,bars,2023.2.3,Win32,12.00048002,657b66ea316d21385b68909f,,,,,,,,,,,2110.3068,2111.2451,,,2111.7247,2111.9181,,85,85,,,,,,,,,,,,,,,,bars/046.png,bars/mask004.png,,,,,,,,,,,,6,2,,,,,,,7,5,6,6,,,,,,,,,,,2111.2451,2111.7247,2111.9181,2112.7713,space,0.7643,,2112.7713,70,0,2113.7291,2113.7291,2113.732,,,,0,3,3,3,1,155,85,,,,,,,,
,,5dd73f496ca7e76e32b1aa16,65af55ae96282ee5a07620ef,2024-01-23_07h00.13.160,bars,2023.2.3,Win32,12.00048002,657b66ea316d21385b68909f,,,,,,,,,,,2113.7324,2114.6877,,,2115.1715,2115.3641,,154,154,,,,,,,,,,,,,,,,bars/033.png,bars/mask009.png,,,,,,,,,,,,7,2,,,,,,,9,7,9,7,,,,,,,,,,,2114.6877,2115.1714,2115.3641,2116.1202,space,0.6692,,2116.1203,51,1,2117.0664,2117.0664,2117.0672,,,,0,4,4,4,1,25,155,,,,,,,,
,,5dd73f496ca7e76e32b1aa16,65af55ae96282ee5a07620ef,2024-01-23_07h00.13.160,bars,2023.2.3,Win32,12.00048002,657b66ea316d21385b68909f,,,,,,,,,,,2117.0675,2118.0118,,,2118.4919,2118.6825,,14,14,,,,,,,,,,,,,,,,bars/007.png,bars/mask002.png,,,,,,,,,,,,2,1,,,,,,,7,5,6,5,,,,,,,,,,,2118.0118,2118.4919,2118.6826,2119.6358,space,0.864,,2119.6358,19,41,2120.5833,2120.5833,2120.5861,,,,0,5,5,5,1,175,55,,,,,,,,
,,5dd73f496ca7e76e32b1aa16,65af55ae96282ee5a07620ef,2024-01-23_07h00.13.160,bars,2023.2.3,Win32,12.00048002,657b66ea316d21385b68909f,,,,,,,,,,,2120.5863,2121.5312,,,2122.0112,2122.2235,,48,48,,,,,,,,,,,,,,,,bars/018.png,bars/mask008.png,,,,,,,,,,,,0,2,,,,,,,5,3,5,3,,,,,,,,,,,2121.5312,2122.0112,2122.2235,2123.0837,space,0.7714,,2123.0837,78,42,2124.0482,2124.0482,2124.0508,,,,0,6,6,6,1,150,90,,,,,,,,
,,5dd73f496ca7e76e32b1aa16,65af55ae96282ee5a07620ef,2024-01-23_07h00.13.160,bars,2023.2.3,Win32,12.00048002,657b66ea316d21385b68909f,,,,,,,,,,,2124.0511,2124.9909,,,2125.4731,2125.6641,,49,49,,,,,,,,,,,,,,,,bars/042.png,bars/mask006.png,,,,,,,,,,,,0,2,,,,,,,7,1,7,2,,,,,,,,,,,2124.9909,2125.4731,2125.6641,2126.4209,space,0.6682,,2126.4209,84,26,2127.3614,2127.3614,2127.3623,,,,0,7,7,7,1,145,75,,,,,,,,
,,5dd73f496ca7e76e32b1aa16,65af55ae96282ee5a07620ef,2024-01-23_07h00.13.160,bars,2023.2.3,Win32,12.00048002,657b66ea316d21385b68909f,,,,,,,,,,,2127.3626,2128.3026,,,2128.7809,2128.9889,,118,118,,,,,,,,,,,,,,,,bars/013.png,bars/mask000.png,,,,,,,,,,,,0,1,,,,,,,9,3,9,3,,,,,,,,,,,2128.3026,2128.7809,2128.9889,2129.754,space,0.6749,,2129.754,43,72,2130.6947,2130.6947,2130.6971,,,,0,8,8,8,1,75,10,,,,,,,,
,,5dd73f496ca7e76e32b1aa16,65af55ae96282ee5a07620ef,2024-01-23_07h00.13.160,bars,2023.2.3,Win32,12.00048002,657b66ea316d21385b68909f,,,,,,,,,,,2130.6973,2131.654,,,2132.1473,2132.3411,,29,29,,,,,,,,,,,,,,,,bars/040.png,bars/mask007.png,,,,,,,,,,,,2,2,,,,,,,10,5,10,8,,,,,,,,,,,2131.6541,2132.1473,2132.3411,2133.0964,space,0.6678,,2133.0965,69,24,2134.057,2134.0571,2134.0599,,,,0,9,9,9,1,140,5,,,,,,,,
,,5dd73f496ca7e76e32b1aa16,65af55ae96282ee5a07620ef,2024-01-23_07h00.13.160,bars,2023.2.3,Win32,12.00048002,657b66ea316d21385b68909f,,,,,,,,,,,2134.0602,2135.0741,,,2135.5569,2135.7494,,58,58,,,,,,,,,,,,,,,,bars/035.png,bars/mask000.png,,,,,,,,,,,,5,2,,,,,,,8,7,7,5,,,,,,,,,,,2135.0742,2135.5569,2135.7495,2136.4175,space,0.5784,,2136.4175,63,2,2137.3648,2137.3648,2137.3655,,,,0,10,10,10,1,175,60,,,,,,,,
