init_variables.started,init_variables.stopped,participant,session,date,expName,psychopyVersion,OS,frameRate,study_id,instruction_exp.started,instruction_exp.stopped,key_resp_8.keys,key_resp_8.rt,key_resp_8.duration,instruction_single.started,instruction_single.stopped,key_resp_2.keys,key_resp_2.rt,key_resp_2.duration,interval.started,interval.stopped,cue_single.started,cue_single.stopped,mask.started,mask.stopped,ori_response_single.started,res_ori,res,ori_response_single.stopped,key_resp_single.keys,key_resp_single.rt,key_resp_single.duration,disp_single.started,disp_single.stopped,key_resp.keys,key_resp.rt,key_resp.duration,single.thisRepN,single.thisTrialN,single.thisN,single.thisIndex,single.ran,ori,path,mask_path,instruction_bandit.started,instruction_bandit.stopped,key_resp_6.keys,key_resp_6.rt,key_resp_6.duration,cue_bandit.started,cue_bandit.stopped,bandit_res.keys,bandit_res.rt,bandit_res.duration,outcome_bandit.started,rew,action,outcome_bandit.stopped,bandit.thisRepN,bandit.thisTrialN,bandit.thisN,bandit.thisIndex,bandit.ran,actual_rew1,actual_rew2,rew1,rew2,instruction_task.started,instruction_task.stopped,key_resp_7.keys,key_resp_7.rt,key_resp_7.duration,wait_ready.started,wait_ready.stopped,key_resp_3.keys,key_resp_3.rt,key_resp_3.duration,cue.started,cue.stopped,ori_response.started,ori_response.stopped,key_resp_5.keys,key_resp_5.rt,key_resp_5.duration,outcome.started,diff1,diff2,outcome.stopped,disp_outcome_practice.started,disp_outcome_practice.stopped,key_resp_4.keys,key_resp_4.rt,key_resp_4.duration,trials.thisRepN,trials.thisTrialN,trials.thisN,trials.thisIndex,trials.ran,ori1,ori2,break_blk.started,break_blk.stopped,block.thisRepN,block.thisTrialN,block.thisN,block.thisIndex,block.ran,condition_file
0.0007,0.0009,613b7bdc3a329ab20c067d1a,65af55d2be6af047326a98c0,2024-01-23_24h08.35.388,bars,2023.2.3,Win32,142.8571429,657b66ea316d21385b68909f,,,,,,,,,,,,,,,,,,,,,,,,,,,,,,,,,,,,,,,,,,,,,,,,,,,,,,,,,,,,,,,,,,,,,,,,,,,,,,,,,,,,,,,,,,,,,,,,,,,,
,,613b7bdc3a329ab20c067d1a,65af55d2be6af047326a98c0,2024-01-23_24h08.35.388,bars,2023.2.3,Win32,142.8571429,657b66ea316d21385b68909f,0.0011,448.1558,y,448.1332,,,,,,,,,,,,,,,,,,,,,,,,,,,,,,,,,,,,,,,,,,,,,,,,,,,,,,,,,,,,,,,,,,,,,,,,,,,,,,,,,,,,,,,,,,,,,,,,
,,613b7bdc3a329ab20c067d1a,65af55d2be6af047326a98c0,2024-01-23_24h08.35.388,bars,2023.2.3,Win32,142.8571429,657b66ea316d21385b68909f,,,,,,448.156,458.9971,space,10.8274,,,,,,,,,,,,,,,,,,,,,,,,,,,,,,,,,,,,,,,,,,,,,,,,,,,,,,,,,,,,,,,,,,,,,,,,,,,,,,,,,,,,,,,,,,,
,,613b7bdc3a329ab20c067d1a,65af55d2be6af047326a98c0,2024-01-23_24h08.35.388,bars,2023.2.3,Win32,142.8571429,657b66ea316d21385b68909f,,,,,,,,,,,459.0193,460.006,460.0062,460.4985,460.4986,460.7459,460.7461,1,181,464.7258,space,3.9501,,464.7261,473.1777,space,8.4182,,0,0,0,1,1,20,bars/single001.png,bars/mask006.png,,,,,,,,,,,,,,,,,,,,,,,,,,,,,,,,,,,,,,,,,,,,,,,,,,,,,,,,,,,,,,,,
,,613b7bdc3a329ab20c067d1a,65af55d2be6af047326a98c0,2024-01-23_24h08.35.388,bars,2023.2.3,Win32,142.8571429,657b66ea316d21385b68909f,,,,,,,,,,,473.1924,474.1832,474.1834,474.6833,474.6833,474.9337,474.9337,148,-32,479.6836,space,4.7383,,479.6837,482.5908,space,2.8859,,0,1,1,2,1,145,bars/single002.png,bars/mask003.png,,,,,,,,,,,,,,,,,,,,,,,,,,,,,,,,,,,,,,,,,,,,,,,,,,,,,,,,,,,,,,,,
,,613b7bdc3a329ab20c067d1a,65af55d2be6af047326a98c0,2024-01-23_24h08.35.388,bars,2023.2.3,Win32,142.8571429,657b66ea316d21385b68909f,,,,,,,,,,,482.5912,483.5893,483.5893,484.0862,484.0863,484.3324,484.3324,144,144,488.5312,space,4.1904,,488.5312,489.9059,space,1.3525,,0,2,2,0,1,150,bars/single000.png,bars/mask006.png,,,,,,,,,,,,,,,,,,,,,,,,,,,,,,,,,,,,,,,,,,,,,,,,,,,,,,,,,,,,,,,,
,,613b7bdc3a329ab20c067d1a,65af55d2be6af047326a98c0,2024-01-23_24h08.35.388,bars,2023.2.3,Win32,142.8571429,657b66ea316d21385b68909f,,,,,,,,,,,489.9064,490.9058,490.9059,491.4059,491.4059,491.6558,491.6559,154,-26,496.4827,space,4.8186,,496.4828,498.7461,space,2.2403,,0,3,3,8,1,160,bars/single008.png,bars/mask004.png,,,,,,,,,,,,,,,,,,,,,,,,,,,,,,,,,,,,,,,,,,,,,,,,,,,,,,,,,,,,,,,,
,,613b7bdc3a329ab20c067d1a,65af55d2be6af047326a98c0,2024-01-23_24h08.35.388,bars,2023.2.3,Win32,142.8571429,657b66ea316d21385b68909f,,,,,,,,,,,498.7469,499.7459,499.746,500.2462,500.2462,500.496,500.4961,50,50,501.7252,space,1.217,,501.7254,503.5174,space,1.7839,,0,4,4,7,1,45,bars/single007.png,bars/mask009.png,,,,,,,,,,,,,,,,,,,,,,,,,,,,,,,,,,,,,,,,,,,,,,,,,,,,,,,,,,,,,,,,
,,613b7bdc3a329ab20c067d1a,65af55d2be6af047326a98c0,2024-01-23_24h08.35.388,bars,2023.2.3,Win32,142.8571429,657b66ea316d21385b68909f,,,,,,,,,,,503.5179,504.5168,504.517,505.0169,505.017,505.2671,505.2671,56,236,509.9066,space,4.6326,,509.9067,511.9481,space,2.0186,,0,5,5,9,1,20,bars/single009.png,bars/mask006.png,,,,,,,,,,,,,,,,,,,,,,,,,,,,,,,,,,,,,,,,,,,,,,,,,,,,,,,,,,,,,,,,
,,613b7bdc3a329ab20c067d1a,65af55d2be6af047326a98c0,2024-01-23_24h08.35.388,bars,2023.2.3,Win32,142.8571429,657b66ea316d21385b68909f,,,,,,,,,,,511.9487,512.9484,512.9484,513.4475,513.4476,513.6949,513.6949,29,29,516.9409,space,3.2376,,516.941,518.7538,space,1.8041,,0,6,6,3,1,20,bars/single003.png,bars/mask005.png,,,,,,,,,,,,,,,,,,,,,,,,,,,,,,,,,,,,,,,,,,,,,,,,,,,,,,,,,,,,,,,,
,,613b7bdc3a329ab20c067d1a,65af55d2be6af047326a98c0,2024-01-23_24h08.35.388,bars,2023.2.3,Win32,142.8571429,657b66ea316d21385b68909f,,,,,,,,,,,518.7541,519.7534,519.7534,520.2532,520.2533,520.4986,520.4986,73,73,521.8435,space,1.3313,,521.8435,523.8643,space,2.0079,,0,7,7,5,1,55,bars/single005.png,bars/mask008.png,,,,,,,,,,,,,,,,,,,,,,,,,,,,,,,,,,,,,,,,,,,,,,,,,,,,,,,,,,,,,,,,
,,613b7bdc3a329ab20c067d1a,65af55d2be6af047326a98c0,2024-01-23_24h08.35.388,bars,2023.2.3,Win32,142.8571429,657b66ea316d21385b68909f,,,,,,,,,,,523.865,524.8642,524.8643,525.3642,525.3643,525.6182,525.6183,166,166,526.7681,space,1.143,,526.7681,527.5455,space,0.7696,,0,8,8,6,1,175,bars/single006.png,bars/mask005.png,,,,,,,,,,,,,,,,,,,,,,,,,,,,,,,,,,,,,,,,,,,,,,,,,,,,,,,,,,,,,,,,
,,613b7bdc3a329ab20c067d1a,65af55d2be6af047326a98c0,2024-01-23_24h08.35.388,bars,2023.2.3,Win32,142.8571429,657b66ea316d21385b68909f,,,,,,,,,,,527.5458,528.545,528.5451,529.0448,529.0448,529.2948,529.2948,97,97,530.1008,space,0.7977,,530.1009,530.9691,space,0.8604,,0,9,9,4,1,95,bars/single004.png,bars/mask004.png,,,,,,,,,,,,,,,,,,,,,,,,,,,,,,,,,,,,,,,,,,,,,,,,,,,,,,,,,,,,,,,,
,,613b7bdc3a329ab20c067d1a,65af55d2be6af047326a98c0,2024-01-23_24h08.35.388,bars,2023.2.3,Win32,142.8571429,657b66ea316d21385b68909f,,,,,,,,,,,,,,,,,,,,,,,,,,,,,,,,,,,,,530.9699,818.0142,space,287.0301,,,,,,,,,,,,,,,,,,,,,,,,,,,,,,,,,,,,,,,,,,,,,,,,,,,,,,,,,,,,
,,613b7bdc3a329ab20c067d1a,65af55d2be6af047326a98c0,2024-01-23_24h08.35.388,bars,2023.2.3,Win32,142.8571429,657b66ea316d21385b68909f,,,,,,,,,,,,,,,,,,,,,,,,,,,,,,,,,,,,,,,,,,818.0339,826.3264,left,8.2659,,826.3266,9,1,827.3253,0,0,0,0,1,9,1,9,2,,,,,,,,,,,,,,,,,,,,,,,,,,,,,,,,,,,,,,,,,
,,613b7bdc3a329ab20c067d1a,65af55d2be6af047326a98c0,2024-01-23_24h08.35.388,bars,2023.2.3,Win32,142.8571429,657b66ea316d21385b68909f,,,,,,,,,,,,,,,,,,,,,,,,,,,,,,,,,,,,,,,,,,827.3259,829.4925,right,2.1546,,829.4925,1,2,830.4921,0,1,1,1,1,10,0,10,1,,,,,,,,,,,,,,,,,,,,,,,,,,,,,,,,,,,,,,,,,
,,613b7bdc3a329ab20c067d1a,65af55d2be6af047326a98c0,2024-01-23_24h08.35.388,bars,2023.2.3,Win32,142.8571429,657b66ea316d21385b68909f,,,,,,,,,,,,,,,,,,,,,,,,,,,,,,,,,,,,,,,,,,830.4925,831.0132,left,0.5159,,831.0134,10,1,832.0131,0,2,2,2,1,10,2,10,2,,,,,,,,,,,,,,,,,,,,,,,,,,,,,,,,,,,,,,,,,
,,613b7bdc3a329ab20c067d1a,65af55d2be6af047326a98c0,2024-01-23_24h08.35.388,bars,2023.2.3,Win32,142.8571429,657b66ea316d21385b68909f,,,,,,,,,,,,,,,,,,,,,,,,,,,,,,,,,,,,,,,,,,832.0138,832.3744,left,0.3531,,832.3744,7,1,833.374,0,3,3,3,1,8,4,7,3,,,,,,,,,,,,,,,,,,,,,,,,,,,,,,,,,,,,,,,,,
,,613b7bdc3a329ab20c067d1a,65af55d2be6af047326a98c0,2024-01-23_24h08.35.388,bars,2023.2.3,Win32,142.8571429,657b66ea316d21385b68909f,,,,,,,,,,,,,,,,,,,,,,,,,,,,,,,,,,,,,,,,,,833.3744,833.6041,left,0.2232,,833.6041,5,1,834.6031,0,4,4,4,1,6,2,5,1,,,,,,,,,,,,,,,,,,,,,,,,,,,,,,,,,,,,,,,,,
,,613b7bdc3a329ab20c067d1a,65af55d2be6af047326a98c0,2024-01-23_24h08.35.388,bars,2023.2.3,Win32,142.8571429,657b66ea316d21385b68909f,,,,,,,,,,,,,,,,,,,,,,,,,,,,,,,,,,,,,,,,,,834.6037,834.916,left,0.3048,,834.9161,4,1,835.9157,0,5,5,5,1,4,4,4,4,,,,,,,,,,,,,,,,,,,,,,,,,,,,,,,,,,,,,,,,,
,,613b7bdc3a329ab20c067d1a,65af55d2be6af047326a98c0,2024-01-23_24h08.35.388,bars,2023.2.3,Win32,142.8571429,657b66ea316d21385b68909f,,,,,,,,,,,,,,,,,,,,,,,,,,,,,,,,,,,,,,,,,,835.9161,836.1524,left,0.2302,,836.1525,1,1,837.1527,0,6,6,6,1,2,2,1,2,,,,,,,,,,,,,,,,,,,,,,,,,,,,,,,,,,,,,,,,,
,,613b7bdc3a329ab20c067d1a,65af55d2be6af047326a98c0,2024-01-23_24h08.35.388,bars,2023.2.3,Win32,142.8571429,657b66ea316d21385b68909f,,,,,,,,,,,,,,,,,,,,,,,,,,,,,,,,,,,,,,,,,,837.153,837.292,left,0.1343,,837.292,0,1,838.2964,0,7,7,7,1,0,0,0,1,,,,,,,,,,,,,,,,,,,,,,,,,,,,,,,,,,,,,,,,,
,,613b7bdc3a329ab20c067d1a,65af55d2be6af047326a98c0,2024-01-23_24h08.35.388,bars,2023.2.3,Win32,142.8571429,657b66ea316d21385b68909f,,,,,,,,,,,,,,,,,,,,,,,,,,,,,,,,,,,,,,,,,,838.2969,838.5087,left,0.2069,,838.5089,1,1,839.5099,0,8,8,8,1,0,2,1,0,,,,,,,,,,,,,,,,,,,,,,,,,,,,,,,,,,,,,,,,,
,,613b7bdc3a329ab20c067d1a,65af55d2be6af047326a98c0,2024-01-23_24h08.35.388,bars,2023.2.3,Win32,142.8571429,657b66ea316d21385b68909f,,,,,,,,,,,,,,,,,,,,,,,,,,,,,,,,,,,,,,,,,,839.5103,839.6385,left,0.1197,,839.6385,2,1,840.6384,0,9,9,9,1,2,4,2,3,,,,,,,,,,,,,,,,,,,,,,,,,,,,,,,,,,,,,,,,,
,,613b7bdc3a329ab20c067d1a,65af55d2be6af047326a98c0,2024-01-23_24h08.35.388,bars,2023.2.3,Win32,142.8571429,657b66ea316d21385b68909f,,,,,,,,,,,,,,,,,,,,,,,,,,,,,,,,,,,,,,,,,,840.6388,840.6641,right,0.0152,,840.6641,3,2,841.668,0,10,10,10,1,0,2,0,3,,,,,,,,,,,,,,,,,,,,,,,,,,,,,,,,,,,,,,,,,
,,613b7bdc3a329ab20c067d1a,65af55d2be6af047326a98c0,2024-01-23_24h08.35.388,bars,2023.2.3,Win32,142.8571429,657b66ea316d21385b68909f,,,,,,,,,,,,,,,,,,,,,,,,,,,,,,,,,,,,,,,,,,841.6683,841.7839,left,0.1013,,841.784,0,1,842.7838,0,11,11,11,1,0,4,0,3,,,,,,,,,,,,,,,,,,,,,,,,,,,,,,,,,,,,,,,,,
,,613b7bdc3a329ab20c067d1a,65af55d2be6af047326a98c0,2024-01-23_24h08.35.388,bars,2023.2.3,Win32,142.8571429,657b66ea316d21385b68909f,,,,,,,,,,,,,,,,,,,,,,,,,,,,,,,,,,,,,,,,,,842.7843,842.8955,right,0.105,,842.8955,6,2,843.895,0,12,12,12,1,2,6,1,6,,,,,,,,,,,,,,,,,,,,,,,,,,,,,,,,,,,,,,,,,
,,613b7bdc3a329ab20c067d1a,65af55d2be6af047326a98c0,2024-01-23_24h08.35.388,bars,2023.2.3,Win32,142.8571429,657b66ea316d21385b68909f,,,,,,,,,,,,,,,,,,,,,,,,,,,,,,,,,,,,,,,,,,843.8957,844.1313,left,0.2292,,844.1314,1,1,845.1309,0,13,13,13,1,0,4,1,3,,,,,,,,,,,,,,,,,,,,,,,,,,,,,,,,,,,,,,,,,
,,613b7bdc3a329ab20c067d1a,65af55d2be6af047326a98c0,2024-01-23_24h08.35.388,bars,2023.2.3,Win32,142.8571429,657b66ea316d21385b68909f,,,,,,,,,,,,,,,,,,,,,,,,,,,,,,,,,,,,,,,,,,845.1318,845.1596,right,0.0211,,845.1596,7,2,846.159,0,14,14,14,1,2,6,2,7,,,,,,,,,,,,,,,,,,,,,,,,,,,,,,,,,,,,,,,,,
,,613b7bdc3a329ab20c067d1a,65af55d2be6af047326a98c0,2024-01-23_24h08.35.388,bars,2023.2.3,Win32,142.8571429,657b66ea316d21385b68909f,,,,,,,,,,,,,,,,,,,,,,,,,,,,,,,,,,,,,,,,,,846.1594,846.2634,right,0.0957,,846.2635,9,2,847.2636,0,15,15,15,1,4,8,3,9,,,,,,,,,,,,,,,,,,,,,,,,,,,,,,,,,,,,,,,,,
,,613b7bdc3a329ab20c067d1a,65af55d2be6af047326a98c0,2024-01-23_24h08.35.388,bars,2023.2.3,Win32,142.8571429,657b66ea316d21385b68909f,,,,,,,,,,,,,,,,,,,,,,,,,,,,,,,,,,,,,,,,,,847.2639,847.2992,right,0.0307,,847.2992,7,2,848.2977,0,16,16,16,1,6,6,7,7,,,,,,,,,,,,,,,,,,,,,,,,,,,,,,,,,,,,,,,,,
,,613b7bdc3a329ab20c067d1a,65af55d2be6af047326a98c0,2024-01-23_24h08.35.388,bars,2023.2.3,Win32,142.8571429,657b66ea316d21385b68909f,,,,,,,,,,,,,,,,,,,,,,,,,,,,,,,,,,,,,,,,,,848.2981,848.5635,right,0.2594,,848.5636,5,2,849.5621,0,17,17,17,1,8,4,9,5,,,,,,,,,,,,,,,,,,,,,,,,,,,,,,,,,,,,,,,,,
,,613b7bdc3a329ab20c067d1a,65af55d2be6af047326a98c0,2024-01-23_24h08.35.388,bars,2023.2.3,Win32,142.8571429,657b66ea316d21385b68909f,,,,,,,,,,,,,,,,,,,,,,,,,,,,,,,,,,,,,,,,,,849.5625,849.708,left,0.1396,,849.708,5,1,850.7077,0,18,18,18,1,6,2,5,1,,,,,,,,,,,,,,,,,,,,,,,,,,,,,,,,,,,,,,,,,
,,613b7bdc3a329ab20c067d1a,65af55d2be6af047326a98c0,2024-01-23_24h08.35.388,bars,2023.2.3,Win32,142.8571429,657b66ea316d21385b68909f,,,,,,,,,,,,,,,,,,,,,,,,,,,,,,,,,,,,,,,,,,850.708,850.7982,right,0.0852,,850.7983,0,2,851.7978,0,19,19,19,1,8,0,7,0,,,,,,,,,,,,,,,,,,,,,,,,,,,,,,,,,,,,,,,,,
,,613b7bdc3a329ab20c067d1a,65af55d2be6af047326a98c0,2024-01-23_24h08.35.388,bars,2023.2.3,Win32,142.8571429,657b66ea316d21385b68909f,,,,,,,,,,,,,,,,,,,,,,,,,,,,,,,,,,,,,,,,,,,,,,,,,,,,,,,,,,,,851.7988,1596.028,space,744.2151,,,,,,,,,,,,,,,,,,,,,,,,,,,,,,,,,,,,,
,,613b7bdc3a329ab20c067d1a,65af55d2be6af047326a98c0,2024-01-23_24h08.35.388,bars,2023.2.3,Win32,142.8571429,657b66ea316d21385b68909f,,,,,,,,,,,1597.2917,1598.2943,,,1598.7909,1599.0404,,80,80,,,,,,,,,,,,,,,,bars/000.png,bars/mask009.png,,,,,,,,,,,,0,1,,,,,,,5,5,4,5,,,,,,1596.048,1597.2843,space,1.2249,,1598.2946,1598.7909,1599.0408,1602.9305,space,3.8761,,1602.9309,40,65,1603.9264,1603.9267,1616.3335,space,12.3894,,0,0,0,0,1,40,145,,,,,,,,
,,613b7bdc3a329ab20c067d1a,65af55d2be6af047326a98c0,2024-01-23_24h08.35.388,bars,2023.2.3,Win32,142.8571429,657b66ea316d21385b68909f,,,,,,,,,,,1616.3482,1617.339,,,1617.8393,1618.0893,,46,46,,,,,,,,,,,,,,,,bars/043.png,bars/mask007.png,,,,,,,,,,,,1,1,,,,,,,3,3,2,2,,,,,,,,,,,1617.339,1617.8391,1618.0893,1619.9026,space,1.7993,,1619.9027,16,84,1620.9026,1620.9027,1622.382,space,1.4561,,0,1,1,1,1,30,130,,,,,,,,
,,613b7bdc3a329ab20c067d1a,65af55d2be6af047326a98c0,2024-01-23_24h08.35.388,bars,2023.2.3,Win32,142.8571429,657b66ea316d21385b68909f,,,,,,,,,,,1622.3824,1623.381,,,1623.878,1624.128,,19,19,,,,,,,,,,,,,,,,bars/003.png,bars/mask008.png,,,,,,,,,,,,5,1,,,,,,,5,1,6,1,,,,,,,,,,,1623.3811,1623.878,1624.128,1626.2011,space,2.0645,,1626.2012,6,59,1627.2006,1627.2007,1629.1108,space,1.8873,,0,2,2,2,1,25,140,,,,,,,,
,,613b7bdc3a329ab20c067d1a,65af55d2be6af047326a98c0,2024-01-23_24h08.35.388,bars,2023.2.3,Win32,142.8571429,657b66ea316d21385b68909f,,,,,,,,,,,1629.1115,1630.1101,,,1630.6102,1630.8601,,24,204,,,,,,,,,,,,,,,,bars/023.png,bars/mask004.png,,,,,,,,,,,,4,1,,,,,,,3,3,5,4,,,,,,,,,,,1630.1103,1630.6101,1630.8601,1635.9935,space,5.1224,,1635.9936,4,89,1636.9923,1636.9924,1638.7426,space,1.7261,,0,3,3,3,1,20,115,,,,,,,,
,,613b7bdc3a329ab20c067d1a,65af55d2be6af047326a98c0,2024-01-23_24h08.35.388,bars,2023.2.3,Win32,142.8571429,657b66ea316d21385b68909f,,,,,,,,,,,1638.7429,1639.7428,,,1640.2392,1640.4854,,131,-49,,,,,,,,,,,,,,,,bars/040.png,bars/mask008.png,,,,,,,,,,,,1,1,,,,,,,1,5,1,5,,,,,,,,,,,1639.7428,1640.2391,1640.4854,1644.3481,space,3.8554,,1644.3481,9,54,1645.3465,1645.3466,1647.8746,space,2.5054,,0,4,4,4,1,140,5,,,,,,,,
,,613b7bdc3a329ab20c067d1a,65af55d2be6af047326a98c0,2024-01-23_24h08.35.388,bars,2023.2.3,Win32,142.8571429,657b66ea316d21385b68909f,,,,,,,,,,,1647.8754,1648.8744,,,1649.3744,1649.6246,,63,63,,,,,,,,,,,,,,,,bars/007.png,bars/mask001.png,,,,,,,,,,,,1,2,,,,,,,0,3,0,2,,,,,,,,,,,1648.8745,1649.3742,1649.6247,1652.5154,space,2.88,,1652.5154,68,8,1653.513,1653.5132,1656.194,space,2.6537,,0,5,5,5,1,175,55,,,,,,,,
,,613b7bdc3a329ab20c067d1a,65af55d2be6af047326a98c0,2024-01-23_24h08.35.388,bars,2023.2.3,Win32,142.8571429,657b66ea316d21385b68909f,,,,,,,,,,,1656.1944,1657.1937,,,1657.6938,1657.9438,,24,204,,,,,,,,,,,,,,,,bars/013.png,bars/mask003.png,,,,,,,,,,,,1,2,,,,,,,2,1,3,1,,,,,,,,,,,1657.1939,1657.6937,1657.9439,1662.4028,space,4.4475,,1662.4029,51,14,1663.4021,1663.4022,1665.2183,space,1.795,,0,6,6,6,1,75,10,,,,,,,,
,,613b7bdc3a329ab20c067d1a,65af55d2be6af047326a98c0,2024-01-23_24h08.35.388,bars,2023.2.3,Win32,142.8571429,657b66ea316d21385b68909f,,,,,,,,,,,1665.2187,1666.2148,,,1666.7148,1666.9686,,117,-63,,,,,,,,,,,,,,,,bars/008.png,bars/mask001.png,,,,,,,,,,,,4,1,,,,,,,4,3,5,3,,,,,,,,,,,1666.2149,1666.7148,1666.9687,1672.2651,space,5.2878,,1672.2651,7,63,1673.2635,1673.2635,1674.8611,space,1.5712,,0,7,7,7,1,110,0,,,,,,,,
,,613b7bdc3a329ab20c067d1a,65af55d2be6af047326a98c0,2024-01-23_24h08.35.388,bars,2023.2.3,Win32,142.8571429,657b66ea316d21385b68909f,,,,,,,,,,,1674.8615,1675.8639,,,1676.3606,1676.6144,,12,192,,,,,,,,,,,,,,,,bars/012.png,bars/mask003.png,,,,,,,,,,,,5,2,,,,,,,2,5,1,6,,,,,,,,,,,1675.8639,1676.3606,1676.6144,1679.3617,space,2.7402,,1679.3618,78,3,1680.3609,1680.3609,1683.3923,space,3.0075,,0,8,8,8,1,90,15,,,,,,,,
,,613b7bdc3a329ab20c067d1a,65af55d2be6af047326a98c0,2024-01-23_24h08.35.388,bars,2023.2.3,Win32,142.8571429,657b66ea316d21385b68909f,,,,,,,,,,,1683.4058,1684.3953,,,1684.8954,1685.1459,,89,89,,,,,,,,,,,,,,,,bars/001.png,bars/mask008.png,,,,,,,,,,,,3,2,,,,,,,4,3,4,4,,,,,,,,,,,1684.3953,1684.8953,1685.1459,1689.1669,space,4.0087,,1689.1669,41,4,1690.1663,1690.1664,1691.3747,space,1.1856,,0,9,9,9,1,130,85,,,,,,,,
,,613b7bdc3a329ab20c067d1a,65af55d2be6af047326a98c0,2024-01-23_24h08.35.388,bars,2023.2.3,Win32,142.8571429,657b66ea316d21385b68909f,,,,,,,,,,,1691.3753,1692.3716,,,1692.8676,1693.1175,,107,107,,,,,,,,,,,,,,,,bars/039.png,bars/mask000.png,,,,,,,,,,,,5,2,,,,,,,2,5,3,5,,,,,,,,,,,1692.3717,1692.8676,1693.1177,1695.2154,space,2.0842,,1695.2155,68,2,1696.215,1696.2151,1701.1737,space,4.9497,,0,10,10,10,1,175,105,,,,,,,,
,,613b7bdc3a329ab20c067d1a,65af55d2be6af047326a98c0,2024-01-23_24h08.35.388,bars,2023.2.3,Win32,142.8571429,657b66ea316d21385b68909f,,,,,,,,,,,1701.187,1702.1755,,,1702.6733,1702.9232,,21,21,,,,,,,,,,,,,,,,bars/025.png,bars/mask002.png,,,,,,,,,,,,2,2,,,,,,,0,7,0,6,,,,,,,,,,,1702.1756,1702.6732,1702.9232,1707.8197,space,4.8849,,1707.8197,84,19,1708.8179,1708.818,1709.9518,space,1.1108,,0,11,11,11,1,105,40,,,,,,,,
,,613b7bdc3a329ab20c067d1a,65af55d2be6af047326a98c0,2024-01-23_24h08.35.388,bars,2023.2.3,Win32,142.8571429,657b66ea316d21385b68909f,,,,,,,,,,,1709.9525,1710.9512,,,1711.4514,1711.7013,,67,67,,,,,,,,,,,,,,,,bars/035.png,bars/mask008.png,,,,,,,,,,,,6,2,,,,,,,0,9,0,8,,,,,,,,,,,1710.9513,1711.4514,1711.7014,1714.0348,space,2.3281,,1714.0348,72,7,1715.0344,1715.0345,1717.9252,space,2.8685,,0,12,12,12,1,175,60,,,,,,,,
,,613b7bdc3a329ab20c067d1a,65af55d2be6af047326a98c0,2024-01-23_24h08.35.388,bars,2023.2.3,Win32,142.8571429,657b66ea316d21385b68909f,,,,,,,,,,,1717.9255,1718.9235,,,1719.4237,1719.6736,,156,156,,,,,,,,,,,,,,,,bars/019.png,bars/mask000.png,,,,,,,,,,,,0,2,,,,,,,2,7,3,7,,,,,,,,,,,1718.9236,1719.4236,1719.6737,1721.3619,space,1.6836,,1721.362,69,51,1722.361,1722.361,1725.431,space,3.0584,,0,13,13,13,1,45,105,,,,,,,,
,,613b7bdc3a329ab20c067d1a,65af55d2be6af047326a98c0,2024-01-23_24h08.35.388,bars,2023.2.3,Win32,142.8571429,657b66ea316d21385b68909f,,,,,,,,,,,1725.4444,1726.4396,,,1726.9397,1727.1873,,13,193,,,,,,,,,,,,,,,,bars/035.png,bars/mask006.png,,,,,,,,,,,,0,1,,,,,,,0,9,0,10,,,,,,,,,,,1726.4397,1726.9397,1727.1874,1729.6946,space,2.4948,,1729.6948,18,47,1730.6945,1730.6946,1734.0911,space,3.3719,,0,14,14,14,1,175,60,,,,,,,,
,,613b7bdc3a329ab20c067d1a,65af55d2be6af047326a98c0,2024-01-23_24h08.35.388,bars,2023.2.3,Win32,142.8571429,657b66ea316d21385b68909f,,,,,,,,,,,1734.0915,1735.0901,,,1735.5904,1735.84,,85,85,,,,,,,,,,,,,,,,bars/026.png,bars/mask008.png,,,,,,,,,,,,7,2,,,,,,,0,7,1,7,,,,,,,,,,,1735.0901,1735.5903,1735.8401,1737.4033,space,1.5558,,1737.4034,50,0,1738.4028,1738.4029,1912.9257,space,174.5092,,0,15,15,15,1,35,85,,,,,,,,
,,613b7bdc3a329ab20c067d1a,65af55d2be6af047326a98c0,2024-01-23_24h08.35.388,bars,2023.2.3,Win32,142.8571429,657b66ea316d21385b68909f,,,,,,,,,,,1912.9401,1913.9321,,,1914.4259,1914.6754,,10,190,,,,,,,,,,,,,,,,bars/035.png,bars/mask006.png,,,,,,,,,,,,1,1,,,,,,,0,9,2,6,,,,,,,,,,,1913.9323,1914.4259,1914.6754,1917.9605,space,3.2776,,1917.9606,15,50,1918.9599,1918.96,1919.4117,space,0.4257,,0,16,16,16,1,175,60,,,,,,,,
,,613b7bdc3a329ab20c067d1a,65af55d2be6af047326a98c0,2024-01-23_24h08.35.388,bars,2023.2.3,Win32,142.8571429,657b66ea316d21385b68909f,,,,,,,,,,,1919.4121,1920.4115,,,1920.9067,1921.1473,,106,-74,,,,,,,,,,,,,,,,bars/024.png,bars/mask006.png,,,,,,,,,,,,1,1,,,,,,,2,7,2,7,,,,,,,,,,,1920.4116,1920.9067,1921.1473,1925.1211,space,3.9684,,1925.1211,14,64,1926.1198,1926.1199,1926.2286,space,0.0868,,0,17,17,17,1,120,170,,,,,,,,
,,613b7bdc3a329ab20c067d1a,65af55d2be6af047326a98c0,2024-01-23_24h08.35.388,bars,2023.2.3,Win32,142.8571429,657b66ea316d21385b68909f,,,,,,,,,,,1926.229,1927.2308,,,1927.7317,1927.9808,,156,156,,,,,,,,,,,,,,,,bars/026.png,bars/mask004.png,,,,,,,,,,,,0,1,,,,,,,0,5,0,4,,,,,,,,,,,1927.2309,1927.7316,1927.9809,1929.7522,space,1.7569,,1929.7523,59,71,1930.7518,1930.7519,1931.2879,space,0.5285,,0,18,18,18,1,35,85,,,,,,,,
,,613b7bdc3a329ab20c067d1a,65af55d2be6af047326a98c0,2024-01-23_24h08.35.388,bars,2023.2.3,Win32,142.8571429,657b66ea316d21385b68909f,,,,,,,,,,,1931.2882,1932.2865,,,1932.7867,1933.0364,,70,70,,,,,,,,,,,,,,,,bars/047.png,bars/mask002.png,,,,,,,,,,,,8,2,,,,,,,2,7,1,8,,,,,,,,,,,1932.2866,1932.7867,1933.0365,1935.7523,space,2.7075,,1935.7524,55,0,1936.7518,1936.7519,1938.308,space,1.5328,,0,19,19,19,1,15,70,,,,,,,,
,,613b7bdc3a329ab20c067d1a,65af55d2be6af047326a98c0,2024-01-23_24h08.35.388,bars,2023.2.3,Win32,142.8571429,657b66ea316d21385b68909f,,,,,,,,,,,1938.3084,1939.3076,,,1939.8074,1940.0574,,95,95,,,,,,,,,,,,,,,,bars/038.png,bars/mask004.png,,,,,,,,,,,,1,2,,,,,,,0,5,0,5,,,,,,,,,,,1939.3076,1939.8074,1940.0575,1940.8633,space,0.7998,,1940.8634,70,25,1941.863,1941.8632,1942.5799,space,0.7088,,0,20,20,20,1,165,70,,,,,,,,
,,613b7bdc3a329ab20c067d1a,65af55d2be6af047326a98c0,2024-01-23_24h08.35.388,bars,2023.2.3,Win32,142.8571429,657b66ea316d21385b68909f,,,,,,,,,,,1942.5803,1943.5784,,,1944.0752,1944.3238,,129,-51,,,,,,,,,,,,,,,,bars/002.png,bars/mask009.png,,,,,,,,,,,,2,1,,,,,,,2,3,2,4,,,,,,,,,,,1943.5784,1944.0752,1944.3239,1947.7247,space,3.3918,,1947.7247,1,44,1948.7211,1948.7211,1949.0368,space,0.2902,,0,21,21,21,1,130,85,,,,,,,,
,,613b7bdc3a329ab20c067d1a,65af55d2be6af047326a98c0,2024-01-23_24h08.35.388,bars,2023.2.3,Win32,142.8571429,657b66ea316d21385b68909f,,,,,,,,,,,1949.0375,1950.0368,,,1950.5372,1950.7875,,18,18,,,,,,,,,,,,,,,,bars/026.png,bars/mask009.png,,,,,,,,,,,,1,1,,,,,,,4,5,3,4,,,,,,,,,,,1950.0368,1950.5371,1950.7875,1954.558,space,3.7637,,1954.5581,17,67,1955.5576,1955.5576,1956.1564,space,0.5775,,0,22,22,22,1,35,85,,,,,,,,
,,613b7bdc3a329ab20c067d1a,65af55d2be6af047326a98c0,2024-01-23_24h08.35.388,bars,2023.2.3,Win32,142.8571429,657b66ea316d21385b68909f,,,,,,,,,,,1956.1569,1957.156,,,1957.657,1957.9045,,163,163,,,,,,,,,,,,,,,,bars/024.png,bars/mask001.png,,,,,,,,,,,,2,2,,,,,,,6,3,5,2,,,,,,,,,,,1957.1561,1957.6569,1957.9047,1960.3155,space,2.4,,1960.3156,43,7,1961.3145,1961.3146,1964.2247,space,2.8869,,0,23,23,23,1,120,170,,,,,,,,
,,613b7bdc3a329ab20c067d1a,65af55d2be6af047326a98c0,2024-01-23_24h08.35.388,bars,2023.2.3,Win32,142.8571429,657b66ea316d21385b68909f,,,,,,,,,,,1964.2252,1965.2243,,,1965.7196,1965.9672,,138,-42,,,,,,,,,,,,,,,,bars/037.png,bars/mask009.png,,,,,,,,,,,,2,1,,,,,,,4,1,4,3,,,,,,,,,,,1965.2245,1965.7196,1965.9673,1968.7803,space,2.8016,,1968.7803,12,33,1969.7799,1969.7799,1970.6932,space,0.8877,,0,24,24,24,1,150,105,,,,,,,,
,,613b7bdc3a329ab20c067d1a,65af55d2be6af047326a98c0,2024-01-23_24h08.35.388,bars,2023.2.3,Win32,142.8571429,657b66ea316d21385b68909f,,,,,,,,,,,1970.6935,1971.6895,,,1972.1865,1972.4334,,19,19,,,,,,,,,,,,,,,,bars/036.png,bars/mask000.png,,,,,,,,,,,,0,2,,,,,,,2,0,1,0,,,,,,,,,,,1971.6896,1972.1865,1972.4334,1974.4509,space,2.0074,,1974.451,54,1,1975.4505,1975.4505,1975.7731,space,0.2979,,0,25,25,25,1,145,20,,,,,,,,
,,613b7bdc3a329ab20c067d1a,65af55d2be6af047326a98c0,2024-01-23_24h08.35.388,bars,2023.2.3,Win32,142.8571429,657b66ea316d21385b68909f,,,,,,,,,,,1975.7736,1976.7732,,,1977.2731,1977.5237,,44,224,,,,,,,,,,,,,,,,bars/028.png,bars/mask004.png,,,,,,,,,,,,1,1,,,,,,,0,0,1,1,,,,,,,,,,,1976.7732,1977.273,1977.5238,1981.8845,space,4.3548,,1981.8845,1,76,1982.8853,1982.8854,1985.308,space,2.3996,,0,26,26,26,1,45,120,,,,,,,,
,,613b7bdc3a329ab20c067d1a,65af55d2be6af047326a98c0,2024-01-23_24h08.35.388,bars,2023.2.3,Win32,142.8571429,657b66ea316d21385b68909f,,,,,,,,,,,1985.3211,1986.309,,,1986.808,1987.0578,,98,98,,,,,,,,,,,,,,,,bars/028.png,bars/mask009.png,,,,,,,,,,,,0,2,,,,,,,0,0,1,0,,,,,,,,,,,1986.309,1986.8078,1987.0578,1988.8119,space,1.7479,,1988.8119,53,22,1989.8076,1989.8077,1990.4398,space,0.6093,,0,27,27,27,1,45,120,,,,,,,,
,,613b7bdc3a329ab20c067d1a,65af55d2be6af047326a98c0,2024-01-23_24h08.35.388,bars,2023.2.3,Win32,142.8571429,657b66ea316d21385b68909f,,,,,,,,,,,1990.4405,1991.44,,,1991.9397,1992.1896,,34,214,,,,,,,,,,,,,,,,bars/016.png,bars/mask001.png,,,,,,,,,,,,0,1,,,,,,,0,0,0,0,,,,,,,,,,,1991.44,1991.9397,1992.1898,2247.0465,space,254.8445,,2247.0466,6,49,2248.0469,2248.0469,2410.5273,space,162.4495,,0,28,28,28,1,40,165,,,,,,,,
,,613b7bdc3a329ab20c067d1a,65af55d2be6af047326a98c0,2024-01-23_24h08.35.388,bars,2023.2.3,Win32,142.8571429,657b66ea316d21385b68909f,,,,,,,,,,,2410.5415,2411.5347,,,2412.0308,2412.2807,,1,1,,,,,,,,,,,,,,,,bars/032.png,bars/mask001.png,,,,,,,,,,,,1,2,,,,,,,0,2,0,2,,,,,,,,,,,2411.5349,2412.0308,2412.2808,2415.6107,space,3.3176,,2415.6107,56,19,2416.6109,2416.611,2417.0131,space,0.3768,,0,29,29,29,1,125,20,,,,,,,,
,,613b7bdc3a329ab20c067d1a,65af55d2be6af047326a98c0,2024-01-23_24h08.35.388,bars,2023.2.3,Win32,142.8571429,657b66ea316d21385b68909f,,,,,,,,,,,2417.0136,2418.0133,,,2418.5191,2418.7656,,136,136,,,,,,,,,,,,,,,,bars/043.png,bars/mask005.png,,,,,,,,,,,,2,2,,,,,,,2,4,3,3,,,,,,,,,,,2418.0133,2418.519,2418.7656,2420.7909,space,2.0167,,2420.7911,74,6,2421.7909,2421.7909,2422.0706,space,0.2582,,0,30,30,30,1,30,130,,,,,,,,
,,613b7bdc3a329ab20c067d1a,65af55d2be6af047326a98c0,2024-01-23_24h08.35.388,bars,2023.2.3,Win32,142.8571429,657b66ea316d21385b68909f,,,,,,,,,,,2422.0711,2423.0724,,,2423.5696,2423.8184,,13,193,,,,,,,,,,,,,,,,bars/012.png,bars/mask002.png,,,,,,,,,,,,2,2,,,,,,,4,2,4,2,,,,,,,,,,,2423.0724,2423.5695,2423.8185,2427.9035,space,4.0737,,2427.9035,77,2,2428.902,2428.9021,2429.5988,space,0.6761,,0,31,31,31,1,90,15,,,,,,,,
,,613b7bdc3a329ab20c067d1a,65af55d2be6af047326a98c0,2024-01-23_24h08.35.388,bars,2023.2.3,Win32,142.8571429,657b66ea316d21385b68909f,,,,,,,,,,,2429.5991,2430.5963,,,2431.0964,2431.3465,,47,47,,,,,,,,,,,,,,,,bars/031.png,bars/mask001.png,,,,,,,,,,,,2,2,,,,,,,6,4,6,4,,,,,,,,,,,2430.5965,2431.0963,2431.3465,2433.1943,space,1.836,,2433.1944,73,12,2434.1938,2434.1939,2434.9869,space,0.785,,0,32,32,32,1,120,35,,,,,,,,
,,613b7bdc3a329ab20c067d1a,65af55d2be6af047326a98c0,2024-01-23_24h08.35.388,bars,2023.2.3,Win32,142.8571429,657b66ea316d21385b68909f,,,,,,,,,,,2434.9872,2435.9856,,,2436.4855,2436.731,,73,73,,,,,,,,,,,,,,,,bars/002.png,bars/mask004.png,,,,,,,,,,,,3,2,,,,,,,8,6,7,5,,,,,,,,,,,2435.9857,2436.4855,2436.731,2438.7838,space,2.0441,,2438.7838,57,12,2439.7839,2439.784,2440.4024,space,0.5969,,0,33,33,33,1,130,85,,,,,,,,
,,613b7bdc3a329ab20c067d1a,65af55d2be6af047326a98c0,2024-01-23_24h08.35.388,bars,2023.2.3,Win32,142.8571429,657b66ea316d21385b68909f,,,,,,,,,,,2440.4027,2441.4021,,,2441.9021,2442.152,,71,71,,,,,,,,,,,,,,,,bars/029.png,bars/mask002.png,,,,,,,,,,,,2,1,,,,,,,6,4,6,5,,,,,,,,,,,2441.4022,2441.902,2442.1521,2443.9786,space,1.8131,,2443.9787,19,26,2444.9775,2444.9775,2446.472,space,1.4703,,0,34,34,34,1,90,45,,,,,,,,
,,613b7bdc3a329ab20c067d1a,65af55d2be6af047326a98c0,2024-01-23_24h08.35.388,bars,2023.2.3,Win32,142.8571429,657b66ea316d21385b68909f,,,,,,,,,,,2446.4724,2447.4723,,,2447.9782,2448.2324,,136,136,,,,,,,,,,,,,,,,bars/007.png,bars/mask006.png,,,,,,,,,,,,0,1,,,,,,,8,2,7,3,,,,,,,,,,,2447.4723,2447.9781,2448.2324,2449.2262,space,0.9897,,2449.2263,39,81,2450.2219,2450.222,2451.8,space,1.5672,,0,35,35,35,1,175,55,,,,,,,,
,,613b7bdc3a329ab20c067d1a,65af55d2be6af047326a98c0,2024-01-23_24h08.35.388,bars,2023.2.3,Win32,142.8571429,657b66ea316d21385b68909f,,,,,,,,,,,2451.8004,2452.798,,,2453.295,2453.5409,,43,43,,,,,,,,,,,,,,,,bars/005.png,bars/mask007.png,,,,,,,,,,,,0,1,,,,,,,6,0,7,0,,,,,,,,,,,2452.7981,2453.295,2453.541,2456.3357,space,2.788,,2456.3358,33,83,2457.3333,2457.3334,2457.8817,space,0.5268,,0,36,36,36,1,10,140,,,,,,,,
,,613b7bdc3a329ab20c067d1a,65af55d2be6af047326a98c0,2024-01-23_24h08.35.388,bars,2023.2.3,Win32,142.8571429,657b66ea316d21385b68909f,,,,,,,,,,,2457.8821,2458.8814,,,2459.3815,2459.6316,,76,76,,,,,,,,,,,,,,,,bars/029.png,bars/mask009.png,,,,,,,,,,,,2,1,,,,,,,4,2,3,1,,,,,,,,,,,2458.8815,2459.3815,2459.6316,2463.8476,space,4.2113,,2463.8476,14,31,2464.8467,2464.8468,2465.3473,space,0.4774,,0,37,37,37,1,90,45,,,,,,,,
,,613b7bdc3a329ab20c067d1a,65af55d2be6af047326a98c0,2024-01-23_24h08.35.388,bars,2023.2.3,Win32,142.8571429,657b66ea316d21385b68909f,,,,,,,,,,,2465.3478,2466.3468,,,2466.8468,2467.1006,,166,-14,,,,,,,,,,,,,,,,bars/024.png,bars/mask008.png,,,,,,,,,,,,3,2,,,,,,,2,4,1,4,,,,,,,,,,,2466.3469,2466.8467,2467.1007,2470.368,space,3.2593,,2470.368,46,4,2471.3677,2471.3678,2472.6109,space,1.2165,,0,38,38,38,1,120,170,,,,,,,,
,,613b7bdc3a329ab20c067d1a,65af55d2be6af047326a98c0,2024-01-23_24h08.35.388,bars,2023.2.3,Win32,142.8571429,657b66ea316d21385b68909f,,,,,,,,,,,2472.6115,2473.6129,,,2474.1108,2474.3608,,158,158,,,,,,,,,,,,,,,,bars/020.png,bars/mask003.png,,,,,,,,,,,,4,2,,,,,,,4,6,4,6,,,,,,,,,,,2473.613,2474.1107,2474.3608,2475.8609,space,1.4876,,2475.8611,43,12,2476.8607,2476.8608,2477.5354,space,0.6543,,0,39,39,39,1,115,170,,,,,,,,
,,613b7bdc3a329ab20c067d1a,65af55d2be6af047326a98c0,2024-01-23_24h08.35.388,bars,2023.2.3,Win32,142.8571429,657b66ea316d21385b68909f,,,,,,,,,,,2477.5358,2478.5345,,,2479.0345,2479.2845,,146,146,,,,,,,,,,,,,,,,bars/043.png,bars/mask003.png,,,,,,,,,,,,1,2,,,,,,,2,4,2,2,,,,,,,,,,,2478.5345,2479.0344,2479.2846,2479.993,space,0.7005,,2479.9931,64,16,2480.9927,2480.9928,2481.4932,space,0.491,,0,40,40,40,1,30,130,,,,,,,,
,,613b7bdc3a329ab20c067d1a,65af55d2be6af047326a98c0,2024-01-23_24h08.35.388,bars,2023.2.3,Win32,142.8571429,657b66ea316d21385b68909f,,,,,,,,,,,2481.4938,2482.4928,,,2482.9935,2483.2428,,151,151,,,,,,,,,,,,,,,,bars/016.png,bars/mask003.png,,,,,,,,,,,,1,2,,,,,,,4,2,7,2,,,,,,,,,,,2482.4929,2482.9935,2483.2429,2485.2644,space,2.0144,,2485.2644,69,14,2486.2638,2486.2638,2486.9798,space,0.7045,,0,41,41,41,1,40,165,,,,,,,,
,,613b7bdc3a329ab20c067d1a,65af55d2be6af047326a98c0,2024-01-23_24h08.35.388,bars,2023.2.3,Win32,142.8571429,657b66ea316d21385b68909f,,,,,,,,,,,2486.9804,2487.979,,,2488.4759,2488.7218,,108,-72,,,,,,,,,,,,,,,,bars/028.png,bars/mask000.png,,,,,,,,,,,,3,2,,,,,,,6,4,7,5,,,,,,,,,,,2487.979,2488.4758,2488.7219,2492.2435,space,3.5084,,2492.2436,63,12,2493.2428,2493.243,2493.9795,space,0.7135,,0,42,42,42,1,45,120,,,,,,,,
,,613b7bdc3a329ab20c067d1a,65af55d2be6af047326a98c0,2024-01-23_24h08.35.388,bars,2023.2.3,Win32,142.8571429,657b66ea316d21385b68909f,,,,,,,,,,,2493.9801,2494.9788,,,2495.4759,2495.7233,,20,200,,,,,,,,,,,,,,,,bars/022.png,bars/mask008.png,,,,,,,,,,,,3,2,,,,,,,4,2,4,3,,,,,,,,,,,2494.9789,2495.4759,2495.7233,2498.64,space,2.9119,,2498.64,75,0,2499.6388,2499.6389,2500.8479,space,1.1875,,0,43,43,43,1,95,20,,,,,,,,
,,613b7bdc3a329ab20c067d1a,65af55d2be6af047326a98c0,2024-01-23_24h08.35.388,bars,2023.2.3,Win32,142.8571429,657b66ea316d21385b68909f,,,,,,,,,,,2500.8481,2501.847,,,2502.3441,2502.59,,112,112,,,,,,,,,,,,,,,,bars/023.png,bars/mask003.png,,,,,,,,,,,,1,2,,,,,,,6,0,5,1,,,,,,,,,,,2501.8471,2502.344,2502.5901,2504.9306,space,2.3246,,2504.9307,88,3,2505.9304,2505.9305,2506.588,space,0.6369,,0,44,44,44,1,20,115,,,,,,,,
,,613b7bdc3a329ab20c067d1a,65af55d2be6af047326a98c0,2024-01-23_24h08.35.388,bars,2023.2.3,Win32,142.8571429,657b66ea316d21385b68909f,,,,,,,,,,,2506.5884,2507.5901,,,2508.0903,2508.3401,,110,-70,,,,,,,,,,,,,,,,bars/037.png,bars/mask000.png,,,,,,,,,,,,0,2,,,,,,,4,0,3,0,,,,,,,,,,,2507.5901,2508.0903,2508.3402,2512.4728,space,4.1248,,2512.4728,40,5,2513.4723,2513.4723,2513.8611,space,0.3665,,0,45,45,45,1,150,105,,,,,,,,
,,613b7bdc3a329ab20c067d1a,65af55d2be6af047326a98c0,2024-01-23_24h08.35.388,bars,2023.2.3,Win32,142.8571429,657b66ea316d21385b68909f,,,,,,,,,,,2513.8616,2514.8609,,,2515.361,2515.6149,,42,42,,,,,,,,,,,,,,,,bars/005.png,bars/mask003.png,,,,,,,,,,,,0,1,,,,,,,6,2,6,1,,,,,,,,,,,2514.861,2515.3609,2515.615,2517.8961,space,2.2768,,2517.8961,32,82,2518.8959,2518.896,2519.3133,space,0.3902,,0,46,46,46,1,10,140,,,,,,,,
,,613b7bdc3a329ab20c067d1a,65af55d2be6af047326a98c0,2024-01-23_24h08.35.388,bars,2023.2.3,Win32,142.8571429,657b66ea316d21385b68909f,,,,,,,,,,,2519.3137,2520.3124,,,2520.8133,2521.0648,,19,199,,,,,,,,,,,,,,,,bars/004.png,bars/mask006.png,,,,,,,,,,,,2,1,,,,,,,4,4,3,5,,,,,,,,,,,2520.3125,2520.8133,2521.0649,2524.5627,space,3.4847,,2524.563,6,74,2525.5624,2525.5625,2526.613,space,1.0293,,0,47,47,47,1,25,125,,,,,,,,
,,613b7bdc3a329ab20c067d1a,65af55d2be6af047326a98c0,2024-01-23_24h08.35.388,bars,2023.2.3,Win32,142.8571429,657b66ea316d21385b68909f,,,,,,,,,,,2526.6134,2527.6113,,,2528.1113,2528.3612,,29,29,,,,,,,,,,,,,,,,bars/022.png,bars/mask009.png,,,,,,,,,,,,2,2,,,,,,,2,2,2,3,,,,,,,,,,,2527.6114,2528.1113,2528.3612,2529.0215,space,0.6509,,2529.0216,66,9,2530.021,2530.021,2530.5138,space,0.4795,,0,48,48,48,1,95,20,,,,,,,,
,,613b7bdc3a329ab20c067d1a,65af55d2be6af047326a98c0,2024-01-23_24h08.35.388,bars,2023.2.3,Win32,142.8571429,657b66ea316d21385b68909f,,,,,,,,,,,2530.5142,2531.514,,,2532.0141,2532.2679,,112,-68,,,,,,,,,,,,,,,,bars/019.png,bars/mask007.png,,,,,,,,,,,,0,2,,,,,,,0,0,0,0,,,,,,,,,,,2531.5141,2532.014,2532.2679,2537.1463,space,4.8724,,2537.1463,67,7,2538.1459,2538.146,2538.9594,space,0.7916,,0,49,49,49,1,45,105,,,,,,,,
,,613b7bdc3a329ab20c067d1a,65af55d2be6af047326a98c0,2024-01-23_24h08.35.388,bars,2023.2.3,Win32,142.8571429,657b66ea316d21385b68909f,,,,,,,,,,,,,,,,,,,,,,,,,,,,,,,,,,,,,,,,,,,,,,,,,,,,,,,,,,,,,,,,,,,,,,,,,,,,,,,,,,,,,,,,,,,,,2538.9601,2598.9603,0,0,0,1,1,sequence_tables/blk014.csv
,,613b7bdc3a329ab20c067d1a,65af55d2be6af047326a98c0,2024-01-23_24h08.35.388,bars,2023.2.3,Win32,142.8571429,657b66ea316d21385b68909f,,,,,,,,,,,2744.5521,2745.5366,,,2746.0373,2746.2865,,98,98,,,,,,,,,,,,,,,,bars/041.png,bars/mask001.png,,,,,,,,,,,,1,2,,,,,,,4,2,4,1,,,,,,2598.9749,2744.5303,space,145.5493,,2745.5366,2746.0373,2746.2866,2748.3013,space,2.0056,,2748.3014,78,13,2749.3005,2749.3005,2749.3143,,,,0,0,0,0,1,20,85,,,,,,,,
,,613b7bdc3a329ab20c067d1a,65af55d2be6af047326a98c0,2024-01-23_24h08.35.388,bars,2023.2.3,Win32,142.8571429,657b66ea316d21385b68909f,,,,,,,,,,,2749.3147,2750.3116,,,2750.8087,2751.0578,,77,257,,,,,,,,,,,,,,,,bars/029.png,bars/mask005.png,,,,,,,,,,,,2,1,,,,,,,2,4,3,3,,,,,,,,,,,2750.3116,2750.8086,2751.0578,2755.4335,space,4.3634,,2755.4336,13,32,2756.4328,2756.4329,2756.4479,,,,0,1,1,1,1,90,45,,,,,,,,
,,613b7bdc3a329ab20c067d1a,65af55d2be6af047326a98c0,2024-01-23_24h08.35.388,bars,2023.2.3,Win32,142.8571429,657b66ea316d21385b68909f,,,,,,,,,,,2756.4483,2757.4468,,,2757.9467,2758.1967,,20,200,,,,,,,,,,,,,,,,bars/031.png,bars/mask005.png,,,,,,,,,,,,3,2,,,,,,,0,6,0,6,,,,,,,,,,,2757.4468,2757.9466,2758.1967,2760.1972,space,1.9935,,2760.1973,80,15,2761.1967,2761.1967,2761.2125,,,,0,2,2,2,1,120,35,,,,,,,,
,,613b7bdc3a329ab20c067d1a,65af55d2be6af047326a98c0,2024-01-23_24h08.35.388,bars,2023.2.3,Win32,142.8571429,657b66ea316d21385b68909f,,,,,,,,,,,2761.2128,2762.2143,,,2762.7115,2762.9646,,59,59,,,,,,,,,,,,,,,,bars/035.png,bars/mask006.png,,,,,,,,,,,,5,2,,,,,,,2,4,0,5,,,,,,,,,,,2762.2143,2762.7115,2762.9646,2765.6347,space,2.6603,,2765.6348,64,1,2766.6342,2766.6343,2766.6493,,,,0,3,3,3,1,175,60,,,,,,,,
,,613b7bdc3a329ab20c067d1a,65af55d2be6af047326a98c0,2024-01-23_24h08.35.388,bars,2023.2.3,Win32,142.8571429,657b66ea316d21385b68909f,,,,,,,,,,,2766.6497,2767.6479,,,2768.1482,2768.3981,,162,-18,,,,,,,,,,,,,,,,bars/036.png,bars/mask005.png,,,,,,,,,,,,0,1,,,,,,,0,2,0,3,,,,,,,,,,,2767.648,2768.1482,2768.3982,2770.5094,space,2.1028,,2770.5095,17,38,2771.5105,2771.5105,2771.5255,,,,0,4,4,4,1,145,20,,,,,,,,
,,613b7bdc3a329ab20c067d1a,65af55d2be6af047326a98c0,2024-01-23_24h08.35.388,bars,2023.2.3,Win32,142.8571429,657b66ea316d21385b68909f,,,,,,,,,,,2771.5258,2772.5253,,,2773.0231,2773.2732,,165,-15,,,,,,,,,,,,,,,,bars/005.png,bars/mask008.png,,,,,,,,,,,,1,2,,,,,,,0,4,0,5,,,,,,,,,,,2772.5253,2773.023,2773.2733,2775.7805,space,2.4935,,2775.7805,25,25,2776.78,2776.7801,2776.7951,,,,0,5,5,5,1,10,140,,,,,,,,
,,613b7bdc3a329ab20c067d1a,65af55d2be6af047326a98c0,2024-01-23_24h08.35.388,bars,2023.2.3,Win32,142.8571429,657b66ea316d21385b68909f,,,,,,,,,,,2776.7954,2777.7937,,,2778.2931,2778.544,,105,105,,,,,,,,,,,,,,,,bars/039.png,bars/mask008.png,,,,,,,,,,,,1,2,,,,,,,0,2,0,1,,,,,,,,,,,2777.7939,2778.2931,2778.5441,2779.2875,space,0.7367,,2779.2875,70,0,2780.287,2780.2871,2780.2881,,,,0,6,6,6,1,175,105,,,,,,,,
,,613b7bdc3a329ab20c067d1a,65af55d2be6af047326a98c0,2024-01-23_24h08.35.388,bars,2023.2.3,Win32,142.8571429,657b66ea316d21385b68909f,,,,,,,,,,,2780.2884,2781.2872,,,2781.7872,2782.0372,,89,89,,,,,,,,,,,,,,,,bars/037.png,bars/mask009.png,,,,,,,,,,,,0,2,,,,,,,0,0,1,1,,,,,,,,,,,2781.2872,2781.7872,2782.0372,2782.7674,space,0.7195,,2782.7674,61,16,2783.7664,2783.7664,2783.7672,,,,0,7,7,7,1,150,105,,,,,,,,
,,613b7bdc3a329ab20c067d1a,65af55d2be6af047326a98c0,2024-01-23_24h08.35.388,bars,2023.2.3,Win32,142.8571429,657b66ea316d21385b68909f,,,,,,,,,,,2783.7675,2784.7662,,,2785.2702,2785.5189,,125,125,,,,,,,,,,,,,,,,bars/049.png,bars/mask001.png,,,,,,,,,,,,1,2,,,,,,,0,2,0,2,,,,,,,,,,,2784.7663,2785.2701,2785.5189,2788.6492,space,3.1191,,2788.6492,35,10,2789.6482,2789.6483,2789.6623,,,,0,8,8,8,1,160,115,,,,,,,,
,,613b7bdc3a329ab20c067d1a,65af55d2be6af047326a98c0,2024-01-23_24h08.35.388,bars,2023.2.3,Win32,142.8571429,657b66ea316d21385b68909f,,,,,,,,,,,2789.6626,2790.6621,,,2791.1621,2791.412,,155,155,,,,,,,,,,,,,,,,bars/011.png,bars/mask003.png,,,,,,,,,,,,1,1,,,,,,,2,0,1,1,,,,,,,,,,,2790.6621,2791.162,2791.4121,2844.7604,space,53.335,,2844.7604,5,70,2845.7599,2845.76,2845.7756,,,,0,9,9,9,1,160,85,,,,,,,,
,,613b7bdc3a329ab20c067d1a,65af55d2be6af047326a98c0,2024-01-23_24h08.35.388,bars,2023.2.3,Win32,142.8571429,657b66ea316d21385b68909f,,,,,,,,,,,2845.7759,2846.774,,,2847.2709,2847.5168,,178,178,,,,,,,,,,,,,,,,bars/040.png,bars/mask003.png,,,,,,,,,,,,0,2,,,,,,,0,0,0,0,,,,,,,,,,,2846.774,2847.2709,2847.5169,2848.1838,space,0.6604,,2848.1838,38,7,2849.1835,2849.1835,2849.1857,,,,0,10,10,10,1,140,5,,,,,,,,
,,613b7bdc3a329ab20c067d1a,65af55d2be6af047326a98c0,2024-01-23_24h08.35.388,bars,2023.2.3,Win32,142.8571429,657b66ea316d21385b68909f,,,,,,,,,,,2849.186,2850.1835,,,2850.6837,2850.9335,,167,-13,,,,,,,,,,,,,,,,bars/033.png,bars/mask004.png,,,,,,,,,,,,2,2,,,,,,,2,2,3,3,,,,,,,,,,,2850.1836,2850.6837,2850.9336,2852.5729,space,1.6339,,2852.5729,38,12,2853.5725,2853.5725,2853.5733,,,,0,11,11,11,1,25,155,,,,,,,,
,,613b7bdc3a329ab20c067d1a,65af55d2be6af047326a98c0,2024-01-23_24h08.35.388,bars,2023.2.3,Win32,142.8571429,657b66ea316d21385b68909f,,,,,,,,,,,2853.5743,2854.5726,,,2855.0726,2855.3225,,35,35,,,,,,,,,,,,,,,,bars/019.png,bars/mask001.png,,,,,,,,,,,,0,1,,,,,,,0,0,0,0,,,,,,,,,,,2854.5726,2855.0726,2855.3225,2920.5735,space,65.2455,,2920.5736,10,70,2921.5731,2921.5732,2921.5898,,,,0,12,12,12,1,45,105,,,,,,,,
,,613b7bdc3a329ab20c067d1a,65af55d2be6af047326a98c0,2024-01-23_24h08.35.388,bars,2023.2.3,Win32,142.8571429,657b66ea316d21385b68909f,,,,,,,,,,,2921.5901,2922.5867,,,2923.0871,2923.3371,,114,-66,,,,,,,,,,,,,,,,bars/019.png,bars/mask003.png,,,,,,,,,,,,0,2,,,,,,,0,2,0,0,,,,,,,,,,,2922.5868,2923.087,2923.3372,2928.6847,space,5.3408,,2928.6848,69,9,2929.6842,2929.6843,2929.6994,,,,0,13,13,13,1,45,105,,,,,,,,
,,613b7bdc3a329ab20c067d1a,65af55d2be6af047326a98c0,2024-01-23_24h08.35.388,bars,2023.2.3,Win32,142.8571429,657b66ea316d21385b68909f,,,,,,,,,,,2929.6997,2930.6981,,,2931.1981,2931.4479,,94,-86,,,,,,,,,,,,,,,,bars/019.png,bars/mask005.png,,,,,,,,,,,,3,2,,,,,,,0,4,0,4,,,,,,,,,,,2930.6981,2931.1981,2931.448,2936.2611,space,4.8002,,2936.2612,49,11,2937.2612,2937.2612,2937.2746,,,,0,14,14,14,1,45,105,,,,,,,,
,,613b7bdc3a329ab20c067d1a,65af55d2be6af047326a98c0,2024-01-23_24h08.35.388,bars,2023.2.3,Win32,142.8571429,657b66ea316d21385b68909f,,,,,,,,,,,2937.2749,2938.2746,,,2938.7749,2939.0244,,116,116,,,,,,,,,,,,,,,,bars/005.png,bars/mask002.png,,,,,,,,,,,,0,2,,,,,,,2,2,3,2,,,,,,,,,,,2938.2747,2938.7748,2939.0244,2950.6153,space,11.5765,,2950.6153,74,24,2951.6151,2951.6151,2951.6297,,,,0,15,15,15,1,10,140,,,,,,,,
,,613b7bdc3a329ab20c067d1a,65af55d2be6af047326a98c0,2024-01-23_24h08.35.388,bars,2023.2.3,Win32,142.8571429,657b66ea316d21385b68909f,,,,,,,,,,,2951.6301,2952.6259,,,2953.1224,2953.3751,,7,7,,,,,,,,,,,,,,,,bars/022.png,bars/mask007.png,,,,,,,,,,,,0,2,,,,,,,0,0,0,0,,,,,,,,,,,2952.6259,2953.1224,2953.3751,2957.2193,space,3.836,,2957.2194,88,13,2958.2191,2958.2191,2958.2332,,,,0,16,16,16,1,95,20,,,,,,,,
,,613b7bdc3a329ab20c067d1a,65af55d2be6af047326a98c0,2024-01-23_24h08.35.388,bars,2023.2.3,Win32,142.8571429,657b66ea316d21385b68909f,,,,,,,,,,,2958.2336,2959.2332,,,2959.7332,2959.983,,65,65,,,,,,,,,,,,,,,,bars/042.png,bars/mask003.png,,,,,,,,,,,,1,2,,,,,,,0,2,0,2,,,,,,,,,,,2959.2332,2959.7332,2959.9831,2962.7888,space,2.7977,,2962.7889,80,10,2963.7888,2963.7888,2963.8028,,,,0,17,17,17,1,145,75,,,,,,,,
,,613b7bdc3a329ab20c067d1a,65af55d2be6af047326a98c0,2024-01-23_24h08.35.388,bars,2023.2.3,Win32,142.8571429,657b66ea316d21385b68909f,,,,,,,,,,,2963.8032,2964.8026,,,2965.3027,2965.5526,,5,5,,,,,,,,,,,,,,,,bars/008.png,bars/mask007.png,,,,,,,,,,,,2,2,,,,,,,0,4,0,2,,,,,,,,,,,2964.8026,2965.3026,2965.5526,2970.019,space,4.4601,,2970.0191,75,5,2971.0179,2971.0179,2971.0323,,,,0,18,18,18,1,110,0,,,,,,,,
,,613b7bdc3a329ab20c067d1a,65af55d2be6af047326a98c0,2024-01-23_24h08.35.388,bars,2023.2.3,Win32,142.8571429,657b66ea316d21385b68909f,,,,,,,,,,,2971.0327,2972.0317,,,2972.5319,2972.7819,,67,67,,,,,,,,,,,,,,,,bars/021.png,bars/mask005.png,,,,,,,,,,,,7,2,,,,,,,2,6,4,8,,,,,,,,,,,2972.0318,2972.5318,2972.7819,2978.1159,space,5.327,,2978.116,88,3,2979.1153,2979.1154,2979.1293,,,,0,19,19,19,1,155,70,,,,,,,,
,,613b7bdc3a329ab20c067d1a,65af55d2be6af047326a98c0,2024-01-23_24h08.35.388,bars,2023.2.3,Win32,142.8571429,657b66ea316d21385b68909f,,,,,,,,,,,2979.1296,2980.1289,,,2980.6262,2980.872,,75,75,,,,,,,,,,,,,,,,bars/048.png,bars/mask009.png,,,,,,,,,,,,0,1,,,,,,,0,4,0,3,,,,,,,,,,,2980.129,2980.6262,2980.872,2985.4557,space,4.5706,,2985.4558,25,80,2986.4556,2986.4557,2986.4708,,,,0,20,20,20,1,50,175,,,,,,,,
,,613b7bdc3a329ab20c067d1a,65af55d2be6af047326a98c0,2024-01-23_24h08.35.388,bars,2023.2.3,Win32,142.8571429,657b66ea316d21385b68909f,,,,,,,,,,,2986.4711,2987.4695,,,2987.9701,2988.2195,,176,176,,,,,,,,,,,,,,,,bars/040.png,bars/mask006.png,,,,,,,,,,,,5,2,,,,,,,2,6,3,7,,,,,,,,,,,2987.4695,2987.9701,2988.2195,2989.6032,space,1.3776,,2989.6032,36,9,2990.6016,2990.6017,2990.6047,,,,0,21,21,21,1,140,5,,,,,,,,
,,613b7bdc3a329ab20c067d1a,65af55d2be6af047326a98c0,2024-01-23_24h08.35.388,bars,2023.2.3,Win32,142.8571429,657b66ea316d21385b68909f,,,,,,,,,,,2990.6051,2991.6015,,,2992.1015,2992.3521,,72,72,,,,,,,,,,,,,,,,bars/007.png,bars/mask006.png,,,,,,,,,,,,4,2,,,,,,,0,8,0,9,,,,,,,,,,,2991.6016,2992.1014,2992.3521,2995.1852,space,2.8212,,2995.1852,77,17,2996.1849,2996.1849,2996.1992,,,,0,22,22,22,1,175,55,,,,,,,,
,,613b7bdc3a329ab20c067d1a,65af55d2be6af047326a98c0,2024-01-23_24h08.35.388,bars,2023.2.3,Win32,142.8571429,657b66ea316d21385b68909f,,,,,,,,,,,2996.1995,2997.1988,,,2997.6993,2997.9488,,104,104,,,,,,,,,,,,,,,,bars/019.png,bars/mask008.png,,,,,,,,,,,,5,2,,,,,,,0,6,1,5,,,,,,,,,,,2997.1989,2997.6993,2997.9489,3220.7573,space,222.8023,,3220.7574,59,1,3221.7565,3221.7565,3221.7578,,,,0,23,23,23,1,45,105,,,,,,,,
,,613b7bdc3a329ab20c067d1a,65af55d2be6af047326a98c0,2024-01-23_24h08.35.388,bars,2023.2.3,Win32,142.8571429,657b66ea316d21385b68909f,,,,,,,,,,,3221.7582,3222.7532,,,3223.2493,3223.4993,,178,-2,,,,,,,,,,,,,,,,bars/008.png,bars/mask006.png,,,,,,,,,,,,8,2,,,,,,,2,8,2,9,,,,,,,,,,,3222.7532,3223.2491,3223.4995,3226.2013,space,2.6887,,3226.2014,68,2,3227.2006,3227.2007,3227.2147,,,,0,24,24,24,1,110,0,,,,,,,,
,,613b7bdc3a329ab20c067d1a,65af55d2be6af047326a98c0,2024-01-23_24h08.35.388,bars,2023.2.3,Win32,142.8571429,657b66ea316d21385b68909f,,,,,,,,,,,3227.2151,3228.2185,,,3228.7153,3228.9615,,175,175,,,,,,,,,,,,,,,,bars/040.png,bars/mask003.png,,,,,,,,,,,,7,2,,,,,,,0,10,1,10,,,,,,,,,,,3228.2185,3228.7153,3228.9615,3256.7986,space,27.8288,,3256.7987,35,10,3257.7984,3257.7984,3257.8135,,,,0,25,25,25,1,140,5,,,,,,,,
,,613b7bdc3a329ab20c067d1a,65af55d2be6af047326a98c0,2024-01-23_24h08.35.388,bars,2023.2.3,Win32,142.8571429,657b66ea316d21385b68909f,,,,,,,,,,,3257.8138,3258.8153,,,3259.313,3259.562,,18,18,,,,,,,,,,,,,,,,bars/035.png,bars/mask000.png,,,,,,,,,,,,1,1,,,,,,,2,8,3,9,,,,,,,,,,,3258.8153,3259.3129,3259.5621,3436.0574,space,176.4803,,3436.0575,23,42,3437.0567,3437.0568,3437.0728,,,,0,26,26,26,1,175,60,,,,,,,,
,,613b7bdc3a329ab20c067d1a,65af55d2be6af047326a98c0,2024-01-23_24h08.35.388,bars,2023.2.3,Win32,142.8571429,657b66ea316d21385b68909f,,,,,,,,,,,3437.0732,3438.0706,,,3438.571,3438.8176,,51,231,,,,,,,,,,,,,,,,bars/044.png,bars/mask000.png,,,,,,,,,,,,0,1,,,,,,,0,10,0,10,,,,,,,,,,,3438.0707,3438.5709,3438.8176,3443.8709,space,5.0492,,3443.8709,24,76,3444.8694,3444.8695,3444.883,,,,0,27,27,27,1,75,155,,,,,,,,
,,613b7bdc3a329ab20c067d1a,65af55d2be6af047326a98c0,2024-01-23_24h08.35.388,bars,2023.2.3,Win32,142.8571429,657b66ea316d21385b68909f,,,,,,,,,,,3444.8834,3445.8872,,,3446.3834,3446.6334,,3,183,,,,,,,,,,,,,,,,bars/041.png,bars/mask000.png,,,,,,,,,,,,0,1,,,,,,,0,10,0,10,,,,,,,,,,,3445.8872,3446.3834,3446.6334,3450.28,space,3.6409,,3450.2801,17,82,3451.2792,3451.2792,3451.2931,,,,0,28,28,28,1,20,85,,,,,,,,
,,613b7bdc3a329ab20c067d1a,65af55d2be6af047326a98c0,2024-01-23_24h08.35.388,bars,2023.2.3,Win32,142.8571429,657b66ea316d21385b68909f,,,,,,,,,,,3451.2936,3452.293,,,3452.793,3453.0429,,46,46,,,,,,,,,,,,,,,,bars/033.png,bars/mask007.png,,,,,,,,,,,,0,1,,,,,,,0,10,1,10,,,,,,,,,,,3452.2931,3452.7928,3453.043,3643.1491,space,190.0936,,3643.1492,21,71,3644.1488,3644.1488,3644.1633,,,,0,29,29,29,1,25,155,,,,,,,,
,,613b7bdc3a329ab20c067d1a,65af55d2be6af047326a98c0,2024-01-23_24h08.35.388,bars,2023.2.3,Win32,142.8571429,657b66ea316d21385b68909f,,,,,,,,,,,3644.1637,3645.1629,,,3645.6666,3645.9135,,107,107,,,,,,,,,,,,,,,,bars/049.png,bars/mask008.png,,,,,,,,,,,,4,2,,,,,,,2,8,2,6,,,,,,,,,,,3645.1629,3645.6666,3645.9135,3649.9481,space,4.0216,,3649.9482,53,8,3650.9473,3650.9474,3650.9507,,,,0,30,30,30,1,160,115,,,,,,,,
,,613b7bdc3a329ab20c067d1a,65af55d2be6af047326a98c0,2024-01-23_24h08.35.388,bars,2023.2.3,Win32,142.8571429,657b66ea316d21385b68909f,,,,,,,,,,,3650.951,3651.9474,,,3652.4483,3652.6975,,62,242,,,,,,,,,,,,,,,,bars/038.png,bars/mask001.png,,,,,,,,,,,,5,2,,,,,,,4,6,4,7,,,,,,,,,,,3651.9475,3652.4483,3652.6976,3655.2047,space,2.4944,,3655.2047,77,8,3656.2044,3656.2044,3656.2189,,,,0,31,31,31,1,165,70,,,,,,,,
,,613b7bdc3a329ab20c067d1a,65af55d2be6af047326a98c0,2024-01-23_24h08.35.388,bars,2023.2.3,Win32,142.8571429,657b66ea316d21385b68909f,,,,,,,,,,,3656.2192,3657.2183,,,3657.7193,3657.9685,,145,145,,,,,,,,,,,,,,,,bars/015.png,bars/mask008.png,,,,,,,,,,,,5,2,,,,,,,2,8,1,10,,,,,,,,,,,3657.2184,3657.7193,3657.9687,3658.5322,space,0.5592,,3658.5322,35,15,3659.5309,3659.531,3659.5318,,,,0,32,32,32,1,110,160,,,,,,,,
,,613b7bdc3a329ab20c067d1a,65af55d2be6af047326a98c0,2024-01-23_24h08.35.388,bars,2023.2.3,Win32,142.8571429,657b66ea316d21385b68909f,,,,,,,,,,,3659.532,3660.531,,,3661.0311,3661.281,,156,156,,,,,,,,,,,,,,,,bars/021.png,bars/mask001.png,,,,,,,,,,,,1,1,,,,,,,0,10,1,8,,,,,,,,,,,3660.5311,3661.031,3661.281,3701.3095,space,40.019,,3701.3096,1,86,3702.3093,3702.3095,3702.3252,,,,0,33,33,33,1,155,70,,,,,,,,
,,613b7bdc3a329ab20c067d1a,65af55d2be6af047326a98c0,2024-01-23_24h08.35.388,bars,2023.2.3,Win32,142.8571429,657b66ea316d21385b68909f,,,,,,,,,,,3702.3256,3703.3235,,,3703.8229,3704.0729,,154,154,,,,,,,,,,,,,,,,bars/017.png,bars/mask006.png,,,,,,,,,,,,1,1,,,,,,,2,8,2,9,,,,,,,,,,,3703.3236,3703.8228,3704.0731,3747.789,space,43.7112,,3747.7891,9,71,3748.7888,3748.7888,3748.8042,,,,0,34,34,34,1,145,45,,,,,,,,
,,613b7bdc3a329ab20c067d1a,65af55d2be6af047326a98c0,2024-01-23_24h08.35.388,bars,2023.2.3,Win32,142.8571429,657b66ea316d21385b68909f,,,,,,,,,,,3748.8044,3749.8066,,,3750.3066,3750.5525,,130,130,,,,,,,,,,,,,,,,bars/036.png,bars/mask005.png,,,,,,,,,,,,2,1,,,,,,,4,6,4,7,,,,,,,,,,,3749.8066,3750.3066,3750.5526,3752.5877,space,2.022,,3752.5878,15,70,3753.5875,3753.5875,3753.6022,,,,0,35,35,35,1,145,20,,,,,,,,
,,613b7bdc3a329ab20c067d1a,65af55d2be6af047326a98c0,2024-01-23_24h08.35.388,bars,2023.2.3,Win32,142.8571429,657b66ea316d21385b68909f,,,,,,,,,,,3753.6027,3754.605,,,3755.1014,3755.352,,35,35,,,,,,,,,,,,,,,,bars/007.png,bars/mask000.png,,,,,,,,,,,,1,2,,,,,,,6,4,7,2,,,,,,,,,,,3754.605,3755.1013,3755.3521,3758.3376,space,2.9801,,3758.3377,40,20,3759.3373,3759.3374,3759.3532,,,,0,36,36,36,1,175,55,,,,,,,,
,,613b7bdc3a329ab20c067d1a,65af55d2be6af047326a98c0,2024-01-23_24h08.35.388,bars,2023.2.3,Win32,142.8571429,657b66ea316d21385b68909f,,,,,,,,,,,3759.3535,3760.3512,,,3760.8515,3761.1014,,105,-75,,,,,,,,,,,,,,,,bars/037.png,bars/mask006.png,,,,,,,,,,,,6,2,,,,,,,4,6,5,6,,,,,,,,,,,3760.3513,3760.8514,3761.1015,3764.7691,space,3.6616,,3764.7691,45,0,3765.768,3765.7681,3765.7819,,,,0,37,37,37,1,150,105,,,,,,,,
,,613b7bdc3a329ab20c067d1a,65af55d2be6af047326a98c0,2024-01-23_24h08.35.388,bars,2023.2.3,Win32,142.8571429,657b66ea316d21385b68909f,,,,,,,,,,,3765.7823,3766.7808,,,3767.2859,3767.5329,,99,-81,,,,,,,,,,,,,,,,bars/023.png,bars/mask007.png,,,,,,,,,,,,4,2,,,,,,,2,8,3,9,,,,,,,,,,,3766.7808,3767.2859,3767.533,3771.2126,space,3.6724,,3771.2127,79,16,3772.2123,3772.2124,3772.2267,,,,0,38,38,38,1,20,115,,,,,,,,
,,613b7bdc3a329ab20c067d1a,65af55d2be6af047326a98c0,2024-01-23_24h08.35.388,bars,2023.2.3,Win32,142.8571429,657b66ea316d21385b68909f,,,,,,,,,,,3772.2271,3773.2262,,,3773.7246,3773.9762,,83,83,,,,,,,,,,,,,,,,bars/049.png,bars/mask006.png,,,,,,,,,,,,0,2,,,,,,,0,10,1,10,,,,,,,,,,,3773.2263,3773.7246,3773.9762,3785.3725,space,11.3914,,3785.3726,77,32,3786.3723,3786.3724,3786.3874,,,,0,39,39,39,1,160,115,,,,,,,,
,,613b7bdc3a329ab20c067d1a,65af55d2be6af047326a98c0,2024-01-23_24h08.35.388,bars,2023.2.3,Win32,142.8571429,657b66ea316d21385b68909f,,,,,,,,,,,3786.3879,3787.3861,,,3787.8901,3788.1361,,69,69,,,,,,,,,,,,,,,,bars/046.png,bars/mask008.png,,,,,,,,,,,,5,2,,,,,,,2,10,2,10,,,,,,,,,,,3787.3861,3787.8901,3788.1362,3791.5185,space,3.3692,,3791.5185,86,16,3792.5181,3792.5183,3792.5318,,,,0,40,40,40,1,155,85,,,,,,,,
,,613b7bdc3a329ab20c067d1a,65af55d2be6af047326a98c0,2024-01-23_24h08.35.388,bars,2023.2.3,Win32,142.8571429,657b66ea316d21385b68909f,,,,,,,,,,,3792.5322,3793.5359,,,3794.0322,3794.2821,,71,71,,,,,,,,,,,,,,,,bars/041.png,bars/mask008.png,,,,,,,,,,,,3,2,,,,,,,4,8,3,6,,,,,,,,,,,3793.536,3794.0322,3794.2823,3797.3868,space,3.0916,,3797.3868,51,14,3798.3863,3798.3864,3798.4,,,,0,41,41,41,1,20,85,,,,,,,,
,,613b7bdc3a329ab20c067d1a,65af55d2be6af047326a98c0,2024-01-23_24h08.35.388,bars,2023.2.3,Win32,142.8571429,657b66ea316d21385b68909f,,,,,,,,,,,3798.4004,3799.404,,,3799.9016,3800.1505,,179,179,,,,,,,,,,,,,,,,bars/038.png,bars/mask006.png,,,,,,,,,,,,3,1,,,,,,,6,10,5,9,,,,,,,,,,,3799.4041,3799.9015,3800.1505,3806.0463,space,5.8897,,3806.0465,14,71,3807.0461,3807.0462,3807.0613,,,,0,42,42,42,1,165,70,,,,,,,,
,,613b7bdc3a329ab20c067d1a,65af55d2be6af047326a98c0,2024-01-23_24h08.35.388,bars,2023.2.3,Win32,142.8571429,657b66ea316d21385b68909f,,,,,,,,,,,3807.0616,3808.0601,,,3808.5602,3808.8101,,102,-78,,,,,,,,,,,,,,,,bars/023.png,bars/mask005.png,,,,,,,,,,,,5,2,,,,,,,4,10,5,9,,,,,,,,,,,3808.0602,3808.5602,3808.8102,3813.0466,space,4.2284,,3813.0466,82,13,3814.0464,3814.0465,3814.062,,,,0,43,43,43,1,20,115,,,,,,,,
,,613b7bdc3a329ab20c067d1a,65af55d2be6af047326a98c0,2024-01-23_24h08.35.388,bars,2023.2.3,Win32,142.8571429,657b66ea316d21385b68909f,,,,,,,,,,,3814.0624,3815.0604,,,3815.5601,3815.8099,,91,91,,,,,,,,,,,,,,,,bars/044.png,bars/mask001.png,,,,,,,,,,,,1,1,,,,,,,2,10,3,10,,,,,,,,,,,3815.0605,3815.56,3815.81,3822.9358,space,7.115,,3822.9359,16,64,3823.9353,3823.9353,3823.9516,,,,0,44,44,44,1,75,155,,,,,,,,
,,613b7bdc3a329ab20c067d1a,65af55d2be6af047326a98c0,2024-01-23_24h08.35.388,bars,2023.2.3,Win32,142.8571429,657b66ea316d21385b68909f,,,,,,,,,,,3823.9519,3824.9489,,,3825.453,3825.6992,,72,72,,,,,,,,,,,,,,,,bars/047.png,bars/mask008.png,,,,,,,,,,,,9,2,,,,,,,0,10,0,10,,,,,,,,,,,3824.9489,3825.4529,3825.6993,3826.8178,space,1.1138,,3826.8179,57,2,3827.818,3827.8181,3827.82,,,,0,45,45,45,1,15,70,,,,,,,,
,,613b7bdc3a329ab20c067d1a,65af55d2be6af047326a98c0,2024-01-23_24h08.35.388,bars,2023.2.3,Win32,142.8571429,657b66ea316d21385b68909f,,,,,,,,,,,3827.8203,3828.817,,,3829.3173,3829.5672,,63,63,,,,,,,,,,,,,,,,bars/041.png,bars/mask009.png,,,,,,,,,,,,3,2,,,,,,,0,10,1,10,,,,,,,,,,,3828.8171,3829.3173,3829.5672,3833.762,space,4.1881,,3833.762,43,22,3834.7623,3834.7623,3834.7758,,,,0,46,46,46,1,20,85,,,,,,,,
,,613b7bdc3a329ab20c067d1a,65af55d2be6af047326a98c0,2024-01-23_24h08.35.388,bars,2023.2.3,Win32,142.8571429,657b66ea316d21385b68909f,,,,,,,,,,,3834.7761,3835.7753,,,3836.271,3836.5225,,149,149,,,,,,,,,,,,,,,,bars/019.png,bars/mask002.png,,,,,,,,,,,,0,2,,,,,,,0,10,3,10,,,,,,,,,,,3835.7753,3836.271,3836.5226,3844.2553,space,7.7267,,3844.2555,76,44,3845.2548,3845.2548,3845.27,,,,0,47,47,47,1,45,105,,,,,,,,
,,613b7bdc3a329ab20c067d1a,65af55d2be6af047326a98c0,2024-01-23_24h08.35.388,bars,2023.2.3,Win32,142.8571429,657b66ea316d21385b68909f,,,,,,,,,,,3845.2702,3846.2688,,,3846.7687,3847.0189,,54,54,,,,,,,,,,,,,,,,bars/007.png,bars/mask007.png,,,,,,,,,,,,10,2,,,,,,,0,10,0,10,,,,,,,,,,,3846.269,3846.7686,3847.0189,3849.5748,space,2.5491,,3849.5749,59,1,3850.5743,3850.5743,3850.5884,,,,0,48,48,48,1,175,55,,,,,,,,
,,613b7bdc3a329ab20c067d1a,65af55d2be6af047326a98c0,2024-01-23_24h08.35.388,bars,2023.2.3,Win32,142.8571429,657b66ea316d21385b68909f,,,,,,,,,,,3850.5887,3851.5882,,,3852.092,3852.3383,,46,46,,,,,,,,,,,,,,,,bars/030.png,bars/mask005.png,,,,,,,,,,,,3,2,,,,,,,2,8,1,8,,,,,,,,,,,3851.5883,3852.092,3852.3383,3857.3322,space,4.9799,,3857.3322,86,19,3858.3312,3858.3313,3858.3452,,,,0,49,49,49,1,140,65,,,,,,,,
,,613b7bdc3a329ab20c067d1a,65af55d2be6af047326a98c0,2024-01-23_24h08.35.388,bars,2023.2.3,Win32,142.8571429,657b66ea316d21385b68909f,,,,,,,,,,,,,,,,,,,,,,,,,,,,,,,,,,,,,,,,,,,,,,,,,,,,,,,,,,,,,,,,,,,,,,,,,,,,,,,,,,,,,,,,,,,,,3858.3455,3918.3459,0,1,1,3,1,sequence_tables/blk012.csv
,,613b7bdc3a329ab20c067d1a,65af55d2be6af047326a98c0,2024-01-23_24h08.35.388,bars,2023.2.3,Win32,142.8571429,657b66ea316d21385b68909f,,,,,,,,,,,3919.7435,3920.7454,,,3921.2355,3921.4848,,80,80,,,,,,,,,,,,,,,,bars/002.png,bars/mask008.png,,,,,,,,,,,,0,2,,,,,,,4,1,3,0,,,,,,3918.3601,3919.735,space,1.367,,3920.7455,3921.2354,3921.4849,3925.7712,space,4.2803,,3925.7713,50,5,3926.7703,3926.7704,3926.785,,,,0,0,0,0,1,130,85,,,,,,,,
,,613b7bdc3a329ab20c067d1a,65af55d2be6af047326a98c0,2024-01-23_24h08.35.388,bars,2023.2.3,Win32,142.8571429,657b66ea316d21385b68909f,,,,,,,,,,,3926.7853,3927.7837,,,3928.2789,3928.5271,,49,49,,,,,,,,,,,,,,,,bars/034.png,bars/mask002.png,,,,,,,,,,,,0,2,,,,,,,6,0,5,0,,,,,,,,,,,3927.7837,3928.2788,3928.5271,3932.1943,space,3.6573,,3932.1943,76,16,3933.1931,3933.1932,3933.2077,,,,0,1,1,1,1,125,65,,,,,,,,
,,613b7bdc3a329ab20c067d1a,65af55d2be6af047326a98c0,2024-01-23_24h08.35.388,bars,2023.2.3,Win32,142.8571429,657b66ea316d21385b68909f,,,,,,,,,,,3933.2079,3934.207,,,3934.7072,3934.9569,,11,11,,,,,,,,,,,,,,,,bars/007.png,bars/mask004.png,,,,,,,,,,,,2,1,,,,,,,4,0,4,3,,,,,,,,,,,3934.2071,3934.7071,3934.9569,3937.0685,space,2.0966,,3937.0686,16,44,3938.0683,3938.0683,3938.0702,,,,0,2,2,2,1,175,55,,,,,,,,
,,613b7bdc3a329ab20c067d1a,65af55d2be6af047326a98c0,2024-01-23_24h08.35.388,bars,2023.2.3,Win32,142.8571429,657b66ea316d21385b68909f,,,,,,,,,,,3938.0706,3939.0681,,,3939.5683,3939.8185,,147,147,,,,,,,,,,,,,,,,bars/030.png,bars/mask009.png,,,,,,,,,,,,2,1,,,,,,,2,2,3,1,,,,,,,,,,,3939.0681,3939.5683,3939.8185,3940.513,space,0.688,,3940.513,7,82,3941.5128,3941.5128,3941.5136,,,,0,3,3,3,1,140,65,,,,,,,,
,,613b7bdc3a329ab20c067d1a,65af55d2be6af047326a98c0,2024-01-23_24h08.35.388,bars,2023.2.3,Win32,142.8571429,657b66ea316d21385b68909f,,,,,,,,,,,3941.5138,3942.5126,,,3943.0126,3943.2665,,110,110,,,,,,,,,,,,,,,,bars/028.png,bars/mask006.png,,,,,,,,,,,,3,2,,,,,,,4,4,4,4,,,,,,,,,,,3942.5126,3943.0126,3943.2666,3974.8951,space,31.6213,,3974.8951,65,10,3975.895,3975.8951,3975.9114,,,,0,4,4,4,1,45,120,,,,,,,,
,,613b7bdc3a329ab20c067d1a,65af55d2be6af047326a98c0,2024-01-23_24h08.35.388,bars,2023.2.3,Win32,142.8571429,657b66ea316d21385b68909f,,,,,,,,,,,3975.9118,3976.9087,,,3977.4087,3977.6588,,106,106,,,,,,,,,,,,,,,,bars/009.png,bars/mask004.png,,,,,,,,,,,,6,2,,,,,,,2,6,2,6,,,,,,,,,,,3976.9088,3977.4086,3977.6589,3980.2356,space,2.5695,,3980.2356,89,1,3981.2361,3981.2361,3981.2498,,,,0,5,5,5,1,15,105,,,,,,,,
,,613b7bdc3a329ab20c067d1a,65af55d2be6af047326a98c0,2024-01-23_24h08.35.388,bars,2023.2.3,Win32,142.8571429,657b66ea316d21385b68909f,,,,,,,,,,,3981.2501,3982.2491,,,3982.7492,3982.9991,,98,98,,,,,,,,,,,,,,,,bars/009.png,bars/mask009.png,,,,,,,,,,,,3,2,,,,,,,4,4,5,4,,,,,,,,,,,3982.2491,3982.7492,3982.9992,3986.4995,space,3.4937,,3986.4995,83,7,3987.4993,3987.4993,3987.513,,,,0,6,6,6,1,15,105,,,,,,,,
,,613b7bdc3a329ab20c067d1a,65af55d2be6af047326a98c0,2024-01-23_24h08.35.388,bars,2023.2.3,Win32,142.8571429,657b66ea316d21385b68909f,,,,,,,,,,,3987.5133,3988.5138,,,3989.01,3989.2562,,169,169,,,,,,,,,,,,,,,,bars/016.png,bars/mask002.png,,,,,,,,,,,,4,2,,,,,,,2,6,1,5,,,,,,,,,,,3988.5138,3989.01,3989.2562,3994.2217,space,4.9575,,3994.2219,51,4,3995.2215,3995.2216,3995.2355,,,,0,7,7,7,1,40,165,,,,,,,,
,,613b7bdc3a329ab20c067d1a,65af55d2be6af047326a98c0,2024-01-23_24h08.35.388,bars,2023.2.3,Win32,142.8571429,657b66ea316d21385b68909f,,,,,,,,,,,3995.2358,3996.236,,,3996.7355,3996.986,,79,79,,,,,,,,,,,,,,,,bars/002.png,bars/mask000.png,,,,,,,,,,,,4,2,,,,,,,0,4,0,5,,,,,,,,,,,3996.236,3996.7353,3996.9861,3998.5901,space,1.5986,,3998.5902,51,6,3999.5895,3999.5896,3999.5904,,,,0,8,8,8,1,130,85,,,,,,,,
,,613b7bdc3a329ab20c067d1a,65af55d2be6af047326a98c0,2024-01-23_24h08.35.388,bars,2023.2.3,Win32,142.8571429,657b66ea316d21385b68909f,,,,,,,,,,,3999.5907,4000.5896,,,4001.0894,4001.3436,,102,102,,,,,,,,,,,,,,,,bars/039.png,bars/mask009.png,,,,,,,,,,,,5,2,,,,,,,2,6,3,5,,,,,,,,,,,4000.5896,4001.0893,4001.3436,4003.389,space,2.0385,,4003.389,73,3,4004.3889,4004.3889,4004.4026,,,,0,9,9,9,1,175,105,,,,,,,,
,,613b7bdc3a329ab20c067d1a,65af55d2be6af047326a98c0,2024-01-23_24h08.35.388,bars,2023.2.3,Win32,142.8571429,657b66ea316d21385b68909f,,,,,,,,,,,4004.4029,4005.4028,,,4005.9021,4006.1521,,162,162,,,,,,,,,,,,,,,,bars/016.png,bars/mask008.png,,,,,,,,,,,,7,2,,,,,,,4,8,7,8,,,,,,,,,,,4005.4028,4005.9021,4006.1522,4010.3339,space,4.1771,,4010.334,58,3,4011.3327,4011.3327,4011.3469,,,,0,10,10,10,1,40,165,,,,,,,,
,,613b7bdc3a329ab20c067d1a,65af55d2be6af047326a98c0,2024-01-23_24h08.35.388,bars,2023.2.3,Win32,142.8571429,657b66ea316d21385b68909f,,,,,,,,,,,4011.3472,4012.3465,,,4012.8466,4013.0966,,82,82,,,,,,,,,,,,,,,,bars/002.png,bars/mask001.png,,,,,,,,,,,,7,2,,,,,,,2,10,3,8,,,,,,,,,,,4012.3465,4012.8466,4013.0966,4015.4034,space,2.3022,,4015.4035,48,3,4016.402,4016.4021,4016.4164,,,,0,11,11,11,1,130,85,,,,,,,,
,,613b7bdc3a329ab20c067d1a,65af55d2be6af047326a98c0,2024-01-23_24h08.35.388,bars,2023.2.3,Win32,142.8571429,657b66ea316d21385b68909f,,,,,,,,,,,4016.4167,4017.4198,,,4017.9183,4018.166,,101,101,,,,,,,,,,,,,,,,bars/015.png,bars/mask006.png,,,,,,,,,,,,1,1,,,,,,,0,10,2,10,,,,,,,,,,,4017.4199,4017.9182,4018.1661,4022.4788,space,4.3006,,4022.4789,9,59,4023.4795,4023.4795,4023.4943,,,,0,12,12,12,1,110,160,,,,,,,,
,,613b7bdc3a329ab20c067d1a,65af55d2be6af047326a98c0,2024-01-23_24h08.35.388,bars,2023.2.3,Win32,142.8571429,657b66ea316d21385b68909f,,,,,,,,,,,4023.4946,4024.4926,,,4024.9927,4025.2424,,102,102,,,,,,,,,,,,,,,,bars/019.png,bars/mask002.png,,,,,,,,,,,,7,2,,,,,,,2,8,2,8,,,,,,,,,,,4024.4926,4024.9927,4025.2425,4025.7639,space,0.5129,,4025.764,57,3,4026.7633,4026.7635,4026.7654,,,,0,13,13,13,1,45,105,,,,,,,,
,,613b7bdc3a329ab20c067d1a,65af55d2be6af047326a98c0,2024-01-23_24h08.35.388,bars,2023.2.3,Win32,142.8571429,657b66ea316d21385b68909f,,,,,,,,,,,4026.7657,4027.7634,,,4028.2639,4028.5131,,109,109,,,,,,,,,,,,,,,,bars/020.png,bars/mask008.png,,,,,,,,,,,,4,1,,,,,,,4,6,5,5,,,,,,,,,,,4027.7636,4028.2638,4028.5132,4034.1793,space,5.655,,4034.1794,6,61,4035.18,4035.1801,4035.196,,,,0,14,14,14,1,115,170,,,,,,,,
,,613b7bdc3a329ab20c067d1a,65af55d2be6af047326a98c0,2024-01-23_24h08.35.388,bars,2023.2.3,Win32,142.8571429,657b66ea316d21385b68909f,,,,,,,,,,,4035.1964,4036.194,,,4036.6928,4036.944,,88,88,,,,,,,,,,,,,,,,bars/001.png,bars/mask008.png,,,,,,,,,,,,7,2,,,,,,,6,8,5,8,,,,,,,,,,,4036.194,4036.6928,4036.944,4045.625,space,8.6685,,4045.6251,42,3,4046.6252,4046.6253,4046.641,,,,0,15,15,15,1,130,85,,,,,,,,
,,613b7bdc3a329ab20c067d1a,65af55d2be6af047326a98c0,2024-01-23_24h08.35.388,bars,2023.2.3,Win32,142.8571429,657b66ea316d21385b68909f,,,,,,,,,,,4046.6413,4047.6438,,,4048.1387,4048.3894,,156,156,,,,,,,,,,,,,,,,bars/049.png,bars/mask001.png,,,,,,,,,,,,7,1,,,,,,,8,6,8,7,,,,,,,,,,,4047.6438,4048.1386,4048.3895,4049.1262,space,0.7301,,4049.1262,4,41,4050.1248,4050.1248,4050.128,,,,0,16,16,16,1,160,115,,,,,,,,
,,613b7bdc3a329ab20c067d1a,65af55d2be6af047326a98c0,2024-01-23_24h08.35.388,bars,2023.2.3,Win32,142.8571429,657b66ea316d21385b68909f,,,,,,,,,,,4050.1288,4051.1246,,,4051.6255,4051.8748,,146,146,,,,,,,,,,,,,,,,bars/023.png,bars/mask002.png,,,,,,,,,,,,0,2,,,,,,,10,4,10,3,,,,,,,,,,,4051.1247,4051.6255,4051.8749,4052.5632,space,0.6824,,4052.5633,54,31,4053.562,4053.5621,4053.5643,,,,0,17,17,17,1,20,115,,,,,,,,
,,613b7bdc3a329ab20c067d1a,65af55d2be6af047326a98c0,2024-01-23_24h08.35.388,bars,2023.2.3,Win32,142.8571429,657b66ea316d21385b68909f,,,,,,,,,,,4053.5646,4054.562,,,4055.062,4055.3122,,165,165,,,,,,,,,,,,,,,,bars/044.png,bars/mask001.png,,,,,,,,,,,,1,2,,,,,,,10,2,10,2,,,,,,,,,,,4054.5621,4055.062,4055.3122,4056.6122,space,1.2939,,4056.6123,90,10,4057.6109,4057.6109,4057.6117,,,,0,18,18,18,1,75,155,,,,,,,,
,,613b7bdc3a329ab20c067d1a,65af55d2be6af047326a98c0,2024-01-23_24h08.35.388,bars,2023.2.3,Win32,142.8571429,657b66ea316d21385b68909f,,,,,,,,,,,4057.6119,4058.6108,,,4059.1108,4059.3611,,102,102,,,,,,,,,,,,,,,,bars/027.png,bars/mask005.png,,,,,,,,,,,,7,1,,,,,,,8,4,9,4,,,,,,,,,,,4058.6109,4059.1108,4059.3611,4060.8757,space,1.5022,,4060.8757,8,52,4061.8748,4061.875,4061.8769,,,,0,19,19,19,1,110,50,,,,,,,,
,,613b7bdc3a329ab20c067d1a,65af55d2be6af047326a98c0,2024-01-23_24h08.35.388,bars,2023.2.3,Win32,142.8571429,657b66ea316d21385b68909f,,,,,,,,,,,4061.8772,4062.8748,,,4063.375,4063.6248,,101,101,,,,,,,,,,,,,,,,bars/041.png,bars/mask001.png,,,,,,,,,,,,1,2,,,,,,,10,2,10,3,,,,,,,,,,,4062.8749,4063.3749,4063.6249,4066.9168,space,3.2841,,4066.9169,81,16,4067.917,4067.917,4067.9322,,,,0,20,20,20,1,20,85,,,,,,,,
,,613b7bdc3a329ab20c067d1a,65af55d2be6af047326a98c0,2024-01-23_24h08.35.388,bars,2023.2.3,Win32,142.8571429,657b66ea316d21385b68909f,,,,,,,,,,,4067.9325,4068.9335,,,4069.4344,4069.6831,,48,48,,,,,,,,,,,,,,,,bars/017.png,bars/mask001.png,,,,,,,,,,,,0,2,,,,,,,10,0,9,0,,,,,,,,,,,4068.9335,4069.4344,4069.6831,4071.5668,space,1.8756,,4071.5669,83,3,4072.5625,4072.5626,4072.5633,,,,0,21,21,21,1,145,45,,,,,,,,
,,613b7bdc3a329ab20c067d1a,65af55d2be6af047326a98c0,2024-01-23_24h08.35.388,bars,2023.2.3,Win32,142.8571429,657b66ea316d21385b68909f,,,,,,,,,,,4072.5637,4073.5623,,,4074.0626,4074.3126,,141,141,,,,,,,,,,,,,,,,bars/043.png,bars/mask007.png,,,,,,,,,,,,0,2,,,,,,,8,0,7,0,,,,,,,,,,,4073.5625,4074.0625,4074.3127,4075.0145,space,0.696,,4075.0145,69,11,4076.0138,4076.0139,4076.015,,,,0,22,22,22,1,30,130,,,,,,,,
,,613b7bdc3a329ab20c067d1a,65af55d2be6af047326a98c0,2024-01-23_24h08.35.388,bars,2023.2.3,Win32,142.8571429,657b66ea316d21385b68909f,,,,,,,,,,,4076.0155,4077.0142,,,4077.5139,4077.7636,,6,186,,,,,,,,,,,,,,,,bars/012.png,bars/mask003.png,,,,,,,,,,,,0,2,,,,,,,6,0,4,0,,,,,,,,,,,4077.0142,4077.5139,4077.7637,4081.3902,space,3.6155,,4081.3903,84,9,4082.3859,4082.3859,4082.4003,,,,0,23,23,23,1,90,15,,,,,,,,
,,613b7bdc3a329ab20c067d1a,65af55d2be6af047326a98c0,2024-01-23_24h08.35.388,bars,2023.2.3,Win32,142.8571429,657b66ea316d21385b68909f,,,,,,,,,,,4082.4006,4083.3964,,,4083.8996,4084.1457,,108,108,,,,,,,,,,,,,,,,bars/039.png,bars/mask004.png,,,,,,,,,,,,0,2,,,,,,,8,0,8,0,,,,,,,,,,,4083.3965,4083.8996,4084.1458,4084.5947,space,0.4362,,4084.5948,67,3,4085.5923,4085.5924,4085.5932,,,,0,24,24,24,1,175,105,,,,,,,,
,,613b7bdc3a329ab20c067d1a,65af55d2be6af047326a98c0,2024-01-23_24h08.35.388,bars,2023.2.3,Win32,142.8571429,657b66ea316d21385b68909f,,,,,,,,,,,4085.5935,4086.5902,,,4087.0902,4087.3402,,6,6,,,,,,,,,,,,,,,,bars/032.png,bars/mask007.png,,,,,,,,,,,,0,2,,,,,,,6,0,5,0,,,,,,,,,,,4086.5902,4087.0902,4087.3403,4089.9657,space,2.6107,,4089.9658,61,14,4090.9654,4090.9654,4090.9793,,,,0,25,25,25,1,125,20,,,,,,,,
,,613b7bdc3a329ab20c067d1a,65af55d2be6af047326a98c0,2024-01-23_24h08.35.388,bars,2023.2.3,Win32,142.8571429,657b66ea316d21385b68909f,,,,,,,,,,,4090.9796,4091.9792,,,4092.4791,4092.7244,,161,161,,,,,,,,,,,,,,,,bars/008.png,bars/mask001.png,,,,,,,,,,,,1,2,,,,,,,8,2,7,4,,,,,,,,,,,4091.9792,4092.479,4092.7244,4094.5213,space,1.7918,,4094.5214,51,19,4095.5209,4095.5211,4095.5351,,,,0,26,26,26,1,110,0,,,,,,,,
,,613b7bdc3a329ab20c067d1a,65af55d2be6af047326a98c0,2024-01-23_24h08.35.388,bars,2023.2.3,Win32,142.8571429,657b66ea316d21385b68909f,,,,,,,,,,,4095.5354,4096.5346,,,4097.0418,4097.2846,,33,213,,,,,,,,,,,,,,,,bars/036.png,bars/mask002.png,,,,,,,,,,,,1,2,,,,,,,6,0,6,1,,,,,,,,,,,4096.5346,4097.0418,4097.2847,4101.4241,space,4.1307,,4101.4241,68,13,4102.4238,4102.4239,4102.4378,,,,0,27,27,27,1,145,20,,,,,,,,
,,613b7bdc3a329ab20c067d1a,65af55d2be6af047326a98c0,2024-01-23_24h08.35.388,bars,2023.2.3,Win32,142.8571429,657b66ea316d21385b68909f,,,,,,,,,,,4102.4381,4103.4375,,,4103.9409,4104.1884,,177,177,,,,,,,,,,,,,,,,bars/012.png,bars/mask003.png,,,,,,,,,,,,1,2,,,,,,,4,2,4,3,,,,,,,,,,,4103.4376,4103.9408,4104.1884,4104.706,space,0.5075,,4104.706,87,18,4105.7016,4105.7016,4105.7024,,,,0,28,28,28,1,90,15,,,,,,,,
,,613b7bdc3a329ab20c067d1a,65af55d2be6af047326a98c0,2024-01-23_24h08.35.388,bars,2023.2.3,Win32,142.8571429,657b66ea316d21385b68909f,,,,,,,,,,,4105.7026,4106.7016,,,4107.1968,4107.4446,,18,18,,,,,,,,,,,,,,,,bars/040.png,bars/mask009.png,,,,,,,,,,,,0,2,,,,,,,2,0,2,0,,,,,,,,,,,4106.7017,4107.1968,4107.4446,4110.1742,space,2.7149,,4110.1742,58,13,4111.1739,4111.1739,4111.1878,,,,0,29,29,29,1,140,5,,,,,,,,
,,613b7bdc3a329ab20c067d1a,65af55d2be6af047326a98c0,2024-01-23_24h08.35.388,bars,2023.2.3,Win32,142.8571429,657b66ea316d21385b68909f,,,,,,,,,,,4111.1881,4112.1932,,,4112.6948,4112.9448,,71,71,,,,,,,,,,,,,,,,bars/047.png,bars/mask007.png,,,,,,,,,,,,0,2,,,,,,,4,0,4,0,,,,,,,,,,,4112.1932,4112.6948,4112.9448,4114.4451,space,1.4941,,4114.4451,56,1,4115.4448,4115.4449,4115.4582,,,,0,30,30,30,1,15,70,,,,,,,,
,,613b7bdc3a329ab20c067d1a,65af55d2be6af047326a98c0,2024-01-23_24h08.35.388,bars,2023.2.3,Win32,142.8571429,657b66ea316d21385b68909f,,,,,,,,,,,4115.4585,4116.4641,,,4116.9584,4117.2056,,13,13,,,,,,,,,,,,,,,,bars/035.png,bars/mask005.png,,,,,,,,,,,,0,1,,,,,,,2,0,0,0,,,,,,,,,,,4116.4641,4116.9583,4117.2056,4119.1604,space,1.9457,,4119.1607,18,47,4120.1601,4120.1602,4120.1626,,,,0,31,31,31,1,175,60,,,,,,,,
,,613b7bdc3a329ab20c067d1a,65af55d2be6af047326a98c0,2024-01-23_24h08.35.388,bars,2023.2.3,Win32,142.8571429,657b66ea316d21385b68909f,,,,,,,,,,,4120.163,4121.1603,,,4121.6604,4121.9101,,46,226,,,,,,,,,,,,,,,,bars/026.png,bars/mask009.png,,,,,,,,,,,,0,1,,,,,,,0,0,0,0,,,,,,,,,,,4121.1603,4121.6601,4121.9101,4124.8764,space,2.9604,,4124.8765,11,39,4125.8765,4125.8765,4125.8901,,,,0,32,32,32,1,35,85,,,,,,,,
,,613b7bdc3a329ab20c067d1a,65af55d2be6af047326a98c0,2024-01-23_24h08.35.388,bars,2023.2.3,Win32,142.8571429,657b66ea316d21385b68909f,,,,,,,,,,,4125.8904,4126.8913,,,4127.3895,4127.6391,,112,112,,,,,,,,,,,,,,,,bars/000.png,bars/mask004.png,,,,,,,,,,,,0,2,,,,,,,0,2,0,3,,,,,,,,,,,4126.8914,4127.3895,4127.6391,4128.1403,space,0.4963,,4128.1403,72,33,4129.1392,4129.1394,4129.1415,,,,0,33,33,33,1,40,145,,,,,,,,
,,613b7bdc3a329ab20c067d1a,65af55d2be6af047326a98c0,2024-01-23_24h08.35.388,bars,2023.2.3,Win32,142.8571429,657b66ea316d21385b68909f,,,,,,,,,,,4129.1418,4130.1392,,,4130.6363,4130.8863,,44,44,,,,,,,,,,,,,,,,bars/010.png,bars/mask003.png,,,,,,,,,,,,3,2,,,,,,,2,4,0,4,,,,,,,,,,,4130.1393,4130.6363,4130.8863,4132.9172,space,2.0232,,4132.9173,59,11,4133.9169,4133.917,4133.9311,,,,0,34,34,34,1,165,55,,,,,,,,
,,613b7bdc3a329ab20c067d1a,65af55d2be6af047326a98c0,2024-01-23_24h08.35.388,bars,2023.2.3,Win32,142.8571429,657b66ea316d21385b68909f,,,,,,,,,,,4133.9313,4134.9331,,,4135.4312,4135.6812,,13,193,,,,,,,,,,,,,,,,bars/012.png,bars/mask003.png,,,,,,,,,,,,5,2,,,,,,,4,6,5,5,,,,,,,,,,,4134.9332,4135.4312,4135.6812,4137.7727,space,2.0856,,4137.7728,77,2,4138.7713,4138.7713,4138.773,,,,0,35,35,35,1,90,15,,,,,,,,
,,613b7bdc3a329ab20c067d1a,65af55d2be6af047326a98c0,2024-01-23_24h08.35.388,bars,2023.2.3,Win32,142.8571429,657b66ea316d21385b68909f,,,,,,,,,,,4138.7736,4139.7713,,,4140.2722,4140.5217,,4,4,,,,,,,,,,,,,,,,bars/032.png,bars/mask003.png,,,,,,,,,,,,1,2,,,,,,,6,4,6,3,,,,,,,,,,,4139.7714,4140.2721,4140.5217,4142.1402,space,1.6127,,4142.1402,59,16,4143.1394,4143.1395,4143.1533,,,,0,36,36,36,1,125,20,,,,,,,,
,,613b7bdc3a329ab20c067d1a,65af55d2be6af047326a98c0,2024-01-23_24h08.35.388,bars,2023.2.3,Win32,142.8571429,657b66ea316d21385b68909f,,,,,,,,,,,4143.1538,4144.1534,,,4144.6543,4144.9034,,102,102,,,,,,,,,,,,,,,,bars/023.png,bars/mask005.png,,,,,,,,,,,,3,2,,,,,,,4,6,4,6,,,,,,,,,,,4144.1534,4144.6543,4144.9034,4146.5646,space,1.655,,4146.5646,82,13,4147.5629,4147.5629,4147.5777,,,,0,37,37,37,1,20,115,,,,,,,,
,,613b7bdc3a329ab20c067d1a,65af55d2be6af047326a98c0,2024-01-23_24h08.35.388,bars,2023.2.3,Win32,142.8571429,657b66ea316d21385b68909f,,,,,,,,,,,4147.5779,4148.5768,,,4149.0769,4149.3274,,23,23,,,,,,,,,,,,,,,,bars/025.png,bars/mask002.png,,,,,,,,,,,,3,2,,,,,,,2,8,2,8,,,,,,,,,,,4148.5768,4149.0769,4149.3274,4150.662,space,1.3242,,4150.662,82,17,4151.6602,4151.6603,4151.6611,,,,0,38,38,38,1,105,40,,,,,,,,
,,613b7bdc3a329ab20c067d1a,65af55d2be6af047326a98c0,2024-01-23_24h08.35.388,bars,2023.2.3,Win32,142.8571429,657b66ea316d21385b68909f,,,,,,,,,,,4151.6615,4152.6604,,,4153.1614,4153.4105,,122,122,,,,,,,,,,,,,,,,bars/049.png,bars/mask009.png,,,,,,,,,,,,8,2,,,,,,,4,10,4,10,,,,,,,,,,,4152.6604,4153.1614,4153.4105,4154.2302,space,0.8111,,4154.2303,38,7,4155.2298,4155.2299,4155.2306,,,,0,39,39,39,1,160,115,,,,,,,,
,,613b7bdc3a329ab20c067d1a,65af55d2be6af047326a98c0,2024-01-23_24h08.35.388,bars,2023.2.3,Win32,142.8571429,657b66ea316d21385b68909f,,,,,,,,,,,4155.2308,4156.2298,,,4156.7299,4156.9798,,63,243,,,,,,,,,,,,,,,,bars/047.png,bars/mask007.png,,,,,,,,,,,,6,2,,,,,,,2,8,3,8,,,,,,,,,,,4156.2298,4156.7298,4156.9798,4161.6536,space,4.6677,,4161.6539,48,7,4162.6535,4162.6536,4162.6675,,,,0,40,40,40,1,15,70,,,,,,,,
,,613b7bdc3a329ab20c067d1a,65af55d2be6af047326a98c0,2024-01-23_24h08.35.388,bars,2023.2.3,Win32,142.8571429,657b66ea316d21385b68909f,,,,,,,,,,,4162.668,4163.6673,,,4164.1682,4164.4175,,169,169,,,,,,,,,,,,,,,,bars/048.png,bars/mask005.png,,,,,,,,,,,,5,2,,,,,,,4,6,4,6,,,,,,,,,,,4163.6673,4164.1682,4164.4176,4167.1746,space,2.7505,,4167.1746,61,6,4168.1744,4168.1746,4168.1897,,,,0,41,41,41,1,50,175,,,,,,,,
,,613b7bdc3a329ab20c067d1a,65af55d2be6af047326a98c0,2024-01-23_24h08.35.388,bars,2023.2.3,Win32,142.8571429,657b66ea316d21385b68909f,,,,,,,,,,,4168.1899,4169.1882,,,4169.689,4169.9381,,167,-13,,,,,,,,,,,,,,,,bars/003.png,bars/mask008.png,,,,,,,,,,,,1,2,,,,,,,6,8,4,10,,,,,,,,,,,4169.1882,4169.6889,4169.9382,4180.536,space,10.583,,4180.5361,38,27,4181.5355,4181.5355,4181.5498,,,,0,42,42,42,1,25,140,,,,,,,,
,,613b7bdc3a329ab20c067d1a,65af55d2be6af047326a98c0,2024-01-23_24h08.35.388,bars,2023.2.3,Win32,142.8571429,657b66ea316d21385b68909f,,,,,,,,,,,4181.5501,4182.5493,,,4183.0494,4183.3037,,111,-69,,,,,,,,,,,,,,,,bars/037.png,bars/mask004.png,,,,,,,,,,,,8,2,,,,,,,8,10,8,10,,,,,,,,,,,4182.5494,4183.0494,4183.3038,4187.3761,space,4.0666,,4187.3762,39,6,4188.3759,4188.376,4188.3899,,,,0,43,43,43,1,150,105,,,,,,,,
,,613b7bdc3a329ab20c067d1a,65af55d2be6af047326a98c0,2024-01-23_24h08.35.388,bars,2023.2.3,Win32,142.8571429,657b66ea316d21385b68909f,,,,,,,,,,,4188.3902,4189.3936,,,4189.89,4190.1437,,78,78,,,,,,,,,,,,,,,,bars/038.png,bars/mask000.png,,,,,,,,,,,,7,2,,,,,,,6,10,5,10,,,,,,,,,,,4189.3937,4189.89,4190.1438,4191.8349,space,1.6824,,4191.8349,87,8,4192.8341,4192.8342,4192.8354,,,,0,44,44,44,1,165,70,,,,,,,,
,,613b7bdc3a329ab20c067d1a,65af55d2be6af047326a98c0,2024-01-23_24h08.35.388,bars,2023.2.3,Win32,142.8571429,657b66ea316d21385b68909f,,,,,,,,,,,4192.8363,4193.8341,,,4194.3342,4194.5841,,105,105,,,,,,,,,,,,,,,,bars/041.png,bars/mask008.png,,,,,,,,,,,,3,2,,,,,,,4,10,4,10,,,,,,,,,,,4193.8342,4194.3341,4194.5842,4197.654,space,3.0565,,4197.654,85,20,4198.6538,4198.6538,4198.6671,,,,0,45,45,45,1,20,85,,,,,,,,
,,613b7bdc3a329ab20c067d1a,65af55d2be6af047326a98c0,2024-01-23_24h08.35.388,bars,2023.2.3,Win32,142.8571429,657b66ea316d21385b68909f,,,,,,,,,,,4198.6676,4199.6684,,,4200.1675,4200.4175,,72,72,,,,,,,,,,,,,,,,bars/017.png,bars/mask001.png,,,,,,,,,,,,1,2,,,,,,,6,10,6,9,,,,,,,,,,,4199.6684,4200.1675,4200.4176,4204.3696,space,3.9453,,4204.3697,73,27,4205.3692,4205.3692,4205.3829,,,,0,46,46,46,1,145,45,,,,,,,,
,,613b7bdc3a329ab20c067d1a,65af55d2be6af047326a98c0,2024-01-23_24h08.35.388,bars,2023.2.3,Win32,142.8571429,657b66ea316d21385b68909f,,,,,,,,,,,4205.3833,4206.3828,,,4206.8782,4207.1262,,146,146,,,,,,,,,,,,,,,,bars/004.png,bars/mask006.png,,,,,,,,,,,,2,2,,,,,,,4,8,2,8,,,,,,,,,,,4206.3828,4206.8782,4207.1263,4207.6328,space,0.5023,,4207.6329,59,21,4208.6332,4208.6333,4208.6342,,,,0,47,47,47,1,25,125,,,,,,,,
,,613b7bdc3a329ab20c067d1a,65af55d2be6af047326a98c0,2024-01-23_24h08.35.388,bars,2023.2.3,Win32,142.8571429,657b66ea316d21385b68909f,,,,,,,,,,,4208.6346,4209.633,,,4210.133,4210.3838,,65,-115,,,,,,,,,,,,,,,,bars/029.png,bars/mask002.png,,,,,,,,,,,,3,2,,,,,,,6,10,6,10,,,,,,,,,,,4209.633,4210.133,4210.3838,4215.2098,space,4.8214,,4215.2099,25,20,4216.2097,4216.2098,4216.2234,,,,0,48,48,48,1,90,45,,,,,,,,
,,613b7bdc3a329ab20c067d1a,65af55d2be6af047326a98c0,2024-01-23_24h08.35.388,bars,2023.2.3,Win32,142.8571429,657b66ea316d21385b68909f,,,,,,,,,,,4216.2237,4217.2234,,,4217.7233,4217.9705,,43,43,,,,,,,,,,,,,,,,bars/034.png,bars/mask001.png,,,,,,,,,,,,3,2,,,,,,,4,10,6,10,,,,,,,,,,,4217.2234,4217.7233,4217.9706,4220.9849,space,3.0074,,4220.985,82,22,4221.9802,4221.9803,4221.9941,,,,0,49,49,49,1,125,65,,,,,,,,
,,613b7bdc3a329ab20c067d1a,65af55d2be6af047326a98c0,2024-01-23_24h08.35.388,bars,2023.2.3,Win32,142.8571429,657b66ea316d21385b68909f,,,,,,,,,,,,,,,,,,,,,,,,,,,,,,,,,,,,,,,,,,,,,,,,,,,,,,,,,,,,,,,,,,,,,,,,,,,,,,,,,,,,,,,,,,,,,4221.9943,4281.995,0,2,2,2,1,sequence_tables/blk008.csv
,,613b7bdc3a329ab20c067d1a,65af55d2be6af047326a98c0,2024-01-23_24h08.35.388,bars,2023.2.3,Win32,142.8571429,657b66ea316d21385b68909f,,,,,,,,,,,4289.7393,4290.7192,,,4291.217,4291.4641,,77,77,,,,,,,,,,,,,,,,bars/038.png,bars/mask001.png,,,,,,,,,,,,5,2,,,,,,,3,6,4,7,,,,,,4282.0095,4289.7178,space,7.7017,,4290.7193,4291.217,4291.4641,4294.4814,space,3.0115,,4294.4814,88,7,4295.4817,4295.4817,4295.4953,,,,0,0,0,0,1,165,70,,,,,,,,
,,613b7bdc3a329ab20c067d1a,65af55d2be6af047326a98c0,2024-01-23_24h08.35.388,bars,2023.2.3,Win32,142.8571429,657b66ea316d21385b68909f,,,,,,,,,,,4295.4956,4296.5004,,,4297.005,4297.2557,,64,64,,,,,,,,,,,,,,,,bars/042.png,bars/mask005.png,,,,,,,,,,,,4,2,,,,,,,5,8,3,7,,,,,,,,,,,4296.5004,4297.0049,4297.2557,4297.8908,space,0.6302,,4297.8909,81,11,4298.8908,4298.8908,4298.8915,,,,0,1,1,1,1,145,75,,,,,,,,
,,613b7bdc3a329ab20c067d1a,65af55d2be6af047326a98c0,2024-01-23_24h08.35.388,bars,2023.2.3,Win32,142.8571429,657b66ea316d21385b68909f,,,,,,,,,,,4298.8918,4299.8917,,,4300.3872,4300.6328,,8,188,,,,,,,,,,,,,,,,bars/014.png,bars/mask007.png,,,,,,,,,,,,7,2,,,,,,,7,10,8,10,,,,,,,,,,,4299.8918,4300.3871,4300.6329,4303.7356,space,3.0969,,4303.7356,72,8,4304.7313,4304.7313,4304.7451,,,,0,2,2,2,1,80,0,,,,,,,,
,,613b7bdc3a329ab20c067d1a,65af55d2be6af047326a98c0,2024-01-23_24h08.35.388,bars,2023.2.3,Win32,142.8571429,657b66ea316d21385b68909f,,,,,,,,,,,4304.7455,4305.7448,,,4306.2452,4306.4951,,113,113,,,,,,,,,,,,,,,,bars/049.png,bars/mask003.png,,,,,,,,,,,,9,2,,,,,,,5,10,5,10,,,,,,,,,,,4305.7448,4306.2452,4306.4952,4306.9746,space,0.4746,,4306.9746,47,2,4307.9743,4307.9743,4307.975,,,,0,3,3,3,1,160,115,,,,,,,,
,,613b7bdc3a329ab20c067d1a,65af55d2be6af047326a98c0,2024-01-23_24h08.35.388,bars,2023.2.3,Win32,142.8571429,657b66ea316d21385b68909f,,,,,,,,,,,4307.9753,4308.9753,,,4309.4742,4309.7242,,176,176,,,,,,,,,,,,,,,,bars/008.png,bars/mask008.png,,,,,,,,,,,,7,2,,,,,,,3,10,2,8,,,,,,,,,,,4308.9753,4309.4741,4309.7243,4312.0102,space,2.2813,,4312.0102,66,4,4313.0089,4313.009,4313.0237,,,,0,4,4,4,1,110,0,,,,,,,,
,,613b7bdc3a329ab20c067d1a,65af55d2be6af047326a98c0,2024-01-23_24h08.35.388,bars,2023.2.3,Win32,142.8571429,657b66ea316d21385b68909f,,,,,,,,,,,4313.024,4314.0209,,,4314.516,4314.7658,,73,73,,,,,,,,,,,,,,,,bars/007.png,bars/mask004.png,,,,,,,,,,,,4,2,,,,,,,1,10,1,9,,,,,,,,,,,4314.0209,4314.516,4314.7658,4315.2287,space,0.449,,4315.2287,78,18,4316.2244,4316.2244,4316.2252,,,,0,5,5,5,1,175,55,,,,,,,,
,,613b7bdc3a329ab20c067d1a,65af55d2be6af047326a98c0,2024-01-23_24h08.35.388,bars,2023.2.3,Win32,142.8571429,657b66ea316d21385b68909f,,,,,,,,,,,4316.2254,4317.2241,,,4317.725,4317.9743,,155,-25,,,,,,,,,,,,,,,,bars/044.png,bars/mask000.png,,,,,,,,,,,,10,2,,,,,,,3,10,1,10,,,,,,,,,,,4317.2242,4317.7249,4317.9744,4321.1067,space,3.1244,,4321.1068,80,0,4322.1065,4322.1065,4322.1209,,,,0,6,6,6,1,75,155,,,,,,,,
,,613b7bdc3a329ab20c067d1a,65af55d2be6af047326a98c0,2024-01-23_24h08.35.388,bars,2023.2.3,Win32,142.8571429,657b66ea316d21385b68909f,,,,,,,,,,,4322.1211,4323.121,,,4323.6203,4323.87,,87,-93,,,,,,,,,,,,,,,,bars/018.png,bars/mask007.png,,,,,,,,,,,,9,2,,,,,,,5,10,5,10,,,,,,,,,,,4323.121,4323.6203,4323.8701,4328.2743,space,4.3933,,4328.2743,63,3,4329.2731,4329.2731,4329.287,,,,0,7,7,7,1,150,90,,,,,,,,
,,613b7bdc3a329ab20c067d1a,65af55d2be6af047326a98c0,2024-01-23_24h08.35.388,bars,2023.2.3,Win32,142.8571429,657b66ea316d21385b68909f,,,,,,,,,,,4329.2874,4330.289,,,4330.7868,4331.0338,,95,95,,,,,,,,,,,,,,,,bars/038.png,bars/mask000.png,,,,,,,,,,,,1,2,,,,,,,7,8,7,9,,,,,,,,,,,4330.289,4330.7868,4331.034,4334.5583,space,3.5202,,4334.5584,70,25,4335.5577,4335.5579,4335.5726,,,,0,8,8,8,1,165,70,,,,,,,,
,,613b7bdc3a329ab20c067d1a,65af55d2be6af047326a98c0,2024-01-23_24h08.35.388,bars,2023.2.3,Win32,142.8571429,657b66ea316d21385b68909f,,,,,,,,,,,4335.573,4336.5715,,,4337.0757,4337.3219,,117,-63,,,,,,,,,,,,,,,,bars/023.png,bars/mask008.png,,,,,,,,,,,,5,2,,,,,,,5,6,7,5,,,,,,,,,,,4336.5716,4337.0756,4337.3219,4341.6493,space,4.3218,,4341.6493,83,2,4342.6481,4342.6482,4342.663,,,,0,9,9,9,1,20,115,,,,,,,,
,,613b7bdc3a329ab20c067d1a,65af55d2be6af047326a98c0,2024-01-23_24h08.35.388,bars,2023.2.3,Win32,142.8571429,657b66ea316d21385b68909f,,,,,,,,,,,4342.6632,4343.662,,,4344.1621,4344.4122,,110,110,,,,,,,,,,,,,,,,bars/020.png,bars/mask004.png,,,,,,,,,,,,6,1,,,,,,,7,8,7,10,,,,,,,,,,,4343.6622,4344.162,4344.4122,4346.406,space,1.9891,,4346.4061,5,60,4347.4051,4347.4052,4347.4203,,,,0,10,10,10,1,115,170,,,,,,,,
,,613b7bdc3a329ab20c067d1a,65af55d2be6af047326a98c0,2024-01-23_24h08.35.388,bars,2023.2.3,Win32,142.8571429,657b66ea316d21385b68909f,,,,,,,,,,,4347.4206,4348.419,,,4348.9191,4349.1691,,124,124,,,,,,,,,,,,,,,,bars/023.png,bars/mask000.png,,,,,,,,,,,,6,2,,,,,,,9,10,8,9,,,,,,,,,,,4348.419,4348.9191,4349.1691,4352.3853,space,3.2101,,4352.3854,76,9,4353.3843,4353.3843,4353.3993,,,,0,11,11,11,1,20,115,,,,,,,,
,,613b7bdc3a329ab20c067d1a,65af55d2be6af047326a98c0,2024-01-23_24h08.35.388,bars,2023.2.3,Win32,142.8571429,657b66ea316d21385b68909f,,,,,,,,,,,4353.3996,4354.398,,,4354.8982,4355.148,,166,166,,,,,,,,,,,,,,,,bars/043.png,bars/mask008.png,,,,,,,,,,,,0,2,,,,,,,10,10,9,10,,,,,,,,,,,4354.3981,4354.898,4355.1481,4362.5444,space,7.3836,,4362.5444,44,36,4363.5442,4363.5442,4363.5579,,,,0,12,12,12,1,30,130,,,,,,,,
,,613b7bdc3a329ab20c067d1a,65af55d2be6af047326a98c0,2024-01-23_24h08.35.388,bars,2023.2.3,Win32,142.8571429,657b66ea316d21385b68909f,,,,,,,,,,,4363.5582,4364.5533,,,4365.0516,4365.301,,109,109,,,,,,,,,,,,,,,,bars/039.png,bars/mask005.png,,,,,,,,,,,,7,2,,,,,,,8,8,8,8,,,,,,,,,,,4364.5533,4365.0516,4365.301,4367.1111,space,1.7972,,4367.1112,66,4,4368.1065,4368.1065,4368.1075,,,,0,13,13,13,1,175,105,,,,,,,,
,,613b7bdc3a329ab20c067d1a,65af55d2be6af047326a98c0,2024-01-23_24h08.35.388,bars,2023.2.3,Win32,142.8571429,657b66ea316d21385b68909f,,,,,,,,,,,4368.1081,4369.1139,,,4369.6105,4369.8565,,30,30,,,,,,,,,,,,,,,,bars/004.png,bars/mask006.png,,,,,,,,,,,,8,1,,,,,,,10,10,10,10,,,,,,,,,,,4369.1139,4369.6105,4369.8566,4369.9237,space,0.0561,,4369.9238,5,85,4370.9193,4370.9193,4370.9215,,,,0,14,14,14,1,25,125,,,,,,,,
,,613b7bdc3a329ab20c067d1a,65af55d2be6af047326a98c0,2024-01-23_24h08.35.388,bars,2023.2.3,Win32,142.8571429,657b66ea316d21385b68909f,,,,,,,,,,,4370.9219,4371.9191,,,4372.4223,4372.6699,,178,-2,,,,,,,,,,,,,,,,bars/045.png,bars/mask001.png,,,,,,,,,,,,6,2,,,,,,,8,10,6,10,,,,,,,,,,,4371.9192,4372.4223,4372.67,4376.7667,space,4.0853,,4376.7667,78,12,4377.7665,4377.7665,4377.7816,,,,0,15,15,15,1,100,10,,,,,,,,
,,613b7bdc3a329ab20c067d1a,65af55d2be6af047326a98c0,2024-01-23_24h08.35.388,bars,2023.2.3,Win32,142.8571429,657b66ea316d21385b68909f,,,,,,,,,,,4377.7819,4378.7801,,,4379.2811,4379.5304,,7,7,,,,,,,,,,,,,,,,bars/012.png,bars/mask009.png,,,,,,,,,,,,7,2,,,,,,,10,10,10,9,,,,,,,,,,,4378.7802,4379.281,4379.5304,4380.8015,space,1.263,,4380.8016,83,8,4381.8013,4381.8013,4381.8021,,,,0,16,16,16,1,90,15,,,,,,,,
,,613b7bdc3a329ab20c067d1a,65af55d2be6af047326a98c0,2024-01-23_24h08.35.388,bars,2023.2.3,Win32,142.8571429,657b66ea316d21385b68909f,,,,,,,,,,,4381.8023,4382.8012,,,4383.3014,4383.5513,,78,78,,,,,,,,,,,,,,,,bars/042.png,bars/mask004.png,,,,,,,,,,,,9,2,,,,,,,10,10,10,10,,,,,,,,,,,4382.8014,4383.3013,4383.5513,4386.0861,space,2.5296,,4386.0862,67,3,4387.0861,4387.0861,4387.0995,,,,0,17,17,17,1,145,75,,,,,,,,
,,613b7bdc3a329ab20c067d1a,65af55d2be6af047326a98c0,2024-01-23_24h08.35.388,bars,2023.2.3,Win32,142.8571429,657b66ea316d21385b68909f,,,,,,,,,,,4387.0999,4388.0997,,,4388.6,4388.8468,,78,78,,,,,,,,,,,,,,,,bars/021.png,bars/mask000.png,,,,,,,,,,,,7,2,,,,,,,10,10,9,10,,,,,,,,,,,4388.0997,4388.5998,4388.8469,4390.9962,space,2.1417,,4390.9962,77,8,4391.9958,4391.9959,4391.9966,,,,0,18,18,18,1,155,70,,,,,,,,
,,613b7bdc3a329ab20c067d1a,65af55d2be6af047326a98c0,2024-01-23_24h08.35.388,bars,2023.2.3,Win32,142.8571429,657b66ea316d21385b68909f,,,,,,,,,,,4391.9969,4392.9958,,,4393.4959,4393.7457,,6,186,,,,,,,,,,,,,,,,bars/014.png,bars/mask001.png,,,,,,,,,,,,6,2,,,,,,,8,8,10,8,,,,,,,,,,,4392.9958,4393.4957,4393.7458,4396.4822,space,2.7286,,4396.4823,74,6,4397.4819,4397.482,4397.4958,,,,0,19,19,19,1,80,0,,,,,,,,
,,613b7bdc3a329ab20c067d1a,65af55d2be6af047326a98c0,2024-01-23_24h08.35.388,bars,2023.2.3,Win32,142.8571429,657b66ea316d21385b68909f,,,,,,,,,,,4397.4961,4398.4957,,,4398.9966,4399.2426,,108,108,,,,,,,,,,,,,,,,bars/005.png,bars/mask003.png,,,,,,,,,,,,0,2,,,,,,,10,6,10,5,,,,,,,,,,,4398.4957,4398.9966,4399.2427,4401.8224,space,2.5749,,4401.8225,82,32,4402.8223,4402.8223,4402.8362,,,,0,20,20,20,1,10,140,,,,,,,,
,,613b7bdc3a329ab20c067d1a,65af55d2be6af047326a98c0,2024-01-23_24h08.35.388,bars,2023.2.3,Win32,142.8571429,657b66ea316d21385b68909f,,,,,,,,,,,4402.8365,4403.8362,,,4404.336,4404.5828,,101,101,,,,,,,,,,,,,,,,bars/006.png,bars/mask008.png,,,,,,,,,,,,5,2,,,,,,,10,4,10,5,,,,,,,,,,,4403.8362,4404.336,4404.5829,4406.9198,space,2.3282,,4406.9199,66,1,4407.92,4407.9201,4407.9208,,,,0,21,21,21,1,35,100,,,,,,,,
,,613b7bdc3a329ab20c067d1a,65af55d2be6af047326a98c0,2024-01-23_24h08.35.388,bars,2023.2.3,Win32,142.8571429,657b66ea316d21385b68909f,,,,,,,,,,,4407.9211,4408.9196,,,4409.4204,4409.6693,,72,-108,,,,,,,,,,,,,,,,bars/042.png,bars/mask003.png,,,,,,,,,,,,0,2,,,,,,,8,2,9,0,,,,,,,,,,,4408.9197,4409.4203,4409.6693,4414.2322,space,4.5557,,4414.2323,73,3,4415.2322,4415.2323,4415.246,,,,0,22,22,22,1,145,75,,,,,,,,
,,613b7bdc3a329ab20c067d1a,65af55d2be6af047326a98c0,2024-01-23_24h08.35.388,bars,2023.2.3,Win32,142.8571429,657b66ea316d21385b68909f,,,,,,,,,,,4415.2464,4416.2459,,,4416.7459,4416.9958,,20,20,,,,,,,,,,,,,,,,bars/013.png,bars/mask005.png,,,,,,,,,,,,2,2,,,,,,,6,4,6,3,,,,,,,,,,,4416.246,4416.7458,4416.9958,4419.2462,space,2.239,,4419.2463,55,10,4420.2468,4420.2468,4420.2476,,,,0,23,23,23,1,75,10,,,,,,,,
,,613b7bdc3a329ab20c067d1a,65af55d2be6af047326a98c0,2024-01-23_24h08.35.388,bars,2023.2.3,Win32,142.8571429,657b66ea316d21385b68909f,,,,,,,,,,,4420.2477,4421.246,,,4421.7461,4421.996,,166,166,,,,,,,,,,,,,,,,bars/044.png,bars/mask008.png,,,,,,,,,,,,4,2,,,,,,,8,6,8,6,,,,,,,,,,,4421.2462,4421.7461,4421.9962,4422.9412,space,0.939,,4422.9413,89,11,4423.9405,4423.9405,4423.9415,,,,0,24,24,24,1,75,155,,,,,,,,
,,613b7bdc3a329ab20c067d1a,65af55d2be6af047326a98c0,2024-01-23_24h08.35.388,bars,2023.2.3,Win32,142.8571429,657b66ea316d21385b68909f,,,,,,,,,,,4423.9418,4424.9406,,,4425.4407,4425.6906,,104,104,,,,,,,,,,,,,,,,bars/039.png,bars/mask001.png,,,,,,,,,,,,5,2,,,,,,,10,4,10,5,,,,,,,,,,,4424.9406,4425.4406,4425.6907,4426.2117,space,0.5132,,4426.2117,71,1,4427.2114,4427.2115,4427.2122,,,,0,25,25,25,1,175,105,,,,,,,,
,,613b7bdc3a329ab20c067d1a,65af55d2be6af047326a98c0,2024-01-23_24h08.35.388,bars,2023.2.3,Win32,142.8571429,657b66ea316d21385b68909f,,,,,,,,,,,4427.2124,4428.2114,,,4428.7114,4428.9615,,150,150,,,,,,,,,,,,,,,,bars/044.png,bars/mask008.png,,,,,,,,,,,,2,2,,,,,,,10,2,10,2,,,,,,,,,,,4428.2114,4428.7113,4428.9615,4429.4339,space,0.467,,4429.4339,75,5,4430.4336,4430.4337,4430.4347,,,,0,26,26,26,1,75,155,,,,,,,,
,,613b7bdc3a329ab20c067d1a,65af55d2be6af047326a98c0,2024-01-23_24h08.35.388,bars,2023.2.3,Win32,142.8571429,657b66ea316d21385b68909f,,,,,,,,,,,4430.4351,4431.4336,,,4431.9337,4432.1837,,69,69,,,,,,,,,,,,,,,,bars/029.png,bars/mask004.png,,,,,,,,,,,,2,1,,,,,,,8,4,7,4,,,,,,,,,,,4431.4337,4431.9337,4432.1837,4433.7117,space,1.5205,,4433.7118,21,24,4434.7115,4434.7115,4434.7264,,,,0,27,27,27,1,90,45,,,,,,,,
,,613b7bdc3a329ab20c067d1a,65af55d2be6af047326a98c0,2024-01-23_24h08.35.388,bars,2023.2.3,Win32,142.8571429,657b66ea316d21385b68909f,,,,,,,,,,,4434.7268,4435.7251,,,4436.2252,4436.4752,,67,67,,,,,,,,,,,,,,,,bars/029.png,bars/mask000.png,,,,,,,,,,,,2,2,,,,,,,6,6,4,7,,,,,,,,,,,4435.7252,4436.2251,4436.4753,4438.1694,space,1.6831,,4438.1694,23,22,4439.1735,4439.1735,4439.1884,,,,0,28,28,28,1,90,45,,,,,,,,
,,613b7bdc3a329ab20c067d1a,65af55d2be6af047326a98c0,2024-01-23_24h08.35.388,bars,2023.2.3,Win32,142.8571429,657b66ea316d21385b68909f,,,,,,,,,,,4439.1887,4440.1837,,,4440.6839,4440.9338,,4,184,,,,,,,,,,,,,,,,bars/014.png,bars/mask004.png,,,,,,,,,,,,3,2,,,,,,,4,4,3,4,,,,,,,,,,,4440.1837,4440.6838,4440.9338,4444.4351,space,3.4965,,4444.4351,76,4,4445.4337,4445.4338,4445.4478,,,,0,29,29,29,1,80,0,,,,,,,,
,,613b7bdc3a329ab20c067d1a,65af55d2be6af047326a98c0,2024-01-23_24h08.35.388,bars,2023.2.3,Win32,142.8571429,657b66ea316d21385b68909f,,,,,,,,,,,4445.4481,4446.4445,,,4446.9406,4447.1908,,160,-20,,,,,,,,,,,,,,,,bars/044.png,bars/mask001.png,,,,,,,,,,,,3,2,,,,,,,6,2,6,3,,,,,,,,,,,4446.4445,4446.9405,4447.1908,4451.1637,space,3.967,,4451.1637,85,5,4452.1628,4452.163,4452.1769,,,,0,30,30,30,1,75,155,,,,,,,,
,,613b7bdc3a329ab20c067d1a,65af55d2be6af047326a98c0,2024-01-23_24h08.35.388,bars,2023.2.3,Win32,142.8571429,657b66ea316d21385b68909f,,,,,,,,,,,4452.1773,4453.1768,,,4453.677,4453.9275,,160,160,,,,,,,,,,,,,,,,bars/043.png,bars/mask000.png,,,,,,,,,,,,0,2,,,,,,,4,0,5,0,,,,,,,,,,,4453.1769,4453.677,4453.9276,4456.2259,space,2.292,,4456.2259,50,30,4457.2256,4457.2256,4457.2395,,,,0,31,31,31,1,30,130,,,,,,,,
,,613b7bdc3a329ab20c067d1a,65af55d2be6af047326a98c0,2024-01-23_24h08.35.388,bars,2023.2.3,Win32,142.8571429,657b66ea316d21385b68909f,,,,,,,,,,,4457.2399,4458.2395,,,4458.7396,4458.9895,,55,55,,,,,,,,,,,,,,,,bars/007.png,bars/mask001.png,,,,,,,,,,,,2,2,,,,,,,6,2,6,2,,,,,,,,,,,4458.2395,4458.7396,4458.9896,4459.4411,space,0.4438,,4459.4412,60,0,4460.4415,4460.4415,4460.4422,,,,0,32,32,32,1,175,55,,,,,,,,
,,613b7bdc3a329ab20c067d1a,65af55d2be6af047326a98c0,2024-01-23_24h08.35.388,bars,2023.2.3,Win32,142.8571429,657b66ea316d21385b68909f,,,,,,,,,,,4460.4424,4461.4409,,,4461.9408,4462.1948,,13,13,,,,,,,,,,,,,,,,bars/036.png,bars/mask004.png,,,,,,,,,,,,4,2,,,,,,,8,4,10,5,,,,,,,,,,,4461.441,4461.9407,4462.1948,4465.755,space,3.5503,,4465.755,48,7,4466.7534,4466.7534,4466.7682,,,,0,33,33,33,1,145,20,,,,,,,,
,,613b7bdc3a329ab20c067d1a,65af55d2be6af047326a98c0,2024-01-23_24h08.35.388,bars,2023.2.3,Win32,142.8571429,657b66ea316d21385b68909f,,,,,,,,,,,4466.7685,4467.7723,,,4468.2741,4468.524,,70,70,,,,,,,,,,,,,,,,bars/030.png,bars/mask000.png,,,,,,,,,,,,4,2,,,,,,,10,6,8,5,,,,,,,,,,,4467.7723,4468.274,4468.5241,4471.6471,space,3.112,,4471.6471,70,5,4472.6431,4472.6431,4472.6569,,,,0,34,34,34,1,140,65,,,,,,,,
,,613b7bdc3a329ab20c067d1a,65af55d2be6af047326a98c0,2024-01-23_24h08.35.388,bars,2023.2.3,Win32,142.8571429,657b66ea316d21385b68909f,,,,,,,,,,,4472.6571,4473.6593,,,4474.1593,4474.4061,,68,68,,,,,,,,,,,,,,,,bars/042.png,bars/mask000.png,,,,,,,,,,,,6,2,,,,,,,10,8,10,8,,,,,,,,,,,4473.6593,4474.1593,4474.4061,4477.1079,space,2.6975,,4477.108,77,7,4478.1077,4478.1078,4478.1214,,,,0,35,35,35,1,145,75,,,,,,,,
,,613b7bdc3a329ab20c067d1a,65af55d2be6af047326a98c0,2024-01-23_24h08.35.388,bars,2023.2.3,Win32,142.8571429,657b66ea316d21385b68909f,,,,,,,,,,,4478.1217,4479.1186,,,4479.6145,4479.8644,,1,1,,,,,,,,,,,,,,,,bars/040.png,bars/mask005.png,,,,,,,,,,,,9,2,,,,,,,8,10,8,10,,,,,,,,,,,4479.1186,4479.6145,4479.8645,4483.8094,space,3.9315,,4483.8096,41,4,4484.8091,4484.8093,4484.8225,,,,0,36,36,36,1,140,5,,,,,,,,
,,613b7bdc3a329ab20c067d1a,65af55d2be6af047326a98c0,2024-01-23_24h08.35.388,bars,2023.2.3,Win32,142.8571429,657b66ea316d21385b68909f,,,,,,,,,,,4484.8229,4485.8192,,,4486.316,4486.5662,,153,153,,,,,,,,,,,,,,,,bars/005.png,bars/mask002.png,,,,,,,,,,,,5,2,,,,,,,6,10,5,9,,,,,,,,,,,4485.8192,4486.3159,4486.5662,4488.199,space,1.6283,,4488.199,37,13,4489.1981,4489.1982,4489.2121,,,,0,37,37,37,1,10,140,,,,,,,,
,,613b7bdc3a329ab20c067d1a,65af55d2be6af047326a98c0,2024-01-23_24h08.35.388,bars,2023.2.3,Win32,142.8571429,657b66ea316d21385b68909f,,,,,,,,,,,4489.2123,4490.2087,,,4490.7049,4490.9589,,110,110,,,,,,,,,,,,,,,,bars/019.png,bars/mask007.png,,,,,,,,,,,,7,2,,,,,,,4,8,4,8,,,,,,,,,,,4490.2088,4490.7048,4490.9589,4491.6359,space,0.6709,,4491.6359,65,5,4492.6357,4492.6357,4492.6365,,,,0,38,38,38,1,45,105,,,,,,,,
,,613b7bdc3a329ab20c067d1a,65af55d2be6af047326a98c0,2024-01-23_24h08.35.388,bars,2023.2.3,Win32,142.8571429,657b66ea316d21385b68909f,,,,,,,,,,,4492.6369,4493.6362,,,4494.1394,4494.3853,,173,-7,,,,,,,,,,,,,,,,bars/024.png,bars/mask008.png,,,,,,,,,,,,5,2,,,,,,,2,6,2,5,,,,,,,,,,,4493.6363,4494.1394,4494.3854,4495.9146,space,1.5182,,4495.9147,53,3,4496.9134,4496.9134,4496.9272,,,,0,39,39,39,1,120,170,,,,,,,,
,,613b7bdc3a329ab20c067d1a,65af55d2be6af047326a98c0,2024-01-23_24h08.35.388,bars,2023.2.3,Win32,142.8571429,657b66ea316d21385b68909f,,,,,,,,,,,4496.9275,4497.9224,,,4498.4227,4498.6706,,157,157,,,,,,,,,,,,,,,,bars/029.png,bars/mask003.png,,,,,,,,,,,,0,1,,,,,,,4,8,5,7,,,,,,,,,,,4497.9225,4498.4227,4498.6706,4501.4831,space,2.8013,,4501.4832,67,68,4502.4828,4502.4829,4502.498,,,,0,40,40,40,1,90,45,,,,,,,,
,,613b7bdc3a329ab20c067d1a,65af55d2be6af047326a98c0,2024-01-23_24h08.35.388,bars,2023.2.3,Win32,142.8571429,657b66ea316d21385b68909f,,,,,,,,,,,4502.4983,4503.4965,,,4503.9967,4504.2466,,97,-83,,,,,,,,,,,,,,,,bars/011.png,bars/mask006.png,,,,,,,,,,,,3,2,,,,,,,2,6,2,5,,,,,,,,,,,4503.4965,4503.9966,4504.2467,4508.8998,space,4.637,,4508.8999,63,12,4509.8996,4509.8997,4509.9147,,,,0,41,41,41,1,160,85,,,,,,,,
,,613b7bdc3a329ab20c067d1a,65af55d2be6af047326a98c0,2024-01-23_24h08.35.388,bars,2023.2.3,Win32,142.8571429,657b66ea316d21385b68909f,,,,,,,,,,,4509.915,4510.9133,,,4511.4134,4511.6634,,95,95,,,,,,,,,,,,,,,,bars/048.png,bars/mask005.png,,,,,,,,,,,,0,1,,,,,,,0,4,0,3,,,,,,,,,,,4510.9133,4511.4133,4511.6634,4514.4557,space,2.781,,4514.4558,45,80,4515.4552,4515.4552,4515.4712,,,,0,42,42,42,1,50,175,,,,,,,,
,,613b7bdc3a329ab20c067d1a,65af55d2be6af047326a98c0,2024-01-23_24h08.35.388,bars,2023.2.3,Win32,142.8571429,657b66ea316d21385b68909f,,,,,,,,,,,4515.4716,4516.4693,,,4516.9681,4517.2192,,33,33,,,,,,,,,,,,,,,,bars/017.png,bars/mask006.png,,,,,,,,,,,,2,2,,,,,,,2,2,1,3,,,,,,,,,,,4516.4693,4516.968,4517.2192,4519.761,space,2.5339,,4519.7612,68,12,4520.7608,4520.7609,4520.7757,,,,0,43,43,43,1,145,45,,,,,,,,
,,613b7bdc3a329ab20c067d1a,65af55d2be6af047326a98c0,2024-01-23_24h08.35.388,bars,2023.2.3,Win32,142.8571429,657b66ea316d21385b68909f,,,,,,,,,,,4520.7761,4521.7745,,,4522.2717,4522.5175,,78,78,,,,,,,,,,,,,,,,bars/038.png,bars/mask004.png,,,,,,,,,,,,3,2,,,,,,,4,4,5,4,,,,,,,,,,,4521.7746,4522.2717,4522.5176,4523.115,space,0.5854,,4523.1151,87,8,4524.1149,4524.1149,4524.1157,,,,0,44,44,44,1,165,70,,,,,,,,
,,613b7bdc3a329ab20c067d1a,65af55d2be6af047326a98c0,2024-01-23_24h08.35.388,bars,2023.2.3,Win32,142.8571429,657b66ea316d21385b68909f,,,,,,,,,,,4524.1167,4525.1147,,,4525.6149,4525.8649,,64,64,,,,,,,,,,,,,,,,bars/017.png,bars/mask004.png,,,,,,,,,,,,1,2,,,,,,,6,2,5,2,,,,,,,,,,,4525.1148,4525.6148,4525.8649,4528.6244,space,2.7484,,4528.6244,81,19,4529.622,4529.622,4529.636,,,,0,45,45,45,1,145,45,,,,,,,,
,,613b7bdc3a329ab20c067d1a,65af55d2be6af047326a98c0,2024-01-23_24h08.35.388,bars,2023.2.3,Win32,142.8571429,657b66ea316d21385b68909f,,,,,,,,,,,4529.6363,4530.6418,,,4531.1428,4531.3929,,66,66,,,,,,,,,,,,,,,,bars/043.png,bars/mask006.png,,,,,,,,,,,,0,1,,,,,,,4,4,5,2,,,,,,,,,,,4530.6418,4531.1428,4531.3929,4534.8457,space,3.448,,4534.8458,36,64,4535.8442,4535.8442,4535.861,,,,0,46,46,46,1,30,130,,,,,,,,
,,613b7bdc3a329ab20c067d1a,65af55d2be6af047326a98c0,2024-01-23_24h08.35.388,bars,2023.2.3,Win32,142.8571429,657b66ea316d21385b68909f,,,,,,,,,,,4535.8614,4536.858,,,4537.355,4537.6011,,69,69,,,,,,,,,,,,,,,,bars/009.png,bars/mask006.png,,,,,,,,,,,,0,2,,,,,,,6,2,7,2,,,,,,,,,,,4536.858,4537.355,4537.6011,4542.7541,space,5.1394,,4542.7541,54,36,4543.7548,4543.7548,4543.7693,,,,0,47,47,47,1,15,105,,,,,,,,
,,613b7bdc3a329ab20c067d1a,65af55d2be6af047326a98c0,2024-01-23_24h08.35.388,bars,2023.2.3,Win32,142.8571429,657b66ea316d21385b68909f,,,,,,,,,,,4543.7697,4544.7683,,,4545.268,4545.5186,,161,161,,,,,,,,,,,,,,,,bars/033.png,bars/mask009.png,,,,,,,,,,,,2,2,,,,,,,4,4,3,3,,,,,,,,,,,4544.7683,4545.268,4545.5186,4548.0393,space,2.5162,,4548.0393,44,6,4549.0397,4549.0397,4549.0531,,,,0,48,48,48,1,25,155,,,,,,,,
,,613b7bdc3a329ab20c067d1a,65af55d2be6af047326a98c0,2024-01-23_24h08.35.388,bars,2023.2.3,Win32,142.8571429,657b66ea316d21385b68909f,,,,,,,,,,,4549.0534,4550.0497,,,4550.55,4550.7995,,69,69,,,,,,,,,,,,,,,,bars/017.png,bars/mask008.png,,,,,,,,,,,,0,2,,,,,,,2,2,1,2,,,,,,,,,,,4550.0497,4550.55,4550.7995,4554.2893,space,3.4804,,4554.2895,76,24,4555.2886,4555.2887,4555.3002,,,,0,49,49,49,1,145,45,,,,,,,,
,,613b7bdc3a329ab20c067d1a,65af55d2be6af047326a98c0,2024-01-23_24h08.35.388,bars,2023.2.3,Win32,142.8571429,657b66ea316d21385b68909f,,,,,,,,,,,,,,,,,,,,,,,,,,,,,,,,,,,,,,,,,,,,,,,,,,,,,,,,,,,,,,,,,,,,,,,,,,,,,,,,,,,,,,,,,,,,,4555.3005,4615.2966,0,3,3,4,1,sequence_tables/blk020.csv
,,613b7bdc3a329ab20c067d1a,65af55d2be6af047326a98c0,2024-01-23_24h08.35.388,bars,2023.2.3,Win32,142.8571429,657b66ea316d21385b68909f,,,,,,,,,,,4616.2555,4617.2547,,,4617.755,4618.0053,,33,33,,,,,,,,,,,,,,,,bars/004.png,bars/mask002.png,,,,,,,,,,,,6,1,,,,,,,8,4,8,5,,,,,,4615.311,4616.2478,space,0.9302,,4617.2547,4617.7548,4618.0054,4620.4923,space,2.4824,,4620.4923,8,88,4621.4909,4621.4909,4621.5066,,,,0,0,0,0,1,25,125,,,,,,,,
,,613b7bdc3a329ab20c067d1a,65af55d2be6af047326a98c0,2024-01-23_24h08.35.388,bars,2023.2.3,Win32,142.8571429,657b66ea316d21385b68909f,,,,,,,,,,,4621.5071,4622.5047,,,4623.0048,4623.2549,,35,35,,,,,,,,,,,,,,,,bars/013.png,bars/mask008.png,,,,,,,,,,,,1,2,,,,,,,10,6,10,8,,,,,,,,,,,4622.5048,4623.0048,4623.2549,4626.6242,space,3.3634,,4626.6243,40,25,4627.6228,4627.6229,4627.6381,,,,0,1,1,1,1,75,10,,,,,,,,
,,613b7bdc3a329ab20c067d1a,65af55d2be6af047326a98c0,2024-01-23_24h08.35.388,bars,2023.2.3,Win32,142.8571429,657b66ea316d21385b68909f,,,,,,,,,,,4627.6383,4628.6366,,,4629.137,4629.3867,,153,-27,,,,,,,,,,,,,,,,bars/015.png,bars/mask009.png,,,,,,,,,,,,4,2,,,,,,,10,4,10,5,,,,,,,,,,,4628.6366,4629.1369,4629.3868,4633.2902,space,3.8978,,4633.2902,43,7,4634.2897,4634.2897,4634.3036,,,,0,2,2,2,1,110,160,,,,,,,,
,,613b7bdc3a329ab20c067d1a,65af55d2be6af047326a98c0,2024-01-23_24h08.35.388,bars,2023.2.3,Win32,142.8571429,657b66ea316d21385b68909f,,,,,,,,,,,4634.3038,4635.3073,,,4635.8035,4636.0525,,155,155,,,,,,,,,,,,,,,,bars/024.png,bars/mask001.png,,,,,,,,,,,,3,2,,,,,,,8,6,8,5,,,,,,,,,,,4635.3074,4635.8034,4636.0526,4640.033,space,3.9739,,4640.033,35,15,4641.0328,4641.0329,4641.0472,,,,0,3,3,3,1,120,170,,,,,,,,
,,613b7bdc3a329ab20c067d1a,65af55d2be6af047326a98c0,2024-01-23_24h08.35.388,bars,2023.2.3,Win32,142.8571429,657b66ea316d21385b68909f,,,,,,,,,,,4641.0473,4642.0466,,,4642.5465,4642.7933,,88,88,,,,,,,,,,,,,,,,bars/002.png,bars/mask003.png,,,,,,,,,,,,8,2,,,,,,,10,8,10,9,,,,,,,,,,,4642.0467,4642.5465,4642.7933,4645.4569,space,2.6557,,4645.4569,42,3,4646.4563,4646.4564,4646.4706,,,,0,4,4,4,1,130,85,,,,,,,,
,,613b7bdc3a329ab20c067d1a,65af55d2be6af047326a98c0,2024-01-23_24h08.35.388,bars,2023.2.3,Win32,142.8571429,657b66ea316d21385b68909f,,,,,,,,,,,4646.4709,4647.4701,,,4647.9704,4648.2154,,73,73,,,,,,,,,,,,,,,,bars/025.png,bars/mask005.png,,,,,,,,,,,,0,1,,,,,,,8,10,8,10,,,,,,,,,,,4647.4701,4647.9704,4648.2155,4650.7065,space,2.4802,,4650.7065,32,33,4651.7065,4651.7065,4651.7216,,,,0,5,5,5,1,105,40,,,,,,,,
,,613b7bdc3a329ab20c067d1a,65af55d2be6af047326a98c0,2024-01-23_24h08.35.388,bars,2023.2.3,Win32,142.8571429,657b66ea316d21385b68909f,,,,,,,,,,,4651.722,4652.7203,,,4653.2203,4653.4703,,45,45,,,,,,,,,,,,,,,,bars/007.png,bars/mask002.png,,,,,,,,,,,,7,2,,,,,,,10,10,10,10,,,,,,,,,,,4652.7203,4653.2203,4653.4704,4654.0759,space,0.5997,,4654.076,50,10,4655.0746,4655.0747,4655.0776,,,,0,6,6,6,1,175,55,,,,,,,,
,,613b7bdc3a329ab20c067d1a,65af55d2be6af047326a98c0,2024-01-23_24h08.35.388,bars,2023.2.3,Win32,142.8571429,657b66ea316d21385b68909f,,,,,,,,,,,4655.0784,4656.0744,,,4656.5745,4656.8247,,174,174,,,,,,,,,,,,,,,,bars/016.png,bars/mask007.png,,,,,,,,,,,,7,2,,,,,,,8,10,7,10,,,,,,,,,,,4656.0744,4656.5744,4656.8247,4659.0609,space,2.2252,,4659.061,46,9,4660.0606,4660.0608,4660.0747,,,,0,7,7,7,1,40,165,,,,,,,,
,,613b7bdc3a329ab20c067d1a,65af55d2be6af047326a98c0,2024-01-23_24h08.35.388,bars,2023.2.3,Win32,142.8571429,657b66ea316d21385b68909f,,,,,,,,,,,4660.0749,4661.0714,,,4661.5698,4661.8167,,177,177,,,,,,,,,,,,,,,,bars/018.png,bars/mask008.png,,,,,,,,,,,,1,1,,,,,,,6,10,6,10,,,,,,,,,,,4661.0714,4661.5697,4661.8167,4673.9509,space,12.1287,,4673.9509,27,87,4674.9503,4674.9503,4674.9664,,,,0,8,8,8,1,150,90,,,,,,,,
,,613b7bdc3a329ab20c067d1a,65af55d2be6af047326a98c0,2024-01-23_24h08.35.388,bars,2023.2.3,Win32,142.8571429,657b66ea316d21385b68909f,,,,,,,,,,,4674.9668,4675.9648,,,4676.4636,4676.7134,,90,90,,,,,,,,,,,,,,,,bars/019.png,bars/mask003.png,,,,,,,,,,,,4,2,,,,,,,8,8,8,8,,,,,,,,,,,4675.9648,4676.4634,4676.7135,4683.2282,space,6.4982,,4683.2282,45,15,4684.2276,4684.2276,4684.2429,,,,0,9,9,9,1,45,105,,,,,,,,
