init_variables.started,init_variables.stopped,participant,session,date,expName,psychopyVersion,OS,frameRate,study_id,instruction_exp.started,instruction_exp.stopped,key_resp_8.keys,key_resp_8.rt,key_resp_8.duration,instruction_single.started,instruction_single.stopped,key_resp_2.keys,key_resp_2.rt,key_resp_2.duration,interval.started,interval.stopped,cue_single.started,cue_single.stopped,mask.started,mask.stopped,ori_response_single.started,res_ori,res,ori_response_single.stopped,key_resp_single.keys,key_resp_single.rt,key_resp_single.duration,disp_single.started,disp_single.stopped,key_resp.keys,key_resp.rt,key_resp.duration,single.thisRepN,single.thisTrialN,single.thisN,single.thisIndex,single.ran,ori,path,mask_path,instruction_bandit.started,instruction_bandit.stopped,key_resp_6.keys,key_resp_6.rt,key_resp_6.duration,cue_bandit.started,cue_bandit.stopped,bandit_res.keys,bandit_res.rt,bandit_res.duration,outcome_bandit.started,rew,action,outcome_bandit.stopped,bandit.thisRepN,bandit.thisTrialN,bandit.thisN,bandit.thisIndex,bandit.ran,actual_rew1,actual_rew2,rew1,rew2,instruction_task.started,instruction_task.stopped,key_resp_7.keys,key_resp_7.rt,key_resp_7.duration,wait_ready.started,wait_ready.stopped,key_resp_3.keys,key_resp_3.rt,key_resp_3.duration,cue.started,cue.stopped,ori_response.started,ori_response.stopped,key_resp_5.keys,key_resp_5.rt,key_resp_5.duration,outcome.started,diff1,diff2,outcome.stopped,disp_outcome_practice.started,disp_outcome_practice.stopped,key_resp_4.keys,key_resp_4.rt,key_resp_4.duration,trials.thisRepN,trials.thisTrialN,trials.thisN,trials.thisIndex,trials.ran,ori1,ori2,break_blk.started,break_blk.stopped,block.thisRepN,block.thisTrialN,block.thisN,block.thisIndex,block.ran,condition_file
0.0004,0.0007,6110daa2aefc2c078f8a7ae5,65af5a431502ba3ac8b61a52,2024-01-23_08h21.00.811,bars,2023.2.3,Win32,40,657b66ea316d21385b68909f,,,,,,,,,,,,,,,,,,,,,,,,,,,,,,,,,,,,,,,,,,,,,,,,,,,,,,,,,,,,,,,,,,,,,,,,,,,,,,,,,,,,,,,,,,,,,,,,,,,,
,,6110daa2aefc2c078f8a7ae5,65af5a431502ba3ac8b61a52,2024-01-23_08h21.00.811,bars,2023.2.3,Win32,40,657b66ea316d21385b68909f,0.001,8.465,y,8.4364,,,,,,,,,,,,,,,,,,,,,,,,,,,,,,,,,,,,,,,,,,,,,,,,,,,,,,,,,,,,,,,,,,,,,,,,,,,,,,,,,,,,,,,,,,,,,,,,
,,6110daa2aefc2c078f8a7ae5,65af5a431502ba3ac8b61a52,2024-01-23_08h21.00.811,bars,2023.2.3,Win32,40,657b66ea316d21385b68909f,,,,,,8.4652,21.5374,space,13.0497,,,,,,,,,,,,,,,,,,,,,,,,,,,,,,,,,,,,,,,,,,,,,,,,,,,,,,,,,,,,,,,,,,,,,,,,,,,,,,,,,,,,,,,,,,,
,,6110daa2aefc2c078f8a7ae5,65af5a431502ba3ac8b61a52,2024-01-23_08h21.00.811,bars,2023.2.3,Win32,40,657b66ea316d21385b68909f,,,,,,,,,,,21.5471,22.5438,22.544,23.0458,23.046,23.2942,23.2944,89,89,44.3151,space,20.9771,,44.3153,53.0845,space,8.7179,,0,0,0,7,1,45,bars/single007.png,bars/mask009.png,,,,,,,,,,,,,,,,,,,,,,,,,,,,,,,,,,,,,,,,,,,,,,,,,,,,,,,,,,,,,,,,
,,6110daa2aefc2c078f8a7ae5,65af5a431502ba3ac8b61a52,2024-01-23_08h21.00.811,bars,2023.2.3,Win32,40,657b66ea316d21385b68909f,,,,,,,,,,,53.1058,54.0913,54.0914,54.5916,54.5917,54.8421,54.8421,52,52,60.6122,space,5.7535,,60.6123,70.367,space,9.7274,,0,1,1,6,1,175,bars/single006.png,bars/mask005.png,,,,,,,,,,,,,,,,,,,,,,,,,,,,,,,,,,,,,,,,,,,,,,,,,,,,,,,,,,,,,,,,
,,6110daa2aefc2c078f8a7ae5,65af5a431502ba3ac8b61a52,2024-01-23_08h21.00.811,bars,2023.2.3,Win32,40,657b66ea316d21385b68909f,,,,,,,,,,,70.3839,71.3837,71.3838,71.8831,71.8831,72.133,72.133,159,159,81.1382,space,8.9883,,81.1383,86.8847,space,5.7152,,0,2,2,2,1,145,bars/single002.png,bars/mask003.png,,,,,,,,,,,,,,,,,,,,,,,,,,,,,,,,,,,,,,,,,,,,,,,,,,,,,,,,,,,,,,,,
,,6110daa2aefc2c078f8a7ae5,65af5a431502ba3ac8b61a52,2024-01-23_08h21.00.811,bars,2023.2.3,Win32,40,657b66ea316d21385b68909f,,,,,,,,,,,86.9005,87.9002,87.9002,88.4003,88.4004,88.6504,88.6504,162,162,92.5024,space,3.8404,,92.5025,98.8464,space,6.3171,,0,3,3,0,1,150,bars/single000.png,bars/mask006.png,,,,,,,,,,,,,,,,,,,,,,,,,,,,,,,,,,,,,,,,,,,,,,,,,,,,,,,,,,,,,,,,
,,6110daa2aefc2c078f8a7ae5,65af5a431502ba3ac8b61a52,2024-01-23_08h21.00.811,bars,2023.2.3,Win32,40,657b66ea316d21385b68909f,,,,,,,,,,,98.8635,99.8545,99.8546,100.3547,100.3549,100.605,100.6051,131,131,106.6082,space,5.991,,106.6084,111.5617,space,4.9226,,0,4,4,5,1,55,bars/single005.png,bars/mask008.png,,,,,,,,,,,,,,,,,,,,,,,,,,,,,,,,,,,,,,,,,,,,,,,,,,,,,,,,,,,,,,,,
,,6110daa2aefc2c078f8a7ae5,65af5a431502ba3ac8b61a52,2024-01-23_08h21.00.811,bars,2023.2.3,Win32,40,657b66ea316d21385b68909f,,,,,,,,,,,111.5775,112.5846,112.5846,113.0772,113.0772,113.3183,113.3184,54,54,118.8384,space,5.5035,,118.8386,122.9322,space,4.0559,,0,5,5,9,1,20,bars/single009.png,bars/mask006.png,,,,,,,,,,,,,,,,,,,,,,,,,,,,,,,,,,,,,,,,,,,,,,,,,,,,,,,,,,,,,,,,
,,6110daa2aefc2c078f8a7ae5,65af5a431502ba3ac8b61a52,2024-01-23_08h21.00.811,bars,2023.2.3,Win32,40,657b66ea316d21385b68909f,,,,,,,,,,,122.9483,123.9488,123.9489,124.449,124.449,124.6826,124.6826,31,31,130.1361,space,5.4397,,130.1362,135.3409,space,5.1758,,0,6,6,8,1,160,bars/single008.png,bars/mask004.png,,,,,,,,,,,,,,,,,,,,,,,,,,,,,,,,,,,,,,,,,,,,,,,,,,,,,,,,,,,,,,,,
,,6110daa2aefc2c078f8a7ae5,65af5a431502ba3ac8b61a52,2024-01-23_08h21.00.811,bars,2023.2.3,Win32,40,657b66ea316d21385b68909f,,,,,,,,,,,135.3583,136.3556,136.3557,136.8557,136.8558,137.1058,137.1058,163,163,140.5908,space,3.4689,,140.5908,144.9261,space,4.2988,,0,7,7,4,1,95,bars/single004.png,bars/mask004.png,,,,,,,,,,,,,,,,,,,,,,,,,,,,,,,,,,,,,,,,,,,,,,,,,,,,,,,,,,,,,,,,
,,6110daa2aefc2c078f8a7ae5,65af5a431502ba3ac8b61a52,2024-01-23_08h21.00.811,bars,2023.2.3,Win32,40,657b66ea316d21385b68909f,,,,,,,,,,,144.9417,145.9263,145.9263,146.4267,146.4268,146.6766,146.6767,104,104,156.0823,space,9.3978,,156.0823,159.6995,space,3.5844,,0,8,8,1,1,20,bars/single001.png,bars/mask006.png,,,,,,,,,,,,,,,,,,,,,,,,,,,,,,,,,,,,,,,,,,,,,,,,,,,,,,,,,,,,,,,,
,,6110daa2aefc2c078f8a7ae5,65af5a431502ba3ac8b61a52,2024-01-23_08h21.00.811,bars,2023.2.3,Win32,40,657b66ea316d21385b68909f,,,,,,,,,,,159.6999,160.6997,160.6997,161.1999,161.2,161.4508,161.4508,23,23,165.2354,space,3.769,,165.2354,170.7878,space,5.5214,,0,9,9,3,1,20,bars/single003.png,bars/mask005.png,,,,,,,,,,,,,,,,,,,,,,,,,,,,,,,,,,,,,,,,,,,,,,,,,,,,,,,,,,,,,,,,
,,6110daa2aefc2c078f8a7ae5,65af5a431502ba3ac8b61a52,2024-01-23_08h21.00.811,bars,2023.2.3,Win32,40,657b66ea316d21385b68909f,,,,,,,,,,,,,,,,,,,,,,,,,,,,,,,,,,,,,170.8034,192.4141,space,21.5877,,,,,,,,,,,,,,,,,,,,,,,,,,,,,,,,,,,,,,,,,,,,,,,,,,,,,,,,,,,,
,,6110daa2aefc2c078f8a7ae5,65af5a431502ba3ac8b61a52,2024-01-23_08h21.00.811,bars,2023.2.3,Win32,40,657b66ea316d21385b68909f,,,,,,,,,,,,,,,,,,,,,,,,,,,,,,,,,,,,,,,,,,192.4322,196.6239,right,4.1712,,196.6241,2,2,197.6162,0,0,0,0,1,9,1,9,2,,,,,,,,,,,,,,,,,,,,,,,,,,,,,,,,,,,,,,,,,
,,6110daa2aefc2c078f8a7ae5,65af5a431502ba3ac8b61a52,2024-01-23_08h21.00.811,bars,2023.2.3,Win32,40,657b66ea316d21385b68909f,,,,,,,,,,,,,,,,,,,,,,,,,,,,,,,,,,,,,,,,,,197.6173,200.0502,left,2.4161,,200.0504,10,1,201.0504,0,1,1,1,1,10,0,10,1,,,,,,,,,,,,,,,,,,,,,,,,,,,,,,,,,,,,,,,,,
,,6110daa2aefc2c078f8a7ae5,65af5a431502ba3ac8b61a52,2024-01-23_08h21.00.811,bars,2023.2.3,Win32,40,657b66ea316d21385b68909f,,,,,,,,,,,,,,,,,,,,,,,,,,,,,,,,,,,,,,,,,,201.0657,202.6679,left,1.5888,,202.668,10,1,203.6681,0,2,2,2,1,10,2,10,2,,,,,,,,,,,,,,,,,,,,,,,,,,,,,,,,,,,,,,,,,
,,6110daa2aefc2c078f8a7ae5,65af5a431502ba3ac8b61a52,2024-01-23_08h21.00.811,bars,2023.2.3,Win32,40,657b66ea316d21385b68909f,,,,,,,,,,,,,,,,,,,,,,,,,,,,,,,,,,,,,,,,,,203.6696,205.8865,left,2.2027,,205.8866,7,1,206.8865,0,3,3,3,1,8,4,7,3,,,,,,,,,,,,,,,,,,,,,,,,,,,,,,,,,,,,,,,,,
,,6110daa2aefc2c078f8a7ae5,65af5a431502ba3ac8b61a52,2024-01-23_08h21.00.811,bars,2023.2.3,Win32,40,657b66ea316d21385b68909f,,,,,,,,,,,,,,,,,,,,,,,,,,,,,,,,,,,,,,,,,,206.9017,208.9563,right,2.0479,,208.9564,1,2,209.9456,0,4,4,4,1,6,2,5,1,,,,,,,,,,,,,,,,,,,,,,,,,,,,,,,,,,,,,,,,,
,,6110daa2aefc2c078f8a7ae5,65af5a431502ba3ac8b61a52,2024-01-23_08h21.00.811,bars,2023.2.3,Win32,40,657b66ea316d21385b68909f,,,,,,,,,,,,,,,,,,,,,,,,,,,,,,,,,,,,,,,,,,209.9462,211.5467,left,1.5845,,211.5468,4,1,212.5468,0,5,5,5,1,4,4,4,4,,,,,,,,,,,,,,,,,,,,,,,,,,,,,,,,,,,,,,,,,
,,6110daa2aefc2c078f8a7ae5,65af5a431502ba3ac8b61a52,2024-01-23_08h21.00.811,bars,2023.2.3,Win32,40,657b66ea316d21385b68909f,,,,,,,,,,,,,,,,,,,,,,,,,,,,,,,,,,,,,,,,,,212.5619,213.9145,left,1.3349,,213.9146,1,1,214.9111,0,6,6,6,1,2,2,1,2,,,,,,,,,,,,,,,,,,,,,,,,,,,,,,,,,,,,,,,,,
,,6110daa2aefc2c078f8a7ae5,65af5a431502ba3ac8b61a52,2024-01-23_08h21.00.811,bars,2023.2.3,Win32,40,657b66ea316d21385b68909f,,,,,,,,,,,,,,,,,,,,,,,,,,,,,,,,,,,,,,,,,,214.9121,216.0325,right,1.1015,,216.0325,1,2,217.0241,0,7,7,7,1,0,0,0,1,,,,,,,,,,,,,,,,,,,,,,,,,,,,,,,,,,,,,,,,,
,,6110daa2aefc2c078f8a7ae5,65af5a431502ba3ac8b61a52,2024-01-23_08h21.00.811,bars,2023.2.3,Win32,40,657b66ea316d21385b68909f,,,,,,,,,,,,,,,,,,,,,,,,,,,,,,,,,,,,,,,,,,217.0252,218.0331,left,0.9846,,218.0331,1,1,219.0251,0,8,8,8,1,0,2,1,0,,,,,,,,,,,,,,,,,,,,,,,,,,,,,,,,,,,,,,,,,
,,6110daa2aefc2c078f8a7ae5,65af5a431502ba3ac8b61a52,2024-01-23_08h21.00.811,bars,2023.2.3,Win32,40,657b66ea316d21385b68909f,,,,,,,,,,,,,,,,,,,,,,,,,,,,,,,,,,,,,,,,,,219.0261,220.1008,left,1.0514,,220.1009,2,1,221.0928,0,9,9,9,1,2,4,2,3,,,,,,,,,,,,,,,,,,,,,,,,,,,,,,,,,,,,,,,,,
,,6110daa2aefc2c078f8a7ae5,65af5a431502ba3ac8b61a52,2024-01-23_08h21.00.811,bars,2023.2.3,Win32,40,657b66ea316d21385b68909f,,,,,,,,,,,,,,,,,,,,,,,,,,,,,,,,,,,,,,,,,,221.0938,222.2831,left,1.1659,,222.2832,0,1,223.2771,0,10,10,10,1,0,2,0,3,,,,,,,,,,,,,,,,,,,,,,,,,,,,,,,,,,,,,,,,,
,,6110daa2aefc2c078f8a7ae5,65af5a431502ba3ac8b61a52,2024-01-23_08h21.00.811,bars,2023.2.3,Win32,40,657b66ea316d21385b68909f,,,,,,,,,,,,,,,,,,,,,,,,,,,,,,,,,,,,,,,,,,223.2781,224.0274,right,0.7402,,224.0275,3,2,225.0281,0,11,11,11,1,0,4,0,3,,,,,,,,,,,,,,,,,,,,,,,,,,,,,,,,,,,,,,,,,
,,6110daa2aefc2c078f8a7ae5,65af5a431502ba3ac8b61a52,2024-01-23_08h21.00.811,bars,2023.2.3,Win32,40,657b66ea316d21385b68909f,,,,,,,,,,,,,,,,,,,,,,,,,,,,,,,,,,,,,,,,,,225.0292,226.4285,right,1.3901,,226.4286,6,2,227.4291,0,12,12,12,1,2,6,1,6,,,,,,,,,,,,,,,,,,,,,,,,,,,,,,,,,,,,,,,,,
,,6110daa2aefc2c078f8a7ae5,65af5a431502ba3ac8b61a52,2024-01-23_08h21.00.811,bars,2023.2.3,Win32,40,657b66ea316d21385b68909f,,,,,,,,,,,,,,,,,,,,,,,,,,,,,,,,,,,,,,,,,,227.4301,228.7378,right,1.2994,,228.7378,3,2,229.7376,0,13,13,13,1,0,4,1,3,,,,,,,,,,,,,,,,,,,,,,,,,,,,,,,,,,,,,,,,,
,,6110daa2aefc2c078f8a7ae5,65af5a431502ba3ac8b61a52,2024-01-23_08h21.00.811,bars,2023.2.3,Win32,40,657b66ea316d21385b68909f,,,,,,,,,,,,,,,,,,,,,,,,,,,,,,,,,,,,,,,,,,229.7386,231.823,left,2.069,,231.8231,2,1,232.8209,0,14,14,14,1,2,6,2,7,,,,,,,,,,,,,,,,,,,,,,,,,,,,,,,,,,,,,,,,,
,,6110daa2aefc2c078f8a7ae5,65af5a431502ba3ac8b61a52,2024-01-23_08h21.00.811,bars,2023.2.3,Win32,40,657b66ea316d21385b68909f,,,,,,,,,,,,,,,,,,,,,,,,,,,,,,,,,,,,,,,,,,232.8362,233.3736,right,0.531,,233.3736,9,2,234.3759,0,15,15,15,1,4,8,3,9,,,,,,,,,,,,,,,,,,,,,,,,,,,,,,,,,,,,,,,,,
,,6110daa2aefc2c078f8a7ae5,65af5a431502ba3ac8b61a52,2024-01-23_08h21.00.811,bars,2023.2.3,Win32,40,657b66ea316d21385b68909f,,,,,,,,,,,,,,,,,,,,,,,,,,,,,,,,,,,,,,,,,,234.3764,234.8075,right,0.4178,,234.8076,7,2,235.7995,0,16,16,16,1,6,6,7,7,,,,,,,,,,,,,,,,,,,,,,,,,,,,,,,,,,,,,,,,,
,,6110daa2aefc2c078f8a7ae5,65af5a431502ba3ac8b61a52,2024-01-23_08h21.00.811,bars,2023.2.3,Win32,40,657b66ea316d21385b68909f,,,,,,,,,,,,,,,,,,,,,,,,,,,,,,,,,,,,,,,,,,235.8004,236.5496,left,0.7254,,236.5496,9,1,237.5397,0,17,17,17,1,8,4,9,5,,,,,,,,,,,,,,,,,,,,,,,,,,,,,,,,,,,,,,,,,
,,6110daa2aefc2c078f8a7ae5,65af5a431502ba3ac8b61a52,2024-01-23_08h21.00.811,bars,2023.2.3,Win32,40,657b66ea316d21385b68909f,,,,,,,,,,,,,,,,,,,,,,,,,,,,,,,,,,,,,,,,,,237.5408,238.3867,left,0.8204,,238.3868,5,1,239.3871,0,18,18,18,1,6,2,5,1,,,,,,,,,,,,,,,,,,,,,,,,,,,,,,,,,,,,,,,,,
,,6110daa2aefc2c078f8a7ae5,65af5a431502ba3ac8b61a52,2024-01-23_08h21.00.811,bars,2023.2.3,Win32,40,657b66ea316d21385b68909f,,,,,,,,,,,,,,,,,,,,,,,,,,,,,,,,,,,,,,,,,,239.388,239.8679,right,0.4697,,239.868,0,2,240.8693,0,19,19,19,1,8,0,7,0,,,,,,,,,,,,,,,,,,,,,,,,,,,,,,,,,,,,,,,,,
,,6110daa2aefc2c078f8a7ae5,65af5a431502ba3ac8b61a52,2024-01-23_08h21.00.811,bars,2023.2.3,Win32,40,657b66ea316d21385b68909f,,,,,,,,,,,,,,,,,,,,,,,,,,,,,,,,,,,,,,,,,,,,,,,,,,,,,,,,,,,,240.8704,269.7908,space,28.905,,,,,,,,,,,,,,,,,,,,,,,,,,,,,,,,,,,,,
,,6110daa2aefc2c078f8a7ae5,65af5a431502ba3ac8b61a52,2024-01-23_08h21.00.811,bars,2023.2.3,Win32,40,657b66ea316d21385b68909f,,,,,,,,,,,271.9062,272.8994,,,273.4006,273.6499,,112,112,,,,,,,,,,,,,,,,bars/019.png,bars/mask001.png,,,,,,,,,,,,5,2,,,,,,,7,6,8,7,,,,,,269.8081,271.8995,space,2.0752,,272.8997,273.4005,273.6502,280.5709,space,6.9006,,280.5712,67,7,281.5704,281.5707,290.2422,space,8.6516,,0,0,0,0,1,45,105,,,,,,,,
,,6110daa2aefc2c078f8a7ae5,65af5a431502ba3ac8b61a52,2024-01-23_08h21.00.811,bars,2023.2.3,Win32,40,657b66ea316d21385b68909f,,,,,,,,,,,290.2561,291.2579,,,291.7582,292.0082,,47,47,,,,,,,,,,,,,,,,bars/023.png,bars/mask009.png,,,,,,,,,,,,1,1,,,,,,,5,4,7,3,,,,,,,,,,,291.258,291.7581,292.0083,297.1442,space,5.12,,297.1443,27,68,298.1443,298.1444,305.0399,space,6.8682,,0,1,1,1,1,20,115,,,,,,,,
,,6110daa2aefc2c078f8a7ae5,65af5a431502ba3ac8b61a52,2024-01-23_08h21.00.811,bars,2023.2.3,Win32,40,657b66ea316d21385b68909f,,,,,,,,,,,305.0559,306.0557,,,306.5481,306.7894,,24,24,,,,,,,,,,,,,,,,bars/021.png,bars/mask000.png,,,,,,,,,,,,0,2,,,,,,,3,2,2,2,,,,,,,,,,,306.0558,306.5481,306.7894,312.9932,space,6.1874,,312.9933,49,46,313.9925,313.9925,316.2029,space,2.1766,,0,2,2,2,1,155,70,,,,,,,,
,,6110daa2aefc2c078f8a7ae5,65af5a431502ba3ac8b61a52,2024-01-23_08h21.00.811,bars,2023.2.3,Win32,40,657b66ea316d21385b68909f,,,,,,,,,,,316.2041,317.2032,,,317.7034,317.9534,,115,115,,,,,,,,,,,,,,,,bars/044.png,bars/mask009.png,,,,,,,,,,,,0,2,,,,,,,1,0,0,0,,,,,,,,,,,317.2032,317.7033,317.9536,322.9226,space,4.9579,,322.9226,40,40,323.9227,323.9228,329.4846,space,5.5364,,0,3,3,3,1,75,155,,,,,,,,
,,6110daa2aefc2c078f8a7ae5,65af5a431502ba3ac8b61a52,2024-01-23_08h21.00.811,bars,2023.2.3,Win32,40,657b66ea316d21385b68909f,,,,,,,,,,,329.4988,330.4923,,,330.9836,331.2337,,153,153,,,,,,,,,,,,,,,,bars/046.png,bars/mask000.png,,,,,,,,,,,,4,1,,,,,,,3,0,4,0,,,,,,,,,,,330.4924,330.9836,331.2337,338.5879,space,7.3379,,338.588,2,68,339.5874,339.5875,346.5667,space,6.9435,,0,4,4,4,1,155,85,,,,,,,,
,,6110daa2aefc2c078f8a7ae5,65af5a431502ba3ac8b61a52,2024-01-23_08h21.00.811,bars,2023.2.3,Win32,40,657b66ea316d21385b68909f,,,,,,,,,,,346.5818,347.5834,,,348.0672,348.3172,,159,159,,,,,,,,,,,,,,,,bars/036.png,bars/mask006.png,,,,,,,,,,,,1,1,,,,,,,1,2,2,1,,,,,,,,,,,347.5836,348.0671,348.3173,353.4197,space,5.0867,,353.4198,14,41,354.42,354.42,359.231,space,4.7835,,0,5,5,5,1,145,20,,,,,,,,
,,6110daa2aefc2c078f8a7ae5,65af5a431502ba3ac8b61a52,2024-01-23_08h21.00.811,bars,2023.2.3,Win32,40,657b66ea316d21385b68909f,,,,,,,,,,,359.2466,360.2467,,,360.7471,360.997,,10,10,,,,,,,,,,,,,,,,bars/038.png,bars/mask008.png,,,,,,,,,,,,0,1,,,,,,,0,4,0,5,,,,,,,,,,,360.2468,360.7471,360.9971,366.1926,space,5.1724,,366.1927,25,60,367.1924,367.1925,374.8388,space,7.6177,,0,6,6,6,1,165,70,,,,,,,,
,,6110daa2aefc2c078f8a7ae5,65af5a431502ba3ac8b61a52,2024-01-23_08h21.00.811,bars,2023.2.3,Win32,40,657b66ea316d21385b68909f,,,,,,,,,,,374.8552,375.8463,,,376.3375,376.58,,60,60,,,,,,,,,,,,,,,,bars/041.png,bars/mask006.png,,,,,,,,,,,,1,2,,,,,,,2,6,1,5,,,,,,,,,,,375.8464,376.3374,376.5801,384.9007,space,8.2921,,384.9009,40,25,385.9008,385.9009,392.7129,space,6.7816,,0,7,7,7,1,20,85,,,,,,,,
,,6110daa2aefc2c078f8a7ae5,65af5a431502ba3ac8b61a52,2024-01-23_08h21.00.811,bars,2023.2.3,Win32,40,657b66ea316d21385b68909f,,,,,,,,,,,392.7294,393.7286,,,394.2214,394.4624,,79,79,,,,,,,,,,,,,,,,bars/041.png,bars/mask006.png,,,,,,,,,,,,2,2,,,,,,,4,4,3,2,,,,,,,,,,,393.7286,394.2214,394.4625,398.632,space,4.1528,,398.6321,59,6,399.6314,399.6315,404.4683,space,4.8139,,0,8,8,8,1,20,85,,,,,,,,
,,6110daa2aefc2c078f8a7ae5,65af5a431502ba3ac8b61a52,2024-01-23_08h21.00.811,bars,2023.2.3,Win32,40,657b66ea316d21385b68909f,,,,,,,,,,,404.4843,405.4839,,,405.9843,406.2345,,22,22,,,,,,,,,,,,,,,,bars/043.png,bars/mask006.png,,,,,,,,,,,,1,1,,,,,,,2,2,2,1,,,,,,,,,,,405.4839,405.9842,406.2345,411.1709,space,4.9199,,411.171,8,72,412.1704,412.1705,415.1148,space,2.91,,0,9,9,9,1,30,130,,,,,,,,
,,6110daa2aefc2c078f8a7ae5,65af5a431502ba3ac8b61a52,2024-01-23_08h21.00.811,bars,2023.2.3,Win32,40,657b66ea316d21385b68909f,,,,,,,,,,,415.134,416.1391,,,416.623,416.8725,,133,133,,,,,,,,,,,,,,,,bars/006.png,bars/mask006.png,,,,,,,,,,,,0,2,,,,,,,0,4,0,3,,,,,,,,,,,416.1393,416.623,416.8726,423.9936,space,7.1043,,423.9936,82,33,424.993,424.993,428.9874,space,3.9553,,0,10,10,10,1,35,100,,,,,,,,
,,6110daa2aefc2c078f8a7ae5,65af5a431502ba3ac8b61a52,2024-01-23_08h21.00.811,bars,2023.2.3,Win32,40,657b66ea316d21385b68909f,,,,,,,,,,,428.9884,429.9876,,,430.4878,430.738,,107,107,,,,,,,,,,,,,,,,bars/049.png,bars/mask004.png,,,,,,,,,,,,4,2,,,,,,,0,6,1,6,,,,,,,,,,,429.9876,430.4878,430.738,434.94,space,4.1838,,434.9401,53,8,435.9402,435.9402,440.7624,space,4.7883,,0,11,11,11,1,160,115,,,,,,,,
,,6110daa2aefc2c078f8a7ae5,65af5a431502ba3ac8b61a52,2024-01-23_08h21.00.811,bars,2023.2.3,Win32,40,657b66ea316d21385b68909f,,,,,,,,,,,440.7803,441.7673,,,442.2675,442.5175,,114,114,,,,,,,,,,,,,,,,bars/016.png,bars/mask009.png,,,,,,,,,,,,0,2,,,,,,,0,4,2,3,,,,,,,,,,,441.7673,442.2675,442.5175,446.4203,space,3.8862,,446.4203,74,51,447.4121,447.4121,451.7256,space,4.2853,,0,12,12,12,1,40,165,,,,,,,,
,,6110daa2aefc2c078f8a7ae5,65af5a431502ba3ac8b61a52,2024-01-23_08h21.00.811,bars,2023.2.3,Win32,40,657b66ea316d21385b68909f,,,,,,,,,,,451.7474,452.7322,,,453.2325,453.4824,,43,43,,,,,,,,,,,,,,,,bars/018.png,bars/mask009.png,,,,,,,,,,,,0,2,,,,,,,0,6,0,5,,,,,,,,,,,452.7323,453.2325,453.4825,455.6504,space,2.1543,,455.6505,73,47,456.6506,456.6506,460.2025,space,3.5322,,0,13,13,13,1,150,90,,,,,,,,
,,6110daa2aefc2c078f8a7ae5,65af5a431502ba3ac8b61a52,2024-01-23_08h21.00.811,bars,2023.2.3,Win32,40,657b66ea316d21385b68909f,,,,,,,,,,,460.2188,461.2192,,,461.7029,461.953,,90,90,,,,,,,,,,,,,,,,bars/048.png,bars/mask007.png,,,,,,,,,,,,0,1,,,,,,,2,8,1,8,,,,,,,,,,,461.2193,461.7029,461.953,466.2223,space,4.2603,,466.2224,40,85,467.2221,467.2222,473.3409,space,6.0797,,0,14,14,14,1,50,175,,,,,,,,
,,6110daa2aefc2c078f8a7ae5,65af5a431502ba3ac8b61a52,2024-01-23_08h21.00.811,bars,2023.2.3,Win32,40,657b66ea316d21385b68909f,,,,,,,,,,,473.3572,474.341,,,474.8412,475.0913,,44,44,,,,,,,,,,,,,,,,bars/003.png,bars/mask000.png,,,,,,,,,,,,0,1,,,,,,,0,6,1,5,,,,,,,,,,,474.3411,474.8411,475.0914,479.1435,space,4.0386,,479.1437,19,84,480.1435,480.1435,483.3284,space,3.1554,,0,15,15,15,1,25,140,,,,,,,,
,,6110daa2aefc2c078f8a7ae5,65af5a431502ba3ac8b61a52,2024-01-23_08h21.00.811,bars,2023.2.3,Win32,40,657b66ea316d21385b68909f,,,,,,,,,,,483.3453,484.3364,,,484.8372,485.0868,,157,157,,,,,,,,,,,,,,,,bars/028.png,bars/mask003.png,,,,,,,,,,,,0,2,,,,,,,0,8,1,9,,,,,,,,,,,484.3365,484.8372,485.0869,488.4061,space,3.3021,,488.4062,68,37,489.3978,489.3979,502.4042,space,12.9658,,0,16,16,16,1,45,120,,,,,,,,
,,6110daa2aefc2c078f8a7ae5,65af5a431502ba3ac8b61a52,2024-01-23_08h21.00.811,bars,2023.2.3,Win32,40,657b66ea316d21385b68909f,,,,,,,,,,,502.4221,503.4118,,,503.9122,504.162,,136,136,,,,,,,,,,,,,,,,bars/028.png,bars/mask006.png,,,,,,,,,,,,5,2,,,,,,,2,10,1,10,,,,,,,,,,,503.4119,503.9121,504.1621,506.6392,space,2.4563,,506.6393,89,16,507.6302,507.6303,513.4009,space,5.7479,,0,17,17,17,1,45,120,,,,,,,,
,,6110daa2aefc2c078f8a7ae5,65af5a431502ba3ac8b61a52,2024-01-23_08h21.00.811,bars,2023.2.3,Win32,40,657b66ea316d21385b68909f,,,,,,,,,,,513.4022,514.4,,,514.9004,515.1502,,40,40,,,,,,,,,,,,,,,,bars/014.png,bars/mask006.png,,,,,,,,,,,,0,2,,,,,,,4,10,2,9,,,,,,,,,,,514.4001,514.9003,515.1503,519.6864,space,4.5196,,519.6865,40,40,520.6786,520.6786,524.2569,space,3.5537,,0,18,18,18,1,80,0,,,,,,,,
,,6110daa2aefc2c078f8a7ae5,65af5a431502ba3ac8b61a52,2024-01-23_08h21.00.811,bars,2023.2.3,Win32,40,657b66ea316d21385b68909f,,,,,,,,,,,524.2576,525.2546,,,525.7552,526.0052,,161,-19,,,,,,,,,,,,,,,,bars/038.png,bars/mask007.png,,,,,,,,,,,,3,1,,,,,,,2,10,3,10,,,,,,,,,,,525.2547,525.7551,526.0052,532.676,space,6.6541,,532.6761,4,89,533.6755,533.6756,538.9038,space,5.1909,,0,19,19,19,1,165,70,,,,,,,,
,,6110daa2aefc2c078f8a7ae5,65af5a431502ba3ac8b61a52,2024-01-23_08h21.00.811,bars,2023.2.3,Win32,40,657b66ea316d21385b68909f,,,,,,,,,,,538.9186,539.9039,,,540.4042,540.6545,,173,-7,,,,,,,,,,,,,,,,bars/025.png,bars/mask008.png,,,,,,,,,,,,0,2,,,,,,,0,8,0,8,,,,,,,,,,,539.904,540.4041,540.6545,544.1561,space,3.4865,,544.1562,68,47,545.1568,545.1568,551.3376,space,6.1522,,0,20,20,20,1,105,40,,,,,,,,
,,6110daa2aefc2c078f8a7ae5,65af5a431502ba3ac8b61a52,2024-01-23_08h21.00.811,bars,2023.2.3,Win32,40,657b66ea316d21385b68909f,,,,,,,,,,,551.3521,552.3506,,,552.8514,553.0935,,35,35,,,,,,,,,,,,,,,,bars/034.png,bars/mask004.png,,,,,,,,,,,,0,2,,,,,,,0,10,3,10,,,,,,,,,,,552.3506,552.8513,553.0935,557.4122,space,4.2936,,557.4123,90,30,558.403,558.4031,561.4163,space,2.9792,,0,21,21,21,1,125,65,,,,,,,,
,,6110daa2aefc2c078f8a7ae5,65af5a431502ba3ac8b61a52,2024-01-23_08h21.00.811,bars,2023.2.3,Win32,40,657b66ea316d21385b68909f,,,,,,,,,,,561.4167,562.4143,,,562.9145,563.1645,,61,61,,,,,,,,,,,,,,,,bars/001.png,bars/mask003.png,,,,,,,,,,,,2,2,,,,,,,2,10,3,9,,,,,,,,,,,562.4143,562.9144,563.1645,567.8676,space,4.6895,,567.8678,69,24,568.8685,568.8685,572.2365,space,3.3361,,0,22,22,22,1,130,85,,,,,,,,
,,6110daa2aefc2c078f8a7ae5,65af5a431502ba3ac8b61a52,2024-01-23_08h21.00.811,bars,2023.2.3,Win32,40,657b66ea316d21385b68909f,,,,,,,,,,,572.2528,573.2366,,,573.7371,573.9869,,77,77,,,,,,,,,,,,,,,,bars/011.png,bars/mask009.png,,,,,,,,,,,,6,2,,,,,,,0,8,0,8,,,,,,,,,,,573.2367,573.7371,573.987,578.706,space,4.703,,578.7061,83,8,579.7062,579.7063,584.7941,space,5.0614,,0,23,23,23,1,160,85,,,,,,,,
,,6110daa2aefc2c078f8a7ae5,65af5a431502ba3ac8b61a52,2024-01-23_08h21.00.811,bars,2023.2.3,Win32,40,657b66ea316d21385b68909f,,,,,,,,,,,584.8086,585.8089,,,586.3092,586.5592,,72,72,,,,,,,,,,,,,,,,bars/022.png,bars/mask007.png,,,,,,,,,,,,0,1,,,,,,,2,10,1,10,,,,,,,,,,,585.8089,586.3091,586.5592,591.812,space,5.2369,,591.8121,23,52,592.8121,592.8121,597.397,space,4.5448,,0,24,24,24,1,95,20,,,,,,,,
,,6110daa2aefc2c078f8a7ae5,65af5a431502ba3ac8b61a52,2024-01-23_08h21.00.811,bars,2023.2.3,Win32,40,657b66ea316d21385b68909f,,,,,,,,,,,597.4116,598.3972,,,598.8977,599.1477,,105,105,,,,,,,,,,,,,,,,bars/017.png,bars/mask004.png,,,,,,,,,,,,0,1,,,,,,,4,8,3,8,,,,,,,,,,,598.3974,598.8977,599.1477,605.7341,space,6.5702,,605.7342,40,60,606.736,606.7361,609.4862,space,2.7098,,0,25,25,25,1,145,45,,,,,,,,
,,6110daa2aefc2c078f8a7ae5,65af5a431502ba3ac8b61a52,2024-01-23_08h21.00.811,bars,2023.2.3,Win32,40,657b66ea316d21385b68909f,,,,,,,,,,,609.4871,610.4861,,,610.9864,611.2364,,136,136,,,,,,,,,,,,,,,,bars/037.png,bars/mask000.png,,,,,,,,,,,,3,1,,,,,,,6,10,6,9,,,,,,,,,,,610.4861,610.9863,611.2365,616.5058,space,5.2602,,616.506,14,31,617.5058,617.5059,621.0831,space,3.5436,,0,26,26,26,1,150,105,,,,,,,,
,,6110daa2aefc2c078f8a7ae5,65af5a431502ba3ac8b61a52,2024-01-23_08h21.00.811,bars,2023.2.3,Win32,40,657b66ea316d21385b68909f,,,,,,,,,,,621.0981,622.0988,,,622.5992,622.8416,,155,155,,,,,,,,,,,,,,,,bars/021.png,bars/mask008.png,,,,,,,,,,,,5,1,,,,,,,4,10,5,10,,,,,,,,,,,622.0988,622.5991,622.8417,626.0023,space,3.1358,,626.0025,0,85,626.9936,626.9937,633.0717,space,6.0482,,0,27,27,27,1,155,70,,,,,,,,
,,6110daa2aefc2c078f8a7ae5,65af5a431502ba3ac8b61a52,2024-01-23_08h21.00.811,bars,2023.2.3,Win32,40,657b66ea316d21385b68909f,,,,,,,,,,,633.0857,634.0799,,,634.5712,634.8137,,140,140,,,,,,,,,,,,,,,,bars/044.png,bars/mask003.png,,,,,,,,,,,,5,2,,,,,,,6,10,7,10,,,,,,,,,,,634.0799,634.5711,634.8137,647.1278,space,12.2899,,647.1279,65,15,648.1272,648.1272,652.2551,space,4.0762,,0,28,28,28,1,75,155,,,,,,,,
,,6110daa2aefc2c078f8a7ae5,65af5a431502ba3ac8b61a52,2024-01-23_08h21.00.811,bars,2023.2.3,Win32,40,657b66ea316d21385b68909f,,,,,,,,,,,652.2704,653.2554,,,653.7555,654.0056,,153,153,,,,,,,,,,,,,,,,bars/036.png,bars/mask007.png,,,,,,,,,,,,3,1,,,,,,,4,10,4,9,,,,,,,,,,,653.2554,653.7554,654.0057,660.826,space,6.8045,,660.826,8,47,661.8258,661.826,665.3803,space,3.518,,0,29,29,29,1,145,20,,,,,,,,
,,6110daa2aefc2c078f8a7ae5,65af5a431502ba3ac8b61a52,2024-01-23_08h21.00.811,bars,2023.2.3,Win32,40,657b66ea316d21385b68909f,,,,,,,,,,,665.3808,666.378,,,666.8784,667.1283,,151,151,,,,,,,,,,,,,,,,bars/034.png,bars/mask008.png,,,,,,,,,,,,1,1,,,,,,,6,8,6,8,,,,,,,,,,,666.3781,666.8784,667.1284,673.7815,space,6.6374,,673.7815,26,86,674.7819,674.782,682.0939,space,7.2841,,0,30,30,30,1,125,65,,,,,,,,
,,6110daa2aefc2c078f8a7ae5,65af5a431502ba3ac8b61a52,2024-01-23_08h21.00.811,bars,2023.2.3,Win32,40,657b66ea316d21385b68909f,,,,,,,,,,,682.1122,683.1033,,,683.6035,683.8549,,130,130,,,,,,,,,,,,,,,,bars/049.png,bars/mask003.png,,,,,,,,,,,,3,2,,,,,,,4,6,5,6,,,,,,,,,,,683.1034,683.6034,683.855,687.7219,space,3.8567,,687.722,30,15,688.7223,688.7223,692.9752,space,4.2234,,0,31,31,31,1,160,115,,,,,,,,
,,6110daa2aefc2c078f8a7ae5,65af5a431502ba3ac8b61a52,2024-01-23_08h21.00.811,bars,2023.2.3,Win32,40,657b66ea316d21385b68909f,,,,,,,,,,,692.9945,693.9913,,,694.4916,694.7428,,123,123,,,,,,,,,,,,,,,,bars/031.png,bars/mask008.png,,,,,,,,,,,,1,1,,,,,,,2,8,1,6,,,,,,,,,,,693.9913,694.4916,694.7429,698.8104,space,4.0524,,698.8105,3,88,699.8107,699.8107,703.1126,space,3.2684,,0,32,32,32,1,120,35,,,,,,,,
,,6110daa2aefc2c078f8a7ae5,65af5a431502ba3ac8b61a52,2024-01-23_08h21.00.811,bars,2023.2.3,Win32,40,657b66ea316d21385b68909f,,,,,,,,,,,703.1273,704.1128,,,704.6132,704.8633,,122,122,,,,,,,,,,,,,,,,bars/023.png,bars/mask005.png,,,,,,,,,,,,5,2,,,,,,,0,6,0,6,,,,,,,,,,,704.1128,704.6132,704.8633,711.3162,space,6.4368,,711.3163,78,7,712.3164,712.3164,715.8203,space,3.4728,,0,33,33,33,1,20,115,,,,,,,,
,,6110daa2aefc2c078f8a7ae5,65af5a431502ba3ac8b61a52,2024-01-23_08h21.00.811,bars,2023.2.3,Win32,40,657b66ea316d21385b68909f,,,,,,,,,,,715.8208,716.8179,,,717.3188,717.5688,,18,18,,,,,,,,,,,,,,,,bars/029.png,bars/mask001.png,,,,,,,,,,,,1,2,,,,,,,2,8,3,9,,,,,,,,,,,716.8181,717.3187,717.5688,724.5722,space,6.9928,,724.5722,72,27,725.5725,725.5725,728.0904,space,2.4887,,0,34,34,34,1,90,45,,,,,,,,
,,6110daa2aefc2c078f8a7ae5,65af5a431502ba3ac8b61a52,2024-01-23_08h21.00.811,bars,2023.2.3,Win32,40,657b66ea316d21385b68909f,,,,,,,,,,,728.0909,729.0908,,,729.591,729.8402,,40,40,,,,,,,,,,,,,,,,bars/010.png,bars/mask008.png,,,,,,,,,,,,5,2,,,,,,,0,10,0,9,,,,,,,,,,,729.0908,729.5909,729.8402,739.1287,space,9.2714,,739.1287,55,15,740.1289,740.129,742.3302,space,2.1682,,0,35,35,35,1,165,55,,,,,,,,
,,6110daa2aefc2c078f8a7ae5,65af5a431502ba3ac8b61a52,2024-01-23_08h21.00.811,bars,2023.2.3,Win32,40,657b66ea316d21385b68909f,,,,,,,,,,,742.3306,743.3311,,,743.8307,744.0807,,41,41,,,,,,,,,,,,,,,,bars/000.png,bars/mask006.png,,,,,,,,,,,,0,1,,,,,,,0,8,0,9,,,,,,,,,,,743.3311,743.8306,744.0807,748.1497,space,4.0525,,748.1497,1,76,749.1496,749.1497,751.4178,space,2.2336,,0,36,36,36,1,40,145,,,,,,,,
,,6110daa2aefc2c078f8a7ae5,65af5a431502ba3ac8b61a52,2024-01-23_08h21.00.811,bars,2023.2.3,Win32,40,657b66ea316d21385b68909f,,,,,,,,,,,751.4182,752.4181,,,752.9179,753.1683,,143,143,,,,,,,,,,,,,,,,bars/011.png,bars/mask005.png,,,,,,,,,,,,1,1,,,,,,,2,6,3,6,,,,,,,,,,,752.4181,752.9179,753.1683,762.7478,space,9.5713,,762.7479,17,58,763.747,763.7471,766.0336,space,2.2527,,0,37,37,37,1,160,85,,,,,,,,
,,6110daa2aefc2c078f8a7ae5,65af5a431502ba3ac8b61a52,2024-01-23_08h21.00.811,bars,2023.2.3,Win32,40,657b66ea316d21385b68909f,,,,,,,,,,,766.0341,767.0236,,,767.5318,767.78,,73,73,,,,,,,,,,,,,,,,bars/040.png,bars/mask004.png,,,,,,,,,,,,0,1,,,,,,,4,8,4,7,,,,,,,,,,,767.0239,767.5317,767.78,773.2768,space,5.4719,,773.2769,67,68,774.2768,774.277,782.6809,space,8.3738,,0,38,38,38,1,140,5,,,,,,,,
,,6110daa2aefc2c078f8a7ae5,65af5a431502ba3ac8b61a52,2024-01-23_08h21.00.811,bars,2023.2.3,Win32,40,657b66ea316d21385b68909f,,,,,,,,,,,782.6963,783.6811,,,784.1814,784.4316,,132,132,,,,,,,,,,,,,,,,bars/004.png,bars/mask005.png,,,,,,,,,,,,5,2,,,,,,,2,6,1,6,,,,,,,,,,,783.6812,784.1813,784.4316,788.4167,space,3.9691,,788.4168,73,7,789.4172,789.4174,796.1624,space,6.7142,,0,39,39,39,1,25,125,,,,,,,,
,,6110daa2aefc2c078f8a7ae5,65af5a431502ba3ac8b61a52,2024-01-23_08h21.00.811,bars,2023.2.3,Win32,40,657b66ea316d21385b68909f,,,,,,,,,,,796.1766,797.1778,,,797.6782,797.9283,,132,132,,,,,,,,,,,,,,,,bars/023.png,bars/mask006.png,,,,,,,,,,,,1,2,,,,,,,0,4,0,3,,,,,,,,,,,797.1779,797.6782,797.9283,802.2406,space,4.2891,,802.2406,68,17,803.2407,803.2407,808.3597,space,5.0893,,0,40,40,40,1,20,115,,,,,,,,
,,6110daa2aefc2c078f8a7ae5,65af5a431502ba3ac8b61a52,2024-01-23_08h21.00.811,bars,2023.2.3,Win32,40,657b66ea316d21385b68909f,,,,,,,,,,,808.3776,809.3602,,,809.8604,810.1107,,109,109,,,,,,,,,,,,,,,,bars/011.png,bars/mask000.png,,,,,,,,,,,,1,2,,,,,,,2,6,1,5,,,,,,,,,,,809.3603,809.8603,810.1107,817.6658,space,7.5473,,817.6658,51,24,818.6644,818.6645,825.4344,space,6.739,,0,41,41,41,1,160,85,,,,,,,,
,,6110daa2aefc2c078f8a7ae5,65af5a431502ba3ac8b61a52,2024-01-23_08h21.00.811,bars,2023.2.3,Win32,40,657b66ea316d21385b68909f,,,,,,,,,,,825.4475,826.4511,,,826.9515,827.185,,158,158,,,,,,,,,,,,,,,,bars/003.png,bars/mask008.png,,,,,,,,,,,,3,2,,,,,,,4,8,4,7,,,,,,,,,,,826.4512,826.9514,827.1852,831.087,space,3.8912,,831.087,47,18,832.0872,832.0874,837.5255,space,5.4109,,0,42,42,42,1,25,140,,,,,,,,
,,6110daa2aefc2c078f8a7ae5,65af5a431502ba3ac8b61a52,2024-01-23_08h21.00.811,bars,2023.2.3,Win32,40,657b66ea316d21385b68909f,,,,,,,,,,,837.5445,838.5394,,,839.0406,839.2914,,141,141,,,,,,,,,,,,,,,,bars/006.png,bars/mask001.png,,,,,,,,,,,,0,2,,,,,,,2,6,3,5,,,,,,,,,,,838.5395,839.0406,839.2914,845.2437,space,5.9369,,845.2437,74,41,846.2437,846.2437,849.162,space,2.8854,,0,43,43,43,1,35,100,,,,,,,,
,,6110daa2aefc2c078f8a7ae5,65af5a431502ba3ac8b61a52,2024-01-23_08h21.00.811,bars,2023.2.3,Win32,40,657b66ea316d21385b68909f,,,,,,,,,,,849.175,850.162,,,850.6624,850.9125,,29,29,,,,,,,,,,,,,,,,bars/044.png,bars/mask000.png,,,,,,,,,,,,0,1,,,,,,,4,8,6,9,,,,,,,,,,,850.1621,850.6624,850.9126,857.6659,space,6.7417,,857.6659,46,54,858.6659,858.666,862.9188,space,4.2217,,0,44,44,44,1,75,155,,,,,,,,
,,6110daa2aefc2c078f8a7ae5,65af5a431502ba3ac8b61a52,2024-01-23_08h21.00.811,bars,2023.2.3,Win32,40,657b66ea316d21385b68909f,,,,,,,,,,,862.9316,863.9351,,,864.4354,864.6854,,69,69,,,,,,,,,,,,,,,,bars/021.png,bars/mask006.png,,,,,,,,,,,,6,2,,,,,,,2,6,1,6,,,,,,,,,,,863.9351,864.4354,864.6855,871.1219,space,6.4205,,871.122,86,1,872.1221,872.1222,875.424,space,3.2663,,0,45,45,45,1,155,70,,,,,,,,
,,6110daa2aefc2c078f8a7ae5,65af5a431502ba3ac8b61a52,2024-01-23_08h21.00.811,bars,2023.2.3,Win32,40,657b66ea316d21385b68909f,,,,,,,,,,,875.4244,876.4241,,,876.9245,877.1744,,79,79,,,,,,,,,,,,,,,,bars/026.png,bars/mask002.png,,,,,,,,,,,,6,2,,,,,,,4,8,4,7,,,,,,,,,,,876.4242,876.9245,877.1745,880.501,space,3.3188,,880.5011,44,6,881.5001,881.5002,885.3845,space,3.8513,,0,46,46,46,1,35,85,,,,,,,,
,,6110daa2aefc2c078f8a7ae5,65af5a431502ba3ac8b61a52,2024-01-23_08h21.00.811,bars,2023.2.3,Win32,40,657b66ea316d21385b68909f,,,,,,,,,,,885.3981,886.3854,,,886.878,887.1192,,82,82,,,,,,,,,,,,,,,,bars/011.png,bars/mask006.png,,,,,,,,,,,,5,2,,,,,,,6,6,7,5,,,,,,,,,,,886.3855,886.878,887.1193,892.123,space,4.9875,,892.1231,78,3,893.1143,893.1143,896.9746,space,3.8338,,0,47,47,47,1,160,85,,,,,,,,
,,6110daa2aefc2c078f8a7ae5,65af5a431502ba3ac8b61a52,2024-01-23_08h21.00.811,bars,2023.2.3,Win32,40,657b66ea316d21385b68909f,,,,,,,,,,,896.9899,897.9832,,,898.4747,898.7245,,79,79,,,,,,,,,,,,,,,,bars/009.png,bars/mask006.png,,,,,,,,,,,,1,2,,,,,,,8,8,7,10,,,,,,,,,,,897.9833,898.4746,898.7245,903.4608,space,4.7195,,903.4609,64,26,904.4604,904.4605,908.7803,space,4.2918,,0,48,48,48,1,15,105,,,,,,,,
,,6110daa2aefc2c078f8a7ae5,65af5a431502ba3ac8b61a52,2024-01-23_08h21.00.811,bars,2023.2.3,Win32,40,657b66ea316d21385b68909f,,,,,,,,,,,908.7932,909.7957,,,910.2899,910.5294,,30,30,,,,,,,,,,,,,,,,bars/022.png,bars/mask006.png,,,,,,,,,,,,4,2,,,,,,,10,6,10,6,,,,,,,,,,,909.7958,910.2899,910.5295,917.2922,space,6.7438,,917.2923,65,10,918.2926,918.2926,926.1295,space,7.7848,,0,49,49,49,1,95,20,,,,,,,,
,,6110daa2aefc2c078f8a7ae5,65af5a431502ba3ac8b61a52,2024-01-23_08h21.00.811,bars,2023.2.3,Win32,40,657b66ea316d21385b68909f,,,,,,,,,,,,,,,,,,,,,,,,,,,,,,,,,,,,,,,,,,,,,,,,,,,,,,,,,,,,,,,,,,,,,,,,,,,,,,,,,,,,,,,,,,,,,926.1458,986.1315,0,0,0,0,1,sequence_tables/blk049.csv
,,6110daa2aefc2c078f8a7ae5,65af5a431502ba3ac8b61a52,2024-01-23_08h21.00.811,bars,2023.2.3,Win32,40,657b66ea316d21385b68909f,,,,,,,,,,,1000.8362,1001.8141,,,1002.3145,1002.5646,,103,103,,,,,,,,,,,,,,,,bars/007.png,bars/mask002.png,,,,,,,,,,,,0,2,,,,,,,2,9,1,9,,,,,,986.148,1000.8139,space,14.6516,,1001.8142,1002.3144,1002.5646,1010.6351,space,8.0544,,1010.6352,72,48,1011.6352,1011.6352,1011.6495,,,,0,0,0,0,1,175,55,,,,,,,,
,,6110daa2aefc2c078f8a7ae5,65af5a431502ba3ac8b61a52,2024-01-23_08h21.00.811,bars,2023.2.3,Win32,40,657b66ea316d21385b68909f,,,,,,,,,,,1011.6498,1012.6525,,,1013.1528,1013.4028,,27,27,,,,,,,,,,,,,,,,bars/043.png,bars/mask004.png,,,,,,,,,,,,6,1,,,,,,,4,7,7,6,,,,,,,,,,,1012.6526,1013.1527,1013.4028,1025.7097,space,12.2994,,1025.7098,3,77,1026.7087,1026.7087,1026.7257,,,,0,1,1,1,1,30,130,,,,,,,,
,,6110daa2aefc2c078f8a7ae5,65af5a431502ba3ac8b61a52,2024-01-23_08h21.00.811,bars,2023.2.3,Win32,40,657b66ea316d21385b68909f,,,,,,,,,,,1026.7262,1027.7252,,,1028.2261,1028.4762,,158,158,,,,,,,,,,,,,,,,bars/032.png,bars/mask002.png,,,,,,,,,,,,0,1,,,,,,,6,9,6,8,,,,,,,,,,,1027.7253,1028.226,1028.4762,1036.1477,space,7.6641,,1036.1479,33,42,1037.147,1037.1471,1037.1612,,,,0,2,2,2,1,125,20,,,,,,,,
,,6110daa2aefc2c078f8a7ae5,65af5a431502ba3ac8b61a52,2024-01-23_08h21.00.811,bars,2023.2.3,Win32,40,657b66ea316d21385b68909f,,,,,,,,,,,1037.1617,1038.1641,,,1038.6644,1038.9145,,33,33,,,,,,,,,,,,,,,,bars/039.png,bars/mask004.png,,,,,,,,,,,,0,1,,,,,,,8,7,6,8,,,,,,,,,,,1038.1641,1038.6643,1038.9146,1045.2009,space,6.2711,,1045.201,38,72,1046.201,1046.2011,1046.2153,,,,0,3,3,3,1,175,105,,,,,,,,
,,6110daa2aefc2c078f8a7ae5,65af5a431502ba3ac8b61a52,2024-01-23_08h21.00.811,bars,2023.2.3,Win32,40,657b66ea316d21385b68909f,,,,,,,,,,,1046.2156,1047.2185,,,1047.7188,1047.9686,,138,138,,,,,,,,,,,,,,,,bars/004.png,bars/mask000.png,,,,,,,,,,,,5,2,,,,,,,6,9,5,9,,,,,,,,,,,1047.2185,1047.7188,1047.9687,1053.338,space,5.3534,,1053.3381,67,13,1054.3383,1054.3384,1054.356,,,,0,4,4,4,1,25,125,,,,,,,,
,,6110daa2aefc2c078f8a7ae5,65af5a431502ba3ac8b61a52,2024-01-23_08h21.00.811,bars,2023.2.3,Win32,40,657b66ea316d21385b68909f,,,,,,,,,,,1054.3564,1055.3553,,,1055.8554,1056.1057,,135,135,,,,,,,,,,,,,,,,bars/025.png,bars/mask004.png,,,,,,,,,,,,0,1,,,,,,,8,7,8,8,,,,,,,,,,,1055.3554,1055.8554,1056.1058,1062.1929,space,6.0791,,1062.1931,30,85,1063.1923,1063.1924,1063.21,,,,0,5,5,5,1,105,40,,,,,,,,
,,6110daa2aefc2c078f8a7ae5,65af5a431502ba3ac8b61a52,2024-01-23_08h21.00.811,bars,2023.2.3,Win32,40,657b66ea316d21385b68909f,,,,,,,,,,,1063.2104,1064.2092,,,1064.7097,1064.9596,,50,50,,,,,,,,,,,,,,,,bars/019.png,bars/mask000.png,,,,,,,,,,,,5,1,,,,,,,6,5,6,7,,,,,,,,,,,1064.2093,1064.7096,1064.9598,1069.7623,space,4.7859,,1069.7623,5,55,1070.7625,1070.7625,1070.7764,,,,0,6,6,6,1,45,105,,,,,,,,
,,6110daa2aefc2c078f8a7ae5,65af5a431502ba3ac8b61a52,2024-01-23_08h21.00.811,bars,2023.2.3,Win32,40,657b66ea316d21385b68909f,,,,,,,,,,,1070.777,1071.7798,,,1072.28,1072.5196,,107,107,,,,,,,,,,,,,,,,bars/043.png,bars/mask007.png,,,,,,,,,,,,1,2,,,,,,,4,7,2,6,,,,,,,,,,,1071.7799,1072.28,1072.5196,1077.5742,space,5.038,,1077.5742,77,23,1078.5727,1078.5727,1078.589,,,,0,7,7,7,1,30,130,,,,,,,,
,,6110daa2aefc2c078f8a7ae5,65af5a431502ba3ac8b61a52,2024-01-23_08h21.00.811,bars,2023.2.3,Win32,40,657b66ea316d21385b68909f,,,,,,,,,,,1078.5895,1079.5899,,,1080.0896,1080.3325,,112,112,,,,,,,,,,,,,,,,bars/038.png,bars/mask008.png,,,,,,,,,,,,0,2,,,,,,,2,9,2,8,,,,,,,,,,,1079.59,1080.0895,1080.3325,1088.104,space,7.7554,,1088.1041,53,42,1089.103,1089.103,1089.1179,,,,0,8,8,8,1,165,70,,,,,,,,
,,6110daa2aefc2c078f8a7ae5,65af5a431502ba3ac8b61a52,2024-01-23_08h21.00.811,bars,2023.2.3,Win32,40,657b66ea316d21385b68909f,,,,,,,,,,,1089.1181,1090.1206,,,1090.6204,1090.8703,,65,65,,,,,,,,,,,,,,,,bars/028.png,bars/mask009.png,,,,,,,,,,,,0,1,,,,,,,0,10,1,10,,,,,,,,,,,1090.1207,1090.6204,1090.8705,1103.7099,space,12.8301,,1103.71,20,55,1104.7104,1104.7105,1104.7279,,,,0,9,9,9,1,45,120,,,,,,,,
,,6110daa2aefc2c078f8a7ae5,65af5a431502ba3ac8b61a52,2024-01-23_08h21.00.811,bars,2023.2.3,Win32,40,657b66ea316d21385b68909f,,,,,,,,,,,1104.7283,1105.7274,,,1106.219,1106.4611,,59,59,,,,,,,,,,,,,,,,bars/009.png,bars/mask001.png,,,,,,,,,,,,0,1,,,,,,,2,8,3,7,,,,,,,,,,,1105.7275,1106.2188,1106.4612,1114.1981,space,7.721,,1114.1982,44,46,1115.1984,1115.1985,1115.2137,,,,0,10,10,10,1,15,105,,,,,,,,
,,6110daa2aefc2c078f8a7ae5,65af5a431502ba3ac8b61a52,2024-01-23_08h21.00.811,bars,2023.2.3,Win32,40,657b66ea316d21385b68909f,,,,,,,,,,,1115.2145,1116.2065,,,1116.6992,1116.9401,,155,155,,,,,,,,,,,,,,,,bars/004.png,bars/mask006.png,,,,,,,,,,,,0,2,,,,,,,0,10,0,10,,,,,,,,,,,1116.2065,1116.6991,1116.9401,1119.4088,space,2.4526,,1119.4088,50,30,1120.4006,1120.4006,1120.4175,,,,0,11,11,11,1,25,125,,,,,,,,
,,6110daa2aefc2c078f8a7ae5,65af5a431502ba3ac8b61a52,2024-01-23_08h21.00.811,bars,2023.2.3,Win32,40,657b66ea316d21385b68909f,,,,,,,,,,,1120.4179,1121.4085,,,1121.9089,1122.1513,,17,17,,,,,,,,,,,,,,,,bars/003.png,bars/mask004.png,,,,,,,,,,,,1,1,,,,,,,2,8,2,6,,,,,,,,,,,1121.4086,1121.9089,1122.1513,1125.4446,space,3.2693,,1125.4446,8,57,1126.4439,1126.4439,1126.4595,,,,0,12,12,12,1,25,140,,,,,,,,
,,6110daa2aefc2c078f8a7ae5,65af5a431502ba3ac8b61a52,2024-01-23_08h21.00.811,bars,2023.2.3,Win32,40,657b66ea316d21385b68909f,,,,,,,,,,,1126.4599,1127.461,,,1127.9543,1128.2042,,134,134,,,,,,,,,,,,,,,,bars/016.png,bars/mask000.png,,,,,,,,,,,,0,2,,,,,,,4,10,5,9,,,,,,,,,,,1127.4611,1127.9543,1128.2043,1132.3233,space,4.1072,,1132.3234,86,31,1133.3234,1133.3235,1133.3388,,,,0,13,13,13,1,40,165,,,,,,,,
,,6110daa2aefc2c078f8a7ae5,65af5a431502ba3ac8b61a52,2024-01-23_08h21.00.811,bars,2023.2.3,Win32,40,657b66ea316d21385b68909f,,,,,,,,,,,1133.3395,1134.3405,,,1134.8488,1135.0981,,108,108,,,,,,,,,,,,,,,,bars/041.png,bars/mask001.png,,,,,,,,,,,,2,2,,,,,,,2,10,2,10,,,,,,,,,,,1134.3405,1134.8487,1135.0982,1138.9015,space,3.7866,,1138.9015,88,23,1139.9005,1139.9006,1139.9146,,,,0,14,14,14,1,20,85,,,,,,,,
,,6110daa2aefc2c078f8a7ae5,65af5a431502ba3ac8b61a52,2024-01-23_08h21.00.811,bars,2023.2.3,Win32,40,657b66ea316d21385b68909f,,,,,,,,,,,1139.9149,1140.9098,,,1141.4012,1141.6434,,54,234,,,,,,,,,,,,,,,,bars/030.png,bars/mask007.png,,,,,,,,,,,,6,2,,,,,,,0,10,0,10,,,,,,,,,,,1140.9099,1141.4012,1141.6435,1149.7558,space,8.0883,,1149.7559,86,11,1150.7478,1150.7478,1150.7643,,,,0,15,15,15,1,140,65,,,,,,,,
,,6110daa2aefc2c078f8a7ae5,65af5a431502ba3ac8b61a52,2024-01-23_08h21.00.811,bars,2023.2.3,Win32,40,657b66ea316d21385b68909f,,,,,,,,,,,1150.7647,1151.7555,,,1152.256,1152.4982,,68,68,,,,,,,,,,,,,,,,bars/004.png,bars/mask006.png,,,,,,,,,,,,0,1,,,,,,,2,10,2,10,,,,,,,,,,,1151.7555,1152.2559,1152.4982,1155.8835,space,3.3539,,1155.8835,43,57,1156.8745,1156.8745,1156.8907,,,,0,16,16,16,1,25,125,,,,,,,,
,,6110daa2aefc2c078f8a7ae5,65af5a431502ba3ac8b61a52,2024-01-23_08h21.00.811,bars,2023.2.3,Win32,40,657b66ea316d21385b68909f,,,,,,,,,,,1156.891,1157.892,,,1158.3925,1158.6424,,84,84,,,,,,,,,,,,,,,,bars/030.png,bars/mask004.png,,,,,,,,,,,,3,2,,,,,,,0,10,0,8,,,,,,,,,,,1157.892,1158.3924,1158.6424,1164.1122,space,5.4534,,1164.1123,56,19,1165.1115,1165.1115,1165.1285,,,,0,17,17,17,1,140,65,,,,,,,,
,,6110daa2aefc2c078f8a7ae5,65af5a431502ba3ac8b61a52,2024-01-23_08h21.00.811,bars,2023.2.3,Win32,40,657b66ea316d21385b68909f,,,,,,,,,,,1165.1288,1166.1214,,,1166.6129,1166.855,,126,126,,,,,,,,,,,,,,,,bars/013.png,bars/mask008.png,,,,,,,,,,,,0,1,,,,,,,2,10,2,10,,,,,,,,,,,1166.1214,1166.6128,1166.855,1173.8918,space,7.0039,,1173.8919,51,64,1174.8995,1174.8996,1174.9162,,,,0,18,18,18,1,75,10,,,,,,,,
,,6110daa2aefc2c078f8a7ae5,65af5a431502ba3ac8b61a52,2024-01-23_08h21.00.811,bars,2023.2.3,Win32,40,657b66ea316d21385b68909f,,,,,,,,,,,1174.9165,1175.909,,,1176.4002,1176.6506,,167,167,,,,,,,,,,,,,,,,bars/018.png,bars/mask001.png,,,,,,,,,,,,0,1,,,,,,,0,10,1,10,,,,,,,,,,,1175.9091,1176.4002,1176.6506,1183.7879,space,7.1208,,1183.788,17,77,1184.7798,1184.7798,1184.7954,,,,0,19,19,19,1,150,90,,,,,,,,
,,6110daa2aefc2c078f8a7ae5,65af5a431502ba3ac8b61a52,2024-01-23_08h21.00.811,bars,2023.2.3,Win32,40,657b66ea316d21385b68909f,,,,,,,,,,,1184.7962,1185.7874,,,1186.2882,1186.5384,,57,57,,,,,,,,,,,,,,,,bars/045.png,bars/mask009.png,,,,,,,,,,,,0,1,,,,,,,2,10,1,8,,,,,,,,,,,1185.7875,1186.2882,1186.5384,1190.4076,space,3.8531,,1190.4076,43,47,1191.3994,1191.3994,1191.4137,,,,0,20,20,20,1,100,10,,,,,,,,
,,6110daa2aefc2c078f8a7ae5,65af5a431502ba3ac8b61a52,2024-01-23_08h21.00.811,bars,2023.2.3,Win32,40,657b66ea316d21385b68909f,,,,,,,,,,,1191.414,1192.4167,,,1192.9085,1193.1567,,17,17,,,,,,,,,,,,,,,,bars/043.png,bars/mask005.png,,,,,,,,,,,,2,1,,,,,,,4,8,3,8,,,,,,,,,,,1192.4167,1192.9084,1193.1567,1196.4274,space,3.2525,,1196.4274,13,67,1197.4231,1197.4231,1197.4377,,,,0,21,21,21,1,30,130,,,,,,,,
,,6110daa2aefc2c078f8a7ae5,65af5a431502ba3ac8b61a52,2024-01-23_08h21.00.811,bars,2023.2.3,Win32,40,657b66ea316d21385b68909f,,,,,,,,,,,1197.4384,1198.4269,,,1198.9275,1199.1696,,145,145,,,,,,,,,,,,,,,,bars/024.png,bars/mask003.png,,,,,,,,,,,,2,2,,,,,,,6,10,7,10,,,,,,,,,,,1198.4269,1198.9274,1199.1697,1202.9383,space,3.7535,,1202.9383,25,25,1203.9385,1203.9385,1203.9549,,,,0,22,22,22,1,120,170,,,,,,,,
,,6110daa2aefc2c078f8a7ae5,65af5a431502ba3ac8b61a52,2024-01-23_08h21.00.811,bars,2023.2.3,Win32,40,657b66ea316d21385b68909f,,,,,,,,,,,1203.9554,1204.9558,,,1205.4561,1205.7063,,21,21,,,,,,,,,,,,,,,,bars/049.png,bars/mask003.png,,,,,,,,,,,,0,1,,,,,,,4,10,4,10,,,,,,,,,,,1204.9559,1205.4561,1205.7063,1209.208,space,3.4868,,1209.208,41,86,1210.2082,1210.2083,1210.225,,,,0,23,23,23,1,160,115,,,,,,,,
,,6110daa2aefc2c078f8a7ae5,65af5a431502ba3ac8b61a52,2024-01-23_08h21.00.811,bars,2023.2.3,Win32,40,657b66ea316d21385b68909f,,,,,,,,,,,1210.2254,1211.2252,,,1211.7256,1211.9753,,157,157,,,,,,,,,,,,,,,,bars/046.png,bars/mask008.png,,,,,,,,,,,,5,1,,,,,,,6,8,5,9,,,,,,,,,,,1211.2253,1211.7255,1211.9754,1215.8611,space,3.8731,,1215.8611,2,72,1216.8609,1216.861,1216.8751,,,,0,24,24,24,1,155,85,,,,,,,,
,,6110daa2aefc2c078f8a7ae5,65af5a431502ba3ac8b61a52,2024-01-23_08h21.00.811,bars,2023.2.3,Win32,40,657b66ea316d21385b68909f,,,,,,,,,,,1216.8755,1217.8787,,,1218.3784,1218.6286,,65,65,,,,,,,,,,,,,,,,bars/021.png,bars/mask009.png,,,,,,,,,,,,6,2,,,,,,,4,6,4,7,,,,,,,,,,,1217.8789,1218.3783,1218.6287,1223.4809,space,4.8407,,1223.4809,90,5,1224.4811,1224.4811,1224.4969,,,,0,25,25,25,1,155,70,,,,,,,,
,,6110daa2aefc2c078f8a7ae5,65af5a431502ba3ac8b61a52,2024-01-23_08h21.00.811,bars,2023.2.3,Win32,40,657b66ea316d21385b68909f,,,,,,,,,,,1224.4975,1225.4981,,,1225.9988,1226.2486,,131,131,,,,,,,,,,,,,,,,bars/034.png,bars/mask005.png,,,,,,,,,,,,1,1,,,,,,,2,8,1,8,,,,,,,,,,,1225.4982,1225.9988,1226.2486,1229.7006,space,3.4358,,1229.7006,6,66,1230.7008,1230.7008,1230.7178,,,,0,26,26,26,1,125,65,,,,,,,,
,,6110daa2aefc2c078f8a7ae5,65af5a431502ba3ac8b61a52,2024-01-23_08h21.00.811,bars,2023.2.3,Win32,40,657b66ea316d21385b68909f,,,,,,,,,,,1230.7182,1231.718,,,1232.218,1232.4681,,115,115,,,,,,,,,,,,,,,,bars/012.png,bars/mask008.png,,,,,,,,,,,,1,1,,,,,,,4,10,5,9,,,,,,,,,,,1231.718,1232.218,1232.4682,1237.5877,space,5.1041,,1237.5877,25,80,1238.5878,1238.5878,1238.6025,,,,0,27,27,27,1,90,15,,,,,,,,
,,6110daa2aefc2c078f8a7ae5,65af5a431502ba3ac8b61a52,2024-01-23_08h21.00.811,bars,2023.2.3,Win32,40,657b66ea316d21385b68909f,,,,,,,,,,,1238.6028,1239.5958,,,1240.0883,1240.3462,,37,37,,,,,,,,,,,,,,,,bars/015.png,bars/mask009.png,,,,,,,,,,,,0,2,,,,,,,2,10,2,9,,,,,,,,,,,1239.5959,1240.0881,1240.3463,1244.0652,space,3.7023,,1244.0652,73,57,1245.0645,1245.0645,1245.0812,,,,0,28,28,28,1,110,160,,,,,,,,
,,6110daa2aefc2c078f8a7ae5,65af5a431502ba3ac8b61a52,2024-01-23_08h21.00.811,bars,2023.2.3,Win32,40,657b66ea316d21385b68909f,,,,,,,,,,,1245.0817,1246.0816,,,1246.5824,1246.8322,,118,118,,,,,,,,,,,,,,,,bars/015.png,bars/mask000.png,,,,,,,,,,,,0,1,,,,,,,0,8,0,8,,,,,,,,,,,1246.0816,1246.5824,1246.8323,1249.8844,space,3.036,,1249.8845,8,42,1250.8842,1250.8843,1250.9001,,,,0,29,29,29,1,110,160,,,,,,,,
,,6110daa2aefc2c078f8a7ae5,65af5a431502ba3ac8b61a52,2024-01-23_08h21.00.811,bars,2023.2.3,Win32,40,657b66ea316d21385b68909f,,,,,,,,,,,1250.9003,1251.8942,,,1252.3945,1252.6446,,106,106,,,,,,,,,,,,,,,,bars/035.png,bars/mask000.png,,,,,,,,,,,,0,2,,,,,,,2,10,2,9,,,,,,,,,,,1251.8944,1252.3945,1252.6446,1256.6808,space,4.0268,,1256.6809,69,46,1257.6804,1257.6804,1257.6974,,,,0,30,30,30,1,175,60,,,,,,,,
,,6110daa2aefc2c078f8a7ae5,65af5a431502ba3ac8b61a52,2024-01-23_08h21.00.811,bars,2023.2.3,Win32,40,657b66ea316d21385b68909f,,,,,,,,,,,1257.6978,1258.6974,,,1259.1977,1259.4477,,156,156,,,,,,,,,,,,,,,,bars/019.png,bars/mask008.png,,,,,,,,,,,,0,2,,,,,,,0,8,0,8,,,,,,,,,,,1258.6974,1259.1977,1259.4479,1261.9323,space,2.4687,,1261.9324,69,51,1262.9328,1262.9328,1262.9337,,,,0,31,31,31,1,45,105,,,,,,,,
,,6110daa2aefc2c078f8a7ae5,65af5a431502ba3ac8b61a52,2024-01-23_08h21.00.811,bars,2023.2.3,Win32,40,657b66ea316d21385b68909f,,,,,,,,,,,1262.9341,1263.9333,,,1264.4337,1264.6836,,125,125,,,,,,,,,,,,,,,,bars/048.png,bars/mask007.png,,,,,,,,,,,,0,2,,,,,,,0,6,0,5,,,,,,,,,,,1263.9333,1264.4337,1264.6837,1267.5852,space,2.8854,,1267.5853,75,50,1268.5855,1268.5856,1268.599,,,,0,32,32,32,1,50,175,,,,,,,,
,,6110daa2aefc2c078f8a7ae5,65af5a431502ba3ac8b61a52,2024-01-23_08h21.00.811,bars,2023.2.3,Win32,40,657b66ea316d21385b68909f,,,,,,,,,,,1268.5995,1269.6032,,,1270.1027,1270.3529,,39,219,,,,,,,,,,,,,,,,bars/016.png,bars/mask003.png,,,,,,,,,,,,1,1,,,,,,,0,4,1,4,,,,,,,,,,,1269.6032,1270.1026,1270.353,1277.6565,space,7.2876,,1277.6566,1,54,1278.6565,1278.6566,1278.6735,,,,0,33,33,33,1,40,165,,,,,,,,
,,6110daa2aefc2c078f8a7ae5,65af5a431502ba3ac8b61a52,2024-01-23_08h21.00.811,bars,2023.2.3,Win32,40,657b66ea316d21385b68909f,,,,,,,,,,,1278.6739,1279.6738,,,1280.174,1280.4241,,140,-40,,,,,,,,,,,,,,,,bars/027.png,bars/mask000.png,,,,,,,,,,,,0,1,,,,,,,0,6,1,6,,,,,,,,,,,1279.6738,1280.174,1280.4241,1285.8436,space,5.4035,,1285.8436,30,90,1286.8436,1286.8436,1286.8575,,,,0,34,34,34,1,110,50,,,,,,,,
,,6110daa2aefc2c078f8a7ae5,65af5a431502ba3ac8b61a52,2024-01-23_08h21.00.811,bars,2023.2.3,Win32,40,657b66ea316d21385b68909f,,,,,,,,,,,1286.8579,1287.8606,,,1288.3611,1288.6112,,97,97,,,,,,,,,,,,,,,,bars/022.png,bars/mask003.png,,,,,,,,,,,,2,1,,,,,,,2,8,2,7,,,,,,,,,,,1287.8607,1288.3611,1288.6112,1293.3801,space,4.7525,,1293.3802,2,77,1294.3802,1294.3803,1294.3936,,,,0,35,35,35,1,95,20,,,,,,,,
,,6110daa2aefc2c078f8a7ae5,65af5a431502ba3ac8b61a52,2024-01-23_08h21.00.811,bars,2023.2.3,Win32,40,657b66ea316d21385b68909f,,,,,,,,,,,1294.394,1295.3975,,,1295.8976,1296.1479,,69,69,,,,,,,,,,,,,,,,bars/012.png,bars/mask000.png,,,,,,,,,,,,1,1,,,,,,,4,6,4,6,,,,,,,,,,,1295.3976,1295.8976,1296.1479,1299.2328,space,3.0691,,1299.2329,21,54,1300.233,1300.2331,1300.2467,,,,0,36,36,36,1,90,15,,,,,,,,
,,6110daa2aefc2c078f8a7ae5,65af5a431502ba3ac8b61a52,2024-01-23_08h21.00.811,bars,2023.2.3,Win32,40,657b66ea316d21385b68909f,,,,,,,,,,,1300.2472,1301.2503,,,1301.7505,1302.0005,,153,153,,,,,,,,,,,,,,,,bars/035.png,bars/mask000.png,,,,,,,,,,,,2,1,,,,,,,6,8,6,8,,,,,,,,,,,1301.2503,1301.7505,1302.0006,1307.7544,space,5.7459,,1307.7544,22,87,1308.7537,1308.7537,1308.7671,,,,0,37,37,37,1,175,60,,,,,,,,
,,6110daa2aefc2c078f8a7ae5,65af5a431502ba3ac8b61a52,2024-01-23_08h21.00.811,bars,2023.2.3,Win32,40,657b66ea316d21385b68909f,,,,,,,,,,,1308.7673,1309.7707,,,1310.2711,1310.5209,,70,70,,,,,,,,,,,,,,,,bars/026.png,bars/mask007.png,,,,,,,,,,,,3,2,,,,,,,8,6,8,6,,,,,,,,,,,1309.7707,1310.271,1310.5209,1315.9238,space,5.3913,,1315.9239,35,15,1316.9239,1316.9239,1316.9418,,,,0,38,38,38,1,35,85,,,,,,,,
,,6110daa2aefc2c078f8a7ae5,65af5a431502ba3ac8b61a52,2024-01-23_08h21.00.811,bars,2023.2.3,Win32,40,657b66ea316d21385b68909f,,,,,,,,,,,1316.9423,1317.941,,,1318.4411,1318.6912,,107,107,,,,,,,,,,,,,,,,bars/018.png,bars/mask004.png,,,,,,,,,,,,2,2,,,,,,,6,4,4,4,,,,,,,,,,,1317.941,1318.4411,1318.6912,1323.4445,space,4.7455,,1323.4445,43,17,1324.4439,1324.444,1324.4621,,,,0,39,39,39,1,150,90,,,,,,,,
,,6110daa2aefc2c078f8a7ae5,65af5a431502ba3ac8b61a52,2024-01-23_08h21.00.811,bars,2023.2.3,Win32,40,657b66ea316d21385b68909f,,,,,,,,,,,1324.4625,1325.461,,,1325.9615,1326.2116,,108,108,,,,,,,,,,,,,,,,bars/008.png,bars/mask007.png,,,,,,,,,,,,5,1,,,,,,,4,6,5,5,,,,,,,,,,,1325.4611,1325.9614,1326.2117,1330.8639,space,4.6362,,1330.864,2,72,1331.8641,1331.8642,1331.8802,,,,0,40,40,40,1,110,0,,,,,,,,
,,6110daa2aefc2c078f8a7ae5,65af5a431502ba3ac8b61a52,2024-01-23_08h21.00.811,bars,2023.2.3,Win32,40,657b66ea316d21385b68909f,,,,,,,,,,,1331.881,1332.8811,,,1333.3812,1333.6314,,56,56,,,,,,,,,,,,,,,,bars/019.png,bars/mask008.png,,,,,,,,,,,,5,1,,,,,,,6,8,8,8,,,,,,,,,,,1332.8812,1333.3812,1333.6315,1336.9163,space,3.275,,1336.9163,11,49,1337.9165,1337.9166,1337.9313,,,,0,41,41,41,1,45,105,,,,,,,,
,,6110daa2aefc2c078f8a7ae5,65af5a431502ba3ac8b61a52,2024-01-23_08h21.00.811,bars,2023.2.3,Win32,40,657b66ea316d21385b68909f,,,,,,,,,,,1337.9321,1338.9338,,,1339.434,1339.6845,,152,152,,,,,,,,,,,,,,,,bars/002.png,bars/mask003.png,,,,,,,,,,,,2,1,,,,,,,8,6,7,7,,,,,,,,,,,1338.9338,1339.434,1339.6845,1341.7856,space,2.0857,,1341.7857,22,67,1342.7847,1342.7848,1342.7866,,,,0,42,42,42,1,130,85,,,,,,,,
,,6110daa2aefc2c078f8a7ae5,65af5a431502ba3ac8b61a52,2024-01-23_08h21.00.811,bars,2023.2.3,Win32,40,657b66ea316d21385b68909f,,,,,,,,,,,1342.787,1343.7853,,,1344.2858,1344.5358,,58,58,,,,,,,,,,,,,,,,bars/023.png,bars/mask008.png,,,,,,,,,,,,0,1,,,,,,,6,4,6,5,,,,,,,,,,,1343.7853,1344.2857,1344.5358,1349.7718,space,5.22,,1349.772,38,57,1350.7718,1350.7718,1350.7866,,,,0,43,43,43,1,20,115,,,,,,,,
,,6110daa2aefc2c078f8a7ae5,65af5a431502ba3ac8b61a52,2024-01-23_08h21.00.811,bars,2023.2.3,Win32,40,657b66ea316d21385b68909f,,,,,,,,,,,1350.787,1351.7892,,,1352.2892,1352.5393,,145,145,,,,,,,,,,,,,,,,bars/037.png,bars/mask009.png,,,,,,,,,,,,4,1,,,,,,,4,2,5,2,,,,,,,,,,,1351.7892,1352.2891,1352.5394,1356.9752,space,4.4189,,1356.9753,5,40,1357.9751,1357.9752,1357.9901,,,,0,44,44,44,1,150,105,,,,,,,,
,,6110daa2aefc2c078f8a7ae5,65af5a431502ba3ac8b61a52,2024-01-23_08h21.00.811,bars,2023.2.3,Win32,40,657b66ea316d21385b68909f,,,,,,,,,,,1357.9904,1358.9923,,,1359.5005,1359.7513,,33,33,,,,,,,,,,,,,,,,bars/032.png,bars/mask001.png,,,,,,,,,,,,0,2,,,,,,,2,0,4,0,,,,,,,,,,,1358.9923,1359.5004,1359.7513,1363.4944,space,3.7273,,1363.4944,88,13,1364.4853,1364.4854,1364.5015,,,,0,45,45,45,1,125,20,,,,,,,,
,,6110daa2aefc2c078f8a7ae5,65af5a431502ba3ac8b61a52,2024-01-23_08h21.00.811,bars,2023.2.3,Win32,40,657b66ea316d21385b68909f,,,,,,,,,,,1364.5018,1365.4951,,,1365.9956,1366.2368,,179,179,,,,,,,,,,,,,,,,bars/002.png,bars/mask002.png,,,,,,,,,,,,0,1,,,,,,,4,0,2,0,,,,,,,,,,,1365.4951,1365.9955,1366.2368,1369.1553,space,2.9026,,1369.1555,49,86,1370.1547,1370.1548,1370.1712,,,,0,46,46,46,1,130,85,,,,,,,,
,,6110daa2aefc2c078f8a7ae5,65af5a431502ba3ac8b61a52,2024-01-23_08h21.00.811,bars,2023.2.3,Win32,40,657b66ea316d21385b68909f,,,,,,,,,,,1370.1715,1371.1651,,,1371.6652,1371.9153,,100,100,,,,,,,,,,,,,,,,bars/019.png,bars/mask000.png,,,,,,,,,,,,1,2,,,,,,,2,2,1,1,,,,,,,,,,,1371.1651,1371.6652,1371.9154,1374.7836,space,2.8524,,1374.7837,55,5,1375.7839,1375.7839,1375.7998,,,,0,47,47,47,1,45,105,,,,,,,,
,,6110daa2aefc2c078f8a7ae5,65af5a431502ba3ac8b61a52,2024-01-23_08h21.00.811,bars,2023.2.3,Win32,40,657b66ea316d21385b68909f,,,,,,,,,,,1375.8006,1376.8012,,,1377.3013,1377.5515,,131,131,,,,,,,,,,,,,,,,bars/009.png,bars/mask004.png,,,,,,,,,,,,0,2,,,,,,,4,0,4,0,,,,,,,,,,,1376.8012,1377.3013,1377.5515,1381.5533,space,3.9862,,1381.5534,64,26,1382.5536,1382.5536,1382.5682,,,,0,48,48,48,1,15,105,,,,,,,,
,,6110daa2aefc2c078f8a7ae5,65af5a431502ba3ac8b61a52,2024-01-23_08h21.00.811,bars,2023.2.3,Win32,40,657b66ea316d21385b68909f,,,,,,,,,,,1382.5698,1383.571,,,1384.0611,1384.3119,,48,48,,,,,,,,,,,,,,,,bars/000.png,bars/mask008.png,,,,,,,,,,,,4,1,,,,,,,6,0,6,1,,,,,,,,,,,1383.571,1384.0611,1384.3119,1391.7822,space,7.4544,,1391.7824,8,83,1392.7819,1392.7819,1392.7996,,,,0,49,49,49,1,40,145,,,,,,,,
,,6110daa2aefc2c078f8a7ae5,65af5a431502ba3ac8b61a52,2024-01-23_08h21.00.811,bars,2023.2.3,Win32,40,657b66ea316d21385b68909f,,,,,,,,,,,,,,,,,,,,,,,,,,,,,,,,,,,,,,,,,,,,,,,,,,,,,,,,,,,,,,,,,,,,,,,,,,,,,,,,,,,,,,,,,,,,,1392.7998,1452.8013,0,1,1,3,1,sequence_tables/blk030.csv
,,6110daa2aefc2c078f8a7ae5,65af5a431502ba3ac8b61a52,2024-01-23_08h21.00.811,bars,2023.2.3,Win32,40,657b66ea316d21385b68909f,,,,,,,,,,,1457.4254,1458.4118,,,1458.9044,1459.1624,,150,150,,,,,,,,,,,,,,,,bars/032.png,bars/mask004.png,,,,,,,,,,,,1,1,,,,,,,9,8,9,9,,,,,,1452.8151,1457.4045,space,4.5821,,1458.4119,1458.9043,1459.1624,1462.9313,space,3.7529,,1462.9313,25,50,1463.9309,1463.931,1463.945,,,,0,0,0,0,1,125,20,,,,,,,,
,,6110daa2aefc2c078f8a7ae5,65af5a431502ba3ac8b61a52,2024-01-23_08h21.00.811,bars,2023.2.3,Win32,40,657b66ea316d21385b68909f,,,,,,,,,,,1463.9453,1464.9404,,,1465.4469,1465.698,,48,48,,,,,,,,,,,,,,,,bars/049.png,bars/mask000.png,,,,,,,,,,,,0,2,,,,,,,7,10,7,10,,,,,,,,,,,1464.9404,1465.4469,1465.6981,1468.9843,space,3.2697,,1468.9844,68,67,1469.9834,1469.9835,1469.9991,,,,0,1,1,1,1,160,115,,,,,,,,
,,6110daa2aefc2c078f8a7ae5,65af5a431502ba3ac8b61a52,2024-01-23_08h21.00.811,bars,2023.2.3,Win32,40,657b66ea316d21385b68909f,,,,,,,,,,,1469.9995,1471.0011,,,1471.4933,1471.7346,,108,108,,,,,,,,,,,,,,,,bars/020.png,bars/mask006.png,,,,,,,,,,,,7,1,,,,,,,9,10,9,10,,,,,,,,,,,1471.0011,1471.4933,1471.7347,1474.2696,space,2.5188,,1474.2696,7,62,1475.2689,1475.2689,1475.2847,,,,0,2,2,2,1,115,170,,,,,,,,
,,6110daa2aefc2c078f8a7ae5,65af5a431502ba3ac8b61a52,2024-01-23_08h21.00.811,bars,2023.2.3,Win32,40,657b66ea316d21385b68909f,,,,,,,,,,,1475.2851,1476.2792,,,1476.7701,1477.0205,,131,131,,,,,,,,,,,,,,,,bars/009.png,bars/mask006.png,,,,,,,,,,,,1,2,,,,,,,7,8,8,6,,,,,,,,,,,1476.2792,1476.7701,1477.0206,1481.0891,space,4.0526,,1481.0892,64,26,1482.089,1482.0891,1482.1066,,,,0,3,3,3,1,15,105,,,,,,,,
,,6110daa2aefc2c078f8a7ae5,65af5a431502ba3ac8b61a52,2024-01-23_08h21.00.811,bars,2023.2.3,Win32,40,657b66ea316d21385b68909f,,,,,,,,,,,1482.107,1483.1059,,,1483.5986,1483.8567,,82,82,,,,,,,,,,,,,,,,bars/047.png,bars/mask003.png,,,,,,,,,,,,6,2,,,,,,,5,10,6,10,,,,,,,,,,,1483.1059,1483.5986,1483.8567,1486.3248,space,2.4519,,1486.3248,67,12,1487.317,1487.317,1487.3311,,,,0,4,4,4,1,15,70,,,,,,,,
,,6110daa2aefc2c078f8a7ae5,65af5a431502ba3ac8b61a52,2024-01-23_08h21.00.811,bars,2023.2.3,Win32,40,657b66ea316d21385b68909f,,,,,,,,,,,1487.3315,1488.3415,,,1488.8343,1489.0755,,10,10,,,,,,,,,,,,,,,,bars/020.png,bars/mask006.png,,,,,,,,,,,,3,2,,,,,,,7,8,7,8,,,,,,,,,,,1488.3415,1488.8343,1489.0756,1493.6948,space,4.603,,1493.6948,75,20,1494.6868,1494.6869,1494.7012,,,,0,5,5,5,1,115,170,,,,,,,,
,,6110daa2aefc2c078f8a7ae5,65af5a431502ba3ac8b61a52,2024-01-23_08h21.00.811,bars,2023.2.3,Win32,40,657b66ea316d21385b68909f,,,,,,,,,,,1494.7016,1495.695,,,1496.1952,1496.4452,,163,163,,,,,,,,,,,,,,,,bars/006.png,bars/mask007.png,,,,,,,,,,,,0,1,,,,,,,9,6,9,5,,,,,,,,,,,1495.695,1496.1952,1496.4453,1499.5649,space,3.1027,,1499.5649,52,63,1500.5563,1500.5564,1500.573,,,,0,6,6,6,1,35,100,,,,,,,,
,,6110daa2aefc2c078f8a7ae5,65af5a431502ba3ac8b61a52,2024-01-23_08h21.00.811,bars,2023.2.3,Win32,40,657b66ea316d21385b68909f,,,,,,,,,,,1500.5735,1501.5643,,,1502.0568,1502.2983,,174,174,,,,,,,,,,,,,,,,bars/031.png,bars/mask007.png,,,,,,,,,,,,0,2,,,,,,,7,4,7,2,,,,,,,,,,,1501.5644,1502.0567,1502.2983,1504.7501,space,2.4353,,1504.7502,54,41,1505.7495,1505.7496,1505.7655,,,,0,7,7,7,1,120,35,,,,,,,,
,,6110daa2aefc2c078f8a7ae5,65af5a431502ba3ac8b61a52,2024-01-23_08h21.00.811,bars,2023.2.3,Win32,40,657b66ea316d21385b68909f,,,,,,,,,,,1505.7659,1506.7591,,,1507.2594,1507.5093,,122,122,,,,,,,,,,,,,,,,bars/047.png,bars/mask000.png,,,,,,,,,,,,0,2,,,,,,,5,2,6,3,,,,,,,,,,,1506.7591,1507.2594,1507.5093,1509.6111,space,2.0861,,1509.6111,73,52,1510.6133,1510.6133,1510.6278,,,,0,8,8,8,1,15,70,,,,,,,,
,,6110daa2aefc2c078f8a7ae5,65af5a431502ba3ac8b61a52,2024-01-23_08h21.00.811,bars,2023.2.3,Win32,40,657b66ea316d21385b68909f,,,,,,,,,,,1510.6282,1511.628,,,1512.1281,1512.3782,,166,166,,,,,,,,,,,,,,,,bars/039.png,bars/mask002.png,,,,,,,,,,,,6,1,,,,,,,7,4,8,4,,,,,,,,,,,1511.628,1512.1281,1512.3782,1514.4462,space,2.0525,,1514.4463,9,61,1515.4464,1515.4465,1515.4626,,,,0,9,9,9,1,175,105,,,,,,,,
,,6110daa2aefc2c078f8a7ae5,65af5a431502ba3ac8b61a52,2024-01-23_08h21.00.811,bars,2023.2.3,Win32,40,657b66ea316d21385b68909f,,,,,,,,,,,1515.4629,1516.4638,,,1516.9641,1517.2138,,51,51,,,,,,,,,,,,,,,,bars/046.png,bars/mask004.png,,,,,,,,,,,,0,2,,,,,,,9,2,10,2,,,,,,,,,,,1516.4639,1516.9639,1517.2138,1519.415,space,2.1849,,1519.4151,76,34,1520.4155,1520.4156,1520.4319,,,,0,10,10,10,1,155,85,,,,,,,,
,,6110daa2aefc2c078f8a7ae5,65af5a431502ba3ac8b61a52,2024-01-23_08h21.00.811,bars,2023.2.3,Win32,40,657b66ea316d21385b68909f,,,,,,,,,,,1520.4325,1521.4324,,,1521.9326,1522.1826,,66,66,,,,,,,,,,,,,,,,bars/003.png,bars/mask009.png,,,,,,,,,,,,0,1,,,,,,,7,0,7,0,,,,,,,,,,,1521.4324,1521.9325,1522.1826,1525.1012,space,2.9027,,1525.1012,41,74,1526.1016,1526.1017,1526.1184,,,,0,11,11,11,1,25,140,,,,,,,,
,,6110daa2aefc2c078f8a7ae5,65af5a431502ba3ac8b61a52,2024-01-23_08h21.00.811,bars,2023.2.3,Win32,40,657b66ea316d21385b68909f,,,,,,,,,,,1526.1188,1527.1184,,,1527.6264,1527.8768,,62,62,,,,,,,,,,,,,,,,bars/022.png,bars/mask008.png,,,,,,,,,,,,0,1,,,,,,,9,0,9,0,,,,,,,,,,,1527.1185,1527.6264,1527.8768,1529.8201,space,1.9187,,1529.8201,33,42,1530.8279,1530.8279,1530.8295,,,,0,12,12,12,1,95,20,,,,,,,,
,,6110daa2aefc2c078f8a7ae5,65af5a431502ba3ac8b61a52,2024-01-23_08h21.00.811,bars,2023.2.3,Win32,40,657b66ea316d21385b68909f,,,,,,,,,,,1530.8299,1531.828,,,1532.3284,1532.5709,,5,5,,,,,,,,,,,,,,,,bars/037.png,bars/mask002.png,,,,,,,,,,,,0,1,,,,,,,10,0,10,2,,,,,,,,,,,1531.8281,1532.3283,1532.5709,1534.3798,space,1.7848,,1534.3799,35,80,1535.3797,1535.3798,1535.3812,,,,0,13,13,13,1,150,105,,,,,,,,
,,6110daa2aefc2c078f8a7ae5,65af5a431502ba3ac8b61a52,2024-01-23_08h21.00.811,bars,2023.2.3,Win32,40,657b66ea316d21385b68909f,,,,,,,,,,,1535.3816,1536.3725,,,1536.8639,1537.114,,107,107,,,,,,,,,,,,,,,,bars/028.png,bars/mask005.png,,,,,,,,,,,,0,2,,,,,,,10,2,8,0,,,,,,,,,,,1536.3725,1536.8636,1537.1141,1540.0495,space,2.919,,1540.0495,62,13,1541.0415,1541.0415,1541.0583,,,,0,14,14,14,1,45,120,,,,,,,,
,,6110daa2aefc2c078f8a7ae5,65af5a431502ba3ac8b61a52,2024-01-23_08h21.00.811,bars,2023.2.3,Win32,40,657b66ea316d21385b68909f,,,,,,,,,,,1541.0587,1542.0496,,,1542.5499,1542.8003,,48,48,,,,,,,,,,,,,,,,bars/018.png,bars/mask004.png,,,,,,,,,,,,0,2,,,,,,,8,4,8,4,,,,,,,,,,,1542.0496,1542.5499,1542.8004,1546.8193,space,4.003,,1546.8194,78,42,1547.811,1547.811,1547.8249,,,,0,15,15,15,1,150,90,,,,,,,,
,,6110daa2aefc2c078f8a7ae5,65af5a431502ba3ac8b61a52,2024-01-23_08h21.00.811,bars,2023.2.3,Win32,40,657b66ea316d21385b68909f,,,,,,,,,,,1547.8252,1548.8193,,,1549.3119,1549.5698,,128,128,,,,,,,,,,,,,,,,bars/039.png,bars/mask002.png,,,,,,,,,,,,0,2,,,,,,,10,2,10,2,,,,,,,,,,,1548.8193,1549.3119,1549.5699,1552.2218,space,2.6358,,1552.2219,47,23,1553.2216,1553.2217,1553.2357,,,,0,16,16,16,1,175,105,,,,,,,,
,,6110daa2aefc2c078f8a7ae5,65af5a431502ba3ac8b61a52,2024-01-23_08h21.00.811,bars,2023.2.3,Win32,40,657b66ea316d21385b68909f,,,,,,,,,,,1553.236,1554.2306,,,1554.722,1554.9722,,125,125,,,,,,,,,,,,,,,,bars/021.png,bars/mask003.png,,,,,,,,,,,,0,1,,,,,,,8,0,8,1,,,,,,,,,,,1554.2306,1554.722,1554.9723,1559.3828,space,4.3938,,1559.3829,30,55,1560.3833,1560.3834,1560.399,,,,0,17,17,17,1,155,70,,,,,,,,
,,6110daa2aefc2c078f8a7ae5,65af5a431502ba3ac8b61a52,2024-01-23_08h21.00.811,bars,2023.2.3,Win32,40,657b66ea316d21385b68909f,,,,,,,,,,,1560.3996,1561.4082,,,1561.9009,1562.142,,151,151,,,,,,,,,,,,,,,,bars/002.png,bars/mask002.png,,,,,,,,,,,,2,1,,,,,,,6,0,5,0,,,,,,,,,,,1561.4082,1561.9009,1562.1421,1564.1771,space,2.0186,,1564.1772,21,66,1565.1688,1565.1688,1565.1703,,,,0,18,18,18,1,130,85,,,,,,,,
,,6110daa2aefc2c078f8a7ae5,65af5a431502ba3ac8b61a52,2024-01-23_08h21.00.811,bars,2023.2.3,Win32,40,657b66ea316d21385b68909f,,,,,,,,,,,1565.1707,1566.1767,,,1566.6776,1566.9197,,27,27,,,,,,,,,,,,,,,,bars/000.png,bars/mask000.png,,,,,,,,,,,,5,1,,,,,,,8,0,9,0,,,,,,,,,,,1566.1768,1566.6775,1566.9198,1568.6455,space,1.7015,,1568.6455,13,62,1569.6451,1569.6451,1569.6467,,,,0,19,19,19,1,40,145,,,,,,,,
,,6110daa2aefc2c078f8a7ae5,65af5a431502ba3ac8b61a52,2024-01-23_08h21.00.811,bars,2023.2.3,Win32,40,657b66ea316d21385b68909f,,,,,,,,,,,1569.6471,1570.6459,,,1571.146,1571.3966,,31,211,,,,,,,,,,,,,,,,bars/008.png,bars/mask002.png,,,,,,,,,,,,0,2,,,,,,,6,2,5,1,,,,,,,,,,,1570.646,1571.1459,1571.3966,1575.5494,space,4.1372,,1575.5495,79,31,1576.5405,1576.5406,1576.5556,,,,0,20,20,20,1,110,0,,,,,,,,
,,6110daa2aefc2c078f8a7ae5,65af5a431502ba3ac8b61a52,2024-01-23_08h21.00.811,bars,2023.2.3,Win32,40,657b66ea316d21385b68909f,,,,,,,,,,,1576.556,1577.5587,,,1578.0584,1578.3082,,117,117,,,,,,,,,,,,,,,,bars/028.png,bars/mask001.png,,,,,,,,,,,,0,2,,,,,,,4,0,4,0,,,,,,,,,,,1577.5588,1578.0583,1578.3082,1580.3596,space,2.0355,,1580.3598,72,3,1581.3598,1581.3599,1581.3617,,,,0,21,21,21,1,45,120,,,,,,,,
,,6110daa2aefc2c078f8a7ae5,65af5a431502ba3ac8b61a52,2024-01-23_08h21.00.811,bars,2023.2.3,Win32,40,657b66ea316d21385b68909f,,,,,,,,,,,1581.3623,1582.36,,,1582.8684,1583.1105,,30,210,,,,,,,,,,,,,,,,bars/029.png,bars/mask000.png,,,,,,,,,,,,0,2,,,,,,,6,0,5,0,,,,,,,,,,,1582.36,1582.8684,1583.1105,1586.8554,space,3.7211,,1586.8555,60,15,1587.846,1587.8462,1587.8598,,,,0,22,22,22,1,90,45,,,,,,,,
,,6110daa2aefc2c078f8a7ae5,65af5a431502ba3ac8b61a52,2024-01-23_08h21.00.811,bars,2023.2.3,Win32,40,657b66ea316d21385b68909f,,,,,,,,,,,1587.8601,1588.854,,,1589.3468,1589.5882,,69,69,,,,,,,,,,,,,,,,bars/040.png,bars/mask009.png,,,,,,,,,,,,0,2,,,,,,,4,0,4,0,,,,,,,,,,,1588.8541,1589.3468,1589.5882,1592.3646,space,2.759,,1592.3646,71,64,1593.3727,1593.3727,1593.3874,,,,0,23,23,23,1,140,5,,,,,,,,
,,6110daa2aefc2c078f8a7ae5,65af5a431502ba3ac8b61a52,2024-01-23_08h21.00.811,bars,2023.2.3,Win32,40,657b66ea316d21385b68909f,,,,,,,,,,,1593.3876,1594.3886,,,1594.8904,1595.1404,,59,59,,,,,,,,,,,,,,,,bars/038.png,bars/mask008.png,,,,,,,,,,,,0,2,,,,,,,6,0,5,0,,,,,,,,,,,1594.3887,1594.8903,1595.1404,1598.1592,space,3.0023,,1598.1593,74,11,1599.1586,1599.1587,1599.174,,,,0,24,24,24,1,165,70,,,,,,,,
,,6110daa2aefc2c078f8a7ae5,65af5a431502ba3ac8b61a52,2024-01-23_08h21.00.811,bars,2023.2.3,Win32,40,657b66ea316d21385b68909f,,,,,,,,,,,1599.1744,1600.1683,,,1600.6595,1600.9096,,32,32,,,,,,,,,,,,,,,,bars/038.png,bars/mask000.png,,,,,,,,,,,,0,2,,,,,,,8,2,7,2,,,,,,,,,,,1600.1683,1600.6595,1600.9097,1604.9124,space,3.9867,,1604.9124,47,38,1605.9041,1605.9042,1605.9184,,,,0,25,25,25,1,165,70,,,,,,,,
,,6110daa2aefc2c078f8a7ae5,65af5a431502ba3ac8b61a52,2024-01-23_08h21.00.811,bars,2023.2.3,Win32,40,657b66ea316d21385b68909f,,,,,,,,,,,1605.9187,1606.9286,,,1607.4214,1607.6623,,124,124,,,,,,,,,,,,,,,,bars/028.png,bars/mask008.png,,,,,,,,,,,,3,2,,,,,,,10,4,10,4,,,,,,,,,,,1606.9286,1607.4213,1607.6624,1609.931,space,2.2521,,1609.931,79,4,1610.9305,1610.9306,1610.9454,,,,0,26,26,26,1,45,120,,,,,,,,
,,6110daa2aefc2c078f8a7ae5,65af5a431502ba3ac8b61a52,2024-01-23_08h21.00.811,bars,2023.2.3,Win32,40,657b66ea316d21385b68909f,,,,,,,,,,,1610.9457,1611.9482,,,1612.4478,1612.6904,,42,42,,,,,,,,,,,,,,,,bars/021.png,bars/mask003.png,,,,,,,,,,,,1,2,,,,,,,10,6,9,8,,,,,,,,,,,1611.9483,1612.4477,1612.6904,1615.5834,space,2.869,,1615.5834,67,28,1616.5831,1616.5831,1616.5984,,,,0,27,27,27,1,155,70,,,,,,,,
,,6110daa2aefc2c078f8a7ae5,65af5a431502ba3ac8b61a52,2024-01-23_08h21.00.811,bars,2023.2.3,Win32,40,657b66ea316d21385b68909f,,,,,,,,,,,1616.5988,1617.6003,,,1618.1004,1618.349,,157,157,,,,,,,,,,,,,,,,bars/041.png,bars/mask009.png,,,,,,,,,,,,0,1,,,,,,,8,4,6,5,,,,,,,,,,,1617.6003,1618.1004,1618.3491,1621.7694,space,3.4025,,1621.7695,43,72,1622.769,1622.769,1622.7854,,,,0,28,28,28,1,20,85,,,,,,,,
,,6110daa2aefc2c078f8a7ae5,65af5a431502ba3ac8b61a52,2024-01-23_08h21.00.811,bars,2023.2.3,Win32,40,657b66ea316d21385b68909f,,,,,,,,,,,1622.7857,1623.7789,,,1624.2866,1624.5366,,106,106,,,,,,,,,,,,,,,,bars/045.png,bars/mask005.png,,,,,,,,,,,,8,1,,,,,,,10,2,10,2,,,,,,,,,,,1623.779,1624.2866,1624.5366,1627.1388,space,2.5858,,1627.1388,6,84,1628.1382,1628.1383,1628.1534,,,,0,29,29,29,1,100,10,,,,,,,,
,,6110daa2aefc2c078f8a7ae5,65af5a431502ba3ac8b61a52,2024-01-23_08h21.00.811,bars,2023.2.3,Win32,40,657b66ea316d21385b68909f,,,,,,,,,,,1628.1538,1629.1556,,,1629.6479,1629.8889,,50,50,,,,,,,,,,,,,,,,bars/031.png,bars/mask008.png,,,,,,,,,,,,0,2,,,,,,,10,0,10,0,,,,,,,,,,,1629.1556,1629.6479,1629.889,1632.6077,space,2.7022,,1632.6077,70,15,1633.5999,1633.5999,1633.6155,,,,0,30,30,30,1,120,35,,,,,,,,
,,6110daa2aefc2c078f8a7ae5,65af5a431502ba3ac8b61a52,2024-01-23_08h21.00.811,bars,2023.2.3,Win32,40,657b66ea316d21385b68909f,,,,,,,,,,,1633.6163,1634.6077,,,1635.1004,1635.3417,,137,137,,,,,,,,,,,,,,,,bars/029.png,bars/mask009.png,,,,,,,,,,,,0,1,,,,,,,8,0,7,0,,,,,,,,,,,1634.6078,1635.1004,1635.3417,1638.5603,space,3.2022,,1638.5604,47,88,1639.5524,1639.5525,1639.5681,,,,0,31,31,31,1,90,45,,,,,,,,
,,6110daa2aefc2c078f8a7ae5,65af5a431502ba3ac8b61a52,2024-01-23_08h21.00.811,bars,2023.2.3,Win32,40,657b66ea316d21385b68909f,,,,,,,,,,,1639.5688,1640.5604,,,1641.0532,1641.2944,,145,145,,,,,,,,,,,,,,,,bars/039.png,bars/mask007.png,,,,,,,,,,,,0,1,,,,,,,6,2,6,4,,,,,,,,,,,1640.5606,1641.0531,1641.2944,1644.0798,space,2.769,,1644.0798,30,40,1645.0796,1645.0797,1645.0938,,,,0,32,32,32,1,175,105,,,,,,,,
,,6110daa2aefc2c078f8a7ae5,65af5a431502ba3ac8b61a52,2024-01-23_08h21.00.811,bars,2023.2.3,Win32,40,657b66ea316d21385b68909f,,,,,,,,,,,1645.0942,1646.0967,,,1646.59,1646.8301,,91,91,,,,,,,,,,,,,,,,bars/040.png,bars/mask005.png,,,,,,,,,,,,0,1,,,,,,,4,4,5,5,,,,,,,,,,,1646.0968,1646.5899,1646.8303,1653.7673,space,6.9209,,1653.7674,49,86,1654.7597,1654.7597,1654.7742,,,,0,33,33,33,1,140,5,,,,,,,,
,,6110daa2aefc2c078f8a7ae5,65af5a431502ba3ac8b61a52,2024-01-23_08h21.00.811,bars,2023.2.3,Win32,40,657b66ea316d21385b68909f,,,,,,,,,,,1654.7746,1655.7677,,,1656.26,1656.5016,,71,71,,,,,,,,,,,,,,,,bars/006.png,bars/mask005.png,,,,,,,,,,,,0,2,,,,,,,6,2,7,3,,,,,,,,,,,1655.7677,1656.26,1656.5016,1658.2151,space,1.6973,,1658.2152,36,29,1659.2115,1659.2115,1659.2265,,,,0,34,34,34,1,35,100,,,,,,,,
,,6110daa2aefc2c078f8a7ae5,65af5a431502ba3ac8b61a52,2024-01-23_08h21.00.811,bars,2023.2.3,Win32,40,657b66ea316d21385b68909f,,,,,,,,,,,1659.227,1660.2285,,,1660.7287,1660.979,,177,177,,,,,,,,,,,,,,,,bars/028.png,bars/mask008.png,,,,,,,,,,,,0,1,,,,,,,4,0,3,0,,,,,,,,,,,1660.2286,1660.7287,1660.9791,1663.4643,space,2.4732,,1663.4644,48,57,1664.4642,1664.4643,1664.4792,,,,0,35,35,35,1,45,120,,,,,,,,
,,6110daa2aefc2c078f8a7ae5,65af5a431502ba3ac8b61a52,2024-01-23_08h21.00.811,bars,2023.2.3,Win32,40,657b66ea316d21385b68909f,,,,,,,,,,,1664.4795,1665.4813,,,1665.9816,1666.2312,,49,49,,,,,,,,,,,,,,,,bars/004.png,bars/mask000.png,,,,,,,,,,,,1,1,,,,,,,6,0,6,1,,,,,,,,,,,1665.4815,1665.9816,1666.2313,1669.3165,space,3.0716,,1669.3166,24,76,1670.3166,1670.3167,1670.3303,,,,0,36,36,36,1,25,125,,,,,,,,
,,6110daa2aefc2c078f8a7ae5,65af5a431502ba3ac8b61a52,2024-01-23_08h21.00.811,bars,2023.2.3,Win32,40,657b66ea316d21385b68909f,,,,,,,,,,,1670.3306,1671.3338,,,1671.8341,1672.0842,,141,141,,,,,,,,,,,,,,,,bars/015.png,bars/mask001.png,,,,,,,,,,,,1,2,,,,,,,4,2,3,4,,,,,,,,,,,1671.3339,1671.834,1672.0842,1678.9207,space,6.8213,,1678.9208,31,19,1679.9211,1679.9212,1679.9377,,,,0,37,37,37,1,110,160,,,,,,,,
,,6110daa2aefc2c078f8a7ae5,65af5a431502ba3ac8b61a52,2024-01-23_08h21.00.811,bars,2023.2.3,Win32,40,657b66ea316d21385b68909f,,,,,,,,,,,1679.9381,1680.9385,,,1681.4386,1681.6885,,44,44,,,,,,,,,,,,,,,,bars/030.png,bars/mask008.png,,,,,,,,,,,,1,2,,,,,,,2,4,2,4,,,,,,,,,,,1680.9385,1681.4386,1681.6886,1685.8071,space,4.1023,,1685.8072,84,21,1686.8073,1686.8073,1686.8212,,,,0,38,38,38,1,140,65,,,,,,,,
,,6110daa2aefc2c078f8a7ae5,65af5a431502ba3ac8b61a52,2024-01-23_08h21.00.811,bars,2023.2.3,Win32,40,657b66ea316d21385b68909f,,,,,,,,,,,1686.8216,1687.8244,,,1688.325,1688.5747,,33,33,,,,,,,,,,,,,,,,bars/023.png,bars/mask004.png,,,,,,,,,,,,0,1,,,,,,,0,2,0,2,,,,,,,,,,,1687.8245,1688.325,1688.5748,1692.26,space,3.67,,1692.2601,13,82,1693.2605,1693.2605,1693.2762,,,,0,39,39,39,1,20,115,,,,,,,,
,,6110daa2aefc2c078f8a7ae5,65af5a431502ba3ac8b61a52,2024-01-23_08h21.00.811,bars,2023.2.3,Win32,40,657b66ea316d21385b68909f,,,,,,,,,,,1693.2768,1694.2776,,,1694.778,1695.028,,157,157,,,,,,,,,,,,,,,,bars/024.png,bars/mask002.png,,,,,,,,,,,,3,2,,,,,,,2,4,3,5,,,,,,,,,,,1694.2776,1694.7778,1695.028,1698.4299,space,3.3849,,1698.4299,37,13,1699.4298,1699.4298,1699.4455,,,,0,40,40,40,1,120,170,,,,,,,,
,,6110daa2aefc2c078f8a7ae5,65af5a431502ba3ac8b61a52,2024-01-23_08h21.00.811,bars,2023.2.3,Win32,40,657b66ea316d21385b68909f,,,,,,,,,,,1699.4461,1700.4467,,,1700.9474,1701.1978,,154,154,,,,,,,,,,,,,,,,bars/047.png,bars/mask008.png,,,,,,,,,,,,0,1,,,,,,,4,2,2,2,,,,,,,,,,,1700.4468,1700.9473,1701.1979,1704.9661,space,3.7524,,1704.9661,41,84,1705.9662,1705.9664,1705.9823,,,,0,41,41,41,1,15,70,,,,,,,,
,,6110daa2aefc2c078f8a7ae5,65af5a431502ba3ac8b61a52,2024-01-23_08h21.00.811,bars,2023.2.3,Win32,40,657b66ea316d21385b68909f,,,,,,,,,,,1705.9828,1706.9832,,,1707.4835,1707.7336,,33,33,,,,,,,,,,,,,,,,bars/020.png,bars/mask006.png,,,,,,,,,,,,0,2,,,,,,,6,0,5,0,,,,,,,,,,,1706.9833,1707.4834,1707.7336,1711.0355,space,3.2834,,1711.0356,82,43,1712.0358,1712.0358,1712.0522,,,,0,42,42,42,1,115,170,,,,,,,,
,,6110daa2aefc2c078f8a7ae5,65af5a431502ba3ac8b61a52,2024-01-23_08h21.00.811,bars,2023.2.3,Win32,40,657b66ea316d21385b68909f,,,,,,,,,,,1712.0527,1713.0525,,,1713.5531,1713.8029,,123,123,,,,,,,,,,,,,,,,bars/045.png,bars/mask009.png,,,,,,,,,,,,2,1,,,,,,,8,0,8,0,,,,,,,,,,,1713.0525,1713.553,1713.8029,1717.9052,space,4.0903,,1717.9053,23,67,1718.9052,1718.9052,1718.9221,,,,0,43,43,43,1,100,10,,,,,,,,
,,6110daa2aefc2c078f8a7ae5,65af5a431502ba3ac8b61a52,2024-01-23_08h21.00.811,bars,2023.2.3,Win32,40,657b66ea316d21385b68909f,,,,,,,,,,,1718.9227,1719.9228,,,1720.4229,1720.6728,,35,35,,,,,,,,,,,,,,,,bars/043.png,bars/mask007.png,,,,,,,,,,,,6,1,,,,,,,6,0,7,0,,,,,,,,,,,1719.9229,1720.4228,1720.6728,1724.508,space,3.8191,,1724.508,5,85,1725.5082,1725.5082,1725.5232,,,,0,44,44,44,1,30,130,,,,,,,,
,,6110daa2aefc2c078f8a7ae5,65af5a431502ba3ac8b61a52,2024-01-23_08h21.00.811,bars,2023.2.3,Win32,40,657b66ea316d21385b68909f,,,,,,,,,,,1725.5235,1726.5256,,,1727.026,1727.2758,,167,167,,,,,,,,,,,,,,,,bars/041.png,bars/mask001.png,,,,,,,,,,,,0,1,,,,,,,8,0,9,0,,,,,,,,,,,1726.5256,1727.0259,1727.2759,1730.8277,space,3.5359,,1730.8279,33,82,1731.8283,1731.8283,1731.8423,,,,0,45,45,45,1,20,85,,,,,,,,
,,6110daa2aefc2c078f8a7ae5,65af5a431502ba3ac8b61a52,2024-01-23_08h21.00.811,bars,2023.2.3,Win32,40,657b66ea316d21385b68909f,,,,,,,,,,,1731.8426,1732.8457,,,1733.3453,1733.5956,,163,163,,,,,,,,,,,,,,,,bars/039.png,bars/mask001.png,,,,,,,,,,,,5,1,,,,,,,10,2,8,2,,,,,,,,,,,1732.8457,1733.3452,1733.5957,1739.3314,space,5.7197,,1739.3315,12,58,1740.3316,1740.3316,1740.3469,,,,0,46,46,46,1,175,105,,,,,,,,
,,6110daa2aefc2c078f8a7ae5,65af5a431502ba3ac8b61a52,2024-01-23_08h21.00.811,bars,2023.2.3,Win32,40,657b66ea316d21385b68909f,,,,,,,,,,,1740.3473,1741.3488,,,1741.8493,1742.0994,,164,164,,,,,,,,,,,,,,,,bars/005.png,bars/mask008.png,,,,,,,,,,,,1,2,,,,,,,8,4,7,4,,,,,,,,,,,1741.3488,1741.8493,1742.0994,1746.9016,space,4.7867,,1746.9017,26,24,1747.902,1747.9021,1747.9185,,,,0,47,47,47,1,10,140,,,,,,,,
,,6110daa2aefc2c078f8a7ae5,65af5a431502ba3ac8b61a52,2024-01-23_08h21.00.811,bars,2023.2.3,Win32,40,657b66ea316d21385b68909f,,,,,,,,,,,1747.9189,1748.9195,,,1749.4195,1749.6693,,47,47,,,,,,,,,,,,,,,,bars/023.png,bars/mask002.png,,,,,,,,,,,,0,1,,,,,,,6,6,5,5,,,,,,,,,,,1748.9195,1749.4194,1749.6694,1755.4554,space,5.7703,,1755.4554,27,68,1756.4555,1756.4555,1756.4715,,,,0,48,48,48,1,20,115,,,,,,,,
,,6110daa2aefc2c078f8a7ae5,65af5a431502ba3ac8b61a52,2024-01-23_08h21.00.811,bars,2023.2.3,Win32,40,657b66ea316d21385b68909f,,,,,,,,,,,1756.4721,1757.4726,,,1757.9732,1758.2229,,149,149,,,,,,,,,,,,,,,,bars/021.png,bars/mask005.png,,,,,,,,,,,,3,1,,,,,,,4,4,4,5,,,,,,,,,,,1757.4727,1757.9732,1758.223,1760.7249,space,2.4885,,1760.725,6,79,1761.7247,1761.7248,1761.7389,,,,0,49,49,49,1,155,70,,,,,,,,
,,6110daa2aefc2c078f8a7ae5,65af5a431502ba3ac8b61a52,2024-01-23_08h21.00.811,bars,2023.2.3,Win32,40,657b66ea316d21385b68909f,,,,,,,,,,,,,,,,,,,,,,,,,,,,,,,,,,,,,,,,,,,,,,,,,,,,,,,,,,,,,,,,,,,,,,,,,,,,,,,,,,,,,,,,,,,,,1761.7392,1821.7355,0,2,2,2,1,sequence_tables/blk000.csv
,,6110daa2aefc2c078f8a7ae5,65af5a431502ba3ac8b61a52,2024-01-23_08h21.00.811,bars,2023.2.3,Win32,40,657b66ea316d21385b68909f,,,,,,,,,,,1848.4525,1849.4389,,,1849.9396,1850.1893,,43,43,,,,,,,,,,,,,,,,bars/012.png,bars/mask001.png,,,,,,,,,,,,0,2,,,,,,,5,8,5,7,,,,,,1821.7502,1848.4311,space,26.667,,1849.4389,1849.9395,1850.1894,1854.5421,space,4.3364,,1854.5422,47,28,1855.5419,1855.542,1855.5579,,,,0,0,0,0,1,90,15,,,,,,,,
,,6110daa2aefc2c078f8a7ae5,65af5a431502ba3ac8b61a52,2024-01-23_08h21.00.811,bars,2023.2.3,Win32,40,657b66ea316d21385b68909f,,,,,,,,,,,1855.5583,1856.5591,,,1857.0592,1857.3098,,120,120,,,,,,,,,,,,,,,,bars/034.png,bars/mask001.png,,,,,,,,,,,,3,1,,,,,,,3,6,4,8,,,,,,,,,,,1856.5592,1857.0592,1857.3099,1860.9117,space,3.5859,,1860.9117,5,55,1861.9113,1861.9114,1861.9266,,,,0,1,1,1,1,125,65,,,,,,,,
,,6110daa2aefc2c078f8a7ae5,65af5a431502ba3ac8b61a52,2024-01-23_08h21.00.811,bars,2023.2.3,Win32,40,657b66ea316d21385b68909f,,,,,,,,,,,1861.927,1862.9285,,,1863.4285,1863.672,,154,154,,,,,,,,,,,,,,,,bars/013.png,bars/mask002.png,,,,,,,,,,,,0,2,,,,,,,5,8,5,9,,,,,,,,,,,1862.9285,1863.4284,1863.672,1870.9161,space,7.2209,,1870.9161,79,36,1871.9081,1871.9081,1871.9247,,,,0,2,2,2,1,75,10,,,,,,,,
,,6110daa2aefc2c078f8a7ae5,65af5a431502ba3ac8b61a52,2024-01-23_08h21.00.811,bars,2023.2.3,Win32,40,657b66ea316d21385b68909f,,,,,,,,,,,1871.925,1872.9157,,,1873.4162,1873.659,,133,-47,,,,,,,,,,,,,,,,bars/049.png,bars/mask009.png,,,,,,,,,,,,2,2,,,,,,,7,6,7,5,,,,,,,,,,,1872.9157,1873.4162,1873.659,1877.85,space,4.1673,,1877.8501,27,18,1878.8522,1878.8522,1878.8658,,,,0,3,3,3,1,160,115,,,,,,,,
,,6110daa2aefc2c078f8a7ae5,65af5a431502ba3ac8b61a52,2024-01-23_08h21.00.811,bars,2023.2.3,Win32,40,657b66ea316d21385b68909f,,,,,,,,,,,1878.8662,1879.8618,,,1880.3532,1880.6032,,54,54,,,,,,,,,,,,,,,,bars/046.png,bars/mask000.png,,,,,,,,,,,,0,2,,,,,,,9,4,8,2,,,,,,,,,,,1879.8619,1880.3531,1880.6033,1889.6925,space,9.0727,,1889.6926,79,31,1890.6833,1890.6833,1890.6974,,,,0,4,4,4,1,155,85,,,,,,,,
,,6110daa2aefc2c078f8a7ae5,65af5a431502ba3ac8b61a52,2024-01-23_08h21.00.811,bars,2023.2.3,Win32,40,657b66ea316d21385b68909f,,,,,,,,,,,1890.6978,1891.6915,,,1892.1914,1892.434,,44,44,,,,,,,,,,,,,,,,bars/016.png,bars/mask006.png,,,,,,,,,,,,7,1,,,,,,,7,6,8,4,,,,,,,,,,,1891.6915,1892.1913,1892.4341,1895.9108,space,3.4527,,1895.9108,4,59,1896.9106,1896.9106,1896.9261,,,,0,5,5,5,1,40,165,,,,,,,,
,,6110daa2aefc2c078f8a7ae5,65af5a431502ba3ac8b61a52,2024-01-23_08h21.00.811,bars,2023.2.3,Win32,40,657b66ea316d21385b68909f,,,,,,,,,,,1896.9266,1897.9275,,,1898.4198,1898.6613,,110,110,,,,,,,,,,,,,,,,bars/027.png,bars/mask006.png,,,,,,,,,,,,9,1,,,,,,,9,8,9,7,,,,,,,,,,,1897.9276,1898.4198,1898.6614,1904.3977,space,5.7201,,1904.3977,0,60,1905.3898,1905.3899,1905.4043,,,,0,6,6,6,1,110,50,,,,,,,,
,,6110daa2aefc2c078f8a7ae5,65af5a431502ba3ac8b61a52,2024-01-23_08h21.00.811,bars,2023.2.3,Win32,40,657b66ea316d21385b68909f,,,,,,,,,,,1905.4046,1906.398,,,1906.8985,1907.1485,,44,44,,,,,,,,,,,,,,,,bars/015.png,bars/mask006.png,,,,,,,,,,,,0,2,,,,,,,7,10,7,10,,,,,,,,,,,1906.3981,1906.8985,1907.1485,1911.835,space,4.6701,,1911.8351,66,64,1912.8346,1912.8346,1912.85,,,,0,7,7,7,1,110,160,,,,,,,,
,,6110daa2aefc2c078f8a7ae5,65af5a431502ba3ac8b61a52,2024-01-23_08h21.00.811,bars,2023.2.3,Win32,40,657b66ea316d21385b68909f,,,,,,,,,,,1912.8504,1913.8514,,,1914.3504,1914.5939,,140,140,,,,,,,,,,,,,,,,bars/046.png,bars/mask006.png,,,,,,,,,,,,2,1,,,,,,,5,10,4,9,,,,,,,,,,,1913.8514,1914.3503,1914.5939,1921.2221,space,6.6038,,1921.2222,15,55,1922.2218,1922.2218,1922.2377,,,,0,8,8,8,1,155,85,,,,,,,,
,,6110daa2aefc2c078f8a7ae5,65af5a431502ba3ac8b61a52,2024-01-23_08h21.00.811,bars,2023.2.3,Win32,40,657b66ea316d21385b68909f,,,,,,,,,,,1922.2381,1923.239,,,1923.7395,1923.9815,,132,132,,,,,,,,,,,,,,,,bars/022.png,bars/mask007.png,,,,,,,,,,,,0,1,,,,,,,7,8,7,8,,,,,,,,,,,1923.239,1923.7394,1923.9816,1932.1439,space,8.138,,1932.1439,37,68,1933.1436,1933.1437,1933.1583,,,,0,9,9,9,1,95,20,,,,,,,,
,,6110daa2aefc2c078f8a7ae5,65af5a431502ba3ac8b61a52,2024-01-23_08h21.00.811,bars,2023.2.3,Win32,40,657b66ea316d21385b68909f,,,,,,,,,,,1933.1587,1934.153,,,1934.644,1934.8944,,156,156,,,,,,,,,,,,,,,,bars/020.png,bars/mask001.png,,,,,,,,,,,,3,2,,,,,,,9,6,10,6,,,,,,,,,,,1934.1531,1934.644,1934.8944,1949.6608,space,14.7497,,1949.661,41,14,1950.6604,1950.6605,1950.6767,,,,0,10,10,10,1,115,170,,,,,,,,
,,6110daa2aefc2c078f8a7ae5,65af5a431502ba3ac8b61a52,2024-01-23_08h21.00.811,bars,2023.2.3,Win32,40,657b66ea316d21385b68909f,,,,,,,,,,,1950.6772,1951.6676,,,1952.1694,1952.4193,,104,104,,,,,,,,,,,,,,,,bars/043.png,bars/mask001.png,,,,,,,,,,,,1,2,,,,,,,10,8,10,7,,,,,,,,,,,1951.6677,1952.1693,1952.4193,1955.3883,space,2.9524,,1955.3884,74,26,1956.3797,1956.3797,1956.394,,,,0,11,11,11,1,30,130,,,,,,,,
,,6110daa2aefc2c078f8a7ae5,65af5a431502ba3ac8b61a52,2024-01-23_08h21.00.811,bars,2023.2.3,Win32,40,657b66ea316d21385b68909f,,,,,,,,,,,1956.3946,1957.3879,,,1957.888,1958.1383,,21,21,,,,,,,,,,,,,,,,bars/004.png,bars/mask005.png,,,,,,,,,,,,9,1,,,,,,,8,10,10,10,,,,,,,,,,,1957.3879,1957.8879,1958.1384,1961.1753,space,3.0204,,1961.1754,4,76,1962.1656,1962.1656,1962.1806,,,,0,12,12,12,1,25,125,,,,,,,,
,,6110daa2aefc2c078f8a7ae5,65af5a431502ba3ac8b61a52,2024-01-23_08h21.00.811,bars,2023.2.3,Win32,40,657b66ea316d21385b68909f,,,,,,,,,,,1962.181,1963.1739,,,1963.6737,1963.9245,,126,126,,,,,,,,,,,,,,,,bars/002.png,bars/mask001.png,,,,,,,,,,,,6,1,,,,,,,6,8,7,8,,,,,,,,,,,1963.1739,1963.6737,1963.9245,1966.5596,space,2.619,,1966.5597,4,41,1967.5591,1967.5591,1967.5732,,,,0,13,13,13,1,130,85,,,,,,,,
,,6110daa2aefc2c078f8a7ae5,65af5a431502ba3ac8b61a52,2024-01-23_08h21.00.811,bars,2023.2.3,Win32,40,657b66ea316d21385b68909f,,,,,,,,,,,1967.5735,1968.5764,,,1969.0764,1969.3265,,148,148,,,,,,,,,,,,,,,,bars/046.png,bars/mask003.png,,,,,,,,,,,,1,1,,,,,,,4,10,1,10,,,,,,,,,,,1968.5766,1969.0764,1969.3266,1974.413,space,5.0699,,1974.413,7,63,1975.4127,1975.4127,1975.4264,,,,0,14,14,14,1,155,85,,,,,,,,
,,6110daa2aefc2c078f8a7ae5,65af5a431502ba3ac8b61a52,2024-01-23_08h21.00.811,bars,2023.2.3,Win32,40,657b66ea316d21385b68909f,,,,,,,,,,,1975.4267,1976.4223,,,1976.914,1977.1555,,124,124,,,,,,,,,,,,,,,,bars/048.png,bars/mask000.png,,,,,,,,,,,,0,2,,,,,,,6,8,7,7,,,,,,,,,,,1976.4223,1976.914,1977.1556,1980.9828,space,3.8026,,1980.9828,74,51,1981.9823,1981.9824,1981.9979,,,,0,15,15,15,1,50,175,,,,,,,,
,,6110daa2aefc2c078f8a7ae5,65af5a431502ba3ac8b61a52,2024-01-23_08h21.00.811,bars,2023.2.3,Win32,40,657b66ea316d21385b68909f,,,,,,,,,,,1981.9984,1982.9997,,,1983.5004,1983.7501,,137,137,,,,,,,,,,,,,,,,bars/026.png,bars/mask007.png,,,,,,,,,,,,0,2,,,,,,,4,6,3,5,,,,,,,,,,,1982.9998,1983.5001,1983.7502,1987.9858,space,4.2195,,1987.9859,78,52,1988.9857,1988.9858,1988.9997,,,,0,16,16,16,1,35,85,,,,,,,,
,,6110daa2aefc2c078f8a7ae5,65af5a431502ba3ac8b61a52,2024-01-23_08h21.00.811,bars,2023.2.3,Win32,40,657b66ea316d21385b68909f,,,,,,,,,,,1989.0001,1990.0026,,,1990.5029,1990.7532,,69,69,,,,,,,,,,,,,,,,bars/038.png,bars/mask001.png,,,,,,,,,,,,8,2,,,,,,,6,8,6,8,,,,,,,,,,,1990.0026,1990.5028,1990.7532,1996.1744,space,5.4045,,1996.1744,84,1,1997.1728,1997.1729,1997.1874,,,,0,17,17,17,1,165,70,,,,,,,,
,,6110daa2aefc2c078f8a7ae5,65af5a431502ba3ac8b61a52,2024-01-23_08h21.00.811,bars,2023.2.3,Win32,40,657b66ea316d21385b68909f,,,,,,,,,,,1997.1878,1998.1899,,,1998.6901,1998.9401,,21,21,,,,,,,,,,,,,,,,bars/009.png,bars/mask008.png,,,,,,,,,,,,5,1,,,,,,,8,10,6,8,,,,,,,,,,,1998.1899,1998.69,1998.9402,2002.9758,space,4.0193,,2002.9759,6,84,2003.9678,2003.9679,2003.9831,,,,0,18,18,18,1,15,105,,,,,,,,
,,6110daa2aefc2c078f8a7ae5,65af5a431502ba3ac8b61a52,2024-01-23_08h21.00.811,bars,2023.2.3,Win32,40,657b66ea316d21385b68909f,,,,,,,,,,,2003.9835,2004.985,,,2005.4765,2005.7263,,46,46,,,,,,,,,,,,,,,,bars/004.png,bars/mask003.png,,,,,,,,,,,,2,1,,,,,,,6,8,6,9,,,,,,,,,,,2004.9851,2005.4764,2005.7264,2008.7284,space,2.9856,,2008.7285,21,79,2009.7282,2009.7283,2009.7425,,,,0,19,19,19,1,25,125,,,,,,,,
,,6110daa2aefc2c078f8a7ae5,65af5a431502ba3ac8b61a52,2024-01-23_08h21.00.811,bars,2023.2.3,Win32,40,657b66ea316d21385b68909f,,,,,,,,,,,2009.7428,2010.7382,,,2011.2291,2011.471,,157,157,,,,,,,,,,,,,,,,bars/033.png,bars/mask006.png,,,,,,,,,,,,9,2,,,,,,,4,10,5,10,,,,,,,,,,,2010.7383,2011.2291,2011.471,2014.6811,space,3.1861,,2014.6812,48,2,2015.6732,2015.6732,2015.6898,,,,0,20,20,20,1,25,155,,,,,,,,
,,6110daa2aefc2c078f8a7ae5,65af5a431502ba3ac8b61a52,2024-01-23_08h21.00.811,bars,2023.2.3,Win32,40,657b66ea316d21385b68909f,,,,,,,,,,,2015.6903,2016.6813,,,2017.174,2017.4152,,112,112,,,,,,,,,,,,,,,,bars/033.png,bars/mask001.png,,,,,,,,,,,,0,2,,,,,,,2,10,1,9,,,,,,,,,,,2016.6813,2017.1739,2017.4153,2021.7012,space,4.2698,,2021.7014,87,43,2022.7008,2022.701,2022.7149,,,,0,21,21,21,1,25,155,,,,,,,,
,,6110daa2aefc2c078f8a7ae5,65af5a431502ba3ac8b61a52,2024-01-23_08h21.00.811,bars,2023.2.3,Win32,40,657b66ea316d21385b68909f,,,,,,,,,,,2022.7152,2023.7174,,,2024.2183,2024.4683,,112,112,,,,,,,,,,,,,,,,bars/043.png,bars/mask009.png,,,,,,,,,,,,3,2,,,,,,,4,8,4,8,,,,,,,,,,,2023.7174,2024.2182,2024.4684,2031.3053,space,6.821,,2031.3054,82,18,2032.2972,2032.2973,2032.3121,,,,0,22,22,22,1,30,130,,,,,,,,
,,6110daa2aefc2c078f8a7ae5,65af5a431502ba3ac8b61a52,2024-01-23_08h21.00.811,bars,2023.2.3,Win32,40,657b66ea316d21385b68909f,,,,,,,,,,,2032.3124,2033.3056,,,2033.7984,2034.0562,,161,161,,,,,,,,,,,,,,,,bars/013.png,bars/mask007.png,,,,,,,,,,,,0,2,,,,,,,6,6,5,6,,,,,,,,,,,2033.3057,2033.7984,2034.0563,2038.7503,space,4.6765,,2038.7504,86,29,2039.7584,2039.7584,2039.773,,,,0,23,23,23,1,75,10,,,,,,,,
,,6110daa2aefc2c078f8a7ae5,65af5a431502ba3ac8b61a52,2024-01-23_08h21.00.811,bars,2023.2.3,Win32,40,657b66ea316d21385b68909f,,,,,,,,,,,2039.7734,2040.7678,,,2041.2682,2041.5261,,36,36,,,,,,,,,,,,,,,,bars/049.png,bars/mask006.png,,,,,,,,,,,,0,1,,,,,,,4,8,2,10,,,,,,,,,,,2040.7679,2041.2681,2041.5262,2047.1793,space,5.6369,,2047.1794,56,79,2048.179,2048.1791,2048.195,,,,0,24,24,24,1,160,115,,,,,,,,
,,6110daa2aefc2c078f8a7ae5,65af5a431502ba3ac8b61a52,2024-01-23_08h21.00.811,bars,2023.2.3,Win32,40,657b66ea316d21385b68909f,,,,,,,,,,,2048.1953,2049.1959,,,2049.6963,2049.9463,,124,124,,,,,,,,,,,,,,,,bars/036.png,bars/mask007.png,,,,,,,,,,,,2,1,,,,,,,6,10,6,10,,,,,,,,,,,2049.1959,2049.6963,2049.9463,2054.2155,space,4.2529,,2054.2155,21,76,2055.2074,2055.2075,2055.2215,,,,0,25,25,25,1,145,20,,,,,,,,
,,6110daa2aefc2c078f8a7ae5,65af5a431502ba3ac8b61a52,2024-01-23_08h21.00.811,bars,2023.2.3,Win32,40,657b66ea316d21385b68909f,,,,,,,,,,,2055.2219,2056.2154,,,2056.7162,2056.9585,,142,142,,,,,,,,,,,,,,,,bars/033.png,bars/mask002.png,,,,,,,,,,,,5,2,,,,,,,4,10,4,9,,,,,,,,,,,2056.2155,2056.7161,2056.9585,2065.504,space,8.5216,,2065.5041,63,13,2066.5034,2066.5035,2066.5214,,,,0,26,26,26,1,25,155,,,,,,,,
,,6110daa2aefc2c078f8a7ae5,65af5a431502ba3ac8b61a52,2024-01-23_08h21.00.811,bars,2023.2.3,Win32,40,657b66ea316d21385b68909f,,,,,,,,,,,2066.5219,2067.5132,,,2068.0044,2068.2468,,54,54,,,,,,,,,,,,,,,,bars/035.png,bars/mask003.png,,,,,,,,,,,,6,2,,,,,,,6,8,6,8,,,,,,,,,,,2067.5132,2068.0043,2068.2468,2073.9078,space,5.6369,,2073.9078,59,6,2074.9075,2074.9075,2074.9223,,,,0,27,27,27,1,175,60,,,,,,,,
,,6110daa2aefc2c078f8a7ae5,65af5a431502ba3ac8b61a52,2024-01-23_08h21.00.811,bars,2023.2.3,Win32,40,657b66ea316d21385b68909f,,,,,,,,,,,2074.9227,2075.9246,,,2076.4189,2076.6584,,148,148,,,,,,,,,,,,,,,,bars/030.png,bars/mask004.png,,,,,,,,,,,,7,1,,,,,,,8,6,9,7,,,,,,,,,,,2075.9246,2076.4188,2076.6584,2081.2611,space,4.5864,,2081.2612,8,83,2082.2613,2082.2613,2082.2777,,,,0,28,28,28,1,140,65,,,,,,,,
,,6110daa2aefc2c078f8a7ae5,65af5a431502ba3ac8b61a52,2024-01-23_08h21.00.811,bars,2023.2.3,Win32,40,657b66ea316d21385b68909f,,,,,,,,,,,2082.2781,2083.2779,,,2083.7781,2084.0283,,102,102,,,,,,,,,,,,,,,,bars/040.png,bars/mask009.png,,,,,,,,,,,,0,1,,,,,,,10,8,9,8,,,,,,,,,,,2083.278,2083.778,2084.0284,2086.8802,space,2.8355,,2086.8804,38,83,2087.8805,2087.8806,2087.8946,,,,0,29,29,29,1,140,5,,,,,,,,
,,6110daa2aefc2c078f8a7ae5,65af5a431502ba3ac8b61a52,2024-01-23_08h21.00.811,bars,2023.2.3,Win32,40,657b66ea316d21385b68909f,,,,,,,,,,,2087.8949,2088.8971,,,2089.3981,2089.6485,,125,125,,,,,,,,,,,,,,,,bars/043.png,bars/mask004.png,,,,,,,,,,,,8,2,,,,,,,8,10,7,10,,,,,,,,,,,2088.8972,2089.3981,2089.6486,2093.001,space,3.337,,2093.001,85,5,2093.9921,2093.9921,2094.0075,,,,0,30,30,30,1,30,130,,,,,,,,
,,6110daa2aefc2c078f8a7ae5,65af5a431502ba3ac8b61a52,2024-01-23_08h21.00.811,bars,2023.2.3,Win32,40,657b66ea316d21385b68909f,,,,,,,,,,,2094.0082,2095.0002,,,2095.5006,2095.7512,,69,69,,,,,,,,,,,,,,,,bars/008.png,bars/mask002.png,,,,,,,,,,,,0,1,,,,,,,10,10,9,10,,,,,,,,,,,2095.0003,2095.5005,2095.7512,2100.7371,space,4.9701,,2100.7371,41,69,2101.7287,2101.7287,2101.7441,,,,0,31,31,31,1,110,0,,,,,,,,
,,6110daa2aefc2c078f8a7ae5,65af5a431502ba3ac8b61a52,2024-01-23_08h21.00.811,bars,2023.2.3,Win32,40,657b66ea316d21385b68909f,,,,,,,,,,,2101.7448,2102.7458,,,2103.2538,2103.5041,,81,81,,,,,,,,,,,,,,,,bars/020.png,bars/mask003.png,,,,,,,,,,,,0,1,,,,,,,10,10,10,8,,,,,,,,,,,2102.7459,2103.2537,2103.5041,2107.0892,space,3.5689,,2107.0892,34,89,2108.0816,2108.0816,2108.0947,,,,0,32,32,32,1,115,170,,,,,,,,
,,6110daa2aefc2c078f8a7ae5,65af5a431502ba3ac8b61a52,2024-01-23_08h21.00.811,bars,2023.2.3,Win32,40,657b66ea316d21385b68909f,,,,,,,,,,,2108.0952,2109.0864,,,2109.5823,2109.8235,,105,105,,,,,,,,,,,,,,,,bars/044.png,bars/mask000.png,,,,,,,,,,,,0,1,,,,,,,8,8,7,10,,,,,,,,,,,2109.0864,2109.5822,2109.8236,2113.7509,space,3.9089,,2113.7509,30,50,2114.7592,2114.7592,2114.7731,,,,0,33,33,33,1,75,155,,,,,,,,
,,6110daa2aefc2c078f8a7ae5,65af5a431502ba3ac8b61a52,2024-01-23_08h21.00.811,bars,2023.2.3,Win32,40,657b66ea316d21385b68909f,,,,,,,,,,,2114.7734,2115.7758,,,2116.2768,2116.5278,,96,96,,,,,,,,,,,,,,,,bars/003.png,bars/mask004.png,,,,,,,,,,,,0,2,,,,,,,6,6,8,6,,,,,,,,,,,2115.7758,2116.2767,2116.5282,2119.2449,space,2.7017,,2119.245,71,44,2120.2447,2120.2447,2120.2596,,,,0,34,34,34,1,25,140,,,,,,,,
,,6110daa2aefc2c078f8a7ae5,65af5a431502ba3ac8b61a52,2024-01-23_08h21.00.811,bars,2023.2.3,Win32,40,657b66ea316d21385b68909f,,,,,,,,,,,2120.2601,2121.2543,,,2121.7622,2122.0122,,38,38,,,,,,,,,,,,,,,,bars/015.png,bars/mask000.png,,,,,,,,,,,,0,2,,,,,,,4,8,3,9,,,,,,,,,,,2121.2544,2121.7622,2122.0122,2124.4643,space,2.4357,,2124.4643,72,58,2125.4659,2125.466,2125.4804,,,,0,35,35,35,1,110,160,,,,,,,,
,,6110daa2aefc2c078f8a7ae5,65af5a431502ba3ac8b61a52,2024-01-23_08h21.00.811,bars,2023.2.3,Win32,40,657b66ea316d21385b68909f,,,,,,,,,,,2125.4807,2126.4732,,,2126.9647,2127.2068,,144,144,,,,,,,,,,,,,,,,bars/049.png,bars/mask006.png,,,,,,,,,,,,4,1,,,,,,,6,6,8,5,,,,,,,,,,,2126.4733,2126.9646,2127.2069,2131.9339,space,4.7033,,2131.9341,16,29,2132.9337,2132.9338,2132.9487,,,,0,36,36,36,1,160,115,,,,,,,,
,,6110daa2aefc2c078f8a7ae5,65af5a431502ba3ac8b61a52,2024-01-23_08h21.00.811,bars,2023.2.3,Win32,40,657b66ea316d21385b68909f,,,,,,,,,,,2132.949,2133.9509,,,2134.4514,2134.6936,,160,-20,,,,,,,,,,,,,,,,bars/025.png,bars/mask004.png,,,,,,,,,,,,0,1,,,,,,,4,8,4,10,,,,,,,,,,,2133.951,2134.4514,2134.6937,2140.464,space,5.743,,2140.464,55,60,2141.4638,2141.4638,2141.4854,,,,0,37,37,37,1,105,40,,,,,,,,
,,6110daa2aefc2c078f8a7ae5,65af5a431502ba3ac8b61a52,2024-01-23_08h21.00.811,bars,2023.2.3,Win32,40,657b66ea316d21385b68909f,,,,,,,,,,,2141.4858,2142.4882,,,2142.9806,2143.2216,,113,113,,,,,,,,,,,,,,,,bars/041.png,bars/mask006.png,,,,,,,,,,,,0,2,,,,,,,2,6,3,5,,,,,,,,,,,2142.4883,2142.9806,2143.2218,2146.2909,space,3.0528,,2146.291,87,28,2147.2901,2147.2901,2147.3072,,,,0,38,38,38,1,20,85,,,,,,,,
,,6110daa2aefc2c078f8a7ae5,65af5a431502ba3ac8b61a52,2024-01-23_08h21.00.811,bars,2023.2.3,Win32,40,657b66ea316d21385b68909f,,,,,,,,,,,2147.3076,2148.3073,,,2148.808,2149.05,,58,58,,,,,,,,,,,,,,,,bars/004.png,bars/mask005.png,,,,,,,,,,,,0,1,,,,,,,0,4,0,3,,,,,,,,,,,2148.3073,2148.8079,2149.0501,2151.1097,space,2.0352,,2151.1097,33,67,2152.1016,2152.1016,2152.1185,,,,0,39,39,39,1,25,125,,,,,,,,
,,6110daa2aefc2c078f8a7ae5,65af5a431502ba3ac8b61a52,2024-01-23_08h21.00.811,bars,2023.2.3,Win32,40,657b66ea316d21385b68909f,,,,,,,,,,,2152.119,2153.1096,,,2153.6022,2153.8432,,35,35,,,,,,,,,,,,,,,,bars/005.png,bars/mask007.png,,,,,,,,,,,,0,1,,,,,,,2,2,1,2,,,,,,,,,,,2153.1096,2153.6022,2153.8432,2157.5463,space,3.686,,2157.5464,25,75,2158.5376,2158.5377,2158.5522,,,,0,40,40,40,1,10,140,,,,,,,,
,,6110daa2aefc2c078f8a7ae5,65af5a431502ba3ac8b61a52,2024-01-23_08h21.00.811,bars,2023.2.3,Win32,40,657b66ea316d21385b68909f,,,,,,,,,,,2158.5526,2159.5475,,,2160.0386,2160.2887,,119,119,,,,,,,,,,,,,,,,bars/039.png,bars/mask004.png,,,,,,,,,,,,2,2,,,,,,,4,4,4,3,,,,,,,,,,,2159.5478,2160.0385,2160.2887,2164.8575,space,4.5578,,2164.8575,56,14,2165.8578,2165.8579,2165.8731,,,,0,41,41,41,1,175,105,,,,,,,,
,,6110daa2aefc2c078f8a7ae5,65af5a431502ba3ac8b61a52,2024-01-23_08h21.00.811,bars,2023.2.3,Win32,40,657b66ea316d21385b68909f,,,,,,,,,,,2165.8738,2166.875,,,2167.3753,2167.6254,,70,70,,,,,,,,,,,,,,,,bars/011.png,bars/mask005.png,,,,,,,,,,,,3,2,,,,,,,2,6,3,5,,,,,,,,,,,2166.8751,2167.3752,2167.6254,2173.6616,space,6.0202,,2173.6617,90,15,2174.6617,2174.6618,2174.676,,,,0,42,42,42,1,160,85,,,,,,,,
,,6110daa2aefc2c078f8a7ae5,65af5a431502ba3ac8b61a52,2024-01-23_08h21.00.811,bars,2023.2.3,Win32,40,657b66ea316d21385b68909f,,,,,,,,,,,2174.6763,2175.6795,,,2176.1792,2176.4292,,74,74,,,,,,,,,,,,,,,,bars/010.png,bars/mask004.png,,,,,,,,,,,,1,2,,,,,,,0,4,0,3,,,,,,,,,,,2175.6796,2176.1792,2176.4293,2180.0811,space,3.6358,,2180.0812,89,19,2181.0813,2181.0814,2181.0947,,,,0,43,43,43,1,165,55,,,,,,,,
,,6110daa2aefc2c078f8a7ae5,65af5a431502ba3ac8b61a52,2024-01-23_08h21.00.811,bars,2023.2.3,Win32,40,657b66ea316d21385b68909f,,,,,,,,,,,2181.095,2182.0985,,,2182.5987,2182.85,,66,66,,,,,,,,,,,,,,,,bars/029.png,bars/mask002.png,,,,,,,,,,,,1,2,,,,,,,2,2,0,2,,,,,,,,,,,2182.0986,2182.5986,2182.85,2187.0677,space,4.2041,,2187.0677,24,21,2188.0678,2188.0679,2188.082,,,,0,44,44,44,1,90,45,,,,,,,,
,,6110daa2aefc2c078f8a7ae5,65af5a431502ba3ac8b61a52,2024-01-23_08h21.00.811,bars,2023.2.3,Win32,40,657b66ea316d21385b68909f,,,,,,,,,,,2188.0823,2189.085,,,2189.5853,2189.8354,,111,111,,,,,,,,,,,,,,,,bars/033.png,bars/mask001.png,,,,,,,,,,,,0,2,,,,,,,4,0,5,1,,,,,,,,,,,2189.085,2189.5852,2189.8355,2192.4204,space,2.5759,,2192.4204,86,44,2193.4202,2193.4203,2193.4342,,,,0,45,45,45,1,25,155,,,,,,,,
,,6110daa2aefc2c078f8a7ae5,65af5a431502ba3ac8b61a52,2024-01-23_08h21.00.811,bars,2023.2.3,Win32,40,657b66ea316d21385b68909f,,,,,,,,,,,2193.4345,2194.4374,,,2194.9376,2195.1877,,50,50,,,,,,,,,,,,,,,,bars/039.png,bars/mask002.png,,,,,,,,,,,,0,2,,,,,,,2,0,2,1,,,,,,,,,,,2194.4375,2194.9376,2195.1878,2198.556,space,3.3582,,2198.5561,55,55,2199.5565,2199.5565,2199.57,,,,0,46,46,46,1,175,105,,,,,,,,
,,6110daa2aefc2c078f8a7ae5,65af5a431502ba3ac8b61a52,2024-01-23_08h21.00.811,bars,2023.2.3,Win32,40,657b66ea316d21385b68909f,,,,,,,,,,,2199.5703,2200.5738,,,2201.0742,2201.3241,,63,63,,,,,,,,,,,,,,,,bars/041.png,bars/mask004.png,,,,,,,,,,,,1,2,,,,,,,0,2,1,2,,,,,,,,,,,2200.5739,2201.074,2201.3244,2206.077,space,4.7361,,2206.0772,43,22,2207.0765,2207.0765,2207.0902,,,,0,47,47,47,1,20,85,,,,,,,,
,,6110daa2aefc2c078f8a7ae5,65af5a431502ba3ac8b61a52,2024-01-23_08h21.00.811,bars,2023.2.3,Win32,40,657b66ea316d21385b68909f,,,,,,,,,,,2207.0906,2208.0936,,,2208.5942,2208.844,,149,149,,,,,,,,,,,,,,,,bars/047.png,bars/mask003.png,,,,,,,,,,,,0,1,,,,,,,2,0,2,0,,,,,,,,,,,2208.0936,2208.5941,2208.844,2213.48,space,4.6213,,2213.48,46,79,2214.4796,2214.4797,2214.4951,,,,0,48,48,48,1,15,70,,,,,,,,
,,6110daa2aefc2c078f8a7ae5,65af5a431502ba3ac8b61a52,2024-01-23_08h21.00.811,bars,2023.2.3,Win32,40,657b66ea316d21385b68909f,,,,,,,,,,,2214.4954,2215.4969,,,2215.9972,2216.2473,,65,65,,,,,,,,,,,,,,,,bars/023.png,bars/mask003.png,,,,,,,,,,,,0,1,,,,,,,4,0,4,0,,,,,,,,,,,2215.4969,2215.9972,2216.2474,2220.9187,space,4.6621,,2220.9187,45,50,2221.9166,2221.9166,2221.9312,,,,0,49,49,49,1,20,115,,,,,,,,
,,6110daa2aefc2c078f8a7ae5,65af5a431502ba3ac8b61a52,2024-01-23_08h21.00.811,bars,2023.2.3,Win32,40,657b66ea316d21385b68909f,,,,,,,,,,,,,,,,,,,,,,,,,,,,,,,,,,,,,,,,,,,,,,,,,,,,,,,,,,,,,,,,,,,,,,,,,,,,,,,,,,,,,,,,,,,,,2221.9315,2281.9352,0,3,3,4,1,sequence_tables/blk001.csv
,,6110daa2aefc2c078f8a7ae5,65af5a431502ba3ac8b61a52,2024-01-23_08h21.00.811,bars,2023.2.3,Win32,40,657b66ea316d21385b68909f,,,,,,,,,,,2284.753,2285.7456,,,2286.2458,2286.496,,27,27,,,,,,,,,,,,,,,,bars/018.png,bars/mask003.png,,,,,,,,,,,,0,1,,,,,,,8,3,7,2,,,,,,2281.9533,2284.7455,space,2.7771,,2285.7456,2286.2458,2286.4961,2291.9319,space,5.4203,,2291.932,57,63,2292.9322,2292.9322,2292.9469,,,,0,0,0,0,1,150,90,,,,,,,,
,,6110daa2aefc2c078f8a7ae5,65af5a431502ba3ac8b61a52,2024-01-23_08h21.00.811,bars,2023.2.3,Win32,40,657b66ea316d21385b68909f,,,,,,,,,,,2292.9473,2293.9492,,,2294.4494,2294.6994,,168,168,,,,,,,,,,,,,,,,bars/006.png,bars/mask001.png,,,,,,,,,,,,0,1,,,,,,,6,5,6,4,,,,,,,,,,,2293.9493,2294.4494,2294.6995,2299.8686,space,5.1597,,2299.8687,47,68,2300.869,2300.869,2300.8835,,,,0,1,1,1,1,35,100,,,,,,,,
,,6110daa2aefc2c078f8a7ae5,65af5a431502ba3ac8b61a52,2024-01-23_08h21.00.811,bars,2023.2.3,Win32,40,657b66ea316d21385b68909f,,,,,,,,,,,2300.8839,2301.8865,,,2302.3863,2302.6365,,171,171,,,,,,,,,,,,,,,,bars/010.png,bars/mask007.png,,,,,,,,,,,,6,1,,,,,,,8,3,8,3,,,,,,,,,,,2301.8866,2302.3863,2302.6365,2306.4052,space,3.7508,,2306.4053,6,64,2307.4056,2307.4056,2307.4198,,,,0,2,2,2,1,165,55,,,,,,,,
,,6110daa2aefc2c078f8a7ae5,65af5a431502ba3ac8b61a52,2024-01-23_08h21.00.811,bars,2023.2.3,Win32,40,657b66ea316d21385b68909f,,,,,,,,,,,2307.4202,2308.4241,,,2308.9227,2309.1727,,132,132,,,,,,,,,,,,,,,,bars/004.png,bars/mask009.png,,,,,,,,,,,,4,2,,,,,,,6,5,5,5,,,,,,,,,,,2308.4241,2308.9227,2309.1727,2312.7082,space,3.5213,,2312.7083,73,7,2313.7082,2313.7082,2313.7241,,,,0,3,3,3,1,25,125,,,,,,,,
,,6110daa2aefc2c078f8a7ae5,65af5a431502ba3ac8b61a52,2024-01-23_08h21.00.811,bars,2023.2.3,Win32,40,657b66ea316d21385b68909f,,,,,,,,,,,2313.7248,2314.7252,,,2315.2257,2315.4756,,119,119,,,,,,,,,,,,,,,,bars/031.png,bars/mask006.png,,,,,,,,,,,,9,1,,,,,,,8,3,9,3,,,,,,,,,,,2314.7252,2315.2256,2315.4756,2318.4776,space,2.9863,,2318.4777,1,84,2319.4775,2319.4776,2319.4923,,,,0,4,4,4,1,120,35,,,,,,,,
,,6110daa2aefc2c078f8a7ae5,65af5a431502ba3ac8b61a52,2024-01-23_08h21.00.811,bars,2023.2.3,Win32,40,657b66ea316d21385b68909f,,,,,,,,,,,2319.4926,2320.4947,,,2320.9951,2321.2452,,24,24,,,,,,,,,,,,,,,,bars/003.png,bars/mask003.png,,,,,,,,,,,,6,1,,,,,,,6,1,6,2,,,,,,,,,,,2320.4947,2320.995,2321.2453,2325.4642,space,4.2022,,2325.4642,1,64,2326.4639,2326.4639,2326.4796,,,,0,5,5,5,1,25,140,,,,,,,,
,,6110daa2aefc2c078f8a7ae5,65af5a431502ba3ac8b61a52,2024-01-23_08h21.00.811,bars,2023.2.3,Win32,40,657b66ea316d21385b68909f,,,,,,,,,,,2326.4804,2327.4814,,,2327.9814,2328.2315,,136,136,,,,,,,,,,,,,,,,bars/044.png,bars/mask000.png,,,,,,,,,,,,1,2,,,,,,,4,3,3,3,,,,,,,,,,,2327.4814,2327.9813,2328.2315,2332.8836,space,4.6416,,2332.8836,61,19,2333.8839,2333.8839,2333.901,,,,0,6,6,6,1,75,155,,,,,,,,
,,6110daa2aefc2c078f8a7ae5,65af5a431502ba3ac8b61a52,2024-01-23_08h21.00.811,bars,2023.2.3,Win32,40,657b66ea316d21385b68909f,,,,,,,,,,,2333.9015,2334.9013,,,2335.4014,2335.6515,,84,84,,,,,,,,,,,,,,,,bars/027.png,bars/mask008.png,,,,,,,,,,,,1,1,,,,,,,6,1,7,1,,,,,,,,,,,2334.9013,2335.4013,2335.6515,2338.5031,space,2.8355,,2338.5032,26,34,2339.5059,2339.5059,2339.5234,,,,0,7,7,7,1,110,50,,,,,,,,
,,6110daa2aefc2c078f8a7ae5,65af5a431502ba3ac8b61a52,2024-01-23_08h21.00.811,bars,2023.2.3,Win32,40,657b66ea316d21385b68909f,,,,,,,,,,,2339.5238,2340.5133,,,2341.0039,2341.2539,,133,133,,,,,,,,,,,,,,,,bars/032.png,bars/mask003.png,,,,,,,,,,,,7,1,,,,,,,8,3,9,4,,,,,,,,,,,2340.5134,2341.0039,2341.254,2344.7138,space,3.4358,,2344.7139,8,67,2345.7061,2345.7062,2345.7209,,,,0,8,8,8,1,125,20,,,,,,,,
,,6110daa2aefc2c078f8a7ae5,65af5a431502ba3ac8b61a52,2024-01-23_08h21.00.811,bars,2023.2.3,Win32,40,657b66ea316d21385b68909f,,,,,,,,,,,2345.7212,2346.7308,,,2347.2317,2347.4815,,19,199,,,,,,,,,,,,,,,,bars/009.png,bars/mask005.png,,,,,,,,,,,,7,1,,,,,,,10,1,8,1,,,,,,,,,,,2346.7308,2347.2316,2347.4815,2352.9515,space,5.454,,2352.9516,4,86,2353.9428,2353.9429,2353.9574,,,,0,9,9,9,1,15,105,,,,,,,,
,,6110daa2aefc2c078f8a7ae5,65af5a431502ba3ac8b61a52,2024-01-23_08h21.00.811,bars,2023.2.3,Win32,40,657b66ea316d21385b68909f,,,,,,,,,,,2353.9577,2354.9509,,,2355.4516,2355.7013,,58,58,,,,,,,,,,,,,,,,bars/044.png,bars/mask007.png,,,,,,,,,,,,3,1,,,,,,,8,3,7,1,,,,,,,,,,,2354.951,2355.4515,2355.7014,2360.7042,space,4.9863,,2360.7043,17,83,2361.7036,2361.7038,2361.7186,,,,0,10,10,10,1,75,155,,,,,,,,
,,6110daa2aefc2c078f8a7ae5,65af5a431502ba3ac8b61a52,2024-01-23_08h21.00.811,bars,2023.2.3,Win32,40,657b66ea316d21385b68909f,,,,,,,,,,,2361.7189,2362.7134,,,2363.2046,2363.4551,,45,45,,,,,,,,,,,,,,,,bars/041.png,bars/mask000.png,,,,,,,,,,,,1,1,,,,,,,10,1,8,2,,,,,,,,,,,2362.7135,2363.2045,2363.4551,2365.6731,space,2.2016,,2365.6731,25,40,2366.6729,2366.673,2366.6882,,,,0,11,11,11,1,20,85,,,,,,,,
,,6110daa2aefc2c078f8a7ae5,65af5a431502ba3ac8b61a52,2024-01-23_08h21.00.811,bars,2023.2.3,Win32,40,657b66ea316d21385b68909f,,,,,,,,,,,2366.6886,2367.6903,,,2368.191,2368.4407,,151,151,,,,,,,,,,,,,,,,bars/015.png,bars/mask002.png,,,,,,,,,,,,0,2,,,,,,,10,0,10,0,,,,,,,,,,,2367.6904,2368.1909,2368.4408,2372.2435,space,3.7864,,2372.2436,41,9,2373.2354,2373.2354,2373.2503,,,,0,12,12,12,1,110,160,,,,,,,,
,,6110daa2aefc2c078f8a7ae5,65af5a431502ba3ac8b61a52,2024-01-23_08h21.00.811,bars,2023.2.3,Win32,40,657b66ea316d21385b68909f,,,,,,,,,,,2373.2508,2374.2431,,,2374.7436,2374.9935,,69,69,,,,,,,,,,,,,,,,bars/018.png,bars/mask000.png,,,,,,,,,,,,1,2,,,,,,,8,2,9,2,,,,,,,,,,,2374.2432,2374.7435,2374.9936,2378.279,space,3.2688,,2378.2791,81,21,2379.2787,2379.2787,2379.2951,,,,0,13,13,13,1,150,90,,,,,,,,
,,6110daa2aefc2c078f8a7ae5,65af5a431502ba3ac8b61a52,2024-01-23_08h21.00.811,bars,2023.2.3,Win32,40,657b66ea316d21385b68909f,,,,,,,,,,,2379.2958,2380.2956,,,2380.7959,2381.0465,,79,79,,,,,,,,,,,,,,,,bars/029.png,bars/mask005.png,,,,,,,,,,,,5,1,,,,,,,10,4,8,6,,,,,,,,,,,2380.2956,2380.7959,2381.0465,2383.6735,space,2.6066,,2383.6737,11,34,2384.6736,2384.6737,2384.6909,,,,0,14,14,14,1,90,45,,,,,,,,
,,6110daa2aefc2c078f8a7ae5,65af5a431502ba3ac8b61a52,2024-01-23_08h21.00.811,bars,2023.2.3,Win32,40,657b66ea316d21385b68909f,,,,,,,,,,,2384.6916,2385.6907,,,2386.1911,2386.4412,,142,142,,,,,,,,,,,,,,,,bars/032.png,bars/mask003.png,,,,,,,,,,,,3,1,,,,,,,8,6,8,6,,,,,,,,,,,2385.6908,2386.1909,2386.4412,2389.5268,space,3.077,,2389.5269,17,58,2390.5263,2390.5264,2390.5414,,,,0,15,15,15,1,125,20,,,,,,,,
,,6110daa2aefc2c078f8a7ae5,65af5a431502ba3ac8b61a52,2024-01-23_08h21.00.811,bars,2023.2.3,Win32,40,657b66ea316d21385b68909f,,,,,,,,,,,2390.5418,2391.5433,,,2392.0437,2392.2958,,102,102,,,,,,,,,,,,,,,,bars/022.png,bars/mask004.png,,,,,,,,,,,,8,1,,,,,,,10,8,10,9,,,,,,,,,,,2391.5434,2392.0436,2392.2959,2395.6954,space,3.3892,,2395.6958,7,82,2396.6957,2396.6958,2396.7107,,,,0,16,16,16,1,95,20,,,,,,,,
