init_variables.started,init_variables.stopped,participant,session,date,expName,psychopyVersion,OS,frameRate,study_id,instruction_exp.started,instruction_exp.stopped,key_resp_8.keys,key_resp_8.rt,key_resp_8.duration,instruction_single.started,instruction_single.stopped,key_resp_2.keys,key_resp_2.rt,key_resp_2.duration,interval.started,interval.stopped,cue_single.started,cue_single.stopped,mask.started,mask.stopped,ori_response_single.started,res_ori,res,ori_response_single.stopped,key_resp_single.keys,key_resp_single.rt,key_resp_single.duration,disp_single.started,disp_single.stopped,key_resp.keys,key_resp.rt,key_resp.duration,single.thisRepN,single.thisTrialN,single.thisN,single.thisIndex,single.ran,ori,path,mask_path,instruction_bandit.started,instruction_bandit.stopped,key_resp_6.keys,key_resp_6.rt,key_resp_6.duration,cue_bandit.started,cue_bandit.stopped,bandit_res.keys,bandit_res.rt,bandit_res.duration,outcome_bandit.started,rew,action,outcome_bandit.stopped,bandit.thisRepN,bandit.thisTrialN,bandit.thisN,bandit.thisIndex,bandit.ran,actual_rew1,actual_rew2,rew1,rew2,instruction_task.started,instruction_task.stopped,key_resp_7.keys,key_resp_7.rt,key_resp_7.duration,wait_ready.started,wait_ready.stopped,key_resp_3.keys,key_resp_3.rt,key_resp_3.duration,cue.started,cue.stopped,ori_response.started,ori_response.stopped,key_resp_5.keys,key_resp_5.rt,key_resp_5.duration,outcome.started,diff1,diff2,outcome.stopped,disp_outcome_practice.started,disp_outcome_practice.stopped,key_resp_4.keys,key_resp_4.rt,key_resp_4.duration,trials.thisRepN,trials.thisTrialN,trials.thisN,trials.thisIndex,trials.ran,ori1,ori2,break_blk.started,break_blk.stopped,block.thisRepN,block.thisTrialN,block.thisN,block.thisIndex,block.ran,condition_file
0.0003,0.0005,6130ceb2390f7cb3284f33a9,65af55a5ebaa6ae4e2c7565f,2024-01-23_08h01.49.021,bars,2023.2.3,Win32,59.88023952,657b66ea316d21385b68909f,,,,,,,,,,,,,,,,,,,,,,,,,,,,,,,,,,,,,,,,,,,,,,,,,,,,,,,,,,,,,,,,,,,,,,,,,,,,,,,,,,,,,,,,,,,,,,,,,,,,
,,6130ceb2390f7cb3284f33a9,65af55a5ebaa6ae4e2c7565f,2024-01-23_08h01.49.021,bars,2023.2.3,Win32,59.88023952,657b66ea316d21385b68909f,0.0007,9.0055,y,8.9917,,,,,,,,,,,,,,,,,,,,,,,,,,,,,,,,,,,,,,,,,,,,,,,,,,,,,,,,,,,,,,,,,,,,,,,,,,,,,,,,,,,,,,,,,,,,,,,,
,,6130ceb2390f7cb3284f33a9,65af55a5ebaa6ae4e2c7565f,2024-01-23_08h01.49.021,bars,2023.2.3,Win32,59.88023952,657b66ea316d21385b68909f,,,,,,9.0056,47.9091,space,38.8907,,,,,,,,,,,,,,,,,,,,,,,,,,,,,,,,,,,,,,,,,,,,,,,,,,,,,,,,,,,,,,,,,,,,,,,,,,,,,,,,,,,,,,,,,,,
,,6130ceb2390f7cb3284f33a9,65af55a5ebaa6ae4e2c7565f,2024-01-23_08h01.49.021,bars,2023.2.3,Win32,59.88023952,657b66ea316d21385b68909f,,,,,,,,,,,47.9144,48.9166,48.9168,49.42,49.4203,49.6665,49.6669,0,180,56.0455,space,6.3195,,56.0458,63.5209,space,7.4265,,0,0,0,0,1,150,bars/single000.png,bars/mask006.png,,,,,,,,,,,,,,,,,,,,,,,,,,,,,,,,,,,,,,,,,,,,,,,,,,,,,,,,,,,,,,,,
,,6130ceb2390f7cb3284f33a9,65af55a5ebaa6ae4e2c7565f,2024-01-23_08h01.49.021,bars,2023.2.3,Win32,59.88023952,657b66ea316d21385b68909f,,,,,,,,,,,63.5424,64.5354,64.5356,65.0352,65.0353,65.2841,65.2841,151,151,72.6946,space,7.395,,72.6948,79.9713,space,7.2413,,0,1,1,4,1,95,bars/single004.png,bars/mask004.png,,,,,,,,,,,,,,,,,,,,,,,,,,,,,,,,,,,,,,,,,,,,,,,,,,,,,,,,,,,,,,,,
,,6130ceb2390f7cb3284f33a9,65af55a5ebaa6ae4e2c7565f,2024-01-23_08h01.49.021,bars,2023.2.3,Win32,59.88023952,657b66ea316d21385b68909f,,,,,,,,,,,79.9919,80.9869,80.987,81.4864,81.4865,81.7361,81.7362,82,82,86.9028,space,5.1454,,86.9028,90.6499,space,3.7305,,0,2,2,9,1,20,bars/single009.png,bars/mask006.png,,,,,,,,,,,,,,,,,,,,,,,,,,,,,,,,,,,,,,,,,,,,,,,,,,,,,,,,,,,,,,,,
,,6130ceb2390f7cb3284f33a9,65af55a5ebaa6ae4e2c7565f,2024-01-23_08h01.49.021,bars,2023.2.3,Win32,59.88023952,657b66ea316d21385b68909f,,,,,,,,,,,90.6657,91.6603,91.6604,92.16,92.16,92.4096,92.4096,26,26,94.3079,space,1.8749,,94.3081,98.687,space,4.3506,,0,3,3,1,1,20,bars/single001.png,bars/mask006.png,,,,,,,,,,,,,,,,,,,,,,,,,,,,,,,,,,,,,,,,,,,,,,,,,,,,,,,,,,,,,,,,
,,6130ceb2390f7cb3284f33a9,65af55a5ebaa6ae4e2c7565f,2024-01-23_08h01.49.021,bars,2023.2.3,Win32,59.88023952,657b66ea316d21385b68909f,,,,,,,,,,,98.707,99.7082,99.7082,100.2023,100.2024,100.4519,100.4519,17,17,104.2982,space,3.8293,,104.2982,107.3127,space,2.9833,,0,4,4,8,1,160,bars/single008.png,bars/mask004.png,,,,,,,,,,,,,,,,,,,,,,,,,,,,,,,,,,,,,,,,,,,,,,,,,,,,,,,,,,,,,,,,
,,6130ceb2390f7cb3284f33a9,65af55a5ebaa6ae4e2c7565f,2024-01-23_08h01.49.021,bars,2023.2.3,Win32,59.88023952,657b66ea316d21385b68909f,,,,,,,,,,,107.3136,108.3114,108.3114,108.8112,108.8112,109.0606,109.0607,157,157,115.8376,space,6.7461,,115.8379,117.9358,space,2.0615,,0,5,5,6,1,175,bars/single006.png,bars/mask005.png,,,,,,,,,,,,,,,,,,,,,,,,,,,,,,,,,,,,,,,,,,,,,,,,,,,,,,,,,,,,,,,,
,,6130ceb2390f7cb3284f33a9,65af55a5ebaa6ae4e2c7565f,2024-01-23_08h01.49.021,bars,2023.2.3,Win32,59.88023952,657b66ea316d21385b68909f,,,,,,,,,,,117.9365,118.9349,118.9349,119.4342,119.4343,119.6842,119.6843,166,166,126.2009,space,6.4949,,126.2009,127.9603,space,1.7333,,0,6,6,7,1,45,bars/single007.png,bars/mask009.png,,,,,,,,,,,,,,,,,,,,,,,,,,,,,,,,,,,,,,,,,,,,,,,,,,,,,,,,,,,,,,,,
,,6130ceb2390f7cb3284f33a9,65af55a5ebaa6ae4e2c7565f,2024-01-23_08h01.49.021,bars,2023.2.3,Win32,59.88023952,657b66ea316d21385b68909f,,,,,,,,,,,127.9614,128.9586,128.9586,129.4637,129.4638,129.7081,129.7081,69,69,154.7683,space,25.0346,,154.7684,158.5645,space,3.754,,0,7,7,2,1,145,bars/single002.png,bars/mask003.png,,,,,,,,,,,,,,,,,,,,,,,,,,,,,,,,,,,,,,,,,,,,,,,,,,,,,,,,,,,,,,,,
,,6130ceb2390f7cb3284f33a9,65af55a5ebaa6ae4e2c7565f,2024-01-23_08h01.49.021,bars,2023.2.3,Win32,59.88023952,657b66ea316d21385b68909f,,,,,,,,,,,158.5652,159.5635,159.5636,160.0633,160.0633,160.3125,160.3126,150,150,168.3555,space,8.0281,,168.3556,178.196,space,9.8045,,0,8,8,3,1,20,bars/single003.png,bars/mask005.png,,,,,,,,,,,,,,,,,,,,,,,,,,,,,,,,,,,,,,,,,,,,,,,,,,,,,,,,,,,,,,,,
,,6130ceb2390f7cb3284f33a9,65af55a5ebaa6ae4e2c7565f,2024-01-23_08h01.49.021,bars,2023.2.3,Win32,59.88023952,657b66ea316d21385b68909f,,,,,,,,,,,178.2172,179.2121,179.2121,179.7113,179.7114,179.9611,179.9611,30,210,187.5042,space,7.5276,,187.5042,193.0657,space,5.5229,,0,9,9,5,1,55,bars/single005.png,bars/mask008.png,,,,,,,,,,,,,,,,,,,,,,,,,,,,,,,,,,,,,,,,,,,,,,,,,,,,,,,,,,,,,,,,
,,6130ceb2390f7cb3284f33a9,65af55a5ebaa6ae4e2c7565f,2024-01-23_08h01.49.021,bars,2023.2.3,Win32,59.88023952,657b66ea316d21385b68909f,,,,,,,,,,,,,,,,,,,,,,,,,,,,,,,,,,,,,193.0893,205.0552,space,11.9436,,,,,,,,,,,,,,,,,,,,,,,,,,,,,,,,,,,,,,,,,,,,,,,,,,,,,,,,,,,,
,,6130ceb2390f7cb3284f33a9,65af55a5ebaa6ae4e2c7565f,2024-01-23_08h01.49.021,bars,2023.2.3,Win32,59.88023952,657b66ea316d21385b68909f,,,,,,,,,,,,,,,,,,,,,,,,,,,,,,,,,,,,,,,,,,205.0756,207.9184,left,2.822,,207.9187,9,1,208.9175,0,0,0,0,1,9,1,9,2,,,,,,,,,,,,,,,,,,,,,,,,,,,,,,,,,,,,,,,,,
,,6130ceb2390f7cb3284f33a9,65af55a5ebaa6ae4e2c7565f,2024-01-23_08h01.49.021,bars,2023.2.3,Win32,59.88023952,657b66ea316d21385b68909f,,,,,,,,,,,,,,,,,,,,,,,,,,,,,,,,,,,,,,,,,,208.9182,209.8004,right,0.8517,,209.8006,1,2,210.799,0,1,1,1,1,10,0,10,1,,,,,,,,,,,,,,,,,,,,,,,,,,,,,,,,,,,,,,,,,
,,6130ceb2390f7cb3284f33a9,65af55a5ebaa6ae4e2c7565f,2024-01-23_08h01.49.021,bars,2023.2.3,Win32,59.88023952,657b66ea316d21385b68909f,,,,,,,,,,,,,,,,,,,,,,,,,,,,,,,,,,,,,,,,,,210.7995,211.4317,left,0.6104,,211.4319,10,1,212.4307,0,2,2,2,1,10,2,10,2,,,,,,,,,,,,,,,,,,,,,,,,,,,,,,,,,,,,,,,,,
,,6130ceb2390f7cb3284f33a9,65af55a5ebaa6ae4e2c7565f,2024-01-23_08h01.49.021,bars,2023.2.3,Win32,59.88023952,657b66ea316d21385b68909f,,,,,,,,,,,,,,,,,,,,,,,,,,,,,,,,,,,,,,,,,,212.4313,213.1305,left,0.6779,,213.1307,7,1,214.1292,0,3,3,3,1,8,4,7,3,,,,,,,,,,,,,,,,,,,,,,,,,,,,,,,,,,,,,,,,,
,,6130ceb2390f7cb3284f33a9,65af55a5ebaa6ae4e2c7565f,2024-01-23_08h01.49.021,bars,2023.2.3,Win32,59.88023952,657b66ea316d21385b68909f,,,,,,,,,,,,,,,,,,,,,,,,,,,,,,,,,,,,,,,,,,214.1298,215.5946,left,1.4377,,215.5947,5,1,216.5933,0,4,4,4,1,6,2,5,1,,,,,,,,,,,,,,,,,,,,,,,,,,,,,,,,,,,,,,,,,
,,6130ceb2390f7cb3284f33a9,65af55a5ebaa6ae4e2c7565f,2024-01-23_08h01.49.021,bars,2023.2.3,Win32,59.88023952,657b66ea316d21385b68909f,,,,,,,,,,,,,,,,,,,,,,,,,,,,,,,,,,,,,,,,,,216.5939,218.5635,right,1.9481,,218.5635,4,2,219.5573,0,5,5,5,1,4,4,4,4,,,,,,,,,,,,,,,,,,,,,,,,,,,,,,,,,,,,,,,,,
,,6130ceb2390f7cb3284f33a9,65af55a5ebaa6ae4e2c7565f,2024-01-23_08h01.49.021,bars,2023.2.3,Win32,59.88023952,657b66ea316d21385b68909f,,,,,,,,,,,,,,,,,,,,,,,,,,,,,,,,,,,,,,,,,,219.5767,220.0803,left,0.4985,,220.0804,1,1,221.0726,0,6,6,6,1,2,2,1,2,,,,,,,,,,,,,,,,,,,,,,,,,,,,,,,,,,,,,,,,,
,,6130ceb2390f7cb3284f33a9,65af55a5ebaa6ae4e2c7565f,2024-01-23_08h01.49.021,bars,2023.2.3,Win32,59.88023952,657b66ea316d21385b68909f,,,,,,,,,,,,,,,,,,,,,,,,,,,,,,,,,,,,,,,,,,221.0732,221.2732,right,0.1691,,221.2734,1,2,222.2714,0,7,7,7,1,0,0,0,1,,,,,,,,,,,,,,,,,,,,,,,,,,,,,,,,,,,,,,,,,
,,6130ceb2390f7cb3284f33a9,65af55a5ebaa6ae4e2c7565f,2024-01-23_08h01.49.021,bars,2023.2.3,Win32,59.88023952,657b66ea316d21385b68909f,,,,,,,,,,,,,,,,,,,,,,,,,,,,,,,,,,,,,,,,,,222.272,222.8045,left,0.5112,,222.8047,1,1,223.8033,0,8,8,8,1,0,2,1,0,,,,,,,,,,,,,,,,,,,,,,,,,,,,,,,,,,,,,,,,,
,,6130ceb2390f7cb3284f33a9,65af55a5ebaa6ae4e2c7565f,2024-01-23_08h01.49.021,bars,2023.2.3,Win32,59.88023952,657b66ea316d21385b68909f,,,,,,,,,,,,,,,,,,,,,,,,,,,,,,,,,,,,,,,,,,223.804,224.2692,right,0.4387,,224.2693,3,2,225.2687,0,9,9,9,1,2,4,2,3,,,,,,,,,,,,,,,,,,,,,,,,,,,,,,,,,,,,,,,,,
,,6130ceb2390f7cb3284f33a9,65af55a5ebaa6ae4e2c7565f,2024-01-23_08h01.49.021,bars,2023.2.3,Win32,59.88023952,657b66ea316d21385b68909f,,,,,,,,,,,,,,,,,,,,,,,,,,,,,,,,,,,,,,,,,,225.2693,225.4024,left,0.1063,,225.4026,0,1,226.4008,0,10,10,10,1,0,2,0,3,,,,,,,,,,,,,,,,,,,,,,,,,,,,,,,,,,,,,,,,,
,,6130ceb2390f7cb3284f33a9,65af55a5ebaa6ae4e2c7565f,2024-01-23_08h01.49.021,bars,2023.2.3,Win32,59.88023952,657b66ea316d21385b68909f,,,,,,,,,,,,,,,,,,,,,,,,,,,,,,,,,,,,,,,,,,226.4015,226.4233,right,0.0008,,226.4233,3,2,227.416,0,11,11,11,1,0,4,0,3,,,,,,,,,,,,,,,,,,,,,,,,,,,,,,,,,,,,,,,,,
,,6130ceb2390f7cb3284f33a9,65af55a5ebaa6ae4e2c7565f,2024-01-23_08h01.49.021,bars,2023.2.3,Win32,59.88023952,657b66ea316d21385b68909f,,,,,,,,,,,,,,,,,,,,,,,,,,,,,,,,,,,,,,,,,,227.4163,228.3322,left,0.8848,,228.3323,1,1,229.3308,0,12,12,12,1,2,6,1,6,,,,,,,,,,,,,,,,,,,,,,,,,,,,,,,,,,,,,,,,,
,,6130ceb2390f7cb3284f33a9,65af55a5ebaa6ae4e2c7565f,2024-01-23_08h01.49.021,bars,2023.2.3,Win32,59.88023952,657b66ea316d21385b68909f,,,,,,,,,,,,,,,,,,,,,,,,,,,,,,,,,,,,,,,,,,229.331,230.2306,left,0.8676,,230.2308,1,1,231.2296,0,13,13,13,1,0,4,1,3,,,,,,,,,,,,,,,,,,,,,,,,,,,,,,,,,,,,,,,,,
,,6130ceb2390f7cb3284f33a9,65af55a5ebaa6ae4e2c7565f,2024-01-23_08h01.49.021,bars,2023.2.3,Win32,59.88023952,657b66ea316d21385b68909f,,,,,,,,,,,,,,,,,,,,,,,,,,,,,,,,,,,,,,,,,,231.2302,231.6961,left,0.4346,,231.6962,2,1,232.695,0,14,14,14,1,2,6,2,7,,,,,,,,,,,,,,,,,,,,,,,,,,,,,,,,,,,,,,,,,
,,6130ceb2390f7cb3284f33a9,65af55a5ebaa6ae4e2c7565f,2024-01-23_08h01.49.021,bars,2023.2.3,Win32,59.88023952,657b66ea316d21385b68909f,,,,,,,,,,,,,,,,,,,,,,,,,,,,,,,,,,,,,,,,,,232.6955,233.362,right,0.6357,,233.362,9,2,234.36,0,15,15,15,1,4,8,3,9,,,,,,,,,,,,,,,,,,,,,,,,,,,,,,,,,,,,,,,,,
,,6130ceb2390f7cb3284f33a9,65af55a5ebaa6ae4e2c7565f,2024-01-23_08h01.49.021,bars,2023.2.3,Win32,59.88023952,657b66ea316d21385b68909f,,,,,,,,,,,,,,,,,,,,,,,,,,,,,,,,,,,,,,,,,,234.3606,235.0927,left,0.704,,235.0928,7,1,236.0805,0,16,16,16,1,6,6,7,7,,,,,,,,,,,,,,,,,,,,,,,,,,,,,,,,,,,,,,,,,
,,6130ceb2390f7cb3284f33a9,65af55a5ebaa6ae4e2c7565f,2024-01-23_08h01.49.021,bars,2023.2.3,Win32,59.88023952,657b66ea316d21385b68909f,,,,,,,,,,,,,,,,,,,,,,,,,,,,,,,,,,,,,,,,,,236.0811,237.2579,left,1.1522,,237.2579,9,1,238.2458,0,17,17,17,1,8,4,9,5,,,,,,,,,,,,,,,,,,,,,,,,,,,,,,,,,,,,,,,,,
,,6130ceb2390f7cb3284f33a9,65af55a5ebaa6ae4e2c7565f,2024-01-23_08h01.49.021,bars,2023.2.3,Win32,59.88023952,657b66ea316d21385b68909f,,,,,,,,,,,,,,,,,,,,,,,,,,,,,,,,,,,,,,,,,,238.2463,238.9226,right,0.6533,,238.9226,1,2,239.9214,0,18,18,18,1,6,2,5,1,,,,,,,,,,,,,,,,,,,,,,,,,,,,,,,,,,,,,,,,,
,,6130ceb2390f7cb3284f33a9,65af55a5ebaa6ae4e2c7565f,2024-01-23_08h01.49.021,bars,2023.2.3,Win32,59.88023952,657b66ea316d21385b68909f,,,,,,,,,,,,,,,,,,,,,,,,,,,,,,,,,,,,,,,,,,239.9216,240.3381,left,0.3902,,240.3383,7,1,241.337,0,19,19,19,1,8,0,7,0,,,,,,,,,,,,,,,,,,,,,,,,,,,,,,,,,,,,,,,,,
,,6130ceb2390f7cb3284f33a9,65af55a5ebaa6ae4e2c7565f,2024-01-23_08h01.49.021,bars,2023.2.3,Win32,59.88023952,657b66ea316d21385b68909f,,,,,,,,,,,,,,,,,,,,,,,,,,,,,,,,,,,,,,,,,,,,,,,,,,,,,,,,,,,,241.339,258.7233,space,17.3529,,,,,,,,,,,,,,,,,,,,,,,,,,,,,,,,,,,,,
,,6130ceb2390f7cb3284f33a9,65af55a5ebaa6ae4e2c7565f,2024-01-23_08h01.49.021,bars,2023.2.3,Win32,59.88023952,657b66ea316d21385b68909f,,,,,,,,,,,260.16,261.1517,,,261.6518,261.901,,141,141,,,,,,,,,,,,,,,,bars/018.png,bars/mask009.png,,,,,,,,,,,,6,1,,,,,,,8,1,8,0,,,,,,258.7518,260.153,space,1.3859,,261.1521,261.6517,261.9016,270.0778,space,8.152,,270.0783,9,51,271.0762,271.0765,282.2505,space,11.1435,,0,0,0,0,1,150,90,,,,,,,,
,,6130ceb2390f7cb3284f33a9,65af55a5ebaa6ae4e2c7565f,2024-01-23_08h01.49.021,bars,2023.2.3,Win32,59.88023952,657b66ea316d21385b68909f,,,,,,,,,,,282.2728,283.2699,,,283.7696,284.014,,124,124,,,,,,,,,,,,,,,,bars/014.png,bars/mask008.png,,,,,,,,,,,,0,1,,,,,,,6,3,5,3,,,,,,,,,,,283.2701,283.7696,284.014,289.8921,space,5.8447,,289.8924,44,56,290.8942,290.8943,294.7539,space,3.8208,,0,1,1,1,1,80,0,,,,,,,,
,,6130ceb2390f7cb3284f33a9,65af55a5ebaa6ae4e2c7565f,2024-01-23_08h01.49.021,bars,2023.2.3,Win32,59.88023952,657b66ea316d21385b68909f,,,,,,,,,,,294.7697,295.7692,,,296.2691,296.5191,,9,189,,,,,,,,,,,,,,,,bars/007.png,bars/mask003.png,,,,,,,,,,,,3,1,,,,,,,4,5,5,6,,,,,,,,,,,295.7692,296.269,296.5192,301.1981,space,4.6607,,301.1981,14,46,302.1968,302.1969,303.5625,space,1.3196,,0,2,2,2,1,175,55,,,,,,,,
,,6130ceb2390f7cb3284f33a9,65af55a5ebaa6ae4e2c7565f,2024-01-23_08h01.49.021,bars,2023.2.3,Win32,59.88023952,657b66ea316d21385b68909f,,,,,,,,,,,303.563,304.5615,,,305.0611,305.3104,,57,57,,,,,,,,,,,,,,,,bars/007.png,bars/mask008.png,,,,,,,,,,,,2,2,,,,,,,6,3,6,2,,,,,,,,,,,304.5615,305.0611,305.3104,309.357,space,4.0339,,309.3571,62,2,310.3561,310.3562,313.8197,space,3.4231,,0,3,3,3,1,175,55,,,,,,,,
,,6130ceb2390f7cb3284f33a9,65af55a5ebaa6ae4e2c7565f,2024-01-23_08h01.49.021,bars,2023.2.3,Win32,59.88023952,657b66ea316d21385b68909f,,,,,,,,,,,313.8205,314.8186,,,315.3184,315.5682,,170,-10,,,,,,,,,,,,,,,,bars/014.png,bars/mask003.png,,,,,,,,,,,,0,2,,,,,,,8,1,6,0,,,,,,,,,,,314.8186,315.3182,315.5683,324.8425,space,9.2461,,324.8426,90,10,325.8415,325.8416,340.5286,space,14.6545,,0,4,4,4,1,80,0,,,,,,,,
,,6130ceb2390f7cb3284f33a9,65af55a5ebaa6ae4e2c7565f,2024-01-23_08h01.49.021,bars,2023.2.3,Win32,59.88023952,657b66ea316d21385b68909f,,,,,,,,,,,340.5538,341.5434,,,342.0429,342.2928,,5,185,,,,,,,,,,,,,,,,bars/027.png,bars/mask000.png,,,,,,,,,,,,0,2,,,,,,,10,3,10,3,,,,,,,,,,,341.5434,342.0428,342.2928,350.7013,space,8.3864,,350.7015,75,45,351.7007,351.7007,355.2308,space,3.4982,,0,5,5,5,1,110,50,,,,,,,,
,,6130ceb2390f7cb3284f33a9,65af55a5ebaa6ae4e2c7565f,2024-01-23_08h01.49.021,bars,2023.2.3,Win32,59.88023952,657b66ea316d21385b68909f,,,,,,,,,,,355.2316,356.2301,,,356.7297,356.9788,,41,41,,,,,,,,,,,,,,,,bars/032.png,bars/mask005.png,,,,,,,,,,,,0,2,,,,,,,8,1,8,0,,,,,,,,,,,356.2301,356.7296,356.9788,363.2782,space,6.2946,,363.2782,84,21,364.2719,364.2719,366.3542,space,2.0513,,0,6,6,6,1,125,20,,,,,,,,
,,6130ceb2390f7cb3284f33a9,65af55a5ebaa6ae4e2c7565f,2024-01-23_08h01.49.021,bars,2023.2.3,Win32,59.88023952,657b66ea316d21385b68909f,,,,,,,,,,,366.355,367.3525,,,367.8524,368.1021,,119,119,,,,,,,,,,,,,,,,bars/015.png,bars/mask005.png,,,,,,,,,,,,4,1,,,,,,,6,0,6,0,,,,,,,,,,,367.3526,367.8524,368.1021,370.0335,space,1.9155,,370.0335,9,41,371.0217,371.0219,372.6812,space,1.6296,,0,7,7,7,1,110,160,,,,,,,,
,,6130ceb2390f7cb3284f33a9,65af55a5ebaa6ae4e2c7565f,2024-01-23_08h01.49.021,bars,2023.2.3,Win32,59.88023952,657b66ea316d21385b68909f,,,,,,,,,,,372.6817,373.6801,,,374.1798,374.4296,,157,157,,,,,,,,,,,,,,,,bars/026.png,bars/mask008.png,,,,,,,,,,,,0,1,,,,,,,4,0,6,0,,,,,,,,,,,373.6801,374.1797,374.4296,378.2593,space,3.8069,,378.2594,58,72,379.2584,379.2584,380.3899,space,1.0903,,0,8,8,8,1,35,85,,,,,,,,
,,6130ceb2390f7cb3284f33a9,65af55a5ebaa6ae4e2c7565f,2024-01-23_08h01.49.021,bars,2023.2.3,Win32,59.88023952,657b66ea316d21385b68909f,,,,,,,,,,,380.3902,381.3888,,,381.8893,382.1389,,133,133,,,,,,,,,,,,,,,,bars/041.png,bars/mask005.png,,,,,,,,,,,,0,2,,,,,,,6,0,6,0,,,,,,,,,,,381.389,381.8892,382.139,382.8553,space,0.7016,,382.8553,67,48,383.854,383.8541,386.635,space,2.7553,,0,9,9,9,1,20,85,,,,,,,,
,,6130ceb2390f7cb3284f33a9,65af55a5ebaa6ae4e2c7565f,2024-01-23_08h01.49.021,bars,2023.2.3,Win32,59.88023952,657b66ea316d21385b68909f,,,,,,,,,,,386.636,387.634,,,388.1334,388.383,,87,87,,,,,,,,,,,,,,,,bars/038.png,bars/mask000.png,,,,,,,,,,,,1,2,,,,,,,8,2,8,3,,,,,,,,,,,387.6341,388.1333,388.3831,392.1127,space,3.7069,,392.1128,78,17,393.1124,393.1125,396.3153,space,3.178,,0,10,10,10,1,165,70,,,,,,,,
,,6130ceb2390f7cb3284f33a9,65af55a5ebaa6ae4e2c7565f,2024-01-23_08h01.49.021,bars,2023.2.3,Win32,59.88023952,657b66ea316d21385b68909f,,,,,,,,,,,396.3383,397.3244,,,397.8241,398.0741,,165,165,,,,,,,,,,,,,,,,bars/024.png,bars/mask008.png,,,,,,,,,,,,0,2,,,,,,,6,0,7,0,,,,,,,,,,,397.3244,397.8241,398.0742,404.0188,space,5.929,,404.0189,45,5,405.0174,405.0175,408.3815,space,3.3238,,0,11,11,11,1,120,170,,,,,,,,
,,6130ceb2390f7cb3284f33a9,65af55a5ebaa6ae4e2c7565f,2024-01-23_08h01.49.021,bars,2023.2.3,Win32,59.88023952,657b66ea316d21385b68909f,,,,,,,,,,,408.4036,409.3967,,,409.8965,410.1462,,154,154,,,,,,,,,,,,,,,,bars/021.png,bars/mask000.png,,,,,,,,,,,,5,1,,,,,,,4,2,5,2,,,,,,,,,,,409.3968,409.8965,410.1463,412.1942,space,2.0394,,412.1943,1,84,413.1931,413.1931,415.3582,space,2.1394,,0,12,12,12,1,155,70,,,,,,,,
,,6130ceb2390f7cb3284f33a9,65af55a5ebaa6ae4e2c7565f,2024-01-23_08h01.49.021,bars,2023.2.3,Win32,59.88023952,657b66ea316d21385b68909f,,,,,,,,,,,415.359,416.357,,,416.8568,417.1059,,138,138,,,,,,,,,,,,,,,,bars/002.png,bars/mask003.png,,,,,,,,,,,,5,1,,,,,,,6,0,7,0,,,,,,,,,,,416.3571,416.8567,417.106,418.2552,space,1.1371,,418.2553,8,53,419.2544,419.2546,424.2661,space,4.9882,,0,13,13,13,1,130,85,,,,,,,,
,,6130ceb2390f7cb3284f33a9,65af55a5ebaa6ae4e2c7565f,2024-01-23_08h01.49.021,bars,2023.2.3,Win32,59.88023952,657b66ea316d21385b68909f,,,,,,,,,,,424.2833,425.2816,,,425.782,426.0311,,141,141,,,,,,,,,,,,,,,,bars/041.png,bars/mask000.png,,,,,,,,,,,,0,2,,,,,,,8,2,7,2,,,,,,,,,,,425.2816,425.7819,426.0312,432.2256,space,6.1845,,432.2256,59,56,433.2246,433.2246,435.8388,space,2.5705,,0,14,14,14,1,20,85,,,,,,,,
,,6130ceb2390f7cb3284f33a9,65af55a5ebaa6ae4e2c7565f,2024-01-23_08h01.49.021,bars,2023.2.3,Win32,59.88023952,657b66ea316d21385b68909f,,,,,,,,,,,435.8393,436.8379,,,437.3375,437.5868,,38,38,,,,,,,,,,,,,,,,bars/002.png,bars/mask007.png,,,,,,,,,,,,0,2,,,,,,,10,4,10,6,,,,,,,,,,,436.838,437.3374,437.5868,438.9857,space,1.3835,,438.9858,88,47,439.9847,439.9847,444.0646,space,4.0456,,0,15,15,15,1,130,85,,,,,,,,
,,6130ceb2390f7cb3284f33a9,65af55a5ebaa6ae4e2c7565f,2024-01-23_08h01.49.021,bars,2023.2.3,Win32,59.88023952,657b66ea316d21385b68909f,,,,,,,,,,,444.0848,445.08,,,445.5795,445.8296,,74,74,,,,,,,,,,,,,,,,bars/038.png,bars/mask000.png,,,,,,,,,,,,2,2,,,,,,,10,2,10,2,,,,,,,,,,,445.08,445.5795,445.8296,451.9075,space,6.0691,,451.9076,89,4,452.9062,452.9062,456.1697,space,3.2309,,0,16,16,16,1,165,70,,,,,,,,
,,6130ceb2390f7cb3284f33a9,65af55a5ebaa6ae4e2c7565f,2024-01-23_08h01.49.021,bars,2023.2.3,Win32,59.88023952,657b66ea316d21385b68909f,,,,,,,,,,,456.1849,457.1719,,,457.6684,457.9178,,121,121,,,,,,,,,,,,,,,,bars/026.png,bars/mask009.png,,,,,,,,,,,,0,2,,,,,,,8,0,6,0,,,,,,,,,,,457.1719,457.6682,457.9179,469.6572,space,11.7155,,469.6573,86,36,470.6561,470.6562,471.4394,space,0.7444,,0,17,17,17,1,35,85,,,,,,,,
,,6130ceb2390f7cb3284f33a9,65af55a5ebaa6ae4e2c7565f,2024-01-23_08h01.49.021,bars,2023.2.3,Win32,59.88023952,657b66ea316d21385b68909f,,,,,,,,,,,471.4404,472.4379,,,472.9373,473.1757,,33,33,,,,,,,,,,,,,,,,bars/002.png,bars/mask008.png,,,,,,,,,,,,0,2,,,,,,,10,2,10,3,,,,,,,,,,,472.4379,472.9373,473.1758,477.4333,space,4.2461,,477.4333,83,52,478.4383,478.4384,481.9621,space,3.4847,,0,18,18,18,1,130,85,,,,,,,,
,,6130ceb2390f7cb3284f33a9,65af55a5ebaa6ae4e2c7565f,2024-01-23_08h01.49.021,bars,2023.2.3,Win32,59.88023952,657b66ea316d21385b68909f,,,,,,,,,,,481.9755,482.9778,,,483.4775,483.7275,,140,140,,,,,,,,,,,,,,,,bars/008.png,bars/mask008.png,,,,,,,,,,,,0,1,,,,,,,10,4,10,7,,,,,,,,,,,482.9779,483.4774,483.7276,489.5555,space,5.8179,,489.5557,30,40,490.5542,490.5543,491.5371,space,0.9366,,0,19,19,19,1,110,0,,,,,,,,
,,6130ceb2390f7cb3284f33a9,65af55a5ebaa6ae4e2c7565f,2024-01-23_08h01.49.021,bars,2023.2.3,Win32,59.88023952,657b66ea316d21385b68909f,,,,,,,,,,,491.5378,492.5358,,,493.0355,493.2849,,149,-31,,,,,,,,,,,,,,,,bars/034.png,bars/mask007.png,,,,,,,,,,,,2,1,,,,,,,8,6,8,5,,,,,,,,,,,492.5358,493.0354,493.2849,504.7571,space,11.4667,,504.7572,24,84,505.7565,505.7566,509.5576,space,3.7694,,0,20,20,20,1,125,65,,,,,,,,
,,6130ceb2390f7cb3284f33a9,65af55a5ebaa6ae4e2c7565f,2024-01-23_08h01.49.021,bars,2023.2.3,Win32,59.88023952,657b66ea316d21385b68909f,,,,,,,,,,,509.5585,510.5527,,,511.0411,511.285,,123,123,,,,,,,,,,,,,,,,bars/029.png,bars/mask006.png,,,,,,,,,,,,0,1,,,,,,,6,8,6,8,,,,,,,,,,,510.5527,511.0411,511.2851,515.6311,space,4.3319,,515.6312,33,78,516.6301,516.6301,518.6779,space,2.0207,,0,21,21,21,1,90,45,,,,,,,,
,,6130ceb2390f7cb3284f33a9,65af55a5ebaa6ae4e2c7565f,2024-01-23_08h01.49.021,bars,2023.2.3,Win32,59.88023952,657b66ea316d21385b68909f,,,,,,,,,,,518.6785,519.6773,,,520.1768,520.4264,,124,124,,,,,,,,,,,,,,,,bars/007.png,bars/mask005.png,,,,,,,,,,,,0,1,,,,,,,4,6,4,7,,,,,,,,,,,519.6774,520.1767,520.4264,520.976,space,0.5201,,520.9761,51,69,521.9756,521.9756,525.6215,space,3.6212,,0,22,22,22,1,175,55,,,,,,,,
,,6130ceb2390f7cb3284f33a9,65af55a5ebaa6ae4e2c7565f,2024-01-23_08h01.49.021,bars,2023.2.3,Win32,59.88023952,657b66ea316d21385b68909f,,,,,,,,,,,525.6222,526.6204,,,527.1203,527.3698,,2,182,,,,,,,,,,,,,,,,bars/025.png,bars/mask002.png,,,,,,,,,,,,0,2,,,,,,,6,4,7,4,,,,,,,,,,,526.6205,527.1202,527.3698,534.3139,space,6.9364,,534.3139,77,38,535.3125,535.3126,536.8447,space,1.4917,,0,23,23,23,1,105,40,,,,,,,,
,,6130ceb2390f7cb3284f33a9,65af55a5ebaa6ae4e2c7565f,2024-01-23_08h01.49.021,bars,2023.2.3,Win32,59.88023952,657b66ea316d21385b68909f,,,,,,,,,,,536.8453,537.8435,,,538.343,538.5925,,151,151,,,,,,,,,,,,,,,,bars/010.png,bars/mask009.png,,,,,,,,,,,,2,1,,,,,,,4,6,4,5,,,,,,,,,,,537.8436,538.343,538.5926,541.9564,space,3.3561,,541.9564,14,84,542.9552,542.9553,545.4199,space,2.4263,,0,24,24,24,1,165,55,,,,,,,,
,,6130ceb2390f7cb3284f33a9,65af55a5ebaa6ae4e2c7565f,2024-01-23_08h01.49.021,bars,2023.2.3,Win32,59.88023952,657b66ea316d21385b68909f,,,,,,,,,,,545.4209,546.4189,,,546.918,547.1681,,116,116,,,,,,,,,,,,,,,,bars/049.png,bars/mask008.png,,,,,,,,,,,,7,2,,,,,,,6,8,5,7,,,,,,,,,,,546.419,546.918,547.1682,548.6503,space,1.4503,,548.6504,44,1,549.6491,549.6491,552.6625,space,2.9874,,0,25,25,25,1,160,115,,,,,,,,
,,6130ceb2390f7cb3284f33a9,65af55a5ebaa6ae4e2c7565f,2024-01-23_08h01.49.021,bars,2023.2.3,Win32,59.88023952,657b66ea316d21385b68909f,,,,,,,,,,,552.673,553.6619,,,554.1617,554.4113,,120,-60,,,,,,,,,,,,,,,,bars/029.png,bars/mask003.png,,,,,,,,,,,,0,1,,,,,,,4,10,4,9,,,,,,,,,,,553.662,554.1616,554.4114,560.04,space,5.5992,,560.0401,30,75,561.0381,561.0381,568.9038,space,7.8438,,0,26,26,26,1,90,45,,,,,,,,
,,6130ceb2390f7cb3284f33a9,65af55a5ebaa6ae4e2c7565f,2024-01-23_08h01.49.021,bars,2023.2.3,Win32,59.88023952,657b66ea316d21385b68909f,,,,,,,,,,,568.924,569.9133,,,570.4128,570.6625,,175,175,,,,,,,,,,,,,,,,bars/046.png,bars/mask007.png,,,,,,,,,,,,2,1,,,,,,,6,10,6,10,,,,,,,,,,,569.9133,570.4128,570.6625,575.7251,space,5.0305,,575.7252,20,90,576.7239,576.7239,579.721,space,2.9528,,0,27,27,27,1,155,85,,,,,,,,
,,6130ceb2390f7cb3284f33a9,65af55a5ebaa6ae4e2c7565f,2024-01-23_08h01.49.021,bars,2023.2.3,Win32,59.88023952,657b66ea316d21385b68909f,,,,,,,,,,,579.7214,580.7199,,,581.2198,581.4694,,150,150,,,,,,,,,,,,,,,,bars/030.png,bars/mask001.png,,,,,,,,,,,,3,1,,,,,,,4,8,4,9,,,,,,,,,,,580.72,581.2198,581.4694,586.1984,space,4.7133,,586.1985,10,85,587.1976,587.1976,588.7963,space,1.5578,,0,28,28,28,1,140,65,,,,,,,,
,,6130ceb2390f7cb3284f33a9,65af55a5ebaa6ae4e2c7565f,2024-01-23_08h01.49.021,bars,2023.2.3,Win32,59.88023952,657b66ea316d21385b68909f,,,,,,,,,,,588.7974,589.7949,,,590.2946,590.5443,,71,71,,,,,,,,,,,,,,,,bars/018.png,bars/mask003.png,,,,,,,,,,,,4,2,,,,,,,6,10,6,10,,,,,,,,,,,589.795,590.2946,590.5443,596.6385,space,6.0883,,596.6386,79,19,597.638,597.6381,601.268,space,3.5871,,0,29,29,29,1,150,90,,,,,,,,
,,6130ceb2390f7cb3284f33a9,65af55a5ebaa6ae4e2c7565f,2024-01-23_08h01.49.021,bars,2023.2.3,Win32,59.88023952,657b66ea316d21385b68909f,,,,,,,,,,,601.29,602.2832,,,602.783,603.0323,,166,166,,,,,,,,,,,,,,,,bars/023.png,bars/mask006.png,,,,,,,,,,,,0,1,,,,,,,8,8,7,7,,,,,,,,,,,602.2832,602.783,603.0323,656.4659,space,53.423,,656.4659,34,51,657.4653,657.4655,661.0117,space,3.5071,,0,30,30,30,1,20,115,,,,,,,,
,,6130ceb2390f7cb3284f33a9,65af55a5ebaa6ae4e2c7565f,2024-01-23_08h01.49.021,bars,2023.2.3,Win32,59.88023952,657b66ea316d21385b68909f,,,,,,,,,,,661.0126,662.0108,,,662.5106,662.76,,40,220,,,,,,,,,,,,,,,,bars/023.png,bars/mask006.png,,,,,,,,,,,,3,1,,,,,,,10,6,10,8,,,,,,,,,,,662.0108,662.5106,662.76,666.6067,space,3.8312,,666.6067,20,75,667.6056,667.6057,669.3378,space,1.6931,,0,31,31,31,1,20,115,,,,,,,,
,,6130ceb2390f7cb3284f33a9,65af55a5ebaa6ae4e2c7565f,2024-01-23_08h01.49.021,bars,2023.2.3,Win32,59.88023952,657b66ea316d21385b68909f,,,,,,,,,,,669.3388,670.3365,,,670.8364,671.086,,159,-21,,,,,,,,,,,,,,,,bars/034.png,bars/mask002.png,,,,,,,,,,,,0,1,,,,,,,8,8,8,8,,,,,,,,,,,670.3365,670.8364,671.0862,676.1647,space,5.0506,,676.1649,34,86,677.1632,677.1632,678.479,space,1.2774,,0,32,32,32,1,125,65,,,,,,,,
,,6130ceb2390f7cb3284f33a9,65af55a5ebaa6ae4e2c7565f,2024-01-23_08h01.49.021,bars,2023.2.3,Win32,59.88023952,657b66ea316d21385b68909f,,,,,,,,,,,678.4797,679.4776,,,679.9776,680.2269,,139,-41,,,,,,,,,,,,,,,,bars/033.png,bars/mask008.png,,,,,,,,,,,,4,2,,,,,,,6,10,6,8,,,,,,,,,,,679.4777,679.9775,680.2269,685.6387,space,5.3962,,685.6389,66,16,686.6375,686.6375,687.7037,space,1.0421,,0,33,33,33,1,25,155,,,,,,,,
,,6130ceb2390f7cb3284f33a9,65af55a5ebaa6ae4e2c7565f,2024-01-23_08h01.49.021,bars,2023.2.3,Win32,59.88023952,657b66ea316d21385b68909f,,,,,,,,,,,687.7043,688.7025,,,689.2018,689.4519,,33,33,,,,,,,,,,,,,,,,bars/041.png,bars/mask007.png,,,,,,,,,,,,2,1,,,,,,,4,10,3,8,,,,,,,,,,,688.7025,689.2018,689.452,694.6637,space,5.2014,,694.6638,13,52,695.6629,695.6629,699.3431,space,3.636,,0,34,34,34,1,20,85,,,,,,,,
,,6130ceb2390f7cb3284f33a9,65af55a5ebaa6ae4e2c7565f,2024-01-23_08h01.49.021,bars,2023.2.3,Win32,59.88023952,657b66ea316d21385b68909f,,,,,,,,,,,699.3439,700.3415,,,700.8414,701.091,,168,-12,,,,,,,,,,,,,,,,bars/043.png,bars/mask004.png,,,,,,,,,,,,0,2,,,,,,,6,8,5,8,,,,,,,,,,,700.3416,700.8413,701.0911,707.8019,space,6.6963,,707.802,42,38,708.8007,708.8008,714.0289,space,5.1934,,0,35,35,35,1,30,130,,,,,,,,
,,6130ceb2390f7cb3284f33a9,65af55a5ebaa6ae4e2c7565f,2024-01-23_08h01.49.021,bars,2023.2.3,Win32,59.88023952,657b66ea316d21385b68909f,,,,,,,,,,,714.0546,715.0331,,,715.5279,715.7657,,41,221,,,,,,,,,,,,,,,,bars/031.png,bars/mask006.png,,,,,,,,,,,,8,2,,,,,,,8,10,9,10,,,,,,,,,,,715.0332,715.5278,715.7657,721.3558,space,5.5677,,721.3559,79,6,722.359,722.359,724.4085,space,2.0292,,0,36,36,36,1,120,35,,,,,,,,
,,6130ceb2390f7cb3284f33a9,65af55a5ebaa6ae4e2c7565f,2024-01-23_08h01.49.021,bars,2023.2.3,Win32,59.88023952,657b66ea316d21385b68909f,,,,,,,,,,,724.4089,725.4017,,,725.9012,726.1508,,135,135,,,,,,,,,,,,,,,,bars/043.png,bars/mask009.png,,,,,,,,,,,,8,2,,,,,,,10,10,10,10,,,,,,,,,,,725.4017,725.901,726.1508,732.2454,space,6.0794,,732.2455,75,5,733.2442,733.2443,735.0925,space,1.8131,,0,37,37,37,1,30,130,,,,,,,,
,,6130ceb2390f7cb3284f33a9,65af55a5ebaa6ae4e2c7565f,2024-01-23_08h01.49.021,bars,2023.2.3,Win32,59.88023952,657b66ea316d21385b68909f,,,,,,,,,,,735.0932,736.0917,,,736.5801,736.8247,,124,124,,,,,,,,,,,,,,,,bars/004.png,bars/mask005.png,,,,,,,,,,,,10,2,,,,,,,8,10,7,10,,,,,,,,,,,736.0918,736.58,736.8249,737.9234,space,1.0667,,737.9235,81,1,738.9218,738.9218,740.7875,space,1.8344,,0,38,38,38,1,25,125,,,,,,,,
,,6130ceb2390f7cb3284f33a9,65af55a5ebaa6ae4e2c7565f,2024-01-23_08h01.49.021,bars,2023.2.3,Win32,59.88023952,657b66ea316d21385b68909f,,,,,,,,,,,740.7885,741.7864,,,742.2859,742.5356,,164,164,,,,,,,,,,,,,,,,bars/037.png,bars/mask007.png,,,,,,,,,,,,5,1,,,,,,,10,8,9,9,,,,,,,,,,,741.7865,742.2858,742.5356,743.0685,space,0.5166,,743.0685,14,59,744.0675,744.0676,746.9487,space,2.8472,,0,39,39,39,1,150,105,,,,,,,,
,,6130ceb2390f7cb3284f33a9,65af55a5ebaa6ae4e2c7565f,2024-01-23_08h01.49.021,bars,2023.2.3,Win32,59.88023952,657b66ea316d21385b68909f,,,,,,,,,,,746.9498,747.9474,,,748.4469,748.6966,,149,149,,,,,,,,,,,,,,,,bars/005.png,bars/mask005.png,,,,,,,,,,,,4,2,,,,,,,8,6,7,6,,,,,,,,,,,747.9474,748.4469,748.6966,751.4608,space,2.7539,,751.4609,41,9,752.4599,752.46,753.3422,space,0.8368,,0,40,40,40,1,10,140,,,,,,,,
,,6130ceb2390f7cb3284f33a9,65af55a5ebaa6ae4e2c7565f,2024-01-23_08h01.49.021,bars,2023.2.3,Win32,59.88023952,657b66ea316d21385b68909f,,,,,,,,,,,753.3428,754.3413,,,754.8407,755.0907,,125,125,,,,,,,,,,,,,,,,bars/034.png,bars/mask001.png,,,,,,,,,,,,6,1,,,,,,,6,4,6,4,,,,,,,,,,,754.3413,754.8406,755.0907,760.885,space,5.7826,,760.885,0,60,761.885,761.885,763.7495,space,1.8214,,0,41,41,41,1,125,65,,,,,,,,
,,6130ceb2390f7cb3284f33a9,65af55a5ebaa6ae4e2c7565f,2024-01-23_08h01.49.021,bars,2023.2.3,Win32,59.88023952,657b66ea316d21385b68909f,,,,,,,,,,,763.7503,764.7484,,,765.2477,765.4972,,60,60,,,,,,,,,,,,,,,,bars/011.png,bars/mask006.png,,,,,,,,,,,,0,2,,,,,,,4,2,3,3,,,,,,,,,,,764.7485,765.2477,765.4972,772.2915,space,6.7879,,772.2916,80,25,773.2904,773.2905,775.5885,space,2.2617,,0,42,42,42,1,160,85,,,,,,,,
,,6130ceb2390f7cb3284f33a9,65af55a5ebaa6ae4e2c7565f,2024-01-23_08h01.49.021,bars,2023.2.3,Win32,59.88023952,657b66ea316d21385b68909f,,,,,,,,,,,775.5892,776.5871,,,777.0868,777.3365,,77,77,,,,,,,,,,,,,,,,bars/041.png,bars/mask007.png,,,,,,,,,,,,0,2,,,,,,,6,0,6,0,,,,,,,,,,,776.5872,777.0868,777.3365,782.7484,space,5.4028,,782.7484,57,8,783.7474,783.7475,785.6123,space,1.8321,,0,43,43,43,1,20,85,,,,,,,,
,,6130ceb2390f7cb3284f33a9,65af55a5ebaa6ae4e2c7565f,2024-01-23_08h01.49.021,bars,2023.2.3,Win32,59.88023952,657b66ea316d21385b68909f,,,,,,,,,,,785.613,786.6109,,,787.1109,787.3604,,29,29,,,,,,,,,,,,,,,,bars/005.png,bars/mask009.png,,,,,,,,,,,,1,1,,,,,,,4,2,2,2,,,,,,,,,,,786.6109,787.1109,787.3604,791.6233,space,4.2496,,791.6234,19,69,792.6222,792.6222,795.2699,space,2.6047,,0,44,44,44,1,10,140,,,,,,,,
,,6130ceb2390f7cb3284f33a9,65af55a5ebaa6ae4e2c7565f,2024-01-23_08h01.49.021,bars,2023.2.3,Win32,59.88023952,657b66ea316d21385b68909f,,,,,,,,,,,795.2707,796.269,,,796.7685,797.0182,,37,37,,,,,,,,,,,,,,,,bars/020.png,bars/mask005.png,,,,,,,,,,,,0,2,,,,,,,2,0,1,1,,,,,,,,,,,796.269,796.7685,797.0183,798.3006,space,1.2667,,798.3007,78,47,799.2993,799.2994,799.9819,space,0.667,,0,45,45,45,1,115,170,,,,,,,,
,,6130ceb2390f7cb3284f33a9,65af55a5ebaa6ae4e2c7565f,2024-01-23_08h01.49.021,bars,2023.2.3,Win32,59.88023952,657b66ea316d21385b68909f,,,,,,,,,,,799.9826,800.9809,,,801.4807,801.7304,,124,124,,,,,,,,,,,,,,,,bars/014.png,bars/mask008.png,,,,,,,,,,,,0,1,,,,,,,0,2,0,2,,,,,,,,,,,800.9809,801.4806,801.7304,808.5239,space,6.7826,,808.5239,44,56,809.5233,809.5233,811.6709,space,2.1047,,0,46,46,46,1,80,0,,,,,,,,
,,6130ceb2390f7cb3284f33a9,65af55a5ebaa6ae4e2c7565f,2024-01-23_08h01.49.021,bars,2023.2.3,Win32,59.88023952,657b66ea316d21385b68909f,,,,,,,,,,,811.6712,812.6701,,,813.1698,813.4196,,55,55,,,,,,,,,,,,,,,,bars/046.png,bars/mask005.png,,,,,,,,,,,,0,2,,,,,,,2,4,3,4,,,,,,,,,,,812.6702,813.1697,813.4197,816.2834,space,2.8501,,816.2835,80,30,817.2825,817.2825,817.4496,space,0.1252,,0,47,47,47,1,155,85,,,,,,,,
,,6130ceb2390f7cb3284f33a9,65af55a5ebaa6ae4e2c7565f,2024-01-23_08h01.49.021,bars,2023.2.3,Win32,59.88023952,657b66ea316d21385b68909f,,,,,,,,,,,817.4503,818.4485,,,818.948,819.1976,,83,263,,,,,,,,,,,,,,,,bars/014.png,bars/mask007.png,,,,,,,,,,,,4,1,,,,,,,4,2,4,4,,,,,,,,,,,818.4486,818.9479,819.1978,824.0595,space,4.8543,,824.0595,3,83,825.0592,825.0592,828.2398,space,3.1409,,0,48,48,48,1,80,0,,,,,,,,
,,6130ceb2390f7cb3284f33a9,65af55a5ebaa6ae4e2c7565f,2024-01-23_08h01.49.021,bars,2023.2.3,Win32,59.88023952,657b66ea316d21385b68909f,,,,,,,,,,,828.2657,829.255,,,829.7545,830.0039,,133,133,,,,,,,,,,,,,,,,bars/008.png,bars/mask009.png,,,,,,,,,,,,2,1,,,,,,,6,4,7,3,,,,,,,,,,,829.2551,829.7544,830.0039,834.7836,space,4.7641,,834.7837,23,47,835.7817,835.7818,837.3974,space,1.5827,,0,49,49,49,1,110,0,,,,,,,,
,,6130ceb2390f7cb3284f33a9,65af55a5ebaa6ae4e2c7565f,2024-01-23_08h01.49.021,bars,2023.2.3,Win32,59.88023952,657b66ea316d21385b68909f,,,,,,,,,,,,,,,,,,,,,,,,,,,,,,,,,,,,,,,,,,,,,,,,,,,,,,,,,,,,,,,,,,,,,,,,,,,,,,,,,,,,,,,,,,,,,837.3989,897.3932,0,0,0,2,1,sequence_tables/blk025.csv
,,6130ceb2390f7cb3284f33a9,65af55a5ebaa6ae4e2c7565f,2024-01-23_08h01.49.021,bars,2023.2.3,Win32,59.88023952,657b66ea316d21385b68909f,,,,,,,,,,,905.2285,906.2328,,,906.7327,906.9819,,59,59,,,,,,,,,,,,,,,,bars/002.png,bars/mask000.png,,,,,,,,,,,,0,2,,,,,,,10,1,8,0,,,,,,897.4154,905.2168,space,7.7909,,906.2328,906.7326,906.9819,936.9211,space,29.9236,,936.9212,71,26,937.9198,937.9199,937.9437,,,,0,0,0,0,1,130,85,,,,,,,,
,,6130ceb2390f7cb3284f33a9,65af55a5ebaa6ae4e2c7565f,2024-01-23_08h01.49.021,bars,2023.2.3,Win32,59.88023952,657b66ea316d21385b68909f,,,,,,,,,,,937.944,938.936,,,939.4353,939.6855,,59,239,,,,,,,,,,,,,,,,bars/024.png,bars/mask000.png,,,,,,,,,,,,0,1,,,,,,,8,0,8,0,,,,,,,,,,,938.9361,939.4352,939.6855,943.9977,space,4.2989,,943.9978,61,69,944.9964,944.9964,945.0126,,,,0,1,1,1,1,120,170,,,,,,,,
,,6130ceb2390f7cb3284f33a9,65af55a5ebaa6ae4e2c7565f,2024-01-23_08h01.49.021,bars,2023.2.3,Win32,59.88023952,657b66ea316d21385b68909f,,,,,,,,,,,945.0127,946.0129,,,946.5132,946.7619,,141,141,,,,,,,,,,,,,,,,bars/043.png,bars/mask006.png,,,,,,,,,,,,0,2,,,,,,,6,0,5,0,,,,,,,,,,,946.0129,946.5131,946.762,948.1109,space,1.3328,,948.1109,69,11,949.1099,949.11,949.1135,,,,0,2,2,2,1,30,130,,,,,,,,
,,6130ceb2390f7cb3284f33a9,65af55a5ebaa6ae4e2c7565f,2024-01-23_08h01.49.021,bars,2023.2.3,Win32,59.88023952,657b66ea316d21385b68909f,,,,,,,,,,,949.1141,950.1084,,,950.6084,950.8579,,139,-41,,,,,,,,,,,,,,,,bars/031.png,bars/mask003.png,,,,,,,,,,,,1,1,,,,,,,4,2,3,0,,,,,,,,,,,950.1085,950.6083,950.858,955.5203,space,4.6461,,955.5204,19,76,956.5192,956.5192,956.5421,,,,0,3,3,3,1,120,35,,,,,,,,
,,6130ceb2390f7cb3284f33a9,65af55a5ebaa6ae4e2c7565f,2024-01-23_08h01.49.021,bars,2023.2.3,Win32,59.88023952,657b66ea316d21385b68909f,,,,,,,,,,,956.5424,957.5352,,,958.0348,958.2845,,113,113,,,,,,,,,,,,,,,,bars/024.png,bars/mask000.png,,,,,,,,,,,,4,1,,,,,,,6,0,5,0,,,,,,,,,,,957.5353,958.0348,958.2845,959.3668,space,1.0666,,959.3668,7,57,960.366,960.3661,960.3675,,,,0,4,4,4,1,120,170,,,,,,,,
,,6130ceb2390f7cb3284f33a9,65af55a5ebaa6ae4e2c7565f,2024-01-23_08h01.49.021,bars,2023.2.3,Win32,59.88023952,657b66ea316d21385b68909f,,,,,,,,,,,960.3681,961.365,,,961.8642,962.1144,,105,105,,,,,,,,,,,,,,,,bars/024.png,bars/mask001.png,,,,,,,,,,,,5,1,,,,,,,8,2,10,5,,,,,,,,,,,961.3651,961.8641,962.1144,963.48,space,1.35,,963.48,15,65,964.4788,964.4788,964.5037,,,,0,5,5,5,1,120,170,,,,,,,,
,,6130ceb2390f7cb3284f33a9,65af55a5ebaa6ae4e2c7565f,2024-01-23_08h01.49.021,bars,2023.2.3,Win32,59.88023952,657b66ea316d21385b68909f,,,,,,,,,,,964.5039,965.4946,,,965.9933,966.2438,,146,146,,,,,,,,,,,,,,,,bars/028.png,bars/mask000.png,,,,,,,,,,,,0,2,,,,,,,10,0,10,1,,,,,,,,,,,965.4946,965.9933,966.2439,968.9079,space,2.6518,,968.908,79,26,969.9069,969.907,969.9106,,,,0,6,6,6,1,45,120,,,,,,,,
,,6130ceb2390f7cb3284f33a9,65af55a5ebaa6ae4e2c7565f,2024-01-23_08h01.49.021,bars,2023.2.3,Win32,59.88023952,657b66ea316d21385b68909f,,,,,,,,,,,969.9112,970.906,,,971.4056,971.6555,,138,138,,,,,,,,,,,,,,,,bars/033.png,bars/mask000.png,,,,,,,,,,,,0,2,,,,,,,10,0,10,0,,,,,,,,,,,970.9061,971.4056,971.6555,972.5548,space,0.8837,,972.5549,67,17,973.5536,973.5536,973.555,,,,0,7,7,7,1,25,155,,,,,,,,
,,6130ceb2390f7cb3284f33a9,65af55a5ebaa6ae4e2c7565f,2024-01-23_08h01.49.021,bars,2023.2.3,Win32,59.88023952,657b66ea316d21385b68909f,,,,,,,,,,,973.5554,974.5529,,,975.0523,975.3022,,43,43,,,,,,,,,,,,,,,,bars/044.png,bars/mask002.png,,,,,,,,,,,,0,1,,,,,,,10,0,8,0,,,,,,,,,,,974.5529,975.0522,975.3022,978.0992,space,2.7858,,978.0992,32,68,979.0984,979.0984,979.1228,,,,0,8,8,8,1,75,155,,,,,,,,
,,6130ceb2390f7cb3284f33a9,65af55a5ebaa6ae4e2c7565f,2024-01-23_08h01.49.021,bars,2023.2.3,Win32,59.88023952,657b66ea316d21385b68909f,,,,,,,,,,,979.123,980.1139,,,980.6131,980.8637,,46,226,,,,,,,,,,,,,,,,bars/007.png,bars/mask005.png,,,,,,,,,,,,0,2,,,,,,,8,0,9,0,,,,,,,,,,,980.114,980.6131,980.8637,989.4224,space,8.5428,,989.4225,51,9,990.4208,990.421,990.444,,,,0,9,9,9,1,175,55,,,,,,,,
,,6130ceb2390f7cb3284f33a9,65af55a5ebaa6ae4e2c7565f,2024-01-23_08h01.49.021,bars,2023.2.3,Win32,59.88023952,657b66ea316d21385b68909f,,,,,,,,,,,990.4443,991.4365,,,991.9366,992.1862,,162,162,,,,,,,,,,,,,,,,bars/035.png,bars/mask005.png,,,,,,,,,,,,4,1,,,,,,,10,2,7,4,,,,,,,,,,,991.4366,991.9366,992.1863,993.2854,space,1.0834,,993.2854,13,78,994.2844,994.2846,994.2892,,,,0,10,10,10,1,175,60,,,,,,,,
,,6130ceb2390f7cb3284f33a9,65af55a5ebaa6ae4e2c7565f,2024-01-23_08h01.49.021,bars,2023.2.3,Win32,59.88023952,657b66ea316d21385b68909f,,,,,,,,,,,994.29,995.2832,,,995.7831,996.0328,,57,57,,,,,,,,,,,,,,,,bars/049.png,bars/mask000.png,,,,,,,,,,,,0,2,,,,,,,10,4,10,4,,,,,,,,,,,995.2833,995.7831,996.0328,998.7638,space,2.7155,,998.7638,77,58,999.7624,999.7625,999.7922,,,,0,11,11,11,1,160,115,,,,,,,,
,,6130ceb2390f7cb3284f33a9,65af55a5ebaa6ae4e2c7565f,2024-01-23_08h01.49.021,bars,2023.2.3,Win32,59.88023952,657b66ea316d21385b68909f,,,,,,,,,,,999.7925,1000.7946,,,1001.2937,1001.5436,,32,32,,,,,,,,,,,,,,,,bars/017.png,bars/mask008.png,,,,,,,,,,,,5,2,,,,,,,8,6,7,8,,,,,,,,,,,1000.7946,1001.2937,1001.5436,1002.5595,space,1.0102,,1002.5596,67,13,1003.5588,1003.5588,1003.5604,,,,0,12,12,12,1,145,45,,,,,,,,
,,6130ceb2390f7cb3284f33a9,65af55a5ebaa6ae4e2c7565f,2024-01-23_08h01.49.021,bars,2023.2.3,Win32,59.88023952,657b66ea316d21385b68909f,,,,,,,,,,,1003.5609,1004.5577,,,1005.0569,1005.3068,,163,-17,,,,,,,,,,,,,,,,bars/022.png,bars/mask007.png,,,,,,,,,,,,0,2,,,,,,,6,4,6,2,,,,,,,,,,,1004.5579,1005.0569,1005.3068,1007.6218,space,2.3015,,1007.622,68,37,1008.6204,1008.6204,1008.6345,,,,0,13,13,13,1,95,20,,,,,,,,
,,6130ceb2390f7cb3284f33a9,65af55a5ebaa6ae4e2c7565f,2024-01-23_08h01.49.021,bars,2023.2.3,Win32,59.88023952,657b66ea316d21385b68909f,,,,,,,,,,,1008.6347,1009.6361,,,1010.1355,1010.3856,,56,56,,,,,,,,,,,,,,,,bars/005.png,bars/mask006.png,,,,,,,,,,,,0,1,,,,,,,4,6,4,6,,,,,,,,,,,1009.6361,1010.1354,1010.3856,1011.3184,space,0.9158,,1011.3185,46,84,1012.3171,1012.3172,1012.3205,,,,0,14,14,14,1,10,140,,,,,,,,
,,6130ceb2390f7cb3284f33a9,65af55a5ebaa6ae4e2c7565f,2024-01-23_08h01.49.021,bars,2023.2.3,Win32,59.88023952,657b66ea316d21385b68909f,,,,,,,,,,,1012.321,1013.3163,,,1013.8157,1014.0651,,55,55,,,,,,,,,,,,,,,,bars/010.png,bars/mask006.png,,,,,,,,,,,,3,2,,,,,,,6,4,5,3,,,,,,,,,,,1013.3164,1013.8157,1014.0651,1015.015,space,0.9353,,1015.015,70,0,1016.0135,1016.0136,1016.0167,,,,0,15,15,15,1,165,55,,,,,,,,
,,6130ceb2390f7cb3284f33a9,65af55a5ebaa6ae4e2c7565f,2024-01-23_08h01.49.021,bars,2023.2.3,Win32,59.88023952,657b66ea316d21385b68909f,,,,,,,,,,,1016.0172,1017.0125,,,1017.5123,1017.7618,,3,3,,,,,,,,,,,,,,,,bars/016.png,bars/mask003.png,,,,,,,,,,,,1,2,,,,,,,4,2,3,3,,,,,,,,,,,1017.0125,1017.5123,1017.7618,1018.7942,space,1.0175,,1018.7942,37,18,1019.7934,1019.7934,1019.7948,,,,0,16,16,16,1,40,165,,,,,,,,
,,6130ceb2390f7cb3284f33a9,65af55a5ebaa6ae4e2c7565f,2024-01-23_08h01.49.021,bars,2023.2.3,Win32,59.88023952,657b66ea316d21385b68909f,,,,,,,,,,,1019.7954,1020.7924,,,1021.2923,1021.542,,0,0,,,,,,,,,,,,,,,,bars/002.png,bars/mask002.png,,,,,,,,,,,,0,1,,,,,,,2,4,2,4,,,,,,,,,,,1020.7924,1021.2922,1021.5421,1036.5613,space,15.012,,1036.5614,50,85,1037.5601,1037.5602,1037.5832,,,,0,17,17,17,1,130,85,,,,,,,,
,,6130ceb2390f7cb3284f33a9,65af55a5ebaa6ae4e2c7565f,2024-01-23_08h01.49.021,bars,2023.2.3,Win32,59.88023952,657b66ea316d21385b68909f,,,,,,,,,,,1037.5835,1038.5759,,,1039.0754,1039.3251,,39,219,,,,,,,,,,,,,,,,bars/016.png,bars/mask004.png,,,,,,,,,,,,0,1,,,,,,,0,2,0,2,,,,,,,,,,,1038.5759,1039.0753,1039.3251,1044.8699,space,5.5324,,1044.8701,1,54,1045.8692,1045.8693,1045.8912,,,,0,18,18,18,1,40,165,,,,,,,,
,,6130ceb2390f7cb3284f33a9,65af55a5ebaa6ae4e2c7565f,2024-01-23_08h01.49.021,bars,2023.2.3,Win32,59.88023952,657b66ea316d21385b68909f,,,,,,,,,,,1045.8914,1046.8847,,,1047.3842,1047.634,,81,81,,,,,,,,,,,,,,,,bars/011.png,bars/mask007.png,,,,,,,,,,,,3,2,,,,,,,0,4,0,4,,,,,,,,,,,1046.8849,1047.3842,1047.634,1047.9005,space,0.2517,,1047.9005,79,4,1048.8994,1048.8994,1048.9008,,,,0,19,19,19,1,160,85,,,,,,,,
,,6130ceb2390f7cb3284f33a9,65af55a5ebaa6ae4e2c7565f,2024-01-23_08h01.49.021,bars,2023.2.3,Win32,59.88023952,657b66ea316d21385b68909f,,,,,,,,,,,1048.901,1049.8988,,,1050.3979,1050.6481,,98,98,,,,,,,,,,,,,,,,bars/047.png,bars/mask000.png,,,,,,,,,,,,0,2,,,,,,,2,2,1,3,,,,,,,,,,,1049.8989,1050.3979,1050.6481,1051.4306,space,0.7745,,1051.4307,83,28,1052.4299,1052.43,1052.4318,,,,0,20,20,20,1,15,70,,,,,,,,
,,6130ceb2390f7cb3284f33a9,65af55a5ebaa6ae4e2c7565f,2024-01-23_08h01.49.021,bars,2023.2.3,Win32,59.88023952,657b66ea316d21385b68909f,,,,,,,,,,,1052.4329,1053.429,,,1053.9283,1054.178,,86,86,,,,,,,,,,,,,,,,bars/032.png,bars/mask007.png,,,,,,,,,,,,0,1,,,,,,,0,4,0,5,,,,,,,,,,,1053.429,1053.9282,1054.178,1054.7283,space,0.5447,,1054.7285,39,66,1055.7316,1055.7317,1055.7344,,,,0,21,21,21,1,125,20,,,,,,,,
,,6130ceb2390f7cb3284f33a9,65af55a5ebaa6ae4e2c7565f,2024-01-23_08h01.49.021,bars,2023.2.3,Win32,59.88023952,657b66ea316d21385b68909f,,,,,,,,,,,1055.7348,1056.7255,,,1057.2253,1057.4748,,111,111,,,,,,,,,,,,,,,,bars/001.png,bars/mask003.png,,,,,,,,,,,,1,1,,,,,,,2,2,2,2,,,,,,,,,,,1056.7255,1057.2252,1057.4748,1058.5241,space,1.0429,,1058.5242,19,26,1059.5228,1059.5228,1059.5244,,,,0,22,22,22,1,130,85,,,,,,,,
,,6130ceb2390f7cb3284f33a9,65af55a5ebaa6ae4e2c7565f,2024-01-23_08h01.49.021,bars,2023.2.3,Win32,59.88023952,657b66ea316d21385b68909f,,,,,,,,,,,1059.5251,1060.5218,,,1061.0218,1061.2708,,62,62,,,,,,,,,,,,,,,,bars/021.png,bars/mask007.png,,,,,,,,,,,,1,2,,,,,,,0,4,0,2,,,,,,,,,,,1060.5218,1061.0217,1061.2709,1066.8333,space,5.547,,1066.8334,87,8,1067.8373,1067.8373,1067.8613,,,,0,23,23,23,1,155,70,,,,,,,,
,,6130ceb2390f7cb3284f33a9,65af55a5ebaa6ae4e2c7565f,2024-01-23_08h01.49.021,bars,2023.2.3,Win32,59.88023952,657b66ea316d21385b68909f,,,,,,,,,,,1067.8615,1068.864,,,1069.3639,1069.6133,,176,176,,,,,,,,,,,,,,,,bars/014.png,bars/mask002.png,,,,,,,,,,,,1,2,,,,,,,2,2,2,1,,,,,,,,,,,1068.864,1069.3638,1069.6134,1070.8792,space,1.2588,,1070.8792,84,4,1071.8779,1071.8779,1071.8935,,,,0,24,24,24,1,80,0,,,,,,,,
,,6130ceb2390f7cb3284f33a9,65af55a5ebaa6ae4e2c7565f,2024-01-23_08h01.49.021,bars,2023.2.3,Win32,59.88023952,657b66ea316d21385b68909f,,,,,,,,,,,1071.8938,1072.8935,,,1073.393,1073.6429,,24,24,,,,,,,,,,,,,,,,bars/010.png,bars/mask001.png,,,,,,,,,,,,0,2,,,,,,,4,4,3,5,,,,,,,,,,,1072.8935,1073.393,1073.6429,1074.4593,space,0.8005,,1074.4594,39,31,1075.4583,1075.4583,1075.46,,,,0,25,25,25,1,165,55,,,,,,,,
,,6130ceb2390f7cb3284f33a9,65af55a5ebaa6ae4e2c7565f,2024-01-23_08h01.49.021,bars,2023.2.3,Win32,59.88023952,657b66ea316d21385b68909f,,,,,,,,,,,1075.4612,1076.4569,,,1076.9568,1077.2064,,44,44,,,,,,,,,,,,,,,,bars/036.png,bars/mask002.png,,,,,,,,,,,,1,2,,,,,,,6,2,6,3,,,,,,,,,,,1076.4569,1076.9568,1077.2064,1077.8066,space,0.5889,,1077.8067,79,24,1078.805,1078.805,1078.8066,,,,0,26,26,26,1,145,20,,,,,,,,
,,6130ceb2390f7cb3284f33a9,65af55a5ebaa6ae4e2c7565f,2024-01-23_08h01.49.021,bars,2023.2.3,Win32,59.88023952,657b66ea316d21385b68909f,,,,,,,,,,,1078.8072,1079.8041,,,1080.3036,1080.5532,,20,20,,,,,,,,,,,,,,,,bars/035.png,bars/mask005.png,,,,,,,,,,,,1,1,,,,,,,8,4,7,4,,,,,,,,,,,1079.8042,1080.3036,1080.5532,1082.068,space,1.506,,1082.0681,25,40,1083.0673,1083.0673,1083.0685,,,,0,27,27,27,1,175,60,,,,,,,,
,,6130ceb2390f7cb3284f33a9,65af55a5ebaa6ae4e2c7565f,2024-01-23_08h01.49.021,bars,2023.2.3,Win32,59.88023952,657b66ea316d21385b68909f,,,,,,,,,,,1083.0686,1084.0668,,,1084.5662,1084.8158,,148,148,,,,,,,,,,,,,,,,bars/027.png,bars/mask008.png,,,,,,,,,,,,0,1,,,,,,,10,6,10,5,,,,,,,,,,,1084.0669,1084.5661,1084.8159,1086.0315,space,1.2021,,1086.0315,38,82,1087.0307,1087.0308,1087.0324,,,,0,28,28,28,1,110,50,,,,,,,,
,,6130ceb2390f7cb3284f33a9,65af55a5ebaa6ae4e2c7565f,2024-01-23_08h01.49.021,bars,2023.2.3,Win32,59.88023952,657b66ea316d21385b68909f,,,,,,,,,,,1087.033,1088.0299,,,1088.5291,1088.7791,,165,165,,,,,,,,,,,,,,,,bars/031.png,bars/mask000.png,,,,,,,,,,,,0,1,,,,,,,10,4,10,4,,,,,,,,,,,1088.0299,1088.5291,1088.7792,1091.8098,space,3.0139,,1091.8098,45,50,1092.8086,1092.8086,1092.8316,,,,0,29,29,29,1,120,35,,,,,,,,
,,6130ceb2390f7cb3284f33a9,65af55a5ebaa6ae4e2c7565f,2024-01-23_08h01.49.021,bars,2023.2.3,Win32,59.88023952,657b66ea316d21385b68909f,,,,,,,,,,,1092.832,1093.8243,,,1094.3237,1094.5732,,95,95,,,,,,,,,,,,,,,,bars/013.png,bars/mask008.png,,,,,,,,,,,,2,1,,,,,,,8,6,7,5,,,,,,,,,,,1093.8243,1094.3237,1094.5733,1099.3529,space,4.765,,1099.353,20,85,1100.3512,1100.3512,1100.3729,,,,0,30,30,30,1,75,10,,,,,,,,
,,6130ceb2390f7cb3284f33a9,65af55a5ebaa6ae4e2c7565f,2024-01-23_08h01.49.021,bars,2023.2.3,Win32,59.88023952,657b66ea316d21385b68909f,,,,,,,,,,,1100.3731,1101.3675,,,1101.8671,1102.1166,,151,151,,,,,,,,,,,,,,,,bars/039.png,bars/mask001.png,,,,,,,,,,,,1,1,,,,,,,6,8,6,10,,,,,,,,,,,1101.3675,1101.8669,1102.1166,1105.9792,space,3.8487,,1105.9792,24,46,1106.9788,1106.9789,1107.0072,,,,0,31,31,31,1,175,105,,,,,,,,
,,6130ceb2390f7cb3284f33a9,65af55a5ebaa6ae4e2c7565f,2024-01-23_08h01.49.021,bars,2023.2.3,Win32,59.88023952,657b66ea316d21385b68909f,,,,,,,,,,,1107.0074,1108.0107,,,1108.5107,1108.7603,,17,17,,,,,,,,,,,,,,,,bars/008.png,bars/mask002.png,,,,,,,,,,,,4,2,,,,,,,4,10,4,10,,,,,,,,,,,1108.0107,1108.5107,1108.7603,1109.3598,space,0.584,,1109.3599,87,17,1110.3585,1110.3585,1110.3596,,,,0,32,32,32,1,110,0,,,,,,,,
,,6130ceb2390f7cb3284f33a9,65af55a5ebaa6ae4e2c7565f,2024-01-23_08h01.49.021,bars,2023.2.3,Win32,59.88023952,657b66ea316d21385b68909f,,,,,,,,,,,1110.3597,1111.3581,,,1111.8574,1112.1069,,78,78,,,,,,,,,,,,,,,,bars/019.png,bars/mask007.png,,,,,,,,,,,,1,2,,,,,,,2,10,2,9,,,,,,,,,,,1111.3582,1111.8574,1112.1069,1114.7712,space,2.6484,,1114.7712,33,27,1115.7703,1115.7704,1115.7937,,,,0,33,33,33,1,45,105,,,,,,,,
,,6130ceb2390f7cb3284f33a9,65af55a5ebaa6ae4e2c7565f,2024-01-23_08h01.49.021,bars,2023.2.3,Win32,59.88023952,657b66ea316d21385b68909f,,,,,,,,,,,1115.7939,1116.7861,,,1117.2905,1117.5353,,60,60,,,,,,,,,,,,,,,,bars/045.png,bars/mask005.png,,,,,,,,,,,,0,1,,,,,,,0,8,1,7,,,,,,,,,,,1116.7861,1117.2905,1117.5353,1118.3578,space,0.817,,1118.3578,40,50,1119.3502,1119.3502,1119.3522,,,,0,34,34,34,1,100,10,,,,,,,,
,,6130ceb2390f7cb3284f33a9,65af55a5ebaa6ae4e2c7565f,2024-01-23_08h01.49.021,bars,2023.2.3,Win32,59.88023952,657b66ea316d21385b68909f,,,,,,,,,,,1119.3524,1120.3495,,,1120.8492,1121.099,,41,221,,,,,,,,,,,,,,,,bars/035.png,bars/mask009.png,,,,,,,,,,,,3,2,,,,,,,0,10,0,9,,,,,,,,,,,1120.3496,1120.8492,1121.099,1124.7792,space,3.6709,,1124.7794,46,19,1125.778,1125.7781,1125.804,,,,0,35,35,35,1,175,60,,,,,,,,
,,6130ceb2390f7cb3284f33a9,65af55a5ebaa6ae4e2c7565f,2024-01-23_08h01.49.021,bars,2023.2.3,Win32,59.88023952,657b66ea316d21385b68909f,,,,,,,,,,,1125.8042,1126.7933,,,1127.2923,1127.5422,,72,72,,,,,,,,,,,,,,,,bars/033.png,bars/mask008.png,,,,,,,,,,,,0,1,,,,,,,2,8,4,7,,,,,,,,,,,1126.7933,1127.2923,1127.5423,1128.2308,space,0.6833,,1128.2309,47,83,1129.2246,1129.2246,1129.2281,,,,0,36,36,36,1,25,155,,,,,,,,
,,6130ceb2390f7cb3284f33a9,65af55a5ebaa6ae4e2c7565f,2024-01-23_08h01.49.021,bars,2023.2.3,Win32,59.88023952,657b66ea316d21385b68909f,,,,,,,,,,,1129.2285,1130.2233,,,1130.7231,1130.9726,,25,25,,,,,,,,,,,,,,,,bars/008.png,bars/mask009.png,,,,,,,,,,,,1,2,,,,,,,0,6,0,5,,,,,,,,,,,1130.2233,1130.7231,1130.9727,1132.0554,space,1.0587,,1132.0554,85,25,1133.0541,1133.0542,1133.0568,,,,0,37,37,37,1,110,0,,,,,,,,
,,6130ceb2390f7cb3284f33a9,65af55a5ebaa6ae4e2c7565f,2024-01-23_08h01.49.021,bars,2023.2.3,Win32,59.88023952,657b66ea316d21385b68909f,,,,,,,,,,,1133.0572,1134.0533,,,1134.5413,1134.7857,,24,24,,,,,,,,,,,,,,,,bars/001.png,bars/mask002.png,,,,,,,,,,,,0,2,,,,,,,2,8,2,8,,,,,,,,,,,1134.0533,1134.5412,1134.7857,1137.933,space,3.1176,,1137.9331,74,61,1138.932,1138.9321,1138.9487,,,,0,38,38,38,1,130,85,,,,,,,,
,,6130ceb2390f7cb3284f33a9,65af55a5ebaa6ae4e2c7565f,2024-01-23_08h01.49.021,bars,2023.2.3,Win32,59.88023952,657b66ea316d21385b68909f,,,,,,,,,,,1138.949,1139.9476,,,1140.4472,1140.6971,,19,19,,,,,,,,,,,,,,,,bars/038.png,bars/mask003.png,,,,,,,,,,,,0,1,,,,,,,4,10,5,10,,,,,,,,,,,1139.9476,1140.4471,1140.6971,1142.0126,space,1.3015,,1142.0127,34,51,1143.0113,1143.0113,1143.0131,,,,0,39,39,39,1,165,70,,,,,,,,
,,6130ceb2390f7cb3284f33a9,65af55a5ebaa6ae4e2c7565f,2024-01-23_08h01.49.021,bars,2023.2.3,Win32,59.88023952,657b66ea316d21385b68909f,,,,,,,,,,,1143.0134,1144.0105,,,1144.511,1144.7602,,147,147,,,,,,,,,,,,,,,,bars/042.png,bars/mask008.png,,,,,,,,,,,,5,1,,,,,,,6,10,5,10,,,,,,,,,,,1144.0105,1144.5109,1144.7602,1146.9916,space,2.2147,,1146.9918,2,72,1147.9906,1147.9907,1148.0153,,,,0,40,40,40,1,145,75,,,,,,,,
,,6130ceb2390f7cb3284f33a9,65af55a5ebaa6ae4e2c7565f,2024-01-23_08h01.49.021,bars,2023.2.3,Win32,59.88023952,657b66ea316d21385b68909f,,,,,,,,,,,1148.0156,1149.0059,,,1149.494,1149.7392,,128,128,,,,,,,,,,,,,,,,bars/002.png,bars/mask008.png,,,,,,,,,,,,7,1,,,,,,,8,8,8,6,,,,,,,,,,,1149.006,1149.494,1149.7393,1152.7188,space,2.9621,,1152.719,2,43,1153.7186,1153.7187,1153.7425,,,,0,41,41,41,1,130,85,,,,,,,,
,,6130ceb2390f7cb3284f33a9,65af55a5ebaa6ae4e2c7565f,2024-01-23_08h01.49.021,bars,2023.2.3,Win32,59.88023952,657b66ea316d21385b68909f,,,,,,,,,,,1153.7427,1154.7337,,,1155.2333,1155.4831,,41,41,,,,,,,,,,,,,,,,bars/021.png,bars/mask001.png,,,,,,,,,,,,0,2,,,,,,,6,10,5,10,,,,,,,,,,,1154.7337,1155.2333,1155.4831,1157.0881,space,1.5988,,1157.0882,66,29,1158.085,1158.085,1158.0923,,,,0,42,42,42,1,155,70,,,,,,,,
,,6130ceb2390f7cb3284f33a9,65af55a5ebaa6ae4e2c7565f,2024-01-23_08h01.49.021,bars,2023.2.3,Win32,59.88023952,657b66ea316d21385b68909f,,,,,,,,,,,1158.0924,1159.0963,,,1159.5964,1159.8458,,129,129,,,,,,,,,,,,,,,,bars/019.png,bars/mask005.png,,,,,,,,,,,,2,2,,,,,,,8,10,9,10,,,,,,,,,,,1159.0963,1159.5963,1159.8458,1166.0567,space,6.186,,1166.0567,84,24,1167.0558,1167.0559,1167.0831,,,,0,43,43,43,1,45,105,,,,,,,,
,,6130ceb2390f7cb3284f33a9,65af55a5ebaa6ae4e2c7565f,2024-01-23_08h01.49.021,bars,2023.2.3,Win32,59.88023952,657b66ea316d21385b68909f,,,,,,,,,,,1167.0834,1168.0713,,,1168.571,1168.8096,,70,70,,,,,,,,,,,,,,,,bars/033.png,bars/mask001.png,,,,,,,,,,,,0,1,,,,,,,10,10,10,10,,,,,,,,,,,1168.0713,1168.571,1168.8096,1170.7856,space,1.9489,,1170.7857,45,85,1171.7848,1171.7848,1171.7877,,,,0,44,44,44,1,25,155,,,,,,,,
,,6130ceb2390f7cb3284f33a9,65af55a5ebaa6ae4e2c7565f,2024-01-23_08h01.49.021,bars,2023.2.3,Win32,59.88023952,657b66ea316d21385b68909f,,,,,,,,,,,1171.788,1172.7884,,,1173.2836,1173.5329,,40,40,,,,,,,,,,,,,,,,bars/023.png,bars/mask003.png,,,,,,,,,,,,3,1,,,,,,,10,8,10,8,,,,,,,,,,,1172.7885,1173.2835,1173.533,1177.3458,space,3.794,,1177.346,20,75,1178.3454,1178.3455,1178.3675,,,,0,45,45,45,1,20,115,,,,,,,,
,,6130ceb2390f7cb3284f33a9,65af55a5ebaa6ae4e2c7565f,2024-01-23_08h01.49.021,bars,2023.2.3,Win32,59.88023952,657b66ea316d21385b68909f,,,,,,,,,,,1178.3677,1179.361,,,1179.8606,1180.1107,,49,49,,,,,,,,,,,,,,,,bars/010.png,bars/mask001.png,,,,,,,,,,,,8,2,,,,,,,10,10,10,10,,,,,,,,,,,1179.361,1179.8606,1180.1107,1184.3944,space,4.277,,1184.3944,64,6,1185.3886,1185.3886,1185.409,,,,0,46,46,46,1,165,55,,,,,,,,
,,6130ceb2390f7cb3284f33a9,65af55a5ebaa6ae4e2c7565f,2024-01-23_08h01.49.021,bars,2023.2.3,Win32,59.88023952,657b66ea316d21385b68909f,,,,,,,,,,,1185.4092,1186.4061,,,1186.9035,1187.1537,,49,49,,,,,,,,,,,,,,,,bars/029.png,bars/mask009.png,,,,,,,,,,,,9,2,,,,,,,10,10,10,10,,,,,,,,,,,1186.4061,1186.9035,1187.1537,1193.1813,space,6.0182,,1193.1813,41,4,1194.1847,1194.1847,1194.1987,,,,0,47,47,47,1,90,45,,,,,,,,
,,6130ceb2390f7cb3284f33a9,65af55a5ebaa6ae4e2c7565f,2024-01-23_08h01.49.021,bars,2023.2.3,Win32,59.88023952,657b66ea316d21385b68909f,,,,,,,,,,,1194.1989,1195.2011,,,1195.6958,1195.9455,,139,139,,,,,,,,,,,,,,,,bars/029.png,bars/mask004.png,,,,,,,,,,,,0,1,,,,,,,10,10,10,10,,,,,,,,,,,1195.2011,1195.6958,1195.9455,1196.7778,space,0.8254,,1196.7779,49,86,1197.7773,1197.7773,1197.7826,,,,0,48,48,48,1,90,45,,,,,,,,
,,6130ceb2390f7cb3284f33a9,65af55a5ebaa6ae4e2c7565f,2024-01-23_08h01.49.021,bars,2023.2.3,Win32,59.88023952,657b66ea316d21385b68909f,,,,,,,,,,,1197.7831,1198.7759,,,1199.276,1199.5257,,32,32,,,,,,,,,,,,,,,,bars/030.png,bars/mask009.png,,,,,,,,,,,,0,2,,,,,,,8,8,6,6,,,,,,,,,,,1198.7759,1199.2759,1199.5257,1201.6735,space,2.1401,,1201.6735,72,33,1202.6723,1202.6724,1202.6928,,,,0,49,49,49,1,140,65,,,,,,,,
,,6130ceb2390f7cb3284f33a9,65af55a5ebaa6ae4e2c7565f,2024-01-23_08h01.49.021,bars,2023.2.3,Win32,59.88023952,657b66ea316d21385b68909f,,,,,,,,,,,,,,,,,,,,,,,,,,,,,,,,,,,,,,,,,,,,,,,,,,,,,,,,,,,,,,,,,,,,,,,,,,,,,,,,,,,,,,,,,,,,,1202.693,1262.6871,0,1,1,4,1,sequence_tables/blk041.csv
,,6130ceb2390f7cb3284f33a9,65af55a5ebaa6ae4e2c7565f,2024-01-23_08h01.49.021,bars,2023.2.3,Win32,59.88023952,657b66ea316d21385b68909f,,,,,,,,,,,1282.1216,1283.1141,,,1283.6134,1283.8635,,69,69,,,,,,,,,,,,,,,,bars/030.png,bars/mask007.png,,,,,,,,,,,,3,2,,,,,,,3,6,4,4,,,,,,1262.6945,1282.0984,space,19.3927,,1283.1142,1283.6134,1283.8635,1288.7656,space,4.8799,,1288.7657,71,4,1289.7582,1289.7582,1289.7819,,,,0,0,0,0,1,140,65,,,,,,,,
,,6130ceb2390f7cb3284f33a9,65af55a5ebaa6ae4e2c7565f,2024-01-23_08h01.49.021,bars,2023.2.3,Win32,59.88023952,657b66ea316d21385b68909f,,,,,,,,,,,1289.7822,1290.7739,,,1291.2731,1291.5229,,121,121,,,,,,,,,,,,,,,,bars/034.png,bars/mask005.png,,,,,,,,,,,,1,1,,,,,,,1,4,1,2,,,,,,,,,,,1290.7739,1291.273,1291.523,1295.9192,space,4.366,,1295.9193,4,56,1296.9179,1296.9179,1296.9403,,,,0,1,1,1,1,125,65,,,,,,,,
,,6130ceb2390f7cb3284f33a9,65af55a5ebaa6ae4e2c7565f,2024-01-23_08h01.49.021,bars,2023.2.3,Win32,59.88023952,657b66ea316d21385b68909f,,,,,,,,,,,1296.9406,1297.9339,,,1298.4334,1298.6718,,129,129,,,,,,,,,,,,,,,,bars/039.png,bars/mask003.png,,,,,,,,,,,,1,2,,,,,,,0,2,0,3,,,,,,,,,,,1297.934,1298.4333,1298.6718,1304.0952,space,5.3972,,1304.0953,46,24,1305.0935,1305.0936,1305.1174,,,,0,2,2,2,1,175,105,,,,,,,,
,,6130ceb2390f7cb3284f33a9,65af55a5ebaa6ae4e2c7565f,2024-01-23_08h01.49.021,bars,2023.2.3,Win32,59.88023952,657b66ea316d21385b68909f,,,,,,,,,,,1305.1177,1306.1092,,,1306.609,1306.8586,,131,131,,,,,,,,,,,,,,,,bars/012.png,bars/mask001.png,,,,,,,,,,,,0,1,,,,,,,2,0,1,1,,,,,,,,,,,1306.1092,1306.6089,1306.8587,1308.4738,space,1.5994,,1308.4739,41,64,1309.4782,1309.4782,1309.4819,,,,0,3,3,3,1,90,15,,,,,,,,
,,6130ceb2390f7cb3284f33a9,65af55a5ebaa6ae4e2c7565f,2024-01-23_08h01.49.021,bars,2023.2.3,Win32,59.88023952,657b66ea316d21385b68909f,,,,,,,,,,,1309.4824,1310.4714,,,1310.9713,1311.2214,,33,33,,,,,,,,,,,,,,,,bars/048.png,bars/mask001.png,,,,,,,,,,,,0,1,,,,,,,0,0,0,1,,,,,,,,,,,1310.4714,1310.9712,1311.2215,1312.2704,space,1.0353,,1312.2705,17,38,1313.2692,1313.2692,1313.2707,,,,0,4,4,4,1,50,175,,,,,,,,
,,6130ceb2390f7cb3284f33a9,65af55a5ebaa6ae4e2c7565f,2024-01-23_08h01.49.021,bars,2023.2.3,Win32,59.88023952,657b66ea316d21385b68909f,,,,,,,,,,,1313.2713,1314.2682,,,1314.768,1315.0198,,66,66,,,,,,,,,,,,,,,,bars/037.png,bars/mask005.png,,,,,,,,,,,,0,2,,,,,,,0,0,0,0,,,,,,,,,,,1314.2683,1314.768,1315.0198,1319.2804,space,4.2353,,1319.2805,84,39,1320.2842,1320.2843,1320.3012,,,,0,5,5,5,1,150,105,,,,,,,,
,,6130ceb2390f7cb3284f33a9,65af55a5ebaa6ae4e2c7565f,2024-01-23_08h01.49.021,bars,2023.2.3,Win32,59.88023952,657b66ea316d21385b68909f,,,,,,,,,,,1320.3014,1321.295,,,1321.7944,1322.0324,,158,158,,,,,,,,,,,,,,,,bars/020.png,bars/mask007.png,,,,,,,,,,,,2,2,,,,,,,0,2,2,3,,,,,,,,,,,1321.295,1321.7944,1322.0324,1324.2594,space,2.2007,,1324.2595,43,12,1325.2582,1325.2582,1325.2795,,,,0,6,6,6,1,115,170,,,,,,,,
,,6130ceb2390f7cb3284f33a9,65af55a5ebaa6ae4e2c7565f,2024-01-23_08h01.49.021,bars,2023.2.3,Win32,59.88023952,657b66ea316d21385b68909f,,,,,,,,,,,1325.2796,1326.274,,,1326.7733,1327.023,,127,127,,,,,,,,,,,,,,,,bars/010.png,bars/mask006.png,,,,,,,,,,,,0,1,,,,,,,2,0,1,0,,,,,,,,,,,1326.274,1326.7733,1327.023,1329.754,space,2.7142,,1329.7541,38,72,1330.7581,1330.7582,1330.78,,,,0,7,7,7,1,165,55,,,,,,,,
,,6130ceb2390f7cb3284f33a9,65af55a5ebaa6ae4e2c7565f,2024-01-23_08h01.49.021,bars,2023.2.3,Win32,59.88023952,657b66ea316d21385b68909f,,,,,,,,,,,1330.7802,1331.7688,,,1332.2735,1332.5173,,47,47,,,,,,,,,,,,,,,,bars/037.png,bars/mask000.png,,,,,,,,,,,,0,2,,,,,,,4,2,4,1,,,,,,,,,,,1331.7689,1332.2735,1332.5173,1334.2331,space,1.7037,,1334.2331,77,58,1335.2317,1335.2317,1335.2338,,,,0,8,8,8,1,150,105,,,,,,,,
,,6130ceb2390f7cb3284f33a9,65af55a5ebaa6ae4e2c7565f,2024-01-23_08h01.49.021,bars,2023.2.3,Win32,59.88023952,657b66ea316d21385b68909f,,,,,,,,,,,1335.2342,1336.2315,,,1336.731,1336.9856,,51,231,,,,,,,,,,,,,,,,bars/034.png,bars/mask003.png,,,,,,,,,,,,0,2,,,,,,,2,0,2,0,,,,,,,,,,,1336.2316,1336.731,1336.9856,1342.5755,space,5.5626,,1342.5755,74,14,1343.5746,1343.5747,1343.6017,,,,0,9,9,9,1,125,65,,,,,,,,
,,6130ceb2390f7cb3284f33a9,65af55a5ebaa6ae4e2c7565f,2024-01-23_08h01.49.021,bars,2023.2.3,Win32,59.88023952,657b66ea316d21385b68909f,,,,,,,,,,,1343.6019,1344.5901,,,1345.0896,1345.3394,,46,226,,,,,,,,,,,,,,,,bars/017.png,bars/mask008.png,,,,,,,,,,,,0,2,,,,,,,4,0,4,0,,,,,,,,,,,1344.5901,1345.0895,1345.3394,1349.952,space,4.5968,,1349.9522,81,1,1350.9507,1350.9508,1350.9741,,,,0,10,10,10,1,145,45,,,,,,,,
,,6130ceb2390f7cb3284f33a9,65af55a5ebaa6ae4e2c7565f,2024-01-23_08h01.49.021,bars,2023.2.3,Win32,59.88023952,657b66ea316d21385b68909f,,,,,,,,,,,1350.9744,1351.9666,,,1352.4661,1352.7158,,113,113,,,,,,,,,,,,,,,,bars/027.png,bars/mask008.png,,,,,,,,,,,,5,1,,,,,,,6,0,6,0,,,,,,,,,,,1351.9666,1352.466,1352.7158,1353.3325,space,0.6035,,1353.3325,3,63,1354.3308,1354.3308,1354.3349,,,,0,11,11,11,1,110,50,,,,,,,,
,,6130ceb2390f7cb3284f33a9,65af55a5ebaa6ae4e2c7565f,2024-01-23_08h01.49.021,bars,2023.2.3,Win32,59.88023952,657b66ea316d21385b68909f,,,,,,,,,,,1354.3353,1355.3302,,,1355.8298,1356.0792,,134,134,,,,,,,,,,,,,,,,bars/017.png,bars/mask007.png,,,,,,,,,,,,3,1,,,,,,,4,0,5,1,,,,,,,,,,,1355.3303,1355.8297,1356.0792,1358.3104,space,2.2242,,1358.3104,11,89,1359.3097,1359.3097,1359.3303,,,,0,12,12,12,1,145,45,,,,,,,,
,,6130ceb2390f7cb3284f33a9,65af55a5ebaa6ae4e2c7565f,2024-01-23_08h01.49.021,bars,2023.2.3,Win32,59.88023952,657b66ea316d21385b68909f,,,,,,,,,,,1359.3306,1360.3252,,,1360.825,1361.0746,,59,59,,,,,,,,,,,,,,,,bars/048.png,bars/mask004.png,,,,,,,,,,,,4,1,,,,,,,6,0,6,0,,,,,,,,,,,1360.3252,1360.8249,1361.0746,1362.4073,space,1.3185,,1362.4074,9,64,1363.4061,1363.4061,1363.4079,,,,0,13,13,13,1,50,175,,,,,,,,
,,6130ceb2390f7cb3284f33a9,65af55a5ebaa6ae4e2c7565f,2024-01-23_08h01.49.021,bars,2023.2.3,Win32,59.88023952,657b66ea316d21385b68909f,,,,,,,,,,,1363.4086,1364.405,,,1364.9051,1365.1542,,70,70,,,,,,,,,,,,,,,,bars/014.png,bars/mask004.png,,,,,,,,,,,,3,1,,,,,,,4,0,4,0,,,,,,,,,,,1364.405,1364.9048,1365.1542,1365.7042,space,0.521,,1365.7043,10,70,1366.7024,1366.7025,1366.7036,,,,0,14,14,14,1,80,0,,,,,,,,
,,6130ceb2390f7cb3284f33a9,65af55a5ebaa6ae4e2c7565f,2024-01-23_08h01.49.021,bars,2023.2.3,Win32,59.88023952,657b66ea316d21385b68909f,,,,,,,,,,,1366.7041,1367.7021,,,1368.2064,1368.4514,,148,148,,,,,,,,,,,,,,,,bars/014.png,bars/mask007.png,,,,,,,,,,,,0,2,,,,,,,2,2,1,3,,,,,,,,,,,1367.7022,1368.2064,1368.4515,1369.0673,space,0.6047,,1369.0674,68,32,1370.0686,1370.0687,1370.0702,,,,0,15,15,15,1,80,0,,,,,,,,
,,6130ceb2390f7cb3284f33a9,65af55a5ebaa6ae4e2c7565f,2024-01-23_08h01.49.021,bars,2023.2.3,Win32,59.88023952,657b66ea316d21385b68909f,,,,,,,,,,,1370.0705,1371.0654,,,1371.565,1371.8147,,39,39,,,,,,,,,,,,,,,,bars/042.png,bars/mask005.png,,,,,,,,,,,,0,2,,,,,,,4,4,5,5,,,,,,,,,,,1371.0655,1371.565,1371.8147,1377.7927,space,5.9464,,1377.7928,74,36,1378.7915,1378.7916,1378.8131,,,,0,16,16,16,1,145,75,,,,,,,,
,,6130ceb2390f7cb3284f33a9,65af55a5ebaa6ae4e2c7565f,2024-01-23_08h01.49.021,bars,2023.2.3,Win32,59.88023952,657b66ea316d21385b68909f,,,,,,,,,,,1378.8133,1379.8074,,,1380.3071,1380.5564,,35,35,,,,,,,,,,,,,,,,bars/046.png,bars/mask006.png,,,,,,,,,,,,0,2,,,,,,,6,6,4,6,,,,,,,,,,,1379.8074,1380.307,1380.5564,1388.2495,space,7.6876,,1388.2496,60,50,1389.2482,1389.2482,1389.2489,,,,0,17,17,17,1,155,85,,,,,,,,
,,6130ceb2390f7cb3284f33a9,65af55a5ebaa6ae4e2c7565f,2024-01-23_08h01.49.021,bars,2023.2.3,Win32,59.88023952,657b66ea316d21385b68909f,,,,,,,,,,,1389.2493,1390.2475,,,1390.7467,1390.9964,,165,165,,,,,,,,,,,,,,,,bars/046.png,bars/mask009.png,,,,,,,,,,,,6,1,,,,,,,8,4,9,4,,,,,,,,,,,1390.2476,1390.7466,1390.9964,1392.6118,space,1.5988,,1392.6119,10,80,1393.6108,1393.6109,1393.6129,,,,0,18,18,18,1,155,85,,,,,,,,
,,6130ceb2390f7cb3284f33a9,65af55a5ebaa6ae4e2c7565f,2024-01-23_08h01.49.021,bars,2023.2.3,Win32,59.88023952,657b66ea316d21385b68909f,,,,,,,,,,,1393.6131,1394.6102,,,1395.1097,1395.3477,,107,107,,,,,,,,,,,,,,,,bars/019.png,bars/mask008.png,,,,,,,,,,,,7,2,,,,,,,6,6,6,7,,,,,,,,,,,1394.6102,1395.1097,1395.3478,1399.1893,space,3.8141,,1399.1893,62,2,1400.1882,1400.1882,1400.2086,,,,0,19,19,19,1,45,105,,,,,,,,
,,6130ceb2390f7cb3284f33a9,65af55a5ebaa6ae4e2c7565f,2024-01-23_08h01.49.021,bars,2023.2.3,Win32,59.88023952,657b66ea316d21385b68909f,,,,,,,,,,,1400.2088,1401.2037,,,1401.7031,1401.9534,,69,69,,,,,,,,,,,,,,,,bars/007.png,bars/mask003.png,,,,,,,,,,,,3,2,,,,,,,4,8,4,6,,,,,,,,,,,1401.2037,1401.7031,1401.9534,1403.1853,space,1.2158,,1403.1855,74,14,1404.1846,1404.1846,1404.1862,,,,0,20,20,20,1,175,55,,,,,,,,
,,6130ceb2390f7cb3284f33a9,65af55a5ebaa6ae4e2c7565f,2024-01-23_08h01.49.021,bars,2023.2.3,Win32,59.88023952,657b66ea316d21385b68909f,,,,,,,,,,,1404.1867,1405.1834,,,1405.6827,1405.938,,72,72,,,,,,,,,,,,,,,,bars/020.png,bars/mask008.png,,,,,,,,,,,,0,1,,,,,,,2,10,2,10,,,,,,,,,,,1405.1834,1405.6826,1405.938,1408.0813,space,2.1217,,1408.0814,43,82,1409.0849,1409.085,1409.0991,,,,0,21,21,21,1,115,170,,,,,,,,
,,6130ceb2390f7cb3284f33a9,65af55a5ebaa6ae4e2c7565f,2024-01-23_08h01.49.021,bars,2023.2.3,Win32,59.88023952,657b66ea316d21385b68909f,,,,,,,,,,,1409.0994,1410.0955,,,1410.5951,1410.8448,,166,166,,,,,,,,,,,,,,,,bars/024.png,bars/mask007.png,,,,,,,,,,,,7,2,,,,,,,0,8,0,8,,,,,,,,,,,1410.0955,1410.5951,1410.8449,1414.9236,space,4.0735,,1414.9236,46,4,1415.9237,1415.9238,1415.9522,,,,0,22,22,22,1,120,170,,,,,,,,
,,6130ceb2390f7cb3284f33a9,65af55a5ebaa6ae4e2c7565f,2024-01-23_08h01.49.021,bars,2023.2.3,Win32,59.88023952,657b66ea316d21385b68909f,,,,,,,,,,,1415.9524,1416.9556,,,1417.4555,1417.705,,38,38,,,,,,,,,,,,,,,,bars/037.png,bars/mask005.png,,,,,,,,,,,,0,2,,,,,,,0,10,0,10,,,,,,,,,,,1416.9557,1417.4554,1417.705,1418.3714,space,0.6509,,1418.3715,68,67,1419.3705,1419.3706,1419.3721,,,,0,23,23,23,1,150,105,,,,,,,,
,,6130ceb2390f7cb3284f33a9,65af55a5ebaa6ae4e2c7565f,2024-01-23_08h01.49.021,bars,2023.2.3,Win32,59.88023952,657b66ea316d21385b68909f,,,,,,,,,,,1419.3726,1420.3691,,,1420.869,1421.1183,,24,24,,,,,,,,,,,,,,,,bars/023.png,bars/mask001.png,,,,,,,,,,,,0,1,,,,,,,0,10,0,10,,,,,,,,,,,1420.3691,1420.869,1421.1183,1422.0512,space,0.9241,,1422.0512,4,89,1423.0499,1423.0499,1423.0519,,,,0,24,24,24,1,20,115,,,,,,,,
,,6130ceb2390f7cb3284f33a9,65af55a5ebaa6ae4e2c7565f,2024-01-23_08h01.49.021,bars,2023.2.3,Win32,59.88023952,657b66ea316d21385b68909f,,,,,,,,,,,1423.0521,1424.0489,,,1424.5491,1424.7984,,167,167,,,,,,,,,,,,,,,,bars/030.png,bars/mask002.png,,,,,,,,,,,,0,1,,,,,,,2,8,3,7,,,,,,,,,,,1424.049,1424.5491,1424.7984,1425.6477,space,0.8328,,1425.6477,27,78,1426.6466,1426.6466,1426.6474,,,,0,25,25,25,1,140,65,,,,,,,,
,,6130ceb2390f7cb3284f33a9,65af55a5ebaa6ae4e2c7565f,2024-01-23_08h01.49.021,bars,2023.2.3,Win32,59.88023952,657b66ea316d21385b68909f,,,,,,,,,,,1426.6477,1427.6459,,,1428.1453,1428.3952,,41,41,,,,,,,,,,,,,,,,bars/025.png,bars/mask006.png,,,,,,,,,,,,6,2,,,,,,,0,6,0,6,,,,,,,,,,,1427.6459,1428.1453,1428.3953,1429.2945,space,0.885,,1429.2946,64,1,1430.2932,1430.2932,1430.2966,,,,0,26,26,26,1,105,40,,,,,,,,
,,6130ceb2390f7cb3284f33a9,65af55a5ebaa6ae4e2c7565f,2024-01-23_08h01.49.021,bars,2023.2.3,Win32,59.88023952,657b66ea316d21385b68909f,,,,,,,,,,,1430.2973,1431.2922,,,1431.7922,1432.0419,,129,129,,,,,,,,,,,,,,,,bars/012.png,bars/mask003.png,,,,,,,,,,,,0,1,,,,,,,2,8,1,6,,,,,,,,,,,1431.2922,1431.7922,1432.042,1433.524,space,1.4649,,1433.5241,39,66,1434.5229,1434.523,1434.5502,,,,0,27,27,27,1,90,15,,,,,,,,
,,6130ceb2390f7cb3284f33a9,65af55a5ebaa6ae4e2c7565f,2024-01-23_08h01.49.021,bars,2023.2.3,Win32,59.88023952,657b66ea316d21385b68909f,,,,,,,,,,,1434.5505,1435.5387,,,1436.0378,1436.2879,,127,127,,,,,,,,,,,,,,,,bars/001.png,bars/mask000.png,,,,,,,,,,,,3,1,,,,,,,4,6,3,5,,,,,,,,,,,1435.5387,1436.0378,1436.2881,1437.2036,space,0.905,,1437.2037,3,42,1438.2028,1438.2028,1438.2044,,,,0,28,28,28,1,130,85,,,,,,,,
,,6130ceb2390f7cb3284f33a9,65af55a5ebaa6ae4e2c7565f,2024-01-23_08h01.49.021,bars,2023.2.3,Win32,59.88023952,657b66ea316d21385b68909f,,,,,,,,,,,1438.205,1439.2017,,,1439.7013,1439.951,,25,25,,,,,,,,,,,,,,,,bars/029.png,bars/mask004.png,,,,,,,,,,,,2,2,,,,,,,2,8,2,7,,,,,,,,,,,1439.2018,1439.7013,1439.9511,1440.5342,space,0.5675,,1440.5342,65,20,1441.533,1441.5331,1441.5362,,,,0,29,29,29,1,90,45,,,,,,,,
,,6130ceb2390f7cb3284f33a9,65af55a5ebaa6ae4e2c7565f,2024-01-23_08h01.49.021,bars,2023.2.3,Win32,59.88023952,657b66ea316d21385b68909f,,,,,,,,,,,1441.5367,1442.5323,,,1443.0318,1443.2814,,136,136,,,,,,,,,,,,,,,,bars/007.png,bars/mask009.png,,,,,,,,,,,,0,1,,,,,,,0,10,1,10,,,,,,,,,,,1442.5324,1443.0317,1443.2815,1443.9976,space,0.7025,,1443.9977,39,81,1444.9963,1444.9963,1444.9988,,,,0,30,30,30,1,175,55,,,,,,,,
,,6130ceb2390f7cb3284f33a9,65af55a5ebaa6ae4e2c7565f,2024-01-23_08h01.49.021,bars,2023.2.3,Win32,59.88023952,657b66ea316d21385b68909f,,,,,,,,,,,1444.9993,1445.9954,,,1446.4949,1446.7448,,45,45,,,,,,,,,,,,,,,,bars/010.png,bars/mask005.png,,,,,,,,,,,,5,2,,,,,,,2,8,1,7,,,,,,,,,,,1445.9955,1446.4948,1446.7448,1451.7068,space,4.9462,,1451.7069,60,10,1452.7056,1452.7057,1452.7273,,,,0,31,31,31,1,165,55,,,,,,,,
,,6130ceb2390f7cb3284f33a9,65af55a5ebaa6ae4e2c7565f,2024-01-23_08h01.49.021,bars,2023.2.3,Win32,59.88023952,657b66ea316d21385b68909f,,,,,,,,,,,1452.7277,1453.7216,,,1454.2209,1454.4711,,68,68,,,,,,,,,,,,,,,,bars/027.png,bars/mask000.png,,,,,,,,,,,,2,2,,,,,,,0,6,0,6,,,,,,,,,,,1453.7217,1454.2208,1454.4712,1458.434,space,3.9316,,1458.4341,42,18,1459.4326,1459.4327,1459.4483,,,,0,32,32,32,1,110,50,,,,,,,,
,,6130ceb2390f7cb3284f33a9,65af55a5ebaa6ae4e2c7565f,2024-01-23_08h01.49.021,bars,2023.2.3,Win32,59.88023952,657b66ea316d21385b68909f,,,,,,,,,,,1459.4487,1460.4486,,,1460.9482,1461.1981,,149,-31,,,,,,,,,,,,,,,,bars/032.png,bars/mask000.png,,,,,,,,,,,,1,1,,,,,,,2,8,4,8,,,,,,,,,,,1460.4487,1460.9481,1461.1983,1464.3776,space,3.1472,,1464.3776,24,51,1465.3766,1465.3766,1465.3863,,,,0,33,33,33,1,125,20,,,,,,,,
,,6130ceb2390f7cb3284f33a9,65af55a5ebaa6ae4e2c7565f,2024-01-23_08h01.49.021,bars,2023.2.3,Win32,59.88023952,657b66ea316d21385b68909f,,,,,,,,,,,1465.3865,1466.3763,,,1466.8753,1467.1254,,79,79,,,,,,,,,,,,,,,,bars/035.png,bars/mask004.png,,,,,,,,,,,,4,2,,,,,,,0,10,0,10,,,,,,,,,,,1466.3763,1466.8753,1467.1254,1482.3783,space,15.2386,,1482.3784,84,19,1483.377,1483.3771,1483.4013,,,,0,34,34,34,1,175,60,,,,,,,,
,,6130ceb2390f7cb3284f33a9,65af55a5ebaa6ae4e2c7565f,2024-01-23_08h01.49.021,bars,2023.2.3,Win32,59.88023952,657b66ea316d21385b68909f,,,,,,,,,,,1483.4015,1484.3926,,,1484.8972,1485.1424,,158,158,,,,,,,,,,,,,,,,bars/013.png,bars/mask009.png,,,,,,,,,,,,0,2,,,,,,,0,10,0,8,,,,,,,,,,,1484.3927,1484.8972,1485.1424,1488.2559,space,3.1068,,1488.256,83,32,1489.255,1489.2551,1489.2751,,,,0,35,35,35,1,75,10,,,,,,,,
,,6130ceb2390f7cb3284f33a9,65af55a5ebaa6ae4e2c7565f,2024-01-23_08h01.49.021,bars,2023.2.3,Win32,59.88023952,657b66ea316d21385b68909f,,,,,,,,,,,1489.2753,1490.2705,,,1490.7702,1491.0199,,4,4,,,,,,,,,,,,,,,,bars/048.png,bars/mask000.png,,,,,,,,,,,,6,2,,,,,,,0,10,0,9,,,,,,,,,,,1490.2706,1490.7702,1491.02,1493.0679,space,2.0195,,1493.068,46,9,1494.0668,1494.0668,1494.0824,,,,0,36,36,36,1,50,175,,,,,,,,
,,6130ceb2390f7cb3284f33a9,65af55a5ebaa6ae4e2c7565f,2024-01-23_08h01.49.021,bars,2023.2.3,Win32,59.88023952,657b66ea316d21385b68909f,,,,,,,,,,,1494.0827,1495.0828,,,1495.5825,1495.8372,,130,130,,,,,,,,,,,,,,,,bars/032.png,bars/mask006.png,,,,,,,,,,,,2,1,,,,,,,2,8,2,8,,,,,,,,,,,1495.0829,1495.5825,1495.8373,1499.5124,space,3.6592,,1499.5125,5,70,1500.5111,1500.5112,1500.5331,,,,0,37,37,37,1,125,20,,,,,,,,
,,6130ceb2390f7cb3284f33a9,65af55a5ebaa6ae4e2c7565f,2024-01-23_08h01.49.021,bars,2023.2.3,Win32,59.88023952,657b66ea316d21385b68909f,,,,,,,,,,,1500.5333,1501.5264,,,1502.0183,1502.2591,,112,112,,,,,,,,,,,,,,,,bars/048.png,bars/mask000.png,,,,,,,,,,,,0,1,,,,,,,0,6,0,7,,,,,,,,,,,1501.5265,1502.0183,1502.2591,1531.7153,space,29.4436,,1531.7154,62,63,1532.7146,1532.7147,1532.7393,,,,0,38,38,38,1,50,175,,,,,,,,
,,6130ceb2390f7cb3284f33a9,65af55a5ebaa6ae4e2c7565f,2024-01-23_08h01.49.021,bars,2023.2.3,Win32,59.88023952,657b66ea316d21385b68909f,,,,,,,,,,,1532.7395,1533.7301,,,1534.2356,1534.4796,,97,97,,,,,,,,,,,,,,,,bars/046.png,bars/mask006.png,,,,,,,,,,,,2,2,,,,,,,0,4,1,3,,,,,,,,,,,1533.7301,1534.2355,1534.4797,1536.1114,space,1.6032,,1536.1114,58,12,1537.1104,1537.1105,1537.1347,,,,0,39,39,39,1,155,85,,,,,,,,
,,6130ceb2390f7cb3284f33a9,65af55a5ebaa6ae4e2c7565f,2024-01-23_08h01.49.021,bars,2023.2.3,Win32,59.88023952,657b66ea316d21385b68909f,,,,,,,,,,,1537.1349,1538.1259,,,1538.6253,1538.8753,,176,176,,,,,,,,,,,,,,,,bars/009.png,bars/mask009.png,,,,,,,,,,,,0,1,,,,,,,0,6,1,6,,,,,,,,,,,1538.1259,1538.6252,1538.8754,1541.4567,space,2.5727,,1541.4567,19,71,1542.455,1542.4551,1542.4777,,,,0,40,40,40,1,15,105,,,,,,,,
,,6130ceb2390f7cb3284f33a9,65af55a5ebaa6ae4e2c7565f,2024-01-23_08h01.49.021,bars,2023.2.3,Win32,59.88023952,657b66ea316d21385b68909f,,,,,,,,,,,1542.4779,1543.4714,,,1543.9596,1544.2033,,163,163,,,,,,,,,,,,,,,,bars/040.png,bars/mask001.png,,,,,,,,,,,,1,2,,,,,,,2,4,2,3,,,,,,,,,,,1543.4714,1543.9596,1544.2034,1544.8699,space,0.6565,,1544.8699,23,22,1545.8687,1545.8688,1545.8729,,,,0,41,41,41,1,140,5,,,,,,,,
,,6130ceb2390f7cb3284f33a9,65af55a5ebaa6ae4e2c7565f,2024-01-23_08h01.49.021,bars,2023.2.3,Win32,59.88023952,657b66ea316d21385b68909f,,,,,,,,,,,1545.8736,1546.8681,,,1547.3675,1547.6172,,104,104,,,,,,,,,,,,,,,,bars/014.png,bars/mask006.png,,,,,,,,,,,,1,1,,,,,,,4,6,3,7,,,,,,,,,,,1546.8682,1547.3675,1547.6172,1549.2488,space,1.6246,,1549.2489,24,76,1550.2482,1550.2482,1550.2516,,,,0,42,42,42,1,80,0,,,,,,,,
,,6130ceb2390f7cb3284f33a9,65af55a5ebaa6ae4e2c7565f,2024-01-23_08h01.49.021,bars,2023.2.3,Win32,59.88023952,657b66ea316d21385b68909f,,,,,,,,,,,1550.2521,1551.2471,,,1551.7466,1551.9965,,55,55,,,,,,,,,,,,,,,,bars/010.png,bars/mask007.png,,,,,,,,,,,,4,2,,,,,,,2,4,3,4,,,,,,,,,,,1551.2472,1551.7465,1551.9966,1552.6788,space,0.6676,,1552.6789,70,0,1553.678,1553.6781,1553.6808,,,,0,43,43,43,1,165,55,,,,,,,,
,,6130ceb2390f7cb3284f33a9,65af55a5ebaa6ae4e2c7565f,2024-01-23_08h01.49.021,bars,2023.2.3,Win32,59.88023952,657b66ea316d21385b68909f,,,,,,,,,,,1553.6811,1554.6771,,,1555.1769,1555.4262,,111,111,,,,,,,,,,,,,,,,bars/028.png,bars/mask001.png,,,,,,,,,,,,0,2,,,,,,,0,2,0,0,,,,,,,,,,,1554.6771,1555.1768,1555.4262,1557.608,space,2.1719,,1557.6081,66,9,1558.607,1558.607,1558.6086,,,,0,44,44,44,1,45,120,,,,,,,,
,,6130ceb2390f7cb3284f33a9,65af55a5ebaa6ae4e2c7565f,2024-01-23_08h01.49.021,bars,2023.2.3,Win32,59.88023952,657b66ea316d21385b68909f,,,,,,,,,,,1558.6092,1559.6059,,,1560.1057,1560.3554,,103,103,,,,,,,,,,,,,,,,bars/018.png,bars/mask004.png,,,,,,,,,,,,2,2,,,,,,,2,4,2,3,,,,,,,,,,,1559.606,1560.1056,1560.3554,1569.3304,space,8.9577,,1569.3304,47,13,1570.3293,1570.3294,1570.3528,,,,0,45,45,45,1,150,90,,,,,,,,
,,6130ceb2390f7cb3284f33a9,65af55a5ebaa6ae4e2c7565f,2024-01-23_08h01.49.021,bars,2023.2.3,Win32,59.88023952,657b66ea316d21385b68909f,,,,,,,,,,,1570.353,1571.3445,,,1571.8496,1572.0941,,51,51,,,,,,,,,,,,,,,,bars/045.png,bars/mask009.png,,,,,,,,,,,,0,2,,,,,,,4,6,4,6,,,,,,,,,,,1571.3446,1571.8496,1572.0941,1572.9772,space,0.8704,,1572.9773,49,41,1573.9758,1573.9759,1573.9773,,,,0,46,46,46,1,100,10,,,,,,,,
,,6130ceb2390f7cb3284f33a9,65af55a5ebaa6ae4e2c7565f,2024-01-23_08h01.49.021,bars,2023.2.3,Win32,59.88023952,657b66ea316d21385b68909f,,,,,,,,,,,1573.9778,1574.975,,,1575.4637,1575.7076,,161,-19,,,,,,,,,,,,,,,,bars/001.png,bars/mask005.png,,,,,,,,,,,,0,1,,,,,,,2,8,2,7,,,,,,,,,,,1574.975,1575.4636,1575.7077,1581.0692,space,5.3476,,1581.0692,31,76,1582.0572,1582.0572,1582.0832,,,,0,47,47,47,1,130,85,,,,,,,,
,,6130ceb2390f7cb3284f33a9,65af55a5ebaa6ae4e2c7565f,2024-01-23_08h01.49.021,bars,2023.2.3,Win32,59.88023952,657b66ea316d21385b68909f,,,,,,,,,,,1582.0835,1583.0838,,,1583.5837,1583.8337,,65,65,,,,,,,,,,,,,,,,bars/012.png,bars/mask002.png,,,,,,,,,,,,0,1,,,,,,,4,6,2,5,,,,,,,,,,,1583.0838,1583.5837,1583.8337,1584.4164,space,0.5668,,1584.4165,25,50,1585.4151,1585.4151,1585.4162,,,,0,48,48,48,1,90,15,,,,,,,,
,,6130ceb2390f7cb3284f33a9,65af55a5ebaa6ae4e2c7565f,2024-01-23_08h01.49.021,bars,2023.2.3,Win32,59.88023952,657b66ea316d21385b68909f,,,,,,,,,,,1585.4168,1586.4142,,,1586.9138,1587.1633,,112,112,,,,,,,,,,,,,,,,bars/007.png,bars/mask004.png,,,,,,,,,,,,0,2,,,,,,,2,8,1,8,,,,,,,,,,,1586.4143,1586.9137,1587.1633,1588.9952,space,1.8187,,1588.9952,63,57,1589.9942,1589.9942,1589.997,,,,0,49,49,49,1,175,55,,,,,,,,
,,6130ceb2390f7cb3284f33a9,65af55a5ebaa6ae4e2c7565f,2024-01-23_08h01.49.021,bars,2023.2.3,Win32,59.88023952,657b66ea316d21385b68909f,,,,,,,,,,,,,,,,,,,,,,,,,,,,,,,,,,,,,,,,,,,,,,,,,,,,,,,,,,,,,,,,,,,,,,,,,,,,,,,,,,,,,,,,,,,,,1589.9972,1649.9885,0,2,2,0,1,sequence_tables/blk042.csv
,,6130ceb2390f7cb3284f33a9,65af55a5ebaa6ae4e2c7565f,2024-01-23_08h01.49.021,bars,2023.2.3,Win32,59.88023952,657b66ea316d21385b68909f,,,,,,,,,,,1651.7137,1652.7021,,,1653.2021,1653.4519,,169,169,,,,,,,,,,,,,,,,bars/002.png,bars/mask004.png,,,,,,,,,,,,0,1,,,,,,,3,2,6,4,,,,,,1650.0116,1651.7034,space,1.6843,,1652.7021,1653.2021,1653.4519,1654.9503,space,1.4717,,1654.9504,39,84,1655.9542,1655.9542,1655.9561,,,,0,0,0,0,1,130,85,,,,,,,,
,,6130ceb2390f7cb3284f33a9,65af55a5ebaa6ae4e2c7565f,2024-01-23_08h01.49.021,bars,2023.2.3,Win32,59.88023952,657b66ea316d21385b68909f,,,,,,,,,,,1655.9564,1656.9485,,,1657.448,1657.6978,,50,50,,,,,,,,,,,,,,,,bars/042.png,bars/mask004.png,,,,,,,,,,,,1,2,,,,,,,1,4,1,4,,,,,,,,,,,1656.9486,1657.4479,1657.6979,1658.5692,space,0.8653,,1658.5693,85,25,1659.5626,1659.5626,1659.5658,,,,0,1,1,1,1,145,75,,,,,,,,
,,6130ceb2390f7cb3284f33a9,65af55a5ebaa6ae4e2c7565f,2024-01-23_08h01.49.021,bars,2023.2.3,Win32,59.88023952,657b66ea316d21385b68909f,,,,,,,,,,,1659.5663,1660.5617,,,1661.0604,1661.3103,,23,23,,,,,,,,,,,,,,,,bars/000.png,bars/mask005.png,,,,,,,,,,,,2,1,,,,,,,3,6,4,5,,,,,,,,,,,1660.5617,1661.0604,1661.3104,1663.6249,space,2.2979,,1663.6249,17,58,1664.6133,1664.6133,1664.6385,,,,0,2,2,2,1,40,145,,,,,,,,
,,6130ceb2390f7cb3284f33a9,65af55a5ebaa6ae4e2c7565f,2024-01-23_08h01.49.021,bars,2023.2.3,Win32,59.88023952,657b66ea316d21385b68909f,,,,,,,,,,,1664.6387,1665.6404,,,1666.1398,1666.3896,,151,-29,,,,,,,,,,,,,,,,bars/041.png,bars/mask004.png,,,,,,,,,,,,0,1,,,,,,,5,4,5,4,,,,,,,,,,,1665.6405,1666.1398,1666.3896,1669.7697,space,3.3721,,1669.7698,49,66,1670.7687,1670.7687,1670.7838,,,,0,3,3,3,1,20,85,,,,,,,,
,,6130ceb2390f7cb3284f33a9,65af55a5ebaa6ae4e2c7565f,2024-01-23_08h01.49.021,bars,2023.2.3,Win32,59.88023952,657b66ea316d21385b68909f,,,,,,,,,,,1670.784,1671.7846,,,1672.2839,1672.5338,,124,124,,,,,,,,,,,,,,,,bars/017.png,bars/mask000.png,,,,,,,,,,,,1,1,,,,,,,3,6,3,6,,,,,,,,,,,1671.7847,1672.2838,1672.5338,1673.1165,space,0.5654,,1673.1166,21,79,1674.1156,1674.1156,1674.1165,,,,0,4,4,4,1,145,45,,,,,,,,
,,6130ceb2390f7cb3284f33a9,65af55a5ebaa6ae4e2c7565f,2024-01-23_08h01.49.021,bars,2023.2.3,Win32,59.88023952,657b66ea316d21385b68909f,,,,,,,,,,,1674.1168,1675.1144,,,1675.6145,1675.8643,,148,148,,,,,,,,,,,,,,,,bars/033.png,bars/mask009.png,,,,,,,,,,,,6,2,,,,,,,5,8,4,8,,,,,,,,,,,1675.1144,1675.6144,1675.8643,1682.7578,space,6.886,,1682.7578,57,7,1683.7567,1683.7567,1683.7824,,,,0,5,5,5,1,25,155,,,,,,,,
,,6130ceb2390f7cb3284f33a9,65af55a5ebaa6ae4e2c7565f,2024-01-23_08h01.49.021,bars,2023.2.3,Win32,59.88023952,657b66ea316d21385b68909f,,,,,,,,,,,1683.7827,1684.7725,,,1685.2722,1685.5219,,113,-67,,,,,,,,,,,,,,,,bars/031.png,bars/mask004.png,,,,,,,,,,,,2,1,,,,,,,3,6,2,6,,,,,,,,,,,1684.7725,1685.2722,1685.522,1691.0659,space,5.5284,,1691.0659,7,78,1692.0562,1692.0562,1692.0635,,,,0,6,6,6,1,120,35,,,,,,,,
,,6130ceb2390f7cb3284f33a9,65af55a5ebaa6ae4e2c7565f,2024-01-23_08h01.49.021,bars,2023.2.3,Win32,59.88023952,657b66ea316d21385b68909f,,,,,,,,,,,1692.0637,1693.0645,,,1693.5642,1693.814,,156,156,,,,,,,,,,,,,,,,bars/026.png,bars/mask000.png,,,,,,,,,,,,0,1,,,,,,,1,4,2,4,,,,,,,,,,,1693.0646,1693.5641,1693.814,1698.8097,space,4.9795,,1698.8097,59,71,1699.8082,1699.8083,1699.8301,,,,0,7,7,7,1,35,85,,,,,,,,
,,6130ceb2390f7cb3284f33a9,65af55a5ebaa6ae4e2c7565f,2024-01-23_08h01.49.021,bars,2023.2.3,Win32,59.88023952,657b66ea316d21385b68909f,,,,,,,,,,,1699.8304,1700.8243,,,1701.3238,1701.5734,,53,53,,,,,,,,,,,,,,,,bars/027.png,bars/mask005.png,,,,,,,,,,,,2,2,,,,,,,0,2,0,2,,,,,,,,,,,1700.8243,1701.3237,1701.5735,1705.5579,space,3.9653,,1705.5579,57,3,1706.5518,1706.5518,1706.5739,,,,0,8,8,8,1,110,50,,,,,,,,
,,6130ceb2390f7cb3284f33a9,65af55a5ebaa6ae4e2c7565f,2024-01-23_08h01.49.021,bars,2023.2.3,Win32,59.88023952,657b66ea316d21385b68909f,,,,,,,,,,,1706.5742,1707.5675,,,1708.0674,1708.3173,,29,29,,,,,,,,,,,,,,,,bars/013.png,bars/mask003.png,,,,,,,,,,,,1,2,,,,,,,0,4,0,3,,,,,,,,,,,1707.5676,1708.0674,1708.3173,1709.15,space,0.824,,1709.1501,46,19,1710.1484,1710.1484,1710.1553,,,,0,9,9,9,1,75,10,,,,,,,,
,,6130ceb2390f7cb3284f33a9,65af55a5ebaa6ae4e2c7565f,2024-01-23_08h01.49.021,bars,2023.2.3,Win32,59.88023952,657b66ea316d21385b68909f,,,,,,,,,,,1710.1555,1711.1477,,,1711.6475,1711.8971,,37,37,,,,,,,,,,,,,,,,bars/039.png,bars/mask007.png,,,,,,,,,,,,0,1,,,,,,,0,6,0,5,,,,,,,,,,,1711.1477,1711.6475,1711.8971,1712.763,space,0.8501,,1712.763,42,68,1713.7621,1713.7621,1713.7659,,,,0,10,10,10,1,175,105,,,,,,,,
,,6130ceb2390f7cb3284f33a9,65af55a5ebaa6ae4e2c7565f,2024-01-23_08h01.49.021,bars,2023.2.3,Win32,59.88023952,657b66ea316d21385b68909f,,,,,,,,,,,1713.7665,1714.761,,,1715.2499,1715.4936,,114,114,,,,,,,,,,,,,,,,bars/035.png,bars/mask005.png,,,,,,,,,,,,0,2,,,,,,,0,8,0,9,,,,,,,,,,,1714.761,1715.2498,1715.4936,1716.3925,space,0.8895,,1716.3926,61,54,1717.3917,1717.3918,1717.3957,,,,0,11,11,11,1,175,60,,,,,,,,
,,6130ceb2390f7cb3284f33a9,65af55a5ebaa6ae4e2c7565f,2024-01-23_08h01.49.021,bars,2023.2.3,Win32,59.88023952,657b66ea316d21385b68909f,,,,,,,,,,,1717.3961,1718.3911,,,1718.8957,1719.1403,,140,140,,,,,,,,,,,,,,,,bars/010.png,bars/mask005.png,,,,,,,,,,,,0,1,,,,,,,2,10,2,9,,,,,,,,,,,1718.3911,1718.8956,1719.1403,1719.8234,space,0.6771,,1719.8235,25,85,1720.8219,1720.8219,1720.8247,,,,0,12,12,12,1,165,55,,,,,,,,
,,6130ceb2390f7cb3284f33a9,65af55a5ebaa6ae4e2c7565f,2024-01-23_08h01.49.021,bars,2023.2.3,Win32,59.88023952,657b66ea316d21385b68909f,,,,,,,,,,,1720.8252,1721.8211,,,1722.3205,1722.5702,,5,5,,,,,,,,,,,,,,,,bars/043.png,bars/mask005.png,,,,,,,,,,,,0,1,,,,,,,0,10,0,10,,,,,,,,,,,1721.8212,1722.3205,1722.5703,1723.2699,space,0.6716,,1723.27,25,55,1724.2691,1724.2691,1724.2704,,,,0,13,13,13,1,30,130,,,,,,,,
,,6130ceb2390f7cb3284f33a9,65af55a5ebaa6ae4e2c7565f,2024-01-23_08h01.49.021,bars,2023.2.3,Win32,59.88023952,657b66ea316d21385b68909f,,,,,,,,,,,1724.2709,1725.2677,,,1725.7558,1726.0006,,99,99,,,,,,,,,,,,,,,,bars/010.png,bars/mask002.png,,,,,,,,,,,,0,2,,,,,,,0,10,0,10,,,,,,,,,,,1725.2677,1725.7558,1726.0008,1726.85,space,0.8334,,1726.8501,66,44,1727.8489,1727.849,1727.8524,,,,0,14,14,14,1,165,55,,,,,,,,
,,6130ceb2390f7cb3284f33a9,65af55a5ebaa6ae4e2c7565f,2024-01-23_08h01.49.021,bars,2023.2.3,Win32,59.88023952,657b66ea316d21385b68909f,,,,,,,,,,,1727.853,1728.8478,,,1729.3475,1729.5971,,106,106,,,,,,,,,,,,,,,,bars/044.png,bars/mask007.png,,,,,,,,,,,,0,1,,,,,,,2,8,3,8,,,,,,,,,,,1728.8479,1729.3474,1729.5972,1730.7293,space,1.1161,,1730.7293,31,49,1731.7283,1731.7283,1731.7312,,,,0,15,15,15,1,75,155,,,,,,,,
,,6130ceb2390f7cb3284f33a9,65af55a5ebaa6ae4e2c7565f,2024-01-23_08h01.49.021,bars,2023.2.3,Win32,59.88023952,657b66ea316d21385b68909f,,,,,,,,,,,1731.7316,1732.7273,,,1733.2273,1733.4654,,30,30,,,,,,,,,,,,,,,,bars/025.png,bars/mask000.png,,,,,,,,,,,,3,2,,,,,,,0,6,0,5,,,,,,,,,,,1732.7273,1733.2272,1733.4654,1734.2428,space,0.7629,,1734.2428,75,10,1735.242,1735.242,1735.2447,,,,0,16,16,16,1,105,40,,,,,,,,
,,6130ceb2390f7cb3284f33a9,65af55a5ebaa6ae4e2c7565f,2024-01-23_08h01.49.021,bars,2023.2.3,Win32,59.88023952,657b66ea316d21385b68909f,,,,,,,,,,,1735.2451,1736.2408,,,1736.7404,1736.9903,,76,76,,,,,,,,,,,,,,,,bars/027.png,bars/mask004.png,,,,,,,,,,,,0,2,,,,,,,2,4,2,3,,,,,,,,,,,1736.2409,1736.7404,1736.9903,1740.487,space,3.4855,,1740.4871,34,26,1741.4858,1741.4858,1741.4953,,,,0,17,17,17,1,110,50,,,,,,,,
,,6130ceb2390f7cb3284f33a9,65af55a5ebaa6ae4e2c7565f,2024-01-23_08h01.49.021,bars,2023.2.3,Win32,59.88023952,657b66ea316d21385b68909f,,,,,,,,,,,1741.4954,1742.4852,,,1742.9847,1743.2345,,57,57,,,,,,,,,,,,,,,,bars/018.png,bars/mask009.png,,,,,,,,,,,,0,2,,,,,,,0,6,1,7,,,,,,,,,,,1742.4852,1742.9847,1743.2346,1743.8676,space,0.6242,,1743.8676,87,33,1744.8661,1744.8661,1744.8674,,,,0,18,18,18,1,150,90,,,,,,,,
,,6130ceb2390f7cb3284f33a9,65af55a5ebaa6ae4e2c7565f,2024-01-23_08h01.49.021,bars,2023.2.3,Win32,59.88023952,657b66ea316d21385b68909f,,,,,,,,,,,1744.8679,1745.8657,,,1746.3649,1746.6042,,38,218,,,,,,,,,,,,,,,,bars/011.png,bars/mask000.png,,,,,,,,,,,,0,2,,,,,,,2,8,2,8,,,,,,,,,,,1745.8657,1746.3649,1746.6043,1748.5631,space,1.9342,,1748.5632,58,47,1749.5619,1749.5619,1749.5631,,,,0,19,19,19,1,160,85,,,,,,,,
,,6130ceb2390f7cb3284f33a9,65af55a5ebaa6ae4e2c7565f,2024-01-23_08h01.49.021,bars,2023.2.3,Win32,59.88023952,657b66ea316d21385b68909f,,,,,,,,,,,1749.5638,1750.5608,,,1751.0609,1751.2998,,128,128,,,,,,,,,,,,,,,,bars/023.png,bars/mask003.png,,,,,,,,,,,,5,2,,,,,,,4,6,4,8,,,,,,,,,,,1750.5608,1751.0607,1751.2998,1751.6934,space,0.3835,,1751.6935,72,13,1752.6922,1752.6922,1752.6931,,,,0,20,20,20,1,20,115,,,,,,,,
,,6130ceb2390f7cb3284f33a9,65af55a5ebaa6ae4e2c7565f,2024-01-23_08h01.49.021,bars,2023.2.3,Win32,59.88023952,657b66ea316d21385b68909f,,,,,,,,,,,1752.6936,1753.6915,,,1754.1909,1754.4286,,36,36,,,,,,,,,,,,,,,,bars/045.png,bars/mask007.png,,,,,,,,,,,,1,2,,,,,,,6,4,6,4,,,,,,,,,,,1753.6915,1754.1909,1754.4286,1754.6735,space,0.2406,,1754.6736,64,26,1755.6726,1755.6727,1755.6746,,,,0,21,21,21,1,100,10,,,,,,,,
,,6130ceb2390f7cb3284f33a9,65af55a5ebaa6ae4e2c7565f,2024-01-23_08h01.49.021,bars,2023.2.3,Win32,59.88023952,657b66ea316d21385b68909f,,,,,,,,,,,1755.6749,1756.6719,,,1757.1715,1757.4212,,105,105,,,,,,,,,,,,,,,,bars/027.png,bars/mask003.png,,,,,,,,,,,,7,1,,,,,,,8,2,8,2,,,,,,,,,,,1756.672,1757.1714,1757.4213,1758.0034,space,0.5615,,1758.0035,5,55,1759.003,1759.0031,1759.0059,,,,0,22,22,22,1,110,50,,,,,,,,
,,6130ceb2390f7cb3284f33a9,65af55a5ebaa6ae4e2c7565f,2024-01-23_08h01.49.021,bars,2023.2.3,Win32,59.88023952,657b66ea316d21385b68909f,,,,,,,,,,,1759.0063,1760.0022,,,1760.5018,1760.7515,,3,3,,,,,,,,,,,,,,,,bars/044.png,bars/mask004.png,,,,,,,,,,,,0,2,,,,,,,6,4,6,6,,,,,,,,,,,1760.0022,1760.5018,1760.7516,1761.3508,space,0.5916,,1761.3508,72,28,1762.3502,1762.3502,1762.3533,,,,0,23,23,23,1,75,155,,,,,,,,
,,6130ceb2390f7cb3284f33a9,65af55a5ebaa6ae4e2c7565f,2024-01-23_08h01.49.021,bars,2023.2.3,Win32,59.88023952,657b66ea316d21385b68909f,,,,,,,,,,,1762.3537,1763.3493,,,1763.8486,1764.0985,,67,67,,,,,,,,,,,,,,,,bars/009.png,bars/mask006.png,,,,,,,,,,,,0,2,,,,,,,4,2,3,1,,,,,,,,,,,1763.3493,1763.8486,1764.0986,1765.5467,space,1.4305,,1765.5467,52,38,1766.5461,1766.5461,1766.5702,,,,0,24,24,24,1,15,105,,,,,,,,
,,6130ceb2390f7cb3284f33a9,65af55a5ebaa6ae4e2c7565f,2024-01-23_08h01.49.021,bars,2023.2.3,Win32,59.88023952,657b66ea316d21385b68909f,,,,,,,,,,,1766.5704,1767.5619,,,1768.0613,1768.3112,,120,120,,,,,,,,,,,,,,,,bars/033.png,bars/mask004.png,,,,,,,,,,,,0,2,,,,,,,2,4,2,2,,,,,,,,,,,1767.5619,1768.0612,1768.3112,1769.6765,space,1.3492,,1769.6765,85,35,1770.6755,1770.6755,1770.6957,,,,0,25,25,25,1,25,155,,,,,,,,
,,6130ceb2390f7cb3284f33a9,65af55a5ebaa6ae4e2c7565f,2024-01-23_08h01.49.021,bars,2023.2.3,Win32,59.88023952,657b66ea316d21385b68909f,,,,,,,,,,,1770.696,1771.6912,,,1772.191,1772.4405,,120,120,,,,,,,,,,,,,,,,bars/046.png,bars/mask009.png,,,,,,,,,,,,0,2,,,,,,,4,6,4,6,,,,,,,,,,,1771.6912,1772.1909,1772.4406,1773.2232,space,0.7574,,1773.2233,35,35,1774.2224,1774.2224,1774.2237,,,,0,26,26,26,1,155,85,,,,,,,,
,,6130ceb2390f7cb3284f33a9,65af55a5ebaa6ae4e2c7565f,2024-01-23_08h01.49.021,bars,2023.2.3,Win32,59.88023952,657b66ea316d21385b68909f,,,,,,,,,,,1774.2242,1775.2214,,,1775.7209,1775.9707,,118,118,,,,,,,,,,,,,,,,bars/007.png,bars/mask006.png,,,,,,,,,,,,0,1,,,,,,,2,4,1,1,,,,,,,,,,,1775.2215,1775.7209,1775.9707,1782.9307,space,6.9473,,1782.9308,57,63,1783.9297,1783.9297,1783.9503,,,,0,27,27,27,1,175,55,,,,,,,,
,,6130ceb2390f7cb3284f33a9,65af55a5ebaa6ae4e2c7565f,2024-01-23_08h01.49.021,bars,2023.2.3,Win32,59.88023952,657b66ea316d21385b68909f,,,,,,,,,,,1783.9505,1784.9456,,,1785.4449,1785.6947,,96,96,,,,,,,,,,,,,,,,bars/026.png,bars/mask002.png,,,,,,,,,,,,2,2,,,,,,,4,2,5,3,,,,,,,,,,,1784.9456,1785.4449,1785.6948,1789.7409,space,4.0335,,1789.741,61,11,1790.7406,1790.7407,1790.7648,,,,0,28,28,28,1,35,85,,,,,,,,
,,6130ceb2390f7cb3284f33a9,65af55a5ebaa6ae4e2c7565f,2024-01-23_08h01.49.021,bars,2023.2.3,Win32,59.88023952,657b66ea316d21385b68909f,,,,,,,,,,,1790.7651,1791.7555,,,1792.2558,1792.4941,,36,36,,,,,,,,,,,,,,,,bars/035.png,bars/mask008.png,,,,,,,,,,,,0,2,,,,,,,2,0,3,0,,,,,,,,,,,1791.7555,1792.2557,1792.4942,1793.7371,space,1.2182,,1793.7371,41,24,1794.7362,1794.7363,1794.7577,,,,0,29,29,29,1,175,60,,,,,,,,
,,6130ceb2390f7cb3284f33a9,65af55a5ebaa6ae4e2c7565f,2024-01-23_08h01.49.021,bars,2023.2.3,Win32,59.88023952,657b66ea316d21385b68909f,,,,,,,,,,,1794.758,1795.7578,,,1796.2519,1796.5016,,129,129,,,,,,,,,,,,,,,,bars/001.png,bars/mask002.png,,,,,,,,,,,,2,1,,,,,,,0,0,2,0,,,,,,,,,,,1795.7579,1796.2518,1796.5016,1800.7141,space,4.1991,,1800.7142,1,44,1801.713,1801.7131,1801.7336,,,,0,30,30,30,1,130,85,,,,,,,,
,,6130ceb2390f7cb3284f33a9,65af55a5ebaa6ae4e2c7565f,2024-01-23_08h01.49.021,bars,2023.2.3,Win32,59.88023952,657b66ea316d21385b68909f,,,,,,,,,,,1801.7339,1802.7289,,,1803.2335,1803.4786,,28,208,,,,,,,,,,,,,,,,bars/023.png,bars/mask007.png,,,,,,,,,,,,1,1,,,,,,,2,0,1,0,,,,,,,,,,,1802.729,1803.2335,1803.4786,1808.1074,space,4.6026,,1808.1075,8,87,1809.1063,1809.1064,1809.1305,,,,0,31,31,31,1,20,115,,,,,,,,
,,6130ceb2390f7cb3284f33a9,65af55a5ebaa6ae4e2c7565f,2024-01-23_08h01.49.021,bars,2023.2.3,Win32,59.88023952,657b66ea316d21385b68909f,,,,,,,,,,,1809.1308,1810.1217,,,1810.6221,1810.8713,,42,42,,,,,,,,,,,,,,,,bars/033.png,bars/mask005.png,,,,,,,,,,,,0,1,,,,,,,0,0,0,0,,,,,,,,,,,1810.1217,1810.622,1810.8713,1815.8838,space,4.999,,1815.8838,17,67,1816.8881,1816.8882,1816.9135,,,,0,32,32,32,1,25,155,,,,,,,,
,,6130ceb2390f7cb3284f33a9,65af55a5ebaa6ae4e2c7565f,2024-01-23_08h01.49.021,bars,2023.2.3,Win32,59.88023952,657b66ea316d21385b68909f,,,,,,,,,,,1816.9137,1817.9149,,,1818.4147,1818.6638,,152,152,,,,,,,,,,,,,,,,bars/009.png,bars/mask001.png,,,,,,,,,,,,0,1,,,,,,,0,2,0,2,,,,,,,,,,,1817.9149,1818.4147,1818.6638,1826.7064,space,8.0274,,1826.7064,43,47,1827.7057,1827.7057,1827.7305,,,,0,33,33,33,1,15,105,,,,,,,,
,,6130ceb2390f7cb3284f33a9,65af55a5ebaa6ae4e2c7565f,2024-01-23_08h01.49.021,bars,2023.2.3,Win32,59.88023952,657b66ea316d21385b68909f,,,,,,,,,,,1827.7307,1828.7213,,,1829.221,1829.4707,,1,1,,,,,,,,,,,,,,,,bars/006.png,bars/mask002.png,,,,,,,,,,,,0,1,,,,,,,2,0,2,1,,,,,,,,,,,1828.7214,1829.221,1829.4708,1830.2037,space,0.7268,,1830.2037,34,81,1831.2023,1831.2024,1831.2039,,,,0,34,34,34,1,35,100,,,,,,,,
,,6130ceb2390f7cb3284f33a9,65af55a5ebaa6ae4e2c7565f,2024-01-23_08h01.49.021,bars,2023.2.3,Win32,59.88023952,657b66ea316d21385b68909f,,,,,,,,,,,1831.2046,1832.2013,,,1832.7011,1832.9508,,126,126,,,,,,,,,,,,,,,,bars/049.png,bars/mask004.png,,,,,,,,,,,,1,2,,,,,,,0,2,0,1,,,,,,,,,,,1832.2013,1832.701,1832.9508,1833.6226,space,0.6658,,1833.6226,34,11,1834.6163,1834.6164,1834.6206,,,,0,35,35,35,1,160,115,,,,,,,,
,,6130ceb2390f7cb3284f33a9,65af55a5ebaa6ae4e2c7565f,2024-01-23_08h01.49.021,bars,2023.2.3,Win32,59.88023952,657b66ea316d21385b68909f,,,,,,,,,,,1834.6212,1835.6148,,,1836.1144,1836.3641,,19,19,,,,,,,,,,,,,,,,bars/049.png,bars/mask001.png,,,,,,,,,,,,0,1,,,,,,,2,0,3,0,,,,,,,,,,,1835.6149,1836.1143,1836.3642,1837.3468,space,0.9676,,1837.3468,39,84,1838.3457,1838.3457,1838.3665,,,,0,36,36,36,1,160,115,,,,,,,,
,,6130ceb2390f7cb3284f33a9,65af55a5ebaa6ae4e2c7565f,2024-01-23_08h01.49.021,bars,2023.2.3,Win32,59.88023952,657b66ea316d21385b68909f,,,,,,,,,,,1838.3667,1839.3613,,,1839.8608,1840.1106,,60,60,,,,,,,,,,,,,,,,bars/030.png,bars/mask006.png,,,,,,,,,,,,1,2,,,,,,,4,2,5,1,,,,,,,,,,,1839.3613,1839.8608,1840.1107,1841.4927,space,1.3662,,1841.4927,80,5,1842.4917,1842.4917,1842.5123,,,,0,37,37,37,1,140,65,,,,,,,,
,,6130ceb2390f7cb3284f33a9,65af55a5ebaa6ae4e2c7565f,2024-01-23_08h01.49.021,bars,2023.2.3,Win32,59.88023952,657b66ea316d21385b68909f,,,,,,,,,,,1842.5125,1843.5076,,,1844.0072,1844.2567,,25,25,,,,,,,,,,,,,,,,bars/022.png,bars/mask000.png,,,,,,,,,,,,4,2,,,,,,,2,4,2,5,,,,,,,,,,,1843.5076,1844.0071,1844.2567,1852.3326,space,8.0686,,1852.3327,70,5,1853.3316,1853.3316,1853.3503,,,,0,38,38,38,1,95,20,,,,,,,,
,,6130ceb2390f7cb3284f33a9,65af55a5ebaa6ae4e2c7565f,2024-01-23_08h01.49.021,bars,2023.2.3,Win32,59.88023952,657b66ea316d21385b68909f,,,,,,,,,,,1853.3505,1854.3474,,,1854.8465,1855.0969,,116,116,,,,,,,,,,,,,,,,bars/023.png,bars/mask006.png,,,,,,,,,,,,6,2,,,,,,,4,6,3,6,,,,,,,,,,,1854.3475,1854.8465,1855.0969,1856.296,space,1.1895,,1856.296,84,1,1857.2944,1857.2945,1857.2956,,,,0,39,39,39,1,20,115,,,,,,,,
,,6130ceb2390f7cb3284f33a9,65af55a5ebaa6ae4e2c7565f,2024-01-23_08h01.49.021,bars,2023.2.3,Win32,59.88023952,657b66ea316d21385b68909f,,,,,,,,,,,1857.2961,1858.2938,,,1858.793,1859.0434,,3,3,,,,,,,,,,,,,,,,bars/047.png,bars/mask002.png,,,,,,,,,,,,1,1,,,,,,,2,4,1,3,,,,,,,,,,,1858.2938,1858.793,1859.0434,1859.6264,space,0.5766,,1859.6264,12,67,1860.625,1860.625,1860.6288,,,,0,40,40,40,1,15,70,,,,,,,,
,,6130ceb2390f7cb3284f33a9,65af55a5ebaa6ae4e2c7565f,2024-01-23_08h01.49.021,bars,2023.2.3,Win32,59.88023952,657b66ea316d21385b68909f,,,,,,,,,,,1860.6293,1861.6236,,,1862.1232,1862.373,,42,42,,,,,,,,,,,,,,,,bars/007.png,bars/mask008.png,,,,,,,,,,,,1,2,,,,,,,4,2,3,2,,,,,,,,,,,1861.6236,1862.1232,1862.3732,1863.0396,space,0.634,,1863.0397,47,13,1864.0384,1864.0384,1864.0416,,,,0,41,41,41,1,175,55,,,,,,,,
,,6130ceb2390f7cb3284f33a9,65af55a5ebaa6ae4e2c7565f,2024-01-23_08h01.49.021,bars,2023.2.3,Win32,59.88023952,657b66ea316d21385b68909f,,,,,,,,,,,1864.0422,1865.0371,,,1865.537,1865.7869,,123,123,,,,,,,,,,,,,,,,bars/029.png,bars/mask009.png,,,,,,,,,,,,0,1,,,,,,,6,0,7,1,,,,,,,,,,,1865.0371,1865.537,1865.787,1866.6028,space,0.8014,,1866.6029,33,78,1867.6016,1867.6016,1867.6045,,,,0,42,42,42,1,90,45,,,,,,,,
,,6130ceb2390f7cb3284f33a9,65af55a5ebaa6ae4e2c7565f,2024-01-23_08h01.49.021,bars,2023.2.3,Win32,59.88023952,657b66ea316d21385b68909f,,,,,,,,,,,1867.6049,1868.6008,,,1869.1004,1869.3499,,27,27,,,,,,,,,,,,,,,,bars/012.png,bars/mask003.png,,,,,,,,,,,,0,2,,,,,,,4,0,6,0,,,,,,,,,,,1868.6008,1869.1003,1869.3499,1870.316,space,0.9516,,1870.3161,63,12,1871.3148,1871.3148,1871.3175,,,,0,43,43,43,1,90,15,,,,,,,,
,,6130ceb2390f7cb3284f33a9,65af55a5ebaa6ae4e2c7565f,2024-01-23_08h01.49.021,bars,2023.2.3,Win32,59.88023952,657b66ea316d21385b68909f,,,,,,,,,,,1871.3178,1872.3137,,,1872.8138,1873.0627,,167,167,,,,,,,,,,,,,,,,bars/018.png,bars/mask003.png,,,,,,,,,,,,1,1,,,,,,,2,0,2,0,,,,,,,,,,,1872.3137,1872.8137,1873.0628,1875.5778,space,2.5011,,1875.5778,17,77,1876.5763,1876.5763,1876.5873,,,,0,44,44,44,1,150,90,,,,,,,,
,,6130ceb2390f7cb3284f33a9,65af55a5ebaa6ae4e2c7565f,2024-01-23_08h01.49.021,bars,2023.2.3,Win32,59.88023952,657b66ea316d21385b68909f,,,,,,,,,,,1876.5874,1877.5758,,,1878.0754,1878.3134,,148,148,,,,,,,,,,,,,,,,bars/013.png,bars/mask001.png,,,,,,,,,,,,0,2,,,,,,,0,0,0,2,,,,,,,,,,,1877.5758,1878.0753,1878.3135,1879.0574,space,0.7335,,1879.0574,73,42,1880.0568,1880.0569,1880.0604,,,,0,45,45,45,1,75,10,,,,,,,,
,,6130ceb2390f7cb3284f33a9,65af55a5ebaa6ae4e2c7565f,2024-01-23_08h01.49.021,bars,2023.2.3,Win32,59.88023952,657b66ea316d21385b68909f,,,,,,,,,,,1880.0608,1881.0561,,,1881.5552,1881.8101,,122,122,,,,,,,,,,,,,,,,bars/047.png,bars/mask008.png,,,,,,,,,,,,0,2,,,,,,,2,2,2,1,,,,,,,,,,,1881.0561,1881.5551,1881.8101,1882.8879,space,1.0654,,1882.888,73,52,1883.8862,1883.8863,1883.8874,,,,0,46,46,46,1,15,70,,,,,,,,
,,6130ceb2390f7cb3284f33a9,65af55a5ebaa6ae4e2c7565f,2024-01-23_08h01.49.021,bars,2023.2.3,Win32,59.88023952,657b66ea316d21385b68909f,,,,,,,,,,,1883.888,1884.8855,,,1885.3744,1885.6185,,140,140,,,,,,,,,,,,,,,,bars/031.png,bars/mask005.png,,,,,,,,,,,,2,1,,,,,,,4,0,5,1,,,,,,,,,,,1884.8855,1885.3744,1885.6186,1886.3675,space,0.7314,,1886.3676,20,75,1887.366,1887.366,1887.3683,,,,0,47,47,47,1,120,35,,,,,,,,
,,6130ceb2390f7cb3284f33a9,65af55a5ebaa6ae4e2c7565f,2024-01-23_08h01.49.021,bars,2023.2.3,Win32,59.88023952,657b66ea316d21385b68909f,,,,,,,,,,,1887.3686,1888.3658,,,1888.865,1889.1029,,178,-2,,,,,,,,,,,,,,,,bars/022.png,bars/mask006.png,,,,,,,,,,,,1,2,,,,,,,6,2,7,3,,,,,,,,,,,1888.3659,1888.865,1889.1029,1891.0128,space,1.8867,,1891.0129,83,22,1892.0124,1892.0125,1892.0362,,,,0,48,48,48,1,95,20,,,,,,,,
,,6130ceb2390f7cb3284f33a9,65af55a5ebaa6ae4e2c7565f,2024-01-23_08h01.49.021,bars,2023.2.3,Win32,59.88023952,657b66ea316d21385b68909f,,,,,,,,,,,1892.0365,1893.0281,,,1893.5277,1893.7774,,144,144,,,,,,,,,,,,,,,,bars/025.png,bars/mask003.png,,,,,,,,,,,,0,1,,,,,,,4,4,3,4,,,,,,,,,,,1893.0281,1893.5277,1893.7774,1894.6924,space,0.9075,,1894.6924,39,76,1895.6923,1895.6924,1895.6955,,,,0,49,49,49,1,105,40,,,,,,,,
,,6130ceb2390f7cb3284f33a9,65af55a5ebaa6ae4e2c7565f,2024-01-23_08h01.49.021,bars,2023.2.3,Win32,59.88023952,657b66ea316d21385b68909f,,,,,,,,,,,,,,,,,,,,,,,,,,,,,,,,,,,,,,,,,,,,,,,,,,,,,,,,,,,,,,,,,,,,,,,,,,,,,,,,,,,,,,,,,,,,,1895.6957,1955.6862,0,3,3,3,1,sequence_tables/blk023.csv
,,6130ceb2390f7cb3284f33a9,65af55a5ebaa6ae4e2c7565f,2024-01-23_08h01.49.021,bars,2023.2.3,Win32,59.88023952,657b66ea316d21385b68909f,,,,,,,,,,,1964.2179,1965.2103,,,1965.7099,1965.9597,,144,144,,,,,,,,,,,,,,,,bars/048.png,bars/mask008.png,,,,,,,,,,,,0,2,,,,,,,5,9,5,7,,,,,,1955.7117,1964.1947,space,8.4728,,1965.2104,1965.7098,1965.9598,1966.5093,space,0.5265,,1966.5095,86,31,1967.5083,1967.5084,1967.5126,,,,0,0,0,0,1,50,175,,,,,,,,
,,6130ceb2390f7cb3284f33a9,65af55a5ebaa6ae4e2c7565f,2024-01-23_08h01.49.021,bars,2023.2.3,Win32,59.88023952,657b66ea316d21385b68909f,,,,,,,,,,,1967.5134,1968.5074,,,1969.0071,1969.2569,,32,32,,,,,,,,,,,,,,,,bars/035.png,bars/mask003.png,,,,,,,,,,,,0,2,,,,,,,7,7,10,5,,,,,,,,,,,1968.5075,1969.0071,1969.257,1970.0563,space,0.7752,,1970.0563,37,28,1971.0551,1971.0552,1971.0565,,,,0,1,1,1,1,175,60,,,,,,,,
,,6130ceb2390f7cb3284f33a9,65af55a5ebaa6ae4e2c7565f,2024-01-23_08h01.49.021,bars,2023.2.3,Win32,59.88023952,657b66ea316d21385b68909f,,,,,,,,,,,1971.0572,1972.0539,,,1972.5533,1972.8032,,87,87,,,,,,,,,,,,,,,,bars/018.png,bars/mask001.png,,,,,,,,,,,,3,2,,,,,,,5,5,6,3,,,,,,,,,,,1972.0539,1972.5533,1972.8033,1975.218,space,2.3993,,1975.2181,63,3,1976.2168,1976.2169,1976.236,,,,0,2,2,2,1,150,90,,,,,,,,
,,6130ceb2390f7cb3284f33a9,65af55a5ebaa6ae4e2c7565f,2024-01-23_08h01.49.021,bars,2023.2.3,Win32,59.88023952,657b66ea316d21385b68909f,,,,,,,,,,,1976.2362,1977.2325,,,1977.7323,1977.982,,176,-4,,,,,,,,,,,,,,,,bars/031.png,bars/mask008.png,,,,,,,,,,,,0,2,,,,,,,7,3,6,6,,,,,,,,,,,1977.2326,1977.7323,1977.982,1980.6126,space,2.6172,,1980.6127,56,39,1981.6117,1981.6117,1981.6303,,,,0,3,3,3,1,120,35,,,,,,,,
,,6130ceb2390f7cb3284f33a9,65af55a5ebaa6ae4e2c7565f,2024-01-23_08h01.49.021,bars,2023.2.3,Win32,59.88023952,657b66ea316d21385b68909f,,,,,,,,,,,1981.6305,1982.6278,,,1983.1298,1983.3766,,89,89,,,,,,,,,,,,,,,,bars/040.png,bars/mask007.png,,,,,,,,,,,,0,1,,,,,,,9,5,9,6,,,,,,,,,,,1982.6279,1983.1298,1983.3766,1985.8414,space,2.4536,,1985.8416,51,84,1986.8411,1986.8412,1986.8641,,,,0,4,4,4,1,140,5,,,,,,,,
,,6130ceb2390f7cb3284f33a9,65af55a5ebaa6ae4e2c7565f,2024-01-23_08h01.49.021,bars,2023.2.3,Win32,59.88023952,657b66ea316d21385b68909f,,,,,,,,,,,1986.8644,1987.856,,,1988.3553,1988.6054,,173,173,,,,,,,,,,,,,,,,bars/005.png,bars/mask005.png,,,,,,,,,,,,4,1,,,,,,,10,7,9,6,,,,,,,,,,,1987.856,1988.3553,1988.6055,1989.3934,space,0.782,,1989.3936,17,33,1990.3871,1990.3872,1990.3887,,,,0,5,5,5,1,10,140,,,,,,,,
,,6130ceb2390f7cb3284f33a9,65af55a5ebaa6ae4e2c7565f,2024-01-23_08h01.49.021,bars,2023.2.3,Win32,59.88023952,657b66ea316d21385b68909f,,,,,,,,,,,1990.3894,1991.3862,,,1991.8855,1992.1352,,48,48,,,,,,,,,,,,,,,,bars/019.png,bars/mask004.png,,,,,,,,,,,,6,1,,,,,,,8,5,7,4,,,,,,,,,,,1991.3863,1991.8855,1992.1353,1992.6682,space,0.5191,,1992.6682,3,57,1993.6675,1993.6676,1993.6693,,,,0,6,6,6,1,45,105,,,,,,,,
,,6130ceb2390f7cb3284f33a9,65af55a5ebaa6ae4e2c7565f,2024-01-23_08h01.49.021,bars,2023.2.3,Win32,59.88023952,657b66ea316d21385b68909f,,,,,,,,,,,1993.6702,1994.666,,,1995.166,1995.4158,,148,148,,,,,,,,,,,,,,,,bars/040.png,bars/mask007.png,,,,,,,,,,,,4,1,,,,,,,6,7,6,8,,,,,,,,,,,1994.666,1995.166,1995.4158,1995.9157,space,0.4877,,1995.9158,8,37,1996.9143,1996.9143,1996.9159,,,,0,7,7,7,1,140,5,,,,,,,,
,,6130ceb2390f7cb3284f33a9,65af55a5ebaa6ae4e2c7565f,2024-01-23_08h01.49.021,bars,2023.2.3,Win32,59.88023952,657b66ea316d21385b68909f,,,,,,,,,,,1996.9165,1997.913,,,1998.4127,1998.6622,,80,80,,,,,,,,,,,,,,,,bars/007.png,bars/mask009.png,,,,,,,,,,,,1,2,,,,,,,8,5,9,6,,,,,,,,,,,1997.913,1998.4126,1998.6622,1999.4289,space,0.7407,,1999.429,85,25,2000.4276,2000.4278,2000.4311,,,,0,8,8,8,1,175,55,,,,,,,,
,,6130ceb2390f7cb3284f33a9,65af55a5ebaa6ae4e2c7565f,2024-01-23_08h01.49.021,bars,2023.2.3,Win32,59.88023952,657b66ea316d21385b68909f,,,,,,,,,,,2000.4316,2001.4267,,,2001.9263,2002.1761,,65,65,,,,,,,,,,,,,,,,bars/035.png,bars/mask002.png,,,,,,,,,,,,7,2,,,,,,,10,7,10,8,,,,,,,,,,,2001.4268,2001.9263,2002.1761,2002.4096,space,0.2256,,2002.4097,70,5,2003.4084,2003.4084,2003.4101,,,,0,9,9,9,1,175,60,,,,,,,,
,,6130ceb2390f7cb3284f33a9,65af55a5ebaa6ae4e2c7565f,2024-01-23_08h01.49.021,bars,2023.2.3,Win32,59.88023952,657b66ea316d21385b68909f,,,,,,,,,,,2003.4109,2004.4072,,,2004.9066,2005.145,,84,84,,,,,,,,,,,,,,,,bars/016.png,bars/mask000.png,,,,,,,,,,,,0,1,,,,,,,8,9,8,9,,,,,,,,,,,2004.4072,2004.9066,2005.145,2007.0382,space,1.8755,,2007.0384,44,81,2008.0372,2008.0373,2008.0605,,,,0,10,10,10,1,40,165,,,,,,,,
,,6130ceb2390f7cb3284f33a9,65af55a5ebaa6ae4e2c7565f,2024-01-23_08h01.49.021,bars,2023.2.3,Win32,59.88023952,657b66ea316d21385b68909f,,,,,,,,,,,2008.0607,2009.0531,,,2009.5524,2009.8019,,163,163,,,,,,,,,,,,,,,,bars/038.png,bars/mask008.png,,,,,,,,,,,,5,1,,,,,,,6,10,5,10,,,,,,,,,,,2009.0531,2009.5523,2009.8019,2010.5742,space,0.7671,,2010.5743,2,87,2011.5672,2011.5673,2011.5687,,,,0,11,11,11,1,165,70,,,,,,,,
