init_variables.started,init_variables.stopped,participant,session,date,expName,psychopyVersion,OS,frameRate,study_id,instruction_exp.started,instruction_exp.stopped,key_resp_8.keys,key_resp_8.rt,key_resp_8.duration,instruction_single.started,instruction_single.stopped,key_resp_2.keys,key_resp_2.rt,key_resp_2.duration,interval.started,interval.stopped,cue_single.started,cue_single.stopped,mask.started,mask.stopped,ori_response_single.started,res_ori,res,ori_response_single.stopped,key_resp_single.keys,key_resp_single.rt,key_resp_single.duration,disp_single.started,disp_single.stopped,key_resp.keys,key_resp.rt,key_resp.duration,single.thisRepN,single.thisTrialN,single.thisN,single.thisIndex,single.ran,ori,path,mask_path,instruction_bandit.started,instruction_bandit.stopped,key_resp_6.keys,key_resp_6.rt,key_resp_6.duration,cue_bandit.started,cue_bandit.stopped,bandit_res.keys,bandit_res.rt,bandit_res.duration,outcome_bandit.started,rew,action,outcome_bandit.stopped,bandit.thisRepN,bandit.thisTrialN,bandit.thisN,bandit.thisIndex,bandit.ran,actual_rew1,actual_rew2,rew1,rew2,instruction_task.started,instruction_task.stopped,key_resp_7.keys,key_resp_7.rt,key_resp_7.duration,wait_ready.started,wait_ready.stopped,key_resp_3.keys,key_resp_3.rt,key_resp_3.duration,cue.started,cue.stopped,ori_response.started,ori_response.stopped,key_resp_5.keys,key_resp_5.rt,key_resp_5.duration,outcome.started,diff1,diff2,outcome.stopped,disp_outcome_practice.started,disp_outcome_practice.stopped,key_resp_4.keys,key_resp_4.rt,key_resp_4.duration,trials.thisRepN,trials.thisTrialN,trials.thisN,trials.thisIndex,trials.ran,ori1,ori2,break_blk.started,break_blk.stopped,block.thisRepN,block.thisTrialN,block.thisN,block.thisIndex,block.ran,condition_file
0.0002,0.0003,645f83e73ef9ed597a1daf09,65af553e928510ff1336ce3e,2024-01-23_06h58.36.478,bars,2023.2.3,Win32,20,657b66ea316d21385b68909f,,,,,,,,,,,,,,,,,,,,,,,,,,,,,,,,,,,,,,,,,,,,,,,,,,,,,,,,,,,,,,,,,,,,,,,,,,,,,,,,,,,,,,,,,,,,,,,,,,,,
,,645f83e73ef9ed597a1daf09,65af553e928510ff1336ce3e,2024-01-23_06h58.36.478,bars,2023.2.3,Win32,20,657b66ea316d21385b68909f,0.0004,8.3869,y,8.333,,,,,,,,,,,,,,,,,,,,,,,,,,,,,,,,,,,,,,,,,,,,,,,,,,,,,,,,,,,,,,,,,,,,,,,,,,,,,,,,,,,,,,,,,,,,,,,,
,,645f83e73ef9ed597a1daf09,65af553e928510ff1336ce3e,2024-01-23_06h58.36.478,bars,2023.2.3,Win32,20,657b66ea316d21385b68909f,,,,,,8.387,30.8656,space,22.4305,,,,,,,,,,,,,,,,,,,,,,,,,,,,,,,,,,,,,,,,,,,,,,,,,,,,,,,,,,,,,,,,,,,,,,,,,,,,,,,,,,,,,,,,,,,
,,645f83e73ef9ed597a1daf09,65af553e928510ff1336ce3e,2024-01-23_06h58.36.478,bars,2023.2.3,Win32,20,657b66ea316d21385b68909f,,,,,,,,,,,30.8712,31.8816,31.8816,32.3803,32.3804,32.6454,32.6455,90,90,43.5624,space,10.8674,,43.5624,72.5733,space,28.959,,0,0,0,9,1,20,bars/single009.png,bars/mask006.png,,,,,,,,,,,,,,,,,,,,,,,,,,,,,,,,,,,,,,,,,,,,,,,,,,,,,,,,,,,,,,,,
,,645f83e73ef9ed597a1daf09,65af553e928510ff1336ce3e,2024-01-23_06h58.36.478,bars,2023.2.3,Win32,20,657b66ea316d21385b68909f,,,,,,,,,,,72.5793,73.5558,73.5559,74.0564,74.0564,74.3136,74.3136,90,90,79.284,space,4.9252,,79.2841,81.8445,space,2.5101,,0,1,1,4,1,95,bars/single004.png,bars/mask004.png,,,,,,,,,,,,,,,,,,,,,,,,,,,,,,,,,,,,,,,,,,,,,,,,,,,,,,,,,,,,,,,,
,,645f83e73ef9ed597a1daf09,65af553e928510ff1336ce3e,2024-01-23_06h58.36.478,bars,2023.2.3,Win32,20,657b66ea316d21385b68909f,,,,,,,,,,,81.8503,82.8426,82.8427,83.3328,83.3329,83.5814,83.5814,164,164,87.7061,space,4.0754,,87.7061,89.0806,space,1.3238,,0,2,2,8,1,160,bars/single008.png,bars/mask004.png,,,,,,,,,,,,,,,,,,,,,,,,,,,,,,,,,,,,,,,,,,,,,,,,,,,,,,,,,,,,,,,,
,,645f83e73ef9ed597a1daf09,65af553e928510ff1336ce3e,2024-01-23_06h58.36.478,bars,2023.2.3,Win32,20,657b66ea316d21385b68909f,,,,,,,,,,,89.0809,90.0769,90.0769,90.5858,90.5858,90.7996,90.7996,16,196,96.5245,space,5.6683,,96.5245,97.712,space,1.1257,,0,3,3,1,1,20,bars/single001.png,bars/mask006.png,,,,,,,,,,,,,,,,,,,,,,,,,,,,,,,,,,,,,,,,,,,,,,,,,,,,,,,,,,,,,,,,
,,645f83e73ef9ed597a1daf09,65af553e928510ff1336ce3e,2024-01-23_06h58.36.478,bars,2023.2.3,Win32,20,657b66ea316d21385b68909f,,,,,,,,,,,97.7122,98.6962,98.6962,99.1895,99.1896,99.4419,99.4419,176,176,100.7354,space,1.2476,,100.7354,102.2085,space,1.4142,,0,4,4,6,1,175,bars/single006.png,bars/mask005.png,,,,,,,,,,,,,,,,,,,,,,,,,,,,,,,,,,,,,,,,,,,,,,,,,,,,,,,,,,,,,,,,
,,645f83e73ef9ed597a1daf09,65af553e928510ff1336ce3e,2024-01-23_06h58.36.478,bars,2023.2.3,Win32,20,657b66ea316d21385b68909f,,,,,,,,,,,102.2086,103.1985,103.1985,103.722,103.722,103.9715,103.9716,164,-16,111.0053,space,6.9701,,111.0054,113.1306,space,2.0689,,0,5,5,2,1,145,bars/single002.png,bars/mask003.png,,,,,,,,,,,,,,,,,,,,,,,,,,,,,,,,,,,,,,,,,,,,,,,,,,,,,,,,,,,,,,,,
,,645f83e73ef9ed597a1daf09,65af553e928510ff1336ce3e,2024-01-23_06h58.36.478,bars,2023.2.3,Win32,20,657b66ea316d21385b68909f,,,,,,,,,,,113.1307,114.1278,114.1279,114.6144,114.6145,114.8312,114.8313,164,-16,121.1558,space,6.2748,,121.1558,130.369,space,9.1644,,0,6,6,0,1,150,bars/single000.png,bars/mask006.png,,,,,,,,,,,,,,,,,,,,,,,,,,,,,,,,,,,,,,,,,,,,,,,,,,,,,,,,,,,,,,,,
,,645f83e73ef9ed597a1daf09,65af553e928510ff1336ce3e,2024-01-23_06h58.36.478,bars,2023.2.3,Win32,20,657b66ea316d21385b68909f,,,,,,,,,,,130.375,131.3512,131.3512,131.8576,131.8577,132.1207,132.1208,62,62,135.1787,space,3.0136,,135.1788,137.9326,space,2.6906,,0,7,7,7,1,45,bars/single007.png,bars/mask009.png,,,,,,,,,,,,,,,,,,,,,,,,,,,,,,,,,,,,,,,,,,,,,,,,,,,,,,,,,,,,,,,,
,,645f83e73ef9ed597a1daf09,65af553e928510ff1336ce3e,2024-01-23_06h58.36.478,bars,2023.2.3,Win32,20,657b66ea316d21385b68909f,,,,,,,,,,,137.9328,138.9213,138.9214,139.4435,139.4436,139.7029,139.7029,35,215,148.9034,space,9.1424,,148.9034,150.1831,space,1.2167,,0,8,8,3,1,20,bars/single003.png,bars/mask005.png,,,,,,,,,,,,,,,,,,,,,,,,,,,,,,,,,,,,,,,,,,,,,,,,,,,,,,,,,,,,,,,,
,,645f83e73ef9ed597a1daf09,65af553e928510ff1336ce3e,2024-01-23_06h58.36.478,bars,2023.2.3,Win32,20,657b66ea316d21385b68909f,,,,,,,,,,,150.1833,151.1938,151.1938,151.6958,151.6958,151.9133,151.9134,60,240,158.7293,space,6.7651,,158.7293,159.6257,space,0.8416,,0,9,9,5,1,55,bars/single005.png,bars/mask008.png,,,,,,,,,,,,,,,,,,,,,,,,,,,,,,,,,,,,,,,,,,,,,,,,,,,,,,,,,,,,,,,,
,,645f83e73ef9ed597a1daf09,65af553e928510ff1336ce3e,2024-01-23_06h58.36.478,bars,2023.2.3,Win32,20,657b66ea316d21385b68909f,,,,,,,,,,,,,,,,,,,,,,,,,,,,,,,,,,,,,159.626,191.0421,space,31.3639,,,,,,,,,,,,,,,,,,,,,,,,,,,,,,,,,,,,,,,,,,,,,,,,,,,,,,,,,,,,
,,645f83e73ef9ed597a1daf09,65af553e928510ff1336ce3e,2024-01-23_06h58.36.478,bars,2023.2.3,Win32,20,657b66ea316d21385b68909f,,,,,,,,,,,,,,,,,,,,,,,,,,,,,,,,,,,,,,,,,,191.0491,194.5424,right,3.4439,,194.5425,2,2,195.5141,0,0,0,0,1,9,1,9,2,,,,,,,,,,,,,,,,,,,,,,,,,,,,,,,,,,,,,,,,,
,,645f83e73ef9ed597a1daf09,65af553e928510ff1336ce3e,2024-01-23_06h58.36.478,bars,2023.2.3,Win32,20,657b66ea316d21385b68909f,,,,,,,,,,,,,,,,,,,,,,,,,,,,,,,,,,,,,,,,,,195.5144,198.0447,right,2.478,,198.0447,1,2,199.0265,0,1,1,1,1,10,0,10,1,,,,,,,,,,,,,,,,,,,,,,,,,,,,,,,,,,,,,,,,,
,,645f83e73ef9ed597a1daf09,65af553e928510ff1336ce3e,2024-01-23_06h58.36.478,bars,2023.2.3,Win32,20,657b66ea316d21385b68909f,,,,,,,,,,,,,,,,,,,,,,,,,,,,,,,,,,,,,,,,,,199.0267,199.6233,left,0.5429,,199.6234,10,1,200.5993,0,2,2,2,1,10,2,10,2,,,,,,,,,,,,,,,,,,,,,,,,,,,,,,,,,,,,,,,,,
,,645f83e73ef9ed597a1daf09,65af553e928510ff1336ce3e,2024-01-23_06h58.36.478,bars,2023.2.3,Win32,20,657b66ea316d21385b68909f,,,,,,,,,,,,,,,,,,,,,,,,,,,,,,,,,,,,,,,,,,200.5996,201.4833,left,0.8375,,201.4833,7,1,202.4653,0,3,3,3,1,8,4,7,3,,,,,,,,,,,,,,,,,,,,,,,,,,,,,,,,,,,,,,,,,
,,645f83e73ef9ed597a1daf09,65af553e928510ff1336ce3e,2024-01-23_06h58.36.478,bars,2023.2.3,Win32,20,657b66ea316d21385b68909f,,,,,,,,,,,,,,,,,,,,,,,,,,,,,,,,,,,,,,,,,,202.4656,203.21,left,0.697,,203.21,5,1,204.2077,0,4,4,4,1,6,2,5,1,,,,,,,,,,,,,,,,,,,,,,,,,,,,,,,,,,,,,,,,,
,,645f83e73ef9ed597a1daf09,65af553e928510ff1336ce3e,2024-01-23_06h58.36.478,bars,2023.2.3,Win32,20,657b66ea316d21385b68909f,,,,,,,,,,,,,,,,,,,,,,,,,,,,,,,,,,,,,,,,,,204.2079,204.3102,right,0.0535,,204.3102,4,2,205.3003,0,5,5,5,1,4,4,4,4,,,,,,,,,,,,,,,,,,,,,,,,,,,,,,,,,,,,,,,,,
,,645f83e73ef9ed597a1daf09,65af553e928510ff1336ce3e,2024-01-23_06h58.36.478,bars,2023.2.3,Win32,20,657b66ea316d21385b68909f,,,,,,,,,,,,,,,,,,,,,,,,,,,,,,,,,,,,,,,,,,205.3007,205.7214,left,0.3748,,205.7214,1,1,206.7056,0,6,6,6,1,2,2,1,2,,,,,,,,,,,,,,,,,,,,,,,,,,,,,,,,,,,,,,,,,
,,645f83e73ef9ed597a1daf09,65af553e928510ff1336ce3e,2024-01-23_06h58.36.478,bars,2023.2.3,Win32,20,657b66ea316d21385b68909f,,,,,,,,,,,,,,,,,,,,,,,,,,,,,,,,,,,,,,,,,,206.706,207.7687,right,0.9926,,207.7687,1,2,208.7537,0,7,7,7,1,0,0,0,1,,,,,,,,,,,,,,,,,,,,,,,,,,,,,,,,,,,,,,,,,
,,645f83e73ef9ed597a1daf09,65af553e928510ff1336ce3e,2024-01-23_06h58.36.478,bars,2023.2.3,Win32,20,657b66ea316d21385b68909f,,,,,,,,,,,,,,,,,,,,,,,,,,,,,,,,,,,,,,,,,,208.7539,210.8364,left,2.034,,210.8366,1,1,211.8412,0,8,8,8,1,0,2,1,0,,,,,,,,,,,,,,,,,,,,,,,,,,,,,,,,,,,,,,,,,
,,645f83e73ef9ed597a1daf09,65af553e928510ff1336ce3e,2024-01-23_06h58.36.478,bars,2023.2.3,Win32,20,657b66ea316d21385b68909f,,,,,,,,,,,,,,,,,,,,,,,,,,,,,,,,,,,,,,,,,,211.8414,230.6327,right,18.7424,,230.6328,3,2,231.6114,0,9,9,9,1,2,4,2,3,,,,,,,,,,,,,,,,,,,,,,,,,,,,,,,,,,,,,,,,,
,,645f83e73ef9ed597a1daf09,65af553e928510ff1336ce3e,2024-01-23_06h58.36.478,bars,2023.2.3,Win32,20,657b66ea316d21385b68909f,,,,,,,,,,,,,,,,,,,,,,,,,,,,,,,,,,,,,,,,,,231.618,232.0821,right,0.4182,,232.0821,3,2,233.0497,0,10,10,10,1,0,2,0,3,,,,,,,,,,,,,,,,,,,,,,,,,,,,,,,,,,,,,,,,,
,,645f83e73ef9ed597a1daf09,65af553e928510ff1336ce3e,2024-01-23_06h58.36.478,bars,2023.2.3,Win32,20,657b66ea316d21385b68909f,,,,,,,,,,,,,,,,,,,,,,,,,,,,,,,,,,,,,,,,,,233.0499,233.7053,right,0.6056,,233.7053,3,2,234.6895,0,11,11,11,1,0,4,0,3,,,,,,,,,,,,,,,,,,,,,,,,,,,,,,,,,,,,,,,,,
,,645f83e73ef9ed597a1daf09,65af553e928510ff1336ce3e,2024-01-23_06h58.36.478,bars,2023.2.3,Win32,20,657b66ea316d21385b68909f,,,,,,,,,,,,,,,,,,,,,,,,,,,,,,,,,,,,,,,,,,234.6898,235.3992,right,0.6624,,235.3993,6,2,236.3918,0,12,12,12,1,2,6,1,6,,,,,,,,,,,,,,,,,,,,,,,,,,,,,,,,,,,,,,,,,
,,645f83e73ef9ed597a1daf09,65af553e928510ff1336ce3e,2024-01-23_06h58.36.478,bars,2023.2.3,Win32,20,657b66ea316d21385b68909f,,,,,,,,,,,,,,,,,,,,,,,,,,,,,,,,,,,,,,,,,,236.3921,236.9537,right,0.5172,,236.9537,3,2,237.9452,0,13,13,13,1,0,4,1,3,,,,,,,,,,,,,,,,,,,,,,,,,,,,,,,,,,,,,,,,,
,,645f83e73ef9ed597a1daf09,65af553e928510ff1336ce3e,2024-01-23_06h58.36.478,bars,2023.2.3,Win32,20,657b66ea316d21385b68909f,,,,,,,,,,,,,,,,,,,,,,,,,,,,,,,,,,,,,,,,,,237.9453,244.3738,left,6.3809,,244.3738,2,1,245.3416,0,14,14,14,1,2,6,2,7,,,,,,,,,,,,,,,,,,,,,,,,,,,,,,,,,,,,,,,,,
,,645f83e73ef9ed597a1daf09,65af553e928510ff1336ce3e,2024-01-23_06h58.36.478,bars,2023.2.3,Win32,20,657b66ea316d21385b68909f,,,,,,,,,,,,,,,,,,,,,,,,,,,,,,,,,,,,,,,,,,245.3474,245.6478,right,0.2528,,245.6479,9,2,246.6104,0,15,15,15,1,4,8,3,9,,,,,,,,,,,,,,,,,,,,,,,,,,,,,,,,,,,,,,,,,
,,645f83e73ef9ed597a1daf09,65af553e928510ff1336ce3e,2024-01-23_06h58.36.478,bars,2023.2.3,Win32,20,657b66ea316d21385b68909f,,,,,,,,,,,,,,,,,,,,,,,,,,,,,,,,,,,,,,,,,,246.6107,246.7643,right,0.1002,,246.7643,7,2,247.7376,0,16,16,16,1,6,6,7,7,,,,,,,,,,,,,,,,,,,,,,,,,,,,,,,,,,,,,,,,,
,,645f83e73ef9ed597a1daf09,65af553e928510ff1336ce3e,2024-01-23_06h58.36.478,bars,2023.2.3,Win32,20,657b66ea316d21385b68909f,,,,,,,,,,,,,,,,,,,,,,,,,,,,,,,,,,,,,,,,,,247.7378,247.9887,right,0.2026,,247.9887,5,2,248.9859,0,17,17,17,1,8,4,9,5,,,,,,,,,,,,,,,,,,,,,,,,,,,,,,,,,,,,,,,,,
,,645f83e73ef9ed597a1daf09,65af553e928510ff1336ce3e,2024-01-23_06h58.36.478,bars,2023.2.3,Win32,20,657b66ea316d21385b68909f,,,,,,,,,,,,,,,,,,,,,,,,,,,,,,,,,,,,,,,,,,248.9861,249.1446,right,0.1108,,249.1446,1,2,250.1285,0,18,18,18,1,6,2,5,1,,,,,,,,,,,,,,,,,,,,,,,,,,,,,,,,,,,,,,,,,
,,645f83e73ef9ed597a1daf09,65af553e928510ff1336ce3e,2024-01-23_06h58.36.478,bars,2023.2.3,Win32,20,657b66ea316d21385b68909f,,,,,,,,,,,,,,,,,,,,,,,,,,,,,,,,,,,,,,,,,,250.1287,250.4915,left,0.3184,,250.4915,7,1,251.47,0,19,19,19,1,8,0,7,0,,,,,,,,,,,,,,,,,,,,,,,,,,,,,,,,,,,,,,,,,
,,645f83e73ef9ed597a1daf09,65af553e928510ff1336ce3e,2024-01-23_06h58.36.478,bars,2023.2.3,Win32,20,657b66ea316d21385b68909f,,,,,,,,,,,,,,,,,,,,,,,,,,,,,,,,,,,,,,,,,,,,,,,,,,,,,,,,,,,,251.4704,259.2291,space,7.7005,,,,,,,,,,,,,,,,,,,,,,,,,,,,,,,,,,,,,
,,645f83e73ef9ed597a1daf09,65af553e928510ff1336ce3e,2024-01-23_06h58.36.478,bars,2023.2.3,Win32,20,657b66ea316d21385b68909f,,,,,,,,,,,286.0358,287.0141,,,287.506,287.7585,,116,116,,,,,,,,,,,,,,,,bars/002.png,bars/mask004.png,,,,,,,,,,,,3,1,,,,,,,3,2,6,4,,,,,,259.2381,286.0278,space,26.7273,,287.0142,287.506,287.7588,294.2446,space,6.44,,294.2447,14,31,295.2411,295.2412,332.3479,space,37.0583,,0,0,0,0,1,130,85,,,,,,,,
,,645f83e73ef9ed597a1daf09,65af553e928510ff1336ce3e,2024-01-23_06h58.36.478,bars,2023.2.3,Win32,20,657b66ea316d21385b68909f,,,,,,,,,,,332.3537,333.3348,,,333.8237,334.0772,,81,81,,,,,,,,,,,,,,,,bars/042.png,bars/mask004.png,,,,,,,,,,,,3,2,,,,,,,1,4,1,4,,,,,,,,,,,333.3349,333.8236,334.0773,337.3125,space,3.1823,,337.3127,64,6,338.3103,338.3103,343.291,space,4.9246,,0,1,1,1,1,145,75,,,,,,,,
,,645f83e73ef9ed597a1daf09,65af553e928510ff1336ce3e,2024-01-23_06h58.36.478,bars,2023.2.3,Win32,20,657b66ea316d21385b68909f,,,,,,,,,,,343.2965,344.2872,,,344.7597,344.968,,155,155,,,,,,,,,,,,,,,,bars/000.png,bars/mask005.png,,,,,,,,,,,,3,2,,,,,,,3,6,4,5,,,,,,,,,,,344.2873,344.7597,344.9681,348.814,space,3.7943,,348.814,65,10,349.8029,349.803,352.8679,space,3.0145,,0,2,2,2,1,40,145,,,,,,,,
,,645f83e73ef9ed597a1daf09,65af553e928510ff1336ce3e,2024-01-23_06h58.36.478,bars,2023.2.3,Win32,20,657b66ea316d21385b68909f,,,,,,,,,,,352.8738,353.8762,,,354.3346,354.594,,13,13,,,,,,,,,,,,,,,,bars/041.png,bars/mask004.png,,,,,,,,,,,,4,1,,,,,,,5,4,5,4,,,,,,,,,,,353.8762,354.3345,354.594,355.9757,space,1.3217,,355.9757,7,72,356.9521,356.9522,359.295,space,2.2841,,0,3,3,3,1,20,85,,,,,,,,
,,645f83e73ef9ed597a1daf09,65af553e928510ff1336ce3e,2024-01-23_06h58.36.478,bars,2023.2.3,Win32,20,657b66ea316d21385b68909f,,,,,,,,,,,359.2953,360.2582,,,360.7631,361.0268,,151,151,,,,,,,,,,,,,,,,bars/017.png,bars/mask000.png,,,,,,,,,,,,2,1,,,,,,,3,6,3,6,,,,,,,,,,,360.2582,360.7631,361.0268,364.2424,space,3.1687,,364.2424,6,74,365.2236,365.2236,367.8647,space,2.5765,,0,4,4,4,1,145,45,,,,,,,,
,,645f83e73ef9ed597a1daf09,65af553e928510ff1336ce3e,2024-01-23_06h58.36.478,bars,2023.2.3,Win32,20,657b66ea316d21385b68909f,,,,,,,,,,,367.8649,368.849,,,369.3586,369.6144,,173,173,,,,,,,,,,,,,,,,bars/033.png,bars/mask009.png,,,,,,,,,,,,3,2,,,,,,,5,8,4,8,,,,,,,,,,,368.849,369.3586,369.6144,371.895,space,2.2225,,371.895,32,18,372.8505,372.8506,376.3469,space,3.4269,,0,5,5,5,1,25,155,,,,,,,,
,,645f83e73ef9ed597a1daf09,65af553e928510ff1336ce3e,2024-01-23_06h58.36.478,bars,2023.2.3,Win32,20,657b66ea316d21385b68909f,,,,,,,,,,,376.3543,377.3381,,,377.8428,378.0907,,133,133,,,,,,,,,,,,,,,,bars/031.png,bars/mask004.png,,,,,,,,,,,,1,1,,,,,,,3,6,2,6,,,,,,,,,,,377.3381,377.8428,378.0907,382.4071,space,4.2646,,382.4072,13,82,383.3948,383.3948,385.8562,space,2.39,,0,6,6,6,1,120,35,,,,,,,,
,,645f83e73ef9ed597a1daf09,65af553e928510ff1336ce3e,2024-01-23_06h58.36.478,bars,2023.2.3,Win32,20,657b66ea316d21385b68909f,,,,,,,,,,,385.8566,386.8291,,,387.2876,387.5156,,45,225,,,,,,,,,,,,,,,,bars/026.png,bars/mask000.png,,,,,,,,,,,,1,1,,,,,,,1,4,2,4,,,,,,,,,,,386.8291,387.2876,387.5157,393.2363,space,5.6696,,393.2364,10,40,394.2333,394.2334,396.9378,space,2.6507,,0,7,7,7,1,35,85,,,,,,,,
,,645f83e73ef9ed597a1daf09,65af553e928510ff1336ce3e,2024-01-23_06h58.36.478,bars,2023.2.3,Win32,20,657b66ea316d21385b68909f,,,,,,,,,,,396.938,397.9196,,,398.4214,398.6745,,99,-81,,,,,,,,,,,,,,,,bars/027.png,bars/mask005.png,,,,,,,,,,,,0,1,,,,,,,0,2,0,2,,,,,,,,,,,397.9196,398.4213,398.6745,407.2775,space,8.5538,,407.2776,11,49,408.2663,408.2663,410.6655,space,2.3431,,0,8,8,8,1,110,50,,,,,,,,
,,645f83e73ef9ed597a1daf09,65af553e928510ff1336ce3e,2024-01-23_06h58.36.478,bars,2023.2.3,Win32,20,657b66ea316d21385b68909f,,,,,,,,,,,410.6657,411.6196,,,412.1303,412.3869,,15,195,,,,,,,,,,,,,,,,bars/013.png,bars/mask003.png,,,,,,,,,,,,3,2,,,,,,,0,4,0,3,,,,,,,,,,,411.6197,412.1303,412.3869,419.9282,space,7.4889,,419.9282,60,5,420.8981,420.8982,422.946,space,1.9757,,0,9,9,9,1,75,10,,,,,,,,
,,645f83e73ef9ed597a1daf09,65af553e928510ff1336ce3e,2024-01-23_06h58.36.478,bars,2023.2.3,Win32,20,657b66ea316d21385b68909f,,,,,,,,,,,422.9463,423.9531,,,424.4161,424.6185,,99,99,,,,,,,,,,,,,,,,bars/039.png,bars/mask007.png,,,,,,,,,,,,4,2,,,,,,,0,6,0,5,,,,,,,,,,,423.9531,424.416,424.6186,425.6378,space,0.9564,,425.6378,76,6,426.6167,426.6168,427.5253,space,0.8611,,0,10,10,10,1,175,105,,,,,,,,
,,645f83e73ef9ed597a1daf09,65af553e928510ff1336ce3e,2024-01-23_06h58.36.478,bars,2023.2.3,Win32,20,657b66ea316d21385b68909f,,,,,,,,,,,427.5254,428.4873,,,428.9927,429.2386,,50,50,,,,,,,,,,,,,,,,bars/035.png,bars/mask005.png,,,,,,,,,,,,6,2,,,,,,,0,8,0,9,,,,,,,,,,,428.4874,428.9927,429.2387,432.9528,space,3.6592,,432.9529,55,10,433.9553,433.9553,436.315,space,2.2876,,0,11,11,11,1,175,60,,,,,,,,
,,645f83e73ef9ed597a1daf09,65af553e928510ff1336ce3e,2024-01-23_06h58.36.478,bars,2023.2.3,Win32,20,657b66ea316d21385b68909f,,,,,,,,,,,436.3152,437.3249,,,437.8333,438.0936,,79,79,,,,,,,,,,,,,,,,bars/010.png,bars/mask005.png,,,,,,,,,,,,2,2,,,,,,,2,10,2,9,,,,,,,,,,,437.3249,437.8332,438.0936,441.9376,space,3.782,,441.9376,86,24,442.9309,442.9309,444.7032,space,1.7213,,0,12,12,12,1,165,55,,,,,,,,
,,645f83e73ef9ed597a1daf09,65af553e928510ff1336ce3e,2024-01-23_06h58.36.478,bars,2023.2.3,Win32,20,657b66ea316d21385b68909f,,,,,,,,,,,444.7034,445.6674,,,446.1716,446.4227,,115,115,,,,,,,,,,,,,,,,bars/043.png,bars/mask005.png,,,,,,,,,,,,5,2,,,,,,,0,10,0,10,,,,,,,,,,,445.6674,446.1716,446.4227,452.6477,space,6.1777,,452.6477,85,15,453.6363,453.6363,455.1325,space,1.4481,,0,13,13,13,1,30,130,,,,,,,,
,,645f83e73ef9ed597a1daf09,65af553e928510ff1336ce3e,2024-01-23_06h58.36.478,bars,2023.2.3,Win32,20,657b66ea316d21385b68909f,,,,,,,,,,,455.1328,456.1281,,,456.6107,456.865,,167,167,,,,,,,,,,,,,,,,bars/010.png,bars/mask002.png,,,,,,,,,,,,0,1,,,,,,,0,10,0,10,,,,,,,,,,,456.1281,456.6107,456.865,459.5311,space,2.6141,,459.5311,2,68,460.5243,460.5244,462.796,space,2.2135,,0,14,14,14,1,165,55,,,,,,,,
,,645f83e73ef9ed597a1daf09,65af553e928510ff1336ce3e,2024-01-23_06h58.36.478,bars,2023.2.3,Win32,20,657b66ea316d21385b68909f,,,,,,,,,,,462.7962,463.7648,,,464.2432,464.4902,,145,145,,,,,,,,,,,,,,,,bars/044.png,bars/mask007.png,,,,,,,,,,,,5,2,,,,,,,2,8,3,8,,,,,,,,,,,463.7649,464.2432,464.4903,467.805,space,3.2675,,467.8051,70,10,468.794,468.7942,469.9517,space,1.0861,,0,15,15,15,1,75,155,,,,,,,,
,,645f83e73ef9ed597a1daf09,65af553e928510ff1336ce3e,2024-01-23_06h58.36.478,bars,2023.2.3,Win32,20,657b66ea316d21385b68909f,,,,,,,,,,,469.952,470.9724,,,471.4713,471.6984,,107,107,,,,,,,,,,,,,,,,bars/025.png,bars/mask000.png,,,,,,,,,,,,0,1,,,,,,,0,6,0,5,,,,,,,,,,,470.9725,471.4713,471.6984,474.7821,space,3.022,,474.7822,2,67,475.7575,475.7576,477.2277,space,1.3938,,0,16,16,16,1,105,40,,,,,,,,
,,645f83e73ef9ed597a1daf09,65af553e928510ff1336ce3e,2024-01-23_06h58.36.478,bars,2023.2.3,Win32,20,657b66ea316d21385b68909f,,,,,,,,,,,477.2281,478.2099,,,478.7083,478.9,,39,39,,,,,,,,,,,,,,,,bars/027.png,bars/mask004.png,,,,,,,,,,,,2,2,,,,,,,2,4,2,3,,,,,,,,,,,478.21,478.7082,478.9,481.1,space,2.1326,,481.1,71,11,482.1181,482.1183,483.6454,space,1.4622,,0,17,17,17,1,110,50,,,,,,,,
,,645f83e73ef9ed597a1daf09,65af553e928510ff1336ce3e,2024-01-23_06h58.36.478,bars,2023.2.3,Win32,20,657b66ea316d21385b68909f,,,,,,,,,,,483.6457,484.6493,,,485.1612,485.4171,,100,100,,,,,,,,,,,,,,,,bars/018.png,bars/mask009.png,,,,,,,,,,,,5,2,,,,,,,0,6,1,7,,,,,,,,,,,484.6494,485.1611,485.4171,488.1199,space,2.6445,,488.12,50,10,489.1251,489.1252,489.9783,space,0.7718,,0,18,18,18,1,150,90,,,,,,,,
,,645f83e73ef9ed597a1daf09,65af553e928510ff1336ce3e,2024-01-23_06h58.36.478,bars,2023.2.3,Win32,20,657b66ea316d21385b68909f,,,,,,,,,,,489.9786,490.9892,,,491.4569,491.7255,,110,110,,,,,,,,,,,,,,,,bars/011.png,bars/mask000.png,,,,,,,,,,,,1,2,,,,,,,2,8,2,8,,,,,,,,,,,490.9893,491.4568,491.7255,494.3318,space,2.5531,,494.3318,50,25,495.3019,495.302,500.0915,space,4.7377,,0,19,19,19,1,160,85,,,,,,,,
,,645f83e73ef9ed597a1daf09,65af553e928510ff1336ce3e,2024-01-23_06h58.36.478,bars,2023.2.3,Win32,20,657b66ea316d21385b68909f,,,,,,,,,,,500.0988,501.1081,,,501.5784,501.8199,,117,117,,,,,,,,,,,,,,,,bars/023.png,bars/mask003.png,,,,,,,,,,,,7,2,,,,,,,4,6,4,8,,,,,,,,,,,501.1082,501.5784,501.82,502.7897,space,0.9215,,502.7897,83,2,503.7606,503.7606,505.2086,space,1.3817,,0,20,20,20,1,20,115,,,,,,,,
,,645f83e73ef9ed597a1daf09,65af553e928510ff1336ce3e,2024-01-23_06h58.36.478,bars,2023.2.3,Win32,20,657b66ea316d21385b68909f,,,,,,,,,,,505.2088,506.1945,,,506.6829,506.9452,,2,182,,,,,,,,,,,,,,,,bars/045.png,bars/mask007.png,,,,,,,,,,,,3,2,,,,,,,6,4,6,4,,,,,,,,,,,506.1945,506.6829,506.9452,509.9683,space,2.9646,,509.9684,82,8,510.9244,510.9244,512.9029,space,1.8989,,0,21,21,21,1,100,10,,,,,,,,
,,645f83e73ef9ed597a1daf09,65af553e928510ff1336ce3e,2024-01-23_06h58.36.478,bars,2023.2.3,Win32,20,657b66ea316d21385b68909f,,,,,,,,,,,512.9031,513.8897,,,514.3777,514.6355,,50,50,,,,,,,,,,,,,,,,bars/027.png,bars/mask003.png,,,,,,,,,,,,2,2,,,,,,,8,2,8,2,,,,,,,,,,,513.8898,514.3777,514.6355,518.5589,space,3.8552,,518.5589,60,0,519.5412,519.5412,522.4918,space,2.899,,0,22,22,22,1,110,50,,,,,,,,
,,645f83e73ef9ed597a1daf09,65af553e928510ff1336ce3e,2024-01-23_06h58.36.478,bars,2023.2.3,Win32,20,657b66ea316d21385b68909f,,,,,,,,,,,522.4974,523.4699,,,523.9595,524.2214,,76,76,,,,,,,,,,,,,,,,bars/044.png,bars/mask004.png,,,,,,,,,,,,6,1,,,,,,,6,4,6,6,,,,,,,,,,,523.47,523.9595,524.2214,527.1275,space,2.8468,,527.1275,1,79,528.1048,528.1048,528.8661,space,0.6876,,0,23,23,23,1,75,155,,,,,,,,
,,645f83e73ef9ed597a1daf09,65af553e928510ff1336ce3e,2024-01-23_06h58.36.478,bars,2023.2.3,Win32,20,657b66ea316d21385b68909f,,,,,,,,,,,528.8664,529.8596,,,530.3316,530.5842,,4,184,,,,,,,,,,,,,,,,bars/009.png,bars/mask006.png,,,,,,,,,,,,2,1,,,,,,,4,2,3,1,,,,,,,,,,,529.8596,530.3316,530.5842,534.6114,space,3.9816,,534.6115,11,79,535.6203,535.6203,536.3999,space,0.7094,,0,24,24,24,1,15,105,,,,,,,,
,,645f83e73ef9ed597a1daf09,65af553e928510ff1336ce3e,2024-01-23_06h58.36.478,bars,2023.2.3,Win32,20,657b66ea316d21385b68909f,,,,,,,,,,,536.4003,537.3876,,,537.9234,538.1377,,179,179,,,,,,,,,,,,,,,,bars/033.png,bars/mask004.png,,,,,,,,,,,,0,2,,,,,,,2,4,2,2,,,,,,,,,,,537.3876,537.9234,538.1377,545.1371,space,6.9343,,545.1372,26,24,546.0953,546.0953,550.8919,space,4.7277,,0,25,25,25,1,25,155,,,,,,,,
,,645f83e73ef9ed597a1daf09,65af553e928510ff1336ce3e,2024-01-23_06h58.36.478,bars,2023.2.3,Win32,20,657b66ea316d21385b68909f,,,,,,,,,,,550.8976,551.9116,,,552.4122,552.6687,,80,80,,,,,,,,,,,,,,,,bars/046.png,bars/mask009.png,,,,,,,,,,,,5,2,,,,,,,4,6,4,6,,,,,,,,,,,551.9117,552.4122,552.6687,558.9646,space,6.23,,558.9646,75,5,559.9325,559.9325,560.9909,space,0.9784,,0,26,26,26,1,155,85,,,,,,,,
,,645f83e73ef9ed597a1daf09,65af553e928510ff1336ce3e,2024-01-23_06h58.36.478,bars,2023.2.3,Win32,20,657b66ea316d21385b68909f,,,,,,,,,,,560.9911,561.9798,,,562.4462,562.7045,,174,-6,,,,,,,,,,,,,,,,bars/007.png,bars/mask006.png,,,,,,,,,,,,1,1,,,,,,,2,4,1,1,,,,,,,,,,,561.9799,562.4462,562.7045,566.7645,space,4.0144,,566.7645,1,61,567.7405,567.7405,569.2954,space,1.4827,,0,27,27,27,1,175,55,,,,,,,,
,,645f83e73ef9ed597a1daf09,65af553e928510ff1336ce3e,2024-01-23_06h58.36.478,bars,2023.2.3,Win32,20,657b66ea316d21385b68909f,,,,,,,,,,,569.2956,570.2616,,,570.7223,570.9873,,82,82,,,,,,,,,,,,,,,,bars/026.png,bars/mask002.png,,,,,,,,,,,,3,2,,,,,,,4,2,5,3,,,,,,,,,,,570.2618,570.7223,570.9874,578.7475,space,7.6983,,578.7475,47,3,579.7329,579.7329,580.5151,space,0.7272,,0,28,28,28,1,35,85,,,,,,,,
,,645f83e73ef9ed597a1daf09,65af553e928510ff1336ce3e,2024-01-23_06h58.36.478,bars,2023.2.3,Win32,20,657b66ea316d21385b68909f,,,,,,,,,,,580.5153,581.5254,,,582.0129,582.2764,,178,-2,,,,,,,,,,,,,,,,bars/035.png,bars/mask008.png,,,,,,,,,,,,3,1,,,,,,,2,0,3,0,,,,,,,,,,,581.5254,582.0128,582.2764,586.7373,space,4.414,,586.7373,3,62,587.7431,587.7431,588.4938,space,0.6775,,0,29,29,29,1,175,60,,,,,,,,
,,645f83e73ef9ed597a1daf09,65af553e928510ff1336ce3e,2024-01-23_06h58.36.478,bars,2023.2.3,Win32,20,657b66ea316d21385b68909f,,,,,,,,,,,588.4941,589.4882,,,589.9736,590.2373,,94,94,,,,,,,,,,,,,,,,bars/001.png,bars/mask002.png,,,,,,,,,,,,0,2,,,,,,,0,0,2,0,,,,,,,,,,,589.4882,589.9735,590.2373,593.636,space,3.3467,,593.636,36,9,594.6243,594.6243,596.0918,space,1.3961,,0,30,30,30,1,130,85,,,,,,,,
,,645f83e73ef9ed597a1daf09,65af553e928510ff1336ce3e,2024-01-23_06h58.36.478,bars,2023.2.3,Win32,20,657b66ea316d21385b68909f,,,,,,,,,,,596.0922,597.0644,,,597.547,597.7512,,1,181,,,,,,,,,,,,,,,,bars/023.png,bars/mask007.png,,,,,,,,,,,,0,1,,,,,,,2,0,1,0,,,,,,,,,,,597.0646,597.5469,597.7512,603.3299,space,5.5202,,603.33,19,66,604.3199,604.32,606.6281,space,2.2307,,0,31,31,31,1,20,115,,,,,,,,
,,645f83e73ef9ed597a1daf09,65af553e928510ff1336ce3e,2024-01-23_06h58.36.478,bars,2023.2.3,Win32,20,657b66ea316d21385b68909f,,,,,,,,,,,606.6284,607.6351,,,608.1311,608.3792,,21,201,,,,,,,,,,,,,,,,bars/033.png,bars/mask005.png,,,,,,,,,,,,0,1,,,,,,,0,0,0,0,,,,,,,,,,,607.6352,608.131,608.3792,613.5518,space,5.1095,,613.5519,4,46,614.5445,614.5446,615.821,space,1.2031,,0,32,32,32,1,25,155,,,,,,,,
,,645f83e73ef9ed597a1daf09,65af553e928510ff1336ce3e,2024-01-23_06h58.36.478,bars,2023.2.3,Win32,20,657b66ea316d21385b68909f,,,,,,,,,,,615.8211,616.8099,,,617.3194,617.5353,,107,-73,,,,,,,,,,,,,,,,bars/009.png,bars/mask001.png,,,,,,,,,,,,2,2,,,,,,,0,2,0,2,,,,,,,,,,,616.81,617.3193,617.5353,623.4784,space,5.8873,,623.4785,88,2,624.4742,624.4742,626.2188,space,1.6922,,0,33,33,33,1,15,105,,,,,,,,
,,645f83e73ef9ed597a1daf09,65af553e928510ff1336ce3e,2024-01-23_06h58.36.478,bars,2023.2.3,Win32,20,657b66ea316d21385b68909f,,,,,,,,,,,626.2191,627.1829,,,627.6613,627.9083,,41,41,,,,,,,,,,,,,,,,bars/006.png,bars/mask002.png,,,,,,,,,,,,2,1,,,,,,,2,0,2,1,,,,,,,,,,,627.183,627.6613,627.9083,635.4462,space,7.4888,,635.4463,6,59,636.4422,636.4423,637.7063,space,1.1925,,0,34,34,34,1,35,100,,,,,,,,
,,645f83e73ef9ed597a1daf09,65af553e928510ff1336ce3e,2024-01-23_06h58.36.478,bars,2023.2.3,Win32,20,657b66ea316d21385b68909f,,,,,,,,,,,637.7064,638.7021,,,639.1556,639.3995,,119,119,,,,,,,,,,,,,,,,bars/049.png,bars/mask004.png,,,,,,,,,,,,1,2,,,,,,,0,2,0,1,,,,,,,,,,,638.7021,639.1556,639.3995,642.4063,space,2.9484,,642.4064,41,4,643.4121,643.4121,645.8553,space,2.3819,,0,35,35,35,1,160,115,,,,,,,,
,,645f83e73ef9ed597a1daf09,65af553e928510ff1336ce3e,2024-01-23_06h58.36.478,bars,2023.2.3,Win32,20,657b66ea316d21385b68909f,,,,,,,,,,,645.8556,646.8569,,,647.3233,647.5614,,160,160,,,,,,,,,,,,,,,,bars/049.png,bars/mask001.png,,,,,,,,,,,,3,1,,,,,,,2,0,3,0,,,,,,,,,,,646.8569,647.3233,647.5614,655.1646,space,7.5569,,655.1646,0,45,656.1333,656.1334,657.4661,space,1.2642,,0,36,36,36,1,160,115,,,,,,,,
,,645f83e73ef9ed597a1daf09,65af553e928510ff1336ce3e,2024-01-23_06h58.36.478,bars,2023.2.3,Win32,20,657b66ea316d21385b68909f,,,,,,,,,,,657.4662,658.4309,,,658.9349,659.1673,,54,54,,,,,,,,,,,,,,,,bars/030.png,bars/mask006.png,,,,,,,,,,,,1,2,,,,,,,4,2,5,1,,,,,,,,,,,658.4309,658.9349,659.1674,668.2703,space,9.0442,,668.2703,86,11,669.2632,669.2633,670.2601,space,0.9138,,0,37,37,37,1,140,65,,,,,,,,
,,645f83e73ef9ed597a1daf09,65af553e928510ff1336ce3e,2024-01-23_06h58.36.478,bars,2023.2.3,Win32,20,657b66ea316d21385b68909f,,,,,,,,,,,670.2603,671.2399,,,671.7342,671.9851,,34,34,,,,,,,,,,,,,,,,bars/022.png,bars/mask000.png,,,,,,,,,,,,3,2,,,,,,,2,4,2,5,,,,,,,,,,,671.24,671.7342,671.9851,679.3167,space,7.2866,,679.3168,61,14,680.304,680.3041,681.9196,space,1.5468,,0,38,38,38,1,95,20,,,,,,,,
,,645f83e73ef9ed597a1daf09,65af553e928510ff1336ce3e,2024-01-23_06h58.36.478,bars,2023.2.3,Win32,20,657b66ea316d21385b68909f,,,,,,,,,,,681.9197,682.909,,,683.3992,683.6132,,103,103,,,,,,,,,,,,,,,,bars/023.png,bars/mask006.png,,,,,,,,,,,,4,2,,,,,,,4,6,3,6,,,,,,,,,,,682.909,683.3991,683.6133,688.8172,space,5.1324,,688.8172,83,12,689.8489,689.8489,690.7753,space,0.8578,,0,39,39,39,1,20,115,,,,,,,,
,,645f83e73ef9ed597a1daf09,65af553e928510ff1336ce3e,2024-01-23_06h58.36.478,bars,2023.2.3,Win32,20,657b66ea316d21385b68909f,,,,,,,,,,,690.7754,691.764,,,692.2582,692.4671,,79,79,,,,,,,,,,,,,,,,bars/047.png,bars/mask002.png,,,,,,,,,,,,2,2,,,,,,,2,4,1,3,,,,,,,,,,,691.764,692.2581,692.4671,697.4859,space,4.9697,,697.486,64,9,698.4957,698.4957,701.9881,space,3.428,,0,40,40,40,1,15,70,,,,,,,,
,,645f83e73ef9ed597a1daf09,65af553e928510ff1336ce3e,2024-01-23_06h58.36.478,bars,2023.2.3,Win32,20,657b66ea316d21385b68909f,,,,,,,,,,,701.9953,702.9706,,,703.4395,703.6606,,19,19,,,,,,,,,,,,,,,,bars/007.png,bars/mask008.png,,,,,,,,,,,,1,1,,,,,,,4,2,3,2,,,,,,,,,,,702.9706,703.4394,703.6607,712.5295,space,8.8071,,712.5296,24,36,713.4957,713.4958,715.6364,space,2.0883,,0,41,41,41,1,175,55,,,,,,,,
,,645f83e73ef9ed597a1daf09,65af553e928510ff1336ce3e,2024-01-23_06h58.36.478,bars,2023.2.3,Win32,20,657b66ea316d21385b68909f,,,,,,,,,,,715.6366,716.6206,,,717.0996,717.3153,,98,98,,,,,,,,,,,,,,,,bars/029.png,bars/mask009.png,,,,,,,,,,,,5,1,,,,,,,6,0,7,1,,,,,,,,,,,716.6207,717.0996,717.3153,723.4735,space,6.1131,,723.4735,8,53,724.4547,724.4547,725.5916,space,1.0851,,0,42,42,42,1,90,45,,,,,,,,
,,645f83e73ef9ed597a1daf09,65af553e928510ff1336ce3e,2024-01-23_06h58.36.478,bars,2023.2.3,Win32,20,657b66ea316d21385b68909f,,,,,,,,,,,725.5919,726.5607,,,727.0577,727.2708,,74,74,,,,,,,,,,,,,,,,bars/012.png,bars/mask003.png,,,,,,,,,,,,3,1,,,,,,,4,0,6,0,,,,,,,,,,,726.5607,727.0576,727.2708,731.9142,space,4.5938,,731.9142,16,59,732.9164,732.9165,733.7379,space,0.7537,,0,43,43,43,1,90,15,,,,,,,,
,,645f83e73ef9ed597a1daf09,65af553e928510ff1336ce3e,2024-01-23_06h58.36.478,bars,2023.2.3,Win32,20,657b66ea316d21385b68909f,,,,,,,,,,,733.7382,734.7387,,,735.2497,735.4821,,100,100,,,,,,,,,,,,,,,,bars/018.png,bars/mask003.png,,,,,,,,,,,,0,2,,,,,,,2,0,2,0,,,,,,,,,,,734.7387,735.2496,735.4821,739.2536,space,3.7108,,739.2536,50,10,740.2172,740.2172,741.721,space,1.4357,,0,44,44,44,1,150,90,,,,,,,,
,,645f83e73ef9ed597a1daf09,65af553e928510ff1336ce3e,2024-01-23_06h58.36.478,bars,2023.2.3,Win32,20,657b66ea316d21385b68909f,,,,,,,,,,,741.7212,742.7143,,,743.2224,743.4791,,83,83,,,,,,,,,,,,,,,,bars/013.png,bars/mask001.png,,,,,,,,,,,,0,1,,,,,,,0,0,0,2,,,,,,,,,,,742.7143,743.2224,743.4791,747.2926,space,3.7537,,747.2926,8,73,748.2694,748.2695,750.396,space,2.0791,,0,45,45,45,1,75,10,,,,,,,,
,,645f83e73ef9ed597a1daf09,65af553e928510ff1336ce3e,2024-01-23_06h58.36.478,bars,2023.2.3,Win32,20,657b66ea316d21385b68909f,,,,,,,,,,,750.3962,751.371,,,751.8342,752.0927,,76,76,,,,,,,,,,,,,,,,bars/047.png,bars/mask008.png,,,,,,,,,,,,1,2,,,,,,,2,2,2,1,,,,,,,,,,,751.371,751.8342,752.0927,754.8268,space,2.6858,,754.8268,61,6,755.7981,755.7981,756.9505,space,1.0925,,0,46,46,46,1,15,70,,,,,,,,
,,645f83e73ef9ed597a1daf09,65af553e928510ff1336ce3e,2024-01-23_06h58.36.478,bars,2023.2.3,Win32,20,657b66ea316d21385b68909f,,,,,,,,,,,756.9507,757.9504,,,758.4402,758.6538,,131,131,,,,,,,,,,,,,,,,bars/031.png,bars/mask005.png,,,,,,,,,,,,3,1,,,,,,,4,0,5,1,,,,,,,,,,,757.9504,758.4402,758.6538,760.9777,space,2.2794,,760.9777,11,84,761.961,761.961,762.8855,space,0.865,,0,47,47,47,1,120,35,,,,,,,,
,,645f83e73ef9ed597a1daf09,65af553e928510ff1336ce3e,2024-01-23_06h58.36.478,bars,2023.2.3,Win32,20,657b66ea316d21385b68909f,,,,,,,,,,,762.8857,763.8825,,,764.3947,764.6364,,91,91,,,,,,,,,,,,,,,,bars/022.png,bars/mask006.png,,,,,,,,,,,,6,1,,,,,,,6,2,7,3,,,,,,,,,,,763.8825,764.3947,764.6364,766.416,space,1.7289,,766.416,4,71,767.419,767.419,767.9459,space,0.4665,,0,48,48,48,1,95,20,,,,,,,,
,,645f83e73ef9ed597a1daf09,65af553e928510ff1336ce3e,2024-01-23_06h58.36.478,bars,2023.2.3,Win32,20,657b66ea316d21385b68909f,,,,,,,,,,,767.9462,768.9378,,,769.4363,769.6859,,106,106,,,,,,,,,,,,,,,,bars/025.png,bars/mask003.png,,,,,,,,,,,,3,1,,,,,,,4,4,3,4,,,,,,,,,,,768.9379,769.4363,769.6859,770.467,space,0.7182,,770.467,1,66,771.4326,771.4326,772.0792,space,0.5821,,0,49,49,49,1,105,40,,,,,,,,
,,645f83e73ef9ed597a1daf09,65af553e928510ff1336ce3e,2024-01-23_06h58.36.478,bars,2023.2.3,Win32,20,657b66ea316d21385b68909f,,,,,,,,,,,,,,,,,,,,,,,,,,,,,,,,,,,,,,,,,,,,,,,,,,,,,,,,,,,,,,,,,,,,,,,,,,,,,,,,,,,,,,,,,,,,,772.0796,881.4279,0,0,0,3,1,sequence_tables/blk023.csv
,,645f83e73ef9ed597a1daf09,65af553e928510ff1336ce3e,2024-01-23_06h58.36.478,bars,2023.2.3,Win32,20,657b66ea316d21385b68909f,,,,,,,,,,,882.5311,883.4965,,,884.0048,884.2488,,80,80,,,,,,,,,,,,,,,,bars/030.png,bars/mask007.png,,,,,,,,,,,,2,2,,,,,,,3,6,4,4,,,,,,881.4342,882.5283,space,1.0467,,883.4966,884.0047,884.2488,885.1229,space,0.8271,,885.1229,60,15,886.1121,886.1121,886.1133,,,,0,0,0,0,1,140,65,,,,,,,,
,,645f83e73ef9ed597a1daf09,65af553e928510ff1336ce3e,2024-01-23_06h58.36.478,bars,2023.2.3,Win32,20,657b66ea316d21385b68909f,,,,,,,,,,,886.1133,887.1121,,,887.5888,887.844,,67,67,,,,,,,,,,,,,,,,bars/034.png,bars/mask005.png,,,,,,,,,,,,2,2,,,,,,,1,4,1,2,,,,,,,,,,,887.1121,887.5887,887.844,894.0145,space,6.1276,,894.0145,58,2,894.9766,894.9767,894.9824,,,,0,1,1,1,1,125,65,,,,,,,,
,,645f83e73ef9ed597a1daf09,65af553e928510ff1336ce3e,2024-01-23_06h58.36.478,bars,2023.2.3,Win32,20,657b66ea316d21385b68909f,,,,,,,,,,,894.9825,895.9803,,,896.4793,896.725,,165,-15,,,,,,,,,,,,,,,,bars/039.png,bars/mask003.png,,,,,,,,,,,,0,1,,,,,,,0,2,0,3,,,,,,,,,,,895.9803,896.4793,896.725,903.7922,space,7.0254,,903.7923,10,60,904.755,904.7551,904.7615,,,,0,2,2,2,1,175,105,,,,,,,,
,,645f83e73ef9ed597a1daf09,65af553e928510ff1336ce3e,2024-01-23_06h58.36.478,bars,2023.2.3,Win32,20,657b66ea316d21385b68909f,,,,,,,,,,,904.7616,905.7331,,,906.2301,906.4813,,13,193,,,,,,,,,,,,,,,,bars/012.png,bars/mask001.png,,,,,,,,,,,,1,2,,,,,,,2,0,1,1,,,,,,,,,,,905.7331,906.2301,906.4814,910.7079,space,4.17,,910.7079,77,2,911.6884,911.6884,911.6949,,,,0,3,3,3,1,90,15,,,,,,,,
,,645f83e73ef9ed597a1daf09,65af553e928510ff1336ce3e,2024-01-23_06h58.36.478,bars,2023.2.3,Win32,20,657b66ea316d21385b68909f,,,,,,,,,,,911.6949,912.6937,,,913.1482,913.411,,45,225,,,,,,,,,,,,,,,,bars/048.png,bars/mask001.png,,,,,,,,,,,,0,1,,,,,,,0,0,0,1,,,,,,,,,,,912.6937,913.1482,913.411,917.8278,space,4.3722,,917.8279,5,50,918.8073,918.8073,918.8082,,,,0,4,4,4,1,50,175,,,,,,,,
,,645f83e73ef9ed597a1daf09,65af553e928510ff1336ce3e,2024-01-23_06h58.36.478,bars,2023.2.3,Win32,20,657b66ea316d21385b68909f,,,,,,,,,,,918.8083,919.7891,,,920.283,920.5358,,124,-56,,,,,,,,,,,,,,,,bars/037.png,bars/mask005.png,,,,,,,,,,,,0,2,,,,,,,0,0,0,0,,,,,,,,,,,919.7892,920.2829,920.5359,926.1885,space,5.6032,,926.1886,26,19,927.1705,927.1705,927.1716,,,,0,5,5,5,1,150,105,,,,,,,,
,,645f83e73ef9ed597a1daf09,65af553e928510ff1336ce3e,2024-01-23_06h58.36.478,bars,2023.2.3,Win32,20,657b66ea316d21385b68909f,,,,,,,,,,,927.1716,928.1671,,,928.6175,928.8765,,153,153,,,,,,,,,,,,,,,,bars/020.png,bars/mask007.png,,,,,,,,,,,,1,2,,,,,,,0,2,2,3,,,,,,,,,,,928.1671,928.6175,928.8765,930.9406,space,2.0038,,930.9406,38,17,931.9165,931.9165,931.9171,,,,0,6,6,6,1,115,170,,,,,,,,
,,645f83e73ef9ed597a1daf09,65af553e928510ff1336ce3e,2024-01-23_06h58.36.478,bars,2023.2.3,Win32,20,657b66ea316d21385b68909f,,,,,,,,,,,931.9173,932.9049,,,933.4093,933.6519,,167,167,,,,,,,,,,,,,,,,bars/010.png,bars/mask006.png,,,,,,,,,,,,1,1,,,,,,,2,0,1,0,,,,,,,,,,,932.9049,933.4091,933.6519,938.5169,space,4.8226,,938.5169,2,68,939.5084,939.5084,939.5165,,,,0,7,7,7,1,165,55,,,,,,,,
,,645f83e73ef9ed597a1daf09,65af553e928510ff1336ce3e,2024-01-23_06h58.36.478,bars,2023.2.3,Win32,20,657b66ea316d21385b68909f,,,,,,,,,,,939.5166,940.4942,,,940.9751,941.2216,,154,154,,,,,,,,,,,,,,,,bars/037.png,bars/mask000.png,,,,,,,,,,,,3,1,,,,,,,4,2,4,1,,,,,,,,,,,940.4942,940.9751,941.2216,947.2076,space,5.9324,,947.2076,4,49,948.1983,948.1983,948.2047,,,,0,8,8,8,1,150,105,,,,,,,,
,,645f83e73ef9ed597a1daf09,65af553e928510ff1336ce3e,2024-01-23_06h58.36.478,bars,2023.2.3,Win32,20,657b66ea316d21385b68909f,,,,,,,,,,,948.2048,949.1562,,,949.6263,949.8565,,130,130,,,,,,,,,,,,,,,,bars/034.png,bars/mask003.png,,,,,,,,,,,,2,1,,,,,,,2,0,2,0,,,,,,,,,,,949.1562,949.6262,949.8565,954.0828,space,4.1805,,954.0828,5,65,955.045,955.045,955.0455,,,,0,9,9,9,1,125,65,,,,,,,,
,,645f83e73ef9ed597a1daf09,65af553e928510ff1336ce3e,2024-01-23_06h58.36.478,bars,2023.2.3,Win32,20,657b66ea316d21385b68909f,,,,,,,,,,,955.0457,956.0165,,,956.497,956.7066,,146,146,,,,,,,,,,,,,,,,bars/017.png,bars/mask008.png,,,,,,,,,,,,4,1,,,,,,,4,0,4,0,,,,,,,,,,,956.0166,956.4969,956.7066,962.318,space,5.5581,,962.3181,1,79,963.3241,963.3242,963.3304,,,,0,10,10,10,1,145,45,,,,,,,,
,,645f83e73ef9ed597a1daf09,65af553e928510ff1336ce3e,2024-01-23_06h58.36.478,bars,2023.2.3,Win32,20,657b66ea316d21385b68909f,,,,,,,,,,,963.3305,964.3119,,,964.7921,965.0619,,104,104,,,,,,,,,,,,,,,,bars/027.png,bars/mask008.png,,,,,,,,,,,,5,1,,,,,,,6,0,6,0,,,,,,,,,,,964.3119,964.7921,965.0619,967.1534,space,2.0341,,967.1534,6,54,968.1342,968.1342,968.1407,,,,0,11,11,11,1,110,50,,,,,,,,
,,645f83e73ef9ed597a1daf09,65af553e928510ff1336ce3e,2024-01-23_06h58.36.478,bars,2023.2.3,Win32,20,657b66ea316d21385b68909f,,,,,,,,,,,968.1409,969.1321,,,969.6177,969.8788,,134,134,,,,,,,,,,,,,,,,bars/017.png,bars/mask007.png,,,,,,,,,,,,3,1,,,,,,,4,0,5,1,,,,,,,,,,,969.1322,969.6177,969.8789,972.206,space,2.2774,,972.2061,11,89,973.2061,973.2061,973.2124,,,,0,12,12,12,1,145,45,,,,,,,,
,,645f83e73ef9ed597a1daf09,65af553e928510ff1336ce3e,2024-01-23_06h58.36.478,bars,2023.2.3,Win32,20,657b66ea316d21385b68909f,,,,,,,,,,,973.2126,974.2018,,,974.6929,974.9105,,162,-18,,,,,,,,,,,,,,,,bars/048.png,bars/mask004.png,,,,,,,,,,,,0,2,,,,,,,6,0,6,0,,,,,,,,,,,974.2019,974.6929,974.9105,979.2808,space,4.3218,,979.2809,68,13,980.2481,980.2481,980.2551,,,,0,13,13,13,1,50,175,,,,,,,,
,,645f83e73ef9ed597a1daf09,65af553e928510ff1336ce3e,2024-01-23_06h58.36.478,bars,2023.2.3,Win32,20,657b66ea316d21385b68909f,,,,,,,,,,,980.2553,981.2451,,,981.7354,981.9989,,93,93,,,,,,,,,,,,,,,,bars/014.png,bars/mask004.png,,,,,,,,,,,,2,1,,,,,,,4,0,4,0,,,,,,,,,,,981.2452,981.7354,981.999,1010.8787,space,28.8334,,1010.8788,13,87,1011.8712,1011.8712,1011.8786,,,,0,14,14,14,1,80,0,,,,,,,,
,,645f83e73ef9ed597a1daf09,65af553e928510ff1336ce3e,2024-01-23_06h58.36.478,bars,2023.2.3,Win32,20,657b66ea316d21385b68909f,,,,,,,,,,,1011.8788,1012.8595,,,1013.3526,1013.5949,,179,-1,,,,,,,,,,,,,,,,bars/014.png,bars/mask007.png,,,,,,,,,,,,3,2,,,,,,,2,2,1,3,,,,,,,,,,,1012.8595,1013.3525,1013.5949,1019.128,space,5.4876,,1019.1281,81,1,1020.1176,1020.1177,1020.1245,,,,0,15,15,15,1,80,0,,,,,,,,
,,645f83e73ef9ed597a1daf09,65af553e928510ff1336ce3e,2024-01-23_06h58.36.478,bars,2023.2.3,Win32,20,657b66ea316d21385b68909f,,,,,,,,,,,1020.1247,1021.1288,,,1021.6258,1021.8421,,73,73,,,,,,,,,,,,,,,,bars/042.png,bars/mask005.png,,,,,,,,,,,,5,2,,,,,,,4,4,5,5,,,,,,,,,,,1021.1288,1021.6258,1021.8421,1028.8597,space,6.9676,,1028.8597,72,2,1029.8663,1029.8664,1029.8733,,,,0,16,16,16,1,145,75,,,,,,,,
,,645f83e73ef9ed597a1daf09,65af553e928510ff1336ce3e,2024-01-23_06h58.36.478,bars,2023.2.3,Win32,20,657b66ea316d21385b68909f,,,,,,,,,,,1029.8735,1030.8644,,,1031.3502,1031.5717,,74,74,,,,,,,,,,,,,,,,bars/046.png,bars/mask006.png,,,,,,,,,,,,4,2,,,,,,,6,6,4,6,,,,,,,,,,,1030.8645,1031.3502,1031.5717,1052.4511,space,20.8333,,1052.4511,81,11,1053.4015,1053.4015,1053.4081,,,,0,17,17,17,1,155,85,,,,,,,,
,,645f83e73ef9ed597a1daf09,65af553e928510ff1336ce3e,2024-01-23_06h58.36.478,bars,2023.2.3,Win32,20,657b66ea316d21385b68909f,,,,,,,,,,,1053.4082,1054.3897,,,1054.8892,1055.0949,,143,143,,,,,,,,,,,,,,,,bars/046.png,bars/mask009.png,,,,,,,,,,,,5,1,,,,,,,8,4,9,4,,,,,,,,,,,1054.3897,1054.8892,1055.0949,1060.1606,space,5.0058,,1060.1606,12,58,1061.1397,1061.1398,1061.148,,,,0,18,18,18,1,155,85,,,,,,,,
,,645f83e73ef9ed597a1daf09,65af553e928510ff1336ce3e,2024-01-23_06h58.36.478,bars,2023.2.3,Win32,20,657b66ea316d21385b68909f,,,,,,,,,,,1061.1481,1062.1328,,,1062.6238,1062.8779,,47,47,,,,,,,,,,,,,,,,bars/019.png,bars/mask008.png,,,,,,,,,,,,6,1,,,,,,,6,6,6,7,,,,,,,,,,,1062.1328,1062.6238,1062.8779,1067.9542,space,5.027,,1067.9542,2,58,1068.9463,1068.9463,1068.9522,,,,0,19,19,19,1,45,105,,,,,,,,
,,645f83e73ef9ed597a1daf09,65af553e928510ff1336ce3e,2024-01-23_06h58.36.478,bars,2023.2.3,Win32,20,657b66ea316d21385b68909f,,,,,,,,,,,1068.9524,1069.9529,,,1070.457,1070.7009,,10,190,,,,,,,,,,,,,,,,bars/007.png,bars/mask003.png,,,,,,,,,,,,2,1,,,,,,,4,8,4,6,,,,,,,,,,,1069.9529,1070.457,1070.701,1076.5802,space,5.8231,,1076.5803,15,45,1077.5967,1077.5967,1077.6043,,,,0,20,20,20,1,175,55,,,,,,,,
,,645f83e73ef9ed597a1daf09,65af553e928510ff1336ce3e,2024-01-23_06h58.36.478,bars,2023.2.3,Win32,20,657b66ea316d21385b68909f,,,,,,,,,,,1077.6045,1078.5947,,,1079.1047,1079.3519,,160,160,,,,,,,,,,,,,,,,bars/020.png,bars/mask008.png,,,,,,,,,,,,7,2,,,,,,,2,10,2,10,,,,,,,,,,,1078.5947,1079.1047,1079.3519,1081.5965,space,2.2012,,1081.5965,45,10,1082.6006,1082.6006,1082.602,,,,0,21,21,21,1,115,170,,,,,,,,
,,645f83e73ef9ed597a1daf09,65af553e928510ff1336ce3e,2024-01-23_06h58.36.478,bars,2023.2.3,Win32,20,657b66ea316d21385b68909f,,,,,,,,,,,1082.6021,1083.5759,,,1084.0394,1084.293,,166,166,,,,,,,,,,,,,,,,bars/024.png,bars/mask007.png,,,,,,,,,,,,7,2,,,,,,,0,8,0,8,,,,,,,,,,,1083.5759,1084.0394,1084.293,1087.8557,space,3.5081,,1087.8557,46,4,1088.8252,1088.8253,1088.8258,,,,0,22,22,22,1,120,170,,,,,,,,
,,645f83e73ef9ed597a1daf09,65af553e928510ff1336ce3e,2024-01-23_06h58.36.478,bars,2023.2.3,Win32,20,657b66ea316d21385b68909f,,,,,,,,,,,1088.826,1089.8021,,,1090.2928,1090.5346,,122,122,,,,,,,,,,,,,,,,bars/037.png,bars/mask005.png,,,,,,,,,,,,4,2,,,,,,,0,10,0,10,,,,,,,,,,,1089.8021,1090.2927,1090.5346,1093.7124,space,3.1234,,1093.7125,28,17,1094.6986,1094.6987,1094.6992,,,,0,23,23,23,1,150,105,,,,,,,,
,,645f83e73ef9ed597a1daf09,65af553e928510ff1336ce3e,2024-01-23_06h58.36.478,bars,2023.2.3,Win32,20,657b66ea316d21385b68909f,,,,,,,,,,,1094.6993,1095.7173,,,1096.1734,1096.3766,,133,133,,,,,,,,,,,,,,,,bars/023.png,bars/mask001.png,,,,,,,,,,,,4,2,,,,,,,0,10,0,10,,,,,,,,,,,1095.7173,1096.1734,1096.3767,1100.32,space,3.8828,,1100.32,67,18,1101.3054,1101.3054,1101.3061,,,,0,24,24,24,1,20,115,,,,,,,,
,,645f83e73ef9ed597a1daf09,65af553e928510ff1336ce3e,2024-01-23_06h58.36.478,bars,2023.2.3,Win32,20,657b66ea316d21385b68909f,,,,,,,,,,,1101.3062,1102.2778,,,1102.737,1102.9933,,72,72,,,,,,,,,,,,,,,,bars/030.png,bars/mask002.png,,,,,,,,,,,,5,2,,,,,,,2,8,3,7,,,,,,,,,,,1102.2779,1102.7369,1102.9934,1108.3947,space,5.3428,,1108.3947,68,7,1109.4103,1109.4103,1109.4109,,,,0,25,25,25,1,140,65,,,,,,,,
,,645f83e73ef9ed597a1daf09,65af553e928510ff1336ce3e,2024-01-23_06h58.36.478,bars,2023.2.3,Win32,20,657b66ea316d21385b68909f,,,,,,,,,,,1109.411,1110.3678,,,1110.8401,1111.0973,,48,48,,,,,,,,,,,,,,,,bars/025.png,bars/mask006.png,,,,,,,,,,,,4,2,,,,,,,0,6,0,6,,,,,,,,,,,1110.3679,1110.8401,1111.0973,1114.8362,space,3.6961,,1114.8362,57,8,1115.8382,1115.8382,1115.8388,,,,0,26,26,26,1,105,40,,,,,,,,
,,645f83e73ef9ed597a1daf09,65af553e928510ff1336ce3e,2024-01-23_06h58.36.478,bars,2023.2.3,Win32,20,657b66ea316d21385b68909f,,,,,,,,,,,1115.839,1116.7954,,,1117.2846,1117.5506,,7,187,,,,,,,,,,,,,,,,bars/012.png,bars/mask003.png,,,,,,,,,,,,4,2,,,,,,,2,8,1,6,,,,,,,,,,,1116.7955,1117.2846,1117.5506,1121.0448,space,3.4442,,1121.0448,83,8,1122.0237,1122.0237,1122.0243,,,,0,27,27,27,1,90,15,,,,,,,,
,,645f83e73ef9ed597a1daf09,65af553e928510ff1336ce3e,2024-01-23_06h58.36.478,bars,2023.2.3,Win32,20,657b66ea316d21385b68909f,,,,,,,,,,,1122.0244,1123.0173,,,1123.4792,1123.7189,,93,93,,,,,,,,,,,,,,,,bars/001.png,bars/mask000.png,,,,,,,,,,,,4,2,,,,,,,4,6,3,5,,,,,,,,,,,1123.0173,1123.4791,1123.7189,1127.4723,space,3.7116,,1127.4723,37,8,1128.4389,1128.4389,1128.4395,,,,0,28,28,28,1,130,85,,,,,,,,
,,645f83e73ef9ed597a1daf09,65af553e928510ff1336ce3e,2024-01-23_06h58.36.478,bars,2023.2.3,Win32,20,657b66ea316d21385b68909f,,,,,,,,,,,1128.4397,1129.4037,,,1129.9091,1130.169,,32,32,,,,,,,,,,,,,,,,bars/029.png,bars/mask004.png,,,,,,,,,,,,4,2,,,,,,,2,8,2,7,,,,,,,,,,,1129.4037,1129.909,1130.169,1131.952,space,1.7212,,1131.9521,58,13,1132.9203,1132.9203,1132.9209,,,,0,29,29,29,1,90,45,,,,,,,,
,,645f83e73ef9ed597a1daf09,65af553e928510ff1336ce3e,2024-01-23_06h58.36.478,bars,2023.2.3,Win32,20,657b66ea316d21385b68909f,,,,,,,,,,,1132.9211,1133.8875,,,1134.3711,1134.6286,,173,-7,,,,,,,,,,,,,,,,bars/007.png,bars/mask009.png,,,,,,,,,,,,1,1,,,,,,,0,10,1,10,,,,,,,,,,,1133.8875,1134.371,1134.6286,1139.4013,space,4.7276,,1139.4014,2,62,1140.3582,1140.3582,1140.3663,,,,0,30,30,30,1,175,55,,,,,,,,
,,645f83e73ef9ed597a1daf09,65af553e928510ff1336ce3e,2024-01-23_06h58.36.478,bars,2023.2.3,Win32,20,657b66ea316d21385b68909f,,,,,,,,,,,1140.3665,1141.3894,,,1141.9005,1142.1165,,41,41,,,,,,,,,,,,,,,,bars/010.png,bars/mask005.png,,,,,,,,,,,,4,2,,,,,,,2,8,1,7,,,,,,,,,,,1141.3894,1141.9005,1142.1165,1147.605,space,5.4443,,1147.6051,56,14,1148.6094,1148.6094,1148.6159,,,,0,31,31,31,1,165,55,,,,,,,,
,,645f83e73ef9ed597a1daf09,65af553e928510ff1336ce3e,2024-01-23_06h58.36.478,bars,2023.2.3,Win32,20,657b66ea316d21385b68909f,,,,,,,,,,,1148.616,1149.5963,,,1150.111,1150.3211,,52,52,,,,,,,,,,,,,,,,bars/027.png,bars/mask000.png,,,,,,,,,,,,6,2,,,,,,,0,6,0,6,,,,,,,,,,,1149.5963,1150.111,1150.3211,1152.7591,space,2.3763,,1152.7591,58,2,1153.7453,1153.7454,1153.7459,,,,0,32,32,32,1,110,50,,,,,,,,
,,645f83e73ef9ed597a1daf09,65af553e928510ff1336ce3e,2024-01-23_06h58.36.478,bars,2023.2.3,Win32,20,657b66ea316d21385b68909f,,,,,,,,,,,1153.7461,1154.7211,,,1155.2214,1155.4708,,12,192,,,,,,,,,,,,,,,,bars/032.png,bars/mask000.png,,,,,,,,,,,,6,2,,,,,,,2,8,4,8,,,,,,,,,,,1154.7211,1155.2214,1155.4708,1160.6927,space,5.1734,,1160.6927,67,8,1161.6725,1161.6725,1161.6732,,,,0,33,33,33,1,125,20,,,,,,,,
,,645f83e73ef9ed597a1daf09,65af553e928510ff1336ce3e,2024-01-23_06h58.36.478,bars,2023.2.3,Win32,20,657b66ea316d21385b68909f,,,,,,,,,,,1161.6733,1162.6629,,,1163.1802,1163.4512,,60,240,,,,,,,,,,,,,,,,bars/035.png,bars/mask004.png,,,,,,,,,,,,10,2,,,,,,,0,10,0,10,,,,,,,,,,,1162.6629,1163.1802,1163.4512,1171.6413,space,8.1311,,1171.6413,65,0,1172.614,1172.614,1172.6146,,,,0,34,34,34,1,175,60,,,,,,,,
,,645f83e73ef9ed597a1daf09,65af553e928510ff1336ce3e,2024-01-23_06h58.36.478,bars,2023.2.3,Win32,20,657b66ea316d21385b68909f,,,,,,,,,,,1172.6147,1173.6307,,,1174.1463,1174.3998,,17,17,,,,,,,,,,,,,,,,bars/013.png,bars/mask009.png,,,,,,,,,,,,6,2,,,,,,,0,10,0,8,,,,,,,,,,,1173.6308,1174.1463,1174.3998,1180.9601,space,6.4951,,1180.9601,58,7,1181.9393,1181.9393,1181.9398,,,,0,35,35,35,1,75,10,,,,,,,,
,,645f83e73ef9ed597a1daf09,65af553e928510ff1336ce3e,2024-01-23_06h58.36.478,bars,2023.2.3,Win32,20,657b66ea316d21385b68909f,,,,,,,,,,,1181.94,1182.926,,,1183.4248,1183.6791,,166,166,,,,,,,,,,,,,,,,bars/048.png,bars/mask000.png,,,,,,,,,,,,6,2,,,,,,,0,10,0,9,,,,,,,,,,,1182.926,1183.4248,1183.6792,1189.1679,space,5.4431,,1189.1679,64,9,1190.1757,1190.1757,1190.1813,,,,0,36,36,36,1,50,175,,,,,,,,
,,645f83e73ef9ed597a1daf09,65af553e928510ff1336ce3e,2024-01-23_06h58.36.478,bars,2023.2.3,Win32,20,657b66ea316d21385b68909f,,,,,,,,,,,1190.1813,1191.139,,,1191.6491,1191.8929,,10,190,,,,,,,,,,,,,,,,bars/032.png,bars/mask006.png,,,,,,,,,,,,5,2,,,,,,,2,8,2,8,,,,,,,,,,,1191.139,1191.6491,1191.8929,1194.456,space,2.5046,,1194.4561,65,10,1195.4637,1195.4638,1195.4643,,,,0,37,37,37,1,125,20,,,,,,,,
,,645f83e73ef9ed597a1daf09,65af553e928510ff1336ce3e,2024-01-23_06h58.36.478,bars,2023.2.3,Win32,20,657b66ea316d21385b68909f,,,,,,,,,,,1195.4644,1196.4774,,,1196.9812,1197.2487,,8,188,,,,,,,,,,,,,,,,bars/048.png,bars/mask000.png,,,,,,,,,,,,4,2,,,,,,,0,6,0,7,,,,,,,,,,,1196.4775,1196.9812,1197.2487,1199.2664,space,1.9752,,1199.2664,42,13,1200.2474,1200.2474,1200.2479,,,,0,38,38,38,1,50,175,,,,,,,,
,,645f83e73ef9ed597a1daf09,65af553e928510ff1336ce3e,2024-01-23_06h58.36.478,bars,2023.2.3,Win32,20,657b66ea316d21385b68909f,,,,,,,,,,,1200.248,1201.2137,,,1201.6686,1201.9268,,97,97,,,,,,,,,,,,,,,,bars/046.png,bars/mask006.png,,,,,,,,,,,,2,2,,,,,,,0,4,1,3,,,,,,,,,,,1201.2138,1201.6686,1201.9268,1205.3286,space,3.3419,,1205.3286,58,12,1206.3111,1206.3111,1206.3171,,,,0,39,39,39,1,155,85,,,,,,,,
,,645f83e73ef9ed597a1daf09,65af553e928510ff1336ce3e,2024-01-23_06h58.36.478,bars,2023.2.3,Win32,20,657b66ea316d21385b68909f,,,,,,,,,,,1206.3172,1207.2929,,,1207.8073,1208.061,,171,-9,,,,,,,,,,,,,,,,bars/009.png,bars/mask009.png,,,,,,,,,,,,0,1,,,,,,,0,6,1,6,,,,,,,,,,,1207.293,1207.8073,1208.061,1211.3591,space,3.2392,,1211.3592,24,66,1212.363,1212.363,1212.3641,,,,0,40,40,40,1,15,105,,,,,,,,
,,645f83e73ef9ed597a1daf09,65af553e928510ff1336ce3e,2024-01-23_06h58.36.478,bars,2023.2.3,Win32,20,657b66ea316d21385b68909f,,,,,,,,,,,1212.3643,1213.3575,,,1213.8563,1214.1162,,141,-39,,,,,,,,,,,,,,,,bars/040.png,bars/mask001.png,,,,,,,,,,,,2,1,,,,,,,2,4,2,3,,,,,,,,,,,1213.3575,1213.8563,1214.1162,1218.9044,space,4.7452,,1218.9045,1,44,1219.9116,1219.9117,1219.9121,,,,0,41,41,41,1,140,5,,,,,,,,
,,645f83e73ef9ed597a1daf09,65af553e928510ff1336ce3e,2024-01-23_06h58.36.478,bars,2023.2.3,Win32,20,657b66ea316d21385b68909f,,,,,,,,,,,1219.9123,1220.9137,,,1221.3958,1221.6418,,178,-2,,,,,,,,,,,,,,,,bars/014.png,bars/mask006.png,,,,,,,,,,,,7,2,,,,,,,4,6,3,7,,,,,,,,,,,1220.9137,1221.3958,1221.6418,1227.7306,space,6.045,,1227.7306,82,2,1228.7193,1228.7194,1228.7256,,,,0,42,42,42,1,80,0,,,,,,,,
,,645f83e73ef9ed597a1daf09,65af553e928510ff1336ce3e,2024-01-23_06h58.36.478,bars,2023.2.3,Win32,20,657b66ea316d21385b68909f,,,,,,,,,,,1228.7257,1229.7477,,,1230.2631,1230.5099,,61,61,,,,,,,,,,,,,,,,bars/010.png,bars/mask007.png,,,,,,,,,,,,3,2,,,,,,,2,4,3,4,,,,,,,,,,,1229.7477,1230.2631,1230.5099,1232.3858,space,1.821,,1232.3859,76,6,1233.3777,1233.3777,1233.3854,,,,0,43,43,43,1,165,55,,,,,,,,
,,645f83e73ef9ed597a1daf09,65af553e928510ff1336ce3e,2024-01-23_06h58.36.478,bars,2023.2.3,Win32,20,657b66ea316d21385b68909f,,,,,,,,,,,1233.3856,1234.3587,,,1234.8652,1235.123,,97,97,,,,,,,,,,,,,,,,bars/028.png,bars/mask001.png,,,,,,,,,,,,0,2,,,,,,,0,2,0,0,,,,,,,,,,,1234.3587,1234.8652,1235.123,1236.5612,space,1.3933,,1236.5613,52,23,1237.572,1237.572,1237.5779,,,,0,44,44,44,1,45,120,,,,,,,,
,,645f83e73ef9ed597a1daf09,65af553e928510ff1336ce3e,2024-01-23_06h58.36.478,bars,2023.2.3,Win32,20,657b66ea316d21385b68909f,,,,,,,,,,,1237.578,1238.5654,,,1239.0358,1239.3083,,101,101,,,,,,,,,,,,,,,,bars/018.png,bars/mask004.png,,,,,,,,,,,,2,2,,,,,,,2,4,2,3,,,,,,,,,,,1238.5655,1239.0358,1239.3083,1245.7741,space,6.4105,,1245.7741,49,11,1246.7692,1246.7692,1246.7773,,,,0,45,45,45,1,150,90,,,,,,,,
,,645f83e73ef9ed597a1daf09,65af553e928510ff1336ce3e,2024-01-23_06h58.36.478,bars,2023.2.3,Win32,20,657b66ea316d21385b68909f,,,,,,,,,,,1246.7774,1247.7738,,,1248.263,1248.5138,,84,84,,,,,,,,,,,,,,,,bars/045.png,bars/mask009.png,,,,,,,,,,,,2,1,,,,,,,4,6,4,6,,,,,,,,,,,1247.7739,1248.263,1248.5138,1252.7679,space,4.2081,,1252.7679,16,74,1253.736,1253.7361,1253.7372,,,,0,46,46,46,1,100,10,,,,,,,,
,,645f83e73ef9ed597a1daf09,65af553e928510ff1336ce3e,2024-01-23_06h58.36.478,bars,2023.2.3,Win32,20,657b66ea316d21385b68909f,,,,,,,,,,,1253.7373,1254.7395,,,1255.2219,1255.4723,,137,137,,,,,,,,,,,,,,,,bars/001.png,bars/mask005.png,,,,,,,,,,,,2,1,,,,,,,2,8,2,7,,,,,,,,,,,1254.7395,1255.2218,1255.4723,1260.087,space,4.5652,,1260.0871,7,52,1261.0698,1261.0698,1261.0704,,,,0,47,47,47,1,130,85,,,,,,,,
,,645f83e73ef9ed597a1daf09,65af553e928510ff1336ce3e,2024-01-23_06h58.36.478,bars,2023.2.3,Win32,20,657b66ea316d21385b68909f,,,,,,,,,,,1261.0705,1262.0565,,,1262.5493,1262.8014,,94,94,,,,,,,,,,,,,,,,bars/012.png,bars/mask002.png,,,,,,,,,,,,2,1,,,,,,,4,6,2,5,,,,,,,,,,,1262.0566,1262.5493,1262.8014,1266.9182,space,4.0719,,1266.9182,4,79,1267.8695,1267.8696,1267.8701,,,,0,48,48,48,1,90,15,,,,,,,,
,,645f83e73ef9ed597a1daf09,65af553e928510ff1336ce3e,2024-01-23_06h58.36.478,bars,2023.2.3,Win32,20,657b66ea316d21385b68909f,,,,,,,,,,,1267.8703,1268.8692,,,1269.3558,1269.606,,48,48,,,,,,,,,,,,,,,,bars/007.png,bars/mask004.png,,,,,,,,,,,,6,2,,,,,,,2,8,1,8,,,,,,,,,,,1268.8692,1269.3557,1269.606,1275.0374,space,5.3888,,1275.0374,53,7,1276.0387,1276.0387,1276.0401,,,,0,49,49,49,1,175,55,,,,,,,,
,,645f83e73ef9ed597a1daf09,65af553e928510ff1336ce3e,2024-01-23_06h58.36.478,bars,2023.2.3,Win32,20,657b66ea316d21385b68909f,,,,,,,,,,,,,,,,,,,,,,,,,,,,,,,,,,,,,,,,,,,,,,,,,,,,,,,,,,,,,,,,,,,,,,,,,,,,,,,,,,,,,,,,,,,,,1276.0402,1343.2413,0,1,1,0,1,sequence_tables/blk042.csv
,,645f83e73ef9ed597a1daf09,65af553e928510ff1336ce3e,2024-01-23_06h58.36.478,bars,2023.2.3,Win32,20,657b66ea316d21385b68909f,,,,,,,,,,,1344.9702,1345.9902,,,1346.4439,1346.6931,,149,149,,,,,,,,,,,,,,,,bars/038.png,bars/mask001.png,,,,,,,,,,,,2,1,,,,,,,3,6,4,7,,,,,,1343.2476,1344.9681,space,1.6712,,1345.9903,1346.4438,1346.6931,1349.2428,space,2.5077,,1349.2428,16,79,1350.2376,1350.2376,1350.2444,,,,0,0,0,0,1,165,70,,,,,,,,
,,645f83e73ef9ed597a1daf09,65af553e928510ff1336ce3e,2024-01-23_06h58.36.478,bars,2023.2.3,Win32,20,657b66ea316d21385b68909f,,,,,,,,,,,1350.2445,1351.2517,,,1351.7485,1352.0054,,149,-31,,,,,,,,,,,,,,,,bars/042.png,bars/mask005.png,,,,,,,,,,,,3,1,,,,,,,5,8,3,7,,,,,,,,,,,1351.2517,1351.7484,1352.0054,1356.2862,space,4.2299,,1356.2862,4,74,1357.2512,1357.2512,1357.2518,,,,0,1,1,1,1,145,75,,,,,,,,
,,645f83e73ef9ed597a1daf09,65af553e928510ff1336ce3e,2024-01-23_06h58.36.478,bars,2023.2.3,Win32,20,657b66ea316d21385b68909f,,,,,,,,,,,1357.2518,1358.2463,,,1358.7453,1358.991,,12,12,,,,,,,,,,,,,,,,bars/014.png,bars/mask007.png,,,,,,,,,,,,6,2,,,,,,,7,10,8,10,,,,,,,,,,,1358.2463,1358.7453,1358.991,1359.7784,space,0.7422,,1359.7784,68,12,1360.7565,1360.7565,1360.7576,,,,0,2,2,2,1,80,0,,,,,,,,
,,645f83e73ef9ed597a1daf09,65af553e928510ff1336ce3e,2024-01-23_06h58.36.478,bars,2023.2.3,Win32,20,657b66ea316d21385b68909f,,,,,,,,,,,1360.7577,1361.7671,,,1362.2675,1362.5167,,118,118,,,,,,,,,,,,,,,,bars/049.png,bars/mask003.png,,,,,,,,,,,,9,2,,,,,,,5,10,5,10,,,,,,,,,,,1361.7671,1362.2675,1362.5167,1366.6639,space,4.0821,,1366.6639,42,3,1367.6489,1367.649,1367.6549,,,,0,3,3,3,1,160,115,,,,,,,,
,,645f83e73ef9ed597a1daf09,65af553e928510ff1336ce3e,2024-01-23_06h58.36.478,bars,2023.2.3,Win32,20,657b66ea316d21385b68909f,,,,,,,,,,,1367.6551,1368.6362,,,1369.1396,1369.3963,,5,185,,,,,,,,,,,,,,,,bars/008.png,bars/mask008.png,,,,,,,,,,,,7,2,,,,,,,3,10,2,8,,,,,,,,,,,1368.6362,1369.1396,1369.3963,1371.5408,space,2.097,,1371.5409,75,5,1372.5059,1372.506,1372.5065,,,,0,4,4,4,1,110,0,,,,,,,,
,,645f83e73ef9ed597a1daf09,65af553e928510ff1336ce3e,2024-01-23_06h58.36.478,bars,2023.2.3,Win32,20,657b66ea316d21385b68909f,,,,,,,,,,,1372.5067,1373.5291,,,1374.018,1374.2514,,55,55,,,,,,,,,,,,,,,,bars/007.png,bars/mask004.png,,,,,,,,,,,,9,2,,,,,,,1,10,1,9,,,,,,,,,,,1373.5292,1374.018,1374.2514,1379.991,space,5.6691,,1379.991,60,0,1380.9711,1380.9711,1380.9716,,,,0,5,5,5,1,175,55,,,,,,,,
,,645f83e73ef9ed597a1daf09,65af553e928510ff1336ce3e,2024-01-23_06h58.36.478,bars,2023.2.3,Win32,20,657b66ea316d21385b68909f,,,,,,,,,,,1380.9718,1381.9632,,,1382.432,1382.6879,,131,131,,,,,,,,,,,,,,,,bars/044.png,bars/mask000.png,,,,,,,,,,,,2,2,,,,,,,3,10,1,10,,,,,,,,,,,1381.9632,1382.432,1382.6879,1384.8087,space,2.0775,,1384.8087,56,24,1385.8099,1385.81,1385.8106,,,,0,6,6,6,1,75,155,,,,,,,,
,,645f83e73ef9ed597a1daf09,65af553e928510ff1336ce3e,2024-01-23_06h58.36.478,bars,2023.2.3,Win32,20,657b66ea316d21385b68909f,,,,,,,,,,,1385.8106,1386.8105,,,1387.3054,1387.5565,,102,102,,,,,,,,,,,,,,,,bars/018.png,bars/mask007.png,,,,,,,,,,,,6,2,,,,,,,5,10,5,10,,,,,,,,,,,1386.8105,1387.3053,1387.5566,1393.5486,space,5.936,,1393.5486,48,12,1394.5317,1394.5318,1394.5323,,,,0,7,7,7,1,150,90,,,,,,,,
,,645f83e73ef9ed597a1daf09,65af553e928510ff1336ce3e,2024-01-23_06h58.36.478,bars,2023.2.3,Win32,20,657b66ea316d21385b68909f,,,,,,,,,,,1394.5324,1395.5061,,,1395.9925,1396.2367,,85,85,,,,,,,,,,,,,,,,bars/038.png,bars/mask000.png,,,,,,,,,,,,5,2,,,,,,,7,8,7,9,,,,,,,,,,,1395.5062,1395.9925,1396.2367,1397.1244,space,0.8424,,1397.1244,80,15,1398.0917,1398.0918,1398.0923,,,,0,8,8,8,1,165,70,,,,,,,,
,,645f83e73ef9ed597a1daf09,65af553e928510ff1336ce3e,2024-01-23_06h58.36.478,bars,2023.2.3,Win32,20,657b66ea316d21385b68909f,,,,,,,,,,,1398.0924,1399.1017,,,1399.6153,1399.8641,,103,103,,,,,,,,,,,,,,,,bars/023.png,bars/mask008.png,,,,,,,,,,,,3,2,,,,,,,5,6,7,5,,,,,,,,,,,1399.1017,1399.6153,1399.8641,1405.3205,space,5.411,,1405.3205,83,12,1406.3262,1406.3262,1406.3322,,,,0,9,9,9,1,20,115,,,,,,,,
,,645f83e73ef9ed597a1daf09,65af553e928510ff1336ce3e,2024-01-23_06h58.36.478,bars,2023.2.3,Win32,20,657b66ea316d21385b68909f,,,,,,,,,,,1406.3323,1407.3106,,,1407.8199,1408.0347,,172,-8,,,,,,,,,,,,,,,,bars/020.png,bars/mask004.png,,,,,,,,,,,,9,2,,,,,,,7,8,7,10,,,,,,,,,,,1407.3106,1407.8198,1408.0348,1411.7318,space,3.6324,,1411.7318,57,2,1412.7096,1412.7096,1412.7101,,,,0,10,10,10,1,115,170,,,,,,,,
,,645f83e73ef9ed597a1daf09,65af553e928510ff1336ce3e,2024-01-23_06h58.36.478,bars,2023.2.3,Win32,20,657b66ea316d21385b68909f,,,,,,,,,,,1412.7102,1413.6958,,,1414.1959,1414.4644,,97,97,,,,,,,,,,,,,,,,bars/023.png,bars/mask000.png,,,,,,,,,,,,4,2,,,,,,,9,10,8,9,,,,,,,,,,,1413.6958,1414.1959,1414.4644,1419.6317,space,5.11,,1419.6317,77,18,1420.6281,1420.6281,1420.6287,,,,0,11,11,11,1,20,115,,,,,,,,
,,645f83e73ef9ed597a1daf09,65af553e928510ff1336ce3e,2024-01-23_06h58.36.478,bars,2023.2.3,Win32,20,657b66ea316d21385b68909f,,,,,,,,,,,1420.6288,1421.593,,,1422.1013,1422.3024,,126,126,,,,,,,,,,,,,,,,bars/043.png,bars/mask008.png,,,,,,,,,,,,9,2,,,,,,,10,10,9,10,,,,,,,,,,,1421.593,1422.1013,1422.3024,1424.975,space,2.6062,,1424.975,84,4,1425.9865,1425.9865,1425.9941,,,,0,12,12,12,1,30,130,,,,,,,,
,,645f83e73ef9ed597a1daf09,65af553e928510ff1336ce3e,2024-01-23_06h58.36.478,bars,2023.2.3,Win32,20,657b66ea316d21385b68909f,,,,,,,,,,,1425.9942,1426.9757,,,1427.4827,1427.7338,,108,108,,,,,,,,,,,,,,,,bars/039.png,bars/mask005.png,,,,,,,,,,,,7,2,,,,,,,8,8,8,8,,,,,,,,,,,1426.9758,1427.4827,1427.7338,1431.219,space,3.433,,1431.219,67,3,1432.1966,1432.1966,1432.204,,,,0,13,13,13,1,175,105,,,,,,,,
,,645f83e73ef9ed597a1daf09,65af553e928510ff1336ce3e,2024-01-23_06h58.36.478,bars,2023.2.3,Win32,20,657b66ea316d21385b68909f,,,,,,,,,,,1432.2042,1433.2013,,,1433.7028,1433.955,,130,130,,,,,,,,,,,,,,,,bars/004.png,bars/mask006.png,,,,,,,,,,,,8,2,,,,,,,10,10,10,10,,,,,,,,,,,1433.2014,1433.7027,1433.9551,1436.7656,space,2.7658,,1436.7657,75,5,1437.7601,1437.7601,1437.7607,,,,0,14,14,14,1,25,125,,,,,,,,
,,645f83e73ef9ed597a1daf09,65af553e928510ff1336ce3e,2024-01-23_06h58.36.478,bars,2023.2.3,Win32,20,657b66ea316d21385b68909f,,,,,,,,,,,1437.7608,1438.7562,,,1439.2253,1439.481,,14,14,,,,,,,,,,,,,,,,bars/045.png,bars/mask001.png,,,,,,,,,,,,9,2,,,,,,,8,10,6,10,,,,,,,,,,,1438.7562,1439.2253,1439.481,1442.5454,space,2.995,0.0002,1442.5454,86,4,1443.5596,1443.5596,1443.5601,,,,0,15,15,15,1,100,10,,,,,,,,
,,645f83e73ef9ed597a1daf09,65af553e928510ff1336ce3e,2024-01-23_06h58.36.478,bars,2023.2.3,Win32,20,657b66ea316d21385b68909f,,,,,,,,,,,1443.5602,1444.5614,,,1445.0643,1445.3224,,14,14,,,,,,,,,,,,,,,,bars/012.png,bars/mask009.png,,,,,,,,,,,,9,2,,,,,,,10,10,10,9,,,,,,,,,,,1444.5614,1445.0643,1445.3224,1447.5265,space,2.1429,,1447.5266,76,1,1448.5259,1448.526,1448.5265,,,,0,16,16,16,1,90,15,,,,,,,,
,,645f83e73ef9ed597a1daf09,65af553e928510ff1336ce3e,2024-01-23_06h58.36.478,bars,2023.2.3,Win32,20,657b66ea316d21385b68909f,,,,,,,,,,,1448.5267,1449.5401,,,1450.0159,1450.2571,,79,259,,,,,,,,,,,,,,,,bars/042.png,bars/mask004.png,,,,,,,,,,,,9,2,,,,,,,10,10,10,10,,,,,,,,,,,1449.5401,1450.0159,1450.2571,1456.9923,space,6.691,,1456.9923,66,4,1457.9882,1457.9882,1457.9888,,,,0,17,17,17,1,145,75,,,,,,,,
,,645f83e73ef9ed597a1daf09,65af553e928510ff1336ce3e,2024-01-23_06h58.36.478,bars,2023.2.3,Win32,20,657b66ea316d21385b68909f,,,,,,,,,,,1457.989,1458.955,,,1459.48,1459.6922,,85,85,,,,,,,,,,,,,,,,bars/021.png,bars/mask000.png,,,,,,,,,,,,5,2,,,,,,,10,10,9,10,,,,,,,,,,,1458.9551,1459.48,1459.6922,1462.4708,space,2.7217,,1462.4709,70,15,1463.4786,1463.4787,1463.4861,,,,0,18,18,18,1,155,70,,,,,,,,
,,645f83e73ef9ed597a1daf09,65af553e928510ff1336ce3e,2024-01-23_06h58.36.478,bars,2023.2.3,Win32,20,657b66ea316d21385b68909f,,,,,,,,,,,1463.4862,1464.4559,,,1464.9263,1465.1774,,7,187,,,,,,,,,,,,,,,,bars/014.png,bars/mask001.png,,,,,,,,,,,,6,2,,,,,,,8,8,10,8,,,,,,,,,,,1464.4559,1464.9263,1465.1774,1468.9809,space,3.7544,,1468.9809,73,7,1469.9825,1469.9825,1469.983,,,,0,19,19,19,1,80,0,,,,,,,,
,,645f83e73ef9ed597a1daf09,65af553e928510ff1336ce3e,2024-01-23_06h58.36.478,bars,2023.2.3,Win32,20,657b66ea316d21385b68909f,,,,,,,,,,,1469.9832,1471.0012,,,1471.5021,1471.7201,,143,143,,,,,,,,,,,,,,,,bars/005.png,bars/mask003.png,,,,,,,,,,,,5,2,,,,,,,10,6,10,5,,,,,,,,,,,1471.0012,1471.5021,1471.7201,1475.9167,space,4.154,,1475.9167,47,3,1476.9044,1476.9044,1476.9118,,,,0,20,20,20,1,10,140,,,,,,,,
,,645f83e73ef9ed597a1daf09,65af553e928510ff1336ce3e,2024-01-23_06h58.36.478,bars,2023.2.3,Win32,20,657b66ea316d21385b68909f,,,,,,,,,,,1476.9119,1477.9035,,,1478.3901,1478.6527,,95,-85,,,,,,,,,,,,,,,,bars/006.png,bars/mask008.png,,,,,,,,,,,,4,2,,,,,,,10,4,10,5,,,,,,,,,,,1477.9035,1478.3901,1478.6527,1485.0799,space,6.3817,,1485.0799,60,5,1486.0469,1486.0469,1486.0546,,,,0,21,21,21,1,35,100,,,,,,,,
,,645f83e73ef9ed597a1daf09,65af553e928510ff1336ce3e,2024-01-23_06h58.36.478,bars,2023.2.3,Win32,20,657b66ea316d21385b68909f,,,,,,,,,,,1486.0548,1487.0062,,,1487.5162,1487.7734,,79,79,,,,,,,,,,,,,,,,bars/042.png,bars/mask003.png,,,,,,,,,,,,0,2,,,,,,,8,2,9,0,,,,,,,,,,,1487.0062,1487.5162,1487.7734,1490.9457,space,3.1298,,1490.9457,66,4,1491.9169,1491.9169,1491.9174,,,,0,22,22,22,1,145,75,,,,,,,,
,,645f83e73ef9ed597a1daf09,65af553e928510ff1336ce3e,2024-01-23_06h58.36.478,bars,2023.2.3,Win32,20,657b66ea316d21385b68909f,,,,,,,,,,,1491.9176,1492.8894,,,1493.3928,1493.6426,,77,77,,,,,,,,,,,,,,,,bars/013.png,bars/mask005.png,,,,,,,,,,,,6,1,,,,,,,6,4,6,3,,,,,,,,,,,1492.8895,1493.3927,1493.6427,1497.5388,space,3.8377,,1497.5389,2,67,1498.5235,1498.5235,1498.5246,,,,0,23,23,23,1,75,10,,,,,,,,
,,645f83e73ef9ed597a1daf09,65af553e928510ff1336ce3e,2024-01-23_06h58.36.478,bars,2023.2.3,Win32,20,657b66ea316d21385b68909f,,,,,,,,,,,1498.5246,1499.5098,,,1500.017,1500.2738,,71,71,,,,,,,,,,,,,,,,bars/044.png,bars/mask008.png,,,,,,,,,,,,7,1,,,,,,,8,6,8,6,,,,,,,,,,,1499.5099,1500.0169,1500.2739,1500.9636,space,0.6312,,1500.9637,4,84,1501.9762,1501.9762,1501.9767,,,,0,24,24,24,1,75,155,,,,,,,,
,,645f83e73ef9ed597a1daf09,65af553e928510ff1336ce3e,2024-01-23_06h58.36.478,bars,2023.2.3,Win32,20,657b66ea316d21385b68909f,,,,,,,,,,,1501.9768,1502.9854,,,1503.4966,1503.7514,,11,191,,,,,,,,,,,,,,,,bars/039.png,bars/mask001.png,,,,,,,,,,,,5,1,,,,,,,10,4,10,5,,,,,,,,,,,1502.9855,1503.4966,1503.7514,1507.4017,space,3.5908,,1507.4017,16,86,1508.3716,1508.3716,1508.3791,,,,0,25,25,25,1,175,105,,,,,,,,
,,645f83e73ef9ed597a1daf09,65af553e928510ff1336ce3e,2024-01-23_06h58.36.478,bars,2023.2.3,Win32,20,657b66ea316d21385b68909f,,,,,,,,,,,1508.3792,1509.3774,,,1509.8647,1510.1177,,75,75,,,,,,,,,,,,,,,,bars/044.png,bars/mask008.png,,,,,,,,,,,,10,1,,,,,,,10,2,10,2,,,,,,,,,,,1509.3774,1509.8647,1510.1177,1513.4245,space,3.2444,,1513.4245,0,80,1514.4079,1514.4079,1514.4086,,,,0,26,26,26,1,75,155,,,,,,,,
,,645f83e73ef9ed597a1daf09,65af553e928510ff1336ce3e,2024-01-23_06h58.36.478,bars,2023.2.3,Win32,20,657b66ea316d21385b68909f,,,,,,,,,,,1514.4087,1515.3834,,,1515.8984,1516.1582,,68,68,,,,,,,,,,,,,,,,bars/029.png,bars/mask004.png,,,,,,,,,,,,2,1,,,,,,,8,4,7,4,,,,,,,,,,,1515.3834,1515.8983,1516.1582,1518.1671,space,1.965,,1518.1672,22,23,1519.1853,1519.1853,1519.1859,,,,0,27,27,27,1,90,45,,,,,,,,
,,645f83e73ef9ed597a1daf09,65af553e928510ff1336ce3e,2024-01-23_06h58.36.478,bars,2023.2.3,Win32,20,657b66ea316d21385b68909f,,,,,,,,,,,1519.186,1520.1755,,,1520.6792,1520.9415,,69,69,,,,,,,,,,,,,,,,bars/029.png,bars/mask000.png,,,,,,,,,,,,1,1,,,,,,,6,6,4,7,,,,,,,,,,,1520.1755,1520.6792,1520.9415,1524.2963,space,3.2955,,1524.2964,21,24,1525.3121,1525.3121,1525.3196,,,,0,28,28,28,1,90,45,,,,,,,,
,,645f83e73ef9ed597a1daf09,65af553e928510ff1336ce3e,2024-01-23_06h58.36.478,bars,2023.2.3,Win32,20,657b66ea316d21385b68909f,,,,,,,,,,,1525.3197,1526.2861,,,1526.7806,1526.9913,,5,185,,,,,,,,,,,,,,,,bars/014.png,bars/mask004.png,,,,,,,,,,,,3,2,,,,,,,4,4,3,4,,,,,,,,,,,1526.2861,1526.7806,1526.9913,1529.3807,space,2.3453,,1529.3807,75,5,1530.3518,1530.3518,1530.3529,,,,0,29,29,29,1,80,0,,,,,,,,
,,645f83e73ef9ed597a1daf09,65af553e928510ff1336ce3e,2024-01-23_06h58.36.478,bars,2023.2.3,Win32,20,657b66ea316d21385b68909f,,,,,,,,,,,1530.353,1531.3491,,,1531.8537,1532.1134,,161,161,,,,,,,,,,,,,,,,bars/044.png,bars/mask001.png,,,,,,,,,,,,2,2,,,,,,,6,2,6,3,,,,,,,,,,,1531.3491,1531.8537,1532.1134,1532.8293,space,0.6541,,1532.8293,86,6,1533.8022,1533.8022,1533.803,,,,0,30,30,30,1,75,155,,,,,,,,
,,645f83e73ef9ed597a1daf09,65af553e928510ff1336ce3e,2024-01-23_06h58.36.478,bars,2023.2.3,Win32,20,657b66ea316d21385b68909f,,,,,,,,,,,1533.8031,1534.7557,,,1535.2639,1535.5236,,24,204,,,,,,,,,,,,,,,,bars/043.png,bars/mask000.png,,,,,,,,,,,,4,1,,,,,,,4,0,5,0,,,,,,,,,,,1534.7558,1535.2639,1535.5236,1540.3575,space,4.7729,,1540.3575,6,74,1541.3239,1541.3239,1541.325,,,,0,31,31,31,1,30,130,,,,,,,,
,,645f83e73ef9ed597a1daf09,65af553e928510ff1336ce3e,2024-01-23_06h58.36.478,bars,2023.2.3,Win32,20,657b66ea316d21385b68909f,,,,,,,,,,,1541.3251,1542.2923,,,1542.8178,1543.0355,,2,2,,,,,,,,,,,,,,,,bars/007.png,bars/mask001.png,,,,,,,,,,,,5,1,,,,,,,6,2,6,2,,,,,,,,,,,1542.2923,1542.8178,1543.0355,1543.7774,space,0.6887,,1543.7775,7,53,1544.7523,1544.7523,1544.753,,,,0,32,32,32,1,175,55,,,,,,,,
,,645f83e73ef9ed597a1daf09,65af553e928510ff1336ce3e,2024-01-23_06h58.36.478,bars,2023.2.3,Win32,20,657b66ea316d21385b68909f,,,,,,,,,,,1544.7531,1545.7621,,,1546.2665,1546.5262,,156,156,,,,,,,,,,,,,,,,bars/036.png,bars/mask004.png,,,,,,,,,,,,6,1,,,,,,,8,4,10,5,,,,,,,,,,,1545.7621,1546.2664,1546.5262,1549.1171,space,2.5465,,1549.1171,11,44,1550.0795,1550.0796,1550.0852,,,,0,33,33,33,1,145,20,,,,,,,,
,,645f83e73ef9ed597a1daf09,65af553e928510ff1336ce3e,2024-01-23_06h58.36.478,bars,2023.2.3,Win32,20,657b66ea316d21385b68909f,,,,,,,,,,,1550.0853,1551.0761,,,1551.5665,1551.7695,,141,141,,,,,,,,,,,,,,,,bars/030.png,bars/mask000.png,,,,,,,,,,,,8,1,,,,,,,10,6,8,5,,,,,,,,,,,1551.0761,1551.5664,1551.7695,1557.781,space,5.9515,,1557.781,1,76,1558.7595,1558.7595,1558.76,,,,0,34,34,34,1,140,65,,,,,,,,
,,645f83e73ef9ed597a1daf09,65af553e928510ff1336ce3e,2024-01-23_06h58.36.478,bars,2023.2.3,Win32,20,657b66ea316d21385b68909f,,,,,,,,,,,1558.7602,1559.7441,,,1560.2478,1560.465,,142,142,,,,,,,,,,,,,,,,bars/042.png,bars/mask000.png,,,,,,,,,,,,9,1,,,,,,,10,8,10,8,,,,,,,,,,,1559.7441,1560.2478,1560.465,1564.5165,space,4.0068,,1564.5165,3,67,1565.4721,1565.4722,1565.473,,,,0,35,35,35,1,145,75,,,,,,,,
,,645f83e73ef9ed597a1daf09,65af553e928510ff1336ce3e,2024-01-23_06h58.36.478,bars,2023.2.3,Win32,20,657b66ea316d21385b68909f,,,,,,,,,,,1565.4731,1566.4533,,,1566.9059,1567.1708,,128,128,,,,,,,,,,,,,,,,bars/040.png,bars/mask005.png,,,,,,,,,,,,5,1,,,,,,,8,10,8,10,,,,,,,,,,,1566.4533,1566.9058,1567.1708,1569.1136,space,1.8973,,1569.1136,12,57,1570.1089,1570.1089,1570.1094,,,,0,36,36,36,1,140,5,,,,,,,,
,,645f83e73ef9ed597a1daf09,65af553e928510ff1336ce3e,2024-01-23_06h58.36.478,bars,2023.2.3,Win32,20,657b66ea316d21385b68909f,,,,,,,,,,,1570.1096,1571.1128,,,1571.6002,1571.8153,,13,13,,,,,,,,,,,,,,,,bars/005.png,bars/mask002.png,,,,,,,,,,,,5,1,,,,,,,6,10,5,9,,,,,,,,,,,1571.1128,1571.6002,1571.8153,1577.5188,space,5.6554,,1577.5188,3,53,1578.488,1578.488,1578.4938,,,,0,37,37,37,1,10,140,,,,,,,,
,,645f83e73ef9ed597a1daf09,65af553e928510ff1336ce3e,2024-01-23_06h58.36.478,bars,2023.2.3,Win32,20,657b66ea316d21385b68909f,,,,,,,,,,,1578.4938,1579.4814,,,1579.9376,1580.1861,,50,50,,,,,,,,,,,,,,,,bars/019.png,bars/mask007.png,,,,,,,,,,,,3,1,,,,,,,4,8,4,8,,,,,,,,,,,1579.4814,1579.9376,1580.1862,1583.0173,space,2.7738,,1583.0174,5,55,1583.9718,1583.9718,1583.9725,,,,0,38,38,38,1,45,105,,,,,,,,
,,645f83e73ef9ed597a1daf09,65af553e928510ff1336ce3e,2024-01-23_06h58.36.478,bars,2023.2.3,Win32,20,657b66ea316d21385b68909f,,,,,,,,,,,1583.9727,1584.9436,,,1585.4076,1585.6274,,117,117,,,,,,,,,,,,,,,,bars/024.png,bars/mask008.png,,,,,,,,,,,,2,1,,,,,,,2,6,2,5,,,,,,,,,,,1584.9437,1585.4076,1585.6275,1589.9912,space,4.3188,,1589.9913,3,53,1590.9427,1590.9427,1590.9434,,,,0,39,39,39,1,120,170,,,,,,,,
,,645f83e73ef9ed597a1daf09,65af553e928510ff1336ce3e,2024-01-23_06h58.36.478,bars,2023.2.3,Win32,20,657b66ea316d21385b68909f,,,,,,,,,,,1590.9435,1591.9329,,,1592.4278,1592.6447,,58,58,,,,,,,,,,,,,,,,bars/029.png,bars/mask003.png,,,,,,,,,,,,4,2,,,,,,,4,8,5,7,,,,,,,,,,,1591.9329,1592.4278,1592.6447,1597.1473,space,4.4602,,1597.1473,32,13,1598.1353,1598.1353,1598.1364,,,,0,40,40,40,1,90,45,,,,,,,,
,,645f83e73ef9ed597a1daf09,65af553e928510ff1336ce3e,2024-01-23_06h58.36.478,bars,2023.2.3,Win32,20,657b66ea316d21385b68909f,,,,,,,,,,,1598.1365,1599.1141,,,1599.6079,1599.8531,,75,75,,,,,,,,,,,,,,,,bars/011.png,bars/mask006.png,,,,,,,,,,,,3,2,,,,,,,2,6,2,5,,,,,,,,,,,1599.1141,1599.6079,1599.8532,1605.0993,space,5.1885,,1605.0994,85,10,1606.0729,1606.0729,1606.0736,,,,0,41,41,41,1,160,85,,,,,,,,
,,645f83e73ef9ed597a1daf09,65af553e928510ff1336ce3e,2024-01-23_06h58.36.478,bars,2023.2.3,Win32,20,657b66ea316d21385b68909f,,,,,,,,,,,1606.0737,1607.0526,,,1607.5092,1607.718,,0,0,,,,,,,,,,,,,,,,bars/048.png,bars/mask005.png,,,,,,,,,,,,3,2,,,,,,,0,4,0,3,,,,,,,,,,,1607.0526,1607.5092,1607.718,1610.5766,space,2.8023,,1610.5766,50,5,1611.5656,1611.5656,1611.5662,,,,0,42,42,42,1,50,175,,,,,,,,
,,645f83e73ef9ed597a1daf09,65af553e928510ff1336ce3e,2024-01-23_06h58.36.478,bars,2023.2.3,Win32,20,657b66ea316d21385b68909f,,,,,,,,,,,1611.5662,1612.553,,,1613.0579,1613.301,,149,-31,,,,,,,,,,,,,,,,bars/017.png,bars/mask006.png,,,,,,,,,,,,1,1,,,,,,,2,2,1,3,,,,,,,,,,,1612.553,1613.0579,1613.301,1617.2916,space,3.9214,,1617.2916,4,76,1618.2815,1618.2816,1618.2826,,,,0,43,43,43,1,145,45,,,,,,,,
,,645f83e73ef9ed597a1daf09,65af553e928510ff1336ce3e,2024-01-23_06h58.36.478,bars,2023.2.3,Win32,20,657b66ea316d21385b68909f,,,,,,,,,,,1618.2827,1619.2684,,,1619.7745,1620.0492,,172,172,,,,,,,,,,,,,,,,bars/038.png,bars/mask004.png,,,,,,,,,,,,4,1,,,,,,,4,4,5,4,,,,,,,,,,,1619.2684,1619.7744,1620.0492,1621.9051,space,1.8006,,1621.9051,7,78,1622.8848,1622.8848,1622.8854,,,,0,44,44,44,1,165,70,,,,,,,,
,,645f83e73ef9ed597a1daf09,65af553e928510ff1336ce3e,2024-01-23_06h58.36.478,bars,2023.2.3,Win32,20,657b66ea316d21385b68909f,,,,,,,,,,,1622.8855,1623.8506,,,1624.3028,1624.5169,,59,59,,,,,,,,,,,,,,,,bars/017.png,bars/mask004.png,,,,,,,,,,,,1,2,,,,,,,6,2,5,2,,,,,,,,,,,1623.8506,1624.3027,1624.5169,1630.6487,space,6.0639,,1630.6487,86,14,1631.6167,1631.6167,1631.6246,,,,0,45,45,45,1,145,45,,,,,,,,
,,645f83e73ef9ed597a1daf09,65af553e928510ff1336ce3e,2024-01-23_06h58.36.478,bars,2023.2.3,Win32,20,657b66ea316d21385b68909f,,,,,,,,,,,1631.6248,1632.5928,,,1633.0987,1633.3463,,50,230,,,,,,,,,,,,,,,,bars/043.png,bars/mask006.png,,,,,,,,,,,,2,1,,,,,,,4,4,5,2,,,,,,,,,,,1632.5928,1633.0986,1633.3463,1638.3703,space,4.9808,,1638.3703,20,80,1639.3667,1639.3668,1639.3678,,,,0,46,46,46,1,30,130,,,,,,,,
,,645f83e73ef9ed597a1daf09,65af553e928510ff1336ce3e,2024-01-23_06h58.36.478,bars,2023.2.3,Win32,20,657b66ea316d21385b68909f,,,,,,,,,,,1639.3679,1640.3673,,,1640.8873,1641.1482,,6,6,,,,,,,,,,,,,,,,bars/009.png,bars/mask006.png,,,,,,,,,,,,5,1,,,,,,,6,2,7,2,,,,,,,,,,,1640.3673,1640.8872,1641.1483,1644.4731,space,3.2607,,1644.4732,9,81,1645.4235,1645.4236,1645.431,,,,0,47,47,47,1,15,105,,,,,,,,
,,645f83e73ef9ed597a1daf09,65af553e928510ff1336ce3e,2024-01-23_06h58.36.478,bars,2023.2.3,Win32,20,657b66ea316d21385b68909f,,,,,,,,,,,1645.4311,1646.4124,,,1646.9222,1647.1789,,37,37,,,,,,,,,,,,,,,,bars/033.png,bars/mask009.png,,,,,,,,,,,,2,1,,,,,,,4,4,3,3,,,,,,,,,,,1646.4124,1646.9222,1647.179,1652.7427,space,5.5176,,1652.7428,12,62,1653.7254,1653.7255,1653.7319,,,,0,48,48,48,1,25,155,,,,,,,,
,,645f83e73ef9ed597a1daf09,65af553e928510ff1336ce3e,2024-01-23_06h58.36.478,bars,2023.2.3,Win32,20,657b66ea316d21385b68909f,,,,,,,,,,,1653.7321,1654.6889,,,1655.1634,1655.4099,,135,135,,,,,,,,,,,,,,,,bars/017.png,bars/mask008.png,,,,,,,,,,,,1,1,,,,,,,2,2,1,2,,,,,,,,,,,1654.6889,1655.1634,1655.4099,1658.818,space,3.3524,,1658.818,10,90,1659.7713,1659.7713,1659.7719,,,,0,49,49,49,1,145,45,,,,,,,,
,,645f83e73ef9ed597a1daf09,65af553e928510ff1336ce3e,2024-01-23_06h58.36.478,bars,2023.2.3,Win32,20,657b66ea316d21385b68909f,,,,,,,,,,,,,,,,,,,,,,,,,,,,,,,,,,,,,,,,,,,,,,,,,,,,,,,,,,,,,,,,,,,,,,,,,,,,,,,,,,,,,,,,,,,,,1659.772,1749.5526,0,2,2,1,1,sequence_tables/blk020.csv
,,645f83e73ef9ed597a1daf09,65af553e928510ff1336ce3e,2024-01-23_06h58.36.478,bars,2023.2.3,Win32,20,657b66ea316d21385b68909f,,,,,,,,,,,1750.7684,1751.7523,,,1752.2644,1752.4773,,124,124,,,,,,,,,,,,,,,,bars/004.png,bars/mask002.png,,,,,,,,,,,,5,2,,,,,,,8,4,8,5,,,,,,1749.5589,1750.7664,space,1.1603,,1751.7523,1752.2644,1752.4775,1755.4369,space,2.9112,,1755.4369,81,1,1756.4043,1756.4043,1756.4109,,,,0,0,0,0,1,25,125,,,,,,,,
,,645f83e73ef9ed597a1daf09,65af553e928510ff1336ce3e,2024-01-23_06h58.36.478,bars,2023.2.3,Win32,20,657b66ea316d21385b68909f,,,,,,,,,,,1756.411,1757.3773,,,1757.8683,1758.1071,,12,192,,,,,,,,,,,,,,,,bars/013.png,bars/mask008.png,,,,,,,,,,,,7,2,,,,,,,10,6,10,8,,,,,,,,,,,1757.3773,1757.8683,1758.1071,1761.49,space,3.3378,,1761.49,63,2,1762.4769,1762.4769,1762.4773,,,,0,1,1,1,1,75,10,,,,,,,,
,,645f83e73ef9ed597a1daf09,65af553e928510ff1336ce3e,2024-01-23_06h58.36.478,bars,2023.2.3,Win32,20,657b66ea316d21385b68909f,,,,,,,,,,,1762.4775,1763.4682,,,1763.9676,1764.221,,173,-7,,,,,,,,,,,,,,,,bars/015.png,bars/mask009.png,,,,,,,,,,,,3,2,,,,,,,10,4,10,5,,,,,,,,,,,1763.4683,1763.9675,1764.221,1767.1173,space,2.8487,,1767.1174,63,13,1768.1143,1768.1143,1768.1148,,,,0,2,2,2,1,110,160,,,,,,,,
,,645f83e73ef9ed597a1daf09,65af553e928510ff1336ce3e,2024-01-23_06h58.36.478,bars,2023.2.3,Win32,20,657b66ea316d21385b68909f,,,,,,,,,,,1768.1148,1769.0864,,,1769.588,1769.833,,173,173,,,,,,,,,,,,,,,,bars/024.png,bars/mask001.png,,,,,,,,,,,,5,2,,,,,,,8,6,8,5,,,,,,,,,,,1769.0864,1769.588,1769.833,1770.6022,space,0.7253,,1770.6023,53,3,1771.6014,1771.6015,1771.602,,,,0,3,3,3,1,120,170,,,,,,,,
,,645f83e73ef9ed597a1daf09,65af553e928510ff1336ce3e,2024-01-23_06h58.36.478,bars,2023.2.3,Win32,20,657b66ea316d21385b68909f,,,,,,,,,,,1771.6021,1772.6239,,,1773.134,1773.3936,,69,69,,,,,,,,,,,,,,,,bars/002.png,bars/mask003.png,,,,,,,,,,,,4,2,,,,,,,10,8,10,9,,,,,,,,,,,1772.6239,1773.134,1773.3936,1774.6547,space,1.1927,,1774.6547,61,16,1775.6354,1775.6355,1775.6413,,,,0,4,4,4,1,130,85,,,,,,,,
,,645f83e73ef9ed597a1daf09,65af553e928510ff1336ce3e,2024-01-23_06h58.36.478,bars,2023.2.3,Win32,20,657b66ea316d21385b68909f,,,,,,,,,,,1775.6414,1776.6273,,,1777.085,1777.3205,,49,49,,,,,,,,,,,,,,,,bars/025.png,bars/mask005.png,,,,,,,,,,,,7,2,,,,,,,8,10,8,10,,,,,,,,,,,1776.6273,1777.085,1777.3205,1782.6012,space,5.2104,,1782.6012,56,9,1783.584,1783.5841,1783.5902,,,,0,5,5,5,1,105,40,,,,,,,,
,,645f83e73ef9ed597a1daf09,65af553e928510ff1336ce3e,2024-01-23_06h58.36.478,bars,2023.2.3,Win32,20,657b66ea316d21385b68909f,,,,,,,,,,,1783.5903,1784.5674,,,1785.0592,1785.3077,,61,61,,,,,,,,,,,,,,,,bars/007.png,bars/mask002.png,,,,,,,,,,,,8,2,,,,,,,10,10,10,10,,,,,,,,,,,1784.5674,1785.0591,1785.3078,1790.4939,space,5.1306,,1790.4939,66,6,1791.4797,1791.4797,1791.4854,,,,0,6,6,6,1,175,55,,,,,,,,
,,645f83e73ef9ed597a1daf09,65af553e928510ff1336ce3e,2024-01-23_06h58.36.478,bars,2023.2.3,Win32,20,657b66ea316d21385b68909f,,,,,,,,,,,1791.4854,1792.4449,,,1792.9583,1793.2241,,175,175,,,,,,,,,,,,,,,,bars/016.png,bars/mask007.png,,,,,,,,,,,,7,2,,,,,,,8,10,7,10,,,,,,,,,,,1792.4449,1792.9582,1793.2241,1795.8165,space,2.5369,,1795.8165,45,10,1796.7729,1796.7729,1796.7734,,,,0,7,7,7,1,40,165,,,,,,,,
,,645f83e73ef9ed597a1daf09,65af553e928510ff1336ce3e,2024-01-23_06h58.36.478,bars,2023.2.3,Win32,20,657b66ea316d21385b68909f,,,,,,,,,,,1796.7736,1797.7822,,,1798.2849,1798.5428,,96,96,,,,,,,,,,,,,,,,bars/018.png,bars/mask008.png,,,,,,,,,,,,8,2,,,,,,,6,10,6,10,,,,,,,,,,,1797.7822,1798.2848,1798.5428,1799.7641,space,1.1733,,1799.7641,54,6,1800.714,1800.714,1800.7145,,,,0,8,8,8,1,150,90,,,,,,,,
,,645f83e73ef9ed597a1daf09,65af553e928510ff1336ce3e,2024-01-23_06h58.36.478,bars,2023.2.3,Win32,20,657b66ea316d21385b68909f,,,,,,,,,,,1800.7147,1801.7102,,,1802.2009,1802.4539,,101,101,,,,,,,,,,,,,,,,bars/019.png,bars/mask003.png,,,,,,,,,,,,7,2,,,,,,,8,8,8,8,,,,,,,,,,,1801.7102,1802.2009,1802.4539,1805.467,space,2.9634,,1805.467,56,4,1806.4495,1806.4495,1806.45,,,,0,9,9,9,1,45,105,,,,,,,,
,,645f83e73ef9ed597a1daf09,65af553e928510ff1336ce3e,2024-01-23_06h58.36.478,bars,2023.2.3,Win32,20,657b66ea316d21385b68909f,,,,,,,,,,,1806.4502,1807.4234,,,1807.9276,1808.1726,,178,178,,,,,,,,,,,,,,,,bars/024.png,bars/mask000.png,,,,,,,,,,,,7,2,,,,,,,6,10,4,10,,,,,,,,,,,1807.4234,1807.9276,1808.1727,1810.4794,space,2.2643,,1810.4795,58,8,1811.491,1811.4911,1811.4916,,,,0,10,10,10,1,120,170,,,,,,,,
,,645f83e73ef9ed597a1daf09,65af553e928510ff1336ce3e,2024-01-23_06h58.36.478,bars,2023.2.3,Win32,20,657b66ea316d21385b68909f,,,,,,,,,,,1811.4916,1812.4707,,,1812.9448,1813.2053,,168,168,,,,,,,,,,,,,,,,bars/020.png,bars/mask005.png,,,,,,,,,,,,9,2,,,,,,,4,8,3,10,,,,,,,,,,,1812.4708,1812.9448,1813.2053,1818.1651,space,4.9017,,1818.1651,53,2,1819.1438,1819.1439,1819.1444,,,,0,11,11,11,1,115,170,,,,,,,,
,,645f83e73ef9ed597a1daf09,65af553e928510ff1336ce3e,2024-01-23_06h58.36.478,bars,2023.2.3,Win32,20,657b66ea316d21385b68909f,,,,,,,,,,,1819.1445,1820.1233,,,1820.5757,1820.8356,,48,48,,,,,,,,,,,,,,,,bars/007.png,bars/mask006.png,,,,,,,,,,,,4,2,,,,,,,6,6,6,5,,,,,,,,,,,1820.1234,1820.5756,1820.8357,1823.6783,space,2.7866,,1823.6783,53,7,1824.6758,1824.6758,1824.6763,,,,0,12,12,12,1,175,55,,,,,,,,
,,645f83e73ef9ed597a1daf09,65af553e928510ff1336ce3e,2024-01-23_06h58.36.478,bars,2023.2.3,Win32,20,657b66ea316d21385b68909f,,,,,,,,,,,1824.6765,1825.6407,,,1826.1426,1826.4061,,103,103,,,,,,,,,,,,,,,,bars/011.png,bars/mask006.png,,,,,,,,,,,,3,2,,,,,,,8,8,7,7,,,,,,,,,,,1825.6407,1826.1425,1826.4061,1829.803,space,3.3482,,1829.803,57,18,1830.7985,1830.7986,1830.7991,,,,0,13,13,13,1,160,85,,,,,,,,
,,645f83e73ef9ed597a1daf09,65af553e928510ff1336ce3e,2024-01-23_06h58.36.478,bars,2023.2.3,Win32,20,657b66ea316d21385b68909f,,,,,,,,,,,1830.7992,1831.8057,,,1832.3059,1832.5556,,97,97,,,,,,,,,,,,,,,,bars/011.png,bars/mask007.png,,,,,,,,,,,,6,2,,,,,,,6,10,6,10,,,,,,,,,,,1831.8057,1832.3058,1832.5556,1835.6905,space,3.0906,,1835.6905,63,12,1836.6939,1836.6939,1836.6944,,,,0,14,14,14,1,160,85,,,,,,,,
,,645f83e73ef9ed597a1daf09,65af553e928510ff1336ce3e,2024-01-23_06h58.36.478,bars,2023.2.3,Win32,20,657b66ea316d21385b68909f,,,,,,,,,,,1836.6945,1837.691,,,1838.1626,1838.4228,,79,79,,,,,,,,,,,,,,,,bars/029.png,bars/mask000.png,,,,,,,,,,,,3,1,,,,,,,4,10,5,10,,,,,,,,,,,1837.691,1838.1626,1838.4229,1844.6817,space,6.1997,,1844.6818,11,34,1845.662,1845.662,1845.6631,,,,0,15,15,15,1,90,45,,,,,,,,
,,645f83e73ef9ed597a1daf09,65af553e928510ff1336ce3e,2024-01-23_06h58.36.478,bars,2023.2.3,Win32,20,657b66ea316d21385b68909f,,,,,,,,,,,1845.6633,1846.6319,,,1847.1364,1847.3536,,151,151,,,,,,,,,,,,,,,,bars/000.png,bars/mask003.png,,,,,,,,,,,,6,2,,,,,,,2,8,3,7,,,,,,,,,,,1846.6319,1847.1363,1847.3536,1852.5688,space,5.1599,,1852.5689,69,6,1853.545,1853.5451,1853.5463,,,,0,16,16,16,1,40,145,,,,,,,,
,,645f83e73ef9ed597a1daf09,65af553e928510ff1336ce3e,2024-01-23_06h58.36.478,bars,2023.2.3,Win32,20,657b66ea316d21385b68909f,,,,,,,,,,,1853.5464,1854.5273,,,1854.9957,1855.2533,,107,107,,,,,,,,,,,,,,,,bars/023.png,bars/mask009.png,,,,,,,,,,,,5,2,,,,,,,4,6,4,7,,,,,,,,,,,1854.5274,1854.9957,1855.2533,1856.9567,space,1.6453,,1856.9567,87,8,1857.9249,1857.9249,1857.9256,,,,0,17,17,17,1,20,115,,,,,,,,
,,645f83e73ef9ed597a1daf09,65af553e928510ff1336ce3e,2024-01-23_06h58.36.478,bars,2023.2.3,Win32,20,657b66ea316d21385b68909f,,,,,,,,,,,1857.9257,1858.9242,,,1859.3793,1859.6331,,12,192,,,,,,,,,,,,,,,,bars/036.png,bars/mask006.png,,,,,,,,,,,,4,2,,,,,,,6,4,6,5,,,,,,,,,,,1858.9243,1859.3793,1859.6331,1865.7159,space,6.0348,,1865.716,47,8,1866.7294,1866.7295,1866.73,,,,0,18,18,18,1,145,20,,,,,,,,
,,645f83e73ef9ed597a1daf09,65af553e928510ff1336ce3e,2024-01-23_06h58.36.478,bars,2023.2.3,Win32,20,657b66ea316d21385b68909f,,,,,,,,,,,1866.7301,1867.7252,,,1868.1826,1868.4352,,167,167,,,,,,,,,,,,,,,,bars/048.png,bars/mask006.png,,,,,,,,,,,,2,2,,,,,,,4,2,3,3,,,,,,,,,,,1867.7253,1868.1826,1868.4353,1871.9005,space,3.4089,,1871.9006,63,8,1872.869,1872.8691,1872.8697,,,,0,19,19,19,1,50,175,,,,,,,,
,,645f83e73ef9ed597a1daf09,65af553e928510ff1336ce3e,2024-01-23_06h58.36.478,bars,2023.2.3,Win32,20,657b66ea316d21385b68909f,,,,,,,,,,,1872.8699,1873.8781,,,1874.3849,1874.6329,,166,166,,,,,,,,,,,,,,,,bars/021.png,bars/mask007.png,,,,,,,,,,,,1,1,,,,,,,2,0,1,0,,,,,,,,,,,1873.8781,1874.3849,1874.633,1877.2446,space,2.5663,,1877.2446,11,84,1878.2206,1878.2206,1878.2217,,,,0,20,20,20,1,155,70,,,,,,,,
,,645f83e73ef9ed597a1daf09,65af553e928510ff1336ce3e,2024-01-23_06h58.36.478,bars,2023.2.3,Win32,20,657b66ea316d21385b68909f,,,,,,,,,,,1878.2217,1879.2366,,,1879.6995,1879.9604,,154,154,,,,,,,,,,,,,,,,bars/002.png,bars/mask009.png,,,,,,,,,,,,1,1,,,,,,,4,0,5,0,,,,,,,,,,,1879.2367,1879.6995,1879.9604,1881.0209,space,1.0052,,1881.021,24,69,1881.9952,1881.9952,1881.9958,,,,0,21,21,21,1,130,85,,,,,,,,
,,645f83e73ef9ed597a1daf09,65af553e928510ff1336ce3e,2024-01-23_06h58.36.478,bars,2023.2.3,Win32,20,657b66ea316d21385b68909f,,,,,,,,,,,1881.996,1882.983,,,1883.4856,1883.7483,,173,173,,,,,,,,,,,,,,,,bars/008.png,bars/mask005.png,,,,,,,,,,,,0,2,,,,,,,6,0,5,0,,,,,,,,,,,1882.983,1883.4856,1883.7483,1888.9522,space,5.1336,,1888.9522,63,7,1889.9282,1889.9282,1889.9363,,,,0,22,22,22,1,110,0,,,,,,,,
,,645f83e73ef9ed597a1daf09,65af553e928510ff1336ce3e,2024-01-23_06h58.36.478,bars,2023.2.3,Win32,20,657b66ea316d21385b68909f,,,,,,,,,,,1889.9365,1890.9167,,,1891.4137,1891.6323,,109,109,,,,,,,,,,,,,,,,bars/049.png,bars/mask000.png,,,,,,,,,,,,0,2,,,,,,,8,0,8,0,,,,,,,,,,,1890.9168,1891.4136,1891.6323,1893.817,space,2.1333,,1893.8171,51,6,1894.7931,1894.7932,1894.7937,,,,0,23,23,23,1,160,115,,,,,,,,
,,645f83e73ef9ed597a1daf09,65af553e928510ff1336ce3e,2024-01-23_06h58.36.478,bars,2023.2.3,Win32,20,657b66ea316d21385b68909f,,,,,,,,,,,1894.7939,1895.8032,,,1896.274,1896.5314,,45,45,,,,,,,,,,,,,,,,bars/048.png,bars/mask004.png,,,,,,,,,,,,8,1,,,,,,,10,0,10,2,,,,,,,,,,,1895.8032,1896.274,1896.5314,1898.7438,space,2.1528,,1898.7438,5,50,1899.7253,1899.7253,1899.7334,,,,0,24,24,24,1,50,175,,,,,,,,
,,645f83e73ef9ed597a1daf09,65af553e928510ff1336ce3e,2024-01-23_06h58.36.478,bars,2023.2.3,Win32,20,657b66ea316d21385b68909f,,,,,,,,,,,1899.7335,1900.7217,,,1901.2033,1901.4549,,28,28,,,,,,,,,,,,,,,,bars/016.png,bars/mask007.png,,,,,,,,,,,,6,1,,,,,,,10,2,10,3,,,,,,,,,,,1900.7217,1901.2032,1901.4549,1907.187,space,5.6838,,1907.1871,12,43,1908.158,1908.158,1908.164,,,,0,25,25,25,1,40,165,,,,,,,,
,,645f83e73ef9ed597a1daf09,65af553e928510ff1336ce3e,2024-01-23_06h58.36.478,bars,2023.2.3,Win32,20,657b66ea316d21385b68909f,,,,,,,,,,,1908.1641,1909.1412,,,1909.6352,1909.8922,,115,115,,,,,,,,,,,,,,,,bars/025.png,bars/mask005.png,,,,,,,,,,,,5,1,,,,,,,8,4,7,3,,,,,,,,,,,1909.1412,1909.6351,1909.8922,1914.0537,space,4.1051,,1914.0537,10,75,1915.033,1915.033,1915.0338,,,,0,26,26,26,1,105,40,,,,,,,,
,,645f83e73ef9ed597a1daf09,65af553e928510ff1336ce3e,2024-01-23_06h58.36.478,bars,2023.2.3,Win32,20,657b66ea316d21385b68909f,,,,,,,,,,,1915.034,1916.0051,,,1916.4666,1916.7452,,159,159,,,,,,,,,,,,,,,,bars/049.png,bars/mask004.png,,,,,,,,,,,,7,1,,,,,,,6,2,7,2,,,,,,,,,,,1916.0052,1916.4666,1916.7452,1922.6426,space,5.8365,,1922.6426,1,44,1923.6485,1923.6485,1923.6491,,,,0,27,27,27,1,160,115,,,,,,,,
,,645f83e73ef9ed597a1daf09,65af553e928510ff1336ce3e,2024-01-23_06h58.36.478,bars,2023.2.3,Win32,20,657b66ea316d21385b68909f,,,,,,,,,,,1923.6492,1924.6397,,,1925.1316,1925.3821,,154,154,,,,,,,,,,,,,,,,bars/038.png,bars/mask005.png,,,,,,,,,,,,2,1,,,,,,,4,0,3,1,,,,,,,,,,,1924.6397,1925.1316,1925.3822,1930.713,space,5.2803,,1930.713,11,84,1931.7152,1931.7152,1931.7158,,,,0,28,28,28,1,165,70,,,,,,,,
,,645f83e73ef9ed597a1daf09,65af553e928510ff1336ce3e,2024-01-23_06h58.36.478,bars,2023.2.3,Win32,20,657b66ea316d21385b68909f,,,,,,,,,,,1931.7159,1932.6841,,,1933.1446,1933.4051,,108,108,,,,,,,,,,,,,,,,bars/020.png,bars/mask008.png,,,,,,,,,,,,5,1,,,,,,,6,2,6,1,,,,,,,,,,,1932.6841,1933.1445,1933.4052,1963.2519,space,29.8029,,1963.2519,7,62,1964.2302,1964.2302,1964.2367,,,,0,29,29,29,1,115,170,,,,,,,,
,,645f83e73ef9ed597a1daf09,65af553e928510ff1336ce3e,2024-01-23_06h58.36.478,bars,2023.2.3,Win32,20,657b66ea316d21385b68909f,,,,,,,,,,,1964.2368,1965.2211,,,1965.6803,1965.9398,,149,149,,,,,,,,,,,,,,,,bars/003.png,bars/mask006.png,,,,,,,,,,,,1,2,,,,,,,4,0,2,1,,,,,,,,,,,1965.2211,1965.6803,1965.9398,1973.1664,space,7.1599,,1973.1665,56,9,1974.137,1974.137,1974.1441,,,,0,30,30,30,1,25,140,,,,,,,,
,,645f83e73ef9ed597a1daf09,65af553e928510ff1336ce3e,2024-01-23_06h58.36.478,bars,2023.2.3,Win32,20,657b66ea316d21385b68909f,,,,,,,,,,,1974.1442,1975.1167,,,1975.6362,1975.8971,,46,46,,,,,,,,,,,,,,,,bars/019.png,bars/mask005.png,,,,,,,,,,,,1,1,,,,,,,2,2,1,3,,,,,,,,,,,1975.1167,1975.6362,1975.8971,1977.2546,space,1.3017,,1977.2547,1,59,1978.2405,1978.2405,1978.2415,,,,0,31,31,31,1,45,105,,,,,,,,
,,645f83e73ef9ed597a1daf09,65af553e928510ff1336ce3e,2024-01-23_06h58.36.478,bars,2023.2.3,Win32,20,657b66ea316d21385b68909f,,,,,,,,,,,1978.2415,1979.2412,,,1979.7524,1980,,107,107,,,,,,,,,,,,,,,,bars/032.png,bars/mask004.png,,,,,,,,,,,,1,1,,,,,,,4,4,3,4,,,,,,,,,,,1979.2412,1979.7524,1980.0001,1985.8686,space,5.8041,,1985.8686,18,87,1986.8438,1986.8438,1986.8443,,,,0,32,32,32,1,125,20,,,,,,,,
,,645f83e73ef9ed597a1daf09,65af553e928510ff1336ce3e,2024-01-23_06h58.36.478,bars,2023.2.3,Win32,20,657b66ea316d21385b68909f,,,,,,,,,,,1986.8445,1987.8168,,,1988.323,1988.5698,,174,-6,,,,,,,,,,,,,,,,bars/024.png,bars/mask005.png,,,,,,,,,,,,3,2,,,,,,,6,6,4,4,,,,,,,,,,,1987.8168,1988.3229,1988.5698,1993.03,space,4.4039,,1993.03,54,4,1994.0375,1994.0375,1994.0441,,,,0,33,33,33,1,120,170,,,,,,,,
,,645f83e73ef9ed597a1daf09,65af553e928510ff1336ce3e,2024-01-23_06h58.36.478,bars,2023.2.3,Win32,20,657b66ea316d21385b68909f,,,,,,,,,,,1994.0441,1995.0266,,,1995.5193,1995.7374,,169,169,,,,,,,,,,,,,,,,bars/020.png,bars/mask006.png,,,,,,,,,,,,8,2,,,,,,,4,8,4,8,,,,,,,,,,,1995.0266,1995.5193,1995.7374,2005.2477,space,9.4512,,2005.2478,54,1,2006.2314,2006.2314,2006.2391,,,,0,34,34,34,1,115,170,,,,,,,,
,,645f83e73ef9ed597a1daf09,65af553e928510ff1336ce3e,2024-01-23_06h58.36.478,bars,2023.2.3,Win32,20,657b66ea316d21385b68909f,,,,,,,,,,,2006.2393,2007.2325,,,2007.7034,2007.9504,,16,16,,,,,,,,,,,,,,,,bars/013.png,bars/mask004.png,,,,,,,,,,,,7,2,,,,,,,2,10,1,9,,,,,,,,,,,2007.2325,2007.7033,2007.9504,2011.3676,space,3.3718,,2011.3676,59,6,2012.3649,2012.3649,2012.3709,,,,0,35,35,35,1,75,10,,,,,,,,
,,645f83e73ef9ed597a1daf09,65af553e928510ff1336ce3e,2024-01-23_06h58.36.478,bars,2023.2.3,Win32,20,657b66ea316d21385b68909f,,,,,,,,,,,2012.371,2013.3691,,,2013.8828,2014.142,,0,180,,,,,,,,,,,,,,,,bars/033.png,bars/mask000.png,,,,,,,,,,,,1,2,,,,,,,4,8,3,8,,,,,,,,,,,2013.3691,2013.8827,2014.142,2022.3418,space,8.1423,,2022.3418,25,25,2023.3358,2023.3359,2023.3436,,,,0,36,36,36,1,25,155,,,,,,,,
,,645f83e73ef9ed597a1daf09,65af553e928510ff1336ce3e,2024-01-23_06h58.36.478,bars,2023.2.3,Win32,20,657b66ea316d21385b68909f,,,,,,,,,,,2023.3437,2024.3307,,,2024.8085,2025.0591,,71,71,,,,,,,,,,,,,,,,bars/034.png,bars/mask009.png,,,,,,,,,,,,4,2,,,,,,,2,6,2,5,,,,,,,,,,,2024.3307,2024.8085,2025.0591,2028.7128,space,3.6083,,2028.7128,54,6,2029.7022,2029.7023,2029.7097,,,,0,37,37,37,1,125,65,,,,,,,,
,,645f83e73ef9ed597a1daf09,65af553e928510ff1336ce3e,2024-01-23_06h58.36.478,bars,2023.2.3,Win32,20,657b66ea316d21385b68909f,,,,,,,,,,,2029.7098,2030.7034,,,2031.1607,2031.4124,,97,97,,,,,,,,,,,,,,,,bars/018.png,bars/mask002.png,,,,,,,,,,,,8,2,,,,,,,4,8,4,10,,,,,,,,,,,2030.7034,2031.1606,2031.4124,2035.5327,space,4.0738,,2035.5328,53,7,2036.5334,2036.5335,2036.5409,,,,0,38,38,38,1,150,90,,,,,,,,
,,645f83e73ef9ed597a1daf09,65af553e928510ff1336ce3e,2024-01-23_06h58.36.478,bars,2023.2.3,Win32,20,657b66ea316d21385b68909f,,,,,,,,,,,2036.541,2037.4884,,,2037.994,2038.2375,,158,158,,,,,,,,,,,,,,,,bars/015.png,bars/mask002.png,,,,,,,,,,,,5,2,,,,,,,2,6,2,5,,,,,,,,,,,2037.4884,2037.994,2038.2375,2039.4076,space,1.1236,,2039.4076,48,2,2040.3924,2040.3925,2040.393,,,,0,39,39,39,1,110,160,,,,,,,,
,,645f83e73ef9ed597a1daf09,65af553e928510ff1336ce3e,2024-01-23_06h58.36.478,bars,2023.2.3,Win32,20,657b66ea316d21385b68909f,,,,,,,,,,,2040.3932,2041.4224,,,2041.9218,2042.1683,,80,80,,,,,,,,,,,,,,,,bars/046.png,bars/mask001.png,,,,,,,,,,,,6,2,,,,,,,4,8,2,7,,,,,,,,,,,2041.4224,2041.9217,2042.1683,2047.5639,space,5.3497,,2047.5639,75,5,2048.5665,2048.5665,2048.5726,,,,0,40,40,40,1,155,85,,,,,,,,
,,645f83e73ef9ed597a1daf09,65af553e928510ff1336ce3e,2024-01-23_06h58.36.478,bars,2023.2.3,Win32,20,657b66ea316d21385b68909f,,,,,,,,,,,2048.5727,2049.5541,,,2050.0264,2050.2855,,96,96,,,,,,,,,,,,,,,,bars/041.png,bars/mask004.png,,,,,,,,,,,,6,2,,,,,,,6,10,5,10,,,,,,,,,,,2049.5542,2050.0263,2050.2856,2051.6439,space,1.2998,,2051.6441,76,11,2052.6321,2052.6321,2052.6327,,,,0,41,41,41,1,20,85,,,,,,,,
,,645f83e73ef9ed597a1daf09,65af553e928510ff1336ce3e,2024-01-23_06h58.36.478,bars,2023.2.3,Win32,20,657b66ea316d21385b68909f,,,,,,,,,,,2052.6327,2053.6398,,,2054.1376,2054.4085,,16,16,,,,,,,,,,,,,,,,bars/022.png,bars/mask004.png,,,,,,,,,,,,9,2,,,,,,,8,8,8,10,,,,,,,,,,,2053.6398,2054.1376,2054.4086,2057.1378,space,2.6712,,2057.1379,79,4,2058.1399,2058.1399,2058.1475,,,,0,42,42,42,1,95,20,,,,,,,,
,,645f83e73ef9ed597a1daf09,65af553e928510ff1336ce3e,2024-01-23_06h58.36.478,bars,2023.2.3,Win32,20,657b66ea316d21385b68909f,,,,,,,,,,,2058.1477,2059.1481,,,2059.6258,2059.8383,,68,68,,,,,,,,,,,,,,,,bars/042.png,bars/mask002.png,,,,,,,,,,,,5,2,,,,,,,10,6,10,6,,,,,,,,,,,2059.1481,2059.6258,2059.8383,2063.4193,space,3.5332,,2063.4193,77,7,2064.3903,2064.3904,2064.398,,,,0,43,43,43,1,145,75,,,,,,,,
,,645f83e73ef9ed597a1daf09,65af553e928510ff1336ce3e,2024-01-23_06h58.36.478,bars,2023.2.3,Win32,20,657b66ea316d21385b68909f,,,,,,,,,,,2064.3981,2065.4097,,,2065.9089,2066.1493,,163,163,,,,,,,,,,,,,,,,bars/015.png,bars/mask007.png,,,,,,,,,,,,5,2,,,,,,,8,4,10,5,,,,,,,,,,,2065.4097,2065.9088,2066.1493,2072.7247,space,6.524,,2072.7247,53,3,2073.7047,2073.7047,2073.7114,,,,0,44,44,44,1,110,160,,,,,,,,
,,645f83e73ef9ed597a1daf09,65af553e928510ff1336ce3e,2024-01-23_06h58.36.478,bars,2023.2.3,Win32,20,657b66ea316d21385b68909f,,,,,,,,,,,2073.7114,2074.7425,,,2075.2279,2075.4536,,144,144,,,,,,,,,,,,,,,,bars/044.png,bars/mask007.png,,,,,,,,,,,,1,2,,,,,,,6,2,7,2,,,,,,,,,,,2074.7426,2075.2279,2075.4536,2080.0197,space,4.4939,,2080.0197,69,11,2081.0055,2081.0055,2081.0115,,,,0,45,45,45,1,75,155,,,,,,,,
,,645f83e73ef9ed597a1daf09,65af553e928510ff1336ce3e,2024-01-23_06h58.36.478,bars,2023.2.3,Win32,20,657b66ea316d21385b68909f,,,,,,,,,,,2081.0116,2082.0173,,,2082.5144,2082.7106,,124,124,,,,,,,,,,,,,,,,bars/037.png,bars/mask007.png,,,,,,,,,,,,0,2,,,,,,,4,0,5,0,,,,,,,,,,,2082.0173,2082.5143,2082.7106,2088.0344,space,5.2667,,2088.0344,26,19,2088.9875,2088.9875,2088.9953,,,,0,46,46,46,1,150,105,,,,,,,,
,,645f83e73ef9ed597a1daf09,65af553e928510ff1336ce3e,2024-01-23_06h58.36.478,bars,2023.2.3,Win32,20,657b66ea316d21385b68909f,,,,,,,,,,,2088.9954,2089.9834,,,2090.4611,2090.667,,141,141,,,,,,,,,,,,,,,,bars/044.png,bars/mask005.png,,,,,,,,,,,,1,2,,,,,,,2,2,2,2,,,,,,,,,,,2089.9834,2090.4611,2090.667,2094.3582,space,3.6454,,2094.3582,66,14,2095.3385,2095.3386,2095.3391,,,,0,47,47,47,1,75,155,,,,,,,,
,,645f83e73ef9ed597a1daf09,65af553e928510ff1336ce3e,2024-01-23_06h58.36.478,bars,2023.2.3,Win32,20,657b66ea316d21385b68909f,,,,,,,,,,,2095.3392,2096.3139,,,2096.8263,2097.0812,,158,-22,,,,,,,,,,,,,,,,bars/017.png,bars/mask004.png,,,,,,,,,,,,1,1,,,,,,,0,4,1,5,,,,,,,,,,,2096.3139,2096.8263,2097.0813,2103.4717,space,6.3235,,2103.4717,13,67,2104.437,2104.437,2104.4448,,,,0,48,48,48,1,145,45,,,,,,,,
,,645f83e73ef9ed597a1daf09,65af553e928510ff1336ce3e,2024-01-23_06h58.36.478,bars,2023.2.3,Win32,20,657b66ea316d21385b68909f,,,,,,,,,,,2104.4449,2105.4147,,,2105.9098,2106.1482,,105,105,,,,,,,,,,,,,,,,bars/029.png,bars/mask004.png,,,,,,,,,,,,2,1,,,,,,,2,2,3,2,,,,,,,,,,,2105.4147,2105.9098,2106.1482,2109.0441,space,2.8357,,2109.0441,15,60,2110.0494,2110.0494,2110.057,,,,0,49,49,49,1,90,45,,,,,,,,
,,645f83e73ef9ed597a1daf09,65af553e928510ff1336ce3e,2024-01-23_06h58.36.478,bars,2023.2.3,Win32,20,657b66ea316d21385b68909f,,,,,,,,,,,,,,,,,,,,,,,,,,,,,,,,,,,,,,,,,,,,,,,,,,,,,,,,,,,,,,,,,,,,,,,,,,,,,,,,,,,,,,,,,,,,,2110.0571,2193.0212,0,3,3,2,1,sequence_tables/blk028.csv
,,645f83e73ef9ed597a1daf09,65af553e928510ff1336ce3e,2024-01-23_06h58.36.478,bars,2023.2.3,Win32,20,657b66ea316d21385b68909f,,,,,,,,,,,2194.0484,2195.0153,,,2195.5136,2195.7545,,78,78,,,,,,,,,,,,,,,,bars/029.png,bars/mask002.png,,,,,,,,,,,,3,1,,,,,,,2,3,5,3,,,,,,2193.0272,2194.0465,space,0.9689,,2195.0153,2195.5136,2195.7545,2199.2777,space,3.478,,2199.2777,12,33,2200.2743,2200.2743,2200.2748,,,,0,0,0,0,1,90,45,,,,,,,,
,,645f83e73ef9ed597a1daf09,65af553e928510ff1336ce3e,2024-01-23_06h58.36.478,bars,2023.2.3,Win32,20,657b66ea316d21385b68909f,,,,,,,,,,,2200.275,2201.2601,,,2201.7591,2202.0102,,122,122,,,,,,,,,,,,,,,,bars/023.png,bars/mask009.png,,,,,,,,,,,,1,2,,,,,,,4,1,3,1,,,,,,,,,,,2201.2601,2201.759,2202.0102,2204.6176,space,2.5588,,2204.6177,78,7,2205.6201,2205.6201,2205.6212,,,,0,1,1,1,1,20,115,,,,,,,,
,,645f83e73ef9ed597a1daf09,65af553e928510ff1336ce3e,2024-01-23_06h58.36.478,bars,2023.2.3,Win32,20,657b66ea316d21385b68909f,,,,,,,,,,,2205.6213,2206.6139,,,2207.0783,2207.328,,136,-44,,,,,,,,,,,,,,,,bars/031.png,bars/mask008.png,,,,,,,,,,,,2,1,,,,,,,6,0,5,0,,,,,,,,,,,2206.6139,2207.0782,2207.328,2212.7679,space,5.3954,,2212.7679,16,79,2213.7363,2213.7363,2213.743,,,,0,2,2,2,1,120,35,,,,,,,,
,,645f83e73ef9ed597a1daf09,65af553e928510ff1336ce3e,2024-01-23_06h58.36.478,bars,2023.2.3,Win32,20,657b66ea316d21385b68909f,,,,,,,,,,,2213.7431,2214.7157,,,2215.1822,2215.3851,,117,117,,,,,,,,,,,,,,,,bars/028.png,bars/mask008.png,,,,,,,,,,,,2,2,,,,,,,4,2,4,2,,,,,,,,,,,2214.7157,2215.1821,2215.3851,2217.7508,space,2.3078,,2217.7508,72,3,2218.7243,2218.7244,2218.7253,,,,0,3,3,3,1,45,120,,,,,,,,
,,645f83e73ef9ed597a1daf09,65af553e928510ff1336ce3e,2024-01-23_06h58.36.478,bars,2023.2.3,Win32,20,657b66ea316d21385b68909f,,,,,,,,,,,2218.7254,2219.7336,,,2220.2215,2220.466,,103,103,,,,,,,,,,,,,,,,bars/009.png,bars/mask005.png,,,,,,,,,,,,4,2,,,,,,,6,4,6,4,,,,,,,,,,,2219.7337,2220.2215,2220.466,2225.0605,space,4.5524,,2225.0605,88,2,2226.0539,2226.0539,2226.0544,,,,0,4,4,4,1,15,105,,,,,,,,
,,645f83e73ef9ed597a1daf09,65af553e928510ff1336ce3e,2024-01-23_06h58.36.478,bars,2023.2.3,Win32,20,657b66ea316d21385b68909f,,,,,,,,,,,2226.0545,2227.0094,,,2227.4851,2227.7155,,1,1,,,,,,,,,,,,,,,,bars/014.png,bars/mask001.png,,,,,,,,,,,,2,2,,,,,,,4,2,3,2,,,,,,,,,,,2227.0094,2227.485,2227.7155,2230.518,space,2.7582,,2230.518,79,1,2231.5011,2231.5011,2231.5016,,,,0,5,5,5,1,80,0,,,,,,,,
,,645f83e73ef9ed597a1daf09,65af553e928510ff1336ce3e,2024-01-23_06h58.36.478,bars,2023.2.3,Win32,20,657b66ea316d21385b68909f,,,,,,,,,,,2231.5018,2232.4851,,,2232.9898,2233.2438,,16,196,,,,,,,,,,,,,,,,bars/007.png,bars/mask004.png,,,,,,,,,,,,1,1,,,,,,,2,4,2,5,,,,,,,,,,,2232.4852,2232.9898,2233.2439,2236.26,space,2.9738,,2236.2601,21,39,2237.2757,2237.2758,2237.2769,,,,0,6,6,6,1,175,55,,,,,,,,
,,645f83e73ef9ed597a1daf09,65af553e928510ff1336ce3e,2024-01-23_06h58.36.478,bars,2023.2.3,Win32,20,657b66ea316d21385b68909f,,,,,,,,,,,2237.2769,2238.2337,,,2238.7125,2238.9712,,64,64,,,,,,,,,,,,,,,,bars/034.png,bars/mask002.png,,,,,,,,,,,,2,2,,,,,,,4,2,5,2,,,,,,,,,,,2238.2337,2238.7125,2238.9712,2240.7266,space,1.7071,,2240.7266,61,1,2241.7058,2241.7058,2241.7073,,,,0,7,7,7,1,125,65,,,,,,,,
,,645f83e73ef9ed597a1daf09,65af553e928510ff1336ce3e,2024-01-23_06h58.36.478,bars,2023.2.3,Win32,20,657b66ea316d21385b68909f,,,,,,,,,,,2241.7075,2242.6748,,,2243.1477,2243.4008,,151,-29,,,,,,,,,,,,,,,,bars/004.png,bars/mask004.png,,,,,,,,,,,,1,2,,,,,,,2,4,2,6,,,,,,,,,,,2242.6748,2243.1476,2243.4008,2247.0188,space,3.5609,,2247.0188,54,26,2247.9989,2247.9989,2247.9995,,,,0,8,8,8,1,25,125,,,,,,,,
,,645f83e73ef9ed597a1daf09,65af553e928510ff1336ce3e,2024-01-23_06h58.36.478,bars,2023.2.3,Win32,20,657b66ea316d21385b68909f,,,,,,,,,,,2247.9996,2248.9642,,,2249.4626,2249.683,,116,116,,,,,,,,,,,,,,,,bars/040.png,bars/mask005.png,,,,,,,,,,,,0,1,,,,,,,0,2,0,2,,,,,,,,,,,2248.9642,2249.4625,2249.683,2251.153,space,1.4258,,2251.1531,24,69,2252.1455,2252.1456,2252.1466,,,,0,9,9,9,1,140,5,,,,,,,,
,,645f83e73ef9ed597a1daf09,65af553e928510ff1336ce3e,2024-01-23_06h58.36.478,bars,2023.2.3,Win32,20,657b66ea316d21385b68909f,,,,,,,,,,,2252.1468,2253.1153,,,2253.6112,2253.8675,,143,143,,,,,,,,,,,,,,,,bars/001.png,bars/mask004.png,,,,,,,,,,,,0,1,,,,,,,0,4,0,5,,,,,,,,,,,2253.1153,2253.6112,2253.8675,2256.99,space,3.0656,,2256.99,13,58,2257.9863,2257.9863,2257.9868,,,,0,10,10,10,1,130,85,,,,,,,,
,,645f83e73ef9ed597a1daf09,65af553e928510ff1336ce3e,2024-01-23_06h58.36.478,bars,2023.2.3,Win32,20,657b66ea316d21385b68909f,,,,,,,,,,,2257.9869,2258.9926,,,2259.4994,2259.7561,,95,95,,,,,,,,,,,,,,,,bars/002.png,bars/mask008.png,,,,,,,,,,,,0,2,,,,,,,2,2,1,0,,,,,,,,,,,2258.9926,2259.4994,2259.7561,2280.8066,space,20.9999,,2280.8067,35,10,2281.7929,2281.793,2281.8002,,,,0,11,11,11,1,130,85,,,,,,,,
,,645f83e73ef9ed597a1daf09,65af553e928510ff1336ce3e,2024-01-23_06h58.36.478,bars,2023.2.3,Win32,20,657b66ea316d21385b68909f,,,,,,,,,,,2281.8003,2282.7827,,,2283.2527,2283.5185,,109,109,,,,,,,,,,,,,,,,bars/037.png,bars/mask005.png,,,,,,,,,,,,4,2,,,,,,,4,4,5,5,,,,,,,,,,,2282.7828,2283.2527,2283.5185,2286.0215,space,2.4421,,2286.0215,41,4,2287.0323,2287.0325,2287.041,,,,0,12,12,12,1,150,105,,,,,,,,
,,645f83e73ef9ed597a1daf09,65af553e928510ff1336ce3e,2024-01-23_06h58.36.478,bars,2023.2.3,Win32,20,657b66ea316d21385b68909f,,,,,,,,,,,2287.0411,2288.0212,,,2288.4781,2288.6807,,103,103,,,,,,,,,,,,,,,,bars/039.png,bars/mask004.png,,,,,,,,,,,,3,2,,,,,,,2,2,0,3,,,,,,,,,,,2288.0212,2288.478,2288.6807,2290.472,space,1.7488,,2290.4721,72,2,2291.4793,2291.4794,2291.4799,,,,0,13,13,13,1,175,105,,,,,,,,
,,645f83e73ef9ed597a1daf09,65af553e928510ff1336ce3e,2024-01-23_06h58.36.478,bars,2023.2.3,Win32,20,657b66ea316d21385b68909f,,,,,,,,,,,2291.4801,2292.4798,,,2292.973,2293.2271,,101,101,,,,,,,,,,,,,,,,bars/039.png,bars/mask006.png,,,,,,,,,,,,3,2,,,,,,,4,4,5,4,,,,,,,,,,,2292.4798,2292.9729,2293.2271,2296.8892,space,3.6013,,2296.8892,74,4,2297.8855,2297.8855,2297.886,,,,0,14,14,14,1,175,105,,,,,,,,
,,645f83e73ef9ed597a1daf09,65af553e928510ff1336ce3e,2024-01-23_06h58.36.478,bars,2023.2.3,Win32,20,657b66ea316d21385b68909f,,,,,,,,,,,2297.8861,2298.8978,,,2299.4004,2299.6435,,18,18,,,,,,,,,,,,,,,,bars/022.png,bars/mask002.png,,,,,,,,,,,,7,2,,,,,,,2,6,1,7,,,,,,,,,,,2298.8978,2299.4004,2299.6436,2301.598,space,1.8924,,2301.598,77,2,2302.592,2302.5921,2302.5927,,,,0,15,15,15,1,95,20,,,,,,,,
,,645f83e73ef9ed597a1daf09,65af553e928510ff1336ce3e,2024-01-23_06h58.36.478,bars,2023.2.3,Win32,20,657b66ea316d21385b68909f,,,,,,,,,,,2302.5928,2303.5674,,,2304.0869,2304.3404,,135,135,,,,,,,,,,,,,,,,bars/000.png,bars/mask006.png,,,,,,,,,,,,3,2,,,,,,,4,4,2,5,,,,,,,,,,,2303.5676,2304.0868,2304.3404,2310.6162,space,6.2144,,2310.6162,85,10,2311.62,2311.62,2311.6206,,,,0,16,16,16,1,40,145,,,,,,,,
,,645f83e73ef9ed597a1daf09,65af553e928510ff1336ce3e,2024-01-23_06h58.36.478,bars,2023.2.3,Win32,20,657b66ea316d21385b68909f,,,,,,,,,,,2311.6207,2312.6363,,,2313.1529,2313.3577,,17,17,,,,,,,,,,,,,,,,bars/032.png,bars/mask005.png,,,,,,,,,,,,2,2,,,,,,,6,2,5,2,,,,,,,,,,,2312.6363,2313.1529,2313.3577,2317.0518,space,3.6467,,2317.0518,72,3,2318.0587,2318.0588,2318.0593,,,,0,17,17,17,1,125,20,,,,,,,,
