init_variables.started,init_variables.stopped,participant,session,date,expName,psychopyVersion,OS,frameRate,study_id,instruction_exp.started,instruction_exp.stopped,key_resp_8.keys,key_resp_8.rt,key_resp_8.duration,instruction_single.started,instruction_single.stopped,key_resp_2.keys,key_resp_2.rt,key_resp_2.duration,interval.started,interval.stopped,cue_single.started,cue_single.stopped,mask.started,mask.stopped,ori_response_single.started,res_ori,res,ori_response_single.stopped,key_resp_single.keys,key_resp_single.rt,key_resp_single.duration,disp_single.started,disp_single.stopped,key_resp.keys,key_resp.rt,key_resp.duration,single.thisRepN,single.thisTrialN,single.thisN,single.thisIndex,single.ran,ori,path,mask_path,instruction_bandit.started,instruction_bandit.stopped,key_resp_6.keys,key_resp_6.rt,key_resp_6.duration,cue_bandit.started,cue_bandit.stopped,bandit_res.keys,bandit_res.rt,bandit_res.duration,outcome_bandit.started,rew,action,outcome_bandit.stopped,bandit.thisRepN,bandit.thisTrialN,bandit.thisN,bandit.thisIndex,bandit.ran,actual_rew1,actual_rew2,rew1,rew2,instruction_task.started,instruction_task.stopped,key_resp_7.keys,key_resp_7.rt,key_resp_7.duration,wait_ready.started,wait_ready.stopped,key_resp_3.keys,key_resp_3.rt,key_resp_3.duration,cue.started,cue.stopped,ori_response.started,ori_response.stopped,key_resp_5.keys,key_resp_5.rt,key_resp_5.duration,outcome.started,diff1,diff2,outcome.stopped,disp_outcome_practice.started,disp_outcome_practice.stopped,key_resp_4.keys,key_resp_4.rt,key_resp_4.duration,trials.thisRepN,trials.thisTrialN,trials.thisN,trials.thisIndex,trials.ran,ori1,ori2,break_blk.started,break_blk.stopped,block.thisRepN,block.thisTrialN,block.thisN,block.thisIndex,block.ran,condition_file
0.0004,0.0006,59cbe23a916c4d0001094710,65af546351c2a1f8263dc7f1,2024-01-23_06h54.08.365,bars,2023.2.3,Win32,59.88023952,657b66ea316d21385b68909f,,,,,,,,,,,,,,,,,,,,,,,,,,,,,,,,,,,,,,,,,,,,,,,,,,,,,,,,,,,,,,,,,,,,,,,,,,,,,,,,,,,,,,,,,,,,,,,,,,,,
,,59cbe23a916c4d0001094710,65af546351c2a1f8263dc7f1,2024-01-23_06h54.08.365,bars,2023.2.3,Win32,59.88023952,657b66ea316d21385b68909f,0.0007,117.0687,y,117.0564,,,,,,,,,,,,,,,,,,,,,,,,,,,,,,,,,,,,,,,,,,,,,,,,,,,,,,,,,,,,,,,,,,,,,,,,,,,,,,,,,,,,,,,,,,,,,,,,
,,59cbe23a916c4d0001094710,65af546351c2a1f8263dc7f1,2024-01-23_06h54.08.365,bars,2023.2.3,Win32,59.88023952,657b66ea316d21385b68909f,,,,,,117.0688,132.6585,space,15.5777,,,,,,,,,,,,,,,,,,,,,,,,,,,,,,,,,,,,,,,,,,,,,,,,,,,,,,,,,,,,,,,,,,,,,,,,,,,,,,,,,,,,,,,,,,,
,,59cbe23a916c4d0001094710,65af546351c2a1f8263dc7f1,2024-01-23_06h54.08.365,bars,2023.2.3,Win32,59.88023952,657b66ea316d21385b68909f,,,,,,,,,,,132.6636,133.6676,133.6677,134.1677,134.1678,134.4176,134.4178,0,0,141.1012,space,6.6626,,141.1015,151.5176,space,10.3893,,0,0,0,5,1,55,bars/single005.png,bars/mask008.png,,,,,,,,,,,,,,,,,,,,,,,,,,,,,,,,,,,,,,,,,,,,,,,,,,,,,,,,,,,,,,,,
,,59cbe23a916c4d0001094710,65af546351c2a1f8263dc7f1,2024-01-23_06h54.08.365,bars,2023.2.3,Win32,59.88023952,657b66ea316d21385b68909f,,,,,,,,,,,151.5269,152.5167,152.5169,153.0167,153.0168,153.2668,153.2668,0,180,162.1833,space,8.9034,,162.1833,164.7832,space,2.5735,,0,1,1,2,1,145,bars/single002.png,bars/mask003.png,,,,,,,,,,,,,,,,,,,,,,,,,,,,,,,,,,,,,,,,,,,,,,,,,,,,,,,,,,,,,,,,
,,59cbe23a916c4d0001094710,65af546351c2a1f8263dc7f1,2024-01-23_06h54.08.365,bars,2023.2.3,Win32,59.88023952,657b66ea316d21385b68909f,,,,,,,,,,,164.7838,165.783,165.783,166.283,166.283,166.5329,166.533,141,-39,172.4329,space,5.8931,,172.4329,179.3494,space,6.8973,,0,2,2,6,1,175,bars/single006.png,bars/mask005.png,,,,,,,,,,,,,,,,,,,,,,,,,,,,,,,,,,,,,,,,,,,,,,,,,,,,,,,,,,,,,,,,
,,59cbe23a916c4d0001094710,65af546351c2a1f8263dc7f1,2024-01-23_06h54.08.365,bars,2023.2.3,Win32,59.88023952,657b66ea316d21385b68909f,,,,,,,,,,,179.3585,180.3492,180.3493,180.8492,180.8492,181.0991,181.0992,53,53,187.1824,space,6.0707,,187.1825,191.9322,space,4.7311,,0,3,3,7,1,45,bars/single007.png,bars/mask009.png,,,,,,,,,,,,,,,,,,,,,,,,,,,,,,,,,,,,,,,,,,,,,,,,,,,,,,,,,,,,,,,,
,,59cbe23a916c4d0001094710,65af546351c2a1f8263dc7f1,2024-01-23_06h54.08.365,bars,2023.2.3,Win32,59.88023952,657b66ea316d21385b68909f,,,,,,,,,,,191.9413,192.932,192.932,193.4321,193.4321,193.6821,193.6821,0,0,198.3153,space,4.6168,,198.3154,202.2486,space,3.9074,,0,4,4,1,1,20,bars/single001.png,bars/mask006.png,,,,,,,,,,,,,,,,,,,,,,,,,,,,,,,,,,,,,,,,,,,,,,,,,,,,,,,,,,,,,,,,
,,59cbe23a916c4d0001094710,65af546351c2a1f8263dc7f1,2024-01-23_06h54.08.365,bars,2023.2.3,Win32,59.88023952,657b66ea316d21385b68909f,,,,,,,,,,,202.2577,203.2484,203.2485,203.7483,203.7484,203.9984,203.9985,101,101,207.515,space,3.5001,,207.5151,209.2651,space,1.7264,,0,5,5,4,1,95,bars/single004.png,bars/mask004.png,,,,,,,,,,,,,,,,,,,,,,,,,,,,,,,,,,,,,,,,,,,,,,,,,,,,,,,,,,,,,,,,
,,59cbe23a916c4d0001094710,65af546351c2a1f8263dc7f1,2024-01-23_06h54.08.365,bars,2023.2.3,Win32,59.88023952,657b66ea316d21385b68909f,,,,,,,,,,,209.2655,210.2648,210.2649,210.7648,210.7648,211.0148,211.0148,147,-33,215.0982,space,4.0672,,215.0982,216.1648,space,1.0466,,0,6,6,8,1,160,bars/single008.png,bars/mask004.png,,,,,,,,,,,,,,,,,,,,,,,,,,,,,,,,,,,,,,,,,,,,,,,,,,,,,,,,,,,,,,,,
,,59cbe23a916c4d0001094710,65af546351c2a1f8263dc7f1,2024-01-23_06h54.08.365,bars,2023.2.3,Win32,59.88023952,657b66ea316d21385b68909f,,,,,,,,,,,216.1652,217.1645,217.1646,217.6646,217.6647,217.9145,217.9145,23,203,221.4146,space,3.4865,,221.4146,221.9811,space,0.5469,,0,7,7,3,1,20,bars/single003.png,bars/mask005.png,,,,,,,,,,,,,,,,,,,,,,,,,,,,,,,,,,,,,,,,,,,,,,,,,,,,,,,,,,,,,,,,
,,59cbe23a916c4d0001094710,65af546351c2a1f8263dc7f1,2024-01-23_06h54.08.365,bars,2023.2.3,Win32,59.88023952,657b66ea316d21385b68909f,,,,,,,,,,,221.9815,222.9811,222.9812,223.481,223.481,223.731,223.7311,121,121,226.1811,space,2.4385,,226.1812,226.6643,space,0.4762,,0,8,8,0,1,150,bars/single000.png,bars/mask006.png,,,,,,,,,,,,,,,,,,,,,,,,,,,,,,,,,,,,,,,,,,,,,,,,,,,,,,,,,,,,,,,,
,,59cbe23a916c4d0001094710,65af546351c2a1f8263dc7f1,2024-01-23_06h54.08.365,bars,2023.2.3,Win32,59.88023952,657b66ea316d21385b68909f,,,,,,,,,,,226.6648,227.6643,227.6643,228.1642,228.1642,228.4141,228.4142,34,214,233.5809,space,5.1504,,233.581,234.2476,space,0.6419,,0,9,9,9,1,20,bars/single009.png,bars/mask006.png,,,,,,,,,,,,,,,,,,,,,,,,,,,,,,,,,,,,,,,,,,,,,,,,,,,,,,,,,,,,,,,,
,,59cbe23a916c4d0001094710,65af546351c2a1f8263dc7f1,2024-01-23_06h54.08.365,bars,2023.2.3,Win32,59.88023952,657b66ea316d21385b68909f,,,,,,,,,,,,,,,,,,,,,,,,,,,,,,,,,,,,,234.2484,246.181,space,11.919,,,,,,,,,,,,,,,,,,,,,,,,,,,,,,,,,,,,,,,,,,,,,,,,,,,,,,,,,,,,
,,59cbe23a916c4d0001094710,65af546351c2a1f8263dc7f1,2024-01-23_06h54.08.365,bars,2023.2.3,Win32,59.88023952,657b66ea316d21385b68909f,,,,,,,,,,,,,,,,,,,,,,,,,,,,,,,,,,,,,,,,,,246.192,249.764,right,3.556,,249.7641,2,2,250.7636,0,0,0,0,1,9,1,9,2,,,,,,,,,,,,,,,,,,,,,,,,,,,,,,,,,,,,,,,,,
,,59cbe23a916c4d0001094710,65af546351c2a1f8263dc7f1,2024-01-23_06h54.08.365,bars,2023.2.3,Win32,59.88023952,657b66ea316d21385b68909f,,,,,,,,,,,,,,,,,,,,,,,,,,,,,,,,,,,,,,,,,,250.764,254.3135,left,3.542,,254.3136,10,1,255.3133,0,1,1,1,1,10,0,10,1,,,,,,,,,,,,,,,,,,,,,,,,,,,,,,,,,,,,,,,,,
,,59cbe23a916c4d0001094710,65af546351c2a1f8263dc7f1,2024-01-23_06h54.08.365,bars,2023.2.3,Win32,59.88023952,657b66ea316d21385b68909f,,,,,,,,,,,,,,,,,,,,,,,,,,,,,,,,,,,,,,,,,,255.3136,256.9136,right,1.5835,,256.9137,2,2,257.9132,0,2,2,2,1,10,2,10,2,,,,,,,,,,,,,,,,,,,,,,,,,,,,,,,,,,,,,,,,,
,,59cbe23a916c4d0001094710,65af546351c2a1f8263dc7f1,2024-01-23_06h54.08.365,bars,2023.2.3,Win32,59.88023952,657b66ea316d21385b68909f,,,,,,,,,,,,,,,,,,,,,,,,,,,,,,,,,,,,,,,,,,257.9136,259.53,right,1.6004,,259.5301,3,2,260.5299,0,3,3,3,1,8,4,7,3,,,,,,,,,,,,,,,,,,,,,,,,,,,,,,,,,,,,,,,,,
,,59cbe23a916c4d0001094710,65af546351c2a1f8263dc7f1,2024-01-23_06h54.08.365,bars,2023.2.3,Win32,59.88023952,657b66ea316d21385b68909f,,,,,,,,,,,,,,,,,,,,,,,,,,,,,,,,,,,,,,,,,,260.5388,261.8966,left,1.3449,,261.8967,5,1,262.8964,0,4,4,4,1,6,2,5,1,,,,,,,,,,,,,,,,,,,,,,,,,,,,,,,,,,,,,,,,,
,,59cbe23a916c4d0001094710,65af546351c2a1f8263dc7f1,2024-01-23_06h54.08.365,bars,2023.2.3,Win32,59.88023952,657b66ea316d21385b68909f,,,,,,,,,,,,,,,,,,,,,,,,,,,,,,,,,,,,,,,,,,262.8968,265.6797,right,2.7769,,265.6798,4,2,266.6796,0,5,5,5,1,4,4,4,4,,,,,,,,,,,,,,,,,,,,,,,,,,,,,,,,,,,,,,,,,
,,59cbe23a916c4d0001094710,65af546351c2a1f8263dc7f1,2024-01-23_06h54.08.365,bars,2023.2.3,Win32,59.88023952,657b66ea316d21385b68909f,,,,,,,,,,,,,,,,,,,,,,,,,,,,,,,,,,,,,,,,,,266.6888,267.9798,left,1.2766,,267.9798,1,1,268.9795,0,6,6,6,1,2,2,1,2,,,,,,,,,,,,,,,,,,,,,,,,,,,,,,,,,,,,,,,,,
,,59cbe23a916c4d0001094710,65af546351c2a1f8263dc7f1,2024-01-23_06h54.08.365,bars,2023.2.3,Win32,59.88023952,657b66ea316d21385b68909f,,,,,,,,,,,,,,,,,,,,,,,,,,,,,,,,,,,,,,,,,,268.98,269.5629,right,0.5659,,269.5631,1,2,270.5628,0,7,7,7,1,0,0,0,1,,,,,,,,,,,,,,,,,,,,,,,,,,,,,,,,,,,,,,,,,
,,59cbe23a916c4d0001094710,65af546351c2a1f8263dc7f1,2024-01-23_06h54.08.365,bars,2023.2.3,Win32,59.88023952,657b66ea316d21385b68909f,,,,,,,,,,,,,,,,,,,,,,,,,,,,,,,,,,,,,,,,,,270.5633,271.0797,right,0.5105,,271.0797,0,2,272.0796,0,8,8,8,1,0,2,1,0,,,,,,,,,,,,,,,,,,,,,,,,,,,,,,,,,,,,,,,,,
,,59cbe23a916c4d0001094710,65af546351c2a1f8263dc7f1,2024-01-23_06h54.08.365,bars,2023.2.3,Win32,59.88023952,657b66ea316d21385b68909f,,,,,,,,,,,,,,,,,,,,,,,,,,,,,,,,,,,,,,,,,,272.0799,272.4796,left,0.3835,,272.4797,2,1,273.4795,0,9,9,9,1,2,4,2,3,,,,,,,,,,,,,,,,,,,,,,,,,,,,,,,,,,,,,,,,,
,,59cbe23a916c4d0001094710,65af546351c2a1f8263dc7f1,2024-01-23_06h54.08.365,bars,2023.2.3,Win32,59.88023952,657b66ea316d21385b68909f,,,,,,,,,,,,,,,,,,,,,,,,,,,,,,,,,,,,,,,,,,273.4799,274.4463,right,0.9539,,274.4463,3,2,275.446,0,10,10,10,1,0,2,0,3,,,,,,,,,,,,,,,,,,,,,,,,,,,,,,,,,,,,,,,,,
,,59cbe23a916c4d0001094710,65af546351c2a1f8263dc7f1,2024-01-23_06h54.08.365,bars,2023.2.3,Win32,59.88023952,657b66ea316d21385b68909f,,,,,,,,,,,,,,,,,,,,,,,,,,,,,,,,,,,,,,,,,,275.4465,276.2295,right,0.7714,,276.2296,3,2,277.2292,0,11,11,11,1,0,4,0,3,,,,,,,,,,,,,,,,,,,,,,,,,,,,,,,,,,,,,,,,,
,,59cbe23a916c4d0001094710,65af546351c2a1f8263dc7f1,2024-01-23_06h54.08.365,bars,2023.2.3,Win32,59.88023952,657b66ea316d21385b68909f,,,,,,,,,,,,,,,,,,,,,,,,,,,,,,,,,,,,,,,,,,277.2297,278.2129,right,0.9657,,278.2129,6,2,279.2124,0,12,12,12,1,2,6,1,6,,,,,,,,,,,,,,,,,,,,,,,,,,,,,,,,,,,,,,,,,
,,59cbe23a916c4d0001094710,65af546351c2a1f8263dc7f1,2024-01-23_06h54.08.365,bars,2023.2.3,Win32,59.88023952,657b66ea316d21385b68909f,,,,,,,,,,,,,,,,,,,,,,,,,,,,,,,,,,,,,,,,,,279.2128,279.796,left,0.5718,,279.796,1,1,280.7958,0,13,13,13,1,0,4,1,3,,,,,,,,,,,,,,,,,,,,,,,,,,,,,,,,,,,,,,,,,
,,59cbe23a916c4d0001094710,65af546351c2a1f8263dc7f1,2024-01-23_06h54.08.365,bars,2023.2.3,Win32,59.88023952,657b66ea316d21385b68909f,,,,,,,,,,,,,,,,,,,,,,,,,,,,,,,,,,,,,,,,,,280.7962,281.1791,right,0.3734,,281.1792,7,2,282.179,0,14,14,14,1,2,6,2,7,,,,,,,,,,,,,,,,,,,,,,,,,,,,,,,,,,,,,,,,,
,,59cbe23a916c4d0001094710,65af546351c2a1f8263dc7f1,2024-01-23_06h54.08.365,bars,2023.2.3,Win32,59.88023952,657b66ea316d21385b68909f,,,,,,,,,,,,,,,,,,,,,,,,,,,,,,,,,,,,,,,,,,282.1793,287.2291,right,5.0373,,287.2292,9,2,288.2289,0,15,15,15,1,4,8,3,9,,,,,,,,,,,,,,,,,,,,,,,,,,,,,,,,,,,,,,,,,
,,59cbe23a916c4d0001094710,65af546351c2a1f8263dc7f1,2024-01-23_06h54.08.365,bars,2023.2.3,Win32,59.88023952,657b66ea316d21385b68909f,,,,,,,,,,,,,,,,,,,,,,,,,,,,,,,,,,,,,,,,,,288.2381,289.1957,right,0.9425,,289.1958,7,2,290.1955,0,16,16,16,1,6,6,7,7,,,,,,,,,,,,,,,,,,,,,,,,,,,,,,,,,,,,,,,,,
,,59cbe23a916c4d0001094710,65af546351c2a1f8263dc7f1,2024-01-23_06h54.08.365,bars,2023.2.3,Win32,59.88023952,657b66ea316d21385b68909f,,,,,,,,,,,,,,,,,,,,,,,,,,,,,,,,,,,,,,,,,,290.1959,290.8124,right,0.5994,,290.8125,5,2,291.812,0,17,17,17,1,8,4,9,5,,,,,,,,,,,,,,,,,,,,,,,,,,,,,,,,,,,,,,,,,
,,59cbe23a916c4d0001094710,65af546351c2a1f8263dc7f1,2024-01-23_06h54.08.365,bars,2023.2.3,Win32,59.88023952,657b66ea316d21385b68909f,,,,,,,,,,,,,,,,,,,,,,,,,,,,,,,,,,,,,,,,,,291.8124,292.1289,left,0.3092,,292.129,5,1,293.1287,0,18,18,18,1,6,2,5,1,,,,,,,,,,,,,,,,,,,,,,,,,,,,,,,,,,,,,,,,,
,,59cbe23a916c4d0001094710,65af546351c2a1f8263dc7f1,2024-01-23_06h54.08.365,bars,2023.2.3,Win32,59.88023952,657b66ea316d21385b68909f,,,,,,,,,,,,,,,,,,,,,,,,,,,,,,,,,,,,,,,,,,293.1292,293.5456,left,0.4082,,293.5456,7,1,294.5453,0,19,19,19,1,8,0,7,0,,,,,,,,,,,,,,,,,,,,,,,,,,,,,,,,,,,,,,,,,
,,59cbe23a916c4d0001094710,65af546351c2a1f8263dc7f1,2024-01-23_06h54.08.365,bars,2023.2.3,Win32,59.88023952,657b66ea316d21385b68909f,,,,,,,,,,,,,,,,,,,,,,,,,,,,,,,,,,,,,,,,,,,,,,,,,,,,,,,,,,,,294.546,312.1622,space,17.6058,,,,,,,,,,,,,,,,,,,,,,,,,,,,,,,,,,,,,
,,59cbe23a916c4d0001094710,65af546351c2a1f8263dc7f1,2024-01-23_06h54.08.365,bars,2023.2.3,Win32,59.88023952,657b66ea316d21385b68909f,,,,,,,,,,,313.216,314.2113,,,314.7116,314.9614,,142,-38,,,,,,,,,,,,,,,,bars/040.png,bars/mask001.png,,,,,,,,,,,,8,1,,,,,,,9,4,9,4,,,,,,312.1733,313.2118,space,1.0237,,314.2116,314.7116,314.9616,318.2118,space,3.2313,,318.212,2,43,319.2114,319.2116,324.995,space,5.761,,0,0,0,0,1,140,5,,,,,,,,
,,59cbe23a916c4d0001094710,65af546351c2a1f8263dc7f1,2024-01-23_06h54.08.365,bars,2023.2.3,Win32,59.88023952,657b66ea316d21385b68909f,,,,,,,,,,,325.0041,325.9942,,,326.4944,326.7442,,88,88,,,,,,,,,,,,,,,,bars/034.png,bars/mask005.png,,,,,,,,,,,,1,2,,,,,,,10,6,10,6,,,,,,,,,,,325.9943,326.4943,326.7443,328.7943,space,2.0404,,328.7945,37,23,329.7941,329.7942,331.4276,space,1.621,,0,1,1,1,1,125,65,,,,,,,,
,,59cbe23a916c4d0001094710,65af546351c2a1f8263dc7f1,2024-01-23_06h54.08.365,bars,2023.2.3,Win32,59.88023952,657b66ea316d21385b68909f,,,,,,,,,,,331.4281,332.4273,,,332.9275,333.1773,,169,169,,,,,,,,,,,,,,,,bars/000.png,bars/mask009.png,,,,,,,,,,,,1,2,,,,,,,8,4,8,5,,,,,,,,,,,332.4274,332.9275,333.1774,335.9774,space,2.7914,,335.9775,51,24,336.9773,336.9774,338.3607,space,1.3673,,0,2,2,2,1,40,145,,,,,,,,
,,59cbe23a916c4d0001094710,65af546351c2a1f8263dc7f1,2024-01-23_06h54.08.365,bars,2023.2.3,Win32,59.88023952,657b66ea316d21385b68909f,,,,,,,,,,,338.361,339.3605,,,339.8607,340.1105,,61,61,,,,,,,,,,,,,,,,bars/035.png,bars/mask008.png,,,,,,,,,,,,7,2,,,,,,,6,6,6,7,,,,,,,,,,,339.3606,339.8606,340.1105,342.5106,space,2.3862,,342.5106,66,1,343.5103,343.5104,344.7105,space,1.1756,,0,3,3,3,1,175,60,,,,,,,,
,,59cbe23a916c4d0001094710,65af546351c2a1f8263dc7f1,2024-01-23_06h54.08.365,bars,2023.2.3,Win32,59.88023952,657b66ea316d21385b68909f,,,,,,,,,,,344.711,345.7103,,,346.2104,346.4603,,71,71,,,,,,,,,,,,,,,,bars/002.png,bars/mask005.png,,,,,,,,,,,,4,2,,,,,,,4,8,3,8,,,,,,,,,,,345.7103,346.2103,346.4603,349.977,space,3.5005,,349.9771,59,14,350.9767,350.9767,352.0436,space,1.0436,,0,4,4,4,1,130,85,,,,,,,,
,,59cbe23a916c4d0001094710,65af546351c2a1f8263dc7f1,2024-01-23_06h54.08.365,bars,2023.2.3,Win32,59.88023952,657b66ea316d21385b68909f,,,,,,,,,,,352.044,353.0434,,,353.5433,353.7933,,148,148,,,,,,,,,,,,,,,,bars/018.png,bars/mask006.png,,,,,,,,,,,,1,1,,,,,,,2,10,1,10,,,,,,,,,,,353.0434,353.5433,353.7933,356.3267,space,2.5167,,356.3267,2,58,357.3267,357.3267,358.3768,space,1.0235,,0,5,5,5,1,150,90,,,,,,,,
,,59cbe23a916c4d0001094710,65af546351c2a1f8263dc7f1,2024-01-23_06h54.08.365,bars,2023.2.3,Win32,59.88023952,657b66ea316d21385b68909f,,,,,,,,,,,358.3772,359.3764,,,359.8765,360.1264,,153,-27,,,,,,,,,,,,,,,,bars/033.png,bars/mask008.png,,,,,,,,,,,,7,2,,,,,,,4,8,4,8,,,,,,,,,,,359.3765,359.8765,360.1265,362.3271,space,2.1941,,362.3271,52,2,363.3263,363.3264,364.2099,space,0.8554,,0,6,6,6,1,25,155,,,,,,,,
,,59cbe23a916c4d0001094710,65af546351c2a1f8263dc7f1,2024-01-23_06h54.08.365,bars,2023.2.3,Win32,59.88023952,657b66ea316d21385b68909f,,,,,,,,,,,364.2102,365.2095,,,365.7096,365.9596,,27,207,,,,,,,,,,,,,,,,bars/014.png,bars/mask001.png,,,,,,,,,,,,1,2,,,,,,,2,10,1,10,,,,,,,,,,,365.2097,365.7096,365.9597,368.2263,space,2.2568,,368.2265,53,27,369.2262,369.2263,369.9763,space,0.7255,,0,7,7,7,1,80,0,,,,,,,,
,,59cbe23a916c4d0001094710,65af546351c2a1f8263dc7f1,2024-01-23_06h54.08.365,bars,2023.2.3,Win32,59.88023952,657b66ea316d21385b68909f,,,,,,,,,,,369.9768,370.976,,,371.4762,371.7261,,45,45,,,,,,,,,,,,,,,,bars/027.png,bars/mask005.png,,,,,,,,,,,,6,2,,,,,,,4,8,4,7,,,,,,,,,,,370.976,371.4761,371.7261,376.5762,space,4.8342,,376.5762,65,5,377.5757,377.5758,378.3426,space,0.7424,,0,8,8,8,1,110,50,,,,,,,,
,,59cbe23a916c4d0001094710,65af546351c2a1f8263dc7f1,2024-01-23_06h54.08.365,bars,2023.2.3,Win32,59.88023952,657b66ea316d21385b68909f,,,,,,,,,,,378.343,379.3424,,,379.8424,380.0925,,166,166,,,,,,,,,,,,,,,,bars/003.png,bars/mask006.png,,,,,,,,,,,,1,2,,,,,,,2,6,2,7,,,,,,,,,,,379.3425,379.8424,380.0925,382.1092,space,2.0037,,382.1092,39,26,383.109,383.1091,383.9925,space,0.8672,,0,9,9,9,1,25,140,,,,,,,,
,,59cbe23a916c4d0001094710,65af546351c2a1f8263dc7f1,2024-01-23_06h54.08.365,bars,2023.2.3,Win32,59.88023952,657b66ea316d21385b68909f,,,,,,,,,,,383.9928,384.9924,,,385.4923,385.7423,,62,62,,,,,,,,,,,,,,,,bars/045.png,bars/mask006.png,,,,,,,,,,,,0,1,,,,,,,4,8,3,7,,,,,,,,,,,384.9924,385.4922,385.7423,389.4923,space,3.7327,,389.4924,38,52,390.4921,390.4921,391.2756,space,0.7555,,0,10,10,10,1,100,10,,,,,,,,
,,59cbe23a916c4d0001094710,65af546351c2a1f8263dc7f1,2024-01-23_06h54.08.365,bars,2023.2.3,Win32,59.88023952,657b66ea316d21385b68909f,,,,,,,,,,,391.2761,392.2753,,,392.7754,393.0254,,20,200,,,,,,,,,,,,,,,,bars/032.png,bars/mask003.png,,,,,,,,,,,,7,2,,,,,,,2,6,1,7,,,,,,,,,,,392.2754,392.7754,393.0255,394.9255,space,1.8868,,394.9255,75,0,395.9254,395.9254,396.5922,space,0.6486,,0,11,11,11,1,125,20,,,,,,,,
,,59cbe23a916c4d0001094710,65af546351c2a1f8263dc7f1,2024-01-23_06h54.08.365,bars,2023.2.3,Win32,59.88023952,657b66ea316d21385b68909f,,,,,,,,,,,396.5925,397.5918,,,398.092,398.3418,,115,-65,,,,,,,,,,,,,,,,bars/019.png,bars/mask001.png,,,,,,,,,,,,4,2,,,,,,,4,4,4,6,,,,,,,,,,,397.5919,398.0919,398.3418,401.9418,space,3.5863,,401.9419,70,10,402.9416,402.9417,404.1586,space,1.1945,,0,12,12,12,1,45,105,,,,,,,,
,,59cbe23a916c4d0001094710,65af546351c2a1f8263dc7f1,2024-01-23_06h54.08.365,bars,2023.2.3,Win32,59.88023952,657b66ea316d21385b68909f,,,,,,,,,,,404.1591,405.1582,,,405.6584,405.9083,,125,125,,,,,,,,,,,,,,,,bars/002.png,bars/mask003.png,,,,,,,,,,,,1,1,,,,,,,2,6,1,6,,,,,,,,,,,405.1583,405.6583,405.9083,410.8249,space,4.9079,,410.825,5,40,411.8247,411.8247,413.1414,space,1.2933,,0,13,13,13,1,130,85,,,,,,,,
,,59cbe23a916c4d0001094710,65af546351c2a1f8263dc7f1,2024-01-23_06h54.08.365,bars,2023.2.3,Win32,59.88023952,657b66ea316d21385b68909f,,,,,,,,,,,413.1419,414.1413,,,414.6415,414.8913,,51,51,,,,,,,,,,,,,,,,bars/030.png,bars/mask007.png,,,,,,,,,,,,2,2,,,,,,,4,4,4,4,,,,,,,,,,,414.1413,414.6414,414.8914,418.1413,space,3.2328,,418.1414,89,14,419.1411,419.1411,419.9413,space,0.7729,,0,14,14,14,1,140,65,,,,,,,,
,,59cbe23a916c4d0001094710,65af546351c2a1f8263dc7f1,2024-01-23_06h54.08.365,bars,2023.2.3,Win32,59.88023952,657b66ea316d21385b68909f,,,,,,,,,,,419.9419,420.9411,,,421.4411,421.6911,,123,123,,,,,,,,,,,,,,,,bars/039.png,bars/mask006.png,,,,,,,,,,,,1,2,,,,,,,6,2,6,3,,,,,,,,,,,420.9412,421.4411,421.6911,427.0077,space,5.3009,,427.0077,52,18,428.0074,428.0076,428.7743,space,0.7444,,0,15,15,15,1,175,105,,,,,,,,
,,59cbe23a916c4d0001094710,65af546351c2a1f8263dc7f1,2024-01-23_06h54.08.365,bars,2023.2.3,Win32,59.88023952,657b66ea316d21385b68909f,,,,,,,,,,,428.7749,429.774,,,430.2742,430.524,,112,112,,,,,,,,,,,,,,,,bars/002.png,bars/mask004.png,,,,,,,,,,,,3,1,,,,,,,8,0,8,0,,,,,,,,,,,429.7742,430.2742,430.524,434.3907,space,3.8518,,434.3908,18,27,435.3907,435.3907,436.1241,space,0.7071,,0,16,16,16,1,130,85,,,,,,,,
,,59cbe23a916c4d0001094710,65af546351c2a1f8263dc7f1,2024-01-23_06h54.08.365,bars,2023.2.3,Win32,59.88023952,657b66ea316d21385b68909f,,,,,,,,,,,436.1244,437.1238,,,437.6239,437.8738,,27,207,,,,,,,,,,,,,,,,bars/008.png,bars/mask002.png,,,,,,,,,,,,0,2,,,,,,,6,2,6,3,,,,,,,,,,,437.1238,437.6239,437.8739,442.1905,space,4.302,,442.1906,83,27,443.1903,443.1903,443.9904,space,0.7691,,0,17,17,17,1,110,0,,,,,,,,
,,59cbe23a916c4d0001094710,65af546351c2a1f8263dc7f1,2024-01-23_06h54.08.365,bars,2023.2.3,Win32,59.88023952,657b66ea316d21385b68909f,,,,,,,,,,,443.991,444.9903,,,445.4904,445.7403,,114,114,,,,,,,,,,,,,,,,bars/018.png,bars/mask007.png,,,,,,,,,,,,1,2,,,,,,,4,4,1,4,,,,,,,,,,,444.9903,445.4903,445.7403,449.5903,space,3.8436,,449.5903,36,24,450.59,450.5901,451.5569,space,0.946,,0,18,18,18,1,150,90,,,,,,,,
,,59cbe23a916c4d0001094710,65af546351c2a1f8263dc7f1,2024-01-23_06h54.08.365,bars,2023.2.3,Win32,59.88023952,657b66ea316d21385b68909f,,,,,,,,,,,451.5573,452.5566,,,453.0567,453.3066,,118,118,,,,,,,,,,,,,,,,bars/037.png,bars/mask009.png,,,,,,,,,,,,2,2,,,,,,,2,2,3,3,,,,,,,,,,,452.5566,453.0566,453.3066,456.1733,space,2.8514,,456.1734,32,13,457.1732,457.1732,458.1402,space,0.9413,,0,19,19,19,1,150,105,,,,,,,,
,,59cbe23a916c4d0001094710,65af546351c2a1f8263dc7f1,2024-01-23_06h54.08.365,bars,2023.2.3,Win32,59.88023952,657b66ea316d21385b68909f,,,,,,,,,,,458.1406,459.1398,,,459.6398,459.8898,,119,-61,,,,,,,,,,,,,,,,bars/049.png,bars/mask006.png,,,,,,,,,,,,3,2,,,,,,,0,4,1,3,,,,,,,,,,,459.1399,459.6398,459.8898,463.4231,space,3.5178,,463.4231,41,4,464.4229,464.423,465.273,space,0.8329,,0,20,20,20,1,160,115,,,,,,,,
,,59cbe23a916c4d0001094710,65af546351c2a1f8263dc7f1,2024-01-23_06h54.08.365,bars,2023.2.3,Win32,59.88023952,657b66ea316d21385b68909f,,,,,,,,,,,465.2735,466.2728,,,466.7731,467.0229,,115,115,,,,,,,,,,,,,,,,bars/036.png,bars/mask009.png,,,,,,,,,,,,0,1,,,,,,,0,2,1,4,,,,,,,,,,,466.273,466.7729,467.023,479.4893,space,12.4568,,479.4893,30,85,480.4892,480.4892,481.3224,space,0.8028,,0,21,21,21,1,145,20,,,,,,,,
,,59cbe23a916c4d0001094710,65af546351c2a1f8263dc7f1,2024-01-23_06h54.08.365,bars,2023.2.3,Win32,59.88023952,657b66ea316d21385b68909f,,,,,,,,,,,481.323,482.3223,,,482.8224,483.0723,,131,131,,,,,,,,,,,,,,,,bars/049.png,bars/mask004.png,,,,,,,,,,,,0,2,,,,,,,2,0,3,1,,,,,,,,,,,482.3224,482.8223,483.0723,485.7556,space,2.6705,,485.7556,29,16,486.7556,486.7556,487.6055,space,0.8197,,0,22,22,22,1,160,115,,,,,,,,
,,59cbe23a916c4d0001094710,65af546351c2a1f8263dc7f1,2024-01-23_06h54.08.365,bars,2023.2.3,Win32,59.88023952,657b66ea316d21385b68909f,,,,,,,,,,,487.6061,488.6055,,,489.1055,489.3554,,76,76,,,,,,,,,,,,,,,,bars/019.png,bars/mask006.png,,,,,,,,,,,,0,2,,,,,,,0,2,0,4,,,,,,,,,,,488.6055,489.1054,489.3555,493.6554,space,4.2915,,493.6554,31,29,494.6554,494.6554,495.4886,space,0.8096,,0,23,23,23,1,45,105,,,,,,,,
,,59cbe23a916c4d0001094710,65af546351c2a1f8263dc7f1,2024-01-23_06h54.08.365,bars,2023.2.3,Win32,59.88023952,657b66ea316d21385b68909f,,,,,,,,,,,495.4892,496.4885,,,496.9886,497.2385,,113,113,,,,,,,,,,,,,,,,bars/027.png,bars/mask005.png,,,,,,,,,,,,2,1,,,,,,,2,4,2,4,,,,,,,,,,,496.4885,496.9886,497.2385,500.6217,space,3.3764,,500.6217,3,63,501.6216,501.6216,502.4383,space,0.7991,,0,24,24,24,1,110,50,,,,,,,,
,,59cbe23a916c4d0001094710,65af546351c2a1f8263dc7f1,2024-01-23_06h54.08.365,bars,2023.2.3,Win32,59.88023952,657b66ea316d21385b68909f,,,,,,,,,,,502.4386,503.4383,,,503.9382,504.1883,,47,47,,,,,,,,,,,,,,,,bars/026.png,bars/mask008.png,,,,,,,,,,,,0,1,,,,,,,0,6,0,4,,,,,,,,,,,503.4383,503.9382,504.1883,506.3382,space,2.1332,,506.3383,12,38,507.3381,507.3382,508.1716,space,0.8131,,0,25,25,25,1,35,85,,,,,,,,
,,59cbe23a916c4d0001094710,65af546351c2a1f8263dc7f1,2024-01-23_06h54.08.365,bars,2023.2.3,Win32,59.88023952,657b66ea316d21385b68909f,,,,,,,,,,,508.1719,509.1714,,,509.6716,509.9214,,161,161,,,,,,,,,,,,,,,,bars/024.png,bars/mask003.png,,,,,,,,,,,,6,2,,,,,,,0,8,1,8,,,,,,,,,,,509.1714,509.6716,509.9215,514.4545,space,4.5246,,514.4546,41,9,515.4545,515.4545,516.5379,space,1.057,,0,26,26,26,1,120,170,,,,,,,,
,,59cbe23a916c4d0001094710,65af546351c2a1f8263dc7f1,2024-01-23_06h54.08.365,bars,2023.2.3,Win32,59.88023952,657b66ea316d21385b68909f,,,,,,,,,,,516.5385,517.5378,,,518.0379,518.2878,,146,-34,,,,,,,,,,,,,,,,bars/044.png,bars/mask009.png,,,,,,,,,,,,6,2,,,,,,,0,6,0,8,,,,,,,,,,,517.5379,518.0378,518.2879,521.3378,space,3.0327,,521.3378,71,9,522.3376,522.3376,523.071,space,0.7174,,0,27,27,27,1,75,155,,,,,,,,
,,59cbe23a916c4d0001094710,65af546351c2a1f8263dc7f1,2024-01-23_06h54.08.365,bars,2023.2.3,Win32,59.88023952,657b66ea316d21385b68909f,,,,,,,,,,,523.0714,524.0708,,,524.5709,524.821,,20,200,,,,,,,,,,,,,,,,bars/045.png,bars/mask009.png,,,,,,,,,,,,2,2,,,,,,,2,4,1,3,,,,,,,,,,,524.0709,524.5709,524.821,527.1709,space,2.3337,,527.171,80,10,528.1708,528.1709,528.8208,space,0.6338,,0,28,28,28,1,100,10,,,,,,,,
,,59cbe23a916c4d0001094710,65af546351c2a1f8263dc7f1,2024-01-23_06h54.08.365,bars,2023.2.3,Win32,59.88023952,657b66ea316d21385b68909f,,,,,,,,,,,528.8214,529.8207,,,530.3208,530.5707,,153,153,,,,,,,,,,,,,,,,bars/005.png,bars/mask009.png,,,,,,,,,,,,2,2,,,,,,,4,6,3,4,,,,,,,,,,,529.8207,530.3208,530.5708,533.4372,space,2.8505,,533.4373,37,13,534.4372,534.4373,535.1707,space,0.7092,,0,29,29,29,1,10,140,,,,,,,,
,,59cbe23a916c4d0001094710,65af546351c2a1f8263dc7f1,2024-01-23_06h54.08.365,bars,2023.2.3,Win32,59.88023952,657b66ea316d21385b68909f,,,,,,,,,,,535.1712,536.1705,,,536.6706,536.9206,,116,116,,,,,,,,,,,,,,,,bars/009.png,bars/mask002.png,,,,,,,,,,,,3,2,,,,,,,2,4,1,5,,,,,,,,,,,536.1706,536.6706,536.9207,539.5205,space,2.5838,,539.5205,79,11,540.5204,540.5204,541.2871,space,0.7574,,0,30,30,30,1,15,105,,,,,,,,
,,59cbe23a916c4d0001094710,65af546351c2a1f8263dc7f1,2024-01-23_06h54.08.365,bars,2023.2.3,Win32,59.88023952,657b66ea316d21385b68909f,,,,,,,,,,,541.2874,542.2869,,,542.7871,543.0369,,42,42,,,,,,,,,,,,,,,,bars/038.png,bars/mask005.png,,,,,,,,,,,,0,2,,,,,,,4,6,4,6,,,,,,,,,,,542.2869,542.787,543.0369,544.8369,space,1.7855,,544.837,57,28,545.8369,545.8369,546.5869,space,0.7371,,0,31,31,31,1,165,70,,,,,,,,
,,59cbe23a916c4d0001094710,65af546351c2a1f8263dc7f1,2024-01-23_06h54.08.365,bars,2023.2.3,Win32,59.88023952,657b66ea316d21385b68909f,,,,,,,,,,,546.5875,547.5869,,,548.0869,548.3367,,75,75,,,,,,,,,,,,,,,,bars/031.png,bars/mask001.png,,,,,,,,,,,,0,2,,,,,,,6,4,5,5,,,,,,,,,,,547.5869,548.0869,548.3367,550.9369,space,2.584,,550.9369,45,40,551.9366,551.9367,552.6867,space,0.7344,,0,32,32,32,1,120,35,,,,,,,,
,,59cbe23a916c4d0001094710,65af546351c2a1f8263dc7f1,2024-01-23_06h54.08.365,bars,2023.2.3,Win32,59.88023952,657b66ea316d21385b68909f,,,,,,,,,,,552.6871,553.6866,,,554.1865,554.4366,,137,137,,,,,,,,,,,,,,,,bars/012.png,bars/mask003.png,,,,,,,,,,,,0,1,,,,,,,8,6,9,8,,,,,,,,,,,553.6866,554.1865,554.4367,556.9366,space,2.49,,556.9366,47,58,557.9367,557.9367,559.0032,space,1.0432,,0,33,33,33,1,90,15,,,,,,,,
,,59cbe23a916c4d0001094710,65af546351c2a1f8263dc7f1,2024-01-23_06h54.08.365,bars,2023.2.3,Win32,59.88023952,657b66ea316d21385b68909f,,,,,,,,,,,559.0035,560.0031,,,560.5031,560.753,,25,205,,,,,,,,,,,,,,,,bars/036.png,bars/mask009.png,,,,,,,,,,,,6,2,,,,,,,6,8,6,7,,,,,,,,,,,560.0032,560.5031,560.7531,562.9196,space,2.1496,,562.9197,60,5,563.9196,563.9196,565.1529,space,1.2129,,0,34,34,34,1,145,20,,,,,,,,
,,59cbe23a916c4d0001094710,65af546351c2a1f8263dc7f1,2024-01-23_06h54.08.365,bars,2023.2.3,Win32,59.88023952,657b66ea316d21385b68909f,,,,,,,,,,,565.1534,566.153,,,566.6529,566.9027,,174,174,,,,,,,,,,,,,,,,bars/045.png,bars/mask003.png,,,,,,,,,,,,5,2,,,,,,,4,10,5,10,,,,,,,,,,,566.153,566.6529,566.9028,569.3194,space,2.3994,,569.3195,74,16,570.3195,570.3195,570.886,space,0.5506,,0,35,35,35,1,100,10,,,,,,,,
,,59cbe23a916c4d0001094710,65af546351c2a1f8263dc7f1,2024-01-23_06h54.08.365,bars,2023.2.3,Win32,59.88023952,657b66ea316d21385b68909f,,,,,,,,,,,570.8864,571.8859,,,572.386,572.6359,,47,47,,,,,,,,,,,,,,,,bars/043.png,bars/mask004.png,,,,,,,,,,,,3,1,,,,,,,6,10,6,10,,,,,,,,,,,571.886,572.3858,572.636,575.4193,space,2.768,,575.4193,17,83,576.4192,576.4192,577.0693,space,0.633,,0,36,36,36,1,30,130,,,,,,,,
,,59cbe23a916c4d0001094710,65af546351c2a1f8263dc7f1,2024-01-23_06h54.08.365,bars,2023.2.3,Win32,59.88023952,657b66ea316d21385b68909f,,,,,,,,,,,577.0698,578.0691,,,578.5692,578.8191,,157,-23,,,,,,,,,,,,,,,,bars/045.png,bars/mask009.png,,,,,,,,,,,,0,2,,,,,,,8,8,8,7,,,,,,,,,,,578.0691,578.5691,578.8191,581.6191,space,2.7872,,581.6191,57,33,582.6191,582.6191,583.3357,space,0.6984,,0,37,37,37,1,100,10,,,,,,,,
,,59cbe23a916c4d0001094710,65af546351c2a1f8263dc7f1,2024-01-23_06h54.08.365,bars,2023.2.3,Win32,59.88023952,657b66ea316d21385b68909f,,,,,,,,,,,583.3363,584.3355,,,584.8357,585.0855,,55,55,,,,,,,,,,,,,,,,bars/029.png,bars/mask001.png,,,,,,,,,,,,7,2,,,,,,,10,10,10,10,,,,,,,,,,,584.3356,584.8355,585.0856,587.8022,space,2.7004,,587.8022,35,10,588.802,588.8021,589.5687,space,0.7476,,0,38,38,38,1,90,45,,,,,,,,
,,59cbe23a916c4d0001094710,65af546351c2a1f8263dc7f1,2024-01-23_06h54.08.365,bars,2023.2.3,Win32,59.88023952,657b66ea316d21385b68909f,,,,,,,,,,,589.5692,590.5686,,,591.0688,591.3187,,53,233,,,,,,,,,,,,,,,,bars/038.png,bars/mask000.png,,,,,,,,,,,,4,2,,,,,,,8,10,7,10,,,,,,,,,,,590.5687,591.0687,591.3188,596.7853,space,5.4553,,596.7853,68,17,597.785,597.785,598.5351,space,0.7261,,0,39,39,39,1,165,70,,,,,,,,
,,59cbe23a916c4d0001094710,65af546351c2a1f8263dc7f1,2024-01-23_06h54.08.365,bars,2023.2.3,Win32,59.88023952,657b66ea316d21385b68909f,,,,,,,,,,,598.5355,599.5351,,,600.0352,600.2851,,61,61,,,,,,,,,,,,,,,,bars/011.png,bars/mask005.png,,,,,,,,,,,,2,2,,,,,,,6,10,8,9,,,,,,,,,,,599.5351,600.0352,600.2852,604.9682,space,4.673,,604.9683,81,24,605.9681,605.9682,606.7849,space,0.7919,,0,40,40,40,1,160,85,,,,,,,,
,,59cbe23a916c4d0001094710,65af546351c2a1f8263dc7f1,2024-01-23_06h54.08.365,bars,2023.2.3,Win32,59.88023952,657b66ea316d21385b68909f,,,,,,,,,,,606.7855,607.7847,,,608.2847,608.5347,,20,200,,,,,,,,,,,,,,,,bars/014.png,bars/mask007.png,,,,,,,,,,,,3,2,,,,,,,8,10,8,10,,,,,,,,,,,607.7848,608.2847,608.5347,611.9013,space,3.3512,,611.9014,60,20,612.9013,612.9013,614.018,space,1.093,,0,41,41,41,1,80,0,,,,,,,,
,,59cbe23a916c4d0001094710,65af546351c2a1f8263dc7f1,2024-01-23_06h54.08.365,bars,2023.2.3,Win32,59.88023952,657b66ea316d21385b68909f,,,,,,,,,,,614.0186,615.0178,,,615.5179,615.7678,,54,234,,,,,,,,,,,,,,,,bars/047.png,bars/mask002.png,,,,,,,,,,,,3,2,,,,,,,6,8,4,7,,,,,,,,,,,615.0179,615.5179,615.7679,619.8677,space,4.0837,,619.8677,39,16,620.8678,620.8678,621.7176,space,0.8262,,0,42,42,42,1,15,70,,,,,,,,
,,59cbe23a916c4d0001094710,65af546351c2a1f8263dc7f1,2024-01-23_06h54.08.365,bars,2023.2.3,Win32,59.88023952,657b66ea316d21385b68909f,,,,,,,,,,,621.7182,622.7175,,,623.2175,623.4676,,71,71,,,,,,,,,,,,,,,,bars/019.png,bars/mask006.png,,,,,,,,,,,,1,1,,,,,,,8,6,10,7,,,,,,,,,,,622.7177,623.2175,623.4676,627.2843,space,3.8102,,627.2844,26,34,628.2842,628.2842,629.0841,space,0.7741,,0,43,43,43,1,45,105,,,,,,,,
,,59cbe23a916c4d0001094710,65af546351c2a1f8263dc7f1,2024-01-23_06h54.08.365,bars,2023.2.3,Win32,59.88023952,657b66ea316d21385b68909f,,,,,,,,,,,629.0847,630.0839,,,630.584,630.834,,167,167,,,,,,,,,,,,,,,,bars/005.png,bars/mask001.png,,,,,,,,,,,,2,1,,,,,,,10,4,10,3,,,,,,,,,,,630.0839,630.584,630.8341,635.1673,space,4.3173,,635.1674,23,27,636.1672,636.1672,636.9672,space,0.7824,,0,44,44,44,1,10,140,,,,,,,,
,,59cbe23a916c4d0001094710,65af546351c2a1f8263dc7f1,2024-01-23_06h54.08.365,bars,2023.2.3,Win32,59.88023952,657b66ea316d21385b68909f,,,,,,,,,,,636.9678,637.9672,,,638.4671,638.717,,158,158,,,,,,,,,,,,,,,,bars/003.png,bars/mask003.png,,,,,,,,,,,,0,2,,,,,,,10,2,10,1,,,,,,,,,,,637.9672,638.467,638.7171,642.067,space,3.334,,642.067,47,18,643.0668,643.0669,643.9171,space,0.8249,,0,45,45,45,1,25,140,,,,,,,,
,,59cbe23a916c4d0001094710,65af546351c2a1f8263dc7f1,2024-01-23_06h54.08.365,bars,2023.2.3,Win32,59.88023952,657b66ea316d21385b68909f,,,,,,,,,,,643.9176,644.9169,,,645.4169,645.6668,,125,125,,,,,,,,,,,,,,,,bars/021.png,bars/mask005.png,,,,,,,,,,,,0,1,,,,,,,8,0,10,0,,,,,,,,,,,644.9169,645.4169,645.6669,648.9002,space,3.2188,,648.9002,30,55,649.9,649.9,650.7003,space,0.7838,,0,46,46,46,1,155,70,,,,,,,,
,,59cbe23a916c4d0001094710,65af546351c2a1f8263dc7f1,2024-01-23_06h54.08.365,bars,2023.2.3,Win32,59.88023952,657b66ea316d21385b68909f,,,,,,,,,,,650.7007,651.6999,,,652.2001,652.45,,69,69,,,,,,,,,,,,,,,,bars/021.png,bars/mask005.png,,,,,,,,,,,,0,2,,,,,,,10,0,10,0,,,,,,,,,,,651.7,652.2,652.45,655.8665,space,3.4035,,655.8666,86,1,656.8665,656.8666,657.7832,space,0.8902,,0,47,47,47,1,155,70,,,,,,,,
,,59cbe23a916c4d0001094710,65af546351c2a1f8263dc7f1,2024-01-23_06h54.08.365,bars,2023.2.3,Win32,59.88023952,657b66ea316d21385b68909f,,,,,,,,,,,657.7837,658.7831,,,659.2831,659.5331,,124,124,,,,,,,,,,,,,,,,bars/018.png,bars/mask003.png,,,,,,,,,,,,1,1,,,,,,,10,0,10,0,,,,,,,,,,,658.7831,659.283,659.5331,662.1163,space,2.5765,,662.1164,26,34,663.1162,663.1163,664.0329,space,0.8946,,0,48,48,48,1,150,90,,,,,,,,
,,59cbe23a916c4d0001094710,65af546351c2a1f8263dc7f1,2024-01-23_06h54.08.365,bars,2023.2.3,Win32,59.88023952,657b66ea316d21385b68909f,,,,,,,,,,,664.0333,665.0328,,,665.5329,665.7829,,116,116,,,,,,,,,,,,,,,,bars/042.png,bars/mask004.png,,,,,,,,,,,,0,1,,,,,,,10,0,10,0,,,,,,,,,,,665.0329,665.5329,665.7829,669.8161,space,4.0226,,669.8161,29,41,670.8159,670.816,671.516,space,0.6773,,0,49,49,49,1,145,75,,,,,,,,
,,59cbe23a916c4d0001094710,65af546351c2a1f8263dc7f1,2024-01-23_06h54.08.365,bars,2023.2.3,Win32,59.88023952,657b66ea316d21385b68909f,,,,,,,,,,,,,,,,,,,,,,,,,,,,,,,,,,,,,,,,,,,,,,,,,,,,,,,,,,,,,,,,,,,,,,,,,,,,,,,,,,,,,,,,,,,,,671.5169,731.5147,0,0,0,3,1,sequence_tables/blk018.csv
,,59cbe23a916c4d0001094710,65af546351c2a1f8263dc7f1,2024-01-23_06h54.08.365,bars,2023.2.3,Win32,59.88023952,657b66ea316d21385b68909f,,,,,,,,,,,752.6606,753.6633,,,754.1632,754.4133,,133,133,,,,,,,,,,,,,,,,bars/008.png,bars/mask004.png,,,,,,,,,,,,0,1,,,,,,,2,8,2,9,,,,,,731.524,752.6469,space,21.1071,,753.6634,754.1632,754.4134,757.7133,space,3.288,,757.7135,23,47,758.7132,758.7132,758.7221,,,,0,0,0,0,1,110,0,,,,,,,,
,,59cbe23a916c4d0001094710,65af546351c2a1f8263dc7f1,2024-01-23_06h54.08.365,bars,2023.2.3,Win32,59.88023952,657b66ea316d21385b68909f,,,,,,,,,,,758.7224,759.7132,,,760.2131,760.4631,,28,28,,,,,,,,,,,,,,,,bars/031.png,bars/mask006.png,,,,,,,,,,,,8,2,,,,,,,4,10,5,10,,,,,,,,,,,759.7132,760.2131,760.4631,763.0799,space,2.6006,,763.0799,88,7,764.0796,764.0796,764.0899,,,,0,1,1,1,1,120,35,,,,,,,,
,,59cbe23a916c4d0001094710,65af546351c2a1f8263dc7f1,2024-01-23_06h54.08.365,bars,2023.2.3,Win32,59.88023952,657b66ea316d21385b68909f,,,,,,,,,,,764.0901,765.0795,,,765.5796,765.8296,,120,120,,,,,,,,,,,,,,,,bars/011.png,bars/mask003.png,,,,,,,,,,,,0,2,,,,,,,6,8,7,7,,,,,,,,,,,765.0796,765.5796,765.8296,769.7128,space,3.8708,,769.7129,40,35,770.7127,770.7127,770.7218,,,,0,2,2,2,1,160,85,,,,,,,,
,,59cbe23a916c4d0001094710,65af546351c2a1f8263dc7f1,2024-01-23_06h54.08.365,bars,2023.2.3,Win32,59.88023952,657b66ea316d21385b68909f,,,,,,,,,,,770.722,771.7127,,,772.2127,772.4627,,72,72,,,,,,,,,,,,,,,,bars/006.png,bars/mask001.png,,,,,,,,,,,,1,2,,,,,,,8,10,7,9,,,,,,,,,,,771.7127,772.2127,772.4627,776.6793,space,4.1997,,776.6794,37,28,777.6792,777.6792,777.6881,,,,0,3,3,3,1,35,100,,,,,,,,
,,59cbe23a916c4d0001094710,65af546351c2a1f8263dc7f1,2024-01-23_06h54.08.365,bars,2023.2.3,Win32,59.88023952,657b66ea316d21385b68909f,,,,,,,,,,,777.6884,778.6792,,,779.1792,779.4292,,147,-33,,,,,,,,,,,,,,,,bars/043.png,bars/mask005.png,,,,,,,,,,,,3,2,,,,,,,10,8,10,7,,,,,,,,,,,778.6792,779.1792,779.4293,785.0791,space,5.6399,,785.0791,63,17,786.0789,786.079,786.088,,,,0,4,4,4,1,30,130,,,,,,,,
,,59cbe23a916c4d0001094710,65af546351c2a1f8263dc7f1,2024-01-23_06h54.08.365,bars,2023.2.3,Win32,59.88023952,657b66ea316d21385b68909f,,,,,,,,,,,786.0882,787.0789,,,787.5789,787.8288,,23,23,,,,,,,,,,,,,,,,bars/019.png,bars/mask006.png,,,,,,,,,,,,2,1,,,,,,,8,6,9,5,,,,,,,,,,,787.0789,787.5789,787.8288,788.4624,space,0.6166,,788.4624,22,82,789.4622,789.4622,789.4639,,,,0,5,5,5,1,45,105,,,,,,,,
,,59cbe23a916c4d0001094710,65af546351c2a1f8263dc7f1,2024-01-23_06h54.08.365,bars,2023.2.3,Win32,59.88023952,657b66ea316d21385b68909f,,,,,,,,,,,789.4641,790.4621,,,790.9622,791.212,,38,218,,,,,,,,,,,,,,,,bars/007.png,bars/mask009.png,,,,,,,,,,,,2,2,,,,,,,6,4,5,5,,,,,,,,,,,790.4621,790.9621,791.212,793.9288,space,2.7048,,793.9289,43,17,794.9286,794.9287,794.9384,,,,0,6,6,6,1,175,55,,,,,,,,
,,59cbe23a916c4d0001094710,65af546351c2a1f8263dc7f1,2024-01-23_06h54.08.365,bars,2023.2.3,Win32,59.88023952,657b66ea316d21385b68909f,,,,,,,,,,,794.9386,795.9287,,,796.4286,796.6786,,97,-83,,,,,,,,,,,,,,,,bars/006.png,bars/mask006.png,,,,,,,,,,,,1,2,,,,,,,8,2,7,1,,,,,,,,,,,795.9287,796.4285,796.6786,800.4951,space,3.8005,,800.4952,62,3,801.4951,801.4951,801.5041,,,,0,7,7,7,1,35,100,,,,,,,,
,,59cbe23a916c4d0001094710,65af546351c2a1f8263dc7f1,2024-01-23_06h54.08.365,bars,2023.2.3,Win32,59.88023952,657b66ea316d21385b68909f,,,,,,,,,,,801.5043,802.495,,,802.995,803.245,,43,223,,,,,,,,,,,,,,,,bars/007.png,bars/mask007.png,,,,,,,,,,,,0,2,,,,,,,6,0,6,0,,,,,,,,,,,802.495,802.995,803.245,807.0284,space,3.7759,,807.0284,48,12,808.0281,808.0281,808.0372,,,,0,8,8,8,1,175,55,,,,,,,,
,,59cbe23a916c4d0001094710,65af546351c2a1f8263dc7f1,2024-01-23_06h54.08.365,bars,2023.2.3,Win32,59.88023952,657b66ea316d21385b68909f,,,,,,,,,,,808.0374,809.0281,,,809.528,809.7782,,31,31,,,,,,,,,,,,,,,,bars/047.png,bars/mask000.png,,,,,,,,,,,,2,1,,,,,,,4,2,4,0,,,,,,,,,,,809.0281,809.528,809.7782,813.0281,space,3.2419,,813.0282,16,39,814.0279,814.028,814.0378,,,,0,9,9,9,1,15,70,,,,,,,,
,,59cbe23a916c4d0001094710,65af546351c2a1f8263dc7f1,2024-01-23_06h54.08.365,bars,2023.2.3,Win32,59.88023952,657b66ea316d21385b68909f,,,,,,,,,,,814.0379,815.0279,,,815.5279,815.7779,,149,-31,,,,,,,,,,,,,,,,bars/032.png,bars/mask009.png,,,,,,,,,,,,1,1,,,,,,,2,4,3,4,,,,,,,,,,,815.0279,815.5279,815.7779,819.378,space,3.5868,,819.3781,24,51,820.3777,820.3777,820.387,,,,0,10,10,10,1,125,20,,,,,,,,
,,59cbe23a916c4d0001094710,65af546351c2a1f8263dc7f1,2024-01-23_06h54.08.365,bars,2023.2.3,Win32,59.88023952,657b66ea316d21385b68909f,,,,,,,,,,,820.3873,821.3777,,,821.8778,822.1279,,35,215,,,,,,,,,,,,,,,,bars/036.png,bars/mask005.png,,,,,,,,,,,,3,2,,,,,,,4,6,5,6,,,,,,,,,,,821.3777,821.8778,822.1279,826.011,space,3.8767,,826.0111,70,15,827.0109,827.0109,827.0207,,,,0,11,11,11,1,145,20,,,,,,,,
,,59cbe23a916c4d0001094710,65af546351c2a1f8263dc7f1,2024-01-23_06h54.08.365,bars,2023.2.3,Win32,59.88023952,657b66ea316d21385b68909f,,,,,,,,,,,827.0209,828.0108,,,828.5108,828.7608,,167,167,,,,,,,,,,,,,,,,bars/045.png,bars/mask006.png,,,,,,,,,,,,1,2,,,,,,,2,4,3,3,,,,,,,,,,,828.0109,828.5108,828.7608,831.7775,space,3.003,,831.7775,67,23,832.7773,832.7773,832.7866,,,,0,12,12,12,1,100,10,,,,,,,,
,,59cbe23a916c4d0001094710,65af546351c2a1f8263dc7f1,2024-01-23_06h54.08.365,bars,2023.2.3,Win32,59.88023952,657b66ea316d21385b68909f,,,,,,,,,,,832.7868,833.7774,,,834.2771,834.5271,,26,206,,,,,,,,,,,,,,,,bars/048.png,bars/mask004.png,,,,,,,,,,,,0,1,,,,,,,4,6,2,5,,,,,,,,,,,833.7774,834.277,834.5271,837.0107,space,2.4686,,837.0107,24,31,838.0103,838.0103,838.0205,,,,0,13,13,13,1,50,175,,,,,,,,
,,59cbe23a916c4d0001094710,65af546351c2a1f8263dc7f1,2024-01-23_06h54.08.365,bars,2023.2.3,Win32,59.88023952,657b66ea316d21385b68909f,,,,,,,,,,,838.0206,839.0104,,,839.5105,839.7605,,98,-82,,,,,,,,,,,,,,,,bars/039.png,bars/mask001.png,,,,,,,,,,,,8,2,,,,,,,2,8,2,10,,,,,,,,,,,839.0104,839.5105,839.7605,844.1106,space,4.3337,,844.1106,77,7,845.1103,845.1103,845.1201,,,,0,14,14,14,1,175,105,,,,,,,,
,,59cbe23a916c4d0001094710,65af546351c2a1f8263dc7f1,2024-01-23_06h54.08.365,bars,2023.2.3,Win32,59.88023952,657b66ea316d21385b68909f,,,,,,,,,,,845.1202,846.1103,,,846.6102,846.8602,,31,211,,,,,,,,,,,,,,,,bars/013.png,bars/mask004.png,,,,,,,,,,,,2,2,,,,,,,0,6,0,5,,,,,,,,,,,846.1103,846.6102,846.8602,850.2769,space,3.4075,,850.2769,44,21,851.2766,851.2767,851.2859,,,,0,15,15,15,1,75,10,,,,,,,,
,,59cbe23a916c4d0001094710,65af546351c2a1f8263dc7f1,2024-01-23_06h54.08.365,bars,2023.2.3,Win32,59.88023952,657b66ea316d21385b68909f,,,,,,,,,,,851.286,852.2766,,,852.7768,853.0266,,163,163,,,,,,,,,,,,,,,,bars/033.png,bars/mask007.png,,,,,,,,,,,,2,2,,,,,,,2,4,1,3,,,,,,,,,,,852.2767,852.7768,853.0266,857.11,space,4.0679,,857.1101,42,8,858.1098,858.1098,858.1192,,,,0,16,16,16,1,25,155,,,,,,,,
,,59cbe23a916c4d0001094710,65af546351c2a1f8263dc7f1,2024-01-23_06h54.08.365,bars,2023.2.3,Win32,59.88023952,657b66ea316d21385b68909f,,,,,,,,,,,858.1194,859.1098,,,859.6098,859.8596,,70,70,,,,,,,,,,,,,,,,bars/002.png,bars/mask007.png,,,,,,,,,,,,3,2,,,,,,,4,6,3,5,,,,,,,,,,,859.1098,859.6097,859.8596,862.6097,space,2.7366,,862.6098,60,15,863.6096,863.6096,863.6189,,,,0,17,17,17,1,130,85,,,,,,,,
,,59cbe23a916c4d0001094710,65af546351c2a1f8263dc7f1,2024-01-23_06h54.08.365,bars,2023.2.3,Win32,59.88023952,657b66ea316d21385b68909f,,,,,,,,,,,863.6191,864.6096,,,865.1097,865.3595,,129,-51,,,,,,,,,,,,,,,,bars/008.png,bars/mask009.png,,,,,,,,,,,,1,1,,,,,,,2,4,2,3,,,,,,,,,,,864.6096,865.1096,865.3596,869.9262,space,4.5498,,869.9262,19,51,870.926,870.926,870.9358,,,,0,18,18,18,1,110,0,,,,,,,,
,,59cbe23a916c4d0001094710,65af546351c2a1f8263dc7f1,2024-01-23_06h54.08.365,bars,2023.2.3,Win32,59.88023952,657b66ea316d21385b68909f,,,,,,,,,,,870.936,871.926,,,872.426,872.6759,,120,120,,,,,,,,,,,,,,,,bars/011.png,bars/mask006.png,,,,,,,,,,,,0,2,,,,,,,0,2,0,1,,,,,,,,,,,871.926,872.4259,872.676,877.526,space,4.8339,,877.526,40,35,878.5258,878.5259,878.536,,,,0,19,19,19,1,160,85,,,,,,,,
,,59cbe23a916c4d0001094710,65af546351c2a1f8263dc7f1,2024-01-23_06h54.08.365,bars,2023.2.3,Win32,59.88023952,657b66ea316d21385b68909f,,,,,,,,,,,878.5362,879.5257,,,880.0257,880.2758,,61,61,,,,,,,,,,,,,,,,bars/027.png,bars/mask002.png,,,,,,,,,,,,0,2,,,,,,,2,0,1,0,,,,,,,,,,,879.5257,880.0257,880.2758,884.309,space,4.0245,,884.309,49,11,885.3088,885.3088,885.3181,,,,0,20,20,20,1,110,50,,,,,,,,
,,59cbe23a916c4d0001094710,65af546351c2a1f8263dc7f1,2024-01-23_06h54.08.365,bars,2023.2.3,Win32,59.88023952,657b66ea316d21385b68909f,,,,,,,,,,,885.3182,886.3087,,,886.8089,887.0589,,85,85,,,,,,,,,,,,,,,,bars/042.png,bars/mask009.png,,,,,,,,,,,,2,2,,,,,,,0,2,0,3,,,,,,,,,,,886.3087,886.8089,887.0589,890.3422,space,3.2732,,890.3423,60,10,891.3419,891.3419,891.3509,,,,0,21,21,21,1,145,75,,,,,,,,
,,59cbe23a916c4d0001094710,65af546351c2a1f8263dc7f1,2024-01-23_06h54.08.365,bars,2023.2.3,Win32,59.88023952,657b66ea316d21385b68909f,,,,,,,,,,,891.3511,892.342,,,892.8419,893.0918,,76,76,,,,,,,,,,,,,,,,bars/001.png,bars/mask002.png,,,,,,,,,,,,1,2,,,,,,,0,0,0,2,,,,,,,,,,,892.342,892.8419,893.0919,896.042,space,2.9354,,896.042,54,9,897.0417,897.0417,897.0509,,,,0,22,22,22,1,130,85,,,,,,,,
,,59cbe23a916c4d0001094710,65af546351c2a1f8263dc7f1,2024-01-23_06h54.08.365,bars,2023.2.3,Win32,59.88023952,657b66ea316d21385b68909f,,,,,,,,,,,897.051,898.0418,,,898.5419,898.7918,,1,1,,,,,,,,,,,,,,,,bars/014.png,bars/mask001.png,,,,,,,,,,,,1,2,,,,,,,0,0,2,1,,,,,,,,,,,898.0418,898.5418,898.7918,902.5251,space,3.7177,,902.5251,79,1,903.5248,903.5249,903.5337,,,,0,23,23,23,1,80,0,,,,,,,,
,,59cbe23a916c4d0001094710,65af546351c2a1f8263dc7f1,2024-01-23_06h54.08.365,bars,2023.2.3,Win32,59.88023952,657b66ea316d21385b68909f,,,,,,,,,,,903.534,904.5248,,,905.025,905.2747,,62,62,,,,,,,,,,,,,,,,bars/025.png,bars/mask002.png,,,,,,,,,,,,1,2,,,,,,,0,0,0,2,,,,,,,,,,,904.5249,905.025,905.2747,907.6582,space,2.3684,,907.6582,43,22,908.6582,908.6582,908.659,,,,0,24,24,24,1,105,40,,,,,,,,
,,59cbe23a916c4d0001094710,65af546351c2a1f8263dc7f1,2024-01-23_06h54.08.365,bars,2023.2.3,Win32,59.88023952,657b66ea316d21385b68909f,,,,,,,,,,,908.6591,909.6581,,,910.1581,910.4079,,27,207,,,,,,,,,,,,,,,,bars/014.png,bars/mask002.png,,,,,,,,,,,,0,2,,,,,,,0,0,0,0,,,,,,,,,,,909.6581,910.1581,910.408,913.1247,space,2.7071,,913.1249,53,27,914.1245,914.1245,914.1346,,,,0,25,25,25,1,80,0,,,,,,,,
,,59cbe23a916c4d0001094710,65af546351c2a1f8263dc7f1,2024-01-23_06h54.08.365,bars,2023.2.3,Win32,59.88023952,657b66ea316d21385b68909f,,,,,,,,,,,914.1348,915.1245,,,915.6245,915.8745,,15,15,,,,,,,,,,,,,,,,bars/036.png,bars/mask001.png,,,,,,,,,,,,0,2,,,,,,,2,0,3,0,,,,,,,,,,,915.1245,915.6245,915.8746,918.8581,space,2.9776,,918.8582,50,5,919.8577,919.8577,919.8669,,,,0,26,26,26,1,145,20,,,,,,,,
,,59cbe23a916c4d0001094710,65af546351c2a1f8263dc7f1,2024-01-23_06h54.08.365,bars,2023.2.3,Win32,59.88023952,657b66ea316d21385b68909f,,,,,,,,,,,919.8671,920.8577,,,921.3577,921.6076,,26,206,,,,,,,,,,,,,,,,bars/014.png,bars/mask004.png,,,,,,,,,,,,0,2,,,,,,,4,2,5,1,,,,,,,,,,,920.8577,921.3577,921.6077,924.441,space,2.8201,,924.4411,54,26,925.4408,925.4408,925.4498,,,,0,27,27,27,1,80,0,,,,,,,,
,,59cbe23a916c4d0001094710,65af546351c2a1f8263dc7f1,2024-01-23_06h54.08.365,bars,2023.2.3,Win32,59.88023952,657b66ea316d21385b68909f,,,,,,,,,,,925.4501,926.4409,,,926.9408,927.1908,,72,72,,,,,,,,,,,,,,,,bars/009.png,bars/mask004.png,,,,,,,,,,,,0,2,,,,,,,6,4,7,4,,,,,,,,,,,926.4409,926.9407,927.1909,931.7576,space,4.5513,,931.7576,57,33,932.7573,932.7573,932.7664,,,,0,28,28,28,1,15,105,,,,,,,,
,,59cbe23a916c4d0001094710,65af546351c2a1f8263dc7f1,2024-01-23_06h54.08.365,bars,2023.2.3,Win32,59.88023952,657b66ea316d21385b68909f,,,,,,,,,,,932.7665,933.7572,,,934.2572,934.5071,,161,161,,,,,,,,,,,,,,,,bars/049.png,bars/mask005.png,,,,,,,,,,,,4,1,,,,,,,4,2,4,3,,,,,,,,,,,933.7572,934.2572,934.5071,937.1407,space,2.6176,,937.1408,1,46,938.1405,938.1405,938.1506,,,,0,29,29,29,1,160,115,,,,,,,,
,,59cbe23a916c4d0001094710,65af546351c2a1f8263dc7f1,2024-01-23_06h54.08.365,bars,2023.2.3,Win32,59.88023952,657b66ea316d21385b68909f,,,,,,,,,,,938.1507,939.1404,,,939.6404,939.8904,,144,144,,,,,,,,,,,,,,,,bars/015.png,bars/mask002.png,,,,,,,,,,,,0,2,,,,,,,6,0,8,0,,,,,,,,,,,939.1404,939.6404,939.8905,944.1903,space,4.2829,,944.1904,34,16,945.1902,945.1902,945.2004,,,,0,30,30,30,1,110,160,,,,,,,,
,,59cbe23a916c4d0001094710,65af546351c2a1f8263dc7f1,2024-01-23_06h54.08.365,bars,2023.2.3,Win32,59.88023952,657b66ea316d21385b68909f,,,,,,,,,,,945.2006,946.1901,,,946.6903,946.9401,,110,110,,,,,,,,,,,,,,,,bars/046.png,bars/mask008.png,,,,,,,,,,,,0,2,,,,,,,4,2,5,3,,,,,,,,,,,946.1902,946.6903,946.9402,951.1068,space,4.1593,,951.1069,45,25,952.1066,952.1066,952.1156,,,,0,31,31,31,1,155,85,,,,,,,,
,,59cbe23a916c4d0001094710,65af546351c2a1f8263dc7f1,2024-01-23_06h54.08.365,bars,2023.2.3,Win32,59.88023952,657b66ea316d21385b68909f,,,,,,,,,,,952.1158,953.1066,,,953.6065,953.8566,,50,230,,,,,,,,,,,,,,,,bars/017.png,bars/mask000.png,,,,,,,,,,,,3,2,,,,,,,2,4,1,4,,,,,,,,,,,953.1066,953.6065,953.8566,960.7898,space,6.922,,960.7898,85,5,961.7896,961.7896,961.7992,,,,0,32,32,32,1,145,45,,,,,,,,
,,59cbe23a916c4d0001094710,65af546351c2a1f8263dc7f1,2024-01-23_06h54.08.365,bars,2023.2.3,Win32,59.88023952,657b66ea316d21385b68909f,,,,,,,,,,,961.7994,962.7897,,,963.2895,963.5396,,57,57,,,,,,,,,,,,,,,,bars/038.png,bars/mask009.png,,,,,,,,,,,,1,2,,,,,,,4,2,4,1,,,,,,,,,,,962.7897,963.2895,963.5396,968.7896,space,5.2345,,968.7896,72,13,969.7894,969.7894,969.7987,,,,0,33,33,33,1,165,70,,,,,,,,
,,59cbe23a916c4d0001094710,65af546351c2a1f8263dc7f1,2024-01-23_06h54.08.365,bars,2023.2.3,Win32,59.88023952,657b66ea316d21385b68909f,,,,,,,,,,,969.7988,970.7894,,,971.2893,971.5393,,174,174,,,,,,,,,,,,,,,,bars/000.png,bars/mask000.png,,,,,,,,,,,,0,2,,,,,,,2,4,4,5,,,,,,,,,,,970.7895,971.2892,971.5393,974.1726,space,2.624,,974.1727,46,29,975.1724,975.1724,975.1816,,,,0,34,34,34,1,40,145,,,,,,,,
,,59cbe23a916c4d0001094710,65af546351c2a1f8263dc7f1,2024-01-23_06h54.08.365,bars,2023.2.3,Win32,59.88023952,657b66ea316d21385b68909f,,,,,,,,,,,975.1818,976.1725,,,976.6724,976.9224,,134,134,,,,,,,,,,,,,,,,bars/049.png,bars/mask008.png,,,,,,,,,,,,2,2,,,,,,,4,6,5,6,,,,,,,,,,,976.1725,976.6724,976.9225,980.6225,space,3.688,,980.6225,26,19,981.6222,981.6222,981.6319,,,,0,35,35,35,1,160,115,,,,,,,,
,,59cbe23a916c4d0001094710,65af546351c2a1f8263dc7f1,2024-01-23_06h54.08.365,bars,2023.2.3,Win32,59.88023952,657b66ea316d21385b68909f,,,,,,,,,,,981.632,982.6223,,,983.1223,983.3722,,105,105,,,,,,,,,,,,,,,,bars/037.png,bars/mask008.png,,,,,,,,,,,,4,2,,,,,,,6,4,6,4,,,,,,,,,,,982.6223,983.1222,983.3723,986.539,space,3.151,,986.539,45,0,987.5388,987.5389,987.5481,,,,0,36,36,36,1,150,105,,,,,,,,
,,59cbe23a916c4d0001094710,65af546351c2a1f8263dc7f1,2024-01-23_06h54.08.365,bars,2023.2.3,Win32,59.88023952,657b66ea316d21385b68909f,,,,,,,,,,,987.5483,988.5388,,,989.0387,989.2888,,178,178,,,,,,,,,,,,,,,,bars/020.png,bars/mask002.png,,,,,,,,,,,,1,2,,,,,,,8,2,9,2,,,,,,,,,,,988.5388,989.0387,989.2888,991.8555,space,2.5545,,991.8555,63,8,992.8553,992.8553,992.8645,,,,0,37,37,37,1,115,170,,,,,,,,
,,59cbe23a916c4d0001094710,65af546351c2a1f8263dc7f1,2024-01-23_06h54.08.365,bars,2023.2.3,Win32,59.88023952,657b66ea316d21385b68909f,,,,,,,,,,,992.8647,993.8552,,,994.3552,994.6052,,160,160,,,,,,,,,,,,,,,,bars/016.png,bars/mask009.png,,,,,,,,,,,,3,2,,,,,,,10,4,7,4,,,,,,,,,,,993.8552,994.3552,994.6052,997.2218,space,2.6052,,997.2219,60,5,998.2218,998.2218,998.2307,,,,0,38,38,38,1,40,165,,,,,,,,
,,59cbe23a916c4d0001094710,65af546351c2a1f8263dc7f1,2024-01-23_06h54.08.365,bars,2023.2.3,Win32,59.88023952,657b66ea316d21385b68909f,,,,,,,,,,,998.2309,999.2217,,,999.7217,999.9717,,28,28,,,,,,,,,,,,,,,,bars/045.png,bars/mask006.png,,,,,,,,,,,,2,2,,,,,,,10,6,10,5,,,,,,,,,,,999.2217,999.7217,999.9717,1004.0884,space,4.1033,,1004.0884,72,18,1005.0882,1005.0882,1005.0973,,,,0,39,39,39,1,100,10,,,,,,,,
,,59cbe23a916c4d0001094710,65af546351c2a1f8263dc7f1,2024-01-23_06h54.08.365,bars,2023.2.3,Win32,59.88023952,657b66ea316d21385b68909f,,,,,,,,,,,1005.0975,1006.088,,,1006.5881,1006.8381,,155,155,,,,,,,,,,,,,,,,bars/016.png,bars/mask000.png,,,,,,,,,,,,3,2,,,,,,,8,4,10,4,,,,,,,,,,,1006.0881,1006.5881,1006.8381,1010.5381,space,3.6841,,1010.5381,65,10,1011.5379,1011.5379,1011.547,,,,0,40,40,40,1,40,165,,,,,,,,
,,59cbe23a916c4d0001094710,65af546351c2a1f8263dc7f1,2024-01-23_06h54.08.365,bars,2023.2.3,Win32,59.88023952,657b66ea316d21385b68909f,,,,,,,,,,,1011.5473,1012.5379,,,1013.038,1013.2879,,157,157,,,,,,,,,,,,,,,,bars/005.png,bars/mask001.png,,,,,,,,,,,,1,2,,,,,,,10,2,10,2,,,,,,,,,,,1012.5379,1013.038,1013.2879,1016.2212,space,2.9231,,1016.2212,33,17,1017.2211,1017.2211,1017.2301,,,,0,41,41,41,1,10,140,,,,,,,,
,,59cbe23a916c4d0001094710,65af546351c2a1f8263dc7f1,2024-01-23_06h54.08.365,bars,2023.2.3,Win32,59.88023952,657b66ea316d21385b68909f,,,,,,,,,,,1017.2302,1018.2211,,,1018.7211,1018.971,,175,175,,,,,,,,,,,,,,,,bars/016.png,bars/mask003.png,,,,,,,,,,,,0,2,,,,,,,10,0,10,0,,,,,,,,,,,1018.2211,1018.7211,1018.971,1021.5052,space,2.5282,,1021.5052,45,10,1022.5043,1022.5043,1022.5133,,,,0,42,42,42,1,40,165,,,,,,,,
,,59cbe23a916c4d0001094710,65af546351c2a1f8263dc7f1,2024-01-23_06h54.08.365,bars,2023.2.3,Win32,59.88023952,657b66ea316d21385b68909f,,,,,,,,,,,1022.5135,1023.5042,,,1024.0042,1024.2541,,129,129,,,,,,,,,,,,,,,,bars/037.png,bars/mask000.png,,,,,,,,,,,,2,1,,,,,,,8,0,8,1,,,,,,,,,,,1023.5043,1024.0042,1024.2541,1028.4042,space,4.1401,,1028.4042,21,24,1029.4041,1029.4041,1029.4139,,,,0,43,43,43,1,150,105,,,,,,,,
,,59cbe23a916c4d0001094710,65af546351c2a1f8263dc7f1,2024-01-23_06h54.08.365,bars,2023.2.3,Win32,59.88023952,657b66ea316d21385b68909f,,,,,,,,,,,1029.4141,1030.404,,,1030.904,1031.1539,,160,160,,,,,,,,,,,,,,,,bars/000.png,bars/mask004.png,,,,,,,,,,,,0,2,,,,,,,10,2,10,0,,,,,,,,,,,1030.404,1030.904,1031.1539,1034.5874,space,3.4173,,1034.5874,60,15,1035.5871,1035.5872,1035.5973,,,,0,44,44,44,1,40,145,,,,,,,,
,,59cbe23a916c4d0001094710,65af546351c2a1f8263dc7f1,2024-01-23_06h54.08.365,bars,2023.2.3,Win32,59.88023952,657b66ea316d21385b68909f,,,,,,,,,,,1035.5975,1036.5871,,,1037.0871,1037.3371,,130,-50,,,,,,,,,,,,,,,,bars/049.png,bars/mask004.png,,,,,,,,,,,,2,2,,,,,,,10,4,10,4,,,,,,,,,,,1036.5871,1037.0871,1037.3371,1041.7038,space,4.3512,,1041.7038,30,15,1042.7036,1042.7036,1042.7127,,,,0,45,45,45,1,160,115,,,,,,,,
,,59cbe23a916c4d0001094710,65af546351c2a1f8263dc7f1,2024-01-23_06h54.08.365,bars,2023.2.3,Win32,59.88023952,657b66ea316d21385b68909f,,,,,,,,,,,1042.7128,1043.7034,,,1044.2035,1044.4535,,69,69,,,,,,,,,,,,,,,,bars/030.png,bars/mask000.png,,,,,,,,,,,,4,2,,,,,,,8,6,9,5,,,,,,,,,,,1043.7034,1044.2035,1044.4535,1047.3869,space,2.9252,,1047.387,71,4,1048.3867,1048.3868,1048.3957,,,,0,46,46,46,1,140,65,,,,,,,,
,,59cbe23a916c4d0001094710,65af546351c2a1f8263dc7f1,2024-01-23_06h54.08.365,bars,2023.2.3,Win32,59.88023952,657b66ea316d21385b68909f,,,,,,,,,,,1048.3958,1049.3866,,,1049.8867,1050.1366,,153,-27,,,,,,,,,,,,,,,,bars/048.png,bars/mask001.png,,,,,,,,,,,,2,2,,,,,,,10,8,9,8,,,,,,,,,,,1049.3866,1049.8867,1050.1366,1054.0032,space,3.8513,,1054.0032,77,22,1055.0032,1055.0032,1055.0126,,,,0,47,47,47,1,50,175,,,,,,,,
,,59cbe23a916c4d0001094710,65af546351c2a1f8263dc7f1,2024-01-23_06h54.08.365,bars,2023.2.3,Win32,59.88023952,657b66ea316d21385b68909f,,,,,,,,,,,1055.0128,1056.0031,,,1056.5031,1056.7532,,50,50,,,,,,,,,,,,,,,,bars/025.png,bars/mask000.png,,,,,,,,,,,,5,2,,,,,,,10,6,10,7,,,,,,,,,,,1056.0031,1056.5031,1056.7532,1060.8198,space,4.0574,,1060.8198,55,10,1061.8196,1061.8197,1061.829,,,,0,48,48,48,1,105,40,,,,,,,,
,,59cbe23a916c4d0001094710,65af546351c2a1f8263dc7f1,2024-01-23_06h54.08.365,bars,2023.2.3,Win32,59.88023952,657b66ea316d21385b68909f,,,,,,,,,,,1061.8292,1062.8195,,,1063.3196,1063.5695,,128,128,,,,,,,,,,,,,,,,bars/011.png,bars/mask009.png,,,,,,,,,,,,0,1,,,,,,,8,8,9,9,,,,,,,,,,,1062.8195,1063.3195,1063.5696,1066.2029,space,2.6173,,1066.203,32,43,1067.2027,1067.2027,1067.2125,,,,0,49,49,49,1,160,85,,,,,,,,
,,59cbe23a916c4d0001094710,65af546351c2a1f8263dc7f1,2024-01-23_06h54.08.365,bars,2023.2.3,Win32,59.88023952,657b66ea316d21385b68909f,,,,,,,,,,,,,,,,,,,,,,,,,,,,,,,,,,,,,,,,,,,,,,,,,,,,,,,,,,,,,,,,,,,,,,,,,,,,,,,,,,,,,,,,,,,,,1067.2127,1137.3472,0,1,1,2,1,sequence_tables/blk038.csv
,,59cbe23a916c4d0001094710,65af546351c2a1f8263dc7f1,2024-01-23_06h54.08.365,bars,2023.2.3,Win32,59.88023952,657b66ea316d21385b68909f,,,,,,,,,,,1138.8722,1139.8669,,,1140.367,1140.6169,,135,135,,,,,,,,,,,,,,,,bars/004.png,bars/mask007.png,,,,,,,,,,,,5,2,,,,,,,1,9,1,7,,,,,,1137.3614,1138.8671,space,1.4746,,1139.867,1140.367,1140.617,1143.2337,space,2.603,,1143.2337,70,10,1144.2334,1144.2334,1144.2433,,,,0,0,0,0,1,25,125,,,,,,,,
,,59cbe23a916c4d0001094710,65af546351c2a1f8263dc7f1,2024-01-23_06h54.08.365,bars,2023.2.3,Win32,59.88023952,657b66ea316d21385b68909f,,,,,,,,,,,1144.2435,1145.2334,,,1145.7335,1145.9835,,152,-28,,,,,,,,,,,,,,,,bars/008.png,bars/mask004.png,,,,,,,,,,,,0,2,,,,,,,3,7,5,6,,,,,,,,,,,1145.2334,1145.7335,1145.9835,1150.6168,space,4.6205,,1150.6168,42,28,1151.6165,1151.6166,1151.6254,,,,0,1,1,1,1,110,0,,,,,,,,
,,59cbe23a916c4d0001094710,65af546351c2a1f8263dc7f1,2024-01-23_06h54.08.365,bars,2023.2.3,Win32,59.88023952,657b66ea316d21385b68909f,,,,,,,,,,,1151.6256,1152.6164,,,1153.1165,1153.3665,,6,6,,,,,,,,,,,,,,,,bars/032.png,bars/mask001.png,,,,,,,,,,,,5,2,,,,,,,5,9,4,9,,,,,,,,,,,1152.6165,1153.1165,1153.3665,1155.9333,space,2.5572,,1155.9333,61,14,1156.9329,1156.933,1156.9424,,,,0,2,2,2,1,125,20,,,,,,,,
,,59cbe23a916c4d0001094710,65af546351c2a1f8263dc7f1,2024-01-23_06h54.08.365,bars,2023.2.3,Win32,59.88023952,657b66ea316d21385b68909f,,,,,,,,,,,1156.9426,1157.933,,,1158.433,1158.683,,14,14,,,,,,,,,,,,,,,,bars/036.png,bars/mask007.png,,,,,,,,,,,,8,2,,,,,,,3,7,5,10,,,,,,,,,,,1157.9331,1158.433,1158.6831,1161.683,space,2.9849,,1161.6831,49,6,1162.6832,1162.6832,1162.6921,,,,0,3,3,3,1,145,20,,,,,,,,
,,59cbe23a916c4d0001094710,65af546351c2a1f8263dc7f1,2024-01-23_06h54.08.365,bars,2023.2.3,Win32,59.88023952,657b66ea316d21385b68909f,,,,,,,,,,,1162.6923,1163.6828,,,1164.1827,1164.4327,,29,29,,,,,,,,,,,,,,,,bars/034.png,bars/mask007.png,,,,,,,,,,,,0,2,,,,,,,1,5,1,4,,,,,,,,,,,1163.6828,1164.1827,1164.4327,1167.4828,space,3.0429,,1167.4829,84,36,1168.4826,1168.4826,1168.4917,,,,0,4,4,4,1,125,65,,,,,,,,
,,59cbe23a916c4d0001094710,65af546351c2a1f8263dc7f1,2024-01-23_06h54.08.365,bars,2023.2.3,Win32,59.88023952,657b66ea316d21385b68909f,,,,,,,,,,,1168.4919,1169.4826,,,1169.9826,1170.2326,,141,141,,,,,,,,,,,,,,,,bars/023.png,bars/mask000.png,,,,,,,,,,,,0,2,,,,,,,3,3,5,1,,,,,,,,,,,1169.4826,1169.9826,1170.2326,1172.8332,space,2.5863,,1172.8332,59,26,1173.8325,1173.8325,1173.8416,,,,0,5,5,5,1,20,115,,,,,,,,
,,59cbe23a916c4d0001094710,65af546351c2a1f8263dc7f1,2024-01-23_06h54.08.365,bars,2023.2.3,Win32,59.88023952,657b66ea316d21385b68909f,,,,,,,,,,,1173.8418,1174.8325,,,1175.3325,1175.5824,,118,118,,,,,,,,,,,,,,,,bars/001.png,bars/mask002.png,,,,,,,,,,,,4,1,,,,,,,5,1,7,2,,,,,,,,,,,1174.8325,1175.3325,1175.5824,1179.4825,space,3.8845,,1179.4825,12,33,1180.4822,1180.4823,1180.4926,,,,0,6,6,6,1,130,85,,,,,,,,
,,59cbe23a916c4d0001094710,65af546351c2a1f8263dc7f1,2024-01-23_06h54.08.365,bars,2023.2.3,Win32,59.88023952,657b66ea316d21385b68909f,,,,,,,,,,,1180.4928,1181.4822,,,1181.9822,1182.2322,,155,155,,,,,,,,,,,,,,,,bars/003.png,bars/mask004.png,,,,,,,,,,,,2,2,,,,,,,3,3,3,3,,,,,,,,,,,1181.4823,1181.9821,1182.2322,1185.6322,space,3.3953,,1185.6323,50,15,1186.6321,1186.6321,1186.6433,,,,0,7,7,7,1,25,140,,,,,,,,
,,59cbe23a916c4d0001094710,65af546351c2a1f8263dc7f1,2024-01-23_06h54.08.365,bars,2023.2.3,Win32,59.88023952,657b66ea316d21385b68909f,,,,,,,,,,,1186.6434,1187.6318,,,1188.132,1188.3819,,52,52,,,,,,,,,,,,,,,,bars/007.png,bars/mask008.png,,,,,,,,,,,,1,2,,,,,,,5,1,3,1,,,,,,,,,,,1187.6319,1188.1319,1188.382,1191.3822,space,2.9836,,1191.3822,57,3,1192.3818,1192.3819,1192.3912,,,,0,8,8,8,1,175,55,,,,,,,,
,,59cbe23a916c4d0001094710,65af546351c2a1f8263dc7f1,2024-01-23_06h54.08.365,bars,2023.2.3,Win32,59.88023952,657b66ea316d21385b68909f,,,,,,,,,,,1192.3914,1193.3818,,,1193.8819,1194.1318,,155,155,,,,,,,,,,,,,,,,bars/020.png,bars/mask001.png,,,,,,,,,,,,3,2,,,,,,,3,3,2,5,,,,,,,,,,,1193.3818,1193.8818,1194.1318,1197.0321,space,2.8877,,1197.0321,40,15,1198.0316,1198.0316,1198.0407,,,,0,9,9,9,1,115,170,,,,,,,,
,,59cbe23a916c4d0001094710,65af546351c2a1f8263dc7f1,2024-01-23_06h54.08.365,bars,2023.2.3,Win32,59.88023952,657b66ea316d21385b68909f,,,,,,,,,,,1198.0409,1199.0317,,,1199.5317,1199.7816,,153,153,,,,,,,,,,,,,,,,bars/005.png,bars/mask004.png,,,,,,,,,,,,0,2,,,,,,,1,1,0,0,,,,,,,,,,,1199.0317,1199.5317,1199.7816,1204.1649,space,4.3672,,1204.165,37,13,1205.1647,1205.1648,1205.1738,,,,0,10,10,10,1,10,140,,,,,,,,
,,59cbe23a916c4d0001094710,65af546351c2a1f8263dc7f1,2024-01-23_06h54.08.365,bars,2023.2.3,Win32,59.88023952,657b66ea316d21385b68909f,,,,,,,,,,,1205.1739,1206.1647,,,1206.6647,1206.9148,,173,173,,,,,,,,,,,,,,,,bars/000.png,bars/mask003.png,,,,,,,,,,,,0,2,,,,,,,3,0,3,0,,,,,,,,,,,1206.1647,1206.6647,1206.9149,1209.4648,space,2.5442,,1209.4649,47,28,1210.4645,1210.4645,1210.4735,,,,0,11,11,11,1,40,145,,,,,,,,
,,59cbe23a916c4d0001094710,65af546351c2a1f8263dc7f1,2024-01-23_06h54.08.365,bars,2023.2.3,Win32,59.88023952,657b66ea316d21385b68909f,,,,,,,,,,,1210.4738,1211.4645,,,1211.9644,1212.2145,,52,52,,,,,,,,,,,,,,,,bars/007.png,bars/mask009.png,,,,,,,,,,,,0,2,,,,,,,5,0,6,0,,,,,,,,,,,1211.4645,1211.9644,1212.2145,1214.5478,space,2.3248,,1214.5478,57,3,1215.5477,1215.5477,1215.5568,,,,0,12,12,12,1,175,55,,,,,,,,
,,59cbe23a916c4d0001094710,65af546351c2a1f8263dc7f1,2024-01-23_06h54.08.365,bars,2023.2.3,Win32,59.88023952,657b66ea316d21385b68909f,,,,,,,,,,,1215.557,1216.5477,,,1217.0476,1217.2977,,152,-28,,,,,,,,,,,,,,,,bars/048.png,bars/mask009.png,,,,,,,,,,,,0,2,,,,,,,7,2,7,2,,,,,,,,,,,1216.5477,1217.0475,1217.2977,1220.631,space,3.321,,1220.6312,78,23,1221.6308,1221.6309,1221.6399,,,,0,13,13,13,1,50,175,,,,,,,,
,,59cbe23a916c4d0001094710,65af546351c2a1f8263dc7f1,2024-01-23_06h54.08.365,bars,2023.2.3,Win32,59.88023952,657b66ea316d21385b68909f,,,,,,,,,,,1221.6401,1222.6308,,,1223.1309,1223.3808,,87,87,,,,,,,,,,,,,,,,bars/001.png,bars/mask004.png,,,,,,,,,,,,5,2,,,,,,,5,4,6,5,,,,,,,,,,,1222.6309,1223.1308,1223.3809,1227.3474,space,3.9499,,1227.3474,43,2,1228.3473,1228.3473,1228.3562,,,,0,14,14,14,1,130,85,,,,,,,,
,,59cbe23a916c4d0001094710,65af546351c2a1f8263dc7f1,2024-01-23_06h54.08.365,bars,2023.2.3,Win32,59.88023952,657b66ea316d21385b68909f,,,,,,,,,,,1228.3563,1229.3474,,,1229.8473,1230.0972,,145,-35,,,,,,,,,,,,,,,,bars/014.png,bars/mask002.png,,,,,,,,,,,,0,2,,,,,,,3,2,3,1,,,,,,,,,,,1229.3474,1229.8472,1230.0972,1233.0972,space,2.9938,,1233.0973,65,35,1234.097,1234.097,1234.1065,,,,0,15,15,15,1,80,0,,,,,,,,
,,59cbe23a916c4d0001094710,65af546351c2a1f8263dc7f1,2024-01-23_06h54.08.365,bars,2023.2.3,Win32,59.88023952,657b66ea316d21385b68909f,,,,,,,,,,,1234.1066,1235.097,,,1235.5971,1235.8471,,83,83,,,,,,,,,,,,,,,,bars/027.png,bars/mask000.png,,,,,,,,,,,,0,1,,,,,,,1,0,3,0,,,,,,,,,,,1235.097,1235.597,1235.8471,1239.1971,space,3.3396,,1239.1971,27,33,1240.1969,1240.1969,1240.2068,,,,0,16,16,16,1,110,50,,,,,,,,
,,59cbe23a916c4d0001094710,65af546351c2a1f8263dc7f1,2024-01-23_06h54.08.365,bars,2023.2.3,Win32,59.88023952,657b66ea316d21385b68909f,,,,,,,,,,,1240.2069,1241.1968,,,1241.6969,1241.9468,,98,98,,,,,,,,,,,,,,,,bars/006.png,bars/mask006.png,,,,,,,,,,,,1,2,,,,,,,0,2,0,1,,,,,,,,,,,1241.1968,1241.6969,1241.9469,1244.4475,space,2.4962,,1244.4475,63,2,1245.4467,1245.4467,1245.4567,,,,0,17,17,17,1,35,100,,,,,,,,
,,59cbe23a916c4d0001094710,65af546351c2a1f8263dc7f1,2024-01-23_06h54.08.365,bars,2023.2.3,Win32,59.88023952,657b66ea316d21385b68909f,,,,,,,,,,,1245.4569,1246.4466,,,1246.9468,1247.1967,,57,57,,,,,,,,,,,,,,,,bars/011.png,bars/mask006.png,,,,,,,,,,,,0,2,,,,,,,2,4,2,5,,,,,,,,,,,1246.4467,1246.9467,1247.1967,1250.6466,space,3.4334,,1250.6467,77,28,1251.6465,1251.6465,1251.6556,,,,0,18,18,18,1,160,85,,,,,,,,
,,59cbe23a916c4d0001094710,65af546351c2a1f8263dc7f1,2024-01-23_06h54.08.365,bars,2023.2.3,Win32,59.88023952,657b66ea316d21385b68909f,,,,,,,,,,,1251.6559,1252.6464,,,1253.1465,1253.3965,,59,59,,,,,,,,,,,,,,,,bars/026.png,bars/mask001.png,,,,,,,,,,,,0,1,,,,,,,0,2,0,2,,,,,,,,,,,1252.6464,1253.1464,1253.3965,1255.963,space,2.5503,,1255.9631,24,26,1256.963,1256.963,1256.9728,,,,0,19,19,19,1,35,85,,,,,,,,
,,59cbe23a916c4d0001094710,65af546351c2a1f8263dc7f1,2024-01-23_06h54.08.365,bars,2023.2.3,Win32,59.88023952,657b66ea316d21385b68909f,,,,,,,,,,,1256.973,1257.963,,,1258.463,1258.7129,,52,52,,,,,,,,,,,,,,,,bars/029.png,bars/mask004.png,,,,,,,,,,,,3,2,,,,,,,0,4,0,4,,,,,,,,,,,1257.963,1258.4629,1258.7129,1262.6132,space,3.89,,1262.6132,38,7,1263.6127,1263.6128,1263.6228,,,,0,20,20,20,1,90,45,,,,,,,,
,,59cbe23a916c4d0001094710,65af546351c2a1f8263dc7f1,2024-01-23_06h54.08.365,bars,2023.2.3,Win32,59.88023952,657b66ea316d21385b68909f,,,,,,,,,,,1263.623,1264.6127,,,1265.1127,1265.363,,27,207,,,,,,,,,,,,,,,,bars/012.png,bars/mask003.png,,,,,,,,,,,,4,2,,,,,,,0,6,1,7,,,,,,,,,,,1264.6128,1265.1127,1265.363,1269.5627,space,4.1921,,1269.5628,63,12,1270.5625,1270.5626,1270.5718,,,,0,21,21,21,1,90,15,,,,,,,,
,,59cbe23a916c4d0001094710,65af546351c2a1f8263dc7f1,2024-01-23_06h54.08.365,bars,2023.2.3,Win32,59.88023952,657b66ea316d21385b68909f,,,,,,,,,,,1270.572,1271.5625,,,1272.0625,1272.3125,,72,72,,,,,,,,,,,,,,,,bars/019.png,bars/mask004.png,,,,,,,,,,,,0,1,,,,,,,0,4,0,5,,,,,,,,,,,1271.5625,1272.0625,1272.3125,1276.8624,space,4.5336,,1276.8624,27,33,1277.8622,1277.8622,1277.8721,,,,0,22,22,22,1,45,105,,,,,,,,
,,59cbe23a916c4d0001094710,65af546351c2a1f8263dc7f1,2024-01-23_06h54.08.365,bars,2023.2.3,Win32,59.88023952,657b66ea316d21385b68909f,,,,,,,,,,,1277.8724,1278.8622,,,1279.3622,1279.6123,,164,164,,,,,,,,,,,,,,,,bars/000.png,bars/mask002.png,,,,,,,,,,,,2,2,,,,,,,0,6,1,6,,,,,,,,,,,1278.8622,1279.3622,1279.6124,1282.0957,space,2.4784,,1282.0957,56,19,1283.0954,1283.0954,1283.1056,,,,0,23,23,23,1,40,145,,,,,,,,
,,59cbe23a916c4d0001094710,65af546351c2a1f8263dc7f1,2024-01-23_06h54.08.365,bars,2023.2.3,Win32,59.88023952,657b66ea316d21385b68909f,,,,,,,,,,,1283.1058,1284.0953,,,1284.5954,1284.8455,,146,-34,,,,,,,,,,,,,,,,bars/005.png,bars/mask008.png,,,,,,,,,,,,5,2,,,,,,,0,4,1,6,,,,,,,,,,,1284.0953,1284.5954,1284.8455,1288.4954,space,3.6371,,1288.4954,44,6,1289.4952,1289.4952,1289.5046,,,,0,24,24,24,1,10,140,,,,,,,,
,,59cbe23a916c4d0001094710,65af546351c2a1f8263dc7f1,2024-01-23_06h54.08.365,bars,2023.2.3,Win32,59.88023952,657b66ea316d21385b68909f,,,,,,,,,,,1289.5048,1290.4952,,,1290.9952,1291.2452,,163,163,,,,,,,,,,,,,,,,bars/020.png,bars/mask002.png,,,,,,,,,,,,1,2,,,,,,,0,2,0,1,,,,,,,,,,,1290.4952,1290.9952,1291.2452,1294.4785,space,3.2214,,1294.4785,48,7,1295.4783,1295.4783,1295.4874,,,,0,25,25,25,1,115,170,,,,,,,,
,,59cbe23a916c4d0001094710,65af546351c2a1f8263dc7f1,2024-01-23_06h54.08.365,bars,2023.2.3,Win32,59.88023952,657b66ea316d21385b68909f,,,,,,,,,,,1295.4876,1296.4783,,,1296.9783,1297.2283,,65,65,,,,,,,,,,,,,,,,bars/001.png,bars/mask009.png,,,,,,,,,,,,1,2,,,,,,,2,4,4,4,,,,,,,,,,,1296.4783,1296.9783,1297.2284,1300.7283,space,3.4942,,1300.7284,65,20,1301.7281,1301.7281,1301.7373,,,,0,26,26,26,1,130,85,,,,,,,,
,,59cbe23a916c4d0001094710,65af546351c2a1f8263dc7f1,2024-01-23_06h54.08.365,bars,2023.2.3,Win32,59.88023952,657b66ea316d21385b68909f,,,,,,,,,,,1301.7375,1302.728,,,1303.2283,1303.478,,160,160,,,,,,,,,,,,,,,,bars/000.png,bars/mask009.png,,,,,,,,,,,,3,2,,,,,,,0,2,0,5,,,,,,,,,,,1302.7281,1303.2282,1303.478,1305.7281,space,2.2443,,1305.7282,60,15,1306.728,1306.7281,1306.7373,,,,0,27,27,27,1,40,145,,,,,,,,
,,59cbe23a916c4d0001094710,65af546351c2a1f8263dc7f1,2024-01-23_06h54.08.365,bars,2023.2.3,Win32,59.88023952,657b66ea316d21385b68909f,,,,,,,,,,,1306.7376,1307.7278,,,1308.228,1308.4779,,137,-43,,,,,,,,,,,,,,,,bars/004.png,bars/mask008.png,,,,,,,,,,,,2,2,,,,,,,2,4,1,4,,,,,,,,,,,1307.7278,1308.228,1308.478,1312.3277,space,3.8445,,1312.3278,68,12,1313.3278,1313.3278,1313.3367,,,,0,28,28,28,1,25,125,,,,,,,,
,,59cbe23a916c4d0001094710,65af546351c2a1f8263dc7f1,2024-01-23_06h54.08.365,bars,2023.2.3,Win32,59.88023952,657b66ea316d21385b68909f,,,,,,,,,,,1313.337,1314.3276,,,1314.8278,1315.0778,,167,167,,,,,,,,,,,,,,,,bars/024.png,bars/mask000.png,,,,,,,,,,,,3,2,,,,,,,0,2,0,3,,,,,,,,,,,1314.3276,1314.8277,1315.0778,1317.6277,space,2.5337,,1317.6279,47,3,1318.6274,1318.6275,1318.6363,,,,0,29,29,29,1,120,170,,,,,,,,
,,59cbe23a916c4d0001094710,65af546351c2a1f8263dc7f1,2024-01-23_06h54.08.365,bars,2023.2.3,Win32,59.88023952,657b66ea316d21385b68909f,,,,,,,,,,,1318.6365,1319.6275,,,1320.1275,1320.3774,,39,219,,,,,,,,,,,,,,,,bars/040.png,bars/mask001.png,,,,,,,,,,,,0,2,,,,,,,0,4,0,6,,,,,,,,,,,1319.6276,1320.1275,1320.3775,1324.8107,space,4.4176,,1324.8108,79,34,1325.8106,1325.8107,1325.8199,,,,0,30,30,30,1,140,5,,,,,,,,
,,59cbe23a916c4d0001094710,65af546351c2a1f8263dc7f1,2024-01-23_06h54.08.365,bars,2023.2.3,Win32,59.88023952,657b66ea316d21385b68909f,,,,,,,,,,,1325.8201,1326.8106,,,1327.3107,1327.5606,,89,89,,,,,,,,,,,,,,,,bars/046.png,bars/mask003.png,,,,,,,,,,,,1,2,,,,,,,0,2,1,1,,,,,,,,,,,1326.8106,1327.3107,1327.5606,1329.794,space,2.2256,,1329.794,66,4,1330.7938,1330.7938,1330.8027,,,,0,31,31,31,1,155,85,,,,,,,,
,,59cbe23a916c4d0001094710,65af546351c2a1f8263dc7f1,2024-01-23_06h54.08.365,bars,2023.2.3,Win32,59.88023952,657b66ea316d21385b68909f,,,,,,,,,,,1330.8029,1331.7938,,,1332.2938,1332.5438,,3,3,,,,,,,,,,,,,,,,bars/045.png,bars/mask003.png,,,,,,,,,,,,4,2,,,,,,,2,4,1,5,,,,,,,,,,,1331.7938,1332.2938,1332.5438,1335.2272,space,2.6671,,1335.2273,83,7,1336.2269,1336.2269,1336.2361,,,,0,32,32,32,1,100,10,,,,,,,,
,,59cbe23a916c4d0001094710,65af546351c2a1f8263dc7f1,2024-01-23_06h54.08.365,bars,2023.2.3,Win32,59.88023952,657b66ea316d21385b68909f,,,,,,,,,,,1336.2363,1337.2269,,,1337.7269,1337.9769,,54,54,,,,,,,,,,,,,,,,bars/047.png,bars/mask009.png,,,,,,,,,,,,2,2,,,,,,,4,2,2,4,,,,,,,,,,,1337.2269,1337.7269,1337.977,1340.4436,space,2.4567,,1340.4436,39,16,1341.4435,1341.4435,1341.4442,,,,0,33,33,33,1,15,70,,,,,,,,
,,59cbe23a916c4d0001094710,65af546351c2a1f8263dc7f1,2024-01-23_06h54.08.365,bars,2023.2.3,Win32,59.88023952,657b66ea316d21385b68909f,,,,,,,,,,,1341.4444,1342.4435,,,1342.9434,1343.1933,,42,222,,,,,,,,,,,,,,,,bars/012.png,bars/mask002.png,,,,,,,,,,,,0,2,,,,,,,2,4,0,3,,,,,,,,,,,1342.4435,1342.9434,1343.1933,1347.7601,space,4.5607,,1347.7602,48,27,1348.7599,1348.7599,1348.7689,,,,0,34,34,34,1,90,15,,,,,,,,
,,59cbe23a916c4d0001094710,65af546351c2a1f8263dc7f1,2024-01-23_06h54.08.365,bars,2023.2.3,Win32,59.88023952,657b66ea316d21385b68909f,,,,,,,,,,,1348.7691,1349.7599,,,1350.2599,1350.5098,,5,5,,,,,,,,,,,,,,,,bars/014.png,bars/mask004.png,,,,,,,,,,,,5,2,,,,,,,0,6,0,6,,,,,,,,,,,1349.7599,1350.2598,1350.5098,1354.0765,space,3.5508,,1354.0765,75,5,1355.0765,1355.0765,1355.0856,,,,0,35,35,35,1,80,0,,,,,,,,
,,59cbe23a916c4d0001094710,65af546351c2a1f8263dc7f1,2024-01-23_06h54.08.365,bars,2023.2.3,Win32,59.88023952,657b66ea316d21385b68909f,,,,,,,,,,,1355.0857,1356.0763,,,1356.5764,1356.8263,,153,153,,,,,,,,,,,,,,,,bars/000.png,bars/mask001.png,,,,,,,,,,,,2,2,,,,,,,0,4,0,3,,,,,,,,,,,1356.0763,1356.5764,1356.8263,1359.1764,space,2.3432,,1359.1764,67,8,1360.1762,1360.1762,1360.1852,,,,0,36,36,36,1,40,145,,,,,,,,
,,59cbe23a916c4d0001094710,65af546351c2a1f8263dc7f1,2024-01-23_06h54.08.365,bars,2023.2.3,Win32,59.88023952,657b66ea316d21385b68909f,,,,,,,,,,,1360.1854,1361.1761,,,1361.6762,1361.9261,,100,100,,,,,,,,,,,,,,,,bars/037.png,bars/mask001.png,,,,,,,,,,,,4,2,,,,,,,0,6,0,5,,,,,,,,,,,1361.1761,1361.6762,1361.9261,1364.0261,space,2.0839,,1364.0261,50,5,1365.026,1365.026,1365.0267,,,,0,37,37,37,1,150,105,,,,,,,,
,,59cbe23a916c4d0001094710,65af546351c2a1f8263dc7f1,2024-01-23_06h54.08.365,bars,2023.2.3,Win32,59.88023952,657b66ea316d21385b68909f,,,,,,,,,,,1365.0269,1366.0259,,,1366.5259,1366.7761,,2,2,,,,,,,,,,,,,,,,bars/036.png,bars/mask008.png,,,,,,,,,,,,2,2,,,,,,,0,4,0,6,,,,,,,,,,,1366.026,1366.5259,1366.7761,1369.5259,space,2.7333,,1369.526,37,18,1370.5257,1370.5258,1370.5348,,,,0,38,38,38,1,145,20,,,,,,,,
,,59cbe23a916c4d0001094710,65af546351c2a1f8263dc7f1,2024-01-23_06h54.08.365,bars,2023.2.3,Win32,59.88023952,657b66ea316d21385b68909f,,,,,,,,,,,1370.5349,1371.5258,,,1372.0258,1372.2758,,57,57,,,,,,,,,,,,,,,,bars/030.png,bars/mask005.png,,,,,,,,,,,,1,2,,,,,,,2,2,1,2,,,,,,,,,,,1371.5258,1372.0258,1372.2758,1376.7924,space,4.51,,1376.7925,83,8,1377.7923,1377.7923,1377.8016,,,,0,39,39,39,1,140,65,,,,,,,,
,,59cbe23a916c4d0001094710,65af546351c2a1f8263dc7f1,2024-01-23_06h54.08.365,bars,2023.2.3,Win32,59.88023952,657b66ea316d21385b68909f,,,,,,,,,,,1377.8018,1378.7921,,,1379.2922,1379.5421,,162,-18,,,,,,,,,,,,,,,,bars/014.png,bars/mask009.png,,,,,,,,,,,,1,2,,,,,,,4,4,4,3,,,,,,,,,,,1378.7922,1379.2922,1379.5422,1382.1755,space,2.619,,1382.1755,82,18,1383.1754,1383.1754,1383.1849,,,,0,40,40,40,1,80,0,,,,,,,,
,,59cbe23a916c4d0001094710,65af546351c2a1f8263dc7f1,2024-01-23_06h54.08.365,bars,2023.2.3,Win32,59.88023952,657b66ea316d21385b68909f,,,,,,,,,,,1383.1851,1384.1753,,,1384.6754,1384.9253,,79,79,,,,,,,,,,,,,,,,bars/035.png,bars/mask001.png,,,,,,,,,,,,1,2,,,,,,,6,2,5,3,,,,,,,,,,,1384.1754,1384.6754,1384.9254,1388.0088,space,3.0761,,1388.0088,84,19,1389.0085,1389.0085,1389.0175,,,,0,41,41,41,1,175,60,,,,,,,,
,,59cbe23a916c4d0001094710,65af546351c2a1f8263dc7f1,2024-01-23_06h54.08.365,bars,2023.2.3,Win32,59.88023952,657b66ea316d21385b68909f,,,,,,,,,,,1389.0177,1390.0085,,,1390.5085,1390.7584,,163,163,,,,,,,,,,,,,,,,bars/024.png,bars/mask005.png,,,,,,,,,,,,2,2,,,,,,,4,4,4,3,,,,,,,,,,,1390.0086,1390.5084,1390.7584,1393.4085,space,2.6348,,1393.4085,43,7,1394.4084,1394.4084,1394.4174,,,,0,42,42,42,1,120,170,,,,,,,,
,,59cbe23a916c4d0001094710,65af546351c2a1f8263dc7f1,2024-01-23_06h54.08.365,bars,2023.2.3,Win32,59.88023952,657b66ea316d21385b68909f,,,,,,,,,,,1394.4175,1395.4083,,,1395.9084,1396.1584,,139,-41,,,,,,,,,,,,,,,,bars/015.png,bars/mask008.png,,,,,,,,,,,,2,2,,,,,,,2,6,4,6,,,,,,,,,,,1395.4083,1395.9084,1396.1584,1399.3583,space,3.1868,,1399.3584,29,21,1400.3581,1400.3581,1400.3673,,,,0,43,43,43,1,110,160,,,,,,,,
,,59cbe23a916c4d0001094710,65af546351c2a1f8263dc7f1,2024-01-23_06h54.08.365,bars,2023.2.3,Win32,59.88023952,657b66ea316d21385b68909f,,,,,,,,,,,1400.3675,1401.3581,,,1401.8581,1402.1081,,22,22,,,,,,,,,,,,,,,,bars/007.png,bars/mask000.png,,,,,,,,,,,,0,1,,,,,,,4,4,5,3,,,,,,,,,,,1401.3581,1401.8581,1402.1082,1404.8749,space,2.7509,,1404.8749,27,33,1405.8746,1405.8746,1405.8848,,,,0,44,44,44,1,175,55,,,,,,,,
,,59cbe23a916c4d0001094710,65af546351c2a1f8263dc7f1,2024-01-23_06h54.08.365,bars,2023.2.3,Win32,59.88023952,657b66ea316d21385b68909f,,,,,,,,,,,1405.8849,1406.8745,,,1407.3746,1407.6245,,68,68,,,,,,,,,,,,,,,,bars/047.png,bars/mask008.png,,,,,,,,,,,,6,2,,,,,,,6,6,5,6,,,,,,,,,,,1406.8745,1407.3745,1407.6245,1411.2746,space,3.6344,,1411.2746,53,2,1412.2744,1412.2745,1412.2846,,,,0,45,45,45,1,15,70,,,,,,,,
,,59cbe23a916c4d0001094710,65af546351c2a1f8263dc7f1,2024-01-23_06h54.08.365,bars,2023.2.3,Win32,59.88023952,657b66ea316d21385b68909f,,,,,,,,,,,1412.2848,1413.2744,,,1413.7744,1414.0243,,69,249,,,,,,,,,,,,,,,,bars/048.png,bars/mask007.png,,,,,,,,,,,,1,1,,,,,,,4,4,3,5,,,,,,,,,,,1413.2745,1413.7744,1414.0243,1418.5577,space,4.521,,1418.5577,19,74,1419.5575,1419.5575,1419.5676,,,,0,46,46,46,1,50,175,,,,,,,,
,,59cbe23a916c4d0001094710,65af546351c2a1f8263dc7f1,2024-01-23_06h54.08.365,bars,2023.2.3,Win32,59.88023952,657b66ea316d21385b68909f,,,,,,,,,,,1419.5679,1420.5574,,,1421.0574,1421.3075,,135,-45,,,,,,,,,,,,,,,,bars/024.png,bars/mask006.png,,,,,,,,,,,,3,1,,,,,,,6,6,6,5,,,,,,,,,,,1420.5574,1421.0574,1421.3075,1424.1742,space,2.862,,1424.1743,15,35,1425.174,1425.174,1425.1833,,,,0,47,47,47,1,120,170,,,,,,,,
,,59cbe23a916c4d0001094710,65af546351c2a1f8263dc7f1,2024-01-23_06h54.08.365,bars,2023.2.3,Win32,59.88023952,657b66ea316d21385b68909f,,,,,,,,,,,1425.1836,1426.174,,,1426.674,1426.924,,74,254,,,,,,,,,,,,,,,,bars/042.png,bars/mask006.png,,,,,,,,,,,,9,2,,,,,,,4,8,5,9,,,,,,,,,,,1426.174,1426.674,1426.924,1431.0572,space,4.1174,,1431.0572,71,1,1432.0569,1432.0569,1432.0669,,,,0,48,48,48,1,145,75,,,,,,,,
,,59cbe23a916c4d0001094710,65af546351c2a1f8263dc7f1,2024-01-23_06h54.08.365,bars,2023.2.3,Win32,59.88023952,657b66ea316d21385b68909f,,,,,,,,,,,1432.067,1433.057,,,1433.5571,1433.807,,13,193,,,,,,,,,,,,,,,,bars/040.png,bars/mask007.png,,,,,,,,,,,,7,2,,,,,,,2,10,2,10,,,,,,,,,,,1433.0571,1433.557,1433.8071,1436.0237,space,2.2103,,1436.0237,53,8,1437.0236,1437.0236,1437.0242,,,,0,49,49,49,1,140,5,,,,,,,,
,,59cbe23a916c4d0001094710,65af546351c2a1f8263dc7f1,2024-01-23_06h54.08.365,bars,2023.2.3,Win32,59.88023952,657b66ea316d21385b68909f,,,,,,,,,,,,,,,,,,,,,,,,,,,,,,,,,,,,,,,,,,,,,,,,,,,,,,,,,,,,,,,,,,,,,,,,,,,,,,,,,,,,,,,,,,,,,1437.0243,1500.5534,0,2,2,4,1,sequence_tables/blk022.csv
,,59cbe23a916c4d0001094710,65af546351c2a1f8263dc7f1,2024-01-23_06h54.08.365,bars,2023.2.3,Win32,59.88023952,657b66ea316d21385b68909f,,,,,,,,,,,1501.8102,1502.8047,,,1503.3047,1503.5546,,64,64,,,,,,,,,,,,,,,,bars/002.png,bars/mask008.png,,,,,,,,,,,,0,2,,,,,,,4,1,3,0,,,,,,1500.5653,1501.8053,space,1.2171,,1502.8047,1503.3047,1503.5546,1508.2879,space,4.7257,,1508.2879,66,21,1509.2876,1509.2877,1509.2966,,,,0,0,0,0,1,130,85,,,,,,,,
,,59cbe23a916c4d0001094710,65af546351c2a1f8263dc7f1,2024-01-23_06h54.08.365,bars,2023.2.3,Win32,59.88023952,657b66ea316d21385b68909f,,,,,,,,,,,1509.2968,1510.2878,,,1510.7878,1511.0376,,53,53,,,,,,,,,,,,,,,,bars/034.png,bars/mask002.png,,,,,,,,,,,,0,2,,,,,,,6,0,5,0,,,,,,,,,,,1510.2878,1510.7877,1511.0377,1515.6878,space,4.6426,,1515.6879,72,12,1516.6878,1516.6878,1516.6969,,,,0,1,1,1,1,125,65,,,,,,,,
,,59cbe23a916c4d0001094710,65af546351c2a1f8263dc7f1,2024-01-23_06h54.08.365,bars,2023.2.3,Win32,59.88023952,657b66ea316d21385b68909f,,,,,,,,,,,1516.697,1517.6874,,,1518.1876,1518.4376,,45,225,,,,,,,,,,,,,,,,bars/007.png,bars/mask004.png,,,,,,,,,,,,2,2,,,,,,,4,0,4,3,,,,,,,,,,,1517.6875,1518.1876,1518.4376,1523.5207,space,5.0739,,1523.5207,50,10,1524.5205,1524.5206,1524.5304,,,,0,2,2,2,1,175,55,,,,,,,,
,,59cbe23a916c4d0001094710,65af546351c2a1f8263dc7f1,2024-01-23_06h54.08.365,bars,2023.2.3,Win32,59.88023952,657b66ea316d21385b68909f,,,,,,,,,,,1524.5307,1525.5206,,,1526.0205,1526.2705,,61,241,,,,,,,,,,,,,,,,bars/030.png,bars/mask009.png,,,,,,,,,,,,1,2,,,,,,,2,2,3,1,,,,,,,,,,,1525.5206,1526.0205,1526.2706,1529.5038,space,3.2231,,1529.5039,79,4,1530.5038,1530.5038,1530.5127,,,,0,3,3,3,1,140,65,,,,,,,,
,,59cbe23a916c4d0001094710,65af546351c2a1f8263dc7f1,2024-01-23_06h54.08.365,bars,2023.2.3,Win32,59.88023952,657b66ea316d21385b68909f,,,,,,,,,,,1530.5129,1531.5037,,,1532.0038,1532.2538,,133,-47,,,,,,,,,,,,,,,,bars/028.png,bars/mask006.png,,,,,,,,,,,,2,2,,,,,,,4,4,4,4,,,,,,,,,,,1531.5038,1532.0037,1532.2538,1536.654,space,4.3847,,1536.654,88,13,1537.6535,1537.6536,1537.6628,,,,0,4,4,4,1,45,120,,,,,,,,
,,59cbe23a916c4d0001094710,65af546351c2a1f8263dc7f1,2024-01-23_06h54.08.365,bars,2023.2.3,Win32,59.88023952,657b66ea316d21385b68909f,,,,,,,,,,,1537.663,1538.6534,,,1539.1536,1539.4034,,129,129,,,,,,,,,,,,,,,,bars/009.png,bars/mask004.png,,,,,,,,,,,,1,2,,,,,,,2,6,2,6,,,,,,,,,,,1538.6535,1539.1535,1539.4034,1544.0701,space,4.658,,1544.0702,66,24,1545.0699,1545.0699,1545.0789,,,,0,5,5,5,1,15,105,,,,,,,,
,,59cbe23a916c4d0001094710,65af546351c2a1f8263dc7f1,2024-01-23_06h54.08.365,bars,2023.2.3,Win32,59.88023952,657b66ea316d21385b68909f,,,,,,,,,,,1545.079,1546.0699,,,1546.5699,1546.8198,,59,59,,,,,,,,,,,,,,,,bars/009.png,bars/mask009.png,,,,,,,,,,,,0,1,,,,,,,4,4,5,4,,,,,,,,,,,1546.0699,1546.5699,1546.8198,1550.8366,space,4.0016,,1550.8367,44,46,1551.8363,1551.8363,1551.8468,,,,0,6,6,6,1,15,105,,,,,,,,
,,59cbe23a916c4d0001094710,65af546351c2a1f8263dc7f1,2024-01-23_06h54.08.365,bars,2023.2.3,Win32,59.88023952,657b66ea316d21385b68909f,,,,,,,,,,,1551.847,1552.8363,,,1553.3363,1553.5864,,37,217,,,,,,,,,,,,,,,,bars/016.png,bars/mask002.png,,,,,,,,,,,,1,1,,,,,,,2,6,1,5,,,,,,,,,,,1552.8363,1553.3363,1553.5864,1557.4363,space,3.8337,,1557.4364,3,52,1558.4361,1558.4362,1558.4453,,,,0,7,7,7,1,40,165,,,,,,,,
,,59cbe23a916c4d0001094710,65af546351c2a1f8263dc7f1,2024-01-23_06h54.08.365,bars,2023.2.3,Win32,59.88023952,657b66ea316d21385b68909f,,,,,,,,,,,1558.4454,1559.436,,,1559.9362,1560.186,,74,-106,,,,,,,,,,,,,,,,bars/002.png,bars/mask000.png,,,,,,,,,,,,3,2,,,,,,,0,4,0,5,,,,,,,,,,,1559.4361,1559.9361,1560.186,1566.0694,space,5.876,,1566.0695,56,11,1567.0692,1567.0692,1567.0802,,,,0,8,8,8,1,130,85,,,,,,,,
,,59cbe23a916c4d0001094710,65af546351c2a1f8263dc7f1,2024-01-23_06h54.08.365,bars,2023.2.3,Win32,59.88023952,657b66ea316d21385b68909f,,,,,,,,,,,1567.0805,1568.0692,,,1568.5691,1568.8191,,113,-67,,,,,,,,,,,,,,,,bars/039.png,bars/mask009.png,,,,,,,,,,,,4,2,,,,,,,2,6,3,5,,,,,,,,,,,1568.0692,1568.5691,1568.8191,1573.3525,space,4.5178,,1573.3525,62,8,1574.3523,1574.3523,1574.3619,,,,0,9,9,9,1,175,105,,,,,,,,
,,59cbe23a916c4d0001094710,65af546351c2a1f8263dc7f1,2024-01-23_06h54.08.365,bars,2023.2.3,Win32,59.88023952,657b66ea316d21385b68909f,,,,,,,,,,,1574.362,1575.3522,,,1575.8523,1576.1022,,13,13,,,,,,,,,,,,,,,,bars/016.png,bars/mask008.png,,,,,,,,,,,,1,1,,,,,,,4,8,7,8,,,,,,,,,,,1575.3523,1575.8522,1576.1022,1579.8689,space,3.7599,,1579.869,27,28,1580.8687,1580.8687,1580.8785,,,,0,10,10,10,1,40,165,,,,,,,,
,,59cbe23a916c4d0001094710,65af546351c2a1f8263dc7f1,2024-01-23_06h54.08.365,bars,2023.2.3,Win32,59.88023952,657b66ea316d21385b68909f,,,,,,,,,,,1580.8787,1581.8686,,,1582.3687,1582.6187,,117,117,,,,,,,,,,,,,,,,bars/002.png,bars/mask001.png,,,,,,,,,,,,2,1,,,,,,,2,10,3,8,,,,,,,,,,,1581.8686,1582.3687,1582.6187,1585.5353,space,2.9065,,1585.5354,13,32,1586.5352,1586.5352,1586.5442,,,,0,11,11,11,1,130,85,,,,,,,,
,,59cbe23a916c4d0001094710,65af546351c2a1f8263dc7f1,2024-01-23_06h54.08.365,bars,2023.2.3,Win32,59.88023952,657b66ea316d21385b68909f,,,,,,,,,,,1586.5444,1587.5351,,,1588.0351,1588.2852,,156,156,,,,,,,,,,,,,,,,bars/015.png,bars/mask006.png,,,,,,,,,,,,9,2,,,,,,,0,10,2,10,,,,,,,,,,,1587.5351,1588.0351,1588.2852,1590.935,space,2.6402,,1590.9352,46,4,1591.935,1591.9351,1591.9448,,,,0,12,12,12,1,110,160,,,,,,,,
,,59cbe23a916c4d0001094710,65af546351c2a1f8263dc7f1,2024-01-23_06h54.08.365,bars,2023.2.3,Win32,59.88023952,657b66ea316d21385b68909f,,,,,,,,,,,1591.9449,1592.9349,,,1593.4349,1593.6849,,70,70,,,,,,,,,,,,,,,,bars/019.png,bars/mask002.png,,,,,,,,,,,,0,1,,,,,,,2,8,2,8,,,,,,,,,,,1592.9349,1593.4349,1593.6849,1597.0349,space,3.3368,,1597.035,25,35,1598.0347,1598.0347,1598.0447,,,,0,13,13,13,1,45,105,,,,,,,,
,,59cbe23a916c4d0001094710,65af546351c2a1f8263dc7f1,2024-01-23_06h54.08.365,bars,2023.2.3,Win32,59.88023952,657b66ea316d21385b68909f,,,,,,,,,,,1598.0449,1599.0347,,,1599.5347,1599.7848,,162,162,,,,,,,,,,,,,,,,bars/020.png,bars/mask008.png,,,,,,,,,,,,4,2,,,,,,,4,6,5,5,,,,,,,,,,,1599.0348,1599.5347,1599.7848,1603.6847,space,3.8931,,1603.6848,47,8,1604.6845,1604.6846,1604.695,,,,0,14,14,14,1,115,170,,,,,,,,
,,59cbe23a916c4d0001094710,65af546351c2a1f8263dc7f1,2024-01-23_06h54.08.365,bars,2023.2.3,Win32,59.88023952,657b66ea316d21385b68909f,,,,,,,,,,,1604.6952,1605.6845,,,1606.1845,1606.4345,,66,66,,,,,,,,,,,,,,,,bars/001.png,bars/mask008.png,,,,,,,,,,,,3,2,,,,,,,6,8,5,8,,,,,,,,,,,1605.6846,1606.1845,1606.4345,1610.8682,space,4.4267,,1610.8683,64,19,1611.8675,1611.8675,1611.8765,,,,0,15,15,15,1,130,85,,,,,,,,
,,59cbe23a916c4d0001094710,65af546351c2a1f8263dc7f1,2024-01-23_06h54.08.365,bars,2023.2.3,Win32,59.88023952,657b66ea316d21385b68909f,,,,,,,,,,,1611.8767,1612.8676,,,1613.3676,1613.6175,,136,-44,,,,,,,,,,,,,,,,bars/049.png,bars/mask001.png,,,,,,,,,,,,2,2,,,,,,,8,6,8,7,,,,,,,,,,,1612.8677,1613.3676,1613.6176,1616.6176,space,2.9877,,1616.6177,24,21,1617.6174,1617.6174,1617.6264,,,,0,16,16,16,1,160,115,,,,,,,,
,,59cbe23a916c4d0001094710,65af546351c2a1f8263dc7f1,2024-01-23_06h54.08.365,bars,2023.2.3,Win32,59.88023952,657b66ea316d21385b68909f,,,,,,,,,,,1617.6265,1618.6174,,,1619.1174,1619.3673,,109,109,,,,,,,,,,,,,,,,bars/023.png,bars/mask002.png,,,,,,,,,,,,2,2,,,,,,,10,4,10,3,,,,,,,,,,,1618.6174,1619.1174,1619.3674,1621.8515,space,2.4784,,1621.8516,89,6,1622.8505,1622.8506,1622.8595,,,,0,17,17,17,1,20,115,,,,,,,,
,,59cbe23a916c4d0001094710,65af546351c2a1f8263dc7f1,2024-01-23_06h54.08.365,bars,2023.2.3,Win32,59.88023952,657b66ea316d21385b68909f,,,,,,,,,,,1622.8597,1623.8505,,,1624.3505,1624.6006,,147,-33,,,,,,,,,,,,,,,,bars/044.png,bars/mask001.png,,,,,,,,,,,,1,2,,,,,,,10,2,10,2,,,,,,,,,,,1623.8506,1624.3505,1624.6007,1627.1006,space,2.4848,,1627.1007,72,8,1628.1004,1628.1005,1628.1094,,,,0,18,18,18,1,75,155,,,,,,,,
,,59cbe23a916c4d0001094710,65af546351c2a1f8263dc7f1,2024-01-23_06h54.08.365,bars,2023.2.3,Win32,59.88023952,657b66ea316d21385b68909f,,,,,,,,,,,1628.1096,1629.1004,,,1629.6005,1629.8504,,58,58,,,,,,,,,,,,,,,,bars/027.png,bars/mask005.png,,,,,,,,,,,,3,2,,,,,,,8,4,9,4,,,,,,,,,,,1629.1004,1629.6004,1629.8504,1633.1671,space,3.3071,,1633.1671,52,8,1634.1668,1634.1669,1634.1759,,,,0,19,19,19,1,110,50,,,,,,,,
,,59cbe23a916c4d0001094710,65af546351c2a1f8263dc7f1,2024-01-23_06h54.08.365,bars,2023.2.3,Win32,59.88023952,657b66ea316d21385b68909f,,,,,,,,,,,1634.1761,1635.1668,,,1635.6672,1635.917,,59,59,,,,,,,,,,,,,,,,bars/041.png,bars/mask001.png,,,,,,,,,,,,0,2,,,,,,,10,2,10,3,,,,,,,,,,,1635.1669,1635.6672,1635.917,1638.8335,space,2.9038,,1638.8335,39,26,1639.8334,1639.8334,1639.8423,,,,0,20,20,20,1,20,85,,,,,,,,
,,59cbe23a916c4d0001094710,65af546351c2a1f8263dc7f1,2024-01-23_06h54.08.365,bars,2023.2.3,Win32,59.88023952,657b66ea316d21385b68909f,,,,,,,,,,,1639.8426,1640.8333,,,1641.3334,1641.5832,,28,28,,,,,,,,,,,,,,,,bars/017.png,bars/mask001.png,,,,,,,,,,,,0,2,,,,,,,10,0,9,0,,,,,,,,,,,1640.8333,1641.3333,1641.5833,1643.9667,space,2.3741,,1643.9667,63,17,1644.9665,1644.9665,1644.9759,,,,0,21,21,21,1,145,45,,,,,,,,
,,59cbe23a916c4d0001094710,65af546351c2a1f8263dc7f1,2024-01-23_06h54.08.365,bars,2023.2.3,Win32,59.88023952,657b66ea316d21385b68909f,,,,,,,,,,,1644.9761,1645.9665,,,1646.4665,1646.7164,,135,135,,,,,,,,,,,,,,,,bars/043.png,bars/mask007.png,,,,,,,,,,,,0,2,,,,,,,8,0,7,0,,,,,,,,,,,1645.9665,1646.4665,1646.7164,1650.4832,space,3.7521,,1650.4832,75,5,1651.483,1651.483,1651.4923,,,,0,22,22,22,1,30,130,,,,,,,,
,,59cbe23a916c4d0001094710,65af546351c2a1f8263dc7f1,2024-01-23_06h54.08.365,bars,2023.2.3,Win32,59.88023952,657b66ea316d21385b68909f,,,,,,,,,,,1651.4925,1652.483,,,1652.983,1653.2329,,73,73,,,,,,,,,,,,,,,,bars/012.png,bars/mask003.png,,,,,,,,,,,,2,1,,,,,,,6,0,4,0,,,,,,,,,,,1652.483,1652.9829,1653.2329,1656.7495,space,3.5012,,1656.7496,17,58,1657.7494,1657.7494,1657.7593,,,,0,23,23,23,1,90,15,,,,,,,,
,,59cbe23a916c4d0001094710,65af546351c2a1f8263dc7f1,2024-01-23_06h54.08.365,bars,2023.2.3,Win32,59.88023952,657b66ea316d21385b68909f,,,,,,,,,,,1657.7595,1658.7494,,,1659.2494,1659.4993,,109,109,,,,,,,,,,,,,,,,bars/039.png,bars/mask004.png,,,,,,,,,,,,0,2,,,,,,,8,0,8,0,,,,,,,,,,,1658.7494,1659.2493,1659.4994,1662.8827,space,3.3677,,1662.8828,66,4,1663.8826,1663.8826,1663.8925,,,,0,24,24,24,1,175,105,,,,,,,,
,,59cbe23a916c4d0001094710,65af546351c2a1f8263dc7f1,2024-01-23_06h54.08.365,bars,2023.2.3,Win32,59.88023952,657b66ea316d21385b68909f,,,,,,,,,,,1663.8926,1664.8825,,,1665.3826,1665.6325,,17,17,,,,,,,,,,,,,,,,bars/032.png,bars/mask007.png,,,,,,,,,,,,0,2,,,,,,,6,0,5,0,,,,,,,,,,,1664.8825,1665.3825,1665.6326,1666.8494,space,1.2005,,1666.8494,72,3,1667.8491,1667.8491,1667.8498,,,,0,25,25,25,1,125,20,,,,,,,,
,,59cbe23a916c4d0001094710,65af546351c2a1f8263dc7f1,2024-01-23_06h54.08.365,bars,2023.2.3,Win32,59.88023952,657b66ea316d21385b68909f,,,,,,,,,,,1667.85,1668.849,,,1669.3491,1669.599,,150,150,,,,,,,,,,,,,,,,bars/008.png,bars/mask001.png,,,,,,,,,,,,0,2,,,,,,,8,2,7,4,,,,,,,,,,,1668.849,1669.3491,1669.599,1672.0658,space,2.4534,,1672.0658,40,30,1673.0655,1673.0656,1673.0748,,,,0,26,26,26,1,110,0,,,,,,,,
,,59cbe23a916c4d0001094710,65af546351c2a1f8263dc7f1,2024-01-23_06h54.08.365,bars,2023.2.3,Win32,59.88023952,657b66ea316d21385b68909f,,,,,,,,,,,1673.075,1674.0655,,,1674.5655,1674.8155,,5,5,,,,,,,,,,,,,,,,bars/036.png,bars/mask002.png,,,,,,,,,,,,1,2,,,,,,,6,0,6,1,,,,,,,,,,,1674.0656,1674.5655,1674.8156,1677.1656,space,2.3417,,1677.1657,40,15,1678.1654,1678.1654,1678.1744,,,,0,27,27,27,1,145,20,,,,,,,,
,,59cbe23a916c4d0001094710,65af546351c2a1f8263dc7f1,2024-01-23_06h54.08.365,bars,2023.2.3,Win32,59.88023952,657b66ea316d21385b68909f,,,,,,,,,,,1678.1745,1679.1654,,,1679.6653,1679.9154,,51,231,,,,,,,,,,,,,,,,bars/012.png,bars/mask003.png,,,,,,,,,,,,0,2,,,,,,,4,2,4,3,,,,,,,,,,,1679.1654,1679.6653,1679.9155,1684.332,space,4.4088,,1684.332,39,36,1685.3319,1685.3319,1685.3409,,,,0,28,28,28,1,90,15,,,,,,,,
,,59cbe23a916c4d0001094710,65af546351c2a1f8263dc7f1,2024-01-23_06h54.08.365,bars,2023.2.3,Win32,59.88023952,657b66ea316d21385b68909f,,,,,,,,,,,1685.341,1686.3318,,,1686.8319,1687.0817,,43,43,,,,,,,,,,,,,,,,bars/040.png,bars/mask009.png,,,,,,,,,,,,0,2,,,,,,,2,0,2,0,,,,,,,,,,,1686.3318,1686.8318,1687.0817,1689.7819,space,2.6838,,1689.7819,83,38,1690.7816,1690.7817,1690.7907,,,,0,29,29,29,1,140,5,,,,,,,,
,,59cbe23a916c4d0001094710,65af546351c2a1f8263dc7f1,2024-01-23_06h54.08.365,bars,2023.2.3,Win32,59.88023952,657b66ea316d21385b68909f,,,,,,,,,,,1690.7909,1691.7816,,,1692.2816,1692.5316,,50,50,,,,,,,,,,,,,,,,bars/047.png,bars/mask007.png,,,,,,,,,,,,0,2,,,,,,,4,0,4,0,,,,,,,,,,,1691.7816,1692.2816,1692.5317,1696.1983,space,3.6572,,1696.1983,35,20,1697.1981,1697.1981,1697.2071,,,,0,30,30,30,1,15,70,,,,,,,,
,,59cbe23a916c4d0001094710,65af546351c2a1f8263dc7f1,2024-01-23_06h54.08.365,bars,2023.2.3,Win32,59.88023952,657b66ea316d21385b68909f,,,,,,,,,,,1697.2073,1698.1981,,,1698.698,1698.948,,76,76,,,,,,,,,,,,,,,,bars/035.png,bars/mask005.png,,,,,,,,,,,,0,2,,,,,,,2,0,0,0,,,,,,,,,,,1698.1981,1698.698,1698.948,1702.4814,space,3.5162,,1702.4815,81,16,1703.4812,1703.4812,1703.4901,,,,0,31,31,31,1,175,60,,,,,,,,
,,59cbe23a916c4d0001094710,65af546351c2a1f8263dc7f1,2024-01-23_06h54.08.365,bars,2023.2.3,Win32,59.88023952,657b66ea316d21385b68909f,,,,,,,,,,,1703.4904,1704.4812,,,1704.9811,1705.2312,,69,249,,,,,,,,,,,,,,,,bars/026.png,bars/mask009.png,,,,,,,,,,,,0,2,,,,,,,0,0,0,0,,,,,,,,,,,1704.4812,1704.9811,1705.2312,1709.4479,space,4.2057,,1709.4479,34,16,1710.4476,1710.4477,1710.4569,,,,0,32,32,32,1,35,85,,,,,,,,
,,59cbe23a916c4d0001094710,65af546351c2a1f8263dc7f1,2024-01-23_06h54.08.365,bars,2023.2.3,Win32,59.88023952,657b66ea316d21385b68909f,,,,,,,,,,,1710.4572,1711.4475,,,1711.9476,1712.1975,,137,-43,,,,,,,,,,,,,,,,bars/000.png,bars/mask004.png,,,,,,,,,,,,2,2,,,,,,,0,2,0,3,,,,,,,,,,,1711.4475,1711.9476,1712.1975,1715.0644,space,2.8544,,1715.0645,83,8,1716.0641,1716.0641,1716.0735,,,,0,33,33,33,1,40,145,,,,,,,,
,,59cbe23a916c4d0001094710,65af546351c2a1f8263dc7f1,2024-01-23_06h54.08.365,bars,2023.2.3,Win32,59.88023952,657b66ea316d21385b68909f,,,,,,,,,,,1716.0737,1717.0639,,,1717.5641,1717.814,,56,236,,,,,,,,,,,,,,,,bars/010.png,bars/mask003.png,,,,,,,,,,,,4,2,,,,,,,2,4,0,4,,,,,,,,,,,1717.064,1717.5641,1717.8141,1723.3974,space,5.5665,,1723.3974,71,1,1724.3971,1724.3971,1724.4075,,,,0,34,34,34,1,165,55,,,,,,,,
,,59cbe23a916c4d0001094710,65af546351c2a1f8263dc7f1,2024-01-23_06h54.08.365,bars,2023.2.3,Win32,59.88023952,657b66ea316d21385b68909f,,,,,,,,,,,1724.4078,1725.3973,,,1725.8972,1726.1472,,44,224,,,,,,,,,,,,,,,,bars/012.png,bars/mask003.png,,,,,,,,,,,,0,2,,,,,,,4,6,5,5,,,,,,,,,,,1725.3973,1725.8971,1726.1472,1730.947,space,4.7855,,1730.9471,46,29,1731.947,1731.947,1731.9561,,,,0,35,35,35,1,90,15,,,,,,,,
,,59cbe23a916c4d0001094710,65af546351c2a1f8263dc7f1,2024-01-23_06h54.08.365,bars,2023.2.3,Win32,59.88023952,657b66ea316d21385b68909f,,,,,,,,,,,1731.9562,1732.9468,,,1733.4469,1733.6969,,36,216,,,,,,,,,,,,,,,,bars/032.png,bars/mask003.png,,,,,,,,,,,,1,2,,,,,,,6,4,6,3,,,,,,,,,,,1732.9469,1733.4468,1733.697,1736.6636,space,2.9556,,1736.6636,89,16,1737.6634,1737.6634,1737.6724,,,,0,36,36,36,1,125,20,,,,,,,,
,,59cbe23a916c4d0001094710,65af546351c2a1f8263dc7f1,2024-01-23_06h54.08.365,bars,2023.2.3,Win32,59.88023952,657b66ea316d21385b68909f,,,,,,,,,,,1737.6726,1738.6633,,,1739.1633,1739.4132,,101,101,,,,,,,,,,,,,,,,bars/023.png,bars/mask005.png,,,,,,,,,,,,3,2,,,,,,,4,6,4,6,,,,,,,,,,,1738.6634,1739.1633,1739.4133,1741.5801,space,2.1506,,1741.5801,81,14,1742.5799,1742.5799,1742.5806,,,,0,37,37,37,1,20,115,,,,,,,,
,,59cbe23a916c4d0001094710,65af546351c2a1f8263dc7f1,2024-01-23_06h54.08.365,bars,2023.2.3,Win32,59.88023952,657b66ea316d21385b68909f,,,,,,,,,,,1742.5808,1743.5798,,,1744.0799,1744.3298,,44,224,,,,,,,,,,,,,,,,bars/025.png,bars/mask002.png,,,,,,,,,,,,7,2,,,,,,,2,8,2,8,,,,,,,,,,,1743.5798,1744.0799,1744.3299,1748.947,space,4.6111,,1748.947,61,4,1749.9463,1749.9463,1749.9553,,,,0,38,38,38,1,105,40,,,,,,,,
,,59cbe23a916c4d0001094710,65af546351c2a1f8263dc7f1,2024-01-23_06h54.08.365,bars,2023.2.3,Win32,59.88023952,657b66ea316d21385b68909f,,,,,,,,,,,1749.9556,1750.9463,,,1751.4463,1751.6963,,151,151,,,,,,,,,,,,,,,,bars/049.png,bars/mask009.png,,,,,,,,,,,,3,1,,,,,,,4,10,4,10,,,,,,,,,,,1750.9463,1751.4463,1751.6963,1754.1629,space,2.4593,,1754.163,9,36,1755.1628,1755.1628,1755.1729,,,,0,39,39,39,1,160,115,,,,,,,,
,,59cbe23a916c4d0001094710,65af546351c2a1f8263dc7f1,2024-01-23_06h54.08.365,bars,2023.2.3,Win32,59.88023952,657b66ea316d21385b68909f,,,,,,,,,,,1755.1731,1756.1627,,,1756.6629,1756.9128,,76,76,,,,,,,,,,,,,,,,bars/047.png,bars/mask007.png,,,,,,,,,,,,6,2,,,,,,,2,8,3,8,,,,,,,,,,,1756.1628,1756.6628,1756.9128,1758.8128,space,1.8837,,1758.8129,61,6,1759.8126,1759.8126,1759.8224,,,,0,40,40,40,1,15,70,,,,,,,,
,,59cbe23a916c4d0001094710,65af546351c2a1f8263dc7f1,2024-01-23_06h54.08.365,bars,2023.2.3,Win32,59.88023952,657b66ea316d21385b68909f,,,,,,,,,,,1759.8225,1760.8126,,,1761.3126,1761.5626,,147,-33,,,,,,,,,,,,,,,,bars/048.png,bars/mask005.png,,,,,,,,,,,,0,2,,,,,,,4,6,4,6,,,,,,,,,,,1760.8126,1761.3126,1761.5626,1764.8125,space,3.2418,,1764.8126,83,28,1765.8124,1765.8124,1765.8214,,,,0,41,41,41,1,50,175,,,,,,,,
,,59cbe23a916c4d0001094710,65af546351c2a1f8263dc7f1,2024-01-23_06h54.08.365,bars,2023.2.3,Win32,59.88023952,657b66ea316d21385b68909f,,,,,,,,,,,1765.8215,1766.8124,,,1767.3124,1767.5623,,120,-60,,,,,,,,,,,,,,,,bars/003.png,bars/mask008.png,,,,,,,,,,,,3,2,,,,,,,6,8,4,10,,,,,,,,,,,1766.8124,1767.3124,1767.5624,1770.7958,space,3.2179,,1770.7959,85,20,1771.7956,1771.7956,1771.8045,,,,0,42,42,42,1,25,140,,,,,,,,
,,59cbe23a916c4d0001094710,65af546351c2a1f8263dc7f1,2024-01-23_06h54.08.365,bars,2023.2.3,Win32,59.88023952,657b66ea316d21385b68909f,,,,,,,,,,,1771.8047,1772.7955,,,1773.2955,1773.5454,,97,97,,,,,,,,,,,,,,,,bars/037.png,bars/mask004.png,,,,,,,,,,,,7,2,,,,,,,8,10,8,10,,,,,,,,,,,1772.7955,1773.2955,1773.5454,1776.3789,space,2.8178,,1776.3789,53,8,1777.3786,1777.3787,1777.3878,,,,0,43,43,43,1,150,105,,,,,,,,
,,59cbe23a916c4d0001094710,65af546351c2a1f8263dc7f1,2024-01-23_06h54.08.365,bars,2023.2.3,Win32,59.88023952,657b66ea316d21385b68909f,,,,,,,,,,,1777.388,1778.3787,,,1778.879,1779.1286,,36,36,,,,,,,,,,,,,,,,bars/038.png,bars/mask000.png,,,,,,,,,,,,0,2,,,,,,,6,10,5,10,,,,,,,,,,,1778.3787,1778.879,1779.1286,1782.3453,space,3.2028,,1782.3453,51,34,1783.3452,1783.3452,1783.3541,,,,0,44,44,44,1,165,70,,,,,,,,
,,59cbe23a916c4d0001094710,65af546351c2a1f8263dc7f1,2024-01-23_06h54.08.365,bars,2023.2.3,Win32,59.88023952,657b66ea316d21385b68909f,,,,,,,,,,,1783.3544,1784.3451,,,1784.8451,1785.0951,,60,60,,,,,,,,,,,,,,,,bars/041.png,bars/mask008.png,,,,,,,,,,,,2,2,,,,,,,4,10,4,10,,,,,,,,,,,1784.3451,1784.8451,1785.0952,1789.9117,space,4.8052,,1789.9118,40,25,1790.9115,1790.9115,1790.9215,,,,0,45,45,45,1,20,85,,,,,,,,
,,59cbe23a916c4d0001094710,65af546351c2a1f8263dc7f1,2024-01-23_06h54.08.365,bars,2023.2.3,Win32,59.88023952,657b66ea316d21385b68909f,,,,,,,,,,,1790.9217,1791.9116,,,1792.4115,1792.6616,,50,230,,,,,,,,,,,,,,,,bars/017.png,bars/mask001.png,,,,,,,,,,,,8,2,,,,,,,6,10,6,9,,,,,,,,,,,1791.9116,1792.4114,1792.6617,1796.8949,space,4.2171,,1796.8949,85,5,1797.8946,1797.8946,1797.9038,,,,0,46,46,46,1,145,45,,,,,,,,
,,59cbe23a916c4d0001094710,65af546351c2a1f8263dc7f1,2024-01-23_06h54.08.365,bars,2023.2.3,Win32,59.88023952,657b66ea316d21385b68909f,,,,,,,,,,,1797.9039,1798.8947,,,1799.3946,1799.6446,,159,159,,,,,,,,,,,,,,,,bars/004.png,bars/mask006.png,,,,,,,,,,,,0,2,,,,,,,4,8,2,8,,,,,,,,,,,1798.8947,1799.3946,1799.6446,1802.3447,space,2.6827,,1802.3448,46,34,1803.3445,1803.3445,1803.3538,,,,0,47,47,47,1,25,125,,,,,,,,
,,59cbe23a916c4d0001094710,65af546351c2a1f8263dc7f1,2024-01-23_06h54.08.365,bars,2023.2.3,Win32,59.88023952,657b66ea316d21385b68909f,,,,,,,,,,,1803.354,1804.3444,,,1804.8444,1805.0944,,43,43,,,,,,,,,,,,,,,,bars/029.png,bars/mask002.png,,,,,,,,,,,,9,2,,,,,,,6,10,6,10,,,,,,,,,,,1804.3444,1804.8444,1805.0945,1808.6445,space,3.5338,,1808.6445,47,2,1809.6442,1809.6442,1809.6535,,,,0,48,48,48,1,90,45,,,,,,,,
,,59cbe23a916c4d0001094710,65af546351c2a1f8263dc7f1,2024-01-23_06h54.08.365,bars,2023.2.3,Win32,59.88023952,657b66ea316d21385b68909f,,,,,,,,,,,1809.6536,1810.6442,,,1811.1443,1811.3942,,91,91,,,,,,,,,,,,,,,,bars/034.png,bars/mask001.png,,,,,,,,,,,,1,2,,,,,,,4,10,6,10,,,,,,,,,,,1810.6442,1811.1443,1811.3943,1814.6109,space,3.2015,,1814.6109,34,26,1815.6106,1815.6107,1815.62,,,,0,49,49,49,1,125,65,,,,,,,,
,,59cbe23a916c4d0001094710,65af546351c2a1f8263dc7f1,2024-01-23_06h54.08.365,bars,2023.2.3,Win32,59.88023952,657b66ea316d21385b68909f,,,,,,,,,,,,,,,,,,,,,,,,,,,,,,,,,,,,,,,,,,,,,,,,,,,,,,,,,,,,,,,,,,,,,,,,,,,,,,,,,,,,,,,,,,,,,1815.6202,1870.0105,0,3,3,0,1,sequence_tables/blk008.csv
,,59cbe23a916c4d0001094710,65af546351c2a1f8263dc7f1,2024-01-23_06h54.08.365,bars,2023.2.3,Win32,59.88023952,657b66ea316d21385b68909f,,,,,,,,,,,1884.9737,1885.975,,,1886.4751,1886.725,,45,225,,,,,,,,,,,,,,,,bars/007.png,bars/mask006.png,,,,,,,,,,,,2,2,,,,,,,0,3,0,3,,,,,,1870.0218,1884.9587,space,14.9243,,1885.975,1886.4751,1886.725,1889.6917,space,2.9582,,1889.6918,50,10,1890.6916,1890.6916,1890.7009,,,,0,0,0,0,1,175,55,,,,,,,,
,,59cbe23a916c4d0001094710,65af546351c2a1f8263dc7f1,2024-01-23_06h54.08.365,bars,2023.2.3,Win32,59.88023952,657b66ea316d21385b68909f,,,,,,,,,,,1890.7011,1891.6915,,,1892.1915,1892.4415,,94,94,,,,,,,,,,,,,,,,bars/028.png,bars/mask004.png,,,,,,,,,,,,1,2,,,,,,,2,5,0,6,,,,,,,,,,,1891.6915,1892.1915,1892.4415,1894.9081,space,2.451,,1894.9081,49,26,1895.9079,1895.9079,1895.9172,,,,0,1,1,1,1,45,120,,,,,,,,
,,59cbe23a916c4d0001094710,65af546351c2a1f8263dc7f1,2024-01-23_06h54.08.365,bars,2023.2.3,Win32,59.88023952,657b66ea316d21385b68909f,,,,,,,,,,,1895.9174,1896.9079,,,1897.4081,1897.6579,,141,-39,,,,,,,,,,,,,,,,bars/024.png,bars/mask003.png,,,,,,,,,,,,0,1,,,,,,,0,7,0,6,,,,,,,,,,,1896.9079,1897.408,1897.6579,1901.558,space,3.8885,,1901.5581,21,29,1902.5578,1902.5578,1902.5678,,,,0,2,2,2,1,120,170,,,,,,,,
,,59cbe23a916c4d0001094710,65af546351c2a1f8263dc7f1,2024-01-23_06h54.08.365,bars,2023.2.3,Win32,59.88023952,657b66ea316d21385b68909f,,,,,,,,,,,1902.568,1903.5578,,,1904.0577,1904.3078,,83,83,,,,,,,,,,,,,,,,bars/026.png,bars/mask005.png,,,,,,,,,,,,5,2,,,,,,,2,5,2,5,,,,,,,,,,,1903.5579,1904.0577,1904.3078,1906.4745,space,2.1595,,1906.4746,48,2,1907.4742,1907.4743,1907.484,,,,0,3,3,3,1,35,85,,,,,,,,
,,59cbe23a916c4d0001094710,65af546351c2a1f8263dc7f1,2024-01-23_06h54.08.365,bars,2023.2.3,Win32,59.88023952,657b66ea316d21385b68909f,,,,,,,,,,,1907.4842,1908.4742,,,1908.9743,1909.2242,,0,180,,,,,,,,,,,,,,,,bars/005.png,bars/mask006.png,,,,,,,,,,,,0,1,,,,,,,0,7,0,7,,,,,,,,,,,1908.4742,1908.9743,1909.2242,1911.591,space,2.355,,1911.591,10,40,1912.5908,1912.5908,1912.5923,,,,0,4,4,4,1,10,140,,,,,,,,
,,59cbe23a916c4d0001094710,65af546351c2a1f8263dc7f1,2024-01-23_06h54.08.365,bars,2023.2.3,Win32,59.88023952,657b66ea316d21385b68909f,,,,,,,,,,,1912.5924,1913.5907,,,1914.0907,1914.3408,,46,46,,,,,,,,,,,,,,,,bars/029.png,bars/mask007.png,,,,,,,,,,,,5,2,,,,,,,2,5,3,5,,,,,,,,,,,1913.5908,1914.0907,1914.3408,1916.9408,space,2.5844,,1916.9408,44,1,1917.9406,1917.9406,1917.9504,,,,0,5,5,5,1,90,45,,,,,,,,
,,59cbe23a916c4d0001094710,65af546351c2a1f8263dc7f1,2024-01-23_06h54.08.365,bars,2023.2.3,Win32,59.88023952,657b66ea316d21385b68909f,,,,,,,,,,,1917.9506,1918.9405,,,1919.4406,1919.6906,,163,163,,,,,,,,,,,,,,,,bars/033.png,bars/mask003.png,,,,,,,,,,,,1,2,,,,,,,0,3,0,2,,,,,,,,,,,1918.9405,1919.4406,1919.6906,1922.074,space,2.3685,,1922.074,42,8,1923.0743,1923.0743,1923.0833,,,,0,6,6,6,1,25,155,,,,,,,,
,,59cbe23a916c4d0001094710,65af546351c2a1f8263dc7f1,2024-01-23_06h54.08.365,bars,2023.2.3,Win32,59.88023952,657b66ea316d21385b68909f,,,,,,,,,,,1923.0834,1924.0738,,,1924.5738,1924.8237,,52,52,,,,,,,,,,,,,,,,bars/028.png,bars/mask006.png,,,,,,,,,,,,2,1,,,,,,,2,5,3,5,,,,,,,,,,,1924.0738,1924.5738,1924.8237,1928.0904,space,3.2584,,1928.0905,7,68,1929.09,1929.0901,1929.0999,,,,0,7,7,7,1,45,120,,,,,,,,
,,59cbe23a916c4d0001094710,65af546351c2a1f8263dc7f1,2024-01-23_06h54.08.365,bars,2023.2.3,Win32,59.88023952,657b66ea316d21385b68909f,,,,,,,,,,,1929.1,1930.0901,,,1930.5902,1930.8402,,45,45,,,,,,,,,,,,,,,,bars/021.png,bars/mask005.png,,,,,,,,,,,,1,2,,,,,,,0,7,0,8,,,,,,,,,,,1930.0902,1930.5902,1930.8402,1933.8402,space,2.9837,,1933.8402,70,25,1934.84,1934.8401,1934.8501,,,,0,8,8,8,1,155,70,,,,,,,,
,,59cbe23a916c4d0001094710,65af546351c2a1f8263dc7f1,2024-01-23_06h54.08.365,bars,2023.2.3,Win32,59.88023952,657b66ea316d21385b68909f,,,,,,,,,,,1934.8502,1935.84,,,1936.34,1936.59,,151,151,,,,,,,,,,,,,,,,bars/033.png,bars/mask003.png,,,,,,,,,,,,4,2,,,,,,,2,5,3,5,,,,,,,,,,,1935.84,1936.34,1936.59,1940.3734,space,3.7729,,1940.3734,54,4,1941.3731,1941.3731,1941.3822,,,,0,9,9,9,1,25,155,,,,,,,,
,,59cbe23a916c4d0001094710,65af546351c2a1f8263dc7f1,2024-01-23_06h54.08.365,bars,2023.2.3,Win32,59.88023952,657b66ea316d21385b68909f,,,,,,,,,,,1941.3824,1942.3731,,,1942.873,1943.1233,,69,249,,,,,,,,,,,,,,,,bars/034.png,bars/mask002.png,,,,,,,,,,,,6,2,,,,,,,0,7,1,7,,,,,,,,,,,1942.3731,1942.873,1943.1233,1947.1064,space,3.9677,,1947.1064,56,4,1948.1062,1948.1062,1948.1153,,,,0,10,10,10,1,125,65,,,,,,,,
,,59cbe23a916c4d0001094710,65af546351c2a1f8263dc7f1,2024-01-23_06h54.08.365,bars,2023.2.3,Win32,59.88023952,657b66ea316d21385b68909f,,,,,,,,,,,1948.1154,1949.1062,,,1949.6062,1949.8561,,118,298,,,,,,,,,,,,,,,,bars/013.png,bars/mask001.png,,,,,,,,,,,,0,1,,,,,,,0,9,1,10,,,,,,,,,,,1949.1062,1949.6061,1949.8561,1958.5226,space,8.6496,,1958.5227,43,72,1959.5225,1959.5225,1959.533,,,,0,11,11,11,1,75,10,,,,,,,,
