init_variables.started,init_variables.stopped,participant,session,date,expName,psychopyVersion,OS,frameRate,study_id,instruction_exp.started,instruction_exp.stopped,key_resp_8.keys,key_resp_8.rt,key_resp_8.duration,instruction_single.started,instruction_single.stopped,key_resp_2.keys,key_resp_2.rt,key_resp_2.duration,interval.started,interval.stopped,cue_single.started,cue_single.stopped,mask.started,mask.stopped,ori_response_single.started,res_ori,res,ori_response_single.stopped,key_resp_single.keys,key_resp_single.rt,key_resp_single.duration,disp_single.started,disp_single.stopped,key_resp.keys,key_resp.rt,key_resp.duration,single.thisRepN,single.thisTrialN,single.thisN,single.thisIndex,single.ran,ori,path,mask_path,instruction_bandit.started,instruction_bandit.stopped,key_resp_6.keys,key_resp_6.rt,key_resp_6.duration,cue_bandit.started,cue_bandit.stopped,bandit_res.keys,bandit_res.rt,bandit_res.duration,outcome_bandit.started,rew,action,outcome_bandit.stopped,bandit.thisRepN,bandit.thisTrialN,bandit.thisN,bandit.thisIndex,bandit.ran,actual_rew1,actual_rew2,rew1,rew2,instruction_task.started,instruction_task.stopped,key_resp_7.keys,key_resp_7.rt,key_resp_7.duration,wait_ready.started,wait_ready.stopped,key_resp_3.keys,key_resp_3.rt,key_resp_3.duration,cue.started,cue.stopped,ori_response.started,ori_response.stopped,key_resp_5.keys,key_resp_5.rt,key_resp_5.duration,outcome.started,diff1,diff2,outcome.stopped,disp_outcome_practice.started,disp_outcome_practice.stopped,key_resp_4.keys,key_resp_4.rt,key_resp_4.duration,trials.thisRepN,trials.thisTrialN,trials.thisN,trials.thisIndex,trials.ran,ori1,ori2,break_blk.started,break_blk.stopped,block.thisRepN,block.thisTrialN,block.thisN,block.thisIndex,block.ran,condition_file
0.0007,0.0011,5fbed1f21d5ce10fd350ce6e,65af563a7219ae981f60fdfd,2024-01-23_08h04.50.402,bars,2023.2.3,Win32,3.769317753,657b66ea316d21385b68909f,,,,,,,,,,,,,,,,,,,,,,,,,,,,,,,,,,,,,,,,,,,,,,,,,,,,,,,,,,,,,,,,,,,,,,,,,,,,,,,,,,,,,,,,,,,,,,,,,,,,
,,5fbed1f21d5ce10fd350ce6e,65af563a7219ae981f60fdfd,2024-01-23_08h04.50.402,bars,2023.2.3,Win32,3.769317753,657b66ea316d21385b68909f,0.0016,538.5916,y,538.2936,,,,,,,,,,,,,,,,,,,,,,,,,,,,,,,,,,,,,,,,,,,,,,,,,,,,,,,,,,,,,,,,,,,,,,,,,,,,,,,,,,,,,,,,,,,,,,,,
,,5fbed1f21d5ce10fd350ce6e,65af563a7219ae981f60fdfd,2024-01-23_08h04.50.402,bars,2023.2.3,Win32,3.769317753,657b66ea316d21385b68909f,,,,,,538.5918,552.7533,space,13.862,0.0432,,,,,,,,,,,,,,,,,,,,,,,,,,,,,,,,,,,,,,,,,,,,,,,,,,,,,,,,,,,,,,,,,,,,,,,,,,,,,,,,,,,,,,,,,,
,,5fbed1f21d5ce10fd350ce6e,65af563a7219ae981f60fdfd,2024-01-23_08h04.50.402,bars,2023.2.3,Win32,3.769317753,657b66ea316d21385b68909f,,,,,,,,,,,552.7606,553.7956,553.7959,554.1391,554.1392,554.4017,554.4019,58,58,563.2842,space,8.6171,,563.2843,577.5773,space,14.0194,0.0008,0,0,0,7,1,45,bars/single007.png,bars/mask009.png,,,,,,,,,,,,,,,,,,,,,,,,,,,,,,,,,,,,,,,,,,,,,,,,,,,,,,,,,,,,,,,,
,,5fbed1f21d5ce10fd350ce6e,65af563a7219ae981f60fdfd,2024-01-23_08h04.50.402,bars,2023.2.3,Win32,3.769317753,657b66ea316d21385b68909f,,,,,,,,,,,577.5904,578.6134,578.6135,579.1445,579.1445,579.4075,579.4075,128,128,584.7842,space,5.114,,584.7842,590.5706,space,5.5173,,0,1,1,5,1,55,bars/single005.png,bars/mask008.png,,,,,,,,,,,,,,,,,,,,,,,,,,,,,,,,,,,,,,,,,,,,,,,,,,,,,,,,,,,,,,,,
,,5fbed1f21d5ce10fd350ce6e,65af563a7219ae981f60fdfd,2024-01-23_08h04.50.402,bars,2023.2.3,Win32,3.769317753,657b66ea316d21385b68909f,,,,,,,,,,,590.5866,591.6083,591.6083,592.1583,592.1584,592.4245,592.4245,10,10,595.9273,space,3.2364,,595.9273,602.5613,space,6.3474,0.0005,0,2,2,6,1,175,bars/single006.png,bars/mask005.png,,,,,,,,,,,,,,,,,,,,,,,,,,,,,,,,,,,,,,,,,,,,,,,,,,,,,,,,,,,,,,,,
,,5fbed1f21d5ce10fd350ce6e,65af563a7219ae981f60fdfd,2024-01-23_08h04.50.402,bars,2023.2.3,Win32,3.769317753,657b66ea316d21385b68909f,,,,,,,,,,,602.576,603.6075,603.6075,604.1352,604.1352,604.4,604.4001,52,52,608.1811,space,3.5026,,608.1812,614.753,space,6.3056,,0,3,3,2,1,145,bars/single002.png,bars/mask003.png,,,,,,,,,,,,,,,,,,,,,,,,,,,,,,,,,,,,,,,,,,,,,,,,,,,,,,,,,,,,,,,,
,,5fbed1f21d5ce10fd350ce6e,65af563a7219ae981f60fdfd,2024-01-23_08h04.50.402,bars,2023.2.3,Win32,3.769317753,657b66ea316d21385b68909f,,,,,,,,,,,614.7649,615.7857,615.7858,616.3113,616.3114,616.578,616.578,64,64,622.8145,space,5.9782,0.0005,622.8145,626.1507,space,3.0656,,0,4,4,8,1,160,bars/single008.png,bars/mask004.png,,,,,,,,,,,,,,,,,,,,,,,,,,,,,,,,,,,,,,,,,,,,,,,,,,,,,,,,,,,,,,,,
,,5fbed1f21d5ce10fd350ce6e,65af563a7219ae981f60fdfd,2024-01-23_08h04.50.402,bars,2023.2.3,Win32,3.769317753,657b66ea316d21385b68909f,,,,,,,,,,,626.1514,627.1942,627.1943,627.744,627.7441,628.0416,628.0417,91,91,630.2477,space,1.9375,0.0005,630.2478,633.608,space,3.0948,,0,5,5,0,1,150,bars/single000.png,bars/mask006.png,,,,,,,,,,,,,,,,,,,,,,,,,,,,,,,,,,,,,,,,,,,,,,,,,,,,,,,,,,,,,,,,
,,5fbed1f21d5ce10fd350ce6e,65af563a7219ae981f60fdfd,2024-01-23_08h04.50.402,bars,2023.2.3,Win32,3.769317753,657b66ea316d21385b68909f,,,,,,,,,,,633.6085,634.6393,634.6394,635.1685,635.1686,635.4314,635.4314,177,177,639.1843,space,3.4904,0.0007,639.1843,644.159,space,4.7117,,0,6,6,3,1,20,bars/single003.png,bars/mask005.png,,,,,,,,,,,,,,,,,,,,,,,,,,,,,,,,,,,,,,,,,,,,,,,,,,,,,,,,,,,,,,,,
,,5fbed1f21d5ce10fd350ce6e,65af563a7219ae981f60fdfd,2024-01-23_08h04.50.402,bars,2023.2.3,Win32,3.769317753,657b66ea316d21385b68909f,,,,,,,,,,,644.1715,645.1938,645.1939,645.7353,645.7353,645.997,645.9971,79,79,652.7194,space,6.4642,0.0005,652.7195,656.0096,space,3.0201,0.0005,0,7,7,4,1,95,bars/single004.png,bars/mask004.png,,,,,,,,,,,,,,,,,,,,,,,,,,,,,,,,,,,,,,,,,,,,,,,,,,,,,,,,,,,,,,,,
,,5fbed1f21d5ce10fd350ce6e,65af563a7219ae981f60fdfd,2024-01-23_08h04.50.402,bars,2023.2.3,Win32,3.769317753,657b66ea316d21385b68909f,,,,,,,,,,,656.01,657.0512,657.0513,657.5827,657.5828,657.8471,657.8471,30,30,660.2791,space,2.1697,,660.2792,672.2493,space,11.6996,0.0005,0,8,8,9,1,20,bars/single009.png,bars/mask006.png,,,,,,,,,,,,,,,,,,,,,,,,,,,,,,,,,,,,,,,,,,,,,,,,,,,,,,,,,,,,,,,,
,,5fbed1f21d5ce10fd350ce6e,65af563a7219ae981f60fdfd,2024-01-23_08h04.50.402,bars,2023.2.3,Win32,3.769317753,657b66ea316d21385b68909f,,,,,,,,,,,672.2626,673.2822,673.2822,673.8162,673.8163,674.0815,674.0815,103,103,678.4007,space,4.063,0.0005,678.4007,683.9096,space,5.2277,,0,9,9,1,1,20,bars/single001.png,bars/mask006.png,,,,,,,,,,,,,,,,,,,,,,,,,,,,,,,,,,,,,,,,,,,,,,,,,,,,,,,,,,,,,,,,
,,5fbed1f21d5ce10fd350ce6e,65af563a7219ae981f60fdfd,2024-01-23_08h04.50.402,bars,2023.2.3,Win32,3.769317753,657b66ea316d21385b68909f,,,,,,,,,,,,,,,,,,,,,,,,,,,,,,,,,,,,,683.922,691.9661,space,7.7857,0.0006,,,,,,,,,,,,,,,,,,,,,,,,,,,,,,,,,,,,,,,,,,,,,,,,,,,,,,,,,,,
,,5fbed1f21d5ce10fd350ce6e,65af563a7219ae981f60fdfd,2024-01-23_08h04.50.402,bars,2023.2.3,Win32,3.769317753,657b66ea316d21385b68909f,,,,,,,,,,,,,,,,,,,,,,,,,,,,,,,,,,,,,,,,,,691.9832,694.4901,left,2.2515,0.0005,694.4904,9,1,695.3161,0,0,0,0,1,9,1,9,2,,,,,,,,,,,,,,,,,,,,,,,,,,,,,,,,,,,,,,,,,
,,5fbed1f21d5ce10fd350ce6e,65af563a7219ae981f60fdfd,2024-01-23_08h04.50.402,bars,2023.2.3,Win32,3.769317753,657b66ea316d21385b68909f,,,,,,,,,,,,,,,,,,,,,,,,,,,,,,,,,,,,,,,,,,695.317,697.7742,left,2.1967,0.0002,697.7743,10,1,698.8082,0,1,1,1,1,10,0,10,1,,,,,,,,,,,,,,,,,,,,,,,,,,,,,,,,,,,,,,,,,
,,5fbed1f21d5ce10fd350ce6e,65af563a7219ae981f60fdfd,2024-01-23_08h04.50.402,bars,2023.2.3,Win32,3.769317753,657b66ea316d21385b68909f,,,,,,,,,,,,,,,,,,,,,,,,,,,,,,,,,,,,,,,,,,698.809,701.7994,right,2.7322,0.0004,701.7995,2,2,702.8456,0,2,2,2,1,10,2,10,2,,,,,,,,,,,,,,,,,,,,,,,,,,,,,,,,,,,,,,,,,
,,5fbed1f21d5ce10fd350ce6e,65af563a7219ae981f60fdfd,2024-01-23_08h04.50.402,bars,2023.2.3,Win32,3.769317753,657b66ea316d21385b68909f,,,,,,,,,,,,,,,,,,,,,,,,,,,,,,,,,,,,,,,,,,702.8629,704.7412,left,1.6297,0.0004,704.7412,7,1,705.7724,0,3,3,3,1,8,4,7,3,,,,,,,,,,,,,,,,,,,,,,,,,,,,,,,,,,,,,,,,,
,,5fbed1f21d5ce10fd350ce6e,65af563a7219ae981f60fdfd,2024-01-23_08h04.50.402,bars,2023.2.3,Win32,3.769317753,657b66ea316d21385b68909f,,,,,,,,,,,,,,,,,,,,,,,,,,,,,,,,,,,,,,,,,,705.7729,709.3144,right,3.2842,,709.3146,1,2,710.3419,0,4,4,4,1,6,2,5,1,,,,,,,,,,,,,,,,,,,,,,,,,,,,,,,,,,,,,,,,,
,,5fbed1f21d5ce10fd350ce6e,65af563a7219ae981f60fdfd,2024-01-23_08h04.50.402,bars,2023.2.3,Win32,3.769317753,657b66ea316d21385b68909f,,,,,,,,,,,,,,,,,,,,,,,,,,,,,,,,,,,,,,,,,,710.3601,711.7113,left,1.0948,,711.7114,4,1,712.7669,0,5,5,5,1,4,4,4,4,,,,,,,,,,,,,,,,,,,,,,,,,,,,,,,,,,,,,,,,,
,,5fbed1f21d5ce10fd350ce6e,65af563a7219ae981f60fdfd,2024-01-23_08h04.50.402,bars,2023.2.3,Win32,3.769317753,657b66ea316d21385b68909f,,,,,,,,,,,,,,,,,,,,,,,,,,,,,,,,,,,,,,,,,,712.7676,714.6541,left,1.6305,,714.6541,1,1,715.6902,0,6,6,6,1,2,2,1,2,,,,,,,,,,,,,,,,,,,,,,,,,,,,,,,,,,,,,,,,,
,,5fbed1f21d5ce10fd350ce6e,65af563a7219ae981f60fdfd,2024-01-23_08h04.50.402,bars,2023.2.3,Win32,3.769317753,657b66ea316d21385b68909f,,,,,,,,,,,,,,,,,,,,,,,,,,,,,,,,,,,,,,,,,,715.6908,717.3878,left,1.438,,717.3878,0,1,718.2124,0,7,7,7,1,0,0,0,1,,,,,,,,,,,,,,,,,,,,,,,,,,,,,,,,,,,,,,,,,
,,5fbed1f21d5ce10fd350ce6e,65af563a7219ae981f60fdfd,2024-01-23_08h04.50.402,bars,2023.2.3,Win32,3.769317753,657b66ea316d21385b68909f,,,,,,,,,,,,,,,,,,,,,,,,,,,,,,,,,,,,,,,,,,718.2132,719.8664,left,1.3913,,719.8664,1,1,720.9286,0,8,8,8,1,0,2,1,0,,,,,,,,,,,,,,,,,,,,,,,,,,,,,,,,,,,,,,,,,
,,5fbed1f21d5ce10fd350ce6e,65af563a7219ae981f60fdfd,2024-01-23_08h04.50.402,bars,2023.2.3,Win32,3.769317753,657b66ea316d21385b68909f,,,,,,,,,,,,,,,,,,,,,,,,,,,,,,,,,,,,,,,,,,720.9294,722.3415,right,1.1401,0.0005,722.3416,3,2,723.3984,0,9,9,9,1,2,4,2,3,,,,,,,,,,,,,,,,,,,,,,,,,,,,,,,,,,,,,,,,,
,,5fbed1f21d5ce10fd350ce6e,65af563a7219ae981f60fdfd,2024-01-23_08h04.50.402,bars,2023.2.3,Win32,3.769317753,657b66ea316d21385b68909f,,,,,,,,,,,,,,,,,,,,,,,,,,,,,,,,,,,,,,,,,,723.3993,725.0421,left,1.3746,0.0006,725.0422,0,1,726.0986,0,10,10,10,1,0,2,0,3,,,,,,,,,,,,,,,,,,,,,,,,,,,,,,,,,,,,,,,,,
,,5fbed1f21d5ce10fd350ce6e,65af563a7219ae981f60fdfd,2024-01-23_08h04.50.402,bars,2023.2.3,Win32,3.769317753,657b66ea316d21385b68909f,,,,,,,,,,,,,,,,,,,,,,,,,,,,,,,,,,,,,,,,,,726.0993,727.4644,right,1.1025,0.0003,727.4645,3,2,728.4965,0,11,11,11,1,0,4,0,3,,,,,,,,,,,,,,,,,,,,,,,,,,,,,,,,,,,,,,,,,
,,5fbed1f21d5ce10fd350ce6e,65af563a7219ae981f60fdfd,2024-01-23_08h04.50.402,bars,2023.2.3,Win32,3.769317753,657b66ea316d21385b68909f,,,,,,,,,,,,,,,,,,,,,,,,,,,,,,,,,,,,,,,,,,728.4972,730.1292,left,1.3651,,730.1293,1,1,731.1882,0,12,12,12,1,2,6,1,6,,,,,,,,,,,,,,,,,,,,,,,,,,,,,,,,,,,,,,,,,
,,5fbed1f21d5ce10fd350ce6e,65af563a7219ae981f60fdfd,2024-01-23_08h04.50.402,bars,2023.2.3,Win32,3.769317753,657b66ea316d21385b68909f,,,,,,,,,,,,,,,,,,,,,,,,,,,,,,,,,,,,,,,,,,731.1887,732.5444,right,1.0976,0.0005,732.5445,3,2,733.5824,0,13,13,13,1,0,4,1,3,,,,,,,,,,,,,,,,,,,,,,,,,,,,,,,,,,,,,,,,,
,,5fbed1f21d5ce10fd350ce6e,65af563a7219ae981f60fdfd,2024-01-23_08h04.50.402,bars,2023.2.3,Win32,3.769317753,657b66ea316d21385b68909f,,,,,,,,,,,,,,,,,,,,,,,,,,,,,,,,,,,,,,,,,,733.583,735.4717,left,1.6283,0.0004,735.4717,2,1,736.505,0,14,14,14,1,2,6,2,7,,,,,,,,,,,,,,,,,,,,,,,,,,,,,,,,,,,,,,,,,
,,5fbed1f21d5ce10fd350ce6e,65af563a7219ae981f60fdfd,2024-01-23_08h04.50.402,bars,2023.2.3,Win32,3.769317753,657b66ea316d21385b68909f,,,,,,,,,,,,,,,,,,,,,,,,,,,,,,,,,,,,,,,,,,736.5055,737.5953,left,0.826,0.0003,737.5953,3,1,738.6302,0,15,15,15,1,4,8,3,9,,,,,,,,,,,,,,,,,,,,,,,,,,,,,,,,,,,,,,,,,
,,5fbed1f21d5ce10fd350ce6e,65af563a7219ae981f60fdfd,2024-01-23_08h04.50.402,bars,2023.2.3,Win32,3.769317753,657b66ea316d21385b68909f,,,,,,,,,,,,,,,,,,,,,,,,,,,,,,,,,,,,,,,,,,738.631,739.7125,left,0.8229,,739.7126,7,1,740.758,0,16,16,16,1,6,6,7,7,,,,,,,,,,,,,,,,,,,,,,,,,,,,,,,,,,,,,,,,,
,,5fbed1f21d5ce10fd350ce6e,65af563a7219ae981f60fdfd,2024-01-23_08h04.50.402,bars,2023.2.3,Win32,3.769317753,657b66ea316d21385b68909f,,,,,,,,,,,,,,,,,,,,,,,,,,,,,,,,,,,,,,,,,,740.7584,741.8343,left,0.8172,,741.8343,9,1,742.8828,0,17,17,17,1,8,4,9,5,,,,,,,,,,,,,,,,,,,,,,,,,,,,,,,,,,,,,,,,,
,,5fbed1f21d5ce10fd350ce6e,65af563a7219ae981f60fdfd,2024-01-23_08h04.50.402,bars,2023.2.3,Win32,3.769317753,657b66ea316d21385b68909f,,,,,,,,,,,,,,,,,,,,,,,,,,,,,,,,,,,,,,,,,,742.8836,743.9796,left,0.8349,,743.9797,5,1,745.0133,0,18,18,18,1,6,2,5,1,,,,,,,,,,,,,,,,,,,,,,,,,,,,,,,,,,,,,,,,,
,,5fbed1f21d5ce10fd350ce6e,65af563a7219ae981f60fdfd,2024-01-23_08h04.50.402,bars,2023.2.3,Win32,3.769317753,657b66ea316d21385b68909f,,,,,,,,,,,,,,,,,,,,,,,,,,,,,,,,,,,,,,,,,,745.0141,746.1001,left,0.8277,,746.1002,7,1,747.1386,0,19,19,19,1,8,0,7,0,,,,,,,,,,,,,,,,,,,,,,,,,,,,,,,,,,,,,,,,,
,,5fbed1f21d5ce10fd350ce6e,65af563a7219ae981f60fdfd,2024-01-23_08h04.50.402,bars,2023.2.3,Win32,3.769317753,657b66ea316d21385b68909f,,,,,,,,,,,,,,,,,,,,,,,,,,,,,,,,,,,,,,,,,,,,,,,,,,,,,,,,,,,,747.1395,754.2854,space,6.8837,0.0006,,,,,,,,,,,,,,,,,,,,,,,,,,,,,,,,,,,,
,,5fbed1f21d5ce10fd350ce6e,65af563a7219ae981f60fdfd,2024-01-23_08h04.50.402,bars,2023.2.3,Win32,3.769317753,657b66ea316d21385b68909f,,,,,,,,,,,756.6677,757.6956,,,758.227,758.4966,,24,24,,,,,,,,,,,,,,,,bars/019.png,bars/mask002.png,,,,,,,,,,,,3,1,,,,,,,10,7,10,8,,,,,,754.3011,756.6605,space,2.1125,,757.696,758.2269,758.4969,762.8374,space,4.0758,,762.8376,21,81,763.8893,763.8896,768.0888,space,3.9296,,0,0,0,0,1,45,105,,,,,,,,
,,5fbed1f21d5ce10fd350ce6e,65af563a7219ae981f60fdfd,2024-01-23_08h04.50.402,bars,2023.2.3,Win32,3.769317753,657b66ea316d21385b68909f,,,,,,,,,,,768.1027,769.1304,,,769.6612,769.9258,,31,31,,,,,,,,,,,,,,,,bars/039.png,bars/mask008.png,,,,,,,,,,,,0,1,,,,,,,10,5,10,6,,,,,,,,,,,769.1305,769.6611,769.9259,772.3444,space,2.1598,0.0003,772.3445,36,74,773.3777,773.3778,776.7509,space,3.1005,0.0005,0,1,1,1,1,175,105,,,,,,,,
,,5fbed1f21d5ce10fd350ce6e,65af563a7219ae981f60fdfd,2024-01-23_08h04.50.402,bars,2023.2.3,Win32,3.769317753,657b66ea316d21385b68909f,,,,,,,,,,,776.7514,777.7901,,,778.3311,778.6112,,42,42,,,,,,,,,,,,,,,,bars/009.png,bars/mask009.png,,,,,,,,,,,,1,1,,,,,,,10,3,9,3,,,,,,,,,,,777.7902,778.331,778.6113,779.4359,space,0.5475,0.0006,779.4359,27,63,780.4712,780.4713,783.5833,space,2.835,0.0005,0,2,2,2,1,15,105,,,,,,,,
,,5fbed1f21d5ce10fd350ce6e,65af563a7219ae981f60fdfd,2024-01-23_08h04.50.402,bars,2023.2.3,Win32,3.769317753,657b66ea316d21385b68909f,,,,,,,,,,,783.5837,784.6245,,,785.1555,785.4168,,90,90,,,,,,,,,,,,,,,,bars/034.png,bars/mask009.png,,,,,,,,,,,,0,2,,,,,,,8,1,6,0,,,,,,,,,,,784.6246,785.1554,785.4169,788.6813,space,2.9917,0.0006,788.6814,35,25,789.7364,789.7365,797.0164,space,7.0059,0.0006,0,3,3,3,1,125,65,,,,,,,,
,,5fbed1f21d5ce10fd350ce6e,65af563a7219ae981f60fdfd,2024-01-23_08h04.50.402,bars,2023.2.3,Win32,3.769317753,657b66ea316d21385b68909f,,,,,,,,,,,797.0288,798.0644,,,798.6093,798.8727,,33,33,,,,,,,,,,,,,,,,bars/013.png,bars/mask005.png,,,,,,,,,,,,0,2,,,,,,,10,0,10,1,,,,,,,,,,,798.0645,798.6092,798.8728,801.034,space,1.9016,0.0004,801.034,42,23,802.0686,802.0686,805.4696,space,3.1312,,0,4,4,4,1,75,10,,,,,,,,
,,5fbed1f21d5ce10fd350ce6e,65af563a7219ae981f60fdfd,2024-01-23_08h04.50.402,bars,2023.2.3,Win32,3.769317753,657b66ea316d21385b68909f,,,,,,,,,,,805.4831,806.5158,,,807.0669,807.3332,,144,144,,,,,,,,,,,,,,,,bars/018.png,bars/mask008.png,,,,,,,,,,,,7,1,,,,,,,8,0,9,1,,,,,,,,,,,806.516,807.0667,807.3333,809.7994,space,2.1993,0.0005,809.7996,6,54,810.8309,810.8311,813.6426,space,2.5317,0.0006,0,5,5,5,1,150,90,,,,,,,,
,,5fbed1f21d5ce10fd350ce6e,65af563a7219ae981f60fdfd,2024-01-23_08h04.50.402,bars,2023.2.3,Win32,3.769317753,657b66ea316d21385b68909f,,,,,,,,,,,813.6431,814.6842,,,815.2316,815.4961,,137,137,,,,,,,,,,,,,,,,bars/003.png,bars/mask005.png,,,,,,,,,,,,2,2,,,,,,,6,2,7,2,,,,,,,,,,,814.6844,815.2315,815.4962,817.9174,space,2.1581,,817.9174,68,3,818.9601,818.9601,821.7972,space,2.5456,0.0004,0,6,6,6,1,25,140,,,,,,,,
,,5fbed1f21d5ce10fd350ce6e,65af563a7219ae981f60fdfd,2024-01-23_08h04.50.402,bars,2023.2.3,Win32,3.769317753,657b66ea316d21385b68909f,,,,,,,,,,,821.7978,822.8234,,,823.3526,823.6237,,72,72,,,,,,,,,,,,,,,,bars/021.png,bars/mask003.png,,,,,,,,,,,,0,2,,,,,,,8,0,9,0,,,,,,,,,,,822.8235,823.3526,823.6237,825.7962,space,1.906,,825.7962,83,2,826.8308,826.8309,829.6715,space,2.5616,0.0005,0,7,7,7,1,155,70,,,,,,,,
,,5fbed1f21d5ce10fd350ce6e,65af563a7219ae981f60fdfd,2024-01-23_08h04.50.402,bars,2023.2.3,Win32,3.769317753,657b66ea316d21385b68909f,,,,,,,,,,,829.672,830.704,,,831.2331,831.501,,110,110,,,,,,,,,,,,,,,,bars/044.png,bars/mask008.png,,,,,,,,,,,,0,1,,,,,,,6,2,6,2,,,,,,,,,,,830.704,831.233,831.501,833.922,space,2.1583,0.0004,833.9221,35,45,834.9517,834.9518,838.0307,space,2.8104,0.0004,0,8,8,8,1,75,155,,,,,,,,
,,5fbed1f21d5ce10fd350ce6e,65af563a7219ae981f60fdfd,2024-01-23_08h04.50.402,bars,2023.2.3,Win32,3.769317753,657b66ea316d21385b68909f,,,,,,,,,,,838.0312,839.0571,,,839.5944,839.8575,,113,113,,,,,,,,,,,,,,,,bars/014.png,bars/mask001.png,,,,,,,,,,,,0,1,,,,,,,8,0,6,0,,,,,,,,,,,839.0572,839.5943,839.8575,841.7726,space,1.6429,0.0003,841.7727,33,67,842.8106,842.8108,845.3375,space,2.243,0.0006,0,9,9,9,1,80,0,,,,,,,,
,,5fbed1f21d5ce10fd350ce6e,65af563a7219ae981f60fdfd,2024-01-23_08h04.50.402,bars,2023.2.3,Win32,3.769317753,657b66ea316d21385b68909f,,,,,,,,,,,845.3379,846.3835,,,846.9194,847.1847,,48,48,,,,,,,,,,,,,,,,bars/001.png,bars/mask006.png,,,,,,,,,,,,0,2,,,,,,,10,2,10,1,,,,,,,,,,,846.3835,846.9194,847.1847,849.6334,space,2.1899,0.0005,849.6334,82,37,850.6864,850.6864,853.2229,space,2.2627,0.0005,0,10,10,10,1,130,85,,,,,,,,
,,5fbed1f21d5ce10fd350ce6e,65af563a7219ae981f60fdfd,2024-01-23_08h04.50.402,bars,2023.2.3,Win32,3.769317753,657b66ea316d21385b68909f,,,,,,,,,,,853.2232,854.2505,,,854.7918,855.0584,,16,16,,,,,,,,,,,,,,,,bars/007.png,bars/mask006.png,,,,,,,,,,,,3,1,,,,,,,10,4,10,4,,,,,,,,,,,854.2507,854.7917,855.0584,856.9493,space,1.6337,0.0004,856.9493,21,39,857.9749,857.975,860.7587,space,2.5135,0.0005,0,11,11,11,1,175,55,,,,,,,,
,,5fbed1f21d5ce10fd350ce6e,65af563a7219ae981f60fdfd,2024-01-23_08h04.50.402,bars,2023.2.3,Win32,3.769317753,657b66ea316d21385b68909f,,,,,,,,,,,860.7592,861.7881,,,862.3153,862.5853,,76,76,,,,,,,,,,,,,,,,bars/044.png,bars/mask006.png,,,,,,,,,,,,8,1,,,,,,,10,2,8,2,,,,,,,,,,,861.7882,862.3153,862.5854,864.7479,space,1.9012,,864.748,1,79,865.7977,865.7978,868.0368,space,1.9669,0.0005,0,12,12,12,1,75,155,,,,,,,,
,,5fbed1f21d5ce10fd350ce6e,65af563a7219ae981f60fdfd,2024-01-23_08h04.50.402,bars,2023.2.3,Win32,3.769317753,657b66ea316d21385b68909f,,,,,,,,,,,868.0372,869.0734,,,869.6317,869.8999,,98,98,,,,,,,,,,,,,,,,bars/012.png,bars/mask000.png,,,,,,,,,,,,6,1,,,,,,,8,4,8,4,,,,,,,,,,,869.0734,869.6317,869.8999,872.6117,space,2.4517,0.0006,872.6118,8,83,873.6422,873.6423,876.7235,space,2.8089,0.0005,0,13,13,13,1,90,15,,,,,,,,
,,5fbed1f21d5ce10fd350ce6e,65af563a7219ae981f60fdfd,2024-01-23_08h04.50.402,bars,2023.2.3,Win32,3.769317753,657b66ea316d21385b68909f,,,,,,,,,,,876.724,877.7519,,,878.2814,878.5486,,159,159,,,,,,,,,,,,,,,,bars/044.png,bars/mask002.png,,,,,,,,,,,,6,2,,,,,,,10,6,9,7,,,,,,,,,,,877.7519,878.2813,878.5486,880.4364,space,1.6282,,880.4364,84,4,881.4693,881.4694,884.0291,space,2.277,0.0006,0,14,14,14,1,75,155,,,,,,,,
,,5fbed1f21d5ce10fd350ce6e,65af563a7219ae981f60fdfd,2024-01-23_08h04.50.402,bars,2023.2.3,Win32,3.769317753,657b66ea316d21385b68909f,,,,,,,,,,,884.0295,885.0622,,,885.6012,885.8652,,51,51,,,,,,,,,,,,,,,,bars/005.png,bars/mask008.png,,,,,,,,,,,,0,1,,,,,,,8,8,9,8,,,,,,,,,,,885.0623,885.6011,885.8652,889.6615,space,3.5274,0.0007,889.6616,41,89,890.6997,890.6997,894.6356,space,3.6624,0.0003,0,15,15,15,1,10,140,,,,,,,,
,,5fbed1f21d5ce10fd350ce6e,65af563a7219ae981f60fdfd,2024-01-23_08h04.50.402,bars,2023.2.3,Win32,3.769317753,657b66ea316d21385b68909f,,,,,,,,,,,894.636,895.6781,,,896.2089,896.4738,,64,64,,,,,,,,,,,,,,,,bars/033.png,bars/mask009.png,,,,,,,,,,,,0,1,,,,,,,6,10,8,9,,,,,,,,,,,895.6781,896.2088,896.4739,898.6511,space,1.9127,,898.6513,39,89,899.6872,899.6873,902.7616,space,2.8046,0.0005,0,16,16,16,1,25,155,,,,,,,,
,,5fbed1f21d5ce10fd350ce6e,65af563a7219ae981f60fdfd,2024-01-23_08h04.50.402,bars,2023.2.3,Win32,3.769317753,657b66ea316d21385b68909f,,,,,,,,,,,902.7621,903.8017,,,904.3372,904.6241,,64,64,,,,,,,,,,,,,,,,bars/011.png,bars/mask007.png,,,,,,,,,,,,3,2,,,,,,,4,10,3,10,,,,,,,,,,,903.8017,904.3371,904.6242,908.678,space,3.7943,,908.678,84,21,909.7397,909.7398,911.4204,space,1.4056,0.0005,0,17,17,17,1,160,85,,,,,,,,
,,5fbed1f21d5ce10fd350ce6e,65af563a7219ae981f60fdfd,2024-01-23_08h04.50.402,bars,2023.2.3,Win32,3.769317753,657b66ea316d21385b68909f,,,,,,,,,,,911.4208,912.4589,,,912.995,913.2594,,140,140,,,,,,,,,,,,,,,,bars/024.png,bars/mask008.png,,,,,,,,,,,,0,1,,,,,,,2,10,1,9,,,,,,,,,,,912.459,912.995,913.2594,917.0363,space,3.5182,0.0004,917.0363,20,30,918.0831,918.0832,922.8602,space,4.503,0.0005,0,18,18,18,1,120,170,,,,,,,,
,,5fbed1f21d5ce10fd350ce6e,65af563a7219ae981f60fdfd,2024-01-23_08h04.50.402,bars,2023.2.3,Win32,3.769317753,657b66ea316d21385b68909f,,,,,,,,,,,922.8605,923.8982,,,924.4244,924.7053,,2,2,,,,,,,,,,,,,,,,bars/045.png,bars/mask002.png,,,,,,,,,,,,6,2,,,,,,,0,8,0,8,,,,,,,,,,,923.8982,924.4244,924.7054,927.3988,space,2.4343,,927.3988,82,8,928.4316,928.4317,931.8611,space,3.1219,0.0006,0,19,19,19,1,100,10,,,,,,,,
,,5fbed1f21d5ce10fd350ce6e,65af563a7219ae981f60fdfd,2024-01-23_08h04.50.402,bars,2023.2.3,Win32,3.769317753,657b66ea316d21385b68909f,,,,,,,,,,,931.8616,932.8904,,,933.4199,933.6897,,5,5,,,,,,,,,,,,,,,,bars/003.png,bars/mask001.png,,,,,,,,,,,,0,1,,,,,,,0,10,1,10,,,,,,,,,,,932.8904,933.4198,933.6897,935.8456,space,1.9009,,935.8457,20,45,936.9013,936.9013,938.9264,space,1.7521,0.0005,0,20,20,20,1,25,140,,,,,,,,
,,5fbed1f21d5ce10fd350ce6e,65af563a7219ae981f60fdfd,2024-01-23_08h04.50.402,bars,2023.2.3,Win32,3.769317753,657b66ea316d21385b68909f,,,,,,,,,,,938.9269,939.9755,,,940.5158,940.7879,,49,49,,,,,,,,,,,,,,,,bars/003.png,bars/mask006.png,,,,,,,,,,,,0,1,,,,,,,0,10,0,9,,,,,,,,,,,939.9755,940.5157,940.788,942.6774,space,1.6289,0.0005,942.6775,24,89,943.7079,943.7079,946.4935,space,2.5162,0.0004,0,21,21,21,1,25,140,,,,,,,,
,,5fbed1f21d5ce10fd350ce6e,65af563a7219ae981f60fdfd,2024-01-23_08h04.50.402,bars,2023.2.3,Win32,3.769317753,657b66ea316d21385b68909f,,,,,,,,,,,946.4939,947.5266,,,948.065,948.3291,,150,150,,,,,,,,,,,,,,,,bars/028.png,bars/mask008.png,,,,,,,,,,,,0,2,,,,,,,2,10,2,10,,,,,,,,,,,947.5266,948.065,948.3291,950.2363,space,1.6384,,950.2364,75,30,951.2737,951.2737,953.2268,space,1.6835,0.0005,0,22,22,22,1,45,120,,,,,,,,
,,5fbed1f21d5ce10fd350ce6e,65af563a7219ae981f60fdfd,2024-01-23_08h04.50.402,bars,2023.2.3,Win32,3.769317753,657b66ea316d21385b68909f,,,,,,,,,,,953.2272,954.2568,,,954.7954,955.0581,,169,169,,,,,,,,,,,,,,,,bars/015.png,bars/mask008.png,,,,,,,,,,,,6,2,,,,,,,4,10,3,9,,,,,,,,,,,954.2569,954.7953,955.0582,955.8898,space,0.5715,0.0004,955.8898,59,9,956.9236,956.9237,959.4563,space,2.2584,0.0006,0,23,23,23,1,110,160,,,,,,,,
,,5fbed1f21d5ce10fd350ce6e,65af563a7219ae981f60fdfd,2024-01-23_08h04.50.402,bars,2023.2.3,Win32,3.769317753,657b66ea316d21385b68909f,,,,,,,,,,,959.4568,960.4898,,,961.0259,961.2904,,167,167,,,,,,,,,,,,,,,,bars/028.png,bars/mask001.png,,,,,,,,,,,,0,2,,,,,,,2,10,2,8,,,,,,,,,,,960.4899,961.0258,961.2904,964.5412,space,2.9905,0.0004,964.5413,58,47,965.5808,965.5808,968.1302,space,2.2826,0.0005,0,24,24,24,1,45,120,,,,,,,,
,,5fbed1f21d5ce10fd350ce6e,65af563a7219ae981f60fdfd,2024-01-23_08h04.50.402,bars,2023.2.3,Win32,3.769317753,657b66ea316d21385b68909f,,,,,,,,,,,968.1306,969.1722,,,969.7432,970.0187,,52,52,,,,,,,,,,,,,,,,bars/012.png,bars/mask004.png,,,,,,,,,,,,0,2,,,,,,,0,10,0,10,,,,,,,,,,,969.1722,969.7432,970.0187,972.2254,space,1.9449,0.0005,972.2256,38,37,973.2543,973.2543,976.8945,space,3.367,,0,25,25,25,1,90,15,,,,,,,,
,,5fbed1f21d5ce10fd350ce6e,65af563a7219ae981f60fdfd,2024-01-23_08h04.50.402,bars,2023.2.3,Win32,3.769317753,657b66ea316d21385b68909f,,,,,,,,,,,976.895,977.9291,,,978.4604,978.7314,,30,30,,,,,,,,,,,,,,,,bars/034.png,bars/mask005.png,,,,,,,,,,,,0,2,,,,,,,0,10,0,10,,,,,,,,,,,977.9291,978.4604,978.7314,981.1495,space,2.1584,0.0006,981.1495,85,35,982.1807,982.1807,986.1504,space,3.6997,,0,26,26,26,1,125,65,,,,,,,,
,,5fbed1f21d5ce10fd350ce6e,65af563a7219ae981f60fdfd,2024-01-23_08h04.50.402,bars,2023.2.3,Win32,3.769317753,657b66ea316d21385b68909f,,,,,,,,,,,986.1631,987.1891,,,987.7278,987.9934,,6,6,,,,,,,,,,,,,,,,bars/020.png,bars/mask002.png,,,,,,,,,,,,3,2,,,,,,,0,8,0,6,,,,,,,,,,,987.1891,987.7276,987.9935,990.1502,space,1.9004,0.0004,990.1503,71,16,991.1803,991.1803,995.3816,space,3.9282,0.0003,0,27,27,27,1,115,170,,,,,,,,
,,5fbed1f21d5ce10fd350ce6e,65af563a7219ae981f60fdfd,2024-01-23_08h04.50.402,bars,2023.2.3,Win32,3.769317753,657b66ea316d21385b68909f,,,,,,,,,,,995.3821,996.4528,,,997.0917,997.6615,,122,122,,,,,,,,,,,,,,,,bars/011.png,bars/mask008.png,,,,,,,,,,,,0,2,,,,,,,2,6,2,5,,,,,,,,,,,996.4529,997.0916,997.6616,999.3786,space,1.1674,0.0006,999.3786,38,37,1000.4787,1000.4787,1006.0322,space,4.973,,0,28,28,28,1,160,85,,,,,,,,
,,5fbed1f21d5ce10fd350ce6e,65af563a7219ae981f60fdfd,2024-01-23_08h04.50.402,bars,2023.2.3,Win32,3.769317753,657b66ea316d21385b68909f,,,,,,,,,,,1006.044,1007.0635,,,1007.599,1007.8636,,178,178,,,,,,,,,,,,,,,,bars/040.png,bars/mask000.png,,,,,,,,,,,,6,2,,,,,,,0,8,0,8,,,,,,,,,,,1007.0636,1007.599,1007.8637,1010.5674,space,2.4416,0.0003,1010.5674,38,7,1011.6057,1011.6057,1013.8517,space,1.9743,0.0005,0,29,29,29,1,140,5,,,,,,,,
,,5fbed1f21d5ce10fd350ce6e,65af563a7219ae981f60fdfd,2024-01-23_08h04.50.402,bars,2023.2.3,Win32,3.769317753,657b66ea316d21385b68909f,,,,,,,,,,,1013.8521,1014.8801,,,1015.4103,1015.6797,,47,47,,,,,,,,,,,,,,,,bars/025.png,bars/mask004.png,,,,,,,,,,,,5,2,,,,,,,0,6,0,7,,,,,,,,,,,1014.8801,1015.4102,1015.6798,1017.8495,space,1.9095,0.0005,1017.8496,58,7,1018.8885,1018.8885,1020.8699,space,1.7042,,0,30,30,30,1,105,40,,,,,,,,
,,5fbed1f21d5ce10fd350ce6e,65af563a7219ae981f60fdfd,2024-01-23_08h04.50.402,bars,2023.2.3,Win32,3.769317753,657b66ea316d21385b68909f,,,,,,,,,,,1020.8703,1021.9159,,,1022.4566,1022.7295,,146,146,,,,,,,,,,,,,,,,bars/029.png,bars/mask009.png,,,,,,,,,,,,0,1,,,,,,,0,8,1,10,,,,,,,,,,,1021.916,1022.4566,1022.7295,1024.3383,space,1.3488,,1024.3384,56,79,1025.3792,1025.3794,1029.0401,space,3.3873,,0,31,31,31,1,90,45,,,,,,,,
,,5fbed1f21d5ce10fd350ce6e,65af563a7219ae981f60fdfd,2024-01-23_08h04.50.402,bars,2023.2.3,Win32,3.769317753,657b66ea316d21385b68909f,,,,,,,,,,,1029.0404,1030.0736,,,1030.6159,1030.8803,,70,70,,,,,,,,,,,,,,,,bars/010.png,bars/mask000.png,,,,,,,,,,,,5,2,,,,,,,0,10,0,10,,,,,,,,,,,1030.0737,1030.6157,1030.8803,1031.9562,space,0.8198,,1031.9563,85,15,1032.9946,1032.9948,1036.3491,space,3.0838,0.0005,0,32,32,32,1,165,55,,,,,,,,
,,5fbed1f21d5ce10fd350ce6e,65af563a7219ae981f60fdfd,2024-01-23_08h04.50.402,bars,2023.2.3,Win32,3.769317753,657b66ea316d21385b68909f,,,,,,,,,,,1036.3495,1037.3897,,,1037.9248,1038.1887,,103,103,,,,,,,,,,,,,,,,bars/010.png,bars/mask006.png,,,,,,,,,,,,0,2,,,,,,,0,10,0,9,,,,,,,,,,,1037.3897,1037.9248,1038.1888,1039.5351,space,1.0873,0.0006,1039.5351,62,48,1040.5658,1040.5659,1042.8046,space,1.9665,,0,33,33,33,1,165,55,,,,,,,,
,,5fbed1f21d5ce10fd350ce6e,65af563a7219ae981f60fdfd,2024-01-23_08h04.50.402,bars,2023.2.3,Win32,3.769317753,657b66ea316d21385b68909f,,,,,,,,,,,1042.805,1043.8456,,,1044.3755,1044.6463,,179,-1,,,,,,,,,,,,,,,,bars/046.png,bars/mask001.png,,,,,,,,,,,,0,1,,,,,,,2,8,1,7,,,,,,,,,,,1043.8457,1044.3754,1044.6463,1046.8067,space,1.9021,,1046.8068,24,86,1047.8381,1047.8381,1049.2832,space,1.164,,0,34,34,34,1,155,85,,,,,,,,
,,5fbed1f21d5ce10fd350ce6e,65af563a7219ae981f60fdfd,2024-01-23_08h04.50.402,bars,2023.2.3,Win32,3.769317753,657b66ea316d21385b68909f,,,,,,,,,,,1049.2837,1050.3338,,,1050.8688,1051.1332,,42,42,,,,,,,,,,,,,,,,bars/027.png,bars/mask002.png,,,,,,,,,,,,5,2,,,,,,,0,6,0,7,,,,,,,,,,,1050.3338,1050.8688,1051.1332,1051.6837,space,0.2919,0.0004,1051.6838,68,8,1052.7188,1052.7188,1055.5201,space,2.5304,0.0005,0,35,35,35,1,110,50,,,,,,,,
,,5fbed1f21d5ce10fd350ce6e,65af563a7219ae981f60fdfd,2024-01-23_08h04.50.402,bars,2023.2.3,Win32,3.769317753,657b66ea316d21385b68909f,,,,,,,,,,,1055.5205,1056.5561,,,1057.0959,1057.3606,,144,144,,,,,,,,,,,,,,,,bars/011.png,bars/mask006.png,,,,,,,,,,,,1,1,,,,,,,0,8,2,8,,,,,,,,,,,1056.5561,1057.0957,1057.3607,1058.4365,space,0.8131,0.0004,1058.4365,16,59,1059.4846,1059.4847,1063.0535,space,3.2934,,0,36,36,36,1,160,85,,,,,,,,
,,5fbed1f21d5ce10fd350ce6e,65af563a7219ae981f60fdfd,2024-01-23_08h04.50.402,bars,2023.2.3,Win32,3.769317753,657b66ea316d21385b68909f,,,,,,,,,,,1063.0542,1064.147,,,1064.7266,1064.7277,,133,133,,,,,,,,,,,,,,,,bars/028.png,bars/mask007.png,,,,,,,,,,,,4,2,,,,,,,0,6,0,7,,,,,,,,,,,1064.1471,1064.7266,1064.7277,1065.8458,space,0.5789,0.0006,1065.8458,88,13,1066.9456,1066.9457,1072.0565,space,4.5461,0.0004,0,37,37,37,1,45,120,,,,,,,,
,,5fbed1f21d5ce10fd350ce6e,65af563a7219ae981f60fdfd,2024-01-23_08h04.50.402,bars,2023.2.3,Win32,3.769317753,657b66ea316d21385b68909f,,,,,,,,,,,1072.0686,1073.0889,,,1073.6255,1073.888,,17,17,,,,,,,,,,,,,,,,bars/049.png,bars/mask005.png,,,,,,,,,,,,0,1,,,,,,,0,8,1,9,,,,,,,,,,,1073.0889,1073.6255,1073.8881,1079.5789,space,5.4334,0.0003,1079.579,37,82,1080.6232,1080.6233,1082.0356,space,1.1324,0.0004,0,38,38,38,1,160,115,,,,,,,,
,,5fbed1f21d5ce10fd350ce6e,65af563a7219ae981f60fdfd,2024-01-23_08h04.50.402,bars,2023.2.3,Win32,3.769317753,657b66ea316d21385b68909f,,,,,,,,,,,1082.0359,1083.0928,,,1083.6343,1083.8991,,106,106,,,,,,,,,,,,,,,,bars/004.png,bars/mask001.png,,,,,,,,,,,,3,2,,,,,,,2,6,2,7,,,,,,,,,,,1083.0929,1083.6343,1083.8992,1087.1393,space,2.9806,0.0004,1087.1393,81,19,1088.1871,1088.1872,1094.3778,space,5.9149,0.0004,0,39,39,39,1,25,125,,,,,,,,
,,5fbed1f21d5ce10fd350ce6e,65af563a7219ae981f60fdfd,2024-01-23_08h04.50.402,bars,2023.2.3,Win32,3.769317753,657b66ea316d21385b68909f,,,,,,,,,,,1094.3937,1095.4174,,,1095.9555,1096.2177,,151,151,,,,,,,,,,,,,,,,bars/041.png,bars/mask007.png,,,,,,,,,,,,0,1,,,,,,,4,4,5,3,,,,,,,,,,,1095.4175,1095.9555,1096.2178,1101.0653,space,4.5882,0.0006,1101.0654,49,66,1102.0988,1102.0989,1105.7552,space,3.3814,0.0004,0,40,40,40,1,20,85,,,,,,,,
,,5fbed1f21d5ce10fd350ce6e,65af563a7219ae981f60fdfd,2024-01-23_08h04.50.402,bars,2023.2.3,Win32,3.769317753,657b66ea316d21385b68909f,,,,,,,,,,,1105.7558,1106.8099,,,1107.3392,1107.6101,,69,69,,,,,,,,,,,,,,,,bars/045.png,bars/mask002.png,,,,,,,,,,,,0,1,,,,,,,2,6,1,7,,,,,,,,,,,1106.81,1107.3391,1107.6101,1113.0137,space,5.144,0.0007,1113.0137,31,59,1114.0513,1114.0514,1119.4142,space,5.0898,0.0005,0,41,41,41,1,100,10,,,,,,,,
,,5fbed1f21d5ce10fd350ce6e,65af563a7219ae981f60fdfd,2024-01-23_08h04.50.402,bars,2023.2.3,Win32,3.769317753,657b66ea316d21385b68909f,,,,,,,,,,,1119.4328,1120.4922,,,1121.0349,1121.3008,,4,4,,,,,,,,,,,,,,,,bars/017.png,bars/mask005.png,,,,,,,,,,,,0,1,,,,,,,4,4,3,3,,,,,,,,,,,1120.4923,1121.0349,1121.3009,1122.1126,space,0.5528,0.0005,1122.1127,39,41,1123.1508,1123.1508,1125.9928,space,2.5658,,0,42,42,42,1,145,45,,,,,,,,
,,5fbed1f21d5ce10fd350ce6e,65af563a7219ae981f60fdfd,2024-01-23_08h04.50.402,bars,2023.2.3,Win32,3.769317753,657b66ea316d21385b68909f,,,,,,,,,,,1125.9932,1127.0354,,,1127.561,1127.8294,,82,82,,,,,,,,,,,,,,,,bars/019.png,bars/mask009.png,,,,,,,,,,,,1,2,,,,,,,2,6,4,6,,,,,,,,,,,1127.0355,1127.5608,1127.8294,1130.5273,space,2.4391,,1130.5274,37,23,1131.5653,1131.5653,1135.0874,space,3.2267,0.0006,0,43,43,43,1,45,105,,,,,,,,
,,5fbed1f21d5ce10fd350ce6e,65af563a7219ae981f60fdfd,2024-01-23_08h04.50.402,bars,2023.2.3,Win32,3.769317753,657b66ea316d21385b68909f,,,,,,,,,,,1135.0879,1135.6422,,,1136.1926,1136.1942,,146,146,,,,,,,,,,,,,,,,bars/024.png,bars/mask002.png,,,,,,,,,,,,2,2,,,,,,,0,8,0,8,,,,,,,,,,,1135.6423,1136.1926,1136.1943,1138.4316,space,1.6892,0.0007,1138.4316,26,24,1139.5092,1139.5093,1141.7501,space,1.7108,,0,44,44,44,1,120,170,,,,,,,,
,,5fbed1f21d5ce10fd350ce6e,65af563a7219ae981f60fdfd,2024-01-23_08h04.50.402,bars,2023.2.3,Win32,3.769317753,657b66ea316d21385b68909f,,,,,,,,,,,1141.7504,1142.7931,,,1143.3219,1143.6005,,8,8,,,,,,,,,,,,,,,,bars/049.png,bars/mask008.png,,,,,,,,,,,,0,1,,,,,,,2,6,1,7,,,,,,,,,,,1142.7931,1143.3218,1143.6005,1145.7489,space,1.8925,0.0006,1145.7489,28,73,1146.7876,1146.7878,1147.9106,space,0.8538,,0,45,45,45,1,160,115,,,,,,,,
,,5fbed1f21d5ce10fd350ce6e,65af563a7219ae981f60fdfd,2024-01-23_08h04.50.402,bars,2023.2.3,Win32,3.769317753,657b66ea316d21385b68909f,,,,,,,,,,,1147.9111,1148.9608,,,1149.497,1149.7679,,154,154,,,,,,,,,,,,,,,,bars/009.png,bars/mask003.png,,,,,,,,,,,,0,1,,,,,,,0,4,0,4,,,,,,,,,,,1148.9609,1149.4968,1149.7679,1151.9437,space,1.9051,,1151.9438,41,49,1152.9884,1152.9884,1161.6803,space,8.421,0.0003,0,46,46,46,1,15,105,,,,,,,,
,,5fbed1f21d5ce10fd350ce6e,65af563a7219ae981f60fdfd,2024-01-23_08h04.50.402,bars,2023.2.3,Win32,3.769317753,657b66ea316d21385b68909f,,,,,,,,,,,1161.6921,1162.7192,,,1163.254,1163.5184,,45,45,,,,,,,,,,,,,,,,bars/006.png,bars/mask000.png,,,,,,,,,,,,1,1,,,,,,,2,6,2,6,,,,,,,,,,,1162.7193,1163.2539,1163.5184,1165.9725,space,2.1854,,1165.9725,10,55,1167.042,1167.042,1173.5207,space,6.21,,0,47,47,47,1,35,100,,,,,,,,
,,5fbed1f21d5ce10fd350ce6e,65af563a7219ae981f60fdfd,2024-01-23_08h04.50.402,bars,2023.2.3,Win32,3.769317753,657b66ea316d21385b68909f,,,,,,,,,,,1173.5381,1174.5704,,,1175.103,1175.3686,,27,27,,,,,,,,,,,,,,,,bars/000.png,bars/mask004.png,,,,,,,,,,,,0,1,,,,,,,0,4,0,3,,,,,,,,,,,1174.5704,1175.1029,1175.3686,1176.1796,space,0.5502,,1176.1796,13,62,1177.2199,1177.22,1178.9111,space,1.4188,0.0004,0,48,48,48,1,40,145,,,,,,,,
,,5fbed1f21d5ce10fd350ce6e,65af563a7219ae981f60fdfd,2024-01-23_08h04.50.402,bars,2023.2.3,Win32,3.769317753,657b66ea316d21385b68909f,,,,,,,,,,,1178.9116,1179.7824,,,1180.3537,1180.3549,,100,100,,,,,,,,,,,,,,,,bars/025.png,bars/mask003.png,,,,,,,,,,,,2,1,,,,,,,2,2,2,3,,,,,,,,,,,1179.7825,1180.3536,1180.3549,1180.9418,space,0.0228,0.0008,1180.9419,5,60,1182.0286,1182.0287,1184.3949,space,1.7867,0.0008,0,49,49,49,1,105,40,,,,,,,,
,,5fbed1f21d5ce10fd350ce6e,65af563a7219ae981f60fdfd,2024-01-23_08h04.50.402,bars,2023.2.3,Win32,3.769317753,657b66ea316d21385b68909f,,,,,,,,,,,,,,,,,,,,,,,,,,,,,,,,,,,,,,,,,,,,,,,,,,,,,,,,,,,,,,,,,,,,,,,,,,,,,,,,,,,,,,,,,,,,,1184.3968,1244.2323,0,0,0,0,1,sequence_tables/blk043.csv
,,5fbed1f21d5ce10fd350ce6e,65af563a7219ae981f60fdfd,2024-01-23_08h04.50.402,bars,2023.2.3,Win32,3.769317753,657b66ea316d21385b68909f,,,,,,,,,,,1246.8507,1247.8801,,,1248.4085,1248.6805,,31,31,,,,,,,,,,,,,,,,bars/029.png,bars/mask002.png,,,,,,,,,,,,2,2,,,,,,,2,3,5,3,,,,,,1244.246,1246.8447,space,2.3591,0.0007,1247.8801,1248.4085,1248.6806,1252.3163,space,3.3887,0.0007,1252.3163,59,14,1253.3454,1253.3454,1253.3603,,,,0,0,0,0,1,90,45,,,,,,,,
,,5fbed1f21d5ce10fd350ce6e,65af563a7219ae981f60fdfd,2024-01-23_08h04.50.402,bars,2023.2.3,Win32,3.769317753,657b66ea316d21385b68909f,,,,,,,,,,,1253.3607,1254.4032,,,1254.9415,1255.498,,154,154,,,,,,,,,,,,,,,,bars/023.png,bars/mask009.png,,,,,,,,,,,,0,2,,,,,,,4,1,3,1,,,,,,,,,,,1254.4032,1254.9414,1255.4981,1257.1158,space,1.09,0.0007,1257.1159,46,39,1258.1882,1258.1884,1258.1903,,,,0,1,1,1,1,20,115,,,,,,,,
,,5fbed1f21d5ce10fd350ce6e,65af563a7219ae981f60fdfd,2024-01-23_08h04.50.402,bars,2023.2.3,Win32,3.769317753,657b66ea316d21385b68909f,,,,,,,,,,,1258.1909,1259.2575,,,1259.865,1259.8661,,135,135,,,,,,,,,,,,,,,,bars/031.png,bars/mask008.png,,,,,,,,,,,,3,1,,,,,,,6,0,5,0,,,,,,,,,,,1259.2575,1259.865,1259.8661,1260.9397,space,0.5539,0.0005,1260.9398,15,80,1262.0397,1262.0398,1262.0433,,,,0,2,2,2,1,120,35,,,,,,,,
,,5fbed1f21d5ce10fd350ce6e,65af563a7219ae981f60fdfd,2024-01-23_08h04.50.402,bars,2023.2.3,Win32,3.769317753,657b66ea316d21385b68909f,,,,,,,,,,,1262.0437,1263.0684,,,1263.3471,1263.3478,,108,108,,,,,,,,,,,,,,,,bars/028.png,bars/mask008.png,,,,,,,,,,,,1,2,,,,,,,4,2,4,2,,,,,,,,,,,1263.0685,1263.3471,1263.3478,1265.1619,space,1.5611,0.0004,1265.162,63,12,1266.2035,1266.2036,1266.2064,,,,0,3,3,3,1,45,120,,,,,,,,
,,5fbed1f21d5ce10fd350ce6e,65af563a7219ae981f60fdfd,2024-01-23_08h04.50.402,bars,2023.2.3,Win32,3.769317753,657b66ea316d21385b68909f,,,,,,,,,,,1266.2068,1267.2404,,,1267.7709,1268.0357,,19,19,,,,,,,,,,,,,,,,bars/009.png,bars/mask005.png,,,,,,,,,,,,5,1,,,,,,,6,4,6,4,,,,,,,,,,,1267.2405,1267.7709,1268.0358,1269.623,space,1.3381,0.0004,1269.623,4,86,1270.6668,1270.6669,1270.6695,,,,0,4,4,4,1,15,105,,,,,,,,
,,5fbed1f21d5ce10fd350ce6e,65af563a7219ae981f60fdfd,2024-01-23_08h04.50.402,bars,2023.2.3,Win32,3.769317753,657b66ea316d21385b68909f,,,,,,,,,,,1270.6698,1271.6977,,,1272.2271,1272.4934,,158,158,,,,,,,,,,,,,,,,bars/014.png,bars/mask001.png,,,,,,,,,,,,1,2,,,,,,,4,2,3,2,,,,,,,,,,,1271.6978,1272.2271,1272.4935,1273.5295,space,0.7831,,1273.5295,78,22,1274.5636,1274.5637,1274.5665,,,,0,5,5,5,1,80,0,,,,,,,,
,,5fbed1f21d5ce10fd350ce6e,65af563a7219ae981f60fdfd,2024-01-23_08h04.50.402,bars,2023.2.3,Win32,3.769317753,657b66ea316d21385b68909f,,,,,,,,,,,1274.5669,1275.597,,,1276.1271,1276.3905,,27,27,,,,,,,,,,,,,,,,bars/007.png,bars/mask004.png,,,,,,,,,,,,0,2,,,,,,,2,4,2,5,,,,,,,,,,,1275.597,1276.1271,1276.3906,1278.7211,space,2.0836,,1278.7212,32,28,1279.7572,1279.7573,1279.7698,,,,0,6,6,6,1,175,55,,,,,,,,
,,5fbed1f21d5ce10fd350ce6e,65af563a7219ae981f60fdfd,2024-01-23_08h04.50.402,bars,2023.2.3,Win32,3.769317753,657b66ea316d21385b68909f,,,,,,,,,,,1279.7702,1280.7892,,,1281.3199,1281.5915,,59,59,,,,,,,,,,,,,,,,bars/034.png,bars/mask002.png,,,,,,,,,,,,2,2,,,,,,,4,2,5,2,,,,,,,,,,,1280.7892,1281.3199,1281.5916,1282.8866,space,1.0483,0.0004,1282.8866,66,6,1283.9357,1283.9357,1283.937,,,,0,7,7,7,1,125,65,,,,,,,,
,,5fbed1f21d5ce10fd350ce6e,65af563a7219ae981f60fdfd,2024-01-23_08h04.50.402,bars,2023.2.3,Win32,3.769317753,657b66ea316d21385b68909f,,,,,,,,,,,1283.9373,1284.9691,,,1285.4986,1285.7697,,114,114,,,,,,,,,,,,,,,,bars/004.png,bars/mask004.png,,,,,,,,,,,,4,2,,,,,,,2,4,2,6,,,,,,,,,,,1284.9691,1285.4985,1285.7697,1286.8017,space,0.7862,0.0004,1286.8019,89,11,1287.8325,1287.8325,1287.8337,,,,0,8,8,8,1,25,125,,,,,,,,
,,5fbed1f21d5ce10fd350ce6e,65af563a7219ae981f60fdfd,2024-01-23_08h04.50.402,bars,2023.2.3,Win32,3.769317753,657b66ea316d21385b68909f,,,,,,,,,,,1287.8341,1288.8829,,,1289.4171,1289.685,,104,104,,,,,,,,,,,,,,,,bars/040.png,bars/mask005.png,,,,,,,,,,,,0,1,,,,,,,0,2,0,2,,,,,,,,,,,1288.8829,1289.4171,1289.685,1290.2039,space,0.2695,,1290.2039,36,81,1291.2385,1291.2385,1291.241,,,,0,9,9,9,1,140,5,,,,,,,,
,,5fbed1f21d5ce10fd350ce6e,65af563a7219ae981f60fdfd,2024-01-23_08h04.50.402,bars,2023.2.3,Win32,3.769317753,657b66ea316d21385b68909f,,,,,,,,,,,1291.2414,1292.2757,,,1292.8156,1293.0866,,118,118,,,,,,,,,,,,,,,,bars/001.png,bars/mask004.png,,,,,,,,,,,,0,1,,,,,,,0,4,0,5,,,,,,,,,,,1292.2757,1292.8156,1293.0867,1293.8683,space,0.5339,,1293.8684,12,33,1294.9131,1294.9132,1294.9145,,,,0,10,10,10,1,130,85,,,,,,,,
,,5fbed1f21d5ce10fd350ce6e,65af563a7219ae981f60fdfd,2024-01-23_08h04.50.402,bars,2023.2.3,Win32,3.769317753,657b66ea316d21385b68909f,,,,,,,,,,,1294.9149,1295.9475,,,1296.4833,1296.7505,,16,16,,,,,,,,,,,,,,,,bars/002.png,bars/mask008.png,,,,,,,,,,,,0,1,,,,,,,2,2,1,0,,,,,,,,,,,1295.9475,1296.4832,1296.7506,1298.1783,space,1.178,0.0006,1298.1784,66,69,1299.2442,1299.2443,1299.2462,,,,0,11,11,11,1,130,85,,,,,,,,
,,5fbed1f21d5ce10fd350ce6e,65af563a7219ae981f60fdfd,2024-01-23_08h04.50.402,bars,2023.2.3,Win32,3.769317753,657b66ea316d21385b68909f,,,,,,,,,,,1299.2469,1300.3225,,,1300.8844,1300.8857,,33,33,,,,,,,,,,,,,,,,bars/037.png,bars/mask005.png,,,,,,,,,,,,0,1,,,,,,,4,4,5,5,,,,,,,,,,,1300.3226,1300.8844,1300.8857,1302.0309,space,0.5779,0.0007,1302.0309,63,72,1303.1574,1303.1575,1303.1594,,,,0,12,12,12,1,150,105,,,,,,,,
,,5fbed1f21d5ce10fd350ce6e,65af563a7219ae981f60fdfd,2024-01-23_08h04.50.402,bars,2023.2.3,Win32,3.769317753,657b66ea316d21385b68909f,,,,,,,,,,,1303.1601,1304.2779,,,1304.848,1304.8492,,8,8,,,,,,,,,,,,,,,,bars/039.png,bars/mask004.png,,,,,,,,,,,,0,1,,,,,,,2,2,0,3,,,,,,,,,,,1304.278,1304.8478,1304.8494,1307.4665,space,2.1536,,1307.4666,13,83,1308.5259,1308.5259,1308.5429,,,,0,13,13,13,1,175,105,,,,,,,,
,,5fbed1f21d5ce10fd350ce6e,65af563a7219ae981f60fdfd,2024-01-23_08h04.50.402,bars,2023.2.3,Win32,3.769317753,657b66ea316d21385b68909f,,,,,,,,,,,1308.5435,1309.5805,,,1310.1073,1310.372,,124,124,,,,,,,,,,,,,,,,bars/039.png,bars/mask006.png,,,,,,,,,,,,1,2,,,,,,,4,4,5,4,,,,,,,,,,,1309.5806,1310.1073,1310.372,1310.8905,space,0.2646,0.0004,1310.8905,51,19,1311.9273,1311.9273,1311.9295,,,,0,14,14,14,1,175,105,,,,,,,,
,,5fbed1f21d5ce10fd350ce6e,65af563a7219ae981f60fdfd,2024-01-23_08h04.50.402,bars,2023.2.3,Win32,3.769317753,657b66ea316d21385b68909f,,,,,,,,,,,1311.9298,1312.958,,,1313.4901,1313.7659,,145,145,,,,,,,,,,,,,,,,bars/022.png,bars/mask002.png,,,,,,,,,,,,0,1,,,,,,,2,6,1,7,,,,,,,,,,,1312.958,1313.49,1313.7659,1314.8165,space,0.8016,0.0007,1314.8166,50,55,1315.8793,1315.8793,1315.8825,,,,0,15,15,15,1,95,20,,,,,,,,
,,5fbed1f21d5ce10fd350ce6e,65af563a7219ae981f60fdfd,2024-01-23_08h04.50.402,bars,2023.2.3,Win32,3.769317753,657b66ea316d21385b68909f,,,,,,,,,,,1315.883,1316.7081,,,1317.2506,1317.52,,130,130,,,,,,,,,,,,,,,,bars/000.png,bars/mask006.png,,,,,,,,,,,,3,2,,,,,,,4,4,2,5,,,,,,,,,,,1316.7082,1317.2505,1317.52,1318.8166,space,1.0472,,1318.8167,90,15,1319.8508,1319.8509,1319.8644,,,,0,16,16,16,1,40,145,,,,,,,,
,,5fbed1f21d5ce10fd350ce6e,65af563a7219ae981f60fdfd,2024-01-23_08h04.50.402,bars,2023.2.3,Win32,3.769317753,657b66ea316d21385b68909f,,,,,,,,,,,1319.8646,1320.8888,,,1321.4168,1321.6864,,5,5,,,,,,,,,,,,,,,,bars/032.png,bars/mask005.png,,,,,,,,,,,,1,2,,,,,,,6,2,5,2,,,,,,,,,,,1320.8889,1321.4167,1321.6864,1323.0068,space,1.0722,0.0003,1323.0068,60,15,1324.0386,1324.0386,1324.0401,,,,0,17,17,17,1,125,20,,,,,,,,
,,5fbed1f21d5ce10fd350ce6e,65af563a7219ae981f60fdfd,2024-01-23_08h04.50.402,bars,2023.2.3,Win32,3.769317753,657b66ea316d21385b68909f,,,,,,,,,,,1324.0405,1325.0781,,,1325.6122,1325.876,,30,30,,,,,,,,,,,,,,,,bars/012.png,bars/mask009.png,,,,,,,,,,,,2,2,,,,,,,8,4,7,3,,,,,,,,,,,1325.0782,1325.6122,1325.8761,1329.2426,space,3.118,0.0005,1329.2427,60,15,1330.2806,1330.2807,1330.2941,,,,0,18,18,18,1,90,15,,,,,,,,
,,5fbed1f21d5ce10fd350ce6e,65af563a7219ae981f60fdfd,2024-01-23_08h04.50.402,bars,2023.2.3,Win32,3.769317753,657b66ea316d21385b68909f,,,,,,,,,,,1330.2943,1331.1038,,,1331.658,1331.6592,,15,15,,,,,,,,,,,,,,,,bars/027.png,bars/mask003.png,,,,,,,,,,,,0,2,,,,,,,6,2,5,3,,,,,,,,,,,1331.1038,1331.658,1331.6593,1332.7365,space,0.5559,0.0007,1332.7365,85,35,1333.8042,1333.8043,1333.8057,,,,0,19,19,19,1,110,50,,,,,,,,
,,5fbed1f21d5ce10fd350ce6e,65af563a7219ae981f60fdfd,2024-01-23_08h04.50.402,bars,2023.2.3,Win32,3.769317753,657b66ea316d21385b68909f,,,,,,,,,,,1333.8061,1334.8797,,,1335.4295,1335.4309,,161,161,,,,,,,,,,,,,,,,bars/039.png,bars/mask004.png,,,,,,,,,,,,4,1,,,,,,,8,4,8,2,,,,,,,,,,,1334.8798,1335.4294,1335.4309,1337.0611,space,1.0961,0.0007,1337.0611,14,56,1338.149,1338.1491,1338.1532,,,,0,20,20,20,1,175,105,,,,,,,,
,,5fbed1f21d5ce10fd350ce6e,65af563a7219ae981f60fdfd,2024-01-23_08h04.50.402,bars,2023.2.3,Win32,3.769317753,657b66ea316d21385b68909f,,,,,,,,,,,1338.1538,1338.8994,,,1339.4258,1339.7079,,161,161,,,,,,,,,,,,,,,,bars/008.png,bars/mask005.png,,,,,,,,,,,,2,2,,,,,,,6,6,5,6,,,,,,,,,,,1338.8995,1339.4257,1339.7079,1341.0061,space,1.051,,1341.0062,51,19,1342.0593,1342.0593,1342.0624,,,,0,21,21,21,1,110,0,,,,,,,,
,,5fbed1f21d5ce10fd350ce6e,65af563a7219ae981f60fdfd,2024-01-23_08h04.50.402,bars,2023.2.3,Win32,3.769317753,657b66ea316d21385b68909f,,,,,,,,,,,1342.0629,1343.1093,,,1343.6435,1343.9063,,162,162,,,,,,,,,,,,,,,,bars/000.png,bars/mask001.png,,,,,,,,,,,,2,2,,,,,,,8,4,9,4,,,,,,,,,,,1343.1093,1343.6435,1343.9064,1344.4219,space,0.2666,0.0004,1344.422,58,17,1345.4571,1345.4571,1345.4582,,,,0,22,22,22,1,40,145,,,,,,,,
,,5fbed1f21d5ce10fd350ce6e,65af563a7219ae981f60fdfd,2024-01-23_08h04.50.402,bars,2023.2.3,Win32,3.769317753,657b66ea316d21385b68909f,,,,,,,,,,,1345.4586,1346.495,,,1347.0308,1347.2955,,1,1,,,,,,,,,,,,,,,,bars/028.png,bars/mask002.png,,,,,,,,,,,,0,1,,,,,,,10,2,10,2,,,,,,,,,,,1346.495,1347.0308,1347.2956,1348.853,space,1.3073,0.0004,1348.8531,44,61,1349.8843,1349.8843,1349.9045,,,,0,23,23,23,1,45,120,,,,,,,,
,,5fbed1f21d5ce10fd350ce6e,65af563a7219ae981f60fdfd,2024-01-23_08h04.50.402,bars,2023.2.3,Win32,3.769317753,657b66ea316d21385b68909f,,,,,,,,,,,1349.9049,1350.9349,,,1351.4647,1351.7397,,16,16,,,,,,,,,,,,,,,,bars/020.png,bars/mask009.png,,,,,,,,,,,,1,2,,,,,,,10,4,10,6,,,,,,,,,,,1350.935,1351.4647,1351.7398,1356.6726,space,4.688,0.0006,1356.6726,81,26,1357.7063,1357.7064,1357.7263,,,,0,24,24,24,1,115,170,,,,,,,,
,,5fbed1f21d5ce10fd350ce6e,65af563a7219ae981f60fdfd,2024-01-23_08h04.50.402,bars,2023.2.3,Win32,3.769317753,657b66ea316d21385b68909f,,,,,,,,,,,1357.7266,1358.7553,,,1359.2933,1359.5603,,100,100,,,,,,,,,,,,,,,,bars/007.png,bars/mask009.png,,,,,,,,,,,,0,2,,,,,,,10,6,9,7,,,,,,,,,,,1358.7553,1359.2933,1359.5603,1361.1328,space,1.317,0.0005,1361.1328,75,45,1362.163,1362.163,1362.1644,,,,0,25,25,25,1,175,55,,,,,,,,
,,5fbed1f21d5ce10fd350ce6e,65af563a7219ae981f60fdfd,2024-01-23_08h04.50.402,bars,2023.2.3,Win32,3.769317753,657b66ea316d21385b68909f,,,,,,,,,,,1362.1648,1363.1939,,,1363.7285,1363.9928,,161,161,,,,,,,,,,,,,,,,bars/035.png,bars/mask005.png,,,,,,,,,,,,5,1,,,,,,,10,8,10,8,,,,,,,,,,,1363.1939,1363.7284,1363.9928,1365.8132,space,1.5718,,1365.8133,14,79,1366.8443,1366.8443,1366.864,,,,0,26,26,26,1,175,60,,,,,,,,
,,5fbed1f21d5ce10fd350ce6e,65af563a7219ae981f60fdfd,2024-01-23_08h04.50.402,bars,2023.2.3,Win32,3.769317753,657b66ea316d21385b68909f,,,,,,,,,,,1366.8643,1367.8861,,,1368.4158,1368.6863,,55,55,,,,,,,,,,,,,,,,bars/037.png,bars/mask008.png,,,,,,,,,,,,0,2,,,,,,,10,10,10,10,,,,,,,,,,,1367.8862,1368.4157,1368.6863,1368.9462,space,0.0102,,1368.9462,85,50,1369.9932,1369.9932,1369.9958,,,,0,27,27,27,1,150,105,,,,,,,,
,,5fbed1f21d5ce10fd350ce6e,65af563a7219ae981f60fdfd,2024-01-23_08h04.50.402,bars,2023.2.3,Win32,3.769317753,657b66ea316d21385b68909f,,,,,,,,,,,1369.9961,1371.0316,,,1371.5596,1371.83,,93,93,,,,,,,,,,,,,,,,bars/027.png,bars/mask009.png,,,,,,,,,,,,4,1,,,,,,,10,8,10,8,,,,,,,,,,,1371.0317,1371.5596,1371.8301,1372.0884,space,0.0103,0.0004,1372.0884,17,43,1373.1121,1373.1121,1373.1147,,,,0,28,28,28,1,110,50,,,,,,,,
,,5fbed1f21d5ce10fd350ce6e,65af563a7219ae981f60fdfd,2024-01-23_08h04.50.402,bars,2023.2.3,Win32,3.769317753,657b66ea316d21385b68909f,,,,,,,,,,,1373.115,1374.1461,,,1374.6802,1374.9457,,96,96,,,,,,,,,,,,,,,,bars/034.png,bars/mask000.png,,,,,,,,,,,,0,1,,,,,,,8,10,8,10,,,,,,,,,,,1374.1461,1374.6801,1374.9457,1375.2141,space,0.0114,0.0004,1375.2141,29,31,1376.249,1376.249,1376.2503,,,,0,29,29,29,1,125,65,,,,,,,,
,,5fbed1f21d5ce10fd350ce6e,65af563a7219ae981f60fdfd,2024-01-23_08h04.50.402,bars,2023.2.3,Win32,3.769317753,657b66ea316d21385b68909f,,,,,,,,,,,1376.2506,1377.2815,,,1377.828,1378.0983,,32,32,,,,,,,,,,,,,,,,bars/025.png,bars/mask007.png,,,,,,,,,,,,7,2,,,,,,,6,10,7,10,,,,,,,,,,,1377.2815,1377.828,1378.0983,1378.3533,space,0.0105,0.0004,1378.3533,73,8,1379.3852,1379.3853,1379.3877,,,,0,30,30,30,1,105,40,,,,,,,,
,,5fbed1f21d5ce10fd350ce6e,65af563a7219ae981f60fdfd,2024-01-23_08h04.50.402,bars,2023.2.3,Win32,3.769317753,657b66ea316d21385b68909f,,,,,,,,,,,1379.3881,1380.4219,,,1380.9593,1381.2241,,149,149,,,,,,,,,,,,,,,,bars/011.png,bars/mask009.png,,,,,,,,,,,,2,1,,,,,,,4,10,3,10,,,,,,,,,,,1380.4219,1380.9592,1381.2242,1382.2738,space,0.8018,0.0006,1382.2738,11,64,1383.3064,1383.3064,1383.3091,,,,0,31,31,31,1,160,85,,,,,,,,
,,5fbed1f21d5ce10fd350ce6e,65af563a7219ae981f60fdfd,2024-01-23_08h04.50.402,bars,2023.2.3,Win32,3.769317753,657b66ea316d21385b68909f,,,,,,,,,,,1383.3095,1384.3485,,,1384.8886,1385.1527,,44,44,,,,,,,,,,,,,,,,bars/004.png,bars/mask006.png,,,,,,,,,,,,3,1,,,,,,,6,10,7,10,,,,,,,,,,,1384.3486,1384.8885,1385.1527,1389.9284,space,4.5265,0.0007,1389.9285,19,81,1391.0053,1391.0054,1391.0386,,,,0,32,32,32,1,25,125,,,,,,,,
,,5fbed1f21d5ce10fd350ce6e,65af563a7219ae981f60fdfd,2024-01-23_08h04.50.402,bars,2023.2.3,Win32,3.769317753,657b66ea316d21385b68909f,,,,,,,,,,,1391.0391,1392.0885,,,1392.6584,1392.6597,,131,131,,,,,,,,,,,,,,,,bars/039.png,bars/mask003.png,,,,,,,,,,,,1,2,,,,,,,4,10,3,9,,,,,,,,,,,1392.0885,1392.6584,1392.6597,1393.1924,space,0.0167,0.0006,1393.1925,44,26,1394.265,1394.2651,1394.2687,,,,0,33,33,33,1,175,105,,,,,,,,
,,5fbed1f21d5ce10fd350ce6e,65af563a7219ae981f60fdfd,2024-01-23_08h04.50.402,bars,2023.2.3,Win32,3.769317753,657b66ea316d21385b68909f,,,,,,,,,,,1394.2693,1395.3445,,,1395.9066,1395.9073,,80,80,,,,,,,,,,,,,,,,bars/036.png,bars/mask000.png,,,,,,,,,,,,0,2,,,,,,,6,8,8,8,,,,,,,,,,,1395.3445,1395.9065,1395.9073,1397.1902,space,1.0369,,1397.1903,65,60,1398.2204,1398.2204,1398.2215,,,,0,34,34,34,1,145,20,,,,,,,,
,,5fbed1f21d5ce10fd350ce6e,65af563a7219ae981f60fdfd,2024-01-23_08h04.50.402,bars,2023.2.3,Win32,3.769317753,657b66ea316d21385b68909f,,,,,,,,,,,1398.222,1399.2611,,,1399.7981,1400.0642,,120,120,,,,,,,,,,,,,,,,bars/026.png,bars/mask004.png,,,,,,,,,,,,0,2,,,,,,,4,6,4,6,,,,,,,,,,,1399.2612,1399.7981,1400.0643,1400.8405,space,0.528,0.0004,1400.8405,85,35,1401.8705,1401.8706,1401.8716,,,,0,35,35,35,1,35,85,,,,,,,,
,,5fbed1f21d5ce10fd350ce6e,65af563a7219ae981f60fdfd,2024-01-23_08h04.50.402,bars,2023.2.3,Win32,3.769317753,657b66ea316d21385b68909f,,,,,,,,,,,1401.872,1402.9032,,,1403.4342,1403.702,,174,174,,,,,,,,,,,,,,,,bars/003.png,bars/mask003.png,,,,,,,,,,,,0,1,,,,,,,2,4,1,4,,,,,,,,,,,1402.9032,1403.4342,1403.7021,1404.2277,space,0.2685,0.0006,1404.2277,31,34,1405.0213,1405.0214,1405.0244,,,,0,36,36,36,1,25,140,,,,,,,,
,,5fbed1f21d5ce10fd350ce6e,65af563a7219ae981f60fdfd,2024-01-23_08h04.50.402,bars,2023.2.3,Win32,3.769317753,657b66ea316d21385b68909f,,,,,,,,,,,1405.025,1406.0577,,,1406.5957,1406.8573,,45,45,,,,,,,,,,,,,,,,bars/041.png,bars/mask003.png,,,,,,,,,,,,0,1,,,,,,,0,2,1,0,,,,,,,,,,,1406.0577,1406.5956,1406.8573,1407.6381,space,0.5338,0.0005,1407.6382,25,40,1408.7024,1408.7024,1408.7036,,,,0,37,37,37,1,20,85,,,,,,,,
,,5fbed1f21d5ce10fd350ce6e,65af563a7219ae981f60fdfd,2024-01-23_08h04.50.402,bars,2023.2.3,Win32,3.769317753,657b66ea316d21385b68909f,,,,,,,,,,,1408.7039,1409.7722,,,1410.2989,1410.5646,,146,146,,,,,,,,,,,,,,,,bars/041.png,bars/mask005.png,,,,,,,,,,,,0,1,,,,,,,2,0,2,1,,,,,,,,,,,1409.7722,1410.2988,1410.5646,1412.4048,space,1.5855,0.0005,1412.4048,54,61,1413.4403,1413.4403,1413.4412,,,,0,38,38,38,1,20,85,,,,,,,,
,,5fbed1f21d5ce10fd350ce6e,65af563a7219ae981f60fdfd,2024-01-23_08h04.50.402,bars,2023.2.3,Win32,3.769317753,657b66ea316d21385b68909f,,,,,,,,,,,1413.4415,1414.4829,,,1415.0237,1415.2885,,102,102,,,,,,,,,,,,,,,,bars/032.png,bars/mask007.png,,,,,,,,,,,,1,1,,,,,,,4,2,5,2,,,,,,,,,,,1414.483,1415.0236,1415.2886,1416.3192,space,0.7864,0.0006,1416.3192,23,82,1417.1353,1417.1353,1417.1363,,,,0,39,39,39,1,125,20,,,,,,,,
,,5fbed1f21d5ce10fd350ce6e,65af563a7219ae981f60fdfd,2024-01-23_08h04.50.402,bars,2023.2.3,Win32,3.769317753,657b66ea316d21385b68909f,,,,,,,,,,,1417.1367,1418.1741,,,1418.7068,1418.9709,,67,67,,,,,,,,,,,,,,,,bars/001.png,bars/mask000.png,,,,,,,,,,,,0,2,,,,,,,6,0,7,1,,,,,,,,,,,1418.1741,1418.7068,1418.9709,1422.6199,space,3.3985,0.0005,1422.62,63,18,1423.6527,1423.6527,1423.6666,,,,0,40,40,40,1,130,85,,,,,,,,
,,5fbed1f21d5ce10fd350ce6e,65af563a7219ae981f60fdfd,2024-01-23_08h04.50.402,bars,2023.2.3,Win32,3.769317753,657b66ea316d21385b68909f,,,,,,,,,,,1423.6671,1424.6871,,,1425.2197,1425.4842,,168,168,,,,,,,,,,,,,,,,bars/020.png,bars/mask007.png,,,,,,,,,,,,2,2,,,,,,,4,2,4,2,,,,,,,,,,,1424.6871,1425.2197,1425.4843,1425.7498,space,0.0106,0.0004,1425.7498,53,2,1426.7879,1426.7879,1426.789,,,,0,41,41,41,1,115,170,,,,,,,,
,,5fbed1f21d5ce10fd350ce6e,65af563a7219ae981f60fdfd,2024-01-23_08h04.50.402,bars,2023.2.3,Win32,3.769317753,657b66ea316d21385b68909f,,,,,,,,,,,1426.7894,1427.8201,,,1428.3495,1428.6341,,20,20,,,,,,,,,,,,,,,,bars/028.png,bars/mask003.png,,,,,,,,,,,,0,1,,,,,,,2,4,1,3,,,,,,,,,,,1427.8202,1428.3495,1428.6341,1428.8896,space,0.0103,0.0004,1428.8896,25,80,1429.6924,1429.6925,1429.6948,,,,0,42,42,42,1,45,120,,,,,,,,
,,5fbed1f21d5ce10fd350ce6e,65af563a7219ae981f60fdfd,2024-01-23_08h04.50.402,bars,2023.2.3,Win32,3.769317753,657b66ea316d21385b68909f,,,,,,,,,,,1429.6952,1430.7367,,,1431.2727,1431.5404,,72,72,,,,,,,,,,,,,,,,bars/049.png,bars/mask000.png,,,,,,,,,,,,0,2,,,,,,,0,2,1,1,,,,,,,,,,,1430.7367,1431.2726,1431.5404,1436.2082,space,4.4203,0.0005,1436.2083,88,43,1437.2493,1437.2493,1437.2638,,,,0,43,43,43,1,160,115,,,,,,,,
,,5fbed1f21d5ce10fd350ce6e,65af563a7219ae981f60fdfd,2024-01-23_08h04.50.402,bars,2023.2.3,Win32,3.769317753,657b66ea316d21385b68909f,,,,,,,,,,,1437.264,1438.2875,,,1438.8238,1439.0958,,87,87,,,,,,,,,,,,,,,,bars/015.png,bars/mask000.png,,,,,,,,,,,,0,1,,,,,,,0,4,0,4,,,,,,,,,,,1438.2876,1438.8238,1439.0959,1439.8782,space,0.5333,,1439.8782,23,73,1441.0043,1441.0044,1441.0085,,,,0,44,44,44,1,110,160,,,,,,,,
,,5fbed1f21d5ce10fd350ce6e,65af563a7219ae981f60fdfd,2024-01-23_08h04.50.402,bars,2023.2.3,Win32,3.769317753,657b66ea316d21385b68909f,,,,,,,,,,,1441.0092,1442.1053,,,1442.6877,1442.6888,,28,28,,,,,,,,,,,,,,,,bars/014.png,bars/mask006.png,,,,,,,,,,,,1,2,,,,,,,0,6,0,9,,,,,,,,,,,1442.1054,1442.6877,1442.6889,1443.287,space,0.017,0.0006,1443.2871,52,28,1444.3691,1444.3691,1444.3731,,,,0,45,45,45,1,80,0,,,,,,,,
,,5fbed1f21d5ce10fd350ce6e,65af563a7219ae981f60fdfd,2024-01-23_08h04.50.402,bars,2023.2.3,Win32,3.769317753,657b66ea316d21385b68909f,,,,,,,,,,,1444.3737,1445.5121,,,1446.1105,1446.112,,127,127,,,,,,,,,,,,,,,,bars/024.png,bars/mask004.png,,,,,,,,,,,,2,1,,,,,,,2,4,2,3,,,,,,,,,,,1445.5122,1446.1105,1446.112,1449.5072,space,2.8724,0.0007,1449.5073,7,43,1450.3327,1450.3327,1450.3487,,,,0,46,46,46,1,120,170,,,,,,,,
,,5fbed1f21d5ce10fd350ce6e,65af563a7219ae981f60fdfd,2024-01-23_08h04.50.402,bars,2023.2.3,Win32,3.769317753,657b66ea316d21385b68909f,,,,,,,,,,,1450.3492,1451.3824,,,1451.9418,1452.2147,,174,174,,,,,,,,,,,,,,,,bars/047.png,bars/mask002.png,,,,,,,,,,,,0,1,,,,,,,0,2,1,2,,,,,,,,,,,1451.3825,1451.9418,1452.2148,1456.6053,space,4.1069,0.0005,1456.6054,21,76,1457.4329,1457.4331,1457.4512,,,,0,47,47,47,1,15,70,,,,,,,,
,,5fbed1f21d5ce10fd350ce6e,65af563a7219ae981f60fdfd,2024-01-23_08h04.50.402,bars,2023.2.3,Win32,3.769317753,657b66ea316d21385b68909f,,,,,,,,,,,1457.4518,1458.2584,,,1458.8098,1459.0807,,35,35,,,,,,,,,,,,,,,,bars/000.png,bars/mask006.png,,,,,,,,,,,,2,1,,,,,,,0,4,2,5,,,,,,,,,,,1458.2585,1458.8097,1459.0807,1462.1243,space,2.7822,,1462.1243,5,70,1463.0024,1463.0025,1463.015,,,,0,48,48,48,1,40,145,,,,,,,,
,,5fbed1f21d5ce10fd350ce6e,65af563a7219ae981f60fdfd,2024-01-23_08h04.50.402,bars,2023.2.3,Win32,3.769317753,657b66ea316d21385b68909f,,,,,,,,,,,1463.0155,1463.8336,,,1464.1333,1464.4168,,26,26,,,,,,,,,,,,,,,,bars/025.png,bars/mask008.png,,,,,,,,,,,,2,2,,,,,,,2,2,1,3,,,,,,,,,,,1463.8336,1464.1332,1464.4168,1468.6136,space,3.9341,0.0003,1468.6136,79,14,1469.6482,1469.6483,1469.6682,,,,0,49,49,49,1,105,40,,,,,,,,
,,5fbed1f21d5ce10fd350ce6e,65af563a7219ae981f60fdfd,2024-01-23_08h04.50.402,bars,2023.2.3,Win32,3.769317753,657b66ea316d21385b68909f,,,,,,,,,,,,,,,,,,,,,,,,,,,,,,,,,,,,,,,,,,,,,,,,,,,,,,,,,,,,,,,,,,,,,,,,,,,,,,,,,,,,,,,,,,,,,1469.6683,1529.5045,0,1,1,1,1,sequence_tables/blk016.csv
,,5fbed1f21d5ce10fd350ce6e,65af563a7219ae981f60fdfd,2024-01-23_08h04.50.402,bars,2023.2.3,Win32,3.769317753,657b66ea316d21385b68909f,,,,,,,,,,,1532.406,1533.4346,,,1533.9849,1534.2489,,56,56,,,,,,,,,,,,,,,,bars/040.png,bars/mask001.png,,,,,,,,,,,,0,2,,,,,,,9,4,9,4,,,,,,1529.5233,1532.3993,space,2.628,0.0006,1533.4347,1533.9848,1534.2491,1538.658,space,4.1605,0.0005,1538.6581,84,51,1539.4488,1539.4488,1539.4613,,,,0,0,0,0,1,140,5,,,,,,,,
,,5fbed1f21d5ce10fd350ce6e,65af563a7219ae981f60fdfd,2024-01-23_08h04.50.402,bars,2023.2.3,Win32,3.769317753,657b66ea316d21385b68909f,,,,,,,,,,,1539.4618,1540.5154,,,1541.0909,1541.3573,,137,137,,,,,,,,,,,,,,,,bars/034.png,bars/mask005.png,,,,,,,,,,,,6,1,,,,,,,10,6,10,6,,,,,,,,,,,1540.5154,1541.0909,1541.3573,1541.6394,space,0.022,0.0005,1541.6395,12,72,1542.691,1542.6911,1542.6941,,,,0,1,1,1,1,125,65,,,,,,,,
,,5fbed1f21d5ce10fd350ce6e,65af563a7219ae981f60fdfd,2024-01-23_08h04.50.402,bars,2023.2.3,Win32,3.769317753,657b66ea316d21385b68909f,,,,,,,,,,,1542.6944,1543.7563,,,1544.2871,1544.5752,,121,121,,,,,,,,,,,,,,,,bars/000.png,bars/mask009.png,,,,,,,,,,,,1,2,,,,,,,8,4,8,5,,,,,,,,,,,1543.7563,1544.2871,1544.5753,1545.116,space,0.0153,0.0006,1545.116,81,24,1546.1816,1546.1817,1546.1855,,,,0,2,2,2,1,40,145,,,,,,,,
,,5fbed1f21d5ce10fd350ce6e,65af563a7219ae981f60fdfd,2024-01-23_08h04.50.402,bars,2023.2.3,Win32,3.769317753,657b66ea316d21385b68909f,,,,,,,,,,,1546.1862,1547.254,,,1547.8135,1547.8149,,96,96,,,,,,,,,,,,,,,,bars/035.png,bars/mask008.png,,,,,,,,,,,,0,2,,,,,,,6,6,6,7,,,,,,,,,,,1547.254,1547.8134,1547.8149,1548.8951,space,0.5629,,1548.8952,79,36,1549.5542,1549.5542,1549.5554,,,,0,3,3,3,1,175,60,,,,,,,,
,,5fbed1f21d5ce10fd350ce6e,65af563a7219ae981f60fdfd,2024-01-23_08h04.50.402,bars,2023.2.3,Win32,3.769317753,657b66ea316d21385b68909f,,,,,,,,,,,1549.5558,1550.1681,,,1550.7266,1550.728,,74,74,,,,,,,,,,,,,,,,bars/002.png,bars/mask005.png,,,,,,,,,,,,5,2,,,,,,,4,8,3,8,,,,,,,,,,,1550.1682,1550.7266,1550.728,1553.6413,space,2.3912,0.0004,1553.6413,56,11,1554.6916,1554.6917,1554.693,,,,0,4,4,4,1,130,85,,,,,,,,
,,5fbed1f21d5ce10fd350ce6e,65af563a7219ae981f60fdfd,2024-01-23_08h04.50.402,bars,2023.2.3,Win32,3.769317753,657b66ea316d21385b68909f,,,,,,,,,,,1554.6935,1555.7269,,,1556.2548,1556.5244,,30,30,,,,,,,,,,,,,,,,bars/018.png,bars/mask006.png,,,,,,,,,,,,0,2,,,,,,,2,10,1,10,,,,,,,,,,,1555.727,1556.2548,1556.5244,1556.7896,space,0.0116,0.0006,1556.7896,60,60,1557.8216,1557.8217,1557.8228,,,,0,5,5,5,1,150,90,,,,,,,,
,,5fbed1f21d5ce10fd350ce6e,65af563a7219ae981f60fdfd,2024-01-23_08h04.50.402,bars,2023.2.3,Win32,3.769317753,657b66ea316d21385b68909f,,,,,,,,,,,1557.8232,1558.8667,,,1559.4029,1559.6698,,168,168,,,,,,,,,,,,,,,,bars/033.png,bars/mask008.png,,,,,,,,,,,,5,2,,,,,,,4,8,4,8,,,,,,,,,,,1558.8667,1559.4028,1559.6699,1559.9409,space,0.0101,0.0005,1559.941,37,13,1560.9744,1560.9745,1560.9759,,,,0,6,6,6,1,25,155,,,,,,,,
,,5fbed1f21d5ce10fd350ce6e,65af563a7219ae981f60fdfd,2024-01-23_08h04.50.402,bars,2023.2.3,Win32,3.769317753,657b66ea316d21385b68909f,,,,,,,,,,,1560.9763,1562.009,,,1562.5527,1562.8229,,127,127,,,,,,,,,,,,,,,,bars/014.png,bars/mask001.png,,,,,,,,,,,,0,1,,,,,,,2,10,1,10,,,,,,,,,,,1562.009,1562.5526,1562.823,1563.0892,space,0.0106,,1563.0894,47,53,1564.1248,1564.1248,1564.1273,,,,0,7,7,7,1,80,0,,,,,,,,
,,5fbed1f21d5ce10fd350ce6e,65af563a7219ae981f60fdfd,2024-01-23_08h04.50.402,bars,2023.2.3,Win32,3.769317753,657b66ea316d21385b68909f,,,,,,,,,,,1564.1278,1565.1694,,,1565.7049,1565.9689,,99,99,,,,,,,,,,,,,,,,bars/027.png,bars/mask005.png,,,,,,,,,,,,3,1,,,,,,,4,8,4,7,,,,,,,,,,,1565.1695,1565.7048,1565.9689,1566.2293,space,0.0106,0.0006,1566.2293,11,49,1567.2688,1567.2689,1567.27,,,,0,8,8,8,1,110,50,,,,,,,,
,,5fbed1f21d5ce10fd350ce6e,65af563a7219ae981f60fdfd,2024-01-23_08h04.50.402,bars,2023.2.3,Win32,3.769317753,657b66ea316d21385b68909f,,,,,,,,,,,1567.2704,1568.3025,,,1568.8372,1569.1029,,118,118,,,,,,,,,,,,,,,,bars/003.png,bars/mask006.png,,,,,,,,,,,,2,2,,,,,,,2,6,2,7,,,,,,,,,,,1568.3026,1568.8371,1569.1031,1569.8875,space,0.5371,,1569.8877,87,22,1570.9289,1570.9289,1570.9315,,,,0,9,9,9,1,25,140,,,,,,,,
,,5fbed1f21d5ce10fd350ce6e,65af563a7219ae981f60fdfd,2024-01-23_08h04.50.402,bars,2023.2.3,Win32,3.769317753,657b66ea316d21385b68909f,,,,,,,,,,,1570.932,1571.9774,,,1572.5083,1572.7809,,35,35,,,,,,,,,,,,,,,,bars/045.png,bars/mask006.png,,,,,,,,,,,,1,2,,,,,,,4,8,3,7,,,,,,,,,,,1571.9775,1572.5082,1572.781,1573.5575,space,0.5279,,1573.5576,65,25,1574.5961,1574.5961,1574.5972,,,,0,10,10,10,1,100,10,,,,,,,,
,,5fbed1f21d5ce10fd350ce6e,65af563a7219ae981f60fdfd,2024-01-23_08h04.50.402,bars,2023.2.3,Win32,3.769317753,657b66ea316d21385b68909f,,,,,,,,,,,1574.5976,1575.6292,,,1576.1572,1576.423,,123,123,,,,,,,,,,,,,,,,bars/032.png,bars/mask003.png,,,,,,,,,,,,1,1,,,,,,,2,6,1,7,,,,,,,,,,,1575.6292,1576.1572,1576.4231,1580.4544,space,3.7738,0.0006,1580.4544,2,77,1581.5351,1581.5351,1581.5634,,,,0,11,11,11,1,125,20,,,,,,,,
,,5fbed1f21d5ce10fd350ce6e,65af563a7219ae981f60fdfd,2024-01-23_08h04.50.402,bars,2023.2.3,Win32,3.769317753,657b66ea316d21385b68909f,,,,,,,,,,,1581.5638,1582.6406,,,1583.2022,1583.2033,,76,76,,,,,,,,,,,,,,,,bars/019.png,bars/mask001.png,,,,,,,,,,,,0,2,,,,,,,4,4,4,6,,,,,,,,,,,1582.6406,1583.2022,1583.2034,1585.3863,space,1.6187,0.0006,1585.3863,31,29,1586.4234,1586.4235,1586.4373,,,,0,12,12,12,1,45,105,,,,,,,,
,,5fbed1f21d5ce10fd350ce6e,65af563a7219ae981f60fdfd,2024-01-23_08h04.50.402,bars,2023.2.3,Win32,3.769317753,657b66ea316d21385b68909f,,,,,,,,,,,1586.4376,1587.4691,,,1588.0207,1588.2958,,151,151,,,,,,,,,,,,,,,,bars/002.png,bars/mask003.png,,,,,,,,,,,,0,1,,,,,,,2,6,1,6,,,,,,,,,,,1587.4691,1588.0206,1588.2959,1589.6868,space,1.0987,0.0005,1589.6869,21,66,1590.4965,1590.4967,1590.4996,,,,0,13,13,13,1,130,85,,,,,,,,
,,5fbed1f21d5ce10fd350ce6e,65af563a7219ae981f60fdfd,2024-01-23_08h04.50.402,bars,2023.2.3,Win32,3.769317753,657b66ea316d21385b68909f,,,,,,,,,,,1590.5002,1591.3086,,,1591.8687,1592.1526,,16,16,,,,,,,,,,,,,,,,bars/030.png,bars/mask007.png,,,,,,,,,,,,0,2,,,,,,,4,4,4,4,,,,,,,,,,,1591.3087,1591.8684,1592.1527,1593.8404,space,1.4081,0.0007,1593.8405,56,49,1594.6508,1594.6508,1594.6532,,,,0,14,14,14,1,140,65,,,,,,,,
,,5fbed1f21d5ce10fd350ce6e,65af563a7219ae981f60fdfd,2024-01-23_08h04.50.402,bars,2023.2.3,Win32,3.769317753,657b66ea316d21385b68909f,,,,,,,,,,,1594.6536,1595.7183,,,1596.2583,1596.5266,,42,42,,,,,,,,,,,,,,,,bars/039.png,bars/mask006.png,,,,,,,,,,,,0,1,,,,,,,6,2,6,3,,,,,,,,,,,1595.7184,1596.2582,1596.5267,1598.1881,space,1.3908,,1598.1881,47,63,1599.022,1599.0221,1599.0417,,,,0,15,15,15,1,175,105,,,,,,,,
,,5fbed1f21d5ce10fd350ce6e,65af563a7219ae981f60fdfd,2024-01-23_08h04.50.402,bars,2023.2.3,Win32,3.769317753,657b66ea316d21385b68909f,,,,,,,,,,,1599.0422,1599.8807,,,1600.4413,1600.7224,,107,107,,,,,,,,,,,,,,,,bars/002.png,bars/mask004.png,,,,,,,,,,,,0,2,,,,,,,8,0,8,0,,,,,,,,,,,1599.8808,1600.4413,1600.7224,1601.5341,space,0.5619,0.0005,1601.5341,23,22,1602.7383,1602.7383,1602.7426,,,,0,16,16,16,1,130,85,,,,,,,,
,,5fbed1f21d5ce10fd350ce6e,65af563a7219ae981f60fdfd,2024-01-23_08h04.50.402,bars,2023.2.3,Win32,3.769317753,657b66ea316d21385b68909f,,,,,,,,,,,1602.7433,1603.852,,,1604.4159,1604.4171,,89,89,,,,,,,,,,,,,,,,bars/008.png,bars/mask002.png,,,,,,,,,,,,2,1,,,,,,,6,2,6,3,,,,,,,,,,,1603.852,1604.4158,1604.4171,1605.5161,space,0.5565,0.0007,1605.5162,21,89,1606.638,1606.6382,1606.6421,,,,0,17,17,17,1,110,0,,,,,,,,
,,5fbed1f21d5ce10fd350ce6e,65af563a7219ae981f60fdfd,2024-01-23_08h04.50.402,bars,2023.2.3,Win32,3.769317753,657b66ea316d21385b68909f,,,,,,,,,,,1606.6429,1607.7386,,,1608.3052,1608.3063,,18,18,,,,,,,,,,,,,,,,bars/018.png,bars/mask007.png,,,,,,,,,,,,0,1,,,,,,,4,4,1,4,,,,,,,,,,,1607.7387,1608.3051,1608.3064,1609.4168,space,0.5806,0.0006,1609.417,48,72,1610.1799,1610.1799,1610.1812,,,,0,18,18,18,1,150,90,,,,,,,,
,,5fbed1f21d5ce10fd350ce6e,65af563a7219ae981f60fdfd,2024-01-23_08h04.50.402,bars,2023.2.3,Win32,3.769317753,657b66ea316d21385b68909f,,,,,,,,,,,1610.1817,1610.9892,,,1611.5312,1611.8083,,64,64,,,,,,,,,,,,,,,,bars/037.png,bars/mask009.png,,,,,,,,,,,,0,2,,,,,,,2,2,3,3,,,,,,,,,,,1610.9893,1611.5312,1611.8084,1613.7412,space,1.6806,0.0005,1613.7412,86,41,1614.8121,1614.8122,1614.8152,,,,0,19,19,19,1,150,105,,,,,,,,
,,5fbed1f21d5ce10fd350ce6e,65af563a7219ae981f60fdfd,2024-01-23_08h04.50.402,bars,2023.2.3,Win32,3.769317753,657b66ea316d21385b68909f,,,,,,,,,,,1614.8156,1615.6183,,,1616.1604,1616.4363,,164,164,,,,,,,,,,,,,,,,bars/049.png,bars/mask006.png,,,,,,,,,,,,1,1,,,,,,,0,4,1,3,,,,,,,,,,,1615.6183,1616.1604,1616.4364,1617.5213,space,0.832,,1617.5215,4,49,1618.3509,1618.351,1618.354,,,,0,20,20,20,1,160,115,,,,,,,,
,,5fbed1f21d5ce10fd350ce6e,65af563a7219ae981f60fdfd,2024-01-23_08h04.50.402,bars,2023.2.3,Win32,3.769317753,657b66ea316d21385b68909f,,,,,,,,,,,1618.3545,1619.1858,,,1619.7327,1620.0062,,132,132,,,,,,,,,,,,,,,,bars/036.png,bars/mask009.png,,,,,,,,,,,,1,1,,,,,,,0,2,1,4,,,,,,,,,,,1619.1858,1619.7325,1620.0062,1621.0957,space,0.8146,0.0005,1621.0957,13,68,1621.8998,1621.8998,1621.9009,,,,0,21,21,21,1,145,20,,,,,,,,
,,5fbed1f21d5ce10fd350ce6e,65af563a7219ae981f60fdfd,2024-01-23_08h04.50.402,bars,2023.2.3,Win32,3.769317753,657b66ea316d21385b68909f,,,,,,,,,,,1621.9014,1622.7489,,,1623.2907,1623.5665,,85,85,,,,,,,,,,,,,,,,bars/049.png,bars/mask004.png,,,,,,,,,,,,0,2,,,,,,,2,0,3,1,,,,,,,,,,,1622.7489,1623.2907,1623.5665,1625.4463,space,1.6249,0.0003,1625.4464,75,30,1626.4901,1626.4901,1626.4928,,,,0,22,22,22,1,160,115,,,,,,,,
,,5fbed1f21d5ce10fd350ce6e,65af563a7219ae981f60fdfd,2024-01-23_08h04.50.402,bars,2023.2.3,Win32,3.769317753,657b66ea316d21385b68909f,,,,,,,,,,,1626.4932,1627.3068,,,1627.8618,1628.1347,,173,173,,,,,,,,,,,,,,,,bars/019.png,bars/mask006.png,,,,,,,,,,,,0,1,,,,,,,0,2,0,4,,,,,,,,,,,1627.3069,1627.8618,1628.1347,1637.2348,space,8.8339,0.0004,1637.2349,52,68,1638.1514,1638.1515,1638.1736,,,,0,23,23,23,1,45,105,,,,,,,,
,,5fbed1f21d5ce10fd350ce6e,65af563a7219ae981f60fdfd,2024-01-23_08h04.50.402,bars,2023.2.3,Win32,3.769317753,657b66ea316d21385b68909f,,,,,,,,,,,1638.1741,1639.0449,,,1639.3275,1639.6483,,69,69,,,,,,,,,,,,,,,,bars/027.png,bars/mask005.png,,,,,,,,,,,,1,2,,,,,,,2,4,2,4,,,,,,,,,,,1639.0449,1639.3275,1639.6484,1643.4684,space,3.5613,,1643.4685,41,19,1644.3326,1644.3327,1644.3567,,,,0,24,24,24,1,110,50,,,,,,,,
,,5fbed1f21d5ce10fd350ce6e,65af563a7219ae981f60fdfd,2024-01-23_08h04.50.402,bars,2023.2.3,Win32,3.769317753,657b66ea316d21385b68909f,,,,,,,,,,,1644.3572,1645.2324,,,1645.5081,1645.8221,,43,43,,,,,,,,,,,,,,,,bars/026.png,bars/mask008.png,,,,,,,,,,,,0,1,,,,,,,0,6,0,4,,,,,,,,,,,1645.2324,1645.508,1645.8222,1651.687,space,5.5731,0.0007,1651.6871,8,42,1652.7164,1652.7164,1652.7379,,,,0,25,25,25,1,35,85,,,,,,,,
,,5fbed1f21d5ce10fd350ce6e,65af563a7219ae981f60fdfd,2024-01-23_08h04.50.402,bars,2023.2.3,Win32,3.769317753,657b66ea316d21385b68909f,,,,,,,,,,,1652.7383,1653.6434,,,1653.9314,1654.2549,,127,127,,,,,,,,,,,,,,,,bars/024.png,bars/mask003.png,,,,,,,,,,,,1,1,,,,,,,0,8,1,8,,,,,,,,,,,1653.6434,1653.9313,1654.2549,1660.7625,space,6.239,0.0008,1660.7626,7,43,1661.8691,1661.8691,1661.9088,,,,0,26,26,26,1,120,170,,,,,,,,
,,5fbed1f21d5ce10fd350ce6e,65af563a7219ae981f60fdfd,2024-01-23_08h04.50.402,bars,2023.2.3,Win32,3.769317753,657b66ea316d21385b68909f,,,,,,,,,,,1661.9096,1662.5569,,,1663.2392,1663.2406,,70,70,,,,,,,,,,,,,,,,bars/044.png,bars/mask009.png,,,,,,,,,,,,0,1,,,,,,,0,6,0,8,,,,,,,,,,,1662.5569,1663.2392,1663.2407,1664.899,space,1.133,0.0007,1664.8991,5,85,1665.7846,1665.7847,1665.7862,,,,0,27,27,27,1,75,155,,,,,,,,
,,5fbed1f21d5ce10fd350ce6e,65af563a7219ae981f60fdfd,2024-01-23_08h04.50.402,bars,2023.2.3,Win32,3.769317753,657b66ea316d21385b68909f,,,,,,,,,,,1665.7867,1666.6509,,,1666.9613,1667.2506,,42,42,,,,,,,,,,,,,,,,bars/045.png,bars/mask009.png,,,,,,,,,,,,0,2,,,,,,,2,4,1,3,,,,,,,,,,,1666.6509,1666.9613,1667.2507,1669.2377,space,1.6999,0.0006,1669.2377,58,32,1670.0871,1670.0871,1670.0902,,,,0,28,28,28,1,100,10,,,,,,,,
,,5fbed1f21d5ce10fd350ce6e,65af563a7219ae981f60fdfd,2024-01-23_08h04.50.402,bars,2023.2.3,Win32,3.769317753,657b66ea316d21385b68909f,,,,,,,,,,,1670.0907,1670.9573,,,1671.5111,1671.8006,,50,50,,,,,,,,,,,,,,,,bars/005.png,bars/mask009.png,,,,,,,,,,,,0,1,,,,,,,4,6,3,4,,,,,,,,,,,1670.9573,1671.511,1671.8006,1672.3616,space,0.3005,0.0004,1672.3617,40,90,1673.1741,1673.1742,1673.1774,,,,0,29,29,29,1,10,140,,,,,,,,
,,5fbed1f21d5ce10fd350ce6e,65af563a7219ae981f60fdfd,2024-01-23_08h04.50.402,bars,2023.2.3,Win32,3.769317753,657b66ea316d21385b68909f,,,,,,,,,,,1673.1779,1674.2429,,,1674.807,1675.0832,,168,168,,,,,,,,,,,,,,,,bars/009.png,bars/mask002.png,,,,,,,,,,,,0,1,,,,,,,2,4,1,5,,,,,,,,,,,1674.2429,1674.8069,1675.0833,1681.0748,space,5.7373,0.0004,1681.0748,27,63,1681.8706,1681.8707,1681.8847,,,,0,30,30,30,1,15,105,,,,,,,,
,,5fbed1f21d5ce10fd350ce6e,65af563a7219ae981f60fdfd,2024-01-23_08h04.50.402,bars,2023.2.3,Win32,3.769317753,657b66ea316d21385b68909f,,,,,,,,,,,1681.8851,1682.6804,,,1683.2449,1683.5159,,79,79,,,,,,,,,,,,,,,,bars/038.png,bars/mask005.png,,,,,,,,,,,,4,2,,,,,,,4,6,4,6,,,,,,,,,,,1682.6804,1683.2449,1683.516,1689.3109,space,5.5429,0.0006,1689.3109,86,9,1690.4536,1690.4536,1690.4827,,,,0,31,31,31,1,165,70,,,,,,,,
,,5fbed1f21d5ce10fd350ce6e,65af563a7219ae981f60fdfd,2024-01-23_08h04.50.402,bars,2023.2.3,Win32,3.769317753,657b66ea316d21385b68909f,,,,,,,,,,,1690.4832,1691.5523,,,1692.1116,1692.1127,,134,134,,,,,,,,,,,,,,,,bars/031.png,bars/mask001.png,,,,,,,,,,,,3,1,,,,,,,6,4,5,5,,,,,,,,,,,1691.5524,1692.1115,1692.1127,1695.3489,space,2.7015,0.0007,1695.3489,14,81,1696.428,1696.428,1696.4638,,,,0,32,32,32,1,120,35,,,,,,,,
,,5fbed1f21d5ce10fd350ce6e,65af563a7219ae981f60fdfd,2024-01-23_08h04.50.402,bars,2023.2.3,Win32,3.769317753,657b66ea316d21385b68909f,,,,,,,,,,,1696.465,1697.2815,,,1697.833,1698.1024,,32,32,,,,,,,,,,,,,,,,bars/012.png,bars/mask003.png,,,,,,,,,,,,3,2,,,,,,,8,6,9,8,,,,,,,,,,,1697.2815,1697.833,1698.1024,1698.6393,space,0.2808,,1698.6394,58,17,1699.7002,1699.7002,1699.7029,,,,0,33,33,33,1,90,15,,,,,,,,
,,5fbed1f21d5ce10fd350ce6e,65af563a7219ae981f60fdfd,2024-01-23_08h04.50.402,bars,2023.2.3,Win32,3.769317753,657b66ea316d21385b68909f,,,,,,,,,,,1699.7033,1700.5109,,,1701.0543,1701.3198,,113,113,,,,,,,,,,,,,,,,bars/036.png,bars/mask009.png,,,,,,,,,,,,0,1,,,,,,,6,8,6,7,,,,,,,,,,,1700.511,1701.0543,1701.3199,1701.6111,space,0.0123,0.0007,1701.6111,32,87,1702.6491,1702.6491,1702.6514,,,,0,34,34,34,1,145,20,,,,,,,,
,,5fbed1f21d5ce10fd350ce6e,65af563a7219ae981f60fdfd,2024-01-23_08h04.50.402,bars,2023.2.3,Win32,3.769317753,657b66ea316d21385b68909f,,,,,,,,,,,1702.6517,1703.6876,,,1704.2167,1704.4837,,118,118,,,,,,,,,,,,,,,,bars/045.png,bars/mask003.png,,,,,,,,,,,,2,1,,,,,,,4,10,5,10,,,,,,,,,,,1703.6876,1704.2166,1704.4837,1705.2676,space,0.5246,0.0006,1705.2677,18,72,1706.3198,1706.3199,1706.3211,,,,0,35,35,35,1,100,10,,,,,,,,
,,5fbed1f21d5ce10fd350ce6e,65af563a7219ae981f60fdfd,2024-01-23_08h04.50.402,bars,2023.2.3,Win32,3.769317753,657b66ea316d21385b68909f,,,,,,,,,,,1706.3215,1707.3707,,,1707.9115,1708.1771,,30,30,,,,,,,,,,,,,,,,bars/043.png,bars/mask004.png,,,,,,,,,,,,6,1,,,,,,,6,10,6,10,,,,,,,,,,,1707.3708,1707.9114,1708.1772,1709.521,space,1.0939,0.0005,1709.5211,0,80,1710.3421,1710.3422,1710.3435,,,,0,36,36,36,1,30,130,,,,,,,,
,,5fbed1f21d5ce10fd350ce6e,65af563a7219ae981f60fdfd,2024-01-23_08h04.50.402,bars,2023.2.3,Win32,3.769317753,657b66ea316d21385b68909f,,,,,,,,,,,1710.3439,1711.3899,,,1711.925,1712.1925,,117,117,,,,,,,,,,,,,,,,bars/045.png,bars/mask009.png,,,,,,,,,,,,3,1,,,,,,,8,8,8,7,,,,,,,,,,,1711.39,1711.9249,1712.1925,1716.0958,space,3.6575,0.0009,1716.0959,17,73,1717.1376,1717.1377,1717.1567,,,,0,37,37,37,1,100,10,,,,,,,,
,,5fbed1f21d5ce10fd350ce6e,65af563a7219ae981f60fdfd,2024-01-23_08h04.50.402,bars,2023.2.3,Win32,3.769317753,657b66ea316d21385b68909f,,,,,,,,,,,1717.157,1718.206,,,1718.7705,1719.0436,,171,171,,,,,,,,,,,,,,,,bars/029.png,bars/mask001.png,,,,,,,,,,,,0,2,,,,,,,10,10,10,10,,,,,,,,,,,1718.206,1718.7704,1719.0436,1719.3044,space,0.011,0.0007,1719.3045,81,54,1720.3368,1720.3369,1720.3397,,,,0,38,38,38,1,90,45,,,,,,,,
,,5fbed1f21d5ce10fd350ce6e,65af563a7219ae981f60fdfd,2024-01-23_08h04.50.402,bars,2023.2.3,Win32,3.769317753,657b66ea316d21385b68909f,,,,,,,,,,,1720.3401,1721.3784,,,1721.9105,1722.1753,,129,129,,,,,,,,,,,,,,,,bars/038.png,bars/mask000.png,,,,,,,,,,,,0,1,,,,,,,8,10,7,10,,,,,,,,,,,1721.3785,1721.9104,1722.1753,1723.4846,space,1.0604,,1723.4846,36,59,1724.297,1724.2971,1724.3007,,,,0,39,39,39,1,165,70,,,,,,,,
,,5fbed1f21d5ce10fd350ce6e,65af563a7219ae981f60fdfd,2024-01-23_08h04.50.402,bars,2023.2.3,Win32,3.769317753,657b66ea316d21385b68909f,,,,,,,,,,,1724.3013,1725.3715,,,1725.9717,1725.9733,,98,98,,,,,,,,,,,,,,,,bars/011.png,bars/mask005.png,,,,,,,,,,,,5,2,,,,,,,6,10,8,9,,,,,,,,,,,1725.3716,1725.9716,1725.9734,1726.5239,space,0.0161,0.001,1726.524,62,13,1727.6555,1727.6555,1727.6588,,,,0,40,40,40,1,160,85,,,,,,,,
,,5fbed1f21d5ce10fd350ce6e,65af563a7219ae981f60fdfd,2024-01-23_08h04.50.402,bars,2023.2.3,Win32,3.769317753,657b66ea316d21385b68909f,,,,,,,,,,,1727.6592,1728.745,,,1729.3524,1729.3534,,155,155,,,,,,,,,,,,,,,,bars/014.png,bars/mask007.png,,,,,,,,,,,,2,2,,,,,,,8,10,8,10,,,,,,,,,,,1728.7451,1729.3523,1729.3535,1730.4714,space,0.5801,0.0007,1730.4714,75,25,1731.4769,1731.4769,1731.4779,,,,0,41,41,41,1,80,0,,,,,,,,
,,5fbed1f21d5ce10fd350ce6e,65af563a7219ae981f60fdfd,2024-01-23_08h04.50.402,bars,2023.2.3,Win32,3.769317753,657b66ea316d21385b68909f,,,,,,,,,,,1731.4783,1732.5076,,,1733.0385,1733.3038,,81,81,,,,,,,,,,,,,,,,bars/047.png,bars/mask002.png,,,,,,,,,,,,4,2,,,,,,,6,8,4,7,,,,,,,,,,,1732.5076,1733.0385,1733.304,1734.3504,space,0.7961,,1734.3504,66,11,1735.3903,1735.3903,1735.3914,,,,0,42,42,42,1,15,70,,,,,,,,
,,5fbed1f21d5ce10fd350ce6e,65af563a7219ae981f60fdfd,2024-01-23_08h04.50.402,bars,2023.2.3,Win32,3.769317753,657b66ea316d21385b68909f,,,,,,,,,,,1735.3918,1736.4365,,,1736.9695,1737.2333,,13,13,,,,,,,,,,,,,,,,bars/019.png,bars/mask006.png,,,,,,,,,,,,0,1,,,,,,,8,6,10,7,,,,,,,,,,,1736.4366,1736.9695,1737.2333,1739.0645,space,1.5823,,1739.0645,32,88,1739.8613,1739.8614,1739.8639,,,,0,43,43,43,1,45,105,,,,,,,,
,,5fbed1f21d5ce10fd350ce6e,65af563a7219ae981f60fdfd,2024-01-23_08h04.50.402,bars,2023.2.3,Win32,3.769317753,657b66ea316d21385b68909f,,,,,,,,,,,1739.8643,1740.901,,,1741.4472,1741.7344,,151,151,,,,,,,,,,,,,,,,bars/005.png,bars/mask001.png,,,,,,,,,,,,2,2,,,,,,,10,4,10,3,,,,,,,,,,,1740.9011,1741.4471,1741.7345,1764.5431,space,22.5389,,1764.5431,39,11,1765.5782,1765.5783,1765.5987,,,,0,44,44,44,1,10,140,,,,,,,,
,,5fbed1f21d5ce10fd350ce6e,65af563a7219ae981f60fdfd,2024-01-23_08h04.50.402,bars,2023.2.3,Win32,3.769317753,657b66ea316d21385b68909f,,,,,,,,,,,1765.5989,1766.6265,,,1767.159,1767.4252,,166,166,,,,,,,,,,,,,,,,bars/003.png,bars/mask003.png,,,,,,,,,,,,0,2,,,,,,,10,2,10,1,,,,,,,,,,,1766.6266,1767.159,1767.4253,1767.9549,space,0.2801,0.0005,1767.955,39,26,1768.7573,1768.7574,1768.7586,,,,0,45,45,45,1,25,140,,,,,,,,
,,5fbed1f21d5ce10fd350ce6e,65af563a7219ae981f60fdfd,2024-01-23_08h04.50.402,bars,2023.2.3,Win32,3.769317753,657b66ea316d21385b68909f,,,,,,,,,,,1768.7591,1769.8011,,,1770.3324,1770.6023,,171,171,,,,,,,,,,,,,,,,bars/021.png,bars/mask005.png,,,,,,,,,,,,5,1,,,,,,,8,0,10,0,,,,,,,,,,,1769.8011,1770.3323,1770.6024,1776.0588,space,5.2097,0.0007,1776.0589,16,79,1777.1057,1777.1057,1777.1199,,,,0,46,46,46,1,155,70,,,,,,,,
,,5fbed1f21d5ce10fd350ce6e,65af563a7219ae981f60fdfd,2024-01-23_08h04.50.402,bars,2023.2.3,Win32,3.769317753,657b66ea316d21385b68909f,,,,,,,,,,,1777.1202,1778.1561,,,1778.699,1778.9636,,163,163,,,,,,,,,,,,,,,,bars/021.png,bars/mask005.png,,,,,,,,,,,,7,1,,,,,,,10,0,10,0,,,,,,,,,,,1778.1562,1778.699,1778.9637,1781.3316,space,2.1141,0.0005,1781.3316,8,87,1782.37,1782.3701,1782.3884,,,,0,47,47,47,1,155,70,,,,,,,,
,,5fbed1f21d5ce10fd350ce6e,65af563a7219ae981f60fdfd,2024-01-23_08h04.50.402,bars,2023.2.3,Win32,3.769317753,657b66ea316d21385b68909f,,,,,,,,,,,1782.3886,1783.417,,,1783.9526,1784.2195,,60,60,,,,,,,,,,,,,,,,bars/018.png,bars/mask003.png,,,,,,,,,,,,0,2,,,,,,,10,0,10,0,,,,,,,,,,,1783.4171,1783.9526,1784.2195,1784.741,space,0.2771,,1784.741,90,30,1785.7751,1785.7751,1785.7775,,,,0,48,48,48,1,150,90,,,,,,,,
,,5fbed1f21d5ce10fd350ce6e,65af563a7219ae981f60fdfd,2024-01-23_08h04.50.402,bars,2023.2.3,Win32,3.769317753,657b66ea316d21385b68909f,,,,,,,,,,,1785.7778,1786.8115,,,1787.3407,1787.6103,,160,160,,,,,,,,,,,,,,,,bars/042.png,bars/mask004.png,,,,,,,,,,,,5,1,,,,,,,10,0,10,0,,,,,,,,,,,1786.8115,1787.3407,1787.6103,1790.7295,space,2.871,0.0005,1790.7295,15,85,1791.7683,1791.7683,1791.7822,,,,0,49,49,49,1,145,75,,,,,,,,
,,5fbed1f21d5ce10fd350ce6e,65af563a7219ae981f60fdfd,2024-01-23_08h04.50.402,bars,2023.2.3,Win32,3.769317753,657b66ea316d21385b68909f,,,,,,,,,,,,,,,,,,,,,,,,,,,,,,,,,,,,,,,,,,,,,,,,,,,,,,,,,,,,,,,,,,,,,,,,,,,,,,,,,,,,,,,,,,,,,1791.7823,1851.7146,0,2,2,4,1,sequence_tables/blk018.csv
,,5fbed1f21d5ce10fd350ce6e,65af563a7219ae981f60fdfd,2024-01-23_08h04.50.402,bars,2023.2.3,Win32,3.769317753,657b66ea316d21385b68909f,,,,,,,,,,,1879.1195,1880.1521,,,1880.6918,1880.954,,73,73,,,,,,,,,,,,,,,,bars/018.png,bars/mask003.png,,,,,,,,,,,,1,2,,,,,,,8,3,7,2,,,,,,1851.7277,1879.0944,space,27.1268,,1880.1521,1880.6917,1880.9542,1885.1321,space,3.9272,0.0011,1885.1322,77,17,1886.168,1886.168,1886.1825,,,,0,0,0,0,1,150,90,,,,,,,,
,,5fbed1f21d5ce10fd350ce6e,65af563a7219ae981f60fdfd,2024-01-23_08h04.50.402,bars,2023.2.3,Win32,3.769317753,657b66ea316d21385b68909f,,,,,,,,,,,1886.1828,1887.2181,,,1887.7842,1888.0562,,107,107,,,,,,,,,,,,,,,,bars/006.png,bars/mask001.png,,,,,,,,,,,,3,2,,,,,,,6,5,6,4,,,,,,,,,,,1887.2181,1887.7842,1888.0563,1889.1539,space,0.827,0.0006,1889.154,72,7,1890.2271,1890.2272,1890.229,,,,0,1,1,1,1,35,100,,,,,,,,
,,5fbed1f21d5ce10fd350ce6e,65af563a7219ae981f60fdfd,2024-01-23_08h04.50.402,bars,2023.2.3,Win32,3.769317753,657b66ea316d21385b68909f,,,,,,,,,,,1890.2296,1891.3191,,,1891.8862,1891.8875,,43,43,,,,,,,,,,,,,,,,bars/010.png,bars/mask007.png,,,,,,,,,,,,2,2,,,,,,,8,3,8,3,,,,,,,,,,,1891.3192,1891.8861,1891.8876,1892.9522,space,0.5509,0.0006,1892.9523,58,12,1894.0399,1894.04,1894.0414,,,,0,2,2,2,1,165,55,,,,,,,,
,,5fbed1f21d5ce10fd350ce6e,65af563a7219ae981f60fdfd,2024-01-23_08h04.50.402,bars,2023.2.3,Win32,3.769317753,657b66ea316d21385b68909f,,,,,,,,,,,1894.0419,1895.1409,,,1895.7102,1895.7113,,8,8,,,,,,,,,,,,,,,,bars/004.png,bars/mask009.png,,,,,,,,,,,,2,1,,,,,,,6,5,5,5,,,,,,,,,,,1895.141,1895.7102,1895.7113,1896.7911,space,0.5589,,1896.7911,17,63,1897.832,1897.8321,1897.8353,,,,0,3,3,3,1,25,125,,,,,,,,
,,5fbed1f21d5ce10fd350ce6e,65af563a7219ae981f60fdfd,2024-01-23_08h04.50.402,bars,2023.2.3,Win32,3.769317753,657b66ea316d21385b68909f,,,,,,,,,,,1897.8358,1898.6478,,,1899.1889,1899.4571,,79,79,,,,,,,,,,,,,,,,bars/031.png,bars/mask006.png,,,,,,,,,,,,0,1,,,,,,,8,3,9,3,,,,,,,,,,,1898.6479,1899.1888,1899.4572,1900.2707,space,0.5505,,1900.2708,41,44,1901.3215,1901.3215,1901.323,,,,0,4,4,4,1,120,35,,,,,,,,
,,5fbed1f21d5ce10fd350ce6e,65af563a7219ae981f60fdfd,2024-01-23_08h04.50.402,bars,2023.2.3,Win32,3.769317753,657b66ea316d21385b68909f,,,,,,,,,,,1901.3234,1902.3643,,,1902.9021,1903.1679,,122,122,,,,,,,,,,,,,,,,bars/003.png,bars/mask003.png,,,,,,,,,,,,1,2,,,,,,,6,1,6,2,,,,,,,,,,,1902.3644,1902.902,1903.168,1903.694,space,0.2761,,1903.694,83,18,1904.7342,1904.7343,1904.7375,,,,0,5,5,5,1,25,140,,,,,,,,
,,5fbed1f21d5ce10fd350ce6e,65af563a7219ae981f60fdfd,2024-01-23_08h04.50.402,bars,2023.2.3,Win32,3.769317753,657b66ea316d21385b68909f,,,,,,,,,,,1904.7379,1905.5507,,,1906.1036,1906.3755,,114,114,,,,,,,,,,,,,,,,bars/044.png,bars/mask000.png,,,,,,,,,,,,0,1,,,,,,,4,3,3,3,,,,,,,,,,,1905.5508,1906.1036,1906.3755,1907.192,space,0.5567,0.0005,1907.1921,39,41,1908.0008,1908.0008,1908.0038,,,,0,6,6,6,1,75,155,,,,,,,,
,,5fbed1f21d5ce10fd350ce6e,65af563a7219ae981f60fdfd,2024-01-23_08h04.50.402,bars,2023.2.3,Win32,3.769317753,657b66ea316d21385b68909f,,,,,,,,,,,1908.0043,1909.0563,,,1909.6118,1909.8779,,124,124,,,,,,,,,,,,,,,,bars/027.png,bars/mask008.png,,,,,,,,,,,,4,1,,,,,,,6,1,7,1,,,,,,,,,,,1909.0563,1909.6118,1909.878,1911.1865,space,1.0581,,1911.1865,14,74,1912.2245,1912.2246,1912.2436,,,,0,7,7,7,1,110,50,,,,,,,,
,,5fbed1f21d5ce10fd350ce6e,65af563a7219ae981f60fdfd,2024-01-23_08h04.50.402,bars,2023.2.3,Win32,3.769317753,657b66ea316d21385b68909f,,,,,,,,,,,1912.2438,1913.2736,,,1913.8135,1914.0799,,137,137,,,,,,,,,,,,,,,,bars/032.png,bars/mask003.png,,,,,,,,,,,,5,1,,,,,,,8,3,9,4,,,,,,,,,,,1913.2737,1913.8134,1914.08,1914.6056,space,0.2768,,1914.6057,12,63,1915.656,1915.656,1915.6572,,,,0,8,8,8,1,125,20,,,,,,,,
,,5fbed1f21d5ce10fd350ce6e,65af563a7219ae981f60fdfd,2024-01-23_08h04.50.402,bars,2023.2.3,Win32,3.769317753,657b66ea316d21385b68909f,,,,,,,,,,,1915.6576,1916.7005,,,1917.2281,1917.4936,,94,94,,,,,,,,,,,,,,,,bars/009.png,bars/mask005.png,,,,,,,,,,,,1,2,,,,,,,10,1,8,1,,,,,,,,,,,1916.7005,1917.228,1917.4936,1918.5915,space,0.8451,,1918.5916,79,11,1919.661,1919.661,1919.6641,,,,0,9,9,9,1,15,105,,,,,,,,
,,5fbed1f21d5ce10fd350ce6e,65af563a7219ae981f60fdfd,2024-01-23_08h04.50.402,bars,2023.2.3,Win32,3.769317753,657b66ea316d21385b68909f,,,,,,,,,,,1919.6645,1920.7264,,,1921.2667,1921.5409,,101,101,,,,,,,,,,,,,,,,bars/044.png,bars/mask007.png,,,,,,,,,,,,1,1,,,,,,,8,3,7,1,,,,,,,,,,,1920.7265,1921.2667,1921.5409,1922.1039,space,0.2793,0.0002,1922.1039,26,54,1923.0038,1923.0039,1923.0077,,,,0,10,10,10,1,75,155,,,,,,,,
,,5fbed1f21d5ce10fd350ce6e,65af563a7219ae981f60fdfd,2024-01-23_08h04.50.402,bars,2023.2.3,Win32,3.769317753,657b66ea316d21385b68909f,,,,,,,,,,,1923.0084,1924.13,,,1924.7065,1924.7079,,1,1,,,,,,,,,,,,,,,,bars/041.png,bars/mask000.png,,,,,,,,,,,,3,1,,,,,,,10,1,8,2,,,,,,,,,,,1924.1301,1924.7064,1924.7079,2040.628,space,115.3957,0.0007,2040.6282,19,84,2041.7685,2041.7685,2041.8109,,,,0,11,11,11,1,20,85,,,,,,,,
,,5fbed1f21d5ce10fd350ce6e,65af563a7219ae981f60fdfd,2024-01-23_08h04.50.402,bars,2023.2.3,Win32,3.769317753,657b66ea316d21385b68909f,,,,,,,,,,,2041.8118,2042.4008,,,2042.9852,2042.9867,,111,111,,,,,,,,,,,,,,,,bars/015.png,bars/mask002.png,,,,,,,,,,,,10,1,,,,,,,10,0,10,0,,,,,,,,,,,2042.4009,2042.9852,2042.9867,2045.2056,space,1.6929,0.0006,2045.2056,1,49,2046.0215,2046.0216,2046.023,,,,0,12,12,12,1,110,160,,,,,,,,
,,5fbed1f21d5ce10fd350ce6e,65af563a7219ae981f60fdfd,2024-01-23_08h04.50.402,bars,2023.2.3,Win32,3.769317753,657b66ea316d21385b68909f,,,,,,,,,,,2046.0235,2046.8396,,,2047.3871,2047.6606,,143,143,,,,,,,,,,,,,,,,bars/018.png,bars/mask000.png,,,,,,,,,,,,7,1,,,,,,,8,2,9,2,,,,,,,,,,,2046.8396,2047.387,2047.6606,2049.0196,space,1.102,0.0007,2049.0196,7,53,2049.8457,2049.8458,2049.8473,,,,0,13,13,13,1,150,90,,,,,,,,
,,5fbed1f21d5ce10fd350ce6e,65af563a7219ae981f60fdfd,2024-01-23_08h04.50.402,bars,2023.2.3,Win32,3.769317753,657b66ea316d21385b68909f,,,,,,,,,,,2049.8479,2050.668,,,2051.215,2051.4852,,44,44,,,,,,,,,,,,,,,,bars/029.png,bars/mask005.png,,,,,,,,,,,,6,2,,,,,,,10,4,8,6,,,,,,,,,,,2050.6681,2051.215,2051.4852,2052.0626,space,0.3098,0.0006,2052.0627,46,1,2052.8775,2052.8776,2052.8806,,,,0,14,14,14,1,90,45,,,,,,,,
,,5fbed1f21d5ce10fd350ce6e,65af563a7219ae981f60fdfd,2024-01-23_08h04.50.402,bars,2023.2.3,Win32,3.769317753,657b66ea316d21385b68909f,,,,,,,,,,,2052.8811,2053.6936,,,2054.2511,2054.5421,,170,170,,,,,,,,,,,,,,,,bars/032.png,bars/mask003.png,,,,,,,,,,,,0,2,,,,,,,8,6,8,6,,,,,,,,,,,2053.6936,2054.2511,2054.5421,2055.6419,space,0.8425,0.0004,2055.6419,45,30,2056.7126,2056.7127,2056.7143,,,,0,15,15,15,1,125,20,,,,,,,,
,,5fbed1f21d5ce10fd350ce6e,65af563a7219ae981f60fdfd,2024-01-23_08h04.50.402,bars,2023.2.3,Win32,3.769317753,657b66ea316d21385b68909f,,,,,,,,,,,2056.7148,2057.5251,,,2058.0767,2058.3558,,1,1,,,,,,,,,,,,,,,,bars/022.png,bars/mask004.png,,,,,,,,,,,,3,2,,,,,,,10,8,10,9,,,,,,,,,,,2057.5252,2058.0765,2058.3559,2058.6388,space,0.0147,0.0006,2058.6389,86,19,2059.4445,2059.4445,2059.4462,,,,0,16,16,16,1,95,20,,,,,,,,
,,5fbed1f21d5ce10fd350ce6e,65af563a7219ae981f60fdfd,2024-01-23_08h04.50.402,bars,2023.2.3,Win32,3.769317753,657b66ea316d21385b68909f,,,,,,,,,,,2059.4468,2060.6307,,,2061.1946,2061.1961,,95,95,,,,,,,,,,,,,,,,bars/033.png,bars/mask002.png,,,,,,,,,,,,0,2,,,,,,,10,10,10,10,,,,,,,,,,,2060.6307,2061.1946,2061.1961,2062.9046,space,1.1862,0.0007,2062.9047,70,60,2063.4594,2063.4594,2063.4615,,,,0,17,17,17,1,25,155,,,,,,,,
,,5fbed1f21d5ce10fd350ce6e,65af563a7219ae981f60fdfd,2024-01-23_08h04.50.402,bars,2023.2.3,Win32,3.769317753,657b66ea316d21385b68909f,,,,,,,,,,,2063.4622,2064.0697,,,2064.653,2064.6543,,83,83,,,,,,,,,,,,,,,,bars/044.png,bars/mask007.png,,,,,,,,,,,,7,1,,,,,,,8,8,9,9,,,,,,,,,,,2064.0698,2064.6529,2064.6543,2069.5635,space,4.3831,,2069.5636,8,72,2070.39,2070.3901,2070.4124,,,,0,18,18,18,1,75,155,,,,,,,,
,,5fbed1f21d5ce10fd350ce6e,65af563a7219ae981f60fdfd,2024-01-23_08h04.50.402,bars,2023.2.3,Win32,3.769317753,657b66ea316d21385b68909f,,,,,,,,,,,2070.4128,2071.2561,,,2071.5478,2071.8166,,148,148,,,,,,,,,,,,,,,,bars/044.png,bars/mask004.png,,,,,,,,,,,,8,2,,,,,,,6,10,5,10,,,,,,,,,,,2071.2562,2071.5477,2071.8167,2073.1792,space,1.1085,0.0004,2073.1793,73,7,2074.2317,2074.2317,2074.234,,,,0,19,19,19,1,75,155,,,,,,,,
,,5fbed1f21d5ce10fd350ce6e,65af563a7219ae981f60fdfd,2024-01-23_08h04.50.402,bars,2023.2.3,Win32,3.769317753,657b66ea316d21385b68909f,,,,,,,,,,,2074.2343,2075.0388,,,2075.5997,2075.8719,,155,155,,,,,,,,,,,,,,,,bars/042.png,bars/mask008.png,,,,,,,,,,,,5,1,,,,,,,8,10,7,8,,,,,,,,,,,2075.0388,2075.5997,2075.872,2077.4679,space,1.34,0.0006,2077.468,10,80,2078.2718,2078.2719,2078.2751,,,,0,20,20,20,1,145,75,,,,,,,,
,,5fbed1f21d5ce10fd350ce6e,65af563a7219ae981f60fdfd,2024-01-23_08h04.50.402,bars,2023.2.3,Win32,3.769317753,657b66ea316d21385b68909f,,,,,,,,,,,2078.2756,2079.3382,,,2079.8774,2080.1542,,12,12,,,,,,,,,,,,,,,,bars/031.png,bars/mask005.png,,,,,,,,,,,,2,2,,,,,,,6,8,5,8,,,,,,,,,,,2079.3382,2079.8773,2080.1542,2080.4173,space,0.0119,,2080.4174,72,23,2081.2193,2081.2194,2081.2217,,,,0,21,21,21,1,120,35,,,,,,,,
,,5fbed1f21d5ce10fd350ce6e,65af563a7219ae981f60fdfd,2024-01-23_08h04.50.402,bars,2023.2.3,Win32,3.769317753,657b66ea316d21385b68909f,,,,,,,,,,,2081.2221,2082.2696,,,2082.8067,2083.0713,,38,38,,,,,,,,,,,,,,,,bars/009.png,bars/mask005.png,,,,,,,,,,,,1,1,,,,,,,4,10,3,10,,,,,,,,,,,2082.2696,2082.8066,2083.0713,2083.8648,space,0.5436,0.0011,2083.8649,23,67,2084.9109,2084.911,2084.9137,,,,0,22,22,22,1,15,105,,,,,,,,
,,5fbed1f21d5ce10fd350ce6e,65af563a7219ae981f60fdfd,2024-01-23_08h04.50.402,bars,2023.2.3,Win32,3.769317753,657b66ea316d21385b68909f,,,,,,,,,,,2084.9141,2085.9504,,,2086.4862,2086.7581,,49,49,,,,,,,,,,,,,,,,bars/007.png,bars/mask008.png,,,,,,,,,,,,8,2,,,,,,,2,10,2,10,,,,,,,,,,,2085.9504,2086.4861,2086.7582,2087.2892,space,0.2807,0.0003,2087.2892,54,6,2088.3802,2088.3803,2088.3835,,,,0,23,23,23,1,175,55,,,,,,,,
,,5fbed1f21d5ce10fd350ce6e,65af563a7219ae981f60fdfd,2024-01-23_08h04.50.402,bars,2023.2.3,Win32,3.769317753,657b66ea316d21385b68909f,,,,,,,,,,,2088.384,2089.5124,,,2090.0722,2090.0736,,71,71,,,,,,,,,,,,,,,,bars/010.png,bars/mask001.png,,,,,,,,,,,,4,2,,,,,,,0,8,0,8,,,,,,,,,,,2089.5124,2090.0721,2090.0737,2093.417,space,2.8094,0.0006,2093.4171,86,16,2094.513,2094.5131,2094.5442,,,,0,24,24,24,1,165,55,,,,,,,,
,,5fbed1f21d5ce10fd350ce6e,65af563a7219ae981f60fdfd,2024-01-23_08h04.50.402,bars,2023.2.3,Win32,3.769317753,657b66ea316d21385b68909f,,,,,,,,,,,2094.5448,2095.3599,,,2095.8991,2096.171,,113,113,,,,,,,,,,,,,,,,bars/001.png,bars/mask000.png,,,,,,,,,,,,1,1,,,,,,,2,6,3,4,,,,,,,,,,,2095.3599,2095.899,2096.171,2098.2895,space,1.8673,0.0006,2098.2896,17,28,2099.3317,2099.3317,2099.3533,,,,0,25,25,25,1,130,85,,,,,,,,
,,5fbed1f21d5ce10fd350ce6e,65af563a7219ae981f60fdfd,2024-01-23_08h04.50.402,bars,2023.2.3,Win32,3.769317753,657b66ea316d21385b68909f,,,,,,,,,,,2099.3538,2100.1565,,,2100.7104,2100.9796,,36,36,,,,,,,,,,,,,,,,bars/012.png,bars/mask008.png,,,,,,,,,,,,2,2,,,,,,,0,8,0,6,,,,,,,,,,,2100.1566,2100.7103,2100.9796,2101.2481,space,0.0121,,2101.2481,54,21,2102.2942,2102.2943,2102.2966,,,,0,26,26,26,1,90,15,,,,,,,,
,,5fbed1f21d5ce10fd350ce6e,65af563a7219ae981f60fdfd,2024-01-23_08h04.50.402,bars,2023.2.3,Win32,3.769317753,657b66ea316d21385b68909f,,,,,,,,,,,2102.2969,2103.3372,,,2103.8748,2104.1418,,98,98,,,,,,,,,,,,,,,,bars/013.png,bars/mask000.png,,,,,,,,,,,,1,1,,,,,,,2,10,4,9,,,,,,,,,,,2103.3372,2103.8747,2104.1418,2104.6664,space,0.2805,,2104.6665,23,88,2105.7122,2105.7123,2105.7147,,,,0,27,27,27,1,75,10,,,,,,,,
,,5fbed1f21d5ce10fd350ce6e,65af563a7219ae981f60fdfd,2024-01-23_08h04.50.402,bars,2023.2.3,Win32,3.769317753,657b66ea316d21385b68909f,,,,,,,,,,,2105.715,2106.7576,,,2107.2898,2107.558,,20,20,,,,,,,,,,,,,,,,bars/044.png,bars/mask005.png,,,,,,,,,,,,0,2,,,,,,,0,8,0,9,,,,,,,,,,,2106.7576,2107.2897,2107.5581,2108.0836,space,0.2754,0.0006,2108.0836,55,45,2108.8891,2108.8892,2108.8915,,,,0,28,28,28,1,75,155,,,,,,,,
,,5fbed1f21d5ce10fd350ce6e,65af563a7219ae981f60fdfd,2024-01-23_08h04.50.402,bars,2023.2.3,Win32,3.769317753,657b66ea316d21385b68909f,,,,,,,,,,,2108.8919,2109.9531,,,2110.4859,2110.7639,,62,62,,,,,,,,,,,,,,,,bars/005.png,bars/mask008.png,,,,,,,,,,,,0,1,,,,,,,0,10,0,10,,,,,,,,,,,2109.9531,2110.4858,2110.764,2111.0266,space,0.011,0.0004,2111.0266,52,78,2112.0638,2112.0639,2112.0665,,,,0,29,29,29,1,10,140,,,,,,,,
,,5fbed1f21d5ce10fd350ce6e,65af563a7219ae981f60fdfd,2024-01-23_08h04.50.402,bars,2023.2.3,Win32,3.769317753,657b66ea316d21385b68909f,,,,,,,,,,,2112.0669,2113.1322,,,2113.7105,2114.2812,,127,127,,,,,,,,,,,,,,,,bars/046.png,bars/mask007.png,,,,,,,,,,,,0,1,,,,,,,2,8,0,9,,,,,,,,,,,2113.1323,2113.7104,2114.2813,2117.1165,space,2.2302,0.0007,2117.1167,28,42,2118.2183,2118.2183,2118.2516,,,,0,30,30,30,1,155,85,,,,,,,,
,,5fbed1f21d5ce10fd350ce6e,65af563a7219ae981f60fdfd,2024-01-23_08h04.50.402,bars,2023.2.3,Win32,3.769317753,657b66ea316d21385b68909f,,,,,,,,,,,2118.2523,2119.317,,,2119.9058,2119.9072,,113,113,,,,,,,,,,,,,,,,bars/036.png,bars/mask002.png,,,,,,,,,,,,0,1,,,,,,,0,6,1,5,,,,,,,,,,,2119.3171,2119.9058,2119.9073,2258.7389,space,138.3144,0.0007,2258.7389,32,87,2259.781,2259.7811,2259.7946,,,,0,31,31,31,1,145,20,,,,,,,,
,,5fbed1f21d5ce10fd350ce6e,65af563a7219ae981f60fdfd,2024-01-23_08h04.50.402,bars,2023.2.3,Win32,3.769317753,657b66ea316d21385b68909f,,,,,,,,,,,2259.7949,2260.8246,,,2261.1135,2261.4037,,49,49,,,,,,,,,,,,,,,,bars/005.png,bars/mask008.png,,,,,,,,,,,,0,1,,,,,,,2,4,2,3,,,,,,,,,,,2260.8246,2261.1134,2261.4038,2263.2456,space,1.5795,0.0004,2263.2456,39,89,2264.2812,2264.2813,2264.2826,,,,0,32,32,32,1,10,140,,,,,,,,
,,5fbed1f21d5ce10fd350ce6e,65af563a7219ae981f60fdfd,2024-01-23_08h04.50.402,bars,2023.2.3,Win32,3.769317753,657b66ea316d21385b68909f,,,,,,,,,,,2264.283,2265.3274,,,2265.8631,2266.1278,,110,110,,,,,,,,,,,,,,,,bars/025.png,bars/mask005.png,,,,,,,,,,,,3,1,,,,,,,4,2,4,2,,,,,,,,,,,2265.3274,2265.8631,2266.1278,2267.4261,space,1.0481,0.0004,2267.4262,5,70,2268.4658,2268.4658,2268.4669,,,,0,33,33,33,1,105,40,,,,,,,,
,,5fbed1f21d5ce10fd350ce6e,65af563a7219ae981f60fdfd,2024-01-23_08h04.50.402,bars,2023.2.3,Win32,3.769317753,657b66ea316d21385b68909f,,,,,,,,,,,2268.4673,2269.5016,,,2270.0369,2270.304,,92,92,,,,,,,,,,,,,,,,bars/039.png,bars/mask003.png,,,,,,,,,,,,1,2,,,,,,,6,0,5,1,,,,,,,,,,,2269.5016,2270.0369,2270.3041,2272.4076,space,1.857,0.0006,2272.4077,83,13,2273.7438,2273.7438,2273.7473,,,,0,34,34,34,1,175,105,,,,,,,,
,,5fbed1f21d5ce10fd350ce6e,65af563a7219ae981f60fdfd,2024-01-23_08h04.50.402,bars,2023.2.3,Win32,3.769317753,657b66ea316d21385b68909f,,,,,,,,,,,2273.7478,2274.8557,,,2275.4119,2275.4128,,171,171,,,,,,,,,,,,,,,,bars/016.png,bars/mask009.png,,,,,,,,,,,,3,2,,,,,,,4,2,2,4,,,,,,,,,,,2274.8559,2275.4118,2275.4129,2275.9573,space,0.0159,0.0007,2275.9573,49,6,2277.0253,2277.0254,2277.027,,,,0,35,35,35,1,40,165,,,,,,,,
,,5fbed1f21d5ce10fd350ce6e,65af563a7219ae981f60fdfd,2024-01-23_08h04.50.402,bars,2023.2.3,Win32,3.769317753,657b66ea316d21385b68909f,,,,,,,,,,,2277.0277,2278.0996,,,2278.6712,2278.6723,,87,87,,,,,,,,,,,,,,,,bars/000.png,bars/mask003.png,,,,,,,,,,,,0,1,,,,,,,2,4,2,4,,,,,,,,,,,2278.0996,2278.6711,2278.6723,2279.2139,space,0.0161,0.0006,2279.214,47,58,2280.3235,2280.3235,2280.3269,,,,0,36,36,36,1,40,145,,,,,,,,
,,5fbed1f21d5ce10fd350ce6e,65af563a7219ae981f60fdfd,2024-01-23_08h04.50.402,bars,2023.2.3,Win32,3.769317753,657b66ea316d21385b68909f,,,,,,,,,,,2280.3275,2281.0677,,,2281.6034,2281.8708,,110,110,,,,,,,,,,,,,,,,bars/008.png,bars/mask009.png,,,,,,,,,,,,4,1,,,,,,,4,2,4,3,,,,,,,,,,,2281.0677,2281.6033,2281.8709,2284.9907,space,2.8708,0.0008,2284.9908,0,70,2286.0269,2286.0269,2286.0397,,,,0,37,37,37,1,110,0,,,,,,,,
,,5fbed1f21d5ce10fd350ce6e,65af563a7219ae981f60fdfd,2024-01-23_08h04.50.402,bars,2023.2.3,Win32,3.769317753,657b66ea316d21385b68909f,,,,,,,,,,,2286.0401,2287.0784,,,2287.6103,2287.8736,,121,121,,,,,,,,,,,,,,,,bars/018.png,bars/mask007.png,,,,,,,,,,,,0,1,,,,,,,6,4,6,5,,,,,,,,,,,2287.0784,2287.6102,2287.8737,2291.0079,space,2.8851,0.0005,2291.008,29,31,2292.0457,2292.0457,2292.0611,,,,0,38,38,38,1,150,90,,,,,,,,
,,5fbed1f21d5ce10fd350ce6e,65af563a7219ae981f60fdfd,2024-01-23_08h04.50.402,bars,2023.2.3,Win32,3.769317753,657b66ea316d21385b68909f,,,,,,,,,,,2292.0617,2293.083,,,2293.629,2293.8939,,88,88,,,,,,,,,,,,,,,,bars/009.png,bars/mask001.png,,,,,,,,,,,,3,2,,,,,,,4,6,6,7,,,,,,,,,,,2293.083,2293.629,2293.8939,2299.792,space,5.6523,0.0009,2299.7921,73,17,2300.91,2300.9101,2300.9381,,,,0,39,39,39,1,15,105,,,,,,,,
,,5fbed1f21d5ce10fd350ce6e,65af563a7219ae981f60fdfd,2024-01-23_08h04.50.402,bars,2023.2.3,Win32,3.769317753,657b66ea316d21385b68909f,,,,,,,,,,,2300.9385,2301.997,,,2302.5473,2302.5487,,62,62,,,,,,,,,,,,,,,,bars/014.png,bars/mask005.png,,,,,,,,,,,,3,1,,,,,,,6,4,7,4,,,,,,,,,,,2301.997,2302.5471,2302.5487,2307.244,space,4.169,0.0005,2307.244,18,62,2308.2714,2308.2715,2308.2858,,,,0,40,40,40,1,80,0,,,,,,,,
,,5fbed1f21d5ce10fd350ce6e,65af563a7219ae981f60fdfd,2024-01-23_08h04.50.402,bars,2023.2.3,Win32,3.769317753,657b66ea316d21385b68909f,,,,,,,,,,,2308.2861,2309.3065,,,2309.8388,2310.1061,,87,87,,,,,,,,,,,,,,,,bars/003.png,bars/mask003.png,,,,,,,,,,,,0,2,,,,,,,4,2,5,1,,,,,,,,,,,2309.3066,2309.8388,2310.1061,2313.9986,space,3.6458,,2313.9988,62,53,2315.0355,2315.0356,2315.0555,,,,0,41,41,41,1,25,140,,,,,,,,
,,5fbed1f21d5ce10fd350ce6e,65af563a7219ae981f60fdfd,2024-01-23_08h04.50.402,bars,2023.2.3,Win32,3.769317753,657b66ea316d21385b68909f,,,,,,,,,,,2315.0559,2316.0796,,,2316.6145,2316.8813,,146,146,,,,,,,,,,,,,,,,bars/025.png,bars/mask006.png,,,,,,,,,,,,0,1,,,,,,,2,4,3,4,,,,,,,,,,,2316.0796,2316.6144,2316.8813,2320.2694,space,3.1348,0.0007,2320.2694,41,74,2321.3103,2321.3103,2321.3246,,,,0,42,42,42,1,105,40,,,,,,,,
,,5fbed1f21d5ce10fd350ce6e,65af563a7219ae981f60fdfd,2024-01-23_08h04.50.402,bars,2023.2.3,Win32,3.769317753,657b66ea316d21385b68909f,,,,,,,,,,,2321.3249,2322.4843,,,2323.0424,2323.0436,,28,28,,,,,,,,,,,,,,,,bars/047.png,bars/mask007.png,,,,,,,,,,,,3,1,,,,,,,4,2,5,1,,,,,,,,,,,2322.4844,2323.0424,2323.0436,2326.8097,space,3.2485,0.0007,2326.8097,13,42,2327.4052,2327.4053,2327.4454,,,,0,43,43,43,1,15,70,,,,,,,,
,,5fbed1f21d5ce10fd350ce6e,65af563a7219ae981f60fdfd,2024-01-23_08h04.50.402,bars,2023.2.3,Win32,3.769317753,657b66ea316d21385b68909f,,,,,,,,,,,2327.446,2328.5095,,,2329.1146,2329.1158,,54,54,,,,,,,,,,,,,,,,bars/007.png,bars/mask004.png,,,,,,,,,,,,0,2,,,,,,,6,0,5,0,,,,,,,,,,,2328.5095,2329.1145,2329.1158,2332.7505,space,3.1594,0.0003,2332.7505,59,1,2333.7857,2333.7858,2333.7997,,,,0,44,44,44,1,175,55,,,,,,,,
,,5fbed1f21d5ce10fd350ce6e,65af563a7219ae981f60fdfd,2024-01-23_08h04.50.402,bars,2023.2.3,Win32,3.769317753,657b66ea316d21385b68909f,,,,,,,,,,,2333.8001,2334.8219,,,2335.3641,2335.6368,,172,172,,,,,,,,,,,,,,,,bars/002.png,bars/mask007.png,,,,,,,,,,,,0,1,,,,,,,8,0,9,0,,,,,,,,,,,2334.822,2335.364,2335.6368,2339.5074,space,3.6232,0.0005,2339.5074,42,87,2340.536,2340.5362,2340.552,,,,0,45,45,45,1,130,85,,,,,,,,
,,5fbed1f21d5ce10fd350ce6e,65af563a7219ae981f60fdfd,2024-01-23_08h04.50.402,bars,2023.2.3,Win32,3.769317753,657b66ea316d21385b68909f,,,,,,,,,,,2340.5522,2341.5796,,,2342.1108,2342.3975,,111,111,,,,,,,,,,,,,,,,bars/045.png,bars/mask009.png,,,,,,,,,,,,5,1,,,,,,,6,0,8,0,,,,,,,,,,,2341.5796,2342.1107,2342.3975,2345.7863,space,3.1366,,2345.7863,11,79,2346.8198,2346.8199,2346.8323,,,,0,46,46,46,1,100,10,,,,,,,,
,,5fbed1f21d5ce10fd350ce6e,65af563a7219ae981f60fdfd,2024-01-23_08h04.50.402,bars,2023.2.3,Win32,3.769317753,657b66ea316d21385b68909f,,,,,,,,,,,2346.8327,2347.8594,,,2348.3865,2348.6574,,44,44,,,,,,,,,,,,,,,,bars/015.png,bars/mask005.png,,,,,,,,,,,,0,2,,,,,,,8,2,8,3,,,,,,,,,,,2347.8595,2348.3865,2348.6574,2351.7672,space,2.8633,0.0005,2351.7672,66,64,2352.8547,2352.8547,2352.8901,,,,0,47,47,47,1,110,160,,,,,,,,
,,5fbed1f21d5ce10fd350ce6e,65af563a7219ae981f60fdfd,2024-01-23_08h04.50.402,bars,2023.2.3,Win32,3.769317753,657b66ea316d21385b68909f,,,,,,,,,,,2352.8906,2353.9519,,,2354.5047,2354.5061,,138,138,,,,,,,,,,,,,,,,bars/033.png,bars/mask003.png,,,,,,,,,,,,1,2,,,,,,,10,4,10,3,,,,,,,,,,,2353.9519,2354.5046,2354.5061,2360.3243,space,5.2844,0.0005,2360.3243,67,17,2361.3691,2361.3692,2361.3858,,,,0,48,48,48,1,25,155,,,,,,,,
,,5fbed1f21d5ce10fd350ce6e,65af563a7219ae981f60fdfd,2024-01-23_08h04.50.402,bars,2023.2.3,Win32,3.769317753,657b66ea316d21385b68909f,,,,,,,,,,,2361.3863,2362.4338,,,2362.9881,2363.2594,,53,53,,,,,,,,,,,,,,,,bars/029.png,bars/mask002.png,,,,,,,,,,,,1,2,,,,,,,10,2,10,2,,,,,,,,,,,2362.4339,2362.9881,2363.2595,2366.2204,space,2.6781,,2366.2205,37,8,2367.0524,2367.0526,2367.0539,,,,0,49,49,49,1,90,45,,,,,,,,
,,5fbed1f21d5ce10fd350ce6e,65af563a7219ae981f60fdfd,2024-01-23_08h04.50.402,bars,2023.2.3,Win32,3.769317753,657b66ea316d21385b68909f,,,,,,,,,,,,,,,,,,,,,,,,,,,,,,,,,,,,,,,,,,,,,,,,,,,,,,,,,,,,,,,,,,,,,,,,,,,,,,,,,,,,,,,,,,,,,2367.054,2426.7665,0,3,3,2,1,sequence_tables/blk046.csv
,,5fbed1f21d5ce10fd350ce6e,65af563a7219ae981f60fdfd,2024-01-23_08h04.50.402,bars,2023.2.3,Win32,3.769317753,657b66ea316d21385b68909f,,,,,,,,,,,2437.5758,2438.6122,,,2439.1472,2439.4164,,131,131,,,,,,,,,,,,,,,,bars/025.png,bars/mask008.png,,,,,,,,,,,,1,1,,,,,,,5,7,6,8,,,,,,2426.807,2437.5568,space,10.2476,0.0005,2438.6122,2439.1471,2439.4164,2588.4803,space,148.8068,0.0005,2588.4804,26,89,2589.2832,2589.2832,2589.3057,,,,0,0,0,0,1,105,40,,,,,,,,
,,5fbed1f21d5ce10fd350ce6e,65af563a7219ae981f60fdfd,2024-01-23_08h04.50.402,bars,2023.2.3,Win32,3.769317753,657b66ea316d21385b68909f,,,,,,,,,,,2589.3063,2590.1402,,,2590.4345,2590.7507,,96,96,,,,,,,,,,,,,,,,bars/007.png,bars/mask000.png,,,,,,,,,,,,0,2,,,,,,,7,9,5,8,,,,,,,,,,,2590.1403,2590.4345,2590.7507,2602.9383,space,11.9061,0.0007,2602.9384,79,41,2604.0428,2604.043,2604.0807,,,,0,1,1,1,1,175,55,,,,,,,,
,,5fbed1f21d5ce10fd350ce6e,65af563a7219ae981f60fdfd,2024-01-23_08h04.50.402,bars,2023.2.3,Win32,3.769317753,657b66ea316d21385b68909f,,,,,,,,,,,2604.0815,2605.182,,,2605.7482,2605.7497,,139,139,,,,,,,,,,,,,,,,bars/010.png,bars/mask001.png,,,,,,,,,,,,1,1,,,,,,,5,10,4,10,,,,,,,,,,,2605.1821,2605.7482,2605.7498,2612.8526,space,6.6403,0.0004,2612.8527,26,84,2613.667,2613.6671,2613.686,,,,0,2,2,2,1,165,55,,,,,,,,
,,5fbed1f21d5ce10fd350ce6e,65af563a7219ae981f60fdfd,2024-01-23_08h04.50.402,bars,2023.2.3,Win32,3.769317753,657b66ea316d21385b68909f,,,,,,,,,,,2613.6866,2614.5196,,,2615.0753,2615.349,,28,28,,,,,,,,,,,,,,,,bars/019.png,bars/mask006.png,,,,,,,,,,,,1,1,,,,,,,3,10,2,9,,,,,,,,,,,2614.5196,2615.0752,2615.3491,2623.8689,space,8.2513,0.0007,2623.8689,17,77,2624.9776,2624.9777,2625.0159,,,,0,3,3,3,1,45,105,,,,,,,,
,,5fbed1f21d5ce10fd350ce6e,65af563a7219ae981f60fdfd,2024-01-23_08h04.50.402,bars,2023.2.3,Win32,3.769317753,657b66ea316d21385b68909f,,,,,,,,,,,2625.0167,2626.0883,,,2626.6604,2626.6618,,99,99,,,,,,,,,,,,,,,,bars/039.png,bars/mask007.png,,,,,,,,,,,,8,2,,,,,,,1,10,0,10,,,,,,,,,,,2626.0884,2626.6603,2626.6619,2634.995,space,7.8035,,2634.995,76,6,2635.8132,2635.8133,2635.8354,,,,0,4,4,4,1,175,105,,,,,,,,
,,5fbed1f21d5ce10fd350ce6e,65af563a7219ae981f60fdfd,2024-01-23_08h04.50.402,bars,2023.2.3,Win32,3.769317753,657b66ea316d21385b68909f,,,,,,,,,,,2635.8359,2636.6581,,,2637.2049,2637.4769,,36,36,,,,,,,,,,,,,,,,bars/049.png,bars/mask004.png,,,,,,,,,,,,0,1,,,,,,,0,10,1,10,,,,,,,,,,,2636.6581,2637.2049,2637.477,2643.3952,space,5.6454,0.0007,2643.3953,56,79,2644.5624,2644.5625,2644.6052,,,,0,5,5,5,1,160,115,,,,,,,,
,,5fbed1f21d5ce10fd350ce6e,65af563a7219ae981f60fdfd,2024-01-23_08h04.50.402,bars,2023.2.3,Win32,3.769317753,657b66ea316d21385b68909f,,,,,,,,,,,2644.606,2645.1512,,,2645.7254,2645.7268,,28,28,,,,,,,,,,,,,,,,bars/032.png,bars/mask009.png,,,,,,,,,,,,7,2,,,,,,,2,8,1,10,,,,,,,,,,,2645.1513,2645.7254,2645.7268,2650.2152,space,3.9617,0.0007,2650.2152,83,8,2651.0181,2651.0181,2651.0405,,,,0,6,6,6,1,125,20,,,,,,,,
