init_variables.started,init_variables.stopped,participant,session,date,expName,psychopyVersion,OS,frameRate,study_id,instruction_exp.started,instruction_exp.stopped,key_resp_8.keys,key_resp_8.rt,key_resp_8.duration,instruction_single.started,instruction_single.stopped,key_resp_2.keys,key_resp_2.rt,key_resp_2.duration,interval.started,interval.stopped,cue_single.started,cue_single.stopped,mask.started,mask.stopped,ori_response_single.started,res_ori,res,ori_response_single.stopped,key_resp_single.keys,key_resp_single.rt,key_resp_single.duration,disp_single.started,disp_single.stopped,key_resp.keys,key_resp.rt,key_resp.duration,single.thisRepN,single.thisTrialN,single.thisN,single.thisIndex,single.ran,ori,path,mask_path,instruction_bandit.started,instruction_bandit.stopped,key_resp_6.keys,key_resp_6.rt,key_resp_6.duration,cue_bandit.started,cue_bandit.stopped,bandit_res.keys,bandit_res.rt,bandit_res.duration,outcome_bandit.started,rew,action,outcome_bandit.stopped,bandit.thisRepN,bandit.thisTrialN,bandit.thisN,bandit.thisIndex,bandit.ran,actual_rew1,actual_rew2,rew1,rew2,instruction_task.started,instruction_task.stopped,key_resp_7.keys,key_resp_7.rt,key_resp_7.duration,wait_ready.started,wait_ready.stopped,key_resp_3.keys,key_resp_3.rt,key_resp_3.duration,cue.started,cue.stopped,ori_response.started,ori_response.stopped,key_resp_5.keys,key_resp_5.rt,key_resp_5.duration,outcome.started,diff1,diff2,outcome.stopped,disp_outcome_practice.started,disp_outcome_practice.stopped,key_resp_4.keys,key_resp_4.rt,key_resp_4.duration,trials.thisRepN,trials.thisTrialN,trials.thisN,trials.thisIndex,trials.ran,ori1,ori2,break_blk.started,break_blk.stopped,block.thisRepN,block.thisTrialN,block.thisN,block.thisIndex,block.ran,condition_file
0.0002,0.0003,5ff797b72ac13349beac1906,65af54d34abd09284145a158,2024-01-23_05h55.53.446,bars,2023.2.3,Win32,60.24096386,657b66ea316d21385b68909f,,,,,,,,,,,,,,,,,,,,,,,,,,,,,,,,,,,,,,,,,,,,,,,,,,,,,,,,,,,,,,,,,,,,,,,,,,,,,,,,,,,,,,,,,,,,,,,,,,,,
,,5ff797b72ac13349beac1906,65af54d34abd09284145a158,2024-01-23_05h55.53.446,bars,2023.2.3,Win32,60.24096386,657b66ea316d21385b68909f,0.0003,8.875,y,8.8518,,,,,,,,,,,,,,,,,,,,,,,,,,,,,,,,,,,,,,,,,,,,,,,,,,,,,,,,,,,,,,,,,,,,,,,,,,,,,,,,,,,,,,,,,,,,,,,,
,,5ff797b72ac13349beac1906,65af54d34abd09284145a158,2024-01-23_05h55.53.446,bars,2023.2.3,Win32,60.24096386,657b66ea316d21385b68909f,,,,,,8.8754,87.34,space,78.4439,,,,,,,,,,,,,,,,,,,,,,,,,,,,,,,,,,,,,,,,,,,,,,,,,,,,,,,,,,,,,,,,,,,,,,,,,,,,,,,,,,,,,,,,,,,
,,5ff797b72ac13349beac1906,65af54d34abd09284145a158,2024-01-23_05h55.53.446,bars,2023.2.3,Win32,60.24096386,657b66ea316d21385b68909f,,,,,,,,,,,87.344,88.3376,88.3379,88.838,88.8383,89.0768,89.0771,90,90,104.345,space,15.2227,,104.3452,112.6368,space,8.2646,,0,0,0,4,1,95,bars/single004.png,bars/mask004.png,,,,,,,,,,,,,,,,,,,,,,,,,,,,,,,,,,,,,,,,,,,,,,,,,,,,,,,,,,,,,,,,
,,5ff797b72ac13349beac1906,65af54d34abd09284145a158,2024-01-23_05h55.53.446,bars,2023.2.3,Win32,60.24096386,657b66ea316d21385b68909f,,,,,,,,,,,112.6549,113.6473,113.6475,114.147,114.1472,114.3977,114.3977,49,49,116.1816,space,1.7573,,116.1817,117.2155,space,1.0021,,0,1,1,5,1,55,bars/single005.png,bars/mask008.png,,,,,,,,,,,,,,,,,,,,,,,,,,,,,,,,,,,,,,,,,,,,,,,,,,,,,,,,,,,,,,,,
,,5ff797b72ac13349beac1906,65af54d34abd09284145a158,2024-01-23_05h55.53.446,bars,2023.2.3,Win32,60.24096386,657b66ea316d21385b68909f,,,,,,,,,,,117.2166,118.216,118.2161,118.7204,118.7205,118.9659,118.9659,166,-14,122.1675,space,3.17,,122.1677,124.2516,space,2.0582,,0,2,2,0,1,150,bars/single000.png,bars/mask006.png,,,,,,,,,,,,,,,,,,,,,,,,,,,,,,,,,,,,,,,,,,,,,,,,,,,,,,,,,,,,,,,,
,,5ff797b72ac13349beac1906,65af54d34abd09284145a158,2024-01-23_05h55.53.446,bars,2023.2.3,Win32,60.24096386,657b66ea316d21385b68909f,,,,,,,,,,,124.2525,125.2516,125.2518,125.7519,125.7519,126.0021,126.0021,37,37,126.8357,space,0.8071,,126.8358,127.6588,space,0.8013,,0,3,3,7,1,45,bars/single007.png,bars/mask009.png,,,,,,,,,,,,,,,,,,,,,,,,,,,,,,,,,,,,,,,,,,,,,,,,,,,,,,,,,,,,,,,,
,,5ff797b72ac13349beac1906,65af54d34abd09284145a158,2024-01-23_05h55.53.446,bars,2023.2.3,Win32,60.24096386,657b66ea316d21385b68909f,,,,,,,,,,,127.6594,128.6529,128.653,129.1529,129.153,129.4029,129.4029,157,157,133.7718,space,4.339,,133.772,135.6061,space,1.7967,,0,4,4,8,1,160,bars/single008.png,bars/mask004.png,,,,,,,,,,,,,,,,,,,,,,,,,,,,,,,,,,,,,,,,,,,,,,,,,,,,,,,,,,,,,,,,
,,5ff797b72ac13349beac1906,65af54d34abd09284145a158,2024-01-23_05h55.53.446,bars,2023.2.3,Win32,60.24096386,657b66ea316d21385b68909f,,,,,,,,,,,135.6069,136.606,136.606,137.1054,137.1055,137.3563,137.3563,20,200,140.3075,space,2.9196,,140.3077,142.4418,space,2.1025,,0,5,5,3,1,20,bars/single003.png,bars/mask005.png,,,,,,,,,,,,,,,,,,,,,,,,,,,,,,,,,,,,,,,,,,,,,,,,,,,,,,,,,,,,,,,,
,,5ff797b72ac13349beac1906,65af54d34abd09284145a158,2024-01-23_05h55.53.446,bars,2023.2.3,Win32,60.24096386,657b66ea316d21385b68909f,,,,,,,,,,,142.4604,143.4584,143.4585,143.9422,143.9422,144.1923,144.1923,163,163,145.5987,space,1.3846,,145.5987,146.3265,space,0.7009,,0,6,6,1,1,20,bars/single001.png,bars/mask006.png,,,,,,,,,,,,,,,,,,,,,,,,,,,,,,,,,,,,,,,,,,,,,,,,,,,,,,,,,,,,,,,,
,,5ff797b72ac13349beac1906,65af54d34abd09284145a158,2024-01-23_05h55.53.446,bars,2023.2.3,Win32,60.24096386,657b66ea316d21385b68909f,,,,,,,,,,,146.3272,147.3266,147.3267,147.827,147.8272,148.0772,148.0772,167,-13,152.5956,space,4.5026,,152.5958,153.2626,space,0.6283,,0,7,7,6,1,175,bars/single006.png,bars/mask005.png,,,,,,,,,,,,,,,,,,,,,,,,,,,,,,,,,,,,,,,,,,,,,,,,,,,,,,,,,,,,,,,,
,,5ff797b72ac13349beac1906,65af54d34abd09284145a158,2024-01-23_05h55.53.446,bars,2023.2.3,Win32,60.24096386,657b66ea316d21385b68909f,,,,,,,,,,,153.264,154.2624,154.2624,154.7627,154.7628,155.0131,155.0131,126,126,158.2978,space,3.2748,,158.2978,158.9149,space,0.586,,0,8,8,2,1,145,bars/single002.png,bars/mask003.png,,,,,,,,,,,,,,,,,,,,,,,,,,,,,,,,,,,,,,,,,,,,,,,,,,,,,,,,,,,,,,,,
,,5ff797b72ac13349beac1906,65af54d34abd09284145a158,2024-01-23_05h55.53.446,bars,2023.2.3,Win32,60.24096386,657b66ea316d21385b68909f,,,,,,,,,,,158.9158,159.9147,159.9148,160.4153,160.4154,160.6651,160.6651,26,206,163.6825,space,3.0011,,163.6825,164.5166,space,0.8074,,0,9,9,9,1,20,bars/single009.png,bars/mask006.png,,,,,,,,,,,,,,,,,,,,,,,,,,,,,,,,,,,,,,,,,,,,,,,,,,,,,,,,,,,,,,,,
,,5ff797b72ac13349beac1906,65af54d34abd09284145a158,2024-01-23_05h55.53.446,bars,2023.2.3,Win32,60.24096386,657b66ea316d21385b68909f,,,,,,,,,,,,,,,,,,,,,,,,,,,,,,,,,,,,,164.5183,181.9417,space,17.3921,,,,,,,,,,,,,,,,,,,,,,,,,,,,,,,,,,,,,,,,,,,,,,,,,,,,,,,,,,,,
,,5ff797b72ac13349beac1906,65af54d34abd09284145a158,2024-01-23_05h55.53.446,bars,2023.2.3,Win32,60.24096386,657b66ea316d21385b68909f,,,,,,,,,,,,,,,,,,,,,,,,,,,,,,,,,,,,,,,,,,181.9627,185.8583,right,3.8782,,185.8587,2,2,186.8586,0,0,0,0,1,9,1,9,2,,,,,,,,,,,,,,,,,,,,,,,,,,,,,,,,,,,,,,,,,
,,5ff797b72ac13349beac1906,65af54d34abd09284145a158,2024-01-23_05h55.53.446,bars,2023.2.3,Win32,60.24096386,657b66ea316d21385b68909f,,,,,,,,,,,,,,,,,,,,,,,,,,,,,,,,,,,,,,,,,,186.8593,188.342,right,1.4675,,188.3422,1,2,189.3419,0,1,1,1,1,10,0,10,1,,,,,,,,,,,,,,,,,,,,,,,,,,,,,,,,,,,,,,,,,
,,5ff797b72ac13349beac1906,65af54d34abd09284145a158,2024-01-23_05h55.53.446,bars,2023.2.3,Win32,60.24096386,657b66ea316d21385b68909f,,,,,,,,,,,,,,,,,,,,,,,,,,,,,,,,,,,,,,,,,,189.3422,190.6597,left,1.3062,,190.6598,10,1,191.6599,0,2,2,2,1,10,2,10,2,,,,,,,,,,,,,,,,,,,,,,,,,,,,,,,,,,,,,,,,,
,,5ff797b72ac13349beac1906,65af54d34abd09284145a158,2024-01-23_05h55.53.446,bars,2023.2.3,Win32,60.24096386,657b66ea316d21385b68909f,,,,,,,,,,,,,,,,,,,,,,,,,,,,,,,,,,,,,,,,,,191.6604,192.9105,left,1.2385,,192.9106,7,1,193.9108,0,3,3,3,1,8,4,7,3,,,,,,,,,,,,,,,,,,,,,,,,,,,,,,,,,,,,,,,,,
,,5ff797b72ac13349beac1906,65af54d34abd09284145a158,2024-01-23_05h55.53.446,bars,2023.2.3,Win32,60.24096386,657b66ea316d21385b68909f,,,,,,,,,,,,,,,,,,,,,,,,,,,,,,,,,,,,,,,,,,193.9113,194.8947,left,0.9659,,194.8947,5,1,195.8948,0,4,4,4,1,6,2,5,1,,,,,,,,,,,,,,,,,,,,,,,,,,,,,,,,,,,,,,,,,
,,5ff797b72ac13349beac1906,65af54d34abd09284145a158,2024-01-23_05h55.53.446,bars,2023.2.3,Win32,60.24096386,657b66ea316d21385b68909f,,,,,,,,,,,,,,,,,,,,,,,,,,,,,,,,,,,,,,,,,,195.8953,197.3623,left,1.4487,,197.3623,4,1,198.3623,0,5,5,5,1,4,4,4,4,,,,,,,,,,,,,,,,,,,,,,,,,,,,,,,,,,,,,,,,,
,,5ff797b72ac13349beac1906,65af54d34abd09284145a158,2024-01-23_05h55.53.446,bars,2023.2.3,Win32,60.24096386,657b66ea316d21385b68909f,,,,,,,,,,,,,,,,,,,,,,,,,,,,,,,,,,,,,,,,,,198.3828,200.0973,left,1.699,,200.0974,1,1,201.0974,0,6,6,6,1,2,2,1,2,,,,,,,,,,,,,,,,,,,,,,,,,,,,,,,,,,,,,,,,,
,,5ff797b72ac13349beac1906,65af54d34abd09284145a158,2024-01-23_05h55.53.446,bars,2023.2.3,Win32,60.24096386,657b66ea316d21385b68909f,,,,,,,,,,,,,,,,,,,,,,,,,,,,,,,,,,,,,,,,,,201.0982,201.4311,right,0.3023,,201.4313,1,2,202.4305,0,7,7,7,1,0,0,0,1,,,,,,,,,,,,,,,,,,,,,,,,,,,,,,,,,,,,,,,,,
,,5ff797b72ac13349beac1906,65af54d34abd09284145a158,2024-01-23_05h55.53.446,bars,2023.2.3,Win32,60.24096386,657b66ea316d21385b68909f,,,,,,,,,,,,,,,,,,,,,,,,,,,,,,,,,,,,,,,,,,202.4312,203.7321,left,1.2688,,203.7323,1,1,204.7317,0,8,8,8,1,0,2,1,0,,,,,,,,,,,,,,,,,,,,,,,,,,,,,,,,,,,,,,,,,
,,5ff797b72ac13349beac1906,65af54d34abd09284145a158,2024-01-23_05h55.53.446,bars,2023.2.3,Win32,60.24096386,657b66ea316d21385b68909f,,,,,,,,,,,,,,,,,,,,,,,,,,,,,,,,,,,,,,,,,,204.7323,205.1831,left,0.4251,,205.1832,2,1,206.1825,0,9,9,9,1,2,4,2,3,,,,,,,,,,,,,,,,,,,,,,,,,,,,,,,,,,,,,,,,,
,,5ff797b72ac13349beac1906,65af54d34abd09284145a158,2024-01-23_05h55.53.446,bars,2023.2.3,Win32,60.24096386,657b66ea316d21385b68909f,,,,,,,,,,,,,,,,,,,,,,,,,,,,,,,,,,,,,,,,,,206.1833,208.4334,left,2.2225,,208.4334,0,1,209.4331,0,10,10,10,1,0,2,0,3,,,,,,,,,,,,,,,,,,,,,,,,,,,,,,,,,,,,,,,,,
,,5ff797b72ac13349beac1906,65af54d34abd09284145a158,2024-01-23_05h55.53.446,bars,2023.2.3,Win32,60.24096386,657b66ea316d21385b68909f,,,,,,,,,,,,,,,,,,,,,,,,,,,,,,,,,,,,,,,,,,209.4341,210.6009,left,1.1439,,210.6009,0,1,211.6011,0,11,11,11,1,0,4,0,3,,,,,,,,,,,,,,,,,,,,,,,,,,,,,,,,,,,,,,,,,
,,5ff797b72ac13349beac1906,65af54d34abd09284145a158,2024-01-23_05h55.53.446,bars,2023.2.3,Win32,60.24096386,657b66ea316d21385b68909f,,,,,,,,,,,,,,,,,,,,,,,,,,,,,,,,,,,,,,,,,,211.6019,212.4187,left,0.7947,,212.4188,1,1,213.4184,0,12,12,12,1,2,6,1,6,,,,,,,,,,,,,,,,,,,,,,,,,,,,,,,,,,,,,,,,,
,,5ff797b72ac13349beac1906,65af54d34abd09284145a158,2024-01-23_05h55.53.446,bars,2023.2.3,Win32,60.24096386,657b66ea316d21385b68909f,,,,,,,,,,,,,,,,,,,,,,,,,,,,,,,,,,,,,,,,,,213.4191,213.9524,left,0.5015,,213.9525,1,1,214.9524,0,13,13,13,1,0,4,1,3,,,,,,,,,,,,,,,,,,,,,,,,,,,,,,,,,,,,,,,,,
,,5ff797b72ac13349beac1906,65af54d34abd09284145a158,2024-01-23_05h55.53.446,bars,2023.2.3,Win32,60.24096386,657b66ea316d21385b68909f,,,,,,,,,,,,,,,,,,,,,,,,,,,,,,,,,,,,,,,,,,214.9531,215.6417,right,0.6677,,215.6417,7,2,216.636,0,14,14,14,1,2,6,2,7,,,,,,,,,,,,,,,,,,,,,,,,,,,,,,,,,,,,,,,,,
,,5ff797b72ac13349beac1906,65af54d34abd09284145a158,2024-01-23_05h55.53.446,bars,2023.2.3,Win32,60.24096386,657b66ea316d21385b68909f,,,,,,,,,,,,,,,,,,,,,,,,,,,,,,,,,,,,,,,,,,216.6367,217.7707,right,1.1034,,217.7708,9,2,218.7705,0,15,15,15,1,4,8,3,9,,,,,,,,,,,,,,,,,,,,,,,,,,,,,,,,,,,,,,,,,
,,5ff797b72ac13349beac1906,65af54d34abd09284145a158,2024-01-23_05h55.53.446,bars,2023.2.3,Win32,60.24096386,657b66ea316d21385b68909f,,,,,,,,,,,,,,,,,,,,,,,,,,,,,,,,,,,,,,,,,,218.7714,219.3266,right,0.5343,,219.3267,7,2,220.3211,0,16,16,16,1,6,6,7,7,,,,,,,,,,,,,,,,,,,,,,,,,,,,,,,,,,,,,,,,,
,,5ff797b72ac13349beac1906,65af54d34abd09284145a158,2024-01-23_05h55.53.446,bars,2023.2.3,Win32,60.24096386,657b66ea316d21385b68909f,,,,,,,,,,,,,,,,,,,,,,,,,,,,,,,,,,,,,,,,,,220.322,221.055,right,0.7052,,221.0551,5,2,222.0551,0,17,17,17,1,8,4,9,5,,,,,,,,,,,,,,,,,,,,,,,,,,,,,,,,,,,,,,,,,
,,5ff797b72ac13349beac1906,65af54d34abd09284145a158,2024-01-23_05h55.53.446,bars,2023.2.3,Win32,60.24096386,657b66ea316d21385b68909f,,,,,,,,,,,,,,,,,,,,,,,,,,,,,,,,,,,,,,,,,,222.056,223.2059,right,1.1187,,223.2061,1,2,224.2062,0,18,18,18,1,6,2,5,1,,,,,,,,,,,,,,,,,,,,,,,,,,,,,,,,,,,,,,,,,
,,5ff797b72ac13349beac1906,65af54d34abd09284145a158,2024-01-23_05h55.53.446,bars,2023.2.3,Win32,60.24096386,657b66ea316d21385b68909f,,,,,,,,,,,,,,,,,,,,,,,,,,,,,,,,,,,,,,,,,,224.207,224.5394,left,0.3012,,224.5395,7,1,225.5399,0,19,19,19,1,8,0,7,0,,,,,,,,,,,,,,,,,,,,,,,,,,,,,,,,,,,,,,,,,
,,5ff797b72ac13349beac1906,65af54d34abd09284145a158,2024-01-23_05h55.53.446,bars,2023.2.3,Win32,60.24096386,657b66ea316d21385b68909f,,,,,,,,,,,,,,,,,,,,,,,,,,,,,,,,,,,,,,,,,,,,,,,,,,,,,,,,,,,,225.5415,228.0589,space,2.486,,,,,,,,,,,,,,,,,,,,,,,,,,,,,,,,,,,,,
,,5ff797b72ac13349beac1906,65af54d34abd09284145a158,2024-01-23_05h55.53.446,bars,2023.2.3,Win32,60.24096386,657b66ea316d21385b68909f,,,,,,,,,,,228.7113,229.7072,,,230.2089,230.4583,,92,92,,,,,,,,,,,,,,,,bars/002.png,bars/mask004.png,,,,,,,,,,,,3,2,,,,,,,3,2,6,4,,,,,,228.08,228.7081,space,0.613,,229.7075,230.2087,230.4593,234.5785,space,4.0864,,234.579,38,7,235.5782,235.5787,242.9816,space,7.3784,,0,0,0,0,1,130,85,,,,,,,,
,,5ff797b72ac13349beac1906,65af54d34abd09284145a158,2024-01-23_05h55.53.446,bars,2023.2.3,Win32,60.24096386,657b66ea316d21385b68909f,,,,,,,,,,,243.0001,243.9973,,,244.4967,244.7473,,145,145,,,,,,,,,,,,,,,,bars/042.png,bars/mask004.png,,,,,,,,,,,,1,1,,,,,,,1,4,1,4,,,,,,,,,,,243.9974,244.4966,244.7474,246.7315,space,1.9532,,246.7318,0,70,247.7317,247.7319,248.8493,space,1.0899,,0,1,1,1,1,145,75,,,,,,,,
,,5ff797b72ac13349beac1906,65af54d34abd09284145a158,2024-01-23_05h55.53.446,bars,2023.2.3,Win32,60.24096386,657b66ea316d21385b68909f,,,,,,,,,,,248.8502,249.8494,,,250.3495,250.5996,,26,26,,,,,,,,,,,,,,,,bars/000.png,bars/mask005.png,,,,,,,,,,,,2,1,,,,,,,3,6,4,5,,,,,,,,,,,249.8495,250.3494,250.5996,254.3682,space,3.7437,,254.3684,14,61,255.3679,255.368,260.1034,space,4.7062,,0,2,2,2,1,40,145,,,,,,,,
,,5ff797b72ac13349beac1906,65af54d34abd09284145a158,2024-01-23_05h55.53.446,bars,2023.2.3,Win32,60.24096386,657b66ea316d21385b68909f,,,,,,,,,,,260.1217,261.1202,,,261.6038,261.8425,,65,65,,,,,,,,,,,,,,,,bars/041.png,bars/mask004.png,,,,,,,,,,,,1,2,,,,,,,5,4,5,4,,,,,,,,,,,261.1203,261.6038,261.8425,263.3543,space,1.4915,,263.3544,45,20,264.3547,264.3548,267.0233,space,2.6287,,0,3,3,3,1,20,85,,,,,,,,
,,5ff797b72ac13349beac1906,65af54d34abd09284145a158,2024-01-23_05h55.53.446,bars,2023.2.3,Win32,60.24096386,657b66ea316d21385b68909f,,,,,,,,,,,267.0243,268.0226,,,268.5108,268.7553,,154,-26,,,,,,,,,,,,,,,,bars/017.png,bars/mask000.png,,,,,,,,,,,,2,1,,,,,,,3,6,3,6,,,,,,,,,,,268.0227,268.5108,268.7554,270.9966,space,2.235,,270.9967,9,71,271.9909,271.991,272.0144,space,0.0014,,0,4,4,4,1,145,45,,,,,,,,
,,5ff797b72ac13349beac1906,65af54d34abd09284145a158,2024-01-23_05h55.53.446,bars,2023.2.3,Win32,60.24096386,657b66ea316d21385b68909f,,,,,,,,,,,272.015,273.0079,,,273.5083,273.7581,,64,64,,,,,,,,,,,,,,,,bars/033.png,bars/mask009.png,,,,,,,,,,,,0,1,,,,,,,5,8,4,8,,,,,,,,,,,273.008,273.5081,273.7582,274.9144,space,1.1344,,274.9146,39,89,275.9089,275.909,276.3932,space,0.4523,,0,5,5,5,1,25,155,,,,,,,,
,,5ff797b72ac13349beac1906,65af54d34abd09284145a158,2024-01-23_05h55.53.446,bars,2023.2.3,Win32,60.24096386,657b66ea316d21385b68909f,,,,,,,,,,,276.3941,277.3981,,,277.8936,278.1433,,137,137,,,,,,,,,,,,,,,,bars/031.png,bars/mask004.png,,,,,,,,,,,,1,1,,,,,,,3,6,2,6,,,,,,,,,,,277.3982,277.8935,278.1434,281.6113,space,3.4416,,281.6116,17,78,282.6118,282.6119,282.6403,space,0.0005,,0,6,6,6,1,120,35,,,,,,,,
,,5ff797b72ac13349beac1906,65af54d34abd09284145a158,2024-01-23_05h55.53.446,bars,2023.2.3,Win32,60.24096386,657b66ea316d21385b68909f,,,,,,,,,,,282.6406,283.6288,,,284.129,284.3791,,2,2,,,,,,,,,,,,,,,,bars/026.png,bars/mask000.png,,,,,,,,,,,,0,1,,,,,,,1,4,2,4,,,,,,,,,,,283.6289,284.129,284.3791,287.0137,space,2.6112,,287.0139,33,83,288.0134,288.0134,288.6143,space,0.5691,,0,7,7,7,1,35,85,,,,,,,,
,,5ff797b72ac13349beac1906,65af54d34abd09284145a158,2024-01-23_05h55.53.446,bars,2023.2.3,Win32,60.24096386,657b66ea316d21385b68909f,,,,,,,,,,,288.6152,289.6145,,,290.1147,290.3646,,135,135,,,,,,,,,,,,,,,,bars/027.png,bars/mask005.png,,,,,,,,,,,,0,1,,,,,,,0,2,0,2,,,,,,,,,,,289.6146,290.1146,290.3647,294.4663,space,4.0749,,294.4664,25,85,295.4665,295.4665,296.1337,space,0.6346,,0,8,8,8,1,110,50,,,,,,,,
,,5ff797b72ac13349beac1906,65af54d34abd09284145a158,2024-01-23_05h55.53.446,bars,2023.2.3,Win32,60.24096386,657b66ea316d21385b68909f,,,,,,,,,,,296.1346,297.1339,,,297.6332,297.8844,,79,79,,,,,,,,,,,,,,,,bars/013.png,bars/mask003.png,,,,,,,,,,,,0,1,,,,,,,0,4,0,3,,,,,,,,,,,297.1339,297.6331,297.8845,302.6587,space,4.7681,,302.6588,4,69,303.6531,303.6532,303.9205,space,0.2344,,0,9,9,9,1,75,10,,,,,,,,
,,5ff797b72ac13349beac1906,65af54d34abd09284145a158,2024-01-23_05h55.53.446,bars,2023.2.3,Win32,60.24096386,657b66ea316d21385b68909f,,,,,,,,,,,303.9215,304.9201,,,305.4201,305.6702,,163,-17,,,,,,,,,,,,,,,,bars/039.png,bars/mask007.png,,,,,,,,,,,,0,1,,,,,,,0,6,0,5,,,,,,,,,,,304.9202,305.4201,305.6704,309.4218,space,3.7187,,309.422,12,58,310.4222,310.4222,310.9396,space,0.4865,,0,10,10,10,1,175,105,,,,,,,,
,,5ff797b72ac13349beac1906,65af54d34abd09284145a158,2024-01-23_05h55.53.446,bars,2023.2.3,Win32,60.24096386,657b66ea316d21385b68909f,,,,,,,,,,,310.9407,311.9395,,,312.4398,312.6897,,91,91,,,,,,,,,,,,,,,,bars/035.png,bars/mask005.png,,,,,,,,,,,,0,2,,,,,,,0,8,0,9,,,,,,,,,,,311.9395,312.4396,312.6897,312.9071,space,0.1887,,312.9073,84,31,313.9066,313.9067,313.9742,space,0.0382,,0,11,11,11,1,175,60,,,,,,,,
,,5ff797b72ac13349beac1906,65af54d34abd09284145a158,2024-01-23_05h55.53.446,bars,2023.2.3,Win32,60.24096386,657b66ea316d21385b68909f,,,,,,,,,,,313.9751,314.974,,,315.4742,315.7242,,4,184,,,,,,,,,,,,,,,,bars/010.png,bars/mask005.png,,,,,,,,,,,,1,1,,,,,,,2,10,2,9,,,,,,,,,,,314.9741,315.4742,315.7242,320.66,space,4.9051,,320.6601,19,51,321.6598,321.66,321.726,space,0.0308,,0,12,12,12,1,165,55,,,,,,,,
,,5ff797b72ac13349beac1906,65af54d34abd09284145a158,2024-01-23_05h55.53.446,bars,2023.2.3,Win32,60.24096386,657b66ea316d21385b68909f,,,,,,,,,,,321.7267,322.7266,,,323.2272,323.4773,,56,56,,,,,,,,,,,,,,,,bars/043.png,bars/mask005.png,,,,,,,,,,,,0,1,,,,,,,0,10,0,10,,,,,,,,,,,322.7267,323.2271,323.4775,325.5009,space,2.0019,,325.5009,26,74,326.4951,326.4952,327.0851,space,0.5598,,0,13,13,13,1,30,130,,,,,,,,
,,5ff797b72ac13349beac1906,65af54d34abd09284145a158,2024-01-23_05h55.53.446,bars,2023.2.3,Win32,60.24096386,657b66ea316d21385b68909f,,,,,,,,,,,327.0857,328.0789,,,328.5798,328.829,,154,154,,,,,,,,,,,,,,,,bars/010.png,bars/mask002.png,,,,,,,,,,,,0,1,,,,,,,0,10,0,10,,,,,,,,,,,328.079,328.5797,328.8291,330.8142,space,1.9684,,330.8143,11,81,331.8138,331.8139,332.5142,space,0.6685,,0,14,14,14,1,165,55,,,,,,,,
,,5ff797b72ac13349beac1906,65af54d34abd09284145a158,2024-01-23_05h55.53.446,bars,2023.2.3,Win32,60.24096386,657b66ea316d21385b68909f,,,,,,,,,,,332.5151,333.5143,,,334.0142,334.2644,,75,75,,,,,,,,,,,,,,,,bars/044.png,bars/mask007.png,,,,,,,,,,,,3,1,,,,,,,2,8,3,8,,,,,,,,,,,333.5144,334.0141,334.2644,336.249,space,1.9684,,336.2491,0,80,337.2482,337.2483,338.1833,space,0.903,,0,15,15,15,1,75,155,,,,,,,,
,,5ff797b72ac13349beac1906,65af54d34abd09284145a158,2024-01-23_05h55.53.446,bars,2023.2.3,Win32,60.24096386,657b66ea316d21385b68909f,,,,,,,,,,,338.1843,339.1828,,,339.6835,339.9342,,110,110,,,,,,,,,,,,,,,,bars/025.png,bars/mask000.png,,,,,,,,,,,,0,1,,,,,,,0,6,0,5,,,,,,,,,,,339.183,339.6834,339.9344,341.5849,space,1.6201,,341.585,5,70,342.5841,342.5841,343.2009,space,0.5932,,0,16,16,16,1,105,40,,,,,,,,
,,5ff797b72ac13349beac1906,65af54d34abd09284145a158,2024-01-23_05h55.53.446,bars,2023.2.3,Win32,60.24096386,657b66ea316d21385b68909f,,,,,,,,,,,343.2016,344.2013,,,344.7019,344.9525,,100,-80,,,,,,,,,,,,,,,,bars/027.png,bars/mask004.png,,,,,,,,,,,,1,1,,,,,,,2,4,2,3,,,,,,,,,,,344.2014,344.7018,344.9526,348.4369,space,3.4743,,348.4369,10,50,349.4363,349.4363,350.1716,space,0.7078,,0,17,17,17,1,110,50,,,,,,,,
,,5ff797b72ac13349beac1906,65af54d34abd09284145a158,2024-01-23_05h55.53.446,bars,2023.2.3,Win32,60.24096386,657b66ea316d21385b68909f,,,,,,,,,,,350.1725,351.1713,,,351.6715,351.9213,,144,144,,,,,,,,,,,,,,,,bars/018.png,bars/mask009.png,,,,,,,,,,,,1,1,,,,,,,0,6,1,7,,,,,,,,,,,351.1713,351.6713,351.9213,354.7892,space,2.8528,,354.7892,6,54,355.7782,355.7782,355.9561,space,0.1376,,0,18,18,18,1,150,90,,,,,,,,
,,5ff797b72ac13349beac1906,65af54d34abd09284145a158,2024-01-23_05h55.53.446,bars,2023.2.3,Win32,60.24096386,657b66ea316d21385b68909f,,,,,,,,,,,355.9567,356.9566,,,357.4565,357.7066,,147,147,,,,,,,,,,,,,,,,bars/011.png,bars/mask000.png,,,,,,,,,,,,1,1,,,,,,,2,8,2,8,,,,,,,,,,,356.9566,357.4564,357.7067,360.2742,space,2.5609,,360.2744,13,62,361.2743,361.2744,361.8756,space,0.564,,0,19,19,19,1,160,85,,,,,,,,
,,5ff797b72ac13349beac1906,65af54d34abd09284145a158,2024-01-23_05h55.53.446,bars,2023.2.3,Win32,60.24096386,657b66ea316d21385b68909f,,,,,,,,,,,361.8766,362.8753,,,363.3763,363.6263,,20,200,,,,,,,,,,,,,,,,bars/023.png,bars/mask003.png,,,,,,,,,,,,4,1,,,,,,,4,6,4,8,,,,,,,,,,,362.8754,363.3762,363.6266,366.7273,space,3.0855,,366.7274,0,85,367.7279,367.728,368.6783,space,0.9137,,0,20,20,20,1,20,115,,,,,,,,
,,5ff797b72ac13349beac1906,65af54d34abd09284145a158,2024-01-23_05h55.53.446,bars,2023.2.3,Win32,60.24096386,657b66ea316d21385b68909f,,,,,,,,,,,368.6792,369.6782,,,370.1784,370.4287,,98,98,,,,,,,,,,,,,,,,bars/045.png,bars/mask007.png,,,,,,,,,,,,6,1,,,,,,,6,4,6,4,,,,,,,,,,,369.6783,370.1783,370.4289,374.4468,space,4.0049,,374.447,2,88,375.4468,375.4469,376.0966,space,0.6209,,0,21,21,21,1,100,10,,,,,,,,
,,5ff797b72ac13349beac1906,65af54d34abd09284145a158,2024-01-23_05h55.53.446,bars,2023.2.3,Win32,60.24096386,657b66ea316d21385b68909f,,,,,,,,,,,376.0974,377.0973,,,377.5984,377.8479,,100,100,,,,,,,,,,,,,,,,bars/027.png,bars/mask003.png,,,,,,,,,,,,5,1,,,,,,,8,2,8,2,,,,,,,,,,,377.0974,377.5982,377.848,379.2373,space,1.3677,,379.2373,10,50,380.2322,380.2322,380.8662,space,0.6031,,0,22,22,22,1,110,50,,,,,,,,
,,5ff797b72ac13349beac1906,65af54d34abd09284145a158,2024-01-23_05h55.53.446,bars,2023.2.3,Win32,60.24096386,657b66ea316d21385b68909f,,,,,,,,,,,380.8672,381.8662,,,382.3667,382.6163,,64,64,,,,,,,,,,,,,,,,bars/044.png,bars/mask004.png,,,,,,,,,,,,4,1,,,,,,,6,4,6,6,,,,,,,,,,,381.8662,382.3666,382.6163,386.2678,space,3.6223,,386.268,11,89,387.273,387.273,387.9522,space,0.6482,,0,23,23,23,1,75,155,,,,,,,,
,,5ff797b72ac13349beac1906,65af54d34abd09284145a158,2024-01-23_05h55.53.446,bars,2023.2.3,Win32,60.24096386,657b66ea316d21385b68909f,,,,,,,,,,,387.9532,388.9527,,,389.4528,389.7022,,16,196,,,,,,,,,,,,,,,,bars/009.png,bars/mask006.png,,,,,,,,,,,,3,1,,,,,,,4,2,3,1,,,,,,,,,,,388.9529,389.4527,389.7022,392.6538,space,2.9214,,392.6539,1,89,393.6544,393.6544,394.3711,space,0.6755,,0,24,24,24,1,15,105,,,,,,,,
,,5ff797b72ac13349beac1906,65af54d34abd09284145a158,2024-01-23_05h55.53.446,bars,2023.2.3,Win32,60.24096386,657b66ea316d21385b68909f,,,,,,,,,,,394.3717,395.3705,,,395.8715,396.1214,,26,206,,,,,,,,,,,,,,,,bars/033.png,bars/mask004.png,,,,,,,,,,,,2,1,,,,,,,2,4,2,2,,,,,,,,,,,395.3706,395.8713,396.1215,399.0898,space,2.9524,,399.0899,1,51,400.0899,400.0899,400.6737,space,0.5544,,0,25,25,25,1,25,155,,,,,,,,
,,5ff797b72ac13349beac1906,65af54d34abd09284145a158,2024-01-23_05h55.53.446,bars,2023.2.3,Win32,60.24096386,657b66ea316d21385b68909f,,,,,,,,,,,400.6747,401.6736,,,402.1739,402.4238,,152,152,,,,,,,,,,,,,,,,bars/046.png,bars/mask009.png,,,,,,,,,,,,4,1,,,,,,,4,6,4,6,,,,,,,,,,,401.6737,402.1738,402.4238,406.376,space,3.9421,,406.3761,3,67,407.3759,407.376,407.91,space,0.5021,,0,26,26,26,1,155,85,,,,,,,,
,,5ff797b72ac13349beac1906,65af54d34abd09284145a158,2024-01-23_05h55.53.446,bars,2023.2.3,Win32,60.24096386,657b66ea316d21385b68909f,,,,,,,,,,,407.9109,408.9097,,,409.4102,409.6602,,167,167,,,,,,,,,,,,,,,,bars/007.png,bars/mask006.png,,,,,,,,,,,,1,1,,,,,,,2,4,1,1,,,,,,,,,,,408.9098,409.4102,409.6602,412.4114,space,2.7375,,412.4115,8,68,413.4112,413.4114,413.8292,space,0.382,,0,27,27,27,1,175,55,,,,,,,,
,,5ff797b72ac13349beac1906,65af54d34abd09284145a158,2024-01-23_05h55.53.446,bars,2023.2.3,Win32,60.24096386,657b66ea316d21385b68909f,,,,,,,,,,,413.83,414.8286,,,415.329,415.5795,,21,21,,,,,,,,,,,,,,,,bars/026.png,bars/mask002.png,,,,,,,,,,,,3,1,,,,,,,4,2,5,3,,,,,,,,,,,414.8287,415.329,415.5795,417.4131,space,1.8198,,417.4133,14,64,418.4137,418.4138,418.9134,space,0.4693,,0,28,28,28,1,35,85,,,,,,,,
,,5ff797b72ac13349beac1906,65af54d34abd09284145a158,2024-01-23_05h55.53.446,bars,2023.2.3,Win32,60.24096386,657b66ea316d21385b68909f,,,,,,,,,,,418.9145,419.9141,,,420.4144,420.6644,,154,-26,,,,,,,,,,,,,,,,bars/035.png,bars/mask008.png,,,,,,,,,,,,1,1,,,,,,,2,0,3,0,,,,,,,,,,,419.9142,420.4143,420.6645,422.7325,space,2.0568,,422.7325,21,86,423.7313,423.7313,424.333,space,0.5744,,0,29,29,29,1,175,60,,,,,,,,
,,5ff797b72ac13349beac1906,65af54d34abd09284145a158,2024-01-23_05h55.53.446,bars,2023.2.3,Win32,60.24096386,657b66ea316d21385b68909f,,,,,,,,,,,424.3338,425.3325,,,425.8332,426.0832,,118,118,,,,,,,,,,,,,,,,bars/001.png,bars/mask002.png,,,,,,,,,,,,1,1,,,,,,,0,0,2,0,,,,,,,,,,,425.3325,425.8331,426.0833,430.0407,space,3.9358,,430.0407,12,33,431.035,431.0351,431.6186,space,0.5504,,0,30,30,30,1,130,85,,,,,,,,
,,5ff797b72ac13349beac1906,65af54d34abd09284145a158,2024-01-23_05h55.53.446,bars,2023.2.3,Win32,60.24096386,657b66ea316d21385b68909f,,,,,,,,,,,431.6197,432.6189,,,433.1193,433.3688,,24,204,,,,,,,,,,,,,,,,bars/023.png,bars/mask007.png,,,,,,,,,,,,1,1,,,,,,,2,0,1,0,,,,,,,,,,,432.6189,433.1192,433.3689,435.4037,space,2.0186,,435.4038,4,89,436.4036,436.4037,437.0436,space,0.6098,,0,31,31,31,1,20,115,,,,,,,,
,,5ff797b72ac13349beac1906,65af54d34abd09284145a158,2024-01-23_05h55.53.446,bars,2023.2.3,Win32,60.24096386,657b66ea316d21385b68909f,,,,,,,,,,,437.0441,438.0374,,,438.5377,438.788,,13,193,,,,,,,,,,,,,,,,bars/033.png,bars/mask005.png,,,,,,,,,,,,0,1,,,,,,,0,0,0,0,,,,,,,,,,,438.0375,438.5376,438.7881,440.9224,space,2.1182,,440.9225,12,38,441.9223,441.9224,442.8233,space,0.8758,,0,32,32,32,1,25,155,,,,,,,,
,,5ff797b72ac13349beac1906,65af54d34abd09284145a158,2024-01-23_05h55.53.446,bars,2023.2.3,Win32,60.24096386,657b66ea316d21385b68909f,,,,,,,,,,,442.8242,443.8231,,,444.3232,444.5735,,17,17,,,,,,,,,,,,,,,,bars/009.png,bars/mask001.png,,,,,,,,,,,,0,1,,,,,,,0,2,0,2,,,,,,,,,,,443.8233,444.323,444.5736,449.0086,space,4.407,,449.0087,2,88,450.0088,450.0089,454.628,space,4.5802,,0,33,33,33,1,15,105,,,,,,,,
,,5ff797b72ac13349beac1906,65af54d34abd09284145a158,2024-01-23_05h55.53.446,bars,2023.2.3,Win32,60.24096386,657b66ea316d21385b68909f,,,,,,,,,,,454.6289,455.6278,,,456.1281,456.3777,,19,199,,,,,,,,,,,,,,,,bars/006.png,bars/mask002.png,,,,,,,,,,,,1,1,,,,,,,2,0,2,1,,,,,,,,,,,455.6279,456.128,456.3778,459.1627,space,2.7529,,459.1628,16,81,460.1629,460.1629,460.7631,space,0.5647,,0,34,34,34,1,35,100,,,,,,,,
,,5ff797b72ac13349beac1906,65af54d34abd09284145a158,2024-01-23_05h55.53.446,bars,2023.2.3,Win32,60.24096386,657b66ea316d21385b68909f,,,,,,,,,,,460.7641,461.7637,,,462.2628,462.5138,,168,168,,,,,,,,,,,,,,,,bars/049.png,bars/mask004.png,,,,,,,,,,,,0,1,,,,,,,0,2,0,1,,,,,,,,,,,461.7638,462.2626,462.5138,463.1808,space,0.6514,,463.1809,8,53,464.1806,464.1807,464.5145,space,0.3097,,0,35,35,35,1,160,115,,,,,,,,
,,5ff797b72ac13349beac1906,65af54d34abd09284145a158,2024-01-23_05h55.53.446,bars,2023.2.3,Win32,60.24096386,657b66ea316d21385b68909f,,,,,,,,,,,464.5154,465.5141,,,466.0147,466.2655,,168,168,,,,,,,,,,,,,,,,bars/049.png,bars/mask001.png,,,,,,,,,,,,2,1,,,,,,,2,0,3,0,,,,,,,,,,,465.5141,466.0147,466.2655,468.9664,space,2.6704,,468.9665,8,53,469.9661,469.9662,470.1163,space,0.1279,,0,36,36,36,1,160,115,,,,,,,,
,,5ff797b72ac13349beac1906,65af54d34abd09284145a158,2024-01-23_05h55.53.446,bars,2023.2.3,Win32,60.24096386,657b66ea316d21385b68909f,,,,,,,,,,,470.1174,471.1172,,,471.6165,471.8675,,130,130,,,,,,,,,,,,,,,,bars/030.png,bars/mask006.png,,,,,,,,,,,,3,1,,,,,,,4,2,5,1,,,,,,,,,,,471.1173,471.6165,471.8676,473.268,space,1.3725,,473.2682,10,65,474.2679,474.268,474.3517,space,0.0524,,0,37,37,37,1,140,65,,,,,,,,
,,5ff797b72ac13349beac1906,65af54d34abd09284145a158,2024-01-23_05h55.53.446,bars,2023.2.3,Win32,60.24096386,657b66ea316d21385b68909f,,,,,,,,,,,474.3528,475.3519,,,475.8573,476.1017,,112,112,,,,,,,,,,,,,,,,bars/022.png,bars/mask000.png,,,,,,,,,,,,1,1,,,,,,,2,4,2,5,,,,,,,,,,,475.3519,475.8572,476.1018,477.5864,space,1.4598,,477.5865,17,88,478.5863,478.5864,478.8368,space,0.2199,,0,38,38,38,1,95,20,,,,,,,,
,,5ff797b72ac13349beac1906,65af54d34abd09284145a158,2024-01-23_05h55.53.446,bars,2023.2.3,Win32,60.24096386,657b66ea316d21385b68909f,,,,,,,,,,,478.8378,479.8365,,,480.3364,480.5873,,6,6,,,,,,,,,,,,,,,,bars/023.png,bars/mask006.png,,,,,,,,,,,,2,1,,,,,,,4,6,3,6,,,,,,,,,,,479.8367,480.3363,480.5873,482.3048,space,1.6905,,482.3049,14,71,483.3049,483.305,485.0058,space,1.6707,,0,39,39,39,1,20,115,,,,,,,,
,,5ff797b72ac13349beac1906,65af54d34abd09284145a158,2024-01-23_05h55.53.446,bars,2023.2.3,Win32,60.24096386,657b66ea316d21385b68909f,,,,,,,,,,,485.0069,486.006,,,486.5059,486.7449,,38,38,,,,,,,,,,,,,,,,bars/047.png,bars/mask002.png,,,,,,,,,,,,0,1,,,,,,,2,4,1,3,,,,,,,,,,,486.006,486.5057,486.7449,489.2572,space,2.4909,,489.2573,23,32,490.2572,490.2573,490.2798,space,0.0006,,0,40,40,40,1,15,70,,,,,,,,
,,5ff797b72ac13349beac1906,65af54d34abd09284145a158,2024-01-23_05h55.53.446,bars,2023.2.3,Win32,60.24096386,657b66ea316d21385b68909f,,,,,,,,,,,490.2802,491.2745,,,491.7744,492.0242,,162,-18,,,,,,,,,,,,,,,,bars/007.png,bars/mask008.png,,,,,,,,,,,,2,1,,,,,,,4,2,3,2,,,,,,,,,,,491.2745,491.7743,492.0242,496.5101,space,4.4785,,496.5103,13,73,497.5095,497.5096,498.044,space,0.5021,,0,41,41,41,1,175,55,,,,,,,,
,,5ff797b72ac13349beac1906,65af54d34abd09284145a158,2024-01-23_05h55.53.446,bars,2023.2.3,Win32,60.24096386,657b66ea316d21385b68909f,,,,,,,,,,,498.0451,499.0433,,,499.5444,499.7947,,77,77,,,,,,,,,,,,,,,,bars/029.png,bars/mask009.png,,,,,,,,,,,,4,1,,,,,,,6,0,7,1,,,,,,,,,,,499.0434,499.5443,499.7948,501.6123,space,1.7932,,501.6123,13,32,502.6121,502.6122,503.0459,space,0.4047,,0,42,42,42,1,90,45,,,,,,,,
,,5ff797b72ac13349beac1906,65af54d34abd09284145a158,2024-01-23_05h55.53.446,bars,2023.2.3,Win32,60.24096386,657b66ea316d21385b68909f,,,,,,,,,,,503.0469,504.0454,,,504.5464,504.796,,81,81,,,,,,,,,,,,,,,,bars/012.png,bars/mask003.png,,,,,,,,,,,,4,1,,,,,,,4,0,6,0,,,,,,,,,,,504.0454,504.5463,504.796,508.4148,space,3.6025,,508.4148,9,66,509.4144,509.4145,509.6819,space,0.2341,,0,43,43,43,1,90,15,,,,,,,,
,,5ff797b72ac13349beac1906,65af54d34abd09284145a158,2024-01-23_05h55.53.446,bars,2023.2.3,Win32,60.24096386,657b66ea316d21385b68909f,,,,,,,,,,,509.6829,510.6824,,,511.1823,511.432,,133,133,,,,,,,,,,,,,,,,bars/018.png,bars/mask003.png,,,,,,,,,,,,1,1,,,,,,,2,0,2,0,,,,,,,,,,,510.6825,511.1823,511.4322,513.9337,space,2.4692,,513.9338,17,43,514.9332,514.9333,515.6507,space,0.6892,,0,44,44,44,1,150,90,,,,,,,,
,,5ff797b72ac13349beac1906,65af54d34abd09284145a158,2024-01-23_05h55.53.446,bars,2023.2.3,Win32,60.24096386,657b66ea316d21385b68909f,,,,,,,,,,,515.6514,516.6511,,,517.1511,517.4008,,63,63,,,,,,,,,,,,,,,,bars/013.png,bars/mask001.png,,,,,,,,,,,,0,1,,,,,,,0,0,0,2,,,,,,,,,,,516.6512,517.1509,517.4008,520.0857,space,2.6527,,520.0858,12,53,521.086,521.0861,521.5696,space,0.4516,,0,45,45,45,1,75,10,,,,,,,,
,,5ff797b72ac13349beac1906,65af54d34abd09284145a158,2024-01-23_05h55.53.446,bars,2023.2.3,Win32,60.24096386,657b66ea316d21385b68909f,,,,,,,,,,,521.5707,522.5698,,,523.0702,523.3198,,13,13,,,,,,,,,,,,,,,,bars/047.png,bars/mask008.png,,,,,,,,,,,,2,1,,,,,,,2,2,2,1,,,,,,,,,,,522.5698,523.0701,523.3198,525.5878,space,2.2538,,525.5879,2,57,526.5881,526.5882,527.0044,space,0.3788,,0,46,46,46,1,15,70,,,,,,,,
,,5ff797b72ac13349beac1906,65af54d34abd09284145a158,2024-01-23_05h55.53.446,bars,2023.2.3,Win32,60.24096386,657b66ea316d21385b68909f,,,,,,,,,,,527.0051,528.0053,,,528.5057,528.7556,,135,135,,,,,,,,,,,,,,,,bars/031.png,bars/mask005.png,,,,,,,,,,,,3,1,,,,,,,4,0,5,1,,,,,,,,,,,528.0053,528.5057,528.7557,530.4114,space,1.6496,,530.4114,15,80,531.4066,531.4066,532.5574,space,1.1245,,0,47,47,47,1,120,35,,,,,,,,
,,5ff797b72ac13349beac1906,65af54d34abd09284145a158,2024-01-23_05h55.53.446,bars,2023.2.3,Win32,60.24096386,657b66ea316d21385b68909f,,,,,,,,,,,532.5584,533.5577,,,534.0573,534.3077,,105,105,,,,,,,,,,,,,,,,bars/022.png,bars/mask006.png,,,,,,,,,,,,5,1,,,,,,,6,2,7,3,,,,,,,,,,,533.5577,534.0573,534.3078,538.7319,space,4.418,,538.7319,10,85,539.7262,539.7263,540.294,space,0.5312,,0,48,48,48,1,95,20,,,,,,,,
,,5ff797b72ac13349beac1906,65af54d34abd09284145a158,2024-01-23_05h55.53.446,bars,2023.2.3,Win32,60.24096386,657b66ea316d21385b68909f,,,,,,,,,,,540.2948,541.294,,,541.7939,542.044,,107,107,,,,,,,,,,,,,,,,bars/025.png,bars/mask003.png,,,,,,,,,,,,3,1,,,,,,,4,4,3,4,,,,,,,,,,,541.2941,541.7938,542.0441,544.762,space,2.7093,,544.762,2,67,545.7619,545.762,546.5286,space,0.7308,,0,49,49,49,1,105,40,,,,,,,,
,,5ff797b72ac13349beac1906,65af54d34abd09284145a158,2024-01-23_05h55.53.446,bars,2023.2.3,Win32,60.24096386,657b66ea316d21385b68909f,,,,,,,,,,,,,,,,,,,,,,,,,,,,,,,,,,,,,,,,,,,,,,,,,,,,,,,,,,,,,,,,,,,,,,,,,,,,,,,,,,,,,,,,,,,,,546.5298,606.5196,0,0,0,0,1,sequence_tables/blk023.csv
,,5ff797b72ac13349beac1906,65af54d34abd09284145a158,2024-01-23_05h55.53.446,bars,2023.2.3,Win32,60.24096386,657b66ea316d21385b68909f,,,,,,,,,,,608.1617,609.1529,,,609.6522,609.9032,,16,16,,,,,,,,,,,,,,,,bars/028.png,bars/mask003.png,,,,,,,,,,,,0,1,,,,,,,2,7,4,8,,,,,,606.5273,608.1526,space,1.6028,,609.153,609.6522,609.9033,611.2544,space,1.3349,,611.2546,29,76,612.2541,612.2542,612.2555,,,,0,0,0,0,1,45,120,,,,,,,,
,,5ff797b72ac13349beac1906,65af54d34abd09284145a158,2024-01-23_05h55.53.446,bars,2023.2.3,Win32,60.24096386,657b66ea316d21385b68909f,,,,,,,,,,,612.2558,613.2538,,,613.7544,614.0047,,70,250,,,,,,,,,,,,,,,,bars/044.png,bars/mask000.png,,,,,,,,,,,,3,1,,,,,,,4,5,3,5,,,,,,,,,,,613.2539,613.7543,614.0048,618.3734,space,4.3425,,618.3735,5,85,619.3733,619.3735,619.3955,,,,0,1,1,1,1,75,155,,,,,,,,
,,5ff797b72ac13349beac1906,65af54d34abd09284145a158,2024-01-23_05h55.53.446,bars,2023.2.3,Win32,60.24096386,657b66ea316d21385b68909f,,,,,,,,,,,619.3957,620.3907,,,620.8907,621.1408,,127,127,,,,,,,,,,,,,,,,bars/020.png,bars/mask003.png,,,,,,,,,,,,4,1,,,,,,,6,7,7,8,,,,,,,,,,,620.3908,620.8907,621.1409,623.8642,space,2.7017,,623.8643,12,43,624.8589,624.859,624.8794,,,,0,2,2,2,1,115,170,,,,,,,,
,,5ff797b72ac13349beac1906,65af54d34abd09284145a158,2024-01-23_05h55.53.446,bars,2023.2.3,Win32,60.24096386,657b66ea316d21385b68909f,,,,,,,,,,,624.8795,625.8763,,,626.3761,626.6261,,15,15,,,,,,,,,,,,,,,,bars/026.png,bars/mask002.png,,,,,,,,,,,,2,1,,,,,,,8,5,7,5,,,,,,,,,,,625.8763,626.3761,626.6261,628.8943,space,2.2592,,628.8944,20,70,629.894,629.8942,629.9166,,,,0,3,3,3,1,35,85,,,,,,,,
,,5ff797b72ac13349beac1906,65af54d34abd09284145a158,2024-01-23_05h55.53.446,bars,2023.2.3,Win32,60.24096386,657b66ea316d21385b68909f,,,,,,,,,,,629.9168,630.911,,,631.4118,631.6614,,111,111,,,,,,,,,,,,,,,,bars/002.png,bars/mask009.png,,,,,,,,,,,,2,1,,,,,,,6,3,6,2,,,,,,,,,,,630.911,631.4116,631.6615,633.3119,space,1.6186,,633.312,19,26,634.312,634.3121,634.3139,,,,0,4,4,4,1,130,85,,,,,,,,
,,5ff797b72ac13349beac1906,65af54d34abd09284145a158,2024-01-23_05h55.53.446,bars,2023.2.3,Win32,60.24096386,657b66ea316d21385b68909f,,,,,,,,,,,634.3142,635.3125,,,635.8128,636.0631,,130,130,,,,,,,,,,,,,,,,bars/036.png,bars/mask009.png,,,,,,,,,,,,2,1,,,,,,,4,5,4,6,,,,,,,,,,,635.3126,635.8127,636.0631,637.4472,space,1.3593,,637.4473,15,70,638.4475,638.4475,638.4492,,,,0,5,5,5,1,145,20,,,,,,,,
,,5ff797b72ac13349beac1906,65af54d34abd09284145a158,2024-01-23_05h55.53.446,bars,2023.2.3,Win32,60.24096386,657b66ea316d21385b68909f,,,,,,,,,,,638.4497,639.4476,,,639.9483,640.1981,,78,78,,,,,,,,,,,,,,,,bars/013.png,bars/mask007.png,,,,,,,,,,,,3,1,,,,,,,2,3,3,3,,,,,,,,,,,639.4477,639.9483,640.1982,642.4821,space,2.2594,,642.4822,3,68,643.4826,643.4827,643.497,,,,0,6,6,6,1,75,10,,,,,,,,
,,5ff797b72ac13349beac1906,65af54d34abd09284145a158,2024-01-23_05h55.53.446,bars,2023.2.3,Win32,60.24096386,657b66ea316d21385b68909f,,,,,,,,,,,643.4973,644.5,,,644.9999,645.2502,,74,74,,,,,,,,,,,,,,,,bars/014.png,bars/mask002.png,,,,,,,,,,,,5,1,,,,,,,4,1,6,2,,,,,,,,,,,644.5001,644.9999,645.2503,647.4066,space,2.1504,,647.4066,6,74,648.401,648.401,648.4027,,,,0,7,7,7,1,80,0,,,,,,,,
,,5ff797b72ac13349beac1906,65af54d34abd09284145a158,2024-01-23_05h55.53.446,bars,2023.2.3,Win32,60.24096386,657b66ea316d21385b68909f,,,,,,,,,,,648.4032,649.4015,,,649.9022,650.1522,,81,81,,,,,,,,,,,,,,,,bars/022.png,bars/mask005.png,,,,,,,,,,,,3,1,,,,,,,6,3,5,4,,,,,,,,,,,649.4016,649.9021,650.1522,651.6244,space,1.4664,,651.6245,14,61,652.6197,652.6197,652.6209,,,,0,8,8,8,1,95,20,,,,,,,,
,,5ff797b72ac13349beac1906,65af54d34abd09284145a158,2024-01-23_05h55.53.446,bars,2023.2.3,Win32,60.24096386,657b66ea316d21385b68909f,,,,,,,,,,,652.6212,653.6198,,,654.1202,654.3702,,173,-7,,,,,,,,,,,,,,,,bars/047.png,bars/mask007.png,,,,,,,,,,,,2,1,,,,,,,8,5,7,5,,,,,,,,,,,653.6199,654.12,654.3703,657.1048,space,2.7197,,657.1048,22,77,658.1048,658.1049,658.1263,,,,0,9,9,9,1,15,70,,,,,,,,
,,5ff797b72ac13349beac1906,65af54d34abd09284145a158,2024-01-23_05h55.53.446,bars,2023.2.3,Win32,60.24096386,657b66ea316d21385b68909f,,,,,,,,,,,658.1264,659.1217,,,659.6223,659.872,,108,108,,,,,,,,,,,,,,,,bars/014.png,bars/mask001.png,,,,,,,,,,,,1,1,,,,,,,10,3,10,4,,,,,,,,,,,659.1217,659.6223,659.8721,663.0461,space,3.1681,,663.0461,28,72,664.0404,664.0404,664.0605,,,,0,10,10,10,1,80,0,,,,,,,,
,,5ff797b72ac13349beac1906,65af54d34abd09284145a158,2024-01-23_05h55.53.446,bars,2023.2.3,Win32,60.24096386,657b66ea316d21385b68909f,,,,,,,,,,,664.0607,665.0575,,,665.5575,665.8076,,171,171,,,,,,,,,,,,,,,,bars/021.png,bars/mask006.png,,,,,,,,,,,,5,1,,,,,,,10,1,10,4,,,,,,,,,,,665.0575,665.5575,665.8077,666.6749,space,0.8361,,666.6749,16,79,667.675,667.675,667.6767,,,,0,11,11,11,1,155,70,,,,,,,,
,,5ff797b72ac13349beac1906,65af54d34abd09284145a158,2024-01-23_05h55.53.446,bars,2023.2.3,Win32,60.24096386,657b66ea316d21385b68909f,,,,,,,,,,,667.677,668.676,,,669.1761,669.4264,,19,199,,,,,,,,,,,,,,,,bars/006.png,bars/mask001.png,,,,,,,,,,,,5,1,,,,,,,10,3,10,3,,,,,,,,,,,668.676,669.176,669.4264,674.3009,space,4.8532,,674.3009,16,81,675.2948,675.2949,675.3115,,,,0,12,12,12,1,35,100,,,,,,,,
,,5ff797b72ac13349beac1906,65af54d34abd09284145a158,2024-01-23_05h55.53.446,bars,2023.2.3,Win32,60.24096386,657b66ea316d21385b68909f,,,,,,,,,,,675.312,676.3117,,,676.8125,677.0625,,111,111,,,,,,,,,,,,,,,,bars/025.png,bars/mask001.png,,,,,,,,,,,,5,1,,,,,,,8,5,6,3,,,,,,,,,,,676.3118,676.8124,677.0625,678.7295,space,1.6557,,678.7296,6,71,679.7297,679.7297,679.7313,,,,0,13,13,13,1,105,40,,,,,,,,
,,5ff797b72ac13349beac1906,65af54d34abd09284145a158,2024-01-23_05h55.53.446,bars,2023.2.3,Win32,60.24096386,657b66ea316d21385b68909f,,,,,,,,,,,679.7317,680.7302,,,681.2301,681.4806,,172,172,,,,,,,,,,,,,,,,bars/042.png,bars/mask009.png,,,,,,,,,,,,1,1,,,,,,,10,7,10,8,,,,,,,,,,,680.7302,681.2301,681.4807,682.3473,space,0.8405,,682.3474,27,83,683.3475,683.3475,683.3488,,,,0,14,14,14,1,145,75,,,,,,,,
,,5ff797b72ac13349beac1906,65af54d34abd09284145a158,2024-01-23_05h55.53.446,bars,2023.2.3,Win32,60.24096386,657b66ea316d21385b68909f,,,,,,,,,,,683.3493,684.3477,,,684.8486,685.0983,,111,-69,,,,,,,,,,,,,,,,bars/024.png,bars/mask005.png,,,,,,,,,,,,5,1,,,,,,,8,5,7,4,,,,,,,,,,,684.3478,684.8486,685.0985,687.6663,space,2.5434,,687.6663,9,59,688.6663,688.6663,688.668,,,,0,15,15,15,1,120,170,,,,,,,,
,,5ff797b72ac13349beac1906,65af54d34abd09284145a158,2024-01-23_05h55.53.446,bars,2023.2.3,Win32,60.24096386,657b66ea316d21385b68909f,,,,,,,,,,,688.6684,689.6679,,,690.1674,690.4168,,73,73,,,,,,,,,,,,,,,,bars/013.png,bars/mask008.png,,,,,,,,,,,,5,1,,,,,,,6,3,5,5,,,,,,,,,,,689.668,690.1674,690.4168,693.7192,space,3.2702,,693.7193,2,63,694.7192,694.7194,694.7388,,,,0,16,16,16,1,75,10,,,,,,,,
,,5ff797b72ac13349beac1906,65af54d34abd09284145a158,2024-01-23_05h55.53.446,bars,2023.2.3,Win32,60.24096386,657b66ea316d21385b68909f,,,,,,,,,,,694.7391,695.7358,,,696.2363,696.4861,,136,136,,,,,,,,,,,,,,,,bars/015.png,bars/mask001.png,,,,,,,,,,,,1,2,,,,,,,8,5,8,5,,,,,,,,,,,695.7358,696.2362,696.4862,698.404,space,1.888,,698.404,26,24,699.4037,699.4038,699.419,,,,0,17,17,17,1,110,160,,,,,,,,
,,5ff797b72ac13349beac1906,65af54d34abd09284145a158,2024-01-23_05h55.53.446,bars,2023.2.3,Win32,60.24096386,657b66ea316d21385b68909f,,,,,,,,,,,699.4192,700.421,,,700.9216,701.1713,,169,169,,,,,,,,,,,,,,,,bars/042.png,bars/mask006.png,,,,,,,,,,,,1,1,,,,,,,6,3,7,3,,,,,,,,,,,700.4211,700.9215,701.1714,703.4393,space,2.2533,,703.4393,24,86,704.4395,704.4396,704.4422,,,,0,18,18,18,1,145,75,,,,,,,,
,,5ff797b72ac13349beac1906,65af54d34abd09284145a158,2024-01-23_05h55.53.446,bars,2023.2.3,Win32,60.24096386,657b66ea316d21385b68909f,,,,,,,,,,,704.4425,705.4397,,,705.9399,706.1899,,159,-21,,,,,,,,,,,,,,,,bars/016.png,bars/mask009.png,,,,,,,,,,,,1,2,,,,,,,8,1,9,1,,,,,,,,,,,705.4397,705.9398,706.1899,711.3089,space,5.1038,,711.309,61,6,712.3085,712.3086,712.3254,,,,0,19,19,19,1,40,165,,,,,,,,
,,5ff797b72ac13349beac1906,65af54d34abd09284145a158,2024-01-23_05h55.53.446,bars,2023.2.3,Win32,60.24096386,657b66ea316d21385b68909f,,,,,,,,,,,712.3257,713.3256,,,713.8262,714.0763,,24,24,,,,,,,,,,,,,,,,bars/043.png,bars/mask004.png,,,,,,,,,,,,8,1,,,,,,,10,0,10,0,,,,,,,,,,,713.3256,713.8262,714.0764,716.611,space,2.5082,,716.611,6,74,717.6108,717.6109,717.6328,,,,0,20,20,20,1,30,130,,,,,,,,
,,5ff797b72ac13349beac1906,65af54d34abd09284145a158,2024-01-23_05h55.53.446,bars,2023.2.3,Win32,60.24096386,657b66ea316d21385b68909f,,,,,,,,,,,717.6331,718.6279,,,719.1278,719.3784,,10,190,,,,,,,,,,,,,,,,bars/043.png,bars/mask002.png,,,,,,,,,,,,2,1,,,,,,,8,0,6,0,,,,,,,,,,,718.628,719.1278,719.3785,722.7298,space,3.3248,,722.7298,20,60,723.7301,723.7301,723.7489,,,,0,21,21,21,1,30,130,,,,,,,,
,,5ff797b72ac13349beac1906,65af54d34abd09284145a158,2024-01-23_05h55.53.446,bars,2023.2.3,Win32,60.24096386,657b66ea316d21385b68909f,,,,,,,,,,,723.7491,724.7471,,,725.2522,725.4972,,110,110,,,,,,,,,,,,,,,,bars/045.png,bars/mask004.png,,,,,,,,,,,,5,1,,,,,,,6,0,7,0,,,,,,,,,,,724.7473,725.2522,725.4972,728.7151,space,3.2108,,728.7152,10,80,729.7154,729.7155,729.7359,,,,0,22,22,22,1,100,10,,,,,,,,
,,5ff797b72ac13349beac1906,65af54d34abd09284145a158,2024-01-23_05h55.53.446,bars,2023.2.3,Win32,60.24096386,657b66ea316d21385b68909f,,,,,,,,,,,729.7361,730.7326,,,731.2329,731.4822,,137,137,,,,,,,,,,,,,,,,bars/021.png,bars/mask001.png,,,,,,,,,,,,1,1,,,,,,,4,2,2,1,,,,,,,,,,,730.7327,731.2328,731.4823,735.7854,space,4.2906,,735.7855,18,67,736.7848,736.7849,736.8053,,,,0,23,23,23,1,155,70,,,,,,,,
,,5ff797b72ac13349beac1906,65af54d34abd09284145a158,2024-01-23_05h55.53.446,bars,2023.2.3,Win32,60.24096386,657b66ea316d21385b68909f,,,,,,,,,,,736.8056,737.8025,,,738.302,738.5515,,130,130,,,,,,,,,,,,,,,,bars/018.png,bars/mask008.png,,,,,,,,,,,,0,1,,,,,,,2,4,0,4,,,,,,,,,,,737.8025,738.3019,738.5517,742.2204,space,3.6452,,742.2204,20,40,743.2206,743.2207,743.241,,,,0,24,24,24,1,150,90,,,,,,,,
,,5ff797b72ac13349beac1906,65af54d34abd09284145a158,2024-01-23_05h55.53.446,bars,2023.2.3,Win32,60.24096386,657b66ea316d21385b68909f,,,,,,,,,,,743.2412,744.2384,,,744.738,744.9881,,46,226,,,,,,,,,,,,,,,,bars/048.png,bars/mask004.png,,,,,,,,,,,,0,1,,,,,,,0,6,0,6,,,,,,,,,,,744.2384,744.7379,744.9881,748.2564,space,3.2615,,748.2564,4,51,749.2564,749.2564,749.2758,,,,0,25,25,25,1,50,175,,,,,,,,
,,5ff797b72ac13349beac1906,65af54d34abd09284145a158,2024-01-23_05h55.53.446,bars,2023.2.3,Win32,60.24096386,657b66ea316d21385b68909f,,,,,,,,,,,749.276,750.2733,,,750.7734,751.0237,,32,32,,,,,,,,,,,,,,,,bars/000.png,bars/mask006.png,,,,,,,,,,,,2,1,,,,,,,2,8,3,8,,,,,,,,,,,750.2733,750.7733,751.0237,752.6419,space,1.6016,,752.6419,8,67,753.6414,753.6415,753.6632,,,,0,26,26,26,1,40,145,,,,,,,,
,,5ff797b72ac13349beac1906,65af54d34abd09284145a158,2024-01-23_05h55.53.446,bars,2023.2.3,Win32,60.24096386,657b66ea316d21385b68909f,,,,,,,,,,,753.6635,754.6586,,,755.1586,755.4087,,144,144,,,,,,,,,,,,,,,,bars/011.png,bars/mask001.png,,,,,,,,,,,,0,1,,,,,,,0,6,0,6,,,,,,,,,,,754.6587,755.1586,755.4087,758.1098,space,2.6739,,758.11,16,59,759.1101,759.1101,759.133,,,,0,27,27,27,1,160,85,,,,,,,,
,,5ff797b72ac13349beac1906,65af54d34abd09284145a158,2024-01-23_05h55.53.446,bars,2023.2.3,Win32,60.24096386,657b66ea316d21385b68909f,,,,,,,,,,,759.1332,760.1272,,,760.6273,760.8779,,173,173,,,,,,,,,,,,,,,,bars/042.png,bars/mask005.png,,,,,,,,,,,,0,1,,,,,,,0,8,0,8,,,,,,,,,,,760.1273,760.6272,760.8779,764.7511,space,3.852,,764.7511,28,82,765.746,765.7461,765.7659,,,,0,28,28,28,1,145,75,,,,,,,,
,,5ff797b72ac13349beac1906,65af54d34abd09284145a158,2024-01-23_05h55.53.446,bars,2023.2.3,Win32,60.24096386,657b66ea316d21385b68909f,,,,,,,,,,,765.7661,766.7631,,,767.2625,767.5137,,114,114,,,,,,,,,,,,,,,,bars/018.png,bars/mask008.png,,,,,,,,,,,,1,2,,,,,,,2,6,2,7,,,,,,,,,,,766.7632,767.2625,767.5138,770.2869,space,2.7518,,770.287,36,24,771.2819,771.282,771.3043,,,,0,29,29,29,1,150,90,,,,,,,,
,,5ff797b72ac13349beac1906,65af54d34abd09284145a158,2024-01-23_05h55.53.446,bars,2023.2.3,Win32,60.24096386,657b66ea316d21385b68909f,,,,,,,,,,,771.3045,772.2982,,,772.7987,773.0491,,35,215,,,,,,,,,,,,,,,,bars/023.png,bars/mask002.png,,,,,,,,,,,,0,1,,,,,,,0,8,0,10,,,,,,,,,,,772.2983,772.7986,773.0492,776.8673,space,3.8035,,776.8674,15,80,777.8669,777.867,777.8867,,,,0,30,30,30,1,20,115,,,,,,,,
,,5ff797b72ac13349beac1906,65af54d34abd09284145a158,2024-01-23_05h55.53.446,bars,2023.2.3,Win32,60.24096386,657b66ea316d21385b68909f,,,,,,,,,,,777.8869,778.8843,,,779.3841,779.6345,,107,107,,,,,,,,,,,,,,,,bars/045.png,bars/mask005.png,,,,,,,,,,,,0,1,,,,,,,0,6,0,6,,,,,,,,,,,778.8843,779.3841,779.6346,783.4361,space,3.793,,783.4361,7,83,784.4369,784.4369,784.4584,,,,0,31,31,31,1,100,10,,,,,,,,
,,5ff797b72ac13349beac1906,65af54d34abd09284145a158,2024-01-23_05h55.53.446,bars,2023.2.3,Win32,60.24096386,657b66ea316d21385b68909f,,,,,,,,,,,784.4587,785.4589,,,785.9539,786.2039,,5,5,,,,,,,,,,,,,,,,bars/033.png,bars/mask008.png,,,,,,,,,,,,1,1,,,,,,,2,8,3,7,,,,,,,,,,,785.4589,785.9538,786.2039,790.7949,space,4.5694,,790.795,20,30,791.7892,791.7893,791.8077,,,,0,32,32,32,1,25,155,,,,,,,,
,,5ff797b72ac13349beac1906,65af54d34abd09284145a158,2024-01-23_05h55.53.446,bars,2023.2.3,Win32,60.24096386,657b66ea316d21385b68909f,,,,,,,,,,,791.808,792.8062,,,793.3063,793.5559,,139,139,,,,,,,,,,,,,,,,bars/017.png,bars/mask003.png,,,,,,,,,,,,2,1,,,,,,,4,10,2,10,,,,,,,,,,,792.8063,793.3063,793.556,795.1125,space,1.5347,,795.1125,6,86,796.1077,796.1078,796.1094,,,,0,33,33,33,1,145,45,,,,,,,,
,,5ff797b72ac13349beac1906,65af54d34abd09284145a158,2024-01-23_05h55.53.446,bars,2023.2.3,Win32,60.24096386,657b66ea316d21385b68909f,,,,,,,,,,,796.1099,797.1082,,,797.6083,797.8583,,74,74,,,,,,,,,,,,,,,,bars/014.png,bars/mask000.png,,,,,,,,,,,,6,1,,,,,,,6,10,7,8,,,,,,,,,,,797.1082,797.6083,797.8584,800.0486,space,2.184,,800.0487,6,74,801.0429,801.043,801.0446,,,,0,34,34,34,1,80,0,,,,,,,,
,,5ff797b72ac13349beac1906,65af54d34abd09284145a158,2024-01-23_05h55.53.446,bars,2023.2.3,Win32,60.24096386,657b66ea316d21385b68909f,,,,,,,,,,,801.0451,802.0433,,,802.5432,802.7934,,156,156,,,,,,,,,,,,,,,,bars/046.png,bars/mask005.png,,,,,,,,,,,,9,1,,,,,,,8,8,9,9,,,,,,,,,,,802.0433,802.5431,802.7935,807.2505,space,4.4516,,807.2505,1,71,808.2451,808.2452,808.2588,,,,0,35,35,35,1,155,85,,,,,,,,
,,5ff797b72ac13349beac1906,65af54d34abd09284145a158,2024-01-23_05h55.53.446,bars,2023.2.3,Win32,60.24096386,657b66ea316d21385b68909f,,,,,,,,,,,808.259,809.2513,,,809.7461,809.9962,,103,103,,,,,,,,,,,,,,,,bars/027.png,bars/mask001.png,,,,,,,,,,,,5,1,,,,,,,6,10,7,10,,,,,,,,,,,809.2513,809.7459,809.9963,811.7144,space,1.7015,,811.7144,7,53,812.7138,812.7139,812.7156,,,,0,36,36,36,1,110,50,,,,,,,,
,,5ff797b72ac13349beac1906,65af54d34abd09284145a158,2024-01-23_05h55.53.446,bars,2023.2.3,Win32,60.24096386,657b66ea316d21385b68909f,,,,,,,,,,,812.716,813.7141,,,814.2145,814.4643,,106,106,,,,,,,,,,,,,,,,bars/001.png,bars/mask004.png,,,,,,,,,,,,2,2,,,,,,,8,8,9,8,,,,,,,,,,,813.7143,814.2145,814.4643,815.8381,space,1.3675,,815.8381,24,21,816.8323,816.8324,816.8355,,,,0,37,37,37,1,130,85,,,,,,,,
,,5ff797b72ac13349beac1906,65af54d34abd09284145a158,2024-01-23_05h55.53.446,bars,2023.2.3,Win32,60.24096386,657b66ea316d21385b68909f,,,,,,,,,,,816.836,817.8323,,,818.3328,818.5832,,28,28,,,,,,,,,,,,,,,,bars/006.png,bars/mask007.png,,,,,,,,,,,,8,1,,,,,,,10,10,10,10,,,,,,,,,,,817.8324,818.3328,818.5833,821.6067,space,3.0172,,821.6067,7,72,822.6011,822.6012,822.6244,,,,0,38,38,38,1,35,100,,,,,,,,
,,5ff797b72ac13349beac1906,65af54d34abd09284145a158,2024-01-23_05h55.53.446,bars,2023.2.3,Win32,60.24096386,657b66ea316d21385b68909f,,,,,,,,,,,822.6246,823.6181,,,824.1184,824.3685,,114,114,,,,,,,,,,,,,,,,bars/002.png,bars/mask005.png,,,,,,,,,,,,5,1,,,,,,,10,10,10,10,,,,,,,,,,,823.6181,824.1183,824.3685,825.7527,space,1.3581,,825.7527,16,29,826.753,826.7532,826.7545,,,,0,39,39,39,1,130,85,,,,,,,,
,,5ff797b72ac13349beac1906,65af54d34abd09284145a158,2024-01-23_05h55.53.446,bars,2023.2.3,Win32,60.24096386,657b66ea316d21385b68909f,,,,,,,,,,,826.7548,827.753,,,828.2528,828.5037,,96,96,,,,,,,,,,,,,,,,bars/020.png,bars/mask000.png,,,,,,,,,,,,3,1,,,,,,,8,8,7,7,,,,,,,,,,,827.753,828.2527,828.5038,830.7378,space,2.2196,,830.7379,19,74,831.738,831.7381,831.7483,,,,0,40,40,40,1,115,170,,,,,,,,
,,5ff797b72ac13349beac1906,65af54d34abd09284145a158,2024-01-23_05h55.53.446,bars,2023.2.3,Win32,60.24096386,657b66ea316d21385b68909f,,,,,,,,,,,831.7484,832.7383,,,833.238,833.4887,,136,-44,,,,,,,,,,,,,,,,bars/037.png,bars/mask007.png,,,,,,,,,,,,5,1,,,,,,,10,6,10,5,,,,,,,,,,,832.7384,833.238,833.4887,836.5734,space,3.0701,,836.5735,14,31,837.5731,837.5732,837.593,,,,0,41,41,41,1,150,105,,,,,,,,
,,5ff797b72ac13349beac1906,65af54d34abd09284145a158,2024-01-23_05h55.53.446,bars,2023.2.3,Win32,60.24096386,657b66ea316d21385b68909f,,,,,,,,,,,837.5932,838.5903,,,839.0908,839.3408,,3,183,,,,,,,,,,,,,,,,bars/039.png,bars/mask002.png,,,,,,,,,,,,5,1,,,,,,,8,8,7,7,,,,,,,,,,,838.5905,839.0908,839.3408,843.5098,space,4.1528,,843.5099,8,78,844.5087,844.5089,844.5164,,,,0,42,42,42,1,175,105,,,,,,,,
,,5ff797b72ac13349beac1906,65af54d34abd09284145a158,2024-01-23_05h55.53.446,bars,2023.2.3,Win32,60.24096386,657b66ea316d21385b68909f,,,,,,,,,,,844.5164,845.5095,,,846.0104,846.2592,,144,144,,,,,,,,,,,,,,,,bars/035.png,bars/mask005.png,,,,,,,,,,,,0,1,,,,,,,6,6,4,5,,,,,,,,,,,845.5096,846.0103,846.2592,848.6167,space,2.3515,,848.6168,31,84,849.6114,849.6114,849.6332,,,,0,43,43,43,1,175,60,,,,,,,,
,,5ff797b72ac13349beac1906,65af54d34abd09284145a158,2024-01-23_05h55.53.446,bars,2023.2.3,Win32,60.24096386,657b66ea316d21385b68909f,,,,,,,,,,,849.6335,850.6283,,,851.1286,851.3787,,162,162,,,,,,,,,,,,,,,,bars/009.png,bars/mask003.png,,,,,,,,,,,,0,1,,,,,,,8,4,7,4,,,,,,,,,,,850.6285,851.1286,851.3788,852.5116,space,1.1271,,852.5118,33,57,853.5124,853.5124,853.5253,,,,0,44,44,44,1,15,105,,,,,,,,
,,5ff797b72ac13349beac1906,65af54d34abd09284145a158,2024-01-23_05h55.53.446,bars,2023.2.3,Win32,60.24096386,657b66ea316d21385b68909f,,,,,,,,,,,853.5256,854.5299,,,855.03,855.2804,,43,43,,,,,,,,,,,,,,,,bars/016.png,bars/mask002.png,,,,,,,,,,,,9,1,,,,,,,10,6,10,6,,,,,,,,,,,854.53,855.03,855.2805,856.1527,space,0.8508,,856.1528,3,58,857.1475,857.1476,857.1493,,,,0,45,45,45,1,40,165,,,,,,,,
,,5ff797b72ac13349beac1906,65af54d34abd09284145a158,2024-01-23_05h55.53.446,bars,2023.2.3,Win32,60.24096386,657b66ea316d21385b68909f,,,,,,,,,,,857.1498,858.1475,,,858.6479,858.8982,,98,-82,,,,,,,,,,,,,,,,bars/014.png,bars/mask001.png,,,,,,,,,,,,3,1,,,,,,,8,4,7,5,,,,,,,,,,,858.1476,858.6479,858.8983,862.7667,space,3.8372,,862.7667,18,82,863.7678,863.768,863.7772,,,,0,46,46,46,1,80,0,,,,,,,,
,,5ff797b72ac13349beac1906,65af54d34abd09284145a158,2024-01-23_05h55.53.446,bars,2023.2.3,Win32,60.24096386,657b66ea316d21385b68909f,,,,,,,,,,,863.7773,864.7671,,,865.2682,865.5176,,112,112,,,,,,,,,,,,,,,,bars/015.png,bars/mask008.png,,,,,,,,,,,,9,1,,,,,,,10,6,10,5,,,,,,,,,,,864.7672,865.2681,865.5176,869.2236,space,3.7002,,869.2236,2,48,870.2184,870.2185,870.2303,,,,0,47,47,47,1,110,160,,,,,,,,
,,5ff797b72ac13349beac1906,65af54d34abd09284145a158,2024-01-23_05h55.53.446,bars,2023.2.3,Win32,60.24096386,657b66ea316d21385b68909f,,,,,,,,,,,870.2304,871.2196,,,871.7211,871.9697,,116,116,,,,,,,,,,,,,,,,bars/037.png,bars/mask009.png,,,,,,,,,,,,5,2,,,,,,,8,8,7,8,,,,,,,,,,,871.2196,871.721,871.9698,875.8215,space,3.8397,,875.8215,34,11,876.8218,876.8218,876.8432,,,,0,48,48,48,1,150,105,,,,,,,,
,,5ff797b72ac13349beac1906,65af54d34abd09284145a158,2024-01-23_05h55.53.446,bars,2023.2.3,Win32,60.24096386,657b66ea316d21385b68909f,,,,,,,,,,,876.8435,877.839,,,878.3391,878.589,,68,68,,,,,,,,,,,,,,,,bars/044.png,bars/mask009.png,,,,,,,,,,,,5,1,,,,,,,6,10,7,10,,,,,,,,,,,877.839,878.3391,878.5891,881.5966,space,3.0014,,881.5967,7,87,882.5906,882.5907,882.6113,,,,0,49,49,49,1,75,155,,,,,,,,
,,5ff797b72ac13349beac1906,65af54d34abd09284145a158,2024-01-23_05h55.53.446,bars,2023.2.3,Win32,60.24096386,657b66ea316d21385b68909f,,,,,,,,,,,,,,,,,,,,,,,,,,,,,,,,,,,,,,,,,,,,,,,,,,,,,,,,,,,,,,,,,,,,,,,,,,,,,,,,,,,,,,,,,,,,,882.6114,942.6137,0,1,1,1,1,sequence_tables/blk009.csv
,,5ff797b72ac13349beac1906,65af54d34abd09284145a158,2024-01-23_05h55.53.446,bars,2023.2.3,Win32,60.24096386,657b66ea316d21385b68909f,,,,,,,,,,,951.306,952.2838,,,952.7835,953.0341,,0,0,,,,,,,,,,,,,,,,bars/041.png,bars/mask001.png,,,,,,,,,,,,1,1,,,,,,,4,2,4,1,,,,,,942.6378,951.2835,space,8.6322,,952.2839,952.7834,953.0342,954.7515,space,1.7001,,954.7516,20,85,955.7509,955.751,955.7529,,,,0,0,0,0,1,20,85,,,,,,,,
,,5ff797b72ac13349beac1906,65af54d34abd09284145a158,2024-01-23_05h55.53.446,bars,2023.2.3,Win32,60.24096386,657b66ea316d21385b68909f,,,,,,,,,,,955.7537,956.7523,,,957.2522,957.5027,,116,116,,,,,,,,,,,,,,,,bars/029.png,bars/mask005.png,,,,,,,,,,,,0,1,,,,,,,2,4,3,3,,,,,,,,,,,956.7524,957.252,957.5029,958.9697,space,1.4439,,958.9699,26,71,959.9697,959.9698,959.9715,,,,0,1,1,1,1,90,45,,,,,,,,
,,5ff797b72ac13349beac1906,65af54d34abd09284145a158,2024-01-23_05h55.53.446,bars,2023.2.3,Win32,60.24096386,657b66ea316d21385b68909f,,,,,,,,,,,959.972,960.9705,,,961.4708,961.7211,,132,132,,,,,,,,,,,,,,,,bars/031.png,bars/mask005.png,,,,,,,,,,,,0,1,,,,,,,0,6,0,6,,,,,,,,,,,960.9706,961.4707,961.7212,964.2216,space,2.4691,,964.2217,12,83,965.2223,965.2223,965.2367,,,,0,2,2,2,1,120,35,,,,,,,,
,,5ff797b72ac13349beac1906,65af54d34abd09284145a158,2024-01-23_05h55.53.446,bars,2023.2.3,Win32,60.24096386,657b66ea316d21385b68909f,,,,,,,,,,,965.2369,966.2392,,,966.7391,966.9898,,166,166,,,,,,,,,,,,,,,,bars/035.png,bars/mask006.png,,,,,,,,,,,,0,1,,,,,,,2,4,0,5,,,,,,,,,,,966.2393,966.7391,966.9899,970.3251,space,3.3122,,970.3253,9,74,971.3244,971.3245,971.3449,,,,0,3,3,3,1,175,60,,,,,,,,
,,5ff797b72ac13349beac1906,65af54d34abd09284145a158,2024-01-23_05h55.53.446,bars,2023.2.3,Win32,60.24096386,657b66ea316d21385b68909f,,,,,,,,,,,971.3451,972.341,,,972.8418,973.0915,,144,144,,,,,,,,,,,,,,,,bars/036.png,bars/mask005.png,,,,,,,,,,,,0,1,,,,,,,0,2,0,3,,,,,,,,,,,972.3411,972.8418,973.0916,974.8927,space,1.7721,,974.8928,1,56,975.8932,975.8933,975.8952,,,,0,4,4,4,1,145,20,,,,,,,,
,,5ff797b72ac13349beac1906,65af54d34abd09284145a158,2024-01-23_05h55.53.446,bars,2023.2.3,Win32,60.24096386,657b66ea316d21385b68909f,,,,,,,,,,,975.8956,976.8929,,,977.3935,977.644,,5,185,,,,,,,,,,,,,,,,bars/005.png,bars/mask008.png,,,,,,,,,,,,0,1,,,,,,,0,4,0,5,,,,,,,,,,,976.8929,977.3935,977.644,981.4336,space,3.7682,,981.4337,5,45,982.4281,982.4281,982.4385,,,,0,5,5,5,1,10,140,,,,,,,,
,,5ff797b72ac13349beac1906,65af54d34abd09284145a158,2024-01-23_05h55.53.446,bars,2023.2.3,Win32,60.24096386,657b66ea316d21385b68909f,,,,,,,,,,,982.4387,983.4289,,,983.9298,984.1793,,160,-20,,,,,,,,,,,,,,,,bars/039.png,bars/mask008.png,,,,,,,,,,,,0,1,,,,,,,0,2,0,1,,,,,,,,,,,983.429,983.9297,984.1793,988.2975,space,4.1081,,988.2977,15,55,989.2978,989.2979,989.3171,,,,0,6,6,6,1,175,105,,,,,,,,
,,5ff797b72ac13349beac1906,65af54d34abd09284145a158,2024-01-23_05h55.53.446,bars,2023.2.3,Win32,60.24096386,657b66ea316d21385b68909f,,,,,,,,,,,989.3173,990.3151,,,990.8153,991.0651,,117,-63,,,,,,,,,,,,,,,,bars/037.png,bars/mask009.png,,,,,,,,,,,,1,2,,,,,,,0,0,1,1,,,,,,,,,,,990.3151,990.8152,991.0651,994.9006,space,3.8033,,994.9006,33,12,995.9002,995.9003,995.9203,,,,0,7,7,7,1,150,105,,,,,,,,
,,5ff797b72ac13349beac1906,65af54d34abd09284145a158,2024-01-23_05h55.53.446,bars,2023.2.3,Win32,60.24096386,657b66ea316d21385b68909f,,,,,,,,,,,995.9204,996.9179,,,997.4182,997.6679,,7,187,,,,,,,,,,,,,,,,bars/049.png,bars/mask001.png,,,,,,,,,,,,0,1,,,,,,,0,2,0,2,,,,,,,,,,,996.918,997.4181,997.6679,999.9858,space,2.2916,,999.9858,27,72,1000.9858,1000.9859,1001.0089,,,,0,8,8,8,1,160,115,,,,,,,,
,,5ff797b72ac13349beac1906,65af54d34abd09284145a158,2024-01-23_05h55.53.446,bars,2023.2.3,Win32,60.24096386,657b66ea316d21385b68909f,,,,,,,,,,,1001.0092,1002.0027,,,1002.4918,1002.7373,,162,-18,,,,,,,,,,,,,,,,bars/011.png,bars/mask003.png,,,,,,,,,,,,1,1,,,,,,,2,0,1,1,,,,,,,,,,,1002.0029,1002.4918,1002.7375,1005.2874,space,2.5337,,1005.2875,2,77,1006.2876,1006.2877,1006.3091,,,,0,9,9,9,1,160,85,,,,,,,,
,,5ff797b72ac13349beac1906,65af54d34abd09284145a158,2024-01-23_05h55.53.446,bars,2023.2.3,Win32,60.24096386,657b66ea316d21385b68909f,,,,,,,,,,,1006.3094,1007.3048,,,1007.8052,1008.0548,,153,153,,,,,,,,,,,,,,,,bars/040.png,bars/mask003.png,,,,,,,,,,,,0,1,,,,,,,0,0,0,0,,,,,,,,,,,1007.3049,1007.805,1008.0549,1009.7564,space,1.6912,,1009.7565,13,32,1010.7561,1010.7563,1010.7581,,,,0,10,10,10,1,140,5,,,,,,,,
,,5ff797b72ac13349beac1906,65af54d34abd09284145a158,2024-01-23_05h55.53.446,bars,2023.2.3,Win32,60.24096386,657b66ea316d21385b68909f,,,,,,,,,,,1010.7585,1011.7618,,,1012.256,1012.5069,,24,24,,,,,,,,,,,,,,,,bars/033.png,bars/mask004.png,,,,,,,,,,,,3,1,,,,,,,2,2,3,3,,,,,,,,,,,1011.7618,1012.256,1012.5069,1014.4803,space,1.967,,1014.4804,1,49,1015.4746,1015.4746,1015.4972,,,,0,11,11,11,1,25,155,,,,,,,,
,,5ff797b72ac13349beac1906,65af54d34abd09284145a158,2024-01-23_05h55.53.446,bars,2023.2.3,Win32,60.24096386,657b66ea316d21385b68909f,,,,,,,,,,,1015.4975,1016.4913,,,1016.992,1017.2411,,49,229,,,,,,,,,,,,,,,,bars/019.png,bars/mask001.png,,,,,,,,,,,,0,1,,,,,,,0,0,0,0,,,,,,,,,,,1016.4914,1016.992,1017.2412,1019.8597,space,2.6089,,1019.8599,4,56,1020.8599,1020.86,1020.8812,,,,0,12,12,12,1,45,105,,,,,,,,
,,5ff797b72ac13349beac1906,65af54d34abd09284145a158,2024-01-23_05h55.53.446,bars,2023.2.3,Win32,60.24096386,657b66ea316d21385b68909f,,,,,,,,,,,1020.8814,1021.8775,,,1022.3776,1022.6274,,59,59,,,,,,,,,,,,,,,,bars/019.png,bars/mask003.png,,,,,,,,,,,,0,1,,,,,,,0,2,0,0,,,,,,,,,,,1021.8776,1022.3775,1022.6274,1024.2799,space,1.6203,,1024.2802,14,46,1025.2788,1025.279,1025.3019,,,,0,13,13,13,1,45,105,,,,,,,,
,,5ff797b72ac13349beac1906,65af54d34abd09284145a158,2024-01-23_05h55.53.446,bars,2023.2.3,Win32,60.24096386,657b66ea316d21385b68909f,,,,,,,,,,,1025.3021,1026.2955,,,1026.7958,1027.0462,,44,44,,,,,,,,,,,,,,,,bars/019.png,bars/mask005.png,,,,,,,,,,,,0,1,,,,,,,0,4,0,4,,,,,,,,,,,1026.2956,1026.7956,1027.0462,1028.3194,space,1.2671,,1028.3194,1,61,1029.3133,1029.3134,1029.3147,,,,0,14,14,14,1,45,105,,,,,,,,
,,5ff797b72ac13349beac1906,65af54d34abd09284145a158,2024-01-23_05h55.53.446,bars,2023.2.3,Win32,60.24096386,657b66ea316d21385b68909f,,,,,,,,,,,1029.3152,1030.3138,,,1030.8019,1031.0472,,34,34,,,,,,,,,,,,,,,,bars/005.png,bars/mask002.png,,,,,,,,,,,,1,1,,,,,,,2,2,3,2,,,,,,,,,,,1030.3139,1030.8019,1031.0473,1033.6867,space,2.6181,,1033.6867,24,74,1034.6812,1034.6812,1034.6892,,,,0,15,15,15,1,10,140,,,,,,,,
,,5ff797b72ac13349beac1906,65af54d34abd09284145a158,2024-01-23_05h55.53.446,bars,2023.2.3,Win32,60.24096386,657b66ea316d21385b68909f,,,,,,,,,,,1034.6893,1035.6825,,,1036.1825,1036.4329,,81,81,,,,,,,,,,,,,,,,bars/022.png,bars/mask007.png,,,,,,,,,,,,0,1,,,,,,,0,0,0,0,,,,,,,,,,,1035.6825,1036.1825,1036.433,1039.0896,space,2.6353,,1039.0896,14,61,1040.084,1040.084,1040.1069,,,,0,16,16,16,1,95,20,,,,,,,,
,,5ff797b72ac13349beac1906,65af54d34abd09284145a158,2024-01-23_05h55.53.446,bars,2023.2.3,Win32,60.24096386,657b66ea316d21385b68909f,,,,,,,,,,,1040.1071,1041.1015,,,1041.6013,1041.8516,,150,-30,,,,,,,,,,,,,,,,bars/042.png,bars/mask003.png,,,,,,,,,,,,0,1,,,,,,,0,2,0,2,,,,,,,,,,,1041.1016,1041.6013,1041.8516,1044.4361,space,2.5742,,1044.4362,5,75,1045.4359,1045.4359,1045.4551,,,,0,17,17,17,1,145,75,,,,,,,,
,,5ff797b72ac13349beac1906,65af54d34abd09284145a158,2024-01-23_05h55.53.446,bars,2023.2.3,Win32,60.24096386,657b66ea316d21385b68909f,,,,,,,,,,,1045.4553,1046.4528,,,1046.9534,1047.2032,,101,-79,,,,,,,,,,,,,,,,bars/008.png,bars/mask007.png,,,,,,,,,,,,0,1,,,,,,,0,4,0,2,,,,,,,,,,,1046.4529,1046.9533,1047.2033,1051.972,space,4.7533,,1051.9721,9,79,1052.9723,1052.9723,1052.9828,,,,0,18,18,18,1,110,0,,,,,,,,
,,5ff797b72ac13349beac1906,65af54d34abd09284145a158,2024-01-23_05h55.53.446,bars,2023.2.3,Win32,60.24096386,657b66ea316d21385b68909f,,,,,,,,,,,1052.983,1053.9733,,,1054.473,1054.7234,,125,125,,,,,,,,,,,,,,,,bars/021.png,bars/mask005.png,,,,,,,,,,,,0,1,,,,,,,2,6,4,8,,,,,,,,,,,1053.9733,1054.4729,1054.7235,1055.3901,space,0.6424,,1055.3902,30,55,1056.3901,1056.3902,1056.3917,,,,0,19,19,19,1,155,70,,,,,,,,
,,5ff797b72ac13349beac1906,65af54d34abd09284145a158,2024-01-23_05h55.53.446,bars,2023.2.3,Win32,60.24096386,657b66ea316d21385b68909f,,,,,,,,,,,1056.3922,1057.3902,,,1057.8904,1058.141,,56,236,,,,,,,,,,,,,,,,bars/048.png,bars/mask009.png,,,,,,,,,,,,0,1,,,,,,,0,4,0,3,,,,,,,,,,,1057.3902,1057.8903,1058.141,1061.4255,space,3.2625,,1061.4256,6,61,1062.4257,1062.4258,1062.4354,,,,0,20,20,20,1,50,175,,,,,,,,
,,5ff797b72ac13349beac1906,65af54d34abd09284145a158,2024-01-23_05h55.53.446,bars,2023.2.3,Win32,60.24096386,657b66ea316d21385b68909f,,,,,,,,,,,1062.4355,1063.426,,,1063.9265,1064.1765,,120,120,,,,,,,,,,,,,,,,bars/040.png,bars/mask006.png,,,,,,,,,,,,1,1,,,,,,,2,6,3,7,,,,,,,,,,,1063.426,1063.9264,1064.1765,1067.8116,space,3.6233,,1067.8117,20,65,1068.8118,1068.8119,1068.8323,,,,0,21,21,21,1,140,5,,,,,,,,
,,5ff797b72ac13349beac1906,65af54d34abd09284145a158,2024-01-23_05h55.53.446,bars,2023.2.3,Win32,60.24096386,657b66ea316d21385b68909f,,,,,,,,,,,1068.8325,1069.8288,,,1070.3291,1070.5792,,162,-18,,,,,,,,,,,,,,,,bars/007.png,bars/mask006.png,,,,,,,,,,,,0,1,,,,,,,0,8,0,9,,,,,,,,,,,1069.8289,1070.329,1070.5793,1075.1649,space,4.5539,,1075.165,13,73,1076.1643,1076.1644,1076.1752,,,,0,22,22,22,1,175,55,,,,,,,,
,,5ff797b72ac13349beac1906,65af54d34abd09284145a158,2024-01-23_05h55.53.446,bars,2023.2.3,Win32,60.24096386,657b66ea316d21385b68909f,,,,,,,,,,,1076.1754,1077.1648,,,1077.6652,1077.915,,31,31,,,,,,,,,,,,,,,,bars/019.png,bars/mask008.png,,,,,,,,,,,,1,1,,,,,,,0,6,1,5,,,,,,,,,,,1077.1648,1077.6651,1077.9151,1080.0497,space,2.1225,,1080.0498,14,74,1081.0495,1081.0497,1081.0711,,,,0,23,23,23,1,45,105,,,,,,,,
,,5ff797b72ac13349beac1906,65af54d34abd09284145a158,2024-01-23_05h55.53.446,bars,2023.2.3,Win32,60.24096386,657b66ea316d21385b68909f,,,,,,,,,,,1081.0713,1082.067,,,1082.5669,1082.817,,103,103,,,,,,,,,,,,,,,,bars/008.png,bars/mask006.png,,,,,,,,,,,,2,1,,,,,,,2,8,2,9,,,,,,,,,,,1082.067,1082.5668,1082.8171,1086.8749,space,4.0359,,1086.8749,7,77,1087.868,1087.8681,1087.8766,,,,0,24,24,24,1,110,0,,,,,,,,
,,5ff797b72ac13349beac1906,65af54d34abd09284145a158,2024-01-23_05h55.53.446,bars,2023.2.3,Win32,60.24096386,657b66ea316d21385b68909f,,,,,,,,,,,1087.8766,1088.874,,,1089.3697,1089.6197,,130,130,,,,,,,,,,,,,,,,bars/040.png,bars/mask003.png,,,,,,,,,,,,1,1,,,,,,,0,10,1,10,,,,,,,,,,,1088.8741,1089.3695,1089.6197,1092.2373,space,2.602,,1092.2374,10,55,1093.2374,1093.2375,1093.2507,,,,0,25,25,25,1,140,5,,,,,,,,
,,5ff797b72ac13349beac1906,65af54d34abd09284145a158,2024-01-23_05h55.53.446,bars,2023.2.3,Win32,60.24096386,657b66ea316d21385b68909f,,,,,,,,,,,1093.2508,1094.255,,,1094.7547,1095.0046,,167,167,,,,,,,,,,,,,,,,bars/035.png,bars/mask000.png,,,,,,,,,,,,2,1,,,,,,,2,8,3,9,,,,,,,,,,,1094.2551,1094.7546,1095.0047,1097.3221,space,2.3111,,1097.3222,8,73,1098.3226,1098.3227,1098.3367,,,,0,26,26,26,1,175,60,,,,,,,,
,,5ff797b72ac13349beac1906,65af54d34abd09284145a158,2024-01-23_05h55.53.446,bars,2023.2.3,Win32,60.24096386,657b66ea316d21385b68909f,,,,,,,,,,,1098.3369,1099.34,,,1099.8403,1100.0902,,104,104,,,,,,,,,,,,,,,,bars/044.png,bars/mask000.png,,,,,,,,,,,,0,1,,,,,,,0,10,0,10,,,,,,,,,,,1099.3401,1099.8403,1100.0902,1101.5077,space,1.4033,,1101.5078,29,51,1102.5078,1102.5078,1102.5094,,,,0,27,27,27,1,75,155,,,,,,,,
,,5ff797b72ac13349beac1906,65af54d34abd09284145a158,2024-01-23_05h55.53.446,bars,2023.2.3,Win32,60.24096386,657b66ea316d21385b68909f,,,,,,,,,,,1102.5097,1103.5086,,,1104.0084,1104.2583,,10,190,,,,,,,,,,,,,,,,bars/041.png,bars/mask000.png,,,,,,,,,,,,0,1,,,,,,,0,10,0,10,,,,,,,,,,,1103.5086,1104.0084,1104.2584,1106.0324,space,1.7678,,1106.0324,10,75,1107.0262,1107.0262,1107.0481,,,,0,28,28,28,1,20,85,,,,,,,,
,,5ff797b72ac13349beac1906,65af54d34abd09284145a158,2024-01-23_05h55.53.446,bars,2023.2.3,Win32,60.24096386,657b66ea316d21385b68909f,,,,,,,,,,,1107.0482,1108.0432,,,1108.5436,1108.7934,,6,186,,,,,,,,,,,,,,,,bars/033.png,bars/mask007.png,,,,,,,,,,,,0,1,,,,,,,0,10,1,10,,,,,,,,,,,1108.0433,1108.5435,1108.7936,1112.684,space,3.8688,,1112.6841,19,31,1113.6841,1113.6841,1113.7042,,,,0,29,29,29,1,25,155,,,,,,,,
,,5ff797b72ac13349beac1906,65af54d34abd09284145a158,2024-01-23_05h55.53.446,bars,2023.2.3,Win32,60.24096386,657b66ea316d21385b68909f,,,,,,,,,,,1113.7045,1114.6959,,,1115.1961,1115.4458,,174,174,,,,,,,,,,,,,,,,bars/049.png,bars/mask008.png,,,,,,,,,,,,1,1,,,,,,,2,8,2,6,,,,,,,,,,,1114.6959,1115.1961,1115.4458,1117.9632,space,2.4898,,1117.9633,14,59,1118.9641,1118.9643,1118.9722,,,,0,30,30,30,1,160,115,,,,,,,,
,,5ff797b72ac13349beac1906,65af54d34abd09284145a158,2024-01-23_05h55.53.446,bars,2023.2.3,Win32,60.24096386,657b66ea316d21385b68909f,,,,,,,,,,,1118.9723,1119.9647,,,1120.4651,1120.7196,,158,158,,,,,,,,,,,,,,,,bars/038.png,bars/mask001.png,,,,,,,,,,,,3,1,,,,,,,4,6,4,7,,,,,,,,,,,1119.9648,1120.4651,1120.7196,1122.9716,space,2.2353,,1122.9717,7,88,1123.9663,1123.9663,1123.9859,,,,0,31,31,31,1,165,70,,,,,,,,
,,5ff797b72ac13349beac1906,65af54d34abd09284145a158,2024-01-23_05h55.53.446,bars,2023.2.3,Win32,60.24096386,657b66ea316d21385b68909f,,,,,,,,,,,1123.9862,1124.9828,,,1125.4838,1125.7382,,124,-56,,,,,,,,,,,,,,,,bars/015.png,bars/mask008.png,,,,,,,,,,,,1,1,,,,,,,2,8,1,10,,,,,,,,,,,1124.9828,1125.4837,1125.7382,1130.0351,space,4.2786,,1130.0352,14,36,1131.0358,1131.0359,1131.0573,,,,0,32,32,32,1,110,160,,,,,,,,
,,5ff797b72ac13349beac1906,65af54d34abd09284145a158,2024-01-23_05h55.53.446,bars,2023.2.3,Win32,60.24096386,657b66ea316d21385b68909f,,,,,,,,,,,1131.0574,1132.0521,,,1132.5528,1132.8028,,148,-32,,,,,,,,,,,,,,,,bars/021.png,bars/mask001.png,,,,,,,,,,,,1,1,,,,,,,0,10,1,8,,,,,,,,,,,1132.0521,1132.5527,1132.8029,1137.9216,space,5.0929,,1137.9217,7,78,1138.9219,1138.922,1138.9445,,,,0,33,33,33,1,155,70,,,,,,,,
,,5ff797b72ac13349beac1906,65af54d34abd09284145a158,2024-01-23_05h55.53.446,bars,2023.2.3,Win32,60.24096386,657b66ea316d21385b68909f,,,,,,,,,,,1138.9447,1139.9385,,,1140.4392,1140.6942,,147,147,,,,,,,,,,,,,,,,bars/017.png,bars/mask006.png,,,,,,,,,,,,2,1,,,,,,,2,8,2,9,,,,,,,,,,,1139.9386,1140.4391,1140.6943,1142.7067,space,1.9862,,1142.7068,2,78,1143.7074,1143.7074,1143.726,,,,0,34,34,34,1,145,45,,,,,,,,
,,5ff797b72ac13349beac1906,65af54d34abd09284145a158,2024-01-23_05h55.53.446,bars,2023.2.3,Win32,60.24096386,657b66ea316d21385b68909f,,,,,,,,,,,1143.7263,1144.7231,,,1145.2245,1145.4742,,146,146,,,,,,,,,,,,,,,,bars/036.png,bars/mask005.png,,,,,,,,,,,,4,1,,,,,,,4,6,4,7,,,,,,,,,,,1144.7231,1145.2244,1145.4743,1147.6315,space,2.1509,,1147.6316,1,54,1148.6254,1148.6254,1148.6276,,,,0,35,35,35,1,145,20,,,,,,,,
,,5ff797b72ac13349beac1906,65af54d34abd09284145a158,2024-01-23_05h55.53.446,bars,2023.2.3,Win32,60.24096386,657b66ea316d21385b68909f,,,,,,,,,,,1148.6281,1149.6268,,,1150.1262,1150.376,,171,171,,,,,,,,,,,,,,,,bars/007.png,bars/mask000.png,,,,,,,,,,,,6,1,,,,,,,6,4,7,2,,,,,,,,,,,1149.6269,1150.1261,1150.3762,1153.1944,space,2.8043,,1153.1944,4,64,1154.1948,1154.1949,1154.2163,,,,0,36,36,36,1,175,55,,,,,,,,
,,5ff797b72ac13349beac1906,65af54d34abd09284145a158,2024-01-23_05h55.53.446,bars,2023.2.3,Win32,60.24096386,657b66ea316d21385b68909f,,,,,,,,,,,1154.2166,1155.2112,,,1155.7118,1155.9617,,145,-35,,,,,,,,,,,,,,,,bars/037.png,bars/mask006.png,,,,,,,,,,,,4,1,,,,,,,4,6,5,6,,,,,,,,,,,1155.2113,1155.7117,1155.9617,1158.8463,space,2.871,,1158.8465,5,40,1159.8466,1159.8467,1159.8679,,,,0,37,37,37,1,150,105,,,,,,,,
,,5ff797b72ac13349beac1906,65af54d34abd09284145a158,2024-01-23_05h55.53.446,bars,2023.2.3,Win32,60.24096386,657b66ea316d21385b68909f,,,,,,,,,,,1159.8682,1160.8634,,,1161.3637,1161.6137,,13,193,,,,,,,,,,,,,,,,bars/023.png,bars/mask007.png,,,,,,,,,,,,2,1,,,,,,,2,8,3,9,,,,,,,,,,,1160.8635,1161.3636,1161.6137,1165.3397,space,3.7042,,1165.3397,7,78,1166.3323,1166.3324,1166.3543,,,,0,38,38,38,1,20,115,,,,,,,,
,,5ff797b72ac13349beac1906,65af54d34abd09284145a158,2024-01-23_05h55.53.446,bars,2023.2.3,Win32,60.24096386,657b66ea316d21385b68909f,,,,,,,,,,,1166.3546,1167.3489,,,1167.8496,1168.0997,,164,164,,,,,,,,,,,,,,,,bars/049.png,bars/mask006.png,,,,,,,,,,,,1,1,,,,,,,0,10,1,10,,,,,,,,,,,1167.349,1167.8496,1168.0998,1169.9222,space,1.8165,,1169.9223,4,49,1170.9167,1170.9167,1170.9188,,,,0,39,39,39,1,160,115,,,,,,,,
,,5ff797b72ac13349beac1906,65af54d34abd09284145a158,2024-01-23_05h55.53.446,bars,2023.2.3,Win32,60.24096386,657b66ea316d21385b68909f,,,,,,,,,,,1170.9191,1171.9177,,,1172.4175,1172.6678,,167,167,,,,,,,,,,,,,,,,bars/046.png,bars/mask008.png,,,,,,,,,,,,1,1,,,,,,,2,10,2,10,,,,,,,,,,,1171.9178,1172.4175,1172.668,1174.3523,space,1.6527,,1174.3523,12,82,1175.3519,1175.352,1175.366,,,,0,40,40,40,1,155,85,,,,,,,,
,,5ff797b72ac13349beac1906,65af54d34abd09284145a158,2024-01-23_05h55.53.446,bars,2023.2.3,Win32,60.24096386,657b66ea316d21385b68909f,,,,,,,,,,,1175.3662,1176.3694,,,1176.87,1177.1197,,45,45,,,,,,,,,,,,,,,,bars/041.png,bars/mask008.png,,,,,,,,,,,,0,1,,,,,,,4,8,3,6,,,,,,,,,,,1176.3694,1176.8699,1177.1198,1181.1773,space,4.0509,,1181.1773,25,40,1182.1717,1182.1717,1182.1904,,,,0,41,41,41,1,20,85,,,,,,,,
,,5ff797b72ac13349beac1906,65af54d34abd09284145a158,2024-01-23_05h55.53.446,bars,2023.2.3,Win32,60.24096386,657b66ea316d21385b68909f,,,,,,,,,,,1182.1905,1183.1889,,,1183.6891,1183.9388,,152,152,,,,,,,,,,,,,,,,bars/038.png,bars/mask006.png,,,,,,,,,,,,3,1,,,,,,,6,10,5,9,,,,,,,,,,,1183.1889,1183.689,1183.9388,1186.6567,space,2.6902,,1186.6569,13,82,1187.6567,1187.6567,1187.6757,,,,0,42,42,42,1,165,70,,,,,,,,
,,5ff797b72ac13349beac1906,65af54d34abd09284145a158,2024-01-23_05h55.53.446,bars,2023.2.3,Win32,60.24096386,657b66ea316d21385b68909f,,,,,,,,,,,1187.676,1188.6743,,,1189.1743,1189.4242,,149,149,,,,,,,,,,,,,,,,bars/023.png,bars/mask005.png,,,,,,,,,,,,0,2,,,,,,,4,10,5,9,,,,,,,,,,,1188.6743,1189.1743,1189.4243,1194.1821,space,4.7359,,1194.1822,51,34,1195.1759,1195.176,1195.1892,,,,0,43,43,43,1,20,115,,,,,,,,
,,5ff797b72ac13349beac1906,65af54d34abd09284145a158,2024-01-23_05h55.53.446,bars,2023.2.3,Win32,60.24096386,657b66ea316d21385b68909f,,,,,,,,,,,1195.1895,1196.1772,,,1196.6654,1196.9107,,59,59,,,,,,,,,,,,,,,,bars/044.png,bars/mask001.png,,,,,,,,,,,,1,1,,,,,,,2,10,3,10,,,,,,,,,,,1196.1773,1196.6654,1196.9108,1200.5952,space,3.6773,,1200.5953,16,84,1201.601,1201.601,1201.6236,,,,0,44,44,44,1,75,155,,,,,,,,
,,5ff797b72ac13349beac1906,65af54d34abd09284145a158,2024-01-23_05h55.53.446,bars,2023.2.3,Win32,60.24096386,657b66ea316d21385b68909f,,,,,,,,,,,1201.6238,1202.6123,,,1203.1126,1203.3626,,156,-24,,,,,,,,,,,,,,,,bars/047.png,bars/mask008.png,,,,,,,,,,,,0,1,,,,,,,0,10,0,10,,,,,,,,,,,1202.6123,1203.1126,1203.3626,1204.9967,space,1.6216,,1204.9967,39,86,1205.9968,1205.9968,1205.9977,,,,0,45,45,45,1,15,70,,,,,,,,
,,5ff797b72ac13349beac1906,65af54d34abd09284145a158,2024-01-23_05h55.53.446,bars,2023.2.3,Win32,60.24096386,657b66ea316d21385b68909f,,,,,,,,,,,1205.9981,1206.9973,,,1207.4977,1207.7477,,24,204,,,,,,,,,,,,,,,,bars/041.png,bars/mask009.png,,,,,,,,,,,,1,1,,,,,,,0,10,1,10,,,,,,,,,,,1206.9974,1207.4977,1207.7477,1211.5827,space,3.8229,,1211.5827,4,61,1212.5828,1212.5828,1212.606,,,,0,46,46,46,1,20,85,,,,,,,,
,,5ff797b72ac13349beac1906,65af54d34abd09284145a158,2024-01-23_05h55.53.446,bars,2023.2.3,Win32,60.24096386,657b66ea316d21385b68909f,,,,,,,,,,,1212.6063,1213.6001,,,1214.0997,1214.3506,,51,51,,,,,,,,,,,,,,,,bars/019.png,bars/mask002.png,,,,,,,,,,,,2,1,,,,,,,0,10,3,10,,,,,,,,,,,1213.6003,1214.0996,1214.3506,1219.3525,space,4.9727,,1219.3526,6,54,1220.3416,1220.3416,1220.3628,,,,0,47,47,47,1,45,105,,,,,,,,
,,5ff797b72ac13349beac1906,65af54d34abd09284145a158,2024-01-23_05h55.53.446,bars,2023.2.3,Win32,60.24096386,657b66ea316d21385b68909f,,,,,,,,,,,1220.363,1221.3528,,,1221.8541,1222.1033,,169,169,,,,,,,,,,,,,,,,bars/007.png,bars/mask007.png,,,,,,,,,,,,0,1,,,,,,,0,10,0,10,,,,,,,,,,,1221.3528,1221.854,1222.1034,1225.1544,space,3.0442,,1225.1546,6,66,1226.1555,1226.1556,1226.1768,,,,0,48,48,48,1,175,55,,,,,,,,
,,5ff797b72ac13349beac1906,65af54d34abd09284145a158,2024-01-23_05h55.53.446,bars,2023.2.3,Win32,60.24096386,657b66ea316d21385b68909f,,,,,,,,,,,1226.177,1227.1725,,,1227.6726,1227.9225,,104,-76,,,,,,,,,,,,,,,,bars/030.png,bars/mask005.png,,,,,,,,,,,,0,1,,,,,,,2,8,1,8,,,,,,,,,,,1227.1725,1227.6725,1227.9225,1232.524,space,4.5939,,1232.5241,36,39,1233.5249,1233.525,1233.5357,,,,0,49,49,49,1,140,65,,,,,,,,
,,5ff797b72ac13349beac1906,65af54d34abd09284145a158,2024-01-23_05h55.53.446,bars,2023.2.3,Win32,60.24096386,657b66ea316d21385b68909f,,,,,,,,,,,,,,,,,,,,,,,,,,,,,,,,,,,,,,,,,,,,,,,,,,,,,,,,,,,,,,,,,,,,,,,,,,,,,,,,,,,,,,,,,,,,,1233.5359,1293.5311,0,2,2,3,1,sequence_tables/blk012.csv
,,5ff797b72ac13349beac1906,65af54d34abd09284145a158,2024-01-23_05h55.53.446,bars,2023.2.3,Win32,60.24096386,657b66ea316d21385b68909f,,,,,,,,,,,1305.2249,1306.2189,,,1306.7197,1306.9692,,113,113,,,,,,,,,,,,,,,,bars/008.png,bars/mask004.png,,,,,,,,,,,,2,1,,,,,,,2,8,2,9,,,,,,1293.5515,1305.2029,space,11.6446,,1306.2191,1306.7196,1306.9693,1309.4202,space,2.4343,,1309.4202,3,67,1310.421,1310.4211,1310.4427,,,,0,0,0,0,1,110,0,,,,,,,,
,,5ff797b72ac13349beac1906,65af54d34abd09284145a158,2024-01-23_05h55.53.446,bars,2023.2.3,Win32,60.24096386,657b66ea316d21385b68909f,,,,,,,,,,,1310.4429,1311.4376,,,1311.938,1312.1881,,128,128,,,,,,,,,,,,,,,,bars/031.png,bars/mask006.png,,,,,,,,,,,,4,1,,,,,,,4,10,5,10,,,,,,,,,,,1311.4377,1311.938,1312.1882,1314.5899,space,2.393,,1314.59,8,87,1315.5892,1315.5892,1315.6096,,,,0,1,1,1,1,120,35,,,,,,,,
,,5ff797b72ac13349beac1906,65af54d34abd09284145a158,2024-01-23_05h55.53.446,bars,2023.2.3,Win32,60.24096386,657b66ea316d21385b68909f,,,,,,,,,,,1315.6098,1316.6067,,,1317.1065,1317.3567,,162,162,,,,,,,,,,,,,,,,bars/011.png,bars/mask003.png,,,,,,,,,,,,7,1,,,,,,,6,8,7,7,,,,,,,,,,,1316.6068,1317.1064,1317.3568,1318.8578,space,1.4694,,1318.858,2,77,1319.8578,1319.8578,1319.8788,,,,0,2,2,2,1,160,85,,,,,,,,
,,5ff797b72ac13349beac1906,65af54d34abd09284145a158,2024-01-23_05h55.53.446,bars,2023.2.3,Win32,60.24096386,657b66ea316d21385b68909f,,,,,,,,,,,1319.879,1320.8745,,,1321.3748,1321.625,,26,26,,,,,,,,,,,,,,,,bars/006.png,bars/mask001.png,,,,,,,,,,,,5,1,,,,,,,8,10,7,9,,,,,,,,,,,1320.8745,1321.3748,1321.6251,1325.1322,space,3.4855,,1325.1322,9,74,1326.1266,1326.1267,1326.1486,,,,0,3,3,3,1,35,100,,,,,,,,
,,5ff797b72ac13349beac1906,65af54d34abd09284145a158,2024-01-23_05h55.53.446,bars,2023.2.3,Win32,60.24096386,657b66ea316d21385b68909f,,,,,,,,,,,1326.1488,1327.1436,,,1327.6439,1327.8941,,22,22,,,,,,,,,,,,,,,,bars/043.png,bars/mask005.png,,,,,,,,,,,,7,1,,,,,,,10,8,10,7,,,,,,,,,,,1327.1436,1327.6439,1327.8942,1330.5342,space,2.6185,,1330.5343,8,72,1331.5284,1331.5285,1331.5479,,,,0,4,4,4,1,30,130,,,,,,,,
,,5ff797b72ac13349beac1906,65af54d34abd09284145a158,2024-01-23_05h55.53.446,bars,2023.2.3,Win32,60.24096386,657b66ea316d21385b68909f,,,,,,,,,,,1331.5482,1332.5456,,,1333.0459,1333.2955,,50,50,,,,,,,,,,,,,,,,bars/019.png,bars/mask006.png,,,,,,,,,,,,8,1,,,,,,,8,6,9,5,,,,,,,,,,,1332.5456,1333.0458,1333.2956,1335.9801,space,2.652,,1335.9803,5,55,1336.9806,1336.9807,1337.0004,,,,0,5,5,5,1,45,105,,,,,,,,
,,5ff797b72ac13349beac1906,65af54d34abd09284145a158,2024-01-23_05h55.53.446,bars,2023.2.3,Win32,60.24096386,657b66ea316d21385b68909f,,,,,,,,,,,1337.0007,1337.9981,,,1338.4983,1338.7481,,153,153,,,,,,,,,,,,,,,,bars/007.png,bars/mask009.png,,,,,,,,,,,,1,1,,,,,,,6,4,5,5,,,,,,,,,,,1337.9983,1338.4983,1338.7481,1340.9157,space,2.1581,,1340.9158,22,82,1341.9152,1341.9153,1341.9231,,,,0,6,6,6,1,175,55,,,,,,,,
,,5ff797b72ac13349beac1906,65af54d34abd09284145a158,2024-01-23_05h55.53.446,bars,2023.2.3,Win32,60.24096386,657b66ea316d21385b68909f,,,,,,,,,,,1341.9232,1342.9165,,,1343.4165,1343.6665,,16,16,,,,,,,,,,,,,,,,bars/006.png,bars/mask006.png,,,,,,,,,,,,3,1,,,,,,,8,2,7,1,,,,,,,,,,,1342.9165,1343.4165,1343.6665,1345.6846,space,2.0072,,1345.6847,19,84,1346.684,1346.684,1346.6854,,,,0,7,7,7,1,35,100,,,,,,,,
,,5ff797b72ac13349beac1906,65af54d34abd09284145a158,2024-01-23_05h55.53.446,bars,2023.2.3,Win32,60.24096386,657b66ea316d21385b68909f,,,,,,,,,,,1346.6859,1347.685,,,1348.1851,1348.435,,160,160,,,,,,,,,,,,,,,,bars/007.png,bars/mask007.png,,,,,,,,,,,,3,1,,,,,,,6,0,6,0,,,,,,,,,,,1347.6851,1348.185,1348.4351,1351.0026,space,2.5598,,1351.0027,15,75,1352.0031,1352.0031,1352.0264,,,,0,8,8,8,1,175,55,,,,,,,,
,,5ff797b72ac13349beac1906,65af54d34abd09284145a158,2024-01-23_05h55.53.446,bars,2023.2.3,Win32,60.24096386,657b66ea316d21385b68909f,,,,,,,,,,,1352.0267,1353.0201,,,1353.5204,1353.7705,,16,16,,,,,,,,,,,,,,,,bars/047.png,bars/mask000.png,,,,,,,,,,,,4,1,,,,,,,4,2,4,0,,,,,,,,,,,1353.0201,1353.5203,1353.7705,1356.6217,space,2.8267,,1356.6218,1,54,1357.6105,1357.6106,1357.6324,,,,0,9,9,9,1,15,70,,,,,,,,
,,5ff797b72ac13349beac1906,65af54d34abd09284145a158,2024-01-23_05h55.53.446,bars,2023.2.3,Win32,60.24096386,657b66ea316d21385b68909f,,,,,,,,,,,1357.6326,1358.622,,,1359.1223,1359.3723,,103,103,,,,,,,,,,,,,,,,bars/032.png,bars/mask009.png,,,,,,,,,,,,1,1,,,,,,,2,4,3,4,,,,,,,,,,,1358.6221,1359.1222,1359.3724,1362.2236,space,2.8353,,1362.2236,22,83,1363.2237,1363.2238,1363.2435,,,,0,10,10,10,1,125,20,,,,,,,,
,,5ff797b72ac13349beac1906,65af54d34abd09284145a158,2024-01-23_05h55.53.446,bars,2023.2.3,Win32,60.24096386,657b66ea316d21385b68909f,,,,,,,,,,,1363.2436,1364.2409,,,1364.741,1364.9912,,125,125,,,,,,,,,,,,,,,,bars/036.png,bars/mask005.png,,,,,,,,,,,,2,1,,,,,,,4,6,5,6,,,,,,,,,,,1364.241,1364.741,1364.9912,1368.8922,space,3.8902,,1368.8922,20,75,1369.8925,1369.8925,1369.8995,,,,0,11,11,11,1,145,20,,,,,,,,
,,5ff797b72ac13349beac1906,65af54d34abd09284145a158,2024-01-23_05h55.53.446,bars,2023.2.3,Win32,60.24096386,657b66ea316d21385b68909f,,,,,,,,,,,1369.8997,1370.8934,,,1371.3936,1371.6436,,106,106,,,,,,,,,,,,,,,,bars/045.png,bars/mask006.png,,,,,,,,,,,,2,1,,,,,,,2,4,3,3,,,,,,,,,,,1370.8934,1371.3935,1371.6437,1374.6282,space,2.9686,,1374.6282,6,84,1375.6288,1375.6289,1375.6516,,,,0,12,12,12,1,100,10,,,,,,,,
,,5ff797b72ac13349beac1906,65af54d34abd09284145a158,2024-01-23_05h55.53.446,bars,2023.2.3,Win32,60.24096386,657b66ea316d21385b68909f,,,,,,,,,,,1375.6518,1376.6456,,,1377.1455,1377.396,,48,48,,,,,,,,,,,,,,,,bars/048.png,bars/mask004.png,,,,,,,,,,,,2,1,,,,,,,4,6,2,5,,,,,,,,,,,1376.6456,1377.1455,1377.396,1378.9465,space,1.5345,,1378.9465,2,53,1379.9467,1379.9467,1379.9683,,,,0,13,13,13,1,50,175,,,,,,,,
,,5ff797b72ac13349beac1906,65af54d34abd09284145a158,2024-01-23_05h55.53.446,bars,2023.2.3,Win32,60.24096386,657b66ea316d21385b68909f,,,,,,,,,,,1379.9685,1380.9638,,,1381.4641,1381.7142,,167,167,,,,,,,,,,,,,,,,bars/039.png,bars/mask001.png,,,,,,,,,,,,1,1,,,,,,,2,8,2,10,,,,,,,,,,,1380.9638,1381.4641,1381.7142,1385.949,space,4.2185,,1385.949,8,62,1386.9496,1386.9496,1386.9721,,,,0,14,14,14,1,175,105,,,,,,,,
,,5ff797b72ac13349beac1906,65af54d34abd09284145a158,2024-01-23_05h55.53.446,bars,2023.2.3,Win32,60.24096386,657b66ea316d21385b68909f,,,,,,,,,,,1386.9723,1387.9659,,,1388.4667,1388.7167,,80,80,,,,,,,,,,,,,,,,bars/013.png,bars/mask004.png,,,,,,,,,,,,0,1,,,,,,,0,6,0,5,,,,,,,,,,,1387.9659,1388.4667,1388.7168,1391.768,space,3.0434,,1391.768,5,70,1392.7682,1392.7683,1392.7902,,,,0,15,15,15,1,75,10,,,,,,,,
,,5ff797b72ac13349beac1906,65af54d34abd09284145a158,2024-01-23_05h55.53.446,bars,2023.2.3,Win32,60.24096386,657b66ea316d21385b68909f,,,,,,,,,,,1392.7905,1393.7849,,,1394.2858,1394.5354,,53,53,,,,,,,,,,,,,,,,bars/033.png,bars/mask007.png,,,,,,,,,,,,0,1,,,,,,,2,4,1,3,,,,,,,,,,,1393.7849,1394.2857,1394.5355,1396.7533,space,2.204,,1396.7534,28,78,1397.7535,1397.7536,1397.7764,,,,0,16,16,16,1,25,155,,,,,,,,
,,5ff797b72ac13349beac1906,65af54d34abd09284145a158,2024-01-23_05h55.53.446,bars,2023.2.3,Win32,60.24096386,657b66ea316d21385b68909f,,,,,,,,,,,1397.7766,1398.7707,,,1399.2709,1399.5213,,106,106,,,,,,,,,,,,,,,,bars/002.png,bars/mask007.png,,,,,,,,,,,,2,2,,,,,,,4,6,3,5,,,,,,,,,,,1398.7707,1399.2707,1399.5214,1402.6057,space,3.0684,,1402.6059,24,21,1403.6058,1403.6059,1403.6288,,,,0,17,17,17,1,130,85,,,,,,,,
,,5ff797b72ac13349beac1906,65af54d34abd09284145a158,2024-01-23_05h55.53.446,bars,2023.2.3,Win32,60.24096386,657b66ea316d21385b68909f,,,,,,,,,,,1403.6292,1404.6229,,,1405.1232,1405.3729,,93,93,,,,,,,,,,,,,,,,bars/008.png,bars/mask009.png,,,,,,,,,,,,1,1,,,,,,,2,4,2,3,,,,,,,,,,,1404.6229,1405.1232,1405.3729,1408.7742,space,3.3881,,1408.7743,17,87,1409.7746,1409.7746,1409.7873,,,,0,18,18,18,1,110,0,,,,,,,,
,,5ff797b72ac13349beac1906,65af54d34abd09284145a158,2024-01-23_05h55.53.446,bars,2023.2.3,Win32,60.24096386,657b66ea316d21385b68909f,,,,,,,,,,,1409.7875,1410.7757,,,1411.2753,1411.5254,,151,151,,,,,,,,,,,,,,,,bars/011.png,bars/mask006.png,,,,,,,,,,,,0,1,,,,,,,0,2,0,1,,,,,,,,,,,1410.7757,1411.2753,1411.5255,1412.3257,space,0.784,,1412.3257,9,66,1413.3262,1413.3262,1413.3481,,,,0,19,19,19,1,160,85,,,,,,,,
,,5ff797b72ac13349beac1906,65af54d34abd09284145a158,2024-01-23_05h55.53.446,bars,2023.2.3,Win32,60.24096386,657b66ea316d21385b68909f,,,,,,,,,,,1413.3483,1414.3433,,,1414.8434,1415.0936,,117,117,,,,,,,,,,,,,,,,bars/027.png,bars/mask002.png,,,,,,,,,,,,1,1,,,,,,,2,0,1,0,,,,,,,,,,,1414.3434,1414.8433,1415.0937,1417.6614,space,2.5567,,1417.6614,7,67,1418.6614,1418.6614,1418.6828,,,,0,20,20,20,1,110,50,,,,,,,,
,,5ff797b72ac13349beac1906,65af54d34abd09284145a158,2024-01-23_05h55.53.446,bars,2023.2.3,Win32,60.24096386,657b66ea316d21385b68909f,,,,,,,,,,,1418.6832,1419.6787,,,1420.1784,1420.4289,,172,-8,,,,,,,,,,,,,,,,bars/042.png,bars/mask009.png,,,,,,,,,,,,0,1,,,,,,,0,2,0,3,,,,,,,,,,,1419.6787,1420.1784,1420.429,1422.5629,space,2.1264,,1422.5631,27,83,1423.5633,1423.5634,1423.5851,,,,0,21,21,21,1,145,75,,,,,,,,
,,5ff797b72ac13349beac1906,65af54d34abd09284145a158,2024-01-23_05h55.53.446,bars,2023.2.3,Win32,60.24096386,657b66ea316d21385b68909f,,,,,,,,,,,1423.5854,1424.5809,,,1425.0807,1425.3308,,109,-71,,,,,,,,,,,,,,,,bars/001.png,bars/mask002.png,,,,,,,,,,,,0,1,,,,,,,0,0,0,2,,,,,,,,,,,1424.5809,1425.0807,1425.3309,1428.1151,space,2.7735,,1428.1152,21,24,1429.1155,1429.1155,1429.1378,,,,0,22,22,22,1,130,85,,,,,,,,
,,5ff797b72ac13349beac1906,65af54d34abd09284145a158,2024-01-23_05h55.53.446,bars,2023.2.3,Win32,60.24096386,657b66ea316d21385b68909f,,,,,,,,,,,1429.138,1430.1327,,,1430.6328,1430.883,,76,-104,,,,,,,,,,,,,,,,bars/014.png,bars/mask001.png,,,,,,,,,,,,2,1,,,,,,,0,0,2,1,,,,,,,,,,,1430.1328,1430.6328,1430.8831,1436.1018,space,5.2113,,1436.1018,4,76,1437.1018,1437.1018,1437.1231,,,,0,23,23,23,1,80,0,,,,,,,,
,,5ff797b72ac13349beac1906,65af54d34abd09284145a158,2024-01-23_05h55.53.446,bars,2023.2.3,Win32,60.24096386,657b66ea316d21385b68909f,,,,,,,,,,,1437.1234,1438.1191,,,1438.6193,1438.8693,,118,118,,,,,,,,,,,,,,,,bars/025.png,bars/mask002.png,,,,,,,,,,,,0,1,,,,,,,0,0,0,2,,,,,,,,,,,1438.1191,1438.6193,1438.8693,1440.5695,space,1.685,,1440.5696,13,78,1441.5699,1441.5699,1441.5789,,,,0,24,24,24,1,105,40,,,,,,,,
,,5ff797b72ac13349beac1906,65af54d34abd09284145a158,2024-01-23_05h55.53.446,bars,2023.2.3,Win32,60.24096386,657b66ea316d21385b68909f,,,,,,,,,,,1441.579,1442.5703,,,1443.0707,1443.321,,73,73,,,,,,,,,,,,,,,,bars/014.png,bars/mask002.png,,,,,,,,,,,,0,1,,,,,,,0,0,0,0,,,,,,,,,,,1442.5704,1443.0707,1443.3211,1446.0221,space,2.6846,,1446.0221,7,73,1447.0224,1447.0225,1447.0438,,,,0,25,25,25,1,80,0,,,,,,,,
,,5ff797b72ac13349beac1906,65af54d34abd09284145a158,2024-01-23_05h55.53.446,bars,2023.2.3,Win32,60.24096386,657b66ea316d21385b68909f,,,,,,,,,,,1447.0441,1448.0393,,,1448.5398,1448.7895,,148,-32,,,,,,,,,,,,,,,,bars/036.png,bars/mask001.png,,,,,,,,,,,,3,1,,,,,,,2,0,3,0,,,,,,,,,,,1448.0394,1448.5397,1448.7896,1452.5077,space,3.702,,1452.5077,3,52,1453.5081,1453.5081,1453.5299,,,,0,26,26,26,1,145,20,,,,,,,,
,,5ff797b72ac13349beac1906,65af54d34abd09284145a158,2024-01-23_05h55.53.446,bars,2023.2.3,Win32,60.24096386,657b66ea316d21385b68909f,,,,,,,,,,,1453.5302,1454.5252,,,1455.0256,1455.2756,,146,146,,,,,,,,,,,,,,,,bars/014.png,bars/mask004.png,,,,,,,,,,,,0,2,,,,,,,4,2,5,1,,,,,,,,,,,1454.5253,1455.0255,1455.2756,1457.1932,space,1.9019,,1457.1933,66,34,1458.1933,1458.1933,1458.2171,,,,0,27,27,27,1,80,0,,,,,,,,
,,5ff797b72ac13349beac1906,65af54d34abd09284145a158,2024-01-23_05h55.53.446,bars,2023.2.3,Win32,60.24096386,657b66ea316d21385b68909f,,,,,,,,,,,1458.2175,1459.2103,,,1459.7107,1459.9605,,1,1,,,,,,,,,,,,,,,,bars/009.png,bars/mask004.png,,,,,,,,,,,,4,1,,,,,,,6,4,7,4,,,,,,,,,,,1459.2104,1459.7107,1459.9605,1463.829,space,3.8532,,1463.829,14,76,1464.8292,1464.8292,1464.853,,,,0,28,28,28,1,15,105,,,,,,,,
,,5ff797b72ac13349beac1906,65af54d34abd09284145a158,2024-01-23_05h55.53.446,bars,2023.2.3,Win32,60.24096386,657b66ea316d21385b68909f,,,,,,,,,,,1464.8533,1465.8461,,,1466.3465,1466.5965,,170,-10,,,,,,,,,,,,,,,,bars/049.png,bars/mask005.png,,,,,,,,,,,,3,1,,,,,,,4,2,4,3,,,,,,,,,,,1465.8462,1466.3465,1466.5965,1470.6151,space,4.0052,,1470.6152,10,55,1471.6151,1471.6151,1471.6374,,,,0,29,29,29,1,160,115,,,,,,,,
,,5ff797b72ac13349beac1906,65af54d34abd09284145a158,2024-01-23_05h55.53.446,bars,2023.2.3,Win32,60.24096386,657b66ea316d21385b68909f,,,,,,,,,,,1471.6376,1472.6321,,,1473.1324,1473.3827,,107,107,,,,,,,,,,,,,,,,bars/015.png,bars/mask002.png,,,,,,,,,,,,7,1,,,,,,,6,0,8,0,,,,,,,,,,,1472.6321,1473.1323,1473.3827,1476.5668,space,3.1762,,1476.567,3,53,1477.5675,1477.5675,1477.5777,,,,0,30,30,30,1,110,160,,,,,,,,
,,5ff797b72ac13349beac1906,65af54d34abd09284145a158,2024-01-23_05h55.53.446,bars,2023.2.3,Win32,60.24096386,657b66ea316d21385b68909f,,,,,,,,,,,1477.5778,1478.5679,,,1479.0678,1479.3177,,147,-33,,,,,,,,,,,,,,,,bars/046.png,bars/mask008.png,,,,,,,,,,,,4,1,,,,,,,4,2,5,3,,,,,,,,,,,1478.5679,1479.0678,1479.3177,1481.8024,space,2.4767,,1481.8024,8,62,1482.8028,1482.8029,1482.8261,,,,0,31,31,31,1,155,85,,,,,,,,
,,5ff797b72ac13349beac1906,65af54d34abd09284145a158,2024-01-23_05h55.53.446,bars,2023.2.3,Win32,60.24096386,657b66ea316d21385b68909f,,,,,,,,,,,1482.8263,1483.8197,,,1484.32,1484.5699,,132,132,,,,,,,,,,,,,,,,bars/017.png,bars/mask000.png,,,,,,,,,,,,1,1,,,,,,,2,4,1,4,,,,,,,,,,,1483.8198,1484.3199,1484.5699,1488.2879,space,3.7032,,1488.288,13,87,1489.2891,1489.2891,1489.3105,,,,0,32,32,32,1,145,45,,,,,,,,
,,5ff797b72ac13349beac1906,65af54d34abd09284145a158,2024-01-23_05h55.53.446,bars,2023.2.3,Win32,60.24096386,657b66ea316d21385b68909f,,,,,,,,,,,1489.3107,1490.3058,,,1490.8057,1491.056,,163,-17,,,,,,,,,,,,,,,,bars/038.png,bars/mask009.png,,,,,,,,,,,,4,1,,,,,,,4,2,4,1,,,,,,,,,,,1490.3059,1490.8057,1491.056,1493.4901,space,2.4229,,1493.4902,2,87,1494.4905,1494.4906,1494.5128,,,,0,33,33,33,1,165,70,,,,,,,,
,,5ff797b72ac13349beac1906,65af54d34abd09284145a158,2024-01-23_05h55.53.446,bars,2023.2.3,Win32,60.24096386,657b66ea316d21385b68909f,,,,,,,,,,,1494.513,1495.5077,,,1496.0074,1496.2574,,41,41,,,,,,,,,,,,,,,,bars/000.png,bars/mask000.png,,,,,,,,,,,,4,1,,,,,,,2,4,4,5,,,,,,,,,,,1495.5077,1496.0072,1496.2575,1498.9593,space,2.6864,,1498.9593,1,76,1499.9592,1499.9593,1499.9818,,,,0,34,34,34,1,40,145,,,,,,,,
,,5ff797b72ac13349beac1906,65af54d34abd09284145a158,2024-01-23_05h55.53.446,bars,2023.2.3,Win32,60.24096386,657b66ea316d21385b68909f,,,,,,,,,,,1499.9821,1500.9763,,,1501.4764,1501.7265,,154,-26,,,,,,,,,,,,,,,,bars/049.png,bars/mask008.png,,,,,,,,,,,,4,1,,,,,,,4,6,5,6,,,,,,,,,,,1500.9764,1501.4764,1501.7265,1504.2278,space,2.4929,,1504.2278,6,39,1505.2279,1505.228,1505.229,,,,0,35,35,35,1,160,115,,,,,,,,
,,5ff797b72ac13349beac1906,65af54d34abd09284145a158,2024-01-23_05h55.53.446,bars,2023.2.3,Win32,60.24096386,657b66ea316d21385b68909f,,,,,,,,,,,1505.2296,1506.2281,,,1506.7282,1506.9785,,117,117,,,,,,,,,,,,,,,,bars/037.png,bars/mask008.png,,,,,,,,,,,,2,2,,,,,,,6,4,6,4,,,,,,,,,,,1506.2281,1506.7282,1506.9786,1509.4292,space,2.4421,,1509.4292,33,12,1510.4299,1510.43,1510.4529,,,,0,36,36,36,1,150,105,,,,,,,,
,,5ff797b72ac13349beac1906,65af54d34abd09284145a158,2024-01-23_05h55.53.446,bars,2023.2.3,Win32,60.24096386,657b66ea316d21385b68909f,,,,,,,,,,,1510.4531,1511.447,,,1511.9466,1512.1974,,100,-80,,,,,,,,,,,,,,,,bars/020.png,bars/mask002.png,,,,,,,,,,,,5,1,,,,,,,8,2,9,2,,,,,,,,,,,1511.447,1511.9466,1512.1974,1516.6492,space,4.4359,,1516.6492,15,70,1517.6493,1517.6493,1517.6726,,,,0,37,37,37,1,115,170,,,,,,,,
,,5ff797b72ac13349beac1906,65af54d34abd09284145a158,2024-01-23_05h55.53.446,bars,2023.2.3,Win32,60.24096386,657b66ea316d21385b68909f,,,,,,,,,,,1517.6727,1518.6663,,,1519.1666,1519.4162,,44,44,,,,,,,,,,,,,,,,bars/016.png,bars/mask009.png,,,,,,,,,,,,6,1,,,,,,,10,4,7,4,,,,,,,,,,,1518.6663,1519.1666,1519.4162,1523.2345,space,3.8081,,1523.2345,4,59,1524.2348,1524.2349,1524.2444,,,,0,38,38,38,1,40,165,,,,,,,,
,,5ff797b72ac13349beac1906,65af54d34abd09284145a158,2024-01-23_05h55.53.446,bars,2023.2.3,Win32,60.24096386,657b66ea316d21385b68909f,,,,,,,,,,,1524.2445,1525.2352,,,1525.7357,1525.986,,113,113,,,,,,,,,,,,,,,,bars/045.png,bars/mask006.png,,,,,,,,,,,,6,1,,,,,,,10,6,10,5,,,,,,,,,,,1525.2352,1525.7357,1525.9861,1526.6863,space,0.6843,,1526.6863,13,77,1527.6864,1527.6864,1527.6876,,,,0,39,39,39,1,100,10,,,,,,,,
,,5ff797b72ac13349beac1906,65af54d34abd09284145a158,2024-01-23_05h55.53.446,bars,2023.2.3,Win32,60.24096386,657b66ea316d21385b68909f,,,,,,,,,,,1527.6881,1528.6867,,,1529.1867,1529.4369,,50,50,,,,,,,,,,,,,,,,bars/016.png,bars/mask000.png,,,,,,,,,,,,7,1,,,,,,,8,4,10,4,,,,,,,,,,,1528.6867,1529.1867,1529.4369,1531.7548,space,2.3025,,1531.7549,10,65,1532.755,1532.7551,1532.7779,,,,0,40,40,40,1,40,165,,,,,,,,
,,5ff797b72ac13349beac1906,65af54d34abd09284145a158,2024-01-23_05h55.53.446,bars,2023.2.3,Win32,60.24096386,657b66ea316d21385b68909f,,,,,,,,,,,1532.7782,1533.7722,,,1534.2724,1534.5224,,0,0,,,,,,,,,,,,,,,,bars/005.png,bars/mask001.png,,,,,,,,,,,,7,1,,,,,,,10,2,10,2,,,,,,,,,,,1533.7722,1534.2723,1534.5224,1538.4409,space,3.9023,,1538.4409,10,40,1539.4406,1539.4406,1539.4499,,,,0,41,41,41,1,10,140,,,,,,,,
,,5ff797b72ac13349beac1906,65af54d34abd09284145a158,2024-01-23_05h55.53.446,bars,2023.2.3,Win32,60.24096386,657b66ea316d21385b68909f,,,,,,,,,,,1539.45,1540.4414,,,1540.942,1541.1918,,55,235,,,,,,,,,,,,,,,,bars/016.png,bars/mask003.png,,,,,,,,,,,,5,1,,,,,,,10,0,10,0,,,,,,,,,,,1540.4414,1540.942,1541.1918,1544.6593,space,3.4514,,1544.6593,15,70,1545.6596,1545.6596,1545.6714,,,,0,42,42,42,1,40,165,,,,,,,,
,,5ff797b72ac13349beac1906,65af54d34abd09284145a158,2024-01-23_05h55.53.446,bars,2023.2.3,Win32,60.24096386,657b66ea316d21385b68909f,,,,,,,,,,,1545.6716,1546.6603,,,1547.1606,1547.4107,,129,129,,,,,,,,,,,,,,,,bars/037.png,bars/mask000.png,,,,,,,,,,,,2,1,,,,,,,8,0,8,1,,,,,,,,,,,1546.6603,1547.1605,1547.4107,1549.1948,space,1.7683,,1549.1949,21,24,1550.195,1550.195,1550.2172,,,,0,43,43,43,1,150,105,,,,,,,,
,,5ff797b72ac13349beac1906,65af54d34abd09284145a158,2024-01-23_05h55.53.446,bars,2023.2.3,Win32,60.24096386,657b66ea316d21385b68909f,,,,,,,,,,,1550.2174,1551.2117,,,1551.7124,1551.9624,,19,19,,,,,,,,,,,,,,,,bars/000.png,bars/mask004.png,,,,,,,,,,,,3,1,,,,,,,10,2,10,0,,,,,,,,,,,1551.2117,1551.7123,1551.9624,1554.2802,space,2.3099,,1554.2803,21,54,1555.2803,1555.2804,1555.2814,,,,0,44,44,44,1,40,145,,,,,,,,
,,5ff797b72ac13349beac1906,65af54d34abd09284145a158,2024-01-23_05h55.53.446,bars,2023.2.3,Win32,60.24096386,657b66ea316d21385b68909f,,,,,,,,,,,1555.282,1556.2806,,,1556.7808,1557.031,,154,154,,,,,,,,,,,,,,,,bars/049.png,bars/mask004.png,,,,,,,,,,,,8,1,,,,,,,10,4,10,4,,,,,,,,,,,1556.2807,1556.7807,1557.031,1559.2988,space,2.2596,,1559.2988,6,39,1560.2989,1560.2989,1560.3216,,,,0,45,45,45,1,160,115,,,,,,,,
,,5ff797b72ac13349beac1906,65af54d34abd09284145a158,2024-01-23_05h55.53.446,bars,2023.2.3,Win32,60.24096386,657b66ea316d21385b68909f,,,,,,,,,,,1560.3218,1561.3157,,,1561.8161,1562.0659,,116,116,,,,,,,,,,,,,,,,bars/030.png,bars/mask000.png,,,,,,,,,,,,2,1,,,,,,,8,6,9,5,,,,,,,,,,,1561.3157,1561.816,1562.0659,1564.0339,space,1.9549,,1564.034,24,51,1565.034,1565.0341,1565.0353,,,,0,46,46,46,1,140,65,,,,,,,,
,,5ff797b72ac13349beac1906,65af54d34abd09284145a158,2024-01-23_05h55.53.446,bars,2023.2.3,Win32,60.24096386,657b66ea316d21385b68909f,,,,,,,,,,,1565.0358,1566.0343,,,1566.5342,1566.7847,,60,60,,,,,,,,,,,,,,,,bars/048.png,bars/mask001.png,,,,,,,,,,,,6,1,,,,,,,10,8,9,8,,,,,,,,,,,1566.0344,1566.5342,1566.7848,1569.3525,space,2.5573,,1569.3525,10,65,1570.3528,1570.3529,1570.3763,,,,0,47,47,47,1,50,175,,,,,,,,
,,5ff797b72ac13349beac1906,65af54d34abd09284145a158,2024-01-23_05h55.53.446,bars,2023.2.3,Win32,60.24096386,657b66ea316d21385b68909f,,,,,,,,,,,1570.3766,1571.3696,,,1571.8701,1572.1204,,113,113,,,,,,,,,,,,,,,,bars/025.png,bars/mask000.png,,,,,,,,,,,,7,1,,,,,,,10,6,10,7,,,,,,,,,,,1571.3696,1571.8701,1572.1205,1574.4874,space,2.3505,,1574.4875,8,73,1575.488,1575.4881,1575.5083,,,,0,48,48,48,1,105,40,,,,,,,,
,,5ff797b72ac13349beac1906,65af54d34abd09284145a158,2024-01-23_05h55.53.446,bars,2023.2.3,Win32,60.24096386,657b66ea316d21385b68909f,,,,,,,,,,,1575.5086,1576.5049,,,1577.0053,1577.255,,155,155,,,,,,,,,,,,,,,,bars/011.png,bars/mask009.png,,,,,,,,,,,,8,1,,,,,,,8,8,9,9,,,,,,,,,,,1576.5049,1577.0053,1577.255,1581.0735,space,3.8029,,1581.0736,5,70,1582.0735,1582.0736,1582.0879,,,,0,49,49,49,1,160,85,,,,,,,,
,,5ff797b72ac13349beac1906,65af54d34abd09284145a158,2024-01-23_05h55.53.446,bars,2023.2.3,Win32,60.24096386,657b66ea316d21385b68909f,,,,,,,,,,,,,,,,,,,,,,,,,,,,,,,,,,,,,,,,,,,,,,,,,,,,,,,,,,,,,,,,,,,,,,,,,,,,,,,,,,,,,,,,,,,,,1582.088,1642.0799,0,3,3,2,1,sequence_tables/blk038.csv
,,5ff797b72ac13349beac1906,65af54d34abd09284145a158,2024-01-23_05h55.53.446,bars,2023.2.3,Win32,60.24096386,657b66ea316d21385b68909f,,,,,,,,,,,1647.5391,1648.5159,,,1649.0162,1649.2662,,113,113,,,,,,,,,,,,,,,,bars/015.png,bars/mask001.png,,,,,,,,,,,,6,1,,,,,,,7,5,7,6,,,,,,1642.0898,1647.5156,space,5.4196,,1648.5159,1649.0161,1649.2662,1653.2175,space,3.9348,,1653.2175,3,47,1654.2177,1654.2177,1654.2297,,,,0,0,0,0,1,110,160,,,,,,,,
,,5ff797b72ac13349beac1906,65af54d34abd09284145a158,2024-01-23_05h55.53.446,bars,2023.2.3,Win32,60.24096386,657b66ea316d21385b68909f,,,,,,,,,,,1654.2299,1655.2181,,,1655.7189,1655.9688,,43,43,,,,,,,,,,,,,,,,bars/000.png,bars/mask009.png,,,,,,,,,,,,9,1,,,,,,,9,3,10,2,,,,,,,,,,,1655.2181,1655.7188,1655.9688,1658.253,space,2.2687,,1658.2531,3,78,1659.2531,1659.2532,1659.2609,,,,0,1,1,1,1,40,145,,,,,,,,
,,5ff797b72ac13349beac1906,65af54d34abd09284145a158,2024-01-23_05h55.53.446,bars,2023.2.3,Win32,60.24096386,657b66ea316d21385b68909f,,,,,,,,,,,1659.2611,1660.2537,,,1660.7539,1661.004,,39,39,,,,,,,,,,,,,,,,bars/043.png,bars/mask003.png,,,,,,,,,,,,4,1,,,,,,,7,1,6,2,,,,,,,,,,,1660.2537,1660.7539,1661.004,1662.955,space,1.9403,,1662.955,9,89,1663.9555,1663.9555,1663.9566,,,,0,2,2,2,1,30,130,,,,,,,,
,,5ff797b72ac13349beac1906,65af54d34abd09284145a158,2024-01-23_05h55.53.446,bars,2023.2.3,Win32,60.24096386,657b66ea316d21385b68909f,,,,,,,,,,,1663.9571,1664.9555,,,1665.4559,1665.7059,,153,-27,,,,,,,,,,,,,,,,bars/042.png,bars/mask001.png,,,,,,,,,,,,4,1,,,,,,,5,3,5,2,,,,,,,,,,,1664.9555,1665.4558,1665.706,1667.3898,space,1.6676,,1667.3898,8,78,1668.3901,1668.3902,1668.4122,,,,0,3,3,3,1,145,75,,,,,,,,
,,5ff797b72ac13349beac1906,65af54d34abd09284145a158,2024-01-23_05h55.53.446,bars,2023.2.3,Win32,60.24096386,657b66ea316d21385b68909f,,,,,,,,,,,1668.4125,1669.4068,,,1669.9075,1670.1576,,171,171,,,,,,,,,,,,,,,,bars/042.png,bars/mask002.png,,,,,,,,,,,,1,1,,,,,,,7,1,6,2,,,,,,,,,,,1669.4069,1669.9074,1670.1577,1674.0427,space,3.8785,,1674.0427,26,84,1675.0428,1675.0429,1675.0659,,,,0,4,4,4,1,145,75,,,,,,,,
,,5ff797b72ac13349beac1906,65af54d34abd09284145a158,2024-01-23_05h55.53.446,bars,2023.2.3,Win32,60.24096386,657b66ea316d21385b68909f,,,,,,,,,,,1675.0661,1676.06,,,1676.5599,1676.8101,,74,74,,,,,,,,,,,,,,,,bars/029.png,bars/mask004.png,,,,,,,,,,,,2,1,,,,,,,5,0,5,0,,,,,,,,,,,1676.0601,1676.5599,1676.8102,1678.7443,space,1.9192,,1678.7444,16,29,1679.7441,1679.7442,1679.7447,,,,0,5,5,5,1,90,45,,,,,,,,
,,5ff797b72ac13349beac1906,65af54d34abd09284145a158,2024-01-23_05h55.53.446,bars,2023.2.3,Win32,60.24096386,657b66ea316d21385b68909f,,,,,,,,,,,1679.745,1680.745,,,1681.2452,1681.4951,,111,111,,,,,,,,,,,,,,,,bars/045.png,bars/mask004.png,,,,,,,,,,,,5,1,,,,,,,7,2,8,3,,,,,,,,,,,1680.745,1681.2452,1681.4951,1684.3463,space,2.8358,,1684.3464,11,79,1685.3467,1685.3467,1685.3681,,,,0,6,6,6,1,100,10,,,,,,,,
,,5ff797b72ac13349beac1906,65af54d34abd09284145a158,2024-01-23_05h55.53.446,bars,2023.2.3,Win32,60.24096386,657b66ea316d21385b68909f,,,,,,,,,,,1685.3683,1686.3637,,,1686.8639,1687.1135,,68,68,,,,,,,,,,,,,,,,bars/044.png,bars/mask000.png,,,,,,,,,,,,8,1,,,,,,,9,0,10,1,,,,,,,,,,,1686.3637,1686.8638,1687.1136,1688.9651,space,1.8363,,1688.9652,7,87,1689.9664,1689.9664,1689.9684,,,,0,7,7,7,1,75,155,,,,,,,,
,,5ff797b72ac13349beac1906,65af54d34abd09284145a158,2024-01-23_05h55.53.446,bars,2023.2.3,Win32,60.24096386,657b66ea316d21385b68909f,,,,,,,,,,,1689.9694,1690.9655,,,1691.4653,1691.7157,,79,79,,,,,,,,,,,,,,,,bars/012.png,bars/mask009.png,,,,,,,,,,,,4,1,,,,,,,7,0,6,0,,,,,,,,,,,1690.9656,1691.4653,1691.7158,1692.6998,space,0.9766,,1692.6999,11,64,1693.6999,1693.6999,1693.701,,,,0,8,8,8,1,90,15,,,,,,,,
,,5ff797b72ac13349beac1906,65af54d34abd09284145a158,2024-01-23_05h55.53.446,bars,2023.2.3,Win32,60.24096386,657b66ea316d21385b68909f,,,,,,,,,,,1693.7015,1694.7003,,,1695.2004,1695.4506,,79,79,,,,,,,,,,,,,,,,bars/029.png,bars/mask004.png,,,,,,,,,,,,3,1,,,,,,,5,2,4,1,,,,,,,,,,,1694.7003,1695.2004,1695.4506,1697.2014,space,1.741,,1697.2014,11,34,1698.2017,1698.2017,1698.2232,,,,0,9,9,9,1,90,45,,,,,,,,
,,5ff797b72ac13349beac1906,65af54d34abd09284145a158,2024-01-23_05h55.53.446,bars,2023.2.3,Win32,60.24096386,657b66ea316d21385b68909f,,,,,,,,,,,1698.2235,1699.2189,,,1699.7188,1699.9685,,134,134,,,,,,,,,,,,,,,,bars/037.png,bars/mask001.png,,,,,,,,,,,,2,1,,,,,,,3,0,4,0,,,,,,,,,,,1699.2189,1699.7188,1699.9685,1702.4536,space,2.4699,,1702.4536,16,29,1703.4537,1703.4537,1703.4764,,,,0,10,10,10,1,150,105,,,,,,,,
,,5ff797b72ac13349beac1906,65af54d34abd09284145a158,2024-01-23_05h55.53.446,bars,2023.2.3,Win32,60.24096386,657b66ea316d21385b68909f,,,,,,,,,,,1703.4766,1704.4706,,,1704.971,1705.221,,20,20,,,,,,,,,,,,,,,,bars/041.png,bars/mask003.png,,,,,,,,,,,,1,1,,,,,,,1,0,1,0,,,,,,,,,,,1704.4706,1704.971,1705.221,1708.5724,space,3.3367,,1708.5724,0,65,1709.5725,1709.5727,1709.5958,,,,0,11,11,11,1,20,85,,,,,,,,
,,5ff797b72ac13349beac1906,65af54d34abd09284145a158,2024-01-23_05h55.53.446,bars,2023.2.3,Win32,60.24096386,657b66ea316d21385b68909f,,,,,,,,,,,1709.596,1710.5896,,,1711.09,1711.3399,,138,138,,,,,,,,,,,,,,,,bars/027.png,bars/mask001.png,,,,,,,,,,,,0,1,,,,,,,3,0,3,0,,,,,,,,,,,1710.5897,1711.0899,1711.34,1711.9736,space,0.6233,,1711.9737,28,88,1712.9739,1712.974,1712.9751,,,,0,12,12,12,1,110,50,,,,,,,,
