init_variables.started,init_variables.stopped,participant,session,date,expName,psychopyVersion,OS,frameRate,study_id,instruction_exp.started,instruction_exp.stopped,key_resp_8.keys,key_resp_8.rt,key_resp_8.duration,instruction_single.started,instruction_single.stopped,key_resp_2.keys,key_resp_2.rt,key_resp_2.duration,interval.started,interval.stopped,cue_single.started,cue_single.stopped,mask.started,mask.stopped,ori_response_single.started,res_ori,res,ori_response_single.stopped,key_resp_single.keys,key_resp_single.rt,key_resp_single.duration,disp_single.started,disp_single.stopped,key_resp.keys,key_resp.rt,key_resp.duration,single.thisRepN,single.thisTrialN,single.thisN,single.thisIndex,single.ran,ori,path,mask_path,instruction_bandit.started,instruction_bandit.stopped,key_resp_6.keys,key_resp_6.rt,key_resp_6.duration,cue_bandit.started,cue_bandit.stopped,bandit_res.keys,bandit_res.rt,bandit_res.duration,outcome_bandit.started,rew,action,outcome_bandit.stopped,bandit.thisRepN,bandit.thisTrialN,bandit.thisN,bandit.thisIndex,bandit.ran,actual_rew1,actual_rew2,rew1,rew2,instruction_task.started,instruction_task.stopped,key_resp_7.keys,key_resp_7.rt,key_resp_7.duration,wait_ready.started,wait_ready.stopped,key_resp_3.keys,key_resp_3.rt,key_resp_3.duration,cue.started,cue.stopped,ori_response.started,ori_response.stopped,key_resp_5.keys,key_resp_5.rt,key_resp_5.duration,outcome.started,diff1,diff2,outcome.stopped,disp_outcome_practice.started,disp_outcome_practice.stopped,key_resp_4.keys,key_resp_4.rt,key_resp_4.duration,trials.thisRepN,trials.thisTrialN,trials.thisN,trials.thisIndex,trials.ran,ori1,ori2,break_blk.started,break_blk.stopped,block.thisRepN,block.thisTrialN,block.thisN,block.thisIndex,block.ran,condition_file
0.0002,0.0002,612e61d2784b1a22530108c2,65af5677be6af047326a98e8,2024-01-23_08h03.27.390,bars,2023.2.3,Win32,60.24096386,657b66ea316d21385b68909f,,,,,,,,,,,,,,,,,,,,,,,,,,,,,,,,,,,,,,,,,,,,,,,,,,,,,,,,,,,,,,,,,,,,,,,,,,,,,,,,,,,,,,,,,,,,,,,,,,,,
,,612e61d2784b1a22530108c2,65af5677be6af047326a98e8,2024-01-23_08h03.27.390,bars,2023.2.3,Win32,60.24096386,657b66ea316d21385b68909f,0.0003,523.4974,y,523.4919,,,,,,,,,,,,,,,,,,,,,,,,,,,,,,,,,,,,,,,,,,,,,,,,,,,,,,,,,,,,,,,,,,,,,,,,,,,,,,,,,,,,,,,,,,,,,,,,
,,612e61d2784b1a22530108c2,65af5677be6af047326a98e8,2024-01-23_08h03.27.390,bars,2023.2.3,Win32,60.24096386,657b66ea316d21385b68909f,,,,,,523.4975,583.2509,space,59.7399,,,,,,,,,,,,,,,,,,,,,,,,,,,,,,,,,,,,,,,,,,,,,,,,,,,,,,,,,,,,,,,,,,,,,,,,,,,,,,,,,,,,,,,,,,,
,,612e61d2784b1a22530108c2,65af5677be6af047326a98e8,2024-01-23_08h03.27.390,bars,2023.2.3,Win32,60.24096386,657b66ea316d21385b68909f,,,,,,,,,,,583.2572,584.2593,584.2593,584.7594,584.7596,585.0008,585.0009,124,124,611.6104,space,26.5799,,611.6105,677.3171,space,65.6832,,0,0,0,4,1,95,bars/single004.png,bars/mask004.png,,,,,,,,,,,,,,,,,,,,,,,,,,,,,,,,,,,,,,,,,,,,,,,,,,,,,,,,,,,,,,,,
,,612e61d2784b1a22530108c2,65af5677be6af047326a98e8,2024-01-23_08h03.27.390,bars,2023.2.3,Win32,60.24096386,657b66ea316d21385b68909f,,,,,,,,,,,677.3214,678.3168,678.3169,678.8168,678.8168,679.0591,679.0591,147,147,724.6835,space,45.6052,,724.6835,747.307,space,22.5978,,0,1,1,2,1,145,bars/single002.png,bars/mask003.png,,,,,,,,,,,,,,,,,,,,,,,,,,,,,,,,,,,,,,,,,,,,,,,,,,,,,,,,,,,,,,,,
,,612e61d2784b1a22530108c2,65af5677be6af047326a98e8,2024-01-23_08h03.27.390,bars,2023.2.3,Win32,60.24096386,657b66ea316d21385b68909f,,,,,,,,,,,747.3121,748.3095,748.3095,748.8085,748.8087,749.0499,749.05,49,49,771.5925,space,22.5169,,771.5925,793.5665,space,21.9504,,0,2,2,8,1,160,bars/single008.png,bars/mask004.png,,,,,,,,,,,,,,,,,,,,,,,,,,,,,,,,,,,,,,,,,,,,,,,,,,,,,,,,,,,,,,,,
,,612e61d2784b1a22530108c2,65af5677be6af047326a98e8,2024-01-23_08h03.27.390,bars,2023.2.3,Win32,60.24096386,657b66ea316d21385b68909f,,,,,,,,,,,793.5705,794.5667,794.5667,795.0664,795.0664,795.3252,795.3252,36,36,821.4092,space,26.0806,,821.4093,840.0662,space,18.6333,,0,3,3,7,1,45,bars/single007.png,bars/mask009.png,,,,,,,,,,,,,,,,,,,,,,,,,,,,,,,,,,,,,,,,,,,,,,,,,,,,,,,,,,,,,,,,
,,612e61d2784b1a22530108c2,65af5677be6af047326a98e8,2024-01-23_08h03.27.390,bars,2023.2.3,Win32,60.24096386,657b66ea316d21385b68909f,,,,,,,,,,,840.0704,841.0663,841.0663,841.5663,841.5664,841.8168,841.8168,4,184,924.2992,space,82.455,,924.2993,931.5925,space,7.2673,,0,4,4,3,1,20,bars/single003.png,bars/mask005.png,,,,,,,,,,,,,,,,,,,,,,,,,,,,,,,,,,,,,,,,,,,,,,,,,,,,,,,,,,,,,,,,
,,612e61d2784b1a22530108c2,65af5677be6af047326a98e8,2024-01-23_08h03.27.390,bars,2023.2.3,Win32,60.24096386,657b66ea316d21385b68909f,,,,,,,,,,,931.5991,932.592,932.592,933.0923,933.0923,933.3325,933.3325,4,4,1013.3326,space,79.9743,,1013.3326,1023.2656,space,9.9003,,0,5,5,1,1,20,bars/single001.png,bars/mask006.png,,,,,,,,,,,,,,,,,,,,,,,,,,,,,,,,,,,,,,,,,,,,,,,,,,,,,,,,,,,,,,,,
,,612e61d2784b1a22530108c2,65af5677be6af047326a98e8,2024-01-23_08h03.27.390,bars,2023.2.3,Win32,60.24096386,657b66ea316d21385b68909f,,,,,,,,,,,1023.2697,1024.2654,1024.2654,1024.7572,1024.7572,1025.0082,1025.0082,42,42,1075.9747,space,50.9629,,1075.9747,1083.2318,space,7.2338,,0,6,6,5,1,55,bars/single005.png,bars/mask008.png,,,,,,,,,,,,,,,,,,,,,,,,,,,,,,,,,,,,,,,,,,,,,,,,,,,,,,,,,,,,,,,,
,,612e61d2784b1a22530108c2,65af5677be6af047326a98e8,2024-01-23_08h03.27.390,bars,2023.2.3,Win32,60.24096386,657b66ea316d21385b68909f,,,,,,,,,,,1083.2358,1084.2244,1084.2244,1084.7152,1084.7152,1084.9578,1084.9578,55,55,1100.408,space,15.4335,,1100.408,1110.2578,space,9.8333,,0,7,7,0,1,150,bars/single000.png,bars/mask006.png,,,,,,,,,,,,,,,,,,,,,,,,,,,,,,,,,,,,,,,,,,,,,,,,,,,,,,,,,,,,,,,,
,,612e61d2784b1a22530108c2,65af5677be6af047326a98e8,2024-01-23_08h03.27.390,bars,2023.2.3,Win32,60.24096386,657b66ea316d21385b68909f,,,,,,,,,,,1110.2619,1111.265,1111.265,1111.765,1111.765,1112.015,1112.015,167,167,1138.1416,space,26.1005,,1138.1416,1153.3148,space,15.1501,,0,8,8,6,1,175,bars/single006.png,bars/mask005.png,,,,,,,,,,,,,,,,,,,,,,,,,,,,,,,,,,,,,,,,,,,,,,,,,,,,,,,,,,,,,,,,
,,612e61d2784b1a22530108c2,65af5677be6af047326a98e8,2024-01-23_08h03.27.390,bars,2023.2.3,Win32,60.24096386,657b66ea316d21385b68909f,,,,,,,,,,,1153.3189,1154.315,1154.315,1154.815,1154.815,1155.0742,1155.0742,117,117,1177.0077,space,21.9302,,1177.0077,1190.5813,space,13.551,,0,9,9,9,1,20,bars/single009.png,bars/mask006.png,,,,,,,,,,,,,,,,,,,,,,,,,,,,,,,,,,,,,,,,,,,,,,,,,,,,,,,,,,,,,,,,
,,612e61d2784b1a22530108c2,65af5677be6af047326a98e8,2024-01-23_08h03.27.390,bars,2023.2.3,Win32,60.24096386,657b66ea316d21385b68909f,,,,,,,,,,,,,,,,,,,,,,,,,,,,,,,,,,,,,1190.5868,1231.0814,space,40.4713,,,,,,,,,,,,,,,,,,,,,,,,,,,,,,,,,,,,,,,,,,,,,,,,,,,,,,,,,,,,
,,612e61d2784b1a22530108c2,65af5677be6af047326a98e8,2024-01-23_08h03.27.390,bars,2023.2.3,Win32,60.24096386,657b66ea316d21385b68909f,,,,,,,,,,,,,,,,,,,,,,,,,,,,,,,,,,,,,,,,,,1231.0828,1236.8905,left,5.7828,,1236.8906,9,1,1237.8813,0,0,0,0,1,9,1,9,2,,,,,,,,,,,,,,,,,,,,,,,,,,,,,,,,,,,,,,,,,
,,612e61d2784b1a22530108c2,65af5677be6af047326a98e8,2024-01-23_08h03.27.390,bars,2023.2.3,Win32,60.24096386,657b66ea316d21385b68909f,,,,,,,,,,,,,,,,,,,,,,,,,,,,,,,,,,,,,,,,,,1237.8816,1243.5907,right,5.6834,,1243.5908,1,2,1244.5811,0,1,1,1,1,10,0,10,1,,,,,,,,,,,,,,,,,,,,,,,,,,,,,,,,,,,,,,,,,
,,612e61d2784b1a22530108c2,65af5677be6af047326a98e8,2024-01-23_08h03.27.390,bars,2023.2.3,Win32,60.24096386,657b66ea316d21385b68909f,,,,,,,,,,,,,,,,,,,,,,,,,,,,,,,,,,,,,,,,,,1244.5812,1245.1644,left,0.5502,,1245.1645,10,1,1246.1644,0,2,2,2,1,10,2,10,2,,,,,,,,,,,,,,,,,,,,,,,,,,,,,,,,,,,,,,,,,
,,612e61d2784b1a22530108c2,65af5677be6af047326a98e8,2024-01-23_08h03.27.390,bars,2023.2.3,Win32,60.24096386,657b66ea316d21385b68909f,,,,,,,,,,,,,,,,,,,,,,,,,,,,,,,,,,,,,,,,,,1246.1645,1246.8148,left,0.624,,1246.8149,7,1,1247.8143,0,3,3,3,1,8,4,7,3,,,,,,,,,,,,,,,,,,,,,,,,,,,,,,,,,,,,,,,,,
,,612e61d2784b1a22530108c2,65af5677be6af047326a98e8,2024-01-23_08h03.27.390,bars,2023.2.3,Win32,60.24096386,657b66ea316d21385b68909f,,,,,,,,,,,,,,,,,,,,,,,,,,,,,,,,,,,,,,,,,,1247.8144,1252.2075,left,4.367,,1252.2075,5,1,1253.1977,0,4,4,4,1,6,2,5,1,,,,,,,,,,,,,,,,,,,,,,,,,,,,,,,,,,,,,,,,,
,,612e61d2784b1a22530108c2,65af5677be6af047326a98e8,2024-01-23_08h03.27.390,bars,2023.2.3,Win32,60.24096386,657b66ea316d21385b68909f,,,,,,,,,,,,,,,,,,,,,,,,,,,,,,,,,,,,,,,,,,1253.2036,1255.398,right,2.1674,,1255.398,4,2,1256.3977,0,5,5,5,1,4,4,4,4,,,,,,,,,,,,,,,,,,,,,,,,,,,,,,,,,,,,,,,,,
,,612e61d2784b1a22530108c2,65af5677be6af047326a98e8,2024-01-23_08h03.27.390,bars,2023.2.3,Win32,60.24096386,657b66ea316d21385b68909f,,,,,,,,,,,,,,,,,,,,,,,,,,,,,,,,,,,,,,,,,,1256.4015,1257.0144,left,0.5839,,1257.0144,1,1,1258.0143,0,6,6,6,1,2,2,1,2,,,,,,,,,,,,,,,,,,,,,,,,,,,,,,,,,,,,,,,,,
,,612e61d2784b1a22530108c2,65af5677be6af047326a98e8,2024-01-23_08h03.27.390,bars,2023.2.3,Win32,60.24096386,657b66ea316d21385b68909f,,,,,,,,,,,,,,,,,,,,,,,,,,,,,,,,,,,,,,,,,,1258.0145,1259.1644,left,1.117,,1259.1644,0,1,1260.1643,0,7,7,7,1,0,0,0,1,,,,,,,,,,,,,,,,,,,,,,,,,,,,,,,,,,,,,,,,,
,,612e61d2784b1a22530108c2,65af5677be6af047326a98e8,2024-01-23_08h03.27.390,bars,2023.2.3,Win32,60.24096386,657b66ea316d21385b68909f,,,,,,,,,,,,,,,,,,,,,,,,,,,,,,,,,,,,,,,,,,1260.1644,1260.7073,left,0.5168,,1260.7074,1,1,1261.6976,0,8,8,8,1,0,2,1,0,,,,,,,,,,,,,,,,,,,,,,,,,,,,,,,,,,,,,,,,,
,,612e61d2784b1a22530108c2,65af5677be6af047326a98e8,2024-01-23_08h03.27.390,bars,2023.2.3,Win32,60.24096386,657b66ea316d21385b68909f,,,,,,,,,,,,,,,,,,,,,,,,,,,,,,,,,,,,,,,,,,1261.6977,1262.3645,right,0.633,,1262.3645,3,2,1263.3643,0,9,9,9,1,2,4,2,3,,,,,,,,,,,,,,,,,,,,,,,,,,,,,,,,,,,,,,,,,
,,612e61d2784b1a22530108c2,65af5677be6af047326a98e8,2024-01-23_08h03.27.390,bars,2023.2.3,Win32,60.24096386,657b66ea316d21385b68909f,,,,,,,,,,,,,,,,,,,,,,,,,,,,,,,,,,,,,,,,,,1263.3645,1264.1645,right,0.7689,,1264.1646,3,2,1265.1578,0,10,10,10,1,0,2,0,3,,,,,,,,,,,,,,,,,,,,,,,,,,,,,,,,,,,,,,,,,
,,612e61d2784b1a22530108c2,65af5677be6af047326a98e8,2024-01-23_08h03.27.390,bars,2023.2.3,Win32,60.24096386,657b66ea316d21385b68909f,,,,,,,,,,,,,,,,,,,,,,,,,,,,,,,,,,,,,,,,,,1265.1581,1265.8414,left,0.6786,,1265.8414,0,1,1266.8311,0,11,11,11,1,0,4,0,3,,,,,,,,,,,,,,,,,,,,,,,,,,,,,,,,,,,,,,,,,
,,612e61d2784b1a22530108c2,65af5677be6af047326a98e8,2024-01-23_08h03.27.390,bars,2023.2.3,Win32,60.24096386,657b66ea316d21385b68909f,,,,,,,,,,,,,,,,,,,,,,,,,,,,,,,,,,,,,,,,,,1266.8313,1267.3565,right,0.4994,,1267.3565,6,2,1268.3479,0,12,12,12,1,2,6,1,6,,,,,,,,,,,,,,,,,,,,,,,,,,,,,,,,,,,,,,,,,
,,612e61d2784b1a22530108c2,65af5677be6af047326a98e8,2024-01-23_08h03.27.390,bars,2023.2.3,Win32,60.24096386,657b66ea316d21385b68909f,,,,,,,,,,,,,,,,,,,,,,,,,,,,,,,,,,,,,,,,,,1268.3481,1269.1575,right,0.7835,,1269.1575,3,2,1270.1491,0,13,13,13,1,0,4,1,3,,,,,,,,,,,,,,,,,,,,,,,,,,,,,,,,,,,,,,,,,
,,612e61d2784b1a22530108c2,65af5677be6af047326a98e8,2024-01-23_08h03.27.390,bars,2023.2.3,Win32,60.24096386,657b66ea316d21385b68909f,,,,,,,,,,,,,,,,,,,,,,,,,,,,,,,,,,,,,,,,,,1270.1494,1270.7976,left,0.617,,1270.7977,2,1,1271.7976,0,14,14,14,1,2,6,2,7,,,,,,,,,,,,,,,,,,,,,,,,,,,,,,,,,,,,,,,,,
,,612e61d2784b1a22530108c2,65af5677be6af047326a98e8,2024-01-23_08h03.27.390,bars,2023.2.3,Win32,60.24096386,657b66ea316d21385b68909f,,,,,,,,,,,,,,,,,,,,,,,,,,,,,,,,,,,,,,,,,,1271.7977,1273.0811,left,1.2548,,1273.0811,3,1,1274.0809,0,15,15,15,1,4,8,3,9,,,,,,,,,,,,,,,,,,,,,,,,,,,,,,,,,,,,,,,,,
,,612e61d2784b1a22530108c2,65af5677be6af047326a98e8,2024-01-23_08h03.27.390,bars,2023.2.3,Win32,60.24096386,657b66ea316d21385b68909f,,,,,,,,,,,,,,,,,,,,,,,,,,,,,,,,,,,,,,,,,,1274.0857,1274.8566,left,0.7495,,1274.8566,7,1,1275.8478,0,16,16,16,1,6,6,7,7,,,,,,,,,,,,,,,,,,,,,,,,,,,,,,,,,,,,,,,,,
,,612e61d2784b1a22530108c2,65af5677be6af047326a98e8,2024-01-23_08h03.27.390,bars,2023.2.3,Win32,60.24096386,657b66ea316d21385b68909f,,,,,,,,,,,,,,,,,,,,,,,,,,,,,,,,,,,,,,,,,,1275.8479,1276.7311,left,0.8668,,1276.7311,9,1,1277.7222,0,17,17,17,1,8,4,9,5,,,,,,,,,,,,,,,,,,,,,,,,,,,,,,,,,,,,,,,,,
,,612e61d2784b1a22530108c2,65af5677be6af047326a98e8,2024-01-23_08h03.27.390,bars,2023.2.3,Win32,60.24096386,657b66ea316d21385b68909f,,,,,,,,,,,,,,,,,,,,,,,,,,,,,,,,,,,,,,,,,,1277.7225,1278.5142,left,0.7668,,1278.5142,5,1,1279.5145,0,18,18,18,1,6,2,5,1,,,,,,,,,,,,,,,,,,,,,,,,,,,,,,,,,,,,,,,,,
,,612e61d2784b1a22530108c2,65af5677be6af047326a98e8,2024-01-23_08h03.27.390,bars,2023.2.3,Win32,60.24096386,657b66ea316d21385b68909f,,,,,,,,,,,,,,,,,,,,,,,,,,,,,,,,,,,,,,,,,,1279.5148,1280.181,right,0.6334,,1280.181,0,2,1281.181,0,19,19,19,1,8,0,7,0,,,,,,,,,,,,,,,,,,,,,,,,,,,,,,,,,,,,,,,,,
,,612e61d2784b1a22530108c2,65af5677be6af047326a98e8,2024-01-23_08h03.27.390,bars,2023.2.3,Win32,60.24096386,657b66ea316d21385b68909f,,,,,,,,,,,,,,,,,,,,,,,,,,,,,,,,,,,,,,,,,,,,,,,,,,,,,,,,,,,,1281.1813,1403.6739,space,122.4662,,,,,,,,,,,,,,,,,,,,,,,,,,,,,,,,,,,,,
,,612e61d2784b1a22530108c2,65af5677be6af047326a98e8,2024-01-23_08h03.27.390,bars,2023.2.3,Win32,60.24096386,657b66ea316d21385b68909f,,,,,,,,,,,1435.1296,1436.1233,,,1436.6137,1436.8734,,19,19,,,,,,,,,,,,,,,,bars/019.png,bars/mask001.png,,,,,,,,,,,,1,1,,,,,,,7,6,8,7,,,,,,1403.6787,1435.1237,space,31.4332,,1436.1233,1436.6137,1436.8735,1526.3235,space,89.433,,1526.3235,26,86,1527.3132,1527.3133,1590.6234,space,63.2824,,0,0,0,0,1,45,105,,,,,,,,
,,612e61d2784b1a22530108c2,65af5677be6af047326a98e8,2024-01-23_08h03.27.390,bars,2023.2.3,Win32,60.24096386,657b66ea316d21385b68909f,,,,,,,,,,,1590.6276,1591.6295,,,1592.1295,1592.3795,,14,14,,,,,,,,,,,,,,,,bars/023.png,bars/mask009.png,,,,,,,,,,,,6,1,,,,,,,5,4,7,3,,,,,,,,,,,1591.6295,1592.1295,1592.3796,1624.5297,space,32.1206,,1624.5297,6,79,1625.5228,1625.5228,1636.0063,space,10.4667,,0,1,1,1,1,20,115,,,,,,,,
,,612e61d2784b1a22530108c2,65af5677be6af047326a98e8,2024-01-23_08h03.27.390,bars,2023.2.3,Win32,60.24096386,657b66ea316d21385b68909f,,,,,,,,,,,1636.0105,1637.0127,,,1637.5063,1637.7566,,144,144,,,,,,,,,,,,,,,,bars/021.png,bars/mask000.png,,,,,,,,,,,,1,1,,,,,,,3,2,2,2,,,,,,,,,,,1637.0127,1637.5063,1637.7567,1688.5729,space,50.7999,,1688.5729,11,74,1689.5639,1689.5639,1736.5291,space,46.9352,,0,2,2,2,1,155,70,,,,,,,,
,,612e61d2784b1a22530108c2,65af5677be6af047326a98e8,2024-01-23_08h03.27.390,bars,2023.2.3,Win32,60.24096386,657b66ea316d21385b68909f,,,,,,,,,,,1736.5332,1737.5289,,,1738.0289,1738.279,,39,39,,,,,,,,,,,,,,,,bars/044.png,bars/mask009.png,,,,,,,,,,,,0,1,,,,,,,1,0,0,0,,,,,,,,,,,1737.529,1738.0289,1738.279,1760.5124,space,22.219,,1760.5125,36,64,1761.5123,1761.5123,1772.7622,space,11.2334,,0,3,3,3,1,75,155,,,,,,,,
,,612e61d2784b1a22530108c2,65af5677be6af047326a98e8,2024-01-23_08h03.27.390,bars,2023.2.3,Win32,60.24096386,657b66ea316d21385b68909f,,,,,,,,,,,1772.7677,1773.762,,,1774.2621,1774.5121,,70,70,,,,,,,,,,,,,,,,bars/046.png,bars/mask000.png,,,,,,,,,,,,0,2,,,,,,,3,0,4,0,,,,,,,,,,,1773.7621,1774.2621,1774.5121,1795.2788,space,20.7542,,1795.2788,85,15,1796.2787,1796.2787,1811.5123,space,15.2192,,0,4,4,4,1,155,85,,,,,,,,
,,612e61d2784b1a22530108c2,65af5677be6af047326a98e8,2024-01-23_08h03.27.390,bars,2023.2.3,Win32,60.24096386,657b66ea316d21385b68909f,,,,,,,,,,,1811.5197,1812.512,,,1813.012,1813.262,,56,56,,,,,,,,,,,,,,,,bars/036.png,bars/mask006.png,,,,,,,,,,,,0,2,,,,,,,1,2,2,1,,,,,,,,,,,1812.5121,1813.012,1813.262,1825.8286,space,12.5555,,1825.8287,89,36,1826.829,1826.8291,1850.112,space,23.2674,,0,5,5,5,1,145,20,,,,,,,,
,,612e61d2784b1a22530108c2,65af5677be6af047326a98e8,2024-01-23_08h03.27.390,bars,2023.2.3,Win32,60.24096386,657b66ea316d21385b68909f,,,,,,,,,,,1850.1189,1851.1117,,,1851.6117,1851.8619,,11,191,,,,,,,,,,,,,,,,bars/038.png,bars/mask008.png,,,,,,,,,,,,0,1,,,,,,,0,4,0,5,,,,,,,,,,,1851.1117,1851.6117,1851.862,1868.5122,space,16.6375,,1868.5122,26,59,1869.512,1869.512,1886.9283,space,17.4011,,0,6,6,6,1,165,70,,,,,,,,
,,612e61d2784b1a22530108c2,65af5677be6af047326a98e8,2024-01-23_08h03.27.390,bars,2023.2.3,Win32,60.24096386,657b66ea316d21385b68909f,,,,,,,,,,,1886.9326,1887.9283,,,1888.4287,1888.6784,,88,88,,,,,,,,,,,,,,,,bars/041.png,bars/mask006.png,,,,,,,,,,,,5,2,,,,,,,2,6,1,5,,,,,,,,,,,1887.9284,1888.4287,1888.6784,1914.0283,space,25.3388,,1914.0283,68,3,1915.0285,1915.0285,1936.1781,space,21.1318,,0,7,7,7,1,20,85,,,,,,,,
,,612e61d2784b1a22530108c2,65af5677be6af047326a98e8,2024-01-23_08h03.27.390,bars,2023.2.3,Win32,60.24096386,657b66ea316d21385b68909f,,,,,,,,,,,1936.1822,1937.178,,,1937.6781,1937.9282,,84,84,,,,,,,,,,,,,,,,bars/041.png,bars/mask006.png,,,,,,,,,,,,2,2,,,,,,,4,4,3,2,,,,,,,,,,,1937.1781,1937.6781,1937.9282,1945.2621,space,7.3167,,1945.2622,64,1,1946.2614,1946.2614,1956.2448,space,9.972,,0,8,8,8,1,20,85,,,,,,,,
,,612e61d2784b1a22530108c2,65af5677be6af047326a98e8,2024-01-23_08h03.27.390,bars,2023.2.3,Win32,60.24096386,657b66ea316d21385b68909f,,,,,,,,,,,1956.249,1957.2447,,,1957.7449,1957.9947,,54,54,,,,,,,,,,,,,,,,bars/043.png,bars/mask006.png,,,,,,,,,,,,0,1,,,,,,,2,2,2,1,,,,,,,,,,,1957.2447,1957.7447,1957.9947,1983.1782,space,25.1669,,1983.1782,24,76,1984.1779,1984.1779,1997.2947,space,13.1005,,0,9,9,9,1,30,130,,,,,,,,
,,612e61d2784b1a22530108c2,65af5677be6af047326a98e8,2024-01-23_08h03.27.390,bars,2023.2.3,Win32,60.24096386,657b66ea316d21385b68909f,,,,,,,,,,,1997.2988,1998.2944,,,1998.7945,1999.0446,,158,158,,,,,,,,,,,,,,,,bars/006.png,bars/mask006.png,,,,,,,,,,,,0,1,,,,,,,0,4,0,3,,,,,,,,,,,1998.2945,1998.7944,1999.0446,2013.9114,space,14.8503,,2013.9114,57,58,2014.911,2014.911,2020.9278,space,6.0011,,0,10,10,10,1,35,100,,,,,,,,
,,612e61d2784b1a22530108c2,65af5677be6af047326a98e8,2024-01-23_08h03.27.390,bars,2023.2.3,Win32,60.24096386,657b66ea316d21385b68909f,,,,,,,,,,,2020.9321,2021.9277,,,2022.428,2022.6777,,25,25,,,,,,,,,,,,,,,,bars/049.png,bars/mask004.png,,,,,,,,,,,,0,1,,,,,,,0,6,1,6,,,,,,,,,,,2021.9278,2022.428,2022.6777,2075.861,space,53.1668,,2075.861,45,90,2076.8619,2076.8619,2179.8439,space,102.9705,,0,11,11,11,1,160,115,,,,,,,,
,,612e61d2784b1a22530108c2,65af5677be6af047326a98e8,2024-01-23_08h03.27.390,bars,2023.2.3,Win32,60.24096386,657b66ea316d21385b68909f,,,,,,,,,,,2179.8491,2180.8439,,,2181.344,2181.5939,,11,11,,,,,,,,,,,,,,,,bars/016.png,bars/mask009.png,,,,,,,,,,,,0,2,,,,,,,0,4,2,3,,,,,,,,,,,2180.844,2181.344,2181.5939,2187.2775,space,5.6702,,2187.2775,29,26,2188.2772,2188.2773,2195.0103,space,6.7147,,0,12,12,12,1,40,165,,,,,,,,
,,612e61d2784b1a22530108c2,65af5677be6af047326a98e8,2024-01-23_08h03.27.390,bars,2023.2.3,Win32,60.24096386,657b66ea316d21385b68909f,,,,,,,,,,,2195.0142,2196.0103,,,2196.5104,2196.7604,,96,96,,,,,,,,,,,,,,,,bars/018.png,bars/mask009.png,,,,,,,,,,,,4,2,,,,,,,0,6,0,5,,,,,,,,,,,2196.0103,2196.5104,2196.7604,2207.6103,space,10.833,,2207.6104,54,6,2208.6101,2208.6101,2212.3443,space,3.718,,0,13,13,13,1,150,90,,,,,,,,
,,612e61d2784b1a22530108c2,65af5677be6af047326a98e8,2024-01-23_08h03.27.390,bars,2023.2.3,Win32,60.24096386,657b66ea316d21385b68909f,,,,,,,,,,,2212.3446,2213.3436,,,2213.8436,2214.0937,,174,-6,,,,,,,,,,,,,,,,bars/048.png,bars/mask007.png,,,,,,,,,,,,8,2,,,,,,,2,8,1,8,,,,,,,,,,,2213.3437,2213.8436,2214.0938,2221.1103,space,7.0002,,2221.1103,56,1,2222.1103,2222.1103,2230.1935,space,8.0666,,0,14,14,14,1,50,175,,,,,,,,
,,612e61d2784b1a22530108c2,65af5677be6af047326a98e8,2024-01-23_08h03.27.390,bars,2023.2.3,Win32,60.24096386,657b66ea316d21385b68909f,,,,,,,,,,,2230.1976,2231.1936,,,2231.6935,2231.9435,,136,136,,,,,,,,,,,,,,,,bars/003.png,bars/mask000.png,,,,,,,,,,,,4,2,,,,,,,0,6,1,5,,,,,,,,,,,2231.1936,2231.6935,2231.9435,2233.7602,space,1.8001,,2233.7602,69,4,2234.76,2234.76,2237.7101,space,2.9336,,0,15,15,15,1,25,140,,,,,,,,
,,612e61d2784b1a22530108c2,65af5677be6af047326a98e8,2024-01-23_08h03.27.390,bars,2023.2.3,Win32,60.24096386,657b66ea316d21385b68909f,,,,,,,,,,,2237.7102,2238.7101,,,2239.2102,2239.4601,,54,54,,,,,,,,,,,,,,,,bars/028.png,bars/mask003.png,,,,,,,,,,,,1,1,,,,,,,0,8,1,9,,,,,,,,,,,2238.7101,2239.2102,2239.4601,2250.0268,space,10.55,,2250.0268,9,66,2251.0276,2251.0276,2256.7934,space,5.7488,,0,16,16,16,1,45,120,,,,,,,,
,,612e61d2784b1a22530108c2,65af5677be6af047326a98e8,2024-01-23_08h03.27.390,bars,2023.2.3,Win32,60.24096386,657b66ea316d21385b68909f,,,,,,,,,,,2256.7973,2257.7935,,,2258.2935,2258.5434,,82,82,,,,,,,,,,,,,,,,bars/028.png,bars/mask006.png,,,,,,,,,,,,0,1,,,,,,,2,10,1,10,,,,,,,,,,,2257.7935,2258.2934,2258.5434,2263.3601,space,4.8003,,2263.3602,37,38,2264.3601,2264.3601,2266.6769,space,2.303,,0,17,17,17,1,45,120,,,,,,,,
,,612e61d2784b1a22530108c2,65af5677be6af047326a98e8,2024-01-23_08h03.27.390,bars,2023.2.3,Win32,60.24096386,657b66ea316d21385b68909f,,,,,,,,,,,2266.677,2267.6769,,,2268.1767,2268.4267,,155,155,,,,,,,,,,,,,,,,bars/014.png,bars/mask006.png,,,,,,,,,,,,1,2,,,,,,,4,10,2,9,,,,,,,,,,,2267.6769,2268.1767,2268.4268,2270.0274,space,1.589,,2270.0274,75,25,2271.0274,2271.0274,2275.9268,space,4.8845,,0,18,18,18,1,80,0,,,,,,,,
,,612e61d2784b1a22530108c2,65af5677be6af047326a98e8,2024-01-23_08h03.27.390,bars,2023.2.3,Win32,60.24096386,657b66ea316d21385b68909f,,,,,,,,,,,2275.9306,2276.9267,,,2277.4266,2277.6767,,78,78,,,,,,,,,,,,,,,,bars/038.png,bars/mask007.png,,,,,,,,,,,,7,2,,,,,,,2,10,3,10,,,,,,,,,,,2276.9267,2277.4266,2277.6767,2281.1267,space,3.4345,,2281.1267,87,8,2282.1267,2282.1267,2284.8768,space,2.7371,,0,19,19,19,1,165,70,,,,,,,,
,,612e61d2784b1a22530108c2,65af5677be6af047326a98e8,2024-01-23_08h03.27.390,bars,2023.2.3,Win32,60.24096386,657b66ea316d21385b68909f,,,,,,,,,,,2284.8771,2285.8766,,,2286.3767,2286.6285,,48,48,,,,,,,,,,,,,,,,bars/025.png,bars/mask008.png,,,,,,,,,,,,6,2,,,,,,,0,8,0,8,,,,,,,,,,,2285.8766,2286.3766,2286.6286,2296.26,space,9.617,,2296.26,57,8,2297.2599,2297.2599,2300.6433,space,3.3669,,0,20,20,20,1,105,40,,,,,,,,
,,612e61d2784b1a22530108c2,65af5677be6af047326a98e8,2024-01-23_08h03.27.390,bars,2023.2.3,Win32,60.24096386,657b66ea316d21385b68909f,,,,,,,,,,,2300.6434,2301.6431,,,2302.1432,2302.3933,,49,49,,,,,,,,,,,,,,,,bars/034.png,bars/mask004.png,,,,,,,,,,,,5,2,,,,,,,0,10,3,10,,,,,,,,,,,2301.6432,2302.1432,2302.3933,2309.0767,space,6.67,,2309.0767,76,16,2310.0764,2310.0764,2312.8099,space,2.717,,0,21,21,21,1,125,65,,,,,,,,
,,612e61d2784b1a22530108c2,65af5677be6af047326a98e8,2024-01-23_08h03.27.390,bars,2023.2.3,Win32,60.24096386,657b66ea316d21385b68909f,,,,,,,,,,,2312.8102,2313.8098,,,2314.3099,2314.5599,,45,45,,,,,,,,,,,,,,,,bars/001.png,bars/mask003.png,,,,,,,,,,,,0,2,,,,,,,2,10,3,9,,,,,,,,,,,2313.8098,2314.3099,2314.5599,2315.7598,space,1.1833,,2315.7598,85,40,2316.7598,2316.7598,2318.7598,space,1.9834,,0,22,22,22,1,130,85,,,,,,,,
,,612e61d2784b1a22530108c2,65af5677be6af047326a98e8,2024-01-23_08h03.27.390,bars,2023.2.3,Win32,60.24096386,657b66ea316d21385b68909f,,,,,,,,,,,2318.7599,2319.7598,,,2320.2598,2320.5097,,100,100,,,,,,,,,,,,,,,,bars/011.png,bars/mask009.png,,,,,,,,,,,,4,2,,,,,,,0,8,0,8,,,,,,,,,,,2319.7598,2320.2597,2320.5097,2326.1105,space,5.5842,,2326.1105,60,15,2327.1101,2327.1102,2329.5097,space,2.3834,,0,23,23,23,1,160,85,,,,,,,,
,,612e61d2784b1a22530108c2,65af5677be6af047326a98e8,2024-01-23_08h03.27.390,bars,2023.2.3,Win32,60.24096386,657b66ea316d21385b68909f,,,,,,,,,,,2329.5099,2330.5098,,,2331.0097,2331.2596,,51,51,,,,,,,,,,,,,,,,bars/022.png,bars/mask007.png,,,,,,,,,,,,0,2,,,,,,,2,10,1,10,,,,,,,,,,,2330.5098,2331.0097,2331.2596,2337.0266,space,5.7504,,2337.0266,44,31,2338.0276,2338.0277,2340.2766,space,2.2309,,0,24,24,24,1,95,20,,,,,,,,
,,612e61d2784b1a22530108c2,65af5677be6af047326a98e8,2024-01-23_08h03.27.390,bars,2023.2.3,Win32,60.24096386,657b66ea316d21385b68909f,,,,,,,,,,,2340.2804,2341.2766,,,2341.7771,2342.0265,,47,47,,,,,,,,,,,,,,,,bars/017.png,bars/mask004.png,,,,,,,,,,,,7,2,,,,,,,4,8,3,8,,,,,,,,,,,2341.2766,2341.777,2342.0265,2343.3448,space,1.3006,,2343.3448,82,2,2344.343,2344.343,2347.1931,space,2.8335,,0,25,25,25,1,145,45,,,,,,,,
,,612e61d2784b1a22530108c2,65af5677be6af047326a98e8,2024-01-23_08h03.27.390,bars,2023.2.3,Win32,60.24096386,657b66ea316d21385b68909f,,,,,,,,,,,2347.1932,2348.193,,,2348.693,2348.9429,,156,156,,,,,,,,,,,,,,,,bars/037.png,bars/mask000.png,,,,,,,,,,,,5,1,,,,,,,6,10,6,9,,,,,,,,,,,2348.193,2348.693,2348.9429,2355.7097,space,6.7515,,2355.7097,6,51,2356.7098,2356.7099,2362.0763,space,5.3482,,0,26,26,26,1,150,105,,,,,,,,
,,612e61d2784b1a22530108c2,65af5677be6af047326a98e8,2024-01-23_08h03.27.390,bars,2023.2.3,Win32,60.24096386,657b66ea316d21385b68909f,,,,,,,,,,,2362.0802,2363.0762,,,2363.5762,2363.8262,,160,160,,,,,,,,,,,,,,,,bars/021.png,bars/mask008.png,,,,,,,,,,,,4,1,,,,,,,4,10,5,10,,,,,,,,,,,2363.0762,2363.5761,2363.8262,2368.1764,space,4.3339,,2368.1765,5,90,2369.1763,2369.1763,2374.2097,space,5.0168,,0,27,27,27,1,155,70,,,,,,,,
,,612e61d2784b1a22530108c2,65af5677be6af047326a98e8,2024-01-23_08h03.27.390,bars,2023.2.3,Win32,60.24096386,657b66ea316d21385b68909f,,,,,,,,,,,2374.2165,2375.2094,,,2375.7097,2375.9595,,9,189,,,,,,,,,,,,,,,,bars/044.png,bars/mask003.png,,,,,,,,,,,,0,2,,,,,,,6,10,7,10,,,,,,,,,,,2375.2095,2375.7097,2375.9595,2380.8262,space,4.8548,,2380.8262,66,34,2381.8263,2381.8263,2384.9096,space,3.0662,,0,28,28,28,1,75,155,,,,,,,,
,,612e61d2784b1a22530108c2,65af5677be6af047326a98e8,2024-01-23_08h03.27.390,bars,2023.2.3,Win32,60.24096386,657b66ea316d21385b68909f,,,,,,,,,,,2384.9173,2385.9097,,,2386.4096,2386.6597,,74,74,,,,,,,,,,,,,,,,bars/036.png,bars/mask007.png,,,,,,,,,,,,0,2,,,,,,,4,10,4,9,,,,,,,,,,,2385.9097,2386.4095,2386.6597,2391.7765,space,5.1,,2391.7765,71,54,2392.7763,2392.7763,2394.8429,space,2.0493,,0,29,29,29,1,145,20,,,,,,,,
,,612e61d2784b1a22530108c2,65af5677be6af047326a98e8,2024-01-23_08h03.27.390,bars,2023.2.3,Win32,60.24096386,657b66ea316d21385b68909f,,,,,,,,,,,2394.8432,2395.8427,,,2396.3427,2396.5928,,147,147,,,,,,,,,,,,,,,,bars/034.png,bars/mask008.png,,,,,,,,,,,,2,1,,,,,,,6,8,6,8,,,,,,,,,,,2395.8427,2396.3427,2396.5928,2399.476,space,2.8695,,2399.476,22,82,2400.4762,2400.4762,2402.1095,space,1.6182,,0,30,30,30,1,125,65,,,,,,,,
,,612e61d2784b1a22530108c2,65af5677be6af047326a98e8,2024-01-23_08h03.27.390,bars,2023.2.3,Win32,60.24096386,657b66ea316d21385b68909f,,,,,,,,,,,2402.1096,2403.1094,,,2403.6095,2403.8594,,47,47,,,,,,,,,,,,,,,,bars/049.png,bars/mask003.png,,,,,,,,,,,,0,1,,,,,,,4,6,5,6,,,,,,,,,,,2403.1094,2403.6094,2403.8594,2405.6927,space,1.817,,2405.6928,67,68,2406.6928,2406.6928,2408.3597,space,1.6503,,0,31,31,31,1,160,115,,,,,,,,
,,612e61d2784b1a22530108c2,65af5677be6af047326a98e8,2024-01-23_08h03.27.390,bars,2023.2.3,Win32,60.24096386,657b66ea316d21385b68909f,,,,,,,,,,,2408.3599,2409.3594,,,2409.8594,2410.1094,,37,37,,,,,,,,,,,,,,,,bars/031.png,bars/mask008.png,,,,,,,,,,,,6,2,,,,,,,2,8,1,6,,,,,,,,,,,2409.3594,2409.8594,2410.1094,2411.1428,space,1.0179,,2411.1428,83,2,2412.143,2412.143,2413.3094,space,1.1501,,0,32,32,32,1,120,35,,,,,,,,
,,612e61d2784b1a22530108c2,65af5677be6af047326a98e8,2024-01-23_08h03.27.390,bars,2023.2.3,Win32,60.24096386,657b66ea316d21385b68909f,,,,,,,,,,,2413.3097,2414.3095,,,2414.8097,2415.0594,,106,106,,,,,,,,,,,,,,,,bars/023.png,bars/mask005.png,,,,,,,,,,,,4,2,,,,,,,0,6,0,6,,,,,,,,,,,2414.3095,2414.8096,2415.0594,2421.1762,space,6.1001,,2421.1762,86,9,2422.176,2422.176,2424.2927,space,2.1021,,0,33,33,33,1,20,115,,,,,,,,
,,612e61d2784b1a22530108c2,65af5677be6af047326a98e8,2024-01-23_08h03.27.390,bars,2023.2.3,Win32,60.24096386,657b66ea316d21385b68909f,,,,,,,,,,,2424.2928,2425.2929,,,2425.7927,2426.0426,,50,230,,,,,,,,,,,,,,,,bars/029.png,bars/mask001.png,,,,,,,,,,,,8,2,,,,,,,2,8,3,9,,,,,,,,,,,2425.2929,2425.7927,2426.0426,2432.2928,space,6.2354,,2432.2928,40,5,2433.2926,2433.2926,2435.776,space,2.4672,,0,34,34,34,1,90,45,,,,,,,,
,,612e61d2784b1a22530108c2,65af5677be6af047326a98e8,2024-01-23_08h03.27.390,bars,2023.2.3,Win32,60.24096386,657b66ea316d21385b68909f,,,,,,,,,,,2435.7762,2436.7762,,,2437.276,2437.5259,,37,37,,,,,,,,,,,,,,,,bars/010.png,bars/mask008.png,,,,,,,,,,,,4,2,,,,,,,0,10,0,9,,,,,,,,,,,2436.7762,2437.2759,2437.5259,2442.3928,space,4.8502,,2442.3928,52,18,2443.3927,2443.3927,2445.1593,space,1.7502,,0,35,35,35,1,165,55,,,,,,,,
,,612e61d2784b1a22530108c2,65af5677be6af047326a98e8,2024-01-23_08h03.27.390,bars,2023.2.3,Win32,60.24096386,657b66ea316d21385b68909f,,,,,,,,,,,2445.1596,2446.1592,,,2446.6592,2446.9093,,132,132,,,,,,,,,,,,,,,,bars/000.png,bars/mask006.png,,,,,,,,,,,,5,2,,,,,,,0,8,0,9,,,,,,,,,,,2446.1592,2446.6592,2446.9093,2451.2595,space,4.3336,,2451.2595,88,13,2452.2602,2452.2602,2453.7262,space,1.4497,,0,36,36,36,1,40,145,,,,,,,,
,,612e61d2784b1a22530108c2,65af5677be6af047326a98e8,2024-01-23_08h03.27.390,bars,2023.2.3,Win32,60.24096386,657b66ea316d21385b68909f,,,,,,,,,,,2453.7262,2454.7259,,,2455.2259,2455.476,,33,33,,,,,,,,,,,,,,,,bars/011.png,bars/mask005.png,,,,,,,,,,,,0,2,,,,,,,2,6,3,6,,,,,,,,,,,2454.7259,2455.2259,2455.476,2463.0427,space,7.5503,,2463.0427,53,52,2464.0426,2464.0426,2466.9591,space,2.8997,,0,37,37,37,1,160,85,,,,,,,,
,,612e61d2784b1a22530108c2,65af5677be6af047326a98e8,2024-01-23_08h03.27.390,bars,2023.2.3,Win32,60.24096386,657b66ea316d21385b68909f,,,,,,,,,,,2466.9594,2467.9591,,,2468.4594,2468.7092,,172,172,,,,,,,,,,,,,,,,bars/040.png,bars/mask004.png,,,,,,,,,,,,4,2,,,,,,,4,8,4,7,,,,,,,,,,,2467.9591,2468.4594,2468.7093,2472.5761,space,3.8506,,2472.5761,32,13,2473.5765,2473.5765,2476.1426,space,2.5505,,0,38,38,38,1,140,5,,,,,,,,
,,612e61d2784b1a22530108c2,65af5677be6af047326a98e8,2024-01-23_08h03.27.390,bars,2023.2.3,Win32,60.24096386,657b66ea316d21385b68909f,,,,,,,,,,,2476.1483,2477.1429,,,2477.643,2477.8923,,120,120,,,,,,,,,,,,,,,,bars/004.png,bars/mask005.png,,,,,,,,,,,,5,2,,,,,,,2,6,1,6,,,,,,,,,,,2477.1429,2477.6429,2477.8924,2483.8759,space,5.9666,,2483.8759,85,5,2484.8759,2484.8759,2487.2424,space,2.3538,,0,39,39,39,1,25,125,,,,,,,,
,,612e61d2784b1a22530108c2,65af5677be6af047326a98e8,2024-01-23_08h03.27.390,bars,2023.2.3,Win32,60.24096386,657b66ea316d21385b68909f,,,,,,,,,,,2487.2426,2488.2423,,,2488.7425,2488.9924,,109,109,,,,,,,,,,,,,,,,bars/023.png,bars/mask006.png,,,,,,,,,,,,2,2,,,,,,,0,4,0,3,,,,,,,,,,,2488.2423,2488.7424,2488.9924,2490.076,space,1.0697,,2490.076,89,6,2491.0758,2491.0758,2492.3095,space,1.2181,,0,40,40,40,1,20,115,,,,,,,,
,,612e61d2784b1a22530108c2,65af5677be6af047326a98e8,2024-01-23_08h03.27.390,bars,2023.2.3,Win32,60.24096386,657b66ea316d21385b68909f,,,,,,,,,,,2492.3097,2493.3091,,,2493.809,2494.0589,,120,120,,,,,,,,,,,,,,,,bars/011.png,bars/mask000.png,,,,,,,,,,,,0,2,,,,,,,2,6,1,5,,,,,,,,,,,2493.3091,2493.809,2494.059,2495.4925,space,1.4188,,2495.4925,40,35,2496.4923,2496.4923,2498.8757,space,2.3693,,0,41,41,41,1,160,85,,,,,,,,
,,612e61d2784b1a22530108c2,65af5677be6af047326a98e8,2024-01-23_08h03.27.390,bars,2023.2.3,Win32,60.24096386,657b66ea316d21385b68909f,,,,,,,,,,,2498.8758,2499.8757,,,2500.3757,2500.6256,,137,137,,,,,,,,,,,,,,,,bars/003.png,bars/mask008.png,,,,,,,,,,,,6,2,,,,,,,4,8,4,7,,,,,,,,,,,2499.8757,2500.3757,2500.6256,2506.4593,space,5.8202,,2506.4593,68,3,2507.4589,2507.4589,2508.7589,space,1.2834,,0,42,42,42,1,25,140,,,,,,,,
,,612e61d2784b1a22530108c2,65af5677be6af047326a98e8,2024-01-23_08h03.27.390,bars,2023.2.3,Win32,60.24096386,657b66ea316d21385b68909f,,,,,,,,,,,2508.7591,2509.7597,,,2510.2592,2510.5089,,112,112,,,,,,,,,,,,,,,,bars/006.png,bars/mask001.png,,,,,,,,,,,,3,2,,,,,,,2,6,3,5,,,,,,,,,,,2509.7598,2510.2592,2510.5089,2514.5924,space,4.0669,,2514.5924,77,12,2515.5923,2515.5923,2517.9757,space,2.367,,0,43,43,43,1,35,100,,,,,,,,
,,612e61d2784b1a22530108c2,65af5677be6af047326a98e8,2024-01-23_08h03.27.390,bars,2023.2.3,Win32,60.24096386,657b66ea316d21385b68909f,,,,,,,,,,,2517.9759,2518.9754,,,2519.4756,2519.7255,,125,125,,,,,,,,,,,,,,,,bars/044.png,bars/mask000.png,,,,,,,,,,,,0,2,,,,,,,4,8,6,9,,,,,,,,,,,2518.9755,2519.4756,2519.7255,2520.7923,space,1.0501,,2520.7923,50,30,2521.7922,2521.7922,2523.2256,space,1.4215,,0,44,44,44,1,75,155,,,,,,,,
,,612e61d2784b1a22530108c2,65af5677be6af047326a98e8,2024-01-23_08h03.27.390,bars,2023.2.3,Win32,60.24096386,657b66ea316d21385b68909f,,,,,,,,,,,2523.2258,2524.2275,,,2524.726,2524.9758,,41,41,,,,,,,,,,,,,,,,bars/021.png,bars/mask006.png,,,,,,,,,,,,0,2,,,,,,,2,6,1,6,,,,,,,,,,,2524.2275,2524.726,2524.9758,2530.709,space,5.718,,2530.709,66,29,2531.7094,2531.7094,2534.1255,space,2.4002,,0,45,45,45,1,155,70,,,,,,,,
,,612e61d2784b1a22530108c2,65af5677be6af047326a98e8,2024-01-23_08h03.27.390,bars,2023.2.3,Win32,60.24096386,657b66ea316d21385b68909f,,,,,,,,,,,2534.1256,2535.1256,,,2535.6255,2535.8756,,54,54,,,,,,,,,,,,,,,,bars/026.png,bars/mask002.png,,,,,,,,,,,,1,1,,,,,,,4,8,4,7,,,,,,,,,,,2535.1256,2535.6255,2535.8756,2541.2256,space,5.3381,,2541.2256,19,31,2542.2256,2542.2256,2544.1589,space,1.9168,,0,46,46,46,1,35,85,,,,,,,,
,,612e61d2784b1a22530108c2,65af5677be6af047326a98e8,2024-01-23_08h03.27.390,bars,2023.2.3,Win32,60.24096386,657b66ea316d21385b68909f,,,,,,,,,,,2544.1591,2545.1589,,,2545.6589,2545.9088,,52,52,,,,,,,,,,,,,,,,bars/011.png,bars/mask006.png,,,,,,,,,,,,0,2,,,,,,,6,6,7,5,,,,,,,,,,,2545.1589,2545.6588,2545.9088,2550.3921,space,4.4668,,2550.3922,72,33,2551.3921,2551.3921,2554.3421,space,2.9335,,0,47,47,47,1,160,85,,,,,,,,
,,612e61d2784b1a22530108c2,65af5677be6af047326a98e8,2024-01-23_08h03.27.390,bars,2023.2.3,Win32,60.24096386,657b66ea316d21385b68909f,,,,,,,,,,,2554.3459,2555.342,,,2555.8421,2556.0921,,75,75,,,,,,,,,,,,,,,,bars/009.png,bars/mask006.png,,,,,,,,,,,,0,2,,,,,,,8,8,7,10,,,,,,,,,,,2555.342,2555.8421,2556.0922,2557.2923,space,1.1837,,2557.2923,60,30,2558.2922,2558.2922,2559.442,space,1.1364,,0,48,48,48,1,15,105,,,,,,,,
,,612e61d2784b1a22530108c2,65af5677be6af047326a98e8,2024-01-23_08h03.27.390,bars,2023.2.3,Win32,60.24096386,657b66ea316d21385b68909f,,,,,,,,,,,2559.4422,2560.4424,,,2560.9424,2561.1924,,29,209,,,,,,,,,,,,,,,,bars/022.png,bars/mask006.png,,,,,,,,,,,,4,2,,,,,,,10,6,10,6,,,,,,,,,,,2560.4424,2560.9424,2561.1925,2565.2754,space,4.0695,,2565.2754,66,9,2566.2756,2566.2756,2568.0422,space,1.7503,,0,49,49,49,1,95,20,,,,,,,,
,,612e61d2784b1a22530108c2,65af5677be6af047326a98e8,2024-01-23_08h03.27.390,bars,2023.2.3,Win32,60.24096386,657b66ea316d21385b68909f,,,,,,,,,,,,,,,,,,,,,,,,,,,,,,,,,,,,,,,,,,,,,,,,,,,,,,,,,,,,,,,,,,,,,,,,,,,,,,,,,,,,,,,,,,,,,2568.0425,2628.0423,0,0,0,0,1,sequence_tables/blk049.csv
,,612e61d2784b1a22530108c2,65af5677be6af047326a98e8,2024-01-23_08h03.27.390,bars,2023.2.3,Win32,60.24096386,657b66ea316d21385b68909f,,,,,,,,,,,2634.2806,2635.2752,,,2635.7752,2636.0252,,25,25,,,,,,,,,,,,,,,,bars/047.png,bars/mask000.png,,,,,,,,,,,,3,1,,,,,,,5,5,5,6,,,,,,2628.0502,2634.2751,space,6.2183,,2635.2752,2635.7751,2636.0252,2642.6918,space,6.6519,,2642.6919,10,45,2643.6919,2643.6919,2643.6978,,,,0,0,0,0,1,15,70,,,,,,,,
,,612e61d2784b1a22530108c2,65af5677be6af047326a98e8,2024-01-23_08h03.27.390,bars,2023.2.3,Win32,60.24096386,657b66ea316d21385b68909f,,,,,,,,,,,2643.6979,2644.6918,,,2645.1919,2645.4417,,179,-1,,,,,,,,,,,,,,,,bars/008.png,bars/mask006.png,,,,,,,,,,,,3,2,,,,,,,3,3,1,3,,,,,,,,,,,2644.6918,2645.1919,2645.4417,2652.6084,space,7.1551,,2652.6084,69,1,2653.6083,2653.6083,2653.6139,,,,0,1,1,1,1,110,0,,,,,,,,
,,612e61d2784b1a22530108c2,65af5677be6af047326a98e8,2024-01-23_08h03.27.390,bars,2023.2.3,Win32,60.24096386,657b66ea316d21385b68909f,,,,,,,,,,,2653.6139,2654.6085,,,2655.1083,2655.3583,,49,49,,,,,,,,,,,,,,,,bars/034.png,bars/mask007.png,,,,,,,,,,,,3,2,,,,,,,1,5,2,7,,,,,,,,,,,2654.6085,2655.1082,2655.3583,2661.7083,space,6.3337,,2661.7083,76,16,2662.7083,2662.7083,2662.7125,,,,0,2,2,2,1,125,65,,,,,,,,
,,612e61d2784b1a22530108c2,65af5677be6af047326a98e8,2024-01-23_08h03.27.390,bars,2023.2.3,Win32,60.24096386,657b66ea316d21385b68909f,,,,,,,,,,,2662.7126,2663.7082,,,2664.2083,2664.4583,,131,131,,,,,,,,,,,,,,,,bars/000.png,bars/mask008.png,,,,,,,,,,,,5,2,,,,,,,0,7,0,9,,,,,,,,,,,2663.7082,2664.2083,2664.4583,2670.2084,space,5.734,,2670.2084,89,14,2671.2082,2671.2082,2671.2124,,,,0,3,3,3,1,40,145,,,,,,,,
,,612e61d2784b1a22530108c2,65af5677be6af047326a98e8,2024-01-23_08h03.27.390,bars,2023.2.3,Win32,60.24096386,657b66ea316d21385b68909f,,,,,,,,,,,2671.2125,2672.2085,,,2672.7083,2672.9584,,57,57,,,,,,,,,,,,,,,,bars/041.png,bars/mask005.png,,,,,,,,,,,,0,2,,,,,,,0,5,2,4,,,,,,,,,,,2672.2085,2672.7083,2672.9585,2678.0917,space,5.119,,2678.0917,37,28,2679.0915,2679.0915,2679.0955,,,,0,4,4,4,1,20,85,,,,,,,,
,,612e61d2784b1a22530108c2,65af5677be6af047326a98e8,2024-01-23_08h03.27.390,bars,2023.2.3,Win32,60.24096386,657b66ea316d21385b68909f,,,,,,,,,,,2679.0956,2680.0916,,,2680.5917,2680.8419,,34,34,,,,,,,,,,,,,,,,bars/022.png,bars/mask006.png,,,,,,,,,,,,4,2,,,,,,,2,7,3,8,,,,,,,,,,,2680.0916,2680.5917,2680.8419,2683.4583,space,2.6003,,2683.4583,61,14,2684.4583,2684.4583,2684.4622,,,,0,5,5,5,1,95,20,,,,,,,,
,,612e61d2784b1a22530108c2,65af5677be6af047326a98e8,2024-01-23_08h03.27.390,bars,2023.2.3,Win32,60.24096386,657b66ea316d21385b68909f,,,,,,,,,,,2684.4623,2685.4584,,,2685.9585,2686.2086,,161,161,,,,,,,,,,,,,,,,bars/041.png,bars/mask005.png,,,,,,,,,,,,0,1,,,,,,,4,9,4,10,,,,,,,,,,,2685.4585,2685.9585,2686.2086,2689.4082,space,3.1834,,2689.4082,39,76,2690.4086,2690.4086,2690.4147,,,,0,6,6,6,1,20,85,,,,,,,,
,,612e61d2784b1a22530108c2,65af5677be6af047326a98e8,2024-01-23_08h03.27.390,bars,2023.2.3,Win32,60.24096386,657b66ea316d21385b68909f,,,,,,,,,,,2690.4148,2691.4081,,,2691.9097,2692.1583,,132,132,,,,,,,,,,,,,,,,bars/043.png,bars/mask003.png,,,,,,,,,,,,8,2,,,,,,,2,10,1,9,,,,,,,,,,,2691.4082,2691.9097,2692.1583,2693.3915,space,1.2166,,2693.3915,78,2,2694.3914,2694.3914,2694.3921,,,,0,7,7,7,1,30,130,,,,,,,,
,,612e61d2784b1a22530108c2,65af5677be6af047326a98e8,2024-01-23_08h03.27.390,bars,2023.2.3,Win32,60.24096386,657b66ea316d21385b68909f,,,,,,,,,,,2694.3922,2695.3914,,,2695.8916,2696.1414,,55,55,,,,,,,,,,,,,,,,bars/013.png,bars/mask002.png,,,,,,,,,,,,1,1,,,,,,,4,8,2,8,,,,,,,,,,,2695.3914,2695.8916,2696.1414,2702.1414,space,5.9836,,2702.1415,20,45,2703.1414,2703.1414,2703.1457,,,,0,8,8,8,1,75,10,,,,,,,,
,,612e61d2784b1a22530108c2,65af5677be6af047326a98e8,2024-01-23_08h03.27.390,bars,2023.2.3,Win32,60.24096386,657b66ea316d21385b68909f,,,,,,,,,,,2703.1459,2704.1414,,,2704.6414,2704.8914,,177,-3,,,,,,,,,,,,,,,,bars/045.png,bars/mask005.png,,,,,,,,,,,,4,2,,,,,,,6,6,7,7,,,,,,,,,,,2704.1414,2704.6414,2704.8914,2710.0914,space,5.1852,,2710.0914,77,13,2711.0913,2711.0913,2711.0957,,,,0,9,9,9,1,100,10,,,,,,,,
,,612e61d2784b1a22530108c2,65af5677be6af047326a98e8,2024-01-23_08h03.27.390,bars,2023.2.3,Win32,60.24096386,657b66ea316d21385b68909f,,,,,,,,,,,2711.0957,2712.0914,,,2712.5914,2712.8414,,118,118,,,,,,,,,,,,,,,,bars/005.png,bars/mask000.png,,,,,,,,,,,,2,2,,,,,,,4,4,3,6,,,,,,,,,,,2712.0914,2712.5914,2712.8414,2718.3583,space,5.5002,,2718.3583,72,22,2719.3582,2719.3582,2719.3657,,,,0,10,10,10,1,10,140,,,,,,,,
,,612e61d2784b1a22530108c2,65af5677be6af047326a98e8,2024-01-23_08h03.27.390,bars,2023.2.3,Win32,60.24096386,657b66ea316d21385b68909f,,,,,,,,,,,2719.3658,2720.3582,,,2720.8583,2721.1083,,93,93,,,,,,,,,,,,,,,,bars/019.png,bars/mask004.png,,,,,,,,,,,,5,2,,,,,,,6,6,6,8,,,,,,,,,,,2720.3582,2720.8583,2721.1083,2729.8917,space,8.7666,,2729.8917,48,12,2730.8913,2730.8914,2730.8956,,,,0,11,11,11,1,45,105,,,,,,,,
,,612e61d2784b1a22530108c2,65af5677be6af047326a98e8,2024-01-23_08h03.27.390,bars,2023.2.3,Win32,60.24096386,657b66ea316d21385b68909f,,,,,,,,,,,2730.8956,2731.8912,,,2732.3916,2732.6412,,24,24,,,,,,,,,,,,,,,,bars/022.png,bars/mask006.png,,,,,,,,,,,,6,2,,,,,,,8,8,8,7,,,,,,,,,,,2731.8912,2732.3916,2732.6412,2738.1747,space,5.5167,,2738.1747,71,4,2739.1746,2739.1746,2739.1789,,,,0,12,12,12,1,95,20,,,,,,,,
,,612e61d2784b1a22530108c2,65af5677be6af047326a98e8,2024-01-23_08h03.27.390,bars,2023.2.3,Win32,60.24096386,657b66ea316d21385b68909f,,,,,,,,,,,2739.179,2740.1748,,,2740.6747,2740.9245,,150,150,,,,,,,,,,,,,,,,bars/020.png,bars/mask000.png,,,,,,,,,,,,1,2,,,,,,,10,6,10,3,,,,,,,,,,,2740.1748,2740.6746,2740.9246,2745.0579,space,4.1169,,2745.0579,35,20,2746.0578,2746.0578,2746.0619,,,,0,13,13,13,1,115,170,,,,,,,,
,,612e61d2784b1a22530108c2,65af5677be6af047326a98e8,2024-01-23_08h03.27.390,bars,2023.2.3,Win32,60.24096386,657b66ea316d21385b68909f,,,,,,,,,,,2746.0621,2747.0579,,,2747.558,2747.8079,,0,0,,,,,,,,,,,,,,,,bars/045.png,bars/mask003.png,,,,,,,,,,,,3,2,,,,,,,10,4,8,5,,,,,,,,,,,2747.0579,2747.558,2747.808,2753.1251,space,5.3011,,2753.1251,80,10,2754.1249,2754.1249,2754.1329,,,,0,14,14,14,1,100,10,,,,,,,,
,,612e61d2784b1a22530108c2,65af5677be6af047326a98e8,2024-01-23_08h03.27.390,bars,2023.2.3,Win32,60.24096386,657b66ea316d21385b68909f,,,,,,,,,,,2754.133,2755.1248,,,2755.6247,2755.8746,,2,182,,,,,,,,,,,,,,,,bars/048.png,bars/mask002.png,,,,,,,,,,,,4,2,,,,,,,10,6,10,5,,,,,,,,,,,2755.1248,2755.6247,2755.8747,2763.6245,space,7.7375,,2763.6245,48,7,2764.6245,2764.6245,2764.6288,,,,0,15,15,15,1,50,175,,,,,,,,
,,612e61d2784b1a22530108c2,65af5677be6af047326a98e8,2024-01-23_08h03.27.390,bars,2023.2.3,Win32,60.24096386,657b66ea316d21385b68909f,,,,,,,,,,,2764.6289,2765.6247,,,2766.1246,2766.3746,,35,35,,,,,,,,,,,,,,,,bars/025.png,bars/mask005.png,,,,,,,,,,,,8,2,,,,,,,10,8,10,9,,,,,,,,,,,2765.6247,2766.1246,2766.3746,2768.8745,space,2.4854,,2768.8745,70,5,2769.8746,2769.8746,2769.8786,,,,0,16,16,16,1,105,40,,,,,,,,
,,612e61d2784b1a22530108c2,65af5677be6af047326a98e8,2024-01-23_08h03.27.390,bars,2023.2.3,Win32,60.24096386,657b66ea316d21385b68909f,,,,,,,,,,,2769.8786,2770.8746,,,2771.3746,2771.6246,,130,130,,,,,,,,,,,,,,,,bars/020.png,bars/mask000.png,,,,,,,,,,,,4,1,,,,,,,8,10,8,8,,,,,,,,,,,2770.8746,2771.3746,2771.6246,2777.1747,space,5.534,,2777.1747,15,40,2778.1745,2778.1745,2778.1789,,,,0,17,17,17,1,115,170,,,,,,,,
,,612e61d2784b1a22530108c2,65af5677be6af047326a98e8,2024-01-23_08h03.27.390,bars,2023.2.3,Win32,60.24096386,657b66ea316d21385b68909f,,,,,,,,,,,2778.179,2779.1746,,,2779.6744,2779.9255,,35,215,,,,,,,,,,,,,,,,bars/025.png,bars/mask000.png,,,,,,,,,,,,8,2,,,,,,,6,8,4,9,,,,,,,,,,,2779.1746,2779.6744,2779.9256,2784.6412,space,4.7002,,2784.6412,70,5,2785.641,2785.6411,2785.6453,,,,0,18,18,18,1,105,40,,,,,,,,
,,612e61d2784b1a22530108c2,65af5677be6af047326a98e8,2024-01-23_08h03.27.390,bars,2023.2.3,Win32,60.24096386,657b66ea316d21385b68909f,,,,,,,,,,,2785.6455,2786.641,,,2787.1411,2787.391,,29,29,,,,,,,,,,,,,,,,bars/014.png,bars/mask008.png,,,,,,,,,,,,0,2,,,,,,,4,6,5,5,,,,,,,,,,,2786.6411,2787.1411,2787.391,2791.6747,space,4.27,,2791.6747,51,29,2792.6748,2792.6748,2792.681,,,,0,19,19,19,1,80,0,,,,,,,,
,,612e61d2784b1a22530108c2,65af5677be6af047326a98e8,2024-01-23_08h03.27.390,bars,2023.2.3,Win32,60.24096386,657b66ea316d21385b68909f,,,,,,,,,,,2792.6811,2793.6746,,,2794.1744,2794.4244,,81,81,,,,,,,,,,,,,,,,bars/046.png,bars/mask004.png,,,,,,,,,,,,8,2,,,,,,,6,8,7,9,,,,,,,,,,,2793.6747,2794.1744,2794.4244,2798.5412,space,4.1005,,2798.5412,74,4,2799.5422,2799.5422,2799.5494,,,,0,20,20,20,1,155,85,,,,,,,,
,,612e61d2784b1a22530108c2,65af5677be6af047326a98e8,2024-01-23_08h03.27.390,bars,2023.2.3,Win32,60.24096386,657b66ea316d21385b68909f,,,,,,,,,,,2799.5495,2800.5411,,,2801.0412,2801.2917,,123,123,,,,,,,,,,,,,,,,bars/039.png,bars/mask006.png,,,,,,,,,,,,4,2,,,,,,,4,10,5,10,,,,,,,,,,,2800.5411,2801.0412,2801.2918,2804.6745,space,3.369,,2804.6745,52,18,2805.6753,2805.6754,2805.6834,,,,0,21,21,21,1,175,105,,,,,,,,
,,612e61d2784b1a22530108c2,65af5677be6af047326a98e8,2024-01-23_08h03.27.390,bars,2023.2.3,Win32,60.24096386,657b66ea316d21385b68909f,,,,,,,,,,,2805.6835,2806.6745,,,2807.1746,2807.4246,,90,90,,,,,,,,,,,,,,,,bars/006.png,bars/mask000.png,,,,,,,,,,,,7,2,,,,,,,2,8,2,10,,,,,,,,,,,2806.6745,2807.1746,2807.4246,2811.4911,space,4.0513,,2811.4911,55,10,2812.4914,2812.4914,2812.4991,,,,0,22,22,22,1,35,100,,,,,,,,
,,612e61d2784b1a22530108c2,65af5677be6af047326a98e8,2024-01-23_08h03.27.390,bars,2023.2.3,Win32,60.24096386,657b66ea316d21385b68909f,,,,,,,,,,,2812.4992,2813.4911,,,2813.991,2814.2408,,67,67,,,,,,,,,,,,,,,,bars/037.png,bars/mask002.png,,,,,,,,,,,,0,2,,,,,,,0,6,0,6,,,,,,,,,,,2813.4912,2813.991,2814.2409,2818.1078,space,3.8512,,2818.1078,83,38,2819.1077,2819.1077,2819.1116,,,,0,23,23,23,1,150,105,,,,,,,,
,,612e61d2784b1a22530108c2,65af5677be6af047326a98e8,2024-01-23_08h03.27.390,bars,2023.2.3,Win32,60.24096386,657b66ea316d21385b68909f,,,,,,,,,,,2819.1117,2820.1076,,,2820.6075,2820.8576,,18,198,,,,,,,,,,,,,,,,bars/032.png,bars/mask003.png,,,,,,,,,,,,8,2,,,,,,,2,8,2,9,,,,,,,,,,,2820.1076,2820.6075,2820.8576,2828.1243,space,7.2505,,2828.1243,73,2,2829.1243,2829.1243,2829.1305,,,,0,24,24,24,1,125,20,,,,,,,,
,,612e61d2784b1a22530108c2,65af5677be6af047326a98e8,2024-01-23_08h03.27.390,bars,2023.2.3,Win32,60.24096386,657b66ea316d21385b68909f,,,,,,,,,,,2829.1306,2830.1242,,,2830.6243,2830.8742,,33,33,,,,,,,,,,,,,,,,bars/035.png,bars/mask003.png,,,,,,,,,,,,1,2,,,,,,,0,10,0,10,,,,,,,,,,,2830.1242,2830.6243,2830.8742,2832.0243,space,1.1336,,2832.0243,38,27,2833.0244,2833.0244,2833.0248,,,,0,25,25,25,1,175,60,,,,,,,,
,,612e61d2784b1a22530108c2,65af5677be6af047326a98e8,2024-01-23_08h03.27.390,bars,2023.2.3,Win32,60.24096386,657b66ea316d21385b68909f,,,,,,,,,,,2833.0251,2834.0244,,,2834.5247,2834.7747,,148,-32,,,,,,,,,,,,,,,,bars/033.png,bars/mask008.png,,,,,,,,,,,,7,2,,,,,,,0,8,0,9,,,,,,,,,,,2834.0244,2834.5247,2834.7748,2840.8075,space,6.0167,,2840.8075,57,7,2841.8077,2841.8077,2841.814,,,,0,26,26,26,1,25,155,,,,,,,,
,,612e61d2784b1a22530108c2,65af5677be6af047326a98e8,2024-01-23_08h03.27.390,bars,2023.2.3,Win32,60.24096386,657b66ea316d21385b68909f,,,,,,,,,,,2841.8141,2842.8075,,,2843.3078,2843.5574,,130,-50,,,,,,,,,,,,,,,,bars/005.png,bars/mask003.png,,,,,,,,,,,,3,2,,,,,,,0,6,3,5,,,,,,,,,,,2842.8076,2843.3077,2843.5575,2848.2743,space,4.7021,,2848.2743,60,10,2849.2741,2849.2741,2849.2782,,,,0,27,27,27,1,10,140,,,,,,,,
,,612e61d2784b1a22530108c2,65af5677be6af047326a98e8,2024-01-23_08h03.27.390,bars,2023.2.3,Win32,60.24096386,657b66ea316d21385b68909f,,,,,,,,,,,2849.2783,2850.2743,,,2850.7741,2851.0241,,31,211,,,,,,,,,,,,,,,,bars/030.png,bars/mask001.png,,,,,,,,,,,,0,2,,,,,,,0,8,1,8,,,,,,,,,,,2850.2743,2850.774,2851.0241,2857.4748,space,6.4341,,2857.4749,71,34,2858.4744,2858.4745,2858.4833,,,,0,28,28,28,1,140,65,,,,,,,,
,,612e61d2784b1a22530108c2,65af5677be6af047326a98e8,2024-01-23_08h03.27.390,bars,2023.2.3,Win32,60.24096386,657b66ea316d21385b68909f,,,,,,,,,,,2858.4833,2859.4742,,,2859.9743,2860.2243,,120,120,,,,,,,,,,,,,,,,bars/023.png,bars/mask005.png,,,,,,,,,,,,7,2,,,,,,,0,6,2,8,,,,,,,,,,,2859.4742,2859.9742,2860.2243,2866.1741,space,5.9334,,2866.1741,80,5,2867.1741,2867.1741,2867.1787,,,,0,29,29,29,1,20,115,,,,,,,,
,,612e61d2784b1a22530108c2,65af5677be6af047326a98e8,2024-01-23_08h03.27.390,bars,2023.2.3,Win32,60.24096386,657b66ea316d21385b68909f,,,,,,,,,,,2867.1787,2868.1742,,,2868.6741,2868.9241,,124,-56,,,,,,,,,,,,,,,,bars/025.png,bars/mask007.png,,,,,,,,,,,,0,1,,,,,,,0,8,0,7,,,,,,,,,,,2868.1742,2868.6741,2868.9241,2872.8911,space,3.9508,,2872.8912,19,84,2873.8908,2873.8908,2873.8951,,,,0,30,30,30,1,105,40,,,,,,,,
,,612e61d2784b1a22530108c2,65af5677be6af047326a98e8,2024-01-23_08h03.27.390,bars,2023.2.3,Win32,60.24096386,657b66ea316d21385b68909f,,,,,,,,,,,2873.8953,2874.891,,,2875.3908,2875.6408,,71,71,,,,,,,,,,,,,,,,bars/038.png,bars/mask002.png,,,,,,,,,,,,10,2,,,,,,,2,10,0,10,,,,,,,,,,,2874.8911,2875.3908,2875.6408,2876.7909,space,1.1342,,2876.7909,86,1,2877.7907,2877.7907,2877.7916,,,,0,31,31,31,1,165,70,,,,,,,,
,,612e61d2784b1a22530108c2,65af5677be6af047326a98e8,2024-01-23_08h03.27.390,bars,2023.2.3,Win32,60.24096386,657b66ea316d21385b68909f,,,,,,,,,,,2877.7917,2878.7908,,,2879.2909,2879.5407,,163,163,,,,,,,,,,,,,,,,bars/002.png,bars/mask009.png,,,,,,,,,,,,0,1,,,,,,,4,10,5,9,,,,,,,,,,,2878.7908,2879.2908,2879.5407,2881.3407,space,1.7839,,2881.3407,33,78,2882.3413,2882.3413,2882.3426,,,,0,32,32,32,1,130,85,,,,,,,,
,,612e61d2784b1a22530108c2,65af5677be6af047326a98e8,2024-01-23_08h03.27.390,bars,2023.2.3,Win32,60.24096386,657b66ea316d21385b68909f,,,,,,,,,,,2882.3427,2883.341,,,2883.8411,2884.0908,,47,47,,,,,,,,,,,,,,,,bars/047.png,bars/mask001.png,,,,,,,,,,,,2,2,,,,,,,6,8,7,8,,,,,,,,,,,2883.341,2883.8411,2884.0908,2888.0074,space,3.9,,2888.0074,32,23,2889.0072,2889.0072,2889.0115,,,,0,33,33,33,1,15,70,,,,,,,,
,,612e61d2784b1a22530108c2,65af5677be6af047326a98e8,2024-01-23_08h03.27.390,bars,2023.2.3,Win32,60.24096386,657b66ea316d21385b68909f,,,,,,,,,,,2889.0116,2890.0072,,,2890.5073,2890.7573,,69,69,,,,,,,,,,,,,,,,bars/023.png,bars/mask002.png,,,,,,,,,,,,0,2,,,,,,,4,6,4,7,,,,,,,,,,,2890.0073,2890.5073,2890.7573,2893.6906,space,2.9178,,2893.6907,49,46,2894.6907,2894.6908,2894.6978,,,,0,34,34,34,1,20,115,,,,,,,,
,,612e61d2784b1a22530108c2,65af5677be6af047326a98e8,2024-01-23_08h03.27.390,bars,2023.2.3,Win32,60.24096386,657b66ea316d21385b68909f,,,,,,,,,,,2894.6979,2895.6905,,,2896.1909,2896.4407,,122,122,,,,,,,,,,,,,,,,bars/039.png,bars/mask000.png,,,,,,,,,,,,3,2,,,,,,,6,8,6,7,,,,,,,,,,,2895.6905,2896.1908,2896.4407,2899.3576,space,2.9006,,2899.3576,53,17,2900.3573,2900.3573,2900.3622,,,,0,35,35,35,1,175,105,,,,,,,,
,,612e61d2784b1a22530108c2,65af5677be6af047326a98e8,2024-01-23_08h03.27.390,bars,2023.2.3,Win32,60.24096386,657b66ea316d21385b68909f,,,,,,,,,,,2900.3622,2901.3573,,,2901.8573,2902.1073,,77,77,,,,,,,,,,,,,,,,bars/006.png,bars/mask008.png,,,,,,,,,,,,2,2,,,,,,,8,10,7,9,,,,,,,,,,,2901.3573,2901.8573,2902.1073,2906.1573,space,4.034,,2906.1573,42,23,2907.1575,2907.1575,2907.1627,,,,0,36,36,36,1,35,100,,,,,,,,
,,612e61d2784b1a22530108c2,65af5677be6af047326a98e8,2024-01-23_08h03.27.390,bars,2023.2.3,Win32,60.24096386,657b66ea316d21385b68909f,,,,,,,,,,,2907.1628,2908.1574,,,2908.6572,2908.9072,,0,0,,,,,,,,,,,,,,,,bars/033.png,bars/mask006.png,,,,,,,,,,,,2,2,,,,,,,10,10,9,10,,,,,,,,,,,2908.1574,2908.6572,2908.9072,2913.1238,space,4.2002,,2913.1239,25,25,2914.1239,2914.1239,2914.1281,,,,0,37,37,37,1,25,155,,,,,,,,
,,612e61d2784b1a22530108c2,65af5677be6af047326a98e8,2024-01-23_08h03.27.390,bars,2023.2.3,Win32,60.24096386,657b66ea316d21385b68909f,,,,,,,,,,,2914.1282,2915.1237,,,2915.6238,2915.8738,,117,117,,,,,,,,,,,,,,,,bars/000.png,bars/mask005.png,,,,,,,,,,,,1,2,,,,,,,10,8,10,8,,,,,,,,,,,2915.1237,2915.6238,2915.8738,2921.8738,space,5.9854,,2921.8738,77,28,2922.8739,2922.8739,2922.8782,,,,0,38,38,38,1,40,145,,,,,,,,
,,612e61d2784b1a22530108c2,65af5677be6af047326a98e8,2024-01-23_08h03.27.390,bars,2023.2.3,Win32,60.24096386,657b66ea316d21385b68909f,,,,,,,,,,,2922.8783,2923.8737,,,2924.3739,2924.6238,,41,41,,,,,,,,,,,,,,,,bars/014.png,bars/mask005.png,,,,,,,,,,,,0,1,,,,,,,10,10,10,9,,,,,,,,,,,2923.8738,2924.3739,2924.6238,2929.4074,space,4.7719,,2929.4075,39,41,2930.4074,2930.4074,2930.4124,,,,0,39,39,39,1,80,0,,,,,,,,
,,612e61d2784b1a22530108c2,65af5677be6af047326a98e8,2024-01-23_08h03.27.390,bars,2023.2.3,Win32,60.24096386,657b66ea316d21385b68909f,,,,,,,,,,,2930.4124,2931.4071,,,2931.9073,2932.1571,,58,58,,,,,,,,,,,,,,,,bars/046.png,bars/mask002.png,,,,,,,,,,,,1,2,,,,,,,10,8,9,8,,,,,,,,,,,2931.4071,2931.9073,2932.1571,2939.1237,space,6.9502,,2939.1237,83,27,2940.124,2940.124,2940.1388,,,,0,40,40,40,1,155,85,,,,,,,,
,,612e61d2784b1a22530108c2,65af5677be6af047326a98e8,2024-01-23_08h03.27.390,bars,2023.2.3,Win32,60.24096386,657b66ea316d21385b68909f,,,,,,,,,,,2940.139,2941.1403,,,2941.6405,2941.8904,,166,166,,,,,,,,,,,,,,,,bars/048.png,bars/mask000.png,,,,,,,,,,,,5,2,,,,,,,8,6,7,7,,,,,,,,,,,2941.1404,2941.6405,2941.8904,2965.957,space,24.0501,,2965.9571,64,9,2966.9572,2966.9573,2966.9636,,,,0,41,41,41,1,50,175,,,,,,,,
,,612e61d2784b1a22530108c2,65af5677be6af047326a98e8,2024-01-23_08h03.27.390,bars,2023.2.3,Win32,60.24096386,657b66ea316d21385b68909f,,,,,,,,,,,2966.9637,2967.9569,,,2968.4569,2968.7075,,47,47,,,,,,,,,,,,,,,,bars/018.png,bars/mask007.png,,,,,,,,,,,,0,2,,,,,,,10,4,10,3,,,,,,,,,,,2967.9569,2968.4569,2968.7076,2979.4569,space,10.7334,,2979.457,77,43,2980.4571,2980.4571,2980.4624,,,,0,42,42,42,1,150,90,,,,,,,,
,,612e61d2784b1a22530108c2,65af5677be6af047326a98e8,2024-01-23_08h03.27.390,bars,2023.2.3,Win32,60.24096386,657b66ea316d21385b68909f,,,,,,,,,,,2980.4626,2981.4569,,,2981.957,2982.2068,,58,58,,,,,,,,,,,,,,,,bars/025.png,bars/mask004.png,,,,,,,,,,,,2,2,,,,,,,10,6,10,6,,,,,,,,,,,2981.4569,2981.9568,2982.2069,3001.9235,space,19.7002,,3001.9236,47,18,3002.9235,3002.9236,3002.9278,,,,0,43,43,43,1,105,40,,,,,,,,
,,612e61d2784b1a22530108c2,65af5677be6af047326a98e8,2024-01-23_08h03.27.390,bars,2023.2.3,Win32,60.24096386,657b66ea316d21385b68909f,,,,,,,,,,,3002.9279,3003.9235,,,3004.4234,3004.6735,,150,-30,,,,,,,,,,,,,,,,bars/016.png,bars/mask003.png,,,,,,,,,,,,3,2,,,,,,,10,4,9,5,,,,,,,,,,,3003.9235,3004.4234,3004.6735,3010.5902,space,5.9001,,3010.5902,70,15,3011.5907,3011.5907,3011.5988,,,,0,44,44,44,1,40,165,,,,,,,,
,,612e61d2784b1a22530108c2,65af5677be6af047326a98e8,2024-01-23_08h03.27.390,bars,2023.2.3,Win32,60.24096386,657b66ea316d21385b68909f,,,,,,,,,,,3011.5989,3012.5902,,,3013.0904,3013.34,,52,52,,,,,,,,,,,,,,,,bars/007.png,bars/mask005.png,,,,,,,,,,,,0,2,,,,,,,8,2,7,0,,,,,,,,,,,3012.5902,3013.0904,3013.34,3018.3235,space,4.9671,,3018.3235,57,3,3019.3234,3019.3234,3019.3282,,,,0,45,45,45,1,175,55,,,,,,,,
,,612e61d2784b1a22530108c2,65af5677be6af047326a98e8,2024-01-23_08h03.27.390,bars,2023.2.3,Win32,60.24096386,657b66ea316d21385b68909f,,,,,,,,,,,3019.3283,3020.3236,,,3020.8235,3021.0735,,146,146,,,,,,,,,,,,,,,,bars/037.png,bars/mask006.png,,,,,,,,,,,,3,1,,,,,,,6,4,4,4,,,,,,,,,,,3020.3236,3020.8235,3021.0735,3022.2901,space,1.2002,,3022.2902,4,41,3023.2901,3023.2901,3023.2911,,,,0,46,46,46,1,150,105,,,,,,,,
,,612e61d2784b1a22530108c2,65af5677be6af047326a98e8,2024-01-23_08h03.27.390,bars,2023.2.3,Win32,60.24096386,657b66ea316d21385b68909f,,,,,,,,,,,3023.2912,3024.2902,,,3024.7901,3025.0403,,58,58,,,,,,,,,,,,,,,,bars/030.png,bars/mask006.png,,,,,,,,,,,,1,2,,,,,,,8,2,9,1,,,,,,,,,,,3024.2903,3024.7901,3025.0403,3026.1235,space,1.067,,3026.1235,82,7,3027.1233,3027.1233,3027.124,,,,0,47,47,47,1,140,65,,,,,,,,
,,612e61d2784b1a22530108c2,65af5677be6af047326a98e8,2024-01-23_08h03.27.390,bars,2023.2.3,Win32,60.24096386,657b66ea316d21385b68909f,,,,,,,,,,,3027.1241,3028.1234,,,3028.6234,3028.8735,,131,131,,,,,,,,,,,,,,,,bars/049.png,bars/mask007.png,,,,,,,,,,,,0,2,,,,,,,10,0,10,0,,,,,,,,,,,3028.1234,3028.6234,3028.8735,3033.9069,space,5.0176,,3033.9069,29,16,3034.9067,3034.9067,3034.9106,,,,0,48,48,48,1,160,115,,,,,,,,
,,612e61d2784b1a22530108c2,65af5677be6af047326a98e8,2024-01-23_08h03.27.390,bars,2023.2.3,Win32,60.24096386,657b66ea316d21385b68909f,,,,,,,,,,,3034.9108,3035.9068,,,3036.4067,3036.6567,,39,219,,,,,,,,,,,,,,,,bars/031.png,bars/mask005.png,,,,,,,,,,,,3,2,,,,,,,10,2,10,3,,,,,,,,,,,3035.9068,3036.4067,3036.6567,3041.94,space,5.2665,,3041.9401,81,4,3042.9399,3042.9399,3042.9439,,,,0,49,49,49,1,120,35,,,,,,,,
,,612e61d2784b1a22530108c2,65af5677be6af047326a98e8,2024-01-23_08h03.27.390,bars,2023.2.3,Win32,60.24096386,657b66ea316d21385b68909f,,,,,,,,,,,,,,,,,,,,,,,,,,,,,,,,,,,,,,,,,,,,,,,,,,,,,,,,,,,,,,,,,,,,,,,,,,,,,,,,,,,,,,,,,,,,,3042.9439,3102.9397,0,1,1,2,1,sequence_tables/blk024.csv
,,612e61d2784b1a22530108c2,65af5677be6af047326a98e8,2024-01-23_08h03.27.390,bars,2023.2.3,Win32,60.24096386,657b66ea316d21385b68909f,,,,,,,,,,,3105.7752,3106.7731,,,3107.2731,3107.523,,26,26,,,,,,,,,,,,,,,,bars/048.png,bars/mask003.png,,,,,,,,,,,,2,1,,,,,,,8,7,10,8,,,,,,3102.9442,3105.7732,space,2.8085,,3106.7732,3107.273,3107.523,3117.4731,space,9.9335,,3117.4731,24,31,3118.4731,3118.4731,3118.4809,,,,0,0,0,0,1,50,175,,,,,,,,
,,612e61d2784b1a22530108c2,65af5677be6af047326a98e8,2024-01-23_08h03.27.390,bars,2023.2.3,Win32,60.24096386,657b66ea316d21385b68909f,,,,,,,,,,,3118.481,3119.473,,,3119.973,3120.2231,,129,129,,,,,,,,,,,,,,,,bars/038.png,bars/mask006.png,,,,,,,,,,,,0,1,,,,,,,6,5,6,4,,,,,,,,,,,3119.473,3119.973,3120.2232,3126.1899,space,5.9423,,3126.19,36,59,3127.1895,3127.1896,3127.1937,,,,0,1,1,1,1,165,70,,,,,,,,
,,612e61d2784b1a22530108c2,65af5677be6af047326a98e8,2024-01-23_08h03.27.390,bars,2023.2.3,Win32,60.24096386,657b66ea316d21385b68909f,,,,,,,,,,,3127.1937,3128.1895,,,3128.6896,3128.9395,,44,44,,,,,,,,,,,,,,,,bars/000.png,bars/mask008.png,,,,,,,,,,,,7,1,,,,,,,8,7,8,9,,,,,,,,,,,3128.1896,3128.6895,3128.9395,3135.8397,space,6.8785,,3135.8398,4,79,3136.8399,3136.84,3136.8458,,,,0,2,2,2,1,40,145,,,,,,,,
,,612e61d2784b1a22530108c2,65af5677be6af047326a98e8,2024-01-23_08h03.27.390,bars,2023.2.3,Win32,60.24096386,657b66ea316d21385b68909f,,,,,,,,,,,3136.8459,3137.8397,,,3138.3398,3138.5895,,46,46,,,,,,,,,,,,,,,,bars/004.png,bars/mask005.png,,,,,,,,,,,,3,1,,,,,,,10,5,9,4,,,,,,,,,,,3137.8397,3138.3397,3138.5896,3143.623,space,5.0208,,3143.623,21,79,3144.6229,3144.6229,3144.6267,,,,0,3,3,3,1,25,125,,,,,,,,
,,612e61d2784b1a22530108c2,65af5677be6af047326a98e8,2024-01-23_08h03.27.390,bars,2023.2.3,Win32,60.24096386,657b66ea316d21385b68909f,,,,,,,,,,,3144.6269,3145.6228,,,3146.1229,3146.3728,,153,-27,,,,,,,,,,,,,,,,bars/020.png,bars/mask008.png,,,,,,,,,,,,3,2,,,,,,,10,7,10,8,,,,,,,,,,,3145.6228,3146.1229,3146.3728,3152.9562,space,6.5589,,3152.9562,38,17,3153.9562,3153.9562,3153.9608,,,,0,4,4,4,1,115,170,,,,,,,,
,,612e61d2784b1a22530108c2,65af5677be6af047326a98e8,2024-01-23_08h03.27.390,bars,2023.2.3,Win32,60.24096386,657b66ea316d21385b68909f,,,,,,,,,,,3153.9609,3154.9561,,,3155.4562,3155.7062,,141,141,,,,,,,,,,,,,,,,bars/016.png,bars/mask005.png,,,,,,,,,,,,1,2,,,,,,,10,5,10,6,,,,,,,,,,,3154.9561,3155.4562,3155.7062,3159.9729,space,4.2483,,3159.973,79,24,3160.9728,3160.9729,3160.9768,,,,0,5,5,5,1,40,165,,,,,,,,
,,612e61d2784b1a22530108c2,65af5677be6af047326a98e8,2024-01-23_08h03.27.390,bars,2023.2.3,Win32,60.24096386,657b66ea316d21385b68909f,,,,,,,,,,,3160.9768,3161.9728,,,3162.4727,3162.7227,,145,145,,,,,,,,,,,,,,,,bars/003.png,bars/mask002.png,,,,,,,,,,,,6,2,,,,,,,10,7,10,7,,,,,,,,,,,3161.9728,3162.4727,3162.7227,3167.7062,space,4.9756,,3167.7062,60,5,3168.7065,3168.7065,3168.7127,,,,0,6,6,6,1,25,140,,,,,,,,
,,612e61d2784b1a22530108c2,65af5677be6af047326a98e8,2024-01-23_08h03.27.390,bars,2023.2.3,Win32,60.24096386,657b66ea316d21385b68909f,,,,,,,,,,,3168.7129,3169.7076,,,3170.2062,3170.4561,,71,71,,,,,,,,,,,,,,,,bars/011.png,bars/mask005.png,,,,,,,,,,,,4,2,,,,,,,10,5,9,7,,,,,,,,,,,3169.7076,3170.2062,3170.4561,3176.6394,space,6.1787,,3176.6394,89,14,3177.6394,3177.6394,3177.6436,,,,0,7,7,7,1,160,85,,,,,,,,
,,612e61d2784b1a22530108c2,65af5677be6af047326a98e8,2024-01-23_08h03.27.390,bars,2023.2.3,Win32,60.24096386,657b66ea316d21385b68909f,,,,,,,,,,,3177.6436,3178.6396,,,3179.1395,3179.3895,,46,46,,,,,,,,,,,,,,,,bars/023.png,bars/mask009.png,,,,,,,,,,,,1,1,,,,,,,8,3,9,3,,,,,,,,,,,3178.6396,3179.1394,3179.3895,3243.7681,space,64.3732,,3243.7681,26,69,3244.7682,3244.7682,3244.7728,,,,0,8,8,8,1,20,115,,,,,,,,
,,612e61d2784b1a22530108c2,65af5677be6af047326a98e8,2024-01-23_08h03.27.390,bars,2023.2.3,Win32,60.24096386,657b66ea316d21385b68909f,,,,,,,,,,,3244.7729,3245.7855,,,3246.3017,3246.5348,,45,45,,,,,,,,,,,,,,,,bars/022.png,bars/mask000.png,,,,,,,,,,,,0,2,,,,,,,6,1,7,0,,,,,,,,,,,3245.7855,3246.3017,3246.5348,3273.5058,space,26.9629,,3273.5059,50,25,3274.5181,3274.5182,3274.5244,,,,0,9,9,9,1,95,20,,,,,,,,
,,612e61d2784b1a22530108c2,65af5677be6af047326a98e8,2024-01-23_08h03.27.390,bars,2023.2.3,Win32,60.24096386,657b66ea316d21385b68909f,,,,,,,,,,,3274.5244,3275.5182,,,3276.018,3276.2556,,119,119,,,,,,,,,,,,,,,,bars/006.png,bars/mask002.png,,,,,,,,,,,,1,2,,,,,,,4,3,5,4,,,,,,,,,,,3275.5182,3276.018,3276.2556,3283.2681,space,6.9837,,3283.2681,84,19,3284.2852,3284.2852,3284.2925,,,,0,10,10,10,1,35,100,,,,,,,,
,,612e61d2784b1a22530108c2,65af5677be6af047326a98e8,2024-01-23_08h03.27.390,bars,2023.2.3,Win32,60.24096386,657b66ea316d21385b68909f,,,,,,,,,,,3284.2927,3285.2889,,,3285.7889,3286.0389,,51,51,,,,,,,,,,,,,,,,bars/031.png,bars/mask001.png,,,,,,,,,,,,0,2,,,,,,,6,1,5,0,,,,,,,,,,,3285.2889,3285.7889,3286.0389,3291.618,space,5.5669,,3291.6181,69,16,3292.6222,3292.6222,3292.6279,,,,0,11,11,11,1,120,35,,,,,,,,
,,612e61d2784b1a22530108c2,65af5677be6af047326a98e8,2024-01-23_08h03.27.390,bars,2023.2.3,Win32,60.24096386,657b66ea316d21385b68909f,,,,,,,,,,,3292.6281,3293.6221,,,3294.1178,3294.3556,,51,51,,,,,,,,,,,,,,,,bars/006.png,bars/mask000.png,,,,,,,,,,,,4,1,,,,,,,8,0,9,1,,,,,,,,,,,3293.6222,3294.1178,3294.3556,3313.8072,space,19.4132,,3313.8074,16,49,3314.8059,3314.8059,3314.8128,,,,0,12,12,12,1,35,100,,,,,,,,
,,612e61d2784b1a22530108c2,65af5677be6af047326a98e8,2024-01-23_08h03.27.390,bars,2023.2.3,Win32,60.24096386,657b66ea316d21385b68909f,,,,,,,,,,,3314.8129,3315.8057,,,3316.3058,3316.5555,,59,59,,,,,,,,,,,,,,,,bars/002.png,bars/mask002.png,,,,,,,,,,,,0,2,,,,,,,10,0,8,0,,,,,,,,,,,3315.8057,3316.3058,3316.5556,3318.0557,space,1.4927,,3318.0557,71,26,3319.0555,3319.0555,3319.0599,,,,0,13,13,13,1,130,85,,,,,,,,
,,612e61d2784b1a22530108c2,65af5677be6af047326a98e8,2024-01-23_08h03.27.390,bars,2023.2.3,Win32,60.24096386,657b66ea316d21385b68909f,,,,,,,,,,,3319.06,3320.0554,,,3320.5554,3320.8054,,163,-17,,,,,,,,,,,,,,,,bars/006.png,bars/mask000.png,,,,,,,,,,,,0,1,,,,,,,8,0,9,0,,,,,,,,,,,3320.0554,3320.5554,3320.8054,3325.7724,space,4.9486,,3325.7724,52,63,3326.772,3326.7721,3326.7764,,,,0,14,14,14,1,35,100,,,,,,,,
,,612e61d2784b1a22530108c2,65af5677be6af047326a98e8,2024-01-23_08h03.27.390,bars,2023.2.3,Win32,60.24096386,657b66ea316d21385b68909f,,,,,,,,,,,3326.7765,3327.7721,,,3328.272,3328.5221,,40,220,,,,,,,,,,,,,,,,bars/032.png,bars/mask006.png,,,,,,,,,,,,0,2,,,,,,,6,0,5,1,,,,,,,,,,,3327.7721,3328.272,3328.5221,3333.7389,space,5.2054,,3333.7389,85,20,3334.739,3334.739,3334.7472,,,,0,15,15,15,1,125,20,,,,,,,,
,,612e61d2784b1a22530108c2,65af5677be6af047326a98e8,2024-01-23_08h03.27.390,bars,2023.2.3,Win32,60.24096386,657b66ea316d21385b68909f,,,,,,,,,,,3334.7473,3335.7388,,,3336.2386,3336.4886,,85,85,,,,,,,,,,,,,,,,bars/026.png,bars/mask005.png,,,,,,,,,,,,2,2,,,,,,,4,2,3,2,,,,,,,,,,,3335.7388,3336.2386,3336.4886,3340.8888,space,4.3825,,3340.8889,50,0,3341.8886,3341.8886,3341.8936,,,,0,16,16,16,1,35,85,,,,,,,,
,,612e61d2784b1a22530108c2,65af5677be6af047326a98e8,2024-01-23_08h03.27.390,bars,2023.2.3,Win32,60.24096386,657b66ea316d21385b68909f,,,,,,,,,,,3341.8938,3342.8886,,,3343.3889,3343.6386,,109,109,,,,,,,,,,,,,,,,bars/037.png,bars/mask005.png,,,,,,,,,,,,1,2,,,,,,,2,0,4,1,,,,,,,,,,,3342.8887,3343.3889,3343.6386,3346.5221,space,2.8745,,3346.5221,41,4,3347.522,3347.522,3347.5262,,,,0,17,17,17,1,150,105,,,,,,,,
,,612e61d2784b1a22530108c2,65af5677be6af047326a98e8,2024-01-23_08h03.27.390,bars,2023.2.3,Win32,60.24096386,657b66ea316d21385b68909f,,,,,,,,,,,3347.5262,3348.5219,,,3349.0219,3349.2719,,142,142,,,,,,,,,,,,,,,,bars/004.png,bars/mask004.png,,,,,,,,,,,,0,2,,,,,,,0,0,1,1,,,,,,,,,,,3348.5219,3349.0219,3349.2719,3350.3887,space,1.1056,,3350.3887,63,17,3351.3885,3351.3886,3351.3889,,,,0,18,18,18,1,25,125,,,,,,,,
,,612e61d2784b1a22530108c2,65af5677be6af047326a98e8,2024-01-23_08h03.27.390,bars,2023.2.3,Win32,60.24096386,657b66ea316d21385b68909f,,,,,,,,,,,3351.389,3352.3885,,,3352.8886,3353.1387,,49,49,,,,,,,,,,,,,,,,bars/017.png,bars/mask008.png,,,,,,,,,,,,0,2,,,,,,,2,0,3,0,,,,,,,,,,,3352.3886,3352.8886,3353.1387,3355.9053,space,2.7501,,3355.9054,84,4,3356.9053,3356.9053,3356.9112,,,,0,19,19,19,1,145,45,,,,,,,,
,,612e61d2784b1a22530108c2,65af5677be6af047326a98e8,2024-01-23_08h03.27.390,bars,2023.2.3,Win32,60.24096386,657b66ea316d21385b68909f,,,,,,,,,,,3356.9113,3357.9053,,,3358.4054,3358.6553,,130,130,,,,,,,,,,,,,,,,bars/000.png,bars/mask003.png,,,,,,,,,,,,1,2,,,,,,,4,2,2,1,,,,,,,,,,,3357.9053,3358.4054,3358.6554,3363.422,space,4.7598,,3363.422,90,15,3364.4237,3364.4237,3364.4305,,,,0,20,20,20,1,40,145,,,,,,,,
,,612e61d2784b1a22530108c2,65af5677be6af047326a98e8,2024-01-23_08h03.27.390,bars,2023.2.3,Win32,60.24096386,657b66ea316d21385b68909f,,,,,,,,,,,3364.4306,3365.4222,,,3365.923,3366.172,,137,137,,,,,,,,,,,,,,,,bars/049.png,bars/mask004.png,,,,,,,,,,,,1,2,,,,,,,2,4,4,4,,,,,,,,,,,3365.4222,3365.923,3366.172,3371.2886,space,5.0996,,3371.2886,23,22,3372.289,3372.289,3372.2958,,,,0,21,21,21,1,160,115,,,,,,,,
,,612e61d2784b1a22530108c2,65af5677be6af047326a98e8,2024-01-23_08h03.27.390,bars,2023.2.3,Win32,60.24096386,657b66ea316d21385b68909f,,,,,,,,,,,3372.296,3373.2887,,,3373.7886,3374.0387,,162,162,,,,,,,,,,,,,,,,bars/008.png,bars/mask008.png,,,,,,,,,,,,1,2,,,,,,,0,2,0,2,,,,,,,,,,,3373.2887,3373.7886,3374.0388,3374.9887,space,0.9322,,3374.9888,52,18,3375.9886,3375.9886,3375.9889,,,,0,22,22,22,1,110,0,,,,,,,,
,,612e61d2784b1a22530108c2,65af5677be6af047326a98e8,2024-01-23_08h03.27.390,bars,2023.2.3,Win32,60.24096386,657b66ea316d21385b68909f,,,,,,,,,,,3375.989,3376.9886,,,3377.4886,3377.7386,,59,59,,,,,,,,,,,,,,,,bars/045.png,bars/mask009.png,,,,,,,,,,,,0,1,,,,,,,2,0,3,0,,,,,,,,,,,3376.9886,3377.4886,3377.7387,3382.0551,space,4.3089,,3382.0551,41,49,3383.0551,3383.0551,3383.0595,,,,0,23,23,23,1,100,10,,,,,,,,
,,612e61d2784b1a22530108c2,65af5677be6af047326a98e8,2024-01-23_08h03.27.390,bars,2023.2.3,Win32,60.24096386,657b66ea316d21385b68909f,,,,,,,,,,,3383.0595,3384.0552,,,3384.5551,3384.8052,,105,105,,,,,,,,,,,,,,,,bars/028.png,bars/mask007.png,,,,,,,,,,,,2,2,,,,,,,0,2,0,3,,,,,,,,,,,3384.0552,3384.5551,3384.8052,3387.5552,space,2.7319,,3387.5552,60,15,3388.5551,3388.5551,3388.5595,,,,0,24,24,24,1,45,120,,,,,,,,
,,612e61d2784b1a22530108c2,65af5677be6af047326a98e8,2024-01-23_08h03.27.390,bars,2023.2.3,Win32,60.24096386,657b66ea316d21385b68909f,,,,,,,,,,,3388.5595,3389.5551,,,3390.0552,3390.3051,,39,39,,,,,,,,,,,,,,,,bars/034.png,bars/mask008.png,,,,,,,,,,,,1,2,,,,,,,0,4,0,4,,,,,,,,,,,3389.5552,3390.0551,3390.3051,3391.3386,space,1.0242,,3391.3387,86,26,3392.3385,3392.3385,3392.3388,,,,0,25,25,25,1,125,65,,,,,,,,
,,612e61d2784b1a22530108c2,65af5677be6af047326a98e8,2024-01-23_08h03.27.390,bars,2023.2.3,Win32,60.24096386,657b66ea316d21385b68909f,,,,,,,,,,,3392.339,3393.3384,,,3393.8385,3394.0885,,68,68,,,,,,,,,,,,,,,,bars/027.png,bars/mask002.png,,,,,,,,,,,,0,2,,,,,,,2,2,4,1,,,,,,,,,,,3393.3384,3393.8384,3394.0885,3399.9887,space,5.8867,,3399.9887,42,18,3400.9884,3400.9884,3400.9928,,,,0,26,26,26,1,110,50,,,,,,,,
,,612e61d2784b1a22530108c2,65af5677be6af047326a98e8,2024-01-23_08h03.27.390,bars,2023.2.3,Win32,60.24096386,657b66ea316d21385b68909f,,,,,,,,,,,3400.9928,3401.9885,,,3402.4883,3402.7384,,1,1,,,,,,,,,,,,,,,,bars/032.png,bars/mask008.png,,,,,,,,,,,,1,2,,,,,,,0,4,0,4,,,,,,,,,,,3401.9885,3402.4883,3402.7384,3406.7219,space,3.9729,,3406.7219,56,19,3407.7217,3407.7217,3407.7258,,,,0,27,27,27,1,125,20,,,,,,,,
,,612e61d2784b1a22530108c2,65af5677be6af047326a98e8,2024-01-23_08h03.27.390,bars,2023.2.3,Win32,60.24096386,657b66ea316d21385b68909f,,,,,,,,,,,3407.7258,3408.7218,,,3409.2221,3409.4717,,107,107,,,,,,,,,,,,,,,,bars/034.png,bars/mask001.png,,,,,,,,,,,,0,1,,,,,,,0,6,0,4,,,,,,,,,,,3408.7218,3409.2221,3409.4717,3412.7883,space,3.2982,,3412.7884,18,42,3413.7893,3413.7893,3413.7974,,,,0,28,28,28,1,125,65,,,,,,,,
,,612e61d2784b1a22530108c2,65af5677be6af047326a98e8,2024-01-23_08h03.27.390,bars,2023.2.3,Win32,60.24096386,657b66ea316d21385b68909f,,,,,,,,,,,3413.7975,3414.7884,,,3415.2887,3415.5385,,28,208,,,,,,,,,,,,,,,,bars/032.png,bars/mask001.png,,,,,,,,,,,,6,2,,,,,,,2,8,2,8,,,,,,,,,,,3414.7884,3415.2887,3415.5385,3420.5883,space,5.0383,,3420.5884,83,8,3421.5885,3421.5886,3421.5956,,,,0,29,29,29,1,125,20,,,,,,,,
,,612e61d2784b1a22530108c2,65af5677be6af047326a98e8,2024-01-23_08h03.27.390,bars,2023.2.3,Win32,60.24096386,657b66ea316d21385b68909f,,,,,,,,,,,3421.5956,3422.5882,,,3423.0883,3423.3384,,60,60,,,,,,,,,,,,,,,,bars/011.png,bars/mask004.png,,,,,,,,,,,,1,2,,,,,,,4,10,5,9,,,,,,,,,,,3422.5883,3423.0883,3423.3384,3426.5384,space,3.1816,,3426.5384,80,25,3427.5384,3427.5384,3427.5424,,,,0,30,30,30,1,160,85,,,,,,,,
,,612e61d2784b1a22530108c2,65af5677be6af047326a98e8,2024-01-23_08h03.27.390,bars,2023.2.3,Win32,60.24096386,657b66ea316d21385b68909f,,,,,,,,,,,3427.5425,3428.5384,,,3429.0385,3429.2884,,65,65,,,,,,,,,,,,,,,,bars/038.png,bars/mask000.png,,,,,,,,,,,,8,2,,,,,,,2,10,3,10,,,,,,,,,,,3428.5384,3429.0384,3429.2884,3431.6883,space,2.3909,,3431.6883,80,5,3432.6883,3432.6884,3432.6887,,,,0,31,31,31,1,165,70,,,,,,,,
,,612e61d2784b1a22530108c2,65af5677be6af047326a98e8,2024-01-23_08h03.27.390,bars,2023.2.3,Win32,60.24096386,657b66ea316d21385b68909f,,,,,,,,,,,3432.6888,3433.6883,,,3434.1884,3434.4383,,138,138,,,,,,,,,,,,,,,,bars/020.png,bars/mask000.png,,,,,,,,,,,,1,1,,,,,,,4,8,4,7,,,,,,,,,,,3433.6883,3434.1883,3434.4383,3437.3218,space,2.867,,3437.3218,23,32,3438.3218,3438.3218,3438.3287,,,,0,32,32,32,1,115,170,,,,,,,,
,,612e61d2784b1a22530108c2,65af5677be6af047326a98e8,2024-01-23_08h03.27.390,bars,2023.2.3,Win32,60.24096386,657b66ea316d21385b68909f,,,,,,,,,,,3438.3288,3439.322,,,3439.8219,3440.0716,,91,91,,,,,,,,,,,,,,,,bars/019.png,bars/mask005.png,,,,,,,,,,,,3,2,,,,,,,2,6,2,6,,,,,,,,,,,3439.322,3439.8219,3440.0716,3444.6049,space,4.5151,,3444.6049,46,14,3445.6049,3445.6049,3445.6097,,,,0,33,33,33,1,45,105,,,,,,,,
,,612e61d2784b1a22530108c2,65af5677be6af047326a98e8,2024-01-23_08h03.27.390,bars,2023.2.3,Win32,60.24096386,657b66ea316d21385b68909f,,,,,,,,,,,3445.6098,3446.6048,,,3447.1049,3447.355,,100,100,,,,,,,,,,,,,,,,bars/037.png,bars/mask005.png,,,,,,,,,,,,1,2,,,,,,,0,4,0,1,,,,,,,,,,,3446.6048,3447.1049,3447.355,3448.2882,space,0.9242,,3448.2882,50,5,3449.2883,3449.2883,3449.2886,,,,0,34,34,34,1,150,105,,,,,,,,
,,612e61d2784b1a22530108c2,65af5677be6af047326a98e8,2024-01-23_08h03.27.390,bars,2023.2.3,Win32,60.24096386,657b66ea316d21385b68909f,,,,,,,,,,,3449.2886,3450.2882,,,3450.7884,3451.0383,,120,120,,,,,,,,,,,,,,,,bars/028.png,bars/mask004.png,,,,,,,,,,,,2,2,,,,,,,2,2,2,2,,,,,,,,,,,3450.2882,3450.7882,3451.0383,3452.1215,space,1.0672,,3452.1215,75,0,3453.1215,3453.1215,3453.1256,,,,0,35,35,35,1,45,120,,,,,,,,
,,612e61d2784b1a22530108c2,65af5677be6af047326a98e8,2024-01-23_08h03.27.390,bars,2023.2.3,Win32,60.24096386,657b66ea316d21385b68909f,,,,,,,,,,,3453.1257,3454.1215,,,3454.6215,3454.8715,,52,52,,,,,,,,,,,,,,,,bars/046.png,bars/mask002.png,,,,,,,,,,,,0,2,,,,,,,0,0,0,1,,,,,,,,,,,3454.1215,3454.6215,3454.8715,3456.3549,space,1.4735,,3456.355,77,33,3457.3548,3457.3548,3457.3589,,,,0,36,36,36,1,155,85,,,,,,,,
,,612e61d2784b1a22530108c2,65af5677be6af047326a98e8,2024-01-23_08h03.27.390,bars,2023.2.3,Win32,60.24096386,657b66ea316d21385b68909f,,,,,,,,,,,3457.3589,3458.355,,,3458.8549,3459.1048,,136,-44,,,,,,,,,,,,,,,,bars/035.png,bars/mask006.png,,,,,,,,,,,,0,1,,,,,,,2,2,2,1,,,,,,,,,,,3458.355,3458.8549,3459.1049,3463.7882,space,4.6673,,3463.7882,39,76,3464.7886,3464.7886,3464.7963,,,,0,37,37,37,1,175,60,,,,,,,,
,,612e61d2784b1a22530108c2,65af5677be6af047326a98e8,2024-01-23_08h03.27.390,bars,2023.2.3,Win32,60.24096386,657b66ea316d21385b68909f,,,,,,,,,,,3464.7965,3465.7881,,,3466.288,3466.5381,,26,26,,,,,,,,,,,,,,,,bars/036.png,bars/mask000.png,,,,,,,,,,,,0,2,,,,,,,4,0,3,0,,,,,,,,,,,3465.7881,3466.288,3466.5381,3471.9384,space,5.3888,,3471.9385,61,6,3472.9382,3472.9383,3472.9437,,,,0,38,38,38,1,145,20,,,,,,,,
,,612e61d2784b1a22530108c2,65af5677be6af047326a98e8,2024-01-23_08h03.27.390,bars,2023.2.3,Win32,60.24096386,657b66ea316d21385b68909f,,,,,,,,,,,3472.9437,3473.9381,,,3474.4382,3474.6887,,44,224,,,,,,,,,,,,,,,,bars/031.png,bars/mask008.png,,,,,,,,,,,,1,2,,,,,,,2,2,3,1,,,,,,,,,,,3473.9381,3474.4382,3474.6887,3478.4215,space,3.7175,,3478.4215,76,9,3479.4215,3479.4216,3479.4288,,,,0,39,39,39,1,120,35,,,,,,,,
,,612e61d2784b1a22530108c2,65af5677be6af047326a98e8,2024-01-23_08h03.27.390,bars,2023.2.3,Win32,60.24096386,657b66ea316d21385b68909f,,,,,,,,,,,3479.4289,3480.4214,,,3480.9217,3481.1715,,135,135,,,,,,,,,,,,,,,,bars/006.png,bars/mask007.png,,,,,,,,,,,,0,2,,,,,,,0,0,0,0,,,,,,,,,,,3480.4214,3480.9217,3481.1715,3484.0381,space,2.851,,3484.0381,80,35,3485.0381,3485.0382,3485.0433,,,,0,40,40,40,1,35,100,,,,,,,,
,,612e61d2784b1a22530108c2,65af5677be6af047326a98e8,2024-01-23_08h03.27.390,bars,2023.2.3,Win32,60.24096386,657b66ea316d21385b68909f,,,,,,,,,,,3485.0434,3486.0381,,,3486.5381,3486.7882,,3,183,,,,,,,,,,,,,,,,bars/008.png,bars/mask000.png,,,,,,,,,,,,0,2,,,,,,,2,0,2,0,,,,,,,,,,,3486.0381,3486.5381,3486.7882,3489.1714,space,2.3705,,3489.1715,73,3,3490.1714,3490.1715,3490.1767,,,,0,41,41,41,1,110,0,,,,,,,,
,,612e61d2784b1a22530108c2,65af5677be6af047326a98e8,2024-01-23_08h03.27.390,bars,2023.2.3,Win32,60.24096386,657b66ea316d21385b68909f,,,,,,,,,,,3490.1768,3491.1716,,,3491.6714,3491.9216,,142,-38,,,,,,,,,,,,,,,,bars/005.png,bars/mask003.png,,,,,,,,,,,,0,2,,,,,,,0,2,1,0,,,,,,,,,,,3491.1716,3491.6714,3491.9217,3494.9881,space,3.0522,,3494.9882,48,2,3495.9882,3495.9882,3495.9949,,,,0,42,42,42,1,10,140,,,,,,,,
,,612e61d2784b1a22530108c2,65af5677be6af047326a98e8,2024-01-23_08h03.27.390,bars,2023.2.3,Win32,60.24096386,657b66ea316d21385b68909f,,,,,,,,,,,3495.9951,3496.988,,,3497.488,3497.7379,,67,67,,,,,,,,,,,,,,,,bars/018.png,bars/mask008.png,,,,,,,,,,,,0,2,,,,,,,0,0,0,0,,,,,,,,,,,3496.9881,3497.488,3497.7379,3500.8714,space,3.117,,3500.8714,83,23,3501.8713,3501.8713,3501.8756,,,,0,43,43,43,1,150,90,,,,,,,,
,,612e61d2784b1a22530108c2,65af5677be6af047326a98e8,2024-01-23_08h03.27.390,bars,2023.2.3,Win32,60.24096386,657b66ea316d21385b68909f,,,,,,,,,,,3501.8756,3502.8713,,,3503.3713,3503.6213,,114,114,,,,,,,,,,,,,,,,bars/026.png,bars/mask006.png,,,,,,,,,,,,0,2,,,,,,,2,0,0,1,,,,,,,,,,,3502.8713,3503.3713,3503.6213,3506.7049,space,3.0736,,3506.7049,79,29,3507.7047,3507.7047,3507.7107,,,,0,44,44,44,1,35,85,,,,,,,,
,,612e61d2784b1a22530108c2,65af5677be6af047326a98e8,2024-01-23_08h03.27.390,bars,2023.2.3,Win32,60.24096386,657b66ea316d21385b68909f,,,,,,,,,,,3507.7108,3508.7047,,,3509.2047,3509.4551,,41,41,,,,,,,,,,,,,,,,bars/025.png,bars/mask003.png,,,,,,,,,,,,2,2,,,,,,,0,2,1,2,,,,,,,,,,,3508.7048,3509.2047,3509.4551,3514.1879,space,4.7163,,3514.188,64,1,3515.188,3515.1881,3515.192,,,,0,45,45,45,1,105,40,,,,,,,,
,,612e61d2784b1a22530108c2,65af5677be6af047326a98e8,2024-01-23_08h03.27.390,bars,2023.2.3,Win32,60.24096386,657b66ea316d21385b68909f,,,,,,,,,,,3515.1921,3516.1878,,,3516.688,3516.938,,39,219,,,,,,,,,,,,,,,,bars/022.png,bars/mask003.png,,,,,,,,,,,,2,2,,,,,,,0,4,1,5,,,,,,,,,,,3516.1878,3516.688,3516.938,3521.0545,space,4.0997,,3521.0545,56,19,3522.0545,3522.0545,3522.0585,,,,0,46,46,46,1,95,20,,,,,,,,
,,612e61d2784b1a22530108c2,65af5677be6af047326a98e8,2024-01-23_08h03.27.390,bars,2023.2.3,Win32,60.24096386,657b66ea316d21385b68909f,,,,,,,,,,,3522.0586,3523.0544,,,3523.5548,3523.8044,,34,34,,,,,,,,,,,,,,,,bars/017.png,bars/mask001.png,,,,,,,,,,,,1,2,,,,,,,0,2,0,2,,,,,,,,,,,3523.0544,3523.5547,3523.8044,3524.6384,space,0.8268,,3524.6384,69,11,3525.6379,3525.638,3525.6383,,,,0,47,47,47,1,145,45,,,,,,,,
,,612e61d2784b1a22530108c2,65af5677be6af047326a98e8,2024-01-23_08h03.27.390,bars,2023.2.3,Win32,60.24096386,657b66ea316d21385b68909f,,,,,,,,,,,3525.6384,3526.6382,,,3527.1379,3527.3879,,146,146,,,,,,,,,,,,,,,,bars/044.png,bars/mask009.png,,,,,,,,,,,,0,2,,,,,,,0,0,1,0,,,,,,,,,,,3526.6382,3527.1379,3527.3879,3532.3212,space,4.9227,,3532.3212,71,9,3533.3211,3533.3211,3533.3251,,,,0,48,48,48,1,75,155,,,,,,,,
,,612e61d2784b1a22530108c2,65af5677be6af047326a98e8,2024-01-23_08h03.27.390,bars,2023.2.3,Win32,60.24096386,657b66ea316d21385b68909f,,,,,,,,,,,3533.3253,3534.3213,,,3534.8214,3535.0714,,2,2,,,,,,,,,,,,,,,,bars/032.png,bars/mask001.png,,,,,,,,,,,,0,2,,,,,,,2,2,4,1,,,,,,,,,,,3534.3213,3534.8214,3535.0714,3535.705,space,0.624,,3535.705,57,18,3536.7047,3536.7047,3536.7051,,,,0,49,49,49,1,125,20,,,,,,,,
,,612e61d2784b1a22530108c2,65af5677be6af047326a98e8,2024-01-23_08h03.27.390,bars,2023.2.3,Win32,60.24096386,657b66ea316d21385b68909f,,,,,,,,,,,,,,,,,,,,,,,,,,,,,,,,,,,,,,,,,,,,,,,,,,,,,,,,,,,,,,,,,,,,,,,,,,,,,,,,,,,,,,,,,,,,,3536.7053,3596.7045,0,2,2,1,1,sequence_tables/blk044.csv
,,612e61d2784b1a22530108c2,65af5677be6af047326a98e8,2024-01-23_08h03.27.390,bars,2023.2.3,Win32,60.24096386,657b66ea316d21385b68909f,,,,,,,,,,,3601.9274,3602.9214,,,3603.4211,3603.6709,,144,-36,,,,,,,,,,,,,,,,bars/000.png,bars/mask009.png,,,,,,,,,,,,5,2,,,,,,,5,5,4,5,,,,,,3596.7118,3601.9211,space,5.2011,,3602.9214,3603.4211,3603.6709,3608.8711,space,5.185,,3608.8711,76,1,3609.871,3609.8711,3609.876,,,,0,0,0,0,1,40,145,,,,,,,,
,,612e61d2784b1a22530108c2,65af5677be6af047326a98e8,2024-01-23_08h03.27.390,bars,2023.2.3,Win32,60.24096386,657b66ea316d21385b68909f,,,,,,,,,,,3609.8761,3610.8711,,,3611.3711,3611.6211,,25,25,,,,,,,,,,,,,,,,bars/043.png,bars/mask007.png,,,,,,,,,,,,2,1,,,,,,,3,3,2,2,,,,,,,,,,,3610.8712,3611.3711,3611.6211,3614.9387,space,3.302,,3614.9387,5,75,3615.9381,3615.9381,3615.947,,,,0,1,1,1,1,30,130,,,,,,,,
,,612e61d2784b1a22530108c2,65af5677be6af047326a98e8,2024-01-23_08h03.27.390,bars,2023.2.3,Win32,60.24096386,657b66ea316d21385b68909f,,,,,,,,,,,3615.9471,3616.9376,,,3617.4375,3617.6875,,129,129,,,,,,,,,,,,,,,,bars/003.png,bars/mask008.png,,,,,,,,,,,,1,2,,,,,,,5,1,6,1,,,,,,,,,,,3616.9376,3617.4375,3617.6875,3621.4043,space,3.7004,,3621.4043,76,11,3622.4042,3622.4042,3622.4086,,,,0,2,2,2,1,25,140,,,,,,,,
,,612e61d2784b1a22530108c2,65af5677be6af047326a98e8,2024-01-23_08h03.27.390,bars,2023.2.3,Win32,60.24096386,657b66ea316d21385b68909f,,,,,,,,,,,3622.4086,3623.4043,,,3623.9042,3624.1541,,139,139,,,,,,,,,,,,,,,,bars/023.png,bars/mask004.png,,,,,,,,,,,,1,2,,,,,,,3,3,5,4,,,,,,,,,,,3623.4044,3623.9042,3624.1541,3630.054,space,5.8942,,3630.0541,61,24,3631.0541,3631.0541,3631.0585,,,,0,3,3,3,1,20,115,,,,,,,,
,,612e61d2784b1a22530108c2,65af5677be6af047326a98e8,2024-01-23_08h03.27.390,bars,2023.2.3,Win32,60.24096386,657b66ea316d21385b68909f,,,,,,,,,,,3631.0586,3632.0541,,,3632.5541,3632.804,,135,135,,,,,,,,,,,,,,,,bars/040.png,bars/mask008.png,,,,,,,,,,,,1,1,,,,,,,1,5,1,5,,,,,,,,,,,3632.0541,3632.5541,3632.804,3639.1374,space,6.315,,3639.1374,5,50,3640.1373,3640.1373,3640.142,,,,0,4,4,4,1,140,5,,,,,,,,
,,612e61d2784b1a22530108c2,65af5677be6af047326a98e8,2024-01-23_08h03.27.390,bars,2023.2.3,Win32,60.24096386,657b66ea316d21385b68909f,,,,,,,,,,,3640.1421,3641.1374,,,3641.6374,3641.8873,,47,47,,,,,,,,,,,,,,,,bars/007.png,bars/mask001.png,,,,,,,,,,,,1,2,,,,,,,0,3,0,2,,,,,,,,,,,3641.1374,3641.6374,3641.8873,3646.0543,space,4.159,,3646.0543,52,8,3647.0542,3647.0542,3647.0608,,,,0,5,5,5,1,175,55,,,,,,,,
,,612e61d2784b1a22530108c2,65af5677be6af047326a98e8,2024-01-23_08h03.27.390,bars,2023.2.3,Win32,60.24096386,657b66ea316d21385b68909f,,,,,,,,,,,3647.0609,3648.0549,,,3648.555,3648.8045,,24,204,,,,,,,,,,,,,,,,bars/013.png,bars/mask003.png,,,,,,,,,,,,1,2,,,,,,,2,1,3,1,,,,,,,,,,,3648.0549,3648.5549,3648.8045,3654.3539,space,5.5392,,3654.3539,51,14,3655.3539,3655.3539,3655.3581,,,,0,6,6,6,1,75,10,,,,,,,,
,,612e61d2784b1a22530108c2,65af5677be6af047326a98e8,2024-01-23_08h03.27.390,bars,2023.2.3,Win32,60.24096386,657b66ea316d21385b68909f,,,,,,,,,,,3655.3582,3656.3539,,,3656.854,3657.104,,122,-58,,,,,,,,,,,,,,,,bars/008.png,bars/mask001.png,,,,,,,,,,,,3,1,,,,,,,4,3,5,3,,,,,,,,,,,3656.3539,3656.854,3657.104,3661.054,space,3.9361,,3661.054,12,58,3662.0541,3662.0541,3662.0586,,,,0,7,7,7,1,110,0,,,,,,,,
,,612e61d2784b1a22530108c2,65af5677be6af047326a98e8,2024-01-23_08h03.27.390,bars,2023.2.3,Win32,60.24096386,657b66ea316d21385b68909f,,,,,,,,,,,3662.0586,3663.054,,,3663.5541,3663.8039,,33,33,,,,,,,,,,,,,,,,bars/012.png,bars/mask003.png,,,,,,,,,,,,2,2,,,,,,,2,5,1,6,,,,,,,,,,,3663.054,3663.5541,3663.8039,3666.5208,space,2.7075,,3666.5209,57,18,3667.5206,3667.5206,3667.525,,,,0,8,8,8,1,90,15,,,,,,,,
,,612e61d2784b1a22530108c2,65af5677be6af047326a98e8,2024-01-23_08h03.27.390,bars,2023.2.3,Win32,60.24096386,657b66ea316d21385b68909f,,,,,,,,,,,3667.525,3668.5208,,,3669.0206,3669.2707,,61,61,,,,,,,,,,,,,,,,bars/001.png,bars/mask008.png,,,,,,,,,,,,1,2,,,,,,,4,3,4,4,,,,,,,,,,,3668.5208,3669.0206,3669.2707,3673.1706,space,3.8836,,3673.1706,69,24,3674.1706,3674.1707,3674.1747,,,,0,9,9,9,1,130,85,,,,,,,,
,,612e61d2784b1a22530108c2,65af5677be6af047326a98e8,2024-01-23_08h03.27.390,bars,2023.2.3,Win32,60.24096386,657b66ea316d21385b68909f,,,,,,,,,,,3674.1748,3675.1706,,,3675.6708,3675.9206,,87,87,,,,,,,,,,,,,,,,bars/039.png,bars/mask000.png,,,,,,,,,,,,2,2,,,,,,,2,5,3,5,,,,,,,,,,,3675.1706,3675.6708,3675.9206,3678.804,space,2.8695,,3678.804,88,18,3679.8039,3679.8039,3679.8092,,,,0,10,10,10,1,175,105,,,,,,,,
,,612e61d2784b1a22530108c2,65af5677be6af047326a98e8,2024-01-23_08h03.27.390,bars,2023.2.3,Win32,60.24096386,657b66ea316d21385b68909f,,,,,,,,,,,3679.8092,3680.8039,,,3681.3037,3681.5538,,51,51,,,,,,,,,,,,,,,,bars/025.png,bars/mask002.png,,,,,,,,,,,,4,2,,,,,,,0,7,0,6,,,,,,,,,,,3680.8039,3681.3037,3681.5538,3685.8038,space,4.2335,,3685.8038,54,11,3686.8038,3686.8038,3686.8078,,,,0,11,11,11,1,105,40,,,,,,,,
,,612e61d2784b1a22530108c2,65af5677be6af047326a98e8,2024-01-23_08h03.27.390,bars,2023.2.3,Win32,60.24096386,657b66ea316d21385b68909f,,,,,,,,,,,3686.808,3687.8038,,,3688.3038,3688.5539,,52,52,,,,,,,,,,,,,,,,bars/035.png,bars/mask008.png,,,,,,,,,,,,6,2,,,,,,,0,9,0,8,,,,,,,,,,,3687.8038,3688.3038,3688.5539,3692.8039,space,4.2316,,3692.8039,57,8,3693.8038,3693.8038,3693.8077,,,,0,12,12,12,1,175,60,,,,,,,,
,,612e61d2784b1a22530108c2,65af5677be6af047326a98e8,2024-01-23_08h03.27.390,bars,2023.2.3,Win32,60.24096386,657b66ea316d21385b68909f,,,,,,,,,,,3693.8078,3694.8037,,,3695.3039,3695.5541,,98,98,,,,,,,,,,,,,,,,bars/019.png,bars/mask000.png,,,,,,,,,,,,5,2,,,,,,,2,7,3,7,,,,,,,,,,,3694.8038,3695.3039,3695.5541,3698.4706,space,2.9082,,3698.4707,53,7,3699.4704,3699.4705,3699.4746,,,,0,13,13,13,1,45,105,,,,,,,,
,,612e61d2784b1a22530108c2,65af5677be6af047326a98e8,2024-01-23_08h03.27.390,bars,2023.2.3,Win32,60.24096386,657b66ea316d21385b68909f,,,,,,,,,,,3699.4746,3700.4704,,,3700.9705,3701.2205,,53,233,,,,,,,,,,,,,,,,bars/035.png,bars/mask006.png,,,,,,,,,,,,8,2,,,,,,,0,9,0,10,,,,,,,,,,,3700.4705,3700.9704,3701.2205,3705.0206,space,3.7854,,3705.0207,58,7,3706.0208,3706.0209,3706.0282,,,,0,14,14,14,1,175,60,,,,,,,,
,,612e61d2784b1a22530108c2,65af5677be6af047326a98e8,2024-01-23_08h03.27.390,bars,2023.2.3,Win32,60.24096386,657b66ea316d21385b68909f,,,,,,,,,,,3706.0284,3707.0205,,,3707.5207,3707.7706,,138,-42,,,,,,,,,,,,,,,,bars/026.png,bars/mask008.png,,,,,,,,,,,,0,2,,,,,,,0,7,1,7,,,,,,,,,,,3707.0205,3707.5206,3707.7706,3712.104,space,4.3151,,3712.104,77,53,3713.1038,3713.1038,3713.1078,,,,0,15,15,15,1,35,85,,,,,,,,
,,612e61d2784b1a22530108c2,65af5677be6af047326a98e8,2024-01-23_08h03.27.390,bars,2023.2.3,Win32,60.24096386,657b66ea316d21385b68909f,,,,,,,,,,,3713.1079,3714.1038,,,3714.6037,3714.8538,,38,218,,,,,,,,,,,,,,,,bars/035.png,bars/mask006.png,,,,,,,,,,,,2,2,,,,,,,0,9,2,6,,,,,,,,,,,3714.1038,3714.6037,3714.8538,3718.8056,space,3.9356,,3718.8056,43,22,3719.8037,3719.8037,3719.8077,,,,0,16,16,16,1,175,60,,,,,,,,
,,612e61d2784b1a22530108c2,65af5677be6af047326a98e8,2024-01-23_08h03.27.390,bars,2023.2.3,Win32,60.24096386,657b66ea316d21385b68909f,,,,,,,,,,,3719.8078,3720.8039,,,3721.3037,3721.5537,,155,-25,,,,,,,,,,,,,,,,bars/024.png,bars/mask006.png,,,,,,,,,,,,4,2,,,,,,,2,7,2,7,,,,,,,,,,,3720.8039,3721.3036,3721.5537,3724.4871,space,2.9242,,3724.4871,35,15,3725.4869,3725.4869,3725.4912,,,,0,17,17,17,1,120,170,,,,,,,,
,,612e61d2784b1a22530108c2,65af5677be6af047326a98e8,2024-01-23_08h03.27.390,bars,2023.2.3,Win32,60.24096386,657b66ea316d21385b68909f,,,,,,,,,,,3725.4912,3726.4869,,,3726.987,3727.2371,,132,132,,,,,,,,,,,,,,,,bars/026.png,bars/mask004.png,,,,,,,,,,,,0,2,,,,,,,0,5,0,4,,,,,,,,,,,3726.4869,3726.987,3727.2371,3728.4204,space,1.1769,,3728.4204,83,47,3729.4202,3729.4202,3729.4207,,,,0,18,18,18,1,35,85,,,,,,,,
,,612e61d2784b1a22530108c2,65af5677be6af047326a98e8,2024-01-23_08h03.27.390,bars,2023.2.3,Win32,60.24096386,657b66ea316d21385b68909f,,,,,,,,,,,3729.4207,3730.4208,,,3730.9209,3731.1704,,39,39,,,,,,,,,,,,,,,,bars/047.png,bars/mask002.png,,,,,,,,,,,,0,1,,,,,,,2,7,1,8,,,,,,,,,,,3730.4208,3730.9209,3731.1704,3735.737,space,4.5555,,3735.737,24,31,3736.7371,3736.7371,3736.7415,,,,0,19,19,19,1,15,70,,,,,,,,
,,612e61d2784b1a22530108c2,65af5677be6af047326a98e8,2024-01-23_08h03.27.390,bars,2023.2.3,Win32,60.24096386,657b66ea316d21385b68909f,,,,,,,,,,,3736.7415,3737.7369,,,3738.237,3738.4869,,83,83,,,,,,,,,,,,,,,,bars/038.png,bars/mask004.png,,,,,,,,,,,,3,2,,,,,,,0,5,0,5,,,,,,,,,,,3737.7369,3738.237,3738.4869,3740.5702,space,2.065,,3740.5702,82,13,3741.5702,3741.5703,3741.5709,,,,0,20,20,20,1,165,70,,,,,,,,
,,612e61d2784b1a22530108c2,65af5677be6af047326a98e8,2024-01-23_08h03.27.390,bars,2023.2.3,Win32,60.24096386,657b66ea316d21385b68909f,,,,,,,,,,,3741.571,3742.5702,,,3743.0703,3743.3202,,63,63,,,,,,,,,,,,,,,,bars/002.png,bars/mask009.png,,,,,,,,,,,,1,2,,,,,,,2,3,2,4,,,,,,,,,,,3742.5702,3743.0703,3743.3203,3749.9702,space,6.6315,,3749.9702,67,22,3750.9702,3750.9702,3750.9745,,,,0,21,21,21,1,130,85,,,,,,,,
,,612e61d2784b1a22530108c2,65af5677be6af047326a98e8,2024-01-23_08h03.27.390,bars,2023.2.3,Win32,60.24096386,657b66ea316d21385b68909f,,,,,,,,,,,3750.9746,3751.9702,,,3752.4702,3752.7201,,114,114,,,,,,,,,,,,,,,,bars/026.png,bars/mask009.png,,,,,,,,,,,,0,2,,,,,,,4,5,3,4,,,,,,,,,,,3751.9702,3752.4702,3752.7201,3756.8037,space,4.0712,,3756.8038,79,29,3757.8036,3757.8037,3757.8115,,,,0,22,22,22,1,35,85,,,,,,,,
,,612e61d2784b1a22530108c2,65af5677be6af047326a98e8,2024-01-23_08h03.27.390,bars,2023.2.3,Win32,60.24096386,657b66ea316d21385b68909f,,,,,,,,,,,3757.8115,3758.8035,,,3759.3037,3759.5537,,32,212,,,,,,,,,,,,,,,,bars/024.png,bars/mask001.png,,,,,,,,,,,,0,2,,,,,,,6,3,5,2,,,,,,,,,,,3758.8036,3759.3037,3759.5538,3763.5869,space,4.0217,,3763.587,88,42,3764.5868,3764.5868,3764.5909,,,,0,23,23,23,1,120,170,,,,,,,,
,,612e61d2784b1a22530108c2,65af5677be6af047326a98e8,2024-01-23_08h03.27.390,bars,2023.2.3,Win32,60.24096386,657b66ea316d21385b68909f,,,,,,,,,,,3764.591,3765.5868,,,3766.087,3766.3373,,125,125,,,,,,,,,,,,,,,,bars/037.png,bars/mask009.png,,,,,,,,,,,,1,2,,,,,,,4,1,4,3,,,,,,,,,,,3765.5869,3766.087,3766.3373,3770.3036,space,3.9486,,3770.3036,25,20,3771.3039,3771.3039,3771.3108,,,,0,24,24,24,1,150,105,,,,,,,,
,,612e61d2784b1a22530108c2,65af5677be6af047326a98e8,2024-01-23_08h03.27.390,bars,2023.2.3,Win32,60.24096386,657b66ea316d21385b68909f,,,,,,,,,,,3771.3109,3772.3036,,,3772.8036,3773.0536,,41,41,,,,,,,,,,,,,,,,bars/036.png,bars/mask000.png,,,,,,,,,,,,0,2,,,,,,,2,0,1,0,,,,,,,,,,,3772.3036,3772.8035,3773.0536,3777.4201,space,4.3519,,3777.4201,76,21,3778.4201,3778.4201,3778.424,,,,0,25,25,25,1,145,20,,,,,,,,
,,612e61d2784b1a22530108c2,65af5677be6af047326a98e8,2024-01-23_08h03.27.390,bars,2023.2.3,Win32,60.24096386,657b66ea316d21385b68909f,,,,,,,,,,,3778.4241,3779.4202,,,3779.9202,3780.1701,,120,120,,,,,,,,,,,,,,,,bars/028.png,bars/mask004.png,,,,,,,,,,,,1,2,,,,,,,0,0,1,1,,,,,,,,,,,3779.4202,3779.9202,3780.1701,3781.4202,space,1.2436,,3781.4202,75,0,3782.42,3782.4201,3782.4204,,,,0,26,26,26,1,45,120,,,,,,,,
,,612e61d2784b1a22530108c2,65af5677be6af047326a98e8,2024-01-23_08h03.27.390,bars,2023.2.3,Win32,60.24096386,657b66ea316d21385b68909f,,,,,,,,,,,3782.4205,3783.4201,,,3783.9202,3784.1702,,137,137,,,,,,,,,,,,,,,,bars/028.png,bars/mask009.png,,,,,,,,,,,,0,2,,,,,,,0,0,1,0,,,,,,,,,,,3783.4201,3783.9202,3784.1702,3788.6701,space,4.4859,,3788.6702,88,17,3789.67,3789.67,3789.6741,,,,0,27,27,27,1,45,120,,,,,,,,
,,612e61d2784b1a22530108c2,65af5677be6af047326a98e8,2024-01-23_08h03.27.390,bars,2023.2.3,Win32,60.24096386,657b66ea316d21385b68909f,,,,,,,,,,,3789.6741,3790.6702,,,3791.1701,3791.4201,,175,175,,,,,,,,,,,,,,,,bars/016.png,bars/mask001.png,,,,,,,,,,,,0,2,,,,,,,0,0,0,0,,,,,,,,,,,3790.6702,3791.1701,3791.4201,3794.8534,space,3.4197,,3794.8535,45,10,3795.8534,3795.8534,3795.8576,,,,0,28,28,28,1,40,165,,,,,,,,
,,612e61d2784b1a22530108c2,65af5677be6af047326a98e8,2024-01-23_08h03.27.390,bars,2023.2.3,Win32,60.24096386,657b66ea316d21385b68909f,,,,,,,,,,,3795.8577,3796.8535,,,3797.3534,3797.6035,,176,176,,,,,,,,,,,,,,,,bars/032.png,bars/mask001.png,,,,,,,,,,,,0,2,,,,,,,0,2,0,2,,,,,,,,,,,3796.8535,3797.3534,3797.6035,3799.5202,space,1.8985,,3799.5202,51,24,3800.5201,3800.5202,3800.5206,,,,0,29,29,29,1,125,20,,,,,,,,
,,612e61d2784b1a22530108c2,65af5677be6af047326a98e8,2024-01-23_08h03.27.390,bars,2023.2.3,Win32,60.24096386,657b66ea316d21385b68909f,,,,,,,,,,,3800.5207,3801.5199,,,3802.02,3802.2701,,116,116,,,,,,,,,,,,,,,,bars/043.png,bars/mask005.png,,,,,,,,,,,,2,2,,,,,,,2,4,3,3,,,,,,,,,,,3801.5199,3802.02,3802.2701,3804.8367,space,2.5509,,3804.8367,86,14,3805.8367,3805.8368,3805.8433,,,,0,30,30,30,1,30,130,,,,,,,,
,,612e61d2784b1a22530108c2,65af5677be6af047326a98e8,2024-01-23_08h03.27.390,bars,2023.2.3,Win32,60.24096386,657b66ea316d21385b68909f,,,,,,,,,,,3805.8433,3806.8367,,,3807.3367,3807.5866,,48,48,,,,,,,,,,,,,,,,bars/012.png,bars/mask002.png,,,,,,,,,,,,0,2,,,,,,,4,2,4,2,,,,,,,,,,,3806.8367,3807.3367,3807.5866,3811.3033,space,3.6999,,3811.3033,42,33,3812.3032,3812.3033,3812.3073,,,,0,31,31,31,1,90,15,,,,,,,,
,,612e61d2784b1a22530108c2,65af5677be6af047326a98e8,2024-01-23_08h03.27.390,bars,2023.2.3,Win32,60.24096386,657b66ea316d21385b68909f,,,,,,,,,,,3812.3074,3813.3033,,,3813.8034,3814.0533,,30,30,,,,,,,,,,,,,,,,bars/031.png,bars/mask001.png,,,,,,,,,,,,3,2,,,,,,,6,4,6,4,,,,,,,,,,,3813.3033,3813.8033,3814.0533,3814.92,space,0.8563,,3814.9201,90,5,3815.9201,3815.9201,3815.9204,,,,0,32,32,32,1,120,35,,,,,,,,
,,612e61d2784b1a22530108c2,65af5677be6af047326a98e8,2024-01-23_08h03.27.390,bars,2023.2.3,Win32,60.24096386,657b66ea316d21385b68909f,,,,,,,,,,,3815.9205,3816.92,,,3817.42,3817.6699,,51,51,,,,,,,,,,,,,,,,bars/002.png,bars/mask004.png,,,,,,,,,,,,0,2,,,,,,,8,6,7,5,,,,,,,,,,,3816.92,3817.42,3817.6699,3818.4703,space,0.7921,,3818.4704,79,34,3819.4702,3819.4702,3819.4706,,,,0,33,33,33,1,130,85,,,,,,,,
,,612e61d2784b1a22530108c2,65af5677be6af047326a98e8,2024-01-23_08h03.27.390,bars,2023.2.3,Win32,60.24096386,657b66ea316d21385b68909f,,,,,,,,,,,3819.4708,3820.4699,,,3820.9699,3821.2201,,133,133,,,,,,,,,,,,,,,,bars/029.png,bars/mask002.png,,,,,,,,,,,,0,1,,,,,,,6,4,6,5,,,,,,,,,,,3820.47,3820.9699,3821.2201,3821.4367,space,0.2035,,3821.4367,43,88,3822.4366,3822.4366,3822.4374,,,,0,34,34,34,1,90,45,,,,,,,,
,,612e61d2784b1a22530108c2,65af5677be6af047326a98e8,2024-01-23_08h03.27.390,bars,2023.2.3,Win32,60.24096386,657b66ea316d21385b68909f,,,,,,,,,,,3822.4375,3823.4368,,,3823.9367,3824.1866,,43,43,,,,,,,,,,,,,,,,bars/007.png,bars/mask006.png,,,,,,,,,,,,2,2,,,,,,,8,2,7,3,,,,,,,,,,,3823.4368,3823.9367,3824.1866,3824.9201,space,0.7227,,3824.9201,48,12,3825.9199,3825.92,3825.9206,,,,0,35,35,35,1,175,55,,,,,,,,
,,612e61d2784b1a22530108c2,65af5677be6af047326a98e8,2024-01-23_08h03.27.390,bars,2023.2.3,Win32,60.24096386,657b66ea316d21385b68909f,,,,,,,,,,,3825.9207,3826.9199,,,3827.42,3827.6699,,125,125,,,,,,,,,,,,,,,,bars/005.png,bars/mask007.png,,,,,,,,,,,,0,2,,,,,,,6,0,7,0,,,,,,,,,,,3826.9199,3827.42,3827.6699,3829.7699,space,2.0836,,3829.77,65,15,3830.7701,3830.7701,3830.7708,,,,0,36,36,36,1,10,140,,,,,,,,
,,612e61d2784b1a22530108c2,65af5677be6af047326a98e8,2024-01-23_08h03.27.390,bars,2023.2.3,Win32,60.24096386,657b66ea316d21385b68909f,,,,,,,,,,,3830.771,3831.7699,,,3832.2701,3832.5201,,27,27,,,,,,,,,,,,,,,,bars/029.png,bars/mask009.png,,,,,,,,,,,,0,2,,,,,,,4,2,3,1,,,,,,,,,,,3831.77,3832.2701,3832.5201,3833.5201,space,0.9909,,3833.5202,63,18,3834.5198,3834.5198,3834.5203,,,,0,37,37,37,1,90,45,,,,,,,,
,,612e61d2784b1a22530108c2,65af5677be6af047326a98e8,2024-01-23_08h03.27.390,bars,2023.2.3,Win32,60.24096386,657b66ea316d21385b68909f,,,,,,,,,,,3834.5203,3835.52,,,3836.02,3836.2703,,146,146,,,,,,,,,,,,,,,,bars/024.png,bars/mask008.png,,,,,,,,,,,,1,2,,,,,,,2,4,1,4,,,,,,,,,,,3835.5201,3836.02,3836.2703,3839.32,space,3.0307,,3839.32,26,24,3840.3198,3840.3198,3840.3239,,,,0,38,38,38,1,120,170,,,,,,,,
,,612e61d2784b1a22530108c2,65af5677be6af047326a98e8,2024-01-23_08h03.27.390,bars,2023.2.3,Win32,60.24096386,657b66ea316d21385b68909f,,,,,,,,,,,3840.3239,3841.32,,,3841.8199,3842.0699,,151,151,,,,,,,,,,,,,,,,bars/020.png,bars/mask003.png,,,,,,,,,,,,2,2,,,,,,,4,6,4,6,,,,,,,,,,,3841.32,3841.8198,3842.0699,3847.3701,space,5.2893,,3847.3704,36,19,3848.3699,3848.3699,3848.374,,,,0,39,39,39,1,115,170,,,,,,,,
,,612e61d2784b1a22530108c2,65af5677be6af047326a98e8,2024-01-23_08h03.27.390,bars,2023.2.3,Win32,60.24096386,657b66ea316d21385b68909f,,,,,,,,,,,3848.3741,3849.37,,,3849.8698,3850.1198,,178,178,,,,,,,,,,,,,,,,bars/043.png,bars/mask003.png,,,,,,,,,,,,0,1,,,,,,,2,4,2,2,,,,,,,,,,,3849.37,3849.8698,3850.1198,3850.92,space,0.7841,,3850.9201,32,48,3851.92,3851.92,3851.921,,,,0,40,40,40,1,30,130,,,,,,,,
,,612e61d2784b1a22530108c2,65af5677be6af047326a98e8,2024-01-23_08h03.27.390,bars,2023.2.3,Win32,60.24096386,657b66ea316d21385b68909f,,,,,,,,,,,3851.9212,3852.9203,,,3853.4202,3853.6698,,145,-35,,,,,,,,,,,,,,,,bars/016.png,bars/mask003.png,,,,,,,,,,,,1,2,,,,,,,4,2,7,2,,,,,,,,,,,3852.9203,3853.4202,3853.6699,3859.2369,space,5.5521,,3859.237,75,20,3860.2367,3860.2368,3860.2421,,,,0,41,41,41,1,40,165,,,,,,,,
,,612e61d2784b1a22530108c2,65af5677be6af047326a98e8,2024-01-23_08h03.27.390,bars,2023.2.3,Win32,60.24096386,657b66ea316d21385b68909f,,,,,,,,,,,3860.2422,3861.2368,,,3861.7374,3861.9865,,46,46,,,,,,,,,,,,,,,,bars/028.png,bars/mask000.png,,,,,,,,,,,,7,1,,,,,,,6,4,7,5,,,,,,,,,,,3861.2368,3861.7373,3861.9866,3862.8867,space,0.8851,,3862.8867,1,74,3863.8864,3863.8865,3863.8871,,,,0,42,42,42,1,45,120,,,,,,,,
,,612e61d2784b1a22530108c2,65af5677be6af047326a98e8,2024-01-23_08h03.27.390,bars,2023.2.3,Win32,60.24096386,657b66ea316d21385b68909f,,,,,,,,,,,3863.8872,3864.8865,,,3865.3864,3865.6364,,39,39,,,,,,,,,,,,,,,,bars/022.png,bars/mask008.png,,,,,,,,,,,,1,2,,,,,,,4,2,4,3,,,,,,,,,,,3864.8865,3865.3864,3865.6364,3866.2033,space,0.5484,,3866.2034,56,19,3867.203,3867.2031,3867.2037,,,,0,43,43,43,1,95,20,,,,,,,,
,,612e61d2784b1a22530108c2,65af5677be6af047326a98e8,2024-01-23_08h03.27.390,bars,2023.2.3,Win32,60.24096386,657b66ea316d21385b68909f,,,,,,,,,,,3867.2038,3868.203,,,3868.7032,3868.953,,138,138,,,,,,,,,,,,,,,,bars/023.png,bars/mask003.png,,,,,,,,,,,,0,2,,,,,,,6,0,5,1,,,,,,,,,,,3868.203,3868.7032,3868.9531,3872.2698,space,3.3004,,3872.2698,62,23,3873.2699,3873.2699,3873.2747,,,,0,44,44,44,1,20,115,,,,,,,,
,,612e61d2784b1a22530108c2,65af5677be6af047326a98e8,2024-01-23_08h03.27.390,bars,2023.2.3,Win32,60.24096386,657b66ea316d21385b68909f,,,,,,,,,,,3873.2748,3874.2696,,,3874.77,3875.0199,,157,157,,,,,,,,,,,,,,,,bars/037.png,bars/mask000.png,,,,,,,,,,,,2,1,,,,,,,4,0,3,0,,,,,,,,,,,3874.2697,3874.77,3875.0199,3876.153,space,1.1234,,3876.1531,7,52,3877.1531,3877.1531,3877.1574,,,,0,45,45,45,1,150,105,,,,,,,,
,,612e61d2784b1a22530108c2,65af5677be6af047326a98e8,2024-01-23_08h03.27.390,bars,2023.2.3,Win32,60.24096386,657b66ea316d21385b68909f,,,,,,,,,,,3877.1575,3878.153,,,3878.6531,3878.9034,,104,104,,,,,,,,,,,,,,,,bars/005.png,bars/mask003.png,,,,,,,,,,,,0,2,,,,,,,6,2,6,1,,,,,,,,,,,3878.153,3878.6531,3878.9034,3879.5032,space,0.5892,,3879.5032,86,36,3880.5031,3880.5031,3880.5038,,,,0,46,46,46,1,10,140,,,,,,,,
,,612e61d2784b1a22530108c2,65af5677be6af047326a98e8,2024-01-23_08h03.27.390,bars,2023.2.3,Win32,60.24096386,657b66ea316d21385b68909f,,,,,,,,,,,3880.5038,3881.503,,,3882.003,3882.2531,,137,-43,,,,,,,,,,,,,,,,bars/004.png,bars/mask006.png,,,,,,,,,,,,3,2,,,,,,,4,4,3,5,,,,,,,,,,,3881.503,3882.003,3882.2531,3887.0865,space,4.8242,,3887.0865,68,12,3888.0863,3888.0864,3888.0925,,,,0,47,47,47,1,25,125,,,,,,,,
,,612e61d2784b1a22530108c2,65af5677be6af047326a98e8,2024-01-23_08h03.27.390,bars,2023.2.3,Win32,60.24096386,657b66ea316d21385b68909f,,,,,,,,,,,3888.0925,3889.0876,,,3889.5868,3889.8366,,32,32,,,,,,,,,,,,,,,,bars/022.png,bars/mask009.png,,,,,,,,,,,,2,2,,,,,,,2,2,2,3,,,,,,,,,,,3889.0877,3889.5868,3889.8367,3893.953,space,4.0994,,3893.953,63,12,3894.9529,3894.9529,3894.9571,,,,0,48,48,48,1,95,20,,,,,,,,
,,612e61d2784b1a22530108c2,65af5677be6af047326a98e8,2024-01-23_08h03.27.390,bars,2023.2.3,Win32,60.24096386,657b66ea316d21385b68909f,,,,,,,,,,,3894.9572,3895.9532,,,3896.4529,3896.7029,,98,98,,,,,,,,,,,,,,,,bars/019.png,bars/mask007.png,,,,,,,,,,,,0,2,,,,,,,0,0,0,0,,,,,,,,,,,3895.9532,3896.4529,3896.7029,3900.1699,space,3.4541,,3900.17,53,7,3901.1697,3901.1697,3901.1744,,,,0,49,49,49,1,45,105,,,,,,,,
,,612e61d2784b1a22530108c2,65af5677be6af047326a98e8,2024-01-23_08h03.27.390,bars,2023.2.3,Win32,60.24096386,657b66ea316d21385b68909f,,,,,,,,,,,,,,,,,,,,,,,,,,,,,,,,,,,,,,,,,,,,,,,,,,,,,,,,,,,,,,,,,,,,,,,,,,,,,,,,,,,,,,,,,,,,,3901.1744,3961.1695,0,3,3,4,1,sequence_tables/blk014.csv
,,612e61d2784b1a22530108c2,65af5677be6af047326a98e8,2024-01-23_08h03.27.390,bars,2023.2.3,Win32,60.24096386,657b66ea316d21385b68909f,,,,,,,,,,,3963.9213,3964.9194,,,3965.4195,3965.6696,,52,52,,,,,,,,,,,,,,,,bars/042.png,bars/mask007.png,,,,,,,,,,,,1,2,,,,,,,10,7,10,6,,,,,,3961.174,3963.9193,space,2.7313,,3964.9195,3965.4194,3965.6696,3969.2697,space,3.5929,,3969.2697,87,23,3970.2695,3970.2695,3970.2778,,,,0,0,0,0,1,145,75,,,,,,,,
,,612e61d2784b1a22530108c2,65af5677be6af047326a98e8,2024-01-23_08h03.27.390,bars,2023.2.3,Win32,60.24096386,657b66ea316d21385b68909f,,,,,,,,,,,3970.2779,3971.2694,,,3971.7696,3972.0194,,143,143,,,,,,,,,,,,,,,,bars/015.png,bars/mask009.png,,,,,,,,,,,,2,2,,,,,,,8,5,5,5,,,,,,,,,,,3971.2694,3971.7696,3972.0194,3974.6193,space,2.5813,,3974.6193,33,17,3975.6192,3975.6192,3975.6233,,,,0,1,1,1,1,110,160,,,,,,,,
,,612e61d2784b1a22530108c2,65af5677be6af047326a98e8,2024-01-23_08h03.27.390,bars,2023.2.3,Win32,60.24096386,657b66ea316d21385b68909f,,,,,,,,,,,3975.6234,3976.6192,,,3977.1194,3977.3693,,47,47,,,,,,,,,,,,,,,,bars/010.png,bars/mask007.png,,,,,,,,,,,,2,2,,,,,,,10,3,10,3,,,,,,,,,,,3976.6192,3977.1193,3977.3693,3981.1527,space,3.7732,,3981.1527,62,8,3982.1525,3982.1525,3982.1567,,,,0,2,2,2,1,165,55,,,,,,,,
,,612e61d2784b1a22530108c2,65af5677be6af047326a98e8,2024-01-23_08h03.27.390,bars,2023.2.3,Win32,60.24096386,657b66ea316d21385b68909f,,,,,,,,,,,3982.1568,3983.1527,,,3983.6527,3983.9026,,55,55,,,,,,,,,,,,,,,,bars/041.png,bars/mask008.png,,,,,,,,,,,,0,2,,,,,,,10,1,10,1,,,,,,,,,,,3983.1527,3983.6526,3983.9026,3984.7195,space,0.806,,3984.7196,35,30,3985.7195,3985.7195,3985.72,,,,0,3,3,3,1,20,85,,,,,,,,
,,612e61d2784b1a22530108c2,65af5677be6af047326a98e8,2024-01-23_08h03.27.390,bars,2023.2.3,Win32,60.24096386,657b66ea316d21385b68909f,,,,,,,,,,,3985.7203,3986.7193,,,3987.2194,3987.4693,,93,93,,,,,,,,,,,,,,,,bars/030.png,bars/mask007.png,,,,,,,,,,,,0,2,,,,,,,8,3,7,4,,,,,,,,,,,3986.7193,3987.2194,3987.4693,3989.7528,space,2.2707,,3989.7528,47,28,3990.7525,3990.7525,3990.7529,,,,0,4,4,4,1,140,65,,,,,,,,
,,612e61d2784b1a22530108c2,65af5677be6af047326a98e8,2024-01-23_08h03.27.390,bars,2023.2.3,Win32,60.24096386,657b66ea316d21385b68909f,,,,,,,,,,,3990.753,3991.7525,,,3992.2525,3992.5025,,56,56,,,,,,,,,,,,,,,,bars/034.png,bars/mask007.png,,,,,,,,,,,,3,2,,,,,,,10,5,9,4,,,,,,,,,,,3991.7525,3992.2525,3992.5025,3993.1858,space,0.667,,3993.1859,69,9,3994.1859,3994.1859,3994.1862,,,,0,5,5,5,1,125,65,,,,,,,,
,,612e61d2784b1a22530108c2,65af5677be6af047326a98e8,2024-01-23_08h03.27.390,bars,2023.2.3,Win32,60.24096386,657b66ea316d21385b68909f,,,,,,,,,,,3994.1863,3995.1858,,,3995.6858,3995.9358,,139,139,,,,,,,,,,,,,,,,bars/004.png,bars/mask008.png,,,,,,,,,,,,4,2,,,,,,,8,7,9,7,,,,,,,,,,,3995.1858,3995.6857,3995.9359,4001.4863,space,5.5332,,4001.4864,66,14,4002.4858,4002.4858,4002.4902,,,,0,6,6,6,1,25,125,,,,,,,,
,,612e61d2784b1a22530108c2,65af5677be6af047326a98e8,2024-01-23_08h03.27.390,bars,2023.2.3,Win32,60.24096386,657b66ea316d21385b68909f,,,,,,,,,,,4002.4902,4003.4859,,,4003.9859,4004.236,,179,179,,,,,,,,,,,,,,,,bars/045.png,bars/mask000.png,,,,,,,,,,,,3,2,,,,,,,6,5,6,4,,,,,,,,,,,4003.4859,4003.9859,4004.236,4008.4358,space,4.1922,,4008.4358,79,11,4009.4361,4009.4361,4009.4401,,,,0,7,7,7,1,100,10,,,,,,,,
,,612e61d2784b1a22530108c2,65af5677be6af047326a98e8,2024-01-23_08h03.27.390,bars,2023.2.3,Win32,60.24096386,657b66ea316d21385b68909f,,,,,,,,,,,4009.4402,4010.4358,,,4010.9357,4011.1858,,45,45,,,,,,,,,,,,,,,,bars/034.png,bars/mask005.png,,,,,,,,,,,,3,2,,,,,,,8,7,9,9,,,,,,,,,,,4010.4358,4010.9357,4011.1859,4013.5359,space,2.3317,,4013.5359,80,20,4014.5357,4014.5357,4014.541,,,,0,8,8,8,1,125,65,,,,,,,,
