init_variables.started,init_variables.stopped,participant,session,date,expName,psychopyVersion,OS,frameRate,study_id,instruction_exp.started,instruction_exp.stopped,key_resp_8.keys,key_resp_8.rt,key_resp_8.duration,instruction_single.started,instruction_single.stopped,key_resp_2.keys,key_resp_2.rt,key_resp_2.duration,interval.started,interval.stopped,cue_single.started,cue_single.stopped,mask.started,mask.stopped,ori_response_single.started,res_ori,res,ori_response_single.stopped,key_resp_single.keys,key_resp_single.rt,key_resp_single.duration,disp_single.started,disp_single.stopped,key_resp.keys,key_resp.rt,key_resp.duration,single.thisRepN,single.thisTrialN,single.thisN,single.thisIndex,single.ran,ori,path,mask_path,instruction_bandit.started,instruction_bandit.stopped,key_resp_6.keys,key_resp_6.rt,key_resp_6.duration,cue_bandit.started,cue_bandit.stopped,bandit_res.keys,bandit_res.rt,bandit_res.duration,outcome_bandit.started,rew,action,outcome_bandit.stopped,bandit.thisRepN,bandit.thisTrialN,bandit.thisN,bandit.thisIndex,bandit.ran,actual_rew1,actual_rew2,rew1,rew2,instruction_task.started,instruction_task.stopped,key_resp_7.keys,key_resp_7.rt,key_resp_7.duration,wait_ready.started,wait_ready.stopped,key_resp_3.keys,key_resp_3.rt,key_resp_3.duration,cue.started,cue.stopped,ori_response.started,ori_response.stopped,key_resp_5.keys,key_resp_5.rt,key_resp_5.duration,outcome.started,diff1,diff2,outcome.stopped,disp_outcome_practice.started,disp_outcome_practice.stopped,key_resp_4.keys,key_resp_4.rt,key_resp_4.duration,trials.thisRepN,trials.thisTrialN,trials.thisN,trials.thisIndex,trials.ran,ori1,ori2,break_blk.started,break_blk.stopped,block.thisRepN,block.thisTrialN,block.thisN,block.thisIndex,block.ran,condition_file
0.0004,0.0005,60e6b73b67e5151ba27b4346,65af55bf9e24a972e38d42c6,2024-01-23_08h00.34.217,bars,2023.2.3,Win32,30.21148036,657b66ea316d21385b68909f,,,,,,,,,,,,,,,,,,,,,,,,,,,,,,,,,,,,,,,,,,,,,,,,,,,,,,,,,,,,,,,,,,,,,,,,,,,,,,,,,,,,,,,,,,,,,,,,,,,,
,,60e6b73b67e5151ba27b4346,65af55bf9e24a972e38d42c6,2024-01-23_08h00.34.217,bars,2023.2.3,Win32,30.21148036,657b66ea316d21385b68909f,0.0008,308.3439,y,308.316,,,,,,,,,,,,,,,,,,,,,,,,,,,,,,,,,,,,,,,,,,,,,,,,,,,,,,,,,,,,,,,,,,,,,,,,,,,,,,,,,,,,,,,,,,,,,,,,
,,60e6b73b67e5151ba27b4346,65af55bf9e24a972e38d42c6,2024-01-23_08h00.34.217,bars,2023.2.3,Win32,30.21148036,657b66ea316d21385b68909f,,,,,,308.3441,325.1292,space,16.7641,,,,,,,,,,,,,,,,,,,,,,,,,,,,,,,,,,,,,,,,,,,,,,,,,,,,,,,,,,,,,,,,,,,,,,,,,,,,,,,,,,,,,,,,,,,
,,60e6b73b67e5151ba27b4346,65af55bf9e24a972e38d42c6,2024-01-23_08h00.34.217,bars,2023.2.3,Win32,30.21148036,657b66ea316d21385b68909f,,,,,,,,,,,325.1359,326.1291,326.1294,326.6341,326.6343,326.8813,326.8816,15,15,332.3936,space,5.4885,,332.3938,338.5396,space,6.1172,,0,0,0,0,1,150,bars/single000.png,bars/mask006.png,,,,,,,,,,,,,,,,,,,,,,,,,,,,,,,,,,,,,,,,,,,,,,,,,,,,,,,,,,,,,,,,
,,60e6b73b67e5151ba27b4346,65af55bf9e24a972e38d42c6,2024-01-23_08h00.34.217,bars,2023.2.3,Win32,30.21148036,657b66ea316d21385b68909f,,,,,,,,,,,338.5502,339.5528,339.5529,340.052,340.0521,340.3029,340.303,25,25,345.7637,space,5.4458,,345.7637,349.8598,space,4.063,,0,1,1,9,1,20,bars/single009.png,bars/mask006.png,,,,,,,,,,,,,,,,,,,,,,,,,,,,,,,,,,,,,,,,,,,,,,,,,,,,,,,,,,,,,,,,
,,60e6b73b67e5151ba27b4346,65af55bf9e24a972e38d42c6,2024-01-23_08h00.34.217,bars,2023.2.3,Win32,30.21148036,657b66ea316d21385b68909f,,,,,,,,,,,349.8807,350.8723,350.8724,351.372,351.3721,351.6224,351.6224,167,167,358.1858,space,6.5463,,358.1858,362.3328,space,4.1247,,0,2,2,3,1,20,bars/single003.png,bars/mask005.png,,,,,,,,,,,,,,,,,,,,,,,,,,,,,,,,,,,,,,,,,,,,,,,,,,,,,,,,,,,,,,,,
,,60e6b73b67e5151ba27b4346,65af55bf9e24a972e38d42c6,2024-01-23_08h00.34.217,bars,2023.2.3,Win32,30.21148036,657b66ea316d21385b68909f,,,,,,,,,,,362.3434,363.3437,363.3438,363.8435,363.8435,364.0736,364.0737,26,26,371.2745,space,7.1815,,371.2745,374.5706,space,3.2644,,0,3,3,7,1,45,bars/single007.png,bars/mask009.png,,,,,,,,,,,,,,,,,,,,,,,,,,,,,,,,,,,,,,,,,,,,,,,,,,,,,,,,,,,,,,,,
,,60e6b73b67e5151ba27b4346,65af55bf9e24a972e38d42c6,2024-01-23_08h00.34.217,bars,2023.2.3,Win32,30.21148036,657b66ea316d21385b68909f,,,,,,,,,,,374.5818,375.586,375.586,376.0855,376.0855,376.3353,376.3353,151,151,379.1666,space,2.8176,,379.1666,382.264,space,3.0838,,0,4,4,8,1,160,bars/single008.png,bars/mask004.png,,,,,,,,,,,,,,,,,,,,,,,,,,,,,,,,,,,,,,,,,,,,,,,,,,,,,,,,,,,,,,,,
,,60e6b73b67e5151ba27b4346,65af55bf9e24a972e38d42c6,2024-01-23_08h00.34.217,bars,2023.2.3,Win32,30.21148036,657b66ea316d21385b68909f,,,,,,,,,,,382.2743,383.2633,383.2635,383.7617,383.7617,384.0114,384.0114,124,124,388.1756,space,4.1506,,388.1757,390.6722,space,2.4735,,0,5,5,4,1,95,bars/single004.png,bars/mask004.png,,,,,,,,,,,,,,,,,,,,,,,,,,,,,,,,,,,,,,,,,,,,,,,,,,,,,,,,,,,,,,,,
,,60e6b73b67e5151ba27b4346,65af55bf9e24a972e38d42c6,2024-01-23_08h00.34.217,bars,2023.2.3,Win32,30.21148036,657b66ea316d21385b68909f,,,,,,,,,,,390.6725,391.7186,391.7186,392.1865,392.1865,392.4363,392.4364,17,197,396.1479,space,3.6959,,396.148,398.9305,space,2.7608,,0,6,6,1,1,20,bars/single001.png,bars/mask006.png,,,,,,,,,,,,,,,,,,,,,,,,,,,,,,,,,,,,,,,,,,,,,,,,,,,,,,,,,,,,,,,,
,,60e6b73b67e5151ba27b4346,65af55bf9e24a972e38d42c6,2024-01-23_08h00.34.217,bars,2023.2.3,Win32,30.21148036,657b66ea316d21385b68909f,,,,,,,,,,,398.9312,399.9291,399.9291,400.43,400.4301,400.6786,400.6786,1,1,403.2613,space,2.567,,403.2613,406.3586,space,3.0835,,0,7,7,6,1,175,bars/single006.png,bars/mask005.png,,,,,,,,,,,,,,,,,,,,,,,,,,,,,,,,,,,,,,,,,,,,,,,,,,,,,,,,,,,,,,,,
,,60e6b73b67e5151ba27b4346,65af55bf9e24a972e38d42c6,2024-01-23_08h00.34.217,bars,2023.2.3,Win32,30.21148036,657b66ea316d21385b68909f,,,,,,,,,,,406.3706,407.3721,407.3721,407.8719,407.872,408.1214,408.1215,45,225,411.8702,space,3.7336,,411.8703,415.0337,space,3.1397,,0,8,8,5,1,55,bars/single005.png,bars/mask008.png,,,,,,,,,,,,,,,,,,,,,,,,,,,,,,,,,,,,,,,,,,,,,,,,,,,,,,,,,,,,,,,,
,,60e6b73b67e5151ba27b4346,65af55bf9e24a972e38d42c6,2024-01-23_08h00.34.217,bars,2023.2.3,Win32,30.21148036,657b66ea316d21385b68909f,,,,,,,,,,,415.034,416.0313,416.0314,416.531,416.531,416.7809,416.7809,149,149,421.4933,space,4.6963,,421.4933,423.9931,space,2.4685,,0,9,9,2,1,145,bars/single002.png,bars/mask003.png,,,,,,,,,,,,,,,,,,,,,,,,,,,,,,,,,,,,,,,,,,,,,,,,,,,,,,,,,,,,,,,,
,,60e6b73b67e5151ba27b4346,65af55bf9e24a972e38d42c6,2024-01-23_08h00.34.217,bars,2023.2.3,Win32,30.21148036,657b66ea316d21385b68909f,,,,,,,,,,,,,,,,,,,,,,,,,,,,,,,,,,,,,424.0039,433.7508,space,9.7238,,,,,,,,,,,,,,,,,,,,,,,,,,,,,,,,,,,,,,,,,,,,,,,,,,,,,,,,,,,,
,,60e6b73b67e5151ba27b4346,65af55bf9e24a972e38d42c6,2024-01-23_08h00.34.217,bars,2023.2.3,Win32,30.21148036,657b66ea316d21385b68909f,,,,,,,,,,,,,,,,,,,,,,,,,,,,,,,,,,,,,,,,,,433.7667,435.0637,right,1.2779,,435.0641,2,2,436.0626,0,0,0,0,1,9,1,9,2,,,,,,,,,,,,,,,,,,,,,,,,,,,,,,,,,,,,,,,,,
,,60e6b73b67e5151ba27b4346,65af55bf9e24a972e38d42c6,2024-01-23_08h00.34.217,bars,2023.2.3,Win32,30.21148036,657b66ea316d21385b68909f,,,,,,,,,,,,,,,,,,,,,,,,,,,,,,,,,,,,,,,,,,436.0633,439.3423,left,3.2646,,439.3423,10,1,440.3413,0,1,1,1,1,10,0,10,1,,,,,,,,,,,,,,,,,,,,,,,,,,,,,,,,,,,,,,,,,
,,60e6b73b67e5151ba27b4346,65af55bf9e24a972e38d42c6,2024-01-23_08h00.34.217,bars,2023.2.3,Win32,30.21148036,657b66ea316d21385b68909f,,,,,,,,,,,,,,,,,,,,,,,,,,,,,,,,,,,,,,,,,,440.3522,440.8888,left,0.5288,,440.8889,10,1,441.8866,0,2,2,2,1,10,2,10,2,,,,,,,,,,,,,,,,,,,,,,,,,,,,,,,,,,,,,,,,,
,,60e6b73b67e5151ba27b4346,65af55bf9e24a972e38d42c6,2024-01-23_08h00.34.217,bars,2023.2.3,Win32,30.21148036,657b66ea316d21385b68909f,,,,,,,,,,,,,,,,,,,,,,,,,,,,,,,,,,,,,,,,,,441.8877,442.2707,left,0.367,,442.2708,7,1,443.269,0,3,3,3,1,8,4,7,3,,,,,,,,,,,,,,,,,,,,,,,,,,,,,,,,,,,,,,,,,
,,60e6b73b67e5151ba27b4346,65af55bf9e24a972e38d42c6,2024-01-23_08h00.34.217,bars,2023.2.3,Win32,30.21148036,657b66ea316d21385b68909f,,,,,,,,,,,,,,,,,,,,,,,,,,,,,,,,,,,,,,,,,,443.27,443.5529,left,0.2673,,443.553,5,1,444.5511,0,4,4,4,1,6,2,5,1,,,,,,,,,,,,,,,,,,,,,,,,,,,,,,,,,,,,,,,,,
,,60e6b73b67e5151ba27b4346,65af55bf9e24a972e38d42c6,2024-01-23_08h00.34.217,bars,2023.2.3,Win32,30.21148036,657b66ea316d21385b68909f,,,,,,,,,,,,,,,,,,,,,,,,,,,,,,,,,,,,,,,,,,444.5521,444.8693,left,0.3007,,444.8694,4,1,445.8669,0,5,5,5,1,4,4,4,4,,,,,,,,,,,,,,,,,,,,,,,,,,,,,,,,,,,,,,,,,
,,60e6b73b67e5151ba27b4346,65af55bf9e24a972e38d42c6,2024-01-23_08h00.34.217,bars,2023.2.3,Win32,30.21148036,657b66ea316d21385b68909f,,,,,,,,,,,,,,,,,,,,,,,,,,,,,,,,,,,,,,,,,,445.8679,446.8166,left,0.9333,,446.8166,1,1,447.8154,0,6,6,6,1,2,2,1,2,,,,,,,,,,,,,,,,,,,,,,,,,,,,,,,,,,,,,,,,,
,,60e6b73b67e5151ba27b4346,65af55bf9e24a972e38d42c6,2024-01-23_08h00.34.217,bars,2023.2.3,Win32,30.21148036,657b66ea316d21385b68909f,,,,,,,,,,,,,,,,,,,,,,,,,,,,,,,,,,,,,,,,,,447.8163,448.1652,right,0.3339,,448.1652,1,2,449.1633,0,7,7,7,1,0,0,0,1,,,,,,,,,,,,,,,,,,,,,,,,,,,,,,,,,,,,,,,,,
,,60e6b73b67e5151ba27b4346,65af55bf9e24a972e38d42c6,2024-01-23_08h00.34.217,bars,2023.2.3,Win32,30.21148036,657b66ea316d21385b68909f,,,,,,,,,,,,,,,,,,,,,,,,,,,,,,,,,,,,,,,,,,449.1664,449.814,right,0.6336,,449.8142,0,2,450.8118,0,8,8,8,1,0,2,1,0,,,,,,,,,,,,,,,,,,,,,,,,,,,,,,,,,,,,,,,,,
,,60e6b73b67e5151ba27b4346,65af55bf9e24a972e38d42c6,2024-01-23_08h00.34.217,bars,2023.2.3,Win32,30.21148036,657b66ea316d21385b68909f,,,,,,,,,,,,,,,,,,,,,,,,,,,,,,,,,,,,,,,,,,450.8128,454.7611,left,3.9316,,454.7611,2,1,455.7601,0,9,9,9,1,2,4,2,3,,,,,,,,,,,,,,,,,,,,,,,,,,,,,,,,,,,,,,,,,
,,60e6b73b67e5151ba27b4346,65af55bf9e24a972e38d42c6,2024-01-23_08h00.34.217,bars,2023.2.3,Win32,30.21148036,657b66ea316d21385b68909f,,,,,,,,,,,,,,,,,,,,,,,,,,,,,,,,,,,,,,,,,,455.7716,456.5099,left,0.7296,,456.5099,0,1,457.4979,0,10,10,10,1,0,2,0,3,,,,,,,,,,,,,,,,,,,,,,,,,,,,,,,,,,,,,,,,,
,,60e6b73b67e5151ba27b4346,65af55bf9e24a972e38d42c6,2024-01-23_08h00.34.217,bars,2023.2.3,Win32,30.21148036,657b66ea316d21385b68909f,,,,,,,,,,,,,,,,,,,,,,,,,,,,,,,,,,,,,,,,,,457.4982,457.7417,right,0.2291,,457.7417,3,2,458.7407,0,11,11,11,1,0,4,0,3,,,,,,,,,,,,,,,,,,,,,,,,,,,,,,,,,,,,,,,,,
,,60e6b73b67e5151ba27b4346,65af55bf9e24a972e38d42c6,2024-01-23_08h00.34.217,bars,2023.2.3,Win32,30.21148036,657b66ea316d21385b68909f,,,,,,,,,,,,,,,,,,,,,,,,,,,,,,,,,,,,,,,,,,458.7417,458.991,right,0.2341,,458.991,6,2,459.9895,0,12,12,12,1,2,6,1,6,,,,,,,,,,,,,,,,,,,,,,,,,,,,,,,,,,,,,,,,,
,,60e6b73b67e5151ba27b4346,65af55bf9e24a972e38d42c6,2024-01-23_08h00.34.217,bars,2023.2.3,Win32,30.21148036,657b66ea316d21385b68909f,,,,,,,,,,,,,,,,,,,,,,,,,,,,,,,,,,,,,,,,,,459.9906,460.2398,right,0.2338,,460.2399,3,2,461.2383,0,13,13,13,1,0,4,1,3,,,,,,,,,,,,,,,,,,,,,,,,,,,,,,,,,,,,,,,,,
,,60e6b73b67e5151ba27b4346,65af55bf9e24a972e38d42c6,2024-01-23_08h00.34.217,bars,2023.2.3,Win32,30.21148036,657b66ea316d21385b68909f,,,,,,,,,,,,,,,,,,,,,,,,,,,,,,,,,,,,,,,,,,461.2394,462.1546,right,0.9001,,462.1547,7,2,463.1532,0,14,14,14,1,2,6,2,7,,,,,,,,,,,,,,,,,,,,,,,,,,,,,,,,,,,,,,,,,
,,60e6b73b67e5151ba27b4346,65af55bf9e24a972e38d42c6,2024-01-23_08h00.34.217,bars,2023.2.3,Win32,30.21148036,657b66ea316d21385b68909f,,,,,,,,,,,,,,,,,,,,,,,,,,,,,,,,,,,,,,,,,,463.1542,463.4868,right,0.3171,,463.4868,9,2,464.4843,0,15,15,15,1,4,8,3,9,,,,,,,,,,,,,,,,,,,,,,,,,,,,,,,,,,,,,,,,,
,,60e6b73b67e5151ba27b4346,65af55bf9e24a972e38d42c6,2024-01-23_08h00.34.217,bars,2023.2.3,Win32,30.21148036,657b66ea316d21385b68909f,,,,,,,,,,,,,,,,,,,,,,,,,,,,,,,,,,,,,,,,,,464.4846,465.0198,right,0.5105,,465.0198,7,2,466.0127,0,16,16,16,1,6,6,7,7,,,,,,,,,,,,,,,,,,,,,,,,,,,,,,,,,,,,,,,,,
,,60e6b73b67e5151ba27b4346,65af55bf9e24a972e38d42c6,2024-01-23_08h00.34.217,bars,2023.2.3,Win32,30.21148036,657b66ea316d21385b68909f,,,,,,,,,,,,,,,,,,,,,,,,,,,,,,,,,,,,,,,,,,466.0136,466.3484,right,0.3172,,466.3484,5,2,467.3492,0,17,17,17,1,8,4,9,5,,,,,,,,,,,,,,,,,,,,,,,,,,,,,,,,,,,,,,,,,
,,60e6b73b67e5151ba27b4346,65af55bf9e24a972e38d42c6,2024-01-23_08h00.34.217,bars,2023.2.3,Win32,30.21148036,657b66ea316d21385b68909f,,,,,,,,,,,,,,,,,,,,,,,,,,,,,,,,,,,,,,,,,,467.3503,467.6341,right,0.2692,,467.6341,1,2,468.6314,0,18,18,18,1,6,2,5,1,,,,,,,,,,,,,,,,,,,,,,,,,,,,,,,,,,,,,,,,,
,,60e6b73b67e5151ba27b4346,65af55bf9e24a972e38d42c6,2024-01-23_08h00.34.217,bars,2023.2.3,Win32,30.21148036,657b66ea316d21385b68909f,,,,,,,,,,,,,,,,,,,,,,,,,,,,,,,,,,,,,,,,,,468.6324,469.4807,left,0.8333,,469.4807,7,1,470.4797,0,19,19,19,1,8,0,7,0,,,,,,,,,,,,,,,,,,,,,,,,,,,,,,,,,,,,,,,,,
,,60e6b73b67e5151ba27b4346,65af55bf9e24a972e38d42c6,2024-01-23_08h00.34.217,bars,2023.2.3,Win32,30.21148036,657b66ea316d21385b68909f,,,,,,,,,,,,,,,,,,,,,,,,,,,,,,,,,,,,,,,,,,,,,,,,,,,,,,,,,,,,470.4808,488.5476,space,18.049,,,,,,,,,,,,,,,,,,,,,,,,,,,,,,,,,,,,,
,,60e6b73b67e5151ba27b4346,65af55bf9e24a972e38d42c6,2024-01-23_08h00.34.217,bars,2023.2.3,Win32,30.21148036,657b66ea316d21385b68909f,,,,,,,,,,,489.7189,490.7115,,,491.2116,491.4609,,63,63,,,,,,,,,,,,,,,,bars/030.png,bars/mask007.png,,,,,,,,,,,,4,2,,,,,,,3,6,4,4,,,,,,488.5605,489.7128,space,1.1326,,490.7116,491.2115,491.4611,497.2393,space,5.7615,,497.2394,77,2,498.2375,498.2378,510.2082,space,11.95,,0,0,0,0,1,140,65,,,,,,,,
,,60e6b73b67e5151ba27b4346,65af55bf9e24a972e38d42c6,2024-01-23_08h00.34.217,bars,2023.2.3,Win32,30.21148036,657b66ea316d21385b68909f,,,,,,,,,,,510.2199,511.2083,,,511.7078,511.9577,,144,144,,,,,,,,,,,,,,,,bars/034.png,bars/mask005.png,,,,,,,,,,,,0,1,,,,,,,1,4,1,2,,,,,,,,,,,511.2083,511.7078,511.9578,512.7739,space,0.7994,,512.7741,19,79,513.7724,513.7725,520.0517,space,6.2635,,0,1,1,1,1,125,65,,,,,,,,
,,60e6b73b67e5151ba27b4346,65af55bf9e24a972e38d42c6,2024-01-23_08h00.34.217,bars,2023.2.3,Win32,30.21148036,657b66ea316d21385b68909f,,,,,,,,,,,520.0723,521.0669,,,521.5654,521.8151,,89,89,,,,,,,,,,,,,,,,bars/039.png,bars/mask003.png,,,,,,,,,,,,1,2,,,,,,,0,2,0,3,,,,,,,,,,,521.0669,521.5652,521.8151,527.2452,space,5.415,,527.2453,86,16,528.2421,528.2423,534.1852,space,5.9177,,0,2,2,2,1,175,105,,,,,,,,
,,60e6b73b67e5151ba27b4346,65af55bf9e24a972e38d42c6,2024-01-23_08h00.34.217,bars,2023.2.3,Win32,30.21148036,657b66ea316d21385b68909f,,,,,,,,,,,534.207,535.1996,,,535.6991,535.9492,,89,89,,,,,,,,,,,,,,,,bars/012.png,bars/mask001.png,,,,,,,,,,,,1,1,,,,,,,2,0,1,1,,,,,,,,,,,535.1996,535.699,535.9492,538.85,space,2.8822,,538.85,1,74,539.848,539.848,543.3792,space,3.4979,,0,3,3,3,1,90,15,,,,,,,,
,,60e6b73b67e5151ba27b4346,65af55bf9e24a972e38d42c6,2024-01-23_08h00.34.217,bars,2023.2.3,Win32,30.21148036,657b66ea316d21385b68909f,,,,,,,,,,,543.3895,544.3779,,,544.8775,545.1272,,48,48,,,,,,,,,,,,,,,,bars/048.png,bars/mask001.png,,,,,,,,,,,,0,1,,,,,,,0,0,0,1,,,,,,,,,,,544.3779,544.8775,545.1273,550.7224,space,5.5793,,550.7224,2,53,551.721,551.721,556.4013,space,4.6553,,0,4,4,4,1,50,175,,,,,,,,
,,60e6b73b67e5151ba27b4346,65af55bf9e24a972e38d42c6,2024-01-23_08h00.34.217,bars,2023.2.3,Win32,30.21148036,657b66ea316d21385b68909f,,,,,,,,,,,556.4117,557.4156,,,557.9154,558.1649,,137,137,,,,,,,,,,,,,,,,bars/037.png,bars/mask005.png,,,,,,,,,,,,0,1,,,,,,,0,0,0,0,,,,,,,,,,,557.4156,557.9153,558.165,563.1272,space,4.9459,,563.1273,13,32,564.1285,564.1285,567.0574,space,2.8978,,0,5,5,5,1,150,105,,,,,,,,
,,60e6b73b67e5151ba27b4346,65af55bf9e24a972e38d42c6,2024-01-23_08h00.34.217,bars,2023.2.3,Win32,30.21148036,657b66ea316d21385b68909f,,,,,,,,,,,567.0687,568.0723,,,568.572,568.8217,,154,154,,,,,,,,,,,,,,,,bars/020.png,bars/mask007.png,,,,,,,,,,,,1,2,,,,,,,0,2,2,3,,,,,,,,,,,568.0724,568.5719,568.8217,571.2864,space,2.4489,,571.2865,39,16,572.2851,572.2851,575.3324,space,3.0143,,0,6,6,6,1,115,170,,,,,,,,
,,60e6b73b67e5151ba27b4346,65af55bf9e24a972e38d42c6,2024-01-23_08h00.34.217,bars,2023.2.3,Win32,30.21148036,657b66ea316d21385b68909f,,,,,,,,,,,575.3432,576.3313,,,576.8309,577.0805,,39,39,,,,,,,,,,,,,,,,bars/010.png,bars/mask006.png,,,,,,,,,,,,0,2,,,,,,,2,0,1,0,,,,,,,,,,,576.3314,576.8308,577.0807,581.2945,space,4.197,,581.2946,54,16,582.2924,582.2925,584.2574,space,1.9419,,0,7,7,7,1,165,55,,,,,,,,
,,60e6b73b67e5151ba27b4346,65af55bf9e24a972e38d42c6,2024-01-23_08h00.34.217,bars,2023.2.3,Win32,30.21148036,657b66ea316d21385b68909f,,,,,,,,,,,584.2578,585.2564,,,585.756,586.0055,,160,160,,,,,,,,,,,,,,,,bars/037.png,bars/mask000.png,,,,,,,,,,,,3,1,,,,,,,4,2,4,1,,,,,,,,,,,585.2564,585.7559,586.0056,589.6196,space,3.6,,589.6196,10,55,590.6179,590.6179,593.3832,space,2.7385,,0,8,8,8,1,150,105,,,,,,,,
,,60e6b73b67e5151ba27b4346,65af55bf9e24a972e38d42c6,2024-01-23_08h00.34.217,bars,2023.2.3,Win32,30.21148036,657b66ea316d21385b68909f,,,,,,,,,,,593.4031,594.3939,,,594.8936,595.1439,,121,121,,,,,,,,,,,,,,,,bars/034.png,bars/mask003.png,,,,,,,,,,,,2,1,,,,,,,2,0,2,0,,,,,,,,,,,594.3939,594.8935,595.1439,598.0774,space,2.9159,,598.0774,4,56,599.0758,599.0759,600.5564,space,1.4457,,0,9,9,9,1,125,65,,,,,,,,
,,60e6b73b67e5151ba27b4346,65af55bf9e24a972e38d42c6,2024-01-23_08h00.34.217,bars,2023.2.3,Win32,30.21148036,657b66ea316d21385b68909f,,,,,,,,,,,600.5569,601.554,,,602.0536,602.3037,,119,119,,,,,,,,,,,,,,,,bars/017.png,bars/mask008.png,,,,,,,,,,,,1,1,,,,,,,4,0,4,0,,,,,,,,,,,601.554,602.0535,602.3037,604.4713,space,2.1499,,604.4713,26,74,605.4705,605.4705,608.2177,space,2.725,,0,10,10,10,1,145,45,,,,,,,,
,,60e6b73b67e5151ba27b4346,65af55bf9e24a972e38d42c6,2024-01-23_08h00.34.217,bars,2023.2.3,Win32,30.21148036,657b66ea316d21385b68909f,,,,,,,,,,,608.2185,609.2164,,,609.716,609.9656,,47,47,,,,,,,,,,,,,,,,bars/027.png,bars/mask008.png,,,,,,,,,,,,0,2,,,,,,,6,0,6,0,,,,,,,,,,,609.2164,609.716,609.9657,613.4129,space,3.4313,,613.4129,63,3,614.4114,614.4115,617.1761,space,2.7392,,0,11,11,11,1,110,50,,,,,,,,
,,60e6b73b67e5151ba27b4346,65af55bf9e24a972e38d42c6,2024-01-23_08h00.34.217,bars,2023.2.3,Win32,30.21148036,657b66ea316d21385b68909f,,,,,,,,,,,617.1869,618.1912,,,618.6912,618.9411,,151,151,,,,,,,,,,,,,,,,bars/017.png,bars/mask007.png,,,,,,,,,,,,4,1,,,,,,,4,0,5,1,,,,,,,,,,,618.1913,618.6911,618.9411,621.3733,space,2.417,,621.3735,6,74,622.3707,622.3708,624.2364,space,1.8252,,0,12,12,12,1,145,45,,,,,,,,
,,60e6b73b67e5151ba27b4346,65af55bf9e24a972e38d42c6,2024-01-23_08h00.34.217,bars,2023.2.3,Win32,30.21148036,657b66ea316d21385b68909f,,,,,,,,,,,624.2371,625.2346,,,625.7345,625.9839,,40,40,,,,,,,,,,,,,,,,bars/048.png,bars/mask004.png,,,,,,,,,,,,4,1,,,,,,,6,0,6,0,,,,,,,,,,,625.2347,625.7344,625.984,627.9499,space,1.9485,,627.9499,10,45,628.9486,628.9486,630.5308,space,1.566,,0,13,13,13,1,50,175,,,,,,,,
,,60e6b73b67e5151ba27b4346,65af55bf9e24a972e38d42c6,2024-01-23_08h00.34.217,bars,2023.2.3,Win32,30.21148036,657b66ea316d21385b68909f,,,,,,,,,,,630.5311,631.5296,,,632.0292,632.279,,93,93,,,,,,,,,,,,,,,,bars/014.png,bars/mask004.png,,,,,,,,,,,,2,1,,,,,,,4,0,4,0,,,,,,,,,,,631.5296,632.0292,632.279,634.3438,space,2.0488,,634.3439,13,87,635.3426,635.3427,636.9747,space,1.6089,,0,14,14,14,1,80,0,,,,,,,,
,,60e6b73b67e5151ba27b4346,65af55bf9e24a972e38d42c6,2024-01-23_08h00.34.217,bars,2023.2.3,Win32,30.21148036,657b66ea316d21385b68909f,,,,,,,,,,,636.975,637.9735,,,638.4732,638.7228,,76,76,,,,,,,,,,,,,,,,bars/014.png,bars/mask007.png,,,,,,,,,,,,1,1,,,,,,,2,2,1,3,,,,,,,,,,,637.9735,638.4731,638.7228,641.3539,space,2.615,,641.354,4,76,642.3527,642.3528,644.1022,space,1.7297,,0,15,15,15,1,80,0,,,,,,,,
,,60e6b73b67e5151ba27b4346,65af55bf9e24a972e38d42c6,2024-01-23_08h00.34.217,bars,2023.2.3,Win32,30.21148036,657b66ea316d21385b68909f,,,,,,,,,,,644.1028,645.0993,,,645.5973,645.8461,,73,73,,,,,,,,,,,,,,,,bars/042.png,bars/mask005.png,,,,,,,,,,,,5,2,,,,,,,4,4,5,5,,,,,,,,,,,645.0995,645.5973,645.8462,646.7296,space,0.8665,,646.7296,72,2,647.7276,647.7276,649.3627,space,1.6171,,0,16,16,16,1,145,75,,,,,,,,
,,60e6b73b67e5151ba27b4346,65af55bf9e24a972e38d42c6,2024-01-23_08h00.34.217,bars,2023.2.3,Win32,30.21148036,657b66ea316d21385b68909f,,,,,,,,,,,649.3634,650.3611,,,650.8609,651.1108,,88,88,,,,,,,,,,,,,,,,bars/046.png,bars/mask006.png,,,,,,,,,,,,5,2,,,,,,,6,6,4,6,,,,,,,,,,,650.3612,650.8608,651.1109,655.1105,space,3.9845,,655.1106,67,3,656.1057,656.1059,657.422,space,1.293,,0,17,17,17,1,155,85,,,,,,,,
,,60e6b73b67e5151ba27b4346,65af55bf9e24a972e38d42c6,2024-01-23_08h00.34.217,bars,2023.2.3,Win32,30.21148036,657b66ea316d21385b68909f,,,,,,,,,,,657.4227,658.4202,,,658.9198,659.1696,,84,84,,,,,,,,,,,,,,,,bars/046.png,bars/mask009.png,,,,,,,,,,,,4,2,,,,,,,8,4,9,4,,,,,,,,,,,658.4203,658.9198,659.1696,662.5503,space,3.3642,,662.5503,71,1,663.5487,663.5488,664.8981,space,1.3301,,0,18,18,18,1,155,85,,,,,,,,
,,60e6b73b67e5151ba27b4346,65af55bf9e24a972e38d42c6,2024-01-23_08h00.34.217,bars,2023.2.3,Win32,30.21148036,657b66ea316d21385b68909f,,,,,,,,,,,664.8988,665.8965,,,666.3934,666.6439,,85,85,,,,,,,,,,,,,,,,bars/019.png,bars/mask008.png,,,,,,,,,,,,2,2,,,,,,,6,6,6,7,,,,,,,,,,,665.8967,666.3933,666.6439,669.127,space,2.4653,,669.127,40,20,670.1231,670.1233,673.1072,space,2.962,,0,19,19,19,1,45,105,,,,,,,,
,,60e6b73b67e5151ba27b4346,65af55bf9e24a972e38d42c6,2024-01-23_08h00.34.217,bars,2023.2.3,Win32,30.21148036,657b66ea316d21385b68909f,,,,,,,,,,,673.1079,674.1055,,,674.6052,674.8549,,71,71,,,,,,,,,,,,,,,,bars/007.png,bars/mask003.png,,,,,,,,,,,,3,2,,,,,,,4,8,4,6,,,,,,,,,,,674.1056,674.6051,674.8549,677.5362,space,2.6652,,677.5362,76,16,678.5349,678.5349,679.7009,space,1.1435,,0,20,20,20,1,175,55,,,,,,,,
,,60e6b73b67e5151ba27b4346,65af55bf9e24a972e38d42c6,2024-01-23_08h00.34.217,bars,2023.2.3,Win32,30.21148036,657b66ea316d21385b68909f,,,,,,,,,,,679.7015,680.6993,,,681.1989,681.4492,,149,149,,,,,,,,,,,,,,,,bars/020.png,bars/mask008.png,,,,,,,,,,,,3,2,,,,,,,2,10,2,10,,,,,,,,,,,680.6994,681.1988,681.4492,685.3456,space,3.8803,,685.3456,34,21,686.344,686.3441,687.5418,space,1.1751,,0,21,21,21,1,115,170,,,,,,,,
,,60e6b73b67e5151ba27b4346,65af55bf9e24a972e38d42c6,2024-01-23_08h00.34.217,bars,2023.2.3,Win32,30.21148036,657b66ea316d21385b68909f,,,,,,,,,,,687.5428,688.5392,,,689.0401,689.2887,,172,-8,,,,,,,,,,,,,,,,bars/024.png,bars/mask007.png,,,,,,,,,,,,7,2,,,,,,,0,8,0,8,,,,,,,,,,,688.5393,689.0401,689.2888,691.9899,space,2.6803,,691.9899,52,2,692.9886,692.9887,694.4711,space,1.4589,,0,22,22,22,1,120,170,,,,,,,,
,,60e6b73b67e5151ba27b4346,65af55bf9e24a972e38d42c6,2024-01-23_08h00.34.217,bars,2023.2.3,Win32,30.21148036,657b66ea316d21385b68909f,,,,,,,,,,,694.4715,695.4696,,,695.9693,696.2192,,97,97,,,,,,,,,,,,,,,,bars/037.png,bars/mask005.png,,,,,,,,,,,,7,2,,,,,,,0,10,0,10,,,,,,,,,,,695.4697,695.9692,696.2192,697.3182,space,1.0832,,697.3183,53,8,698.3172,698.3173,699.6494,space,1.316,,0,23,23,23,1,150,105,,,,,,,,
,,60e6b73b67e5151ba27b4346,65af55bf9e24a972e38d42c6,2024-01-23_08h00.34.217,bars,2023.2.3,Win32,30.21148036,657b66ea316d21385b68909f,,,,,,,,,,,699.6498,700.6482,,,701.1478,701.3974,,105,105,,,,,,,,,,,,,,,,bars/023.png,bars/mask001.png,,,,,,,,,,,,7,2,,,,,,,0,10,0,10,,,,,,,,,,,700.6483,701.1478,701.3974,704.6612,space,3.2476,,704.6613,85,10,705.6601,705.6601,707.8584,space,2.1653,,0,24,24,24,1,20,115,,,,,,,,
,,60e6b73b67e5151ba27b4346,65af55bf9e24a972e38d42c6,2024-01-23_08h00.34.217,bars,2023.2.3,Win32,30.21148036,657b66ea316d21385b68909f,,,,,,,,,,,707.8588,708.8571,,,709.3567,709.6066,,72,-108,,,,,,,,,,,,,,,,bars/030.png,bars/mask002.png,,,,,,,,,,,,5,2,,,,,,,2,8,3,7,,,,,,,,,,,708.8572,709.3567,709.6066,713.9694,space,4.3476,,713.9694,68,7,714.9681,714.9681,716.1515,space,1.1629,,0,25,25,25,1,140,65,,,,,,,,
,,60e6b73b67e5151ba27b4346,65af55bf9e24a972e38d42c6,2024-01-23_08h00.34.217,bars,2023.2.3,Win32,30.21148036,657b66ea316d21385b68909f,,,,,,,,,,,716.1518,717.1493,,,717.649,717.8987,,45,45,,,,,,,,,,,,,,,,bars/025.png,bars/mask006.png,,,,,,,,,,,,5,2,,,,,,,0,6,0,6,,,,,,,,,,,717.1494,717.6489,717.8987,722.362,space,4.4467,,722.3621,60,5,723.3603,723.3603,724.2763,space,0.8935,,0,26,26,26,1,105,40,,,,,,,,
,,60e6b73b67e5151ba27b4346,65af55bf9e24a972e38d42c6,2024-01-23_08h00.34.217,bars,2023.2.3,Win32,30.21148036,657b66ea316d21385b68909f,,,,,,,,,,,724.2766,725.2751,,,725.7747,726.0251,,20,20,,,,,,,,,,,,,,,,bars/012.png,bars/mask003.png,,,,,,,,,,,,5,2,,,,,,,2,8,1,6,,,,,,,,,,,725.2751,725.7746,726.0251,730.9874,space,4.9495,,730.9875,70,5,731.9855,731.9855,732.9016,space,0.8931,,0,27,27,27,1,90,15,,,,,,,,
,,60e6b73b67e5151ba27b4346,65af55bf9e24a972e38d42c6,2024-01-23_08h00.34.217,bars,2023.2.3,Win32,30.21148036,657b66ea316d21385b68909f,,,,,,,,,,,732.9019,733.9004,,,734.4,734.6496,,78,78,,,,,,,,,,,,,,,,bars/001.png,bars/mask000.png,,,,,,,,,,,,4,2,,,,,,,4,6,3,5,,,,,,,,,,,733.9004,734.4,734.6497,739.2953,space,4.6297,,739.2953,52,7,740.2943,740.2944,741.3265,space,1.0095,,0,28,28,28,1,130,85,,,,,,,,
,,60e6b73b67e5151ba27b4346,65af55bf9e24a972e38d42c6,2024-01-23_08h00.34.217,bars,2023.2.3,Win32,30.21148036,657b66ea316d21385b68909f,,,,,,,,,,,741.3271,742.3264,,,742.822,743.072,,44,44,,,,,,,,,,,,,,,,bars/029.png,bars/mask004.png,,,,,,,,,,,,7,2,,,,,,,2,8,2,7,,,,,,,,,,,742.3264,742.8219,743.072,748.0681,space,4.9794,,748.0681,46,1,749.0671,749.0671,750.3685,space,1.2783,,0,29,29,29,1,90,45,,,,,,,,
,,60e6b73b67e5151ba27b4346,65af55bf9e24a972e38d42c6,2024-01-23_08h00.34.217,bars,2023.2.3,Win32,30.21148036,657b66ea316d21385b68909f,,,,,,,,,,,750.3687,751.3673,,,751.8669,752.1166,,52,52,,,,,,,,,,,,,,,,bars/007.png,bars/mask009.png,,,,,,,,,,,,9,2,,,,,,,0,10,1,10,,,,,,,,,,,751.3673,751.8668,752.1166,755.4304,space,3.2976,,755.4304,57,3,756.4293,756.4293,757.7119,space,1.2601,,0,30,30,30,1,175,55,,,,,,,,
,,60e6b73b67e5151ba27b4346,65af55bf9e24a972e38d42c6,2024-01-23_08h00.34.217,bars,2023.2.3,Win32,30.21148036,657b66ea316d21385b68909f,,,,,,,,,,,757.7122,758.7104,,,759.2107,759.4598,,37,37,,,,,,,,,,,,,,,,bars/010.png,bars/mask005.png,,,,,,,,,,,,3,2,,,,,,,2,8,1,7,,,,,,,,,,,758.7104,759.2105,759.4598,760.5423,space,1.0666,,760.5423,52,18,761.5411,761.5411,764.4891,space,2.9339,,0,31,31,31,1,165,55,,,,,,,,
,,60e6b73b67e5151ba27b4346,65af55bf9e24a972e38d42c6,2024-01-23_08h00.34.217,bars,2023.2.3,Win32,30.21148036,657b66ea316d21385b68909f,,,,,,,,,,,764.5029,765.504,,,766.0037,766.2534,,123,123,,,,,,,,,,,,,,,,bars/027.png,bars/mask000.png,,,,,,,,,,,,0,1,,,,,,,0,6,0,6,,,,,,,,,,,765.504,766.0036,766.2534,769.718,space,3.4511,,769.7181,13,73,770.7158,770.7158,770.7557,space,0.0154,,0,32,32,32,1,110,50,,,,,,,,
,,60e6b73b67e5151ba27b4346,65af55bf9e24a972e38d42c6,2024-01-23_08h00.34.217,bars,2023.2.3,Win32,30.21148036,657b66ea316d21385b68909f,,,,,,,,,,,770.756,771.7445,,,772.244,772.4972,,31,31,,,,,,,,,,,,,,,,bars/032.png,bars/mask000.png,,,,,,,,,,,,5,2,,,,,,,2,8,4,8,,,,,,,,,,,771.7447,772.244,772.4972,776.4934,space,3.9802,,776.4935,86,11,777.4928,777.4928,779.2576,space,1.7397,,0,33,33,33,1,125,20,,,,,,,,
,,60e6b73b67e5151ba27b4346,65af55bf9e24a972e38d42c6,2024-01-23_08h00.34.217,bars,2023.2.3,Win32,30.21148036,657b66ea316d21385b68909f,,,,,,,,,,,779.2584,780.2561,,,780.7557,781.0055,,30,30,,,,,,,,,,,,,,,,bars/035.png,bars/mask004.png,,,,,,,,,,,,0,2,,,,,,,0,10,0,10,,,,,,,,,,,780.2562,780.7557,781.0055,785.0521,space,4.0306,,785.0521,35,30,786.0506,786.0508,787.0337,space,0.9595,,0,34,34,34,1,175,60,,,,,,,,
,,60e6b73b67e5151ba27b4346,65af55bf9e24a972e38d42c6,2024-01-23_08h00.34.217,bars,2023.2.3,Win32,30.21148036,657b66ea316d21385b68909f,,,,,,,,,,,787.0343,788.0321,,,788.5318,788.7815,,56,56,,,,,,,,,,,,,,,,bars/013.png,bars/mask009.png,,,,,,,,,,,,0,1,,,,,,,0,10,0,8,,,,,,,,,,,788.0322,788.5318,788.7815,789.5979,space,0.8,,789.598,19,46,790.5964,790.5965,791.8957,space,1.2824,,0,35,35,35,1,75,10,,,,,,,,
,,60e6b73b67e5151ba27b4346,65af55bf9e24a972e38d42c6,2024-01-23_08h00.34.217,bars,2023.2.3,Win32,30.21148036,657b66ea316d21385b68909f,,,,,,,,,,,791.8964,792.8943,,,793.3948,793.6452,,41,41,,,,,,,,,,,,,,,,bars/048.png,bars/mask000.png,,,,,,,,,,,,0,1,,,,,,,0,10,0,9,,,,,,,,,,,792.8943,793.3947,793.6452,794.5766,space,0.9166,,794.5766,9,46,795.5751,795.5752,797.0244,space,1.4328,,0,36,36,36,1,50,175,,,,,,,,
,,60e6b73b67e5151ba27b4346,65af55bf9e24a972e38d42c6,2024-01-23_08h00.34.217,bars,2023.2.3,Win32,30.21148036,657b66ea316d21385b68909f,,,,,,,,,,,797.025,798.0227,,,798.5224,798.7722,,13,193,,,,,,,,,,,,,,,,bars/032.png,bars/mask006.png,,,,,,,,,,,,6,2,,,,,,,2,8,2,8,,,,,,,,,,,798.0229,798.5224,798.7724,802.5524,space,3.7641,,802.5524,68,7,803.5523,803.5523,804.9981,space,1.4195,,0,37,37,37,1,125,20,,,,,,,,
,,60e6b73b67e5151ba27b4346,65af55bf9e24a972e38d42c6,2024-01-23_08h00.34.217,bars,2023.2.3,Win32,30.21148036,657b66ea316d21385b68909f,,,,,,,,,,,804.9987,805.9959,,,806.4957,806.7454,,16,16,,,,,,,,,,,,,,,,bars/048.png,bars/mask000.png,,,,,,,,,,,,2,2,,,,,,,0,6,0,7,,,,,,,,,,,805.9959,806.4956,806.7455,809.8455,space,3.0824,,809.8456,34,21,810.8441,810.8442,811.6938,space,0.8259,,0,38,38,38,1,50,175,,,,,,,,
,,60e6b73b67e5151ba27b4346,65af55bf9e24a972e38d42c6,2024-01-23_08h00.34.217,bars,2023.2.3,Win32,30.21148036,657b66ea316d21385b68909f,,,,,,,,,,,811.6946,812.6924,,,813.1922,813.4417,,71,71,,,,,,,,,,,,,,,,bars/046.png,bars/mask006.png,,,,,,,,,,,,2,2,,,,,,,0,4,1,3,,,,,,,,,,,812.6926,813.1921,813.4417,816.5754,space,3.1185,,816.5754,84,14,817.5712,817.5712,818.8045,space,1.2105,,0,39,39,39,1,155,85,,,,,,,,
,,60e6b73b67e5151ba27b4346,65af55bf9e24a972e38d42c6,2024-01-23_08h00.34.217,bars,2023.2.3,Win32,30.21148036,657b66ea316d21385b68909f,,,,,,,,,,,818.8052,819.8029,,,820.302,820.5518,,87,87,,,,,,,,,,,,,,,,bars/009.png,bars/mask009.png,,,,,,,,,,,,2,2,,,,,,,0,6,1,6,,,,,,,,,,,819.803,820.302,820.5519,824.5319,space,3.9643,,824.532,72,18,825.5305,825.5306,827.6623,space,2.1094,,0,40,40,40,1,15,105,,,,,,,,
,,60e6b73b67e5151ba27b4346,65af55bf9e24a972e38d42c6,2024-01-23_08h00.34.217,bars,2023.2.3,Win32,30.21148036,657b66ea316d21385b68909f,,,,,,,,,,,827.6634,828.6608,,,829.1609,829.4105,,176,176,,,,,,,,,,,,,,,,bars/040.png,bars/mask001.png,,,,,,,,,,,,2,2,,,,,,,2,4,2,3,,,,,,,,,,,828.6608,829.1608,829.4106,832.9586,space,3.5307,,832.9587,36,9,833.9559,833.956,836.8203,space,2.8424,,0,41,41,41,1,140,5,,,,,,,,
,,60e6b73b67e5151ba27b4346,65af55bf9e24a972e38d42c6,2024-01-23_08h00.34.217,bars,2023.2.3,Win32,30.21148036,657b66ea316d21385b68909f,,,,,,,,,,,836.8356,837.8327,,,838.3322,838.5824,,73,73,,,,,,,,,,,,,,,,bars/014.png,bars/mask006.png,,,,,,,,,,,,2,1,,,,,,,4,6,3,7,,,,,,,,,,,837.8328,838.3322,838.5824,840.5503,space,1.9503,,840.5504,7,73,841.5487,841.5487,843.7977,space,2.22,,0,42,42,42,1,80,0,,,,,,,,
,,60e6b73b67e5151ba27b4346,65af55bf9e24a972e38d42c6,2024-01-23_08h00.34.217,bars,2023.2.3,Win32,30.21148036,657b66ea316d21385b68909f,,,,,,,,,,,843.7981,844.7965,,,845.2961,845.5457,,179,179,,,,,,,,,,,,,,,,bars/010.png,bars/mask007.png,,,,,,,,,,,,2,1,,,,,,,2,4,3,4,,,,,,,,,,,844.7965,845.296,845.5458,849.1426,space,3.5813,,849.1426,14,56,850.1415,850.1415,850.2082,space,0.0435,,0,43,43,43,1,165,55,,,,,,,,
,,60e6b73b67e5151ba27b4346,65af55bf9e24a972e38d42c6,2024-01-23_08h00.34.217,bars,2023.2.3,Win32,30.21148036,657b66ea316d21385b68909f,,,,,,,,,,,850.2087,851.2072,,,851.7066,851.9565,,47,47,,,,,,,,,,,,,,,,bars/028.png,bars/mask001.png,,,,,,,,,,,,0,1,,,,,,,0,2,0,0,,,,,,,,,,,851.2072,851.7066,851.9565,854.038,space,2.0655,,854.0381,2,73,855.0369,855.037,859.666,space,4.6054,,0,44,44,44,1,45,120,,,,,,,,
,,60e6b73b67e5151ba27b4346,65af55bf9e24a972e38d42c6,2024-01-23_08h00.34.217,bars,2023.2.3,Win32,30.21148036,657b66ea316d21385b68909f,,,,,,,,,,,859.6766,860.6649,,,861.1644,861.4143,,92,92,,,,,,,,,,,,,,,,bars/018.png,bars/mask004.png,,,,,,,,,,,,3,2,,,,,,,2,4,2,3,,,,,,,,,,,860.665,861.1644,861.4143,865.1445,space,3.715,,865.1446,58,2,866.143,866.1431,867.2424,space,1.0659,,0,45,45,45,1,150,90,,,,,,,,
,,60e6b73b67e5151ba27b4346,65af55bf9e24a972e38d42c6,2024-01-23_08h00.34.217,bars,2023.2.3,Win32,30.21148036,657b66ea316d21385b68909f,,,,,,,,,,,867.2427,868.2411,,,868.7408,868.9905,,172,-8,,,,,,,,,,,,,,,,bars/045.png,bars/mask009.png,,,,,,,,,,,,2,2,,,,,,,4,6,4,6,,,,,,,,,,,868.2412,868.7408,868.9905,871.8715,space,2.865,,871.8716,72,18,872.8702,872.8702,873.9194,space,1.0239,,0,46,46,46,1,100,10,,,,,,,,
,,60e6b73b67e5151ba27b4346,65af55bf9e24a972e38d42c6,2024-01-23_08h00.34.217,bars,2023.2.3,Win32,30.21148036,657b66ea316d21385b68909f,,,,,,,,,,,873.9198,874.9182,,,875.4178,875.6677,,89,89,,,,,,,,,,,,,,,,bars/001.png,bars/mask005.png,,,,,,,,,,,,6,2,,,,,,,2,8,2,7,,,,,,,,,,,874.9182,875.4178,875.6677,879.3477,space,3.6638,,879.3477,41,4,880.3466,880.3466,881.1635,space,0.7962,,0,47,47,47,1,130,85,,,,,,,,
,,60e6b73b67e5151ba27b4346,65af55bf9e24a972e38d42c6,2024-01-23_08h00.34.217,bars,2023.2.3,Win32,30.21148036,657b66ea316d21385b68909f,,,,,,,,,,,881.1639,882.1614,,,882.6611,882.9109,,179,-1,,,,,,,,,,,,,,,,bars/012.png,bars/mask002.png,,,,,,,,,,,,2,2,,,,,,,4,6,2,5,,,,,,,,,,,882.1614,882.6611,882.9109,885.1766,space,2.2519,,885.1766,89,16,886.1746,886.1747,886.7911,space,0.5923,,0,48,48,48,1,90,15,,,,,,,,
,,60e6b73b67e5151ba27b4346,65af55bf9e24a972e38d42c6,2024-01-23_08h00.34.217,bars,2023.2.3,Win32,30.21148036,657b66ea316d21385b68909f,,,,,,,,,,,886.7915,887.7896,,,888.2891,888.5389,,48,48,,,,,,,,,,,,,,,,bars/007.png,bars/mask004.png,,,,,,,,,,,,6,2,,,,,,,2,8,1,8,,,,,,,,,,,887.7897,888.2891,888.539,890.3051,space,1.7492,,890.3052,53,7,891.3029,891.3029,892.5853,space,1.2593,,0,49,49,49,1,175,55,,,,,,,,
,,60e6b73b67e5151ba27b4346,65af55bf9e24a972e38d42c6,2024-01-23_08h00.34.217,bars,2023.2.3,Win32,30.21148036,657b66ea316d21385b68909f,,,,,,,,,,,,,,,,,,,,,,,,,,,,,,,,,,,,,,,,,,,,,,,,,,,,,,,,,,,,,,,,,,,,,,,,,,,,,,,,,,,,,,,,,,,,,892.586,952.5804,0,0,0,3,1,sequence_tables/blk042.csv
,,60e6b73b67e5151ba27b4346,65af55bf9e24a972e38d42c6,2024-01-23_08h00.34.217,bars,2023.2.3,Win32,30.21148036,657b66ea316d21385b68909f,,,,,,,,,,,955.9828,956.9747,,,957.4744,957.7242,,151,151,,,,,,,,,,,,,,,,bars/004.png,bars/mask002.png,,,,,,,,,,,,1,2,,,,,,,8,4,8,5,,,,,,952.5918,955.9767,space,3.3759,,956.9747,957.4743,957.7243,961.7538,space,4.0136,,961.7538,54,26,962.7525,962.7525,962.7634,,,,0,0,0,0,1,25,125,,,,,,,,
,,60e6b73b67e5151ba27b4346,65af55bf9e24a972e38d42c6,2024-01-23_08h00.34.217,bars,2023.2.3,Win32,30.21148036,657b66ea316d21385b68909f,,,,,,,,,,,962.7637,963.7517,,,964.2512,964.501,,39,39,,,,,,,,,,,,,,,,bars/013.png,bars/mask008.png,,,,,,,,,,,,0,2,,,,,,,10,6,10,8,,,,,,,,,,,963.7517,964.2512,964.501,970.5129,space,5.9969,,970.5129,36,29,971.5111,971.5112,971.5232,,,,0,1,1,1,1,75,10,,,,,,,,
,,60e6b73b67e5151ba27b4346,65af55bf9e24a972e38d42c6,2024-01-23_08h00.34.217,bars,2023.2.3,Win32,30.21148036,657b66ea316d21385b68909f,,,,,,,,,,,971.5235,972.5268,,,973.0264,973.2762,,27,27,,,,,,,,,,,,,,,,bars/015.png,bars/mask009.png,,,,,,,,,,,,0,2,,,,,,,10,4,10,5,,,,,,,,,,,972.5269,973.0264,973.2762,978.4044,space,5.1129,,978.4044,83,47,979.4029,979.403,979.4146,,,,0,2,2,2,1,110,160,,,,,,,,
,,60e6b73b67e5151ba27b4346,65af55bf9e24a972e38d42c6,2024-01-23_08h00.34.217,bars,2023.2.3,Win32,30.21148036,657b66ea316d21385b68909f,,,,,,,,,,,979.415,980.4185,,,980.9197,981.168,,118,118,,,,,,,,,,,,,,,,bars/024.png,bars/mask001.png,,,,,,,,,,,,7,1,,,,,,,8,6,8,5,,,,,,,,,,,980.4187,980.9197,981.168,981.9345,space,0.7499,,981.9345,2,52,982.9329,982.933,982.9356,,,,0,3,3,3,1,120,170,,,,,,,,
,,60e6b73b67e5151ba27b4346,65af55bf9e24a972e38d42c6,2024-01-23_08h00.34.217,bars,2023.2.3,Win32,30.21148036,657b66ea316d21385b68909f,,,,,,,,,,,982.936,983.932,,,984.4316,984.6814,,104,104,,,,,,,,,,,,,,,,bars/002.png,bars/mask003.png,,,,,,,,,,,,3,2,,,,,,,10,8,10,9,,,,,,,,,,,983.932,984.4316,984.6814,987.2135,space,2.5165,,987.2136,26,19,988.2113,988.2114,988.2255,,,,0,4,4,4,1,130,85,,,,,,,,
,,60e6b73b67e5151ba27b4346,65af55bf9e24a972e38d42c6,2024-01-23_08h00.34.217,bars,2023.2.3,Win32,30.21148036,657b66ea316d21385b68909f,,,,,,,,,,,988.2258,989.227,,,989.7266,989.9765,,96,96,,,,,,,,,,,,,,,,bars/025.png,bars/mask005.png,,,,,,,,,,,,6,1,,,,,,,8,10,8,10,,,,,,,,,,,989.2271,989.7266,989.9765,992.6131,space,2.6198,,992.6131,9,56,993.6062,993.6064,993.6088,,,,0,5,5,5,1,105,40,,,,,,,,
,,60e6b73b67e5151ba27b4346,65af55bf9e24a972e38d42c6,2024-01-23_08h00.34.217,bars,2023.2.3,Win32,30.21148036,657b66ea316d21385b68909f,,,,,,,,,,,993.6092,994.6053,,,995.1049,995.3546,,176,-4,,,,,,,,,,,,,,,,bars/007.png,bars/mask002.png,,,,,,,,,,,,10,1,,,,,,,10,10,10,10,,,,,,,,,,,994.6054,995.1049,995.3547,999.418,space,4.0471,,999.418,1,59,1000.4166,1000.4167,1000.428,,,,0,6,6,6,1,175,55,,,,,,,,
,,60e6b73b67e5151ba27b4346,65af55bf9e24a972e38d42c6,2024-01-23_08h00.34.217,bars,2023.2.3,Win32,30.21148036,657b66ea316d21385b68909f,,,,,,,,,,,1000.4283,1001.4324,,,1001.9319,1002.1822,,22,22,,,,,,,,,,,,,,,,bars/016.png,bars/mask007.png,,,,,,,,,,,,3,1,,,,,,,8,10,7,10,,,,,,,,,,,1001.4324,1001.9318,1002.1822,1004.9462,space,2.7481,,1004.9462,18,37,1005.9447,1005.9448,1005.9565,,,,0,7,7,7,1,40,165,,,,,,,,
,,60e6b73b67e5151ba27b4346,65af55bf9e24a972e38d42c6,2024-01-23_08h00.34.217,bars,2023.2.3,Win32,30.21148036,657b66ea316d21385b68909f,,,,,,,,,,,1005.9567,1006.9606,,,1007.46,1007.7098,,7,187,,,,,,,,,,,,,,,,bars/018.png,bars/mask008.png,,,,,,,,,,,,0,1,,,,,,,6,10,6,10,,,,,,,,,,,1006.9606,1007.46,1007.71,1010.7574,space,3.031,,1010.7575,37,83,1011.7574,1011.7574,1011.768,,,,0,8,8,8,1,150,90,,,,,,,,
,,60e6b73b67e5151ba27b4346,65af55bf9e24a972e38d42c6,2024-01-23_08h00.34.217,bars,2023.2.3,Win32,30.21148036,657b66ea316d21385b68909f,,,,,,,,,,,1011.7684,1012.7717,,,1013.2712,1013.5211,,30,30,,,,,,,,,,,,,,,,bars/019.png,bars/mask003.png,,,,,,,,,,,,4,1,,,,,,,8,8,8,8,,,,,,,,,,,1012.7718,1013.2712,1013.5212,1016.2189,space,2.6812,,1016.219,15,75,1017.2174,1017.2174,1017.2289,,,,0,9,9,9,1,45,105,,,,,,,,
,,60e6b73b67e5151ba27b4346,65af55bf9e24a972e38d42c6,2024-01-23_08h00.34.217,bars,2023.2.3,Win32,30.21148036,657b66ea316d21385b68909f,,,,,,,,,,,1017.2292,1018.218,,,1018.7162,1018.9659,,162,162,,,,,,,,,,,,,,,,bars/024.png,bars/mask000.png,,,,,,,,,,,,7,2,,,,,,,6,10,4,10,,,,,,,,,,,1018.218,1018.7162,1018.9659,1025.0939,space,6.112,,1025.0939,42,8,1026.0925,1026.0925,1026.1066,,,,0,10,10,10,1,120,170,,,,,,,,
,,60e6b73b67e5151ba27b4346,65af55bf9e24a972e38d42c6,2024-01-23_08h00.34.217,bars,2023.2.3,Win32,30.21148036,657b66ea316d21385b68909f,,,,,,,,,,,1026.1069,1027.1083,,,1027.6079,1027.8576,,126,126,,,,,,,,,,,,,,,,bars/020.png,bars/mask005.png,,,,,,,,,,,,2,1,,,,,,,4,8,3,10,,,,,,,,,,,1027.1083,1027.6078,1027.8577,1030.2902,space,2.4153,,1030.2902,11,44,1031.2876,1031.2877,1031.3003,,,,0,11,11,11,1,115,170,,,,,,,,
,,60e6b73b67e5151ba27b4346,65af55bf9e24a972e38d42c6,2024-01-23_08h00.34.217,bars,2023.2.3,Win32,30.21148036,657b66ea316d21385b68909f,,,,,,,,,,,1031.3007,1032.3033,,,1032.803,1033.0527,,30,210,,,,,,,,,,,,,,,,bars/007.png,bars/mask006.png,,,,,,,,,,,,1,2,,,,,,,6,6,6,5,,,,,,,,,,,1032.3034,1032.8029,1033.0528,1038.5479,space,5.4796,,1038.5481,35,25,1039.5467,1039.5467,1039.5594,,,,0,12,12,12,1,175,55,,,,,,,,
,,60e6b73b67e5151ba27b4346,65af55bf9e24a972e38d42c6,2024-01-23_08h00.34.217,bars,2023.2.3,Win32,30.21148036,657b66ea316d21385b68909f,,,,,,,,,,,1039.5596,1040.5595,,,1041.059,1041.3089,,153,153,,,,,,,,,,,,,,,,bars/011.png,bars/mask006.png,,,,,,,,,,,,5,1,,,,,,,8,8,7,7,,,,,,,,,,,1040.5595,1041.059,1041.309,1043.8435,space,2.5159,,1043.8436,7,68,1044.8424,1044.8424,1044.8546,,,,0,13,13,13,1,160,85,,,,,,,,
,,60e6b73b67e5151ba27b4346,65af55bf9e24a972e38d42c6,2024-01-23_08h00.34.217,bars,2023.2.3,Win32,30.21148036,657b66ea316d21385b68909f,,,,,,,,,,,1044.8552,1045.858,,,1046.3577,1046.6074,,152,152,,,,,,,,,,,,,,,,bars/011.png,bars/mask007.png,,,,,,,,,,,,4,1,,,,,,,6,10,6,10,,,,,,,,,,,1045.8581,1046.3576,1046.6075,1050.9536,space,4.3301,,1050.9536,8,67,1051.9523,1051.9524,1051.9629,,,,0,14,14,14,1,160,85,,,,,,,,
,,60e6b73b67e5151ba27b4346,65af55bf9e24a972e38d42c6,2024-01-23_08h00.34.217,bars,2023.2.3,Win32,30.21148036,657b66ea316d21385b68909f,,,,,,,,,,,1051.9632,1052.9514,,,1053.451,1053.7007,,86,86,,,,,,,,,,,,,,,,bars/029.png,bars/mask000.png,,,,,,,,,,,,4,1,,,,,,,4,10,5,10,,,,,,,,,,,1052.9515,1053.4509,1053.7007,1057.1479,space,3.4307,,1057.1479,4,41,1058.1466,1058.1467,1058.1576,,,,0,15,15,15,1,90,45,,,,,,,,
,,60e6b73b67e5151ba27b4346,65af55bf9e24a972e38d42c6,2024-01-23_08h00.34.217,bars,2023.2.3,Win32,30.21148036,657b66ea316d21385b68909f,,,,,,,,,,,1058.1579,1059.1456,,,1059.6453,1059.8656,,41,41,,,,,,,,,,,,,,,,bars/000.png,bars/mask003.png,,,,,,,,,,,,3,1,,,,,,,2,8,3,7,,,,,,,,,,,1059.1456,1059.6453,1059.8656,1061.674,space,1.7925,,1061.6741,1,76,1062.6758,1062.6758,1062.687,,,,0,16,16,16,1,40,145,,,,,,,,
,,60e6b73b67e5151ba27b4346,65af55bf9e24a972e38d42c6,2024-01-23_08h00.34.217,bars,2023.2.3,Win32,30.21148036,657b66ea316d21385b68909f,,,,,,,,,,,1062.6877,1063.6914,,,1064.1909,1064.4408,,8,8,,,,,,,,,,,,,,,,bars/023.png,bars/mask009.png,,,,,,,,,,,,2,1,,,,,,,4,6,4,7,,,,,,,,,,,1063.6914,1064.1909,1064.4408,1067.7046,space,3.2479,,1067.7046,12,73,1068.7034,1068.7034,1068.7142,,,,0,17,17,17,1,20,115,,,,,,,,
,,60e6b73b67e5151ba27b4346,65af55bf9e24a972e38d42c6,2024-01-23_08h00.34.217,bars,2023.2.3,Win32,30.21148036,657b66ea316d21385b68909f,,,,,,,,,,,1068.7145,1069.7026,,,1070.2021,1070.4518,,162,162,,,,,,,,,,,,,,,,bars/036.png,bars/mask006.png,,,,,,,,,,,,3,1,,,,,,,6,4,6,5,,,,,,,,,,,1069.7026,1070.202,1070.4518,1073.9488,space,3.4811,,1073.9488,17,38,1074.9475,1074.9476,1074.9587,,,,0,18,18,18,1,145,20,,,,,,,,
,,60e6b73b67e5151ba27b4346,65af55bf9e24a972e38d42c6,2024-01-23_08h00.34.217,bars,2023.2.3,Win32,30.21148036,657b66ea316d21385b68909f,,,,,,,,,,,1074.959,1075.9632,,,1076.4628,1076.7126,,52,52,,,,,,,,,,,,,,,,bars/048.png,bars/mask006.png,,,,,,,,,,,,3,1,,,,,,,4,2,3,3,,,,,,,,,,,1075.9633,1076.4627,1076.7127,1079.2932,space,2.5656,,1079.2932,2,57,1080.2917,1080.2918,1080.2932,,,,0,19,19,19,1,50,175,,,,,,,,
,,60e6b73b67e5151ba27b4346,65af55bf9e24a972e38d42c6,2024-01-23_08h00.34.217,bars,2023.2.3,Win32,30.21148036,657b66ea316d21385b68909f,,,,,,,,,,,1080.2935,1081.2908,,,1081.7915,1082.0403,,157,157,,,,,,,,,,,,,,,,bars/021.png,bars/mask007.png,,,,,,,,,,,,1,1,,,,,,,2,0,1,0,,,,,,,,,,,1081.2908,1081.7914,1082.0406,1085.8709,space,3.8137,,1085.8709,2,87,1086.8696,1086.8698,1086.8804,,,,0,20,20,20,1,155,70,,,,,,,,
,,60e6b73b67e5151ba27b4346,65af55bf9e24a972e38d42c6,2024-01-23_08h00.34.217,bars,2023.2.3,Win32,30.21148036,657b66ea316d21385b68909f,,,,,,,,,,,1086.8808,1087.8687,,,1088.3684,1088.618,,126,126,,,,,,,,,,,,,,,,bars/002.png,bars/mask009.png,,,,,,,,,,,,4,1,,,,,,,4,0,5,0,,,,,,,,,,,1087.8688,1088.3684,1088.618,1091.5324,space,2.8979,,1091.5324,4,41,1092.531,1092.531,1092.5423,,,,0,21,21,21,1,130,85,,,,,,,,
,,60e6b73b67e5151ba27b4346,65af55bf9e24a972e38d42c6,2024-01-23_08h00.34.217,bars,2023.2.3,Win32,30.21148036,657b66ea316d21385b68909f,,,,,,,,,,,1092.5426,1093.5311,,,1094.0297,1094.2794,,115,115,,,,,,,,,,,,,,,,bars/008.png,bars/mask005.png,,,,,,,,,,,,4,1,,,,,,,6,0,5,0,,,,,,,,,,,1093.5311,1094.0297,1094.2795,1097.9596,space,3.6639,,1097.9596,5,65,1098.9584,1098.9584,1098.9697,,,,0,22,22,22,1,110,0,,,,,,,,
,,60e6b73b67e5151ba27b4346,65af55bf9e24a972e38d42c6,2024-01-23_08h00.34.217,bars,2023.2.3,Win32,30.21148036,657b66ea316d21385b68909f,,,,,,,,,,,1098.9702,1099.974,,,1100.4737,1100.7236,,176,176,,,,,,,,,,,,,,,,bars/049.png,bars/mask000.png,,,,,,,,,,,,4,1,,,,,,,8,0,8,0,,,,,,,,,,,1099.9741,1100.4736,1100.7236,1104.4702,space,3.7306,,1104.4703,16,61,1105.4692,1105.4692,1105.4802,,,,0,23,23,23,1,160,115,,,,,,,,
,,60e6b73b67e5151ba27b4346,65af55bf9e24a972e38d42c6,2024-01-23_08h00.34.217,bars,2023.2.3,Win32,30.21148036,657b66ea316d21385b68909f,,,,,,,,,,,1105.4804,1106.4846,,,1106.9843,1107.234,,51,51,,,,,,,,,,,,,,,,bars/048.png,bars/mask004.png,,,,,,,,,,,,10,1,,,,,,,10,0,10,2,,,,,,,,,,,1106.4846,1106.9842,1107.234,1109.7985,space,2.5489,,1109.7985,1,56,1110.7972,1110.7973,1110.8081,,,,0,24,24,24,1,50,175,,,,,,,,
,,60e6b73b67e5151ba27b4346,65af55bf9e24a972e38d42c6,2024-01-23_08h00.34.217,bars,2023.2.3,Win32,30.21148036,657b66ea316d21385b68909f,,,,,,,,,,,1110.8083,1111.7964,,,1112.296,1112.5456,,39,39,,,,,,,,,,,,,,,,bars/016.png,bars/mask007.png,,,,,,,,,,,,10,1,,,,,,,10,2,10,3,,,,,,,,,,,1111.7964,1112.2959,1112.5457,1115.4099,space,2.8484,,1115.4099,1,54,1116.4087,1116.4087,1116.4198,,,,0,25,25,25,1,40,165,,,,,,,,
,,60e6b73b67e5151ba27b4346,65af55bf9e24a972e38d42c6,2024-01-23_08h00.34.217,bars,2023.2.3,Win32,30.21148036,657b66ea316d21385b68909f,,,,,,,,,,,1116.4202,1117.4078,,,1117.9074,1118.1571,,97,97,,,,,,,,,,,,,,,,bars/025.png,bars/mask005.png,,,,,,,,,,,,5,1,,,,,,,8,4,7,3,,,,,,,,,,,1117.4079,1117.9074,1118.1572,1121.5878,space,3.4146,,1121.5878,8,57,1122.5862,1122.5862,1122.607,,,,0,26,26,26,1,105,40,,,,,,,,
,,60e6b73b67e5151ba27b4346,65af55bf9e24a972e38d42c6,2024-01-23_08h00.34.217,bars,2023.2.3,Win32,30.21148036,657b66ea316d21385b68909f,,,,,,,,,,,1122.6074,1123.6019,,,1124.1016,1124.3515,,157,157,,,,,,,,,,,,,,,,bars/049.png,bars/mask004.png,,,,,,,,,,,,6,1,,,,,,,6,2,7,2,,,,,,,,,,,1123.6019,1124.1015,1124.3516,1129.3634,space,4.9965,,1129.3634,3,42,1130.3622,1130.3623,1130.3731,,,,0,27,27,27,1,160,115,,,,,,,,
,,60e6b73b67e5151ba27b4346,65af55bf9e24a972e38d42c6,2024-01-23_08h00.34.217,bars,2023.2.3,Win32,30.21148036,657b66ea316d21385b68909f,,,,,,,,,,,1130.3736,1131.3613,,,1131.8609,1132.1107,,176,176,,,,,,,,,,,,,,,,bars/038.png,bars/mask005.png,,,,,,,,,,,,2,1,,,,,,,4,0,3,1,,,,,,,,,,,1131.3613,1131.8609,1132.1108,1137.073,space,4.9462,,1137.073,11,74,1138.0719,1138.0719,1138.083,,,,0,28,28,28,1,165,70,,,,,,,,
,,60e6b73b67e5151ba27b4346,65af55bf9e24a972e38d42c6,2024-01-23_08h00.34.217,bars,2023.2.3,Win32,30.21148036,657b66ea316d21385b68909f,,,,,,,,,,,1138.0833,1139.0876,,,1139.587,1139.8367,,109,109,,,,,,,,,,,,,,,,bars/020.png,bars/mask008.png,,,,,,,,,,,,5,1,,,,,,,6,2,6,1,,,,,,,,,,,1139.0876,1139.587,1139.8368,1141.6521,space,1.8002,,1141.6521,6,61,1142.6508,1142.6509,1142.6515,,,,0,29,29,29,1,115,170,,,,,,,,
,,60e6b73b67e5151ba27b4346,65af55bf9e24a972e38d42c6,2024-01-23_08h00.34.217,bars,2023.2.3,Win32,30.21148036,657b66ea316d21385b68909f,,,,,,,,,,,1142.6518,1143.6499,,,1144.1495,1144.3992,,34,214,,,,,,,,,,,,,,,,bars/003.png,bars/mask006.png,,,,,,,,,,,,1,1,,,,,,,4,0,2,1,,,,,,,,,,,1143.6499,1144.1494,1144.3992,1149.1948,space,4.7798,,1149.1949,9,74,1150.1938,1150.1938,1150.205,,,,0,30,30,30,1,25,140,,,,,,,,
,,60e6b73b67e5151ba27b4346,65af55bf9e24a972e38d42c6,2024-01-23_08h00.34.217,bars,2023.2.3,Win32,30.21148036,657b66ea316d21385b68909f,,,,,,,,,,,1150.2052,1151.193,,,1151.6923,1151.9421,,57,57,,,,,,,,,,,,,,,,bars/019.png,bars/mask005.png,,,,,,,,,,,,1,1,,,,,,,2,2,1,3,,,,,,,,,,,1151.193,1151.6923,1151.9421,1152.8914,space,0.9332,,1152.8914,12,48,1153.8921,1153.8921,1153.893,,,,0,31,31,31,1,45,105,,,,,,,,
,,60e6b73b67e5151ba27b4346,65af55bf9e24a972e38d42c6,2024-01-23_08h00.34.217,bars,2023.2.3,Win32,30.21148036,657b66ea316d21385b68909f,,,,,,,,,,,1153.8933,1154.8892,,,1155.3889,1155.6386,,136,136,,,,,,,,,,,,,,,,bars/032.png,bars/mask004.png,,,,,,,,,,,,2,1,,,,,,,4,4,3,4,,,,,,,,,,,1154.8893,1155.3888,1155.6387,1159.9016,space,4.2473,,1159.9016,11,64,1160.9003,1160.9003,1160.9155,,,,0,32,32,32,1,125,20,,,,,,,,
,,60e6b73b67e5151ba27b4346,65af55bf9e24a972e38d42c6,2024-01-23_08h00.34.217,bars,2023.2.3,Win32,30.21148036,657b66ea316d21385b68909f,,,,,,,,,,,1160.9176,1161.916,,,1162.4157,1162.6653,,0,180,,,,,,,,,,,,,,,,bars/024.png,bars/mask005.png,,,,,,,,,,,,3,2,,,,,,,6,6,4,4,,,,,,,,,,,1161.9161,1162.4156,1162.6654,1164.7116,space,2.0318,,1164.7117,60,10,1165.7086,1165.7087,1165.7219,,,,0,33,33,33,1,120,170,,,,,,,,
,,60e6b73b67e5151ba27b4346,65af55bf9e24a972e38d42c6,2024-01-23_08h00.34.217,bars,2023.2.3,Win32,30.21148036,657b66ea316d21385b68909f,,,,,,,,,,,1165.7222,1166.7108,,,1167.211,1167.4601,,5,185,,,,,,,,,,,,,,,,bars/020.png,bars/mask006.png,,,,,,,,,,,,4,2,,,,,,,4,8,4,8,,,,,,,,,,,1166.7108,1167.2109,1167.4601,1170.1393,space,2.6636,,1170.1394,70,15,1171.1372,1171.1373,1171.1491,,,,0,34,34,34,1,115,170,,,,,,,,
,,60e6b73b67e5151ba27b4346,65af55bf9e24a972e38d42c6,2024-01-23_08h00.34.217,bars,2023.2.3,Win32,30.21148036,657b66ea316d21385b68909f,,,,,,,,,,,1171.1493,1172.1394,,,1172.6745,1172.905,,157,157,,,,,,,,,,,,,,,,bars/013.png,bars/mask004.png,,,,,,,,,,,,0,2,,,,,,,2,10,1,9,,,,,,,,,,,1172.1394,1172.6745,1172.9051,1175.1868,space,2.2659,,1175.1869,82,33,1176.1852,1176.1853,1176.197,,,,0,35,35,35,1,75,10,,,,,,,,
,,60e6b73b67e5151ba27b4346,65af55bf9e24a972e38d42c6,2024-01-23_08h00.34.217,bars,2023.2.3,Win32,30.21148036,657b66ea316d21385b68909f,,,,,,,,,,,1176.1974,1177.2009,,,1177.7006,1177.9503,,172,172,,,,,,,,,,,,,,,,bars/033.png,bars/mask000.png,,,,,,,,,,,,3,2,,,,,,,4,8,3,8,,,,,,,,,,,1177.201,1177.7004,1177.9504,1181.7638,space,3.7972,,1181.7639,33,17,1182.7625,1182.7625,1182.7739,,,,0,36,36,36,1,25,155,,,,,,,,
,,60e6b73b67e5151ba27b4346,65af55bf9e24a972e38d42c6,2024-01-23_08h00.34.217,bars,2023.2.3,Win32,30.21148036,657b66ea316d21385b68909f,,,,,,,,,,,1182.7743,1183.7794,,,1184.2777,1184.5275,,40,220,,,,,,,,,,,,,,,,bars/034.png,bars/mask009.png,,,,,,,,,,,,1,2,,,,,,,2,6,2,5,,,,,,,,,,,1183.7795,1184.2777,1184.5275,1187.1756,space,2.6316,,1187.1756,85,25,1188.1741,1188.1741,1188.1896,,,,0,37,37,37,1,125,65,,,,,,,,
,,60e6b73b67e5151ba27b4346,65af55bf9e24a972e38d42c6,2024-01-23_08h00.34.217,bars,2023.2.3,Win32,30.21148036,657b66ea316d21385b68909f,,,,,,,,,,,1188.1904,1189.1872,,,1189.6905,1189.9398,,89,89,,,,,,,,,,,,,,,,bars/018.png,bars/mask002.png,,,,,,,,,,,,10,2,,,,,,,4,8,4,10,,,,,,,,,,,1189.1872,1189.6905,1189.9398,1192.471,space,2.5151,,1192.471,61,1,1193.4699,1193.47,1193.4809,,,,0,38,38,38,1,150,90,,,,,,,,
,,60e6b73b67e5151ba27b4346,65af55bf9e24a972e38d42c6,2024-01-23_08h00.34.217,bars,2023.2.3,Win32,30.21148036,657b66ea316d21385b68909f,,,,,,,,,,,1193.4812,1194.4689,,,1194.9685,1195.2182,,175,175,,,,,,,,,,,,,,,,bars/015.png,bars/mask002.png,,,,,,,,,,,,3,2,,,,,,,2,6,2,5,,,,,,,,,,,1194.4689,1194.9684,1195.2182,1198.915,space,3.6807,,1198.915,65,15,1199.9137,1199.9138,1199.9264,,,,0,39,39,39,1,110,160,,,,,,,,
,,60e6b73b67e5151ba27b4346,65af55bf9e24a972e38d42c6,2024-01-23_08h00.34.217,bars,2023.2.3,Win32,30.21148036,657b66ea316d21385b68909f,,,,,,,,,,,1199.9266,1200.9295,,,1201.4291,1201.6788,,93,93,,,,,,,,,,,,,,,,bars/046.png,bars/mask001.png,,,,,,,,,,,,5,2,,,,,,,4,8,2,7,,,,,,,,,,,1200.9295,1201.429,1201.6788,1204.1434,space,2.4489,,1204.1434,62,8,1205.1423,1205.1423,1205.143,,,,0,40,40,40,1,155,85,,,,,,,,
,,60e6b73b67e5151ba27b4346,65af55bf9e24a972e38d42c6,2024-01-23_08h00.34.217,bars,2023.2.3,Win32,30.21148036,657b66ea316d21385b68909f,,,,,,,,,,,1205.1437,1206.1414,,,1206.6409,1206.8906,,95,95,,,,,,,,,,,,,,,,bars/041.png,bars/mask004.png,,,,,,,,,,,,7,2,,,,,,,6,10,5,10,,,,,,,,,,,1206.1414,1206.6409,1206.8906,1210.1046,space,3.1992,,1210.1047,75,10,1211.1032,1211.1034,1211.115,,,,0,41,41,41,1,20,85,,,,,,,,
,,60e6b73b67e5151ba27b4346,65af55bf9e24a972e38d42c6,2024-01-23_08h00.34.217,bars,2023.2.3,Win32,30.21148036,657b66ea316d21385b68909f,,,,,,,,,,,1211.1155,1212.119,,,1212.6188,1212.8683,,48,48,,,,,,,,,,,,,,,,bars/022.png,bars/mask004.png,,,,,,,,,,,,1,2,,,,,,,8,8,8,10,,,,,,,,,,,1212.1191,1212.6188,1212.8684,1214.7002,space,1.8161,,1214.7003,47,28,1215.699,1215.699,1215.71,,,,0,42,42,42,1,95,20,,,,,,,,
,,60e6b73b67e5151ba27b4346,65af55bf9e24a972e38d42c6,2024-01-23_08h00.34.217,bars,2023.2.3,Win32,30.21148036,657b66ea316d21385b68909f,,,,,,,,,,,1215.7102,1216.698,,,1217.1976,1217.4474,,88,88,,,,,,,,,,,,,,,,bars/042.png,bars/mask002.png,,,,,,,,,,,,3,2,,,,,,,10,6,10,6,,,,,,,,,,,1216.6981,1217.1976,1217.4474,1220.9777,space,3.5141,,1220.9777,57,13,1221.9765,1221.9765,1221.9904,,,,0,43,43,43,1,145,75,,,,,,,,
,,60e6b73b67e5151ba27b4346,65af55bf9e24a972e38d42c6,2024-01-23_08h00.34.217,bars,2023.2.3,Win32,30.21148036,657b66ea316d21385b68909f,,,,,,,,,,,1221.9909,1222.9922,,,1223.4921,1223.7424,,169,169,,,,,,,,,,,,,,,,bars/015.png,bars/mask007.png,,,,,,,,,,,,4,2,,,,,,,8,4,10,5,,,,,,,,,,,1222.9922,1223.492,1223.7424,1227.1219,space,3.3635,,1227.1219,59,9,1228.1211,1228.1211,1228.1324,,,,0,44,44,44,1,110,160,,,,,,,,
,,60e6b73b67e5151ba27b4346,65af55bf9e24a972e38d42c6,2024-01-23_08h00.34.217,bars,2023.2.3,Win32,30.21148036,657b66ea316d21385b68909f,,,,,,,,,,,1228.1327,1229.1364,,,1229.6362,1229.886,,169,169,,,,,,,,,,,,,,,,bars/044.png,bars/mask007.png,,,,,,,,,,,,1,2,,,,,,,6,2,7,2,,,,,,,,,,,1229.1364,1229.6362,1229.886,1231.5015,space,1.5993,,1231.5015,86,14,1232.5007,1232.5007,1232.5015,,,,0,45,45,45,1,75,155,,,,,,,,
,,60e6b73b67e5151ba27b4346,65af55bf9e24a972e38d42c6,2024-01-23_08h00.34.217,bars,2023.2.3,Win32,30.21148036,657b66ea316d21385b68909f,,,,,,,,,,,1232.5018,1233.499,,,1233.9908,1234.2316,,89,89,,,,,,,,,,,,,,,,bars/037.png,bars/mask007.png,,,,,,,,,,,,0,2,,,,,,,4,0,5,0,,,,,,,,,,,1233.499,1233.9907,1234.2317,1236.7296,space,2.482,,1236.7296,61,16,1237.7284,1237.7284,1237.7453,,,,0,46,46,46,1,150,105,,,,,,,,
,,60e6b73b67e5151ba27b4346,65af55bf9e24a972e38d42c6,2024-01-23_08h00.34.217,bars,2023.2.3,Win32,30.21148036,657b66ea316d21385b68909f,,,,,,,,,,,1237.7456,1238.7441,,,1239.245,1239.4935,,160,160,,,,,,,,,,,,,,,,bars/044.png,bars/mask005.png,,,,,,,,,,,,2,2,,,,,,,2,2,2,2,,,,,,,,,,,1238.7441,1239.245,1239.4935,1244.9884,space,5.4797,,1244.9884,85,5,1245.9874,1245.9874,1246.0003,,,,0,47,47,47,1,75,155,,,,,,,,
,,60e6b73b67e5151ba27b4346,65af55bf9e24a972e38d42c6,2024-01-23_08h00.34.217,bars,2023.2.3,Win32,30.21148036,657b66ea316d21385b68909f,,,,,,,,,,,1246.0006,1247.0029,,,1247.5028,1247.7523,,40,40,,,,,,,,,,,,,,,,bars/017.png,bars/mask004.png,,,,,,,,,,,,4,2,,,,,,,0,4,1,5,,,,,,,,,,,1247.003,1247.5028,1247.7524,1248.3522,space,0.5835,,1248.3522,75,5,1249.3509,1249.3509,1249.3516,,,,0,48,48,48,1,145,45,,,,,,,,
,,60e6b73b67e5151ba27b4346,65af55bf9e24a972e38d42c6,2024-01-23_08h00.34.217,bars,2023.2.3,Win32,30.21148036,657b66ea316d21385b68909f,,,,,,,,,,,1249.352,1250.35,,,1250.8497,1251.0997,,37,37,,,,,,,,,,,,,,,,bars/029.png,bars/mask004.png,,,,,,,,,,,,1,2,,,,,,,2,2,3,2,,,,,,,,,,,1250.35,1250.8497,1251.0997,1254.3802,space,3.2642,,1254.3802,53,8,1255.3788,1255.3788,1255.3899,,,,0,49,49,49,1,90,45,,,,,,,,
,,60e6b73b67e5151ba27b4346,65af55bf9e24a972e38d42c6,2024-01-23_08h00.34.217,bars,2023.2.3,Win32,30.21148036,657b66ea316d21385b68909f,,,,,,,,,,,,,,,,,,,,,,,,,,,,,,,,,,,,,,,,,,,,,,,,,,,,,,,,,,,,,,,,,,,,,,,,,,,,,,,,,,,,,,,,,,,,,1255.3901,1315.3891,0,1,1,1,1,sequence_tables/blk028.csv
,,60e6b73b67e5151ba27b4346,65af55bf9e24a972e38d42c6,2024-01-23_08h00.34.217,bars,2023.2.3,Win32,30.21148036,657b66ea316d21385b68909f,,,,,,,,,,,1337.7041,1338.7005,,,1339.2,1339.4497,,2,2,,,,,,,,,,,,,,,,bars/032.png,bars/mask004.png,,,,,,,,,,,,4,2,,,,,,,9,8,9,9,,,,,,1315.4007,1337.686,space,22.2756,,1338.7005,1339.1999,1339.4499,1342.0641,space,2.5985,,1342.0641,57,18,1343.063,1343.0631,1343.0738,,,,0,0,0,0,1,125,20,,,,,,,,
,,60e6b73b67e5151ba27b4346,65af55bf9e24a972e38d42c6,2024-01-23_08h00.34.217,bars,2023.2.3,Win32,30.21148036,657b66ea316d21385b68909f,,,,,,,,,,,1343.074,1344.0621,,,1344.5616,1344.8115,,156,156,,,,,,,,,,,,,,,,bars/049.png,bars/mask000.png,,,,,,,,,,,,6,1,,,,,,,7,10,7,10,,,,,,,,,,,1344.0621,1344.5616,1344.8115,1348.5413,space,3.7142,,1348.5414,4,41,1349.5403,1349.5404,1349.5589,,,,0,1,1,1,1,160,115,,,,,,,,
,,60e6b73b67e5151ba27b4346,65af55bf9e24a972e38d42c6,2024-01-23_08h00.34.217,bars,2023.2.3,Win32,30.21148036,657b66ea316d21385b68909f,,,,,,,,,,,1349.5592,1350.556,,,1351.0566,1351.3064,,33,213,,,,,,,,,,,,,,,,bars/020.png,bars/mask006.png,,,,,,,,,,,,0,2,,,,,,,9,10,9,10,,,,,,,,,,,1350.556,1351.0565,1351.3064,1354.7355,space,3.4141,,1354.7355,82,43,1355.7345,1355.7345,1355.7464,,,,0,2,2,2,1,115,170,,,,,,,,
,,60e6b73b67e5151ba27b4346,65af55bf9e24a972e38d42c6,2024-01-23_08h00.34.217,bars,2023.2.3,Win32,30.21148036,657b66ea316d21385b68909f,,,,,,,,,,,1355.7468,1356.7503,,,1357.2498,1357.4995,,124,124,,,,,,,,,,,,,,,,bars/009.png,bars/mask006.png,,,,,,,,,,,,2,2,,,,,,,7,8,8,6,,,,,,,,,,,1356.7503,1357.2498,1357.4995,1359.9812,space,2.4678,,1359.9812,71,19,1360.9795,1360.9795,1360.9909,,,,0,3,3,3,1,15,105,,,,,,,,
,,60e6b73b67e5151ba27b4346,65af55bf9e24a972e38d42c6,2024-01-23_08h00.34.217,bars,2023.2.3,Win32,30.21148036,657b66ea316d21385b68909f,,,,,,,,,,,1360.9911,1361.9954,,,1362.4949,1362.7446,,57,57,,,,,,,,,,,,,,,,bars/047.png,bars/mask003.png,,,,,,,,,,,,6,2,,,,,,,5,10,6,10,,,,,,,,,,,1361.9954,1362.4948,1362.7447,1364.1101,space,1.3495,,1364.1101,42,13,1365.1091,1365.1091,1365.1099,,,,0,4,4,4,1,15,70,,,,,,,,
,,60e6b73b67e5151ba27b4346,65af55bf9e24a972e38d42c6,2024-01-23_08h00.34.217,bars,2023.2.3,Win32,30.21148036,657b66ea316d21385b68909f,,,,,,,,,,,1365.1102,1366.1081,,,1366.6077,1366.8574,,153,153,,,,,,,,,,,,,,,,bars/020.png,bars/mask006.png,,,,,,,,,,,,3,2,,,,,,,7,8,7,8,,,,,,,,,,,1366.1081,1366.6077,1366.8575,1368.8056,space,1.9322,,1368.8057,38,17,1369.8046,1369.8047,1369.8054,,,,0,5,5,5,1,115,170,,,,,,,,
,,60e6b73b67e5151ba27b4346,65af55bf9e24a972e38d42c6,2024-01-23_08h00.34.217,bars,2023.2.3,Win32,30.21148036,657b66ea316d21385b68909f,,,,,,,,,,,1369.8057,1370.8037,,,1371.3033,1371.5531,,91,91,,,,,,,,,,,,,,,,bars/006.png,bars/mask007.png,,,,,,,,,,,,4,2,,,,,,,9,6,9,5,,,,,,,,,,,1370.8037,1371.3033,1371.5531,1373.9009,space,2.3318,,1373.901,56,9,1374.8999,1374.8999,1374.9123,,,,0,6,6,6,1,35,100,,,,,,,,
,,60e6b73b67e5151ba27b4346,65af55bf9e24a972e38d42c6,2024-01-23_08h00.34.217,bars,2023.2.3,Win32,30.21148036,657b66ea316d21385b68909f,,,,,,,,,,,1374.9125,1375.9158,,,1376.415,1376.6649,,37,37,,,,,,,,,,,,,,,,bars/031.png,bars/mask007.png,,,,,,,,,,,,2,2,,,,,,,7,4,7,2,,,,,,,,,,,1375.9159,1376.415,1376.665,1381.3109,space,4.6298,,1381.3109,83,2,1382.3096,1382.3097,1382.3208,,,,0,7,7,7,1,120,35,,,,,,,,
,,60e6b73b67e5151ba27b4346,65af55bf9e24a972e38d42c6,2024-01-23_08h00.34.217,bars,2023.2.3,Win32,30.21148036,657b66ea316d21385b68909f,,,,,,,,,,,1382.3214,1383.3253,,,1383.825,1384.0748,,56,56,,,,,,,,,,,,,,,,bars/047.png,bars/mask000.png,,,,,,,,,,,,2,2,,,,,,,5,2,6,3,,,,,,,,,,,1383.3253,1383.8249,1384.0748,1386.2413,space,2.1529,,1386.2413,41,14,1387.2383,1387.2383,1387.2491,,,,0,8,8,8,1,15,70,,,,,,,,
,,60e6b73b67e5151ba27b4346,65af55bf9e24a972e38d42c6,2024-01-23_08h00.34.217,bars,2023.2.3,Win32,30.21148036,657b66ea316d21385b68909f,,,,,,,,,,,1387.2494,1388.2377,,,1388.737,1388.9866,,115,115,,,,,,,,,,,,,,,,bars/039.png,bars/mask002.png,,,,,,,,,,,,3,2,,,,,,,7,4,8,4,,,,,,,,,,,1388.2377,1388.737,1388.9867,1390.5688,space,1.5661,,1390.5688,60,10,1391.5676,1391.5676,1391.5684,,,,0,9,9,9,1,175,105,,,,,,,,
,,60e6b73b67e5151ba27b4346,65af55bf9e24a972e38d42c6,2024-01-23_08h00.34.217,bars,2023.2.3,Win32,30.21148036,657b66ea316d21385b68909f,,,,,,,,,,,1391.5687,1392.5666,,,1393.0662,1393.3159,,70,-110,,,,,,,,,,,,,,,,bars/046.png,bars/mask004.png,,,,,,,,,,,,1,2,,,,,,,9,2,10,2,,,,,,,,,,,1392.5667,1393.0662,1393.316,1397.9784,space,4.6461,,1397.9784,85,15,1398.9773,1398.9775,1398.9881,,,,0,10,10,10,1,155,85,,,,,,,,
,,60e6b73b67e5151ba27b4346,65af55bf9e24a972e38d42c6,2024-01-23_08h00.34.217,bars,2023.2.3,Win32,30.21148036,657b66ea316d21385b68909f,,,,,,,,,,,1398.9884,1399.9764,,,1400.476,1400.7257,,147,147,,,,,,,,,,,,,,,,bars/003.png,bars/mask009.png,,,,,,,,,,,,0,2,,,,,,,7,0,7,0,,,,,,,,,,,1399.9765,1400.476,1400.7257,1402.4575,space,1.7161,,1402.4575,58,7,1403.4565,1403.4565,1403.4572,,,,0,11,11,11,1,25,140,,,,,,,,
,,60e6b73b67e5151ba27b4346,65af55bf9e24a972e38d42c6,2024-01-23_08h00.34.217,bars,2023.2.3,Win32,30.21148036,657b66ea316d21385b68909f,,,,,,,,,,,1403.4575,1404.4556,,,1404.9552,1405.2049,,105,105,,,,,,,,,,,,,,,,bars/022.png,bars/mask008.png,,,,,,,,,,,,6,1,,,,,,,9,0,9,0,,,,,,,,,,,1404.4556,1404.9551,1405.2049,1407.2711,space,2.0523,,1407.2712,10,85,1408.2687,1408.2688,1408.2931,,,,0,12,12,12,1,95,20,,,,,,,,
,,60e6b73b67e5151ba27b4346,65af55bf9e24a972e38d42c6,2024-01-23_08h00.34.217,bars,2023.2.3,Win32,30.21148036,657b66ea316d21385b68909f,,,,,,,,,,,1408.2935,1409.2836,,,1409.7832,1410.0329,,134,134,,,,,,,,,,,,,,,,bars/037.png,bars/mask002.png,,,,,,,,,,,,5,1,,,,,,,10,0,10,2,,,,,,,,,,,1409.2836,1409.7831,1410.033,1412.7145,space,2.6644,,1412.7145,16,29,1413.7136,1413.7136,1413.7242,,,,0,13,13,13,1,150,105,,,,,,,,
,,60e6b73b67e5151ba27b4346,65af55bf9e24a972e38d42c6,2024-01-23_08h00.34.217,bars,2023.2.3,Win32,30.21148036,657b66ea316d21385b68909f,,,,,,,,,,,1413.7244,1414.7175,,,1415.2117,1415.4625,,44,44,,,,,,,,,,,,,,,,bars/028.png,bars/mask005.png,,,,,,,,,,,,8,1,,,,,,,10,2,8,0,,,,,,,,,,,1414.7177,1415.2114,1415.4625,1417.093,space,1.6158,,1417.0931,1,76,1418.0921,1418.0921,1418.0936,,,,0,14,14,14,1,45,120,,,,,,,,
,,60e6b73b67e5151ba27b4346,65af55bf9e24a972e38d42c6,2024-01-23_08h00.34.217,bars,2023.2.3,Win32,30.21148036,657b66ea316d21385b68909f,,,,,,,,,,,1418.094,1419.092,,,1419.592,1419.8405,,145,145,,,,,,,,,,,,,,,,bars/018.png,bars/mask004.png,,,,,,,,,,,,7,1,,,,,,,8,4,8,4,,,,,,,,,,,1419.0921,1419.592,1419.8405,1421.2225,space,1.3664,,1421.2226,5,55,1422.2214,1422.2215,1422.2229,,,,0,15,15,15,1,150,90,,,,,,,,
,,60e6b73b67e5151ba27b4346,65af55bf9e24a972e38d42c6,2024-01-23_08h00.34.217,bars,2023.2.3,Win32,30.21148036,657b66ea316d21385b68909f,,,,,,,,,,,1422.2233,1423.2205,,,1423.7201,1423.9699,,175,175,,,,,,,,,,,,,,,,bars/039.png,bars/mask002.png,,,,,,,,,,,,10,1,,,,,,,10,2,10,2,,,,,,,,,,,1423.2205,1423.7201,1423.9699,1426.9504,space,2.9653,,1426.9505,0,70,1427.9494,1427.9495,1427.9616,,,,0,16,16,16,1,175,105,,,,,,,,
,,60e6b73b67e5151ba27b4346,65af55bf9e24a972e38d42c6,2024-01-23_08h00.34.217,bars,2023.2.3,Win32,30.21148036,657b66ea316d21385b68909f,,,,,,,,,,,1427.9618,1428.9497,,,1429.4488,1429.6978,,134,134,,,,,,,,,,,,,,,,bars/021.png,bars/mask003.png,,,,,,,,,,,,2,1,,,,,,,8,0,8,1,,,,,,,,,,,1428.9498,1429.4488,1429.6978,1430.715,space,1.0017,,1430.715,21,64,1431.7125,1431.7126,1431.714,,,,0,17,17,17,1,155,70,,,,,,,,
,,60e6b73b67e5151ba27b4346,65af55bf9e24a972e38d42c6,2024-01-23_08h00.34.217,bars,2023.2.3,Win32,30.21148036,657b66ea316d21385b68909f,,,,,,,,,,,1431.7143,1432.7116,,,1433.2112,1433.4627,,94,94,,,,,,,,,,,,,,,,bars/002.png,bars/mask002.png,,,,,,,,,,,,0,2,,,,,,,6,0,5,0,,,,,,,,,,,1432.7117,1433.2112,1433.4627,1436.4407,space,2.9637,,1436.4413,36,9,1437.4378,1437.4378,1437.4506,,,,0,18,18,18,1,130,85,,,,,,,,
,,60e6b73b67e5151ba27b4346,65af55bf9e24a972e38d42c6,2024-01-23_08h00.34.217,bars,2023.2.3,Win32,30.21148036,657b66ea316d21385b68909f,,,,,,,,,,,1437.4509,1438.4408,,,1438.9392,1439.1889,,33,33,,,,,,,,,,,,,,,,bars/000.png,bars/mask000.png,,,,,,,,,,,,7,1,,,,,,,8,0,9,0,,,,,,,,,,,1438.4408,1438.9391,1439.1889,1444.0178,space,4.8132,,1444.0179,7,68,1445.0168,1445.0168,1445.0291,,,,0,19,19,19,1,40,145,,,,,,,,
,,60e6b73b67e5151ba27b4346,65af55bf9e24a972e38d42c6,2024-01-23_08h00.34.217,bars,2023.2.3,Win32,30.21148036,657b66ea316d21385b68909f,,,,,,,,,,,1445.0294,1446.0324,,,1446.5321,1446.7819,,104,104,,,,,,,,,,,,,,,,bars/008.png,bars/mask002.png,,,,,,,,,,,,4,1,,,,,,,6,2,5,1,,,,,,,,,,,1446.0326,1446.5319,1446.7819,1450.3619,space,3.564,,1450.3619,6,76,1451.3608,1451.3609,1451.3733,,,,0,20,20,20,1,110,0,,,,,,,,
,,60e6b73b67e5151ba27b4346,65af55bf9e24a972e38d42c6,2024-01-23_08h00.34.217,bars,2023.2.3,Win32,30.21148036,657b66ea316d21385b68909f,,,,,,,,,,,1451.3738,1452.377,,,1452.8762,1453.1259,,49,49,,,,,,,,,,,,,,,,bars/028.png,bars/mask001.png,,,,,,,,,,,,3,1,,,,,,,4,0,4,0,,,,,,,,,,,1452.3771,1452.8762,1453.1259,1456.9057,space,3.7638,,1456.9057,4,71,1457.9049,1457.9051,1457.9162,,,,0,21,21,21,1,45,120,,,,,,,,
,,60e6b73b67e5151ba27b4346,65af55bf9e24a972e38d42c6,2024-01-23_08h00.34.217,bars,2023.2.3,Win32,30.21148036,657b66ea316d21385b68909f,,,,,,,,,,,1457.9167,1458.9204,,,1459.42,1459.67,,59,59,,,,,,,,,,,,,,,,bars/029.png,bars/mask000.png,,,,,,,,,,,,0,2,,,,,,,6,0,5,0,,,,,,,,,,,1458.9205,1459.42,1459.67,1463,space,3.3143,,1463,31,14,1463.9991,1463.9991,1464.0112,,,,0,22,22,22,1,90,45,,,,,,,,
,,60e6b73b67e5151ba27b4346,65af55bf9e24a972e38d42c6,2024-01-23_08h00.34.217,bars,2023.2.3,Win32,30.21148036,657b66ea316d21385b68909f,,,,,,,,,,,1464.0115,1465.0147,,,1465.5143,1465.7641,,117,117,,,,,,,,,,,,,,,,bars/040.png,bars/mask009.png,,,,,,,,,,,,1,1,,,,,,,4,0,4,0,,,,,,,,,,,1465.0148,1465.5143,1465.7641,1469.3607,space,3.5809,,1469.3608,23,68,1470.3597,1470.3597,1470.374,,,,0,23,23,23,1,140,5,,,,,,,,
,,60e6b73b67e5151ba27b4346,65af55bf9e24a972e38d42c6,2024-01-23_08h00.34.217,bars,2023.2.3,Win32,30.21148036,657b66ea316d21385b68909f,,,,,,,,,,,1470.3746,1471.3724,,,1471.8722,1472.1248,,149,149,,,,,,,,,,,,,,,,bars/038.png,bars/mask008.png,,,,,,,,,,,,2,1,,,,,,,6,0,5,0,,,,,,,,,,,1471.3725,1471.8722,1472.1248,1474.9888,space,2.8479,,1474.9888,16,79,1475.9878,1475.9879,1475.9993,,,,0,24,24,24,1,165,70,,,,,,,,
,,60e6b73b67e5151ba27b4346,65af55bf9e24a972e38d42c6,2024-01-23_08h00.34.217,bars,2023.2.3,Win32,30.21148036,657b66ea316d21385b68909f,,,,,,,,,,,1475.9996,1477.0034,,,1477.5031,1477.7528,,156,156,,,,,,,,,,,,,,,,bars/038.png,bars/mask000.png,,,,,,,,,,,,5,1,,,,,,,8,2,7,2,,,,,,,,,,,1477.0035,1477.5031,1477.7529,1481.5493,space,3.7803,,1481.5494,9,86,1482.5483,1482.5483,1482.5597,,,,0,25,25,25,1,165,70,,,,,,,,
,,60e6b73b67e5151ba27b4346,65af55bf9e24a972e38d42c6,2024-01-23_08h00.34.217,bars,2023.2.3,Win32,30.21148036,657b66ea316d21385b68909f,,,,,,,,,,,1482.5602,1483.564,,,1484.0636,1484.3134,,47,47,,,,,,,,,,,,,,,,bars/028.png,bars/mask008.png,,,,,,,,,,,,9,1,,,,,,,10,4,10,4,,,,,,,,,,,1483.564,1484.0636,1484.3134,1486.1117,space,1.7822,,1486.1118,2,73,1487.1115,1487.1116,1487.1243,,,,0,26,26,26,1,45,120,,,,,,,,
,,60e6b73b67e5151ba27b4346,65af55bf9e24a972e38d42c6,2024-01-23_08h00.34.217,bars,2023.2.3,Win32,30.21148036,657b66ea316d21385b68909f,,,,,,,,,,,1487.1247,1488.1264,,,1488.6262,1488.8758,,162,162,,,,,,,,,,,,,,,,bars/021.png,bars/mask003.png,,,,,,,,,,,,7,1,,,,,,,10,6,9,8,,,,,,,,,,,1488.1264,1488.6262,1488.8759,1491.3245,space,2.4304,,1491.3246,7,88,1492.3232,1492.3233,1492.3446,,,,0,27,27,27,1,155,70,,,,,,,,
,,60e6b73b67e5151ba27b4346,65af55bf9e24a972e38d42c6,2024-01-23_08h00.34.217,bars,2023.2.3,Win32,30.21148036,657b66ea316d21385b68909f,,,,,,,,,,,1492.3454,1493.3389,,,1493.8386,1494.0882,,41,41,,,,,,,,,,,,,,,,bars/041.png,bars/mask009.png,,,,,,,,,,,,2,1,,,,,,,8,4,6,5,,,,,,,,,,,1493.339,1493.8386,1494.0882,1499.3337,space,5.2291,,1499.3338,21,44,1500.3324,1500.3324,1500.3441,,,,0,28,28,28,1,20,85,,,,,,,,
,,60e6b73b67e5151ba27b4346,65af55bf9e24a972e38d42c6,2024-01-23_08h00.34.217,bars,2023.2.3,Win32,30.21148036,657b66ea316d21385b68909f,,,,,,,,,,,1500.3446,1501.3482,,,1501.8478,1502.098,,81,81,,,,,,,,,,,,,,,,bars/045.png,bars/mask005.png,,,,,,,,,,,,4,1,,,,,,,10,2,10,2,,,,,,,,,,,1501.3482,1501.8478,1502.098,1505.3771,space,3.2648,,1505.3771,19,71,1506.3759,1506.376,1506.3875,,,,0,29,29,29,1,100,10,,,,,,,,
,,60e6b73b67e5151ba27b4346,65af55bf9e24a972e38d42c6,2024-01-23_08h00.34.217,bars,2023.2.3,Win32,30.21148036,657b66ea316d21385b68909f,,,,,,,,,,,1506.3878,1507.3917,,,1507.8913,1508.141,,84,84,,,,,,,,,,,,,,,,bars/031.png,bars/mask008.png,,,,,,,,,,,,0,1,,,,,,,10,0,10,0,,,,,,,,,,,1507.3917,1507.8913,1508.141,1510.3889,space,2.232,,1510.389,36,49,1511.3881,1511.3881,1511.3996,,,,0,30,30,30,1,120,35,,,,,,,,
,,60e6b73b67e5151ba27b4346,65af55bf9e24a972e38d42c6,2024-01-23_08h00.34.217,bars,2023.2.3,Win32,30.21148036,657b66ea316d21385b68909f,,,,,,,,,,,1511.3999,1512.4037,,,1512.9032,1513.1531,,85,85,,,,,,,,,,,,,,,,bars/029.png,bars/mask009.png,,,,,,,,,,,,6,1,,,,,,,8,0,7,0,,,,,,,,,,,1512.4037,1512.9032,1513.1531,1514.0355,space,0.8666,,1514.0355,5,40,1515.0346,1515.0346,1515.0532,,,,0,31,31,31,1,90,45,,,,,,,,
,,60e6b73b67e5151ba27b4346,65af55bf9e24a972e38d42c6,2024-01-23_08h00.34.217,bars,2023.2.3,Win32,30.21148036,657b66ea316d21385b68909f,,,,,,,,,,,1515.0535,1516.0474,,,1516.547,1516.7969,,1,181,,,,,,,,,,,,,,,,bars/039.png,bars/mask007.png,,,,,,,,,,,,5,1,,,,,,,6,2,6,4,,,,,,,,,,,1516.0474,1516.547,1516.7969,1521.4452,space,4.6315,,1521.4453,6,76,1522.4428,1522.4428,1522.4543,,,,0,32,32,32,1,175,105,,,,,,,,
,,60e6b73b67e5151ba27b4346,65af55bf9e24a972e38d42c6,2024-01-23_08h00.34.217,bars,2023.2.3,Win32,30.21148036,657b66ea316d21385b68909f,,,,,,,,,,,1522.4548,1523.4432,,,1523.9429,1524.1925,,142,142,,,,,,,,,,,,,,,,bars/040.png,bars/mask005.png,,,,,,,,,,,,5,1,,,,,,,4,4,5,5,,,,,,,,,,,1523.4434,1523.9428,1524.1926,1525.9746,space,1.766,,1525.9746,2,43,1526.9733,1526.9734,1526.9748,,,,0,33,33,33,1,140,5,,,,,,,,
,,60e6b73b67e5151ba27b4346,65af55bf9e24a972e38d42c6,2024-01-23_08h00.34.217,bars,2023.2.3,Win32,30.21148036,657b66ea316d21385b68909f,,,,,,,,,,,1526.9752,1527.9728,,,1528.472,1528.723,,45,45,,,,,,,,,,,,,,,,bars/006.png,bars/mask005.png,,,,,,,,,,,,5,1,,,,,,,6,2,7,3,,,,,,,,,,,1527.9729,1528.472,1528.723,1531.0871,space,2.35,,1531.0872,10,55,1532.0852,1532.0852,1532.0966,,,,0,34,34,34,1,35,100,,,,,,,,
,,60e6b73b67e5151ba27b4346,65af55bf9e24a972e38d42c6,2024-01-23_08h00.34.217,bars,2023.2.3,Win32,30.21148036,657b66ea316d21385b68909f,,,,,,,,,,,1532.0969,1533.0856,,,1533.5838,1533.8335,,37,37,,,,,,,,,,,,,,,,bars/028.png,bars/mask008.png,,,,,,,,,,,,2,1,,,,,,,4,0,3,0,,,,,,,,,,,1533.0856,1533.5838,1533.8336,1538.8303,space,4.9799,,1538.8304,8,83,1539.828,1539.828,1539.8395,,,,0,35,35,35,1,45,120,,,,,,,,
,,60e6b73b67e5151ba27b4346,65af55bf9e24a972e38d42c6,2024-01-23_08h00.34.217,bars,2023.2.3,Win32,30.21148036,657b66ea316d21385b68909f,,,,,,,,,,,1539.8398,1540.8437,,,1541.3433,1541.593,,21,21,,,,,,,,,,,,,,,,bars/004.png,bars/mask000.png,,,,,,,,,,,,5,1,,,,,,,6,0,6,1,,,,,,,,,,,1540.8438,1541.3432,1541.593,1545.3228,space,3.714,,1545.3229,4,76,1546.3218,1546.3219,1546.3332,,,,0,36,36,36,1,25,125,,,,,,,,
,,60e6b73b67e5151ba27b4346,65af55bf9e24a972e38d42c6,2024-01-23_08h00.34.217,bars,2023.2.3,Win32,30.21148036,657b66ea316d21385b68909f,,,,,,,,,,,1546.3335,1547.339,,,1547.8372,1548.087,,92,92,,,,,,,,,,,,,,,,bars/015.png,bars/mask001.png,,,,,,,,,,,,1,1,,,,,,,4,2,3,4,,,,,,,,,,,1547.339,1547.8372,1548.0871,1550.7179,space,2.6157,,1550.7179,18,68,1551.7168,1551.7169,1551.728,,,,0,37,37,37,1,110,160,,,,,,,,
,,60e6b73b67e5151ba27b4346,65af55bf9e24a972e38d42c6,2024-01-23_08h00.34.217,bars,2023.2.3,Win32,30.21148036,657b66ea316d21385b68909f,,,,,,,,,,,1551.7282,1552.7159,,,1553.2155,1553.4661,,131,131,,,,,,,,,,,,,,,,bars/030.png,bars/mask008.png,,,,,,,,,,,,1,1,,,,,,,2,4,2,4,,,,,,,,,,,1552.716,1553.2155,1553.4662,1556.1627,space,2.6814,,1556.1627,9,66,1557.1616,1557.1617,1557.1813,,,,0,38,38,38,1,140,65,,,,,,,,
,,60e6b73b67e5151ba27b4346,65af55bf9e24a972e38d42c6,2024-01-23_08h00.34.217,bars,2023.2.3,Win32,30.21148036,657b66ea316d21385b68909f,,,,,,,,,,,1557.1817,1558.1745,,,1558.6742,1558.9241,,22,22,,,,,,,,,,,,,,,,bars/023.png,bars/mask004.png,,,,,,,,,,,,0,1,,,,,,,0,2,0,2,,,,,,,,,,,1558.1746,1558.6741,1558.9243,1561.3733,space,2.4323,,1561.3734,2,87,1562.3735,1562.3736,1562.3903,,,,0,39,39,39,1,20,115,,,,,,,,
,,60e6b73b67e5151ba27b4346,65af55bf9e24a972e38d42c6,2024-01-23_08h00.34.217,bars,2023.2.3,Win32,30.21148036,657b66ea316d21385b68909f,,,,,,,,,,,1562.3907,1563.3865,,,1563.8861,1564.1347,,130,130,,,,,,,,,,,,,,,,bars/024.png,bars/mask002.png,,,,,,,,,,,,2,1,,,,,,,2,4,3,5,,,,,,,,,,,1563.3866,1563.8861,1564.1347,1564.9854,space,0.8333,,1564.9855,10,40,1565.984,1565.984,1565.9853,,,,0,40,40,40,1,120,170,,,,,,,,
,,60e6b73b67e5151ba27b4346,65af55bf9e24a972e38d42c6,2024-01-23_08h00.34.217,bars,2023.2.3,Win32,30.21148036,657b66ea316d21385b68909f,,,,,,,,,,,1565.9856,1566.9832,,,1567.4836,1567.7323,,31,31,,,,,,,,,,,,,,,,bars/047.png,bars/mask008.png,,,,,,,,,,,,1,1,,,,,,,4,2,2,2,,,,,,,,,,,1566.9834,1567.4836,1567.7326,1571.3636,space,3.6143,,1571.3636,16,39,1572.3625,1572.3625,1572.3746,,,,0,41,41,41,1,15,70,,,,,,,,
,,60e6b73b67e5151ba27b4346,65af55bf9e24a972e38d42c6,2024-01-23_08h00.34.217,bars,2023.2.3,Win32,30.21148036,657b66ea316d21385b68909f,,,,,,,,,,,1572.375,1573.3646,,,1573.8628,1574.1126,,161,161,,,,,,,,,,,,,,,,bars/020.png,bars/mask006.png,,,,,,,,,,,,0,2,,,,,,,6,0,5,0,,,,,,,,,,,1573.3646,1573.8627,1574.1126,1580.007,space,5.8787,,1580.0071,46,9,1581.0059,1581.0061,1581.0185,,,,0,42,42,42,1,115,170,,,,,,,,
,,60e6b73b67e5151ba27b4346,65af55bf9e24a972e38d42c6,2024-01-23_08h00.34.217,bars,2023.2.3,Win32,30.21148036,657b66ea316d21385b68909f,,,,,,,,,,,1581.0188,1582.0217,,,1582.5213,1582.7712,,11,191,,,,,,,,,,,,,,,,bars/045.png,bars/mask009.png,,,,,,,,,,,,0,2,,,,,,,8,0,8,0,,,,,,,,,,,1582.0218,1582.5213,1582.7712,1585.4519,space,2.6649,,1585.452,89,1,1586.4509,1586.451,1586.4623,,,,0,43,43,43,1,100,10,,,,,,,,
,,60e6b73b67e5151ba27b4346,65af55bf9e24a972e38d42c6,2024-01-23_08h00.34.217,bars,2023.2.3,Win32,30.21148036,657b66ea316d21385b68909f,,,,,,,,,,,1586.4626,1587.4667,,,1587.9663,1588.2176,,139,139,,,,,,,,,,,,,,,,bars/043.png,bars/mask007.png,,,,,,,,,,,,0,2,,,,,,,6,0,7,0,,,,,,,,,,,1587.4667,1587.9663,1588.2176,1590.5659,space,2.3351,,1590.5659,71,9,1591.5629,1591.5629,1591.5643,,,,0,44,44,44,1,30,130,,,,,,,,
,,60e6b73b67e5151ba27b4346,65af55bf9e24a972e38d42c6,2024-01-23_08h00.34.217,bars,2023.2.3,Win32,30.21148036,657b66ea316d21385b68909f,,,,,,,,,,,1591.5646,1592.5619,,,1593.0615,1593.313,,32,32,,,,,,,,,,,,,,,,bars/041.png,bars/mask001.png,,,,,,,,,,,,5,1,,,,,,,8,0,9,0,,,,,,,,,,,1592.5619,1593.0615,1593.313,1595.3781,space,2.0512,,1595.3782,12,53,1596.375,1596.375,1596.3872,,,,0,45,45,45,1,20,85,,,,,,,,
,,60e6b73b67e5151ba27b4346,65af55bf9e24a972e38d42c6,2024-01-23_08h00.34.217,bars,2023.2.3,Win32,30.21148036,657b66ea316d21385b68909f,,,,,,,,,,,1596.3874,1597.3906,,,1597.8908,1598.1401,,17,197,,,,,,,,,,,,,,,,bars/039.png,bars/mask001.png,,,,,,,,,,,,2,1,,,,,,,10,2,8,2,,,,,,,,,,,1597.3907,1597.8908,1598.1401,1600.7044,space,2.5487,,1600.7045,22,88,1601.7033,1601.7034,1601.7149,,,,0,46,46,46,1,175,105,,,,,,,,
,,60e6b73b67e5151ba27b4346,65af55bf9e24a972e38d42c6,2024-01-23_08h00.34.217,bars,2023.2.3,Win32,30.21148036,657b66ea316d21385b68909f,,,,,,,,,,,1601.7152,1602.7191,,,1603.2186,1603.4684,,37,37,,,,,,,,,,,,,,,,bars/005.png,bars/mask008.png,,,,,,,,,,,,1,1,,,,,,,8,4,7,4,,,,,,,,,,,1602.7191,1603.2186,1603.4684,1606.4489,space,2.9648,,1606.4489,27,77,1607.4479,1607.448,1607.4633,,,,0,47,47,47,1,10,140,,,,,,,,
,,60e6b73b67e5151ba27b4346,65af55bf9e24a972e38d42c6,2024-01-23_08h00.34.217,bars,2023.2.3,Win32,30.21148036,657b66ea316d21385b68909f,,,,,,,,,,,1607.4636,1608.4629,,,1608.9607,1609.2102,,171,-9,,,,,,,,,,,,,,,,bars/023.png,bars/mask002.png,,,,,,,,,,,,0,1,,,,,,,6,6,5,5,,,,,,,,,,,1608.4629,1608.9606,1609.2102,1613.2281,space,4.0011,,1613.2282,29,56,1614.2249,1614.225,1614.2365,,,,0,48,48,48,1,20,115,,,,,,,,
,,60e6b73b67e5151ba27b4346,65af55bf9e24a972e38d42c6,2024-01-23_08h00.34.217,bars,2023.2.3,Win32,30.21148036,657b66ea316d21385b68909f,,,,,,,,,,,1614.2368,1615.2405,,,1615.7402,1615.9899,,145,145,,,,,,,,,,,,,,,,bars/021.png,bars/mask005.png,,,,,,,,,,,,3,1,,,,,,,4,4,4,5,,,,,,,,,,,1615.2407,1615.7401,1615.9901,1619.6533,space,3.6474,,1619.6533,10,75,1620.6527,1620.6527,1620.6642,,,,0,49,49,49,1,155,70,,,,,,,,
,,60e6b73b67e5151ba27b4346,65af55bf9e24a972e38d42c6,2024-01-23_08h00.34.217,bars,2023.2.3,Win32,30.21148036,657b66ea316d21385b68909f,,,,,,,,,,,,,,,,,,,,,,,,,,,,,,,,,,,,,,,,,,,,,,,,,,,,,,,,,,,,,,,,,,,,,,,,,,,,,,,,,,,,,,,,,,,,,1620.6644,1680.6628,0,2,2,4,1,sequence_tables/blk000.csv
,,60e6b73b67e5151ba27b4346,65af55bf9e24a972e38d42c6,2024-01-23_08h00.34.217,bars,2023.2.3,Win32,30.21148036,657b66ea316d21385b68909f,,,,,,,,,,,1683.5669,1684.5608,,,1685.0587,1685.3084,,96,96,,,,,,,,,,,,,,,,bars/018.png,bars/mask005.png,,,,,,,,,,,,6,2,,,,,,,9,7,10,7,,,,,,1680.6748,1683.5612,space,2.8769,,1684.5609,1685.0586,1685.3085,1689.2714,space,3.9471,,1689.2714,54,6,1690.2704,1690.2704,1690.2885,,,,0,0,0,0,1,150,90,,,,,,,,
,,60e6b73b67e5151ba27b4346,65af55bf9e24a972e38d42c6,2024-01-23_08h00.34.217,bars,2023.2.3,Win32,30.21148036,657b66ea316d21385b68909f,,,,,,,,,,,1690.2889,1691.2837,,,1691.7829,1692.033,,63,63,,,,,,,,,,,,,,,,bars/038.png,bars/mask001.png,,,,,,,,,,,,3,2,,,,,,,7,5,7,4,,,,,,,,,,,1691.2837,1691.7828,1692.0331,1693.7317,space,1.6824,,1693.7317,78,7,1694.7302,1694.7303,1694.7318,,,,0,1,1,1,1,165,70,,,,,,,,
,,60e6b73b67e5151ba27b4346,65af55bf9e24a972e38d42c6,2024-01-23_08h00.34.217,bars,2023.2.3,Win32,30.21148036,657b66ea316d21385b68909f,,,,,,,,,,,1694.7321,1695.7297,,,1696.2287,1696.4799,,85,85,,,,,,,,,,,,,,,,bars/002.png,bars/mask001.png,,,,,,,,,,,,7,2,,,,,,,5,7,3,7,,,,,,,,,,,1695.7298,1696.2287,1696.4799,1699.0955,space,2.5992,,1699.0956,45,0,1700.0945,1700.0945,1700.1057,,,,0,2,2,2,1,130,85,,,,,,,,
,,60e6b73b67e5151ba27b4346,65af55bf9e24a972e38d42c6,2024-01-23_08h00.34.217,bars,2023.2.3,Win32,30.21148036,657b66ea316d21385b68909f,,,,,,,,,,,1700.1059,1701.1115,,,1701.6114,1701.8595,,69,69,,,,,,,,,,,,,,,,bars/046.png,bars/mask004.png,,,,,,,,,,,,3,2,,,,,,,7,5,6,6,,,,,,,,,,,1701.1115,1701.6114,1701.8596,1704.0908,space,2.2153,,1704.0909,86,16,1705.0898,1705.0898,1705.1076,,,,0,3,3,3,1,155,85,,,,,,,,
,,60e6b73b67e5151ba27b4346,65af55bf9e24a972e38d42c6,2024-01-23_08h00.34.217,bars,2023.2.3,Win32,30.21148036,657b66ea316d21385b68909f,,,,,,,,,,,1705.108,1706.103,,,1706.6059,1706.8557,,160,160,,,,,,,,,,,,,,,,bars/033.png,bars/mask009.png,,,,,,,,,,,,6,2,,,,,,,9,7,9,7,,,,,,,,,,,1706.103,1706.6059,1706.8557,1708.4375,space,1.566,,1708.4376,45,5,1709.4367,1709.4367,1709.4475,,,,0,4,4,4,1,25,155,,,,,,,,
,,60e6b73b67e5151ba27b4346,65af55bf9e24a972e38d42c6,2024-01-23_08h00.34.217,bars,2023.2.3,Win32,30.21148036,657b66ea316d21385b68909f,,,,,,,,,,,1709.4477,1710.4357,,,1710.9352,1711.1849,,52,52,,,,,,,,,,,,,,,,bars/007.png,bars/mask002.png,,,,,,,,,,,,5,2,,,,,,,7,5,6,5,,,,,,,,,,,1710.4357,1710.9351,1711.1849,1714.4652,space,3.2649,,1714.4653,57,3,1715.4642,1715.4643,1715.4751,,,,0,5,5,5,1,175,55,,,,,,,,
,,60e6b73b67e5151ba27b4346,65af55bf9e24a972e38d42c6,2024-01-23_08h00.34.217,bars,2023.2.3,Win32,30.21148036,657b66ea316d21385b68909f,,,,,,,,,,,1715.4754,1716.4633,,,1716.9629,1717.2127,,84,264,,,,,,,,,,,,,,,,bars/018.png,bars/mask008.png,,,,,,,,,,,,2,2,,,,,,,5,3,5,3,,,,,,,,,,,1716.4633,1716.9628,1717.2127,1721.2422,space,4.0133,,1721.2423,66,6,1722.2412,1722.2412,1722.261,,,,0,6,6,6,1,150,90,,,,,,,,
,,60e6b73b67e5151ba27b4346,65af55bf9e24a972e38d42c6,2024-01-23_08h00.34.217,bars,2023.2.3,Win32,30.21148036,657b66ea316d21385b68909f,,,,,,,,,,,1722.2666,1723.2561,,,1723.7558,1724.0054,,72,-108,,,,,,,,,,,,,,,,bars/042.png,bars/mask006.png,,,,,,,,,,,,2,2,,,,,,,7,1,7,2,,,,,,,,,,,1723.2562,1723.7556,1724.0055,1728.7178,space,4.6965,,1728.7178,73,3,1729.7168,1729.7169,1729.728,,,,0,7,7,7,1,145,75,,,,,,,,
,,60e6b73b67e5151ba27b4346,65af55bf9e24a972e38d42c6,2024-01-23_08h00.34.217,bars,2023.2.3,Win32,30.21148036,657b66ea316d21385b68909f,,,,,,,,,,,1729.7283,1730.7324,,,1731.2322,1731.4817,,45,225,,,,,,,,,,,,,,,,bars/013.png,bars/mask000.png,,,,,,,,,,,,0,1,,,,,,,9,3,9,3,,,,,,,,,,,1730.7325,1731.2322,1731.4819,1734.9293,space,3.4304,,1734.9293,30,35,1735.9283,1735.9283,1735.9511,,,,0,8,8,8,1,75,10,,,,,,,,
,,60e6b73b67e5151ba27b4346,65af55bf9e24a972e38d42c6,2024-01-23_08h00.34.217,bars,2023.2.3,Win32,30.21148036,657b66ea316d21385b68909f,,,,,,,,,,,1735.9515,1736.9441,,,1737.4436,1737.6934,,8,188,,,,,,,,,,,,,,,,bars/040.png,bars/mask007.png,,,,,,,,,,,,7,2,,,,,,,10,5,10,8,,,,,,,,,,,1736.9441,1737.4436,1737.6934,1741.3734,space,3.6641,,1741.3734,48,3,1742.373,1742.3731,1742.3849,,,,0,9,9,9,1,140,5,,,,,,,,
,,60e6b73b67e5151ba27b4346,65af55bf9e24a972e38d42c6,2024-01-23_08h00.34.217,bars,2023.2.3,Win32,30.21148036,657b66ea316d21385b68909f,,,,,,,,,,,1742.3854,1743.3883,,,1743.8876,1744.1379,,48,228,,,,,,,,,,,,,,,,bars/035.png,bars/mask000.png,,,,,,,,,,,,3,2,,,,,,,8,7,7,5,,,,,,,,,,,1743.3883,1743.8875,1744.1379,1747.0679,space,2.9146,,1747.068,53,12,1748.067,1748.067,1748.0777,,,,0,10,10,10,1,175,60,,,,,,,,
,,60e6b73b67e5151ba27b4346,65af55bf9e24a972e38d42c6,2024-01-23_08h00.34.217,bars,2023.2.3,Win32,30.21148036,657b66ea316d21385b68909f,,,,,,,,,,,1748.078,1749.066,,,1749.5656,1749.8154,,83,83,,,,,,,,,,,,,,,,bars/039.png,bars/mask002.png,,,,,,,,,,,,1,2,,,,,,,10,5,10,5,,,,,,,,,,,1749.0661,1749.5656,1749.8154,1751.6139,space,1.7829,,1751.6139,88,22,1752.6128,1752.6128,1752.6138,,,,0,11,11,11,1,175,105,,,,,,,,
,,60e6b73b67e5151ba27b4346,65af55bf9e24a972e38d42c6,2024-01-23_08h00.34.217,bars,2023.2.3,Win32,30.21148036,657b66ea316d21385b68909f,,,,,,,,,,,1752.6143,1753.6118,,,1754.1114,1754.3613,,163,163,,,,,,,,,,,,,,,,bars/016.png,bars/mask006.png,,,,,,,,,,,,2,2,,,,,,,10,3,8,2,,,,,,,,,,,1753.6118,1754.1113,1754.3613,1756.7782,space,2.4034,,1756.7783,57,2,1757.7745,1757.7745,1757.7945,,,,0,12,12,12,1,40,165,,,,,,,,
,,60e6b73b67e5151ba27b4346,65af55bf9e24a972e38d42c6,2024-01-23_08h00.34.217,bars,2023.2.3,Win32,30.21148036,657b66ea316d21385b68909f,,,,,,,,,,,1757.7952,1758.7905,,,1759.2899,1759.5397,,89,89,,,,,,,,,,,,,,,,bars/043.png,bars/mask000.png,,,,,,,,,,,,0,2,,,,,,,8,5,7,5,,,,,,,,,,,1758.7905,1759.2899,1759.5397,1763.1862,space,3.6308,,1763.1862,59,41,1764.1854,1764.1854,1764.1964,,,,0,13,13,13,1,30,130,,,,,,,,
,,60e6b73b67e5151ba27b4346,65af55bf9e24a972e38d42c6,2024-01-23_08h00.34.217,bars,2023.2.3,Win32,30.21148036,657b66ea316d21385b68909f,,,,,,,,,,,1764.1967,1765.2009,,,1765.7005,1765.9504,,55,55,,,,,,,,,,,,,,,,bars/035.png,bars/mask006.png,,,,,,,,,,,,5,2,,,,,,,10,7,9,6,,,,,,,,,,,1765.2009,1765.7005,1765.9504,1768.3157,space,2.3518,,1768.3157,60,5,1769.3138,1769.3138,1769.3244,,,,0,14,14,14,1,175,60,,,,,,,,
,,60e6b73b67e5151ba27b4346,65af55bf9e24a972e38d42c6,2024-01-23_08h00.34.217,bars,2023.2.3,Win32,30.21148036,657b66ea316d21385b68909f,,,,,,,,,,,1769.3247,1770.3128,,,1770.8124,1771.0622,,162,-18,,,,,,,,,,,,,,,,bars/016.png,bars/mask000.png,,,,,,,,,,,,9,2,,,,,,,8,9,9,10,,,,,,,,,,,1770.3129,1770.8124,1771.0622,1774.2925,space,3.2147,,1774.2925,58,3,1775.2914,1775.2915,1775.3117,,,,0,15,15,15,1,40,165,,,,,,,,
,,60e6b73b67e5151ba27b4346,65af55bf9e24a972e38d42c6,2024-01-23_08h00.34.217,bars,2023.2.3,Win32,30.21148036,657b66ea316d21385b68909f,,,,,,,,,,,1775.3123,1776.3072,,,1776.8068,1777.0566,,103,103,,,,,,,,,,,,,,,,bars/002.png,bars/mask004.png,,,,,,,,,,,,4,2,,,,,,,6,10,6,10,,,,,,,,,,,1776.3072,1776.8068,1777.0566,1780.0871,space,3.0145,,1780.0871,27,18,1781.0861,1781.0861,1781.1055,,,,0,16,16,16,1,130,85,,,,,,,,
,,60e6b73b67e5151ba27b4346,65af55bf9e24a972e38d42c6,2024-01-23_08h00.34.217,bars,2023.2.3,Win32,30.21148036,657b66ea316d21385b68909f,,,,,,,,,,,1781.106,1782.1018,,,1782.6014,1782.8523,,40,40,,,,,,,,,,,,,,,,bars/022.png,bars/mask000.png,,,,,,,,,,,,3,2,,,,,,,8,10,8,8,,,,,,,,,,,1782.1018,1782.6014,1782.8524,1783.5505,space,0.6834,,1783.5505,55,20,1784.5495,1784.5495,1784.5504,,,,0,17,17,17,1,95,20,,,,,,,,
,,60e6b73b67e5151ba27b4346,65af55bf9e24a972e38d42c6,2024-01-23_08h00.34.217,bars,2023.2.3,Win32,30.21148036,657b66ea316d21385b68909f,,,,,,,,,,,1784.5507,1785.5485,,,1786.0481,1786.2979,,156,156,,,,,,,,,,,,,,,,bars/044.png,bars/mask006.png,,,,,,,,,,,,10,2,,,,,,,10,10,10,10,,,,,,,,,,,1785.5486,1786.0481,1786.2979,1792.2757,space,5.9618,,1792.2757,81,1,1793.2747,1793.2747,1793.2923,,,,0,18,18,18,1,75,155,,,,,,,,
,,60e6b73b67e5151ba27b4346,65af55bf9e24a972e38d42c6,2024-01-23_08h00.34.217,bars,2023.2.3,Win32,30.21148036,657b66ea316d21385b68909f,,,,,,,,,,,1793.2928,1794.2904,,,1794.7899,1795.0397,,55,55,,,,,,,,,,,,,,,,bars/042.png,bars/mask002.png,,,,,,,,,,,,3,2,,,,,,,8,10,8,10,,,,,,,,,,,1794.2904,1794.7899,1795.0397,1798.7029,space,3.6474,,1798.703,90,20,1799.702,1799.702,1799.7128,,,,0,19,19,19,1,145,75,,,,,,,,
,,60e6b73b67e5151ba27b4346,65af55bf9e24a972e38d42c6,2024-01-23_08h00.34.217,bars,2023.2.3,Win32,30.21148036,657b66ea316d21385b68909f,,,,,,,,,,,1799.7131,1800.701,,,1801.2005,1801.4504,,167,-13,,,,,,,,,,,,,,,,bars/008.png,bars/mask008.png,,,,,,,,,,,,6,2,,,,,,,6,10,6,10,,,,,,,,,,,1800.701,1801.2005,1801.4504,1805.8629,space,4.3966,,1805.8629,57,13,1806.8619,1806.8619,1806.8729,,,,0,20,20,20,1,110,0,,,,,,,,
,,60e6b73b67e5151ba27b4346,65af55bf9e24a972e38d42c6,2024-01-23_08h00.34.217,bars,2023.2.3,Win32,30.21148036,657b66ea316d21385b68909f,,,,,,,,,,,1806.8731,1807.861,,,1808.3607,1808.6103,,136,136,,,,,,,,,,,,,,,,bars/023.png,bars/mask003.png,,,,,,,,,,,,3,2,,,,,,,8,10,10,10,,,,,,,,,,,1807.861,1808.3606,1808.6103,1812.0571,space,3.4311,,1812.0572,64,21,1813.0561,1813.0561,1813.0734,,,,0,21,21,21,1,20,115,,,,,,,,
,,60e6b73b67e5151ba27b4346,65af55bf9e24a972e38d42c6,2024-01-23_08h00.34.217,bars,2023.2.3,Win32,30.21148036,657b66ea316d21385b68909f,,,,,,,,,,,1813.0736,1814.072,,,1814.5714,1814.8212,,27,27,,,,,,,,,,,,,,,,bars/036.png,bars/mask000.png,,,,,,,,,,,,6,2,,,,,,,6,8,8,8,,,,,,,,,,,1814.0721,1814.5714,1814.8213,1815.4539,space,0.6172,,1815.454,62,7,1816.453,1816.453,1816.4538,,,,0,22,22,22,1,145,20,,,,,,,,
,,60e6b73b67e5151ba27b4346,65af55bf9e24a972e38d42c6,2024-01-23_08h00.34.217,bars,2023.2.3,Win32,30.21148036,657b66ea316d21385b68909f,,,,,,,,,,,1816.454,1817.452,,,1817.9516,1818.2013,,166,166,,,,,,,,,,,,,,,,bars/044.png,bars/mask002.png,,,,,,,,,,,,6,2,,,,,,,8,10,7,9,,,,,,,,,,,1817.452,1817.9515,1818.2014,1823.7963,space,5.5785,,1823.7963,89,11,1824.7951,1824.7951,1824.8062,,,,0,23,23,23,1,75,155,,,,,,,,
,,60e6b73b67e5151ba27b4346,65af55bf9e24a972e38d42c6,2024-01-23_08h00.34.217,bars,2023.2.3,Win32,30.21148036,657b66ea316d21385b68909f,,,,,,,,,,,1824.8064,1825.7942,,,1826.2938,1826.5454,,47,47,,,,,,,,,,,,,,,,bars/017.png,bars/mask008.png,,,,,,,,,,,,9,2,,,,,,,6,10,7,10,,,,,,,,,,,1825.7942,1826.2938,1826.5454,1830.6896,space,4.127,,1830.6898,82,2,1831.6886,1831.6887,1831.6997,,,,0,24,24,24,1,145,45,,,,,,,,
,,60e6b73b67e5151ba27b4346,65af55bf9e24a972e38d42c6,2024-01-23_08h00.34.217,bars,2023.2.3,Win32,30.21148036,657b66ea316d21385b68909f,,,,,,,,,,,1831.7001,1832.6878,,,1833.1873,1833.4372,,19,199,,,,,,,,,,,,,,,,bars/032.png,bars/mask009.png,,,,,,,,,,,,8,2,,,,,,,4,8,4,8,,,,,,,,,,,1832.6879,1833.1873,1833.4372,1837.0013,space,3.5499,,1837.0013,74,1,1837.9995,1837.9995,1838.0105,,,,0,25,25,25,1,125,20,,,,,,,,
,,60e6b73b67e5151ba27b4346,65af55bf9e24a972e38d42c6,2024-01-23_08h00.34.217,bars,2023.2.3,Win32,30.21148036,657b66ea316d21385b68909f,,,,,,,,,,,1838.0108,1838.9985,,,1839.4981,1839.7479,,163,-17,,,,,,,,,,,,,,,,bars/040.png,bars/mask004.png,,,,,,,,,,,,3,2,,,,,,,2,10,3,10,,,,,,,,,,,1838.9985,1839.4981,1839.7479,1843.9606,space,4.1967,,1843.9606,23,22,1844.9596,1844.9597,1844.9737,,,,0,26,26,26,1,140,5,,,,,,,,
,,60e6b73b67e5151ba27b4346,65af55bf9e24a972e38d42c6,2024-01-23_08h00.34.217,bars,2023.2.3,Win32,30.21148036,657b66ea316d21385b68909f,,,,,,,,,,,1844.974,1845.9753,,,1846.4749,1846.7246,,117,117,,,,,,,,,,,,,,,,bars/018.png,bars/mask007.png,,,,,,,,,,,,1,2,,,,,,,0,8,0,9,,,,,,,,,,,1845.9753,1846.4748,1846.7246,1849.4721,space,2.7315,,1849.4721,33,27,1850.4711,1850.4711,1850.4821,,,,0,27,27,27,1,150,90,,,,,,,,
,,60e6b73b67e5151ba27b4346,65af55bf9e24a972e38d42c6,2024-01-23_08h00.34.217,bars,2023.2.3,Win32,30.21148036,657b66ea316d21385b68909f,,,,,,,,,,,1850.4823,1851.4701,,,1851.9697,1852.2195,,64,64,,,,,,,,,,,,,,,,bars/007.png,bars/mask008.png,,,,,,,,,,,,7,2,,,,,,,0,10,0,10,,,,,,,,,,,1851.4701,1851.9697,1852.2196,1855.1334,space,2.8929,,1855.1334,69,9,1856.1284,1856.1284,1856.1415,,,,0,28,28,28,1,175,55,,,,,,,,
,,60e6b73b67e5151ba27b4346,65af55bf9e24a972e38d42c6,2024-01-23_08h00.34.217,bars,2023.2.3,Win32,30.21148036,657b66ea316d21385b68909f,,,,,,,,,,,1856.1419,1857.1307,,,1857.6303,1857.88,,93,93,,,,,,,,,,,,,,,,bars/049.png,bars/mask009.png,,,,,,,,,,,,2,2,,,,,,,2,10,2,9,,,,,,,,,,,1857.1308,1857.6303,1857.88,1861.9909,space,4.0954,,1861.9909,67,22,1862.9891,1862.9891,1863.0009,,,,0,29,29,29,1,160,115,,,,,,,,
,,60e6b73b67e5151ba27b4346,65af55bf9e24a972e38d42c6,2024-01-23_08h00.34.217,bars,2023.2.3,Win32,30.21148036,657b66ea316d21385b68909f,,,,,,,,,,,1863.0012,1863.9909,,,1864.4906,1864.7402,,176,176,,,,,,,,,,,,,,,,bars/033.png,bars/mask005.png,,,,,,,,,,,,2,2,,,,,,,0,8,0,8,,,,,,,,,,,1863.991,1864.4904,1864.7404,1867.4378,space,2.6814,,1867.4378,29,21,1868.437,1868.4371,1868.4485,,,,0,30,30,30,1,25,155,,,,,,,,
,,60e6b73b67e5151ba27b4346,65af55bf9e24a972e38d42c6,2024-01-23_08h00.34.217,bars,2023.2.3,Win32,30.21148036,657b66ea316d21385b68909f,,,,,,,,,,,1868.4488,1869.4495,,,1869.9494,1870.199,,44,44,,,,,,,,,,,,,,,,bars/025.png,bars/mask004.png,,,,,,,,,,,,8,2,,,,,,,2,10,3,9,,,,,,,,,,,1869.4496,1869.9494,1870.1992,1872.6309,space,2.4151,,1872.631,61,4,1873.6291,1873.6292,1873.6411,,,,0,31,31,31,1,105,40,,,,,,,,
,,60e6b73b67e5151ba27b4346,65af55bf9e24a972e38d42c6,2024-01-23_08h00.34.217,bars,2023.2.3,Win32,30.21148036,657b66ea316d21385b68909f,,,,,,,,,,,1873.6414,1874.6309,,,1875.1307,1875.3804,,37,37,,,,,,,,,,,,,,,,bars/019.png,bars/mask005.png,,,,,,,,,,,,2,1,,,,,,,4,10,3,10,,,,,,,,,,,1874.6311,1875.1306,1875.3804,1876.6487,space,1.2533,,1876.6487,8,68,1877.6448,1877.6449,1877.6476,,,,0,32,32,32,1,45,105,,,,,,,,
,,60e6b73b67e5151ba27b4346,65af55bf9e24a972e38d42c6,2024-01-23_08h00.34.217,bars,2023.2.3,Win32,30.21148036,657b66ea316d21385b68909f,,,,,,,,,,,1877.6478,1878.644,,,1879.1448,1879.3934,,147,147,,,,,,,,,,,,,,,,bars/044.png,bars/mask001.png,,,,,,,,,,,,7,2,,,,,,,2,10,4,10,,,,,,,,,,,1878.644,1879.1448,1879.3934,1880.7426,space,1.3326,,1880.7427,72,8,1881.741,1881.7411,1881.744,,,,0,33,33,33,1,75,155,,,,,,,,
,,60e6b73b67e5151ba27b4346,65af55bf9e24a972e38d42c6,2024-01-23_08h00.34.217,bars,2023.2.3,Win32,30.21148036,657b66ea316d21385b68909f,,,,,,,,,,,1881.7442,1882.74,,,1883.2397,1883.4894,,82,-98,,,,,,,,,,,,,,,,bars/001.png,bars/mask008.png,,,,,,,,,,,,7,2,,,,,,,0,8,0,8,,,,,,,,,,,1882.7401,1883.2397,1883.4894,1887.519,space,4.0138,,1887.519,48,3,1888.5179,1888.5181,1888.5291,,,,0,34,34,34,1,130,85,,,,,,,,
,,60e6b73b67e5151ba27b4346,65af55bf9e24a972e38d42c6,2024-01-23_08h00.34.217,bars,2023.2.3,Win32,30.21148036,657b66ea316d21385b68909f,,,,,,,,,,,1888.5294,1889.5172,,,1890.0166,1890.2664,,47,47,,,,,,,,,,,,,,,,bars/025.png,bars/mask009.png,,,,,,,,,,,,5,2,,,,,,,2,6,2,6,,,,,,,,,,,1889.5172,1890.0166,1890.2665,1895.1952,space,4.9128,,1895.1952,58,7,1896.1942,1896.1942,1896.2151,,,,0,35,35,35,1,105,40,,,,,,,,
,,60e6b73b67e5151ba27b4346,65af55bf9e24a972e38d42c6,2024-01-23_08h00.34.217,bars,2023.2.3,Win32,30.21148036,657b66ea316d21385b68909f,,,,,,,,,,,1896.2157,1897.2071,,,1897.7065,1897.9564,,32,32,,,,,,,,,,,,,,,,bars/036.png,bars/mask006.png,,,,,,,,,,,,2,2,,,,,,,4,4,4,4,,,,,,,,,,,1897.2071,1897.7065,1897.9564,1902.5051,space,4.5302,,1902.5051,67,12,1903.4996,1903.4996,1903.5138,,,,0,36,36,36,1,145,20,,,,,,,,
,,60e6b73b67e5151ba27b4346,65af55bf9e24a972e38d42c6,2024-01-23_08h00.34.217,bars,2023.2.3,Win32,30.21148036,657b66ea316d21385b68909f,,,,,,,,,,,1903.514,1904.5029,,,1905.0039,1905.2524,,146,146,,,,,,,,,,,,,,,,bars/004.png,bars/mask001.png,,,,,,,,,,,,2,2,,,,,,,2,6,3,8,,,,,,,,,,,1904.5031,1905.0039,1905.2524,1908.2496,space,2.9813,,1908.2498,59,21,1909.2499,1909.2499,1909.2609,,,,0,37,37,37,1,25,125,,,,,,,,
,,60e6b73b67e5151ba27b4346,65af55bf9e24a972e38d42c6,2024-01-23_08h00.34.217,bars,2023.2.3,Win32,30.21148036,657b66ea316d21385b68909f,,,,,,,,,,,1909.2611,1910.2642,,,1910.7638,1911.0136,,49,49,,,,,,,,,,,,,,,,bars/017.png,bars/mask008.png,,,,,,,,,,,,6,2,,,,,,,4,8,4,7,,,,,,,,,,,1910.2643,1910.7638,1911.0137,1913.7284,space,2.6992,,1913.7284,84,4,1914.7269,1914.7269,1914.7384,,,,0,38,38,38,1,145,45,,,,,,,,
,,60e6b73b67e5151ba27b4346,65af55bf9e24a972e38d42c6,2024-01-23_08h00.34.217,bars,2023.2.3,Win32,30.21148036,657b66ea316d21385b68909f,,,,,,,,,,,1914.7385,1915.7424,,,1916.2423,1916.492,,79,79,,,,,,,,,,,,,,,,bars/002.png,bars/mask002.png,,,,,,,,,,,,8,2,,,,,,,6,10,5,10,,,,,,,,,,,1915.7425,1916.2422,1916.492,1917.2412,space,0.7336,,1917.2412,51,6,1918.2402,1918.2403,1918.2416,,,,0,39,39,39,1,130,85,,,,,,,,
,,60e6b73b67e5151ba27b4346,65af55bf9e24a972e38d42c6,2024-01-23_08h00.34.217,bars,2023.2.3,Win32,30.21148036,657b66ea316d21385b68909f,,,,,,,,,,,1918.242,1919.2392,,,1919.7388,1919.9885,,58,58,,,,,,,,,,,,,,,,bars/026.png,bars/mask004.png,,,,,,,,,,,,1,1,,,,,,,8,8,6,8,,,,,,,,,,,1919.2393,1919.7388,1919.9886,1923.2189,space,3.2147,,1923.219,23,27,1924.2178,1924.218,1924.2302,,,,0,40,40,40,1,35,85,,,,,,,,
,,60e6b73b67e5151ba27b4346,65af55bf9e24a972e38d42c6,2024-01-23_08h00.34.217,bars,2023.2.3,Win32,30.21148036,657b66ea316d21385b68909f,,,,,,,,,,,1924.2306,1925.2335,,,1925.7333,1925.9828,,48,48,,,,,,,,,,,,,,,,bars/049.png,bars/mask008.png,,,,,,,,,,,,0,2,,,,,,,6,6,5,6,,,,,,,,,,,1925.2337,1925.7332,1925.983,1931.278,space,5.2794,,1931.278,68,67,1932.277,1932.2771,1932.2895,,,,0,41,41,41,1,160,115,,,,,,,,
,,60e6b73b67e5151ba27b4346,65af55bf9e24a972e38d42c6,2024-01-23_08h00.34.217,bars,2023.2.3,Win32,30.21148036,657b66ea316d21385b68909f,,,,,,,,,,,1932.2898,1933.2938,,,1933.7924,1934.0438,,40,40,,,,,,,,,,,,,,,,bars/017.png,bars/mask008.png,,,,,,,,,,,,6,2,,,,,,,4,8,6,7,,,,,,,,,,,1933.2938,1933.7923,1934.0438,1936.39,space,2.3324,,1936.39,75,5,1937.389,1937.389,1937.4005,,,,0,42,42,42,1,145,45,,,,,,,,
,,60e6b73b67e5151ba27b4346,65af55bf9e24a972e38d42c6,2024-01-23_08h00.34.217,bars,2023.2.3,Win32,30.21148036,657b66ea316d21385b68909f,,,,,,,,,,,1937.4008,1938.4046,,,1938.9042,1939.1544,,90,90,,,,,,,,,,,,,,,,bars/023.png,bars/mask001.png,,,,,,,,,,,,1,2,,,,,,,6,10,5,9,,,,,,,,,,,1938.4046,1938.904,1939.1544,1942.2524,space,3.081,,1942.2524,70,25,1943.25,1943.2502,1943.2647,,,,0,43,43,43,1,20,115,,,,,,,,
,,60e6b73b67e5151ba27b4346,65af55bf9e24a972e38d42c6,2024-01-23_08h00.34.217,bars,2023.2.3,Win32,30.21148036,657b66ea316d21385b68909f,,,,,,,,,,,1943.2652,1944.2659,,,1944.7654,1945.015,,3,3,,,,,,,,,,,,,,,,bars/016.png,bars/mask007.png,,,,,,,,,,,,2,2,,,,,,,4,8,4,6,,,,,,,,,,,1944.2659,1944.7654,1945.0151,1948.1123,space,3.0815,,1948.1123,37,18,1949.1114,1949.1115,1949.1331,,,,0,44,44,44,1,40,165,,,,,,,,
,,60e6b73b67e5151ba27b4346,65af55bf9e24a972e38d42c6,2024-01-23_08h00.34.217,bars,2023.2.3,Win32,30.21148036,657b66ea316d21385b68909f,,,,,,,,,,,1949.1335,1950.1243,,,1950.6239,1950.8735,,88,88,,,,,,,,,,,,,,,,bars/018.png,bars/mask006.png,,,,,,,,,,,,7,2,,,,,,,6,10,6,8,,,,,,,,,,,1950.1243,1950.6238,1950.8735,1954.2709,space,3.3807,,1954.2711,62,2,1955.2693,1955.2693,1955.2808,,,,0,45,45,45,1,150,90,,,,,,,,
,,60e6b73b67e5151ba27b4346,65af55bf9e24a972e38d42c6,2024-01-23_08h00.34.217,bars,2023.2.3,Win32,30.21148036,657b66ea316d21385b68909f,,,,,,,,,,,1955.281,1956.272,,,1956.7715,1957.0213,,30,30,,,,,,,,,,,,,,,,bars/040.png,bars/mask008.png,,,,,,,,,,,,2,2,,,,,,,8,10,9,10,,,,,,,,,,,1956.272,1956.7715,1957.0214,1960.3184,space,3.2809,,1960.3184,70,25,1961.3173,1961.3173,1961.3386,,,,0,46,46,46,1,140,5,,,,,,,,
,,60e6b73b67e5151ba27b4346,65af55bf9e24a972e38d42c6,2024-01-23_08h00.34.217,bars,2023.2.3,Win32,30.21148036,657b66ea316d21385b68909f,,,,,,,,,,,1961.3419,1962.3327,,,1962.8318,1963.0828,,94,94,,,,,,,,,,,,,,,,bars/009.png,bars/mask008.png,,,,,,,,,,,,5,2,,,,,,,10,8,10,8,,,,,,,,,,,1962.3328,1962.8318,1963.0829,1965.7624,space,2.665,,1965.7624,79,11,1966.7618,1966.7619,1966.773,,,,0,47,47,47,1,15,105,,,,,,,,
,,60e6b73b67e5151ba27b4346,65af55bf9e24a972e38d42c6,2024-01-23_08h00.34.217,bars,2023.2.3,Win32,30.21148036,657b66ea316d21385b68909f,,,,,,,,,,,1966.7732,1967.7616,,,1968.26,1968.5096,,74,74,,,,,,,,,,,,,,,,bars/038.png,bars/mask006.png,,,,,,,,,,,,6,2,,,,,,,10,6,10,7,,,,,,,,,,,1967.7618,1968.26,1968.5098,1971.8082,space,3.283,,1971.8082,89,4,1972.8058,1972.806,1972.8182,,,,0,48,48,48,1,165,70,,,,,,,,
,,60e6b73b67e5151ba27b4346,65af55bf9e24a972e38d42c6,2024-01-23_08h00.34.217,bars,2023.2.3,Win32,30.21148036,657b66ea316d21385b68909f,,,,,,,,,,,1972.8185,1973.8221,,,1974.3211,1974.5708,,98,98,,,,,,,,,,,,,,,,bars/041.png,bars/mask004.png,,,,,,,,,,,,4,2,,,,,,,8,8,8,7,,,,,,,,,,,1973.8222,1974.3211,1974.5708,1977.285,space,2.6983,,1977.285,78,13,1978.2838,1978.284,1978.3031,,,,0,49,49,49,1,20,85,,,,,,,,
,,60e6b73b67e5151ba27b4346,65af55bf9e24a972e38d42c6,2024-01-23_08h00.34.217,bars,2023.2.3,Win32,30.21148036,657b66ea316d21385b68909f,,,,,,,,,,,,,,,,,,,,,,,,,,,,,,,,,,,,,,,,,,,,,,,,,,,,,,,,,,,,,,,,,,,,,,,,,,,,,,,,,,,,,,,,,,,,,1978.3033,2038.6997,0,3,3,0,1,sequence_tables/blk032.csv
,,60e6b73b67e5151ba27b4346,65af55bf9e24a972e38d42c6,2024-01-23_08h00.34.217,bars,2023.2.3,Win32,30.21148036,657b66ea316d21385b68909f,,,,,,,,,,,2040.4146,2041.4089,,,2041.9084,2042.1583,,80,80,,,,,,,,,,,,,,,,bars/002.png,bars/mask000.png,,,,,,,,,,,,0,2,,,,,,,10,1,8,0,,,,,,2038.715,2040.411,space,1.6793,,2041.4089,2041.9084,2042.1583,2044.7064,space,2.5348,,2044.7064,50,5,2045.705,2045.705,2045.7159,,,,0,0,0,0,1,130,85,,,,,,,,
,,60e6b73b67e5151ba27b4346,65af55bf9e24a972e38d42c6,2024-01-23_08h00.34.217,bars,2023.2.3,Win32,30.21148036,657b66ea316d21385b68909f,,,,,,,,,,,2045.7161,2046.7039,,,2047.2035,2047.4533,,141,141,,,,,,,,,,,,,,,,bars/024.png,bars/mask000.png,,,,,,,,,,,,2,1,,,,,,,8,0,8,0,,,,,,,,,,,2046.704,2047.2035,2047.4533,2052.1656,space,4.6969,,2052.1657,21,29,2053.1646,2053.1646,2053.183,,,,0,1,1,1,1,120,170,,,,,,,,
,,60e6b73b67e5151ba27b4346,65af55bf9e24a972e38d42c6,2024-01-23_08h00.34.217,bars,2023.2.3,Win32,30.21148036,657b66ea316d21385b68909f,,,,,,,,,,,2053.1835,2054.1802,,,2054.682,2054.9296,,35,35,,,,,,,,,,,,,,,,bars/043.png,bars/mask006.png,,,,,,,,,,,,4,1,,,,,,,6,0,5,0,,,,,,,,,,,2054.1802,2054.6819,2054.9296,2059.6086,space,4.663,,2059.6086,5,85,2060.6076,2060.6077,2060.6182,,,,0,2,2,2,1,30,130,,,,,,,,
,,60e6b73b67e5151ba27b4346,65af55bf9e24a972e38d42c6,2024-01-23_08h00.34.217,bars,2023.2.3,Win32,30.21148036,657b66ea316d21385b68909f,,,,,,,,,,,2060.6184,2061.6067,,,2062.1063,2062.356,,90,90,,,,,,,,,,,,,,,,bars/031.png,bars/mask003.png,,,,,,,,,,,,0,1,,,,,,,4,2,3,0,,,,,,,,,,,2061.6067,2062.1063,2062.356,2064.8037,space,2.4319,,2064.8038,30,55,2065.8027,2065.8028,2065.8138,,,,0,3,3,3,1,120,35,,,,,,,,
,,60e6b73b67e5151ba27b4346,65af55bf9e24a972e38d42c6,2024-01-23_08h00.34.217,bars,2023.2.3,Win32,30.21148036,657b66ea316d21385b68909f,,,,,,,,,,,2065.8142,2066.8017,,,2067.3013,2067.5512,,140,140,,,,,,,,,,,,,,,,bars/024.png,bars/mask000.png,,,,,,,,,,,,2,1,,,,,,,6,0,5,0,,,,,,,,,,,2066.8018,2067.3013,2067.5512,2071.8638,space,4.2966,,2071.8639,20,30,2072.8628,2072.8629,2072.874,,,,0,4,4,4,1,120,170,,,,,,,,
,,60e6b73b67e5151ba27b4346,65af55bf9e24a972e38d42c6,2024-01-23_08h00.34.217,bars,2023.2.3,Win32,30.21148036,657b66ea316d21385b68909f,,,,,,,,,,,2072.8743,2073.8786,,,2074.3781,2074.6278,,147,147,,,,,,,,,,,,,,,,bars/024.png,bars/mask001.png,,,,,,,,,,,,1,2,,,,,,,8,2,10,5,,,,,,,,,,,2073.8786,2074.378,2074.6279,2079.0238,space,4.3806,,2079.0238,27,23,2080.0228,2080.0228,2080.0349,,,,0,5,5,5,1,120,170,,,,,,,,
,,60e6b73b67e5151ba27b4346,65af55bf9e24a972e38d42c6,2024-01-23_08h00.34.217,bars,2023.2.3,Win32,30.21148036,657b66ea316d21385b68909f,,,,,,,,,,,2080.0352,2081.0388,,,2081.538,2081.788,,44,44,,,,,,,,,,,,,,,,bars/028.png,bars/mask000.png,,,,,,,,,,,,10,1,,,,,,,10,0,10,1,,,,,,,,,,,2081.0389,2081.538,2081.788,2084.7351,space,2.9314,,2084.7352,1,76,2085.734,2085.7341,2085.7549,,,,0,6,6,6,1,45,120,,,,,,,,
,,60e6b73b67e5151ba27b4346,65af55bf9e24a972e38d42c6,2024-01-23_08h00.34.217,bars,2023.2.3,Win32,30.21148036,657b66ea316d21385b68909f,,,,,,,,,,,2085.7554,2086.75,,,2087.2494,2087.4991,,25,25,,,,,,,,,,,,,,,,bars/033.png,bars/mask000.png,,,,,,,,,,,,10,1,,,,,,,10,0,10,0,,,,,,,,,,,2086.7501,2087.2494,2087.4992,2091.7951,space,4.2804,,2091.7951,0,50,2092.7941,2092.7941,2092.8063,,,,0,7,7,7,1,25,155,,,,,,,,
,,60e6b73b67e5151ba27b4346,65af55bf9e24a972e38d42c6,2024-01-23_08h00.34.217,bars,2023.2.3,Win32,30.21148036,657b66ea316d21385b68909f,,,,,,,,,,,2092.8066,2093.8099,,,2094.3094,2094.5593,,36,36,,,,,,,,,,,,,,,,bars/044.png,bars/mask002.png,,,,,,,,,,,,0,1,,,,,,,10,0,8,0,,,,,,,,,,,2093.8099,2094.3094,2094.5594,2098.4223,space,3.8468,,2098.4223,39,61,2099.4213,2099.4214,2099.4325,,,,0,8,8,8,1,75,155,,,,,,,,
,,60e6b73b67e5151ba27b4346,65af55bf9e24a972e38d42c6,2024-01-23_08h00.34.217,bars,2023.2.3,Win32,30.21148036,657b66ea316d21385b68909f,,,,,,,,,,,2099.4329,2100.4371,,,2100.9365,2101.1863,,158,158,,,,,,,,,,,,,,,,bars/007.png,bars/mask005.png,,,,,,,,,,,,4,1,,,,,,,8,0,9,0,,,,,,,,,,,2100.4371,2100.9364,2101.1863,2103.5011,space,2.2999,,2103.5011,17,77,2104.5002,2104.5002,2104.5111,,,,0,9,9,9,1,175,55,,,,,,,,
,,60e6b73b67e5151ba27b4346,65af55bf9e24a972e38d42c6,2024-01-23_08h00.34.217,bars,2023.2.3,Win32,30.21148036,657b66ea316d21385b68909f,,,,,,,,,,,2104.5114,2105.5156,,,2106.0152,2106.2649,,172,-8,,,,,,,,,,,,,,,,bars/035.png,bars/mask005.png,,,,,,,,,,,,6,1,,,,,,,10,2,7,4,,,,,,,,,,,2105.5156,2106.0151,2106.2649,2109.8787,space,3.6004,,2109.8787,3,68,2110.878,2110.878,2110.8965,,,,0,10,10,10,1,175,60,,,,,,,,
,,60e6b73b67e5151ba27b4346,65af55bf9e24a972e38d42c6,2024-01-23_08h00.34.217,bars,2023.2.3,Win32,30.21148036,657b66ea316d21385b68909f,,,,,,,,,,,2110.8968,2111.893,,,2112.3926,2112.6423,,169,169,,,,,,,,,,,,,,,,bars/049.png,bars/mask000.png,,,,,,,,,,,,7,1,,,,,,,10,4,10,4,,,,,,,,,,,2111.893,2112.3925,2112.6423,2116.3221,space,3.6639,,2116.3221,9,54,2117.3212,2117.3212,2117.3353,,,,0,11,11,11,1,160,115,,,,,,,,
