init_variables.started,init_variables.stopped,participant,session,date,expName,psychopyVersion,OS,frameRate,study_id,instruction_exp.started,instruction_exp.stopped,key_resp_8.keys,key_resp_8.rt,key_resp_8.duration,instruction_single.started,instruction_single.stopped,key_resp_2.keys,key_resp_2.rt,key_resp_2.duration,interval.started,interval.stopped,cue_single.started,cue_single.stopped,mask.started,mask.stopped,ori_response_single.started,res_ori,res,ori_response_single.stopped,key_resp_single.keys,key_resp_single.rt,key_resp_single.duration,disp_single.started,disp_single.stopped,key_resp.keys,key_resp.rt,key_resp.duration,single.thisRepN,single.thisTrialN,single.thisN,single.thisIndex,single.ran,ori,path,mask_path,instruction_bandit.started,instruction_bandit.stopped,key_resp_6.keys,key_resp_6.rt,key_resp_6.duration,cue_bandit.started,cue_bandit.stopped,bandit_res.keys,bandit_res.rt,bandit_res.duration,outcome_bandit.started,rew,action,outcome_bandit.stopped,bandit.thisRepN,bandit.thisTrialN,bandit.thisN,bandit.thisIndex,bandit.ran,actual_rew1,actual_rew2,rew1,rew2,instruction_task.started,instruction_task.stopped,key_resp_7.keys,key_resp_7.rt,key_resp_7.duration,wait_ready.started,wait_ready.stopped,key_resp_3.keys,key_resp_3.rt,key_resp_3.duration,cue.started,cue.stopped,ori_response.started,ori_response.stopped,key_resp_5.keys,key_resp_5.rt,key_resp_5.duration,outcome.started,diff1,diff2,outcome.stopped,disp_outcome_practice.started,disp_outcome_practice.stopped,key_resp_4.keys,key_resp_4.rt,key_resp_4.duration,trials.thisRepN,trials.thisTrialN,trials.thisN,trials.thisIndex,trials.ran,ori1,ori2,break_blk.started,break_blk.stopped,block.thisRepN,block.thisTrialN,block.thisN,block.thisIndex,block.ran,condition_file
0.0005,0.0008,6172dbbae6d358d7304e81b3,65af56b360bcc53ab4af7c3c,2024-01-23_08h10.58.770,bars,2023.2.3,Win32,60.09976561,657b66ea316d21385b68909f,,,,,,,,,,,,,,,,,,,,,,,,,,,,,,,,,,,,,,,,,,,,,,,,,,,,,,,,,,,,,,,,,,,,,,,,,,,,,,,,,,,,,,,,,,,,,,,,,,,,
,,6172dbbae6d358d7304e81b3,65af56b360bcc53ab4af7c3c,2024-01-23_08h10.58.770,bars,2023.2.3,Win32,60.09976561,657b66ea316d21385b68909f,0.0012,382.5794,y,381.6055,,,,,,,,,,,,,,,,,,,,,,,,,,,,,,,,,,,,,,,,,,,,,,,,,,,,,,,,,,,,,,,,,,,,,,,,,,,,,,,,,,,,,,,,,,,,,,,,
,,6172dbbae6d358d7304e81b3,65af56b360bcc53ab4af7c3c,2024-01-23_08h10.58.770,bars,2023.2.3,Win32,60.09976561,657b66ea316d21385b68909f,,,,,,382.5799,407.0677,space,16.6982,,,,,,,,,,,,,,,,,,,,,,,,,,,,,,,,,,,,,,,,,,,,,,,,,,,,,,,,,,,,,,,,,,,,,,,,,,,,,,,,,,,,,,,,,,,
,,6172dbbae6d358d7304e81b3,65af56b360bcc53ab4af7c3c,2024-01-23_08h10.58.770,bars,2023.2.3,Win32,60.09976561,657b66ea316d21385b68909f,,,,,,,,,,,407.0762,408.0763,408.0772,408.5799,408.5804,408.8369,408.8371,40,40,435.3046,space,25.9508,,435.3049,446.9246,space,11.5675,,0,0,0,7,1,45,bars/single007.png,bars/mask009.png,,,,,,,,,,,,,,,,,,,,,,,,,,,,,,,,,,,,,,,,,,,,,,,,,,,,,,,,,,,,,,,,
,,6172dbbae6d358d7304e81b3,65af56b360bcc53ab4af7c3c,2024-01-23_08h10.58.770,bars,2023.2.3,Win32,60.09976561,657b66ea316d21385b68909f,,,,,,,,,,,446.9407,447.9277,447.9279,448.4159,448.416,448.661,448.6611,83,83,458.5961,space,9.9178,,458.5964,464.2119,space,5.5768,,0,1,1,6,1,175,bars/single006.png,bars/mask005.png,,,,,,,,,,,,,,,,,,,,,,,,,,,,,,,,,,,,,,,,,,,,,,,,,,,,,,,,,,,,,,,,
,,6172dbbae6d358d7304e81b3,65af56b360bcc53ab4af7c3c,2024-01-23_08h10.58.770,bars,2023.2.3,Win32,60.09976561,657b66ea316d21385b68909f,,,,,,,,,,,464.2265,465.2228,465.2229,465.7172,465.7173,465.9628,465.9629,29,29,479.1496,space,13.1566,,479.1498,488.3967,space,8.3405,,0,2,2,5,1,55,bars/single005.png,bars/mask008.png,,,,,,,,,,,,,,,,,,,,,,,,,,,,,,,,,,,,,,,,,,,,,,,,,,,,,,,,,,,,,,,,
,,6172dbbae6d358d7304e81b3,65af56b360bcc53ab4af7c3c,2024-01-23_08h10.58.770,bars,2023.2.3,Win32,60.09976561,657b66ea316d21385b68909f,,,,,,,,,,,488.4112,489.4132,489.4133,489.7486,489.7487,489.9969,489.9971,43,43,500.3583,space,10.3485,,500.3584,513.0301,space,12.6404,,0,3,3,0,1,150,bars/single000.png,bars/mask006.png,,,,,,,,,,,,,,,,,,,,,,,,,,,,,,,,,,,,,,,,,,,,,,,,,,,,,,,,,,,,,,,,
,,6172dbbae6d358d7304e81b3,65af56b360bcc53ab4af7c3c,2024-01-23_08h10.58.770,bars,2023.2.3,Win32,60.09976561,657b66ea316d21385b68909f,,,,,,,,,,,513.0552,514.044,514.044,514.5459,514.5461,514.7824,514.7825,156,156,524.1353,space,9.3214,,524.1354,530.9628,space,6.7916,,0,4,4,4,1,95,bars/single004.png,bars/mask004.png,,,,,,,,,,,,,,,,,,,,,,,,,,,,,,,,,,,,,,,,,,,,,,,,,,,,,,,,,,,,,,,,
,,6172dbbae6d358d7304e81b3,65af56b360bcc53ab4af7c3c,2024-01-23_08h10.58.770,bars,2023.2.3,Win32,60.09976561,657b66ea316d21385b68909f,,,,,,,,,,,530.9799,531.9656,531.9657,532.4658,532.4659,532.7163,532.7163,111,111,538.2783,space,5.5491,,538.2783,546.9153,space,8.6068,,0,5,5,2,1,145,bars/single002.png,bars/mask003.png,,,,,,,,,,,,,,,,,,,,,,,,,,,,,,,,,,,,,,,,,,,,,,,,,,,,,,,,,,,,,,,,
,,6172dbbae6d358d7304e81b3,65af56b360bcc53ab4af7c3c,2024-01-23_08h10.58.770,bars,2023.2.3,Win32,60.09976561,657b66ea316d21385b68909f,,,,,,,,,,,546.9495,547.9181,547.9183,548.68,548.6801,548.6809,548.681,148,148,554.8798,space,6.1864,,554.8799,564.83,space,9.918,,0,6,6,9,1,20,bars/single009.png,bars/mask006.png,,,,,,,,,,,,,,,,,,,,,,,,,,,,,,,,,,,,,,,,,,,,,,,,,,,,,,,,,,,,,,,,
,,6172dbbae6d358d7304e81b3,65af56b360bcc53ab4af7c3c,2024-01-23_08h10.58.770,bars,2023.2.3,Win32,60.09976561,657b66ea316d21385b68909f,,,,,,,,,,,564.8507,565.8353,565.8354,566.3279,566.328,566.5719,566.572,24,24,573.4693,space,6.8664,,573.4695,588.0365,space,14.5271,,0,7,7,8,1,160,bars/single008.png,bars/mask004.png,,,,,,,,,,,,,,,,,,,,,,,,,,,,,,,,,,,,,,,,,,,,,,,,,,,,,,,,,,,,,,,,
,,6172dbbae6d358d7304e81b3,65af56b360bcc53ab4af7c3c,2024-01-23_08h10.58.770,bars,2023.2.3,Win32,60.09976561,657b66ea316d21385b68909f,,,,,,,,,,,588.0519,589.048,589.048,589.5431,589.5432,589.7874,589.7875,154,154,602.8876,space,13.0648,,602.8876,613.6184,space,10.6983,,0,8,8,3,1,20,bars/single003.png,bars/mask005.png,,,,,,,,,,,,,,,,,,,,,,,,,,,,,,,,,,,,,,,,,,,,,,,,,,,,,,,,,,,,,,,,
,,6172dbbae6d358d7304e81b3,65af56b360bcc53ab4af7c3c,2024-01-23_08h10.58.770,bars,2023.2.3,Win32,60.09976561,657b66ea316d21385b68909f,,,,,,,,,,,613.6342,614.632,614.6321,615.1315,615.1317,615.3712,615.3712,17,197,622.6382,space,7.2515,,622.6383,626.305,space,3.6284,,0,9,9,1,1,20,bars/single001.png,bars/mask006.png,,,,,,,,,,,,,,,,,,,,,,,,,,,,,,,,,,,,,,,,,,,,,,,,,,,,,,,,,,,,,,,,
,,6172dbbae6d358d7304e81b3,65af56b360bcc53ab4af7c3c,2024-01-23_08h10.58.770,bars,2023.2.3,Win32,60.09976561,657b66ea316d21385b68909f,,,,,,,,,,,,,,,,,,,,,,,,,,,,,,,,,,,,,626.3198,653.6941,space,27.3508,,,,,,,,,,,,,,,,,,,,,,,,,,,,,,,,,,,,,,,,,,,,,,,,,,,,,,,,,,,,
,,6172dbbae6d358d7304e81b3,65af56b360bcc53ab4af7c3c,2024-01-23_08h10.58.770,bars,2023.2.3,Win32,60.09976561,657b66ea316d21385b68909f,,,,,,,,,,,,,,,,,,,,,,,,,,,,,,,,,,,,,,,,,,653.7225,659.7757,left,6.0271,,659.776,9,1,660.7748,0,0,0,0,1,9,1,9,2,,,,,,,,,,,,,,,,,,,,,,,,,,,,,,,,,,,,,,,,,
,,6172dbbae6d358d7304e81b3,65af56b360bcc53ab4af7c3c,2024-01-23_08h10.58.770,bars,2023.2.3,Win32,60.09976561,657b66ea316d21385b68909f,,,,,,,,,,,,,,,,,,,,,,,,,,,,,,,,,,,,,,,,,,660.776,663.8542,left,3.0526,,663.8542,10,1,664.8521,0,1,1,1,1,10,0,10,1,,,,,,,,,,,,,,,,,,,,,,,,,,,,,,,,,,,,,,,,,
,,6172dbbae6d358d7304e81b3,65af56b360bcc53ab4af7c3c,2024-01-23_08h10.58.770,bars,2023.2.3,Win32,60.09976561,657b66ea316d21385b68909f,,,,,,,,,,,,,,,,,,,,,,,,,,,,,,,,,,,,,,,,,,664.8529,666.7597,left,1.8898,,666.7597,10,1,667.7563,0,2,2,2,1,10,2,10,2,,,,,,,,,,,,,,,,,,,,,,,,,,,,,,,,,,,,,,,,,
,,6172dbbae6d358d7304e81b3,65af56b360bcc53ab4af7c3c,2024-01-23_08h10.58.770,bars,2023.2.3,Win32,60.09976561,657b66ea316d21385b68909f,,,,,,,,,,,,,,,,,,,,,,,,,,,,,,,,,,,,,,,,,,667.7586,669.524,left,1.7506,,669.5241,7,1,670.5186,0,3,3,3,1,8,4,7,3,,,,,,,,,,,,,,,,,,,,,,,,,,,,,,,,,,,,,,,,,
,,6172dbbae6d358d7304e81b3,65af56b360bcc53ab4af7c3c,2024-01-23_08h10.58.770,bars,2023.2.3,Win32,60.09976561,657b66ea316d21385b68909f,,,,,,,,,,,,,,,,,,,,,,,,,,,,,,,,,,,,,,,,,,670.5328,673.8512,right,3.3065,,673.8519,1,2,674.8411,0,4,4,4,1,6,2,5,1,,,,,,,,,,,,,,,,,,,,,,,,,,,,,,,,,,,,,,,,,
,,6172dbbae6d358d7304e81b3,65af56b360bcc53ab4af7c3c,2024-01-23_08h10.58.770,bars,2023.2.3,Win32,60.09976561,657b66ea316d21385b68909f,,,,,,,,,,,,,,,,,,,,,,,,,,,,,,,,,,,,,,,,,,674.8557,677.2771,left,2.4047,,677.2772,4,1,678.2747,0,5,5,5,1,4,4,4,4,,,,,,,,,,,,,,,,,,,,,,,,,,,,,,,,,,,,,,,,,
,,6172dbbae6d358d7304e81b3,65af56b360bcc53ab4af7c3c,2024-01-23_08h10.58.770,bars,2023.2.3,Win32,60.09976561,657b66ea316d21385b68909f,,,,,,,,,,,,,,,,,,,,,,,,,,,,,,,,,,,,,,,,,,678.2892,678.9759,right,0.6718,,678.976,2,2,679.9702,0,6,6,6,1,2,2,1,2,,,,,,,,,,,,,,,,,,,,,,,,,,,,,,,,,,,,,,,,,
,,6172dbbae6d358d7304e81b3,65af56b360bcc53ab4af7c3c,2024-01-23_08h10.58.770,bars,2023.2.3,Win32,60.09976561,657b66ea316d21385b68909f,,,,,,,,,,,,,,,,,,,,,,,,,,,,,,,,,,,,,,,,,,679.9708,680.9218,left,0.9353,,680.9219,0,1,681.9208,0,7,7,7,1,0,0,0,1,,,,,,,,,,,,,,,,,,,,,,,,,,,,,,,,,,,,,,,,,
,,6172dbbae6d358d7304e81b3,65af56b360bcc53ab4af7c3c,2024-01-23_08h10.58.770,bars,2023.2.3,Win32,60.09976561,657b66ea316d21385b68909f,,,,,,,,,,,,,,,,,,,,,,,,,,,,,,,,,,,,,,,,,,681.9224,682.5261,right,0.5877,,682.5262,0,2,683.5264,0,8,8,8,1,0,2,1,0,,,,,,,,,,,,,,,,,,,,,,,,,,,,,,,,,,,,,,,,,
,,6172dbbae6d358d7304e81b3,65af56b360bcc53ab4af7c3c,2024-01-23_08h10.58.770,bars,2023.2.3,Win32,60.09976561,657b66ea316d21385b68909f,,,,,,,,,,,,,,,,,,,,,,,,,,,,,,,,,,,,,,,,,,683.5274,684.0593,right,0.5031,,684.0594,3,2,685.047,0,9,9,9,1,2,4,2,3,,,,,,,,,,,,,,,,,,,,,,,,,,,,,,,,,,,,,,,,,
,,6172dbbae6d358d7304e81b3,65af56b360bcc53ab4af7c3c,2024-01-23_08h10.58.770,bars,2023.2.3,Win32,60.09976561,657b66ea316d21385b68909f,,,,,,,,,,,,,,,,,,,,,,,,,,,,,,,,,,,,,,,,,,685.049,685.869,right,0.7985,,685.869,3,2,686.8588,0,10,10,10,1,0,2,0,3,,,,,,,,,,,,,,,,,,,,,,,,,,,,,,,,,,,,,,,,,
,,6172dbbae6d358d7304e81b3,65af56b360bcc53ab4af7c3c,2024-01-23_08h10.58.770,bars,2023.2.3,Win32,60.09976561,657b66ea316d21385b68909f,,,,,,,,,,,,,,,,,,,,,,,,,,,,,,,,,,,,,,,,,,686.8593,687.3753,left,0.4865,,687.3754,0,1,688.3712,0,11,11,11,1,0,4,0,3,,,,,,,,,,,,,,,,,,,,,,,,,,,,,,,,,,,,,,,,,
,,6172dbbae6d358d7304e81b3,65af56b360bcc53ab4af7c3c,2024-01-23_08h10.58.770,bars,2023.2.3,Win32,60.09976561,657b66ea316d21385b68909f,,,,,,,,,,,,,,,,,,,,,,,,,,,,,,,,,,,,,,,,,,688.3723,688.9771,right,0.5879,,688.9772,6,2,689.9697,0,12,12,12,1,2,6,1,6,,,,,,,,,,,,,,,,,,,,,,,,,,,,,,,,,,,,,,,,,
,,6172dbbae6d358d7304e81b3,65af56b360bcc53ab4af7c3c,2024-01-23_08h10.58.770,bars,2023.2.3,Win32,60.09976561,657b66ea316d21385b68909f,,,,,,,,,,,,,,,,,,,,,,,,,,,,,,,,,,,,,,,,,,689.9707,690.7258,right,0.7323,,690.7259,3,2,691.7374,0,13,13,13,1,0,4,1,3,,,,,,,,,,,,,,,,,,,,,,,,,,,,,,,,,,,,,,,,,
,,6172dbbae6d358d7304e81b3,65af56b360bcc53ab4af7c3c,2024-01-23_08h10.58.770,bars,2023.2.3,Win32,60.09976561,657b66ea316d21385b68909f,,,,,,,,,,,,,,,,,,,,,,,,,,,,,,,,,,,,,,,,,,691.7385,692.5418,left,0.7831,,692.542,2,1,693.5399,0,14,14,14,1,2,6,2,7,,,,,,,,,,,,,,,,,,,,,,,,,,,,,,,,,,,,,,,,,
,,6172dbbae6d358d7304e81b3,65af56b360bcc53ab4af7c3c,2024-01-23_08h10.58.770,bars,2023.2.3,Win32,60.09976561,657b66ea316d21385b68909f,,,,,,,,,,,,,,,,,,,,,,,,,,,,,,,,,,,,,,,,,,693.5405,694.1182,left,0.5593,,694.1183,3,1,695.1102,0,15,15,15,1,4,8,3,9,,,,,,,,,,,,,,,,,,,,,,,,,,,,,,,,,,,,,,,,,
,,6172dbbae6d358d7304e81b3,65af56b360bcc53ab4af7c3c,2024-01-23_08h10.58.770,bars,2023.2.3,Win32,60.09976561,657b66ea316d21385b68909f,,,,,,,,,,,,,,,,,,,,,,,,,,,,,,,,,,,,,,,,,,695.1117,695.6763,left,0.5341,,695.6764,7,1,696.6761,0,16,16,16,1,6,6,7,7,,,,,,,,,,,,,,,,,,,,,,,,,,,,,,,,,,,,,,,,,
,,6172dbbae6d358d7304e81b3,65af56b360bcc53ab4af7c3c,2024-01-23_08h10.58.770,bars,2023.2.3,Win32,60.09976561,657b66ea316d21385b68909f,,,,,,,,,,,,,,,,,,,,,,,,,,,,,,,,,,,,,,,,,,696.677,697.2594,left,0.5518,,697.2595,9,1,698.2598,0,17,17,17,1,8,4,9,5,,,,,,,,,,,,,,,,,,,,,,,,,,,,,,,,,,,,,,,,,
,,6172dbbae6d358d7304e81b3,65af56b360bcc53ab4af7c3c,2024-01-23_08h10.58.770,bars,2023.2.3,Win32,60.09976561,657b66ea316d21385b68909f,,,,,,,,,,,,,,,,,,,,,,,,,,,,,,,,,,,,,,,,,,698.2605,698.827,left,0.551,,698.827,5,1,699.8268,0,18,18,18,1,6,2,5,1,,,,,,,,,,,,,,,,,,,,,,,,,,,,,,,,,,,,,,,,,
,,6172dbbae6d358d7304e81b3,65af56b360bcc53ab4af7c3c,2024-01-23_08h10.58.770,bars,2023.2.3,Win32,60.09976561,657b66ea316d21385b68909f,,,,,,,,,,,,,,,,,,,,,,,,,,,,,,,,,,,,,,,,,,699.8274,700.2608,right,0.4161,,700.2612,0,2,701.2599,0,19,19,19,1,8,0,7,0,,,,,,,,,,,,,,,,,,,,,,,,,,,,,,,,,,,,,,,,,
,,6172dbbae6d358d7304e81b3,65af56b360bcc53ab4af7c3c,2024-01-23_08h10.58.770,bars,2023.2.3,Win32,60.09976561,657b66ea316d21385b68909f,,,,,,,,,,,,,,,,,,,,,,,,,,,,,,,,,,,,,,,,,,,,,,,,,,,,,,,,,,,,701.2616,738.0212,space,36.7274,0.0014,,,,,,,,,,,,,,,,,,,,,,,,,,,,,,,,,,,,
,,6172dbbae6d358d7304e81b3,65af56b360bcc53ab4af7c3c,2024-01-23_08h10.58.770,bars,2023.2.3,Win32,60.09976561,657b66ea316d21385b68909f,,,,,,,,,,,740.6848,741.6957,,,742.1777,742.4233,,167,167,,,,,,,,,,,,,,,,bars/000.png,bars/mask001.png,,,,,,,,,,,,2,2,,,,,,,10,7,10,7,,,,,,738.0483,740.6756,space,2.582,,741.6962,742.1776,742.4242,754.9883,space,12.5392,,754.9888,53,22,755.9793,755.9797,766.0994,space,10.0849,,0,0,0,0,1,40,145,,,,,,,,
,,6172dbbae6d358d7304e81b3,65af56b360bcc53ab4af7c3c,2024-01-23_08h10.58.770,bars,2023.2.3,Win32,60.09976561,657b66ea316d21385b68909f,,,,,,,,,,,766.1154,767.1139,,,767.6011,767.8477,,16,196,,,,,,,,,,,,,,,,bars/047.png,bars/mask004.png,,,,,,,,,,,,8,1,,,,,,,8,9,8,8,,,,,,,,,,,767.114,767.6008,767.8478,774.5593,space,6.6848,,774.5593,1,54,775.5469,775.5471,790.1162,space,14.5317,,0,1,1,1,1,15,70,,,,,,,,
,,6172dbbae6d358d7304e81b3,65af56b360bcc53ab4af7c3c,2024-01-23_08h10.58.770,bars,2023.2.3,Win32,60.09976561,657b66ea316d21385b68909f,,,,,,,,,,,790.138,791.1297,,,791.6208,791.8696,,30,30,,,,,,,,,,,,,,,,bars/026.png,bars/mask008.png,,,,,,,,,,,,3,1,,,,,,,6,7,4,7,,,,,,,,,,,791.1298,791.6207,791.8697,797.9002,space,6.0033,,797.9003,5,55,798.8954,798.8955,810.6919,space,11.7441,,0,2,2,2,1,35,85,,,,,,,,
,,6172dbbae6d358d7304e81b3,65af56b360bcc53ab4af7c3c,2024-01-23_08h10.58.770,bars,2023.2.3,Win32,60.09976561,657b66ea316d21385b68909f,,,,,,,,,,,810.7205,811.696,,,812.1847,812.4345,,21,21,,,,,,,,,,,,,,,,bars/036.png,bars/mask001.png,,,,,,,,,,,,10,2,,,,,,,8,9,8,10,,,,,,,,,,,811.6961,812.1846,812.4347,817.5453,space,5.0826,,817.5453,56,1,818.5344,818.5346,822.4402,space,3.8601,,0,3,3,3,1,145,20,,,,,,,,
,,6172dbbae6d358d7304e81b3,65af56b360bcc53ab4af7c3c,2024-01-23_08h10.58.770,bars,2023.2.3,Win32,60.09976561,657b66ea316d21385b68909f,,,,,,,,,,,822.4611,823.4527,,,823.9533,824.2002,,151,151,,,,,,,,,,,,,,,,bars/043.png,bars/mask006.png,,,,,,,,,,,,2,2,,,,,,,10,7,9,7,,,,,,,,,,,823.4529,823.9533,824.2004,833.9654,space,9.7487,,833.9655,59,21,834.9604,834.9608,841.1051,space,6.0893,,0,4,4,4,1,30,130,,,,,,,,
,,6172dbbae6d358d7304e81b3,65af56b360bcc53ab4af7c3c,2024-01-23_08h10.58.770,bars,2023.2.3,Win32,60.09976561,657b66ea316d21385b68909f,,,,,,,,,,,841.1311,842.1184,,,842.6006,842.866,,95,95,,,,,,,,,,,,,,,,bars/001.png,bars/mask000.png,,,,,,,,,,,,5,2,,,,,,,8,5,8,7,,,,,,,,,,,842.1184,842.6006,842.8661,851.7203,space,8.8325,,851.7206,35,10,852.7181,852.7182,859.1076,space,6.3515,,0,5,5,5,1,130,85,,,,,,,,
,,6172dbbae6d358d7304e81b3,65af56b360bcc53ab4af7c3c,2024-01-23_08h10.58.770,bars,2023.2.3,Win32,60.09976561,657b66ea316d21385b68909f,,,,,,,,,,,859.1273,860.1185,,,860.6205,860.8657,,170,-10,,,,,,,,,,,,,,,,bars/033.png,bars/mask007.png,,,,,,,,,,,,2,2,,,,,,,10,3,10,3,,,,,,,,,,,860.1186,860.6198,860.8658,866.3658,space,5.482,,866.3659,35,15,867.3697,867.3699,873.1225,space,5.7105,,0,6,6,6,1,25,155,,,,,,,,
,,6172dbbae6d358d7304e81b3,65af56b360bcc53ab4af7c3c,2024-01-23_08h10.58.770,bars,2023.2.3,Win32,60.09976561,657b66ea316d21385b68909f,,,,,,,,,,,873.1465,874.136,,,874.6248,874.8644,,3,183,,,,,,,,,,,,,,,,bars/012.png,bars/mask001.png,,,,,,,,,,,,1,2,,,,,,,8,5,6,2,,,,,,,,,,,874.1361,874.6246,874.8644,882.3374,space,7.4519,,882.3374,87,12,883.3304,883.3305,888.1213,space,4.7541,,0,7,7,7,1,90,15,,,,,,,,
,,6172dbbae6d358d7304e81b3,65af56b360bcc53ab4af7c3c,2024-01-23_08h10.58.770,bars,2023.2.3,Win32,60.09976561,657b66ea316d21385b68909f,,,,,,,,,,,888.1352,889.1219,,,889.6052,889.7979,,5,185,,,,,,,,,,,,,,,,bars/024.png,bars/mask003.png,,,,,,,,,,,,1,2,,,,,,,10,3,10,2,,,,,,,,,,,889.122,889.6051,889.7979,895.9327,space,6.1233,,895.9328,65,15,896.9325,896.9326,900.5889,space,3.6189,,0,8,8,8,1,120,170,,,,,,,,
,,6172dbbae6d358d7304e81b3,65af56b360bcc53ab4af7c3c,2024-01-23_08h10.58.770,bars,2023.2.3,Win32,60.09976561,657b66ea316d21385b68909f,,,,,,,,,,,900.6092,901.6041,,,902.1046,902.3561,,83,-97,,,,,,,,,,,,,,,,bars/018.png,bars/mask008.png,,,,,,,,,,,,2,2,,,,,,,10,1,10,3,,,,,,,,,,,901.6042,902.1045,902.3561,911.9056,space,9.5296,,911.9058,67,7,912.9061,912.9062,916.1558,space,3.2145,,0,9,9,9,1,150,90,,,,,,,,
,,6172dbbae6d358d7304e81b3,65af56b360bcc53ab4af7c3c,2024-01-23_08h10.58.770,bars,2023.2.3,Win32,60.09976561,657b66ea316d21385b68909f,,,,,,,,,,,916.1564,917.1551,,,917.6555,917.8938,,148,148,,,,,,,,,,,,,,,,bars/000.png,bars/mask005.png,,,,,,,,,,,,0,2,,,,,,,8,0,9,0,,,,,,,,,,,917.1551,917.6554,917.8939,922.145,space,4.2361,,922.1452,72,3,923.139,923.139,929.1316,space,5.9596,,0,10,10,10,1,40,145,,,,,,,,
,,6172dbbae6d358d7304e81b3,65af56b360bcc53ab4af7c3c,2024-01-23_08h10.58.770,bars,2023.2.3,Win32,60.09976561,657b66ea316d21385b68909f,,,,,,,,,,,929.1465,930.1398,,,930.6359,930.8853,,151,151,,,,,,,,,,,,,,,,bars/017.png,bars/mask008.png,,,,,,,,,,,,6,1,,,,,,,6,2,7,2,,,,,,,,,,,930.1399,930.6358,930.8854,937.9576,space,7.0517,,937.9577,6,74,938.9548,938.9549,957.1597,space,18.1602,,0,11,11,11,1,145,45,,,,,,,,
,,6172dbbae6d358d7304e81b3,65af56b360bcc53ab4af7c3c,2024-01-23_08h10.58.770,bars,2023.2.3,Win32,60.09976561,657b66ea316d21385b68909f,,,,,,,,,,,957.1767,958.1743,,,958.6746,958.9253,,7,187,,,,,,,,,,,,,,,,bars/036.png,bars/mask007.png,,,,,,,,,,,,0,2,,,,,,,8,0,9,0,,,,,,,,,,,958.1744,958.6745,958.9254,965.9532,space,7.0004,,965.9532,42,13,966.9419,966.942,969.873,space,2.8943,,0,12,12,12,1,145,20,,,,,,,,
,,6172dbbae6d358d7304e81b3,65af56b360bcc53ab4af7c3c,2024-01-23_08h10.58.770,bars,2023.2.3,Win32,60.09976561,657b66ea316d21385b68909f,,,,,,,,,,,969.89,970.8873,,,971.443,971.6302,,148,148,,,,,,,,,,,,,,,,bars/021.png,bars/mask009.png,,,,,,,,,,,,7,1,,,,,,,10,2,9,0,,,,,,,,,,,970.8874,971.4429,971.6303,976.6259,space,4.9785,,976.626,7,78,977.6268,977.6268,979.3302,space,1.6612,,0,13,13,13,1,155,70,,,,,,,,
,,6172dbbae6d358d7304e81b3,65af56b360bcc53ab4af7c3c,2024-01-23_08h10.58.770,bars,2023.2.3,Win32,60.09976561,657b66ea316d21385b68909f,,,,,,,,,,,979.3312,980.3328,,,980.826,981.0756,,167,167,,,,,,,,,,,,,,,,bars/046.png,bars/mask002.png,,,,,,,,,,,,6,1,,,,,,,8,4,10,6,,,,,,,,,,,980.3329,980.8259,981.0756,986.6937,space,5.6028,,986.6939,12,82,987.6951,987.6953,990.7036,space,2.9722,,0,14,14,14,1,155,85,,,,,,,,
,,6172dbbae6d358d7304e81b3,65af56b360bcc53ab4af7c3c,2024-01-23_08h10.58.770,bars,2023.2.3,Win32,60.09976561,657b66ea316d21385b68909f,,,,,,,,,,,990.7288,991.721,,,992.2103,992.4596,,179,179,,,,,,,,,,,,,,,,bars/023.png,bars/mask000.png,,,,,,,,,,,,3,1,,,,,,,10,2,10,3,,,,,,,,,,,991.721,992.2101,992.4597,998.1437,space,5.6659,,998.1438,21,64,999.144,999.1441,1002.1285,space,2.9464,,0,15,15,15,1,20,115,,,,,,,,
,,6172dbbae6d358d7304e81b3,65af56b360bcc53ab4af7c3c,2024-01-23_08h10.58.770,bars,2023.2.3,Win32,60.09976561,657b66ea316d21385b68909f,,,,,,,,,,,1002.1534,1003.1444,,,1003.6453,1003.8945,,41,221,,,,,,,,,,,,,,,,bars/022.png,bars/mask002.png,,,,,,,,,,,,0,2,,,,,,,8,0,7,0,,,,,,,,,,,1003.1444,1003.6452,1003.8946,1010.1948,space,6.2658,,1010.1948,54,21,1011.1793,1011.1794,1013.133,space,1.9108,,0,16,16,16,1,95,20,,,,,,,,
,,6172dbbae6d358d7304e81b3,65af56b360bcc53ab4af7c3c,2024-01-23_08h10.58.770,bars,2023.2.3,Win32,60.09976561,657b66ea316d21385b68909f,,,,,,,,,,,1013.1336,1014.1489,,,1014.6444,1014.8992,,148,-32,,,,,,,,,,,,,,,,bars/043.png,bars/mask000.png,,,,,,,,,,,,0,2,,,,,,,10,0,10,0,,,,,,,,,,,1014.1494,1014.6443,1014.8994,1021.7269,space,6.8006,,1021.727,62,18,1022.7389,1022.7389,1025.912,space,3.1359,,0,17,17,17,1,30,130,,,,,,,,
,,6172dbbae6d358d7304e81b3,65af56b360bcc53ab4af7c3c,2024-01-23_08h10.58.770,bars,2023.2.3,Win32,60.09976561,657b66ea316d21385b68909f,,,,,,,,,,,1025.9128,1026.9045,,,1027.4014,1027.6459,,49,229,,,,,,,,,,,,,,,,bars/010.png,bars/mask005.png,,,,,,,,,,,,3,2,,,,,,,10,2,9,4,,,,,,,,,,,1026.9046,1027.4013,1027.6459,1034.483,space,6.8075,,1034.4831,64,6,1035.4842,1035.4844,1038.788,space,3.2525,,0,18,18,18,1,165,55,,,,,,,,
,,6172dbbae6d358d7304e81b3,65af56b360bcc53ab4af7c3c,2024-01-23_08h10.58.770,bars,2023.2.3,Win32,60.09976561,657b66ea316d21385b68909f,,,,,,,,,,,1038.8024,1039.7967,,,1041.2628,1041.2636,,161,-19,,,,,,,,,,,,,,,,bars/005.png,bars/mask006.png,,,,,,,,,,,,1,2,,,,,,,10,4,10,4,,,,,,,,,,,1039.7967,1041.2628,1041.2636,1049.8545,space,8.5769,,1049.8546,29,21,1050.8467,1050.8467,1052.3987,space,1.5114,,0,19,19,19,1,10,140,,,,,,,,
,,6172dbbae6d358d7304e81b3,65af56b360bcc53ab4af7c3c,2024-01-23_08h10.58.770,bars,2023.2.3,Win32,60.09976561,657b66ea316d21385b68909f,,,,,,,,,,,1052.3994,1053.4075,,,1053.8977,1054.1476,,3,183,,,,,,,,,,,,,,,,bars/040.png,bars/mask003.png,,,,,,,,,,,,6,2,,,,,,,10,6,9,6,,,,,,,,,,,1053.4075,1053.8976,1054.1477,1058.2306,space,4.0542,,1058.2309,43,2,1059.2304,1059.2304,1061.4158,space,2.1513,,0,20,20,20,1,140,5,,,,,,,,
,,6172dbbae6d358d7304e81b3,65af56b360bcc53ab4af7c3c,2024-01-23_08h10.58.770,bars,2023.2.3,Win32,60.09976561,657b66ea316d21385b68909f,,,,,,,,,,,1061.4166,1062.4138,,,1062.9104,1063.1587,,10,190,,,,,,,,,,,,,,,,bars/013.png,bars/mask005.png,,,,,,,,,,,,2,2,,,,,,,8,4,7,2,,,,,,,,,,,1062.4139,1062.9103,1063.1587,1066.3149,space,3.1349,,1066.3149,65,0,1067.3144,1067.3146,1070.7634,space,3.4183,,0,21,21,21,1,75,10,,,,,,,,
,,6172dbbae6d358d7304e81b3,65af56b360bcc53ab4af7c3c,2024-01-23_08h10.58.770,bars,2023.2.3,Win32,60.09976561,657b66ea316d21385b68909f,,,,,,,,,,,1070.7646,1071.768,,,1072.2649,1072.5197,,9,189,,,,,,,,,,,,,,,,bars/045.png,bars/mask008.png,,,,,,,,,,,,8,2,,,,,,,10,6,9,8,,,,,,,,,,,1071.7681,1072.2648,1072.5198,1078.1822,space,5.6398,,1078.1823,89,1,1079.1733,1079.1734,1084.2337,space,5.0156,,0,22,22,22,1,100,10,,,,,,,,
,,6172dbbae6d358d7304e81b3,65af56b360bcc53ab4af7c3c,2024-01-23_08h10.58.770,bars,2023.2.3,Win32,60.09976561,657b66ea316d21385b68909f,,,,,,,,,,,1084.2482,1085.2491,,,1085.7503,1085.9991,,155,-25,,,,,,,,,,,,,,,,bars/049.png,bars/mask007.png,,,,,,,,,,,,8,1,,,,,,,10,4,10,2,,,,,,,,,,,1085.2492,1085.7501,1085.9991,1103.2339,space,17.2184,,1103.2341,5,40,1104.2286,1104.2286,1108.2365,space,3.9687,,0,23,23,23,1,160,115,,,,,,,,
,,6172dbbae6d358d7304e81b3,65af56b360bcc53ab4af7c3c,2024-01-23_08h10.58.770,bars,2023.2.3,Win32,60.09976561,657b66ea316d21385b68909f,,,,,,,,,,,1108.2376,1109.234,,,1109.7348,1109.9832,,147,-33,,,,,,,,,,,,,,,,bars/017.png,bars/mask005.png,,,,,,,,,,,,9,1,,,,,,,10,2,10,2,,,,,,,,,,,1109.234,1109.7346,1109.9833,1114.379,space,4.3839,,1114.379,2,78,1115.3682,1115.3682,1117.8759,space,2.4745,,0,24,24,24,1,145,45,,,,,,,,
,,6172dbbae6d358d7304e81b3,65af56b360bcc53ab4af7c3c,2024-01-23_08h10.58.770,bars,2023.2.3,Win32,60.09976561,657b66ea316d21385b68909f,,,,,,,,,,,1117.8766,1118.8755,,,1119.3682,1119.618,,22,22,,,,,,,,,,,,,,,,bars/003.png,bars/mask006.png,,,,,,,,,,,,6,1,,,,,,,8,4,7,4,,,,,,,,,,,1118.8756,1119.3681,1119.618,1125.1979,space,5.5519,,1125.1979,3,62,1126.2009,1126.2009,1128.4021,space,2.1665,,0,25,25,25,1,25,140,,,,,,,,
,,6172dbbae6d358d7304e81b3,65af56b360bcc53ab4af7c3c,2024-01-23_08h10.58.770,bars,2023.2.3,Win32,60.09976561,657b66ea316d21385b68909f,,,,,,,,,,,1128.4031,1129.4023,,,1129.9021,1130.1516,,28,208,,,,,,,,,,,,,,,,bars/036.png,bars/mask000.png,,,,,,,,,,,,4,2,,,,,,,10,6,10,6,,,,,,,,,,,1129.4023,1129.902,1130.1517,1138.791,space,8.6265,,1138.7912,63,8,1139.785,1139.785,1141.1406,space,1.3203,,0,26,26,26,1,145,20,,,,,,,,
,,6172dbbae6d358d7304e81b3,65af56b360bcc53ab4af7c3c,2024-01-23_08h10.58.770,bars,2023.2.3,Win32,60.09976561,657b66ea316d21385b68909f,,,,,,,,,,,1141.1412,1142.1354,,,1143.679,1143.6797,,0,0,,,,,,,,,,,,,,,,bars/029.png,bars/mask000.png,,,,,,,,,,,,0,2,,,,,,,10,8,10,8,,,,,,,,,,,1142.1357,1143.679,1143.6798,1151.5866,space,7.8898,,1151.5867,90,45,1152.5858,1152.5858,1155.9867,space,3.3685,,0,27,27,27,1,90,45,,,,,,,,
,,6172dbbae6d358d7304e81b3,65af56b360bcc53ab4af7c3c,2024-01-23_08h10.58.770,bars,2023.2.3,Win32,60.09976561,657b66ea316d21385b68909f,,,,,,,,,,,1155.9873,1156.9865,,,1158.2092,1158.2099,,116,-64,,,,,,,,,,,,,,,,bars/037.png,bars/mask009.png,,,,,,,,,,,,6,2,,,,,,,8,10,10,9,,,,,,,,,,,1156.9866,1158.2092,1158.21,1164.8462,space,6.6233,,1164.8463,34,11,1165.8371,1165.8373,1169.188,space,3.3175,,0,28,28,28,1,150,105,,,,,,,,
,,6172dbbae6d358d7304e81b3,65af56b360bcc53ab4af7c3c,2024-01-23_08h10.58.770,bars,2023.2.3,Win32,60.09976561,657b66ea316d21385b68909f,,,,,,,,,,,1169.205,1170.1904,,,1170.6868,1170.9271,,176,-4,,,,,,,,,,,,,,,,bars/045.png,bars/mask003.png,,,,,,,,,,,,5,2,,,,,,,10,10,10,10,,,,,,,,,,,1170.1906,1170.6868,1170.9273,1175.3889,space,4.4442,,1175.389,76,14,1176.3881,1176.3883,1178.063,space,1.6365,,0,29,29,29,1,100,10,,,,,,,,
,,6172dbbae6d358d7304e81b3,65af56b360bcc53ab4af7c3c,2024-01-23_08h10.58.770,bars,2023.2.3,Win32,60.09976561,657b66ea316d21385b68909f,,,,,,,,,,,1178.0638,1179.0539,,,1179.5549,1179.7971,,96,-84,,,,,,,,,,,,,,,,bars/018.png,bars/mask008.png,,,,,,,,,,,,8,2,,,,,,,8,10,6,10,,,,,,,,,,,1179.054,1179.5548,1179.7972,1192.1168,space,12.3003,,1192.1169,54,6,1193.1166,1193.1166,1195.94,space,2.7863,,0,30,30,30,1,150,90,,,,,,,,
,,6172dbbae6d358d7304e81b3,65af56b360bcc53ab4af7c3c,2024-01-23_08h10.58.770,bars,2023.2.3,Win32,60.09976561,657b66ea316d21385b68909f,,,,,,,,,,,1195.941,1196.9384,,,1197.4391,1197.6901,,119,119,,,,,,,,,,,,,,,,bars/044.png,bars/mask009.png,,,,,,,,,,,,0,2,,,,,,,6,8,8,9,,,,,,,,,,,1196.9385,1197.439,1197.6902,1206.5551,space,8.8374,,1206.5552,44,36,1207.5473,1207.5474,1212.7241,space,5.1346,,0,31,31,31,1,75,155,,,,,,,,
,,6172dbbae6d358d7304e81b3,65af56b360bcc53ab4af7c3c,2024-01-23_08h10.58.770,bars,2023.2.3,Win32,60.09976561,657b66ea316d21385b68909f,,,,,,,,,,,1212.7558,1213.7341,,,1214.2239,1214.4696,,130,-50,,,,,,,,,,,,,,,,bars/015.png,bars/mask006.png,,,,,,,,,,,,1,1,,,,,,,4,10,4,10,,,,,,,,,,,1213.7341,1214.2237,1214.4698,1222.4114,space,7.9238,,1222.4115,20,30,1223.4065,1223.4066,1225.8704,space,2.4311,,0,32,32,32,1,110,160,,,,,,,,
,,6172dbbae6d358d7304e81b3,65af56b360bcc53ab4af7c3c,2024-01-23_08h10.58.770,bars,2023.2.3,Win32,60.09976561,657b66ea316d21385b68909f,,,,,,,,,,,1225.8853,1226.8743,,,1227.3765,1227.6192,,41,41,,,,,,,,,,,,,,,,bars/025.png,bars/mask003.png,,,,,,,,,,,,8,2,,,,,,,2,8,2,8,,,,,,,,,,,1226.8744,1227.3763,1227.6192,1235.7243,space,8.0833,,1235.7244,64,1,1236.7247,1236.7248,1239.0763,space,2.314,,0,33,33,33,1,105,40,,,,,,,,
,,6172dbbae6d358d7304e81b3,65af56b360bcc53ab4af7c3c,2024-01-23_08h10.58.770,bars,2023.2.3,Win32,60.09976561,657b66ea316d21385b68909f,,,,,,,,,,,1239.0779,1240.0754,,,1240.5708,1240.8095,,88,88,,,,,,,,,,,,,,,,bars/046.png,bars/mask006.png,,,,,,,,,,,,5,2,,,,,,,4,6,5,6,,,,,,,,,,,1240.0755,1240.5708,1240.8097,1248.0925,space,7.2663,,1248.0925,67,3,1249.0923,1249.0924,1250.676,space,1.5473,,0,34,34,34,1,155,85,,,,,,,,
,,6172dbbae6d358d7304e81b3,65af56b360bcc53ab4af7c3c,2024-01-23_08h10.58.770,bars,2023.2.3,Win32,60.09976561,657b66ea316d21385b68909f,,,,,,,,,,,1250.677,1251.6786,,,1252.1751,1252.4271,,35,215,,,,,,,,,,,,,,,,bars/033.png,bars/mask000.png,,,,,,,,,,,,1,1,,,,,,,2,4,2,4,,,,,,,,,,,1251.6787,1252.175,1252.4272,1261.7009,space,9.2452,,1261.701,10,60,1262.6931,1262.6931,1264.4076,space,1.6798,,0,35,35,35,1,25,155,,,,,,,,
,,6172dbbae6d358d7304e81b3,65af56b360bcc53ab4af7c3c,2024-01-23_08h10.58.770,bars,2023.2.3,Win32,60.09976561,657b66ea316d21385b68909f,,,,,,,,,,,1264.4095,1265.3982,,,1265.9005,1266.1427,,134,-46,,,,,,,,,,,,,,,,bars/000.png,bars/mask001.png,,,,,,,,,,,,1,2,,,,,,,4,2,4,1,,,,,,,,,,,1265.3984,1265.9001,1266.1428,1274.6602,space,8.5033,,1274.6603,86,11,1275.6607,1275.6608,1288.0357,space,12.3352,,0,36,36,36,1,40,145,,,,,,,,
,,6172dbbae6d358d7304e81b3,65af56b360bcc53ab4af7c3c,2024-01-23_08h10.58.770,bars,2023.2.3,Win32,60.09976561,657b66ea316d21385b68909f,,,,,,,,,,,1288.0598,1289.0453,,,1289.6048,1289.6216,,120,120,,,,,,,,,,,,,,,,bars/042.png,bars/mask002.png,,,,,,,,,,,,0,1,,,,,,,2,0,0,0,,,,,,,,,,,1289.0454,1289.6048,1289.6217,1295.9571,space,6.3201,,1295.9571,25,45,1296.9577,1296.9578,1299.8632,space,2.8656,,0,37,37,37,1,145,75,,,,,,,,
,,6172dbbae6d358d7304e81b3,65af56b360bcc53ab4af7c3c,2024-01-23_08h10.58.770,bars,2023.2.3,Win32,60.09976561,657b66ea316d21385b68909f,,,,,,,,,,,1299.8641,1300.8567,,,1301.7098,1301.7106,,21,21,,,,,,,,,,,,,,,,bars/004.png,bars/mask008.png,,,,,,,,,,,,0,1,,,,,,,0,0,0,2,,,,,,,,,,,1300.8567,1301.7098,1301.7107,1304.775,space,3.0513,,1304.775,4,76,1305.7784,1305.7784,1309.0128,space,3.1998,,0,38,38,38,1,25,125,,,,,,,,
,,6172dbbae6d358d7304e81b3,65af56b360bcc53ab4af7c3c,2024-01-23_08h10.58.770,bars,2023.2.3,Win32,60.09976561,657b66ea316d21385b68909f,,,,,,,,,,,1309.0273,1310.029,,,1310.5185,1310.7633,,36,36,,,,,,,,,,,,,,,,bars/028.png,bars/mask001.png,,,,,,,,,,,,1,1,,,,,,,2,0,2,0,,,,,,,,,,,1310.0291,1310.5184,1310.7634,1316.0054,space,5.2136,,1316.0056,9,84,1316.9963,1316.9964,1318.0632,space,1.0331,,0,39,39,39,1,45,120,,,,,,,,
,,6172dbbae6d358d7304e81b3,65af56b360bcc53ab4af7c3c,2024-01-23_08h10.58.770,bars,2023.2.3,Win32,60.09976561,657b66ea316d21385b68909f,,,,,,,,,,,1318.0639,1319.0713,,,1319.5629,1319.814,,161,-19,,,,,,,,,,,,,,,,bars/010.png,bars/mask007.png,,,,,,,,,,,,3,1,,,,,,,4,0,3,0,,,,,,,,,,,1319.0714,1319.5629,1319.8142,1325.0971,space,5.2607,,1325.0971,4,74,1326.0912,1326.0913,1332.3601,space,6.2242,,0,40,40,40,1,165,55,,,,,,,,
,,6172dbbae6d358d7304e81b3,65af56b360bcc53ab4af7c3c,2024-01-23_08h10.58.770,bars,2023.2.3,Win32,60.09976561,657b66ea316d21385b68909f,,,,,,,,,,,1332.3745,1333.3638,,,1334.9976,1334.9982,,147,147,,,,,,,,,,,,,,,,bars/038.png,bars/mask006.png,,,,,,,,,,,,1,1,,,,,,,2,0,3,0,,,,,,,,,,,1333.3639,1334.9975,1334.9982,1340.3155,space,5.3027,,1340.3158,18,77,1341.3137,1341.3138,1342.8397,space,1.4919,,0,41,41,41,1,165,70,,,,,,,,
,,6172dbbae6d358d7304e81b3,65af56b360bcc53ab4af7c3c,2024-01-23_08h10.58.770,bars,2023.2.3,Win32,60.09976561,657b66ea316d21385b68909f,,,,,,,,,,,1342.8411,1343.8311,,,1346.061,1346.0623,,167,167,,,,,,,,,,,,,,,,bars/034.png,bars/mask000.png,,,,,,,,,,,,0,1,,,,,,,0,0,1,0,,,,,,,,,,,1343.8312,1346.0609,1346.0624,1348.0177,space,1.9433,,1348.0177,42,78,1349.0145,1349.0145,1351.9928,space,2.9502,,0,42,42,42,1,125,65,,,,,,,,
,,6172dbbae6d358d7304e81b3,65af56b360bcc53ab4af7c3c,2024-01-23_08h10.58.770,bars,2023.2.3,Win32,60.09976561,657b66ea316d21385b68909f,,,,,,,,,,,1351.9932,1352.9812,,,1353.4812,1353.6496,,170,170,,,,,,,,,,,,,,,,bars/046.png,bars/mask004.png,,,,,,,,,,,,1,1,,,,,,,2,2,1,2,,,,,,,,,,,1352.9812,1353.4811,1353.6496,1358.8064,space,5.1404,,1358.8066,15,85,1359.7842,1359.7845,1361.2942,space,1.4604,,0,43,43,43,1,155,85,,,,,,,,
,,6172dbbae6d358d7304e81b3,65af56b360bcc53ab4af7c3c,2024-01-23_08h10.58.770,bars,2023.2.3,Win32,60.09976561,657b66ea316d21385b68909f,,,,,,,,,,,1361.2947,1362.2825,,,1362.7752,1363.015,,19,19,,,,,,,,,,,,,,,,bars/033.png,bars/mask001.png,,,,,,,,,,,,3,1,,,,,,,4,4,4,3,,,,,,,,,,,1362.2826,1362.7751,1363.0151,1378.1278,space,15.1007,,1378.1279,6,44,1379.1085,1379.1086,1380.4138,space,1.2507,,0,44,44,44,1,25,155,,,,,,,,
,,6172dbbae6d358d7304e81b3,65af56b360bcc53ab4af7c3c,2024-01-23_08h10.58.770,bars,2023.2.3,Win32,60.09976561,657b66ea316d21385b68909f,,,,,,,,,,,1380.4147,1381.4179,,,1381.9169,1382.1603,,87,87,,,,,,,,,,,,,,,,bars/022.png,bars/mask001.png,,,,,,,,,,,,4,1,,,,,,,6,2,6,2,,,,,,,,,,,1381.418,1381.9169,1382.1604,1388.6956,space,6.5172,,1388.6956,8,67,1389.6841,1389.6842,1391.263,space,1.5443,,0,45,45,45,1,95,20,,,,,,,,
,,6172dbbae6d358d7304e81b3,65af56b360bcc53ab4af7c3c,2024-01-23_08h10.58.770,bars,2023.2.3,Win32,60.09976561,657b66ea316d21385b68909f,,,,,,,,,,,1391.2634,1392.2676,,,1392.7627,1393.0018,,38,38,,,,,,,,,,,,,,,,bars/028.png,bars/mask007.png,,,,,,,,,,,,6,1,,,,,,,8,0,8,0,,,,,,,,,,,1392.2677,1392.7625,1393.0019,1396.4074,space,3.3881,,1396.4075,7,82,1397.4081,1397.4083,1398.6462,space,1.1863,,0,46,46,46,1,45,120,,,,,,,,
,,6172dbbae6d358d7304e81b3,65af56b360bcc53ab4af7c3c,2024-01-23_08h10.58.770,bars,2023.2.3,Win32,60.09976561,657b66ea316d21385b68909f,,,,,,,,,,,1398.6467,1399.6351,,,1400.7488,1400.7501,,134,134,,,,,,,,,,,,,,,,bars/011.png,bars/mask003.png,,,,,,,,,,,,1,1,,,,,,,10,2,9,2,,,,,,,,,,,1399.6351,1400.7487,1400.7502,1403.7695,space,3.0026,,1403.7697,26,49,1404.7673,1404.7674,1408.0927,space,3.2954,,0,47,47,47,1,160,85,,,,,,,,
,,6172dbbae6d358d7304e81b3,65af56b360bcc53ab4af7c3c,2024-01-23_08h10.58.770,bars,2023.2.3,Win32,60.09976561,657b66ea316d21385b68909f,,,,,,,,,,,1408.109,1409.1024,,,1410.3564,1410.357,,44,-136,,,,,,,,,,,,,,,,bars/008.png,bars/mask009.png,,,,,,,,,,,,0,2,,,,,,,8,0,9,0,,,,,,,,,,,1409.1026,1410.3563,1410.357,1419.4114,space,9.041,,1419.4115,66,44,1420.4027,1420.4027,1422.4366,space,1.9916,,0,48,48,48,1,110,0,,,,,,,,
,,6172dbbae6d358d7304e81b3,65af56b360bcc53ab4af7c3c,2024-01-23_08h10.58.770,bars,2023.2.3,Win32,60.09976561,657b66ea316d21385b68909f,,,,,,,,,,,1422.4375,1423.4442,,,1423.9285,1424.18,,81,81,,,,,,,,,,,,,,,,bars/001.png,bars/mask008.png,,,,,,,,,,,,1,2,,,,,,,10,2,9,1,,,,,,,,,,,1423.4442,1423.9284,1424.18,1428.8537,space,4.6512,,1428.854,49,4,1429.8419,1429.8421,1431.0026,space,1.1251,,0,49,49,49,1,130,85,,,,,,,,
,,6172dbbae6d358d7304e81b3,65af56b360bcc53ab4af7c3c,2024-01-23_08h10.58.770,bars,2023.2.3,Win32,60.09976561,657b66ea316d21385b68909f,,,,,,,,,,,,,,,,,,,,,,,,,,,,,,,,,,,,,,,,,,,,,,,,,,,,,,,,,,,,,,,,,,,,,,,,,,,,,,,,,,,,,,,,,,,,,1433.3449,1491.019,0,0,0,0,1,sequence_tables/blk006.csv
,,6172dbbae6d358d7304e81b3,65af56b360bcc53ab4af7c3c,2024-01-23_08h10.58.770,bars,2023.2.3,Win32,60.09976561,657b66ea316d21385b68909f,,,,,,,,,,,1536.2771,1537.2442,,,1537.74,1537.9928,,163,-17,,,,,,,,,,,,,,,,bars/040.png,bars/mask001.png,,,,,,,,,,,,1,2,,,,,,,9,4,9,4,,,,,,1491.0363,1536.2434,space,45.1922,,1537.2444,1537.74,1537.9929,1541.4137,space,3.4067,,1541.4138,23,22,1542.4027,1542.4028,1542.4173,,,,0,0,0,0,1,140,5,,,,,,,,
,,6172dbbae6d358d7304e81b3,65af56b360bcc53ab4af7c3c,2024-01-23_08h10.58.770,bars,2023.2.3,Win32,60.09976561,657b66ea316d21385b68909f,,,,,,,,,,,1542.4176,1543.4115,,,1543.9077,1544.1642,,14,194,,,,,,,,,,,,,,,,bars/034.png,bars/mask005.png,,,,,,,,,,,,0,2,,,,,,,10,6,10,6,,,,,,,,,,,1543.4117,1543.9077,1544.1646,1551.8277,space,7.6417,,1551.8278,69,51,1552.8396,1552.8397,1552.8619,,,,0,1,1,1,1,125,65,,,,,,,,
,,6172dbbae6d358d7304e81b3,65af56b360bcc53ab4af7c3c,2024-01-23_08h10.58.770,bars,2023.2.3,Win32,60.09976561,657b66ea316d21385b68909f,,,,,,,,,,,1552.8622,1553.8621,,,1554.363,1554.6099,,159,-21,,,,,,,,,,,,,,,,bars/000.png,bars/mask009.png,,,,,,,,,,,,3,2,,,,,,,8,4,8,5,,,,,,,,,,,1553.8622,1554.363,1554.6099,1561.3615,space,6.7363,,1561.3616,61,14,1562.3605,1562.3605,1562.3759,,,,0,2,2,2,1,40,145,,,,,,,,
,,6172dbbae6d358d7304e81b3,65af56b360bcc53ab4af7c3c,2024-01-23_08h10.58.770,bars,2023.2.3,Win32,60.09976561,657b66ea316d21385b68909f,,,,,,,,,,,1562.3763,1563.3776,,,1564.111,1564.1269,,155,155,,,,,,,,,,,,,,,,bars/035.png,bars/mask008.png,,,,,,,,,,,,2,1,,,,,,,6,6,6,7,,,,,,,,,,,1563.3776,1564.111,1564.127,1570.8815,space,6.7396,,1570.8816,20,85,1571.8697,1571.8698,1571.899,,,,0,3,3,3,1,175,60,,,,,,,,
,,6172dbbae6d358d7304e81b3,65af56b360bcc53ab4af7c3c,2024-01-23_08h10.58.770,bars,2023.2.3,Win32,60.09976561,657b66ea316d21385b68909f,,,,,,,,,,,1571.8996,1572.8792,,,1573.3678,1573.6122,,96,96,,,,,,,,,,,,,,,,bars/002.png,bars/mask005.png,,,,,,,,,,,,5,2,,,,,,,4,8,3,8,,,,,,,,,,,1572.8793,1573.3675,1573.6122,1579.6783,space,6.0465,,1579.6784,34,11,1580.6674,1580.6676,1580.6843,,,,0,4,4,4,1,130,85,,,,,,,,
,,6172dbbae6d358d7304e81b3,65af56b360bcc53ab4af7c3c,2024-01-23_08h10.58.770,bars,2023.2.3,Win32,60.09976561,657b66ea316d21385b68909f,,,,,,,,,,,1580.6847,1581.6784,,,1582.1786,1582.38,,89,89,,,,,,,,,,,,,,,,bars/018.png,bars/mask006.png,,,,,,,,,,,,10,2,,,,,,,2,10,1,10,,,,,,,,,,,1581.6785,1582.1785,1582.3801,1601.2584,space,18.8681,,1601.2584,61,1,1602.263,1602.2631,1602.2794,,,,0,5,5,5,1,150,90,,,,,,,,
,,6172dbbae6d358d7304e81b3,65af56b360bcc53ab4af7c3c,2024-01-23_08h10.58.770,bars,2023.2.3,Win32,60.09976561,657b66ea316d21385b68909f,,,,,,,,,,,1602.28,1603.2794,,,1603.78,1604.0227,,169,-11,,,,,,,,,,,,,,,,bars/033.png,bars/mask008.png,,,,,,,,,,,,4,2,,,,,,,4,8,4,8,,,,,,,,,,,1603.2796,1603.7799,1604.0227,1609.5784,space,5.5343,,1609.5784,36,14,1610.5799,1610.5801,1610.5957,,,,0,6,6,6,1,25,155,,,,,,,,
,,6172dbbae6d358d7304e81b3,65af56b360bcc53ab4af7c3c,2024-01-23_08h10.58.770,bars,2023.2.3,Win32,60.09976561,657b66ea316d21385b68909f,,,,,,,,,,,1610.596,1611.5851,,,1611.8838,1612.1305,,89,89,,,,,,,,,,,,,,,,bars/014.png,bars/mask001.png,,,,,,,,,,,,1,1,,,,,,,2,10,1,10,,,,,,,,,,,1611.5851,1611.8838,1612.1306,1618.622,space,6.4617,,1618.6221,9,89,1619.6233,1619.6234,1619.6521,,,,0,7,7,7,1,80,0,,,,,,,,
,,6172dbbae6d358d7304e81b3,65af56b360bcc53ab4af7c3c,2024-01-23_08h10.58.770,bars,2023.2.3,Win32,60.09976561,657b66ea316d21385b68909f,,,,,,,,,,,1619.6525,1620.6466,,,1621.1393,1621.3821,,33,33,,,,,,,,,,,,,,,,bars/027.png,bars/mask005.png,,,,,,,,,,,,3,2,,,,,,,4,8,4,7,,,,,,,,,,,1620.6467,1621.1391,1621.3824,1629.5267,space,8.1165,,1629.5268,77,17,1630.5146,1630.5148,1630.5335,,,,0,8,8,8,1,110,50,,,,,,,,
,,6172dbbae6d358d7304e81b3,65af56b360bcc53ab4af7c3c,2024-01-23_08h10.58.770,bars,2023.2.3,Win32,60.09976561,657b66ea316d21385b68909f,,,,,,,,,,,1630.5338,1631.5253,,,1632.0278,1632.2665,,30,30,,,,,,,,,,,,,,,,bars/003.png,bars/mask006.png,,,,,,,,,,,,2,1,,,,,,,2,6,2,7,,,,,,,,,,,1631.5254,1632.0277,1632.2665,1636.4154,space,4.1138,,1636.4155,5,70,1637.4096,1637.4097,1637.4256,,,,0,9,9,9,1,25,140,,,,,,,,
,,6172dbbae6d358d7304e81b3,65af56b360bcc53ab4af7c3c,2024-01-23_08h10.58.770,bars,2023.2.3,Win32,60.09976561,657b66ea316d21385b68909f,,,,,,,,,,,1637.426,1638.4159,,,1638.9147,1639.1652,,46,46,,,,,,,,,,,,,,,,bars/045.png,bars/mask006.png,,,,,,,,,,,,0,2,,,,,,,4,8,3,7,,,,,,,,,,,1638.416,1638.9146,1639.1653,1651.5953,space,12.4183,,1651.5953,54,36,1652.5992,1652.5992,1652.6175,,,,0,10,10,10,1,100,10,,,,,,,,
,,6172dbbae6d358d7304e81b3,65af56b360bcc53ab4af7c3c,2024-01-23_08h10.58.770,bars,2023.2.3,Win32,60.09976561,657b66ea316d21385b68909f,,,,,,,,,,,1652.6183,1653.6065,,,1654.1048,1654.2659,,165,-15,,,,,,,,,,,,,,,,bars/032.png,bars/mask003.png,,,,,,,,,,,,0,2,,,,,,,2,6,1,7,,,,,,,,,,,1653.6067,1654.1048,1654.2661,1660.6154,space,6.336,,1660.6155,40,35,1661.6248,1661.6249,1661.6408,,,,0,11,11,11,1,125,20,,,,,,,,
,,6172dbbae6d358d7304e81b3,65af56b360bcc53ab4af7c3c,2024-01-23_08h10.58.770,bars,2023.2.3,Win32,60.09976561,657b66ea316d21385b68909f,,,,,,,,,,,1661.6411,1662.6344,,,1663.1304,1663.378,,87,267,,,,,,,,,,,,,,,,bars/019.png,bars/mask001.png,,,,,,,,,,,,2,2,,,,,,,4,4,4,6,,,,,,,,,,,1662.6346,1663.1303,1663.378,1673.3814,space,9.9865,,1673.3814,42,18,1674.3843,1674.3844,1674.4002,,,,0,12,12,12,1,45,105,,,,,,,,
,,6172dbbae6d358d7304e81b3,65af56b360bcc53ab4af7c3c,2024-01-23_08h10.58.770,bars,2023.2.3,Win32,60.09976561,657b66ea316d21385b68909f,,,,,,,,,,,1674.4007,1675.3909,,,1675.8786,1676.1173,,86,86,,,,,,,,,,,,,,,,bars/002.png,bars/mask003.png,,,,,,,,,,,,6,2,,,,,,,2,6,1,6,,,,,,,,,,,1675.3909,1675.8785,1676.1173,1683.3216,space,7.1899,,1683.3217,44,1,1684.3115,1684.3116,1684.3366,,,,0,13,13,13,1,130,85,,,,,,,,
,,6172dbbae6d358d7304e81b3,65af56b360bcc53ab4af7c3c,2024-01-23_08h10.58.770,bars,2023.2.3,Win32,60.09976561,657b66ea316d21385b68909f,,,,,,,,,,,1684.3369,1685.3247,,,1685.8188,1686.0683,,78,-102,,,,,,,,,,,,,,,,bars/030.png,bars/mask007.png,,,,,,,,,,,,2,2,,,,,,,4,4,4,4,,,,,,,,,,,1685.3249,1685.8188,1686.0684,1692.9993,space,6.901,,1692.9994,62,13,1693.9971,1693.9973,1694.014,,,,0,14,14,14,1,140,65,,,,,,,,
,,6172dbbae6d358d7304e81b3,65af56b360bcc53ab4af7c3c,2024-01-23_08h10.58.770,bars,2023.2.3,Win32,60.09976561,657b66ea316d21385b68909f,,,,,,,,,,,1694.0144,1695.0021,,,1695.387,1695.3893,,171,-9,,,,,,,,,,,,,,,,bars/039.png,bars/mask006.png,,,,,,,,,,,,5,1,,,,,,,6,2,6,3,,,,,,,,,,,1695.0023,1695.3869,1695.3893,1700.5814,space,5.168,,1700.5815,4,66,1701.585,1701.5854,1701.6087,,,,0,15,15,15,1,175,105,,,,,,,,
,,6172dbbae6d358d7304e81b3,65af56b360bcc53ab4af7c3c,2024-01-23_08h10.58.770,bars,2023.2.3,Win32,60.09976561,657b66ea316d21385b68909f,,,,,,,,,,,1701.609,1702.6023,,,1703.0969,1703.3375,,173,173,,,,,,,,,,,,,,,,bars/002.png,bars/mask004.png,,,,,,,,,,,,0,1,,,,,,,8,0,8,0,,,,,,,,,,,1702.6025,1703.0969,1703.3376,1707.4235,space,4.0681,,1707.4235,43,88,1708.4233,1708.4233,1708.4418,,,,0,16,16,16,1,130,85,,,,,,,,
,,6172dbbae6d358d7304e81b3,65af56b360bcc53ab4af7c3c,2024-01-23_08h10.58.770,bars,2023.2.3,Win32,60.09976561,657b66ea316d21385b68909f,,,,,,,,,,,1708.4422,1709.4358,,,1709.9377,1710.1457,,84,-96,,,,,,,,,,,,,,,,bars/008.png,bars/mask002.png,,,,,,,,,,,,1,1,,,,,,,6,2,6,3,,,,,,,,,,,1709.436,1709.9376,1710.1457,1718.3375,space,8.1788,,1718.3376,26,84,1719.3487,1719.3487,1719.371,,,,0,17,17,17,1,110,0,,,,,,,,
,,6172dbbae6d358d7304e81b3,65af56b360bcc53ab4af7c3c,2024-01-23_08h10.58.770,bars,2023.2.3,Win32,60.09976561,657b66ea316d21385b68909f,,,,,,,,,,,1719.3717,1720.372,,,1720.8664,1721.1145,,85,-95,,,,,,,,,,,,,,,,bars/018.png,bars/mask007.png,,,,,,,,,,,,3,2,,,,,,,4,4,1,4,,,,,,,,,,,1720.3721,1720.8662,1721.1147,1727.7722,space,6.6364,,1727.7722,65,5,1728.7699,1728.77,1728.7866,,,,0,18,18,18,1,150,90,,,,,,,,
,,6172dbbae6d358d7304e81b3,65af56b360bcc53ab4af7c3c,2024-01-23_08h10.58.770,bars,2023.2.3,Win32,60.09976561,657b66ea316d21385b68909f,,,,,,,,,,,1728.7869,1729.7892,,,1730.2701,1730.5235,,81,-99,,,,,,,,,,,,,,,,bars/037.png,bars/mask009.png,,,,,,,,,,,,1,2,,,,,,,2,2,3,3,,,,,,,,,,,1729.7894,1730.27,1730.5235,1736.9327,space,6.393,,1736.9329,69,24,1737.9325,1737.9326,1737.9486,,,,0,19,19,19,1,150,105,,,,,,,,
,,6172dbbae6d358d7304e81b3,65af56b360bcc53ab4af7c3c,2024-01-23_08h10.58.770,bars,2023.2.3,Win32,60.09976561,657b66ea316d21385b68909f,,,,,,,,,,,1737.9489,1738.9501,,,1739.4382,1739.6823,,146,146,,,,,,,,,,,,,,,,bars/049.png,bars/mask006.png,,,,,,,,,,,,1,1,,,,,,,0,4,1,3,,,,,,,,,,,1738.9503,1739.4381,1739.6824,1744.7633,space,5.0625,,1744.7633,14,31,1745.7549,1745.755,1745.7788,,,,0,20,20,20,1,160,115,,,,,,,,
,,6172dbbae6d358d7304e81b3,65af56b360bcc53ab4af7c3c,2024-01-23_08h10.58.770,bars,2023.2.3,Win32,60.09976561,657b66ea316d21385b68909f,,,,,,,,,,,1745.7792,1746.7723,,,1747.8403,1747.8417,,148,-32,,,,,,,,,,,,,,,,bars/036.png,bars/mask009.png,,,,,,,,,,,,1,1,,,,,,,0,2,1,4,,,,,,,,,,,1746.7724,1747.8403,1747.8418,1754.6387,space,6.782,,1754.6388,3,52,1755.6333,1755.6333,1755.6495,,,,0,21,21,21,1,145,20,,,,,,,,
,,6172dbbae6d358d7304e81b3,65af56b360bcc53ab4af7c3c,2024-01-23_08h10.58.770,bars,2023.2.3,Win32,60.09976561,657b66ea316d21385b68909f,,,,,,,,,,,1755.6497,1756.6392,,,1757.1405,1757.3886,,149,-31,,,,,,,,,,,,,,,,bars/049.png,bars/mask004.png,,,,,,,,,,,,2,1,,,,,,,2,0,3,1,,,,,,,,,,,1756.6393,1757.1404,1757.3887,1763.9845,space,6.584,,1763.9845,11,34,1764.9896,1764.9896,1765.0047,,,,0,22,22,22,1,160,115,,,,,,,,
,,6172dbbae6d358d7304e81b3,65af56b360bcc53ab4af7c3c,2024-01-23_08h10.58.770,bars,2023.2.3,Win32,60.09976561,657b66ea316d21385b68909f,,,,,,,,,,,1765.005,1766.0062,,,1766.4952,1766.7394,,17,17,,,,,,,,,,,,,,,,bars/019.png,bars/mask006.png,,,,,,,,,,,,0,1,,,,,,,0,2,0,4,,,,,,,,,,,1766.0063,1766.4946,1766.7395,1772.3193,space,5.552,,1772.3194,28,88,1773.3234,1773.3235,1773.3393,,,,0,23,23,23,1,45,105,,,,,,,,
,,6172dbbae6d358d7304e81b3,65af56b360bcc53ab4af7c3c,2024-01-23_08h10.58.770,bars,2023.2.3,Win32,60.09976561,657b66ea316d21385b68909f,,,,,,,,,,,1773.3401,1774.3396,,,1774.8423,1775.0904,,85,85,,,,,,,,,,,,,,,,bars/027.png,bars/mask005.png,,,,,,,,,,,,0,1,,,,,,,2,4,2,4,,,,,,,,,,,1774.3396,1774.8422,1775.0904,1778.1073,space,2.9861,,1778.1074,25,35,1779.1065,1779.1066,1779.1215,,,,0,24,24,24,1,110,50,,,,,,,,
,,6172dbbae6d358d7304e81b3,65af56b360bcc53ab4af7c3c,2024-01-23_08h10.58.770,bars,2023.2.3,Win32,60.09976561,657b66ea316d21385b68909f,,,,,,,,,,,1779.1218,1780.123,,,1780.6183,1780.8629,,28,28,,,,,,,,,,,,,,,,bars/026.png,bars/mask008.png,,,,,,,,,,,,0,1,,,,,,,0,6,0,4,,,,,,,,,,,1780.1231,1780.6182,1780.8629,1787.6411,space,6.7604,,1787.6413,7,57,1788.6409,1788.6409,1788.6582,,,,0,25,25,25,1,35,85,,,,,,,,
,,6172dbbae6d358d7304e81b3,65af56b360bcc53ab4af7c3c,2024-01-23_08h10.58.770,bars,2023.2.3,Win32,60.09976561,657b66ea316d21385b68909f,,,,,,,,,,,1788.6587,1789.6529,,,1790.1423,1790.3905,,146,146,,,,,,,,,,,,,,,,bars/024.png,bars/mask003.png,,,,,,,,,,,,2,2,,,,,,,0,8,1,8,,,,,,,,,,,1789.6529,1790.1423,1790.3906,1797.1669,space,6.7646,,1797.1669,26,24,1798.1577,1798.1577,1798.1748,,,,0,26,26,26,1,120,170,,,,,,,,
,,6172dbbae6d358d7304e81b3,65af56b360bcc53ab4af7c3c,2024-01-23_08h10.58.770,bars,2023.2.3,Win32,60.09976561,657b66ea316d21385b68909f,,,,,,,,,,,1798.1753,1799.1693,,,1800.7507,1800.7514,,149,149,,,,,,,,,,,,,,,,bars/044.png,bars/mask009.png,,,,,,,,,,,,6,2,,,,,,,0,6,0,8,,,,,,,,,,,1799.1694,1800.7507,1800.7515,1807.1962,space,6.4313,,1807.1964,74,6,1808.1924,1808.1925,1808.2075,,,,0,27,27,27,1,75,155,,,,,,,,
,,6172dbbae6d358d7304e81b3,65af56b360bcc53ab4af7c3c,2024-01-23_08h10.58.770,bars,2023.2.3,Win32,60.09976561,657b66ea316d21385b68909f,,,,,,,,,,,1808.2078,1809.2081,,,1809.6966,1809.9361,,140,140,,,,,,,,,,,,,,,,bars/045.png,bars/mask009.png,,,,,,,,,,,,0,1,,,,,,,2,4,1,3,,,,,,,,,,,1809.2082,1809.6965,1809.9362,1825.1767,space,15.2212,,1825.1767,40,50,1826.1732,1826.1733,1826.198,,,,0,28,28,28,1,100,10,,,,,,,,
,,6172dbbae6d358d7304e81b3,65af56b360bcc53ab4af7c3c,2024-01-23_08h10.58.770,bars,2023.2.3,Win32,60.09976561,657b66ea316d21385b68909f,,,,,,,,,,,1826.1984,1827.1928,,,1827.6932,1827.9426,,167,167,,,,,,,,,,,,,,,,bars/005.png,bars/mask009.png,,,,,,,,,,,,1,1,,,,,,,4,6,3,4,,,,,,,,,,,1827.193,1827.6931,1827.9426,1832.5549,space,4.6005,,1832.555,23,27,1833.5433,1833.5433,1833.557,,,,0,29,29,29,1,10,140,,,,,,,,
,,6172dbbae6d358d7304e81b3,65af56b360bcc53ab4af7c3c,2024-01-23_08h10.58.770,bars,2023.2.3,Win32,60.09976561,657b66ea316d21385b68909f,,,,,,,,,,,1833.5573,1834.5544,,,1835.0439,1835.3078,,5,185,,,,,,,,,,,,,,,,bars/009.png,bars/mask002.png,,,,,,,,,,,,1,1,,,,,,,2,4,1,5,,,,,,,,,,,1834.5544,1835.0439,1835.3078,1841.7728,space,6.4439,,1841.773,10,80,1842.761,1842.761,1842.7802,,,,0,30,30,30,1,15,105,,,,,,,,
,,6172dbbae6d358d7304e81b3,65af56b360bcc53ab4af7c3c,2024-01-23_08h10.58.770,bars,2023.2.3,Win32,60.09976561,657b66ea316d21385b68909f,,,,,,,,,,,1842.7805,1843.7768,,,1844.2659,1844.5119,,162,-18,,,,,,,,,,,,,,,,bars/038.png,bars/mask005.png,,,,,,,,,,,,4,1,,,,,,,4,6,4,6,,,,,,,,,,,1843.7768,1844.2659,1844.512,1850.906,space,6.3772,,1850.9062,3,88,1851.894,1851.8941,1851.9093,,,,0,31,31,31,1,165,70,,,,,,,,
,,6172dbbae6d358d7304e81b3,65af56b360bcc53ab4af7c3c,2024-01-23_08h10.58.770,bars,2023.2.3,Win32,60.09976561,657b66ea316d21385b68909f,,,,,,,,,,,1851.9096,1852.9224,,,1853.4117,1853.6608,,155,155,,,,,,,,,,,,,,,,bars/031.png,bars/mask001.png,,,,,,,,,,,,0,1,,,,,,,6,4,5,5,,,,,,,,,,,1852.9224,1853.4117,1853.6608,1855.6991,space,2.0258,,1855.6991,35,60,1856.6949,1856.695,1856.7126,,,,0,32,32,32,1,120,35,,,,,,,,
,,6172dbbae6d358d7304e81b3,65af56b360bcc53ab4af7c3c,2024-01-23_08h10.58.770,bars,2023.2.3,Win32,60.09976561,657b66ea316d21385b68909f,,,,,,,,,,,1856.7132,1857.7135,,,1858.2117,1858.453,,15,15,,,,,,,,,,,,,,,,bars/012.png,bars/mask003.png,,,,,,,,,,,,8,2,,,,,,,8,6,9,8,,,,,,,,,,,1857.7137,1858.2116,1858.4532,1865.0522,space,6.5761,,1865.0523,75,0,1866.0457,1866.0457,1866.0668,,,,0,33,33,33,1,90,15,,,,,,,,
,,6172dbbae6d358d7304e81b3,65af56b360bcc53ab4af7c3c,2024-01-23_08h10.58.770,bars,2023.2.3,Win32,60.09976561,657b66ea316d21385b68909f,,,,,,,,,,,1866.0672,1867.0625,,,1867.5732,1867.8139,,9,9,,,,,,,,,,,,,,,,bars/036.png,bars/mask009.png,,,,,,,,,,,,4,2,,,,,,,6,8,6,7,,,,,,,,,,,1867.0625,1867.5732,1867.8141,1872.4602,space,4.6195,,1872.4603,44,11,1873.457,1873.4571,1873.4765,,,,0,34,34,34,1,145,20,,,,,,,,
,,6172dbbae6d358d7304e81b3,65af56b360bcc53ab4af7c3c,2024-01-23_08h10.58.770,bars,2023.2.3,Win32,60.09976561,657b66ea316d21385b68909f,,,,,,,,,,,1873.4768,1874.4787,,,1874.9791,1875.2295,,174,-6,,,,,,,,,,,,,,,,bars/045.png,bars/mask003.png,,,,,,,,,,,,5,2,,,,,,,4,10,5,10,,,,,,,,,,,1874.4788,1874.979,1875.2295,1880.2751,space,5.0336,,1880.2752,74,16,1881.2682,1881.2682,1881.2834,,,,0,35,35,35,1,100,10,,,,,,,,
,,6172dbbae6d358d7304e81b3,65af56b360bcc53ab4af7c3c,2024-01-23_08h10.58.770,bars,2023.2.3,Win32,60.09976561,657b66ea316d21385b68909f,,,,,,,,,,,1881.2837,1882.2798,,,1882.7793,1883.0295,,161,161,,,,,,,,,,,,,,,,bars/043.png,bars/mask004.png,,,,,,,,,,,,0,2,,,,,,,6,10,6,10,,,,,,,,,,,1882.2799,1882.7792,1883.0295,1888.2874,space,5.242,,1888.2876,49,31,1889.2664,1889.2665,1889.2935,,,,0,36,36,36,1,30,130,,,,,,,,
,,6172dbbae6d358d7304e81b3,65af56b360bcc53ab4af7c3c,2024-01-23_08h10.58.770,bars,2023.2.3,Win32,60.09976561,657b66ea316d21385b68909f,,,,,,,,,,,1889.2939,1890.2912,,,1890.7922,1891.0317,,5,185,,,,,,,,,,,,,,,,bars/045.png,bars/mask009.png,,,,,,,,,,,,6,2,,,,,,,8,8,8,7,,,,,,,,,,,1890.2916,1890.7921,1891.0318,1894.3431,space,3.2799,,1894.3431,85,5,1895.3476,1895.3477,1895.376,,,,0,37,37,37,1,100,10,,,,,,,,
,,6172dbbae6d358d7304e81b3,65af56b360bcc53ab4af7c3c,2024-01-23_08h10.58.770,bars,2023.2.3,Win32,60.09976561,657b66ea316d21385b68909f,,,,,,,,,,,1895.3766,1896.3683,,,1896.8731,1897.1278,,75,255,,,,,,,,,,,,,,,,bars/029.png,bars/mask001.png,,,,,,,,,,,,5,1,,,,,,,10,10,10,10,,,,,,,,,,,1896.3687,1896.873,1897.1279,1902.5988,space,5.4528,,1902.599,15,30,1903.5979,1903.5981,1903.6228,,,,0,38,38,38,1,90,45,,,,,,,,
,,6172dbbae6d358d7304e81b3,65af56b360bcc53ab4af7c3c,2024-01-23_08h10.58.770,bars,2023.2.3,Win32,60.09976561,657b66ea316d21385b68909f,,,,,,,,,,,1903.6233,1904.6152,,,1905.1127,1905.3619,,84,84,,,,,,,,,,,,,,,,bars/038.png,bars/mask000.png,,,,,,,,,,,,5,2,,,,,,,8,10,7,10,,,,,,,,,,,1904.6153,1905.1127,1905.3619,1908.6153,space,3.2309,,1908.6154,81,14,1909.5981,1909.5982,1909.6233,,,,0,39,39,39,1,165,70,,,,,,,,
,,6172dbbae6d358d7304e81b3,65af56b360bcc53ab4af7c3c,2024-01-23_08h10.58.770,bars,2023.2.3,Win32,60.09976561,657b66ea316d21385b68909f,,,,,,,,,,,1909.6237,1910.6226,,,1911.1263,1911.3721,,87,87,,,,,,,,,,,,,,,,bars/011.png,bars/mask005.png,,,,,,,,,,,,8,2,,,,,,,6,10,8,9,,,,,,,,,,,1910.6227,1911.1262,1911.3722,1916.1502,space,4.7534,,1916.1503,73,2,1917.1406,1917.1409,1917.1684,,,,0,40,40,40,1,160,85,,,,,,,,
,,6172dbbae6d358d7304e81b3,65af56b360bcc53ab4af7c3c,2024-01-23_08h10.58.770,bars,2023.2.3,Win32,60.09976561,657b66ea316d21385b68909f,,,,,,,,,,,1917.1691,1918.1662,,,1918.6656,1918.9168,,4,184,,,,,,,,,,,,,,,,bars/014.png,bars/mask007.png,,,,,,,,,,,,9,2,,,,,,,8,10,8,10,,,,,,,,,,,1918.1663,1918.6654,1918.9169,1924.9713,space,6.0348,,1924.9715,76,4,1925.9685,1925.9687,1925.9941,,,,0,41,41,41,1,80,0,,,,,,,,
,,6172dbbae6d358d7304e81b3,65af56b360bcc53ab4af7c3c,2024-01-23_08h10.58.770,bars,2023.2.3,Win32,60.09976561,657b66ea316d21385b68909f,,,,,,,,,,,1925.9946,1926.9881,,,1927.4897,1927.7426,,43,223,,,,,,,,,,,,,,,,bars/047.png,bars/mask002.png,,,,,,,,,,,,1,2,,,,,,,6,8,4,7,,,,,,,,,,,1926.9884,1927.4888,1927.7428,1932.7276,space,4.9638,,1932.7276,28,27,1933.7278,1933.7279,1933.7484,,,,0,42,42,42,1,15,70,,,,,,,,
,,6172dbbae6d358d7304e81b3,65af56b360bcc53ab4af7c3c,2024-01-23_08h10.58.770,bars,2023.2.3,Win32,60.09976561,657b66ea316d21385b68909f,,,,,,,,,,,1933.7488,1934.7517,,,1935.2491,1935.5051,,41,221,,,,,,,,,,,,,,,,bars/019.png,bars/mask006.png,,,,,,,,,,,,9,1,,,,,,,8,6,10,7,,,,,,,,,,,1934.7517,1935.249,1935.5053,1941.4567,space,5.9366,,1941.4569,4,64,1942.4579,1942.4579,1942.4845,,,,0,43,43,43,1,45,105,,,,,,,,
,,6172dbbae6d358d7304e81b3,65af56b360bcc53ab4af7c3c,2024-01-23_08h10.58.770,bars,2023.2.3,Win32,60.09976561,657b66ea316d21385b68909f,,,,,,,,,,,1942.4849,1943.484,,,1943.9821,1944.2344,,167,-13,,,,,,,,,,,,,,,,bars/005.png,bars/mask001.png,,,,,,,,,,,,2,1,,,,,,,10,4,10,3,,,,,,,,,,,1943.4842,1943.9821,1944.2347,1948.5507,space,4.2794,,1948.5508,23,27,1949.5514,1949.5515,1949.5732,,,,0,44,44,44,1,10,140,,,,,,,,
,,6172dbbae6d358d7304e81b3,65af56b360bcc53ab4af7c3c,2024-01-23_08h10.58.770,bars,2023.2.3,Win32,60.09976561,657b66ea316d21385b68909f,,,,,,,,,,,1949.5735,1950.5679,,,1951.056,1951.3007,,167,167,,,,,,,,,,,,,,,,bars/003.png,bars/mask003.png,,,,,,,,,,,,0,2,,,,,,,10,2,10,1,,,,,,,,,,,1950.5679,1951.0559,1951.3008,1957.6717,space,6.3423,,1957.6717,38,27,1958.661,1958.661,1958.6907,,,,0,45,45,45,1,25,140,,,,,,,,
,,6172dbbae6d358d7304e81b3,65af56b360bcc53ab4af7c3c,2024-01-23_08h10.58.770,bars,2023.2.3,Win32,60.09976561,657b66ea316d21385b68909f,,,,,,,,,,,1958.6911,1959.668,,,1960.1802,1960.4196,,151,-29,,,,,,,,,,,,,,,,bars/021.png,bars/mask005.png,,,,,,,,,,,,9,1,,,,,,,8,0,10,0,,,,,,,,,,,1959.6681,1960.1802,1960.4196,1966.7519,space,6.295,,1966.752,4,81,1967.7509,1967.7509,1967.7695,,,,0,46,46,46,1,155,70,,,,,,,,
,,6172dbbae6d358d7304e81b3,65af56b360bcc53ab4af7c3c,2024-01-23_08h10.58.770,bars,2023.2.3,Win32,60.09976561,657b66ea316d21385b68909f,,,,,,,,,,,1967.7702,1968.7683,,,1969.2685,1969.5186,,143,-37,,,,,,,,,,,,,,,,bars/021.png,bars/mask005.png,,,,,,,,,,,,6,1,,,,,,,10,0,10,0,,,,,,,,,,,1968.7685,1969.2684,1969.5187,1974.9037,space,5.3571,,1974.9038,12,73,1975.9165,1975.9166,1975.9433,,,,0,47,47,47,1,155,70,,,,,,,,
,,6172dbbae6d358d7304e81b3,65af56b360bcc53ab4af7c3c,2024-01-23_08h10.58.770,bars,2023.2.3,Win32,60.09976561,657b66ea316d21385b68909f,,,,,,,,,,,1975.9438,1976.9366,,,1977.4302,1977.6685,,158,158,,,,,,,,,,,,,,,,bars/018.png,bars/mask003.png,,,,,,,,,,,,7,1,,,,,,,10,0,10,0,,,,,,,,,,,1976.9366,1977.4301,1977.6685,1983.2779,space,5.5973,,1983.278,8,68,1984.2688,1984.2688,1984.2844,,,,0,48,48,48,1,150,90,,,,,,,,
,,6172dbbae6d358d7304e81b3,65af56b360bcc53ab4af7c3c,2024-01-23_08h10.58.770,bars,2023.2.3,Win32,60.09976561,657b66ea316d21385b68909f,,,,,,,,,,,1984.2848,1985.2853,,,1985.777,1986.0092,,64,64,,,,,,,,,,,,,,,,bars/042.png,bars/mask004.png,,,,,,,,,,,,0,2,,,,,,,10,0,10,0,,,,,,,,,,,1985.2854,1985.7769,1986.0093,1991.4966,space,5.4682,,1991.4968,81,11,1992.4861,1992.4862,1992.5057,,,,0,49,49,49,1,145,75,,,,,,,,
,,6172dbbae6d358d7304e81b3,65af56b360bcc53ab4af7c3c,2024-01-23_08h10.58.770,bars,2023.2.3,Win32,60.09976561,657b66ea316d21385b68909f,,,,,,,,,,,,,,,,,,,,,,,,,,,,,,,,,,,,,,,,,,,,,,,,,,,,,,,,,,,,,,,,,,,,,,,,,,,,,,,,,,,,,,,,,,,,,1992.506,2052.4962,0,1,1,1,1,sequence_tables/blk018.csv
,,6172dbbae6d358d7304e81b3,65af56b360bcc53ab4af7c3c,2024-01-23_08h10.58.770,bars,2023.2.3,Win32,60.09976561,657b66ea316d21385b68909f,,,,,,,,,,,2065.1616,2066.1425,,,2066.6371,2066.8772,,68,68,,,,,,,,,,,,,,,,bars/018.png,bars/mask001.png,,,,,,,,,,,,2,2,,,,,,,7,5,7,6,,,,,,2052.5278,2065.1372,space,12.5845,,2066.1427,2066.637,2066.8773,2072.9787,space,6.0835,,2072.979,82,22,2073.985,2073.985,2073.9997,,,,0,0,0,0,1,150,90,,,,,,,,
,,6172dbbae6d358d7304e81b3,65af56b360bcc53ab4af7c3c,2024-01-23_08h10.58.770,bars,2023.2.3,Win32,60.09976561,657b66ea316d21385b68909f,,,,,,,,,,,2074,2074.9782,,,2075.4746,2075.724,,39,39,,,,,,,,,,,,,,,,bars/010.png,bars/mask009.png,,,,,,,,,,,,3,2,,,,,,,5,7,5,7,,,,,,,,,,,2074.9785,2075.4745,2075.7241,2080.5082,space,4.7706,,2080.5085,54,16,2081.5027,2081.503,2081.5274,,,,0,1,1,1,1,165,55,,,,,,,,
,,6172dbbae6d358d7304e81b3,65af56b360bcc53ab4af7c3c,2024-01-23_08h10.58.770,bars,2023.2.3,Win32,60.09976561,657b66ea316d21385b68909f,,,,,,,,,,,2081.5279,2082.5253,,,2083.0253,2083.2749,,39,39,,,,,,,,,,,,,,,,bars/034.png,bars/mask002.png,,,,,,,,,,,,1,2,,,,,,,3,5,4,4,,,,,,,,,,,2082.5254,2083.0253,2083.2751,2089.3091,space,6.0168,,2089.3092,86,26,2090.3092,2090.3094,2090.3329,,,,0,2,2,2,1,125,65,,,,,,,,
,,6172dbbae6d358d7304e81b3,65af56b360bcc53ab4af7c3c,2024-01-23_08h10.58.770,bars,2023.2.3,Win32,60.09976561,657b66ea316d21385b68909f,,,,,,,,,,,2090.3333,2091.3252,,,2091.8131,2092.0588,,135,135,,,,,,,,,,,,,,,,bars/040.png,bars/mask003.png,,,,,,,,,,,,2,1,,,,,,,1,3,2,3,,,,,,,,,,,2091.3252,2091.8131,2092.0589,2098.7498,space,6.6773,,2098.7499,5,50,2099.7424,2099.7426,2099.765,,,,0,3,3,3,1,140,5,,,,,,,,
,,6172dbbae6d358d7304e81b3,65af56b360bcc53ab4af7c3c,2024-01-23_08h10.58.770,bars,2023.2.3,Win32,60.09976561,657b66ea316d21385b68909f,,,,,,,,,,,2099.7654,2100.7599,,,2101.2585,2101.5089,,87,87,,,,,,,,,,,,,,,,bars/029.png,bars/mask002.png,,,,,,,,,,,,2,1,,,,,,,3,5,2,6,,,,,,,,,,,2100.76,2101.2583,2101.509,2106.6435,space,5.1196,,2106.6435,3,42,2107.6431,2107.6432,2107.6585,,,,0,4,4,4,1,90,45,,,,,,,,
,,6172dbbae6d358d7304e81b3,65af56b360bcc53ab4af7c3c,2024-01-23_08h10.58.770,bars,2023.2.3,Win32,60.09976561,657b66ea316d21385b68909f,,,,,,,,,,,2107.6588,2108.6594,,,2109.1547,2109.3956,,141,141,,,,,,,,,,,,,,,,bars/030.png,bars/mask005.png,,,,,,,,,,,,3,1,,,,,,,1,3,3,2,,,,,,,,,,,2108.6594,2109.1546,2109.3957,2113.1442,space,3.7333,,2113.1442,1,76,2114.1435,2114.1435,2114.1582,,,,0,5,5,5,1,140,65,,,,,,,,
,,6172dbbae6d358d7304e81b3,65af56b360bcc53ab4af7c3c,2024-01-23_08h10.58.770,bars,2023.2.3,Win32,60.09976561,657b66ea316d21385b68909f,,,,,,,,,,,2114.1585,2115.1545,,,2115.6435,2115.8815,,179,179,,,,,,,,,,,,,,,,bars/010.png,bars/mask008.png,,,,,,,,,,,,1,1,,,,,,,3,1,2,1,,,,,,,,,,,2115.1545,2115.6434,2115.8815,2120.3572,space,4.4603,,2120.3572,14,56,2121.36,2121.36,2121.3749,,,,0,6,6,6,1,165,55,,,,,,,,
,,6172dbbae6d358d7304e81b3,65af56b360bcc53ab4af7c3c,2024-01-23_08h10.58.770,bars,2023.2.3,Win32,60.09976561,657b66ea316d21385b68909f,,,,,,,,,,,2121.3752,2122.3791,,,2122.8787,2123.1214,,88,88,,,,,,,,,,,,,,,,bars/022.png,bars/mask007.png,,,,,,,,,,,,5,1,,,,,,,5,0,6,0,,,,,,,,,,,2122.3793,2122.8786,2123.1215,2126.4604,space,3.315,,2126.4606,7,68,2127.4496,2127.4496,2127.4654,,,,0,7,7,7,1,95,20,,,,,,,,
,,6172dbbae6d358d7304e81b3,65af56b360bcc53ab4af7c3c,2024-01-23_08h10.58.770,bars,2023.2.3,Win32,60.09976561,657b66ea316d21385b68909f,,,,,,,,,,,2127.4658,2128.461,,,2128.9617,2129.211,,175,175,,,,,,,,,,,,,,,,bars/035.png,bars/mask001.png,,,,,,,,,,,,7,1,,,,,,,7,0,7,0,,,,,,,,,,,2128.4611,2128.9617,2129.211,2133.0187,space,3.792,,2133.0188,0,65,2134.0114,2134.0115,2134.0365,,,,0,8,8,8,1,175,60,,,,,,,,
,,6172dbbae6d358d7304e81b3,65af56b360bcc53ab4af7c3c,2024-01-23_08h10.58.770,bars,2023.2.3,Win32,60.09976561,657b66ea316d21385b68909f,,,,,,,,,,,2134.0371,2135.0294,,,2135.5299,2135.7796,,18,198,,,,,,,,,,,,,,,,bars/005.png,bars/mask004.png,,,,,,,,,,,,7,1,,,,,,,9,0,9,1,,,,,,,,,,,2135.0296,2135.5299,2135.7798,2139.1987,space,3.3919,,2139.1988,8,58,2140.2057,2140.2057,2140.2216,,,,0,9,9,9,1,10,140,,,,,,,,
,,6172dbbae6d358d7304e81b3,65af56b360bcc53ab4af7c3c,2024-01-23_08h10.58.770,bars,2023.2.3,Win32,60.09976561,657b66ea316d21385b68909f,,,,,,,,,,,2140.2219,2141.2137,,,2141.7126,2141.962,,86,-94,,,,,,,,,,,,,,,,bars/002.png,bars/mask001.png,,,,,,,,,,,,1,2,,,,,,,10,2,9,1,,,,,,,,,,,2141.214,2141.7126,2141.9621,2149.0232,space,7.0342,,2149.0232,44,1,2150.0126,2150.0127,2150.0316,,,,0,10,10,10,1,130,85,,,,,,,,
,,6172dbbae6d358d7304e81b3,65af56b360bcc53ab4af7c3c,2024-01-23_08h10.58.770,bars,2023.2.3,Win32,60.09976561,657b66ea316d21385b68909f,,,,,,,,,,,2150.0319,2151.0293,,,2151.5351,2151.7814,,23,23,,,,,,,,,,,,,,,,bars/047.png,bars/mask002.png,,,,,,,,,,,,6,1,,,,,,,8,4,8,4,,,,,,,,,,,2151.0293,2151.5348,2151.7814,2153.5621,space,1.7514,,2153.5622,8,47,2154.5621,2154.5622,2154.5779,,,,0,11,11,11,1,15,70,,,,,,,,
,,6172dbbae6d358d7304e81b3,65af56b360bcc53ab4af7c3c,2024-01-23_08h10.58.770,bars,2023.2.3,Win32,60.09976561,657b66ea316d21385b68909f,,,,,,,,,,,2154.5784,2155.5875,,,2156.0787,2156.3184,,22,22,,,,,,,,,,,,,,,,bars/003.png,bars/mask006.png,,,,,,,,,,,,5,1,,,,,,,6,6,6,7,,,,,,,,,,,2155.5875,2156.0787,2156.3185,2158.2959,space,1.9642,,2158.296,3,62,2159.2963,2159.2964,2159.2983,,,,0,12,12,12,1,25,140,,,,,,,,
,,6172dbbae6d358d7304e81b3,65af56b360bcc53ab4af7c3c,2024-01-23_08h10.58.770,bars,2023.2.3,Win32,60.09976561,657b66ea316d21385b68909f,,,,,,,,,,,2159.2988,2160.2918,,,2160.7854,2161.0243,,3,183,,,,,,,,,,,,,,,,bars/007.png,bars/mask005.png,,,,,,,,,,,,6,1,,,,,,,8,8,8,9,,,,,,,,,,,2160.2918,2160.7853,2161.0243,2164.0879,space,3.046,,2164.0881,8,52,2165.0801,2165.0803,2165.0947,,,,0,13,13,13,1,175,55,,,,,,,,
,,6172dbbae6d358d7304e81b3,65af56b360bcc53ab4af7c3c,2024-01-23_08h10.58.770,bars,2023.2.3,Win32,60.09976561,657b66ea316d21385b68909f,,,,,,,,,,,2165.095,2166.0862,,,2166.5796,2166.8232,,86,86,,,,,,,,,,,,,,,,bars/045.png,bars/mask005.png,,,,,,,,,,,,5,1,,,,,,,10,6,9,6,,,,,,,,,,,2166.0863,2166.5794,2166.8234,2173.0374,space,6.1963,,2173.0377,14,76,2174.0194,2174.0196,2174.0495,,,,0,14,14,14,1,100,10,,,,,,,,
,,6172dbbae6d358d7304e81b3,65af56b360bcc53ab4af7c3c,2024-01-23_08h10.58.770,bars,2023.2.3,Win32,60.09976561,657b66ea316d21385b68909f,,,,,,,,,,,2174.05,2175.0477,,,2175.3974,2175.3992,,83,-97,,,,,,,,,,,,,,,,bars/027.png,bars/mask002.png,,,,,,,,,,,,1,1,,,,,,,10,4,10,3,,,,,,,,,,,2175.0479,2175.3973,2175.3993,2183.6986,space,8.2711,,2183.6987,27,33,2184.6986,2184.6987,2184.7148,,,,0,15,15,15,1,110,50,,,,,,,,
,,6172dbbae6d358d7304e81b3,65af56b360bcc53ab4af7c3c,2024-01-23_08h10.58.770,bars,2023.2.3,Win32,60.09976561,657b66ea316d21385b68909f,,,,,,,,,,,2184.7154,2185.7088,,,2186.2097,2186.4474,,50,230,,,,,,,,,,,,,,,,bars/047.png,bars/mask000.png,,,,,,,,,,,,2,2,,,,,,,10,6,10,5,,,,,,,,,,,2185.7089,2186.2096,2186.4474,2193.7433,space,7.2842,,2193.7434,35,20,2194.7371,2194.7373,2194.754,,,,0,16,16,16,1,15,70,,,,,,,,
,,6172dbbae6d358d7304e81b3,65af56b360bcc53ab4af7c3c,2024-01-23_08h10.58.770,bars,2023.2.3,Win32,60.09976561,657b66ea316d21385b68909f,,,,,,,,,,,2194.7543,2195.7434,,,2196.2322,2196.4857,,16,16,,,,,,,,,,,,,,,,bars/010.png,bars/mask002.png,,,,,,,,,,,,0,1,,,,,,,10,4,10,5,,,,,,,,,,,2195.7436,2196.2321,2196.4858,2201.5157,space,4.996,,2201.5158,31,39,2202.5073,2202.5074,2202.5508,,,,0,17,17,17,1,165,55,,,,,,,,
,,6172dbbae6d358d7304e81b3,65af56b360bcc53ab4af7c3c,2024-01-23_08h10.58.770,bars,2023.2.3,Win32,60.09976561,657b66ea316d21385b68909f,,,,,,,,,,,2202.5514,2203.5451,,,2204.0484,2204.2744,,16,16,,,,,,,,,,,,,,,,bars/013.png,bars/mask004.png,,,,,,,,,,,,6,2,,,,,,,10,6,10,7,,,,,,,,,,,2203.5452,2204.0484,2204.2745,2213.0954,space,8.8014,,2213.0954,59,6,2214.0875,2214.0877,2214.1203,,,,0,18,18,18,1,75,10,,,,,,,,
,,6172dbbae6d358d7304e81b3,65af56b360bcc53ab4af7c3c,2024-01-23_08h10.58.770,bars,2023.2.3,Win32,60.09976561,657b66ea316d21385b68909f,,,,,,,,,,,2214.1208,2215.1159,,,2215.6173,2215.8656,,166,166,,,,,,,,,,,,,,,,bars/005.png,bars/mask000.png,,,,,,,,,,,,2,1,,,,,,,10,8,10,9,,,,,,,,,,,2215.116,2215.6173,2215.8657,2221.8166,space,5.9344,,2221.8166,24,26,2222.8214,2222.8217,2222.8484,,,,0,19,19,19,1,10,140,,,,,,,,
,,6172dbbae6d358d7304e81b3,65af56b360bcc53ab4af7c3c,2024-01-23_08h10.58.770,bars,2023.2.3,Win32,60.09976561,657b66ea316d21385b68909f,,,,,,,,,,,2222.8487,2223.8495,,,2224.186,2224.4329,,177,177,,,,,,,,,,,,,,,,bars/006.png,bars/mask004.png,,,,,,,,,,,,0,1,,,,,,,8,10,6,9,,,,,,,,,,,2223.8496,2224.1859,2224.433,2227.9343,space,3.4836,,2227.9347,38,77,2228.934,2228.9341,2228.9534,,,,0,20,20,20,1,35,100,,,,,,,,
,,6172dbbae6d358d7304e81b3,65af56b360bcc53ab4af7c3c,2024-01-23_08h10.58.770,bars,2023.2.3,Win32,60.09976561,657b66ea316d21385b68909f,,,,,,,,,,,2228.9538,2229.95,,,2230.4508,2230.6942,,90,90,,,,,,,,,,,,,,,,bars/006.png,bars/mask003.png,,,,,,,,,,,,6,2,,,,,,,6,10,6,9,,,,,,,,,,,2229.95,2230.4507,2230.6942,2234.9371,space,4.2224,,2234.9372,55,10,2235.9206,2235.9207,2235.945,,,,0,21,21,21,1,35,100,,,,,,,,
,,6172dbbae6d358d7304e81b3,65af56b360bcc53ab4af7c3c,2024-01-23_08h10.58.770,bars,2023.2.3,Win32,60.09976561,657b66ea316d21385b68909f,,,,,,,,,,,2235.9454,2236.9338,,,2237.4346,2237.6836,,162,162,,,,,,,,,,,,,,,,bars/038.png,bars/mask005.png,,,,,,,,,,,,3,1,,,,,,,4,8,3,9,,,,,,,,,,,2236.9338,2237.4345,2237.6836,2241.7777,space,4.0804,,2241.7779,3,88,2242.7692,2242.7693,2242.7868,,,,0,22,22,22,1,165,70,,,,,,,,
,,6172dbbae6d358d7304e81b3,65af56b360bcc53ab4af7c3c,2024-01-23_08h10.58.770,bars,2023.2.3,Win32,60.09976561,657b66ea316d21385b68909f,,,,,,,,,,,2242.7874,2243.785,,,2244.285,2244.5348,,91,91,,,,,,,,,,,,,,,,bars/029.png,bars/mask000.png,,,,,,,,,,,,5,1,,,,,,,6,10,5,10,,,,,,,,,,,2243.7851,2244.2849,2244.5348,2253.9035,space,9.3373,,2253.9036,1,46,2254.9126,2254.9126,2254.928,,,,0,23,23,23,1,90,45,,,,,,,,
,,6172dbbae6d358d7304e81b3,65af56b360bcc53ab4af7c3c,2024-01-23_08h10.58.770,bars,2023.2.3,Win32,60.09976561,657b66ea316d21385b68909f,,,,,,,,,,,2254.9284,2255.9216,,,2256.4131,2256.6633,,39,219,,,,,,,,,,,,,,,,bars/012.png,bars/mask009.png,,,,,,,,,,,,2,2,,,,,,,8,10,8,10,,,,,,,,,,,2255.9218,2256.413,2256.6633,2261.5142,space,4.8347,,2261.5142,51,24,2262.5108,2262.5109,2262.5296,,,,0,24,24,24,1,90,15,,,,,,,,
,,6172dbbae6d358d7304e81b3,65af56b360bcc53ab4af7c3c,2024-01-23_08h10.58.770,bars,2023.2.3,Win32,60.09976561,657b66ea316d21385b68909f,,,,,,,,,,,2262.53,2263.5297,,,2264.019,2264.2618,,94,94,,,,,,,,,,,,,,,,bars/018.png,bars/mask009.png,,,,,,,,,,,,6,2,,,,,,,6,8,7,7,,,,,,,,,,,2263.5297,2264.0189,2264.2618,2271.311,space,7.0368,,2271.3111,56,4,2272.3024,2272.3024,2272.3173,,,,0,25,25,25,1,150,90,,,,,,,,
,,6172dbbae6d358d7304e81b3,65af56b360bcc53ab4af7c3c,2024-01-23_08h10.58.770,bars,2023.2.3,Win32,60.09976561,657b66ea316d21385b68909f,,,,,,,,,,,2272.3175,2273.3191,,,2273.8193,2274.0659,,165,-15,,,,,,,,,,,,,,,,bars/013.png,bars/mask007.png,,,,,,,,,,,,1,2,,,,,,,4,6,4,6,,,,,,,,,,,2273.3192,2273.8193,2274.0661,2280.3044,space,6.2016,,2280.3046,90,25,2281.3032,2281.3033,2281.3179,,,,0,26,26,26,1,75,10,,,,,,,,
,,6172dbbae6d358d7304e81b3,65af56b360bcc53ab4af7c3c,2024-01-23_08h10.58.770,bars,2023.2.3,Win32,60.09976561,657b66ea316d21385b68909f,,,,,,,,,,,2281.3181,2282.3202,,,2282.8206,2283.0703,,13,193,,,,,,,,,,,,,,,,bars/008.png,bars/mask000.png,,,,,,,,,,,,4,2,,,,,,,2,8,3,7,,,,,,,,,,,2282.3202,2282.8205,2283.0705,2288.3379,space,5.2512,,2288.338,83,13,2289.3374,2289.3374,2289.3516,,,,0,27,27,27,1,110,0,,,,,,,,
,,6172dbbae6d358d7304e81b3,65af56b360bcc53ab4af7c3c,2024-01-23_08h10.58.770,bars,2023.2.3,Win32,60.09976561,657b66ea316d21385b68909f,,,,,,,,,,,2289.3519,2290.3546,,,2290.8497,2291.0876,,94,94,,,,,,,,,,,,,,,,bars/034.png,bars/mask002.png,,,,,,,,,,,,0,2,,,,,,,0,10,0,10,,,,,,,,,,,2290.3546,2290.8497,2291.0877,2296.5548,space,5.4352,,2296.5549,31,29,2297.5547,2297.5547,2297.5693,,,,0,28,28,28,1,125,65,,,,,,,,
,,6172dbbae6d358d7304e81b3,65af56b360bcc53ab4af7c3c,2024-01-23_08h10.58.770,bars,2023.2.3,Win32,60.09976561,657b66ea316d21385b68909f,,,,,,,,,,,2297.5696,2298.5705,,,2299.0716,2299.3258,,6,6,,,,,,,,,,,,,,,,bars/036.png,bars/mask009.png,,,,,,,,,,,,5,2,,,,,,,0,8,1,9,,,,,,,,,,,2298.5705,2299.0715,2299.3259,2306.3027,space,6.9589,,2306.3028,41,14,2307.3131,2307.3131,2307.3287,,,,0,29,29,29,1,145,20,,,,,,,,
,,6172dbbae6d358d7304e81b3,65af56b360bcc53ab4af7c3c,2024-01-23_08h10.58.770,bars,2023.2.3,Win32,60.09976561,657b66ea316d21385b68909f,,,,,,,,,,,2307.329,2308.3238,,,2308.8215,2309.0669,,26,26,,,,,,,,,,,,,,,,bars/017.png,bars/mask001.png,,,,,,,,,,,,2,2,,,,,,,0,6,0,5,,,,,,,,,,,2308.3239,2308.8214,2309.0669,2314.3958,space,5.3121,,2314.3959,61,19,2315.3875,2315.3879,2315.4141,,,,0,30,30,30,1,145,45,,,,,,,,
,,6172dbbae6d358d7304e81b3,65af56b360bcc53ab4af7c3c,2024-01-23_08h10.58.770,bars,2023.2.3,Win32,60.09976561,657b66ea316d21385b68909f,,,,,,,,,,,2315.4149,2316.404,,,2316.8927,2317.1392,,127,-53,,,,,,,,,,,,,,,,bars/049.png,bars/mask006.png,,,,,,,,,,,,5,2,,,,,,,2,8,3,9,,,,,,,,,,,2316.4041,2316.8925,2317.1393,2323.8577,space,6.6899,,2323.8578,33,12,2324.8554,2324.8554,2324.8708,,,,0,31,31,31,1,160,115,,,,,,,,
,,6172dbbae6d358d7304e81b3,65af56b360bcc53ab4af7c3c,2024-01-23_08h10.58.770,bars,2023.2.3,Win32,60.09976561,657b66ea316d21385b68909f,,,,,,,,,,,2324.8711,2325.867,,,2326.3557,2326.6076,,22,22,,,,,,,,,,,,,,,,bars/045.png,bars/mask009.png,,,,,,,,,,,,5,2,,,,,,,0,10,0,9,,,,,,,,,,,2325.867,2326.3557,2326.6079,2330.4745,space,3.8378,,2330.4745,78,12,2331.4731,2331.4732,2331.4877,,,,0,32,32,32,1,100,10,,,,,,,,
,,6172dbbae6d358d7304e81b3,65af56b360bcc53ab4af7c3c,2024-01-23_08h10.58.770,bars,2023.2.3,Win32,60.09976561,657b66ea316d21385b68909f,,,,,,,,,,,2331.488,2332.4913,,,2332.9894,2333.2402,,25,205,,,,,,,,,,,,,,,,bars/014.png,bars/mask007.png,,,,,,,,,,,,2,2,,,,,,,2,10,3,10,,,,,,,,,,,2332.4915,2332.9893,2333.2403,2339.0901,space,5.8186,,2339.0901,55,25,2340.09,2340.0901,2340.1048,,,,0,33,33,33,1,80,0,,,,,,,,
,,6172dbbae6d358d7304e81b3,65af56b360bcc53ab4af7c3c,2024-01-23_08h10.58.770,bars,2023.2.3,Win32,60.09976561,657b66ea316d21385b68909f,,,,,,,,,,,2340.105,2341.107,,,2341.6041,2341.857,,9,189,,,,,,,,,,,,,,,,bars/047.png,bars/mask009.png,,,,,,,,,,,,0,1,,,,,,,0,10,0,10,,,,,,,,,,,2341.1071,2341.6039,2341.8571,2347.7753,space,5.8927,,2347.7753,6,61,2348.7772,2348.7774,2348.8024,,,,0,34,34,34,1,15,70,,,,,,,,
,,6172dbbae6d358d7304e81b3,65af56b360bcc53ab4af7c3c,2024-01-23_08h10.58.770,bars,2023.2.3,Win32,60.09976561,657b66ea316d21385b68909f,,,,,,,,,,,2348.8029,2349.7921,,,2350.2806,2350.5247,,1,181,,,,,,,,,,,,,,,,bars/000.png,bars/mask004.png,,,,,,,,,,,,0,2,,,,,,,2,10,2,10,,,,,,,,,,,2349.7923,2350.2805,2350.5248,2355.2911,space,4.7357,,2355.2912,39,36,2356.302,2356.302,2356.3239,,,,0,35,35,35,1,40,145,,,,,,,,
,,6172dbbae6d358d7304e81b3,65af56b360bcc53ab4af7c3c,2024-01-23_08h10.58.770,bars,2023.2.3,Win32,60.09976561,657b66ea316d21385b68909f,,,,,,,,,,,2356.3244,2357.3329,,,2357.8297,2358.074,,1,1,,,,,,,,,,,,,,,,bars/022.png,bars/mask008.png,,,,,,,,,,,,4,2,,,,,,,0,10,0,10,,,,,,,,,,,2357.3329,2357.8296,2358.074,2361.0009,space,2.9128,,2361.001,86,19,2361.991,2361.991,2362.0055,,,,0,36,36,36,1,95,20,,,,,,,,
,,6172dbbae6d358d7304e81b3,65af56b360bcc53ab4af7c3c,2024-01-23_08h10.58.770,bars,2023.2.3,Win32,60.09976561,657b66ea316d21385b68909f,,,,,,,,,,,2362.0057,2363.0082,,,2363.5087,2363.7489,,3,3,,,,,,,,,,,,,,,,bars/036.png,bars/mask001.png,,,,,,,,,,,,4,2,,,,,,,0,10,1,10,,,,,,,,,,,2363.0082,2363.5086,2363.749,2366.7933,space,3.0158,,2366.7936,38,17,2367.7827,2367.7828,2367.8021,,,,0,37,37,37,1,145,20,,,,,,,,
,,6172dbbae6d358d7304e81b3,65af56b360bcc53ab4af7c3c,2024-01-23_08h10.58.770,bars,2023.2.3,Win32,60.09976561,657b66ea316d21385b68909f,,,,,,,,,,,2367.8023,2368.7941,,,2369.2945,2369.5469,,164,-16,,,,,,,,,,,,,,,,bars/003.png,bars/mask000.png,,,,,,,,,,,,2,2,,,,,,,2,8,1,9,,,,,,,,,,,2368.7943,2369.2942,2369.5469,2372.7765,space,3.2134,,2372.7767,41,24,2373.7776,2373.7776,2373.8173,,,,0,38,38,38,1,25,140,,,,,,,,
,,6172dbbae6d358d7304e81b3,65af56b360bcc53ab4af7c3c,2024-01-23_08h10.58.770,bars,2023.2.3,Win32,60.09976561,657b66ea316d21385b68909f,,,,,,,,,,,2373.8176,2374.8085,,,2375.3085,2375.5585,,13,193,,,,,,,,,,,,,,,,bars/030.png,bars/mask006.png,,,,,,,,,,,,0,2,,,,,,,4,10,4,10,,,,,,,,,,,2374.8086,2375.3085,2375.5586,2381.1897,space,5.6182,,2381.1898,53,52,2382.1834,2382.1835,2382.2108,,,,0,39,39,39,1,140,65,,,,,,,,
,,6172dbbae6d358d7304e81b3,65af56b360bcc53ab4af7c3c,2024-01-23_08h10.58.770,bars,2023.2.3,Win32,60.09976561,657b66ea316d21385b68909f,,,,,,,,,,,2382.2114,2383.2092,,,2383.7049,2383.9573,,155,-25,,,,,,,,,,,,,,,,bars/042.png,bars/mask008.png,,,,,,,,,,,,4,1,,,,,,,6,10,6,10,,,,,,,,,,,2383.2092,2383.7043,2383.9575,2389.7098,space,5.734,,2389.71,10,80,2390.7095,2390.7096,2390.7271,,,,0,40,40,40,1,145,75,,,,,,,,
,,6172dbbae6d358d7304e81b3,65af56b360bcc53ab4af7c3c,2024-01-23_08h10.58.770,bars,2023.2.3,Win32,60.09976561,657b66ea316d21385b68909f,,,,,,,,,,,2390.7279,2391.7166,,,2392.2103,2392.4593,,64,64,,,,,,,,,,,,,,,,bars/019.png,bars/mask004.png,,,,,,,,,,,,3,1,,,,,,,8,10,9,10,,,,,,,,,,,2391.7167,2392.2103,2392.4593,2398.1649,space,5.6923,,2398.165,19,41,2399.1607,2399.1607,2399.1752,,,,0,41,41,41,1,45,105,,,,,,,,
,,6172dbbae6d358d7304e81b3,65af56b360bcc53ab4af7c3c,2024-01-23_08h10.58.770,bars,2023.2.3,Win32,60.09976561,657b66ea316d21385b68909f,,,,,,,,,,,2399.1754,2400.1768,,,2400.6713,2400.9109,,53,233,,,,,,,,,,,,,,,,bars/031.png,bars/mask008.png,,,,,,,,,,,,4,2,,,,,,,6,10,4,10,,,,,,,,,,,2400.1769,2400.6713,2400.9109,2407.1136,space,6.1742,,2407.1137,67,18,2408.1225,2408.1225,2408.142,,,,0,42,42,42,1,120,35,,,,,,,,
,,6172dbbae6d358d7304e81b3,65af56b360bcc53ab4af7c3c,2024-01-23_08h10.58.770,bars,2023.2.3,Win32,60.09976561,657b66ea316d21385b68909f,,,,,,,,,,,2408.1423,2409.1388,,,2409.6273,2409.8779,,51,51,,,,,,,,,,,,,,,,bars/028.png,bars/mask004.png,,,,,,,,,,,,5,1,,,,,,,8,8,6,8,,,,,,,,,,,2409.1389,2409.6273,2409.8779,2412.3578,space,2.4504,,2412.3581,6,69,2413.3486,2413.3487,2413.3535,,,,0,43,43,43,1,45,120,,,,,,,,
,,6172dbbae6d358d7304e81b3,65af56b360bcc53ab4af7c3c,2024-01-23_08h10.58.770,bars,2023.2.3,Win32,60.09976561,657b66ea316d21385b68909f,,,,,,,,,,,2413.3543,2414.3452,,,2414.8442,2415.0831,,65,65,,,,,,,,,,,,,,,,bars/044.png,bars/mask006.png,,,,,,,,,,,,3,1,,,,,,,6,10,5,9,,,,,,,,,,,2414.3453,2414.8442,2415.0832,2418.9624,space,3.8622,,2418.9625,10,90,2419.9611,2419.9611,2419.976,,,,0,44,44,44,1,75,155,,,,,,,,
,,6172dbbae6d358d7304e81b3,65af56b360bcc53ab4af7c3c,2024-01-23_08h10.58.770,bars,2023.2.3,Win32,60.09976561,657b66ea316d21385b68909f,,,,,,,,,,,2419.9763,2420.9721,,,2421.4614,2421.7117,,56,56,,,,,,,,,,,,,,,,bars/014.png,bars/mask007.png,,,,,,,,,,,,1,1,,,,,,,4,8,3,8,,,,,,,,,,,2420.9721,2421.4614,2421.7117,2425.8968,space,4.1711,,2425.8969,24,56,2426.8948,2426.8949,2426.9097,,,,0,45,45,45,1,80,0,,,,,,,,
,,6172dbbae6d358d7304e81b3,65af56b360bcc53ab4af7c3c,2024-01-23_08h10.58.770,bars,2023.2.3,Win32,60.09976561,657b66ea316d21385b68909f,,,,,,,,,,,2426.9099,2427.9118,,,2429.3864,2429.3873,,166,-14,,,,,,,,,,,,,,,,bars/048.png,bars/mask005.png,,,,,,,,,,,,5,2,,,,,,,2,6,3,7,,,,,,,,,,,2427.9118,2429.3864,2429.3873,2434.6739,space,5.2737,,2434.6739,64,9,2435.6662,2435.6663,2435.69,,,,0,46,46,46,1,50,175,,,,,,,,
,,6172dbbae6d358d7304e81b3,65af56b360bcc53ab4af7c3c,2024-01-23_08h10.58.770,bars,2023.2.3,Win32,60.09976561,657b66ea316d21385b68909f,,,,,,,,,,,2435.6904,2436.6789,,,2437.173,2437.4195,,1,181,,,,,,,,,,,,,,,,bars/039.png,bars/mask003.png,,,,,,,,,,,,3,1,,,,,,,4,4,4,4,,,,,,,,,,,2436.6789,2437.173,2437.4196,2440.7799,space,3.3364,,2440.7799,6,76,2441.78,2441.7801,2441.7963,,,,0,47,47,47,1,175,105,,,,,,,,
,,6172dbbae6d358d7304e81b3,65af56b360bcc53ab4af7c3c,2024-01-23_08h10.58.770,bars,2023.2.3,Win32,60.09976561,657b66ea316d21385b68909f,,,,,,,,,,,2441.7968,2442.7975,,,2443.5548,2443.5557,,5,185,,,,,,,,,,,,,,,,bars/023.png,bars/mask005.png,,,,,,,,,,,,2,1,,,,,,,2,2,3,3,,,,,,,,,,,2442.7977,2443.5548,2443.5557,2448.5635,space,4.9935,,2448.5635,15,70,2449.5649,2449.565,2449.5799,,,,0,48,48,48,1,20,115,,,,,,,,
,,6172dbbae6d358d7304e81b3,65af56b360bcc53ab4af7c3c,2024-01-23_08h10.58.770,bars,2023.2.3,Win32,60.09976561,657b66ea316d21385b68909f,,,,,,,,,,,2449.5804,2450.5805,,,2451.0799,2451.3297,,7,187,,,,,,,,,,,,,,,,bars/012.png,bars/mask003.png,,,,,,,,,,,,0,2,,,,,,,4,0,3,0,,,,,,,,,,,2450.5805,2451.0798,2451.3297,2456.9647,space,5.6183,,2456.965,83,8,2457.9647,2457.9648,2457.9851,,,,0,49,49,49,1,90,15,,,,,,,,
,,6172dbbae6d358d7304e81b3,65af56b360bcc53ab4af7c3c,2024-01-23_08h10.58.770,bars,2023.2.3,Win32,60.09976561,657b66ea316d21385b68909f,,,,,,,,,,,,,,,,,,,,,,,,,,,,,,,,,,,,,,,,,,,,,,,,,,,,,,,,,,,,,,,,,,,,,,,,,,,,,,,,,,,,,,,,,,,,,2457.9853,2518.1695,0,2,2,2,1,sequence_tables/blk007.csv
,,6172dbbae6d358d7304e81b3,65af56b360bcc53ab4af7c3c,2024-01-23_08h10.58.770,bars,2023.2.3,Win32,60.09976561,657b66ea316d21385b68909f,,,,,,,,,,,2531.003,2531.9863,,,2532.4851,2532.7477,,8,8,,,,,,,,,,,,,,,,bars/048.png,bars/mask008.png,,,,,,,,,,,,4,2,,,,,,,5,9,5,7,,,,,,2518.1877,2530.9801,space,12.7806,,2531.9864,2532.485,2532.7477,2536.6409,space,3.8758,,2536.6411,42,13,2537.6386,2537.6388,2537.6638,,,,0,0,0,0,1,50,175,,,,,,,,
,,6172dbbae6d358d7304e81b3,65af56b360bcc53ab4af7c3c,2024-01-23_08h10.58.770,bars,2023.2.3,Win32,60.09976561,657b66ea316d21385b68909f,,,,,,,,,,,2537.6643,2538.6698,,,2539.1696,2539.4079,,60,60,,,,,,,,,,,,,,,,bars/035.png,bars/mask003.png,,,,,,,,,,,,5,2,,,,,,,7,7,10,5,,,,,,,,,,,2538.6699,2539.1695,2539.408,2541.0303,space,1.6055,,2541.0304,65,0,2542.0261,2542.0262,2542.0307,,,,0,1,1,1,1,175,60,,,,,,,,
,,6172dbbae6d358d7304e81b3,65af56b360bcc53ab4af7c3c,2024-01-23_08h10.58.770,bars,2023.2.3,Win32,60.09976561,657b66ea316d21385b68909f,,,,,,,,,,,2542.0325,2543.035,,,2543.5242,2543.7631,,91,91,,,,,,,,,,,,,,,,bars/018.png,bars/mask001.png,,,,,,,,,,,,3,2,,,,,,,5,5,6,3,,,,,,,,,,,2543.035,2543.5241,2543.7632,2549.4198,space,5.6364,,2549.4199,59,1,2550.4189,2550.4189,2550.4335,,,,0,2,2,2,1,150,90,,,,,,,,
,,6172dbbae6d358d7304e81b3,65af56b360bcc53ab4af7c3c,2024-01-23_08h10.58.770,bars,2023.2.3,Win32,60.09976561,657b66ea316d21385b68909f,,,,,,,,,,,2550.4338,2551.4365,,,2551.9245,2552.1706,,32,212,,,,,,,,,,,,,,,,bars/031.png,bars/mask008.png,,,,,,,,,,,,5,2,,,,,,,7,3,6,6,,,,,,,,,,,2551.4366,2551.9244,2552.1707,2557.1824,space,4.9987,,2557.1824,88,3,2558.1704,2558.1705,2558.1894,,,,0,3,3,3,1,120,35,,,,,,,,
,,6172dbbae6d358d7304e81b3,65af56b360bcc53ab4af7c3c,2024-01-23_08h10.58.770,bars,2023.2.3,Win32,60.09976561,657b66ea316d21385b68909f,,,,,,,,,,,2558.19,2559.1877,,,2559.687,2559.9371,,153,153,,,,,,,,,,,,,,,,bars/040.png,bars/mask007.png,,,,,,,,,,,,5,1,,,,,,,9,5,9,6,,,,,,,,,,,2559.1879,2559.6869,2559.9371,2568.2296,space,8.2648,,2568.2296,13,32,2569.2313,2569.2314,2569.2561,,,,0,4,4,4,1,140,5,,,,,,,,
,,6172dbbae6d358d7304e81b3,65af56b360bcc53ab4af7c3c,2024-01-23_08h10.58.770,bars,2023.2.3,Win32,60.09976561,657b66ea316d21385b68909f,,,,,,,,,,,2569.2568,2570.2656,,,2570.7543,2570.9154,,9,189,,,,,,,,,,,,,,,,bars/005.png,bars/mask005.png,,,,,,,,,,,,9,1,,,,,,,10,7,9,6,,,,,,,,,,,2570.2656,2570.7542,2570.9154,2575.363,space,4.4316,,2575.363,1,49,2576.3652,2576.3653,2576.3806,,,,0,5,5,5,1,10,140,,,,,,,,
,,6172dbbae6d358d7304e81b3,65af56b360bcc53ab4af7c3c,2024-01-23_08h10.58.770,bars,2023.2.3,Win32,60.09976561,657b66ea316d21385b68909f,,,,,,,,,,,2576.3808,2577.3823,,,2577.8712,2578.1168,,41,41,,,,,,,,,,,,,,,,bars/019.png,bars/mask004.png,,,,,,,,,,,,6,1,,,,,,,8,5,7,4,,,,,,,,,,,2577.3824,2577.8712,2578.1169,2581.4388,space,3.3033,,2581.4389,4,64,2582.443,2582.443,2582.4749,,,,0,6,6,6,1,45,105,,,,,,,,
,,6172dbbae6d358d7304e81b3,65af56b360bcc53ab4af7c3c,2024-01-23_08h10.58.770,bars,2023.2.3,Win32,60.09976561,657b66ea316d21385b68909f,,,,,,,,,,,2582.4753,2583.457,,,2583.9561,2584.2048,,158,158,,,,,,,,,,,,,,,,bars/040.png,bars/mask007.png,,,,,,,,,,,,2,1,,,,,,,6,7,6,8,,,,,,,,,,,2583.4572,2583.9555,2584.2049,2588.7385,space,4.5018,,2588.7386,18,27,2589.7327,2589.7327,2589.7476,,,,0,7,7,7,1,140,5,,,,,,,,
,,6172dbbae6d358d7304e81b3,65af56b360bcc53ab4af7c3c,2024-01-23_08h10.58.770,bars,2023.2.3,Win32,60.09976561,657b66ea316d21385b68909f,,,,,,,,,,,2589.7478,2590.7381,,,2591.2285,2591.4713,,9,189,,,,,,,,,,,,,,,,bars/007.png,bars/mask009.png,,,,,,,,,,,,5,1,,,,,,,8,5,9,6,,,,,,,,,,,2590.7381,2591.2285,2591.4713,2596.9758,space,5.4906,,2596.9758,14,46,2597.9716,2597.9716,2597.9872,,,,0,8,8,8,1,175,55,,,,,,,,
,,6172dbbae6d358d7304e81b3,65af56b360bcc53ab4af7c3c,2024-01-23_08h10.58.770,bars,2023.2.3,Win32,60.09976561,657b66ea316d21385b68909f,,,,,,,,,,,2597.9875,2598.9891,,,2599.4813,2599.7223,,37,37,,,,,,,,,,,,,,,,bars/035.png,bars/mask002.png,,,,,,,,,,,,2,2,,,,,,,10,7,10,8,,,,,,,,,,,2598.9892,2599.4808,2599.7224,2601.9193,space,2.1842,,2601.9193,42,23,2602.9192,2602.9194,2602.9469,,,,0,9,9,9,1,175,60,,,,,,,,
,,6172dbbae6d358d7304e81b3,65af56b360bcc53ab4af7c3c,2024-01-23_08h10.58.770,bars,2023.2.3,Win32,60.09976561,657b66ea316d21385b68909f,,,,,,,,,,,2602.9473,2603.9403,,,2604.4399,2604.679,,1,181,,,,,,,,,,,,,,,,bars/016.png,bars/mask000.png,,,,,,,,,,,,4,2,,,,,,,8,9,8,9,,,,,,,,,,,2603.9404,2604.4399,2604.6791,2610.8618,space,6.1564,,2610.8619,39,16,2611.861,2611.8612,2611.898,,,,0,10,10,10,1,40,165,,,,,,,,
,,6172dbbae6d358d7304e81b3,65af56b360bcc53ab4af7c3c,2024-01-23_08h10.58.770,bars,2023.2.3,Win32,60.09976561,657b66ea316d21385b68909f,,,,,,,,,,,2611.8985,2612.898,,,2613.3903,2613.6394,,47,47,,,,,,,,,,,,,,,,bars/038.png,bars/mask008.png,,,,,,,,,,,,2,2,,,,,,,6,10,5,10,,,,,,,,,,,2612.8981,2613.3902,2613.6394,2615.5063,space,1.8511,,2615.5064,62,23,2616.5071,2616.5073,2616.541,,,,0,11,11,11,1,165,70,,,,,,,,
,,6172dbbae6d358d7304e81b3,65af56b360bcc53ab4af7c3c,2024-01-23_08h10.58.770,bars,2023.2.3,Win32,60.09976561,657b66ea316d21385b68909f,,,,,,,,,,,2616.5444,2617.5395,,,2618.0416,2618.2825,,160,160,,,,,,,,,,,,,,,,bars/040.png,bars/mask004.png,,,,,,,,,,,,3,1,,,,,,,8,10,10,8,,,,,,,,,,,2617.5395,2618.0415,2618.2827,2621.9628,space,3.6627,,2621.9629,20,25,2622.9565,2622.9565,2622.9724,,,,0,12,12,12,1,140,5,,,,,,,,
,,6172dbbae6d358d7304e81b3,65af56b360bcc53ab4af7c3c,2024-01-23_08h10.58.770,bars,2023.2.3,Win32,60.09976561,657b66ea316d21385b68909f,,,,,,,,,,,2622.9728,2623.9734,,,2624.4794,2624.7265,,179,179,,,,,,,,,,,,,,,,bars/046.png,bars/mask008.png,,,,,,,,,,,,2,1,,,,,,,10,10,10,8,,,,,,,,,,,2623.9734,2624.4791,2624.7267,2628.7842,space,4.0278,,2628.7845,24,86,2629.7741,2629.7742,2629.789,,,,0,13,13,13,1,155,85,,,,,,,,
,,6172dbbae6d358d7304e81b3,65af56b360bcc53ab4af7c3c,2024-01-23_08h10.58.770,bars,2023.2.3,Win32,60.09976561,657b66ea316d21385b68909f,,,,,,,,,,,2629.7893,2630.7748,,,2631.2746,2631.5237,,16,16,,,,,,,,,,,,,,,,bars/041.png,bars/mask000.png,,,,,,,,,,,,6,1,,,,,,,8,8,7,8,,,,,,,,,,,2630.775,2631.2744,2631.5238,2636.2424,space,4.7032,,2636.2426,4,69,2637.243,2637.2431,2637.2575,,,,0,14,14,14,1,20,85,,,,,,,,
,,6172dbbae6d358d7304e81b3,65af56b360bcc53ab4af7c3c,2024-01-23_08h10.58.770,bars,2023.2.3,Win32,60.09976561,657b66ea316d21385b68909f,,,,,,,,,,,2637.2581,2638.2539,,,2638.7595,2639.0078,,33,213,,,,,,,,,,,,,,,,bars/000.png,bars/mask009.png,,,,,,,,,,,,5,1,,,,,,,6,6,7,6,,,,,,,,,,,2638.254,2638.7594,2639.0079,2645.2668,space,6.2459,,2645.2668,7,68,2646.2578,2646.2579,2646.2727,,,,0,15,15,15,1,40,145,,,,,,,,
,,6172dbbae6d358d7304e81b3,65af56b360bcc53ab4af7c3c,2024-01-23_08h10.58.770,bars,2023.2.3,Win32,60.09976561,657b66ea316d21385b68909f,,,,,,,,,,,2646.2731,2647.2631,,,2647.7588,2648.0097,,144,144,,,,,,,,,,,,,,,,bars/034.png,bars/mask007.png,,,,,,,,,,,,3,1,,,,,,,8,4,7,2,,,,,,,,,,,2647.2633,2647.7588,2648.0098,2651.1992,space,3.1753,,2651.1993,19,79,2652.1919,2652.1921,2652.2066,,,,0,16,16,16,1,125,65,,,,,,,,
,,6172dbbae6d358d7304e81b3,65af56b360bcc53ab4af7c3c,2024-01-23_08h10.58.770,bars,2023.2.3,Win32,60.09976561,657b66ea316d21385b68909f,,,,,,,,,,,2652.2069,2653.2091,,,2653.7034,2653.9421,,3,183,,,,,,,,,,,,,,,,bars/007.png,bars/mask004.png,,,,,,,,,,,,7,1,,,,,,,10,2,9,2,,,,,,,,,,,2653.2092,2653.7034,2653.9422,2657.3762,space,3.4162,,2657.3763,8,52,2658.3761,2658.3761,2658.3907,,,,0,17,17,17,1,175,55,,,,,,,,
,,6172dbbae6d358d7304e81b3,65af56b360bcc53ab4af7c3c,2024-01-23_08h10.58.770,bars,2023.2.3,Win32,60.09976561,657b66ea316d21385b68909f,,,,,,,,,,,2658.391,2659.3922,,,2659.8943,2660.1322,,28,28,,,,,,,,,,,,,,,,bars/035.png,bars/mask009.png,,,,,,,,,,,,0,2,,,,,,,8,0,6,0,,,,,,,,,,,2659.3922,2659.8942,2660.1323,2662.3163,space,2.1702,,2662.3164,33,32,2663.3157,2663.3158,2663.3375,,,,0,18,18,18,1,175,60,,,,,,,,
,,6172dbbae6d358d7304e81b3,65af56b360bcc53ab4af7c3c,2024-01-23_08h10.58.770,bars,2023.2.3,Win32,60.09976561,657b66ea316d21385b68909f,,,,,,,,,,,2663.3379,2664.3316,,,2664.8308,2665.0769,,117,117,,,,,,,,,,,,,,,,bars/006.png,bars/mask005.png,,,,,,,,,,,,1,2,,,,,,,10,0,10,2,,,,,,,,,,,2664.3317,2664.8308,2665.077,2671.1382,space,6.0322,,2671.1384,82,17,2672.1262,2672.1263,2672.1416,,,,0,19,19,19,1,35,100,,,,,,,,
,,6172dbbae6d358d7304e81b3,65af56b360bcc53ab4af7c3c,2024-01-23_08h10.58.770,bars,2023.2.3,Win32,60.09976561,657b66ea316d21385b68909f,,,,,,,,,,,2672.1419,2673.144,,,2673.643,2673.8942,,174,-6,,,,,,,,,,,,,,,,bars/048.png,bars/mask001.png,,,,,,,,,,,,0,2,,,,,,,10,0,10,0,,,,,,,,,,,2673.1441,2673.6429,2673.8943,2679.8557,space,5.9344,,2679.8557,56,1,2680.844,2680.8441,2680.8599,,,,0,20,20,20,1,50,175,,,,,,,,
,,6172dbbae6d358d7304e81b3,65af56b360bcc53ab4af7c3c,2024-01-23_08h10.58.770,bars,2023.2.3,Win32,60.09976561,657b66ea316d21385b68909f,,,,,,,,,,,2680.8607,2681.8607,,,2682.3602,2682.6099,,97,97,,,,,,,,,,,,,,,,bars/006.png,bars/mask003.png,,,,,,,,,,,,0,2,,,,,,,8,0,5,0,,,,,,,,,,,2681.8607,2682.3602,2682.61,2686.1226,space,3.5006,,2686.1226,62,3,2687.119,2687.1191,2687.1452,,,,0,21,21,21,1,35,100,,,,,,,,
,,6172dbbae6d358d7304e81b3,65af56b360bcc53ab4af7c3c,2024-01-23_08h10.58.770,bars,2023.2.3,Win32,60.09976561,657b66ea316d21385b68909f,,,,,,,,,,,2687.1458,2688.1409,,,2688.6369,2688.8777,,49,229,,,,,,,,,,,,,,,,bars/034.png,bars/mask001.png,,,,,,,,,,,,0,2,,,,,,,10,0,9,0,,,,,,,,,,,2688.1409,2688.6369,2688.8778,2694.4158,space,5.525,,2694.4159,76,16,2695.4231,2695.4232,2695.4393,,,,0,22,22,22,1,125,65,,,,,,,,
,,6172dbbae6d358d7304e81b3,65af56b360bcc53ab4af7c3c,2024-01-23_08h10.58.770,bars,2023.2.3,Win32,60.09976561,657b66ea316d21385b68909f,,,,,,,,,,,2695.4396,2696.4324,,,2696.9361,2697.1788,,111,291,,,,,,,,,,,,,,,,bars/030.png,bars/mask007.png,,,,,,,,,,,,0,1,,,,,,,10,2,9,1,,,,,,,,,,,2696.4325,2696.936,2697.1788,2704.1122,space,6.9156,,2704.1123,29,46,2705.1122,2705.1122,2705.1381,,,,0,23,23,23,1,140,65,,,,,,,,
,,6172dbbae6d358d7304e81b3,65af56b360bcc53ab4af7c3c,2024-01-23_08h10.58.770,bars,2023.2.3,Win32,60.09976561,657b66ea316d21385b68909f,,,,,,,,,,,2705.1384,2706.1281,,,2706.629,2706.8781,,83,83,,,,,,,,,,,,,,,,bars/001.png,bars/mask001.png,,,,,,,,,,,,0,2,,,,,,,8,0,8,0,,,,,,,,,,,2706.1282,2706.629,2706.8781,2712.6124,space,5.721,,2712.6125,47,2,2713.6156,2713.6157,2713.6607,,,,0,24,24,24,1,130,85,,,,,,,,
,,6172dbbae6d358d7304e81b3,65af56b360bcc53ab4af7c3c,2024-01-23_08h10.58.770,bars,2023.2.3,Win32,60.09976561,657b66ea316d21385b68909f,,,,,,,,,,,2713.6612,2714.6596,,,2715.0292,2715.2797,,107,107,,,,,,,,,,,,,,,,bars/034.png,bars/mask009.png,,,,,,,,,,,,2,1,,,,,,,6,0,4,0,,,,,,,,,,,2714.6597,2715.0291,2715.2798,2724.2981,space,9.0014,,2724.2983,18,42,2725.2888,2725.2891,2725.3347,,,,0,25,25,25,1,125,65,,,,,,,,
,,6172dbbae6d358d7304e81b3,65af56b360bcc53ab4af7c3c,2024-01-23_08h10.58.770,bars,2023.2.3,Win32,60.09976561,657b66ea316d21385b68909f,,,,,,,,,,,2725.3355,2726.3382,,,2726.8298,2727.0684,,133,-47,,,,,,,,,,,,,,,,bars/004.png,bars/mask003.png,,,,,,,,,,,,1,2,,,,,,,4,2,3,1,,,,,,,,,,,2726.3384,2726.8297,2727.0686,2732.4763,space,5.3946,,2732.4765,72,8,2733.4802,2733.4804,2733.4964,,,,0,26,26,26,1,25,125,,,,,,,,
,,6172dbbae6d358d7304e81b3,65af56b360bcc53ab4af7c3c,2024-01-23_08h10.58.770,bars,2023.2.3,Win32,60.09976561,657b66ea316d21385b68909f,,,,,,,,,,,2733.4974,2734.489,,,2734.9932,2735.2421,,82,82,,,,,,,,,,,,,,,,bars/039.png,bars/mask006.png,,,,,,,,,,,,0,2,,,,,,,2,0,2,0,,,,,,,,,,,2734.489,2734.9931,2735.2421,2738.1158,space,2.8525,,2738.1159,87,23,2739.1138,2739.114,2739.1283,,,,0,27,27,27,1,175,105,,,,,,,,
,,6172dbbae6d358d7304e81b3,65af56b360bcc53ab4af7c3c,2024-01-23_08h10.58.770,bars,2023.2.3,Win32,60.09976561,657b66ea316d21385b68909f,,,,,,,,,,,2739.1286,2740.1305,,,2740.6302,2740.8802,,121,121,,,,,,,,,,,,,,,,bars/023.png,bars/mask000.png,,,,,,,,,,,,1,2,,,,,,,0,2,1,1,,,,,,,,,,,2740.1307,2740.6302,2740.8802,2748.3844,space,7.4909,,2748.3846,79,6,2749.382,2749.3822,2749.4016,,,,0,28,28,28,1,20,115,,,,,,,,
,,6172dbbae6d358d7304e81b3,65af56b360bcc53ab4af7c3c,2024-01-23_08h10.58.770,bars,2023.2.3,Win32,60.09976561,657b66ea316d21385b68909f,,,,,,,,,,,2749.4019,2750.3973,,,2750.8978,2751.1476,,130,130,,,,,,,,,,,,,,,,bars/004.png,bars/mask008.png,,,,,,,,,,,,0,2,,,,,,,2,0,3,0,,,,,,,,,,,2750.3973,2750.8976,2751.1477,2758.6278,space,7.4675,,2758.628,75,5,2759.6268,2759.6268,2759.6467,,,,0,29,29,29,1,25,125,,,,,,,,
,,6172dbbae6d358d7304e81b3,65af56b360bcc53ab4af7c3c,2024-01-23_08h10.58.770,bars,2023.2.3,Win32,60.09976561,657b66ea316d21385b68909f,,,,,,,,,,,2759.6471,2760.6518,,,2761.1488,2761.399,,165,-15,,,,,,,,,,,,,,,,bars/045.png,bars/mask008.png,,,,,,,,,,,,0,2,,,,,,,4,2,3,1,,,,,,,,,,,2760.6519,2761.1488,2761.3991,2768.2664,space,6.8388,,2768.2667,65,25,2769.2702,2769.2704,2769.3011,,,,0,30,30,30,1,100,10,,,,,,,,
,,6172dbbae6d358d7304e81b3,65af56b360bcc53ab4af7c3c,2024-01-23_08h10.58.770,bars,2023.2.3,Win32,60.09976561,657b66ea316d21385b68909f,,,,,,,,,,,2769.3016,2770.2988,,,2770.7953,2771.0403,,4,184,,,,,,,,,,,,,,,,bars/045.png,bars/mask004.png,,,,,,,,,,,,4,2,,,,,,,2,4,4,5,,,,,,,,,,,2770.2989,2770.7952,2771.0404,2776.4666,space,5.4014,,2776.4667,84,6,2777.4806,2777.4806,2777.5075,,,,0,31,31,31,1,100,10,,,,,,,,
,,6172dbbae6d358d7304e81b3,65af56b360bcc53ab4af7c3c,2024-01-23_08h10.58.770,bars,2023.2.3,Win32,60.09976561,657b66ea316d21385b68909f,,,,,,,,,,,2777.5081,2778.5217,,,2779.0167,2779.266,,30,30,,,,,,,,,,,,,,,,bars/025.png,bars/mask008.png,,,,,,,,,,,,3,2,,,,,,,0,6,1,5,,,,,,,,,,,2778.5217,2779.0166,2779.266,2783.1333,space,3.8515,,2783.1335,75,10,2784.128,2784.1281,2784.1427,,,,0,32,32,32,1,105,40,,,,,,,,
,,6172dbbae6d358d7304e81b3,65af56b360bcc53ab4af7c3c,2024-01-23_08h10.58.770,bars,2023.2.3,Win32,60.09976561,657b66ea316d21385b68909f,,,,,,,,,,,2784.143,2785.1329,,,2785.7752,2785.7949,,102,102,,,,,,,,,,,,,,,,bars/037.png,bars/mask000.png,,,,,,,,,,,,7,2,,,,,,,0,8,0,8,,,,,,,,,,,2785.133,2785.7751,2785.7949,2788.9783,space,3.1671,,2788.9783,48,3,2789.9682,2789.9683,2789.9836,,,,0,33,33,33,1,150,105,,,,,,,,
,,6172dbbae6d358d7304e81b3,65af56b360bcc53ab4af7c3c,2024-01-23_08h10.58.770,bars,2023.2.3,Win32,60.09976561,657b66ea316d21385b68909f,,,,,,,,,,,2789.9842,2790.9759,,,2791.4675,2791.7173,,173,-7,,,,,,,,,,,,,,,,bars/040.png,bars/mask006.png,,,,,,,,,,,,4,2,,,,,,,0,6,0,6,,,,,,,,,,,2790.976,2791.4675,2791.7174,2795.2857,space,3.5342,,2795.2859,33,12,2796.2841,2796.2843,2796.2989,,,,0,34,34,34,1,140,5,,,,,,,,
,,6172dbbae6d358d7304e81b3,65af56b360bcc53ab4af7c3c,2024-01-23_08h10.58.770,bars,2023.2.3,Win32,60.09976561,657b66ea316d21385b68909f,,,,,,,,,,,2796.2992,2797.2902,,,2797.7843,2798.0253,,59,59,,,,,,,,,,,,,,,,bars/025.png,bars/mask007.png,,,,,,,,,,,,3,2,,,,,,,0,8,0,7,,,,,,,,,,,2797.2903,2797.7843,2798.0254,2799.2849,space,1.2383,,2799.2849,46,19,2800.2844,2800.2844,2800.299,,,,0,35,35,35,1,105,40,,,,,,,,
,,6172dbbae6d358d7304e81b3,65af56b360bcc53ab4af7c3c,2024-01-23_08h10.58.770,bars,2023.2.3,Win32,60.09976561,657b66ea316d21385b68909f,,,,,,,,,,,2800.2992,2801.2955,,,2801.7957,2802.0371,,39,39,,,,,,,,,,,,,,,,bars/029.png,bars/mask000.png,,,,,,,,,,,,5,2,,,,,,,2,6,2,6,,,,,,,,,,,2801.2955,2801.7956,2802.0372,2807.39,space,5.3254,,2807.39,51,6,2808.3852,2808.3852,2808.4007,,,,0,36,36,36,1,90,45,,,,,,,,
,,6172dbbae6d358d7304e81b3,65af56b360bcc53ab4af7c3c,2024-01-23_08h10.58.770,bars,2023.2.3,Win32,60.09976561,657b66ea316d21385b68909f,,,,,,,,,,,2808.4012,2809.4015,,,2809.8969,2810.1401,,32,32,,,,,,,,,,,,,,,,bars/029.png,bars/mask007.png,,,,,,,,,,,,4,2,,,,,,,0,8,1,7,,,,,,,,,,,2809.4016,2809.8968,2810.1403,2814.8565,space,4.6999,,2814.8566,58,13,2815.8586,2815.8587,2815.8874,,,,0,37,37,37,1,90,45,,,,,,,,
,,6172dbbae6d358d7304e81b3,65af56b360bcc53ab4af7c3c,2024-01-23_08h10.58.770,bars,2023.2.3,Win32,60.09976561,657b66ea316d21385b68909f,,,,,,,,,,,2815.8879,2816.8864,,,2817.3852,2817.6357,,139,139,,,,,,,,,,,,,,,,bars/005.png,bars/mask001.png,,,,,,,,,,,,9,2,,,,,,,2,10,5,9,,,,,,,,,,,2816.8864,2817.3851,2817.6357,2822.0748,space,4.4109,,2822.0749,51,1,2823.0534,2823.0535,2823.078,,,,0,38,38,38,1,10,140,,,,,,,,
,,6172dbbae6d358d7304e81b3,65af56b360bcc53ab4af7c3c,2024-01-23_08h10.58.770,bars,2023.2.3,Win32,60.09976561,657b66ea316d21385b68909f,,,,,,,,,,,2823.0784,2824.0693,,,2824.5696,2824.8079,,166,-14,,,,,,,,,,,,,,,,bars/016.png,bars/mask001.png,,,,,,,,,,,,10,2,,,,,,,0,10,0,10,,,,,,,,,,,2824.0694,2824.5696,2824.8079,2830.9328,space,6.1118,,2830.9329,54,1,2831.9357,2831.9358,2831.9506,,,,0,39,39,39,1,40,165,,,,,,,,
,,6172dbbae6d358d7304e81b3,65af56b360bcc53ab4af7c3c,2024-01-23_08h10.58.770,bars,2023.2.3,Win32,60.09976561,657b66ea316d21385b68909f,,,,,,,,,,,2831.9509,2832.9443,,,2833.4359,2833.6753,,35,35,,,,,,,,,,,,,,,,bars/025.png,bars/mask003.png,,,,,,,,,,,,8,2,,,,,,,2,10,3,10,,,,,,,,,,,2832.9443,2833.4359,2833.6759,2839.7117,space,6.0059,,2839.7118,70,5,2840.7059,2840.7059,2840.7398,,,,0,40,40,40,1,105,40,,,,,,,,
,,6172dbbae6d358d7304e81b3,65af56b360bcc53ab4af7c3c,2024-01-23_08h10.58.770,bars,2023.2.3,Win32,60.09976561,657b66ea316d21385b68909f,,,,,,,,,,,2840.7406,2841.7317,,,2842.2292,2842.4699,,154,-26,,,,,,,,,,,,,,,,bars/007.png,bars/mask000.png,,,,,,,,,,,,2,1,,,,,,,4,10,6,10,,,,,,,,,,,2841.7317,2842.2291,2842.4699,2845.4378,space,2.9507,,2845.4379,21,81,2846.4373,2846.4373,2846.4539,,,,0,41,41,41,1,175,55,,,,,,,,
,,6172dbbae6d358d7304e81b3,65af56b360bcc53ab4af7c3c,2024-01-23_08h10.58.770,bars,2023.2.3,Win32,60.09976561,657b66ea316d21385b68909f,,,,,,,,,,,2846.4543,2847.4543,,,2847.9556,2848.1937,,172,-8,,,,,,,,,,,,,,,,bars/040.png,bars/mask006.png,,,,,,,,,,,,6,2,,,,,,,2,10,2,10,,,,,,,,,,,2847.4543,2847.9555,2848.1938,2853.0079,space,4.7959,,2853.008,32,13,2854.0054,2854.0055,2854.0217,,,,0,42,42,42,1,140,5,,,,,,,,
,,6172dbbae6d358d7304e81b3,65af56b360bcc53ab4af7c3c,2024-01-23_08h10.58.770,bars,2023.2.3,Win32,60.09976561,657b66ea316d21385b68909f,,,,,,,,,,,2854.0223,2855.0112,,,2855.5042,2855.7538,,161,161,,,,,,,,,,,,,,,,bars/011.png,bars/mask004.png,,,,,,,,,,,,4,1,,,,,,,4,10,4,9,,,,,,,,,,,2855.0114,2855.5041,2855.7538,2861.9716,space,6.2022,,2861.9717,1,76,2862.9707,2862.9708,2862.987,,,,0,43,43,43,1,160,85,,,,,,,,
,,6172dbbae6d358d7304e81b3,65af56b360bcc53ab4af7c3c,2024-01-23_08h10.58.770,bars,2023.2.3,Win32,60.09976561,657b66ea316d21385b68909f,,,,,,,,,,,2862.9875,2864.0005,,,2864.5004,2864.7447,,152,152,,,,,,,,,,,,,,,,bars/037.png,bars/mask003.png,,,,,,,,,,,,7,1,,,,,,,6,8,7,8,,,,,,,,,,,2864.0005,2864.5003,2864.7447,2872.8359,space,8.0703,,2872.8359,2,47,2873.8387,2873.8387,2873.8582,,,,0,44,44,44,1,150,105,,,,,,,,
,,6172dbbae6d358d7304e81b3,65af56b360bcc53ab4af7c3c,2024-01-23_08h10.58.770,bars,2023.2.3,Win32,60.09976561,657b66ea316d21385b68909f,,,,,,,,,,,2873.8584,2874.8558,,,2875.3666,2875.6053,,35,35,,,,,,,,,,,,,,,,bars/031.png,bars/mask005.png,,,,,,,,,,,,10,2,,,,,,,4,10,2,10,,,,,,,,,,,2874.8559,2875.3666,2875.6055,2880.9226,space,5.302,,2880.9227,85,0,2881.9281,2881.9284,2881.9549,,,,0,45,45,45,1,120,35,,,,,,,,
,,6172dbbae6d358d7304e81b3,65af56b360bcc53ab4af7c3c,2024-01-23_08h10.58.770,bars,2023.2.3,Win32,60.09976561,657b66ea316d21385b68909f,,,,,,,,,,,2881.9553,2882.9501,,,2883.4557,2883.6999,,155,155,,,,,,,,,,,,,,,,bars/013.png,bars/mask009.png,,,,,,,,,,,,0,2,,,,,,,2,8,2,6,,,,,,,,,,,2882.9502,2883.4556,2883.7001,2886.7623,space,3.0413,,2886.7624,80,35,2887.7569,2887.7569,2887.7802,,,,0,46,46,46,1,75,10,,,,,,,,
,,6172dbbae6d358d7304e81b3,65af56b360bcc53ab4af7c3c,2024-01-23_08h10.58.770,bars,2023.2.3,Win32,60.09976561,657b66ea316d21385b68909f,,,,,,,,,,,2887.7806,2888.7757,,,2889.2718,2889.5216,,155,155,,,,,,,,,,,,,,,,bars/028.png,bars/mask009.png,,,,,,,,,,,,0,2,,,,,,,4,6,4,7,,,,,,,,,,,2888.7758,2889.2716,2889.5217,2894.0232,space,4.4809,,2894.0232,70,35,2895.0245,2895.0247,2895.0388,,,,0,47,47,47,1,45,120,,,,,,,,
,,6172dbbae6d358d7304e81b3,65af56b360bcc53ab4af7c3c,2024-01-23_08h10.58.770,bars,2023.2.3,Win32,60.09976561,657b66ea316d21385b68909f,,,,,,,,,,,2895.0392,2896.0402,,,2896.5407,2896.7795,,17,197,,,,,,,,,,,,,,,,bars/013.png,bars/mask000.png,,,,,,,,,,,,5,2,,,,,,,2,8,2,7,,,,,,,,,,,2896.0403,2896.5406,2896.7795,2900.5575,space,3.7604,,2900.5576,58,7,2901.5568,2901.5569,2901.5714,,,,0,48,48,48,1,75,10,,,,,,,,
,,6172dbbae6d358d7304e81b3,65af56b360bcc53ab4af7c3c,2024-01-23_08h10.58.770,bars,2023.2.3,Win32,60.09976561,657b66ea316d21385b68909f,,,,,,,,,,,2901.5717,2902.5749,,,2903.0731,2903.3199,,137,137,,,,,,,,,,,,,,,,bars/023.png,bars/mask005.png,,,,,,,,,,,,3,2,,,,,,,0,10,0,10,,,,,,,,,,,2902.575,2903.073,2903.3199,2907.8587,space,4.5204,,2907.8588,63,22,2908.8573,2908.8574,2908.872,,,,0,49,49,49,1,20,115,,,,,,,,
,,6172dbbae6d358d7304e81b3,65af56b360bcc53ab4af7c3c,2024-01-23_08h10.58.770,bars,2023.2.3,Win32,60.09976561,657b66ea316d21385b68909f,,,,,,,,,,,,,,,,,,,,,,,,,,,,,,,,,,,,,,,,,,,,,,,,,,,,,,,,,,,,,,,,,,,,,,,,,,,,,,,,,,,,,,,,,,,,,2908.8721,2968.8614,0,3,3,4,1,sequence_tables/blk026.csv
,,6172dbbae6d358d7304e81b3,65af56b360bcc53ab4af7c3c,2024-01-23_08h10.58.770,bars,2023.2.3,Win32,60.09976561,657b66ea316d21385b68909f,,,,,,,,,,,3013.6676,3014.6305,,,3015.2213,3015.2383,,51,51,,,,,,,,,,,,,,,,bars/047.png,bars/mask000.png,,,,,,,,,,,,2,2,,,,,,,5,5,5,6,,,,,,2968.8773,3013.6142,space,44.7205,,3014.6308,3015.2212,3015.2384,3017.4986,space,2.2433,,3017.4986,36,19,3018.497,3018.4972,3018.5178,,,,0,0,0,0,1,15,70,,,,,,,,
,,6172dbbae6d358d7304e81b3,65af56b360bcc53ab4af7c3c,2024-01-23_08h10.58.770,bars,2023.2.3,Win32,60.09976561,657b66ea316d21385b68909f,,,,,,,,,,,3018.5182,3019.5142,,,3020.0031,3020.2477,,164,-16,,,,,,,,,,,,,,,,bars/008.png,bars/mask006.png,,,,,,,,,,,,1,2,,,,,,,3,3,1,3,,,,,,,,,,,3019.5143,3020.0029,3020.2478,3024.9985,space,4.7178,,3024.9988,54,16,3025.9979,3025.998,3026.0129,,,,0,1,1,1,1,110,0,,,,,,,,
,,6172dbbae6d358d7304e81b3,65af56b360bcc53ab4af7c3c,2024-01-23_08h10.58.770,bars,2023.2.3,Win32,60.09976561,657b66ea316d21385b68909f,,,,,,,,,,,3026.0133,3027.0148,,,3027.5152,3027.7702,,128,128,,,,,,,,,,,,,,,,bars/034.png,bars/mask007.png,,,,,,,,,,,,2,1,,,,,,,1,5,2,7,,,,,,,,,,,3027.015,3027.5151,3027.7703,3029.8318,space,2.0385,,3029.8318,3,63,3030.8306,3030.8307,3030.8468,,,,0,2,2,2,1,125,65,,,,,,,,
,,6172dbbae6d358d7304e81b3,65af56b360bcc53ab4af7c3c,2024-01-23_08h10.58.770,bars,2023.2.3,Win32,60.09976561,657b66ea316d21385b68909f,,,,,,,,,,,3030.8471,3031.8361,,,3032.3351,3032.5774,,31,211,,,,,,,,,,,,,,,,bars/000.png,bars/mask008.png,,,,,,,,,,,,0,1,,,,,,,0,7,0,9,,,,,,,,,,,3031.8363,3032.335,3032.5775,3038.3936,space,5.8003,,3038.3936,9,66,3039.3932,3039.3932,3039.4082,,,,0,3,3,3,1,40,145,,,,,,,,
,,6172dbbae6d358d7304e81b3,65af56b360bcc53ab4af7c3c,2024-01-23_08h10.58.770,bars,2023.2.3,Win32,60.09976561,657b66ea316d21385b68909f,,,,,,,,,,,3039.4085,3040.3989,,,3040.8979,3041.1484,,31,211,,,,,,,,,,,,,,,,bars/041.png,bars/mask005.png,,,,,,,,,,,,1,1,,,,,,,0,5,2,4,,,,,,,,,,,3040.3989,3040.8979,3041.1486,3044.9308,space,3.7694,,3044.9311,11,54,3045.9231,3045.9232,3045.942,,,,0,4,4,4,1,20,85,,,,,,,,
,,6172dbbae6d358d7304e81b3,65af56b360bcc53ab4af7c3c,2024-01-23_08h10.58.770,bars,2023.2.3,Win32,60.09976561,657b66ea316d21385b68909f,,,,,,,,,,,3045.9424,3046.9325,,,3047.4437,3047.6819,,87,-93,,,,,,,,,,,,,,,,bars/022.png,bars/mask006.png,,,,,,,,,,,,2,1,,,,,,,2,7,3,8,,,,,,,,,,,3046.9326,3047.4435,3047.6819,3056.1127,space,8.4147,,3056.1127,8,67,3057.122,3057.1223,3057.1558,,,,0,5,5,5,1,95,20,,,,,,,,
,,6172dbbae6d358d7304e81b3,65af56b360bcc53ab4af7c3c,2024-01-23_08h10.58.770,bars,2023.2.3,Win32,60.09976561,657b66ea316d21385b68909f,,,,,,,,,,,3057.1564,3058.155,,,3058.65,3058.9001,,23,23,,,,,,,,,,,,,,,,bars/041.png,bars/mask005.png,,,,,,,,,,,,4,1,,,,,,,4,9,4,10,,,,,,,,,,,3058.155,3058.6499,3058.9001,3065.2753,space,6.3455,,3065.2755,3,62,3066.2672,3066.2672,3066.2825,,,,0,6,6,6,1,20,85,,,,,,,,
,,6172dbbae6d358d7304e81b3,65af56b360bcc53ab4af7c3c,2024-01-23_08h10.58.770,bars,2023.2.3,Win32,60.09976561,657b66ea316d21385b68909f,,,,,,,,,,,3066.2829,3067.292,,,3067.7392,3067.7402,,161,161,,,,,,,,,,,,,,,,bars/043.png,bars/mask003.png,,,,,,,,,,,,0,2,,,,,,,2,10,1,9,,,,,,,,,,,3067.292,3067.7391,3067.7403,3077.7838,space,10.0268,,3077.7839,49,31,3078.7818,3078.7818,3078.8066,,,,0,7,7,7,1,30,130,,,,,,,,
,,6172dbbae6d358d7304e81b3,65af56b360bcc53ab4af7c3c,2024-01-23_08h10.58.770,bars,2023.2.3,Win32,60.09976561,657b66ea316d21385b68909f,,,,,,,,,,,3078.8079,3079.8011,,,3080.3253,3080.4789,,82,82,,,,,,,,,,,,,,,,bars/013.png,bars/mask002.png,,,,,,,,,,,,2,1,,,,,,,4,8,2,8,,,,,,,,,,,3079.8012,3080.3251,3080.4791,3084.6127,space,4.1156,,3084.6127,7,72,3085.6023,3085.6024,3085.6189,,,,0,8,8,8,1,75,10,,,,,,,,
,,6172dbbae6d358d7304e81b3,65af56b360bcc53ab4af7c3c,2024-01-23_08h10.58.770,bars,2023.2.3,Win32,60.09976561,657b66ea316d21385b68909f,,,,,,,,,,,3085.6196,3086.6184,,,3087.1221,3087.3678,,6,186,,,,,,,,,,,,,,,,bars/045.png,bars/mask005.png,,,,,,,,,,,,6,2,,,,,,,6,6,7,7,,,,,,,,,,,3086.6184,3087.1218,3087.3679,3092.1532,space,4.7676,,3092.1534,86,4,3093.1524,3093.1527,3093.1994,,,,0,9,9,9,1,100,10,,,,,,,,
