init_variables.started,init_variables.stopped,participant,session,date,expName,psychopyVersion,OS,frameRate,study_id,instruction_exp.started,instruction_exp.stopped,key_resp_8.keys,key_resp_8.rt,key_resp_8.duration,instruction_single.started,instruction_single.stopped,key_resp_2.keys,key_resp_2.rt,key_resp_2.duration,interval.started,interval.stopped,cue_single.started,cue_single.stopped,mask.started,mask.stopped,ori_response_single.started,res_ori,res,ori_response_single.stopped,key_resp_single.keys,key_resp_single.rt,key_resp_single.duration,disp_single.started,disp_single.stopped,key_resp.keys,key_resp.rt,key_resp.duration,single.thisRepN,single.thisTrialN,single.thisN,single.thisIndex,single.ran,ori,path,mask_path,instruction_bandit.started,instruction_bandit.stopped,key_resp_6.keys,key_resp_6.rt,key_resp_6.duration,cue_bandit.started,cue_bandit.stopped,bandit_res.keys,bandit_res.rt,bandit_res.duration,outcome_bandit.started,rew,action,outcome_bandit.stopped,bandit.thisRepN,bandit.thisTrialN,bandit.thisN,bandit.thisIndex,bandit.ran,actual_rew1,actual_rew2,rew1,rew2,instruction_task.started,instruction_task.stopped,key_resp_7.keys,key_resp_7.rt,key_resp_7.duration,wait_ready.started,wait_ready.stopped,key_resp_3.keys,key_resp_3.rt,key_resp_3.duration,cue.started,cue.stopped,ori_response.started,ori_response.stopped,key_resp_5.keys,key_resp_5.rt,key_resp_5.duration,outcome.started,diff1,diff2,outcome.stopped,disp_outcome_practice.started,disp_outcome_practice.stopped,key_resp_4.keys,key_resp_4.rt,key_resp_4.duration,trials.thisRepN,trials.thisTrialN,trials.thisN,trials.thisIndex,trials.ran,ori1,ori2,break_blk.started,break_blk.stopped,block.thisRepN,block.thisTrialN,block.thisN,block.thisIndex,block.ran,condition_file
0.0006,0.0009,615dd7a74b5d8dd6dc602ca3,65af551ffa16a017ecb780b7,2024-01-23_08h00.34.592,bars,2023.2.3,Win32,60.24096386,657b66ea316d21385b68909f,,,,,,,,,,,,,,,,,,,,,,,,,,,,,,,,,,,,,,,,,,,,,,,,,,,,,,,,,,,,,,,,,,,,,,,,,,,,,,,,,,,,,,,,,,,,,,,,,,,,
,,615dd7a74b5d8dd6dc602ca3,65af551ffa16a017ecb780b7,2024-01-23_08h00.34.592,bars,2023.2.3,Win32,60.24096386,657b66ea316d21385b68909f,0.0012,24.7823,y,24.4547,0.1846,,,,,,,,,,,,,,,,,,,,,,,,,,,,,,,,,,,,,,,,,,,,,,,,,,,,,,,,,,,,,,,,,,,,,,,,,,,,,,,,,,,,,,,,,,,,,,,
,,615dd7a74b5d8dd6dc602ca3,65af551ffa16a017ecb780b7,2024-01-23_08h00.34.592,bars,2023.2.3,Win32,60.24096386,657b66ea316d21385b68909f,,,,,,24.7826,103.9193,space,79.1111,,,,,,,,,,,,,,,,,,,,,,,,,,,,,,,,,,,,,,,,,,,,,,,,,,,,,,,,,,,,,,,,,,,,,,,,,,,,,,,,,,,,,,,,,,,
,,615dd7a74b5d8dd6dc602ca3,65af551ffa16a017ecb780b7,2024-01-23_08h00.34.592,bars,2023.2.3,Win32,60.24096386,657b66ea316d21385b68909f,,,,,,,,,,,103.9301,104.9211,104.9214,105.4282,105.4286,105.6858,105.686,2,2,141.9045,space,36.1676,,141.9048,176.449,space,34.4935,,0,0,0,7,1,45,bars/single007.png,bars/mask009.png,,,,,,,,,,,,,,,,,,,,,,,,,,,,,,,,,,,,,,,,,,,,,,,,,,,,,,,,,,,,,,,,
,,615dd7a74b5d8dd6dc602ca3,65af551ffa16a017ecb780b7,2024-01-23_08h00.34.592,bars,2023.2.3,Win32,60.24096386,657b66ea316d21385b68909f,,,,,,,,,,,176.4677,177.4634,177.4635,177.9497,177.9498,178.1974,178.1976,36,36,185.1417,space,6.9229,,185.1418,192.2214,space,7.0408,,0,1,1,3,1,20,bars/single003.png,bars/mask005.png,,,,,,,,,,,,,,,,,,,,,,,,,,,,,,,,,,,,,,,,,,,,,,,,,,,,,,,,,,,,,,,,
,,615dd7a74b5d8dd6dc602ca3,65af551ffa16a017ecb780b7,2024-01-23_08h00.34.592,bars,2023.2.3,Win32,60.24096386,657b66ea316d21385b68909f,,,,,,,,,,,192.2391,193.2193,193.2193,193.7185,193.7185,193.969,193.9691,175,175,199.8697,space,5.8787,,199.8698,207.4388,space,7.5305,,0,2,2,0,1,150,bars/single000.png,bars/mask006.png,,,,,,,,,,,,,,,,,,,,,,,,,,,,,,,,,,,,,,,,,,,,,,,,,,,,,,,,,,,,,,,,
,,615dd7a74b5d8dd6dc602ca3,65af551ffa16a017ecb780b7,2024-01-23_08h00.34.592,bars,2023.2.3,Win32,60.24096386,657b66ea316d21385b68909f,,,,,,,,,,,207.4578,208.4558,208.4558,208.9497,208.9498,209.1765,209.1765,34,34,216.1721,space,6.9738,,216.1722,229.0775,space,12.8672,,0,3,3,9,1,20,bars/single009.png,bars/mask006.png,,,,,,,,,,,,,,,,,,,,,,,,,,,,,,,,,,,,,,,,,,,,,,,,,,,,,,,,,,,,,,,,
,,615dd7a74b5d8dd6dc602ca3,65af551ffa16a017ecb780b7,2024-01-23_08h00.34.592,bars,2023.2.3,Win32,60.24096386,657b66ea316d21385b68909f,,,,,,,,,,,229.096,230.0905,230.0905,230.5888,230.5889,230.8145,230.8146,146,146,238.4367,space,7.6013,,238.4368,250.3905,space,11.9133,,0,4,4,2,1,145,bars/single002.png,bars/mask003.png,,,,,,,,,,,,,,,,,,,,,,,,,,,,,,,,,,,,,,,,,,,,,,,,,,,,,,,,,,,,,,,,
,,615dd7a74b5d8dd6dc602ca3,65af551ffa16a017ecb780b7,2024-01-23_08h00.34.592,bars,2023.2.3,Win32,60.24096386,657b66ea316d21385b68909f,,,,,,,,,,,250.409,251.3998,251.3999,251.8848,251.8849,252.133,252.1331,25,25,259.4469,space,7.2919,,259.447,270.6581,space,11.1711,,0,5,5,1,1,20,bars/single001.png,bars/mask006.png,,,,,,,,,,,,,,,,,,,,,,,,,,,,,,,,,,,,,,,,,,,,,,,,,,,,,,,,,,,,,,,,
,,615dd7a74b5d8dd6dc602ca3,65af551ffa16a017ecb780b7,2024-01-23_08h00.34.592,bars,2023.2.3,Win32,60.24096386,657b66ea316d21385b68909f,,,,,,,,,,,270.6759,271.6583,271.6584,272.1359,272.1362,272.3789,272.379,175,175,280.2526,space,7.8508,,280.2527,286.4457,space,6.1549,,0,6,6,6,1,175,bars/single006.png,bars/mask005.png,,,,,,,,,,,,,,,,,,,,,,,,,,,,,,,,,,,,,,,,,,,,,,,,,,,,,,,,,,,,,,,,
,,615dd7a74b5d8dd6dc602ca3,65af551ffa16a017ecb780b7,2024-01-23_08h00.34.592,bars,2023.2.3,Win32,60.24096386,657b66ea316d21385b68909f,,,,,,,,,,,286.4647,287.4645,287.4645,287.9567,287.9567,288.2074,288.2074,45,45,300.3077,space,12.0836,,300.3077,306.375,space,6.0285,,0,7,7,5,1,55,bars/single005.png,bars/mask008.png,,,,,,,,,,,,,,,,,,,,,,,,,,,,,,,,,,,,,,,,,,,,,,,,,,,,,,,,,,,,,,,,
,,615dd7a74b5d8dd6dc602ca3,65af551ffa16a017ecb780b7,2024-01-23_08h00.34.592,bars,2023.2.3,Win32,60.24096386,657b66ea316d21385b68909f,,,,,,,,,,,306.3937,307.3914,307.3915,307.8938,307.8938,308.1254,308.1255,89,89,313.2927,space,5.1501,,313.2929,318.9731,space,5.6241,,0,8,8,4,1,95,bars/single004.png,bars/mask004.png,,,,,,,,,,,,,,,,,,,,,,,,,,,,,,,,,,,,,,,,,,,,,,,,,,,,,,,,,,,,,,,,
,,615dd7a74b5d8dd6dc602ca3,65af551ffa16a017ecb780b7,2024-01-23_08h00.34.592,bars,2023.2.3,Win32,60.24096386,657b66ea316d21385b68909f,,,,,,,,,,,318.9905,319.9878,319.988,320.4815,320.4815,320.7237,320.7237,147,-33,326.4228,space,5.6842,,326.4228,333.4395,space,6.9814,,0,9,9,8,1,160,bars/single008.png,bars/mask004.png,,,,,,,,,,,,,,,,,,,,,,,,,,,,,,,,,,,,,,,,,,,,,,,,,,,,,,,,,,,,,,,,
,,615dd7a74b5d8dd6dc602ca3,65af551ffa16a017ecb780b7,2024-01-23_08h00.34.592,bars,2023.2.3,Win32,60.24096386,657b66ea316d21385b68909f,,,,,,,,,,,,,,,,,,,,,,,,,,,,,,,,,,,,,333.4589,360.3949,space,26.9117,,,,,,,,,,,,,,,,,,,,,,,,,,,,,,,,,,,,,,,,,,,,,,,,,,,,,,,,,,,,
,,615dd7a74b5d8dd6dc602ca3,65af551ffa16a017ecb780b7,2024-01-23_08h00.34.592,bars,2023.2.3,Win32,60.24096386,657b66ea316d21385b68909f,,,,,,,,,,,,,,,,,,,,,,,,,,,,,,,,,,,,,,,,,,360.4181,370.6701,right,10.2252,,370.6704,2,2,371.6697,0,0,0,0,1,9,1,9,2,,,,,,,,,,,,,,,,,,,,,,,,,,,,,,,,,,,,,,,,,
,,615dd7a74b5d8dd6dc602ca3,65af551ffa16a017ecb780b7,2024-01-23_08h00.34.592,bars,2023.2.3,Win32,60.24096386,657b66ea316d21385b68909f,,,,,,,,,,,,,,,,,,,,,,,,,,,,,,,,,,,,,,,,,,371.6711,380.8275,right,9.1408,,380.8276,1,2,381.8254,0,1,1,1,1,10,0,10,1,,,,,,,,,,,,,,,,,,,,,,,,,,,,,,,,,,,,,,,,,
,,615dd7a74b5d8dd6dc602ca3,65af551ffa16a017ecb780b7,2024-01-23_08h00.34.592,bars,2023.2.3,Win32,60.24096386,657b66ea316d21385b68909f,,,,,,,,,,,,,,,,,,,,,,,,,,,,,,,,,,,,,,,,,,381.8445,387.8607,right,6.0028,,387.8608,2,2,388.8627,0,2,2,2,1,10,2,10,2,,,,,,,,,,,,,,,,,,,,,,,,,,,,,,,,,,,,,,,,,
,,615dd7a74b5d8dd6dc602ca3,65af551ffa16a017ecb780b7,2024-01-23_08h00.34.592,bars,2023.2.3,Win32,60.24096386,657b66ea316d21385b68909f,,,,,,,,,,,,,,,,,,,,,,,,,,,,,,,,,,,,,,,,,,388.8802,393.5083,right,4.6138,,393.5084,3,2,394.5105,0,3,3,3,1,8,4,7,3,,,,,,,,,,,,,,,,,,,,,,,,,,,,,,,,,,,,,,,,,
,,615dd7a74b5d8dd6dc602ca3,65af551ffa16a017ecb780b7,2024-01-23_08h00.34.592,bars,2023.2.3,Win32,60.24096386,657b66ea316d21385b68909f,,,,,,,,,,,,,,,,,,,,,,,,,,,,,,,,,,,,,,,,,,394.5273,397.6187,left,3.0781,,397.6188,5,1,398.6208,0,4,4,4,1,6,2,5,1,,,,,,,,,,,,,,,,,,,,,,,,,,,,,,,,,,,,,,,,,
,,615dd7a74b5d8dd6dc602ca3,65af551ffa16a017ecb780b7,2024-01-23_08h00.34.592,bars,2023.2.3,Win32,60.24096386,657b66ea316d21385b68909f,,,,,,,,,,,,,,,,,,,,,,,,,,,,,,,,,,,,,,,,,,398.6379,400.1267,right,1.4757,,400.1268,4,2,401.1272,0,5,5,5,1,4,4,4,4,,,,,,,,,,,,,,,,,,,,,,,,,,,,,,,,,,,,,,,,,
,,615dd7a74b5d8dd6dc602ca3,65af551ffa16a017ecb780b7,2024-01-23_08h00.34.592,bars,2023.2.3,Win32,60.24096386,657b66ea316d21385b68909f,,,,,,,,,,,,,,,,,,,,,,,,,,,,,,,,,,,,,,,,,,401.1285,404.0523,left,2.909,,404.0527,1,1,405.0542,0,6,6,6,1,2,2,1,2,,,,,,,,,,,,,,,,,,,,,,,,,,,,,,,,,,,,,,,,,
,,615dd7a74b5d8dd6dc602ca3,65af551ffa16a017ecb780b7,2024-01-23_08h00.34.592,bars,2023.2.3,Win32,60.24096386,657b66ea316d21385b68909f,,,,,,,,,,,,,,,,,,,,,,,,,,,,,,,,,,,,,,,,,,405.0716,408.5466,left,3.4619,,408.5467,0,1,409.5435,0,7,7,7,1,0,0,0,1,,,,,,,,,,,,,,,,,,,,,,,,,,,,,,,,,,,,,,,,,
,,615dd7a74b5d8dd6dc602ca3,65af551ffa16a017ecb780b7,2024-01-23_08h00.34.592,bars,2023.2.3,Win32,60.24096386,657b66ea316d21385b68909f,,,,,,,,,,,,,,,,,,,,,,,,,,,,,,,,,,,,,,,,,,409.5621,411.7564,right,2.1778,,411.7565,0,2,412.7483,0,8,8,8,1,0,2,1,0,,,,,,,,,,,,,,,,,,,,,,,,,,,,,,,,,,,,,,,,,
,,615dd7a74b5d8dd6dc602ca3,65af551ffa16a017ecb780b7,2024-01-23_08h00.34.592,bars,2023.2.3,Win32,60.24096386,657b66ea316d21385b68909f,,,,,,,,,,,,,,,,,,,,,,,,,,,,,,,,,,,,,,,,,,412.7655,414.1274,right,1.3464,,414.1274,3,2,415.1293,0,9,9,9,1,2,4,2,3,,,,,,,,,,,,,,,,,,,,,,,,,,,,,,,,,,,,,,,,,
,,615dd7a74b5d8dd6dc602ca3,65af551ffa16a017ecb780b7,2024-01-23_08h00.34.592,bars,2023.2.3,Win32,60.24096386,657b66ea316d21385b68909f,,,,,,,,,,,,,,,,,,,,,,,,,,,,,,,,,,,,,,,,,,415.1309,415.9996,left,0.8549,,415.9998,0,1,417.0605,0,10,10,10,1,0,2,0,3,,,,,,,,,,,,,,,,,,,,,,,,,,,,,,,,,,,,,,,,,
,,615dd7a74b5d8dd6dc602ca3,65af551ffa16a017ecb780b7,2024-01-23_08h00.34.592,bars,2023.2.3,Win32,60.24096386,657b66ea316d21385b68909f,,,,,,,,,,,,,,,,,,,,,,,,,,,,,,,,,,,,,,,,,,417.0613,430.0345,left,12.959,,430.0346,0,1,431.0366,0,11,11,11,1,0,4,0,3,,,,,,,,,,,,,,,,,,,,,,,,,,,,,,,,,,,,,,,,,
,,615dd7a74b5d8dd6dc602ca3,65af551ffa16a017ecb780b7,2024-01-23_08h00.34.592,bars,2023.2.3,Win32,60.24096386,657b66ea316d21385b68909f,,,,,,,,,,,,,,,,,,,,,,,,,,,,,,,,,,,,,,,,,,431.0554,432.4755,right,1.4062,,432.4755,6,2,433.4761,0,12,12,12,1,2,6,1,6,,,,,,,,,,,,,,,,,,,,,,,,,,,,,,,,,,,,,,,,,
,,615dd7a74b5d8dd6dc602ca3,65af551ffa16a017ecb780b7,2024-01-23_08h00.34.592,bars,2023.2.3,Win32,60.24096386,657b66ea316d21385b68909f,,,,,,,,,,,,,,,,,,,,,,,,,,,,,,,,,,,,,,,,,,433.4773,434.564,right,1.0707,,434.564,3,2,435.5648,0,13,13,13,1,0,4,1,3,,,,,,,,,,,,,,,,,,,,,,,,,,,,,,,,,,,,,,,,,
,,615dd7a74b5d8dd6dc602ca3,65af551ffa16a017ecb780b7,2024-01-23_08h00.34.592,bars,2023.2.3,Win32,60.24096386,657b66ea316d21385b68909f,,,,,,,,,,,,,,,,,,,,,,,,,,,,,,,,,,,,,,,,,,435.566,437.1384,right,1.5563,,437.1384,7,2,438.1383,0,14,14,14,1,2,6,2,7,,,,,,,,,,,,,,,,,,,,,,,,,,,,,,,,,,,,,,,,,
,,615dd7a74b5d8dd6dc602ca3,65af551ffa16a017ecb780b7,2024-01-23_08h00.34.592,bars,2023.2.3,Win32,60.24096386,657b66ea316d21385b68909f,,,,,,,,,,,,,,,,,,,,,,,,,,,,,,,,,,,,,,,,,,438.1394,439.2928,right,1.1376,,439.2929,9,2,440.2963,0,15,15,15,1,4,8,3,9,,,,,,,,,,,,,,,,,,,,,,,,,,,,,,,,,,,,,,,,,
,,615dd7a74b5d8dd6dc602ca3,65af551ffa16a017ecb780b7,2024-01-23_08h00.34.592,bars,2023.2.3,Win32,60.24096386,657b66ea316d21385b68909f,,,,,,,,,,,,,,,,,,,,,,,,,,,,,,,,,,,,,,,,,,440.297,441.0808,right,0.7699,,441.0808,7,2,442.0808,0,16,16,16,1,6,6,7,7,,,,,,,,,,,,,,,,,,,,,,,,,,,,,,,,,,,,,,,,,
,,615dd7a74b5d8dd6dc602ca3,65af551ffa16a017ecb780b7,2024-01-23_08h00.34.592,bars,2023.2.3,Win32,60.24096386,657b66ea316d21385b68909f,,,,,,,,,,,,,,,,,,,,,,,,,,,,,,,,,,,,,,,,,,442.0818,443.3683,right,1.27,,443.3684,5,2,444.3702,0,17,17,17,1,8,4,9,5,,,,,,,,,,,,,,,,,,,,,,,,,,,,,,,,,,,,,,,,,
,,615dd7a74b5d8dd6dc602ca3,65af551ffa16a017ecb780b7,2024-01-23_08h00.34.592,bars,2023.2.3,Win32,60.24096386,657b66ea316d21385b68909f,,,,,,,,,,,,,,,,,,,,,,,,,,,,,,,,,,,,,,,,,,444.3715,446.008,right,1.6223,,446.0081,1,2,447.0009,0,18,18,18,1,6,2,5,1,,,,,,,,,,,,,,,,,,,,,,,,,,,,,,,,,,,,,,,,,
,,615dd7a74b5d8dd6dc602ca3,65af551ffa16a017ecb780b7,2024-01-23_08h00.34.592,bars,2023.2.3,Win32,60.24096386,657b66ea316d21385b68909f,,,,,,,,,,,,,,,,,,,,,,,,,,,,,,,,,,,,,,,,,,447.0019,449.0179,left,2.0008,,449.0179,7,1,450.0196,0,19,19,19,1,8,0,7,0,,,,,,,,,,,,,,,,,,,,,,,,,,,,,,,,,,,,,,,,,
,,615dd7a74b5d8dd6dc602ca3,65af551ffa16a017ecb780b7,2024-01-23_08h00.34.592,bars,2023.2.3,Win32,60.24096386,657b66ea316d21385b68909f,,,,,,,,,,,,,,,,,,,,,,,,,,,,,,,,,,,,,,,,,,,,,,,,,,,,,,,,,,,,450.0207,493.9323,space,43.8873,,,,,,,,,,,,,,,,,,,,,,,,,,,,,,,,,,,,,
,,615dd7a74b5d8dd6dc602ca3,65af551ffa16a017ecb780b7,2024-01-23_08h00.34.592,bars,2023.2.3,Win32,60.24096386,657b66ea316d21385b68909f,,,,,,,,,,,495.6925,496.6865,,,497.1878,497.4386,,133,133,,,,,,,,,,,,,,,,bars/018.png,bars/mask005.png,,,,,,,,,,,,4,1,,,,,,,9,7,10,7,,,,,,493.9536,495.6848,space,1.7147,,496.6868,497.1878,497.439,505.8111,space,8.3489,,505.8115,17,43,506.812,506.8122,527.5512,space,20.7109,,0,0,0,0,1,150,90,,,,,,,,
,,615dd7a74b5d8dd6dc602ca3,65af551ffa16a017ecb780b7,2024-01-23_08h00.34.592,bars,2023.2.3,Win32,60.24096386,657b66ea316d21385b68909f,,,,,,,,,,,527.5696,528.567,,,529.0522,529.2695,,14,194,,,,,,,,,,,,,,,,bars/038.png,bars/mask001.png,,,,,,,,,,,,0,1,,,,,,,7,5,7,4,,,,,,,,,,,528.5671,529.0522,529.2695,536.5882,space,7.2995,,536.5885,29,56,537.5901,537.5903,549.8732,space,12.2486,,0,1,1,1,1,165,70,,,,,,,,
,,615dd7a74b5d8dd6dc602ca3,65af551ffa16a017ecb780b7,2024-01-23_08h00.34.592,bars,2023.2.3,Win32,60.24096386,657b66ea316d21385b68909f,,,,,,,,,,,549.8905,550.8737,,,551.3752,551.6256,,125,125,,,,,,,,,,,,,,,,bars/002.png,bars/mask001.png,,,,,,,,,,,,3,1,,,,,,,5,7,3,7,,,,,,,,,,,550.874,551.3752,551.6257,557.1818,space,5.5403,,557.1818,5,40,558.1753,558.1754,562.255,space,4.0444,,0,2,2,2,1,130,85,,,,,,,,
,,615dd7a74b5d8dd6dc602ca3,65af551ffa16a017ecb780b7,2024-01-23_08h00.34.592,bars,2023.2.3,Win32,60.24096386,657b66ea316d21385b68909f,,,,,,,,,,,562.2719,563.2556,,,563.7513,564.2326,,99,99,,,,,,,,,,,,,,,,bars/046.png,bars/mask004.png,,,,,,,,,,,,3,2,,,,,,,7,5,6,6,,,,,,,,,,,563.2558,563.7512,564.2327,569.8055,space,5.5257,,569.8055,56,14,570.8149,570.8149,577.143,space,6.2754,,0,3,3,3,1,155,85,,,,,,,,
,,615dd7a74b5d8dd6dc602ca3,65af551ffa16a017ecb780b7,2024-01-23_08h00.34.592,bars,2023.2.3,Win32,60.24096386,657b66ea316d21385b68909f,,,,,,,,,,,577.16,578.1432,,,578.6453,578.8954,,34,214,,,,,,,,,,,,,,,,bars/033.png,bars/mask009.png,,,,,,,,,,,,6,1,,,,,,,9,7,9,7,,,,,,,,,,,578.1434,578.6453,578.8954,582.9898,space,4.0757,,582.9899,9,59,583.9914,583.9916,592.5325,space,8.4982,,0,4,4,4,1,25,155,,,,,,,,
,,615dd7a74b5d8dd6dc602ca3,65af551ffa16a017ecb780b7,2024-01-23_08h00.34.592,bars,2023.2.3,Win32,60.24096386,657b66ea316d21385b68909f,,,,,,,,,,,592.5514,593.5488,,,594.0334,594.2842,,29,29,,,,,,,,,,,,,,,,bars/007.png,bars/mask002.png,,,,,,,,,,,,1,2,,,,,,,7,5,6,5,,,,,,,,,,,593.5488,594.0333,594.2844,601.0192,space,6.7178,,601.0192,34,26,602.023,602.0231,605.8887,space,3.8291,,0,5,5,5,1,175,55,,,,,,,,
,,615dd7a74b5d8dd6dc602ca3,65af551ffa16a017ecb780b7,2024-01-23_08h00.34.592,bars,2023.2.3,Win32,60.24096386,657b66ea316d21385b68909f,,,,,,,,,,,605.9092,606.8993,,,607.4007,607.6512,,141,141,,,,,,,,,,,,,,,,bars/018.png,bars/mask008.png,,,,,,,,,,,,4,1,,,,,,,5,3,5,3,,,,,,,,,,,606.8995,607.4007,607.6513,613.786,space,6.1183,,613.7861,9,51,614.786,614.786,619.1159,space,4.2918,,0,6,6,6,1,150,90,,,,,,,,
,,615dd7a74b5d8dd6dc602ca3,65af551ffa16a017ecb780b7,2024-01-23_08h00.34.592,bars,2023.2.3,Win32,60.24096386,657b66ea316d21385b68909f,,,,,,,,,,,619.1335,620.1187,,,620.6175,620.9292,,43,223,,,,,,,,,,,,,,,,bars/042.png,bars/mask006.png,,,,,,,,,,,,0,2,,,,,,,7,1,7,2,,,,,,,,,,,620.1188,620.6175,620.9292,624.912,space,3.9647,,624.9121,78,32,625.9142,625.9143,631.4769,space,5.5247,,0,7,7,7,1,145,75,,,,,,,,
,,615dd7a74b5d8dd6dc602ca3,65af551ffa16a017ecb780b7,2024-01-23_08h00.34.592,bars,2023.2.3,Win32,60.24096386,657b66ea316d21385b68909f,,,,,,,,,,,631.4946,632.4782,,,633.0242,633.0718,,109,109,,,,,,,,,,,,,,,,bars/013.png,bars/mask000.png,,,,,,,,,,,,0,1,,,,,,,9,3,9,3,,,,,,,,,,,632.4782,633.0241,633.0718,637.8291,space,4.7386,,637.8293,34,81,638.8317,638.8319,643.5286,space,4.6565,,0,8,8,8,1,75,10,,,,,,,,
,,615dd7a74b5d8dd6dc602ca3,65af551ffa16a017ecb780b7,2024-01-23_08h00.34.592,bars,2023.2.3,Win32,60.24096386,657b66ea316d21385b68909f,,,,,,,,,,,643.5457,644.5448,,,645.0297,645.2054,,124,124,,,,,,,,,,,,,,,,bars/040.png,bars/mask007.png,,,,,,,,,,,,5,1,,,,,,,10,5,10,8,,,,,,,,,,,644.5449,645.0295,645.2055,651.8821,space,6.6539,,651.8821,16,61,652.8826,652.8826,655.9588,space,3.0408,,0,9,9,9,1,140,5,,,,,,,,
,,615dd7a74b5d8dd6dc602ca3,65af551ffa16a017ecb780b7,2024-01-23_08h00.34.592,bars,2023.2.3,Win32,60.24096386,657b66ea316d21385b68909f,,,,,,,,,,,655.9787,656.9598,,,658.9578,658.9588,,135,135,,,,,,,,,,,,,,,,bars/035.png,bars/mask000.png,,,,,,,,,,,,0,1,,,,,,,8,7,7,5,,,,,,,,,,,656.9598,658.9578,658.9589,666.3029,space,7.3272,,666.303,40,75,667.3029,667.303,671.7122,space,4.3716,,0,10,10,10,1,175,60,,,,,,,,
,,615dd7a74b5d8dd6dc602ca3,65af551ffa16a017ecb780b7,2024-01-23_08h00.34.592,bars,2023.2.3,Win32,60.24096386,657b66ea316d21385b68909f,,,,,,,,,,,671.7302,672.7165,,,673.0458,673.2842,,3,183,,,,,,,,,,,,,,,,bars/039.png,bars/mask002.png,,,,,,,,,,,,7,1,,,,,,,10,5,10,5,,,,,,,,,,,672.7167,673.0457,673.2843,679.6531,space,6.3529,,679.6531,8,78,680.6536,680.6536,684.6136,space,3.9232,,0,11,11,11,1,175,105,,,,,,,,
,,615dd7a74b5d8dd6dc602ca3,65af551ffa16a017ecb780b7,2024-01-23_08h00.34.592,bars,2023.2.3,Win32,60.24096386,657b66ea316d21385b68909f,,,,,,,,,,,684.6315,685.616,,,686.1049,686.3509,,136,136,,,,,,,,,,,,,,,,bars/016.png,bars/mask006.png,,,,,,,,,,,,0,2,,,,,,,10,3,8,2,,,,,,,,,,,685.616,686.1049,686.3509,692.2185,space,5.8504,,692.2186,84,29,693.2184,693.2186,698.1488,space,4.8908,,0,12,12,12,1,40,165,,,,,,,,
,,615dd7a74b5d8dd6dc602ca3,65af551ffa16a017ecb780b7,2024-01-23_08h00.34.592,bars,2023.2.3,Win32,60.24096386,657b66ea316d21385b68909f,,,,,,,,,,,698.1659,699.1499,,,699.6511,699.9021,,131,131,,,,,,,,,,,,,,,,bars/043.png,bars/mask000.png,,,,,,,,,,,,5,2,,,,,,,8,5,7,5,,,,,,,,,,,699.1499,699.6511,699.9021,706.0748,space,6.1578,,706.0749,79,1,707.0704,707.0705,711.985,space,4.8777,,0,13,13,13,1,30,130,,,,,,,,
,,615dd7a74b5d8dd6dc602ca3,65af551ffa16a017ecb780b7,2024-01-23_08h00.34.592,bars,2023.2.3,Win32,60.24096386,657b66ea316d21385b68909f,,,,,,,,,,,712.002,713.0017,,,713.4866,713.7369,,58,238,,,,,,,,,,,,,,,,bars/035.png,bars/mask006.png,,,,,,,,,,,,6,2,,,,,,,10,7,9,6,,,,,,,,,,,713.0018,713.4866,713.737,719.6714,space,5.9183,,719.6715,63,2,720.671,720.6712,724.1321,space,3.4257,,0,14,14,14,1,175,60,,,,,,,,
,,615dd7a74b5d8dd6dc602ca3,65af551ffa16a017ecb780b7,2024-01-23_08h00.34.592,bars,2023.2.3,Win32,60.24096386,657b66ea316d21385b68909f,,,,,,,,,,,724.1491,725.1324,,,725.6337,725.8845,,144,144,,,,,,,,,,,,,,,,bars/016.png,bars/mask000.png,,,,,,,,,,,,3,2,,,,,,,8,9,9,10,,,,,,,,,,,725.1326,725.6336,725.8846,732.4364,space,6.5354,,732.4365,76,21,733.437,733.4371,736.5636,space,3.0912,,0,15,15,15,1,40,165,,,,,,,,
,,615dd7a74b5d8dd6dc602ca3,65af551ffa16a017ecb780b7,2024-01-23_08h00.34.592,bars,2023.2.3,Win32,60.24096386,657b66ea316d21385b68909f,,,,,,,,,,,736.5807,737.5645,,,738.0653,738.3162,,108,108,,,,,,,,,,,,,,,,bars/002.png,bars/mask004.png,,,,,,,,,,,,2,1,,,,,,,6,10,6,10,,,,,,,,,,,737.5645,738.0653,738.3162,745.7537,space,7.4215,,745.7538,22,23,746.755,746.755,751.4835,space,4.6885,,0,16,16,16,1,130,85,,,,,,,,
,,615dd7a74b5d8dd6dc602ca3,65af551ffa16a017ecb780b7,2024-01-23_08h00.34.592,bars,2023.2.3,Win32,60.24096386,657b66ea316d21385b68909f,,,,,,,,,,,751.5016,752.4858,,,753.3458,753.3472,,159,159,,,,,,,,,,,,,,,,bars/022.png,bars/mask000.png,,,,,,,,,,,,0,2,,,,,,,8,10,8,8,,,,,,,,,,,752.4858,753.3458,753.3472,757.5584,space,4.1945,,757.5585,64,41,758.5512,758.5512,760.073,space,1.4813,,0,17,17,17,1,95,20,,,,,,,,
,,615dd7a74b5d8dd6dc602ca3,65af551ffa16a017ecb780b7,2024-01-23_08h00.34.592,bars,2023.2.3,Win32,60.24096386,657b66ea316d21385b68909f,,,,,,,,,,,760.0736,761.0738,,,761.5749,761.8256,,147,-33,,,,,,,,,,,,,,,,bars/044.png,bars/mask006.png,,,,,,,,,,,,7,2,,,,,,,10,10,10,10,,,,,,,,,,,761.074,761.5748,761.8256,768.5284,space,6.6879,,768.5285,72,8,769.5287,769.5287,773.5078,space,3.9433,,0,18,18,18,1,75,155,,,,,,,,
,,615dd7a74b5d8dd6dc602ca3,65af551ffa16a017ecb780b7,2024-01-23_08h00.34.592,bars,2023.2.3,Win32,60.24096386,657b66ea316d21385b68909f,,,,,,,,,,,773.5246,774.5244,,,775.0093,775.2601,,138,138,,,,,,,,,,,,,,,,bars/042.png,bars/mask002.png,,,,,,,,,,,,6,1,,,,,,,8,10,8,10,,,,,,,,,,,774.5245,775.0091,775.2602,782.4138,space,7.1377,,782.4139,7,63,783.4142,783.4143,785.7872,space,2.3333,,0,19,19,19,1,145,75,,,,,,,,
,,615dd7a74b5d8dd6dc602ca3,65af551ffa16a017ecb780b7,2024-01-23_08h00.34.592,bars,2023.2.3,Win32,60.24096386,657b66ea316d21385b68909f,,,,,,,,,,,785.7884,786.7888,,,787.1902,787.1919,,136,136,,,,,,,,,,,,,,,,bars/008.png,bars/mask008.png,,,,,,,,,,,,1,1,,,,,,,6,10,6,10,,,,,,,,,,,786.789,787.1901,787.1919,793.3064,space,6.0995,,793.3064,26,44,794.3078,794.3079,797.8193,space,3.475,,0,20,20,20,1,110,0,,,,,,,,
,,615dd7a74b5d8dd6dc602ca3,65af551ffa16a017ecb780b7,2024-01-23_08h00.34.592,bars,2023.2.3,Win32,60.24096386,657b66ea316d21385b68909f,,,,,,,,,,,797.8197,798.8796,,,799.3213,799.5771,,6,186,,,,,,,,,,,,,,,,bars/023.png,bars/mask003.png,,,,,,,,,,,,5,1,,,,,,,8,10,10,10,,,,,,,,,,,798.8796,799.3213,799.5772,806.0388,space,6.4408,,806.0389,14,71,807.0409,807.041,810.0483,space,2.9693,,0,21,21,21,1,20,115,,,,,,,,
,,615dd7a74b5d8dd6dc602ca3,65af551ffa16a017ecb780b7,2024-01-23_08h00.34.592,bars,2023.2.3,Win32,60.24096386,657b66ea316d21385b68909f,,,,,,,,,,,810.0494,811.051,,,811.5488,811.8024,,117,117,,,,,,,,,,,,,,,,bars/036.png,bars/mask000.png,,,,,,,,,,,,1,1,,,,,,,6,8,8,8,,,,,,,,,,,811.0511,811.5487,811.8025,814.9121,space,3.0945,,814.9122,28,83,815.9133,815.9134,817.5861,space,1.6372,,0,22,22,22,1,145,20,,,,,,,,
,,615dd7a74b5d8dd6dc602ca3,65af551ffa16a017ecb780b7,2024-01-23_08h00.34.592,bars,2023.2.3,Win32,60.24096386,657b66ea316d21385b68909f,,,,,,,,,,,817.5866,818.5863,,,819.0882,819.3383,,142,-38,,,,,,,,,,,,,,,,bars/044.png,bars/mask002.png,,,,,,,,,,,,5,2,,,,,,,8,10,7,9,,,,,,,,,,,818.5865,819.088,819.3383,824.8024,space,5.447,,824.8025,67,13,825.8051,825.8051,829.7659,space,3.9213,,0,23,23,23,1,75,155,,,,,,,,
,,615dd7a74b5d8dd6dc602ca3,65af551ffa16a017ecb780b7,2024-01-23_08h00.34.592,bars,2023.2.3,Win32,60.24096386,657b66ea316d21385b68909f,,,,,,,,,,,829.7831,830.7671,,,831.2774,831.519,,43,43,,,,,,,,,,,,,,,,bars/017.png,bars/mask008.png,,,,,,,,,,,,9,2,,,,,,,6,10,7,10,,,,,,,,,,,830.7673,831.2774,831.519,836.1162,space,4.5806,,836.1163,78,2,837.1169,837.1171,839.274,space,2.1219,,0,24,24,24,1,145,45,,,,,,,,
,,615dd7a74b5d8dd6dc602ca3,65af551ffa16a017ecb780b7,2024-01-23_08h00.34.592,bars,2023.2.3,Win32,60.24096386,657b66ea316d21385b68909f,,,,,,,,,,,839.2744,840.2749,,,840.7764,841.0271,,171,-9,,,,,,,,,,,,,,,,bars/032.png,bars/mask009.png,,,,,,,,,,,,0,2,,,,,,,4,8,4,8,,,,,,,,,,,840.2749,840.7764,841.0271,845.1876,space,4.1421,,845.1877,46,29,846.1902,846.1902,851.6557,space,5.4304,,0,25,25,25,1,125,20,,,,,,,,
,,615dd7a74b5d8dd6dc602ca3,65af551ffa16a017ecb780b7,2024-01-23_08h00.34.592,bars,2023.2.3,Win32,60.24096386,657b66ea316d21385b68909f,,,,,,,,,,,851.6729,852.6733,,,853.1574,853.4083,,119,119,,,,,,,,,,,,,,,,bars/040.png,bars/mask004.png,,,,,,,,,,,,1,1,,,,,,,2,10,3,10,,,,,,,,,,,852.6734,853.1574,853.4083,855.4957,space,2.0679,,855.4959,21,66,856.4964,856.4964,859.4755,space,2.9568,,0,26,26,26,1,140,5,,,,,,,,
,,615dd7a74b5d8dd6dc602ca3,65af551ffa16a017ecb780b7,2024-01-23_08h00.34.592,bars,2023.2.3,Win32,60.24096386,657b66ea316d21385b68909f,,,,,,,,,,,859.4918,860.4758,,,860.9772,861.228,,30,210,,,,,,,,,,,,,,,,bars/018.png,bars/mask007.png,,,,,,,,,,,,0,2,,,,,,,0,8,0,9,,,,,,,,,,,860.4761,860.9771,861.2281,868.2809,space,7.0365,,868.2809,60,60,869.2819,869.282,876.8362,space,7.5153,,0,27,27,27,1,150,90,,,,,,,,
,,615dd7a74b5d8dd6dc602ca3,65af551ffa16a017ecb780b7,2024-01-23_08h00.34.592,bars,2023.2.3,Win32,60.24096386,657b66ea316d21385b68909f,,,,,,,,,,,876.8545,877.8368,,,878.3381,878.5888,,31,211,,,,,,,,,,,,,,,,bars/007.png,bars/mask008.png,,,,,,,,,,,,2,2,,,,,,,0,10,0,10,,,,,,,,,,,877.8368,878.338,878.5889,886.2268,space,7.6216,,886.2268,36,24,887.2274,887.2276,889.7519,space,2.4882,,0,28,28,28,1,175,55,,,,,,,,
,,615dd7a74b5d8dd6dc602ca3,65af551ffa16a017ecb780b7,2024-01-23_08h00.34.592,bars,2023.2.3,Win32,60.24096386,657b66ea316d21385b68909f,,,,,,,,,,,889.7525,890.7529,,,891.2542,891.5047,,115,-65,,,,,,,,,,,,,,,,bars/049.png,bars/mask009.png,,,,,,,,,,,,9,2,,,,,,,2,10,2,9,,,,,,,,,,,890.7529,891.254,891.5049,898.3072,space,6.7861,,898.3074,45,0,899.3077,899.3078,903.7532,space,4.4102,,0,29,29,29,1,160,115,,,,,,,,
,,615dd7a74b5d8dd6dc602ca3,65af551ffa16a017ecb780b7,2024-01-23_08h00.34.592,bars,2023.2.3,Win32,60.24096386,657b66ea316d21385b68909f,,,,,,,,,,,903.7699,904.7548,,,905.2563,905.5067,,10,190,,,,,,,,,,,,,,,,bars/033.png,bars/mask005.png,,,,,,,,,,,,0,1,,,,,,,0,8,0,8,,,,,,,,,,,904.7548,905.2562,905.5068,909.9197,space,4.3959,,909.9197,15,35,910.9207,910.9208,918.7426,space,7.7827,,0,30,30,30,1,25,155,,,,,,,,
,,615dd7a74b5d8dd6dc602ca3,65af551ffa16a017ecb780b7,2024-01-23_08h00.34.592,bars,2023.2.3,Win32,60.24096386,657b66ea316d21385b68909f,,,,,,,,,,,918.7606,919.745,,,920.2447,920.4948,,116,116,,,,,,,,,,,,,,,,bars/025.png,bars/mask004.png,,,,,,,,,,,,2,1,,,,,,,2,10,3,9,,,,,,,,,,,919.745,920.2447,920.4949,924.8586,space,4.3473,,924.8586,11,76,925.8587,925.8589,928.5902,space,2.6972,,0,31,31,31,1,105,40,,,,,,,,
,,615dd7a74b5d8dd6dc602ca3,65af551ffa16a017ecb780b7,2024-01-23_08h00.34.592,bars,2023.2.3,Win32,60.24096386,657b66ea316d21385b68909f,,,,,,,,,,,928.5906,929.5844,,,930.0856,930.3367,,131,131,,,,,,,,,,,,,,,,bars/019.png,bars/mask005.png,,,,,,,,,,,,1,2,,,,,,,4,10,3,10,,,,,,,,,,,929.5844,930.0855,930.3367,936.337,space,5.9842,,936.3371,86,26,937.3375,937.3375,939.5121,space,2.137,,0,32,32,32,1,45,105,,,,,,,,
,,615dd7a74b5d8dd6dc602ca3,65af551ffa16a017ecb780b7,2024-01-23_08h00.34.592,bars,2023.2.3,Win32,60.24096386,657b66ea316d21385b68909f,,,,,,,,,,,939.5125,940.5122,,,941.0139,941.2641,,152,152,,,,,,,,,,,,,,,,bars/044.png,bars/mask001.png,,,,,,,,,,,,9,2,,,,,,,2,10,4,10,,,,,,,,,,,940.5123,941.0138,941.2641,942.4349,space,1.154,,942.435,77,3,943.585,943.5851,949.8558,space,6.2526,,0,33,33,33,1,75,155,,,,,,,,
,,615dd7a74b5d8dd6dc602ca3,65af551ffa16a017ecb780b7,2024-01-23_08h00.34.592,bars,2023.2.3,Win32,60.24096386,657b66ea316d21385b68909f,,,,,,,,,,,949.8757,950.8715,,,951.3582,951.6076,,138,138,,,,,,,,,,,,,,,,bars/001.png,bars/mask008.png,,,,,,,,,,,,0,1,,,,,,,0,8,0,8,,,,,,,,,,,950.8717,951.3581,951.6077,958.778,space,7.155,,958.7781,8,53,959.7778,959.7778,966.0629,space,6.2444,,0,34,34,34,1,130,85,,,,,,,,
,,615dd7a74b5d8dd6dc602ca3,65af551ffa16a017ecb780b7,2024-01-23_08h00.34.592,bars,2023.2.3,Win32,60.24096386,657b66ea316d21385b68909f,,,,,,,,,,,966.0808,967.0632,,,967.5645,967.815,,49,229,,,,,,,,,,,,,,,,bars/025.png,bars/mask009.png,,,,,,,,,,,,4,2,,,,,,,2,6,2,6,,,,,,,,,,,967.0634,967.5644,967.815,972.1111,space,4.2796,,972.1111,56,9,973.1118,973.1118,974.8688,space,1.7195,,0,35,35,35,1,105,40,,,,,,,,
,,615dd7a74b5d8dd6dc602ca3,65af551ffa16a017ecb780b7,2024-01-23_08h00.34.592,bars,2023.2.3,Win32,60.24096386,657b66ea316d21385b68909f,,,,,,,,,,,974.8692,975.869,,,976.3701,976.6206,,127,127,,,,,,,,,,,,,,,,bars/036.png,bars/mask006.png,,,,,,,,,,,,2,1,,,,,,,4,4,4,4,,,,,,,,,,,975.869,976.3701,976.6207,980.8823,space,4.245,,980.8823,18,73,981.8844,981.8844,983.39,space,1.4673,,0,36,36,36,1,145,20,,,,,,,,
,,615dd7a74b5d8dd6dc602ca3,65af551ffa16a017ecb780b7,2024-01-23_08h00.34.592,bars,2023.2.3,Win32,60.24096386,657b66ea316d21385b68909f,,,,,,,,,,,983.3905,984.3908,,,984.8919,985.1424,,135,135,,,,,,,,,,,,,,,,bars/004.png,bars/mask001.png,,,,,,,,,,,,5,2,,,,,,,2,6,3,8,,,,,,,,,,,984.3908,984.8918,985.1424,992.5781,space,7.4174,,992.5782,70,10,993.6041,993.6042,996.9076,space,3.2627,,0,37,37,37,1,25,125,,,,,,,,
,,615dd7a74b5d8dd6dc602ca3,65af551ffa16a017ecb780b7,2024-01-23_08h00.34.592,bars,2023.2.3,Win32,60.24096386,657b66ea316d21385b68909f,,,,,,,,,,,996.9252,997.9079,,,998.4094,998.658,,45,45,,,,,,,,,,,,,,,,bars/017.png,bars/mask008.png,,,,,,,,,,,,7,2,,,,,,,4,8,4,7,,,,,,,,,,,997.9079,998.4093,998.6594,1006.753,space,8.0774,,1006.7531,80,0,1007.7516,1007.7516,1012.7467,space,4.9559,,0,38,38,38,1,145,45,,,,,,,,
,,615dd7a74b5d8dd6dc602ca3,65af551ffa16a017ecb780b7,2024-01-23_08h00.34.592,bars,2023.2.3,Win32,60.24096386,657b66ea316d21385b68909f,,,,,,,,,,,1012.7643,1013.7563,,,1014.249,1014.5002,,112,112,,,,,,,,,,,,,,,,bars/002.png,bars/mask002.png,,,,,,,,,,,,2,1,,,,,,,6,10,5,10,,,,,,,,,,,1013.7563,1014.2489,1014.5003,1018.6776,space,4.1619,,1018.6776,18,27,1019.6797,1019.6798,1024.0695,space,4.351,,0,39,39,39,1,130,85,,,,,,,,
,,615dd7a74b5d8dd6dc602ca3,65af551ffa16a017ecb780b7,2024-01-23_08h00.34.592,bars,2023.2.3,Win32,60.24096386,657b66ea316d21385b68909f,,,,,,,,,,,1024.086,1025.0766,,,1025.5781,1025.829,,122,122,,,,,,,,,,,,,,,,bars/026.png,bars/mask004.png,,,,,,,,,,,,0,2,,,,,,,8,8,6,8,,,,,,,,,,,1025.0767,1025.5781,1025.8291,1026.9837,space,1.1386,,1026.9839,87,37,1027.9842,1027.9843,1032.3642,space,4.3566,,0,40,40,40,1,35,85,,,,,,,,
,,615dd7a74b5d8dd6dc602ca3,65af551ffa16a017ecb780b7,2024-01-23_08h00.34.592,bars,2023.2.3,Win32,60.24096386,657b66ea316d21385b68909f,,,,,,,,,,,1032.3813,1033.3644,,,1033.8657,1034.1164,,135,135,,,,,,,,,,,,,,,,bars/049.png,bars/mask008.png,,,,,,,,,,,,2,2,,,,,,,6,6,5,6,,,,,,,,,,,1033.3646,1033.8657,1034.1165,1042.3375,space,8.203,,1042.3376,25,20,1043.3399,1043.3399,1044.8628,space,1.4877,,0,41,41,41,1,160,115,,,,,,,,
,,615dd7a74b5d8dd6dc602ca3,65af551ffa16a017ecb780b7,2024-01-23_08h00.34.592,bars,2023.2.3,Win32,60.24096386,657b66ea316d21385b68909f,,,,,,,,,,,1044.8635,1045.8628,,,1046.3643,1046.6158,,33,33,,,,,,,,,,,,,,,,bars/017.png,bars/mask008.png,,,,,,,,,,,,4,2,,,,,,,4,8,6,7,,,,,,,,,,,1045.8628,1046.3643,1046.6159,1050.258,space,3.6244,,1050.2581,68,12,1051.2599,1051.2602,1052.7838,space,1.4905,,0,42,42,42,1,145,45,,,,,,,,
,,615dd7a74b5d8dd6dc602ca3,65af551ffa16a017ecb780b7,2024-01-23_08h00.34.592,bars,2023.2.3,Win32,60.24096386,657b66ea316d21385b68909f,,,,,,,,,,,1052.7844,1053.7829,,,1054.2818,1054.533,,18,18,,,,,,,,,,,,,,,,bars/023.png,bars/mask001.png,,,,,,,,,,,,5,1,,,,,,,6,10,5,9,,,,,,,,,,,1053.783,1054.2818,1054.5331,1057.8956,space,3.3456,,1057.8956,2,83,1058.8458,1058.8458,1060.3352,space,1.4468,,0,43,43,43,1,20,115,,,,,,,,
,,615dd7a74b5d8dd6dc602ca3,65af551ffa16a017ecb780b7,2024-01-23_08h00.34.592,bars,2023.2.3,Win32,60.24096386,657b66ea316d21385b68909f,,,,,,,,,,,1060.3356,1061.3354,,,1061.8368,1062.0874,,39,219,,,,,,,,,,,,,,,,bars/016.png,bars/mask007.png,,,,,,,,,,,,4,1,,,,,,,4,8,4,6,,,,,,,,,,,1061.3356,1061.8368,1062.0875,1069.9415,space,7.8371,,1069.9417,1,54,1070.9434,1070.9435,1074.9371,space,3.9581,,0,44,44,44,1,40,165,,,,,,,,
,,615dd7a74b5d8dd6dc602ca3,65af551ffa16a017ecb780b7,2024-01-23_08h00.34.592,bars,2023.2.3,Win32,60.24096386,657b66ea316d21385b68909f,,,,,,,,,,,1074.9544,1075.9397,,,1076.4415,1076.6926,,81,81,,,,,,,,,,,,,,,,bars/018.png,bars/mask006.png,,,,,,,,,,,,6,2,,,,,,,6,10,6,8,,,,,,,,,,,1075.9397,1076.4415,1076.6927,1082.1226,space,5.4139,,1082.1227,69,9,1083.1244,1083.1244,1085.2651,space,2.098,,0,45,45,45,1,150,90,,,,,,,,
,,615dd7a74b5d8dd6dc602ca3,65af551ffa16a017ecb780b7,2024-01-23_08h00.34.592,bars,2023.2.3,Win32,60.24096386,657b66ea316d21385b68909f,,,,,,,,,,,1085.2655,1086.2657,,,1086.7668,1087.0173,,115,-65,,,,,,,,,,,,,,,,bars/040.png,bars/mask008.png,,,,,,,,,,,,1,1,,,,,,,8,10,9,10,,,,,,,,,,,1086.2658,1086.7667,1087.0174,1091.914,space,4.8801,,1091.9141,25,70,1092.9157,1092.9157,1094.8208,space,1.8669,,0,46,46,46,1,140,5,,,,,,,,
,,615dd7a74b5d8dd6dc602ca3,65af551ffa16a017ecb780b7,2024-01-23_08h00.34.592,bars,2023.2.3,Win32,60.24096386,657b66ea316d21385b68909f,,,,,,,,,,,1094.8221,1095.8208,,,1096.3244,1096.5752,,141,-39,,,,,,,,,,,,,,,,bars/009.png,bars/mask008.png,,,,,,,,,,,,0,2,,,,,,,10,8,10,8,,,,,,,,,,,1095.8209,1096.3244,1096.5752,1102.3568,space,5.7638,,1102.3568,54,36,1103.3588,1103.3588,1107.6054,space,4.2087,,0,47,47,47,1,15,105,,,,,,,,
,,615dd7a74b5d8dd6dc602ca3,65af551ffa16a017ecb780b7,2024-01-23_08h00.34.592,bars,2023.2.3,Win32,60.24096386,657b66ea316d21385b68909f,,,,,,,,,,,1107.6224,1108.6059,,,1109.108,1109.3577,,131,131,,,,,,,,,,,,,,,,bars/038.png,bars/mask006.png,,,,,,,,,,,,0,1,,,,,,,10,6,10,7,,,,,,,,,,,1108.6059,1109.1079,1109.3577,1113.018,space,3.6427,,1113.0181,34,61,1114.0784,1114.0784,1115.1231,space,1.0035,,0,48,48,48,1,165,70,,,,,,,,
,,615dd7a74b5d8dd6dc602ca3,65af551ffa16a017ecb780b7,2024-01-23_08h00.34.592,bars,2023.2.3,Win32,60.24096386,657b66ea316d21385b68909f,,,,,,,,,,,1115.1243,1116.1247,,,1116.6258,1116.8764,,36,216,,,,,,,,,,,,,,,,bars/041.png,bars/mask004.png,,,,,,,,,,,,4,1,,,,,,,8,8,8,7,,,,,,,,,,,1116.1247,1116.6258,1116.8764,1122.0734,space,5.1806,,1122.0734,16,49,1123.0753,1123.0754,1124.8305,space,1.72,,0,49,49,49,1,20,85,,,,,,,,
,,615dd7a74b5d8dd6dc602ca3,65af551ffa16a017ecb780b7,2024-01-23_08h00.34.592,bars,2023.2.3,Win32,60.24096386,657b66ea316d21385b68909f,,,,,,,,,,,,,,,,,,,,,,,,,,,,,,,,,,,,,,,,,,,,,,,,,,,,,,,,,,,,,,,,,,,,,,,,,,,,,,,,,,,,,,,,,,,,,1124.8319,1184.8333,0,0,0,4,1,sequence_tables/blk032.csv
,,615dd7a74b5d8dd6dc602ca3,65af551ffa16a017ecb780b7,2024-01-23_08h00.34.592,bars,2023.2.3,Win32,60.24096386,657b66ea316d21385b68909f,,,,,,,,,,,1189.021,1189.9964,,,1190.4988,1190.748,,17,17,,,,,,,,,,,,,,,,bars/048.png,bars/mask003.png,,,,,,,,,,,,2,2,,,,,,,8,7,10,8,,,,,,1184.8522,1188.9948,space,4.1288,,1189.9964,1190.4987,1190.748,1196.8155,space,6.0505,,1196.8156,33,22,1197.8154,1197.8155,1197.8378,,,,0,0,0,0,1,50,175,,,,,,,,
,,615dd7a74b5d8dd6dc602ca3,65af551ffa16a017ecb780b7,2024-01-23_08h00.34.592,bars,2023.2.3,Win32,60.24096386,657b66ea316d21385b68909f,,,,,,,,,,,1197.8383,1198.8347,,,1199.3233,1199.5713,,108,108,,,,,,,,,,,,,,,,bars/038.png,bars/mask006.png,,,,,,,,,,,,0,2,,,,,,,6,5,6,4,,,,,,,,,,,1198.8348,1199.3233,1199.5714,1202.8412,space,3.2533,,1202.8412,57,38,1203.8361,1203.8362,1203.8539,,,,0,1,1,1,1,165,70,,,,,,,,
,,615dd7a74b5d8dd6dc602ca3,65af551ffa16a017ecb780b7,2024-01-23_08h00.34.592,bars,2023.2.3,Win32,60.24096386,657b66ea316d21385b68909f,,,,,,,,,,,1203.8543,1204.8526,,,1205.3519,1205.6023,,117,-63,,,,,,,,,,,,,,,,bars/000.png,bars/mask008.png,,,,,,,,,,,,1,2,,,,,,,8,7,8,9,,,,,,,,,,,1204.8527,1205.3518,1205.6024,1211.6298,space,6.0057,,1211.6298,77,28,1212.6314,1212.6315,1212.6499,,,,0,2,2,2,1,40,145,,,,,,,,
,,615dd7a74b5d8dd6dc602ca3,65af551ffa16a017ecb780b7,2024-01-23_08h00.34.592,bars,2023.2.3,Win32,60.24096386,657b66ea316d21385b68909f,,,,,,,,,,,1212.6502,1213.6514,,,1214.1474,1214.396,,39,39,,,,,,,,,,,,,,,,bars/004.png,bars/mask005.png,,,,,,,,,,,,5,1,,,,,,,10,5,9,4,,,,,,,,,,,1213.6514,1214.1474,1214.396,1217.7907,space,3.3734,,1217.7908,14,86,1218.7711,1218.7712,1218.7902,,,,0,3,3,3,1,25,125,,,,,,,,
,,615dd7a74b5d8dd6dc602ca3,65af551ffa16a017ecb780b7,2024-01-23_08h00.34.592,bars,2023.2.3,Win32,60.24096386,657b66ea316d21385b68909f,,,,,,,,,,,1218.7906,1219.7737,,,1220.2656,1220.508,,31,211,,,,,,,,,,,,,,,,bars/020.png,bars/mask008.png,,,,,,,,,,,,0,2,,,,,,,10,7,10,8,,,,,,,,,,,1219.7737,1220.2655,1220.5082,1226.1418,space,5.6133,,1226.1419,84,41,1227.1505,1227.1506,1227.1696,,,,0,4,4,4,1,115,170,,,,,,,,
,,615dd7a74b5d8dd6dc602ca3,65af551ffa16a017ecb780b7,2024-01-23_08h00.34.592,bars,2023.2.3,Win32,60.24096386,657b66ea316d21385b68909f,,,,,,,,,,,1227.17,1228.1697,,,1228.6463,1228.8949,,130,130,,,,,,,,,,,,,,,,bars/016.png,bars/mask005.png,,,,,,,,,,,,0,2,,,,,,,10,5,10,6,,,,,,,,,,,1228.1697,1228.6462,1228.8949,1232.0212,space,3.1045,,1232.0212,90,35,1233.0071,1233.0073,1233.0254,,,,0,5,5,5,1,40,165,,,,,,,,
,,615dd7a74b5d8dd6dc602ca3,65af551ffa16a017ecb780b7,2024-01-23_08h00.34.592,bars,2023.2.3,Win32,60.24096386,657b66ea316d21385b68909f,,,,,,,,,,,1233.0257,1234.0262,,,1234.5199,1234.7703,,16,16,,,,,,,,,,,,,,,,bars/003.png,bars/mask002.png,,,,,,,,,,,,7,1,,,,,,,10,7,10,7,,,,,,,,,,,1234.0263,1234.5199,1234.7704,1239.4759,space,4.6825,,1239.476,9,56,1240.4676,1240.4676,1240.4869,,,,0,6,6,6,1,25,140,,,,,,,,
,,615dd7a74b5d8dd6dc602ca3,65af551ffa16a017ecb780b7,2024-01-23_08h00.34.592,bars,2023.2.3,Win32,60.24096386,657b66ea316d21385b68909f,,,,,,,,,,,1240.4873,1241.5228,,,1241.9897,1242.2166,,147,147,,,,,,,,,,,,,,,,bars/011.png,bars/mask005.png,,,,,,,,,,,,5,1,,,,,,,10,5,9,7,,,,,,,,,,,1241.5229,1241.9897,1242.2167,1245.6918,space,3.4538,,1245.6918,13,62,1246.6751,1246.6753,1246.6934,,,,0,7,7,7,1,160,85,,,,,,,,
,,615dd7a74b5d8dd6dc602ca3,65af551ffa16a017ecb780b7,2024-01-23_08h00.34.592,bars,2023.2.3,Win32,60.24096386,657b66ea316d21385b68909f,,,,,,,,,,,1246.6938,1247.6925,,,1248.1871,1248.4325,,40,220,,,,,,,,,,,,,,,,bars/023.png,bars/mask009.png,,,,,,,,,,,,3,1,,,,,,,8,3,9,3,,,,,,,,,,,1247.6925,1248.187,1248.4325,1253.8432,space,5.3893,,1253.8433,20,75,1254.8293,1254.8294,1254.8473,,,,0,8,8,8,1,20,115,,,,,,,,
,,615dd7a74b5d8dd6dc602ca3,65af551ffa16a017ecb780b7,2024-01-23_08h00.34.592,bars,2023.2.3,Win32,60.24096386,657b66ea316d21385b68909f,,,,,,,,,,,1254.8485,1255.8464,,,1256.35,1256.5997,,39,219,,,,,,,,,,,,,,,,bars/022.png,bars/mask000.png,,,,,,,,,,,,0,2,,,,,,,6,1,7,0,,,,,,,,,,,1255.8464,1256.35,1256.5997,1261.9198,space,5.299,,1261.9199,56,19,1262.908,1262.9081,1262.9273,,,,0,9,9,9,1,95,20,,,,,,,,
,,615dd7a74b5d8dd6dc602ca3,65af551ffa16a017ecb780b7,2024-01-23_08h00.34.592,bars,2023.2.3,Win32,60.24096386,657b66ea316d21385b68909f,,,,,,,,,,,1262.9276,1263.9335,,,1264.4309,1264.6569,,114,114,,,,,,,,,,,,,,,,bars/006.png,bars/mask002.png,,,,,,,,,,,,2,2,,,,,,,4,3,5,4,,,,,,,,,,,1263.9335,1264.4309,1264.657,1267.7009,space,3.0226,,1267.701,79,14,1268.6899,1268.6901,1268.7072,,,,0,10,10,10,1,35,100,,,,,,,,
,,615dd7a74b5d8dd6dc602ca3,65af551ffa16a017ecb780b7,2024-01-23_08h00.34.592,bars,2023.2.3,Win32,60.24096386,657b66ea316d21385b68909f,,,,,,,,,,,1268.7075,1269.7084,,,1270.2043,1270.4503,,46,226,,,,,,,,,,,,,,,,bars/031.png,bars/mask001.png,,,,,,,,,,,,0,2,,,,,,,6,1,5,0,,,,,,,,,,,1269.7085,1270.2043,1270.4504,1275.7719,space,5.2997,,1275.7719,74,11,1276.766,1276.766,1276.785,,,,0,11,11,11,1,120,35,,,,,,,,
,,615dd7a74b5d8dd6dc602ca3,65af551ffa16a017ecb780b7,2024-01-23_08h00.34.592,bars,2023.2.3,Win32,60.24096386,657b66ea316d21385b68909f,,,,,,,,,,,1276.7855,1277.7854,,,1278.2798,1278.5061,,130,-50,,,,,,,,,,,,,,,,bars/006.png,bars/mask000.png,,,,,,,,,,,,0,2,,,,,,,8,0,9,1,,,,,,,,,,,1277.7855,1278.2797,1278.5061,1285.35,space,6.8229,,1285.35,85,30,1286.3501,1286.3502,1286.369,,,,0,12,12,12,1,35,100,,,,,,,,
,,615dd7a74b5d8dd6dc602ca3,65af551ffa16a017ecb780b7,2024-01-23_08h00.34.592,bars,2023.2.3,Win32,60.24096386,657b66ea316d21385b68909f,,,,,,,,,,,1286.3693,1287.3699,,,1287.8797,1288.1277,,115,115,,,,,,,,,,,,,,,,bars/002.png,bars/mask002.png,,,,,,,,,,,,4,1,,,,,,,10,0,8,0,,,,,,,,,,,1287.3699,1287.8797,1288.1277,1290.7889,space,2.6424,,1290.7889,15,30,1291.7896,1291.7897,1291.8093,,,,0,13,13,13,1,130,85,,,,,,,,
,,615dd7a74b5d8dd6dc602ca3,65af551ffa16a017ecb780b7,2024-01-23_08h00.34.592,bars,2023.2.3,Win32,60.24096386,657b66ea316d21385b68909f,,,,,,,,,,,1291.8096,1292.8088,,,1293.3017,1293.5526,,122,122,,,,,,,,,,,,,,,,bars/006.png,bars/mask000.png,,,,,,,,,,,,0,2,,,,,,,8,0,9,0,,,,,,,,,,,1292.8088,1293.3016,1293.5526,1298.3584,space,4.7822,,1298.3585,87,22,1299.3495,1299.3495,1299.3684,,,,0,14,14,14,1,35,100,,,,,,,,
,,615dd7a74b5d8dd6dc602ca3,65af551ffa16a017ecb780b7,2024-01-23_08h00.34.592,bars,2023.2.3,Win32,60.24096386,657b66ea316d21385b68909f,,,,,,,,,,,1299.3687,1300.371,,,1300.8486,1301.095,,166,-14,,,,,,,,,,,,,,,,bars/032.png,bars/mask006.png,,,,,,,,,,,,0,2,,,,,,,6,0,5,1,,,,,,,,,,,1300.3711,1300.8486,1301.0951,1305.4304,space,4.3168,,1305.4304,41,34,1306.4101,1306.4102,1306.4282,,,,0,15,15,15,1,125,20,,,,,,,,
,,615dd7a74b5d8dd6dc602ca3,65af551ffa16a017ecb780b7,2024-01-23_08h00.34.592,bars,2023.2.3,Win32,60.24096386,657b66ea316d21385b68909f,,,,,,,,,,,1306.4285,1307.4216,,,1307.9167,1308.1633,,108,108,,,,,,,,,,,,,,,,bars/026.png,bars/mask005.png,,,,,,,,,,,,0,2,,,,,,,4,2,3,2,,,,,,,,,,,1307.4217,1307.9167,1308.1633,1311.3415,space,3.1461,,1311.3415,73,23,1312.3398,1312.3398,1312.3571,,,,0,16,16,16,1,35,85,,,,,,,,
,,615dd7a74b5d8dd6dc602ca3,65af551ffa16a017ecb780b7,2024-01-23_08h00.34.592,bars,2023.2.3,Win32,60.24096386,657b66ea316d21385b68909f,,,,,,,,,,,1312.3574,1313.3537,,,1313.8539,1314.1048,,108,108,,,,,,,,,,,,,,,,bars/037.png,bars/mask005.png,,,,,,,,,,,,1,2,,,,,,,2,0,4,1,,,,,,,,,,,1313.3538,1313.8539,1314.1049,1317.9631,space,3.8347,,1317.9632,42,3,1318.9671,1318.9671,1318.9847,,,,0,17,17,17,1,150,105,,,,,,,,
,,615dd7a74b5d8dd6dc602ca3,65af551ffa16a017ecb780b7,2024-01-23_08h00.34.592,bars,2023.2.3,Win32,60.24096386,657b66ea316d21385b68909f,,,,,,,,,,,1318.9852,1319.9866,,,1320.4871,1320.7158,,34,34,,,,,,,,,,,,,,,,bars/004.png,bars/mask004.png,,,,,,,,,,,,1,1,,,,,,,0,0,1,1,,,,,,,,,,,1319.9867,1320.487,1320.7158,1330.6108,space,9.873,,1330.6108,9,89,1331.5913,1331.5914,1331.6135,,,,0,18,18,18,1,25,125,,,,,,,,
,,615dd7a74b5d8dd6dc602ca3,65af551ffa16a017ecb780b7,2024-01-23_08h00.34.592,bars,2023.2.3,Win32,60.24096386,657b66ea316d21385b68909f,,,,,,,,,,,1331.6142,1332.6101,,,1333.1032,1333.3539,,36,36,,,,,,,,,,,,,,,,bars/017.png,bars/mask008.png,,,,,,,,,,,,0,2,,,,,,,2,0,3,0,,,,,,,,,,,1332.6101,1333.1031,1333.3539,1336.9989,space,3.6268,,1336.999,71,9,1337.9886,1337.9886,1338.0083,,,,0,19,19,19,1,145,45,,,,,,,,
,,615dd7a74b5d8dd6dc602ca3,65af551ffa16a017ecb780b7,2024-01-23_08h00.34.592,bars,2023.2.3,Win32,60.24096386,657b66ea316d21385b68909f,,,,,,,,,,,1338.0086,1339.0095,,,1339.5024,1339.7534,,52,52,,,,,,,,,,,,,,,,bars/000.png,bars/mask003.png,,,,,,,,,,,,1,1,,,,,,,4,2,2,1,,,,,,,,,,,1339.0096,1339.5024,1339.7535,1342.9386,space,3.1624,,1342.9387,12,87,1343.9471,1343.9471,1343.9666,,,,0,20,20,20,1,40,145,,,,,,,,
,,615dd7a74b5d8dd6dc602ca3,65af551ffa16a017ecb780b7,2024-01-23_08h00.34.592,bars,2023.2.3,Win32,60.24096386,657b66ea316d21385b68909f,,,,,,,,,,,1343.9669,1344.9753,,,1345.4664,1345.6958,,135,135,,,,,,,,,,,,,,,,bars/049.png,bars/mask004.png,,,,,,,,,,,,1,2,,,,,,,2,4,4,4,,,,,,,,,,,1344.9753,1345.4664,1345.6959,1355.1778,space,9.4612,,1355.178,25,20,1356.1676,1356.1677,1356.1883,,,,0,21,21,21,1,160,115,,,,,,,,
,,615dd7a74b5d8dd6dc602ca3,65af551ffa16a017ecb780b7,2024-01-23_08h00.34.592,bars,2023.2.3,Win32,60.24096386,657b66ea316d21385b68909f,,,,,,,,,,,1356.1887,1357.1833,,,1357.6885,1357.934,,134,134,,,,,,,,,,,,,,,,bars/008.png,bars/mask008.png,,,,,,,,,,,,0,1,,,,,,,0,2,0,2,,,,,,,,,,,1357.1833,1357.6885,1357.9341,1362.1514,space,4.1948,,1362.1515,24,46,1363.1374,1363.1374,1363.1569,,,,0,22,22,22,1,110,0,,,,,,,,
,,615dd7a74b5d8dd6dc602ca3,65af551ffa16a017ecb780b7,2024-01-23_08h00.34.592,bars,2023.2.3,Win32,60.24096386,657b66ea316d21385b68909f,,,,,,,,,,,1363.1573,1364.1538,,,1364.6606,1364.9111,,94,94,,,,,,,,,,,,,,,,bars/045.png,bars/mask009.png,,,,,,,,,,,,2,1,,,,,,,2,0,3,0,,,,,,,,,,,1364.1539,1364.6606,1364.9111,1369.0824,space,4.1502,,1369.0826,6,84,1370.0806,1370.0807,1370.0983,,,,0,23,23,23,1,100,10,,,,,,,,
,,615dd7a74b5d8dd6dc602ca3,65af551ffa16a017ecb780b7,2024-01-23_08h00.34.592,bars,2023.2.3,Win32,60.24096386,657b66ea316d21385b68909f,,,,,,,,,,,1370.0986,1371.1008,,,1371.6002,1371.8512,,35,35,,,,,,,,,,,,,,,,bars/028.png,bars/mask007.png,,,,,,,,,,,,0,1,,,,,,,0,2,0,3,,,,,,,,,,,1371.1009,1371.6002,1371.8513,1374.9505,space,3.0807,,1374.9506,10,85,1375.9362,1375.9362,1375.954,,,,0,24,24,24,1,45,120,,,,,,,,
,,615dd7a74b5d8dd6dc602ca3,65af551ffa16a017ecb780b7,2024-01-23_08h00.34.592,bars,2023.2.3,Win32,60.24096386,657b66ea316d21385b68909f,,,,,,,,,,,1375.9543,1376.9392,,,1377.4313,1377.6604,,108,108,,,,,,,,,,,,,,,,bars/034.png,bars/mask008.png,,,,,,,,,,,,0,1,,,,,,,0,4,0,4,,,,,,,,,,,1376.9392,1377.4313,1377.6604,1381.0272,space,3.3458,,1381.0272,17,43,1382.0276,1382.0277,1382.0458,,,,0,25,25,25,1,125,65,,,,,,,,
,,615dd7a74b5d8dd6dc602ca3,65af551ffa16a017ecb780b7,2024-01-23_08h00.34.592,bars,2023.2.3,Win32,60.24096386,657b66ea316d21385b68909f,,,,,,,,,,,1382.0461,1383.0524,,,1383.5419,1383.7879,,69,249,,,,,,,,,,,,,,,,bars/027.png,bars/mask002.png,,,,,,,,,,,,0,2,,,,,,,2,2,4,1,,,,,,,,,,,1383.0524,1383.5419,1383.7879,1390.3286,space,6.5191,,1390.3287,41,19,1391.3088,1391.3089,1391.3294,,,,0,26,26,26,1,110,50,,,,,,,,
,,615dd7a74b5d8dd6dc602ca3,65af551ffa16a017ecb780b7,2024-01-23_08h00.34.592,bars,2023.2.3,Win32,60.24096386,657b66ea316d21385b68909f,,,,,,,,,,,1391.3297,1392.335,,,1392.8156,1393.0612,,4,184,,,,,,,,,,,,,,,,bars/032.png,bars/mask008.png,,,,,,,,,,,,2,2,,,,,,,0,4,0,4,,,,,,,,,,,1392.3352,1392.8155,1393.0612,1396.2209,space,3.138,,1396.2209,59,16,1397.217,1397.217,1397.2352,,,,0,27,27,27,1,125,20,,,,,,,,
,,615dd7a74b5d8dd6dc602ca3,65af551ffa16a017ecb780b7,2024-01-23_08h00.34.592,bars,2023.2.3,Win32,60.24096386,657b66ea316d21385b68909f,,,,,,,,,,,1397.2355,1398.2356,,,1398.7138,1398.9603,,142,142,,,,,,,,,,,,,,,,bars/034.png,bars/mask001.png,,,,,,,,,,,,0,1,,,,,,,0,6,0,4,,,,,,,,,,,1398.2357,1398.7138,1398.9604,1403.1159,space,4.1339,,1403.1159,17,77,1404.1171,1404.1171,1404.1395,,,,0,28,28,28,1,125,65,,,,,,,,
,,615dd7a74b5d8dd6dc602ca3,65af551ffa16a017ecb780b7,2024-01-23_08h00.34.592,bars,2023.2.3,Win32,60.24096386,657b66ea316d21385b68909f,,,,,,,,,,,1404.14,1405.1277,,,1405.6225,1405.8718,,24,24,,,,,,,,,,,,,,,,bars/032.png,bars/mask001.png,,,,,,,,,,,,7,2,,,,,,,2,8,2,8,,,,,,,,,,,1405.1277,1405.6225,1405.8718,1409.6072,space,3.7126,,1409.6072,79,4,1410.5991,1410.5992,1410.6182,,,,0,29,29,29,1,125,20,,,,,,,,
,,615dd7a74b5d8dd6dc602ca3,65af551ffa16a017ecb780b7,2024-01-23_08h00.34.592,bars,2023.2.3,Win32,60.24096386,657b66ea316d21385b68909f,,,,,,,,,,,1410.6185,1411.6189,,,1412.1263,1412.377,,95,95,,,,,,,,,,,,,,,,bars/011.png,bars/mask004.png,,,,,,,,,,,,6,2,,,,,,,4,10,5,9,,,,,,,,,,,1411.6189,1412.1263,1412.377,1415.9316,space,3.5363,,1415.9317,65,10,1416.932,1416.9321,1416.9497,,,,0,30,30,30,1,160,85,,,,,,,,
,,615dd7a74b5d8dd6dc602ca3,65af551ffa16a017ecb780b7,2024-01-23_08h00.34.592,bars,2023.2.3,Win32,60.24096386,657b66ea316d21385b68909f,,,,,,,,,,,1416.9501,1417.9456,,,1418.4472,1418.6977,,53,53,,,,,,,,,,,,,,,,bars/038.png,bars/mask000.png,,,,,,,,,,,,4,2,,,,,,,2,10,3,10,,,,,,,,,,,1417.9458,1418.4472,1418.6978,1420,space,1.2809,,1420,68,17,1420.9927,1420.9927,1420.994,,,,0,31,31,31,1,165,70,,,,,,,,
,,615dd7a74b5d8dd6dc602ca3,65af551ffa16a017ecb780b7,2024-01-23_08h00.34.592,bars,2023.2.3,Win32,60.24096386,657b66ea316d21385b68909f,,,,,,,,,,,1420.9944,1421.9856,,,1422.48,1422.7054,,135,135,,,,,,,,,,,,,,,,bars/020.png,bars/mask000.png,,,,,,,,,,,,1,1,,,,,,,4,8,4,7,,,,,,,,,,,1421.9856,1422.48,1422.7054,1430.8024,space,8.0758,,1430.8025,20,35,1431.8131,1431.8131,1431.9856,,,,0,32,32,32,1,115,170,,,,,,,,
,,615dd7a74b5d8dd6dc602ca3,65af551ffa16a017ecb780b7,2024-01-23_08h00.34.592,bars,2023.2.3,Win32,60.24096386,657b66ea316d21385b68909f,,,,,,,,,,,1431.986,1432.9744,,,1433.4806,1433.7268,,51,51,,,,,,,,,,,,,,,,bars/019.png,bars/mask005.png,,,,,,,,,,,,2,1,,,,,,,2,6,2,6,,,,,,,,,,,1432.9744,1433.4806,1433.7268,1440.811,space,7.0626,,1440.811,6,54,1441.8118,1441.8118,1441.896,,,,0,33,33,33,1,45,105,,,,,,,,
,,615dd7a74b5d8dd6dc602ca3,65af551ffa16a017ecb780b7,2024-01-23_08h00.34.592,bars,2023.2.3,Win32,60.24096386,657b66ea316d21385b68909f,,,,,,,,,,,1441.8967,1442.8886,,,1443.3862,1443.633,,101,101,,,,,,,,,,,,,,,,bars/037.png,bars/mask005.png,,,,,,,,,,,,1,2,,,,,,,0,4,0,1,,,,,,,,,,,1442.8886,1443.3862,1443.6331,1449.4821,space,5.8258,,1449.4822,49,4,1450.463,1450.4631,1450.4839,,,,0,34,34,34,1,150,105,,,,,,,,
,,615dd7a74b5d8dd6dc602ca3,65af551ffa16a017ecb780b7,2024-01-23_08h00.34.592,bars,2023.2.3,Win32,60.24096386,657b66ea316d21385b68909f,,,,,,,,,,,1450.4843,1451.4858,,,1451.9819,1452.2326,,36,36,,,,,,,,,,,,,,,,bars/028.png,bars/mask004.png,,,,,,,,,,,,1,1,,,,,,,2,2,2,2,,,,,,,,,,,1451.486,1451.9818,1452.2326,1453.3437,space,1.09,,1453.3437,9,84,1454.3516,1454.3517,1454.3554,,,,0,35,35,35,1,45,120,,,,,,,,
,,615dd7a74b5d8dd6dc602ca3,65af551ffa16a017ecb780b7,2024-01-23_08h00.34.592,bars,2023.2.3,Win32,60.24096386,657b66ea316d21385b68909f,,,,,,,,,,,1454.3564,1455.3546,,,1455.856,1456.1046,,135,135,,,,,,,,,,,,,,,,bars/046.png,bars/mask002.png,,,,,,,,,,,,0,1,,,,,,,0,0,0,1,,,,,,,,,,,1455.3547,1455.8559,1456.1047,1460.0669,space,3.9402,,1460.067,20,50,1461.0665,1461.0666,1461.0849,,,,0,36,36,36,1,155,85,,,,,,,,
,,615dd7a74b5d8dd6dc602ca3,65af551ffa16a017ecb780b7,2024-01-23_08h00.34.592,bars,2023.2.3,Win32,60.24096386,657b66ea316d21385b68909f,,,,,,,,,,,1461.0853,1462.0861,,,1462.587,1462.8373,,52,52,,,,,,,,,,,,,,,,bars/035.png,bars/mask006.png,,,,,,,,,,,,1,2,,,,,,,2,2,2,1,,,,,,,,,,,1462.0861,1462.587,1462.8373,1466.616,space,3.7621,,1466.6161,57,8,1467.616,1467.6162,1467.6361,,,,0,37,37,37,1,175,60,,,,,,,,
,,615dd7a74b5d8dd6dc602ca3,65af551ffa16a017ecb780b7,2024-01-23_08h00.34.592,bars,2023.2.3,Win32,60.24096386,657b66ea316d21385b68909f,,,,,,,,,,,1467.6366,1468.6355,,,1469.1366,1469.3874,,14,194,,,,,,,,,,,,,,,,bars/036.png,bars/mask000.png,,,,,,,,,,,,0,2,,,,,,,4,0,3,0,,,,,,,,,,,1468.6357,1469.1365,1469.3874,1476.9306,space,7.5274,,1476.9306,49,6,1477.9259,1477.926,1477.9452,,,,0,38,38,38,1,145,20,,,,,,,,
,,615dd7a74b5d8dd6dc602ca3,65af551ffa16a017ecb780b7,2024-01-23_08h00.34.592,bars,2023.2.3,Win32,60.24096386,657b66ea316d21385b68909f,,,,,,,,,,,1477.9456,1478.945,,,1479.4463,1479.6977,,114,114,,,,,,,,,,,,,,,,bars/031.png,bars/mask008.png,,,,,,,,,,,,2,1,,,,,,,2,2,3,1,,,,,,,,,,,1478.9452,1479.4462,1479.6977,1481.9879,space,2.2738,,1481.988,6,79,1482.9887,1482.9887,1483.0082,,,,0,39,39,39,1,120,35,,,,,,,,
,,615dd7a74b5d8dd6dc602ca3,65af551ffa16a017ecb780b7,2024-01-23_08h00.34.592,bars,2023.2.3,Win32,60.24096386,657b66ea316d21385b68909f,,,,,,,,,,,1483.0086,1484.0081,,,1484.5098,1484.7599,,116,116,,,,,,,,,,,,,,,,bars/006.png,bars/mask007.png,,,,,,,,,,,,0,2,,,,,,,0,0,0,0,,,,,,,,,,,1484.0081,1484.5098,1484.76,1487.5176,space,2.7412,,1487.5177,81,16,1488.5193,1488.5194,1488.5389,,,,0,40,40,40,1,35,100,,,,,,,,
,,615dd7a74b5d8dd6dc602ca3,65af551ffa16a017ecb780b7,2024-01-23_08h00.34.592,bars,2023.2.3,Win32,60.24096386,657b66ea316d21385b68909f,,,,,,,,,,,1488.5396,1489.5387,,,1490.0405,1490.2904,,160,160,,,,,,,,,,,,,,,,bars/008.png,bars/mask000.png,,,,,,,,,,,,0,2,,,,,,,2,0,2,0,,,,,,,,,,,1489.5387,1490.0404,1490.2905,1493.8342,space,3.5269,,1493.8344,50,20,1494.8354,1494.8354,1494.8534,,,,0,41,41,41,1,110,0,,,,,,,,
,,615dd7a74b5d8dd6dc602ca3,65af551ffa16a017ecb780b7,2024-01-23_08h00.34.592,bars,2023.2.3,Win32,60.24096386,657b66ea316d21385b68909f,,,,,,,,,,,1494.8537,1495.8548,,,1496.3565,1496.607,,121,-59,,,,,,,,,,,,,,,,bars/005.png,bars/mask003.png,,,,,,,,,,,,0,2,,,,,,,0,2,1,0,,,,,,,,,,,1495.8549,1496.3564,1496.6071,1502.7914,space,6.1669,,1502.7914,69,19,1503.7916,1503.7917,1503.8109,,,,0,42,42,42,1,10,140,,,,,,,,
,,615dd7a74b5d8dd6dc602ca3,65af551ffa16a017ecb780b7,2024-01-23_08h00.34.592,bars,2023.2.3,Win32,60.24096386,657b66ea316d21385b68909f,,,,,,,,,,,1503.8117,1504.8109,,,1505.3125,1505.5632,,68,68,,,,,,,,,,,,,,,,bars/018.png,bars/mask008.png,,,,,,,,,,,,0,2,,,,,,,0,0,0,0,,,,,,,,,,,1504.8111,1505.3125,1505.5632,1508.7061,space,3.1258,,1508.7062,82,22,1509.7069,1509.7069,1509.7247,,,,0,43,43,43,1,150,90,,,,,,,,
,,615dd7a74b5d8dd6dc602ca3,65af551ffa16a017ecb780b7,2024-01-23_08h00.34.592,bars,2023.2.3,Win32,60.24096386,657b66ea316d21385b68909f,,,,,,,,,,,1509.725,1510.7259,,,1511.2275,1511.4786,,114,114,,,,,,,,,,,,,,,,bars/026.png,bars/mask006.png,,,,,,,,,,,,0,2,,,,,,,2,0,0,1,,,,,,,,,,,1510.726,1511.2274,1511.4786,1513.8368,space,2.3412,,1513.8368,79,29,1514.8368,1514.8369,1514.8388,,,,0,44,44,44,1,35,85,,,,,,,,
,,615dd7a74b5d8dd6dc602ca3,65af551ffa16a017ecb780b7,2024-01-23_08h00.34.592,bars,2023.2.3,Win32,60.24096386,657b66ea316d21385b68909f,,,,,,,,,,,1514.8393,1515.8397,,,1516.343,1516.5916,,115,-65,,,,,,,,,,,,,,,,bars/025.png,bars/mask003.png,,,,,,,,,,,,1,1,,,,,,,0,2,1,2,,,,,,,,,,,1515.8397,1516.3428,1516.5917,1522.3577,space,5.7491,,1522.3578,10,75,1523.3577,1523.3577,1523.3791,,,,0,45,45,45,1,105,40,,,,,,,,
,,615dd7a74b5d8dd6dc602ca3,65af551ffa16a017ecb780b7,2024-01-23_08h00.34.592,bars,2023.2.3,Win32,60.24096386,657b66ea316d21385b68909f,,,,,,,,,,,1523.3795,1524.3771,,,1524.8783,1525.129,,38,218,,,,,,,,,,,,,,,,bars/022.png,bars/mask003.png,,,,,,,,,,,,2,2,,,,,,,0,4,1,5,,,,,,,,,,,1524.3773,1524.8782,1525.129,1529.7582,space,4.6127,,1529.7582,57,18,1530.7605,1530.7605,1530.7827,,,,0,46,46,46,1,95,20,,,,,,,,
,,615dd7a74b5d8dd6dc602ca3,65af551ffa16a017ecb780b7,2024-01-23_08h00.34.592,bars,2023.2.3,Win32,60.24096386,657b66ea316d21385b68909f,,,,,,,,,,,1530.7831,1531.7795,,,1532.2779,1532.5312,,139,139,,,,,,,,,,,,,,,,bars/017.png,bars/mask001.png,,,,,,,,,,,,0,1,,,,,,,0,2,0,2,,,,,,,,,,,1531.7798,1532.2779,1532.5312,1535.0732,space,2.5258,,1535.0732,6,86,1536.0734,1536.0735,1536.0938,,,,0,47,47,47,1,145,45,,,,,,,,
,,615dd7a74b5d8dd6dc602ca3,65af551ffa16a017ecb780b7,2024-01-23_08h00.34.592,bars,2023.2.3,Win32,60.24096386,657b66ea316d21385b68909f,,,,,,,,,,,1536.0942,1537.0926,,,1537.594,1537.845,,142,142,,,,,,,,,,,,,,,,bars/044.png,bars/mask009.png,,,,,,,,,,,,0,2,,,,,,,0,0,1,0,,,,,,,,,,,1537.0927,1537.594,1537.845,1543.0268,space,5.1657,,1543.0268,67,13,1544.0275,1544.0275,1544.0471,,,,0,48,48,48,1,75,155,,,,,,,,
,,615dd7a74b5d8dd6dc602ca3,65af551ffa16a017ecb780b7,2024-01-23_08h00.34.592,bars,2023.2.3,Win32,60.24096386,657b66ea316d21385b68909f,,,,,,,,,,,1544.0474,1545.0463,,,1545.5475,1545.7979,,21,21,,,,,,,,,,,,,,,,bars/032.png,bars/mask001.png,,,,,,,,,,,,1,2,,,,,,,2,2,4,1,,,,,,,,,,,1545.0464,1545.5474,1545.7981,1550.6959,space,4.8803,,1550.6959,76,1,1551.6969,1551.6969,1551.715,,,,0,49,49,49,1,125,20,,,,,,,,
,,615dd7a74b5d8dd6dc602ca3,65af551ffa16a017ecb780b7,2024-01-23_08h00.34.592,bars,2023.2.3,Win32,60.24096386,657b66ea316d21385b68909f,,,,,,,,,,,,,,,,,,,,,,,,,,,,,,,,,,,,,,,,,,,,,,,,,,,,,,,,,,,,,,,,,,,,,,,,,,,,,,,,,,,,,,,,,,,,,1551.7153,1611.7159,0,1,1,0,1,sequence_tables/blk044.csv
,,615dd7a74b5d8dd6dc602ca3,65af551ffa16a017ecb780b7,2024-01-23_08h00.34.592,bars,2023.2.3,Win32,60.24096386,657b66ea316d21385b68909f,,,,,,,,,,,1617.2055,1618.1815,,,1618.685,1618.9313,,103,103,,,,,,,,,,,,,,,,bars/049.png,bars/mask001.png,,,,,,,,,,,,1,2,,,,,,,4,1,4,1,,,,,,1611.7344,1617.1801,space,5.4297,,1618.1815,1618.6848,1618.9315,1622.1764,space,3.2263,,1622.1766,57,12,1623.1824,1623.1824,1623.2047,,,,0,0,0,0,1,160,115,,,,,,,,
,,615dd7a74b5d8dd6dc602ca3,65af551ffa16a017ecb780b7,2024-01-23_08h00.34.592,bars,2023.2.3,Win32,60.24096386,657b66ea316d21385b68909f,,,,,,,,,,,1623.2051,1624.2046,,,1624.6984,1624.9487,,104,104,,,,,,,,,,,,,,,,bars/002.png,bars/mask000.png,,,,,,,,,,,,0,2,,,,,,,6,0,8,0,,,,,,,,,,,1624.2046,1624.6984,1624.9487,1627.0717,space,2.1066,,1627.0719,26,19,1628.0736,1628.0737,1628.0919,,,,0,1,1,1,1,130,85,,,,,,,,
,,615dd7a74b5d8dd6dc602ca3,65af551ffa16a017ecb780b7,2024-01-23_08h00.34.592,bars,2023.2.3,Win32,60.24096386,657b66ea316d21385b68909f,,,,,,,,,,,1628.0922,1629.0952,,,1629.594,1629.8447,,40,220,,,,,,,,,,,,,,,,bars/022.png,bars/mask006.png,,,,,,,,,,,,1,2,,,,,,,4,2,2,2,,,,,,,,,,,1629.0952,1629.594,1629.8447,1635.6282,space,5.7675,,1635.6283,55,20,1636.6285,1636.6287,1636.6478,,,,0,2,2,2,1,95,20,,,,,,,,
,,615dd7a74b5d8dd6dc602ca3,65af551ffa16a017ecb780b7,2024-01-23_08h00.34.592,bars,2023.2.3,Win32,60.24096386,657b66ea316d21385b68909f,,,,,,,,,,,1636.6481,1637.6475,,,1638.1496,1638.4006,,89,89,,,,,,,,,,,,,,,,bars/014.png,bars/mask002.png,,,,,,,,,,,,1,1,,,,,,,2,0,2,0,,,,,,,,,,,1637.6476,1638.1495,1638.4006,1642.9786,space,4.5625,,1642.9787,9,89,1643.9807,1643.9808,1644.0004,,,,0,3,3,3,1,80,0,,,,,,,,
,,615dd7a74b5d8dd6dc602ca3,65af551ffa16a017ecb780b7,2024-01-23_08h00.34.592,bars,2023.2.3,Win32,60.24096386,657b66ea316d21385b68909f,,,,,,,,,,,1644.0012,1645,,,1645.5012,1645.7517,,90,90,,,,,,,,,,,,,,,,bars/018.png,bars/mask007.png,,,,,,,,,,,,0,2,,,,,,,4,0,4,0,,,,,,,,,,,1645.0002,1645.5012,1645.7517,1649.6633,space,3.8948,,1649.6634,60,0,1650.6641,1650.6641,1650.6837,,,,0,4,4,4,1,150,90,,,,,,,,
,,615dd7a74b5d8dd6dc602ca3,65af551ffa16a017ecb780b7,2024-01-23_08h00.34.592,bars,2023.2.3,Win32,60.24096386,657b66ea316d21385b68909f,,,,,,,,,,,1650.6841,1651.6831,,,1652.1848,1652.4352,,110,-70,,,,,,,,,,,,,,,,bars/000.png,bars/mask008.png,,,,,,,,,,,,0,2,,,,,,,2,2,3,1,,,,,,,,,,,1651.6834,1652.1847,1652.4353,1656.782,space,4.3304,,1656.7821,70,35,1657.7826,1657.7826,1657.8009,,,,0,5,5,5,1,40,145,,,,,,,,
,,615dd7a74b5d8dd6dc602ca3,65af551ffa16a017ecb780b7,2024-01-23_08h00.34.592,bars,2023.2.3,Win32,60.24096386,657b66ea316d21385b68909f,,,,,,,,,,,1657.8013,1658.8018,,,1659.2972,1659.5377,,37,217,,,,,,,,,,,,,,,,bars/018.png,bars/mask009.png,,,,,,,,,,,,0,2,,,,,,,0,4,1,3,,,,,,,,,,,1658.8018,1659.2972,1659.5377,1663.7834,space,4.2282,,1663.7834,67,53,1664.7838,1664.7839,1664.8019,,,,0,6,6,6,1,150,90,,,,,,,,
,,615dd7a74b5d8dd6dc602ca3,65af551ffa16a017ecb780b7,2024-01-23_08h00.34.592,bars,2023.2.3,Win32,60.24096386,657b66ea316d21385b68909f,,,,,,,,,,,1664.8023,1665.8031,,,1666.3043,1666.5548,,159,159,,,,,,,,,,,,,,,,bars/035.png,bars/mask002.png,,,,,,,,,,,,0,1,,,,,,,0,6,0,7,,,,,,,,,,,1665.8032,1666.3043,1666.5548,1671.5693,space,4.9998,,1671.5693,16,81,1672.5703,1672.5703,1672.5908,,,,0,7,7,7,1,175,60,,,,,,,,
,,615dd7a74b5d8dd6dc602ca3,65af551ffa16a017ecb780b7,2024-01-23_08h00.34.592,bars,2023.2.3,Win32,60.24096386,657b66ea316d21385b68909f,,,,,,,,,,,1672.5912,1673.5888,,,1674.0903,1674.3404,,123,123,,,,,,,,,,,,,,,,bars/025.png,bars/mask005.png,,,,,,,,,,,,1,1,,,,,,,2,8,2,8,,,,,,,,,,,1673.5888,1674.0901,1674.3404,1677.3494,space,2.9918,,1677.3494,18,83,1678.3519,1678.3519,1678.3706,,,,0,8,8,8,1,105,40,,,,,,,,
,,615dd7a74b5d8dd6dc602ca3,65af551ffa16a017ecb780b7,2024-01-23_08h00.34.592,bars,2023.2.3,Win32,60.24096386,657b66ea316d21385b68909f,,,,,,,,,,,1678.371,1679.3435,,,1679.8388,1680.0905,,124,124,,,,,,,,,,,,,,,,bars/045.png,bars/mask007.png,,,,,,,,,,,,1,1,,,,,,,4,6,4,7,,,,,,,,,,,1679.3435,1679.8387,1680.0905,1686.5908,space,6.4862,,1686.5909,24,66,1687.5911,1687.5912,1687.6102,,,,0,9,9,9,1,100,10,,,,,,,,
,,615dd7a74b5d8dd6dc602ca3,65af551ffa16a017ecb780b7,2024-01-23_08h00.34.592,bars,2023.2.3,Win32,60.24096386,657b66ea316d21385b68909f,,,,,,,,,,,1687.6106,1688.6105,,,1689.1118,1689.3538,,41,41,,,,,,,,,,,,,,,,bars/049.png,bars/mask008.png,,,,,,,,,,,,0,1,,,,,,,2,8,0,8,,,,,,,,,,,1688.6105,1689.1117,1689.3539,1694.7114,space,5.3395,,1694.7115,61,74,1695.7116,1695.7118,1695.73,,,,0,10,10,10,1,160,115,,,,,,,,
,,615dd7a74b5d8dd6dc602ca3,65af551ffa16a017ecb780b7,2024-01-23_08h00.34.592,bars,2023.2.3,Win32,60.24096386,657b66ea316d21385b68909f,,,,,,,,,,,1695.7304,1696.731,,,1697.2327,1697.4828,,62,62,,,,,,,,,,,,,,,,bars/048.png,bars/mask001.png,,,,,,,,,,,,2,1,,,,,,,4,10,4,8,,,,,,,,,,,1696.731,1697.2327,1697.4829,1700.4261,space,2.9268,,1700.4262,12,67,1701.4268,1701.4268,1701.4459,,,,0,11,11,11,1,50,175,,,,,,,,
,,615dd7a74b5d8dd6dc602ca3,65af551ffa16a017ecb780b7,2024-01-23_08h00.34.592,bars,2023.2.3,Win32,60.24096386,657b66ea316d21385b68909f,,,,,,,,,,,1701.4463,1702.4459,,,1702.9475,1703.1976,,121,121,,,,,,,,,,,,,,,,bars/006.png,bars/mask009.png,,,,,,,,,,,,3,2,,,,,,,2,8,3,10,,,,,,,,,,,1702.4459,1702.9474,1703.1978,1709.3773,space,6.1633,,1709.3773,86,21,1710.366,1710.3661,1710.386,,,,0,12,12,12,1,35,100,,,,,,,,
,,615dd7a74b5d8dd6dc602ca3,65af551ffa16a017ecb780b7,2024-01-23_08h00.34.592,bars,2023.2.3,Win32,60.24096386,657b66ea316d21385b68909f,,,,,,,,,,,1710.3868,1711.3853,,,1711.8865,1712.1372,,128,128,,,,,,,,,,,,,,,,bars/035.png,bars/mask008.png,,,,,,,,,,,,0,1,,,,,,,0,10,0,9,,,,,,,,,,,1711.3854,1711.8865,1712.1374,1716.8193,space,4.6659,,1716.8203,47,68,1717.8183,1717.8183,1717.8388,,,,0,13,13,13,1,175,60,,,,,,,,
,,615dd7a74b5d8dd6dc602ca3,65af551ffa16a017ecb780b7,2024-01-23_08h00.34.592,bars,2023.2.3,Win32,60.24096386,657b66ea316d21385b68909f,,,,,,,,,,,1717.8392,1718.8371,,,1719.3769,1719.6035,,159,159,,,,,,,,,,,,,,,,bars/033.png,bars/mask003.png,,,,,,,,,,,,9,2,,,,,,,2,10,1,10,,,,,,,,,,,1718.8372,1719.3766,1719.6036,1726.6414,space,7.02,,1726.6416,46,4,1727.6427,1727.6429,1727.6635,,,,0,14,14,14,1,25,155,,,,,,,,
,,615dd7a74b5d8dd6dc602ca3,65af551ffa16a017ecb780b7,2024-01-23_08h00.34.592,bars,2023.2.3,Win32,60.24096386,657b66ea316d21385b68909f,,,,,,,,,,,1727.6644,1728.6621,,,1729.1662,1729.4438,,31,31,,,,,,,,,,,,,,,,bars/028.png,bars/mask002.png,,,,,,,,,,,,0,1,,,,,,,0,8,0,6,,,,,,,,,,,1728.6622,1729.1662,1729.4438,1734.6448,space,5.1863,,1734.6449,14,89,1735.6463,1735.6464,1735.6659,,,,0,15,15,15,1,45,120,,,,,,,,
,,615dd7a74b5d8dd6dc602ca3,65af551ffa16a017ecb780b7,2024-01-23_08h00.34.592,bars,2023.2.3,Win32,60.24096386,657b66ea316d21385b68909f,,,,,,,,,,,1735.6663,1736.6656,,,1737.1687,1737.4173,,110,-70,,,,,,,,,,,,,,,,bars/025.png,bars/mask001.png,,,,,,,,,,,,1,1,,,,,,,0,6,1,5,,,,,,,,,,,1736.6657,1737.1686,1737.4173,1742.8656,space,5.4314,,1742.8656,5,70,1743.8672,1743.8673,1743.8852,,,,0,16,16,16,1,105,40,,,,,,,,
,,615dd7a74b5d8dd6dc602ca3,65af551ffa16a017ecb780b7,2024-01-23_08h00.34.592,bars,2023.2.3,Win32,60.24096386,657b66ea316d21385b68909f,,,,,,,,,,,1743.8856,1744.8867,,,1745.3886,1745.6391,,126,-54,,,,,,,,,,,,,,,,bars/039.png,bars/mask005.png,,,,,,,,,,,,2,2,,,,,,,0,8,0,8,,,,,,,,,,,1744.8869,1745.3885,1745.6392,1751.9049,space,6.2472,,1751.9049,49,21,1752.9068,1752.907,1752.9279,,,,0,17,17,17,1,175,105,,,,,,,,
,,615dd7a74b5d8dd6dc602ca3,65af551ffa16a017ecb780b7,2024-01-23_08h00.34.592,bars,2023.2.3,Win32,60.24096386,657b66ea316d21385b68909f,,,,,,,,,,,1752.9283,1753.9266,,,1754.4785,1754.6887,,132,132,,,,,,,,,,,,,,,,bars/026.png,bars/mask007.png,,,,,,,,,,,,0,2,,,,,,,0,10,0,10,,,,,,,,,,,1753.9266,1754.4785,1754.6887,1758.4728,space,3.7684,,1758.4728,83,47,1759.4662,1759.4662,1759.4928,,,,0,18,18,18,1,35,85,,,,,,,,
,,615dd7a74b5d8dd6dc602ca3,65af551ffa16a017ecb780b7,2024-01-23_08h00.34.592,bars,2023.2.3,Win32,60.24096386,657b66ea316d21385b68909f,,,,,,,,,,,1759.4933,1760.4926,,,1760.994,1761.2447,,156,156,,,,,,,,,,,,,,,,bars/033.png,bars/mask007.png,,,,,,,,,,,,9,2,,,,,,,2,8,2,9,,,,,,,,,,,1760.4927,1760.994,1761.2448,1766.9608,space,5.6989,,1766.9609,49,1,1767.9521,1767.9521,1767.9722,,,,0,19,19,19,1,25,155,,,,,,,,
,,615dd7a74b5d8dd6dc602ca3,65af551ffa16a017ecb780b7,2024-01-23_08h00.34.592,bars,2023.2.3,Win32,60.24096386,657b66ea316d21385b68909f,,,,,,,,,,,1767.9726,1768.9506,,,1769.459,1769.7132,,104,104,,,,,,,,,,,,,,,,bars/027.png,bars/mask003.png,,,,,,,,,,,,3,1,,,,,,,4,6,4,7,,,,,,,,,,,1768.9506,1769.459,1769.7132,1775.2781,space,5.5445,,1775.2782,6,54,1776.2784,1776.2785,1776.299,,,,0,20,20,20,1,110,50,,,,,,,,
,,615dd7a74b5d8dd6dc602ca3,65af551ffa16a017ecb780b7,2024-01-23_08h00.34.592,bars,2023.2.3,Win32,60.24096386,657b66ea316d21385b68909f,,,,,,,,,,,1776.2995,1777.2754,,,1777.7709,1778.0213,,109,109,,,,,,,,,,,,,,,,bars/020.png,bars/mask007.png,,,,,,,,,,,,6,1,,,,,,,6,8,7,7,,,,,,,,,,,1777.2755,1777.7708,1778.0213,1781.8515,space,3.8111,,1781.8516,6,61,1782.8396,1782.8396,1782.8575,,,,0,21,21,21,1,115,170,,,,,,,,
,,615dd7a74b5d8dd6dc602ca3,65af551ffa16a017ecb780b7,2024-01-23_08h00.34.592,bars,2023.2.3,Win32,60.24096386,657b66ea316d21385b68909f,,,,,,,,,,,1782.8579,1783.8408,,,1784.3375,1784.5884,,8,8,,,,,,,,,,,,,,,,bars/016.png,bars/mask006.png,,,,,,,,,,,,2,2,,,,,,,4,10,5,10,,,,,,,,,,,1783.841,1784.3375,1784.5885,1790.1481,space,5.5412,,1790.1481,32,23,1791.1493,1791.1493,1791.1697,,,,0,22,22,22,1,40,165,,,,,,,,
,,615dd7a74b5d8dd6dc602ca3,65af551ffa16a017ecb780b7,2024-01-23_08h00.34.592,bars,2023.2.3,Win32,60.24096386,657b66ea316d21385b68909f,,,,,,,,,,,1791.1703,1792.1737,,,1792.6689,1792.9196,,15,15,,,,,,,,,,,,,,,,bars/004.png,bars/mask006.png,,,,,,,,,,,,5,1,,,,,,,6,8,7,9,,,,,,,,,,,1792.1737,1792.6689,1792.9196,1796.8201,space,3.8822,,1796.8201,10,70,1797.8234,1797.8235,1797.8426,,,,0,23,23,23,1,25,125,,,,,,,,
,,615dd7a74b5d8dd6dc602ca3,65af551ffa16a017ecb780b7,2024-01-23_08h00.34.592,bars,2023.2.3,Win32,60.24096386,657b66ea316d21385b68909f,,,,,,,,,,,1797.843,1798.8409,,,1799.3293,1799.5806,,30,30,,,,,,,,,,,,,,,,bars/033.png,bars/mask008.png,,,,,,,,,,,,8,1,,,,,,,8,10,9,10,,,,,,,,,,,1798.8409,1799.3293,1799.5807,1805.6367,space,6.0346,,1805.6367,5,55,1806.6389,1806.6389,1806.658,,,,0,24,24,24,1,25,155,,,,,,,,
,,615dd7a74b5d8dd6dc602ca3,65af551ffa16a017ecb780b7,2024-01-23_08h00.34.592,bars,2023.2.3,Win32,60.24096386,657b66ea316d21385b68909f,,,,,,,,,,,1806.6586,1807.6466,,,1808.1479,1808.3984,,141,141,,,,,,,,,,,,,,,,bars/034.png,bars/mask004.png,,,,,,,,,,,,5,1,,,,,,,10,8,10,9,,,,,,,,,,,1807.6467,1808.1479,1808.3985,1813.8807,space,5.4634,,1813.8808,16,76,1814.8785,1814.8786,1814.8974,,,,0,25,25,25,1,125,65,,,,,,,,
,,615dd7a74b5d8dd6dc602ca3,65af551ffa16a017ecb780b7,2024-01-23_08h00.34.592,bars,2023.2.3,Win32,60.24096386,657b66ea316d21385b68909f,,,,,,,,,,,1814.8978,1815.8957,,,1816.3868,1816.6361,,11,191,,,,,,,,,,,,,,,,bars/049.png,bars/mask007.png,,,,,,,,,,,,0,1,,,,,,,10,10,10,10,,,,,,,,,,,1815.8958,1816.3867,1816.6362,1823.1877,space,6.5299,,1823.1877,31,76,1824.1884,1824.1884,1824.207,,,,0,26,26,26,1,160,115,,,,,,,,
,,615dd7a74b5d8dd6dc602ca3,65af551ffa16a017ecb780b7,2024-01-23_08h00.34.592,bars,2023.2.3,Win32,60.24096386,657b66ea316d21385b68909f,,,,,,,,,,,1824.2073,1825.2027,,,1825.6802,1825.931,,127,127,,,,,,,,,,,,,,,,bars/030.png,bars/mask002.png,,,,,,,,,,,,4,1,,,,,,,8,10,7,10,,,,,,,,,,,1825.2028,1825.6802,1825.931,1828.3281,space,2.3761,,1828.3281,13,62,1829.3349,1829.335,1829.3538,,,,0,27,27,27,1,140,65,,,,,,,,
,,615dd7a74b5d8dd6dc602ca3,65af551ffa16a017ecb780b7,2024-01-23_08h00.34.592,bars,2023.2.3,Win32,60.24096386,657b66ea316d21385b68909f,,,,,,,,,,,1829.3542,1830.3462,,,1830.8408,1831.0944,,124,124,,,,,,,,,,,,,,,,bars/025.png,bars/mask003.png,,,,,,,,,,,,4,1,,,,,,,10,8,10,7,,,,,,,,,,,1830.3463,1830.8407,1831.0944,1834.8455,space,3.7301,,1834.8456,19,84,1835.8405,1835.8405,1835.8584,,,,0,28,28,28,1,105,40,,,,,,,,
,,615dd7a74b5d8dd6dc602ca3,65af551ffa16a017ecb780b7,2024-01-23_08h00.34.592,bars,2023.2.3,Win32,60.24096386,657b66ea316d21385b68909f,,,,,,,,,,,1835.8587,1836.839,,,1837.3281,1837.5741,,21,21,,,,,,,,,,,,,,,,bars/043.png,bars/mask008.png,,,,,,,,,,,,7,1,,,,,,,10,6,10,5,,,,,,,,,,,1836.839,1837.3281,1837.5742,1841.2856,space,3.69,,1841.2856,9,71,1842.2738,1842.2739,1842.2917,,,,0,29,29,29,1,30,130,,,,,,,,
,,615dd7a74b5d8dd6dc602ca3,65af551ffa16a017ecb780b7,2024-01-23_08h00.34.592,bars,2023.2.3,Win32,60.24096386,657b66ea316d21385b68909f,,,,,,,,,,,1842.292,1843.2751,,,1843.7654,1843.9937,,129,-51,,,,,,,,,,,,,,,,bars/043.png,bars/mask009.png,,,,,,,,,,,,8,2,,,,,,,8,8,7,8,,,,,,,,,,,1843.2752,1843.7654,1843.9937,1849.8736,space,5.8586,,1849.8737,81,1,1850.8583,1850.8583,1850.878,,,,0,30,30,30,1,30,130,,,,,,,,
,,615dd7a74b5d8dd6dc602ca3,65af551ffa16a017ecb780b7,2024-01-23_08h00.34.592,bars,2023.2.3,Win32,60.24096386,657b66ea316d21385b68909f,,,,,,,,,,,1850.8784,1851.886,,,1852.3814,1852.6275,,40,40,,,,,,,,,,,,,,,,bars/034.png,bars/mask008.png,,,,,,,,,,,,2,2,,,,,,,6,10,5,10,,,,,,,,,,,1851.886,1852.3814,1852.6275,1858.6003,space,5.9547,,1858.6003,85,25,1859.5882,1859.5882,1859.6059,,,,0,31,31,31,1,125,65,,,,,,,,
,,615dd7a74b5d8dd6dc602ca3,65af551ffa16a017ecb780b7,2024-01-23_08h00.34.592,bars,2023.2.3,Win32,60.24096386,657b66ea316d21385b68909f,,,,,,,,,,,1859.6063,1860.6065,,,1861.1009,1861.3454,,41,221,,,,,,,,,,,,,,,,bars/025.png,bars/mask006.png,,,,,,,,,,,,10,2,,,,,,,4,10,4,10,,,,,,,,,,,1860.6066,1861.1009,1861.3454,1866.2468,space,4.88,,1866.2469,64,1,1867.2331,1867.2331,1867.2506,,,,0,32,32,32,1,105,40,,,,,,,,
,,615dd7a74b5d8dd6dc602ca3,65af551ffa16a017ecb780b7,2024-01-23_08h00.34.592,bars,2023.2.3,Win32,60.24096386,657b66ea316d21385b68909f,,,,,,,,,,,1867.251,1868.2504,,,1868.7516,1868.9955,,54,54,,,,,,,,,,,,,,,,bars/042.png,bars/mask009.png,,,,,,,,,,,,3,2,,,,,,,6,10,5,10,,,,,,,,,,,1868.2504,1868.7516,1868.9955,1874.217,space,5.1977,,1874.2171,89,21,1875.2115,1875.2116,1875.2295,,,,0,33,33,33,1,145,75,,,,,,,,
,,615dd7a74b5d8dd6dc602ca3,65af551ffa16a017ecb780b7,2024-01-23_08h00.34.592,bars,2023.2.3,Win32,60.24096386,657b66ea316d21385b68909f,,,,,,,,,,,1875.2299,1876.2058,,,1876.6974,1876.927,,154,-26,,,,,,,,,,,,,,,,bars/048.png,bars/mask009.png,,,,,,,,,,,,3,2,,,,,,,4,10,3,10,,,,,,,,,,,1876.2059,1876.6973,1876.927,1882.0477,space,5.0997,,1882.0477,76,21,1883.0545,1883.0545,1883.0736,,,,0,34,34,34,1,50,175,,,,,,,,
,,615dd7a74b5d8dd6dc602ca3,65af551ffa16a017ecb780b7,2024-01-23_08h00.34.592,bars,2023.2.3,Win32,60.24096386,657b66ea316d21385b68909f,,,,,,,,,,,1883.0743,1884.0685,,,1884.563,1884.8106,,126,-54,,,,,,,,,,,,,,,,bars/017.png,bars/mask004.png,,,,,,,,,,,,2,1,,,,,,,6,8,6,7,,,,,,,,,,,1884.0686,1884.563,1884.8106,1889.3218,space,4.4899,,1889.3219,19,81,1890.32,1890.32,1890.341,,,,0,35,35,35,1,145,45,,,,,,,,
,,615dd7a74b5d8dd6dc602ca3,65af551ffa16a017ecb780b7,2024-01-23_08h00.34.592,bars,2023.2.3,Win32,60.24096386,657b66ea316d21385b68909f,,,,,,,,,,,1890.3413,1891.348,,,1891.8453,1892.0941,,41,221,,,,,,,,,,,,,,,,bars/019.png,bars/mask002.png,,,,,,,,,,,,8,1,,,,,,,8,10,9,10,,,,,,,,,,,1891.348,1891.8453,1892.0941,1899.9762,space,7.8603,,1899.9762,4,64,1900.9782,1900.9783,1900.9986,,,,0,36,36,36,1,45,105,,,,,,,,
,,615dd7a74b5d8dd6dc602ca3,65af551ffa16a017ecb780b7,2024-01-23_08h00.34.592,bars,2023.2.3,Win32,60.24096386,657b66ea316d21385b68909f,,,,,,,,,,,1900.999,1901.9746,,,1902.4706,1902.7163,,98,-82,,,,,,,,,,,,,,,,bars/044.png,bars/mask001.png,,,,,,,,,,,,2,1,,,,,,,10,8,10,9,,,,,,,,,,,1901.9747,1902.4705,1902.7163,1908.0694,space,5.3314,,1908.0695,23,57,1909.0641,1909.0641,1909.0817,,,,0,37,37,37,1,75,155,,,,,,,,
,,615dd7a74b5d8dd6dc602ca3,65af551ffa16a017ecb780b7,2024-01-23_08h00.34.592,bars,2023.2.3,Win32,60.24096386,657b66ea316d21385b68909f,,,,,,,,,,,1909.082,1910.0831,,,1910.5761,1910.8249,,160,-20,,,,,,,,,,,,,,,,bars/012.png,bars/mask001.png,,,,,,,,,,,,0,2,,,,,,,8,10,7,10,,,,,,,,,,,1910.0831,1910.576,1910.8249,1916.0856,space,5.2393,,1916.0856,70,35,1917.0744,1917.0745,1917.0932,,,,0,38,38,38,1,90,15,,,,,,,,
,,615dd7a74b5d8dd6dc602ca3,65af551ffa16a017ecb780b7,2024-01-23_08h00.34.592,bars,2023.2.3,Win32,60.24096386,657b66ea316d21385b68909f,,,,,,,,,,,1917.0935,1918.0829,,,1918.5719,1918.7998,,111,111,,,,,,,,,,,,,,,,bars/041.png,bars/mask000.png,,,,,,,,,,,,1,2,,,,,,,6,10,5,10,,,,,,,,,,,1918.0829,1918.5718,1918.7998,1923.076,space,4.2548,,1923.076,89,26,1924.0649,1924.0649,1924.0827,,,,0,39,39,39,1,20,85,,,,,,,,
,,615dd7a74b5d8dd6dc602ca3,65af551ffa16a017ecb780b7,2024-01-23_08h00.34.592,bars,2023.2.3,Win32,60.24096386,657b66ea316d21385b68909f,,,,,,,,,,,1924.083,1925.073,,,1925.5789,1925.8242,,50,230,,,,,,,,,,,,,,,,bars/036.png,bars/mask000.png,,,,,,,,,,,,0,2,,,,,,,4,10,2,10,,,,,,,,,,,1925.0731,1925.5788,1925.8242,1930.7663,space,4.9202,,1930.7663,85,30,1931.7724,1931.7724,1931.7907,,,,0,40,40,40,1,145,20,,,,,,,,
,,615dd7a74b5d8dd6dc602ca3,65af551ffa16a017ecb780b7,2024-01-23_08h00.34.592,bars,2023.2.3,Win32,60.24096386,657b66ea316d21385b68909f,,,,,,,,,,,1931.7911,1932.7972,,,1933.2929,1933.5376,,57,237,,,,,,,,,,,,,,,,bars/016.png,bars/mask006.png,,,,,,,,,,,,2,1,,,,,,,6,10,5,10,,,,,,,,,,,1932.7973,1933.2929,1933.5376,1937.9809,space,4.422,,1937.981,17,72,1938.9775,1938.9775,1938.9973,,,,0,41,41,41,1,40,165,,,,,,,,
,,615dd7a74b5d8dd6dc602ca3,65af551ffa16a017ecb780b7,2024-01-23_08h00.34.592,bars,2023.2.3,Win32,60.24096386,657b66ea316d21385b68909f,,,,,,,,,,,1938.9976,1939.9923,,,1940.4716,1940.7175,,158,158,,,,,,,,,,,,,,,,bars/048.png,bars/mask000.png,,,,,,,,,,,,4,2,,,,,,,4,10,4,10,,,,,,,,,,,1939.9923,1940.4715,1940.7175,1943.4094,space,2.6729,,1943.4094,72,17,1944.402,1944.4022,1944.4216,,,,0,42,42,42,1,50,175,,,,,,,,
,,615dd7a74b5d8dd6dc602ca3,65af551ffa16a017ecb780b7,2024-01-23_08h00.34.592,bars,2023.2.3,Win32,60.24096386,657b66ea316d21385b68909f,,,,,,,,,,,1944.4219,1945.3982,,,1945.8973,1946.1417,,19,19,,,,,,,,,,,,,,,,bars/035.png,bars/mask000.png,,,,,,,,,,,,0,1,,,,,,,2,10,1,9,,,,,,,,,,,1945.3982,1945.8972,1946.1417,1952.0057,space,5.8413,,1952.0057,24,41,1953.0004,1953.0005,1953.021,,,,0,43,43,43,1,175,60,,,,,,,,
,,615dd7a74b5d8dd6dc602ca3,65af551ffa16a017ecb780b7,2024-01-23_08h00.34.592,bars,2023.2.3,Win32,60.24096386,657b66ea316d21385b68909f,,,,,,,,,,,1953.0214,1954.0198,,,1954.5192,1954.776,,61,61,,,,,,,,,,,,,,,,bars/004.png,bars/mask005.png,,,,,,,,,,,,0,1,,,,,,,0,8,0,6,,,,,,,,,,,1954.0198,1954.5192,1954.776,1962.0993,space,7.302,,1962.0994,36,64,1963.1075,1963.1076,1963.1264,,,,0,44,44,44,1,25,125,,,,,,,,
,,615dd7a74b5d8dd6dc602ca3,65af551ffa16a017ecb780b7,2024-01-23_08h00.34.592,bars,2023.2.3,Win32,60.24096386,657b66ea316d21385b68909f,,,,,,,,,,,1963.1267,1964.1284,,,1964.6282,1964.8726,,142,142,,,,,,,,,,,,,,,,bars/032.png,bars/mask005.png,,,,,,,,,,,,0,1,,,,,,,0,10,1,10,,,,,,,,,,,1964.1288,1964.6282,1964.8727,1968.9415,space,4.0465,,1968.9416,17,58,1969.9404,1969.9406,1969.9585,,,,0,45,45,45,1,125,20,,,,,,,,
,,615dd7a74b5d8dd6dc602ca3,65af551ffa16a017ecb780b7,2024-01-23_08h00.34.592,bars,2023.2.3,Win32,60.24096386,657b66ea316d21385b68909f,,,,,,,,,,,1969.9588,1970.9606,,,1971.4616,1971.7119,,154,154,,,,,,,,,,,,,,,,bars/004.png,bars/mask005.png,,,,,,,,,,,,0,2,,,,,,,2,10,2,10,,,,,,,,,,,1970.9607,1971.4616,1971.7121,1973.3503,space,1.6216,,1973.3503,51,29,1974.3519,1974.3519,1974.3555,,,,0,46,46,46,1,25,125,,,,,,,,
,,615dd7a74b5d8dd6dc602ca3,65af551ffa16a017ecb780b7,2024-01-23_08h00.34.592,bars,2023.2.3,Win32,60.24096386,657b66ea316d21385b68909f,,,,,,,,,,,1974.3559,1975.3547,,,1975.8558,1976.1064,,124,124,,,,,,,,,,,,,,,,bars/027.png,bars/mask002.png,,,,,,,,,,,,1,1,,,,,,,0,10,1,10,,,,,,,,,,,1975.3548,1975.8557,1976.1065,1979.3665,space,3.2444,,1979.3666,14,74,1980.3673,1980.3676,1980.3871,,,,0,47,47,47,1,110,50,,,,,,,,
,,615dd7a74b5d8dd6dc602ca3,65af551ffa16a017ecb780b7,2024-01-23_08h00.34.592,bars,2023.2.3,Win32,60.24096386,657b66ea316d21385b68909f,,,,,,,,,,,1980.3874,1981.3846,,,1981.8879,1982.1017,,140,140,,,,,,,,,,,,,,,,bars/044.png,bars/mask003.png,,,,,,,,,,,,5,2,,,,,,,2,10,2,10,,,,,,,,,,,1981.3859,1981.8876,1982.1017,1987.3533,space,5.2338,,1987.3534,65,15,1988.3545,1988.3547,1988.3741,,,,0,48,48,48,1,75,155,,,,,,,,
,,615dd7a74b5d8dd6dc602ca3,65af551ffa16a017ecb780b7,2024-01-23_08h00.34.592,bars,2023.2.3,Win32,60.24096386,657b66ea316d21385b68909f,,,,,,,,,,,1988.3744,1989.3739,,,1989.8749,1990.1255,,109,-71,,,,,,,,,,,,,,,,bars/045.png,bars/mask008.png,,,,,,,,,,,,0,1,,,,,,,0,10,0,8,,,,,,,,,,,1989.374,1989.8748,1990.1255,1996.627,space,6.4853,,1996.6271,9,81,1997.6283,1997.6283,1997.6491,,,,0,49,49,49,1,100,10,,,,,,,,
,,615dd7a74b5d8dd6dc602ca3,65af551ffa16a017ecb780b7,2024-01-23_08h00.34.592,bars,2023.2.3,Win32,60.24096386,657b66ea316d21385b68909f,,,,,,,,,,,,,,,,,,,,,,,,,,,,,,,,,,,,,,,,,,,,,,,,,,,,,,,,,,,,,,,,,,,,,,,,,,,,,,,,,,,,,,,,,,,,,1997.6494,2057.5653,0,2,2,1,1,sequence_tables/blk031.csv
,,615dd7a74b5d8dd6dc602ca3,65af551ffa16a017ecb780b7,2024-01-23_08h00.34.592,bars,2023.2.3,Win32,60.24096386,657b66ea316d21385b68909f,,,,,,,,,,,2074.3017,2075.2745,,,2075.7766,2076.0265,,16,16,,,,,,,,,,,,,,,,bars/018.png,bars/mask001.png,,,,,,,,,,,,0,1,,,,,,,7,5,7,6,,,,,,2057.5844,2074.2731,space,16.6728,,2075.2745,2075.7763,2076.0266,2081.7927,space,5.7494,,2081.7927,46,74,2082.7944,2082.7944,2082.8124,,,,0,0,0,0,1,150,90,,,,,,,,
,,615dd7a74b5d8dd6dc602ca3,65af551ffa16a017ecb780b7,2024-01-23_08h00.34.592,bars,2023.2.3,Win32,60.24096386,657b66ea316d21385b68909f,,,,,,,,,,,2082.8128,2083.8148,,,2084.2997,2084.5502,,22,202,,,,,,,,,,,,,,,,bars/010.png,bars/mask009.png,,,,,,,,,,,,0,2,,,,,,,5,7,5,7,,,,,,,,,,,2083.8149,2084.2996,2084.5502,2091.1671,space,6.5986,,2091.1671,37,33,2092.1674,2092.1675,2092.1886,,,,0,1,1,1,1,165,55,,,,,,,,
,,615dd7a74b5d8dd6dc602ca3,65af551ffa16a017ecb780b7,2024-01-23_08h00.34.592,bars,2023.2.3,Win32,60.24096386,657b66ea316d21385b68909f,,,,,,,,,,,2092.1902,2093.1868,,,2093.6885,2093.9363,,130,-50,,,,,,,,,,,,,,,,bars/034.png,bars/mask002.png,,,,,,,,,,,,3,1,,,,,,,3,5,4,4,,,,,,,,,,,2093.1869,2093.6885,2093.9364,2098.5028,space,4.5485,,2098.5028,5,65,2099.5027,2099.5029,2099.5224,,,,0,2,2,2,1,125,65,,,,,,,,
,,615dd7a74b5d8dd6dc602ca3,65af551ffa16a017ecb780b7,2024-01-23_08h00.34.592,bars,2023.2.3,Win32,60.24096386,657b66ea316d21385b68909f,,,,,,,,,,,2099.5228,2100.5183,,,2101.0068,2101.2575,,124,124,,,,,,,,,,,,,,,,bars/040.png,bars/mask003.png,,,,,,,,,,,,1,1,,,,,,,1,3,2,3,,,,,,,,,,,2100.5183,2101.0066,2101.2576,2106.1715,space,4.8982,,2106.1716,16,61,2107.1722,2107.1723,2107.1902,,,,0,3,3,3,1,140,5,,,,,,,,
,,615dd7a74b5d8dd6dc602ca3,65af551ffa16a017ecb780b7,2024-01-23_08h00.34.592,bars,2023.2.3,Win32,60.24096386,657b66ea316d21385b68909f,,,,,,,,,,,2107.1906,2108.1913,,,2108.6936,2108.9436,,48,48,,,,,,,,,,,,,,,,bars/029.png,bars/mask002.png,,,,,,,,,,,,5,2,,,,,,,3,5,2,6,,,,,,,,,,,2108.1915,2108.6936,2108.9436,2111.4373,space,2.4742,,2111.4374,42,3,2112.4321,2112.4323,2112.4366,,,,0,4,4,4,1,90,45,,,,,,,,
,,615dd7a74b5d8dd6dc602ca3,65af551ffa16a017ecb780b7,2024-01-23_08h00.34.592,bars,2023.2.3,Win32,60.24096386,657b66ea316d21385b68909f,,,,,,,,,,,2112.4372,2113.4406,,,2113.9415,2114.1903,,60,60,,,,,,,,,,,,,,,,bars/030.png,bars/mask005.png,,,,,,,,,,,,2,2,,,,,,,1,3,3,2,,,,,,,,,,,2113.4406,2113.9415,2114.1903,2116.5483,space,2.3426,,2116.5483,80,5,2117.5489,2117.5489,2117.5672,,,,0,5,5,5,1,140,65,,,,,,,,
,,615dd7a74b5d8dd6dc602ca3,65af551ffa16a017ecb780b7,2024-01-23_08h00.34.592,bars,2023.2.3,Win32,60.24096386,657b66ea316d21385b68909f,,,,,,,,,,,2117.5676,2118.5684,,,2119.0691,2119.3176,,51,51,,,,,,,,,,,,,,,,bars/010.png,bars/mask008.png,,,,,,,,,,,,1,2,,,,,,,3,1,2,1,,,,,,,,,,,2118.5685,2119.0691,2119.3176,2121.5929,space,2.257,,2121.5929,66,4,2122.5834,2122.5835,2122.5849,,,,0,6,6,6,1,165,55,,,,,,,,
,,615dd7a74b5d8dd6dc602ca3,65af551ffa16a017ecb780b7,2024-01-23_08h00.34.592,bars,2023.2.3,Win32,60.24096386,657b66ea316d21385b68909f,,,,,,,,,,,2122.5853,2123.5811,,,2124.0838,2124.3329,,145,-35,,,,,,,,,,,,,,,,bars/022.png,bars/mask007.png,,,,,,,,,,,,0,1,,,,,,,5,0,6,0,,,,,,,,,,,2123.5811,2124.0838,2124.3329,2129.2621,space,4.9109,,2129.2622,50,55,2130.2641,2130.2641,2130.2836,,,,0,7,7,7,1,95,20,,,,,,,,
,,615dd7a74b5d8dd6dc602ca3,65af551ffa16a017ecb780b7,2024-01-23_08h00.34.592,bars,2023.2.3,Win32,60.24096386,657b66ea316d21385b68909f,,,,,,,,,,,2130.284,2131.2836,,,2131.789,2132.0362,,12,12,,,,,,,,,,,,,,,,bars/035.png,bars/mask001.png,,,,,,,,,,,,3,1,,,,,,,7,0,7,0,,,,,,,,,,,2131.2836,2131.7889,2132.0362,2135.7787,space,3.7269,,2135.7788,17,48,2136.781,2136.781,2136.7989,,,,0,8,8,8,1,175,60,,,,,,,,
,,615dd7a74b5d8dd6dc602ca3,65af551ffa16a017ecb780b7,2024-01-23_08h00.34.592,bars,2023.2.3,Win32,60.24096386,657b66ea316d21385b68909f,,,,,,,,,,,2136.7992,2137.8024,,,2138.3022,2138.5527,,20,20,,,,,,,,,,,,,,,,bars/005.png,bars/mask004.png,,,,,,,,,,,,6,1,,,,,,,9,0,9,1,,,,,,,,,,,2137.8025,2138.3022,2138.5527,2142.2147,space,3.6472,,2142.2148,10,60,2143.2142,2143.2142,2143.2318,,,,0,9,9,9,1,10,140,,,,,,,,
,,615dd7a74b5d8dd6dc602ca3,65af551ffa16a017ecb780b7,2024-01-23_08h00.34.592,bars,2023.2.3,Win32,60.24096386,657b66ea316d21385b68909f,,,,,,,,,,,2143.2322,2144.2334,,,2144.735,2144.9851,,59,59,,,,,,,,,,,,,,,,bars/002.png,bars/mask001.png,,,,,,,,,,,,0,2,,,,,,,10,2,9,1,,,,,,,,,,,2144.2334,2144.7349,2144.9851,2148.0096,space,3.009,,2148.0097,71,26,2149.0118,2149.0118,2149.0313,,,,0,10,10,10,1,130,85,,,,,,,,
,,615dd7a74b5d8dd6dc602ca3,65af551ffa16a017ecb780b7,2024-01-23_08h00.34.592,bars,2023.2.3,Win32,60.24096386,657b66ea316d21385b68909f,,,,,,,,,,,2149.0316,2150.0311,,,2150.533,2150.7834,,51,51,,,,,,,,,,,,,,,,bars/047.png,bars/mask002.png,,,,,,,,,,,,1,2,,,,,,,8,4,8,4,,,,,,,,,,,2150.0311,2150.533,2150.7834,2153.0912,space,2.2905,,2153.0912,36,19,2154.0919,2154.0919,2154.1096,,,,0,11,11,11,1,15,70,,,,,,,,
,,615dd7a74b5d8dd6dc602ca3,65af551ffa16a017ecb780b7,2024-01-23_08h00.34.592,bars,2023.2.3,Win32,60.24096386,657b66ea316d21385b68909f,,,,,,,,,,,2154.11,2155.1111,,,2155.6123,2155.8632,,122,122,,,,,,,,,,,,,,,,bars/003.png,bars/mask006.png,,,,,,,,,,,,3,2,,,,,,,6,6,6,7,,,,,,,,,,,2155.1112,2155.6123,2155.8632,2158.6722,space,2.7919,,2158.6722,83,18,2159.6726,2159.6727,2159.6905,,,,0,12,12,12,1,25,140,,,,,,,,
,,615dd7a74b5d8dd6dc602ca3,65af551ffa16a017ecb780b7,2024-01-23_08h00.34.592,bars,2023.2.3,Win32,60.24096386,657b66ea316d21385b68909f,,,,,,,,,,,2159.6908,2160.692,,,2161.1938,2161.4437,,40,40,,,,,,,,,,,,,,,,bars/007.png,bars/mask005.png,,,,,,,,,,,,5,2,,,,,,,8,8,8,9,,,,,,,,,,,2160.692,2161.1938,2161.4439,2165.1648,space,3.7038,,2165.1648,45,15,2166.1571,2166.1572,2166.1751,,,,0,13,13,13,1,175,55,,,,,,,,
,,615dd7a74b5d8dd6dc602ca3,65af551ffa16a017ecb780b7,2024-01-23_08h00.34.592,bars,2023.2.3,Win32,60.24096386,657b66ea316d21385b68909f,,,,,,,,,,,2166.1754,2167.1832,,,2167.6758,2167.9282,,127,127,,,,,,,,,,,,,,,,bars/045.png,bars/mask005.png,,,,,,,,,,,,1,1,,,,,,,10,6,9,6,,,,,,,,,,,2167.1832,2167.6757,2167.9284,2170.4667,space,2.5192,,2170.4668,27,63,2171.469,2171.4691,2171.4891,,,,0,14,14,14,1,100,10,,,,,,,,
,,615dd7a74b5d8dd6dc602ca3,65af551ffa16a017ecb780b7,2024-01-23_08h00.34.592,bars,2023.2.3,Win32,60.24096386,657b66ea316d21385b68909f,,,,,,,,,,,2171.4894,2172.4878,,,2172.9893,2173.2401,,58,58,,,,,,,,,,,,,,,,bars/027.png,bars/mask002.png,,,,,,,,,,,,2,2,,,,,,,10,4,10,3,,,,,,,,,,,2172.4878,2172.9893,2173.2401,2176.5341,space,3.2782,,2176.5341,52,8,2177.5341,2177.5343,2177.5536,,,,0,15,15,15,1,110,50,,,,,,,,
,,615dd7a74b5d8dd6dc602ca3,65af551ffa16a017ecb780b7,2024-01-23_08h00.34.592,bars,2023.2.3,Win32,60.24096386,657b66ea316d21385b68909f,,,,,,,,,,,2177.554,2178.5534,,,2179.0547,2179.3019,,53,53,,,,,,,,,,,,,,,,bars/047.png,bars/mask000.png,,,,,,,,,,,,2,2,,,,,,,10,6,10,5,,,,,,,,,,,2178.5536,2179.0546,2179.3021,2183.0498,space,3.7313,,2183.0499,38,17,2184.0511,2184.0513,2184.069,,,,0,16,16,16,1,15,70,,,,,,,,
,,615dd7a74b5d8dd6dc602ca3,65af551ffa16a017ecb780b7,2024-01-23_08h00.34.592,bars,2023.2.3,Win32,60.24096386,657b66ea316d21385b68909f,,,,,,,,,,,2184.0693,2185.0699,,,2185.5714,2185.822,,41,41,,,,,,,,,,,,,,,,bars/010.png,bars/mask002.png,,,,,,,,,,,,3,2,,,,,,,10,4,10,5,,,,,,,,,,,2185.0699,2185.5713,2185.822,2189.6001,space,3.7599,,2189.6002,56,14,2190.6006,2190.6006,2190.6187,,,,0,17,17,17,1,165,55,,,,,,,,
,,615dd7a74b5d8dd6dc602ca3,65af551ffa16a017ecb780b7,2024-01-23_08h00.34.592,bars,2023.2.3,Win32,60.24096386,657b66ea316d21385b68909f,,,,,,,,,,,2190.619,2191.6198,,,2192.1214,2192.3722,,109,109,,,,,,,,,,,,,,,,bars/013.png,bars/mask004.png,,,,,,,,,,,,0,1,,,,,,,10,6,10,7,,,,,,,,,,,2191.6199,2192.1213,2192.3722,2194.7459,space,2.3571,,2194.746,34,81,2195.7472,2195.7472,2195.7667,,,,0,18,18,18,1,75,10,,,,,,,,
,,615dd7a74b5d8dd6dc602ca3,65af551ffa16a017ecb780b7,2024-01-23_08h00.34.592,bars,2023.2.3,Win32,60.24096386,657b66ea316d21385b68909f,,,,,,,,,,,2195.7671,2196.7662,,,2197.2679,2197.5112,,143,-37,,,,,,,,,,,,,,,,bars/005.png,bars/mask000.png,,,,,,,,,,,,8,2,,,,,,,10,8,10,9,,,,,,,,,,,2196.7662,2197.2678,2197.5113,2201.8484,space,4.3156,,2201.8485,47,3,2202.8362,2202.8363,2202.8599,,,,0,19,19,19,1,10,140,,,,,,,,
,,615dd7a74b5d8dd6dc602ca3,65af551ffa16a017ecb780b7,2024-01-23_08h00.34.592,bars,2023.2.3,Win32,60.24096386,657b66ea316d21385b68909f,,,,,,,,,,,2202.8606,2203.8525,,,2204.3533,2204.6037,,106,106,,,,,,,,,,,,,,,,bars/006.png,bars/mask004.png,,,,,,,,,,,,7,2,,,,,,,8,10,6,9,,,,,,,,,,,2203.8526,2204.3533,2204.6037,2207.3123,space,2.6917,,2207.3123,71,6,2208.3128,2208.313,2208.3306,,,,0,20,20,20,1,35,100,,,,,,,,
,,615dd7a74b5d8dd6dc602ca3,65af551ffa16a017ecb780b7,2024-01-23_08h00.34.592,bars,2023.2.3,Win32,60.24096386,657b66ea316d21385b68909f,,,,,,,,,,,2208.331,2209.3466,,,2209.8968,2210.084,,45,225,,,,,,,,,,,,,,,,bars/006.png,bars/mask003.png,,,,,,,,,,,,4,1,,,,,,,6,10,6,9,,,,,,,,,,,2209.3466,2209.8968,2210.0841,2215.5831,space,5.4817,,2215.5841,10,55,2216.5835,2216.5837,2216.6035,,,,0,21,21,21,1,35,100,,,,,,,,
,,615dd7a74b5d8dd6dc602ca3,65af551ffa16a017ecb780b7,2024-01-23_08h00.34.592,bars,2023.2.3,Win32,60.24096386,657b66ea316d21385b68909f,,,,,,,,,,,2216.6039,2217.6032,,,2218.1043,2218.355,,136,-44,,,,,,,,,,,,,,,,bars/038.png,bars/mask005.png,,,,,,,,,,,,0,1,,,,,,,4,8,3,9,,,,,,,,,,,2217.6032,2218.1043,2218.355,2223.1523,space,4.7802,,2223.1525,29,66,2224.1526,2224.1527,2224.172,,,,0,22,22,22,1,165,70,,,,,,,,
,,615dd7a74b5d8dd6dc602ca3,65af551ffa16a017ecb780b7,2024-01-23_08h00.34.592,bars,2023.2.3,Win32,60.24096386,657b66ea316d21385b68909f,,,,,,,,,,,2224.1727,2225.172,,,2225.6732,2225.9234,,44,44,,,,,,,,,,,,,,,,bars/029.png,bars/mask000.png,,,,,,,,,,,,10,2,,,,,,,6,10,5,10,,,,,,,,,,,2225.1721,2225.6731,2225.9235,2228.8815,space,2.9414,,2228.8815,46,1,2229.8834,2229.8835,2229.903,,,,0,23,23,23,1,90,45,,,,,,,,
,,615dd7a74b5d8dd6dc602ca3,65af551ffa16a017ecb780b7,2024-01-23_08h00.34.592,bars,2023.2.3,Win32,60.24096386,657b66ea316d21385b68909f,,,,,,,,,,,2229.9043,2230.9043,,,2231.405,2231.6557,,22,202,,,,,,,,,,,,,,,,bars/012.png,bars/mask009.png,,,,,,,,,,,,8,2,,,,,,,8,10,8,10,,,,,,,,,,,2230.9044,2231.405,2231.6557,2235.6991,space,4.0259,,2235.6991,68,7,2236.7012,2236.7015,2236.7195,,,,0,24,24,24,1,90,15,,,,,,,,
,,615dd7a74b5d8dd6dc602ca3,65af551ffa16a017ecb780b7,2024-01-23_08h00.34.592,bars,2023.2.3,Win32,60.24096386,657b66ea316d21385b68909f,,,,,,,,,,,2236.7198,2237.7199,,,2238.2216,2238.4723,,126,-54,,,,,,,,,,,,,,,,bars/018.png,bars/mask009.png,,,,,,,,,,,,1,1,,,,,,,6,8,7,7,,,,,,,,,,,2237.7199,2238.2215,2238.4723,2243.0354,space,4.5473,,2243.0355,24,36,2244.0249,2244.0249,2244.0435,,,,0,25,25,25,1,150,90,,,,,,,,
,,615dd7a74b5d8dd6dc602ca3,65af551ffa16a017ecb780b7,2024-01-23_08h00.34.592,bars,2023.2.3,Win32,60.24096386,657b66ea316d21385b68909f,,,,,,,,,,,2244.044,2245.0386,,,2245.54,2245.7907,,107,287,,,,,,,,,,,,,,,,bars/013.png,bars/mask007.png,,,,,,,,,,,,0,1,,,,,,,4,6,4,6,,,,,,,,,,,2245.0387,2245.5399,2245.7907,2251.3222,space,5.5158,,2251.3222,32,83,2252.3242,2252.3244,2252.344,,,,0,26,26,26,1,75,10,,,,,,,,
,,615dd7a74b5d8dd6dc602ca3,65af551ffa16a017ecb780b7,2024-01-23_08h00.34.592,bars,2023.2.3,Win32,60.24096386,657b66ea316d21385b68909f,,,,,,,,,,,2252.3444,2253.3434,,,2253.8471,2254.0961,,159,159,,,,,,,,,,,,,,,,bars/008.png,bars/mask000.png,,,,,,,,,,,,2,2,,,,,,,2,8,3,7,,,,,,,,,,,2253.3435,2253.8471,2254.0961,2255.3008,space,1.1891,,2255.3009,49,21,2256.3005,2256.3006,2256.3203,,,,0,27,27,27,1,110,0,,,,,,,,
,,615dd7a74b5d8dd6dc602ca3,65af551ffa16a017ecb780b7,2024-01-23_08h00.34.592,bars,2023.2.3,Win32,60.24096386,657b66ea316d21385b68909f,,,,,,,,,,,2256.3207,2257.3206,,,2257.8212,2258.0717,,132,132,,,,,,,,,,,,,,,,bars/034.png,bars/mask002.png,,,,,,,,,,,,0,1,,,,,,,0,10,0,10,,,,,,,,,,,2257.3208,2257.8212,2258.0719,2261.548,space,3.4596,,2261.548,7,67,2262.5499,2262.55,2262.5693,,,,0,28,28,28,1,125,65,,,,,,,,
,,615dd7a74b5d8dd6dc602ca3,65af551ffa16a017ecb780b7,2024-01-23_08h00.34.592,bars,2023.2.3,Win32,60.24096386,657b66ea316d21385b68909f,,,,,,,,,,,2262.5696,2263.5692,,,2264.0705,2264.3211,,150,-30,,,,,,,,,,,,,,,,bars/036.png,bars/mask009.png,,,,,,,,,,,,1,1,,,,,,,0,8,1,9,,,,,,,,,,,2263.5692,2264.0705,2264.3212,2269.5279,space,5.1888,,2269.528,5,50,2270.5204,2270.5205,2270.5381,,,,0,29,29,29,1,145,20,,,,,,,,
,,615dd7a74b5d8dd6dc602ca3,65af551ffa16a017ecb780b7,2024-01-23_08h00.34.592,bars,2023.2.3,Win32,60.24096386,657b66ea316d21385b68909f,,,,,,,,,,,2270.5384,2271.54,,,2272.0412,2272.2918,,122,122,,,,,,,,,,,,,,,,bars/017.png,bars/mask001.png,,,,,,,,,,,,0,1,,,,,,,0,6,0,5,,,,,,,,,,,2271.54,2272.0412,2272.2918,2275.7525,space,3.4434,,2275.7526,23,77,2276.7528,2276.753,2276.7709,,,,0,30,30,30,1,145,45,,,,,,,,
,,615dd7a74b5d8dd6dc602ca3,65af551ffa16a017ecb780b7,2024-01-23_08h00.34.592,bars,2023.2.3,Win32,60.24096386,657b66ea316d21385b68909f,,,,,,,,,,,2276.7713,2277.7721,,,2278.2737,2278.5243,,158,-22,,,,,,,,,,,,,,,,bars/049.png,bars/mask006.png,,,,,,,,,,,,3,1,,,,,,,2,8,3,9,,,,,,,,,,,2277.7723,2278.2737,2278.5243,2282.9716,space,4.4271,,2282.9717,2,43,2283.9712,2283.9713,2283.9893,,,,0,31,31,31,1,160,115,,,,,,,,
,,615dd7a74b5d8dd6dc602ca3,65af551ffa16a017ecb780b7,2024-01-23_08h00.34.592,bars,2023.2.3,Win32,60.24096386,657b66ea316d21385b68909f,,,,,,,,,,,2283.9896,2284.9925,,,2285.4807,2285.7339,,117,117,,,,,,,,,,,,,,,,bars/045.png,bars/mask009.png,,,,,,,,,,,,0,1,,,,,,,0,10,0,9,,,,,,,,,,,2284.9926,2285.4807,2285.7339,2288.9518,space,3.1975,,2288.9519,17,73,2289.9528,2289.9529,2289.9708,,,,0,32,32,32,1,100,10,,,,,,,,
,,615dd7a74b5d8dd6dc602ca3,65af551ffa16a017ecb780b7,2024-01-23_08h00.34.592,bars,2023.2.3,Win32,60.24096386,657b66ea316d21385b68909f,,,,,,,,,,,2289.9711,2290.9721,,,2291.4732,2291.724,,75,75,,,,,,,,,,,,,,,,bars/014.png,bars/mask007.png,,,,,,,,,,,,3,1,,,,,,,2,10,3,10,,,,,,,,,,,2290.9722,2291.4732,2291.724,2296.32,space,4.581,,2296.3201,5,75,2297.3217,2297.3219,2297.3397,,,,0,33,33,33,1,80,0,,,,,,,,
,,615dd7a74b5d8dd6dc602ca3,65af551ffa16a017ecb780b7,2024-01-23_08h00.34.592,bars,2023.2.3,Win32,60.24096386,657b66ea316d21385b68909f,,,,,,,,,,,2297.34,2298.3413,,,2298.8424,2299.0925,,63,63,,,,,,,,,,,,,,,,bars/047.png,bars/mask009.png,,,,,,,,,,,,8,2,,,,,,,0,10,0,10,,,,,,,,,,,2298.3413,2298.8424,2299.0925,2303.454,space,4.3446,,2303.454,48,7,2304.4561,2304.4562,2304.4748,,,,0,34,34,34,1,15,70,,,,,,,,
,,615dd7a74b5d8dd6dc602ca3,65af551ffa16a017ecb780b7,2024-01-23_08h00.34.592,bars,2023.2.3,Win32,60.24096386,657b66ea316d21385b68909f,,,,,,,,,,,2304.4752,2305.4754,,,2305.9771,2306.2278,,116,116,,,,,,,,,,,,,,,,bars/000.png,bars/mask004.png,,,,,,,,,,,,0,2,,,,,,,2,10,2,10,,,,,,,,,,,2305.4754,2305.977,2306.2279,2308.9869,space,2.743,,2308.9869,76,29,2309.9866,2309.9867,2310.0043,,,,0,35,35,35,1,40,145,,,,,,,,
,,615dd7a74b5d8dd6dc602ca3,65af551ffa16a017ecb780b7,2024-01-23_08h00.34.592,bars,2023.2.3,Win32,60.24096386,657b66ea316d21385b68909f,,,,,,,,,,,2310.0048,2311.006,,,2311.5076,2311.7585,,63,63,,,,,,,,,,,,,,,,bars/022.png,bars/mask008.png,,,,,,,,,,,,0,1,,,,,,,0,10,0,10,,,,,,,,,,,2311.0061,2311.5075,2311.7585,2316.5729,space,4.7985,,2316.573,32,43,2317.5733,2317.5733,2317.5925,,,,0,36,36,36,1,95,20,,,,,,,,
,,615dd7a74b5d8dd6dc602ca3,65af551ffa16a017ecb780b7,2024-01-23_08h00.34.592,bars,2023.2.3,Win32,60.24096386,657b66ea316d21385b68909f,,,,,,,,,,,2317.5929,2318.5929,,,2319.094,2319.3446,,67,67,,,,,,,,,,,,,,,,bars/036.png,bars/mask001.png,,,,,,,,,,,,0,2,,,,,,,0,10,1,10,,,,,,,,,,,2318.593,2319.0939,2319.3446,2320.5995,space,1.2377,,2320.5996,78,47,2321.6001,2321.6001,2321.6037,,,,0,37,37,37,1,145,20,,,,,,,,
,,615dd7a74b5d8dd6dc602ca3,65af551ffa16a017ecb780b7,2024-01-23_08h00.34.592,bars,2023.2.3,Win32,60.24096386,657b66ea316d21385b68909f,,,,,,,,,,,2321.6041,2322.6028,,,2323.1042,2323.354,,163,-17,,,,,,,,,,,,,,,,bars/003.png,bars/mask000.png,,,,,,,,,,,,2,2,,,,,,,2,8,1,9,,,,,,,,,,,2322.6028,2323.1042,2323.3542,2326.8643,space,3.4939,,2326.8644,42,23,2327.866,2327.866,2327.8846,,,,0,38,38,38,1,25,140,,,,,,,,
,,615dd7a74b5d8dd6dc602ca3,65af551ffa16a017ecb780b7,2024-01-23_08h00.34.592,bars,2023.2.3,Win32,60.24096386,657b66ea316d21385b68909f,,,,,,,,,,,2327.885,2328.8864,,,2329.3867,2329.6382,,46,226,,,,,,,,,,,,,,,,bars/030.png,bars/mask006.png,,,,,,,,,,,,4,2,,,,,,,4,10,4,10,,,,,,,,,,,2328.8864,2329.3867,2329.6384,2332.6794,space,2.9679,,2332.6795,86,19,2333.6804,2333.6804,2333.6985,,,,0,39,39,39,1,140,65,,,,,,,,
,,615dd7a74b5d8dd6dc602ca3,65af551ffa16a017ecb780b7,2024-01-23_08h00.34.592,bars,2023.2.3,Win32,60.24096386,657b66ea316d21385b68909f,,,,,,,,,,,2333.6988,2334.695,,,2335.1843,2335.4349,,132,-48,,,,,,,,,,,,,,,,bars/042.png,bars/mask008.png,,,,,,,,,,,,3,1,,,,,,,6,10,6,10,,,,,,,,,,,2334.695,2335.1842,2335.435,2338.6279,space,3.1766,,2338.6279,13,57,2339.6291,2339.6293,2339.65,,,,0,40,40,40,1,145,75,,,,,,,,
,,615dd7a74b5d8dd6dc602ca3,65af551ffa16a017ecb780b7,2024-01-23_08h00.34.592,bars,2023.2.3,Win32,60.24096386,657b66ea316d21385b68909f,,,,,,,,,,,2339.6508,2340.6483,,,2341.1498,2341.4,,56,56,,,,,,,,,,,,,,,,bars/019.png,bars/mask004.png,,,,,,,,,,,,6,1,,,,,,,8,10,9,10,,,,,,,,,,,2340.6485,2341.1496,2341.4002,2343.5892,space,2.1728,,2343.5893,11,49,2344.5937,2344.5937,2344.6109,,,,0,41,41,41,1,45,105,,,,,,,,
,,615dd7a74b5d8dd6dc602ca3,65af551ffa16a017ecb780b7,2024-01-23_08h00.34.592,bars,2023.2.3,Win32,60.24096386,657b66ea316d21385b68909f,,,,,,,,,,,2344.6112,2345.6106,,,2346.1099,2346.3624,,110,110,,,,,,,,,,,,,,,,bars/031.png,bars/mask008.png,,,,,,,,,,,,3,1,,,,,,,6,10,4,10,,,,,,,,,,,2345.6107,2346.1099,2346.3625,2350.5601,space,4.1826,,2350.5601,10,75,2351.559,2351.559,2351.5779,,,,0,42,42,42,1,120,35,,,,,,,,
,,615dd7a74b5d8dd6dc602ca3,65af551ffa16a017ecb780b7,2024-01-23_08h00.34.592,bars,2023.2.3,Win32,60.24096386,657b66ea316d21385b68909f,,,,,,,,,,,2351.5784,2352.5782,,,2353.0801,2353.3306,,68,68,,,,,,,,,,,,,,,,bars/028.png,bars/mask004.png,,,,,,,,,,,,1,1,,,,,,,8,8,6,8,,,,,,,,,,,2352.5784,2353.08,2353.3307,2356.8925,space,3.5458,,2356.8925,23,52,2357.8922,2357.8923,2357.9103,,,,0,43,43,43,1,45,120,,,,,,,,
,,615dd7a74b5d8dd6dc602ca3,65af551ffa16a017ecb780b7,2024-01-23_08h00.34.592,bars,2023.2.3,Win32,60.24096386,657b66ea316d21385b68909f,,,,,,,,,,,2357.9106,2358.9115,,,2359.413,2359.6635,,90,90,,,,,,,,,,,,,,,,bars/044.png,bars/mask006.png,,,,,,,,,,,,3,1,,,,,,,6,10,5,9,,,,,,,,,,,2358.9115,2359.413,2359.6635,2368.2538,space,8.5016,,2368.2539,15,65,2369.254,2369.2541,2369.2734,,,,0,44,44,44,1,75,155,,,,,,,,
,,615dd7a74b5d8dd6dc602ca3,65af551ffa16a017ecb780b7,2024-01-23_08h00.34.592,bars,2023.2.3,Win32,60.24096386,657b66ea316d21385b68909f,,,,,,,,,,,2369.2738,2370.2634,,,2370.7582,2371.0083,,56,56,,,,,,,,,,,,,,,,bars/014.png,bars/mask007.png,,,,,,,,,,,,1,1,,,,,,,4,8,3,8,,,,,,,,,,,2370.2634,2370.758,2371.0083,2378.0455,space,7.0205,,2378.0455,24,56,2379.0456,2379.0457,2379.0647,,,,0,45,45,45,1,80,0,,,,,,,,
,,615dd7a74b5d8dd6dc602ca3,65af551ffa16a017ecb780b7,2024-01-23_08h00.34.592,bars,2023.2.3,Win32,60.24096386,657b66ea316d21385b68909f,,,,,,,,,,,2379.065,2380.0607,,,2380.5492,2380.7998,,139,-41,,,,,,,,,,,,,,,,bars/048.png,bars/mask005.png,,,,,,,,,,,,0,2,,,,,,,2,6,3,7,,,,,,,,,,,2380.0609,2380.5492,2380.7998,2384.7435,space,3.9273,,2384.7436,89,36,2385.7463,2385.7463,2385.7676,,,,0,46,46,46,1,50,175,,,,,,,,
,,615dd7a74b5d8dd6dc602ca3,65af551ffa16a017ecb780b7,2024-01-23_08h00.34.592,bars,2023.2.3,Win32,60.24096386,657b66ea316d21385b68909f,,,,,,,,,,,2385.768,2386.7652,,,2387.2659,2387.5169,,107,107,,,,,,,,,,,,,,,,bars/039.png,bars/mask003.png,,,,,,,,,,,,4,2,,,,,,,4,4,4,4,,,,,,,,,,,2386.7652,2387.2659,2387.5169,2389.6671,space,2.1342,,2389.6671,68,2,2390.6583,2390.6586,2390.6762,,,,0,47,47,47,1,175,105,,,,,,,,
,,615dd7a74b5d8dd6dc602ca3,65af551ffa16a017ecb780b7,2024-01-23_08h00.34.592,bars,2023.2.3,Win32,60.24096386,657b66ea316d21385b68909f,,,,,,,,,,,2390.6765,2391.6782,,,2392.1785,2392.4293,,154,-26,,,,,,,,,,,,,,,,bars/023.png,bars/mask005.png,,,,,,,,,,,,0,2,,,,,,,2,2,3,3,,,,,,,,,,,2391.6783,2392.1785,2392.4295,2396.8428,space,4.3975,,2396.8429,46,39,2397.8434,2397.8436,2397.8617,,,,0,48,48,48,1,20,115,,,,,,,,
,,615dd7a74b5d8dd6dc602ca3,65af551ffa16a017ecb780b7,2024-01-23_08h00.34.592,bars,2023.2.3,Win32,60.24096386,657b66ea316d21385b68909f,,,,,,,,,,,2397.8621,2398.8629,,,2399.3638,2399.6144,,31,31,,,,,,,,,,,,,,,,bars/012.png,bars/mask003.png,,,,,,,,,,,,0,2,,,,,,,4,0,3,0,,,,,,,,,,,2398.863,2399.3637,2399.6145,2406.2986,space,6.6678,,2406.2986,59,16,2407.3006,2407.3007,2407.3198,,,,0,49,49,49,1,90,15,,,,,,,,
,,615dd7a74b5d8dd6dc602ca3,65af551ffa16a017ecb780b7,2024-01-23_08h00.34.592,bars,2023.2.3,Win32,60.24096386,657b66ea316d21385b68909f,,,,,,,,,,,,,,,,,,,,,,,,,,,,,,,,,,,,,,,,,,,,,,,,,,,,,,,,,,,,,,,,,,,,,,,,,,,,,,,,,,,,,,,,,,,,,2407.32,2467.32,0,3,3,2,1,sequence_tables/blk007.csv
,,615dd7a74b5d8dd6dc602ca3,65af551ffa16a017ecb780b7,2024-01-23_08h00.34.592,bars,2023.2.3,Win32,60.24096386,657b66ea316d21385b68909f,,,,,,,,,,,2469.6539,2470.6451,,,2471.1464,2471.3966,,155,155,,,,,,,,,,,,,,,,bars/007.png,bars/mask006.png,,,,,,,,,,,,0,1,,,,,,,0,3,0,3,,,,,,2467.3412,2469.6448,space,2.2886,,2470.6452,2471.1464,2471.3967,2474.822,space,3.4093,,2474.8221,20,80,2475.8254,2475.8255,2475.8473,,,,0,0,0,0,1,175,55,,,,,,,,
,,615dd7a74b5d8dd6dc602ca3,65af551ffa16a017ecb780b7,2024-01-23_08h00.34.592,bars,2023.2.3,Win32,60.24096386,657b66ea316d21385b68909f,,,,,,,,,,,2475.8477,2476.8435,,,2477.345,2477.5957,,32,32,,,,,,,,,,,,,,,,bars/028.png,bars/mask004.png,,,,,,,,,,,,0,1,,,,,,,2,5,0,6,,,,,,,,,,,2476.8436,2477.3448,2477.5958,2480.3372,space,2.7263,,2480.3373,13,88,2481.3382,2481.3384,2481.3562,,,,0,1,1,1,1,45,120,,,,,,,,
,,615dd7a74b5d8dd6dc602ca3,65af551ffa16a017ecb780b7,2024-01-23_08h00.34.592,bars,2023.2.3,Win32,60.24096386,657b66ea316d21385b68909f,,,,,,,,,,,2481.3566,2482.3602,,,2482.8524,2483.0933,,123,123,,,,,,,,,,,,,,,,bars/024.png,bars/mask003.png,,,,,,,,,,,,0,1,,,,,,,0,7,0,6,,,,,,,,,,,2482.3602,2482.8524,2483.0933,2485.5015,space,2.3905,,2485.5016,3,47,2486.502,2486.5021,2486.52,,,,0,2,2,2,1,120,170,,,,,,,,
,,615dd7a74b5d8dd6dc602ca3,65af551ffa16a017ecb780b7,2024-01-23_08h00.34.592,bars,2023.2.3,Win32,60.24096386,657b66ea316d21385b68909f,,,,,,,,,,,2486.5203,2487.5205,,,2488.0184,2488.2704,,38,38,,,,,,,,,,,,,,,,bars/026.png,bars/mask005.png,,,,,,,,,,,,2,1,,,,,,,2,5,2,5,,,,,,,,,,,2487.5205,2488.0184,2488.2705,2492.6674,space,4.3805,,2492.6674,3,47,2493.6695,2493.6696,2493.6878,,,,0,3,3,3,1,35,85,,,,,,,,
,,615dd7a74b5d8dd6dc602ca3,65af551ffa16a017ecb780b7,2024-01-23_08h00.34.592,bars,2023.2.3,Win32,60.24096386,657b66ea316d21385b68909f,,,,,,,,,,,2493.6882,2494.6892,,,2495.1903,2495.4618,,126,126,,,,,,,,,,,,,,,,bars/005.png,bars/mask006.png,,,,,,,,,,,,4,2,,,,,,,0,7,0,7,,,,,,,,,,,2494.6892,2495.1903,2495.4618,2498.3834,space,2.8881,,2498.3835,64,14,2499.3839,2499.384,2499.4034,,,,0,4,4,4,1,10,140,,,,,,,,
,,615dd7a74b5d8dd6dc602ca3,65af551ffa16a017ecb780b7,2024-01-23_08h00.34.592,bars,2023.2.3,Win32,60.24096386,657b66ea316d21385b68909f,,,,,,,,,,,2499.4038,2500.4033,,,2500.9051,2501.1557,,120,120,,,,,,,,,,,,,,,,bars/029.png,bars/mask007.png,,,,,,,,,,,,0,1,,,,,,,2,5,3,5,,,,,,,,,,,2500.4033,2500.9051,2501.1557,2503.6808,space,2.5079,,2503.6808,30,75,2504.6811,2504.6812,2504.7008,,,,0,5,5,5,1,90,45,,,,,,,,
,,615dd7a74b5d8dd6dc602ca3,65af551ffa16a017ecb780b7,2024-01-23_08h00.34.592,bars,2023.2.3,Win32,60.24096386,657b66ea316d21385b68909f,,,,,,,,,,,2504.7012,2505.6926,,,2506.1877,2506.4358,,150,150,,,,,,,,,,,,,,,,bars/033.png,bars/mask003.png,,,,,,,,,,,,2,2,,,,,,,0,3,0,2,,,,,,,,,,,2505.6927,2506.1876,2506.4358,2511.5195,space,5.0652,,2511.5196,55,5,2512.5176,2512.5177,2512.5384,,,,0,6,6,6,1,25,155,,,,,,,,
,,615dd7a74b5d8dd6dc602ca3,65af551ffa16a017ecb780b7,2024-01-23_08h00.34.592,bars,2023.2.3,Win32,60.24096386,657b66ea316d21385b68909f,,,,,,,,,,,2512.5388,2513.5288,,,2514.0217,2514.2648,,41,41,,,,,,,,,,,,,,,,bars/028.png,bars/mask006.png,,,,,,,,,,,,3,1,,,,,,,2,5,3,5,,,,,,,,,,,2513.529,2514.0217,2514.2648,2515.624,space,1.342,,2515.6241,4,79,2516.6276,2516.6276,2516.6325,,,,0,7,7,7,1,45,120,,,,,,,,
,,615dd7a74b5d8dd6dc602ca3,65af551ffa16a017ecb780b7,2024-01-23_08h00.34.592,bars,2023.2.3,Win32,60.24096386,657b66ea316d21385b68909f,,,,,,,,,,,2516.633,2517.6306,,,2518.1316,2518.3823,,84,84,,,,,,,,,,,,,,,,bars/021.png,bars/mask005.png,,,,,,,,,,,,4,2,,,,,,,0,7,0,8,,,,,,,,,,,2517.6306,2518.1315,2518.3823,2521.3073,space,2.9084,,2521.3073,71,14,2522.3087,2522.3089,2522.3287,,,,0,8,8,8,1,155,70,,,,,,,,
,,615dd7a74b5d8dd6dc602ca3,65af551ffa16a017ecb780b7,2024-01-23_08h00.34.592,bars,2023.2.3,Win32,60.24096386,657b66ea316d21385b68909f,,,,,,,,,,,2522.3291,2523.328,,,2523.8297,2524.08,,157,-23,,,,,,,,,,,,,,,,bars/033.png,bars/mask003.png,,,,,,,,,,,,5,2,,,,,,,2,5,3,5,,,,,,,,,,,2523.3282,2523.8297,2524.0801,2529.7285,space,5.6306,,2529.7285,48,2,2530.7305,2530.7306,2530.7498,,,,0,9,9,9,1,25,155,,,,,,,,
,,615dd7a74b5d8dd6dc602ca3,65af551ffa16a017ecb780b7,2024-01-23_08h00.34.592,bars,2023.2.3,Win32,60.24096386,657b66ea316d21385b68909f,,,,,,,,,,,2530.7504,2531.7499,,,2532.2525,2532.5036,,125,-55,,,,,,,,,,,,,,,,bars/034.png,bars/mask002.png,,,,,,,,,,,,1,1,,,,,,,0,7,1,7,,,,,,,,,,,2531.75,2532.2525,2532.5036,2536.8147,space,4.2983,,2536.8148,0,60,2537.8158,2537.8158,2537.8366,,,,0,10,10,10,1,125,65,,,,,,,,
