init_variables.started,init_variables.stopped,participant,session,date,expName,psychopyVersion,OS,frameRate,study_id,instruction_exp.started,instruction_exp.stopped,key_resp_8.keys,key_resp_8.rt,key_resp_8.duration,instruction_single.started,instruction_single.stopped,key_resp_2.keys,key_resp_2.rt,key_resp_2.duration,interval.started,interval.stopped,cue_single.started,cue_single.stopped,mask.started,mask.stopped,ori_response_single.started,res_ori,res,ori_response_single.stopped,key_resp_single.keys,key_resp_single.rt,key_resp_single.duration,disp_single.started,disp_single.stopped,key_resp.keys,key_resp.rt,key_resp.duration,single.thisRepN,single.thisTrialN,single.thisN,single.thisIndex,single.ran,ori,path,mask_path,instruction_bandit.started,instruction_bandit.stopped,key_resp_6.keys,key_resp_6.rt,key_resp_6.duration,cue_bandit.started,cue_bandit.stopped,bandit_res.keys,bandit_res.rt,bandit_res.duration,outcome_bandit.started,rew,action,outcome_bandit.stopped,bandit.thisRepN,bandit.thisTrialN,bandit.thisN,bandit.thisIndex,bandit.ran,actual_rew1,actual_rew2,rew1,rew2,instruction_task.started,instruction_task.stopped,key_resp_7.keys,key_resp_7.rt,key_resp_7.duration,wait_ready.started,wait_ready.stopped,key_resp_3.keys,key_resp_3.rt,key_resp_3.duration,cue.started,cue.stopped,ori_response.started,ori_response.stopped,key_resp_5.keys,key_resp_5.rt,key_resp_5.duration,outcome.started,diff1,diff2,outcome.stopped,disp_outcome_practice.started,disp_outcome_practice.stopped,key_resp_4.keys,key_resp_4.rt,key_resp_4.duration,trials.thisRepN,trials.thisTrialN,trials.thisN,trials.thisIndex,trials.ran,ori1,ori2,break_blk.started,break_blk.stopped,block.thisRepN,block.thisTrialN,block.thisN,block.thisIndex,block.ran,condition_file
0.0002,0.0002,5eb8e53084a7aa842e9698e4,65af560ecbfd19b26dc0c3f5,2024-01-23_03h02.33.829,bars,2023.2.3,Win32,60.24096386,657b66ea316d21385b68909f,,,,,,,,,,,,,,,,,,,,,,,,,,,,,,,,,,,,,,,,,,,,,,,,,,,,,,,,,,,,,,,,,,,,,,,,,,,,,,,,,,,,,,,,,,,,,,,,,,,,
,,5eb8e53084a7aa842e9698e4,65af560ecbfd19b26dc0c3f5,2024-01-23_03h02.33.829,bars,2023.2.3,Win32,60.24096386,657b66ea316d21385b68909f,0.0003,12.3841,y,12.3781,,,,,,,,,,,,,,,,,,,,,,,,,,,,,,,,,,,,,,,,,,,,,,,,,,,,,,,,,,,,,,,,,,,,,,,,,,,,,,,,,,,,,,,,,,,,,,,,
,,5eb8e53084a7aa842e9698e4,65af560ecbfd19b26dc0c3f5,2024-01-23_03h02.33.829,bars,2023.2.3,Win32,60.24096386,657b66ea316d21385b68909f,,,,,,12.3842,29.7672,space,17.3603,,,,,,,,,,,,,,,,,,,,,,,,,,,,,,,,,,,,,,,,,,,,,,,,,,,,,,,,,,,,,,,,,,,,,,,,,,,,,,,,,,,,,,,,,,,
,,5eb8e53084a7aa842e9698e4,65af560ecbfd19b26dc0c3f5,2024-01-23_03h02.33.829,bars,2023.2.3,Win32,60.24096386,657b66ea316d21385b68909f,,,,,,,,,,,29.7737,30.767,30.7671,31.267,31.267,31.5169,31.517,162,-18,35.0171,space,3.4779,,35.0172,43.6838,space,8.656,,0,0,0,0,1,150,bars/single000.png,bars/mask006.png,,,,,,,,,,,,,,,,,,,,,,,,,,,,,,,,,,,,,,,,,,,,,,,,,,,,,,,,,,,,,,,,
,,5eb8e53084a7aa842e9698e4,65af560ecbfd19b26dc0c3f5,2024-01-23_03h02.33.829,bars,2023.2.3,Win32,60.24096386,657b66ea316d21385b68909f,,,,,,,,,,,43.6881,44.6835,44.6835,45.1835,45.1835,45.4335,45.4335,0,0,46.2168,space,0.777,,46.2168,47.6668,space,1.4344,,0,1,1,6,1,175,bars/single006.png,bars/mask005.png,,,,,,,,,,,,,,,,,,,,,,,,,,,,,,,,,,,,,,,,,,,,,,,,,,,,,,,,,,,,,,,,
,,5eb8e53084a7aa842e9698e4,65af560ecbfd19b26dc0c3f5,2024-01-23_03h02.33.829,bars,2023.2.3,Win32,60.24096386,657b66ea316d21385b68909f,,,,,,,,,,,47.667,48.6668,48.6668,49.1668,49.1668,49.4168,49.4168,2,2,51.7835,space,2.3536,,51.7835,52.8334,space,1.0332,,0,2,2,8,1,160,bars/single008.png,bars/mask004.png,,,,,,,,,,,,,,,,,,,,,,,,,,,,,,,,,,,,,,,,,,,,,,,,,,,,,,,,,,,,,,,,
,,5eb8e53084a7aa842e9698e4,65af560ecbfd19b26dc0c3f5,2024-01-23_03h02.33.829,bars,2023.2.3,Win32,60.24096386,657b66ea316d21385b68909f,,,,,,,,,,,52.8337,53.8334,53.8335,54.3334,54.3334,54.5834,54.5834,28,28,58.4501,space,3.8571,,58.4501,59.5334,space,1.0665,,0,3,3,9,1,20,bars/single009.png,bars/mask006.png,,,,,,,,,,,,,,,,,,,,,,,,,,,,,,,,,,,,,,,,,,,,,,,,,,,,,,,,,,,,,,,,
,,5eb8e53084a7aa842e9698e4,65af560ecbfd19b26dc0c3f5,2024-01-23_03h02.33.829,bars,2023.2.3,Win32,60.24096386,657b66ea316d21385b68909f,,,,,,,,,,,59.5336,60.5334,60.5334,61.0333,61.0333,61.2833,61.2833,15,15,64.1667,space,2.8669,,64.1668,65.2167,space,1.0302,,0,4,4,1,1,20,bars/single001.png,bars/mask006.png,,,,,,,,,,,,,,,,,,,,,,,,,,,,,,,,,,,,,,,,,,,,,,,,,,,,,,,,,,,,,,,,
,,5eb8e53084a7aa842e9698e4,65af560ecbfd19b26dc0c3f5,2024-01-23_03h02.33.829,bars,2023.2.3,Win32,60.24096386,657b66ea316d21385b68909f,,,,,,,,,,,65.2169,66.2167,66.2167,66.7167,66.7167,66.9667,66.9667,63,63,71.45,space,4.4738,,71.4501,73,space,1.5363,,0,5,5,5,1,55,bars/single005.png,bars/mask008.png,,,,,,,,,,,,,,,,,,,,,,,,,,,,,,,,,,,,,,,,,,,,,,,,,,,,,,,,,,,,,,,,
,,5eb8e53084a7aa842e9698e4,65af560ecbfd19b26dc0c3f5,2024-01-23_03h02.33.829,bars,2023.2.3,Win32,60.24096386,657b66ea316d21385b68909f,,,,,,,,,,,73.0002,73.9999,73.9999,74.4999,74.5,74.7499,74.7499,96,96,76.7666,space,2.0015,,76.7667,77.7999,space,1.0237,,0,6,6,4,1,95,bars/single004.png,bars/mask004.png,,,,,,,,,,,,,,,,,,,,,,,,,,,,,,,,,,,,,,,,,,,,,,,,,,,,,,,,,,,,,,,,
,,5eb8e53084a7aa842e9698e4,65af560ecbfd19b26dc0c3f5,2024-01-23_03h02.33.829,bars,2023.2.3,Win32,60.24096386,657b66ea316d21385b68909f,,,,,,,,,,,77.8001,78.7999,78.7999,79.2999,79.3,79.5499,79.55,40,40,83.8166,space,4.2604,,83.8166,84.5832,space,0.7496,,0,7,7,7,1,45,bars/single007.png,bars/mask009.png,,,,,,,,,,,,,,,,,,,,,,,,,,,,,,,,,,,,,,,,,,,,,,,,,,,,,,,,,,,,,,,,
,,5eb8e53084a7aa842e9698e4,65af560ecbfd19b26dc0c3f5,2024-01-23_03h02.33.829,bars,2023.2.3,Win32,60.24096386,657b66ea316d21385b68909f,,,,,,,,,,,84.5835,85.5832,85.5832,86.0832,86.0832,86.3332,86.3332,19,19,87.2498,space,0.9081,,87.2498,87.8832,space,0.6204,,0,8,8,3,1,20,bars/single003.png,bars/mask005.png,,,,,,,,,,,,,,,,,,,,,,,,,,,,,,,,,,,,,,,,,,,,,,,,,,,,,,,,,,,,,,,,
,,5eb8e53084a7aa842e9698e4,65af560ecbfd19b26dc0c3f5,2024-01-23_03h02.33.829,bars,2023.2.3,Win32,60.24096386,657b66ea316d21385b68909f,,,,,,,,,,,87.8833,88.8831,88.8831,89.3832,89.3832,89.6331,89.6331,148,-32,94.0831,space,4.437,,94.0831,94.7165,space,0.6231,,0,9,9,2,1,145,bars/single002.png,bars/mask003.png,,,,,,,,,,,,,,,,,,,,,,,,,,,,,,,,,,,,,,,,,,,,,,,,,,,,,,,,,,,,,,,,
,,5eb8e53084a7aa842e9698e4,65af560ecbfd19b26dc0c3f5,2024-01-23_03h02.33.829,bars,2023.2.3,Win32,60.24096386,657b66ea316d21385b68909f,,,,,,,,,,,,,,,,,,,,,,,,,,,,,,,,,,,,,94.7168,111.4,space,16.6721,,,,,,,,,,,,,,,,,,,,,,,,,,,,,,,,,,,,,,,,,,,,,,,,,,,,,,,,,,,,
,,5eb8e53084a7aa842e9698e4,65af560ecbfd19b26dc0c3f5,2024-01-23_03h02.33.829,bars,2023.2.3,Win32,60.24096386,657b66ea316d21385b68909f,,,,,,,,,,,,,,,,,,,,,,,,,,,,,,,,,,,,,,,,,,111.405,116.0498,left,4.6322,,116.0499,9,1,117.0497,0,0,0,0,1,9,1,9,2,,,,,,,,,,,,,,,,,,,,,,,,,,,,,,,,,,,,,,,,,
,,5eb8e53084a7aa842e9698e4,65af560ecbfd19b26dc0c3f5,2024-01-23_03h02.33.829,bars,2023.2.3,Win32,60.24096386,657b66ea316d21385b68909f,,,,,,,,,,,,,,,,,,,,,,,,,,,,,,,,,,,,,,,,,,117.0499,119.1663,right,2.1108,,119.1663,1,2,120.1662,0,1,1,1,1,10,0,10,1,,,,,,,,,,,,,,,,,,,,,,,,,,,,,,,,,,,,,,,,,
,,5eb8e53084a7aa842e9698e4,65af560ecbfd19b26dc0c3f5,2024-01-23_03h02.33.829,bars,2023.2.3,Win32,60.24096386,657b66ea316d21385b68909f,,,,,,,,,,,,,,,,,,,,,,,,,,,,,,,,,,,,,,,,,,120.1703,120.6996,right,0.5138,,120.6996,2,2,121.6996,0,2,2,2,1,10,2,10,2,,,,,,,,,,,,,,,,,,,,,,,,,,,,,,,,,,,,,,,,,
,,5eb8e53084a7aa842e9698e4,65af560ecbfd19b26dc0c3f5,2024-01-23_03h02.33.829,bars,2023.2.3,Win32,60.24096386,657b66ea316d21385b68909f,,,,,,,,,,,,,,,,,,,,,,,,,,,,,,,,,,,,,,,,,,121.6997,122.1496,right,0.4411,,122.1497,3,2,123.1496,0,3,3,3,1,8,4,7,3,,,,,,,,,,,,,,,,,,,,,,,,,,,,,,,,,,,,,,,,,
,,5eb8e53084a7aa842e9698e4,65af560ecbfd19b26dc0c3f5,2024-01-23_03h02.33.829,bars,2023.2.3,Win32,60.24096386,657b66ea316d21385b68909f,,,,,,,,,,,,,,,,,,,,,,,,,,,,,,,,,,,,,,,,,,123.1497,123.683,left,0.522,,123.683,5,1,124.6828,0,4,4,4,1,6,2,5,1,,,,,,,,,,,,,,,,,,,,,,,,,,,,,,,,,,,,,,,,,
,,5eb8e53084a7aa842e9698e4,65af560ecbfd19b26dc0c3f5,2024-01-23_03h02.33.829,bars,2023.2.3,Win32,60.24096386,657b66ea316d21385b68909f,,,,,,,,,,,,,,,,,,,,,,,,,,,,,,,,,,,,,,,,,,124.683,125.0496,left,0.3576,,125.0496,4,1,126.0495,0,5,5,5,1,4,4,4,4,,,,,,,,,,,,,,,,,,,,,,,,,,,,,,,,,,,,,,,,,
,,5eb8e53084a7aa842e9698e4,65af560ecbfd19b26dc0c3f5,2024-01-23_03h02.33.829,bars,2023.2.3,Win32,60.24096386,657b66ea316d21385b68909f,,,,,,,,,,,,,,,,,,,,,,,,,,,,,,,,,,,,,,,,,,126.0497,126.3662,right,0.3009,,126.3662,2,2,127.3661,0,6,6,6,1,2,2,1,2,,,,,,,,,,,,,,,,,,,,,,,,,,,,,,,,,,,,,,,,,
,,5eb8e53084a7aa842e9698e4,65af560ecbfd19b26dc0c3f5,2024-01-23_03h02.33.829,bars,2023.2.3,Win32,60.24096386,657b66ea316d21385b68909f,,,,,,,,,,,,,,,,,,,,,,,,,,,,,,,,,,,,,,,,,,127.3664,127.5163,right,0.1342,,127.5163,1,2,128.5162,0,7,7,7,1,0,0,0,1,,,,,,,,,,,,,,,,,,,,,,,,,,,,,,,,,,,,,,,,,
,,5eb8e53084a7aa842e9698e4,65af560ecbfd19b26dc0c3f5,2024-01-23_03h02.33.829,bars,2023.2.3,Win32,60.24096386,657b66ea316d21385b68909f,,,,,,,,,,,,,,,,,,,,,,,,,,,,,,,,,,,,,,,,,,128.5164,128.6995,right,0.1743,,128.6996,0,2,129.6995,0,8,8,8,1,0,2,1,0,,,,,,,,,,,,,,,,,,,,,,,,,,,,,,,,,,,,,,,,,
,,5eb8e53084a7aa842e9698e4,65af560ecbfd19b26dc0c3f5,2024-01-23_03h02.33.829,bars,2023.2.3,Win32,60.24096386,657b66ea316d21385b68909f,,,,,,,,,,,,,,,,,,,,,,,,,,,,,,,,,,,,,,,,,,129.6997,129.9996,right,0.291,,129.9996,3,2,130.9995,0,9,9,9,1,2,4,2,3,,,,,,,,,,,,,,,,,,,,,,,,,,,,,,,,,,,,,,,,,
,,5eb8e53084a7aa842e9698e4,65af560ecbfd19b26dc0c3f5,2024-01-23_03h02.33.829,bars,2023.2.3,Win32,60.24096386,657b66ea316d21385b68909f,,,,,,,,,,,,,,,,,,,,,,,,,,,,,,,,,,,,,,,,,,130.9996,131.1329,left,0.1209,,131.1329,0,1,132.1328,0,10,10,10,1,0,2,0,3,,,,,,,,,,,,,,,,,,,,,,,,,,,,,,,,,,,,,,,,,
,,5eb8e53084a7aa842e9698e4,65af560ecbfd19b26dc0c3f5,2024-01-23_03h02.33.829,bars,2023.2.3,Win32,60.24096386,657b66ea316d21385b68909f,,,,,,,,,,,,,,,,,,,,,,,,,,,,,,,,,,,,,,,,,,132.133,132.2162,left,0.0678,,132.2162,0,1,133.2162,0,11,11,11,1,0,4,0,3,,,,,,,,,,,,,,,,,,,,,,,,,,,,,,,,,,,,,,,,,
,,5eb8e53084a7aa842e9698e4,65af560ecbfd19b26dc0c3f5,2024-01-23_03h02.33.829,bars,2023.2.3,Win32,60.24096386,657b66ea316d21385b68909f,,,,,,,,,,,,,,,,,,,,,,,,,,,,,,,,,,,,,,,,,,133.2163,133.2995,left,0.0742,,133.2995,1,1,134.2995,0,12,12,12,1,2,6,1,6,,,,,,,,,,,,,,,,,,,,,,,,,,,,,,,,,,,,,,,,,
,,5eb8e53084a7aa842e9698e4,65af560ecbfd19b26dc0c3f5,2024-01-23_03h02.33.829,bars,2023.2.3,Win32,60.24096386,657b66ea316d21385b68909f,,,,,,,,,,,,,,,,,,,,,,,,,,,,,,,,,,,,,,,,,,134.2996,134.4495,right,0.1334,,134.4495,3,2,135.4494,0,13,13,13,1,0,4,1,3,,,,,,,,,,,,,,,,,,,,,,,,,,,,,,,,,,,,,,,,,
,,5eb8e53084a7aa842e9698e4,65af560ecbfd19b26dc0c3f5,2024-01-23_03h02.33.829,bars,2023.2.3,Win32,60.24096386,657b66ea316d21385b68909f,,,,,,,,,,,,,,,,,,,,,,,,,,,,,,,,,,,,,,,,,,135.4496,135.5995,right,0.1335,,135.5995,7,2,136.5994,0,14,14,14,1,2,6,2,7,,,,,,,,,,,,,,,,,,,,,,,,,,,,,,,,,,,,,,,,,
,,5eb8e53084a7aa842e9698e4,65af560ecbfd19b26dc0c3f5,2024-01-23_03h02.33.829,bars,2023.2.3,Win32,60.24096386,657b66ea316d21385b68909f,,,,,,,,,,,,,,,,,,,,,,,,,,,,,,,,,,,,,,,,,,136.5996,136.7662,right,0.1509,,136.7662,9,2,137.7661,0,15,15,15,1,4,8,3,9,,,,,,,,,,,,,,,,,,,,,,,,,,,,,,,,,,,,,,,,,
,,5eb8e53084a7aa842e9698e4,65af560ecbfd19b26dc0c3f5,2024-01-23_03h02.33.829,bars,2023.2.3,Win32,60.24096386,657b66ea316d21385b68909f,,,,,,,,,,,,,,,,,,,,,,,,,,,,,,,,,,,,,,,,,,137.7663,137.9661,right,0.1844,,137.9661,7,2,138.9661,0,16,16,16,1,6,6,7,7,,,,,,,,,,,,,,,,,,,,,,,,,,,,,,,,,,,,,,,,,
,,5eb8e53084a7aa842e9698e4,65af560ecbfd19b26dc0c3f5,2024-01-23_03h02.33.829,bars,2023.2.3,Win32,60.24096386,657b66ea316d21385b68909f,,,,,,,,,,,,,,,,,,,,,,,,,,,,,,,,,,,,,,,,,,138.9662,139.0828,right,0.1044,,139.0829,5,2,140.0828,0,17,17,17,1,8,4,9,5,,,,,,,,,,,,,,,,,,,,,,,,,,,,,,,,,,,,,,,,,
,,5eb8e53084a7aa842e9698e4,65af560ecbfd19b26dc0c3f5,2024-01-23_03h02.33.829,bars,2023.2.3,Win32,60.24096386,657b66ea316d21385b68909f,,,,,,,,,,,,,,,,,,,,,,,,,,,,,,,,,,,,,,,,,,140.0829,140.2661,right,0.1677,,140.2661,1,2,141.2661,0,18,18,18,1,6,2,5,1,,,,,,,,,,,,,,,,,,,,,,,,,,,,,,,,,,,,,,,,,
,,5eb8e53084a7aa842e9698e4,65af560ecbfd19b26dc0c3f5,2024-01-23_03h02.33.829,bars,2023.2.3,Win32,60.24096386,657b66ea316d21385b68909f,,,,,,,,,,,,,,,,,,,,,,,,,,,,,,,,,,,,,,,,,,141.2662,141.3828,left,0.1044,,141.3828,7,1,142.3828,0,19,19,19,1,8,0,7,0,,,,,,,,,,,,,,,,,,,,,,,,,,,,,,,,,,,,,,,,,
,,5eb8e53084a7aa842e9698e4,65af560ecbfd19b26dc0c3f5,2024-01-23_03h02.33.829,bars,2023.2.3,Win32,60.24096386,657b66ea316d21385b68909f,,,,,,,,,,,,,,,,,,,,,,,,,,,,,,,,,,,,,,,,,,,,,,,,,,,,,,,,,,,,142.383,165.7495,space,23.3484,,,,,,,,,,,,,,,,,,,,,,,,,,,,,,,,,,,,,
,,5eb8e53084a7aa842e9698e4,65af560ecbfd19b26dc0c3f5,2024-01-23_03h02.33.829,bars,2023.2.3,Win32,60.24096386,657b66ea316d21385b68909f,,,,,,,,,,,167.0177,168.0159,,,168.516,168.7659,,83,83,,,,,,,,,,,,,,,,bars/021.png,bars/mask007.png,,,,,,,,,,,,0,2,,,,,,,6,1,6,0,,,,,,165.7546,167.0161,space,1.2458,,168.016,168.516,168.766,171.8495,space,3.0656,,171.8495,72,13,172.8493,172.8494,186.0659,space,13.2091,,0,0,0,0,1,155,70,,,,,,,,
,,5eb8e53084a7aa842e9698e4,65af560ecbfd19b26dc0c3f5,2024-01-23_03h02.33.829,bars,2023.2.3,Win32,60.24096386,657b66ea316d21385b68909f,,,,,,,,,,,186.0662,187.0657,,,187.5658,187.8158,,66,66,,,,,,,,,,,,,,,,bars/010.png,bars/mask006.png,,,,,,,,,,,,2,2,,,,,,,8,3,8,3,,,,,,,,,,,187.0658,187.5658,187.8158,190.2157,space,2.368,,190.2159,81,11,191.2157,191.2157,193.6658,space,2.418,,0,1,1,1,1,165,55,,,,,,,,
,,5eb8e53084a7aa842e9698e4,65af560ecbfd19b26dc0c3f5,2024-01-23_03h02.33.829,bars,2023.2.3,Win32,60.24096386,657b66ea316d21385b68909f,,,,,,,,,,,193.6659,194.6657,,,195.1658,195.4156,,160,-20,,,,,,,,,,,,,,,,bars/018.png,bars/mask005.png,,,,,,,,,,,,7,1,,,,,,,10,5,10,6,,,,,,,,,,,194.6657,195.1658,195.4156,198.9491,space,3.5089,,198.9491,10,70,199.949,199.949,201.1657,space,1.1944,,0,2,2,2,1,150,90,,,,,,,,
,,5eb8e53084a7aa842e9698e4,65af560ecbfd19b26dc0c3f5,2024-01-23_03h02.33.829,bars,2023.2.3,Win32,60.24096386,657b66ea316d21385b68909f,,,,,,,,,,,201.1659,202.1656,,,202.6656,202.9156,,5,5,,,,,,,,,,,,,,,,bars/006.png,bars/mask006.png,,,,,,,,,,,,0,1,,,,,,,10,3,9,2,,,,,,,,,,,202.1657,202.6656,202.9156,207.0489,space,4.1081,,207.049,30,85,208.049,208.049,209.299,space,1.2161,,0,3,3,3,1,35,100,,,,,,,,
,,5eb8e53084a7aa842e9698e4,65af560ecbfd19b26dc0c3f5,2024-01-23_03h02.33.829,bars,2023.2.3,Win32,60.24096386,657b66ea316d21385b68909f,,,,,,,,,,,209.2991,210.299,,,210.799,211.0517,,81,81,,,,,,,,,,,,,,,,bars/029.png,bars/mask002.png,,,,,,,,,,,,5,1,,,,,,,8,1,7,1,,,,,,,,,,,210.299,210.7989,211.0517,214.5823,space,3.5048,,214.5823,9,36,215.5836,215.5836,216.5989,space,0.9919,,0,4,4,4,1,90,45,,,,,,,,
,,5eb8e53084a7aa842e9698e4,65af560ecbfd19b26dc0c3f5,2024-01-23_03h02.33.829,bars,2023.2.3,Win32,60.24096386,657b66ea316d21385b68909f,,,,,,,,,,,216.5991,217.5989,,,218.0988,218.3489,,165,-15,,,,,,,,,,,,,,,,bars/024.png,bars/mask006.png,,,,,,,,,,,,0,2,,,,,,,6,0,6,0,,,,,,,,,,,217.5989,218.0988,218.3489,220.0156,space,1.6448,,220.0156,45,5,221.0155,221.0155,222.9656,space,1.9279,,0,5,5,5,1,120,170,,,,,,,,
,,5eb8e53084a7aa842e9698e4,65af560ecbfd19b26dc0c3f5,2024-01-23_03h02.33.829,bars,2023.2.3,Win32,60.24096386,657b66ea316d21385b68909f,,,,,,,,,,,222.9658,223.9655,,,224.4655,224.7154,,12,12,,,,,,,,,,,,,,,,bars/009.png,bars/mask007.png,,,,,,,,,,,,6,1,,,,,,,8,0,7,1,,,,,,,,,,,223.9655,224.4655,224.7155,227.9154,space,3.179,,227.9155,3,87,228.9154,228.9154,229.8321,space,0.8881,,0,6,6,6,1,15,105,,,,,,,,
,,5eb8e53084a7aa842e9698e4,65af560ecbfd19b26dc0c3f5,2024-01-23_03h02.33.829,bars,2023.2.3,Win32,60.24096386,657b66ea316d21385b68909f,,,,,,,,,,,229.8324,230.8321,,,231.3321,231.5821,,163,-17,,,,,,,,,,,,,,,,bars/021.png,bars/mask000.png,,,,,,,,,,,,7,1,,,,,,,10,2,10,3,,,,,,,,,,,230.8321,231.332,231.5821,234.3155,space,2.7132,,234.3155,8,87,235.3154,235.3154,236.1988,space,0.8493,,0,7,7,7,1,155,70,,,,,,,,
,,5eb8e53084a7aa842e9698e4,65af560ecbfd19b26dc0c3f5,2024-01-23_03h02.33.829,bars,2023.2.3,Win32,60.24096386,657b66ea316d21385b68909f,,,,,,,,,,,236.1989,237.1987,,,237.6988,237.9486,,162,-18,,,,,,,,,,,,,,,,bars/049.png,bars/mask000.png,,,,,,,,,,,,8,1,,,,,,,8,0,9,0,,,,,,,,,,,237.1987,237.6988,237.9487,242.4154,space,4.4451,,242.4154,2,47,243.4154,243.4154,244.5654,space,1.1182,,0,8,8,8,1,160,115,,,,,,,,
,,5eb8e53084a7aa842e9698e4,65af560ecbfd19b26dc0c3f5,2024-01-23_03h02.33.829,bars,2023.2.3,Win32,60.24096386,657b66ea316d21385b68909f,,,,,,,,,,,244.5655,245.5653,,,246.0653,246.3153,,175,175,,,,,,,,,,,,,,,,bars/020.png,bars/mask004.png,,,,,,,,,,,,0,2,,,,,,,6,0,8,0,,,,,,,,,,,245.5653,246.0652,246.3153,249.932,space,3.5884,,249.932,60,5,250.9319,250.932,253.4987,space,2.5415,,0,9,9,9,1,115,170,,,,,,,,
,,5eb8e53084a7aa842e9698e4,65af560ecbfd19b26dc0c3f5,2024-01-23_03h02.33.829,bars,2023.2.3,Win32,60.24096386,657b66ea316d21385b68909f,,,,,,,,,,,253.4988,254.4986,,,254.9986,255.2486,,37,37,,,,,,,,,,,,,,,,bars/035.png,bars/mask006.png,,,,,,,,,,,,0,2,,,,,,,4,2,3,0,,,,,,,,,,,254.4986,254.9986,255.2486,256.2652,space,0.9951,,256.2653,42,23,257.2653,257.2653,258.1152,space,0.8285,,0,10,10,10,1,175,60,,,,,,,,
,,5eb8e53084a7aa842e9698e4,65af560ecbfd19b26dc0c3f5,2024-01-23_03h02.33.829,bars,2023.2.3,Win32,60.24096386,657b66ea316d21385b68909f,,,,,,,,,,,258.1154,259.1152,,,259.6152,259.8652,,178,-2,,,,,,,,,,,,,,,,bars/014.png,bars/mask003.png,,,,,,,,,,,,1,2,,,,,,,2,0,2,1,,,,,,,,,,,259.1152,259.6152,259.8653,264.2652,space,4.3786,,264.2652,82,2,265.2652,265.2652,266.2319,space,0.9385,,0,11,11,11,1,80,0,,,,,,,,
,,5eb8e53084a7aa842e9698e4,65af560ecbfd19b26dc0c3f5,2024-01-23_03h02.33.829,bars,2023.2.3,Win32,60.24096386,657b66ea316d21385b68909f,,,,,,,,,,,266.2321,267.2319,,,267.7318,267.9818,,161,-19,,,,,,,,,,,,,,,,bars/015.png,bars/mask001.png,,,,,,,,,,,,2,2,,,,,,,4,2,6,2,,,,,,,,,,,267.2319,267.7318,267.9819,270.818,space,2.8169,,270.818,51,1,271.8151,271.8151,272.6652,space,0.8284,,0,12,12,12,1,110,160,,,,,,,,
,,5eb8e53084a7aa842e9698e4,65af560ecbfd19b26dc0c3f5,2024-01-23_03h02.33.829,bars,2023.2.3,Win32,60.24096386,657b66ea316d21385b68909f,,,,,,,,,,,272.6654,273.6651,,,274.1651,274.4152,,134,134,,,,,,,,,,,,,,,,bars/037.png,bars/mask002.png,,,,,,,,,,,,1,1,,,,,,,2,0,2,2,,,,,,,,,,,273.6651,274.1651,274.4152,276.2151,space,1.7782,,276.2151,16,29,277.2151,277.2151,277.9151,space,0.6783,,0,13,13,13,1,150,105,,,,,,,,
,,5eb8e53084a7aa842e9698e4,65af560ecbfd19b26dc0c3f5,2024-01-23_03h02.33.829,bars,2023.2.3,Win32,60.24096386,657b66ea316d21385b68909f,,,,,,,,,,,277.9152,278.915,,,279.415,279.6663,,145,145,,,,,,,,,,,,,,,,bars/030.png,bars/mask006.png,,,,,,,,,,,,5,1,,,,,,,4,0,6,0,,,,,,,,,,,278.9151,279.415,279.6663,281.2818,space,1.5899,,281.2818,5,80,282.283,282.283,286.065,space,3.7522,,0,14,14,14,1,140,65,,,,,,,,
,,5eb8e53084a7aa842e9698e4,65af560ecbfd19b26dc0c3f5,2024-01-23_03h02.33.829,bars,2023.2.3,Win32,60.24096386,657b66ea316d21385b68909f,,,,,,,,,,,286.0691,287.065,,,287.565,287.815,,173,173,,,,,,,,,,,,,,,,bars/048.png,bars/mask009.png,,,,,,,,,,,,3,2,,,,,,,6,2,6,3,,,,,,,,,,,287.065,287.565,287.815,289.1817,space,1.3388,,289.1817,57,2,290.1816,290.1816,291.365,space,1.162,,0,15,15,15,1,50,175,,,,,,,,
,,5eb8e53084a7aa842e9698e4,65af560ecbfd19b26dc0c3f5,2024-01-23_03h02.33.829,bars,2023.2.3,Win32,60.24096386,657b66ea316d21385b68909f,,,,,,,,,,,291.3652,292.365,,,292.865,293.1149,,164,-16,,,,,,,,,,,,,,,,bars/007.png,bars/mask006.png,,,,,,,,,,,,6,1,,,,,,,8,4,9,2,,,,,,,,,,,292.365,292.865,293.115,296.4816,space,3.3388,,296.4816,11,71,297.4816,297.4816,298.0317,space,0.5219,,0,16,16,16,1,175,55,,,,,,,,
,,5eb8e53084a7aa842e9698e4,65af560ecbfd19b26dc0c3f5,2024-01-23_03h02.33.829,bars,2023.2.3,Win32,60.24096386,657b66ea316d21385b68909f,,,,,,,,,,,298.0318,299.0316,,,299.5316,299.7815,,17,197,,,,,,,,,,,,,,,,bars/009.png,bars/mask004.png,,,,,,,,,,,,5,1,,,,,,,6,2,5,1,,,,,,,,,,,299.0316,299.5316,299.7815,302.3149,space,2.5031,,302.3149,2,88,303.3149,303.3149,303.9983,space,0.6587,,0,17,17,17,1,15,105,,,,,,,,
,,5eb8e53084a7aa842e9698e4,65af560ecbfd19b26dc0c3f5,2024-01-23_03h02.33.829,bars,2023.2.3,Win32,60.24096386,657b66ea316d21385b68909f,,,,,,,,,,,303.9985,304.9982,,,305.4982,305.7482,,175,175,,,,,,,,,,,,,,,,bars/007.png,bars/mask004.png,,,,,,,,,,,,4,1,,,,,,,4,0,4,0,,,,,,,,,,,304.9982,305.4982,305.7482,309.0982,space,3.3254,,309.0983,0,60,310.0982,310.0982,311.5982,space,1.466,,0,18,18,18,1,175,55,,,,,,,,
,,5eb8e53084a7aa842e9698e4,65af560ecbfd19b26dc0c3f5,2024-01-23_03h02.33.829,bars,2023.2.3,Win32,60.24096386,657b66ea316d21385b68909f,,,,,,,,,,,311.5983,312.5981,,,313.0981,313.3502,,16,196,,,,,,,,,,,,,,,,bars/026.png,bars/mask005.png,,,,,,,,,,,,2,1,,,,,,,6,2,6,2,,,,,,,,,,,312.5981,313.0981,313.3503,315.4315,space,2.0555,,315.4316,19,69,316.4315,316.4315,316.9315,space,0.472,,0,19,19,19,1,35,85,,,,,,,,
,,5eb8e53084a7aa842e9698e4,65af560ecbfd19b26dc0c3f5,2024-01-23_03h02.33.829,bars,2023.2.3,Win32,60.24096386,657b66ea316d21385b68909f,,,,,,,,,,,316.9317,317.9314,,,318.4314,318.6814,,166,166,,,,,,,,,,,,,,,,bars/018.png,bars/mask007.png,,,,,,,,,,,,3,1,,,,,,,8,4,7,6,,,,,,,,,,,317.9314,318.4314,318.6814,320.9648,space,2.2619,,320.9648,16,76,321.9647,321.9647,322.5647,space,0.5788,,0,20,20,20,1,150,90,,,,,,,,
,,5eb8e53084a7aa842e9698e4,65af560ecbfd19b26dc0c3f5,2024-01-23_03h02.33.829,bars,2023.2.3,Win32,60.24096386,657b66ea316d21385b68909f,,,,,,,,,,,322.5649,323.5647,,,324.066,324.3147,,163,-17,,,,,,,,,,,,,,,,bars/018.png,bars/mask003.png,,,,,,,,,,,,5,1,,,,,,,10,6,9,8,,,,,,,,,,,323.5647,324.066,324.3147,328.5147,space,4.169,,328.5147,13,73,329.5147,329.5147,329.9981,space,0.4496,,0,21,21,21,1,150,90,,,,,,,,
,,5eb8e53084a7aa842e9698e4,65af560ecbfd19b26dc0c3f5,2024-01-23_03h02.33.829,bars,2023.2.3,Win32,60.24096386,657b66ea316d21385b68909f,,,,,,,,,,,329.9982,330.9981,,,331.498,331.748,,96,96,,,,,,,,,,,,,,,,bars/041.png,bars/mask006.png,,,,,,,,,,,,3,2,,,,,,,8,4,8,4,,,,,,,,,,,330.9981,331.498,331.748,333.5647,space,1.7858,,333.5647,76,11,334.5647,334.5647,335.2147,space,0.6287,,0,22,22,22,1,20,85,,,,,,,,
,,5eb8e53084a7aa842e9698e4,65af560ecbfd19b26dc0c3f5,2024-01-23_03h02.33.829,bars,2023.2.3,Win32,60.24096386,657b66ea316d21385b68909f,,,,,,,,,,,335.2149,336.2146,,,336.7147,336.9646,,0,180,,,,,,,,,,,,,,,,bars/016.png,bars/mask006.png,,,,,,,,,,,,1,2,,,,,,,10,2,10,1,,,,,,,,,,,336.2147,336.7147,336.9647,338.6813,space,1.6892,,338.6813,40,15,339.6813,339.6813,340.7813,space,1.0722,,0,23,23,23,1,40,165,,,,,,,,
,,5eb8e53084a7aa842e9698e4,65af560ecbfd19b26dc0c3f5,2024-01-23_03h02.33.829,bars,2023.2.3,Win32,60.24096386,657b66ea316d21385b68909f,,,,,,,,,,,340.7815,341.7813,,,342.2813,342.5312,,163,163,,,,,,,,,,,,,,,,bars/011.png,bars/mask002.png,,,,,,,,,,,,9,1,,,,,,,10,4,10,4,,,,,,,,,,,341.7813,342.2812,342.5312,344.398,space,1.8419,,344.398,3,78,345.3979,345.3979,346.0979,space,0.6754,,0,24,24,24,1,160,85,,,,,,,,
,,5eb8e53084a7aa842e9698e4,65af560ecbfd19b26dc0c3f5,2024-01-23_03h02.33.829,bars,2023.2.3,Win32,60.24096386,657b66ea316d21385b68909f,,,,,,,,,,,346.0981,347.0979,,,347.5979,347.8479,,169,-11,,,,,,,,,,,,,,,,bars/007.png,bars/mask009.png,,,,,,,,,,,,7,1,,,,,,,10,6,9,5,,,,,,,,,,,347.0979,347.5979,347.8479,351.066,space,3.1987,,351.066,6,66,352.0645,352.0645,352.6312,space,0.539,,0,25,25,25,1,175,55,,,,,,,,
,,5eb8e53084a7aa842e9698e4,65af560ecbfd19b26dc0c3f5,2024-01-23_03h02.33.829,bars,2023.2.3,Win32,60.24096386,657b66ea316d21385b68909f,,,,,,,,,,,352.6313,353.6312,,,354.1312,354.3812,,108,108,,,,,,,,,,,,,,,,bars/002.png,bars/mask008.png,,,,,,,,,,,,3,1,,,,,,,10,8,10,9,,,,,,,,,,,353.6312,354.1312,354.3812,357.4673,space,3.0668,,357.4673,22,23,358.4645,358.4645,360.8145,space,2.3296,,0,26,26,26,1,130,85,,,,,,,,
,,5eb8e53084a7aa842e9698e4,65af560ecbfd19b26dc0c3f5,2024-01-23_03h02.33.829,bars,2023.2.3,Win32,60.24096386,657b66ea316d21385b68909f,,,,,,,,,,,360.8147,361.8145,,,362.3145,362.5644,,2,182,,,,,,,,,,,,,,,,bars/008.png,bars/mask002.png,,,,,,,,,,,,9,2,,,,,,,10,10,10,10,,,,,,,,,,,361.8145,362.3145,362.5644,365.1144,space,2.5292,,365.1144,72,2,366.1144,366.1144,366.7811,space,0.639,,0,27,27,27,1,110,0,,,,,,,,
,,5eb8e53084a7aa842e9698e4,65af560ecbfd19b26dc0c3f5,2024-01-23_03h02.33.829,bars,2023.2.3,Win32,60.24096386,657b66ea316d21385b68909f,,,,,,,,,,,366.7813,367.7811,,,368.2811,368.5311,,170,170,,,,,,,,,,,,,,,,bars/024.png,bars/mask000.png,,,,,,,,,,,,9,2,,,,,,,8,10,8,9,,,,,,,,,,,367.7811,368.2811,368.5311,370.9478,space,2.3925,,370.9478,50,0,371.9477,371.9477,374.2811,space,2.3059,,0,28,28,28,1,120,170,,,,,,,,
,,5eb8e53084a7aa842e9698e4,65af560ecbfd19b26dc0c3f5,2024-01-23_03h02.33.829,bars,2023.2.3,Win32,60.24096386,657b66ea316d21385b68909f,,,,,,,,,,,374.2852,375.281,,,375.781,376.0309,,0,180,,,,,,,,,,,,,,,,bars/033.png,bars/mask009.png,,,,,,,,,,,,1,2,,,,,,,6,8,5,8,,,,,,,,,,,375.281,375.781,376.0309,379.7839,space,3.7346,,379.7839,25,25,380.7809,380.7809,382.631,space,1.8225,,0,29,29,29,1,25,155,,,,,,,,
,,5eb8e53084a7aa842e9698e4,65af560ecbfd19b26dc0c3f5,2024-01-23_03h02.33.829,bars,2023.2.3,Win32,60.24096386,657b66ea316d21385b68909f,,,,,,,,,,,382.6311,383.631,,,384.131,384.3809,,132,132,,,,,,,,,,,,,,,,bars/004.png,bars/mask004.png,,,,,,,,,,,,8,2,,,,,,,4,10,5,10,,,,,,,,,,,383.631,384.1309,384.381,387.0476,space,2.6329,,387.0476,73,7,388.0476,388.0476,388.5976,space,0.5164,,0,30,30,30,1,25,125,,,,,,,,
,,5eb8e53084a7aa842e9698e4,65af560ecbfd19b26dc0c3f5,2024-01-23_03h02.33.829,bars,2023.2.3,Win32,60.24096386,657b66ea316d21385b68909f,,,,,,,,,,,388.5978,389.5975,,,390.0975,390.3476,,20,200,,,,,,,,,,,,,,,,bars/012.png,bars/mask004.png,,,,,,,,,,,,8,2,,,,,,,2,8,1,9,,,,,,,,,,,389.5976,390.0975,390.3476,393.6642,space,3.2861,,393.6642,70,5,394.6642,394.6642,395.1642,space,0.4693,,0,31,31,31,1,90,15,,,,,,,,
,,5eb8e53084a7aa842e9698e4,65af560ecbfd19b26dc0c3f5,2024-01-23_03h02.33.829,bars,2023.2.3,Win32,60.24096386,657b66ea316d21385b68909f,,,,,,,,,,,395.1644,396.1655,,,396.6642,396.9142,,171,-9,,,,,,,,,,,,,,,,bars/033.png,bars/mask008.png,,,,,,,,,,,,3,2,,,,,,,0,10,0,7,,,,,,,,,,,396.1655,396.6642,396.9142,400.9337,space,4.0002,,400.9337,34,16,401.9308,401.9308,402.4475,space,0.4827,,0,32,32,32,1,25,155,,,,,,,,
,,5eb8e53084a7aa842e9698e4,65af560ecbfd19b26dc0c3f5,2024-01-23_03h02.33.829,bars,2023.2.3,Win32,60.24096386,657b66ea316d21385b68909f,,,,,,,,,,,402.4476,403.4474,,,403.9475,404.1975,,17,197,,,,,,,,,,,,,,,,bars/026.png,bars/mask003.png,,,,,,,,,,,,1,1,,,,,,,2,8,2,7,,,,,,,,,,,403.4474,403.9475,404.1975,405.5808,space,1.3561,,405.5808,18,68,406.5808,406.5808,407.1641,space,0.5626,,0,33,33,33,1,35,85,,,,,,,,
,,5eb8e53084a7aa842e9698e4,65af560ecbfd19b26dc0c3f5,2024-01-23_03h02.33.829,bars,2023.2.3,Win32,60.24096386,657b66ea316d21385b68909f,,,,,,,,,,,407.1642,408.1641,,,408.6641,408.9141,,5,5,,,,,,,,,,,,,,,,bars/009.png,bars/mask007.png,,,,,,,,,,,,1,1,,,,,,,0,10,1,10,,,,,,,,,,,408.1641,408.6641,408.9141,412.3808,space,3.4396,,412.3808,10,80,413.3808,413.3808,413.9475,space,0.5427,,0,34,34,34,1,15,105,,,,,,,,
,,5eb8e53084a7aa842e9698e4,65af560ecbfd19b26dc0c3f5,2024-01-23_03h02.33.829,bars,2023.2.3,Win32,60.24096386,657b66ea316d21385b68909f,,,,,,,,,,,413.9476,414.9474,,,415.4474,415.6973,,149,-31,,,,,,,,,,,,,,,,bars/005.png,bars/mask006.png,,,,,,,,,,,,7,2,,,,,,,2,10,1,10,,,,,,,,,,,414.9474,415.4474,415.6974,418.714,space,2.9861,,418.714,41,9,419.714,419.714,420.2474,space,0.5106,,0,35,35,35,1,10,140,,,,,,,,
,,5eb8e53084a7aa842e9698e4,65af560ecbfd19b26dc0c3f5,2024-01-23_03h02.33.829,bars,2023.2.3,Win32,60.24096386,657b66ea316d21385b68909f,,,,,,,,,,,420.2476,421.2474,,,421.7505,421.9973,,83,83,,,,,,,,,,,,,,,,bars/013.png,bars/mask005.png,,,,,,,,,,,,3,1,,,,,,,4,10,4,9,,,,,,,,,,,421.2474,421.7505,421.9973,423.9306,space,1.9065,,423.9307,8,73,424.9306,424.9306,425.514,space,0.5549,,0,36,36,36,1,75,10,,,,,,,,
,,5eb8e53084a7aa842e9698e4,65af560ecbfd19b26dc0c3f5,2024-01-23_03h02.33.829,bars,2023.2.3,Win32,60.24096386,657b66ea316d21385b68909f,,,,,,,,,,,425.5141,426.514,,,427.014,427.264,,110,-70,,,,,,,,,,,,,,,,bars/028.png,bars/mask007.png,,,,,,,,,,,,6,2,,,,,,,6,10,6,9,,,,,,,,,,,426.514,427.014,427.264,431.7306,space,4.4394,,431.7307,65,10,432.7306,432.7306,433.3307,space,0.5728,,0,37,37,37,1,45,120,,,,,,,,
,,5eb8e53084a7aa842e9698e4,65af560ecbfd19b26dc0c3f5,2024-01-23_03h02.33.829,bars,2023.2.3,Win32,60.24096386,657b66ea316d21385b68909f,,,,,,,,,,,433.3308,434.3306,,,434.8306,435.0806,,165,-15,,,,,,,,,,,,,,,,bars/024.png,bars/mask004.png,,,,,,,,,,,,7,2,,,,,,,8,10,9,8,,,,,,,,,,,434.3306,434.8306,435.0806,437.6639,space,2.553,,437.6639,45,5,438.6639,438.664,439.2306,space,0.5396,,0,38,38,38,1,120,170,,,,,,,,
,,5eb8e53084a7aa842e9698e4,65af560ecbfd19b26dc0c3f5,2024-01-23_03h02.33.829,bars,2023.2.3,Win32,60.24096386,657b66ea316d21385b68909f,,,,,,,,,,,439.2307,440.2305,,,440.7305,440.9805,,93,93,,,,,,,,,,,,,,,,bars/001.png,bars/mask006.png,,,,,,,,,,,,7,2,,,,,,,6,8,7,9,,,,,,,,,,,440.2305,440.7305,440.9805,443.1306,space,2.1232,,443.1306,37,8,444.1305,444.1305,444.4972,space,0.343,,0,39,39,39,1,130,85,,,,,,,,
,,5eb8e53084a7aa842e9698e4,65af560ecbfd19b26dc0c3f5,2024-01-23_03h02.33.829,bars,2023.2.3,Win32,60.24096386,657b66ea316d21385b68909f,,,,,,,,,,,444.4974,445.4972,,,445.9972,446.2472,,87,87,,,,,,,,,,,,,,,,bars/039.png,bars/mask009.png,,,,,,,,,,,,2,2,,,,,,,4,6,4,6,,,,,,,,,,,445.4972,445.9972,446.2472,449.2986,space,3.032,,449.2986,88,18,450.2971,450.2971,450.8138,space,0.4963,,0,40,40,40,1,175,105,,,,,,,,
,,5eb8e53084a7aa842e9698e4,65af560ecbfd19b26dc0c3f5,2024-01-23_03h02.33.829,bars,2023.2.3,Win32,60.24096386,657b66ea316d21385b68909f,,,,,,,,,,,450.814,451.8137,,,452.3138,452.5638,,24,204,,,,,,,,,,,,,,,,bars/036.png,bars/mask008.png,,,,,,,,,,,,8,2,,,,,,,6,8,6,9,,,,,,,,,,,451.8137,452.3138,452.5638,457.4471,space,4.8609,,457.4471,59,4,458.4471,458.4471,459.0971,space,0.6263,,0,41,41,41,1,145,20,,,,,,,,
,,5eb8e53084a7aa842e9698e4,65af560ecbfd19b26dc0c3f5,2024-01-23_03h02.33.829,bars,2023.2.3,Win32,60.24096386,657b66ea316d21385b68909f,,,,,,,,,,,459.0972,460.0971,,,460.5971,460.847,,165,-15,,,,,,,,,,,,,,,,bars/020.png,bars/mask003.png,,,,,,,,,,,,8,2,,,,,,,4,10,3,10,,,,,,,,,,,460.0971,460.597,460.847,464.547,space,3.6666,,464.547,50,5,465.547,465.547,466.0804,space,0.5066,,0,42,42,42,1,115,170,,,,,,,,
,,5eb8e53084a7aa842e9698e4,65af560ecbfd19b26dc0c3f5,2024-01-23_03h02.33.829,bars,2023.2.3,Win32,60.24096386,657b66ea316d21385b68909f,,,,,,,,,,,466.0805,467.0804,,,467.5804,467.8303,,173,173,,,,,,,,,,,,,,,,bars/007.png,bars/mask003.png,,,,,,,,,,,,2,1,,,,,,,2,10,2,10,,,,,,,,,,,467.0804,467.5804,467.8303,469.9136,space,2.0632,,469.9136,2,62,470.9137,470.9137,471.947,space,0.9998,,0,43,43,43,1,175,55,,,,,,,,
,,5eb8e53084a7aa842e9698e4,65af560ecbfd19b26dc0c3f5,2024-01-23_03h02.33.829,bars,2023.2.3,Win32,60.24096386,657b66ea316d21385b68909f,,,,,,,,,,,471.9472,472.9498,,,473.4493,473.6969,,157,-23,,,,,,,,,,,,,,,,bars/044.png,bars/mask002.png,,,,,,,,,,,,9,2,,,,,,,0,10,1,10,,,,,,,,,,,472.9498,473.4493,473.697,477.0969,space,3.3678,,477.0969,82,2,478.0997,478.0997,478.5136,space,0.3965,,0,44,44,44,1,75,155,,,,,,,,
,,5eb8e53084a7aa842e9698e4,65af560ecbfd19b26dc0c3f5,2024-01-23_03h02.33.829,bars,2023.2.3,Win32,60.24096386,657b66ea316d21385b68909f,,,,,,,,,,,478.5137,479.5136,,,480.0136,480.2635,,158,158,,,,,,,,,,,,,,,,bars/000.png,bars/mask009.png,,,,,,,,,,,,5,2,,,,,,,2,10,1,9,,,,,,,,,,,479.5136,480.0136,480.2635,482.1493,space,1.8663,,482.1493,62,13,483.1469,483.147,484.1969,space,1.0187,,0,45,45,45,1,40,145,,,,,,,,
,,5eb8e53084a7aa842e9698e4,65af560ecbfd19b26dc0c3f5,2024-01-23_03h02.33.829,bars,2023.2.3,Win32,60.24096386,657b66ea316d21385b68909f,,,,,,,,,,,484.1971,485.1968,,,485.6968,485.9468,,161,-19,,,,,,,,,,,,,,,,bars/024.png,bars/mask009.png,,,,,,,,,,,,7,2,,,,,,,0,10,0,10,,,,,,,,,,,485.1969,485.6968,485.9468,488.2497,space,2.2834,,488.2497,41,9,489.2468,489.2468,489.8635,space,0.5867,,0,46,46,46,1,120,170,,,,,,,,
,,5eb8e53084a7aa842e9698e4,65af560ecbfd19b26dc0c3f5,2024-01-23_03h02.33.829,bars,2023.2.3,Win32,60.24096386,657b66ea316d21385b68909f,,,,,,,,,,,489.8637,490.8635,,,491.3634,491.6134,,170,170,,,,,,,,,,,,,,,,bars/016.png,bars/mask002.png,,,,,,,,,,,,6,2,,,,,,,2,8,3,7,,,,,,,,,,,490.8635,491.3634,491.6134,495.1635,space,3.5203,,495.1635,50,5,496.1635,496.1635,496.6968,space,0.5001,,0,47,47,47,1,40,165,,,,,,,,
,,5eb8e53084a7aa842e9698e4,65af560ecbfd19b26dc0c3f5,2024-01-23_03h02.33.829,bars,2023.2.3,Win32,60.24096386,657b66ea316d21385b68909f,,,,,,,,,,,496.6969,497.6968,,,498.1967,498.4467,,25,205,,,,,,,,,,,,,,,,bars/032.png,bars/mask007.png,,,,,,,,,,,,7,2,,,,,,,4,10,5,8,,,,,,,,,,,497.6968,498.1967,498.4467,502.0634,space,3.5969,,502.0634,80,5,503.0634,503.0634,503.5468,space,0.4601,,0,48,48,48,1,125,20,,,,,,,,
,,5eb8e53084a7aa842e9698e4,65af560ecbfd19b26dc0c3f5,2024-01-23_03h02.33.829,bars,2023.2.3,Win32,60.24096386,657b66ea316d21385b68909f,,,,,,,,,,,503.5469,504.5467,,,505.0468,505.2967,,176,176,,,,,,,,,,,,,,,,bars/024.png,bars/mask007.png,,,,,,,,,,,,8,2,,,,,,,6,8,6,10,,,,,,,,,,,504.5467,505.0467,505.2967,506.4467,space,1.1169,,506.4467,56,6,507.4467,507.4467,508.0134,space,0.5368,,0,49,49,49,1,120,170,,,,,,,,
,,5eb8e53084a7aa842e9698e4,65af560ecbfd19b26dc0c3f5,2024-01-23_03h02.33.829,bars,2023.2.3,Win32,60.24096386,657b66ea316d21385b68909f,,,,,,,,,,,,,,,,,,,,,,,,,,,,,,,,,,,,,,,,,,,,,,,,,,,,,,,,,,,,,,,,,,,,,,,,,,,,,,,,,,,,,,,,,,,,,508.0138,568.0131,0,0,0,1,1,sequence_tables/blk045.csv
,,5eb8e53084a7aa842e9698e4,65af560ecbfd19b26dc0c3f5,2024-01-23_03h02.33.829,bars,2023.2.3,Win32,60.24096386,657b66ea316d21385b68909f,,,,,,,,,,,572.7855,573.7795,,,574.2796,574.5295,,102,102,,,,,,,,,,,,,,,,bars/041.png,bars/mask001.png,,,,,,,,,,,,0,2,,,,,,,4,2,4,1,,,,,,568.0175,572.7795,space,4.7421,,573.7795,574.2796,574.5296,576.1462,space,1.6119,,576.1462,82,17,577.1462,577.1462,577.1466,,,,0,0,0,0,1,20,85,,,,,,,,
,,5eb8e53084a7aa842e9698e4,65af560ecbfd19b26dc0c3f5,2024-01-23_03h02.33.829,bars,2023.2.3,Win32,60.24096386,657b66ea316d21385b68909f,,,,,,,,,,,577.1467,578.1462,,,578.6462,578.8961,,64,64,,,,,,,,,,,,,,,,bars/029.png,bars/mask005.png,,,,,,,,,,,,1,2,,,,,,,2,4,3,3,,,,,,,,,,,578.1462,578.6462,578.8961,581.8328,space,2.9173,,581.8328,26,19,582.8294,582.8294,582.8336,,,,0,1,1,1,1,90,45,,,,,,,,
,,5eb8e53084a7aa842e9698e4,65af560ecbfd19b26dc0c3f5,2024-01-23_03h02.33.829,bars,2023.2.3,Win32,60.24096386,657b66ea316d21385b68909f,,,,,,,,,,,582.8337,583.8297,,,584.3294,584.5794,,30,30,,,,,,,,,,,,,,,,bars/031.png,bars/mask005.png,,,,,,,,,,,,5,2,,,,,,,0,6,0,6,,,,,,,,,,,583.8297,584.3294,584.5794,587.1825,space,2.5836,,587.1825,90,5,588.1794,588.1794,588.1836,,,,0,2,2,2,1,120,35,,,,,,,,
,,5eb8e53084a7aa842e9698e4,65af560ecbfd19b26dc0c3f5,2024-01-23_03h02.33.829,bars,2023.2.3,Win32,60.24096386,657b66ea316d21385b68909f,,,,,,,,,,,588.1837,589.1795,,,589.6794,589.9294,,48,228,,,,,,,,,,,,,,,,bars/035.png,bars/mask006.png,,,,,,,,,,,,3,2,,,,,,,2,4,0,5,,,,,,,,,,,589.1795,589.6794,589.9294,594.5461,space,4.5944,,594.5461,53,12,595.546,595.546,595.5503,,,,0,3,3,3,1,175,60,,,,,,,,
,,5eb8e53084a7aa842e9698e4,65af560ecbfd19b26dc0c3f5,2024-01-23_03h02.33.829,bars,2023.2.3,Win32,60.24096386,657b66ea316d21385b68909f,,,,,,,,,,,595.5504,596.546,,,597.0461,597.296,,154,154,,,,,,,,,,,,,,,,bars/036.png,bars/mask005.png,,,,,,,,,,,,0,1,,,,,,,0,2,0,3,,,,,,,,,,,596.546,597.0461,597.296,600.6656,space,3.3502,,600.6656,9,46,601.6627,601.6627,601.6674,,,,0,4,4,4,1,145,20,,,,,,,,
,,5eb8e53084a7aa842e9698e4,65af560ecbfd19b26dc0c3f5,2024-01-23_03h02.33.829,bars,2023.2.3,Win32,60.24096386,657b66ea316d21385b68909f,,,,,,,,,,,601.6674,602.6627,,,603.1627,603.4126,,148,-32,,,,,,,,,,,,,,,,bars/005.png,bars/mask008.png,,,,,,,,,,,,4,2,,,,,,,0,4,0,5,,,,,,,,,,,602.6627,603.1627,603.4126,606.596,space,3.1609,,606.596,42,8,607.5959,607.5959,607.6006,,,,0,5,5,5,1,10,140,,,,,,,,
,,5eb8e53084a7aa842e9698e4,65af560ecbfd19b26dc0c3f5,2024-01-23_03h02.33.829,bars,2023.2.3,Win32,60.24096386,657b66ea316d21385b68909f,,,,,,,,,,,607.6007,608.596,,,609.0959,609.3459,,98,98,,,,,,,,,,,,,,,,bars/039.png,bars/mask008.png,,,,,,,,,,,,1,2,,,,,,,0,2,0,1,,,,,,,,,,,608.596,609.0959,609.3459,610.9792,space,1.608,,610.9793,77,7,611.9792,611.9793,611.9796,,,,0,6,6,6,1,175,105,,,,,,,,
,,5eb8e53084a7aa842e9698e4,65af560ecbfd19b26dc0c3f5,2024-01-23_03h02.33.829,bars,2023.2.3,Win32,60.24096386,657b66ea316d21385b68909f,,,,,,,,,,,611.9797,612.9792,,,613.4793,613.7292,,108,108,,,,,,,,,,,,,,,,bars/037.png,bars/mask009.png,,,,,,,,,,,,1,2,,,,,,,0,0,1,1,,,,,,,,,,,612.9792,613.4792,613.7292,616.9959,space,3.2344,,616.996,42,3,617.9958,617.9958,618,,,,0,7,7,7,1,150,105,,,,,,,,
,,5eb8e53084a7aa842e9698e4,65af560ecbfd19b26dc0c3f5,2024-01-23_03h02.33.829,bars,2023.2.3,Win32,60.24096386,657b66ea316d21385b68909f,,,,,,,,,,,618.0001,618.9958,,,619.4958,619.7458,,114,114,,,,,,,,,,,,,,,,bars/049.png,bars/mask001.png,,,,,,,,,,,,2,2,,,,,,,0,2,0,2,,,,,,,,,,,618.9958,619.4958,619.7458,621.6458,space,1.8788,,621.6458,46,1,622.6459,622.6459,622.6503,,,,0,8,8,8,1,160,115,,,,,,,,
,,5eb8e53084a7aa842e9698e4,65af560ecbfd19b26dc0c3f5,2024-01-23_03h02.33.829,bars,2023.2.3,Win32,60.24096386,657b66ea316d21385b68909f,,,,,,,,,,,622.6504,623.6458,,,624.1461,624.3958,,80,-100,,,,,,,,,,,,,,,,bars/011.png,bars/mask003.png,,,,,,,,,,,,1,2,,,,,,,2,0,1,1,,,,,,,,,,,623.6459,624.1461,624.3958,629.0291,space,4.5997,,629.0291,80,5,630.0291,630.0291,630.0333,,,,0,9,9,9,1,160,85,,,,,,,,
,,5eb8e53084a7aa842e9698e4,65af560ecbfd19b26dc0c3f5,2024-01-23_03h02.33.829,bars,2023.2.3,Win32,60.24096386,657b66ea316d21385b68909f,,,,,,,,,,,630.0334,631.0291,,,631.5291,631.7791,,172,172,,,,,,,,,,,,,,,,bars/040.png,bars/mask003.png,,,,,,,,,,,,0,2,,,,,,,0,0,0,0,,,,,,,,,,,631.0292,631.5291,631.7791,635.6957,space,3.8946,,635.6958,32,13,636.6958,636.6958,636.7,,,,0,10,10,10,1,140,5,,,,,,,,
,,5eb8e53084a7aa842e9698e4,65af560ecbfd19b26dc0c3f5,2024-01-23_03h02.33.829,bars,2023.2.3,Win32,60.24096386,657b66ea316d21385b68909f,,,,,,,,,,,636.7002,637.6957,,,638.1957,638.4457,,172,-8,,,,,,,,,,,,,,,,bars/033.png,bars/mask004.png,,,,,,,,,,,,1,2,,,,,,,2,2,3,3,,,,,,,,,,,637.6957,638.1957,638.4457,640.9623,space,2.4879,,640.9624,33,17,641.9623,641.9624,641.9627,,,,0,11,11,11,1,25,155,,,,,,,,
,,5eb8e53084a7aa842e9698e4,65af560ecbfd19b26dc0c3f5,2024-01-23_03h02.33.829,bars,2023.2.3,Win32,60.24096386,657b66ea316d21385b68909f,,,,,,,,,,,641.9629,642.9623,,,643.4624,643.7123,,97,97,,,,,,,,,,,,,,,,bars/019.png,bars/mask001.png,,,,,,,,,,,,0,2,,,,,,,0,0,0,0,,,,,,,,,,,642.9624,643.4624,643.7123,645.0957,space,1.3514,,645.0957,52,8,646.0957,646.0957,646.1,,,,0,12,12,12,1,45,105,,,,,,,,
,,5eb8e53084a7aa842e9698e4,65af560ecbfd19b26dc0c3f5,2024-01-23_03h02.33.829,bars,2023.2.3,Win32,60.24096386,657b66ea316d21385b68909f,,,,,,,,,,,646.1,647.0956,,,647.5956,647.8456,,96,-84,,,,,,,,,,,,,,,,bars/019.png,bars/mask003.png,,,,,,,,,,,,0,2,,,,,,,0,2,0,0,,,,,,,,,,,647.0956,647.5956,647.8456,651.179,space,3.3081,,651.179,51,9,652.1789,652.1789,652.1832,,,,0,13,13,13,1,45,105,,,,,,,,
,,5eb8e53084a7aa842e9698e4,65af560ecbfd19b26dc0c3f5,2024-01-23_03h02.33.829,bars,2023.2.3,Win32,60.24096386,657b66ea316d21385b68909f,,,,,,,,,,,652.1833,653.179,,,653.679,653.9289,,105,105,,,,,,,,,,,,,,,,bars/019.png,bars/mask005.png,,,,,,,,,,,,4,2,,,,,,,0,4,0,4,,,,,,,,,,,653.179,653.679,653.9289,654.9956,space,1.0346,,654.9956,60,0,655.9956,655.9956,655.9959,,,,0,14,14,14,1,45,105,,,,,,,,
,,5eb8e53084a7aa842e9698e4,65af560ecbfd19b26dc0c3f5,2024-01-23_03h02.33.829,bars,2023.2.3,Win32,60.24096386,657b66ea316d21385b68909f,,,,,,,,,,,655.996,656.9956,,,657.4956,657.7455,,173,173,,,,,,,,,,,,,,,,bars/005.png,bars/mask002.png,,,,,,,,,,,,1,1,,,,,,,2,2,3,2,,,,,,,,,,,656.9956,657.4956,657.7455,658.5956,space,0.8191,,658.5956,17,33,659.5955,659.5955,659.5963,,,,0,15,15,15,1,10,140,,,,,,,,
,,5eb8e53084a7aa842e9698e4,65af560ecbfd19b26dc0c3f5,2024-01-23_03h02.33.829,bars,2023.2.3,Win32,60.24096386,657b66ea316d21385b68909f,,,,,,,,,,,659.5964,660.5956,,,661.0956,661.3456,,20,200,,,,,,,,,,,,,,,,bars/022.png,bars/mask007.png,,,,,,,,,,,,0,2,,,,,,,0,0,0,0,,,,,,,,,,,660.5956,661.0956,661.3456,664.1789,space,2.8,,664.1789,75,0,665.1789,665.1789,665.1834,,,,0,16,16,16,1,95,20,,,,,,,,
,,5eb8e53084a7aa842e9698e4,65af560ecbfd19b26dc0c3f5,2024-01-23_03h02.33.829,bars,2023.2.3,Win32,60.24096386,657b66ea316d21385b68909f,,,,,,,,,,,665.1835,666.1788,,,666.6788,666.9288,,151,-29,,,,,,,,,,,,,,,,bars/042.png,bars/mask003.png,,,,,,,,,,,,0,1,,,,,,,0,2,0,2,,,,,,,,,,,666.1788,666.6788,666.9288,671.3122,space,4.3548,,671.3122,6,76,672.3121,672.3121,672.3168,,,,0,17,17,17,1,145,75,,,,,,,,
,,5eb8e53084a7aa842e9698e4,65af560ecbfd19b26dc0c3f5,2024-01-23_03h02.33.829,bars,2023.2.3,Win32,60.24096386,657b66ea316d21385b68909f,,,,,,,,,,,672.3169,673.3121,,,673.8122,674.0621,,106,-74,,,,,,,,,,,,,,,,bars/008.png,bars/mask007.png,,,,,,,,,,,,0,1,,,,,,,0,4,0,2,,,,,,,,,,,673.3121,673.8122,674.0621,677.3288,space,3.2415,,677.3288,4,74,678.3288,678.3288,678.3331,,,,0,18,18,18,1,110,0,,,,,,,,
,,5eb8e53084a7aa842e9698e4,65af560ecbfd19b26dc0c3f5,2024-01-23_03h02.33.829,bars,2023.2.3,Win32,60.24096386,657b66ea316d21385b68909f,,,,,,,,,,,678.3332,679.3288,,,679.8287,680.0788,,176,176,,,,,,,,,,,,,,,,bars/021.png,bars/mask005.png,,,,,,,,,,,,1,1,,,,,,,2,6,4,8,,,,,,,,,,,679.3288,679.8287,680.0788,681.6954,space,1.5849,,681.6954,21,74,682.6954,682.6955,682.6997,,,,0,19,19,19,1,155,70,,,,,,,,
,,5eb8e53084a7aa842e9698e4,65af560ecbfd19b26dc0c3f5,2024-01-23_03h02.33.829,bars,2023.2.3,Win32,60.24096386,657b66ea316d21385b68909f,,,,,,,,,,,682.6998,683.6954,,,684.1954,684.4454,,172,-8,,,,,,,,,,,,,,,,bars/048.png,bars/mask009.png,,,,,,,,,,,,3,2,,,,,,,0,4,0,3,,,,,,,,,,,683.6954,684.1954,684.4454,686.6787,space,2.2083,,686.6787,58,3,687.6787,687.6787,687.6796,,,,0,20,20,20,1,50,175,,,,,,,,
,,5eb8e53084a7aa842e9698e4,65af560ecbfd19b26dc0c3f5,2024-01-23_03h02.33.829,bars,2023.2.3,Win32,60.24096386,657b66ea316d21385b68909f,,,,,,,,,,,687.6797,688.6787,,,689.1787,689.431,,0,180,,,,,,,,,,,,,,,,bars/040.png,bars/mask006.png,,,,,,,,,,,,6,2,,,,,,,2,6,3,7,,,,,,,,,,,688.6787,689.1787,689.431,691.712,space,2.2551,,691.712,40,5,692.712,692.712,692.7168,,,,0,21,21,21,1,140,5,,,,,,,,
,,5eb8e53084a7aa842e9698e4,65af560ecbfd19b26dc0c3f5,2024-01-23_03h02.33.829,bars,2023.2.3,Win32,60.24096386,657b66ea316d21385b68909f,,,,,,,,,,,692.7168,693.7119,,,694.212,694.4619,,50,50,,,,,,,,,,,,,,,,bars/007.png,bars/mask006.png,,,,,,,,,,,,8,2,,,,,,,0,8,0,9,,,,,,,,,,,693.712,694.212,694.4619,696.6649,space,2.1836,,696.6649,55,5,697.662,697.662,697.6623,,,,0,22,22,22,1,175,55,,,,,,,,
,,5eb8e53084a7aa842e9698e4,65af560ecbfd19b26dc0c3f5,2024-01-23_03h02.33.829,bars,2023.2.3,Win32,60.24096386,657b66ea316d21385b68909f,,,,,,,,,,,697.6624,698.6619,,,699.162,699.4119,,109,109,,,,,,,,,,,,,,,,bars/019.png,bars/mask008.png,,,,,,,,,,,,4,2,,,,,,,0,6,1,5,,,,,,,,,,,698.662,699.162,699.4119,702.2952,space,2.8616,,702.2952,64,4,703.2952,703.2953,703.2996,,,,0,23,23,23,1,45,105,,,,,,,,
,,5eb8e53084a7aa842e9698e4,65af560ecbfd19b26dc0c3f5,2024-01-23_03h02.33.829,bars,2023.2.3,Win32,60.24096386,657b66ea316d21385b68909f,,,,,,,,,,,703.2996,704.2952,,,704.7952,705.0452,,5,5,,,,,,,,,,,,,,,,bars/008.png,bars/mask006.png,,,,,,,,,,,,8,2,,,,,,,2,8,2,9,,,,,,,,,,,704.2952,704.7952,705.0452,708.2119,space,3.1382,,708.2119,75,5,709.2118,709.2118,709.216,,,,0,24,24,24,1,110,0,,,,,,,,
,,5eb8e53084a7aa842e9698e4,65af560ecbfd19b26dc0c3f5,2024-01-23_03h02.33.829,bars,2023.2.3,Win32,60.24096386,657b66ea316d21385b68909f,,,,,,,,,,,709.2161,710.2118,,,710.7119,710.9619,,7,187,,,,,,,,,,,,,,,,bars/040.png,bars/mask003.png,,,,,,,,,,,,9,2,,,,,,,0,10,1,10,,,,,,,,,,,710.2119,710.7119,710.9619,714.3452,space,3.3518,,714.3452,47,2,715.3451,715.3451,715.3494,,,,0,25,25,25,1,140,5,,,,,,,,
,,5eb8e53084a7aa842e9698e4,65af560ecbfd19b26dc0c3f5,2024-01-23_03h02.33.829,bars,2023.2.3,Win32,60.24096386,657b66ea316d21385b68909f,,,,,,,,,,,715.3495,716.3451,,,716.8452,717.0951,,41,221,,,,,,,,,,,,,,,,bars/035.png,bars/mask000.png,,,,,,,,,,,,3,2,,,,,,,2,8,3,9,,,,,,,,,,,716.3452,716.8452,717.0951,719.2951,space,2.1956,,719.2952,46,19,720.2951,720.2951,720.2994,,,,0,26,26,26,1,175,60,,,,,,,,
,,5eb8e53084a7aa842e9698e4,65af560ecbfd19b26dc0c3f5,2024-01-23_03h02.33.829,bars,2023.2.3,Win32,60.24096386,657b66ea316d21385b68909f,,,,,,,,,,,720.2995,721.2951,,,721.795,722.0451,,154,-26,,,,,,,,,,,,,,,,bars/044.png,bars/mask000.png,,,,,,,,,,,,10,2,,,,,,,0,10,0,10,,,,,,,,,,,721.2951,721.795,722.0451,725.8951,space,3.8285,,725.8951,79,1,726.8964,726.8964,726.9008,,,,0,27,27,27,1,75,155,,,,,,,,
,,5eb8e53084a7aa842e9698e4,65af560ecbfd19b26dc0c3f5,2024-01-23_03h02.33.829,bars,2023.2.3,Win32,60.24096386,657b66ea316d21385b68909f,,,,,,,,,,,726.9008,727.895,,,728.3951,728.6451,,93,93,,,,,,,,,,,,,,,,bars/041.png,bars/mask000.png,,,,,,,,,,,,7,2,,,,,,,0,10,0,10,,,,,,,,,,,727.895,728.3951,728.6451,730.5146,space,1.8503,,730.5146,73,8,731.5117,731.5117,731.512,,,,0,28,28,28,1,20,85,,,,,,,,
,,5eb8e53084a7aa842e9698e4,65af560ecbfd19b26dc0c3f5,2024-01-23_03h02.33.829,bars,2023.2.3,Win32,60.24096386,657b66ea316d21385b68909f,,,,,,,,,,,731.5121,732.5117,,,733.0116,733.2616,,162,-18,,,,,,,,,,,,,,,,bars/033.png,bars/mask007.png,,,,,,,,,,,,8,2,,,,,,,0,10,1,10,,,,,,,,,,,732.5118,733.0116,733.2616,736.445,space,3.1618,,736.445,43,7,737.445,737.445,737.4492,,,,0,29,29,29,1,25,155,,,,,,,,
,,5eb8e53084a7aa842e9698e4,65af560ecbfd19b26dc0c3f5,2024-01-23_03h02.33.829,bars,2023.2.3,Win32,60.24096386,657b66ea316d21385b68909f,,,,,,,,,,,737.4493,738.4449,,,738.9449,739.195,,111,111,,,,,,,,,,,,,,,,bars/049.png,bars/mask008.png,,,,,,,,,,,,5,2,,,,,,,2,8,2,6,,,,,,,,,,,738.4449,738.9449,739.195,741.745,space,2.5452,,741.745,49,4,742.745,742.745,742.749,,,,0,30,30,30,1,160,115,,,,,,,,
,,5eb8e53084a7aa842e9698e4,65af560ecbfd19b26dc0c3f5,2024-01-23_03h02.33.829,bars,2023.2.3,Win32,60.24096386,657b66ea316d21385b68909f,,,,,,,,,,,742.7492,743.7449,,,744.2449,744.4949,,66,66,,,,,,,,,,,,,,,,bars/038.png,bars/mask001.png,,,,,,,,,,,,6,2,,,,,,,4,6,4,7,,,,,,,,,,,743.7449,744.2449,744.4949,746.2783,space,1.7496,,746.2783,81,4,747.2785,747.2785,747.2788,,,,0,31,31,31,1,165,70,,,,,,,,
,,5eb8e53084a7aa842e9698e4,65af560ecbfd19b26dc0c3f5,2024-01-23_03h02.33.829,bars,2023.2.3,Win32,60.24096386,657b66ea316d21385b68909f,,,,,,,,,,,747.2789,748.2782,,,748.7782,749.0282,,154,-26,,,,,,,,,,,,,,,,bars/015.png,bars/mask008.png,,,,,,,,,,,,8,2,,,,,,,2,8,1,10,,,,,,,,,,,748.2782,748.7782,749.0282,751.3812,space,2.3335,,751.3812,44,6,752.3782,752.3782,752.3824,,,,0,32,32,32,1,110,160,,,,,,,,
,,5eb8e53084a7aa842e9698e4,65af560ecbfd19b26dc0c3f5,2024-01-23_03h02.33.829,bars,2023.2.3,Win32,60.24096386,657b66ea316d21385b68909f,,,,,,,,,,,752.3825,753.3782,,,753.8782,754.1282,,73,73,,,,,,,,,,,,,,,,bars/021.png,bars/mask001.png,,,,,,,,,,,,7,2,,,,,,,0,10,1,8,,,,,,,,,,,753.3783,753.8782,754.1282,756.0812,space,1.9337,,756.0812,82,3,757.0781,757.0781,757.0828,,,,0,33,33,33,1,155,70,,,,,,,,
,,5eb8e53084a7aa842e9698e4,65af560ecbfd19b26dc0c3f5,2024-01-23_03h02.33.829,bars,2023.2.3,Win32,60.24096386,657b66ea316d21385b68909f,,,,,,,,,,,757.0829,758.0781,,,758.5781,758.8282,,51,51,,,,,,,,,,,,,,,,bars/017.png,bars/mask006.png,,,,,,,,,,,,7,2,,,,,,,2,8,2,9,,,,,,,,,,,758.0781,758.5781,758.8282,760.3115,space,1.4492,,760.3115,86,6,761.3115,761.3115,761.3118,,,,0,34,34,34,1,145,45,,,,,,,,
,,5eb8e53084a7aa842e9698e4,65af560ecbfd19b26dc0c3f5,2024-01-23_03h02.33.829,bars,2023.2.3,Win32,60.24096386,657b66ea316d21385b68909f,,,,,,,,,,,761.3119,762.3115,,,762.8115,763.0614,,16,196,,,,,,,,,,,,,,,,bars/036.png,bars/mask005.png,,,,,,,,,,,,6,2,,,,,,,4,6,4,7,,,,,,,,,,,762.3115,762.8115,763.0614,764.8948,space,1.8021,,764.8948,51,4,765.8948,765.8948,765.8952,,,,0,35,35,35,1,145,20,,,,,,,,
,,5eb8e53084a7aa842e9698e4,65af560ecbfd19b26dc0c3f5,2024-01-23_03h02.33.829,bars,2023.2.3,Win32,60.24096386,657b66ea316d21385b68909f,,,,,,,,,,,765.8952,766.8948,,,767.3948,767.6448,,34,34,,,,,,,,,,,,,,,,bars/007.png,bars/mask000.png,,,,,,,,,,,,1,2,,,,,,,6,4,7,2,,,,,,,,,,,766.8948,767.3947,767.6448,769.3447,space,1.6689,,769.3448,39,21,770.3447,770.3448,770.3489,,,,0,36,36,36,1,175,55,,,,,,,,
,,5eb8e53084a7aa842e9698e4,65af560ecbfd19b26dc0c3f5,2024-01-23_03h02.33.829,bars,2023.2.3,Win32,60.24096386,657b66ea316d21385b68909f,,,,,,,,,,,770.349,771.3447,,,771.8448,772.0947,,113,113,,,,,,,,,,,,,,,,bars/037.png,bars/mask006.png,,,,,,,,,,,,4,2,,,,,,,4,6,5,6,,,,,,,,,,,771.3447,771.8447,772.0947,774.6448,space,2.529,,774.6448,37,8,775.6447,775.6447,775.649,,,,0,37,37,37,1,150,105,,,,,,,,
,,5eb8e53084a7aa842e9698e4,65af560ecbfd19b26dc0c3f5,2024-01-23_03h02.33.829,bars,2023.2.3,Win32,60.24096386,657b66ea316d21385b68909f,,,,,,,,,,,775.649,776.6446,,,777.1447,777.3947,,115,115,,,,,,,,,,,,,,,,bars/023.png,bars/mask007.png,,,,,,,,,,,,9,2,,,,,,,2,8,3,9,,,,,,,,,,,776.6446,777.1447,777.3947,778.6947,space,1.2787,,778.6947,85,0,779.6947,779.6947,779.695,,,,0,38,38,38,1,20,115,,,,,,,,
,,5eb8e53084a7aa842e9698e4,65af560ecbfd19b26dc0c3f5,2024-01-23_03h02.33.829,bars,2023.2.3,Win32,60.24096386,657b66ea316d21385b68909f,,,,,,,,,,,779.6951,780.6947,,,781.1947,781.4446,,116,116,,,,,,,,,,,,,,,,bars/049.png,bars/mask006.png,,,,,,,,,,,,10,2,,,,,,,0,10,1,10,,,,,,,,,,,780.6947,781.1947,781.4446,782.7779,space,1.2999,,782.778,44,1,783.778,783.778,783.7783,,,,0,39,39,39,1,160,115,,,,,,,,
,,5eb8e53084a7aa842e9698e4,65af560ecbfd19b26dc0c3f5,2024-01-23_03h02.33.829,bars,2023.2.3,Win32,60.24096386,657b66ea316d21385b68909f,,,,,,,,,,,783.7784,784.778,,,785.2779,785.528,,83,83,,,,,,,,,,,,,,,,bars/046.png,bars/mask008.png,,,,,,,,,,,,9,2,,,,,,,2,10,2,10,,,,,,,,,,,784.778,785.2779,785.528,789.1447,space,3.5855,,789.1447,72,2,790.1446,790.1446,790.1487,,,,0,40,40,40,1,155,85,,,,,,,,
,,5eb8e53084a7aa842e9698e4,65af560ecbfd19b26dc0c3f5,2024-01-23_03h02.33.829,bars,2023.2.3,Win32,60.24096386,657b66ea316d21385b68909f,,,,,,,,,,,790.1488,791.1446,,,791.6445,791.8946,,79,-101,,,,,,,,,,,,,,,,bars/041.png,bars/mask008.png,,,,,,,,,,,,5,2,,,,,,,4,8,3,6,,,,,,,,,,,791.1446,791.6445,791.8946,796.3279,space,4.4002,,796.3279,59,6,797.3279,797.3279,797.3322,,,,0,41,41,41,1,20,85,,,,,,,,
,,5eb8e53084a7aa842e9698e4,65af560ecbfd19b26dc0c3f5,2024-01-23_03h02.33.829,bars,2023.2.3,Win32,60.24096386,657b66ea316d21385b68909f,,,,,,,,,,,797.3322,798.3279,,,798.8279,799.0779,,67,67,,,,,,,,,,,,,,,,bars/038.png,bars/mask006.png,,,,,,,,,,,,8,2,,,,,,,6,10,5,9,,,,,,,,,,,798.3279,798.8279,799.0779,800.9778,space,1.8756,,800.9779,82,3,801.9779,801.9779,801.9782,,,,0,42,42,42,1,165,70,,,,,,,,
,,5eb8e53084a7aa842e9698e4,65af560ecbfd19b26dc0c3f5,2024-01-23_03h02.33.829,bars,2023.2.3,Win32,60.24096386,657b66ea316d21385b68909f,,,,,,,,,,,801.9782,802.9778,,,803.4778,803.7278,,132,132,,,,,,,,,,,,,,,,bars/023.png,bars/mask005.png,,,,,,,,,,,,4,2,,,,,,,4,10,5,9,,,,,,,,,,,802.9778,803.4778,803.7278,807.7142,space,3.967,,807.7142,68,17,808.7111,808.7112,808.7161,,,,0,43,43,43,1,20,115,,,,,,,,
,,5eb8e53084a7aa842e9698e4,65af560ecbfd19b26dc0c3f5,2024-01-23_03h02.33.829,bars,2023.2.3,Win32,60.24096386,657b66ea316d21385b68909f,,,,,,,,,,,808.7162,809.7111,,,810.2111,810.4611,,163,-17,,,,,,,,,,,,,,,,bars/044.png,bars/mask001.png,,,,,,,,,,,,7,2,,,,,,,2,10,3,10,,,,,,,,,,,809.7111,810.2111,810.4611,812.5444,space,2.0525,,812.5444,88,8,813.5444,813.5444,813.5448,,,,0,44,44,44,1,75,155,,,,,,,,
,,5eb8e53084a7aa842e9698e4,65af560ecbfd19b26dc0c3f5,2024-01-23_03h02.33.829,bars,2023.2.3,Win32,60.24096386,657b66ea316d21385b68909f,,,,,,,,,,,813.5449,814.5444,,,815.0444,815.2944,,66,246,,,,,,,,,,,,,,,,bars/047.png,bars/mask008.png,,,,,,,,,,,,9,2,,,,,,,0,10,0,10,,,,,,,,,,,814.5444,815.0444,815.2944,818.961,space,3.641,,818.961,51,4,819.9611,819.9611,819.9653,,,,0,45,45,45,1,15,70,,,,,,,,
,,5eb8e53084a7aa842e9698e4,65af560ecbfd19b26dc0c3f5,2024-01-23_03h02.33.829,bars,2023.2.3,Win32,60.24096386,657b66ea316d21385b68909f,,,,,,,,,,,819.9653,820.961,,,821.461,821.7109,,84,84,,,,,,,,,,,,,,,,bars/041.png,bars/mask009.png,,,,,,,,,,,,10,2,,,,,,,0,10,1,10,,,,,,,,,,,820.961,821.461,821.711,824.7277,space,2.983,,824.7277,64,1,825.7276,825.7276,825.7322,,,,0,46,46,46,1,20,85,,,,,,,,
,,5eb8e53084a7aa842e9698e4,65af560ecbfd19b26dc0c3f5,2024-01-23_03h02.33.829,bars,2023.2.3,Win32,60.24096386,657b66ea316d21385b68909f,,,,,,,,,,,825.7323,826.7277,,,827.2276,827.4776,,101,101,,,,,,,,,,,,,,,,bars/019.png,bars/mask002.png,,,,,,,,,,,,9,2,,,,,,,0,10,3,10,,,,,,,,,,,826.7277,827.2276,827.4776,829.3776,space,1.8664,,829.3776,56,4,830.3777,830.3777,830.382,,,,0,47,47,47,1,45,105,,,,,,,,
,,5eb8e53084a7aa842e9698e4,65af560ecbfd19b26dc0c3f5,2024-01-23_03h02.33.829,bars,2023.2.3,Win32,60.24096386,657b66ea316d21385b68909f,,,,,,,,,,,830.382,831.3776,,,831.8777,832.1275,,27,27,,,,,,,,,,,,,,,,bars/007.png,bars/mask007.png,,,,,,,,,,,,1,2,,,,,,,0,10,0,10,,,,,,,,,,,831.3776,831.8776,832.1276,834.0276,space,1.876,,834.0276,32,28,835.0276,835.0276,835.0319,,,,0,48,48,48,1,175,55,,,,,,,,
,,5eb8e53084a7aa842e9698e4,65af560ecbfd19b26dc0c3f5,2024-01-23_03h02.33.829,bars,2023.2.3,Win32,60.24096386,657b66ea316d21385b68909f,,,,,,,,,,,835.032,836.0276,,,836.5276,836.7775,,66,246,,,,,,,,,,,,,,,,bars/030.png,bars/mask005.png,,,,,,,,,,,,8,2,,,,,,,2,8,1,8,,,,,,,,,,,836.0276,836.5276,836.7775,840.3943,space,3.5874,,840.3943,74,1,841.3942,841.3942,841.3985,,,,0,49,49,49,1,140,65,,,,,,,,
,,5eb8e53084a7aa842e9698e4,65af560ecbfd19b26dc0c3f5,2024-01-23_03h02.33.829,bars,2023.2.3,Win32,60.24096386,657b66ea316d21385b68909f,,,,,,,,,,,,,,,,,,,,,,,,,,,,,,,,,,,,,,,,,,,,,,,,,,,,,,,,,,,,,,,,,,,,,,,,,,,,,,,,,,,,,,,,,,,,,841.3985,901.3937,0,1,1,2,1,sequence_tables/blk012.csv
,,5eb8e53084a7aa842e9698e4,65af560ecbfd19b26dc0c3f5,2024-01-23_03h02.33.829,bars,2023.2.3,Win32,60.24096386,657b66ea316d21385b68909f,,,,,,,,,,,927.916,928.9102,,,929.4102,929.6602,,69,69,,,,,,,,,,,,,,,,bars/038.png,bars/mask001.png,,,,,,,,,,,,7,2,,,,,,,3,6,4,7,,,,,,901.3982,927.9103,space,26.4903,,928.9102,929.4101,929.6602,932.1936,space,2.5133,,932.1937,84,1,933.1936,933.1936,933.1978,,,,0,0,0,0,1,165,70,,,,,,,,
,,5eb8e53084a7aa842e9698e4,65af560ecbfd19b26dc0c3f5,2024-01-23_03h02.33.829,bars,2023.2.3,Win32,60.24096386,657b66ea316d21385b68909f,,,,,,,,,,,933.1979,934.1935,,,934.6935,934.9461,,92,92,,,,,,,,,,,,,,,,bars/042.png,bars/mask005.png,,,,,,,,,,,,3,2,,,,,,,5,8,3,7,,,,,,,,,,,934.1935,934.6935,934.9462,936.5269,space,1.5601,,936.5269,53,17,937.5268,937.5268,937.5272,,,,0,1,1,1,1,145,75,,,,,,,,
,,5eb8e53084a7aa842e9698e4,65af560ecbfd19b26dc0c3f5,2024-01-23_03h02.33.829,bars,2023.2.3,Win32,60.24096386,657b66ea316d21385b68909f,,,,,,,,,,,937.5273,938.5268,,,939.0268,939.2768,,174,174,,,,,,,,,,,,,,,,bars/014.png,bars/mask007.png,,,,,,,,,,,,8,2,,,,,,,7,10,8,10,,,,,,,,,,,938.5268,939.0268,939.2768,943.9101,space,4.6067,,943.9101,86,6,944.9101,944.9101,944.9143,,,,0,2,2,2,1,80,0,,,,,,,,
,,5eb8e53084a7aa842e9698e4,65af560ecbfd19b26dc0c3f5,2024-01-23_03h02.33.829,bars,2023.2.3,Win32,60.24096386,657b66ea316d21385b68909f,,,,,,,,,,,944.9143,945.9101,,,946.4101,946.6601,,119,-61,,,,,,,,,,,,,,,,bars/049.png,bars/mask003.png,,,,,,,,,,,,9,2,,,,,,,5,10,5,10,,,,,,,,,,,945.9101,946.4101,946.6601,949.96,space,3.2734,,949.9601,41,4,950.96,950.96,950.9643,,,,0,3,3,3,1,160,115,,,,,,,,
,,5eb8e53084a7aa842e9698e4,65af560ecbfd19b26dc0c3f5,2024-01-23_03h02.33.829,bars,2023.2.3,Win32,60.24096386,657b66ea316d21385b68909f,,,,,,,,,,,950.9644,951.96,,,952.4601,952.71,,176,-4,,,,,,,,,,,,,,,,bars/008.png,bars/mask008.png,,,,,,,,,,,,7,2,,,,,,,3,10,2,8,,,,,,,,,,,951.96,952.4601,952.71,955.6601,space,2.9235,,955.6601,66,4,956.66,956.66,956.6643,,,,0,4,4,4,1,110,0,,,,,,,,
,,5eb8e53084a7aa842e9698e4,65af560ecbfd19b26dc0c3f5,2024-01-23_03h02.33.829,bars,2023.2.3,Win32,60.24096386,657b66ea316d21385b68909f,,,,,,,,,,,956.6644,957.66,,,958.16,958.41,,35,35,,,,,,,,,,,,,,,,bars/007.png,bars/mask004.png,,,,,,,,,,,,3,2,,,,,,,1,10,1,9,,,,,,,,,,,957.66,958.16,958.41,960.01,space,1.5737,,960.01,40,20,961.01,961.01,961.0103,,,,0,5,5,5,1,175,55,,,,,,,,
,,5eb8e53084a7aa842e9698e4,65af560ecbfd19b26dc0c3f5,2024-01-23_03h02.33.829,bars,2023.2.3,Win32,60.24096386,657b66ea316d21385b68909f,,,,,,,,,,,961.0104,962.01,,,962.51,962.76,,163,-17,,,,,,,,,,,,,,,,bars/044.png,bars/mask000.png,,,,,,,,,,,,7,2,,,,,,,3,10,1,10,,,,,,,,,,,962.01,962.51,962.76,966.9614,space,4.1821,,966.9614,88,8,967.9603,967.9603,967.9646,,,,0,6,6,6,1,75,155,,,,,,,,
,,5eb8e53084a7aa842e9698e4,65af560ecbfd19b26dc0c3f5,2024-01-23_03h02.33.829,bars,2023.2.3,Win32,60.24096386,657b66ea316d21385b68909f,,,,,,,,,,,967.9646,968.9601,,,969.46,969.7099,,90,90,,,,,,,,,,,,,,,,bars/018.png,bars/mask007.png,,,,,,,,,,,,10,2,,,,,,,5,10,5,10,,,,,,,,,,,968.9601,969.46,969.7099,970.6766,space,0.9337,,970.6766,60,0,971.6766,971.6766,971.6769,,,,0,7,7,7,1,150,90,,,,,,,,
,,5eb8e53084a7aa842e9698e4,65af560ecbfd19b26dc0c3f5,2024-01-23_03h02.33.829,bars,2023.2.3,Win32,60.24096386,657b66ea316d21385b68909f,,,,,,,,,,,971.677,972.6765,,,973.1766,973.4265,,66,66,,,,,,,,,,,,,,,,bars/038.png,bars/mask000.png,,,,,,,,,,,,8,2,,,,,,,7,8,7,9,,,,,,,,,,,972.6765,973.1766,973.4266,975.1932,space,1.7471,,975.1932,81,4,976.1933,976.1933,976.1976,,,,0,8,8,8,1,165,70,,,,,,,,
,,5eb8e53084a7aa842e9698e4,65af560ecbfd19b26dc0c3f5,2024-01-23_03h02.33.829,bars,2023.2.3,Win32,60.24096386,657b66ea316d21385b68909f,,,,,,,,,,,976.1977,977.1932,,,977.6932,977.9432,,133,-47,,,,,,,,,,,,,,,,bars/023.png,bars/mask008.png,,,,,,,,,,,,2,2,,,,,,,5,6,7,5,,,,,,,,,,,977.1932,977.6931,977.9432,981.7765,space,3.8014,,981.7766,67,18,982.7764,982.7765,982.7806,,,,0,9,9,9,1,20,115,,,,,,,,
,,5eb8e53084a7aa842e9698e4,65af560ecbfd19b26dc0c3f5,2024-01-23_03h02.33.829,bars,2023.2.3,Win32,60.24096386,657b66ea316d21385b68909f,,,,,,,,,,,982.7807,983.7793,,,984.2765,984.5264,,171,171,,,,,,,,,,,,,,,,bars/020.png,bars/mask004.png,,,,,,,,,,,,10,2,,,,,,,7,8,7,10,,,,,,,,,,,983.7793,984.2764,984.5264,985.6265,space,1.0671,,985.6265,56,1,986.6264,986.6265,986.6268,,,,0,10,10,10,1,115,170,,,,,,,,
,,5eb8e53084a7aa842e9698e4,65af560ecbfd19b26dc0c3f5,2024-01-23_03h02.33.829,bars,2023.2.3,Win32,60.24096386,657b66ea316d21385b68909f,,,,,,,,,,,986.6269,987.6265,,,988.1265,988.3765,,116,116,,,,,,,,,,,,,,,,bars/023.png,bars/mask000.png,,,,,,,,,,,,9,2,,,,,,,9,10,8,9,,,,,,,,,,,987.6265,988.1265,988.3765,991.0598,space,2.6741,,991.0598,84,1,992.0597,992.0598,992.064,,,,0,11,11,11,1,20,115,,,,,,,,
,,5eb8e53084a7aa842e9698e4,65af560ecbfd19b26dc0c3f5,2024-01-23_03h02.33.829,bars,2023.2.3,Win32,60.24096386,657b66ea316d21385b68909f,,,,,,,,,,,992.0641,993.0598,,,993.5597,993.8098,,136,136,,,,,,,,,,,,,,,,bars/043.png,bars/mask008.png,,,,,,,,,,,,8,2,,,,,,,10,10,9,10,,,,,,,,,,,993.0598,993.5597,993.8098,995.6461,space,1.817,,995.6461,74,6,996.643,996.6431,996.6471,,,,0,12,12,12,1,30,130,,,,,,,,
,,5eb8e53084a7aa842e9698e4,65af560ecbfd19b26dc0c3f5,2024-01-23_03h02.33.829,bars,2023.2.3,Win32,60.24096386,657b66ea316d21385b68909f,,,,,,,,,,,996.6471,997.643,,,998.143,998.3931,,110,110,,,,,,,,,,,,,,,,bars/039.png,bars/mask005.png,,,,,,,,,,,,7,2,,,,,,,8,8,8,8,,,,,,,,,,,997.643,998.143,998.3931,1001.8097,space,3.3906,,1001.8098,65,5,1002.8097,1002.8097,1002.8139,,,,0,13,13,13,1,175,105,,,,,,,,
,,5eb8e53084a7aa842e9698e4,65af560ecbfd19b26dc0c3f5,2024-01-23_03h02.33.829,bars,2023.2.3,Win32,60.24096386,657b66ea316d21385b68909f,,,,,,,,,,,1002.814,1003.8096,,,1004.3096,1004.5597,,129,129,,,,,,,,,,,,,,,,bars/004.png,bars/mask006.png,,,,,,,,,,,,9,2,,,,,,,10,10,10,10,,,,,,,,,,,1003.8097,1004.3096,1004.5597,1006.4096,space,1.8239,,1006.4097,76,4,1007.4096,1007.4096,1007.41,,,,0,14,14,14,1,25,125,,,,,,,,
,,5eb8e53084a7aa842e9698e4,65af560ecbfd19b26dc0c3f5,2024-01-23_03h02.33.829,bars,2023.2.3,Win32,60.24096386,657b66ea316d21385b68909f,,,,,,,,,,,1007.4101,1008.4096,,,1008.9096,1009.1596,,9,189,,,,,,,,,,,,,,,,bars/045.png,bars/mask001.png,,,,,,,,,,,,10,2,,,,,,,8,10,6,10,,,,,,,,,,,1008.4096,1008.9096,1009.1596,1012.0763,space,2.894,,1012.0763,89,1,1013.0762,1013.0763,1013.0804,,,,0,15,15,15,1,100,10,,,,,,,,
,,5eb8e53084a7aa842e9698e4,65af560ecbfd19b26dc0c3f5,2024-01-23_03h02.33.829,bars,2023.2.3,Win32,60.24096386,657b66ea316d21385b68909f,,,,,,,,,,,1013.0805,1014.0763,,,1014.5762,1014.8263,,19,199,,,,,,,,,,,,,,,,bars/012.png,bars/mask009.png,,,,,,,,,,,,8,2,,,,,,,10,10,10,9,,,,,,,,,,,1014.0763,1014.5762,1014.8263,1018.3596,space,3.5074,,1018.3596,71,4,1019.3595,1019.3596,1019.3639,,,,0,16,16,16,1,90,15,,,,,,,,
,,5eb8e53084a7aa842e9698e4,65af560ecbfd19b26dc0c3f5,2024-01-23_03h02.33.829,bars,2023.2.3,Win32,60.24096386,657b66ea316d21385b68909f,,,,,,,,,,,1019.3641,1020.3595,,,1020.8595,1021.1095,,72,72,,,,,,,,,,,,,,,,bars/042.png,bars/mask004.png,,,,,,,,,,,,9,2,,,,,,,10,10,10,10,,,,,,,,,,,1020.3595,1020.8595,1021.1095,1023.0096,space,1.8752,,1023.0096,73,3,1024.0095,1024.0095,1024.014,,,,0,17,17,17,1,145,75,,,,,,,,
,,5eb8e53084a7aa842e9698e4,65af560ecbfd19b26dc0c3f5,2024-01-23_03h02.33.829,bars,2023.2.3,Win32,60.24096386,657b66ea316d21385b68909f,,,,,,,,,,,1024.0141,1025.0095,,,1025.5097,1025.7595,,77,77,,,,,,,,,,,,,,,,bars/021.png,bars/mask000.png,,,,,,,,,,,,8,2,,,,,,,10,10,9,10,,,,,,,,,,,1025.0095,1025.5097,1025.7595,1027.1762,space,1.3836,,1027.1762,78,7,1028.1762,1028.1762,1028.1805,,,,0,18,18,18,1,155,70,,,,,,,,
,,5eb8e53084a7aa842e9698e4,65af560ecbfd19b26dc0c3f5,2024-01-23_03h02.33.829,bars,2023.2.3,Win32,60.24096386,657b66ea316d21385b68909f,,,,,,,,,,,1028.1806,1029.1762,,,1029.6761,1029.9262,,176,-4,,,,,,,,,,,,,,,,bars/014.png,bars/mask001.png,,,,,,,,,,,,7,2,,,,,,,8,8,10,8,,,,,,,,,,,1029.1762,1029.6761,1029.9262,1031.3261,space,1.3677,,1031.3261,84,4,1032.3261,1032.3262,1032.3305,,,,0,19,19,19,1,80,0,,,,,,,,
,,5eb8e53084a7aa842e9698e4,65af560ecbfd19b26dc0c3f5,2024-01-23_03h02.33.829,bars,2023.2.3,Win32,60.24096386,657b66ea316d21385b68909f,,,,,,,,,,,1032.3305,1033.3261,,,1033.8261,1034.0761,,143,-37,,,,,,,,,,,,,,,,bars/005.png,bars/mask003.png,,,,,,,,,,,,5,2,,,,,,,10,6,10,5,,,,,,,,,,,1033.3262,1033.8261,1034.0761,1036.0595,space,1.9579,,1036.0595,47,3,1037.0597,1037.0597,1037.0639,,,,0,20,20,20,1,10,140,,,,,,,,
,,5eb8e53084a7aa842e9698e4,65af560ecbfd19b26dc0c3f5,2024-01-23_03h02.33.829,bars,2023.2.3,Win32,60.24096386,657b66ea316d21385b68909f,,,,,,,,,,,1037.064,1038.0594,,,1038.5594,1038.8096,,96,96,,,,,,,,,,,,,,,,bars/006.png,bars/mask008.png,,,,,,,,,,,,4,2,,,,,,,10,4,10,5,,,,,,,,,,,1038.0594,1038.5594,1038.8096,1041.076,space,2.2442,,1041.0761,61,4,1042.076,1042.076,1042.0803,,,,0,21,21,21,1,35,100,,,,,,,,
,,5eb8e53084a7aa842e9698e4,65af560ecbfd19b26dc0c3f5,2024-01-23_03h02.33.829,bars,2023.2.3,Win32,60.24096386,657b66ea316d21385b68909f,,,,,,,,,,,1042.0804,1043.076,,,1043.576,1043.826,,64,64,,,,,,,,,,,,,,,,bars/042.png,bars/mask003.png,,,,,,,,,,,,0,2,,,,,,,8,2,9,0,,,,,,,,,,,1043.076,1043.576,1043.826,1045.8593,space,1.9998,,1045.8594,81,11,1046.8594,1046.8594,1046.8638,,,,0,22,22,22,1,145,75,,,,,,,,
,,5eb8e53084a7aa842e9698e4,65af560ecbfd19b26dc0c3f5,2024-01-23_03h02.33.829,bars,2023.2.3,Win32,60.24096386,657b66ea316d21385b68909f,,,,,,,,,,,1046.8639,1047.8593,,,1048.3594,1048.6094,,1,1,,,,,,,,,,,,,,,,bars/013.png,bars/mask005.png,,,,,,,,,,,,2,2,,,,,,,6,4,6,3,,,,,,,,,,,1047.8593,1048.3593,1048.6094,1051.8093,space,3.1664,,1051.8094,74,9,1052.8093,1052.8093,1052.8135,,,,0,23,23,23,1,75,10,,,,,,,,
,,5eb8e53084a7aa842e9698e4,65af560ecbfd19b26dc0c3f5,2024-01-23_03h02.33.829,bars,2023.2.3,Win32,60.24096386,657b66ea316d21385b68909f,,,,,,,,,,,1052.8136,1053.8093,,,1054.3093,1054.5593,,154,154,,,,,,,,,,,,,,,,bars/044.png,bars/mask008.png,,,,,,,,,,,,6,2,,,,,,,8,6,8,6,,,,,,,,,,,1053.8093,1054.3093,1054.5593,1057.0593,space,2.4663,,1057.0593,79,1,1058.0593,1058.0593,1058.0635,,,,0,24,24,24,1,75,155,,,,,,,,
,,5eb8e53084a7aa842e9698e4,65af560ecbfd19b26dc0c3f5,2024-01-23_03h02.33.829,bars,2023.2.3,Win32,60.24096386,657b66ea316d21385b68909f,,,,,,,,,,,1058.0635,1059.0593,,,1059.5592,1059.8093,,108,108,,,,,,,,,,,,,,,,bars/039.png,bars/mask001.png,,,,,,,,,,,,5,2,,,,,,,10,4,10,5,,,,,,,,,,,1059.0593,1059.5592,1059.8093,1062.076,space,2.2443,,1062.076,67,3,1063.0759,1063.0759,1063.0802,,,,0,25,25,25,1,175,105,,,,,,,,
,,5eb8e53084a7aa842e9698e4,65af560ecbfd19b26dc0c3f5,2024-01-23_03h02.33.829,bars,2023.2.3,Win32,60.24096386,657b66ea316d21385b68909f,,,,,,,,,,,1063.0803,1064.0759,,,1064.5759,1064.8258,,155,-25,,,,,,,,,,,,,,,,bars/044.png,bars/mask008.png,,,,,,,,,,,,2,2,,,,,,,10,2,10,2,,,,,,,,,,,1064.0759,1064.5759,1064.8259,1068.7759,space,3.9177,,1068.7759,80,0,1069.7758,1069.7759,1069.7801,,,,0,26,26,26,1,75,155,,,,,,,,
,,5eb8e53084a7aa842e9698e4,65af560ecbfd19b26dc0c3f5,2024-01-23_03h02.33.829,bars,2023.2.3,Win32,60.24096386,657b66ea316d21385b68909f,,,,,,,,,,,1069.7802,1070.7759,,,1071.276,1071.5258,,54,54,,,,,,,,,,,,,,,,bars/029.png,bars/mask004.png,,,,,,,,,,,,3,2,,,,,,,8,4,7,4,,,,,,,,,,,1070.7759,1071.276,1071.5258,1073.7759,space,2.2178,,1073.7759,36,9,1074.7758,1074.7759,1074.7799,,,,0,27,27,27,1,90,45,,,,,,,,
,,5eb8e53084a7aa842e9698e4,65af560ecbfd19b26dc0c3f5,2024-01-23_03h02.33.829,bars,2023.2.3,Win32,60.24096386,657b66ea316d21385b68909f,,,,,,,,,,,1074.78,1075.7758,,,1076.2758,1076.5257,,41,41,,,,,,,,,,,,,,,,bars/029.png,bars/mask000.png,,,,,,,,,,,,6,2,,,,,,,6,6,4,7,,,,,,,,,,,1075.7758,1076.2758,1076.5258,1078.1257,space,1.5695,,1078.1258,49,4,1079.1258,1079.1258,1079.126,,,,0,28,28,28,1,90,45,,,,,,,,
,,5eb8e53084a7aa842e9698e4,65af560ecbfd19b26dc0c3f5,2024-01-23_03h02.33.829,bars,2023.2.3,Win32,60.24096386,657b66ea316d21385b68909f,,,,,,,,,,,1079.1261,1080.1258,,,1080.6258,1080.8757,,5,185,,,,,,,,,,,,,,,,bars/014.png,bars/mask004.png,,,,,,,,,,,,3,2,,,,,,,4,4,3,4,,,,,,,,,,,1080.1258,1080.6258,1080.8758,1082.3758,space,1.4966,,1082.3758,75,5,1083.3757,1083.3757,1083.376,,,,0,29,29,29,1,80,0,,,,,,,,
,,5eb8e53084a7aa842e9698e4,65af560ecbfd19b26dc0c3f5,2024-01-23_03h02.33.829,bars,2023.2.3,Win32,60.24096386,657b66ea316d21385b68909f,,,,,,,,,,,1083.3761,1084.3757,,,1084.8758,1085.1257,,157,-23,,,,,,,,,,,,,,,,bars/044.png,bars/mask001.png,,,,,,,,,,,,3,2,,,,,,,6,2,6,3,,,,,,,,,,,1084.3758,1084.8757,1085.1257,1088.109,space,2.9766,,1088.109,82,2,1089.109,1089.109,1089.1131,,,,0,30,30,30,1,75,155,,,,,,,,
,,5eb8e53084a7aa842e9698e4,65af560ecbfd19b26dc0c3f5,2024-01-23_03h02.33.829,bars,2023.2.3,Win32,60.24096386,657b66ea316d21385b68909f,,,,,,,,,,,1089.1132,1090.109,,,1090.6091,1090.8591,,129,129,,,,,,,,,,,,,,,,bars/043.png,bars/mask000.png,,,,,,,,,,,,0,2,,,,,,,4,0,5,0,,,,,,,,,,,1090.109,1090.6091,1090.8592,1091.9757,space,1.0848,,1091.9757,81,1,1092.9757,1092.9757,1092.976,,,,0,31,31,31,1,30,130,,,,,,,,
,,5eb8e53084a7aa842e9698e4,65af560ecbfd19b26dc0c3f5,2024-01-23_03h02.33.829,bars,2023.2.3,Win32,60.24096386,657b66ea316d21385b68909f,,,,,,,,,,,1092.976,1093.9756,,,1094.4757,1094.7257,,34,34,,,,,,,,,,,,,,,,bars/007.png,bars/mask001.png,,,,,,,,,,,,1,2,,,,,,,6,2,6,2,,,,,,,,,,,1093.9756,1094.4757,1094.7257,1096.9089,space,2.1578,,1096.909,39,21,1097.9089,1097.909,1097.9093,,,,0,32,32,32,1,175,55,,,,,,,,
,,5eb8e53084a7aa842e9698e4,65af560ecbfd19b26dc0c3f5,2024-01-23_03h02.33.829,bars,2023.2.3,Win32,60.24096386,657b66ea316d21385b68909f,,,,,,,,,,,1097.9094,1098.909,,,1099.4091,1099.6591,,157,-23,,,,,,,,,,,,,,,,bars/036.png,bars/mask004.png,,,,,,,,,,,,6,1,,,,,,,8,4,10,5,,,,,,,,,,,1098.909,1099.4091,1099.6591,1102.0256,space,2.3444,,1102.0256,12,43,1103.0256,1103.0256,1103.0303,,,,0,33,33,33,1,145,20,,,,,,,,
,,5eb8e53084a7aa842e9698e4,65af560ecbfd19b26dc0c3f5,2024-01-23_03h02.33.829,bars,2023.2.3,Win32,60.24096386,657b66ea316d21385b68909f,,,,,,,,,,,1103.0304,1104.0256,,,1104.5256,1104.7755,,150,-30,,,,,,,,,,,,,,,,bars/030.png,bars/mask000.png,,,,,,,,,,,,5,1,,,,,,,10,6,8,5,,,,,,,,,,,1104.0256,1104.5256,1104.7756,1108.1089,space,3.3,,1108.1089,10,85,1109.1088,1109.1089,1109.1132,,,,0,34,34,34,1,140,65,,,,,,,,
,,5eb8e53084a7aa842e9698e4,65af560ecbfd19b26dc0c3f5,2024-01-23_03h02.33.829,bars,2023.2.3,Win32,60.24096386,657b66ea316d21385b68909f,,,,,,,,,,,1109.1133,1110.1089,,,1110.6089,1110.8589,,154,154,,,,,,,,,,,,,,,,bars/042.png,bars/mask000.png,,,,,,,,,,,,7,1,,,,,,,10,8,10,8,,,,,,,,,,,1110.1089,1110.6089,1110.8589,1112.0923,space,1.2048,,1112.0923,9,79,1113.0922,1113.0922,1113.0925,,,,0,35,35,35,1,145,75,,,,,,,,
,,5eb8e53084a7aa842e9698e4,65af560ecbfd19b26dc0c3f5,2024-01-23_03h02.33.829,bars,2023.2.3,Win32,60.24096386,657b66ea316d21385b68909f,,,,,,,,,,,1113.0926,1114.0922,,,1114.5921,1114.8422,,138,138,,,,,,,,,,,,,,,,bars/040.png,bars/mask005.png,,,,,,,,,,,,7,1,,,,,,,8,10,8,10,,,,,,,,,,,1114.0922,1114.5921,1114.8422,1115.6422,space,0.7715,,1115.6422,2,47,1116.6422,1116.6422,1116.6425,,,,0,36,36,36,1,140,5,,,,,,,,
,,5eb8e53084a7aa842e9698e4,65af560ecbfd19b26dc0c3f5,2024-01-23_03h02.33.829,bars,2023.2.3,Win32,60.24096386,657b66ea316d21385b68909f,,,,,,,,,,,1116.6426,1117.6422,,,1118.1421,1118.3921,,15,195,,,,,,,,,,,,,,,,bars/005.png,bars/mask002.png,,,,,,,,,,,,4,1,,,,,,,6,10,5,9,,,,,,,,,,,1117.6422,1118.1421,1118.3921,1120.9088,space,2.4915,,1120.9088,5,55,1121.9088,1121.9089,1121.9091,,,,0,37,37,37,1,10,140,,,,,,,,
,,5eb8e53084a7aa842e9698e4,65af560ecbfd19b26dc0c3f5,2024-01-23_03h02.33.829,bars,2023.2.3,Win32,60.24096386,657b66ea316d21385b68909f,,,,,,,,,,,1121.9093,1122.9088,,,1123.4088,1123.6588,,37,37,,,,,,,,,,,,,,,,bars/019.png,bars/mask007.png,,,,,,,,,,,,3,1,,,,,,,4,8,4,8,,,,,,,,,,,1122.9088,1123.4088,1123.6588,1125.0255,space,1.3349,,1125.0255,8,68,1126.0254,1126.0254,1126.0257,,,,0,38,38,38,1,45,105,,,,,,,,
,,5eb8e53084a7aa842e9698e4,65af560ecbfd19b26dc0c3f5,2024-01-23_03h02.33.829,bars,2023.2.3,Win32,60.24096386,657b66ea316d21385b68909f,,,,,,,,,,,1126.0258,1127.0255,,,1127.5254,1127.7754,,127,127,,,,,,,,,,,,,,,,bars/024.png,bars/mask008.png,,,,,,,,,,,,2,1,,,,,,,2,6,2,5,,,,,,,,,,,1127.0255,1127.5254,1127.7754,1129.692,space,1.8881,,1129.6921,7,43,1130.6921,1130.6921,1130.6963,,,,0,39,39,39,1,120,170,,,,,,,,
,,5eb8e53084a7aa842e9698e4,65af560ecbfd19b26dc0c3f5,2024-01-23_03h02.33.829,bars,2023.2.3,Win32,60.24096386,657b66ea316d21385b68909f,,,,,,,,,,,1130.6964,1131.692,,,1132.192,1132.4421,,96,96,,,,,,,,,,,,,,,,bars/029.png,bars/mask003.png,,,,,,,,,,,,4,1,,,,,,,4,8,5,7,,,,,,,,,,,1131.692,1132.192,1132.4421,1134.9087,space,2.433,,1134.9088,6,51,1135.9087,1135.9087,1135.909,,,,0,40,40,40,1,90,45,,,,,,,,
,,5eb8e53084a7aa842e9698e4,65af560ecbfd19b26dc0c3f5,2024-01-23_03h02.33.829,bars,2023.2.3,Win32,60.24096386,657b66ea316d21385b68909f,,,,,,,,,,,1135.9091,1136.9087,,,1137.4087,1137.6587,,156,-24,,,,,,,,,,,,,,,,bars/011.png,bars/mask006.png,,,,,,,,,,,,2,1,,,,,,,2,6,2,5,,,,,,,,,,,1136.9087,1137.4087,1137.6587,1142.0587,space,4.3749,,1142.0587,4,71,1143.0586,1143.0587,1143.0628,,,,0,41,41,41,1,160,85,,,,,,,,
,,5eb8e53084a7aa842e9698e4,65af560ecbfd19b26dc0c3f5,2024-01-23_03h02.33.829,bars,2023.2.3,Win32,60.24096386,657b66ea316d21385b68909f,,,,,,,,,,,1143.0628,1144.0587,,,1144.5586,1144.8086,,57,57,,,,,,,,,,,,,,,,bars/048.png,bars/mask005.png,,,,,,,,,,,,0,1,,,,,,,0,4,0,3,,,,,,,,,,,1144.0587,1144.5586,1144.8086,1146.3586,space,1.5163,,1146.3586,7,62,1147.3586,1147.3586,1147.359,,,,0,42,42,42,1,50,175,,,,,,,,
,,5eb8e53084a7aa842e9698e4,65af560ecbfd19b26dc0c3f5,2024-01-23_03h02.33.829,bars,2023.2.3,Win32,60.24096386,657b66ea316d21385b68909f,,,,,,,,,,,1147.359,1148.3586,,,1148.8586,1149.1085,,41,41,,,,,,,,,,,,,,,,bars/017.png,bars/mask006.png,,,,,,,,,,,,3,2,,,,,,,2,2,1,3,,,,,,,,,,,1148.3586,1148.8586,1149.1086,1152.6253,space,3.5116,,1152.6253,76,4,1153.6252,1153.6253,1153.6298,,,,0,43,43,43,1,145,45,,,,,,,,
,,5eb8e53084a7aa842e9698e4,65af560ecbfd19b26dc0c3f5,2024-01-23_03h02.33.829,bars,2023.2.3,Win32,60.24096386,657b66ea316d21385b68909f,,,,,,,,,,,1153.6299,1154.6253,,,1155.1252,1155.3752,,62,62,,,,,,,,,,,,,,,,bars/038.png,bars/mask004.png,,,,,,,,,,,,3,2,,,,,,,4,4,5,4,,,,,,,,,,,1154.6253,1155.1252,1155.3752,1157.4752,space,2.0784,,1157.4752,77,8,1158.4752,1158.4752,1158.4796,,,,0,44,44,44,1,165,70,,,,,,,,
,,5eb8e53084a7aa842e9698e4,65af560ecbfd19b26dc0c3f5,2024-01-23_03h02.33.829,bars,2023.2.3,Win32,60.24096386,657b66ea316d21385b68909f,,,,,,,,,,,1158.4796,1159.4751,,,1159.9752,1160.2252,,46,46,,,,,,,,,,,,,,,,bars/017.png,bars/mask004.png,,,,,,,,,,,,2,2,,,,,,,6,2,5,2,,,,,,,,,,,1159.4752,1159.9751,1160.2252,1162.1771,space,1.9497,,1162.1771,81,1,1163.1751,1163.1752,1163.1794,,,,0,45,45,45,1,145,45,,,,,,,,
,,5eb8e53084a7aa842e9698e4,65af560ecbfd19b26dc0c3f5,2024-01-23_03h02.33.829,bars,2023.2.3,Win32,60.24096386,657b66ea316d21385b68909f,,,,,,,,,,,1163.1794,1164.1752,,,1164.6752,1164.9252,,141,-39,,,,,,,,,,,,,,,,bars/043.png,bars/mask006.png,,,,,,,,,,,,1,2,,,,,,,4,4,5,2,,,,,,,,,,,1164.1752,1164.6752,1164.9252,1167.8418,space,2.8884,,1167.8418,69,11,1168.8417,1168.8418,1168.846,,,,0,46,46,46,1,30,130,,,,,,,,
,,5eb8e53084a7aa842e9698e4,65af560ecbfd19b26dc0c3f5,2024-01-23_03h02.33.829,bars,2023.2.3,Win32,60.24096386,657b66ea316d21385b68909f,,,,,,,,,,,1168.8462,1169.8418,,,1170.3418,1170.5918,,6,6,,,,,,,,,,,,,,,,bars/009.png,bars/mask006.png,,,,,,,,,,,,5,1,,,,,,,6,2,7,2,,,,,,,,,,,1169.8418,1170.3418,1170.5918,1173.7751,space,3.1528,,1173.7751,9,81,1174.775,1174.775,1174.7795,,,,0,47,47,47,1,15,105,,,,,,,,
,,5eb8e53084a7aa842e9698e4,65af560ecbfd19b26dc0c3f5,2024-01-23_03h02.33.829,bars,2023.2.3,Win32,60.24096386,657b66ea316d21385b68909f,,,,,,,,,,,1174.7796,1175.7751,,,1176.2751,1176.5251,,20,20,,,,,,,,,,,,,,,,bars/033.png,bars/mask009.png,,,,,,,,,,,,3,1,,,,,,,4,4,3,3,,,,,,,,,,,1175.7751,1176.2751,1176.5251,1178.9584,space,2.3997,,1178.9584,5,45,1179.9584,1179.9584,1179.9587,,,,0,48,48,48,1,25,155,,,,,,,,
,,5eb8e53084a7aa842e9698e4,65af560ecbfd19b26dc0c3f5,2024-01-23_03h02.33.829,bars,2023.2.3,Win32,60.24096386,657b66ea316d21385b68909f,,,,,,,,,,,1179.9588,1180.9583,,,1181.4583,1181.7084,,145,-35,,,,,,,,,,,,,,,,bars/017.png,bars/mask008.png,,,,,,,,,,,,1,1,,,,,,,2,2,1,2,,,,,,,,,,,1180.9583,1181.4583,1181.7084,1186.1417,space,4.4052,,1186.1417,0,80,1187.1416,1187.1416,1187.1458,,,,0,49,49,49,1,145,45,,,,,,,,
,,5eb8e53084a7aa842e9698e4,65af560ecbfd19b26dc0c3f5,2024-01-23_03h02.33.829,bars,2023.2.3,Win32,60.24096386,657b66ea316d21385b68909f,,,,,,,,,,,,,,,,,,,,,,,,,,,,,,,,,,,,,,,,,,,,,,,,,,,,,,,,,,,,,,,,,,,,,,,,,,,,,,,,,,,,,,,,,,,,,1187.1459,1247.1412,0,2,2,4,1,sequence_tables/blk020.csv
,,5eb8e53084a7aa842e9698e4,65af560ecbfd19b26dc0c3f5,2024-01-23_03h02.33.829,bars,2023.2.3,Win32,60.24096386,657b66ea316d21385b68909f,,,,,,,,,,,1249.6267,1250.6245,,,1251.1245,1251.3745,,42,42,,,,,,,,,,,,,,,,bars/010.png,bars/mask007.png,,,,,,,,,,,,6,2,,,,,,,9,9,7,10,,,,,,1247.1456,1249.6245,space,2.4526,,1250.6245,1251.1245,1251.3745,1253.0579,space,1.6602,,1253.0579,57,13,1254.0578,1254.0578,1254.0624,,,,0,0,0,0,1,165,55,,,,,,,,
,,5eb8e53084a7aa842e9698e4,65af560ecbfd19b26dc0c3f5,2024-01-23_03h02.33.829,bars,2023.2.3,Win32,60.24096386,657b66ea316d21385b68909f,,,,,,,,,,,1254.0625,1255.0578,,,1255.5578,1255.8078,,164,164,,,,,,,,,,,,,,,,bars/033.png,bars/mask007.png,,,,,,,,,,,,7,2,,,,,,,7,10,7,10,,,,,,,,,,,1255.0578,1255.5578,1255.8078,1258.1578,space,2.3164,,1258.1579,41,9,1259.1578,1259.1578,1259.1621,,,,0,1,1,1,1,25,155,,,,,,,,
,,5eb8e53084a7aa842e9698e4,65af560ecbfd19b26dc0c3f5,2024-01-23_03h02.33.829,bars,2023.2.3,Win32,60.24096386,657b66ea316d21385b68909f,,,,,,,,,,,1259.1622,1260.1578,,,1260.6577,1260.9078,,13,193,,,,,,,,,,,,,,,,bars/032.png,bars/mask006.png,,,,,,,,,,,,6,2,,,,,,,9,8,9,8,,,,,,,,,,,1260.1578,1260.6577,1260.9078,1262.0577,space,1.1164,,1262.0578,68,7,1263.0578,1263.0578,1263.0581,,,,0,2,2,2,1,125,20,,,,,,,,
,,5eb8e53084a7aa842e9698e4,65af560ecbfd19b26dc0c3f5,2024-01-23_03h02.33.829,bars,2023.2.3,Win32,60.24096386,657b66ea316d21385b68909f,,,,,,,,,,,1263.0582,1264.0577,,,1264.5578,1264.8078,,54,54,,,,,,,,,,,,,,,,bars/035.png,bars/mask000.png,,,,,,,,,,,,6,2,,,,,,,10,6,8,7,,,,,,,,,,,1264.0577,1264.5578,1264.8078,1266.191,space,1.3559,,1266.1911,59,6,1267.1911,1267.1911,1267.1956,,,,0,3,3,3,1,175,60,,,,,,,,
,,5eb8e53084a7aa842e9698e4,65af560ecbfd19b26dc0c3f5,2024-01-23_03h02.33.829,bars,2023.2.3,Win32,60.24096386,657b66ea316d21385b68909f,,,,,,,,,,,1267.1956,1268.1912,,,1268.6911,1268.941,,158,158,,,,,,,,,,,,,,,,bars/044.png,bars/mask003.png,,,,,,,,,,,,4,2,,,,,,,10,4,9,4,,,,,,,,,,,1268.1912,1268.6911,1268.9411,1270.4578,space,1.483,,1270.4578,83,3,1271.4577,1271.4577,1271.4619,,,,0,4,4,4,1,75,155,,,,,,,,
,,5eb8e53084a7aa842e9698e4,65af560ecbfd19b26dc0c3f5,2024-01-23_03h02.33.829,bars,2023.2.3,Win32,60.24096386,657b66ea316d21385b68909f,,,,,,,,,,,1271.462,1272.4577,,,1272.9577,1273.2077,,104,104,,,,,,,,,,,,,,,,bars/041.png,bars/mask004.png,,,,,,,,,,,,1,2,,,,,,,8,2,8,3,,,,,,,,,,,1272.4577,1272.9576,1273.2077,1275.3577,space,2.1164,,1275.3577,84,19,1276.3576,1276.3577,1276.3618,,,,0,5,5,5,1,20,85,,,,,,,,
,,5eb8e53084a7aa842e9698e4,65af560ecbfd19b26dc0c3f5,2024-01-23_03h02.33.829,bars,2023.2.3,Win32,60.24096386,657b66ea316d21385b68909f,,,,,,,,,,,1276.3619,1277.3577,,,1277.8577,1278.1077,,79,79,,,,,,,,,,,,,,,,bars/011.png,bars/mask007.png,,,,,,,,,,,,3,2,,,,,,,6,4,6,4,,,,,,,,,,,1277.3577,1277.8576,1278.1077,1281.041,space,2.9069,,1281.041,81,6,1282.0409,1282.0409,1282.0452,,,,0,6,6,6,1,160,85,,,,,,,,
,,5eb8e53084a7aa842e9698e4,65af560ecbfd19b26dc0c3f5,2024-01-23_03h02.33.829,bars,2023.2.3,Win32,60.24096386,657b66ea316d21385b68909f,,,,,,,,,,,1282.0452,1283.041,,,1283.5409,1283.7909,,175,-5,,,,,,,,,,,,,,,,bars/048.png,bars/mask000.png,,,,,,,,,,,,6,2,,,,,,,8,6,9,6,,,,,,,,,,,1283.041,1283.5409,1283.7909,1285.7575,space,1.933,,1285.7576,55,0,1286.7575,1286.7576,1286.7579,,,,0,7,7,7,1,50,175,,,,,,,,
,,5eb8e53084a7aa842e9698e4,65af560ecbfd19b26dc0c3f5,2024-01-23_03h02.33.829,bars,2023.2.3,Win32,60.24096386,657b66ea316d21385b68909f,,,,,,,,,,,1286.758,1287.7576,,,1288.2576,1288.5075,,70,70,,,,,,,,,,,,,,,,bars/034.png,bars/mask005.png,,,,,,,,,,,,7,2,,,,,,,10,8,10,8,,,,,,,,,,,1287.7576,1288.2576,1288.5075,1291.8576,space,3.3164,,1291.8576,55,5,1292.8575,1292.8575,1292.8617,,,,0,8,8,8,1,125,65,,,,,,,,
,,5eb8e53084a7aa842e9698e4,65af560ecbfd19b26dc0c3f5,2024-01-23_03h02.33.829,bars,2023.2.3,Win32,60.24096386,657b66ea316d21385b68909f,,,,,,,,,,,1292.8618,1293.8575,,,1294.3576,1294.6075,,57,237,,,,,,,,,,,,,,,,bars/007.png,bars/mask003.png,,,,,,,,,,,,9,2,,,,,,,8,10,6,10,,,,,,,,,,,1293.8575,1294.3576,1294.6075,1297.2741,space,2.6361,,1297.2741,62,2,1298.2742,1298.2742,1298.2782,,,,0,9,9,9,1,175,55,,,,,,,,
,,5eb8e53084a7aa842e9698e4,65af560ecbfd19b26dc0c3f5,2024-01-23_03h02.33.829,bars,2023.2.3,Win32,60.24096386,657b66ea316d21385b68909f,,,,,,,,,,,1298.2783,1299.2742,,,1299.7741,1300.0241,,113,113,,,,,,,,,,,,,,,,bars/019.png,bars/mask006.png,,,,,,,,,,,,7,2,,,,,,,10,10,10,10,,,,,,,,,,,1299.2742,1299.7741,1300.0242,1301.4433,space,1.3994,,1301.4433,68,8,1302.4408,1302.4408,1302.4412,,,,0,10,10,10,1,45,105,,,,,,,,
,,5eb8e53084a7aa842e9698e4,65af560ecbfd19b26dc0c3f5,2024-01-23_03h02.33.829,bars,2023.2.3,Win32,60.24096386,657b66ea316d21385b68909f,,,,,,,,,,,1302.4413,1303.4408,,,1303.9408,1304.1908,,3,183,,,,,,,,,,,,,,,,bars/014.png,bars/mask002.png,,,,,,,,,,,,9,2,,,,,,,8,10,9,10,,,,,,,,,,,1303.4408,1303.9408,1304.1908,1307.7074,space,3.4928,,1307.7074,77,3,1308.7074,1308.7074,1308.7117,,,,0,11,11,11,1,80,0,,,,,,,,
,,5eb8e53084a7aa842e9698e4,65af560ecbfd19b26dc0c3f5,2024-01-23_03h02.33.829,bars,2023.2.3,Win32,60.24096386,657b66ea316d21385b68909f,,,,,,,,,,,1308.7118,1309.7074,,,1310.2079,1310.4574,,79,79,,,,,,,,,,,,,,,,bars/046.png,bars/mask008.png,,,,,,,,,,,,6,2,,,,,,,10,8,8,7,,,,,,,,,,,1309.7075,1310.2079,1310.4574,1311.4574,space,0.9664,,1311.4574,76,6,1312.4574,1312.4574,1312.4576,,,,0,12,12,12,1,155,85,,,,,,,,
,,5eb8e53084a7aa842e9698e4,65af560ecbfd19b26dc0c3f5,2024-01-23_03h02.33.829,bars,2023.2.3,Win32,60.24096386,657b66ea316d21385b68909f,,,,,,,,,,,1312.4577,1313.4574,,,1313.9574,1314.2074,,158,-22,,,,,,,,,,,,,,,,bars/044.png,bars/mask000.png,,,,,,,,,,,,5,2,,,,,,,10,6,10,6,,,,,,,,,,,1313.4574,1313.9574,1314.2074,1316.124,space,1.8854,,1316.1241,83,3,1317.124,1317.124,1317.1243,,,,0,13,13,13,1,75,155,,,,,,,,
,,5eb8e53084a7aa842e9698e4,65af560ecbfd19b26dc0c3f5,2024-01-23_03h02.33.829,bars,2023.2.3,Win32,60.24096386,657b66ea316d21385b68909f,,,,,,,,,,,1317.1244,1318.124,,,1318.624,1318.874,,104,104,,,,,,,,,,,,,,,,bars/009.png,bars/mask008.png,,,,,,,,,,,,4,2,,,,,,,8,4,9,4,,,,,,,,,,,1318.124,1318.624,1318.874,1320.374,space,1.4696,,1320.374,89,1,1321.374,1321.374,1321.3782,,,,0,14,14,14,1,15,105,,,,,,,,
,,5eb8e53084a7aa842e9698e4,65af560ecbfd19b26dc0c3f5,2024-01-23_03h02.33.829,bars,2023.2.3,Win32,60.24096386,657b66ea316d21385b68909f,,,,,,,,,,,1321.3783,1322.374,,,1322.874,1323.124,,86,86,,,,,,,,,,,,,,,,bars/001.png,bars/mask008.png,,,,,,,,,,,,2,2,,,,,,,10,2,10,2,,,,,,,,,,,1322.374,1322.874,1323.124,1323.824,space,0.6797,,1323.824,44,1,1324.8241,1324.8241,1324.8245,,,,0,15,15,15,1,130,85,,,,,,,,
,,5eb8e53084a7aa842e9698e4,65af560ecbfd19b26dc0c3f5,2024-01-23_03h02.33.829,bars,2023.2.3,Win32,60.24096386,657b66ea316d21385b68909f,,,,,,,,,,,1324.8246,1325.824,,,1326.3239,1326.574,,105,105,,,,,,,,,,,,,,,,bars/019.png,bars/mask005.png,,,,,,,,,,,,1,2,,,,,,,8,0,9,1,,,,,,,,,,,1325.824,1326.3239,1326.574,1328.6406,space,2.0397,,1328.6406,60,0,1329.6406,1329.6406,1329.645,,,,0,16,16,16,1,45,105,,,,,,,,
,,5eb8e53084a7aa842e9698e4,65af560ecbfd19b26dc0c3f5,2024-01-23_03h02.33.829,bars,2023.2.3,Win32,60.24096386,657b66ea316d21385b68909f,,,,,,,,,,,1329.645,1330.6406,,,1331.1406,1331.3906,,116,116,,,,,,,,,,,,,,,,bars/031.png,bars/mask002.png,,,,,,,,,,,,9,1,,,,,,,10,0,10,0,,,,,,,,,,,1330.6406,1331.1406,1331.3906,1332.3239,space,0.9031,,1332.3239,4,81,1333.3239,1333.3239,1333.3286,,,,0,17,17,17,1,120,35,,,,,,,,
,,5eb8e53084a7aa842e9698e4,65af560ecbfd19b26dc0c3f5,2024-01-23_03h02.33.829,bars,2023.2.3,Win32,60.24096386,657b66ea316d21385b68909f,,,,,,,,,,,1333.3286,1334.3239,,,1334.8238,1335.0739,,63,63,,,,,,,,,,,,,,,,bars/048.png,bars/mask007.png,,,,,,,,,,,,6,1,,,,,,,10,2,10,4,,,,,,,,,,,1334.3239,1334.8238,1335.0739,1337.9072,space,2.8,,1337.9072,13,68,1338.9073,1338.9073,1338.9115,,,,0,18,18,18,1,50,175,,,,,,,,
,,5eb8e53084a7aa842e9698e4,65af560ecbfd19b26dc0c3f5,2024-01-23_03h02.33.829,bars,2023.2.3,Win32,60.24096386,657b66ea316d21385b68909f,,,,,,,,,,,1338.9117,1339.9071,,,1340.4072,1340.6571,,161,-19,,,,,,,,,,,,,,,,bars/021.png,bars/mask007.png,,,,,,,,,,,,6,1,,,,,,,8,4,8,4,,,,,,,,,,,1339.9072,1340.4072,1340.6571,1344.7739,space,4.0864,,1344.7739,6,89,1345.7738,1345.7738,1345.7782,,,,0,19,19,19,1,155,70,,,,,,,,
,,5eb8e53084a7aa842e9698e4,65af560ecbfd19b26dc0c3f5,2024-01-23_03h02.33.829,bars,2023.2.3,Win32,60.24096386,657b66ea316d21385b68909f,,,,,,,,,,,1345.7783,1346.7738,,,1347.2738,1347.5238,,146,-34,,,,,,,,,,,,,,,,bars/036.png,bars/mask008.png,,,,,,,,,,,,9,1,,,,,,,10,6,9,5,,,,,,,,,,,1346.7738,1347.2738,1347.5238,1350.8585,space,3.3154,,1350.8585,1,54,1351.8571,1351.8571,1351.8613,,,,0,20,20,20,1,145,20,,,,,,,,
,,5eb8e53084a7aa842e9698e4,65af560ecbfd19b26dc0c3f5,2024-01-23_03h02.33.829,bars,2023.2.3,Win32,60.24096386,657b66ea316d21385b68909f,,,,,,,,,,,1351.8614,1352.857,,,1353.3571,1353.607,,23,23,,,,,,,,,,,,,,,,bars/004.png,bars/mask001.png,,,,,,,,,,,,8,1,,,,,,,8,4,9,4,,,,,,,,,,,1352.8571,1353.3571,1353.6071,1354.8237,space,1.1964,,1354.8237,2,78,1355.8237,1355.8237,1355.824,,,,0,21,21,21,1,25,125,,,,,,,,
,,5eb8e53084a7aa842e9698e4,65af560ecbfd19b26dc0c3f5,2024-01-23_03h02.33.829,bars,2023.2.3,Win32,60.24096386,657b66ea316d21385b68909f,,,,,,,,,,,1355.8241,1356.8238,,,1357.3238,1357.5737,,145,145,,,,,,,,,,,,,,,,bars/042.png,bars/mask002.png,,,,,,,,,,,,8,1,,,,,,,6,6,8,5,,,,,,,,,,,1356.8238,1357.3237,1357.5737,1359.6404,space,2.0414,,1359.6404,0,70,1360.6403,1360.6403,1360.6406,,,,0,22,22,22,1,145,75,,,,,,,,
,,5eb8e53084a7aa842e9698e4,65af560ecbfd19b26dc0c3f5,2024-01-23_03h02.33.829,bars,2023.2.3,Win32,60.24096386,657b66ea316d21385b68909f,,,,,,,,,,,1360.6408,1361.6403,,,1362.1403,1362.3903,,148,148,,,,,,,,,,,,,,,,bars/040.png,bars/mask007.png,,,,,,,,,,,,6,1,,,,,,,8,4,8,2,,,,,,,,,,,1361.6404,1362.1403,1362.3903,1364.5737,space,2.1543,,1364.5737,8,37,1365.5736,1365.5736,1365.5779,,,,0,23,23,23,1,140,5,,,,,,,,
,,5eb8e53084a7aa842e9698e4,65af560ecbfd19b26dc0c3f5,2024-01-23_03h02.33.829,bars,2023.2.3,Win32,60.24096386,657b66ea316d21385b68909f,,,,,,,,,,,1365.5779,1366.5737,,,1367.0737,1367.3236,,140,140,,,,,,,,,,,,,,,,bars/040.png,bars/mask003.png,,,,,,,,,,,,10,1,,,,,,,10,6,10,6,,,,,,,,,,,1366.5737,1367.0737,1367.3236,1368.7236,space,1.3799,,1368.7236,0,45,1369.7236,1369.7236,1369.7277,,,,0,24,24,24,1,140,5,,,,,,,,
,,5eb8e53084a7aa842e9698e4,65af560ecbfd19b26dc0c3f5,2024-01-23_03h02.33.829,bars,2023.2.3,Win32,60.24096386,657b66ea316d21385b68909f,,,,,,,,,,,1369.7277,1370.7236,,,1371.2236,1371.4736,,29,209,,,,,,,,,,,,,,,,bars/019.png,bars/mask006.png,,,,,,,,,,,,3,1,,,,,,,8,4,7,4,,,,,,,,,,,1370.7236,1371.2236,1371.4736,1375.2236,space,3.7201,,1375.2236,16,76,1376.2236,1376.2236,1376.2276,,,,0,25,25,25,1,45,105,,,,,,,,
,,5eb8e53084a7aa842e9698e4,65af560ecbfd19b26dc0c3f5,2024-01-23_03h02.33.829,bars,2023.2.3,Win32,60.24096386,657b66ea316d21385b68909f,,,,,,,,,,,1376.2277,1377.2235,,,1377.7235,1377.9735,,23,23,,,,,,,,,,,,,,,,bars/003.png,bars/mask003.png,,,,,,,,,,,,8,1,,,,,,,10,6,9,6,,,,,,,,,,,1377.2235,1377.7235,1377.9735,1380.6236,space,2.6301,,1380.6236,2,63,1381.6236,1381.6236,1381.6278,,,,0,26,26,26,1,25,140,,,,,,,,
,,5eb8e53084a7aa842e9698e4,65af560ecbfd19b26dc0c3f5,2024-01-23_03h02.33.829,bars,2023.2.3,Win32,60.24096386,657b66ea316d21385b68909f,,,,,,,,,,,1381.6279,1382.6235,,,1383.1236,1383.3735,,20,20,,,,,,,,,,,,,,,,bars/003.png,bars/mask008.png,,,,,,,,,,,,8,1,,,,,,,8,4,9,4,,,,,,,,,,,1382.6235,1383.1236,1383.3735,1385.9068,space,2.4999,,1385.9068,5,60,1386.9068,1386.9069,1386.911,,,,0,27,27,27,1,25,140,,,,,,,,
,,5eb8e53084a7aa842e9698e4,65af560ecbfd19b26dc0c3f5,2024-01-23_03h02.33.829,bars,2023.2.3,Win32,60.24096386,657b66ea316d21385b68909f,,,,,,,,,,,1386.9111,1387.9068,,,1388.4068,1388.6568,,91,91,,,,,,,,,,,,,,,,bars/022.png,bars/mask000.png,,,,,,,,,,,,5,1,,,,,,,6,6,6,6,,,,,,,,,,,1387.9069,1388.4068,1388.6568,1389.4902,space,0.8068,,1389.4902,4,71,1390.4902,1390.4902,1390.4905,,,,0,28,28,28,1,95,20,,,,,,,,
,,5eb8e53084a7aa842e9698e4,65af560ecbfd19b26dc0c3f5,2024-01-23_03h02.33.829,bars,2023.2.3,Win32,60.24096386,657b66ea316d21385b68909f,,,,,,,,,,,1390.4906,1391.4901,,,1391.9901,1392.2401,,39,39,,,,,,,,,,,,,,,,bars/028.png,bars/mask003.png,,,,,,,,,,,,2,1,,,,,,,4,4,3,5,,,,,,,,,,,1391.4901,1391.9901,1392.2401,1395.8735,space,3.6135,,1395.8735,6,81,1396.8734,1396.8734,1396.8777,,,,0,29,29,29,1,45,120,,,,,,,,
,,5eb8e53084a7aa842e9698e4,65af560ecbfd19b26dc0c3f5,2024-01-23_03h02.33.829,bars,2023.2.3,Win32,60.24096386,657b66ea316d21385b68909f,,,,,,,,,,,1396.8778,1397.8734,,,1398.3734,1398.6234,,137,-43,,,,,,,,,,,,,,,,bars/037.png,bars/mask004.png,,,,,,,,,,,,1,1,,,,,,,2,2,1,2,,,,,,,,,,,1397.8735,1398.3734,1398.6234,1401.9401,space,3.2912,,1401.9401,13,32,1402.9401,1402.9401,1402.9443,,,,0,30,30,30,1,150,105,,,,,,,,
,,5eb8e53084a7aa842e9698e4,65af560ecbfd19b26dc0c3f5,2024-01-23_03h02.33.829,bars,2023.2.3,Win32,60.24096386,657b66ea316d21385b68909f,,,,,,,,,,,1402.9444,1403.9401,,,1404.4403,1404.69,,164,-16,,,,,,,,,,,,,,,,bars/033.png,bars/mask001.png,,,,,,,,,,,,2,2,,,,,,,4,4,4,3,,,,,,,,,,,1403.9401,1404.4403,1404.69,1408.7401,space,4.0235,,1408.7401,41,9,1409.74,1409.74,1409.7447,,,,0,31,31,31,1,25,155,,,,,,,,
,,5eb8e53084a7aa842e9698e4,65af560ecbfd19b26dc0c3f5,2024-01-23_03h02.33.829,bars,2023.2.3,Win32,60.24096386,657b66ea316d21385b68909f,,,,,,,,,,,1409.7448,1410.74,,,1411.24,1411.4899,,162,-18,,,,,,,,,,,,,,,,bars/048.png,bars/mask003.png,,,,,,,,,,,,1,2,,,,,,,2,2,2,1,,,,,,,,,,,1410.74,1411.24,1411.4899,1413.7066,space,2.1836,,1413.7067,68,13,1414.7066,1414.7066,1414.707,,,,0,32,32,32,1,50,175,,,,,,,,
,,5eb8e53084a7aa842e9698e4,65af560ecbfd19b26dc0c3f5,2024-01-23_03h02.33.829,bars,2023.2.3,Win32,60.24096386,657b66ea316d21385b68909f,,,,,,,,,,,1414.7071,1415.7066,,,1416.2066,1416.4566,,95,95,,,,,,,,,,,,,,,,bars/013.png,bars/mask009.png,,,,,,,,,,,,1,1,,,,,,,4,4,4,4,,,,,,,,,,,1415.7066,1416.2066,1416.4566,1419.6067,space,3.1441,,1419.6067,20,85,1420.6066,1420.6066,1420.6112,,,,0,33,33,33,1,75,10,,,,,,,,
,,5eb8e53084a7aa842e9698e4,65af560ecbfd19b26dc0c3f5,2024-01-23_03h02.33.829,bars,2023.2.3,Win32,60.24096386,657b66ea316d21385b68909f,,,,,,,,,,,1420.6113,1421.6066,,,1422.1065,1422.3566,,158,158,,,,,,,,,,,,,,,,bars/038.png,bars/mask002.png,,,,,,,,,,,,4,1,,,,,,,6,6,5,4,,,,,,,,,,,1421.6066,1422.1065,1422.3566,1424.4566,space,2.067,,1424.4566,7,88,1425.4566,1425.4566,1425.4608,,,,0,34,34,34,1,165,70,,,,,,,,
,,5eb8e53084a7aa842e9698e4,65af560ecbfd19b26dc0c3f5,2024-01-23_03h02.33.829,bars,2023.2.3,Win32,60.24096386,657b66ea316d21385b68909f,,,,,,,,,,,1425.4609,1426.4566,,,1426.9566,1427.2066,,20,200,,,,,,,,,,,,,,,,bars/047.png,bars/mask001.png,,,,,,,,,,,,4,1,,,,,,,4,4,5,3,,,,,,,,,,,1426.4566,1426.9565,1427.2066,1429.6899,space,2.457,,1429.6899,5,50,1430.6899,1430.6899,1430.6941,,,,0,35,35,35,1,15,70,,,,,,,,
,,5eb8e53084a7aa842e9698e4,65af560ecbfd19b26dc0c3f5,2024-01-23_03h02.33.829,bars,2023.2.3,Win32,60.24096386,657b66ea316d21385b68909f,,,,,,,,,,,1430.6942,1431.6898,,,1432.1899,1432.4398,,118,-62,,,,,,,,,,,,,,,,bars/024.png,bars/mask001.png,,,,,,,,,,,,3,1,,,,,,,2,2,3,2,,,,,,,,,,,1431.6898,1432.1899,1432.4398,1435.4732,space,3.0057,,1435.4732,2,52,1436.4732,1436.4732,1436.4774,,,,0,36,36,36,1,120,170,,,,,,,,
,,5eb8e53084a7aa842e9698e4,65af560ecbfd19b26dc0c3f5,2024-01-23_03h02.33.829,bars,2023.2.3,Win32,60.24096386,657b66ea316d21385b68909f,,,,,,,,,,,1436.4774,1437.4731,,,1437.9732,1438.2231,,12,192,,,,,,,,,,,,,,,,bars/005.png,bars/mask005.png,,,,,,,,,,,,0,1,,,,,,,0,0,0,0,,,,,,,,,,,1437.4731,1437.9732,1438.2231,1442.6398,space,4.383,,1442.6398,2,52,1443.6398,1443.6398,1443.644,,,,0,37,37,37,1,10,140,,,,,,,,
,,5eb8e53084a7aa842e9698e4,65af560ecbfd19b26dc0c3f5,2024-01-23_03h02.33.829,bars,2023.2.3,Win32,60.24096386,657b66ea316d21385b68909f,,,,,,,,,,,1443.6441,1444.6398,,,1445.1398,1445.3897,,167,-13,,,,,,,,,,,,,,,,bars/015.png,bars/mask003.png,,,,,,,,,,,,2,2,,,,,,,2,2,2,2,,,,,,,,,,,1444.6398,1445.1397,1445.3898,1448.8897,space,3.4741,,1448.8897,57,7,1449.8897,1449.8897,1449.8943,,,,0,38,38,38,1,110,160,,,,,,,,
,,5eb8e53084a7aa842e9698e4,65af560ecbfd19b26dc0c3f5,2024-01-23_03h02.33.829,bars,2023.2.3,Win32,60.24096386,657b66ea316d21385b68909f,,,,,,,,,,,1449.8944,1450.8897,,,1451.3897,1451.6397,,21,201,,,,,,,,,,,,,,,,bars/013.png,bars/mask001.png,,,,,,,,,,,,3,2,,,,,,,4,4,6,5,,,,,,,,,,,1450.8897,1451.3897,1451.6397,1455.5564,space,3.8838,,1455.5564,54,11,1456.5563,1456.5563,1456.5604,,,,0,39,39,39,1,75,10,,,,,,,,
,,5eb8e53084a7aa842e9698e4,65af560ecbfd19b26dc0c3f5,2024-01-23_03h02.33.829,bars,2023.2.3,Win32,60.24096386,657b66ea316d21385b68909f,,,,,,,,,,,1456.5604,1457.5563,,,1458.0563,1458.3063,,4,184,,,,,,,,,,,,,,,,bars/014.png,bars/mask000.png,,,,,,,,,,,,2,2,,,,,,,2,2,2,2,,,,,,,,,,,1457.5563,1458.0563,1458.3063,1459.6425,space,1.3167,,1459.6426,76,4,1460.6396,1460.6396,1460.6399,,,,0,40,40,40,1,80,0,,,,,,,,
,,5eb8e53084a7aa842e9698e4,65af560ecbfd19b26dc0c3f5,2024-01-23_03h02.33.829,bars,2023.2.3,Win32,60.24096386,657b66ea316d21385b68909f,,,,,,,,,,,1460.64,1461.6396,,,1462.1396,1462.3896,,132,132,,,,,,,,,,,,,,,,bars/030.png,bars/mask005.png,,,,,,,,,,,,1,1,,,,,,,4,4,2,2,,,,,,,,,,,1461.6397,1462.1396,1462.3896,1464.5063,space,2.1009,,1464.5063,8,67,1465.5062,1465.5062,1465.5108,,,,0,41,41,41,1,140,65,,,,,,,,
,,5eb8e53084a7aa842e9698e4,65af560ecbfd19b26dc0c3f5,2024-01-23_03h02.33.829,bars,2023.2.3,Win32,60.24096386,657b66ea316d21385b68909f,,,,,,,,,,,1465.5109,1466.5062,,,1467.0062,1467.2562,,90,90,,,,,,,,,,,,,,,,bars/013.png,bars/mask000.png,,,,,,,,,,,,1,1,,,,,,,2,6,1,7,,,,,,,,,,,1466.5063,1467.0062,1467.2563,1469.8062,space,2.5174,,1469.8062,15,80,1470.8062,1470.8063,1470.8103,,,,0,42,42,42,1,75,10,,,,,,,,
,,5eb8e53084a7aa842e9698e4,65af560ecbfd19b26dc0c3f5,2024-01-23_03h02.33.829,bars,2023.2.3,Win32,60.24096386,657b66ea316d21385b68909f,,,,,,,,,,,1470.8105,1471.8062,,,1472.3062,1472.5562,,102,102,,,,,,,,,,,,,,,,bars/037.png,bars/mask008.png,,,,,,,,,,,,7,2,,,,,,,0,8,0,8,,,,,,,,,,,1471.8062,1472.3062,1472.5562,1473.5229,space,0.9374,,1473.5229,48,3,1474.5229,1474.5229,1474.5236,,,,0,43,43,43,1,150,105,,,,,,,,
,,5eb8e53084a7aa842e9698e4,65af560ecbfd19b26dc0c3f5,2024-01-23_03h02.33.829,bars,2023.2.3,Win32,60.24096386,657b66ea316d21385b68909f,,,,,,,,,,,1474.5238,1475.5229,,,1476.0228,1476.2728,,16,16,,,,,,,,,,,,,,,,bars/032.png,bars/mask000.png,,,,,,,,,,,,4,2,,,,,,,0,6,1,5,,,,,,,,,,,1475.5229,1476.0228,1476.2728,1477.3062,space,1.0116,,1477.3062,71,4,1478.3062,1478.3062,1478.3065,,,,0,44,44,44,1,125,20,,,,,,,,
,,5eb8e53084a7aa842e9698e4,65af560ecbfd19b26dc0c3f5,2024-01-23_03h02.33.829,bars,2023.2.3,Win32,60.24096386,657b66ea316d21385b68909f,,,,,,,,,,,1478.3066,1479.3061,,,1479.8062,1480.0561,,70,70,,,,,,,,,,,,,,,,bars/035.png,bars/mask003.png,,,,,,,,,,,,3,2,,,,,,,2,4,1,5,,,,,,,,,,,1479.3061,1479.8062,1480.0561,1481.6228,space,1.5473,,1481.6228,75,10,1482.6228,1482.6228,1482.6231,,,,0,45,45,45,1,175,60,,,,,,,,
,,5eb8e53084a7aa842e9698e4,65af560ecbfd19b26dc0c3f5,2024-01-23_03h02.33.829,bars,2023.2.3,Win32,60.24096386,657b66ea316d21385b68909f,,,,,,,,,,,1482.6232,1483.6228,,,1484.1228,1484.3728,,56,56,,,,,,,,,,,,,,,,bars/035.png,bars/mask008.png,,,,,,,,,,,,3,2,,,,,,,4,2,3,3,,,,,,,,,,,1483.6228,1484.1228,1484.3728,1487.5729,space,3.1808,,1487.5729,61,4,1488.5727,1488.5728,1488.5769,,,,0,46,46,46,1,175,60,,,,,,,,
,,5eb8e53084a7aa842e9698e4,65af560ecbfd19b26dc0c3f5,2024-01-23_03h02.33.829,bars,2023.2.3,Win32,60.24096386,657b66ea316d21385b68909f,,,,,,,,,,,1488.5769,1489.5728,,,1490.0727,1490.3227,,115,115,,,,,,,,,,,,,,,,bars/028.png,bars/mask006.png,,,,,,,,,,,,3,2,,,,,,,6,4,7,4,,,,,,,,,,,1489.5728,1490.0727,1490.3227,1491.8394,space,1.4835,,1491.8394,70,5,1492.8394,1492.8394,1492.8397,,,,0,47,47,47,1,45,120,,,,,,,,
,,5eb8e53084a7aa842e9698e4,65af560ecbfd19b26dc0c3f5,2024-01-23_03h02.33.829,bars,2023.2.3,Win32,60.24096386,657b66ea316d21385b68909f,,,,,,,,,,,1492.8398,1493.8394,,,1494.3394,1494.5894,,44,44,,,,,,,,,,,,,,,,bars/029.png,bars/mask009.png,,,,,,,,,,,,2,2,,,,,,,4,2,4,2,,,,,,,,,,,1493.8394,1494.3393,1494.5894,1497.256,space,2.6451,,1497.2561,46,1,1498.256,1498.2561,1498.2603,,,,0,48,48,48,1,90,45,,,,,,,,
,,5eb8e53084a7aa842e9698e4,65af560ecbfd19b26dc0c3f5,2024-01-23_03h02.33.829,bars,2023.2.3,Win32,60.24096386,657b66ea316d21385b68909f,,,,,,,,,,,1498.2603,1499.256,,,1499.756,1500.006,,159,159,,,,,,,,,,,,,,,,bars/015.png,bars/mask008.png,,,,,,,,,,,,5,2,,,,,,,6,4,6,5,,,,,,,,,,,1499.256,1499.756,1500.006,1501.4394,space,1.3997,,1501.4394,49,1,1502.4393,1502.4393,1502.4396,,,,0,49,49,49,1,110,160,,,,,,,,
,,5eb8e53084a7aa842e9698e4,65af560ecbfd19b26dc0c3f5,2024-01-23_03h02.33.829,bars,2023.2.3,Win32,60.24096386,657b66ea316d21385b68909f,,,,,,,,,,,,,,,,,,,,,,,,,,,,,,,,,,,,,,,,,,,,,,,,,,,,,,,,,,,,,,,,,,,,,,,,,,,,,,,,,,,,,,,,,,,,,1502.4396,1562.4389,0,3,3,3,1,sequence_tables/blk048.csv
,,5eb8e53084a7aa842e9698e4,65af560ecbfd19b26dc0c3f5,2024-01-23_03h02.33.829,bars,2023.2.3,Win32,60.24096386,657b66ea316d21385b68909f,,,,,,,,,,,1569.7775,1570.7721,,,1571.2722,1571.5221,,172,172,,,,,,,,,,,,,,,,bars/040.png,bars/mask001.png,,,,,,,,,,,,2,2,,,,,,,9,4,9,4,,,,,,1562.4432,1569.7722,space,7.3049,,1570.7721,1571.2722,1571.5221,1572.9388,space,1.383,,1572.9388,32,13,1573.9388,1573.9389,1573.9391,,,,0,0,0,0,1,140,5,,,,,,,,
,,5eb8e53084a7aa842e9698e4,65af560ecbfd19b26dc0c3f5,2024-01-23_03h02.33.829,bars,2023.2.3,Win32,60.24096386,657b66ea316d21385b68909f,,,,,,,,,,,1573.9393,1574.9388,,,1575.4388,1575.6888,,129,-51,,,,,,,,,,,,,,,,bars/034.png,bars/mask005.png,,,,,,,,,,,,9,1,,,,,,,10,6,10,6,,,,,,,,,,,1574.9388,1575.4388,1575.6888,1578.7722,space,3.0548,,1578.7722,4,64,1579.7721,1579.7721,1579.7768,,,,0,1,1,1,1,125,65,,,,,,,,
,,5eb8e53084a7aa842e9698e4,65af560ecbfd19b26dc0c3f5,2024-01-23_03h02.33.829,bars,2023.2.3,Win32,60.24096386,657b66ea316d21385b68909f,,,,,,,,,,,1579.7769,1580.7721,,,1581.2721,1581.5233,,35,35,,,,,,,,,,,,,,,,bars/000.png,bars/mask009.png,,,,,,,,,,,,7,1,,,,,,,8,4,8,5,,,,,,,,,,,1580.7721,1581.272,1581.5234,1583.2888,space,1.7427,,1583.2888,5,70,1584.2887,1584.2887,1584.289,,,,0,2,2,2,1,40,145,,,,,,,,
,,5eb8e53084a7aa842e9698e4,65af560ecbfd19b26dc0c3f5,2024-01-23_03h02.33.829,bars,2023.2.3,Win32,60.24096386,657b66ea316d21385b68909f,,,,,,,,,,,1584.2892,1585.2889,,,1585.7887,1586.0388,,7,7,,,,,,,,,,,,,,,,bars/035.png,bars/mask008.png,,,,,,,,,,,,4,1,,,,,,,6,6,6,7,,,,,,,,,,,1585.2889,1585.7887,1586.0388,1587.7221,space,1.655,,1587.7221,12,53,1588.7221,1588.7221,1588.7262,,,,0,3,3,3,1,175,60,,,,,,,,
,,5eb8e53084a7aa842e9698e4,65af560ecbfd19b26dc0c3f5,2024-01-23_03h02.33.829,bars,2023.2.3,Win32,60.24096386,657b66ea316d21385b68909f,,,,,,,,,,,1588.7263,1589.722,,,1590.222,1590.472,,118,-62,,,,,,,,,,,,,,,,bars/002.png,bars/mask005.png,,,,,,,,,,,,2,1,,,,,,,4,8,3,8,,,,,,,,,,,1589.722,1590.222,1590.472,1592.9387,space,2.4417,,1592.9387,12,33,1593.9386,1593.9386,1593.9431,,,,0,4,4,4,1,130,85,,,,,,,,
,,5eb8e53084a7aa842e9698e4,65af560ecbfd19b26dc0c3f5,2024-01-23_03h02.33.829,bars,2023.2.3,Win32,60.24096386,657b66ea316d21385b68909f,,,,,,,,,,,1593.9431,1594.9387,,,1595.4387,1595.6886,,164,-16,,,,,,,,,,,,,,,,bars/018.png,bars/mask006.png,,,,,,,,,,,,1,1,,,,,,,2,10,1,10,,,,,,,,,,,1594.9387,1595.4387,1595.6887,1597.7219,space,2.005,,1597.722,14,74,1598.722,1598.722,1598.7263,,,,0,5,5,5,1,150,90,,,,,,,,
,,5eb8e53084a7aa842e9698e4,65af560ecbfd19b26dc0c3f5,2024-01-23_03h02.33.829,bars,2023.2.3,Win32,60.24096386,657b66ea316d21385b68909f,,,,,,,,,,,1598.7263,1599.722,,,1600.222,1600.4719,,159,159,,,,,,,,,,,,,,,,bars/033.png,bars/mask008.png,,,,,,,,,,,,7,2,,,,,,,4,8,4,8,,,,,,,,,,,1599.722,1600.2219,1600.472,1601.3053,space,0.8015,,1601.3053,46,4,1602.3052,1602.3052,1602.306,,,,0,6,6,6,1,25,155,,,,,,,,
,,5eb8e53084a7aa842e9698e4,65af560ecbfd19b26dc0c3f5,2024-01-23_03h02.33.829,bars,2023.2.3,Win32,60.24096386,657b66ea316d21385b68909f,,,,,,,,,,,1602.306,1603.3053,,,1603.8053,1604.0552,,5,5,,,,,,,,,,,,,,,,bars/014.png,bars/mask001.png,,,,,,,,,,,,8,2,,,,,,,2,10,1,10,,,,,,,,,,,1603.3053,1603.8053,1604.0552,1606.0219,space,1.9382,,1606.0219,75,5,1607.0219,1607.0219,1607.0262,,,,0,7,7,7,1,80,0,,,,,,,,
,,5eb8e53084a7aa842e9698e4,65af560ecbfd19b26dc0c3f5,2024-01-23_03h02.33.829,bars,2023.2.3,Win32,60.24096386,657b66ea316d21385b68909f,,,,,,,,,,,1607.0262,1608.0218,,,1608.5218,1608.7719,,53,53,,,,,,,,,,,,,,,,bars/027.png,bars/mask005.png,,,,,,,,,,,,6,2,,,,,,,4,8,4,7,,,,,,,,,,,1608.0218,1608.5218,1608.7719,1610.8386,space,2.0415,,1610.8386,57,3,1611.8385,1611.8385,1611.8389,,,,0,8,8,8,1,110,50,,,,,,,,
,,5eb8e53084a7aa842e9698e4,65af560ecbfd19b26dc0c3f5,2024-01-23_03h02.33.829,bars,2023.2.3,Win32,60.24096386,657b66ea316d21385b68909f,,,,,,,,,,,1611.839,1612.8386,,,1613.3386,1613.5886,,153,-27,,,,,,,,,,,,,,,,bars/003.png,bars/mask006.png,,,,,,,,,,,,4,2,,,,,,,2,6,2,7,,,,,,,,,,,1612.8386,1613.3385,1613.5886,1615.2052,space,1.5952,,1615.2052,52,13,1616.2051,1616.2051,1616.2054,,,,0,9,9,9,1,25,140,,,,,,,,
,,5eb8e53084a7aa842e9698e4,65af560ecbfd19b26dc0c3f5,2024-01-23_03h02.33.829,bars,2023.2.3,Win32,60.24096386,657b66ea316d21385b68909f,,,,,,,,,,,1616.2056,1617.208,,,1617.7051,1617.9551,,11,11,,,,,,,,,,,,,,,,bars/045.png,bars/mask006.png,,,,,,,,,,,,7,2,,,,,,,4,8,3,7,,,,,,,,,,,1617.208,1617.7051,1617.9551,1619.7885,space,1.8085,,1619.7885,89,1,1620.7885,1620.7885,1620.7927,,,,0,10,10,10,1,100,10,,,,,,,,
,,5eb8e53084a7aa842e9698e4,65af560ecbfd19b26dc0c3f5,2024-01-23_03h02.33.829,bars,2023.2.3,Win32,60.24096386,657b66ea316d21385b68909f,,,,,,,,,,,1620.7928,1621.7885,,,1622.2885,1622.5384,,22,22,,,,,,,,,,,,,,,,bars/032.png,bars/mask003.png,,,,,,,,,,,,7,2,,,,,,,2,6,1,7,,,,,,,,,,,1621.7885,1622.2884,1622.5384,1623.9718,space,1.405,,1623.9718,77,2,1624.9717,1624.9717,1624.9759,,,,0,11,11,11,1,125,20,,,,,,,,
,,5eb8e53084a7aa842e9698e4,65af560ecbfd19b26dc0c3f5,2024-01-23_03h02.33.829,bars,2023.2.3,Win32,60.24096386,657b66ea316d21385b68909f,,,,,,,,,,,1624.976,1625.9718,,,1626.4718,1626.7217,,109,-71,,,,,,,,,,,,,,,,bars/019.png,bars/mask001.png,,,,,,,,,,,,5,2,,,,,,,4,4,4,6,,,,,,,,,,,1625.9718,1626.4718,1626.7218,1631.1051,space,4.3617,,1631.1051,64,4,1632.105,1632.105,1632.109,,,,0,12,12,12,1,45,105,,,,,,,,
,,5eb8e53084a7aa842e9698e4,65af560ecbfd19b26dc0c3f5,2024-01-23_03h02.33.829,bars,2023.2.3,Win32,60.24096386,657b66ea316d21385b68909f,,,,,,,,,,,1632.1091,1633.1051,,,1633.605,1633.855,,74,74,,,,,,,,,,,,,,,,bars/002.png,bars/mask003.png,,,,,,,,,,,,4,2,,,,,,,2,6,1,6,,,,,,,,,,,1633.1051,1633.605,1633.855,1637.0383,space,3.1495,,1637.0383,56,11,1638.0383,1638.0383,1638.0425,,,,0,13,13,13,1,130,85,,,,,,,,
